requirements.started,requirements.stopped,key_resp_3.keys,key_resp_3.rt,key_resp_3.duration,Subject ID,Age,Gender,date,expName,psychopyVersion,OS,frameRate,instructions1.started,instructions1.stopped,key_resp.keys,key_resp.rt,key_resp.duration,example.started,example.stopped,enter_2.keys,enter_2.rt,enter_2.duration,instructions2.started,instructions2.stopped,enter_3.keys,enter_3.rt,enter_3.duration,image.started,image.stopped,slider_2.started,slider_2.stopped,next.keys,next.rt,next.duration,slider.response,trial_block_1.thisRepN,trial_block_1.thisTrialN,trial_block_1.thisN,trial_block_1.thisIndex,trial_block_1.ran,Path,Width,Height,Index,Duration,trial_block_2.thisRepN,trial_block_2.thisTrialN,trial_block_2.thisN,trial_block_2.thisIndex,trial_block_2.ran,rest_break.started,rest_break.stopped,end_break.started,end_break.stopped,key_resp_5.keys,key_resp_5.rt,key_resp_5.duration,trial_block_3.thisRepN,trial_block_3.thisTrialN,trial_block_3.thisN,trial_block_3.thisIndex,trial_block_3.ran,trial_block_4.thisRepN,trial_block_4.thisTrialN,trial_block_4.thisN,trial_block_4.thisIndex,trial_block_4.ran,questions_intro.started,questions_intro.stopped,enter_12.keys,enter_12.rt,enter_12.duration,question2.started,question2.stopped,question_doingbest.response,question_doingbest.rt,enter_15.keys,enter_15.rt,enter_15.duration,pattern.started,pattern.stopped,pattern_2.text,enter_17.keys,enter_17.rt,enter_17.duration,thankyou.started,thankyou.stopped,enter_14.keys,enter_14.rt,enter_14.duration
0.0001,12.8501,return,12.8422,,WIN24_049,18,Female,2024-02-09_12h47.22.533,jersey_experiment_5,2023.2.2,Win32,84.74576271,,,,,,,,,,,,,,,,,,,,,,,,,,,,,,,,,,,,,,,,,,,,,,,,,,,,,,,,,,,,,,,,,,,,,,,,,,,,,,
,,,,,WIN24_049,18,Female,2024-02-09_12h47.22.533,jersey_experiment_5,2023.2.2,Win32,84.74576271,12.8502,31.5332,return,18.6639,,,,,,,,,,,,,,,,,,,,,,,,,,,,,,,,,,,,,,,,,,,,,,,,,,,,,,,,,,,,,,,,,,,,,,,,,,
,,,,,WIN24_049,18,Female,2024-02-09_12h47.22.533,jersey_experiment_5,2023.2.2,Win32,84.74576271,,,,,,31.5333,31.6506,return,0.0769,,,,,,,,,,,,,,,,,,,,,,,,,,,,,,,,,,,,,,,,,,,,,,,,,,,,,,,,,,,,,,,,,,,,,
,,,,,WIN24_049,18,Female,2024-02-09_12h47.22.533,jersey_experiment_5,2023.2.2,Win32,84.74576271,,,,,,,,,,,31.6506,53.2635,return,21.6012,,,,,,,,,,,,,,,,,,,,,,,,,,,,,,,,,,,,,,,,,,,,,,,,,,,,,,,,,,,,,,,,
,,,,,WIN24_049,18,Female,2024-02-09_12h47.22.533,jersey_experiment_5,2023.2.2,Win32,84.74576271,,,,,,,,,,,,,,,,53.2706,55.0634,55.0635,74.417,return,3.6012,,49.73958333,0,0,0,35,1,FBP-YG-81.png,0.35,1.2,36,1,,,,,,,,,,,,,,,,,,,,,,,,,,,,,,,,,,,,,,,,,,,,,
,,,,,WIN24_049,18,Female,2024-02-09_12h47.22.533,jersey_experiment_5,2023.2.2,Win32,84.74576271,,,,,,,,,,,,,,,,74.4212,76.2167,76.2168,83.0406,return,4.778,,75,0,1,1,37,1,FBP-YG-81.png,0.4,1.2,38,1,,,,,,,,,,,,,,,,,,,,,,,,,,,,,,,,,,,,,,,,,,,,,
,,,,,WIN24_049,18,Female,2024-02-09_12h47.22.533,jersey_experiment_5,2023.2.2,Win32,84.74576271,,,,,,,,,,,,,,,,83.0447,84.8407,84.8408,90.1469,return,1.4257,,87.76041667,0,2,2,43,1,FBP-YG-91.png,0.43,1.2,44,1,,,,,,,,,,,,,,,,,,,,,,,,,,,,,,,,,,,,,,,,,,,,,
,,,,,WIN24_049,18,Female,2024-02-09_12h47.22.533,jersey_experiment_5,2023.2.2,Win32,84.74576271,,,,,,,,,,,,,,,,90.1471,91.441,91.441,94.6527,return,1.8031,,88.671875,0,3,3,49,1,FBP-PT-17.png,0.45,1.2,50,0.5,,,,,,,,,,,,,,,,,,,,,,,,,,,,,,,,,,,,,,,,,,,,,
,,,,,WIN24_049,18,Female,2024-02-09_12h47.22.533,jersey_experiment_5,2023.2.2,Win32,84.74576271,,,,,,,,,,,,,,,,94.6529,95.9469,95.947,100.3354,return,1.1204,,87.36979167,0,4,4,53,1,FBP-PT-18.png,0.43,1.2,54,0.5,,,,,,,,,,,,,,,,,,,,,,,,,,,,,,,,,,,,,,,,,,,,,
,,,,,WIN24_049,18,Female,2024-02-09_12h47.22.533,jersey_experiment_5,2023.2.2,Win32,84.74576271,,,,,,,,,,,,,,,,100.3356,101.6296,101.6296,105.1943,return,1.5468,,99.73958333,0,5,5,13,1,FBP-OG-91.png,0.43,1.2,14,0.5,,,,,,,,,,,,,,,,,,,,,,,,,,,,,,,,,,,,,,,,,,,,,
,,,,,WIN24_049,18,Female,2024-02-09_12h47.22.533,jersey_experiment_5,2023.2.2,Win32,84.74576271,,,,,,,,,,,,,,,,105.1946,106.9946,106.9946,110.9946,return,1.5064,,25.390625,0,6,6,30,1,FBP-YG-71.png,0.35,1.2,31,1,,,,,,,,,,,,,,,,,,,,,,,,,,,,,,,,,,,,,,,,,,,,,
,,,,,WIN24_049,18,Female,2024-02-09_12h47.22.533,jersey_experiment_5,2023.2.2,Win32,84.74576271,,,,,,,,,,,,,,,,110.9949,112.2888,112.2888,114.9947,return,1.4038,,26.04166667,0,7,7,5,1,FBP-OG-81.png,0.35,1.2,6,0.5,,,,,,,,,,,,,,,,,,,,,,,,,,,,,,,,,,,,,,,,,,,,,
,,,,,WIN24_049,18,Female,2024-02-09_12h47.22.533,jersey_experiment_5,2023.2.2,Win32,84.74576271,,,,,,,,,,,,,,,,114.995,116.7948,116.7948,120.3949,return,1.5834,,99.73958333,0,8,8,33,1,FBP-YG-71.png,0.43,1.2,34,1,,,,,,,,,,,,,,,,,,,,,,,,,,,,,,,,,,,,,,,,,,,,,
,,,,,WIN24_049,18,Female,2024-02-09_12h47.22.533,jersey_experiment_5,2023.2.2,Win32,84.74576271,,,,,,,,,,,,,,,,120.3951,121.6891,121.6892,134.0424,return,9.5704,,100,0,9,9,14,1,FBP-OG-91.png,0.45,1.2,15,0.5,,,,,,,,,,,,,,,,,,,,,,,,,,,,,,,,,,,,,,,,,,,,,
,,,,,WIN24_049,18,Female,2024-02-09_12h47.22.533,jersey_experiment_5,2023.2.2,Win32,84.74576271,,,,,,,,,,,,,,,,134.0474,135.8426,135.8426,140.2544,return,2.4594,,75.390625,0,10,10,22,1,FBP-RB-18.png,0.4,1.2,23,1,,,,,,,,,,,,,,,,,,,,,,,,,,,,,,,,,,,,,,,,,,,,,
,,,,,WIN24_049,18,Female,2024-02-09_12h47.22.533,jersey_experiment_5,2023.2.2,Win32,84.74576271,,,,,,,,,,,,,,,,140.2588,142.0546,142.0546,146.396,return,2.665,,99.34895833,0,11,11,29,1,FBP-RB-19.png,0.45,1.2,30,1,,,,,,,,,,,,,,,,,,,,,,,,,,,,,,,,,,,,,,,,,,,,,
,,,,,WIN24_049,18,Female,2024-02-09_12h47.22.533,jersey_experiment_5,2023.2.2,Win32,84.74576271,,,,,,,,,,,,,,,,146.4006,147.7018,147.7019,150.9607,return,1.0601,,25.390625,0,12,12,51,1,FBP-PT-18.png,0.37,1.2,52,0.5,,,,,,,,,,,,,,,,,,,,,,,,,,,,,,,,,,,,,,,,,,,,,
,,,,,WIN24_049,18,Female,2024-02-09_12h47.22.533,jersey_experiment_5,2023.2.2,Win32,84.74576271,,,,,,,,,,,,,,,,150.9609,152.2547,152.2548,154.4786,return,0.9654,,49.73958333,0,13,13,7,1,FBP-OG-81.png,0.4,1.2,8,0.5,,,,,,,,,,,,,,,,,,,,,,,,,,,,,,,,,,,,,,,,,,,,,
,,,,,WIN24_049,18,Female,2024-02-09_12h47.22.533,jersey_experiment_5,2023.2.2,Win32,84.74576271,,,,,,,,,,,,,,,,154.4788,155.7727,155.7727,158.3022,return,1.0954,,74.08854167,0,14,14,58,1,FBP-PT-19.png,0.43,1.2,59,0.5,,,,,,,,,,,,,,,,,,,,,,,,,,,,,,,,,,,,,,,,,,,,,
,,,,,WIN24_049,18,Female,2024-02-09_12h47.22.533,jersey_experiment_5,2023.2.2,Win32,84.74576271,,,,,,,,,,,,,,,,158.3024,160.1024,160.1024,163.4906,return,1.2615,,49.73958333,0,15,15,26,1,FBP-RB-19.png,0.37,1.2,27,1,,,,,,,,,,,,,,,,,,,,,,,,,,,,,,,,,,,,,,,,,,,,,
,,,,,WIN24_049,18,Female,2024-02-09_12h47.22.533,jersey_experiment_5,2023.2.2,Win32,84.74576271,,,,,,,,,,,,,,,,163.4909,165.2906,165.2906,167.8554,return,1.1555,,63.02083333,0,16,16,32,1,FBP-YG-71.png,0.4,1.2,33,1,,,,,,,,,,,,,,,,,,,,,,,,,,,,,,,,,,,,,,,,,,,,,
,,,,,WIN24_049,18,Female,2024-02-09_12h47.22.533,jersey_experiment_5,2023.2.2,Win32,84.74576271,,,,,,,,,,,,,,,,167.8556,169.6556,169.6557,174.2205,return,0.7468,,99.73958333,0,17,17,44,1,FBP-YG-91.png,0.45,1.2,45,1,,,,,,,,,,,,,,,,,,,,,,,,,,,,,,,,,,,,,,,,,,,,,
,,,,,WIN24_049,18,Female,2024-02-09_12h47.22.533,jersey_experiment_5,2023.2.2,Win32,84.74576271,,,,,,,,,,,,,,,,174.2208,175.5147,175.5147,180.4677,return,2.8804,,25.26041667,0,18,18,0,1,FBP-OG-71.png,0.35,1.2,1,0.5,,,,,,,,,,,,,,,,,,,,,,,,,,,,,,,,,,,,,,,,,,,,,
,,,,,WIN24_049,18,Female,2024-02-09_12h47.22.533,jersey_experiment_5,2023.2.2,Win32,84.74576271,,,,,,,,,,,,,,,,180.4679,182.2678,182.2679,185.2914,return,1.1126,,49.609375,0,19,19,20,1,FBP-RB-18.png,0.35,1.2,21,1,,,,,,,,,,,,,,,,,,,,,,,,,,,,,,,,,,,,,,,,,,,,,
,,,,,WIN24_049,18,Female,2024-02-09_12h47.22.533,jersey_experiment_5,2023.2.2,Win32,84.74576271,,,,,,,,,,,,,,,,185.2916,187.0915,187.0915,189.4328,return,1.2655,,49.86979167,0,20,20,25,1,FBP-RB-19.png,0.35,1.2,26,1,,,,,,,,,,,,,,,,,,,,,,,,,,,,,,,,,,,,,,,,,,,,,
,,,,,WIN24_049,18,Female,2024-02-09_12h47.22.533,jersey_experiment_5,2023.2.2,Win32,84.74576271,,,,,,,,,,,,,,,,189.4331,190.727,190.727,193.6682,return,1.4449,,75.13020833,0,21,21,57,1,FBP-PT-19.png,0.4,1.2,58,0.5,,,,,,,,,,,,,,,,,,,,,,,,,,,,,,,,,,,,,,,,,,,,,
,,,,,WIN24_049,18,Female,2024-02-09_12h47.22.533,jersey_experiment_5,2023.2.2,Win32,84.74576271,,,,,,,,,,,,,,,,193.6684,194.9623,194.9623,200.4802,return,1.4118,,50,0,22,22,45,1,FBP-PT-17.png,0.35,1.2,46,0.5,,,,,,,,,,,,,,,,,,,,,,,,,,,,,,,,,,,,,,,,,,,,,
,,,,,WIN24_049,18,Female,2024-02-09_12h47.22.533,jersey_experiment_5,2023.2.2,Win32,84.74576271,,,,,,,,,,,,,,,,200.4805,202.2802,202.2802,205.645,return,0.9459,,99.86979167,0,23,23,27,1,FBP-RB-19.png,0.4,1.2,28,1,,,,,,,,,,,,,,,,,,,,,,,,,,,,,,,,,,,,,,,,,,,,,
,,,,,WIN24_049,18,Female,2024-02-09_12h47.22.533,jersey_experiment_5,2023.2.2,Win32,84.74576271,,,,,,,,,,,,,,,,205.6453,206.9394,206.9394,210.5158,return,1.1534,,25.26041667,0,24,24,55,1,FBP-PT-19.png,0.35,1.2,56,0.5,,,,,,,,,,,,,,,,,,,,,,,,,,,,,,,,,,,,,,,,,,,,,
,,,,,WIN24_049,18,Female,2024-02-09_12h47.22.533,jersey_experiment_5,2023.2.2,Win32,84.74576271,,,,,,,,,,,,,,,,210.516,212.3159,212.316,218.2573,return,0.9889,,62.5,0,25,25,21,1,FBP-RB-18.png,0.37,1.2,22,1,,,,,,,,,,,,,,,,,,,,,,,,,,,,,,,,,,,,,,,,,,,,,
,,,,,WIN24_049,18,Female,2024-02-09_12h47.22.533,jersey_experiment_5,2023.2.2,Win32,84.74576271,,,,,,,,,,,,,,,,218.2575,220.0574,220.0574,222.7515,return,1.3296,,49.86979167,0,26,26,41,1,FBP-YG-91.png,0.37,1.2,42,1,,,,,,,,,,,,,,,,,,,,,,,,,,,,,,,,,,,,,,,,,,,,,
,,,,,WIN24_049,18,Female,2024-02-09_12h47.22.533,jersey_experiment_5,2023.2.2,Win32,84.74576271,,,,,,,,,,,,,,,,222.7517,224.5519,224.5519,227.4694,return,0.9576,,99.86979167,0,27,27,19,1,FBP-RB-17.png,0.45,1.2,20,1,,,,,,,,,,,,,,,,,,,,,,,,,,,,,,,,,,,,,,,,,,,,,
,,,,,WIN24_049,18,Female,2024-02-09_12h47.22.533,jersey_experiment_5,2023.2.2,Win32,84.74576271,,,,,,,,,,,,,,,,227.4697,228.7636,228.7637,231.9872,return,0.7767,,74.73958333,0,28,28,8,1,FBP-OG-81.png,0.43,1.2,9,0.5,,,,,,,,,,,,,,,,,,,,,,,,,,,,,,,,,,,,,,,,,,,,,
,,,,,WIN24_049,18,Female,2024-02-09_12h47.22.533,jersey_experiment_5,2023.2.2,Win32,84.74576271,,,,,,,,,,,,,,,,231.9875,233.2814,233.2814,236.0109,return,0.64,,49.73958333,0,29,29,46,1,FBP-PT-17.png,0.37,1.2,47,0.5,,,,,,,,,,,,,,,,,,,,,,,,,,,,,,,,,,,,,,,,,,,,,
,,,,,WIN24_049,18,Female,2024-02-09_12h47.22.533,jersey_experiment_5,2023.2.2,Win32,84.74576271,,,,,,,,,,,,,,,,236.0111,237.811,237.8111,241.4816,return,2.112,,99.73958333,0,30,30,23,1,FBP-RB-18.png,0.43,1.2,24,1,,,,,,,,,,,,,,,,,,,,,,,,,,,,,,,,,,,,,,,,,,,,,
,,,,,WIN24_049,18,Female,2024-02-09_12h47.22.533,jersey_experiment_5,2023.2.2,Win32,84.74576271,,,,,,,,,,,,,,,,241.4818,242.7758,242.7758,245.8346,return,0.7603,,74.47916667,0,31,31,2,1,FBP-OG-71.png,0.4,1.2,3,0.5,,,,,,,,,,,,,,,,,,,,,,,,,,,,,,,,,,,,,,,,,,,,,
,,,,,WIN24_049,18,Female,2024-02-09_12h47.22.533,jersey_experiment_5,2023.2.2,Win32,84.74576271,,,,,,,,,,,,,,,,245.8349,247.635,247.6351,249.9173,return,0.6987,,99.73958333,0,32,32,28,1,FBP-RB-19.png,0.43,1.2,29,1,,,,,,,,,,,,,,,,,,,,,,,,,,,,,,,,,,,,,,,,,,,,,
,,,,,WIN24_049,18,Female,2024-02-09_12h47.22.533,jersey_experiment_5,2023.2.2,Win32,84.74576271,,,,,,,,,,,,,,,,249.9175,251.2114,251.2115,253.4585,return,0.9881,,99.73958333,0,33,33,9,1,FBP-OG-81.png,0.45,1.2,10,0.5,,,,,,,,,,,,,,,,,,,,,,,,,,,,,,,,,,,,,,,,,,,,,
,,,,,WIN24_049,18,Female,2024-02-09_12h47.22.533,jersey_experiment_5,2023.2.2,Win32,84.74576271,,,,,,,,,,,,,,,,253.4587,254.7527,254.7527,257.3764,return,0.6827,,24.86979167,0,34,34,10,1,FBP-OG-91.png,0.35,1.2,11,0.5,,,,,,,,,,,,,,,,,,,,,,,,,,,,,,,,,,,,,,,,,,,,,
,,,,,WIN24_049,18,Female,2024-02-09_12h47.22.533,jersey_experiment_5,2023.2.2,Win32,84.74576271,,,,,,,,,,,,,,,,257.3766,259.1765,259.1765,261.1647,return,0.5344,,74.73958333,0,35,35,17,1,FBP-RB-17.png,0.4,1.2,18,1,,,,,,,,,,,,,,,,,,,,,,,,,,,,,,,,,,,,,,,,,,,,,
,,,,,WIN24_049,18,Female,2024-02-09_12h47.22.533,jersey_experiment_5,2023.2.2,Win32,84.74576271,,,,,,,,,,,,,,,,261.165,262.9648,262.9648,265.3885,return,1.3469,,99.73958333,0,36,36,34,1,FBP-YG-71.png,0.45,1.2,35,1,,,,,,,,,,,,,,,,,,,,,,,,,,,,,,,,,,,,,,,,,,,,,
,,,,,WIN24_049,18,Female,2024-02-09_12h47.22.533,jersey_experiment_5,2023.2.2,Win32,84.74576271,,,,,,,,,,,,,,,,265.3887,267.1887,267.1887,268.9886,return,0.5324,,99.73958333,0,37,37,18,1,FBP-RB-17.png,0.43,1.2,19,1,,,,,,,,,,,,,,,,,,,,,,,,,,,,,,,,,,,,,,,,,,,,,
,,,,,WIN24_049,18,Female,2024-02-09_12h47.22.533,jersey_experiment_5,2023.2.2,Win32,84.74576271,,,,,,,,,,,,,,,,268.9889,270.2828,270.2829,272.1416,return,0.6961,,99.73958333,0,38,38,4,1,FBP-OG-71.png,0.45,1.2,5,0.5,,,,,,,,,,,,,,,,,,,,,,,,,,,,,,,,,,,,,,,,,,,,,
,,,,,WIN24_049,18,Female,2024-02-09_12h47.22.533,jersey_experiment_5,2023.2.2,Win32,84.74576271,,,,,,,,,,,,,,,,272.1418,273.9416,273.9416,275.6124,return,0.4267,,99.609375,0,39,39,42,1,FBP-YG-91.png,0.4,1.2,43,1,,,,,,,,,,,,,,,,,,,,,,,,,,,,,,,,,,,,,,,,,,,,,
,,,,,WIN24_049,18,Female,2024-02-09_12h47.22.533,jersey_experiment_5,2023.2.2,Win32,84.74576271,,,,,,,,,,,,,,,,275.6125,276.9066,276.9066,279.6007,return,0.5287,,49.73958333,0,40,40,50,1,FBP-PT-18.png,0.35,1.2,51,0.5,,,,,,,,,,,,,,,,,,,,,,,,,,,,,,,,,,,,,,,,,,,,,
,,,,,WIN24_049,18,Female,2024-02-09_12h47.22.533,jersey_experiment_5,2023.2.2,Win32,84.74576271,,,,,,,,,,,,,,,,279.601,280.8948,280.8949,284.0597,return,0.5828,,50.13020833,0,41,41,1,1,FBP-OG-71.png,0.37,1.2,2,0.5,,,,,,,,,,,,,,,,,,,,,,,,,,,,,,,,,,,,,,,,,,,,,
,,,,,WIN24_049,18,Female,2024-02-09_12h47.22.533,jersey_experiment_5,2023.2.2,Win32,84.74576271,,,,,,,,,,,,,,,,284.06,285.3539,285.3539,287.6598,return,0.7239,,75,0,42,42,47,1,FBP-PT-17.png,0.4,1.2,48,0.5,,,,,,,,,,,,,,,,,,,,,,,,,,,,,,,,,,,,,,,,,,,,,
,,,,,WIN24_049,18,Female,2024-02-09_12h47.22.533,jersey_experiment_5,2023.2.2,Win32,84.74576271,,,,,,,,,,,,,,,,287.66,288.954,288.9541,291.4718,return,0.5883,,50,0,43,43,6,1,FBP-OG-81.png,0.37,1.2,7,0.5,,,,,,,,,,,,,,,,,,,,,,,,,,,,,,,,,,,,,,,,,,,,,
,,,,,WIN24_049,18,Female,2024-02-09_12h47.22.533,jersey_experiment_5,2023.2.2,Win32,84.74576271,,,,,,,,,,,,,,,,291.4719,292.7658,292.7659,294.8247,return,0.654,,49.47916667,0,44,44,52,1,FBP-PT-18.png,0.4,1.2,53,0.5,,,,,,,,,,,,,,,,,,,,,,,,,,,,,,,,,,,,,,,,,,,,,
,,,,,WIN24_049,18,Female,2024-02-09_12h47.22.533,jersey_experiment_5,2023.2.2,Win32,84.74576271,,,,,,,,,,,,,,,,294.8248,296.6249,296.625,298.2837,return,0.5236,,49.73958333,0,45,45,36,1,FBP-YG-81.png,0.37,1.2,37,1,,,,,,,,,,,,,,,,,,,,,,,,,,,,,,,,,,,,,,,,,,,,,
,,,,,WIN24_049,18,Female,2024-02-09_12h47.22.533,jersey_experiment_5,2023.2.2,Win32,84.74576271,,,,,,,,,,,,,,,,298.2839,299.5778,299.5779,302.1074,return,0.677,,99.86979167,0,46,46,48,1,FBP-PT-17.png,0.43,1.2,49,0.5,,,,,,,,,,,,,,,,,,,,,,,,,,,,,,,,,,,,,,,,,,,,,
,,,,,WIN24_049,18,Female,2024-02-09_12h47.22.533,jersey_experiment_5,2023.2.2,Win32,84.74576271,,,,,,,,,,,,,,,,302.1077,303.9076,303.9076,305.8369,return,0.8376,,99.73958333,0,47,47,38,1,FBP-YG-81.png,0.43,1.2,39,1,,,,,,,,,,,,,,,,,,,,,,,,,,,,,,,,,,,,,,,,,,,,,
,,,,,WIN24_049,18,Female,2024-02-09_12h47.22.533,jersey_experiment_5,2023.2.2,Win32,84.74576271,,,,,,,,,,,,,,,,305.837,307.1311,307.1311,308.7781,return,0.6196,,99.86979167,0,48,48,3,1,FBP-OG-71.png,0.43,1.2,4,0.5,,,,,,,,,,,,,,,,,,,,,,,,,,,,,,,,,,,,,,,,,,,,,
,,,,,WIN24_049,18,Female,2024-02-09_12h47.22.533,jersey_experiment_5,2023.2.2,Win32,84.74576271,,,,,,,,,,,,,,,,308.7784,310.5784,310.5784,312.8019,return,0.659,,24.73958333,0,49,49,15,1,FBP-RB-17.png,0.35,1.2,16,1,,,,,,,,,,,,,,,,,,,,,,,,,,,,,,,,,,,,,,,,,,,,,
,,,,,WIN24_049,18,Female,2024-02-09_12h47.22.533,jersey_experiment_5,2023.2.2,Win32,84.74576271,,,,,,,,,,,,,,,,312.8021,314.096,314.096,316.402,return,0.7393,,50,0,50,50,56,1,FBP-PT-19.png,0.37,1.2,57,0.5,,,,,,,,,,,,,,,,,,,,,,,,,,,,,,,,,,,,,,,,,,,,,
,,,,,WIN24_049,18,Female,2024-02-09_12h47.22.533,jersey_experiment_5,2023.2.2,Win32,84.74576271,,,,,,,,,,,,,,,,316.4022,317.696,317.696,319.955,return,0.6446,,99.609375,0,51,51,54,1,FBP-PT-18.png,0.45,1.2,55,0.5,,,,,,,,,,,,,,,,,,,,,,,,,,,,,,,,,,,,,,,,,,,,,
,,,,,WIN24_049,18,Female,2024-02-09_12h47.22.533,jersey_experiment_5,2023.2.2,Win32,84.74576271,,,,,,,,,,,,,,,,319.9553,321.7552,321.7552,326.7201,return,0.4703,,74.86979167,0,52,52,16,1,FBP-RB-17.png,0.37,1.2,17,1,,,,,,,,,,,,,,,,,,,,,,,,,,,,,,,,,,,,,,,,,,,,,
,,,,,WIN24_049,18,Female,2024-02-09_12h47.22.533,jersey_experiment_5,2023.2.2,Win32,84.74576271,,,,,,,,,,,,,,,,326.7203,328.5202,328.5203,329.9789,return,0.4394,,99.47916667,0,53,53,39,1,FBP-YG-81.png,0.45,1.2,40,1,,,,,,,,,,,,,,,,,,,,,,,,,,,,,,,,,,,,,,,,,,,,,
,,,,,WIN24_049,18,Female,2024-02-09_12h47.22.533,jersey_experiment_5,2023.2.2,Win32,84.74576271,,,,,,,,,,,,,,,,329.9792,331.7793,331.7794,333.7085,return,0.4641,,24.73958333,0,54,54,40,1,FBP-YG-91.png,0.35,1.2,41,1,,,,,,,,,,,,,,,,,,,,,,,,,,,,,,,,,,,,,,,,,,,,,
,,,,,WIN24_049,18,Female,2024-02-09_12h47.22.533,jersey_experiment_5,2023.2.2,Win32,84.74576271,,,,,,,,,,,,,,,,333.7089,335.0027,335.0027,337.8499,return,0.3255,,50,0,55,55,11,1,FBP-OG-91.png,0.37,1.2,12,0.5,,,,,,,,,,,,,,,,,,,,,,,,,,,,,,,,,,,,,,,,,,,,,
,,,,,WIN24_049,18,Female,2024-02-09_12h47.22.533,jersey_experiment_5,2023.2.2,Win32,84.74576271,,,,,,,,,,,,,,,,337.85,339.144,339.1441,348.756,return,8.3871,,75.26041667,0,56,56,12,1,FBP-OG-91.png,0.4,1.2,13,0.5,,,,,,,,,,,,,,,,,,,,,,,,,,,,,,,,,,,,,,,,,,,,,
,,,,,WIN24_049,18,Female,2024-02-09_12h47.22.533,jersey_experiment_5,2023.2.2,Win32,84.74576271,,,,,,,,,,,,,,,,348.7605,350.5562,350.5563,355.5211,return,0.2825,,39.453125,0,57,57,31,1,FBP-YG-71.png,0.37,1.2,32,1,,,,,,,,,,,,,,,,,,,,,,,,,,,,,,,,,,,,,,,,,,,,,
,,,,,WIN24_049,18,Female,2024-02-09_12h47.22.533,jersey_experiment_5,2023.2.2,Win32,84.74576271,,,,,,,,,,,,,,,,355.5213,356.8152,356.8152,359.3565,return,0.5112,,100,0,58,58,59,1,FBP-PT-19.png,0.45,1.2,60,0.5,,,,,,,,,,,,,,,,,,,,,,,,,,,,,,,,,,,,,,,,,,,,,
,,,,,WIN24_049,18,Female,2024-02-09_12h47.22.533,jersey_experiment_5,2023.2.2,Win32,84.74576271,,,,,,,,,,,,,,,,359.3568,361.1566,361.1566,362.6273,return,0.5411,,99.609375,0,59,59,24,1,FBP-RB-18.png,0.45,1.2,25,1,,,,,,,,,,,,,,,,,,,,,,,,,,,,,,,,,,,,,,,,,,,,,
,,,,,WIN24_049,18,Female,2024-02-09_12h47.22.533,jersey_experiment_5,2023.2.2,Win32,84.74576271,,,,,,,,,,,,,,,,362.6294,363.9216,363.9216,367.0392,return,0.4498,,66.53645833,,,,,,FBP-PT-71.png,0.4,1.2,48,0.5,0,0,0,47,1,,,,,,,,,,,,,,,,,,,,,,,,,,,,,,,,,,,,,,,,
,,,,,WIN24_049,18,Female,2024-02-09_12h47.22.533,jersey_experiment_5,2023.2.2,Win32,84.74576271,,,,,,,,,,,,,,,,367.0395,368.8394,368.8394,371.1452,return,0.618,,23.56770833,,,,,,FBP-YG-17.png,0.35,1.2,31,1,0,1,1,30,1,,,,,,,,,,,,,,,,,,,,,,,,,,,,,,,,,,,,,,,,
,,,,,WIN24_049,18,Female,2024-02-09_12h47.22.533,jersey_experiment_5,2023.2.2,Win32,84.74576271,,,,,,,,,,,,,,,,371.1455,372.4393,372.4393,374.6394,return,0.3788,,99.73958333,,,,,,FBP-OG-19.png,0.43,1.2,14,0.5,0,2,2,13,1,,,,,,,,,,,,,,,,,,,,,,,,,,,,,,,,,,,,,,,,
,,,,,WIN24_049,18,Female,2024-02-09_12h47.22.533,jersey_experiment_5,2023.2.2,Win32,84.74576271,,,,,,,,,,,,,,,,374.6396,375.9336,375.9336,378.2865,return,0.4361,,52.08333333,,,,,,FBP-PT-81.png,0.37,1.2,52,0.5,0,3,3,51,1,,,,,,,,,,,,,,,,,,,,,,,,,,,,,,,,,,,,,,,,
,,,,,WIN24_049,18,Female,2024-02-09_12h47.22.533,jersey_experiment_5,2023.2.2,Win32,84.74576271,,,,,,,,,,,,,,,,378.2868,380.0869,380.0869,381.4751,return,0.5645,,46.35416667,,,,,,FBP-YG-19.png,0.37,1.2,42,1,0,4,4,41,1,,,,,,,,,,,,,,,,,,,,,,,,,,,,,,,,,,,,,,,,
,,,,,WIN24_049,18,Female,2024-02-09_12h47.22.533,jersey_experiment_5,2023.2.2,Win32,84.74576271,,,,,,,,,,,,,,,,381.4753,383.2752,383.2752,386.7693,return,0.3055,,55.078125,,,,,,FBP-YG-17.png,0.4,1.2,33,1,0,5,5,32,1,,,,,,,,,,,,,,,,,,,,,,,,,,,,,,,,,,,,,,,,
,,,,,WIN24_049,18,Female,2024-02-09_12h47.22.533,jersey_experiment_5,2023.2.2,Win32,84.74576271,,,,,,,,,,,,,,,,386.7696,388.5694,388.5695,389.887,return,0.403,,81.77083333,,,,,,FBP-RB-71.png,0.43,1.2,19,1,0,6,6,18,1,,,,,,,,,,,,,,,,,,,,,,,,,,,,,,,,,,,,,,,,
,,,,,WIN24_049,18,Female,2024-02-09_12h47.22.533,jersey_experiment_5,2023.2.2,Win32,84.74576271,,,,,,,,,,,,,,,,389.8872,391.1814,391.1814,393.0753,return,0.492,,37.23958333,,,,,,FBP-PT-71.png,0.35,1.2,46,0.5,0,7,7,45,1,,,,,,,,,,,,,,,,,,,,,,,,,,,,,,,,,,,,,,,,
,,,,,WIN24_049,18,Female,2024-02-09_12h47.22.533,jersey_experiment_5,2023.2.2,Win32,84.74576271,,,,,,,,,,,,,,,,393.0755,394.8754,394.8754,396.5696,return,0.394,,58.33333333,,,,,,FBP-RB-81.png,0.4,1.2,23,1,0,8,8,22,1,,,,,,,,,,,,,,,,,,,,,,,,,,,,,,,,,,,,,,,,
,,,,,WIN24_049,18,Female,2024-02-09_12h47.22.533,jersey_experiment_5,2023.2.2,Win32,84.74576271,,,,,,,,,,,,,,,,396.5698,398.3698,398.3699,400.0285,return,0.5463,,49.86979167,,,,,,FBP-RB-81.png,0.37,1.2,22,1,0,9,9,21,1,,,,,,,,,,,,,,,,,,,,,,,,,,,,,,,,,,,,,,,,
,,,,,WIN24_049,18,Female,2024-02-09_12h47.22.533,jersey_experiment_5,2023.2.2,Win32,84.74576271,,,,,,,,,,,,,,,,400.0287,401.8287,401.8287,403.5346,return,0.3655,,70.96354167,,,,,,FBP-YG-19.png,0.43,1.2,44,1,0,10,10,43,1,,,,,,,,,,,,,,,,,,,,,,,,,,,,,,,,,,,,,,,,
,,,,,WIN24_049,18,Female,2024-02-09_12h47.22.533,jersey_experiment_5,2023.2.2,Win32,84.74576271,,,,,,,,,,,,,,,,403.5349,405.3348,405.3348,406.6525,return,0.4501,,93.61979167,,,,,,FBP-YG-17.png,0.45,1.2,35,1,0,11,11,34,1,,,,,,,,,,,,,,,,,,,,,,,,,,,,,,,,,,,,,,,,
,,,,,WIN24_049,18,Female,2024-02-09_12h47.22.533,jersey_experiment_5,2023.2.2,Win32,84.74576271,,,,,,,,,,,,,,,,406.6526,407.9465,407.9465,409.6289,return,0.546,,95.57291667,,,,,,FBP-PT-81.png,0.45,1.2,55,0.5,0,12,12,54,1,,,,,,,,,,,,,,,,,,,,,,,,,,,,,,,,,,,,,,,,
,,,,,WIN24_049,18,Female,2024-02-09_12h47.22.533,jersey_experiment_5,2023.2.2,Win32,84.74576271,,,,,,,,,,,,,,,,409.6292,410.9231,410.9231,413.8057,return,1.2478,,21.74479167,,,,,,FBP-OG-17.png,0.35,1.2,1,0.5,0,13,13,0,1,,,,,,,,,,,,,,,,,,,,,,,,,,,,,,,,,,,,,,,,
,,,,,WIN24_049,18,Female,2024-02-09_12h47.22.533,jersey_experiment_5,2023.2.2,Win32,84.74576271,,,,,,,,,,,,,,,,413.8059,415.6056,415.6056,419.9,return,0.4505,,91.53645833,,,,,,FBP-RB-71.png,0.45,1.2,20,1,0,14,14,19,1,,,,,,,,,,,,,,,,,,,,,,,,,,,,,,,,,,,,,,,,
,,,,,WIN24_049,18,Female,2024-02-09_12h47.22.533,jersey_experiment_5,2023.2.2,Win32,84.74576271,,,,,,,,,,,,,,,,419.9001,421.6999,421.6999,423.4176,return,0.3941,,54.03645833,,,,,,FBP-RB-91.png,0.37,1.2,27,1,0,15,15,26,1,,,,,,,,,,,,,,,,,,,,,,,,,,,,,,,,,,,,,,,,
,,,,,WIN24_049,18,Female,2024-02-09_12h47.22.533,jersey_experiment_5,2023.2.2,Win32,84.74576271,,,,,,,,,,,,,,,,423.4177,424.7118,424.7118,426.0295,return,0.4042,,55.59895833,,,,,,FBP-OG-18.png,0.37,1.2,7,0.5,0,16,16,6,1,,,,,,,,,,,,,,,,,,,,,,,,,,,,,,,,,,,,,,,,
,,,,,WIN24_049,18,Female,2024-02-09_12h47.22.533,jersey_experiment_5,2023.2.2,Win32,84.74576271,,,,,,,,,,,,,,,,426.0297,427.8297,427.8297,431.7474,return,0.4473,,66.015625,,,,,,FBP-YG-18.png,0.4,1.2,38,1,0,17,17,37,1,,,,,,,,,,,,,,,,,,,,,,,,,,,,,,,,,,,,,,,,
,,,,,WIN24_049,18,Female,2024-02-09_12h47.22.533,jersey_experiment_5,2023.2.2,Win32,84.74576271,,,,,,,,,,,,,,,,431.7476,433.0417,433.0417,434.9122,return,0.6354,,75.26041667,,,,,,FBP-PT-81.png,0.43,1.2,54,0.5,0,18,18,53,1,,,,,,,,,,,,,,,,,,,,,,,,,,,,,,,,,,,,,,,,
,,,,,WIN24_049,18,Female,2024-02-09_12h47.22.533,jersey_experiment_5,2023.2.2,Win32,84.74576271,,,,,,,,,,,,,,,,434.9125,436.2064,436.2064,439.4417,return,0.3619,,74.609375,,,,,,FBP-OG-18.png,0.4,1.2,8,0.5,0,19,19,7,1,,,,,,,,,,,,,,,,,,,,,,,,,,,,,,,,,,,,,,,,
,,,,,WIN24_049,18,Female,2024-02-09_12h47.22.533,jersey_experiment_5,2023.2.2,Win32,84.74576271,,,,,,,,,,,,,,,,439.442,441.2418,441.2418,442.3949,return,0.3007,,81.90104167,,,,,,FBP-YG-17.png,0.43,1.2,34,1,0,20,20,33,1,,,,,,,,,,,,,,,,,,,,,,,,,,,,,,,,,,,,,,,,
,,,,,WIN24_049,18,Female,2024-02-09_12h47.22.533,jersey_experiment_5,2023.2.2,Win32,84.74576271,,,,,,,,,,,,,,,,442.3951,443.689,443.689,445.4067,return,0.2032,,84.89583333,,,,,,FBP-OG-17.png,0.43,1.2,4,0.5,0,21,21,3,1,,,,,,,,,,,,,,,,,,,,,,,,,,,,,,,,,,,,,,,,
,,,,,WIN24_049,18,Female,2024-02-09_12h47.22.533,jersey_experiment_5,2023.2.2,Win32,84.74576271,,,,,,,,,,,,,,,,445.4069,447.2067,447.2067,448.5715,return,0.3687,,85.02604167,,,,,,FBP-RB-71.png,0.4,1.2,18,1,0,22,22,17,1,,,,,,,,,,,,,,,,,,,,,,,,,,,,,,,,,,,,,,,,
,,,,,WIN24_049,18,Female,2024-02-09_12h47.22.533,jersey_experiment_5,2023.2.2,Win32,84.74576271,,,,,,,,,,,,,,,,448.5717,450.3716,450.3717,452.5599,return,0.3064,,50,,,,,,FBP-RB-91.png,0.35,1.2,26,1,0,23,23,25,1,,,,,,,,,,,,,,,,,,,,,,,,,,,,,,,,,,,,,,,,
,,,,,WIN24_049,18,Female,2024-02-09_12h47.22.533,jersey_experiment_5,2023.2.2,Win32,84.74576271,,,,,,,,,,,,,,,,452.5602,454.36,454.36,456.2893,return,0.2827,,99.86979167,,,,,,FBP-RB-81.png,0.45,1.2,25,1,0,24,24,24,1,,,,,,,,,,,,,,,,,,,,,,,,,,,,,,,,,,,,,,,,
,,,,,WIN24_049,18,Female,2024-02-09_12h47.22.533,jersey_experiment_5,2023.2.2,Win32,84.74576271,,,,,,,,,,,,,,,,456.2895,457.5835,457.5836,459.972,return,0.4615,,99.609375,,,,,,FBP-PT-91.png,0.43,1.2,59,0.5,0,25,25,58,1,,,,,,,,,,,,,,,,,,,,,,,,,,,,,,,,,,,,,,,,
,,,,,WIN24_049,18,Female,2024-02-09_12h47.22.533,jersey_experiment_5,2023.2.2,Win32,84.74576271,,,,,,,,,,,,,,,,459.9722,461.7721,461.7721,462.9955,return,0.3628,,99.86979167,,,,,,FBP-YG-19.png,0.45,1.2,45,1,0,26,26,44,1,,,,,,,,,,,,,,,,,,,,,,,,,,,,,,,,,,,,,,,,
,,,,,WIN24_049,18,Female,2024-02-09_12h47.22.533,jersey_experiment_5,2023.2.2,Win32,84.74576271,,,,,,,,,,,,,,,,462.9958,464.2897,464.2897,466.3016,return,0.4723,,40.625,,,,,,FBP-OG-19.png,0.37,1.2,12,0.5,0,27,27,11,1,,,,,,,,,,,,,,,,,,,,,,,,,,,,,,,,,,,,,,,,
,,,,,WIN24_049,18,Female,2024-02-09_12h47.22.533,jersey_experiment_5,2023.2.2,Win32,84.74576271,,,,,,,,,,,,,,,,466.3018,468.1017,468.1018,469.537,return,0.3631,,17.83854167,,,,,,FBP-RB-81.png,0.35,1.2,21,1,0,28,28,20,1,,,,,,,,,,,,,,,,,,,,,,,,,,,,,,,,,,,,,,,,
,,,,,WIN24_049,18,Female,2024-02-09_12h47.22.533,jersey_experiment_5,2023.2.2,Win32,84.74576271,,,,,,,,,,,,,,,,469.5371,470.8312,470.8312,473.7137,return,1.4121,,44.79166667,,,,,,FBP-OG-19.png,0.4,1.2,13,0.5,0,29,29,12,1,,,,,,,,,,,,,,,,,,,,,,,,,,,,,,,,,,,,,,,,
,,,,,WIN24_049,18,Female,2024-02-09_12h47.22.533,jersey_experiment_5,2023.2.2,Win32,84.74576271,,,,,,,,,,,,,,,,473.7139,475.5136,475.5137,477.808,return,0.3202,,64.58333333,,,,,,FBP-RB-91.png,0.4,1.2,28,1,0,30,30,27,1,,,,,,,,,,,,,,,,,,,,,,,,,,,,,,,,,,,,,,,,
,,,,,WIN24_049,18,Female,2024-02-09_12h47.22.533,jersey_experiment_5,2023.2.2,Win32,84.74576271,,,,,,,,,,,,,,,,477.8082,479.1022,479.1022,483.4433,return,0.3392,,49.47916667,,,,,,FBP-PT-71.png,0.37,1.2,47,0.5,0,31,31,46,1,,,,,,,,,,,,,,,,,,,,,,,,,,,,,,,,,,,,,,,,
,,,,,WIN24_049,18,Female,2024-02-09_12h47.22.533,jersey_experiment_5,2023.2.2,Win32,84.74576271,,,,,,,,,,,,,,,,483.4434,485.2435,485.2435,488.573,return,0.2021,,50.26041667,,,,,,FBP-YG-18.png,0.35,1.2,36,1,0,32,32,35,1,,,,,,,,,,,,,,,,,,,,,,,,,,,,,,,,,,,,,,,,
,,,,,WIN24_049,18,Female,2024-02-09_12h47.22.533,jersey_experiment_5,2023.2.2,Win32,84.74576271,,,,,,,,,,,,,,,,488.5733,489.8671,489.8672,490.8437,return,0.2767,,50.26041667,,,,,,FBP-OG-17.png,0.37,1.2,2,0.5,0,33,33,1,1,,,,,,,,,,,,,,,,,,,,,,,,,,,,,,,,,,,,,,,,
,,,,,WIN24_049,18,Female,2024-02-09_12h47.22.533,jersey_experiment_5,2023.2.2,Win32,84.74576271,,,,,,,,,,,,,,,,490.8439,492.6437,492.6437,493.8438,return,0.2923,,52.734375,,,,,,FBP-YG-17.png,0.37,1.2,32,1,0,34,34,31,1,,,,,,,,,,,,,,,,,,,,,,,,,,,,,,,,,,,,,,,,
,,,,,WIN24_049,18,Female,2024-02-09_12h47.22.533,jersey_experiment_5,2023.2.2,Win32,84.74576271,,,,,,,,,,,,,,,,493.844,495.1379,495.1379,496.5261,return,0.3424,,47.78645833,,,,,,FBP-OG-18.png,0.35,1.2,6,0.5,0,35,35,5,1,,,,,,,,,,,,,,,,,,,,,,,,,,,,,,,,,,,,,,,,
,,,,,WIN24_049,18,Female,2024-02-09_12h47.22.533,jersey_experiment_5,2023.2.2,Win32,84.74576271,,,,,,,,,,,,,,,,496.5263,498.3262,498.3262,499.9968,return,0.4023,,92.31770833,,,,,,FBP-RB-91.png,0.45,1.2,30,1,0,36,36,29,1,,,,,,,,,,,,,,,,,,,,,,,,,,,,,,,,,,,,,,,,
,,,,,WIN24_049,18,Female,2024-02-09_12h47.22.533,jersey_experiment_5,2023.2.2,Win32,84.74576271,,,,,,,,,,,,,,,,499.9971,501.2911,501.2911,503.9852,return,0.9273,,53.125,,,,,,FBP-PT-91.png,0.35,1.2,56,0.5,0,37,37,55,1,,,,,,,,,,,,,,,,,,,,,,,,,,,,,,,,,,,,,,,,
,,,,,WIN24_049,18,Female,2024-02-09_12h47.22.533,jersey_experiment_5,2023.2.2,Win32,84.74576271,,,,,,,,,,,,,,,,503.9854,505.2794,505.2794,507.362,return,0.4376,,97.00520833,,,,,,FBP-OG-18.png,0.45,1.2,10,0.5,0,38,38,9,1,,,,,,,,,,,,,,,,,,,,,,,,,,,,,,,,,,,,,,,,
,,,,,WIN24_049,18,Female,2024-02-09_12h47.22.533,jersey_experiment_5,2023.2.2,Win32,84.74576271,,,,,,,,,,,,,,,,507.3621,508.6561,508.6561,511.0208,return,1.2048,,98.4375,,,,,,FBP-PT-71.png,0.45,1.2,50,0.5,0,39,39,49,1,,,,,,,,,,,,,,,,,,,,,,,,,,,,,,,,,,,,,,,,
,,,,,WIN24_049,18,Female,2024-02-09_12h47.22.533,jersey_experiment_5,2023.2.2,Win32,84.74576271,,,,,,,,,,,,,,,,511.021,512.8209,512.8209,515.1856,return,0.4473,,56.51041667,,,,,,FBP-RB-71.png,0.37,1.2,17,1,0,40,40,16,1,,,,,,,,,,,,,,,,,,,,,,,,,,,,,,,,,,,,,,,,
,,,,,WIN24_049,18,Female,2024-02-09_12h47.22.533,jersey_experiment_5,2023.2.2,Win32,84.74576271,,,,,,,,,,,,,,,,515.1859,516.48,516.48,518.3152,return,0.3123,,50,,,,,,FBP-PT-91.png,0.37,1.2,57,0.5,0,41,41,56,1,,,,,,,,,,,,,,,,,,,,,,,,,,,,,,,,,,,,,,,,
,,,,,WIN24_049,18,Female,2024-02-09_12h47.22.533,jersey_experiment_5,2023.2.2,Win32,84.74576271,,,,,,,,,,,,,,,,518.3154,519.6093,519.6094,522.5742,return,1.6127,,66.796875,,,,,,FBP-PT-91.png,0.4,1.2,58,0.5,0,42,42,57,1,,,,,,,,,,,,,,,,,,,,,,,,,,,,,,,,,,,,,,,,
,,,,,WIN24_049,18,Female,2024-02-09_12h47.22.533,jersey_experiment_5,2023.2.2,Win32,84.74576271,,,,,,,,,,,,,,,,522.5745,524.3743,524.3743,526.5389,return,0.3242,,46.74479167,,,,,,FBP-YG-19.png,0.35,1.2,41,1,0,43,43,40,1,,,,,,,,,,,,,,,,,,,,,,,,,,,,,,,,,,,,,,,,
,,,,,WIN24_049,18,Female,2024-02-09_12h47.22.533,jersey_experiment_5,2023.2.2,Win32,84.74576271,,,,,,,,,,,,,,,,526.5392,527.8332,527.8332,530.0568,return,1.1712,,61.45833333,,,,,,FBP-PT-71.png,0.43,1.2,49,0.5,0,44,44,48,1,,,,,,,,,,,,,,,,,,,,,,,,,,,,,,,,,,,,,,,,
,,,,,WIN24_049,18,Female,2024-02-09_12h47.22.533,jersey_experiment_5,2023.2.2,Win32,84.74576271,,,,,,,,,,,,,,,,530.057,531.3509,531.351,534.1864,return,0.2874,,88.15104167,,,,,,FBP-OG-19.png,0.45,1.2,15,0.5,0,45,45,14,1,,,,,,,,,,,,,,,,,,,,,,,,,,,,,,,,,,,,,,,,
,,,,,WIN24_049,18,Female,2024-02-09_12h47.22.533,jersey_experiment_5,2023.2.2,Win32,84.74576271,,,,,,,,,,,,,,,,534.1865,535.9865,535.9865,537.5394,return,0.2918,,49.73958333,,,,,,FBP-RB-71.png,0.35,1.2,16,1,0,46,46,15,1,,,,,,,,,,,,,,,,,,,,,,,,,,,,,,,,,,,,,,,,
,,,,,WIN24_049,18,Female,2024-02-09_12h47.22.533,jersey_experiment_5,2023.2.2,Win32,84.74576271,,,,,,,,,,,,,,,,537.5396,538.8335,538.8336,539.763,return,0.3437,,50.52083333,,,,,,FBP-OG-19.png,0.35,1.2,11,0.5,0,47,47,10,1,,,,,,,,,,,,,,,,,,,,,,,,,,,,,,,,,,,,,,,,
,,,,,WIN24_049,18,Female,2024-02-09_12h47.22.533,jersey_experiment_5,2023.2.2,Win32,84.74576271,,,,,,,,,,,,,,,,539.7632,541.0573,541.0573,542.9867,return,0.3012,,88.15104167,,,,,,FBP-OG-18.png,0.43,1.2,9,0.5,0,48,48,8,1,,,,,,,,,,,,,,,,,,,,,,,,,,,,,,,,,,,,,,,,
,,,,,WIN24_049,18,Female,2024-02-09_12h47.22.533,jersey_experiment_5,2023.2.2,Win32,84.74576271,,,,,,,,,,,,,,,,542.9869,544.2809,544.281,546.928,return,0.2935,,79.6875,,,,,,FBP-PT-81.png,0.4,1.2,53,0.5,0,49,49,52,1,,,,,,,,,,,,,,,,,,,,,,,,,,,,,,,,,,,,,,,,
,,,,,WIN24_049,18,Female,2024-02-09_12h47.22.533,jersey_experiment_5,2023.2.2,Win32,84.74576271,,,,,,,,,,,,,,,,546.9281,548.7282,548.7282,549.7752,return,0.3319,,70.57291667,,,,,,FBP-YG-19.png,0.4,1.2,43,1,0,50,50,42,1,,,,,,,,,,,,,,,,,,,,,,,,,,,,,,,,,,,,,,,,
,,,,,WIN24_049,18,Female,2024-02-09_12h47.22.533,jersey_experiment_5,2023.2.2,Win32,84.74576271,,,,,,,,,,,,,,,,549.7753,551.0694,551.0694,553.6106,return,1.3811,,62.890625,,,,,,FBP-PT-81.png,0.35,1.2,51,0.5,0,51,51,50,1,,,,,,,,,,,,,,,,,,,,,,,,,,,,,,,,,,,,,,,,
,,,,,WIN24_049,18,Female,2024-02-09_12h47.22.533,jersey_experiment_5,2023.2.2,Win32,84.74576271,,,,,,,,,,,,,,,,553.6108,554.9048,554.9048,556.6224,return,0.4034,,99.73958333,,,,,,FBP-PT-91.png,0.45,1.2,60,0.5,0,52,52,59,1,,,,,,,,,,,,,,,,,,,,,,,,,,,,,,,,,,,,,,,,
,,,,,WIN24_049,18,Female,2024-02-09_12h47.22.533,jersey_experiment_5,2023.2.2,Win32,84.74576271,,,,,,,,,,,,,,,,556.6226,557.9167,557.9167,559.199,return,0.3773,,99.86979167,,,,,,FBP-OG-17.png,0.45,1.2,5,0.5,0,53,53,4,1,,,,,,,,,,,,,,,,,,,,,,,,,,,,,,,,,,,,,,,,
,,,,,WIN24_049,18,Female,2024-02-09_12h47.22.533,jersey_experiment_5,2023.2.2,Win32,84.74576271,,,,,,,,,,,,,,,,559.1992,560.9993,560.9993,564.3285,return,2.3127,,67.578125,,,,,,FBP-YG-18.png,0.37,1.2,37,1,0,54,54,36,1,,,,,,,,,,,,,,,,,,,,,,,,,,,,,,,,,,,,,,,,
,,,,,WIN24_049,18,Female,2024-02-09_12h47.22.533,jersey_experiment_5,2023.2.2,Win32,84.74576271,,,,,,,,,,,,,,,,564.3331,565.6346,565.6346,567.5053,return,0.579,,67.44791667,,,,,,FBP-OG-17.png,0.4,1.2,3,0.5,0,55,55,2,1,,,,,,,,,,,,,,,,,,,,,,,,,,,,,,,,,,,,,,,,
,,,,,WIN24_049,18,Female,2024-02-09_12h47.22.533,jersey_experiment_5,2023.2.2,Win32,84.74576271,,,,,,,,,,,,,,,,567.5055,569.3053,569.3053,570.7289,return,0.5707,,75.65104167,,,,,,FBP-YG-18.png,0.43,1.2,39,1,0,56,56,38,1,,,,,,,,,,,,,,,,,,,,,,,,,,,,,,,,,,,,,,,,
,,,,,WIN24_049,18,Female,2024-02-09_12h47.22.533,jersey_experiment_5,2023.2.2,Win32,84.74576271,,,,,,,,,,,,,,,,570.7291,572.5289,572.5289,574.682,return,0.5699,,88.41145833,,,,,,FBP-RB-81.png,0.43,1.2,24,1,0,57,57,23,1,,,,,,,,,,,,,,,,,,,,,,,,,,,,,,,,,,,,,,,,
,,,,,WIN24_049,18,Female,2024-02-09_12h47.22.533,jersey_experiment_5,2023.2.2,Win32,84.74576271,,,,,,,,,,,,,,,,574.6823,576.482,576.4821,579.5528,return,0.6589,,87.890625,,,,,,FBP-YG-18.png,0.45,1.2,40,1,0,58,58,39,1,,,,,,,,,,,,,,,,,,,,,,,,,,,,,,,,,,,,,,,,
,,,,,WIN24_049,18,Female,2024-02-09_12h47.22.533,jersey_experiment_5,2023.2.2,Win32,84.74576271,,,,,,,,,,,,,,,,579.5531,581.3527,581.3527,582.9057,return,0.6434,,88.671875,,,,,,FBP-RB-91.png,0.43,1.2,29,1,0,59,59,28,1,,,,,,,,,,,,,,,,,,,,,,,,,,,,,,,,,,,,,,,,
,,,,,WIN24_049,18,Female,2024-02-09_12h47.22.533,jersey_experiment_5,2023.2.2,Win32,84.74576271,,,,,,,,,,,,,,,,,,,,,,,,,,,,,,,,,,,,,,,582.9062,702.9103,,,,,,,,,,,,,,,,,,,,,,,,,,,,,,,,,,,,,,
,,,,,WIN24_049,18,Female,2024-02-09_12h47.22.533,jersey_experiment_5,2023.2.2,Win32,84.74576271,,,,,,,,,,,,,,,,,,,,,,,,,,,,,,,,,,,,,,,,,702.9105,716.0285,return,13.1092,,,,,,,,,,,,,,,,,,,,,,,,,,,,,,,,,,
,,,,,WIN24_049,18,Female,2024-02-09_12h47.22.533,jersey_experiment_5,2023.2.2,Win32,84.74576271,,,,,,,,,,,,,,,,716.0344,717.3341,717.3342,719.3106,return,0.8968,,97.00520833,,,,,,FBP-RB-19.png,0.43,1.2,29,0.5,,,,,,,,,,,,,0,0,0,28,1,,,,,,,,,,,,,,,,,,,,,,,,,,,,
,,,,,WIN24_049,18,Female,2024-02-09_12h47.22.533,jersey_experiment_5,2023.2.2,Win32,84.74576271,,,,,,,,,,,,,,,,719.3109,721.1109,721.1109,722.2755,return,0.2207,,99.86979167,,,,,,FBP-PT-17.png,0.45,1.2,50,1,,,,,,,,,,,,,0,1,1,49,1,,,,,,,,,,,,,,,,,,,,,,,,,,,,
,,,,,WIN24_049,18,Female,2024-02-09_12h47.22.533,jersey_experiment_5,2023.2.2,Win32,84.74576271,,,,,,,,,,,,,,,,722.2757,724.0756,724.0757,725.3698,return,0.4198,,38.28125,,,,,,FBP-OG-71.png,0.35,1.2,1,1,,,,,,,,,,,,,0,2,2,0,1,,,,,,,,,,,,,,,,,,,,,,,,,,,,
,,,,,WIN24_049,18,Female,2024-02-09_12h47.22.533,jersey_experiment_5,2023.2.2,Win32,84.74576271,,,,,,,,,,,,,,,,725.3701,727.1698,727.1698,728.1581,return,0.2713,,59.63541667,,,,,,FBP-OG-91.png,0.43,1.2,14,1,,,,,,,,,,,,,0,3,3,13,1,,,,,,,,,,,,,,,,,,,,,,,,,,,,
,,,,,WIN24_049,18,Female,2024-02-09_12h47.22.533,jersey_experiment_5,2023.2.2,Win32,84.74576271,,,,,,,,,,,,,,,,728.1583,729.9584,729.9584,731.5348,return,0.6033,,78.90625,,,,,,FBP-OG-81.png,0.45,1.2,10,1,,,,,,,,,,,,,0,4,4,9,1,,,,,,,,,,,,,,,,,,,,,,,,,,,,
,,,,,WIN24_049,18,Female,2024-02-09_12h47.22.533,jersey_experiment_5,2023.2.2,Win32,84.74576271,,,,,,,,,,,,,,,,731.535,733.3349,733.3349,734.8407,return,0.338,,91.92708333,,,,,,FBP-OG-71.png,0.45,1.2,5,1,,,,,,,,,,,,,0,5,5,4,1,,,,,,,,,,,,,,,,,,,,,,,,,,,,
,,,,,WIN24_049,18,Female,2024-02-09_12h47.22.533,jersey_experiment_5,2023.2.2,Win32,84.74576271,,,,,,,,,,,,,,,,734.8411,736.135,736.135,738.5468,return,0.2943,,22.52604167,,,,,,FBP-YG-71.png,0.35,1.2,31,0.5,,,,,,,,,,,,,0,6,6,30,1,,,,,,,,,,,,,,,,,,,,,,,,,,,,
,,,,,WIN24_049,18,Female,2024-02-09_12h47.22.533,jersey_experiment_5,2023.2.2,Win32,84.74576271,,,,,,,,,,,,,,,,738.5471,740.3469,740.3469,741.4175,return,0.3257,,29.42708333,,,,,,FBP-PT-18.png,0.37,1.2,52,1,,,,,,,,,,,,,0,7,7,51,1,,,,,,,,,,,,,,,,,,,,,,,,,,,,
,,,,,WIN24_049,18,Female,2024-02-09_12h47.22.533,jersey_experiment_5,2023.2.2,Win32,84.74576271,,,,,,,,,,,,,,,,741.4178,742.7116,742.7116,744.9587,return,0.3089,,24.73958333,,,,,,FBP-RB-17.png,0.35,1.2,16,0.5,,,,,,,,,,,,,0,8,8,15,1,,,,,,,,,,,,,,,,,,,,,,,,,,,,
,,,,,WIN24_049,18,Female,2024-02-09_12h47.22.533,jersey_experiment_5,2023.2.2,Win32,84.74576271,,,,,,,,,,,,,,,,744.9589,746.2529,746.2529,748.7824,return,0.4238,,82.55208333,,,,,,FBP-YG-71.png,0.45,1.2,35,0.5,,,,,,,,,,,,,0,9,9,34,1,,,,,,,,,,,,,,,,,,,,,,,,,,,,
,,,,,WIN24_049,18,Female,2024-02-09_12h47.22.533,jersey_experiment_5,2023.2.2,Win32,84.74576271,,,,,,,,,,,,,,,,748.7827,750.0768,750.0768,751.5708,return,0.376,,75.52083333,,,,,,FBP-RB-19.png,0.4,1.2,28,0.5,,,,,,,,,,,,,0,10,10,27,1,,,,,,,,,,,,,,,,,,,,,,,,,,,,
,,,,,WIN24_049,18,Female,2024-02-09_12h47.22.533,jersey_experiment_5,2023.2.2,Win32,84.74576271,,,,,,,,,,,,,,,,751.5709,753.3708,753.3708,755.8062,return,0.2855,,53.125,,,,,,FBP-PT-18.png,0.35,1.2,51,1,,,,,,,,,,,,,0,11,11,50,1,,,,,,,,,,,,,,,,,,,,,,,,,,,,
,,,,,WIN24_049,18,Female,2024-02-09_12h47.22.533,jersey_experiment_5,2023.2.2,Win32,84.74576271,,,,,,,,,,,,,,,,755.8063,757.6063,757.6064,761.8418,return,0.8848,,52.21354167,,,,,,FBP-PT-17.png,0.37,1.2,47,1,,,,,,,,,,,,,0,12,12,46,1,,,,,,,,,,,,,,,,,,,,,,,,,,,,
,,,,,WIN24_049,18,Female,2024-02-09_12h47.22.533,jersey_experiment_5,2023.2.2,Win32,84.74576271,,,,,,,,,,,,,,,,761.842,763.1359,763.1359,764.7712,return,0.4477,,99.47916667,,,,,,FBP-YG-91.png,0.45,1.2,45,0.5,,,,,,,,,,,,,0,13,13,44,1,,,,,,,,,,,,,,,,,,,,,,,,,,,,
,,,,,WIN24_049,18,Female,2024-02-09_12h47.22.533,jersey_experiment_5,2023.2.2,Win32,84.74576271,,,,,,,,,,,,,,,,764.7714,766.5713,766.5714,768.3478,return,0.4762,,75.52083333,,,,,,FBP-OG-71.png,0.43,1.2,4,1,,,,,,,,,,,,,0,14,14,3,1,,,,,,,,,,,,,,,,,,,,,,,,,,,,
,,,,,WIN24_049,18,Female,2024-02-09_12h47.22.533,jersey_experiment_5,2023.2.2,Win32,84.74576271,,,,,,,,,,,,,,,,768.3482,770.148,770.148,771.1833,return,0.2498,,94.66145833,,,,,,FBP-PT-18.png,0.45,1.2,55,1,,,,,,,,,,,,,0,15,15,54,1,,,,,,,,,,,,,,,,,,,,,,,,,,,,
,,,,,WIN24_049,18,Female,2024-02-09_12h47.22.533,jersey_experiment_5,2023.2.2,Win32,84.74576271,,,,,,,,,,,,,,,,771.1836,772.4776,772.4776,773.9715,return,0.3528,,72.65625,,,,,,FBP-RB-18.png,0.4,1.2,23,0.5,,,,,,,,,,,,,0,16,16,22,1,,,,,,,,,,,,,,,,,,,,,,,,,,,,
,,,,,WIN24_049,18,Female,2024-02-09_12h47.22.533,jersey_experiment_5,2023.2.2,Win32,84.74576271,,,,,,,,,,,,,,,,773.9717,775.2657,775.2658,776.6539,return,0.3326,,99.47916667,,,,,,FBP-RB-18.png,0.45,1.2,25,0.5,,,,,,,,,,,,,0,17,17,24,1,,,,,,,,,,,,,,,,,,,,,,,,,,,,
,,,,,WIN24_049,18,Female,2024-02-09_12h47.22.533,jersey_experiment_5,2023.2.2,Win32,84.74576271,,,,,,,,,,,,,,,,776.6542,777.9482,777.9482,779.113,return,0.3824,,99.34895833,,,,,,FBP-YG-81.png,0.43,1.2,39,0.5,,,,,,,,,,,,,0,18,18,38,1,,,,,,,,,,,,,,,,,,,,,,,,,,,,
,,,,,WIN24_049,18,Female,2024-02-09_12h47.22.533,jersey_experiment_5,2023.2.2,Win32,84.74576271,,,,,,,,,,,,,,,,779.1131,780.4071,780.4072,782.2071,return,0.3318,,74.34895833,,,,,,FBP-RB-17.png,0.4,1.2,18,0.5,,,,,,,,,,,,,0,19,19,17,1,,,,,,,,,,,,,,,,,,,,,,,,,,,,
,,,,,WIN24_049,18,Female,2024-02-09_12h47.22.533,jersey_experiment_5,2023.2.2,Win32,84.74576271,,,,,,,,,,,,,,,,782.2073,784.0072,784.0072,785.2308,return,0.4235,,98.95833333,,,,,,FBP-OG-91.png,0.45,1.2,15,1,,,,,,,,,,,,,0,20,20,14,1,,,,,,,,,,,,,,,,,,,,,,,,,,,,
,,,,,WIN24_049,18,Female,2024-02-09_12h47.22.533,jersey_experiment_5,2023.2.2,Win32,84.74576271,,,,,,,,,,,,,,,,785.231,786.525,786.525,789.3133,return,0.3624,,56.51041667,,,,,,FBP-YG-91.png,0.4,1.2,43,0.5,,,,,,,,,,,,,0,21,21,42,1,,,,,,,,,,,,,,,,,,,,,,,,,,,,
,,,,,WIN24_049,18,Female,2024-02-09_12h47.22.533,jersey_experiment_5,2023.2.2,Win32,84.74576271,,,,,,,,,,,,,,,,789.3135,791.1135,791.1136,792.2075,return,0.4819,,35.546875,,,,,,FBP-OG-81.png,0.35,1.2,6,1,,,,,,,,,,,,,0,22,22,5,1,,,,,,,,,,,,,,,,,,,,,,,,,,,,
,,,,,WIN24_049,18,Female,2024-02-09_12h47.22.533,jersey_experiment_5,2023.2.2,Win32,84.74576271,,,,,,,,,,,,,,,,792.2077,793.5017,793.5017,794.8428,return,0.4394,,24.47916667,,,,,,FBP-YG-81.png,0.37,1.2,37,0.5,,,,,,,,,,,,,0,23,23,36,1,,,,,,,,,,,,,,,,,,,,,,,,,,,,
,,,,,WIN24_049,18,Female,2024-02-09_12h47.22.533,jersey_experiment_5,2023.2.2,Win32,84.74576271,,,,,,,,,,,,,,,,794.843,796.643,796.6431,798.3018,return,0.4597,,73.17708333,,,,,,FBP-PT-17.png,0.43,1.2,49,1,,,,,,,,,,,,,0,24,24,48,1,,,,,,,,,,,,,,,,,,,,,,,,,,,,
,,,,,WIN24_049,18,Female,2024-02-09_12h47.22.533,jersey_experiment_5,2023.2.2,Win32,84.74576271,,,,,,,,,,,,,,,,798.3021,800.1023,800.1023,801.9607,return,1.0794,,30.33854167,,,,,,FBP-PT-17.png,0.35,1.2,46,1,,,,,,,,,,,,,0,25,25,45,1,,,,,,,,,,,,,,,,,,,,,,,,,,,,
,,,,,WIN24_049,18,Female,2024-02-09_12h47.22.533,jersey_experiment_5,2023.2.2,Win32,84.74576271,,,,,,,,,,,,,,,,801.961,803.2549,803.255,805.5845,return,1.5293,,27.99479167,,,,,,FBP-YG-71.png,0.37,1.2,32,0.5,,,,,,,,,,,,,0,26,26,31,1,,,,,,,,,,,,,,,,,,,,,,,,,,,,
,,,,,WIN24_049,18,Female,2024-02-09_12h47.22.533,jersey_experiment_5,2023.2.2,Win32,84.74576271,,,,,,,,,,,,,,,,805.5848,806.8787,806.8787,808.8669,return,0.3855,,94.921875,,,,,,FBP-RB-17.png,0.43,1.2,19,0.5,,,,,,,,,,,,,0,27,27,18,1,,,,,,,,,,,,,,,,,,,,,,,,,,,,
,,,,,WIN24_049,18,Female,2024-02-09_12h47.22.533,jersey_experiment_5,2023.2.2,Win32,84.74576271,,,,,,,,,,,,,,,,808.8671,810.6671,810.6671,813.5378,return,1.5444,,32.421875,,,,,,FBP-OG-71.png,0.37,1.2,2,1,,,,,,,,,,,,,0,28,28,1,1,,,,,,,,,,,,,,,,,,,,,,,,,,,,
,,,,,WIN24_049,18,Female,2024-02-09_12h47.22.533,jersey_experiment_5,2023.2.2,Win32,84.74576271,,,,,,,,,,,,,,,,813.538,814.832,814.832,817.6084,return,1.197,,74.86979167,,,,,,FBP-YG-91.png,0.43,1.2,44,0.5,,,,,,,,,,,,,0,29,29,43,1,,,,,,,,,,,,,,,,,,,,,,,,,,,,
,,,,,WIN24_049,18,Female,2024-02-09_12h47.22.533,jersey_experiment_5,2023.2.2,Win32,84.74576271,,,,,,,,,,,,,,,,817.6085,819.4086,819.4086,823.5498,return,1.0007,,25.390625,,,,,,FBP-OG-91.png,0.37,1.2,12,1,,,,,,,,,,,,,0,30,30,11,1,,,,,,,,,,,,,,,,,,,,,,,,,,,,
,,,,,WIN24_049,18,Female,2024-02-09_12h47.22.533,jersey_experiment_5,2023.2.2,Win32,84.74576271,,,,,,,,,,,,,,,,823.5501,825.3499,825.35,827.0206,return,0.9342,,25.13020833,,,,,,FBP-OG-81.png,0.37,1.2,7,1,,,,,,,,,,,,,0,31,31,6,1,,,,,,,,,,,,,,,,,,,,,,,,,,,,
,,,,,WIN24_049,18,Female,2024-02-09_12h47.22.533,jersey_experiment_5,2023.2.2,Win32,84.74576271,,,,,,,,,,,,,,,,827.0208,828.3148,828.3148,831.7148,return,2.4473,,45.57291667,,,,,,FBP-YG-91.png,0.37,1.2,42,0.5,,,,,,,,,,,,,0,32,32,41,1,,,,,,,,,,,,,,,,,,,,,,,,,,,,
,,,,,WIN24_049,18,Female,2024-02-09_12h47.22.533,jersey_experiment_5,2023.2.2,Win32,84.74576271,,,,,,,,,,,,,,,,831.7151,833.009,833.009,834.762,return,0.3577,,49.73958333,,,,,,FBP-RB-18.png,0.37,1.2,22,0.5,,,,,,,,,,,,,0,33,33,21,1,,,,,,,,,,,,,,,,,,,,,,,,,,,,
,,,,,WIN24_049,18,Female,2024-02-09_12h47.22.533,jersey_experiment_5,2023.2.2,Win32,84.74576271,,,,,,,,,,,,,,,,834.7622,836.5619,836.562,837.9503,return,0.3089,,65.49479167,,,,,,FBP-OG-81.png,0.43,1.2,9,1,,,,,,,,,,,,,0,34,34,8,1,,,,,,,,,,,,,,,,,,,,,,,,,,,,
,,,,,WIN24_049,18,Female,2024-02-09_12h47.22.533,jersey_experiment_5,2023.2.2,Win32,84.74576271,,,,,,,,,,,,,,,,837.9505,839.7504,839.7505,840.7975,return,0.4599,,83.07291667,,,,,,FBP-PT-18.png,0.43,1.2,54,1,,,,,,,,,,,,,0,35,35,53,1,,,,,,,,,,,,,,,,,,,,,,,,,,,,
,,,,,WIN24_049,18,Female,2024-02-09_12h47.22.533,jersey_experiment_5,2023.2.2,Win32,84.74576271,,,,,,,,,,,,,,,,840.7976,842.5978,842.5978,843.68,return,0.4144,,95.44270833,,,,,,FBP-PT-19.png,0.45,1.2,60,1,,,,,,,,,,,,,0,36,36,59,1,,,,,,,,,,,,,,,,,,,,,,,,,,,,
,,,,,WIN24_049,18,Female,2024-02-09_12h47.22.533,jersey_experiment_5,2023.2.2,Win32,84.74576271,,,,,,,,,,,,,,,,843.6803,845.48,845.48,846.9624,return,0.3059,,49.73958333,,,,,,FBP-PT-19.png,0.37,1.2,57,1,,,,,,,,,,,,,0,37,37,56,1,,,,,,,,,,,,,,,,,,,,,,,,,,,,
,,,,,WIN24_049,18,Female,2024-02-09_12h47.22.533,jersey_experiment_5,2023.2.2,Win32,84.74576271,,,,,,,,,,,,,,,,846.9625,848.7625,848.7625,850.2567,return,0.3537,,50.91145833,,,,,,FBP-OG-91.png,0.35,1.2,11,1,,,,,,,,,,,,,0,38,38,10,1,,,,,,,,,,,,,,,,,,,,,,,,,,,,
,,,,,WIN24_049,18,Female,2024-02-09_12h47.22.533,jersey_experiment_5,2023.2.2,Win32,84.74576271,,,,,,,,,,,,,,,,850.2569,852.0567,852.0568,856.7039,return,1.7283,,63.41145833,,,,,,FBP-OG-91.png,0.4,1.2,13,1,,,,,,,,,,,,,0,39,39,12,1,,,,,,,,,,,,,,,,,,,,,,,,,,,,
,,,,,WIN24_049,18,Female,2024-02-09_12h47.22.533,jersey_experiment_5,2023.2.2,Win32,84.74576271,,,,,,,,,,,,,,,,856.7041,858.5041,858.5041,859.7393,return,0.5235,,90.234375,,,,,,FBP-PT-19.png,0.43,1.2,59,1,,,,,,,,,,,,,0,40,40,58,1,,,,,,,,,,,,,,,,,,,,,,,,,,,,
,,,,,WIN24_049,18,Female,2024-02-09_12h47.22.533,jersey_experiment_5,2023.2.2,Win32,84.74576271,,,,,,,,,,,,,,,,859.7396,861.0336,861.0336,863.6807,return,0.2731,,79.6875,,,,,,FBP-RB-17.png,0.37,1.2,17,0.5,,,,,,,,,,,,,0,41,41,16,1,,,,,,,,,,,,,,,,,,,,,,,,,,,,
,,,,,WIN24_049,18,Female,2024-02-09_12h47.22.533,jersey_experiment_5,2023.2.2,Win32,84.74576271,,,,,,,,,,,,,,,,863.681,864.9748,864.9749,866.0455,return,0.2861,,79.03645833,,,,,,FBP-YG-81.png,0.4,1.2,38,0.5,,,,,,,,,,,,,0,42,42,37,1,,,,,,,,,,,,,,,,,,,,,,,,,,,,
,,,,,WIN24_049,18,Female,2024-02-09_12h47.22.533,jersey_experiment_5,2023.2.2,Win32,84.74576271,,,,,,,,,,,,,,,,866.0457,867.3397,867.3397,869.0692,return,0.8018,,64.32291667,,,,,,FBP-RB-19.png,0.35,1.2,26,0.5,,,,,,,,,,,,,0,43,43,25,1,,,,,,,,,,,,,,,,,,,,,,,,,,,,
,,,,,WIN24_049,18,Female,2024-02-09_12h47.22.533,jersey_experiment_5,2023.2.2,Win32,84.74576271,,,,,,,,,,,,,,,,869.0694,870.3633,870.3633,871.6575,return,0.335,,75.13020833,,,,,,FBP-RB-18.png,0.43,1.2,24,0.5,,,,,,,,,,,,,0,44,44,23,1,,,,,,,,,,,,,,,,,,,,,,,,,,,,
,,,,,WIN24_049,18,Female,2024-02-09_12h47.22.533,jersey_experiment_5,2023.2.2,Win32,84.74576271,,,,,,,,,,,,,,,,871.6577,872.9516,872.9516,874.2341,return,0.3462,,55.33854167,,,,,,FBP-YG-91.png,0.35,1.2,41,0.5,,,,,,,,,,,,,0,45,45,40,1,,,,,,,,,,,,,,,,,,,,,,,,,,,,
,,,,,WIN24_049,18,Female,2024-02-09_12h47.22.533,jersey_experiment_5,2023.2.2,Win32,84.74576271,,,,,,,,,,,,,,,,874.2342,875.5281,875.5281,877.4811,return,0.2289,,75.26041667,,,,,,FBP-RB-17.png,0.45,1.2,20,0.5,,,,,,,,,,,,,0,46,46,19,1,,,,,,,,,,,,,,,,,,,,,,,,,,,,
,,,,,WIN24_049,18,Female,2024-02-09_12h47.22.533,jersey_experiment_5,2023.2.2,Win32,84.74576271,,,,,,,,,,,,,,,,877.4814,878.7755,878.7755,880.54,return,0.2875,,50,,,,,,FBP-YG-81.png,0.35,1.2,36,0.5,,,,,,,,,,,,,0,47,47,35,1,,,,,,,,,,,,,,,,,,,,,,,,,,,,
,,,,,WIN24_049,18,Female,2024-02-09_12h47.22.533,jersey_experiment_5,2023.2.2,Win32,84.74576271,,,,,,,,,,,,,,,,880.5403,881.8342,881.8342,882.6108,return,0.2203,,50,,,,,,FBP-RB-18.png,0.35,1.2,21,0.5,,,,,,,,,,,,,0,48,48,20,1,,,,,,,,,,,,,,,,,,,,,,,,,,,,
,,,,,WIN24_049,18,Female,2024-02-09_12h47.22.533,jersey_experiment_5,2023.2.2,Win32,84.74576271,,,,,,,,,,,,,,,,882.611,884.4108,884.4109,885.705,return,0.3116,,72.00520833,,,,,,FBP-OG-71.png,0.4,1.2,3,1,,,,,,,,,,,,,0,49,49,2,1,,,,,,,,,,,,,,,,,,,,,,,,,,,,
,,,,,WIN24_049,18,Female,2024-02-09_12h47.22.533,jersey_experiment_5,2023.2.2,Win32,84.74576271,,,,,,,,,,,,,,,,885.7051,886.9992,886.9992,888.258,return,0.2827,,97.265625,,,,,,FBP-YG-81.png,0.45,1.2,40,0.5,,,,,,,,,,,,,0,50,50,39,1,,,,,,,,,,,,,,,,,,,,,,,,,,,,
,,,,,WIN24_049,18,Female,2024-02-09_12h47.22.533,jersey_experiment_5,2023.2.2,Win32,84.74576271,,,,,,,,,,,,,,,,888.2582,890.0582,890.0582,891.7404,return,0.287,,41.796875,,,,,,FBP-PT-19.png,0.35,1.2,56,1,,,,,,,,,,,,,0,51,51,55,1,,,,,,,,,,,,,,,,,,,,,,,,,,,,
,,,,,WIN24_049,18,Female,2024-02-09_12h47.22.533,jersey_experiment_5,2023.2.2,Win32,84.74576271,,,,,,,,,,,,,,,,891.7406,893.5407,893.5407,895.1524,return,0.2832,,71.875,,,,,,FBP-PT-18.png,0.4,1.2,53,1,,,,,,,,,,,,,0,52,52,52,1,,,,,,,,,,,,,,,,,,,,,,,,,,,,
,,,,,WIN24_049,18,Female,2024-02-09_12h47.22.533,jersey_experiment_5,2023.2.2,Win32,84.74576271,,,,,,,,,,,,,,,,895.1526,896.4466,896.4466,897.9998,return,0.3173,,95.3125,,,,,,FBP-YG-71.png,0.43,1.2,34,0.5,,,,,,,,,,,,,0,53,53,33,1,,,,,,,,,,,,,,,,,,,,,,,,,,,,
,,,,,WIN24_049,18,Female,2024-02-09_12h47.22.533,jersey_experiment_5,2023.2.2,Win32,84.74576271,,,,,,,,,,,,,,,,898,899.2937,899.2938,902.988,return,0.2735,,59.375,,,,,,FBP-RB-19.png,0.37,1.2,27,0.5,,,,,,,,,,,,,0,54,54,26,1,,,,,,,,,,,,,,,,,,,,,,,,,,,,
,,,,,WIN24_049,18,Female,2024-02-09_12h47.22.533,jersey_experiment_5,2023.2.2,Win32,84.74576271,,,,,,,,,,,,,,,,902.9881,904.282,904.2821,905.294,return,0.3653,,56.90104167,,,,,,FBP-YG-71.png,0.4,1.2,33,0.5,,,,,,,,,,,,,0,55,55,32,1,,,,,,,,,,,,,,,,,,,,,,,,,,,,
,,,,,WIN24_049,18,Female,2024-02-09_12h47.22.533,jersey_experiment_5,2023.2.2,Win32,84.74576271,,,,,,,,,,,,,,,,905.2942,907.094,907.094,908.8118,return,0.497,,73.828125,,,,,,FBP-PT-19.png,0.4,1.2,58,1,,,,,,,,,,,,,0,56,56,57,1,,,,,,,,,,,,,,,,,,,,,,,,,,,,
,,,,,WIN24_049,18,Female,2024-02-09_12h47.22.533,jersey_experiment_5,2023.2.2,Win32,84.74576271,,,,,,,,,,,,,,,,908.812,910.6117,910.6118,912.106,return,0.4662,,61.71875,,,,,,FBP-PT-17.png,0.4,1.2,48,1,,,,,,,,,,,,,0,57,57,47,1,,,,,,,,,,,,,,,,,,,,,,,,,,,,
,,,,,WIN24_049,18,Female,2024-02-09_12h47.22.533,jersey_experiment_5,2023.2.2,Win32,84.74576271,,,,,,,,,,,,,,,,912.1062,913.4002,913.4002,914.9295,return,0.2826,,97.265625,,,,,,FBP-RB-19.png,0.45,1.2,30,0.5,,,,,,,,,,,,,0,58,58,29,1,,,,,,,,,,,,,,,,,,,,,,,,,,,,
,,,,,WIN24_049,18,Female,2024-02-09_12h47.22.533,jersey_experiment_5,2023.2.2,Win32,84.74576271,,,,,,,,,,,,,,,,914.9298,916.7297,916.7297,919.3886,return,1.2046,,63.02083333,,,,,,FBP-OG-81.png,0.4,1.2,8,1,,,,,,,,,,,,,0,59,59,7,1,,,,,,,,,,,,,,,,,,,,,,,,,,,,
,,,,,WIN24_049,18,Female,2024-02-09_12h47.22.533,jersey_experiment_5,2023.2.2,Win32,84.74576271,,,,,,,,,,,,,,,,919.3906,921.1889,921.1889,922.0003,return,0.2828,,80.98958333,,,,,,FBP-PT-81.png,0.43,1.2,54,1,,,,,,,,,,,,,,,,,,0,0,0,53,1,,,,,,,,,,,,,,,,,,,,,,,
,,,,,WIN24_049,18,Female,2024-02-09_12h47.22.533,jersey_experiment_5,2023.2.2,Win32,84.74576271,,,,,,,,,,,,,,,,922.0007,923.2947,923.2947,924.6711,return,0.3533,,65.625,,,,,,FBP-YG-18.png,0.37,1.2,37,0.5,,,,,,,,,,,,,,,,,,0,1,1,36,1,,,,,,,,,,,,,,,,,,,,,,,
,,,,,WIN24_049,18,Female,2024-02-09_12h47.22.533,jersey_experiment_5,2023.2.2,Win32,84.74576271,,,,,,,,,,,,,,,,924.6713,926.4712,926.4712,930.0596,return,1.2505,,73.95833333,,,,,,FBP-OG-17.png,0.4,1.2,3,1,,,,,,,,,,,,,,,,,,0,2,2,2,1,,,,,,,,,,,,,,,,,,,,,,,
,,,,,WIN24_049,18,Female,2024-02-09_12h47.22.533,jersey_experiment_5,2023.2.2,Win32,84.74576271,,,,,,,,,,,,,,,,930.0599,931.3538,931.3538,932.3772,return,0.2994,,85.28645833,,,,,,FBP-RB-81.png,0.45,1.2,25,0.5,,,,,,,,,,,,,,,,,,0,3,3,24,1,,,,,,,,,,,,,,,,,,,,,,,
,,,,,WIN24_049,18,Female,2024-02-09_12h47.22.533,jersey_experiment_5,2023.2.2,Win32,84.74576271,,,,,,,,,,,,,,,,932.3775,933.6714,933.6714,935.0715,return,0.2592,,76.5625,,,,,,FBP-RB-81.png,0.4,1.2,23,0.5,,,,,,,,,,,,,,,,,,0,4,4,22,1,,,,,,,,,,,,,,,,,,,,,,,
,,,,,WIN24_049,18,Female,2024-02-09_12h47.22.533,jersey_experiment_5,2023.2.2,Win32,84.74576271,,,,,,,,,,,,,,,,935.0717,936.3657,936.3657,937.4479,return,0.2211,,69.27083333,,,,,,FBP-RB-71.png,0.37,1.2,17,0.5,,,,,,,,,,,,,,,,,,0,5,5,16,1,,,,,,,,,,,,,,,,,,,,,,,
,,,,,WIN24_049,18,Female,2024-02-09_12h47.22.533,jersey_experiment_5,2023.2.2,Win32,84.74576271,,,,,,,,,,,,,,,,937.4481,938.7422,938.7422,939.707,return,0.2981,,82.421875,,,,,,FBP-YG-18.png,0.45,1.2,40,0.5,,,,,,,,,,,,,,,,,,0,6,6,39,1,,,,,,,,,,,,,,,,,,,,,,,
,,,,,WIN24_049,18,Female,2024-02-09_12h47.22.533,jersey_experiment_5,2023.2.2,Win32,84.74576271,,,,,,,,,,,,,,,,939.7072,941.507,941.507,943.1071,return,1.0735,,71.74479167,,,,,,FBP-PT-81.png,0.4,1.2,53,1,,,,,,,,,,,,,,,,,,0,7,7,52,1,,,,,,,,,,,,,,,,,,,,,,,
,,,,,WIN24_049,18,Female,2024-02-09_12h47.22.533,jersey_experiment_5,2023.2.2,Win32,84.74576271,,,,,,,,,,,,,,,,943.1073,944.9072,944.9072,946.06,return,0.3109,,73.30729167,,,,,,FBP-PT-71.png,0.4,1.2,48,1,,,,,,,,,,,,,,,,,,0,8,8,47,1,,,,,,,,,,,,,,,,,,,,,,,
,,,,,WIN24_049,18,Female,2024-02-09_12h47.22.533,jersey_experiment_5,2023.2.2,Win32,84.74576271,,,,,,,,,,,,,,,,946.0603,947.8604,947.8604,951.1545,return,0.4479,,53.25520833,,,,,,FBP-PT-81.png,0.35,1.2,51,1,,,,,,,,,,,,,,,,,,0,9,9,50,1,,,,,,,,,,,,,,,,,,,,,,,
,,,,,WIN24_049,18,Female,2024-02-09_12h47.22.533,jersey_experiment_5,2023.2.2,Win32,84.74576271,,,,,,,,,,,,,,,,951.1546,952.4484,952.4485,955.2722,return,2.1858,,71.09375,,,,,,FBP-RB-91.png,0.43,1.2,29,0.5,,,,,,,,,,,,,,,,,,0,10,10,28,1,,,,,,,,,,,,,,,,,,,,,,,
,,,,,WIN24_049,18,Female,2024-02-09_12h47.22.533,jersey_experiment_5,2023.2.2,Win32,84.74576271,,,,,,,,,,,,,,,,955.2725,957.0722,957.0723,958.4253,return,0.3726,,88.671875,,,,,,FBP-PT-91.png,0.43,1.2,59,1,,,,,,,,,,,,,,,,,,0,11,11,58,1,,,,,,,,,,,,,,,,,,,,,,,
,,,,,WIN24_049,18,Female,2024-02-09_12h47.22.533,jersey_experiment_5,2023.2.2,Win32,84.74576271,,,,,,,,,,,,,,,,958.4256,960.2253,960.2253,961.602,return,0.6358,,98.4375,,,,,,FBP-OG-17.png,0.45,1.2,5,1,,,,,,,,,,,,,,,,,,0,12,12,4,1,,,,,,,,,,,,,,,,,,,,,,,
,,,,,WIN24_049,18,Female,2024-02-09_12h47.22.533,jersey_experiment_5,2023.2.2,Win32,84.74576271,,,,,,,,,,,,,,,,961.6022,963.4019,963.4019,966.4022,return,2.2271,,46.875,,,,,,FBP-OG-19.png,0.37,1.2,12,1,,,,,,,,,,,,,,,,,,0,13,13,11,1,,,,,,,,,,,,,,,,,,,,,,,
,,,,,WIN24_049,18,Female,2024-02-09_12h47.22.533,jersey_experiment_5,2023.2.2,Win32,84.74576271,,,,,,,,,,,,,,,,966.4023,967.6962,967.6963,969.1315,return,0.7467,,70.05208333,,,,,,FBP-RB-81.png,0.43,1.2,24,0.5,,,,,,,,,,,,,,,,,,0,14,14,23,1,,,,,,,,,,,,,,,,,,,,,,,
,,,,,WIN24_049,18,Female,2024-02-09_12h47.22.533,jersey_experiment_5,2023.2.2,Win32,84.74576271,,,,,,,,,,,,,,,,969.1317,970.4258,970.4259,972.0492,return,0.2498,,74.34895833,,,,,,FBP-YG-17.png,0.43,1.2,34,0.5,,,,,,,,,,,,,,,,,,0,15,15,33,1,,,,,,,,,,,,,,,,,,,,,,,
,,,,,WIN24_049,18,Female,2024-02-09_12h47.22.533,jersey_experiment_5,2023.2.2,Win32,84.74576271,,,,,,,,,,,,,,,,972.0494,973.3435,973.3435,974.0494,return,0.2731,,74.609375,,,,,,FBP-YG-19.png,0.43,1.2,44,0.5,,,,,,,,,,,,,,,,,,0,16,16,43,1,,,,,,,,,,,,,,,,,,,,,,,
,,,,,WIN24_049,18,Female,2024-02-09_12h47.22.533,jersey_experiment_5,2023.2.2,Win32,84.74576271,,,,,,,,,,,,,,,,974.0496,975.8495,975.8496,976.5554,return,0.2507,,81.77083333,,,,,,FBP-PT-81.png,0.45,1.2,55,1,,,,,,,,,,,,,,,,,,0,17,17,54,1,,,,,,,,,,,,,,,,,,,,,,,
,,,,,WIN24_049,18,Female,2024-02-09_12h47.22.533,jersey_experiment_5,2023.2.2,Win32,84.74576271,,,,,,,,,,,,,,,,976.5556,977.8495,977.8495,980.2967,return,0.338,,60.9375,,,,,,FBP-YG-17.png,0.4,1.2,33,0.5,,,,,,,,,,,,,,,,,,0,18,18,32,1,,,,,,,,,,,,,,,,,,,,,,,
,,,,,WIN24_049,18,Female,2024-02-09_12h47.22.533,jersey_experiment_5,2023.2.2,Win32,84.74576271,,,,,,,,,,,,,,,,980.2969,982.0967,982.0967,983.1203,return,0.4806,,59.11458333,,,,,,FBP-OG-18.png,0.4,1.2,8,1,,,,,,,,,,,,,,,,,,0,19,19,7,1,,,,,,,,,,,,,,,,,,,,,,,
,,,,,WIN24_049,18,Female,2024-02-09_12h47.22.533,jersey_experiment_5,2023.2.2,Win32,84.74576271,,,,,,,,,,,,,,,,983.1205,984.4144,984.4144,985.8498,return,0.4166,,50.65104167,,,,,,FBP-RB-91.png,0.37,1.2,27,0.5,,,,,,,,,,,,,,,,,,0,20,20,26,1,,,,,,,,,,,,,,,,,,,,,,,
,,,,,WIN24_049,18,Female,2024-02-09_12h47.22.533,jersey_experiment_5,2023.2.2,Win32,84.74576271,,,,,,,,,,,,,,,,985.85,987.6499,987.6499,988.5793,return,0.3155,,49.34895833,,,,,,FBP-PT-91.png,0.37,1.2,57,1,,,,,,,,,,,,,,,,,,0,21,21,56,1,,,,,,,,,,,,,,,,,,,,,,,
,,,,,WIN24_049,18,Female,2024-02-09_12h47.22.533,jersey_experiment_5,2023.2.2,Win32,84.74576271,,,,,,,,,,,,,,,,988.5795,989.8734,989.8734,990.9559,return,0.3439,,48.69791667,,,,,,FBP-RB-81.png,0.37,1.2,22,0.5,,,,,,,,,,,,,,,,,,0,22,22,21,1,,,,,,,,,,,,,,,,,,,,,,,
,,,,,WIN24_049,18,Female,2024-02-09_12h47.22.533,jersey_experiment_5,2023.2.2,Win32,84.74576271,,,,,,,,,,,,,,,,990.9561,992.2499,992.2499,993.3559,return,0.2403,,40.10416667,,,,,,FBP-YG-18.png,0.35,1.2,36,0.5,,,,,,,,,,,,,,,,,,0,23,23,35,1,,,,,,,,,,,,,,,,,,,,,,,
,,,,,WIN24_049,18,Female,2024-02-09_12h47.22.533,jersey_experiment_5,2023.2.2,Win32,84.74576271,,,,,,,,,,,,,,,,993.3561,995.1561,995.1561,996.3325,return,0.449,,21.22395833,,,,,,FBP-PT-91.png,0.35,1.2,56,1,,,,,,,,,,,,,,,,,,0,24,24,55,1,,,,,,,,,,,,,,,,,,,,,,,
,,,,,WIN24_049,18,Female,2024-02-09_12h47.22.533,jersey_experiment_5,2023.2.2,Win32,84.74576271,,,,,,,,,,,,,,,,996.3328,997.6269,997.627,999.2033,return,0.2735,,50,,,,,,FBP-YG-18.png,0.4,1.2,38,0.5,,,,,,,,,,,,,,,,,,0,25,25,37,1,,,,,,,,,,,,,,,,,,,,,,,
,,,,,WIN24_049,18,Female,2024-02-09_12h47.22.533,jersey_experiment_5,2023.2.2,Win32,84.74576271,,,,,,,,,,,,,,,,999.2035,1001.0033,1001.0033,1002.8152,return,0.5995,,74.609375,,,,,,FBP-PT-71.png,0.43,1.2,49,1,,,,,,,,,,,,,,,,,,0,26,26,48,1,,,,,,,,,,,,,,,,,,,,,,,
,,,,,WIN24_049,18,Female,2024-02-09_12h47.22.533,jersey_experiment_5,2023.2.2,Win32,84.74576271,,,,,,,,,,,,,,,,1002.8154,1004.6152,1004.6153,1006.4152,return,0.2606,,44.140625,,,,,,FBP-OG-18.png,0.37,1.2,7,1,,,,,,,,,,,,,,,,,,0,27,27,6,1,,,,,,,,,,,,,,,,,,,,,,,
,,,,,WIN24_049,18,Female,2024-02-09_12h47.22.533,jersey_experiment_5,2023.2.2,Win32,84.74576271,,,,,,,,,,,,,,,,1006.4155,1007.7094,1007.7094,1011.9684,return,0.8803,,66.27604167,,,,,,FBP-RB-71.png,0.4,1.2,18,0.5,,,,,,,,,,,,,,,,,,0,28,28,17,1,,,,,,,,,,,,,,,,,,,,,,,
,,,,,WIN24_049,18,Female,2024-02-09_12h47.22.533,jersey_experiment_5,2023.2.2,Win32,84.74576271,,,,,,,,,,,,,,,,1011.9686,1013.7685,1013.7685,1015.2274,return,0.7796,,70.3125,,,,,,FBP-OG-18.png,0.43,1.2,9,1,,,,,,,,,,,,,,,,,,0,29,29,8,1,,,,,,,,,,,,,,,,,,,,,,,
,,,,,WIN24_049,18,Female,2024-02-09_12h47.22.533,jersey_experiment_5,2023.2.2,Win32,84.74576271,,,,,,,,,,,,,,,,1015.2277,1017.0274,1017.0274,1018.3686,return,0.2826,,75.78125,,,,,,FBP-OG-19.png,0.45,1.2,15,1,,,,,,,,,,,,,,,,,,0,30,30,14,1,,,,,,,,,,,,,,,,,,,,,,,
,,,,,WIN24_049,18,Female,2024-02-09_12h47.22.533,jersey_experiment_5,2023.2.2,Win32,84.74576271,,,,,,,,,,,,,,,,1018.3688,1020.1688,1020.1688,1021.357,return,0.2485,,34.765625,,,,,,FBP-OG-18.png,0.35,1.2,6,1,,,,,,,,,,,,,,,,,,0,31,31,5,1,,,,,,,,,,,,,,,,,,,,,,,
,,,,,WIN24_049,18,Female,2024-02-09_12h47.22.533,jersey_experiment_5,2023.2.2,Win32,84.74576271,,,,,,,,,,,,,,,,1021.3571,1022.6511,1022.6511,1024.7336,return,0.8251,,71.61458333,,,,,,FBP-YG-18.png,0.43,1.2,39,0.5,,,,,,,,,,,,,,,,,,0,32,32,38,1,,,,,,,,,,,,,,,,,,,,,,,
,,,,,WIN24_049,18,Female,2024-02-09_12h47.22.533,jersey_experiment_5,2023.2.2,Win32,84.74576271,,,,,,,,,,,,,,,,1024.7338,1026.0278,1026.0278,1028.1455,return,0.6589,,23.95833333,,,,,,FBP-RB-81.png,0.35,1.2,21,0.5,,,,,,,,,,,,,,,,,,0,33,33,20,1,,,,,,,,,,,,,,,,,,,,,,,
,,,,,WIN24_049,18,Female,2024-02-09_12h47.22.533,jersey_experiment_5,2023.2.2,Win32,84.74576271,,,,,,,,,,,,,,,,1028.1458,1029.4395,1029.4395,1031.5927,return,0.6909,,97.13541667,,,,,,FBP-RB-91.png,0.45,1.2,30,0.5,,,,,,,,,,,,,,,,,,0,34,34,29,1,,,,,,,,,,,,,,,,,,,,,,,
,,,,,WIN24_049,18,Female,2024-02-09_12h47.22.533,jersey_experiment_5,2023.2.2,Win32,84.74576271,,,,,,,,,,,,,,,,1031.5929,1033.3928,1033.3928,1034.7456,return,0.3459,,35.15625,,,,,,FBP-OG-17.png,0.35,1.2,1,1,,,,,,,,,,,,,,,,,,0,35,35,0,1,,,,,,,,,,,,,,,,,,,,,,,
,,,,,WIN24_049,18,Female,2024-02-09_12h47.22.533,jersey_experiment_5,2023.2.2,Win32,84.74576271,,,,,,,,,,,,,,,,1034.7459,1036.5461,1036.5461,1037.4753,return,0.2214,,50.13020833,,,,,,FBP-OG-19.png,0.4,1.2,13,1,,,,,,,,,,,,,,,,,,0,36,36,12,1,,,,,,,,,,,,,,,,,,,,,,,
,,,,,WIN24_049,18,Female,2024-02-09_12h47.22.533,jersey_experiment_5,2023.2.2,Win32,84.74576271,,,,,,,,,,,,,,,,1037.4755,1038.7693,1038.7693,1041.1814,return,0.2363,,79.296875,,,,,,FBP-RB-71.png,0.43,1.2,19,0.5,,,,,,,,,,,,,,,,,,0,37,37,18,1,,,,,,,,,,,,,,,,,,,,,,,
,,,,,WIN24_049,18,Female,2024-02-09_12h47.22.533,jersey_experiment_5,2023.2.2,Win32,84.74576271,,,,,,,,,,,,,,,,1041.1816,1042.4755,1042.4755,1044.1932,return,1.0586,,97.78645833,,,,,,FBP-YG-17.png,0.45,1.2,35,0.5,,,,,,,,,,,,,,,,,,0,38,38,34,1,,,,,,,,,,,,,,,,,,,,,,,
,,,,,WIN24_049,18,Female,2024-02-09_12h47.22.533,jersey_experiment_5,2023.2.2,Win32,84.74576271,,,,,,,,,,,,,,,,1044.1935,1045.993,1045.9931,1053.8406,return,0.2267,,71.09375,,,,,,FBP-OG-17.png,0.37,1.2,2,1,,,,,,,,,,,,,,,,,,0,39,39,1,1,,,,,,,,,,,,,,,,,,,,,,,
,,,,,WIN24_049,18,Female,2024-02-09_12h47.22.533,jersey_experiment_5,2023.2.2,Win32,84.74576271,,,,,,,,,,,,,,,,1053.8408,1055.1347,1055.1347,1056.2523,return,0.4048,,59.375,,,,,,FBP-YG-17.png,0.37,1.2,32,0.5,,,,,,,,,,,,,,,,,,0,40,40,31,1,,,,,,,,,,,,,,,,,,,,,,,
,,,,,WIN24_049,18,Female,2024-02-09_12h47.22.533,jersey_experiment_5,2023.2.2,Win32,84.74576271,,,,,,,,,,,,,,,,1056.2524,1057.5465,1057.5465,1059.276,return,0.299,,41.27604167,,,,,,FBP-YG-17.png,0.35,1.2,31,0.5,,,,,,,,,,,,,,,,,,0,41,41,30,1,,,,,,,,,,,,,,,,,,,,,,,
,,,,,WIN24_049,18,Female,2024-02-09_12h47.22.533,jersey_experiment_5,2023.2.2,Win32,84.74576271,,,,,,,,,,,,,,,,1059.2763,1061.076,1061.076,1064.5584,return,0.2474,,63.54166667,,,,,,FBP-PT-71.png,0.35,1.2,46,1,,,,,,,,,,,,,,,,,,0,42,42,45,1,,,,,,,,,,,,,,,,,,,,,,,
,,,,,WIN24_049,18,Female,2024-02-09_12h47.22.533,jersey_experiment_5,2023.2.2,Win32,84.74576271,,,,,,,,,,,,,,,,1064.5586,1066.3588,1066.3588,1067.3704,return,0.3008,,91.66666667,,,,,,FBP-PT-71.png,0.45,1.2,50,1,,,,,,,,,,,,,,,,,,0,43,43,49,1,,,,,,,,,,,,,,,,,,,,,,,
,,,,,WIN24_049,18,Female,2024-02-09_12h47.22.533,jersey_experiment_5,2023.2.2,Win32,84.74576271,,,,,,,,,,,,,,,,1067.3706,1068.6648,1068.6648,1070.2176,return,0.3018,,91.796875,,,,,,FBP-RB-71.png,0.45,1.2,20,0.5,,,,,,,,,,,,,,,,,,0,44,44,19,1,,,,,,,,,,,,,,,,,,,,,,,
,,,,,WIN24_049,18,Female,2024-02-09_12h47.22.533,jersey_experiment_5,2023.2.2,Win32,84.74576271,,,,,,,,,,,,,,,,1070.2178,1071.5118,1071.5118,1073.1353,return,0.2494,,38.15104167,,,,,,FBP-RB-71.png,0.35,1.2,16,0.5,,,,,,,,,,,,,,,,,,0,45,45,15,1,,,,,,,,,,,,,,,,,,,,,,,
,,,,,WIN24_049,18,Female,2024-02-09_12h47.22.533,jersey_experiment_5,2023.2.2,Win32,84.74576271,,,,,,,,,,,,,,,,1073.1355,1074.9353,1074.9353,1076.7119,return,0.2425,,84.765625,,,,,,FBP-PT-91.png,0.45,1.2,60,1,,,,,,,,,,,,,,,,,,0,46,46,59,1,,,,,,,,,,,,,,,,,,,,,,,
,,,,,WIN24_049,18,Female,2024-02-09_12h47.22.533,jersey_experiment_5,2023.2.2,Win32,84.74576271,,,,,,,,,,,,,,,,1076.7122,1078.0061,1078.0061,1079.312,return,0.3069,,70.18229167,,,,,,FBP-YG-19.png,0.37,1.2,42,0.5,,,,,,,,,,,,,,,,,,0,47,47,41,1,,,,,,,,,,,,,,,,,,,,,,,
,,,,,WIN24_049,18,Female,2024-02-09_12h47.22.533,jersey_experiment_5,2023.2.2,Win32,84.74576271,,,,,,,,,,,,,,,,1079.3122,1081.1121,1081.1122,1082.0767,return,0.2747,,97.265625,,,,,,FBP-OG-18.png,0.45,1.2,10,1,,,,,,,,,,,,,,,,,,0,48,48,9,1,,,,,,,,,,,,,,,,,,,,,,,
,,,,,WIN24_049,18,Female,2024-02-09_12h47.22.533,jersey_experiment_5,2023.2.2,Win32,84.74576271,,,,,,,,,,,,,,,,1082.077,1083.3712,1083.3712,1084.6652,return,0.241,,61.45833333,,,,,,FBP-YG-19.png,0.4,1.2,43,0.5,,,,,,,,,,,,,,,,,,0,49,49,42,1,,,,,,,,,,,,,,,,,,,,,,,
,,,,,WIN24_049,18,Female,2024-02-09_12h47.22.533,jersey_experiment_5,2023.2.2,Win32,84.74576271,,,,,,,,,,,,,,,,1084.6655,1086.4654,1086.4654,1089.0182,return,1.9244,,59.89583333,,,,,,FBP-PT-91.png,0.4,1.2,58,1,,,,,,,,,,,,,,,,,,0,50,50,57,1,,,,,,,,,,,,,,,,,,,,,,,
,,,,,WIN24_049,18,Female,2024-02-09_12h47.22.533,jersey_experiment_5,2023.2.2,Win32,84.74576271,,,,,,,,,,,,,,,,1089.0184,1090.8184,1090.8185,1092.4772,return,0.3317,,82.55208333,,,,,,FBP-OG-17.png,0.43,1.2,4,1,,,,,,,,,,,,,,,,,,0,51,51,3,1,,,,,,,,,,,,,,,,,,,,,,,
,,,,,WIN24_049,18,Female,2024-02-09_12h47.22.533,jersey_experiment_5,2023.2.2,Win32,84.74576271,,,,,,,,,,,,,,,,1092.4774,1094.2774,1094.2774,1095.4655,return,0.2545,,29.94791667,,,,,,FBP-OG-19.png,0.35,1.2,11,1,,,,,,,,,,,,,,,,,,0,52,52,10,1,,,,,,,,,,,,,,,,,,,,,,,
,,,,,WIN24_049,18,Female,2024-02-09_12h47.22.533,jersey_experiment_5,2023.2.2,Win32,84.74576271,,,,,,,,,,,,,,,,1095.4656,1096.7598,1096.7598,1099.548,return,0.8145,,57.03125,,,,,,FBP-RB-91.png,0.35,1.2,26,0.5,,,,,,,,,,,,,,,,,,0,53,53,25,1,,,,,,,,,,,,,,,,,,,,,,,
,,,,,WIN24_049,18,Female,2024-02-09_12h47.22.533,jersey_experiment_5,2023.2.2,Win32,84.74576271,,,,,,,,,,,,,,,,1099.5482,1101.3483,1101.3483,1102.2658,return,0.2404,,49.73958333,,,,,,FBP-PT-81.png,0.37,1.2,52,1,,,,,,,,,,,,,,,,,,0,54,54,51,1,,,,,,,,,,,,,,,,,,,,,,,
,,,,,WIN24_049,18,Female,2024-02-09_12h47.22.533,jersey_experiment_5,2023.2.2,Win32,84.74576271,,,,,,,,,,,,,,,,1102.2659,1103.5599,1103.56,1104.5952,return,0.2498,,69.53125,,,,,,FBP-RB-91.png,0.4,1.2,28,0.5,,,,,,,,,,,,,,,,,,0,55,55,27,1,,,,,,,,,,,,,,,,,,,,,,,
,,,,,WIN24_049,18,Female,2024-02-09_12h47.22.533,jersey_experiment_5,2023.2.2,Win32,84.74576271,,,,,,,,,,,,,,,,1104.5954,1105.8897,1105.8897,1107.4071,return,0.3078,,50.13020833,,,,,,FBP-YG-19.png,0.35,1.2,41,0.5,,,,,,,,,,,,,,,,,,0,56,56,40,1,,,,,,,,,,,,,,,,,,,,,,,
,,,,,WIN24_049,18,Female,2024-02-09_12h47.22.533,jersey_experiment_5,2023.2.2,Win32,84.74576271,,,,,,,,,,,,,,,,1107.4073,1108.7014,1108.7014,1110.3014,return,0.4271,,98.69791667,,,,,,FBP-YG-19.png,0.45,1.2,45,0.5,,,,,,,,,,,,,,,,,,0,57,57,44,1,,,,,,,,,,,,,,,,,,,,,,,
,,,,,WIN24_049,18,Female,2024-02-09_12h47.22.533,jersey_experiment_5,2023.2.2,Win32,84.74576271,,,,,,,,,,,,,,,,1110.3015,1112.1017,1112.1017,1114.6544,return,0.2238,,93.61979167,,,,,,FBP-OG-19.png,0.43,1.2,14,1,,,,,,,,,,,,,,,,,,0,58,58,13,1,,,,,,,,,,,,,,,,,,,,,,,
,,,,,WIN24_049,18,Female,2024-02-09_12h47.22.533,jersey_experiment_5,2023.2.2,Win32,84.74576271,,,,,,,,,,,,,,,,1114.6546,1116.4546,1116.4547,1117.6662,return,0.2681,,59.11458333,,,,,,FBP-PT-71.png,0.37,1.2,47,1,,,,,,,,,,,,,,,,,,0,59,59,46,1,,,,,,,,,,,,,,,,,,,,,,,
,,,,,WIN24_049,18,Female,2024-02-09_12h47.22.533,jersey_experiment_5,2023.2.2,Win32,84.74576271,,,,,,,,,,,,,,,,,,,,,,,,,,,,,,,,,,,,,,,,,,,,,,,,,,,,,,,,1117.6666,1129.6789,return,12.0004,,,,,,,,,,,,,,,,,,,
,,,,,WIN24_049,18,Female,2024-02-09_12h47.22.533,jersey_experiment_5,2023.2.2,Win32,84.74576271,,,,,,,,,,,,,,,,,,,,,,,,,,,,,,,,,,,,,,,,,,,,,,,,,,,,,,,,,,,,,1129.679,1148.4088,1,17.2122,return,1.5012,,,,,,,,,,,,
,,,,,WIN24_049,18,Female,2024-02-09_12h47.22.533,jersey_experiment_5,2023.2.2,Win32,84.74576271,,,,,,,,,,,,,,,,,,,,,,,,,,,,,,,,,,,,,,,,,,,,,,,,,,,,,,,,,,,,,,,,,,,,1148.4089,1241.9225,"I saw a pattern where some of the players were about the same size, but the color was just different. The study may be about jow color impacts the way we see things?",right,85.7445,,,,,,
,,,,,WIN24_049,18,Female,2024-02-09_12h47.22.533,jersey_experiment_5,2023.2.2,Win32,84.74576271,,,,,,,,,,,,,,,,,,,,,,,,,,,,,,,,,,,,,,,,,,,,,,,,,,,,,,,,,,,,,,,,,,,,,,,,,,1241.9225,1253.5659,return,11.6329,