requirements.started,requirements.stopped,key_resp_3.keys,key_resp_3.rt,key_resp_3.duration,Subject ID,Age,Gender,date,expName,psychopyVersion,OS,frameRate,instructions1.started,instructions1.stopped,key_resp.keys,key_resp.rt,key_resp.duration,example.started,example.stopped,enter_2.keys,enter_2.rt,enter_2.duration,instructions2.started,instructions2.stopped,enter_3.keys,enter_3.rt,enter_3.duration,image.started,image.stopped,slider_2.started,slider_2.stopped,next.keys,next.rt,next.duration,slider.response,trial_block_1.thisRepN,trial_block_1.thisTrialN,trial_block_1.thisN,trial_block_1.thisIndex,trial_block_1.ran,Path,Width,Height,Index,Duration,trial_block_2.thisRepN,trial_block_2.thisTrialN,trial_block_2.thisN,trial_block_2.thisIndex,trial_block_2.ran,rest_break.started,rest_break.stopped,end_break.started,end_break.stopped,key_resp_5.keys,key_resp_5.rt,key_resp_5.duration,trial_block_3.thisRepN,trial_block_3.thisTrialN,trial_block_3.thisN,trial_block_3.thisIndex,trial_block_3.ran,trial_block_4.thisRepN,trial_block_4.thisTrialN,trial_block_4.thisN,trial_block_4.thisIndex,trial_block_4.ran,questions_intro.started,questions_intro.stopped,enter_12.keys,enter_12.rt,enter_12.duration,question2.started,question2.stopped,question_doingbest.response,question_doingbest.rt,enter_15.keys,enter_15.rt,enter_15.duration,pattern.started,pattern.stopped,pattern_2.text,enter_17.keys,enter_17.rt,enter_17.duration,thankyou.started,thankyou.stopped,enter_14.keys,enter_14.rt,enter_14.duration
0,11.029,return,11.018,,WIN24_047,21,female,2024-02-09_12h00.51.785,jersey_experiment_5,2023.2.2,Win32,84.74576271,,,,,,,,,,,,,,,,,,,,,,,,,,,,,,,,,,,,,,,,,,,,,,,,,,,,,,,,,,,,,,,,,,,,,,,,,,,,,,
,,,,,WIN24_047,21,female,2024-02-09_12h00.51.785,jersey_experiment_5,2023.2.2,Win32,84.74576271,11.0291,22.8294,return,11.7816,,,,,,,,,,,,,,,,,,,,,,,,,,,,,,,,,,,,,,,,,,,,,,,,,,,,,,,,,,,,,,,,,,,,,,,,,,
,,,,,WIN24_047,21,female,2024-02-09_12h00.51.785,jersey_experiment_5,2023.2.2,Win32,84.74576271,,,,,,22.8294,38.4299,return,15.5686,,,,,,,,,,,,,,,,,,,,,,,,,,,,,,,,,,,,,,,,,,,,,,,,,,,,,,,,,,,,,,,,,,,,,
,,,,,WIN24_047,21,female,2024-02-09_12h00.51.785,jersey_experiment_5,2023.2.2,Win32,84.74576271,,,,,,,,,,,38.43,60.7365,return,22.2954,,,,,,,,,,,,,,,,,,,,,,,,,,,,,,,,,,,,,,,,,,,,,,,,,,,,,,,,,,,,,,,,
,,,,,WIN24_047,21,female,2024-02-09_12h00.51.785,jersey_experiment_5,2023.2.2,Win32,84.74576271,,,,,,,,,,,,,,,,60.7444,62.0423,62.0424,78.5135,return,1.9763,,49.73958333,0,0,0,57,1,FBP-PT-19.png,0.4,1.2,58,0.5,,,,,,,,,,,,,,,,,,,,,,,,,,,,,,,,,,,,,,,,,,,,,
,,,,,WIN24_047,21,female,2024-02-09_12h00.51.785,jersey_experiment_5,2023.2.2,Win32,84.74576271,,,,,,,,,,,,,,,,78.5137,80.3134,80.3134,85.4899,return,2.0814,,68.09895833,0,1,1,16,1,FBP-RB-17.png,0.37,1.2,17,1,,,,,,,,,,,,,,,,,,,,,,,,,,,,,,,,,,,,,,,,,,,,,
,,,,,WIN24_047,21,female,2024-02-09_12h00.51.785,jersey_experiment_5,2023.2.2,Win32,84.74576271,,,,,,,,,,,,,,,,85.4903,86.7842,86.7843,92.4667,return,2.9185,,60.02604167,0,2,2,47,1,FBP-PT-17.png,0.4,1.2,48,0.5,,,,,,,,,,,,,,,,,,,,,,,,,,,,,,,,,,,,,,,,,,,,,
,,,,,WIN24_047,21,female,2024-02-09_12h00.51.785,jersey_experiment_5,2023.2.2,Win32,84.74576271,,,,,,,,,,,,,,,,92.4711,94.2668,94.2669,100.9494,return,3.5768,,80.859375,0,3,3,18,1,FBP-RB-17.png,0.43,1.2,19,1,,,,,,,,,,,,,,,,,,,,,,,,,,,,,,,,,,,,,,,,,,,,,
,,,,,WIN24_047,21,female,2024-02-09_12h00.51.785,jersey_experiment_5,2023.2.2,Win32,84.74576271,,,,,,,,,,,,,,,,100.9538,102.7494,102.7494,109.1849,return,2.7082,,79.6875,0,4,4,23,1,FBP-RB-18.png,0.43,1.2,24,1,,,,,,,,,,,,,,,,,,,,,,,,,,,,,,,,,,,,,,,,,,,,,
,,,,,WIN24_047,21,female,2024-02-09_12h00.51.785,jersey_experiment_5,2023.2.2,Win32,84.74576271,,,,,,,,,,,,,,,,109.1852,110.9851,110.9852,115.1029,return,1.2961,,85.546875,0,5,5,39,1,FBP-YG-81.png,0.45,1.2,40,1,,,,,,,,,,,,,,,,,,,,,,,,,,,,,,,,,,,,,,,,,,,,,
,,,,,WIN24_047,21,female,2024-02-09_12h00.51.785,jersey_experiment_5,2023.2.2,Win32,84.74576271,,,,,,,,,,,,,,,,115.1031,116.9029,116.9029,122.3972,return,3.1473,,68.359375,0,6,6,27,1,FBP-RB-19.png,0.4,1.2,28,1,,,,,,,,,,,,,,,,,,,,,,,,,,,,,,,,,,,,,,,,,,,,,
,,,,,WIN24_047,21,female,2024-02-09_12h00.51.785,jersey_experiment_5,2023.2.2,Win32,84.74576271,,,,,,,,,,,,,,,,122.4015,123.7032,123.7032,127.5034,return,0.8863,,58.59375,0,7,7,55,1,FBP-PT-19.png,0.35,1.2,56,0.5,,,,,,,,,,,,,,,,,,,,,,,,,,,,,,,,,,,,,,,,,,,,,
,,,,,WIN24_047,21,female,2024-02-09_12h00.51.785,jersey_experiment_5,2023.2.2,Win32,84.74576271,,,,,,,,,,,,,,,,127.5037,128.7975,128.7975,132.48,return,1.2599,,71.35416667,0,8,8,58,1,FBP-PT-19.png,0.43,1.2,59,0.5,,,,,,,,,,,,,,,,,,,,,,,,,,,,,,,,,,,,,,,,,,,,,
,,,,,WIN24_047,21,female,2024-02-09_12h00.51.785,jersey_experiment_5,2023.2.2,Win32,84.74576271,,,,,,,,,,,,,,,,132.4801,134.2801,134.2801,136.9155,return,0.7763,,63.02083333,0,9,9,32,1,FBP-YG-71.png,0.4,1.2,33,1,,,,,,,,,,,,,,,,,,,,,,,,,,,,,,,,,,,,,,,,,,,,,
,,,,,WIN24_047,21,female,2024-02-09_12h00.51.785,jersey_experiment_5,2023.2.2,Win32,84.74576271,,,,,,,,,,,,,,,,136.9157,138.7155,138.7155,141.4097,return,0.8146,,40.88541667,0,10,10,26,1,FBP-RB-19.png,0.37,1.2,27,1,,,,,,,,,,,,,,,,,,,,,,,,,,,,,,,,,,,,,,,,,,,,,
,,,,,WIN24_047,21,female,2024-02-09_12h00.51.785,jersey_experiment_5,2023.2.2,Win32,84.74576271,,,,,,,,,,,,,,,,141.41,142.704,142.704,146.6687,return,1.5217,,34.89583333,0,11,11,10,1,FBP-OG-91.png,0.35,1.2,11,0.5,,,,,,,,,,,,,,,,,,,,,,,,,,,,,,,,,,,,,,,,,,,,,
,,,,,WIN24_047,21,female,2024-02-09_12h00.51.785,jersey_experiment_5,2023.2.2,Win32,84.74576271,,,,,,,,,,,,,,,,146.669,147.9629,147.9629,152.6454,return,2.024,,64.97395833,0,12,12,53,1,FBP-PT-18.png,0.43,1.2,54,0.5,,,,,,,,,,,,,,,,,,,,,,,,,,,,,,,,,,,,,,,,,,,,,
,,,,,WIN24_047,21,female,2024-02-09_12h00.51.785,jersey_experiment_5,2023.2.2,Win32,84.74576271,,,,,,,,,,,,,,,,152.6456,153.9396,153.9396,159.5046,return,0.8614,,33.46354167,0,13,13,11,1,FBP-OG-91.png,0.37,1.2,12,0.5,,,,,,,,,,,,,,,,,,,,,,,,,,,,,,,,,,,,,,,,,,,,,
,,,,,WIN24_047,21,female,2024-02-09_12h00.51.785,jersey_experiment_5,2023.2.2,Win32,84.74576271,,,,,,,,,,,,,,,,159.5049,160.7987,160.7988,164.293,return,0.6917,,80.72916667,0,14,14,13,1,FBP-OG-91.png,0.43,1.2,14,0.5,,,,,,,,,,,,,,,,,,,,,,,,,,,,,,,,,,,,,,,,,,,,,
,,,,,WIN24_047,21,female,2024-02-09_12h00.51.785,jersey_experiment_5,2023.2.2,Win32,84.74576271,,,,,,,,,,,,,,,,164.2931,166.0931,166.0931,168.1637,return,0.7765,,66.14583333,0,15,15,22,1,FBP-RB-18.png,0.4,1.2,23,1,,,,,,,,,,,,,,,,,,,,,,,,,,,,,,,,,,,,,,,,,,,,,
,,,,,WIN24_047,21,female,2024-02-09_12h00.51.785,jersey_experiment_5,2023.2.2,Win32,84.74576271,,,,,,,,,,,,,,,,168.1639,169.9636,169.9636,173.4343,return,0.656,,74.47916667,0,16,16,33,1,FBP-YG-71.png,0.43,1.2,34,1,,,,,,,,,,,,,,,,,,,,,,,,,,,,,,,,,,,,,,,,,,,,,
,,,,,WIN24_047,21,female,2024-02-09_12h00.51.785,jersey_experiment_5,2023.2.2,Win32,84.74576271,,,,,,,,,,,,,,,,173.4346,175.2344,175.2344,177.6345,return,0.6358,,50,0,17,17,25,1,FBP-RB-19.png,0.35,1.2,26,1,,,,,,,,,,,,,,,,,,,,,,,,,,,,,,,,,,,,,,,,,,,,,
,,,,,WIN24_047,21,female,2024-02-09_12h00.51.785,jersey_experiment_5,2023.2.2,Win32,84.74576271,,,,,,,,,,,,,,,,177.6346,178.9287,178.9287,182.0347,return,1.0829,,74.86979167,0,18,18,4,1,FBP-OG-71.png,0.45,1.2,5,0.5,,,,,,,,,,,,,,,,,,,,,,,,,,,,,,,,,,,,,,,,,,,,,
,,,,,WIN24_047,21,female,2024-02-09_12h00.51.785,jersey_experiment_5,2023.2.2,Win32,84.74576271,,,,,,,,,,,,,,,,182.0348,183.3289,183.3289,186.4583,return,0.9032,,49.73958333,0,19,19,51,1,FBP-PT-18.png,0.37,1.2,52,0.5,,,,,,,,,,,,,,,,,,,,,,,,,,,,,,,,,,,,,,,,,,,,,
,,,,,WIN24_047,21,female,2024-02-09_12h00.51.785,jersey_experiment_5,2023.2.2,Win32,84.74576271,,,,,,,,,,,,,,,,186.4585,188.2585,188.2586,191.0117,return,1.2615,,40.49479167,0,20,20,31,1,FBP-YG-71.png,0.37,1.2,32,1,,,,,,,,,,,,,,,,,,,,,,,,,,,,,,,,,,,,,,,,,,,,,
,,,,,WIN24_047,21,female,2024-02-09_12h00.51.785,jersey_experiment_5,2023.2.2,Win32,84.74576271,,,,,,,,,,,,,,,,191.0121,192.8116,192.8116,195.5412,return,1.2712,,75,0,21,21,28,1,FBP-RB-19.png,0.43,1.2,29,1,,,,,,,,,,,,,,,,,,,,,,,,,,,,,,,,,,,,,,,,,,,,,
,,,,,WIN24_047,21,female,2024-02-09_12h00.51.785,jersey_experiment_5,2023.2.2,Win32,84.74576271,,,,,,,,,,,,,,,,195.5414,197.3413,197.3413,200.1178,return,0.9554,,32.03125,0,22,22,20,1,FBP-RB-18.png,0.35,1.2,21,1,,,,,,,,,,,,,,,,,,,,,,,,,,,,,,,,,,,,,,,,,,,,,
,,,,,WIN24_047,21,female,2024-02-09_12h00.51.785,jersey_experiment_5,2023.2.2,Win32,84.74576271,,,,,,,,,,,,,,,,200.1181,201.9178,201.9178,204.4355,return,0.6826,,56.25,0,23,23,17,1,FBP-RB-17.png,0.4,1.2,18,1,,,,,,,,,,,,,,,,,,,,,,,,,,,,,,,,,,,,,,,,,,,,,
,,,,,WIN24_047,21,female,2024-02-09_12h00.51.785,jersey_experiment_5,2023.2.2,Win32,84.74576271,,,,,,,,,,,,,,,,204.4357,205.7296,205.7297,208.6357,return,0.7487,,84.89583333,0,24,24,14,1,FBP-OG-91.png,0.45,1.2,15,0.5,,,,,,,,,,,,,,,,,,,,,,,,,,,,,,,,,,,,,,,,,,,,,
,,,,,WIN24_047,21,female,2024-02-09_12h00.51.785,jersey_experiment_5,2023.2.2,Win32,84.74576271,,,,,,,,,,,,,,,,208.6359,209.9299,209.9299,212.6123,return,1.0123,,80.859375,0,25,25,49,1,FBP-PT-17.png,0.45,1.2,50,0.5,,,,,,,,,,,,,,,,,,,,,,,,,,,,,,,,,,,,,,,,,,,,,
,,,,,WIN24_047,21,female,2024-02-09_12h00.51.785,jersey_experiment_5,2023.2.2,Win32,84.74576271,,,,,,,,,,,,,,,,212.6125,214.4124,214.4124,219.9068,return,3.483,,55.078125,0,26,26,43,1,FBP-YG-91.png,0.43,1.2,44,1,,,,,,,,,,,,,,,,,,,,,,,,,,,,,,,,,,,,,,,,,,,,,
,,,,,WIN24_047,21,female,2024-02-09_12h00.51.785,jersey_experiment_5,2023.2.2,Win32,84.74576271,,,,,,,,,,,,,,,,219.9069,221.2009,221.2009,223.4715,return,0.6627,,25.390625,0,27,27,50,1,FBP-PT-18.png,0.35,1.2,51,0.5,,,,,,,,,,,,,,,,,,,,,,,,,,,,,,,,,,,,,,,,,,,,,
,,,,,WIN24_047,21,female,2024-02-09_12h00.51.785,jersey_experiment_5,2023.2.2,Win32,84.74576271,,,,,,,,,,,,,,,,223.4717,224.7656,224.7656,227.907,return,1.0357,,50,0,28,28,54,1,FBP-PT-18.png,0.45,1.2,55,0.5,,,,,,,,,,,,,,,,,,,,,,,,,,,,,,,,,,,,,,,,,,,,,
,,,,,WIN24_047,21,female,2024-02-09_12h00.51.785,jersey_experiment_5,2023.2.2,Win32,84.74576271,,,,,,,,,,,,,,,,227.9073,229.707,229.707,232.0601,return,0.7602,,25.13020833,0,29,29,15,1,FBP-RB-17.png,0.35,1.2,16,1,,,,,,,,,,,,,,,,,,,,,,,,,,,,,,,,,,,,,,,,,,,,,
,,,,,WIN24_047,21,female,2024-02-09_12h00.51.785,jersey_experiment_5,2023.2.2,Win32,84.74576271,,,,,,,,,,,,,,,,232.0603,233.8602,233.8603,236.5542,return,0.7856,,75.52083333,0,30,30,44,1,FBP-YG-91.png,0.45,1.2,45,1,,,,,,,,,,,,,,,,,,,,,,,,,,,,,,,,,,,,,,,,,,,,,
,,,,,WIN24_047,21,female,2024-02-09_12h00.51.785,jersey_experiment_5,2023.2.2,Win32,84.74576271,,,,,,,,,,,,,,,,236.5544,237.8485,237.8485,242.5545,return,2.7711,,55.33854167,0,31,31,3,1,FBP-OG-71.png,0.43,1.2,4,0.5,,,,,,,,,,,,,,,,,,,,,,,,,,,,,,,,,,,,,,,,,,,,,
,,,,,WIN24_047,21,female,2024-02-09_12h00.51.785,jersey_experiment_5,2023.2.2,Win32,84.74576271,,,,,,,,,,,,,,,,242.559,244.3547,244.3547,246.6253,return,1.1409,,75.52083333,0,32,32,24,1,FBP-RB-18.png,0.45,1.2,25,1,,,,,,,,,,,,,,,,,,,,,,,,,,,,,,,,,,,,,,,,,,,,,
,,,,,WIN24_047,21,female,2024-02-09_12h00.51.785,jersey_experiment_5,2023.2.2,Win32,84.74576271,,,,,,,,,,,,,,,,246.6255,248.4254,248.4254,251.0725,return,0.9205,,29.94791667,0,33,33,21,1,FBP-RB-18.png,0.37,1.2,22,1,,,,,,,,,,,,,,,,,,,,,,,,,,,,,,,,,,,,,,,,,,,,,
,,,,,WIN24_047,21,female,2024-02-09_12h00.51.785,jersey_experiment_5,2023.2.2,Win32,84.74576271,,,,,,,,,,,,,,,,251.0726,252.3666,252.3667,255.0374,return,1.0625,,25.390625,0,34,34,56,1,FBP-PT-19.png,0.37,1.2,57,0.5,,,,,,,,,,,,,,,,,,,,,,,,,,,,,,,,,,,,,,,,,,,,,
,,,,,WIN24_047,21,female,2024-02-09_12h00.51.785,jersey_experiment_5,2023.2.2,Win32,84.74576271,,,,,,,,,,,,,,,,255.0376,256.8375,256.8375,259.0021,return,0.7149,,20.3125,0,35,35,35,1,FBP-YG-81.png,0.35,1.2,36,1,,,,,,,,,,,,,,,,,,,,,,,,,,,,,,,,,,,,,,,,,,,,,
,,,,,WIN24_047,21,female,2024-02-09_12h00.51.785,jersey_experiment_5,2023.2.2,Win32,84.74576271,,,,,,,,,,,,,,,,259.0024,260.8022,260.8023,263.1789,return,0.8289,,16.796875,0,36,36,40,1,FBP-YG-91.png,0.35,1.2,41,1,,,,,,,,,,,,,,,,,,,,,,,,,,,,,,,,,,,,,,,,,,,,,
,,,,,WIN24_047,21,female,2024-02-09_12h00.51.785,jersey_experiment_5,2023.2.2,Win32,84.74576271,,,,,,,,,,,,,,,,263.179,264.9789,264.9789,267.6496,return,1.1907,,61.58854167,0,37,37,34,1,FBP-YG-71.png,0.45,1.2,35,1,,,,,,,,,,,,,,,,,,,,,,,,,,,,,,,,,,,,,,,,,,,,,
,,,,,WIN24_047,21,female,2024-02-09_12h00.51.785,jersey_experiment_5,2023.2.2,Win32,84.74576271,,,,,,,,,,,,,,,,267.6498,268.9439,268.9439,271.5557,return,0.7672,,49.34895833,0,38,38,12,1,FBP-OG-91.png,0.4,1.2,13,0.5,,,,,,,,,,,,,,,,,,,,,,,,,,,,,,,,,,,,,,,,,,,,,
,,,,,WIN24_047,21,female,2024-02-09_12h00.51.785,jersey_experiment_5,2023.2.2,Win32,84.74576271,,,,,,,,,,,,,,,,271.5558,272.8498,272.8498,275.3794,return,0.6447,,75.65104167,0,39,39,9,1,FBP-OG-81.png,0.45,1.2,10,0.5,,,,,,,,,,,,,,,,,,,,,,,,,,,,,,,,,,,,,,,,,,,,,
,,,,,WIN24_047,21,female,2024-02-09_12h00.51.785,jersey_experiment_5,2023.2.2,Win32,84.74576271,,,,,,,,,,,,,,,,275.3796,277.1795,277.1795,279.3089,return,0.698,,28.64583333,0,40,40,36,1,FBP-YG-81.png,0.37,1.2,37,1,,,,,,,,,,,,,,,,,,,,,,,,,,,,,,,,,,,,,,,,,,,,,
,,,,,WIN24_047,21,female,2024-02-09_12h00.51.785,jersey_experiment_5,2023.2.2,Win32,84.74576271,,,,,,,,,,,,,,,,279.309,280.603,280.603,283.0855,return,0.6151,,23.95833333,0,41,41,6,1,FBP-OG-81.png,0.37,1.2,7,0.5,,,,,,,,,,,,,,,,,,,,,,,,,,,,,,,,,,,,,,,,,,,,,
,,,,,WIN24_047,21,female,2024-02-09_12h00.51.785,jersey_experiment_5,2023.2.2,Win32,84.74576271,,,,,,,,,,,,,,,,283.0858,284.8854,284.8855,288.5328,return,0.8003,,39.453125,0,42,42,37,1,FBP-YG-81.png,0.4,1.2,38,1,,,,,,,,,,,,,,,,,,,,,,,,,,,,,,,,,,,,,,,,,,,,,
,,,,,WIN24_047,21,female,2024-02-09_12h00.51.785,jersey_experiment_5,2023.2.2,Win32,84.74576271,,,,,,,,,,,,,,,,288.5329,289.8269,289.8269,293.2623,return,1.5435,,64.453125,0,43,43,59,1,FBP-PT-19.png,0.45,1.2,60,0.5,,,,,,,,,,,,,,,,,,,,,,,,,,,,,,,,,,,,,,,,,,,,,
,,,,,WIN24_047,21,female,2024-02-09_12h00.51.785,jersey_experiment_5,2023.2.2,Win32,84.74576271,,,,,,,,,,,,,,,,293.2626,294.5565,294.5565,297.2272,return,1.0882,,50,0,44,44,52,1,FBP-PT-18.png,0.4,1.2,53,0.5,,,,,,,,,,,,,,,,,,,,,,,,,,,,,,,,,,,,,,,,,,,,,
,,,,,WIN24_047,21,female,2024-02-09_12h00.51.785,jersey_experiment_5,2023.2.2,Win32,84.74576271,,,,,,,,,,,,,,,,297.2274,299.0272,299.0272,302.4156,return,1.8627,,62.76041667,0,45,45,29,1,FBP-RB-19.png,0.45,1.2,30,1,,,,,,,,,,,,,,,,,,,,,,,,,,,,,,,,,,,,,,,,,,,,,
,,,,,WIN24_047,21,female,2024-02-09_12h00.51.785,jersey_experiment_5,2023.2.2,Win32,84.74576271,,,,,,,,,,,,,,,,302.4158,304.2157,304.2157,313.4512,return,7.7823,,56.11979167,0,46,46,38,1,FBP-YG-81.png,0.43,1.2,39,1,,,,,,,,,,,,,,,,,,,,,,,,,,,,,,,,,,,,,,,,,,,,,
,,,,,WIN24_047,21,female,2024-02-09_12h00.51.785,jersey_experiment_5,2023.2.2,Win32,84.74576271,,,,,,,,,,,,,,,,313.4559,314.7573,314.7573,317.3927,return,0.6732,,53.25520833,0,47,47,8,1,FBP-OG-81.png,0.43,1.2,9,0.5,,,,,,,,,,,,,,,,,,,,,,,,,,,,,,,,,,,,,,,,,,,,,
,,,,,WIN24_047,21,female,2024-02-09_12h00.51.785,jersey_experiment_5,2023.2.2,Win32,84.74576271,,,,,,,,,,,,,,,,317.3929,319.1926,319.1926,321.6163,return,0.8498,,43.09895833,0,48,48,42,1,FBP-YG-91.png,0.4,1.2,43,1,,,,,,,,,,,,,,,,,,,,,,,,,,,,,,,,,,,,,,,,,,,,,
,,,,,WIN24_047,21,female,2024-02-09_12h00.51.785,jersey_experiment_5,2023.2.2,Win32,84.74576271,,,,,,,,,,,,,,,,321.6165,322.9104,322.9104,325.8518,return,0.7929,,50.13020833,0,49,49,48,1,FBP-PT-17.png,0.43,1.2,49,0.5,,,,,,,,,,,,,,,,,,,,,,,,,,,,,,,,,,,,,,,,,,,,,
,,,,,WIN24_047,21,female,2024-02-09_12h00.51.785,jersey_experiment_5,2023.2.2,Win32,84.74576271,,,,,,,,,,,,,,,,325.8519,327.6519,327.6519,330.0519,return,0.7061,,63.28125,0,50,50,19,1,FBP-RB-17.png,0.45,1.2,20,1,,,,,,,,,,,,,,,,,,,,,,,,,,,,,,,,,,,,,,,,,,,,,
,,,,,WIN24_047,21,female,2024-02-09_12h00.51.785,jersey_experiment_5,2023.2.2,Win32,84.74576271,,,,,,,,,,,,,,,,330.0522,331.3461,331.3461,334.1226,return,0.618,,44.66145833,0,51,51,2,1,FBP-OG-71.png,0.4,1.2,3,0.5,,,,,,,,,,,,,,,,,,,,,,,,,,,,,,,,,,,,,,,,,,,,,
,,,,,WIN24_047,21,female,2024-02-09_12h00.51.785,jersey_experiment_5,2023.2.2,Win32,84.74576271,,,,,,,,,,,,,,,,334.1228,335.4168,335.4169,338.4522,return,1.483,,49.609375,0,52,52,7,1,FBP-OG-81.png,0.4,1.2,8,0.5,,,,,,,,,,,,,,,,,,,,,,,,,,,,,,,,,,,,,,,,,,,,,
,,,,,WIN24_047,21,female,2024-02-09_12h00.51.785,jersey_experiment_5,2023.2.2,Win32,84.74576271,,,,,,,,,,,,,,,,338.4525,340.2523,340.2523,342.4759,return,0.7484,,33.33333333,0,53,53,41,1,FBP-YG-91.png,0.37,1.2,42,1,,,,,,,,,,,,,,,,,,,,,,,,,,,,,,,,,,,,,,,,,,,,,
,,,,,WIN24_047,21,female,2024-02-09_12h00.51.785,jersey_experiment_5,2023.2.2,Win32,84.74576271,,,,,,,,,,,,,,,,342.4761,343.7701,343.7701,346.17,return,0.7031,,18.09895833,0,54,54,0,1,FBP-OG-71.png,0.35,1.2,1,0.5,,,,,,,,,,,,,,,,,,,,,,,,,,,,,,,,,,,,,,,,,,,,,
,,,,,WIN24_047,21,female,2024-02-09_12h00.51.785,jersey_experiment_5,2023.2.2,Win32,84.74576271,,,,,,,,,,,,,,,,346.1702,347.4643,347.4644,349.429,return,0.6457,,14.71354167,0,55,55,46,1,FBP-PT-17.png,0.37,1.2,47,0.5,,,,,,,,,,,,,,,,,,,,,,,,,,,,,,,,,,,,,,,,,,,,,
,,,,,WIN24_047,21,female,2024-02-09_12h00.51.785,jersey_experiment_5,2023.2.2,Win32,84.74576271,,,,,,,,,,,,,,,,349.4292,350.7231,350.7232,352.735,return,0.6748,,11.97916667,0,56,56,5,1,FBP-OG-81.png,0.35,1.2,6,0.5,,,,,,,,,,,,,,,,,,,,,,,,,,,,,,,,,,,,,,,,,,,,,
,,,,,WIN24_047,21,female,2024-02-09_12h00.51.785,jersey_experiment_5,2023.2.2,Win32,84.74576271,,,,,,,,,,,,,,,,352.7353,354.0294,354.0294,356.6411,return,1.2378,,11.97916667,0,57,57,1,1,FBP-OG-71.png,0.37,1.2,2,0.5,,,,,,,,,,,,,,,,,,,,,,,,,,,,,,,,,,,,,,,,,,,,,
,,,,,WIN24_047,21,female,2024-02-09_12h00.51.785,jersey_experiment_5,2023.2.2,Win32,84.74576271,,,,,,,,,,,,,,,,356.6413,357.9352,357.9353,360.6529,return,0.7452,,7.03125,0,58,58,45,1,FBP-PT-17.png,0.35,1.2,46,0.5,,,,,,,,,,,,,,,,,,,,,,,,,,,,,,,,,,,,,,,,,,,,,
,,,,,WIN24_047,21,female,2024-02-09_12h00.51.785,jersey_experiment_5,2023.2.2,Win32,84.74576271,,,,,,,,,,,,,,,,360.6531,362.4531,362.4531,365.1237,return,1.0351,,13.41145833,0,59,59,30,1,FBP-YG-71.png,0.35,1.2,31,1,,,,,,,,,,,,,,,,,,,,,,,,,,,,,,,,,,,,,,,,,,,,,
,,,,,WIN24_047,21,female,2024-02-09_12h00.51.785,jersey_experiment_5,2023.2.2,Win32,84.74576271,,,,,,,,,,,,,,,,365.126,366.9239,366.9239,369.2769,return,0.771,,49.86979167,,,,,,FBP-RB-71.png,0.4,1.2,18,1,0,0,0,17,1,,,,,,,,,,,,,,,,,,,,,,,,,,,,,,,,,,,,,,,,
,,,,,WIN24_047,21,female,2024-02-09_12h00.51.785,jersey_experiment_5,2023.2.2,Win32,84.74576271,,,,,,,,,,,,,,,,369.2774,370.5711,370.5711,372.9593,return,0.6485,,26.171875,,,,,,FBP-PT-91.png,0.37,1.2,57,0.5,0,1,1,56,1,,,,,,,,,,,,,,,,,,,,,,,,,,,,,,,,,,,,,,,,
,,,,,WIN24_047,21,female,2024-02-09_12h00.51.785,jersey_experiment_5,2023.2.2,Win32,84.74576271,,,,,,,,,,,,,,,,372.9595,374.7594,374.7594,376.6889,return,0.6967,,38.28125,,,,,,FBP-YG-18.png,0.37,1.2,37,1,0,2,2,36,1,,,,,,,,,,,,,,,,,,,,,,,,,,,,,,,,,,,,,,,,
,,,,,WIN24_047,21,female,2024-02-09_12h00.51.785,jersey_experiment_5,2023.2.2,Win32,84.74576271,,,,,,,,,,,,,,,,376.6891,378.4889,378.4889,380.8302,return,1.0145,,27.60416667,,,,,,FBP-YG-19.png,0.35,1.2,41,1,0,3,3,40,1,,,,,,,,,,,,,,,,,,,,,,,,,,,,,,,,,,,,,,,,
,,,,,WIN24_047,21,female,2024-02-09_12h00.51.785,jersey_experiment_5,2023.2.2,Win32,84.74576271,,,,,,,,,,,,,,,,380.8304,382.6302,382.6302,385.301,return,0.8005,,49.73958333,,,,,,FBP-YG-17.png,0.4,1.2,33,1,0,4,4,32,1,,,,,,,,,,,,,,,,,,,,,,,,,,,,,,,,,,,,,,,,
,,,,,WIN24_047,21,female,2024-02-09_12h00.51.785,jersey_experiment_5,2023.2.2,Win32,84.74576271,,,,,,,,,,,,,,,,385.3011,386.5951,386.5952,389.9365,return,1.0261,,38.15104167,,,,,,FBP-PT-71.png,0.4,1.2,48,0.5,0,5,5,47,1,,,,,,,,,,,,,,,,,,,,,,,,,,,,,,,,,,,,,,,,
,,,,,WIN24_047,21,female,2024-02-09_12h00.51.785,jersey_experiment_5,2023.2.2,Win32,84.74576271,,,,,,,,,,,,,,,,389.9367,391.7366,391.7366,395.4542,return,2.2966,,25.78125,,,,,,FBP-RB-91.png,0.37,1.2,27,1,0,6,6,26,1,,,,,,,,,,,,,,,,,,,,,,,,,,,,,,,,,,,,,,,,
,,,,,WIN24_047,21,female,2024-02-09_12h00.51.785,jersey_experiment_5,2023.2.2,Win32,84.74576271,,,,,,,,,,,,,,,,395.4544,397.2543,397.2544,399.3955,return,0.8241,,60.28645833,,,,,,FBP-YG-18.png,0.43,1.2,39,1,0,7,7,38,1,,,,,,,,,,,,,,,,,,,,,,,,,,,,,,,,,,,,,,,,
,,,,,WIN24_047,21,female,2024-02-09_12h00.51.785,jersey_experiment_5,2023.2.2,Win32,84.74576271,,,,,,,,,,,,,,,,399.3958,401.1955,401.1955,403.4428,return,0.659,,23.69791667,,,,,,FBP-YG-17.png,0.35,1.2,31,1,0,8,8,30,1,,,,,,,,,,,,,,,,,,,,,,,,,,,,,,,,,,,,,,,,
,,,,,WIN24_047,21,female,2024-02-09_12h00.51.785,jersey_experiment_5,2023.2.2,Win32,84.74576271,,,,,,,,,,,,,,,,403.4431,405.2427,405.2427,407.3958,return,0.7911,,56.25,,,,,,FBP-RB-91.png,0.43,1.2,29,1,0,9,9,28,1,,,,,,,,,,,,,,,,,,,,,,,,,,,,,,,,,,,,,,,,
,,,,,WIN24_047,21,female,2024-02-09_12h00.51.785,jersey_experiment_5,2023.2.2,Win32,84.74576271,,,,,,,,,,,,,,,,407.3961,408.6901,408.6901,410.9254,return,0.5912,,65.49479167,,,,,,FBP-PT-91.png,0.43,1.2,59,0.5,0,10,10,58,1,,,,,,,,,,,,,,,,,,,,,,,,,,,,,,,,,,,,,,,,
,,,,,WIN24_047,21,female,2024-02-09_12h00.51.785,jersey_experiment_5,2023.2.2,Win32,84.74576271,,,,,,,,,,,,,,,,410.9257,412.2196,412.2196,414.8432,return,0.9018,,28.515625,,,,,,FBP-PT-81.png,0.35,1.2,51,0.5,0,11,11,50,1,,,,,,,,,,,,,,,,,,,,,,,,,,,,,,,,,,,,,,,,
,,,,,WIN24_047,21,female,2024-02-09_12h00.51.785,jersey_experiment_5,2023.2.2,Win32,84.74576271,,,,,,,,,,,,,,,,414.8434,416.1374,416.1375,418.4433,return,0.5723,,24.609375,,,,,,FBP-PT-81.png,0.37,1.2,52,0.5,0,12,12,51,1,,,,,,,,,,,,,,,,,,,,,,,,,,,,,,,,,,,,,,,,
,,,,,WIN24_047,21,female,2024-02-09_12h00.51.785,jersey_experiment_5,2023.2.2,Win32,84.74576271,,,,,,,,,,,,,,,,418.4435,419.7375,419.7375,423.0083,return,0.6005,,64.84375,,,,,,FBP-OG-19.png,0.43,1.2,14,0.5,0,13,13,13,1,,,,,,,,,,,,,,,,,,,,,,,,,,,,,,,,,,,,,,,,
,,,,,WIN24_047,21,female,2024-02-09_12h00.51.785,jersey_experiment_5,2023.2.2,Win32,84.74576271,,,,,,,,,,,,,,,,423.0084,424.8082,424.8083,427.1025,return,0.6165,,57.03125,,,,,,FBP-RB-81.png,0.4,1.2,23,1,0,14,14,22,1,,,,,,,,,,,,,,,,,,,,,,,,,,,,,,,,,,,,,,,,
,,,,,WIN24_047,21,female,2024-02-09_12h00.51.785,jersey_experiment_5,2023.2.2,Win32,84.74576271,,,,,,,,,,,,,,,,427.1027,428.9026,428.9026,431.0202,return,0.5933,,74.609375,,,,,,FBP-RB-81.png,0.43,1.2,24,1,0,15,15,23,1,,,,,,,,,,,,,,,,,,,,,,,,,,,,,,,,,,,,,,,,
,,,,,WIN24_047,21,female,2024-02-09_12h00.51.785,jersey_experiment_5,2023.2.2,Win32,84.74576271,,,,,,,,,,,,,,,,431.0205,432.3145,432.3145,434.5969,return,0.5556,,24.609375,,,,,,FBP-OG-17.png,0.35,1.2,1,0.5,0,16,16,0,1,,,,,,,,,,,,,,,,,,,,,,,,,,,,,,,,,,,,,,,,
,,,,,WIN24_047,21,female,2024-02-09_12h00.51.785,jersey_experiment_5,2023.2.2,Win32,84.74576271,,,,,,,,,,,,,,,,434.5972,436.3969,436.3969,438.3853,return,0.6497,,49.47916667,,,,,,FBP-RB-91.png,0.4,1.2,28,1,0,17,17,27,1,,,,,,,,,,,,,,,,,,,,,,,,,,,,,,,,,,,,,,,,
,,,,,WIN24_047,21,female,2024-02-09_12h00.51.785,jersey_experiment_5,2023.2.2,Win32,84.74576271,,,,,,,,,,,,,,,,438.3856,440.1853,440.1853,442.2442,return,0.6259,,74.73958333,,,,,,FBP-RB-81.png,0.45,1.2,25,1,0,18,18,24,1,,,,,,,,,,,,,,,,,,,,,,,,,,,,,,,,,,,,,,,,
,,,,,WIN24_047,21,female,2024-02-09_12h00.51.785,jersey_experiment_5,2023.2.2,Win32,84.74576271,,,,,,,,,,,,,,,,442.2445,443.5384,443.5384,445.6796,return,0.7071,,32.29166667,,,,,,FBP-OG-18.png,0.37,1.2,7,0.5,0,19,19,6,1,,,,,,,,,,,,,,,,,,,,,,,,,,,,,,,,,,,,,,,,
,,,,,WIN24_047,21,female,2024-02-09_12h00.51.785,jersey_experiment_5,2023.2.2,Win32,84.74576271,,,,,,,,,,,,,,,,445.6799,446.9737,446.9737,449.421,return,0.6391,,64.32291667,,,,,,FBP-PT-71.png,0.45,1.2,50,0.5,0,20,20,49,1,,,,,,,,,,,,,,,,,,,,,,,,,,,,,,,,,,,,,,,,
,,,,,WIN24_047,21,female,2024-02-09_12h00.51.785,jersey_experiment_5,2023.2.2,Win32,84.74576271,,,,,,,,,,,,,,,,449.4212,451.221,451.221,453.2799,return,0.7301,,75.78125,,,,,,FBP-RB-91.png,0.45,1.2,30,1,0,21,21,29,1,,,,,,,,,,,,,,,,,,,,,,,,,,,,,,,,,,,,,,,,
,,,,,WIN24_047,21,female,2024-02-09_12h00.51.785,jersey_experiment_5,2023.2.2,Win32,84.74576271,,,,,,,,,,,,,,,,453.2802,455.0799,455.0799,457.1035,return,0.6718,,48.69791667,,,,,,FBP-YG-18.png,0.4,1.2,38,1,0,22,22,37,1,,,,,,,,,,,,,,,,,,,,,,,,,,,,,,,,,,,,,,,,
,,,,,WIN24_047,21,female,2024-02-09_12h00.51.785,jersey_experiment_5,2023.2.2,Win32,84.74576271,,,,,,,,,,,,,,,,457.1037,458.9036,458.9036,461.1155,return,0.6412,,62.5,,,,,,FBP-YG-17.png,0.43,1.2,34,1,0,23,23,33,1,,,,,,,,,,,,,,,,,,,,,,,,,,,,,,,,,,,,,,,,
,,,,,WIN24_047,21,female,2024-02-09_12h00.51.785,jersey_experiment_5,2023.2.2,Win32,84.74576271,,,,,,,,,,,,,,,,461.1156,462.9155,462.9156,469.0569,return,4.8354,,29.6875,,,,,,FBP-YG-19.png,0.37,1.2,42,1,0,24,24,41,1,,,,,,,,,,,,,,,,,,,,,,,,,,,,,,,,,,,,,,,,
,,,,,WIN24_047,21,female,2024-02-09_12h00.51.785,jersey_experiment_5,2023.2.2,Win32,84.74576271,,,,,,,,,,,,,,,,469.0611,470.3629,470.3629,473.4453,return,1.7795,,66.796875,,,,,,FBP-OG-19.png,0.45,1.2,15,0.5,0,25,25,14,1,,,,,,,,,,,,,,,,,,,,,,,,,,,,,,,,,,,,,,,,
,,,,,WIN24_047,21,female,2024-02-09_12h00.51.785,jersey_experiment_5,2023.2.2,Win32,84.74576271,,,,,,,,,,,,,,,,473.4455,474.7395,474.7396,478.5397,return,1.2637,,41.53645833,,,,,,FBP-PT-91.png,0.4,1.2,58,0.5,0,26,26,57,1,,,,,,,,,,,,,,,,,,,,,,,,,,,,,,,,,,,,,,,,
,,,,,WIN24_047,21,female,2024-02-09_12h00.51.785,jersey_experiment_5,2023.2.2,Win32,84.74576271,,,,,,,,,,,,,,,,478.5398,480.3399,480.34,481.9398,return,0.6593,,24.73958333,,,,,,FBP-YG-18.png,0.35,1.2,36,1,0,27,27,35,1,,,,,,,,,,,,,,,,,,,,,,,,,,,,,,,,,,,,,,,,
,,,,,WIN24_047,21,female,2024-02-09_12h00.51.785,jersey_experiment_5,2023.2.2,Win32,84.74576271,,,,,,,,,,,,,,,,481.94,483.7397,483.7397,486.1164,return,0.7389,,66.66666667,,,,,,FBP-RB-71.png,0.45,1.2,20,1,0,28,28,19,1,,,,,,,,,,,,,,,,,,,,,,,,,,,,,,,,,,,,,,,,
,,,,,WIN24_047,21,female,2024-02-09_12h00.51.785,jersey_experiment_5,2023.2.2,Win32,84.74576271,,,,,,,,,,,,,,,,486.1165,487.4105,487.4105,489.8341,return,0.6442,,14.84375,,,,,,FBP-PT-71.png,0.35,1.2,46,0.5,0,29,29,45,1,,,,,,,,,,,,,,,,,,,,,,,,,,,,,,,,,,,,,,,,
,,,,,WIN24_047,21,female,2024-02-09_12h00.51.785,jersey_experiment_5,2023.2.2,Win32,84.74576271,,,,,,,,,,,,,,,,489.8342,491.1283,491.1283,493.293,return,0.5095,,67.1875,,,,,,FBP-PT-81.png,0.45,1.2,55,0.5,0,30,30,54,1,,,,,,,,,,,,,,,,,,,,,,,,,,,,,,,,,,,,,,,,
,,,,,WIN24_047,21,female,2024-02-09_12h00.51.785,jersey_experiment_5,2023.2.2,Win32,84.74576271,,,,,,,,,,,,,,,,493.2933,494.5873,494.5873,497.3638,return,0.541,,72.265625,,,,,,FBP-PT-71.png,0.43,1.2,49,0.5,0,31,31,48,1,,,,,,,,,,,,,,,,,,,,,,,,,,,,,,,,,,,,,,,,
,,,,,WIN24_047,21,female,2024-02-09_12h00.51.785,jersey_experiment_5,2023.2.2,Win32,84.74576271,,,,,,,,,,,,,,,,497.364,498.658,498.658,500.7521,return,0.4829,,74.609375,,,,,,FBP-OG-17.png,0.43,1.2,4,0.5,0,32,32,3,1,,,,,,,,,,,,,,,,,,,,,,,,,,,,,,,,,,,,,,,,
,,,,,WIN24_047,21,female,2024-02-09_12h00.51.785,jersey_experiment_5,2023.2.2,Win32,84.74576271,,,,,,,,,,,,,,,,500.7524,502.0463,502.0463,504.7523,return,0.9063,,43.75,,,,,,FBP-OG-18.png,0.4,1.2,8,0.5,0,33,33,7,1,,,,,,,,,,,,,,,,,,,,,,,,,,,,,,,,,,,,,,,,
,,,,,WIN24_047,21,female,2024-02-09_12h00.51.785,jersey_experiment_5,2023.2.2,Win32,84.74576271,,,,,,,,,,,,,,,,504.7526,506.0464,506.0464,509.8232,return,2.1571,,40.10416667,,,,,,FBP-OG-19.png,0.4,1.2,13,0.5,0,34,34,12,1,,,,,,,,,,,,,,,,,,,,,,,,,,,,,,,,,,,,,,,,
,,,,,WIN24_047,21,female,2024-02-09_12h00.51.785,jersey_experiment_5,2023.2.2,Win32,84.74576271,,,,,,,,,,,,,,,,509.8235,511.6231,511.6231,514.2116,return,0.5648,,49.86979167,,,,,,FBP-YG-19.png,0.43,1.2,44,1,0,35,35,43,1,,,,,,,,,,,,,,,,,,,,,,,,,,,,,,,,,,,,,,,,
,,,,,WIN24_047,21,female,2024-02-09_12h00.51.785,jersey_experiment_5,2023.2.2,Win32,84.74576271,,,,,,,,,,,,,,,,514.2117,515.5057,515.5057,517.1998,return,0.756,,47.65625,,,,,,FBP-OG-17.png,0.4,1.2,3,0.5,0,36,36,2,1,,,,,,,,,,,,,,,,,,,,,,,,,,,,,,,,,,,,,,,,
,,,,,WIN24_047,21,female,2024-02-09_12h00.51.785,jersey_experiment_5,2023.2.2,Win32,84.74576271,,,,,,,,,,,,,,,,517.2001,518.4941,518.4941,520.7883,return,0.744,,33.203125,,,,,,FBP-OG-17.png,0.37,1.2,2,0.5,0,37,37,1,1,,,,,,,,,,,,,,,,,,,,,,,,,,,,,,,,,,,,,,,,
,,,,,WIN24_047,21,female,2024-02-09_12h00.51.785,jersey_experiment_5,2023.2.2,Win32,84.74576271,,,,,,,,,,,,,,,,520.7884,522.0825,522.0825,524.4825,return,0.6824,,12.5,,,,,,FBP-PT-91.png,0.35,1.2,56,0.5,0,38,38,55,1,,,,,,,,,,,,,,,,,,,,,,,,,,,,,,,,,,,,,,,,
,,,,,WIN24_047,21,female,2024-02-09_12h00.51.785,jersey_experiment_5,2023.2.2,Win32,84.74576271,,,,,,,,,,,,,,,,524.4827,526.2825,526.2825,528.8592,return,0.5703,,23.828125,,,,,,FBP-RB-71.png,0.37,1.2,17,1,0,39,39,16,1,,,,,,,,,,,,,,,,,,,,,,,,,,,,,,,,,,,,,,,,
,,,,,WIN24_047,21,female,2024-02-09_12h00.51.785,jersey_experiment_5,2023.2.2,Win32,84.74576271,,,,,,,,,,,,,,,,528.8594,530.1533,530.1533,532.9299,return,0.7206,,67.05729167,,,,,,FBP-OG-17.png,0.45,1.2,5,0.5,0,40,40,4,1,,,,,,,,,,,,,,,,,,,,,,,,,,,,,,,,,,,,,,,,
,,,,,WIN24_047,21,female,2024-02-09_12h00.51.785,jersey_experiment_5,2023.2.2,Win32,84.74576271,,,,,,,,,,,,,,,,532.9301,534.7298,534.7298,537.3065,return,1.2201,,75.65104167,,,,,,FBP-YG-17.png,0.45,1.2,35,1,0,41,41,34,1,,,,,,,,,,,,,,,,,,,,,,,,,,,,,,,,,,,,,,,,
,,,,,WIN24_047,21,female,2024-02-09_12h00.51.785,jersey_experiment_5,2023.2.2,Win32,84.74576271,,,,,,,,,,,,,,,,537.3067,539.1065,539.1065,541.9301,return,1.6887,,24.47916667,,,,,,FBP-RB-81.png,0.35,1.2,21,1,0,42,42,20,1,,,,,,,,,,,,,,,,,,,,,,,,,,,,,,,,,,,,,,,,
,,,,,WIN24_047,21,female,2024-02-09_12h00.51.785,jersey_experiment_5,2023.2.2,Win32,84.74576271,,,,,,,,,,,,,,,,541.9303,543.7304,543.7304,545.8362,return,0.5571,,13.15104167,,,,,,FBP-RB-91.png,0.35,1.2,26,1,0,43,43,25,1,,,,,,,,,,,,,,,,,,,,,,,,,,,,,,,,,,,,,,,,
,,,,,WIN24_047,21,female,2024-02-09_12h00.51.785,jersey_experiment_5,2023.2.2,Win32,84.74576271,,,,,,,,,,,,,,,,545.8363,547.6363,547.6363,549.6835,return,0.579,,41.14583333,,,,,,FBP-RB-81.png,0.37,1.2,22,1,0,44,44,21,1,,,,,,,,,,,,,,,,,,,,,,,,,,,,,,,,,,,,,,,,
,,,,,WIN24_047,21,female,2024-02-09_12h00.51.785,jersey_experiment_5,2023.2.2,Win32,84.74576271,,,,,,,,,,,,,,,,549.6836,550.9776,550.9776,555.3541,return,1.7014,,74.47916667,,,,,,FBP-PT-81.png,0.43,1.2,54,0.5,0,45,45,53,1,,,,,,,,,,,,,,,,,,,,,,,,,,,,,,,,,,,,,,,,
,,,,,WIN24_047,21,female,2024-02-09_12h00.51.785,jersey_experiment_5,2023.2.2,Win32,84.74576271,,,,,,,,,,,,,,,,555.3543,557.1542,557.1542,560.0955,return,0.6385,,67.70833333,,,,,,FBP-YG-18.png,0.45,1.2,40,1,0,46,46,39,1,,,,,,,,,,,,,,,,,,,,,,,,,,,,,,,,,,,,,,,,
,,,,,WIN24_047,21,female,2024-02-09_12h00.51.785,jersey_experiment_5,2023.2.2,Win32,84.74576271,,,,,,,,,,,,,,,,560.0957,561.8956,561.8957,564.2133,return,0.5971,,47.39583333,,,,,,FBP-YG-19.png,0.4,1.2,43,1,0,47,47,42,1,,,,,,,,,,,,,,,,,,,,,,,,,,,,,,,,,,,,,,,,
,,,,,WIN24_047,21,female,2024-02-09_12h00.51.785,jersey_experiment_5,2023.2.2,Win32,84.74576271,,,,,,,,,,,,,,,,564.2136,565.5075,565.5075,567.884,return,0.6752,,75.26041667,,,,,,FBP-PT-91.png,0.45,1.2,60,0.5,0,48,48,59,1,,,,,,,,,,,,,,,,,,,,,,,,,,,,,,,,,,,,,,,,
,,,,,WIN24_047,21,female,2024-02-09_12h00.51.785,jersey_experiment_5,2023.2.2,Win32,84.74576271,,,,,,,,,,,,,,,,567.8842,569.1782,569.1783,571.1312,return,0.6431,,45.57291667,,,,,,FBP-PT-81.png,0.4,1.2,53,0.5,0,49,49,52,1,,,,,,,,,,,,,,,,,,,,,,,,,,,,,,,,,,,,,,,,
,,,,,WIN24_047,21,female,2024-02-09_12h00.51.785,jersey_experiment_5,2023.2.2,Win32,84.74576271,,,,,,,,,,,,,,,,571.1314,572.9313,572.9313,574.7667,return,0.5902,,38.54166667,,,,,,FBP-YG-17.png,0.37,1.2,32,1,0,50,50,31,1,,,,,,,,,,,,,,,,,,,,,,,,,,,,,,,,,,,,,,,,
,,,,,WIN24_047,21,female,2024-02-09_12h00.51.785,jersey_experiment_5,2023.2.2,Win32,84.74576271,,,,,,,,,,,,,,,,574.767,576.0608,576.0609,578.602,return,0.7126,,74.21875,,,,,,FBP-OG-18.png,0.45,1.2,10,0.5,0,51,51,9,1,,,,,,,,,,,,,,,,,,,,,,,,,,,,,,,,,,,,,,,,
,,,,,WIN24_047,21,female,2024-02-09_12h00.51.785,jersey_experiment_5,2023.2.2,Win32,84.74576271,,,,,,,,,,,,,,,,578.6023,579.8962,579.8962,582.6611,return,0.7626,,29.94791667,,,,,,FBP-PT-71.png,0.37,1.2,47,0.5,0,52,52,46,1,,,,,,,,,,,,,,,,,,,,,,,,,,,,,,,,,,,,,,,,
,,,,,WIN24_047,21,female,2024-02-09_12h00.51.785,jersey_experiment_5,2023.2.2,Win32,84.74576271,,,,,,,,,,,,,,,,582.6613,584.4613,584.4613,601.8735,return,15.9207,,75,,,,,,FBP-YG-19.png,0.45,1.2,45,1,0,53,53,44,1,,,,,,,,,,,,,,,,,,,,,,,,,,,,,,,,,,,,,,,,
,,,,,WIN24_047,21,female,2024-02-09_12h00.51.785,jersey_experiment_5,2023.2.2,Win32,84.74576271,,,,,,,,,,,,,,,,601.878,603.6735,603.6736,605.9795,return,0.6427,,25.26041667,,,,,,FBP-RB-71.png,0.35,1.2,16,1,0,54,54,15,1,,,,,,,,,,,,,,,,,,,,,,,,,,,,,,,,,,,,,,,,
,,,,,WIN24_047,21,female,2024-02-09_12h00.51.785,jersey_experiment_5,2023.2.2,Win32,84.74576271,,,,,,,,,,,,,,,,605.9796,607.2737,607.2737,610.0267,return,0.605,,49.21875,,,,,,FBP-OG-18.png,0.43,1.2,9,0.5,0,55,55,8,1,,,,,,,,,,,,,,,,,,,,,,,,,,,,,,,,,,,,,,,,
,,,,,WIN24_047,21,female,2024-02-09_12h00.51.785,jersey_experiment_5,2023.2.2,Win32,84.74576271,,,,,,,,,,,,,,,,610.0269,611.321,611.321,613.7917,return,0.6009,,24.86979167,,,,,,FBP-OG-18.png,0.35,1.2,6,0.5,0,56,56,5,1,,,,,,,,,,,,,,,,,,,,,,,,,,,,,,,,,,,,,,,,
,,,,,WIN24_047,21,female,2024-02-09_12h00.51.785,jersey_experiment_5,2023.2.2,Win32,84.74576271,,,,,,,,,,,,,,,,613.7918,615.5917,615.5917,617.6506,return,0.7157,,57.421875,,,,,,FBP-RB-71.png,0.43,1.2,19,1,0,57,57,18,1,,,,,,,,,,,,,,,,,,,,,,,,,,,,,,,,,,,,,,,,
,,,,,WIN24_047,21,female,2024-02-09_12h00.51.785,jersey_experiment_5,2023.2.2,Win32,84.74576271,,,,,,,,,,,,,,,,617.6507,618.9447,618.9447,621.8744,return,0.6126,,23.828125,,,,,,FBP-OG-19.png,0.35,1.2,11,0.5,0,58,58,10,1,,,,,,,,,,,,,,,,,,,,,,,,,,,,,,,,,,,,,,,,
,,,,,WIN24_047,21,female,2024-02-09_12h00.51.785,jersey_experiment_5,2023.2.2,Win32,84.74576271,,,,,,,,,,,,,,,,621.8745,623.1685,623.1685,625.8744,return,1.1202,,25.390625,,,,,,FBP-OG-19.png,0.37,1.2,12,0.5,0,59,59,11,1,,,,,,,,,,,,,,,,,,,,,,,,,,,,,,,,,,,,,,,,
,,,,,WIN24_047,21,female,2024-02-09_12h00.51.785,jersey_experiment_5,2023.2.2,Win32,84.74576271,,,,,,,,,,,,,,,,,,,,,,,,,,,,,,,,,,,,,,,625.8747,745.879,,,,,,,,,,,,,,,,,,,,,,,,,,,,,,,,,,,,,,
,,,,,WIN24_047,21,female,2024-02-09_12h00.51.785,jersey_experiment_5,2023.2.2,Win32,84.74576271,,,,,,,,,,,,,,,,,,,,,,,,,,,,,,,,,,,,,,,,,745.8791,750.938,return,5.0549,,,,,,,,,,,,,,,,,,,,,,,,,,,,,,,,,,
,,,,,WIN24_047,21,female,2024-02-09_12h00.51.785,jersey_experiment_5,2023.2.2,Win32,84.74576271,,,,,,,,,,,,,,,,750.9445,752.2437,752.2437,757.1969,return,0.7472,,24.47916667,,,,,,FBP-YG-71.png,0.35,1.2,31,0.5,,,,,,,,,,,,,0,0,0,30,1,,,,,,,,,,,,,,,,,,,,,,,,,,,,
,,,,,WIN24_047,21,female,2024-02-09_12h00.51.785,jersey_experiment_5,2023.2.2,Win32,84.74576271,,,,,,,,,,,,,,,,757.1973,758.997,758.997,761.8206,return,1.1449,,52.734375,,,,,,FBP-PT-18.png,0.4,1.2,53,1,,,,,,,,,,,,,0,1,1,52,1,,,,,,,,,,,,,,,,,,,,,,,,,,,,
,,,,,WIN24_047,21,female,2024-02-09_12h00.51.785,jersey_experiment_5,2023.2.2,Win32,84.74576271,,,,,,,,,,,,,,,,761.8208,763.6208,763.6208,764.6911,return,0.174,,65.88541667,,,,,,FBP-PT-19.png,0.43,1.2,59,1,,,,,,,,,,,,,0,2,2,58,1,,,,,,,,,,,,,,,,,,,,,,,,,,,,
,,,,,WIN24_047,21,female,2024-02-09_12h00.51.785,jersey_experiment_5,2023.2.2,Win32,84.74576271,,,,,,,,,,,,,,,,764.6913,766.4913,766.4913,767.7854,return,0.1717,,45.18229167,,,,,,FBP-PT-19.png,0.4,1.2,58,1,,,,,,,,,,,,,0,3,3,57,1,,,,,,,,,,,,,,,,,,,,,,,,,,,,
,,,,,WIN24_047,21,female,2024-02-09_12h00.51.785,jersey_experiment_5,2023.2.2,Win32,84.74576271,,,,,,,,,,,,,,,,767.7856,769.5855,769.5855,770.7032,return,0.2034,,36.06770833,,,,,,FBP-OG-71.png,0.4,1.2,3,1,,,,,,,,,,,,,0,4,4,2,1,,,,,,,,,,,,,,,,,,,,,,,,,,,,
,,,,,WIN24_047,21,female,2024-02-09_12h00.51.785,jersey_experiment_5,2023.2.2,Win32,84.74576271,,,,,,,,,,,,,,,,770.7036,771.9976,771.9977,773.4092,return,0.2963,,64.71354167,,,,,,FBP-RB-19.png,0.43,1.2,29,0.5,,,,,,,,,,,,,0,5,5,28,1,,,,,,,,,,,,,,,,,,,,,,,,,,,,
,,,,,WIN24_047,21,female,2024-02-09_12h00.51.785,jersey_experiment_5,2023.2.2,Win32,84.74576271,,,,,,,,,,,,,,,,773.4094,774.7034,774.7034,777.3152,return,0.2824,,30.46875,,,,,,FBP-YG-81.png,0.37,1.2,37,0.5,,,,,,,,,,,,,0,6,6,36,1,,,,,,,,,,,,,,,,,,,,,,,,,,,,
,,,,,WIN24_047,21,female,2024-02-09_12h00.51.785,jersey_experiment_5,2023.2.2,Win32,84.74576271,,,,,,,,,,,,,,,,777.3154,779.1151,779.1152,780.5859,return,0.2176,,60.67708333,,,,,,FBP-OG-81.png,0.43,1.2,9,1,,,,,,,,,,,,,0,7,7,8,1,,,,,,,,,,,,,,,,,,,,,,,,,,,,
,,,,,WIN24_047,21,female,2024-02-09_12h00.51.785,jersey_experiment_5,2023.2.2,Win32,84.74576271,,,,,,,,,,,,,,,,780.5861,782.3861,782.3861,783.3271,return,0.2624,,68.22916667,,,,,,FBP-PT-18.png,0.45,1.2,55,1,,,,,,,,,,,,,0,8,8,54,1,,,,,,,,,,,,,,,,,,,,,,,,,,,,
,,,,,WIN24_047,21,female,2024-02-09_12h00.51.785,jersey_experiment_5,2023.2.2,Win32,84.74576271,,,,,,,,,,,,,,,,783.3274,785.1273,785.1273,787.2332,return,0.2135,,12.36979167,,,,,,FBP-OG-91.png,0.35,1.2,11,1,,,,,,,,,,,,,0,9,9,10,1,,,,,,,,,,,,,,,,,,,,,,,,,,,,
,,,,,WIN24_047,21,female,2024-02-09_12h00.51.785,jersey_experiment_5,2023.2.2,Win32,84.74576271,,,,,,,,,,,,,,,,787.2333,788.5273,788.5273,789.7744,return,0.1554,,26.171875,,,,,,FBP-YG-91.png,0.4,1.2,43,0.5,,,,,,,,,,,,,0,10,10,42,1,,,,,,,,,,,,,,,,,,,,,,,,,,,,
,,,,,WIN24_047,21,female,2024-02-09_12h00.51.785,jersey_experiment_5,2023.2.2,Win32,84.74576271,,,,,,,,,,,,,,,,789.7747,791.0687,791.0687,792.5627,return,0.2965,,75.26041667,,,,,,FBP-RB-17.png,0.45,1.2,20,0.5,,,,,,,,,,,,,0,11,11,19,1,,,,,,,,,,,,,,,,,,,,,,,,,,,,
,,,,,WIN24_047,21,female,2024-02-09_12h00.51.785,jersey_experiment_5,2023.2.2,Win32,84.74576271,,,,,,,,,,,,,,,,792.5628,793.857,793.8571,795.6689,return,0.2124,,11.71875,,,,,,FBP-RB-18.png,0.35,1.2,21,0.5,,,,,,,,,,,,,0,12,12,20,1,,,,,,,,,,,,,,,,,,,,,,,,,,,,
,,,,,WIN24_047,21,female,2024-02-09_12h00.51.785,jersey_experiment_5,2023.2.2,Win32,84.74576271,,,,,,,,,,,,,,,,795.669,796.9631,796.9631,799.5043,return,0.5083,,37.63020833,,,,,,FBP-YG-71.png,0.4,1.2,33,0.5,,,,,,,,,,,,,0,13,13,32,1,,,,,,,,,,,,,,,,,,,,,,,,,,,,
,,,,,WIN24_047,21,female,2024-02-09_12h00.51.785,jersey_experiment_5,2023.2.2,Win32,84.74576271,,,,,,,,,,,,,,,,799.5045,801.3042,801.3042,806.7162,return,4.0303,,22.13541667,,,,,,FBP-PT-18.png,0.35,1.2,51,1,,,,,,,,,,,,,0,14,14,50,1,,,,,,,,,,,,,,,,,,,,,,,,,,,,
,,,,,WIN24_047,21,female,2024-02-09_12h00.51.785,jersey_experiment_5,2023.2.2,Win32,84.74576271,,,,,,,,,,,,,,,,806.7208,808.0223,808.0223,810.3516,return,1.0596,,74.34895833,,,,,,FBP-RB-18.png,0.45,1.2,25,0.5,,,,,,,,,,,,,0,15,15,24,1,,,,,,,,,,,,,,,,,,,,,,,,,,,,
,,,,,WIN24_047,21,female,2024-02-09_12h00.51.785,jersey_experiment_5,2023.2.2,Win32,84.74576271,,,,,,,,,,,,,,,,810.3518,812.1518,812.1518,814.5165,return,0.4002,,66.66666667,,,,,,FBP-OG-91.png,0.45,1.2,15,1,,,,,,,,,,,,,0,16,16,14,1,,,,,,,,,,,,,,,,,,,,,,,,,,,,
,,,,,WIN24_047,21,female,2024-02-09_12h00.51.785,jersey_experiment_5,2023.2.2,Win32,84.74576271,,,,,,,,,,,,,,,,814.5166,816.3166,816.3167,818.352,return,0.2261,,25.13020833,,,,,,FBP-OG-81.png,0.35,1.2,6,1,,,,,,,,,,,,,0,17,17,5,1,,,,,,,,,,,,,,,,,,,,,,,,,,,,
,,,,,WIN24_047,21,female,2024-02-09_12h00.51.785,jersey_experiment_5,2023.2.2,Win32,84.74576271,,,,,,,,,,,,,,,,818.3522,819.6462,819.6463,821.0697,return,0.3201,,39.32291667,,,,,,FBP-RB-17.png,0.4,1.2,18,0.5,,,,,,,,,,,,,0,18,18,17,1,,,,,,,,,,,,,,,,,,,,,,,,,,,,
,,,,,WIN24_047,21,female,2024-02-09_12h00.51.785,jersey_experiment_5,2023.2.2,Win32,84.74576271,,,,,,,,,,,,,,,,821.0699,822.8699,822.8699,824.0816,return,0.1983,,11.84895833,,,,,,FBP-PT-17.png,0.35,1.2,46,1,,,,,,,,,,,,,0,19,19,45,1,,,,,,,,,,,,,,,,,,,,,,,,,,,,
,,,,,WIN24_047,21,female,2024-02-09_12h00.51.785,jersey_experiment_5,2023.2.2,Win32,84.74576271,,,,,,,,,,,,,,,,824.0817,825.3757,825.3757,826.9759,return,0.2711,,58.59375,,,,,,FBP-YG-71.png,0.45,1.2,35,0.5,,,,,,,,,,,,,0,20,20,34,1,,,,,,,,,,,,,,,,,,,,,,,,,,,,
,,,,,WIN24_047,21,female,2024-02-09_12h00.51.785,jersey_experiment_5,2023.2.2,Win32,84.74576271,,,,,,,,,,,,,,,,826.976,828.2699,828.2699,829.7877,return,0.2304,,22.65625,,,,,,FBP-YG-81.png,0.35,1.2,36,0.5,,,,,,,,,,,,,0,21,21,35,1,,,,,,,,,,,,,,,,,,,,,,,,,,,,
,,,,,WIN24_047,21,female,2024-02-09_12h00.51.785,jersey_experiment_5,2023.2.2,Win32,84.74576271,,,,,,,,,,,,,,,,829.7879,831.5879,831.588,833.3643,return,0.2117,,63.28125,,,,,,FBP-OG-81.png,0.45,1.2,10,1,,,,,,,,,,,,,0,22,22,9,1,,,,,,,,,,,,,,,,,,,,,,,,,,,,
,,,,,WIN24_047,21,female,2024-02-09_12h00.51.785,jersey_experiment_5,2023.2.2,Win32,84.74576271,,,,,,,,,,,,,,,,833.3645,834.6586,834.6586,836.2585,return,0.2025,,49.73958333,,,,,,FBP-RB-18.png,0.4,1.2,23,0.5,,,,,,,,,,,,,0,23,23,22,1,,,,,,,,,,,,,,,,,,,,,,,,,,,,
,,,,,WIN24_047,21,female,2024-02-09_12h00.51.785,jersey_experiment_5,2023.2.2,Win32,84.74576271,,,,,,,,,,,,,,,,836.2587,837.5526,837.5526,838.9291,return,0.2605,,41.14583333,,,,,,FBP-RB-18.png,0.37,1.2,22,0.5,,,,,,,,,,,,,0,24,24,21,1,,,,,,,,,,,,,,,,,,,,,,,,,,,,
,,,,,WIN24_047,21,female,2024-02-09_12h00.51.785,jersey_experiment_5,2023.2.2,Win32,84.74576271,,,,,,,,,,,,,,,,838.9293,840.2234,840.2234,841.6351,return,0.1883,,64.19270833,,,,,,FBP-YG-91.png,0.43,1.2,44,0.5,,,,,,,,,,,,,0,25,25,43,1,,,,,,,,,,,,,,,,,,,,,,,,,,,,
,,,,,WIN24_047,21,female,2024-02-09_12h00.51.785,jersey_experiment_5,2023.2.2,Win32,84.74576271,,,,,,,,,,,,,,,,841.6354,842.9293,842.9293,844.4353,return,0.3864,,49.73958333,,,,,,FBP-RB-19.png,0.4,1.2,28,0.5,,,,,,,,,,,,,0,26,26,27,1,,,,,,,,,,,,,,,,,,,,,,,,,,,,
,,,,,WIN24_047,21,female,2024-02-09_12h00.51.785,jersey_experiment_5,2023.2.2,Win32,84.74576271,,,,,,,,,,,,,,,,844.4355,845.7294,845.7294,847.3295,return,0.3069,,54.55729167,,,,,,FBP-YG-71.png,0.43,1.2,34,0.5,,,,,,,,,,,,,0,27,27,33,1,,,,,,,,,,,,,,,,,,,,,,,,,,,,
,,,,,WIN24_047,21,female,2024-02-09_12h00.51.785,jersey_experiment_5,2023.2.2,Win32,84.74576271,,,,,,,,,,,,,,,,847.3297,849.1297,849.1297,851.1533,return,0.5087,,54.55729167,,,,,,FBP-PT-17.png,0.43,1.2,49,1,,,,,,,,,,,,,0,28,28,48,1,,,,,,,,,,,,,,,,,,,,,,,,,,,,
,,,,,WIN24_047,21,female,2024-02-09_12h00.51.785,jersey_experiment_5,2023.2.2,Win32,84.74576271,,,,,,,,,,,,,,,,851.1535,852.4473,852.4473,854.0829,return,0.481,,31.77083333,,,,,,FBP-YG-71.png,0.37,1.2,32,0.5,,,,,,,,,,,,,0,29,29,31,1,,,,,,,,,,,,,,,,,,,,,,,,,,,,
,,,,,WIN24_047,21,female,2024-02-09_12h00.51.785,jersey_experiment_5,2023.2.2,Win32,84.74576271,,,,,,,,,,,,,,,,854.0831,855.3769,855.3769,856.8828,return,0.2446,,19.921875,,,,,,FBP-YG-91.png,0.35,1.2,41,0.5,,,,,,,,,,,,,0,30,30,40,1,,,,,,,,,,,,,,,,,,,,,,,,,,,,
,,,,,WIN24_047,21,female,2024-02-09_12h00.51.785,jersey_experiment_5,2023.2.2,Win32,84.74576271,,,,,,,,,,,,,,,,856.883,858.6829,858.6829,860.6595,return,0.6121,,19.921875,,,,,,FBP-OG-81.png,0.37,1.2,7,1,,,,,,,,,,,,,0,31,31,6,1,,,,,,,,,,,,,,,,,,,,,,,,,,,,
,,,,,WIN24_047,21,female,2024-02-09_12h00.51.785,jersey_experiment_5,2023.2.2,Win32,84.74576271,,,,,,,,,,,,,,,,860.6596,861.9535,861.9535,863.636,return,0.1887,,32.68229167,,,,,,FBP-YG-81.png,0.4,1.2,38,0.5,,,,,,,,,,,,,0,32,32,37,1,,,,,,,,,,,,,,,,,,,,,,,,,,,,
,,,,,WIN24_047,21,female,2024-02-09_12h00.51.785,jersey_experiment_5,2023.2.2,Win32,84.74576271,,,,,,,,,,,,,,,,863.6362,865.4361,865.4361,867.0597,return,0.5388,,24.86979167,,,,,,FBP-PT-18.png,0.37,1.2,52,1,,,,,,,,,,,,,0,33,33,51,1,,,,,,,,,,,,,,,,,,,,,,,,,,,,
,,,,,WIN24_047,21,female,2024-02-09_12h00.51.785,jersey_experiment_5,2023.2.2,Win32,84.74576271,,,,,,,,,,,,,,,,867.06,868.3539,868.3539,870.2244,return,0.4588,,58.203125,,,,,,FBP-YG-81.png,0.43,1.2,39,0.5,,,,,,,,,,,,,0,34,34,38,1,,,,,,,,,,,,,,,,,,,,,,,,,,,,
,,,,,WIN24_047,21,female,2024-02-09_12h00.51.785,jersey_experiment_5,2023.2.2,Win32,84.74576271,,,,,,,,,,,,,,,,870.2246,872.0246,872.0246,873.5305,return,0.3117,,21.484375,,,,,,FBP-OG-71.png,0.35,1.2,1,1,,,,,,,,,,,,,0,35,35,0,1,,,,,,,,,,,,,,,,,,,,,,,,,,,,
,,,,,WIN24_047,21,female,2024-02-09_12h00.51.785,jersey_experiment_5,2023.2.2,Win32,84.74576271,,,,,,,,,,,,,,,,873.5307,874.8246,874.8246,876.0835,return,0.3154,,34.63541667,,,,,,FBP-YG-91.png,0.37,1.2,42,0.5,,,,,,,,,,,,,0,36,36,41,1,,,,,,,,,,,,,,,,,,,,,,,,,,,,
,,,,,WIN24_047,21,female,2024-02-09_12h00.51.785,jersey_experiment_5,2023.2.2,Win32,84.74576271,,,,,,,,,,,,,,,,876.0836,877.8836,877.8836,881.3543,return,0.9967,,49.86979167,,,,,,FBP-OG-71.png,0.43,1.2,4,1,,,,,,,,,,,,,0,37,37,3,1,,,,,,,,,,,,,,,,,,,,,,,,,,,,
,,,,,WIN24_047,21,female,2024-02-09_12h00.51.785,jersey_experiment_5,2023.2.2,Win32,84.74576271,,,,,,,,,,,,,,,,881.3545,883.1545,883.1546,884.1543,return,0.2671,,34.89583333,,,,,,FBP-OG-91.png,0.4,1.2,13,1,,,,,,,,,,,,,0,38,38,12,1,,,,,,,,,,,,,,,,,,,,,,,,,,,,
,,,,,WIN24_047,21,female,2024-02-09_12h00.51.785,jersey_experiment_5,2023.2.2,Win32,84.74576271,,,,,,,,,,,,,,,,884.1545,885.4485,885.4486,886.9074,return,0.2428,,64.32291667,,,,,,FBP-YG-81.png,0.45,1.2,40,0.5,,,,,,,,,,,,,0,39,39,39,1,,,,,,,,,,,,,,,,,,,,,,,,,,,,
,,,,,WIN24_047,21,female,2024-02-09_12h00.51.785,jersey_experiment_5,2023.2.2,Win32,84.74576271,,,,,,,,,,,,,,,,886.9077,888.2016,888.2016,890.4369,return,1.3414,,52.21354167,,,,,,FBP-RB-18.png,0.43,1.2,24,0.5,,,,,,,,,,,,,0,40,40,23,1,,,,,,,,,,,,,,,,,,,,,,,,,,,,
,,,,,WIN24_047,21,female,2024-02-09_12h00.51.785,jersey_experiment_5,2023.2.2,Win32,84.74576271,,,,,,,,,,,,,,,,890.4371,891.731,891.731,893.8017,return,0.2678,,33.85416667,,,,,,FBP-RB-17.png,0.37,1.2,17,0.5,,,,,,,,,,,,,0,41,41,16,1,,,,,,,,,,,,,,,,,,,,,,,,,,,,
,,,,,WIN24_047,21,female,2024-02-09_12h00.51.785,jersey_experiment_5,2023.2.2,Win32,84.74576271,,,,,,,,,,,,,,,,893.8019,895.096,895.096,896.5784,return,0.245,,74.21875,,,,,,FBP-RB-19.png,0.45,1.2,30,0.5,,,,,,,,,,,,,0,42,42,29,1,,,,,,,,,,,,,,,,,,,,,,,,,,,,
,,,,,WIN24_047,21,female,2024-02-09_12h00.51.785,jersey_experiment_5,2023.2.2,Win32,84.74576271,,,,,,,,,,,,,,,,896.5786,898.3784,898.3785,900.7667,return,0.451,,25.390625,,,,,,FBP-PT-19.png,0.37,1.2,57,1,,,,,,,,,,,,,0,43,43,56,1,,,,,,,,,,,,,,,,,,,,,,,,,,,,
,,,,,WIN24_047,21,female,2024-02-09_12h00.51.785,jersey_experiment_5,2023.2.2,Win32,84.74576271,,,,,,,,,,,,,,,,900.767,902.567,902.567,904.308,return,0.2353,,48.17708333,,,,,,FBP-PT-18.png,0.43,1.2,54,1,,,,,,,,,,,,,0,44,44,53,1,,,,,,,,,,,,,,,,,,,,,,,,,,,,
,,,,,WIN24_047,21,female,2024-02-09_12h00.51.785,jersey_experiment_5,2023.2.2,Win32,84.74576271,,,,,,,,,,,,,,,,904.3082,906.1081,906.1081,907.5552,return,0.2826,,41.53645833,,,,,,FBP-PT-17.png,0.4,1.2,48,1,,,,,,,,,,,,,0,45,45,47,1,,,,,,,,,,,,,,,,,,,,,,,,,,,,
,,,,,WIN24_047,21,female,2024-02-09_12h00.51.785,jersey_experiment_5,2023.2.2,Win32,84.74576271,,,,,,,,,,,,,,,,907.5554,909.3552,909.3552,910.5907,return,0.284,,25.65104167,,,,,,FBP-OG-91.png,0.37,1.2,12,1,,,,,,,,,,,,,0,46,46,11,1,,,,,,,,,,,,,,,,,,,,,,,,,,,,
,,,,,WIN24_047,21,female,2024-02-09_12h00.51.785,jersey_experiment_5,2023.2.2,Win32,84.74576271,,,,,,,,,,,,,,,,910.591,912.3907,912.3907,914.0028,return,0.3767,,9.505208333,,,,,,FBP-PT-19.png,0.35,1.2,56,1,,,,,,,,,,,,,0,47,47,55,1,,,,,,,,,,,,,,,,,,,,,,,,,,,,
,,,,,WIN24_047,21,female,2024-02-09_12h00.51.785,jersey_experiment_5,2023.2.2,Win32,84.74576271,,,,,,,,,,,,,,,,914.003,915.8025,915.8026,917.2497,return,0.3058,,60.67708333,,,,,,FBP-OG-71.png,0.45,1.2,5,1,,,,,,,,,,,,,0,48,48,4,1,,,,,,,,,,,,,,,,,,,,,,,,,,,,
,,,,,WIN24_047,21,female,2024-02-09_12h00.51.785,jersey_experiment_5,2023.2.2,Win32,84.74576271,,,,,,,,,,,,,,,,917.2499,919.0497,919.0497,920.4732,return,0.2188,,25.52083333,,,,,,FBP-OG-71.png,0.37,1.2,2,1,,,,,,,,,,,,,0,49,49,1,1,,,,,,,,,,,,,,,,,,,,,,,,,,,,
,,,,,WIN24_047,21,female,2024-02-09_12h00.51.785,jersey_experiment_5,2023.2.2,Win32,84.74576271,,,,,,,,,,,,,,,,920.4734,921.7675,921.7675,923.0853,return,0.262,,18.48958333,,,,,,FBP-RB-19.png,0.35,1.2,26,0.5,,,,,,,,,,,,,0,50,50,25,1,,,,,,,,,,,,,,,,,,,,,,,,,,,,
,,,,,WIN24_047,21,female,2024-02-09_12h00.51.785,jersey_experiment_5,2023.2.2,Win32,84.74576271,,,,,,,,,,,,,,,,923.0855,924.8853,924.8853,926.2029,return,0.1722,,53.77604167,,,,,,FBP-PT-19.png,0.45,1.2,60,1,,,,,,,,,,,,,0,51,51,59,1,,,,,,,,,,,,,,,,,,,,,,,,,,,,
,,,,,WIN24_047,21,female,2024-02-09_12h00.51.785,jersey_experiment_5,2023.2.2,Win32,84.74576271,,,,,,,,,,,,,,,,926.2031,927.4971,927.4971,929.6148,return,0.2155,,24.47916667,,,,,,FBP-RB-19.png,0.37,1.2,27,0.5,,,,,,,,,,,,,0,52,52,26,1,,,,,,,,,,,,,,,,,,,,,,,,,,,,
,,,,,WIN24_047,21,female,2024-02-09_12h00.51.785,jersey_experiment_5,2023.2.2,Win32,84.74576271,,,,,,,,,,,,,,,,929.615,930.9089,930.909,932.4502,return,0.2024,,66.53645833,,,,,,FBP-YG-91.png,0.45,1.2,45,0.5,,,,,,,,,,,,,0,53,53,44,1,,,,,,,,,,,,,,,,,,,,,,,,,,,,
,,,,,WIN24_047,21,female,2024-02-09_12h00.51.785,jersey_experiment_5,2023.2.2,Win32,84.74576271,,,,,,,,,,,,,,,,932.4504,934.2503,934.2504,936.8622,return,1.3558,,29.03645833,,,,,,FBP-PT-17.png,0.37,1.2,47,1,,,,,,,,,,,,,0,54,54,46,1,,,,,,,,,,,,,,,,,,,,,,,,,,,,
,,,,,WIN24_047,21,female,2024-02-09_12h00.51.785,jersey_experiment_5,2023.2.2,Win32,84.74576271,,,,,,,,,,,,,,,,936.8624,938.6624,938.6624,948.8273,return,9.1346,,68.22916667,,,,,,FBP-PT-17.png,0.45,1.2,50,1,,,,,,,,,,,,,0,55,55,49,1,,,,,,,,,,,,,,,,,,,,,,,,,,,,
,,,,,WIN24_047,21,female,2024-02-09_12h00.51.785,jersey_experiment_5,2023.2.2,Win32,84.74576271,,,,,,,,,,,,,,,,948.8318,950.6275,950.6276,951.9686,return,0.2842,,49.34895833,,,,,,FBP-OG-91.png,0.43,1.2,14,1,,,,,,,,,,,,,0,56,56,13,1,,,,,,,,,,,,,,,,,,,,,,,,,,,,
,,,,,WIN24_047,21,female,2024-02-09_12h00.51.785,jersey_experiment_5,2023.2.2,Win32,84.74576271,,,,,,,,,,,,,,,,951.9688,953.2627,953.2627,955.3215,return,0.2656,,24.08854167,,,,,,FBP-RB-17.png,0.35,1.2,16,0.5,,,,,,,,,,,,,0,57,57,15,1,,,,,,,,,,,,,,,,,,,,,,,,,,,,
,,,,,WIN24_047,21,female,2024-02-09_12h00.51.785,jersey_experiment_5,2023.2.2,Win32,84.74576271,,,,,,,,,,,,,,,,955.3217,956.6159,956.6159,957.7454,return,0.189,,65.234375,,,,,,FBP-RB-17.png,0.43,1.2,19,0.5,,,,,,,,,,,,,0,58,58,18,1,,,,,,,,,,,,,,,,,,,,,,,,,,,,
,,,,,WIN24_047,21,female,2024-02-09_12h00.51.785,jersey_experiment_5,2023.2.2,Win32,84.74576271,,,,,,,,,,,,,,,,957.7455,959.5453,959.5453,960.7452,return,0.2443,,40.75520833,,,,,,FBP-OG-81.png,0.4,1.2,8,1,,,,,,,,,,,,,0,59,59,7,1,,,,,,,,,,,,,,,,,,,,,,,,,,,,
,,,,,WIN24_047,21,female,2024-02-09_12h00.51.785,jersey_experiment_5,2023.2.2,Win32,84.74576271,,,,,,,,,,,,,,,,960.7473,962.5455,962.5455,964.6514,return,0.7226,,46.484375,,,,,,FBP-OG-17.png,0.4,1.2,3,1,,,,,,,,,,,,,,,,,,0,0,0,2,1,,,,,,,,,,,,,,,,,,,,,,,
,,,,,WIN24_047,21,female,2024-02-09_12h00.51.785,jersey_experiment_5,2023.2.2,Win32,84.74576271,,,,,,,,,,,,,,,,964.6517,965.9456,965.9456,967.3456,return,0.1784,,59.50520833,,,,,,FBP-RB-71.png,0.43,1.2,19,0.5,,,,,,,,,,,,,,,,,,0,1,1,18,1,,,,,,,,,,,,,,,,,,,,,,,
,,,,,WIN24_047,21,female,2024-02-09_12h00.51.785,jersey_experiment_5,2023.2.2,Win32,84.74576271,,,,,,,,,,,,,,,,967.3458,969.1457,969.1458,970.2282,return,0.236,,36.19791667,,,,,,FBP-PT-81.png,0.37,1.2,52,1,,,,,,,,,,,,,,,,,,0,2,2,51,1,,,,,,,,,,,,,,,,,,,,,,,
,,,,,WIN24_047,21,female,2024-02-09_12h00.51.785,jersey_experiment_5,2023.2.2,Win32,84.74576271,,,,,,,,,,,,,,,,970.2284,971.5223,971.5223,972.8047,return,0.2496,,66.92708333,,,,,,FBP-YG-17.png,0.45,1.2,35,0.5,,,,,,,,,,,,,,,,,,0,3,3,34,1,,,,,,,,,,,,,,,,,,,,,,,
,,,,,WIN24_047,21,female,2024-02-09_12h00.51.785,jersey_experiment_5,2023.2.2,Win32,84.74576271,,,,,,,,,,,,,,,,972.8048,974.0989,974.0989,976.1106,return,1.0253,,36.97916667,,,,,,FBP-RB-81.png,0.35,1.2,21,0.5,,,,,,,,,,,,,,,,,,0,4,4,20,1,,,,,,,,,,,,,,,,,,,,,,,
,,,,,WIN24_047,21,female,2024-02-09_12h00.51.785,jersey_experiment_5,2023.2.2,Win32,84.74576271,,,,,,,,,,,,,,,,976.1109,977.4047,977.4047,978.8284,return,0.5685,,26.82291667,,,,,,FBP-RB-91.png,0.35,1.2,26,0.5,,,,,,,,,,,,,,,,,,0,5,5,25,1,,,,,,,,,,,,,,,,,,,,,,,
,,,,,WIN24_047,21,female,2024-02-09_12h00.51.785,jersey_experiment_5,2023.2.2,Win32,84.74576271,,,,,,,,,,,,,,,,978.8287,980.1226,980.1226,981.7462,return,0.5084,,34.375,,,,,,FBP-RB-71.png,0.37,1.2,17,0.5,,,,,,,,,,,,,,,,,,0,6,6,16,1,,,,,,,,,,,,,,,,,,,,,,,
,,,,,WIN24_047,21,female,2024-02-09_12h00.51.785,jersey_experiment_5,2023.2.2,Win32,84.74576271,,,,,,,,,,,,,,,,981.7464,983.5462,983.5462,984.7227,return,0.3389,,24.34895833,,,,,,FBP-OG-19.png,0.37,1.2,12,1,,,,,,,,,,,,,,,,,,0,7,7,11,1,,,,,,,,,,,,,,,,,,,,,,,
,,,,,WIN24_047,21,female,2024-02-09_12h00.51.785,jersey_experiment_5,2023.2.2,Win32,84.74576271,,,,,,,,,,,,,,,,984.7229,986.5228,986.5229,988.0994,return,0.3202,,54.03645833,,,,,,FBP-OG-17.png,0.43,1.2,4,1,,,,,,,,,,,,,,,,,,0,8,8,3,1,,,,,,,,,,,,,,,,,,,,,,,
,,,,,WIN24_047,21,female,2024-02-09_12h00.51.785,jersey_experiment_5,2023.2.2,Win32,84.74576271,,,,,,,,,,,,,,,,988.0996,989.3936,989.3936,990.6759,return,0.2588,,32.94270833,,,,,,FBP-YG-19.png,0.37,1.2,42,0.5,,,,,,,,,,,,,,,,,,0,9,9,41,1,,,,,,,,,,,,,,,,,,,,,,,
,,,,,WIN24_047,21,female,2024-02-09_12h00.51.785,jersey_experiment_5,2023.2.2,Win32,84.74576271,,,,,,,,,,,,,,,,990.676,991.9701,991.9701,993.8524,return,0.1707,,28.125,,,,,,FBP-YG-18.png,0.37,1.2,37,0.5,,,,,,,,,,,,,,,,,,0,10,10,36,1,,,,,,,,,,,,,,,,,,,,,,,
,,,,,WIN24_047,21,female,2024-02-09_12h00.51.785,jersey_experiment_5,2023.2.2,Win32,84.74576271,,,,,,,,,,,,,,,,993.8526,995.1465,995.1465,996.3703,return,0.2121,,22.13541667,,,,,,FBP-YG-19.png,0.35,1.2,41,0.5,,,,,,,,,,,,,,,,,,0,11,11,40,1,,,,,,,,,,,,,,,,,,,,,,,
,,,,,WIN24_047,21,female,2024-02-09_12h00.51.785,jersey_experiment_5,2023.2.2,Win32,84.74576271,,,,,,,,,,,,,,,,996.3705,998.1705,998.1705,999.7233,return,0.1697,,49.73958333,,,,,,FBP-PT-91.png,0.4,1.2,58,1,,,,,,,,,,,,,,,,,,0,12,12,57,1,,,,,,,,,,,,,,,,,,,,,,,
,,,,,WIN24_047,21,female,2024-02-09_12h00.51.785,jersey_experiment_5,2023.2.2,Win32,84.74576271,,,,,,,,,,,,,,,,999.7235,1001.5236,1001.5236,1002.6529,return,0.2035,,74.86979167,,,,,,FBP-OG-19.png,0.45,1.2,15,1,,,,,,,,,,,,,,,,,,0,13,13,14,1,,,,,,,,,,,,,,,,,,,,,,,
,,,,,WIN24_047,21,female,2024-02-09_12h00.51.785,jersey_experiment_5,2023.2.2,Win32,84.74576271,,,,,,,,,,,,,,,,1002.6531,1004.453,1004.453,1014.512,return,7.9321,,41.53645833,,,,,,FBP-PT-71.png,0.4,1.2,48,1,,,,,,,,,,,,,,,,,,0,14,14,47,1,,,,,,,,,,,,,,,,,,,,,,,
,,,,,WIN24_047,21,female,2024-02-09_12h00.51.785,jersey_experiment_5,2023.2.2,Win32,84.74576271,,,,,,,,,,,,,,,,1014.5166,1015.8181,1015.8181,1017.4769,return,0.2214,,14.97395833,,,,,,FBP-YG-17.png,0.35,1.2,31,0.5,,,,,,,,,,,,,,,,,,0,15,15,30,1,,,,,,,,,,,,,,,,,,,,,,,
,,,,,WIN24_047,21,female,2024-02-09_12h00.51.785,jersey_experiment_5,2023.2.2,Win32,84.74576271,,,,,,,,,,,,,,,,1017.477,1019.2771,1019.2772,1020.7476,return,0.4398,,59.89583333,,,,,,FBP-OG-18.png,0.43,1.2,9,1,,,,,,,,,,,,,,,,,,0,16,16,8,1,,,,,,,,,,,,,,,,,,,,,,,
,,,,,WIN24_047,21,female,2024-02-09_12h00.51.785,jersey_experiment_5,2023.2.2,Win32,84.74576271,,,,,,,,,,,,,,,,1020.7478,1022.0416,1022.0416,1023.3948,return,0.212,,46.484375,,,,,,FBP-YG-17.png,0.4,1.2,33,0.5,,,,,,,,,,,,,,,,,,0,17,17,32,1,,,,,,,,,,,,,,,,,,,,,,,
,,,,,WIN24_047,21,female,2024-02-09_12h00.51.785,jersey_experiment_5,2023.2.2,Win32,84.74576271,,,,,,,,,,,,,,,,1023.395,1025.1948,1025.1948,1026.7948,return,0.4548,,50.91145833,,,,,,FBP-OG-19.png,0.4,1.2,13,1,,,,,,,,,,,,,,,,,,0,18,18,12,1,,,,,,,,,,,,,,,,,,,,,,,
,,,,,WIN24_047,21,female,2024-02-09_12h00.51.785,jersey_experiment_5,2023.2.2,Win32,84.74576271,,,,,,,,,,,,,,,,1026.795,1028.089,1028.089,1029.3949,return,0.259,,63.93229167,,,,,,FBP-RB-81.png,0.43,1.2,24,0.5,,,,,,,,,,,,,,,,,,0,19,19,23,1,,,,,,,,,,,,,,,,,,,,,,,
,,,,,WIN24_047,21,female,2024-02-09_12h00.51.785,jersey_experiment_5,2023.2.2,Win32,84.74576271,,,,,,,,,,,,,,,,1029.3952,1030.6892,1030.6892,1031.9244,return,0.2215,,74.47916667,,,,,,FBP-RB-81.png,0.45,1.2,25,0.5,,,,,,,,,,,,,,,,,,0,20,20,24,1,,,,,,,,,,,,,,,,,,,,,,,
,,,,,WIN24_047,21,female,2024-02-09_12h00.51.785,jersey_experiment_5,2023.2.2,Win32,84.74576271,,,,,,,,,,,,,,,,1031.9246,1033.7247,1033.7248,1034.8659,return,0.2451,,49.34895833,,,,,,FBP-OG-19.png,0.43,1.2,14,1,,,,,,,,,,,,,,,,,,0,21,21,13,1,,,,,,,,,,,,,,,,,,,,,,,
,,,,,WIN24_047,21,female,2024-02-09_12h00.51.785,jersey_experiment_5,2023.2.2,Win32,84.74576271,,,,,,,,,,,,,,,,1034.866,1036.1599,1036.1599,1037.4895,return,0.4004,,30.859375,,,,,,FBP-RB-91.png,0.37,1.2,27,0.5,,,,,,,,,,,,,,,,,,0,22,22,26,1,,,,,,,,,,,,,,,,,,,,,,,
,,,,,WIN24_047,21,female,2024-02-09_12h00.51.785,jersey_experiment_5,2023.2.2,Win32,84.74576271,,,,,,,,,,,,,,,,1037.4897,1039.2894,1039.2894,1040.3365,return,0.2357,,51.30208333,,,,,,FBP-PT-81.png,0.43,1.2,54,1,,,,,,,,,,,,,,,,,,0,23,23,53,1,,,,,,,,,,,,,,,,,,,,,,,
,,,,,WIN24_047,21,female,2024-02-09_12h00.51.785,jersey_experiment_5,2023.2.2,Win32,84.74576271,,,,,,,,,,,,,,,,1040.3368,1042.1366,1042.1366,1043.4661,return,0.1612,,25.13020833,,,,,,FBP-OG-18.png,0.35,1.2,6,1,,,,,,,,,,,,,,,,,,0,24,24,5,1,,,,,,,,,,,,,,,,,,,,,,,
,,,,,WIN24_047,21,female,2024-02-09_12h00.51.785,jersey_experiment_5,2023.2.2,Win32,84.74576271,,,,,,,,,,,,,,,,1043.4663,1045.2662,1045.2662,1046.4661,return,0.1979,,65.234375,,,,,,FBP-OG-18.png,0.45,1.2,10,1,,,,,,,,,,,,,,,,,,0,25,25,9,1,,,,,,,,,,,,,,,,,,,,,,,
,,,,,WIN24_047,21,female,2024-02-09_12h00.51.785,jersey_experiment_5,2023.2.2,Win32,84.74576271,,,,,,,,,,,,,,,,1046.4663,1048.2661,1048.2661,1049.2193,return,0.1743,,70.3125,,,,,,FBP-PT-71.png,0.43,1.2,49,1,,,,,,,,,,,,,,,,,,0,26,26,48,1,,,,,,,,,,,,,,,,,,,,,,,
,,,,,WIN24_047,21,female,2024-02-09_12h00.51.785,jersey_experiment_5,2023.2.2,Win32,84.74576271,,,,,,,,,,,,,,,,1049.2195,1051.0193,1051.0193,1052.2193,return,0.2072,,39.58333333,,,,,,FBP-OG-18.png,0.37,1.2,7,1,,,,,,,,,,,,,,,,,,0,27,27,6,1,,,,,,,,,,,,,,,,,,,,,,,
,,,,,WIN24_047,21,female,2024-02-09_12h00.51.785,jersey_experiment_5,2023.2.2,Win32,84.74576271,,,,,,,,,,,,,,,,1052.2195,1053.5135,1053.5135,1055.9842,return,0.2735,,36.06770833,,,,,,FBP-YG-17.png,0.37,1.2,32,0.5,,,,,,,,,,,,,,,,,,0,28,28,31,1,,,,,,,,,,,,,,,,,,,,,,,
,,,,,WIN24_047,21,female,2024-02-09_12h00.51.785,jersey_experiment_5,2023.2.2,Win32,84.74576271,,,,,,,,,,,,,,,,1055.9845,1057.7842,1057.7842,1059.0902,return,0.2122,,25.52083333,,,,,,FBP-PT-71.png,0.35,1.2,46,1,,,,,,,,,,,,,,,,,,0,29,29,45,1,,,,,,,,,,,,,,,,,,,,,,,
,,,,,WIN24_047,21,female,2024-02-09_12h00.51.785,jersey_experiment_5,2023.2.2,Win32,84.74576271,,,,,,,,,,,,,,,,1059.0905,1060.3843,1060.3844,1061.7726,return,0.1447,,56.51041667,,,,,,FBP-YG-17.png,0.43,1.2,34,0.5,,,,,,,,,,,,,,,,,,0,30,30,33,1,,,,,,,,,,,,,,,,,,,,,,,
,,,,,WIN24_047,21,female,2024-02-09_12h00.51.785,jersey_experiment_5,2023.2.2,Win32,84.74576271,,,,,,,,,,,,,,,,1061.7728,1063.5727,1063.5727,1064.7021,return,0.2397,,30.72916667,,,,,,FBP-PT-91.png,0.37,1.2,57,1,,,,,,,,,,,,,,,,,,0,31,31,56,1,,,,,,,,,,,,,,,,,,,,,,,
,,,,,WIN24_047,21,female,2024-02-09_12h00.51.785,jersey_experiment_5,2023.2.2,Win32,84.74576271,,,,,,,,,,,,,,,,1064.7023,1066.5022,1066.5022,1069.2672,return,1.9155,,30.72916667,,,,,,FBP-OG-17.png,0.37,1.2,2,1,,,,,,,,,,,,,,,,,,0,32,32,1,1,,,,,,,,,,,,,,,,,,,,,,,
,,,,,WIN24_047,21,female,2024-02-09_12h00.51.785,jersey_experiment_5,2023.2.2,Win32,84.74576271,,,,,,,,,,,,,,,,1069.2674,1070.5611,1070.5611,1072.1141,return,0.1744,,48.56770833,,,,,,FBP-RB-81.png,0.4,1.2,23,0.5,,,,,,,,,,,,,,,,,,0,33,33,22,1,,,,,,,,,,,,,,,,,,,,,,,
,,,,,WIN24_047,21,female,2024-02-09_12h00.51.785,jersey_experiment_5,2023.2.2,Win32,84.74576271,,,,,,,,,,,,,,,,1072.1143,1073.9144,1073.9144,1075.985,return,0.7767,,21.09375,,,,,,FBP-PT-91.png,0.35,1.2,56,1,,,,,,,,,,,,,,,,,,0,34,34,55,1,,,,,,,,,,,,,,,,,,,,,,,
,,,,,WIN24_047,21,female,2024-02-09_12h00.51.785,jersey_experiment_5,2023.2.2,Win32,84.74576271,,,,,,,,,,,,,,,,1075.9851,1077.2791,1077.2791,1078.6673,return,0.2308,,74.609375,,,,,,FBP-YG-19.png,0.45,1.2,45,0.5,,,,,,,,,,,,,,,,,,0,35,35,44,1,,,,,,,,,,,,,,,,,,,,,,,
,,,,,WIN24_047,21,female,2024-02-09_12h00.51.785,jersey_experiment_5,2023.2.2,Win32,84.74576271,,,,,,,,,,,,,,,,1078.6676,1080.4673,1080.4673,1082.185,return,0.2541,,55.33854167,,,,,,FBP-OG-18.png,0.4,1.2,8,1,,,,,,,,,,,,,,,,,,0,36,36,7,1,,,,,,,,,,,,,,,,,,,,,,,
,,,,,WIN24_047,21,female,2024-02-09_12h00.51.785,jersey_experiment_5,2023.2.2,Win32,84.74576271,,,,,,,,,,,,,,,,1082.1852,1083.4792,1083.4793,1085.6206,return,0.998,,39.97395833,,,,,,FBP-RB-81.png,0.37,1.2,22,0.5,,,,,,,,,,,,,,,,,,0,37,37,21,1,,,,,,,,,,,,,,,,,,,,,,,
,,,,,WIN24_047,21,female,2024-02-09_12h00.51.785,jersey_experiment_5,2023.2.2,Win32,84.74576271,,,,,,,,,,,,,,,,1085.6207,1087.4207,1087.4208,1088.656,return,0.4259,,57.16145833,,,,,,FBP-PT-71.png,0.45,1.2,50,1,,,,,,,,,,,,,,,,,,0,38,38,49,1,,,,,,,,,,,,,,,,,,,,,,,
,,,,,WIN24_047,21,female,2024-02-09_12h00.51.785,jersey_experiment_5,2023.2.2,Win32,84.74576271,,,,,,,,,,,,,,,,1088.6561,1090.4561,1090.4561,1092.3031,return,0.2855,,47.91666667,,,,,,FBP-PT-81.png,0.4,1.2,53,1,,,,,,,,,,,,,,,,,,0,39,39,52,1,,,,,,,,,,,,,,,,,,,,,,,
,,,,,WIN24_047,21,female,2024-02-09_12h00.51.785,jersey_experiment_5,2023.2.2,Win32,84.74576271,,,,,,,,,,,,,,,,1092.3033,1094.1032,1094.1033,1095.515,return,0.1462,,61.97916667,,,,,,FBP-OG-17.png,0.45,1.2,5,1,,,,,,,,,,,,,,,,,,0,40,40,4,1,,,,,,,,,,,,,,,,,,,,,,,
,,,,,WIN24_047,21,female,2024-02-09_12h00.51.785,jersey_experiment_5,2023.2.2,Win32,84.74576271,,,,,,,,,,,,,,,,1095.5152,1097.315,1097.315,1098.974,return,0.2611,,23.56770833,,,,,,FBP-OG-17.png,0.35,1.2,1,1,,,,,,,,,,,,,,,,,,0,41,41,0,1,,,,,,,,,,,,,,,,,,,,,,,
,,,,,WIN24_047,21,female,2024-02-09_12h00.51.785,jersey_experiment_5,2023.2.2,Win32,84.74576271,,,,,,,,,,,,,,,,1098.9743,1100.774,1100.774,1101.9857,return,0.1883,,60.28645833,,,,,,FBP-PT-81.png,0.45,1.2,55,1,,,,,,,,,,,,,,,,,,0,42,42,54,1,,,,,,,,,,,,,,,,,,,,,,,
,,,,,WIN24_047,21,female,2024-02-09_12h00.51.785,jersey_experiment_5,2023.2.2,Win32,84.74576271,,,,,,,,,,,,,,,,1101.986,1103.28,1103.28,1104.6567,return,0.3796,,60.15625,,,,,,FBP-YG-19.png,0.43,1.2,44,0.5,,,,,,,,,,,,,,,,,,0,43,43,43,1,,,,,,,,,,,,,,,,,,,,,,,
,,,,,WIN24_047,21,female,2024-02-09_12h00.51.785,jersey_experiment_5,2023.2.2,Win32,84.74576271,,,,,,,,,,,,,,,,1104.657,1105.9506,1105.9506,1107.3744,return,0.2286,,47.52604167,,,,,,FBP-RB-91.png,0.4,1.2,28,0.5,,,,,,,,,,,,,,,,,,0,44,44,27,1,,,,,,,,,,,,,,,,,,,,,,,
,,,,,WIN24_047,21,female,2024-02-09_12h00.51.785,jersey_experiment_5,2023.2.2,Win32,84.74576271,,,,,,,,,,,,,,,,1107.3747,1108.6686,1108.6686,1112.139,return,2.2428,,52.734375,,,,,,FBP-RB-91.png,0.43,1.2,29,0.5,,,,,,,,,,,,,,,,,,0,45,45,28,1,,,,,,,,,,,,,,,,,,,,,,,
,,,,,WIN24_047,21,female,2024-02-09_12h00.51.785,jersey_experiment_5,2023.2.2,Win32,84.74576271,,,,,,,,,,,,,,,,1112.1391,1113.9393,1113.9393,1114.6217,return,0.1197,,60.15625,,,,,,FBP-PT-91.png,0.43,1.2,59,1,,,,,,,,,,,,,,,,,,0,46,46,58,1,,,,,,,,,,,,,,,,,,,,,,,
,,,,,WIN24_047,21,female,2024-02-09_12h00.51.785,jersey_experiment_5,2023.2.2,Win32,84.74576271,,,,,,,,,,,,,,,,1114.6219,1115.9158,1115.9158,1117.3864,return,0.1351,,60.28645833,,,,,,FBP-RB-91.png,0.45,1.2,30,0.5,,,,,,,,,,,,,,,,,,0,47,47,29,1,,,,,,,,,,,,,,,,,,,,,,,
,,,,,WIN24_047,21,female,2024-02-09_12h00.51.785,jersey_experiment_5,2023.2.2,Win32,84.74576271,,,,,,,,,,,,,,,,1117.3865,1118.6805,1118.6805,1148.5287,return,28.7778,,50.26041667,,,,,,FBP-YG-18.png,0.4,1.2,38,0.5,,,,,,,,,,,,,,,,,,0,48,48,37,1,,,,,,,,,,,,,,,,,,,,,,,
,,,,,WIN24_047,21,female,2024-02-09_12h00.51.785,jersey_experiment_5,2023.2.2,Win32,84.74576271,,,,,,,,,,,,,,,,1148.5332,1149.8346,1149.8346,1151.2464,return,0.178,,43.359375,,,,,,FBP-YG-19.png,0.4,1.2,43,0.5,,,,,,,,,,,,,,,,,,0,49,49,42,1,,,,,,,,,,,,,,,,,,,,,,,
,,,,,WIN24_047,21,female,2024-02-09_12h00.51.785,jersey_experiment_5,2023.2.2,Win32,84.74576271,,,,,,,,,,,,,,,,1151.2467,1152.5406,1152.5406,1153.5642,return,0.0982,,56.640625,,,,,,FBP-YG-18.png,0.43,1.2,39,0.5,,,,,,,,,,,,,,,,,,0,50,50,38,1,,,,,,,,,,,,,,,,,,,,,,,
,,,,,WIN24_047,21,female,2024-02-09_12h00.51.785,jersey_experiment_5,2023.2.2,Win32,84.74576271,,,,,,,,,,,,,,,,1153.5644,1155.3643,1155.3643,1156.5761,return,0.1792,,25.390625,,,,,,FBP-OG-19.png,0.35,1.2,11,1,,,,,,,,,,,,,,,,,,0,51,51,10,1,,,,,,,,,,,,,,,,,,,,,,,
,,,,,WIN24_047,21,female,2024-02-09_12h00.51.785,jersey_experiment_5,2023.2.2,Win32,84.74576271,,,,,,,,,,,,,,,,1156.5763,1157.8702,1157.8703,1159.0232,return,0.1325,,37.5,,,,,,FBP-RB-71.png,0.4,1.2,18,0.5,,,,,,,,,,,,,,,,,,0,52,52,17,1,,,,,,,,,,,,,,,,,,,,,,,
,,,,,WIN24_047,21,female,2024-02-09_12h00.51.785,jersey_experiment_5,2023.2.2,Win32,84.74576271,,,,,,,,,,,,,,,,1159.0234,1160.8233,1160.8233,1161.8233,return,0.1325,,31.38020833,,,,,,FBP-PT-71.png,0.37,1.2,47,1,,,,,,,,,,,,,,,,,,0,53,53,46,1,,,,,,,,,,,,,,,,,,,,,,,
,,,,,WIN24_047,21,female,2024-02-09_12h00.51.785,jersey_experiment_5,2023.2.2,Win32,84.74576271,,,,,,,,,,,,,,,,1161.8235,1163.1175,1163.1175,1164.3057,return,0.1654,,67.1875,,,,,,FBP-YG-18.png,0.45,1.2,40,0.5,,,,,,,,,,,,,,,,,,0,54,54,39,1,,,,,,,,,,,,,,,,,,,,,,,
,,,,,WIN24_047,21,female,2024-02-09_12h00.51.785,jersey_experiment_5,2023.2.2,Win32,84.74576271,,,,,,,,,,,,,,,,1164.3059,1166.106,1166.106,1167.2119,return,0.2301,,27.99479167,,,,,,FBP-PT-81.png,0.35,1.2,51,1,,,,,,,,,,,,,,,,,,0,55,55,50,1,,,,,,,,,,,,,,,,,,,,,,,
,,,,,WIN24_047,21,female,2024-02-09_12h00.51.785,jersey_experiment_5,2023.2.2,Win32,84.74576271,,,,,,,,,,,,,,,,1167.2121,1169.0118,1169.0118,1170.0825,return,0.2357,,63.15104167,,,,,,FBP-PT-91.png,0.45,1.2,60,1,,,,,,,,,,,,,,,,,,0,56,56,59,1,,,,,,,,,,,,,,,,,,,,,,,
,,,,,WIN24_047,21,female,2024-02-09_12h00.51.785,jersey_experiment_5,2023.2.2,Win32,84.74576271,,,,,,,,,,,,,,,,1170.0826,1171.3766,1171.3766,1172.659,return,0.1743,,35.67708333,,,,,,FBP-YG-18.png,0.35,1.2,36,0.5,,,,,,,,,,,,,,,,,,0,57,57,35,1,,,,,,,,,,,,,,,,,,,,,,,
,,,,,WIN24_047,21,female,2024-02-09_12h00.51.785,jersey_experiment_5,2023.2.2,Win32,84.74576271,,,,,,,,,,,,,,,,1172.6592,1173.9531,1173.9532,1175.4119,return,0.1273,,74.34895833,,,,,,FBP-RB-71.png,0.45,1.2,20,0.5,,,,,,,,,,,,,,,,,,0,58,58,19,1,,,,,,,,,,,,,,,,,,,,,,,
,,,,,WIN24_047,21,female,2024-02-09_12h00.51.785,jersey_experiment_5,2023.2.2,Win32,84.74576271,,,,,,,,,,,,,,,,1175.4122,1176.7061,1176.7062,1178.5769,return,0.212,,35.41666667,,,,,,FBP-RB-71.png,0.35,1.2,16,0.5,,,,,,,,,,,,,,,,,,0,59,59,15,1,,,,,,,,,,,,,,,,,,,,,,,
,,,,,WIN24_047,21,female,2024-02-09_12h00.51.785,jersey_experiment_5,2023.2.2,Win32,84.74576271,,,,,,,,,,,,,,,,,,,,,,,,,,,,,,,,,,,,,,,,,,,,,,,,,,,,,,,,1178.5773,1184.8832,return,6.2963,,,,,,,,,,,,,,,,,,,
,,,,,WIN24_047,21,female,2024-02-09_12h00.51.785,jersey_experiment_5,2023.2.2,Win32,84.74576271,,,,,,,,,,,,,,,,,,,,,,,,,,,,,,,,,,,,,,,,,,,,,,,,,,,,,,,,,,,,,1184.8833,1197.1776,1,7.8734,return,4.4084,,,,,,,,,,,,
,,,,,WIN24_047,21,female,2024-02-09_12h00.51.785,jersey_experiment_5,2023.2.2,Win32,84.74576271,,,,,,,,,,,,,,,,,,,,,,,,,,,,,,,,,,,,,,,,,,,,,,,,,,,,,,,,,,,,,,,,,,,,1197.182,1296.3039,"I would guess that the study has something to do with the way we perceive size as a function of the football player's jersey color, skin color, or the order in which different sized football players were presented. I did not really recognize any patterns in the experiment. ",right,77.2545,,,,,,
,,,,,WIN24_047,21,female,2024-02-09_12h00.51.785,jersey_experiment_5,2023.2.2,Win32,84.74576271,,,,,,,,,,,,,,,,,,,,,,,,,,,,,,,,,,,,,,,,,,,,,,,,,,,,,,,,,,,,,,,,,,,,,,,,,,1296.3039,1301.0285,return,4.7143,