requirements.started,requirements.stopped,key_resp_3.keys,key_resp_3.rt,key_resp_3.duration,Subject ID,Age,Gender,date,expName,psychopyVersion,OS,frameRate,instructions1.started,instructions1.stopped,key_resp.keys,key_resp.rt,key_resp.duration,example.started,example.stopped,enter_2.keys,enter_2.rt,enter_2.duration,instructions2.started,instructions2.stopped,enter_3.keys,enter_3.rt,enter_3.duration,image.started,image.stopped,slider_2.started,slider_2.stopped,next.keys,next.rt,next.duration,slider.response,trial_block_1.thisRepN,trial_block_1.thisTrialN,trial_block_1.thisN,trial_block_1.thisIndex,trial_block_1.ran,Path,Width,Height,Index,Duration,trial_block_2.thisRepN,trial_block_2.thisTrialN,trial_block_2.thisN,trial_block_2.thisIndex,trial_block_2.ran,rest_break.started,rest_break.stopped,end_break.started,end_break.stopped,key_resp_5.keys,key_resp_5.rt,key_resp_5.duration,trial_block_3.thisRepN,trial_block_3.thisTrialN,trial_block_3.thisN,trial_block_3.thisIndex,trial_block_3.ran,trial_block_4.thisRepN,trial_block_4.thisTrialN,trial_block_4.thisN,trial_block_4.thisIndex,trial_block_4.ran,questions_intro.started,questions_intro.stopped,enter_12.keys,enter_12.rt,enter_12.duration,question2.started,question2.stopped,question_doingbest.response,question_doingbest.rt,enter_15.keys,enter_15.rt,enter_15.duration,pattern.started,pattern.stopped,pattern_2.text,enter_17.keys,enter_17.rt,enter_17.duration,thankyou.started,thankyou.stopped,enter_14.keys,enter_14.rt,enter_14.duration
0,15.6803,return,15.6681,,WIN24_038,22,Female,2024-02-06_14h32.53.366,jersey_experiment_5,2023.2.2,Win32,85.47008547,,,,,,,,,,,,,,,,,,,,,,,,,,,,,,,,,,,,,,,,,,,,,,,,,,,,,,,,,,,,,,,,,,,,,,,,,,,,,,
,,,,,WIN24_038,22,Female,2024-02-06_14h32.53.366,jersey_experiment_5,2023.2.2,Win32,85.47008547,15.6804,27.6453,return,11.9434,,,,,,,,,,,,,,,,,,,,,,,,,,,,,,,,,,,,,,,,,,,,,,,,,,,,,,,,,,,,,,,,,,,,,,,,,,
,,,,,WIN24_038,22,Female,2024-02-06_14h32.53.366,jersey_experiment_5,2023.2.2,Win32,85.47008547,,,,,,27.6454,33.3397,return,5.6549,,,,,,,,,,,,,,,,,,,,,,,,,,,,,,,,,,,,,,,,,,,,,,,,,,,,,,,,,,,,,,,,,,,,,
,,,,,WIN24_038,22,Female,2024-02-06_14h32.53.366,jersey_experiment_5,2023.2.2,Win32,85.47008547,,,,,,,,,,,33.3399,54.5405,return,21.1787,,,,,,,,,,,,,,,,,,,,,,,,,,,,,,,,,,,,,,,,,,,,,,,,,,,,,,,,,,,,,,,,
,,,,,WIN24_038,22,Female,2024-02-06_14h32.53.366,jersey_experiment_5,2023.2.2,Win32,85.47008547,,,,,,,,,,,,,,,,54.5469,55.8462,55.8463,63.176,return,1.8411,,74.21875,0,0,0,5,1,FBP-OG-81.png,0.35,1.2,6,0.5,,,,,,,,,,,,,,,,,,,,,,,,,,,,,,,,,,,,,,,,,,,,,
,,,,,WIN24_038,22,Female,2024-02-06_14h32.53.366,jersey_experiment_5,2023.2.2,Win32,85.47008547,,,,,,,,,,,,,,,,63.1762,64.47,64.4701,69.7879,return,3.1215,,81.25,0,1,1,59,1,FBP-PT-19.png,0.45,1.2,60,0.5,,,,,,,,,,,,,,,,,,,,,,,,,,,,,,,,,,,,,,,,,,,,,
,,,,,WIN24_038,22,Female,2024-02-06_14h32.53.366,jersey_experiment_5,2023.2.2,Win32,85.47008547,,,,,,,,,,,,,,,,69.7882,71.5877,71.5877,76.2704,return,1.6111,,75,0,2,2,27,1,FBP-RB-19.png,0.4,1.2,28,1,,,,,,,,,,,,,,,,,,,,,,,,,,,,,,,,,,,,,,,,,,,,,
,,,,,WIN24_038,22,Female,2024-02-06_14h32.53.366,jersey_experiment_5,2023.2.2,Win32,85.47008547,,,,,,,,,,,,,,,,76.2706,78.0706,78.0706,83.0824,return,1.3112,,33.07291667,0,3,3,26,1,FBP-RB-19.png,0.37,1.2,27,1,,,,,,,,,,,,,,,,,,,,,,,,,,,,,,,,,,,,,,,,,,,,,
,,,,,WIN24_038,22,Female,2024-02-06_14h32.53.366,jersey_experiment_5,2023.2.2,Win32,85.47008547,,,,,,,,,,,,,,,,83.0826,84.3767,84.3767,87.0708,return,1.1066,,37.890625,0,4,4,50,1,FBP-PT-18.png,0.35,1.2,51,0.5,,,,,,,,,,,,,,,,,,,,,,,,,,,,,,,,,,,,,,,,,,,,,
,,,,,WIN24_038,22,Female,2024-02-06_14h32.53.366,jersey_experiment_5,2023.2.2,Win32,85.47008547,,,,,,,,,,,,,,,,87.071,88.8707,88.8708,92.4121,return,0.8977,,75.13020833,0,5,5,23,1,FBP-RB-18.png,0.43,1.2,24,1,,,,,,,,,,,,,,,,,,,,,,,,,,,,,,,,,,,,,,,,,,,,,
,,,,,WIN24_038,22,Female,2024-02-06_14h32.53.366,jersey_experiment_5,2023.2.2,Win32,85.47008547,,,,,,,,,,,,,,,,92.4123,94.2122,94.2122,97.2476,return,0.7529,,76.953125,0,6,6,37,1,FBP-YG-81.png,0.4,1.2,38,1,,,,,,,,,,,,,,,,,,,,,,,,,,,,,,,,,,,,,,,,,,,,,
,,,,,WIN24_038,22,Female,2024-02-06_14h32.53.366,jersey_experiment_5,2023.2.2,Win32,85.47008547,,,,,,,,,,,,,,,,97.2479,99.0476,99.0476,102.7537,return,0.7667,,87.63020833,0,7,7,38,1,FBP-YG-81.png,0.43,1.2,39,1,,,,,,,,,,,,,,,,,,,,,,,,,,,,,,,,,,,,,,,,,,,,,
,,,,,WIN24_038,22,Female,2024-02-06_14h32.53.366,jersey_experiment_5,2023.2.2,Win32,85.47008547,,,,,,,,,,,,,,,,102.7539,104.0479,104.0479,110.2246,return,3.3885,,33.07291667,0,8,8,6,1,FBP-OG-81.png,0.37,1.2,7,0.5,,,,,,,,,,,,,,,,,,,,,,,,,,,,,,,,,,,,,,,,,,,,,
,,,,,WIN24_038,22,Female,2024-02-06_14h32.53.366,jersey_experiment_5,2023.2.2,Win32,85.47008547,,,,,,,,,,,,,,,,110.2247,112.0247,112.0247,116.5425,return,2.5789,,14.58333333,0,9,9,40,1,FBP-YG-91.png,0.35,1.2,41,1,,,,,,,,,,,,,,,,,,,,,,,,,,,,,,,,,,,,,,,,,,,,,
,,,,,WIN24_038,22,Female,2024-02-06_14h32.53.366,jersey_experiment_5,2023.2.2,Win32,85.47008547,,,,,,,,,,,,,,,,116.5427,117.8366,117.8367,122.8132,return,0.8257,,74.34895833,0,10,10,47,1,FBP-PT-17.png,0.4,1.2,48,0.5,,,,,,,,,,,,,,,,,,,,,,,,,,,,,,,,,,,,,,,,,,,,,
,,,,,WIN24_038,22,Female,2024-02-06_14h32.53.366,jersey_experiment_5,2023.2.2,Win32,85.47008547,,,,,,,,,,,,,,,,122.8133,124.1074,124.1074,127.3546,return,1.1346,,74.34895833,0,11,11,51,1,FBP-PT-18.png,0.37,1.2,52,0.5,,,,,,,,,,,,,,,,,,,,,,,,,,,,,,,,,,,,,,,,,,,,,
,,,,,WIN24_038,22,Female,2024-02-06_14h32.53.366,jersey_experiment_5,2023.2.2,Win32,85.47008547,,,,,,,,,,,,,,,,127.3548,128.6488,128.6488,131.2961,return,0.9076,,89.453125,0,12,12,49,1,FBP-PT-17.png,0.45,1.2,50,0.5,,,,,,,,,,,,,,,,,,,,,,,,,,,,,,,,,,,,,,,,,,,,,
,,,,,WIN24_038,22,Female,2024-02-06_14h32.53.366,jersey_experiment_5,2023.2.2,Win32,85.47008547,,,,,,,,,,,,,,,,131.2963,132.5902,132.5902,134.6844,return,0.7316,,93.359375,0,13,13,4,1,FBP-OG-71.png,0.45,1.2,5,0.5,,,,,,,,,,,,,,,,,,,,,,,,,,,,,,,,,,,,,,,,,,,,,
,,,,,WIN24_038,22,Female,2024-02-06_14h32.53.366,jersey_experiment_5,2023.2.2,Win32,85.47008547,,,,,,,,,,,,,,,,134.6846,136.4844,136.4844,138.9668,return,0.7365,,93.359375,0,14,14,44,1,FBP-YG-91.png,0.45,1.2,45,1,,,,,,,,,,,,,,,,,,,,,,,,,,,,,,,,,,,,,,,,,,,,,
,,,,,WIN24_038,22,Female,2024-02-06_14h32.53.366,jersey_experiment_5,2023.2.2,Win32,85.47008547,,,,,,,,,,,,,,,,138.967,140.261,140.261,143.6965,return,0.814,,86.06770833,0,15,15,48,1,FBP-PT-17.png,0.43,1.2,49,0.5,,,,,,,,,,,,,,,,,,,,,,,,,,,,,,,,,,,,,,,,,,,,,
,,,,,WIN24_038,22,Female,2024-02-06_14h32.53.366,jersey_experiment_5,2023.2.2,Win32,85.47008547,,,,,,,,,,,,,,,,143.6966,145.4965,145.4965,149.7554,return,0.7202,,13.54166667,0,16,16,31,1,FBP-YG-71.png,0.37,1.2,32,1,,,,,,,,,,,,,,,,,,,,,,,,,,,,,,,,,,,,,,,,,,,,,
,,,,,WIN24_038,22,Female,2024-02-06_14h32.53.366,jersey_experiment_5,2023.2.2,Win32,85.47008547,,,,,,,,,,,,,,,,149.7556,151.0496,151.0496,159.3443,return,0.6499,,50.26041667,0,17,17,12,1,FBP-OG-91.png,0.4,1.2,13,0.5,,,,,,,,,,,,,,,,,,,,,,,,,,,,,,,,,,,,,,,,,,,,,
,,,,,WIN24_038,22,Female,2024-02-06_14h32.53.366,jersey_experiment_5,2023.2.2,Win32,85.47008547,,,,,,,,,,,,,,,,159.3446,160.6384,160.6384,163.6148,return,0.6361,,75.390625,0,18,18,3,1,FBP-OG-71.png,0.43,1.2,4,0.5,,,,,,,,,,,,,,,,,,,,,,,,,,,,,,,,,,,,,,,,,,,,,
,,,,,WIN24_038,22,Female,2024-02-06_14h32.53.366,jersey_experiment_5,2023.2.2,Win32,85.47008547,,,,,,,,,,,,,,,,163.615,165.4149,165.4149,167.262,return,0.6841,,49.34895833,0,19,19,25,1,FBP-RB-19.png,0.35,1.2,26,1,,,,,,,,,,,,,,,,,,,,,,,,,,,,,,,,,,,,,,,,,,,,,
,,,,,WIN24_038,22,Female,2024-02-06_14h32.53.366,jersey_experiment_5,2023.2.2,Win32,85.47008547,,,,,,,,,,,,,,,,167.2621,168.556,168.5561,173.4858,return,3.0021,,86.06770833,0,20,20,14,1,FBP-OG-91.png,0.45,1.2,15,0.5,,,,,,,,,,,,,,,,,,,,,,,,,,,,,,,,,,,,,,,,,,,,,
,,,,,WIN24_038,22,Female,2024-02-06_14h32.53.366,jersey_experiment_5,2023.2.2,Win32,85.47008547,,,,,,,,,,,,,,,,173.4861,174.7799,174.78,179.3095,return,0.7315,,50,0,21,21,57,1,FBP-PT-19.png,0.4,1.2,58,0.5,,,,,,,,,,,,,,,,,,,,,,,,,,,,,,,,,,,,,,,,,,,,,
,,,,,WIN24_038,22,Female,2024-02-06_14h32.53.366,jersey_experiment_5,2023.2.2,Win32,85.47008547,,,,,,,,,,,,,,,,179.3098,181.1097,181.1097,184.9098,return,0.623,,85.15625,0,22,22,24,1,FBP-RB-18.png,0.45,1.2,25,1,,,,,,,,,,,,,,,,,,,,,,,,,,,,,,,,,,,,,,,,,,,,,
,,,,,WIN24_038,22,Female,2024-02-06_14h32.53.366,jersey_experiment_5,2023.2.2,Win32,85.47008547,,,,,,,,,,,,,,,,184.9101,186.7098,186.7098,189.4392,return,0.6819,,86.84895833,0,23,23,34,1,FBP-YG-71.png,0.45,1.2,35,1,,,,,,,,,,,,,,,,,,,,,,,,,,,,,,,,,,,,,,,,,,,,,
,,,,,WIN24_038,22,Female,2024-02-06_14h32.53.366,jersey_experiment_5,2023.2.2,Win32,85.47008547,,,,,,,,,,,,,,,,189.4394,190.7335,190.7335,193.3101,return,0.7782,,15.88541667,0,24,24,0,1,FBP-OG-71.png,0.35,1.2,1,0.5,,,,,,,,,,,,,,,,,,,,,,,,,,,,,,,,,,,,,,,,,,,,,
,,,,,WIN24_038,22,Female,2024-02-06_14h32.53.366,jersey_experiment_5,2023.2.2,Win32,85.47008547,,,,,,,,,,,,,,,,193.3102,195.1102,195.1102,197.5338,return,0.6259,,49.21875,0,25,25,41,1,FBP-YG-91.png,0.37,1.2,42,1,,,,,,,,,,,,,,,,,,,,,,,,,,,,,,,,,,,,,,,,,,,,,
,,,,,WIN24_038,22,Female,2024-02-06_14h32.53.366,jersey_experiment_5,2023.2.2,Win32,85.47008547,,,,,,,,,,,,,,,,197.5339,198.8278,198.8278,205.1458,return,2.1239,,74.609375,0,26,26,7,1,FBP-OG-81.png,0.4,1.2,8,0.5,,,,,,,,,,,,,,,,,,,,,,,,,,,,,,,,,,,,,,,,,,,,,
,,,,,WIN24_038,22,Female,2024-02-06_14h32.53.366,jersey_experiment_5,2023.2.2,Win32,85.47008547,,,,,,,,,,,,,,,,205.1459,206.44,206.44,208.5225,return,0.6526,,85.15625,0,27,27,13,1,FBP-OG-91.png,0.43,1.2,14,0.5,,,,,,,,,,,,,,,,,,,,,,,,,,,,,,,,,,,,,,,,,,,,,
,,,,,WIN24_038,22,Female,2024-02-06_14h32.53.366,jersey_experiment_5,2023.2.2,Win32,85.47008547,,,,,,,,,,,,,,,,208.5227,209.8165,209.8166,212.1225,return,0.6858,,24.08854167,0,28,28,1,1,FBP-OG-71.png,0.37,1.2,2,0.5,,,,,,,,,,,,,,,,,,,,,,,,,,,,,,,,,,,,,,,,,,,,,
,,,,,WIN24_038,22,Female,2024-02-06_14h32.53.366,jersey_experiment_5,2023.2.2,Win32,85.47008547,,,,,,,,,,,,,,,,212.1228,213.9226,213.9226,215.8991,return,0.7576,,73.56770833,0,29,29,33,1,FBP-YG-71.png,0.43,1.2,34,1,,,,,,,,,,,,,,,,,,,,,,,,,,,,,,,,,,,,,,,,,,,,,
,,,,,WIN24_038,22,Female,2024-02-06_14h32.53.366,jersey_experiment_5,2023.2.2,Win32,85.47008547,,,,,,,,,,,,,,,,215.8993,217.6993,217.6993,222.7464,return,3.0875,,15.75520833,0,30,30,15,1,FBP-RB-17.png,0.35,1.2,16,1,,,,,,,,,,,,,,,,,,,,,,,,,,,,,,,,,,,,,,,,,,,,,
,,,,,WIN24_038,22,Female,2024-02-06_14h32.53.366,jersey_experiment_5,2023.2.2,Win32,85.47008547,,,,,,,,,,,,,,,,222.7466,224.5466,224.5466,225.8172,return,0.5931,,15.75520833,0,31,31,21,1,FBP-RB-18.png,0.37,1.2,22,1,,,,,,,,,,,,,,,,,,,,,,,,,,,,,,,,,,,,,,,,,,,,,
,,,,,WIN24_038,22,Female,2024-02-06_14h32.53.366,jersey_experiment_5,2023.2.2,Win32,85.47008547,,,,,,,,,,,,,,,,225.8174,227.6171,227.6171,230.1938,return,0.6598,,51.04166667,0,32,32,32,1,FBP-YG-71.png,0.4,1.2,33,1,,,,,,,,,,,,,,,,,,,,,,,,,,,,,,,,,,,,,,,,,,,,,
,,,,,WIN24_038,22,Female,2024-02-06_14h32.53.366,jersey_experiment_5,2023.2.2,Win32,85.47008547,,,,,,,,,,,,,,,,230.194,231.994,231.994,233.8998,return,1.0257,,26.43229167,0,33,33,20,1,FBP-RB-18.png,0.35,1.2,21,1,,,,,,,,,,,,,,,,,,,,,,,,,,,,,,,,,,,,,,,,,,,,,
,,,,,WIN24_038,22,Female,2024-02-06_14h32.53.366,jersey_experiment_5,2023.2.2,Win32,85.47008547,,,,,,,,,,,,,,,,233.9,235.194,235.194,236.8174,return,0.622,,24.86979167,0,34,34,55,1,FBP-PT-19.png,0.35,1.2,56,0.5,,,,,,,,,,,,,,,,,,,,,,,,,,,,,,,,,,,,,,,,,,,,,
,,,,,WIN24_038,22,Female,2024-02-06_14h32.53.366,jersey_experiment_5,2023.2.2,Win32,85.47008547,,,,,,,,,,,,,,,,236.8177,238.6176,238.6176,245.1355,return,4.1322,,55.46875,0,35,35,22,1,FBP-RB-18.png,0.4,1.2,23,1,,,,,,,,,,,,,,,,,,,,,,,,,,,,,,,,,,,,,,,,,,,,,
,,,,,WIN24_038,22,Female,2024-02-06_14h32.53.366,jersey_experiment_5,2023.2.2,Win32,85.47008547,,,,,,,,,,,,,,,,245.1357,246.9356,246.9356,248.4178,return,0.6689,,76.04166667,0,36,36,29,1,FBP-RB-19.png,0.45,1.2,30,1,,,,,,,,,,,,,,,,,,,,,,,,,,,,,,,,,,,,,,,,,,,,,
,,,,,WIN24_038,22,Female,2024-02-06_14h32.53.366,jersey_experiment_5,2023.2.2,Win32,85.47008547,,,,,,,,,,,,,,,,248.418,250.2182,250.2183,253.2888,return,0.6423,,28.64583333,0,37,37,35,1,FBP-YG-81.png,0.35,1.2,36,1,,,,,,,,,,,,,,,,,,,,,,,,,,,,,,,,,,,,,,,,,,,,,
,,,,,WIN24_038,22,Female,2024-02-06_14h32.53.366,jersey_experiment_5,2023.2.2,Win32,85.47008547,,,,,,,,,,,,,,,,253.289,254.583,254.583,259.6773,return,3.4828,,49.08854167,0,38,38,58,1,FBP-PT-19.png,0.43,1.2,59,0.5,,,,,,,,,,,,,,,,,,,,,,,,,,,,,,,,,,,,,,,,,,,,,
,,,,,WIN24_038,22,Female,2024-02-06_14h32.53.366,jersey_experiment_5,2023.2.2,Win32,85.47008547,,,,,,,,,,,,,,,,259.6775,260.9714,260.9714,268.1833,return,2.2072,,25.26041667,0,39,39,46,1,FBP-PT-17.png,0.37,1.2,47,0.5,,,,,,,,,,,,,,,,,,,,,,,,,,,,,,,,,,,,,,,,,,,,,
,,,,,WIN24_038,22,Female,2024-02-06_14h32.53.366,jersey_experiment_5,2023.2.2,Win32,85.47008547,,,,,,,,,,,,,,,,268.1835,269.9835,269.9836,271.0541,return,0.5195,,25.26041667,0,40,40,16,1,FBP-RB-17.png,0.37,1.2,17,1,,,,,,,,,,,,,,,,,,,,,,,,,,,,,,,,,,,,,,,,,,,,,
,,,,,WIN24_038,22,Female,2024-02-06_14h32.53.366,jersey_experiment_5,2023.2.2,Win32,85.47008547,,,,,,,,,,,,,,,,271.0544,272.8544,272.8544,274.7014,return,0.7555,,64.0625,0,41,41,28,1,FBP-RB-19.png,0.43,1.2,29,1,,,,,,,,,,,,,,,,,,,,,,,,,,,,,,,,,,,,,,,,,,,,,
,,,,,WIN24_038,22,Female,2024-02-06_14h32.53.366,jersey_experiment_5,2023.2.2,Win32,85.47008547,,,,,,,,,,,,,,,,274.7016,275.9956,275.9956,277.3602,return,0.6123,,50.78125,0,42,42,8,1,FBP-OG-81.png,0.43,1.2,9,0.5,,,,,,,,,,,,,,,,,,,,,,,,,,,,,,,,,,,,,,,,,,,,,
,,,,,WIN24_038,22,Female,2024-02-06_14h32.53.366,jersey_experiment_5,2023.2.2,Win32,85.47008547,,,,,,,,,,,,,,,,277.3605,278.6545,278.6546,279.8193,return,0.5813,,50.78125,0,43,43,54,1,FBP-PT-18.png,0.45,1.2,55,0.5,,,,,,,,,,,,,,,,,,,,,,,,,,,,,,,,,,,,,,,,,,,,,
,,,,,WIN24_038,22,Female,2024-02-06_14h32.53.366,jersey_experiment_5,2023.2.2,Win32,85.47008547,,,,,,,,,,,,,,,,279.8194,281.6193,281.6193,284.4664,return,1.4345,,71.35416667,0,44,44,43,1,FBP-YG-91.png,0.43,1.2,44,1,,,,,,,,,,,,,,,,,,,,,,,,,,,,,,,,,,,,,,,,,,,,,
,,,,,WIN24_038,22,Female,2024-02-06_14h32.53.366,jersey_experiment_5,2023.2.2,Win32,85.47008547,,,,,,,,,,,,,,,,284.4667,286.2667,286.2667,287.6429,return,0.6968,,66.53645833,0,45,45,39,1,FBP-YG-81.png,0.45,1.2,40,1,,,,,,,,,,,,,,,,,,,,,,,,,,,,,,,,,,,,,,,,,,,,,
,,,,,WIN24_038,22,Female,2024-02-06_14h32.53.366,jersey_experiment_5,2023.2.2,Win32,85.47008547,,,,,,,,,,,,,,,,287.6432,288.9371,288.9371,292.255,return,0.7161,,74.86979167,0,46,46,2,1,FBP-OG-71.png,0.4,1.2,3,0.5,,,,,,,,,,,,,,,,,,,,,,,,,,,,,,,,,,,,,,,,,,,,,
,,,,,WIN24_038,22,Female,2024-02-06_14h32.53.366,jersey_experiment_5,2023.2.2,Win32,85.47008547,,,,,,,,,,,,,,,,292.2551,294.055,294.055,296.714,return,0.653,,50.65104167,0,47,47,17,1,FBP-RB-17.png,0.4,1.2,18,1,,,,,,,,,,,,,,,,,,,,,,,,,,,,,,,,,,,,,,,,,,,,,
,,,,,WIN24_038,22,Female,2024-02-06_14h32.53.366,jersey_experiment_5,2023.2.2,Win32,85.47008547,,,,,,,,,,,,,,,,296.7143,298.0081,298.0081,302.4789,return,0.8377,,50.65104167,0,48,48,52,1,FBP-PT-18.png,0.4,1.2,53,0.5,,,,,,,,,,,,,,,,,,,,,,,,,,,,,,,,,,,,,,,,,,,,,
,,,,,WIN24_038,22,Female,2024-02-06_14h32.53.366,jersey_experiment_5,2023.2.2,Win32,85.47008547,,,,,,,,,,,,,,,,302.4791,304.2789,304.2789,306.5378,return,0.8059,,73.17708333,0,49,49,42,1,FBP-YG-91.png,0.4,1.2,43,1,,,,,,,,,,,,,,,,,,,,,,,,,,,,,,,,,,,,,,,,,,,,,
,,,,,WIN24_038,22,Female,2024-02-06_14h32.53.366,jersey_experiment_5,2023.2.2,Win32,85.47008547,,,,,,,,,,,,,,,,306.538,308.338,308.338,309.7615,return,0.7627,,80.859375,0,50,50,19,1,FBP-RB-17.png,0.45,1.2,20,1,,,,,,,,,,,,,,,,,,,,,,,,,,,,,,,,,,,,,,,,,,,,,
,,,,,WIN24_038,22,Female,2024-02-06_14h32.53.366,jersey_experiment_5,2023.2.2,Win32,85.47008547,,,,,,,,,,,,,,,,309.7618,311.0555,311.0556,314.9851,return,1.9221,,26.43229167,0,51,51,11,1,FBP-OG-91.png,0.37,1.2,12,0.5,,,,,,,,,,,,,,,,,,,,,,,,,,,,,,,,,,,,,,,,,,,,,
,,,,,WIN24_038,22,Female,2024-02-06_14h32.53.366,jersey_experiment_5,2023.2.2,Win32,85.47008547,,,,,,,,,,,,,,,,314.9854,316.2793,316.2793,320.6089,return,2.6121,,58.46354167,0,52,52,53,1,FBP-PT-18.png,0.43,1.2,54,0.5,,,,,,,,,,,,,,,,,,,,,,,,,,,,,,,,,,,,,,,,,,,,,
,,,,,WIN24_038,22,Female,2024-02-06_14h32.53.366,jersey_experiment_5,2023.2.2,Win32,85.47008547,,,,,,,,,,,,,,,,320.6091,321.9031,321.9032,339.5271,return,2.3618,,49.21875,0,53,53,9,1,FBP-OG-81.png,0.45,1.2,10,0.5,,,,,,,,,,,,,,,,,,,,,,,,,,,,,,,,,,,,,,,,,,,,,
,,,,,WIN24_038,22,Female,2024-02-06_14h32.53.366,jersey_experiment_5,2023.2.2,Win32,85.47008547,,,,,,,,,,,,,,,,339.5273,340.8214,340.8215,344.8569,return,1.4659,,8.203125,0,54,54,45,1,FBP-PT-17.png,0.35,1.2,46,0.5,,,,,,,,,,,,,,,,,,,,,,,,,,,,,,,,,,,,,,,,,,,,,
,,,,,WIN24_038,22,Female,2024-02-06_14h32.53.366,jersey_experiment_5,2023.2.2,Win32,85.47008547,,,,,,,,,,,,,,,,344.8571,346.6569,346.657,353.2807,return,2.9786,,23.30729167,0,55,55,30,1,FBP-YG-71.png,0.35,1.2,31,1,,,,,,,,,,,,,,,,,,,,,,,,,,,,,,,,,,,,,,,,,,,,,
,,,,,WIN24_038,22,Female,2024-02-06_14h32.53.366,jersey_experiment_5,2023.2.2,Win32,85.47008547,,,,,,,,,,,,,,,,353.2851,355.0806,355.0807,359.6456,return,2.214,,58.984375,0,56,56,36,1,FBP-YG-81.png,0.37,1.2,37,1,,,,,,,,,,,,,,,,,,,,,,,,,,,,,,,,,,,,,,,,,,,,,
,,,,,WIN24_038,22,Female,2024-02-06_14h32.53.366,jersey_experiment_5,2023.2.2,Win32,85.47008547,,,,,,,,,,,,,,,,359.6458,361.4459,361.4459,368.6343,return,5.7097,,84.63541667,0,57,57,18,1,FBP-RB-17.png,0.43,1.2,19,1,,,,,,,,,,,,,,,,,,,,,,,,,,,,,,,,,,,,,,,,,,,,,
,,,,,WIN24_038,22,Female,2024-02-06_14h32.53.366,jersey_experiment_5,2023.2.2,Win32,85.47008547,,,,,,,,,,,,,,,,368.6344,369.9284,369.9284,372.6815,return,0.7223,,48.4375,0,58,58,56,1,FBP-PT-19.png,0.37,1.2,57,0.5,,,,,,,,,,,,,,,,,,,,,,,,,,,,,,,,,,,,,,,,,,,,,
,,,,,WIN24_038,22,Female,2024-02-06_14h32.53.366,jersey_experiment_5,2023.2.2,Win32,85.47008547,,,,,,,,,,,,,,,,372.6817,373.9756,373.9756,376.5758,return,0.7671,,25.91145833,0,59,59,10,1,FBP-OG-91.png,0.35,1.2,11,0.5,,,,,,,,,,,,,,,,,,,,,,,,,,,,,,,,,,,,,,,,,,,,,
,,,,,WIN24_038,22,Female,2024-02-06_14h32.53.366,jersey_experiment_5,2023.2.2,Win32,85.47008547,,,,,,,,,,,,,,,,376.578,378.3757,378.3757,381.1524,return,0.7763,,50.26041667,,,,,,FBP-YG-18.png,0.4,1.2,38,1,0,0,0,37,1,,,,,,,,,,,,,,,,,,,,,,,,,,,,,,,,,,,,,,,,
,,,,,WIN24_038,22,Female,2024-02-06_14h32.53.366,jersey_experiment_5,2023.2.2,Win32,85.47008547,,,,,,,,,,,,,,,,381.1528,382.4466,382.4466,385.529,return,0.9102,,72.13541667,,,,,,FBP-OG-18.png,0.45,1.2,10,0.5,0,1,1,9,1,,,,,,,,,,,,,,,,,,,,,,,,,,,,,,,,,,,,,,,,
,,,,,WIN24_038,22,Female,2024-02-06_14h32.53.366,jersey_experiment_5,2023.2.2,Win32,85.47008547,,,,,,,,,,,,,,,,385.5293,386.8231,386.8231,389.0233,return,0.9313,,90.234375,,,,,,FBP-PT-91.png,0.43,1.2,59,0.5,0,2,2,58,1,,,,,,,,,,,,,,,,,,,,,,,,,,,,,,,,,,,,,,,,
,,,,,WIN24_038,22,Female,2024-02-06_14h32.53.366,jersey_experiment_5,2023.2.2,Win32,85.47008547,,,,,,,,,,,,,,,,389.0235,390.3175,390.3175,394.1411,return,1.6363,,87.23958333,,,,,,FBP-OG-19.png,0.43,1.2,14,0.5,0,3,3,13,1,,,,,,,,,,,,,,,,,,,,,,,,,,,,,,,,,,,,,,,,
,,,,,WIN24_038,22,Female,2024-02-06_14h32.53.366,jersey_experiment_5,2023.2.2,Win32,85.47008547,,,,,,,,,,,,,,,,394.1413,395.4352,395.4352,400.6355,return,3.7459,,75.26041667,,,,,,FBP-OG-17.png,0.45,1.2,5,0.5,0,4,4,4,1,,,,,,,,,,,,,,,,,,,,,,,,,,,,,,,,,,,,,,,,
,,,,,WIN24_038,22,Female,2024-02-06_14h32.53.366,jersey_experiment_5,2023.2.2,Win32,85.47008547,,,,,,,,,,,,,,,,400.6357,401.9296,401.9296,405.824,return,2.5315,,9.505208333,,,,,,FBP-OG-18.png,0.35,1.2,6,0.5,0,5,5,5,1,,,,,,,,,,,,,,,,,,,,,,,,,,,,,,,,,,,,,,,,
,,,,,WIN24_038,22,Female,2024-02-06_14h32.53.366,jersey_experiment_5,2023.2.2,Win32,85.47008547,,,,,,,,,,,,,,,,405.8242,407.1181,407.1181,409.5183,return,0.7783,,74.34895833,,,,,,FBP-OG-19.png,0.45,1.2,15,0.5,0,6,6,14,1,,,,,,,,,,,,,,,,,,,,,,,,,,,,,,,,,,,,,,,,
,,,,,WIN24_038,22,Female,2024-02-06_14h32.53.366,jersey_experiment_5,2023.2.2,Win32,85.47008547,,,,,,,,,,,,,,,,409.5185,411.3182,411.3182,416.4242,return,2.3135,,37.63020833,,,,,,FBP-YG-19.png,0.37,1.2,42,1,0,7,7,41,1,,,,,,,,,,,,,,,,,,,,,,,,,,,,,,,,,,,,,,,,
,,,,,WIN24_038,22,Female,2024-02-06_14h32.53.366,jersey_experiment_5,2023.2.2,Win32,85.47008547,,,,,,,,,,,,,,,,416.4244,418.2244,418.2244,424.0599,return,3.6026,,67.578125,,,,,,FBP-RB-81.png,0.45,1.2,25,1,0,8,8,24,1,,,,,,,,,,,,,,,,,,,,,,,,,,,,,,,,,,,,,,,,
,,,,,WIN24_038,22,Female,2024-02-06_14h32.53.366,jersey_experiment_5,2023.2.2,Win32,85.47008547,,,,,,,,,,,,,,,,424.0601,425.8599,425.8599,429.0718,return,0.8608,,75,,,,,,FBP-RB-71.png,0.45,1.2,20,1,0,9,9,19,1,,,,,,,,,,,,,,,,,,,,,,,,,,,,,,,,,,,,,,,,
,,,,,WIN24_038,22,Female,2024-02-06_14h32.53.366,jersey_experiment_5,2023.2.2,Win32,85.47008547,,,,,,,,,,,,,,,,429.072,430.8718,430.8718,435.8956,return,0.726,,13.93229167,,,,,,FBP-YG-19.png,0.35,1.2,41,1,0,10,10,40,1,,,,,,,,,,,,,,,,,,,,,,,,,,,,,,,,,,,,,,,,
,,,,,WIN24_038,22,Female,2024-02-06_14h32.53.366,jersey_experiment_5,2023.2.2,Win32,85.47008547,,,,,,,,,,,,,,,,435.8959,437.6956,437.6956,444.8253,return,1.4653,,74.34895833,,,,,,FBP-RB-91.png,0.43,1.2,29,1,0,11,11,28,1,,,,,,,,,,,,,,,,,,,,,,,,,,,,,,,,,,,,,,,,
,,,,,WIN24_038,22,Female,2024-02-06_14h32.53.366,jersey_experiment_5,2023.2.2,Win32,85.47008547,,,,,,,,,,,,,,,,444.8255,446.6255,446.6255,448.2843,return,0.6018,,49.34895833,,,,,,FBP-RB-71.png,0.37,1.2,17,1,0,12,12,16,1,,,,,,,,,,,,,,,,,,,,,,,,,,,,,,,,,,,,,,,,
,,,,,WIN24_038,22,Female,2024-02-06_14h32.53.366,jersey_experiment_5,2023.2.2,Win32,85.47008547,,,,,,,,,,,,,,,,448.2846,449.5785,449.5785,451.6256,return,0.7458,,13.671875,,,,,,FBP-OG-17.png,0.37,1.2,2,0.5,0,13,13,1,1,,,,,,,,,,,,,,,,,,,,,,,,,,,,,,,,,,,,,,,,
,,,,,WIN24_038,22,Female,2024-02-06_14h32.53.366,jersey_experiment_5,2023.2.2,Win32,85.47008547,,,,,,,,,,,,,,,,451.6258,453.4259,453.4259,454.9552,return,0.7696,,7.421875,,,,,,FBP-YG-17.png,0.35,1.2,31,1,0,14,14,30,1,,,,,,,,,,,,,,,,,,,,,,,,,,,,,,,,,,,,,,,,
,,,,,WIN24_038,22,Female,2024-02-06_14h32.53.366,jersey_experiment_5,2023.2.2,Win32,85.47008547,,,,,,,,,,,,,,,,454.9553,456.2493,456.2493,458.2729,return,0.7905,,73.95833333,,,,,,FBP-PT-71.png,0.45,1.2,50,0.5,0,15,15,49,1,,,,,,,,,,,,,,,,,,,,,,,,,,,,,,,,,,,,,,,,
,,,,,WIN24_038,22,Female,2024-02-06_14h32.53.366,jersey_experiment_5,2023.2.2,Win32,85.47008547,,,,,,,,,,,,,,,,458.2731,459.5671,459.5672,461.3907,return,0.6944,,49.34895833,,,,,,FBP-OG-19.png,0.4,1.2,13,0.5,0,16,16,12,1,,,,,,,,,,,,,,,,,,,,,,,,,,,,,,,,,,,,,,,,
,,,,,WIN24_038,22,Female,2024-02-06_14h32.53.366,jersey_experiment_5,2023.2.2,Win32,85.47008547,,,,,,,,,,,,,,,,461.3909,462.6848,462.6848,464.8024,return,0.8236,,12.109375,,,,,,FBP-OG-19.png,0.35,1.2,11,0.5,0,17,17,10,1,,,,,,,,,,,,,,,,,,,,,,,,,,,,,,,,,,,,,,,,
,,,,,WIN24_038,22,Female,2024-02-06_14h32.53.366,jersey_experiment_5,2023.2.2,Win32,85.47008547,,,,,,,,,,,,,,,,464.8027,466.6028,466.6029,468.0616,return,0.7529,,10.80729167,,,,,,FBP-RB-71.png,0.35,1.2,16,1,0,18,18,15,1,,,,,,,,,,,,,,,,,,,,,,,,,,,,,,,,,,,,,,,,
,,,,,WIN24_038,22,Female,2024-02-06_14h32.53.366,jersey_experiment_5,2023.2.2,Win32,85.47008547,,,,,,,,,,,,,,,,468.0618,469.3558,469.3558,472.8735,return,1.8757,,35.28645833,,,,,,FBP-OG-17.png,0.4,1.2,3,0.5,0,19,19,2,1,,,,,,,,,,,,,,,,,,,,,,,,,,,,,,,,,,,,,,,,
,,,,,WIN24_038,22,Female,2024-02-06_14h32.53.366,jersey_experiment_5,2023.2.2,Win32,85.47008547,,,,,,,,,,,,,,,,472.8736,474.1676,474.1676,478.7913,return,2.6793,,13.41145833,,,,,,FBP-PT-71.png,0.35,1.2,46,0.5,0,20,20,45,1,,,,,,,,,,,,,,,,,,,,,,,,,,,,,,,,,,,,,,,,
,,,,,WIN24_038,22,Female,2024-02-06_14h32.53.366,jersey_experiment_5,2023.2.2,Win32,85.47008547,,,,,,,,,,,,,,,,478.7915,480.5914,480.5914,485.2975,return,2.0941,,75.13020833,,,,,,FBP-RB-71.png,0.43,1.2,19,1,0,21,21,18,1,,,,,,,,,,,,,,,,,,,,,,,,,,,,,,,,,,,,,,,,
,,,,,WIN24_038,22,Female,2024-02-06_14h32.53.366,jersey_experiment_5,2023.2.2,Win32,85.47008547,,,,,,,,,,,,,,,,485.2977,487.0977,487.0977,491.1683,return,2.6833,,74.86979167,,,,,,FBP-RB-91.png,0.45,1.2,30,1,0,22,22,29,1,,,,,,,,,,,,,,,,,,,,,,,,,,,,,,,,,,,,,,,,
,,,,,WIN24_038,22,Female,2024-02-06_14h32.53.366,jersey_experiment_5,2023.2.2,Win32,85.47008547,,,,,,,,,,,,,,,,491.1685,492.9683,492.9683,495.2156,return,0.7902,,49.73958333,,,,,,FBP-YG-17.png,0.37,1.2,32,1,0,23,23,31,1,,,,,,,,,,,,,,,,,,,,,,,,,,,,,,,,,,,,,,,,
,,,,,WIN24_038,22,Female,2024-02-06_14h32.53.366,jersey_experiment_5,2023.2.2,Win32,85.47008547,,,,,,,,,,,,,,,,495.2159,497.0156,497.0156,498.3686,return,0.7294,,49.73958333,,,,,,FBP-RB-91.png,0.4,1.2,28,1,0,24,24,27,1,,,,,,,,,,,,,,,,,,,,,,,,,,,,,,,,,,,,,,,,
,,,,,WIN24_038,22,Female,2024-02-06_14h32.53.366,jersey_experiment_5,2023.2.2,Win32,85.47008547,,,,,,,,,,,,,,,,498.3688,500.1686,500.1686,502.2863,return,0.7548,,17.83854167,,,,,,FBP-RB-81.png,0.35,1.2,21,1,0,25,25,20,1,,,,,,,,,,,,,,,,,,,,,,,,,,,,,,,,,,,,,,,,
,,,,,WIN24_038,22,Female,2024-02-06_14h32.53.366,jersey_experiment_5,2023.2.2,Win32,85.47008547,,,,,,,,,,,,,,,,502.2865,503.5804,503.5804,506.3218,return,0.6354,,33.984375,,,,,,FBP-OG-19.png,0.37,1.2,12,0.5,0,26,26,11,1,,,,,,,,,,,,,,,,,,,,,,,,,,,,,,,,,,,,,,,,
,,,,,WIN24_038,22,Female,2024-02-06_14h32.53.366,jersey_experiment_5,2023.2.2,Win32,85.47008547,,,,,,,,,,,,,,,,506.3221,507.616,507.6161,509.6631,return,0.7302,,47.65625,,,,,,FBP-PT-71.png,0.4,1.2,48,0.5,0,27,27,47,1,,,,,,,,,,,,,,,,,,,,,,,,,,,,,,,,,,,,,,,,
,,,,,WIN24_038,22,Female,2024-02-06_14h32.53.366,jersey_experiment_5,2023.2.2,Win32,85.47008547,,,,,,,,,,,,,,,,509.6634,511.4632,511.4632,512.6985,return,0.6391,,48.828125,,,,,,FBP-YG-19.png,0.4,1.2,43,1,0,28,28,42,1,,,,,,,,,,,,,,,,,,,,,,,,,,,,,,,,,,,,,,,,
,,,,,WIN24_038,22,Female,2024-02-06_14h32.53.366,jersey_experiment_5,2023.2.2,Win32,85.47008547,,,,,,,,,,,,,,,,512.6988,513.9929,513.9929,521.1458,return,0.6162,,50.52083333,,,,,,FBP-PT-81.png,0.4,1.2,53,0.5,0,29,29,52,1,,,,,,,,,,,,,,,,,,,,,,,,,,,,,,,,,,,,,,,,
,,,,,WIN24_038,22,Female,2024-02-06_14h32.53.366,jersey_experiment_5,2023.2.2,Win32,85.47008547,,,,,,,,,,,,,,,,521.146,522.946,522.946,524.8167,return,1.1197,,28.125,,,,,,FBP-RB-81.png,0.37,1.2,22,1,0,30,30,21,1,,,,,,,,,,,,,,,,,,,,,,,,,,,,,,,,,,,,,,,,
,,,,,WIN24_038,22,Female,2024-02-06_14h32.53.366,jersey_experiment_5,2023.2.2,Win32,85.47008547,,,,,,,,,,,,,,,,524.8169,526.1109,526.1109,528.4755,return,0.7101,,15.234375,,,,,,FBP-PT-91.png,0.35,1.2,56,0.5,0,31,31,55,1,,,,,,,,,,,,,,,,,,,,,,,,,,,,,,,,,,,,,,,,
,,,,,WIN24_038,22,Female,2024-02-06_14h32.53.366,jersey_experiment_5,2023.2.2,Win32,85.47008547,,,,,,,,,,,,,,,,528.4758,530.2757,530.2757,534.3112,return,2.5739,,74.73958333,,,,,,FBP-RB-81.png,0.43,1.2,24,1,0,32,32,23,1,,,,,,,,,,,,,,,,,,,,,,,,,,,,,,,,,,,,,,,,
,,,,,WIN24_038,22,Female,2024-02-06_14h32.53.366,jersey_experiment_5,2023.2.2,Win32,85.47008547,,,,,,,,,,,,,,,,534.3116,536.1112,536.1113,537.7939,return,0.7162,,90.88541667,,,,,,FBP-YG-17.png,0.45,1.2,35,1,0,33,33,34,1,,,,,,,,,,,,,,,,,,,,,,,,,,,,,,,,,,,,,,,,
,,,,,WIN24_038,22,Female,2024-02-06_14h32.53.366,jersey_experiment_5,2023.2.2,Win32,85.47008547,,,,,,,,,,,,,,,,537.794,539.5937,539.5937,540.6995,return,0.6988,,90.88541667,,,,,,FBP-YG-19.png,0.45,1.2,45,1,0,34,34,44,1,,,,,,,,,,,,,,,,,,,,,,,,,,,,,,,,,,,,,,,,
,,,,,WIN24_038,22,Female,2024-02-06_14h32.53.366,jersey_experiment_5,2023.2.2,Win32,85.47008547,,,,,,,,,,,,,,,,540.6998,542.4998,542.4998,544.2879,return,0.7865,,13.15104167,,,,,,FBP-RB-91.png,0.35,1.2,26,1,0,35,35,25,1,,,,,,,,,,,,,,,,,,,,,,,,,,,,,,,,,,,,,,,,
,,,,,WIN24_038,22,Female,2024-02-06_14h32.53.366,jersey_experiment_5,2023.2.2,Win32,85.47008547,,,,,,,,,,,,,,,,544.2881,545.582,545.582,547.3115,return,0.6964,,31.25,,,,,,FBP-PT-91.png,0.4,1.2,58,0.5,0,36,36,57,1,,,,,,,,,,,,,,,,,,,,,,,,,,,,,,,,,,,,,,,,
,,,,,WIN24_038,22,Female,2024-02-06_14h32.53.366,jersey_experiment_5,2023.2.2,Win32,85.47008547,,,,,,,,,,,,,,,,547.3117,549.1117,549.1117,550.4882,return,0.6079,,49.609375,,,,,,FBP-RB-91.png,0.37,1.2,27,1,0,37,37,26,1,,,,,,,,,,,,,,,,,,,,,,,,,,,,,,,,,,,,,,,,
,,,,,WIN24_038,22,Female,2024-02-06_14h32.53.366,jersey_experiment_5,2023.2.2,Win32,85.47008547,,,,,,,,,,,,,,,,550.4884,552.2883,552.2883,554.2649,return,0.9486,,99.73958333,,,,,,FBP-YG-18.png,0.45,1.2,40,1,0,38,38,39,1,,,,,,,,,,,,,,,,,,,,,,,,,,,,,,,,,,,,,,,,
,,,,,WIN24_038,22,Female,2024-02-06_14h32.53.366,jersey_experiment_5,2023.2.2,Win32,85.47008547,,,,,,,,,,,,,,,,554.265,555.5589,555.5589,557.3354,return,0.6086,,75.26041667,,,,,,FBP-PT-81.png,0.45,1.2,55,0.5,0,39,39,54,1,,,,,,,,,,,,,,,,,,,,,,,,,,,,,,,,,,,,,,,,
,,,,,WIN24_038,22,Female,2024-02-06_14h32.53.366,jersey_experiment_5,2023.2.2,Win32,85.47008547,,,,,,,,,,,,,,,,557.3356,558.6297,558.6297,561.5827,return,0.7309,,86.97916667,,,,,,FBP-PT-91.png,0.45,1.2,60,0.5,0,40,40,59,1,,,,,,,,,,,,,,,,,,,,,,,,,,,,,,,,,,,,,,,,
,,,,,WIN24_038,22,Female,2024-02-06_14h32.53.366,jersey_experiment_5,2023.2.2,Win32,85.47008547,,,,,,,,,,,,,,,,561.5829,563.383,563.383,565.6888,return,0.7114,,67.578125,,,,,,FBP-YG-18.png,0.43,1.2,39,1,0,41,41,38,1,,,,,,,,,,,,,,,,,,,,,,,,,,,,,,,,,,,,,,,,
,,,,,WIN24_038,22,Female,2024-02-06_14h32.53.366,jersey_experiment_5,2023.2.2,Win32,85.47008547,,,,,,,,,,,,,,,,565.689,567.4886,567.4887,569.2418,return,0.616,,49.34895833,,,,,,FBP-RB-71.png,0.4,1.2,18,1,0,42,42,17,1,,,,,,,,,,,,,,,,,,,,,,,,,,,,,,,,,,,,,,,,
,,,,,WIN24_038,22,Female,2024-02-06_14h32.53.366,jersey_experiment_5,2023.2.2,Win32,85.47008547,,,,,,,,,,,,,,,,569.242,571.0418,571.0418,573.0655,return,0.5578,,38.41145833,,,,,,FBP-YG-18.png,0.37,1.2,37,1,0,43,43,36,1,,,,,,,,,,,,,,,,,,,,,,,,,,,,,,,,,,,,,,,,
,,,,,WIN24_038,22,Female,2024-02-06_14h32.53.366,jersey_experiment_5,2023.2.2,Win32,85.47008547,,,,,,,,,,,,,,,,573.0657,574.3596,574.3596,577.0186,return,0.6641,,10.15625,,,,,,FBP-OG-18.png,0.37,1.2,7,0.5,0,44,44,6,1,,,,,,,,,,,,,,,,,,,,,,,,,,,,,,,,,,,,,,,,
,,,,,WIN24_038,22,Female,2024-02-06_14h32.53.366,jersey_experiment_5,2023.2.2,Win32,85.47008547,,,,,,,,,,,,,,,,577.0189,578.8188,578.8188,580.8775,return,0.6851,,14.84375,,,,,,FBP-YG-18.png,0.35,1.2,36,1,0,45,45,35,1,,,,,,,,,,,,,,,,,,,,,,,,,,,,,,,,,,,,,,,,
,,,,,WIN24_038,22,Female,2024-02-06_14h32.53.366,jersey_experiment_5,2023.2.2,Win32,85.47008547,,,,,,,,,,,,,,,,580.8777,582.1716,582.1716,585.5013,return,1.3323,,26.69270833,,,,,,FBP-OG-18.png,0.4,1.2,8,0.5,0,46,46,7,1,,,,,,,,,,,,,,,,,,,,,,,,,,,,,,,,,,,,,,,,
,,,,,WIN24_038,22,Female,2024-02-06_14h32.53.366,jersey_experiment_5,2023.2.2,Win32,85.47008547,,,,,,,,,,,,,,,,585.5016,587.3014,587.3014,588.8308,return,0.6602,,50.52083333,,,,,,FBP-YG-19.png,0.43,1.2,44,1,0,47,47,43,1,,,,,,,,,,,,,,,,,,,,,,,,,,,,,,,,,,,,,,,,
,,,,,WIN24_038,22,Female,2024-02-06_14h32.53.366,jersey_experiment_5,2023.2.2,Win32,85.47008547,,,,,,,,,,,,,,,,588.831,590.1249,590.1249,597.6429,return,3.8289,,70.05208333,,,,,,FBP-PT-71.png,0.37,1.2,47,0.5,0,48,48,46,1,,,,,,,,,,,,,,,,,,,,,,,,,,,,,,,,,,,,,,,,
,,,,,WIN24_038,22,Female,2024-02-06_14h32.53.366,jersey_experiment_5,2023.2.2,Win32,85.47008547,,,,,,,,,,,,,,,,597.6431,599.4429,599.4429,601.2901,return,0.7004,,66.27604167,,,,,,FBP-RB-81.png,0.4,1.2,23,1,0,49,49,22,1,,,,,,,,,,,,,,,,,,,,,,,,,,,,,,,,,,,,,,,,
,,,,,WIN24_038,22,Female,2024-02-06_14h32.53.366,jersey_experiment_5,2023.2.2,Win32,85.47008547,,,,,,,,,,,,,,,,601.2903,602.5843,602.5844,604.255,return,0.7062,,66.27604167,,,,,,FBP-OG-18.png,0.43,1.2,9,0.5,0,50,50,8,1,,,,,,,,,,,,,,,,,,,,,,,,,,,,,,,,,,,,,,,,
,,,,,WIN24_038,22,Female,2024-02-06_14h32.53.366,jersey_experiment_5,2023.2.2,Win32,85.47008547,,,,,,,,,,,,,,,,604.2551,606.0549,606.055,610.867,return,3.8485,,50.52083333,,,,,,FBP-YG-17.png,0.4,1.2,33,1,0,51,51,32,1,,,,,,,,,,,,,,,,,,,,,,,,,,,,,,,,,,,,,,,,
,,,,,WIN24_038,22,Female,2024-02-06_14h32.53.366,jersey_experiment_5,2023.2.2,Win32,85.47008547,,,,,,,,,,,,,,,,610.8672,612.667,612.667,614.8317,return,1.2583,,84.765625,,,,,,FBP-YG-17.png,0.43,1.2,34,1,0,52,52,33,1,,,,,,,,,,,,,,,,,,,,,,,,,,,,,,,,,,,,,,,,
,,,,,WIN24_038,22,Female,2024-02-06_14h32.53.366,jersey_experiment_5,2023.2.2,Win32,85.47008547,,,,,,,,,,,,,,,,614.8319,616.1259,616.1259,618.7026,return,0.753,,10.9375,,,,,,FBP-PT-81.png,0.35,1.2,51,0.5,0,53,53,50,1,,,,,,,,,,,,,,,,,,,,,,,,,,,,,,,,,,,,,,,,
,,,,,WIN24_038,22,Female,2024-02-06_14h32.53.366,jersey_experiment_5,2023.2.2,Win32,85.47008547,,,,,,,,,,,,,,,,618.7028,619.9967,619.9967,623.5028,return,1.8601,,36.328125,,,,,,FBP-PT-81.png,0.37,1.2,52,0.5,0,54,54,51,1,,,,,,,,,,,,,,,,,,,,,,,,,,,,,,,,,,,,,,,,
,,,,,WIN24_038,22,Female,2024-02-06_14h32.53.366,jersey_experiment_5,2023.2.2,Win32,85.47008547,,,,,,,,,,,,,,,,623.503,624.7971,624.7971,628.2558,return,0.6833,,69.01041667,,,,,,FBP-PT-81.png,0.43,1.2,54,0.5,0,55,55,53,1,,,,,,,,,,,,,,,,,,,,,,,,,,,,,,,,,,,,,,,,
,,,,,WIN24_038,22,Female,2024-02-06_14h32.53.366,jersey_experiment_5,2023.2.2,Win32,85.47008547,,,,,,,,,,,,,,,,628.256,629.55,629.55,632.9737,return,2.4839,,17.05729167,,,,,,FBP-OG-17.png,0.35,1.2,1,0.5,0,56,56,0,1,,,,,,,,,,,,,,,,,,,,,,,,,,,,,,,,,,,,,,,,
,,,,,WIN24_038,22,Female,2024-02-06_14h32.53.366,jersey_experiment_5,2023.2.2,Win32,85.47008547,,,,,,,,,,,,,,,,632.9739,634.2678,634.2678,636.6562,return,0.2122,,75.78125,,,,,,FBP-PT-91.png,0.37,1.2,57,0.5,0,57,57,56,1,,,,,,,,,,,,,,,,,,,,,,,,,,,,,,,,,,,,,,,,
,,,,,WIN24_038,22,Female,2024-02-06_14h32.53.366,jersey_experiment_5,2023.2.2,Win32,85.47008547,,,,,,,,,,,,,,,,636.6565,637.9503,637.9503,639.7856,return,0.2397,,91.66666667,,,,,,FBP-OG-17.png,0.43,1.2,4,0.5,0,58,58,3,1,,,,,,,,,,,,,,,,,,,,,,,,,,,,,,,,,,,,,,,,
,,,,,WIN24_038,22,Female,2024-02-06_14h32.53.366,jersey_experiment_5,2023.2.2,Win32,85.47008547,,,,,,,,,,,,,,,,639.7858,641.0801,641.0801,642.3504,return,0.2491,,89.0625,,,,,,FBP-PT-71.png,0.43,1.2,49,0.5,0,59,59,48,1,,,,,,,,,,,,,,,,,,,,,,,,,,,,,,,,,,,,,,,,
,,,,,WIN24_038,22,Female,2024-02-06_14h32.53.366,jersey_experiment_5,2023.2.2,Win32,85.47008547,,,,,,,,,,,,,,,,,,,,,,,,,,,,,,,,,,,,,,,642.3507,762.3553,,,,,,,,,,,,,,,,,,,,,,,,,,,,,,,,,,,,,,
,,,,,WIN24_038,22,Female,2024-02-06_14h32.53.366,jersey_experiment_5,2023.2.2,Win32,85.47008547,,,,,,,,,,,,,,,,,,,,,,,,,,,,,,,,,,,,,,,,,762.3554,766.1198,return,3.7603,,,,,,,,,,,,,,,,,,,,,,,,,,,,,,,,,,
,,,,,WIN24_038,22,Female,2024-02-06_14h32.53.366,jersey_experiment_5,2023.2.2,Win32,85.47008547,,,,,,,,,,,,,,,,766.1265,767.4257,767.4258,770.4964,return,1.1068,,76.30208333,,,,,,FBP-RB-17.png,0.4,1.2,18,0.5,,,,,,,,,,,,,0,0,0,17,1,,,,,,,,,,,,,,,,,,,,,,,,,,,,
,,,,,WIN24_038,22,Female,2024-02-06_14h32.53.366,jersey_experiment_5,2023.2.2,Win32,85.47008547,,,,,,,,,,,,,,,,770.4968,772.2966,772.2966,773.4495,return,0.2186,,85.80729167,,,,,,FBP-PT-19.png,0.45,1.2,60,1,,,,,,,,,,,,,0,1,1,59,1,,,,,,,,,,,,,,,,,,,,,,,,,,,,
,,,,,WIN24_038,22,Female,2024-02-06_14h32.53.366,jersey_experiment_5,2023.2.2,Win32,85.47008547,,,,,,,,,,,,,,,,773.4496,775.2497,775.2498,776.6025,return,0.1939,,36.19791667,,,,,,FBP-PT-19.png,0.4,1.2,58,1,,,,,,,,,,,,,0,2,2,57,1,,,,,,,,,,,,,,,,,,,,,,,,,,,,
,,,,,WIN24_038,22,Female,2024-02-06_14h32.53.366,jersey_experiment_5,2023.2.2,Win32,85.47008547,,,,,,,,,,,,,,,,776.6028,778.4027,778.4027,779.6968,return,0.1885,,14.453125,,,,,,FBP-OG-91.png,0.35,1.2,11,1,,,,,,,,,,,,,0,3,3,10,1,,,,,,,,,,,,,,,,,,,,,,,,,,,,
,,,,,WIN24_038,22,Female,2024-02-06_14h32.53.366,jersey_experiment_5,2023.2.2,Win32,85.47008547,,,,,,,,,,,,,,,,779.6971,781.4968,781.4968,782.9911,return,0.1884,,35.28645833,,,,,,FBP-PT-17.png,0.37,1.2,47,1,,,,,,,,,,,,,0,4,4,46,1,,,,,,,,,,,,,,,,,,,,,,,,,,,,
,,,,,WIN24_038,22,Female,2024-02-06_14h32.53.366,jersey_experiment_5,2023.2.2,Win32,85.47008547,,,,,,,,,,,,,,,,782.9913,784.791,784.7911,785.6735,return,0.2772,,35.28645833,,,,,,FBP-OG-71.png,0.4,1.2,3,1,,,,,,,,,,,,,0,5,5,2,1,,,,,,,,,,,,,,,,,,,,,,,,,,,,
,,,,,WIN24_038,22,Female,2024-02-06_14h32.53.366,jersey_experiment_5,2023.2.2,Win32,85.47008547,,,,,,,,,,,,,,,,785.6737,786.9677,786.9677,789.4266,return,1.0823,,55.72916667,,,,,,FBP-YG-81.png,0.4,1.2,38,0.5,,,,,,,,,,,,,0,6,6,37,1,,,,,,,,,,,,,,,,,,,,,,,,,,,,
,,,,,WIN24_038,22,Female,2024-02-06_14h32.53.366,jersey_experiment_5,2023.2.2,Win32,85.47008547,,,,,,,,,,,,,,,,789.4268,791.2269,791.2269,792.2502,return,0.1573,,75.52083333,,,,,,FBP-OG-81.png,0.45,1.2,10,1,,,,,,,,,,,,,0,7,7,9,1,,,,,,,,,,,,,,,,,,,,,,,,,,,,
,,,,,WIN24_038,22,Female,2024-02-06_14h32.53.366,jersey_experiment_5,2023.2.2,Win32,85.47008547,,,,,,,,,,,,,,,,792.2503,793.5443,793.5443,795.9798,return,0.1812,,25.26041667,,,,,,FBP-RB-17.png,0.37,1.2,17,0.5,,,,,,,,,,,,,0,8,8,16,1,,,,,,,,,,,,,,,,,,,,,,,,,,,,
,,,,,WIN24_038,22,Female,2024-02-06_14h32.53.366,jersey_experiment_5,2023.2.2,Win32,85.47008547,,,,,,,,,,,,,,,,795.9799,797.7798,797.7798,798.9211,return,0.2406,,23.69791667,,,,,,FBP-OG-71.png,0.37,1.2,2,1,,,,,,,,,,,,,0,9,9,1,1,,,,,,,,,,,,,,,,,,,,,,,,,,,,
,,,,,WIN24_038,22,Female,2024-02-06_14h32.53.366,jersey_experiment_5,2023.2.2,Win32,85.47008547,,,,,,,,,,,,,,,,798.9213,800.2152,800.2153,802.2506,return,0.2644,,64.97395833,,,,,,FBP-YG-71.png,0.4,1.2,33,0.5,,,,,,,,,,,,,0,10,10,32,1,,,,,,,,,,,,,,,,,,,,,,,,,,,,
,,,,,WIN24_038,22,Female,2024-02-06_14h32.53.366,jersey_experiment_5,2023.2.2,Win32,85.47008547,,,,,,,,,,,,,,,,802.2508,803.5448,803.5448,804.6155,return,0.3971,,64.84375,,,,,,FBP-RB-19.png,0.43,1.2,29,0.5,,,,,,,,,,,,,0,11,11,28,1,,,,,,,,,,,,,,,,,,,,,,,,,,,,
,,,,,WIN24_038,22,Female,2024-02-06_14h32.53.366,jersey_experiment_5,2023.2.2,Win32,85.47008547,,,,,,,,,,,,,,,,804.6157,806.4154,806.4154,808.2037,return,0.4858,,64.84375,,,,,,FBP-OG-91.png,0.45,1.2,15,1,,,,,,,,,,,,,0,12,12,14,1,,,,,,,,,,,,,,,,,,,,,,,,,,,,
,,,,,WIN24_038,22,Female,2024-02-06_14h32.53.366,jersey_experiment_5,2023.2.2,Win32,85.47008547,,,,,,,,,,,,,,,,808.204,809.4979,809.4979,812.4627,return,1.0369,,12.36979167,,,,,,FBP-RB-18.png,0.35,1.2,21,0.5,,,,,,,,,,,,,0,13,13,20,1,,,,,,,,,,,,,,,,,,,,,,,,,,,,
,,,,,WIN24_038,22,Female,2024-02-06_14h32.53.366,jersey_experiment_5,2023.2.2,Win32,85.47008547,,,,,,,,,,,,,,,,812.463,814.2628,814.2628,816.1923,return,0.249,,62.76041667,,,,,,FBP-PT-18.png,0.43,1.2,54,1,,,,,,,,,,,,,0,14,14,53,1,,,,,,,,,,,,,,,,,,,,,,,,,,,,
,,,,,WIN24_038,22,Female,2024-02-06_14h32.53.366,jersey_experiment_5,2023.2.2,Win32,85.47008547,,,,,,,,,,,,,,,,816.1925,817.9924,817.9924,819.0512,return,0.2167,,63.54166667,,,,,,FBP-PT-18.png,0.4,1.2,53,1,,,,,,,,,,,,,0,15,15,52,1,,,,,,,,,,,,,,,,,,,,,,,,,,,,
,,,,,WIN24_038,22,Female,2024-02-06_14h32.53.366,jersey_experiment_5,2023.2.2,Win32,85.47008547,,,,,,,,,,,,,,,,819.0514,820.8514,820.8515,821.816,return,0.1846,,74.34895833,,,,,,FBP-PT-18.png,0.45,1.2,55,1,,,,,,,,,,,,,0,16,16,54,1,,,,,,,,,,,,,,,,,,,,,,,,,,,,
,,,,,WIN24_038,22,Female,2024-02-06_14h32.53.366,jersey_experiment_5,2023.2.2,Win32,85.47008547,,,,,,,,,,,,,,,,821.8162,823.616,823.616,825.122,return,0.1884,,64.19270833,,,,,,FBP-OG-81.png,0.43,1.2,9,1,,,,,,,,,,,,,0,17,17,8,1,,,,,,,,,,,,,,,,,,,,,,,,,,,,
,,,,,WIN24_038,22,Female,2024-02-06_14h32.53.366,jersey_experiment_5,2023.2.2,Win32,85.47008547,,,,,,,,,,,,,,,,825.1222,826.4163,826.4163,827.8515,return,0.3202,,83.203125,,,,,,FBP-RB-18.png,0.43,1.2,24,0.5,,,,,,,,,,,,,0,18,18,23,1,,,,,,,,,,,,,,,,,,,,,,,,,,,,
,,,,,WIN24_038,22,Female,2024-02-06_14h32.53.366,jersey_experiment_5,2023.2.2,Win32,85.47008547,,,,,,,,,,,,,,,,827.8518,829.6518,829.6518,830.4398,return,0.1362,,84.375,,,,,,FBP-OG-71.png,0.43,1.2,4,1,,,,,,,,,,,,,0,19,19,3,1,,,,,,,,,,,,,,,,,,,,,,,,,,,,
,,,,,WIN24_038,22,Female,2024-02-06_14h32.53.366,jersey_experiment_5,2023.2.2,Win32,85.47008547,,,,,,,,,,,,,,,,830.44,831.734,831.734,833.699,return,1.0728,,89.97395833,,,,,,FBP-YG-71.png,0.45,1.2,35,0.5,,,,,,,,,,,,,0,20,20,34,1,,,,,,,,,,,,,,,,,,,,,,,,,,,,
,,,,,WIN24_038,22,Female,2024-02-06_14h32.53.366,jersey_experiment_5,2023.2.2,Win32,85.47008547,,,,,,,,,,,,,,,,833.6992,835.4988,835.4988,836.7695,return,0.212,,90.36458333,,,,,,FBP-PT-17.png,0.45,1.2,50,1,,,,,,,,,,,,,0,21,21,49,1,,,,,,,,,,,,,,,,,,,,,,,,,,,,
,,,,,WIN24_038,22,Female,2024-02-06_14h32.53.366,jersey_experiment_5,2023.2.2,Win32,85.47008547,,,,,,,,,,,,,,,,836.7697,838.5696,838.5696,841.1932,return,0.2289,,32.03125,,,,,,FBP-PT-19.png,0.37,1.2,57,1,,,,,,,,,,,,,0,22,22,56,1,,,,,,,,,,,,,,,,,,,,,,,,,,,,
,,,,,WIN24_038,22,Female,2024-02-06_14h32.53.366,jersey_experiment_5,2023.2.2,Win32,85.47008547,,,,,,,,,,,,,,,,841.1934,842.9935,842.9935,843.8875,return,0.2126,,10.80729167,,,,,,FBP-OG-71.png,0.35,1.2,1,1,,,,,,,,,,,,,0,23,23,0,1,,,,,,,,,,,,,,,,,,,,,,,,,,,,
,,,,,WIN24_038,22,Female,2024-02-06_14h32.53.366,jersey_experiment_5,2023.2.2,Win32,85.47008547,,,,,,,,,,,,,,,,843.8877,845.1817,845.1817,847.2405,return,0.2057,,54.42708333,,,,,,FBP-RB-17.png,0.45,1.2,20,0.5,,,,,,,,,,,,,0,24,24,19,1,,,,,,,,,,,,,,,,,,,,,,,,,,,,
,,,,,WIN24_038,22,Female,2024-02-06_14h32.53.366,jersey_experiment_5,2023.2.2,Win32,85.47008547,,,,,,,,,,,,,,,,847.2407,848.5348,848.5349,851.8407,return,0.259,,17.1875,,,,,,FBP-RB-19.png,0.35,1.2,26,0.5,,,,,,,,,,,,,0,25,25,25,1,,,,,,,,,,,,,,,,,,,,,,,,,,,,
,,,,,WIN24_038,22,Female,2024-02-06_14h32.53.366,jersey_experiment_5,2023.2.2,Win32,85.47008547,,,,,,,,,,,,,,,,851.8409,853.6408,853.6408,855.1938,return,0.1339,,48.69791667,,,,,,FBP-PT-17.png,0.43,1.2,49,1,,,,,,,,,,,,,0,26,26,48,1,,,,,,,,,,,,,,,,,,,,,,,,,,,,
,,,,,WIN24_038,22,Female,2024-02-06_14h32.53.366,jersey_experiment_5,2023.2.2,Win32,85.47008547,,,,,,,,,,,,,,,,855.1939,856.9941,856.9941,857.8409,return,0.1655,,51.30208333,,,,,,FBP-PT-17.png,0.4,1.2,48,1,,,,,,,,,,,,,0,27,27,47,1,,,,,,,,,,,,,,,,,,,,,,,,,,,,
,,,,,WIN24_038,22,Female,2024-02-06_14h32.53.366,jersey_experiment_5,2023.2.2,Win32,85.47008547,,,,,,,,,,,,,,,,857.8412,859.641,859.641,861.6881,return,0.1591,,64.19270833,,,,,,FBP-OG-91.png,0.43,1.2,14,1,,,,,,,,,,,,,0,28,28,13,1,,,,,,,,,,,,,,,,,,,,,,,,,,,,
,,,,,WIN24_038,22,Female,2024-02-06_14h32.53.366,jersey_experiment_5,2023.2.2,Win32,85.47008547,,,,,,,,,,,,,,,,861.6883,862.9823,862.9823,865.6177,return,0.1522,,49.08854167,,,,,,FBP-YG-71.png,0.37,1.2,32,0.5,,,,,,,,,,,,,0,29,29,31,1,,,,,,,,,,,,,,,,,,,,,,,,,,,,
,,,,,WIN24_038,22,Female,2024-02-06_14h32.53.366,jersey_experiment_5,2023.2.2,Win32,85.47008547,,,,,,,,,,,,,,,,865.6178,866.9119,866.9119,868.0648,return,0.1741,,74.86979167,,,,,,FBP-RB-17.png,0.43,1.2,19,0.5,,,,,,,,,,,,,0,30,30,18,1,,,,,,,,,,,,,,,,,,,,,,,,,,,,
,,,,,WIN24_038,22,Female,2024-02-06_14h32.53.366,jersey_experiment_5,2023.2.2,Win32,85.47008547,,,,,,,,,,,,,,,,868.0651,869.359,869.359,870.6179,return,0.1823,,94.921875,,,,,,FBP-YG-91.png,0.43,1.2,44,0.5,,,,,,,,,,,,,0,31,31,43,1,,,,,,,,,,,,,,,,,,,,,,,,,,,,
,,,,,WIN24_038,22,Female,2024-02-06_14h32.53.366,jersey_experiment_5,2023.2.2,Win32,85.47008547,,,,,,,,,,,,,,,,870.6181,872.418,872.4181,874.3709,return,0.2221,,33.203125,,,,,,FBP-PT-19.png,0.35,1.2,56,1,,,,,,,,,,,,,0,32,32,55,1,,,,,,,,,,,,,,,,,,,,,,,,,,,,
,,,,,WIN24_038,22,Female,2024-02-06_14h32.53.366,jersey_experiment_5,2023.2.2,Win32,85.47008547,,,,,,,,,,,,,,,,874.3712,875.6651,875.6651,878.7006,return,0.1551,,18.22916667,,,,,,FBP-RB-18.png,0.45,1.2,25,0.5,,,,,,,,,,,,,0,33,33,24,1,,,,,,,,,,,,,,,,,,,,,,,,,,,,
,,,,,WIN24_038,22,Female,2024-02-06_14h32.53.366,jersey_experiment_5,2023.2.2,Win32,85.47008547,,,,,,,,,,,,,,,,878.7007,879.9947,879.9947,881.183,return,0.1551,,50.65104167,,,,,,FBP-YG-91.png,0.37,1.2,42,0.5,,,,,,,,,,,,,0,34,34,41,1,,,,,,,,,,,,,,,,,,,,,,,,,,,,
,,,,,WIN24_038,22,Female,2024-02-06_14h32.53.366,jersey_experiment_5,2023.2.2,Win32,85.47008547,,,,,,,,,,,,,,,,881.1832,882.9831,882.9831,884.289,return,0.1892,,74.73958333,,,,,,FBP-OG-71.png,0.45,1.2,5,1,,,,,,,,,,,,,0,35,35,4,1,,,,,,,,,,,,,,,,,,,,,,,,,,,,
,,,,,WIN24_038,22,Female,2024-02-06_14h32.53.366,jersey_experiment_5,2023.2.2,Win32,85.47008547,,,,,,,,,,,,,,,,884.2892,886.0888,886.0888,887.0891,return,0.2016,,74.73958333,,,,,,FBP-OG-81.png,0.37,1.2,7,1,,,,,,,,,,,,,0,36,36,6,1,,,,,,,,,,,,,,,,,,,,,,,,,,,,
,,,,,WIN24_038,22,Female,2024-02-06_14h32.53.366,jersey_experiment_5,2023.2.2,Win32,85.47008547,,,,,,,,,,,,,,,,887.0893,888.3835,888.3835,908.984,return,1.5143,,78.77604167,,,,,,FBP-YG-81.png,0.37,1.2,37,0.5,,,,,,,,,,,,,0,37,37,36,1,,,,,,,,,,,,,,,,,,,,,,,,,,,,
,,,,,WIN24_038,22,Female,2024-02-06_14h32.53.366,jersey_experiment_5,2023.2.2,Win32,85.47008547,,,,,,,,,,,,,,,,908.9842,910.7841,910.7841,914.4901,return,2.064,,32.16145833,,,,,,FBP-OG-81.png,0.35,1.2,6,1,,,,,,,,,,,,,0,38,38,5,1,,,,,,,,,,,,,,,,,,,,,,,,,,,,
,,,,,WIN24_038,22,Female,2024-02-06_14h32.53.366,jersey_experiment_5,2023.2.2,Win32,85.47008547,,,,,,,,,,,,,,,,914.4903,916.2902,916.2903,918.8668,return,0.2687,,34.375,,,,,,FBP-PT-18.png,0.37,1.2,52,1,,,,,,,,,,,,,0,39,39,51,1,,,,,,,,,,,,,,,,,,,,,,,,,,,,
,,,,,WIN24_038,22,Female,2024-02-06_14h32.53.366,jersey_experiment_5,2023.2.2,Win32,85.47008547,,,,,,,,,,,,,,,,918.8669,920.161,920.161,923.0198,return,0.1446,,49.34895833,,,,,,FBP-YG-91.png,0.4,1.2,43,0.5,,,,,,,,,,,,,0,40,40,42,1,,,,,,,,,,,,,,,,,,,,,,,,,,,,
,,,,,WIN24_038,22,Female,2024-02-06_14h32.53.366,jersey_experiment_5,2023.2.2,Win32,85.47008547,,,,,,,,,,,,,,,,923.0201,924.82,924.82,925.7258,return,0.2025,,35.41666667,,,,,,FBP-PT-17.png,0.35,1.2,46,1,,,,,,,,,,,,,0,41,41,45,1,,,,,,,,,,,,,,,,,,,,,,,,,,,,
,,,,,WIN24_038,22,Female,2024-02-06_14h32.53.366,jersey_experiment_5,2023.2.2,Win32,85.47008547,,,,,,,,,,,,,,,,925.7261,927.5259,927.5259,928.2907,return,0.188,,75,,,,,,FBP-PT-19.png,0.43,1.2,59,1,,,,,,,,,,,,,0,42,42,58,1,,,,,,,,,,,,,,,,,,,,,,,,,,,,
,,,,,WIN24_038,22,Female,2024-02-06_14h32.53.366,jersey_experiment_5,2023.2.2,Win32,85.47008547,,,,,,,,,,,,,,,,928.291,929.585,929.5851,930.4907,return,0.1803,,85.546875,,,,,,FBP-YG-81.png,0.45,1.2,40,0.5,,,,,,,,,,,,,0,43,43,39,1,,,,,,,,,,,,,,,,,,,,,,,,,,,,
,,,,,WIN24_038,22,Female,2024-02-06_14h32.53.366,jersey_experiment_5,2023.2.2,Win32,85.47008547,,,,,,,,,,,,,,,,930.4909,931.7848,931.7848,935.5851,return,1.4022,,85.546875,,,,,,FBP-RB-19.png,0.37,1.2,27,0.5,,,,,,,,,,,,,0,44,44,26,1,,,,,,,,,,,,,,,,,,,,,,,,,,,,
,,,,,WIN24_038,22,Female,2024-02-06_14h32.53.366,jersey_experiment_5,2023.2.2,Win32,85.47008547,,,,,,,,,,,,,,,,935.5854,936.8792,936.8792,939.244,return,0.8044,,87.36979167,,,,,,FBP-YG-81.png,0.43,1.2,39,0.5,,,,,,,,,,,,,0,45,45,38,1,,,,,,,,,,,,,,,,,,,,,,,,,,,,
,,,,,WIN24_038,22,Female,2024-02-06_14h32.53.366,jersey_experiment_5,2023.2.2,Win32,85.47008547,,,,,,,,,,,,,,,,939.2441,940.5381,940.5381,941.4676,return,0.2154,,87.36979167,,,,,,FBP-RB-18.png,0.4,1.2,23,0.5,,,,,,,,,,,,,0,46,46,22,1,,,,,,,,,,,,,,,,,,,,,,,,,,,,
,,,,,WIN24_038,22,Female,2024-02-06_14h32.53.366,jersey_experiment_5,2023.2.2,Win32,85.47008547,,,,,,,,,,,,,,,,941.4678,942.7618,942.7618,946.1148,return,0.152,,83.59375,,,,,,FBP-YG-71.png,0.43,1.2,34,0.5,,,,,,,,,,,,,0,47,47,33,1,,,,,,,,,,,,,,,,,,,,,,,,,,,,
,,,,,WIN24_038,22,Female,2024-02-06_14h32.53.366,jersey_experiment_5,2023.2.2,Win32,85.47008547,,,,,,,,,,,,,,,,946.1151,947.9149,947.9149,950.7032,return,0.1893,,51.04166667,,,,,,FBP-OG-91.png,0.4,1.2,13,1,,,,,,,,,,,,,0,48,48,12,1,,,,,,,,,,,,,,,,,,,,,,,,,,,,
,,,,,WIN24_038,22,Female,2024-02-06_14h32.53.366,jersey_experiment_5,2023.2.2,Win32,85.47008547,,,,,,,,,,,,,,,,950.7034,951.9973,951.9973,953.0328,return,0.149,,49.86979167,,,,,,FBP-RB-19.png,0.4,1.2,28,0.5,,,,,,,,,,,,,0,49,49,27,1,,,,,,,,,,,,,,,,,,,,,,,,,,,,
,,,,,WIN24_038,22,Female,2024-02-06_14h32.53.366,jersey_experiment_5,2023.2.2,Win32,85.47008547,,,,,,,,,,,,,,,,953.0329,954.8329,954.8329,956.3623,return,0.1689,,25.390625,,,,,,FBP-OG-81.png,0.4,1.2,8,1,,,,,,,,,,,,,0,50,50,7,1,,,,,,,,,,,,,,,,,,,,,,,,,,,,
,,,,,WIN24_038,22,Female,2024-02-06_14h32.53.366,jersey_experiment_5,2023.2.2,Win32,85.47008547,,,,,,,,,,,,,,,,956.3626,957.6565,957.6565,958.633,return,0.2192,,48.69791667,,,,,,FBP-YG-71.png,0.35,1.2,31,0.5,,,,,,,,,,,,,0,51,51,30,1,,,,,,,,,,,,,,,,,,,,,,,,,,,,
,,,,,WIN24_038,22,Female,2024-02-06_14h32.53.366,jersey_experiment_5,2023.2.2,Win32,85.47008547,,,,,,,,,,,,,,,,958.6331,960.4332,960.4332,962.5389,return,0.1934,,50,,,,,,FBP-OG-91.png,0.37,1.2,12,1,,,,,,,,,,,,,0,52,52,11,1,,,,,,,,,,,,,,,,,,,,,,,,,,,,
,,,,,WIN24_038,22,Female,2024-02-06_14h32.53.366,jersey_experiment_5,2023.2.2,Win32,85.47008547,,,,,,,,,,,,,,,,962.5392,963.8331,963.8331,965.3273,return,0.2592,,50,,,,,,FBP-RB-18.png,0.37,1.2,22,0.5,,,,,,,,,,,,,0,53,53,21,1,,,,,,,,,,,,,,,,,,,,,,,,,,,,
,,,,,WIN24_038,22,Female,2024-02-06_14h32.53.366,jersey_experiment_5,2023.2.2,Win32,85.47008547,,,,,,,,,,,,,,,,965.3276,966.6215,966.6215,968.6216,return,0.2969,,92.96875,,,,,,FBP-YG-91.png,0.45,1.2,45,0.5,,,,,,,,,,,,,0,54,54,44,1,,,,,,,,,,,,,,,,,,,,,,,,,,,,
,,,,,WIN24_038,22,Female,2024-02-06_14h32.53.366,jersey_experiment_5,2023.2.2,Win32,85.47008547,,,,,,,,,,,,,,,,968.6218,969.9159,969.916,973.7628,return,1.2945,,26.82291667,,,,,,FBP-YG-91.png,0.35,1.2,41,0.5,,,,,,,,,,,,,0,55,55,40,1,,,,,,,,,,,,,,,,,,,,,,,,,,,,
,,,,,WIN24_038,22,Female,2024-02-06_14h32.53.366,jersey_experiment_5,2023.2.2,Win32,85.47008547,,,,,,,,,,,,,,,,973.7631,975.563,975.563,977.6925,return,0.2492,,36.58854167,,,,,,FBP-PT-18.png,0.35,1.2,51,1,,,,,,,,,,,,,0,56,56,50,1,,,,,,,,,,,,,,,,,,,,,,,,,,,,
,,,,,WIN24_038,22,Female,2024-02-06_14h32.53.366,jersey_experiment_5,2023.2.2,Win32,85.47008547,,,,,,,,,,,,,,,,977.6927,978.9866,978.9866,980.6337,return,0.2522,,64.32291667,,,,,,FBP-RB-19.png,0.45,1.2,30,0.5,,,,,,,,,,,,,0,57,57,29,1,,,,,,,,,,,,,,,,,,,,,,,,,,,,
,,,,,WIN24_038,22,Female,2024-02-06_14h32.53.366,jersey_experiment_5,2023.2.2,Win32,85.47008547,,,,,,,,,,,,,,,,980.634,981.9279,981.9279,984.1281,return,0.2354,,37.36979167,,,,,,FBP-YG-81.png,0.35,1.2,36,0.5,,,,,,,,,,,,,0,58,58,35,1,,,,,,,,,,,,,,,,,,,,,,,,,,,,
,,,,,WIN24_038,22,Female,2024-02-06_14h32.53.366,jersey_experiment_5,2023.2.2,Win32,85.47008547,,,,,,,,,,,,,,,,984.1283,985.4223,985.4223,986.234,return,0.2751,,41.796875,,,,,,FBP-RB-17.png,0.35,1.2,16,0.5,,,,,,,,,,,,,0,59,59,15,1,,,,,,,,,,,,,,,,,,,,,,,,,,,,
,,,,,WIN24_038,22,Female,2024-02-06_14h32.53.366,jersey_experiment_5,2023.2.2,Win32,85.47008547,,,,,,,,,,,,,,,,986.236,987.528,987.5281,988.3047,return,0.1985,,41.796875,,,,,,FBP-YG-19.png,0.35,1.2,41,0.5,,,,,,,,,,,,,,,,,,0,0,0,40,1,,,,,,,,,,,,,,,,,,,,,,,
,,,,,WIN24_038,22,Female,2024-02-06_14h32.53.366,jersey_experiment_5,2023.2.2,Win32,85.47008547,,,,,,,,,,,,,,,,988.3049,990.1048,990.1048,990.8343,return,0.165,,75.52083333,,,,,,FBP-PT-71.png,0.43,1.2,49,1,,,,,,,,,,,,,,,,,,0,1,1,48,1,,,,,,,,,,,,,,,,,,,,,,,
,,,,,WIN24_038,22,Female,2024-02-06_14h32.53.366,jersey_experiment_5,2023.2.2,Win32,85.47008547,,,,,,,,,,,,,,,,990.8344,992.1284,992.1284,993.6343,return,0.2105,,86.328125,,,,,,FBP-YG-18.png,0.37,1.2,37,0.5,,,,,,,,,,,,,,,,,,0,2,2,36,1,,,,,,,,,,,,,,,,,,,,,,,
,,,,,WIN24_038,22,Female,2024-02-06_14h32.53.366,jersey_experiment_5,2023.2.2,Win32,85.47008547,,,,,,,,,,,,,,,,993.6346,995.4344,995.4344,996.7285,return,0.1727,,31.51041667,,,,,,FBP-PT-91.png,0.35,1.2,56,1,,,,,,,,,,,,,,,,,,0,3,3,55,1,,,,,,,,,,,,,,,,,,,,,,,
,,,,,WIN24_038,22,Female,2024-02-06_14h32.53.366,jersey_experiment_5,2023.2.2,Win32,85.47008547,,,,,,,,,,,,,,,,996.7287,998.0227,998.0227,999.6464,return,0.176,,11.71875,,,,,,FBP-RB-91.png,0.4,1.2,28,0.5,,,,,,,,,,,,,,,,,,0,4,4,27,1,,,,,,,,,,,,,,,,,,,,,,,
,,,,,WIN24_038,22,Female,2024-02-06_14h32.53.366,jersey_experiment_5,2023.2.2,Win32,85.47008547,,,,,,,,,,,,,,,,999.6467,1001.4463,1001.4464,1002.2346,return,0.2505,,37.5,,,,,,FBP-PT-81.png,0.43,1.2,54,1,,,,,,,,,,,,,,,,,,0,5,5,53,1,,,,,,,,,,,,,,,,,,,,,,,
,,,,,WIN24_038,22,Female,2024-02-06_14h32.53.366,jersey_experiment_5,2023.2.2,Win32,85.47008547,,,,,,,,,,,,,,,,1002.2348,1003.5288,1003.5289,1004.6347,return,0.3919,,50.91145833,,,,,,FBP-YG-18.png,0.4,1.2,38,0.5,,,,,,,,,,,,,,,,,,0,6,6,37,1,,,,,,,,,,,,,,,,,,,,,,,
,,,,,WIN24_038,22,Female,2024-02-06_14h32.53.366,jersey_experiment_5,2023.2.2,Win32,85.47008547,,,,,,,,,,,,,,,,1004.6348,1006.4348,1006.4348,1007.423,return,0.1321,,50.390625,,,,,,FBP-OG-17.png,0.4,1.2,3,1,,,,,,,,,,,,,,,,,,0,7,7,2,1,,,,,,,,,,,,,,,,,,,,,,,
,,,,,WIN24_038,22,Female,2024-02-06_14h32.53.366,jersey_experiment_5,2023.2.2,Win32,85.47008547,,,,,,,,,,,,,,,,1007.4232,1008.7172,1008.7173,1010.4467,return,0.237,,58.07291667,,,,,,FBP-RB-81.png,0.4,1.2,23,0.5,,,,,,,,,,,,,,,,,,0,8,8,22,1,,,,,,,,,,,,,,,,,,,,,,,
,,,,,WIN24_038,22,Female,2024-02-06_14h32.53.366,jersey_experiment_5,2023.2.2,Win32,85.47008547,,,,,,,,,,,,,,,,1010.4469,1011.7409,1011.7409,1013.1996,return,0.3535,,86.328125,,,,,,FBP-RB-91.png,0.45,1.2,30,0.5,,,,,,,,,,,,,,,,,,0,9,9,29,1,,,,,,,,,,,,,,,,,,,,,,,
,,,,,WIN24_038,22,Female,2024-02-06_14h32.53.366,jersey_experiment_5,2023.2.2,Win32,85.47008547,,,,,,,,,,,,,,,,1013.2,1014.4938,1014.4939,1016.094,return,0.1907,,74.609375,,,,,,FBP-YG-18.png,0.43,1.2,39,0.5,,,,,,,,,,,,,,,,,,0,10,10,38,1,,,,,,,,,,,,,,,,,,,,,,,
,,,,,WIN24_038,22,Female,2024-02-06_14h32.53.366,jersey_experiment_5,2023.2.2,Win32,85.47008547,,,,,,,,,,,,,,,,1016.0941,1017.8941,1017.8941,1019.5175,return,0.2027,,57.55208333,,,,,,FBP-OG-19.png,0.4,1.2,13,1,,,,,,,,,,,,,,,,,,0,11,11,12,1,,,,,,,,,,,,,,,,,,,,,,,
,,,,,WIN24_038,22,Female,2024-02-06_14h32.53.366,jersey_experiment_5,2023.2.2,Win32,85.47008547,,,,,,,,,,,,,,,,1019.5177,1021.3177,1021.3177,1022.2588,return,0.1756,,51.82291667,,,,,,FBP-PT-71.png,0.45,1.2,50,1,,,,,,,,,,,,,,,,,,0,12,12,49,1,,,,,,,,,,,,,,,,,,,,,,,
,,,,,WIN24_038,22,Female,2024-02-06_14h32.53.366,jersey_experiment_5,2023.2.2,Win32,85.47008547,,,,,,,,,,,,,,,,1022.2591,1023.553,1023.553,1025.1649,return,0.3781,,34.89583333,,,,,,FBP-RB-71.png,0.35,1.2,16,0.5,,,,,,,,,,,,,,,,,,0,13,13,15,1,,,,,,,,,,,,,,,,,,,,,,,
,,,,,WIN24_038,22,Female,2024-02-06_14h32.53.366,jersey_experiment_5,2023.2.2,Win32,85.47008547,,,,,,,,,,,,,,,,1025.1651,1026.9649,1026.9649,1027.8709,return,0.1886,,15.36458333,,,,,,FBP-OG-17.png,0.35,1.2,1,1,,,,,,,,,,,,,,,,,,0,14,14,0,1,,,,,,,,,,,,,,,,,,,,,,,
,,,,,WIN24_038,22,Female,2024-02-06_14h32.53.366,jersey_experiment_5,2023.2.2,Win32,85.47008547,,,,,,,,,,,,,,,,1027.871,1029.6709,1029.6709,1030.4004,return,0.2462,,17.44791667,,,,,,FBP-OG-18.png,0.37,1.2,7,1,,,,,,,,,,,,,,,,,,0,15,15,6,1,,,,,,,,,,,,,,,,,,,,,,,
,,,,,WIN24_038,22,Female,2024-02-06_14h32.53.366,jersey_experiment_5,2023.2.2,Win32,85.47008547,,,,,,,,,,,,,,,,1030.4005,1031.6945,1031.6945,1033.4475,return,0.1948,,78.125,,,,,,FBP-YG-19.png,0.45,1.2,45,0.5,,,,,,,,,,,,,,,,,,0,16,16,44,1,,,,,,,,,,,,,,,,,,,,,,,
,,,,,WIN24_038,22,Female,2024-02-06_14h32.53.366,jersey_experiment_5,2023.2.2,Win32,85.47008547,,,,,,,,,,,,,,,,1033.4478,1035.2476,1035.2476,1038.1418,return,0.8967,,23.56770833,,,,,,FBP-OG-19.png,0.35,1.2,11,1,,,,,,,,,,,,,,,,,,0,17,17,10,1,,,,,,,,,,,,,,,,,,,,,,,
,,,,,WIN24_038,22,Female,2024-02-06_14h32.53.366,jersey_experiment_5,2023.2.2,Win32,85.47008547,,,,,,,,,,,,,,,,1038.1421,1039.436,1039.436,1042.0478,return,0.2006,,74.609375,,,,,,FBP-RB-71.png,0.4,1.2,18,0.5,,,,,,,,,,,,,,,,,,0,18,18,17,1,,,,,,,,,,,,,,,,,,,,,,,
,,,,,WIN24_038,22,Female,2024-02-06_14h32.53.366,jersey_experiment_5,2023.2.2,Win32,85.47008547,,,,,,,,,,,,,,,,1042.048,1043.8479,1043.8479,1044.7656,return,0.2596,,72.13541667,,,,,,FBP-PT-91.png,0.45,1.2,60,1,,,,,,,,,,,,,,,,,,0,19,19,59,1,,,,,,,,,,,,,,,,,,,,,,,
,,,,,WIN24_038,22,Female,2024-02-06_14h32.53.366,jersey_experiment_5,2023.2.2,Win32,85.47008547,,,,,,,,,,,,,,,,1044.7659,1046.0598,1046.0598,1047.9071,return,0.1885,,30.59895833,,,,,,FBP-RB-81.png,0.35,1.2,21,0.5,,,,,,,,,,,,,,,,,,0,20,20,20,1,,,,,,,,,,,,,,,,,,,,,,,
,,,,,WIN24_038,22,Female,2024-02-06_14h32.53.366,jersey_experiment_5,2023.2.2,Win32,85.47008547,,,,,,,,,,,,,,,,1047.9073,1049.2011,1049.2011,1050.8247,return,0.1726,,11.97916667,,,,,,FBP-YG-17.png,0.35,1.2,31,0.5,,,,,,,,,,,,,,,,,,0,21,21,30,1,,,,,,,,,,,,,,,,,,,,,,,
,,,,,WIN24_038,22,Female,2024-02-06_14h32.53.366,jersey_experiment_5,2023.2.2,Win32,85.47008547,,,,,,,,,,,,,,,,1050.8249,1052.6248,1052.6248,1054.0013,return,0.1982,,49.47916667,,,,,,FBP-OG-18.png,0.43,1.2,9,1,,,,,,,,,,,,,,,,,,0,22,22,8,1,,,,,,,,,,,,,,,,,,,,,,,
,,,,,WIN24_038,22,Female,2024-02-06_14h32.53.366,jersey_experiment_5,2023.2.2,Win32,85.47008547,,,,,,,,,,,,,,,,1054.0016,1055.8015,1055.8015,1056.5779,return,0.1549,,73.828125,,,,,,FBP-PT-81.png,0.45,1.2,55,1,,,,,,,,,,,,,,,,,,0,23,23,54,1,,,,,,,,,,,,,,,,,,,,,,,
,,,,,WIN24_038,22,Female,2024-02-06_14h32.53.366,jersey_experiment_5,2023.2.2,Win32,85.47008547,,,,,,,,,,,,,,,,1056.5781,1057.872,1057.872,1059.2251,return,0.2665,,33.33333333,,,,,,FBP-RB-91.png,0.37,1.2,27,0.5,,,,,,,,,,,,,,,,,,0,24,24,26,1,,,,,,,,,,,,,,,,,,,,,,,
,,,,,WIN24_038,22,Female,2024-02-06_14h32.53.366,jersey_experiment_5,2023.2.2,Win32,85.47008547,,,,,,,,,,,,,,,,1059.2253,1061.0252,1061.0252,1062.2487,return,0.3725,,53.515625,,,,,,FBP-OG-19.png,0.45,1.2,15,1,,,,,,,,,,,,,,,,,,0,25,25,14,1,,,,,,,,,,,,,,,,,,,,,,,
,,,,,WIN24_038,22,Female,2024-02-06_14h32.53.366,jersey_experiment_5,2023.2.2,Win32,85.47008547,,,,,,,,,,,,,,,,1062.2489,1064.0486,1064.0486,1066.5075,return,1.697,,72.91666667,,,,,,FBP-OG-18.png,0.35,1.2,6,1,,,,,,,,,,,,,,,,,,0,26,26,5,1,,,,,,,,,,,,,,,,,,,,,,,
,,,,,WIN24_038,22,Female,2024-02-06_14h32.53.366,jersey_experiment_5,2023.2.2,Win32,85.47008547,,,,,,,,,,,,,,,,1066.5078,1067.8018,1067.8018,1070.6371,return,0.1783,,50.52083333,,,,,,FBP-YG-19.png,0.37,1.2,42,0.5,,,,,,,,,,,,,,,,,,0,27,27,41,1,,,,,,,,,,,,,,,,,,,,,,,
,,,,,WIN24_038,22,Female,2024-02-06_14h32.53.366,jersey_experiment_5,2023.2.2,Win32,85.47008547,,,,,,,,,,,,,,,,1070.6374,1072.4375,1072.4375,1073.4843,return,0.1788,,75.91145833,,,,,,FBP-OG-18.png,0.45,1.2,10,1,,,,,,,,,,,,,,,,,,0,28,28,9,1,,,,,,,,,,,,,,,,,,,,,,,
,,,,,WIN24_038,22,Female,2024-02-06_14h32.53.366,jersey_experiment_5,2023.2.2,Win32,85.47008547,,,,,,,,,,,,,,,,1073.4846,1075.2844,1075.2844,1077.4374,return,0.1912,,25.91145833,,,,,,FBP-PT-91.png,0.43,1.2,59,1,,,,,,,,,,,,,,,,,,0,29,29,58,1,,,,,,,,,,,,,,,,,,,,,,,
,,,,,WIN24_038,22,Female,2024-02-06_14h32.53.366,jersey_experiment_5,2023.2.2,Win32,85.47008547,,,,,,,,,,,,,,,,1077.4377,1079.2375,1079.2375,1080.9199,return,0.1732,,1.692708333,,,,,,FBP-OG-19.png,0.43,1.2,14,1,,,,,,,,,,,,,,,,,,0,30,30,13,1,,,,,,,,,,,,,,,,,,,,,,,
,,,,,WIN24_038,22,Female,2024-02-06_14h32.53.366,jersey_experiment_5,2023.2.2,Win32,85.47008547,,,,,,,,,,,,,,,,1080.9202,1082.2141,1082.2141,1084.1199,return,0.2439,,50.390625,,,,,,FBP-YG-17.png,0.45,1.2,35,0.5,,,,,,,,,,,,,,,,,,0,31,31,34,1,,,,,,,,,,,,,,,,,,,,,,,
,,,,,WIN24_038,22,Female,2024-02-06_14h32.53.366,jersey_experiment_5,2023.2.2,Win32,85.47008547,,,,,,,,,,,,,,,,1084.1201,1085.4142,1085.4142,1086.3789,return,0.2968,,50.390625,,,,,,FBP-YG-18.png,0.45,1.2,40,0.5,,,,,,,,,,,,,,,,,,0,32,32,39,1,,,,,,,,,,,,,,,,,,,,,,,
,,,,,WIN24_038,22,Female,2024-02-06_14h32.53.366,jersey_experiment_5,2023.2.2,Win32,85.47008547,,,,,,,,,,,,,,,,1086.3791,1088.1791,1088.1791,1088.9084,return,0.2745,,50.390625,,,,,,FBP-PT-71.png,0.4,1.2,48,1,,,,,,,,,,,,,,,,,,0,33,33,47,1,,,,,,,,,,,,,,,,,,,,,,,
,,,,,WIN24_038,22,Female,2024-02-06_14h32.53.366,jersey_experiment_5,2023.2.2,Win32,85.47008547,,,,,,,,,,,,,,,,1088.9086,1090.7085,1090.7086,1091.3909,return,0.2368,,50.390625,,,,,,FBP-PT-81.png,0.4,1.2,53,1,,,,,,,,,,,,,,,,,,0,34,34,52,1,,,,,,,,,,,,,,,,,,,,,,,
,,,,,WIN24_038,22,Female,2024-02-06_14h32.53.366,jersey_experiment_5,2023.2.2,Win32,85.47008547,,,,,,,,,,,,,,,,1091.3911,1092.685,1092.685,1094.6029,return,0.2997,,72.91666667,,,,,,FBP-RB-71.png,0.45,1.2,20,0.5,,,,,,,,,,,,,,,,,,0,35,35,19,1,,,,,,,,,,,,,,,,,,,,,,,
,,,,,WIN24_038,22,Female,2024-02-06_14h32.53.366,jersey_experiment_5,2023.2.2,Win32,85.47008547,,,,,,,,,,,,,,,,1094.603,1095.8969,1095.8969,1111.6153,return,1.8828,,50.390625,,,,,,FBP-YG-19.png,0.4,1.2,43,0.5,,,,,,,,,,,,,,,,,,0,36,36,42,1,,,,,,,,,,,,,,,,,,,,,,,
,,,,,WIN24_038,22,Female,2024-02-06_14h32.53.366,jersey_experiment_5,2023.2.2,Win32,85.47008547,,,,,,,,,,,,,,,,1111.6155,1112.9094,1112.9094,1114.2388,return,0.1761,,74.47916667,,,,,,FBP-YG-17.png,0.43,1.2,34,0.5,,,,,,,,,,,,,,,,,,0,37,37,33,1,,,,,,,,,,,,,,,,,,,,,,,
,,,,,WIN24_038,22,Female,2024-02-06_14h32.53.366,jersey_experiment_5,2023.2.2,Win32,85.47008547,,,,,,,,,,,,,,,,1114.2389,1115.5329,1115.533,1116.3213,return,0.155,,74.34895833,,,,,,FBP-RB-71.png,0.43,1.2,19,0.5,,,,,,,,,,,,,,,,,,0,38,38,18,1,,,,,,,,,,,,,,,,,,,,,,,
,,,,,WIN24_038,22,Female,2024-02-06_14h32.53.366,jersey_experiment_5,2023.2.2,Win32,85.47008547,,,,,,,,,,,,,,,,1116.3214,1118.1213,1118.1213,1118.8626,return,0.1898,,74.34895833,,,,,,FBP-OG-17.png,0.43,1.2,4,1,,,,,,,,,,,,,,,,,,0,39,39,3,1,,,,,,,,,,,,,,,,,,,,,,,
,,,,,WIN24_038,22,Female,2024-02-06_14h32.53.366,jersey_experiment_5,2023.2.2,Win32,85.47008547,,,,,,,,,,,,,,,,1118.8628,1120.1568,1120.1568,1121.5803,return,0.1925,,25,,,,,,FBP-YG-18.png,0.35,1.2,36,0.5,,,,,,,,,,,,,,,,,,0,40,40,35,1,,,,,,,,,,,,,,,,,,,,,,,
,,,,,WIN24_038,22,Female,2024-02-06_14h32.53.366,jersey_experiment_5,2023.2.2,Win32,85.47008547,,,,,,,,,,,,,,,,1121.5804,1123.3803,1123.3804,1125.1333,return,0.1307,,10.67708333,,,,,,FBP-PT-81.png,0.35,1.2,51,1,,,,,,,,,,,,,,,,,,0,41,41,50,1,,,,,,,,,,,,,,,,,,,,,,,
,,,,,WIN24_038,22,Female,2024-02-06_14h32.53.366,jersey_experiment_5,2023.2.2,Win32,85.47008547,,,,,,,,,,,,,,,,1125.1335,1126.9334,1126.9334,1128.3688,return,0.2586,,46.74479167,,,,,,FBP-OG-18.png,0.4,1.2,8,1,,,,,,,,,,,,,,,,,,0,42,42,7,1,,,,,,,,,,,,,,,,,,,,,,,
,,,,,WIN24_038,22,Female,2024-02-06_14h32.53.366,jersey_experiment_5,2023.2.2,Win32,85.47008547,,,,,,,,,,,,,,,,1128.369,1129.663,1129.663,1131.1924,return,0.1711,,50.91145833,,,,,,FBP-RB-81.png,0.37,1.2,22,0.5,,,,,,,,,,,,,,,,,,0,43,43,21,1,,,,,,,,,,,,,,,,,,,,,,,
,,,,,WIN24_038,22,Female,2024-02-06_14h32.53.366,jersey_experiment_5,2023.2.2,Win32,85.47008547,,,,,,,,,,,,,,,,1131.1926,1132.4867,1132.4867,1133.4983,return,0.1229,,74.609375,,,,,,FBP-RB-81.png,0.45,1.2,25,0.5,,,,,,,,,,,,,,,,,,0,44,44,24,1,,,,,,,,,,,,,,,,,,,,,,,
,,,,,WIN24_038,22,Female,2024-02-06_14h32.53.366,jersey_experiment_5,2023.2.2,Win32,85.47008547,,,,,,,,,,,,,,,,1133.4986,1134.7928,1134.7928,1138.2397,return,2.3629,,76.43229167,,,,,,FBP-YG-17.png,0.4,1.2,33,0.5,,,,,,,,,,,,,,,,,,0,45,45,32,1,,,,,,,,,,,,,,,,,,,,,,,
,,,,,WIN24_038,22,Female,2024-02-06_14h32.53.366,jersey_experiment_5,2023.2.2,Win32,85.47008547,,,,,,,,,,,,,,,,1138.24,1139.5339,1139.5339,1140.9221,return,0.2654,,82.421875,,,,,,FBP-RB-91.png,0.43,1.2,29,0.5,,,,,,,,,,,,,,,,,,0,46,46,28,1,,,,,,,,,,,,,,,,,,,,,,,
,,,,,WIN24_038,22,Female,2024-02-06_14h32.53.366,jersey_experiment_5,2023.2.2,Win32,85.47008547,,,,,,,,,,,,,,,,1140.9224,1142.7223,1142.7223,1143.5223,return,0.1184,,50,,,,,,FBP-OG-17.png,0.37,1.2,2,1,,,,,,,,,,,,,,,,,,0,47,47,1,1,,,,,,,,,,,,,,,,,,,,,,,
,,,,,WIN24_038,22,Female,2024-02-06_14h32.53.366,jersey_experiment_5,2023.2.2,Win32,85.47008547,,,,,,,,,,,,,,,,1143.5225,1145.3223,1145.3223,1149.0755,return,2.2727,,81.90104167,,,,,,FBP-OG-17.png,0.45,1.2,5,1,,,,,,,,,,,,,,,,,,0,48,48,4,1,,,,,,,,,,,,,,,,,,,,,,,
,,,,,WIN24_038,22,Female,2024-02-06_14h32.53.366,jersey_experiment_5,2023.2.2,Win32,85.47008547,,,,,,,,,,,,,,,,1149.0757,1150.8755,1150.8755,1154.2874,return,1.6718,,37.36979167,,,,,,FBP-PT-71.png,0.37,1.2,47,1,,,,,,,,,,,,,,,,,,0,49,49,46,1,,,,,,,,,,,,,,,,,,,,,,,
,,,,,WIN24_038,22,Female,2024-02-06_14h32.53.366,jersey_experiment_5,2023.2.2,Win32,85.47008547,,,,,,,,,,,,,,,,1154.2876,1156.0875,1156.0875,1157.0169,return,0.253,,35.41666667,,,,,,FBP-PT-91.png,0.37,1.2,57,1,,,,,,,,,,,,,,,,,,0,50,50,56,1,,,,,,,,,,,,,,,,,,,,,,,
,,,,,WIN24_038,22,Female,2024-02-06_14h32.53.366,jersey_experiment_5,2023.2.2,Win32,85.47008547,,,,,,,,,,,,,,,,1157.0171,1158.817,1158.817,1159.6641,return,0.2356,,36.06770833,,,,,,FBP-OG-19.png,0.37,1.2,12,1,,,,,,,,,,,,,,,,,,0,51,51,11,1,,,,,,,,,,,,,,,,,,,,,,,
,,,,,WIN24_038,22,Female,2024-02-06_14h32.53.366,jersey_experiment_5,2023.2.2,Win32,85.47008547,,,,,,,,,,,,,,,,1159.6644,1160.9583,1160.9583,1161.864,return,0.3141,,36.06770833,,,,,,FBP-RB-71.png,0.37,1.2,17,0.5,,,,,,,,,,,,,,,,,,0,52,52,16,1,,,,,,,,,,,,,,,,,,,,,,,
,,,,,WIN24_038,22,Female,2024-02-06_14h32.53.366,jersey_experiment_5,2023.2.2,Win32,85.47008547,,,,,,,,,,,,,,,,1161.8643,1163.1582,1163.1582,1165.1702,return,0.4944,,63.15104167,,,,,,FBP-RB-81.png,0.43,1.2,24,0.5,,,,,,,,,,,,,,,,,,0,53,53,23,1,,,,,,,,,,,,,,,,,,,,,,,
,,,,,WIN24_038,22,Female,2024-02-06_14h32.53.366,jersey_experiment_5,2023.2.2,Win32,85.47008547,,,,,,,,,,,,,,,,1165.1702,1166.4643,1166.4644,1168.0647,return,0.2251,,33.59375,,,,,,FBP-RB-91.png,0.35,1.2,26,0.5,,,,,,,,,,,,,,,,,,0,54,54,25,1,,,,,,,,,,,,,,,,,,,,,,,
,,,,,WIN24_038,22,Female,2024-02-06_14h32.53.366,jersey_experiment_5,2023.2.2,Win32,85.47008547,,,,,,,,,,,,,,,,1168.0648,1169.3585,1169.3585,1170.3704,return,0.2354,,72.65625,,,,,,FBP-YG-19.png,0.43,1.2,44,0.5,,,,,,,,,,,,,,,,,,0,55,55,43,1,,,,,,,,,,,,,,,,,,,,,,,
,,,,,WIN24_038,22,Female,2024-02-06_14h32.53.366,jersey_experiment_5,2023.2.2,Win32,85.47008547,,,,,,,,,,,,,,,,1170.3706,1172.1704,1172.1704,1174.0649,return,1.1437,,18.09895833,,,,,,FBP-PT-71.png,0.35,1.2,46,1,,,,,,,,,,,,,,,,,,0,56,56,45,1,,,,,,,,,,,,,,,,,,,,,,,
,,,,,WIN24_038,22,Female,2024-02-06_14h32.53.366,jersey_experiment_5,2023.2.2,Win32,85.47008547,,,,,,,,,,,,,,,,1174.0651,1175.8646,1175.8646,1176.8177,return,0.165,,18.88020833,,,,,,FBP-PT-81.png,0.37,1.2,52,1,,,,,,,,,,,,,,,,,,0,57,57,51,1,,,,,,,,,,,,,,,,,,,,,,,
,,,,,WIN24_038,22,Female,2024-02-06_14h32.53.366,jersey_experiment_5,2023.2.2,Win32,85.47008547,,,,,,,,,,,,,,,,1176.818,1178.6179,1178.6179,1181.5118,return,2.1262,,47.265625,,,,,,FBP-PT-91.png,0.4,1.2,58,1,,,,,,,,,,,,,,,,,,0,58,58,57,1,,,,,,,,,,,,,,,,,,,,,,,
,,,,,WIN24_038,22,Female,2024-02-06_14h32.53.366,jersey_experiment_5,2023.2.2,Win32,85.47008547,,,,,,,,,,,,,,,,1181.512,1182.8061,1182.8061,1183.5945,return,0.2062,,50.65104167,,,,,,FBP-YG-17.png,0.37,1.2,32,0.5,,,,,,,,,,,,,,,,,,0,59,59,31,1,,,,,,,,,,,,,,,,,,,,,,,
,,,,,WIN24_038,22,Female,2024-02-06_14h32.53.366,jersey_experiment_5,2023.2.2,Win32,85.47008547,,,,,,,,,,,,,,,,,,,,,,,,,,,,,,,,,,,,,,,,,,,,,,,,,,,,,,,,1183.5949,1188.3123,return,4.7135,,,,,,,,,,,,,,,,,,,
,,,,,WIN24_038,22,Female,2024-02-06_14h32.53.366,jersey_experiment_5,2023.2.2,Win32,85.47008547,,,,,,,,,,,,,,,,,,,,,,,,,,,,,,,,,,,,,,,,,,,,,,,,,,,,,,,,,,,,,1188.3124,1194.8656,1,5.7229,return,0.8134,,,,,,,,,,,,
,,,,,WIN24_038,22,Female,2024-02-06_14h32.53.366,jersey_experiment_5,2023.2.2,Win32,85.47008547,,,,,,,,,,,,,,,,,,,,,,,,,,,,,,,,,,,,,,,,,,,,,,,,,,,,,,,,,,,,,,,,,,,,1194.8658,1235.4358,i think it has to be related to caliberating the just noticble difference ,right,33.2584,,,,,,
,,,,,WIN24_038,22,Female,2024-02-06_14h32.53.366,jersey_experiment_5,2023.2.2,Win32,85.47008547,,,,,,,,,,,,,,,,,,,,,,,,,,,,,,,,,,,,,,,,,,,,,,,,,,,,,,,,,,,,,,,,,,,,,,,,,,1235.4359,1239.9533,return,4.5049,