requirements.started,requirements.stopped,key_resp_3.keys,key_resp_3.rt,key_resp_3.duration,Subject ID,Age,Gender,date,expName,psychopyVersion,OS,frameRate,instructions1.started,instructions1.stopped,key_resp.keys,key_resp.rt,key_resp.duration,example.started,example.stopped,enter_2.keys,enter_2.rt,enter_2.duration,instructions2.started,instructions2.stopped,enter_3.keys,enter_3.rt,enter_3.duration,image.started,image.stopped,slider_2.started,slider_2.stopped,next.keys,next.rt,next.duration,slider.response,trial_block_1.thisRepN,trial_block_1.thisTrialN,trial_block_1.thisN,trial_block_1.thisIndex,trial_block_1.ran,Path,Width,Height,Index,Duration,trial_block_2.thisRepN,trial_block_2.thisTrialN,trial_block_2.thisN,trial_block_2.thisIndex,trial_block_2.ran,rest_break.started,rest_break.stopped,end_break.started,end_break.stopped,key_resp_5.keys,key_resp_5.rt,key_resp_5.duration,trial_block_3.thisRepN,trial_block_3.thisTrialN,trial_block_3.thisN,trial_block_3.thisIndex,trial_block_3.ran,trial_block_4.thisRepN,trial_block_4.thisTrialN,trial_block_4.thisN,trial_block_4.thisIndex,trial_block_4.ran,questions_intro.started,questions_intro.stopped,enter_12.keys,enter_12.rt,enter_12.duration,question2.started,question2.stopped,question_doingbest.response,question_doingbest.rt,enter_15.keys,enter_15.rt,enter_15.duration,pattern.started,pattern.stopped,pattern_2.text,enter_17.keys,enter_17.rt,enter_17.duration,thankyou.started,thankyou.stopped,enter_14.keys,enter_14.rt,enter_14.duration
1E-04,8.2997,return,8.2886,,WIN24_040,18,male,2024-02-07_14h02.35.827,jersey_experiment_5,2023.2.2,Win32,85.47008547,,,,,,,,,,,,,,,,,,,,,,,,,,,,,,,,,,,,,,,,,,,,,,,,,,,,,,,,,,,,,,,,,,,,,,,,,,,,,,
,,,,,WIN24_040,18,male,2024-02-07_14h02.35.827,jersey_experiment_5,2023.2.2,Win32,85.47008547,8.2997,13.5233,return,5.2051,,,,,,,,,,,,,,,,,,,,,,,,,,,,,,,,,,,,,,,,,,,,,,,,,,,,,,,,,,,,,,,,,,,,,,,,,,
,,,,,WIN24_040,18,male,2024-02-07_14h02.35.827,jersey_experiment_5,2023.2.2,Win32,85.47008547,,,,,,13.5234,17.1587,return,3.5953,,,,,,,,,,,,,,,,,,,,,,,,,,,,,,,,,,,,,,,,,,,,,,,,,,,,,,,,,,,,,,,,,,,,,
,,,,,WIN24_040,18,male,2024-02-07_14h02.35.827,jersey_experiment_5,2023.2.2,Win32,85.47008547,,,,,,,,,,,17.1587,29.571,return,12.3954,,,,,,,,,,,,,,,,,,,,,,,,,,,,,,,,,,,,,,,,,,,,,,,,,,,,,,,,,,,,,,,,
,,,,,WIN24_040,18,male,2024-02-07_14h02.35.827,jersey_experiment_5,2023.2.2,Win32,85.47008547,,,,,,,,,,,,,,,,29.5778,31.3707,31.3708,52.6422,return,2.6302,,50.13020833,0,0,0,40,1,FBP-YG-91.png,0.35,1.2,41,1,,,,,,,,,,,,,,,,,,,,,,,,,,,,,,,,,,,,,,,,,,,,,
,,,,,WIN24_040,18,male,2024-02-07_14h02.35.827,jersey_experiment_5,2023.2.2,Win32,85.47008547,,,,,,,,,,,,,,,,52.6425,53.9363,53.9363,56.9835,return,0.9419,,74.609375,0,1,1,3,1,FBP-OG-71.png,0.43,1.2,4,0.5,,,,,,,,,,,,,,,,,,,,,,,,,,,,,,,,,,,,,,,,,,,,,
,,,,,WIN24_040,18,male,2024-02-07_14h02.35.827,jersey_experiment_5,2023.2.2,Win32,85.47008547,,,,,,,,,,,,,,,,56.9836,58.7834,58.7834,59.8307,return,0.6505,,74.609375,0,2,2,42,1,FBP-YG-91.png,0.4,1.2,43,1,,,,,,,,,,,,,,,,,,,,,,,,,,,,,,,,,,,,,,,,,,,,,
,,,,,WIN24_040,18,male,2024-02-07_14h02.35.827,jersey_experiment_5,2023.2.2,Win32,85.47008547,,,,,,,,,,,,,,,,59.8308,61.1248,61.1248,62.2777,return,0.6613,,74.609375,0,3,3,2,1,FBP-OG-71.png,0.4,1.2,3,0.5,,,,,,,,,,,,,,,,,,,,,,,,,,,,,,,,,,,,,,,,,,,,,
,,,,,WIN24_040,18,male,2024-02-07_14h02.35.827,jersey_experiment_5,2023.2.2,Win32,85.47008547,,,,,,,,,,,,,,,,62.2779,64.078,64.078,65.125,return,0.638,,74.609375,0,4,4,31,1,FBP-YG-71.png,0.37,1.2,32,1,,,,,,,,,,,,,,,,,,,,,,,,,,,,,,,,,,,,,,,,,,,,,
,,,,,WIN24_040,18,male,2024-02-07_14h02.35.827,jersey_experiment_5,2023.2.2,Win32,85.47008547,,,,,,,,,,,,,,,,65.1251,66.4191,66.4191,68.3722,return,0.6531,,99.08854167,0,5,5,54,1,FBP-PT-18.png,0.45,1.2,55,0.5,,,,,,,,,,,,,,,,,,,,,,,,,,,,,,,,,,,,,,,,,,,,,
,,,,,WIN24_040,18,male,2024-02-07_14h02.35.827,jersey_experiment_5,2023.2.2,Win32,85.47008547,,,,,,,,,,,,,,,,68.3724,69.6664,69.6664,72.0546,return,0.6495,,50.26041667,0,6,6,0,1,FBP-OG-71.png,0.35,1.2,1,0.5,,,,,,,,,,,,,,,,,,,,,,,,,,,,,,,,,,,,,,,,,,,,,
,,,,,WIN24_040,18,male,2024-02-07_14h02.35.827,jersey_experiment_5,2023.2.2,Win32,85.47008547,,,,,,,,,,,,,,,,72.0547,73.3488,73.3488,74.89,return,0.565,,74.86979167,0,7,7,57,1,FBP-PT-19.png,0.4,1.2,58,0.5,,,,,,,,,,,,,,,,,,,,,,,,,,,,,,,,,,,,,,,,,,,,,
,,,,,WIN24_040,18,male,2024-02-07_14h02.35.827,jersey_experiment_5,2023.2.2,Win32,85.47008547,,,,,,,,,,,,,,,,74.8902,76.1842,76.1843,77.5254,return,0.5814,,74.86979167,0,8,8,48,1,FBP-PT-17.png,0.43,1.2,49,0.5,,,,,,,,,,,,,,,,,,,,,,,,,,,,,,,,,,,,,,,,,,,,,
,,,,,WIN24_040,18,male,2024-02-07_14h02.35.827,jersey_experiment_5,2023.2.2,Win32,85.47008547,,,,,,,,,,,,,,,,77.5256,79.3255,79.3255,81.0786,return,0.6271,,99.08854167,0,9,9,44,1,FBP-YG-91.png,0.45,1.2,45,1,,,,,,,,,,,,,,,,,,,,,,,,,,,,,,,,,,,,,,,,,,,,,
,,,,,WIN24_040,18,male,2024-02-07_14h02.35.827,jersey_experiment_5,2023.2.2,Win32,85.47008547,,,,,,,,,,,,,,,,81.0789,82.3726,82.3726,84.1022,return,0.556,,75.78125,0,10,10,13,1,FBP-OG-91.png,0.43,1.2,14,0.5,,,,,,,,,,,,,,,,,,,,,,,,,,,,,,,,,,,,,,,,,,,,,
,,,,,WIN24_040,18,male,2024-02-07_14h02.35.827,jersey_experiment_5,2023.2.2,Win32,85.47008547,,,,,,,,,,,,,,,,84.1024,85.9022,85.9022,86.914,return,0.5946,,75.78125,0,11,11,32,1,FBP-YG-71.png,0.4,1.2,33,1,,,,,,,,,,,,,,,,,,,,,,,,,,,,,,,,,,,,,,,,,,,,,
,,,,,WIN24_040,18,male,2024-02-07_14h02.35.827,jersey_experiment_5,2023.2.2,Win32,85.47008547,,,,,,,,,,,,,,,,86.9143,88.7142,88.7142,91.5377,return,0.62,,99.34895833,0,12,12,34,1,FBP-YG-71.png,0.45,1.2,35,1,,,,,,,,,,,,,,,,,,,,,,,,,,,,,,,,,,,,,,,,,,,,,
,,,,,WIN24_040,18,male,2024-02-07_14h02.35.827,jersey_experiment_5,2023.2.2,Win32,85.47008547,,,,,,,,,,,,,,,,91.5379,92.8318,92.8318,94.7731,return,0.6043,,24.34895833,0,13,13,56,1,FBP-PT-19.png,0.37,1.2,57,0.5,,,,,,,,,,,,,,,,,,,,,,,,,,,,,,,,,,,,,,,,,,,,,
,,,,,WIN24_040,18,male,2024-02-07_14h02.35.827,jersey_experiment_5,2023.2.2,Win32,85.47008547,,,,,,,,,,,,,,,,94.7733,96.0674,96.0674,97.5144,return,0.541,,75.65104167,0,14,14,58,1,FBP-PT-19.png,0.43,1.2,59,0.5,,,,,,,,,,,,,,,,,,,,,,,,,,,,,,,,,,,,,,,,,,,,,
,,,,,WIN24_040,18,male,2024-02-07_14h02.35.827,jersey_experiment_5,2023.2.2,Win32,85.47008547,,,,,,,,,,,,,,,,97.5145,98.8086,98.8086,100.4675,return,0.5233,,24.73958333,0,15,15,46,1,FBP-PT-17.png,0.37,1.2,47,0.5,,,,,,,,,,,,,,,,,,,,,,,,,,,,,,,,,,,,,,,,,,,,,
,,,,,WIN24_040,18,male,2024-02-07_14h02.35.827,jersey_experiment_5,2023.2.2,Win32,85.47008547,,,,,,,,,,,,,,,,100.4677,102.2674,102.2675,103.291,return,0.5408,,24.73958333,0,16,16,25,1,FBP-RB-19.png,0.35,1.2,26,1,,,,,,,,,,,,,,,,,,,,,,,,,,,,,,,,,,,,,,,,,,,,,
,,,,,WIN24_040,18,male,2024-02-07_14h02.35.827,jersey_experiment_5,2023.2.2,Win32,85.47008547,,,,,,,,,,,,,,,,103.2912,105.0912,105.0912,106.6912,return,0.8163,,47.65625,0,17,17,36,1,FBP-YG-81.png,0.37,1.2,37,1,,,,,,,,,,,,,,,,,,,,,,,,,,,,,,,,,,,,,,,,,,,,,
,,,,,WIN24_040,18,male,2024-02-07_14h02.35.827,jersey_experiment_5,2023.2.2,Win32,85.47008547,,,,,,,,,,,,,,,,106.6913,108.4912,108.4913,110.5502,return,0.5793,,64.0625,0,18,18,17,1,FBP-RB-17.png,0.4,1.2,18,1,,,,,,,,,,,,,,,,,,,,,,,,,,,,,,,,,,,,,,,,,,,,,
,,,,,WIN24_040,18,male,2024-02-07_14h02.35.827,jersey_experiment_5,2023.2.2,Win32,85.47008547,,,,,,,,,,,,,,,,110.5502,112.3503,112.3503,113.3385,return,0.5421,,64.0625,0,19,19,41,1,FBP-YG-91.png,0.37,1.2,42,1,,,,,,,,,,,,,,,,,,,,,,,,,,,,,,,,,,,,,,,,,,,,,
,,,,,WIN24_040,18,male,2024-02-07_14h02.35.827,jersey_experiment_5,2023.2.2,Win32,85.47008547,,,,,,,,,,,,,,,,113.3387,114.6327,114.6327,118.7386,return,2.6194,,40.234375,0,20,20,50,1,FBP-PT-18.png,0.35,1.2,51,0.5,,,,,,,,,,,,,,,,,,,,,,,,,,,,,,,,,,,,,,,,,,,,,
,,,,,WIN24_040,18,male,2024-02-07_14h02.35.827,jersey_experiment_5,2023.2.2,Win32,85.47008547,,,,,,,,,,,,,,,,118.7388,120.0328,120.0328,121.9623,return,0.541,,71.09375,0,21,21,52,1,FBP-PT-18.png,0.4,1.2,53,0.5,,,,,,,,,,,,,,,,,,,,,,,,,,,,,,,,,,,,,,,,,,,,,
,,,,,WIN24_040,18,male,2024-02-07_14h02.35.827,jersey_experiment_5,2023.2.2,Win32,85.47008547,,,,,,,,,,,,,,,,121.9625,123.2565,123.2565,124.9389,return,0.565,,96.484375,0,22,22,49,1,FBP-PT-17.png,0.45,1.2,50,0.5,,,,,,,,,,,,,,,,,,,,,,,,,,,,,,,,,,,,,,,,,,,,,
,,,,,WIN24_040,18,male,2024-02-07_14h02.35.827,jersey_experiment_5,2023.2.2,Win32,85.47008547,,,,,,,,,,,,,,,,124.939,126.2332,126.2332,130.3391,return,1.1466,,99.34895833,0,23,23,59,1,FBP-PT-19.png,0.45,1.2,60,0.5,,,,,,,,,,,,,,,,,,,,,,,,,,,,,,,,,,,,,,,,,,,,,
,,,,,WIN24_040,18,male,2024-02-07_14h02.35.827,jersey_experiment_5,2023.2.2,Win32,85.47008547,,,,,,,,,,,,,,,,130.3392,131.6333,131.6333,133.5863,return,0.2197,,99.47916667,0,24,24,14,1,FBP-OG-91.png,0.45,1.2,15,0.5,,,,,,,,,,,,,,,,,,,,,,,,,,,,,,,,,,,,,,,,,,,,,
,,,,,WIN24_040,18,male,2024-02-07_14h02.35.827,jersey_experiment_5,2023.2.2,Win32,85.47008547,,,,,,,,,,,,,,,,133.5864,134.8805,134.8805,136.8333,return,0.1362,,64.19270833,0,25,25,6,1,FBP-OG-81.png,0.37,1.2,7,0.5,,,,,,,,,,,,,,,,,,,,,,,,,,,,,,,,,,,,,,,,,,,,,
,,,,,WIN24_040,18,male,2024-02-07_14h02.35.827,jersey_experiment_5,2023.2.2,Win32,85.47008547,,,,,,,,,,,,,,,,136.8335,138.1277,138.1277,139.3866,return,0.2246,,74.73958333,0,26,26,9,1,FBP-OG-81.png,0.45,1.2,10,0.5,,,,,,,,,,,,,,,,,,,,,,,,,,,,,,,,,,,,,,,,,,,,,
,,,,,WIN24_040,18,male,2024-02-07_14h02.35.827,jersey_experiment_5,2023.2.2,Win32,85.47008547,,,,,,,,,,,,,,,,139.3868,140.6807,140.6807,142.0219,return,0.1802,,54.81770833,0,27,27,45,1,FBP-PT-17.png,0.35,1.2,46,0.5,,,,,,,,,,,,,,,,,,,,,,,,,,,,,,,,,,,,,,,,,,,,,
,,,,,WIN24_040,18,male,2024-02-07_14h02.35.827,jersey_experiment_5,2023.2.2,Win32,85.47008547,,,,,,,,,,,,,,,,142.0221,143.8219,143.8219,144.728,return,0.1419,,88.80208333,0,28,28,38,1,FBP-YG-81.png,0.43,1.2,39,1,,,,,,,,,,,,,,,,,,,,,,,,,,,,,,,,,,,,,,,,,,,,,
,,,,,WIN24_040,18,male,2024-02-07_14h02.35.827,jersey_experiment_5,2023.2.2,Win32,85.47008547,,,,,,,,,,,,,,,,144.7281,146.5279,146.5279,147.7986,return,0.1211,,90.10416667,0,29,29,29,1,FBP-RB-19.png,0.45,1.2,30,1,,,,,,,,,,,,,,,,,,,,,,,,,,,,,,,,,,,,,,,,,,,,,
,,,,,WIN24_040,18,male,2024-02-07_14h02.35.827,jersey_experiment_5,2023.2.2,Win32,85.47008547,,,,,,,,,,,,,,,,147.7987,149.5987,149.5987,151.3869,return,0.2128,,57.94270833,0,30,30,30,1,FBP-YG-71.png,0.35,1.2,31,1,,,,,,,,,,,,,,,,,,,,,,,,,,,,,,,,,,,,,,,,,,,,,
,,,,,WIN24_040,18,male,2024-02-07_14h02.35.827,jersey_experiment_5,2023.2.2,Win32,85.47008547,,,,,,,,,,,,,,,,151.3871,152.6811,152.6811,153.4813,return,0.1086,,40.234375,0,31,31,55,1,FBP-PT-19.png,0.35,1.2,56,0.5,,,,,,,,,,,,,,,,,,,,,,,,,,,,,,,,,,,,,,,,,,,,,
,,,,,WIN24_040,18,male,2024-02-07_14h02.35.827,jersey_experiment_5,2023.2.2,Win32,85.47008547,,,,,,,,,,,,,,,,153.4814,155.2814,155.2814,156.3165,return,0.2924,,74.21875,0,32,32,23,1,FBP-RB-18.png,0.43,1.2,24,1,,,,,,,,,,,,,,,,,,,,,,,,,,,,,,,,,,,,,,,,,,,,,
,,,,,WIN24_040,18,male,2024-02-07_14h02.35.827,jersey_experiment_5,2023.2.2,Win32,85.47008547,,,,,,,,,,,,,,,,156.3166,158.1167,158.1168,159.0579,return,0.1377,,41.92708333,0,33,33,20,1,FBP-RB-18.png,0.35,1.2,21,1,,,,,,,,,,,,,,,,,,,,,,,,,,,,,,,,,,,,,,,,,,,,,
,,,,,WIN24_040,18,male,2024-02-07_14h02.35.827,jersey_experiment_5,2023.2.2,Win32,85.47008547,,,,,,,,,,,,,,,,159.0581,160.352,160.352,161.9638,return,0.4106,,39.97395833,0,34,34,51,1,FBP-PT-18.png,0.37,1.2,52,0.5,,,,,,,,,,,,,,,,,,,,,,,,,,,,,,,,,,,,,,,,,,,,,
,,,,,WIN24_040,18,male,2024-02-07_14h02.35.827,jersey_experiment_5,2023.2.2,Win32,85.47008547,,,,,,,,,,,,,,,,161.9639,163.258,163.2581,165.2109,return,0.1753,,74.08854167,0,35,35,47,1,FBP-PT-17.png,0.4,1.2,48,0.5,,,,,,,,,,,,,,,,,,,,,,,,,,,,,,,,,,,,,,,,,,,,,
,,,,,WIN24_040,18,male,2024-02-07_14h02.35.827,jersey_experiment_5,2023.2.2,Win32,85.47008547,,,,,,,,,,,,,,,,165.2111,167.0112,167.0112,168.1169,return,0.1584,,90.75520833,0,36,36,19,1,FBP-RB-17.png,0.45,1.2,20,1,,,,,,,,,,,,,,,,,,,,,,,,,,,,,,,,,,,,,,,,,,,,,
,,,,,WIN24_040,18,male,2024-02-07_14h02.35.827,jersey_experiment_5,2023.2.2,Win32,85.47008547,,,,,,,,,,,,,,,,168.1171,169.917,169.917,171.223,return,0.1088,,78.38541667,0,37,37,43,1,FBP-YG-91.png,0.43,1.2,44,1,,,,,,,,,,,,,,,,,,,,,,,,,,,,,,,,,,,,,,,,,,,,,
,,,,,WIN24_040,18,male,2024-02-07_14h02.35.827,jersey_experiment_5,2023.2.2,Win32,85.47008547,,,,,,,,,,,,,,,,171.2231,172.5171,172.5171,174.329,return,0.1321,,75.13020833,0,38,38,7,1,FBP-OG-81.png,0.4,1.2,8,0.5,,,,,,,,,,,,,,,,,,,,,,,,,,,,,,,,,,,,,,,,,,,,,
,,,,,WIN24_040,18,male,2024-02-07_14h02.35.827,jersey_experiment_5,2023.2.2,Win32,85.47008547,,,,,,,,,,,,,,,,174.3292,176.1291,176.1291,179.4822,return,0.1087,,36.71875,0,39,39,26,1,FBP-RB-19.png,0.37,1.2,27,1,,,,,,,,,,,,,,,,,,,,,,,,,,,,,,,,,,,,,,,,,,,,,
,,,,,WIN24_040,18,male,2024-02-07_14h02.35.827,jersey_experiment_5,2023.2.2,Win32,85.47008547,,,,,,,,,,,,,,,,179.4824,181.2822,181.2822,184.3764,return,0.236,,64.0625,0,40,40,16,1,FBP-RB-17.png,0.37,1.2,17,1,,,,,,,,,,,,,,,,,,,,,,,,,,,,,,,,,,,,,,,,,,,,,
,,,,,WIN24_040,18,male,2024-02-07_14h02.35.827,jersey_experiment_5,2023.2.2,Win32,85.47008547,,,,,,,,,,,,,,,,184.3765,185.6706,185.6706,187.8589,return,0.8193,,23.95833333,0,41,41,10,1,FBP-OG-91.png,0.35,1.2,11,0.5,,,,,,,,,,,,,,,,,,,,,,,,,,,,,,,,,,,,,,,,,,,,,
,,,,,WIN24_040,18,male,2024-02-07_14h02.35.827,jersey_experiment_5,2023.2.2,Win32,85.47008547,,,,,,,,,,,,,,,,187.8591,189.1531,189.1531,190.1531,return,0.1659,,34.765625,0,42,42,11,1,FBP-OG-91.png,0.37,1.2,12,0.5,,,,,,,,,,,,,,,,,,,,,,,,,,,,,,,,,,,,,,,,,,,,,
,,,,,WIN24_040,18,male,2024-02-07_14h02.35.827,jersey_experiment_5,2023.2.2,Win32,85.47008547,,,,,,,,,,,,,,,,190.1533,191.9532,191.9533,193.3885,return,0.1421,,81.51041667,0,43,43,18,1,FBP-RB-17.png,0.43,1.2,19,1,,,,,,,,,,,,,,,,,,,,,,,,,,,,,,,,,,,,,,,,,,,,,
,,,,,WIN24_040,18,male,2024-02-07_14h02.35.827,jersey_experiment_5,2023.2.2,Win32,85.47008547,,,,,,,,,,,,,,,,193.3887,195.1885,195.1886,195.7179,return,0.0031,,81.51041667,0,44,44,28,1,FBP-RB-19.png,0.43,1.2,29,1,,,,,,,,,,,,,,,,,,,,,,,,,,,,,,,,,,,,,,,,,,,,,
,,,,,WIN24_040,18,male,2024-02-07_14h02.35.827,jersey_experiment_5,2023.2.2,Win32,85.47008547,,,,,,,,,,,,,,,,195.7181,197.0121,197.0122,198.0357,return,0.0297,,62.76041667,0,45,45,1,1,FBP-OG-71.png,0.37,1.2,2,0.5,,,,,,,,,,,,,,,,,,,,,,,,,,,,,,,,,,,,,,,,,,,,,
,,,,,WIN24_040,18,male,2024-02-07_14h02.35.827,jersey_experiment_5,2023.2.2,Win32,85.47008547,,,,,,,,,,,,,,,,198.0358,199.3298,199.3298,200.5888,return,0.0715,,43.359375,0,46,46,5,1,FBP-OG-81.png,0.35,1.2,6,0.5,,,,,,,,,,,,,,,,,,,,,,,,,,,,,,,,,,,,,,,,,,,,,
,,,,,WIN24_040,18,male,2024-02-07_14h02.35.827,jersey_experiment_5,2023.2.2,Win32,85.47008547,,,,,,,,,,,,,,,,200.5889,202.3889,202.3889,203.0594,return,0.1233,,63.15104167,0,47,47,27,1,FBP-RB-19.png,0.4,1.2,28,1,,,,,,,,,,,,,,,,,,,,,,,,,,,,,,,,,,,,,,,,,,,,,
,,,,,WIN24_040,18,male,2024-02-07_14h02.35.827,jersey_experiment_5,2023.2.2,Win32,85.47008547,,,,,,,,,,,,,,,,203.0597,204.3536,204.3537,204.989,return,0.1312,,63.15104167,0,48,48,53,1,FBP-PT-18.png,0.43,1.2,54,0.5,,,,,,,,,,,,,,,,,,,,,,,,,,,,,,,,,,,,,,,,,,,,,
,,,,,WIN24_040,18,male,2024-02-07_14h02.35.827,jersey_experiment_5,2023.2.2,Win32,85.47008547,,,,,,,,,,,,,,,,204.9892,206.789,206.789,207.2714,return,0.0463,,97.265625,0,49,49,24,1,FBP-RB-18.png,0.45,1.2,25,1,,,,,,,,,,,,,,,,,,,,,,,,,,,,,,,,,,,,,,,,,,,,,
,,,,,WIN24_040,18,male,2024-02-07_14h02.35.827,jersey_experiment_5,2023.2.2,Win32,85.47008547,,,,,,,,,,,,,,,,207.2716,209.0714,209.0714,209.7303,return,0.2199,,96.484375,0,50,50,33,1,FBP-YG-71.png,0.43,1.2,34,1,,,,,,,,,,,,,,,,,,,,,,,,,,,,,,,,,,,,,,,,,,,,,
,,,,,WIN24_040,18,male,2024-02-07_14h02.35.827,jersey_experiment_5,2023.2.2,Win32,85.47008547,,,,,,,,,,,,,,,,209.7304,211.0244,211.0244,212.1538,return,0.0701,,65.10416667,0,51,51,12,1,FBP-OG-91.png,0.4,1.2,13,0.5,,,,,,,,,,,,,,,,,,,,,,,,,,,,,,,,,,,,,,,,,,,,,
,,,,,WIN24_040,18,male,2024-02-07_14h02.35.827,jersey_experiment_5,2023.2.2,Win32,85.47008547,,,,,,,,,,,,,,,,212.154,213.9539,213.9539,214.6482,return,0.0591,,42.96875,0,52,52,21,1,FBP-RB-18.png,0.37,1.2,22,1,,,,,,,,,,,,,,,,,,,,,,,,,,,,,,,,,,,,,,,,,,,,,
,,,,,WIN24_040,18,male,2024-02-07_14h02.35.827,jersey_experiment_5,2023.2.2,Win32,85.47008547,,,,,,,,,,,,,,,,214.6484,216.4482,216.4482,217.2364,return,0.0294,,57.94270833,0,53,53,22,1,FBP-RB-18.png,0.4,1.2,23,1,,,,,,,,,,,,,,,,,,,,,,,,,,,,,,,,,,,,,,,,,,,,,
,,,,,WIN24_040,18,male,2024-02-07_14h02.35.827,jersey_experiment_5,2023.2.2,Win32,85.47008547,,,,,,,,,,,,,,,,217.2365,219.0365,219.0365,219.6014,return,0.1485,,57.94270833,0,54,54,37,1,FBP-YG-81.png,0.4,1.2,38,1,,,,,,,,,,,,,,,,,,,,,,,,,,,,,,,,,,,,,,,,,,,,,
,,,,,WIN24_040,18,male,2024-02-07_14h02.35.827,jersey_experiment_5,2023.2.2,Win32,85.47008547,,,,,,,,,,,,,,,,219.6015,220.8953,220.8953,222.1307,return,0.1016,,91.796875,0,55,55,4,1,FBP-OG-71.png,0.45,1.2,5,0.5,,,,,,,,,,,,,,,,,,,,,,,,,,,,,,,,,,,,,,,,,,,,,
,,,,,WIN24_040,18,male,2024-02-07_14h02.35.827,jersey_experiment_5,2023.2.2,Win32,85.47008547,,,,,,,,,,,,,,,,222.1309,223.9308,223.9308,224.6955,return,0.0824,,90.625,0,56,56,39,1,FBP-YG-81.png,0.45,1.2,40,1,,,,,,,,,,,,,,,,,,,,,,,,,,,,,,,,,,,,,,,,,,,,,
,,,,,WIN24_040,18,male,2024-02-07_14h02.35.827,jersey_experiment_5,2023.2.2,Win32,85.47008547,,,,,,,,,,,,,,,,224.6957,226.4958,226.4958,227.7192,return,0.1562,,42.44791667,0,57,57,35,1,FBP-YG-81.png,0.35,1.2,36,1,,,,,,,,,,,,,,,,,,,,,,,,,,,,,,,,,,,,,,,,,,,,,
,,,,,WIN24_040,18,male,2024-02-07_14h02.35.827,jersey_experiment_5,2023.2.2,Win32,85.47008547,,,,,,,,,,,,,,,,227.7193,229.0133,229.0133,230.5193,return,0.0853,,67.83854167,0,58,58,8,1,FBP-OG-81.png,0.43,1.2,9,0.5,,,,,,,,,,,,,,,,,,,,,,,,,,,,,,,,,,,,,,,,,,,,,
,,,,,WIN24_040,18,male,2024-02-07_14h02.35.827,jersey_experiment_5,2023.2.2,Win32,85.47008547,,,,,,,,,,,,,,,,230.5195,232.3193,232.3193,233.4959,return,0.0359,,35.9375,0,59,59,15,1,FBP-RB-17.png,0.35,1.2,16,1,,,,,,,,,,,,,,,,,,,,,,,,,,,,,,,,,,,,,,,,,,,,,
,,,,,WIN24_040,18,male,2024-02-07_14h02.35.827,jersey_experiment_5,2023.2.2,Win32,85.47008547,,,,,,,,,,,,,,,,233.4973,235.296,235.296,235.8842,return,0.1178,,35.9375,,,,,,FBP-YG-19.png,0.35,1.2,41,1,0,0,0,40,1,,,,,,,,,,,,,,,,,,,,,,,,,,,,,,,,,,,,,,,,
,,,,,WIN24_040,18,male,2024-02-07_14h02.35.827,jersey_experiment_5,2023.2.2,Win32,85.47008547,,,,,,,,,,,,,,,,235.8846,237.6843,237.6844,240.3432,return,1.6125,,83.984375,,,,,,FBP-YG-19.png,0.43,1.2,44,1,0,1,1,43,1,,,,,,,,,,,,,,,,,,,,,,,,,,,,,,,,,,,,,,,,
,,,,,WIN24_040,18,male,2024-02-07_14h02.35.827,jersey_experiment_5,2023.2.2,Win32,85.47008547,,,,,,,,,,,,,,,,240.3434,241.6372,241.6372,242.8727,return,0.0004,,36.19791667,,,,,,FBP-PT-81.png,0.35,1.2,51,0.5,0,2,2,50,1,,,,,,,,,,,,,,,,,,,,,,,,,,,,,,,,,,,,,,,,
,,,,,WIN24_040,18,male,2024-02-07_14h02.35.827,jersey_experiment_5,2023.2.2,Win32,85.47008547,,,,,,,,,,,,,,,,242.8728,244.6728,244.6728,247.6847,return,0.1469,,41.015625,,,,,,FBP-YG-18.png,0.43,1.2,39,1,0,3,3,38,1,,,,,,,,,,,,,,,,,,,,,,,,,,,,,,,,,,,,,,,,
,,,,,WIN24_040,18,male,2024-02-07_14h02.35.827,jersey_experiment_5,2023.2.2,Win32,85.47008547,,,,,,,,,,,,,,,,247.6849,248.9789,248.9789,250.1201,return,0.1177,,96.875,,,,,,FBP-OG-18.png,0.45,1.2,10,0.5,0,4,4,9,1,,,,,,,,,,,,,,,,,,,,,,,,,,,,,,,,,,,,,,,,
,,,,,WIN24_040,18,male,2024-02-07_14h02.35.827,jersey_experiment_5,2023.2.2,Win32,85.47008547,,,,,,,,,,,,,,,,250.1203,251.9202,251.9202,252.7436,return,0.0838,,65.88541667,,,,,,FBP-YG-18.png,0.37,1.2,37,1,0,5,5,36,1,,,,,,,,,,,,,,,,,,,,,,,,,,,,,,,,,,,,,,,,
,,,,,WIN24_040,18,male,2024-02-07_14h02.35.827,jersey_experiment_5,2023.2.2,Win32,85.47008547,,,,,,,,,,,,,,,,252.7437,254.5437,254.5437,255.6849,return,0.1467,,97.13541667,,,,,,FBP-YG-19.png,0.45,1.2,45,1,0,6,6,44,1,,,,,,,,,,,,,,,,,,,,,,,,,,,,,,,,,,,,,,,,
,,,,,WIN24_040,18,male,2024-02-07_14h02.35.827,jersey_experiment_5,2023.2.2,Win32,85.47008547,,,,,,,,,,,,,,,,255.685,257.4849,257.485,260.7086,return,0.1215,,67.31770833,,,,,,FBP-YG-19.png,0.4,1.2,43,1,0,7,7,42,1,,,,,,,,,,,,,,,,,,,,,,,,,,,,,,,,,,,,,,,,
,,,,,WIN24_040,18,male,2024-02-07_14h02.35.827,jersey_experiment_5,2023.2.2,Win32,85.47008547,,,,,,,,,,,,,,,,260.7088,262.5088,262.5088,264.0735,return,0.1777,,86.97916667,,,,,,FBP-RB-71.png,0.45,1.2,20,1,0,8,8,19,1,,,,,,,,,,,,,,,,,,,,,,,,,,,,,,,,,,,,,,,,
,,,,,WIN24_040,18,male,2024-02-07_14h02.35.827,jersey_experiment_5,2023.2.2,Win32,85.47008547,,,,,,,,,,,,,,,,264.0738,265.3676,265.3676,266.5324,return,0.0394,,38.93229167,,,,,,FBP-OG-19.png,0.37,1.2,12,0.5,0,9,9,11,1,,,,,,,,,,,,,,,,,,,,,,,,,,,,,,,,,,,,,,,,
,,,,,WIN24_040,18,male,2024-02-07_14h02.35.827,jersey_experiment_5,2023.2.2,Win32,85.47008547,,,,,,,,,,,,,,,,266.5326,268.3324,268.3324,269.4032,return,0.1414,,60.80729167,,,,,,FBP-YG-18.png,0.4,1.2,38,1,0,10,10,37,1,,,,,,,,,,,,,,,,,,,,,,,,,,,,,,,,,,,,,,,,
,,,,,WIN24_040,18,male,2024-02-07_14h02.35.827,jersey_experiment_5,2023.2.2,Win32,85.47008547,,,,,,,,,,,,,,,,269.4034,271.2031,271.2032,272.2972,return,0.0716,,60.28645833,,,,,,FBP-RB-91.png,0.37,1.2,27,1,0,11,11,26,1,,,,,,,,,,,,,,,,,,,,,,,,,,,,,,,,,,,,,,,,
,,,,,WIN24_040,18,male,2024-02-07_14h02.35.827,jersey_experiment_5,2023.2.2,Win32,85.47008547,,,,,,,,,,,,,,,,272.2974,274.0974,274.0974,275.7681,return,0.1317,,61.71875,,,,,,FBP-YG-17.png,0.4,1.2,33,1,0,12,12,32,1,,,,,,,,,,,,,,,,,,,,,,,,,,,,,,,,,,,,,,,,
,,,,,WIN24_040,18,male,2024-02-07_14h02.35.827,jersey_experiment_5,2023.2.2,Win32,85.47008547,,,,,,,,,,,,,,,,275.7683,277.0622,277.0622,278.2624,return,0.1803,,65.75520833,,,,,,FBP-PT-71.png,0.4,1.2,48,0.5,0,13,13,47,1,,,,,,,,,,,,,,,,,,,,,,,,,,,,,,,,,,,,,,,,
,,,,,WIN24_040,18,male,2024-02-07_14h02.35.827,jersey_experiment_5,2023.2.2,Win32,85.47008547,,,,,,,,,,,,,,,,278.2625,279.5564,279.5564,280.6505,return,0.0104,,44.27083333,,,,,,FBP-PT-81.png,0.37,1.2,52,0.5,0,14,14,51,1,,,,,,,,,,,,,,,,,,,,,,,,,,,,,,,,,,,,,,,,
,,,,,WIN24_040,18,male,2024-02-07_14h02.35.827,jersey_experiment_5,2023.2.2,Win32,85.47008547,,,,,,,,,,,,,,,,280.6507,282.4508,282.4508,283.2742,return,0.1657,,81.640625,,,,,,FBP-RB-71.png,0.43,1.2,19,1,0,15,15,18,1,,,,,,,,,,,,,,,,,,,,,,,,,,,,,,,,,,,,,,,,
,,,,,WIN24_040,18,male,2024-02-07_14h02.35.827,jersey_experiment_5,2023.2.2,Win32,85.47008547,,,,,,,,,,,,,,,,283.2743,284.5683,284.5684,285.2389,return,0.0734,,80.859375,,,,,,FBP-PT-81.png,0.45,1.2,55,0.5,0,16,16,54,1,,,,,,,,,,,,,,,,,,,,,,,,,,,,,,,,,,,,,,,,
,,,,,WIN24_040,18,male,2024-02-07_14h02.35.827,jersey_experiment_5,2023.2.2,Win32,85.47008547,,,,,,,,,,,,,,,,285.2392,286.5331,286.5331,288.1332,return,0.2405,,64.97395833,,,,,,FBP-PT-81.png,0.43,1.2,54,0.5,0,17,17,53,1,,,,,,,,,,,,,,,,,,,,,,,,,,,,,,,,,,,,,,,,
,,,,,WIN24_040,18,male,2024-02-07_14h02.35.827,jersey_experiment_5,2023.2.2,Win32,85.47008547,,,,,,,,,,,,,,,,288.1334,289.9333,289.9333,290.6628,return,0.0389,,56.51041667,,,,,,FBP-YG-18.png,0.35,1.2,36,1,0,18,18,35,1,,,,,,,,,,,,,,,,,,,,,,,,,,,,,,,,,,,,,,,,
,,,,,WIN24_040,18,male,2024-02-07_14h02.35.827,jersey_experiment_5,2023.2.2,Win32,85.47008547,,,,,,,,,,,,,,,,290.6628,292.4628,292.4628,293.4157,return,0.0475,,86.19791667,,,,,,FBP-RB-91.png,0.43,1.2,29,1,0,19,19,28,1,,,,,,,,,,,,,,,,,,,,,,,,,,,,,,,,,,,,,,,,
,,,,,WIN24_040,18,male,2024-02-07_14h02.35.827,jersey_experiment_5,2023.2.2,Win32,85.47008547,,,,,,,,,,,,,,,,293.4159,294.7098,294.7099,295.5806,return,0.1312,,84.50520833,,,,,,FBP-OG-17.png,0.43,1.2,4,0.5,0,20,20,3,1,,,,,,,,,,,,,,,,,,,,,,,,,,,,,,,,,,,,,,,,
,,,,,WIN24_040,18,male,2024-02-07_14h02.35.827,jersey_experiment_5,2023.2.2,Win32,85.47008547,,,,,,,,,,,,,,,,295.5807,297.3806,297.3806,298.3571,return,0.1342,,62.890625,,,,,,FBP-YG-19.png,0.37,1.2,42,1,0,21,21,41,1,,,,,,,,,,,,,,,,,,,,,,,,,,,,,,,,,,,,,,,,
,,,,,WIN24_040,18,male,2024-02-07_14h02.35.827,jersey_experiment_5,2023.2.2,Win32,85.47008547,,,,,,,,,,,,,,,,298.3573,300.1572,300.1572,300.7454,return,0.1519,,62.890625,,,,,,FBP-RB-91.png,0.35,1.2,26,1,0,22,22,25,1,,,,,,,,,,,,,,,,,,,,,,,,,,,,,,,,,,,,,,,,
,,,,,WIN24_040,18,male,2024-02-07_14h02.35.827,jersey_experiment_5,2023.2.2,Win32,85.47008547,,,,,,,,,,,,,,,,300.7455,302.0395,302.0395,302.875,return,0.0615,,62.890625,,,,,,FBP-PT-71.png,0.35,1.2,46,0.5,0,23,23,45,1,,,,,,,,,,,,,,,,,,,,,,,,,,,,,,,,,,,,,,,,
,,,,,WIN24_040,18,male,2024-02-07_14h02.35.827,jersey_experiment_5,2023.2.2,Win32,85.47008547,,,,,,,,,,,,,,,,302.8754,304.1692,304.1692,306.2515,return,1.5768,,62.890625,,,,,,FBP-PT-91.png,0.37,1.2,57,0.5,0,24,24,56,1,,,,,,,,,,,,,,,,,,,,,,,,,,,,,,,,,,,,,,,,
,,,,,WIN24_040,18,male,2024-02-07_14h02.35.827,jersey_experiment_5,2023.2.2,Win32,85.47008547,,,,,,,,,,,,,,,,306.2516,307.5456,307.5456,308.3575,return,0.0497,,85.67708333,,,,,,FBP-OG-17.png,0.45,1.2,5,0.5,0,25,25,4,1,,,,,,,,,,,,,,,,,,,,,,,,,,,,,,,,,,,,,,,,
,,,,,WIN24_040,18,male,2024-02-07_14h02.35.827,jersey_experiment_5,2023.2.2,Win32,85.47008547,,,,,,,,,,,,,,,,308.3576,310.1576,310.1576,310.8046,return,0.0281,,69.53125,,,,,,FBP-RB-91.png,0.4,1.2,28,1,0,26,26,27,1,,,,,,,,,,,,,,,,,,,,,,,,,,,,,,,,,,,,,,,,
,,,,,WIN24_040,18,male,2024-02-07_14h02.35.827,jersey_experiment_5,2023.2.2,Win32,85.47008547,,,,,,,,,,,,,,,,310.8048,312.0988,312.0988,313.0165,return,0.3072,,69.53125,,,,,,FBP-OG-19.png,0.4,1.2,13,0.5,0,27,27,12,1,,,,,,,,,,,,,,,,,,,,,,,,,,,,,,,,,,,,,,,,
,,,,,WIN24_040,18,male,2024-02-07_14h02.35.827,jersey_experiment_5,2023.2.2,Win32,85.47008547,,,,,,,,,,,,,,,,313.0167,314.8164,314.8164,315.7343,return,0.1687,,69.53125,,,,,,FBP-YG-17.png,0.37,1.2,32,1,0,28,28,31,1,,,,,,,,,,,,,,,,,,,,,,,,,,,,,,,,,,,,,,,,
,,,,,WIN24_040,18,male,2024-02-07_14h02.35.827,jersey_experiment_5,2023.2.2,Win32,85.47008547,,,,,,,,,,,,,,,,315.7344,317.5344,317.5344,318.299,return,0.0569,,88.671875,,,,,,FBP-RB-81.png,0.45,1.2,25,1,0,29,29,24,1,,,,,,,,,,,,,,,,,,,,,,,,,,,,,,,,,,,,,,,,
,,,,,WIN24_040,18,male,2024-02-07_14h02.35.827,jersey_experiment_5,2023.2.2,Win32,85.47008547,,,,,,,,,,,,,,,,318.2992,319.5931,319.5931,321.2285,return,0.2967,,63.41145833,,,,,,FBP-OG-19.png,0.45,1.2,15,0.5,0,30,30,14,1,,,,,,,,,,,,,,,,,,,,,,,,,,,,,,,,,,,,,,,,
,,,,,WIN24_040,18,male,2024-02-07_14h02.35.827,jersey_experiment_5,2023.2.2,Win32,85.47008547,,,,,,,,,,,,,,,,321.2288,323.0285,323.0286,323.9227,return,0.0884,,87.63020833,,,,,,FBP-RB-81.png,0.43,1.2,24,1,0,31,31,23,1,,,,,,,,,,,,,,,,,,,,,,,,,,,,,,,,,,,,,,,,
,,,,,WIN24_040,18,male,2024-02-07_14h02.35.827,jersey_experiment_5,2023.2.2,Win32,85.47008547,,,,,,,,,,,,,,,,323.9229,325.2169,325.2169,326.9701,return,0.0373,,41.14583333,,,,,,FBP-PT-71.png,0.37,1.2,47,0.5,0,32,32,46,1,,,,,,,,,,,,,,,,,,,,,,,,,,,,,,,,,,,,,,,,
,,,,,WIN24_040,18,male,2024-02-07_14h02.35.827,jersey_experiment_5,2023.2.2,Win32,85.47008547,,,,,,,,,,,,,,,,326.9703,328.2641,328.2641,329.9935,return,0.128,,68.75,,,,,,FBP-PT-91.png,0.4,1.2,58,0.5,0,33,33,57,1,,,,,,,,,,,,,,,,,,,,,,,,,,,,,,,,,,,,,,,,
,,,,,WIN24_040,18,male,2024-02-07_14h02.35.827,jersey_experiment_5,2023.2.2,Win32,85.47008547,,,,,,,,,,,,,,,,329.9937,331.7937,331.7938,333.1937,return,0.0815,,55.59895833,,,,,,FBP-RB-81.png,0.35,1.2,21,1,0,34,34,20,1,,,,,,,,,,,,,,,,,,,,,,,,,,,,,,,,,,,,,,,,
,,,,,WIN24_040,18,male,2024-02-07_14h02.35.827,jersey_experiment_5,2023.2.2,Win32,85.47008547,,,,,,,,,,,,,,,,333.1938,334.9937,334.9938,336.2998,return,0.4941,,55.59895833,,,,,,FBP-RB-81.png,0.37,1.2,22,1,0,35,35,21,1,,,,,,,,,,,,,,,,,,,,,,,,,,,,,,,,,,,,,,,,
,,,,,WIN24_040,18,male,2024-02-07_14h02.35.827,jersey_experiment_5,2023.2.2,Win32,85.47008547,,,,,,,,,,,,,,,,336.2999,337.5938,337.5939,338.8527,return,0.5216,,56.38020833,,,,,,FBP-OG-18.png,0.35,1.2,6,0.5,0,36,36,5,1,,,,,,,,,,,,,,,,,,,,,,,,,,,,,,,,,,,,,,,,
,,,,,WIN24_040,18,male,2024-02-07_14h02.35.827,jersey_experiment_5,2023.2.2,Win32,85.47008547,,,,,,,,,,,,,,,,338.8531,340.1469,340.1469,343.5941,return,0.764,,57.68229167,,,,,,FBP-OG-17.png,0.4,1.2,3,0.5,0,37,37,2,1,,,,,,,,,,,,,,,,,,,,,,,,,,,,,,,,,,,,,,,,
,,,,,WIN24_040,18,male,2024-02-07_14h02.35.827,jersey_experiment_5,2023.2.2,Win32,85.47008547,,,,,,,,,,,,,,,,343.5944,344.8882,344.8882,345.653,return,0.2161,,57.68229167,,,,,,FBP-OG-17.png,0.37,1.2,2,0.5,0,38,38,1,1,,,,,,,,,,,,,,,,,,,,,,,,,,,,,,,,,,,,,,,,
,,,,,WIN24_040,18,male,2024-02-07_14h02.35.827,jersey_experiment_5,2023.2.2,Win32,85.47008547,,,,,,,,,,,,,,,,345.6532,346.9472,346.9472,347.559,return,0.1896,,57.68229167,,,,,,FBP-OG-19.png,0.35,1.2,11,0.5,0,39,39,10,1,,,,,,,,,,,,,,,,,,,,,,,,,,,,,,,,,,,,,,,,
,,,,,WIN24_040,18,male,2024-02-07_14h02.35.827,jersey_experiment_5,2023.2.2,Win32,85.47008547,,,,,,,,,,,,,,,,347.5591,348.853,348.8531,350.2649,return,0.2021,,86.71875,,,,,,FBP-OG-18.png,0.43,1.2,9,0.5,0,40,40,8,1,,,,,,,,,,,,,,,,,,,,,,,,,,,,,,,,,,,,,,,,
,,,,,WIN24_040,18,male,2024-02-07_14h02.35.827,jersey_experiment_5,2023.2.2,Win32,85.47008547,,,,,,,,,,,,,,,,350.265,351.5591,351.5591,352.1474,return,0.1235,,86.06770833,,,,,,FBP-OG-18.png,0.4,1.2,8,0.5,0,41,41,7,1,,,,,,,,,,,,,,,,,,,,,,,,,,,,,,,,,,,,,,,,
,,,,,WIN24_040,18,male,2024-02-07_14h02.35.827,jersey_experiment_5,2023.2.2,Win32,85.47008547,,,,,,,,,,,,,,,,352.1476,353.9473,353.9473,355.7004,return,0.1684,,99.34895833,,,,,,FBP-YG-17.png,0.45,1.2,35,1,0,42,42,34,1,,,,,,,,,,,,,,,,,,,,,,,,,,,,,,,,,,,,,,,,
,,,,,WIN24_040,18,male,2024-02-07_14h02.35.827,jersey_experiment_5,2023.2.2,Win32,85.47008547,,,,,,,,,,,,,,,,355.7006,356.9945,356.9945,358.2299,return,0.0516,,63.41145833,,,,,,FBP-OG-18.png,0.37,1.2,7,0.5,0,43,43,6,1,,,,,,,,,,,,,,,,,,,,,,,,,,,,,,,,,,,,,,,,
,,,,,WIN24_040,18,male,2024-02-07_14h02.35.827,jersey_experiment_5,2023.2.2,Win32,85.47008547,,,,,,,,,,,,,,,,358.2301,360.0301,360.0301,360.9242,return,0.1553,,99.34895833,,,,,,FBP-YG-18.png,0.45,1.2,40,1,0,44,44,39,1,,,,,,,,,,,,,,,,,,,,,,,,,,,,,,,,,,,,,,,,
,,,,,WIN24_040,18,male,2024-02-07_14h02.35.827,jersey_experiment_5,2023.2.2,Win32,85.47008547,,,,,,,,,,,,,,,,360.9244,362.2183,362.2184,362.983,return,0.3329,,98.30729167,,,,,,FBP-PT-91.png,0.45,1.2,60,0.5,0,45,45,59,1,,,,,,,,,,,,,,,,,,,,,,,,,,,,,,,,,,,,,,,,
,,,,,WIN24_040,18,male,2024-02-07_14h02.35.827,jersey_experiment_5,2023.2.2,Win32,85.47008547,,,,,,,,,,,,,,,,362.9832,364.7832,364.7834,365.8301,return,0.2631,,82.29166667,,,,,,FBP-RB-71.png,0.4,1.2,18,1,0,46,46,17,1,,,,,,,,,,,,,,,,,,,,,,,,,,,,,,,,,,,,,,,,
,,,,,WIN24_040,18,male,2024-02-07_14h02.35.827,jersey_experiment_5,2023.2.2,Win32,85.47008547,,,,,,,,,,,,,,,,365.8303,367.1244,367.1244,368.995,return,0.0661,,56.90104167,,,,,,FBP-OG-17.png,0.35,1.2,1,0.5,0,47,47,0,1,,,,,,,,,,,,,,,,,,,,,,,,,,,,,,,,,,,,,,,,
,,,,,WIN24_040,18,male,2024-02-07_14h02.35.827,jersey_experiment_5,2023.2.2,Win32,85.47008547,,,,,,,,,,,,,,,,368.9951,370.7951,370.7951,371.9246,return,0.194,,99.73958333,,,,,,FBP-RB-91.png,0.45,1.2,30,1,0,48,48,29,1,,,,,,,,,,,,,,,,,,,,,,,,,,,,,,,,,,,,,,,,
,,,,,WIN24_040,18,male,2024-02-07_14h02.35.827,jersey_experiment_5,2023.2.2,Win32,85.47008547,,,,,,,,,,,,,,,,371.9248,373.2187,373.2187,374.2188,return,0.1658,,98.69791667,,,,,,FBP-PT-71.png,0.43,1.2,49,0.5,0,49,49,48,1,,,,,,,,,,,,,,,,,,,,,,,,,,,,,,,,,,,,,,,,
,,,,,WIN24_040,18,male,2024-02-07_14h02.35.827,jersey_experiment_5,2023.2.2,Win32,85.47008547,,,,,,,,,,,,,,,,374.2189,375.5129,375.5129,376.5835,return,0.1677,,98.69791667,,,,,,FBP-OG-19.png,0.43,1.2,14,0.5,0,50,50,13,1,,,,,,,,,,,,,,,,,,,,,,,,,,,,,,,,,,,,,,,,
,,,,,WIN24_040,18,male,2024-02-07_14h02.35.827,jersey_experiment_5,2023.2.2,Win32,85.47008547,,,,,,,,,,,,,,,,376.5837,378.3836,378.3836,379.1248,return,0.217,,98.69791667,,,,,,FBP-YG-17.png,0.43,1.2,34,1,0,51,51,33,1,,,,,,,,,,,,,,,,,,,,,,,,,,,,,,,,,,,,,,,,
,,,,,WIN24_040,18,male,2024-02-07_14h02.35.827,jersey_experiment_5,2023.2.2,Win32,85.47008547,,,,,,,,,,,,,,,,379.1249,380.4189,380.419,382.1366,return,0.0823,,58.46354167,,,,,,FBP-PT-91.png,0.35,1.2,56,0.5,0,52,52,55,1,,,,,,,,,,,,,,,,,,,,,,,,,,,,,,,,,,,,,,,,
,,,,,WIN24_040,18,male,2024-02-07_14h02.35.827,jersey_experiment_5,2023.2.2,Win32,85.47008547,,,,,,,,,,,,,,,,382.1368,383.9367,383.9367,384.5367,return,0.0488,,58.46354167,,,,,,FBP-YG-17.png,0.35,1.2,31,1,0,53,53,30,1,,,,,,,,,,,,,,,,,,,,,,,,,,,,,,,,,,,,,,,,
,,,,,WIN24_040,18,male,2024-02-07_14h02.35.827,jersey_experiment_5,2023.2.2,Win32,85.47008547,,,,,,,,,,,,,,,,384.5368,386.3368,386.3368,386.9134,return,0.0903,,58.46354167,,,,,,FBP-RB-71.png,0.35,1.2,16,1,0,54,54,15,1,,,,,,,,,,,,,,,,,,,,,,,,,,,,,,,,,,,,,,,,
,,,,,WIN24_040,18,male,2024-02-07_14h02.35.827,jersey_experiment_5,2023.2.2,Win32,85.47008547,,,,,,,,,,,,,,,,386.9136,388.2074,388.2074,389.8311,return,0.2007,,85.02604167,,,,,,FBP-PT-91.png,0.43,1.2,59,0.5,0,55,55,58,1,,,,,,,,,,,,,,,,,,,,,,,,,,,,,,,,,,,,,,,,
,,,,,WIN24_040,18,male,2024-02-07_14h02.35.827,jersey_experiment_5,2023.2.2,Win32,85.47008547,,,,,,,,,,,,,,,,389.8312,391.1252,391.1253,393.3489,return,0.3232,,66.66666667,,,,,,FBP-PT-81.png,0.4,1.2,53,0.5,0,56,56,52,1,,,,,,,,,,,,,,,,,,,,,,,,,,,,,,,,,,,,,,,,
,,,,,WIN24_040,18,male,2024-02-07_14h02.35.827,jersey_experiment_5,2023.2.2,Win32,85.47008547,,,,,,,,,,,,,,,,393.349,394.643,394.6431,427.656,return,0.0248,,60.28645833,,,,,,FBP-PT-71.png,0.45,1.2,50,0.5,0,57,57,49,1,,,,,,,,,,,,,,,,,,,,,,,,,,,,,,,,,,,,,,,,
,,,,,WIN24_040,18,male,2024-02-07_14h02.35.827,jersey_experiment_5,2023.2.2,Win32,85.47008547,,,,,,,,,,,,,,,,427.6562,429.4561,429.4561,429.8915,return,0.0053,,81.51041667,,,,,,FBP-RB-71.png,0.37,1.2,17,1,0,58,58,16,1,,,,,,,,,,,,,,,,,,,,,,,,,,,,,,,,,,,,,,,,
,,,,,WIN24_040,18,male,2024-02-07_14h02.35.827,jersey_experiment_5,2023.2.2,Win32,85.47008547,,,,,,,,,,,,,,,,429.8916,431.6914,431.6914,432.1034,return,0.0961,,81.51041667,,,,,,FBP-RB-81.png,0.4,1.2,23,1,0,59,59,22,1,,,,,,,,,,,,,,,,,,,,,,,,,,,,,,,,,,,,,,,,
,,,,,WIN24_040,18,male,2024-02-07_14h02.35.827,jersey_experiment_5,2023.2.2,Win32,85.47008547,,,,,,,,,,,,,,,,,,,,,,,,,,,,,,,,,,,,,,,432.1037,552.108,,,,,,,,,,,,,,,,,,,,,,,,,,,,,,,,,,,,,,
,,,,,WIN24_040,18,male,2024-02-07_14h02.35.827,jersey_experiment_5,2023.2.2,Win32,85.47008547,,,,,,,,,,,,,,,,,,,,,,,,,,,,,,,,,,,,,,,,,552.1081,556.5081,return,4.3888,,,,,,,,,,,,,,,,,,,,,,,,,,,,,,,,,,
,,,,,WIN24_040,18,male,2024-02-07_14h02.35.827,jersey_experiment_5,2023.2.2,Win32,85.47008547,,,,,,,,,,,,,,,,556.5142,557.8138,557.8138,561.4139,return,0.1077,,99.609375,,,,,,FBP-RB-18.png,0.45,1.2,25,0.5,,,,,,,,,,,,,0,0,0,24,1,,,,,,,,,,,,,,,,,,,,,,,,,,,,
,,,,,WIN24_040,18,male,2024-02-07_14h02.35.827,jersey_experiment_5,2023.2.2,Win32,85.47008547,,,,,,,,,,,,,,,,561.4143,563.2141,563.2141,563.6376,return,0.0258,,87.109375,,,,,,FBP-PT-19.png,0.4,1.2,58,1,,,,,,,,,,,,,0,1,1,57,1,,,,,,,,,,,,,,,,,,,,,,,,,,,,
,,,,,WIN24_040,18,male,2024-02-07_14h02.35.827,jersey_experiment_5,2023.2.2,Win32,85.47008547,,,,,,,,,,,,,,,,563.6377,564.9318,564.9318,566.0848,return,0.7941,,87.109375,,,,,,FBP-RB-19.png,0.4,1.2,28,0.5,,,,,,,,,,,,,0,2,2,27,1,,,,,,,,,,,,,,,,,,,,,,,,,,,,
,,,,,WIN24_040,18,male,2024-02-07_14h02.35.827,jersey_experiment_5,2023.2.2,Win32,85.47008547,,,,,,,,,,,,,,,,566.085,567.8848,567.8848,568.2612,return,0.0629,,86.97916667,,,,,,FBP-PT-18.png,0.37,1.2,52,1,,,,,,,,,,,,,0,3,3,51,1,,,,,,,,,,,,,,,,,,,,,,,,,,,,
,,,,,WIN24_040,18,male,2024-02-07_14h02.35.827,jersey_experiment_5,2023.2.2,Win32,85.47008547,,,,,,,,,,,,,,,,568.2613,569.5555,569.5555,570.4261,return,0.0345,,96.74479167,,,,,,FBP-RB-17.png,0.43,1.2,19,0.5,,,,,,,,,,,,,0,4,4,18,1,,,,,,,,,,,,,,,,,,,,,,,,,,,,
,,,,,WIN24_040,18,male,2024-02-07_14h02.35.827,jersey_experiment_5,2023.2.2,Win32,85.47008547,,,,,,,,,,,,,,,,570.4262,571.7202,571.7202,572.1555,return,0.0707,,96.74479167,,,,,,FBP-YG-71.png,0.43,1.2,34,0.5,,,,,,,,,,,,,0,5,5,33,1,,,,,,,,,,,,,,,,,,,,,,,,,,,,
,,,,,WIN24_040,18,male,2024-02-07_14h02.35.827,jersey_experiment_5,2023.2.2,Win32,85.47008547,,,,,,,,,,,,,,,,572.1557,573.9556,573.9556,574.3321,return,0.0236,,78.38541667,,,,,,FBP-OG-91.png,0.35,1.2,11,1,,,,,,,,,,,,,0,6,6,10,1,,,,,,,,,,,,,,,,,,,,,,,,,,,,
,,,,,WIN24_040,18,male,2024-02-07_14h02.35.827,jersey_experiment_5,2023.2.2,Win32,85.47008547,,,,,,,,,,,,,,,,574.3323,576.1322,576.1322,576.7086,return,0.0164,,92.1875,,,,,,FBP-OG-81.png,0.43,1.2,9,1,,,,,,,,,,,,,0,7,7,8,1,,,,,,,,,,,,,,,,,,,,,,,,,,,,
,,,,,WIN24_040,18,male,2024-02-07_14h02.35.827,jersey_experiment_5,2023.2.2,Win32,85.47008547,,,,,,,,,,,,,,,,576.7087,578.5087,578.5087,578.9088,return,0.0614,,91.796875,,,,,,FBP-OG-81.png,0.4,1.2,8,1,,,,,,,,,,,,,0,8,8,7,1,,,,,,,,,,,,,,,,,,,,,,,,,,,,
,,,,,WIN24_040,18,male,2024-02-07_14h02.35.827,jersey_experiment_5,2023.2.2,Win32,85.47008547,,,,,,,,,,,,,,,,578.9089,580.7088,580.7088,581.0617,return,0.0045,,91.796875,,,,,,FBP-PT-17.png,0.4,1.2,48,1,,,,,,,,,,,,,0,9,9,47,1,,,,,,,,,,,,,,,,,,,,,,,,,,,,
,,,,,WIN24_040,18,male,2024-02-07_14h02.35.827,jersey_experiment_5,2023.2.2,Win32,85.47008547,,,,,,,,,,,,,,,,581.0619,582.8619,582.8619,584.1206,return,0.0594,,64.71354167,,,,,,FBP-OG-91.png,0.37,1.2,12,1,,,,,,,,,,,,,0,10,10,11,1,,,,,,,,,,,,,,,,,,,,,,,,,,,,
,,,,,WIN24_040,18,male,2024-02-07_14h02.35.827,jersey_experiment_5,2023.2.2,Win32,85.47008547,,,,,,,,,,,,,,,,584.1209,585.4148,585.4148,586.8737,return,0.0715,,99.34895833,,,,,,FBP-YG-71.png,0.45,1.2,35,0.5,,,,,,,,,,,,,0,11,11,34,1,,,,,,,,,,,,,,,,,,,,,,,,,,,,
,,,,,WIN24_040,18,male,2024-02-07_14h02.35.827,jersey_experiment_5,2023.2.2,Win32,85.47008547,,,,,,,,,,,,,,,,586.8739,588.1679,588.1679,589.4268,return,0.443,,93.48958333,,,,,,FBP-YG-81.png,0.37,1.2,37,0.5,,,,,,,,,,,,,0,12,12,36,1,,,,,,,,,,,,,,,,,,,,,,,,,,,,
,,,,,WIN24_040,18,male,2024-02-07_14h02.35.827,jersey_experiment_5,2023.2.2,Win32,85.47008547,,,,,,,,,,,,,,,,589.427,590.721,590.721,591.368,return,0.0731,,84.89583333,,,,,,FBP-RB-18.png,0.35,1.2,21,0.5,,,,,,,,,,,,,0,13,13,20,1,,,,,,,,,,,,,,,,,,,,,,,,,,,,
,,,,,WIN24_040,18,male,2024-02-07_14h02.35.827,jersey_experiment_5,2023.2.2,Win32,85.47008547,,,,,,,,,,,,,,,,591.3682,593.1682,593.1682,593.5799,return,0.0334,,84.89583333,,,,,,FBP-OG-81.png,0.37,1.2,7,1,,,,,,,,,,,,,0,14,14,6,1,,,,,,,,,,,,,,,,,,,,,,,,,,,,
,,,,,WIN24_040,18,male,2024-02-07_14h02.35.827,jersey_experiment_5,2023.2.2,Win32,85.47008547,,,,,,,,,,,,,,,,593.58,595.3799,595.38,595.8741,return,0.0061,,84.89583333,,,,,,FBP-PT-17.png,0.37,1.2,47,1,,,,,,,,,,,,,0,15,15,46,1,,,,,,,,,,,,,,,,,,,,,,,,,,,,
,,,,,WIN24_040,18,male,2024-02-07_14h02.35.827,jersey_experiment_5,2023.2.2,Win32,85.47008547,,,,,,,,,,,,,,,,595.8744,597.1683,597.1683,597.6035,return,0.0411,,84.50520833,,,,,,FBP-YG-91.png,0.4,1.2,43,0.5,,,,,,,,,,,,,0,16,16,42,1,,,,,,,,,,,,,,,,,,,,,,,,,,,,
,,,,,WIN24_040,18,male,2024-02-07_14h02.35.827,jersey_experiment_5,2023.2.2,Win32,85.47008547,,,,,,,,,,,,,,,,597.6037,598.8978,598.8978,599.2742,return,0.0108,,84.24479167,,,,,,FBP-YG-71.png,0.35,1.2,31,0.5,,,,,,,,,,,,,0,17,17,30,1,,,,,,,,,,,,,,,,,,,,,,,,,,,,
,,,,,WIN24_040,18,male,2024-02-07_14h02.35.827,jersey_experiment_5,2023.2.2,Win32,85.47008547,,,,,,,,,,,,,,,,599.2743,600.5684,600.5684,601.5567,return,0.6647,,83.85416667,,,,,,FBP-RB-17.png,0.35,1.2,16,0.5,,,,,,,,,,,,,0,18,18,15,1,,,,,,,,,,,,,,,,,,,,,,,,,,,,
,,,,,WIN24_040,18,male,2024-02-07_14h02.35.827,jersey_experiment_5,2023.2.2,Win32,85.47008547,,,,,,,,,,,,,,,,601.5568,602.8507,602.8507,603.2861,return,0.0268,,83.72395833,,,,,,FBP-YG-91.png,0.37,1.2,42,0.5,,,,,,,,,,,,,0,19,19,41,1,,,,,,,,,,,,,,,,,,,,,,,,,,,,
,,,,,WIN24_040,18,male,2024-02-07_14h02.35.827,jersey_experiment_5,2023.2.2,Win32,85.47008547,,,,,,,,,,,,,,,,603.2863,604.5803,604.5803,605.0273,return,0.019,,83.72395833,,,,,,FBP-RB-18.png,0.37,1.2,22,0.5,,,,,,,,,,,,,0,20,20,21,1,,,,,,,,,,,,,,,,,,,,,,,,,,,,
,,,,,WIN24_040,18,male,2024-02-07_14h02.35.827,jersey_experiment_5,2023.2.2,Win32,85.47008547,,,,,,,,,,,,,,,,605.0275,606.8274,606.8274,607.851,return,0.0847,,83.72395833,,,,,,FBP-PT-19.png,0.35,1.2,56,1,,,,,,,,,,,,,0,21,21,55,1,,,,,,,,,,,,,,,,,,,,,,,,,,,,
,,,,,WIN24_040,18,male,2024-02-07_14h02.35.827,jersey_experiment_5,2023.2.2,Win32,85.47008547,,,,,,,,,,,,,,,,607.8512,609.1451,609.1451,609.5569,return,0.0633,,83.72395833,,,,,,FBP-RB-19.png,0.35,1.2,26,0.5,,,,,,,,,,,,,0,22,22,25,1,,,,,,,,,,,,,,,,,,,,,,,,,,,,
,,,,,WIN24_040,18,male,2024-02-07_14h02.35.827,jersey_experiment_5,2023.2.2,Win32,85.47008547,,,,,,,,,,,,,,,,609.5571,610.8511,610.8511,611.4982,return,0.1402,,83.72395833,,,,,,FBP-RB-17.png,0.37,1.2,17,0.5,,,,,,,,,,,,,0,23,23,16,1,,,,,,,,,,,,,,,,,,,,,,,,,,,,
,,,,,WIN24_040,18,male,2024-02-07_14h02.35.827,jersey_experiment_5,2023.2.2,Win32,85.47008547,,,,,,,,,,,,,,,,611.4984,612.7924,612.7924,613.91,return,0.0751,,98.17708333,,,,,,FBP-RB-19.png,0.45,1.2,30,0.5,,,,,,,,,,,,,0,24,24,29,1,,,,,,,,,,,,,,,,,,,,,,,,,,,,
,,,,,WIN24_040,18,male,2024-02-07_14h02.35.827,jersey_experiment_5,2023.2.2,Win32,85.47008547,,,,,,,,,,,,,,,,613.9102,615.2043,615.2043,615.7807,return,0.1678,,97.78645833,,,,,,FBP-YG-91.png,0.43,1.2,44,0.5,,,,,,,,,,,,,0,25,25,43,1,,,,,,,,,,,,,,,,,,,,,,,,,,,,
,,,,,WIN24_040,18,male,2024-02-07_14h02.35.827,jersey_experiment_5,2023.2.2,Win32,85.47008547,,,,,,,,,,,,,,,,615.7809,617.075,617.075,617.5807,return,0.1411,,97.78645833,,,,,,FBP-RB-19.png,0.37,1.2,27,0.5,,,,,,,,,,,,,0,26,26,26,1,,,,,,,,,,,,,,,,,,,,,,,,,,,,
,,,,,WIN24_040,18,male,2024-02-07_14h02.35.827,jersey_experiment_5,2023.2.2,Win32,85.47008547,,,,,,,,,,,,,,,,617.5808,618.8749,618.8749,619.2514,return,0.0775,,97.78645833,,,,,,FBP-YG-81.png,0.4,1.2,38,0.5,,,,,,,,,,,,,0,27,27,37,1,,,,,,,,,,,,,,,,,,,,,,,,,,,,
,,,,,WIN24_040,18,male,2024-02-07_14h02.35.827,jersey_experiment_5,2023.2.2,Win32,85.47008547,,,,,,,,,,,,,,,,619.2516,621.0515,621.0515,621.5221,return,0.1379,,97.78645833,,,,,,FBP-OG-91.png,0.43,1.2,14,1,,,,,,,,,,,,,0,28,28,13,1,,,,,,,,,,,,,,,,,,,,,,,,,,,,
,,,,,WIN24_040,18,male,2024-02-07_14h02.35.827,jersey_experiment_5,2023.2.2,Win32,85.47008547,,,,,,,,,,,,,,,,621.5222,623.3222,623.3222,623.734,return,0.0976,,97.78645833,,,,,,FBP-OG-91.png,0.45,1.2,15,1,,,,,,,,,,,,,0,29,29,14,1,,,,,,,,,,,,,,,,,,,,,,,,,,,,
,,,,,WIN24_040,18,male,2024-02-07_14h02.35.827,jersey_experiment_5,2023.2.2,Win32,85.47008547,,,,,,,,,,,,,,,,623.7341,625.0281,625.0281,625.4752,return,0.0897,,97.52604167,,,,,,FBP-RB-19.png,0.43,1.2,29,0.5,,,,,,,,,,,,,0,30,30,28,1,,,,,,,,,,,,,,,,,,,,,,,,,,,,
,,,,,WIN24_040,18,male,2024-02-07_14h02.35.827,jersey_experiment_5,2023.2.2,Win32,85.47008547,,,,,,,,,,,,,,,,625.4755,626.7694,626.7694,627.2047,return,0.0863,,97.39583333,,,,,,FBP-YG-81.png,0.45,1.2,40,0.5,,,,,,,,,,,,,0,31,31,39,1,,,,,,,,,,,,,,,,,,,,,,,,,,,,
,,,,,WIN24_040,18,male,2024-02-07_14h02.35.827,jersey_experiment_5,2023.2.2,Win32,85.47008547,,,,,,,,,,,,,,,,627.2047,628.4989,628.4989,629.4518,return,0.1185,,86.19791667,,,,,,FBP-YG-71.png,0.4,1.2,33,0.5,,,,,,,,,,,,,0,32,32,32,1,,,,,,,,,,,,,,,,,,,,,,,,,,,,
,,,,,WIN24_040,18,male,2024-02-07_14h02.35.827,jersey_experiment_5,2023.2.2,Win32,85.47008547,,,,,,,,,,,,,,,,629.452,631.2518,631.2518,631.5931,return,0.0238,,86.06770833,,,,,,FBP-OG-71.png,0.37,1.2,2,1,,,,,,,,,,,,,0,33,33,1,1,,,,,,,,,,,,,,,,,,,,,,,,,,,,
,,,,,WIN24_040,18,male,2024-02-07_14h02.35.827,jersey_experiment_5,2023.2.2,Win32,85.47008547,,,,,,,,,,,,,,,,631.5933,633.3932,633.3933,634.0992,return,0.0881,,94.79166667,,,,,,FBP-OG-71.png,0.45,1.2,5,1,,,,,,,,,,,,,0,34,34,4,1,,,,,,,,,,,,,,,,,,,,,,,,,,,,
,,,,,WIN24_040,18,male,2024-02-07_14h02.35.827,jersey_experiment_5,2023.2.2,Win32,85.47008547,,,,,,,,,,,,,,,,634.0993,635.8991,635.8992,636.358,return,0.0136,,94.79166667,,,,,,FBP-PT-17.png,0.45,1.2,50,1,,,,,,,,,,,,,0,35,35,49,1,,,,,,,,,,,,,,,,,,,,,,,,,,,,
,,,,,WIN24_040,18,male,2024-02-07_14h02.35.827,jersey_experiment_5,2023.2.2,Win32,85.47008547,,,,,,,,,,,,,,,,636.3581,638.1581,638.1581,640.3699,return,0.0305,,25.91145833,,,,,,FBP-PT-18.png,0.35,1.2,51,1,,,,,,,,,,,,,0,36,36,50,1,,,,,,,,,,,,,,,,,,,,,,,,,,,,
,,,,,WIN24_040,18,male,2024-02-07_14h02.35.827,jersey_experiment_5,2023.2.2,Win32,85.47008547,,,,,,,,,,,,,,,,640.37,642.1701,642.1701,643.3818,return,0.652,,25.65104167,,,,,,FBP-PT-17.png,0.35,1.2,46,1,,,,,,,,,,,,,0,37,37,45,1,,,,,,,,,,,,,,,,,,,,,,,,,,,,
,,,,,WIN24_040,18,male,2024-02-07_14h02.35.827,jersey_experiment_5,2023.2.2,Win32,85.47008547,,,,,,,,,,,,,,,,643.3819,645.1817,645.1817,646.0054,return,0.1561,,56.38020833,,,,,,FBP-OG-71.png,0.4,1.2,3,1,,,,,,,,,,,,,0,38,38,2,1,,,,,,,,,,,,,,,,,,,,,,,,,,,,
,,,,,WIN24_040,18,male,2024-02-07_14h02.35.827,jersey_experiment_5,2023.2.2,Win32,85.47008547,,,,,,,,,,,,,,,,646.0055,647.2995,647.2995,647.923,return,0.0428,,39.32291667,,,,,,FBP-YG-91.png,0.35,1.2,41,0.5,,,,,,,,,,,,,0,39,39,40,1,,,,,,,,,,,,,,,,,,,,,,,,,,,,
,,,,,WIN24_040,18,male,2024-02-07_14h02.35.827,jersey_experiment_5,2023.2.2,Win32,85.47008547,,,,,,,,,,,,,,,,647.9232,649.7233,649.7233,650.2526,return,0.0479,,25.78125,,,,,,FBP-OG-71.png,0.35,1.2,1,1,,,,,,,,,,,,,0,40,40,0,1,,,,,,,,,,,,,,,,,,,,,,,,,,,,
,,,,,WIN24_040,18,male,2024-02-07_14h02.35.827,jersey_experiment_5,2023.2.2,Win32,85.47008547,,,,,,,,,,,,,,,,650.2528,652.0526,652.0526,653.0174,return,0.0585,,79.16666667,,,,,,FBP-PT-19.png,0.45,1.2,60,1,,,,,,,,,,,,,0,41,41,59,1,,,,,,,,,,,,,,,,,,,,,,,,,,,,
,,,,,WIN24_040,18,male,2024-02-07_14h02.35.827,jersey_experiment_5,2023.2.2,Win32,85.47008547,,,,,,,,,,,,,,,,653.0175,654.3116,654.3116,655.1939,return,0.0368,,39.32291667,,,,,,FBP-YG-81.png,0.35,1.2,36,0.5,,,,,,,,,,,,,0,42,42,35,1,,,,,,,,,,,,,,,,,,,,,,,,,,,,
,,,,,WIN24_040,18,male,2024-02-07_14h02.35.827,jersey_experiment_5,2023.2.2,Win32,85.47008547,,,,,,,,,,,,,,,,655.1941,656.4882,656.4882,657.7353,return,0.4955,,88.93229167,,,,,,FBP-RB-18.png,0.43,1.2,24,0.5,,,,,,,,,,,,,0,43,43,23,1,,,,,,,,,,,,,,,,,,,,,,,,,,,,
,,,,,WIN24_040,18,male,2024-02-07_14h02.35.827,jersey_experiment_5,2023.2.2,Win32,85.47008547,,,,,,,,,,,,,,,,657.7355,659.5354,659.5354,660.1236,return,0.0335,,97.52604167,,,,,,FBP-OG-81.png,0.45,1.2,10,1,,,,,,,,,,,,,0,44,44,9,1,,,,,,,,,,,,,,,,,,,,,,,,,,,,
,,,,,WIN24_040,18,male,2024-02-07_14h02.35.827,jersey_experiment_5,2023.2.2,Win32,85.47008547,,,,,,,,,,,,,,,,660.1238,661.9237,661.9237,662.3001,return,0.0138,,95.703125,,,,,,FBP-PT-19.png,0.43,1.2,59,1,,,,,,,,,,,,,0,45,45,58,1,,,,,,,,,,,,,,,,,,,,,,,,,,,,
,,,,,WIN24_040,18,male,2024-02-07_14h02.35.827,jersey_experiment_5,2023.2.2,Win32,85.47008547,,,,,,,,,,,,,,,,662.3002,664.1002,664.1002,664.406,return,0.0148,,95.703125,,,,,,FBP-PT-18.png,0.43,1.2,54,1,,,,,,,,,,,,,0,46,46,53,1,,,,,,,,,,,,,,,,,,,,,,,,,,,,
,,,,,WIN24_040,18,male,2024-02-07_14h02.35.827,jersey_experiment_5,2023.2.2,Win32,85.47008547,,,,,,,,,,,,,,,,664.4062,665.7002,665.7002,666.9003,return,0.0399,,66.40625,,,,,,FBP-RB-18.png,0.4,1.2,23,0.5,,,,,,,,,,,,,0,47,47,22,1,,,,,,,,,,,,,,,,,,,,,,,,,,,,
,,,,,WIN24_040,18,male,2024-02-07_14h02.35.827,jersey_experiment_5,2023.2.2,Win32,85.47008547,,,,,,,,,,,,,,,,666.9004,668.1945,668.1945,668.9474,return,0.172,,57.29166667,,,,,,FBP-YG-91.png,0.45,1.2,45,0.5,,,,,,,,,,,,,0,48,48,44,1,,,,,,,,,,,,,,,,,,,,,,,,,,,,
,,,,,WIN24_040,18,male,2024-02-07_14h02.35.827,jersey_experiment_5,2023.2.2,Win32,85.47008547,,,,,,,,,,,,,,,,668.9476,670.2416,670.2416,670.818,return,0.0999,,84.50520833,,,,,,FBP-RB-17.png,0.45,1.2,20,0.5,,,,,,,,,,,,,0,49,49,19,1,,,,,,,,,,,,,,,,,,,,,,,,,,,,
,,,,,WIN24_040,18,male,2024-02-07_14h02.35.827,jersey_experiment_5,2023.2.2,Win32,85.47008547,,,,,,,,,,,,,,,,670.8182,672.6182,672.6182,673.0417,return,0.0665,,66.40625,,,,,,FBP-OG-91.png,0.4,1.2,13,1,,,,,,,,,,,,,0,50,50,12,1,,,,,,,,,,,,,,,,,,,,,,,,,,,,
,,,,,WIN24_040,18,male,2024-02-07_14h02.35.827,jersey_experiment_5,2023.2.2,Win32,85.47008547,,,,,,,,,,,,,,,,673.0419,674.8418,674.8418,675.2418,return,0.0604,,63.28125,,,,,,FBP-PT-18.png,0.4,1.2,53,1,,,,,,,,,,,,,0,51,51,52,1,,,,,,,,,,,,,,,,,,,,,,,,,,,,
,,,,,WIN24_040,18,male,2024-02-07_14h02.35.827,jersey_experiment_5,2023.2.2,Win32,85.47008547,,,,,,,,,,,,,,,,675.242,676.536,676.536,677.0301,return,0.04,,63.28125,,,,,,FBP-YG-81.png,0.43,1.2,39,0.5,,,,,,,,,,,,,0,52,52,38,1,,,,,,,,,,,,,,,,,,,,,,,,,,,,
,,,,,WIN24_040,18,male,2024-02-07_14h02.35.827,jersey_experiment_5,2023.2.2,Win32,85.47008547,,,,,,,,,,,,,,,,677.0303,678.8301,678.8302,679.336,return,0.0487,,45.18229167,,,,,,FBP-PT-19.png,0.37,1.2,57,1,,,,,,,,,,,,,0,53,53,56,1,,,,,,,,,,,,,,,,,,,,,,,,,,,,
,,,,,WIN24_040,18,male,2024-02-07_14h02.35.827,jersey_experiment_5,2023.2.2,Win32,85.47008547,,,,,,,,,,,,,,,,679.3362,681.1361,681.1361,681.5243,return,0.0648,,38.80208333,,,,,,FBP-OG-81.png,0.35,1.2,6,1,,,,,,,,,,,,,0,54,54,5,1,,,,,,,,,,,,,,,,,,,,,,,,,,,,
,,,,,WIN24_040,18,male,2024-02-07_14h02.35.827,jersey_experiment_5,2023.2.2,Win32,85.47008547,,,,,,,,,,,,,,,,681.5245,682.8185,682.8185,683.2538,return,0.0383,,38.80208333,,,,,,FBP-RB-17.png,0.4,1.2,18,0.5,,,,,,,,,,,,,0,55,55,17,1,,,,,,,,,,,,,,,,,,,,,,,,,,,,
,,,,,WIN24_040,18,male,2024-02-07_14h02.35.827,jersey_experiment_5,2023.2.2,Win32,85.47008547,,,,,,,,,,,,,,,,683.254,685.054,685.054,685.6893,return,0.2115,,81.11979167,,,,,,FBP-PT-17.png,0.43,1.2,49,1,,,,,,,,,,,,,0,56,56,48,1,,,,,,,,,,,,,,,,,,,,,,,,,,,,
,,,,,WIN24_040,18,male,2024-02-07_14h02.35.827,jersey_experiment_5,2023.2.2,Win32,85.47008547,,,,,,,,,,,,,,,,685.6894,687.4893,687.4893,688.054,return,0.0515,,85.546875,,,,,,FBP-PT-18.png,0.45,1.2,55,1,,,,,,,,,,,,,0,57,57,54,1,,,,,,,,,,,,,,,,,,,,,,,,,,,,
,,,,,WIN24_040,18,male,2024-02-07_14h02.35.827,jersey_experiment_5,2023.2.2,Win32,85.47008547,,,,,,,,,,,,,,,,688.0542,689.3482,689.3482,690.0188,return,0.0667,,62.5,,,,,,FBP-YG-71.png,0.37,1.2,32,0.5,,,,,,,,,,,,,0,58,58,31,1,,,,,,,,,,,,,,,,,,,,,,,,,,,,
,,,,,WIN24_040,18,male,2024-02-07_14h02.35.827,jersey_experiment_5,2023.2.2,Win32,85.47008547,,,,,,,,,,,,,,,,690.019,691.8188,691.8189,692.2424,return,0.079,,89.0625,,,,,,FBP-OG-71.png,0.43,1.2,4,1,,,,,,,,,,,,,0,59,59,3,1,,,,,,,,,,,,,,,,,,,,,,,,,,,,
,,,,,WIN24_040,18,male,2024-02-07_14h02.35.827,jersey_experiment_5,2023.2.2,Win32,85.47008547,,,,,,,,,,,,,,,,692.244,694.0427,694.0427,694.5718,return,0.1281,,62.36979167,,,,,,FBP-OG-19.png,0.35,1.2,11,1,,,,,,,,,,,,,,,,,,0,0,0,10,1,,,,,,,,,,,,,,,,,,,,,,,
,,,,,WIN24_040,18,male,2024-02-07_14h02.35.827,jersey_experiment_5,2023.2.2,Win32,85.47008547,,,,,,,,,,,,,,,,694.572,695.866,695.866,696.3132,return,0.0589,,62.36979167,,,,,,FBP-YG-17.png,0.37,1.2,32,0.5,,,,,,,,,,,,,,,,,,0,1,1,31,1,,,,,,,,,,,,,,,,,,,,,,,
,,,,,WIN24_040,18,male,2024-02-07_14h02.35.827,jersey_experiment_5,2023.2.2,Win32,85.47008547,,,,,,,,,,,,,,,,696.3135,698.1133,698.1133,698.9839,return,0.0483,,89.71354167,,,,,,FBP-OG-18.png,0.43,1.2,9,1,,,,,,,,,,,,,,,,,,0,2,2,8,1,,,,,,,,,,,,,,,,,,,,,,,
,,,,,WIN24_040,18,male,2024-02-07_14h02.35.827,jersey_experiment_5,2023.2.2,Win32,85.47008547,,,,,,,,,,,,,,,,698.9841,700.2781,700.2781,700.9252,return,0.1509,,87.76041667,,,,,,FBP-RB-71.png,0.43,1.2,19,0.5,,,,,,,,,,,,,,,,,,0,3,3,18,1,,,,,,,,,,,,,,,,,,,,,,,
,,,,,WIN24_040,18,male,2024-02-07_14h02.35.827,jersey_experiment_5,2023.2.2,Win32,85.47008547,,,,,,,,,,,,,,,,700.9254,702.2193,702.2193,702.7488,return,0.1184,,87.63020833,,,,,,FBP-RB-81.png,0.4,1.2,23,0.5,,,,,,,,,,,,,,,,,,0,4,4,22,1,,,,,,,,,,,,,,,,,,,,,,,
,,,,,WIN24_040,18,male,2024-02-07_14h02.35.827,jersey_experiment_5,2023.2.2,Win32,85.47008547,,,,,,,,,,,,,,,,702.749,704.5488,704.5489,705.1254,return,0.0744,,68.09895833,,,,,,FBP-PT-81.png,0.4,1.2,53,1,,,,,,,,,,,,,,,,,,0,5,5,52,1,,,,,,,,,,,,,,,,,,,,,,,
,,,,,WIN24_040,18,male,2024-02-07_14h02.35.827,jersey_experiment_5,2023.2.2,Win32,85.47008547,,,,,,,,,,,,,,,,705.1256,706.4196,706.4196,706.996,return,0.0538,,86.58854167,,,,,,FBP-YG-17.png,0.45,1.2,35,0.5,,,,,,,,,,,,,,,,,,0,6,6,34,1,,,,,,,,,,,,,,,,,,,,,,,
,,,,,WIN24_040,18,male,2024-02-07_14h02.35.827,jersey_experiment_5,2023.2.2,Win32,85.47008547,,,,,,,,,,,,,,,,706.9963,708.7961,708.7961,709.3138,return,0.1148,,85.9375,,,,,,FBP-OG-17.png,0.43,1.2,4,1,,,,,,,,,,,,,,,,,,0,7,7,3,1,,,,,,,,,,,,,,,,,,,,,,,
,,,,,WIN24_040,18,male,2024-02-07_14h02.35.827,jersey_experiment_5,2023.2.2,Win32,85.47008547,,,,,,,,,,,,,,,,709.314,710.608,710.608,711.4431,return,0.1107,,85.9375,,,,,,FBP-YG-17.png,0.4,1.2,33,0.5,,,,,,,,,,,,,,,,,,0,8,8,32,1,,,,,,,,,,,,,,,,,,,,,,,
,,,,,WIN24_040,18,male,2024-02-07_14h02.35.827,jersey_experiment_5,2023.2.2,Win32,85.47008547,,,,,,,,,,,,,,,,711.4434,712.7373,712.7373,713.714,return,0.2322,,85.80729167,,,,,,FBP-RB-81.png,0.43,1.2,24,0.5,,,,,,,,,,,,,,,,,,0,9,9,23,1,,,,,,,,,,,,,,,,,,,,,,,
,,,,,WIN24_040,18,male,2024-02-07_14h02.35.827,jersey_experiment_5,2023.2.2,Win32,85.47008547,,,,,,,,,,,,,,,,713.7143,715.0081,715.0081,715.7845,return,0.3289,,85.67708333,,,,,,FBP-YG-19.png,0.45,1.2,45,0.5,,,,,,,,,,,,,,,,,,0,10,10,44,1,,,,,,,,,,,,,,,,,,,,,,,
,,,,,WIN24_040,18,male,2024-02-07_14h02.35.827,jersey_experiment_5,2023.2.2,Win32,85.47008547,,,,,,,,,,,,,,,,715.7848,717.5845,717.5845,718.1377,return,0.1309,,85.67708333,,,,,,FBP-OG-19.png,0.43,1.2,14,1,,,,,,,,,,,,,,,,,,0,11,11,13,1,,,,,,,,,,,,,,,,,,,,,,,
,,,,,WIN24_040,18,male,2024-02-07_14h02.35.827,jersey_experiment_5,2023.2.2,Win32,85.47008547,,,,,,,,,,,,,,,,718.1379,719.4318,719.4318,719.8788,return,0.073,,85.67708333,,,,,,FBP-RB-71.png,0.4,1.2,18,0.5,,,,,,,,,,,,,,,,,,0,12,12,17,1,,,,,,,,,,,,,,,,,,,,,,,
,,,,,WIN24_040,18,male,2024-02-07_14h02.35.827,jersey_experiment_5,2023.2.2,Win32,85.47008547,,,,,,,,,,,,,,,,719.879,721.1729,721.1729,721.514,return,0.0343,,85.67708333,,,,,,FBP-RB-81.png,0.45,1.2,25,0.5,,,,,,,,,,,,,,,,,,0,13,13,24,1,,,,,,,,,,,,,,,,,,,,,,,
,,,,,WIN24_040,18,male,2024-02-07_14h02.35.827,jersey_experiment_5,2023.2.2,Win32,85.47008547,,,,,,,,,,,,,,,,721.5143,722.8083,722.8083,723.7966,return,0.0162,,42.578125,,,,,,FBP-YG-18.png,0.35,1.2,36,0.5,,,,,,,,,,,,,,,,,,0,14,14,35,1,,,,,,,,,,,,,,,,,,,,,,,
,,,,,WIN24_040,18,male,2024-02-07_14h02.35.827,jersey_experiment_5,2023.2.2,Win32,85.47008547,,,,,,,,,,,,,,,,723.7968,725.0908,725.0908,725.5259,return,0.0967,,42.70833333,,,,,,FBP-YG-18.png,0.37,1.2,37,0.5,,,,,,,,,,,,,,,,,,0,15,15,36,1,,,,,,,,,,,,,,,,,,,,,,,
,,,,,WIN24_040,18,male,2024-02-07_14h02.35.827,jersey_experiment_5,2023.2.2,Win32,85.47008547,,,,,,,,,,,,,,,,725.5262,726.8204,726.8204,727.1969,return,0.0484,,42.70833333,,,,,,FBP-YG-18.png,0.43,1.2,39,0.5,,,,,,,,,,,,,,,,,,0,16,16,38,1,,,,,,,,,,,,,,,,,,,,,,,
,,,,,WIN24_040,18,male,2024-02-07_14h02.35.827,jersey_experiment_5,2023.2.2,Win32,85.47008547,,,,,,,,,,,,,,,,727.1971,728.9969,728.9969,729.4203,return,0.0705,,43.88020833,,,,,,FBP-PT-71.png,0.37,1.2,47,1,,,,,,,,,,,,,,,,,,0,17,17,46,1,,,,,,,,,,,,,,,,,,,,,,,
,,,,,WIN24_040,18,male,2024-02-07_14h02.35.827,jersey_experiment_5,2023.2.2,Win32,85.47008547,,,,,,,,,,,,,,,,729.4206,731.2205,731.2205,731.444,return,0.0157,,43.88020833,,,,,,FBP-OG-18.png,0.37,1.2,7,1,,,,,,,,,,,,,,,,,,0,18,18,6,1,,,,,,,,,,,,,,,,,,,,,,,
,,,,,WIN24_040,18,male,2024-02-07_14h02.35.827,jersey_experiment_5,2023.2.2,Win32,85.47008547,,,,,,,,,,,,,,,,731.4442,733.2442,733.2443,733.9735,return,0.1924,,80.59895833,,,,,,FBP-PT-71.png,0.45,1.2,50,1,,,,,,,,,,,,,,,,,,0,19,19,49,1,,,,,,,,,,,,,,,,,,,,,,,
,,,,,WIN24_040,18,male,2024-02-07_14h02.35.827,jersey_experiment_5,2023.2.2,Win32,85.47008547,,,,,,,,,,,,,,,,733.9737,735.2677,735.2677,735.8324,return,0.0249,,64.97395833,,,,,,FBP-YG-19.png,0.4,1.2,43,0.5,,,,,,,,,,,,,,,,,,0,20,20,42,1,,,,,,,,,,,,,,,,,,,,,,,
,,,,,WIN24_040,18,male,2024-02-07_14h02.35.827,jersey_experiment_5,2023.2.2,Win32,85.47008547,,,,,,,,,,,,,,,,735.8326,737.6325,737.6325,738.0443,return,0.0244,,42.578125,,,,,,FBP-OG-17.png,0.35,1.2,1,1,,,,,,,,,,,,,,,,,,0,21,21,0,1,,,,,,,,,,,,,,,,,,,,,,,
,,,,,WIN24_040,18,male,2024-02-07_14h02.35.827,jersey_experiment_5,2023.2.2,Win32,85.47008547,,,,,,,,,,,,,,,,738.0445,739.3384,739.3384,739.9618,return,0.0566,,84.50520833,,,,,,FBP-RB-71.png,0.45,1.2,20,0.5,,,,,,,,,,,,,,,,,,0,22,22,19,1,,,,,,,,,,,,,,,,,,,,,,,
,,,,,WIN24_040,18,male,2024-02-07_14h02.35.827,jersey_experiment_5,2023.2.2,Win32,85.47008547,,,,,,,,,,,,,,,,739.962,741.2561,741.2561,741.8679,return,0.0099,,68.88020833,,,,,,FBP-RB-81.png,0.37,1.2,22,0.5,,,,,,,,,,,,,,,,,,0,23,23,21,1,,,,,,,,,,,,,,,,,,,,,,,
,,,,,WIN24_040,18,male,2024-02-07_14h02.35.827,jersey_experiment_5,2023.2.2,Win32,85.47008547,,,,,,,,,,,,,,,,741.8681,743.162,743.162,743.5739,return,0.0491,,68.88020833,,,,,,FBP-YG-18.png,0.4,1.2,38,0.5,,,,,,,,,,,,,,,,,,0,24,24,37,1,,,,,,,,,,,,,,,,,,,,,,,
,,,,,WIN24_040,18,male,2024-02-07_14h02.35.827,jersey_experiment_5,2023.2.2,Win32,85.47008547,,,,,,,,,,,,,,,,743.574,744.8679,744.8679,745.3151,return,0.0433,,68.88020833,,,,,,FBP-YG-17.png,0.35,1.2,31,0.5,,,,,,,,,,,,,,,,,,0,25,25,30,1,,,,,,,,,,,,,,,,,,,,,,,
,,,,,WIN24_040,18,male,2024-02-07_14h02.35.827,jersey_experiment_5,2023.2.2,Win32,85.47008547,,,,,,,,,,,,,,,,745.3153,747.1151,747.1151,747.4681,return,0.0326,,55.46875,,,,,,FBP-OG-18.png,0.35,1.2,6,1,,,,,,,,,,,,,,,,,,0,26,26,5,1,,,,,,,,,,,,,,,,,,,,,,,
,,,,,WIN24_040,18,male,2024-02-07_14h02.35.827,jersey_experiment_5,2023.2.2,Win32,85.47008547,,,,,,,,,,,,,,,,747.4683,748.7622,748.7622,749.3154,return,0.0286,,70.3125,,,,,,FBP-RB-91.png,0.4,1.2,28,0.5,,,,,,,,,,,,,,,,,,0,27,27,27,1,,,,,,,,,,,,,,,,,,,,,,,
,,,,,WIN24_040,18,male,2024-02-07_14h02.35.827,jersey_experiment_5,2023.2.2,Win32,85.47008547,,,,,,,,,,,,,,,,749.3156,751.1152,751.1152,751.5622,return,0.1038,,87.76041667,,,,,,FBP-PT-91.png,0.45,1.2,60,1,,,,,,,,,,,,,,,,,,0,28,28,59,1,,,,,,,,,,,,,,,,,,,,,,,
,,,,,WIN24_040,18,male,2024-02-07_14h02.35.827,jersey_experiment_5,2023.2.2,Win32,85.47008547,,,,,,,,,,,,,,,,751.5624,753.3624,753.3625,753.7625,return,0.0435,,82.03125,,,,,,FBP-PT-91.png,0.43,1.2,59,1,,,,,,,,,,,,,,,,,,0,29,29,58,1,,,,,,,,,,,,,,,,,,,,,,,
,,,,,WIN24_040,18,male,2024-02-07_14h02.35.827,jersey_experiment_5,2023.2.2,Win32,85.47008547,,,,,,,,,,,,,,,,753.7626,755.5625,755.5626,756.645,return,0.1233,,59.89583333,,,,,,FBP-PT-71.png,0.35,1.2,46,1,,,,,,,,,,,,,,,,,,0,30,30,45,1,,,,,,,,,,,,,,,,,,,,,,,
,,,,,WIN24_040,18,male,2024-02-07_14h02.35.827,jersey_experiment_5,2023.2.2,Win32,85.47008547,,,,,,,,,,,,,,,,756.6452,757.9391,757.9391,758.8569,return,0.0824,,91.53645833,,,,,,FBP-YG-19.png,0.43,1.2,44,0.5,,,,,,,,,,,,,,,,,,0,31,31,43,1,,,,,,,,,,,,,,,,,,,,,,,
,,,,,WIN24_040,18,male,2024-02-07_14h02.35.827,jersey_experiment_5,2023.2.2,Win32,85.47008547,,,,,,,,,,,,,,,,758.8571,760.1509,760.1509,760.7273,return,0.0488,,65.88541667,,,,,,FBP-RB-91.png,0.37,1.2,27,0.5,,,,,,,,,,,,,,,,,,0,32,32,26,1,,,,,,,,,,,,,,,,,,,,,,,
,,,,,WIN24_040,18,male,2024-02-07_14h02.35.827,jersey_experiment_5,2023.2.2,Win32,85.47008547,,,,,,,,,,,,,,,,760.7275,762.0216,762.0217,763.3393,return,0.0606,,45.44270833,,,,,,FBP-RB-71.png,0.35,1.2,16,0.5,,,,,,,,,,,,,,,,,,0,33,33,15,1,,,,,,,,,,,,,,,,,,,,,,,
,,,,,WIN24_040,18,male,2024-02-07_14h02.35.827,jersey_experiment_5,2023.2.2,Win32,85.47008547,,,,,,,,,,,,,,,,763.3396,765.1394,765.1394,765.704,return,0.0495,,83.984375,,,,,,FBP-PT-71.png,0.43,1.2,49,1,,,,,,,,,,,,,,,,,,0,34,34,48,1,,,,,,,,,,,,,,,,,,,,,,,
,,,,,WIN24_040,18,male,2024-02-07_14h02.35.827,jersey_experiment_5,2023.2.2,Win32,85.47008547,,,,,,,,,,,,,,,,765.7043,767.5043,767.5044,768.1042,return,0.026,,85.41666667,,,,,,FBP-OG-19.png,0.4,1.2,13,1,,,,,,,,,,,,,,,,,,0,35,35,12,1,,,,,,,,,,,,,,,,,,,,,,,
,,,,,WIN24_040,18,male,2024-02-07_14h02.35.827,jersey_experiment_5,2023.2.2,Win32,85.47008547,,,,,,,,,,,,,,,,768.1044,769.9043,769.9043,770.3159,return,0.0342,,87.76041667,,,,,,FBP-PT-81.png,0.43,1.2,54,1,,,,,,,,,,,,,,,,,,0,36,36,53,1,,,,,,,,,,,,,,,,,,,,,,,
,,,,,WIN24_040,18,male,2024-02-07_14h02.35.827,jersey_experiment_5,2023.2.2,Win32,85.47008547,,,,,,,,,,,,,,,,770.3161,772.1162,772.1162,772.5161,return,0.042,,87.5,,,,,,FBP-OG-18.png,0.4,1.2,8,1,,,,,,,,,,,,,,,,,,0,37,37,7,1,,,,,,,,,,,,,,,,,,,,,,,
,,,,,WIN24_040,18,male,2024-02-07_14h02.35.827,jersey_experiment_5,2023.2.2,Win32,85.47008547,,,,,,,,,,,,,,,,772.5164,774.3162,774.3162,775.0927,return,0.4164,,87.36979167,,,,,,FBP-OG-18.png,0.45,1.2,10,1,,,,,,,,,,,,,,,,,,0,38,38,9,1,,,,,,,,,,,,,,,,,,,,,,,
,,,,,WIN24_040,18,male,2024-02-07_14h02.35.827,jersey_experiment_5,2023.2.2,Win32,85.47008547,,,,,,,,,,,,,,,,775.093,776.8928,776.8928,777.3044,return,0.0492,,67.31770833,,,,,,FBP-PT-91.png,0.35,1.2,56,1,,,,,,,,,,,,,,,,,,0,39,39,55,1,,,,,,,,,,,,,,,,,,,,,,,
,,,,,WIN24_040,18,male,2024-02-07_14h02.35.827,jersey_experiment_5,2023.2.2,Win32,85.47008547,,,,,,,,,,,,,,,,777.3046,779.1047,779.1047,779.787,return,0.1655,,88.54166667,,,,,,FBP-OG-19.png,0.45,1.2,15,1,,,,,,,,,,,,,,,,,,0,40,40,14,1,,,,,,,,,,,,,,,,,,,,,,,
,,,,,WIN24_040,18,male,2024-02-07_14h02.35.827,jersey_experiment_5,2023.2.2,Win32,85.47008547,,,,,,,,,,,,,,,,779.7872,781.0811,781.0811,781.5165,return,0.0943,,88.02083333,,,,,,FBP-YG-18.png,0.45,1.2,40,0.5,,,,,,,,,,,,,,,,,,0,41,41,39,1,,,,,,,,,,,,,,,,,,,,,,,
,,,,,WIN24_040,18,male,2024-02-07_14h02.35.827,jersey_experiment_5,2023.2.2,Win32,85.47008547,,,,,,,,,,,,,,,,781.5167,783.3166,783.3166,783.8695,return,0.0106,,63.93229167,,,,,,FBP-OG-17.png,0.37,1.2,2,1,,,,,,,,,,,,,,,,,,0,42,42,1,1,,,,,,,,,,,,,,,,,,,,,,,
,,,,,WIN24_040,18,male,2024-02-07_14h02.35.827,jersey_experiment_5,2023.2.2,Win32,85.47008547,,,,,,,,,,,,,,,,783.8696,785.6696,785.6696,786.4342,return,0.4555,,63.93229167,,,,,,FBP-OG-17.png,0.4,1.2,3,1,,,,,,,,,,,,,,,,,,0,43,43,2,1,,,,,,,,,,,,,,,,,,,,,,,
,,,,,WIN24_040,18,male,2024-02-07_14h02.35.827,jersey_experiment_5,2023.2.2,Win32,85.47008547,,,,,,,,,,,,,,,,786.4344,788.2342,788.2343,788.5991,return,0.0507,,88.54166667,,,,,,FBP-PT-71.png,0.4,1.2,48,1,,,,,,,,,,,,,,,,,,0,44,44,47,1,,,,,,,,,,,,,,,,,,,,,,,
,,,,,WIN24_040,18,male,2024-02-07_14h02.35.827,jersey_experiment_5,2023.2.2,Win32,85.47008547,,,,,,,,,,,,,,,,788.5993,789.8931,789.8932,790.4343,return,0.0421,,64.58333333,,,,,,FBP-YG-19.png,0.35,1.2,41,0.5,,,,,,,,,,,,,,,,,,0,45,45,40,1,,,,,,,,,,,,,,,,,,,,,,,
,,,,,WIN24_040,18,male,2024-02-07_14h02.35.827,jersey_experiment_5,2023.2.2,Win32,85.47008547,,,,,,,,,,,,,,,,790.4346,792.2346,792.2346,792.6345,return,0.1323,,83.85416667,,,,,,FBP-PT-81.png,0.45,1.2,55,1,,,,,,,,,,,,,,,,,,0,46,46,54,1,,,,,,,,,,,,,,,,,,,,,,,
,,,,,WIN24_040,18,male,2024-02-07_14h02.35.827,jersey_experiment_5,2023.2.2,Win32,85.47008547,,,,,,,,,,,,,,,,792.6347,793.9289,793.9289,794.4111,return,0.0802,,84.24479167,,,,,,FBP-RB-91.png,0.43,1.2,29,0.5,,,,,,,,,,,,,,,,,,0,47,47,28,1,,,,,,,,,,,,,,,,,,,,,,,
,,,,,WIN24_040,18,male,2024-02-07_14h02.35.827,jersey_experiment_5,2023.2.2,Win32,85.47008547,,,,,,,,,,,,,,,,794.4113,796.2112,796.2112,796.6347,return,0.108,,84.24479167,,,,,,FBP-OG-17.png,0.45,1.2,5,1,,,,,,,,,,,,,,,,,,0,48,48,4,1,,,,,,,,,,,,,,,,,,,,,,,
,,,,,WIN24_040,18,male,2024-02-07_14h02.35.827,jersey_experiment_5,2023.2.2,Win32,85.47008547,,,,,,,,,,,,,,,,796.6349,797.9288,797.9288,799.1876,return,0.5954,,68.75,,,,,,FBP-RB-71.png,0.37,1.2,17,0.5,,,,,,,,,,,,,,,,,,0,49,49,16,1,,,,,,,,,,,,,,,,,,,,,,,
,,,,,WIN24_040,18,male,2024-02-07_14h02.35.827,jersey_experiment_5,2023.2.2,Win32,85.47008547,,,,,,,,,,,,,,,,799.1878,800.9877,800.9878,801.3642,return,0.0653,,65.625,,,,,,FBP-OG-19.png,0.37,1.2,12,1,,,,,,,,,,,,,,,,,,0,50,50,11,1,,,,,,,,,,,,,,,,,,,,,,,
,,,,,WIN24_040,18,male,2024-02-07_14h02.35.827,jersey_experiment_5,2023.2.2,Win32,85.47008547,,,,,,,,,,,,,,,,801.3644,803.1642,803.1642,803.529,return,0.0376,,65.625,,,,,,FBP-PT-81.png,0.37,1.2,52,1,,,,,,,,,,,,,,,,,,0,51,51,51,1,,,,,,,,,,,,,,,,,,,,,,,
,,,,,WIN24_040,18,male,2024-02-07_14h02.35.827,jersey_experiment_5,2023.2.2,Win32,85.47008547,,,,,,,,,,,,,,,,803.5292,804.8232,804.8232,805.5879,return,0.0539,,88.02083333,,,,,,FBP-RB-91.png,0.45,1.2,30,0.5,,,,,,,,,,,,,,,,,,0,52,52,29,1,,,,,,,,,,,,,,,,,,,,,,,
,,,,,WIN24_040,18,male,2024-02-07_14h02.35.827,jersey_experiment_5,2023.2.2,Win32,85.47008547,,,,,,,,,,,,,,,,805.5882,807.3881,807.3881,807.7998,return,0.0499,,61.71875,,,,,,FBP-PT-91.png,0.4,1.2,58,1,,,,,,,,,,,,,,,,,,0,53,53,57,1,,,,,,,,,,,,,,,,,,,,,,,
,,,,,WIN24_040,18,male,2024-02-07_14h02.35.827,jersey_experiment_5,2023.2.2,Win32,85.47008547,,,,,,,,,,,,,,,,807.8,809.094,809.094,809.5293,return,0.0839,,61.71875,,,,,,FBP-RB-81.png,0.35,1.2,21,0.5,,,,,,,,,,,,,,,,,,0,54,54,20,1,,,,,,,,,,,,,,,,,,,,,,,
,,,,,WIN24_040,18,male,2024-02-07_14h02.35.827,jersey_experiment_5,2023.2.2,Win32,85.47008547,,,,,,,,,,,,,,,,809.5295,811.3293,811.3293,812.0235,return,0.1326,,61.71875,,,,,,FBP-PT-91.png,0.37,1.2,57,1,,,,,,,,,,,,,,,,,,0,55,55,56,1,,,,,,,,,,,,,,,,,,,,,,,
,,,,,WIN24_040,18,male,2024-02-07_14h02.35.827,jersey_experiment_5,2023.2.2,Win32,85.47008547,,,,,,,,,,,,,,,,812.0237,813.3177,813.3177,814.1883,return,0.1179,,83.46354167,,,,,,FBP-YG-17.png,0.43,1.2,34,0.5,,,,,,,,,,,,,,,,,,0,56,56,33,1,,,,,,,,,,,,,,,,,,,,,,,
,,,,,WIN24_040,18,male,2024-02-07_14h02.35.827,jersey_experiment_5,2023.2.2,Win32,85.47008547,,,,,,,,,,,,,,,,814.1886,815.4824,815.4825,816.3648,return,0.0567,,65.625,,,,,,FBP-YG-19.png,0.37,1.2,42,0.5,,,,,,,,,,,,,,,,,,0,57,57,41,1,,,,,,,,,,,,,,,,,,,,,,,
,,,,,WIN24_040,18,male,2024-02-07_14h02.35.827,jersey_experiment_5,2023.2.2,Win32,85.47008547,,,,,,,,,,,,,,,,816.365,818.1649,818.1649,818.5649,return,0.0517,,65.625,,,,,,FBP-PT-81.png,0.35,1.2,51,1,,,,,,,,,,,,,,,,,,0,58,58,50,1,,,,,,,,,,,,,,,,,,,,,,,
,,,,,WIN24_040,18,male,2024-02-07_14h02.35.827,jersey_experiment_5,2023.2.2,Win32,85.47008547,,,,,,,,,,,,,,,,818.5652,819.8591,819.8591,820.5062,return,0.0711,,65.625,,,,,,FBP-RB-91.png,0.35,1.2,26,0.5,,,,,,,,,,,,,,,,,,0,59,59,25,1,,,,,,,,,,,,,,,,,,,,,,,
,,,,,WIN24_040,18,male,2024-02-07_14h02.35.827,jersey_experiment_5,2023.2.2,Win32,85.47008547,,,,,,,,,,,,,,,,,,,,,,,,,,,,,,,,,,,,,,,,,,,,,,,,,,,,,,,,820.5066,825.436,return,4.917,,,,,,,,,,,,,,,,,,,
,,,,,WIN24_040,18,male,2024-02-07_14h02.35.827,jersey_experiment_5,2023.2.2,Win32,85.47008547,,,,,,,,,,,,,,,,,,,,,,,,,,,,,,,,,,,,,,,,,,,,,,,,,,,,,,,,,,,,,825.4361,829.73,1,3.3773,return,0.9026,,,,,,,,,,,,
,,,,,WIN24_040,18,male,2024-02-07_14h02.35.827,jersey_experiment_5,2023.2.2,Win32,85.47008547,,,,,,,,,,,,,,,,,,,,,,,,,,,,,,,,,,,,,,,,,,,,,,,,,,,,,,,,,,,,,,,,,,,,829.7301,896.3966,"seeing a difference between size and color. one patter is that the size may not have changed but the color of th eplayers jersey or skin did, and vice versa. ",right,60.0522,,,,,,
,,,,,WIN24_040,18,male,2024-02-07_14h02.35.827,jersey_experiment_5,2023.2.2,Win32,85.47008547,,,,,,,,,,,,,,,,,,,,,,,,,,,,,,,,,,,,,,,,,,,,,,,,,,,,,,,,,,,,,,,,,,,,,,,,,,896.3967,900.2504,return,3.8408,