requirements.started,requirements.stopped,key_resp_3.keys,key_resp_3.rt,key_resp_3.duration,Subject ID,Age,Gender,date,expName,psychopyVersion,OS,frameRate,instructions1.started,instructions1.stopped,key_resp.keys,key_resp.rt,key_resp.duration,example.started,example.stopped,enter_2.keys,enter_2.rt,enter_2.duration,instructions2.started,instructions2.stopped,enter_3.keys,enter_3.rt,enter_3.duration,image.started,image.stopped,slider_2.started,slider_2.stopped,next.keys,next.rt,next.duration,slider.response,trial_block_1.thisRepN,trial_block_1.thisTrialN,trial_block_1.thisN,trial_block_1.thisIndex,trial_block_1.ran,Path,Width,Height,Index,Duration,trial_block_2.thisRepN,trial_block_2.thisTrialN,trial_block_2.thisN,trial_block_2.thisIndex,trial_block_2.ran,rest_break.started,rest_break.stopped,end_break.started,end_break.stopped,key_resp_5.keys,key_resp_5.rt,key_resp_5.duration,trial_block_3.thisRepN,trial_block_3.thisTrialN,trial_block_3.thisN,trial_block_3.thisIndex,trial_block_3.ran,trial_block_4.thisRepN,trial_block_4.thisTrialN,trial_block_4.thisN,trial_block_4.thisIndex,trial_block_4.ran,questions_intro.started,questions_intro.stopped,enter_12.keys,enter_12.rt,enter_12.duration,question2.started,question2.stopped,question_doingbest.response,question_doingbest.rt,enter_15.keys,enter_15.rt,enter_15.duration,pattern.started,pattern.stopped,pattern_2.text,enter_17.keys,enter_17.rt,enter_17.duration,thankyou.started,thankyou.stopped,enter_14.keys,enter_14.rt,enter_14.duration
1E-04,9.5338,return,9.5295,,WIN24_031,21,F,2024-02-02_10h52.35.632,jersey_experiment_5,2023.2.2,Win32,84.03361345,,,,,,,,,,,,,,,,,,,,,,,,,,,,,,,,,,,,,,,,,,,,,,,,,,,,,,,,,,,,,,,,,,,,,,,,,,,,,,
,,,,,WIN24_031,21,F,2024-02-02_10h52.35.632,jersey_experiment_5,2023.2.2,Win32,84.03361345,9.5338,18.8989,return,9.3448,,,,,,,,,,,,,,,,,,,,,,,,,,,,,,,,,,,,,,,,,,,,,,,,,,,,,,,,,,,,,,,,,,,,,,,,,,
,,,,,WIN24_031,21,F,2024-02-02_10h52.35.632,jersey_experiment_5,2023.2.2,Win32,84.03361345,,,,,,18.899,24.4166,return,5.4821,,,,,,,,,,,,,,,,,,,,,,,,,,,,,,,,,,,,,,,,,,,,,,,,,,,,,,,,,,,,,,,,,,,,,
,,,,,WIN24_031,21,F,2024-02-02_10h52.35.632,jersey_experiment_5,2023.2.2,Win32,84.03361345,,,,,,,,,,,24.4168,44.4415,return,20.0091,,,,,,,,,,,,,,,,,,,,,,,,,,,,,,,,,,,,,,,,,,,,,,,,,,,,,,,,,,,,,,,,
,,,,,WIN24_031,21,F,2024-02-02_10h52.35.632,jersey_experiment_5,2023.2.2,Win32,84.03361345,,,,,,,,,,,,,,,,44.4531,45.7466,45.7466,53.088,return,2.5592,,75.65104167,0,0,0,8,1,FBP-OG-81.png,0.43,1.2,9,0.5,,,,,,,,,,,,,,,,,,,,,,,,,,,,,,,,,,,,,,,,,,,,,
,,,,,WIN24_031,21,F,2024-02-02_10h52.35.632,jersey_experiment_5,2023.2.2,Win32,84.03361345,,,,,,,,,,,,,,,,53.0884,54.888,54.8881,60.5353,return,3.5058,,25.26041667,0,1,1,21,1,FBP-RB-18.png,0.37,1.2,22,1,,,,,,,,,,,,,,,,,,,,,,,,,,,,,,,,,,,,,,,,,,,,,
,,,,,WIN24_031,21,F,2024-02-02_10h52.35.632,jersey_experiment_5,2023.2.2,Win32,84.03361345,,,,,,,,,,,,,,,,60.5425,62.3356,62.3356,65.2533,return,0.3444,,99.86979167,0,2,2,19,1,FBP-RB-17.png,0.45,1.2,20,1,,,,,,,,,,,,,,,,,,,,,,,,,,,,,,,,,,,,,,,,,,,,,
,,,,,WIN24_031,21,F,2024-02-02_10h52.35.632,jersey_experiment_5,2023.2.2,Win32,84.03361345,,,,,,,,,,,,,,,,65.2535,66.5473,66.5473,74.5947,return,0.5801,,0.260416667,0,3,3,5,1,FBP-OG-81.png,0.35,1.2,6,0.5,,,,,,,,,,,,,,,,,,,,,,,,,,,,,,,,,,,,,,,,,,,,,
,,,,,WIN24_031,21,F,2024-02-02_10h52.35.632,jersey_experiment_5,2023.2.2,Win32,84.03361345,,,,,,,,,,,,,,,,74.595,75.889,75.889,77.5362,return,0.277,,1.692708333,0,4,4,46,1,FBP-PT-17.png,0.37,1.2,47,0.5,,,,,,,,,,,,,,,,,,,,,,,,,,,,,,,,,,,,,,,,,,,,,
,,,,,WIN24_031,21,F,2024-02-02_10h52.35.632,jersey_experiment_5,2023.2.2,Win32,84.03361345,,,,,,,,,,,,,,,,77.5364,79.3362,79.3362,80.8184,return,0.157,,2.083333333,0,5,5,36,1,FBP-YG-81.png,0.37,1.2,37,1,,,,,,,,,,,,,,,,,,,,,,,,,,,,,,,,,,,,,,,,,,,,,
,,,,,WIN24_031,21,F,2024-02-02_10h52.35.632,jersey_experiment_5,2023.2.2,Win32,84.03361345,,,,,,,,,,,,,,,,80.8187,82.6187,82.6188,83.6192,return,0.2747,,73.95833333,0,6,6,32,1,FBP-YG-71.png,0.4,1.2,33,1,,,,,,,,,,,,,,,,,,,,,,,,,,,,,,,,,,,,,,,,,,,,,
,,,,,WIN24_031,21,F,2024-02-02_10h52.35.632,jersey_experiment_5,2023.2.2,Win32,84.03361345,,,,,,,,,,,,,,,,83.6197,85.4185,85.4185,95.4778,return,8.3302,,99.609375,0,7,7,43,1,FBP-YG-91.png,0.43,1.2,44,1,,,,,,,,,,,,,,,,,,,,,,,,,,,,,,,,,,,,,,,,,,,,,
,,,,,WIN24_031,21,F,2024-02-02_10h52.35.632,jersey_experiment_5,2023.2.2,Win32,84.03361345,,,,,,,,,,,,,,,,95.4825,96.7838,96.7838,99.4075,return,0.8774,,25.52083333,0,8,8,51,1,FBP-PT-18.png,0.37,1.2,52,0.5,,,,,,,,,,,,,,,,,,,,,,,,,,,,,,,,,,,,,,,,,,,,,
,,,,,WIN24_031,21,F,2024-02-02_10h52.35.632,jersey_experiment_5,2023.2.2,Win32,84.03361345,,,,,,,,,,,,,,,,99.4079,101.2077,101.2077,103.3021,return,0.8594,,64.84375,0,9,9,17,1,FBP-RB-17.png,0.4,1.2,18,1,,,,,,,,,,,,,,,,,,,,,,,,,,,,,,,,,,,,,,,,,,,,,
,,,,,WIN24_031,21,F,2024-02-02_10h52.35.632,jersey_experiment_5,2023.2.2,Win32,84.03361345,,,,,,,,,,,,,,,,103.3025,104.5959,104.5959,107.0546,return,0.9601,,24.609375,0,10,10,55,1,FBP-PT-19.png,0.35,1.2,56,0.5,,,,,,,,,,,,,,,,,,,,,,,,,,,,,,,,,,,,,,,,,,,,,
,,,,,WIN24_031,21,F,2024-02-02_10h52.35.632,jersey_experiment_5,2023.2.2,Win32,84.03361345,,,,,,,,,,,,,,,,107.055,108.8548,108.8549,111.5729,return,0.5762,,67.578125,0,11,11,29,1,FBP-RB-19.png,0.45,1.2,30,1,,,,,,,,,,,,,,,,,,,,,,,,,,,,,,,,,,,,,,,,,,,,,
,,,,,WIN24_031,21,F,2024-02-02_10h52.35.632,jersey_experiment_5,2023.2.2,Win32,84.03361345,,,,,,,,,,,,,,,,111.5731,112.8667,112.8668,117.3139,return,2.2635,,84.50520833,0,12,12,53,1,FBP-PT-18.png,0.43,1.2,54,0.5,,,,,,,,,,,,,,,,,,,,,,,,,,,,,,,,,,,,,,,,,,,,,
,,,,,WIN24_031,21,F,2024-02-02_10h52.35.632,jersey_experiment_5,2023.2.2,Win32,84.03361345,,,,,,,,,,,,,,,,117.3142,119.1141,119.1141,121.5024,return,0.2431,,29.42708333,0,13,13,27,1,FBP-RB-19.png,0.4,1.2,28,1,,,,,,,,,,,,,,,,,,,,,,,,,,,,,,,,,,,,,,,,,,,,,
,,,,,WIN24_031,21,F,2024-02-02_10h52.35.632,jersey_experiment_5,2023.2.2,Win32,84.03361345,,,,,,,,,,,,,,,,121.5026,123.3025,123.3025,126.185,return,1.8949,,75.78125,0,14,14,28,1,FBP-RB-19.png,0.43,1.2,29,1,,,,,,,,,,,,,,,,,,,,,,,,,,,,,,,,,,,,,,,,,,,,,
,,,,,WIN24_031,21,F,2024-02-02_10h52.35.632,jersey_experiment_5,2023.2.2,Win32,84.03361345,,,,,,,,,,,,,,,,126.1857,127.479,127.4791,130.7262,return,0.9768,,24.34895833,0,15,15,56,1,FBP-PT-19.png,0.37,1.2,57,0.5,,,,,,,,,,,,,,,,,,,,,,,,,,,,,,,,,,,,,,,,,,,,,
,,,,,WIN24_031,21,F,2024-02-02_10h52.35.632,jersey_experiment_5,2023.2.2,Win32,84.03361345,,,,,,,,,,,,,,,,130.7265,132.5263,132.5264,134.7265,return,0.2356,,13.671875,0,16,16,40,1,FBP-YG-91.png,0.35,1.2,41,1,,,,,,,,,,,,,,,,,,,,,,,,,,,,,,,,,,,,,,,,,,,,,
,,,,,WIN24_031,21,F,2024-02-02_10h52.35.632,jersey_experiment_5,2023.2.2,Win32,84.03361345,,,,,,,,,,,,,,,,134.7268,136.5264,136.5264,138.5265,return,1.1965,,99.609375,0,17,17,34,1,FBP-YG-71.png,0.45,1.2,35,1,,,,,,,,,,,,,,,,,,,,,,,,,,,,,,,,,,,,,,,,,,,,,
,,,,,WIN24_031,21,F,2024-02-02_10h52.35.632,jersey_experiment_5,2023.2.2,Win32,84.03361345,,,,,,,,,,,,,,,,138.5269,139.8207,139.8207,141.6562,return,0.8942,,89.0625,0,18,18,3,1,FBP-OG-71.png,0.43,1.2,4,0.5,,,,,,,,,,,,,,,,,,,,,,,,,,,,,,,,,,,,,,,,,,,,,
,,,,,WIN24_031,21,F,2024-02-02_10h52.35.632,jersey_experiment_5,2023.2.2,Win32,84.03361345,,,,,,,,,,,,,,,,141.6565,142.9503,142.9503,144.868,return,0.4373,,96.22395833,0,19,19,54,1,FBP-PT-18.png,0.45,1.2,55,0.5,,,,,,,,,,,,,,,,,,,,,,,,,,,,,,,,,,,,,,,,,,,,,
,,,,,WIN24_031,21,F,2024-02-02_10h52.35.632,jersey_experiment_5,2023.2.2,Win32,84.03361345,,,,,,,,,,,,,,,,144.8683,146.1622,146.1623,147.8802,return,0.2123,,99.73958333,0,20,20,9,1,FBP-OG-81.png,0.45,1.2,10,0.5,,,,,,,,,,,,,,,,,,,,,,,,,,,,,,,,,,,,,,,,,,,,,
,,,,,WIN24_031,21,F,2024-02-02_10h52.35.632,jersey_experiment_5,2023.2.2,Win32,84.03361345,,,,,,,,,,,,,,,,147.8807,149.1739,149.1739,150.9506,return,0.8148,,99.86979167,0,21,21,14,1,FBP-OG-91.png,0.45,1.2,15,0.5,,,,,,,,,,,,,,,,,,,,,,,,,,,,,,,,,,,,,,,,,,,,,
,,,,,WIN24_031,21,F,2024-02-02_10h52.35.632,jersey_experiment_5,2023.2.2,Win32,84.03361345,,,,,,,,,,,,,,,,150.9508,152.2446,152.2447,155.8096,return,1.7691,,7.8125,0,22,22,10,1,FBP-OG-91.png,0.35,1.2,11,0.5,,,,,,,,,,,,,,,,,,,,,,,,,,,,,,,,,,,,,,,,,,,,,
,,,,,WIN24_031,21,F,2024-02-02_10h52.35.632,jersey_experiment_5,2023.2.2,Win32,84.03361345,,,,,,,,,,,,,,,,155.8098,157.1036,157.1037,159.1039,return,0.7479,,63.54166667,0,23,23,52,1,FBP-PT-18.png,0.4,1.2,53,0.5,,,,,,,,,,,,,,,,,,,,,,,,,,,,,,,,,,,,,,,,,,,,,
,,,,,WIN24_031,21,F,2024-02-02_10h52.35.632,jersey_experiment_5,2023.2.2,Win32,84.03361345,,,,,,,,,,,,,,,,159.1041,160.3979,160.398,163.6687,return,1.9784,,76.04166667,0,24,24,48,1,FBP-PT-17.png,0.43,1.2,49,0.5,,,,,,,,,,,,,,,,,,,,,,,,,,,,,,,,,,,,,,,,,,,,,
,,,,,WIN24_031,21,F,2024-02-02_10h52.35.632,jersey_experiment_5,2023.2.2,Win32,84.03361345,,,,,,,,,,,,,,,,163.669,164.9628,164.9628,169.3514,return,2.2385,,74.21875,0,25,25,7,1,FBP-OG-81.png,0.4,1.2,8,0.5,,,,,,,,,,,,,,,,,,,,,,,,,,,,,,,,,,,,,,,,,,,,,
,,,,,WIN24_031,21,F,2024-02-02_10h52.35.632,jersey_experiment_5,2023.2.2,Win32,84.03361345,,,,,,,,,,,,,,,,169.3516,171.1512,171.1513,171.9748,return,0.2942,,25.52083333,0,26,26,16,1,FBP-RB-17.png,0.37,1.2,17,1,,,,,,,,,,,,,,,,,,,,,,,,,,,,,,,,,,,,,,,,,,,,,
,,,,,WIN24_031,21,F,2024-02-02_10h52.35.632,jersey_experiment_5,2023.2.2,Win32,84.03361345,,,,,,,,,,,,,,,,171.9752,173.2689,173.269,174.8691,return,0.5426,,33.203125,0,27,27,57,1,FBP-PT-19.png,0.4,1.2,58,0.5,,,,,,,,,,,,,,,,,,,,,,,,,,,,,,,,,,,,,,,,,,,,,
,,,,,WIN24_031,21,F,2024-02-02_10h52.35.632,jersey_experiment_5,2023.2.2,Win32,84.03361345,,,,,,,,,,,,,,,,174.8693,176.1632,176.1633,177.4576,return,0.2287,,50.390625,0,28,28,47,1,FBP-PT-17.png,0.4,1.2,48,0.5,,,,,,,,,,,,,,,,,,,,,,,,,,,,,,,,,,,,,,,,,,,,,
,,,,,WIN24_031,21,F,2024-02-02_10h52.35.632,jersey_experiment_5,2023.2.2,Win32,84.03361345,,,,,,,,,,,,,,,,177.4578,178.7515,178.7515,179.7163,return,0.1434,,74.609375,0,29,29,13,1,FBP-OG-91.png,0.43,1.2,14,0.5,,,,,,,,,,,,,,,,,,,,,,,,,,,,,,,,,,,,,,,,,,,,,
,,,,,WIN24_031,21,F,2024-02-02_10h52.35.632,jersey_experiment_5,2023.2.2,Win32,84.03361345,,,,,,,,,,,,,,,,179.7165,181.5165,181.5166,182.8225,return,0.2124,,72.39583333,0,30,30,38,1,FBP-YG-81.png,0.43,1.2,39,1,,,,,,,,,,,,,,,,,,,,,,,,,,,,,,,,,,,,,,,,,,,,,
,,,,,WIN24_031,21,F,2024-02-02_10h52.35.632,jersey_experiment_5,2023.2.2,Win32,84.03361345,,,,,,,,,,,,,,,,182.8226,184.1168,184.1169,186.7049,return,0.6976,,28.90625,0,31,31,45,1,FBP-PT-17.png,0.35,1.2,46,0.5,,,,,,,,,,,,,,,,,,,,,,,,,,,,,,,,,,,,,,,,,,,,,
,,,,,WIN24_031,21,F,2024-02-02_10h52.35.632,jersey_experiment_5,2023.2.2,Win32,84.03361345,,,,,,,,,,,,,,,,186.7051,188.5049,188.5049,189.3522,return,0.2973,,1.171875,0,32,32,25,1,FBP-RB-19.png,0.35,1.2,26,1,,,,,,,,,,,,,,,,,,,,,,,,,,,,,,,,,,,,,,,,,,,,,
,,,,,WIN24_031,21,F,2024-02-02_10h52.35.632,jersey_experiment_5,2023.2.2,Win32,84.03361345,,,,,,,,,,,,,,,,189.3524,190.6461,190.6461,192.117,return,0.2376,,91.66666667,0,33,33,4,1,FBP-OG-71.png,0.45,1.2,5,0.5,,,,,,,,,,,,,,,,,,,,,,,,,,,,,,,,,,,,,,,,,,,,,
,,,,,WIN24_031,21,F,2024-02-02_10h52.35.632,jersey_experiment_5,2023.2.2,Win32,84.03361345,,,,,,,,,,,,,,,,192.1173,193.9171,193.9171,195.3757,return,0.6066,,87.23958333,0,34,34,39,1,FBP-YG-81.png,0.45,1.2,40,1,,,,,,,,,,,,,,,,,,,,,,,,,,,,,,,,,,,,,,,,,,,,,
,,,,,WIN24_031,21,F,2024-02-02_10h52.35.632,jersey_experiment_5,2023.2.2,Win32,84.03361345,,,,,,,,,,,,,,,,195.376,196.6698,196.6699,199.2466,return,1.146,,74.34895833,0,35,35,58,1,FBP-PT-19.png,0.43,1.2,59,0.5,,,,,,,,,,,,,,,,,,,,,,,,,,,,,,,,,,,,,,,,,,,,,
,,,,,WIN24_031,21,F,2024-02-02_10h52.35.632,jersey_experiment_5,2023.2.2,Win32,84.03361345,,,,,,,,,,,,,,,,199.2468,200.5406,200.5407,201.6935,return,0.1974,,25.52083333,0,36,36,1,1,FBP-OG-71.png,0.37,1.2,2,0.5,,,,,,,,,,,,,,,,,,,,,,,,,,,,,,,,,,,,,,,,,,,,,
,,,,,WIN24_031,21,F,2024-02-02_10h52.35.632,jersey_experiment_5,2023.2.2,Win32,84.03361345,,,,,,,,,,,,,,,,201.6939,203.4936,203.4936,206.9527,return,2.2123,,100,0,37,37,24,1,FBP-RB-18.png,0.45,1.2,25,1,,,,,,,,,,,,,,,,,,,,,,,,,,,,,,,,,,,,,,,,,,,,,
,,,,,WIN24_031,21,F,2024-02-02_10h52.35.632,jersey_experiment_5,2023.2.2,Win32,84.03361345,,,,,,,,,,,,,,,,206.9529,208.247,208.247,210.9764,return,0.2144,,63.41145833,0,38,38,6,1,FBP-OG-81.png,0.37,1.2,7,0.5,,,,,,,,,,,,,,,,,,,,,,,,,,,,,,,,,,,,,,,,,,,,,
,,,,,WIN24_031,21,F,2024-02-02_10h52.35.632,jersey_experiment_5,2023.2.2,Win32,84.03361345,,,,,,,,,,,,,,,,210.9766,212.7763,212.7764,214.3175,return,0.2091,,75.52083333,0,39,39,42,1,FBP-YG-91.png,0.4,1.2,43,1,,,,,,,,,,,,,,,,,,,,,,,,,,,,,,,,,,,,,,,,,,,,,
,,,,,WIN24_031,21,F,2024-02-02_10h52.35.632,jersey_experiment_5,2023.2.2,Win32,84.03361345,,,,,,,,,,,,,,,,214.3178,216.1177,216.1178,217.0943,return,0.1884,,24.86979167,0,40,40,35,1,FBP-YG-81.png,0.35,1.2,36,1,,,,,,,,,,,,,,,,,,,,,,,,,,,,,,,,,,,,,,,,,,,,,
,,,,,WIN24_031,21,F,2024-02-02_10h52.35.632,jersey_experiment_5,2023.2.2,Win32,84.03361345,,,,,,,,,,,,,,,,217.0945,218.8945,218.8945,219.7647,return,0.178,,74.86979167,0,41,41,22,1,FBP-RB-18.png,0.4,1.2,23,1,,,,,,,,,,,,,,,,,,,,,,,,,,,,,,,,,,,,,,,,,,,,,
,,,,,WIN24_031,21,F,2024-02-02_10h52.35.632,jersey_experiment_5,2023.2.2,Win32,84.03361345,,,,,,,,,,,,,,,,219.7651,221.059,221.059,222.2237,return,0.3245,,74.86979167,0,42,42,2,1,FBP-OG-71.png,0.4,1.2,3,0.5,,,,,,,,,,,,,,,,,,,,,,,,,,,,,,,,,,,,,,,,,,,,,
,,,,,WIN24_031,21,F,2024-02-02_10h52.35.632,jersey_experiment_5,2023.2.2,Win32,84.03361345,,,,,,,,,,,,,,,,222.224,223.518,223.518,225.3651,return,0.1516,,85.80729167,0,43,43,11,1,FBP-OG-91.png,0.37,1.2,12,0.5,,,,,,,,,,,,,,,,,,,,,,,,,,,,,,,,,,,,,,,,,,,,,
,,,,,WIN24_031,21,F,2024-02-02_10h52.35.632,jersey_experiment_5,2023.2.2,Win32,84.03361345,,,,,,,,,,,,,,,,225.3654,227.165,227.1651,228.977,return,0.2173,,58.203125,0,44,44,41,1,FBP-YG-91.png,0.37,1.2,42,1,,,,,,,,,,,,,,,,,,,,,,,,,,,,,,,,,,,,,,,,,,,,,
,,,,,WIN24_031,21,F,2024-02-02_10h52.35.632,jersey_experiment_5,2023.2.2,Win32,84.03361345,,,,,,,,,,,,,,,,228.9772,230.777,230.777,232.7894,return,0.2157,,44.40104167,0,45,45,20,1,FBP-RB-18.png,0.35,1.2,21,1,,,,,,,,,,,,,,,,,,,,,,,,,,,,,,,,,,,,,,,,,,,,,
,,,,,WIN24_031,21,F,2024-02-02_10h52.35.632,jersey_experiment_5,2023.2.2,Win32,84.03361345,,,,,,,,,,,,,,,,232.7897,234.589,234.589,236.7891,return,0.2366,,99.86979167,0,46,46,33,1,FBP-YG-71.png,0.43,1.2,34,1,,,,,,,,,,,,,,,,,,,,,,,,,,,,,,,,,,,,,,,,,,,,,
,,,,,WIN24_031,21,F,2024-02-02_10h52.35.632,jersey_experiment_5,2023.2.2,Win32,84.03361345,,,,,,,,,,,,,,,,236.7892,238.5891,238.5892,239.5659,return,0.1856,,97.265625,0,47,47,23,1,FBP-RB-18.png,0.43,1.2,24,1,,,,,,,,,,,,,,,,,,,,,,,,,,,,,,,,,,,,,,,,,,,,,
,,,,,WIN24_031,21,F,2024-02-02_10h52.35.632,jersey_experiment_5,2023.2.2,Win32,84.03361345,,,,,,,,,,,,,,,,239.5664,241.3657,241.3658,242.9659,return,0.8715,,65.10416667,0,48,48,26,1,FBP-RB-19.png,0.37,1.2,27,1,,,,,,,,,,,,,,,,,,,,,,,,,,,,,,,,,,,,,,,,,,,,,
,,,,,WIN24_031,21,F,2024-02-02_10h52.35.632,jersey_experiment_5,2023.2.2,Win32,84.03361345,,,,,,,,,,,,,,,,242.9661,244.2599,244.2599,245.3423,return,0.1353,,75.13020833,0,49,49,12,1,FBP-OG-91.png,0.4,1.2,13,0.5,,,,,,,,,,,,,,,,,,,,,,,,,,,,,,,,,,,,,,,,,,,,,
,,,,,WIN24_031,21,F,2024-02-02_10h52.35.632,jersey_experiment_5,2023.2.2,Win32,84.03361345,,,,,,,,,,,,,,,,245.3426,246.6365,246.6365,247.8718,return,0.1007,,100,0,50,50,59,1,FBP-PT-19.png,0.45,1.2,60,0.5,,,,,,,,,,,,,,,,,,,,,,,,,,,,,,,,,,,,,,,,,,,,,
,,,,,WIN24_031,21,F,2024-02-02_10h52.35.632,jersey_experiment_5,2023.2.2,Win32,84.03361345,,,,,,,,,,,,,,,,247.872,249.6718,249.6718,252.0839,return,1.3441,,42.1875,0,51,51,31,1,FBP-YG-71.png,0.37,1.2,32,1,,,,,,,,,,,,,,,,,,,,,,,,,,,,,,,,,,,,,,,,,,,,,
,,,,,WIN24_031,21,F,2024-02-02_10h52.35.632,jersey_experiment_5,2023.2.2,Win32,84.03361345,,,,,,,,,,,,,,,,252.0842,253.3778,253.3779,254.3546,return,0.1807,,10.80729167,0,52,52,50,1,FBP-PT-18.png,0.35,1.2,51,0.5,,,,,,,,,,,,,,,,,,,,,,,,,,,,,,,,,,,,,,,,,,,,,
,,,,,WIN24_031,21,F,2024-02-02_10h52.35.632,jersey_experiment_5,2023.2.2,Win32,84.03361345,,,,,,,,,,,,,,,,254.3548,256.1544,256.1545,256.9312,return,0.0953,,75.13020833,0,53,53,18,1,FBP-RB-17.png,0.43,1.2,19,1,,,,,,,,,,,,,,,,,,,,,,,,,,,,,,,,,,,,,,,,,,,,,
,,,,,WIN24_031,21,F,2024-02-02_10h52.35.632,jersey_experiment_5,2023.2.2,Win32,84.03361345,,,,,,,,,,,,,,,,256.9314,258.731,258.7311,259.637,return,0.225,,76.04166667,0,54,54,37,1,FBP-YG-81.png,0.4,1.2,38,1,,,,,,,,,,,,,,,,,,,,,,,,,,,,,,,,,,,,,,,,,,,,,
,,,,,WIN24_031,21,F,2024-02-02_10h52.35.632,jersey_experiment_5,2023.2.2,Win32,84.03361345,,,,,,,,,,,,,,,,259.6372,260.9311,260.9311,261.9901,return,0.0946,,25.390625,0,55,55,0,1,FBP-OG-71.png,0.35,1.2,1,0.5,,,,,,,,,,,,,,,,,,,,,,,,,,,,,,,,,,,,,,,,,,,,,
,,,,,WIN24_031,21,F,2024-02-02_10h52.35.632,jersey_experiment_5,2023.2.2,Win32,84.03361345,,,,,,,,,,,,,,,,261.9902,263.2842,263.2842,264.6961,return,0.2501,,100,0,56,56,49,1,FBP-PT-17.png,0.45,1.2,50,0.5,,,,,,,,,,,,,,,,,,,,,,,,,,,,,,,,,,,,,,,,,,,,,
,,,,,WIN24_031,21,F,2024-02-02_10h52.35.632,jersey_experiment_5,2023.2.2,Win32,84.03361345,,,,,,,,,,,,,,,,264.6962,266.4962,266.4962,270.3433,return,0.1676,,3.645833333,0,57,57,30,1,FBP-YG-71.png,0.35,1.2,31,1,,,,,,,,,,,,,,,,,,,,,,,,,,,,,,,,,,,,,,,,,,,,,
,,,,,WIN24_031,21,F,2024-02-02_10h52.35.632,jersey_experiment_5,2023.2.2,Win32,84.03361345,,,,,,,,,,,,,,,,270.3436,272.1435,272.1435,273.12,return,0.1598,,74.34895833,0,58,58,44,1,FBP-YG-91.png,0.45,1.2,45,1,,,,,,,,,,,,,,,,,,,,,,,,,,,,,,,,,,,,,,,,,,,,,
,,,,,WIN24_031,21,F,2024-02-02_10h52.35.632,jersey_experiment_5,2023.2.2,Win32,84.03361345,,,,,,,,,,,,,,,,273.1203,274.9198,274.9198,275.8727,return,0.1468,,25,0,59,59,15,1,FBP-RB-17.png,0.35,1.2,16,1,,,,,,,,,,,,,,,,,,,,,,,,,,,,,,,,,,,,,,,,,,,,,
,,,,,WIN24_031,21,F,2024-02-02_10h52.35.632,jersey_experiment_5,2023.2.2,Win32,84.03361345,,,,,,,,,,,,,,,,275.8746,277.6731,277.6731,278.4144,return,0.1612,,74.08854167,,,,,,FBP-RB-91.png,0.43,1.2,29,1,0,0,0,28,1,,,,,,,,,,,,,,,,,,,,,,,,,,,,,,,,,,,,,,,,
,,,,,WIN24_031,21,F,2024-02-02_10h52.35.632,jersey_experiment_5,2023.2.2,Win32,84.03361345,,,,,,,,,,,,,,,,278.4145,280.2143,280.2143,282.9437,return,0.1715,,0.520833333,,,,,,FBP-YG-17.png,0.35,1.2,31,1,0,1,1,30,1,,,,,,,,,,,,,,,,,,,,,,,,,,,,,,,,,,,,,,,,
,,,,,WIN24_031,21,F,2024-02-02_10h52.35.632,jersey_experiment_5,2023.2.2,Win32,84.03361345,,,,,,,,,,,,,,,,282.9441,284.7441,284.7441,285.9556,return,0.144,,91.40625,,,,,,FBP-YG-19.png,0.45,1.2,45,1,0,2,2,44,1,,,,,,,,,,,,,,,,,,,,,,,,,,,,,,,,,,,,,,,,
,,,,,WIN24_031,21,F,2024-02-02_10h52.35.632,jersey_experiment_5,2023.2.2,Win32,84.03361345,,,,,,,,,,,,,,,,285.9559,287.7558,287.7559,288.5204,return,0.1772,,75,,,,,,FBP-RB-91.png,0.4,1.2,28,1,0,3,3,27,1,,,,,,,,,,,,,,,,,,,,,,,,,,,,,,,,,,,,,,,,
,,,,,WIN24_031,21,F,2024-02-02_10h52.35.632,jersey_experiment_5,2023.2.2,Win32,84.03361345,,,,,,,,,,,,,,,,288.5207,290.3204,290.3205,291.3323,return,0.1319,,69.140625,,,,,,FBP-YG-19.png,0.4,1.2,43,1,0,4,4,42,1,,,,,,,,,,,,,,,,,,,,,,,,,,,,,,,,,,,,,,,,
,,,,,WIN24_031,21,F,2024-02-02_10h52.35.632,jersey_experiment_5,2023.2.2,Win32,84.03361345,,,,,,,,,,,,,,,,291.3326,292.6263,292.6264,293.8854,return,0.1272,,99.86979167,,,,,,FBP-PT-81.png,0.45,1.2,55,0.5,0,5,5,54,1,,,,,,,,,,,,,,,,,,,,,,,,,,,,,,,,,,,,,,,,
,,,,,WIN24_031,21,F,2024-02-02_10h52.35.632,jersey_experiment_5,2023.2.2,Win32,84.03361345,,,,,,,,,,,,,,,,293.8855,295.1798,295.1799,296.6267,return,0.1329,,74.21875,,,,,,FBP-OG-18.png,0.43,1.2,9,0.5,0,6,6,8,1,,,,,,,,,,,,,,,,,,,,,,,,,,,,,,,,,,,,,,,,
,,,,,WIN24_031,21,F,2024-02-02_10h52.35.632,jersey_experiment_5,2023.2.2,Win32,84.03361345,,,,,,,,,,,,,,,,296.6272,298.4267,298.4268,300.7092,return,0.1782,,34.24479167,,,,,,FBP-YG-18.png,0.35,1.2,36,1,0,7,7,35,1,,,,,,,,,,,,,,,,,,,,,,,,,,,,,,,,,,,,,,,,
,,,,,WIN24_031,21,F,2024-02-02_10h52.35.632,jersey_experiment_5,2023.2.2,Win32,84.03361345,,,,,,,,,,,,,,,,300.7094,302.5091,302.5092,304.7563,return,1.2614,,40.49479167,,,,,,FBP-YG-18.png,0.37,1.2,37,1,0,8,8,36,1,,,,,,,,,,,,,,,,,,,,,,,,,,,,,,,,,,,,,,,,
,,,,,WIN24_031,21,F,2024-02-02_10h52.35.632,jersey_experiment_5,2023.2.2,Win32,84.03361345,,,,,,,,,,,,,,,,304.7566,306.0506,306.0506,309.6978,return,2.2876,,8.723958333,,,,,,FBP-PT-71.png,0.35,1.2,46,0.5,0,9,9,45,1,,,,,,,,,,,,,,,,,,,,,,,,,,,,,,,,,,,,,,,,
,,,,,WIN24_031,21,F,2024-02-02_10h52.35.632,jersey_experiment_5,2023.2.2,Win32,84.03361345,,,,,,,,,,,,,,,,309.698,311.4977,311.4978,313.8748,return,0.3102,,99.609375,,,,,,FBP-RB-71.png,0.45,1.2,20,1,0,10,10,19,1,,,,,,,,,,,,,,,,,,,,,,,,,,,,,,,,,,,,,,,,
,,,,,WIN24_031,21,F,2024-02-02_10h52.35.632,jersey_experiment_5,2023.2.2,Win32,84.03361345,,,,,,,,,,,,,,,,313.875,315.6744,315.6744,317.1097,return,0.1273,,91.92708333,,,,,,FBP-RB-81.png,0.45,1.2,25,1,0,11,11,24,1,,,,,,,,,,,,,,,,,,,,,,,,,,,,,,,,,,,,,,,,
,,,,,WIN24_031,21,F,2024-02-02_10h52.35.632,jersey_experiment_5,2023.2.2,Win32,84.03361345,,,,,,,,,,,,,,,,317.11,318.9099,318.9099,322.0511,return,0.8364,,61.45833333,,,,,,FBP-RB-81.png,0.37,1.2,22,1,0,12,12,21,1,,,,,,,,,,,,,,,,,,,,,,,,,,,,,,,,,,,,,,,,
,,,,,WIN24_031,21,F,2024-02-02_10h52.35.632,jersey_experiment_5,2023.2.2,Win32,84.03361345,,,,,,,,,,,,,,,,322.0514,323.8512,323.8513,325.0158,return,0.1645,,49.08854167,,,,,,FBP-RB-71.png,0.37,1.2,17,1,0,13,13,16,1,,,,,,,,,,,,,,,,,,,,,,,,,,,,,,,,,,,,,,,,
,,,,,WIN24_031,21,F,2024-02-02_10h52.35.632,jersey_experiment_5,2023.2.2,Win32,84.03361345,,,,,,,,,,,,,,,,325.0161,326.3101,326.3101,327.6513,return,0.1445,,76.04166667,,,,,,FBP-PT-81.png,0.43,1.2,54,0.5,0,14,14,53,1,,,,,,,,,,,,,,,,,,,,,,,,,,,,,,,,,,,,,,,,
,,,,,WIN24_031,21,F,2024-02-02_10h52.35.632,jersey_experiment_5,2023.2.2,Win32,84.03361345,,,,,,,,,,,,,,,,327.6516,328.9454,328.9454,330.4513,return,0.1796,,65.88541667,,,,,,FBP-PT-71.png,0.37,1.2,47,0.5,0,15,15,46,1,,,,,,,,,,,,,,,,,,,,,,,,,,,,,,,,,,,,,,,,
,,,,,WIN24_031,21,F,2024-02-02_10h52.35.632,jersey_experiment_5,2023.2.2,Win32,84.03361345,,,,,,,,,,,,,,,,330.4515,331.7455,331.7455,333.2164,return,0.145,,99.73958333,,,,,,FBP-OG-17.png,0.45,1.2,5,0.5,0,16,16,4,1,,,,,,,,,,,,,,,,,,,,,,,,,,,,,,,,,,,,,,,,
,,,,,WIN24_031,21,F,2024-02-02_10h52.35.632,jersey_experiment_5,2023.2.2,Win32,84.03361345,,,,,,,,,,,,,,,,333.2167,335.0164,335.0164,336.1579,return,0.1853,,25.390625,,,,,,FBP-YG-19.png,0.35,1.2,41,1,0,17,17,40,1,,,,,,,,,,,,,,,,,,,,,,,,,,,,,,,,,,,,,,,,
,,,,,WIN24_031,21,F,2024-02-02_10h52.35.632,jersey_experiment_5,2023.2.2,Win32,84.03361345,,,,,,,,,,,,,,,,336.1581,337.4518,337.4519,338.5931,return,0.1236,,45.96354167,,,,,,FBP-OG-18.png,0.37,1.2,7,0.5,0,18,18,6,1,,,,,,,,,,,,,,,,,,,,,,,,,,,,,,,,,,,,,,,,
,,,,,WIN24_031,21,F,2024-02-02_10h52.35.632,jersey_experiment_5,2023.2.2,Win32,84.03361345,,,,,,,,,,,,,,,,338.5932,339.887,339.887,341.5226,return,0.0863,,0.390625,,,,,,FBP-OG-19.png,0.35,1.2,11,0.5,0,19,19,10,1,,,,,,,,,,,,,,,,,,,,,,,,,,,,,,,,,,,,,,,,
,,,,,WIN24_031,21,F,2024-02-02_10h52.35.632,jersey_experiment_5,2023.2.2,Win32,84.03361345,,,,,,,,,,,,,,,,341.5228,342.8166,342.8166,344.2402,return,0.2183,,24.34895833,,,,,,FBP-OG-18.png,0.35,1.2,6,0.5,0,20,20,5,1,,,,,,,,,,,,,,,,,,,,,,,,,,,,,,,,,,,,,,,,
,,,,,WIN24_031,21,F,2024-02-02_10h52.35.632,jersey_experiment_5,2023.2.2,Win32,84.03361345,,,,,,,,,,,,,,,,344.2405,345.5345,345.5345,347.0874,return,0.1487,,99.73958333,,,,,,FBP-OG-17.png,0.43,1.2,4,0.5,0,21,21,3,1,,,,,,,,,,,,,,,,,,,,,,,,,,,,,,,,,,,,,,,,
,,,,,WIN24_031,21,F,2024-02-02_10h52.35.632,jersey_experiment_5,2023.2.2,Win32,84.03361345,,,,,,,,,,,,,,,,347.0878,348.3814,348.3814,349.7462,return,0.1337,,32.68229167,,,,,,FBP-PT-81.png,0.37,1.2,52,0.5,0,22,22,51,1,,,,,,,,,,,,,,,,,,,,,,,,,,,,,,,,,,,,,,,,
,,,,,WIN24_031,21,F,2024-02-02_10h52.35.632,jersey_experiment_5,2023.2.2,Win32,84.03361345,,,,,,,,,,,,,,,,349.7464,351.5464,351.5464,353.5347,return,0.2198,,34.24479167,,,,,,FBP-RB-91.png,0.35,1.2,26,1,0,23,23,25,1,,,,,,,,,,,,,,,,,,,,,,,,,,,,,,,,,,,,,,,,
,,,,,WIN24_031,21,F,2024-02-02_10h52.35.632,jersey_experiment_5,2023.2.2,Win32,84.03361345,,,,,,,,,,,,,,,,353.535,355.3349,355.335,356.6878,return,0.1599,,92.05729167,,,,,,FBP-YG-18.png,0.45,1.2,40,1,0,24,24,39,1,,,,,,,,,,,,,,,,,,,,,,,,,,,,,,,,,,,,,,,,
,,,,,WIN24_031,21,F,2024-02-02_10h52.35.632,jersey_experiment_5,2023.2.2,Win32,84.03361345,,,,,,,,,,,,,,,,356.688,358.488,358.488,359.2172,return,0.1928,,92.1875,,,,,,FBP-YG-19.png,0.43,1.2,44,1,0,25,25,43,1,,,,,,,,,,,,,,,,,,,,,,,,,,,,,,,,,,,,,,,,
,,,,,WIN24_031,21,F,2024-02-02_10h52.35.632,jersey_experiment_5,2023.2.2,Win32,84.03361345,,,,,,,,,,,,,,,,359.2176,360.5114,360.5115,361.6524,return,0.1432,,93.75,,,,,,FBP-OG-19.png,0.45,1.2,15,0.5,0,26,26,14,1,,,,,,,,,,,,,,,,,,,,,,,,,,,,,,,,,,,,,,,,
,,,,,WIN24_031,21,F,2024-02-02_10h52.35.632,jersey_experiment_5,2023.2.2,Win32,84.03361345,,,,,,,,,,,,,,,,361.6527,363.4527,363.4527,365.2177,return,0.123,,44.79166667,,,,,,FBP-RB-81.png,0.4,1.2,23,1,0,27,27,22,1,,,,,,,,,,,,,,,,,,,,,,,,,,,,,,,,,,,,,,,,
,,,,,WIN24_031,21,F,2024-02-02_10h52.35.632,jersey_experiment_5,2023.2.2,Win32,84.03361345,,,,,,,,,,,,,,,,365.2179,366.512,366.5122,368.5,return,0.6735,,53.38541667,,,,,,FBP-PT-91.png,0.43,1.2,59,0.5,0,28,28,58,1,,,,,,,,,,,,,,,,,,,,,,,,,,,,,,,,,,,,,,,,
,,,,,WIN24_031,21,F,2024-02-02_10h52.35.632,jersey_experiment_5,2023.2.2,Win32,84.03361345,,,,,,,,,,,,,,,,368.5002,369.7941,369.7941,372.3707,return,0.1806,,51.953125,,,,,,FBP-PT-71.png,0.4,1.2,48,0.5,0,29,29,47,1,,,,,,,,,,,,,,,,,,,,,,,,,,,,,,,,,,,,,,,,
,,,,,WIN24_031,21,F,2024-02-02_10h52.35.632,jersey_experiment_5,2023.2.2,Win32,84.03361345,,,,,,,,,,,,,,,,372.371,373.6649,373.6649,376.1119,return,0.9001,,74.609375,,,,,,FBP-OG-19.png,0.4,1.2,13,0.5,0,30,30,12,1,,,,,,,,,,,,,,,,,,,,,,,,,,,,,,,,,,,,,,,,
,,,,,WIN24_031,21,F,2024-02-02_10h52.35.632,jersey_experiment_5,2023.2.2,Win32,84.03361345,,,,,,,,,,,,,,,,376.1123,377.9121,377.9121,379.524,return,0.4854,,86.45833333,,,,,,FBP-YG-17.png,0.43,1.2,34,1,0,31,31,33,1,,,,,,,,,,,,,,,,,,,,,,,,,,,,,,,,,,,,,,,,
,,,,,WIN24_031,21,F,2024-02-02_10h52.35.632,jersey_experiment_5,2023.2.2,Win32,84.03361345,,,,,,,,,,,,,,,,379.5244,380.8181,380.8182,382.3828,return,0.2286,,26.171875,,,,,,FBP-PT-91.png,0.35,1.2,56,0.5,0,32,32,55,1,,,,,,,,,,,,,,,,,,,,,,,,,,,,,,,,,,,,,,,,
,,,,,WIN24_031,21,F,2024-02-02_10h52.35.632,jersey_experiment_5,2023.2.2,Win32,84.03361345,,,,,,,,,,,,,,,,382.383,384.1829,384.1829,386.3711,return,0.1916,,73.69791667,,,,,,FBP-YG-17.png,0.4,1.2,33,1,0,33,33,32,1,,,,,,,,,,,,,,,,,,,,,,,,,,,,,,,,,,,,,,,,
,,,,,WIN24_031,21,F,2024-02-02_10h52.35.632,jersey_experiment_5,2023.2.2,Win32,84.03361345,,,,,,,,,,,,,,,,386.3714,387.6655,387.6655,391.5361,return,0.9245,,72.00520833,,,,,,FBP-PT-91.png,0.4,1.2,58,0.5,0,34,34,57,1,,,,,,,,,,,,,,,,,,,,,,,,,,,,,,,,,,,,,,,,
,,,,,WIN24_031,21,F,2024-02-02_10h52.35.632,jersey_experiment_5,2023.2.2,Win32,84.03361345,,,,,,,,,,,,,,,,391.5365,393.3361,393.3362,395.4305,return,0.2476,,26.30208333,,,,,,FBP-RB-81.png,0.35,1.2,21,1,0,35,35,20,1,,,,,,,,,,,,,,,,,,,,,,,,,,,,,,,,,,,,,,,,
,,,,,WIN24_031,21,F,2024-02-02_10h52.35.632,jersey_experiment_5,2023.2.2,Win32,84.03361345,,,,,,,,,,,,,,,,395.4306,397.2303,397.2303,398.901,return,0.143,,67.96875,,,,,,FBP-YG-18.png,0.4,1.2,38,1,0,36,36,37,1,,,,,,,,,,,,,,,,,,,,,,,,,,,,,,,,,,,,,,,,
,,,,,WIN24_031,21,F,2024-02-02_10h52.35.632,jersey_experiment_5,2023.2.2,Win32,84.03361345,,,,,,,,,,,,,,,,398.9013,400.1952,400.1952,402.2776,return,0.1162,,61.58854167,,,,,,FBP-OG-17.png,0.4,1.2,3,0.5,0,37,37,2,1,,,,,,,,,,,,,,,,,,,,,,,,,,,,,,,,,,,,,,,,
,,,,,WIN24_031,21,F,2024-02-02_10h52.35.632,jersey_experiment_5,2023.2.2,Win32,84.03361345,,,,,,,,,,,,,,,,402.278,404.0777,404.0777,405.972,return,0.1885,,99.47916667,,,,,,FBP-YG-17.png,0.45,1.2,35,1,0,38,38,34,1,,,,,,,,,,,,,,,,,,,,,,,,,,,,,,,,,,,,,,,,
,,,,,WIN24_031,21,F,2024-02-02_10h52.35.632,jersey_experiment_5,2023.2.2,Win32,84.03361345,,,,,,,,,,,,,,,,405.9723,407.7722,407.7722,409.0311,return,0.5185,,75.26041667,,,,,,FBP-RB-71.png,0.43,1.2,19,1,0,39,39,18,1,,,,,,,,,,,,,,,,,,,,,,,,,,,,,,,,,,,,,,,,
,,,,,WIN24_031,21,F,2024-02-02_10h52.35.632,jersey_experiment_5,2023.2.2,Win32,84.03361345,,,,,,,,,,,,,,,,409.0314,410.3249,410.325,411.6545,return,0.1414,,94.40104167,,,,,,FBP-OG-18.png,0.45,1.2,10,0.5,0,40,40,9,1,,,,,,,,,,,,,,,,,,,,,,,,,,,,,,,,,,,,,,,,
,,,,,WIN24_031,21,F,2024-02-02_10h52.35.632,jersey_experiment_5,2023.2.2,Win32,84.03361345,,,,,,,,,,,,,,,,411.655,413.4549,413.4549,414.2076,return,0.1461,,25.91145833,,,,,,FBP-YG-19.png,0.37,1.2,42,1,0,41,41,41,1,,,,,,,,,,,,,,,,,,,,,,,,,,,,,,,,,,,,,,,,
,,,,,WIN24_031,21,F,2024-02-02_10h52.35.632,jersey_experiment_5,2023.2.2,Win32,84.03361345,,,,,,,,,,,,,,,,414.2079,416.0075,416.0075,416.8312,return,0.1604,,17.578125,,,,,,FBP-YG-17.png,0.37,1.2,32,1,0,42,42,31,1,,,,,,,,,,,,,,,,,,,,,,,,,,,,,,,,,,,,,,,,
,,,,,WIN24_031,21,F,2024-02-02_10h52.35.632,jersey_experiment_5,2023.2.2,Win32,84.03361345,,,,,,,,,,,,,,,,416.8314,418.1253,418.1253,420.1136,return,0.5697,,55.078125,,,,,,FBP-OG-18.png,0.4,1.2,8,0.5,0,43,43,7,1,,,,,,,,,,,,,,,,,,,,,,,,,,,,,,,,,,,,,,,,
,,,,,WIN24_031,21,F,2024-02-02_10h52.35.632,jersey_experiment_5,2023.2.2,Win32,84.03361345,,,,,,,,,,,,,,,,420.1139,421.4078,421.4078,423.3137,return,1.1087,,56.640625,,,,,,FBP-PT-91.png,0.37,1.2,57,0.5,0,44,44,56,1,,,,,,,,,,,,,,,,,,,,,,,,,,,,,,,,,,,,,,,,
,,,,,WIN24_031,21,F,2024-02-02_10h52.35.632,jersey_experiment_5,2023.2.2,Win32,84.03361345,,,,,,,,,,,,,,,,423.314,424.608,424.608,428.914,return,3.1341,,58.203125,,,,,,FBP-OG-17.png,0.35,1.2,1,0.5,0,45,45,0,1,,,,,,,,,,,,,,,,,,,,,,,,,,,,,,,,,,,,,,,,
,,,,,WIN24_031,21,F,2024-02-02_10h52.35.632,jersey_experiment_5,2023.2.2,Win32,84.03361345,,,,,,,,,,,,,,,,428.9142,430.7141,430.7141,431.5376,return,0.1816,,93.88020833,,,,,,FBP-YG-18.png,0.43,1.2,39,1,0,46,46,38,1,,,,,,,,,,,,,,,,,,,,,,,,,,,,,,,,,,,,,,,,
,,,,,WIN24_031,21,F,2024-02-02_10h52.35.632,jersey_experiment_5,2023.2.2,Win32,84.03361345,,,,,,,,,,,,,,,,431.5379,433.3376,433.3377,433.8552,return,0.1955,,92.05729167,,,,,,FBP-RB-81.png,0.43,1.2,24,1,0,47,47,23,1,,,,,,,,,,,,,,,,,,,,,,,,,,,,,,,,,,,,,,,,
,,,,,WIN24_031,21,F,2024-02-02_10h52.35.632,jersey_experiment_5,2023.2.2,Win32,84.03361345,,,,,,,,,,,,,,,,433.8555,435.6556,435.6556,436.7732,return,0.2486,,21.22395833,,,,,,FBP-RB-71.png,0.35,1.2,16,1,0,48,48,15,1,,,,,,,,,,,,,,,,,,,,,,,,,,,,,,,,,,,,,,,,
,,,,,WIN24_031,21,F,2024-02-02_10h52.35.632,jersey_experiment_5,2023.2.2,Win32,84.03361345,,,,,,,,,,,,,,,,436.7734,438.0672,438.0672,439.5732,return,0.484,,68.88020833,,,,,,FBP-OG-19.png,0.43,1.2,14,0.5,0,49,49,13,1,,,,,,,,,,,,,,,,,,,,,,,,,,,,,,,,,,,,,,,,
,,,,,WIN24_031,21,F,2024-02-02_10h52.35.632,jersey_experiment_5,2023.2.2,Win32,84.03361345,,,,,,,,,,,,,,,,439.5734,440.8673,440.8673,442.7026,return,0.1845,,95.96354167,,,,,,FBP-PT-91.png,0.45,1.2,60,0.5,0,50,50,59,1,,,,,,,,,,,,,,,,,,,,,,,,,,,,,,,,,,,,,,,,
,,,,,WIN24_031,21,F,2024-02-02_10h52.35.632,jersey_experiment_5,2023.2.2,Win32,84.03361345,,,,,,,,,,,,,,,,442.7029,443.9969,443.9969,445.1734,return,0.1671,,44.66145833,,,,,,FBP-OG-19.png,0.37,1.2,12,0.5,0,51,51,11,1,,,,,,,,,,,,,,,,,,,,,,,,,,,,,,,,,,,,,,,,
,,,,,WIN24_031,21,F,2024-02-02_10h52.35.632,jersey_experiment_5,2023.2.2,Win32,84.03361345,,,,,,,,,,,,,,,,445.1737,446.4675,446.4676,447.491,return,0.1334,,85.9375,,,,,,FBP-PT-81.png,0.4,1.2,53,0.5,0,52,52,52,1,,,,,,,,,,,,,,,,,,,,,,,,,,,,,,,,,,,,,,,,
,,,,,WIN24_031,21,F,2024-02-02_10h52.35.632,jersey_experiment_5,2023.2.2,Win32,84.03361345,,,,,,,,,,,,,,,,447.4913,448.7853,448.7853,449.7971,return,0.1523,,99.47916667,,,,,,FBP-PT-71.png,0.43,1.2,49,0.5,0,53,53,48,1,,,,,,,,,,,,,,,,,,,,,,,,,,,,,,,,,,,,,,,,
,,,,,WIN24_031,21,F,2024-02-02_10h52.35.632,jersey_experiment_5,2023.2.2,Win32,84.03361345,,,,,,,,,,,,,,,,449.7974,451.5972,451.5972,452.4327,return,0.1827,,24.609375,,,,,,FBP-RB-91.png,0.37,1.2,27,1,0,54,54,26,1,,,,,,,,,,,,,,,,,,,,,,,,,,,,,,,,,,,,,,,,
,,,,,WIN24_031,21,F,2024-02-02_10h52.35.632,jersey_experiment_5,2023.2.2,Win32,84.03361345,,,,,,,,,,,,,,,,452.4329,453.7266,453.7266,454.7267,return,0.1557,,73.95833333,,,,,,FBP-PT-71.png,0.45,1.2,50,0.5,0,55,55,49,1,,,,,,,,,,,,,,,,,,,,,,,,,,,,,,,,,,,,,,,,
,,,,,WIN24_031,21,F,2024-02-02_10h52.35.632,jersey_experiment_5,2023.2.2,Win32,84.03361345,,,,,,,,,,,,,,,,454.727,456.5269,456.5269,457.1975,return,0.1387,,94.40104167,,,,,,FBP-RB-91.png,0.45,1.2,30,1,0,56,56,29,1,,,,,,,,,,,,,,,,,,,,,,,,,,,,,,,,,,,,,,,,
,,,,,WIN24_031,21,F,2024-02-02_10h52.35.632,jersey_experiment_5,2023.2.2,Win32,84.03361345,,,,,,,,,,,,,,,,457.1977,458.4917,458.4917,460.1506,return,0.2594,,17.44791667,,,,,,FBP-OG-17.png,0.37,1.2,2,0.5,0,57,57,1,1,,,,,,,,,,,,,,,,,,,,,,,,,,,,,,,,,,,,,,,,
,,,,,WIN24_031,21,F,2024-02-02_10h52.35.632,jersey_experiment_5,2023.2.2,Win32,84.03361345,,,,,,,,,,,,,,,,460.1508,461.4446,461.4446,470.1744,return,0.1734,,66.66666667,,,,,,FBP-PT-81.png,0.35,1.2,51,0.5,0,58,58,50,1,,,,,,,,,,,,,,,,,,,,,,,,,,,,,,,,,,,,,,,,
,,,,,WIN24_031,21,F,2024-02-02_10h52.35.632,jersey_experiment_5,2023.2.2,Win32,84.03361345,,,,,,,,,,,,,,,,470.1746,471.9744,471.9744,473.6333,return,0.8292,,76.43229167,,,,,,FBP-RB-71.png,0.4,1.2,18,1,0,59,59,17,1,,,,,,,,,,,,,,,,,,,,,,,,,,,,,,,,,,,,,,,,
,,,,,WIN24_031,21,F,2024-02-02_10h52.35.632,jersey_experiment_5,2023.2.2,Win32,84.03361345,,,,,,,,,,,,,,,,,,,,,,,,,,,,,,,,,,,,,,,473.6338,593.6385,,,,,,,,,,,,,,,,,,,,,,,,,,,,,,,,,,,,,,
,,,,,WIN24_031,21,F,2024-02-02_10h52.35.632,jersey_experiment_5,2023.2.2,Win32,84.03361345,,,,,,,,,,,,,,,,,,,,,,,,,,,,,,,,,,,,,,,,,593.6387,600.9797,return,7.3276,,,,,,,,,,,,,,,,,,,,,,,,,,,,,,,,,,
,,,,,WIN24_031,21,F,2024-02-02_10h52.35.632,jersey_experiment_5,2023.2.2,Win32,84.03361345,,,,,,,,,,,,,,,,600.987,602.2854,602.2854,605.0149,return,0.6587,,26.30208333,,,,,,FBP-YG-71.png,0.37,1.2,32,0.5,,,,,,,,,,,,,0,0,0,31,1,,,,,,,,,,,,,,,,,,,,,,,,,,,,
,,,,,WIN24_031,21,F,2024-02-02_10h52.35.632,jersey_experiment_5,2023.2.2,Win32,84.03361345,,,,,,,,,,,,,,,,605.0157,606.8151,606.8152,608.5325,return,0.3551,,77.47395833,,,,,,FBP-PT-18.png,0.43,1.2,54,1,,,,,,,,,,,,,0,1,1,53,1,,,,,,,,,,,,,,,,,,,,,,,,,,,,
,,,,,WIN24_031,21,F,2024-02-02_10h52.35.632,jersey_experiment_5,2023.2.2,Win32,84.03361345,,,,,,,,,,,,,,,,608.5328,610.3326,610.3327,611.462,return,0.21,,26.04166667,,,,,,FBP-OG-81.png,0.37,1.2,7,1,,,,,,,,,,,,,0,2,2,6,1,,,,,,,,,,,,,,,,,,,,,,,,,,,,
,,,,,WIN24_031,21,F,2024-02-02_10h52.35.632,jersey_experiment_5,2023.2.2,Win32,84.03361345,,,,,,,,,,,,,,,,611.4622,613.2623,613.2623,614.0621,return,0.1617,,42.70833333,,,,,,FBP-PT-18.png,0.4,1.2,53,1,,,,,,,,,,,,,0,3,3,52,1,,,,,,,,,,,,,,,,,,,,,,,,,,,,
,,,,,WIN24_031,21,F,2024-02-02_10h52.35.632,jersey_experiment_5,2023.2.2,Win32,84.03361345,,,,,,,,,,,,,,,,614.0624,615.3562,615.3562,616.6858,return,0.1386,,79.296875,,,,,,FBP-RB-18.png,0.43,1.2,24,0.5,,,,,,,,,,,,,0,4,4,23,1,,,,,,,,,,,,,,,,,,,,,,,,,,,,
,,,,,WIN24_031,21,F,2024-02-02_10h52.35.632,jersey_experiment_5,2023.2.2,Win32,84.03361345,,,,,,,,,,,,,,,,616.6859,618.4857,618.4857,619.1683,return,0.1573,,76.04166667,,,,,,FBP-PT-19.png,0.43,1.2,59,1,,,,,,,,,,,,,0,5,5,58,1,,,,,,,,,,,,,,,,,,,,,,,,,,,,
,,,,,WIN24_031,21,F,2024-02-02_10h52.35.632,jersey_experiment_5,2023.2.2,Win32,84.03361345,,,,,,,,,,,,,,,,619.1686,620.4624,620.4624,621.8859,return,0.4679,,70.18229167,,,,,,FBP-YG-91.png,0.4,1.2,43,0.5,,,,,,,,,,,,,0,6,6,42,1,,,,,,,,,,,,,,,,,,,,,,,,,,,,
,,,,,WIN24_031,21,F,2024-02-02_10h52.35.632,jersey_experiment_5,2023.2.2,Win32,84.03361345,,,,,,,,,,,,,,,,621.8862,623.6862,623.6862,625.5098,return,0.5319,,99.21875,,,,,,FBP-OG-81.png,0.45,1.2,10,1,,,,,,,,,,,,,0,7,7,9,1,,,,,,,,,,,,,,,,,,,,,,,,,,,,
,,,,,WIN24_031,21,F,2024-02-02_10h52.35.632,jersey_experiment_5,2023.2.2,Win32,84.03361345,,,,,,,,,,,,,,,,625.5099,627.3097,627.3097,628.0392,return,0.1533,,5.729166667,,,,,,FBP-PT-17.png,0.37,1.2,47,1,,,,,,,,,,,,,0,8,8,46,1,,,,,,,,,,,,,,,,,,,,,,,,,,,,
,,,,,WIN24_031,21,F,2024-02-02_10h52.35.632,jersey_experiment_5,2023.2.2,Win32,84.03361345,,,,,,,,,,,,,,,,628.0395,629.3332,629.3332,630.3686,return,0.1945,,77.08333333,,,,,,FBP-RB-17.png,0.45,1.2,20,0.5,,,,,,,,,,,,,0,9,9,19,1,,,,,,,,,,,,,,,,,,,,,,,,,,,,
,,,,,WIN24_031,21,F,2024-02-02_10h52.35.632,jersey_experiment_5,2023.2.2,Win32,84.03361345,,,,,,,,,,,,,,,,630.3689,632.1687,632.1687,633.5924,return,0.2125,,66.796875,,,,,,FBP-OG-81.png,0.4,1.2,8,1,,,,,,,,,,,,,0,10,10,7,1,,,,,,,,,,,,,,,,,,,,,,,,,,,,
,,,,,WIN24_031,21,F,2024-02-02_10h52.35.632,jersey_experiment_5,2023.2.2,Win32,84.03361345,,,,,,,,,,,,,,,,633.5928,634.8864,634.8864,635.8865,return,0.1966,,86.58854167,,,,,,FBP-YG-81.png,0.43,1.2,39,0.5,,,,,,,,,,,,,0,11,11,38,1,,,,,,,,,,,,,,,,,,,,,,,,,,,,
,,,,,WIN24_031,21,F,2024-02-02_10h52.35.632,jersey_experiment_5,2023.2.2,Win32,84.03361345,,,,,,,,,,,,,,,,635.8867,637.6869,637.687,638.3691,return,0.5233,,94.140625,,,,,,FBP-OG-71.png,0.45,1.2,5,1,,,,,,,,,,,,,0,12,12,4,1,,,,,,,,,,,,,,,,,,,,,,,,,,,,
,,,,,WIN24_031,21,F,2024-02-02_10h52.35.632,jersey_experiment_5,2023.2.2,Win32,84.03361345,,,,,,,,,,,,,,,,638.3694,639.6631,639.6631,640.7221,return,0.1461,,25.65104167,,,,,,FBP-YG-91.png,0.35,1.2,41,0.5,,,,,,,,,,,,,0,13,13,40,1,,,,,,,,,,,,,,,,,,,,,,,,,,,,
,,,,,WIN24_031,21,F,2024-02-02_10h52.35.632,jersey_experiment_5,2023.2.2,Win32,84.03361345,,,,,,,,,,,,,,,,640.7223,642.0171,642.0171,643.8635,return,0.6849,,97.91666667,,,,,,FBP-YG-91.png,0.45,1.2,45,0.5,,,,,,,,,,,,,0,14,14,44,1,,,,,,,,,,,,,,,,,,,,,,,,,,,,
,,,,,WIN24_031,21,F,2024-02-02_10h52.35.632,jersey_experiment_5,2023.2.2,Win32,84.03361345,,,,,,,,,,,,,,,,643.8637,645.6634,645.6635,646.5458,return,0.1455,,74.21875,,,,,,FBP-OG-81.png,0.43,1.2,9,1,,,,,,,,,,,,,0,15,15,8,1,,,,,,,,,,,,,,,,,,,,,,,,,,,,
,,,,,WIN24_031,21,F,2024-02-02_10h52.35.632,jersey_experiment_5,2023.2.2,Win32,84.03361345,,,,,,,,,,,,,,,,646.5462,647.84,647.84,648.8404,return,0.1411,,24.08854167,,,,,,FBP-RB-17.png,0.37,1.2,17,0.5,,,,,,,,,,,,,0,16,16,16,1,,,,,,,,,,,,,,,,,,,,,,,,,,,,
,,,,,WIN24_031,21,F,2024-02-02_10h52.35.632,jersey_experiment_5,2023.2.2,Win32,84.03361345,,,,,,,,,,,,,,,,648.8412,650.134,650.1341,651.087,return,0.1491,,82.94270833,,,,,,FBP-YG-81.png,0.45,1.2,40,0.5,,,,,,,,,,,,,0,17,17,39,1,,,,,,,,,,,,,,,,,,,,,,,,,,,,
,,,,,WIN24_031,21,F,2024-02-02_10h52.35.632,jersey_experiment_5,2023.2.2,Win32,84.03361345,,,,,,,,,,,,,,,,651.0872,652.3813,652.3813,653.3343,return,0.2127,,86.19791667,,,,,,FBP-YG-71.png,0.43,1.2,34,0.5,,,,,,,,,,,,,0,18,18,33,1,,,,,,,,,,,,,,,,,,,,,,,,,,,,
,,,,,WIN24_031,21,F,2024-02-02_10h52.35.632,jersey_experiment_5,2023.2.2,Win32,84.03361345,,,,,,,,,,,,,,,,653.3347,655.1343,655.1343,656.064,return,0.0423,,24.47916667,,,,,,FBP-PT-19.png,0.37,1.2,57,1,,,,,,,,,,,,,0,19,19,56,1,,,,,,,,,,,,,,,,,,,,,,,,,,,,
,,,,,WIN24_031,21,F,2024-02-02_10h52.35.632,jersey_experiment_5,2023.2.2,Win32,84.03361345,,,,,,,,,,,,,,,,656.0643,657.8638,657.8638,659.664,return,0.5483,,25.390625,,,,,,FBP-OG-91.png,0.37,1.2,12,1,,,,,,,,,,,,,0,20,20,11,1,,,,,,,,,,,,,,,,,,,,,,,,,,,,
,,,,,WIN24_031,21,F,2024-02-02_10h52.35.632,jersey_experiment_5,2023.2.2,Win32,84.03361345,,,,,,,,,,,,,,,,659.6641,660.958,660.958,662.2874,return,0.2165,,74.34895833,,,,,,FBP-RB-19.png,0.45,1.2,30,0.5,,,,,,,,,,,,,0,21,21,29,1,,,,,,,,,,,,,,,,,,,,,,,,,,,,
,,,,,WIN24_031,21,F,2024-02-02_10h52.35.632,jersey_experiment_5,2023.2.2,Win32,84.03361345,,,,,,,,,,,,,,,,662.2876,663.5817,663.5818,664.9466,return,0.1221,,25.26041667,,,,,,FBP-YG-71.png,0.35,1.2,31,0.5,,,,,,,,,,,,,0,22,22,30,1,,,,,,,,,,,,,,,,,,,,,,,,,,,,
,,,,,WIN24_031,21,F,2024-02-02_10h52.35.632,jersey_experiment_5,2023.2.2,Win32,84.03361345,,,,,,,,,,,,,,,,664.9469,666.7466,666.7466,667.9231,return,0.154,,85.9375,,,,,,FBP-OG-71.png,0.4,1.2,3,1,,,,,,,,,,,,,0,23,23,2,1,,,,,,,,,,,,,,,,,,,,,,,,,,,,
,,,,,WIN24_031,21,F,2024-02-02_10h52.35.632,jersey_experiment_5,2023.2.2,Win32,84.03361345,,,,,,,,,,,,,,,,667.9232,669.7231,669.7231,670.6643,return,0.2353,,94.27083333,,,,,,FBP-OG-91.png,0.45,1.2,15,1,,,,,,,,,,,,,0,24,24,14,1,,,,,,,,,,,,,,,,,,,,,,,,,,,,
,,,,,WIN24_031,21,F,2024-02-02_10h52.35.632,jersey_experiment_5,2023.2.2,Win32,84.03361345,,,,,,,,,,,,,,,,670.6645,671.9584,671.9584,673.6998,return,0.6384,,72.13541667,,,,,,FBP-YG-81.png,0.4,1.2,38,0.5,,,,,,,,,,,,,0,25,25,37,1,,,,,,,,,,,,,,,,,,,,,,,,,,,,
,,,,,WIN24_031,21,F,2024-02-02_10h52.35.632,jersey_experiment_5,2023.2.2,Win32,84.03361345,,,,,,,,,,,,,,,,673.7001,674.9938,674.9939,676.4999,return,0.2502,,98.046875,,,,,,FBP-RB-18.png,0.45,1.2,25,0.5,,,,,,,,,,,,,0,26,26,24,1,,,,,,,,,,,,,,,,,,,,,,,,,,,,
,,,,,WIN24_031,21,F,2024-02-02_10h52.35.632,jersey_experiment_5,2023.2.2,Win32,84.03361345,,,,,,,,,,,,,,,,676.5005,678.3004,678.3004,679.4765,return,0.2025,,1.041666667,,,,,,FBP-PT-17.png,0.35,1.2,46,1,,,,,,,,,,,,,0,27,27,45,1,,,,,,,,,,,,,,,,,,,,,,,,,,,,
,,,,,WIN24_031,21,F,2024-02-02_10h52.35.632,jersey_experiment_5,2023.2.2,Win32,84.03361345,,,,,,,,,,,,,,,,679.4769,680.7704,680.7704,681.9354,return,0.1937,,3.515625,,,,,,FBP-RB-18.png,0.35,1.2,21,0.5,,,,,,,,,,,,,0,28,28,20,1,,,,,,,,,,,,,,,,,,,,,,,,,,,,
,,,,,WIN24_031,21,F,2024-02-02_10h52.35.632,jersey_experiment_5,2023.2.2,Win32,84.03361345,,,,,,,,,,,,,,,,681.9358,683.7354,683.7354,684.7236,return,0.1797,,81.51041667,,,,,,FBP-PT-17.png,0.45,1.2,50,1,,,,,,,,,,,,,0,29,29,49,1,,,,,,,,,,,,,,,,,,,,,,,,,,,,
,,,,,WIN24_031,21,F,2024-02-02_10h52.35.632,jersey_experiment_5,2023.2.2,Win32,84.03361345,,,,,,,,,,,,,,,,684.7239,686.5238,686.5238,689.7947,return,1.9786,,25.390625,,,,,,FBP-OG-91.png,0.35,1.2,11,1,,,,,,,,,,,,,0,30,30,10,1,,,,,,,,,,,,,,,,,,,,,,,,,,,,
,,,,,WIN24_031,21,F,2024-02-02_10h52.35.632,jersey_experiment_5,2023.2.2,Win32,84.03361345,,,,,,,,,,,,,,,,689.7949,691.5944,691.5944,693.4063,return,1.1141,,75.13020833,,,,,,FBP-PT-18.png,0.45,1.2,55,1,,,,,,,,,,,,,0,31,31,54,1,,,,,,,,,,,,,,,,,,,,,,,,,,,,
,,,,,WIN24_031,21,F,2024-02-02_10h52.35.632,jersey_experiment_5,2023.2.2,Win32,84.03361345,,,,,,,,,,,,,,,,693.4066,695.2066,695.2067,695.8654,return,0.1775,,71.22395833,,,,,,FBP-OG-71.png,0.43,1.2,4,1,,,,,,,,,,,,,0,32,32,3,1,,,,,,,,,,,,,,,,,,,,,,,,,,,,
,,,,,WIN24_031,21,F,2024-02-02_10h52.35.632,jersey_experiment_5,2023.2.2,Win32,84.03361345,,,,,,,,,,,,,,,,695.8657,697.6653,697.6653,698.583,return,0.1269,,23.69791667,,,,,,FBP-PT-18.png,0.35,1.2,51,1,,,,,,,,,,,,,0,33,33,50,1,,,,,,,,,,,,,,,,,,,,,,,,,,,,
,,,,,WIN24_031,21,F,2024-02-02_10h52.35.632,jersey_experiment_5,2023.2.2,Win32,84.03361345,,,,,,,,,,,,,,,,698.5832,699.8771,699.8771,700.83,return,0.2325,,76.04166667,,,,,,FBP-RB-19.png,0.4,1.2,28,0.5,,,,,,,,,,,,,0,34,34,27,1,,,,,,,,,,,,,,,,,,,,,,,,,,,,
,,,,,WIN24_031,21,F,2024-02-02_10h52.35.632,jersey_experiment_5,2023.2.2,Win32,84.03361345,,,,,,,,,,,,,,,,700.8303,702.6303,702.6303,703.2541,return,0.1311,,23.95833333,,,,,,FBP-OG-71.png,0.37,1.2,2,1,,,,,,,,,,,,,0,35,35,1,1,,,,,,,,,,,,,,,,,,,,,,,,,,,,
,,,,,WIN24_031,21,F,2024-02-02_10h52.35.632,jersey_experiment_5,2023.2.2,Win32,84.03361345,,,,,,,,,,,,,,,,703.2544,704.5478,704.5479,706.5481,return,0.2972,,65.49479167,,,,,,FBP-RB-18.png,0.4,1.2,23,0.5,,,,,,,,,,,,,0,36,36,22,1,,,,,,,,,,,,,,,,,,,,,,,,,,,,
,,,,,WIN24_031,21,F,2024-02-02_10h52.35.632,jersey_experiment_5,2023.2.2,Win32,84.03361345,,,,,,,,,,,,,,,,706.5483,707.8421,707.8421,709.8425,return,1.2723,,10.9375,,,,,,FBP-RB-19.png,0.35,1.2,26,0.5,,,,,,,,,,,,,0,37,37,25,1,,,,,,,,,,,,,,,,,,,,,,,,,,,,
,,,,,WIN24_031,21,F,2024-02-02_10h52.35.632,jersey_experiment_5,2023.2.2,Win32,84.03361345,,,,,,,,,,,,,,,,709.8427,711.1365,711.1366,712.0777,return,0.3389,,79.16666667,,,,,,FBP-RB-19.png,0.43,1.2,29,0.5,,,,,,,,,,,,,0,38,38,28,1,,,,,,,,,,,,,,,,,,,,,,,,,,,,
,,,,,WIN24_031,21,F,2024-02-02_10h52.35.632,jersey_experiment_5,2023.2.2,Win32,84.03361345,,,,,,,,,,,,,,,,712.0779,713.3718,713.3718,714.466,return,0.499,,79.296875,,,,,,FBP-RB-17.png,0.43,1.2,19,0.5,,,,,,,,,,,,,0,39,39,18,1,,,,,,,,,,,,,,,,,,,,,,,,,,,,
,,,,,WIN24_031,21,F,2024-02-02_10h52.35.632,jersey_experiment_5,2023.2.2,Win32,84.03361345,,,,,,,,,,,,,,,,714.4662,716.2662,716.2662,717.337,return,0.4115,,100,,,,,,FBP-PT-19.png,0.45,1.2,60,1,,,,,,,,,,,,,0,40,40,59,1,,,,,,,,,,,,,,,,,,,,,,,,,,,,
,,,,,WIN24_031,21,F,2024-02-02_10h52.35.632,jersey_experiment_5,2023.2.2,Win32,84.03361345,,,,,,,,,,,,,,,,717.3377,719.1367,719.1367,719.8426,return,0.1924,,93.09895833,,,,,,FBP-PT-17.png,0.43,1.2,49,1,,,,,,,,,,,,,0,41,41,48,1,,,,,,,,,,,,,,,,,,,,,,,,,,,,
,,,,,WIN24_031,21,F,2024-02-02_10h52.35.632,jersey_experiment_5,2023.2.2,Win32,84.03361345,,,,,,,,,,,,,,,,719.8432,721.1369,721.137,721.8899,return,0.2291,,92.83854167,,,,,,FBP-YG-71.png,0.45,1.2,35,0.5,,,,,,,,,,,,,0,42,42,34,1,,,,,,,,,,,,,,,,,,,,,,,,,,,,
,,,,,WIN24_031,21,F,2024-02-02_10h52.35.632,jersey_experiment_5,2023.2.2,Win32,84.03361345,,,,,,,,,,,,,,,,721.8902,723.1837,723.1838,724.2547,return,0.3136,,32.421875,,,,,,FBP-RB-19.png,0.37,1.2,27,0.5,,,,,,,,,,,,,0,43,43,26,1,,,,,,,,,,,,,,,,,,,,,,,,,,,,
,,,,,WIN24_031,21,F,2024-02-02_10h52.35.632,jersey_experiment_5,2023.2.2,Win32,84.03361345,,,,,,,,,,,,,,,,724.2554,726.0547,726.0548,726.7841,return,0.112,,80.59895833,,,,,,FBP-PT-17.png,0.4,1.2,48,1,,,,,,,,,,,,,0,44,44,47,1,,,,,,,,,,,,,,,,,,,,,,,,,,,,
,,,,,WIN24_031,21,F,2024-02-02_10h52.35.632,jersey_experiment_5,2023.2.2,Win32,84.03361345,,,,,,,,,,,,,,,,726.7845,728.0782,728.0782,729.4312,return,0.0709,,69.40104167,,,,,,FBP-RB-18.png,0.37,1.2,22,0.5,,,,,,,,,,,,,0,45,45,21,1,,,,,,,,,,,,,,,,,,,,,,,,,,,,
,,,,,WIN24_031,21,F,2024-02-02_10h52.35.632,jersey_experiment_5,2023.2.2,Win32,84.03361345,,,,,,,,,,,,,,,,729.4315,731.2315,731.2315,731.9377,return,0.1947,,3.385416667,,,,,,FBP-OG-71.png,0.35,1.2,1,1,,,,,,,,,,,,,0,46,46,0,1,,,,,,,,,,,,,,,,,,,,,,,,,,,,
,,,,,WIN24_031,21,F,2024-02-02_10h52.35.632,jersey_experiment_5,2023.2.2,Win32,84.03361345,,,,,,,,,,,,,,,,731.9381,733.2315,733.2315,734.1018,return,0.1302,,80.078125,,,,,,FBP-YG-91.png,0.43,1.2,44,0.5,,,,,,,,,,,,,0,47,47,43,1,,,,,,,,,,,,,,,,,,,,,,,,,,,,
,,,,,WIN24_031,21,F,2024-02-02_10h52.35.632,jersey_experiment_5,2023.2.2,Win32,84.03361345,,,,,,,,,,,,,,,,734.1021,735.3962,735.3962,736.6079,return,0.6776,,83.203125,,,,,,FBP-YG-71.png,0.4,1.2,33,0.5,,,,,,,,,,,,,0,48,48,32,1,,,,,,,,,,,,,,,,,,,,,,,,,,,,
,,,,,WIN24_031,21,F,2024-02-02_10h52.35.632,jersey_experiment_5,2023.2.2,Win32,84.03361345,,,,,,,,,,,,,,,,736.6082,738.4081,738.4081,739.3374,return,0.2587,,80.078125,,,,,,FBP-OG-91.png,0.4,1.2,13,1,,,,,,,,,,,,,0,49,49,12,1,,,,,,,,,,,,,,,,,,,,,,,,,,,,
,,,,,WIN24_031,21,F,2024-02-02_10h52.35.632,jersey_experiment_5,2023.2.2,Win32,84.03361345,,,,,,,,,,,,,,,,739.3377,740.6316,740.6316,742.0552,return,0.2003,,80.078125,,,,,,FBP-YG-81.png,0.37,1.2,37,0.5,,,,,,,,,,,,,0,50,50,36,1,,,,,,,,,,,,,,,,,,,,,,,,,,,,
,,,,,WIN24_031,21,F,2024-02-02_10h52.35.632,jersey_experiment_5,2023.2.2,Win32,84.03361345,,,,,,,,,,,,,,,,742.0555,743.8555,743.8556,744.5258,return,0.1009,,96.35416667,,,,,,FBP-OG-91.png,0.43,1.2,14,1,,,,,,,,,,,,,0,51,51,13,1,,,,,,,,,,,,,,,,,,,,,,,,,,,,
,,,,,WIN24_031,21,F,2024-02-02_10h52.35.632,jersey_experiment_5,2023.2.2,Win32,84.03361345,,,,,,,,,,,,,,,,744.5261,745.8201,745.8202,749.5027,return,0.8407,,94.27083333,,,,,,FBP-YG-81.png,0.35,1.2,36,0.5,,,,,,,,,,,,,0,52,52,35,1,,,,,,,,,,,,,,,,,,,,,,,,,,,,
,,,,,WIN24_031,21,F,2024-02-02_10h52.35.632,jersey_experiment_5,2023.2.2,Win32,84.03361345,,,,,,,,,,,,,,,,749.5034,750.7967,750.7967,752.7026,return,0.746,,59.375,,,,,,FBP-RB-17.png,0.4,1.2,18,0.5,,,,,,,,,,,,,0,53,53,17,1,,,,,,,,,,,,,,,,,,,,,,,,,,,,
,,,,,WIN24_031,21,F,2024-02-02_10h52.35.632,jersey_experiment_5,2023.2.2,Win32,84.03361345,,,,,,,,,,,,,,,,752.7029,754.5029,754.503,755.3851,return,0.1887,,69.40104167,,,,,,FBP-PT-19.png,0.4,1.2,58,1,,,,,,,,,,,,,0,54,54,57,1,,,,,,,,,,,,,,,,,,,,,,,,,,,,
,,,,,WIN24_031,21,F,2024-02-02_10h52.35.632,jersey_experiment_5,2023.2.2,Win32,84.03361345,,,,,,,,,,,,,,,,755.3854,757.1855,757.1855,757.6676,return,0.153,,16.27604167,,,,,,FBP-OG-81.png,0.35,1.2,6,1,,,,,,,,,,,,,0,55,55,5,1,,,,,,,,,,,,,,,,,,,,,,,,,,,,
,,,,,WIN24_031,21,F,2024-02-02_10h52.35.632,jersey_experiment_5,2023.2.2,Win32,84.03361345,,,,,,,,,,,,,,,,757.6679,759.4676,759.4676,759.9028,return,0.2669,,27.47395833,,,,,,FBP-PT-18.png,0.37,1.2,52,1,,,,,,,,,,,,,0,56,56,51,1,,,,,,,,,,,,,,,,,,,,,,,,,,,,
,,,,,WIN24_031,21,F,2024-02-02_10h52.35.632,jersey_experiment_5,2023.2.2,Win32,84.03361345,,,,,,,,,,,,,,,,759.9031,761.1971,761.1971,762.4678,return,0.4032,,17.578125,,,,,,FBP-RB-17.png,0.35,1.2,16,0.5,,,,,,,,,,,,,0,57,57,15,1,,,,,,,,,,,,,,,,,,,,,,,,,,,,
,,,,,WIN24_031,21,F,2024-02-02_10h52.35.632,jersey_experiment_5,2023.2.2,Win32,84.03361345,,,,,,,,,,,,,,,,762.468,763.762,763.762,765.2208,return,0.0964,,43.09895833,,,,,,FBP-YG-91.png,0.37,1.2,42,0.5,,,,,,,,,,,,,0,58,58,41,1,,,,,,,,,,,,,,,,,,,,,,,,,,,,
,,,,,WIN24_031,21,F,2024-02-02_10h52.35.632,jersey_experiment_5,2023.2.2,Win32,84.03361345,,,,,,,,,,,,,,,,765.2211,767.021,767.021,768.9507,return,1.5206,,12.23958333,,,,,,FBP-PT-19.png,0.35,1.2,56,1,,,,,,,,,,,,,0,59,59,55,1,,,,,,,,,,,,,,,,,,,,,,,,,,,,
,,,,,WIN24_031,21,F,2024-02-02_10h52.35.632,jersey_experiment_5,2023.2.2,Win32,84.03361345,,,,,,,,,,,,,,,,768.9529,770.2446,770.2446,771.7034,return,0.7417,,24.73958333,,,,,,FBP-YG-19.png,0.35,1.2,41,0.5,,,,,,,,,,,,,,,,,,0,0,0,40,1,,,,,,,,,,,,,,,,,,,,,,,
,,,,,WIN24_031,21,F,2024-02-02_10h52.35.632,jersey_experiment_5,2023.2.2,Win32,84.03361345,,,,,,,,,,,,,,,,771.7036,773.5035,773.5035,774.5749,return,0.1973,,59.50520833,,,,,,FBP-PT-91.png,0.37,1.2,57,1,,,,,,,,,,,,,,,,,,0,1,1,56,1,,,,,,,,,,,,,,,,,,,,,,,
,,,,,WIN24_031,21,F,2024-02-02_10h52.35.632,jersey_experiment_5,2023.2.2,Win32,84.03361345,,,,,,,,,,,,,,,,774.5752,775.8682,775.8683,776.774,return,0.1035,,74.609375,,,,,,FBP-RB-71.png,0.4,1.2,18,0.5,,,,,,,,,,,,,,,,,,0,2,2,17,1,,,,,,,,,,,,,,,,,,,,,,,
,,,,,WIN24_031,21,F,2024-02-02_10h52.35.632,jersey_experiment_5,2023.2.2,Win32,84.03361345,,,,,,,,,,,,,,,,776.7743,778.0684,778.0684,778.8802,return,0.1597,,87.63020833,,,,,,FBP-YG-18.png,0.43,1.2,39,0.5,,,,,,,,,,,,,,,,,,0,3,3,38,1,,,,,,,,,,,,,,,,,,,,,,,
,,,,,WIN24_031,21,F,2024-02-02_10h52.35.632,jersey_experiment_5,2023.2.2,Win32,84.03361345,,,,,,,,,,,,,,,,778.8804,780.1744,780.1744,781.9272,return,1.0115,,81.38020833,,,,,,FBP-RB-81.png,0.4,1.2,23,0.5,,,,,,,,,,,,,,,,,,0,4,4,22,1,,,,,,,,,,,,,,,,,,,,,,,
,,,,,WIN24_031,21,F,2024-02-02_10h52.35.632,jersey_experiment_5,2023.2.2,Win32,84.03361345,,,,,,,,,,,,,,,,781.9276,783.7274,783.7274,784.5275,return,0.137,,57.421875,,,,,,FBP-PT-81.png,0.37,1.2,52,1,,,,,,,,,,,,,,,,,,0,5,5,51,1,,,,,,,,,,,,,,,,,,,,,,,
,,,,,WIN24_031,21,F,2024-02-02_10h52.35.632,jersey_experiment_5,2023.2.2,Win32,84.03361345,,,,,,,,,,,,,,,,784.5278,786.3274,786.3275,787.3981,return,0.2129,,90.234375,,,,,,FBP-OG-17.png,0.45,1.2,5,1,,,,,,,,,,,,,,,,,,0,6,6,4,1,,,,,,,,,,,,,,,,,,,,,,,
,,,,,WIN24_031,21,F,2024-02-02_10h52.35.632,jersey_experiment_5,2023.2.2,Win32,84.03361345,,,,,,,,,,,,,,,,787.3984,789.1982,789.1983,789.8923,return,0.2498,,92.31770833,,,,,,FBP-OG-18.png,0.45,1.2,10,1,,,,,,,,,,,,,,,,,,0,7,7,9,1,,,,,,,,,,,,,,,,,,,,,,,
,,,,,WIN24_031,21,F,2024-02-02_10h52.35.632,jersey_experiment_5,2023.2.2,Win32,84.03361345,,,,,,,,,,,,,,,,789.8927,791.6927,791.6927,792.3749,return,0.1769,,4.166666667,,,,,,FBP-OG-19.png,0.35,1.2,11,1,,,,,,,,,,,,,,,,,,0,8,8,10,1,,,,,,,,,,,,,,,,,,,,,,,
,,,,,WIN24_031,21,F,2024-02-02_10h52.35.632,jersey_experiment_5,2023.2.2,Win32,84.03361345,,,,,,,,,,,,,,,,792.3751,793.669,793.669,794.469,return,0.1791,,85.02604167,,,,,,FBP-RB-91.png,0.43,1.2,29,0.5,,,,,,,,,,,,,,,,,,0,9,9,28,1,,,,,,,,,,,,,,,,,,,,,,,
,,,,,WIN24_031,21,F,2024-02-02_10h52.35.632,jersey_experiment_5,2023.2.2,Win32,84.03361345,,,,,,,,,,,,,,,,794.4692,796.2691,796.2691,797.1515,return,0.5486,,75.13020833,,,,,,FBP-OG-19.png,0.4,1.2,13,1,,,,,,,,,,,,,,,,,,0,10,10,12,1,,,,,,,,,,,,,,,,,,,,,,,
,,,,,WIN24_031,21,F,2024-02-02_10h52.35.632,jersey_experiment_5,2023.2.2,Win32,84.03361345,,,,,,,,,,,,,,,,797.1517,798.9516,798.9516,800.5164,return,1.1069,,37.5,,,,,,FBP-PT-71.png,0.37,1.2,47,1,,,,,,,,,,,,,,,,,,0,11,11,46,1,,,,,,,,,,,,,,,,,,,,,,,
,,,,,WIN24_031,21,F,2024-02-02_10h52.35.632,jersey_experiment_5,2023.2.2,Win32,84.03361345,,,,,,,,,,,,,,,,800.5166,801.8105,801.8105,802.5635,return,0.1328,,81.90104167,,,,,,FBP-RB-91.png,0.45,1.2,30,0.5,,,,,,,,,,,,,,,,,,0,12,12,29,1,,,,,,,,,,,,,,,,,,,,,,,
,,,,,WIN24_031,21,F,2024-02-02_10h52.35.632,jersey_experiment_5,2023.2.2,Win32,84.03361345,,,,,,,,,,,,,,,,802.5637,803.8576,803.8576,805.3046,return,0.6215,,75.26041667,,,,,,FBP-YG-18.png,0.4,1.2,38,0.5,,,,,,,,,,,,,,,,,,0,13,13,37,1,,,,,,,,,,,,,,,,,,,,,,,
,,,,,WIN24_031,21,F,2024-02-02_10h52.35.632,jersey_experiment_5,2023.2.2,Win32,84.03361345,,,,,,,,,,,,,,,,805.3049,807.1048,807.1048,808.1636,return,0.1422,,99.73958333,,,,,,FBP-PT-81.png,0.45,1.2,55,1,,,,,,,,,,,,,,,,,,0,14,14,54,1,,,,,,,,,,,,,,,,,,,,,,,
,,,,,WIN24_031,21,F,2024-02-02_10h52.35.632,jersey_experiment_5,2023.2.2,Win32,84.03361345,,,,,,,,,,,,,,,,808.164,809.9637,809.9637,811.5873,return,0.8036,,79.42708333,,,,,,FBP-OG-19.png,0.43,1.2,14,1,,,,,,,,,,,,,,,,,,0,15,15,13,1,,,,,,,,,,,,,,,,,,,,,,,
,,,,,WIN24_031,21,F,2024-02-02_10h52.35.632,jersey_experiment_5,2023.2.2,Win32,84.03361345,,,,,,,,,,,,,,,,811.5875,813.3876,813.3877,815.1521,return,0.2154,,0.130208333,,,,,,FBP-PT-81.png,0.35,1.2,51,1,,,,,,,,,,,,,,,,,,0,16,16,50,1,,,,,,,,,,,,,,,,,,,,,,,
,,,,,WIN24_031,21,F,2024-02-02_10h52.35.632,jersey_experiment_5,2023.2.2,Win32,84.03361345,,,,,,,,,,,,,,,,815.1523,816.9523,816.9523,817.9993,return,0.1726,,71.09375,,,,,,FBP-OG-18.png,0.43,1.2,9,1,,,,,,,,,,,,,,,,,,0,17,17,8,1,,,,,,,,,,,,,,,,,,,,,,,
,,,,,WIN24_031,21,F,2024-02-02_10h52.35.632,jersey_experiment_5,2023.2.2,Win32,84.03361345,,,,,,,,,,,,,,,,817.9996,819.2933,819.2934,820.9524,return,0.1178,,0.260416667,,,,,,FBP-YG-18.png,0.35,1.2,36,0.5,,,,,,,,,,,,,,,,,,0,18,18,35,1,,,,,,,,,,,,,,,,,,,,,,,
,,,,,WIN24_031,21,F,2024-02-02_10h52.35.632,jersey_experiment_5,2023.2.2,Win32,84.03361345,,,,,,,,,,,,,,,,820.9527,822.2466,822.2466,824.4466,return,0.9733,,67.70833333,,,,,,FBP-RB-71.png,0.37,1.2,17,0.5,,,,,,,,,,,,,,,,,,0,19,19,16,1,,,,,,,,,,,,,,,,,,,,,,,
,,,,,WIN24_031,21,F,2024-02-02_10h52.35.632,jersey_experiment_5,2023.2.2,Win32,84.03361345,,,,,,,,,,,,,,,,824.4469,825.7408,825.7408,827.4114,return,0.1683,,52.21354167,,,,,,FBP-RB-81.png,0.37,1.2,22,0.5,,,,,,,,,,,,,,,,,,0,20,20,21,1,,,,,,,,,,,,,,,,,,,,,,,
,,,,,WIN24_031,21,F,2024-02-02_10h52.35.632,jersey_experiment_5,2023.2.2,Win32,84.03361345,,,,,,,,,,,,,,,,827.4118,828.7055,828.7055,829.7527,return,0.2472,,39.71354167,,,,,,FBP-RB-91.png,0.35,1.2,26,0.5,,,,,,,,,,,,,,,,,,0,21,21,25,1,,,,,,,,,,,,,,,,,,,,,,,
,,,,,WIN24_031,21,F,2024-02-02_10h52.35.632,jersey_experiment_5,2023.2.2,Win32,84.03361345,,,,,,,,,,,,,,,,829.7531,831.0468,831.0468,831.9764,return,0.139,,75.91145833,,,,,,FBP-YG-17.png,0.43,1.2,34,0.5,,,,,,,,,,,,,,,,,,0,22,22,33,1,,,,,,,,,,,,,,,,,,,,,,,
,,,,,WIN24_031,21,F,2024-02-02_10h52.35.632,jersey_experiment_5,2023.2.2,Win32,84.03361345,,,,,,,,,,,,,,,,831.9765,833.2704,833.2704,834.3528,return,0.5709,,74.08854167,,,,,,FBP-YG-18.png,0.37,1.2,37,0.5,,,,,,,,,,,,,,,,,,0,23,23,36,1,,,,,,,,,,,,,,,,,,,,,,,
,,,,,WIN24_031,21,F,2024-02-02_10h52.35.632,jersey_experiment_5,2023.2.2,Win32,84.03361345,,,,,,,,,,,,,,,,834.353,836.1535,836.1535,836.753,return,0.1352,,82.16145833,,,,,,FBP-PT-71.png,0.4,1.2,48,1,,,,,,,,,,,,,,,,,,0,24,24,47,1,,,,,,,,,,,,,,,,,,,,,,,
,,,,,WIN24_031,21,F,2024-02-02_10h52.35.632,jersey_experiment_5,2023.2.2,Win32,84.03361345,,,,,,,,,,,,,,,,836.7535,838.5531,838.5531,839.153,return,0.2179,,85.28645833,,,,,,FBP-OG-17.png,0.4,1.2,3,1,,,,,,,,,,,,,,,,,,0,25,25,2,1,,,,,,,,,,,,,,,,,,,,,,,
,,,,,WIN24_031,21,F,2024-02-02_10h52.35.632,jersey_experiment_5,2023.2.2,Win32,84.03361345,,,,,,,,,,,,,,,,839.1532,840.9532,840.9532,841.6943,return,0.3384,,84.11458333,,,,,,FBP-PT-71.png,0.43,1.2,49,1,,,,,,,,,,,,,,,,,,0,26,26,48,1,,,,,,,,,,,,,,,,,,,,,,,
,,,,,WIN24_031,21,F,2024-02-02_10h52.35.632,jersey_experiment_5,2023.2.2,Win32,84.03361345,,,,,,,,,,,,,,,,841.6946,842.9885,842.9885,843.7648,return,0.1079,,90.10416667,,,,,,FBP-RB-71.png,0.45,1.2,20,0.5,,,,,,,,,,,,,,,,,,0,27,27,19,1,,,,,,,,,,,,,,,,,,,,,,,
,,,,,WIN24_031,21,F,2024-02-02_10h52.35.632,jersey_experiment_5,2023.2.2,Win32,84.03361345,,,,,,,,,,,,,,,,843.7651,845.0591,845.0592,846.2004,return,0.1298,,50.65104167,,,,,,FBP-RB-91.png,0.4,1.2,28,0.5,,,,,,,,,,,,,,,,,,0,28,28,27,1,,,,,,,,,,,,,,,,,,,,,,,
,,,,,WIN24_031,21,F,2024-02-02_10h52.35.632,jersey_experiment_5,2023.2.2,Win32,84.03361345,,,,,,,,,,,,,,,,846.2006,848.0009,848.0011,848.6475,return,0.104,,52.99479167,,,,,,FBP-OG-17.png,0.37,1.2,2,1,,,,,,,,,,,,,,,,,,0,29,29,1,1,,,,,,,,,,,,,,,,,,,,,,,
,,,,,WIN24_031,21,F,2024-02-02_10h52.35.632,jersey_experiment_5,2023.2.2,Win32,84.03361345,,,,,,,,,,,,,,,,848.6478,850.4476,850.4476,851.6476,return,0.8899,,69.921875,,,,,,FBP-OG-17.png,0.43,1.2,4,1,,,,,,,,,,,,,,,,,,0,30,30,3,1,,,,,,,,,,,,,,,,,,,,,,,
,,,,,WIN24_031,21,F,2024-02-02_10h52.35.632,jersey_experiment_5,2023.2.2,Win32,84.03361345,,,,,,,,,,,,,,,,851.6479,853.4477,853.4478,854.342,return,0.1542,,51.30208333,,,,,,FBP-OG-18.png,0.37,1.2,7,1,,,,,,,,,,,,,,,,,,0,31,31,6,1,,,,,,,,,,,,,,,,,,,,,,,
,,,,,WIN24_031,21,F,2024-02-02_10h52.35.632,jersey_experiment_5,2023.2.2,Win32,84.03361345,,,,,,,,,,,,,,,,854.3425,855.6363,855.6363,857.4007,return,0.9414,,51.82291667,,,,,,FBP-YG-19.png,0.4,1.2,43,0.5,,,,,,,,,,,,,,,,,,0,32,32,42,1,,,,,,,,,,,,,,,,,,,,,,,
,,,,,WIN24_031,21,F,2024-02-02_10h52.35.632,jersey_experiment_5,2023.2.2,Win32,84.03361345,,,,,,,,,,,,,,,,857.4009,858.6953,858.6953,860.3893,return,1.1079,,74.47916667,,,,,,FBP-RB-71.png,0.43,1.2,19,0.5,,,,,,,,,,,,,,,,,,0,33,33,18,1,,,,,,,,,,,,,,,,,,,,,,,
,,,,,WIN24_031,21,F,2024-02-02_10h52.35.632,jersey_experiment_5,2023.2.2,Win32,84.03361345,,,,,,,,,,,,,,,,860.3901,861.6833,861.6833,862.601,return,0.3151,,84.89583333,,,,,,FBP-RB-81.png,0.45,1.2,25,0.5,,,,,,,,,,,,,,,,,,0,34,34,24,1,,,,,,,,,,,,,,,,,,,,,,,
,,,,,WIN24_031,21,F,2024-02-02_10h52.35.632,jersey_experiment_5,2023.2.2,Win32,84.03361345,,,,,,,,,,,,,,,,862.6014,864.4013,864.4013,865.601,return,0.6388,,56.90104167,,,,,,FBP-OG-18.png,0.4,1.2,8,1,,,,,,,,,,,,,,,,,,0,35,35,7,1,,,,,,,,,,,,,,,,,,,,,,,
,,,,,WIN24_031,21,F,2024-02-02_10h52.35.632,jersey_experiment_5,2023.2.2,Win32,84.03361345,,,,,,,,,,,,,,,,865.6013,866.8953,866.8953,868.0365,return,0.1551,,25.91145833,,,,,,FBP-YG-17.png,0.35,1.2,31,0.5,,,,,,,,,,,,,,,,,,0,36,36,30,1,,,,,,,,,,,,,,,,,,,,,,,
,,,,,WIN24_031,21,F,2024-02-02_10h52.35.632,jersey_experiment_5,2023.2.2,Win32,84.03361345,,,,,,,,,,,,,,,,868.0371,869.3307,869.3307,871.6955,return,1.6992,,60.67708333,,,,,,FBP-YG-17.png,0.4,1.2,33,0.5,,,,,,,,,,,,,,,,,,0,37,37,32,1,,,,,,,,,,,,,,,,,,,,,,,
,,,,,WIN24_031,21,F,2024-02-02_10h52.35.632,jersey_experiment_5,2023.2.2,Win32,84.03361345,,,,,,,,,,,,,,,,871.6958,873.4956,873.4956,874.5778,return,0.1697,,88.93229167,,,,,,FBP-PT-71.png,0.45,1.2,50,1,,,,,,,,,,,,,,,,,,0,38,38,49,1,,,,,,,,,,,,,,,,,,,,,,,
,,,,,WIN24_031,21,F,2024-02-02_10h52.35.632,jersey_experiment_5,2023.2.2,Win32,84.03361345,,,,,,,,,,,,,,,,874.5781,875.872,875.872,877.2016,return,0.5587,,75.78125,,,,,,FBP-YG-19.png,0.45,1.2,45,0.5,,,,,,,,,,,,,,,,,,0,39,39,44,1,,,,,,,,,,,,,,,,,,,,,,,
,,,,,WIN24_031,21,F,2024-02-02_10h52.35.632,jersey_experiment_5,2023.2.2,Win32,84.03361345,,,,,,,,,,,,,,,,877.2019,878.4956,878.4957,879.1898,return,0.1421,,78.38541667,,,,,,FBP-YG-19.png,0.43,1.2,44,0.5,,,,,,,,,,,,,,,,,,0,40,40,43,1,,,,,,,,,,,,,,,,,,,,,,,
,,,,,WIN24_031,21,F,2024-02-02_10h52.35.632,jersey_experiment_5,2023.2.2,Win32,84.03361345,,,,,,,,,,,,,,,,879.19,880.484,880.484,882.2958,return,0.3179,,62.36979167,,,,,,FBP-RB-91.png,0.37,1.2,27,0.5,,,,,,,,,,,,,,,,,,0,41,41,26,1,,,,,,,,,,,,,,,,,,,,,,,
,,,,,WIN24_031,21,F,2024-02-02_10h52.35.632,jersey_experiment_5,2023.2.2,Win32,84.03361345,,,,,,,,,,,,,,,,882.296,884.096,884.096,884.8725,return,0.1887,,77.60416667,,,,,,FBP-PT-91.png,0.45,1.2,60,1,,,,,,,,,,,,,,,,,,0,42,42,59,1,,,,,,,,,,,,,,,,,,,,,,,
,,,,,WIN24_031,21,F,2024-02-02_10h52.35.632,jersey_experiment_5,2023.2.2,Win32,84.03361345,,,,,,,,,,,,,,,,884.8726,886.1666,886.1667,887.2019,return,0.3345,,84.24479167,,,,,,FBP-YG-17.png,0.45,1.2,35,0.5,,,,,,,,,,,,,,,,,,0,43,43,34,1,,,,,,,,,,,,,,,,,,,,,,,
,,,,,WIN24_031,21,F,2024-02-02_10h52.35.632,jersey_experiment_5,2023.2.2,Win32,84.03361345,,,,,,,,,,,,,,,,887.2021,888.4961,888.4961,889.3315,return,0.1306,,24.08854167,,,,,,FBP-YG-19.png,0.37,1.2,42,0.5,,,,,,,,,,,,,,,,,,0,44,44,41,1,,,,,,,,,,,,,,,,,,,,,,,
,,,,,WIN24_031,21,F,2024-02-02_10h52.35.632,jersey_experiment_5,2023.2.2,Win32,84.03361345,,,,,,,,,,,,,,,,889.3318,891.1314,891.1315,892.8021,return,0.2989,,72.13541667,,,,,,FBP-PT-91.png,0.4,1.2,58,1,,,,,,,,,,,,,,,,,,0,45,45,57,1,,,,,,,,,,,,,,,,,,,,,,,
,,,,,WIN24_031,21,F,2024-02-02_10h52.35.632,jersey_experiment_5,2023.2.2,Win32,84.03361345,,,,,,,,,,,,,,,,892.8023,894.6022,894.6023,896.1787,return,0.828,,84.24479167,,,,,,FBP-OG-19.png,0.45,1.2,15,1,,,,,,,,,,,,,,,,,,0,46,46,14,1,,,,,,,,,,,,,,,,,,,,,,,
,,,,,WIN24_031,21,F,2024-02-02_10h52.35.632,jersey_experiment_5,2023.2.2,Win32,84.03361345,,,,,,,,,,,,,,,,896.179,897.4728,897.4728,898.92,return,0.5861,,16.92708333,,,,,,FBP-YG-17.png,0.37,1.2,32,0.5,,,,,,,,,,,,,,,,,,0,47,47,31,1,,,,,,,,,,,,,,,,,,,,,,,
,,,,,WIN24_031,21,F,2024-02-02_10h52.35.632,jersey_experiment_5,2023.2.2,Win32,84.03361345,,,,,,,,,,,,,,,,898.9203,900.7205,900.7206,901.2027,return,0.2276,,5.989583333,,,,,,FBP-OG-19.png,0.37,1.2,12,1,,,,,,,,,,,,,,,,,,0,48,48,11,1,,,,,,,,,,,,,,,,,,,,,,,
,,,,,WIN24_031,21,F,2024-02-02_10h52.35.632,jersey_experiment_5,2023.2.2,Win32,84.03361345,,,,,,,,,,,,,,,,901.203,903.0028,903.0028,904.9791,return,1.0861,,50,,,,,,FBP-PT-81.png,0.4,1.2,53,1,,,,,,,,,,,,,,,,,,0,49,49,52,1,,,,,,,,,,,,,,,,,,,,,,,
,,,,,WIN24_031,21,F,2024-02-02_10h52.35.632,jersey_experiment_5,2023.2.2,Win32,84.03361345,,,,,,,,,,,,,,,,904.9793,906.2734,906.2734,907.2028,return,0.1573,,76.69270833,,,,,,FBP-YG-18.png,0.45,1.2,40,0.5,,,,,,,,,,,,,,,,,,0,50,50,39,1,,,,,,,,,,,,,,,,,,,,,,,
,,,,,WIN24_031,21,F,2024-02-02_10h52.35.632,jersey_experiment_5,2023.2.2,Win32,84.03361345,,,,,,,,,,,,,,,,907.2031,908.4969,908.4969,911.5088,return,0.1088,,47.91666667,,,,,,FBP-RB-81.png,0.43,1.2,24,0.5,,,,,,,,,,,,,,,,,,0,51,51,23,1,,,,,,,,,,,,,,,,,,,,,,,
,,,,,WIN24_031,21,F,2024-02-02_10h52.35.632,jersey_experiment_5,2023.2.2,Win32,84.03361345,,,,,,,,,,,,,,,,911.5091,913.3089,913.3089,914.4147,return,0.7735,,24.21875,,,,,,FBP-PT-91.png,0.35,1.2,56,1,,,,,,,,,,,,,,,,,,0,52,52,55,1,,,,,,,,,,,,,,,,,,,,,,,
,,,,,WIN24_031,21,F,2024-02-02_10h52.35.632,jersey_experiment_5,2023.2.2,Win32,84.03361345,,,,,,,,,,,,,,,,914.4149,916.2148,916.2148,917.8972,return,0.1648,,9.375,,,,,,FBP-PT-71.png,0.35,1.2,46,1,,,,,,,,,,,,,,,,,,0,53,53,45,1,,,,,,,,,,,,,,,,,,,,,,,
,,,,,WIN24_031,21,F,2024-02-02_10h52.35.632,jersey_experiment_5,2023.2.2,Win32,84.03361345,,,,,,,,,,,,,,,,917.8975,919.6975,919.6975,920.6266,return,0.2162,,24.21875,,,,,,FBP-OG-17.png,0.35,1.2,1,1,,,,,,,,,,,,,,,,,,0,54,54,0,1,,,,,,,,,,,,,,,,,,,,,,,
,,,,,WIN24_031,21,F,2024-02-02_10h52.35.632,jersey_experiment_5,2023.2.2,Win32,84.03361345,,,,,,,,,,,,,,,,920.6269,922.4269,922.427,923.2857,return,0.2134,,1.041666667,,,,,,FBP-OG-18.png,0.35,1.2,6,1,,,,,,,,,,,,,,,,,,0,55,55,5,1,,,,,,,,,,,,,,,,,,,,,,,
,,,,,WIN24_031,21,F,2024-02-02_10h52.35.632,jersey_experiment_5,2023.2.2,Win32,84.03361345,,,,,,,,,,,,,,,,923.2859,924.58,924.58,925.6387,return,0.1651,,1.041666667,,,,,,FBP-RB-81.png,0.35,1.2,21,0.5,,,,,,,,,,,,,,,,,,0,56,56,20,1,,,,,,,,,,,,,,,,,,,,,,,
,,,,,WIN24_031,21,F,2024-02-02_10h52.35.632,jersey_experiment_5,2023.2.2,Win32,84.03361345,,,,,,,,,,,,,,,,925.639,926.9329,926.9329,927.9095,return,0.1313,,1.432291667,,,,,,FBP-RB-71.png,0.35,1.2,16,0.5,,,,,,,,,,,,,,,,,,0,57,57,15,1,,,,,,,,,,,,,,,,,,,,,,,
,,,,,WIN24_031,21,F,2024-02-02_10h52.35.632,jersey_experiment_5,2023.2.2,Win32,84.03361345,,,,,,,,,,,,,,,,927.9098,929.7095,929.7095,930.2858,return,0.1859,,75.390625,,,,,,FBP-PT-81.png,0.43,1.2,54,1,,,,,,,,,,,,,,,,,,0,58,58,53,1,,,,,,,,,,,,,,,,,,,,,,,
,,,,,WIN24_031,21,F,2024-02-02_10h52.35.632,jersey_experiment_5,2023.2.2,Win32,84.03361345,,,,,,,,,,,,,,,,930.286,932.0859,932.0859,932.6391,return,0.382,,77.34375,,,,,,FBP-PT-91.png,0.43,1.2,59,1,,,,,,,,,,,,,,,,,,0,59,59,58,1,,,,,,,,,,,,,,,,,,,,,,,
,,,,,WIN24_031,21,F,2024-02-02_10h52.35.632,jersey_experiment_5,2023.2.2,Win32,84.03361345,,,,,,,,,,,,,,,,,,,,,,,,,,,,,,,,,,,,,,,,,,,,,,,,,,,,,,,,932.6394,938.0983,return,5.4513,,,,,,,,,,,,,,,,,,,
,,,,,WIN24_031,21,F,2024-02-02_10h52.35.632,jersey_experiment_5,2023.2.2,Win32,84.03361345,,,,,,,,,,,,,,,,,,,,,,,,,,,,,,,,,,,,,,,,,,,,,,,,,,,,,,,,,,,,,938.0984,944.8983,1,5.5482,return,1.2277,,,,,,,,,,,,
,,,,,WIN24_031,21,F,2024-02-02_10h52.35.632,jersey_experiment_5,2023.2.2,Win32,84.03361345,,,,,,,,,,,,,,,,,,,,,,,,,,,,,,,,,,,,,,,,,,,,,,,,,,,,,,,,,,,,,,,,,,,,944.8984,1098.8623,I feel like I saw a lot of slender or bulky people in succession more than I saw slender and bulky people being presented to me back and forth. This study may be about the thresholds that need to be crossed in order for things to be perceived as slender or bulky,right,135.0124,,,,,,
,,,,,WIN24_031,21,F,2024-02-02_10h52.35.632,jersey_experiment_5,2023.2.2,Win32,84.03361345,,,,,,,,,,,,,,,,,,,,,,,,,,,,,,,,,,,,,,,,,,,,,,,,,,,,,,,,,,,,,,,,,,,,,,,,,,1098.8624,1107.9759,return,9.1006,