requirements.started,requirements.stopped,key_resp_3.keys,key_resp_3.rt,key_resp_3.duration,Subject ID,Age,Gender,date,expName,psychopyVersion,OS,frameRate,instructions1.started,instructions1.stopped,key_resp.keys,key_resp.rt,key_resp.duration,example.started,example.stopped,enter_2.keys,enter_2.rt,enter_2.duration,instructions2.started,instructions2.stopped,enter_3.keys,enter_3.rt,enter_3.duration,image.started,image.stopped,slider_2.started,slider_2.stopped,next.keys,next.rt,next.duration,slider.response,trial_block_1.thisRepN,trial_block_1.thisTrialN,trial_block_1.thisN,trial_block_1.thisIndex,trial_block_1.ran,Path,Width,Height,Index,Duration,trial_block_2.thisRepN,trial_block_2.thisTrialN,trial_block_2.thisN,trial_block_2.thisIndex,trial_block_2.ran,rest_break.started,rest_break.stopped,end_break.started,end_break.stopped,key_resp_5.keys,key_resp_5.rt,key_resp_5.duration,trial_block_3.thisRepN,trial_block_3.thisTrialN,trial_block_3.thisN,trial_block_3.thisIndex,trial_block_3.ran,trial_block_4.thisRepN,trial_block_4.thisTrialN,trial_block_4.thisN,trial_block_4.thisIndex,trial_block_4.ran,questions_intro.started,questions_intro.stopped,enter_12.keys,enter_12.rt,enter_12.duration,question2.started,question2.stopped,question_doingbest.response,question_doingbest.rt,enter_15.keys,enter_15.rt,enter_15.duration,pattern.started,pattern.stopped,pattern_2.text,enter_17.keys,enter_17.rt,enter_17.duration,thankyou.started,thankyou.stopped,enter_14.keys,enter_14.rt,enter_14.duration
0,15.5391,return,15.5358,,WIN24_027,20,F,2024-02-01_12h37.02.590,jersey_experiment_5,2023.2.2,Win32,84.74576271,,,,,,,,,,,,,,,,,,,,,,,,,,,,,,,,,,,,,,,,,,,,,,,,,,,,,,,,,,,,,,,,,,,,,,,,,,,,,,
,,,,,WIN24_027,20,F,2024-02-01_12h37.02.590,jersey_experiment_5,2023.2.2,Win32,84.74576271,15.5392,35.2232,return,19.6707,,,,,,,,,,,,,,,,,,,,,,,,,,,,,,,,,,,,,,,,,,,,,,,,,,,,,,,,,,,,,,,,,,,,,,,,,,
,,,,,WIN24_027,20,F,2024-02-01_12h37.02.590,jersey_experiment_5,2023.2.2,Win32,84.74576271,,,,,,35.2232,44.019,return,8.7593,,,,,,,,,,,,,,,,,,,,,,,,,,,,,,,,,,,,,,,,,,,,,,,,,,,,,,,,,,,,,,,,,,,,,
,,,,,WIN24_027,20,F,2024-02-01_12h37.02.590,jersey_experiment_5,2023.2.2,Win32,84.74576271,,,,,,,,,,,44.0191,66.0082,return,21.9668,,,,,,,,,,,,,,,,,,,,,,,,,,,,,,,,,,,,,,,,,,,,,,,,,,,,,,,,,,,,,,,,
,,,,,WIN24_027,20,F,2024-02-01_12h37.02.590,jersey_experiment_5,2023.2.2,Win32,84.74576271,,,,,,,,,,,,,,,,66.015,67.8078,67.8079,87.8085,return,9.2862,,87.23958333,0,0,0,29,1,FBP-RB-19.png,0.45,1.2,30,1,,,,,,,,,,,,,,,,,,,,,,,,,,,,,,,,,,,,,,,,,,,,,
,,,,,WIN24_027,20,F,2024-02-01_12h37.02.590,jersey_experiment_5,2023.2.2,Win32,84.74576271,,,,,,,,,,,,,,,,87.8086,89.6086,89.6087,100.3266,return,6.5753,,27.60416667,0,1,1,31,1,FBP-YG-71.png,0.37,1.2,32,1,,,,,,,,,,,,,,,,,,,,,,,,,,,,,,,,,,,,,,,,,,,,,
,,,,,WIN24_027,20,F,2024-02-01_12h37.02.590,jersey_experiment_5,2023.2.2,Win32,84.74576271,,,,,,,,,,,,,,,,100.3268,102.1267,102.1267,107.3622,return,1.2848,,74.86979167,0,2,2,23,1,FBP-RB-18.png,0.43,1.2,24,1,,,,,,,,,,,,,,,,,,,,,,,,,,,,,,,,,,,,,,,,,,,,,
,,,,,WIN24_027,20,F,2024-02-01_12h37.02.590,jersey_experiment_5,2023.2.2,Win32,84.74576271,,,,,,,,,,,,,,,,107.3624,109.1623,109.1623,113.9977,return,1.5135,,55.078125,0,3,3,42,1,FBP-YG-91.png,0.4,1.2,43,1,,,,,,,,,,,,,,,,,,,,,,,,,,,,,,,,,,,,,,,,,,,,,
,,,,,WIN24_027,20,F,2024-02-01_12h37.02.590,jersey_experiment_5,2023.2.2,Win32,84.74576271,,,,,,,,,,,,,,,,113.9979,115.7978,115.7978,121.4098,return,3.7552,,74.86979167,0,4,4,38,1,FBP-YG-81.png,0.43,1.2,39,1,,,,,,,,,,,,,,,,,,,,,,,,,,,,,,,,,,,,,,,,,,,,,
,,,,,WIN24_027,20,F,2024-02-01_12h37.02.590,jersey_experiment_5,2023.2.2,Win32,84.74576271,,,,,,,,,,,,,,,,121.414,122.7156,122.7157,127.3042,return,1.2237,,50,0,5,5,53,1,FBP-PT-18.png,0.43,1.2,54,0.5,,,,,,,,,,,,,,,,,,,,,,,,,,,,,,,,,,,,,,,,,,,,,
,,,,,WIN24_027,20,F,2024-02-01_12h37.02.590,jersey_experiment_5,2023.2.2,Win32,84.74576271,,,,,,,,,,,,,,,,127.3043,128.5983,128.5983,132.5984,return,1.0352,,70.83333333,0,6,6,3,1,FBP-OG-71.png,0.43,1.2,4,0.5,,,,,,,,,,,,,,,,,,,,,,,,,,,,,,,,,,,,,,,,,,,,,
,,,,,WIN24_027,20,F,2024-02-01_12h37.02.590,jersey_experiment_5,2023.2.2,Win32,84.74576271,,,,,,,,,,,,,,,,132.5987,134.3984,134.3984,138.8457,return,1.6785,,65.625,0,7,7,22,1,FBP-RB-18.png,0.4,1.2,23,1,,,,,,,,,,,,,,,,,,,,,,,,,,,,,,,,,,,,,,,,,,,,,
,,,,,WIN24_027,20,F,2024-02-01_12h37.02.590,jersey_experiment_5,2023.2.2,Win32,84.74576271,,,,,,,,,,,,,,,,138.8458,140.1398,140.1399,146.2576,return,3.567,,70.3125,0,8,8,13,1,FBP-OG-91.png,0.43,1.2,14,0.5,,,,,,,,,,,,,,,,,,,,,,,,,,,,,,,,,,,,,,,,,,,,,
,,,,,WIN24_027,20,F,2024-02-01_12h37.02.590,jersey_experiment_5,2023.2.2,Win32,84.74576271,,,,,,,,,,,,,,,,146.2577,148.0577,148.0577,154.0345,return,1.2247,,51.953125,0,9,9,27,1,FBP-RB-19.png,0.4,1.2,28,1,,,,,,,,,,,,,,,,,,,,,,,,,,,,,,,,,,,,,,,,,,,,,
,,,,,WIN24_027,20,F,2024-02-01_12h37.02.590,jersey_experiment_5,2023.2.2,Win32,84.74576271,,,,,,,,,,,,,,,,154.0347,155.3286,155.3286,159.764,return,1.7426,,67.1875,0,10,10,59,1,FBP-PT-19.png,0.45,1.2,60,0.5,,,,,,,,,,,,,,,,,,,,,,,,,,,,,,,,,,,,,,,,,,,,,
,,,,,WIN24_027,20,F,2024-02-01_12h37.02.590,jersey_experiment_5,2023.2.2,Win32,84.74576271,,,,,,,,,,,,,,,,159.7642,161.5642,161.5642,166.2701,return,3.5251,,29.55729167,0,11,11,21,1,FBP-RB-18.png,0.37,1.2,22,1,,,,,,,,,,,,,,,,,,,,,,,,,,,,,,,,,,,,,,,,,,,,,
,,,,,WIN24_027,20,F,2024-02-01_12h37.02.590,jersey_experiment_5,2023.2.2,Win32,84.74576271,,,,,,,,,,,,,,,,166.2703,168.0703,168.0703,170.7056,return,0.8038,,50.13020833,0,12,12,37,1,FBP-YG-81.png,0.4,1.2,38,1,,,,,,,,,,,,,,,,,,,,,,,,,,,,,,,,,,,,,,,,,,,,,
,,,,,WIN24_027,20,F,2024-02-01_12h37.02.590,jersey_experiment_5,2023.2.2,Win32,84.74576271,,,,,,,,,,,,,,,,170.7057,171.9998,171.9998,175.5058,return,1.0255,,37.63020833,0,13,13,57,1,FBP-PT-19.png,0.4,1.2,58,0.5,,,,,,,,,,,,,,,,,,,,,,,,,,,,,,,,,,,,,,,,,,,,,
,,,,,WIN24_027,20,F,2024-02-01_12h37.02.590,jersey_experiment_5,2023.2.2,Win32,84.74576271,,,,,,,,,,,,,,,,175.506,177.3059,177.3059,181.4472,return,1.9436,,74.86979167,0,14,14,44,1,FBP-YG-91.png,0.45,1.2,45,1,,,,,,,,,,,,,,,,,,,,,,,,,,,,,,,,,,,,,,,,,,,,,
,,,,,WIN24_027,20,F,2024-02-01_12h37.02.590,jersey_experiment_5,2023.2.2,Win32,84.74576271,,,,,,,,,,,,,,,,181.4474,182.7413,182.7413,187.4473,return,2.767,,7.421875,0,15,15,50,1,FBP-PT-18.png,0.35,1.2,51,0.5,,,,,,,,,,,,,,,,,,,,,,,,,,,,,,,,,,,,,,,,,,,,,
,,,,,WIN24_027,20,F,2024-02-01_12h37.02.590,jersey_experiment_5,2023.2.2,Win32,84.74576271,,,,,,,,,,,,,,,,187.4476,188.7416,188.7416,191.7181,return,0.9178,,41.796875,0,16,16,9,1,FBP-OG-81.png,0.45,1.2,10,0.5,,,,,,,,,,,,,,,,,,,,,,,,,,,,,,,,,,,,,,,,,,,,,
,,,,,WIN24_027,20,F,2024-02-01_12h37.02.590,jersey_experiment_5,2023.2.2,Win32,84.74576271,,,,,,,,,,,,,,,,191.7183,193.5183,193.5183,197.9419,return,2.8134,,75.13020833,0,17,17,18,1,FBP-RB-17.png,0.43,1.2,19,1,,,,,,,,,,,,,,,,,,,,,,,,,,,,,,,,,,,,,,,,,,,,,
,,,,,WIN24_027,20,F,2024-02-01_12h37.02.590,jersey_experiment_5,2023.2.2,Win32,84.74576271,,,,,,,,,,,,,,,,197.9421,199.2361,199.2361,203.2363,return,0.766,,32.94270833,0,18,18,6,1,FBP-OG-81.png,0.37,1.2,7,0.5,,,,,,,,,,,,,,,,,,,,,,,,,,,,,,,,,,,,,,,,,,,,,
,,,,,WIN24_027,20,F,2024-02-01_12h37.02.590,jersey_experiment_5,2023.2.2,Win32,84.74576271,,,,,,,,,,,,,,,,203.2364,204.5304,204.5304,206.8481,return,0.7683,,75,0,19,19,14,1,FBP-OG-91.png,0.45,1.2,15,0.5,,,,,,,,,,,,,,,,,,,,,,,,,,,,,,,,,,,,,,,,,,,,,
,,,,,WIN24_027,20,F,2024-02-01_12h37.02.590,jersey_experiment_5,2023.2.2,Win32,84.74576271,,,,,,,,,,,,,,,,206.8485,208.6483,208.6483,212.766,return,2.0429,,29.16666667,0,20,20,40,1,FBP-YG-91.png,0.35,1.2,41,1,,,,,,,,,,,,,,,,,,,,,,,,,,,,,,,,,,,,,,,,,,,,,
,,,,,WIN24_027,20,F,2024-02-01_12h37.02.590,jersey_experiment_5,2023.2.2,Win32,84.74576271,,,,,,,,,,,,,,,,212.7662,214.0601,214.0602,218.0485,return,2.6037,,6.510416667,0,21,21,45,1,FBP-PT-17.png,0.35,1.2,46,0.5,,,,,,,,,,,,,,,,,,,,,,,,,,,,,,,,,,,,,,,,,,,,,
,,,,,WIN24_027,20,F,2024-02-01_12h37.02.590,jersey_experiment_5,2023.2.2,Win32,84.74576271,,,,,,,,,,,,,,,,218.0487,219.3426,219.3426,221.0957,return,0.777,,3.776041667,0,22,22,56,1,FBP-PT-19.png,0.37,1.2,57,0.5,,,,,,,,,,,,,,,,,,,,,,,,,,,,,,,,,,,,,,,,,,,,,
,,,,,WIN24_027,20,F,2024-02-01_12h37.02.590,jersey_experiment_5,2023.2.2,Win32,84.74576271,,,,,,,,,,,,,,,,221.0959,222.3898,222.3898,226.3664,return,2.1836,,36.71875,0,23,23,7,1,FBP-OG-81.png,0.4,1.2,8,0.5,,,,,,,,,,,,,,,,,,,,,,,,,,,,,,,,,,,,,,,,,,,,,
,,,,,WIN24_027,20,F,2024-02-01_12h37.02.590,jersey_experiment_5,2023.2.2,Win32,84.74576271,,,,,,,,,,,,,,,,226.3667,227.6606,227.6606,230.0959,return,0.7455,,50,0,24,24,2,1,FBP-OG-71.png,0.4,1.2,3,0.5,,,,,,,,,,,,,,,,,,,,,,,,,,,,,,,,,,,,,,,,,,,,,
,,,,,WIN24_027,20,F,2024-02-01_12h37.02.590,jersey_experiment_5,2023.2.2,Win32,84.74576271,,,,,,,,,,,,,,,,230.096,231.8961,231.8962,233.6844,return,0.7054,,74.73958333,0,25,25,28,1,FBP-RB-19.png,0.43,1.2,29,1,,,,,,,,,,,,,,,,,,,,,,,,,,,,,,,,,,,,,,,,,,,,,
,,,,,WIN24_027,20,F,2024-02-01_12h37.02.590,jersey_experiment_5,2023.2.2,Win32,84.74576271,,,,,,,,,,,,,,,,233.6846,234.9786,234.9786,237.6608,return,1.042,,50,0,26,26,11,1,FBP-OG-91.png,0.37,1.2,12,0.5,,,,,,,,,,,,,,,,,,,,,,,,,,,,,,,,,,,,,,,,,,,,,
,,,,,WIN24_027,20,F,2024-02-01_12h37.02.590,jersey_experiment_5,2023.2.2,Win32,84.74576271,,,,,,,,,,,,,,,,237.661,239.4611,239.4611,243.3789,return,2.0851,,87.36979167,0,27,27,24,1,FBP-RB-18.png,0.45,1.2,25,1,,,,,,,,,,,,,,,,,,,,,,,,,,,,,,,,,,,,,,,,,,,,,
,,,,,WIN24_027,20,F,2024-02-01_12h37.02.590,jersey_experiment_5,2023.2.2,Win32,84.74576271,,,,,,,,,,,,,,,,243.379,244.673,244.673,247.2379,return,0.9541,,0.260416667,0,28,28,55,1,FBP-PT-19.png,0.35,1.2,56,0.5,,,,,,,,,,,,,,,,,,,,,,,,,,,,,,,,,,,,,,,,,,,,,
,,,,,WIN24_027,20,F,2024-02-01_12h37.02.590,jersey_experiment_5,2023.2.2,Win32,84.74576271,,,,,,,,,,,,,,,,247.2381,248.5319,248.5319,251.1675,return,0.8517,,86.97916667,0,29,29,54,1,FBP-PT-18.png,0.45,1.2,55,0.5,,,,,,,,,,,,,,,,,,,,,,,,,,,,,,,,,,,,,,,,,,,,,
,,,,,WIN24_027,20,F,2024-02-01_12h37.02.590,jersey_experiment_5,2023.2.2,Win32,84.74576271,,,,,,,,,,,,,,,,251.1677,252.9674,252.9674,255.0263,return,0.6501,,24.86979167,0,30,30,16,1,FBP-RB-17.png,0.37,1.2,17,1,,,,,,,,,,,,,,,,,,,,,,,,,,,,,,,,,,,,,,,,,,,,,
,,,,,WIN24_027,20,F,2024-02-01_12h37.02.590,jersey_experiment_5,2023.2.2,Win32,84.74576271,,,,,,,,,,,,,,,,255.0265,256.8263,256.8264,259.7795,return,0.6126,,38.54166667,0,31,31,41,1,FBP-YG-91.png,0.37,1.2,42,1,,,,,,,,,,,,,,,,,,,,,,,,,,,,,,,,,,,,,,,,,,,,,
,,,,,WIN24_027,20,F,2024-02-01_12h37.02.590,jersey_experiment_5,2023.2.2,Win32,84.74576271,,,,,,,,,,,,,,,,259.7797,261.0737,261.0737,264.0972,return,1.275,,70.05208333,0,32,32,48,1,FBP-PT-17.png,0.43,1.2,49,0.5,,,,,,,,,,,,,,,,,,,,,,,,,,,,,,,,,,,,,,,,,,,,,
,,,,,WIN24_027,20,F,2024-02-01_12h37.02.590,jersey_experiment_5,2023.2.2,Win32,84.74576271,,,,,,,,,,,,,,,,264.0974,265.8975,265.8975,268.7681,return,0.8879,,0.130208333,0,33,33,20,1,FBP-RB-18.png,0.35,1.2,21,1,,,,,,,,,,,,,,,,,,,,,,,,,,,,,,,,,,,,,,,,,,,,,
,,,,,WIN24_027,20,F,2024-02-01_12h37.02.590,jersey_experiment_5,2023.2.2,Win32,84.74576271,,,,,,,,,,,,,,,,268.7684,270.568,270.568,272.7327,return,0.7251,,74.73958333,0,34,34,19,1,FBP-RB-17.png,0.45,1.2,20,1,,,,,,,,,,,,,,,,,,,,,,,,,,,,,,,,,,,,,,,,,,,,,
,,,,,WIN24_027,20,F,2024-02-01_12h37.02.590,jersey_experiment_5,2023.2.2,Win32,84.74576271,,,,,,,,,,,,,,,,272.7329,274.0269,274.0269,277.9331,return,1.9151,,49.73958333,0,35,35,12,1,FBP-OG-91.png,0.4,1.2,13,0.5,,,,,,,,,,,,,,,,,,,,,,,,,,,,,,,,,,,,,,,,,,,,,
,,,,,WIN24_027,20,F,2024-02-01_12h37.02.590,jersey_experiment_5,2023.2.2,Win32,84.74576271,,,,,,,,,,,,,,,,277.9333,279.7332,279.7332,282.7215,return,0.6845,,57.55208333,0,36,36,43,1,FBP-YG-91.png,0.43,1.2,44,1,,,,,,,,,,,,,,,,,,,,,,,,,,,,,,,,,,,,,,,,,,,,,
,,,,,WIN24_027,20,F,2024-02-01_12h37.02.590,jersey_experiment_5,2023.2.2,Win32,84.74576271,,,,,,,,,,,,,,,,282.7218,284.5216,284.5216,287.7451,return,1.604,,29.81770833,0,37,37,15,1,FBP-RB-17.png,0.35,1.2,16,1,,,,,,,,,,,,,,,,,,,,,,,,,,,,,,,,,,,,,,,,,,,,,
,,,,,WIN24_027,20,F,2024-02-01_12h37.02.590,jersey_experiment_5,2023.2.2,Win32,84.74576271,,,,,,,,,,,,,,,,287.7453,289.5453,289.5453,291.6865,return,0.8601,,6.640625,0,38,38,30,1,FBP-YG-71.png,0.35,1.2,31,1,,,,,,,,,,,,,,,,,,,,,,,,,,,,,,,,,,,,,,,,,,,,,
,,,,,WIN24_027,20,F,2024-02-01_12h37.02.590,jersey_experiment_5,2023.2.2,Win32,84.74576271,,,,,,,,,,,,,,,,291.6866,292.9807,292.9807,295.3337,return,0.8473,,80.20833333,0,39,39,58,1,FBP-PT-19.png,0.43,1.2,59,0.5,,,,,,,,,,,,,,,,,,,,,,,,,,,,,,,,,,,,,,,,,,,,,
,,,,,WIN24_027,20,F,2024-02-01_12h37.02.590,jersey_experiment_5,2023.2.2,Win32,84.74576271,,,,,,,,,,,,,,,,295.3339,296.6279,296.6279,298.7103,return,0.7298,,84.765625,0,40,40,8,1,FBP-OG-81.png,0.43,1.2,9,0.5,,,,,,,,,,,,,,,,,,,,,,,,,,,,,,,,,,,,,,,,,,,,,
,,,,,WIN24_027,20,F,2024-02-01_12h37.02.590,jersey_experiment_5,2023.2.2,Win32,84.74576271,,,,,,,,,,,,,,,,298.7105,300.5103,300.5103,302.3693,return,0.6852,,50,0,41,41,36,1,FBP-YG-81.png,0.37,1.2,37,1,,,,,,,,,,,,,,,,,,,,,,,,,,,,,,,,,,,,,,,,,,,,,
,,,,,WIN24_027,20,F,2024-02-01_12h37.02.590,jersey_experiment_5,2023.2.2,Win32,84.74576271,,,,,,,,,,,,,,,,302.3695,304.1693,304.1693,305.4399,return,0.5698,,41.27604167,0,42,42,26,1,FBP-RB-19.png,0.37,1.2,27,1,,,,,,,,,,,,,,,,,,,,,,,,,,,,,,,,,,,,,,,,,,,,,
,,,,,WIN24_027,20,F,2024-02-01_12h37.02.590,jersey_experiment_5,2023.2.2,Win32,84.74576271,,,,,,,,,,,,,,,,305.4401,306.7341,306.7341,308.5577,return,0.6171,,42.96875,0,43,43,51,1,FBP-PT-18.png,0.37,1.2,52,0.5,,,,,,,,,,,,,,,,,,,,,,,,,,,,,,,,,,,,,,,,,,,,,
,,,,,WIN24_027,20,F,2024-02-01_12h37.02.590,jersey_experiment_5,2023.2.2,Win32,84.74576271,,,,,,,,,,,,,,,,308.558,309.8519,309.8519,311.7931,return,0.885,,63.28125,0,44,44,52,1,FBP-PT-18.png,0.4,1.2,53,0.5,,,,,,,,,,,,,,,,,,,,,,,,,,,,,,,,,,,,,,,,,,,,,
,,,,,WIN24_027,20,F,2024-02-01_12h37.02.590,jersey_experiment_5,2023.2.2,Win32,84.74576271,,,,,,,,,,,,,,,,311.7932,313.5934,313.5934,315.9344,return,1.2402,,33.46354167,0,45,45,25,1,FBP-RB-19.png,0.35,1.2,26,1,,,,,,,,,,,,,,,,,,,,,,,,,,,,,,,,,,,,,,,,,,,,,
,,,,,WIN24_027,20,F,2024-02-01_12h37.02.590,jersey_experiment_5,2023.2.2,Win32,84.74576271,,,,,,,,,,,,,,,,315.9346,317.2285,317.2285,318.958,return,0.6308,,15.49479167,0,46,46,10,1,FBP-OG-91.png,0.35,1.2,11,0.5,,,,,,,,,,,,,,,,,,,,,,,,,,,,,,,,,,,,,,,,,,,,,
,,,,,WIN24_027,20,F,2024-02-01_12h37.02.590,jersey_experiment_5,2023.2.2,Win32,84.74576271,,,,,,,,,,,,,,,,318.9582,320.7581,320.7581,321.6876,return,0.5316,,15.625,0,47,47,35,1,FBP-YG-81.png,0.35,1.2,36,1,,,,,,,,,,,,,,,,,,,,,,,,,,,,,,,,,,,,,,,,,,,,,
,,,,,WIN24_027,20,F,2024-02-01_12h37.02.590,jersey_experiment_5,2023.2.2,Win32,84.74576271,,,,,,,,,,,,,,,,321.6878,322.9818,322.9818,324.276,return,0.5318,,7.552083333,0,48,48,0,1,FBP-OG-71.png,0.35,1.2,1,0.5,,,,,,,,,,,,,,,,,,,,,,,,,,,,,,,,,,,,,,,,,,,,,
,,,,,WIN24_027,20,F,2024-02-01_12h37.02.590,jersey_experiment_5,2023.2.2,Win32,84.74576271,,,,,,,,,,,,,,,,324.2761,326.076,326.076,327.8407,return,0.791,,83.203125,0,49,49,34,1,FBP-YG-71.png,0.45,1.2,35,1,,,,,,,,,,,,,,,,,,,,,,,,,,,,,,,,,,,,,,,,,,,,,
,,,,,WIN24_027,20,F,2024-02-01_12h37.02.590,jersey_experiment_5,2023.2.2,Win32,84.74576271,,,,,,,,,,,,,,,,327.8409,329.1348,329.1349,331.0056,return,0.6314,,50.26041667,0,50,50,46,1,FBP-PT-17.png,0.37,1.2,47,0.5,,,,,,,,,,,,,,,,,,,,,,,,,,,,,,,,,,,,,,,,,,,,,
,,,,,WIN24_027,20,F,2024-02-01_12h37.02.590,jersey_experiment_5,2023.2.2,Win32,84.74576271,,,,,,,,,,,,,,,,331.0059,332.8056,332.8056,334.5939,return,0.673,,91.796875,0,51,51,39,1,FBP-YG-81.png,0.45,1.2,40,1,,,,,,,,,,,,,,,,,,,,,,,,,,,,,,,,,,,,,,,,,,,,,
,,,,,WIN24_027,20,F,2024-02-01_12h37.02.590,jersey_experiment_5,2023.2.2,Win32,84.74576271,,,,,,,,,,,,,,,,334.594,336.394,336.394,337.5351,return,0.6286,,93.75,0,52,52,33,1,FBP-YG-71.png,0.43,1.2,34,1,,,,,,,,,,,,,,,,,,,,,,,,,,,,,,,,,,,,,,,,,,,,,
,,,,,WIN24_027,20,F,2024-02-01_12h37.02.590,jersey_experiment_5,2023.2.2,Win32,84.74576271,,,,,,,,,,,,,,,,337.5353,338.8292,338.8293,340.1588,return,0.5929,,93.75,0,53,53,4,1,FBP-OG-71.png,0.45,1.2,5,0.5,,,,,,,,,,,,,,,,,,,,,,,,,,,,,,,,,,,,,,,,,,,,,
,,,,,WIN24_027,20,F,2024-02-01_12h37.02.590,jersey_experiment_5,2023.2.2,Win32,84.74576271,,,,,,,,,,,,,,,,340.159,341.453,341.453,344.6296,return,2.0709,,55.859375,0,54,54,47,1,FBP-PT-17.png,0.4,1.2,48,0.5,,,,,,,,,,,,,,,,,,,,,,,,,,,,,,,,,,,,,,,,,,,,,
,,,,,WIN24_027,20,F,2024-02-01_12h37.02.590,jersey_experiment_5,2023.2.2,Win32,84.74576271,,,,,,,,,,,,,,,,344.6298,345.9238,345.9238,347.2296,return,0.4781,,75.13020833,0,55,55,49,1,FBP-PT-17.png,0.45,1.2,50,0.5,,,,,,,,,,,,,,,,,,,,,,,,,,,,,,,,,,,,,,,,,,,,,
,,,,,WIN24_027,20,F,2024-02-01_12h37.02.590,jersey_experiment_5,2023.2.2,Win32,84.74576271,,,,,,,,,,,,,,,,347.2299,348.5237,348.5238,350.0062,return,0.5177,,37.5,0,56,56,1,1,FBP-OG-71.png,0.37,1.2,2,0.5,,,,,,,,,,,,,,,,,,,,,,,,,,,,,,,,,,,,,,,,,,,,,
,,,,,WIN24_027,20,F,2024-02-01_12h37.02.590,jersey_experiment_5,2023.2.2,Win32,84.74576271,,,,,,,,,,,,,,,,350.0063,351.8063,351.8064,354.3711,return,1.4593,,52.08333333,0,57,57,17,1,FBP-RB-17.png,0.4,1.2,18,1,,,,,,,,,,,,,,,,,,,,,,,,,,,,,,,,,,,,,,,,,,,,,
,,,,,WIN24_027,20,F,2024-02-01_12h37.02.590,jersey_experiment_5,2023.2.2,Win32,84.74576271,,,,,,,,,,,,,,,,354.3714,355.6653,355.6654,358.1006,return,1.5863,,25.13020833,0,58,58,5,1,FBP-OG-81.png,0.35,1.2,6,0.5,,,,,,,,,,,,,,,,,,,,,,,,,,,,,,,,,,,,,,,,,,,,,
,,,,,WIN24_027,20,F,2024-02-01_12h37.02.590,jersey_experiment_5,2023.2.2,Win32,84.74576271,,,,,,,,,,,,,,,,358.1008,359.9008,359.9008,361.4418,return,0.9446,,32.55208333,0,59,59,32,1,FBP-YG-71.png,0.4,1.2,33,1,,,,,,,,,,,,,,,,,,,,,,,,,,,,,,,,,,,,,,,,,,,,,
,,,,,WIN24_027,20,F,2024-02-01_12h37.02.590,jersey_experiment_5,2023.2.2,Win32,84.74576271,,,,,,,,,,,,,,,,361.4439,363.2421,363.2421,366.1243,return,2.113,,70.05208333,,,,,,FBP-RB-91.png,0.45,1.2,30,1,0,0,0,29,1,,,,,,,,,,,,,,,,,,,,,,,,,,,,,,,,,,,,,,,,
,,,,,WIN24_027,20,F,2024-02-01_12h37.02.590,jersey_experiment_5,2023.2.2,Win32,84.74576271,,,,,,,,,,,,,,,,366.1247,367.4186,367.4186,369.3481,return,0.8354,,8.984375,,,,,,FBP-PT-71.png,0.35,1.2,46,0.5,0,1,1,45,1,,,,,,,,,,,,,,,,,,,,,,,,,,,,,,,,,,,,,,,,
,,,,,WIN24_027,20,F,2024-02-01_12h37.02.590,jersey_experiment_5,2023.2.2,Win32,84.74576271,,,,,,,,,,,,,,,,369.3483,371.1482,371.1482,375.6071,return,3.705,,37.890625,,,,,,FBP-YG-17.png,0.4,1.2,33,1,0,2,2,32,1,,,,,,,,,,,,,,,,,,,,,,,,,,,,,,,,,,,,,,,,
,,,,,WIN24_027,20,F,2024-02-01_12h37.02.590,jersey_experiment_5,2023.2.2,Win32,84.74576271,,,,,,,,,,,,,,,,375.6073,376.9012,376.9013,379.6662,return,1.6491,,3.125,,,,,,FBP-OG-18.png,0.35,1.2,6,0.5,0,3,3,5,1,,,,,,,,,,,,,,,,,,,,,,,,,,,,,,,,,,,,,,,,
,,,,,WIN24_027,20,F,2024-02-01_12h37.02.590,jersey_experiment_5,2023.2.2,Win32,84.74576271,,,,,,,,,,,,,,,,379.6664,381.4662,381.4662,387.7135,return,0.7215,,1.041666667,,,,,,FBP-RB-71.png,0.35,1.2,16,1,0,4,4,15,1,,,,,,,,,,,,,,,,,,,,,,,,,,,,,,,,,,,,,,,,
,,,,,WIN24_027,20,F,2024-02-01_12h37.02.590,jersey_experiment_5,2023.2.2,Win32,84.74576271,,,,,,,,,,,,,,,,387.7137,389.5135,389.5135,391.4078,return,1.1232,,95.83333333,,,,,,FBP-YG-19.png,0.45,1.2,45,1,0,5,5,44,1,,,,,,,,,,,,,,,,,,,,,,,,,,,,,,,,,,,,,,,,
,,,,,WIN24_027,20,F,2024-02-01_12h37.02.590,jersey_experiment_5,2023.2.2,Win32,84.74576271,,,,,,,,,,,,,,,,391.4081,393.2077,393.2077,394.8784,return,1.0049,,84.50520833,,,,,,FBP-RB-81.png,0.45,1.2,25,1,0,6,6,24,1,,,,,,,,,,,,,,,,,,,,,,,,,,,,,,,,,,,,,,,,
,,,,,WIN24_027,20,F,2024-02-01_12h37.02.590,jersey_experiment_5,2023.2.2,Win32,84.74576271,,,,,,,,,,,,,,,,394.8786,396.1725,396.1725,397.7256,return,0.6195,,79.03645833,,,,,,FBP-PT-81.png,0.43,1.2,54,0.5,0,7,7,53,1,,,,,,,,,,,,,,,,,,,,,,,,,,,,,,,,,,,,,,,,
,,,,,WIN24_027,20,F,2024-02-01_12h37.02.590,jersey_experiment_5,2023.2.2,Win32,84.74576271,,,,,,,,,,,,,,,,397.7258,399.5258,399.5258,401.1728,return,0.5644,,55.20833333,,,,,,FBP-YG-19.png,0.4,1.2,43,1,0,8,8,42,1,,,,,,,,,,,,,,,,,,,,,,,,,,,,,,,,,,,,,,,,
,,,,,WIN24_027,20,F,2024-02-01_12h37.02.590,jersey_experiment_5,2023.2.2,Win32,84.74576271,,,,,,,,,,,,,,,,401.173,402.9727,402.9727,404.9728,return,0.9495,,68.61979167,,,,,,FBP-YG-18.png,0.43,1.2,39,1,0,9,9,38,1,,,,,,,,,,,,,,,,,,,,,,,,,,,,,,,,,,,,,,,,
,,,,,WIN24_027,20,F,2024-02-01_12h37.02.590,jersey_experiment_5,2023.2.2,Win32,84.74576271,,,,,,,,,,,,,,,,404.9731,406.2671,406.2671,408.8202,return,0.5552,,49.86979167,,,,,,FBP-PT-91.png,0.4,1.2,58,0.5,0,10,10,57,1,,,,,,,,,,,,,,,,,,,,,,,,,,,,,,,,,,,,,,,,
,,,,,WIN24_027,20,F,2024-02-01_12h37.02.590,jersey_experiment_5,2023.2.2,Win32,84.74576271,,,,,,,,,,,,,,,,408.8204,410.6201,410.6201,412.2085,return,0.7224,,34.765625,,,,,,FBP-RB-71.png,0.37,1.2,17,1,0,11,11,16,1,,,,,,,,,,,,,,,,,,,,,,,,,,,,,,,,,,,,,,,,
,,,,,WIN24_027,20,F,2024-02-01_12h37.02.590,jersey_experiment_5,2023.2.2,Win32,84.74576271,,,,,,,,,,,,,,,,412.2088,413.5027,413.5027,415.138,return,0.6152,,70.3125,,,,,,FBP-PT-71.png,0.45,1.2,50,0.5,0,12,12,49,1,,,,,,,,,,,,,,,,,,,,,,,,,,,,,,,,,,,,,,,,
,,,,,WIN24_027,20,F,2024-02-01_12h37.02.590,jersey_experiment_5,2023.2.2,Win32,84.74576271,,,,,,,,,,,,,,,,415.1382,416.4321,416.4321,418.3264,return,0.5891,,56.640625,,,,,,FBP-PT-71.png,0.37,1.2,47,0.5,0,13,13,46,1,,,,,,,,,,,,,,,,,,,,,,,,,,,,,,,,,,,,,,,,
,,,,,WIN24_027,20,F,2024-02-01_12h37.02.590,jersey_experiment_5,2023.2.2,Win32,84.74576271,,,,,,,,,,,,,,,,418.3266,420.1264,420.1265,421.4795,return,0.6256,,26.82291667,,,,,,FBP-RB-91.png,0.37,1.2,27,1,0,14,14,26,1,,,,,,,,,,,,,,,,,,,,,,,,,,,,,,,,,,,,,,,,
,,,,,WIN24_027,20,F,2024-02-01_12h37.02.590,jersey_experiment_5,2023.2.2,Win32,84.74576271,,,,,,,,,,,,,,,,421.4796,422.7735,422.7736,425.809,return,1.8512,,81.77083333,,,,,,FBP-PT-81.png,0.45,1.2,55,0.5,0,15,15,54,1,,,,,,,,,,,,,,,,,,,,,,,,,,,,,,,,,,,,,,,,
,,,,,WIN24_027,20,F,2024-02-01_12h37.02.590,jersey_experiment_5,2023.2.2,Win32,84.74576271,,,,,,,,,,,,,,,,425.8093,427.6091,427.6091,429.2796,return,0.8399,,42.1875,,,,,,FBP-YG-18.png,0.37,1.2,37,1,0,16,16,36,1,,,,,,,,,,,,,,,,,,,,,,,,,,,,,,,,,,,,,,,,
,,,,,WIN24_027,20,F,2024-02-01_12h37.02.590,jersey_experiment_5,2023.2.2,Win32,84.74576271,,,,,,,,,,,,,,,,429.2799,430.5738,430.5738,434.0799,return,2.5338,,50.26041667,,,,,,FBP-PT-81.png,0.4,1.2,53,0.5,0,17,17,52,1,,,,,,,,,,,,,,,,,,,,,,,,,,,,,,,,,,,,,,,,
,,,,,WIN24_027,20,F,2024-02-01_12h37.02.590,jersey_experiment_5,2023.2.2,Win32,84.74576271,,,,,,,,,,,,,,,,434.0801,435.8801,435.8802,437.5036,return,0.593,,25.26041667,,,,,,FBP-YG-19.png,0.35,1.2,41,1,0,18,18,40,1,,,,,,,,,,,,,,,,,,,,,,,,,,,,,,,,,,,,,,,,
,,,,,WIN24_027,20,F,2024-02-01_12h37.02.590,jersey_experiment_5,2023.2.2,Win32,84.74576271,,,,,,,,,,,,,,,,437.5037,438.7977,438.7977,441.5271,return,1.4493,,74.86979167,,,,,,FBP-OG-18.png,0.45,1.2,10,0.5,0,19,19,9,1,,,,,,,,,,,,,,,,,,,,,,,,,,,,,,,,,,,,,,,,
,,,,,WIN24_027,20,F,2024-02-01_12h37.02.590,jersey_experiment_5,2023.2.2,Win32,84.74576271,,,,,,,,,,,,,,,,441.5272,443.3272,443.3273,445.3509,return,1.0923,,36.84895833,,,,,,FBP-YG-17.png,0.37,1.2,32,1,0,20,20,31,1,,,,,,,,,,,,,,,,,,,,,,,,,,,,,,,,,,,,,,,,
,,,,,WIN24_027,20,F,2024-02-01_12h37.02.590,jersey_experiment_5,2023.2.2,Win32,84.74576271,,,,,,,,,,,,,,,,445.351,446.645,446.645,448.645,return,0.5505,,49.86979167,,,,,,FBP-OG-19.png,0.4,1.2,13,0.5,0,21,21,12,1,,,,,,,,,,,,,,,,,,,,,,,,,,,,,,,,,,,,,,,,
,,,,,WIN24_027,20,F,2024-02-01_12h37.02.590,jersey_experiment_5,2023.2.2,Win32,84.74576271,,,,,,,,,,,,,,,,448.6451,450.4452,450.4452,452.6217,return,0.6666,,43.61979167,,,,,,FBP-RB-81.png,0.4,1.2,23,1,0,22,22,22,1,,,,,,,,,,,,,,,,,,,,,,,,,,,,,,,,,,,,,,,,
,,,,,WIN24_027,20,F,2024-02-01_12h37.02.590,jersey_experiment_5,2023.2.2,Win32,84.74576271,,,,,,,,,,,,,,,,452.6219,453.9158,453.9159,455.8572,return,0.604,,57.29166667,,,,,,FBP-OG-18.png,0.43,1.2,9,0.5,0,23,23,8,1,,,,,,,,,,,,,,,,,,,,,,,,,,,,,,,,,,,,,,,,
,,,,,WIN24_027,20,F,2024-02-01_12h37.02.590,jersey_experiment_5,2023.2.2,Win32,84.74576271,,,,,,,,,,,,,,,,455.8575,457.1513,457.1513,459.4454,return,0.7528,,57.68229167,,,,,,FBP-OG-17.png,0.43,1.2,4,0.5,0,24,24,3,1,,,,,,,,,,,,,,,,,,,,,,,,,,,,,,,,,,,,,,,,
,,,,,WIN24_027,20,F,2024-02-01_12h37.02.590,jersey_experiment_5,2023.2.2,Win32,84.74576271,,,,,,,,,,,,,,,,459.4457,461.2457,461.2458,462.5986,return,0.7058,,75,,,,,,FBP-RB-71.png,0.45,1.2,20,1,0,25,25,19,1,,,,,,,,,,,,,,,,,,,,,,,,,,,,,,,,,,,,,,,,
,,,,,WIN24_027,20,F,2024-02-01_12h37.02.590,jersey_experiment_5,2023.2.2,Win32,84.74576271,,,,,,,,,,,,,,,,462.5987,464.3988,464.3988,467.7165,return,2.6361,,27.99479167,,,,,,FBP-RB-91.png,0.35,1.2,26,1,0,26,26,25,1,,,,,,,,,,,,,,,,,,,,,,,,,,,,,,,,,,,,,,,,
,,,,,WIN24_027,20,F,2024-02-01_12h37.02.590,jersey_experiment_5,2023.2.2,Win32,84.74576271,,,,,,,,,,,,,,,,467.7166,469.5164,469.5164,470.8694,return,0.6592,,26.171875,,,,,,FBP-YG-19.png,0.37,1.2,42,1,0,27,27,41,1,,,,,,,,,,,,,,,,,,,,,,,,,,,,,,,,,,,,,,,,
,,,,,WIN24_027,20,F,2024-02-01_12h37.02.590,jersey_experiment_5,2023.2.2,Win32,84.74576271,,,,,,,,,,,,,,,,470.8696,472.6696,472.6696,474.7754,return,1.5201,,28.515625,,,,,,FBP-RB-81.png,0.37,1.2,22,1,0,28,28,21,1,,,,,,,,,,,,,,,,,,,,,,,,,,,,,,,,,,,,,,,,
,,,,,WIN24_027,20,F,2024-02-01_12h37.02.590,jersey_experiment_5,2023.2.2,Win32,84.74576271,,,,,,,,,,,,,,,,474.7757,476.5756,476.5756,478.152,return,0.74,,64.71354167,,,,,,FBP-RB-71.png,0.43,1.2,19,1,0,29,29,18,1,,,,,,,,,,,,,,,,,,,,,,,,,,,,,,,,,,,,,,,,
,,,,,WIN24_027,20,F,2024-02-01_12h37.02.590,jersey_experiment_5,2023.2.2,Win32,84.74576271,,,,,,,,,,,,,,,,478.1522,479.4461,479.4461,480.8934,return,0.6415,,71.484375,,,,,,FBP-PT-71.png,0.43,1.2,49,0.5,0,30,30,48,1,,,,,,,,,,,,,,,,,,,,,,,,,,,,,,,,,,,,,,,,
,,,,,WIN24_027,20,F,2024-02-01_12h37.02.590,jersey_experiment_5,2023.2.2,Win32,84.74576271,,,,,,,,,,,,,,,,480.8935,482.1875,482.1876,485.8935,return,2.2826,,39.453125,,,,,,FBP-PT-91.png,0.37,1.2,57,0.5,0,31,31,56,1,,,,,,,,,,,,,,,,,,,,,,,,,,,,,,,,,,,,,,,,
,,,,,WIN24_027,20,F,2024-02-01_12h37.02.590,jersey_experiment_5,2023.2.2,Win32,84.74576271,,,,,,,,,,,,,,,,485.8937,487.6938,487.6938,489.1172,return,0.6431,,75,,,,,,FBP-YG-19.png,0.43,1.2,44,1,0,32,32,43,1,,,,,,,,,,,,,,,,,,,,,,,,,,,,,,,,,,,,,,,,
,,,,,WIN24_027,20,F,2024-02-01_12h37.02.590,jersey_experiment_5,2023.2.2,Win32,84.74576271,,,,,,,,,,,,,,,,489.1173,490.9173,490.9174,492.3408,return,0.6694,,50,,,,,,FBP-YG-18.png,0.4,1.2,38,1,0,33,33,37,1,,,,,,,,,,,,,,,,,,,,,,,,,,,,,,,,,,,,,,,,
,,,,,WIN24_027,20,F,2024-02-01_12h37.02.590,jersey_experiment_5,2023.2.2,Win32,84.74576271,,,,,,,,,,,,,,,,492.341,493.6349,493.6349,495.1998,return,0.5917,,31.11979167,,,,,,FBP-PT-81.png,0.35,1.2,51,0.5,0,34,34,50,1,,,,,,,,,,,,,,,,,,,,,,,,,,,,,,,,,,,,,,,,
,,,,,WIN24_027,20,F,2024-02-01_12h37.02.590,jersey_experiment_5,2023.2.2,Win32,84.74576271,,,,,,,,,,,,,,,,495.2,496.4939,496.494,497.9528,return,0.6513,,19.921875,,,,,,FBP-OG-17.png,0.35,1.2,1,0.5,0,35,35,0,1,,,,,,,,,,,,,,,,,,,,,,,,,,,,,,,,,,,,,,,,
,,,,,WIN24_027,20,F,2024-02-01_12h37.02.590,jersey_experiment_5,2023.2.2,Win32,84.74576271,,,,,,,,,,,,,,,,497.9529,499.247,499.247,500.6588,return,0.6025,,49.86979167,,,,,,FBP-PT-71.png,0.4,1.2,48,0.5,0,36,36,47,1,,,,,,,,,,,,,,,,,,,,,,,,,,,,,,,,,,,,,,,,
,,,,,WIN24_027,20,F,2024-02-01_12h37.02.590,jersey_experiment_5,2023.2.2,Win32,84.74576271,,,,,,,,,,,,,,,,500.659,501.9529,501.9529,503.4941,return,0.5649,,25.390625,,,,,,FBP-OG-19.png,0.35,1.2,11,0.5,0,37,37,10,1,,,,,,,,,,,,,,,,,,,,,,,,,,,,,,,,,,,,,,,,
,,,,,WIN24_027,20,F,2024-02-01_12h37.02.590,jersey_experiment_5,2023.2.2,Win32,84.74576271,,,,,,,,,,,,,,,,503.4943,505.2943,505.2943,506.5296,return,0.5784,,80.72916667,,,,,,FBP-YG-17.png,0.43,1.2,34,1,0,38,38,33,1,,,,,,,,,,,,,,,,,,,,,,,,,,,,,,,,,,,,,,,,
,,,,,WIN24_027,20,F,2024-02-01_12h37.02.590,jersey_experiment_5,2023.2.2,Win32,84.74576271,,,,,,,,,,,,,,,,506.5298,507.8237,507.8237,509.2473,return,0.5927,,73.828125,,,,,,FBP-OG-17.png,0.4,1.2,3,0.5,0,39,39,2,1,,,,,,,,,,,,,,,,,,,,,,,,,,,,,,,,,,,,,,,,
,,,,,WIN24_027,20,F,2024-02-01_12h37.02.590,jersey_experiment_5,2023.2.2,Win32,84.74576271,,,,,,,,,,,,,,,,509.2475,510.5416,510.5416,512.0239,return,0.7287,,95.18229167,,,,,,FBP-OG-17.png,0.45,1.2,5,0.5,0,40,40,4,1,,,,,,,,,,,,,,,,,,,,,,,,,,,,,,,,,,,,,,,,
,,,,,WIN24_027,20,F,2024-02-01_12h37.02.590,jersey_experiment_5,2023.2.2,Win32,84.74576271,,,,,,,,,,,,,,,,512.024,513.318,513.318,514.9297,return,0.615,,99.34895833,,,,,,FBP-OG-19.png,0.45,1.2,15,0.5,0,41,41,14,1,,,,,,,,,,,,,,,,,,,,,,,,,,,,,,,,,,,,,,,,
,,,,,WIN24_027,20,F,2024-02-01_12h37.02.590,jersey_experiment_5,2023.2.2,Win32,84.74576271,,,,,,,,,,,,,,,,514.9298,516.2241,516.2242,517.4475,return,0.5884,,98.4375,,,,,,FBP-PT-91.png,0.45,1.2,60,0.5,0,42,42,59,1,,,,,,,,,,,,,,,,,,,,,,,,,,,,,,,,,,,,,,,,
,,,,,WIN24_027,20,F,2024-02-01_12h37.02.590,jersey_experiment_5,2023.2.2,Win32,84.74576271,,,,,,,,,,,,,,,,517.4477,519.2478,519.2478,520.6476,return,0.669,,59.765625,,,,,,FBP-RB-71.png,0.4,1.2,18,1,0,43,43,17,1,,,,,,,,,,,,,,,,,,,,,,,,,,,,,,,,,,,,,,,,
,,,,,WIN24_027,20,F,2024-02-01_12h37.02.590,jersey_experiment_5,2023.2.2,Win32,84.74576271,,,,,,,,,,,,,,,,520.6479,521.9418,521.9418,524.2126,return,1.3091,,67.05729167,,,,,,FBP-OG-18.png,0.4,1.2,8,0.5,0,44,44,7,1,,,,,,,,,,,,,,,,,,,,,,,,,,,,,,,,,,,,,,,,
,,,,,WIN24_027,20,F,2024-02-01_12h37.02.590,jersey_experiment_5,2023.2.2,Win32,84.74576271,,,,,,,,,,,,,,,,524.2128,525.5066,525.5066,527.1891,return,0.6119,,39.58333333,,,,,,FBP-PT-91.png,0.35,1.2,56,0.5,0,45,45,55,1,,,,,,,,,,,,,,,,,,,,,,,,,,,,,,,,,,,,,,,,
,,,,,WIN24_027,20,F,2024-02-01_12h37.02.590,jersey_experiment_5,2023.2.2,Win32,84.74576271,,,,,,,,,,,,,,,,527.1892,528.9893,528.9893,530.2129,return,0.5883,,98.046875,,,,,,FBP-YG-18.png,0.45,1.2,40,1,0,46,46,39,1,,,,,,,,,,,,,,,,,,,,,,,,,,,,,,,,,,,,,,,,
,,,,,WIN24_027,20,F,2024-02-01_12h37.02.590,jersey_experiment_5,2023.2.2,Win32,84.74576271,,,,,,,,,,,,,,,,530.213,531.507,531.507,534.26,return,1.2611,,38.93229167,,,,,,FBP-PT-81.png,0.37,1.2,52,0.5,0,47,47,51,1,,,,,,,,,,,,,,,,,,,,,,,,,,,,,,,,,,,,,,,,
,,,,,WIN24_027,20,F,2024-02-01_12h37.02.590,jersey_experiment_5,2023.2.2,Win32,84.74576271,,,,,,,,,,,,,,,,534.2602,535.5541,535.5542,537.213,return,0.5823,,28.38541667,,,,,,FBP-OG-17.png,0.37,1.2,2,0.5,0,48,48,1,1,,,,,,,,,,,,,,,,,,,,,,,,,,,,,,,,,,,,,,,,
,,,,,WIN24_027,20,F,2024-02-01_12h37.02.590,jersey_experiment_5,2023.2.2,Win32,84.74576271,,,,,,,,,,,,,,,,537.2132,539.0132,539.0132,540.0836,return,0.6133,,11.58854167,,,,,,FBP-YG-18.png,0.35,1.2,36,1,0,49,49,35,1,,,,,,,,,,,,,,,,,,,,,,,,,,,,,,,,,,,,,,,,
,,,,,WIN24_027,20,F,2024-02-01_12h37.02.590,jersey_experiment_5,2023.2.2,Win32,84.74576271,,,,,,,,,,,,,,,,540.0838,541.8841,541.8841,544.7897,return,1.8448,,74.86979167,,,,,,FBP-YG-17.png,0.45,1.2,35,1,0,50,50,34,1,,,,,,,,,,,,,,,,,,,,,,,,,,,,,,,,,,,,,,,,
,,,,,WIN24_027,20,F,2024-02-01_12h37.02.590,jersey_experiment_5,2023.2.2,Win32,84.74576271,,,,,,,,,,,,,,,,544.7899,546.0841,546.0841,548.6369,return,0.6881,,74.86979167,,,,,,FBP-PT-91.png,0.43,1.2,59,0.5,0,51,51,58,1,,,,,,,,,,,,,,,,,,,,,,,,,,,,,,,,,,,,,,,,
,,,,,WIN24_027,20,F,2024-02-01_12h37.02.590,jersey_experiment_5,2023.2.2,Win32,84.74576271,,,,,,,,,,,,,,,,548.6371,550.437,550.437,552.4841,return,0.7068,,74.73958333,,,,,,FBP-RB-91.png,0.43,1.2,29,1,0,52,52,28,1,,,,,,,,,,,,,,,,,,,,,,,,,,,,,,,,,,,,,,,,
,,,,,WIN24_027,20,F,2024-02-01_12h37.02.590,jersey_experiment_5,2023.2.2,Win32,84.74576271,,,,,,,,,,,,,,,,552.4842,554.2843,554.2844,557.1196,return,0.6746,,49.73958333,,,,,,FBP-YG-17.png,0.35,1.2,31,1,0,53,53,30,1,,,,,,,,,,,,,,,,,,,,,,,,,,,,,,,,,,,,,,,,
,,,,,WIN24_027,20,F,2024-02-01_12h37.02.590,jersey_experiment_5,2023.2.2,Win32,84.74576271,,,,,,,,,,,,,,,,557.1197,558.4137,558.4137,559.5902,return,0.5882,,49.73958333,,,,,,FBP-OG-19.png,0.37,1.2,12,0.5,0,54,54,11,1,,,,,,,,,,,,,,,,,,,,,,,,,,,,,,,,,,,,,,,,
,,,,,WIN24_027,20,F,2024-02-01_12h37.02.590,jersey_experiment_5,2023.2.2,Win32,84.74576271,,,,,,,,,,,,,,,,559.5904,561.3906,561.3906,563.4375,return,0.6783,,69.53125,,,,,,FBP-RB-91.png,0.4,1.2,28,1,0,55,55,27,1,,,,,,,,,,,,,,,,,,,,,,,,,,,,,,,,,,,,,,,,
,,,,,WIN24_027,20,F,2024-02-01_12h37.02.590,jersey_experiment_5,2023.2.2,Win32,84.74576271,,,,,,,,,,,,,,,,563.4377,565.2375,565.2375,567.0729,return,0.6024,,45.3125,,,,,,FBP-RB-81.png,0.35,1.2,21,1,0,56,56,20,1,,,,,,,,,,,,,,,,,,,,,,,,,,,,,,,,,,,,,,,,
,,,,,WIN24_027,20,F,2024-02-01_12h37.02.590,jersey_experiment_5,2023.2.2,Win32,84.74576271,,,,,,,,,,,,,,,,567.0732,568.8732,568.8732,570.273,return,0.6721,,81.38020833,,,,,,FBP-RB-81.png,0.43,1.2,24,1,0,57,57,23,1,,,,,,,,,,,,,,,,,,,,,,,,,,,,,,,,,,,,,,,,
,,,,,WIN24_027,20,F,2024-02-01_12h37.02.590,jersey_experiment_5,2023.2.2,Win32,84.74576271,,,,,,,,,,,,,,,,570.2732,571.5671,571.5671,573.2025,return,0.5898,,49.86979167,,,,,,FBP-OG-18.png,0.37,1.2,7,0.5,0,58,58,6,1,,,,,,,,,,,,,,,,,,,,,,,,,,,,,,,,,,,,,,,,
,,,,,WIN24_027,20,F,2024-02-01_12h37.02.590,jersey_experiment_5,2023.2.2,Win32,84.74576271,,,,,,,,,,,,,,,,573.2027,574.4969,574.4969,576.1909,return,0.6396,,73.17708333,,,,,,FBP-OG-19.png,0.43,1.2,14,0.5,0,59,59,13,1,,,,,,,,,,,,,,,,,,,,,,,,,,,,,,,,,,,,,,,,
,,,,,WIN24_027,20,F,2024-02-01_12h37.02.590,jersey_experiment_5,2023.2.2,Win32,84.74576271,,,,,,,,,,,,,,,,,,,,,,,,,,,,,,,,,,,,,,,576.1914,696.1956,,,,,,,,,,,,,,,,,,,,,,,,,,,,,,,,,,,,,,
,,,,,WIN24_027,20,F,2024-02-01_12h37.02.590,jersey_experiment_5,2023.2.2,Win32,84.74576271,,,,,,,,,,,,,,,,,,,,,,,,,,,,,,,,,,,,,,,,,696.1956,711.1255,return,14.9177,,,,,,,,,,,,,,,,,,,,,,,,,,,,,,,,,,
,,,,,WIN24_027,20,F,2024-02-01_12h37.02.590,jersey_experiment_5,2023.2.2,Win32,84.74576271,,,,,,,,,,,,,,,,711.1315,712.4313,712.4313,714.9135,return,1.2363,,50.13020833,,,,,,FBP-YG-71.png,0.37,1.2,32,0.5,,,,,,,,,,,,,0,0,0,31,1,,,,,,,,,,,,,,,,,,,,,,,,,,,,
,,,,,WIN24_027,20,F,2024-02-01_12h37.02.590,jersey_experiment_5,2023.2.2,Win32,84.74576271,,,,,,,,,,,,,,,,714.9137,716.2077,716.2078,720.2431,return,0.1545,,74.47916667,,,,,,FBP-RB-18.png,0.45,1.2,25,0.5,,,,,,,,,,,,,0,1,1,24,1,,,,,,,,,,,,,,,,,,,,,,,,,,,,
,,,,,WIN24_027,20,F,2024-02-01_12h37.02.590,jersey_experiment_5,2023.2.2,Win32,84.74576271,,,,,,,,,,,,,,,,720.2433,722.0433,722.0434,723.8315,return,0.6591,,36.45833333,,,,,,FBP-OG-71.png,0.37,1.2,2,1,,,,,,,,,,,,,0,2,2,1,1,,,,,,,,,,,,,,,,,,,,,,,,,,,,
,,,,,WIN24_027,20,F,2024-02-01_12h37.02.590,jersey_experiment_5,2023.2.2,Win32,84.74576271,,,,,,,,,,,,,,,,723.8317,725.6318,725.6318,726.9494,return,0.1881,,74.86979167,,,,,,FBP-PT-17.png,0.43,1.2,49,1,,,,,,,,,,,,,0,3,3,48,1,,,,,,,,,,,,,,,,,,,,,,,,,,,,
,,,,,WIN24_027,20,F,2024-02-01_12h37.02.590,jersey_experiment_5,2023.2.2,Win32,84.74576271,,,,,,,,,,,,,,,,726.9495,728.7493,728.7493,729.7965,return,0.1884,,74.609375,,,,,,FBP-PT-18.png,0.43,1.2,54,1,,,,,,,,,,,,,0,4,4,53,1,,,,,,,,,,,,,,,,,,,,,,,,,,,,
,,,,,WIN24_027,20,F,2024-02-01_12h37.02.590,jersey_experiment_5,2023.2.2,Win32,84.74576271,,,,,,,,,,,,,,,,729.7968,731.5966,731.5966,732.3261,return,0.1179,,87.890625,,,,,,FBP-OG-81.png,0.45,1.2,10,1,,,,,,,,,,,,,0,5,5,9,1,,,,,,,,,,,,,,,,,,,,,,,,,,,,
,,,,,WIN24_027,20,F,2024-02-01_12h37.02.590,jersey_experiment_5,2023.2.2,Win32,84.74576271,,,,,,,,,,,,,,,,732.3263,733.6202,733.6202,735.5498,return,0.1348,,46.35416667,,,,,,FBP-RB-18.png,0.37,1.2,22,0.5,,,,,,,,,,,,,0,6,6,21,1,,,,,,,,,,,,,,,,,,,,,,,,,,,,
,,,,,WIN24_027,20,F,2024-02-01_12h37.02.590,jersey_experiment_5,2023.2.2,Win32,84.74576271,,,,,,,,,,,,,,,,735.55,737.3497,737.3497,738.1732,return,0.067,,50,,,,,,FBP-PT-18.png,0.4,1.2,53,1,,,,,,,,,,,,,0,7,7,52,1,,,,,,,,,,,,,,,,,,,,,,,,,,,,
,,,,,WIN24_027,20,F,2024-02-01_12h37.02.590,jersey_experiment_5,2023.2.2,Win32,84.74576271,,,,,,,,,,,,,,,,738.1735,739.9734,739.9734,740.8559,return,0.1076,,24.609375,,,,,,FBP-PT-17.png,0.35,1.2,46,1,,,,,,,,,,,,,0,8,8,45,1,,,,,,,,,,,,,,,,,,,,,,,,,,,,
,,,,,WIN24_027,20,F,2024-02-01_12h37.02.590,jersey_experiment_5,2023.2.2,Win32,84.74576271,,,,,,,,,,,,,,,,740.8562,742.15,742.15,743.6559,return,0.0839,,83.203125,,,,,,FBP-YG-91.png,0.45,1.2,45,0.5,,,,,,,,,,,,,0,9,9,44,1,,,,,,,,,,,,,,,,,,,,,,,,,,,,
,,,,,WIN24_027,20,F,2024-02-01_12h37.02.590,jersey_experiment_5,2023.2.2,Win32,84.74576271,,,,,,,,,,,,,,,,743.656,745.4558,745.4558,746.3854,return,0.0624,,54.03645833,,,,,,FBP-OG-71.png,0.4,1.2,3,1,,,,,,,,,,,,,0,10,10,2,1,,,,,,,,,,,,,,,,,,,,,,,,,,,,
,,,,,WIN24_027,20,F,2024-02-01_12h37.02.590,jersey_experiment_5,2023.2.2,Win32,84.74576271,,,,,,,,,,,,,,,,746.3855,747.6795,747.6795,748.4325,return,0.0256,,49.86979167,,,,,,FBP-YG-81.png,0.37,1.2,37,0.5,,,,,,,,,,,,,0,11,11,36,1,,,,,,,,,,,,,,,,,,,,,,,,,,,,
,,,,,WIN24_027,20,F,2024-02-01_12h37.02.590,jersey_experiment_5,2023.2.2,Win32,84.74576271,,,,,,,,,,,,,,,,748.4327,749.7267,749.7267,751.1267,return,0.0575,,74.73958333,,,,,,FBP-YG-91.png,0.43,1.2,44,0.5,,,,,,,,,,,,,0,12,12,43,1,,,,,,,,,,,,,,,,,,,,,,,,,,,,
,,,,,WIN24_027,20,F,2024-02-01_12h37.02.590,jersey_experiment_5,2023.2.2,Win32,84.74576271,,,,,,,,,,,,,,,,751.1268,752.9267,752.9268,753.9266,return,0.0566,,24.73958333,,,,,,FBP-PT-18.png,0.35,1.2,51,1,,,,,,,,,,,,,0,13,13,50,1,,,,,,,,,,,,,,,,,,,,,,,,,,,,
,,,,,WIN24_027,20,F,2024-02-01_12h37.02.590,jersey_experiment_5,2023.2.2,Win32,84.74576271,,,,,,,,,,,,,,,,753.9269,755.221,755.221,756.421,return,0.057,,86.97916667,,,,,,FBP-YG-71.png,0.43,1.2,34,0.5,,,,,,,,,,,,,0,14,14,33,1,,,,,,,,,,,,,,,,,,,,,,,,,,,,
,,,,,WIN24_027,20,F,2024-02-01_12h37.02.590,jersey_experiment_5,2023.2.2,Win32,84.74576271,,,,,,,,,,,,,,,,756.4212,757.7151,757.7151,758.927,return,0.0177,,50,,,,,,FBP-RB-17.png,0.37,1.2,17,0.5,,,,,,,,,,,,,0,15,15,16,1,,,,,,,,,,,,,,,,,,,,,,,,,,,,
,,,,,WIN24_027,20,F,2024-02-01_12h37.02.590,jersey_experiment_5,2023.2.2,Win32,84.74576271,,,,,,,,,,,,,,,,758.9273,760.7271,760.7271,761.5506,return,0.0863,,75.390625,,,,,,FBP-OG-81.png,0.43,1.2,9,1,,,,,,,,,,,,,0,16,16,8,1,,,,,,,,,,,,,,,,,,,,,,,,,,,,
,,,,,WIN24_027,20,F,2024-02-01_12h37.02.590,jersey_experiment_5,2023.2.2,Win32,84.74576271,,,,,,,,,,,,,,,,761.5507,762.8449,762.8449,764.0801,return,0.0504,,98.046875,,,,,,FBP-YG-81.png,0.45,1.2,40,0.5,,,,,,,,,,,,,0,17,17,39,1,,,,,,,,,,,,,,,,,,,,,,,,,,,,
,,,,,WIN24_027,20,F,2024-02-01_12h37.02.590,jersey_experiment_5,2023.2.2,Win32,84.74576271,,,,,,,,,,,,,,,,764.0804,765.3743,765.3743,766.4683,return,0.0573,,64.84375,,,,,,FBP-YG-91.png,0.4,1.2,43,0.5,,,,,,,,,,,,,0,18,18,42,1,,,,,,,,,,,,,,,,,,,,,,,,,,,,
,,,,,WIN24_027,20,F,2024-02-01_12h37.02.590,jersey_experiment_5,2023.2.2,Win32,84.74576271,,,,,,,,,,,,,,,,766.4685,767.7627,767.7627,768.7038,return,0.0396,,79.16666667,,,,,,FBP-RB-19.png,0.43,1.2,29,0.5,,,,,,,,,,,,,0,19,19,28,1,,,,,,,,,,,,,,,,,,,,,,,,,,,,
,,,,,WIN24_027,20,F,2024-02-01_12h37.02.590,jersey_experiment_5,2023.2.2,Win32,84.74576271,,,,,,,,,,,,,,,,768.7039,770.5039,770.5039,771.0686,return,0.0781,,65.75520833,,,,,,FBP-OG-91.png,0.4,1.2,13,1,,,,,,,,,,,,,0,20,20,12,1,,,,,,,,,,,,,,,,,,,,,,,,,,,,
,,,,,WIN24_027,20,F,2024-02-01_12h37.02.590,jersey_experiment_5,2023.2.2,Win32,84.74576271,,,,,,,,,,,,,,,,771.0687,772.8686,772.8686,773.5393,return,0.0847,,75,,,,,,FBP-PT-19.png,0.43,1.2,59,1,,,,,,,,,,,,,0,21,21,58,1,,,,,,,,,,,,,,,,,,,,,,,,,,,,
,,,,,WIN24_027,20,F,2024-02-01_12h37.02.590,jersey_experiment_5,2023.2.2,Win32,84.74576271,,,,,,,,,,,,,,,,773.5395,774.8334,774.8334,775.9511,return,0.0765,,24.47916667,,,,,,FBP-YG-81.png,0.35,1.2,36,0.5,,,,,,,,,,,,,0,22,22,35,1,,,,,,,,,,,,,,,,,,,,,,,,,,,,
,,,,,WIN24_027,20,F,2024-02-01_12h37.02.590,jersey_experiment_5,2023.2.2,Win32,84.74576271,,,,,,,,,,,,,,,,775.9513,777.7513,777.7513,778.9747,return,0.0278,,89.0625,,,,,,FBP-OG-71.png,0.45,1.2,5,1,,,,,,,,,,,,,0,23,23,4,1,,,,,,,,,,,,,,,,,,,,,,,,,,,,
,,,,,WIN24_027,20,F,2024-02-01_12h37.02.590,jersey_experiment_5,2023.2.2,Win32,84.74576271,,,,,,,,,,,,,,,,778.9748,780.2691,780.2692,781.375,return,0.2161,,99.08854167,,,,,,FBP-RB-19.png,0.45,1.2,30,0.5,,,,,,,,,,,,,0,24,24,29,1,,,,,,,,,,,,,,,,,,,,,,,,,,,,
,,,,,WIN24_027,20,F,2024-02-01_12h37.02.590,jersey_experiment_5,2023.2.2,Win32,84.74576271,,,,,,,,,,,,,,,,781.3753,783.1749,783.1749,784.7044,return,0.0135,,37.23958333,,,,,,FBP-PT-18.png,0.37,1.2,52,1,,,,,,,,,,,,,0,25,25,51,1,,,,,,,,,,,,,,,,,,,,,,,,,,,,
,,,,,WIN24_027,20,F,2024-02-01_12h37.02.590,jersey_experiment_5,2023.2.2,Win32,84.74576271,,,,,,,,,,,,,,,,784.7046,786.5046,786.5046,787.116,return,0.0443,,48.828125,,,,,,FBP-OG-81.png,0.4,1.2,8,1,,,,,,,,,,,,,0,26,26,7,1,,,,,,,,,,,,,,,,,,,,,,,,,,,,
,,,,,WIN24_027,20,F,2024-02-01_12h37.02.590,jersey_experiment_5,2023.2.2,Win32,84.74576271,,,,,,,,,,,,,,,,787.1162,788.9162,788.9163,789.4224,return,0.0658,,10.15625,,,,,,FBP-OG-81.png,0.35,1.2,6,1,,,,,,,,,,,,,0,27,27,5,1,,,,,,,,,,,,,,,,,,,,,,,,,,,,
,,,,,WIN24_027,20,F,2024-02-01_12h37.02.590,jersey_experiment_5,2023.2.2,Win32,84.74576271,,,,,,,,,,,,,,,,789.4226,790.7164,790.7165,791.6458,return,0.0168,,99.21875,,,,,,FBP-YG-71.png,0.45,1.2,35,0.5,,,,,,,,,,,,,0,28,28,34,1,,,,,,,,,,,,,,,,,,,,,,,,,,,,
,,,,,WIN24_027,20,F,2024-02-01_12h37.02.590,jersey_experiment_5,2023.2.2,Win32,84.74576271,,,,,,,,,,,,,,,,791.646,792.9399,792.9399,794.0457,return,0.007,,55.078125,,,,,,FBP-YG-91.png,0.37,1.2,42,0.5,,,,,,,,,,,,,0,29,29,41,1,,,,,,,,,,,,,,,,,,,,,,,,,,,,
,,,,,WIN24_027,20,F,2024-02-01_12h37.02.590,jersey_experiment_5,2023.2.2,Win32,84.74576271,,,,,,,,,,,,,,,,794.0459,795.34,795.34,796.2696,return,0.0426,,27.734375,,,,,,FBP-RB-19.png,0.35,1.2,26,0.5,,,,,,,,,,,,,0,30,30,25,1,,,,,,,,,,,,,,,,,,,,,,,,,,,,
,,,,,WIN24_027,20,F,2024-02-01_12h37.02.590,jersey_experiment_5,2023.2.2,Win32,84.74576271,,,,,,,,,,,,,,,,796.2698,797.5637,797.5637,798.4813,return,0.0013,,54.42708333,,,,,,FBP-YG-81.png,0.4,1.2,38,0.5,,,,,,,,,,,,,0,31,31,37,1,,,,,,,,,,,,,,,,,,,,,,,,,,,,
,,,,,WIN24_027,20,F,2024-02-01_12h37.02.590,jersey_experiment_5,2023.2.2,Win32,84.74576271,,,,,,,,,,,,,,,,798.4816,799.7756,799.7756,800.7403,return,0.0374,,50.78125,,,,,,FBP-RB-19.png,0.4,1.2,28,0.5,,,,,,,,,,,,,0,32,32,27,1,,,,,,,,,,,,,,,,,,,,,,,,,,,,
,,,,,WIN24_027,20,F,2024-02-01_12h37.02.590,jersey_experiment_5,2023.2.2,Win32,84.74576271,,,,,,,,,,,,,,,,800.7405,802.5403,802.5403,803.105,return,0.0037,,74.86979167,,,,,,FBP-OG-91.png,0.43,1.2,14,1,,,,,,,,,,,,,0,33,33,13,1,,,,,,,,,,,,,,,,,,,,,,,,,,,,
,,,,,WIN24_027,20,F,2024-02-01_12h37.02.590,jersey_experiment_5,2023.2.2,Win32,84.74576271,,,,,,,,,,,,,,,,803.1052,804.9052,804.9052,805.5757,return,0.0943,,94.01041667,,,,,,FBP-PT-18.png,0.45,1.2,55,1,,,,,,,,,,,,,0,34,34,54,1,,,,,,,,,,,,,,,,,,,,,,,,,,,,
,,,,,WIN24_027,20,F,2024-02-01_12h37.02.590,jersey_experiment_5,2023.2.2,Win32,84.74576271,,,,,,,,,,,,,,,,805.5758,806.8698,806.8698,808.2229,return,0.0993,,71.484375,,,,,,FBP-RB-17.png,0.4,1.2,18,0.5,,,,,,,,,,,,,0,35,35,17,1,,,,,,,,,,,,,,,,,,,,,,,,,,,,
,,,,,WIN24_027,20,F,2024-02-01_12h37.02.590,jersey_experiment_5,2023.2.2,Win32,84.74576271,,,,,,,,,,,,,,,,808.2231,809.5173,809.5173,810.3643,return,0.0308,,39.32291667,,,,,,FBP-YG-71.png,0.35,1.2,31,0.5,,,,,,,,,,,,,0,36,36,30,1,,,,,,,,,,,,,,,,,,,,,,,,,,,,
,,,,,WIN24_027,20,F,2024-02-01_12h37.02.590,jersey_experiment_5,2023.2.2,Win32,84.74576271,,,,,,,,,,,,,,,,810.3646,812.1641,812.1641,813.9172,return,0.0195,,36.06770833,,,,,,FBP-PT-17.png,0.37,1.2,47,1,,,,,,,,,,,,,0,37,37,46,1,,,,,,,,,,,,,,,,,,,,,,,,,,,,
,,,,,WIN24_027,20,F,2024-02-01_12h37.02.590,jersey_experiment_5,2023.2.2,Win32,84.74576271,,,,,,,,,,,,,,,,813.9175,815.7172,815.7173,816.3173,return,0.0432,,28.64583333,,,,,,FBP-OG-81.png,0.37,1.2,7,1,,,,,,,,,,,,,0,38,38,6,1,,,,,,,,,,,,,,,,,,,,,,,,,,,,
,,,,,WIN24_027,20,F,2024-02-01_12h37.02.590,jersey_experiment_5,2023.2.2,Win32,84.74576271,,,,,,,,,,,,,,,,816.3176,818.1173,818.1173,818.835,return,0.0004,,81.90104167,,,,,,FBP-OG-91.png,0.45,1.2,15,1,,,,,,,,,,,,,0,39,39,14,1,,,,,,,,,,,,,,,,,,,,,,,,,,,,
,,,,,WIN24_027,20,F,2024-02-01_12h37.02.590,jersey_experiment_5,2023.2.2,Win32,84.74576271,,,,,,,,,,,,,,,,818.8352,820.1292,820.1292,822.7881,return,1.1308,,25.13020833,,,,,,FBP-YG-91.png,0.35,1.2,41,0.5,,,,,,,,,,,,,0,40,40,40,1,,,,,,,,,,,,,,,,,,,,,,,,,,,,
,,,,,WIN24_027,20,F,2024-02-01_12h37.02.590,jersey_experiment_5,2023.2.2,Win32,84.74576271,,,,,,,,,,,,,,,,822.7884,824.0823,824.0823,825.0587,return,0.0598,,23.4375,,,,,,FBP-RB-18.png,0.35,1.2,21,0.5,,,,,,,,,,,,,0,41,41,20,1,,,,,,,,,,,,,,,,,,,,,,,,,,,,
,,,,,WIN24_027,20,F,2024-02-01_12h37.02.590,jersey_experiment_5,2023.2.2,Win32,84.74576271,,,,,,,,,,,,,,,,825.0589,826.353,826.353,827.3297,return,0.0482,,74.08854167,,,,,,FBP-RB-17.png,0.45,1.2,20,0.5,,,,,,,,,,,,,0,42,42,19,1,,,,,,,,,,,,,,,,,,,,,,,,,,,,
,,,,,WIN24_027,20,F,2024-02-01_12h37.02.590,jersey_experiment_5,2023.2.2,Win32,84.74576271,,,,,,,,,,,,,,,,827.3299,829.1296,829.1296,829.8236,return,0.0642,,27.08333333,,,,,,FBP-OG-91.png,0.35,1.2,11,1,,,,,,,,,,,,,0,43,43,10,1,,,,,,,,,,,,,,,,,,,,,,,,,,,,
,,,,,WIN24_027,20,F,2024-02-01_12h37.02.590,jersey_experiment_5,2023.2.2,Win32,84.74576271,,,,,,,,,,,,,,,,829.8238,831.6238,831.6238,832.2238,return,0.051,,80.859375,,,,,,FBP-PT-19.png,0.45,1.2,60,1,,,,,,,,,,,,,0,44,44,59,1,,,,,,,,,,,,,,,,,,,,,,,,,,,,
,,,,,WIN24_027,20,F,2024-02-01_12h37.02.590,jersey_experiment_5,2023.2.2,Win32,84.74576271,,,,,,,,,,,,,,,,832.224,833.5181,833.5181,834.8826,return,0.3058,,83.46354167,,,,,,FBP-RB-18.png,0.43,1.2,24,0.5,,,,,,,,,,,,,0,45,45,23,1,,,,,,,,,,,,,,,,,,,,,,,,,,,,
,,,,,WIN24_027,20,F,2024-02-01_12h37.02.590,jersey_experiment_5,2023.2.2,Win32,84.74576271,,,,,,,,,,,,,,,,834.8829,836.6826,836.6827,837.6003,return,0.0281,,76.171875,,,,,,FBP-PT-19.png,0.4,1.2,58,1,,,,,,,,,,,,,0,46,46,57,1,,,,,,,,,,,,,,,,,,,,,,,,,,,,
,,,,,WIN24_027,20,F,2024-02-01_12h37.02.590,jersey_experiment_5,2023.2.2,Win32,84.74576271,,,,,,,,,,,,,,,,837.6006,838.8946,838.8946,839.671,return,0.0109,,74.609375,,,,,,FBP-RB-18.png,0.4,1.2,23,0.5,,,,,,,,,,,,,0,47,47,22,1,,,,,,,,,,,,,,,,,,,,,,,,,,,,
,,,,,WIN24_027,20,F,2024-02-01_12h37.02.590,jersey_experiment_5,2023.2.2,Win32,84.74576271,,,,,,,,,,,,,,,,839.6712,841.4713,841.4713,841.9888,return,0.0144,,94.01041667,,,,,,FBP-PT-17.png,0.45,1.2,50,1,,,,,,,,,,,,,0,48,48,49,1,,,,,,,,,,,,,,,,,,,,,,,,,,,,
,,,,,WIN24_027,20,F,2024-02-01_12h37.02.590,jersey_experiment_5,2023.2.2,Win32,84.74576271,,,,,,,,,,,,,,,,841.989,843.7889,843.789,844.2712,return,0.0281,,93.09895833,,,,,,FBP-OG-71.png,0.43,1.2,4,1,,,,,,,,,,,,,0,49,49,3,1,,,,,,,,,,,,,,,,,,,,,,,,,,,,
,,,,,WIN24_027,20,F,2024-02-01_12h37.02.590,jersey_experiment_5,2023.2.2,Win32,84.74576271,,,,,,,,,,,,,,,,844.2714,846.0712,846.0712,846.8124,return,0.0437,,37.63020833,,,,,,FBP-PT-19.png,0.37,1.2,57,1,,,,,,,,,,,,,0,50,50,56,1,,,,,,,,,,,,,,,,,,,,,,,,,,,,
,,,,,WIN24_027,20,F,2024-02-01_12h37.02.590,jersey_experiment_5,2023.2.2,Win32,84.74576271,,,,,,,,,,,,,,,,846.8126,848.1067,848.1067,849.3186,return,0.471,,14.453125,,,,,,FBP-RB-17.png,0.35,1.2,16,0.5,,,,,,,,,,,,,0,51,51,15,1,,,,,,,,,,,,,,,,,,,,,,,,,,,,
,,,,,WIN24_027,20,F,2024-02-01_12h37.02.590,jersey_experiment_5,2023.2.2,Win32,84.74576271,,,,,,,,,,,,,,,,849.3189,850.6126,850.6126,852.3539,return,0.0123,,16.14583333,,,,,,FBP-RB-19.png,0.37,1.2,27,0.5,,,,,,,,,,,,,0,52,52,26,1,,,,,,,,,,,,,,,,,,,,,,,,,,,,
,,,,,WIN24_027,20,F,2024-02-01_12h37.02.590,jersey_experiment_5,2023.2.2,Win32,84.74576271,,,,,,,,,,,,,,,,852.354,854.1541,854.1541,855.1069,return,0.1295,,50.65104167,,,,,,FBP-PT-17.png,0.4,1.2,48,1,,,,,,,,,,,,,0,53,53,47,1,,,,,,,,,,,,,,,,,,,,,,,,,,,,
,,,,,WIN24_027,20,F,2024-02-01_12h37.02.590,jersey_experiment_5,2023.2.2,Win32,84.74576271,,,,,,,,,,,,,,,,855.107,856.9072,856.9072,857.5542,return,0.0734,,5.078125,,,,,,FBP-OG-71.png,0.35,1.2,1,1,,,,,,,,,,,,,0,54,54,0,1,,,,,,,,,,,,,,,,,,,,,,,,,,,,
,,,,,WIN24_027,20,F,2024-02-01_12h37.02.590,jersey_experiment_5,2023.2.2,Win32,84.74576271,,,,,,,,,,,,,,,,857.5544,858.8482,858.8482,860.6719,return,0.2288,,50,,,,,,FBP-YG-71.png,0.4,1.2,33,0.5,,,,,,,,,,,,,0,55,55,32,1,,,,,,,,,,,,,,,,,,,,,,,,,,,,
,,,,,WIN24_027,20,F,2024-02-01_12h37.02.590,jersey_experiment_5,2023.2.2,Win32,84.74576271,,,,,,,,,,,,,,,,860.6721,862.4719,862.4719,863.5661,return,0.028,,32.29166667,,,,,,FBP-OG-91.png,0.37,1.2,12,1,,,,,,,,,,,,,0,56,56,11,1,,,,,,,,,,,,,,,,,,,,,,,,,,,,
,,,,,WIN24_027,20,F,2024-02-01_12h37.02.590,jersey_experiment_5,2023.2.2,Win32,84.74576271,,,,,,,,,,,,,,,,863.5664,864.8602,864.8602,865.7309,return,0.0491,,75.52083333,,,,,,FBP-YG-81.png,0.43,1.2,39,0.5,,,,,,,,,,,,,0,57,57,38,1,,,,,,,,,,,,,,,,,,,,,,,,,,,,
,,,,,WIN24_027,20,F,2024-02-01_12h37.02.590,jersey_experiment_5,2023.2.2,Win32,84.74576271,,,,,,,,,,,,,,,,865.7312,867.531,867.531,868.225,return,0.072,,24.08854167,,,,,,FBP-PT-19.png,0.35,1.2,56,1,,,,,,,,,,,,,0,58,58,55,1,,,,,,,,,,,,,,,,,,,,,,,,,,,,
,,,,,WIN24_027,20,F,2024-02-01_12h37.02.590,jersey_experiment_5,2023.2.2,Win32,84.74576271,,,,,,,,,,,,,,,,868.2252,869.5193,869.5193,870.9899,return,0.5106,,73.828125,,,,,,FBP-RB-17.png,0.43,1.2,19,0.5,,,,,,,,,,,,,0,59,59,18,1,,,,,,,,,,,,,,,,,,,,,,,,,,,,
,,,,,WIN24_027,20,F,2024-02-01_12h37.02.590,jersey_experiment_5,2023.2.2,Win32,84.74576271,,,,,,,,,,,,,,,,870.9918,872.79,872.79,874.543,return,1.0047,,57.03125,,,,,,FBP-PT-81.png,0.4,1.2,53,1,,,,,,,,,,,,,,,,,,0,0,0,52,1,,,,,,,,,,,,,,,,,,,,,,,
,,,,,WIN24_027,20,F,2024-02-01_12h37.02.590,jersey_experiment_5,2023.2.2,Win32,84.74576271,,,,,,,,,,,,,,,,874.5433,876.343,876.3431,877.084,return,0.0557,,75.52083333,,,,,,FBP-PT-71.png,0.45,1.2,50,1,,,,,,,,,,,,,,,,,,0,1,1,49,1,,,,,,,,,,,,,,,,,,,,,,,
,,,,,WIN24_027,20,F,2024-02-01_12h37.02.590,jersey_experiment_5,2023.2.2,Win32,84.74576271,,,,,,,,,,,,,,,,877.0842,878.3784,878.3784,879.3195,return,0.0708,,93.88020833,,,,,,FBP-RB-71.png,0.45,1.2,20,0.5,,,,,,,,,,,,,,,,,,0,2,2,19,1,,,,,,,,,,,,,,,,,,,,,,,
,,,,,WIN24_027,20,F,2024-02-01_12h37.02.590,jersey_experiment_5,2023.2.2,Win32,84.74576271,,,,,,,,,,,,,,,,879.3197,881.1198,881.1199,881.8842,return,0.1262,,66.015625,,,,,,FBP-OG-17.png,0.4,1.2,3,1,,,,,,,,,,,,,,,,,,0,3,3,2,1,,,,,,,,,,,,,,,,,,,,,,,
,,,,,WIN24_027,20,F,2024-02-01_12h37.02.590,jersey_experiment_5,2023.2.2,Win32,84.74576271,,,,,,,,,,,,,,,,881.8845,883.1784,883.1784,884.1666,return,0.047,,40.10416667,,,,,,FBP-YG-19.png,0.35,1.2,41,0.5,,,,,,,,,,,,,,,,,,0,4,4,40,1,,,,,,,,,,,,,,,,,,,,,,,
,,,,,WIN24_027,20,F,2024-02-01_12h37.02.590,jersey_experiment_5,2023.2.2,Win32,84.74576271,,,,,,,,,,,,,,,,884.1669,885.461,885.461,886.3198,return,0.0503,,70.96354167,,,,,,FBP-YG-19.png,0.43,1.2,44,0.5,,,,,,,,,,,,,,,,,,0,5,5,43,1,,,,,,,,,,,,,,,,,,,,,,,
,,,,,WIN24_027,20,F,2024-02-01_12h37.02.590,jersey_experiment_5,2023.2.2,Win32,84.74576271,,,,,,,,,,,,,,,,886.3201,888.1198,888.1198,888.5318,return,0.0139,,68.359375,,,,,,FBP-OG-18.png,0.43,1.2,9,1,,,,,,,,,,,,,,,,,,0,6,6,8,1,,,,,,,,,,,,,,,,,,,,,,,
,,,,,WIN24_027,20,F,2024-02-01_12h37.02.590,jersey_experiment_5,2023.2.2,Win32,84.74576271,,,,,,,,,,,,,,,,888.5318,890.3317,890.3317,891.1082,return,0.0335,,78.25520833,,,,,,FBP-OG-17.png,0.45,1.2,5,1,,,,,,,,,,,,,,,,,,0,7,7,4,1,,,,,,,,,,,,,,,,,,,,,,,
,,,,,WIN24_027,20,F,2024-02-01_12h37.02.590,jersey_experiment_5,2023.2.2,Win32,84.74576271,,,,,,,,,,,,,,,,891.1084,892.9084,892.9084,893.5438,return,0.0241,,31.51041667,,,,,,FBP-OG-19.png,0.37,1.2,12,1,,,,,,,,,,,,,,,,,,0,8,8,11,1,,,,,,,,,,,,,,,,,,,,,,,
,,,,,WIN24_027,20,F,2024-02-01_12h37.02.590,jersey_experiment_5,2023.2.2,Win32,84.74576271,,,,,,,,,,,,,,,,893.544,894.8378,894.8378,895.685,return,0.061,,12.36979167,,,,,,FBP-RB-71.png,0.37,1.2,17,0.5,,,,,,,,,,,,,,,,,,0,9,9,16,1,,,,,,,,,,,,,,,,,,,,,,,
,,,,,WIN24_027,20,F,2024-02-01_12h37.02.590,jersey_experiment_5,2023.2.2,Win32,84.74576271,,,,,,,,,,,,,,,,895.6851,897.4849,897.485,898.5438,return,0.463,,9.765625,,,,,,FBP-OG-18.png,0.37,1.2,7,1,,,,,,,,,,,,,,,,,,0,10,10,6,1,,,,,,,,,,,,,,,,,,,,,,,
,,,,,WIN24_027,20,F,2024-02-01_12h37.02.590,jersey_experiment_5,2023.2.2,Win32,84.74576271,,,,,,,,,,,,,,,,898.5439,899.8379,899.8379,901.2969,return,0.8146,,21.22395833,,,,,,FBP-RB-81.png,0.37,1.2,22,0.5,,,,,,,,,,,,,,,,,,0,11,11,21,1,,,,,,,,,,,,,,,,,,,,,,,
,,,,,WIN24_027,20,F,2024-02-01_12h37.02.590,jersey_experiment_5,2023.2.2,Win32,84.74576271,,,,,,,,,,,,,,,,901.2969,903.0971,903.0972,904.3911,return,0.4609,,2.473958333,,,,,,FBP-OG-18.png,0.35,1.2,6,1,,,,,,,,,,,,,,,,,,0,12,12,5,1,,,,,,,,,,,,,,,,,,,,,,,
,,,,,WIN24_027,20,F,2024-02-01_12h37.02.590,jersey_experiment_5,2023.2.2,Win32,84.74576271,,,,,,,,,,,,,,,,904.3914,906.1913,906.1913,906.803,return,0.0256,,67.05729167,,,,,,FBP-OG-19.png,0.43,1.2,14,1,,,,,,,,,,,,,,,,,,0,13,13,13,1,,,,,,,,,,,,,,,,,,,,,,,
,,,,,WIN24_027,20,F,2024-02-01_12h37.02.590,jersey_experiment_5,2023.2.2,Win32,84.74576271,,,,,,,,,,,,,,,,906.8032,908.097,908.097,908.9325,return,0.0237,,65.75520833,,,,,,FBP-RB-71.png,0.4,1.2,18,0.5,,,,,,,,,,,,,,,,,,0,14,14,17,1,,,,,,,,,,,,,,,,,,,,,,,
,,,,,WIN24_027,20,F,2024-02-01_12h37.02.590,jersey_experiment_5,2023.2.2,Win32,84.74576271,,,,,,,,,,,,,,,,908.9327,910.7325,910.7325,911.9324,return,0.5261,,47.78645833,,,,,,FBP-PT-71.png,0.37,1.2,47,1,,,,,,,,,,,,,,,,,,0,15,15,46,1,,,,,,,,,,,,,,,,,,,,,,,
,,,,,WIN24_027,20,F,2024-02-01_12h37.02.590,jersey_experiment_5,2023.2.2,Win32,84.74576271,,,,,,,,,,,,,,,,911.9326,913.2266,913.2267,914.062,return,0.0287,,82.421875,,,,,,FBP-YG-18.png,0.45,1.2,40,0.5,,,,,,,,,,,,,,,,,,0,16,16,39,1,,,,,,,,,,,,,,,,,,,,,,,
,,,,,WIN24_027,20,F,2024-02-01_12h37.02.590,jersey_experiment_5,2023.2.2,Win32,84.74576271,,,,,,,,,,,,,,,,914.0623,915.3563,915.3563,916.2856,return,0.1485,,60.28645833,,,,,,FBP-RB-91.png,0.37,1.2,27,0.5,,,,,,,,,,,,,,,,,,0,17,17,26,1,,,,,,,,,,,,,,,,,,,,,,,
,,,,,WIN24_027,20,F,2024-02-01_12h37.02.590,jersey_experiment_5,2023.2.2,Win32,84.74576271,,,,,,,,,,,,,,,,916.2858,918.0857,918.0857,918.8503,return,0.0497,,51.171875,,,,,,FBP-OG-18.png,0.4,1.2,8,1,,,,,,,,,,,,,,,,,,0,18,18,7,1,,,,,,,,,,,,,,,,,,,,,,,
,,,,,WIN24_027,20,F,2024-02-01_12h37.02.590,jersey_experiment_5,2023.2.2,Win32,84.74576271,,,,,,,,,,,,,,,,918.8507,920.6505,920.6506,921.2387,return,0.0703,,44.40104167,,,,,,FBP-OG-17.png,0.37,1.2,2,1,,,,,,,,,,,,,,,,,,0,19,19,1,1,,,,,,,,,,,,,,,,,,,,,,,
,,,,,WIN24_027,20,F,2024-02-01_12h37.02.590,jersey_experiment_5,2023.2.2,Win32,84.74576271,,,,,,,,,,,,,,,,921.2389,923.0387,923.0387,923.6624,return,0.0419,,42.31770833,,,,,,FBP-PT-91.png,0.37,1.2,57,1,,,,,,,,,,,,,,,,,,0,20,20,56,1,,,,,,,,,,,,,,,,,,,,,,,
,,,,,WIN24_027,20,F,2024-02-01_12h37.02.590,jersey_experiment_5,2023.2.2,Win32,84.74576271,,,,,,,,,,,,,,,,923.6625,924.9565,924.9565,925.7919,return,0.0287,,50.26041667,,,,,,FBP-RB-91.png,0.4,1.2,28,0.5,,,,,,,,,,,,,,,,,,0,21,21,27,1,,,,,,,,,,,,,,,,,,,,,,,
,,,,,WIN24_027,20,F,2024-02-01_12h37.02.590,jersey_experiment_5,2023.2.2,Win32,84.74576271,,,,,,,,,,,,,,,,925.792,927.5919,927.5919,928.086,return,0.0368,,74.34895833,,,,,,FBP-OG-18.png,0.45,1.2,10,1,,,,,,,,,,,,,,,,,,0,22,22,9,1,,,,,,,,,,,,,,,,,,,,,,,
,,,,,WIN24_027,20,F,2024-02-01_12h37.02.590,jersey_experiment_5,2023.2.2,Win32,84.74576271,,,,,,,,,,,,,,,,928.0862,929.886,929.886,930.4627,return,0.0418,,94.27083333,,,,,,FBP-PT-81.png,0.45,1.2,55,1,,,,,,,,,,,,,,,,,,0,23,23,54,1,,,,,,,,,,,,,,,,,,,,,,,
,,,,,WIN24_027,20,F,2024-02-01_12h37.02.590,jersey_experiment_5,2023.2.2,Win32,84.74576271,,,,,,,,,,,,,,,,930.4629,931.7566,931.7566,932.5451,return,0.098,,73.69791667,,,,,,FBP-YG-18.png,0.4,1.2,38,0.5,,,,,,,,,,,,,,,,,,0,24,24,37,1,,,,,,,,,,,,,,,,,,,,,,,
,,,,,WIN24_027,20,F,2024-02-01_12h37.02.590,jersey_experiment_5,2023.2.2,Win32,84.74576271,,,,,,,,,,,,,,,,932.5453,934.3452,934.3452,936.2277,return,0.5074,,24.86979167,,,,,,FBP-PT-91.png,0.35,1.2,56,1,,,,,,,,,,,,,,,,,,0,25,25,55,1,,,,,,,,,,,,,,,,,,,,,,,
,,,,,WIN24_027,20,F,2024-02-01_12h37.02.590,jersey_experiment_5,2023.2.2,Win32,84.74576271,,,,,,,,,,,,,,,,936.2279,938.0275,938.0275,938.9101,return,0.1934,,50.78125,,,,,,FBP-PT-91.png,0.4,1.2,58,1,,,,,,,,,,,,,,,,,,0,26,26,57,1,,,,,,,,,,,,,,,,,,,,,,,
,,,,,WIN24_027,20,F,2024-02-01_12h37.02.590,jersey_experiment_5,2023.2.2,Win32,84.74576271,,,,,,,,,,,,,,,,938.9104,940.2042,940.2042,941.7339,return,0.5889,,30.078125,,,,,,FBP-RB-71.png,0.35,1.2,16,0.5,,,,,,,,,,,,,,,,,,0,27,27,15,1,,,,,,,,,,,,,,,,,,,,,,,
,,,,,WIN24_027,20,F,2024-02-01_12h37.02.590,jersey_experiment_5,2023.2.2,Win32,84.74576271,,,,,,,,,,,,,,,,941.7341,943.0278,943.0278,944.4867,return,0.0608,,74.47916667,,,,,,FBP-RB-81.png,0.4,1.2,23,0.5,,,,,,,,,,,,,,,,,,0,28,28,22,1,,,,,,,,,,,,,,,,,,,,,,,
,,,,,WIN24_027,20,F,2024-02-01_12h37.02.590,jersey_experiment_5,2023.2.2,Win32,84.74576271,,,,,,,,,,,,,,,,944.4868,946.2867,946.2867,947.3457,return,0.4738,,5.46875,,,,,,FBP-OG-19.png,0.35,1.2,11,1,,,,,,,,,,,,,,,,,,0,29,29,10,1,,,,,,,,,,,,,,,,,,,,,,,
,,,,,WIN24_027,20,F,2024-02-01_12h37.02.590,jersey_experiment_5,2023.2.2,Win32,84.74576271,,,,,,,,,,,,,,,,947.3459,948.6399,948.6399,949.875,return,0.1081,,74.47916667,,,,,,FBP-YG-17.png,0.43,1.2,34,0.5,,,,,,,,,,,,,,,,,,0,30,30,33,1,,,,,,,,,,,,,,,,,,,,,,,
,,,,,WIN24_027,20,F,2024-02-01_12h37.02.590,jersey_experiment_5,2023.2.2,Win32,84.74576271,,,,,,,,,,,,,,,,949.8754,951.1692,951.1692,953.2987,return,0.5197,,40.88541667,,,,,,FBP-YG-18.png,0.37,1.2,37,0.5,,,,,,,,,,,,,,,,,,0,31,31,36,1,,,,,,,,,,,,,,,,,,,,,,,
,,,,,WIN24_027,20,F,2024-02-01_12h37.02.590,jersey_experiment_5,2023.2.2,Win32,84.74576271,,,,,,,,,,,,,,,,953.299,954.5929,954.5929,955.699,return,0.0726,,63.41145833,,,,,,FBP-YG-17.png,0.4,1.2,33,0.5,,,,,,,,,,,,,,,,,,0,32,32,32,1,,,,,,,,,,,,,,,,,,,,,,,
,,,,,WIN24_027,20,F,2024-02-01_12h37.02.590,jersey_experiment_5,2023.2.2,Win32,84.74576271,,,,,,,,,,,,,,,,955.6992,957.499,957.499,958.7697,return,0.5326,,28.77604167,,,,,,FBP-PT-81.png,0.35,1.2,51,1,,,,,,,,,,,,,,,,,,0,33,33,50,1,,,,,,,,,,,,,,,,,,,,,,,
,,,,,WIN24_027,20,F,2024-02-01_12h37.02.590,jersey_experiment_5,2023.2.2,Win32,84.74576271,,,,,,,,,,,,,,,,958.7699,960.5696,960.5697,962.6401,return,1.4964,,51.171875,,,,,,FBP-OG-19.png,0.4,1.2,13,1,,,,,,,,,,,,,,,,,,0,34,34,12,1,,,,,,,,,,,,,,,,,,,,,,,
,,,,,WIN24_027,20,F,2024-02-01_12h37.02.590,jersey_experiment_5,2023.2.2,Win32,84.74576271,,,,,,,,,,,,,,,,962.6404,963.9345,963.9345,965.3347,return,0.5783,,20.703125,,,,,,FBP-YG-18.png,0.35,1.2,36,0.5,,,,,,,,,,,,,,,,,,0,35,35,35,1,,,,,,,,,,,,,,,,,,,,,,,
,,,,,WIN24_027,20,F,2024-02-01_12h37.02.590,jersey_experiment_5,2023.2.2,Win32,84.74576271,,,,,,,,,,,,,,,,965.3349,967.1346,967.1346,967.8521,return,0.044,,77.99479167,,,,,,FBP-OG-19.png,0.45,1.2,15,1,,,,,,,,,,,,,,,,,,0,36,36,14,1,,,,,,,,,,,,,,,,,,,,,,,
,,,,,WIN24_027,20,F,2024-02-01_12h37.02.590,jersey_experiment_5,2023.2.2,Win32,84.74576271,,,,,,,,,,,,,,,,967.8522,969.1464,969.1464,970.4523,return,0.1284,,34.89583333,,,,,,FBP-YG-19.png,0.37,1.2,42,0.5,,,,,,,,,,,,,,,,,,0,37,37,41,1,,,,,,,,,,,,,,,,,,,,,,,
,,,,,WIN24_027,20,F,2024-02-01_12h37.02.590,jersey_experiment_5,2023.2.2,Win32,84.74576271,,,,,,,,,,,,,,,,970.4526,971.7464,971.7464,972.8996,return,0.1664,,5.078125,,,,,,FBP-YG-17.png,0.35,1.2,31,0.5,,,,,,,,,,,,,,,,,,0,38,38,30,1,,,,,,,,,,,,,,,,,,,,,,,
,,,,,WIN24_027,20,F,2024-02-01_12h37.02.590,jersey_experiment_5,2023.2.2,Win32,84.74576271,,,,,,,,,,,,,,,,972.8999,974.6995,974.6995,975.3583,return,0.0989,,66.53645833,,,,,,FBP-OG-17.png,0.43,1.2,4,1,,,,,,,,,,,,,,,,,,0,39,39,3,1,,,,,,,,,,,,,,,,,,,,,,,
,,,,,WIN24_027,20,F,2024-02-01_12h37.02.590,jersey_experiment_5,2023.2.2,Win32,84.74576271,,,,,,,,,,,,,,,,975.3585,976.6527,976.6527,977.4057,return,0.1235,,77.734375,,,,,,FBP-RB-91.png,0.43,1.2,29,0.5,,,,,,,,,,,,,,,,,,0,40,40,28,1,,,,,,,,,,,,,,,,,,,,,,,
,,,,,WIN24_027,20,F,2024-02-01_12h37.02.590,jersey_experiment_5,2023.2.2,Win32,84.74576271,,,,,,,,,,,,,,,,977.4059,978.6997,978.6997,979.8525,return,0.0667,,45.05208333,,,,,,FBP-YG-17.png,0.37,1.2,32,0.5,,,,,,,,,,,,,,,,,,0,41,41,31,1,,,,,,,,,,,,,,,,,,,,,,,
,,,,,WIN24_027,20,F,2024-02-01_12h37.02.590,jersey_experiment_5,2023.2.2,Win32,84.74576271,,,,,,,,,,,,,,,,979.8528,981.1469,981.1469,982.4762,return,0.0192,,74.86979167,,,,,,FBP-YG-17.png,0.45,1.2,35,0.5,,,,,,,,,,,,,,,,,,0,42,42,34,1,,,,,,,,,,,,,,,,,,,,,,,
,,,,,WIN24_027,20,F,2024-02-01_12h37.02.590,jersey_experiment_5,2023.2.2,Win32,84.74576271,,,,,,,,,,,,,,,,982.4763,984.2764,984.2764,984.8648,return,0.0258,,22.265625,,,,,,FBP-PT-71.png,0.35,1.2,46,1,,,,,,,,,,,,,,,,,,0,43,43,45,1,,,,,,,,,,,,,,,,,,,,,,,
,,,,,WIN24_027,20,F,2024-02-01_12h37.02.590,jersey_experiment_5,2023.2.2,Win32,84.74576271,,,,,,,,,,,,,,,,984.865,986.159,986.159,986.8763,return,0.0554,,69.140625,,,,,,FBP-YG-18.png,0.43,1.2,39,0.5,,,,,,,,,,,,,,,,,,0,44,44,38,1,,,,,,,,,,,,,,,,,,,,,,,
,,,,,WIN24_027,20,F,2024-02-01_12h37.02.590,jersey_experiment_5,2023.2.2,Win32,84.74576271,,,,,,,,,,,,,,,,986.8764,988.1706,988.1707,989.0767,return,0.0722,,81.38020833,,,,,,FBP-RB-71.png,0.43,1.2,19,0.5,,,,,,,,,,,,,,,,,,0,45,45,18,1,,,,,,,,,,,,,,,,,,,,,,,
,,,,,WIN24_027,20,F,2024-02-01_12h37.02.590,jersey_experiment_5,2023.2.2,Win32,84.74576271,,,,,,,,,,,,,,,,989.0769,990.8766,990.8766,991.5355,return,0.0764,,92.578125,,,,,,FBP-PT-91.png,0.45,1.2,60,1,,,,,,,,,,,,,,,,,,0,46,46,59,1,,,,,,,,,,,,,,,,,,,,,,,
,,,,,WIN24_027,20,F,2024-02-01_12h37.02.590,jersey_experiment_5,2023.2.2,Win32,84.74576271,,,,,,,,,,,,,,,,991.5357,993.3357,993.3357,994.1474,return,0.0818,,19.79166667,,,,,,FBP-OG-17.png,0.35,1.2,1,1,,,,,,,,,,,,,,,,,,0,47,47,0,1,,,,,,,,,,,,,,,,,,,,,,,
,,,,,WIN24_027,20,F,2024-02-01_12h37.02.590,jersey_experiment_5,2023.2.2,Win32,84.74576271,,,,,,,,,,,,,,,,994.1476,995.4413,995.4413,996.5826,return,0.0138,,23.95833333,,,,,,FBP-RB-91.png,0.35,1.2,26,0.5,,,,,,,,,,,,,,,,,,0,48,48,25,1,,,,,,,,,,,,,,,,,,,,,,,
,,,,,WIN24_027,20,F,2024-02-01_12h37.02.590,jersey_experiment_5,2023.2.2,Win32,84.74576271,,,,,,,,,,,,,,,,996.5829,998.3828,998.3828,999.4888,return,0.0985,,75,,,,,,FBP-PT-81.png,0.43,1.2,54,1,,,,,,,,,,,,,,,,,,0,49,49,53,1,,,,,,,,,,,,,,,,,,,,,,,
,,,,,WIN24_027,20,F,2024-02-01_12h37.02.590,jersey_experiment_5,2023.2.2,Win32,84.74576271,,,,,,,,,,,,,,,,999.4888,1000.7829,1000.783,1002.2534,return,0.0663,,82.29166667,,,,,,FBP-RB-91.png,0.45,1.2,30,0.5,,,,,,,,,,,,,,,,,,0,50,50,29,1,,,,,,,,,,,,,,,,,,,,,,,
,,,,,WIN24_027,20,F,2024-02-01_12h37.02.590,jersey_experiment_5,2023.2.2,Win32,84.74576271,,,,,,,,,,,,,,,,1002.2537,1004.0535,1004.0535,1004.7005,return,0.0906,,73.046875,,,,,,FBP-PT-91.png,0.43,1.2,59,1,,,,,,,,,,,,,,,,,,0,51,51,58,1,,,,,,,,,,,,,,,,,,,,,,,
,,,,,WIN24_027,20,F,2024-02-01_12h37.02.590,jersey_experiment_5,2023.2.2,Win32,84.74576271,,,,,,,,,,,,,,,,1004.7008,1005.9948,1005.9948,1007.2183,return,0.0143,,42.578125,,,,,,FBP-RB-81.png,0.35,1.2,21,0.5,,,,,,,,,,,,,,,,,,0,52,52,20,1,,,,,,,,,,,,,,,,,,,,,,,
,,,,,WIN24_027,20,F,2024-02-01_12h37.02.590,jersey_experiment_5,2023.2.2,Win32,84.74576271,,,,,,,,,,,,,,,,1007.2186,1009.0183,1009.0184,1009.7596,return,0.0276,,50.13020833,,,,,,FBP-PT-71.png,0.4,1.2,48,1,,,,,,,,,,,,,,,,,,0,53,53,47,1,,,,,,,,,,,,,,,,,,,,,,,
,,,,,WIN24_027,20,F,2024-02-01_12h37.02.590,jersey_experiment_5,2023.2.2,Win32,84.74576271,,,,,,,,,,,,,,,,1009.7598,1011.0538,1011.0538,1012.2538,return,0.0188,,74.47916667,,,,,,FBP-RB-81.png,0.43,1.2,24,0.5,,,,,,,,,,,,,,,,,,0,54,54,23,1,,,,,,,,,,,,,,,,,,,,,,,
,,,,,WIN24_027,20,F,2024-02-01_12h37.02.590,jersey_experiment_5,2023.2.2,Win32,84.74576271,,,,,,,,,,,,,,,,1012.2541,1013.548,1013.548,1014.5244,return,0.1123,,86.71875,,,,,,FBP-YG-19.png,0.45,1.2,45,0.5,,,,,,,,,,,,,,,,,,0,55,55,44,1,,,,,,,,,,,,,,,,,,,,,,,
,,,,,WIN24_027,20,F,2024-02-01_12h37.02.590,jersey_experiment_5,2023.2.2,Win32,84.74576271,,,,,,,,,,,,,,,,1014.5246,1015.8186,1015.8186,1016.7833,return,0.1103,,75.65104167,,,,,,FBP-RB-81.png,0.45,1.2,25,0.5,,,,,,,,,,,,,,,,,,0,56,56,24,1,,,,,,,,,,,,,,,,,,,,,,,
,,,,,WIN24_027,20,F,2024-02-01_12h37.02.590,jersey_experiment_5,2023.2.2,Win32,84.74576271,,,,,,,,,,,,,,,,1016.7836,1018.5835,1018.5835,1019.4542,return,0.0286,,46.61458333,,,,,,FBP-PT-81.png,0.37,1.2,52,1,,,,,,,,,,,,,,,,,,0,57,57,51,1,,,,,,,,,,,,,,,,,,,,,,,
,,,,,WIN24_027,20,F,2024-02-01_12h37.02.590,jersey_experiment_5,2023.2.2,Win32,84.74576271,,,,,,,,,,,,,,,,1019.4544,1020.7481,1020.7482,1021.5248,return,0.0604,,50.390625,,,,,,FBP-YG-19.png,0.4,1.2,43,0.5,,,,,,,,,,,,,,,,,,0,58,58,42,1,,,,,,,,,,,,,,,,,,,,,,,
,,,,,WIN24_027,20,F,2024-02-01_12h37.02.590,jersey_experiment_5,2023.2.2,Win32,84.74576271,,,,,,,,,,,,,,,,1021.5251,1023.3249,1023.3249,1024.2071,return,0.0645,,74.73958333,,,,,,FBP-PT-71.png,0.43,1.2,49,1,,,,,,,,,,,,,,,,,,0,59,59,48,1,,,,,,,,,,,,,,,,,,,,,,,
,,,,,WIN24_027,20,F,2024-02-01_12h37.02.590,jersey_experiment_5,2023.2.2,Win32,84.74576271,,,,,,,,,,,,,,,,,,,,,,,,,,,,,,,,,,,,,,,,,,,,,,,,,,,,,,,,1024.2075,1031.2196,return,7.0027,,,,,,,,,,,,,,,,,,,
,,,,,WIN24_027,20,F,2024-02-01_12h37.02.590,jersey_experiment_5,2023.2.2,Win32,84.74576271,,,,,,,,,,,,,,,,,,,,,,,,,,,,,,,,,,,,,,,,,,,,,,,,,,,,,,,,,,,,,1031.2196,1039.3725,1,6.4277,return,1.7112,,,,,,,,,,,,
,,,,,WIN24_027,20,F,2024-02-01_12h37.02.590,jersey_experiment_5,2023.2.2,Win32,84.74576271,,,,,,,,,,,,,,,,,,,,,,,,,,,,,,,,,,,,,,,,,,,,,,,,,,,,,,,,,,,,,,,,,,,,1039.3726,1142.3576,Skin color and/or clothing color's effect on perception of size. I noticed that the same couple of football players were displayed at random (though different sizes),right,95.619,,,,,,
,,,,,WIN24_027,20,F,2024-02-01_12h37.02.590,jersey_experiment_5,2023.2.2,Win32,84.74576271,,,,,,,,,,,,,,,,,,,,,,,,,,,,,,,,,,,,,,,,,,,,,,,,,,,,,,,,,,,,,,,,,,,,,,,,,,1142.3577,1145.8588,return,3.491,