requirements.started,requirements.stopped,key_resp_3.keys,key_resp_3.rt,key_resp_3.duration,Subject ID,Age,Gender,date,expName,psychopyVersion,OS,frameRate,instructions1.started,instructions1.stopped,key_resp.keys,key_resp.rt,key_resp.duration,example.started,example.stopped,enter_2.keys,enter_2.rt,enter_2.duration,instructions2.started,instructions2.stopped,enter_3.keys,enter_3.rt,enter_3.duration,image.started,image.stopped,slider_2.started,slider_2.stopped,next.keys,next.rt,next.duration,slider.response,trial_block_1.thisRepN,trial_block_1.thisTrialN,trial_block_1.thisN,trial_block_1.thisIndex,trial_block_1.ran,Path,Width,Height,Index,Duration,trial_block_2.thisRepN,trial_block_2.thisTrialN,trial_block_2.thisN,trial_block_2.thisIndex,trial_block_2.ran,rest_break.started,rest_break.stopped,end_break.started,end_break.stopped,key_resp_5.keys,key_resp_5.rt,key_resp_5.duration,trial_block_3.thisRepN,trial_block_3.thisTrialN,trial_block_3.thisN,trial_block_3.thisIndex,trial_block_3.ran,trial_block_4.thisRepN,trial_block_4.thisTrialN,trial_block_4.thisN,trial_block_4.thisIndex,trial_block_4.ran,questions_intro.started,questions_intro.stopped,enter_12.keys,enter_12.rt,enter_12.duration,question2.started,question2.stopped,question_doingbest.response,question_doingbest.rt,enter_15.keys,enter_15.rt,enter_15.duration,pattern.started,pattern.stopped,pattern_2.text,enter_17.keys,enter_17.rt,enter_17.duration,thankyou.started,thankyou.stopped,enter_14.keys,enter_14.rt,enter_14.duration
0,13.6043,return,13.6003,,WIN24_035,21,Female,2024-02-02_14h33.30.972,jersey_experiment_5,2023.2.2,Win32,84.03361345,,,,,,,,,,,,,,,,,,,,,,,,,,,,,,,,,,,,,,,,,,,,,,,,,,,,,,,,,,,,,,,,,,,,,,,,,,,,,,
,,,,,WIN24_035,21,Female,2024-02-02_14h33.30.972,jersey_experiment_5,2023.2.2,Win32,84.03361345,13.6043,24.5541,return,10.9338,,,,,,,,,,,,,,,,,,,,,,,,,,,,,,,,,,,,,,,,,,,,,,,,,,,,,,,,,,,,,,,,,,,,,,,,,,
,,,,,WIN24_035,21,Female,2024-02-02_14h33.30.972,jersey_experiment_5,2023.2.2,Win32,84.03361345,,,,,,24.5542,28.1188,return,3.5293,,,,,,,,,,,,,,,,,,,,,,,,,,,,,,,,,,,,,,,,,,,,,,,,,,,,,,,,,,,,,,,,,,,,,
,,,,,WIN24_035,21,Female,2024-02-02_14h33.30.972,jersey_experiment_5,2023.2.2,Win32,84.03361345,,,,,,,,,,,28.1189,50.6964,return,22.5595,,,,,,,,,,,,,,,,,,,,,,,,,,,,,,,,,,,,,,,,,,,,,,,,,,,,,,,,,,,,,,,,
,,,,,WIN24_035,21,Female,2024-02-02_14h33.30.972,jersey_experiment_5,2023.2.2,Win32,84.03361345,,,,,,,,,,,,,,,,50.703,52.4962,52.4962,62.3907,return,2.867,,49.34895833,0,0,0,43,1,FBP-YG-91.png,0.43,1.2,44,1,,,,,,,,,,,,,,,,,,,,,,,,,,,,,,,,,,,,,,,,,,,,,
,,,,,WIN24_035,21,Female,2024-02-02_14h33.30.972,jersey_experiment_5,2023.2.2,Win32,84.03361345,,,,,,,,,,,,,,,,62.3911,64.1909,64.1909,70.3441,return,2.1454,,43.359375,0,1,1,18,1,FBP-RB-17.png,0.43,1.2,19,1,,,,,,,,,,,,,,,,,,,,,,,,,,,,,,,,,,,,,,,,,,,,,
,,,,,WIN24_035,21,Female,2024-02-02_14h33.30.972,jersey_experiment_5,2023.2.2,Win32,84.03361345,,,,,,,,,,,,,,,,70.3445,71.6382,71.6383,75.3441,return,1.294,,67.44791667,0,2,2,48,1,FBP-PT-17.png,0.43,1.2,49,0.5,,,,,,,,,,,,,,,,,,,,,,,,,,,,,,,,,,,,,,,,,,,,,
,,,,,WIN24_035,21,Female,2024-02-02_14h33.30.972,jersey_experiment_5,2023.2.2,Win32,84.03361345,,,,,,,,,,,,,,,,75.3443,77.1444,77.1444,79.6269,return,0.7336,,97.91666667,0,3,3,28,1,FBP-RB-19.png,0.43,1.2,29,1,,,,,,,,,,,,,,,,,,,,,,,,,,,,,,,,,,,,,,,,,,,,,
,,,,,WIN24_035,21,Female,2024-02-02_14h33.30.972,jersey_experiment_5,2023.2.2,Win32,84.03361345,,,,,,,,,,,,,,,,79.6274,81.427,81.427,83.1799,return,0.6847,,99.609375,0,4,4,24,1,FBP-RB-18.png,0.45,1.2,25,1,,,,,,,,,,,,,,,,,,,,,,,,,,,,,,,,,,,,,,,,,,,,,
,,,,,WIN24_035,21,Female,2024-02-02_14h33.30.972,jersey_experiment_5,2023.2.2,Win32,84.03361345,,,,,,,,,,,,,,,,83.1804,84.9798,84.9799,88.3681,return,1.2708,,26.171875,0,5,5,26,1,FBP-RB-19.png,0.37,1.2,27,1,,,,,,,,,,,,,,,,,,,,,,,,,,,,,,,,,,,,,,,,,,,,,
,,,,,WIN24_035,21,Female,2024-02-02_14h33.30.972,jersey_experiment_5,2023.2.2,Win32,84.03361345,,,,,,,,,,,,,,,,88.3685,90.1684,90.1685,94.2978,return,2.828,,22.00520833,0,6,6,31,1,FBP-YG-71.png,0.37,1.2,32,1,,,,,,,,,,,,,,,,,,,,,,,,,,,,,,,,,,,,,,,,,,,,,
,,,,,WIN24_035,21,Female,2024-02-02_14h33.30.972,jersey_experiment_5,2023.2.2,Win32,84.03361345,,,,,,,,,,,,,,,,94.2981,95.5921,95.5921,97.6157,return,0.7538,,39.58333333,0,7,7,57,1,FBP-PT-19.png,0.4,1.2,58,0.5,,,,,,,,,,,,,,,,,,,,,,,,,,,,,,,,,,,,,,,,,,,,,
,,,,,WIN24_035,21,Female,2024-02-02_14h33.30.972,jersey_experiment_5,2023.2.2,Win32,84.03361345,,,,,,,,,,,,,,,,97.6159,99.4157,99.4157,101.3687,return,0.6968,,69.01041667,0,8,8,27,1,FBP-RB-19.png,0.4,1.2,28,1,,,,,,,,,,,,,,,,,,,,,,,,,,,,,,,,,,,,,,,,,,,,,
,,,,,WIN24_035,21,Female,2024-02-02_14h33.30.972,jersey_experiment_5,2023.2.2,Win32,84.03361345,,,,,,,,,,,,,,,,101.3693,102.6628,102.6628,107.9927,return,1.957,,65.234375,0,9,9,6,1,FBP-OG-81.png,0.37,1.2,7,0.5,,,,,,,,,,,,,,,,,,,,,,,,,,,,,,,,,,,,,,,,,,,,,
,,,,,WIN24_035,21,Female,2024-02-02_14h33.30.972,jersey_experiment_5,2023.2.2,Win32,84.03361345,,,,,,,,,,,,,,,,107.9934,109.7925,109.7926,111.8515,return,0.6026,,50.13020833,0,10,10,21,1,FBP-RB-18.png,0.37,1.2,22,1,,,,,,,,,,,,,,,,,,,,,,,,,,,,,,,,,,,,,,,,,,,,,
,,,,,WIN24_035,21,Female,2024-02-02_14h33.30.972,jersey_experiment_5,2023.2.2,Win32,84.03361345,,,,,,,,,,,,,,,,111.8519,113.6515,113.6517,115.5928,return,0.6297,,99.34895833,0,11,11,33,1,FBP-YG-71.png,0.43,1.2,34,1,,,,,,,,,,,,,,,,,,,,,,,,,,,,,,,,,,,,,,,,,,,,,
,,,,,WIN24_035,21,Female,2024-02-02_14h33.30.972,jersey_experiment_5,2023.2.2,Win32,84.03361345,,,,,,,,,,,,,,,,115.5931,116.8869,116.8869,118.4283,return,0.6254,,99.34895833,0,12,12,54,1,FBP-PT-18.png,0.45,1.2,55,0.5,,,,,,,,,,,,,,,,,,,,,,,,,,,,,,,,,,,,,,,,,,,,,
,,,,,WIN24_035,21,Female,2024-02-02_14h33.30.972,jersey_experiment_5,2023.2.2,Win32,84.03361345,,,,,,,,,,,,,,,,118.4288,119.7226,119.7227,121.899,return,0.6272,,64.19270833,0,13,13,11,1,FBP-OG-91.png,0.37,1.2,12,0.5,,,,,,,,,,,,,,,,,,,,,,,,,,,,,,,,,,,,,,,,,,,,,
,,,,,WIN24_035,21,Female,2024-02-02_14h33.30.972,jersey_experiment_5,2023.2.2,Win32,84.03361345,,,,,,,,,,,,,,,,121.8992,123.6989,123.699,125.2168,return,0.5881,,48.95833333,0,14,14,40,1,FBP-YG-91.png,0.35,1.2,41,1,,,,,,,,,,,,,,,,,,,,,,,,,,,,,,,,,,,,,,,,,,,,,
,,,,,WIN24_035,21,Female,2024-02-02_14h33.30.972,jersey_experiment_5,2023.2.2,Win32,84.03361345,,,,,,,,,,,,,,,,125.2174,126.5109,126.5109,129.5583,return,1.114,,61.84895833,0,15,15,47,1,FBP-PT-17.png,0.4,1.2,48,0.5,,,,,,,,,,,,,,,,,,,,,,,,,,,,,,,,,,,,,,,,,,,,,
,,,,,WIN24_035,21,Female,2024-02-02_14h33.30.972,jersey_experiment_5,2023.2.2,Win32,84.03361345,,,,,,,,,,,,,,,,129.559,131.3581,131.3582,133.017,return,0.5942,,88.28125,0,16,16,42,1,FBP-YG-91.png,0.4,1.2,43,1,,,,,,,,,,,,,,,,,,,,,,,,,,,,,,,,,,,,,,,,,,,,,
,,,,,WIN24_035,21,Female,2024-02-02_14h33.30.972,jersey_experiment_5,2023.2.2,Win32,84.03361345,,,,,,,,,,,,,,,,133.0173,134.3112,134.3112,136.8171,return,0.7063,,45.83333333,0,17,17,1,1,FBP-OG-71.png,0.37,1.2,2,0.5,,,,,,,,,,,,,,,,,,,,,,,,,,,,,,,,,,,,,,,,,,,,,
,,,,,WIN24_035,21,Female,2024-02-02_14h33.30.972,jersey_experiment_5,2023.2.2,Win32,84.03361345,,,,,,,,,,,,,,,,136.8174,138.6171,138.6171,140.6172,return,0.6967,,85.67708333,0,18,18,32,1,FBP-YG-71.png,0.4,1.2,33,1,,,,,,,,,,,,,,,,,,,,,,,,,,,,,,,,,,,,,,,,,,,,,
,,,,,WIN24_035,21,Female,2024-02-02_14h33.30.972,jersey_experiment_5,2023.2.2,Win32,84.03361345,,,,,,,,,,,,,,,,140.6175,141.9114,141.9115,143.4411,return,0.636,,70.3125,0,19,19,52,1,FBP-PT-18.png,0.4,1.2,53,0.5,,,,,,,,,,,,,,,,,,,,,,,,,,,,,,,,,,,,,,,,,,,,,
,,,,,WIN24_035,21,Female,2024-02-02_14h33.30.972,jersey_experiment_5,2023.2.2,Win32,84.03361345,,,,,,,,,,,,,,,,143.4418,144.735,144.735,146.5235,return,0.6034,,98.69791667,0,20,20,53,1,FBP-PT-18.png,0.43,1.2,54,0.5,,,,,,,,,,,,,,,,,,,,,,,,,,,,,,,,,,,,,,,,,,,,,
,,,,,WIN24_035,21,Female,2024-02-02_14h33.30.972,jersey_experiment_5,2023.2.2,Win32,84.03361345,,,,,,,,,,,,,,,,146.5242,148.3235,148.3235,150.1589,return,0.6241,,16.92708333,0,21,21,20,1,FBP-RB-18.png,0.35,1.2,21,1,,,,,,,,,,,,,,,,,,,,,,,,,,,,,,,,,,,,,,,,,,,,,
,,,,,WIN24_035,21,Female,2024-02-02_14h33.30.972,jersey_experiment_5,2023.2.2,Win32,84.03361345,,,,,,,,,,,,,,,,150.1595,151.453,151.453,154.312,return,1.807,,17.70833333,0,22,22,10,1,FBP-OG-91.png,0.35,1.2,11,0.5,,,,,,,,,,,,,,,,,,,,,,,,,,,,,,,,,,,,,,,,,,,,,
,,,,,WIN24_035,21,Female,2024-02-02_14h33.30.972,jersey_experiment_5,2023.2.2,Win32,84.03361345,,,,,,,,,,,,,,,,154.3124,155.6061,155.6061,157.6064,return,0.7146,,98.30729167,0,23,23,59,1,FBP-PT-19.png,0.45,1.2,60,0.5,,,,,,,,,,,,,,,,,,,,,,,,,,,,,,,,,,,,,,,,,,,,,
,,,,,WIN24_035,21,Female,2024-02-02_14h33.30.972,jersey_experiment_5,2023.2.2,Win32,84.03361345,,,,,,,,,,,,,,,,157.6068,159.4064,159.4064,161.7827,return,1.1961,,22.91666667,0,24,24,30,1,FBP-YG-71.png,0.35,1.2,31,1,,,,,,,,,,,,,,,,,,,,,,,,,,,,,,,,,,,,,,,,,,,,,
,,,,,WIN24_035,21,Female,2024-02-02_14h33.30.972,jersey_experiment_5,2023.2.2,Win32,84.03361345,,,,,,,,,,,,,,,,161.7829,163.583,163.5831,165.4299,return,0.656,,98.95833333,0,25,25,34,1,FBP-YG-71.png,0.45,1.2,35,1,,,,,,,,,,,,,,,,,,,,,,,,,,,,,,,,,,,,,,,,,,,,,
,,,,,WIN24_035,21,Female,2024-02-02_14h33.30.972,jersey_experiment_5,2023.2.2,Win32,84.03361345,,,,,,,,,,,,,,,,165.4304,167.2303,167.2303,170.1362,return,1.8418,,76.43229167,0,26,26,17,1,FBP-RB-17.png,0.4,1.2,18,1,,,,,,,,,,,,,,,,,,,,,,,,,,,,,,,,,,,,,,,,,,,,,
,,,,,WIN24_035,21,Female,2024-02-02_14h33.30.972,jersey_experiment_5,2023.2.2,Win32,84.03361345,,,,,,,,,,,,,,,,170.1366,171.4305,171.4305,173.3244,return,0.614,,57.421875,0,27,27,51,1,FBP-PT-18.png,0.37,1.2,52,0.5,,,,,,,,,,,,,,,,,,,,,,,,,,,,,,,,,,,,,,,,,,,,,
,,,,,WIN24_035,21,Female,2024-02-02_14h33.30.972,jersey_experiment_5,2023.2.2,Win32,84.03361345,,,,,,,,,,,,,,,,173.3246,175.1244,175.1245,176.8068,return,0.9493,,74.73958333,0,28,28,37,1,FBP-YG-81.png,0.4,1.2,38,1,,,,,,,,,,,,,,,,,,,,,,,,,,,,,,,,,,,,,,,,,,,,,
,,,,,WIN24_035,21,Female,2024-02-02_14h33.30.972,jersey_experiment_5,2023.2.2,Win32,84.03361345,,,,,,,,,,,,,,,,176.807,178.101,178.101,180.8778,return,0.5309,,30.59895833,0,29,29,5,1,FBP-OG-81.png,0.35,1.2,6,0.5,,,,,,,,,,,,,,,,,,,,,,,,,,,,,,,,,,,,,,,,,,,,,
,,,,,WIN24_035,21,Female,2024-02-02_14h33.30.972,jersey_experiment_5,2023.2.2,Win32,84.03361345,,,,,,,,,,,,,,,,180.8783,182.1718,182.1718,184.113,return,0.5533,,14.58333333,0,30,30,50,1,FBP-PT-18.png,0.35,1.2,51,0.5,,,,,,,,,,,,,,,,,,,,,,,,,,,,,,,,,,,,,,,,,,,,,
,,,,,WIN24_035,21,Female,2024-02-02_14h33.30.972,jersey_experiment_5,2023.2.2,Win32,84.03361345,,,,,,,,,,,,,,,,184.1132,185.9131,185.9132,190.184,return,1.2779,,55.72916667,0,31,31,41,1,FBP-YG-91.png,0.37,1.2,42,1,,,,,,,,,,,,,,,,,,,,,,,,,,,,,,,,,,,,,,,,,,,,,
,,,,,WIN24_035,21,Female,2024-02-02_14h33.30.972,jersey_experiment_5,2023.2.2,Win32,84.03361345,,,,,,,,,,,,,,,,190.1847,191.4781,191.4781,192.8782,return,0.5039,,74.73958333,0,32,32,2,1,FBP-OG-71.png,0.4,1.2,3,0.5,,,,,,,,,,,,,,,,,,,,,,,,,,,,,,,,,,,,,,,,,,,,,
,,,,,WIN24_035,21,Female,2024-02-02_14h33.30.972,jersey_experiment_5,2023.2.2,Win32,84.03361345,,,,,,,,,,,,,,,,192.8786,194.1722,194.1723,196.2666,return,1.1458,,42.83854167,0,33,33,56,1,FBP-PT-19.png,0.37,1.2,57,0.5,,,,,,,,,,,,,,,,,,,,,,,,,,,,,,,,,,,,,,,,,,,,,
,,,,,WIN24_035,21,Female,2024-02-02_14h33.30.972,jersey_experiment_5,2023.2.2,Win32,84.03361345,,,,,,,,,,,,,,,,196.2671,198.0666,198.0666,199.3724,return,0.5998,,36.328125,0,34,34,15,1,FBP-RB-17.png,0.35,1.2,16,1,,,,,,,,,,,,,,,,,,,,,,,,,,,,,,,,,,,,,,,,,,,,,
,,,,,WIN24_035,21,Female,2024-02-02_14h33.30.972,jersey_experiment_5,2023.2.2,Win32,84.03361345,,,,,,,,,,,,,,,,199.3727,200.6666,200.6666,202.702,return,1.2243,,35.67708333,0,35,35,45,1,FBP-PT-17.png,0.35,1.2,46,0.5,,,,,,,,,,,,,,,,,,,,,,,,,,,,,,,,,,,,,,,,,,,,,
,,,,,WIN24_035,21,Female,2024-02-02_14h33.30.972,jersey_experiment_5,2023.2.2,Win32,84.03361345,,,,,,,,,,,,,,,,202.7025,203.9962,203.9962,205.5021,return,0.613,,53.38541667,0,36,36,46,1,FBP-PT-17.png,0.37,1.2,47,0.5,,,,,,,,,,,,,,,,,,,,,,,,,,,,,,,,,,,,,,,,,,,,,
,,,,,WIN24_035,21,Female,2024-02-02_14h33.30.972,jersey_experiment_5,2023.2.2,Win32,84.03361345,,,,,,,,,,,,,,,,205.5026,206.7962,206.7963,210.0787,return,0.7295,,97.91666667,0,37,37,8,1,FBP-OG-81.png,0.43,1.2,9,0.5,,,,,,,,,,,,,,,,,,,,,,,,,,,,,,,,,,,,,,,,,,,,,
,,,,,WIN24_035,21,Female,2024-02-02_14h33.30.972,jersey_experiment_5,2023.2.2,Win32,84.03361345,,,,,,,,,,,,,,,,210.0789,211.8788,211.8788,213.4554,return,0.6595,,97.78645833,0,38,38,29,1,FBP-RB-19.png,0.45,1.2,30,1,,,,,,,,,,,,,,,,,,,,,,,,,,,,,,,,,,,,,,,,,,,,,
,,,,,WIN24_035,21,Female,2024-02-02_14h33.30.972,jersey_experiment_5,2023.2.2,Win32,84.03361345,,,,,,,,,,,,,,,,213.4558,215.2556,215.2556,216.9027,return,0.644,,51.30208333,0,39,39,36,1,FBP-YG-81.png,0.37,1.2,37,1,,,,,,,,,,,,,,,,,,,,,,,,,,,,,,,,,,,,,,,,,,,,,
,,,,,WIN24_035,21,Female,2024-02-02_14h33.30.972,jersey_experiment_5,2023.2.2,Win32,84.03361345,,,,,,,,,,,,,,,,216.9032,218.197,218.1971,219.7733,return,0.5421,,98.69791667,0,40,40,13,1,FBP-OG-91.png,0.43,1.2,14,0.5,,,,,,,,,,,,,,,,,,,,,,,,,,,,,,,,,,,,,,,,,,,,,
,,,,,WIN24_035,21,Female,2024-02-02_14h33.30.972,jersey_experiment_5,2023.2.2,Win32,84.03361345,,,,,,,,,,,,,,,,219.7739,221.0674,221.0675,222.4321,return,0.5409,,98.17708333,0,41,41,7,1,FBP-OG-81.png,0.4,1.2,8,0.5,,,,,,,,,,,,,,,,,,,,,,,,,,,,,,,,,,,,,,,,,,,,,
,,,,,WIN24_035,21,Female,2024-02-02_14h33.30.972,jersey_experiment_5,2023.2.2,Win32,84.03361345,,,,,,,,,,,,,,,,222.4326,223.7262,223.7263,224.8556,return,0.5482,,98.95833333,0,42,42,58,1,FBP-PT-19.png,0.43,1.2,59,0.5,,,,,,,,,,,,,,,,,,,,,,,,,,,,,,,,,,,,,,,,,,,,,
,,,,,WIN24_035,21,Female,2024-02-02_14h33.30.972,jersey_experiment_5,2023.2.2,Win32,84.03361345,,,,,,,,,,,,,,,,224.8559,226.6559,226.6559,227.6914,return,0.5687,,98.95833333,0,43,43,39,1,FBP-YG-81.png,0.45,1.2,40,1,,,,,,,,,,,,,,,,,,,,,,,,,,,,,,,,,,,,,,,,,,,,,
,,,,,WIN24_035,21,Female,2024-02-02_14h33.30.972,jersey_experiment_5,2023.2.2,Win32,84.03361345,,,,,,,,,,,,,,,,227.692,228.9854,228.9854,231.0207,return,0.8021,,23.046875,0,44,44,55,1,FBP-PT-19.png,0.35,1.2,56,0.5,,,,,,,,,,,,,,,,,,,,,,,,,,,,,,,,,,,,,,,,,,,,,
,,,,,WIN24_035,21,Female,2024-02-02_14h33.30.972,jersey_experiment_5,2023.2.2,Win32,84.03361345,,,,,,,,,,,,,,,,231.0209,232.8216,232.8216,234.3033,return,0.5653,,49.21875,0,45,45,16,1,FBP-RB-17.png,0.37,1.2,17,1,,,,,,,,,,,,,,,,,,,,,,,,,,,,,,,,,,,,,,,,,,,,,
,,,,,WIN24_035,21,Female,2024-02-02_14h33.30.972,jersey_experiment_5,2023.2.2,Win32,84.03361345,,,,,,,,,,,,,,,,234.3036,236.1034,236.1035,237.7977,return,0.8186,,99.08854167,0,46,46,23,1,FBP-RB-18.png,0.43,1.2,24,1,,,,,,,,,,,,,,,,,,,,,,,,,,,,,,,,,,,,,,,,,,,,,
,,,,,WIN24_035,21,Female,2024-02-02_14h33.30.972,jersey_experiment_5,2023.2.2,Win32,84.03361345,,,,,,,,,,,,,,,,237.7979,239.5978,239.5979,241.021,return,0.6128,,99.34895833,0,47,47,44,1,FBP-YG-91.png,0.45,1.2,45,1,,,,,,,,,,,,,,,,,,,,,,,,,,,,,,,,,,,,,,,,,,,,,
,,,,,WIN24_035,21,Female,2024-02-02_14h33.30.972,jersey_experiment_5,2023.2.2,Win32,84.03361345,,,,,,,,,,,,,,,,241.0213,242.3152,242.3152,243.3506,return,0.536,,99.34895833,0,48,48,4,1,FBP-OG-71.png,0.45,1.2,5,0.5,,,,,,,,,,,,,,,,,,,,,,,,,,,,,,,,,,,,,,,,,,,,,
,,,,,WIN24_035,21,Female,2024-02-02_14h33.30.972,jersey_experiment_5,2023.2.2,Win32,84.03361345,,,,,,,,,,,,,,,,243.3509,244.6447,244.6447,246.5035,return,0.7129,,77.47395833,0,49,49,12,1,FBP-OG-91.png,0.4,1.2,13,0.5,,,,,,,,,,,,,,,,,,,,,,,,,,,,,,,,,,,,,,,,,,,,,
,,,,,WIN24_035,21,Female,2024-02-02_14h33.30.972,jersey_experiment_5,2023.2.2,Win32,84.03361345,,,,,,,,,,,,,,,,246.5038,248.3038,248.3038,249.6568,return,0.5945,,98.17708333,0,50,50,19,1,FBP-RB-17.png,0.45,1.2,20,1,,,,,,,,,,,,,,,,,,,,,,,,,,,,,,,,,,,,,,,,,,,,,
,,,,,WIN24_035,21,Female,2024-02-02_14h33.30.972,jersey_experiment_5,2023.2.2,Win32,84.03361345,,,,,,,,,,,,,,,,249.657,250.9509,250.9509,252.1275,return,0.5501,,98.95833333,0,51,51,49,1,FBP-PT-17.png,0.45,1.2,50,0.5,,,,,,,,,,,,,,,,,,,,,,,,,,,,,,,,,,,,,,,,,,,,,
,,,,,WIN24_035,21,Female,2024-02-02_14h33.30.972,jersey_experiment_5,2023.2.2,Win32,84.03361345,,,,,,,,,,,,,,,,252.1281,253.9278,253.9279,256.1746,return,1.1643,,0,0,52,52,25,1,FBP-RB-19.png,0.35,1.2,26,1,,,,,,,,,,,,,,,,,,,,,,,,,,,,,,,,,,,,,,,,,,,,,
,,,,,WIN24_035,21,Female,2024-02-02_14h33.30.972,jersey_experiment_5,2023.2.2,Win32,84.03361345,,,,,,,,,,,,,,,,256.1751,257.4687,257.4688,261.2455,return,0.672,,0.520833333,0,53,53,0,1,FBP-OG-71.png,0.35,1.2,1,0.5,,,,,,,,,,,,,,,,,,,,,,,,,,,,,,,,,,,,,,,,,,,,,
,,,,,WIN24_035,21,Female,2024-02-02_14h33.30.972,jersey_experiment_5,2023.2.2,Win32,84.03361345,,,,,,,,,,,,,,,,261.2462,262.5396,262.5396,265.7868,return,0.6267,,73.69791667,0,54,54,9,1,FBP-OG-81.png,0.45,1.2,10,0.5,,,,,,,,,,,,,,,,,,,,,,,,,,,,,,,,,,,,,,,,,,,,,
,,,,,WIN24_035,21,Female,2024-02-02_14h33.30.972,jersey_experiment_5,2023.2.2,Win32,84.03361345,,,,,,,,,,,,,,,,265.7872,267.0808,267.0809,268.4928,return,0.5314,,73.828125,0,55,55,3,1,FBP-OG-71.png,0.43,1.2,4,0.5,,,,,,,,,,,,,,,,,,,,,,,,,,,,,,,,,,,,,,,,,,,,,
,,,,,WIN24_035,21,Female,2024-02-02_14h33.30.972,jersey_experiment_5,2023.2.2,Win32,84.03361345,,,,,,,,,,,,,,,,268.4934,270.2933,270.2934,272.8576,return,0.5694,,1.171875,0,56,56,35,1,FBP-YG-81.png,0.35,1.2,36,1,,,,,,,,,,,,,,,,,,,,,,,,,,,,,,,,,,,,,,,,,,,,,
,,,,,WIN24_035,21,Female,2024-02-02_14h33.30.972,jersey_experiment_5,2023.2.2,Win32,84.03361345,,,,,,,,,,,,,,,,272.858,274.6577,274.6578,276.3754,return,0.6159,,70.44270833,0,57,57,38,1,FBP-YG-81.png,0.43,1.2,39,1,,,,,,,,,,,,,,,,,,,,,,,,,,,,,,,,,,,,,,,,,,,,,
,,,,,WIN24_035,21,Female,2024-02-02_14h33.30.972,jersey_experiment_5,2023.2.2,Win32,84.03361345,,,,,,,,,,,,,,,,276.3757,278.1755,278.1755,279.6932,return,0.8602,,51.04166667,0,58,58,22,1,FBP-RB-18.png,0.4,1.2,23,1,,,,,,,,,,,,,,,,,,,,,,,,,,,,,,,,,,,,,,,,,,,,,
,,,,,WIN24_035,21,Female,2024-02-02_14h33.30.972,jersey_experiment_5,2023.2.2,Win32,84.03361345,,,,,,,,,,,,,,,,279.6935,280.9873,280.9873,283.2109,return,0.5568,,84.375,0,59,59,14,1,FBP-OG-91.png,0.45,1.2,15,0.5,,,,,,,,,,,,,,,,,,,,,,,,,,,,,,,,,,,,,,,,,,,,,
,,,,,WIN24_035,21,Female,2024-02-02_14h33.30.972,jersey_experiment_5,2023.2.2,Win32,84.03361345,,,,,,,,,,,,,,,,283.2129,285.011,285.011,286.3757,return,0.5366,,88.671875,,,,,,FBP-RB-81.png,0.43,1.2,24,1,0,0,0,23,1,,,,,,,,,,,,,,,,,,,,,,,,,,,,,,,,,,,,,,,,
,,,,,WIN24_035,21,Female,2024-02-02_14h33.30.972,jersey_experiment_5,2023.2.2,Win32,84.03361345,,,,,,,,,,,,,,,,286.3761,288.176,288.176,291.0466,return,2.1851,,21.09375,,,,,,FBP-YG-18.png,0.35,1.2,36,1,0,1,1,35,1,,,,,,,,,,,,,,,,,,,,,,,,,,,,,,,,,,,,,,,,
,,,,,WIN24_035,21,Female,2024-02-02_14h33.30.972,jersey_experiment_5,2023.2.2,Win32,84.03361345,,,,,,,,,,,,,,,,291.0472,292.3411,292.3412,294.5526,return,0.6175,,70.703125,,,,,,FBP-OG-19.png,0.45,1.2,15,0.5,0,2,2,14,1,,,,,,,,,,,,,,,,,,,,,,,,,,,,,,,,,,,,,,,,
,,,,,WIN24_035,21,Female,2024-02-02_14h33.30.972,jersey_experiment_5,2023.2.2,Win32,84.03361345,,,,,,,,,,,,,,,,294.5532,296.3528,296.3528,297.341,return,0.5313,,74.47916667,,,,,,FBP-RB-91.png,0.43,1.2,29,1,0,3,3,28,1,,,,,,,,,,,,,,,,,,,,,,,,,,,,,,,,,,,,,,,,
,,,,,WIN24_035,21,Female,2024-02-02_14h33.30.972,jersey_experiment_5,2023.2.2,Win32,84.03361345,,,,,,,,,,,,,,,,297.3416,299.1413,299.1414,300.8706,return,0.691,,1.953125,,,,,,FBP-RB-81.png,0.35,1.2,21,1,0,4,4,20,1,,,,,,,,,,,,,,,,,,,,,,,,,,,,,,,,,,,,,,,,
,,,,,WIN24_035,21,Female,2024-02-02_14h33.30.972,jersey_experiment_5,2023.2.2,Win32,84.03361345,,,,,,,,,,,,,,,,300.8713,302.6705,302.6706,304.4236,return,0.5688,,49.21875,,,,,,FBP-YG-19.png,0.4,1.2,43,1,0,5,5,42,1,,,,,,,,,,,,,,,,,,,,,,,,,,,,,,,,,,,,,,,,
,,,,,WIN24_035,21,Female,2024-02-02_14h33.30.972,jersey_experiment_5,2023.2.2,Win32,84.03361345,,,,,,,,,,,,,,,,304.4238,305.7176,305.7176,307.8473,return,1.0195,,35.67708333,,,,,,FBP-OG-18.png,0.37,1.2,7,0.5,0,6,6,6,1,,,,,,,,,,,,,,,,,,,,,,,,,,,,,,,,,,,,,,,,
,,,,,WIN24_035,21,Female,2024-02-02_14h33.30.972,jersey_experiment_5,2023.2.2,Win32,84.03361345,,,,,,,,,,,,,,,,307.8477,309.1414,309.1414,310.8708,return,0.913,,49.47916667,,,,,,FBP-OG-19.png,0.4,1.2,13,0.5,0,7,7,12,1,,,,,,,,,,,,,,,,,,,,,,,,,,,,,,,,,,,,,,,,
,,,,,WIN24_035,21,Female,2024-02-02_14h33.30.972,jersey_experiment_5,2023.2.2,Win32,84.03361345,,,,,,,,,,,,,,,,310.8712,312.671,312.6711,314.318,return,0.6599,,31.38020833,,,,,,FBP-YG-19.png,0.35,1.2,41,1,0,8,8,40,1,,,,,,,,,,,,,,,,,,,,,,,,,,,,,,,,,,,,,,,,
,,,,,WIN24_035,21,Female,2024-02-02_14h33.30.972,jersey_experiment_5,2023.2.2,Win32,84.03361345,,,,,,,,,,,,,,,,314.3183,315.6125,315.6126,317.1769,return,0.5698,,74.86979167,,,,,,FBP-OG-17.png,0.45,1.2,5,0.5,0,9,9,4,1,,,,,,,,,,,,,,,,,,,,,,,,,,,,,,,,,,,,,,,,
,,,,,WIN24_035,21,Female,2024-02-02_14h33.30.972,jersey_experiment_5,2023.2.2,Win32,84.03361345,,,,,,,,,,,,,,,,317.1772,318.9771,318.9771,321.5187,return,0.6684,,32.29166667,,,,,,FBP-RB-81.png,0.37,1.2,22,1,0,10,10,21,1,,,,,,,,,,,,,,,,,,,,,,,,,,,,,,,,,,,,,,,,
,,,,,WIN24_035,21,Female,2024-02-02_14h33.30.972,jersey_experiment_5,2023.2.2,Win32,84.03361345,,,,,,,,,,,,,,,,321.5193,322.8125,322.8125,324.566,return,0.7979,,46.61458333,,,,,,FBP-PT-71.png,0.4,1.2,48,0.5,0,11,11,47,1,,,,,,,,,,,,,,,,,,,,,,,,,,,,,,,,,,,,,,,,
,,,,,WIN24_035,21,Female,2024-02-02_14h33.30.972,jersey_experiment_5,2023.2.2,Win32,84.03361345,,,,,,,,,,,,,,,,324.5663,325.8596,325.8596,327.5185,return,0.918,,47.65625,,,,,,FBP-PT-91.png,0.4,1.2,58,0.5,0,12,12,57,1,,,,,,,,,,,,,,,,,,,,,,,,,,,,,,,,,,,,,,,,
,,,,,WIN24_035,21,Female,2024-02-02_14h33.30.972,jersey_experiment_5,2023.2.2,Win32,84.03361345,,,,,,,,,,,,,,,,327.5189,329.3186,329.3187,330.3422,return,0.5969,,47.52604167,,,,,,FBP-RB-71.png,0.37,1.2,17,1,0,13,13,16,1,,,,,,,,,,,,,,,,,,,,,,,,,,,,,,,,,,,,,,,,
,,,,,WIN24_035,21,Female,2024-02-02_14h33.30.972,jersey_experiment_5,2023.2.2,Win32,84.03361345,,,,,,,,,,,,,,,,330.3428,332.1423,332.1423,333.4952,return,0.5369,,77.47395833,,,,,,FBP-YG-18.png,0.43,1.2,39,1,0,14,14,38,1,,,,,,,,,,,,,,,,,,,,,,,,,,,,,,,,,,,,,,,,
,,,,,WIN24_035,21,Female,2024-02-02_14h33.30.972,jersey_experiment_5,2023.2.2,Win32,84.03361345,,,,,,,,,,,,,,,,333.4954,335.2954,335.2954,336.6484,return,0.5715,,98.69791667,,,,,,FBP-RB-71.png,0.43,1.2,19,1,0,15,15,18,1,,,,,,,,,,,,,,,,,,,,,,,,,,,,,,,,,,,,,,,,
,,,,,WIN24_035,21,Female,2024-02-02_14h33.30.972,jersey_experiment_5,2023.2.2,Win32,84.03361345,,,,,,,,,,,,,,,,336.6489,337.9423,337.9424,341.2133,return,1.4844,,0.390625,,,,,,FBP-OG-17.png,0.35,1.2,1,0.5,0,16,16,0,1,,,,,,,,,,,,,,,,,,,,,,,,,,,,,,,,,,,,,,,,
,,,,,WIN24_035,21,Female,2024-02-02_14h33.30.972,jersey_experiment_5,2023.2.2,Win32,84.03361345,,,,,,,,,,,,,,,,341.2139,342.5073,342.5073,344.0604,return,0.4964,,74.86979167,,,,,,FBP-OG-18.png,0.45,1.2,10,0.5,0,17,17,9,1,,,,,,,,,,,,,,,,,,,,,,,,,,,,,,,,,,,,,,,,
,,,,,WIN24_035,21,Female,2024-02-02_14h33.30.972,jersey_experiment_5,2023.2.2,Win32,84.03361345,,,,,,,,,,,,,,,,344.0606,345.3544,345.3545,347.1427,return,0.6788,,0.130208333,,,,,,FBP-PT-71.png,0.35,1.2,46,0.5,0,18,18,45,1,,,,,,,,,,,,,,,,,,,,,,,,,,,,,,,,,,,,,,,,
,,,,,WIN24_035,21,Female,2024-02-02_14h33.30.972,jersey_experiment_5,2023.2.2,Win32,84.03361345,,,,,,,,,,,,,,,,347.143,348.4369,348.437,352.5195,return,1.8428,,51.30208333,,,,,,FBP-OG-18.png,0.43,1.2,9,0.5,0,19,19,8,1,,,,,,,,,,,,,,,,,,,,,,,,,,,,,,,,,,,,,,,,
,,,,,WIN24_035,21,Female,2024-02-02_14h33.30.972,jersey_experiment_5,2023.2.2,Win32,84.03361345,,,,,,,,,,,,,,,,352.5199,354.3196,354.3196,356.9668,return,1.5709,,97.265625,,,,,,FBP-YG-19.png,0.43,1.2,44,1,0,20,20,43,1,,,,,,,,,,,,,,,,,,,,,,,,,,,,,,,,,,,,,,,,
,,,,,WIN24_035,21,Female,2024-02-02_14h33.30.972,jersey_experiment_5,2023.2.2,Win32,84.03361345,,,,,,,,,,,,,,,,356.9675,358.7667,358.7668,361.7435,return,1.942,,94.140625,,,,,,FBP-YG-17.png,0.4,1.2,33,1,0,21,21,32,1,,,,,,,,,,,,,,,,,,,,,,,,,,,,,,,,,,,,,,,,
,,,,,WIN24_035,21,Female,2024-02-02_14h33.30.972,jersey_experiment_5,2023.2.2,Win32,84.03361345,,,,,,,,,,,,,,,,361.7442,363.0376,363.0376,364.5198,return,1.0775,,98.95833333,,,,,,FBP-PT-71.png,0.45,1.2,50,0.5,0,22,22,49,1,,,,,,,,,,,,,,,,,,,,,,,,,,,,,,,,,,,,,,,,
,,,,,WIN24_035,21,Female,2024-02-02_14h33.30.972,jersey_experiment_5,2023.2.2,Win32,84.03361345,,,,,,,,,,,,,,,,364.5202,366.3199,366.32,367.5671,return,0.5415,,47.13541667,,,,,,FBP-YG-17.png,0.35,1.2,31,1,0,23,23,30,1,,,,,,,,,,,,,,,,,,,,,,,,,,,,,,,,,,,,,,,,
,,,,,WIN24_035,21,Female,2024-02-02_14h33.30.972,jersey_experiment_5,2023.2.2,Win32,84.03361345,,,,,,,,,,,,,,,,367.5673,368.8614,368.8614,370.7672,return,0.5175,,77.47395833,,,,,,FBP-PT-81.png,0.45,1.2,55,0.5,0,24,24,54,1,,,,,,,,,,,,,,,,,,,,,,,,,,,,,,,,,,,,,,,,
,,,,,WIN24_035,21,Female,2024-02-02_14h33.30.972,jersey_experiment_5,2023.2.2,Win32,84.03361345,,,,,,,,,,,,,,,,370.7674,372.5672,372.5673,373.7203,return,0.521,,99.609375,,,,,,FBP-YG-18.png,0.45,1.2,40,1,0,25,25,39,1,,,,,,,,,,,,,,,,,,,,,,,,,,,,,,,,,,,,,,,,
,,,,,WIN24_035,21,Female,2024-02-02_14h33.30.972,jersey_experiment_5,2023.2.2,Win32,84.03361345,,,,,,,,,,,,,,,,373.7206,375.0144,375.0145,376.2027,return,0.5335,,99.609375,,,,,,FBP-PT-91.png,0.43,1.2,59,0.5,0,26,26,58,1,,,,,,,,,,,,,,,,,,,,,,,,,,,,,,,,,,,,,,,,
,,,,,WIN24_035,21,Female,2024-02-02_14h33.30.972,jersey_experiment_5,2023.2.2,Win32,84.03361345,,,,,,,,,,,,,,,,376.203,377.4967,377.4968,379.3088,return,0.4843,,49.86979167,,,,,,FBP-OG-18.png,0.4,1.2,8,0.5,0,27,27,7,1,,,,,,,,,,,,,,,,,,,,,,,,,,,,,,,,,,,,,,,,
,,,,,WIN24_035,21,Female,2024-02-02_14h33.30.972,jersey_experiment_5,2023.2.2,Win32,84.03361345,,,,,,,,,,,,,,,,379.3094,380.6028,380.6029,382.3442,return,0.6184,,25.65104167,,,,,,FBP-PT-81.png,0.37,1.2,52,0.5,0,28,28,51,1,,,,,,,,,,,,,,,,,,,,,,,,,,,,,,,,,,,,,,,,
,,,,,WIN24_035,21,Female,2024-02-02_14h33.30.972,jersey_experiment_5,2023.2.2,Win32,84.03361345,,,,,,,,,,,,,,,,382.3448,384.1443,384.1444,386.8267,return,0.5805,,75.65104167,,,,,,FBP-YG-17.png,0.45,1.2,35,1,0,29,29,34,1,,,,,,,,,,,,,,,,,,,,,,,,,,,,,,,,,,,,,,,,
,,,,,WIN24_035,21,Female,2024-02-02_14h33.30.972,jersey_experiment_5,2023.2.2,Win32,84.03361345,,,,,,,,,,,,,,,,386.8269,388.6268,388.6268,390.3915,return,0.6197,,98.4375,,,,,,FBP-RB-91.png,0.45,1.2,30,1,0,30,30,29,1,,,,,,,,,,,,,,,,,,,,,,,,,,,,,,,,,,,,,,,,
,,,,,WIN24_035,21,Female,2024-02-02_14h33.30.972,jersey_experiment_5,2023.2.2,Win32,84.03361345,,,,,,,,,,,,,,,,390.3917,391.6859,391.6861,394.3916,return,0.7013,,0.651041667,,,,,,FBP-PT-81.png,0.35,1.2,51,0.5,0,31,31,50,1,,,,,,,,,,,,,,,,,,,,,,,,,,,,,,,,,,,,,,,,
,,,,,WIN24_035,21,Female,2024-02-02_14h33.30.972,jersey_experiment_5,2023.2.2,Win32,84.03361345,,,,,,,,,,,,,,,,394.3919,395.6862,395.6863,397.239,return,0.6901,,0.651041667,,,,,,FBP-OG-19.png,0.37,1.2,12,0.5,0,32,32,11,1,,,,,,,,,,,,,,,,,,,,,,,,,,,,,,,,,,,,,,,,
,,,,,WIN24_035,21,Female,2024-02-02_14h33.30.972,jersey_experiment_5,2023.2.2,Win32,84.03361345,,,,,,,,,,,,,,,,397.2395,398.533,398.533,400.7684,return,0.5505,,49.47916667,,,,,,FBP-OG-17.png,0.43,1.2,4,0.5,0,33,33,3,1,,,,,,,,,,,,,,,,,,,,,,,,,,,,,,,,,,,,,,,,
,,,,,WIN24_035,21,Female,2024-02-02_14h33.30.972,jersey_experiment_5,2023.2.2,Win32,84.03361345,,,,,,,,,,,,,,,,400.7689,402.5685,402.5685,404.392,return,0.6422,,99.73958333,,,,,,FBP-YG-19.png,0.45,1.2,45,1,0,34,34,44,1,,,,,,,,,,,,,,,,,,,,,,,,,,,,,,,,,,,,,,,,
,,,,,WIN24_035,21,Female,2024-02-02_14h33.30.972,jersey_experiment_5,2023.2.2,Win32,84.03361345,,,,,,,,,,,,,,,,404.3924,406.1921,406.1922,408.8628,return,0.6121,,51.171875,,,,,,FBP-YG-19.png,0.37,1.2,42,1,0,35,35,41,1,,,,,,,,,,,,,,,,,,,,,,,,,,,,,,,,,,,,,,,,
,,,,,WIN24_035,21,Female,2024-02-02_14h33.30.972,jersey_experiment_5,2023.2.2,Win32,84.03361345,,,,,,,,,,,,,,,,408.8633,410.1569,410.157,411.757,return,0.5279,,97.52604167,,,,,,FBP-PT-91.png,0.45,1.2,60,0.5,0,36,36,59,1,,,,,,,,,,,,,,,,,,,,,,,,,,,,,,,,,,,,,,,,
,,,,,WIN24_035,21,Female,2024-02-02_14h33.30.972,jersey_experiment_5,2023.2.2,Win32,84.03361345,,,,,,,,,,,,,,,,411.7575,413.0513,413.0513,415.3572,return,0.6841,,61.71875,,,,,,FBP-OG-17.png,0.4,1.2,3,0.5,0,37,37,2,1,,,,,,,,,,,,,,,,,,,,,,,,,,,,,,,,,,,,,,,,
,,,,,WIN24_035,21,Female,2024-02-02_14h33.30.972,jersey_experiment_5,2023.2.2,Win32,84.03361345,,,,,,,,,,,,,,,,415.3576,416.6513,416.6513,418.1572,return,0.7315,,74.73958333,,,,,,FBP-OG-19.png,0.43,1.2,14,0.5,0,38,38,13,1,,,,,,,,,,,,,,,,,,,,,,,,,,,,,,,,,,,,,,,,
,,,,,WIN24_035,21,Female,2024-02-02_14h33.30.972,jersey_experiment_5,2023.2.2,Win32,84.03361345,,,,,,,,,,,,,,,,418.1575,419.9573,419.9574,421.0044,return,0.6965,,74.73958333,,,,,,FBP-RB-71.png,0.4,1.2,18,1,0,39,39,17,1,,,,,,,,,,,,,,,,,,,,,,,,,,,,,,,,,,,,,,,,
,,,,,WIN24_035,21,Female,2024-02-02_14h33.30.972,jersey_experiment_5,2023.2.2,Win32,84.03361345,,,,,,,,,,,,,,,,421.0049,422.8047,422.8047,424.2045,return,0.6372,,97.91666667,,,,,,FBP-RB-81.png,0.45,1.2,25,1,0,40,40,24,1,,,,,,,,,,,,,,,,,,,,,,,,,,,,,,,,,,,,,,,,
,,,,,WIN24_035,21,Female,2024-02-02_14h33.30.972,jersey_experiment_5,2023.2.2,Win32,84.03361345,,,,,,,,,,,,,,,,424.2049,426.0052,426.0053,427.9461,return,0.6282,,85.02604167,,,,,,FBP-RB-81.png,0.4,1.2,23,1,0,41,41,22,1,,,,,,,,,,,,,,,,,,,,,,,,,,,,,,,,,,,,,,,,
,,,,,WIN24_035,21,Female,2024-02-02_14h33.30.972,jersey_experiment_5,2023.2.2,Win32,84.03361345,,,,,,,,,,,,,,,,427.9466,429.24,429.2401,432.2166,return,0.9123,,25.78125,,,,,,FBP-PT-71.png,0.37,1.2,47,0.5,0,42,42,46,1,,,,,,,,,,,,,,,,,,,,,,,,,,,,,,,,,,,,,,,,
,,,,,WIN24_035,21,Female,2024-02-02_14h33.30.972,jersey_experiment_5,2023.2.2,Win32,84.03361345,,,,,,,,,,,,,,,,432.2168,433.5107,433.5107,436.1228,return,0.9332,,32.8125,,,,,,FBP-PT-91.png,0.37,1.2,57,0.5,0,43,43,56,1,,,,,,,,,,,,,,,,,,,,,,,,,,,,,,,,,,,,,,,,
,,,,,WIN24_035,21,Female,2024-02-02_14h33.30.972,jersey_experiment_5,2023.2.2,Win32,84.03361345,,,,,,,,,,,,,,,,436.1232,437.9228,437.9228,439.4641,return,0.6888,,34.375,,,,,,FBP-YG-18.png,0.4,1.2,38,1,0,44,44,37,1,,,,,,,,,,,,,,,,,,,,,,,,,,,,,,,,,,,,,,,,
,,,,,WIN24_035,21,Female,2024-02-02_14h33.30.972,jersey_experiment_5,2023.2.2,Win32,84.03361345,,,,,,,,,,,,,,,,439.4645,440.7583,440.7583,442.5346,return,0.5488,,14.19270833,,,,,,FBP-OG-19.png,0.35,1.2,11,0.5,0,45,45,10,1,,,,,,,,,,,,,,,,,,,,,,,,,,,,,,,,,,,,,,,,
,,,,,WIN24_035,21,Female,2024-02-02_14h33.30.972,jersey_experiment_5,2023.2.2,Win32,84.03361345,,,,,,,,,,,,,,,,442.5349,443.8288,443.8288,450.029,return,4.8844,,43.75,,,,,,FBP-PT-81.png,0.4,1.2,53,0.5,0,46,46,52,1,,,,,,,,,,,,,,,,,,,,,,,,,,,,,,,,,,,,,,,,
,,,,,WIN24_035,21,Female,2024-02-02_14h33.30.972,jersey_experiment_5,2023.2.2,Win32,84.03361345,,,,,,,,,,,,,,,,450.0293,451.8293,451.8294,454.1234,return,0.5565,,32.55208333,,,,,,FBP-YG-18.png,0.37,1.2,37,1,0,47,47,36,1,,,,,,,,,,,,,,,,,,,,,,,,,,,,,,,,,,,,,,,,
,,,,,WIN24_035,21,Female,2024-02-02_14h33.30.972,jersey_experiment_5,2023.2.2,Win32,84.03361345,,,,,,,,,,,,,,,,454.124,455.4176,455.4176,457.1941,return,0.6165,,49.08854167,,,,,,FBP-PT-81.png,0.43,1.2,54,0.5,0,48,48,53,1,,,,,,,,,,,,,,,,,,,,,,,,,,,,,,,,,,,,,,,,
,,,,,WIN24_035,21,Female,2024-02-02_14h33.30.972,jersey_experiment_5,2023.2.2,Win32,84.03361345,,,,,,,,,,,,,,,,457.1948,458.4882,458.4883,460.3824,return,0.8119,,29.94791667,,,,,,FBP-OG-17.png,0.37,1.2,2,0.5,0,49,49,1,1,,,,,,,,,,,,,,,,,,,,,,,,,,,,,,,,,,,,,,,,
,,,,,WIN24_035,21,Female,2024-02-02_14h33.30.972,jersey_experiment_5,2023.2.2,Win32,84.03361345,,,,,,,,,,,,,,,,460.3826,461.6766,461.6767,464.0885,return,0.6766,,29.03645833,,,,,,FBP-OG-18.png,0.35,1.2,6,0.5,0,50,50,5,1,,,,,,,,,,,,,,,,,,,,,,,,,,,,,,,,,,,,,,,,
,,,,,WIN24_035,21,Female,2024-02-02_14h33.30.972,jersey_experiment_5,2023.2.2,Win32,84.03361345,,,,,,,,,,,,,,,,464.0891,465.8884,465.8885,467.4063,return,0.5427,,19.27083333,,,,,,FBP-RB-71.png,0.35,1.2,16,1,0,51,51,15,1,,,,,,,,,,,,,,,,,,,,,,,,,,,,,,,,,,,,,,,,
,,,,,WIN24_035,21,Female,2024-02-02_14h33.30.972,jersey_experiment_5,2023.2.2,Win32,84.03361345,,,,,,,,,,,,,,,,467.4068,469.2064,469.2064,470.9122,return,0.6357,,98.046875,,,,,,FBP-RB-71.png,0.45,1.2,20,1,0,52,52,19,1,,,,,,,,,,,,,,,,,,,,,,,,,,,,,,,,,,,,,,,,
,,,,,WIN24_035,21,Female,2024-02-02_14h33.30.972,jersey_experiment_5,2023.2.2,Win32,84.03361345,,,,,,,,,,,,,,,,470.9125,472.2069,472.207,475.3124,return,1.9886,,98.046875,,,,,,FBP-PT-71.png,0.43,1.2,49,0.5,0,53,53,48,1,,,,,,,,,,,,,,,,,,,,,,,,,,,,,,,,,,,,,,,,
,,,,,WIN24_035,21,Female,2024-02-02_14h33.30.972,jersey_experiment_5,2023.2.2,Win32,84.03361345,,,,,,,,,,,,,,,,475.3129,477.1128,477.1128,478.7477,return,0.6476,,1.041666667,,,,,,FBP-RB-91.png,0.35,1.2,26,1,0,54,54,25,1,,,,,,,,,,,,,,,,,,,,,,,,,,,,,,,,,,,,,,,,
,,,,,WIN24_035,21,Female,2024-02-02_14h33.30.972,jersey_experiment_5,2023.2.2,Win32,84.03361345,,,,,,,,,,,,,,,,478.7481,480.5478,480.5478,497.8546,return,14.6695,,19.79166667,,,,,,FBP-RB-91.png,0.37,1.2,27,1,0,55,55,26,1,,,,,,,,,,,,,,,,,,,,,,,,,,,,,,,,,,,,,,,,
,,,,,WIN24_035,21,Female,2024-02-02_14h33.30.972,jersey_experiment_5,2023.2.2,Win32,84.03361345,,,,,,,,,,,,,,,,497.863,499.1604,499.1604,501.2898,return,0.2874,,1.302083333,,,,,,FBP-PT-91.png,0.35,1.2,56,0.5,0,56,56,55,1,,,,,,,,,,,,,,,,,,,,,,,,,,,,,,,,,,,,,,,,
,,,,,WIN24_035,21,Female,2024-02-02_14h33.30.972,jersey_experiment_5,2023.2.2,Win32,84.03361345,,,,,,,,,,,,,,,,501.2901,503.0901,503.0901,503.9018,return,0.1301,,1.432291667,,,,,,FBP-YG-17.png,0.37,1.2,32,1,0,57,57,31,1,,,,,,,,,,,,,,,,,,,,,,,,,,,,,,,,,,,,,,,,
,,,,,WIN24_035,21,Female,2024-02-02_14h33.30.972,jersey_experiment_5,2023.2.2,Win32,84.03361345,,,,,,,,,,,,,,,,503.9024,505.702,505.702,506.8314,return,0.1391,,48.30729167,,,,,,FBP-YG-17.png,0.43,1.2,34,1,0,58,58,33,1,,,,,,,,,,,,,,,,,,,,,,,,,,,,,,,,,,,,,,,,
,,,,,WIN24_035,21,Female,2024-02-02_14h33.30.972,jersey_experiment_5,2023.2.2,Win32,84.03361345,,,,,,,,,,,,,,,,506.8316,508.6313,508.6314,509.5137,return,0.0996,,24.21875,,,,,,FBP-RB-91.png,0.4,1.2,28,1,0,59,59,27,1,,,,,,,,,,,,,,,,,,,,,,,,,,,,,,,,,,,,,,,,
,,,,,WIN24_035,21,Female,2024-02-02_14h33.30.972,jersey_experiment_5,2023.2.2,Win32,84.03361345,,,,,,,,,,,,,,,,,,,,,,,,,,,,,,,,,,,,,,,509.5142,629.5187,,,,,,,,,,,,,,,,,,,,,,,,,,,,,,,,,,,,,,
,,,,,WIN24_035,21,Female,2024-02-02_14h33.30.972,jersey_experiment_5,2023.2.2,Win32,84.03361345,,,,,,,,,,,,,,,,,,,,,,,,,,,,,,,,,,,,,,,,,629.5189,644.0017,return,14.4666,,,,,,,,,,,,,,,,,,,,,,,,,,,,,,,,,,
,,,,,WIN24_035,21,Female,2024-02-02_14h33.30.972,jersey_experiment_5,2023.2.2,Win32,84.03361345,,,,,,,,,,,,,,,,644.0093,645.8012,645.8012,648.0249,return,0.877,,74.21875,,,,,,FBP-OG-91.png,0.45,1.2,15,1,,,,,,,,,,,,,0,0,0,14,1,,,,,,,,,,,,,,,,,,,,,,,,,,,,
,,,,,WIN24_035,21,Female,2024-02-02_14h33.30.972,jersey_experiment_5,2023.2.2,Win32,84.03361345,,,,,,,,,,,,,,,,648.0251,649.3189,649.319,651.6485,return,0.2001,,76.04166667,,,,,,FBP-RB-19.png,0.45,1.2,30,0.5,,,,,,,,,,,,,0,1,1,29,1,,,,,,,,,,,,,,,,,,,,,,,,,,,,
,,,,,WIN24_035,21,Female,2024-02-02_14h33.30.972,jersey_experiment_5,2023.2.2,Win32,84.03361345,,,,,,,,,,,,,,,,651.6489,652.943,652.9431,655.0841,return,0.7559,,0.130208333,,,,,,FBP-YG-91.png,0.35,1.2,41,0.5,,,,,,,,,,,,,0,2,2,40,1,,,,,,,,,,,,,,,,,,,,,,,,,,,,
,,,,,WIN24_035,21,Female,2024-02-02_14h33.30.972,jersey_experiment_5,2023.2.2,Win32,84.03361345,,,,,,,,,,,,,,,,655.0846,656.8841,656.8842,658.1076,return,0.5558,,0.130208333,,,,,,FBP-PT-18.png,0.35,1.2,51,1,,,,,,,,,,,,,0,3,3,50,1,,,,,,,,,,,,,,,,,,,,,,,,,,,,
,,,,,WIN24_035,21,Female,2024-02-02_14h33.30.972,jersey_experiment_5,2023.2.2,Win32,84.03361345,,,,,,,,,,,,,,,,658.1082,659.4018,659.4018,660.7785,return,0.0639,,75.13020833,,,,,,FBP-YG-91.png,0.43,1.2,44,0.5,,,,,,,,,,,,,0,4,4,43,1,,,,,,,,,,,,,,,,,,,,,,,,,,,,
,,,,,WIN24_035,21,Female,2024-02-02_14h33.30.972,jersey_experiment_5,2023.2.2,Win32,84.03361345,,,,,,,,,,,,,,,,660.779,662.0725,662.0725,662.6254,return,0.0938,,74.86979167,,,,,,FBP-YG-81.png,0.43,1.2,39,0.5,,,,,,,,,,,,,0,5,5,38,1,,,,,,,,,,,,,,,,,,,,,,,,,,,,
,,,,,WIN24_035,21,Female,2024-02-02_14h33.30.972,jersey_experiment_5,2023.2.2,Win32,84.03361345,,,,,,,,,,,,,,,,662.6257,663.9196,663.9196,664.4136,return,0.0953,,74.86979167,,,,,,FBP-RB-18.png,0.4,1.2,23,0.5,,,,,,,,,,,,,0,6,6,22,1,,,,,,,,,,,,,,,,,,,,,,,,,,,,
,,,,,WIN24_035,21,Female,2024-02-02_14h33.30.972,jersey_experiment_5,2023.2.2,Win32,84.03361345,,,,,,,,,,,,,,,,664.4139,666.2139,666.2139,667.0372,return,0.0841,,99.34895833,,,,,,FBP-PT-19.png,0.45,1.2,60,1,,,,,,,,,,,,,0,7,7,59,1,,,,,,,,,,,,,,,,,,,,,,,,,,,,
,,,,,WIN24_035,21,Female,2024-02-02_14h33.30.972,jersey_experiment_5,2023.2.2,Win32,84.03361345,,,,,,,,,,,,,,,,667.0375,668.3316,668.3316,669.0963,return,0.0423,,99.08854167,,,,,,FBP-YG-81.png,0.45,1.2,40,0.5,,,,,,,,,,,,,0,8,8,39,1,,,,,,,,,,,,,,,,,,,,,,,,,,,,
,,,,,WIN24_035,21,Female,2024-02-02_14h33.30.972,jersey_experiment_5,2023.2.2,Win32,84.03361345,,,,,,,,,,,,,,,,669.0965,670.8963,670.8963,671.7433,return,0.4943,,98.69791667,,,,,,FBP-PT-17.png,0.43,1.2,49,1,,,,,,,,,,,,,0,9,9,48,1,,,,,,,,,,,,,,,,,,,,,,,,,,,,
,,,,,WIN24_035,21,Female,2024-02-02_14h33.30.972,jersey_experiment_5,2023.2.2,Win32,84.03361345,,,,,,,,,,,,,,,,671.7436,673.5437,673.5438,674.4142,return,0.0005,,0.520833333,,,,,,FBP-OG-91.png,0.35,1.2,11,1,,,,,,,,,,,,,0,10,10,10,1,,,,,,,,,,,,,,,,,,,,,,,,,,,,
,,,,,WIN24_035,21,Female,2024-02-02_14h33.30.972,jersey_experiment_5,2023.2.2,Win32,84.03361345,,,,,,,,,,,,,,,,674.4144,676.2142,676.2142,677.1791,return,0.0512,,99.47916667,,,,,,FBP-PT-17.png,0.45,1.2,50,1,,,,,,,,,,,,,0,11,11,49,1,,,,,,,,,,,,,,,,,,,,,,,,,,,,
,,,,,WIN24_035,21,Female,2024-02-02_14h33.30.972,jersey_experiment_5,2023.2.2,Win32,84.03361345,,,,,,,,,,,,,,,,677.1795,678.473,678.473,679.5672,return,0.0944,,76.30208333,,,,,,FBP-RB-18.png,0.43,1.2,24,0.5,,,,,,,,,,,,,0,12,12,23,1,,,,,,,,,,,,,,,,,,,,,,,,,,,,
,,,,,WIN24_035,21,Female,2024-02-02_14h33.30.972,jersey_experiment_5,2023.2.2,Win32,84.03361345,,,,,,,,,,,,,,,,679.5675,681.3674,681.3674,681.9439,return,0.1478,,75.91145833,,,,,,FBP-PT-17.png,0.37,1.2,47,1,,,,,,,,,,,,,0,13,13,46,1,,,,,,,,,,,,,,,,,,,,,,,,,,,,
,,,,,WIN24_035,21,Female,2024-02-02_14h33.30.972,jersey_experiment_5,2023.2.2,Win32,84.03361345,,,,,,,,,,,,,,,,681.9443,683.2379,683.2381,684.6734,return,0.0936,,75.91145833,,,,,,FBP-YG-81.png,0.4,1.2,38,0.5,,,,,,,,,,,,,0,14,14,37,1,,,,,,,,,,,,,,,,,,,,,,,,,,,,
,,,,,WIN24_035,21,Female,2024-02-02_14h33.30.972,jersey_experiment_5,2023.2.2,Win32,84.03361345,,,,,,,,,,,,,,,,684.6736,685.9674,685.9674,686.9674,return,0.0191,,98.4375,,,,,,FBP-YG-91.png,0.45,1.2,45,0.5,,,,,,,,,,,,,0,15,15,44,1,,,,,,,,,,,,,,,,,,,,,,,,,,,,
,,,,,WIN24_035,21,Female,2024-02-02_14h33.30.972,jersey_experiment_5,2023.2.2,Win32,84.03361345,,,,,,,,,,,,,,,,686.9677,688.7677,688.7678,689.6972,return,0.1301,,51.69270833,,,,,,FBP-PT-19.png,0.4,1.2,58,1,,,,,,,,,,,,,0,16,16,57,1,,,,,,,,,,,,,,,,,,,,,,,,,,,,
,,,,,WIN24_035,21,Female,2024-02-02_14h33.30.972,jersey_experiment_5,2023.2.2,Win32,84.03361345,,,,,,,,,,,,,,,,689.6979,691.4975,691.4976,692.3676,return,0.0117,,98.828125,,,,,,FBP-OG-81.png,0.45,1.2,10,1,,,,,,,,,,,,,0,17,17,9,1,,,,,,,,,,,,,,,,,,,,,,,,,,,,
,,,,,WIN24_035,21,Female,2024-02-02_14h33.30.972,jersey_experiment_5,2023.2.2,Win32,84.03361345,,,,,,,,,,,,,,,,692.3678,693.6619,693.6619,694.7796,return,0.0836,,97.91666667,,,,,,FBP-YG-71.png,0.45,1.2,35,0.5,,,,,,,,,,,,,0,18,18,34,1,,,,,,,,,,,,,,,,,,,,,,,,,,,,
,,,,,WIN24_035,21,Female,2024-02-02_14h33.30.972,jersey_experiment_5,2023.2.2,Win32,84.03361345,,,,,,,,,,,,,,,,694.7798,696.5796,696.5796,698.9564,return,0.4857,,97.39583333,,,,,,FBP-OG-81.png,0.43,1.2,9,1,,,,,,,,,,,,,0,19,19,8,1,,,,,,,,,,,,,,,,,,,,,,,,,,,,
,,,,,WIN24_035,21,Female,2024-02-02_14h33.30.972,jersey_experiment_5,2023.2.2,Win32,84.03361345,,,,,,,,,,,,,,,,698.957,700.7564,700.7564,702.3211,return,0.6241,,50.91145833,,,,,,FBP-PT-18.png,0.4,1.2,53,1,,,,,,,,,,,,,0,20,20,52,1,,,,,,,,,,,,,,,,,,,,,,,,,,,,
,,,,,WIN24_035,21,Female,2024-02-02_14h33.30.972,jersey_experiment_5,2023.2.2,Win32,84.03361345,,,,,,,,,,,,,,,,702.3216,703.6154,703.6155,705.121,return,0.4933,,73.30729167,,,,,,FBP-RB-17.png,0.4,1.2,18,0.5,,,,,,,,,,,,,0,21,21,17,1,,,,,,,,,,,,,,,,,,,,,,,,,,,,
,,,,,WIN24_035,21,Female,2024-02-02_14h33.30.972,jersey_experiment_5,2023.2.2,Win32,84.03361345,,,,,,,,,,,,,,,,705.1212,706.9214,706.9214,707.7918,return,0.1648,,75.91145833,,,,,,FBP-OG-71.png,0.43,1.2,4,1,,,,,,,,,,,,,0,22,22,3,1,,,,,,,,,,,,,,,,,,,,,,,,,,,,
,,,,,WIN24_035,21,Female,2024-02-02_14h33.30.972,jersey_experiment_5,2023.2.2,Win32,84.03361345,,,,,,,,,,,,,,,,707.792,709.5921,709.5921,710.686,return,0.201,,51.171875,,,,,,FBP-OG-91.png,0.37,1.2,12,1,,,,,,,,,,,,,0,23,23,11,1,,,,,,,,,,,,,,,,,,,,,,,,,,,,
,,,,,WIN24_035,21,Female,2024-02-02_14h33.30.972,jersey_experiment_5,2023.2.2,Win32,84.03361345,,,,,,,,,,,,,,,,710.6864,712.4862,712.4863,719.6629,return,2.4229,,61.71875,,,,,,FBP-PT-18.png,0.43,1.2,54,1,,,,,,,,,,,,,0,24,24,53,1,,,,,,,,,,,,,,,,,,,,,,,,,,,,
,,,,,WIN24_035,21,Female,2024-02-02_14h33.30.972,jersey_experiment_5,2023.2.2,Win32,84.03361345,,,,,,,,,,,,,,,,719.6632,720.9574,720.9575,722.0749,return,0.2253,,25.52083333,,,,,,FBP-YG-81.png,0.35,1.2,36,0.5,,,,,,,,,,,,,0,25,25,35,1,,,,,,,,,,,,,,,,,,,,,,,,,,,,
,,,,,WIN24_035,21,Female,2024-02-02_14h33.30.972,jersey_experiment_5,2023.2.2,Win32,84.03361345,,,,,,,,,,,,,,,,722.0752,723.875,723.875,724.4748,return,0.0983,,22.91666667,,,,,,FBP-PT-18.png,0.37,1.2,52,1,,,,,,,,,,,,,0,26,26,51,1,,,,,,,,,,,,,,,,,,,,,,,,,,,,
,,,,,WIN24_035,21,Female,2024-02-02_14h33.30.972,jersey_experiment_5,2023.2.2,Win32,84.03361345,,,,,,,,,,,,,,,,724.4751,726.2752,726.2753,727.3103,return,0.0592,,74.73958333,,,,,,FBP-PT-18.png,0.45,1.2,55,1,,,,,,,,,,,,,0,27,27,54,1,,,,,,,,,,,,,,,,,,,,,,,,,,,,
,,,,,WIN24_035,21,Female,2024-02-02_14h33.30.972,jersey_experiment_5,2023.2.2,Win32,84.03361345,,,,,,,,,,,,,,,,727.3109,728.6044,728.6045,729.6751,return,0.0511,,25.26041667,,,,,,FBP-RB-19.png,0.37,1.2,27,0.5,,,,,,,,,,,,,0,28,28,26,1,,,,,,,,,,,,,,,,,,,,,,,,,,,,
,,,,,WIN24_035,21,Female,2024-02-02_14h33.30.972,jersey_experiment_5,2023.2.2,Win32,84.03361345,,,,,,,,,,,,,,,,729.6753,730.9694,730.9694,731.8045,return,0.0495,,74.34895833,,,,,,FBP-RB-18.png,0.45,1.2,25,0.5,,,,,,,,,,,,,0,29,29,24,1,,,,,,,,,,,,,,,,,,,,,,,,,,,,
,,,,,WIN24_035,21,Female,2024-02-02_14h33.30.972,jersey_experiment_5,2023.2.2,Win32,84.03361345,,,,,,,,,,,,,,,,731.8047,733.0989,733.0989,733.8634,return,0.0158,,23.95833333,,,,,,FBP-RB-18.png,0.37,1.2,22,0.5,,,,,,,,,,,,,0,30,30,21,1,,,,,,,,,,,,,,,,,,,,,,,,,,,,
,,,,,WIN24_035,21,Female,2024-02-02_14h33.30.972,jersey_experiment_5,2023.2.2,Win32,84.03361345,,,,,,,,,,,,,,,,733.8636,735.1577,735.1578,736.1341,return,0.0679,,99.73958333,,,,,,FBP-RB-17.png,0.45,1.2,20,0.5,,,,,,,,,,,,,0,31,31,19,1,,,,,,,,,,,,,,,,,,,,,,,,,,,,
,,,,,WIN24_035,21,Female,2024-02-02_14h33.30.972,jersey_experiment_5,2023.2.2,Win32,84.03361345,,,,,,,,,,,,,,,,736.1343,737.4283,737.4284,738.1932,return,0.0829,,74.21875,,,,,,FBP-YG-81.png,0.37,1.2,37,0.5,,,,,,,,,,,,,0,32,32,36,1,,,,,,,,,,,,,,,,,,,,,,,,,,,,
,,,,,WIN24_035,21,Female,2024-02-02_14h33.30.972,jersey_experiment_5,2023.2.2,Win32,84.03361345,,,,,,,,,,,,,,,,738.1934,739.4871,739.4871,740.3579,return,0.0331,,98.95833333,,,,,,FBP-RB-19.png,0.43,1.2,29,0.5,,,,,,,,,,,,,0,33,33,28,1,,,,,,,,,,,,,,,,,,,,,,,,,,,,
,,,,,WIN24_035,21,Female,2024-02-02_14h33.30.972,jersey_experiment_5,2023.2.2,Win32,84.03361345,,,,,,,,,,,,,,,,740.358,741.6521,741.6521,742.9343,return,0.0677,,24.34895833,,,,,,FBP-RB-17.png,0.35,1.2,16,0.5,,,,,,,,,,,,,0,34,34,15,1,,,,,,,,,,,,,,,,,,,,,,,,,,,,
,,,,,WIN24_035,21,Female,2024-02-02_14h33.30.972,jersey_experiment_5,2023.2.2,Win32,84.03361345,,,,,,,,,,,,,,,,742.9345,744.7344,744.7345,745.9578,return,0.3622,,47.78645833,,,,,,FBP-PT-19.png,0.37,1.2,57,1,,,,,,,,,,,,,0,35,35,56,1,,,,,,,,,,,,,,,,,,,,,,,,,,,,
,,,,,WIN24_035,21,Female,2024-02-02_14h33.30.972,jersey_experiment_5,2023.2.2,Win32,84.03361345,,,,,,,,,,,,,,,,745.9581,747.758,747.7581,748.3347,return,0.0593,,48.56770833,,,,,,FBP-OG-81.png,0.37,1.2,7,1,,,,,,,,,,,,,0,36,36,6,1,,,,,,,,,,,,,,,,,,,,,,,,,,,,
,,,,,WIN24_035,21,Female,2024-02-02_14h33.30.972,jersey_experiment_5,2023.2.2,Win32,84.03361345,,,,,,,,,,,,,,,,748.3352,749.6286,749.6287,751.558,return,0.3267,,62.63020833,,,,,,FBP-YG-91.png,0.4,1.2,43,0.5,,,,,,,,,,,,,0,37,37,42,1,,,,,,,,,,,,,,,,,,,,,,,,,,,,
,,,,,WIN24_035,21,Female,2024-02-02_14h33.30.972,jersey_experiment_5,2023.2.2,Win32,84.03361345,,,,,,,,,,,,,,,,751.5583,753.3582,753.3583,754.3465,return,0.2045,,51.69270833,,,,,,FBP-OG-81.png,0.35,1.2,6,1,,,,,,,,,,,,,0,38,38,5,1,,,,,,,,,,,,,,,,,,,,,,,,,,,,
,,,,,WIN24_035,21,Female,2024-02-02_14h33.30.972,jersey_experiment_5,2023.2.2,Win32,84.03361345,,,,,,,,,,,,,,,,754.3469,756.1466,756.1467,757.8643,return,0.2303,,74.86979167,,,,,,FBP-OG-71.png,0.45,1.2,5,1,,,,,,,,,,,,,0,39,39,4,1,,,,,,,,,,,,,,,,,,,,,,,,,,,,
,,,,,WIN24_035,21,Female,2024-02-02_14h33.30.972,jersey_experiment_5,2023.2.2,Win32,84.03361345,,,,,,,,,,,,,,,,757.8648,759.6645,759.6645,760.5234,return,0.0857,,74.34895833,,,,,,FBP-PT-19.png,0.43,1.2,59,1,,,,,,,,,,,,,0,40,40,58,1,,,,,,,,,,,,,,,,,,,,,,,,,,,,
,,,,,WIN24_035,21,Female,2024-02-02_14h33.30.972,jersey_experiment_5,2023.2.2,Win32,84.03361345,,,,,,,,,,,,,,,,760.5242,761.8183,761.8184,763.1353,return,0.2122,,52.99479167,,,,,,FBP-YG-91.png,0.37,1.2,42,0.5,,,,,,,,,,,,,0,41,41,41,1,,,,,,,,,,,,,,,,,,,,,,,,,,,,
,,,,,WIN24_035,21,Female,2024-02-02_14h33.30.972,jersey_experiment_5,2023.2.2,Win32,84.03361345,,,,,,,,,,,,,,,,763.1357,764.9355,764.9356,766.3353,return,0.541,,74.21875,,,,,,FBP-OG-91.png,0.4,1.2,13,1,,,,,,,,,,,,,0,42,42,12,1,,,,,,,,,,,,,,,,,,,,,,,,,,,,
,,,,,WIN24_035,21,Female,2024-02-02_14h33.30.972,jersey_experiment_5,2023.2.2,Win32,84.03361345,,,,,,,,,,,,,,,,766.3357,768.1352,768.1352,771.1473,return,0.1568,,51.953125,,,,,,FBP-OG-91.png,0.43,1.2,14,1,,,,,,,,,,,,,0,43,43,13,1,,,,,,,,,,,,,,,,,,,,,,,,,,,,
,,,,,WIN24_035,21,Female,2024-02-02_14h33.30.972,jersey_experiment_5,2023.2.2,Win32,84.03361345,,,,,,,,,,,,,,,,771.1478,772.4414,772.4415,773.2413,return,0.0883,,25.26041667,,,,,,FBP-RB-19.png,0.35,1.2,26,0.5,,,,,,,,,,,,,0,44,44,25,1,,,,,,,,,,,,,,,,,,,,,,,,,,,,
,,,,,WIN24_035,21,Female,2024-02-02_14h33.30.972,jersey_experiment_5,2023.2.2,Win32,84.03361345,,,,,,,,,,,,,,,,773.2416,775.0414,775.0414,775.5474,return,0.0858,,25.13020833,,,,,,FBP-PT-19.png,0.35,1.2,56,1,,,,,,,,,,,,,0,45,45,55,1,,,,,,,,,,,,,,,,,,,,,,,,,,,,
,,,,,WIN24_035,21,Female,2024-02-02_14h33.30.972,jersey_experiment_5,2023.2.2,Win32,84.03361345,,,,,,,,,,,,,,,,775.5477,776.8415,776.8415,777.818,return,0.1229,,24.609375,,,,,,FBP-YG-71.png,0.37,1.2,32,0.5,,,,,,,,,,,,,0,46,46,31,1,,,,,,,,,,,,,,,,,,,,,,,,,,,,
,,,,,WIN24_035,21,Female,2024-02-02_14h33.30.972,jersey_experiment_5,2023.2.2,Win32,84.03361345,,,,,,,,,,,,,,,,777.8182,779.1123,779.1123,780.3005,return,0.014,,98.828125,,,,,,FBP-YG-71.png,0.43,1.2,34,0.5,,,,,,,,,,,,,0,47,47,33,1,,,,,,,,,,,,,,,,,,,,,,,,,,,,
,,,,,WIN24_035,21,Female,2024-02-02_14h33.30.972,jersey_experiment_5,2023.2.2,Win32,84.03361345,,,,,,,,,,,,,,,,780.3008,782.1005,782.1005,783.2065,return,0.0414,,47.91666667,,,,,,FBP-OG-71.png,0.35,1.2,1,1,,,,,,,,,,,,,0,48,48,0,1,,,,,,,,,,,,,,,,,,,,,,,,,,,,
,,,,,WIN24_035,21,Female,2024-02-02_14h33.30.972,jersey_experiment_5,2023.2.2,Win32,84.03361345,,,,,,,,,,,,,,,,783.2069,785.0066,785.0066,785.5831,return,0.1294,,48.30729167,,,,,,FBP-OG-71.png,0.37,1.2,2,1,,,,,,,,,,,,,0,49,49,1,1,,,,,,,,,,,,,,,,,,,,,,,,,,,,
,,,,,WIN24_035,21,Female,2024-02-02_14h33.30.972,jersey_experiment_5,2023.2.2,Win32,84.03361345,,,,,,,,,,,,,,,,785.5836,786.8772,786.8773,787.8893,return,0.0081,,63.28125,,,,,,FBP-RB-19.png,0.4,1.2,28,0.5,,,,,,,,,,,,,0,50,50,27,1,,,,,,,,,,,,,,,,,,,,,,,,,,,,
,,,,,WIN24_035,21,Female,2024-02-02_14h33.30.972,jersey_experiment_5,2023.2.2,Win32,84.03361345,,,,,,,,,,,,,,,,787.8896,789.1833,789.1833,789.9952,return,0.0276,,74.21875,,,,,,FBP-YG-71.png,0.4,1.2,33,0.5,,,,,,,,,,,,,0,51,51,32,1,,,,,,,,,,,,,,,,,,,,,,,,,,,,
,,,,,WIN24_035,21,Female,2024-02-02_14h33.30.972,jersey_experiment_5,2023.2.2,Win32,84.03361345,,,,,,,,,,,,,,,,789.9955,791.2891,791.2891,792.0893,return,0.0647,,74.609375,,,,,,FBP-RB-17.png,0.43,1.2,19,0.5,,,,,,,,,,,,,0,52,52,18,1,,,,,,,,,,,,,,,,,,,,,,,,,,,,
,,,,,WIN24_035,21,Female,2024-02-02_14h33.30.972,jersey_experiment_5,2023.2.2,Win32,84.03361345,,,,,,,,,,,,,,,,792.0899,793.8894,793.8894,794.7128,return,0.3469,,74.47916667,,,,,,FBP-OG-71.png,0.4,1.2,3,1,,,,,,,,,,,,,0,53,53,2,1,,,,,,,,,,,,,,,,,,,,,,,,,,,,
,,,,,WIN24_035,21,Female,2024-02-02_14h33.30.972,jersey_experiment_5,2023.2.2,Win32,84.03361345,,,,,,,,,,,,,,,,794.713,796.007,796.007,797.5482,return,0.6736,,73.69791667,,,,,,FBP-RB-17.png,0.37,1.2,17,0.5,,,,,,,,,,,,,0,54,54,16,1,,,,,,,,,,,,,,,,,,,,,,,,,,,,
,,,,,WIN24_035,21,Female,2024-02-02_14h33.30.972,jersey_experiment_5,2023.2.2,Win32,84.03361345,,,,,,,,,,,,,,,,797.5486,798.8424,798.8424,805.8191,return,1.3305,,51.171875,,,,,,FBP-RB-18.png,0.35,1.2,21,0.5,,,,,,,,,,,,,0,55,55,20,1,,,,,,,,,,,,,,,,,,,,,,,,,,,,
,,,,,WIN24_035,21,Female,2024-02-02_14h33.30.972,jersey_experiment_5,2023.2.2,Win32,84.03361345,,,,,,,,,,,,,,,,805.8193,807.6192,807.6192,808.2311,return,0.2916,,51.04166667,,,,,,FBP-PT-17.png,0.4,1.2,48,1,,,,,,,,,,,,,0,56,56,47,1,,,,,,,,,,,,,,,,,,,,,,,,,,,,
,,,,,WIN24_035,21,Female,2024-02-02_14h33.30.972,jersey_experiment_5,2023.2.2,Win32,84.03361345,,,,,,,,,,,,,,,,808.2313,809.5252,809.5252,810.0781,return,0.127,,50.91145833,,,,,,FBP-YG-71.png,0.35,1.2,31,0.5,,,,,,,,,,,,,0,57,57,30,1,,,,,,,,,,,,,,,,,,,,,,,,,,,,
,,,,,WIN24_035,21,Female,2024-02-02_14h33.30.972,jersey_experiment_5,2023.2.2,Win32,84.03361345,,,,,,,,,,,,,,,,810.0783,811.8782,811.8782,812.7606,return,0.1011,,23.69791667,,,,,,FBP-PT-17.png,0.35,1.2,46,1,,,,,,,,,,,,,0,58,58,45,1,,,,,,,,,,,,,,,,,,,,,,,,,,,,
,,,,,WIN24_035,21,Female,2024-02-02_14h33.30.972,jersey_experiment_5,2023.2.2,Win32,84.03361345,,,,,,,,,,,,,,,,812.7611,814.5608,814.5609,815.0076,return,0.0586,,49.47916667,,,,,,FBP-OG-81.png,0.4,1.2,8,1,,,,,,,,,,,,,0,59,59,7,1,,,,,,,,,,,,,,,,,,,,,,,,,,,,
,,,,,WIN24_035,21,Female,2024-02-02_14h33.30.972,jersey_experiment_5,2023.2.2,Win32,84.03361345,,,,,,,,,,,,,,,,815.0099,816.3019,816.3019,817.8077,return,0.0937,,1.822916667,,,,,,FBP-RB-81.png,0.35,1.2,21,0.5,,,,,,,,,,,,,,,,,,0,0,0,20,1,,,,,,,,,,,,,,,,,,,,,,,
,,,,,WIN24_035,21,Female,2024-02-02_14h33.30.972,jersey_experiment_5,2023.2.2,Win32,84.03361345,,,,,,,,,,,,,,,,817.8081,819.1021,819.1021,820.3609,return,0.065,,99.73958333,,,,,,FBP-YG-17.png,0.43,1.2,34,0.5,,,,,,,,,,,,,,,,,,0,1,1,33,1,,,,,,,,,,,,,,,,,,,,,,,
,,,,,WIN24_035,21,Female,2024-02-02_14h33.30.972,jersey_experiment_5,2023.2.2,Win32,84.03361345,,,,,,,,,,,,,,,,820.3614,822.1608,822.1609,822.6785,return,0.1143,,99.21875,,,,,,FBP-OG-17.png,0.43,1.2,4,1,,,,,,,,,,,,,,,,,,0,2,2,3,1,,,,,,,,,,,,,,,,,,,,,,,
,,,,,WIN24_035,21,Female,2024-02-02_14h33.30.972,jersey_experiment_5,2023.2.2,Win32,84.03361345,,,,,,,,,,,,,,,,822.6787,823.9727,823.9728,825.6789,return,0.6352,,24.34895833,,,,,,FBP-YG-19.png,0.35,1.2,41,0.5,,,,,,,,,,,,,,,,,,0,3,3,40,1,,,,,,,,,,,,,,,,,,,,,,,
,,,,,WIN24_035,21,Female,2024-02-02_14h33.30.972,jersey_experiment_5,2023.2.2,Win32,84.03361345,,,,,,,,,,,,,,,,825.6793,827.4789,827.4789,828.3966,return,0.0484,,24.73958333,,,,,,FBP-OG-18.png,0.35,1.2,6,1,,,,,,,,,,,,,,,,,,0,4,4,5,1,,,,,,,,,,,,,,,,,,,,,,,
,,,,,WIN24_035,21,Female,2024-02-02_14h33.30.972,jersey_experiment_5,2023.2.2,Win32,84.03361345,,,,,,,,,,,,,,,,828.3968,830.1965,830.1965,837.1027,return,1.5317,,75.13020833,,,,,,FBP-OG-17.png,0.37,1.2,2,1,,,,,,,,,,,,,,,,,,0,5,5,1,1,,,,,,,,,,,,,,,,,,,,,,,
,,,,,WIN24_035,21,Female,2024-02-02_14h33.30.972,jersey_experiment_5,2023.2.2,Win32,84.03361345,,,,,,,,,,,,,,,,837.103,838.3967,838.3968,840.1503,return,0.5592,,50.65104167,,,,,,FBP-RB-81.png,0.37,1.2,22,0.5,,,,,,,,,,,,,,,,,,0,6,6,21,1,,,,,,,,,,,,,,,,,,,,,,,
,,,,,WIN24_035,21,Female,2024-02-02_14h33.30.972,jersey_experiment_5,2023.2.2,Win32,84.03361345,,,,,,,,,,,,,,,,840.1505,841.95,841.95,842.8559,return,0.2051,,99.47916667,,,,,,FBP-OG-19.png,0.45,1.2,15,1,,,,,,,,,,,,,,,,,,0,7,7,14,1,,,,,,,,,,,,,,,,,,,,,,,
,,,,,WIN24_035,21,Female,2024-02-02_14h33.30.972,jersey_experiment_5,2023.2.2,Win32,84.03361345,,,,,,,,,,,,,,,,842.8561,844.6559,844.6559,845.2795,return,0.0585,,99.21875,,,,,,FBP-PT-71.png,0.45,1.2,50,1,,,,,,,,,,,,,,,,,,0,8,8,49,1,,,,,,,,,,,,,,,,,,,,,,,
,,,,,WIN24_035,21,Female,2024-02-02_14h33.30.972,jersey_experiment_5,2023.2.2,Win32,84.03361345,,,,,,,,,,,,,,,,845.2799,847.0795,847.0796,848.1031,return,0.0164,,24.08854167,,,,,,FBP-PT-71.png,0.35,1.2,46,1,,,,,,,,,,,,,,,,,,0,9,9,45,1,,,,,,,,,,,,,,,,,,,,,,,
,,,,,WIN24_035,21,Female,2024-02-02_14h33.30.972,jersey_experiment_5,2023.2.2,Win32,84.03361345,,,,,,,,,,,,,,,,848.1033,849.3973,849.3973,850.9268,return,0.1173,,63.93229167,,,,,,FBP-YG-17.png,0.4,1.2,33,0.5,,,,,,,,,,,,,,,,,,0,10,10,32,1,,,,,,,,,,,,,,,,,,,,,,,
,,,,,WIN24_035,21,Female,2024-02-02_14h33.30.972,jersey_experiment_5,2023.2.2,Win32,84.03361345,,,,,,,,,,,,,,,,850.9271,852.2207,852.2207,852.8797,return,0.0707,,74.47916667,,,,,,FBP-YG-19.png,0.43,1.2,44,0.5,,,,,,,,,,,,,,,,,,0,11,11,43,1,,,,,,,,,,,,,,,,,,,,,,,
,,,,,WIN24_035,21,Female,2024-02-02_14h33.30.972,jersey_experiment_5,2023.2.2,Win32,84.03361345,,,,,,,,,,,,,,,,852.8799,854.6801,854.6801,855.3033,return,0.0785,,99.21875,,,,,,FBP-OG-17.png,0.45,1.2,5,1,,,,,,,,,,,,,,,,,,0,12,12,4,1,,,,,,,,,,,,,,,,,,,,,,,
,,,,,WIN24_035,21,Female,2024-02-02_14h33.30.972,jersey_experiment_5,2023.2.2,Win32,84.03361345,,,,,,,,,,,,,,,,855.3036,856.5977,856.5978,857.2565,return,0.0069,,97.91666667,,,,,,FBP-RB-81.png,0.45,1.2,25,0.5,,,,,,,,,,,,,,,,,,0,13,13,24,1,,,,,,,,,,,,,,,,,,,,,,,
,,,,,WIN24_035,21,Female,2024-02-02_14h33.30.972,jersey_experiment_5,2023.2.2,Win32,84.03361345,,,,,,,,,,,,,,,,857.2569,859.0566,859.0566,860.08,return,0.0237,,70.18229167,,,,,,FBP-PT-81.png,0.37,1.2,52,1,,,,,,,,,,,,,,,,,,0,14,14,51,1,,,,,,,,,,,,,,,,,,,,,,,
,,,,,WIN24_035,21,Female,2024-02-02_14h33.30.972,jersey_experiment_5,2023.2.2,Win32,84.03361345,,,,,,,,,,,,,,,,860.0805,861.3742,861.3742,862.1506,return,0.0672,,51.30208333,,,,,,FBP-YG-17.png,0.37,1.2,32,0.5,,,,,,,,,,,,,,,,,,0,15,15,31,1,,,,,,,,,,,,,,,,,,,,,,,
,,,,,WIN24_035,21,Female,2024-02-02_14h33.30.972,jersey_experiment_5,2023.2.2,Win32,84.03361345,,,,,,,,,,,,,,,,862.1508,863.4448,863.4448,864.5389,return,0.6159,,39.453125,,,,,,FBP-RB-71.png,0.35,1.2,16,0.5,,,,,,,,,,,,,,,,,,0,16,16,15,1,,,,,,,,,,,,,,,,,,,,,,,
,,,,,WIN24_035,21,Female,2024-02-02_14h33.30.972,jersey_experiment_5,2023.2.2,Win32,84.03361345,,,,,,,,,,,,,,,,864.5392,865.8334,865.8334,866.4802,return,0.0939,,37.76041667,,,,,,FBP-RB-91.png,0.35,1.2,26,0.5,,,,,,,,,,,,,,,,,,0,17,17,25,1,,,,,,,,,,,,,,,,,,,,,,,
,,,,,WIN24_035,21,Female,2024-02-02_14h33.30.972,jersey_experiment_5,2023.2.2,Win32,84.03361345,,,,,,,,,,,,,,,,866.4804,868.2806,868.2806,869.9629,return,0.2632,,99.21875,,,,,,FBP-PT-91.png,0.45,1.2,60,1,,,,,,,,,,,,,,,,,,0,18,18,59,1,,,,,,,,,,,,,,,,,,,,,,,
,,,,,WIN24_035,21,Female,2024-02-02_14h33.30.972,jersey_experiment_5,2023.2.2,Win32,84.03361345,,,,,,,,,,,,,,,,869.9637,871.257,871.257,873.1274,return,0.2657,,52.08333333,,,,,,FBP-YG-18.png,0.4,1.2,38,0.5,,,,,,,,,,,,,,,,,,0,19,19,37,1,,,,,,,,,,,,,,,,,,,,,,,
,,,,,WIN24_035,21,Female,2024-02-02_14h33.30.972,jersey_experiment_5,2023.2.2,Win32,84.03361345,,,,,,,,,,,,,,,,873.1277,874.9275,874.9275,876.5981,return,0.1265,,51.69270833,,,,,,FBP-OG-18.png,0.43,1.2,9,1,,,,,,,,,,,,,,,,,,0,20,20,8,1,,,,,,,,,,,,,,,,,,,,,,,
,,,,,WIN24_035,21,Female,2024-02-02_14h33.30.972,jersey_experiment_5,2023.2.2,Win32,84.03361345,,,,,,,,,,,,,,,,876.5984,878.3983,878.3983,878.9749,return,0.1995,,51.43229167,,,,,,FBP-OG-18.png,0.37,1.2,7,1,,,,,,,,,,,,,,,,,,0,21,21,6,1,,,,,,,,,,,,,,,,,,,,,,,
,,,,,WIN24_035,21,Female,2024-02-02_14h33.30.972,jersey_experiment_5,2023.2.2,Win32,84.03361345,,,,,,,,,,,,,,,,878.9752,880.7749,880.7749,881.7868,return,0.3805,,51.43229167,,,,,,FBP-PT-81.png,0.4,1.2,53,1,,,,,,,,,,,,,,,,,,0,22,22,52,1,,,,,,,,,,,,,,,,,,,,,,,
,,,,,WIN24_035,21,Female,2024-02-02_14h33.30.972,jersey_experiment_5,2023.2.2,Win32,84.03361345,,,,,,,,,,,,,,,,881.7872,883.5869,883.5869,884.3634,return,0.1308,,27.47395833,,,,,,FBP-OG-19.png,0.35,1.2,11,1,,,,,,,,,,,,,,,,,,0,23,23,10,1,,,,,,,,,,,,,,,,,,,,,,,
,,,,,WIN24_035,21,Female,2024-02-02_14h33.30.972,jersey_experiment_5,2023.2.2,Win32,84.03361345,,,,,,,,,,,,,,,,884.3636,886.1635,886.1635,886.634,return,0.0878,,24.21875,,,,,,FBP-OG-17.png,0.35,1.2,1,1,,,,,,,,,,,,,,,,,,0,24,24,0,1,,,,,,,,,,,,,,,,,,,,,,,
,,,,,WIN24_035,21,Female,2024-02-02_14h33.30.972,jersey_experiment_5,2023.2.2,Win32,84.03361345,,,,,,,,,,,,,,,,886.6342,887.9281,887.9281,889.7046,return,0.1008,,53.77604167,,,,,,FBP-RB-81.png,0.4,1.2,23,0.5,,,,,,,,,,,,,,,,,,0,25,25,22,1,,,,,,,,,,,,,,,,,,,,,,,
,,,,,WIN24_035,21,Female,2024-02-02_14h33.30.972,jersey_experiment_5,2023.2.2,Win32,84.03361345,,,,,,,,,,,,,,,,889.7049,890.9989,890.9989,891.5282,return,0.1361,,54.55729167,,,,,,FBP-RB-91.png,0.37,1.2,27,0.5,,,,,,,,,,,,,,,,,,0,26,26,26,1,,,,,,,,,,,,,,,,,,,,,,,
,,,,,WIN24_035,21,Female,2024-02-02_14h33.30.972,jersey_experiment_5,2023.2.2,Win32,84.03361345,,,,,,,,,,,,,,,,891.5285,892.8226,892.8226,893.9284,return,0.1716,,72.00520833,,,,,,FBP-RB-71.png,0.4,1.2,18,0.5,,,,,,,,,,,,,,,,,,0,27,27,17,1,,,,,,,,,,,,,,,,,,,,,,,
,,,,,WIN24_035,21,Female,2024-02-02_14h33.30.972,jersey_experiment_5,2023.2.2,Win32,84.03361345,,,,,,,,,,,,,,,,893.9287,895.7284,895.7284,896.705,return,0.2504,,56.77083333,,,,,,FBP-PT-91.png,0.37,1.2,57,1,,,,,,,,,,,,,,,,,,0,28,28,56,1,,,,,,,,,,,,,,,,,,,,,,,
,,,,,WIN24_035,21,Female,2024-02-02_14h33.30.972,jersey_experiment_5,2023.2.2,Win32,84.03361345,,,,,,,,,,,,,,,,896.7052,898.505,898.5051,899.0815,return,0.0534,,91.92708333,,,,,,FBP-OG-18.png,0.45,1.2,10,1,,,,,,,,,,,,,,,,,,0,29,29,9,1,,,,,,,,,,,,,,,,,,,,,,,
,,,,,WIN24_035,21,Female,2024-02-02_14h33.30.972,jersey_experiment_5,2023.2.2,Win32,84.03361345,,,,,,,,,,,,,,,,899.0816,900.8816,900.8816,902.0935,return,0.1902,,56.38020833,,,,,,FBP-PT-81.png,0.35,1.2,51,1,,,,,,,,,,,,,,,,,,0,30,30,50,1,,,,,,,,,,,,,,,,,,,,,,,
,,,,,WIN24_035,21,Female,2024-02-02_14h33.30.972,jersey_experiment_5,2023.2.2,Win32,84.03361345,,,,,,,,,,,,,,,,902.0937,903.3875,903.3876,904.2817,return,0.1,,99.609375,,,,,,FBP-RB-71.png,0.43,1.2,19,0.5,,,,,,,,,,,,,,,,,,0,31,31,18,1,,,,,,,,,,,,,,,,,,,,,,,
,,,,,WIN24_035,21,Female,2024-02-02_14h33.30.972,jersey_experiment_5,2023.2.2,Win32,84.03361345,,,,,,,,,,,,,,,,904.282,905.5757,905.5757,906.5876,return,0.1096,,73.046875,,,,,,FBP-YG-19.png,0.4,1.2,43,0.5,,,,,,,,,,,,,,,,,,0,32,32,42,1,,,,,,,,,,,,,,,,,,,,,,,
,,,,,WIN24_035,21,Female,2024-02-02_14h33.30.972,jersey_experiment_5,2023.2.2,Win32,84.03361345,,,,,,,,,,,,,,,,906.5878,908.3877,908.3877,909.6231,return,0.4205,,73.56770833,,,,,,FBP-PT-71.png,0.37,1.2,47,1,,,,,,,,,,,,,,,,,,0,33,33,46,1,,,,,,,,,,,,,,,,,,,,,,,
,,,,,WIN24_035,21,Female,2024-02-02_14h33.30.972,jersey_experiment_5,2023.2.2,Win32,84.03361345,,,,,,,,,,,,,,,,909.6232,910.9174,910.9174,911.6937,return,0.0485,,99.609375,,,,,,FBP-RB-71.png,0.45,1.2,20,0.5,,,,,,,,,,,,,,,,,,0,34,34,19,1,,,,,,,,,,,,,,,,,,,,,,,
,,,,,WIN24_035,21,Female,2024-02-02_14h33.30.972,jersey_experiment_5,2023.2.2,Win32,84.03361345,,,,,,,,,,,,,,,,911.6941,912.9881,912.9881,914.2233,return,0.0592,,97.91666667,,,,,,FBP-RB-91.png,0.45,1.2,30,0.5,,,,,,,,,,,,,,,,,,0,35,35,29,1,,,,,,,,,,,,,,,,,,,,,,,
,,,,,WIN24_035,21,Female,2024-02-02_14h33.30.972,jersey_experiment_5,2023.2.2,Win32,84.03361345,,,,,,,,,,,,,,,,914.2236,916.0233,916.0233,917.2117,return,0.2273,,97.39583333,,,,,,FBP-PT-91.png,0.43,1.2,59,1,,,,,,,,,,,,,,,,,,0,36,36,58,1,,,,,,,,,,,,,,,,,,,,,,,
,,,,,WIN24_035,21,Female,2024-02-02_14h33.30.972,jersey_experiment_5,2023.2.2,Win32,84.03361345,,,,,,,,,,,,,,,,917.2123,918.5056,918.5057,919.4824,return,0.096,,49.47916667,,,,,,FBP-YG-18.png,0.37,1.2,37,0.5,,,,,,,,,,,,,,,,,,0,37,37,36,1,,,,,,,,,,,,,,,,,,,,,,,
,,,,,WIN24_035,21,Female,2024-02-02_14h33.30.972,jersey_experiment_5,2023.2.2,Win32,84.03361345,,,,,,,,,,,,,,,,919.4826,920.7764,920.7764,922.0473,return,0.1762,,24.34895833,,,,,,FBP-YG-19.png,0.37,1.2,42,0.5,,,,,,,,,,,,,,,,,,0,38,38,41,1,,,,,,,,,,,,,,,,,,,,,,,
,,,,,WIN24_035,21,Female,2024-02-02_14h33.30.972,jersey_experiment_5,2023.2.2,Win32,84.03361345,,,,,,,,,,,,,,,,922.0477,923.3415,923.3415,925.0706,return,0.127,,76.5625,,,,,,FBP-YG-18.png,0.45,1.2,40,0.5,,,,,,,,,,,,,,,,,,0,39,39,39,1,,,,,,,,,,,,,,,,,,,,,,,
,,,,,WIN24_035,21,Female,2024-02-02_14h33.30.972,jersey_experiment_5,2023.2.2,Win32,84.03361345,,,,,,,,,,,,,,,,925.0711,926.8709,926.8709,927.9766,return,0.089,,75.65104167,,,,,,FBP-OG-19.png,0.43,1.2,14,1,,,,,,,,,,,,,,,,,,0,40,40,13,1,,,,,,,,,,,,,,,,,,,,,,,
,,,,,WIN24_035,21,Female,2024-02-02_14h33.30.972,jersey_experiment_5,2023.2.2,Win32,84.03361345,,,,,,,,,,,,,,,,927.9768,929.7771,929.7772,930.9298,return,0.5652,,24.47916667,,,,,,FBP-PT-91.png,0.35,1.2,56,1,,,,,,,,,,,,,,,,,,0,41,41,55,1,,,,,,,,,,,,,,,,,,,,,,,
,,,,,WIN24_035,21,Female,2024-02-02_14h33.30.972,jersey_experiment_5,2023.2.2,Win32,84.03361345,,,,,,,,,,,,,,,,930.9303,932.2237,932.2238,933.4357,return,0.18,,95.96354167,,,,,,FBP-YG-19.png,0.45,1.2,45,0.5,,,,,,,,,,,,,,,,,,0,42,42,44,1,,,,,,,,,,,,,,,,,,,,,,,
,,,,,WIN24_035,21,Female,2024-02-02_14h33.30.972,jersey_experiment_5,2023.2.2,Win32,84.03361345,,,,,,,,,,,,,,,,933.4359,935.2359,935.2359,936.0123,return,0.2003,,51.04166667,,,,,,FBP-PT-71.png,0.4,1.2,48,1,,,,,,,,,,,,,,,,,,0,43,43,47,1,,,,,,,,,,,,,,,,,,,,,,,
,,,,,WIN24_035,21,Female,2024-02-02_14h33.30.972,jersey_experiment_5,2023.2.2,Win32,84.03361345,,,,,,,,,,,,,,,,936.0125,937.8124,937.8125,938.4595,return,0.2273,,52.99479167,,,,,,FBP-PT-71.png,0.43,1.2,49,1,,,,,,,,,,,,,,,,,,0,44,44,48,1,,,,,,,,,,,,,,,,,,,,,,,
,,,,,WIN24_035,21,Female,2024-02-02_14h33.30.972,jersey_experiment_5,2023.2.2,Win32,84.03361345,,,,,,,,,,,,,,,,938.4598,939.7537,939.7537,940.7304,return,0.0988,,47.91666667,,,,,,FBP-YG-17.png,0.35,1.2,31,0.5,,,,,,,,,,,,,,,,,,0,45,45,30,1,,,,,,,,,,,,,,,,,,,,,,,
,,,,,WIN24_035,21,Female,2024-02-02_14h33.30.972,jersey_experiment_5,2023.2.2,Win32,84.03361345,,,,,,,,,,,,,,,,940.731,942.0245,942.0245,942.8008,return,0.2568,,37.5,,,,,,FBP-YG-18.png,0.35,1.2,36,0.5,,,,,,,,,,,,,,,,,,0,46,46,35,1,,,,,,,,,,,,,,,,,,,,,,,
,,,,,WIN24_035,21,Female,2024-02-02_14h33.30.972,jersey_experiment_5,2023.2.2,Win32,84.03361345,,,,,,,,,,,,,,,,942.801,944.095,944.095,945.7068,return,0.6258,,63.671875,,,,,,FBP-RB-91.png,0.43,1.2,29,0.5,,,,,,,,,,,,,,,,,,0,47,47,28,1,,,,,,,,,,,,,,,,,,,,,,,
,,,,,WIN24_035,21,Female,2024-02-02_14h33.30.972,jersey_experiment_5,2023.2.2,Win32,84.03361345,,,,,,,,,,,,,,,,945.707,947.5069,947.5069,948.6833,return,0.4158,,79.94791667,,,,,,FBP-PT-81.png,0.45,1.2,55,1,,,,,,,,,,,,,,,,,,0,48,48,54,1,,,,,,,,,,,,,,,,,,,,,,,
,,,,,WIN24_035,21,Female,2024-02-02_14h33.30.972,jersey_experiment_5,2023.2.2,Win32,84.03361345,,,,,,,,,,,,,,,,948.6836,950.4834,950.4834,951.1187,return,0.0829,,75,,,,,,FBP-OG-19.png,0.4,1.2,13,1,,,,,,,,,,,,,,,,,,0,49,49,12,1,,,,,,,,,,,,,,,,,,,,,,,
,,,,,WIN24_035,21,Female,2024-02-02_14h33.30.972,jersey_experiment_5,2023.2.2,Win32,84.03361345,,,,,,,,,,,,,,,,951.1189,952.4128,952.4128,954.4247,return,1.2889,,57.29166667,,,,,,FBP-RB-71.png,0.37,1.2,17,0.5,,,,,,,,,,,,,,,,,,0,50,50,16,1,,,,,,,,,,,,,,,,,,,,,,,
,,,,,WIN24_035,21,Female,2024-02-02_14h33.30.972,jersey_experiment_5,2023.2.2,Win32,84.03361345,,,,,,,,,,,,,,,,954.425,956.2251,956.2251,957.7427,return,0.4602,,67.96875,,,,,,FBP-OG-19.png,0.37,1.2,12,1,,,,,,,,,,,,,,,,,,0,51,51,11,1,,,,,,,,,,,,,,,,,,,,,,,
,,,,,WIN24_035,21,Female,2024-02-02_14h33.30.972,jersey_experiment_5,2023.2.2,Win32,84.03361345,,,,,,,,,,,,,,,,957.743,959.5425,959.5425,960.2721,return,0.1527,,75.13020833,,,,,,FBP-OG-18.png,0.4,1.2,8,1,,,,,,,,,,,,,,,,,,0,52,52,7,1,,,,,,,,,,,,,,,,,,,,,,,
,,,,,WIN24_035,21,Female,2024-02-02_14h33.30.972,jersey_experiment_5,2023.2.2,Win32,84.03361345,,,,,,,,,,,,,,,,960.2724,962.0722,962.0724,962.6015,return,0.1466,,73.95833333,,,,,,FBP-PT-81.png,0.43,1.2,54,1,,,,,,,,,,,,,,,,,,0,53,53,53,1,,,,,,,,,,,,,,,,,,,,,,,
,,,,,WIN24_035,21,Female,2024-02-02_14h33.30.972,jersey_experiment_5,2023.2.2,Win32,84.03361345,,,,,,,,,,,,,,,,962.6018,963.8958,963.8959,964.6368,return,0.1905,,74.609375,,,,,,FBP-RB-91.png,0.4,1.2,28,0.5,,,,,,,,,,,,,,,,,,0,54,54,27,1,,,,,,,,,,,,,,,,,,,,,,,
,,,,,WIN24_035,21,Female,2024-02-02_14h33.30.972,jersey_experiment_5,2023.2.2,Win32,84.03361345,,,,,,,,,,,,,,,,964.6372,965.9312,965.9312,966.7665,return,0.2717,,74.609375,,,,,,FBP-YG-18.png,0.43,1.2,39,0.5,,,,,,,,,,,,,,,,,,0,55,55,38,1,,,,,,,,,,,,,,,,,,,,,,,
,,,,,WIN24_035,21,Female,2024-02-02_14h33.30.972,jersey_experiment_5,2023.2.2,Win32,84.03361345,,,,,,,,,,,,,,,,966.7668,968.0606,968.0606,970.449,return,0.5303,,74.21875,,,,,,FBP-RB-81.png,0.43,1.2,24,0.5,,,,,,,,,,,,,,,,,,0,56,56,23,1,,,,,,,,,,,,,,,,,,,,,,,
,,,,,WIN24_035,21,Female,2024-02-02_14h33.30.972,jersey_experiment_5,2023.2.2,Win32,84.03361345,,,,,,,,,,,,,,,,970.4493,971.743,971.743,972.5667,return,0.1965,,74.21875,,,,,,FBP-YG-17.png,0.45,1.2,35,0.5,,,,,,,,,,,,,,,,,,0,57,57,34,1,,,,,,,,,,,,,,,,,,,,,,,
,,,,,WIN24_035,21,Female,2024-02-02_14h33.30.972,jersey_experiment_5,2023.2.2,Win32,84.03361345,,,,,,,,,,,,,,,,972.567,974.3666,974.3666,976.3196,return,1.2587,,50.52083333,,,,,,FBP-PT-91.png,0.4,1.2,58,1,,,,,,,,,,,,,,,,,,0,58,58,57,1,,,,,,,,,,,,,,,,,,,,,,,
,,,,,WIN24_035,21,Female,2024-02-02_14h33.30.972,jersey_experiment_5,2023.2.2,Win32,84.03361345,,,,,,,,,,,,,,,,976.3201,978.1199,978.1199,979.1434,return,0.1139,,51.171875,,,,,,FBP-OG-17.png,0.4,1.2,3,1,,,,,,,,,,,,,,,,,,0,59,59,2,1,,,,,,,,,,,,,,,,,,,,,,,
,,,,,WIN24_035,21,Female,2024-02-02_14h33.30.972,jersey_experiment_5,2023.2.2,Win32,84.03361345,,,,,,,,,,,,,,,,,,,,,,,,,,,,,,,,,,,,,,,,,,,,,,,,,,,,,,,,979.144,986.7912,return,7.6406,,,,,,,,,,,,,,,,,,,
,,,,,WIN24_035,21,Female,2024-02-02_14h33.30.972,jersey_experiment_5,2023.2.2,Win32,84.03361345,,,,,,,,,,,,,,,,,,,,,,,,,,,,,,,,,,,,,,,,,,,,,,,,,,,,,,,,,,,,,986.7912,997.2382,1,9.1279,return,1.3022,,,,,,,,,,,,
,,,,,WIN24_035,21,Female,2024-02-02_14h33.30.972,jersey_experiment_5,2023.2.2,Win32,84.03361345,,,,,,,,,,,,,,,,,,,,,,,,,,,,,,,,,,,,,,,,,,,,,,,,,,,,,,,,,,,,,,,,,,,,997.2384,1109.3225,"ranking size comparing to the previous stimulus. For instance, if you show me a thicker character then if you showed me a neutral person, I would have thought it was on the far end of skinny. there would also be times where it seemed like it was the same figure.",right,105.3794,,,,,,
,,,,,WIN24_035,21,Female,2024-02-02_14h33.30.972,jersey_experiment_5,2023.2.2,Win32,84.03361345,,,,,,,,,,,,,,,,,,,,,,,,,,,,,,,,,,,,,,,,,,,,,,,,,,,,,,,,,,,,,,,,,,,,,,,,,,1109.3227,1111.8663,return,2.5335,