requirements.started,requirements.stopped,key_resp_3.keys,key_resp_3.rt,key_resp_3.duration,Subject ID,Age,Gender,date,expName,psychopyVersion,OS,frameRate,instructions1.started,instructions1.stopped,key_resp.keys,key_resp.rt,key_resp.duration,example.started,example.stopped,enter_2.keys,enter_2.rt,enter_2.duration,instructions2.started,instructions2.stopped,enter_3.keys,enter_3.rt,enter_3.duration,image.started,image.stopped,slider_2.started,slider_2.stopped,next.keys,next.rt,next.duration,slider.response,trial_block_1.thisRepN,trial_block_1.thisTrialN,trial_block_1.thisN,trial_block_1.thisIndex,trial_block_1.ran,Path,Width,Height,Index,Duration,trial_block_2.thisRepN,trial_block_2.thisTrialN,trial_block_2.thisN,trial_block_2.thisIndex,trial_block_2.ran,rest_break.started,rest_break.stopped,end_break.started,end_break.stopped,key_resp_5.keys,key_resp_5.rt,key_resp_5.duration,trial_block_3.thisRepN,trial_block_3.thisTrialN,trial_block_3.thisN,trial_block_3.thisIndex,trial_block_3.ran,trial_block_4.thisRepN,trial_block_4.thisTrialN,trial_block_4.thisN,trial_block_4.thisIndex,trial_block_4.ran,questions_intro.started,questions_intro.stopped,enter_12.keys,enter_12.rt,enter_12.duration,question2.started,question2.stopped,question_doingbest.response,question_doingbest.rt,enter_15.keys,enter_15.rt,enter_15.duration,pattern.started,pattern.stopped,pattern_2.text,enter_17.keys,enter_17.rt,enter_17.duration,thankyou.started,thankyou.stopped,enter_14.keys,enter_14.rt,enter_14.duration
0.0002,21.288,return,21.2796,,WIN24_039,21,female,2024-02-07_12h48.18.859,jersey_experiment_5,2023.2.2,Win32,85.47008547,,,,,,,,,,,,,,,,,,,,,,,,,,,,,,,,,,,,,,,,,,,,,,,,,,,,,,,,,,,,,,,,,,,,,,,,,,,,,,
,,,,,WIN24_039,21,female,2024-02-07_12h48.18.859,jersey_experiment_5,2023.2.2,Win32,85.47008547,21.2881,26.3115,return,5.0131,,,,,,,,,,,,,,,,,,,,,,,,,,,,,,,,,,,,,,,,,,,,,,,,,,,,,,,,,,,,,,,,,,,,,,,,,,
,,,,,WIN24_039,21,female,2024-02-07_12h48.18.859,jersey_experiment_5,2023.2.2,Win32,85.47008547,,,,,,26.3116,29.8882,return,3.5492,,,,,,,,,,,,,,,,,,,,,,,,,,,,,,,,,,,,,,,,,,,,,,,,,,,,,,,,,,,,,,,,,,,,,
,,,,,WIN24_039,21,female,2024-02-07_12h48.18.859,jersey_experiment_5,2023.2.2,Win32,85.47008547,,,,,,,,,,,29.8883,51.3009,return,21.4039,,,,,,,,,,,,,,,,,,,,,,,,,,,,,,,,,,,,,,,,,,,,,,,,,,,,,,,,,,,,,,,,
,,,,,WIN24_039,21,female,2024-02-07_12h48.18.859,jersey_experiment_5,2023.2.2,Win32,85.47008547,,,,,,,,,,,,,,,,51.3083,52.6065,52.6065,59.2656,return,2.3128,,74.609375,0,0,0,59,1,FBP-PT-19.png,0.45,1.2,60,0.5,,,,,,,,,,,,,,,,,,,,,,,,,,,,,,,,,,,,,,,,,,,,,
,,,,,WIN24_039,21,female,2024-02-07_12h48.18.859,jersey_experiment_5,2023.2.2,Win32,85.47008547,,,,,,,,,,,,,,,,59.266,61.0655,61.0655,63.3949,return,0.4034,,37.23958333,0,1,1,16,1,FBP-RB-17.png,0.37,1.2,17,1,,,,,,,,,,,,,,,,,,,,,,,,,,,,,,,,,,,,,,,,,,,,,
,,,,,WIN24_039,21,female,2024-02-07_12h48.18.859,jersey_experiment_5,2023.2.2,Win32,85.47008547,,,,,,,,,,,,,,,,63.3953,65.1951,65.1951,67.9129,return,0.2824,,56.25,0,2,2,31,1,FBP-YG-71.png,0.37,1.2,32,1,,,,,,,,,,,,,,,,,,,,,,,,,,,,,,,,,,,,,,,,,,,,,
,,,,,WIN24_039,21,female,2024-02-07_12h48.18.859,jersey_experiment_5,2023.2.2,Win32,85.47008547,,,,,,,,,,,,,,,,67.9131,69.2071,69.2071,71.0188,return,0.2482,,19.921875,0,3,3,56,1,FBP-PT-19.png,0.37,1.2,57,0.5,,,,,,,,,,,,,,,,,,,,,,,,,,,,,,,,,,,,,,,,,,,,,
,,,,,WIN24_039,21,female,2024-02-07_12h48.18.859,jersey_experiment_5,2023.2.2,Win32,85.47008547,,,,,,,,,,,,,,,,71.0191,72.3131,72.3131,73.7131,return,0.1956,,17.70833333,0,4,4,55,1,FBP-PT-19.png,0.35,1.2,56,0.5,,,,,,,,,,,,,,,,,,,,,,,,,,,,,,,,,,,,,,,,,,,,,
,,,,,WIN24_039,21,female,2024-02-07_12h48.18.859,jersey_experiment_5,2023.2.2,Win32,85.47008547,,,,,,,,,,,,,,,,73.7132,75.5132,75.5133,78.1486,return,0.3792,,60.15625,0,5,5,27,1,FBP-RB-19.png,0.4,1.2,28,1,,,,,,,,,,,,,,,,,,,,,,,,,,,,,,,,,,,,,,,,,,,,,
,,,,,WIN24_039,21,female,2024-02-07_12h48.18.859,jersey_experiment_5,2023.2.2,Win32,85.47008547,,,,,,,,,,,,,,,,78.1489,79.9484,79.9484,80.7721,return,0.273,,60.15625,0,6,6,21,1,FBP-RB-18.png,0.37,1.2,22,1,,,,,,,,,,,,,,,,,,,,,,,,,,,,,,,,,,,,,,,,,,,,,
,,,,,WIN24_039,21,female,2024-02-07_12h48.18.859,jersey_experiment_5,2023.2.2,Win32,85.47008547,,,,,,,,,,,,,,,,80.7723,82.5722,82.5723,84.9488,return,0.1902,,74.609375,0,7,7,17,1,FBP-RB-17.png,0.4,1.2,18,1,,,,,,,,,,,,,,,,,,,,,,,,,,,,,,,,,,,,,,,,,,,,,
,,,,,WIN24_039,21,female,2024-02-07_12h48.18.859,jersey_experiment_5,2023.2.2,Win32,85.47008547,,,,,,,,,,,,,,,,84.949,86.2428,86.2429,87.8782,return,0.3321,,80.98958333,0,8,8,9,1,FBP-OG-81.png,0.45,1.2,10,0.5,,,,,,,,,,,,,,,,,,,,,,,,,,,,,,,,,,,,,,,,,,,,,
,,,,,WIN24_039,21,female,2024-02-07_12h48.18.859,jersey_experiment_5,2023.2.2,Win32,85.47008547,,,,,,,,,,,,,,,,87.8783,89.1724,89.1724,90.8547,return,0.1786,,17.96875,0,9,9,11,1,FBP-OG-91.png,0.37,1.2,12,0.5,,,,,,,,,,,,,,,,,,,,,,,,,,,,,,,,,,,,,,,,,,,,,
,,,,,WIN24_039,21,female,2024-02-07_12h48.18.859,jersey_experiment_5,2023.2.2,Win32,85.47008547,,,,,,,,,,,,,,,,90.855,92.6549,92.6549,95.2902,return,0.2588,,54.16666667,0,10,10,42,1,FBP-YG-91.png,0.4,1.2,43,1,,,,,,,,,,,,,,,,,,,,,,,,,,,,,,,,,,,,,,,,,,,,,
,,,,,WIN24_039,21,female,2024-02-07_12h48.18.859,jersey_experiment_5,2023.2.2,Win32,85.47008547,,,,,,,,,,,,,,,,95.2905,96.5844,96.5844,98.1845,return,0.1268,,0.651041667,0,11,11,10,1,FBP-OG-91.png,0.35,1.2,11,0.5,,,,,,,,,,,,,,,,,,,,,,,,,,,,,,,,,,,,,,,,,,,,,
,,,,,WIN24_039,21,female,2024-02-07_12h48.18.859,jersey_experiment_5,2023.2.2,Win32,85.47008547,,,,,,,,,,,,,,,,98.1848,99.9845,99.9846,101.6905,return,0.1652,,59.375,0,12,12,32,1,FBP-YG-71.png,0.4,1.2,33,1,,,,,,,,,,,,,,,,,,,,,,,,,,,,,,,,,,,,,,,,,,,,,
,,,,,WIN24_039,21,female,2024-02-07_12h48.18.859,jersey_experiment_5,2023.2.2,Win32,85.47008547,,,,,,,,,,,,,,,,101.6907,103.4906,103.4906,104.5142,return,0.1245,,73.95833333,0,13,13,22,1,FBP-RB-18.png,0.4,1.2,23,1,,,,,,,,,,,,,,,,,,,,,,,,,,,,,,,,,,,,,,,,,,,,,
,,,,,WIN24_039,21,female,2024-02-07_12h48.18.859,jersey_experiment_5,2023.2.2,Win32,85.47008547,,,,,,,,,,,,,,,,104.5143,106.3145,106.3145,108.0084,return,0.1877,,45.96354167,0,14,14,36,1,FBP-YG-81.png,0.37,1.2,37,1,,,,,,,,,,,,,,,,,,,,,,,,,,,,,,,,,,,,,,,,,,,,,
,,,,,WIN24_039,21,female,2024-02-07_12h48.18.859,jersey_experiment_5,2023.2.2,Win32,85.47008547,,,,,,,,,,,,,,,,108.0086,109.3025,109.3026,110.8085,return,0.1309,,75.78125,0,15,15,3,1,FBP-OG-71.png,0.43,1.2,4,0.5,,,,,,,,,,,,,,,,,,,,,,,,,,,,,,,,,,,,,,,,,,,,,
,,,,,WIN24_039,21,female,2024-02-07_12h48.18.859,jersey_experiment_5,2023.2.2,Win32,85.47008547,,,,,,,,,,,,,,,,110.8088,112.1026,112.1028,113.538,return,0.1704,,98.69791667,0,16,16,49,1,FBP-PT-17.png,0.45,1.2,50,0.5,,,,,,,,,,,,,,,,,,,,,,,,,,,,,,,,,,,,,,,,,,,,,
,,,,,WIN24_039,21,female,2024-02-07_12h48.18.859,jersey_experiment_5,2023.2.2,Win32,85.47008547,,,,,,,,,,,,,,,,113.5382,114.8321,114.8322,117.1733,return,1.3544,,75.13020833,0,17,17,57,1,FBP-PT-19.png,0.4,1.2,58,0.5,,,,,,,,,,,,,,,,,,,,,,,,,,,,,,,,,,,,,,,,,,,,,
,,,,,WIN24_039,21,female,2024-02-07_12h48.18.859,jersey_experiment_5,2023.2.2,Win32,85.47008547,,,,,,,,,,,,,,,,117.1736,118.9737,118.9737,119.8794,return,0.2233,,89.0625,0,18,18,33,1,FBP-YG-71.png,0.43,1.2,34,1,,,,,,,,,,,,,,,,,,,,,,,,,,,,,,,,,,,,,,,,,,,,,
,,,,,WIN24_039,21,female,2024-02-07_12h48.18.859,jersey_experiment_5,2023.2.2,Win32,85.47008547,,,,,,,,,,,,,,,,119.8796,121.1735,121.1736,122.1146,return,0.1709,,93.88020833,0,19,19,14,1,FBP-OG-91.png,0.45,1.2,15,0.5,,,,,,,,,,,,,,,,,,,,,,,,,,,,,,,,,,,,,,,,,,,,,
,,,,,WIN24_039,21,female,2024-02-07_12h48.18.859,jersey_experiment_5,2023.2.2,Win32,85.47008547,,,,,,,,,,,,,,,,122.1148,123.4088,123.4088,124.9502,return,0.1553,,0.911458333,0,20,20,6,1,FBP-OG-81.png,0.37,1.2,7,0.5,,,,,,,,,,,,,,,,,,,,,,,,,,,,,,,,,,,,,,,,,,,,,
,,,,,WIN24_039,21,female,2024-02-07_12h48.18.859,jersey_experiment_5,2023.2.2,Win32,85.47008547,,,,,,,,,,,,,,,,124.9504,126.2443,126.2444,127.8561,return,0.1737,,28.38541667,0,21,21,46,1,FBP-PT-17.png,0.37,1.2,47,0.5,,,,,,,,,,,,,,,,,,,,,,,,,,,,,,,,,,,,,,,,,,,,,
,,,,,WIN24_039,21,female,2024-02-07_12h48.18.859,jersey_experiment_5,2023.2.2,Win32,85.47008547,,,,,,,,,,,,,,,,127.8563,129.1502,129.1502,131.1151,return,0.165,,74.21875,0,22,22,53,1,FBP-PT-18.png,0.43,1.2,54,0.5,,,,,,,,,,,,,,,,,,,,,,,,,,,,,,,,,,,,,,,,,,,,,
,,,,,WIN24_039,21,female,2024-02-07_12h48.18.859,jersey_experiment_5,2023.2.2,Win32,85.47008547,,,,,,,,,,,,,,,,131.1153,132.9151,132.9152,134.1858,return,0.1179,,98.828125,0,23,23,44,1,FBP-YG-91.png,0.45,1.2,45,1,,,,,,,,,,,,,,,,,,,,,,,,,,,,,,,,,,,,,,,,,,,,,
,,,,,WIN24_039,21,female,2024-02-07_12h48.18.859,jersey_experiment_5,2023.2.2,Win32,85.47008547,,,,,,,,,,,,,,,,134.186,135.986,135.9861,137.0093,return,0.1018,,11.19791667,0,24,24,35,1,FBP-YG-81.png,0.35,1.2,36,1,,,,,,,,,,,,,,,,,,,,,,,,,,,,,,,,,,,,,,,,,,,,,
,,,,,WIN24_039,21,female,2024-02-07_12h48.18.859,jersey_experiment_5,2023.2.2,Win32,85.47008547,,,,,,,,,,,,,,,,137.0095,138.3035,138.3035,140.1505,return,0.1079,,95.3125,0,25,25,54,1,FBP-PT-18.png,0.45,1.2,55,0.5,,,,,,,,,,,,,,,,,,,,,,,,,,,,,,,,,,,,,,,,,,,,,
,,,,,WIN24_039,21,female,2024-02-07_12h48.18.859,jersey_experiment_5,2023.2.2,Win32,85.47008547,,,,,,,,,,,,,,,,140.1507,141.9506,141.9506,143.3978,return,0.1087,,92.578125,0,26,26,23,1,FBP-RB-18.png,0.43,1.2,24,1,,,,,,,,,,,,,,,,,,,,,,,,,,,,,,,,,,,,,,,,,,,,,
,,,,,WIN24_039,21,female,2024-02-07_12h48.18.859,jersey_experiment_5,2023.2.2,Win32,85.47008547,,,,,,,,,,,,,,,,143.3981,145.1979,145.1979,146.0215,return,0.1446,,94.921875,0,27,27,18,1,FBP-RB-17.png,0.43,1.2,19,1,,,,,,,,,,,,,,,,,,,,,,,,,,,,,,,,,,,,,,,,,,,,,
,,,,,WIN24_039,21,female,2024-02-07_12h48.18.859,jersey_experiment_5,2023.2.2,Win32,85.47008547,,,,,,,,,,,,,,,,146.0216,147.3155,147.3156,148.0333,return,0.1697,,94.921875,0,28,28,58,1,FBP-PT-19.png,0.43,1.2,59,0.5,,,,,,,,,,,,,,,,,,,,,,,,,,,,,,,,,,,,,,,,,,,,,
,,,,,WIN24_039,21,female,2024-02-07_12h48.18.859,jersey_experiment_5,2023.2.2,Win32,85.47008547,,,,,,,,,,,,,,,,148.0335,149.3275,149.3276,150.6098,return,0.1007,,6.901041667,0,29,29,50,1,FBP-PT-18.png,0.35,1.2,51,0.5,,,,,,,,,,,,,,,,,,,,,,,,,,,,,,,,,,,,,,,,,,,,,
,,,,,WIN24_039,21,female,2024-02-07_12h48.18.859,jersey_experiment_5,2023.2.2,Win32,85.47008547,,,,,,,,,,,,,,,,150.6101,152.41,152.41,153.4569,return,0.2669,,6.901041667,0,30,30,26,1,FBP-RB-19.png,0.37,1.2,27,1,,,,,,,,,,,,,,,,,,,,,,,,,,,,,,,,,,,,,,,,,,,,,
,,,,,WIN24_039,21,female,2024-02-07_12h48.18.859,jersey_experiment_5,2023.2.2,Win32,85.47008547,,,,,,,,,,,,,,,,153.4571,155.2573,155.2573,156.8101,return,0.1547,,74.609375,0,31,31,38,1,FBP-YG-81.png,0.43,1.2,39,1,,,,,,,,,,,,,,,,,,,,,,,,,,,,,,,,,,,,,,,,,,,,,
,,,,,WIN24_039,21,female,2024-02-07_12h48.18.859,jersey_experiment_5,2023.2.2,Win32,85.47008547,,,,,,,,,,,,,,,,156.8103,158.1045,158.1045,159.2808,return,0.1482,,68.359375,0,32,32,48,1,FBP-PT-17.png,0.43,1.2,49,0.5,,,,,,,,,,,,,,,,,,,,,,,,,,,,,,,,,,,,,,,,,,,,,
,,,,,WIN24_039,21,female,2024-02-07_12h48.18.859,jersey_experiment_5,2023.2.2,Win32,85.47008547,,,,,,,,,,,,,,,,159.281,160.575,160.575,161.7515,return,0.1408,,16.14583333,0,33,33,0,1,FBP-OG-71.png,0.35,1.2,1,0.5,,,,,,,,,,,,,,,,,,,,,,,,,,,,,,,,,,,,,,,,,,,,,
,,,,,WIN24_039,21,female,2024-02-07_12h48.18.859,jersey_experiment_5,2023.2.2,Win32,85.47008547,,,,,,,,,,,,,,,,161.7516,163.0456,163.0456,164.5515,return,0.1082,,50,0,34,34,12,1,FBP-OG-91.png,0.4,1.2,13,0.5,,,,,,,,,,,,,,,,,,,,,,,,,,,,,,,,,,,,,,,,,,,,,
,,,,,WIN24_039,21,female,2024-02-07_12h48.18.859,jersey_experiment_5,2023.2.2,Win32,85.47008547,,,,,,,,,,,,,,,,164.5517,165.8457,165.8457,166.9634,return,0.1337,,37.23958333,0,35,35,1,1,FBP-OG-71.png,0.37,1.2,2,0.5,,,,,,,,,,,,,,,,,,,,,,,,,,,,,,,,,,,,,,,,,,,,,
,,,,,WIN24_039,21,female,2024-02-07_12h48.18.859,jersey_experiment_5,2023.2.2,Win32,85.47008547,,,,,,,,,,,,,,,,166.9635,168.2575,168.2575,169.5045,return,0.1581,,58.59375,0,36,36,52,1,FBP-PT-18.png,0.4,1.2,53,0.5,,,,,,,,,,,,,,,,,,,,,,,,,,,,,,,,,,,,,,,,,,,,,
,,,,,WIN24_039,21,female,2024-02-07_12h48.18.859,jersey_experiment_5,2023.2.2,Win32,85.47008547,,,,,,,,,,,,,,,,169.5048,171.3049,171.3049,172.3873,return,0.1223,,11.84895833,0,37,37,40,1,FBP-YG-91.png,0.35,1.2,41,1,,,,,,,,,,,,,,,,,,,,,,,,,,,,,,,,,,,,,,,,,,,,,
,,,,,WIN24_039,21,female,2024-02-07_12h48.18.859,jersey_experiment_5,2023.2.2,Win32,85.47008547,,,,,,,,,,,,,,,,172.3875,173.6813,173.6813,175.6226,return,0.1436,,66.796875,0,38,38,8,1,FBP-OG-81.png,0.43,1.2,9,0.5,,,,,,,,,,,,,,,,,,,,,,,,,,,,,,,,,,,,,,,,,,,,,
,,,,,WIN24_039,21,female,2024-02-07_12h48.18.859,jersey_experiment_5,2023.2.2,Win32,85.47008547,,,,,,,,,,,,,,,,175.6228,176.9167,176.9167,178.0226,return,0.0962,,42.1875,0,39,39,47,1,FBP-PT-17.png,0.4,1.2,48,0.5,,,,,,,,,,,,,,,,,,,,,,,,,,,,,,,,,,,,,,,,,,,,,
,,,,,WIN24_039,21,female,2024-02-07_12h48.18.859,jersey_experiment_5,2023.2.2,Win32,85.47008547,,,,,,,,,,,,,,,,178.0228,179.3167,179.3167,180.811,return,0.1188,,15.88541667,0,40,40,45,1,FBP-PT-17.png,0.35,1.2,46,0.5,,,,,,,,,,,,,,,,,,,,,,,,,,,,,,,,,,,,,,,,,,,,,
,,,,,WIN24_039,21,female,2024-02-07_12h48.18.859,jersey_experiment_5,2023.2.2,Win32,85.47008547,,,,,,,,,,,,,,,,180.8111,182.611,182.611,183.4111,return,0.2517,,15.88541667,0,41,41,15,1,FBP-RB-17.png,0.35,1.2,16,1,,,,,,,,,,,,,,,,,,,,,,,,,,,,,,,,,,,,,,,,,,,,,
,,,,,WIN24_039,21,female,2024-02-07_12h48.18.859,jersey_experiment_5,2023.2.2,Win32,85.47008547,,,,,,,,,,,,,,,,183.4114,185.2114,185.2114,186.9641,return,0.1798,,88.41145833,0,42,42,24,1,FBP-RB-18.png,0.45,1.2,25,1,,,,,,,,,,,,,,,,,,,,,,,,,,,,,,,,,,,,,,,,,,,,,
,,,,,WIN24_039,21,female,2024-02-07_12h48.18.859,jersey_experiment_5,2023.2.2,Win32,85.47008547,,,,,,,,,,,,,,,,186.9643,188.2585,188.2585,189.6584,return,0.155,,15.49479167,0,43,43,51,1,FBP-PT-18.png,0.37,1.2,52,0.5,,,,,,,,,,,,,,,,,,,,,,,,,,,,,,,,,,,,,,,,,,,,,
,,,,,WIN24_039,21,female,2024-02-07_12h48.18.859,jersey_experiment_5,2023.2.2,Win32,85.47008547,,,,,,,,,,,,,,,,189.6585,190.9525,190.9525,193.0585,return,0.1006,,88.15104167,0,44,44,13,1,FBP-OG-91.png,0.43,1.2,14,0.5,,,,,,,,,,,,,,,,,,,,,,,,,,,,,,,,,,,,,,,,,,,,,
,,,,,WIN24_039,21,female,2024-02-07_12h48.18.859,jersey_experiment_5,2023.2.2,Win32,85.47008547,,,,,,,,,,,,,,,,193.0586,194.8587,194.8588,196.1645,return,0.1222,,1.302083333,0,45,45,20,1,FBP-RB-18.png,0.35,1.2,21,1,,,,,,,,,,,,,,,,,,,,,,,,,,,,,,,,,,,,,,,,,,,,,
,,,,,WIN24_039,21,female,2024-02-07_12h48.18.859,jersey_experiment_5,2023.2.2,Win32,85.47008547,,,,,,,,,,,,,,,,196.1646,197.4585,197.4585,198.1762,return,0.2429,,1.302083333,0,46,46,5,1,FBP-OG-81.png,0.35,1.2,6,0.5,,,,,,,,,,,,,,,,,,,,,,,,,,,,,,,,,,,,,,,,,,,,,
,,,,,WIN24_039,21,female,2024-02-07_12h48.18.859,jersey_experiment_5,2023.2.2,Win32,85.47008547,,,,,,,,,,,,,,,,198.1763,199.9765,199.9765,201.0941,return,0.0712,,74.73958333,0,47,47,28,1,FBP-RB-19.png,0.43,1.2,29,1,,,,,,,,,,,,,,,,,,,,,,,,,,,,,,,,,,,,,,,,,,,,,
,,,,,WIN24_039,21,female,2024-02-07_12h48.18.859,jersey_experiment_5,2023.2.2,Win32,85.47008547,,,,,,,,,,,,,,,,201.0943,202.8943,202.8943,203.9882,return,0.0976,,98.69791667,0,48,48,34,1,FBP-YG-71.png,0.45,1.2,35,1,,,,,,,,,,,,,,,,,,,,,,,,,,,,,,,,,,,,,,,,,,,,,
,,,,,WIN24_039,21,female,2024-02-07_12h48.18.859,jersey_experiment_5,2023.2.2,Win32,85.47008547,,,,,,,,,,,,,,,,203.9883,205.7884,205.7884,206.9061,return,0.0842,,68.359375,0,49,49,43,1,FBP-YG-91.png,0.43,1.2,44,1,,,,,,,,,,,,,,,,,,,,,,,,,,,,,,,,,,,,,,,,,,,,,
,,,,,WIN24_039,21,female,2024-02-07_12h48.18.859,jersey_experiment_5,2023.2.2,Win32,85.47008547,,,,,,,,,,,,,,,,206.9063,208.7063,208.7063,209.5886,return,0.1444,,36.45833333,0,50,50,41,1,FBP-YG-91.png,0.37,1.2,42,1,,,,,,,,,,,,,,,,,,,,,,,,,,,,,,,,,,,,,,,,,,,,,
,,,,,WIN24_039,21,female,2024-02-07_12h48.18.859,jersey_experiment_5,2023.2.2,Win32,85.47008547,,,,,,,,,,,,,,,,209.5888,211.3885,211.3885,212.2474,return,0.0944,,15.625,0,51,51,25,1,FBP-RB-19.png,0.35,1.2,26,1,,,,,,,,,,,,,,,,,,,,,,,,,,,,,,,,,,,,,,,,,,,,,
,,,,,WIN24_039,21,female,2024-02-07_12h48.18.859,jersey_experiment_5,2023.2.2,Win32,85.47008547,,,,,,,,,,,,,,,,212.2476,214.0475,214.0475,214.7768,return,0.1047,,36.328125,0,52,52,30,1,FBP-YG-71.png,0.35,1.2,31,1,,,,,,,,,,,,,,,,,,,,,,,,,,,,,,,,,,,,,,,,,,,,,
,,,,,WIN24_039,21,female,2024-02-07_12h48.18.859,jersey_experiment_5,2023.2.2,Win32,85.47008547,,,,,,,,,,,,,,,,214.777,216.071,216.071,217.224,return,0.0951,,73.95833333,0,53,53,4,1,FBP-OG-71.png,0.45,1.2,5,0.5,,,,,,,,,,,,,,,,,,,,,,,,,,,,,,,,,,,,,,,,,,,,,
,,,,,WIN24_039,21,female,2024-02-07_12h48.18.859,jersey_experiment_5,2023.2.2,Win32,85.47008547,,,,,,,,,,,,,,,,217.2241,219.0241,219.0241,220.2947,return,0.3307,,90.36458333,0,54,54,39,1,FBP-YG-81.png,0.45,1.2,40,1,,,,,,,,,,,,,,,,,,,,,,,,,,,,,,,,,,,,,,,,,,,,,
,,,,,WIN24_039,21,female,2024-02-07_12h48.18.859,jersey_experiment_5,2023.2.2,Win32,85.47008547,,,,,,,,,,,,,,,,220.2949,222.0949,222.095,223.0007,return,0.1792,,64.58333333,0,55,55,37,1,FBP-YG-81.png,0.4,1.2,38,1,,,,,,,,,,,,,,,,,,,,,,,,,,,,,,,,,,,,,,,,,,,,,
,,,,,WIN24_039,21,female,2024-02-07_12h48.18.859,jersey_experiment_5,2023.2.2,Win32,85.47008547,,,,,,,,,,,,,,,,223.0009,224.2948,224.2948,225.4124,return,0.1798,,49.21875,0,56,56,7,1,FBP-OG-81.png,0.4,1.2,8,0.5,,,,,,,,,,,,,,,,,,,,,,,,,,,,,,,,,,,,,,,,,,,,,
,,,,,WIN24_039,21,female,2024-02-07_12h48.18.859,jersey_experiment_5,2023.2.2,Win32,85.47008547,,,,,,,,,,,,,,,,225.4126,227.2126,227.2126,228.4715,return,0.1534,,89.71354167,0,57,57,29,1,FBP-RB-19.png,0.45,1.2,30,1,,,,,,,,,,,,,,,,,,,,,,,,,,,,,,,,,,,,,,,,,,,,,
,,,,,WIN24_039,21,female,2024-02-07_12h48.18.859,jersey_experiment_5,2023.2.2,Win32,85.47008547,,,,,,,,,,,,,,,,228.4717,229.7656,229.7656,230.9775,return,0.0992,,36.97916667,0,58,58,2,1,FBP-OG-71.png,0.4,1.2,3,0.5,,,,,,,,,,,,,,,,,,,,,,,,,,,,,,,,,,,,,,,,,,,,,
,,,,,WIN24_039,21,female,2024-02-07_12h48.18.859,jersey_experiment_5,2023.2.2,Win32,85.47008547,,,,,,,,,,,,,,,,230.9777,232.7775,232.7775,233.8246,return,0.067,,74.86979167,0,59,59,19,1,FBP-RB-17.png,0.45,1.2,20,1,,,,,,,,,,,,,,,,,,,,,,,,,,,,,,,,,,,,,,,,,,,,,
,,,,,WIN24_039,21,female,2024-02-07_12h48.18.859,jersey_experiment_5,2023.2.2,Win32,85.47008547,,,,,,,,,,,,,,,,233.8269,235.6247,235.6248,236.7541,return,0.1109,,2.34375,,,,,,FBP-YG-18.png,0.35,1.2,36,1,0,0,0,35,1,,,,,,,,,,,,,,,,,,,,,,,,,,,,,,,,,,,,,,,,
,,,,,WIN24_039,21,female,2024-02-07_12h48.18.859,jersey_experiment_5,2023.2.2,Win32,85.47008547,,,,,,,,,,,,,,,,236.7544,238.0482,238.0482,239.4247,return,0.2319,,34.50520833,,,,,,FBP-OG-18.png,0.4,1.2,8,0.5,0,1,1,7,1,,,,,,,,,,,,,,,,,,,,,,,,,,,,,,,,,,,,,,,,
,,,,,WIN24_039,21,female,2024-02-07_12h48.18.859,jersey_experiment_5,2023.2.2,Win32,85.47008547,,,,,,,,,,,,,,,,239.425,240.7189,240.7189,241.8249,return,0.1141,,13.54166667,,,,,,FBP-PT-91.png,0.37,1.2,57,0.5,0,2,2,56,1,,,,,,,,,,,,,,,,,,,,,,,,,,,,,,,,,,,,,,,,
,,,,,WIN24_039,21,female,2024-02-07_12h48.18.859,jersey_experiment_5,2023.2.2,Win32,85.47008547,,,,,,,,,,,,,,,,241.8252,243.625,243.625,244.4484,return,0.0649,,0.520833333,,,,,,FBP-RB-71.png,0.35,1.2,16,1,0,3,3,15,1,,,,,,,,,,,,,,,,,,,,,,,,,,,,,,,,,,,,,,,,
,,,,,WIN24_039,21,female,2024-02-07_12h48.18.859,jersey_experiment_5,2023.2.2,Win32,85.47008547,,,,,,,,,,,,,,,,244.4486,246.2485,246.2485,247.9074,return,0.3112,,73.95833333,,,,,,FBP-YG-17.png,0.45,1.2,35,1,0,4,4,34,1,,,,,,,,,,,,,,,,,,,,,,,,,,,,,,,,,,,,,,,,
,,,,,WIN24_039,21,female,2024-02-07_12h48.18.859,jersey_experiment_5,2023.2.2,Win32,85.47008547,,,,,,,,,,,,,,,,247.9076,249.2017,249.2017,251.0959,return,0.1079,,64.19270833,,,,,,FBP-PT-91.png,0.43,1.2,59,0.5,0,5,5,58,1,,,,,,,,,,,,,,,,,,,,,,,,,,,,,,,,,,,,,,,,
,,,,,WIN24_039,21,female,2024-02-07_12h48.18.859,jersey_experiment_5,2023.2.2,Win32,85.47008547,,,,,,,,,,,,,,,,251.0961,252.8957,252.8957,253.5429,return,0.1182,,87.890625,,,,,,FBP-YG-19.png,0.45,1.2,45,1,0,6,6,44,1,,,,,,,,,,,,,,,,,,,,,,,,,,,,,,,,,,,,,,,,
,,,,,WIN24_039,21,female,2024-02-07_12h48.18.859,jersey_experiment_5,2023.2.2,Win32,85.47008547,,,,,,,,,,,,,,,,253.5431,255.3431,255.3431,256.0254,return,0.1516,,17.05729167,,,,,,FBP-YG-19.png,0.37,1.2,42,1,0,7,7,41,1,,,,,,,,,,,,,,,,,,,,,,,,,,,,,,,,,,,,,,,,
,,,,,WIN24_039,21,female,2024-02-07_12h48.18.859,jersey_experiment_5,2023.2.2,Win32,85.47008547,,,,,,,,,,,,,,,,256.0254,257.8257,257.8257,258.6137,return,0.0738,,2.34375,,,,,,FBP-YG-19.png,0.35,1.2,41,1,0,8,8,40,1,,,,,,,,,,,,,,,,,,,,,,,,,,,,,,,,,,,,,,,,
,,,,,WIN24_039,21,female,2024-02-07_12h48.18.859,jersey_experiment_5,2023.2.2,Win32,85.47008547,,,,,,,,,,,,,,,,258.6139,260.414,260.4141,261.3197,return,0.1281,,59.765625,,,,,,FBP-RB-71.png,0.43,1.2,19,1,0,9,9,18,1,,,,,,,,,,,,,,,,,,,,,,,,,,,,,,,,,,,,,,,,
,,,,,WIN24_039,21,female,2024-02-07_12h48.18.859,jersey_experiment_5,2023.2.2,Win32,85.47008547,,,,,,,,,,,,,,,,261.3199,263.1199,263.1199,263.8257,return,0.1472,,91.66666667,,,,,,FBP-RB-71.png,0.45,1.2,20,1,0,10,10,19,1,,,,,,,,,,,,,,,,,,,,,,,,,,,,,,,,,,,,,,,,
,,,,,WIN24_039,21,female,2024-02-07_12h48.18.859,jersey_experiment_5,2023.2.2,Win32,85.47008547,,,,,,,,,,,,,,,,263.826,265.6257,265.6257,266.1316,return,0.1348,,91.66666667,,,,,,FBP-RB-91.png,0.43,1.2,29,1,0,11,11,28,1,,,,,,,,,,,,,,,,,,,,,,,,,,,,,,,,,,,,,,,,
,,,,,WIN24_039,21,female,2024-02-07_12h48.18.859,jersey_experiment_5,2023.2.2,Win32,85.47008547,,,,,,,,,,,,,,,,266.1319,267.4257,267.4257,269.9082,return,0.2979,,50.13020833,,,,,,FBP-OG-17.png,0.43,1.2,4,0.5,0,12,12,3,1,,,,,,,,,,,,,,,,,,,,,,,,,,,,,,,,,,,,,,,,
,,,,,WIN24_039,21,female,2024-02-07_12h48.18.859,jersey_experiment_5,2023.2.2,Win32,85.47008547,,,,,,,,,,,,,,,,269.9084,271.2024,271.2024,272.3553,return,0.0998,,81.51041667,,,,,,FBP-PT-71.png,0.45,1.2,50,0.5,0,13,13,49,1,,,,,,,,,,,,,,,,,,,,,,,,,,,,,,,,,,,,,,,,
,,,,,WIN24_039,21,female,2024-02-07_12h48.18.859,jersey_experiment_5,2023.2.2,Win32,85.47008547,,,,,,,,,,,,,,,,272.3556,274.1557,274.1557,274.8969,return,0.126,,95.44270833,,,,,,FBP-RB-81.png,0.45,1.2,25,1,0,14,14,24,1,,,,,,,,,,,,,,,,,,,,,,,,,,,,,,,,,,,,,,,,
,,,,,WIN24_039,21,female,2024-02-07_12h48.18.859,jersey_experiment_5,2023.2.2,Win32,85.47008547,,,,,,,,,,,,,,,,274.8971,276.6967,276.6968,277.2379,return,0.2123,,95.44270833,,,,,,FBP-YG-18.png,0.45,1.2,40,1,0,15,15,39,1,,,,,,,,,,,,,,,,,,,,,,,,,,,,,,,,,,,,,,,,
,,,,,WIN24_039,21,female,2024-02-07_12h48.18.859,jersey_experiment_5,2023.2.2,Win32,85.47008547,,,,,,,,,,,,,,,,277.2382,278.5321,278.5321,279.5439,return,0.0607,,12.76041667,,,,,,FBP-PT-71.png,0.35,1.2,46,0.5,0,16,16,45,1,,,,,,,,,,,,,,,,,,,,,,,,,,,,,,,,,,,,,,,,
,,,,,WIN24_039,21,female,2024-02-07_12h48.18.859,jersey_experiment_5,2023.2.2,Win32,85.47008547,,,,,,,,,,,,,,,,279.5441,280.8381,280.8381,281.8028,return,0.2128,,35.15625,,,,,,FBP-PT-81.png,0.4,1.2,53,0.5,0,17,17,52,1,,,,,,,,,,,,,,,,,,,,,,,,,,,,,,,,,,,,,,,,
,,,,,WIN24_039,21,female,2024-02-07_12h48.18.859,jersey_experiment_5,2023.2.2,Win32,85.47008547,,,,,,,,,,,,,,,,281.803,283.603,283.603,284.4027,return,0.147,,82.29166667,,,,,,FBP-RB-91.png,0.45,1.2,30,1,0,18,18,29,1,,,,,,,,,,,,,,,,,,,,,,,,,,,,,,,,,,,,,,,,
,,,,,WIN24_039,21,female,2024-02-07_12h48.18.859,jersey_experiment_5,2023.2.2,Win32,85.47008547,,,,,,,,,,,,,,,,284.4029,285.6969,285.6969,286.8499,return,0.0643,,50.65104167,,,,,,FBP-OG-19.png,0.4,1.2,13,0.5,0,19,19,12,1,,,,,,,,,,,,,,,,,,,,,,,,,,,,,,,,,,,,,,,,
,,,,,WIN24_039,21,female,2024-02-07_12h48.18.859,jersey_experiment_5,2023.2.2,Win32,85.47008547,,,,,,,,,,,,,,,,286.8501,288.1441,288.1442,289.7325,return,0.0736,,74.86979167,,,,,,FBP-PT-81.png,0.43,1.2,54,0.5,0,20,20,53,1,,,,,,,,,,,,,,,,,,,,,,,,,,,,,,,,,,,,,,,,
,,,,,WIN24_039,21,female,2024-02-07_12h48.18.859,jersey_experiment_5,2023.2.2,Win32,85.47008547,,,,,,,,,,,,,,,,289.7328,291.0266,291.0266,291.7326,return,0.0726,,82.16145833,,,,,,FBP-OG-18.png,0.45,1.2,10,0.5,0,21,21,9,1,,,,,,,,,,,,,,,,,,,,,,,,,,,,,,,,,,,,,,,,
,,,,,WIN24_039,21,female,2024-02-07_12h48.18.859,jersey_experiment_5,2023.2.2,Win32,85.47008547,,,,,,,,,,,,,,,,291.7328,293.0268,293.0268,294.0032,return,0.1336,,20.44270833,,,,,,FBP-OG-18.png,0.35,1.2,6,0.5,0,22,22,5,1,,,,,,,,,,,,,,,,,,,,,,,,,,,,,,,,,,,,,,,,
,,,,,WIN24_039,21,female,2024-02-07_12h48.18.859,jersey_experiment_5,2023.2.2,Win32,85.47008547,,,,,,,,,,,,,,,,294.0035,295.8032,295.8033,296.7915,return,0.1412,,29.81770833,,,,,,FBP-YG-17.png,0.37,1.2,32,1,0,23,23,31,1,,,,,,,,,,,,,,,,,,,,,,,,,,,,,,,,,,,,,,,,
,,,,,WIN24_039,21,female,2024-02-07_12h48.18.859,jersey_experiment_5,2023.2.2,Win32,85.47008547,,,,,,,,,,,,,,,,296.7918,298.0857,298.0857,299.5916,return,0.1318,,61.84895833,,,,,,FBP-PT-71.png,0.4,1.2,48,0.5,0,24,24,47,1,,,,,,,,,,,,,,,,,,,,,,,,,,,,,,,,,,,,,,,,
,,,,,WIN24_039,21,female,2024-02-07_12h48.18.859,jersey_experiment_5,2023.2.2,Win32,85.47008547,,,,,,,,,,,,,,,,299.5919,301.3917,301.3917,303.0976,return,0.1889,,72.13541667,,,,,,FBP-YG-18.png,0.4,1.2,38,1,0,25,25,37,1,,,,,,,,,,,,,,,,,,,,,,,,,,,,,,,,,,,,,,,,
,,,,,WIN24_039,21,female,2024-02-07_12h48.18.859,jersey_experiment_5,2023.2.2,Win32,85.47008547,,,,,,,,,,,,,,,,303.0979,304.8977,304.8978,305.4272,return,0.112,,79.42708333,,,,,,FBP-YG-18.png,0.43,1.2,39,1,0,26,26,38,1,,,,,,,,,,,,,,,,,,,,,,,,,,,,,,,,,,,,,,,,
,,,,,WIN24_039,21,female,2024-02-07_12h48.18.859,jersey_experiment_5,2023.2.2,Win32,85.47008547,,,,,,,,,,,,,,,,305.4275,307.2271,307.2272,308.1684,return,0.1419,,65.88541667,,,,,,FBP-RB-71.png,0.4,1.2,18,1,0,27,27,17,1,,,,,,,,,,,,,,,,,,,,,,,,,,,,,,,,,,,,,,,,
,,,,,WIN24_039,21,female,2024-02-07_12h48.18.859,jersey_experiment_5,2023.2.2,Win32,85.47008547,,,,,,,,,,,,,,,,308.1685,309.9687,309.9687,310.8743,return,0.1515,,31.11979167,,,,,,FBP-RB-91.png,0.35,1.2,26,1,0,28,28,25,1,,,,,,,,,,,,,,,,,,,,,,,,,,,,,,,,,,,,,,,,
,,,,,WIN24_039,21,female,2024-02-07_12h48.18.859,jersey_experiment_5,2023.2.2,Win32,85.47008547,,,,,,,,,,,,,,,,310.8745,312.1686,312.1686,313.9215,return,0.0663,,49.73958333,,,,,,FBP-PT-81.png,0.45,1.2,55,0.5,0,29,29,54,1,,,,,,,,,,,,,,,,,,,,,,,,,,,,,,,,,,,,,,,,
,,,,,WIN24_039,21,female,2024-02-07_12h48.18.859,jersey_experiment_5,2023.2.2,Win32,85.47008547,,,,,,,,,,,,,,,,313.9217,315.2157,315.2158,316.2275,return,0.0644,,68.22916667,,,,,,FBP-OG-19.png,0.45,1.2,15,0.5,0,30,30,14,1,,,,,,,,,,,,,,,,,,,,,,,,,,,,,,,,,,,,,,,,
,,,,,WIN24_039,21,female,2024-02-07_12h48.18.859,jersey_experiment_5,2023.2.2,Win32,85.47008547,,,,,,,,,,,,,,,,316.2278,317.5217,317.5217,318.851,return,0.0531,,19.79166667,,,,,,FBP-PT-81.png,0.35,1.2,51,0.5,0,31,31,50,1,,,,,,,,,,,,,,,,,,,,,,,,,,,,,,,,,,,,,,,,
,,,,,WIN24_039,21,female,2024-02-07_12h48.18.859,jersey_experiment_5,2023.2.2,Win32,85.47008547,,,,,,,,,,,,,,,,318.8512,320.1453,320.1453,320.6749,return,0.0884,,19.79166667,,,,,,FBP-OG-17.png,0.35,1.2,1,0.5,0,32,32,0,1,,,,,,,,,,,,,,,,,,,,,,,,,,,,,,,,,,,,,,,,
,,,,,WIN24_039,21,female,2024-02-07_12h48.18.859,jersey_experiment_5,2023.2.2,Win32,85.47008547,,,,,,,,,,,,,,,,320.6751,321.9689,321.969,323.2512,return,0.1101,,53.77604167,,,,,,FBP-PT-71.png,0.43,1.2,49,0.5,0,33,33,48,1,,,,,,,,,,,,,,,,,,,,,,,,,,,,,,,,,,,,,,,,
,,,,,WIN24_039,21,female,2024-02-07_12h48.18.859,jersey_experiment_5,2023.2.2,Win32,85.47008547,,,,,,,,,,,,,,,,323.2515,324.5454,324.5455,325.3808,return,0.0717,,77.60416667,,,,,,FBP-OG-18.png,0.43,1.2,9,0.5,0,34,34,8,1,,,,,,,,,,,,,,,,,,,,,,,,,,,,,,,,,,,,,,,,
,,,,,WIN24_039,21,female,2024-02-07_12h48.18.859,jersey_experiment_5,2023.2.2,Win32,85.47008547,,,,,,,,,,,,,,,,325.3811,327.1808,327.1809,328.3692,return,0.2182,,81.640625,,,,,,FBP-RB-81.png,0.43,1.2,24,1,0,35,35,23,1,,,,,,,,,,,,,,,,,,,,,,,,,,,,,,,,,,,,,,,,
,,,,,WIN24_039,21,female,2024-02-07_12h48.18.859,jersey_experiment_5,2023.2.2,Win32,85.47008547,,,,,,,,,,,,,,,,328.3695,330.1691,330.1692,331.1104,return,0.0832,,67.1875,,,,,,FBP-YG-17.png,0.4,1.2,33,1,0,36,36,32,1,,,,,,,,,,,,,,,,,,,,,,,,,,,,,,,,,,,,,,,,
,,,,,WIN24_039,21,female,2024-02-07_12h48.18.859,jersey_experiment_5,2023.2.2,Win32,85.47008547,,,,,,,,,,,,,,,,331.1106,332.9105,332.9105,333.6046,return,0.0515,,39.0625,,,,,,FBP-YG-17.png,0.35,1.2,31,1,0,37,37,30,1,,,,,,,,,,,,,,,,,,,,,,,,,,,,,,,,,,,,,,,,
,,,,,WIN24_039,21,female,2024-02-07_12h48.18.859,jersey_experiment_5,2023.2.2,Win32,85.47008547,,,,,,,,,,,,,,,,333.6048,335.4047,335.4047,336.6283,return,0.0633,,69.01041667,,,,,,FBP-RB-81.png,0.4,1.2,23,1,0,38,38,22,1,,,,,,,,,,,,,,,,,,,,,,,,,,,,,,,,,,,,,,,,
,,,,,WIN24_039,21,female,2024-02-07_12h48.18.859,jersey_experiment_5,2023.2.2,Win32,85.47008547,,,,,,,,,,,,,,,,336.6285,337.9225,337.9225,339.8167,return,0.0575,,32.03125,,,,,,FBP-OG-17.png,0.37,1.2,2,0.5,0,39,39,1,1,,,,,,,,,,,,,,,,,,,,,,,,,,,,,,,,,,,,,,,,
,,,,,WIN24_039,21,female,2024-02-07_12h48.18.859,jersey_experiment_5,2023.2.2,Win32,85.47008547,,,,,,,,,,,,,,,,339.8169,341.6165,341.6165,342.3108,return,0.1907,,32.03125,,,,,,FBP-RB-81.png,0.35,1.2,21,1,0,40,40,20,1,,,,,,,,,,,,,,,,,,,,,,,,,,,,,,,,,,,,,,,,
,,,,,WIN24_039,21,female,2024-02-07_12h48.18.859,jersey_experiment_5,2023.2.2,Win32,85.47008547,,,,,,,,,,,,,,,,342.311,343.6049,343.6049,345.3227,return,0.0942,,65.36458333,,,,,,FBP-PT-91.png,0.4,1.2,58,0.5,0,41,41,57,1,,,,,,,,,,,,,,,,,,,,,,,,,,,,,,,,,,,,,,,,
,,,,,WIN24_039,21,female,2024-02-07_12h48.18.859,jersey_experiment_5,2023.2.2,Win32,85.47008547,,,,,,,,,,,,,,,,345.3229,346.6169,346.6169,348.1817,return,0.1092,,49.21875,,,,,,FBP-OG-19.png,0.37,1.2,12,0.5,0,42,42,11,1,,,,,,,,,,,,,,,,,,,,,,,,,,,,,,,,,,,,,,,,
,,,,,WIN24_039,21,female,2024-02-07_12h48.18.859,jersey_experiment_5,2023.2.2,Win32,85.47008547,,,,,,,,,,,,,,,,348.182,349.9816,349.9816,351.7227,return,0.071,,68.09895833,,,,,,FBP-RB-91.png,0.37,1.2,27,1,0,43,43,26,1,,,,,,,,,,,,,,,,,,,,,,,,,,,,,,,,,,,,,,,,
,,,,,WIN24_039,21,female,2024-02-07_12h48.18.859,jersey_experiment_5,2023.2.2,Win32,85.47008547,,,,,,,,,,,,,,,,351.7229,353.5232,353.5232,354.323,return,0.206,,77.86458333,,,,,,FBP-RB-91.png,0.4,1.2,28,1,0,44,44,27,1,,,,,,,,,,,,,,,,,,,,,,,,,,,,,,,,,,,,,,,,
,,,,,WIN24_039,21,female,2024-02-07_12h48.18.859,jersey_experiment_5,2023.2.2,Win32,85.47008547,,,,,,,,,,,,,,,,354.3232,355.6172,355.6172,357.0643,return,0.3067,,21.61458333,,,,,,FBP-OG-18.png,0.37,1.2,7,0.5,0,45,45,6,1,,,,,,,,,,,,,,,,,,,,,,,,,,,,,,,,,,,,,,,,
,,,,,WIN24_039,21,female,2024-02-07_12h48.18.859,jersey_experiment_5,2023.2.2,Win32,85.47008547,,,,,,,,,,,,,,,,357.0644,358.3584,358.3584,360.2762,return,0.1108,,82.68229167,,,,,,FBP-OG-19.png,0.43,1.2,14,0.5,0,46,46,13,1,,,,,,,,,,,,,,,,,,,,,,,,,,,,,,,,,,,,,,,,
,,,,,WIN24_039,21,female,2024-02-07_12h48.18.859,jersey_experiment_5,2023.2.2,Win32,85.47008547,,,,,,,,,,,,,,,,360.2765,362.0762,362.0762,366.7587,return,0.154,,61.58854167,,,,,,FBP-RB-81.png,0.37,1.2,22,1,0,47,47,21,1,,,,,,,,,,,,,,,,,,,,,,,,,,,,,,,,,,,,,,,,
,,,,,WIN24_039,21,female,2024-02-07_12h48.18.859,jersey_experiment_5,2023.2.2,Win32,85.47008547,,,,,,,,,,,,,,,,366.7589,368.5588,368.5588,369.5706,return,0.476,,61.58854167,,,,,,FBP-RB-71.png,0.37,1.2,17,1,0,48,48,16,1,,,,,,,,,,,,,,,,,,,,,,,,,,,,,,,,,,,,,,,,
,,,,,WIN24_039,21,female,2024-02-07_12h48.18.859,jersey_experiment_5,2023.2.2,Win32,85.47008547,,,,,,,,,,,,,,,,369.5708,370.8648,370.8649,372.5001,return,0.1463,,49.86979167,,,,,,FBP-PT-81.png,0.37,1.2,52,0.5,0,49,49,51,1,,,,,,,,,,,,,,,,,,,,,,,,,,,,,,,,,,,,,,,,
,,,,,WIN24_039,21,female,2024-02-07_12h48.18.859,jersey_experiment_5,2023.2.2,Win32,85.47008547,,,,,,,,,,,,,,,,372.5004,374.3003,374.3003,375.0649,return,0.0572,,87.36979167,,,,,,FBP-YG-19.png,0.43,1.2,44,1,0,50,50,43,1,,,,,,,,,,,,,,,,,,,,,,,,,,,,,,,,,,,,,,,,
,,,,,WIN24_039,21,female,2024-02-07_12h48.18.859,jersey_experiment_5,2023.2.2,Win32,85.47008547,,,,,,,,,,,,,,,,375.065,376.8651,376.8651,377.4414,return,0.1585,,87.36979167,,,,,,FBP-YG-17.png,0.43,1.2,34,1,0,51,51,33,1,,,,,,,,,,,,,,,,,,,,,,,,,,,,,,,,,,,,,,,,
,,,,,WIN24_039,21,female,2024-02-07_12h48.18.859,jersey_experiment_5,2023.2.2,Win32,85.47008547,,,,,,,,,,,,,,,,377.4417,378.7357,378.7357,380.0417,return,0.0614,,11.71875,,,,,,FBP-PT-91.png,0.35,1.2,56,0.5,0,52,52,55,1,,,,,,,,,,,,,,,,,,,,,,,,,,,,,,,,,,,,,,,,
,,,,,WIN24_039,21,female,2024-02-07_12h48.18.859,jersey_experiment_5,2023.2.2,Win32,85.47008547,,,,,,,,,,,,,,,,380.0419,381.8417,381.8417,382.6651,return,0.0943,,49.47916667,,,,,,FBP-YG-18.png,0.37,1.2,37,1,0,53,53,36,1,,,,,,,,,,,,,,,,,,,,,,,,,,,,,,,,,,,,,,,,
,,,,,WIN24_039,21,female,2024-02-07_12h48.18.859,jersey_experiment_5,2023.2.2,Win32,85.47008547,,,,,,,,,,,,,,,,382.6653,383.9593,383.9594,385.2654,return,0.0429,,98.30729167,,,,,,FBP-PT-91.png,0.45,1.2,60,0.5,0,54,54,59,1,,,,,,,,,,,,,,,,,,,,,,,,,,,,,,,,,,,,,,,,
,,,,,WIN24_039,21,female,2024-02-07_12h48.18.859,jersey_experiment_5,2023.2.2,Win32,85.47008547,,,,,,,,,,,,,,,,385.2657,386.5598,386.5598,387.6655,return,0.0664,,12.36979167,,,,,,FBP-OG-19.png,0.35,1.2,11,0.5,0,55,55,10,1,,,,,,,,,,,,,,,,,,,,,,,,,,,,,,,,,,,,,,,,
,,,,,WIN24_039,21,female,2024-02-07_12h48.18.859,jersey_experiment_5,2023.2.2,Win32,85.47008547,,,,,,,,,,,,,,,,387.6657,388.9596,388.9596,390.5008,return,0.0618,,74.47916667,,,,,,FBP-OG-17.png,0.4,1.2,3,0.5,0,56,56,2,1,,,,,,,,,,,,,,,,,,,,,,,,,,,,,,,,,,,,,,,,
,,,,,WIN24_039,21,female,2024-02-07_12h48.18.859,jersey_experiment_5,2023.2.2,Win32,85.47008547,,,,,,,,,,,,,,,,390.501,391.7949,391.7949,392.5714,return,0.0945,,85.80729167,,,,,,FBP-OG-17.png,0.45,1.2,5,0.5,0,57,57,4,1,,,,,,,,,,,,,,,,,,,,,,,,,,,,,,,,,,,,,,,,
,,,,,WIN24_039,21,female,2024-02-07_12h48.18.859,jersey_experiment_5,2023.2.2,Win32,85.47008547,,,,,,,,,,,,,,,,392.5716,393.8656,393.8657,394.8539,return,0.0268,,36.71875,,,,,,FBP-PT-71.png,0.37,1.2,47,0.5,0,58,58,46,1,,,,,,,,,,,,,,,,,,,,,,,,,,,,,,,,,,,,,,,,
,,,,,WIN24_039,21,female,2024-02-07_12h48.18.859,jersey_experiment_5,2023.2.2,Win32,85.47008547,,,,,,,,,,,,,,,,394.854,396.6541,396.6542,397.8658,return,0.0808,,67.1875,,,,,,FBP-YG-19.png,0.4,1.2,43,1,0,59,59,42,1,,,,,,,,,,,,,,,,,,,,,,,,,,,,,,,,,,,,,,,,
,,,,,WIN24_039,21,female,2024-02-07_12h48.18.859,jersey_experiment_5,2023.2.2,Win32,85.47008547,,,,,,,,,,,,,,,,,,,,,,,,,,,,,,,,,,,,,,,397.8662,517.8702,,,,,,,,,,,,,,,,,,,,,,,,,,,,,,,,,,,,,,
,,,,,WIN24_039,21,female,2024-02-07_12h48.18.859,jersey_experiment_5,2023.2.2,Win32,85.47008547,,,,,,,,,,,,,,,,,,,,,,,,,,,,,,,,,,,,,,,,,517.8704,526.1179,return,8.2371,,,,,,,,,,,,,,,,,,,,,,,,,,,,,,,,,,
,,,,,WIN24_039,21,female,2024-02-07_12h48.18.859,jersey_experiment_5,2023.2.2,Win32,85.47008547,,,,,,,,,,,,,,,,526.124,527.4234,527.4234,531.8119,return,2.0972,,73.4375,,,,,,FBP-YG-81.png,0.4,1.2,38,0.5,,,,,,,,,,,,,0,0,0,37,1,,,,,,,,,,,,,,,,,,,,,,,,,,,,
,,,,,WIN24_039,21,female,2024-02-07_12h48.18.859,jersey_experiment_5,2023.2.2,Win32,85.47008547,,,,,,,,,,,,,,,,531.8124,533.1058,533.1059,534.4118,return,0.565,,69.66145833,,,,,,FBP-RB-17.png,0.4,1.2,18,0.5,,,,,,,,,,,,,0,1,1,17,1,,,,,,,,,,,,,,,,,,,,,,,,,,,,
,,,,,WIN24_039,21,female,2024-02-07_12h48.18.859,jersey_experiment_5,2023.2.2,Win32,85.47008547,,,,,,,,,,,,,,,,534.412,535.7062,535.7062,536.4001,return,0.0443,,91.53645833,,,,,,FBP-RB-19.png,0.43,1.2,29,0.5,,,,,,,,,,,,,0,2,2,28,1,,,,,,,,,,,,,,,,,,,,,,,,,,,,
,,,,,WIN24_039,21,female,2024-02-07_12h48.18.859,jersey_experiment_5,2023.2.2,Win32,85.47008547,,,,,,,,,,,,,,,,536.4004,538.2002,538.2002,538.6591,return,0.028,,92.31770833,,,,,,FBP-OG-71.png,0.43,1.2,4,1,,,,,,,,,,,,,0,3,3,3,1,,,,,,,,,,,,,,,,,,,,,,,,,,,,
,,,,,WIN24_039,21,female,2024-02-07_12h48.18.859,jersey_experiment_5,2023.2.2,Win32,85.47008547,,,,,,,,,,,,,,,,538.6593,540.4592,540.4592,541.3298,return,0.0646,,14.453125,,,,,,FBP-PT-18.png,0.37,1.2,52,1,,,,,,,,,,,,,0,4,4,51,1,,,,,,,,,,,,,,,,,,,,,,,,,,,,
,,,,,WIN24_039,21,female,2024-02-07_12h48.18.859,jersey_experiment_5,2023.2.2,Win32,85.47008547,,,,,,,,,,,,,,,,541.33,542.6238,542.6238,543.7533,return,0.058,,71.61458333,,,,,,FBP-RB-18.png,0.4,1.2,23,0.5,,,,,,,,,,,,,0,5,5,22,1,,,,,,,,,,,,,,,,,,,,,,,,,,,,
,,,,,WIN24_039,21,female,2024-02-07_12h48.18.859,jersey_experiment_5,2023.2.2,Win32,85.47008547,,,,,,,,,,,,,,,,543.7536,545.0478,545.0478,545.7653,return,0.0732,,95.96354167,,,,,,FBP-RB-18.png,0.43,1.2,24,0.5,,,,,,,,,,,,,0,6,6,23,1,,,,,,,,,,,,,,,,,,,,,,,,,,,,
,,,,,WIN24_039,21,female,2024-02-07_12h48.18.859,jersey_experiment_5,2023.2.2,Win32,85.47008547,,,,,,,,,,,,,,,,545.7655,547.5652,547.5653,555.6009,return,0.1948,,95.44270833,,,,,,FBP-OG-91.png,0.45,1.2,15,1,,,,,,,,,,,,,0,7,7,14,1,,,,,,,,,,,,,,,,,,,,,,,,,,,,
,,,,,WIN24_039,21,female,2024-02-07_12h48.18.859,jersey_experiment_5,2023.2.2,Win32,85.47008547,,,,,,,,,,,,,,,,555.6011,556.8951,556.8951,557.7539,return,0.2594,,92.1875,,,,,,FBP-RB-19.png,0.45,1.2,30,0.5,,,,,,,,,,,,,0,8,8,29,1,,,,,,,,,,,,,,,,,,,,,,,,,,,,
,,,,,WIN24_039,21,female,2024-02-07_12h48.18.859,jersey_experiment_5,2023.2.2,Win32,85.47008547,,,,,,,,,,,,,,,,557.7541,559.5542,559.5542,560.554,return,0.269,,19.140625,,,,,,FBP-PT-18.png,0.4,1.2,53,1,,,,,,,,,,,,,0,9,9,52,1,,,,,,,,,,,,,,,,,,,,,,,,,,,,
,,,,,WIN24_039,21,female,2024-02-07_12h48.18.859,jersey_experiment_5,2023.2.2,Win32,85.47008547,,,,,,,,,,,,,,,,560.5543,561.8481,561.8481,562.8012,return,0.0533,,83.203125,,,,,,FBP-YG-91.png,0.45,1.2,45,0.5,,,,,,,,,,,,,0,10,10,44,1,,,,,,,,,,,,,,,,,,,,,,,,,,,,
,,,,,WIN24_039,21,female,2024-02-07_12h48.18.859,jersey_experiment_5,2023.2.2,Win32,85.47008547,,,,,,,,,,,,,,,,562.8015,564.6014,564.6014,565.8837,return,0.0603,,16.92708333,,,,,,FBP-PT-17.png,0.37,1.2,47,1,,,,,,,,,,,,,0,11,11,46,1,,,,,,,,,,,,,,,,,,,,,,,,,,,,
,,,,,WIN24_039,21,female,2024-02-07_12h48.18.859,jersey_experiment_5,2023.2.2,Win32,85.47008547,,,,,,,,,,,,,,,,565.8839,567.1778,567.1778,569.4132,return,0.1099,,72.13541667,,,,,,FBP-YG-91.png,0.4,1.2,43,0.5,,,,,,,,,,,,,0,12,12,42,1,,,,,,,,,,,,,,,,,,,,,,,,,,,,
,,,,,WIN24_039,21,female,2024-02-07_12h48.18.859,jersey_experiment_5,2023.2.2,Win32,85.47008547,,,,,,,,,,,,,,,,569.4135,571.2134,571.2134,571.9897,return,0.0271,,93.359375,,,,,,FBP-PT-17.png,0.45,1.2,50,1,,,,,,,,,,,,,0,13,13,49,1,,,,,,,,,,,,,,,,,,,,,,,,,,,,
,,,,,WIN24_039,21,female,2024-02-07_12h48.18.859,jersey_experiment_5,2023.2.2,Win32,85.47008547,,,,,,,,,,,,,,,,571.99,573.2838,573.2838,573.731,return,0.0156,,93.359375,,,,,,FBP-YG-71.png,0.45,1.2,35,0.5,,,,,,,,,,,,,0,14,14,34,1,,,,,,,,,,,,,,,,,,,,,,,,,,,,
,,,,,WIN24_039,21,female,2024-02-07_12h48.18.859,jersey_experiment_5,2023.2.2,Win32,85.47008547,,,,,,,,,,,,,,,,573.7312,575.5312,575.5313,577.0959,return,0.0814,,27.86458333,,,,,,FBP-OG-91.png,0.4,1.2,13,1,,,,,,,,,,,,,0,15,15,12,1,,,,,,,,,,,,,,,,,,,,,,,,,,,,
,,,,,WIN24_039,21,female,2024-02-07_12h48.18.859,jersey_experiment_5,2023.2.2,Win32,85.47008547,,,,,,,,,,,,,,,,577.0961,578.3898,578.3898,579.5428,return,0.0582,,0.260416667,,,,,,FBP-YG-71.png,0.35,1.2,31,0.5,,,,,,,,,,,,,0,16,16,30,1,,,,,,,,,,,,,,,,,,,,,,,,,,,,
,,,,,WIN24_039,21,female,2024-02-07_12h48.18.859,jersey_experiment_5,2023.2.2,Win32,85.47008547,,,,,,,,,,,,,,,,579.543,581.3431,581.3431,582.6138,return,0.039,,33.33333333,,,,,,FBP-PT-19.png,0.4,1.2,58,1,,,,,,,,,,,,,0,17,17,57,1,,,,,,,,,,,,,,,,,,,,,,,,,,,,
,,,,,WIN24_039,21,female,2024-02-07_12h48.18.859,jersey_experiment_5,2023.2.2,Win32,85.47008547,,,,,,,,,,,,,,,,582.6141,583.9079,583.9079,585.0961,return,0.0714,,79.94791667,,,,,,FBP-YG-81.png,0.43,1.2,39,0.5,,,,,,,,,,,,,0,18,18,38,1,,,,,,,,,,,,,,,,,,,,,,,,,,,,
,,,,,WIN24_039,21,female,2024-02-07_12h48.18.859,jersey_experiment_5,2023.2.2,Win32,85.47008547,,,,,,,,,,,,,,,,585.0963,586.8963,586.8963,588.0374,return,0.051,,0.78125,,,,,,FBP-OG-91.png,0.37,1.2,12,1,,,,,,,,,,,,,0,19,19,11,1,,,,,,,,,,,,,,,,,,,,,,,,,,,,
,,,,,WIN24_039,21,female,2024-02-07_12h48.18.859,jersey_experiment_5,2023.2.2,Win32,85.47008547,,,,,,,,,,,,,,,,588.0376,589.3315,589.3315,594.4258,return,0.0367,,55.33854167,,,,,,FBP-RB-18.png,0.35,1.2,21,0.5,,,,,,,,,,,,,0,20,20,20,1,,,,,,,,,,,,,,,,,,,,,,,,,,,,
,,,,,WIN24_039,21,female,2024-02-07_12h48.18.859,jersey_experiment_5,2023.2.2,Win32,85.47008547,,,,,,,,,,,,,,,,594.4261,596.2259,596.2259,597.0966,return,0.236,,0.130208333,,,,,,FBP-OG-91.png,0.35,1.2,11,1,,,,,,,,,,,,,0,21,21,10,1,,,,,,,,,,,,,,,,,,,,,,,,,,,,
,,,,,WIN24_039,21,female,2024-02-07_12h48.18.859,jersey_experiment_5,2023.2.2,Win32,85.47008547,,,,,,,,,,,,,,,,597.0968,598.8966,598.8966,599.5437,return,0.1043,,9.114583333,,,,,,FBP-PT-19.png,0.35,1.2,56,1,,,,,,,,,,,,,0,22,22,55,1,,,,,,,,,,,,,,,,,,,,,,,,,,,,
,,,,,WIN24_039,21,female,2024-02-07_12h48.18.859,jersey_experiment_5,2023.2.2,Win32,85.47008547,,,,,,,,,,,,,,,,599.5439,601.3439,601.3439,602.4262,return,0.1176,,85.67708333,,,,,,FBP-OG-91.png,0.43,1.2,14,1,,,,,,,,,,,,,0,23,23,13,1,,,,,,,,,,,,,,,,,,,,,,,,,,,,
,,,,,WIN24_039,21,female,2024-02-07_12h48.18.859,jersey_experiment_5,2023.2.2,Win32,85.47008547,,,,,,,,,,,,,,,,602.4265,603.7203,603.7203,605.544,return,0.1287,,1.302083333,,,,,,FBP-YG-81.png,0.35,1.2,36,0.5,,,,,,,,,,,,,0,24,24,35,1,,,,,,,,,,,,,,,,,,,,,,,,,,,,
,,,,,WIN24_039,21,female,2024-02-07_12h48.18.859,jersey_experiment_5,2023.2.2,Win32,85.47008547,,,,,,,,,,,,,,,,605.5441,606.8382,606.8382,609.0499,return,0.0817,,40.625,,,,,,FBP-RB-19.png,0.37,1.2,27,0.5,,,,,,,,,,,,,0,25,25,26,1,,,,,,,,,,,,,,,,,,,,,,,,,,,,
,,,,,WIN24_039,21,female,2024-02-07_12h48.18.859,jersey_experiment_5,2023.2.2,Win32,85.47008547,,,,,,,,,,,,,,,,609.0501,610.344,610.344,610.8736,return,0.0605,,40.625,,,,,,FBP-YG-91.png,0.37,1.2,42,0.5,,,,,,,,,,,,,0,26,26,41,1,,,,,,,,,,,,,,,,,,,,,,,,,,,,
,,,,,WIN24_039,21,female,2024-02-07_12h48.18.859,jersey_experiment_5,2023.2.2,Win32,85.47008547,,,,,,,,,,,,,,,,610.8737,612.1676,612.1676,613.2501,return,0.0425,,80.59895833,,,,,,FBP-RB-19.png,0.4,1.2,28,0.5,,,,,,,,,,,,,0,27,27,27,1,,,,,,,,,,,,,,,,,,,,,,,,,,,,
,,,,,WIN24_039,21,female,2024-02-07_12h48.18.859,jersey_experiment_5,2023.2.2,Win32,85.47008547,,,,,,,,,,,,,,,,613.2503,615.0502,615.0502,616.2502,return,0.047,,2.083333333,,,,,,FBP-PT-18.png,0.35,1.2,51,1,,,,,,,,,,,,,0,28,28,50,1,,,,,,,,,,,,,,,,,,,,,,,,,,,,
,,,,,WIN24_039,21,female,2024-02-07_12h48.18.859,jersey_experiment_5,2023.2.2,Win32,85.47008547,,,,,,,,,,,,,,,,616.2504,618.0502,618.0502,618.5443,return,0.115,,2.083333333,,,,,,FBP-OG-71.png,0.35,1.2,1,1,,,,,,,,,,,,,0,29,29,0,1,,,,,,,,,,,,,,,,,,,,,,,,,,,,
,,,,,WIN24_039,21,female,2024-02-07_12h48.18.859,jersey_experiment_5,2023.2.2,Win32,85.47008547,,,,,,,,,,,,,,,,618.5446,619.8386,619.8386,620.8857,return,0.098,,37.23958333,,,,,,FBP-YG-81.png,0.37,1.2,37,0.5,,,,,,,,,,,,,0,30,30,36,1,,,,,,,,,,,,,,,,,,,,,,,,,,,,
,,,,,WIN24_039,21,female,2024-02-07_12h48.18.859,jersey_experiment_5,2023.2.2,Win32,85.47008547,,,,,,,,,,,,,,,,620.8858,622.1797,622.1798,623.4269,return,0.2518,,98.828125,,,,,,FBP-RB-18.png,0.45,1.2,25,0.5,,,,,,,,,,,,,0,31,31,24,1,,,,,,,,,,,,,,,,,,,,,,,,,,,,
,,,,,WIN24_039,21,female,2024-02-07_12h48.18.859,jersey_experiment_5,2023.2.2,Win32,85.47008547,,,,,,,,,,,,,,,,623.427,624.721,624.7211,625.7799,return,0.0995,,49.86979167,,,,,,FBP-RB-18.png,0.37,1.2,22,0.5,,,,,,,,,,,,,0,32,32,21,1,,,,,,,,,,,,,,,,,,,,,,,,,,,,
,,,,,WIN24_039,21,female,2024-02-07_12h48.18.859,jersey_experiment_5,2023.2.2,Win32,85.47008547,,,,,,,,,,,,,,,,625.7801,627.5799,627.5799,628.4388,return,0.0584,,50.390625,,,,,,FBP-PT-19.png,0.37,1.2,57,1,,,,,,,,,,,,,0,33,33,56,1,,,,,,,,,,,,,,,,,,,,,,,,,,,,
,,,,,WIN24_039,21,female,2024-02-07_12h48.18.859,jersey_experiment_5,2023.2.2,Win32,85.47008547,,,,,,,,,,,,,,,,628.439,629.7331,629.7331,630.4743,return,0.0847,,73.046875,,,,,,FBP-YG-91.png,0.43,1.2,44,0.5,,,,,,,,,,,,,0,34,34,43,1,,,,,,,,,,,,,,,,,,,,,,,,,,,,
,,,,,WIN24_039,21,female,2024-02-07_12h48.18.859,jersey_experiment_5,2023.2.2,Win32,85.47008547,,,,,,,,,,,,,,,,630.4744,632.2743,632.2744,633.2039,return,0.0743,,99.47916667,,,,,,FBP-PT-19.png,0.45,1.2,60,1,,,,,,,,,,,,,0,35,35,59,1,,,,,,,,,,,,,,,,,,,,,,,,,,,,
,,,,,WIN24_039,21,female,2024-02-07_12h48.18.859,jersey_experiment_5,2023.2.2,Win32,85.47008547,,,,,,,,,,,,,,,,633.2041,635.0038,635.0039,636.051,return,0.0418,,68.61979167,,,,,,FBP-OG-81.png,0.4,1.2,8,1,,,,,,,,,,,,,0,36,36,7,1,,,,,,,,,,,,,,,,,,,,,,,,,,,,
,,,,,WIN24_039,21,female,2024-02-07_12h48.18.859,jersey_experiment_5,2023.2.2,Win32,85.47008547,,,,,,,,,,,,,,,,636.0511,637.851,637.851,638.3451,return,0.0239,,87.76041667,,,,,,FBP-OG-81.png,0.45,1.2,10,1,,,,,,,,,,,,,0,37,37,9,1,,,,,,,,,,,,,,,,,,,,,,,,,,,,
,,,,,WIN24_039,21,female,2024-02-07_12h48.18.859,jersey_experiment_5,2023.2.2,Win32,85.47008547,,,,,,,,,,,,,,,,638.3453,640.1454,640.1454,640.9217,return,0.0131,,67.578125,,,,,,FBP-OG-71.png,0.4,1.2,3,1,,,,,,,,,,,,,0,38,38,2,1,,,,,,,,,,,,,,,,,,,,,,,,,,,,
,,,,,WIN24_039,21,female,2024-02-07_12h48.18.859,jersey_experiment_5,2023.2.2,Win32,85.47008547,,,,,,,,,,,,,,,,640.922,642.2158,642.2158,642.8863,return,0.0732,,67.578125,,,,,,FBP-YG-71.png,0.43,1.2,34,0.5,,,,,,,,,,,,,0,39,39,33,1,,,,,,,,,,,,,,,,,,,,,,,,,,,,
,,,,,WIN24_039,21,female,2024-02-07_12h48.18.859,jersey_experiment_5,2023.2.2,Win32,85.47008547,,,,,,,,,,,,,,,,642.8866,644.6866,644.6866,645.1101,return,0.062,,67.83854167,,,,,,FBP-PT-17.png,0.43,1.2,49,1,,,,,,,,,,,,,0,40,40,48,1,,,,,,,,,,,,,,,,,,,,,,,,,,,,
,,,,,WIN24_039,21,female,2024-02-07_12h48.18.859,jersey_experiment_5,2023.2.2,Win32,85.47008547,,,,,,,,,,,,,,,,645.1104,646.4042,646.4042,647.3337,return,0.0847,,63.93229167,,,,,,FBP-YG-71.png,0.4,1.2,33,0.5,,,,,,,,,,,,,0,41,41,32,1,,,,,,,,,,,,,,,,,,,,,,,,,,,,
,,,,,WIN24_039,21,female,2024-02-07_12h48.18.859,jersey_experiment_5,2023.2.2,Win32,85.47008547,,,,,,,,,,,,,,,,647.334,649.1339,649.1339,649.8985,return,0.0707,,87.23958333,,,,,,FBP-PT-18.png,0.45,1.2,55,1,,,,,,,,,,,,,0,42,42,54,1,,,,,,,,,,,,,,,,,,,,,,,,,,,,
,,,,,WIN24_039,21,female,2024-02-07_12h48.18.859,jersey_experiment_5,2023.2.2,Win32,85.47008547,,,,,,,,,,,,,,,,649.8986,651.6986,651.6987,652.1456,return,0.0536,,87.23958333,,,,,,FBP-OG-81.png,0.43,1.2,9,1,,,,,,,,,,,,,0,43,43,8,1,,,,,,,,,,,,,,,,,,,,,,,,,,,,
,,,,,WIN24_039,21,female,2024-02-07_12h48.18.859,jersey_experiment_5,2023.2.2,Win32,85.47008547,,,,,,,,,,,,,,,,652.1458,653.9457,653.9457,654.3927,return,0.0339,,87.23958333,,,,,,FBP-PT-19.png,0.43,1.2,59,1,,,,,,,,,,,,,0,44,44,58,1,,,,,,,,,,,,,,,,,,,,,,,,,,,,
,,,,,WIN24_039,21,female,2024-02-07_12h48.18.859,jersey_experiment_5,2023.2.2,Win32,85.47008547,,,,,,,,,,,,,,,,654.3929,655.6867,655.6868,656.7576,return,0.0261,,11.84895833,,,,,,FBP-RB-17.png,0.35,1.2,16,0.5,,,,,,,,,,,,,0,45,45,15,1,,,,,,,,,,,,,,,,,,,,,,,,,,,,
,,,,,WIN24_039,21,female,2024-02-07_12h48.18.859,jersey_experiment_5,2023.2.2,Win32,85.47008547,,,,,,,,,,,,,,,,656.7579,658.5576,658.5576,659.3342,return,0.0263,,33.72395833,,,,,,FBP-OG-81.png,0.37,1.2,7,1,,,,,,,,,,,,,0,46,46,6,1,,,,,,,,,,,,,,,,,,,,,,,,,,,,
,,,,,WIN24_039,21,female,2024-02-07_12h48.18.859,jersey_experiment_5,2023.2.2,Win32,85.47008547,,,,,,,,,,,,,,,,659.3344,661.1344,661.1344,661.699,return,0.0654,,69.140625,,,,,,FBP-OG-71.png,0.45,1.2,5,1,,,,,,,,,,,,,0,47,47,4,1,,,,,,,,,,,,,,,,,,,,,,,,,,,,
,,,,,WIN24_039,21,female,2024-02-07_12h48.18.859,jersey_experiment_5,2023.2.2,Win32,85.47008547,,,,,,,,,,,,,,,,661.6992,663.4991,663.4991,664.9343,return,0.6621,,35.02604167,,,,,,FBP-PT-17.png,0.35,1.2,46,1,,,,,,,,,,,,,0,48,48,45,1,,,,,,,,,,,,,,,,,,,,,,,,,,,,
,,,,,WIN24_039,21,female,2024-02-07_12h48.18.859,jersey_experiment_5,2023.2.2,Win32,85.47008547,,,,,,,,,,,,,,,,664.9345,666.2285,666.2285,668.5463,return,0.2871,,35.41666667,,,,,,FBP-RB-19.png,0.35,1.2,26,0.5,,,,,,,,,,,,,0,49,49,25,1,,,,,,,,,,,,,,,,,,,,,,,,,,,,
,,,,,WIN24_039,21,female,2024-02-07_12h48.18.859,jersey_experiment_5,2023.2.2,Win32,85.47008547,,,,,,,,,,,,,,,,668.5465,669.8404,669.8405,670.8404,return,0.0241,,81.25,,,,,,FBP-RB-17.png,0.45,1.2,20,0.5,,,,,,,,,,,,,0,50,50,19,1,,,,,,,,,,,,,,,,,,,,,,,,,,,,
,,,,,WIN24_039,21,female,2024-02-07_12h48.18.859,jersey_experiment_5,2023.2.2,Win32,85.47008547,,,,,,,,,,,,,,,,670.8405,672.1345,672.1345,673.8405,return,0.1948,,30.59895833,,,,,,FBP-YG-91.png,0.35,1.2,41,0.5,,,,,,,,,,,,,0,51,51,40,1,,,,,,,,,,,,,,,,,,,,,,,,,,,,
,,,,,WIN24_039,21,female,2024-02-07_12h48.18.859,jersey_experiment_5,2023.2.2,Win32,85.47008547,,,,,,,,,,,,,,,,673.8408,675.6406,675.6406,676.1228,return,0.013,,13.54166667,,,,,,FBP-OG-81.png,0.35,1.2,6,1,,,,,,,,,,,,,0,52,52,5,1,,,,,,,,,,,,,,,,,,,,,,,,,,,,
,,,,,WIN24_039,21,female,2024-02-07_12h48.18.859,jersey_experiment_5,2023.2.2,Win32,85.47008547,,,,,,,,,,,,,,,,676.123,677.4172,677.4172,678.8407,return,0.0944,,97.52604167,,,,,,FBP-YG-81.png,0.45,1.2,40,0.5,,,,,,,,,,,,,0,53,53,39,1,,,,,,,,,,,,,,,,,,,,,,,,,,,,
,,,,,WIN24_039,21,female,2024-02-07_12h48.18.859,jersey_experiment_5,2023.2.2,Win32,85.47008547,,,,,,,,,,,,,,,,678.8408,680.1349,680.1349,681.8407,return,0.478,,32.03125,,,,,,FBP-YG-71.png,0.37,1.2,32,0.5,,,,,,,,,,,,,0,54,54,31,1,,,,,,,,,,,,,,,,,,,,,,,,,,,,
,,,,,WIN24_039,21,female,2024-02-07_12h48.18.859,jersey_experiment_5,2023.2.2,Win32,85.47008547,,,,,,,,,,,,,,,,681.841,683.135,683.135,684.9704,return,0.495,,49.34895833,,,,,,FBP-RB-17.png,0.37,1.2,17,0.5,,,,,,,,,,,,,0,55,55,16,1,,,,,,,,,,,,,,,,,,,,,,,,,,,,
,,,,,WIN24_039,21,female,2024-02-07_12h48.18.859,jersey_experiment_5,2023.2.2,Win32,85.47008547,,,,,,,,,,,,,,,,684.9707,686.7705,686.7705,687.3,return,0.0264,,75.390625,,,,,,FBP-PT-18.png,0.43,1.2,54,1,,,,,,,,,,,,,0,56,56,53,1,,,,,,,,,,,,,,,,,,,,,,,,,,,,
,,,,,WIN24_039,21,female,2024-02-07_12h48.18.859,jersey_experiment_5,2023.2.2,Win32,85.47008547,,,,,,,,,,,,,,,,687.3001,689.1001,689.1001,690.1707,return,0.0599,,60.41666667,,,,,,FBP-OG-71.png,0.37,1.2,2,1,,,,,,,,,,,,,0,57,57,1,1,,,,,,,,,,,,,,,,,,,,,,,,,,,,
,,,,,WIN24_039,21,female,2024-02-07_12h48.18.859,jersey_experiment_5,2023.2.2,Win32,85.47008547,,,,,,,,,,,,,,,,690.1709,691.4647,691.4647,692.2412,return,0.0304,,82.421875,,,,,,FBP-RB-17.png,0.43,1.2,19,0.5,,,,,,,,,,,,,0,58,58,18,1,,,,,,,,,,,,,,,,,,,,,,,,,,,,
,,,,,WIN24_039,21,female,2024-02-07_12h48.18.859,jersey_experiment_5,2023.2.2,Win32,85.47008547,,,,,,,,,,,,,,,,692.2415,694.0412,694.0412,694.5707,return,0.0377,,74.609375,,,,,,FBP-PT-17.png,0.4,1.2,48,1,,,,,,,,,,,,,0,59,59,47,1,,,,,,,,,,,,,,,,,,,,,,,,,,,,
,,,,,WIN24_039,21,female,2024-02-07_12h48.18.859,jersey_experiment_5,2023.2.2,Win32,85.47008547,,,,,,,,,,,,,,,,694.5727,696.3709,696.3709,697.0179,return,0.0477,,75.78125,,,,,,FBP-PT-91.png,0.43,1.2,59,1,,,,,,,,,,,,,,,,,,0,0,0,58,1,,,,,,,,,,,,,,,,,,,,,,,
,,,,,WIN24_039,21,female,2024-02-07_12h48.18.859,jersey_experiment_5,2023.2.2,Win32,85.47008547,,,,,,,,,,,,,,,,697.0182,698.818,698.8182,699.5238,return,0.0291,,32.68229167,,,,,,FBP-OG-19.png,0.37,1.2,12,1,,,,,,,,,,,,,,,,,,0,1,1,11,1,,,,,,,,,,,,,,,,,,,,,,,
,,,,,WIN24_039,21,female,2024-02-07_12h48.18.859,jersey_experiment_5,2023.2.2,Win32,85.47008547,,,,,,,,,,,,,,,,699.5241,701.324,701.324,701.771,return,0.0474,,32.68229167,,,,,,FBP-PT-91.png,0.37,1.2,57,1,,,,,,,,,,,,,,,,,,0,2,2,56,1,,,,,,,,,,,,,,,,,,,,,,,
,,,,,WIN24_039,21,female,2024-02-07_12h48.18.859,jersey_experiment_5,2023.2.2,Win32,85.47008547,,,,,,,,,,,,,,,,701.7712,703.571,703.571,704.6887,return,0.0306,,61.97916667,,,,,,FBP-PT-81.png,0.4,1.2,53,1,,,,,,,,,,,,,,,,,,0,3,3,52,1,,,,,,,,,,,,,,,,,,,,,,,
,,,,,WIN24_039,21,female,2024-02-07_12h48.18.859,jersey_experiment_5,2023.2.2,Win32,85.47008547,,,,,,,,,,,,,,,,704.6889,705.9829,705.983,707.0887,return,0.1145,,81.77083333,,,,,,FBP-RB-81.png,0.43,1.2,24,0.5,,,,,,,,,,,,,,,,,,0,4,4,23,1,,,,,,,,,,,,,,,,,,,,,,,
,,,,,WIN24_039,21,female,2024-02-07_12h48.18.859,jersey_experiment_5,2023.2.2,Win32,85.47008547,,,,,,,,,,,,,,,,707.089,708.889,708.889,709.3007,return,0.0265,,67.31770833,,,,,,FBP-PT-71.png,0.4,1.2,48,1,,,,,,,,,,,,,,,,,,0,5,5,47,1,,,,,,,,,,,,,,,,,,,,,,,
,,,,,WIN24_039,21,female,2024-02-07_12h48.18.859,jersey_experiment_5,2023.2.2,Win32,85.47008547,,,,,,,,,,,,,,,,709.3011,710.5948,710.5948,711.383,return,0.0256,,80.20833333,,,,,,FBP-YG-19.png,0.4,1.2,43,0.5,,,,,,,,,,,,,,,,,,0,6,6,42,1,,,,,,,,,,,,,,,,,,,,,,,
,,,,,WIN24_039,21,female,2024-02-07_12h48.18.859,jersey_experiment_5,2023.2.2,Win32,85.47008547,,,,,,,,,,,,,,,,711.3832,712.6772,712.6772,713.3124,return,0.0409,,90.234375,,,,,,FBP-RB-91.png,0.45,1.2,30,0.5,,,,,,,,,,,,,,,,,,0,7,7,29,1,,,,,,,,,,,,,,,,,,,,,,,
,,,,,WIN24_039,21,female,2024-02-07_12h48.18.859,jersey_experiment_5,2023.2.2,Win32,85.47008547,,,,,,,,,,,,,,,,713.3127,715.1129,715.1129,715.595,return,0.1648,,90.234375,,,,,,FBP-PT-91.png,0.45,1.2,60,1,,,,,,,,,,,,,,,,,,0,8,8,59,1,,,,,,,,,,,,,,,,,,,,,,,
,,,,,WIN24_039,21,female,2024-02-07_12h48.18.859,jersey_experiment_5,2023.2.2,Win32,85.47008547,,,,,,,,,,,,,,,,715.5952,716.8891,716.8891,717.3363,return,0.0345,,90.234375,,,,,,FBP-RB-71.png,0.45,1.2,20,0.5,,,,,,,,,,,,,,,,,,0,9,9,19,1,,,,,,,,,,,,,,,,,,,,,,,
,,,,,WIN24_039,21,female,2024-02-07_12h48.18.859,jersey_experiment_5,2023.2.2,Win32,85.47008547,,,,,,,,,,,,,,,,717.3364,719.1362,719.1363,719.8304,return,0.2002,,90.234375,,,,,,FBP-PT-71.png,0.45,1.2,50,1,,,,,,,,,,,,,,,,,,0,10,10,49,1,,,,,,,,,,,,,,,,,,,,,,,
,,,,,WIN24_039,21,female,2024-02-07_12h48.18.859,jersey_experiment_5,2023.2.2,Win32,85.47008547,,,,,,,,,,,,,,,,719.8306,721.6308,721.6308,722.4541,return,0.0617,,17.31770833,,,,,,FBP-PT-91.png,0.35,1.2,56,1,,,,,,,,,,,,,,,,,,0,11,11,55,1,,,,,,,,,,,,,,,,,,,,,,,
,,,,,WIN24_039,21,female,2024-02-07_12h48.18.859,jersey_experiment_5,2023.2.2,Win32,85.47008547,,,,,,,,,,,,,,,,722.4543,724.2544,724.2544,725.066,return,0.0381,,71.22395833,,,,,,FBP-PT-71.png,0.43,1.2,49,1,,,,,,,,,,,,,,,,,,0,12,12,48,1,,,,,,,,,,,,,,,,,,,,,,,
,,,,,WIN24_039,21,female,2024-02-07_12h48.18.859,jersey_experiment_5,2023.2.2,Win32,85.47008547,,,,,,,,,,,,,,,,725.0662,726.866,726.8661,727.7131,return,0.0423,,49.08854167,,,,,,FBP-OG-19.png,0.4,1.2,13,1,,,,,,,,,,,,,,,,,,0,13,13,12,1,,,,,,,,,,,,,,,,,,,,,,,
,,,,,WIN24_039,21,female,2024-02-07_12h48.18.859,jersey_experiment_5,2023.2.2,Win32,85.47008547,,,,,,,,,,,,,,,,727.7133,729.0072,729.0072,730.0189,return,0.0638,,33.46354167,,,,,,FBP-RB-81.png,0.37,1.2,22,0.5,,,,,,,,,,,,,,,,,,0,14,14,21,1,,,,,,,,,,,,,,,,,,,,,,,
,,,,,WIN24_039,21,female,2024-02-07_12h48.18.859,jersey_experiment_5,2023.2.2,Win32,85.47008547,,,,,,,,,,,,,,,,730.0191,731.8192,731.8192,732.6309,return,0.2238,,33.46354167,,,,,,FBP-PT-81.png,0.35,1.2,51,1,,,,,,,,,,,,,,,,,,0,15,15,50,1,,,,,,,,,,,,,,,,,,,,,,,
,,,,,WIN24_039,21,female,2024-02-07_12h48.18.859,jersey_experiment_5,2023.2.2,Win32,85.47008547,,,,,,,,,,,,,,,,732.631,733.9251,733.9251,735.8781,return,0.8505,,48.046875,,,,,,FBP-RB-91.png,0.37,1.2,27,0.5,,,,,,,,,,,,,,,,,,0,16,16,26,1,,,,,,,,,,,,,,,,,,,,,,,
,,,,,WIN24_039,21,female,2024-02-07_12h48.18.859,jersey_experiment_5,2023.2.2,Win32,85.47008547,,,,,,,,,,,,,,,,735.8783,737.1722,737.1722,738.1135,return,0.2428,,49.34895833,,,,,,FBP-YG-17.png,0.37,1.2,32,0.5,,,,,,,,,,,,,,,,,,0,17,17,31,1,,,,,,,,,,,,,,,,,,,,,,,
,,,,,WIN24_039,21,female,2024-02-07_12h48.18.859,jersey_experiment_5,2023.2.2,Win32,85.47008547,,,,,,,,,,,,,,,,738.1136,739.4076,739.4076,739.8312,return,0.0364,,49.34895833,,,,,,FBP-YG-18.png,0.37,1.2,37,0.5,,,,,,,,,,,,,,,,,,0,18,18,36,1,,,,,,,,,,,,,,,,,,,,,,,
,,,,,WIN24_039,21,female,2024-02-07_12h48.18.859,jersey_experiment_5,2023.2.2,Win32,85.47008547,,,,,,,,,,,,,,,,739.8313,741.1253,741.1253,741.9724,return,0.099,,75.52083333,,,,,,FBP-RB-71.png,0.43,1.2,19,0.5,,,,,,,,,,,,,,,,,,0,19,19,18,1,,,,,,,,,,,,,,,,,,,,,,,
,,,,,WIN24_039,21,female,2024-02-07_12h48.18.859,jersey_experiment_5,2023.2.2,Win32,85.47008547,,,,,,,,,,,,,,,,741.9726,743.7726,743.7726,743.9724,return,0.062,,75.52083333,,,,,,FBP-OG-17.png,0.4,1.2,3,1,,,,,,,,,,,,,,,,,,0,20,20,2,1,,,,,,,,,,,,,,,,,,,,,,,
,,,,,WIN24_039,21,female,2024-02-07_12h48.18.859,jersey_experiment_5,2023.2.2,Win32,85.47008547,,,,,,,,,,,,,,,,743.9726,745.2665,745.2666,746.5021,return,0.0622,,79.42708333,,,,,,FBP-RB-91.png,0.4,1.2,28,0.5,,,,,,,,,,,,,,,,,,0,21,21,27,1,,,,,,,,,,,,,,,,,,,,,,,
,,,,,WIN24_039,21,female,2024-02-07_12h48.18.859,jersey_experiment_5,2023.2.2,Win32,85.47008547,,,,,,,,,,,,,,,,746.5024,747.7962,747.7962,748.808,return,0.0479,,58.07291667,,,,,,FBP-RB-71.png,0.37,1.2,17,0.5,,,,,,,,,,,,,,,,,,0,22,22,16,1,,,,,,,,,,,,,,,,,,,,,,,
,,,,,WIN24_039,21,female,2024-02-07_12h48.18.859,jersey_experiment_5,2023.2.2,Win32,85.47008547,,,,,,,,,,,,,,,,748.8082,750.608,750.608,751.1845,return,0.0677,,66.53645833,,,,,,FBP-OG-18.png,0.4,1.2,8,1,,,,,,,,,,,,,,,,,,0,23,23,7,1,,,,,,,,,,,,,,,,,,,,,,,
,,,,,WIN24_039,21,female,2024-02-07_12h48.18.859,jersey_experiment_5,2023.2.2,Win32,85.47008547,,,,,,,,,,,,,,,,751.1847,752.4786,752.4787,753.4787,return,0.2617,,74.47916667,,,,,,FBP-YG-18.png,0.43,1.2,39,0.5,,,,,,,,,,,,,,,,,,0,24,24,38,1,,,,,,,,,,,,,,,,,,,,,,,
,,,,,WIN24_039,21,female,2024-02-07_12h48.18.859,jersey_experiment_5,2023.2.2,Win32,85.47008547,,,,,,,,,,,,,,,,753.4789,755.2789,755.279,757.0907,return,0.3246,,32.16145833,,,,,,FBP-OG-17.png,0.35,1.2,1,1,,,,,,,,,,,,,,,,,,0,25,25,0,1,,,,,,,,,,,,,,,,,,,,,,,
,,,,,WIN24_039,21,female,2024-02-07_12h48.18.859,jersey_experiment_5,2023.2.2,Win32,85.47008547,,,,,,,,,,,,,,,,757.0909,758.3848,758.3848,760.2084,return,0.1031,,74.21875,,,,,,FBP-RB-71.png,0.4,1.2,18,0.5,,,,,,,,,,,,,,,,,,0,26,26,17,1,,,,,,,,,,,,,,,,,,,,,,,
,,,,,WIN24_039,21,female,2024-02-07_12h48.18.859,jersey_experiment_5,2023.2.2,Win32,85.47008547,,,,,,,,,,,,,,,,760.2086,762.0085,762.0085,762.7615,return,0.0599,,51.43229167,,,,,,FBP-PT-81.png,0.37,1.2,52,1,,,,,,,,,,,,,,,,,,0,27,27,51,1,,,,,,,,,,,,,,,,,,,,,,,
,,,,,WIN24_039,21,female,2024-02-07_12h48.18.859,jersey_experiment_5,2023.2.2,Win32,85.47008547,,,,,,,,,,,,,,,,762.7617,764.5616,764.5617,765.6673,return,0.2174,,70.44270833,,,,,,FBP-OG-18.png,0.43,1.2,9,1,,,,,,,,,,,,,,,,,,0,28,28,8,1,,,,,,,,,,,,,,,,,,,,,,,
,,,,,WIN24_039,21,female,2024-02-07_12h48.18.859,jersey_experiment_5,2023.2.2,Win32,85.47008547,,,,,,,,,,,,,,,,765.6674,767.4677,767.4678,767.9616,return,0.0601,,79.03645833,,,,,,FBP-PT-81.png,0.45,1.2,55,1,,,,,,,,,,,,,,,,,,0,29,29,54,1,,,,,,,,,,,,,,,,,,,,,,,
,,,,,WIN24_039,21,female,2024-02-07_12h48.18.859,jersey_experiment_5,2023.2.2,Win32,85.47008547,,,,,,,,,,,,,,,,767.9618,769.7616,769.7616,770.5147,return,0.1008,,89.0625,,,,,,FBP-OG-18.png,0.45,1.2,10,1,,,,,,,,,,,,,,,,,,0,30,30,9,1,,,,,,,,,,,,,,,,,,,,,,,
,,,,,WIN24_039,21,female,2024-02-07_12h48.18.859,jersey_experiment_5,2023.2.2,Win32,85.47008547,,,,,,,,,,,,,,,,770.5149,772.3149,772.3149,773.0677,return,0.0472,,56.640625,,,,,,FBP-PT-71.png,0.37,1.2,47,1,,,,,,,,,,,,,,,,,,0,31,31,46,1,,,,,,,,,,,,,,,,,,,,,,,
,,,,,WIN24_039,21,female,2024-02-07_12h48.18.859,jersey_experiment_5,2023.2.2,Win32,85.47008547,,,,,,,,,,,,,,,,773.0679,774.8678,774.8678,775.2913,return,0.3393,,56.640625,,,,,,FBP-OG-18.png,0.37,1.2,7,1,,,,,,,,,,,,,,,,,,0,32,32,6,1,,,,,,,,,,,,,,,,,,,,,,,
,,,,,WIN24_039,21,female,2024-02-07_12h48.18.859,jersey_experiment_5,2023.2.2,Win32,85.47008547,,,,,,,,,,,,,,,,775.2914,777.0913,777.0913,777.7149,return,0.0627,,67.31770833,,,,,,FBP-OG-17.png,0.43,1.2,4,1,,,,,,,,,,,,,,,,,,0,33,33,3,1,,,,,,,,,,,,,,,,,,,,,,,
,,,,,WIN24_039,21,female,2024-02-07_12h48.18.859,jersey_experiment_5,2023.2.2,Win32,85.47008547,,,,,,,,,,,,,,,,777.7151,779.0092,779.0092,779.5739,return,0.1318,,67.31770833,,,,,,FBP-YG-17.png,0.4,1.2,33,0.5,,,,,,,,,,,,,,,,,,0,34,34,32,1,,,,,,,,,,,,,,,,,,,,,,,
,,,,,WIN24_039,21,female,2024-02-07_12h48.18.859,jersey_experiment_5,2023.2.2,Win32,85.47008547,,,,,,,,,,,,,,,,779.5741,780.868,780.868,781.5386,return,0.0759,,70.83333333,,,,,,FBP-YG-19.png,0.43,1.2,44,0.5,,,,,,,,,,,,,,,,,,0,35,35,43,1,,,,,,,,,,,,,,,,,,,,,,,
,,,,,WIN24_039,21,female,2024-02-07_12h48.18.859,jersey_experiment_5,2023.2.2,Win32,85.47008547,,,,,,,,,,,,,,,,781.5389,782.8328,782.8328,783.9152,return,0.0476,,75,,,,,,FBP-YG-18.png,0.45,1.2,40,0.5,,,,,,,,,,,,,,,,,,0,36,36,39,1,,,,,,,,,,,,,,,,,,,,,,,
,,,,,WIN24_039,21,female,2024-02-07_12h48.18.859,jersey_experiment_5,2023.2.2,Win32,85.47008547,,,,,,,,,,,,,,,,783.9155,785.7152,785.7152,786.1387,return,0.0708,,75,,,,,,FBP-OG-17.png,0.45,1.2,5,1,,,,,,,,,,,,,,,,,,0,37,37,4,1,,,,,,,,,,,,,,,,,,,,,,,
,,,,,WIN24_039,21,female,2024-02-07_12h48.18.859,jersey_experiment_5,2023.2.2,Win32,85.47008547,,,,,,,,,,,,,,,,786.1389,787.4329,787.433,788.8212,return,0.0745,,50.65104167,,,,,,FBP-YG-19.png,0.37,1.2,42,0.5,,,,,,,,,,,,,,,,,,0,38,38,41,1,,,,,,,,,,,,,,,,,,,,,,,
,,,,,WIN24_039,21,female,2024-02-07_12h48.18.859,jersey_experiment_5,2023.2.2,Win32,85.47008547,,,,,,,,,,,,,,,,788.8214,790.1153,790.1153,791.1155,return,0.071,,36.71875,,,,,,FBP-RB-81.png,0.35,1.2,21,0.5,,,,,,,,,,,,,,,,,,0,39,39,20,1,,,,,,,,,,,,,,,,,,,,,,,
,,,,,WIN24_039,21,female,2024-02-07_12h48.18.859,jersey_experiment_5,2023.2.2,Win32,85.47008547,,,,,,,,,,,,,,,,791.1157,792.9156,792.9156,793.7625,return,0.0872,,69.79166667,,,,,,FBP-PT-81.png,0.43,1.2,54,1,,,,,,,,,,,,,,,,,,0,40,40,53,1,,,,,,,,,,,,,,,,,,,,,,,
,,,,,WIN24_039,21,female,2024-02-07_12h48.18.859,jersey_experiment_5,2023.2.2,Win32,85.47008547,,,,,,,,,,,,,,,,793.7627,795.0567,795.0567,795.8333,return,0.2592,,69.79166667,,,,,,FBP-YG-17.png,0.43,1.2,34,0.5,,,,,,,,,,,,,,,,,,0,41,41,33,1,,,,,,,,,,,,,,,,,,,,,,,
,,,,,WIN24_039,21,female,2024-02-07_12h48.18.859,jersey_experiment_5,2023.2.2,Win32,85.47008547,,,,,,,,,,,,,,,,795.8334,797.1274,797.1274,798.6451,return,0.2511,,35.546875,,,,,,FBP-YG-17.png,0.35,1.2,31,0.5,,,,,,,,,,,,,,,,,,0,42,42,30,1,,,,,,,,,,,,,,,,,,,,,,,
,,,,,WIN24_039,21,female,2024-02-07_12h48.18.859,jersey_experiment_5,2023.2.2,Win32,85.47008547,,,,,,,,,,,,,,,,798.6453,799.9393,799.9393,800.9629,return,0.1949,,34.24479167,,,,,,FBP-RB-71.png,0.35,1.2,16,0.5,,,,,,,,,,,,,,,,,,0,43,43,15,1,,,,,,,,,,,,,,,,,,,,,,,
,,,,,WIN24_039,21,female,2024-02-07_12h48.18.859,jersey_experiment_5,2023.2.2,Win32,85.47008547,,,,,,,,,,,,,,,,800.9631,802.257,802.257,803.4335,return,0.1649,,29.94791667,,,,,,FBP-YG-18.png,0.35,1.2,36,0.5,,,,,,,,,,,,,,,,,,0,44,44,35,1,,,,,,,,,,,,,,,,,,,,,,,
,,,,,WIN24_039,21,female,2024-02-07_12h48.18.859,jersey_experiment_5,2023.2.2,Win32,85.47008547,,,,,,,,,,,,,,,,803.4337,804.7277,804.7277,805.763,return,0.1328,,36.97916667,,,,,,FBP-RB-91.png,0.35,1.2,26,0.5,,,,,,,,,,,,,,,,,,0,45,45,25,1,,,,,,,,,,,,,,,,,,,,,,,
,,,,,WIN24_039,21,female,2024-02-07_12h48.18.859,jersey_experiment_5,2023.2.2,Win32,85.47008547,,,,,,,,,,,,,,,,805.7632,807.5632,807.5633,808.4574,return,0.1415,,41.92708333,,,,,,FBP-PT-71.png,0.35,1.2,46,1,,,,,,,,,,,,,,,,,,0,46,46,45,1,,,,,,,,,,,,,,,,,,,,,,,
,,,,,WIN24_039,21,female,2024-02-07_12h48.18.859,jersey_experiment_5,2023.2.2,Win32,85.47008547,,,,,,,,,,,,,,,,808.4576,809.7514,809.7514,811.2338,return,0.6872,,61.58854167,,,,,,FBP-YG-18.png,0.4,1.2,38,0.5,,,,,,,,,,,,,,,,,,0,47,47,37,1,,,,,,,,,,,,,,,,,,,,,,,
,,,,,WIN24_039,21,female,2024-02-07_12h48.18.859,jersey_experiment_5,2023.2.2,Win32,85.47008547,,,,,,,,,,,,,,,,811.2341,813.034,813.034,813.7868,return,0.3534,,49.609375,,,,,,FBP-OG-18.png,0.35,1.2,6,1,,,,,,,,,,,,,,,,,,0,48,48,5,1,,,,,,,,,,,,,,,,,,,,,,,
,,,,,WIN24_039,21,female,2024-02-07_12h48.18.859,jersey_experiment_5,2023.2.2,Win32,85.47008547,,,,,,,,,,,,,,,,813.787,815.081,815.0811,816.0106,return,0.1793,,65.234375,,,,,,FBP-RB-81.png,0.4,1.2,23,0.5,,,,,,,,,,,,,,,,,,0,49,49,22,1,,,,,,,,,,,,,,,,,,,,,,,
,,,,,WIN24_039,21,female,2024-02-07_12h48.18.859,jersey_experiment_5,2023.2.2,Win32,85.47008547,,,,,,,,,,,,,,,,816.0109,817.3047,817.3047,818.8812,return,0.0994,,71.22395833,,,,,,FBP-YG-19.png,0.35,1.2,41,0.5,,,,,,,,,,,,,,,,,,0,50,50,40,1,,,,,,,,,,,,,,,,,,,,,,,
,,,,,WIN24_039,21,female,2024-02-07_12h48.18.859,jersey_experiment_5,2023.2.2,Win32,85.47008547,,,,,,,,,,,,,,,,818.8813,820.6813,820.6814,821.3048,return,0.1661,,85.02604167,,,,,,FBP-OG-19.png,0.43,1.2,14,1,,,,,,,,,,,,,,,,,,0,51,51,13,1,,,,,,,,,,,,,,,,,,,,,,,
,,,,,WIN24_039,21,female,2024-02-07_12h48.18.859,jersey_experiment_5,2023.2.2,Win32,85.47008547,,,,,,,,,,,,,,,,821.305,822.599,822.599,823.7167,return,0.2036,,88.41145833,,,,,,FBP-RB-91.png,0.43,1.2,29,0.5,,,,,,,,,,,,,,,,,,0,52,52,28,1,,,,,,,,,,,,,,,,,,,,,,,
,,,,,WIN24_039,21,female,2024-02-07_12h48.18.859,jersey_experiment_5,2023.2.2,Win32,85.47008547,,,,,,,,,,,,,,,,823.7168,825.0107,825.0108,826.0109,return,0.0838,,98.17708333,,,,,,FBP-YG-19.png,0.45,1.2,45,0.5,,,,,,,,,,,,,,,,,,0,53,53,44,1,,,,,,,,,,,,,,,,,,,,,,,
,,,,,WIN24_039,21,female,2024-02-07_12h48.18.859,jersey_experiment_5,2023.2.2,Win32,85.47008547,,,,,,,,,,,,,,,,826.0111,827.8111,827.8112,829.3874,return,0.1413,,35.546875,,,,,,FBP-OG-19.png,0.35,1.2,11,1,,,,,,,,,,,,,,,,,,0,54,54,10,1,,,,,,,,,,,,,,,,,,,,,,,
,,,,,WIN24_039,21,female,2024-02-07_12h48.18.859,jersey_experiment_5,2023.2.2,Win32,85.47008547,,,,,,,,,,,,,,,,829.3876,831.1875,831.1875,832.964,return,0.2171,,83.984375,,,,,,FBP-OG-19.png,0.45,1.2,15,1,,,,,,,,,,,,,,,,,,0,55,55,14,1,,,,,,,,,,,,,,,,,,,,,,,
,,,,,WIN24_039,21,female,2024-02-07_12h48.18.859,jersey_experiment_5,2023.2.2,Win32,85.47008547,,,,,,,,,,,,,,,,832.9642,834.2582,834.2583,834.8817,return,0.0283,,88.41145833,,,,,,FBP-YG-17.png,0.45,1.2,35,0.5,,,,,,,,,,,,,,,,,,0,56,56,34,1,,,,,,,,,,,,,,,,,,,,,,,
,,,,,WIN24_039,21,female,2024-02-07_12h48.18.859,jersey_experiment_5,2023.2.2,Win32,85.47008547,,,,,,,,,,,,,,,,834.882,836.6817,836.6818,838.4231,return,0.1771,,36.97916667,,,,,,FBP-OG-17.png,0.37,1.2,2,1,,,,,,,,,,,,,,,,,,0,57,57,1,1,,,,,,,,,,,,,,,,,,,,,,,
,,,,,WIN24_039,21,female,2024-02-07_12h48.18.859,jersey_experiment_5,2023.2.2,Win32,85.47008547,,,,,,,,,,,,,,,,838.4233,840.2232,840.2232,841.3879,return,0.0711,,67.83854167,,,,,,FBP-PT-91.png,0.4,1.2,58,1,,,,,,,,,,,,,,,,,,0,58,58,57,1,,,,,,,,,,,,,,,,,,,,,,,
,,,,,WIN24_039,21,female,2024-02-07_12h48.18.859,jersey_experiment_5,2023.2.2,Win32,85.47008547,,,,,,,,,,,,,,,,841.3881,842.682,842.682,843.4585,return,0.0771,,94.40104167,,,,,,FBP-RB-81.png,0.45,1.2,25,0.5,,,,,,,,,,,,,,,,,,0,59,59,24,1,,,,,,,,,,,,,,,,,,,,,,,
,,,,,WIN24_039,21,female,2024-02-07_12h48.18.859,jersey_experiment_5,2023.2.2,Win32,85.47008547,,,,,,,,,,,,,,,,,,,,,,,,,,,,,,,,,,,,,,,,,,,,,,,,,,,,,,,,843.4589,849.0473,return,5.5772,,,,,,,,,,,,,,,,,,,
,,,,,WIN24_039,21,female,2024-02-07_12h48.18.859,jersey_experiment_5,2023.2.2,Win32,85.47008547,,,,,,,,,,,,,,,,,,,,,,,,,,,,,,,,,,,,,,,,,,,,,,,,,,,,,,,,,,,,,849.0475,853.7178,1,3.5563,return,1.0956,,,,,,,,,,,,
,,,,,WIN24_039,21,female,2024-02-07_12h48.18.859,jersey_experiment_5,2023.2.2,Win32,85.47008547,,,,,,,,,,,,,,,,,,,,,,,,,,,,,,,,,,,,,,,,,,,,,,,,,,,,,,,,,,,,,,,,,,,,853.718,923.643,"Parsing the perception of racially divergent men as husky or not, based on stereotyped notions of their bodytypes.",right,65.476,,,,,,
,,,,,WIN24_039,21,female,2024-02-07_12h48.18.859,jersey_experiment_5,2023.2.2,Win32,85.47008547,,,,,,,,,,,,,,,,,,,,,,,,,,,,,,,,,,,,,,,,,,,,,,,,,,,,,,,,,,,,,,,,,,,,,,,,,,923.6432,927.1559,return,3.4978,