requirements.started,requirements.stopped,key_resp_3.keys,key_resp_3.rt,key_resp_3.duration,Subject ID,Age,Gender,date,expName,psychopyVersion,OS,frameRate,instructions1.started,instructions1.stopped,key_resp.keys,key_resp.rt,key_resp.duration,example.started,example.stopped,enter_2.keys,enter_2.rt,enter_2.duration,instructions2.started,instructions2.stopped,enter_3.keys,enter_3.rt,enter_3.duration,image.started,image.stopped,slider_2.started,slider_2.stopped,next.keys,next.rt,next.duration,slider.response,trial_block_1.thisRepN,trial_block_1.thisTrialN,trial_block_1.thisN,trial_block_1.thisIndex,trial_block_1.ran,Path,Width,Height,Index,Duration,trial_block_2.thisRepN,trial_block_2.thisTrialN,trial_block_2.thisN,trial_block_2.thisIndex,trial_block_2.ran,rest_break.started,rest_break.stopped,end_break.started,end_break.stopped,key_resp_5.keys,key_resp_5.rt,key_resp_5.duration,trial_block_3.thisRepN,trial_block_3.thisTrialN,trial_block_3.thisN,trial_block_3.thisIndex,trial_block_3.ran,trial_block_4.thisRepN,trial_block_4.thisTrialN,trial_block_4.thisN,trial_block_4.thisIndex,trial_block_4.ran,questions_intro.started,questions_intro.stopped,enter_12.keys,enter_12.rt,enter_12.duration,question2.started,question2.stopped,question_doingbest.response,question_doingbest.rt,enter_15.keys,enter_15.rt,enter_15.duration,pattern.started,pattern.stopped,pattern_2.text,enter_17.keys,enter_17.rt,enter_17.duration,thankyou.started,thankyou.stopped,enter_14.keys,enter_14.rt,enter_14.duration
0.0002,6.8783,return,6.8732,,WIN24_059,21,F,2024-02-13_14h02.31.522,jersey_experiment_5,2023.2.2,Win32,85.47008547,,,,,,,,,,,,,,,,,,,,,,,,,,,,,,,,,,,,,,,,,,,,,,,,,,,,,,,,,,,,,,,,,,,,,,,,,,,,,,
,,,,,WIN24_059,21,F,2024-02-13_14h02.31.522,jersey_experiment_5,2023.2.2,Win32,85.47008547,6.8784,12.4808,return,5.5899,,,,,,,,,,,,,,,,,,,,,,,,,,,,,,,,,,,,,,,,,,,,,,,,,,,,,,,,,,,,,,,,,,,,,,,,,,
,,,,,WIN24_059,21,F,2024-02-13_14h02.31.522,jersey_experiment_5,2023.2.2,Win32,85.47008547,,,,,,12.481,17.2276,return,4.7125,,,,,,,,,,,,,,,,,,,,,,,,,,,,,,,,,,,,,,,,,,,,,,,,,,,,,,,,,,,,,,,,,,,,,
,,,,,WIN24_059,21,F,2024-02-13_14h02.31.522,jersey_experiment_5,2023.2.2,Win32,85.47008547,,,,,,,,,,,17.2277,25.7637,return,8.5177,,,,,,,,,,,,,,,,,,,,,,,,,,,,,,,,,,,,,,,,,,,,,,,,,,,,,,,,,,,,,,,,
,,,,,WIN24_059,21,F,2024-02-13_14h02.31.522,jersey_experiment_5,2023.2.2,Win32,85.47008547,,,,,,,,,,,,,,,,25.7714,27.5637,27.5638,38.3879,return,3.2933,,49.73958333,0,0,0,20,1,FBP-RB-18.png,0.35,1.2,21,1,,,,,,,,,,,,,,,,,,,,,,,,,,,,,,,,,,,,,,,,,,,,,
,,,,,WIN24_059,21,F,2024-02-13_14h02.31.522,jersey_experiment_5,2023.2.2,Win32,85.47008547,,,,,,,,,,,,,,,,38.3924,40.1874,40.1875,43.4112,return,1.634,,24.08854167,0,1,1,30,1,FBP-YG-71.png,0.35,1.2,31,1,,,,,,,,,,,,,,,,,,,,,,,,,,,,,,,,,,,,,,,,,,,,,
,,,,,WIN24_059,21,F,2024-02-13_14h02.31.522,jersey_experiment_5,2023.2.2,Win32,85.47008547,,,,,,,,,,,,,,,,43.4113,45.2112,45.2113,47.682,return,0.79,,61.45833333,0,2,2,41,1,FBP-YG-91.png,0.37,1.2,42,1,,,,,,,,,,,,,,,,,,,,,,,,,,,,,,,,,,,,,,,,,,,,,
,,,,,WIN24_059,21,F,2024-02-13_14h02.31.522,jersey_experiment_5,2023.2.2,Win32,85.47008547,,,,,,,,,,,,,,,,47.6822,48.9761,48.9762,51.2467,return,0.8742,,74.73958333,0,3,3,49,1,FBP-PT-17.png,0.45,1.2,50,0.5,,,,,,,,,,,,,,,,,,,,,,,,,,,,,,,,,,,,,,,,,,,,,
,,,,,WIN24_059,21,F,2024-02-13_14h02.31.522,jersey_experiment_5,2023.2.2,Win32,85.47008547,,,,,,,,,,,,,,,,51.2469,53.0468,53.0469,54.5879,return,0.4621,,49.47916667,0,4,4,31,1,FBP-YG-71.png,0.37,1.2,32,1,,,,,,,,,,,,,,,,,,,,,,,,,,,,,,,,,,,,,,,,,,,,,
,,,,,WIN24_059,21,F,2024-02-13_14h02.31.522,jersey_experiment_5,2023.2.2,Win32,85.47008547,,,,,,,,,,,,,,,,54.5881,56.3884,56.3884,58.094,return,0.5557,,73.56770833,0,5,5,23,1,FBP-RB-18.png,0.43,1.2,24,1,,,,,,,,,,,,,,,,,,,,,,,,,,,,,,,,,,,,,,,,,,,,,
,,,,,WIN24_059,21,F,2024-02-13_14h02.31.522,jersey_experiment_5,2023.2.2,Win32,85.47008547,,,,,,,,,,,,,,,,58.0943,59.8942,59.8942,61.0587,return,0.2354,,49.47916667,0,6,6,15,1,FBP-RB-17.png,0.35,1.2,16,1,,,,,,,,,,,,,,,,,,,,,,,,,,,,,,,,,,,,,,,,,,,,,
,,,,,WIN24_059,21,F,2024-02-13_14h02.31.522,jersey_experiment_5,2023.2.2,Win32,85.47008547,,,,,,,,,,,,,,,,61.0588,62.353,62.3531,64.3295,return,0.1368,,49.21875,0,7,7,1,1,FBP-OG-71.png,0.37,1.2,2,0.5,,,,,,,,,,,,,,,,,,,,,,,,,,,,,,,,,,,,,,,,,,,,,
,,,,,WIN24_059,21,F,2024-02-13_14h02.31.522,jersey_experiment_5,2023.2.2,Win32,85.47008547,,,,,,,,,,,,,,,,64.3297,65.6237,65.6237,67.2826,return,0.2501,,75.390625,0,8,8,12,1,FBP-OG-91.png,0.4,1.2,13,0.5,,,,,,,,,,,,,,,,,,,,,,,,,,,,,,,,,,,,,,,,,,,,,
,,,,,WIN24_059,21,F,2024-02-13_14h02.31.522,jersey_experiment_5,2023.2.2,Win32,85.47008547,,,,,,,,,,,,,,,,67.2829,68.5768,68.5768,70.718,return,1.0982,,74.86979167,0,9,9,51,1,FBP-PT-18.png,0.37,1.2,52,0.5,,,,,,,,,,,,,,,,,,,,,,,,,,,,,,,,,,,,,,,,,,,,,
,,,,,WIN24_059,21,F,2024-02-13_14h02.31.522,jersey_experiment_5,2023.2.2,Win32,85.47008547,,,,,,,,,,,,,,,,70.7183,72.0122,72.0122,73.9064,return,0.6826,,87.5,0,10,10,14,1,FBP-OG-91.png,0.45,1.2,15,0.5,,,,,,,,,,,,,,,,,,,,,,,,,,,,,,,,,,,,,,,,,,,,,
,,,,,WIN24_059,21,F,2024-02-13_14h02.31.522,jersey_experiment_5,2023.2.2,Win32,85.47008547,,,,,,,,,,,,,,,,73.9066,75.7064,75.7064,76.577,return,0.3536,,87.5,0,11,11,44,1,FBP-YG-91.png,0.45,1.2,45,1,,,,,,,,,,,,,,,,,,,,,,,,,,,,,,,,,,,,,,,,,,,,,
,,,,,WIN24_059,21,F,2024-02-13_14h02.31.522,jersey_experiment_5,2023.2.2,Win32,85.47008547,,,,,,,,,,,,,,,,76.5773,77.8713,77.8714,78.8007,return,0.2133,,87.5,0,12,12,53,1,FBP-PT-18.png,0.43,1.2,54,0.5,,,,,,,,,,,,,,,,,,,,,,,,,,,,,,,,,,,,,,,,,,,,,
,,,,,WIN24_059,21,F,2024-02-13_14h02.31.522,jersey_experiment_5,2023.2.2,Win32,85.47008547,,,,,,,,,,,,,,,,78.8008,80.0948,80.0948,82.0479,return,0.1773,,76.04166667,0,13,13,58,1,FBP-PT-19.png,0.43,1.2,59,0.5,,,,,,,,,,,,,,,,,,,,,,,,,,,,,,,,,,,,,,,,,,,,,
,,,,,WIN24_059,21,F,2024-02-13_14h02.31.522,jersey_experiment_5,2023.2.2,Win32,85.47008547,,,,,,,,,,,,,,,,82.0481,83.3419,83.342,84.7656,return,0.5576,,75.91145833,0,14,14,4,1,FBP-OG-71.png,0.45,1.2,5,0.5,,,,,,,,,,,,,,,,,,,,,,,,,,,,,,,,,,,,,,,,,,,,,
,,,,,WIN24_059,21,F,2024-02-13_14h02.31.522,jersey_experiment_5,2023.2.2,Win32,85.47008547,,,,,,,,,,,,,,,,84.7659,86.0597,86.0598,87.9658,return,0.6986,,75.91145833,0,15,15,52,1,FBP-PT-18.png,0.4,1.2,53,0.5,,,,,,,,,,,,,,,,,,,,,,,,,,,,,,,,,,,,,,,,,,,,,
,,,,,WIN24_059,21,F,2024-02-13_14h02.31.522,jersey_experiment_5,2023.2.2,Win32,85.47008547,,,,,,,,,,,,,,,,87.966,89.7657,89.7658,91.3541,return,0.3024,,75.52083333,0,16,16,34,1,FBP-YG-71.png,0.45,1.2,35,1,,,,,,,,,,,,,,,,,,,,,,,,,,,,,,,,,,,,,,,,,,,,,
,,,,,WIN24_059,21,F,2024-02-13_14h02.31.522,jersey_experiment_5,2023.2.2,Win32,85.47008547,,,,,,,,,,,,,,,,91.3543,93.1542,93.1543,94.5895,return,0.3577,,24.86979167,0,17,17,25,1,FBP-RB-19.png,0.35,1.2,26,1,,,,,,,,,,,,,,,,,,,,,,,,,,,,,,,,,,,,,,,,,,,,,
,,,,,WIN24_059,21,F,2024-02-13_14h02.31.522,jersey_experiment_5,2023.2.2,Win32,85.47008547,,,,,,,,,,,,,,,,94.5898,96.3896,96.3896,97.4366,return,0.2745,,24.86979167,0,18,18,26,1,FBP-RB-19.png,0.37,1.2,27,1,,,,,,,,,,,,,,,,,,,,,,,,,,,,,,,,,,,,,,,,,,,,,
,,,,,WIN24_059,21,F,2024-02-13_14h02.31.522,jersey_experiment_5,2023.2.2,Win32,85.47008547,,,,,,,,,,,,,,,,97.4369,98.7308,98.7308,99.6132,return,0.1919,,24.86979167,0,19,19,10,1,FBP-OG-91.png,0.35,1.2,11,0.5,,,,,,,,,,,,,,,,,,,,,,,,,,,,,,,,,,,,,,,,,,,,,
,,,,,WIN24_059,21,F,2024-02-13_14h02.31.522,jersey_experiment_5,2023.2.2,Win32,85.47008547,,,,,,,,,,,,,,,,99.6135,101.4132,101.4132,102.4839,return,0.1877,,50.91145833,0,20,20,32,1,FBP-YG-71.png,0.4,1.2,33,1,,,,,,,,,,,,,,,,,,,,,,,,,,,,,,,,,,,,,,,,,,,,,
,,,,,WIN24_059,21,F,2024-02-13_14h02.31.522,jersey_experiment_5,2023.2.2,Win32,85.47008547,,,,,,,,,,,,,,,,102.4841,103.778,103.778,105.4369,return,0.1224,,24.86979167,0,21,21,5,1,FBP-OG-81.png,0.35,1.2,6,0.5,,,,,,,,,,,,,,,,,,,,,,,,,,,,,,,,,,,,,,,,,,,,,
,,,,,WIN24_059,21,F,2024-02-13_14h02.31.522,jersey_experiment_5,2023.2.2,Win32,85.47008547,,,,,,,,,,,,,,,,105.4371,107.2372,107.2372,108.5429,return,0.2959,,75,0,22,22,19,1,FBP-RB-17.png,0.45,1.2,20,1,,,,,,,,,,,,,,,,,,,,,,,,,,,,,,,,,,,,,,,,,,,,,
,,,,,WIN24_059,21,F,2024-02-13_14h02.31.522,jersey_experiment_5,2023.2.2,Win32,85.47008547,,,,,,,,,,,,,,,,108.5432,109.8371,109.8371,111.4371,return,0.1698,,50.65104167,0,23,23,46,1,FBP-PT-17.png,0.37,1.2,47,0.5,,,,,,,,,,,,,,,,,,,,,,,,,,,,,,,,,,,,,,,,,,,,,
,,,,,WIN24_059,21,F,2024-02-13_14h02.31.522,jersey_experiment_5,2023.2.2,Win32,85.47008547,,,,,,,,,,,,,,,,111.4374,113.2372,113.2372,116.3078,return,0.1883,,61.19791667,0,24,24,28,1,FBP-RB-19.png,0.43,1.2,29,1,,,,,,,,,,,,,,,,,,,,,,,,,,,,,,,,,,,,,,,,,,,,,
,,,,,WIN24_059,21,F,2024-02-13_14h02.31.522,jersey_experiment_5,2023.2.2,Win32,85.47008547,,,,,,,,,,,,,,,,116.3081,118.1082,118.1082,119.3315,return,0.2031,,31.25,0,25,25,36,1,FBP-YG-81.png,0.37,1.2,37,1,,,,,,,,,,,,,,,,,,,,,,,,,,,,,,,,,,,,,,,,,,,,,
,,,,,WIN24_059,21,F,2024-02-13_14h02.31.522,jersey_experiment_5,2023.2.2,Win32,85.47008547,,,,,,,,,,,,,,,,119.3318,120.6258,120.6258,122.1905,return,0.2155,,49.609375,0,26,26,7,1,FBP-OG-81.png,0.4,1.2,8,0.5,,,,,,,,,,,,,,,,,,,,,,,,,,,,,,,,,,,,,,,,,,,,,
,,,,,WIN24_059,21,F,2024-02-13_14h02.31.522,jersey_experiment_5,2023.2.2,Win32,85.47008547,,,,,,,,,,,,,,,,122.1908,123.4846,123.4846,125.3554,return,0.2306,,35.80729167,0,27,27,11,1,FBP-OG-91.png,0.37,1.2,12,0.5,,,,,,,,,,,,,,,,,,,,,,,,,,,,,,,,,,,,,,,,,,,,,
,,,,,WIN24_059,21,F,2024-02-13_14h02.31.522,jersey_experiment_5,2023.2.2,Win32,85.47008547,,,,,,,,,,,,,,,,125.3556,127.1555,127.1555,129.6847,return,0.9076,,50.65104167,0,28,28,18,1,FBP-RB-17.png,0.43,1.2,19,1,,,,,,,,,,,,,,,,,,,,,,,,,,,,,,,,,,,,,,,,,,,,,
,,,,,WIN24_059,21,F,2024-02-13_14h02.31.522,jersey_experiment_5,2023.2.2,Win32,85.47008547,,,,,,,,,,,,,,,,129.6848,130.979,130.979,133.0027,return,0.335,,35.15625,0,29,29,0,1,FBP-OG-71.png,0.35,1.2,1,0.5,,,,,,,,,,,,,,,,,,,,,,,,,,,,,,,,,,,,,,,,,,,,,
,,,,,WIN24_059,21,F,2024-02-13_14h02.31.522,jersey_experiment_5,2023.2.2,Win32,85.47008547,,,,,,,,,,,,,,,,133.0029,134.8027,134.8027,135.5557,return,0.1511,,50.13020833,0,30,30,43,1,FBP-YG-91.png,0.43,1.2,44,1,,,,,,,,,,,,,,,,,,,,,,,,,,,,,,,,,,,,,,,,,,,,,
,,,,,WIN24_059,21,F,2024-02-13_14h02.31.522,jersey_experiment_5,2023.2.2,Win32,85.47008547,,,,,,,,,,,,,,,,135.5559,137.3556,137.3556,138.1323,return,0.2119,,50.390625,0,31,31,38,1,FBP-YG-81.png,0.43,1.2,39,1,,,,,,,,,,,,,,,,,,,,,,,,,,,,,,,,,,,,,,,,,,,,,
,,,,,WIN24_059,21,F,2024-02-13_14h02.31.522,jersey_experiment_5,2023.2.2,Win32,85.47008547,,,,,,,,,,,,,,,,138.1324,139.4264,139.4264,140.9088,return,0.4277,,72.65625,0,32,32,59,1,FBP-PT-19.png,0.45,1.2,60,0.5,,,,,,,,,,,,,,,,,,,,,,,,,,,,,,,,,,,,,,,,,,,,,
,,,,,WIN24_059,21,F,2024-02-13_14h02.31.522,jersey_experiment_5,2023.2.2,Win32,85.47008547,,,,,,,,,,,,,,,,140.9091,142.7088,142.7088,144.2502,return,0.2079,,61.19791667,0,33,33,42,1,FBP-YG-91.png,0.4,1.2,43,1,,,,,,,,,,,,,,,,,,,,,,,,,,,,,,,,,,,,,,,,,,,,,
,,,,,WIN24_059,21,F,2024-02-13_14h02.31.522,jersey_experiment_5,2023.2.2,Win32,85.47008547,,,,,,,,,,,,,,,,144.2503,145.5443,145.5444,146.7325,return,0.1001,,78.90625,0,34,34,9,1,FBP-OG-81.png,0.45,1.2,10,0.5,,,,,,,,,,,,,,,,,,,,,,,,,,,,,,,,,,,,,,,,,,,,,
,,,,,WIN24_059,21,F,2024-02-13_14h02.31.522,jersey_experiment_5,2023.2.2,Win32,85.47008547,,,,,,,,,,,,,,,,146.7326,148.0267,148.0267,149.9797,return,0.195,,74.609375,0,35,35,47,1,FBP-PT-17.png,0.4,1.2,48,0.5,,,,,,,,,,,,,,,,,,,,,,,,,,,,,,,,,,,,,,,,,,,,,
,,,,,WIN24_059,21,F,2024-02-13_14h02.31.522,jersey_experiment_5,2023.2.2,Win32,85.47008547,,,,,,,,,,,,,,,,149.9799,151.2738,151.2739,152.9328,return,0.1885,,74.34895833,0,36,36,2,1,FBP-OG-71.png,0.4,1.2,3,0.5,,,,,,,,,,,,,,,,,,,,,,,,,,,,,,,,,,,,,,,,,,,,,
,,,,,WIN24_059,21,F,2024-02-13_14h02.31.522,jersey_experiment_5,2023.2.2,Win32,85.47008547,,,,,,,,,,,,,,,,152.933,154.7329,154.7329,155.9799,return,0.1477,,50.26041667,0,37,37,27,1,FBP-RB-19.png,0.4,1.2,28,1,,,,,,,,,,,,,,,,,,,,,,,,,,,,,,,,,,,,,,,,,,,,,
,,,,,WIN24_059,21,F,2024-02-13_14h02.31.522,jersey_experiment_5,2023.2.2,Win32,85.47008547,,,,,,,,,,,,,,,,155.9802,157.78,157.7801,158.8977,return,0.1183,,73.56770833,0,38,38,29,1,FBP-RB-19.png,0.45,1.2,30,1,,,,,,,,,,,,,,,,,,,,,,,,,,,,,,,,,,,,,,,,,,,,,
,,,,,WIN24_059,21,F,2024-02-13_14h02.31.522,jersey_experiment_5,2023.2.2,Win32,85.47008547,,,,,,,,,,,,,,,,158.8979,160.1918,160.1919,161.392,return,0.1302,,24.73958333,0,39,39,50,1,FBP-PT-18.png,0.35,1.2,51,0.5,,,,,,,,,,,,,,,,,,,,,,,,,,,,,,,,,,,,,,,,,,,,,
,,,,,WIN24_059,21,F,2024-02-13_14h02.31.522,jersey_experiment_5,2023.2.2,Win32,85.47008547,,,,,,,,,,,,,,,,161.3922,162.6859,162.6859,163.8979,return,0.1381,,50.13020833,0,40,40,13,1,FBP-OG-91.png,0.43,1.2,14,0.5,,,,,,,,,,,,,,,,,,,,,,,,,,,,,,,,,,,,,,,,,,,,,
,,,,,WIN24_059,21,F,2024-02-13_14h02.31.522,jersey_experiment_5,2023.2.2,Win32,85.47008547,,,,,,,,,,,,,,,,163.8981,165.6979,165.6979,166.2039,return,0.1698,,50.13020833,0,41,41,37,1,FBP-YG-81.png,0.4,1.2,38,1,,,,,,,,,,,,,,,,,,,,,,,,,,,,,,,,,,,,,,,,,,,,,
,,,,,WIN24_059,21,F,2024-02-13_14h02.31.522,jersey_experiment_5,2023.2.2,Win32,85.47008547,,,,,,,,,,,,,,,,166.2042,167.498,167.498,168.6039,return,0.1592,,25.13020833,0,42,42,45,1,FBP-PT-17.png,0.35,1.2,46,0.5,,,,,,,,,,,,,,,,,,,,,,,,,,,,,,,,,,,,,,,,,,,,,
,,,,,WIN24_059,21,F,2024-02-13_14h02.31.522,jersey_experiment_5,2023.2.2,Win32,85.47008547,,,,,,,,,,,,,,,,168.6042,169.8981,169.8981,171.1334,return,0.1694,,25.13020833,0,43,43,57,1,FBP-PT-19.png,0.4,1.2,58,0.5,,,,,,,,,,,,,,,,,,,,,,,,,,,,,,,,,,,,,,,,,,,,,
,,,,,WIN24_059,21,F,2024-02-13_14h02.31.522,jersey_experiment_5,2023.2.2,Win32,85.47008547,,,,,,,,,,,,,,,,171.1337,172.4275,172.4276,173.7453,return,0.1764,,73.95833333,0,44,44,54,1,FBP-PT-18.png,0.45,1.2,55,0.5,,,,,,,,,,,,,,,,,,,,,,,,,,,,,,,,,,,,,,,,,,,,,
,,,,,WIN24_059,21,F,2024-02-13_14h02.31.522,jersey_experiment_5,2023.2.2,Win32,85.47008547,,,,,,,,,,,,,,,,173.7456,175.5453,175.5453,177.0395,return,0.1307,,89.0625,0,45,45,24,1,FBP-RB-18.png,0.45,1.2,25,1,,,,,,,,,,,,,,,,,,,,,,,,,,,,,,,,,,,,,,,,,,,,,
,,,,,WIN24_059,21,F,2024-02-13_14h02.31.522,jersey_experiment_5,2023.2.2,Win32,85.47008547,,,,,,,,,,,,,,,,177.0398,178.3337,178.3337,180.0632,return,0.1091,,34.50520833,0,46,46,6,1,FBP-OG-81.png,0.37,1.2,7,0.5,,,,,,,,,,,,,,,,,,,,,,,,,,,,,,,,,,,,,,,,,,,,,
,,,,,WIN24_059,21,F,2024-02-13_14h02.31.522,jersey_experiment_5,2023.2.2,Win32,85.47008547,,,,,,,,,,,,,,,,180.0635,181.8632,181.8632,182.7692,return,0.2248,,48.95833333,0,47,47,33,1,FBP-YG-71.png,0.43,1.2,34,1,,,,,,,,,,,,,,,,,,,,,,,,,,,,,,,,,,,,,,,,,,,,,
,,,,,WIN24_059,21,F,2024-02-13_14h02.31.522,jersey_experiment_5,2023.2.2,Win32,85.47008547,,,,,,,,,,,,,,,,182.7693,184.0633,184.0634,185.0987,return,0.1372,,67.31770833,0,48,48,8,1,FBP-OG-81.png,0.43,1.2,9,0.5,,,,,,,,,,,,,,,,,,,,,,,,,,,,,,,,,,,,,,,,,,,,,
,,,,,WIN24_059,21,F,2024-02-13_14h02.31.522,jersey_experiment_5,2023.2.2,Win32,85.47008547,,,,,,,,,,,,,,,,185.0989,186.8987,186.8987,187.8988,return,0.1001,,67.31770833,0,49,49,22,1,FBP-RB-18.png,0.4,1.2,23,1,,,,,,,,,,,,,,,,,,,,,,,,,,,,,,,,,,,,,,,,,,,,,
,,,,,WIN24_059,21,F,2024-02-13_14h02.31.522,jersey_experiment_5,2023.2.2,Win32,85.47008547,,,,,,,,,,,,,,,,187.8991,189.1929,189.1929,190.7459,return,0.1717,,49.47916667,0,50,50,48,1,FBP-PT-17.png,0.43,1.2,49,0.5,,,,,,,,,,,,,,,,,,,,,,,,,,,,,,,,,,,,,,,,,,,,,
,,,,,WIN24_059,21,F,2024-02-13_14h02.31.522,jersey_experiment_5,2023.2.2,Win32,85.47008547,,,,,,,,,,,,,,,,190.7461,192.546,192.546,193.4401,return,0.1521,,24.86979167,0,51,51,40,1,FBP-YG-91.png,0.35,1.2,41,1,,,,,,,,,,,,,,,,,,,,,,,,,,,,,,,,,,,,,,,,,,,,,
,,,,,WIN24_059,21,F,2024-02-13_14h02.31.522,jersey_experiment_5,2023.2.2,Win32,85.47008547,,,,,,,,,,,,,,,,193.4403,195.2402,195.2403,196.5226,return,0.6056,,24.86979167,0,52,52,35,1,FBP-YG-81.png,0.35,1.2,36,1,,,,,,,,,,,,,,,,,,,,,,,,,,,,,,,,,,,,,,,,,,,,,
,,,,,WIN24_059,21,F,2024-02-13_14h02.31.522,jersey_experiment_5,2023.2.2,Win32,85.47008547,,,,,,,,,,,,,,,,196.5228,197.8167,197.8167,198.3934,return,0.1384,,24.86979167,0,53,53,55,1,FBP-PT-19.png,0.35,1.2,56,0.5,,,,,,,,,,,,,,,,,,,,,,,,,,,,,,,,,,,,,,,,,,,,,
,,,,,WIN24_059,21,F,2024-02-13_14h02.31.522,jersey_experiment_5,2023.2.2,Win32,85.47008547,,,,,,,,,,,,,,,,198.3935,200.1932,200.1932,200.7462,return,0.1373,,24.86979167,0,54,54,16,1,FBP-RB-17.png,0.37,1.2,17,1,,,,,,,,,,,,,,,,,,,,,,,,,,,,,,,,,,,,,,,,,,,,,
,,,,,WIN24_059,21,F,2024-02-13_14h02.31.522,jersey_experiment_5,2023.2.2,Win32,85.47008547,,,,,,,,,,,,,,,,200.7463,202.5463,202.5463,203.0875,return,0.0026,,24.86979167,0,55,55,21,1,FBP-RB-18.png,0.37,1.2,22,1,,,,,,,,,,,,,,,,,,,,,,,,,,,,,,,,,,,,,,,,,,,,,
,,,,,WIN24_059,21,F,2024-02-13_14h02.31.522,jersey_experiment_5,2023.2.2,Win32,85.47008547,,,,,,,,,,,,,,,,203.0877,204.8878,204.8878,205.57,return,0.0232,,50.390625,0,56,56,39,1,FBP-YG-81.png,0.45,1.2,40,1,,,,,,,,,,,,,,,,,,,,,,,,,,,,,,,,,,,,,,,,,,,,,
,,,,,WIN24_059,21,F,2024-02-13_14h02.31.522,jersey_experiment_5,2023.2.2,Win32,85.47008547,,,,,,,,,,,,,,,,205.5702,206.8641,206.8641,207.6993,return,0.1415,,50.13020833,0,57,57,3,1,FBP-OG-71.png,0.43,1.2,4,0.5,,,,,,,,,,,,,,,,,,,,,,,,,,,,,,,,,,,,,,,,,,,,,
,,,,,WIN24_059,21,F,2024-02-13_14h02.31.522,jersey_experiment_5,2023.2.2,Win32,85.47008547,,,,,,,,,,,,,,,,207.6996,208.9936,208.9936,210.1113,return,0.0488,,25.26041667,0,58,58,56,1,FBP-PT-19.png,0.37,1.2,57,0.5,,,,,,,,,,,,,,,,,,,,,,,,,,,,,,,,,,,,,,,,,,,,,
,,,,,WIN24_059,21,F,2024-02-13_14h02.31.522,jersey_experiment_5,2023.2.2,Win32,85.47008547,,,,,,,,,,,,,,,,210.1116,211.9113,211.9113,212.523,return,0.1573,,25.26041667,0,59,59,17,1,FBP-RB-17.png,0.4,1.2,18,1,,,,,,,,,,,,,,,,,,,,,,,,,,,,,,,,,,,,,,,,,,,,,
,,,,,WIN24_059,21,F,2024-02-13_14h02.31.522,jersey_experiment_5,2023.2.2,Win32,85.47008547,,,,,,,,,,,,,,,,212.5252,214.3233,214.3233,215.5232,return,0.0624,,74.86979167,,,,,,FBP-YG-19.png,0.4,1.2,43,1,0,0,0,42,1,,,,,,,,,,,,,,,,,,,,,,,,,,,,,,,,,,,,,,,,
,,,,,WIN24_059,21,F,2024-02-13_14h02.31.522,jersey_experiment_5,2023.2.2,Win32,85.47008547,,,,,,,,,,,,,,,,215.5236,216.8175,216.8176,218.1704,return,0.135,,25.13020833,,,,,,FBP-OG-17.png,0.35,1.2,1,0.5,0,1,1,0,1,,,,,,,,,,,,,,,,,,,,,,,,,,,,,,,,,,,,,,,,
,,,,,WIN24_059,21,F,2024-02-13_14h02.31.522,jersey_experiment_5,2023.2.2,Win32,85.47008547,,,,,,,,,,,,,,,,218.1705,219.9706,219.9706,221.1352,return,0.0263,,75.26041667,,,,,,FBP-RB-81.png,0.45,1.2,25,1,0,2,2,24,1,,,,,,,,,,,,,,,,,,,,,,,,,,,,,,,,,,,,,,,,
,,,,,WIN24_059,21,F,2024-02-13_14h02.31.522,jersey_experiment_5,2023.2.2,Win32,85.47008547,,,,,,,,,,,,,,,,221.1355,222.4294,222.4294,223.7471,return,0.1647,,24.609375,,,,,,FBP-PT-81.png,0.35,1.2,51,0.5,0,3,3,50,1,,,,,,,,,,,,,,,,,,,,,,,,,,,,,,,,,,,,,,,,
,,,,,WIN24_059,21,F,2024-02-13_14h02.31.522,jersey_experiment_5,2023.2.2,Win32,85.47008547,,,,,,,,,,,,,,,,223.7473,225.0412,225.0412,226.4177,return,0.2024,,92.70833333,,,,,,FBP-PT-91.png,0.45,1.2,60,0.5,0,4,4,59,1,,,,,,,,,,,,,,,,,,,,,,,,,,,,,,,,,,,,,,,,
,,,,,WIN24_059,21,F,2024-02-13_14h02.31.522,jersey_experiment_5,2023.2.2,Win32,85.47008547,,,,,,,,,,,,,,,,226.4179,227.7121,227.7121,229.0767,return,0.1178,,23.828125,,,,,,FBP-OG-19.png,0.35,1.2,11,0.5,0,5,5,10,1,,,,,,,,,,,,,,,,,,,,,,,,,,,,,,,,,,,,,,,,
,,,,,WIN24_059,21,F,2024-02-13_14h02.31.522,jersey_experiment_5,2023.2.2,Win32,85.47008547,,,,,,,,,,,,,,,,229.077,230.8769,230.877,231.6298,return,0.0988,,7.942708333,,,,,,FBP-RB-81.png,0.35,1.2,21,1,0,6,6,20,1,,,,,,,,,,,,,,,,,,,,,,,,,,,,,,,,,,,,,,,,
,,,,,WIN24_059,21,F,2024-02-13_14h02.31.522,jersey_experiment_5,2023.2.2,Win32,85.47008547,,,,,,,,,,,,,,,,231.6301,233.4299,233.43,234.5239,return,0.4161,,2.083333333,,,,,,FBP-RB-91.png,0.35,1.2,26,1,0,7,7,25,1,,,,,,,,,,,,,,,,,,,,,,,,,,,,,,,,,,,,,,,,
,,,,,WIN24_059,21,F,2024-02-13_14h02.31.522,jersey_experiment_5,2023.2.2,Win32,85.47008547,,,,,,,,,,,,,,,,234.5242,235.8181,235.8181,237.1006,return,0.0743,,50.52083333,,,,,,FBP-OG-17.png,0.4,1.2,3,0.5,0,8,8,2,1,,,,,,,,,,,,,,,,,,,,,,,,,,,,,,,,,,,,,,,,
,,,,,WIN24_059,21,F,2024-02-13_14h02.31.522,jersey_experiment_5,2023.2.2,Win32,85.47008547,,,,,,,,,,,,,,,,237.1009,238.3948,238.3948,239.3241,return,0.1003,,24.34895833,,,,,,FBP-PT-91.png,0.37,1.2,57,0.5,0,9,9,56,1,,,,,,,,,,,,,,,,,,,,,,,,,,,,,,,,,,,,,,,,
,,,,,WIN24_059,21,F,2024-02-13_14h02.31.522,jersey_experiment_5,2023.2.2,Win32,85.47008547,,,,,,,,,,,,,,,,239.3244,241.1243,241.1243,242.1596,return,0.0148,,63.54166667,,,,,,FBP-RB-71.png,0.45,1.2,20,1,0,10,10,19,1,,,,,,,,,,,,,,,,,,,,,,,,,,,,,,,,,,,,,,,,
,,,,,WIN24_059,21,F,2024-02-13_14h02.31.522,jersey_experiment_5,2023.2.2,Win32,85.47008547,,,,,,,,,,,,,,,,242.1598,243.4538,243.4538,244.6891,return,0.1048,,26.171875,,,,,,FBP-PT-81.png,0.4,1.2,53,0.5,0,11,11,52,1,,,,,,,,,,,,,,,,,,,,,,,,,,,,,,,,,,,,,,,,
,,,,,WIN24_059,21,F,2024-02-13_14h02.31.522,jersey_experiment_5,2023.2.2,Win32,85.47008547,,,,,,,,,,,,,,,,244.6894,246.4893,246.4893,247.3127,return,0.2251,,51.5625,,,,,,FBP-RB-91.png,0.43,1.2,29,1,0,12,12,28,1,,,,,,,,,,,,,,,,,,,,,,,,,,,,,,,,,,,,,,,,
,,,,,WIN24_059,21,F,2024-02-13_14h02.31.522,jersey_experiment_5,2023.2.2,Win32,85.47008547,,,,,,,,,,,,,,,,247.313,248.6068,248.6069,249.7716,return,0.148,,76.04166667,,,,,,FBP-PT-71.png,0.45,1.2,50,0.5,0,13,13,49,1,,,,,,,,,,,,,,,,,,,,,,,,,,,,,,,,,,,,,,,,
,,,,,WIN24_059,21,F,2024-02-13_14h02.31.522,jersey_experiment_5,2023.2.2,Win32,85.47008547,,,,,,,,,,,,,,,,249.7718,251.0657,251.0658,252.4895,return,0.0311,,84.24479167,,,,,,FBP-PT-81.png,0.45,1.2,55,0.5,0,14,14,54,1,,,,,,,,,,,,,,,,,,,,,,,,,,,,,,,,,,,,,,,,
,,,,,WIN24_059,21,F,2024-02-13_14h02.31.522,jersey_experiment_5,2023.2.2,Win32,85.47008547,,,,,,,,,,,,,,,,252.4897,253.7835,253.7835,254.5247,return,0.1563,,84.24479167,,,,,,FBP-PT-91.png,0.43,1.2,59,0.5,0,15,15,58,1,,,,,,,,,,,,,,,,,,,,,,,,,,,,,,,,,,,,,,,,
,,,,,WIN24_059,21,F,2024-02-13_14h02.31.522,jersey_experiment_5,2023.2.2,Win32,85.47008547,,,,,,,,,,,,,,,,254.5249,256.3249,256.3249,257.2189,return,0.1647,,83.85416667,,,,,,FBP-YG-19.png,0.43,1.2,44,1,0,16,16,43,1,,,,,,,,,,,,,,,,,,,,,,,,,,,,,,,,,,,,,,,,
,,,,,WIN24_059,21,F,2024-02-13_14h02.31.522,jersey_experiment_5,2023.2.2,Win32,85.47008547,,,,,,,,,,,,,,,,257.2192,259.0191,259.0191,259.9014,return,0.1676,,25.52083333,,,,,,FBP-YG-19.png,0.37,1.2,42,1,0,17,17,41,1,,,,,,,,,,,,,,,,,,,,,,,,,,,,,,,,,,,,,,,,
,,,,,WIN24_059,21,F,2024-02-13_14h02.31.522,jersey_experiment_5,2023.2.2,Win32,85.47008547,,,,,,,,,,,,,,,,259.9016,261.7015,261.7015,262.2543,return,0.1194,,24.73958333,,,,,,FBP-RB-71.png,0.37,1.2,17,1,0,18,18,16,1,,,,,,,,,,,,,,,,,,,,,,,,,,,,,,,,,,,,,,,,
,,,,,WIN24_059,21,F,2024-02-13_14h02.31.522,jersey_experiment_5,2023.2.2,Win32,85.47008547,,,,,,,,,,,,,,,,262.2546,264.0544,264.0544,264.6662,return,0.1362,,50.390625,,,,,,FBP-YG-17.png,0.45,1.2,35,1,0,19,19,34,1,,,,,,,,,,,,,,,,,,,,,,,,,,,,,,,,,,,,,,,,
,,,,,WIN24_059,21,F,2024-02-13_14h02.31.522,jersey_experiment_5,2023.2.2,Win32,85.47008547,,,,,,,,,,,,,,,,264.6665,266.4665,266.4665,267.1958,return,0.1934,,23.30729167,,,,,,FBP-YG-17.png,0.37,1.2,32,1,0,20,20,31,1,,,,,,,,,,,,,,,,,,,,,,,,,,,,,,,,,,,,,,,,
,,,,,WIN24_059,21,F,2024-02-13_14h02.31.522,jersey_experiment_5,2023.2.2,Win32,85.47008547,,,,,,,,,,,,,,,,267.1961,268.4899,268.49,269.2194,return,0.0367,,24.34895833,,,,,,FBP-PT-71.png,0.37,1.2,47,0.5,0,21,21,46,1,,,,,,,,,,,,,,,,,,,,,,,,,,,,,,,,,,,,,,,,
,,,,,WIN24_059,21,F,2024-02-13_14h02.31.522,jersey_experiment_5,2023.2.2,Win32,85.47008547,,,,,,,,,,,,,,,,269.2197,271.0195,271.0195,271.6781,return,0.0507,,54.03645833,,,,,,FBP-YG-19.png,0.45,1.2,45,1,0,22,22,44,1,,,,,,,,,,,,,,,,,,,,,,,,,,,,,,,,,,,,,,,,
,,,,,WIN24_059,21,F,2024-02-13_14h02.31.522,jersey_experiment_5,2023.2.2,Win32,85.47008547,,,,,,,,,,,,,,,,271.6783,272.9724,272.9724,273.6313,return,0.0266,,54.03645833,,,,,,FBP-OG-18.png,0.43,1.2,9,0.5,0,23,23,8,1,,,,,,,,,,,,,,,,,,,,,,,,,,,,,,,,,,,,,,,,
,,,,,WIN24_059,21,F,2024-02-13_14h02.31.522,jersey_experiment_5,2023.2.2,Win32,85.47008547,,,,,,,,,,,,,,,,273.6315,274.9254,274.9254,275.7254,return,0.0848,,53.90625,,,,,,FBP-OG-19.png,0.4,1.2,13,0.5,0,24,24,12,1,,,,,,,,,,,,,,,,,,,,,,,,,,,,,,,,,,,,,,,,
,,,,,WIN24_059,21,F,2024-02-13_14h02.31.522,jersey_experiment_5,2023.2.2,Win32,85.47008547,,,,,,,,,,,,,,,,275.7256,277.5257,277.5257,278.3021,return,0.0965,,82.55208333,,,,,,FBP-RB-81.png,0.43,1.2,24,1,0,25,25,23,1,,,,,,,,,,,,,,,,,,,,,,,,,,,,,,,,,,,,,,,,
,,,,,WIN24_059,21,F,2024-02-13_14h02.31.522,jersey_experiment_5,2023.2.2,Win32,85.47008547,,,,,,,,,,,,,,,,278.3023,279.5962,279.5963,280.5256,return,0.1461,,90.49479167,,,,,,FBP-OG-17.png,0.45,1.2,5,0.5,0,26,26,4,1,,,,,,,,,,,,,,,,,,,,,,,,,,,,,,,,,,,,,,,,
,,,,,WIN24_059,21,F,2024-02-13_14h02.31.522,jersey_experiment_5,2023.2.2,Win32,85.47008547,,,,,,,,,,,,,,,,280.5259,281.8197,281.8198,282.4905,return,0.1469,,90.49479167,,,,,,FBP-OG-17.png,0.43,1.2,4,0.5,0,27,27,3,1,,,,,,,,,,,,,,,,,,,,,,,,,,,,,,,,,,,,,,,,
,,,,,WIN24_059,21,F,2024-02-13_14h02.31.522,jersey_experiment_5,2023.2.2,Win32,85.47008547,,,,,,,,,,,,,,,,282.4907,283.7848,283.7848,285.067,return,0.0412,,30.078125,,,,,,FBP-OG-18.png,0.37,1.2,7,0.5,0,28,28,6,1,,,,,,,,,,,,,,,,,,,,,,,,,,,,,,,,,,,,,,,,
,,,,,WIN24_059,21,F,2024-02-13_14h02.31.522,jersey_experiment_5,2023.2.2,Win32,85.47008547,,,,,,,,,,,,,,,,285.0673,286.3615,286.3615,287.2672,return,0.095,,1.302083333,,,,,,FBP-PT-91.png,0.35,1.2,56,0.5,0,29,29,55,1,,,,,,,,,,,,,,,,,,,,,,,,,,,,,,,,,,,,,,,,
,,,,,WIN24_059,21,F,2024-02-13_14h02.31.522,jersey_experiment_5,2023.2.2,Win32,85.47008547,,,,,,,,,,,,,,,,287.2674,288.5611,288.5611,289.8672,return,0.1481,,48.56770833,,,,,,FBP-OG-19.png,0.43,1.2,14,0.5,0,30,30,13,1,,,,,,,,,,,,,,,,,,,,,,,,,,,,,,,,,,,,,,,,
,,,,,WIN24_059,21,F,2024-02-13_14h02.31.522,jersey_experiment_5,2023.2.2,Win32,85.47008547,,,,,,,,,,,,,,,,289.8675,291.6672,291.6672,292.6201,return,0.1944,,50,,,,,,FBP-RB-71.png,0.43,1.2,19,1,0,31,31,18,1,,,,,,,,,,,,,,,,,,,,,,,,,,,,,,,,,,,,,,,,
,,,,,WIN24_059,21,F,2024-02-13_14h02.31.522,jersey_experiment_5,2023.2.2,Win32,85.47008547,,,,,,,,,,,,,,,,292.6202,294.4203,294.4203,295.2909,return,0.0189,,7.682291667,,,,,,FBP-YG-17.png,0.35,1.2,31,1,0,32,32,30,1,,,,,,,,,,,,,,,,,,,,,,,,,,,,,,,,,,,,,,,,
,,,,,WIN24_059,21,F,2024-02-13_14h02.31.522,jersey_experiment_5,2023.2.2,Win32,85.47008547,,,,,,,,,,,,,,,,295.2911,297.0909,297.0909,297.644,return,0.169,,7.682291667,,,,,,FBP-RB-71.png,0.35,1.2,16,1,0,33,33,15,1,,,,,,,,,,,,,,,,,,,,,,,,,,,,,,,,,,,,,,,,
,,,,,WIN24_059,21,F,2024-02-13_14h02.31.522,jersey_experiment_5,2023.2.2,Win32,85.47008547,,,,,,,,,,,,,,,,297.6442,299.4439,299.4439,300.3146,return,0.0643,,26.69270833,,,,,,FBP-RB-91.png,0.4,1.2,28,1,0,34,34,27,1,,,,,,,,,,,,,,,,,,,,,,,,,,,,,,,,,,,,,,,,
,,,,,WIN24_059,21,F,2024-02-13_14h02.31.522,jersey_experiment_5,2023.2.2,Win32,85.47008547,,,,,,,,,,,,,,,,300.3148,302.1149,302.1149,302.5735,return,0.0615,,24.609375,,,,,,FBP-RB-91.png,0.37,1.2,27,1,0,35,35,26,1,,,,,,,,,,,,,,,,,,,,,,,,,,,,,,,,,,,,,,,,
,,,,,WIN24_059,21,F,2024-02-13_14h02.31.522,jersey_experiment_5,2023.2.2,Win32,85.47008547,,,,,,,,,,,,,,,,302.5738,303.8677,303.8677,304.6089,return,0.2585,,24.609375,,,,,,FBP-OG-18.png,0.35,1.2,6,0.5,0,36,36,5,1,,,,,,,,,,,,,,,,,,,,,,,,,,,,,,,,,,,,,,,,
,,,,,WIN24_059,21,F,2024-02-13_14h02.31.522,jersey_experiment_5,2023.2.2,Win32,85.47008547,,,,,,,,,,,,,,,,304.6091,305.903,305.9031,306.4678,return,0.1179,,24.609375,,,,,,FBP-OG-19.png,0.37,1.2,12,0.5,0,37,37,11,1,,,,,,,,,,,,,,,,,,,,,,,,,,,,,,,,,,,,,,,,
,,,,,WIN24_059,21,F,2024-02-13_14h02.31.522,jersey_experiment_5,2023.2.2,Win32,85.47008547,,,,,,,,,,,,,,,,306.468,307.7619,307.7619,309.3622,return,0.8367,,26.69270833,,,,,,FBP-PT-71.png,0.4,1.2,48,0.5,0,38,38,47,1,,,,,,,,,,,,,,,,,,,,,,,,,,,,,,,,,,,,,,,,
,,,,,WIN24_059,21,F,2024-02-13_14h02.31.522,jersey_experiment_5,2023.2.2,Win32,85.47008547,,,,,,,,,,,,,,,,309.3623,311.1621,311.1622,311.8209,return,0.0524,,6.119791667,,,,,,FBP-YG-19.png,0.35,1.2,41,1,0,39,39,40,1,,,,,,,,,,,,,,,,,,,,,,,,,,,,,,,,,,,,,,,,
,,,,,WIN24_059,21,F,2024-02-13_14h02.31.522,jersey_experiment_5,2023.2.2,Win32,85.47008547,,,,,,,,,,,,,,,,311.8211,313.621,313.621,314.6563,return,0.3198,,6.119791667,,,,,,FBP-YG-18.png,0.35,1.2,36,1,0,40,40,35,1,,,,,,,,,,,,,,,,,,,,,,,,,,,,,,,,,,,,,,,,
,,,,,WIN24_059,21,F,2024-02-13_14h02.31.522,jersey_experiment_5,2023.2.2,Win32,85.47008547,,,,,,,,,,,,,,,,314.6566,316.4566,316.4566,317.0682,return,0.1238,,50,,,,,,FBP-YG-17.png,0.43,1.2,34,1,0,41,41,33,1,,,,,,,,,,,,,,,,,,,,,,,,,,,,,,,,,,,,,,,,
,,,,,WIN24_059,21,F,2024-02-13_14h02.31.522,jersey_experiment_5,2023.2.2,Win32,85.47008547,,,,,,,,,,,,,,,,317.0683,318.3622,318.3622,319.6919,return,0.1693,,66.53645833,,,,,,FBP-OG-18.png,0.45,1.2,10,0.5,0,42,42,9,1,,,,,,,,,,,,,,,,,,,,,,,,,,,,,,,,,,,,,,,,
,,,,,WIN24_059,21,F,2024-02-13_14h02.31.522,jersey_experiment_5,2023.2.2,Win32,85.47008547,,,,,,,,,,,,,,,,319.6921,321.4918,321.4918,322.7625,return,0.2291,,66.53645833,,,,,,FBP-RB-81.png,0.4,1.2,23,1,0,43,43,22,1,,,,,,,,,,,,,,,,,,,,,,,,,,,,,,,,,,,,,,,,
,,,,,WIN24_059,21,F,2024-02-13_14h02.31.522,jersey_experiment_5,2023.2.2,Win32,85.47008547,,,,,,,,,,,,,,,,322.7627,324.5626,324.5627,325.2095,return,0.0888,,81.51041667,,,,,,FBP-RB-91.png,0.45,1.2,30,1,0,44,44,29,1,,,,,,,,,,,,,,,,,,,,,,,,,,,,,,,,,,,,,,,,
,,,,,WIN24_059,21,F,2024-02-13_14h02.31.522,jersey_experiment_5,2023.2.2,Win32,85.47008547,,,,,,,,,,,,,,,,325.2096,326.5038,326.5039,327.5038,return,0.0142,,25.52083333,,,,,,FBP-PT-91.png,0.4,1.2,58,0.5,0,45,45,57,1,,,,,,,,,,,,,,,,,,,,,,,,,,,,,,,,,,,,,,,,
,,,,,WIN24_059,21,F,2024-02-13_14h02.31.522,jersey_experiment_5,2023.2.2,Win32,85.47008547,,,,,,,,,,,,,,,,327.5041,329.3039,329.3039,329.7628,return,0.0941,,25.52083333,,,,,,FBP-YG-18.png,0.4,1.2,38,1,0,46,46,37,1,,,,,,,,,,,,,,,,,,,,,,,,,,,,,,,,,,,,,,,,
,,,,,WIN24_059,21,F,2024-02-13_14h02.31.522,jersey_experiment_5,2023.2.2,Win32,85.47008547,,,,,,,,,,,,,,,,329.763,331.5628,331.5628,332.3863,return,0.0946,,3.90625,,,,,,FBP-RB-81.png,0.37,1.2,22,1,0,47,47,21,1,,,,,,,,,,,,,,,,,,,,,,,,,,,,,,,,,,,,,,,,
,,,,,WIN24_059,21,F,2024-02-13_14h02.31.522,jersey_experiment_5,2023.2.2,Win32,85.47008547,,,,,,,,,,,,,,,,332.3865,334.1865,334.1865,335.8571,return,0.0611,,59.765625,,,,,,FBP-YG-18.png,0.45,1.2,40,1,0,48,48,39,1,,,,,,,,,,,,,,,,,,,,,,,,,,,,,,,,,,,,,,,,
,,,,,WIN24_059,21,F,2024-02-13_14h02.31.522,jersey_experiment_5,2023.2.2,Win32,85.47008547,,,,,,,,,,,,,,,,335.8573,337.1513,337.1513,338.2218,return,0.0516,,91.796875,,,,,,FBP-OG-19.png,0.45,1.2,15,0.5,0,49,49,14,1,,,,,,,,,,,,,,,,,,,,,,,,,,,,,,,,,,,,,,,,
,,,,,WIN24_059,21,F,2024-02-13_14h02.31.522,jersey_experiment_5,2023.2.2,Win32,85.47008547,,,,,,,,,,,,,,,,338.2221,339.5162,339.5162,340.2572,return,0.0139,,83.59375,,,,,,FBP-PT-81.png,0.43,1.2,54,0.5,0,50,50,53,1,,,,,,,,,,,,,,,,,,,,,,,,,,,,,,,,,,,,,,,,
,,,,,WIN24_059,21,F,2024-02-13_14h02.31.522,jersey_experiment_5,2023.2.2,Win32,85.47008547,,,,,,,,,,,,,,,,340.2575,341.5514,341.5514,343.5633,return,0.4404,,71.35416667,,,,,,FBP-OG-18.png,0.4,1.2,8,0.5,0,51,51,7,1,,,,,,,,,,,,,,,,,,,,,,,,,,,,,,,,,,,,,,,,
,,,,,WIN24_059,21,F,2024-02-13_14h02.31.522,jersey_experiment_5,2023.2.2,Win32,85.47008547,,,,,,,,,,,,,,,,343.5635,345.3633,345.3633,346.5632,return,0.0004,,61.84895833,,,,,,FBP-YG-18.png,0.43,1.2,39,1,0,52,52,38,1,,,,,,,,,,,,,,,,,,,,,,,,,,,,,,,,,,,,,,,,
,,,,,WIN24_059,21,F,2024-02-13_14h02.31.522,jersey_experiment_5,2023.2.2,Win32,85.47008547,,,,,,,,,,,,,,,,346.5635,347.8576,347.8576,349.6458,return,0.0024,,75.52083333,,,,,,FBP-PT-71.png,0.43,1.2,49,0.5,0,53,53,48,1,,,,,,,,,,,,,,,,,,,,,,,,,,,,,,,,,,,,,,,,
,,,,,WIN24_059,21,F,2024-02-13_14h02.31.522,jersey_experiment_5,2023.2.2,Win32,85.47008547,,,,,,,,,,,,,,,,349.646,350.94,350.94,351.8694,return,0.0144,,25,,,,,,FBP-PT-81.png,0.37,1.2,52,0.5,0,54,54,51,1,,,,,,,,,,,,,,,,,,,,,,,,,,,,,,,,,,,,,,,,
,,,,,WIN24_059,21,F,2024-02-13_14h02.31.522,jersey_experiment_5,2023.2.2,Win32,85.47008547,,,,,,,,,,,,,,,,351.8696,353.6696,353.6696,354.2342,return,0.0435,,48.95833333,,,,,,FBP-RB-71.png,0.4,1.2,18,1,0,55,55,17,1,,,,,,,,,,,,,,,,,,,,,,,,,,,,,,,,,,,,,,,,
,,,,,WIN24_059,21,F,2024-02-13_14h02.31.522,jersey_experiment_5,2023.2.2,Win32,85.47008547,,,,,,,,,,,,,,,,354.2343,356.0342,356.0342,356.9871,return,0.2639,,48.95833333,,,,,,FBP-YG-17.png,0.4,1.2,33,1,0,56,56,32,1,,,,,,,,,,,,,,,,,,,,,,,,,,,,,,,,,,,,,,,,
,,,,,WIN24_059,21,F,2024-02-13_14h02.31.522,jersey_experiment_5,2023.2.2,Win32,85.47008547,,,,,,,,,,,,,,,,356.9873,358.2815,358.2815,359.2109,return,0.1485,,23.17708333,,,,,,FBP-PT-71.png,0.35,1.2,46,0.5,0,57,57,45,1,,,,,,,,,,,,,,,,,,,,,,,,,,,,,,,,,,,,,,,,
,,,,,WIN24_059,21,F,2024-02-13_14h02.31.522,jersey_experiment_5,2023.2.2,Win32,85.47008547,,,,,,,,,,,,,,,,359.2111,360.505,360.505,361.3169,return,0.1174,,19.27083333,,,,,,FBP-OG-17.png,0.37,1.2,2,0.5,0,58,58,1,1,,,,,,,,,,,,,,,,,,,,,,,,,,,,,,,,,,,,,,,,
,,,,,WIN24_059,21,F,2024-02-13_14h02.31.522,jersey_experiment_5,2023.2.2,Win32,85.47008547,,,,,,,,,,,,,,,,361.3171,363.1169,363.1169,363.6815,return,0.1518,,19.53125,,,,,,FBP-YG-18.png,0.37,1.2,37,1,0,59,59,36,1,,,,,,,,,,,,,,,,,,,,,,,,,,,,,,,,,,,,,,,,
,,,,,WIN24_059,21,F,2024-02-13_14h02.31.522,jersey_experiment_5,2023.2.2,Win32,85.47008547,,,,,,,,,,,,,,,,,,,,,,,,,,,,,,,,,,,,,,,363.6818,483.6862,,,,,,,,,,,,,,,,,,,,,,,,,,,,,,,,,,,,,,
,,,,,WIN24_059,21,F,2024-02-13_14h02.31.522,jersey_experiment_5,2023.2.2,Win32,85.47008547,,,,,,,,,,,,,,,,,,,,,,,,,,,,,,,,,,,,,,,,,483.6863,485.5803,return,1.8865,,,,,,,,,,,,,,,,,,,,,,,,,,,,,,,,,,
,,,,,WIN24_059,21,F,2024-02-13_14h02.31.522,jersey_experiment_5,2023.2.2,Win32,85.47008547,,,,,,,,,,,,,,,,485.5864,487.3803,487.3803,490.3568,return,1.5402,,25.26041667,,,,,,FBP-PT-18.png,0.37,1.2,52,1,,,,,,,,,,,,,0,0,0,51,1,,,,,,,,,,,,,,,,,,,,,,,,,,,,
,,,,,WIN24_059,21,F,2024-02-13_14h02.31.522,jersey_experiment_5,2023.2.2,Win32,85.47008547,,,,,,,,,,,,,,,,490.3573,491.651,491.651,492.851,return,0.2353,,75.390625,,,,,,FBP-YG-71.png,0.43,1.2,34,0.5,,,,,,,,,,,,,0,1,1,33,1,,,,,,,,,,,,,,,,,,,,,,,,,,,,
,,,,,WIN24_059,21,F,2024-02-13_14h02.31.522,jersey_experiment_5,2023.2.2,Win32,85.47008547,,,,,,,,,,,,,,,,492.8513,494.6513,494.6513,495.5218,return,0.1416,,24.34895833,,,,,,FBP-PT-19.png,0.37,1.2,57,1,,,,,,,,,,,,,0,2,2,56,1,,,,,,,,,,,,,,,,,,,,,,,,,,,,
,,,,,WIN24_059,21,F,2024-02-13_14h02.31.522,jersey_experiment_5,2023.2.2,Win32,85.47008547,,,,,,,,,,,,,,,,495.522,497.3217,497.3217,498.3336,return,0.1225,,57.16145833,,,,,,FBP-OG-91.png,0.45,1.2,15,1,,,,,,,,,,,,,0,3,3,14,1,,,,,,,,,,,,,,,,,,,,,,,,,,,,
,,,,,WIN24_059,21,F,2024-02-13_14h02.31.522,jersey_experiment_5,2023.2.2,Win32,85.47008547,,,,,,,,,,,,,,,,498.3338,500.1337,500.1338,500.6279,return,0.0943,,57.16145833,,,,,,FBP-OG-71.png,0.45,1.2,5,1,,,,,,,,,,,,,0,4,4,4,1,,,,,,,,,,,,,,,,,,,,,,,,,,,,
,,,,,WIN24_059,21,F,2024-02-13_14h02.31.522,jersey_experiment_5,2023.2.2,Win32,85.47008547,,,,,,,,,,,,,,,,500.6281,501.922,501.922,502.8985,return,0.0708,,82.16145833,,,,,,FBP-YG-71.png,0.45,1.2,35,0.5,,,,,,,,,,,,,0,5,5,34,1,,,,,,,,,,,,,,,,,,,,,,,,,,,,
,,,,,WIN24_059,21,F,2024-02-13_14h02.31.522,jersey_experiment_5,2023.2.2,Win32,85.47008547,,,,,,,,,,,,,,,,502.8987,504.6987,504.6987,505.8515,return,0.1229,,4.036458333,,,,,,FBP-PT-17.png,0.35,1.2,46,1,,,,,,,,,,,,,0,6,6,45,1,,,,,,,,,,,,,,,,,,,,,,,,,,,,
,,,,,WIN24_059,21,F,2024-02-13_14h02.31.522,jersey_experiment_5,2023.2.2,Win32,85.47008547,,,,,,,,,,,,,,,,505.8518,507.6517,507.6517,508.6988,return,0.1945,,58.07291667,,,,,,FBP-PT-19.png,0.45,1.2,60,1,,,,,,,,,,,,,0,7,7,59,1,,,,,,,,,,,,,,,,,,,,,,,,,,,,
,,,,,WIN24_059,21,F,2024-02-13_14h02.31.522,jersey_experiment_5,2023.2.2,Win32,85.47008547,,,,,,,,,,,,,,,,508.699,509.9929,509.9929,511.0753,return,0.0385,,22.13541667,,,,,,FBP-RB-18.png,0.37,1.2,22,0.5,,,,,,,,,,,,,0,8,8,21,1,,,,,,,,,,,,,,,,,,,,,,,,,,,,
,,,,,WIN24_059,21,F,2024-02-13_14h02.31.522,jersey_experiment_5,2023.2.2,Win32,85.47008547,,,,,,,,,,,,,,,,511.0757,512.8753,512.8753,513.8283,return,0.1178,,22.13541667,,,,,,FBP-OG-71.png,0.35,1.2,1,1,,,,,,,,,,,,,0,9,9,0,1,,,,,,,,,,,,,,,,,,,,,,,,,,,,
,,,,,WIN24_059,21,F,2024-02-13_14h02.31.522,jersey_experiment_5,2023.2.2,Win32,85.47008547,,,,,,,,,,,,,,,,513.8285,515.6283,515.6284,516.0519,return,0.0338,,22.13541667,,,,,,FBP-PT-17.png,0.37,1.2,47,1,,,,,,,,,,,,,0,10,10,46,1,,,,,,,,,,,,,,,,,,,,,,,,,,,,
,,,,,WIN24_059,21,F,2024-02-13_14h02.31.522,jersey_experiment_5,2023.2.2,Win32,85.47008547,,,,,,,,,,,,,,,,516.0522,517.8522,517.8522,518.4756,return,0.1481,,6.380208333,,,,,,FBP-OG-81.png,0.35,1.2,6,1,,,,,,,,,,,,,0,11,11,5,1,,,,,,,,,,,,,,,,,,,,,,,,,,,,
,,,,,WIN24_059,21,F,2024-02-13_14h02.31.522,jersey_experiment_5,2023.2.2,Win32,85.47008547,,,,,,,,,,,,,,,,518.4758,519.7696,519.7697,520.4639,return,0.0379,,6.380208333,,,,,,FBP-YG-81.png,0.37,1.2,37,0.5,,,,,,,,,,,,,0,12,12,36,1,,,,,,,,,,,,,,,,,,,,,,,,,,,,
,,,,,WIN24_059,21,F,2024-02-13_14h02.31.522,jersey_experiment_5,2023.2.2,Win32,85.47008547,,,,,,,,,,,,,,,,520.4642,522.264,522.264,523.1462,return,0.2882,,57.55208333,,,,,,FBP-OG-71.png,0.43,1.2,4,1,,,,,,,,,,,,,0,13,13,3,1,,,,,,,,,,,,,,,,,,,,,,,,,,,,
,,,,,WIN24_059,21,F,2024-02-13_14h02.31.522,jersey_experiment_5,2023.2.2,Win32,85.47008547,,,,,,,,,,,,,,,,523.1465,524.9464,524.9464,525.5228,return,0.0376,,82.68229167,,,,,,FBP-OG-91.png,0.43,1.2,14,1,,,,,,,,,,,,,0,14,14,13,1,,,,,,,,,,,,,,,,,,,,,,,,,,,,
,,,,,WIN24_059,21,F,2024-02-13_14h02.31.522,jersey_experiment_5,2023.2.2,Win32,85.47008547,,,,,,,,,,,,,,,,525.5232,527.323,527.323,528.4289,return,0.1703,,20.57291667,,,,,,FBP-PT-19.png,0.35,1.2,56,1,,,,,,,,,,,,,0,15,15,55,1,,,,,,,,,,,,,,,,,,,,,,,,,,,,
,,,,,WIN24_059,21,F,2024-02-13_14h02.31.522,jersey_experiment_5,2023.2.2,Win32,85.47008547,,,,,,,,,,,,,,,,528.4291,529.7228,529.7229,530.7466,return,0.1607,,48.30729167,,,,,,FBP-RB-17.png,0.4,1.2,18,0.5,,,,,,,,,,,,,0,16,16,17,1,,,,,,,,,,,,,,,,,,,,,,,,,,,,
,,,,,WIN24_059,21,F,2024-02-13_14h02.31.522,jersey_experiment_5,2023.2.2,Win32,85.47008547,,,,,,,,,,,,,,,,530.7469,532.5467,532.5467,533.7114,return,0.0955,,65.10416667,,,,,,FBP-PT-19.png,0.43,1.2,59,1,,,,,,,,,,,,,0,17,17,58,1,,,,,,,,,,,,,,,,,,,,,,,,,,,,
,,,,,WIN24_059,21,F,2024-02-13_14h02.31.522,jersey_experiment_5,2023.2.2,Win32,85.47008547,,,,,,,,,,,,,,,,533.7115,535.0057,535.0057,535.9937,return,0.1717,,24.34895833,,,,,,FBP-RB-19.png,0.37,1.2,27,0.5,,,,,,,,,,,,,0,18,18,26,1,,,,,,,,,,,,,,,,,,,,,,,,,,,,
,,,,,WIN24_059,21,F,2024-02-13_14h02.31.522,jersey_experiment_5,2023.2.2,Win32,85.47008547,,,,,,,,,,,,,,,,535.994,537.7941,537.7941,538.6528,return,0.1917,,52.47395833,,,,,,FBP-OG-81.png,0.4,1.2,8,1,,,,,,,,,,,,,0,19,19,7,1,,,,,,,,,,,,,,,,,,,,,,,,,,,,
,,,,,WIN24_059,21,F,2024-02-13_14h02.31.522,jersey_experiment_5,2023.2.2,Win32,85.47008547,,,,,,,,,,,,,,,,538.6531,539.9469,539.947,540.7705,return,0.0004,,73.828125,,,,,,FBP-RB-19.png,0.45,1.2,30,0.5,,,,,,,,,,,,,0,20,20,29,1,,,,,,,,,,,,,,,,,,,,,,,,,,,,
,,,,,WIN24_059,21,F,2024-02-13_14h02.31.522,jersey_experiment_5,2023.2.2,Win32,85.47008547,,,,,,,,,,,,,,,,540.7707,542.0647,542.0647,543.1235,return,0.061,,59.24479167,,,,,,FBP-RB-17.png,0.43,1.2,19,0.5,,,,,,,,,,,,,0,21,21,18,1,,,,,,,,,,,,,,,,,,,,,,,,,,,,
,,,,,WIN24_059,21,F,2024-02-13_14h02.31.522,jersey_experiment_5,2023.2.2,Win32,85.47008547,,,,,,,,,,,,,,,,543.1238,544.4177,544.4178,544.9471,return,0.0708,,58.72395833,,,,,,FBP-RB-19.png,0.43,1.2,29,0.5,,,,,,,,,,,,,0,22,22,28,1,,,,,,,,,,,,,,,,,,,,,,,,,,,,
,,,,,WIN24_059,21,F,2024-02-13_14h02.31.522,jersey_experiment_5,2023.2.2,Win32,85.47008547,,,,,,,,,,,,,,,,544.9474,546.2413,546.2413,547.0176,return,0.0653,,23.4375,,,,,,FBP-YG-81.png,0.35,1.2,36,0.5,,,,,,,,,,,,,0,23,23,35,1,,,,,,,,,,,,,,,,,,,,,,,,,,,,
,,,,,WIN24_059,21,F,2024-02-13_14h02.31.522,jersey_experiment_5,2023.2.2,Win32,85.47008547,,,,,,,,,,,,,,,,547.018,548.8179,548.8179,549.5825,return,0.1554,,23.4375,,,,,,FBP-PT-17.png,0.4,1.2,48,1,,,,,,,,,,,,,0,24,24,47,1,,,,,,,,,,,,,,,,,,,,,,,,,,,,
,,,,,WIN24_059,21,F,2024-02-13_14h02.31.522,jersey_experiment_5,2023.2.2,Win32,85.47008547,,,,,,,,,,,,,,,,549.5828,551.3826,551.3826,552.0181,return,0.0234,,37.109375,,,,,,FBP-OG-91.png,0.4,1.2,13,1,,,,,,,,,,,,,0,25,25,12,1,,,,,,,,,,,,,,,,,,,,,,,,,,,,
,,,,,WIN24_059,21,F,2024-02-13_14h02.31.522,jersey_experiment_5,2023.2.2,Win32,85.47008547,,,,,,,,,,,,,,,,552.0182,553.3121,553.3121,554.1592,return,0.109,,37.109375,,,,,,FBP-YG-91.png,0.43,1.2,44,0.5,,,,,,,,,,,,,0,26,26,43,1,,,,,,,,,,,,,,,,,,,,,,,,,,,,
,,,,,WIN24_059,21,F,2024-02-13_14h02.31.522,jersey_experiment_5,2023.2.2,Win32,85.47008547,,,,,,,,,,,,,,,,554.1595,555.4534,555.4535,556.2181,return,0.0083,,37.109375,,,,,,FBP-RB-19.png,0.4,1.2,28,0.5,,,,,,,,,,,,,0,27,27,27,1,,,,,,,,,,,,,,,,,,,,,,,,,,,,
,,,,,WIN24_059,21,F,2024-02-13_14h02.31.522,jersey_experiment_5,2023.2.2,Win32,85.47008547,,,,,,,,,,,,,,,,556.2183,558.0184,558.0185,558.9947,return,0.1647,,84.89583333,,,,,,FBP-PT-17.png,0.45,1.2,50,1,,,,,,,,,,,,,0,28,28,49,1,,,,,,,,,,,,,,,,,,,,,,,,,,,,
,,,,,WIN24_059,21,F,2024-02-13_14h02.31.522,jersey_experiment_5,2023.2.2,Win32,85.47008547,,,,,,,,,,,,,,,,558.9949,560.795,560.795,561.5243,return,0.1552,,60.02604167,,,,,,FBP-PT-18.png,0.43,1.2,54,1,,,,,,,,,,,,,0,29,29,53,1,,,,,,,,,,,,,,,,,,,,,,,,,,,,
,,,,,WIN24_059,21,F,2024-02-13_14h02.31.522,jersey_experiment_5,2023.2.2,Win32,85.47008547,,,,,,,,,,,,,,,,561.5245,563.3243,563.3243,563.9243,return,0.0943,,57.8125,,,,,,FBP-PT-19.png,0.4,1.2,58,1,,,,,,,,,,,,,0,30,30,57,1,,,,,,,,,,,,,,,,,,,,,,,,,,,,
,,,,,WIN24_059,21,F,2024-02-13_14h02.31.522,jersey_experiment_5,2023.2.2,Win32,85.47008547,,,,,,,,,,,,,,,,563.9245,565.7245,565.7245,566.2067,return,0.0724,,50.65104167,,,,,,FBP-PT-18.png,0.4,1.2,53,1,,,,,,,,,,,,,0,31,31,52,1,,,,,,,,,,,,,,,,,,,,,,,,,,,,
,,,,,WIN24_059,21,F,2024-02-13_14h02.31.522,jersey_experiment_5,2023.2.2,Win32,85.47008547,,,,,,,,,,,,,,,,566.2069,567.5009,567.501,568.7245,return,0.2967,,3.645833333,,,,,,FBP-YG-71.png,0.35,1.2,31,0.5,,,,,,,,,,,,,0,32,32,30,1,,,,,,,,,,,,,,,,,,,,,,,,,,,,
,,,,,WIN24_059,21,F,2024-02-13_14h02.31.522,jersey_experiment_5,2023.2.2,Win32,85.47008547,,,,,,,,,,,,,,,,568.7247,570.0188,570.0188,571.1481,return,0.3472,,47.65625,,,,,,FBP-YG-81.png,0.4,1.2,38,0.5,,,,,,,,,,,,,0,33,33,37,1,,,,,,,,,,,,,,,,,,,,,,,,,,,,
,,,,,WIN24_059,21,F,2024-02-13_14h02.31.522,jersey_experiment_5,2023.2.2,Win32,85.47008547,,,,,,,,,,,,,,,,571.1482,572.9483,572.9483,573.2774,return,0.0519,,23.828125,,,,,,FBP-OG-91.png,0.35,1.2,11,1,,,,,,,,,,,,,0,34,34,10,1,,,,,,,,,,,,,,,,,,,,,,,,,,,,
,,,,,WIN24_059,21,F,2024-02-13_14h02.31.522,jersey_experiment_5,2023.2.2,Win32,85.47008547,,,,,,,,,,,,,,,,573.2777,574.5718,574.5718,576.3483,return,1.0298,,64.97395833,,,,,,FBP-YG-81.png,0.43,1.2,39,0.5,,,,,,,,,,,,,0,35,35,38,1,,,,,,,,,,,,,,,,,,,,,,,,,,,,
,,,,,WIN24_059,21,F,2024-02-13_14h02.31.522,jersey_experiment_5,2023.2.2,Win32,85.47008547,,,,,,,,,,,,,,,,576.3485,578.1483,578.1483,578.9484,return,0.1513,,82.03125,,,,,,FBP-PT-18.png,0.45,1.2,55,1,,,,,,,,,,,,,0,36,36,54,1,,,,,,,,,,,,,,,,,,,,,,,,,,,,
,,,,,WIN24_059,21,F,2024-02-13_14h02.31.522,jersey_experiment_5,2023.2.2,Win32,85.47008547,,,,,,,,,,,,,,,,578.9486,580.7486,580.7487,581.5956,return,0.0519,,24.73958333,,,,,,FBP-OG-71.png,0.37,1.2,2,1,,,,,,,,,,,,,0,37,37,1,1,,,,,,,,,,,,,,,,,,,,,,,,,,,,
,,,,,WIN24_059,21,F,2024-02-13_14h02.31.522,jersey_experiment_5,2023.2.2,Win32,85.47008547,,,,,,,,,,,,,,,,581.5959,582.8897,582.8898,583.8545,return,0.0395,,83.85416667,,,,,,FBP-RB-18.png,0.45,1.2,25,0.5,,,,,,,,,,,,,0,38,38,24,1,,,,,,,,,,,,,,,,,,,,,,,,,,,,
,,,,,WIN24_059,21,F,2024-02-13_14h02.31.522,jersey_experiment_5,2023.2.2,Win32,85.47008547,,,,,,,,,,,,,,,,583.8547,585.1486,585.1486,586.3722,return,0.1077,,22.65625,,,,,,FBP-RB-18.png,0.35,1.2,21,0.5,,,,,,,,,,,,,0,39,39,20,1,,,,,,,,,,,,,,,,,,,,,,,,,,,,
,,,,,WIN24_059,21,F,2024-02-13_14h02.31.522,jersey_experiment_5,2023.2.2,Win32,85.47008547,,,,,,,,,,,,,,,,586.3724,588.1724,588.1724,588.9488,return,0.0475,,72.65625,,,,,,FBP-OG-71.png,0.4,1.2,3,1,,,,,,,,,,,,,0,40,40,2,1,,,,,,,,,,,,,,,,,,,,,,,,,,,,
,,,,,WIN24_059,21,F,2024-02-13_14h02.31.522,jersey_experiment_5,2023.2.2,Win32,85.47008547,,,,,,,,,,,,,,,,588.9489,590.2428,590.2428,591.0194,return,0.0872,,23.69791667,,,,,,FBP-YG-71.png,0.37,1.2,32,0.5,,,,,,,,,,,,,0,41,41,31,1,,,,,,,,,,,,,,,,,,,,,,,,,,,,
,,,,,WIN24_059,21,F,2024-02-13_14h02.31.522,jersey_experiment_5,2023.2.2,Win32,85.47008547,,,,,,,,,,,,,,,,591.0196,592.3135,592.3136,592.9254,return,0.038,,23.69791667,,,,,,FBP-RB-17.png,0.37,1.2,17,0.5,,,,,,,,,,,,,0,42,42,16,1,,,,,,,,,,,,,,,,,,,,,,,,,,,,
,,,,,WIN24_059,21,F,2024-02-13_14h02.31.522,jersey_experiment_5,2023.2.2,Win32,85.47008547,,,,,,,,,,,,,,,,592.9256,594.2195,594.2195,594.702,return,0.0259,,23.69791667,,,,,,FBP-YG-91.png,0.35,1.2,41,0.5,,,,,,,,,,,,,0,43,43,40,1,,,,,,,,,,,,,,,,,,,,,,,,,,,,
,,,,,WIN24_059,21,F,2024-02-13_14h02.31.522,jersey_experiment_5,2023.2.2,Win32,85.47008547,,,,,,,,,,,,,,,,594.7022,596.502,596.5021,597.0431,return,0.151,,23.69791667,,,,,,FBP-OG-81.png,0.37,1.2,7,1,,,,,,,,,,,,,0,44,44,6,1,,,,,,,,,,,,,,,,,,,,,,,,,,,,
,,,,,WIN24_059,21,F,2024-02-13_14h02.31.522,jersey_experiment_5,2023.2.2,Win32,85.47008547,,,,,,,,,,,,,,,,597.0433,598.3372,598.3372,599.1022,return,0.0962,,22.65625,,,,,,FBP-YG-91.png,0.37,1.2,42,0.5,,,,,,,,,,,,,0,45,45,41,1,,,,,,,,,,,,,,,,,,,,,,,,,,,,
,,,,,WIN24_059,21,F,2024-02-13_14h02.31.522,jersey_experiment_5,2023.2.2,Win32,85.47008547,,,,,,,,,,,,,,,,599.1024,600.3964,600.3964,601.4432,return,0.0097,,59.765625,,,,,,FBP-YG-71.png,0.4,1.2,33,0.5,,,,,,,,,,,,,0,46,46,32,1,,,,,,,,,,,,,,,,,,,,,,,,,,,,
,,,,,WIN24_059,21,F,2024-02-13_14h02.31.522,jersey_experiment_5,2023.2.2,Win32,85.47008547,,,,,,,,,,,,,,,,601.4435,603.2435,603.2435,603.9964,return,0.0509,,24.609375,,,,,,FBP-PT-18.png,0.35,1.2,51,1,,,,,,,,,,,,,0,47,47,50,1,,,,,,,,,,,,,,,,,,,,,,,,,,,,
,,,,,WIN24_059,21,F,2024-02-13_14h02.31.522,jersey_experiment_5,2023.2.2,Win32,85.47008547,,,,,,,,,,,,,,,,603.9967,605.2906,605.2906,606.3729,return,0.024,,50.13020833,,,,,,FBP-RB-18.png,0.4,1.2,23,0.5,,,,,,,,,,,,,0,48,48,22,1,,,,,,,,,,,,,,,,,,,,,,,,,,,,
,,,,,WIN24_059,21,F,2024-02-13_14h02.31.522,jersey_experiment_5,2023.2.2,Win32,85.47008547,,,,,,,,,,,,,,,,606.3732,608.173,608.173,608.8436,return,0.0187,,88.671875,,,,,,FBP-OG-81.png,0.43,1.2,9,1,,,,,,,,,,,,,0,49,49,8,1,,,,,,,,,,,,,,,,,,,,,,,,,,,,
,,,,,WIN24_059,21,F,2024-02-13_14h02.31.522,jersey_experiment_5,2023.2.2,Win32,85.47008547,,,,,,,,,,,,,,,,608.8438,610.1378,610.1378,611.8671,return,0.125,,65.49479167,,,,,,FBP-RB-17.png,0.35,1.2,16,0.5,,,,,,,,,,,,,0,50,50,15,1,,,,,,,,,,,,,,,,,,,,,,,,,,,,
,,,,,WIN24_059,21,F,2024-02-13_14h02.31.522,jersey_experiment_5,2023.2.2,Win32,85.47008547,,,,,,,,,,,,,,,,611.8674,613.6673,613.6674,614.2672,return,0.0542,,86.97916667,,,,,,FBP-OG-81.png,0.45,1.2,10,1,,,,,,,,,,,,,0,51,51,9,1,,,,,,,,,,,,,,,,,,,,,,,,,,,,
,,,,,WIN24_059,21,F,2024-02-13_14h02.31.522,jersey_experiment_5,2023.2.2,Win32,85.47008547,,,,,,,,,,,,,,,,614.2674,616.0676,616.0676,616.6204,return,0.0297,,24.21875,,,,,,FBP-OG-91.png,0.37,1.2,12,1,,,,,,,,,,,,,0,52,52,11,1,,,,,,,,,,,,,,,,,,,,,,,,,,,,
,,,,,WIN24_059,21,F,2024-02-13_14h02.31.522,jersey_experiment_5,2023.2.2,Win32,85.47008547,,,,,,,,,,,,,,,,616.6206,617.9144,617.9144,619.2676,return,0.0477,,70.96354167,,,,,,FBP-YG-81.png,0.45,1.2,40,0.5,,,,,,,,,,,,,0,53,53,39,1,,,,,,,,,,,,,,,,,,,,,,,,,,,,
,,,,,WIN24_059,21,F,2024-02-13_14h02.31.522,jersey_experiment_5,2023.2.2,Win32,85.47008547,,,,,,,,,,,,,,,,619.2678,620.5617,620.5617,621.2911,return,0.1131,,48.4375,,,,,,FBP-YG-91.png,0.4,1.2,43,0.5,,,,,,,,,,,,,0,54,54,42,1,,,,,,,,,,,,,,,,,,,,,,,,,,,,
,,,,,WIN24_059,21,F,2024-02-13_14h02.31.522,jersey_experiment_5,2023.2.2,Win32,85.47008547,,,,,,,,,,,,,,,,621.2914,622.5853,622.5853,623.2912,return,0.0425,,66.796875,,,,,,FBP-RB-18.png,0.43,1.2,24,0.5,,,,,,,,,,,,,0,55,55,23,1,,,,,,,,,,,,,,,,,,,,,,,,,,,,
,,,,,WIN24_059,21,F,2024-02-13_14h02.31.522,jersey_experiment_5,2023.2.2,Win32,85.47008547,,,,,,,,,,,,,,,,623.2914,624.5853,624.5854,625.4205,return,0.1703,,78.64583333,,,,,,FBP-RB-17.png,0.45,1.2,20,0.5,,,,,,,,,,,,,0,56,56,19,1,,,,,,,,,,,,,,,,,,,,,,,,,,,,
,,,,,WIN24_059,21,F,2024-02-13_14h02.31.522,jersey_experiment_5,2023.2.2,Win32,85.47008547,,,,,,,,,,,,,,,,625.4207,626.7149,626.7149,627.5618,return,0.0412,,25.13020833,,,,,,FBP-RB-19.png,0.35,1.2,26,0.5,,,,,,,,,,,,,0,57,57,25,1,,,,,,,,,,,,,,,,,,,,,,,,,,,,
,,,,,WIN24_059,21,F,2024-02-13_14h02.31.522,jersey_experiment_5,2023.2.2,Win32,85.47008547,,,,,,,,,,,,,,,,627.562,628.8561,628.8562,629.6679,return,0.0618,,55.859375,,,,,,FBP-YG-91.png,0.45,1.2,45,0.5,,,,,,,,,,,,,0,58,58,44,1,,,,,,,,,,,,,,,,,,,,,,,,,,,,
,,,,,WIN24_059,21,F,2024-02-13_14h02.31.522,jersey_experiment_5,2023.2.2,Win32,85.47008547,,,,,,,,,,,,,,,,629.6682,631.4681,631.4681,632.7621,return,0.8179,,65.10416667,,,,,,FBP-PT-17.png,0.43,1.2,49,1,,,,,,,,,,,,,0,59,59,48,1,,,,,,,,,,,,,,,,,,,,,,,,,,,,
,,,,,WIN24_059,21,F,2024-02-13_14h02.31.522,jersey_experiment_5,2023.2.2,Win32,85.47008547,,,,,,,,,,,,,,,,632.7636,634.0562,634.0562,635.1387,return,0.1512,,40.88541667,,,,,,FBP-YG-18.png,0.4,1.2,38,0.5,,,,,,,,,,,,,,,,,,0,0,0,37,1,,,,,,,,,,,,,,,,,,,,,,,
,,,,,WIN24_059,21,F,2024-02-13_14h02.31.522,jersey_experiment_5,2023.2.2,Win32,85.47008547,,,,,,,,,,,,,,,,635.139,636.9389,636.9389,637.6212,return,0.0603,,20.83333333,,,,,,FBP-PT-81.png,0.37,1.2,52,1,,,,,,,,,,,,,,,,,,0,1,1,51,1,,,,,,,,,,,,,,,,,,,,,,,
,,,,,WIN24_059,21,F,2024-02-13_14h02.31.522,jersey_experiment_5,2023.2.2,Win32,85.47008547,,,,,,,,,,,,,,,,637.6214,639.4213,639.4214,640.0919,return,0.0652,,1.302083333,,,,,,FBP-OG-17.png,0.35,1.2,1,1,,,,,,,,,,,,,,,,,,0,2,2,0,1,,,,,,,,,,,,,,,,,,,,,,,
,,,,,WIN24_059,21,F,2024-02-13_14h02.31.522,jersey_experiment_5,2023.2.2,Win32,85.47008547,,,,,,,,,,,,,,,,640.0921,641.386,641.386,642.7978,return,0.1577,,17.96875,,,,,,FBP-YG-18.png,0.35,1.2,36,0.5,,,,,,,,,,,,,,,,,,0,3,3,35,1,,,,,,,,,,,,,,,,,,,,,,,
,,,,,WIN24_059,21,F,2024-02-13_14h02.31.522,jersey_experiment_5,2023.2.2,Win32,85.47008547,,,,,,,,,,,,,,,,642.798,644.598,644.598,645.1862,return,0.0107,,50.26041667,,,,,,FBP-PT-81.png,0.43,1.2,54,1,,,,,,,,,,,,,,,,,,0,4,4,53,1,,,,,,,,,,,,,,,,,,,,,,,
,,,,,WIN24_059,21,F,2024-02-13_14h02.31.522,jersey_experiment_5,2023.2.2,Win32,85.47008547,,,,,,,,,,,,,,,,645.1863,646.9862,646.9863,647.4568,return,0.0847,,50.26041667,,,,,,FBP-OG-18.png,0.4,1.2,8,1,,,,,,,,,,,,,,,,,,0,5,5,7,1,,,,,,,,,,,,,,,,,,,,,,,
,,,,,WIN24_059,21,F,2024-02-13_14h02.31.522,jersey_experiment_5,2023.2.2,Win32,85.47008547,,,,,,,,,,,,,,,,647.4571,649.2568,649.2568,649.7274,return,0.0733,,50.26041667,,,,,,FBP-OG-19.png,0.4,1.2,13,1,,,,,,,,,,,,,,,,,,0,6,6,12,1,,,,,,,,,,,,,,,,,,,,,,,
,,,,,WIN24_059,21,F,2024-02-13_14h02.31.522,jersey_experiment_5,2023.2.2,Win32,85.47008547,,,,,,,,,,,,,,,,649.7276,651.0215,651.0215,651.6333,return,0.0713,,50.26041667,,,,,,FBP-YG-17.png,0.4,1.2,33,0.5,,,,,,,,,,,,,,,,,,0,7,7,32,1,,,,,,,,,,,,,,,,,,,,,,,
,,,,,WIN24_059,21,F,2024-02-13_14h02.31.522,jersey_experiment_5,2023.2.2,Win32,85.47008547,,,,,,,,,,,,,,,,651.6335,652.9275,652.9275,654.0099,return,0.0886,,25.65104167,,,,,,FBP-RB-71.png,0.37,1.2,17,0.5,,,,,,,,,,,,,,,,,,0,8,8,16,1,,,,,,,,,,,,,,,,,,,,,,,
,,,,,WIN24_059,21,F,2024-02-13_14h02.31.522,jersey_experiment_5,2023.2.2,Win32,85.47008547,,,,,,,,,,,,,,,,654.01,655.304,655.3041,656.2335,return,0.0911,,72.00520833,,,,,,FBP-YG-18.png,0.45,1.2,40,0.5,,,,,,,,,,,,,,,,,,0,9,9,39,1,,,,,,,,,,,,,,,,,,,,,,,
,,,,,WIN24_059,21,F,2024-02-13_14h02.31.522,jersey_experiment_5,2023.2.2,Win32,85.47008547,,,,,,,,,,,,,,,,656.2337,657.5277,657.5277,658.069,return,0.071,,72.00520833,,,,,,FBP-RB-81.png,0.43,1.2,24,0.5,,,,,,,,,,,,,,,,,,0,10,10,23,1,,,,,,,,,,,,,,,,,,,,,,,
,,,,,WIN24_059,21,F,2024-02-13_14h02.31.522,jersey_experiment_5,2023.2.2,Win32,85.47008547,,,,,,,,,,,,,,,,658.0693,659.3631,659.3631,660.3396,return,0.0097,,25.91145833,,,,,,FBP-RB-91.png,0.35,1.2,26,0.5,,,,,,,,,,,,,,,,,,0,11,11,25,1,,,,,,,,,,,,,,,,,,,,,,,
,,,,,WIN24_059,21,F,2024-02-13_14h02.31.522,jersey_experiment_5,2023.2.2,Win32,85.47008547,,,,,,,,,,,,,,,,660.3398,662.1398,662.1398,662.6337,return,0.0298,,52.21354167,,,,,,FBP-PT-71.png,0.4,1.2,48,1,,,,,,,,,,,,,,,,,,0,12,12,47,1,,,,,,,,,,,,,,,,,,,,,,,
,,,,,WIN24_059,21,F,2024-02-13_14h02.31.522,jersey_experiment_5,2023.2.2,Win32,85.47008547,,,,,,,,,,,,,,,,662.634,664.4339,664.4339,665.0104,return,0.1788,,22.91666667,,,,,,FBP-PT-91.png,0.37,1.2,57,1,,,,,,,,,,,,,,,,,,0,13,13,56,1,,,,,,,,,,,,,,,,,,,,,,,
,,,,,WIN24_059,21,F,2024-02-13_14h02.31.522,jersey_experiment_5,2023.2.2,Win32,85.47008547,,,,,,,,,,,,,,,,665.0106,666.8105,666.8106,668.1281,return,0.8024,,84.63541667,,,,,,FBP-PT-71.png,0.45,1.2,50,1,,,,,,,,,,,,,,,,,,0,14,14,49,1,,,,,,,,,,,,,,,,,,,,,,,
,,,,,WIN24_059,21,F,2024-02-13_14h02.31.522,jersey_experiment_5,2023.2.2,Win32,85.47008547,,,,,,,,,,,,,,,,668.1283,669.4223,669.4223,670.5752,return,0.0257,,9.765625,,,,,,FBP-RB-81.png,0.35,1.2,21,0.5,,,,,,,,,,,,,,,,,,0,15,15,20,1,,,,,,,,,,,,,,,,,,,,,,,
,,,,,WIN24_059,21,F,2024-02-13_14h02.31.522,jersey_experiment_5,2023.2.2,Win32,85.47008547,,,,,,,,,,,,,,,,670.5755,671.8693,671.8693,672.493,return,0.0267,,8.984375,,,,,,FBP-YG-17.png,0.35,1.2,31,0.5,,,,,,,,,,,,,,,,,,0,16,16,30,1,,,,,,,,,,,,,,,,,,,,,,,
,,,,,WIN24_059,21,F,2024-02-13_14h02.31.522,jersey_experiment_5,2023.2.2,Win32,85.47008547,,,,,,,,,,,,,,,,672.4933,673.7872,673.7872,674.6107,return,0.0854,,50.26041667,,,,,,FBP-RB-81.png,0.4,1.2,23,0.5,,,,,,,,,,,,,,,,,,0,17,17,22,1,,,,,,,,,,,,,,,,,,,,,,,
,,,,,WIN24_059,21,F,2024-02-13_14h02.31.522,jersey_experiment_5,2023.2.2,Win32,85.47008547,,,,,,,,,,,,,,,,674.611,676.4107,676.4107,676.8814,return,0.175,,50.26041667,,,,,,FBP-PT-91.png,0.43,1.2,59,1,,,,,,,,,,,,,,,,,,0,18,18,58,1,,,,,,,,,,,,,,,,,,,,,,,
,,,,,WIN24_059,21,F,2024-02-13_14h02.31.522,jersey_experiment_5,2023.2.2,Win32,85.47008547,,,,,,,,,,,,,,,,676.8817,678.6815,678.6815,678.9873,return,0.0762,,67.96875,,,,,,FBP-OG-18.png,0.43,1.2,9,1,,,,,,,,,,,,,,,,,,0,19,19,8,1,,,,,,,,,,,,,,,,,,,,,,,
,,,,,WIN24_059,21,F,2024-02-13_14h02.31.522,jersey_experiment_5,2023.2.2,Win32,85.47008547,,,,,,,,,,,,,,,,678.9876,680.2815,680.2815,680.9874,return,0.0526,,71.09375,,,,,,FBP-RB-71.png,0.43,1.2,19,0.5,,,,,,,,,,,,,,,,,,0,20,20,18,1,,,,,,,,,,,,,,,,,,,,,,,
,,,,,WIN24_059,21,F,2024-02-13_14h02.31.522,jersey_experiment_5,2023.2.2,Win32,85.47008547,,,,,,,,,,,,,,,,680.9876,682.7874,682.7874,683.4699,return,0.0751,,84.24479167,,,,,,FBP-PT-91.png,0.45,1.2,60,1,,,,,,,,,,,,,,,,,,0,21,21,59,1,,,,,,,,,,,,,,,,,,,,,,,
,,,,,WIN24_059,21,F,2024-02-13_14h02.31.522,jersey_experiment_5,2023.2.2,Win32,85.47008547,,,,,,,,,,,,,,,,683.47,685.2702,685.2702,685.917,return,0.0997,,85.28645833,,,,,,FBP-OG-19.png,0.43,1.2,14,1,,,,,,,,,,,,,,,,,,0,22,22,13,1,,,,,,,,,,,,,,,,,,,,,,,
,,,,,WIN24_059,21,F,2024-02-13_14h02.31.522,jersey_experiment_5,2023.2.2,Win32,85.47008547,,,,,,,,,,,,,,,,685.9173,687.2113,687.2113,689.0349,return,0.7722,,31.38020833,,,,,,FBP-YG-19.png,0.4,1.2,43,0.5,,,,,,,,,,,,,,,,,,0,23,23,42,1,,,,,,,,,,,,,,,,,,,,,,,
,,,,,WIN24_059,21,F,2024-02-13_14h02.31.522,jersey_experiment_5,2023.2.2,Win32,85.47008547,,,,,,,,,,,,,,,,689.0351,690.329,690.329,692.2585,return,0.7429,,53.77604167,,,,,,FBP-YG-18.png,0.43,1.2,39,0.5,,,,,,,,,,,,,,,,,,0,24,24,38,1,,,,,,,,,,,,,,,,,,,,,,,
,,,,,WIN24_059,21,F,2024-02-13_14h02.31.522,jersey_experiment_5,2023.2.2,Win32,85.47008547,,,,,,,,,,,,,,,,692.2587,694.0584,694.0584,694.6351,return,0.0896,,25,,,,,,FBP-OG-19.png,0.37,1.2,12,1,,,,,,,,,,,,,,,,,,0,25,25,11,1,,,,,,,,,,,,,,,,,,,,,,,
,,,,,WIN24_059,21,F,2024-02-13_14h02.31.522,jersey_experiment_5,2023.2.2,Win32,85.47008547,,,,,,,,,,,,,,,,694.6353,695.9291,695.9291,697.7763,return,0.1294,,74.86979167,,,,,,FBP-YG-19.png,0.45,1.2,45,0.5,,,,,,,,,,,,,,,,,,0,26,26,44,1,,,,,,,,,,,,,,,,,,,,,,,
,,,,,WIN24_059,21,F,2024-02-13_14h02.31.522,jersey_experiment_5,2023.2.2,Win32,85.47008547,,,,,,,,,,,,,,,,697.7765,699.5764,699.5764,700.4586,return,0.3937,,74.21875,,,,,,FBP-OG-19.png,0.45,1.2,15,1,,,,,,,,,,,,,,,,,,0,27,27,14,1,,,,,,,,,,,,,,,,,,,,,,,
,,,,,WIN24_059,21,F,2024-02-13_14h02.31.522,jersey_experiment_5,2023.2.2,Win32,85.47008547,,,,,,,,,,,,,,,,700.4589,701.7528,701.7528,702.6354,return,0.1365,,56.25,,,,,,FBP-YG-19.png,0.43,1.2,44,0.5,,,,,,,,,,,,,,,,,,0,28,28,43,1,,,,,,,,,,,,,,,,,,,,,,,
,,,,,WIN24_059,21,F,2024-02-13_14h02.31.522,jersey_experiment_5,2023.2.2,Win32,85.47008547,,,,,,,,,,,,,,,,702.6355,703.9295,703.9295,704.8001,return,0.0004,,75.78125,,,,,,FBP-RB-91.png,0.43,1.2,29,0.5,,,,,,,,,,,,,,,,,,0,29,29,28,1,,,,,,,,,,,,,,,,,,,,,,,
,,,,,WIN24_059,21,F,2024-02-13_14h02.31.522,jersey_experiment_5,2023.2.2,Win32,85.47008547,,,,,,,,,,,,,,,,704.8003,706.6003,706.6003,707.4825,return,0.1476,,19.40104167,,,,,,FBP-OG-18.png,0.35,1.2,6,1,,,,,,,,,,,,,,,,,,0,30,30,5,1,,,,,,,,,,,,,,,,,,,,,,,
,,,,,WIN24_059,21,F,2024-02-13_14h02.31.522,jersey_experiment_5,2023.2.2,Win32,85.47008547,,,,,,,,,,,,,,,,707.4828,708.7769,708.7769,709.565,return,0.1327,,1.432291667,,,,,,FBP-RB-71.png,0.35,1.2,16,0.5,,,,,,,,,,,,,,,,,,0,31,31,15,1,,,,,,,,,,,,,,,,,,,,,,,
,,,,,WIN24_059,21,F,2024-02-13_14h02.31.522,jersey_experiment_5,2023.2.2,Win32,85.47008547,,,,,,,,,,,,,,,,709.5652,711.3652,711.3652,712.0827,return,0.0705,,50.13020833,,,,,,FBP-PT-81.png,0.4,1.2,53,1,,,,,,,,,,,,,,,,,,0,32,32,52,1,,,,,,,,,,,,,,,,,,,,,,,
,,,,,WIN24_059,21,F,2024-02-13_14h02.31.522,jersey_experiment_5,2023.2.2,Win32,85.47008547,,,,,,,,,,,,,,,,712.0829,713.8829,713.8829,714.412,return,0.006,,86.97916667,,,,,,FBP-PT-81.png,0.45,1.2,55,1,,,,,,,,,,,,,,,,,,0,33,33,54,1,,,,,,,,,,,,,,,,,,,,,,,
,,,,,WIN24_059,21,F,2024-02-13_14h02.31.522,jersey_experiment_5,2023.2.2,Win32,85.47008547,,,,,,,,,,,,,,,,714.4122,715.7063,715.7063,716.6123,return,0.0374,,25,,,,,,FBP-RB-91.png,0.37,1.2,27,0.5,,,,,,,,,,,,,,,,,,0,34,34,26,1,,,,,,,,,,,,,,,,,,,,,,,
,,,,,WIN24_059,21,F,2024-02-13_14h02.31.522,jersey_experiment_5,2023.2.2,Win32,85.47008547,,,,,,,,,,,,,,,,716.6126,718.4123,718.4123,719.0595,return,0.2594,,23.828125,,,,,,FBP-PT-71.png,0.35,1.2,46,1,,,,,,,,,,,,,,,,,,0,35,35,45,1,,,,,,,,,,,,,,,,,,,,,,,
,,,,,WIN24_059,21,F,2024-02-13_14h02.31.522,jersey_experiment_5,2023.2.2,Win32,85.47008547,,,,,,,,,,,,,,,,719.0597,720.8595,720.8595,721.6478,return,0.4481,,48.17708333,,,,,,FBP-PT-71.png,0.37,1.2,47,1,,,,,,,,,,,,,,,,,,0,36,36,46,1,,,,,,,,,,,,,,,,,,,,,,,
,,,,,WIN24_059,21,F,2024-02-13_14h02.31.522,jersey_experiment_5,2023.2.2,Win32,85.47008547,,,,,,,,,,,,,,,,721.6481,723.4478,723.4478,724.5302,return,0.0707,,78.125,,,,,,FBP-OG-17.png,0.4,1.2,3,1,,,,,,,,,,,,,,,,,,0,37,37,2,1,,,,,,,,,,,,,,,,,,,,,,,
,,,,,WIN24_059,21,F,2024-02-13_14h02.31.522,jersey_experiment_5,2023.2.2,Win32,85.47008547,,,,,,,,,,,,,,,,724.5304,726.3305,726.3305,726.8596,return,0.0398,,25,,,,,,FBP-OG-17.png,0.37,1.2,2,1,,,,,,,,,,,,,,,,,,0,38,38,1,1,,,,,,,,,,,,,,,,,,,,,,,
,,,,,WIN24_059,21,F,2024-02-13_14h02.31.522,jersey_experiment_5,2023.2.2,Win32,85.47008547,,,,,,,,,,,,,,,,726.8599,728.1538,728.1539,729.1069,return,0.1543,,77.47395833,,,,,,FBP-YG-17.png,0.45,1.2,35,0.5,,,,,,,,,,,,,,,,,,0,39,39,34,1,,,,,,,,,,,,,,,,,,,,,,,
,,,,,WIN24_059,21,F,2024-02-13_14h02.31.522,jersey_experiment_5,2023.2.2,Win32,85.47008547,,,,,,,,,,,,,,,,729.1072,730.4011,730.4011,731.6952,return,0.1794,,25.390625,,,,,,FBP-YG-19.png,0.37,1.2,42,0.5,,,,,,,,,,,,,,,,,,0,40,40,41,1,,,,,,,,,,,,,,,,,,,,,,,
,,,,,WIN24_059,21,F,2024-02-13_14h02.31.522,jersey_experiment_5,2023.2.2,Win32,85.47008547,,,,,,,,,,,,,,,,731.6955,732.9896,732.9896,734.0365,return,0.1877,,76.171875,,,,,,FBP-RB-91.png,0.45,1.2,30,0.5,,,,,,,,,,,,,,,,,,0,41,41,29,1,,,,,,,,,,,,,,,,,,,,,,,
,,,,,WIN24_059,21,F,2024-02-13_14h02.31.522,jersey_experiment_5,2023.2.2,Win32,85.47008547,,,,,,,,,,,,,,,,734.0366,735.8367,735.8367,736.4365,return,0.1511,,87.5,,,,,,FBP-OG-17.png,0.45,1.2,5,1,,,,,,,,,,,,,,,,,,0,42,42,4,1,,,,,,,,,,,,,,,,,,,,,,,
,,,,,WIN24_059,21,F,2024-02-13_14h02.31.522,jersey_experiment_5,2023.2.2,Win32,85.47008547,,,,,,,,,,,,,,,,736.4367,738.2368,738.2368,739.0719,return,0.2003,,67.1875,,,,,,FBP-OG-17.png,0.43,1.2,4,1,,,,,,,,,,,,,,,,,,0,43,43,3,1,,,,,,,,,,,,,,,,,,,,,,,
,,,,,WIN24_059,21,F,2024-02-13_14h02.31.522,jersey_experiment_5,2023.2.2,Win32,85.47008547,,,,,,,,,,,,,,,,739.0722,740.8722,740.8722,741.519,return,0.0975,,22.91666667,,,,,,FBP-OG-19.png,0.35,1.2,11,1,,,,,,,,,,,,,,,,,,0,44,44,10,1,,,,,,,,,,,,,,,,,,,,,,,
,,,,,WIN24_059,21,F,2024-02-13_14h02.31.522,jersey_experiment_5,2023.2.2,Win32,85.47008547,,,,,,,,,,,,,,,,741.5193,742.8132,742.8133,744.0956,return,0.0849,,63.80208333,,,,,,FBP-RB-71.png,0.45,1.2,20,0.5,,,,,,,,,,,,,,,,,,0,45,45,19,1,,,,,,,,,,,,,,,,,,,,,,,
,,,,,WIN24_059,21,F,2024-02-13_14h02.31.522,jersey_experiment_5,2023.2.2,Win32,85.47008547,,,,,,,,,,,,,,,,744.0959,745.8957,745.8958,746.6016,return,0.2205,,52.21354167,,,,,,FBP-PT-91.png,0.4,1.2,58,1,,,,,,,,,,,,,,,,,,0,46,46,57,1,,,,,,,,,,,,,,,,,,,,,,,
,,,,,WIN24_059,21,F,2024-02-13_14h02.31.522,jersey_experiment_5,2023.2.2,Win32,85.47008547,,,,,,,,,,,,,,,,746.6018,748.4017,748.4018,748.931,return,0.0336,,63.15104167,,,,,,FBP-PT-71.png,0.43,1.2,49,1,,,,,,,,,,,,,,,,,,0,47,47,48,1,,,,,,,,,,,,,,,,,,,,,,,
,,,,,WIN24_059,21,F,2024-02-13_14h02.31.522,jersey_experiment_5,2023.2.2,Win32,85.47008547,,,,,,,,,,,,,,,,748.9313,750.2252,750.2252,751.3783,return,0.0943,,24.609375,,,,,,FBP-RB-81.png,0.37,1.2,22,0.5,,,,,,,,,,,,,,,,,,0,48,48,21,1,,,,,,,,,,,,,,,,,,,,,,,
,,,,,WIN24_059,21,F,2024-02-13_14h02.31.522,jersey_experiment_5,2023.2.2,Win32,85.47008547,,,,,,,,,,,,,,,,751.3785,752.6724,752.6724,753.649,return,0.0132,,3.645833333,,,,,,FBP-YG-19.png,0.35,1.2,41,0.5,,,,,,,,,,,,,,,,,,0,49,49,40,1,,,,,,,,,,,,,,,,,,,,,,,
,,,,,WIN24_059,21,F,2024-02-13_14h02.31.522,jersey_experiment_5,2023.2.2,Win32,85.47008547,,,,,,,,,,,,,,,,753.6492,755.4491,755.4491,757.3314,return,0.0943,,73.4375,,,,,,FBP-OG-18.png,0.45,1.2,10,1,,,,,,,,,,,,,,,,,,0,50,50,9,1,,,,,,,,,,,,,,,,,,,,,,,
,,,,,WIN24_059,21,F,2024-02-13_14h02.31.522,jersey_experiment_5,2023.2.2,Win32,85.47008547,,,,,,,,,,,,,,,,757.3317,758.6257,758.6257,759.3433,return,0.0483,,69.53125,,,,,,FBP-RB-91.png,0.4,1.2,28,0.5,,,,,,,,,,,,,,,,,,0,51,51,27,1,,,,,,,,,,,,,,,,,,,,,,,
,,,,,WIN24_059,21,F,2024-02-13_14h02.31.522,jersey_experiment_5,2023.2.2,Win32,85.47008547,,,,,,,,,,,,,,,,759.3435,760.6375,760.6375,761.5552,return,0.0623,,73.046875,,,,,,FBP-RB-81.png,0.45,1.2,25,0.5,,,,,,,,,,,,,,,,,,0,52,52,24,1,,,,,,,,,,,,,,,,,,,,,,,
,,,,,WIN24_059,21,F,2024-02-13_14h02.31.522,jersey_experiment_5,2023.2.2,Win32,85.47008547,,,,,,,,,,,,,,,,761.5554,762.8495,762.8495,763.7552,return,0.1353,,27.99479167,,,,,,FBP-RB-71.png,0.4,1.2,18,0.5,,,,,,,,,,,,,,,,,,0,53,53,17,1,,,,,,,,,,,,,,,,,,,,,,,
,,,,,WIN24_059,21,F,2024-02-13_14h02.31.522,jersey_experiment_5,2023.2.2,Win32,85.47008547,,,,,,,,,,,,,,,,763.7554,765.0493,765.0493,766.3198,return,0.0497,,93.75,,,,,,FBP-YG-17.png,0.43,1.2,34,0.5,,,,,,,,,,,,,,,,,,0,54,54,33,1,,,,,,,,,,,,,,,,,,,,,,,
,,,,,WIN24_059,21,F,2024-02-13_14h02.31.522,jersey_experiment_5,2023.2.2,Win32,85.47008547,,,,,,,,,,,,,,,,766.3201,768.1203,768.1203,769.3437,return,0.0946,,37.109375,,,,,,FBP-PT-91.png,0.35,1.2,56,1,,,,,,,,,,,,,,,,,,0,55,55,55,1,,,,,,,,,,,,,,,,,,,,,,,
,,,,,WIN24_059,21,F,2024-02-13_14h02.31.522,jersey_experiment_5,2023.2.2,Win32,85.47008547,,,,,,,,,,,,,,,,769.3439,770.638,770.638,771.2613,return,0.0989,,31.90104167,,,,,,FBP-YG-18.png,0.37,1.2,37,0.5,,,,,,,,,,,,,,,,,,0,56,56,36,1,,,,,,,,,,,,,,,,,,,,,,,
,,,,,WIN24_059,21,F,2024-02-13_14h02.31.522,jersey_experiment_5,2023.2.2,Win32,85.47008547,,,,,,,,,,,,,,,,771.2614,773.0616,773.0616,774.0615,return,0.5793,,30.078125,,,,,,FBP-PT-81.png,0.35,1.2,51,1,,,,,,,,,,,,,,,,,,0,57,57,50,1,,,,,,,,,,,,,,,,,,,,,,,
,,,,,WIN24_059,21,F,2024-02-13_14h02.31.522,jersey_experiment_5,2023.2.2,Win32,85.47008547,,,,,,,,,,,,,,,,774.0616,775.8615,775.8616,776.6028,return,0.0401,,28.25520833,,,,,,FBP-OG-18.png,0.37,1.2,7,1,,,,,,,,,,,,,,,,,,0,58,58,6,1,,,,,,,,,,,,,,,,,,,,,,,
,,,,,WIN24_059,21,F,2024-02-13_14h02.31.522,jersey_experiment_5,2023.2.2,Win32,85.47008547,,,,,,,,,,,,,,,,776.6029,777.8968,777.8969,778.6381,return,0.0968,,28.25520833,,,,,,FBP-YG-17.png,0.37,1.2,32,0.5,,,,,,,,,,,,,,,,,,0,59,59,31,1,,,,,,,,,,,,,,,,,,,,,,,
,,,,,WIN24_059,21,F,2024-02-13_14h02.31.522,jersey_experiment_5,2023.2.2,Win32,85.47008547,,,,,,,,,,,,,,,,,,,,,,,,,,,,,,,,,,,,,,,,,,,,,,,,,,,,,,,,778.6385,782.0149,return,3.3673,,,,,,,,,,,,,,,,,,,
,,,,,WIN24_059,21,F,2024-02-13_14h02.31.522,jersey_experiment_5,2023.2.2,Win32,85.47008547,,,,,,,,,,,,,,,,,,,,,,,,,,,,,,,,,,,,,,,,,,,,,,,,,,,,,,,,,,,,,782.015,786.0268,1,3.0218,return,0.9709,,,,,,,,,,,,
,,,,,WIN24_059,21,F,2024-02-13_14h02.31.522,jersey_experiment_5,2023.2.2,Win32,85.47008547,,,,,,,,,,,,,,,,,,,,,,,,,,,,,,,,,,,,,,,,,,,,,,,,,,,,,,,,,,,,,,,,,,,,786.027,806.0209,I think it was about how color may affect our perception of the visual stimuli,right,15.6028,,,,,,
,,,,,WIN24_059,21,F,2024-02-13_14h02.31.522,jersey_experiment_5,2023.2.2,Win32,85.47008547,,,,,,,,,,,,,,,,,,,,,,,,,,,,,,,,,,,,,,,,,,,,,,,,,,,,,,,,,,,,,,,,,,,,,,,,,,806.021,808.1568,return,2.1287,