requirements.started,requirements.stopped,key_resp_3.keys,key_resp_3.rt,key_resp_3.duration,Subject ID,Age,Gender,date,expName,psychopyVersion,OS,frameRate,instructions1.started,instructions1.stopped,key_resp.keys,key_resp.rt,key_resp.duration,example.started,example.stopped,enter_2.keys,enter_2.rt,enter_2.duration,instructions2.started,instructions2.stopped,enter_3.keys,enter_3.rt,enter_3.duration,image.started,image.stopped,slider_2.started,slider_2.stopped,next.keys,next.rt,next.duration,slider.response,trial_block_1.thisRepN,trial_block_1.thisTrialN,trial_block_1.thisN,trial_block_1.thisIndex,trial_block_1.ran,Path,Width,Height,Index,Duration,trial_block_2.thisRepN,trial_block_2.thisTrialN,trial_block_2.thisN,trial_block_2.thisIndex,trial_block_2.ran,rest_break.started,rest_break.stopped,end_break.started,end_break.stopped,key_resp_5.keys,key_resp_5.rt,key_resp_5.duration,trial_block_3.thisRepN,trial_block_3.thisTrialN,trial_block_3.thisN,trial_block_3.thisIndex,trial_block_3.ran,trial_block_4.thisRepN,trial_block_4.thisTrialN,trial_block_4.thisN,trial_block_4.thisIndex,trial_block_4.ran,questions_intro.started,questions_intro.stopped,enter_12.keys,enter_12.rt,enter_12.duration,question2.started,question2.stopped,question_doingbest.response,question_doingbest.rt,enter_15.keys,enter_15.rt,enter_15.duration,pattern.started,pattern.stopped,pattern_2.text,enter_17.keys,enter_17.rt,enter_17.duration,thankyou.started,thankyou.stopped,enter_14.keys,enter_14.rt,enter_14.duration
1E-04,10.0962,return,10.0913,,WIN24_005,18,female,2024-01-25_13h35.03.218,jersey_experiment_5,2023.2.2,Win32,86.20689655,,,,,,,,,,,,,,,,,,,,,,,,,,,,,,,,,,,,,,,,,,,,,,,,,,,,,,,,,,,,,,,,,,,,,,,,,,,,,,
,,,,,WIN24_005,18,female,2024-01-25_13h35.03.218,jersey_experiment_5,2023.2.2,Win32,86.20689655,10.0964,15.8161,return,5.7075,,,,,,,,,,,,,,,,,,,,,,,,,,,,,,,,,,,,,,,,,,,,,,,,,,,,,,,,,,,,,,,,,,,,,,,,,,
,,,,,WIN24_005,18,female,2024-01-25_13h35.03.218,jersey_experiment_5,2023.2.2,Win32,86.20689655,,,,,,15.8162,19.2869,return,3.4313,,,,,,,,,,,,,,,,,,,,,,,,,,,,,,,,,,,,,,,,,,,,,,,,,,,,,,,,,,,,,,,,,,,,,
,,,,,WIN24_005,18,female,2024-01-25_13h35.03.218,jersey_experiment_5,2023.2.2,Win32,86.20689655,,,,,,,,,,,19.2869,80.9951,return,61.6913,,,,,,,,,,,,,,,,,,,,,,,,,,,,,,,,,,,,,,,,,,,,,,,,,,,,,,,,,,,,,,,,
,,,,,WIN24_005,18,female,2024-01-25_13h35.03.218,jersey_experiment_5,2023.2.2,Win32,86.20689655,,,,,,,,,,,,,,,,81.0021,82.3055,82.3055,100.3248,return,2.876,,24.86979167,0,0,0,0,1,FBP-OG-71.png,0.35,1.2,1,0.5,,,,,,,,,,,,,,,,,,,,,,,,,,,,,,,,,,,,,,,,,,,,,
,,,,,WIN24_005,18,female,2024-01-25_13h35.03.218,jersey_experiment_5,2023.2.2,Win32,86.20689655,,,,,,,,,,,,,,,,100.3293,101.6307,101.6308,105.1603,return,1.261,,75.26041667,0,1,1,54,1,FBP-PT-18.png,0.45,1.2,55,0.5,,,,,,,,,,,,,,,,,,,,,,,,,,,,,,,,,,,,,,,,,,,,,
,,,,,WIN24_005,18,female,2024-01-25_13h35.03.218,jersey_experiment_5,2023.2.2,Win32,86.20689655,,,,,,,,,,,,,,,,105.1606,106.9604,106.9604,114.5725,return,1.12,,74.86979167,0,2,2,17,1,FBP-RB-17.png,0.4,1.2,18,1,,,,,,,,,,,,,,,,,,,,,,,,,,,,,,,,,,,,,,,,,,,,,
,,,,,WIN24_005,18,female,2024-01-25_13h35.03.218,jersey_experiment_5,2023.2.2,Win32,86.20689655,,,,,,,,,,,,,,,,114.5727,116.3724,116.3724,121.7728,return,1.4733,,74.73958333,0,3,3,38,1,FBP-YG-81.png,0.43,1.2,39,1,,,,,,,,,,,,,,,,,,,,,,,,,,,,,,,,,,,,,,,,,,,,,
,,,,,WIN24_005,18,female,2024-01-25_13h35.03.218,jersey_experiment_5,2023.2.2,Win32,86.20689655,,,,,,,,,,,,,,,,121.7729,123.0669,123.0669,127.3494,return,1.4147,,99.47916667,0,4,4,9,1,FBP-OG-81.png,0.45,1.2,10,0.5,,,,,,,,,,,,,,,,,,,,,,,,,,,,,,,,,,,,,,,,,,,,,
,,,,,WIN24_005,18,female,2024-01-25_13h35.03.218,jersey_experiment_5,2023.2.2,Win32,86.20689655,,,,,,,,,,,,,,,,127.3496,128.6435,128.6435,131.9377,return,0.7134,,75.26041667,0,5,5,52,1,FBP-PT-18.png,0.4,1.2,53,0.5,,,,,,,,,,,,,,,,,,,,,,,,,,,,,,,,,,,,,,,,,,,,,
,,,,,WIN24_005,18,female,2024-01-25_13h35.03.218,jersey_experiment_5,2023.2.2,Win32,86.20689655,,,,,,,,,,,,,,,,131.938,133.232,133.232,136.8202,return,0.6742,,50,0,6,6,5,1,FBP-OG-81.png,0.35,1.2,6,0.5,,,,,,,,,,,,,,,,,,,,,,,,,,,,,,,,,,,,,,,,,,,,,
,,,,,WIN24_005,18,female,2024-01-25_13h35.03.218,jersey_experiment_5,2023.2.2,Win32,86.20689655,,,,,,,,,,,,,,,,136.8206,138.6203,138.6203,140.4674,return,0.6657,,50,0,7,7,32,1,FBP-YG-71.png,0.4,1.2,33,1,,,,,,,,,,,,,,,,,,,,,,,,,,,,,,,,,,,,,,,,,,,,,
,,,,,WIN24_005,18,female,2024-01-25_13h35.03.218,jersey_experiment_5,2023.2.2,Win32,86.20689655,,,,,,,,,,,,,,,,140.4676,141.7615,141.7615,145.3029,return,1.1444,,99.609375,0,8,8,2,1,FBP-OG-71.png,0.4,1.2,3,0.5,,,,,,,,,,,,,,,,,,,,,,,,,,,,,,,,,,,,,,,,,,,,,
,,,,,WIN24_005,18,female,2024-01-25_13h35.03.218,jersey_experiment_5,2023.2.2,Win32,86.20689655,,,,,,,,,,,,,,,,145.3031,146.5971,146.5971,149.0678,return,0.8844,,74.08854167,0,9,9,47,1,FBP-PT-17.png,0.4,1.2,48,0.5,,,,,,,,,,,,,,,,,,,,,,,,,,,,,,,,,,,,,,,,,,,,,
,,,,,WIN24_005,18,female,2024-01-25_13h35.03.218,jersey_experiment_5,2023.2.2,Win32,86.20689655,,,,,,,,,,,,,,,,149.0681,150.8678,150.8678,152.2796,return,0.5772,,74.34895833,0,10,10,23,1,FBP-RB-18.png,0.43,1.2,24,1,,,,,,,,,,,,,,,,,,,,,,,,,,,,,,,,,,,,,,,,,,,,,
,,,,,WIN24_005,18,female,2024-01-25_13h35.03.218,jersey_experiment_5,2023.2.2,Win32,86.20689655,,,,,,,,,,,,,,,,152.2799,154.0797,154.0797,155.9622,return,0.602,,75.91145833,0,11,11,33,1,FBP-YG-71.png,0.43,1.2,34,1,,,,,,,,,,,,,,,,,,,,,,,,,,,,,,,,,,,,,,,,,,,,,
,,,,,WIN24_005,18,female,2024-01-25_13h35.03.218,jersey_experiment_5,2023.2.2,Win32,86.20689655,,,,,,,,,,,,,,,,155.9623,157.7622,157.7622,159.3622,return,0.7,,50.65104167,0,12,12,26,1,FBP-RB-19.png,0.37,1.2,27,1,,,,,,,,,,,,,,,,,,,,,,,,,,,,,,,,,,,,,,,,,,,,,
,,,,,WIN24_005,18,female,2024-01-25_13h35.03.218,jersey_experiment_5,2023.2.2,Win32,86.20689655,,,,,,,,,,,,,,,,159.3624,161.1622,161.1623,163.033,return,0.6364,,99.21875,0,13,13,24,1,FBP-RB-18.png,0.45,1.2,25,1,,,,,,,,,,,,,,,,,,,,,,,,,,,,,,,,,,,,,,,,,,,,,
,,,,,WIN24_005,18,female,2024-01-25_13h35.03.218,jersey_experiment_5,2023.2.2,Win32,86.20689655,,,,,,,,,,,,,,,,163.0332,164.833,164.8331,166.586,return,0.5413,,49.73958333,0,14,14,37,1,FBP-YG-81.png,0.4,1.2,38,1,,,,,,,,,,,,,,,,,,,,,,,,,,,,,,,,,,,,,,,,,,,,,
,,,,,WIN24_005,18,female,2024-01-25_13h35.03.218,jersey_experiment_5,2023.2.2,Win32,86.20689655,,,,,,,,,,,,,,,,166.5862,167.8802,167.8802,169.339,return,0.6586,,49.73958333,0,15,15,57,1,FBP-PT-19.png,0.4,1.2,58,0.5,,,,,,,,,,,,,,,,,,,,,,,,,,,,,,,,,,,,,,,,,,,,,
,,,,,WIN24_005,18,female,2024-01-25_13h35.03.218,jersey_experiment_5,2023.2.2,Win32,86.20689655,,,,,,,,,,,,,,,,169.3393,171.1392,171.1392,175.3863,return,0.6824,,74.34895833,0,16,16,43,1,FBP-YG-91.png,0.43,1.2,44,1,,,,,,,,,,,,,,,,,,,,,,,,,,,,,,,,,,,,,,,,,,,,,
,,,,,WIN24_005,18,female,2024-01-25_13h35.03.218,jersey_experiment_5,2023.2.2,Win32,86.20689655,,,,,,,,,,,,,,,,175.3866,177.1865,177.1866,180.8335,return,0.9617,,74.34895833,0,17,17,28,1,FBP-RB-19.png,0.43,1.2,29,1,,,,,,,,,,,,,,,,,,,,,,,,,,,,,,,,,,,,,,,,,,,,,
,,,,,WIN24_005,18,female,2024-01-25_13h35.03.218,jersey_experiment_5,2023.2.2,Win32,86.20689655,,,,,,,,,,,,,,,,180.8338,182.6336,182.6336,185.9397,return,1.9007,,25.13020833,0,18,18,40,1,FBP-YG-91.png,0.35,1.2,41,1,,,,,,,,,,,,,,,,,,,,,,,,,,,,,,,,,,,,,,,,,,,,,
,,,,,WIN24_005,18,female,2024-01-25_13h35.03.218,jersey_experiment_5,2023.2.2,Win32,86.20689655,,,,,,,,,,,,,,,,185.94,187.7397,187.7398,190.3281,return,0.6845,,26.04166667,0,19,19,27,1,FBP-RB-19.png,0.4,1.2,28,1,,,,,,,,,,,,,,,,,,,,,,,,,,,,,,,,,,,,,,,,,,,,,
,,,,,WIN24_005,18,female,2024-01-25_13h35.03.218,jersey_experiment_5,2023.2.2,Win32,86.20689655,,,,,,,,,,,,,,,,190.3283,191.6221,191.6222,194.1519,return,0.6024,,49.609375,0,20,20,13,1,FBP-OG-91.png,0.43,1.2,14,0.5,,,,,,,,,,,,,,,,,,,,,,,,,,,,,,,,,,,,,,,,,,,,,
,,,,,WIN24_005,18,female,2024-01-25_13h35.03.218,jersey_experiment_5,2023.2.2,Win32,86.20689655,,,,,,,,,,,,,,,,194.152,195.9518,195.9519,197.7049,return,0.7063,,49.609375,0,21,21,42,1,FBP-YG-91.png,0.4,1.2,43,1,,,,,,,,,,,,,,,,,,,,,,,,,,,,,,,,,,,,,,,,,,,,,
,,,,,WIN24_005,18,female,2024-01-25_13h35.03.218,jersey_experiment_5,2023.2.2,Win32,86.20689655,,,,,,,,,,,,,,,,197.7051,198.999,198.9991,202.3874,return,0.701,,75.26041667,0,22,22,14,1,FBP-OG-91.png,0.45,1.2,15,0.5,,,,,,,,,,,,,,,,,,,,,,,,,,,,,,,,,,,,,,,,,,,,,
,,,,,WIN24_005,18,female,2024-01-25_13h35.03.218,jersey_experiment_5,2023.2.2,Win32,86.20689655,,,,,,,,,,,,,,,,202.3875,203.6815,203.6815,206.6346,return,0.6354,,51.04166667,0,23,23,3,1,FBP-OG-71.png,0.43,1.2,4,0.5,,,,,,,,,,,,,,,,,,,,,,,,,,,,,,,,,,,,,,,,,,,,,
,,,,,WIN24_005,18,female,2024-01-25_13h35.03.218,jersey_experiment_5,2023.2.2,Win32,86.20689655,,,,,,,,,,,,,,,,206.6348,208.4348,208.4349,211.3641,return,2.0769,,24.21875,0,24,24,36,1,FBP-YG-81.png,0.37,1.2,37,1,,,,,,,,,,,,,,,,,,,,,,,,,,,,,,,,,,,,,,,,,,,,,
,,,,,WIN24_005,18,female,2024-01-25_13h35.03.218,jersey_experiment_5,2023.2.2,Win32,86.20689655,,,,,,,,,,,,,,,,211.3642,213.1642,213.1642,216.435,return,1.7942,,73.56770833,0,25,25,39,1,FBP-YG-81.png,0.45,1.2,40,1,,,,,,,,,,,,,,,,,,,,,,,,,,,,,,,,,,,,,,,,,,,,,
,,,,,WIN24_005,18,female,2024-01-25_13h35.03.218,jersey_experiment_5,2023.2.2,Win32,86.20689655,,,,,,,,,,,,,,,,216.4351,217.7291,217.7291,220.235,return,0.5889,,73.56770833,0,26,26,49,1,FBP-PT-17.png,0.45,1.2,50,0.5,,,,,,,,,,,,,,,,,,,,,,,,,,,,,,,,,,,,,,,,,,,,,
,,,,,WIN24_005,18,female,2024-01-25_13h35.03.218,jersey_experiment_5,2023.2.2,Win32,86.20689655,,,,,,,,,,,,,,,,220.2352,221.5291,221.5292,224.4588,return,1.0592,,24.21875,0,27,27,51,1,FBP-PT-18.png,0.37,1.2,52,0.5,,,,,,,,,,,,,,,,,,,,,,,,,,,,,,,,,,,,,,,,,,,,,
,,,,,WIN24_005,18,female,2024-01-25_13h35.03.218,jersey_experiment_5,2023.2.2,Win32,86.20689655,,,,,,,,,,,,,,,,224.4591,225.7529,225.7529,228.153,return,0.697,,0.260416667,0,28,28,50,1,FBP-PT-18.png,0.35,1.2,51,0.5,,,,,,,,,,,,,,,,,,,,,,,,,,,,,,,,,,,,,,,,,,,,,
,,,,,WIN24_005,18,female,2024-01-25_13h35.03.218,jersey_experiment_5,2023.2.2,Win32,86.20689655,,,,,,,,,,,,,,,,228.1532,229.4471,229.4473,233.7532,return,1.9439,,73.95833333,0,29,29,58,1,FBP-PT-19.png,0.43,1.2,59,0.5,,,,,,,,,,,,,,,,,,,,,,,,,,,,,,,,,,,,,,,,,,,,,
,,,,,WIN24_005,18,female,2024-01-25_13h35.03.218,jersey_experiment_5,2023.2.2,Win32,86.20689655,,,,,,,,,,,,,,,,233.7536,235.0473,235.0473,237.1887,return,0.6997,,23.95833333,0,30,30,10,1,FBP-OG-91.png,0.35,1.2,11,0.5,,,,,,,,,,,,,,,,,,,,,,,,,,,,,,,,,,,,,,,,,,,,,
,,,,,WIN24_005,18,female,2024-01-25_13h35.03.218,jersey_experiment_5,2023.2.2,Win32,86.20689655,,,,,,,,,,,,,,,,237.1889,238.9886,238.9886,240.3533,return,0.7851,,23.95833333,0,31,31,21,1,FBP-RB-18.png,0.37,1.2,22,1,,,,,,,,,,,,,,,,,,,,,,,,,,,,,,,,,,,,,,,,,,,,,
,,,,,WIN24_005,18,female,2024-01-25_13h35.03.218,jersey_experiment_5,2023.2.2,Win32,86.20689655,,,,,,,,,,,,,,,,240.3536,242.1535,242.1536,252.8363,return,1.6408,,50.390625,0,32,32,34,1,FBP-YG-71.png,0.45,1.2,35,1,,,,,,,,,,,,,,,,,,,,,,,,,,,,,,,,,,,,,,,,,,,,,
,,,,,WIN24_005,18,female,2024-01-25_13h35.03.218,jersey_experiment_5,2023.2.2,Win32,86.20689655,,,,,,,,,,,,,,,,252.8364,254.1304,254.1304,257.7069,return,1.4827,,27.60416667,0,33,33,8,1,FBP-OG-81.png,0.43,1.2,9,0.5,,,,,,,,,,,,,,,,,,,,,,,,,,,,,,,,,,,,,,,,,,,,,
,,,,,WIN24_005,18,female,2024-01-25_13h35.03.218,jersey_experiment_5,2023.2.2,Win32,86.20689655,,,,,,,,,,,,,,,,257.7071,259.0011,259.0011,261.1896,return,0.7324,,99.86979167,0,34,34,59,1,FBP-PT-19.png,0.45,1.2,60,0.5,,,,,,,,,,,,,,,,,,,,,,,,,,,,,,,,,,,,,,,,,,,,,
,,,,,WIN24_005,18,female,2024-01-25_13h35.03.218,jersey_experiment_5,2023.2.2,Win32,86.20689655,,,,,,,,,,,,,,,,261.1897,262.9895,262.9895,266.6485,return,0.7201,,26.43229167,0,35,35,44,1,FBP-YG-91.png,0.45,1.2,45,1,,,,,,,,,,,,,,,,,,,,,,,,,,,,,,,,,,,,,,,,,,,,,
,,,,,WIN24_005,18,female,2024-01-25_13h35.03.218,jersey_experiment_5,2023.2.2,Win32,86.20689655,,,,,,,,,,,,,,,,266.6488,267.9427,267.9428,269.7075,return,0.8231,,26.43229167,0,36,36,46,1,FBP-PT-17.png,0.37,1.2,47,0.5,,,,,,,,,,,,,,,,,,,,,,,,,,,,,,,,,,,,,,,,,,,,,
,,,,,WIN24_005,18,female,2024-01-25_13h35.03.218,jersey_experiment_5,2023.2.2,Win32,86.20689655,,,,,,,,,,,,,,,,269.7077,271.0015,271.0016,272.8016,return,0.7949,,26.43229167,0,37,37,6,1,FBP-OG-81.png,0.37,1.2,7,0.5,,,,,,,,,,,,,,,,,,,,,,,,,,,,,,,,,,,,,,,,,,,,,
,,,,,WIN24_005,18,female,2024-01-25_13h35.03.218,jersey_experiment_5,2023.2.2,Win32,86.20689655,,,,,,,,,,,,,,,,272.8018,274.0958,274.0958,276.3076,return,0.5948,,25,0,38,38,55,1,FBP-PT-19.png,0.35,1.2,56,0.5,,,,,,,,,,,,,,,,,,,,,,,,,,,,,,,,,,,,,,,,,,,,,
,,,,,WIN24_005,18,female,2024-01-25_13h35.03.218,jersey_experiment_5,2023.2.2,Win32,86.20689655,,,,,,,,,,,,,,,,276.3079,278.1078,278.1078,279.7549,return,0.9792,,25,0,39,39,30,1,FBP-YG-71.png,0.35,1.2,31,1,,,,,,,,,,,,,,,,,,,,,,,,,,,,,,,,,,,,,,,,,,,,,
,,,,,WIN24_005,18,female,2024-01-25_13h35.03.218,jersey_experiment_5,2023.2.2,Win32,86.20689655,,,,,,,,,,,,,,,,279.7551,281.5549,281.5549,283.8844,return,0.5412,,48.95833333,0,40,40,16,1,FBP-RB-17.png,0.37,1.2,17,1,,,,,,,,,,,,,,,,,,,,,,,,,,,,,,,,,,,,,,,,,,,,,
,,,,,WIN24_005,18,female,2024-01-25_13h35.03.218,jersey_experiment_5,2023.2.2,Win32,86.20689655,,,,,,,,,,,,,,,,283.8846,285.1785,285.1785,294.5083,return,0.8714,,58.984375,0,41,41,7,1,FBP-OG-81.png,0.4,1.2,8,0.5,,,,,,,,,,,,,,,,,,,,,,,,,,,,,,,,,,,,,,,,,,,,,
,,,,,WIN24_005,18,female,2024-01-25_13h35.03.218,jersey_experiment_5,2023.2.2,Win32,86.20689655,,,,,,,,,,,,,,,,294.5086,296.3084,296.3084,298.5673,return,0.8823,,35.80729167,0,42,42,35,1,FBP-YG-81.png,0.35,1.2,36,1,,,,,,,,,,,,,,,,,,,,,,,,,,,,,,,,,,,,,,,,,,,,,
,,,,,WIN24_005,18,female,2024-01-25_13h35.03.218,jersey_experiment_5,2023.2.2,Win32,86.20689655,,,,,,,,,,,,,,,,298.5675,300.3674,300.3675,302.0263,return,0.965,,35.80729167,0,43,43,15,1,FBP-RB-17.png,0.35,1.2,16,1,,,,,,,,,,,,,,,,,,,,,,,,,,,,,,,,,,,,,,,,,,,,,
,,,,,WIN24_005,18,female,2024-01-25_13h35.03.218,jersey_experiment_5,2023.2.2,Win32,86.20689655,,,,,,,,,,,,,,,,302.0265,303.3203,303.3203,307.0617,return,2.5691,,12.890625,0,44,44,56,1,FBP-PT-19.png,0.37,1.2,57,0.5,,,,,,,,,,,,,,,,,,,,,,,,,,,,,,,,,,,,,,,,,,,,,
,,,,,WIN24_005,18,female,2024-01-25_13h35.03.218,jersey_experiment_5,2023.2.2,Win32,86.20689655,,,,,,,,,,,,,,,,307.062,308.8618,308.8619,311.0735,return,0.7131,,37.5,0,45,45,31,1,FBP-YG-71.png,0.37,1.2,32,1,,,,,,,,,,,,,,,,,,,,,,,,,,,,,,,,,,,,,,,,,,,,,
,,,,,WIN24_005,18,female,2024-01-25_13h35.03.218,jersey_experiment_5,2023.2.2,Win32,86.20689655,,,,,,,,,,,,,,,,311.0738,312.3678,312.3679,314.5678,return,1.0005,,37.5,0,46,46,1,1,FBP-OG-71.png,0.37,1.2,2,0.5,,,,,,,,,,,,,,,,,,,,,,,,,,,,,,,,,,,,,,,,,,,,,
,,,,,WIN24_005,18,female,2024-01-25_13h35.03.218,jersey_experiment_5,2023.2.2,Win32,86.20689655,,,,,,,,,,,,,,,,314.5679,316.3679,316.3679,318.121,return,0.9894,,37.5,0,47,47,41,1,FBP-YG-91.png,0.37,1.2,42,1,,,,,,,,,,,,,,,,,,,,,,,,,,,,,,,,,,,,,,,,,,,,,
,,,,,WIN24_005,18,female,2024-01-25_13h35.03.218,jersey_experiment_5,2023.2.2,Win32,86.20689655,,,,,,,,,,,,,,,,318.1212,319.9211,319.9211,322.2976,return,1.4582,,37.5,0,48,48,29,1,FBP-RB-19.png,0.45,1.2,30,1,,,,,,,,,,,,,,,,,,,,,,,,,,,,,,,,,,,,,,,,,,,,,
,,,,,WIN24_005,18,female,2024-01-25_13h35.03.218,jersey_experiment_5,2023.2.2,Win32,86.20689655,,,,,,,,,,,,,,,,322.2979,323.5917,323.5917,327.0743,return,0.8527,,63.28125,0,49,49,53,1,FBP-PT-18.png,0.43,1.2,54,0.5,,,,,,,,,,,,,,,,,,,,,,,,,,,,,,,,,,,,,,,,,,,,,
,,,,,WIN24_005,18,female,2024-01-25_13h35.03.218,jersey_experiment_5,2023.2.2,Win32,86.20689655,,,,,,,,,,,,,,,,327.0746,328.3684,328.3684,330.8743,return,0.6825,,38.80208333,0,50,50,12,1,FBP-OG-91.png,0.4,1.2,13,0.5,,,,,,,,,,,,,,,,,,,,,,,,,,,,,,,,,,,,,,,,,,,,,
,,,,,WIN24_005,18,female,2024-01-25_13h35.03.218,jersey_experiment_5,2023.2.2,Win32,86.20689655,,,,,,,,,,,,,,,,330.8745,332.6744,332.6744,334.8862,return,0.9202,,66.14583333,0,51,51,19,1,FBP-RB-17.png,0.45,1.2,20,1,,,,,,,,,,,,,,,,,,,,,,,,,,,,,,,,,,,,,,,,,,,,,
,,,,,WIN24_005,18,female,2024-01-25_13h35.03.218,jersey_experiment_5,2023.2.2,Win32,86.20689655,,,,,,,,,,,,,,,,334.8865,336.1804,336.1804,338.8746,return,0.6592,,9.505208333,0,52,52,45,1,FBP-PT-17.png,0.35,1.2,46,0.5,,,,,,,,,,,,,,,,,,,,,,,,,,,,,,,,,,,,,,,,,,,,,
,,,,,WIN24_005,18,female,2024-01-25_13h35.03.218,jersey_experiment_5,2023.2.2,Win32,86.20689655,,,,,,,,,,,,,,,,338.8748,340.1687,340.1687,342.5689,return,0.8008,,87.36979167,0,53,53,4,1,FBP-OG-71.png,0.45,1.2,5,0.5,,,,,,,,,,,,,,,,,,,,,,,,,,,,,,,,,,,,,,,,,,,,,
,,,,,WIN24_005,18,female,2024-01-25_13h35.03.218,jersey_experiment_5,2023.2.2,Win32,86.20689655,,,,,,,,,,,,,,,,342.5691,344.3688,344.3688,348.6515,return,0.6728,,44.140625,0,54,54,20,1,FBP-RB-18.png,0.35,1.2,21,1,,,,,,,,,,,,,,,,,,,,,,,,,,,,,,,,,,,,,,,,,,,,,
,,,,,WIN24_005,18,female,2024-01-25_13h35.03.218,jersey_experiment_5,2023.2.2,Win32,86.20689655,,,,,,,,,,,,,,,,348.6517,349.9456,349.9457,352.6633,return,0.6704,,7.03125,0,55,55,11,1,FBP-OG-91.png,0.37,1.2,12,0.5,,,,,,,,,,,,,,,,,,,,,,,,,,,,,,,,,,,,,,,,,,,,,
,,,,,WIN24_005,18,female,2024-01-25_13h35.03.218,jersey_experiment_5,2023.2.2,Win32,86.20689655,,,,,,,,,,,,,,,,352.6637,354.4635,354.4635,357.4164,return,0.7877,,42.70833333,0,56,56,25,1,FBP-RB-19.png,0.35,1.2,26,1,,,,,,,,,,,,,,,,,,,,,,,,,,,,,,,,,,,,,,,,,,,,,
,,,,,WIN24_005,18,female,2024-01-25_13h35.03.218,jersey_experiment_5,2023.2.2,Win32,86.20689655,,,,,,,,,,,,,,,,357.4167,358.7106,358.7106,363.7812,return,0.8633,,62.23958333,0,57,57,48,1,FBP-PT-17.png,0.43,1.2,49,0.5,,,,,,,,,,,,,,,,,,,,,,,,,,,,,,,,,,,,,,,,,,,,,
,,,,,WIN24_005,18,female,2024-01-25_13h35.03.218,jersey_experiment_5,2023.2.2,Win32,86.20689655,,,,,,,,,,,,,,,,363.7813,365.5814,365.5815,374.2641,return,1.2828,,62.109375,0,58,58,22,1,FBP-RB-18.png,0.4,1.2,23,1,,,,,,,,,,,,,,,,,,,,,,,,,,,,,,,,,,,,,,,,,,,,,
,,,,,WIN24_005,18,female,2024-01-25_13h35.03.218,jersey_experiment_5,2023.2.2,Win32,86.20689655,,,,,,,,,,,,,,,,374.2644,376.0642,376.0642,378.2173,return,0.6591,,80.078125,0,59,59,18,1,FBP-RB-17.png,0.43,1.2,19,1,,,,,,,,,,,,,,,,,,,,,,,,,,,,,,,,,,,,,,,,,,,,,
,,,,,WIN24_005,18,female,2024-01-25_13h35.03.218,jersey_experiment_5,2023.2.2,Win32,86.20689655,,,,,,,,,,,,,,,,378.2193,380.0172,380.0172,381.0761,return,0.5219,,80.078125,,,,,,FBP-RB-81.png,0.45,1.2,25,1,0,0,0,24,1,,,,,,,,,,,,,,,,,,,,,,,,,,,,,,,,,,,,,,,,
,,,,,WIN24_005,18,female,2024-01-25_13h35.03.218,jersey_experiment_5,2023.2.2,Win32,86.20689655,,,,,,,,,,,,,,,,381.0765,382.3703,382.3703,384.2173,return,0.9752,,80.078125,,,,,,FBP-PT-71.png,0.45,1.2,50,0.5,0,1,1,49,1,,,,,,,,,,,,,,,,,,,,,,,,,,,,,,,,,,,,,,,,
,,,,,WIN24_005,18,female,2024-01-25_13h35.03.218,jersey_experiment_5,2023.2.2,Win32,86.20689655,,,,,,,,,,,,,,,,384.2176,385.5115,385.5116,387.9116,return,0.5434,,94.66145833,,,,,,FBP-OG-18.png,0.45,1.2,10,0.5,0,2,2,9,1,,,,,,,,,,,,,,,,,,,,,,,,,,,,,,,,,,,,,,,,
,,,,,WIN24_005,18,female,2024-01-25_13h35.03.218,jersey_experiment_5,2023.2.2,Win32,86.20689655,,,,,,,,,,,,,,,,387.9118,389.7118,389.7118,392.0177,return,0.6172,,10.15625,,,,,,FBP-RB-81.png,0.35,1.2,21,1,0,3,3,20,1,,,,,,,,,,,,,,,,,,,,,,,,,,,,,,,,,,,,,,,,
,,,,,WIN24_005,18,female,2024-01-25_13h35.03.218,jersey_experiment_5,2023.2.2,Win32,86.20689655,,,,,,,,,,,,,,,,392.0179,393.3119,393.3119,400.618,return,1.5401,,67.70833333,,,,,,FBP-PT-71.png,0.43,1.2,49,0.5,0,4,4,48,1,,,,,,,,,,,,,,,,,,,,,,,,,,,,,,,,,,,,,,,,
,,,,,WIN24_005,18,female,2024-01-25_13h35.03.218,jersey_experiment_5,2023.2.2,Win32,86.20689655,,,,,,,,,,,,,,,,400.6183,402.4181,402.4181,405.6889,return,0.6825,,28.25520833,,,,,,FBP-YG-18.png,0.35,1.2,36,1,0,5,5,35,1,,,,,,,,,,,,,,,,,,,,,,,,,,,,,,,,,,,,,,,,
,,,,,WIN24_005,18,female,2024-01-25_13h35.03.218,jersey_experiment_5,2023.2.2,Win32,86.20689655,,,,,,,,,,,,,,,,405.689,406.983,406.983,408.4182,return,0.5469,,29.296875,,,,,,FBP-PT-91.png,0.37,1.2,57,0.5,0,6,6,56,1,,,,,,,,,,,,,,,,,,,,,,,,,,,,,,,,,,,,,,,,
,,,,,WIN24_005,18,female,2024-01-25_13h35.03.218,jersey_experiment_5,2023.2.2,Win32,86.20689655,,,,,,,,,,,,,,,,408.4184,409.7125,409.7125,416.1714,return,4.0471,,58.85416667,,,,,,FBP-OG-19.png,0.43,1.2,14,0.5,0,7,7,13,1,,,,,,,,,,,,,,,,,,,,,,,,,,,,,,,,,,,,,,,,
,,,,,WIN24_005,18,female,2024-01-25_13h35.03.218,jersey_experiment_5,2023.2.2,Win32,86.20689655,,,,,,,,,,,,,,,,416.1716,417.9716,417.9716,421.0892,return,0.6069,,46.74479167,,,,,,FBP-RB-91.png,0.4,1.2,28,1,0,8,8,27,1,,,,,,,,,,,,,,,,,,,,,,,,,,,,,,,,,,,,,,,,
,,,,,WIN24_005,18,female,2024-01-25_13h35.03.218,jersey_experiment_5,2023.2.2,Win32,86.20689655,,,,,,,,,,,,,,,,421.0895,422.3835,422.3835,424.6659,return,0.6355,,12.5,,,,,,FBP-OG-17.png,0.35,1.2,1,0.5,0,9,9,0,1,,,,,,,,,,,,,,,,,,,,,,,,,,,,,,,,,,,,,,,,
,,,,,WIN24_005,18,female,2024-01-25_13h35.03.218,jersey_experiment_5,2023.2.2,Win32,86.20689655,,,,,,,,,,,,,,,,424.6662,426.466,426.466,428.8191,return,0.442,,80.20833333,,,,,,FBP-RB-71.png,0.45,1.2,20,1,0,10,10,19,1,,,,,,,,,,,,,,,,,,,,,,,,,,,,,,,,,,,,,,,,
,,,,,WIN24_005,18,female,2024-01-25_13h35.03.218,jersey_experiment_5,2023.2.2,Win32,86.20689655,,,,,,,,,,,,,,,,428.8193,430.6192,430.6192,435.5957,return,3.4726,,55.98958333,,,,,,FBP-RB-71.png,0.37,1.2,17,1,0,11,11,16,1,,,,,,,,,,,,,,,,,,,,,,,,,,,,,,,,,,,,,,,,
,,,,,WIN24_005,18,female,2024-01-25_13h35.03.218,jersey_experiment_5,2023.2.2,Win32,86.20689655,,,,,,,,,,,,,,,,435.5999,437.3957,437.3957,439.0783,return,0.3918,,55.98958333,,,,,,FBP-YG-18.png,0.37,1.2,37,1,0,12,12,36,1,,,,,,,,,,,,,,,,,,,,,,,,,,,,,,,,,,,,,,,,
,,,,,WIN24_005,18,female,2024-01-25_13h35.03.218,jersey_experiment_5,2023.2.2,Win32,86.20689655,,,,,,,,,,,,,,,,439.0786,440.3724,440.3724,442.396,return,0.6731,,28.38541667,,,,,,FBP-PT-91.png,0.35,1.2,56,0.5,0,13,13,55,1,,,,,,,,,,,,,,,,,,,,,,,,,,,,,,,,,,,,,,,,
,,,,,WIN24_005,18,female,2024-01-25_13h35.03.218,jersey_experiment_5,2023.2.2,Win32,86.20689655,,,,,,,,,,,,,,,,442.3962,444.196,444.196,445.8314,return,0.4473,,3.385416667,,,,,,FBP-YG-19.png,0.35,1.2,41,1,0,14,14,40,1,,,,,,,,,,,,,,,,,,,,,,,,,,,,,,,,,,,,,,,,
,,,,,WIN24_005,18,female,2024-01-25_13h35.03.218,jersey_experiment_5,2023.2.2,Win32,86.20689655,,,,,,,,,,,,,,,,445.8317,447.6315,447.6315,449.4433,return,0.4537,,89.32291667,,,,,,FBP-RB-91.png,0.45,1.2,30,1,0,15,15,29,1,,,,,,,,,,,,,,,,,,,,,,,,,,,,,,,,,,,,,,,,
,,,,,WIN24_005,18,female,2024-01-25_13h35.03.218,jersey_experiment_5,2023.2.2,Win32,86.20689655,,,,,,,,,,,,,,,,449.4435,451.2434,451.2434,452.2785,return,0.6131,,89.32291667,,,,,,FBP-YG-19.png,0.4,1.2,43,1,0,16,16,42,1,,,,,,,,,,,,,,,,,,,,,,,,,,,,,,,,,,,,,,,,
,,,,,WIN24_005,18,female,2024-01-25_13h35.03.218,jersey_experiment_5,2023.2.2,Win32,86.20689655,,,,,,,,,,,,,,,,452.2788,453.5729,453.5729,454.8905,return,0.5651,,80.72916667,,,,,,FBP-OG-17.png,0.43,1.2,4,0.5,0,17,17,3,1,,,,,,,,,,,,,,,,,,,,,,,,,,,,,,,,,,,,,,,,
,,,,,WIN24_005,18,female,2024-01-25_13h35.03.218,jersey_experiment_5,2023.2.2,Win32,86.20689655,,,,,,,,,,,,,,,,454.8907,456.1848,456.1848,457.3965,return,0.4292,,80.20833333,,,,,,FBP-OG-19.png,0.4,1.2,13,0.5,0,18,18,12,1,,,,,,,,,,,,,,,,,,,,,,,,,,,,,,,,,,,,,,,,
,,,,,WIN24_005,18,female,2024-01-25_13h35.03.218,jersey_experiment_5,2023.2.2,Win32,86.20689655,,,,,,,,,,,,,,,,457.3967,459.1966,459.1966,464.5614,return,0.7117,,8.203125,,,,,,FBP-RB-91.png,0.37,1.2,27,1,0,19,19,26,1,,,,,,,,,,,,,,,,,,,,,,,,,,,,,,,,,,,,,,,,
,,,,,WIN24_005,18,female,2024-01-25_13h35.03.218,jersey_experiment_5,2023.2.2,Win32,86.20689655,,,,,,,,,,,,,,,,464.5616,465.8556,465.8556,471.1617,return,0.6355,,11.45833333,,,,,,FBP-PT-81.png,0.4,1.2,53,0.5,0,20,20,52,1,,,,,,,,,,,,,,,,,,,,,,,,,,,,,,,,,,,,,,,,
,,,,,WIN24_005,18,female,2024-01-25_13h35.03.218,jersey_experiment_5,2023.2.2,Win32,86.20689655,,,,,,,,,,,,,,,,471.1619,472.4559,472.4559,475.5737,return,1.1454,,11.45833333,,,,,,FBP-OG-17.png,0.4,1.2,3,0.5,0,21,21,2,1,,,,,,,,,,,,,,,,,,,,,,,,,,,,,,,,,,,,,,,,
,,,,,WIN24_005,18,female,2024-01-25_13h35.03.218,jersey_experiment_5,2023.2.2,Win32,86.20689655,,,,,,,,,,,,,,,,475.5739,477.3738,477.3738,479.9738,return,0.9101,,0.130208333,,,,,,FBP-RB-71.png,0.35,1.2,16,1,0,22,22,15,1,,,,,,,,,,,,,,,,,,,,,,,,,,,,,,,,,,,,,,,,
,,,,,WIN24_005,18,female,2024-01-25_13h35.03.218,jersey_experiment_5,2023.2.2,Win32,86.20689655,,,,,,,,,,,,,,,,479.974,481.774,481.774,483.5386,return,0.5121,,56.640625,,,,,,FBP-RB-91.png,0.43,1.2,29,1,0,23,23,28,1,,,,,,,,,,,,,,,,,,,,,,,,,,,,,,,,,,,,,,,,
,,,,,WIN24_005,18,female,2024-01-25_13h35.03.218,jersey_experiment_5,2023.2.2,Win32,86.20689655,,,,,,,,,,,,,,,,483.5388,484.8328,484.8329,488.8683,return,0.7331,,16.14583333,,,,,,FBP-OG-19.png,0.35,1.2,11,0.5,0,24,24,10,1,,,,,,,,,,,,,,,,,,,,,,,,,,,,,,,,,,,,,,,,
,,,,,WIN24_005,18,female,2024-01-25_13h35.03.218,jersey_experiment_5,2023.2.2,Win32,86.20689655,,,,,,,,,,,,,,,,488.8686,490.1624,490.1624,495.2214,return,3.3204,,71.484375,,,,,,FBP-OG-18.png,0.43,1.2,9,0.5,0,25,25,8,1,,,,,,,,,,,,,,,,,,,,,,,,,,,,,,,,,,,,,,,,
,,,,,WIN24_005,18,female,2024-01-25_13h35.03.218,jersey_experiment_5,2023.2.2,Win32,86.20689655,,,,,,,,,,,,,,,,495.2217,497.0215,497.0215,503.0923,return,0.9319,,61.19791667,,,,,,FBP-YG-19.png,0.37,1.2,42,1,0,26,26,41,1,,,,,,,,,,,,,,,,,,,,,,,,,,,,,,,,,,,,,,,,
,,,,,WIN24_005,18,female,2024-01-25_13h35.03.218,jersey_experiment_5,2023.2.2,Win32,86.20689655,,,,,,,,,,,,,,,,503.0925,504.8924,504.8924,506.7395,return,0.6286,,97.39583333,,,,,,FBP-YG-18.png,0.43,1.2,39,1,0,27,27,38,1,,,,,,,,,,,,,,,,,,,,,,,,,,,,,,,,,,,,,,,,
,,,,,WIN24_005,18,female,2024-01-25_13h35.03.218,jersey_experiment_5,2023.2.2,Win32,86.20689655,,,,,,,,,,,,,,,,506.7397,508.0337,508.0337,509.5394,return,0.6985,,97.65625,,,,,,FBP-OG-17.png,0.45,1.2,5,0.5,0,28,28,4,1,,,,,,,,,,,,,,,,,,,,,,,,,,,,,,,,,,,,,,,,
,,,,,WIN24_005,18,female,2024-01-25_13h35.03.218,jersey_experiment_5,2023.2.2,Win32,86.20689655,,,,,,,,,,,,,,,,509.5397,510.8337,510.8338,512.1398,return,0.5421,,97.91666667,,,,,,FBP-PT-91.png,0.43,1.2,59,0.5,0,29,29,58,1,,,,,,,,,,,,,,,,,,,,,,,,,,,,,,,,,,,,,,,,
,,,,,WIN24_005,18,female,2024-01-25_13h35.03.218,jersey_experiment_5,2023.2.2,Win32,86.20689655,,,,,,,,,,,,,,,,512.1399,513.9397,513.9397,516.9869,return,0.65,,94.53125,,,,,,FBP-YG-17.png,0.35,1.2,31,1,0,30,30,30,1,,,,,,,,,,,,,,,,,,,,,,,,,,,,,,,,,,,,,,,,
,,,,,WIN24_005,18,female,2024-01-25_13h35.03.218,jersey_experiment_5,2023.2.2,Win32,86.20689655,,,,,,,,,,,,,,,,516.9872,518.787,518.787,520.54,return,0.5176,,99.08854167,,,,,,FBP-YG-18.png,0.45,1.2,40,1,0,31,31,39,1,,,,,,,,,,,,,,,,,,,,,,,,,,,,,,,,,,,,,,,,
,,,,,WIN24_005,18,female,2024-01-25_13h35.03.218,jersey_experiment_5,2023.2.2,Win32,86.20689655,,,,,,,,,,,,,,,,520.5402,521.8342,521.8342,524.5166,return,0.5813,,28.125,,,,,,FBP-OG-17.png,0.37,1.2,2,0.5,0,32,32,1,1,,,,,,,,,,,,,,,,,,,,,,,,,,,,,,,,,,,,,,,,
,,,,,WIN24_005,18,female,2024-01-25_13h35.03.218,jersey_experiment_5,2023.2.2,Win32,86.20689655,,,,,,,,,,,,,,,,524.5168,526.3167,526.3167,530.3402,return,0.5935,,64.97395833,,,,,,FBP-RB-81.png,0.43,1.2,24,1,0,33,33,23,1,,,,,,,,,,,,,,,,,,,,,,,,,,,,,,,,,,,,,,,,
,,,,,WIN24_005,18,female,2024-01-25_13h35.03.218,jersey_experiment_5,2023.2.2,Win32,86.20689655,,,,,,,,,,,,,,,,530.3403,532.1403,532.1403,537.0348,return,0.6264,,81.38020833,,,,,,FBP-YG-19.png,0.45,1.2,45,1,0,34,34,44,1,,,,,,,,,,,,,,,,,,,,,,,,,,,,,,,,,,,,,,,,
,,,,,WIN24_005,18,female,2024-01-25_13h35.03.218,jersey_experiment_5,2023.2.2,Win32,86.20689655,,,,,,,,,,,,,,,,537.0349,538.3289,538.3289,540.7878,return,0.534,,91.796875,,,,,,FBP-PT-71.png,0.35,1.2,46,0.5,0,35,35,45,1,,,,,,,,,,,,,,,,,,,,,,,,,,,,,,,,,,,,,,,,
,,,,,WIN24_005,18,female,2024-01-25_13h35.03.218,jersey_experiment_5,2023.2.2,Win32,86.20689655,,,,,,,,,,,,,,,,540.7879,542.0818,542.0819,545.3289,return,0.4321,,64.0625,,,,,,FBP-OG-19.png,0.37,1.2,12,0.5,0,36,36,11,1,,,,,,,,,,,,,,,,,,,,,,,,,,,,,,,,,,,,,,,,
,,,,,WIN24_005,18,female,2024-01-25_13h35.03.218,jersey_experiment_5,2023.2.2,Win32,86.20689655,,,,,,,,,,,,,,,,545.3291,546.6232,546.6232,549.0468,return,0.5439,,96.484375,,,,,,FBP-OG-19.png,0.45,1.2,15,0.5,0,37,37,14,1,,,,,,,,,,,,,,,,,,,,,,,,,,,,,,,,,,,,,,,,
,,,,,WIN24_005,18,female,2024-01-25_13h35.03.218,jersey_experiment_5,2023.2.2,Win32,86.20689655,,,,,,,,,,,,,,,,549.047,550.341,550.3411,551.5528,return,0.5147,,96.61458333,,,,,,FBP-PT-81.png,0.43,1.2,54,0.5,0,38,38,53,1,,,,,,,,,,,,,,,,,,,,,,,,,,,,,,,,,,,,,,,,
,,,,,WIN24_005,18,female,2024-01-25_13h35.03.218,jersey_experiment_5,2023.2.2,Win32,86.20689655,,,,,,,,,,,,,,,,551.553,552.8469,552.847,556.0118,return,0.552,,30.46875,,,,,,FBP-OG-18.png,0.35,1.2,6,0.5,0,39,39,5,1,,,,,,,,,,,,,,,,,,,,,,,,,,,,,,,,,,,,,,,,
,,,,,WIN24_005,18,female,2024-01-25_13h35.03.218,jersey_experiment_5,2023.2.2,Win32,86.20689655,,,,,,,,,,,,,,,,556.012,557.8119,557.8119,559.7295,return,0.5834,,28.90625,,,,,,FBP-RB-91.png,0.35,1.2,26,1,0,40,40,25,1,,,,,,,,,,,,,,,,,,,,,,,,,,,,,,,,,,,,,,,,
,,,,,WIN24_005,18,female,2024-01-25_13h35.03.218,jersey_experiment_5,2023.2.2,Win32,86.20689655,,,,,,,,,,,,,,,,559.7298,561.5298,561.5298,562.9766,return,0.4656,,87.23958333,,,,,,FBP-YG-17.png,0.45,1.2,35,1,0,41,41,34,1,,,,,,,,,,,,,,,,,,,,,,,,,,,,,,,,,,,,,,,,
,,,,,WIN24_005,18,female,2024-01-25_13h35.03.218,jersey_experiment_5,2023.2.2,Win32,86.20689655,,,,,,,,,,,,,,,,562.9769,564.271,564.271,566.2005,return,0.5898,,35.02604167,,,,,,FBP-PT-81.png,0.37,1.2,52,0.5,0,42,42,51,1,,,,,,,,,,,,,,,,,,,,,,,,,,,,,,,,,,,,,,,,
,,,,,WIN24_005,18,female,2024-01-25_13h35.03.218,jersey_experiment_5,2023.2.2,Win32,86.20689655,,,,,,,,,,,,,,,,566.2007,568.0005,568.0005,570.7301,return,1.2845,,80.98958333,,,,,,FBP-YG-17.png,0.43,1.2,34,1,0,43,43,33,1,,,,,,,,,,,,,,,,,,,,,,,,,,,,,,,,,,,,,,,,
,,,,,WIN24_005,18,female,2024-01-25_13h35.03.218,jersey_experiment_5,2023.2.2,Win32,86.20689655,,,,,,,,,,,,,,,,570.7303,572.53,572.53,577.1774,return,0.6825,,77.60416667,,,,,,FBP-YG-17.png,0.4,1.2,33,1,0,44,44,32,1,,,,,,,,,,,,,,,,,,,,,,,,,,,,,,,,,,,,,,,,
,,,,,WIN24_005,18,female,2024-01-25_13h35.03.218,jersey_experiment_5,2023.2.2,Win32,86.20689655,,,,,,,,,,,,,,,,577.1776,578.4715,578.4715,581.4009,return,0.5513,,97.13541667,,,,,,FBP-PT-81.png,0.45,1.2,55,0.5,0,45,45,54,1,,,,,,,,,,,,,,,,,,,,,,,,,,,,,,,,,,,,,,,,
,,,,,WIN24_005,18,female,2024-01-25_13h35.03.218,jersey_experiment_5,2023.2.2,Win32,86.20689655,,,,,,,,,,,,,,,,581.4011,582.6951,582.6951,585.413,return,0.5911,,92.1875,,,,,,FBP-OG-18.png,0.4,1.2,8,0.5,0,46,46,7,1,,,,,,,,,,,,,,,,,,,,,,,,,,,,,,,,,,,,,,,,
,,,,,WIN24_005,18,female,2024-01-25_13h35.03.218,jersey_experiment_5,2023.2.2,Win32,86.20689655,,,,,,,,,,,,,,,,585.4132,587.2129,587.213,588.9777,return,0.7372,,92.1875,,,,,,FBP-YG-18.png,0.4,1.2,38,1,0,47,47,37,1,,,,,,,,,,,,,,,,,,,,,,,,,,,,,,,,,,,,,,,,
,,,,,WIN24_005,18,female,2024-01-25_13h35.03.218,jersey_experiment_5,2023.2.2,Win32,86.20689655,,,,,,,,,,,,,,,,588.9779,590.7779,590.7779,592.6133,return,0.6048,,92.1875,,,,,,FBP-RB-81.png,0.37,1.2,22,1,0,48,48,21,1,,,,,,,,,,,,,,,,,,,,,,,,,,,,,,,,,,,,,,,,
,,,,,WIN24_005,18,female,2024-01-25_13h35.03.218,jersey_experiment_5,2023.2.2,Win32,86.20689655,,,,,,,,,,,,,,,,592.6134,594.4132,594.4132,596.5073,return,0.7636,,92.1875,,,,,,FBP-RB-71.png,0.4,1.2,18,1,0,49,49,17,1,,,,,,,,,,,,,,,,,,,,,,,,,,,,,,,,,,,,,,,,
,,,,,WIN24_005,18,female,2024-01-25_13h35.03.218,jersey_experiment_5,2023.2.2,Win32,86.20689655,,,,,,,,,,,,,,,,596.5075,598.3076,598.3076,600.0723,return,0.5314,,91.14583333,,,,,,FBP-RB-71.png,0.43,1.2,19,1,0,50,50,18,1,,,,,,,,,,,,,,,,,,,,,,,,,,,,,,,,,,,,,,,,
,,,,,WIN24_005,18,female,2024-01-25_13h35.03.218,jersey_experiment_5,2023.2.2,Win32,86.20689655,,,,,,,,,,,,,,,,600.0726,601.3664,601.3664,603.4488,return,0.67,,91.14583333,,,,,,FBP-OG-18.png,0.37,1.2,7,0.5,0,51,51,6,1,,,,,,,,,,,,,,,,,,,,,,,,,,,,,,,,,,,,,,,,
,,,,,WIN24_005,18,female,2024-01-25_13h35.03.218,jersey_experiment_5,2023.2.2,Win32,86.20689655,,,,,,,,,,,,,,,,603.449,605.2489,605.249,608.5313,return,0.7222,,65.49479167,,,,,,FBP-YG-17.png,0.37,1.2,32,1,0,52,52,31,1,,,,,,,,,,,,,,,,,,,,,,,,,,,,,,,,,,,,,,,,
,,,,,WIN24_005,18,female,2024-01-25_13h35.03.218,jersey_experiment_5,2023.2.2,Win32,86.20689655,,,,,,,,,,,,,,,,608.5315,610.3314,610.3314,611.7315,return,0.5711,,65.49479167,,,,,,FBP-RB-81.png,0.4,1.2,23,1,0,53,53,22,1,,,,,,,,,,,,,,,,,,,,,,,,,,,,,,,,,,,,,,,,
,,,,,WIN24_005,18,female,2024-01-25_13h35.03.218,jersey_experiment_5,2023.2.2,Win32,86.20689655,,,,,,,,,,,,,,,,611.7317,613.0256,613.0256,614.7316,return,0.4951,,65.49479167,,,,,,FBP-PT-81.png,0.35,1.2,51,0.5,0,54,54,50,1,,,,,,,,,,,,,,,,,,,,,,,,,,,,,,,,,,,,,,,,
,,,,,WIN24_005,18,female,2024-01-25_13h35.03.218,jersey_experiment_5,2023.2.2,Win32,86.20689655,,,,,,,,,,,,,,,,614.7318,616.0258,616.0258,618.473,return,0.7767,,65.49479167,,,,,,FBP-PT-71.png,0.37,1.2,47,0.5,0,55,55,46,1,,,,,,,,,,,,,,,,,,,,,,,,,,,,,,,,,,,,,,,,
,,,,,WIN24_005,18,female,2024-01-25_13h35.03.218,jersey_experiment_5,2023.2.2,Win32,86.20689655,,,,,,,,,,,,,,,,618.4733,619.7672,619.7672,622.073,return,0.7286,,97.91666667,,,,,,FBP-PT-91.png,0.45,1.2,60,0.5,0,56,56,59,1,,,,,,,,,,,,,,,,,,,,,,,,,,,,,,,,,,,,,,,,
,,,,,WIN24_005,18,female,2024-01-25_13h35.03.218,jersey_experiment_5,2023.2.2,Win32,86.20689655,,,,,,,,,,,,,,,,622.0732,623.3672,623.3672,625.026,return,0.6427,,97.91666667,,,,,,FBP-PT-71.png,0.4,1.2,48,0.5,0,57,57,47,1,,,,,,,,,,,,,,,,,,,,,,,,,,,,,,,,,,,,,,,,
,,,,,WIN24_005,18,female,2024-01-25_13h35.03.218,jersey_experiment_5,2023.2.2,Win32,86.20689655,,,,,,,,,,,,,,,,625.0262,626.8262,626.8263,628.6968,return,1.295,,97.91666667,,,,,,FBP-YG-19.png,0.43,1.2,44,1,0,58,58,43,1,,,,,,,,,,,,,,,,,,,,,,,,,,,,,,,,,,,,,,,,
,,,,,WIN24_005,18,female,2024-01-25_13h35.03.218,jersey_experiment_5,2023.2.2,Win32,86.20689655,,,,,,,,,,,,,,,,628.6969,629.991,629.991,633.5088,return,0.5441,,38.15104167,,,,,,FBP-PT-91.png,0.4,1.2,58,0.5,0,59,59,57,1,,,,,,,,,,,,,,,,,,,,,,,,,,,,,,,,,,,,,,,,
,,,,,WIN24_005,18,female,2024-01-25_13h35.03.218,jersey_experiment_5,2023.2.2,Win32,86.20689655,,,,,,,,,,,,,,,,,,,,,,,,,,,,,,,,,,,,,,,633.5093,753.5135,,,,,,,,,,,,,,,,,,,,,,,,,,,,,,,,,,,,,,
,,,,,WIN24_005,18,female,2024-01-25_13h35.03.218,jersey_experiment_5,2023.2.2,Win32,86.20689655,,,,,,,,,,,,,,,,,,,,,,,,,,,,,,,,,,,,,,,,,753.5135,756.6309,return,3.108,,,,,,,,,,,,,,,,,,,,,,,,,,,,,,,,,,
,,,,,WIN24_005,18,female,2024-01-25_13h35.03.218,jersey_experiment_5,2023.2.2,Win32,86.20689655,,,,,,,,,,,,,,,,756.6373,757.9368,757.9368,761.0781,return,0.7567,,60.28645833,,,,,,FBP-YG-81.png,0.4,1.2,38,0.5,,,,,,,,,,,,,0,0,0,37,1,,,,,,,,,,,,,,,,,,,,,,,,,,,,
,,,,,WIN24_005,18,female,2024-01-25_13h35.03.218,jersey_experiment_5,2023.2.2,Win32,86.20689655,,,,,,,,,,,,,,,,761.0782,762.3722,762.3722,763.5252,return,0.522,,60.15625,,,,,,FBP-YG-81.png,0.35,1.2,36,0.5,,,,,,,,,,,,,0,1,1,35,1,,,,,,,,,,,,,,,,,,,,,,,,,,,,
,,,,,WIN24_005,18,female,2024-01-25_13h35.03.218,jersey_experiment_5,2023.2.2,Win32,86.20689655,,,,,,,,,,,,,,,,763.5253,764.8193,764.8194,766.7723,return,0.5699,,91.015625,,,,,,FBP-RB-18.png,0.43,1.2,24,0.5,,,,,,,,,,,,,0,2,2,23,1,,,,,,,,,,,,,,,,,,,,,,,,,,,,
,,,,,WIN24_005,18,female,2024-01-25_13h35.03.218,jersey_experiment_5,2023.2.2,Win32,86.20689655,,,,,,,,,,,,,,,,766.7725,768.0665,768.0666,772.502,return,0.7319,,79.03645833,,,,,,FBP-RB-19.png,0.4,1.2,28,0.5,,,,,,,,,,,,,0,3,3,27,1,,,,,,,,,,,,,,,,,,,,,,,,,,,,
,,,,,WIN24_005,18,female,2024-01-25_13h35.03.218,jersey_experiment_5,2023.2.2,Win32,86.20689655,,,,,,,,,,,,,,,,772.5023,774.3022,774.3022,775.667,return,0.4879,,98.30729167,,,,,,FBP-PT-17.png,0.45,1.2,50,1,,,,,,,,,,,,,0,4,4,49,1,,,,,,,,,,,,,,,,,,,,,,,,,,,,
,,,,,WIN24_005,18,female,2024-01-25_13h35.03.218,jersey_experiment_5,2023.2.2,Win32,86.20689655,,,,,,,,,,,,,,,,775.6672,776.9609,776.9609,780.5141,return,0.9251,,64.19270833,,,,,,FBP-RB-17.png,0.4,1.2,18,0.5,,,,,,,,,,,,,0,5,5,17,1,,,,,,,,,,,,,,,,,,,,,,,,,,,,
,,,,,WIN24_005,18,female,2024-01-25_13h35.03.218,jersey_experiment_5,2023.2.2,Win32,86.20689655,,,,,,,,,,,,,,,,780.5142,781.8081,781.8081,783.1729,return,0.6632,,64.19270833,,,,,,FBP-YG-91.png,0.4,1.2,43,0.5,,,,,,,,,,,,,0,6,6,42,1,,,,,,,,,,,,,,,,,,,,,,,,,,,,
,,,,,WIN24_005,18,female,2024-01-25_13h35.03.218,jersey_experiment_5,2023.2.2,Win32,86.20689655,,,,,,,,,,,,,,,,783.1731,784.9731,784.9731,787.2555,return,0.7771,,9.244791667,,,,,,FBP-OG-81.png,0.35,1.2,6,1,,,,,,,,,,,,,0,7,7,5,1,,,,,,,,,,,,,,,,,,,,,,,,,,,,
,,,,,WIN24_005,18,female,2024-01-25_13h35.03.218,jersey_experiment_5,2023.2.2,Win32,86.20689655,,,,,,,,,,,,,,,,787.2557,788.5496,788.5496,793.6438,return,0.565,,37.5,,,,,,FBP-RB-18.png,0.37,1.2,22,0.5,,,,,,,,,,,,,0,8,8,21,1,,,,,,,,,,,,,,,,,,,,,,,,,,,,
,,,,,WIN24_005,18,female,2024-01-25_13h35.03.218,jersey_experiment_5,2023.2.2,Win32,86.20689655,,,,,,,,,,,,,,,,793.6441,795.4442,795.4442,798.6676,return,2.2119,,49.73958333,,,,,,FBP-OG-91.png,0.35,1.2,11,1,,,,,,,,,,,,,0,9,9,10,1,,,,,,,,,,,,,,,,,,,,,,,,,,,,
,,,,,WIN24_005,18,female,2024-01-25_13h35.03.218,jersey_experiment_5,2023.2.2,Win32,86.20689655,,,,,,,,,,,,,,,,798.6677,800.4675,800.4676,803.0914,return,1.0534,,50.13020833,,,,,,FBP-PT-18.png,0.35,1.2,51,1,,,,,,,,,,,,,0,10,10,50,1,,,,,,,,,,,,,,,,,,,,,,,,,,,,
,,,,,WIN24_005,18,female,2024-01-25_13h35.03.218,jersey_experiment_5,2023.2.2,Win32,86.20689655,,,,,,,,,,,,,,,,803.0915,804.3855,804.3855,806.5503,return,0.5895,,98.17708333,,,,,,FBP-YG-81.png,0.43,1.2,39,0.5,,,,,,,,,,,,,0,11,11,38,1,,,,,,,,,,,,,,,,,,,,,,,,,,,,
,,,,,WIN24_005,18,female,2024-01-25_13h35.03.218,jersey_experiment_5,2023.2.2,Win32,86.20689655,,,,,,,,,,,,,,,,806.5505,808.3504,808.3504,809.7621,return,0.5825,,99.21875,,,,,,FBP-PT-18.png,0.45,1.2,55,1,,,,,,,,,,,,,0,12,12,54,1,,,,,,,,,,,,,,,,,,,,,,,,,,,,
,,,,,WIN24_005,18,female,2024-01-25_13h35.03.218,jersey_experiment_5,2023.2.2,Win32,86.20689655,,,,,,,,,,,,,,,,809.7623,811.5622,811.5623,813.3858,return,0.6689,,63.02083333,,,,,,FBP-OG-91.png,0.37,1.2,12,1,,,,,,,,,,,,,0,13,13,11,1,,,,,,,,,,,,,,,,,,,,,,,,,,,,
,,,,,WIN24_005,18,female,2024-01-25_13h35.03.218,jersey_experiment_5,2023.2.2,Win32,86.20689655,,,,,,,,,,,,,,,,813.3861,815.1859,815.1859,816.7859,return,0.5937,,65.75520833,,,,,,FBP-PT-18.png,0.4,1.2,53,1,,,,,,,,,,,,,0,14,14,52,1,,,,,,,,,,,,,,,,,,,,,,,,,,,,
,,,,,WIN24_005,18,female,2024-01-25_13h35.03.218,jersey_experiment_5,2023.2.2,Win32,86.20689655,,,,,,,,,,,,,,,,816.7861,818.0801,818.0801,820.492,return,0.5413,,85.28645833,,,,,,FBP-YG-71.png,0.43,1.2,34,0.5,,,,,,,,,,,,,0,15,15,33,1,,,,,,,,,,,,,,,,,,,,,,,,,,,,
,,,,,WIN24_005,18,female,2024-01-25_13h35.03.218,jersey_experiment_5,2023.2.2,Win32,86.20689655,,,,,,,,,,,,,,,,820.4921,821.786,821.786,823.0566,return,0.4888,,85.28645833,,,,,,FBP-YG-91.png,0.43,1.2,44,0.5,,,,,,,,,,,,,0,16,16,43,1,,,,,,,,,,,,,,,,,,,,,,,,,,,,
,,,,,WIN24_005,18,female,2024-01-25_13h35.03.218,jersey_experiment_5,2023.2.2,Win32,86.20689655,,,,,,,,,,,,,,,,823.0567,824.3509,824.3509,826.7863,return,0.5937,,14.32291667,,,,,,FBP-RB-17.png,0.37,1.2,17,0.5,,,,,,,,,,,,,0,17,17,16,1,,,,,,,,,,,,,,,,,,,,,,,,,,,,
,,,,,WIN24_005,18,female,2024-01-25_13h35.03.218,jersey_experiment_5,2023.2.2,Win32,86.20689655,,,,,,,,,,,,,,,,826.7866,828.5863,828.5863,835.4455,return,3.2022,,63.93229167,,,,,,FBP-OG-81.png,0.4,1.2,8,1,,,,,,,,,,,,,0,18,18,7,1,,,,,,,,,,,,,,,,,,,,,,,,,,,,
,,,,,WIN24_005,18,female,2024-01-25_13h35.03.218,jersey_experiment_5,2023.2.2,Win32,86.20689655,,,,,,,,,,,,,,,,835.4456,836.7396,836.7396,839.0807,return,0.73,,94.66145833,,,,,,FBP-RB-18.png,0.45,1.2,25,0.5,,,,,,,,,,,,,0,19,19,24,1,,,,,,,,,,,,,,,,,,,,,,,,,,,,
,,,,,WIN24_005,18,female,2024-01-25_13h35.03.218,jersey_experiment_5,2023.2.2,Win32,86.20689655,,,,,,,,,,,,,,,,839.0809,840.8809,840.8809,847.0105,return,0.7228,,86.19791667,,,,,,FBP-PT-17.png,0.37,1.2,47,1,,,,,,,,,,,,,0,20,20,46,1,,,,,,,,,,,,,,,,,,,,,,,,,,,,
,,,,,WIN24_005,18,female,2024-01-25_13h35.03.218,jersey_experiment_5,2023.2.2,Win32,86.20689655,,,,,,,,,,,,,,,,847.0107,848.8106,848.8106,850.8695,return,0.8509,,85.80729167,,,,,,FBP-PT-18.png,0.37,1.2,52,1,,,,,,,,,,,,,0,21,21,51,1,,,,,,,,,,,,,,,,,,,,,,,,,,,,
,,,,,WIN24_005,18,female,2024-01-25_13h35.03.218,jersey_experiment_5,2023.2.2,Win32,86.20689655,,,,,,,,,,,,,,,,850.8697,852.1636,852.1637,855.2814,return,0.5478,,34.89583333,,,,,,FBP-RB-18.png,0.35,1.2,21,0.5,,,,,,,,,,,,,0,22,22,20,1,,,,,,,,,,,,,,,,,,,,,,,,,,,,
,,,,,WIN24_005,18,female,2024-01-25_13h35.03.218,jersey_experiment_5,2023.2.2,Win32,86.20689655,,,,,,,,,,,,,,,,855.2817,857.0813,857.0814,860.2932,return,1.5075,,87.5,,,,,,FBP-PT-19.png,0.43,1.2,59,1,,,,,,,,,,,,,0,23,23,58,1,,,,,,,,,,,,,,,,,,,,,,,,,,,,
,,,,,WIN24_005,18,female,2024-01-25_13h35.03.218,jersey_experiment_5,2023.2.2,Win32,86.20689655,,,,,,,,,,,,,,,,860.2935,862.0935,862.0935,864.0583,return,0.7426,,99.08854167,,,,,,FBP-OG-91.png,0.45,1.2,15,1,,,,,,,,,,,,,0,24,24,14,1,,,,,,,,,,,,,,,,,,,,,,,,,,,,
,,,,,WIN24_005,18,female,2024-01-25_13h35.03.218,jersey_experiment_5,2023.2.2,Win32,86.20689655,,,,,,,,,,,,,,,,864.0585,865.8583,865.8583,869.4584,return,0.5953,,58.203125,,,,,,FBP-OG-91.png,0.4,1.2,13,1,,,,,,,,,,,,,0,25,25,12,1,,,,,,,,,,,,,,,,,,,,,,,,,,,,
,,,,,WIN24_005,18,female,2024-01-25_13h35.03.218,jersey_experiment_5,2023.2.2,Win32,86.20689655,,,,,,,,,,,,,,,,869.4586,871.2585,871.2586,872.7879,return,0.5207,,82.29166667,,,,,,FBP-PT-17.png,0.43,1.2,49,1,,,,,,,,,,,,,0,26,26,48,1,,,,,,,,,,,,,,,,,,,,,,,,,,,,
,,,,,WIN24_005,18,female,2024-01-25_13h35.03.218,jersey_experiment_5,2023.2.2,Win32,86.20689655,,,,,,,,,,,,,,,,872.7881,874.0821,874.0821,878.7763,return,1.1536,,34.765625,,,,,,FBP-RB-19.png,0.37,1.2,27,0.5,,,,,,,,,,,,,0,27,27,26,1,,,,,,,,,,,,,,,,,,,,,,,,,,,,
,,,,,WIN24_005,18,female,2024-01-25_13h35.03.218,jersey_experiment_5,2023.2.2,Win32,86.20689655,,,,,,,,,,,,,,,,878.7767,880.5765,880.5765,885.0001,return,0.706,,79.94791667,,,,,,FBP-PT-17.png,0.4,1.2,48,1,,,,,,,,,,,,,0,28,28,47,1,,,,,,,,,,,,,,,,,,,,,,,,,,,,
,,,,,WIN24_005,18,female,2024-01-25_13h35.03.218,jersey_experiment_5,2023.2.2,Win32,86.20689655,,,,,,,,,,,,,,,,885.0003,886.8002,886.8002,889.1886,return,0.8254,,81.25,,,,,,FBP-OG-71.png,0.43,1.2,4,1,,,,,,,,,,,,,0,29,29,3,1,,,,,,,,,,,,,,,,,,,,,,,,,,,,
,,,,,WIN24_005,18,female,2024-01-25_13h35.03.218,jersey_experiment_5,2023.2.2,Win32,86.20689655,,,,,,,,,,,,,,,,889.1888,890.4827,890.4827,892.6475,return,0.5079,,67.83854167,,,,,,FBP-YG-91.png,0.37,1.2,42,0.5,,,,,,,,,,,,,0,30,30,41,1,,,,,,,,,,,,,,,,,,,,,,,,,,,,
,,,,,WIN24_005,18,female,2024-01-25_13h35.03.218,jersey_experiment_5,2023.2.2,Win32,86.20689655,,,,,,,,,,,,,,,,892.6477,893.9416,893.9417,896.6122,return,0.5463,,17.83854167,,,,,,FBP-RB-17.png,0.35,1.2,16,0.5,,,,,,,,,,,,,0,31,31,15,1,,,,,,,,,,,,,,,,,,,,,,,,,,,,
,,,,,WIN24_005,18,female,2024-01-25_13h35.03.218,jersey_experiment_5,2023.2.2,Win32,86.20689655,,,,,,,,,,,,,,,,896.6123,898.4123,898.4123,900.6006,return,0.4609,,30.59895833,,,,,,FBP-PT-19.png,0.35,1.2,56,1,,,,,,,,,,,,,0,32,32,55,1,,,,,,,,,,,,,,,,,,,,,,,,,,,,
,,,,,WIN24_005,18,female,2024-01-25_13h35.03.218,jersey_experiment_5,2023.2.2,Win32,86.20689655,,,,,,,,,,,,,,,,900.601,902.4008,902.4009,904.295,return,0.6494,,55.72916667,,,,,,FBP-OG-71.png,0.37,1.2,2,1,,,,,,,,,,,,,0,33,33,1,1,,,,,,,,,,,,,,,,,,,,,,,,,,,,
,,,,,WIN24_005,18,female,2024-01-25_13h35.03.218,jersey_experiment_5,2023.2.2,Win32,86.20689655,,,,,,,,,,,,,,,,904.2952,905.5891,905.5891,907.4597,return,0.6271,,88.80208333,,,,,,FBP-RB-19.png,0.45,1.2,30,0.5,,,,,,,,,,,,,0,34,34,29,1,,,,,,,,,,,,,,,,,,,,,,,,,,,,
,,,,,WIN24_005,18,female,2024-01-25_13h35.03.218,jersey_experiment_5,2023.2.2,Win32,86.20689655,,,,,,,,,,,,,,,,907.4599,908.7539,908.7539,911.5069,return,0.5238,,70.57291667,,,,,,FBP-YG-71.png,0.35,1.2,31,0.5,,,,,,,,,,,,,0,35,35,30,1,,,,,,,,,,,,,,,,,,,,,,,,,,,,
,,,,,WIN24_005,18,female,2024-01-25_13h35.03.218,jersey_experiment_5,2023.2.2,Win32,86.20689655,,,,,,,,,,,,,,,,911.5071,912.8009,912.801,914.7541,return,0.5249,,70.57291667,,,,,,FBP-RB-19.png,0.35,1.2,26,0.5,,,,,,,,,,,,,0,36,36,25,1,,,,,,,,,,,,,,,,,,,,,,,,,,,,
,,,,,WIN24_005,18,female,2024-01-25_13h35.03.218,jersey_experiment_5,2023.2.2,Win32,86.20689655,,,,,,,,,,,,,,,,914.7543,916.5544,916.5544,918.2955,return,0.6018,,98.828125,,,,,,FBP-OG-71.png,0.45,1.2,5,1,,,,,,,,,,,,,0,37,37,4,1,,,,,,,,,,,,,,,,,,,,,,,,,,,,
,,,,,WIN24_005,18,female,2024-01-25_13h35.03.218,jersey_experiment_5,2023.2.2,Win32,86.20689655,,,,,,,,,,,,,,,,918.2958,919.5896,919.5896,923.2368,return,1.1459,,64.58333333,,,,,,FBP-RB-17.png,0.43,1.2,19,0.5,,,,,,,,,,,,,0,38,38,18,1,,,,,,,,,,,,,,,,,,,,,,,,,,,,
,,,,,WIN24_005,18,female,2024-01-25_13h35.03.218,jersey_experiment_5,2023.2.2,Win32,86.20689655,,,,,,,,,,,,,,,,923.237,924.531,924.531,927.4958,return,0.4844,,86.06770833,,,,,,FBP-YG-71.png,0.4,1.2,33,0.5,,,,,,,,,,,,,0,39,39,32,1,,,,,,,,,,,,,,,,,,,,,,,,,,,,
,,,,,WIN24_005,18,female,2024-01-25_13h35.03.218,jersey_experiment_5,2023.2.2,Win32,86.20689655,,,,,,,,,,,,,,,,927.496,929.2958,929.2958,930.1665,return,0.4133,,86.06770833,,,,,,FBP-PT-19.png,0.4,1.2,58,1,,,,,,,,,,,,,0,40,40,57,1,,,,,,,,,,,,,,,,,,,,,,,,,,,,
,,,,,WIN24_005,18,female,2024-01-25_13h35.03.218,jersey_experiment_5,2023.2.2,Win32,86.20689655,,,,,,,,,,,,,,,,930.1667,931.4605,931.4606,932.9665,return,0.6245,,86.06770833,,,,,,FBP-RB-18.png,0.4,1.2,23,0.5,,,,,,,,,,,,,0,41,41,22,1,,,,,,,,,,,,,,,,,,,,,,,,,,,,
,,,,,WIN24_005,18,female,2024-01-25_13h35.03.218,jersey_experiment_5,2023.2.2,Win32,86.20689655,,,,,,,,,,,,,,,,932.9666,934.7667,934.7667,936.0255,return,0.5882,,99.609375,,,,,,FBP-PT-18.png,0.43,1.2,54,1,,,,,,,,,,,,,0,42,42,53,1,,,,,,,,,,,,,,,,,,,,,,,,,,,,
,,,,,WIN24_005,18,female,2024-01-25_13h35.03.218,jersey_experiment_5,2023.2.2,Win32,86.20689655,,,,,,,,,,,,,,,,936.0257,937.3198,937.3198,940.0374,return,1.8981,,99.609375,,,,,,FBP-YG-71.png,0.45,1.2,35,0.5,,,,,,,,,,,,,0,43,43,34,1,,,,,,,,,,,,,,,,,,,,,,,,,,,,
,,,,,WIN24_005,18,female,2024-01-25_13h35.03.218,jersey_experiment_5,2023.2.2,Win32,86.20689655,,,,,,,,,,,,,,,,940.0377,941.3316,941.3316,943.0139,return,0.601,,98.30729167,,,,,,FBP-YG-81.png,0.45,1.2,40,0.5,,,,,,,,,,,,,0,44,44,39,1,,,,,,,,,,,,,,,,,,,,,,,,,,,,
,,,,,WIN24_005,18,female,2024-01-25_13h35.03.218,jersey_experiment_5,2023.2.2,Win32,86.20689655,,,,,,,,,,,,,,,,943.0141,944.3081,944.3081,947.6377,return,0.4858,,54.81770833,,,,,,FBP-YG-81.png,0.37,1.2,37,0.5,,,,,,,,,,,,,0,45,45,36,1,,,,,,,,,,,,,,,,,,,,,,,,,,,,
,,,,,WIN24_005,18,female,2024-01-25_13h35.03.218,jersey_experiment_5,2023.2.2,Win32,86.20689655,,,,,,,,,,,,,,,,947.6379,949.4377,949.4377,952.4378,return,0.6271,,81.38020833,,,,,,FBP-OG-71.png,0.4,1.2,3,1,,,,,,,,,,,,,0,46,46,2,1,,,,,,,,,,,,,,,,,,,,,,,,,,,,
,,,,,WIN24_005,18,female,2024-01-25_13h35.03.218,jersey_experiment_5,2023.2.2,Win32,86.20689655,,,,,,,,,,,,,,,,952.438,953.732,953.732,955.532,return,0.4473,,93.88020833,,,,,,FBP-RB-19.png,0.43,1.2,29,0.5,,,,,,,,,,,,,0,47,47,28,1,,,,,,,,,,,,,,,,,,,,,,,,,,,,
,,,,,WIN24_005,18,female,2024-01-25_13h35.03.218,jersey_experiment_5,2023.2.2,Win32,86.20689655,,,,,,,,,,,,,,,,955.5323,957.3321,957.3321,961.8029,return,0.931,,46.61458333,,,,,,FBP-PT-17.png,0.35,1.2,46,1,,,,,,,,,,,,,0,48,48,45,1,,,,,,,,,,,,,,,,,,,,,,,,,,,,
,,,,,WIN24_005,18,female,2024-01-25_13h35.03.218,jersey_experiment_5,2023.2.2,Win32,86.20689655,,,,,,,,,,,,,,,,961.8031,963.0971,963.0971,964.8384,return,0.485,,47.39583333,,,,,,FBP-YG-71.png,0.37,1.2,32,0.5,,,,,,,,,,,,,0,49,49,31,1,,,,,,,,,,,,,,,,,,,,,,,,,,,,
,,,,,WIN24_005,18,female,2024-01-25_13h35.03.218,jersey_experiment_5,2023.2.2,Win32,86.20689655,,,,,,,,,,,,,,,,964.8385,966.6384,966.6384,969.4148,return,0.6946,,70.96354167,,,,,,FBP-OG-81.png,0.43,1.2,9,1,,,,,,,,,,,,,0,50,50,8,1,,,,,,,,,,,,,,,,,,,,,,,,,,,,
,,,,,WIN24_005,18,female,2024-01-25_13h35.03.218,jersey_experiment_5,2023.2.2,Win32,86.20689655,,,,,,,,,,,,,,,,969.4151,971.215,971.215,973.5209,return,0.5141,,79.296875,,,,,,FBP-OG-91.png,0.43,1.2,14,1,,,,,,,,,,,,,0,51,51,13,1,,,,,,,,,,,,,,,,,,,,,,,,,,,,
,,,,,WIN24_005,18,female,2024-01-25_13h35.03.218,jersey_experiment_5,2023.2.2,Win32,86.20689655,,,,,,,,,,,,,,,,973.5212,975.3209,975.3209,977.9211,return,0.514,,72.00520833,,,,,,FBP-PT-19.png,0.37,1.2,57,1,,,,,,,,,,,,,0,52,52,56,1,,,,,,,,,,,,,,,,,,,,,,,,,,,,
,,,,,WIN24_005,18,female,2024-01-25_13h35.03.218,jersey_experiment_5,2023.2.2,Win32,86.20689655,,,,,,,,,,,,,,,,977.9213,979.2153,979.2153,981.8507,return,0.9659,,90.88541667,,,,,,FBP-YG-91.png,0.45,1.2,45,0.5,,,,,,,,,,,,,0,53,53,44,1,,,,,,,,,,,,,,,,,,,,,,,,,,,,
,,,,,WIN24_005,18,female,2024-01-25_13h35.03.218,jersey_experiment_5,2023.2.2,Win32,86.20689655,,,,,,,,,,,,,,,,981.851,983.1449,983.1449,986.1214,return,0.659,,34.63541667,,,,,,FBP-YG-91.png,0.35,1.2,41,0.5,,,,,,,,,,,,,0,54,54,40,1,,,,,,,,,,,,,,,,,,,,,,,,,,,,
,,,,,WIN24_005,18,female,2024-01-25_13h35.03.218,jersey_experiment_5,2023.2.2,Win32,86.20689655,,,,,,,,,,,,,,,,986.1215,987.9215,987.9215,995.1453,return,0.4378,,46.22395833,,,,,,FBP-OG-81.png,0.37,1.2,7,1,,,,,,,,,,,,,0,55,55,6,1,,,,,,,,,,,,,,,,,,,,,,,,,,,,
,,,,,WIN24_005,18,female,2024-01-25_13h35.03.218,jersey_experiment_5,2023.2.2,Win32,86.20689655,,,,,,,,,,,,,,,,995.1457,996.9453,996.9453,998.9218,return,0.4709,,62.23958333,,,,,,FBP-PT-19.png,0.45,1.2,60,1,,,,,,,,,,,,,0,56,56,59,1,,,,,,,,,,,,,,,,,,,,,,,,,,,,
,,,,,WIN24_005,18,female,2024-01-25_13h35.03.218,jersey_experiment_5,2023.2.2,Win32,86.20689655,,,,,,,,,,,,,,,,998.9221,1000.2159,1000.2159,1002.1219,return,0.4331,,70.05208333,,,,,,FBP-RB-17.png,0.45,1.2,20,0.5,,,,,,,,,,,,,0,57,57,19,1,,,,,,,,,,,,,,,,,,,,,,,,,,,,
,,,,,WIN24_005,18,female,2024-01-25_13h35.03.218,jersey_experiment_5,2023.2.2,Win32,86.20689655,,,,,,,,,,,,,,,,1002.1222,1003.9222,1003.9222,1006.1692,return,0.5521,,56.640625,,,,,,FBP-OG-71.png,0.35,1.2,1,1,,,,,,,,,,,,,0,58,58,0,1,,,,,,,,,,,,,,,,,,,,,,,,,,,,
,,,,,WIN24_005,18,female,2024-01-25_13h35.03.218,jersey_experiment_5,2023.2.2,Win32,86.20689655,,,,,,,,,,,,,,,,1006.1695,1007.9692,1007.9693,1009.4634,return,0.4589,,80.33854167,,,,,,FBP-OG-81.png,0.45,1.2,10,1,,,,,,,,,,,,,0,59,59,9,1,,,,,,,,,,,,,,,,,,,,,,,,,,,,
,,,,,WIN24_005,18,female,2024-01-25_13h35.03.218,jersey_experiment_5,2023.2.2,Win32,86.20689655,,,,,,,,,,,,,,,,1009.4654,1010.7577,1010.7577,1013.6165,return,1.3145,,56.77083333,,,,,,FBP-YG-18.png,0.35,1.2,36,0.5,,,,,,,,,,,,,,,,,,0,0,0,35,1,,,,,,,,,,,,,,,,,,,,,,,
,,,,,WIN24_005,18,female,2024-01-25_13h35.03.218,jersey_experiment_5,2023.2.2,Win32,86.20689655,,,,,,,,,,,,,,,,1013.6167,1014.9107,1014.9108,1017.9932,return,0.7435,,70.18229167,,,,,,FBP-RB-91.png,0.43,1.2,29,0.5,,,,,,,,,,,,,,,,,,0,1,1,28,1,,,,,,,,,,,,,,,,,,,,,,,
,,,,,WIN24_005,18,female,2024-01-25_13h35.03.218,jersey_experiment_5,2023.2.2,Win32,86.20689655,,,,,,,,,,,,,,,,1017.9934,1019.7933,1019.7934,1022.6401,return,1.548,,71.484375,,,,,,FBP-PT-91.png,0.45,1.2,60,1,,,,,,,,,,,,,,,,,,0,2,2,59,1,,,,,,,,,,,,,,,,,,,,,,,
,,,,,WIN24_005,18,female,2024-01-25_13h35.03.218,jersey_experiment_5,2023.2.2,Win32,86.20689655,,,,,,,,,,,,,,,,1022.6403,1024.4405,1024.4405,1026.5228,return,0.4333,,83.33333333,,,,,,FBP-PT-91.png,0.43,1.2,59,1,,,,,,,,,,,,,,,,,,0,3,3,58,1,,,,,,,,,,,,,,,,,,,,,,,
,,,,,WIN24_005,18,female,2024-01-25_13h35.03.218,jersey_experiment_5,2023.2.2,Win32,86.20689655,,,,,,,,,,,,,,,,1026.523,1027.8169,1027.8169,1029.8171,return,0.5179,,45.96354167,,,,,,FBP-RB-81.png,0.35,1.2,21,0.5,,,,,,,,,,,,,,,,,,0,4,4,20,1,,,,,,,,,,,,,,,,,,,,,,,
,,,,,WIN24_005,18,female,2024-01-25_13h35.03.218,jersey_experiment_5,2023.2.2,Win32,86.20689655,,,,,,,,,,,,,,,,1029.8173,1031.6173,1031.6173,1033.1583,return,0.4732,,57.16145833,,,,,,FBP-PT-91.png,0.37,1.2,57,1,,,,,,,,,,,,,,,,,,0,5,5,56,1,,,,,,,,,,,,,,,,,,,,,,,
,,,,,WIN24_005,18,female,2024-01-25_13h35.03.218,jersey_experiment_5,2023.2.2,Win32,86.20689655,,,,,,,,,,,,,,,,1033.1586,1034.9584,1034.9584,1036.4526,return,0.5929,,57.03125,,,,,,FBP-OG-18.png,0.4,1.2,8,1,,,,,,,,,,,,,,,,,,0,6,6,7,1,,,,,,,,,,,,,,,,,,,,,,,
,,,,,WIN24_005,18,female,2024-01-25_13h35.03.218,jersey_experiment_5,2023.2.2,Win32,86.20689655,,,,,,,,,,,,,,,,1036.4528,1038.2527,1038.2527,1039.7938,return,0.488,,48.046875,,,,,,FBP-PT-81.png,0.35,1.2,51,1,,,,,,,,,,,,,,,,,,0,7,7,50,1,,,,,,,,,,,,,,,,,,,,,,,
,,,,,WIN24_005,18,female,2024-01-25_13h35.03.218,jersey_experiment_5,2023.2.2,Win32,86.20689655,,,,,,,,,,,,,,,,1039.794,1041.594,1041.594,1043.7234,return,0.4097,,70.05208333,,,,,,FBP-PT-81.png,0.45,1.2,55,1,,,,,,,,,,,,,,,,,,0,8,8,54,1,,,,,,,,,,,,,,,,,,,,,,,
,,,,,WIN24_005,18,female,2024-01-25_13h35.03.218,jersey_experiment_5,2023.2.2,Win32,86.20689655,,,,,,,,,,,,,,,,1043.7237,1045.5236,1045.5236,1046.4647,return,0.3827,,70.05208333,,,,,,FBP-PT-81.png,0.43,1.2,54,1,,,,,,,,,,,,,,,,,,0,9,9,53,1,,,,,,,,,,,,,,,,,,,,,,,
,,,,,WIN24_005,18,female,2024-01-25_13h35.03.218,jersey_experiment_5,2023.2.2,Win32,86.20689655,,,,,,,,,,,,,,,,1046.4648,1047.7589,1047.7589,1050.5708,return,0.5517,,83.59375,,,,,,FBP-YG-17.png,0.45,1.2,35,0.5,,,,,,,,,,,,,,,,,,0,10,10,34,1,,,,,,,,,,,,,,,,,,,,,,,
,,,,,WIN24_005,18,female,2024-01-25_13h35.03.218,jersey_experiment_5,2023.2.2,Win32,86.20689655,,,,,,,,,,,,,,,,1050.571,1052.3709,1052.3709,1054.7121,return,0.9989,,83.59375,,,,,,FBP-OG-19.png,0.45,1.2,15,1,,,,,,,,,,,,,,,,,,0,11,11,14,1,,,,,,,,,,,,,,,,,,,,,,,
,,,,,WIN24_005,18,female,2024-01-25_13h35.03.218,jersey_experiment_5,2023.2.2,Win32,86.20689655,,,,,,,,,,,,,,,,1054.7123,1056.0062,1056.0062,1060.0064,return,0.9077,,68.61979167,,,,,,FBP-RB-91.png,0.35,1.2,26,0.5,,,,,,,,,,,,,,,,,,0,12,12,25,1,,,,,,,,,,,,,,,,,,,,,,,
,,,,,WIN24_005,18,female,2024-01-25_13h35.03.218,jersey_experiment_5,2023.2.2,Win32,86.20689655,,,,,,,,,,,,,,,,1060.0066,1061.3004,1061.3004,1063.6183,return,0.6628,,27.734375,,,,,,FBP-YG-17.png,0.35,1.2,31,0.5,,,,,,,,,,,,,,,,,,0,13,13,30,1,,,,,,,,,,,,,,,,,,,,,,,
,,,,,WIN24_005,18,female,2024-01-25_13h35.03.218,jersey_experiment_5,2023.2.2,Win32,86.20689655,,,,,,,,,,,,,,,,1063.6186,1065.4183,1065.4183,1069.1479,return,0.4138,,34.11458333,,,,,,FBP-OG-19.png,0.4,1.2,13,1,,,,,,,,,,,,,,,,,,0,14,14,12,1,,,,,,,,,,,,,,,,,,,,,,,
,,,,,WIN24_005,18,female,2024-01-25_13h35.03.218,jersey_experiment_5,2023.2.2,Win32,86.20689655,,,,,,,,,,,,,,,,1069.1482,1070.4421,1070.4421,1074.0893,return,0.6488,,58.46354167,,,,,,FBP-YG-18.png,0.4,1.2,38,0.5,,,,,,,,,,,,,,,,,,0,15,15,37,1,,,,,,,,,,,,,,,,,,,,,,,
,,,,,WIN24_005,18,female,2024-01-25_13h35.03.218,jersey_experiment_5,2023.2.2,Win32,86.20689655,,,,,,,,,,,,,,,,1074.0895,1075.8892,1075.8892,1083.2425,return,1.013,,63.41145833,,,,,,FBP-PT-81.png,0.37,1.2,52,1,,,,,,,,,,,,,,,,,,0,16,16,51,1,,,,,,,,,,,,,,,,,,,,,,,
,,,,,WIN24_005,18,female,2024-01-25_13h35.03.218,jersey_experiment_5,2023.2.2,Win32,86.20689655,,,,,,,,,,,,,,,,1083.2428,1084.5366,1084.5366,1087.5601,return,0.7303,,44.27083333,,,,,,FBP-RB-71.png,0.37,1.2,17,0.5,,,,,,,,,,,,,,,,,,0,17,17,16,1,,,,,,,,,,,,,,,,,,,,,,,
,,,,,WIN24_005,18,female,2024-01-25_13h35.03.218,jersey_experiment_5,2023.2.2,Win32,86.20689655,,,,,,,,,,,,,,,,1087.5603,1089.3604,1089.3604,1091.4193,return,0.4091,,44.79166667,,,,,,FBP-PT-81.png,0.4,1.2,53,1,,,,,,,,,,,,,,,,,,0,18,18,52,1,,,,,,,,,,,,,,,,,,,,,,,
,,,,,WIN24_005,18,female,2024-01-25_13h35.03.218,jersey_experiment_5,2023.2.2,Win32,86.20689655,,,,,,,,,,,,,,,,1091.4195,1092.7134,1092.7135,1103.5843,return,1.9482,,46.35416667,,,,,,FBP-RB-81.png,0.4,1.2,23,0.5,,,,,,,,,,,,,,,,,,0,19,19,22,1,,,,,,,,,,,,,,,,,,,,,,,
,,,,,WIN24_005,18,female,2024-01-25_13h35.03.218,jersey_experiment_5,2023.2.2,Win32,86.20689655,,,,,,,,,,,,,,,,1103.5846,1104.8786,1104.8786,1118.9143,return,8.5932,,56.51041667,,,,,,FBP-RB-81.png,0.45,1.2,25,0.5,,,,,,,,,,,,,,,,,,0,20,20,24,1,,,,,,,,,,,,,,,,,,,,,,,
,,,,,WIN24_005,18,female,2024-01-25_13h35.03.218,jersey_experiment_5,2023.2.2,Win32,86.20689655,,,,,,,,,,,,,,,,1118.9188,1120.2203,1120.2203,1127.9735,return,1.4268,,55.33854167,,,,,,FBP-YG-19.png,0.43,1.2,44,0.5,,,,,,,,,,,,,,,,,,0,21,21,43,1,,,,,,,,,,,,,,,,,,,,,,,
,,,,,WIN24_005,18,female,2024-01-25_13h35.03.218,jersey_experiment_5,2023.2.2,Win32,86.20689655,,,,,,,,,,,,,,,,1127.9737,1129.7736,1129.7736,1132.8679,return,0.8272,,60.41666667,,,,,,FBP-OG-18.png,0.43,1.2,9,1,,,,,,,,,,,,,,,,,,0,22,22,8,1,,,,,,,,,,,,,,,,,,,,,,,
,,,,,WIN24_005,18,female,2024-01-25_13h35.03.218,jersey_experiment_5,2023.2.2,Win32,86.20689655,,,,,,,,,,,,,,,,1132.8681,1134.162,1134.162,1138.8916,return,0.4466,,45.05208333,,,,,,FBP-RB-71.png,0.4,1.2,18,0.5,,,,,,,,,,,,,,,,,,0,23,23,17,1,,,,,,,,,,,,,,,,,,,,,,,
,,,,,WIN24_005,18,female,2024-01-25_13h35.03.218,jersey_experiment_5,2023.2.2,Win32,86.20689655,,,,,,,,,,,,,,,,1138.8919,1140.6915,1140.6916,1142.2917,return,0.4526,,64.0625,,,,,,FBP-PT-71.png,0.4,1.2,48,1,,,,,,,,,,,,,,,,,,0,24,24,47,1,,,,,,,,,,,,,,,,,,,,,,,
,,,,,WIN24_005,18,female,2024-01-25_13h35.03.218,jersey_experiment_5,2023.2.2,Win32,86.20689655,,,,,,,,,,,,,,,,1142.2919,1143.5858,1143.5858,1145.8801,return,0.6122,,30.59895833,,,,,,FBP-RB-71.png,0.35,1.2,16,0.5,,,,,,,,,,,,,,,,,,0,25,25,15,1,,,,,,,,,,,,,,,,,,,,,,,
,,,,,WIN24_005,18,female,2024-01-25_13h35.03.218,jersey_experiment_5,2023.2.2,Win32,86.20689655,,,,,,,,,,,,,,,,1145.8803,1147.68,1147.6801,1148.5156,return,0.4508,,30.59895833,,,,,,FBP-OG-19.png,0.35,1.2,11,1,,,,,,,,,,,,,,,,,,0,26,26,10,1,,,,,,,,,,,,,,,,,,,,,,,
,,,,,WIN24_005,18,female,2024-01-25_13h35.03.218,jersey_experiment_5,2023.2.2,Win32,86.20689655,,,,,,,,,,,,,,,,1148.5158,1149.8096,1149.8096,1152.9157,return,1.8527,,49.609375,,,,,,FBP-YG-17.png,0.43,1.2,34,0.5,,,,,,,,,,,,,,,,,,0,27,27,33,1,,,,,,,,,,,,,,,,,,,,,,,
,,,,,WIN24_005,18,female,2024-01-25_13h35.03.218,jersey_experiment_5,2023.2.2,Win32,86.20689655,,,,,,,,,,,,,,,,1152.9159,1154.7157,1154.7157,1155.6569,return,0.5278,,49.609375,,,,,,FBP-PT-71.png,0.37,1.2,47,1,,,,,,,,,,,,,,,,,,0,28,28,46,1,,,,,,,,,,,,,,,,,,,,,,,
,,,,,WIN24_005,18,female,2024-01-25_13h35.03.218,jersey_experiment_5,2023.2.2,Win32,86.20689655,,,,,,,,,,,,,,,,1155.6571,1157.457,1157.457,1158.5158,return,0.464,,49.609375,,,,,,FBP-OG-18.png,0.37,1.2,7,1,,,,,,,,,,,,,,,,,,0,29,29,6,1,,,,,,,,,,,,,,,,,,,,,,,
,,,,,WIN24_005,18,female,2024-01-25_13h35.03.218,jersey_experiment_5,2023.2.2,Win32,86.20689655,,,,,,,,,,,,,,,,1158.516,1160.3157,1160.3158,1162.3395,return,0.4631,,56.11979167,,,,,,FBP-OG-17.png,0.37,1.2,2,1,,,,,,,,,,,,,,,,,,0,30,30,1,1,,,,,,,,,,,,,,,,,,,,,,,
,,,,,WIN24_005,18,female,2024-01-25_13h35.03.218,jersey_experiment_5,2023.2.2,Win32,86.20689655,,,,,,,,,,,,,,,,1162.3397,1163.6336,1163.6336,1164.9632,return,0.6768,,56.11979167,,,,,,FBP-YG-18.png,0.37,1.2,37,0.5,,,,,,,,,,,,,,,,,,0,31,31,36,1,,,,,,,,,,,,,,,,,,,,,,,
,,,,,WIN24_005,18,female,2024-01-25_13h35.03.218,jersey_experiment_5,2023.2.2,Win32,86.20689655,,,,,,,,,,,,,,,,1164.9633,1166.2573,1166.2573,1168.5396,return,0.4367,,69.27083333,,,,,,FBP-YG-18.png,0.43,1.2,39,0.5,,,,,,,,,,,,,,,,,,0,32,32,38,1,,,,,,,,,,,,,,,,,,,,,,,
,,,,,WIN24_005,18,female,2024-01-25_13h35.03.218,jersey_experiment_5,2023.2.2,Win32,86.20689655,,,,,,,,,,,,,,,,1168.5399,1170.3398,1170.3398,1171.4928,return,0.4984,,69.27083333,,,,,,FBP-OG-19.png,0.43,1.2,14,1,,,,,,,,,,,,,,,,,,0,33,33,13,1,,,,,,,,,,,,,,,,,,,,,,,
,,,,,WIN24_005,18,female,2024-01-25_13h35.03.218,jersey_experiment_5,2023.2.2,Win32,86.20689655,,,,,,,,,,,,,,,,1171.493,1172.7868,1172.7868,1174.7752,return,0.4485,,87.76041667,,,,,,FBP-YG-19.png,0.45,1.2,45,0.5,,,,,,,,,,,,,,,,,,0,34,34,44,1,,,,,,,,,,,,,,,,,,,,,,,
,,,,,WIN24_005,18,female,2024-01-25_13h35.03.218,jersey_experiment_5,2023.2.2,Win32,86.20689655,,,,,,,,,,,,,,,,1174.7755,1176.0695,1176.0695,1177.9047,return,0.7732,,87.76041667,,,,,,FBP-YG-19.png,0.4,1.2,43,0.5,,,,,,,,,,,,,,,,,,0,35,35,42,1,,,,,,,,,,,,,,,,,,,,,,,
,,,,,WIN24_005,18,female,2024-01-25_13h35.03.218,jersey_experiment_5,2023.2.2,Win32,86.20689655,,,,,,,,,,,,,,,,1177.9049,1179.1989,1179.199,1181.8343,return,1.2618,,87.76041667,,,,,,FBP-RB-91.png,0.4,1.2,28,0.5,,,,,,,,,,,,,,,,,,0,36,36,27,1,,,,,,,,,,,,,,,,,,,,,,,
,,,,,WIN24_005,18,female,2024-01-25_13h35.03.218,jersey_experiment_5,2023.2.2,Win32,86.20689655,,,,,,,,,,,,,,,,1181.8345,1183.6344,1183.6344,1190.0344,return,0.8165,,85.67708333,,,,,,FBP-OG-17.png,0.35,1.2,1,1,,,,,,,,,,,,,,,,,,0,37,37,0,1,,,,,,,,,,,,,,,,,,,,,,,
,,,,,WIN24_005,18,female,2024-01-25_13h35.03.218,jersey_experiment_5,2023.2.2,Win32,86.20689655,,,,,,,,,,,,,,,,1190.0346,1191.8347,1191.8347,1193.5289,return,0.6354,,94.79166667,,,,,,FBP-OG-18.png,0.45,1.2,10,1,,,,,,,,,,,,,,,,,,0,38,38,9,1,,,,,,,,,,,,,,,,,,,,,,,
,,,,,WIN24_005,18,female,2024-01-25_13h35.03.218,jersey_experiment_5,2023.2.2,Win32,86.20689655,,,,,,,,,,,,,,,,1193.5291,1194.8229,1194.823,1196.729,return,0.5794,,82.55208333,,,,,,FBP-YG-19.png,0.37,1.2,42,0.5,,,,,,,,,,,,,,,,,,0,39,39,41,1,,,,,,,,,,,,,,,,,,,,,,,
,,,,,WIN24_005,18,female,2024-01-25_13h35.03.218,jersey_experiment_5,2023.2.2,Win32,86.20689655,,,,,,,,,,,,,,,,1196.7291,1198.0232,1198.0232,1201.4821,return,1.1666,,80.078125,,,,,,FBP-RB-71.png,0.45,1.2,20,0.5,,,,,,,,,,,,,,,,,,0,40,40,19,1,,,,,,,,,,,,,,,,,,,,,,,
,,,,,WIN24_005,18,female,2024-01-25_13h35.03.218,jersey_experiment_5,2023.2.2,Win32,86.20689655,,,,,,,,,,,,,,,,1201.4823,1203.2821,1203.2821,1205.2586,return,0.5748,,82.94270833,,,,,,FBP-OG-17.png,0.43,1.2,4,1,,,,,,,,,,,,,,,,,,0,41,41,3,1,,,,,,,,,,,,,,,,,,,,,,,
,,,,,WIN24_005,18,female,2024-01-25_13h35.03.218,jersey_experiment_5,2023.2.2,Win32,86.20689655,,,,,,,,,,,,,,,,1205.2588,1207.0588,1207.0588,1208.8821,return,0.6419,,57.55208333,,,,,,FBP-OG-18.png,0.35,1.2,6,1,,,,,,,,,,,,,,,,,,0,42,42,5,1,,,,,,,,,,,,,,,,,,,,,,,
,,,,,WIN24_005,18,female,2024-01-25_13h35.03.218,jersey_experiment_5,2023.2.2,Win32,86.20689655,,,,,,,,,,,,,,,,1208.8824,1210.6824,1210.6824,1213.1295,return,0.6361,,89.71354167,,,,,,FBP-PT-91.png,0.4,1.2,58,1,,,,,,,,,,,,,,,,,,0,43,43,57,1,,,,,,,,,,,,,,,,,,,,,,,
,,,,,WIN24_005,18,female,2024-01-25_13h35.03.218,jersey_experiment_5,2023.2.2,Win32,86.20689655,,,,,,,,,,,,,,,,1213.1297,1214.4237,1214.4237,1216.4708,return,0.6582,,86.45833333,,,,,,FBP-RB-71.png,0.43,1.2,19,0.5,,,,,,,,,,,,,,,,,,0,44,44,18,1,,,,,,,,,,,,,,,,,,,,,,,
,,,,,WIN24_005,18,female,2024-01-25_13h35.03.218,jersey_experiment_5,2023.2.2,Win32,86.20689655,,,,,,,,,,,,,,,,1216.4711,1218.2709,1218.2709,1222.7299,return,0.6021,,49.73958333,,,,,,FBP-PT-91.png,0.35,1.2,56,1,,,,,,,,,,,,,,,,,,0,45,45,55,1,,,,,,,,,,,,,,,,,,,,,,,
,,,,,WIN24_005,18,female,2024-01-25_13h35.03.218,jersey_experiment_5,2023.2.2,Win32,86.20689655,,,,,,,,,,,,,,,,1222.73,1224.0241,1224.0241,1227.4123,return,2.05,,76.82291667,,,,,,FBP-YG-18.png,0.45,1.2,40,0.5,,,,,,,,,,,,,,,,,,0,46,46,39,1,,,,,,,,,,,,,,,,,,,,,,,
,,,,,WIN24_005,18,female,2024-01-25_13h35.03.218,jersey_experiment_5,2023.2.2,Win32,86.20689655,,,,,,,,,,,,,,,,1227.4125,1229.2125,1229.2125,1230.6831,return,0.471,,93.48958333,,,,,,FBP-OG-17.png,0.45,1.2,5,1,,,,,,,,,,,,,,,,,,0,47,47,4,1,,,,,,,,,,,,,,,,,,,,,,,
,,,,,WIN24_005,18,female,2024-01-25_13h35.03.218,jersey_experiment_5,2023.2.2,Win32,86.20689655,,,,,,,,,,,,,,,,1230.6833,1232.4832,1232.4833,1233.7538,return,0.4239,,94.66145833,,,,,,FBP-PT-71.png,0.43,1.2,49,1,,,,,,,,,,,,,,,,,,0,48,48,48,1,,,,,,,,,,,,,,,,,,,,,,,
,,,,,WIN24_005,18,female,2024-01-25_13h35.03.218,jersey_experiment_5,2023.2.2,Win32,86.20689655,,,,,,,,,,,,,,,,1233.754,1235.048,1235.048,1238.2951,return,0.7176,,44.53125,,,,,,FBP-RB-91.png,0.37,1.2,27,0.5,,,,,,,,,,,,,,,,,,0,49,49,26,1,,,,,,,,,,,,,,,,,,,,,,,
,,,,,WIN24_005,18,female,2024-01-25_13h35.03.218,jersey_experiment_5,2023.2.2,Win32,86.20689655,,,,,,,,,,,,,,,,1238.2953,1239.5893,1239.5894,1241.6012,return,0.6178,,70.44270833,,,,,,FBP-RB-81.png,0.43,1.2,24,0.5,,,,,,,,,,,,,,,,,,0,50,50,23,1,,,,,,,,,,,,,,,,,,,,,,,
,,,,,WIN24_005,18,female,2024-01-25_13h35.03.218,jersey_experiment_5,2023.2.2,Win32,86.20689655,,,,,,,,,,,,,,,,1241.6014,1242.8954,1242.8954,1244.6955,return,0.6838,,90.88541667,,,,,,FBP-RB-91.png,0.45,1.2,30,0.5,,,,,,,,,,,,,,,,,,0,51,51,29,1,,,,,,,,,,,,,,,,,,,,,,,
,,,,,WIN24_005,18,female,2024-01-25_13h35.03.218,jersey_experiment_5,2023.2.2,Win32,86.20689655,,,,,,,,,,,,,,,,1244.6957,1246.4954,1246.4954,1250.1663,return,0.6592,,39.97395833,,,,,,FBP-OG-19.png,0.37,1.2,12,1,,,,,,,,,,,,,,,,,,0,52,52,11,1,,,,,,,,,,,,,,,,,,,,,,,
,,,,,WIN24_005,18,female,2024-01-25_13h35.03.218,jersey_experiment_5,2023.2.2,Win32,86.20689655,,,,,,,,,,,,,,,,1250.1664,1251.4603,1251.4604,1257.2487,return,2.6414,,44.921875,,,,,,FBP-YG-17.png,0.4,1.2,33,0.5,,,,,,,,,,,,,,,,,,0,53,53,32,1,,,,,,,,,,,,,,,,,,,,,,,
,,,,,WIN24_005,18,female,2024-01-25_13h35.03.218,jersey_experiment_5,2023.2.2,Win32,86.20689655,,,,,,,,,,,,,,,,1257.2489,1259.0488,1259.0488,1261.0136,return,0.4859,,80.98958333,,,,,,FBP-PT-71.png,0.45,1.2,50,1,,,,,,,,,,,,,,,,,,0,54,54,49,1,,,,,,,,,,,,,,,,,,,,,,,
,,,,,WIN24_005,18,female,2024-01-25_13h35.03.218,jersey_experiment_5,2023.2.2,Win32,86.20689655,,,,,,,,,,,,,,,,1261.0139,1262.3077,1262.3077,1264.9667,return,0.5556,,45.57291667,,,,,,FBP-YG-17.png,0.37,1.2,32,0.5,,,,,,,,,,,,,,,,,,0,55,55,31,1,,,,,,,,,,,,,,,,,,,,,,,
,,,,,WIN24_005,18,female,2024-01-25_13h35.03.218,jersey_experiment_5,2023.2.2,Win32,86.20689655,,,,,,,,,,,,,,,,1264.9669,1266.2609,1266.2609,1267.6844,return,0.4617,,45.57291667,,,,,,FBP-RB-81.png,0.37,1.2,22,0.5,,,,,,,,,,,,,,,,,,0,56,56,21,1,,,,,,,,,,,,,,,,,,,,,,,
,,,,,WIN24_005,18,female,2024-01-25_13h35.03.218,jersey_experiment_5,2023.2.2,Win32,86.20689655,,,,,,,,,,,,,,,,1267.6845,1269.4846,1269.4847,1273.6023,return,1.1949,,47.91666667,,,,,,FBP-PT-71.png,0.35,1.2,46,1,,,,,,,,,,,,,,,,,,0,57,57,45,1,,,,,,,,,,,,,,,,,,,,,,,
,,,,,WIN24_005,18,female,2024-01-25_13h35.03.218,jersey_experiment_5,2023.2.2,Win32,86.20689655,,,,,,,,,,,,,,,,1273.6025,1275.4023,1275.4024,1277.3554,return,0.8945,,68.359375,,,,,,FBP-OG-17.png,0.4,1.2,3,1,,,,,,,,,,,,,,,,,,0,58,58,2,1,,,,,,,,,,,,,,,,,,,,,,,
,,,,,WIN24_005,18,female,2024-01-25_13h35.03.218,jersey_experiment_5,2023.2.2,Win32,86.20689655,,,,,,,,,,,,,,,,1277.3555,1278.6494,1278.6495,1283.332,return,0.5794,,29.42708333,,,,,,FBP-YG-19.png,0.35,1.2,41,0.5,,,,,,,,,,,,,,,,,,0,59,59,40,1,,,,,,,,,,,,,,,,,,,,,,,
,,,,,WIN24_005,18,female,2024-01-25_13h35.03.218,jersey_experiment_5,2023.2.2,Win32,86.20689655,,,,,,,,,,,,,,,,,,,,,,,,,,,,,,,,,,,,,,,,,,,,,,,,,,,,,,,,1283.3325,1289.1442,return,5.7985,,,,,,,,,,,,,,,,,,,
,,,,,WIN24_005,18,female,2024-01-25_13h35.03.218,jersey_experiment_5,2023.2.2,Win32,86.20689655,,,,,,,,,,,,,,,,,,,,,,,,,,,,,,,,,,,,,,,,,,,,,,,,,,,,,,,,,,,,,1289.1442,1297.9445,1,5.201,return,3.5767,,,,,,,,,,,,
,,,,,WIN24_005,18,female,2024-01-25_13h35.03.218,jersey_experiment_5,2023.2.2,Win32,86.20689655,,,,,,,,,,,,,,,,,,,,,,,,,,,,,,,,,,,,,,,,,,,,,,,,,,,,,,,,,,,,,,,,,,,,1297.9487,1436.1898,I think it might be about how repetition can cause us to perceive things differently as I feel like I may have scaled the character differently just because I didn't really remember or I saw him compared to the other ones which made me reevaluate where he fit on the scale. I noticed that sometimes I think the same character would pop up but the color of his outfit would be different. itition ,right,132.4271,,,,,,
,,,,,WIN24_005,18,female,2024-01-25_13h35.03.218,jersey_experiment_5,2023.2.2,Win32,86.20689655,,,,,,,,,,,,,,,,,,,,,,,,,,,,,,,,,,,,,,,,,,,,,,,,,,,,,,,,,,,,,,,,,,,,,,,,,,1436.1899,1439.4318,return,3.2303,