requirements.started,requirements.stopped,key_resp_3.keys,key_resp_3.rt,key_resp_3.duration,Subject ID,Age,Gender,date,expName,psychopyVersion,OS,frameRate,instructions1.started,instructions1.stopped,key_resp.keys,key_resp.rt,key_resp.duration,example.started,example.stopped,enter_2.keys,enter_2.rt,enter_2.duration,instructions2.started,instructions2.stopped,enter_3.keys,enter_3.rt,enter_3.duration,image.started,image.stopped,slider_2.started,slider_2.stopped,next.keys,next.rt,next.duration,slider.response,trial_block_1.thisRepN,trial_block_1.thisTrialN,trial_block_1.thisN,trial_block_1.thisIndex,trial_block_1.ran,Path,Width,Height,Index,Duration,trial_block_2.thisRepN,trial_block_2.thisTrialN,trial_block_2.thisN,trial_block_2.thisIndex,trial_block_2.ran,rest_break.started,rest_break.stopped,end_break.started,end_break.stopped,key_resp_5.keys,key_resp_5.rt,key_resp_5.duration,trial_block_3.thisRepN,trial_block_3.thisTrialN,trial_block_3.thisN,trial_block_3.thisIndex,trial_block_3.ran,trial_block_4.thisRepN,trial_block_4.thisTrialN,trial_block_4.thisN,trial_block_4.thisIndex,trial_block_4.ran,questions_intro.started,questions_intro.stopped,enter_12.keys,enter_12.rt,enter_12.duration,question2.started,question2.stopped,question_doingbest.response,question_doingbest.rt,enter_15.keys,enter_15.rt,enter_15.duration,pattern.started,pattern.stopped,pattern_2.text,enter_17.keys,enter_17.rt,enter_17.duration,thankyou.started,thankyou.stopped,enter_14.keys,enter_14.rt,enter_14.duration
0.0001,9.6586,return,9.6534,,WIN24_002,20,Female,2024-01-24_13h12.55.563,jersey_experiment_5,2023.2.2,Win32,84.03361345,,,,,,,,,,,,,,,,,,,,,,,,,,,,,,,,,,,,,,,,,,,,,,,,,,,,,,,,,,,,,,,,,,,,,,,,,,,,,,
,,,,,WIN24_002,20,Female,2024-01-24_13h12.55.563,jersey_experiment_5,2023.2.2,Win32,84.03361345,9.6586,30.894,return,21.2235,,,,,,,,,,,,,,,,,,,,,,,,,,,,,,,,,,,,,,,,,,,,,,,,,,,,,,,,,,,,,,,,,,,,,,,,,,
,,,,,WIN24_002,20,Female,2024-01-24_13h12.55.563,jersey_experiment_5,2023.2.2,Win32,84.03361345,,,,,,30.8941,34.8468,return,3.9193,,,,,,,,,,,,,,,,,,,,,,,,,,,,,,,,,,,,,,,,,,,,,,,,,,,,,,,,,,,,,,,,,,,,,
,,,,,WIN24_002,20,Female,2024-01-24_13h12.55.563,jersey_experiment_5,2023.2.2,Win32,84.03361345,,,,,,,,,,,34.8469,61.3891,return,26.5287,,,,,,,,,,,,,,,,,,,,,,,,,,,,,,,,,,,,,,,,,,,,,,,,,,,,,,,,,,,,,,,,
,,,,,WIN24_002,20,Female,2024-01-24_13h12.55.563,jersey_experiment_5,2023.2.2,Win32,84.03361345,,,,,,,,,,,,,,,,61.3965,63.189,63.1891,76.4718,return,1.4275,,79.296875,0,0,0,29,1,FBP-RB-19.png,0.45,1.2,30,1,,,,,,,,,,,,,,,,,,,,,,,,,,,,,,,,,,,,,,,,,,,,,
,,,,,WIN24_002,20,Female,2024-01-24_13h12.55.563,jersey_experiment_5,2023.2.2,Win32,84.03361345,,,,,,,,,,,,,,,,76.4721,77.7658,77.7658,82.7661,return,1.083,,26.953125,0,1,1,52,1,FBP-PT-18.png,0.4,1.2,53,0.5,,,,,,,,,,,,,,,,,,,,,,,,,,,,,,,,,,,,,,,,,,,,,
,,,,,WIN24_002,20,Female,2024-01-24_13h12.55.563,jersey_experiment_5,2023.2.2,Win32,84.03361345,,,,,,,,,,,,,,,,82.7664,84.566,84.5661,87.2603,return,1.0022,,3.776041667,0,2,2,40,1,FBP-YG-91.png,0.35,1.2,41,1,,,,,,,,,,,,,,,,,,,,,,,,,,,,,,,,,,,,,,,,,,,,,
,,,,,WIN24_002,20,Female,2024-01-24_13h12.55.563,jersey_experiment_5,2023.2.2,Win32,84.03361345,,,,,,,,,,,,,,,,87.2605,89.0604,89.0604,92.2369,return,0.8347,,89.97395833,0,3,3,44,1,FBP-YG-91.png,0.45,1.2,45,1,,,,,,,,,,,,,,,,,,,,,,,,,,,,,,,,,,,,,,,,,,,,,
,,,,,WIN24_002,20,Female,2024-01-24_13h12.55.563,jersey_experiment_5,2023.2.2,Win32,84.03361345,,,,,,,,,,,,,,,,92.2371,94.0369,94.0369,96.6842,return,0.9535,,53.38541667,0,4,4,42,1,FBP-YG-91.png,0.4,1.2,43,1,,,,,,,,,,,,,,,,,,,,,,,,,,,,,,,,,,,,,,,,,,,,,
,,,,,WIN24_002,20,Female,2024-01-24_13h12.55.563,jersey_experiment_5,2023.2.2,Win32,84.03361345,,,,,,,,,,,,,,,,96.6844,97.9783,97.9783,100.9079,return,0.6827,,31.25,0,5,5,6,1,FBP-OG-81.png,0.37,1.2,7,0.5,,,,,,,,,,,,,,,,,,,,,,,,,,,,,,,,,,,,,,,,,,,,,
,,,,,WIN24_002,20,Female,2024-01-24_13h12.55.563,jersey_experiment_5,2023.2.2,Win32,84.03361345,,,,,,,,,,,,,,,,100.9081,102.2019,102.202,104.4726,return,0.5561,,96.74479167,0,6,6,14,1,FBP-OG-91.png,0.45,1.2,15,0.5,,,,,,,,,,,,,,,,,,,,,,,,,,,,,,,,,,,,,,,,,,,,,
,,,,,WIN24_002,20,Female,2024-01-24_13h12.55.563,jersey_experiment_5,2023.2.2,Win32,84.03361345,,,,,,,,,,,,,,,,104.4727,106.2728,106.2728,111.7905,return,3.6004,,69.921875,0,7,7,27,1,FBP-RB-19.png,0.4,1.2,28,1,,,,,,,,,,,,,,,,,,,,,,,,,,,,,,,,,,,,,,,,,,,,,
,,,,,WIN24_002,20,Female,2024-01-24_13h12.55.563,jersey_experiment_5,2023.2.2,Win32,84.03361345,,,,,,,,,,,,,,,,111.7908,113.0848,113.0848,114.8613,return,0.6971,,69.921875,0,8,8,47,1,FBP-PT-17.png,0.4,1.2,48,0.5,,,,,,,,,,,,,,,,,,,,,,,,,,,,,,,,,,,,,,,,,,,,,
,,,,,WIN24_002,20,Female,2024-01-24_13h12.55.563,jersey_experiment_5,2023.2.2,Win32,84.03361345,,,,,,,,,,,,,,,,114.8615,116.1554,116.1554,118.4377,return,0.6084,,90.88541667,0,9,9,49,1,FBP-PT-17.png,0.45,1.2,50,0.5,,,,,,,,,,,,,,,,,,,,,,,,,,,,,,,,,,,,,,,,,,,,,
,,,,,WIN24_002,20,Female,2024-01-24_13h12.55.563,jersey_experiment_5,2023.2.2,Win32,84.03361345,,,,,,,,,,,,,,,,118.438,119.7321,119.7321,121.4026,return,0.5202,,83.59375,0,10,10,13,1,FBP-OG-91.png,0.43,1.2,14,0.5,,,,,,,,,,,,,,,,,,,,,,,,,,,,,,,,,,,,,,,,,,,,,
,,,,,WIN24_002,20,Female,2024-01-24_13h12.55.563,jersey_experiment_5,2023.2.2,Win32,84.03361345,,,,,,,,,,,,,,,,121.4029,122.6969,122.6969,125.2381,return,0.6181,,87.23958333,0,11,11,48,1,FBP-PT-17.png,0.43,1.2,49,0.5,,,,,,,,,,,,,,,,,,,,,,,,,,,,,,,,,,,,,,,,,,,,,
,,,,,WIN24_002,20,Female,2024-01-24_13h12.55.563,jersey_experiment_5,2023.2.2,Win32,84.03361345,,,,,,,,,,,,,,,,125.2383,126.5322,126.5322,128.5089,return,0.5553,,93.88020833,0,12,12,4,1,FBP-OG-71.png,0.45,1.2,5,0.5,,,,,,,,,,,,,,,,,,,,,,,,,,,,,,,,,,,,,,,,,,,,,
,,,,,WIN24_002,20,Female,2024-01-24_13h12.55.563,jersey_experiment_5,2023.2.2,Win32,84.03361345,,,,,,,,,,,,,,,,128.5091,129.803,129.803,132.7914,return,0.819,,31.51041667,0,13,13,51,1,FBP-PT-18.png,0.37,1.2,52,0.5,,,,,,,,,,,,,,,,,,,,,,,,,,,,,,,,,,,,,,,,,,,,,
,,,,,WIN24_002,20,Female,2024-01-24_13h12.55.563,jersey_experiment_5,2023.2.2,Win32,84.03361345,,,,,,,,,,,,,,,,132.7916,134.5913,134.5913,136.0738,return,0.593,,30.33854167,0,14,14,17,1,FBP-RB-17.png,0.4,1.2,18,1,,,,,,,,,,,,,,,,,,,,,,,,,,,,,,,,,,,,,,,,,,,,,
,,,,,WIN24_002,20,Female,2024-01-24_13h12.55.563,jersey_experiment_5,2023.2.2,Win32,84.03361345,,,,,,,,,,,,,,,,136.074,137.3679,137.3679,140.2975,return,0.6756,,94.140625,0,15,15,54,1,FBP-PT-18.png,0.45,1.2,55,0.5,,,,,,,,,,,,,,,,,,,,,,,,,,,,,,,,,,,,,,,,,,,,,
,,,,,WIN24_002,20,Female,2024-01-24_13h12.55.563,jersey_experiment_5,2023.2.2,Win32,84.03361345,,,,,,,,,,,,,,,,140.2977,142.0975,142.0975,144.0857,return,0.6182,,10.15625,0,16,16,36,1,FBP-YG-81.png,0.37,1.2,37,1,,,,,,,,,,,,,,,,,,,,,,,,,,,,,,,,,,,,,,,,,,,,,
,,,,,WIN24_002,20,Female,2024-01-24_13h12.55.563,jersey_experiment_5,2023.2.2,Win32,84.03361345,,,,,,,,,,,,,,,,144.086,145.8859,145.8859,147.9801,return,0.5996,,90.49479167,0,17,17,38,1,FBP-YG-81.png,0.43,1.2,39,1,,,,,,,,,,,,,,,,,,,,,,,,,,,,,,,,,,,,,,,,,,,,,
,,,,,WIN24_002,20,Female,2024-01-24_13h12.55.563,jersey_experiment_5,2023.2.2,Win32,84.03361345,,,,,,,,,,,,,,,,147.9803,149.7803,149.7803,151.3448,return,0.6118,,6.901041667,0,18,18,15,1,FBP-RB-17.png,0.35,1.2,16,1,,,,,,,,,,,,,,,,,,,,,,,,,,,,,,,,,,,,,,,,,,,,,
,,,,,WIN24_002,20,Female,2024-01-24_13h12.55.563,jersey_experiment_5,2023.2.2,Win32,84.03361345,,,,,,,,,,,,,,,,151.3451,153.1449,153.1449,154.6038,return,0.5654,,13.93229167,0,19,19,16,1,FBP-RB-17.png,0.37,1.2,17,1,,,,,,,,,,,,,,,,,,,,,,,,,,,,,,,,,,,,,,,,,,,,,
,,,,,WIN24_002,20,Female,2024-01-24_13h12.55.563,jersey_experiment_5,2023.2.2,Win32,84.03361345,,,,,,,,,,,,,,,,154.604,156.4038,156.4039,159.1452,return,0.6993,,25.91145833,0,20,20,31,1,FBP-YG-71.png,0.37,1.2,32,1,,,,,,,,,,,,,,,,,,,,,,,,,,,,,,,,,,,,,,,,,,,,,
,,,,,WIN24_002,20,Female,2024-01-24_13h12.55.563,jersey_experiment_5,2023.2.2,Win32,84.03361345,,,,,,,,,,,,,,,,159.1455,160.4394,160.4394,162.3806,return,0.5899,,43.88020833,0,21,21,2,1,FBP-OG-71.png,0.4,1.2,3,0.5,,,,,,,,,,,,,,,,,,,,,,,,,,,,,,,,,,,,,,,,,,,,,
,,,,,WIN24_002,20,Female,2024-01-24_13h12.55.563,jersey_experiment_5,2023.2.2,Win32,84.03361345,,,,,,,,,,,,,,,,162.3808,163.6747,163.6747,165.4984,return,0.5569,,37.63020833,0,22,22,11,1,FBP-OG-91.png,0.37,1.2,12,0.5,,,,,,,,,,,,,,,,,,,,,,,,,,,,,,,,,,,,,,,,,,,,,
,,,,,WIN24_002,20,Female,2024-01-24_13h12.55.563,jersey_experiment_5,2023.2.2,Win32,84.03361345,,,,,,,,,,,,,,,,165.4985,167.2983,167.2985,168.9572,return,0.5547,,19.40104167,0,23,23,25,1,FBP-RB-19.png,0.35,1.2,26,1,,,,,,,,,,,,,,,,,,,,,,,,,,,,,,,,,,,,,,,,,,,,,
,,,,,WIN24_002,20,Female,2024-01-24_13h12.55.563,jersey_experiment_5,2023.2.2,Win32,84.03361345,,,,,,,,,,,,,,,,168.9575,170.7572,170.7572,172.5104,return,0.6966,,93.88020833,0,24,24,18,1,FBP-RB-17.png,0.43,1.2,19,1,,,,,,,,,,,,,,,,,,,,,,,,,,,,,,,,,,,,,,,,,,,,,
,,,,,WIN24_002,20,Female,2024-01-24_13h12.55.563,jersey_experiment_5,2023.2.2,Win32,84.03361345,,,,,,,,,,,,,,,,172.5106,174.3105,174.3105,177.3576,return,0.6116,,63.28125,0,25,25,35,1,FBP-YG-81.png,0.35,1.2,36,1,,,,,,,,,,,,,,,,,,,,,,,,,,,,,,,,,,,,,,,,,,,,,
,,,,,WIN24_002,20,Female,2024-01-24_13h12.55.563,jersey_experiment_5,2023.2.2,Win32,84.03361345,,,,,,,,,,,,,,,,177.3578,178.6517,178.6517,179.8871,return,0.5179,,63.28125,0,26,26,1,1,FBP-OG-71.png,0.37,1.2,2,0.5,,,,,,,,,,,,,,,,,,,,,,,,,,,,,,,,,,,,,,,,,,,,,
,,,,,WIN24_002,20,Female,2024-01-24_13h12.55.563,jersey_experiment_5,2023.2.2,Win32,84.03361345,,,,,,,,,,,,,,,,179.8873,181.6872,181.6872,183.0048,return,0.5554,,72.00520833,0,27,27,26,1,FBP-RB-19.png,0.37,1.2,27,1,,,,,,,,,,,,,,,,,,,,,,,,,,,,,,,,,,,,,,,,,,,,,
,,,,,WIN24_002,20,Female,2024-01-24_13h12.55.563,jersey_experiment_5,2023.2.2,Win32,84.03361345,,,,,,,,,,,,,,,,183.005,184.299,184.299,185.6755,return,0.5069,,72.00520833,0,28,28,45,1,FBP-PT-17.png,0.35,1.2,46,0.5,,,,,,,,,,,,,,,,,,,,,,,,,,,,,,,,,,,,,,,,,,,,,
,,,,,WIN24_002,20,Female,2024-01-24_13h12.55.563,jersey_experiment_5,2023.2.2,Win32,84.03361345,,,,,,,,,,,,,,,,185.6757,186.9696,186.9697,188.4403,return,0.5454,,81.38020833,0,29,29,12,1,FBP-OG-91.png,0.4,1.2,13,0.5,,,,,,,,,,,,,,,,,,,,,,,,,,,,,,,,,,,,,,,,,,,,,
,,,,,WIN24_002,20,Female,2024-01-24_13h12.55.563,jersey_experiment_5,2023.2.2,Win32,84.03361345,,,,,,,,,,,,,,,,188.4405,190.2403,190.2403,193.4876,return,2.5982,,92.96875,0,30,30,19,1,FBP-RB-17.png,0.45,1.2,20,1,,,,,,,,,,,,,,,,,,,,,,,,,,,,,,,,,,,,,,,,,,,,,
,,,,,WIN24_002,20,Female,2024-01-24_13h12.55.563,jersey_experiment_5,2023.2.2,Win32,84.03361345,,,,,,,,,,,,,,,,193.4878,195.2876,195.2877,197.1581,return,0.5595,,42.31770833,0,31,31,21,1,FBP-RB-18.png,0.37,1.2,22,1,,,,,,,,,,,,,,,,,,,,,,,,,,,,,,,,,,,,,,,,,,,,,
,,,,,WIN24_002,20,Female,2024-01-24_13h12.55.563,jersey_experiment_5,2023.2.2,Win32,84.03361345,,,,,,,,,,,,,,,,197.1584,198.9583,198.9583,201.1584,return,1.0433,,90.88541667,0,32,32,39,1,FBP-YG-81.png,0.45,1.2,40,1,,,,,,,,,,,,,,,,,,,,,,,,,,,,,,,,,,,,,,,,,,,,,
,,,,,WIN24_002,20,Female,2024-01-24_13h12.55.563,jersey_experiment_5,2023.2.2,Win32,84.03361345,,,,,,,,,,,,,,,,201.1586,202.9584,202.9585,206.5822,return,2.3124,,63.15104167,0,33,33,32,1,FBP-YG-71.png,0.4,1.2,33,1,,,,,,,,,,,,,,,,,,,,,,,,,,,,,,,,,,,,,,,,,,,,,
,,,,,WIN24_002,20,Female,2024-01-24_13h12.55.563,jersey_experiment_5,2023.2.2,Win32,84.03361345,,,,,,,,,,,,,,,,206.5824,207.8763,207.8763,209.6411,return,0.4971,,71.09375,0,34,34,7,1,FBP-OG-81.png,0.4,1.2,8,0.5,,,,,,,,,,,,,,,,,,,,,,,,,,,,,,,,,,,,,,,,,,,,,
,,,,,WIN24_002,20,Female,2024-01-24_13h12.55.563,jersey_experiment_5,2023.2.2,Win32,84.03361345,,,,,,,,,,,,,,,,209.6413,211.4409,211.441,212.6293,return,0.4912,,89.58333333,0,35,35,28,1,FBP-RB-19.png,0.43,1.2,29,1,,,,,,,,,,,,,,,,,,,,,,,,,,,,,,,,,,,,,,,,,,,,,
,,,,,WIN24_002,20,Female,2024-01-24_13h12.55.563,jersey_experiment_5,2023.2.2,Win32,84.03361345,,,,,,,,,,,,,,,,212.6296,214.4294,214.4295,215.4648,return,0.4762,,92.96875,0,36,36,33,1,FBP-YG-71.png,0.43,1.2,34,1,,,,,,,,,,,,,,,,,,,,,,,,,,,,,,,,,,,,,,,,,,,,,
,,,,,WIN24_002,20,Female,2024-01-24_13h12.55.563,jersey_experiment_5,2023.2.2,Win32,84.03361345,,,,,,,,,,,,,,,,215.4648,217.2649,217.2649,219.4178,return,0.5457,,20.703125,0,37,37,30,1,FBP-YG-71.png,0.35,1.2,31,1,,,,,,,,,,,,,,,,,,,,,,,,,,,,,,,,,,,,,,,,,,,,,
,,,,,WIN24_002,20,Female,2024-01-24_13h12.55.563,jersey_experiment_5,2023.2.2,Win32,84.03361345,,,,,,,,,,,,,,,,219.4181,220.712,220.7121,222.7004,return,0.5316,,92.1875,0,38,38,59,1,FBP-PT-19.png,0.45,1.2,60,0.5,,,,,,,,,,,,,,,,,,,,,,,,,,,,,,,,,,,,,,,,,,,,,
,,,,,WIN24_002,20,Female,2024-01-24_13h12.55.563,jersey_experiment_5,2023.2.2,Win32,84.03361345,,,,,,,,,,,,,,,,222.7006,223.9945,223.9945,226.0299,return,0.5512,,8.072916667,0,39,39,55,1,FBP-PT-19.png,0.35,1.2,56,0.5,,,,,,,,,,,,,,,,,,,,,,,,,,,,,,,,,,,,,,,,,,,,,
,,,,,WIN24_002,20,Female,2024-01-24_13h12.55.563,jersey_experiment_5,2023.2.2,Win32,84.03361345,,,,,,,,,,,,,,,,226.0301,227.324,227.324,229.4654,return,0.5462,,89.84375,0,40,40,58,1,FBP-PT-19.png,0.43,1.2,59,0.5,,,,,,,,,,,,,,,,,,,,,,,,,,,,,,,,,,,,,,,,,,,,,
,,,,,WIN24_002,20,Female,2024-01-24_13h12.55.563,jersey_experiment_5,2023.2.2,Win32,84.03361345,,,,,,,,,,,,,,,,229.4656,231.2653,231.2653,232.3948,return,0.543,,86.58854167,0,41,41,37,1,FBP-YG-81.png,0.4,1.2,38,1,,,,,,,,,,,,,,,,,,,,,,,,,,,,,,,,,,,,,,,,,,,,,
,,,,,WIN24_002,20,Female,2024-01-24_13h12.55.563,jersey_experiment_5,2023.2.2,Win32,84.03361345,,,,,,,,,,,,,,,,232.395,233.689,233.689,237.6303,return,3.3278,,91.66666667,0,42,42,53,1,FBP-PT-18.png,0.43,1.2,54,0.5,,,,,,,,,,,,,,,,,,,,,,,,,,,,,,,,,,,,,,,,,,,,,
,,,,,WIN24_002,20,Female,2024-01-24_13h12.55.563,jersey_experiment_5,2023.2.2,Win32,84.03361345,,,,,,,,,,,,,,,,237.6305,238.9244,238.9244,241.4304,return,0.5936,,20.96354167,0,43,43,10,1,FBP-OG-91.png,0.35,1.2,11,0.5,,,,,,,,,,,,,,,,,,,,,,,,,,,,,,,,,,,,,,,,,,,,,
,,,,,WIN24_002,20,Female,2024-01-24_13h12.55.563,jersey_experiment_5,2023.2.2,Win32,84.03361345,,,,,,,,,,,,,,,,241.4306,242.7246,242.7246,244.3835,return,0.834,,20.96354167,0,44,44,56,1,FBP-PT-19.png,0.37,1.2,57,0.5,,,,,,,,,,,,,,,,,,,,,,,,,,,,,,,,,,,,,,,,,,,,,
,,,,,WIN24_002,20,Female,2024-01-24_13h12.55.563,jersey_experiment_5,2023.2.2,Win32,84.03361345,,,,,,,,,,,,,,,,244.3836,246.1838,246.1838,248.1011,return,0.6065,,90.36458333,0,45,45,23,1,FBP-RB-18.png,0.43,1.2,24,1,,,,,,,,,,,,,,,,,,,,,,,,,,,,,,,,,,,,,,,,,,,,,
,,,,,WIN24_002,20,Female,2024-01-24_13h12.55.563,jersey_experiment_5,2023.2.2,Win32,84.03361345,,,,,,,,,,,,,,,,248.1013,249.3953,249.3953,250.6659,return,0.5789,,95.57291667,0,46,46,9,1,FBP-OG-81.png,0.45,1.2,10,0.5,,,,,,,,,,,,,,,,,,,,,,,,,,,,,,,,,,,,,,,,,,,,,
,,,,,WIN24_002,20,Female,2024-01-24_13h12.55.563,jersey_experiment_5,2023.2.2,Win32,84.03361345,,,,,,,,,,,,,,,,250.6663,251.96,251.96,253.4542,return,0.6031,,41.92708333,0,47,47,50,1,FBP-PT-18.png,0.35,1.2,51,0.5,,,,,,,,,,,,,,,,,,,,,,,,,,,,,,,,,,,,,,,,,,,,,
,,,,,WIN24_002,20,Female,2024-01-24_13h12.55.563,jersey_experiment_5,2023.2.2,Win32,84.03361345,,,,,,,,,,,,,,,,253.4545,254.7486,254.7487,255.6545,return,0.5488,,41.92708333,0,48,48,46,1,FBP-PT-17.png,0.37,1.2,47,0.5,,,,,,,,,,,,,,,,,,,,,,,,,,,,,,,,,,,,,,,,,,,,,
,,,,,WIN24_002,20,Female,2024-01-24_13h12.55.563,jersey_experiment_5,2023.2.2,Win32,84.03361345,,,,,,,,,,,,,,,,255.6548,257.4548,257.4548,258.678,return,0.4763,,56.51041667,0,49,49,22,1,FBP-RB-18.png,0.4,1.2,23,1,,,,,,,,,,,,,,,,,,,,,,,,,,,,,,,,,,,,,,,,,,,,,
,,,,,WIN24_002,20,Female,2024-01-24_13h12.55.563,jersey_experiment_5,2023.2.2,Win32,84.03361345,,,,,,,,,,,,,,,,258.6783,260.4781,260.4781,264.2665,return,3.1193,,74.73958333,0,50,50,24,1,FBP-RB-18.png,0.45,1.2,25,1,,,,,,,,,,,,,,,,,,,,,,,,,,,,,,,,,,,,,,,,,,,,,
,,,,,WIN24_002,20,Female,2024-01-24_13h12.55.563,jersey_experiment_5,2023.2.2,Win32,84.03361345,,,,,,,,,,,,,,,,264.2668,266.0666,266.0666,268.8549,return,1.0662,,25.52083333,0,51,51,20,1,FBP-RB-18.png,0.35,1.2,21,1,,,,,,,,,,,,,,,,,,,,,,,,,,,,,,,,,,,,,,,,,,,,,
,,,,,WIN24_002,20,Female,2024-01-24_13h12.55.563,jersey_experiment_5,2023.2.2,Win32,84.03361345,,,,,,,,,,,,,,,,268.8551,270.149,270.149,271.5256,return,0.5615,,17.31770833,0,52,52,0,1,FBP-OG-71.png,0.35,1.2,1,0.5,,,,,,,,,,,,,,,,,,,,,,,,,,,,,,,,,,,,,,,,,,,,,
,,,,,WIN24_002,20,Female,2024-01-24_13h12.55.563,jersey_experiment_5,2023.2.2,Win32,84.03361345,,,,,,,,,,,,,,,,271.5258,272.8197,272.8198,274.9846,return,1.1468,,65.88541667,0,53,53,57,1,FBP-PT-19.png,0.4,1.2,58,0.5,,,,,,,,,,,,,,,,,,,,,,,,,,,,,,,,,,,,,,,,,,,,,
,,,,,WIN24_002,20,Female,2024-01-24_13h12.55.563,jersey_experiment_5,2023.2.2,Win32,84.03361345,,,,,,,,,,,,,,,,274.9849,276.7845,276.7845,278.0318,return,0.5744,,66.66666667,0,54,54,41,1,FBP-YG-91.png,0.37,1.2,42,1,,,,,,,,,,,,,,,,,,,,,,,,,,,,,,,,,,,,,,,,,,,,,
,,,,,WIN24_002,20,Female,2024-01-24_13h12.55.563,jersey_experiment_5,2023.2.2,Win32,84.03361345,,,,,,,,,,,,,,,,278.0319,279.832,279.832,281.0669,return,0.5773,,81.77083333,0,55,55,43,1,FBP-YG-91.png,0.43,1.2,44,1,,,,,,,,,,,,,,,,,,,,,,,,,,,,,,,,,,,,,,,,,,,,,
,,,,,WIN24_002,20,Female,2024-01-24_13h12.55.563,jersey_experiment_5,2023.2.2,Win32,84.03361345,,,,,,,,,,,,,,,,281.0672,282.3613,282.3613,285.4202,return,1.6255,,16.40625,0,56,56,5,1,FBP-OG-81.png,0.35,1.2,6,0.5,,,,,,,,,,,,,,,,,,,,,,,,,,,,,,,,,,,,,,,,,,,,,
,,,,,WIN24_002,20,Female,2024-01-24_13h12.55.563,jersey_experiment_5,2023.2.2,Win32,84.03361345,,,,,,,,,,,,,,,,285.4204,286.7143,286.7143,290.7615,return,0.6502,,49.73958333,0,57,57,8,1,FBP-OG-81.png,0.43,1.2,9,0.5,,,,,,,,,,,,,,,,,,,,,,,,,,,,,,,,,,,,,,,,,,,,,
,,,,,WIN24_002,20,Female,2024-01-24_13h12.55.563,jersey_experiment_5,2023.2.2,Win32,84.03361345,,,,,,,,,,,,,,,,290.7617,292.0556,292.0557,294.3029,return,0.5789,,78.64583333,0,58,58,3,1,FBP-OG-71.png,0.43,1.2,4,0.5,,,,,,,,,,,,,,,,,,,,,,,,,,,,,,,,,,,,,,,,,,,,,
,,,,,WIN24_002,20,Female,2024-01-24_13h12.55.563,jersey_experiment_5,2023.2.2,Win32,84.03361345,,,,,,,,,,,,,,,,294.3031,296.103,296.103,297.2442,return,0.5559,,89.71354167,0,59,59,34,1,FBP-YG-71.png,0.45,1.2,35,1,,,,,,,,,,,,,,,,,,,,,,,,,,,,,,,,,,,,,,,,,,,,,
,,,,,WIN24_002,20,Female,2024-01-24_13h12.55.563,jersey_experiment_5,2023.2.2,Win32,84.03361345,,,,,,,,,,,,,,,,297.2463,298.5383,298.5383,299.5501,return,0.6362,,89.71354167,,,,,,FBP-OG-18.png,0.43,1.2,9,0.5,0,0,0,8,1,,,,,,,,,,,,,,,,,,,,,,,,,,,,,,,,,,,,,,,,
,,,,,WIN24_002,20,Female,2024-01-24_13h12.55.563,jersey_experiment_5,2023.2.2,Win32,84.03361345,,,,,,,,,,,,,,,,299.5504,300.8443,300.8443,301.9032,return,0.6737,,89.71354167,,,,,,FBP-PT-71.png,0.43,1.2,49,0.5,0,1,1,48,1,,,,,,,,,,,,,,,,,,,,,,,,,,,,,,,,,,,,,,,,
,,,,,WIN24_002,20,Female,2024-01-24_13h12.55.563,jersey_experiment_5,2023.2.2,Win32,84.03361345,,,,,,,,,,,,,,,,301.9035,303.7031,303.7032,304.9737,return,0.81,,89.97395833,,,,,,FBP-YG-18.png,0.43,1.2,39,1,0,2,2,38,1,,,,,,,,,,,,,,,,,,,,,,,,,,,,,,,,,,,,,,,,
,,,,,WIN24_002,20,Female,2024-01-24_13h12.55.563,jersey_experiment_5,2023.2.2,Win32,84.03361345,,,,,,,,,,,,,,,,304.974,306.2679,306.2679,307.5504,return,0.5191,,80.59895833,,,,,,FBP-PT-91.png,0.4,1.2,58,0.5,0,3,3,57,1,,,,,,,,,,,,,,,,,,,,,,,,,,,,,,,,,,,,,,,,
,,,,,WIN24_002,20,Female,2024-01-24_13h12.55.563,jersey_experiment_5,2023.2.2,Win32,84.03361345,,,,,,,,,,,,,,,,307.5507,308.8445,308.8445,309.7974,return,0.535,,80.59895833,,,,,,FBP-OG-18.png,0.4,1.2,8,0.5,0,4,4,7,1,,,,,,,,,,,,,,,,,,,,,,,,,,,,,,,,,,,,,,,,
,,,,,WIN24_002,20,Female,2024-01-24_13h12.55.563,jersey_experiment_5,2023.2.2,Win32,84.03361345,,,,,,,,,,,,,,,,309.7977,311.5974,311.5975,313.7505,return,0.5487,,87.5,,,,,,FBP-RB-91.png,0.43,1.2,29,1,0,5,5,28,1,,,,,,,,,,,,,,,,,,,,,,,,,,,,,,,,,,,,,,,,
,,,,,WIN24_002,20,Female,2024-01-24_13h12.55.563,jersey_experiment_5,2023.2.2,Win32,84.03361345,,,,,,,,,,,,,,,,313.7508,315.0448,315.0448,316.2566,return,0.5786,,91.796875,,,,,,FBP-PT-91.png,0.45,1.2,60,0.5,0,6,6,59,1,,,,,,,,,,,,,,,,,,,,,,,,,,,,,,,,,,,,,,,,
,,,,,WIN24_002,20,Female,2024-01-24_13h12.55.563,jersey_experiment_5,2023.2.2,Win32,84.03361345,,,,,,,,,,,,,,,,316.2568,317.5508,317.5508,320.3273,return,0.7245,,27.47395833,,,,,,FBP-PT-81.png,0.35,1.2,51,0.5,0,7,7,50,1,,,,,,,,,,,,,,,,,,,,,,,,,,,,,,,,,,,,,,,,
,,,,,WIN24_002,20,Female,2024-01-24_13h12.55.563,jersey_experiment_5,2023.2.2,Win32,84.03361345,,,,,,,,,,,,,,,,320.3276,322.1273,322.1274,323.6451,return,0.6495,,27.734375,,,,,,FBP-RB-71.png,0.35,1.2,16,1,0,8,8,15,1,,,,,,,,,,,,,,,,,,,,,,,,,,,,,,,,,,,,,,,,
,,,,,WIN24_002,20,Female,2024-01-24_13h12.55.563,jersey_experiment_5,2023.2.2,Win32,84.03361345,,,,,,,,,,,,,,,,323.6454,325.445,325.445,328.0806,return,0.7998,,72.52604167,,,,,,FBP-YG-17.png,0.4,1.2,33,1,0,9,9,32,1,,,,,,,,,,,,,,,,,,,,,,,,,,,,,,,,,,,,,,,,
,,,,,WIN24_002,20,Female,2024-01-24_13h12.55.563,jersey_experiment_5,2023.2.2,Win32,84.03361345,,,,,,,,,,,,,,,,328.0808,329.3746,329.3747,332.8455,return,2.5882,,30.20833333,,,,,,FBP-PT-91.png,0.35,1.2,56,0.5,0,10,10,55,1,,,,,,,,,,,,,,,,,,,,,,,,,,,,,,,,,,,,,,,,
,,,,,WIN24_002,20,Female,2024-01-24_13h12.55.563,jersey_experiment_5,2023.2.2,Win32,84.03361345,,,,,,,,,,,,,,,,332.8457,334.6457,334.6457,336.222,return,0.7298,,92.96875,,,,,,FBP-YG-18.png,0.45,1.2,40,1,0,11,11,39,1,,,,,,,,,,,,,,,,,,,,,,,,,,,,,,,,,,,,,,,,
,,,,,WIN24_002,20,Female,2024-01-24_13h12.55.563,jersey_experiment_5,2023.2.2,Win32,84.03361345,,,,,,,,,,,,,,,,336.2222,337.5161,337.5161,339.9282,return,1.1005,,47.265625,,,,,,FBP-PT-71.png,0.37,1.2,47,0.5,0,12,12,46,1,,,,,,,,,,,,,,,,,,,,,,,,,,,,,,,,,,,,,,,,
,,,,,WIN24_002,20,Female,2024-01-24_13h12.55.563,jersey_experiment_5,2023.2.2,Win32,84.03361345,,,,,,,,,,,,,,,,339.9284,341.728,341.728,342.7987,return,0.5886,,66.27604167,,,,,,FBP-YG-19.png,0.4,1.2,43,1,0,13,13,42,1,,,,,,,,,,,,,,,,,,,,,,,,,,,,,,,,,,,,,,,,
,,,,,WIN24_002,20,Female,2024-01-24_13h12.55.563,jersey_experiment_5,2023.2.2,Win32,84.03361345,,,,,,,,,,,,,,,,342.799,344.5989,344.5989,346.0692,return,0.6419,,50.65104167,,,,,,FBP-RB-91.png,0.37,1.2,27,1,0,14,14,26,1,,,,,,,,,,,,,,,,,,,,,,,,,,,,,,,,,,,,,,,,
,,,,,WIN24_002,20,Female,2024-01-24_13h12.55.563,jersey_experiment_5,2023.2.2,Win32,84.03361345,,,,,,,,,,,,,,,,346.0694,347.3635,347.3635,348.3989,return,0.6262,,50.52083333,,,,,,FBP-OG-19.png,0.4,1.2,13,0.5,0,15,15,12,1,,,,,,,,,,,,,,,,,,,,,,,,,,,,,,,,,,,,,,,,
,,,,,WIN24_002,20,Female,2024-01-24_13h12.55.563,jersey_experiment_5,2023.2.2,Win32,84.03361345,,,,,,,,,,,,,,,,348.3992,349.6929,349.6929,351.0813,return,0.5813,,85.28645833,,,,,,FBP-PT-91.png,0.43,1.2,59,0.5,0,16,16,58,1,,,,,,,,,,,,,,,,,,,,,,,,,,,,,,,,,,,,,,,,
,,,,,WIN24_002,20,Female,2024-01-24_13h12.55.563,jersey_experiment_5,2023.2.2,Win32,84.03361345,,,,,,,,,,,,,,,,351.0816,352.8814,352.8814,353.846,return,0.5351,,85.28645833,,,,,,FBP-RB-81.png,0.4,1.2,23,1,0,17,17,22,1,,,,,,,,,,,,,,,,,,,,,,,,,,,,,,,,,,,,,,,,
,,,,,WIN24_002,20,Female,2024-01-24_13h12.55.563,jersey_experiment_5,2023.2.2,Win32,84.03361345,,,,,,,,,,,,,,,,353.8462,355.1402,355.1402,359.0817,return,2.4964,,85.28645833,,,,,,FBP-OG-17.png,0.4,1.2,3,0.5,0,18,18,2,1,,,,,,,,,,,,,,,,,,,,,,,,,,,,,,,,,,,,,,,,
,,,,,WIN24_002,20,Female,2024-01-24_13h12.55.563,jersey_experiment_5,2023.2.2,Win32,84.03361345,,,,,,,,,,,,,,,,359.0819,360.3756,360.3757,362.6347,return,0.5328,,64.453125,,,,,,FBP-PT-81.png,0.4,1.2,53,0.5,0,19,19,52,1,,,,,,,,,,,,,,,,,,,,,,,,,,,,,,,,,,,,,,,,
,,,,,WIN24_002,20,Female,2024-01-24_13h12.55.563,jersey_experiment_5,2023.2.2,Win32,84.03361345,,,,,,,,,,,,,,,,362.635,364.4347,364.4347,365.7879,return,0.5178,,77.21354167,,,,,,FBP-RB-71.png,0.4,1.2,18,1,0,20,20,17,1,,,,,,,,,,,,,,,,,,,,,,,,,,,,,,,,,,,,,,,,
,,,,,WIN24_002,20,Female,2024-01-24_13h12.55.563,jersey_experiment_5,2023.2.2,Win32,84.03361345,,,,,,,,,,,,,,,,365.788,367.588,367.588,368.5996,return,0.5329,,90.625,,,,,,FBP-RB-71.png,0.43,1.2,19,1,0,21,21,18,1,,,,,,,,,,,,,,,,,,,,,,,,,,,,,,,,,,,,,,,,
,,,,,WIN24_002,20,Female,2024-01-24_13h12.55.563,jersey_experiment_5,2023.2.2,Win32,84.03361345,,,,,,,,,,,,,,,,368.5998,370.3999,370.3999,371.8231,return,0.716,,11.58854167,,,,,,FBP-YG-18.png,0.35,1.2,36,1,0,22,22,35,1,,,,,,,,,,,,,,,,,,,,,,,,,,,,,,,,,,,,,,,,
,,,,,WIN24_002,20,Female,2024-01-24_13h12.55.563,jersey_experiment_5,2023.2.2,Win32,84.03361345,,,,,,,,,,,,,,,,371.8234,373.6236,373.6236,374.9174,return,0.514,,76.5625,,,,,,FBP-YG-17.png,0.43,1.2,34,1,0,23,23,33,1,,,,,,,,,,,,,,,,,,,,,,,,,,,,,,,,,,,,,,,,
,,,,,WIN24_002,20,Female,2024-01-24_13h12.55.563,jersey_experiment_5,2023.2.2,Win32,84.03361345,,,,,,,,,,,,,,,,374.9176,376.2116,376.2116,377.4823,return,0.5096,,89.19270833,,,,,,FBP-PT-81.png,0.45,1.2,55,0.5,0,24,24,54,1,,,,,,,,,,,,,,,,,,,,,,,,,,,,,,,,,,,,,,,,
,,,,,WIN24_002,20,Female,2024-01-24_13h12.55.563,jersey_experiment_5,2023.2.2,Win32,84.03361345,,,,,,,,,,,,,,,,377.4826,378.7765,378.7765,381.3058,return,1.5571,,36.328125,,,,,,FBP-PT-91.png,0.37,1.2,57,0.5,0,25,25,56,1,,,,,,,,,,,,,,,,,,,,,,,,,,,,,,,,,,,,,,,,
,,,,,WIN24_002,20,Female,2024-01-24_13h12.55.563,jersey_experiment_5,2023.2.2,Win32,84.03361345,,,,,,,,,,,,,,,,381.306,382.6,382.6,384.3178,return,0.5275,,22.39583333,,,,,,FBP-OG-17.png,0.35,1.2,1,0.5,0,26,26,0,1,,,,,,,,,,,,,,,,,,,,,,,,,,,,,,,,,,,,,,,,
,,,,,WIN24_002,20,Female,2024-01-24_13h12.55.563,jersey_experiment_5,2023.2.2,Win32,84.03361345,,,,,,,,,,,,,,,,384.318,385.6118,385.6119,387.5298,return,0.5436,,65.10416667,,,,,,FBP-PT-71.png,0.4,1.2,48,0.5,0,27,27,47,1,,,,,,,,,,,,,,,,,,,,,,,,,,,,,,,,,,,,,,,,
,,,,,WIN24_002,20,Female,2024-01-24_13h12.55.563,jersey_experiment_5,2023.2.2,Win32,84.03361345,,,,,,,,,,,,,,,,387.53,389.3298,389.3299,391.0239,return,0.5413,,89.19270833,,,,,,FBP-RB-71.png,0.45,1.2,20,1,0,28,28,19,1,,,,,,,,,,,,,,,,,,,,,,,,,,,,,,,,,,,,,,,,
,,,,,WIN24_002,20,Female,2024-01-24_13h12.55.563,jersey_experiment_5,2023.2.2,Win32,84.03361345,,,,,,,,,,,,,,,,391.0241,392.318,392.318,394.7417,return,1.2553,,22.39583333,,,,,,FBP-PT-71.png,0.35,1.2,46,0.5,0,29,29,45,1,,,,,,,,,,,,,,,,,,,,,,,,,,,,,,,,,,,,,,,,
,,,,,WIN24_002,20,Female,2024-01-24_13h12.55.563,jersey_experiment_5,2023.2.2,Win32,84.03361345,,,,,,,,,,,,,,,,394.742,396.0358,396.0358,397.6595,return,0.6377,,33.59375,,,,,,FBP-OG-18.png,0.37,1.2,7,0.5,0,30,30,6,1,,,,,,,,,,,,,,,,,,,,,,,,,,,,,,,,,,,,,,,,
,,,,,WIN24_002,20,Female,2024-01-24_13h12.55.563,jersey_experiment_5,2023.2.2,Win32,84.03361345,,,,,,,,,,,,,,,,397.6596,399.4597,399.4598,401.2479,return,1.0122,,86.58854167,,,,,,FBP-YG-17.png,0.45,1.2,35,1,0,31,31,34,1,,,,,,,,,,,,,,,,,,,,,,,,,,,,,,,,,,,,,,,,
,,,,,WIN24_002,20,Female,2024-01-24_13h12.55.563,jersey_experiment_5,2023.2.2,Win32,84.03361345,,,,,,,,,,,,,,,,401.2481,403.0478,403.0479,405.7656,return,0.6407,,21.74479167,,,,,,FBP-RB-91.png,0.35,1.2,26,1,0,32,32,25,1,,,,,,,,,,,,,,,,,,,,,,,,,,,,,,,,,,,,,,,,
,,,,,WIN24_002,20,Female,2024-01-24_13h12.55.563,jersey_experiment_5,2023.2.2,Win32,84.03361345,,,,,,,,,,,,,,,,405.7658,407.5659,407.5659,408.8598,return,0.5764,,89.0625,,,,,,FBP-RB-91.png,0.45,1.2,30,1,0,33,33,29,1,,,,,,,,,,,,,,,,,,,,,,,,,,,,,,,,,,,,,,,,
,,,,,WIN24_002,20,Female,2024-01-24_13h12.55.563,jersey_experiment_5,2023.2.2,Win32,84.03361345,,,,,,,,,,,,,,,,408.86,410.154,410.154,416.3189,return,5.4925,,51.04166667,,,,,,FBP-OG-19.png,0.37,1.2,12,0.5,0,34,34,11,1,,,,,,,,,,,,,,,,,,,,,,,,,,,,,,,,,,,,,,,,
,,,,,WIN24_002,20,Female,2024-01-24_13h12.55.563,jersey_experiment_5,2023.2.2,Win32,84.03361345,,,,,,,,,,,,,,,,416.3192,417.6131,417.6131,418.9543,return,0.6254,,46.22395833,,,,,,FBP-PT-81.png,0.37,1.2,52,0.5,0,35,35,51,1,,,,,,,,,,,,,,,,,,,,,,,,,,,,,,,,,,,,,,,,
,,,,,WIN24_002,20,Female,2024-01-24_13h12.55.563,jersey_experiment_5,2023.2.2,Win32,84.03361345,,,,,,,,,,,,,,,,418.9545,420.2484,420.2484,421.9308,return,0.6029,,40.88541667,,,,,,FBP-OG-17.png,0.37,1.2,2,0.5,0,36,36,1,1,,,,,,,,,,,,,,,,,,,,,,,,,,,,,,,,,,,,,,,,
,,,,,WIN24_002,20,Female,2024-01-24_13h12.55.563,jersey_experiment_5,2023.2.2,Win32,84.03361345,,,,,,,,,,,,,,,,421.9311,423.2251,423.2251,425.8015,return,0.5921,,87.23958333,,,,,,FBP-OG-17.png,0.45,1.2,5,0.5,0,37,37,4,1,,,,,,,,,,,,,,,,,,,,,,,,,,,,,,,,,,,,,,,,
,,,,,WIN24_002,20,Female,2024-01-24_13h12.55.563,jersey_experiment_5,2023.2.2,Win32,84.03361345,,,,,,,,,,,,,,,,425.8019,427.0957,427.0957,428.3429,return,0.7365,,93.359375,,,,,,FBP-PT-71.png,0.45,1.2,50,0.5,0,38,38,49,1,,,,,,,,,,,,,,,,,,,,,,,,,,,,,,,,,,,,,,,,
,,,,,WIN24_002,20,Female,2024-01-24_13h12.55.563,jersey_experiment_5,2023.2.2,Win32,84.03361345,,,,,,,,,,,,,,,,428.3431,430.1429,430.1429,431.4371,return,0.6495,,93.359375,,,,,,FBP-YG-19.png,0.45,1.2,45,1,0,39,39,44,1,,,,,,,,,,,,,,,,,,,,,,,,,,,,,,,,,,,,,,,,
,,,,,WIN24_002,20,Female,2024-01-24_13h12.55.563,jersey_experiment_5,2023.2.2,Win32,84.03361345,,,,,,,,,,,,,,,,431.4374,432.7312,432.7312,434.2843,return,0.6351,,24.47916667,,,,,,FBP-OG-18.png,0.35,1.2,6,0.5,0,40,40,5,1,,,,,,,,,,,,,,,,,,,,,,,,,,,,,,,,,,,,,,,,
,,,,,WIN24_002,20,Female,2024-01-24_13h12.55.563,jersey_experiment_5,2023.2.2,Win32,84.03361345,,,,,,,,,,,,,,,,434.2846,435.5785,435.5785,437.4961,return,0.5469,,82.16145833,,,,,,FBP-PT-81.png,0.43,1.2,54,0.5,0,41,41,53,1,,,,,,,,,,,,,,,,,,,,,,,,,,,,,,,,,,,,,,,,
,,,,,WIN24_002,20,Female,2024-01-24_13h12.55.563,jersey_experiment_5,2023.2.2,Win32,84.03361345,,,,,,,,,,,,,,,,437.4963,438.7902,438.7902,440.4139,return,0.5411,,80.46875,,,,,,FBP-OG-17.png,0.43,1.2,4,0.5,0,42,42,3,1,,,,,,,,,,,,,,,,,,,,,,,,,,,,,,,,,,,,,,,,
,,,,,WIN24_002,20,Female,2024-01-24_13h12.55.563,jersey_experiment_5,2023.2.2,Win32,84.03361345,,,,,,,,,,,,,,,,440.4141,441.708,441.708,443.1668,return,0.518,,22.91666667,,,,,,FBP-OG-19.png,0.35,1.2,11,0.5,0,43,43,10,1,,,,,,,,,,,,,,,,,,,,,,,,,,,,,,,,,,,,,,,,
,,,,,WIN24_002,20,Female,2024-01-24_13h12.55.563,jersey_experiment_5,2023.2.2,Win32,84.03361345,,,,,,,,,,,,,,,,443.1671,444.9672,444.9672,446.3199,return,0.4939,,70.3125,,,,,,FBP-RB-91.png,0.4,1.2,28,1,0,44,44,27,1,,,,,,,,,,,,,,,,,,,,,,,,,,,,,,,,,,,,,,,,
,,,,,WIN24_002,20,Female,2024-01-24_13h12.55.563,jersey_experiment_5,2023.2.2,Win32,84.03361345,,,,,,,,,,,,,,,,446.3202,448.12,448.1201,449.8612,return,0.5703,,2.864583333,,,,,,FBP-YG-19.png,0.35,1.2,41,1,0,45,45,40,1,,,,,,,,,,,,,,,,,,,,,,,,,,,,,,,,,,,,,,,,
,,,,,WIN24_002,20,Female,2024-01-24_13h12.55.563,jersey_experiment_5,2023.2.2,Win32,84.03361345,,,,,,,,,,,,,,,,449.8614,451.1555,451.1555,453.0613,return,0.9945,,82.94270833,,,,,,FBP-OG-18.png,0.45,1.2,10,0.5,0,46,46,9,1,,,,,,,,,,,,,,,,,,,,,,,,,,,,,,,,,,,,,,,,
,,,,,WIN24_002,20,Female,2024-01-24_13h12.55.563,jersey_experiment_5,2023.2.2,Win32,84.03361345,,,,,,,,,,,,,,,,453.0615,454.8613,454.8613,456.0849,return,0.6672,,77.734375,,,,,,FBP-RB-81.png,0.43,1.2,24,1,0,47,47,23,1,,,,,,,,,,,,,,,,,,,,,,,,,,,,,,,,,,,,,,,,
,,,,,WIN24_002,20,Female,2024-01-24_13h12.55.563,jersey_experiment_5,2023.2.2,Win32,84.03361345,,,,,,,,,,,,,,,,456.0851,457.8853,457.8854,459.3204,return,0.7228,,63.80208333,,,,,,FBP-YG-18.png,0.4,1.2,38,1,0,48,48,37,1,,,,,,,,,,,,,,,,,,,,,,,,,,,,,,,,,,,,,,,,
,,,,,WIN24_002,20,Female,2024-01-24_13h12.55.563,jersey_experiment_5,2023.2.2,Win32,84.03361345,,,,,,,,,,,,,,,,459.3206,461.1205,461.1206,462.2853,return,0.6017,,52.734375,,,,,,FBP-YG-17.png,0.37,1.2,32,1,0,49,49,31,1,,,,,,,,,,,,,,,,,,,,,,,,,,,,,,,,,,,,,,,,
,,,,,WIN24_002,20,Female,2024-01-24_13h12.55.563,jersey_experiment_5,2023.2.2,Win32,84.03361345,,,,,,,,,,,,,,,,462.2856,464.0855,464.0856,465.2147,return,0.5646,,33.46354167,,,,,,FBP-YG-17.png,0.35,1.2,31,1,0,50,50,30,1,,,,,,,,,,,,,,,,,,,,,,,,,,,,,,,,,,,,,,,,
,,,,,WIN24_002,20,Female,2024-01-24_13h12.55.563,jersey_experiment_5,2023.2.2,Win32,84.03361345,,,,,,,,,,,,,,,,465.215,467.0148,467.0148,467.9678,return,0.5983,,33.46354167,,,,,,FBP-RB-81.png,0.37,1.2,22,1,0,51,51,21,1,,,,,,,,,,,,,,,,,,,,,,,,,,,,,,,,,,,,,,,,
,,,,,WIN24_002,20,Female,2024-01-24_13h12.55.563,jersey_experiment_5,2023.2.2,Win32,84.03361345,,,,,,,,,,,,,,,,467.968,469.2618,469.2618,471.8503,return,0.6011,,78.515625,,,,,,FBP-OG-19.png,0.43,1.2,14,0.5,0,52,52,13,1,,,,,,,,,,,,,,,,,,,,,,,,,,,,,,,,,,,,,,,,
,,,,,WIN24_002,20,Female,2024-01-24_13h12.55.563,jersey_experiment_5,2023.2.2,Win32,84.03361345,,,,,,,,,,,,,,,,471.8505,473.6504,473.6504,475.7565,return,0.6603,,81.90104167,,,,,,FBP-RB-81.png,0.45,1.2,25,1,0,53,53,24,1,,,,,,,,,,,,,,,,,,,,,,,,,,,,,,,,,,,,,,,,
,,,,,WIN24_002,20,Female,2024-01-24_13h12.55.563,jersey_experiment_5,2023.2.2,Win32,84.03361345,,,,,,,,,,,,,,,,475.7568,477.5564,477.5565,479.1916,return,0.6177,,41.66666667,,,,,,FBP-RB-81.png,0.35,1.2,21,1,0,54,54,20,1,,,,,,,,,,,,,,,,,,,,,,,,,,,,,,,,,,,,,,,,
,,,,,WIN24_002,20,Female,2024-01-24_13h12.55.563,jersey_experiment_5,2023.2.2,Win32,84.03361345,,,,,,,,,,,,,,,,479.1919,480.992,480.9921,482.7801,return,0.8849,,78.38541667,,,,,,FBP-YG-19.png,0.43,1.2,44,1,0,55,55,43,1,,,,,,,,,,,,,,,,,,,,,,,,,,,,,,,,,,,,,,,,
,,,,,WIN24_002,20,Female,2024-01-24_13h12.55.563,jersey_experiment_5,2023.2.2,Win32,84.03361345,,,,,,,,,,,,,,,,482.7805,484.5803,484.5803,487.7921,return,2.508,,54.6875,,,,,,FBP-RB-71.png,0.37,1.2,17,1,0,56,56,16,1,,,,,,,,,,,,,,,,,,,,,,,,,,,,,,,,,,,,,,,,
,,,,,WIN24_002,20,Female,2024-01-24_13h12.55.563,jersey_experiment_5,2023.2.2,Win32,84.03361345,,,,,,,,,,,,,,,,487.7923,489.0862,489.0862,490.4627,return,0.6358,,82.03125,,,,,,FBP-OG-19.png,0.45,1.2,15,0.5,0,57,57,14,1,,,,,,,,,,,,,,,,,,,,,,,,,,,,,,,,,,,,,,,,
,,,,,WIN24_002,20,Female,2024-01-24_13h12.55.563,jersey_experiment_5,2023.2.2,Win32,84.03361345,,,,,,,,,,,,,,,,490.4629,492.2628,492.2628,495.3335,return,2.1122,,54.94791667,,,,,,FBP-YG-19.png,0.37,1.2,42,1,0,58,58,41,1,,,,,,,,,,,,,,,,,,,,,,,,,,,,,,,,,,,,,,,,
,,,,,WIN24_002,20,Female,2024-01-24_13h12.55.563,jersey_experiment_5,2023.2.2,Win32,84.03361345,,,,,,,,,,,,,,,,495.3337,497.1335,497.1335,498.8629,return,0.5977,,43.359375,,,,,,FBP-YG-18.png,0.37,1.2,37,1,0,59,59,36,1,,,,,,,,,,,,,,,,,,,,,,,,,,,,,,,,,,,,,,,,
,,,,,WIN24_002,20,Female,2024-01-24_13h12.55.563,jersey_experiment_5,2023.2.2,Win32,84.03361345,,,,,,,,,,,,,,,,,,,,,,,,,,,,,,,,,,,,,,,498.8633,618.8676,,,,,,,,,,,,,,,,,,,,,,,,,,,,,,,,,,,,,,
,,,,,WIN24_002,20,Female,2024-01-24_13h12.55.563,jersey_experiment_5,2023.2.2,Win32,84.03361345,,,,,,,,,,,,,,,,,,,,,,,,,,,,,,,,,,,,,,,,,618.8676,624.2794,return,5.4044,,,,,,,,,,,,,,,,,,,,,,,,,,,,,,,,,,
,,,,,WIN24_002,20,Female,2024-01-24_13h12.55.563,jersey_experiment_5,2023.2.2,Win32,84.03361345,,,,,,,,,,,,,,,,624.2859,625.5851,625.5851,629.35,return,0.2171,,80.98958333,,,,,,FBP-RB-18.png,0.43,1.2,24,0.5,,,,,,,,,,,,,0,0,0,23,1,,,,,,,,,,,,,,,,,,,,,,,,,,,,
,,,,,WIN24_002,20,Female,2024-01-24_13h12.55.563,jersey_experiment_5,2023.2.2,Win32,84.03361345,,,,,,,,,,,,,,,,629.3504,631.1501,631.1501,631.797,return,0.0768,,40.625,,,,,,FBP-PT-18.png,0.4,1.2,53,1,,,,,,,,,,,,,0,1,1,52,1,,,,,,,,,,,,,,,,,,,,,,,,,,,,
,,,,,WIN24_002,20,Female,2024-01-24_13h12.55.563,jersey_experiment_5,2023.2.2,Win32,84.03361345,,,,,,,,,,,,,,,,631.7974,633.5971,633.5971,634.1737,return,0.0475,,81.90104167,,,,,,FBP-OG-91.png,0.45,1.2,15,1,,,,,,,,,,,,,0,2,2,14,1,,,,,,,,,,,,,,,,,,,,,,,,,,,,
,,,,,WIN24_002,20,Female,2024-01-24_13h12.55.563,jersey_experiment_5,2023.2.2,Win32,84.03361345,,,,,,,,,,,,,,,,634.1739,635.4679,635.4679,636.2446,return,0.1618,,41.796875,,,,,,FBP-RB-17.png,0.35,1.2,16,0.5,,,,,,,,,,,,,0,3,3,15,1,,,,,,,,,,,,,,,,,,,,,,,,,,,,
,,,,,WIN24_002,20,Female,2024-01-24_13h12.55.563,jersey_experiment_5,2023.2.2,Win32,84.03361345,,,,,,,,,,,,,,,,636.2447,638.0444,638.0444,639.0326,return,0.1463,,19.01041667,,,,,,FBP-PT-17.png,0.35,1.2,46,1,,,,,,,,,,,,,0,4,4,45,1,,,,,,,,,,,,,,,,,,,,,,,,,,,,
,,,,,WIN24_002,20,Female,2024-01-24_13h12.55.563,jersey_experiment_5,2023.2.2,Win32,84.03361345,,,,,,,,,,,,,,,,639.0328,640.8326,640.8326,641.6562,return,0.0736,,13.671875,,,,,,FBP-OG-81.png,0.35,1.2,6,1,,,,,,,,,,,,,0,5,5,5,1,,,,,,,,,,,,,,,,,,,,,,,,,,,,
,,,,,WIN24_002,20,Female,2024-01-24_13h12.55.563,jersey_experiment_5,2023.2.2,Win32,84.03361345,,,,,,,,,,,,,,,,641.6564,642.9504,642.9504,643.9033,return,0.621,,13.671875,,,,,,FBP-RB-19.png,0.35,1.2,26,0.5,,,,,,,,,,,,,0,6,6,25,1,,,,,,,,,,,,,,,,,,,,,,,,,,,,
,,,,,WIN24_002,20,Female,2024-01-24_13h12.55.563,jersey_experiment_5,2023.2.2,Win32,84.03361345,,,,,,,,,,,,,,,,643.9036,645.1975,645.1975,645.927,return,0.1101,,23.046875,,,,,,FBP-RB-17.png,0.37,1.2,17,0.5,,,,,,,,,,,,,0,7,7,16,1,,,,,,,,,,,,,,,,,,,,,,,,,,,,
,,,,,WIN24_002,20,Female,2024-01-24_13h12.55.563,jersey_experiment_5,2023.2.2,Win32,84.03361345,,,,,,,,,,,,,,,,645.9273,647.2213,647.2214,649.327,return,0.9415,,53.515625,,,,,,FBP-YG-81.png,0.4,1.2,38,0.5,,,,,,,,,,,,,0,8,8,37,1,,,,,,,,,,,,,,,,,,,,,,,,,,,,
,,,,,WIN24_002,20,Female,2024-01-24_13h12.55.563,jersey_experiment_5,2023.2.2,Win32,84.03361345,,,,,,,,,,,,,,,,649.3272,651.1273,651.1273,651.8447,return,0.1007,,31.11979167,,,,,,FBP-OG-91.png,0.35,1.2,11,1,,,,,,,,,,,,,0,9,9,10,1,,,,,,,,,,,,,,,,,,,,,,,,,,,,
,,,,,WIN24_002,20,Female,2024-01-24_13h12.55.563,jersey_experiment_5,2023.2.2,Win32,84.03361345,,,,,,,,,,,,,,,,651.845,653.1391,653.1391,654.3626,return,0.109,,97.13541667,,,,,,FBP-YG-71.png,0.45,1.2,35,0.5,,,,,,,,,,,,,0,10,10,34,1,,,,,,,,,,,,,,,,,,,,,,,,,,,,
,,,,,WIN24_002,20,Female,2024-01-24_13h12.55.563,jersey_experiment_5,2023.2.2,Win32,84.03361345,,,,,,,,,,,,,,,,654.3628,656.1628,656.1629,657.2098,return,0.1419,,29.6875,,,,,,FBP-PT-18.png,0.35,1.2,51,1,,,,,,,,,,,,,0,11,11,50,1,,,,,,,,,,,,,,,,,,,,,,,,,,,,
,,,,,WIN24_002,20,Female,2024-01-24_13h12.55.563,jersey_experiment_5,2023.2.2,Win32,84.03361345,,,,,,,,,,,,,,,,657.21,659.0101,659.0101,659.9275,return,0.1237,,77.734375,,,,,,FBP-PT-17.png,0.45,1.2,50,1,,,,,,,,,,,,,0,12,12,49,1,,,,,,,,,,,,,,,,,,,,,,,,,,,,
,,,,,WIN24_002,20,Female,2024-01-24_13h12.55.563,jersey_experiment_5,2023.2.2,Win32,84.03361345,,,,,,,,,,,,,,,,659.9277,661.7278,661.7279,662.1981,return,0.1227,,86.97916667,,,,,,FBP-OG-71.png,0.45,1.2,5,1,,,,,,,,,,,,,0,13,13,4,1,,,,,,,,,,,,,,,,,,,,,,,,,,,,
,,,,,WIN24_002,20,Female,2024-01-24_13h12.55.563,jersey_experiment_5,2023.2.2,Win32,84.03361345,,,,,,,,,,,,,,,,662.1984,663.4922,663.4922,665.3277,return,0.7999,,55.46875,,,,,,FBP-RB-17.png,0.4,1.2,18,0.5,,,,,,,,,,,,,0,14,14,17,1,,,,,,,,,,,,,,,,,,,,,,,,,,,,
,,,,,WIN24_002,20,Female,2024-01-24_13h12.55.563,jersey_experiment_5,2023.2.2,Win32,84.03361345,,,,,,,,,,,,,,,,665.3279,667.1278,667.1278,667.8218,return,0.1892,,69.79166667,,,,,,FBP-PT-17.png,0.43,1.2,49,1,,,,,,,,,,,,,0,15,15,48,1,,,,,,,,,,,,,,,,,,,,,,,,,,,,
,,,,,WIN24_002,20,Female,2024-01-24_13h12.55.563,jersey_experiment_5,2023.2.2,Win32,84.03361345,,,,,,,,,,,,,,,,667.8221,669.1161,669.1161,670.1397,return,0.1054,,82.68229167,,,,,,FBP-RB-17.png,0.43,1.2,19,0.5,,,,,,,,,,,,,0,16,16,18,1,,,,,,,,,,,,,,,,,,,,,,,,,,,,
,,,,,WIN24_002,20,Female,2024-01-24_13h12.55.563,jersey_experiment_5,2023.2.2,Win32,84.03361345,,,,,,,,,,,,,,,,670.1399,671.9399,671.94,673.0691,return,0.2127,,28.64583333,,,,,,FBP-PT-19.png,0.35,1.2,56,1,,,,,,,,,,,,,0,17,17,55,1,,,,,,,,,,,,,,,,,,,,,,,,,,,,
,,,,,WIN24_002,20,Female,2024-01-24_13h12.55.563,jersey_experiment_5,2023.2.2,Win32,84.03361345,,,,,,,,,,,,,,,,673.0694,674.3634,674.3634,675.881,return,0.1317,,57.421875,,,,,,FBP-RB-18.png,0.4,1.2,23,0.5,,,,,,,,,,,,,0,18,18,22,1,,,,,,,,,,,,,,,,,,,,,,,,,,,,
,,,,,WIN24_002,20,Female,2024-01-24_13h12.55.563,jersey_experiment_5,2023.2.2,Win32,84.03361345,,,,,,,,,,,,,,,,675.8811,677.1751,677.1752,678.1988,return,0.136,,91.796875,,,,,,FBP-YG-91.png,0.45,1.2,45,0.5,,,,,,,,,,,,,0,19,19,44,1,,,,,,,,,,,,,,,,,,,,,,,,,,,,
,,,,,WIN24_002,20,Female,2024-01-24_13h12.55.563,jersey_experiment_5,2023.2.2,Win32,84.03361345,,,,,,,,,,,,,,,,678.1991,679.4932,679.4932,681.2577,return,0.1329,,82.55208333,,,,,,FBP-YG-81.png,0.43,1.2,39,0.5,,,,,,,,,,,,,0,20,20,38,1,,,,,,,,,,,,,,,,,,,,,,,,,,,,
,,,,,WIN24_002,20,Female,2024-01-24_13h12.55.563,jersey_experiment_5,2023.2.2,Win32,84.03361345,,,,,,,,,,,,,,,,681.2579,682.5518,682.5518,683.3989,return,0.1826,,93.88020833,,,,,,FBP-RB-17.png,0.45,1.2,20,0.5,,,,,,,,,,,,,0,21,21,19,1,,,,,,,,,,,,,,,,,,,,,,,,,,,,
,,,,,WIN24_002,20,Female,2024-01-24_13h12.55.563,jersey_experiment_5,2023.2.2,Win32,84.03361345,,,,,,,,,,,,,,,,683.3991,684.6931,684.6931,685.8931,return,0.124,,28.77604167,,,,,,FBP-RB-19.png,0.37,1.2,27,0.5,,,,,,,,,,,,,0,22,22,26,1,,,,,,,,,,,,,,,,,,,,,,,,,,,,
,,,,,WIN24_002,20,Female,2024-01-24_13h12.55.563,jersey_experiment_5,2023.2.2,Win32,84.03361345,,,,,,,,,,,,,,,,685.8933,687.6931,687.6931,688.9165,return,0.5356,,65.75520833,,,,,,FBP-OG-91.png,0.4,1.2,13,1,,,,,,,,,,,,,0,23,23,12,1,,,,,,,,,,,,,,,,,,,,,,,,,,,,
,,,,,WIN24_002,20,Female,2024-01-24_13h12.55.563,jersey_experiment_5,2023.2.2,Win32,84.03361345,,,,,,,,,,,,,,,,688.9168,690.2109,690.2109,691.0698,return,0.0709,,83.203125,,,,,,FBP-YG-71.png,0.43,1.2,34,0.5,,,,,,,,,,,,,0,24,24,33,1,,,,,,,,,,,,,,,,,,,,,,,,,,,,
,,,,,WIN24_002,20,Female,2024-01-24_13h12.55.563,jersey_experiment_5,2023.2.2,Win32,84.03361345,,,,,,,,,,,,,,,,691.07,692.3639,692.364,693.9756,return,0.1092,,23.56770833,,,,,,FBP-YG-71.png,0.35,1.2,31,0.5,,,,,,,,,,,,,0,25,25,30,1,,,,,,,,,,,,,,,,,,,,,,,,,,,,
,,,,,WIN24_002,20,Female,2024-01-24_13h12.55.563,jersey_experiment_5,2023.2.2,Win32,84.03361345,,,,,,,,,,,,,,,,693.9758,695.2698,695.2699,695.9405,return,0.1149,,34.11458333,,,,,,FBP-YG-91.png,0.37,1.2,42,0.5,,,,,,,,,,,,,0,26,26,41,1,,,,,,,,,,,,,,,,,,,,,,,,,,,,
,,,,,WIN24_002,20,Female,2024-01-24_13h12.55.563,jersey_experiment_5,2023.2.2,Win32,84.03361345,,,,,,,,,,,,,,,,695.9407,697.2347,697.2347,698.1523,return,0.0639,,79.94791667,,,,,,FBP-RB-19.png,0.43,1.2,29,0.5,,,,,,,,,,,,,0,27,27,28,1,,,,,,,,,,,,,,,,,,,,,,,,,,,,
,,,,,WIN24_002,20,Female,2024-01-24_13h12.55.563,jersey_experiment_5,2023.2.2,Win32,84.03361345,,,,,,,,,,,,,,,,698.1526,699.9524,699.9524,700.6818,return,0.1072,,59.765625,,,,,,FBP-OG-91.png,0.37,1.2,12,1,,,,,,,,,,,,,0,28,28,11,1,,,,,,,,,,,,,,,,,,,,,,,,,,,,
,,,,,WIN24_002,20,Female,2024-01-24_13h12.55.563,jersey_experiment_5,2023.2.2,Win32,84.03361345,,,,,,,,,,,,,,,,700.6821,701.9762,701.9762,702.4937,return,0.0809,,87.23958333,,,,,,FBP-YG-81.png,0.45,1.2,40,0.5,,,,,,,,,,,,,0,29,29,39,1,,,,,,,,,,,,,,,,,,,,,,,,,,,,
,,,,,WIN24_002,20,Female,2024-01-24_13h12.55.563,jersey_experiment_5,2023.2.2,Win32,84.03361345,,,,,,,,,,,,,,,,702.4939,703.7882,703.7882,704.6232,return,0.0707,,32.68229167,,,,,,FBP-YG-71.png,0.37,1.2,32,0.5,,,,,,,,,,,,,0,30,30,31,1,,,,,,,,,,,,,,,,,,,,,,,,,,,,
,,,,,WIN24_002,20,Female,2024-01-24_13h12.55.563,jersey_experiment_5,2023.2.2,Win32,84.03361345,,,,,,,,,,,,,,,,704.6234,706.4232,706.4232,707.6469,return,0.0948,,70.83333333,,,,,,FBP-OG-71.png,0.4,1.2,3,1,,,,,,,,,,,,,0,31,31,2,1,,,,,,,,,,,,,,,,,,,,,,,,,,,,
,,,,,WIN24_002,20,Female,2024-01-24_13h12.55.563,jersey_experiment_5,2023.2.2,Win32,84.03361345,,,,,,,,,,,,,,,,707.6471,709.4469,709.4469,711.341,return,0.0573,,70.18229167,,,,,,FBP-OG-81.png,0.4,1.2,8,1,,,,,,,,,,,,,0,32,32,7,1,,,,,,,,,,,,,,,,,,,,,,,,,,,,
,,,,,WIN24_002,20,Female,2024-01-24_13h12.55.563,jersey_experiment_5,2023.2.2,Win32,84.03361345,,,,,,,,,,,,,,,,711.3413,712.6352,712.6352,713.341,return,0.0938,,85.41666667,,,,,,FBP-YG-91.png,0.43,1.2,44,0.5,,,,,,,,,,,,,0,33,33,43,1,,,,,,,,,,,,,,,,,,,,,,,,,,,,
,,,,,WIN24_002,20,Female,2024-01-24_13h12.55.563,jersey_experiment_5,2023.2.2,Win32,84.03361345,,,,,,,,,,,,,,,,713.3412,715.1412,715.1412,715.694,return,0.1034,,88.54166667,,,,,,FBP-PT-18.png,0.43,1.2,54,1,,,,,,,,,,,,,0,34,34,53,1,,,,,,,,,,,,,,,,,,,,,,,,,,,,
,,,,,WIN24_002,20,Female,2024-01-24_13h12.55.563,jersey_experiment_5,2023.2.2,Win32,84.03361345,,,,,,,,,,,,,,,,715.6943,716.9883,716.9883,717.6942,return,0.1178,,88.54166667,,,,,,FBP-RB-19.png,0.4,1.2,28,0.5,,,,,,,,,,,,,0,35,35,27,1,,,,,,,,,,,,,,,,,,,,,,,,,,,,
,,,,,WIN24_002,20,Female,2024-01-24_13h12.55.563,jersey_experiment_5,2023.2.2,Win32,84.03361345,,,,,,,,,,,,,,,,717.6945,719.4945,719.4946,720.4472,return,0.1648,,27.08333333,,,,,,FBP-OG-71.png,0.35,1.2,1,1,,,,,,,,,,,,,0,36,36,0,1,,,,,,,,,,,,,,,,,,,,,,,,,,,,
,,,,,WIN24_002,20,Female,2024-01-24_13h12.55.563,jersey_experiment_5,2023.2.2,Win32,84.03361345,,,,,,,,,,,,,,,,720.4474,722.2473,722.2474,722.718,return,0.061,,19.921875,,,,,,FBP-OG-81.png,0.37,1.2,7,1,,,,,,,,,,,,,0,37,37,6,1,,,,,,,,,,,,,,,,,,,,,,,,,,,,
,,,,,WIN24_002,20,Female,2024-01-24_13h12.55.563,jersey_experiment_5,2023.2.2,Win32,84.03361345,,,,,,,,,,,,,,,,722.7183,724.0122,724.0122,724.8239,return,0.2036,,22.265625,,,,,,FBP-YG-81.png,0.37,1.2,37,0.5,,,,,,,,,,,,,0,38,38,36,1,,,,,,,,,,,,,,,,,,,,,,,,,,,,
,,,,,WIN24_002,20,Female,2024-01-24_13h12.55.563,jersey_experiment_5,2023.2.2,Win32,84.03361345,,,,,,,,,,,,,,,,724.8241,726.6241,726.6242,727.3181,return,0.1011,,90.625,,,,,,FBP-PT-18.png,0.45,1.2,55,1,,,,,,,,,,,,,0,39,39,54,1,,,,,,,,,,,,,,,,,,,,,,,,,,,,
,,,,,WIN24_002,20,Female,2024-01-24_13h12.55.563,jersey_experiment_5,2023.2.2,Win32,84.03361345,,,,,,,,,,,,,,,,727.3183,728.6122,728.6122,729.6125,return,0.259,,90.10416667,,,,,,FBP-RB-19.png,0.45,1.2,30,0.5,,,,,,,,,,,,,0,40,40,29,1,,,,,,,,,,,,,,,,,,,,,,,,,,,,
,,,,,WIN24_002,20,Female,2024-01-24_13h12.55.563,jersey_experiment_5,2023.2.2,Win32,84.03361345,,,,,,,,,,,,,,,,729.6125,731.4123,731.4123,732.1888,return,0.1043,,79.42708333,,,,,,FBP-OG-81.png,0.43,1.2,9,1,,,,,,,,,,,,,0,41,41,8,1,,,,,,,,,,,,,,,,,,,,,,,,,,,,
,,,,,WIN24_002,20,Female,2024-01-24_13h12.55.563,jersey_experiment_5,2023.2.2,Win32,84.03361345,,,,,,,,,,,,,,,,732.189,733.4833,733.4833,734.8477,return,0.104,,30.20833333,,,,,,FBP-RB-18.png,0.35,1.2,21,0.5,,,,,,,,,,,,,0,42,42,20,1,,,,,,,,,,,,,,,,,,,,,,,,,,,,
,,,,,WIN24_002,20,Female,2024-01-24_13h12.55.563,jersey_experiment_5,2023.2.2,Win32,84.03361345,,,,,,,,,,,,,,,,734.8479,736.142,736.142,737.295,return,0.2924,,13.28125,,,,,,FBP-YG-91.png,0.35,1.2,41,0.5,,,,,,,,,,,,,0,43,43,40,1,,,,,,,,,,,,,,,,,,,,,,,,,,,,
,,,,,WIN24_002,20,Female,2024-01-24_13h12.55.563,jersey_experiment_5,2023.2.2,Win32,84.03361345,,,,,,,,,,,,,,,,737.2952,739.0949,739.0949,740.1185,return,0.1811,,13.28125,,,,,,FBP-PT-18.png,0.37,1.2,52,1,,,,,,,,,,,,,0,44,44,51,1,,,,,,,,,,,,,,,,,,,,,,,,,,,,
,,,,,WIN24_002,20,Female,2024-01-24_13h12.55.563,jersey_experiment_5,2023.2.2,Win32,84.03361345,,,,,,,,,,,,,,,,740.1188,741.9186,741.9186,742.5657,return,0.229,,13.28125,,,,,,FBP-PT-19.png,0.37,1.2,57,1,,,,,,,,,,,,,0,45,45,56,1,,,,,,,,,,,,,,,,,,,,,,,,,,,,
,,,,,WIN24_002,20,Female,2024-01-24_13h12.55.563,jersey_experiment_5,2023.2.2,Win32,84.03361345,,,,,,,,,,,,,,,,742.5659,743.8598,743.8598,745.2951,return,0.1884,,41.796875,,,,,,FBP-YG-71.png,0.4,1.2,33,0.5,,,,,,,,,,,,,0,46,46,32,1,,,,,,,,,,,,,,,,,,,,,,,,,,,,
,,,,,WIN24_002,20,Female,2024-01-24_13h12.55.563,jersey_experiment_5,2023.2.2,Win32,84.03361345,,,,,,,,,,,,,,,,745.2953,746.5894,746.5894,747.613,return,0.3201,,32.55208333,,,,,,FBP-RB-18.png,0.37,1.2,22,0.5,,,,,,,,,,,,,0,47,47,21,1,,,,,,,,,,,,,,,,,,,,,,,,,,,,
,,,,,WIN24_002,20,Female,2024-01-24_13h12.55.563,jersey_experiment_5,2023.2.2,Win32,84.03361345,,,,,,,,,,,,,,,,747.6133,748.9071,748.9071,749.9424,return,0.1693,,37.36979167,,,,,,FBP-YG-91.png,0.4,1.2,43,0.5,,,,,,,,,,,,,0,48,48,42,1,,,,,,,,,,,,,,,,,,,,,,,,,,,,
,,,,,WIN24_002,20,Female,2024-01-24_13h12.55.563,jersey_experiment_5,2023.2.2,Win32,84.03361345,,,,,,,,,,,,,,,,749.9426,751.7424,751.7424,752.2484,return,0.0734,,22.78645833,,,,,,FBP-OG-71.png,0.37,1.2,2,1,,,,,,,,,,,,,0,49,49,1,1,,,,,,,,,,,,,,,,,,,,,,,,,,,,
,,,,,WIN24_002,20,Female,2024-01-24_13h12.55.563,jersey_experiment_5,2023.2.2,Win32,84.03361345,,,,,,,,,,,,,,,,752.2487,754.0486,754.0486,755.2718,return,0.6731,,75.52083333,,,,,,FBP-OG-91.png,0.43,1.2,14,1,,,,,,,,,,,,,0,50,50,13,1,,,,,,,,,,,,,,,,,,,,,,,,,,,,
,,,,,WIN24_002,20,Female,2024-01-24_13h12.55.563,jersey_experiment_5,2023.2.2,Win32,84.03361345,,,,,,,,,,,,,,,,755.2721,757.0722,757.0722,758.4134,return,0.9091,,39.32291667,,,,,,FBP-PT-17.png,0.37,1.2,47,1,,,,,,,,,,,,,0,51,51,46,1,,,,,,,,,,,,,,,,,,,,,,,,,,,,
,,,,,WIN24_002,20,Female,2024-01-24_13h12.55.563,jersey_experiment_5,2023.2.2,Win32,84.03361345,,,,,,,,,,,,,,,,758.4137,760.2132,760.2132,761.4841,return,0.1516,,45.05208333,,,,,,FBP-PT-17.png,0.4,1.2,48,1,,,,,,,,,,,,,0,52,52,47,1,,,,,,,,,,,,,,,,,,,,,,,,,,,,
,,,,,WIN24_002,20,Female,2024-01-24_13h12.55.563,jersey_experiment_5,2023.2.2,Win32,84.03361345,,,,,,,,,,,,,,,,761.4842,763.2843,763.2843,763.99,return,0.0993,,79.94791667,,,,,,FBP-OG-81.png,0.45,1.2,10,1,,,,,,,,,,,,,0,53,53,9,1,,,,,,,,,,,,,,,,,,,,,,,,,,,,
,,,,,WIN24_002,20,Female,2024-01-24_13h12.55.563,jersey_experiment_5,2023.2.2,Win32,84.03361345,,,,,,,,,,,,,,,,763.9902,765.2842,765.2842,766.3195,return,0.1183,,12.76041667,,,,,,FBP-YG-81.png,0.35,1.2,36,0.5,,,,,,,,,,,,,0,54,54,35,1,,,,,,,,,,,,,,,,,,,,,,,,,,,,
,,,,,WIN24_002,20,Female,2024-01-24_13h12.55.563,jersey_experiment_5,2023.2.2,Win32,84.03361345,,,,,,,,,,,,,,,,766.3197,768.1195,768.1195,769.5314,return,0.0958,,58.46354167,,,,,,FBP-OG-71.png,0.43,1.2,4,1,,,,,,,,,,,,,0,55,55,3,1,,,,,,,,,,,,,,,,,,,,,,,,,,,,
,,,,,WIN24_002,20,Female,2024-01-24_13h12.55.563,jersey_experiment_5,2023.2.2,Win32,84.03361345,,,,,,,,,,,,,,,,769.5316,771.3314,771.3315,771.7668,return,0.0774,,85.28645833,,,,,,FBP-PT-19.png,0.45,1.2,60,1,,,,,,,,,,,,,0,56,56,59,1,,,,,,,,,,,,,,,,,,,,,,,,,,,,
,,,,,WIN24_002,20,Female,2024-01-24_13h12.55.563,jersey_experiment_5,2023.2.2,Win32,84.03361345,,,,,,,,,,,,,,,,771.767,773.5668,773.5668,774.1668,return,0.1335,,75,,,,,,FBP-PT-19.png,0.43,1.2,59,1,,,,,,,,,,,,,0,57,57,58,1,,,,,,,,,,,,,,,,,,,,,,,,,,,,
,,,,,WIN24_002,20,Female,2024-01-24_13h12.55.563,jersey_experiment_5,2023.2.2,Win32,84.03361345,,,,,,,,,,,,,,,,774.167,775.9669,775.967,777.5669,return,0.7441,,61.58854167,,,,,,FBP-PT-19.png,0.4,1.2,58,1,,,,,,,,,,,,,0,58,58,57,1,,,,,,,,,,,,,,,,,,,,,,,,,,,,
,,,,,WIN24_002,20,Female,2024-01-24_13h12.55.563,jersey_experiment_5,2023.2.2,Win32,84.03361345,,,,,,,,,,,,,,,,777.5672,778.8611,778.8611,779.6376,return,0.0761,,88.54166667,,,,,,FBP-RB-18.png,0.45,1.2,25,0.5,,,,,,,,,,,,,0,59,59,24,1,,,,,,,,,,,,,,,,,,,,,,,,,,,,
,,,,,WIN24_002,20,Female,2024-01-24_13h12.55.563,jersey_experiment_5,2023.2.2,Win32,84.03361345,,,,,,,,,,,,,,,,779.6394,781.4376,781.4376,782.0259,return,0.0836,,92.1875,,,,,,FBP-OG-17.png,0.45,1.2,5,1,,,,,,,,,,,,,,,,,,0,0,0,4,1,,,,,,,,,,,,,,,,,,,,,,,
,,,,,WIN24_002,20,Female,2024-01-24_13h12.55.563,jersey_experiment_5,2023.2.2,Win32,84.03361345,,,,,,,,,,,,,,,,782.0262,783.32,783.32,784.0142,return,0.0615,,89.58333333,,,,,,FBP-RB-91.png,0.43,1.2,29,0.5,,,,,,,,,,,,,,,,,,0,1,1,28,1,,,,,,,,,,,,,,,,,,,,,,,
,,,,,WIN24_002,20,Female,2024-01-24_13h12.55.563,jersey_experiment_5,2023.2.2,Win32,84.03361345,,,,,,,,,,,,,,,,784.0145,785.3084,785.3084,785.9671,return,0.1409,,87.76041667,,,,,,FBP-RB-71.png,0.45,1.2,20,0.5,,,,,,,,,,,,,,,,,,0,2,2,19,1,,,,,,,,,,,,,,,,,,,,,,,
,,,,,WIN24_002,20,Female,2024-01-24_13h12.55.563,jersey_experiment_5,2023.2.2,Win32,84.03361345,,,,,,,,,,,,,,,,785.9673,787.7675,787.7675,788.6849,return,0.0941,,32.55208333,,,,,,FBP-OG-17.png,0.37,1.2,2,1,,,,,,,,,,,,,,,,,,0,3,3,1,1,,,,,,,,,,,,,,,,,,,,,,,
,,,,,WIN24_002,20,Female,2024-01-24_13h12.55.563,jersey_experiment_5,2023.2.2,Win32,84.03361345,,,,,,,,,,,,,,,,788.6851,790.485,790.485,791.638,return,0.1221,,28.125,,,,,,FBP-PT-91.png,0.37,1.2,57,1,,,,,,,,,,,,,,,,,,0,4,4,56,1,,,,,,,,,,,,,,,,,,,,,,,
,,,,,WIN24_002,20,Female,2024-01-24_13h12.55.563,jersey_experiment_5,2023.2.2,Win32,84.03361345,,,,,,,,,,,,,,,,791.6382,792.9322,792.9322,793.6734,return,0.2017,,28.125,,,,,,FBP-YG-18.png,0.37,1.2,37,0.5,,,,,,,,,,,,,,,,,,0,5,5,36,1,,,,,,,,,,,,,,,,,,,,,,,
,,,,,WIN24_002,20,Female,2024-01-24_13h12.55.563,jersey_experiment_5,2023.2.2,Win32,84.03361345,,,,,,,,,,,,,,,,793.6736,795.4735,795.4735,796.8264,return,0.1772,,61.58854167,,,,,,FBP-PT-71.png,0.43,1.2,49,1,,,,,,,,,,,,,,,,,,0,6,6,48,1,,,,,,,,,,,,,,,,,,,,,,,
,,,,,WIN24_002,20,Female,2024-01-24_13h12.55.563,jersey_experiment_5,2023.2.2,Win32,84.03361345,,,,,,,,,,,,,,,,796.8266,798.1207,798.1207,799.2616,return,0.084,,80.59895833,,,,,,FBP-YG-18.png,0.45,1.2,40,0.5,,,,,,,,,,,,,,,,,,0,7,7,39,1,,,,,,,,,,,,,,,,,,,,,,,
,,,,,WIN24_002,20,Female,2024-01-24_13h12.55.563,jersey_experiment_5,2023.2.2,Win32,84.03361345,,,,,,,,,,,,,,,,799.2618,801.0617,801.0618,801.5795,return,0.153,,80.59895833,,,,,,FBP-OG-18.png,0.45,1.2,10,1,,,,,,,,,,,,,,,,,,0,8,8,9,1,,,,,,,,,,,,,,,,,,,,,,,
,,,,,WIN24_002,20,Female,2024-01-24_13h12.55.563,jersey_experiment_5,2023.2.2,Win32,84.03361345,,,,,,,,,,,,,,,,801.5797,802.8736,802.8736,803.7324,return,0.279,,80.59895833,,,,,,FBP-YG-19.png,0.43,1.2,44,0.5,,,,,,,,,,,,,,,,,,0,9,9,43,1,,,,,,,,,,,,,,,,,,,,,,,
,,,,,WIN24_002,20,Female,2024-01-24_13h12.55.563,jersey_experiment_5,2023.2.2,Win32,84.03361345,,,,,,,,,,,,,,,,803.7328,805.0267,805.0268,808.7562,return,3.0442,,52.21354167,,,,,,FBP-YG-19.png,0.4,1.2,43,0.5,,,,,,,,,,,,,,,,,,0,10,10,42,1,,,,,,,,,,,,,,,,,,,,,,,
,,,,,WIN24_002,20,Female,2024-01-24_13h12.55.563,jersey_experiment_5,2023.2.2,Win32,84.03361345,,,,,,,,,,,,,,,,808.7563,810.5564,810.5565,811.3798,return,0.0298,,51.82291667,,,,,,FBP-OG-18.png,0.43,1.2,9,1,,,,,,,,,,,,,,,,,,0,11,11,8,1,,,,,,,,,,,,,,,,,,,,,,,
,,,,,WIN24_002,20,Female,2024-01-24_13h12.55.563,jersey_experiment_5,2023.2.2,Win32,84.03361345,,,,,,,,,,,,,,,,811.3801,812.6739,812.6739,813.5446,return,0.1101,,28.38541667,,,,,,FBP-YG-18.png,0.35,1.2,36,0.5,,,,,,,,,,,,,,,,,,0,12,12,35,1,,,,,,,,,,,,,,,,,,,,,,,
,,,,,WIN24_002,20,Female,2024-01-24_13h12.55.563,jersey_experiment_5,2023.2.2,Win32,84.03361345,,,,,,,,,,,,,,,,813.5449,815.3449,815.3449,815.627,return,0.0364,,60.80729167,,,,,,FBP-PT-71.png,0.45,1.2,50,1,,,,,,,,,,,,,,,,,,0,13,13,49,1,,,,,,,,,,,,,,,,,,,,,,,
,,,,,WIN24_002,20,Female,2024-01-24_13h12.55.563,jersey_experiment_5,2023.2.2,Win32,84.03361345,,,,,,,,,,,,,,,,815.6273,817.4271,817.4271,819.9095,return,1.5135,,47.78645833,,,,,,FBP-OG-19.png,0.4,1.2,13,1,,,,,,,,,,,,,,,,,,0,14,14,12,1,,,,,,,,,,,,,,,,,,,,,,,
,,,,,WIN24_002,20,Female,2024-01-24_13h12.55.563,jersey_experiment_5,2023.2.2,Win32,84.03361345,,,,,,,,,,,,,,,,819.9098,821.2038,821.2038,822.3331,return,0.081,,25.390625,,,,,,FBP-YG-17.png,0.37,1.2,32,0.5,,,,,,,,,,,,,,,,,,0,15,15,31,1,,,,,,,,,,,,,,,,,,,,,,,
,,,,,WIN24_002,20,Female,2024-01-24_13h12.55.563,jersey_experiment_5,2023.2.2,Win32,84.03361345,,,,,,,,,,,,,,,,822.3333,823.6275,823.6275,824.2862,return,0.2359,,28.38541667,,,,,,FBP-RB-71.png,0.35,1.2,16,0.5,,,,,,,,,,,,,,,,,,0,16,16,15,1,,,,,,,,,,,,,,,,,,,,,,,
,,,,,WIN24_002,20,Female,2024-01-24_13h12.55.563,jersey_experiment_5,2023.2.2,Win32,84.03361345,,,,,,,,,,,,,,,,824.2864,825.5804,825.5804,826.2392,return,0.2222,,28.125,,,,,,FBP-RB-71.png,0.37,1.2,17,0.5,,,,,,,,,,,,,,,,,,0,17,17,16,1,,,,,,,,,,,,,,,,,,,,,,,
,,,,,WIN24_002,20,Female,2024-01-24_13h12.55.563,jersey_experiment_5,2023.2.2,Win32,84.03361345,,,,,,,,,,,,,,,,826.2394,827.5334,827.5335,828.2982,return,0.0617,,23.17708333,,,,,,FBP-YG-19.png,0.35,1.2,41,0.5,,,,,,,,,,,,,,,,,,0,18,18,40,1,,,,,,,,,,,,,,,,,,,,,,,
,,,,,WIN24_002,20,Female,2024-01-24_13h12.55.563,jersey_experiment_5,2023.2.2,Win32,84.03361345,,,,,,,,,,,,,,,,828.2984,829.5923,829.5923,830.3334,return,0.5649,,23.17708333,,,,,,FBP-YG-17.png,0.35,1.2,31,0.5,,,,,,,,,,,,,,,,,,0,19,19,30,1,,,,,,,,,,,,,,,,,,,,,,,
,,,,,WIN24_002,20,Female,2024-01-24_13h12.55.563,jersey_experiment_5,2023.2.2,Win32,84.03361345,,,,,,,,,,,,,,,,830.3336,831.6275,831.6275,832.6865,return,0.1042,,78.90625,,,,,,FBP-RB-91.png,0.45,1.2,30,0.5,,,,,,,,,,,,,,,,,,0,20,20,29,1,,,,,,,,,,,,,,,,,,,,,,,
,,,,,WIN24_002,20,Female,2024-01-24_13h12.55.563,jersey_experiment_5,2023.2.2,Win32,84.03361345,,,,,,,,,,,,,,,,832.6867,833.9807,833.9807,834.6866,return,0.1651,,77.99479167,,,,,,FBP-RB-81.png,0.45,1.2,25,0.5,,,,,,,,,,,,,,,,,,0,21,21,24,1,,,,,,,,,,,,,,,,,,,,,,,
,,,,,WIN24_002,20,Female,2024-01-24_13h12.55.563,jersey_experiment_5,2023.2.2,Win32,84.03361345,,,,,,,,,,,,,,,,834.6868,836.4866,836.4866,837.0867,return,0.1282,,34.375,,,,,,FBP-OG-19.png,0.37,1.2,12,1,,,,,,,,,,,,,,,,,,0,22,22,11,1,,,,,,,,,,,,,,,,,,,,,,,
,,,,,WIN24_002,20,Female,2024-01-24_13h12.55.563,jersey_experiment_5,2023.2.2,Win32,84.03361345,,,,,,,,,,,,,,,,837.0869,838.8868,838.8868,839.4868,return,0.0806,,42.44791667,,,,,,FBP-PT-81.png,0.43,1.2,54,1,,,,,,,,,,,,,,,,,,0,23,23,53,1,,,,,,,,,,,,,,,,,,,,,,,
,,,,,WIN24_002,20,Female,2024-01-24_13h12.55.563,jersey_experiment_5,2023.2.2,Win32,84.03361345,,,,,,,,,,,,,,,,839.487,841.2869,841.2869,842.4749,return,0.2371,,61.06770833,,,,,,FBP-OG-19.png,0.43,1.2,14,1,,,,,,,,,,,,,,,,,,0,24,24,13,1,,,,,,,,,,,,,,,,,,,,,,,
,,,,,WIN24_002,20,Female,2024-01-24_13h12.55.563,jersey_experiment_5,2023.2.2,Win32,84.03361345,,,,,,,,,,,,,,,,842.4752,843.7691,843.7691,845.534,return,0.0948,,69.79166667,,,,,,FBP-RB-81.png,0.43,1.2,24,0.5,,,,,,,,,,,,,,,,,,0,25,25,23,1,,,,,,,,,,,,,,,,,,,,,,,
,,,,,WIN24_002,20,Female,2024-01-24_13h12.55.563,jersey_experiment_5,2023.2.2,Win32,84.03361345,,,,,,,,,,,,,,,,845.5342,847.3343,847.3344,848.8753,return,0.9662,,82.55208333,,,,,,FBP-OG-19.png,0.45,1.2,15,1,,,,,,,,,,,,,,,,,,0,26,26,14,1,,,,,,,,,,,,,,,,,,,,,,,
,,,,,WIN24_002,20,Female,2024-01-24_13h12.55.563,jersey_experiment_5,2023.2.2,Win32,84.03361345,,,,,,,,,,,,,,,,848.8755,850.1693,850.1694,851.5812,return,0.7159,,83.72395833,,,,,,FBP-YG-17.png,0.43,1.2,34,0.5,,,,,,,,,,,,,,,,,,0,27,27,33,1,,,,,,,,,,,,,,,,,,,,,,,
,,,,,WIN24_002,20,Female,2024-01-24_13h12.55.563,jersey_experiment_5,2023.2.2,Win32,84.03361345,,,,,,,,,,,,,,,,851.5815,853.3814,853.3814,853.7696,return,0.1678,,86.58854167,,,,,,FBP-PT-81.png,0.45,1.2,55,1,,,,,,,,,,,,,,,,,,0,28,28,54,1,,,,,,,,,,,,,,,,,,,,,,,
,,,,,WIN24_002,20,Female,2024-01-24_13h12.55.563,jersey_experiment_5,2023.2.2,Win32,84.03361345,,,,,,,,,,,,,,,,853.7697,855.5696,855.5696,856.0403,return,0.1439,,77.60416667,,,,,,FBP-PT-91.png,0.4,1.2,58,1,,,,,,,,,,,,,,,,,,0,29,29,57,1,,,,,,,,,,,,,,,,,,,,,,,
,,,,,WIN24_002,20,Female,2024-01-24_13h12.55.563,jersey_experiment_5,2023.2.2,Win32,84.03361345,,,,,,,,,,,,,,,,856.0404,857.3348,857.3348,858.0404,return,0.228,,58.203125,,,,,,FBP-RB-91.png,0.4,1.2,28,0.5,,,,,,,,,,,,,,,,,,0,30,30,27,1,,,,,,,,,,,,,,,,,,,,,,,
,,,,,WIN24_002,20,Female,2024-01-24_13h12.55.563,jersey_experiment_5,2023.2.2,Win32,84.03361345,,,,,,,,,,,,,,,,858.0406,859.8404,859.8404,860.9698,return,0.2239,,58.07291667,,,,,,FBP-PT-71.png,0.4,1.2,48,1,,,,,,,,,,,,,,,,,,0,31,31,47,1,,,,,,,,,,,,,,,,,,,,,,,
,,,,,WIN24_002,20,Female,2024-01-24_13h12.55.563,jersey_experiment_5,2023.2.2,Win32,84.03361345,,,,,,,,,,,,,,,,860.97,862.7699,862.7699,865.8524,return,0.1177,,58.07291667,,,,,,FBP-PT-91.png,0.45,1.2,60,1,,,,,,,,,,,,,,,,,,0,32,32,59,1,,,,,,,,,,,,,,,,,,,,,,,
,,,,,WIN24_002,20,Female,2024-01-24_13h12.55.563,jersey_experiment_5,2023.2.2,Win32,84.03361345,,,,,,,,,,,,,,,,865.8526,867.1465,867.1465,868.0289,return,0.1888,,79.03645833,,,,,,FBP-YG-17.png,0.45,1.2,35,0.5,,,,,,,,,,,,,,,,,,0,33,33,34,1,,,,,,,,,,,,,,,,,,,,,,,
,,,,,WIN24_002,20,Female,2024-01-24_13h12.55.563,jersey_experiment_5,2023.2.2,Win32,84.03361345,,,,,,,,,,,,,,,,868.0291,869.8289,869.829,870.7349,return,0.2206,,72.39583333,,,,,,FBP-OG-18.png,0.4,1.2,8,1,,,,,,,,,,,,,,,,,,0,34,34,7,1,,,,,,,,,,,,,,,,,,,,,,,
,,,,,WIN24_002,20,Female,2024-01-24_13h12.55.563,jersey_experiment_5,2023.2.2,Win32,84.03361345,,,,,,,,,,,,,,,,870.7351,872.5349,872.5349,873.4055,return,0.1878,,79.03645833,,,,,,FBP-PT-91.png,0.43,1.2,59,1,,,,,,,,,,,,,,,,,,0,35,35,58,1,,,,,,,,,,,,,,,,,,,,,,,
,,,,,WIN24_002,20,Female,2024-01-24_13h12.55.563,jersey_experiment_5,2023.2.2,Win32,84.03361345,,,,,,,,,,,,,,,,873.4056,874.6997,874.6997,875.8644,return,0.1456,,92.31770833,,,,,,FBP-YG-19.png,0.45,1.2,45,0.5,,,,,,,,,,,,,,,,,,0,36,36,44,1,,,,,,,,,,,,,,,,,,,,,,,
,,,,,WIN24_002,20,Female,2024-01-24_13h12.55.563,jersey_experiment_5,2023.2.2,Win32,84.03361345,,,,,,,,,,,,,,,,875.8645,877.1587,877.1587,878.747,return,0.1555,,18.88020833,,,,,,FBP-RB-81.png,0.37,1.2,22,0.5,,,,,,,,,,,,,,,,,,0,37,37,21,1,,,,,,,,,,,,,,,,,,,,,,,
,,,,,WIN24_002,20,Female,2024-01-24_13h12.55.563,jersey_experiment_5,2023.2.2,Win32,84.03361345,,,,,,,,,,,,,,,,878.7473,880.0412,880.0412,880.7588,return,0.0765,,16.14583333,,,,,,FBP-RB-81.png,0.35,1.2,21,0.5,,,,,,,,,,,,,,,,,,0,38,38,20,1,,,,,,,,,,,,,,,,,,,,,,,
,,,,,WIN24_002,20,Female,2024-01-24_13h12.55.563,jersey_experiment_5,2023.2.2,Win32,84.03361345,,,,,,,,,,,,,,,,880.759,882.0532,882.0532,882.6059,return,0.0609,,21.484375,,,,,,FBP-RB-91.png,0.37,1.2,27,0.5,,,,,,,,,,,,,,,,,,0,39,39,26,1,,,,,,,,,,,,,,,,,,,,,,,
,,,,,WIN24_002,20,Female,2024-01-24_13h12.55.563,jersey_experiment_5,2023.2.2,Win32,84.03361345,,,,,,,,,,,,,,,,882.6062,884.4061,884.4061,885.0061,return,0.1655,,5.078125,,,,,,FBP-OG-18.png,0.35,1.2,6,1,,,,,,,,,,,,,,,,,,0,40,40,5,1,,,,,,,,,,,,,,,,,,,,,,,
,,,,,WIN24_002,20,Female,2024-01-24_13h12.55.563,jersey_experiment_5,2023.2.2,Win32,84.03361345,,,,,,,,,,,,,,,,885.0064,886.3002,886.3002,888.5237,return,0.5286,,36.84895833,,,,,,FBP-YG-18.png,0.4,1.2,38,0.5,,,,,,,,,,,,,,,,,,0,41,41,37,1,,,,,,,,,,,,,,,,,,,,,,,
,,,,,WIN24_002,20,Female,2024-01-24_13h12.55.563,jersey_experiment_5,2023.2.2,Win32,84.03361345,,,,,,,,,,,,,,,,888.524,890.324,890.324,891.2767,return,0.0334,,3.645833333,,,,,,FBP-PT-71.png,0.35,1.2,46,1,,,,,,,,,,,,,,,,,,0,42,42,45,1,,,,,,,,,,,,,,,,,,,,,,,
,,,,,WIN24_002,20,Female,2024-01-24_13h12.55.563,jersey_experiment_5,2023.2.2,Win32,84.03361345,,,,,,,,,,,,,,,,891.277,892.5709,892.5709,896.3947,return,0.0609,,58.72395833,,,,,,FBP-RB-81.png,0.4,1.2,23,0.5,,,,,,,,,,,,,,,,,,0,43,43,22,1,,,,,,,,,,,,,,,,,,,,,,,
,,,,,WIN24_002,20,Female,2024-01-24_13h12.55.563,jersey_experiment_5,2023.2.2,Win32,84.03361345,,,,,,,,,,,,,,,,896.3949,898.1946,898.1946,900.3477,return,0.0847,,42.05729167,,,,,,FBP-OG-18.png,0.37,1.2,7,1,,,,,,,,,,,,,,,,,,0,44,44,6,1,,,,,,,,,,,,,,,,,,,,,,,
,,,,,WIN24_002,20,Female,2024-01-24_13h12.55.563,jersey_experiment_5,2023.2.2,Win32,84.03361345,,,,,,,,,,,,,,,,900.3478,901.642,901.642,908.3245,return,0.1376,,34.24479167,,,,,,FBP-YG-19.png,0.37,1.2,42,0.5,,,,,,,,,,,,,,,,,,0,45,45,41,1,,,,,,,,,,,,,,,,,,,,,,,
,,,,,WIN24_002,20,Female,2024-01-24_13h12.55.563,jersey_experiment_5,2023.2.2,Win32,84.03361345,,,,,,,,,,,,,,,,908.3247,910.1243,910.1243,910.901,return,0.0782,,11.19791667,,,,,,FBP-PT-71.png,0.37,1.2,47,1,,,,,,,,,,,,,,,,,,0,46,46,46,1,,,,,,,,,,,,,,,,,,,,,,,
,,,,,WIN24_002,20,Female,2024-01-24_13h12.55.563,jersey_experiment_5,2023.2.2,Win32,84.03361345,,,,,,,,,,,,,,,,910.9013,912.1951,912.1952,916.6071,return,0.1323,,77.47395833,,,,,,FBP-YG-18.png,0.43,1.2,39,0.5,,,,,,,,,,,,,,,,,,0,47,47,38,1,,,,,,,,,,,,,,,,,,,,,,,
,,,,,WIN24_002,20,Female,2024-01-24_13h12.55.563,jersey_experiment_5,2023.2.2,Win32,84.03361345,,,,,,,,,,,,,,,,916.6074,918.407,918.4071,921.525,return,0.1708,,28.125,,,,,,FBP-OG-19.png,0.35,1.2,11,1,,,,,,,,,,,,,,,,,,0,48,48,10,1,,,,,,,,,,,,,,,,,,,,,,,
,,,,,WIN24_002,20,Female,2024-01-24_13h12.55.563,jersey_experiment_5,2023.2.2,Win32,84.03361345,,,,,,,,,,,,,,,,921.5252,923.325,923.325,923.9486,return,0.1657,,28.125,,,,,,FBP-OG-17.png,0.35,1.2,1,1,,,,,,,,,,,,,,,,,,0,49,49,0,1,,,,,,,,,,,,,,,,,,,,,,,
,,,,,WIN24_002,20,Female,2024-01-24_13h12.55.563,jersey_experiment_5,2023.2.2,Win32,84.03361345,,,,,,,,,,,,,,,,923.9488,925.2427,925.2427,926.584,return,0.3699,,75,,,,,,FBP-RB-71.png,0.43,1.2,19,0.5,,,,,,,,,,,,,,,,,,0,50,50,18,1,,,,,,,,,,,,,,,,,,,,,,,
,,,,,WIN24_002,20,Female,2024-01-24_13h12.55.563,jersey_experiment_5,2023.2.2,Win32,84.03361345,,,,,,,,,,,,,,,,926.5842,928.3839,928.3839,929.5604,return,0.1217,,33.203125,,,,,,FBP-PT-81.png,0.37,1.2,52,1,,,,,,,,,,,,,,,,,,0,51,51,51,1,,,,,,,,,,,,,,,,,,,,,,,
,,,,,WIN24_002,20,Female,2024-01-24_13h12.55.563,jersey_experiment_5,2023.2.2,Win32,84.03361345,,,,,,,,,,,,,,,,929.5607,930.8546,930.8546,932.5253,return,0.1883,,88.28125,,,,,,FBP-YG-17.png,0.4,1.2,33,0.5,,,,,,,,,,,,,,,,,,0,52,52,32,1,,,,,,,,,,,,,,,,,,,,,,,
,,,,,WIN24_002,20,Female,2024-01-24_13h12.55.563,jersey_experiment_5,2023.2.2,Win32,84.03361345,,,,,,,,,,,,,,,,932.5255,934.3252,934.3252,936.702,return,1.6374,,43.09895833,,,,,,FBP-PT-91.png,0.35,1.2,56,1,,,,,,,,,,,,,,,,,,0,53,53,55,1,,,,,,,,,,,,,,,,,,,,,,,
,,,,,WIN24_002,20,Female,2024-01-24_13h12.55.563,jersey_experiment_5,2023.2.2,Win32,84.03361345,,,,,,,,,,,,,,,,936.7021,937.9961,937.9961,939.4667,return,0.1196,,13.93229167,,,,,,FBP-RB-91.png,0.35,1.2,26,0.5,,,,,,,,,,,,,,,,,,0,54,54,25,1,,,,,,,,,,,,,,,,,,,,,,,
,,,,,WIN24_002,20,Female,2024-01-24_13h12.55.563,jersey_experiment_5,2023.2.2,Win32,84.03361345,,,,,,,,,,,,,,,,939.467,941.2668,941.2668,943.1022,return,0.1408,,78.77604167,,,,,,FBP-OG-17.png,0.43,1.2,4,1,,,,,,,,,,,,,,,,,,0,55,55,3,1,,,,,,,,,,,,,,,,,,,,,,,
,,,,,WIN24_002,20,Female,2024-01-24_13h12.55.563,jersey_experiment_5,2023.2.2,Win32,84.03361345,,,,,,,,,,,,,,,,943.1025,944.9024,944.9024,945.6081,return,0.0608,,74.609375,,,,,,FBP-OG-17.png,0.4,1.2,3,1,,,,,,,,,,,,,,,,,,0,56,56,2,1,,,,,,,,,,,,,,,,,,,,,,,
,,,,,WIN24_002,20,Female,2024-01-24_13h12.55.563,jersey_experiment_5,2023.2.2,Win32,84.03361345,,,,,,,,,,,,,,,,945.6084,947.4083,947.4084,947.9965,return,0.0848,,7.291666667,,,,,,FBP-PT-81.png,0.35,1.2,51,1,,,,,,,,,,,,,,,,,,0,57,57,50,1,,,,,,,,,,,,,,,,,,,,,,,
,,,,,WIN24_002,20,Female,2024-01-24_13h12.55.563,jersey_experiment_5,2023.2.2,Win32,84.03361345,,,,,,,,,,,,,,,,947.9967,949.2906,949.2906,950.5378,return,0.1087,,19.140625,,,,,,FBP-RB-71.png,0.4,1.2,18,0.5,,,,,,,,,,,,,,,,,,0,58,58,17,1,,,,,,,,,,,,,,,,,,,,,,,
,,,,,WIN24_002,20,Female,2024-01-24_13h12.55.563,jersey_experiment_5,2023.2.2,Win32,84.03361345,,,,,,,,,,,,,,,,950.538,952.3378,952.3378,952.8084,return,0.0986,,44.140625,,,,,,FBP-PT-81.png,0.4,1.2,53,1,,,,,,,,,,,,,,,,,,0,59,59,52,1,,,,,,,,,,,,,,,,,,,,,,,
,,,,,WIN24_002,20,Female,2024-01-24_13h12.55.563,jersey_experiment_5,2023.2.2,Win32,84.03361345,,,,,,,,,,,,,,,,,,,,,,,,,,,,,,,,,,,,,,,,,,,,,,,,,,,,,,,,952.8087,959.209,return,6.3904,,,,,,,,,,,,,,,,,,,
,,,,,WIN24_002,20,Female,2024-01-24_13h12.55.563,jersey_experiment_5,2023.2.2,Win32,84.03361345,,,,,,,,,,,,,,,,,,,,,,,,,,,,,,,,,,,,,,,,,,,,,,,,,,,,,,,,,,,,,959.2091,963.7971,1,3.8582,return,0.7132,,,,,,,,,,,,
,,,,,WIN24_002,20,Female,2024-01-24_13h12.55.563,jersey_experiment_5,2023.2.2,Win32,84.03361345,,,,,,,,,,,,,,,,,,,,,,,,,,,,,,,,,,,,,,,,,,,,,,,,,,,,,,,,,,,,,,,,,,,,963.7973,993.6974,Racial bias in making quick judgements about appearance.,right,23.765,,,,,,
,,,,,WIN24_002,20,Female,2024-01-24_13h12.55.563,jersey_experiment_5,2023.2.2,Win32,84.03361345,,,,,,,,,,,,,,,,,,,,,,,,,,,,,,,,,,,,,,,,,,,,,,,,,,,,,,,,,,,,,,,,,,,,,,,,,,993.6975,998.0455,return,4.3373,