requirements.started,requirements.stopped,key_resp_3.keys,key_resp_3.rt,key_resp_3.duration,Subject ID,Age,Gender,date,expName,psychopyVersion,OS,frameRate,instructions1.started,instructions1.stopped,key_resp.keys,key_resp.rt,key_resp.duration,example.started,example.stopped,enter_2.keys,enter_2.rt,enter_2.duration,instructions2.started,instructions2.stopped,enter_3.keys,enter_3.rt,enter_3.duration,image.started,image.stopped,slider_2.started,slider_2.stopped,next.keys,next.rt,next.duration,slider.response,trial_block_1.thisRepN,trial_block_1.thisTrialN,trial_block_1.thisN,trial_block_1.thisIndex,trial_block_1.ran,Path,Width,Height,Index,Duration,trial_block_2.thisRepN,trial_block_2.thisTrialN,trial_block_2.thisN,trial_block_2.thisIndex,trial_block_2.ran,rest_break.started,rest_break.stopped,end_break.started,end_break.stopped,key_resp_5.keys,key_resp_5.rt,key_resp_5.duration,trial_block_3.thisRepN,trial_block_3.thisTrialN,trial_block_3.thisN,trial_block_3.thisIndex,trial_block_3.ran,trial_block_4.thisRepN,trial_block_4.thisTrialN,trial_block_4.thisN,trial_block_4.thisIndex,trial_block_4.ran,questions_intro.started,questions_intro.stopped,enter_12.keys,enter_12.rt,enter_12.duration,question2.started,question2.stopped,question_doingbest.response,question_doingbest.rt,enter_15.keys,enter_15.rt,enter_15.duration,pattern.started,pattern.stopped,pattern_2.text,enter_17.keys,enter_17.rt,enter_17.duration,thankyou.started,thankyou.stopped,enter_14.keys,enter_14.rt,enter_14.duration
0.0001,9.3398,return,9.3343,,WIN24_042,21,Female,2024-02-08_13h05.31.396,jersey_experiment_5,2023.2.2,Win32,85.47008547,,,,,,,,,,,,,,,,,,,,,,,,,,,,,,,,,,,,,,,,,,,,,,,,,,,,,,,,,,,,,,,,,,,,,,,,,,,,,,
,,,,,WIN24_042,21,Female,2024-02-08_13h05.31.396,jersey_experiment_5,2023.2.2,Win32,85.47008547,9.3399,16.9124,return,7.5623,,,,,,,,,,,,,,,,,,,,,,,,,,,,,,,,,,,,,,,,,,,,,,,,,,,,,,,,,,,,,,,,,,,,,,,,,,
,,,,,WIN24_042,21,Female,2024-02-08_13h05.31.396,jersey_experiment_5,2023.2.2,Win32,85.47008547,,,,,,16.9124,21.4154,return,4.4703,,,,,,,,,,,,,,,,,,,,,,,,,,,,,,,,,,,,,,,,,,,,,,,,,,,,,,,,,,,,,,,,,,,,,
,,,,,WIN24_042,21,Female,2024-02-08_13h05.31.396,jersey_experiment_5,2023.2.2,Win32,85.47008547,,,,,,,,,,,21.4155,54.9343,return,33.5033,,,,,,,,,,,,,,,,,,,,,,,,,,,,,,,,,,,,,,,,,,,,,,,,,,,,,,,,,,,,,,,,
,,,,,WIN24_042,21,Female,2024-02-08_13h05.31.396,jersey_experiment_5,2023.2.2,Win32,85.47008547,,,,,,,,,,,,,,,,54.9415,56.7341,56.7343,65.1346,return,4.0565,,24.73958333,0,0,0,31,1,FBP-YG-71.png,0.37,1.2,32,1,,,,,,,,,,,,,,,,,,,,,,,,,,,,,,,,,,,,,,,,,,,,,
,,,,,WIN24_042,21,Female,2024-02-08_13h05.31.396,jersey_experiment_5,2023.2.2,Win32,85.47008547,,,,,,,,,,,,,,,,65.139,66.4403,66.4404,70.1228,return,1.0017,,74.47916667,0,1,1,8,1,FBP-OG-81.png,0.43,1.2,9,0.5,,,,,,,,,,,,,,,,,,,,,,,,,,,,,,,,,,,,,,,,,,,,,
,,,,,WIN24_042,21,Female,2024-02-08_13h05.31.396,jersey_experiment_5,2023.2.2,Win32,85.47008547,,,,,,,,,,,,,,,,70.1231,71.4168,71.4169,74.6406,return,1.4114,,74.73958333,0,2,2,12,1,FBP-OG-91.png,0.4,1.2,13,0.5,,,,,,,,,,,,,,,,,,,,,,,,,,,,,,,,,,,,,,,,,,,,,
,,,,,WIN24_042,21,Female,2024-02-08_13h05.31.396,jersey_experiment_5,2023.2.2,Win32,85.47008547,,,,,,,,,,,,,,,,74.6409,75.9348,75.9349,86.9588,return,9.6148,,94.921875,0,3,3,59,1,FBP-PT-19.png,0.45,1.2,60,0.5,,,,,,,,,,,,,,,,,,,,,,,,,,,,,,,,,,,,,,,,,,,,,
,,,,,WIN24_042,21,Female,2024-02-08_13h05.31.396,jersey_experiment_5,2023.2.2,Win32,85.47008547,,,,,,,,,,,,,,,,86.9635,88.7588,88.7588,92.9237,return,1.3074,,93.61979167,0,4,4,28,1,FBP-RB-19.png,0.43,1.2,29,1,,,,,,,,,,,,,,,,,,,,,,,,,,,,,,,,,,,,,,,,,,,,,
,,,,,WIN24_042,21,Female,2024-02-08_13h05.31.396,jersey_experiment_5,2023.2.2,Win32,85.47008547,,,,,,,,,,,,,,,,92.9238,94.7238,94.7239,100.6652,return,0.7445,,52.60416667,0,5,5,27,1,FBP-RB-19.png,0.4,1.2,28,1,,,,,,,,,,,,,,,,,,,,,,,,,,,,,,,,,,,,,,,,,,,,,
,,,,,WIN24_042,21,Female,2024-02-08_13h05.31.396,jersey_experiment_5,2023.2.2,Win32,85.47008547,,,,,,,,,,,,,,,,100.6654,102.4652,102.4652,105.5948,return,0.5571,,71.09375,0,6,6,23,1,FBP-RB-18.png,0.43,1.2,24,1,,,,,,,,,,,,,,,,,,,,,,,,,,,,,,,,,,,,,,,,,,,,,
,,,,,WIN24_042,21,Female,2024-02-08_13h05.31.396,jersey_experiment_5,2023.2.2,Win32,85.47008547,,,,,,,,,,,,,,,,105.595,106.8889,106.8889,110.5595,return,1.4356,,12.890625,0,7,7,57,1,FBP-PT-19.png,0.4,1.2,58,0.5,,,,,,,,,,,,,,,,,,,,,,,,,,,,,,,,,,,,,,,,,,,,,
,,,,,WIN24_042,21,Female,2024-02-08_13h05.31.396,jersey_experiment_5,2023.2.2,Win32,85.47008547,,,,,,,,,,,,,,,,110.5598,111.8538,111.8538,114.0068,return,0.8884,,6.510416667,0,8,8,56,1,FBP-PT-19.png,0.37,1.2,57,0.5,,,,,,,,,,,,,,,,,,,,,,,,,,,,,,,,,,,,,,,,,,,,,
,,,,,WIN24_042,21,Female,2024-02-08_13h05.31.396,jersey_experiment_5,2023.2.2,Win32,85.47008547,,,,,,,,,,,,,,,,114.007,115.301,115.301,117.7246,return,0.661,,98.69791667,0,9,9,4,1,FBP-OG-71.png,0.45,1.2,5,0.5,,,,,,,,,,,,,,,,,,,,,,,,,,,,,,,,,,,,,,,,,,,,,
,,,,,WIN24_042,21,Female,2024-02-08_13h05.31.396,jersey_experiment_5,2023.2.2,Win32,85.47008547,,,,,,,,,,,,,,,,117.7248,119.5246,119.5246,123.4776,return,0.6324,,43.75,0,10,10,21,1,FBP-RB-18.png,0.37,1.2,22,1,,,,,,,,,,,,,,,,,,,,,,,,,,,,,,,,,,,,,,,,,,,,,
,,,,,WIN24_042,21,Female,2024-02-08_13h05.31.396,jersey_experiment_5,2023.2.2,Win32,85.47008547,,,,,,,,,,,,,,,,123.478,125.2778,125.2778,127.1603,return,0.5581,,30.72916667,0,11,11,40,1,FBP-YG-91.png,0.35,1.2,41,1,,,,,,,,,,,,,,,,,,,,,,,,,,,,,,,,,,,,,,,,,,,,,
,,,,,WIN24_042,21,Female,2024-02-08_13h05.31.396,jersey_experiment_5,2023.2.2,Win32,85.47008547,,,,,,,,,,,,,,,,127.1605,128.9603,128.9603,130.4898,return,0.6755,,27.47395833,0,12,12,20,1,FBP-RB-18.png,0.35,1.2,21,1,,,,,,,,,,,,,,,,,,,,,,,,,,,,,,,,,,,,,,,,,,,,,
,,,,,WIN24_042,21,Female,2024-02-08_13h05.31.396,jersey_experiment_5,2023.2.2,Win32,85.47008547,,,,,,,,,,,,,,,,130.49,131.784,131.784,134.1841,return,0.7717,,91.796875,0,13,13,49,1,FBP-PT-17.png,0.45,1.2,50,0.5,,,,,,,,,,,,,,,,,,,,,,,,,,,,,,,,,,,,,,,,,,,,,
,,,,,WIN24_042,21,Female,2024-02-08_13h05.31.396,jersey_experiment_5,2023.2.2,Win32,85.47008547,,,,,,,,,,,,,,,,134.1844,135.4782,135.4783,137.6077,return,0.6658,,99.86979167,0,14,14,48,1,FBP-PT-17.png,0.43,1.2,49,0.5,,,,,,,,,,,,,,,,,,,,,,,,,,,,,,,,,,,,,,,,,,,,,
,,,,,WIN24_042,21,Female,2024-02-08_13h05.31.396,jersey_experiment_5,2023.2.2,Win32,85.47008547,,,,,,,,,,,,,,,,137.6079,139.4078,139.4079,146.361,return,2.3591,,75.65104167,0,15,15,37,1,FBP-YG-81.png,0.4,1.2,38,1,,,,,,,,,,,,,,,,,,,,,,,,,,,,,,,,,,,,,,,,,,,,,
,,,,,WIN24_042,21,Female,2024-02-08_13h05.31.396,jersey_experiment_5,2023.2.2,Win32,85.47008547,,,,,,,,,,,,,,,,146.3611,148.1611,148.1611,151.2083,return,0.5809,,23.30729167,0,16,16,25,1,FBP-RB-19.png,0.35,1.2,26,1,,,,,,,,,,,,,,,,,,,,,,,,,,,,,,,,,,,,,,,,,,,,,
,,,,,WIN24_042,21,Female,2024-02-08_13h05.31.396,jersey_experiment_5,2023.2.2,Win32,85.47008547,,,,,,,,,,,,,,,,151.2084,153.0083,153.0084,158.8438,return,2.9561,,77.86458333,0,17,17,34,1,FBP-YG-71.png,0.45,1.2,35,1,,,,,,,,,,,,,,,,,,,,,,,,,,,,,,,,,,,,,,,,,,,,,
,,,,,WIN24_042,21,Female,2024-02-08_13h05.31.396,jersey_experiment_5,2023.2.2,Win32,85.47008547,,,,,,,,,,,,,,,,158.8441,160.6439,160.644,164.0087,return,2.0531,,62.36979167,0,18,18,32,1,FBP-YG-71.png,0.4,1.2,33,1,,,,,,,,,,,,,,,,,,,,,,,,,,,,,,,,,,,,,,,,,,,,,
,,,,,WIN24_042,21,Female,2024-02-08_13h05.31.396,jersey_experiment_5,2023.2.2,Win32,85.47008547,,,,,,,,,,,,,,,,164.0089,165.3029,165.3029,167.6322,return,0.4948,,68.22916667,0,19,19,3,1,FBP-OG-71.png,0.43,1.2,4,0.5,,,,,,,,,,,,,,,,,,,,,,,,,,,,,,,,,,,,,,,,,,,,,
,,,,,WIN24_042,21,Female,2024-02-08_13h05.31.396,jersey_experiment_5,2023.2.2,Win32,85.47008547,,,,,,,,,,,,,,,,167.6324,169.4324,169.4324,171.1503,return,0.5324,,78.77604167,0,20,20,18,1,FBP-RB-17.png,0.43,1.2,19,1,,,,,,,,,,,,,,,,,,,,,,,,,,,,,,,,,,,,,,,,,,,,,
,,,,,WIN24_042,21,Female,2024-02-08_13h05.31.396,jersey_experiment_5,2023.2.2,Win32,85.47008547,,,,,,,,,,,,,,,,171.1505,172.9502,172.9502,174.4444,return,0.5085,,57.16145833,0,21,21,26,1,FBP-RB-19.png,0.37,1.2,27,1,,,,,,,,,,,,,,,,,,,,,,,,,,,,,,,,,,,,,,,,,,,,,
,,,,,WIN24_042,21,Female,2024-02-08_13h05.31.396,jersey_experiment_5,2023.2.2,Win32,85.47008547,,,,,,,,,,,,,,,,174.4446,175.7386,175.7386,177.4328,return,0.3095,,91.27604167,0,22,22,9,1,FBP-OG-81.png,0.45,1.2,10,0.5,,,,,,,,,,,,,,,,,,,,,,,,,,,,,,,,,,,,,,,,,,,,,
,,,,,WIN24_042,21,Female,2024-02-08_13h05.31.396,jersey_experiment_5,2023.2.2,Win32,85.47008547,,,,,,,,,,,,,,,,177.4329,178.7269,178.7269,182.833,return,0.5648,,41.40625,0,23,23,11,1,FBP-OG-91.png,0.37,1.2,12,0.5,,,,,,,,,,,,,,,,,,,,,,,,,,,,,,,,,,,,,,,,,,,,,
,,,,,WIN24_042,21,Female,2024-02-08_13h05.31.396,jersey_experiment_5,2023.2.2,Win32,85.47008547,,,,,,,,,,,,,,,,182.8331,184.633,184.6331,186.5977,return,0.8421,,54.42708333,0,24,24,17,1,FBP-RB-17.png,0.4,1.2,18,1,,,,,,,,,,,,,,,,,,,,,,,,,,,,,,,,,,,,,,,,,,,,,
,,,,,WIN24_042,21,Female,2024-02-08_13h05.31.396,jersey_experiment_5,2023.2.2,Win32,85.47008547,,,,,,,,,,,,,,,,186.5979,188.398,188.398,190.892,return,0.6029,,99.73958333,0,25,25,24,1,FBP-RB-18.png,0.45,1.2,25,1,,,,,,,,,,,,,,,,,,,,,,,,,,,,,,,,,,,,,,,,,,,,,
,,,,,WIN24_042,21,Female,2024-02-08_13h05.31.396,jersey_experiment_5,2023.2.2,Win32,85.47008547,,,,,,,,,,,,,,,,190.8923,192.1864,192.1864,194.9864,return,0.5342,,81.77083333,0,26,26,7,1,FBP-OG-81.png,0.4,1.2,8,0.5,,,,,,,,,,,,,,,,,,,,,,,,,,,,,,,,,,,,,,,,,,,,,
,,,,,WIN24_042,21,Female,2024-02-08_13h05.31.396,jersey_experiment_5,2023.2.2,Win32,85.47008547,,,,,,,,,,,,,,,,194.9867,196.2806,196.2807,199.61,return,1.5228,,37.23958333,0,27,27,10,1,FBP-OG-91.png,0.35,1.2,11,0.5,,,,,,,,,,,,,,,,,,,,,,,,,,,,,,,,,,,,,,,,,,,,,
,,,,,WIN24_042,21,Female,2024-02-08_13h05.31.396,jersey_experiment_5,2023.2.2,Win32,85.47008547,,,,,,,,,,,,,,,,199.6102,200.9041,200.9041,203.3396,return,0.9798,,88.41145833,0,28,28,54,1,FBP-PT-18.png,0.45,1.2,55,0.5,,,,,,,,,,,,,,,,,,,,,,,,,,,,,,,,,,,,,,,,,,,,,
,,,,,WIN24_042,21,Female,2024-02-08_13h05.31.396,jersey_experiment_5,2023.2.2,Win32,85.47008547,,,,,,,,,,,,,,,,203.3398,204.6339,204.6339,207.5162,return,0.9908,,36.06770833,0,29,29,50,1,FBP-PT-18.png,0.35,1.2,51,0.5,,,,,,,,,,,,,,,,,,,,,,,,,,,,,,,,,,,,,,,,,,,,,
,,,,,WIN24_042,21,Female,2024-02-08_13h05.31.396,jersey_experiment_5,2023.2.2,Win32,85.47008547,,,,,,,,,,,,,,,,207.5164,209.3165,209.3165,210.6223,return,0.283,,96.61458333,0,30,30,39,1,FBP-YG-81.png,0.45,1.2,40,1,,,,,,,,,,,,,,,,,,,,,,,,,,,,,,,,,,,,,,,,,,,,,
,,,,,WIN24_042,21,Female,2024-02-08_13h05.31.396,jersey_experiment_5,2023.2.2,Win32,85.47008547,,,,,,,,,,,,,,,,210.6225,212.4226,212.4226,213.6459,return,0.424,,86.84895833,0,31,31,38,1,FBP-YG-81.png,0.43,1.2,39,1,,,,,,,,,,,,,,,,,,,,,,,,,,,,,,,,,,,,,,,,,,,,,
,,,,,WIN24_042,21,Female,2024-02-08_13h05.31.396,jersey_experiment_5,2023.2.2,Win32,85.47008547,,,,,,,,,,,,,,,,213.6462,214.9401,214.9401,217.3519,return,0.6421,,21.22395833,0,32,32,55,1,FBP-PT-19.png,0.35,1.2,56,0.5,,,,,,,,,,,,,,,,,,,,,,,,,,,,,,,,,,,,,,,,,,,,,
,,,,,WIN24_042,21,Female,2024-02-08_13h05.31.396,jersey_experiment_5,2023.2.2,Win32,85.47008547,,,,,,,,,,,,,,,,217.3521,218.6461,218.6461,221.7404,return,0.5321,,60.41666667,0,33,33,13,1,FBP-OG-91.png,0.43,1.2,14,0.5,,,,,,,,,,,,,,,,,,,,,,,,,,,,,,,,,,,,,,,,,,,,,
,,,,,WIN24_042,21,Female,2024-02-08_13h05.31.396,jersey_experiment_5,2023.2.2,Win32,85.47008547,,,,,,,,,,,,,,,,221.7405,223.0345,223.0345,227.6229,return,3.1257,,33.72395833,0,34,34,45,1,FBP-PT-17.png,0.35,1.2,46,0.5,,,,,,,,,,,,,,,,,,,,,,,,,,,,,,,,,,,,,,,,,,,,,
,,,,,WIN24_042,21,Female,2024-02-08_13h05.31.396,jersey_experiment_5,2023.2.2,Win32,85.47008547,,,,,,,,,,,,,,,,227.6231,229.423,229.423,231.0935,return,0.3478,,49.34895833,0,35,35,22,1,FBP-RB-18.png,0.4,1.2,23,1,,,,,,,,,,,,,,,,,,,,,,,,,,,,,,,,,,,,,,,,,,,,,
,,,,,WIN24_042,21,Female,2024-02-08_13h05.31.396,jersey_experiment_5,2023.2.2,Win32,85.47008547,,,,,,,,,,,,,,,,231.0937,232.8937,232.8938,235.5527,return,0.5555,,31.51041667,0,36,36,41,1,FBP-YG-91.png,0.37,1.2,42,1,,,,,,,,,,,,,,,,,,,,,,,,,,,,,,,,,,,,,,,,,,,,,
,,,,,WIN24_042,21,Female,2024-02-08_13h05.31.396,jersey_experiment_5,2023.2.2,Win32,85.47008547,,,,,,,,,,,,,,,,235.5528,237.3526,237.3526,239.3291,return,0.4945,,82.8125,0,37,37,44,1,FBP-YG-91.png,0.45,1.2,45,1,,,,,,,,,,,,,,,,,,,,,,,,,,,,,,,,,,,,,,,,,,,,,
,,,,,WIN24_042,21,Female,2024-02-08_13h05.31.396,jersey_experiment_5,2023.2.2,Win32,85.47008547,,,,,,,,,,,,,,,,239.3294,240.6233,240.6233,245.1646,return,1.2108,,87.5,0,38,38,58,1,FBP-PT-19.png,0.43,1.2,59,0.5,,,,,,,,,,,,,,,,,,,,,,,,,,,,,,,,,,,,,,,,,,,,,
,,,,,WIN24_042,21,Female,2024-02-08_13h05.31.396,jersey_experiment_5,2023.2.2,Win32,85.47008547,,,,,,,,,,,,,,,,245.1648,246.9648,246.9648,251.1179,return,1.8691,,26.82291667,0,39,39,35,1,FBP-YG-81.png,0.35,1.2,36,1,,,,,,,,,,,,,,,,,,,,,,,,,,,,,,,,,,,,,,,,,,,,,
,,,,,WIN24_042,21,Female,2024-02-08_13h05.31.396,jersey_experiment_5,2023.2.2,Win32,85.47008547,,,,,,,,,,,,,,,,251.1181,252.4121,252.4121,254.5063,return,0.5692,,40.625,0,40,40,2,1,FBP-OG-71.png,0.4,1.2,3,0.5,,,,,,,,,,,,,,,,,,,,,,,,,,,,,,,,,,,,,,,,,,,,,
,,,,,WIN24_042,21,Female,2024-02-08_13h05.31.396,jersey_experiment_5,2023.2.2,Win32,85.47008547,,,,,,,,,,,,,,,,254.5064,256.3063,256.3063,258.4005,return,0.8471,,35.9375,0,41,41,30,1,FBP-YG-71.png,0.35,1.2,31,1,,,,,,,,,,,,,,,,,,,,,,,,,,,,,,,,,,,,,,,,,,,,,
,,,,,WIN24_042,21,Female,2024-02-08_13h05.31.396,jersey_experiment_5,2023.2.2,Win32,85.47008547,,,,,,,,,,,,,,,,258.4008,259.6948,259.6948,260.9419,return,0.2733,,30.33854167,0,42,42,5,1,FBP-OG-81.png,0.35,1.2,6,0.5,,,,,,,,,,,,,,,,,,,,,,,,,,,,,,,,,,,,,,,,,,,,,
,,,,,WIN24_042,21,Female,2024-02-08_13h05.31.396,jersey_experiment_5,2023.2.2,Win32,85.47008547,,,,,,,,,,,,,,,,260.9421,262.7419,262.7419,264.9066,return,0.4276,,91.92708333,0,43,43,29,1,FBP-RB-19.png,0.45,1.2,30,1,,,,,,,,,,,,,,,,,,,,,,,,,,,,,,,,,,,,,,,,,,,,,
,,,,,WIN24_042,21,Female,2024-02-08_13h05.31.396,jersey_experiment_5,2023.2.2,Win32,85.47008547,,,,,,,,,,,,,,,,264.9068,266.2009,266.2009,269.848,return,0.3694,,55.33854167,0,44,44,52,1,FBP-PT-18.png,0.4,1.2,53,0.5,,,,,,,,,,,,,,,,,,,,,,,,,,,,,,,,,,,,,,,,,,,,,
,,,,,WIN24_042,21,Female,2024-02-08_13h05.31.396,jersey_experiment_5,2023.2.2,Win32,85.47008547,,,,,,,,,,,,,,,,269.8482,271.6482,271.6482,273.9306,return,0.4164,,58.984375,0,45,45,42,1,FBP-YG-91.png,0.4,1.2,43,1,,,,,,,,,,,,,,,,,,,,,,,,,,,,,,,,,,,,,,,,,,,,,
,,,,,WIN24_042,21,Female,2024-02-08_13h05.31.396,jersey_experiment_5,2023.2.2,Win32,85.47008547,,,,,,,,,,,,,,,,273.9308,275.2247,275.2247,277.9778,return,1.4852,,43.359375,0,46,46,6,1,FBP-OG-81.png,0.37,1.2,7,0.5,,,,,,,,,,,,,,,,,,,,,,,,,,,,,,,,,,,,,,,,,,,,,
,,,,,WIN24_042,21,Female,2024-02-08_13h05.31.396,jersey_experiment_5,2023.2.2,Win32,85.47008547,,,,,,,,,,,,,,,,277.978,279.7778,279.7778,282.319,return,0.3624,,88.80208333,0,47,47,19,1,FBP-RB-17.png,0.45,1.2,20,1,,,,,,,,,,,,,,,,,,,,,,,,,,,,,,,,,,,,,,,,,,,,,
,,,,,WIN24_042,21,Female,2024-02-08_13h05.31.396,jersey_experiment_5,2023.2.2,Win32,85.47008547,,,,,,,,,,,,,,,,282.3193,284.1192,284.1192,285.5781,return,0.2146,,40.625,0,48,48,16,1,FBP-RB-17.png,0.37,1.2,17,1,,,,,,,,,,,,,,,,,,,,,,,,,,,,,,,,,,,,,,,,,,,,,
,,,,,WIN24_042,21,Female,2024-02-08_13h05.31.396,jersey_experiment_5,2023.2.2,Win32,85.47008547,,,,,,,,,,,,,,,,285.5784,287.3781,287.3781,291.9312,return,3.3337,,66.66666667,0,49,49,43,1,FBP-YG-91.png,0.43,1.2,44,1,,,,,,,,,,,,,,,,,,,,,,,,,,,,,,,,,,,,,,,,,,,,,
,,,,,WIN24_042,21,Female,2024-02-08_13h05.31.396,jersey_experiment_5,2023.2.2,Win32,85.47008547,,,,,,,,,,,,,,,,291.9314,293.2254,293.2254,294.4726,return,0.3571,,72.00520833,0,50,50,53,1,FBP-PT-18.png,0.43,1.2,54,0.5,,,,,,,,,,,,,,,,,,,,,,,,,,,,,,,,,,,,,,,,,,,,,
,,,,,WIN24_042,21,Female,2024-02-08_13h05.31.396,jersey_experiment_5,2023.2.2,Win32,85.47008547,,,,,,,,,,,,,,,,294.4729,295.7668,295.7668,297.4725,return,0.3623,,92.96875,0,51,51,14,1,FBP-OG-91.png,0.45,1.2,15,0.5,,,,,,,,,,,,,,,,,,,,,,,,,,,,,,,,,,,,,,,,,,,,,
,,,,,WIN24_042,21,Female,2024-02-08_13h05.31.396,jersey_experiment_5,2023.2.2,Win32,85.47008547,,,,,,,,,,,,,,,,297.4727,298.7667,298.7668,300.2726,return,0.3062,,54.81770833,0,52,52,1,1,FBP-OG-71.png,0.37,1.2,2,0.5,,,,,,,,,,,,,,,,,,,,,,,,,,,,,,,,,,,,,,,,,,,,,
,,,,,WIN24_042,21,Female,2024-02-08_13h05.31.396,jersey_experiment_5,2023.2.2,Win32,85.47008547,,,,,,,,,,,,,,,,300.2728,302.0728,302.0729,303.0727,return,0.3063,,41.53645833,0,53,53,36,1,FBP-YG-81.png,0.37,1.2,37,1,,,,,,,,,,,,,,,,,,,,,,,,,,,,,,,,,,,,,,,,,,,,,
,,,,,WIN24_042,21,Female,2024-02-08_13h05.31.396,jersey_experiment_5,2023.2.2,Win32,85.47008547,,,,,,,,,,,,,,,,303.0729,304.367,304.367,305.414,return,0.2651,,55.33854167,0,54,54,47,1,FBP-PT-17.png,0.4,1.2,48,0.5,,,,,,,,,,,,,,,,,,,,,,,,,,,,,,,,,,,,,,,,,,,,,
,,,,,WIN24_042,21,Female,2024-02-08_13h05.31.396,jersey_experiment_5,2023.2.2,Win32,85.47008547,,,,,,,,,,,,,,,,305.4142,307.2142,307.2142,309.226,return,0.2378,,66.015625,0,55,55,33,1,FBP-YG-71.png,0.43,1.2,34,1,,,,,,,,,,,,,,,,,,,,,,,,,,,,,,,,,,,,,,,,,,,,,
,,,,,WIN24_042,21,Female,2024-02-08_13h05.31.396,jersey_experiment_5,2023.2.2,Win32,85.47008547,,,,,,,,,,,,,,,,309.2262,310.5202,310.5202,311.8495,return,0.2738,,46.61458333,0,56,56,0,1,FBP-OG-71.png,0.35,1.2,1,0.5,,,,,,,,,,,,,,,,,,,,,,,,,,,,,,,,,,,,,,,,,,,,,
,,,,,WIN24_042,21,Female,2024-02-08_13h05.31.396,jersey_experiment_5,2023.2.2,Win32,85.47008547,,,,,,,,,,,,,,,,311.8498,313.1437,313.1437,314.2497,return,0.2497,,46.22395833,0,57,57,51,1,FBP-PT-18.png,0.37,1.2,52,0.5,,,,,,,,,,,,,,,,,,,,,,,,,,,,,,,,,,,,,,,,,,,,,
,,,,,WIN24_042,21,Female,2024-02-08_13h05.31.396,jersey_experiment_5,2023.2.2,Win32,85.47008547,,,,,,,,,,,,,,,,314.2499,315.5439,315.5439,316.6028,return,0.2489,,35.546875,0,58,58,46,1,FBP-PT-17.png,0.37,1.2,47,0.5,,,,,,,,,,,,,,,,,,,,,,,,,,,,,,,,,,,,,,,,,,,,,
,,,,,WIN24_042,21,Female,2024-02-08_13h05.31.396,jersey_experiment_5,2023.2.2,Win32,85.47008547,,,,,,,,,,,,,,,,316.6029,318.4028,318.4029,320.5087,return,1.3065,,28.125,0,59,59,15,1,FBP-RB-17.png,0.35,1.2,16,1,,,,,,,,,,,,,,,,,,,,,,,,,,,,,,,,,,,,,,,,,,,,,
,,,,,WIN24_042,21,Female,2024-02-08_13h05.31.396,jersey_experiment_5,2023.2.2,Win32,85.47008547,,,,,,,,,,,,,,,,320.5109,322.3089,322.3089,323.5325,return,0.259,,48.95833333,,,,,,FBP-RB-71.png,0.4,1.2,18,1,0,0,0,17,1,,,,,,,,,,,,,,,,,,,,,,,,,,,,,,,,,,,,,,,,
,,,,,WIN24_042,21,Female,2024-02-08_13h05.31.396,jersey_experiment_5,2023.2.2,Win32,85.47008547,,,,,,,,,,,,,,,,323.5329,325.3327,325.3327,326.2618,return,0.28,,20.05208333,,,,,,FBP-YG-19.png,0.35,1.2,41,1,0,1,1,40,1,,,,,,,,,,,,,,,,,,,,,,,,,,,,,,,,,,,,,,,,
,,,,,WIN24_042,21,Female,2024-02-08_13h05.31.396,jersey_experiment_5,2023.2.2,Win32,85.47008547,,,,,,,,,,,,,,,,326.2622,328.062,328.062,329.5327,return,0.259,,57.55208333,,,,,,FBP-RB-81.png,0.4,1.2,23,1,0,2,2,22,1,,,,,,,,,,,,,,,,,,,,,,,,,,,,,,,,,,,,,,,,
,,,,,WIN24_042,21,Female,2024-02-08_13h05.31.396,jersey_experiment_5,2023.2.2,Win32,85.47008547,,,,,,,,,,,,,,,,329.5328,331.3326,331.3327,336.0858,return,3.6659,,89.0625,,,,,,FBP-YG-18.png,0.43,1.2,39,1,0,3,3,38,1,,,,,,,,,,,,,,,,,,,,,,,,,,,,,,,,,,,,,,,,
,,,,,WIN24_042,21,Female,2024-02-08_13h05.31.396,jersey_experiment_5,2023.2.2,Win32,85.47008547,,,,,,,,,,,,,,,,336.0861,337.3799,337.3799,339.0979,return,0.5698,,67.05729167,,,,,,FBP-OG-17.png,0.4,1.2,3,0.5,0,4,4,2,1,,,,,,,,,,,,,,,,,,,,,,,,,,,,,,,,,,,,,,,,
,,,,,WIN24_042,21,Female,2024-02-08_13h05.31.396,jersey_experiment_5,2023.2.2,Win32,85.47008547,,,,,,,,,,,,,,,,339.0982,340.8979,340.8979,344.3331,return,0.3674,,25.78125,,,,,,FBP-RB-91.png,0.35,1.2,26,1,0,5,5,25,1,,,,,,,,,,,,,,,,,,,,,,,,,,,,,,,,,,,,,,,,
,,,,,WIN24_042,21,Female,2024-02-08_13h05.31.396,jersey_experiment_5,2023.2.2,Win32,85.47008547,,,,,,,,,,,,,,,,344.3333,345.6275,345.6276,346.8861,return,0.2674,,24.86979167,,,,,,FBP-PT-81.png,0.37,1.2,52,0.5,0,6,6,51,1,,,,,,,,,,,,,,,,,,,,,,,,,,,,,,,,,,,,,,,,
,,,,,WIN24_042,21,Female,2024-02-08_13h05.31.396,jersey_experiment_5,2023.2.2,Win32,85.47008547,,,,,,,,,,,,,,,,346.8863,348.1804,348.1804,349.3098,return,0.2597,,23.56770833,,,,,,FBP-OG-18.png,0.37,1.2,7,0.5,0,7,7,6,1,,,,,,,,,,,,,,,,,,,,,,,,,,,,,,,,,,,,,,,,
,,,,,WIN24_042,21,Female,2024-02-08_13h05.31.396,jersey_experiment_5,2023.2.2,Win32,85.47008547,,,,,,,,,,,,,,,,349.3101,350.6039,350.6039,354.4748,return,2.849,,35.41666667,,,,,,FBP-PT-91.png,0.37,1.2,57,0.5,0,8,8,56,1,,,,,,,,,,,,,,,,,,,,,,,,,,,,,,,,,,,,,,,,
,,,,,WIN24_042,21,Female,2024-02-08_13h05.31.396,jersey_experiment_5,2023.2.2,Win32,85.47008547,,,,,,,,,,,,,,,,354.4749,355.7689,355.7689,357.5808,return,0.4857,,97.00520833,,,,,,FBP-OG-18.png,0.45,1.2,10,0.5,0,9,9,9,1,,,,,,,,,,,,,,,,,,,,,,,,,,,,,,,,,,,,,,,,
,,,,,WIN24_042,21,Female,2024-02-08_13h05.31.396,jersey_experiment_5,2023.2.2,Win32,85.47008547,,,,,,,,,,,,,,,,357.581,358.875,358.875,361.981,return,0.4381,,61.58854167,,,,,,FBP-OG-18.png,0.4,1.2,8,0.5,0,10,10,7,1,,,,,,,,,,,,,,,,,,,,,,,,,,,,,,,,,,,,,,,,
,,,,,WIN24_042,21,Female,2024-02-08_13h05.31.396,jersey_experiment_5,2023.2.2,Win32,85.47008547,,,,,,,,,,,,,,,,361.9812,363.7809,363.781,365.8988,return,1.2513,,51.82291667,,,,,,FBP-YG-19.png,0.4,1.2,43,1,0,11,11,42,1,,,,,,,,,,,,,,,,,,,,,,,,,,,,,,,,,,,,,,,,
,,,,,WIN24_042,21,Female,2024-02-08_13h05.31.396,jersey_experiment_5,2023.2.2,Win32,85.47008547,,,,,,,,,,,,,,,,365.8989,367.1928,367.1929,370.993,return,2.6028,,31.25,,,,,,FBP-PT-91.png,0.35,1.2,56,0.5,0,12,12,55,1,,,,,,,,,,,,,,,,,,,,,,,,,,,,,,,,,,,,,,,,
,,,,,WIN24_042,21,Female,2024-02-08_13h05.31.396,jersey_experiment_5,2023.2.2,Win32,85.47008547,,,,,,,,,,,,,,,,370.9932,372.2872,372.2872,373.4167,return,0.2158,,50.390625,,,,,,FBP-OG-17.png,0.43,1.2,4,0.5,0,13,13,3,1,,,,,,,,,,,,,,,,,,,,,,,,,,,,,,,,,,,,,,,,
,,,,,WIN24_042,21,Female,2024-02-08_13h05.31.396,jersey_experiment_5,2023.2.2,Win32,85.47008547,,,,,,,,,,,,,,,,373.4168,375.2169,375.2169,376.4755,return,0.2509,,12.109375,,,,,,FBP-RB-81.png,0.35,1.2,21,1,0,14,14,20,1,,,,,,,,,,,,,,,,,,,,,,,,,,,,,,,,,,,,,,,,
,,,,,WIN24_042,21,Female,2024-02-08_13h05.31.396,jersey_experiment_5,2023.2.2,Win32,85.47008547,,,,,,,,,,,,,,,,376.4759,378.2755,378.2756,379.1932,return,0.2646,,84.24479167,,,,,,FBP-RB-91.png,0.43,1.2,29,1,0,15,15,28,1,,,,,,,,,,,,,,,,,,,,,,,,,,,,,,,,,,,,,,,,
,,,,,WIN24_042,21,Female,2024-02-08_13h05.31.396,jersey_experiment_5,2023.2.2,Win32,85.47008547,,,,,,,,,,,,,,,,379.1934,380.4876,380.4876,381.8522,return,0.2147,,13.671875,,,,,,FBP-PT-71.png,0.35,1.2,46,0.5,0,16,16,45,1,,,,,,,,,,,,,,,,,,,,,,,,,,,,,,,,,,,,,,,,
,,,,,WIN24_042,21,Female,2024-02-08_13h05.31.396,jersey_experiment_5,2023.2.2,Win32,85.47008547,,,,,,,,,,,,,,,,381.8525,383.1463,383.1463,386.0642,return,1.9862,,47.52604167,,,,,,FBP-PT-91.png,0.4,1.2,58,0.5,0,17,17,57,1,,,,,,,,,,,,,,,,,,,,,,,,,,,,,,,,,,,,,,,,
,,,,,WIN24_042,21,Female,2024-02-08_13h05.31.396,jersey_experiment_5,2023.2.2,Win32,85.47008547,,,,,,,,,,,,,,,,386.0644,387.3582,387.3583,388.8172,return,0.3058,,80.078125,,,,,,FBP-PT-71.png,0.43,1.2,49,0.5,0,18,18,48,1,,,,,,,,,,,,,,,,,,,,,,,,,,,,,,,,,,,,,,,,
,,,,,WIN24_042,21,Female,2024-02-08_13h05.31.396,jersey_experiment_5,2023.2.2,Win32,85.47008547,,,,,,,,,,,,,,,,388.8175,390.6173,390.6174,392.9586,return,0.3391,,30.33854167,,,,,,FBP-YG-17.png,0.35,1.2,31,1,0,19,19,30,1,,,,,,,,,,,,,,,,,,,,,,,,,,,,,,,,,,,,,,,,
,,,,,WIN24_042,21,Female,2024-02-08_13h05.31.396,jersey_experiment_5,2023.2.2,Win32,85.47008547,,,,,,,,,,,,,,,,392.9587,394.2527,394.2527,396.6175,return,1.1789,,94.140625,,,,,,FBP-OG-19.png,0.45,1.2,15,0.5,0,20,20,14,1,,,,,,,,,,,,,,,,,,,,,,,,,,,,,,,,,,,,,,,,
,,,,,WIN24_042,21,Female,2024-02-08_13h05.31.396,jersey_experiment_5,2023.2.2,Win32,85.47008547,,,,,,,,,,,,,,,,396.6177,397.9117,397.9117,399.4058,return,0.3777,,98.17708333,,,,,,FBP-PT-71.png,0.45,1.2,50,0.5,0,21,21,49,1,,,,,,,,,,,,,,,,,,,,,,,,,,,,,,,,,,,,,,,,
,,,,,WIN24_042,21,Female,2024-02-08_13h05.31.396,jersey_experiment_5,2023.2.2,Win32,85.47008547,,,,,,,,,,,,,,,,399.4061,401.206,401.206,403.3708,return,0.3314,,42.96875,,,,,,FBP-YG-17.png,0.37,1.2,32,1,0,22,22,31,1,,,,,,,,,,,,,,,,,,,,,,,,,,,,,,,,,,,,,,,,
,,,,,WIN24_042,21,Female,2024-02-08_13h05.31.396,jersey_experiment_5,2023.2.2,Win32,85.47008547,,,,,,,,,,,,,,,,403.3709,404.6648,404.6648,405.9943,return,0.3196,,58.72395833,,,,,,FBP-OG-19.png,0.43,1.2,14,0.5,0,23,23,13,1,,,,,,,,,,,,,,,,,,,,,,,,,,,,,,,,,,,,,,,,
,,,,,WIN24_042,21,Female,2024-02-08_13h05.31.396,jersey_experiment_5,2023.2.2,Win32,85.47008547,,,,,,,,,,,,,,,,405.9946,407.7945,407.7945,409.324,return,0.33,,47.78645833,,,,,,FBP-YG-17.png,0.4,1.2,33,1,0,24,24,32,1,,,,,,,,,,,,,,,,,,,,,,,,,,,,,,,,,,,,,,,,
,,,,,WIN24_042,21,Female,2024-02-08_13h05.31.396,jersey_experiment_5,2023.2.2,Win32,85.47008547,,,,,,,,,,,,,,,,409.3242,410.6181,410.6181,412.7831,return,1.2238,,63.93229167,,,,,,FBP-OG-18.png,0.43,1.2,9,0.5,0,25,25,8,1,,,,,,,,,,,,,,,,,,,,,,,,,,,,,,,,,,,,,,,,
,,,,,WIN24_042,21,Female,2024-02-08_13h05.31.396,jersey_experiment_5,2023.2.2,Win32,85.47008547,,,,,,,,,,,,,,,,412.7833,414.0771,414.0771,418.23,return,2.5832,,12.890625,,,,,,FBP-OG-17.png,0.35,1.2,1,0.5,0,26,26,0,1,,,,,,,,,,,,,,,,,,,,,,,,,,,,,,,,,,,,,,,,
,,,,,WIN24_042,21,Female,2024-02-08_13h05.31.396,jersey_experiment_5,2023.2.2,Win32,85.47008547,,,,,,,,,,,,,,,,418.2302,420.0303,420.0303,422.442,return,0.8143,,47.91666667,,,,,,FBP-RB-91.png,0.4,1.2,28,1,0,27,27,27,1,,,,,,,,,,,,,,,,,,,,,,,,,,,,,,,,,,,,,,,,
,,,,,WIN24_042,21,Female,2024-02-08_13h05.31.396,jersey_experiment_5,2023.2.2,Win32,85.47008547,,,,,,,,,,,,,,,,422.4422,424.2423,424.2423,426.407,return,0.3728,,38.02083333,,,,,,FBP-YG-18.png,0.37,1.2,37,1,0,28,28,36,1,,,,,,,,,,,,,,,,,,,,,,,,,,,,,,,,,,,,,,,,
,,,,,WIN24_042,21,Female,2024-02-08_13h05.31.396,jersey_experiment_5,2023.2.2,Win32,85.47008547,,,,,,,,,,,,,,,,426.4073,428.2069,428.2069,433.2072,return,1.1592,,69.53125,,,,,,FBP-RB-81.png,0.45,1.2,25,1,0,29,29,24,1,,,,,,,,,,,,,,,,,,,,,,,,,,,,,,,,,,,,,,,,
,,,,,WIN24_042,21,Female,2024-02-08_13h05.31.396,jersey_experiment_5,2023.2.2,Win32,85.47008547,,,,,,,,,,,,,,,,433.2074,434.5014,434.5014,435.9131,return,0.5446,,80.33854167,,,,,,FBP-PT-91.png,0.45,1.2,60,0.5,0,30,30,59,1,,,,,,,,,,,,,,,,,,,,,,,,,,,,,,,,,,,,,,,,
,,,,,WIN24_042,21,Female,2024-02-08_13h05.31.396,jersey_experiment_5,2023.2.2,Win32,85.47008547,,,,,,,,,,,,,,,,435.9134,437.7134,437.7134,439.5369,return,1.2854,,91.27604167,,,,,,FBP-RB-71.png,0.45,1.2,20,1,0,31,31,19,1,,,,,,,,,,,,,,,,,,,,,,,,,,,,,,,,,,,,,,,,
,,,,,WIN24_042,21,Female,2024-02-08_13h05.31.396,jersey_experiment_5,2023.2.2,Win32,85.47008547,,,,,,,,,,,,,,,,439.5371,441.3368,441.3369,446.3136,return,0.4499,,52.60416667,,,,,,FBP-YG-18.png,0.4,1.2,38,1,0,32,32,37,1,,,,,,,,,,,,,,,,,,,,,,,,,,,,,,,,,,,,,,,,
,,,,,WIN24_042,21,Female,2024-02-08_13h05.31.396,jersey_experiment_5,2023.2.2,Win32,85.47008547,,,,,,,,,,,,,,,,446.3138,447.6078,447.6078,449.4313,return,0.2668,,48.17708333,,,,,,FBP-OG-19.png,0.4,1.2,13,0.5,0,33,33,12,1,,,,,,,,,,,,,,,,,,,,,,,,,,,,,,,,,,,,,,,,
,,,,,WIN24_042,21,Female,2024-02-08_13h05.31.396,jersey_experiment_5,2023.2.2,Win32,85.47008547,,,,,,,,,,,,,,,,449.4314,451.2314,451.2315,452.4785,return,0.3201,,13.671875,,,,,,FBP-RB-71.png,0.35,1.2,16,1,0,34,34,15,1,,,,,,,,,,,,,,,,,,,,,,,,,,,,,,,,,,,,,,,,
,,,,,WIN24_042,21,Female,2024-02-08_13h05.31.396,jersey_experiment_5,2023.2.2,Win32,85.47008547,,,,,,,,,,,,,,,,452.4788,454.2785,454.2786,456.361,return,0.3706,,72.265625,,,,,,FBP-YG-19.png,0.43,1.2,44,1,0,35,35,43,1,,,,,,,,,,,,,,,,,,,,,,,,,,,,,,,,,,,,,,,,
,,,,,WIN24_042,21,Female,2024-02-08_13h05.31.396,jersey_experiment_5,2023.2.2,Win32,85.47008547,,,,,,,,,,,,,,,,456.3612,458.161,458.161,460.3141,return,0.3552,,45.18229167,,,,,,FBP-RB-71.png,0.37,1.2,17,1,0,36,36,16,1,,,,,,,,,,,,,,,,,,,,,,,,,,,,,,,,,,,,,,,,
,,,,,WIN24_042,21,Female,2024-02-08_13h05.31.396,jersey_experiment_5,2023.2.2,Win32,85.47008547,,,,,,,,,,,,,,,,460.3143,461.6082,461.6082,463.5612,return,0.2767,,74.08854167,,,,,,FBP-PT-91.png,0.43,1.2,59,0.5,0,37,37,58,1,,,,,,,,,,,,,,,,,,,,,,,,,,,,,,,,,,,,,,,,
,,,,,WIN24_042,21,Female,2024-02-08_13h05.31.396,jersey_experiment_5,2023.2.2,Win32,85.47008547,,,,,,,,,,,,,,,,463.5614,465.3613,465.3613,466.6791,return,0.888,,76.43229167,,,,,,FBP-YG-17.png,0.43,1.2,34,1,0,38,38,33,1,,,,,,,,,,,,,,,,,,,,,,,,,,,,,,,,,,,,,,,,
,,,,,WIN24_042,21,Female,2024-02-08_13h05.31.396,jersey_experiment_5,2023.2.2,Win32,85.47008547,,,,,,,,,,,,,,,,466.6793,468.4791,468.4792,471.5027,return,0.2824,,48.828125,,,,,,FBP-YG-19.png,0.37,1.2,42,1,0,39,39,41,1,,,,,,,,,,,,,,,,,,,,,,,,,,,,,,,,,,,,,,,,
,,,,,WIN24_042,21,Female,2024-02-08_13h05.31.396,jersey_experiment_5,2023.2.2,Win32,85.47008547,,,,,,,,,,,,,,,,471.503,472.7969,472.7969,476.4323,return,2.1558,,74.86979167,,,,,,FBP-OG-17.png,0.45,1.2,5,0.5,0,40,40,4,1,,,,,,,,,,,,,,,,,,,,,,,,,,,,,,,,,,,,,,,,
,,,,,WIN24_042,21,Female,2024-02-08_13h05.31.396,jersey_experiment_5,2023.2.2,Win32,85.47008547,,,,,,,,,,,,,,,,476.4326,478.2323,478.2324,482.0797,return,0.2734,,37.890625,,,,,,FBP-RB-81.png,0.37,1.2,22,1,0,41,41,21,1,,,,,,,,,,,,,,,,,,,,,,,,,,,,,,,,,,,,,,,,
,,,,,WIN24_042,21,Female,2024-02-08_13h05.31.396,jersey_experiment_5,2023.2.2,Win32,85.47008547,,,,,,,,,,,,,,,,482.0798,483.8796,483.8796,486.221,return,0.3057,,72.39583333,,,,,,FBP-YG-19.png,0.45,1.2,45,1,0,42,42,44,1,,,,,,,,,,,,,,,,,,,,,,,,,,,,,,,,,,,,,,,,
,,,,,WIN24_042,21,Female,2024-02-08_13h05.31.396,jersey_experiment_5,2023.2.2,Win32,85.47008547,,,,,,,,,,,,,,,,486.2213,487.5152,487.5152,490.1741,return,1.2856,,37.23958333,,,,,,FBP-OG-19.png,0.35,1.2,11,0.5,0,43,43,10,1,,,,,,,,,,,,,,,,,,,,,,,,,,,,,,,,,,,,,,,,
,,,,,WIN24_042,21,Female,2024-02-08_13h05.31.396,jersey_experiment_5,2023.2.2,Win32,85.47008547,,,,,,,,,,,,,,,,490.1743,491.9742,491.9742,492.8801,return,0.2704,,20.83333333,,,,,,FBP-YG-18.png,0.35,1.2,36,1,0,44,44,35,1,,,,,,,,,,,,,,,,,,,,,,,,,,,,,,,,,,,,,,,,
,,,,,WIN24_042,21,Female,2024-02-08_13h05.31.396,jersey_experiment_5,2023.2.2,Win32,85.47008547,,,,,,,,,,,,,,,,492.8803,494.6804,494.6804,495.7037,return,0.2871,,35.546875,,,,,,FBP-RB-91.png,0.37,1.2,27,1,0,45,45,26,1,,,,,,,,,,,,,,,,,,,,,,,,,,,,,,,,,,,,,,,,
,,,,,WIN24_042,21,Female,2024-02-08_13h05.31.396,jersey_experiment_5,2023.2.2,Win32,85.47008547,,,,,,,,,,,,,,,,495.704,496.9979,496.9979,499.3978,return,0.2892,,55.078125,,,,,,FBP-PT-71.png,0.4,1.2,48,0.5,0,46,46,47,1,,,,,,,,,,,,,,,,,,,,,,,,,,,,,,,,,,,,,,,,
,,,,,WIN24_042,21,Female,2024-02-08_13h05.31.396,jersey_experiment_5,2023.2.2,Win32,85.47008547,,,,,,,,,,,,,,,,499.398,500.6921,500.6922,502.3274,return,0.243,,26.30208333,,,,,,FBP-OG-18.png,0.35,1.2,6,0.5,0,47,47,5,1,,,,,,,,,,,,,,,,,,,,,,,,,,,,,,,,,,,,,,,,
,,,,,WIN24_042,21,Female,2024-02-08_13h05.31.396,jersey_experiment_5,2023.2.2,Win32,85.47008547,,,,,,,,,,,,,,,,502.3275,503.6216,503.6216,504.5511,return,0.2172,,33.85416667,,,,,,FBP-OG-17.png,0.37,1.2,2,0.5,0,48,48,1,1,,,,,,,,,,,,,,,,,,,,,,,,,,,,,,,,,,,,,,,,
,,,,,WIN24_042,21,Female,2024-02-08_13h05.31.396,jersey_experiment_5,2023.2.2,Win32,85.47008547,,,,,,,,,,,,,,,,504.5514,505.8452,505.8452,507.3393,return,0.3332,,73.95833333,,,,,,FBP-PT-81.png,0.45,1.2,55,0.5,0,49,49,54,1,,,,,,,,,,,,,,,,,,,,,,,,,,,,,,,,,,,,,,,,
,,,,,WIN24_042,21,Female,2024-02-08_13h05.31.396,jersey_experiment_5,2023.2.2,Win32,85.47008547,,,,,,,,,,,,,,,,507.3395,508.6335,508.6335,511.3749,return,0.3533,,22.39583333,,,,,,FBP-PT-81.png,0.35,1.2,51,0.5,0,50,50,50,1,,,,,,,,,,,,,,,,,,,,,,,,,,,,,,,,,,,,,,,,
,,,,,WIN24_042,21,Female,2024-02-08_13h05.31.396,jersey_experiment_5,2023.2.2,Win32,85.47008547,,,,,,,,,,,,,,,,511.3752,513.1749,513.1749,515.5162,return,0.3773,,75.26041667,,,,,,FBP-RB-71.png,0.43,1.2,19,1,0,51,51,18,1,,,,,,,,,,,,,,,,,,,,,,,,,,,,,,,,,,,,,,,,
,,,,,WIN24_042,21,Female,2024-02-08_13h05.31.396,jersey_experiment_5,2023.2.2,Win32,85.47008547,,,,,,,,,,,,,,,,515.5164,517.3163,517.3163,518.5517,return,0.3489,,88.80208333,,,,,,FBP-RB-91.png,0.45,1.2,30,1,0,52,52,29,1,,,,,,,,,,,,,,,,,,,,,,,,,,,,,,,,,,,,,,,,
,,,,,WIN24_042,21,Female,2024-02-08_13h05.31.396,jersey_experiment_5,2023.2.2,Win32,85.47008547,,,,,,,,,,,,,,,,518.5518,520.3518,520.3519,521.8457,return,0.3034,,83.46354167,,,,,,FBP-RB-81.png,0.43,1.2,24,1,0,53,53,23,1,,,,,,,,,,,,,,,,,,,,,,,,,,,,,,,,,,,,,,,,
,,,,,WIN24_042,21,Female,2024-02-08_13h05.31.396,jersey_experiment_5,2023.2.2,Win32,85.47008547,,,,,,,,,,,,,,,,521.846,523.6459,523.6459,524.8224,return,0.2678,,89.19270833,,,,,,FBP-YG-17.png,0.45,1.2,35,1,0,54,54,34,1,,,,,,,,,,,,,,,,,,,,,,,,,,,,,,,,,,,,,,,,
,,,,,WIN24_042,21,Female,2024-02-08_13h05.31.396,jersey_experiment_5,2023.2.2,Win32,85.47008547,,,,,,,,,,,,,,,,524.8226,526.1166,526.1166,527.1284,return,0.3128,,84.89583333,,,,,,FBP-PT-81.png,0.43,1.2,54,0.5,0,55,55,53,1,,,,,,,,,,,,,,,,,,,,,,,,,,,,,,,,,,,,,,,,
,,,,,WIN24_042,21,Female,2024-02-08_13h05.31.396,jersey_experiment_5,2023.2.2,Win32,85.47008547,,,,,,,,,,,,,,,,527.1286,528.4225,528.4225,533.211,return,2.8255,,57.03125,,,,,,FBP-OG-19.png,0.37,1.2,12,0.5,0,56,56,11,1,,,,,,,,,,,,,,,,,,,,,,,,,,,,,,,,,,,,,,,,
,,,,,WIN24_042,21,Female,2024-02-08_13h05.31.396,jersey_experiment_5,2023.2.2,Win32,85.47008547,,,,,,,,,,,,,,,,533.2112,534.5051,534.5051,535.5639,return,0.283,,49.609375,,,,,,FBP-PT-81.png,0.4,1.2,53,0.5,0,57,57,52,1,,,,,,,,,,,,,,,,,,,,,,,,,,,,,,,,,,,,,,,,
,,,,,WIN24_042,21,Female,2024-02-08_13h05.31.396,jersey_experiment_5,2023.2.2,Win32,85.47008547,,,,,,,,,,,,,,,,535.5641,537.364,537.364,539.7877,return,1.3303,,74.47916667,,,,,,FBP-YG-18.png,0.45,1.2,40,1,0,58,58,39,1,,,,,,,,,,,,,,,,,,,,,,,,,,,,,,,,,,,,,,,,
,,,,,WIN24_042,21,Female,2024-02-08_13h05.31.396,jersey_experiment_5,2023.2.2,Win32,85.47008547,,,,,,,,,,,,,,,,539.7878,541.0818,541.0818,542.8937,return,0.6604,,47.13541667,,,,,,FBP-PT-71.png,0.37,1.2,47,0.5,0,59,59,46,1,,,,,,,,,,,,,,,,,,,,,,,,,,,,,,,,,,,,,,,,
,,,,,WIN24_042,21,Female,2024-02-08_13h05.31.396,jersey_experiment_5,2023.2.2,Win32,85.47008547,,,,,,,,,,,,,,,,,,,,,,,,,,,,,,,,,,,,,,,542.894,662.8986,,,,,,,,,,,,,,,,,,,,,,,,,,,,,,,,,,,,,,
,,,,,WIN24_042,21,Female,2024-02-08_13h05.31.396,jersey_experiment_5,2023.2.2,Win32,85.47008547,,,,,,,,,,,,,,,,,,,,,,,,,,,,,,,,,,,,,,,,,662.8987,665.9808,return,3.0703,,,,,,,,,,,,,,,,,,,,,,,,,,,,,,,,,,
,,,,,WIN24_042,21,Female,2024-02-08_13h05.31.396,jersey_experiment_5,2023.2.2,Win32,85.47008547,,,,,,,,,,,,,,,,665.987,667.7808,667.7809,672.4279,return,2.248,,25,,,,,,FBP-OG-81.png,0.4,1.2,8,1,,,,,,,,,,,,,0,0,0,7,1,,,,,,,,,,,,,,,,,,,,,,,,,,,,
,,,,,WIN24_042,21,Female,2024-02-08_13h05.31.396,jersey_experiment_5,2023.2.2,Win32,85.47008547,,,,,,,,,,,,,,,,672.4284,673.7221,673.7221,676.1693,return,0.6506,,71.875,,,,,,FBP-RB-19.png,0.43,1.2,29,0.5,,,,,,,,,,,,,0,1,1,28,1,,,,,,,,,,,,,,,,,,,,,,,,,,,,
,,,,,WIN24_042,21,Female,2024-02-08_13h05.31.396,jersey_experiment_5,2023.2.2,Win32,85.47008547,,,,,,,,,,,,,,,,676.1695,677.9696,677.9697,679.2753,return,0.3192,,21.09375,,,,,,FBP-PT-19.png,0.37,1.2,57,1,,,,,,,,,,,,,0,2,2,56,1,,,,,,,,,,,,,,,,,,,,,,,,,,,,
,,,,,WIN24_042,21,Female,2024-02-08_13h05.31.396,jersey_experiment_5,2023.2.2,Win32,85.47008547,,,,,,,,,,,,,,,,679.2755,681.0755,681.0755,682.6519,return,0.2364,,49.73958333,,,,,,FBP-OG-81.png,0.43,1.2,9,1,,,,,,,,,,,,,0,3,3,8,1,,,,,,,,,,,,,,,,,,,,,,,,,,,,
,,,,,WIN24_042,21,Female,2024-02-08_13h05.31.396,jersey_experiment_5,2023.2.2,Win32,85.47008547,,,,,,,,,,,,,,,,682.6522,683.9461,683.9461,687.1462,return,2.2613,,64.0625,,,,,,FBP-YG-81.png,0.43,1.2,39,0.5,,,,,,,,,,,,,0,4,4,38,1,,,,,,,,,,,,,,,,,,,,,,,,,,,,
,,,,,WIN24_042,21,Female,2024-02-08_13h05.31.396,jersey_experiment_5,2023.2.2,Win32,85.47008547,,,,,,,,,,,,,,,,687.1463,688.9464,688.9465,690.2874,return,0.2686,,42.05729167,,,,,,FBP-OG-81.png,0.37,1.2,7,1,,,,,,,,,,,,,0,5,5,6,1,,,,,,,,,,,,,,,,,,,,,,,,,,,,
,,,,,WIN24_042,21,Female,2024-02-08_13h05.31.396,jersey_experiment_5,2023.2.2,Win32,85.47008547,,,,,,,,,,,,,,,,690.2876,691.5816,691.5816,692.9582,return,0.2356,,74.08854167,,,,,,FBP-RB-18.png,0.43,1.2,24,0.5,,,,,,,,,,,,,0,6,6,23,1,,,,,,,,,,,,,,,,,,,,,,,,,,,,
,,,,,WIN24_042,21,Female,2024-02-08_13h05.31.396,jersey_experiment_5,2023.2.2,Win32,85.47008547,,,,,,,,,,,,,,,,692.9584,694.7583,694.7583,699.7114,return,4.1088,,57.68229167,,,,,,FBP-OG-71.png,0.4,1.2,3,1,,,,,,,,,,,,,0,7,7,2,1,,,,,,,,,,,,,,,,,,,,,,,,,,,,
,,,,,WIN24_042,21,Female,2024-02-08_13h05.31.396,jersey_experiment_5,2023.2.2,Win32,85.47008547,,,,,,,,,,,,,,,,699.7116,701.5113,701.5113,702.5703,return,0.2968,,68.48958333,,,,,,FBP-PT-18.png,0.43,1.2,54,1,,,,,,,,,,,,,0,8,8,53,1,,,,,,,,,,,,,,,,,,,,,,,,,,,,
,,,,,WIN24_042,21,Female,2024-02-08_13h05.31.396,jersey_experiment_5,2023.2.2,Win32,85.47008547,,,,,,,,,,,,,,,,702.5706,704.3705,704.3705,705.6293,return,0.6936,,79.6875,,,,,,FBP-OG-91.png,0.45,1.2,15,1,,,,,,,,,,,,,0,9,9,14,1,,,,,,,,,,,,,,,,,,,,,,,,,,,,
,,,,,WIN24_042,21,Female,2024-02-08_13h05.31.396,jersey_experiment_5,2023.2.2,Win32,85.47008547,,,,,,,,,,,,,,,,705.6295,706.9233,706.9233,707.9351,return,0.259,,79.03645833,,,,,,FBP-YG-91.png,0.45,1.2,45,0.5,,,,,,,,,,,,,0,10,10,44,1,,,,,,,,,,,,,,,,,,,,,,,,,,,,
,,,,,WIN24_042,21,Female,2024-02-08_13h05.31.396,jersey_experiment_5,2023.2.2,Win32,85.47008547,,,,,,,,,,,,,,,,707.9354,709.2293,709.2293,710.5235,return,0.2507,,45.44270833,,,,,,FBP-RB-19.png,0.37,1.2,27,0.5,,,,,,,,,,,,,0,11,11,26,1,,,,,,,,,,,,,,,,,,,,,,,,,,,,
,,,,,WIN24_042,21,Female,2024-02-08_13h05.31.396,jersey_experiment_5,2023.2.2,Win32,85.47008547,,,,,,,,,,,,,,,,710.5236,712.3235,712.3235,715.4884,return,0.3158,,74.21875,,,,,,FBP-PT-19.png,0.45,1.2,60,1,,,,,,,,,,,,,0,12,12,59,1,,,,,,,,,,,,,,,,,,,,,,,,,,,,
,,,,,WIN24_042,21,Female,2024-02-08_13h05.31.396,jersey_experiment_5,2023.2.2,Win32,85.47008547,,,,,,,,,,,,,,,,715.4887,716.7826,716.7827,718.7121,return,0.5954,,87.109375,,,,,,FBP-RB-19.png,0.45,1.2,30,0.5,,,,,,,,,,,,,0,13,13,29,1,,,,,,,,,,,,,,,,,,,,,,,,,,,,
,,,,,WIN24_042,21,Female,2024-02-08_13h05.31.396,jersey_experiment_5,2023.2.2,Win32,85.47008547,,,,,,,,,,,,,,,,718.7123,720.0062,720.0062,721.6888,return,0.7951,,86.58854167,,,,,,FBP-YG-71.png,0.45,1.2,35,0.5,,,,,,,,,,,,,0,14,14,34,1,,,,,,,,,,,,,,,,,,,,,,,,,,,,
,,,,,WIN24_042,21,Female,2024-02-08_13h05.31.396,jersey_experiment_5,2023.2.2,Win32,85.47008547,,,,,,,,,,,,,,,,721.6891,723.4888,723.4888,725.0066,return,0.5887,,45.44270833,,,,,,FBP-OG-91.png,0.4,1.2,13,1,,,,,,,,,,,,,0,15,15,12,1,,,,,,,,,,,,,,,,,,,,,,,,,,,,
,,,,,WIN24_042,21,Female,2024-02-08_13h05.31.396,jersey_experiment_5,2023.2.2,Win32,85.47008547,,,,,,,,,,,,,,,,725.0068,726.3008,726.3008,727.936,return,0.5507,,47.78645833,,,,,,FBP-RB-19.png,0.4,1.2,28,0.5,,,,,,,,,,,,,0,16,16,27,1,,,,,,,,,,,,,,,,,,,,,,,,,,,,
,,,,,WIN24_042,21,Female,2024-02-08_13h05.31.396,jersey_experiment_5,2023.2.2,Win32,85.47008547,,,,,,,,,,,,,,,,727.9362,729.7363,729.7363,731.4655,return,0.721,,82.421875,,,,,,FBP-PT-18.png,0.45,1.2,55,1,,,,,,,,,,,,,0,17,17,54,1,,,,,,,,,,,,,,,,,,,,,,,,,,,,
,,,,,WIN24_042,21,Female,2024-02-08_13h05.31.396,jersey_experiment_5,2023.2.2,Win32,85.47008547,,,,,,,,,,,,,,,,731.4657,732.7597,732.7597,737.9833,return,3.7414,,61.97916667,,,,,,FBP-RB-18.png,0.4,1.2,23,0.5,,,,,,,,,,,,,0,18,18,22,1,,,,,,,,,,,,,,,,,,,,,,,,,,,,
,,,,,WIN24_042,21,Female,2024-02-08_13h05.31.396,jersey_experiment_5,2023.2.2,Win32,85.47008547,,,,,,,,,,,,,,,,737.9836,739.2776,739.2776,745.4074,return,0.6355,,45.83333333,,,,,,FBP-RB-19.png,0.35,1.2,26,0.5,,,,,,,,,,,,,0,19,19,25,1,,,,,,,,,,,,,,,,,,,,,,,,,,,,
,,,,,WIN24_042,21,Female,2024-02-08_13h05.31.396,jersey_experiment_5,2023.2.2,Win32,85.47008547,,,,,,,,,,,,,,,,745.4076,746.7015,746.7015,748.4427,return,0.7929,,19.140625,,,,,,FBP-YG-81.png,0.37,1.2,37,0.5,,,,,,,,,,,,,0,20,20,36,1,,,,,,,,,,,,,,,,,,,,,,,,,,,,
,,,,,WIN24_042,21,Female,2024-02-08_13h05.31.396,jersey_experiment_5,2023.2.2,Win32,85.47008547,,,,,,,,,,,,,,,,748.4429,750.2429,750.2429,751.1604,return,0.313,,8.59375,,,,,,FBP-PT-17.png,0.35,1.2,46,1,,,,,,,,,,,,,0,21,21,45,1,,,,,,,,,,,,,,,,,,,,,,,,,,,,
,,,,,WIN24_042,21,Female,2024-02-08_13h05.31.396,jersey_experiment_5,2023.2.2,Win32,85.47008547,,,,,,,,,,,,,,,,751.1606,752.9605,752.9606,754.0782,return,0.2832,,8.203125,,,,,,FBP-PT-18.png,0.35,1.2,51,1,,,,,,,,,,,,,0,22,22,50,1,,,,,,,,,,,,,,,,,,,,,,,,,,,,
,,,,,WIN24_042,21,Female,2024-02-08_13h05.31.396,jersey_experiment_5,2023.2.2,Win32,85.47008547,,,,,,,,,,,,,,,,754.0784,755.3723,755.3723,757.0195,return,0.3096,,78.64583333,,,,,,FBP-RB-17.png,0.45,1.2,20,0.5,,,,,,,,,,,,,0,23,23,19,1,,,,,,,,,,,,,,,,,,,,,,,,,,,,
,,,,,WIN24_042,21,Female,2024-02-08_13h05.31.396,jersey_experiment_5,2023.2.2,Win32,85.47008547,,,,,,,,,,,,,,,,757.0198,758.8197,758.8197,759.9372,return,0.3628,,2.864583333,,,,,,FBP-OG-71.png,0.35,1.2,1,1,,,,,,,,,,,,,0,24,24,0,1,,,,,,,,,,,,,,,,,,,,,,,,,,,,
,,,,,WIN24_042,21,Female,2024-02-08_13h05.31.396,jersey_experiment_5,2023.2.2,Win32,85.47008547,,,,,,,,,,,,,,,,759.9374,761.2313,761.2314,762.5019,return,0.2541,,73.95833333,,,,,,FBP-RB-18.png,0.45,1.2,25,0.5,,,,,,,,,,,,,0,25,25,24,1,,,,,,,,,,,,,,,,,,,,,,,,,,,,
,,,,,WIN24_042,21,Female,2024-02-08_13h05.31.396,jersey_experiment_5,2023.2.2,Win32,85.47008547,,,,,,,,,,,,,,,,762.5022,764.3022,764.3022,765.6433,return,0.2511,,62.36979167,,,,,,FBP-PT-19.png,0.4,1.2,58,1,,,,,,,,,,,,,0,26,26,57,1,,,,,,,,,,,,,,,,,,,,,,,,,,,,
,,,,,WIN24_042,21,Female,2024-02-08_13h05.31.396,jersey_experiment_5,2023.2.2,Win32,85.47008547,,,,,,,,,,,,,,,,765.6436,767.4434,767.4434,768.7963,return,0.3203,,25.78125,,,,,,FBP-OG-81.png,0.35,1.2,6,1,,,,,,,,,,,,,0,27,27,5,1,,,,,,,,,,,,,,,,,,,,,,,,,,,,
,,,,,WIN24_042,21,Female,2024-02-08_13h05.31.396,jersey_experiment_5,2023.2.2,Win32,85.47008547,,,,,,,,,,,,,,,,768.7966,770.5964,770.5964,772.3846,return,1.4115,,32.29166667,,,,,,FBP-PT-17.png,0.37,1.2,47,1,,,,,,,,,,,,,0,28,28,46,1,,,,,,,,,,,,,,,,,,,,,,,,,,,,
,,,,,WIN24_042,21,Female,2024-02-08_13h05.31.396,jersey_experiment_5,2023.2.2,Win32,85.47008547,,,,,,,,,,,,,,,,772.3847,773.6788,773.6788,774.6083,return,0.3208,,39.32291667,,,,,,FBP-YG-81.png,0.4,1.2,38,0.5,,,,,,,,,,,,,0,29,29,37,1,,,,,,,,,,,,,,,,,,,,,,,,,,,,
,,,,,WIN24_042,21,Female,2024-02-08_13h05.31.396,jersey_experiment_5,2023.2.2,Win32,85.47008547,,,,,,,,,,,,,,,,774.6085,775.9025,775.9025,776.879,return,0.2683,,46.875,,,,,,FBP-YG-91.png,0.4,1.2,43,0.5,,,,,,,,,,,,,0,30,30,42,1,,,,,,,,,,,,,,,,,,,,,,,,,,,,
,,,,,WIN24_042,21,Female,2024-02-08_13h05.31.396,jersey_experiment_5,2023.2.2,Win32,85.47008547,,,,,,,,,,,,,,,,776.8793,778.1732,778.1732,779.2556,return,0.2195,,57.03125,,,,,,FBP-YG-91.png,0.43,1.2,44,0.5,,,,,,,,,,,,,0,31,31,43,1,,,,,,,,,,,,,,,,,,,,,,,,,,,,
,,,,,WIN24_042,21,Female,2024-02-08_13h05.31.396,jersey_experiment_5,2023.2.2,Win32,85.47008547,,,,,,,,,,,,,,,,779.2558,780.5497,780.5497,782.9734,return,1.3996,,36.97916667,,,,,,FBP-RB-17.png,0.35,1.2,16,0.5,,,,,,,,,,,,,0,32,32,15,1,,,,,,,,,,,,,,,,,,,,,,,,,,,,
,,,,,WIN24_042,21,Female,2024-02-08_13h05.31.396,jersey_experiment_5,2023.2.2,Win32,85.47008547,,,,,,,,,,,,,,,,782.9737,784.2676,784.2676,785.2558,return,0.29,,33.72395833,,,,,,FBP-YG-71.png,0.35,1.2,31,0.5,,,,,,,,,,,,,0,33,33,30,1,,,,,,,,,,,,,,,,,,,,,,,,,,,,
,,,,,WIN24_042,21,Female,2024-02-08_13h05.31.396,jersey_experiment_5,2023.2.2,Win32,85.47008547,,,,,,,,,,,,,,,,785.2561,787.0559,787.0559,788.3264,return,0.265,,40.10416667,,,,,,FBP-OG-91.png,0.37,1.2,12,1,,,,,,,,,,,,,0,34,34,11,1,,,,,,,,,,,,,,,,,,,,,,,,,,,,
,,,,,WIN24_042,21,Female,2024-02-08_13h05.31.396,jersey_experiment_5,2023.2.2,Win32,85.47008547,,,,,,,,,,,,,,,,788.3266,789.6207,789.6207,790.7502,return,0.3919,,46.61458333,,,,,,FBP-YG-71.png,0.4,1.2,33,0.5,,,,,,,,,,,,,0,35,35,32,1,,,,,,,,,,,,,,,,,,,,,,,,,,,,
,,,,,WIN24_042,21,Female,2024-02-08_13h05.31.396,jersey_experiment_5,2023.2.2,Win32,85.47008547,,,,,,,,,,,,,,,,790.7504,792.5502,792.5502,793.4326,return,0.4419,,56.77083333,,,,,,FBP-OG-71.png,0.43,1.2,4,1,,,,,,,,,,,,,0,36,36,3,1,,,,,,,,,,,,,,,,,,,,,,,,,,,,
,,,,,WIN24_042,21,Female,2024-02-08_13h05.31.396,jersey_experiment_5,2023.2.2,Win32,85.47008547,,,,,,,,,,,,,,,,793.4328,795.2326,795.2326,796.5268,return,0.2354,,26.04166667,,,,,,FBP-OG-91.png,0.35,1.2,11,1,,,,,,,,,,,,,0,37,37,10,1,,,,,,,,,,,,,,,,,,,,,,,,,,,,
,,,,,WIN24_042,21,Female,2024-02-08_13h05.31.396,jersey_experiment_5,2023.2.2,Win32,85.47008547,,,,,,,,,,,,,,,,796.5271,798.3269,798.3269,798.9388,return,0.2281,,23.4375,,,,,,FBP-PT-19.png,0.35,1.2,56,1,,,,,,,,,,,,,0,38,38,55,1,,,,,,,,,,,,,,,,,,,,,,,,,,,,
,,,,,WIN24_042,21,Female,2024-02-08_13h05.31.396,jersey_experiment_5,2023.2.2,Win32,85.47008547,,,,,,,,,,,,,,,,798.939,800.7388,800.7388,802.927,return,0.2591,,64.0625,,,,,,FBP-OG-71.png,0.45,1.2,5,1,,,,,,,,,,,,,0,39,39,4,1,,,,,,,,,,,,,,,,,,,,,,,,,,,,
,,,,,WIN24_042,21,Female,2024-02-08_13h05.31.396,jersey_experiment_5,2023.2.2,Win32,85.47008547,,,,,,,,,,,,,,,,802.9273,804.2211,804.2212,807.4214,return,2.4113,,39.58333333,,,,,,FBP-YG-81.png,0.35,1.2,36,0.5,,,,,,,,,,,,,0,40,40,35,1,,,,,,,,,,,,,,,,,,,,,,,,,,,,
,,,,,WIN24_042,21,Female,2024-02-08_13h05.31.396,jersey_experiment_5,2023.2.2,Win32,85.47008547,,,,,,,,,,,,,,,,807.4216,809.2215,809.2215,811.0568,return,0.2589,,77.47395833,,,,,,FBP-PT-17.png,0.43,1.2,49,1,,,,,,,,,,,,,0,41,41,48,1,,,,,,,,,,,,,,,,,,,,,,,,,,,,
,,,,,WIN24_042,21,Female,2024-02-08_13h05.31.396,jersey_experiment_5,2023.2.2,Win32,85.47008547,,,,,,,,,,,,,,,,811.057,812.3511,812.3511,814.1864,return,0.6521,,75.26041667,,,,,,FBP-YG-71.png,0.43,1.2,34,0.5,,,,,,,,,,,,,0,42,42,33,1,,,,,,,,,,,,,,,,,,,,,,,,,,,,
,,,,,WIN24_042,21,Female,2024-02-08_13h05.31.396,jersey_experiment_5,2023.2.2,Win32,85.47008547,,,,,,,,,,,,,,,,814.1866,815.4806,815.4806,817.8336,return,0.7705,,42.31770833,,,,,,FBP-RB-18.png,0.35,1.2,21,0.5,,,,,,,,,,,,,0,43,43,20,1,,,,,,,,,,,,,,,,,,,,,,,,,,,,
,,,,,WIN24_042,21,Female,2024-02-08_13h05.31.396,jersey_experiment_5,2023.2.2,Win32,85.47008547,,,,,,,,,,,,,,,,817.8337,819.6336,819.6336,820.3513,return,0.226,,48.4375,,,,,,FBP-PT-17.png,0.4,1.2,48,1,,,,,,,,,,,,,0,44,44,47,1,,,,,,,,,,,,,,,,,,,,,,,,,,,,
,,,,,WIN24_042,21,Female,2024-02-08_13h05.31.396,jersey_experiment_5,2023.2.2,Win32,85.47008547,,,,,,,,,,,,,,,,820.3516,821.6455,821.6455,822.5042,return,0.266,,43.61979167,,,,,,FBP-YG-91.png,0.35,1.2,41,0.5,,,,,,,,,,,,,0,45,45,40,1,,,,,,,,,,,,,,,,,,,,,,,,,,,,
,,,,,WIN24_042,21,Female,2024-02-08_13h05.31.396,jersey_experiment_5,2023.2.2,Win32,85.47008547,,,,,,,,,,,,,,,,822.5044,823.7984,823.7984,825.2338,return,0.2118,,78.38541667,,,,,,FBP-YG-81.png,0.45,1.2,40,0.5,,,,,,,,,,,,,0,46,46,39,1,,,,,,,,,,,,,,,,,,,,,,,,,,,,
,,,,,WIN24_042,21,Female,2024-02-08_13h05.31.396,jersey_experiment_5,2023.2.2,Win32,85.47008547,,,,,,,,,,,,,,,,825.234,827.0339,827.0339,828.481,return,1.0355,,88.671875,,,,,,FBP-PT-17.png,0.45,1.2,50,1,,,,,,,,,,,,,0,47,47,49,1,,,,,,,,,,,,,,,,,,,,,,,,,,,,
,,,,,WIN24_042,21,Female,2024-02-08_13h05.31.396,jersey_experiment_5,2023.2.2,Win32,85.47008547,,,,,,,,,,,,,,,,828.4812,829.7751,829.7751,830.6576,return,0.2591,,90.10416667,,,,,,FBP-RB-17.png,0.43,1.2,19,0.5,,,,,,,,,,,,,0,48,48,18,1,,,,,,,,,,,,,,,,,,,,,,,,,,,,
,,,,,WIN24_042,21,Female,2024-02-08_13h05.31.396,jersey_experiment_5,2023.2.2,Win32,85.47008547,,,,,,,,,,,,,,,,830.6578,832.4575,832.4576,835.6224,return,1.1127,,55.33854167,,,,,,FBP-PT-18.png,0.37,1.2,52,1,,,,,,,,,,,,,0,49,49,51,1,,,,,,,,,,,,,,,,,,,,,,,,,,,,
,,,,,WIN24_042,21,Female,2024-02-08_13h05.31.396,jersey_experiment_5,2023.2.2,Win32,85.47008547,,,,,,,,,,,,,,,,835.6225,836.9168,836.9168,840.1991,return,2.4174,,72.91666667,,,,,,FBP-RB-17.png,0.4,1.2,18,0.5,,,,,,,,,,,,,0,50,50,17,1,,,,,,,,,,,,,,,,,,,,,,,,,,,,
,,,,,WIN24_042,21,Female,2024-02-08_13h05.31.396,jersey_experiment_5,2023.2.2,Win32,85.47008547,,,,,,,,,,,,,,,,840.1992,841.9992,841.9992,843.505,return,0.6587,,42.70833333,,,,,,FBP-OG-71.png,0.37,1.2,2,1,,,,,,,,,,,,,0,51,51,1,1,,,,,,,,,,,,,,,,,,,,,,,,,,,,
,,,,,WIN24_042,21,Female,2024-02-08_13h05.31.396,jersey_experiment_5,2023.2.2,Win32,85.47008547,,,,,,,,,,,,,,,,843.5053,845.3051,845.3051,846.717,return,0.614,,78.25520833,,,,,,FBP-PT-19.png,0.43,1.2,59,1,,,,,,,,,,,,,0,52,52,58,1,,,,,,,,,,,,,,,,,,,,,,,,,,,,
,,,,,WIN24_042,21,Female,2024-02-08_13h05.31.396,jersey_experiment_5,2023.2.2,Win32,85.47008547,,,,,,,,,,,,,,,,846.717,848.5172,848.5172,849.2936,return,0.3062,,84.63541667,,,,,,FBP-OG-81.png,0.45,1.2,10,1,,,,,,,,,,,,,0,53,53,9,1,,,,,,,,,,,,,,,,,,,,,,,,,,,,
,,,,,WIN24_042,21,Female,2024-02-08_13h05.31.396,jersey_experiment_5,2023.2.2,Win32,85.47008547,,,,,,,,,,,,,,,,849.2938,851.0936,851.0936,852.0113,return,0.5774,,84.89583333,,,,,,FBP-OG-91.png,0.43,1.2,14,1,,,,,,,,,,,,,0,54,54,13,1,,,,,,,,,,,,,,,,,,,,,,,,,,,,
,,,,,WIN24_042,21,Female,2024-02-08_13h05.31.396,jersey_experiment_5,2023.2.2,Win32,85.47008547,,,,,,,,,,,,,,,,852.0114,853.3055,853.3055,855.1292,return,0.8744,,60.9375,,,,,,FBP-RB-18.png,0.37,1.2,22,0.5,,,,,,,,,,,,,0,55,55,21,1,,,,,,,,,,,,,,,,,,,,,,,,,,,,
,,,,,WIN24_042,21,Female,2024-02-08_13h05.31.396,jersey_experiment_5,2023.2.2,Win32,85.47008547,,,,,,,,,,,,,,,,855.1294,856.4232,856.4232,857.6115,return,0.4037,,52.86458333,,,,,,FBP-YG-91.png,0.37,1.2,42,0.5,,,,,,,,,,,,,0,56,56,41,1,,,,,,,,,,,,,,,,,,,,,,,,,,,,
,,,,,WIN24_042,21,Female,2024-02-08_13h05.31.396,jersey_experiment_5,2023.2.2,Win32,85.47008547,,,,,,,,,,,,,,,,857.6118,858.9056,858.9056,859.8704,return,0.3068,,45.96354167,,,,,,FBP-RB-17.png,0.37,1.2,17,0.5,,,,,,,,,,,,,0,57,57,16,1,,,,,,,,,,,,,,,,,,,,,,,,,,,,
,,,,,WIN24_042,21,Female,2024-02-08_13h05.31.396,jersey_experiment_5,2023.2.2,Win32,85.47008547,,,,,,,,,,,,,,,,859.8706,861.1645,861.1645,862.3529,return,0.3766,,53.25520833,,,,,,FBP-YG-71.png,0.37,1.2,32,0.5,,,,,,,,,,,,,0,58,58,31,1,,,,,,,,,,,,,,,,,,,,,,,,,,,,
,,,,,WIN24_042,21,Female,2024-02-08_13h05.31.396,jersey_experiment_5,2023.2.2,Win32,85.47008547,,,,,,,,,,,,,,,,862.353,864.1528,864.1529,864.7765,return,0.2871,,66.66666667,,,,,,FBP-PT-18.png,0.4,1.2,53,1,,,,,,,,,,,,,0,59,59,52,1,,,,,,,,,,,,,,,,,,,,,,,,,,,,
,,,,,WIN24_042,21,Female,2024-02-08_13h05.31.396,jersey_experiment_5,2023.2.2,Win32,85.47008547,,,,,,,,,,,,,,,,864.7779,866.0707,866.0707,866.9413,return,0.3297,,60.9375,,,,,,FBP-RB-71.png,0.35,1.2,16,0.5,,,,,,,,,,,,,,,,,,0,0,0,15,1,,,,,,,,,,,,,,,,,,,,,,,
,,,,,WIN24_042,21,Female,2024-02-08_13h05.31.396,jersey_experiment_5,2023.2.2,Win32,85.47008547,,,,,,,,,,,,,,,,866.9417,868.2355,868.2355,870.2002,return,0.2986,,58.984375,,,,,,FBP-RB-81.png,0.37,1.2,22,0.5,,,,,,,,,,,,,,,,,,0,1,1,21,1,,,,,,,,,,,,,,,,,,,,,,,
,,,,,WIN24_042,21,Female,2024-02-08_13h05.31.396,jersey_experiment_5,2023.2.2,Win32,85.47008547,,,,,,,,,,,,,,,,870.2004,872.0004,872.0004,872.8945,return,0.2967,,46.61458333,,,,,,FBP-PT-91.png,0.35,1.2,56,1,,,,,,,,,,,,,,,,,,0,2,2,55,1,,,,,,,,,,,,,,,,,,,,,,,
,,,,,WIN24_042,21,Female,2024-02-08_13h05.31.396,jersey_experiment_5,2023.2.2,Win32,85.47008547,,,,,,,,,,,,,,,,872.8948,874.1887,874.1887,875.7533,return,1.018,,41.015625,,,,,,FBP-RB-91.png,0.35,1.2,26,0.5,,,,,,,,,,,,,,,,,,0,3,3,25,1,,,,,,,,,,,,,,,,,,,,,,,
,,,,,WIN24_042,21,Female,2024-02-08_13h05.31.396,jersey_experiment_5,2023.2.2,Win32,85.47008547,,,,,,,,,,,,,,,,875.7536,877.5535,877.5535,878.2358,return,0.2505,,52.34375,,,,,,FBP-PT-81.png,0.4,1.2,53,1,,,,,,,,,,,,,,,,,,0,4,4,52,1,,,,,,,,,,,,,,,,,,,,,,,
,,,,,WIN24_042,21,Female,2024-02-08_13h05.31.396,jersey_experiment_5,2023.2.2,Win32,85.47008547,,,,,,,,,,,,,,,,878.236,880.036,880.036,881.5772,return,1.1947,,58.203125,,,,,,FBP-OG-18.png,0.4,1.2,8,1,,,,,,,,,,,,,,,,,,0,5,5,7,1,,,,,,,,,,,,,,,,,,,,,,,
,,,,,WIN24_042,21,Female,2024-02-08_13h05.31.396,jersey_experiment_5,2023.2.2,Win32,85.47008547,,,,,,,,,,,,,,,,881.5774,882.8713,882.8713,883.6125,return,0.2239,,62.36979167,,,,,,FBP-YG-17.png,0.4,1.2,33,0.5,,,,,,,,,,,,,,,,,,0,6,6,32,1,,,,,,,,,,,,,,,,,,,,,,,
,,,,,WIN24_042,21,Female,2024-02-08_13h05.31.396,jersey_experiment_5,2023.2.2,Win32,85.47008547,,,,,,,,,,,,,,,,883.6128,885.4128,885.4128,886.4244,return,0.6397,,57.16145833,,,,,,FBP-OG-17.png,0.4,1.2,3,1,,,,,,,,,,,,,,,,,,0,7,7,2,1,,,,,,,,,,,,,,,,,,,,,,,
,,,,,WIN24_042,21,Female,2024-02-08_13h05.31.396,jersey_experiment_5,2023.2.2,Win32,85.47008547,,,,,,,,,,,,,,,,886.4247,887.7186,887.7186,888.5892,return,0.3765,,60.15625,,,,,,FBP-RB-91.png,0.4,1.2,28,0.5,,,,,,,,,,,,,,,,,,0,8,8,27,1,,,,,,,,,,,,,,,,,,,,,,,
,,,,,WIN24_042,21,Female,2024-02-08_13h05.31.396,jersey_experiment_5,2023.2.2,Win32,85.47008547,,,,,,,,,,,,,,,,888.5895,890.3891,890.3892,891.3774,return,0.2684,,82.421875,,,,,,FBP-PT-91.png,0.45,1.2,60,1,,,,,,,,,,,,,,,,,,0,9,9,59,1,,,,,,,,,,,,,,,,,,,,,,,
,,,,,WIN24_042,21,Female,2024-02-08_13h05.31.396,jersey_experiment_5,2023.2.2,Win32,85.47008547,,,,,,,,,,,,,,,,891.3776,893.1776,893.1776,893.7894,return,0.2733,,82.421875,,,,,,FBP-OG-19.png,0.45,1.2,15,1,,,,,,,,,,,,,,,,,,0,10,10,14,1,,,,,,,,,,,,,,,,,,,,,,,
,,,,,WIN24_042,21,Female,2024-02-08_13h05.31.396,jersey_experiment_5,2023.2.2,Win32,85.47008547,,,,,,,,,,,,,,,,893.7896,895.0836,895.0836,895.9306,return,0.2987,,85.546875,,,,,,FBP-YG-19.png,0.43,1.2,44,0.5,,,,,,,,,,,,,,,,,,0,11,11,43,1,,,,,,,,,,,,,,,,,,,,,,,
,,,,,WIN24_042,21,Female,2024-02-08_13h05.31.396,jersey_experiment_5,2023.2.2,Win32,85.47008547,,,,,,,,,,,,,,,,895.9308,897.2248,897.2248,898.0131,return,0.2845,,91.015625,,,,,,FBP-RB-81.png,0.45,1.2,25,0.5,,,,,,,,,,,,,,,,,,0,12,12,24,1,,,,,,,,,,,,,,,,,,,,,,,
,,,,,WIN24_042,21,Female,2024-02-08_13h05.31.396,jersey_experiment_5,2023.2.2,Win32,85.47008547,,,,,,,,,,,,,,,,898.0133,899.8132,899.8132,901.3073,return,1.0722,,89.84375,,,,,,FBP-OG-18.png,0.43,1.2,9,1,,,,,,,,,,,,,,,,,,0,13,13,8,1,,,,,,,,,,,,,,,,,,,,,,,
,,,,,WIN24_042,21,Female,2024-02-08_13h05.31.396,jersey_experiment_5,2023.2.2,Win32,85.47008547,,,,,,,,,,,,,,,,901.3075,903.1074,903.1074,904.5897,return,0.2586,,27.60416667,,,,,,FBP-OG-18.png,0.37,1.2,7,1,,,,,,,,,,,,,,,,,,0,14,14,6,1,,,,,,,,,,,,,,,,,,,,,,,
,,,,,WIN24_042,21,Female,2024-02-08_13h05.31.396,jersey_experiment_5,2023.2.2,Win32,85.47008547,,,,,,,,,,,,,,,,904.59,905.8838,905.8838,907.2134,return,0.2375,,26.04166667,,,,,,FBP-YG-17.png,0.35,1.2,31,0.5,,,,,,,,,,,,,,,,,,0,15,15,30,1,,,,,,,,,,,,,,,,,,,,,,,
,,,,,WIN24_042,21,Female,2024-02-08_13h05.31.396,jersey_experiment_5,2023.2.2,Win32,85.47008547,,,,,,,,,,,,,,,,907.2136,909.0137,909.0137,911.6136,return,1.7196,,73.046875,,,,,,FBP-OG-19.png,0.43,1.2,14,1,,,,,,,,,,,,,,,,,,0,16,16,13,1,,,,,,,,,,,,,,,,,,,,,,,
,,,,,WIN24_042,21,Female,2024-02-08_13h05.31.396,jersey_experiment_5,2023.2.2,Win32,85.47008547,,,,,,,,,,,,,,,,911.6139,913.4137,913.4137,914.8254,return,0.653,,29.81770833,,,,,,FBP-OG-19.png,0.35,1.2,11,1,,,,,,,,,,,,,,,,,,0,17,17,10,1,,,,,,,,,,,,,,,,,,,,,,,
,,,,,WIN24_042,21,Female,2024-02-08_13h05.31.396,jersey_experiment_5,2023.2.2,Win32,85.47008547,,,,,,,,,,,,,,,,914.8256,916.1197,916.1197,919.6492,return,2.4849,,49.21875,,,,,,FBP-RB-71.png,0.4,1.2,18,0.5,,,,,,,,,,,,,,,,,,0,18,18,17,1,,,,,,,,,,,,,,,,,,,,,,,
,,,,,WIN24_042,21,Female,2024-02-08_13h05.31.396,jersey_experiment_5,2023.2.2,Win32,85.47008547,,,,,,,,,,,,,,,,919.6495,921.4493,921.4493,923.0846,return,1.2708,,54.42708333,,,,,,FBP-OG-17.png,0.43,1.2,4,1,,,,,,,,,,,,,,,,,,0,19,19,3,1,,,,,,,,,,,,,,,,,,,,,,,
,,,,,WIN24_042,21,Female,2024-02-08_13h05.31.396,jersey_experiment_5,2023.2.2,Win32,85.47008547,,,,,,,,,,,,,,,,923.0848,924.3788,924.3789,925.7198,return,0.2779,,51.43229167,,,,,,FBP-YG-19.png,0.4,1.2,43,0.5,,,,,,,,,,,,,,,,,,0,20,20,42,1,,,,,,,,,,,,,,,,,,,,,,,
,,,,,WIN24_042,21,Female,2024-02-08_13h05.31.396,jersey_experiment_5,2023.2.2,Win32,85.47008547,,,,,,,,,,,,,,,,925.7201,927.5201,927.5202,928.7789,return,0.6044,,47.65625,,,,,,FBP-OG-19.png,0.4,1.2,13,1,,,,,,,,,,,,,,,,,,0,21,21,12,1,,,,,,,,,,,,,,,,,,,,,,,
,,,,,WIN24_042,21,Female,2024-02-08_13h05.31.396,jersey_experiment_5,2023.2.2,Win32,85.47008547,,,,,,,,,,,,,,,,928.7792,930.0732,930.0732,931.1202,return,0.2916,,40.49479167,,,,,,FBP-YG-18.png,0.35,1.2,36,0.5,,,,,,,,,,,,,,,,,,0,22,22,35,1,,,,,,,,,,,,,,,,,,,,,,,
,,,,,WIN24_042,21,Female,2024-02-08_13h05.31.396,jersey_experiment_5,2023.2.2,Win32,85.47008547,,,,,,,,,,,,,,,,931.1205,932.4143,932.4144,933.9672,return,0.3153,,77.47395833,,,,,,FBP-YG-17.png,0.45,1.2,35,0.5,,,,,,,,,,,,,,,,,,0,23,23,34,1,,,,,,,,,,,,,,,,,,,,,,,
,,,,,WIN24_042,21,Female,2024-02-08_13h05.31.396,jersey_experiment_5,2023.2.2,Win32,85.47008547,,,,,,,,,,,,,,,,933.9673,935.2613,935.2613,936.9911,return,0.2825,,46.61458333,,,,,,FBP-YG-19.png,0.35,1.2,41,0.5,,,,,,,,,,,,,,,,,,0,24,24,40,1,,,,,,,,,,,,,,,,,,,,,,,
,,,,,WIN24_042,21,Female,2024-02-08_13h05.31.396,jersey_experiment_5,2023.2.2,Win32,85.47008547,,,,,,,,,,,,,,,,936.9913,938.2852,938.2853,939.7912,return,0.2968,,94.79166667,,,,,,FBP-RB-71.png,0.45,1.2,20,0.5,,,,,,,,,,,,,,,,,,0,25,25,19,1,,,,,,,,,,,,,,,,,,,,,,,
,,,,,WIN24_042,21,Female,2024-02-08_13h05.31.396,jersey_experiment_5,2023.2.2,Win32,85.47008547,,,,,,,,,,,,,,,,939.7914,941.5911,941.5911,943.8736,return,0.7061,,70.703125,,,,,,FBP-PT-81.png,0.43,1.2,54,1,,,,,,,,,,,,,,,,,,0,26,26,53,1,,,,,,,,,,,,,,,,,,,,,,,
,,,,,WIN24_042,21,Female,2024-02-08_13h05.31.396,jersey_experiment_5,2023.2.2,Win32,85.47008547,,,,,,,,,,,,,,,,943.8737,945.1677,945.1678,946.6973,return,0.3216,,42.578125,,,,,,FBP-RB-81.png,0.35,1.2,21,0.5,,,,,,,,,,,,,,,,,,0,27,27,20,1,,,,,,,,,,,,,,,,,,,,,,,
,,,,,WIN24_042,21,Female,2024-02-08_13h05.31.396,jersey_experiment_5,2023.2.2,Win32,85.47008547,,,,,,,,,,,,,,,,946.6975,948.4975,948.4975,949.6384,return,0.6678,,85.9375,,,,,,FBP-PT-71.png,0.45,1.2,50,1,,,,,,,,,,,,,,,,,,0,28,28,49,1,,,,,,,,,,,,,,,,,,,,,,,
,,,,,WIN24_042,21,Female,2024-02-08_13h05.31.396,jersey_experiment_5,2023.2.2,Win32,85.47008547,,,,,,,,,,,,,,,,949.6386,951.4386,951.4386,952.2032,return,0.3102,,90.625,,,,,,FBP-PT-81.png,0.45,1.2,55,1,,,,,,,,,,,,,,,,,,0,29,29,54,1,,,,,,,,,,,,,,,,,,,,,,,
,,,,,WIN24_042,21,Female,2024-02-08_13h05.31.396,jersey_experiment_5,2023.2.2,Win32,85.47008547,,,,,,,,,,,,,,,,952.2035,953.4975,953.4975,956.0742,return,1.7443,,81.25,,,,,,FBP-RB-91.png,0.43,1.2,29,0.5,,,,,,,,,,,,,,,,,,0,30,30,28,1,,,,,,,,,,,,,,,,,,,,,,,
,,,,,WIN24_042,21,Female,2024-02-08_13h05.31.396,jersey_experiment_5,2023.2.2,Win32,85.47008547,,,,,,,,,,,,,,,,956.0743,957.874,957.874,959.3448,return,0.3205,,25.52083333,,,,,,FBP-PT-81.png,0.35,1.2,51,1,,,,,,,,,,,,,,,,,,0,31,31,50,1,,,,,,,,,,,,,,,,,,,,,,,
,,,,,WIN24_042,21,Female,2024-02-08_13h05.31.396,jersey_experiment_5,2023.2.2,Win32,85.47008547,,,,,,,,,,,,,,,,959.3449,961.145,961.145,962.0273,return,0.2985,,23.4375,,,,,,FBP-OG-18.png,0.35,1.2,6,1,,,,,,,,,,,,,,,,,,0,32,32,5,1,,,,,,,,,,,,,,,,,,,,,,,
,,,,,WIN24_042,21,Female,2024-02-08_13h05.31.396,jersey_experiment_5,2023.2.2,Win32,85.47008547,,,,,,,,,,,,,,,,962.0275,963.8273,963.8273,964.4744,return,0.2613,,21.61458333,,,,,,FBP-OG-17.png,0.35,1.2,1,1,,,,,,,,,,,,,,,,,,0,33,33,0,1,,,,,,,,,,,,,,,,,,,,,,,
,,,,,WIN24_042,21,Female,2024-02-08_13h05.31.396,jersey_experiment_5,2023.2.2,Win32,85.47008547,,,,,,,,,,,,,,,,964.4746,965.7687,965.7687,969.851,return,2.0045,,63.41145833,,,,,,FBP-YG-19.png,0.45,1.2,45,0.5,,,,,,,,,,,,,,,,,,0,34,34,44,1,,,,,,,,,,,,,,,,,,,,,,,
,,,,,WIN24_042,21,Female,2024-02-08_13h05.31.396,jersey_experiment_5,2023.2.2,Win32,85.47008547,,,,,,,,,,,,,,,,969.8513,971.6513,971.6514,972.616,return,0.2782,,72.78645833,,,,,,FBP-OG-18.png,0.45,1.2,10,1,,,,,,,,,,,,,,,,,,0,35,35,9,1,,,,,,,,,,,,,,,,,,,,,,,
,,,,,WIN24_042,21,Female,2024-02-08_13h05.31.396,jersey_experiment_5,2023.2.2,Win32,85.47008547,,,,,,,,,,,,,,,,972.6162,974.416,974.416,975.4042,return,0.2475,,22.00520833,,,,,,FBP-PT-71.png,0.35,1.2,46,1,,,,,,,,,,,,,,,,,,0,36,36,45,1,,,,,,,,,,,,,,,,,,,,,,,
,,,,,WIN24_042,21,Female,2024-02-08_13h05.31.396,jersey_experiment_5,2023.2.2,Win32,85.47008547,,,,,,,,,,,,,,,,975.4045,976.6982,976.6983,977.569,return,0.2212,,23.046875,,,,,,FBP-RB-71.png,0.37,1.2,17,0.5,,,,,,,,,,,,,,,,,,0,37,37,16,1,,,,,,,,,,,,,,,,,,,,,,,
,,,,,WIN24_042,21,Female,2024-02-08_13h05.31.396,jersey_experiment_5,2023.2.2,Win32,85.47008547,,,,,,,,,,,,,,,,977.5692,978.8632,978.8632,979.5809,return,0.2495,,19.66145833,,,,,,FBP-YG-17.png,0.37,1.2,32,0.5,,,,,,,,,,,,,,,,,,0,38,38,31,1,,,,,,,,,,,,,,,,,,,,,,,
,,,,,WIN24_042,21,Female,2024-02-08_13h05.31.396,jersey_experiment_5,2023.2.2,Win32,85.47008547,,,,,,,,,,,,,,,,979.5812,981.3809,981.381,982.2045,return,0.2474,,26.30208333,,,,,,FBP-PT-71.png,0.4,1.2,48,1,,,,,,,,,,,,,,,,,,0,39,39,47,1,,,,,,,,,,,,,,,,,,,,,,,
,,,,,WIN24_042,21,Female,2024-02-08_13h05.31.396,jersey_experiment_5,2023.2.2,Win32,85.47008547,,,,,,,,,,,,,,,,982.2047,984.0046,984.0046,985.2869,return,1.1613,,31.38020833,,,,,,FBP-PT-81.png,0.37,1.2,52,1,,,,,,,,,,,,,,,,,,0,40,40,51,1,,,,,,,,,,,,,,,,,,,,,,,
,,,,,WIN24_042,21,Female,2024-02-08_13h05.31.396,jersey_experiment_5,2023.2.2,Win32,85.47008547,,,,,,,,,,,,,,,,985.2871,987.0871,987.0871,987.5693,return,0.306,,32.03125,,,,,,FBP-PT-91.png,0.37,1.2,57,1,,,,,,,,,,,,,,,,,,0,41,41,56,1,,,,,,,,,,,,,,,,,,,,,,,
,,,,,WIN24_042,21,Female,2024-02-08_13h05.31.396,jersey_experiment_5,2023.2.2,Win32,85.47008547,,,,,,,,,,,,,,,,987.5696,988.8635,988.8635,990.2989,return,0.2969,,94.27083333,,,,,,FBP-RB-91.png,0.45,1.2,30,0.5,,,,,,,,,,,,,,,,,,0,42,42,29,1,,,,,,,,,,,,,,,,,,,,,,,
,,,,,WIN24_042,21,Female,2024-02-08_13h05.31.396,jersey_experiment_5,2023.2.2,Win32,85.47008547,,,,,,,,,,,,,,,,990.2991,992.099,992.099,993.6402,return,1.137,,88.54166667,,,,,,FBP-OG-17.png,0.45,1.2,5,1,,,,,,,,,,,,,,,,,,0,43,43,4,1,,,,,,,,,,,,,,,,,,,,,,,
,,,,,WIN24_042,21,Female,2024-02-08_13h05.31.396,jersey_experiment_5,2023.2.2,Win32,85.47008547,,,,,,,,,,,,,,,,993.6405,995.4403,995.4403,996.0168,return,0.3391,,87.63020833,,,,,,FBP-PT-91.png,0.43,1.2,59,1,,,,,,,,,,,,,,,,,,0,44,44,58,1,,,,,,,,,,,,,,,,,,,,,,,
,,,,,WIN24_042,21,Female,2024-02-08_13h05.31.396,jersey_experiment_5,2023.2.2,Win32,85.47008547,,,,,,,,,,,,,,,,996.017,997.3109,997.3109,999.7699,return,1.1468,,68.61979167,,,,,,FBP-YG-18.png,0.37,1.2,37,0.5,,,,,,,,,,,,,,,,,,0,45,45,36,1,,,,,,,,,,,,,,,,,,,,,,,
,,,,,WIN24_042,21,Female,2024-02-08_13h05.31.396,jersey_experiment_5,2023.2.2,Win32,85.47008547,,,,,,,,,,,,,,,,999.7701,1001.0643,1001.0644,1002.37,return,0.2819,,57.16145833,,,,,,FBP-YG-18.png,0.4,1.2,38,0.5,,,,,,,,,,,,,,,,,,0,46,46,37,1,,,,,,,,,,,,,,,,,,,,,,,
,,,,,WIN24_042,21,Female,2024-02-08_13h05.31.396,jersey_experiment_5,2023.2.2,Win32,85.47008547,,,,,,,,,,,,,,,,1002.3702,1003.6641,1003.6641,1004.6054,return,0.3177,,63.02083333,,,,,,FBP-YG-17.png,0.43,1.2,34,0.5,,,,,,,,,,,,,,,,,,0,47,47,33,1,,,,,,,,,,,,,,,,,,,,,,,
,,,,,WIN24_042,21,Female,2024-02-08_13h05.31.396,jersey_experiment_5,2023.2.2,Win32,85.47008547,,,,,,,,,,,,,,,,1004.6055,1006.4054,1006.4054,1007.5466,return,0.2269,,56.90104167,,,,,,FBP-PT-71.png,0.37,1.2,47,1,,,,,,,,,,,,,,,,,,0,48,48,46,1,,,,,,,,,,,,,,,,,,,,,,,
,,,,,WIN24_042,21,Female,2024-02-08_13h05.31.396,jersey_experiment_5,2023.2.2,Win32,85.47008547,,,,,,,,,,,,,,,,1007.5468,1008.8407,1008.8408,1010.3351,return,0.2261,,76.953125,,,,,,FBP-RB-81.png,0.43,1.2,24,0.5,,,,,,,,,,,,,,,,,,0,49,49,23,1,,,,,,,,,,,,,,,,,,,,,,,
,,,,,WIN24_042,21,Female,2024-02-08_13h05.31.396,jersey_experiment_5,2023.2.2,Win32,85.47008547,,,,,,,,,,,,,,,,1010.3353,1011.6295,1011.6295,1012.3351,return,0.3298,,82.421875,,,,,,FBP-RB-71.png,0.43,1.2,19,0.5,,,,,,,,,,,,,,,,,,0,50,50,18,1,,,,,,,,,,,,,,,,,,,,,,,
,,,,,WIN24_042,21,Female,2024-02-08_13h05.31.396,jersey_experiment_5,2023.2.2,Win32,85.47008547,,,,,,,,,,,,,,,,1012.3353,1013.6292,1013.6292,1016.9116,return,1.1768,,48.69791667,,,,,,FBP-RB-91.png,0.37,1.2,27,0.5,,,,,,,,,,,,,,,,,,0,51,51,26,1,,,,,,,,,,,,,,,,,,,,,,,
,,,,,WIN24_042,21,Female,2024-02-08_13h05.31.396,jersey_experiment_5,2023.2.2,Win32,85.47008547,,,,,,,,,,,,,,,,1016.9118,1018.7118,1018.7118,1019.5,return,0.249,,49.34895833,,,,,,FBP-PT-91.png,0.4,1.2,58,1,,,,,,,,,,,,,,,,,,0,52,52,57,1,,,,,,,,,,,,,,,,,,,,,,,
,,,,,WIN24_042,21,Female,2024-02-08_13h05.31.396,jersey_experiment_5,2023.2.2,Win32,85.47008547,,,,,,,,,,,,,,,,1019.5002,1020.7941,1020.7941,1021.9471,return,0.2489,,78.25520833,,,,,,FBP-YG-18.png,0.43,1.2,39,0.5,,,,,,,,,,,,,,,,,,0,53,53,38,1,,,,,,,,,,,,,,,,,,,,,,,
,,,,,WIN24_042,21,Female,2024-02-08_13h05.31.396,jersey_experiment_5,2023.2.2,Win32,85.47008547,,,,,,,,,,,,,,,,1021.9473,1023.7473,1023.7473,1024.3002,return,0.2385,,77.734375,,,,,,FBP-PT-71.png,0.43,1.2,49,1,,,,,,,,,,,,,,,,,,0,54,54,48,1,,,,,,,,,,,,,,,,,,,,,,,
,,,,,WIN24_042,21,Female,2024-02-08_13h05.31.396,jersey_experiment_5,2023.2.2,Win32,85.47008547,,,,,,,,,,,,,,,,1024.3004,1025.5944,1025.5944,1026.4061,return,0.2424,,82.8125,,,,,,FBP-YG-18.png,0.45,1.2,40,0.5,,,,,,,,,,,,,,,,,,0,55,55,39,1,,,,,,,,,,,,,,,,,,,,,,,
,,,,,WIN24_042,21,Female,2024-02-08_13h05.31.396,jersey_experiment_5,2023.2.2,Win32,85.47008547,,,,,,,,,,,,,,,,1026.4063,1028.2061,1028.2061,1029.6885,return,0.6421,,44.921875,,,,,,FBP-OG-19.png,0.37,1.2,12,1,,,,,,,,,,,,,,,,,,0,56,56,11,1,,,,,,,,,,,,,,,,,,,,,,,
,,,,,WIN24_042,21,Female,2024-02-08_13h05.31.396,jersey_experiment_5,2023.2.2,Win32,85.47008547,,,,,,,,,,,,,,,,1029.6886,1030.9827,1030.9827,1032.0885,return,0.242,,52.34375,,,,,,FBP-RB-81.png,0.4,1.2,23,0.5,,,,,,,,,,,,,,,,,,0,57,57,22,1,,,,,,,,,,,,,,,,,,,,,,,
,,,,,WIN24_042,21,Female,2024-02-08_13h05.31.396,jersey_experiment_5,2023.2.2,Win32,85.47008547,,,,,,,,,,,,,,,,1032.0888,1033.3828,1033.3829,1034.4417,return,0.2271,,46.61458333,,,,,,FBP-YG-19.png,0.37,1.2,42,0.5,,,,,,,,,,,,,,,,,,0,58,58,41,1,,,,,,,,,,,,,,,,,,,,,,,
,,,,,WIN24_042,21,Female,2024-02-08_13h05.31.396,jersey_experiment_5,2023.2.2,Win32,85.47008547,,,,,,,,,,,,,,,,1034.4419,1036.2418,1036.2418,1037.0183,return,0.2288,,41.14583333,,,,,,FBP-OG-17.png,0.37,1.2,2,1,,,,,,,,,,,,,,,,,,0,59,59,1,1,,,,,,,,,,,,,,,,,,,,,,,
,,,,,WIN24_042,21,Female,2024-02-08_13h05.31.396,jersey_experiment_5,2023.2.2,Win32,85.47008547,,,,,,,,,,,,,,,,,,,,,,,,,,,,,,,,,,,,,,,,,,,,,,,,,,,,,,,,1037.0186,1042.0893,return,5.0645,,,,,,,,,,,,,,,,,,,
,,,,,WIN24_042,21,Female,2024-02-08_13h05.31.396,jersey_experiment_5,2023.2.2,Win32,85.47008547,,,,,,,,,,,,,,,,,,,,,,,,,,,,,,,,,,,,,,,,,,,,,,,,,,,,,,,,,,,,,1042.0893,1049.1603,1,4.6647,return,2.3954,,,,,,,,,,,,
,,,,,WIN24_042,21,Female,2024-02-08_13h05.31.396,jersey_experiment_5,2023.2.2,Win32,85.47008547,,,,,,,,,,,,,,,,,,,,,,,,,,,,,,,,,,,,,,,,,,,,,,,,,,,,,,,,,,,,,,,,,,,,1049.1644,1162.2402,"Not really. I did notice that a few slender football players would be shown and then a really husky one would be shown, so that was one pattern that I recognized. Sometimes it also felt like I was seeing the same football player in a row, just with different jersey colors. ",right,106.8553,,,,,,
,,,,,WIN24_042,21,Female,2024-02-08_13h05.31.396,jersey_experiment_5,2023.2.2,Win32,85.47008547,,,,,,,,,,,,,,,,,,,,,,,,,,,,,,,,,,,,,,,,,,,,,,,,,,,,,,,,,,,,,,,,,,,,,,,,,,1162.2403,1167.7531,return,5.5057,