requirements.started,requirements.stopped,key_resp_3.keys,key_resp_3.rt,key_resp_3.duration,Subject ID,Age,Gender,date,expName,psychopyVersion,OS,frameRate,instructions1.started,instructions1.stopped,key_resp.keys,key_resp.rt,key_resp.duration,example.started,example.stopped,enter_2.keys,enter_2.rt,enter_2.duration,instructions2.started,instructions2.stopped,enter_3.keys,enter_3.rt,enter_3.duration,image.started,image.stopped,slider_2.started,slider_2.stopped,next.keys,next.rt,next.duration,slider.response,trial_block_1.thisRepN,trial_block_1.thisTrialN,trial_block_1.thisN,trial_block_1.thisIndex,trial_block_1.ran,Path,Width,Height,Index,Duration,trial_block_2.thisRepN,trial_block_2.thisTrialN,trial_block_2.thisN,trial_block_2.thisIndex,trial_block_2.ran,rest_break.started,rest_break.stopped,end_break.started,end_break.stopped,key_resp_5.keys,key_resp_5.rt,key_resp_5.duration,trial_block_3.thisRepN,trial_block_3.thisTrialN,trial_block_3.thisN,trial_block_3.thisIndex,trial_block_3.ran,trial_block_4.thisRepN,trial_block_4.thisTrialN,trial_block_4.thisN,trial_block_4.thisIndex,trial_block_4.ran,questions_intro.started,questions_intro.stopped,enter_12.keys,enter_12.rt,enter_12.duration,question2.started,question2.stopped,question_doingbest.response,question_doingbest.rt,enter_15.keys,enter_15.rt,enter_15.duration,pattern.started,pattern.stopped,pattern_2.text,enter_17.keys,enter_17.rt,enter_17.duration,thankyou.started,thankyou.stopped,enter_14.keys,enter_14.rt,enter_14.duration
0.0002,15.4382,return,15.4299,,WIN24_015,19,female,2024-01-29_17h00.18.593,jersey_experiment_5,2023.2.2,Win32,83.33333333,,,,,,,,,,,,,,,,,,,,,,,,,,,,,,,,,,,,,,,,,,,,,,,,,,,,,,,,,,,,,,,,,,,,,,,,,,,,,,
,,,,,WIN24_015,19,female,2024-01-29_17h00.18.593,jersey_experiment_5,2023.2.2,Win32,83.33333333,15.4383,26.9209,return,11.4763,,,,,,,,,,,,,,,,,,,,,,,,,,,,,,,,,,,,,,,,,,,,,,,,,,,,,,,,,,,,,,,,,,,,,,,,,,
,,,,,WIN24_015,19,female,2024-01-29_17h00.18.593,jersey_experiment_5,2023.2.2,Win32,83.33333333,,,,,,26.921,31.7724,return,4.8293,,,,,,,,,,,,,,,,,,,,,,,,,,,,,,,,,,,,,,,,,,,,,,,,,,,,,,,,,,,,,,,,,,,,,
,,,,,WIN24_015,19,female,2024-01-29_17h00.18.593,jersey_experiment_5,2023.2.2,Win32,83.33333333,,,,,,,,,,,31.7724,67.4633,return,35.6786,,,,,,,,,,,,,,,,,,,,,,,,,,,,,,,,,,,,,,,,,,,,,,,,,,,,,,,,,,,,,,,,
,,,,,WIN24_015,19,female,2024-01-29_17h00.18.593,jersey_experiment_5,2023.2.2,Win32,83.33333333,,,,,,,,,,,,,,,,67.4705,68.7721,68.7722,76.5696,return,2.5435,,24.609375,0,0,0,57,1,FBP-PT-19.png,0.4,1.2,58,0.5,,,,,,,,,,,,,,,,,,,,,,,,,,,,,,,,,,,,,,,,,,,,,
,,,,,WIN24_015,19,female,2024-01-29_17h00.18.593,jersey_experiment_5,2023.2.2,Win32,83.33333333,,,,,,,,,,,,,,,,76.5699,78.3695,78.3696,83.4094,return,1.3907,,50.26041667,0,1,1,41,1,FBP-YG-91.png,0.37,1.2,42,1,,,,,,,,,,,,,,,,,,,,,,,,,,,,,,,,,,,,,,,,,,,,,
,,,,,WIN24_015,19,female,2024-01-29_17h00.18.593,jersey_experiment_5,2023.2.2,Win32,83.33333333,,,,,,,,,,,,,,,,83.4095,84.7131,84.7131,89.9346,return,1.0326,,25,0,2,2,5,1,FBP-OG-81.png,0.35,1.2,6,0.5,,,,,,,,,,,,,,,,,,,,,,,,,,,,,,,,,,,,,,,,,,,,,
,,,,,WIN24_015,19,female,2024-01-29_17h00.18.593,jersey_experiment_5,2023.2.2,Win32,83.33333333,,,,,,,,,,,,,,,,89.9348,91.7346,91.7346,97.1115,return,1.0537,,25,0,3,3,30,1,FBP-YG-71.png,0.35,1.2,31,1,,,,,,,,,,,,,,,,,,,,,,,,,,,,,,,,,,,,,,,,,,,,,
,,,,,WIN24_015,19,female,2024-01-29_17h00.18.593,jersey_experiment_5,2023.2.2,Win32,83.33333333,,,,,,,,,,,,,,,,97.1116,98.9113,98.9114,102.0477,return,1.6736,,99.47916667,0,4,4,39,1,FBP-YG-81.png,0.45,1.2,40,1,,,,,,,,,,,,,,,,,,,,,,,,,,,,,,,,,,,,,,,,,,,,,
,,,,,WIN24_015,19,female,2024-01-29_17h00.18.593,jersey_experiment_5,2023.2.2,Win32,83.33333333,,,,,,,,,,,,,,,,102.0479,103.3469,103.3469,106.3397,return,1.1183,,75.390625,0,5,5,47,1,FBP-PT-17.png,0.4,1.2,48,0.5,,,,,,,,,,,,,,,,,,,,,,,,,,,,,,,,,,,,,,,,,,,,,
,,,,,WIN24_015,19,female,2024-01-29_17h00.18.593,jersey_experiment_5,2023.2.2,Win32,83.33333333,,,,,,,,,,,,,,,,106.3398,108.1353,108.1353,110.7001,return,1.2137,,49.34895833,0,6,6,16,1,FBP-RB-17.png,0.37,1.2,17,1,,,,,,,,,,,,,,,,,,,,,,,,,,,,,,,,,,,,,,,,,,,,,
,,,,,WIN24_015,19,female,2024-01-29_17h00.18.593,jersey_experiment_5,2023.2.2,Win32,83.33333333,,,,,,,,,,,,,,,,110.7003,111.9943,111.9943,115.3708,return,1.0739,,99.08854167,0,7,7,48,1,FBP-PT-17.png,0.43,1.2,49,0.5,,,,,,,,,,,,,,,,,,,,,,,,,,,,,,,,,,,,,,,,,,,,,
,,,,,WIN24_015,19,female,2024-01-29_17h00.18.593,jersey_experiment_5,2023.2.2,Win32,83.33333333,,,,,,,,,,,,,,,,115.3711,116.665,116.665,119.7508,return,1.0092,,24.34895833,0,8,8,10,1,FBP-OG-91.png,0.35,1.2,11,0.5,,,,,,,,,,,,,,,,,,,,,,,,,,,,,,,,,,,,,,,,,,,,,
,,,,,WIN24_015,19,female,2024-01-29_17h00.18.593,jersey_experiment_5,2023.2.2,Win32,83.33333333,,,,,,,,,,,,,,,,119.7509,121.5476,121.5476,125.1123,return,1.101,,0.260416667,0,9,9,15,1,FBP-RB-17.png,0.35,1.2,16,1,,,,,,,,,,,,,,,,,,,,,,,,,,,,,,,,,,,,,,,,,,,,,
,,,,,WIN24_015,19,female,2024-01-29_17h00.18.593,jersey_experiment_5,2023.2.2,Win32,83.33333333,,,,,,,,,,,,,,,,125.1125,126.4066,126.4066,129.289,return,0.9694,,99.21875,0,10,10,54,1,FBP-PT-18.png,0.45,1.2,55,0.5,,,,,,,,,,,,,,,,,,,,,,,,,,,,,,,,,,,,,,,,,,,,,
,,,,,WIN24_015,19,female,2024-01-29_17h00.18.593,jersey_experiment_5,2023.2.2,Win32,83.33333333,,,,,,,,,,,,,,,,129.289,130.5832,130.5832,137.9953,return,5.5421,,70.44270833,0,11,11,52,1,FBP-PT-18.png,0.4,1.2,53,0.5,,,,,,,,,,,,,,,,,,,,,,,,,,,,,,,,,,,,,,,,,,,,,
,,,,,WIN24_015,19,female,2024-01-29_17h00.18.593,jersey_experiment_5,2023.2.2,Win32,83.33333333,,,,,,,,,,,,,,,,137.9994,139.7953,139.7954,142.1366,return,1.1224,,94.27083333,0,12,12,28,1,FBP-RB-19.png,0.43,1.2,29,1,,,,,,,,,,,,,,,,,,,,,,,,,,,,,,,,,,,,,,,,,,,,,
,,,,,WIN24_015,19,female,2024-01-29_17h00.18.593,jersey_experiment_5,2023.2.2,Win32,83.33333333,,,,,,,,,,,,,,,,142.1367,143.4308,143.4308,147.8074,return,2.8353,,77.08333333,0,13,13,13,1,FBP-OG-91.png,0.43,1.2,14,0.5,,,,,,,,,,,,,,,,,,,,,,,,,,,,,,,,,,,,,,,,,,,,,
,,,,,WIN24_015,19,female,2024-01-29_17h00.18.593,jersey_experiment_5,2023.2.2,Win32,83.33333333,,,,,,,,,,,,,,,,147.8076,149.1015,149.1016,152.8899,return,2.4272,,85.9375,0,14,14,53,1,FBP-PT-18.png,0.43,1.2,54,0.5,,,,,,,,,,,,,,,,,,,,,,,,,,,,,,,,,,,,,,,,,,,,,
,,,,,WIN24_015,19,female,2024-01-29_17h00.18.593,jersey_experiment_5,2023.2.2,Win32,83.33333333,,,,,,,,,,,,,,,,152.89,154.6899,154.6899,156.6784,return,1.0786,,98.56770833,0,15,15,34,1,FBP-YG-71.png,0.45,1.2,35,1,,,,,,,,,,,,,,,,,,,,,,,,,,,,,,,,,,,,,,,,,,,,,
,,,,,WIN24_015,19,female,2024-01-29_17h00.18.593,jersey_experiment_5,2023.2.2,Win32,83.33333333,,,,,,,,,,,,,,,,156.6786,157.9725,157.9725,160.6783,return,0.8547,,76.69270833,0,16,16,8,1,FBP-OG-81.png,0.43,1.2,9,0.5,,,,,,,,,,,,,,,,,,,,,,,,,,,,,,,,,,,,,,,,,,,,,
,,,,,WIN24_015,19,female,2024-01-29_17h00.18.593,jersey_experiment_5,2023.2.2,Win32,83.33333333,,,,,,,,,,,,,,,,160.6785,162.4785,162.4786,165.9963,return,1.5198,,70.3125,0,17,17,17,1,FBP-RB-17.png,0.4,1.2,18,1,,,,,,,,,,,,,,,,,,,,,,,,,,,,,,,,,,,,,,,,,,,,,
,,,,,WIN24_015,19,female,2024-01-29_17h00.18.593,jersey_experiment_5,2023.2.2,Win32,83.33333333,,,,,,,,,,,,,,,,165.9964,167.2904,167.2904,170.1729,return,0.7776,,81.11979167,0,18,18,4,1,FBP-OG-71.png,0.45,1.2,5,0.5,,,,,,,,,,,,,,,,,,,,,,,,,,,,,,,,,,,,,,,,,,,,,
,,,,,WIN24_015,19,female,2024-01-29_17h00.18.593,jersey_experiment_5,2023.2.2,Win32,83.33333333,,,,,,,,,,,,,,,,170.1731,171.973,171.973,175.3614,return,1.908,,23.046875,0,19,19,26,1,FBP-RB-19.png,0.37,1.2,27,1,,,,,,,,,,,,,,,,,,,,,,,,,,,,,,,,,,,,,,,,,,,,,
,,,,,WIN24_015,19,female,2024-01-29_17h00.18.593,jersey_experiment_5,2023.2.2,Win32,83.33333333,,,,,,,,,,,,,,,,175.3615,177.1653,177.1653,179.9967,return,0.9539,,0.260416667,0,20,20,40,1,FBP-YG-91.png,0.35,1.2,41,1,,,,,,,,,,,,,,,,,,,,,,,,,,,,,,,,,,,,,,,,,,,,,
,,,,,WIN24_015,19,female,2024-01-29_17h00.18.593,jersey_experiment_5,2023.2.2,Win32,83.33333333,,,,,,,,,,,,,,,,179.9969,181.7968,181.7969,183.9852,return,0.7631,,98.95833333,0,21,21,24,1,FBP-RB-18.png,0.45,1.2,25,1,,,,,,,,,,,,,,,,,,,,,,,,,,,,,,,,,,,,,,,,,,,,,
,,,,,WIN24_015,19,female,2024-01-29_17h00.18.593,jersey_experiment_5,2023.2.2,Win32,83.33333333,,,,,,,,,,,,,,,,183.9854,185.2794,185.2794,187.6482,return,0.7293,,7.682291667,0,22,22,11,1,FBP-OG-91.png,0.37,1.2,12,0.5,,,,,,,,,,,,,,,,,,,,,,,,,,,,,,,,,,,,,,,,,,,,,
,,,,,WIN24_015,19,female,2024-01-29_17h00.18.593,jersey_experiment_5,2023.2.2,Win32,83.33333333,,,,,,,,,,,,,,,,187.6483,189.444,189.444,191.3855,return,0.8768,,88.41145833,0,23,23,33,1,FBP-YG-71.png,0.43,1.2,34,1,,,,,,,,,,,,,,,,,,,,,,,,,,,,,,,,,,,,,,,,,,,,,
,,,,,WIN24_015,19,female,2024-01-29_17h00.18.593,jersey_experiment_5,2023.2.2,Win32,83.33333333,,,,,,,,,,,,,,,,191.3856,193.178,193.178,199.6092,return,4.1008,,22.52604167,0,24,24,31,1,FBP-YG-71.png,0.37,1.2,32,1,,,,,,,,,,,,,,,,,,,,,,,,,,,,,,,,,,,,,,,,,,,,,
,,,,,WIN24_015,19,female,2024-01-29_17h00.18.593,jersey_experiment_5,2023.2.2,Win32,83.33333333,,,,,,,,,,,,,,,,199.6094,200.9034,200.9034,203.08,return,1.1473,,12.63020833,0,25,25,1,1,FBP-OG-71.png,0.37,1.2,2,0.5,,,,,,,,,,,,,,,,,,,,,,,,,,,,,,,,,,,,,,,,,,,,,
,,,,,WIN24_015,19,female,2024-01-29_17h00.18.593,jersey_experiment_5,2023.2.2,Win32,83.33333333,,,,,,,,,,,,,,,,203.0802,204.374,204.3741,206.2606,return,0.6806,,1.822916667,0,26,26,45,1,FBP-PT-17.png,0.35,1.2,46,0.5,,,,,,,,,,,,,,,,,,,,,,,,,,,,,,,,,,,,,,,,,,,,,
,,,,,WIN24_015,19,female,2024-01-29_17h00.18.593,jersey_experiment_5,2023.2.2,Win32,83.33333333,,,,,,,,,,,,,,,,206.2607,208.0565,208.0566,209.7665,return,0.7898,,0.130208333,0,27,27,25,1,FBP-RB-19.png,0.35,1.2,26,1,,,,,,,,,,,,,,,,,,,,,,,,,,,,,,,,,,,,,,,,,,,,,
,,,,,WIN24_015,19,female,2024-01-29_17h00.18.593,jersey_experiment_5,2023.2.2,Win32,83.33333333,,,,,,,,,,,,,,,,209.7667,211.0686,211.0686,214.1392,return,0.6732,,0.130208333,0,28,28,0,1,FBP-OG-71.png,0.35,1.2,1,0.5,,,,,,,,,,,,,,,,,,,,,,,,,,,,,,,,,,,,,,,,,,,,,
,,,,,WIN24_015,19,female,2024-01-29_17h00.18.593,jersey_experiment_5,2023.2.2,Win32,83.33333333,,,,,,,,,,,,,,,,214.1393,215.9393,215.9393,217.2804,return,0.5902,,0.260416667,0,29,29,20,1,FBP-RB-18.png,0.35,1.2,21,1,,,,,,,,,,,,,,,,,,,,,,,,,,,,,,,,,,,,,,,,,,,,,
,,,,,WIN24_015,19,female,2024-01-29_17h00.18.593,jersey_experiment_5,2023.2.2,Win32,83.33333333,,,,,,,,,,,,,,,,217.2806,219.075,219.075,221.8217,return,1.0706,,99.47916667,0,30,30,44,1,FBP-YG-91.png,0.45,1.2,45,1,,,,,,,,,,,,,,,,,,,,,,,,,,,,,,,,,,,,,,,,,,,,,
,,,,,WIN24_015,19,female,2024-01-29_17h00.18.593,jersey_experiment_5,2023.2.2,Win32,83.33333333,,,,,,,,,,,,,,,,221.8219,223.1161,223.1161,226.5795,return,1.777,,73.30729167,0,31,31,58,1,FBP-PT-19.png,0.43,1.2,59,0.5,,,,,,,,,,,,,,,,,,,,,,,,,,,,,,,,,,,,,,,,,,,,,
,,,,,WIN24_015,19,female,2024-01-29_17h00.18.593,jersey_experiment_5,2023.2.2,Win32,83.33333333,,,,,,,,,,,,,,,,226.5797,227.8809,227.881,229.883,return,0.6566,,99.86979167,0,32,32,14,1,FBP-OG-91.png,0.45,1.2,15,0.5,,,,,,,,,,,,,,,,,,,,,,,,,,,,,,,,,,,,,,,,,,,,,
,,,,,WIN24_015,19,female,2024-01-29_17h00.18.593,jersey_experiment_5,2023.2.2,Win32,83.33333333,,,,,,,,,,,,,,,,229.8832,231.681,231.681,234.6222,return,2.3889,,94.40104167,0,33,33,23,1,FBP-RB-18.png,0.43,1.2,24,1,,,,,,,,,,,,,,,,,,,,,,,,,,,,,,,,,,,,,,,,,,,,,
,,,,,WIN24_015,19,female,2024-01-29_17h00.18.593,jersey_experiment_5,2023.2.2,Win32,83.33333333,,,,,,,,,,,,,,,,234.6224,236.4224,236.4224,239.5211,return,2.1654,,89.19270833,0,34,34,43,1,FBP-YG-91.png,0.43,1.2,44,1,,,,,,,,,,,,,,,,,,,,,,,,,,,,,,,,,,,,,,,,,,,,,
,,,,,WIN24_015,19,female,2024-01-29_17h00.18.593,jersey_experiment_5,2023.2.2,Win32,83.33333333,,,,,,,,,,,,,,,,239.5212,241.3167,241.3167,243.658,return,1.1688,,71.875,0,35,35,32,1,FBP-YG-71.png,0.4,1.2,33,1,,,,,,,,,,,,,,,,,,,,,,,,,,,,,,,,,,,,,,,,,,,,,
,,,,,WIN24_015,19,female,2024-01-29_17h00.18.593,jersey_experiment_5,2023.2.2,Win32,83.33333333,,,,,,,,,,,,,,,,243.6581,245.458,245.458,247.1051,return,0.7161,,94.140625,0,36,36,18,1,FBP-RB-17.png,0.43,1.2,19,1,,,,,,,,,,,,,,,,,,,,,,,,,,,,,,,,,,,,,,,,,,,,,
,,,,,WIN24_015,19,female,2024-01-29_17h00.18.593,jersey_experiment_5,2023.2.2,Win32,83.33333333,,,,,,,,,,,,,,,,247.1053,248.3992,248.3992,250.011,return,0.6378,,95.703125,0,37,37,9,1,FBP-OG-81.png,0.45,1.2,10,0.5,,,,,,,,,,,,,,,,,,,,,,,,,,,,,,,,,,,,,,,,,,,,,
,,,,,WIN24_015,19,female,2024-01-29_17h00.18.593,jersey_experiment_5,2023.2.2,Win32,83.33333333,,,,,,,,,,,,,,,,250.0111,251.8037,251.8037,253.6583,return,0.7799,,77.08333333,0,38,38,42,1,FBP-YG-91.png,0.4,1.2,43,1,,,,,,,,,,,,,,,,,,,,,,,,,,,,,,,,,,,,,,,,,,,,,
,,,,,WIN24_015,19,female,2024-01-29_17h00.18.593,jersey_experiment_5,2023.2.2,Win32,83.33333333,,,,,,,,,,,,,,,,253.6584,255.4584,255.4584,258.4173,return,1.0137,,43.61979167,0,39,39,21,1,FBP-RB-18.png,0.37,1.2,22,1,,,,,,,,,,,,,,,,,,,,,,,,,,,,,,,,,,,,,,,,,,,,,
,,,,,WIN24_015,19,female,2024-01-29_17h00.18.593,jersey_experiment_5,2023.2.2,Win32,83.33333333,,,,,,,,,,,,,,,,258.4174,259.7173,259.7173,261.7315,return,0.7847,,27.34375,0,40,40,46,1,FBP-PT-17.png,0.37,1.2,47,0.5,,,,,,,,,,,,,,,,,,,,,,,,,,,,,,,,,,,,,,,,,,,,,
,,,,,WIN24_015,19,female,2024-01-29_17h00.18.593,jersey_experiment_5,2023.2.2,Win32,83.33333333,,,,,,,,,,,,,,,,261.7317,263.5292,263.5292,266.6,return,2.1119,,51.5625,0,41,41,36,1,FBP-YG-81.png,0.37,1.2,37,1,,,,,,,,,,,,,,,,,,,,,,,,,,,,,,,,,,,,,,,,,,,,,
,,,,,WIN24_015,19,female,2024-01-29_17h00.18.593,jersey_experiment_5,2023.2.2,Win32,83.33333333,,,,,,,,,,,,,,,,266.6003,267.8941,267.8941,270.0063,return,0.6611,,48.69791667,0,42,42,56,1,FBP-PT-19.png,0.37,1.2,57,0.5,,,,,,,,,,,,,,,,,,,,,,,,,,,,,,,,,,,,,,,,,,,,,
,,,,,WIN24_015,19,female,2024-01-29_17h00.18.593,jersey_experiment_5,2023.2.2,Win32,83.33333333,,,,,,,,,,,,,,,,270.0064,271.306,271.306,274.1414,return,0.6603,,8.463541667,0,43,43,50,1,FBP-PT-18.png,0.35,1.2,51,0.5,,,,,,,,,,,,,,,,,,,,,,,,,,,,,,,,,,,,,,,,,,,,,
,,,,,WIN24_015,19,female,2024-01-29_17h00.18.593,jersey_experiment_5,2023.2.2,Win32,83.33333333,,,,,,,,,,,,,,,,274.1416,275.9455,275.9455,277.9321,return,0.6706,,3.645833333,0,44,44,35,1,FBP-YG-81.png,0.35,1.2,36,1,,,,,,,,,,,,,,,,,,,,,,,,,,,,,,,,,,,,,,,,,,,,,
,,,,,WIN24_015,19,female,2024-01-29_17h00.18.593,jersey_experiment_5,2023.2.2,Win32,83.33333333,,,,,,,,,,,,,,,,277.9323,279.2281,279.2281,281.9182,return,1.1081,,91.92708333,0,45,45,3,1,FBP-OG-71.png,0.43,1.2,4,0.5,,,,,,,,,,,,,,,,,,,,,,,,,,,,,,,,,,,,,,,,,,,,,
,,,,,WIN24_015,19,female,2024-01-29_17h00.18.593,jersey_experiment_5,2023.2.2,Win32,83.33333333,,,,,,,,,,,,,,,,281.9184,283.7181,283.7181,285.3536,return,0.6863,,77.99479167,0,46,46,22,1,FBP-RB-18.png,0.4,1.2,23,1,,,,,,,,,,,,,,,,,,,,,,,,,,,,,,,,,,,,,,,,,,,,,
,,,,,WIN24_015,19,female,2024-01-29_17h00.18.593,jersey_experiment_5,2023.2.2,Win32,83.33333333,,,,,,,,,,,,,,,,285.3538,286.6477,286.6477,289.6009,return,0.6123,,99.34895833,0,47,47,49,1,FBP-PT-17.png,0.45,1.2,50,0.5,,,,,,,,,,,,,,,,,,,,,,,,,,,,,,,,,,,,,,,,,,,,,
,,,,,WIN24_015,19,female,2024-01-29_17h00.18.593,jersey_experiment_5,2023.2.2,Win32,83.33333333,,,,,,,,,,,,,,,,289.601,290.8949,290.8949,297.1187,return,3.9298,,39.0625,0,48,48,55,1,FBP-PT-19.png,0.35,1.2,56,0.5,,,,,,,,,,,,,,,,,,,,,,,,,,,,,,,,,,,,,,,,,,,,,
,,,,,WIN24_015,19,female,2024-01-29_17h00.18.593,jersey_experiment_5,2023.2.2,Win32,83.33333333,,,,,,,,,,,,,,,,297.1189,298.4127,298.4128,303.166,return,0.4924,,45.83333333,0,49,49,6,1,FBP-OG-81.png,0.37,1.2,7,0.5,,,,,,,,,,,,,,,,,,,,,,,,,,,,,,,,,,,,,,,,,,,,,
,,,,,WIN24_015,19,female,2024-01-29_17h00.18.593,jersey_experiment_5,2023.2.2,Win32,83.33333333,,,,,,,,,,,,,,,,303.1662,304.9723,304.9723,305.9922,return,0.3045,,99.34895833,0,50,50,19,1,FBP-RB-17.png,0.45,1.2,20,1,,,,,,,,,,,,,,,,,,,,,,,,,,,,,,,,,,,,,,,,,,,,,
,,,,,WIN24_015,19,female,2024-01-29_17h00.18.593,jersey_experiment_5,2023.2.2,Win32,83.33333333,,,,,,,,,,,,,,,,305.9924,307.2839,307.2839,309.1352,return,0.7648,,63.28125,0,51,51,12,1,FBP-OG-91.png,0.4,1.2,13,0.5,,,,,,,,,,,,,,,,,,,,,,,,,,,,,,,,,,,,,,,,,,,,,
,,,,,WIN24_015,19,female,2024-01-29_17h00.18.593,jersey_experiment_5,2023.2.2,Win32,83.33333333,,,,,,,,,,,,,,,,309.1353,310.9352,310.9352,313.1827,return,0.5179,,68.75,0,52,52,37,1,FBP-YG-81.png,0.4,1.2,38,1,,,,,,,,,,,,,,,,,,,,,,,,,,,,,,,,,,,,,,,,,,,,,
,,,,,WIN24_015,19,female,2024-01-29_17h00.18.593,jersey_experiment_5,2023.2.2,Win32,83.33333333,,,,,,,,,,,,,,,,313.183,314.9825,314.9825,316.1472,return,0.2592,,87.109375,0,53,53,38,1,FBP-YG-81.png,0.43,1.2,39,1,,,,,,,,,,,,,,,,,,,,,,,,,,,,,,,,,,,,,,,,,,,,,
,,,,,WIN24_015,19,female,2024-01-29_17h00.18.593,jersey_experiment_5,2023.2.2,Win32,83.33333333,,,,,,,,,,,,,,,,316.1474,317.4489,317.4489,321.5346,return,2.2837,,47.13541667,0,54,54,51,1,FBP-PT-18.png,0.37,1.2,52,0.5,,,,,,,,,,,,,,,,,,,,,,,,,,,,,,,,,,,,,,,,,,,,,
,,,,,WIN24_015,19,female,2024-01-29_17h00.18.593,jersey_experiment_5,2023.2.2,Win32,83.33333333,,,,,,,,,,,,,,,,321.5347,323.3354,323.3355,325.277,return,1.2004,,59.50520833,0,55,55,27,1,FBP-RB-19.png,0.4,1.2,28,1,,,,,,,,,,,,,,,,,,,,,,,,,,,,,,,,,,,,,,,,,,,,,
,,,,,WIN24_015,19,female,2024-01-29_17h00.18.593,jersey_experiment_5,2023.2.2,Win32,83.33333333,,,,,,,,,,,,,,,,325.2771,326.5787,326.5787,328.5025,return,1.0141,,40.88541667,0,56,56,7,1,FBP-OG-81.png,0.4,1.2,8,0.5,,,,,,,,,,,,,,,,,,,,,,,,,,,,,,,,,,,,,,,,,,,,,
,,,,,WIN24_015,19,female,2024-01-29_17h00.18.593,jersey_experiment_5,2023.2.2,Win32,83.33333333,,,,,,,,,,,,,,,,328.5026,330.3004,330.3004,331.6143,return,0.8124,,82.94270833,0,57,57,29,1,FBP-RB-19.png,0.45,1.2,30,1,,,,,,,,,,,,,,,,,,,,,,,,,,,,,,,,,,,,,,,,,,,,,
,,,,,WIN24_015,19,female,2024-01-29_17h00.18.593,jersey_experiment_5,2023.2.2,Win32,83.33333333,,,,,,,,,,,,,,,,331.6145,332.9081,332.9082,337.5812,return,3.2337,,43.09895833,0,58,58,2,1,FBP-OG-71.png,0.4,1.2,3,0.5,,,,,,,,,,,,,,,,,,,,,,,,,,,,,,,,,,,,,,,,,,,,,
,,,,,WIN24_015,19,female,2024-01-29_17h00.18.593,jersey_experiment_5,2023.2.2,Win32,83.33333333,,,,,,,,,,,,,,,,337.5814,338.8731,338.8731,340.3853,return,0.3553,,81.51041667,0,59,59,59,1,FBP-PT-19.png,0.45,1.2,60,0.5,,,,,,,,,,,,,,,,,,,,,,,,,,,,,,,,,,,,,,,,,,,,,
,,,,,WIN24_015,19,female,2024-01-29_17h00.18.593,jersey_experiment_5,2023.2.2,Win32,83.33333333,,,,,,,,,,,,,,,,340.3873,341.689,341.689,342.9738,return,0.2494,,86.84895833,,,,,,FBP-PT-81.png,0.45,1.2,55,0.5,0,0,0,54,1,,,,,,,,,,,,,,,,,,,,,,,,,,,,,,,,,,,,,,,,
,,,,,WIN24_015,19,female,2024-01-29_17h00.18.593,jersey_experiment_5,2023.2.2,Win32,83.33333333,,,,,,,,,,,,,,,,342.9741,344.7716,344.7716,347.0071,return,1.5041,,41.92708333,,,,,,FBP-RB-91.png,0.37,1.2,27,1,0,1,1,26,1,,,,,,,,,,,,,,,,,,,,,,,,,,,,,,,,,,,,,,,,
,,,,,WIN24_015,19,female,2024-01-29_17h00.18.593,jersey_experiment_5,2023.2.2,Win32,83.33333333,,,,,,,,,,,,,,,,347.0073,348.8031,348.8031,351.5325,return,1.8013,,38.80208333,,,,,,FBP-RB-81.png,0.37,1.2,22,1,0,2,2,21,1,,,,,,,,,,,,,,,,,,,,,,,,,,,,,,,,,,,,,,,,
,,,,,WIN24_015,19,female,2024-01-29_17h00.18.593,jersey_experiment_5,2023.2.2,Win32,83.33333333,,,,,,,,,,,,,,,,351.5326,352.8268,352.8268,354.5562,return,0.8739,,85.02604167,,,,,,FBP-OG-17.png,0.45,1.2,5,0.5,0,3,3,4,1,,,,,,,,,,,,,,,,,,,,,,,,,,,,,,,,,,,,,,,,
,,,,,WIN24_015,19,female,2024-01-29_17h00.18.593,jersey_experiment_5,2023.2.2,Win32,83.33333333,,,,,,,,,,,,,,,,354.5564,355.8501,355.8501,357.6269,return,0.7458,,31.90104167,,,,,,FBP-OG-17.png,0.35,1.2,1,0.5,0,4,4,0,1,,,,,,,,,,,,,,,,,,,,,,,,,,,,,,,,,,,,,,,,
,,,,,WIN24_015,19,female,2024-01-29_17h00.18.593,jersey_experiment_5,2023.2.2,Win32,83.33333333,,,,,,,,,,,,,,,,357.6271,359.4211,359.4211,363.4785,return,3.2123,,64.32291667,,,,,,FBP-RB-91.png,0.4,1.2,28,1,0,5,5,27,1,,,,,,,,,,,,,,,,,,,,,,,,,,,,,,,,,,,,,,,,
,,,,,WIN24_015,19,female,2024-01-29_17h00.18.593,jersey_experiment_5,2023.2.2,Win32,83.33333333,,,,,,,,,,,,,,,,363.4785,364.78,364.7801,368.9377,return,0.1514,,65.49479167,,,,,,FBP-PT-91.png,0.37,1.2,57,0.5,0,6,6,56,1,,,,,,,,,,,,,,,,,,,,,,,,,,,,,,,,,,,,,,,,
,,,,,WIN24_015,19,female,2024-01-29_17h00.18.593,jersey_experiment_5,2023.2.2,Win32,83.33333333,,,,,,,,,,,,,,,,368.9379,370.2392,370.2392,371.1289,return,0.205,,81.640625,,,,,,FBP-OG-18.png,0.45,1.2,10,0.5,0,7,7,9,1,,,,,,,,,,,,,,,,,,,,,,,,,,,,,,,,,,,,,,,,
,,,,,WIN24_015,19,female,2024-01-29_17h00.18.593,jersey_experiment_5,2023.2.2,Win32,83.33333333,,,,,,,,,,,,,,,,371.129,372.9259,372.9259,373.9144,return,0.2123,,28.90625,,,,,,FBP-YG-19.png,0.35,1.2,41,1,0,8,8,40,1,,,,,,,,,,,,,,,,,,,,,,,,,,,,,,,,,,,,,,,,
,,,,,WIN24_015,19,female,2024-01-29_17h00.18.593,jersey_experiment_5,2023.2.2,Win32,83.33333333,,,,,,,,,,,,,,,,373.9146,375.7128,375.7128,377.1021,return,0.6586,,79.81770833,,,,,,FBP-YG-17.png,0.43,1.2,34,1,0,9,9,33,1,,,,,,,,,,,,,,,,,,,,,,,,,,,,,,,,,,,,,,,,
,,,,,WIN24_015,19,female,2024-01-29_17h00.18.593,jersey_experiment_5,2023.2.2,Win32,83.33333333,,,,,,,,,,,,,,,,377.1023,378.398,378.3981,380.1947,return,1.1162,,86.97916667,,,,,,FBP-OG-17.png,0.43,1.2,4,0.5,0,10,10,3,1,,,,,,,,,,,,,,,,,,,,,,,,,,,,,,,,,,,,,,,,
,,,,,WIN24_015,19,female,2024-01-29_17h00.18.593,jersey_experiment_5,2023.2.2,Win32,83.33333333,,,,,,,,,,,,,,,,380.195,381.4864,381.4864,382.4865,return,0.2308,,68.359375,,,,,,FBP-OG-17.png,0.4,1.2,3,0.5,0,11,11,2,1,,,,,,,,,,,,,,,,,,,,,,,,,,,,,,,,,,,,,,,,
,,,,,WIN24_015,19,female,2024-01-29_17h00.18.593,jersey_experiment_5,2023.2.2,Win32,83.33333333,,,,,,,,,,,,,,,,382.4868,383.7847,383.7847,390.7953,return,5.4911,,42.1875,,,,,,FBP-OG-18.png,0.37,1.2,7,0.5,0,12,12,6,1,,,,,,,,,,,,,,,,,,,,,,,,,,,,,,,,,,,,,,,,
,,,,,WIN24_015,19,female,2024-01-29_17h00.18.593,jersey_experiment_5,2023.2.2,Win32,83.33333333,,,,,,,,,,,,,,,,390.7994,392.5973,392.5974,394.4067,return,1.1277,,39.58333333,,,,,,FBP-RB-81.png,0.4,1.2,23,1,0,13,13,22,1,,,,,,,,,,,,,,,,,,,,,,,,,,,,,,,,,,,,,,,,
,,,,,WIN24_015,19,female,2024-01-29_17h00.18.593,jersey_experiment_5,2023.2.2,Win32,83.33333333,,,,,,,,,,,,,,,,394.4068,396.1991,396.1991,397.8782,return,0.8576,,34.24479167,,,,,,FBP-YG-18.png,0.37,1.2,37,1,0,14,14,36,1,,,,,,,,,,,,,,,,,,,,,,,,,,,,,,,,,,,,,,,,
,,,,,WIN24_015,19,female,2024-01-29_17h00.18.593,jersey_experiment_5,2023.2.2,Win32,83.33333333,,,,,,,,,,,,,,,,397.8783,399.1755,399.1755,400.6048,return,0.5421,,19.53125,,,,,,FBP-PT-81.png,0.35,1.2,51,0.5,0,15,15,50,1,,,,,,,,,,,,,,,,,,,,,,,,,,,,,,,,,,,,,,,,
,,,,,WIN24_015,19,female,2024-01-29_17h00.18.593,jersey_experiment_5,2023.2.2,Win32,83.33333333,,,,,,,,,,,,,,,,400.605,402.3971,402.3971,403.7344,return,0.4307,,80.59895833,,,,,,FBP-RB-71.png,0.45,1.2,20,1,0,16,16,19,1,,,,,,,,,,,,,,,,,,,,,,,,,,,,,,,,,,,,,,,,
,,,,,WIN24_015,19,female,2024-01-29_17h00.18.593,jersey_experiment_5,2023.2.2,Win32,83.33333333,,,,,,,,,,,,,,,,403.7346,405.5268,405.5268,406.8468,return,0.2494,,99.86979167,,,,,,FBP-YG-18.png,0.45,1.2,40,1,0,17,17,39,1,,,,,,,,,,,,,,,,,,,,,,,,,,,,,,,,,,,,,,,,
,,,,,WIN24_015,19,female,2024-01-29_17h00.18.593,jersey_experiment_5,2023.2.2,Win32,83.33333333,,,,,,,,,,,,,,,,406.8468,408.6405,408.6405,410.5846,return,1.2357,,76.82291667,,,,,,FBP-RB-81.png,0.43,1.2,24,1,0,18,18,23,1,,,,,,,,,,,,,,,,,,,,,,,,,,,,,,,,,,,,,,,,
,,,,,WIN24_015,19,female,2024-01-29_17h00.18.593,jersey_experiment_5,2023.2.2,Win32,83.33333333,,,,,,,,,,,,,,,,410.5848,412.3761,412.3761,415.0217,return,0.3983,,32.68229167,,,,,,FBP-YG-17.png,0.35,1.2,31,1,0,19,19,30,1,,,,,,,,,,,,,,,,,,,,,,,,,,,,,,,,,,,,,,,,
,,,,,WIN24_015,19,female,2024-01-29_17h00.18.593,jersey_experiment_5,2023.2.2,Win32,83.33333333,,,,,,,,,,,,,,,,415.0218,416.3154,416.3155,421.1533,return,3.9907,,45.57291667,,,,,,FBP-OG-19.png,0.37,1.2,12,0.5,0,20,20,11,1,,,,,,,,,,,,,,,,,,,,,,,,,,,,,,,,,,,,,,,,
,,,,,WIN24_015,19,female,2024-01-29_17h00.18.593,jersey_experiment_5,2023.2.2,Win32,83.33333333,,,,,,,,,,,,,,,,421.1534,422.9471,422.9471,424.2003,return,0.2269,,43.61979167,,,,,,FBP-RB-71.png,0.37,1.2,17,1,0,21,21,16,1,,,,,,,,,,,,,,,,,,,,,,,,,,,,,,,,,,,,,,,,
,,,,,WIN24_015,19,female,2024-01-29_17h00.18.593,jersey_experiment_5,2023.2.2,Win32,83.33333333,,,,,,,,,,,,,,,,424.2004,425.4924,425.4924,427.1159,return,0.9297,,79.03645833,,,,,,FBP-PT-91.png,0.45,1.2,60,0.5,0,22,22,59,1,,,,,,,,,,,,,,,,,,,,,,,,,,,,,,,,,,,,,,,,
,,,,,WIN24_015,19,female,2024-01-29_17h00.18.593,jersey_experiment_5,2023.2.2,Win32,83.33333333,,,,,,,,,,,,,,,,427.116,428.4215,428.4216,430.0455,return,0.824,,89.0625,,,,,,FBP-PT-71.png,0.45,1.2,50,0.5,0,23,23,49,1,,,,,,,,,,,,,,,,,,,,,,,,,,,,,,,,,,,,,,,,
,,,,,WIN24_015,19,female,2024-01-29_17h00.18.593,jersey_experiment_5,2023.2.2,Win32,83.33333333,,,,,,,,,,,,,,,,430.0457,431.8475,431.8475,432.9238,return,0.2981,,90.88541667,,,,,,FBP-YG-19.png,0.43,1.2,44,1,0,24,24,43,1,,,,,,,,,,,,,,,,,,,,,,,,,,,,,,,,,,,,,,,,
,,,,,WIN24_015,19,female,2024-01-29_17h00.18.593,jersey_experiment_5,2023.2.2,Win32,83.33333333,,,,,,,,,,,,,,,,432.924,434.2182,434.2182,435.2457,return,0.2705,,93.88020833,,,,,,FBP-PT-91.png,0.43,1.2,59,0.5,0,25,25,58,1,,,,,,,,,,,,,,,,,,,,,,,,,,,,,,,,,,,,,,,,
,,,,,WIN24_015,19,female,2024-01-29_17h00.18.593,jersey_experiment_5,2023.2.2,Win32,83.33333333,,,,,,,,,,,,,,,,435.2459,437.0415,437.0415,437.9639,return,0.3517,,91.40625,,,,,,FBP-RB-91.png,0.45,1.2,30,1,0,26,26,29,1,,,,,,,,,,,,,,,,,,,,,,,,,,,,,,,,,,,,,,,,
,,,,,WIN24_015,19,female,2024-01-29_17h00.18.593,jersey_experiment_5,2023.2.2,Win32,83.33333333,,,,,,,,,,,,,,,,437.964,439.2556,439.2556,441.5751,return,1.6334,,70.83333333,,,,,,FBP-PT-71.png,0.4,1.2,48,0.5,0,27,27,47,1,,,,,,,,,,,,,,,,,,,,,,,,,,,,,,,,,,,,,,,,
,,,,,WIN24_015,19,female,2024-01-29_17h00.18.593,jersey_experiment_5,2023.2.2,Win32,83.33333333,,,,,,,,,,,,,,,,441.5753,442.8692,442.8692,445.5052,return,0.2843,,57.16145833,,,,,,FBP-PT-71.png,0.35,1.2,46,0.5,0,28,28,45,1,,,,,,,,,,,,,,,,,,,,,,,,,,,,,,,,,,,,,,,,
,,,,,WIN24_015,19,female,2024-01-29_17h00.18.593,jersey_experiment_5,2023.2.2,Win32,83.33333333,,,,,,,,,,,,,,,,445.5053,447.3047,447.3048,448.1832,return,0.3007,,50.78125,,,,,,FBP-YG-19.png,0.37,1.2,42,1,0,29,29,41,1,,,,,,,,,,,,,,,,,,,,,,,,,,,,,,,,,,,,,,,,
,,,,,WIN24_015,19,female,2024-01-29_17h00.18.593,jersey_experiment_5,2023.2.2,Win32,83.33333333,,,,,,,,,,,,,,,,448.1833,449.4831,449.4831,450.9518,return,0.4353,,34.50520833,,,,,,FBP-OG-19.png,0.35,1.2,11,0.5,0,30,30,10,1,,,,,,,,,,,,,,,,,,,,,,,,,,,,,,,,,,,,,,,,
,,,,,WIN24_015,19,female,2024-01-29_17h00.18.593,jersey_experiment_5,2023.2.2,Win32,83.33333333,,,,,,,,,,,,,,,,450.9519,452.2461,452.2461,453.5128,return,0.299,,28.25520833,,,,,,FBP-PT-81.png,0.37,1.2,52,0.5,0,31,31,51,1,,,,,,,,,,,,,,,,,,,,,,,,,,,,,,,,,,,,,,,,
,,,,,WIN24_015,19,female,2024-01-29_17h00.18.593,jersey_experiment_5,2023.2.2,Win32,83.33333333,,,,,,,,,,,,,,,,453.513,454.8108,454.8108,456.1362,return,0.23,,75,,,,,,FBP-PT-81.png,0.43,1.2,54,0.5,0,32,32,53,1,,,,,,,,,,,,,,,,,,,,,,,,,,,,,,,,,,,,,,,,
,,,,,WIN24_015,19,female,2024-01-29_17h00.18.593,jersey_experiment_5,2023.2.2,Win32,83.33333333,,,,,,,,,,,,,,,,456.1365,457.9308,457.9308,459.1171,return,0.4234,,89.58333333,,,,,,FBP-RB-91.png,0.43,1.2,29,1,0,33,33,28,1,,,,,,,,,,,,,,,,,,,,,,,,,,,,,,,,,,,,,,,,
,,,,,WIN24_015,19,female,2024-01-29_17h00.18.593,jersey_experiment_5,2023.2.2,Win32,83.33333333,,,,,,,,,,,,,,,,459.1173,460.4219,460.4219,462.8469,return,0.7886,,46.484375,,,,,,FBP-PT-81.png,0.4,1.2,53,0.5,0,34,34,52,1,,,,,,,,,,,,,,,,,,,,,,,,,,,,,,,,,,,,,,,,
,,,,,WIN24_015,19,female,2024-01-29_17h00.18.593,jersey_experiment_5,2023.2.2,Win32,83.33333333,,,,,,,,,,,,,,,,462.847,464.6469,464.6469,465.9272,return,0.2803,,8.203125,,,,,,FBP-RB-81.png,0.35,1.2,21,1,0,35,35,20,1,,,,,,,,,,,,,,,,,,,,,,,,,,,,,,,,,,,,,,,,
,,,,,WIN24_015,19,female,2024-01-29_17h00.18.593,jersey_experiment_5,2023.2.2,Win32,83.33333333,,,,,,,,,,,,,,,,465.9273,467.7193,467.7193,469.2544,return,0.6324,,74.609375,,,,,,FBP-YG-19.png,0.4,1.2,43,1,0,36,36,42,1,,,,,,,,,,,,,,,,,,,,,,,,,,,,,,,,,,,,,,,,
,,,,,WIN24_015,19,female,2024-01-29_17h00.18.593,jersey_experiment_5,2023.2.2,Win32,83.33333333,,,,,,,,,,,,,,,,469.2545,471.0469,471.0469,471.8546,return,0.2489,,96.875,,,,,,FBP-RB-81.png,0.45,1.2,25,1,0,37,37,24,1,,,,,,,,,,,,,,,,,,,,,,,,,,,,,,,,,,,,,,,,
,,,,,WIN24_015,19,female,2024-01-29_17h00.18.593,jersey_experiment_5,2023.2.2,Win32,83.33333333,,,,,,,,,,,,,,,,471.8548,473.6473,473.6473,478.2691,return,3.3494,,60.15625,,,,,,FBP-YG-17.png,0.4,1.2,33,1,0,38,38,32,1,,,,,,,,,,,,,,,,,,,,,,,,,,,,,,,,,,,,,,,,
,,,,,WIN24_015,19,female,2024-01-29_17h00.18.593,jersey_experiment_5,2023.2.2,Win32,83.33333333,,,,,,,,,,,,,,,,478.2692,479.5607,479.5607,482.8119,return,0.3059,,66.796875,,,,,,FBP-OG-18.png,0.4,1.2,8,0.5,0,39,39,7,1,,,,,,,,,,,,,,,,,,,,,,,,,,,,,,,,,,,,,,,,
,,,,,WIN24_015,19,female,2024-01-29_17h00.18.593,jersey_experiment_5,2023.2.2,Win32,83.33333333,,,,,,,,,,,,,,,,482.8122,484.61,484.61,485.6356,return,0.4236,,96.875,,,,,,FBP-YG-19.png,0.45,1.2,45,1,0,40,40,44,1,,,,,,,,,,,,,,,,,,,,,,,,,,,,,,,,,,,,,,,,
,,,,,WIN24_015,19,female,2024-01-29_17h00.18.593,jersey_experiment_5,2023.2.2,Win32,83.33333333,,,,,,,,,,,,,,,,485.6358,486.9416,486.9416,488.034,return,0.3176,,72.52604167,,,,,,FBP-PT-91.png,0.4,1.2,58,0.5,0,41,41,57,1,,,,,,,,,,,,,,,,,,,,,,,,,,,,,,,,,,,,,,,,
,,,,,WIN24_015,19,female,2024-01-29_17h00.18.593,jersey_experiment_5,2023.2.2,Win32,83.33333333,,,,,,,,,,,,,,,,488.0341,489.836,489.836,490.5907,return,0.3903,,84.765625,,,,,,FBP-RB-71.png,0.43,1.2,19,1,0,42,42,18,1,,,,,,,,,,,,,,,,,,,,,,,,,,,,,,,,,,,,,,,,
,,,,,WIN24_015,19,female,2024-01-29_17h00.18.593,jersey_experiment_5,2023.2.2,Win32,83.33333333,,,,,,,,,,,,,,,,490.5908,492.3867,492.3868,493.4596,return,0.2474,,3.255208333,,,,,,FBP-YG-18.png,0.35,1.2,36,1,0,43,43,35,1,,,,,,,,,,,,,,,,,,,,,,,,,,,,,,,,,,,,,,,,
,,,,,WIN24_015,19,female,2024-01-29_17h00.18.593,jersey_experiment_5,2023.2.2,Win32,83.33333333,,,,,,,,,,,,,,,,493.4598,495.2616,495.2616,496.8948,return,0.2237,,16.53645833,,,,,,FBP-RB-91.png,0.35,1.2,26,1,0,44,44,25,1,,,,,,,,,,,,,,,,,,,,,,,,,,,,,,,,,,,,,,,,
,,,,,WIN24_015,19,female,2024-01-29_17h00.18.593,jersey_experiment_5,2023.2.2,Win32,83.33333333,,,,,,,,,,,,,,,,496.895,498.6947,498.6947,501.0793,return,0.6063,,47.39583333,,,,,,FBP-YG-17.png,0.37,1.2,32,1,0,45,45,31,1,,,,,,,,,,,,,,,,,,,,,,,,,,,,,,,,,,,,,,,,
,,,,,WIN24_015,19,female,2024-01-29_17h00.18.593,jersey_experiment_5,2023.2.2,Win32,83.33333333,,,,,,,,,,,,,,,,501.0795,502.8717,502.8717,503.7991,return,0.2336,,20.57291667,,,,,,FBP-RB-71.png,0.35,1.2,16,1,0,46,46,15,1,,,,,,,,,,,,,,,,,,,,,,,,,,,,,,,,,,,,,,,,
,,,,,WIN24_015,19,female,2024-01-29_17h00.18.593,jersey_experiment_5,2023.2.2,Win32,83.33333333,,,,,,,,,,,,,,,,503.7992,505.6012,505.6012,507.2128,return,0.237,,90.36458333,,,,,,FBP-YG-17.png,0.45,1.2,35,1,0,47,47,34,1,,,,,,,,,,,,,,,,,,,,,,,,,,,,,,,,,,,,,,,,
,,,,,WIN24_015,19,female,2024-01-29_17h00.18.593,jersey_experiment_5,2023.2.2,Win32,83.33333333,,,,,,,,,,,,,,,,507.213,509.0117,509.0117,510.5383,return,1.0602,,78.125,,,,,,FBP-RB-71.png,0.4,1.2,18,1,0,48,48,17,1,,,,,,,,,,,,,,,,,,,,,,,,,,,,,,,,,,,,,,,,
,,,,,WIN24_015,19,female,2024-01-29_17h00.18.593,jersey_experiment_5,2023.2.2,Win32,83.33333333,,,,,,,,,,,,,,,,510.5386,511.8386,511.8386,513.0485,return,0.2472,,28.77604167,,,,,,FBP-PT-91.png,0.35,1.2,56,0.5,0,49,49,55,1,,,,,,,,,,,,,,,,,,,,,,,,,,,,,,,,,,,,,,,,
,,,,,WIN24_015,19,female,2024-01-29_17h00.18.593,jersey_experiment_5,2023.2.2,Win32,83.33333333,,,,,,,,,,,,,,,,513.0486,514.3403,514.3404,516.5077,return,1.1317,,84.50520833,,,,,,FBP-OG-18.png,0.43,1.2,9,0.5,0,50,50,8,1,,,,,,,,,,,,,,,,,,,,,,,,,,,,,,,,,,,,,,,,
,,,,,WIN24_015,19,female,2024-01-29_17h00.18.593,jersey_experiment_5,2023.2.2,Win32,83.33333333,,,,,,,,,,,,,,,,516.5079,517.8093,517.8093,519.3527,return,0.7493,,85.41666667,,,,,,FBP-OG-19.png,0.43,1.2,14,0.5,0,51,51,13,1,,,,,,,,,,,,,,,,,,,,,,,,,,,,,,,,,,,,,,,,
,,,,,WIN24_015,19,female,2024-01-29_17h00.18.593,jersey_experiment_5,2023.2.2,Win32,83.33333333,,,,,,,,,,,,,,,,519.3528,520.6503,520.6503,521.6725,return,0.2474,,89.19270833,,,,,,FBP-OG-19.png,0.45,1.2,15,0.5,0,52,52,14,1,,,,,,,,,,,,,,,,,,,,,,,,,,,,,,,,,,,,,,,,
,,,,,WIN24_015,19,female,2024-01-29_17h00.18.593,jersey_experiment_5,2023.2.2,Win32,83.33333333,,,,,,,,,,,,,,,,521.6726,523.4682,523.4682,524.68,return,0.3233,,90.625,,,,,,FBP-YG-18.png,0.43,1.2,39,1,0,53,53,38,1,,,,,,,,,,,,,,,,,,,,,,,,,,,,,,,,,,,,,,,,
,,,,,WIN24_015,19,female,2024-01-29_17h00.18.593,jersey_experiment_5,2023.2.2,Win32,83.33333333,,,,,,,,,,,,,,,,524.6803,525.9742,525.9742,527.8356,return,0.7868,,31.38020833,,,,,,FBP-PT-71.png,0.37,1.2,47,0.5,0,54,54,46,1,,,,,,,,,,,,,,,,,,,,,,,,,,,,,,,,,,,,,,,,
,,,,,WIN24_015,19,female,2024-01-29_17h00.18.593,jersey_experiment_5,2023.2.2,Win32,83.33333333,,,,,,,,,,,,,,,,527.8358,529.1313,529.1313,530.205,return,0.2512,,46.875,,,,,,FBP-OG-19.png,0.4,1.2,13,0.5,0,55,55,12,1,,,,,,,,,,,,,,,,,,,,,,,,,,,,,,,,,,,,,,,,
,,,,,WIN24_015,19,female,2024-01-29_17h00.18.593,jersey_experiment_5,2023.2.2,Win32,83.33333333,,,,,,,,,,,,,,,,530.2051,531.5076,531.5077,532.7062,return,0.2221,,34.63541667,,,,,,FBP-PT-71.png,0.43,1.2,49,0.5,0,56,56,48,1,,,,,,,,,,,,,,,,,,,,,,,,,,,,,,,,,,,,,,,,
,,,,,WIN24_015,19,female,2024-01-29_17h00.18.593,jersey_experiment_5,2023.2.2,Win32,83.33333333,,,,,,,,,,,,,,,,532.7065,534.5037,534.5038,535.6119,return,0.2002,,40.625,,,,,,FBP-YG-18.png,0.4,1.2,38,1,0,57,57,37,1,,,,,,,,,,,,,,,,,,,,,,,,,,,,,,,,,,,,,,,,
,,,,,WIN24_015,19,female,2024-01-29_17h00.18.593,jersey_experiment_5,2023.2.2,Win32,83.33333333,,,,,,,,,,,,,,,,535.612,536.904,536.904,538.8751,return,0.2498,,3.776041667,,,,,,FBP-OG-17.png,0.37,1.2,2,0.5,0,58,58,1,1,,,,,,,,,,,,,,,,,,,,,,,,,,,,,,,,,,,,,,,,
,,,,,WIN24_015,19,female,2024-01-29_17h00.18.593,jersey_experiment_5,2023.2.2,Win32,83.33333333,,,,,,,,,,,,,,,,538.8752,540.1668,540.1669,545.3397,return,3.3796,,1.5625,,,,,,FBP-OG-18.png,0.35,1.2,6,0.5,0,59,59,5,1,,,,,,,,,,,,,,,,,,,,,,,,,,,,,,,,,,,,,,,,
,,,,,WIN24_015,19,female,2024-01-29_17h00.18.593,jersey_experiment_5,2023.2.2,Win32,83.33333333,,,,,,,,,,,,,,,,,,,,,,,,,,,,,,,,,,,,,,,545.3401,665.3442,,,,,,,,,,,,,,,,,,,,,,,,,,,,,,,,,,,,,,
,,,,,WIN24_015,19,female,2024-01-29_17h00.18.593,jersey_experiment_5,2023.2.2,Win32,83.33333333,,,,,,,,,,,,,,,,,,,,,,,,,,,,,,,,,,,,,,,,,665.3444,669.9862,return,4.6241,,,,,,,,,,,,,,,,,,,,,,,,,,,,,,,,,,
,,,,,WIN24_015,19,female,2024-01-29_17h00.18.593,jersey_experiment_5,2023.2.2,Win32,83.33333333,,,,,,,,,,,,,,,,669.9923,671.7959,671.7959,675.9443,return,3.1814,,33.46354167,,,,,,FBP-OG-81.png,0.37,1.2,7,1,,,,,,,,,,,,,0,0,0,6,1,,,,,,,,,,,,,,,,,,,,,,,,,,,,
,,,,,WIN24_015,19,female,2024-01-29_17h00.18.593,jersey_experiment_5,2023.2.2,Win32,83.33333333,,,,,,,,,,,,,,,,675.9447,677.2386,677.2386,679.7681,return,0.9232,,66.92708333,,,,,,FBP-YG-91.png,0.4,1.2,43,0.5,,,,,,,,,,,,,0,1,1,42,1,,,,,,,,,,,,,,,,,,,,,,,,,,,,
,,,,,WIN24_015,19,female,2024-01-29_17h00.18.593,jersey_experiment_5,2023.2.2,Win32,83.33333333,,,,,,,,,,,,,,,,679.7683,681.0623,681.0623,682.1704,return,0.2703,,85.41666667,,,,,,FBP-RB-19.png,0.45,1.2,30,0.5,,,,,,,,,,,,,0,2,2,29,1,,,,,,,,,,,,,,,,,,,,,,,,,,,,
,,,,,WIN24_015,19,female,2024-01-29_17h00.18.593,jersey_experiment_5,2023.2.2,Win32,83.33333333,,,,,,,,,,,,,,,,682.1706,683.9626,683.9626,686.0858,return,1.5485,,20.44270833,,,,,,FBP-PT-17.png,0.35,1.2,46,1,,,,,,,,,,,,,0,3,3,45,1,,,,,,,,,,,,,,,,,,,,,,,,,,,,
,,,,,WIN24_015,19,female,2024-01-29_17h00.18.593,jersey_experiment_5,2023.2.2,Win32,83.33333333,,,,,,,,,,,,,,,,686.086,687.8786,687.8786,689.2391,return,0.9125,,89.71354167,,,,,,FBP-PT-18.png,0.43,1.2,54,1,,,,,,,,,,,,,0,4,4,53,1,,,,,,,,,,,,,,,,,,,,,,,,,,,,
,,,,,WIN24_015,19,female,2024-01-29_17h00.18.593,jersey_experiment_5,2023.2.2,Win32,83.33333333,,,,,,,,,,,,,,,,689.2392,691.0334,691.0334,692.0785,return,0.2473,,47.91666667,,,,,,FBP-OG-71.png,0.4,1.2,3,1,,,,,,,,,,,,,0,5,5,2,1,,,,,,,,,,,,,,,,,,,,,,,,,,,,
,,,,,WIN24_015,19,female,2024-01-29_17h00.18.593,jersey_experiment_5,2023.2.2,Win32,83.33333333,,,,,,,,,,,,,,,,692.0787,693.3803,693.3803,695.6434,return,1.5416,,11.58854167,,,,,,FBP-YG-91.png,0.35,1.2,41,0.5,,,,,,,,,,,,,0,6,6,40,1,,,,,,,,,,,,,,,,,,,,,,,,,,,,
,,,,,WIN24_015,19,female,2024-01-29_17h00.18.593,jersey_experiment_5,2023.2.2,Win32,83.33333333,,,,,,,,,,,,,,,,695.6436,696.9373,696.9373,698.5515,return,0.8021,,94.79166667,,,,,,FBP-YG-71.png,0.45,1.2,35,0.5,,,,,,,,,,,,,0,7,7,34,1,,,,,,,,,,,,,,,,,,,,,,,,,,,,
,,,,,WIN24_015,19,female,2024-01-29_17h00.18.593,jersey_experiment_5,2023.2.2,Win32,83.33333333,,,,,,,,,,,,,,,,698.5517,699.8435,699.8435,702.5101,return,1.6482,,98.17708333,,,,,,FBP-YG-91.png,0.43,1.2,44,0.5,,,,,,,,,,,,,0,8,8,43,1,,,,,,,,,,,,,,,,,,,,,,,,,,,,
,,,,,WIN24_015,19,female,2024-01-29_17h00.18.593,jersey_experiment_5,2023.2.2,Win32,83.33333333,,,,,,,,,,,,,,,,702.5103,703.8041,703.8042,707.585,return,2.8823,,28.515625,,,,,,FBP-YG-81.png,0.37,1.2,37,0.5,,,,,,,,,,,,,0,9,9,36,1,,,,,,,,,,,,,,,,,,,,,,,,,,,,
,,,,,WIN24_015,19,female,2024-01-29_17h00.18.593,jersey_experiment_5,2023.2.2,Win32,83.33333333,,,,,,,,,,,,,,,,707.5851,709.3849,709.385,713.9693,return,2.388,,35.9375,,,,,,FBP-OG-91.png,0.37,1.2,12,1,,,,,,,,,,,,,0,10,10,11,1,,,,,,,,,,,,,,,,,,,,,,,,,,,,
,,,,,WIN24_015,19,female,2024-01-29_17h00.18.593,jersey_experiment_5,2023.2.2,Win32,83.33333333,,,,,,,,,,,,,,,,713.9696,715.2633,715.2633,717.6284,return,1.65,,77.21354167,,,,,,FBP-YG-81.png,0.4,1.2,38,0.5,,,,,,,,,,,,,0,11,11,37,1,,,,,,,,,,,,,,,,,,,,,,,,,,,,
,,,,,WIN24_015,19,female,2024-01-29_17h00.18.593,jersey_experiment_5,2023.2.2,Win32,83.33333333,,,,,,,,,,,,,,,,717.6286,718.9224,718.9224,720.6872,return,0.6239,,7.942708333,,,,,,FBP-YG-71.png,0.35,1.2,31,0.5,,,,,,,,,,,,,0,12,12,30,1,,,,,,,,,,,,,,,,,,,,,,,,,,,,
,,,,,WIN24_015,19,female,2024-01-29_17h00.18.593,jersey_experiment_5,2023.2.2,Win32,83.33333333,,,,,,,,,,,,,,,,720.6874,722.4799,722.48,724.9109,return,1.506,,74.73958333,,,,,,FBP-PT-19.png,0.4,1.2,58,1,,,,,,,,,,,,,0,13,13,57,1,,,,,,,,,,,,,,,,,,,,,,,,,,,,
,,,,,WIN24_015,19,female,2024-01-29_17h00.18.593,jersey_experiment_5,2023.2.2,Win32,83.33333333,,,,,,,,,,,,,,,,724.9111,726.7051,726.7051,729.4168,return,1.534,,45.83333333,,,,,,FBP-PT-18.png,0.37,1.2,52,1,,,,,,,,,,,,,0,14,14,51,1,,,,,,,,,,,,,,,,,,,,,,,,,,,,
,,,,,WIN24_015,19,female,2024-01-29_17h00.18.593,jersey_experiment_5,2023.2.2,Win32,83.33333333,,,,,,,,,,,,,,,,729.417,731.2226,731.2226,735.2641,return,3.3652,,60.28645833,,,,,,FBP-OG-91.png,0.4,1.2,13,1,,,,,,,,,,,,,0,15,15,12,1,,,,,,,,,,,,,,,,,,,,,,,,,,,,
,,,,,WIN24_015,19,female,2024-01-29_17h00.18.593,jersey_experiment_5,2023.2.2,Win32,83.33333333,,,,,,,,,,,,,,,,735.2644,736.5622,736.5622,737.8878,return,0.2984,,63.28125,,,,,,FBP-YG-71.png,0.4,1.2,33,0.5,,,,,,,,,,,,,0,16,16,32,1,,,,,,,,,,,,,,,,,,,,,,,,,,,,
,,,,,WIN24_015,19,female,2024-01-29_17h00.18.593,jersey_experiment_5,2023.2.2,Win32,83.33333333,,,,,,,,,,,,,,,,737.888,739.182,739.182,741.151,return,0.2354,,77.99479167,,,,,,FBP-YG-71.png,0.43,1.2,34,0.5,,,,,,,,,,,,,0,17,17,33,1,,,,,,,,,,,,,,,,,,,,,,,,,,,,
,,,,,WIN24_015,19,female,2024-01-29_17h00.18.593,jersey_experiment_5,2023.2.2,Win32,83.33333333,,,,,,,,,,,,,,,,741.1512,742.4566,742.4566,746.1747,return,2.908,,73.17708333,,,,,,FBP-RB-19.png,0.4,1.2,28,0.5,,,,,,,,,,,,,0,18,18,27,1,,,,,,,,,,,,,,,,,,,,,,,,,,,,
,,,,,WIN24_015,19,female,2024-01-29_17h00.18.593,jersey_experiment_5,2023.2.2,Win32,83.33333333,,,,,,,,,,,,,,,,746.1748,747.9704,747.9704,750.1394,return,0.7881,,81.51041667,,,,,,FBP-OG-81.png,0.43,1.2,9,1,,,,,,,,,,,,,0,19,19,8,1,,,,,,,,,,,,,,,,,,,,,,,,,,,,
,,,,,WIN24_015,19,female,2024-01-29_17h00.18.593,jersey_experiment_5,2023.2.2,Win32,83.33333333,,,,,,,,,,,,,,,,750.1395,751.9416,751.9416,753.3516,return,0.2591,,49.86979167,,,,,,FBP-OG-71.png,0.37,1.2,2,1,,,,,,,,,,,,,0,20,20,1,1,,,,,,,,,,,,,,,,,,,,,,,,,,,,
,,,,,WIN24_015,19,female,2024-01-29_17h00.18.593,jersey_experiment_5,2023.2.2,Win32,83.33333333,,,,,,,,,,,,,,,,753.3518,754.6532,754.6532,755.6768,return,0.4359,,50,,,,,,FBP-YG-71.png,0.37,1.2,32,0.5,,,,,,,,,,,,,0,21,21,31,1,,,,,,,,,,,,,,,,,,,,,,,,,,,,
,,,,,WIN24_015,19,female,2024-01-29_17h00.18.593,jersey_experiment_5,2023.2.2,Win32,83.33333333,,,,,,,,,,,,,,,,755.6768,757.4768,757.4768,762.6576,return,4.4002,,71.74479167,,,,,,FBP-PT-19.png,0.43,1.2,59,1,,,,,,,,,,,,,0,22,22,58,1,,,,,,,,,,,,,,,,,,,,,,,,,,,,
,,,,,WIN24_015,19,female,2024-01-29_17h00.18.593,jersey_experiment_5,2023.2.2,Win32,83.33333333,,,,,,,,,,,,,,,,762.6578,764.4534,764.4534,765.8341,return,0.2364,,74.609375,,,,,,FBP-PT-18.png,0.4,1.2,53,1,,,,,,,,,,,,,0,23,23,52,1,,,,,,,,,,,,,,,,,,,,,,,,,,,,
,,,,,WIN24_015,19,female,2024-01-29_17h00.18.593,jersey_experiment_5,2023.2.2,Win32,83.33333333,,,,,,,,,,,,,,,,765.8342,767.6363,767.6363,769.0224,return,0.8,,89.58333333,,,,,,FBP-PT-17.png,0.45,1.2,50,1,,,,,,,,,,,,,0,24,24,49,1,,,,,,,,,,,,,,,,,,,,,,,,,,,,
,,,,,WIN24_015,19,female,2024-01-29_17h00.18.593,jersey_experiment_5,2023.2.2,Win32,83.33333333,,,,,,,,,,,,,,,,769.0226,770.3242,770.3242,777.1777,return,5.2025,,22.65625,,,,,,FBP-RB-19.png,0.37,1.2,27,0.5,,,,,,,,,,,,,0,25,25,26,1,,,,,,,,,,,,,,,,,,,,,,,,,,,,
,,,,,WIN24_015,19,female,2024-01-29_17h00.18.593,jersey_experiment_5,2023.2.2,Win32,83.33333333,,,,,,,,,,,,,,,,777.1779,778.9736,778.9736,780.7995,return,0.3295,,8.333333333,,,,,,FBP-PT-17.png,0.37,1.2,47,1,,,,,,,,,,,,,0,26,26,46,1,,,,,,,,,,,,,,,,,,,,,,,,,,,,
,,,,,WIN24_015,19,female,2024-01-29_17h00.18.593,jersey_experiment_5,2023.2.2,Win32,83.33333333,,,,,,,,,,,,,,,,780.7997,782.0937,782.0937,783.9312,return,0.8732,,5.208333333,,,,,,FBP-RB-18.png,0.35,1.2,21,0.5,,,,,,,,,,,,,0,27,27,20,1,,,,,,,,,,,,,,,,,,,,,,,,,,,,
,,,,,WIN24_015,19,female,2024-01-29_17h00.18.593,jersey_experiment_5,2023.2.2,Win32,83.33333333,,,,,,,,,,,,,,,,783.9313,785.727,785.727,788.8897,return,2.2059,,9.244791667,,,,,,FBP-PT-19.png,0.35,1.2,56,1,,,,,,,,,,,,,0,28,28,55,1,,,,,,,,,,,,,,,,,,,,,,,,,,,,
,,,,,WIN24_015,19,female,2024-01-29_17h00.18.593,jersey_experiment_5,2023.2.2,Win32,83.33333333,,,,,,,,,,,,,,,,788.8898,790.6897,790.6897,792.118,return,0.4004,,6.770833333,,,,,,FBP-PT-18.png,0.35,1.2,51,1,,,,,,,,,,,,,0,29,29,50,1,,,,,,,,,,,,,,,,,,,,,,,,,,,,
,,,,,WIN24_015,19,female,2024-01-29_17h00.18.593,jersey_experiment_5,2023.2.2,Win32,83.33333333,,,,,,,,,,,,,,,,792.1182,793.4095,793.4095,795.9668,return,1.6846,,93.48958333,,,,,,FBP-RB-19.png,0.43,1.2,29,0.5,,,,,,,,,,,,,0,30,30,28,1,,,,,,,,,,,,,,,,,,,,,,,,,,,,
,,,,,WIN24_015,19,female,2024-01-29_17h00.18.593,jersey_experiment_5,2023.2.2,Win32,83.33333333,,,,,,,,,,,,,,,,795.9669,797.7646,797.7646,799.1282,return,0.2476,,94.27083333,,,,,,FBP-OG-71.png,0.45,1.2,5,1,,,,,,,,,,,,,0,31,31,4,1,,,,,,,,,,,,,,,,,,,,,,,,,,,,
,,,,,WIN24_015,19,female,2024-01-29_17h00.18.593,jersey_experiment_5,2023.2.2,Win32,83.33333333,,,,,,,,,,,,,,,,799.1284,800.9295,800.9295,802.0713,return,0.283,,93.48958333,,,,,,FBP-OG-91.png,0.45,1.2,15,1,,,,,,,,,,,,,0,32,32,14,1,,,,,,,,,,,,,,,,,,,,,,,,,,,,
,,,,,WIN24_015,19,female,2024-01-29_17h00.18.593,jersey_experiment_5,2023.2.2,Win32,83.33333333,,,,,,,,,,,,,,,,802.0714,803.3632,803.3633,806.2007,return,1.4946,,12.890625,,,,,,FBP-RB-17.png,0.35,1.2,16,0.5,,,,,,,,,,,,,0,33,33,15,1,,,,,,,,,,,,,,,,,,,,,,,,,,,,
,,,,,WIN24_015,19,female,2024-01-29_17h00.18.593,jersey_experiment_5,2023.2.2,Win32,83.33333333,,,,,,,,,,,,,,,,806.2009,807.4946,807.4947,809.5774,return,0.7183,,85.15625,,,,,,FBP-RB-17.png,0.43,1.2,19,0.5,,,,,,,,,,,,,0,34,34,18,1,,,,,,,,,,,,,,,,,,,,,,,,,,,,
,,,,,WIN24_015,19,female,2024-01-29_17h00.18.593,jersey_experiment_5,2023.2.2,Win32,83.33333333,,,,,,,,,,,,,,,,809.5775,810.8712,810.8712,811.9775,return,0.2959,,78.515625,,,,,,FBP-RB-18.png,0.4,1.2,23,0.5,,,,,,,,,,,,,0,35,35,22,1,,,,,,,,,,,,,,,,,,,,,,,,,,,,
,,,,,WIN24_015,19,female,2024-01-29_17h00.18.593,jersey_experiment_5,2023.2.2,Win32,83.33333333,,,,,,,,,,,,,,,,811.9777,813.2811,813.2811,814.2703,return,0.3399,,80.72916667,,,,,,FBP-RB-18.png,0.43,1.2,24,0.5,,,,,,,,,,,,,0,36,36,23,1,,,,,,,,,,,,,,,,,,,,,,,,,,,,
,,,,,WIN24_015,19,female,2024-01-29_17h00.18.593,jersey_experiment_5,2023.2.2,Win32,83.33333333,,,,,,,,,,,,,,,,814.2704,816.0672,816.0672,817.5419,return,0.2959,,81.640625,,,,,,FBP-PT-19.png,0.45,1.2,60,1,,,,,,,,,,,,,0,37,37,59,1,,,,,,,,,,,,,,,,,,,,,,,,,,,,
,,,,,WIN24_015,19,female,2024-01-29_17h00.18.593,jersey_experiment_5,2023.2.2,Win32,83.33333333,,,,,,,,,,,,,,,,817.542,818.8497,818.8497,819.8791,return,0.3123,,86.45833333,,,,,,FBP-RB-18.png,0.45,1.2,25,0.5,,,,,,,,,,,,,0,38,38,24,1,,,,,,,,,,,,,,,,,,,,,,,,,,,,
,,,,,WIN24_015,19,female,2024-01-29_17h00.18.593,jersey_experiment_5,2023.2.2,Win32,83.33333333,,,,,,,,,,,,,,,,819.8793,821.6792,821.6792,822.9186,return,0.6469,,86.58854167,,,,,,FBP-PT-17.png,0.43,1.2,49,1,,,,,,,,,,,,,0,39,39,48,1,,,,,,,,,,,,,,,,,,,,,,,,,,,,
,,,,,WIN24_015,19,female,2024-01-29_17h00.18.593,jersey_experiment_5,2023.2.2,Win32,83.33333333,,,,,,,,,,,,,,,,822.9188,824.2126,824.2126,825.6481,return,0.365,,90.36458333,,,,,,FBP-YG-91.png,0.45,1.2,45,0.5,,,,,,,,,,,,,0,40,40,44,1,,,,,,,,,,,,,,,,,,,,,,,,,,,,
,,,,,WIN24_015,19,female,2024-01-29_17h00.18.593,jersey_experiment_5,2023.2.2,Win32,83.33333333,,,,,,,,,,,,,,,,825.6483,827.4484,827.4484,828.9267,return,0.6833,,3.255208333,,,,,,FBP-OG-71.png,0.35,1.2,1,1,,,,,,,,,,,,,0,41,41,0,1,,,,,,,,,,,,,,,,,,,,,,,,,,,,
,,,,,WIN24_015,19,female,2024-01-29_17h00.18.593,jersey_experiment_5,2023.2.2,Win32,83.33333333,,,,,,,,,,,,,,,,828.9269,830.7209,830.7209,831.8366,return,0.4239,,83.07291667,,,,,,FBP-OG-81.png,0.45,1.2,10,1,,,,,,,,,,,,,0,42,42,9,1,,,,,,,,,,,,,,,,,,,,,,,,,,,,
,,,,,WIN24_015,19,female,2024-01-29_17h00.18.593,jersey_experiment_5,2023.2.2,Win32,83.33333333,,,,,,,,,,,,,,,,831.8367,833.6324,833.6324,837.3292,return,2.9163,,70.18229167,,,,,,FBP-PT-17.png,0.4,1.2,48,1,,,,,,,,,,,,,0,43,43,47,1,,,,,,,,,,,,,,,,,,,,,,,,,,,,
,,,,,WIN24_015,19,female,2024-01-29_17h00.18.593,jersey_experiment_5,2023.2.2,Win32,83.33333333,,,,,,,,,,,,,,,,837.3293,838.621,838.621,841.3076,return,1.7885,,5.729166667,,,,,,FBP-YG-81.png,0.35,1.2,36,0.5,,,,,,,,,,,,,0,44,44,35,1,,,,,,,,,,,,,,,,,,,,,,,,,,,,
,,,,,WIN24_015,19,female,2024-01-29_17h00.18.593,jersey_experiment_5,2023.2.2,Win32,83.33333333,,,,,,,,,,,,,,,,841.3078,842.6092,842.6092,843.6585,return,0.2804,,5.078125,,,,,,FBP-RB-19.png,0.35,1.2,26,0.5,,,,,,,,,,,,,0,45,45,25,1,,,,,,,,,,,,,,,,,,,,,,,,,,,,
,,,,,WIN24_015,19,female,2024-01-29_17h00.18.593,jersey_experiment_5,2023.2.2,Win32,83.33333333,,,,,,,,,,,,,,,,843.6586,844.9507,844.9507,847.7666,return,1.8358,,90.625,,,,,,FBP-RB-17.png,0.45,1.2,20,0.5,,,,,,,,,,,,,0,46,46,19,1,,,,,,,,,,,,,,,,,,,,,,,,,,,,
,,,,,WIN24_015,19,female,2024-01-29_17h00.18.593,jersey_experiment_5,2023.2.2,Win32,83.33333333,,,,,,,,,,,,,,,,847.7667,849.0746,849.0746,853.7187,return,3.1286,,38.15104167,,,,,,FBP-RB-18.png,0.37,1.2,22,0.5,,,,,,,,,,,,,0,47,47,21,1,,,,,,,,,,,,,,,,,,,,,,,,,,,,
,,,,,WIN24_015,19,female,2024-01-29_17h00.18.593,jersey_experiment_5,2023.2.2,Win32,83.33333333,,,,,,,,,,,,,,,,853.719,855.5157,855.5157,859.6261,return,2.0709,,45.96354167,,,,,,FBP-OG-81.png,0.4,1.2,8,1,,,,,,,,,,,,,0,48,48,7,1,,,,,,,,,,,,,,,,,,,,,,,,,,,,
,,,,,WIN24_015,19,female,2024-01-29_17h00.18.593,jersey_experiment_5,2023.2.2,Win32,83.33333333,,,,,,,,,,,,,,,,859.6262,861.4259,861.4259,862.8281,return,0.6041,,26.5625,,,,,,FBP-PT-19.png,0.37,1.2,57,1,,,,,,,,,,,,,0,49,49,56,1,,,,,,,,,,,,,,,,,,,,,,,,,,,,
,,,,,WIN24_015,19,female,2024-01-29_17h00.18.593,jersey_experiment_5,2023.2.2,Win32,83.33333333,,,,,,,,,,,,,,,,862.8283,864.1204,864.1204,865.8731,return,0.6099,,69.40104167,,,,,,FBP-YG-81.png,0.43,1.2,39,0.5,,,,,,,,,,,,,0,50,50,38,1,,,,,,,,,,,,,,,,,,,,,,,,,,,,
,,,,,WIN24_015,19,female,2024-01-29_17h00.18.593,jersey_experiment_5,2023.2.2,Win32,83.33333333,,,,,,,,,,,,,,,,865.8733,867.1748,867.1748,870.509,return,0.2488,,43.75,,,,,,FBP-YG-91.png,0.37,1.2,42,0.5,,,,,,,,,,,,,0,51,51,41,1,,,,,,,,,,,,,,,,,,,,,,,,,,,,
,,,,,WIN24_015,19,female,2024-01-29_17h00.18.593,jersey_experiment_5,2023.2.2,Win32,83.33333333,,,,,,,,,,,,,,,,870.5092,871.8104,871.8104,873.1422,return,0.4571,,42.578125,,,,,,FBP-RB-17.png,0.4,1.2,18,0.5,,,,,,,,,,,,,0,52,52,17,1,,,,,,,,,,,,,,,,,,,,,,,,,,,,
,,,,,WIN24_015,19,female,2024-01-29_17h00.18.593,jersey_experiment_5,2023.2.2,Win32,83.33333333,,,,,,,,,,,,,,,,873.1423,874.9397,874.9397,876.3558,return,0.7647,,17.70833333,,,,,,FBP-OG-81.png,0.35,1.2,6,1,,,,,,,,,,,,,0,53,53,5,1,,,,,,,,,,,,,,,,,,,,,,,,,,,,
,,,,,WIN24_015,19,female,2024-01-29_17h00.18.593,jersey_experiment_5,2023.2.2,Win32,83.33333333,,,,,,,,,,,,,,,,876.3559,878.1557,878.1557,881.6758,return,2.8143,,86.71875,,,,,,FBP-PT-18.png,0.45,1.2,55,1,,,,,,,,,,,,,0,54,54,54,1,,,,,,,,,,,,,,,,,,,,,,,,,,,,
,,,,,WIN24_015,19,female,2024-01-29_17h00.18.593,jersey_experiment_5,2023.2.2,Win32,83.33333333,,,,,,,,,,,,,,,,881.6758,883.4698,883.4698,885.0814,return,0.8057,,85.67708333,,,,,,FBP-OG-91.png,0.43,1.2,14,1,,,,,,,,,,,,,0,55,55,13,1,,,,,,,,,,,,,,,,,,,,,,,,,,,,
,,,,,WIN24_015,19,female,2024-01-29_17h00.18.593,jersey_experiment_5,2023.2.2,Win32,83.33333333,,,,,,,,,,,,,,,,885.0816,886.8742,886.8742,887.7523,return,0.2641,,88.93229167,,,,,,FBP-OG-71.png,0.43,1.2,4,1,,,,,,,,,,,,,0,56,56,3,1,,,,,,,,,,,,,,,,,,,,,,,,,,,,
,,,,,WIN24_015,19,female,2024-01-29_17h00.18.593,jersey_experiment_5,2023.2.2,Win32,83.33333333,,,,,,,,,,,,,,,,887.7524,889.0463,889.0463,890.5448,return,0.3665,,90.75520833,,,,,,FBP-YG-81.png,0.45,1.2,40,0.5,,,,,,,,,,,,,0,57,57,39,1,,,,,,,,,,,,,,,,,,,,,,,,,,,,
,,,,,WIN24_015,19,female,2024-01-29_17h00.18.593,jersey_experiment_5,2023.2.2,Win32,83.33333333,,,,,,,,,,,,,,,,890.545,892.3449,892.3449,893.6761,return,0.2592,,47.78645833,,,,,,FBP-OG-91.png,0.35,1.2,11,1,,,,,,,,,,,,,0,58,58,10,1,,,,,,,,,,,,,,,,,,,,,,,,,,,,
,,,,,WIN24_015,19,female,2024-01-29_17h00.18.593,jersey_experiment_5,2023.2.2,Win32,83.33333333,,,,,,,,,,,,,,,,893.6763,894.9759,894.9759,896.2272,return,0.4805,,45.05208333,,,,,,FBP-RB-17.png,0.37,1.2,17,0.5,,,,,,,,,,,,,0,59,59,16,1,,,,,,,,,,,,,,,,,,,,,,,,,,,,
,,,,,WIN24_015,19,female,2024-01-29_17h00.18.593,jersey_experiment_5,2023.2.2,Win32,83.33333333,,,,,,,,,,,,,,,,896.229,898.0291,898.0291,899.7408,return,0.8601,,56.90104167,,,,,,FBP-PT-71.png,0.4,1.2,48,1,,,,,,,,,,,,,,,,,,0,0,0,47,1,,,,,,,,,,,,,,,,,,,,,,,
,,,,,WIN24_015,19,female,2024-01-29_17h00.18.593,jersey_experiment_5,2023.2.2,Win32,83.33333333,,,,,,,,,,,,,,,,899.7412,901.5331,901.5332,902.1528,return,0.1812,,39.0625,,,,,,FBP-PT-81.png,0.35,1.2,51,1,,,,,,,,,,,,,,,,,,0,1,1,50,1,,,,,,,,,,,,,,,,,,,,,,,
,,,,,WIN24_015,19,female,2024-01-29_17h00.18.593,jersey_experiment_5,2023.2.2,Win32,83.33333333,,,,,,,,,,,,,,,,902.153,903.4469,903.4469,905.7528,return,1.1926,,64.58333333,,,,,,FBP-RB-91.png,0.4,1.2,28,0.5,,,,,,,,,,,,,,,,,,0,2,2,27,1,,,,,,,,,,,,,,,,,,,,,,,
,,,,,WIN24_015,19,female,2024-01-29_17h00.18.593,jersey_experiment_5,2023.2.2,Win32,83.33333333,,,,,,,,,,,,,,,,905.7531,907.0468,907.0468,907.9646,return,0.2712,,67.31770833,,,,,,FBP-YG-19.png,0.4,1.2,43,0.5,,,,,,,,,,,,,,,,,,0,3,3,42,1,,,,,,,,,,,,,,,,,,,,,,,
,,,,,WIN24_015,19,female,2024-01-29_17h00.18.593,jersey_experiment_5,2023.2.2,Win32,83.33333333,,,,,,,,,,,,,,,,907.9647,909.7591,909.7591,912.9104,return,0.1295,,51.04166667,,,,,,FBP-OG-17.png,0.37,1.2,2,1,,,,,,,,,,,,,,,,,,0,4,4,1,1,,,,,,,,,,,,,,,,,,,,,,,
,,,,,WIN24_015,19,female,2024-01-29_17h00.18.593,jersey_experiment_5,2023.2.2,Win32,83.33333333,,,,,,,,,,,,,,,,912.9105,914.7121,914.7121,916.8415,return,1.6723,,62.109375,,,,,,FBP-PT-81.png,0.4,1.2,53,1,,,,,,,,,,,,,,,,,,0,5,5,52,1,,,,,,,,,,,,,,,,,,,,,,,
,,,,,WIN24_015,19,female,2024-01-29_17h00.18.593,jersey_experiment_5,2023.2.2,Win32,83.33333333,,,,,,,,,,,,,,,,916.8417,918.1337,918.1337,919.0945,return,0.299,,64.58333333,,,,,,FBP-RB-81.png,0.4,1.2,23,0.5,,,,,,,,,,,,,,,,,,0,6,6,22,1,,,,,,,,,,,,,,,,,,,,,,,
,,,,,WIN24_015,19,female,2024-01-29_17h00.18.593,jersey_experiment_5,2023.2.2,Win32,83.33333333,,,,,,,,,,,,,,,,919.0946,920.3925,920.3925,921.5596,return,0.3416,,79.16666667,,,,,,FBP-RB-71.png,0.43,1.2,19,0.5,,,,,,,,,,,,,,,,,,0,7,7,18,1,,,,,,,,,,,,,,,,,,,,,,,
,,,,,WIN24_015,19,female,2024-01-29_17h00.18.593,jersey_experiment_5,2023.2.2,Win32,83.33333333,,,,,,,,,,,,,,,,921.5597,922.8632,922.8632,924.1692,return,0.7764,,79.03645833,,,,,,FBP-RB-81.png,0.43,1.2,24,0.5,,,,,,,,,,,,,,,,,,0,8,8,23,1,,,,,,,,,,,,,,,,,,,,,,,
,,,,,WIN24_015,19,female,2024-01-29_17h00.18.593,jersey_experiment_5,2023.2.2,Win32,83.33333333,,,,,,,,,,,,,,,,924.1694,925.4751,925.4751,931.6268,return,5.3731,,70.44270833,,,,,,FBP-RB-71.png,0.45,1.2,20,0.5,,,,,,,,,,,,,,,,,,0,9,9,19,1,,,,,,,,,,,,,,,,,,,,,,,
,,,,,WIN24_015,19,female,2024-01-29_17h00.18.593,jersey_experiment_5,2023.2.2,Win32,83.33333333,,,,,,,,,,,,,,,,931.6269,932.9245,932.9245,937.8405,return,2.2827,,86.71875,,,,,,FBP-YG-19.png,0.45,1.2,45,0.5,,,,,,,,,,,,,,,,,,0,10,10,44,1,,,,,,,,,,,,,,,,,,,,,,,
,,,,,WIN24_015,19,female,2024-01-29_17h00.18.593,jersey_experiment_5,2023.2.2,Win32,83.33333333,,,,,,,,,,,,,,,,937.8406,939.6364,939.6364,943.9895,return,3.2904,,83.07291667,,,,,,FBP-PT-91.png,0.43,1.2,59,1,,,,,,,,,,,,,,,,,,0,11,11,58,1,,,,,,,,,,,,,,,,,,,,,,,
,,,,,WIN24_015,19,female,2024-01-29_17h00.18.593,jersey_experiment_5,2023.2.2,Win32,83.33333333,,,,,,,,,,,,,,,,943.9897,945.2836,945.2837,949.8486,return,3.1124,,42.44791667,,,,,,FBP-RB-91.png,0.37,1.2,27,0.5,,,,,,,,,,,,,,,,,,0,12,12,26,1,,,,,,,,,,,,,,,,,,,,,,,
,,,,,WIN24_015,19,female,2024-01-29_17h00.18.593,jersey_experiment_5,2023.2.2,Win32,83.33333333,,,,,,,,,,,,,,,,949.8488,951.641,951.641,953.4881,return,0.3394,,13.28125,,,,,,FBP-OG-19.png,0.37,1.2,12,1,,,,,,,,,,,,,,,,,,0,13,13,11,1,,,,,,,,,,,,,,,,,,,,,,,
,,,,,WIN24_015,19,female,2024-01-29_17h00.18.593,jersey_experiment_5,2023.2.2,Win32,83.33333333,,,,,,,,,,,,,,,,953.4883,955.286,955.2861,957.7935,return,0.2346,,45.703125,,,,,,FBP-PT-91.png,0.35,1.2,56,1,,,,,,,,,,,,,,,,,,0,14,14,55,1,,,,,,,,,,,,,,,,,,,,,,,
,,,,,WIN24_015,19,female,2024-01-29_17h00.18.593,jersey_experiment_5,2023.2.2,Win32,83.33333333,,,,,,,,,,,,,,,,957.7936,959.59,959.59,961.1476,return,0.4948,,77.734375,,,,,,FBP-OG-19.png,0.43,1.2,14,1,,,,,,,,,,,,,,,,,,0,15,15,13,1,,,,,,,,,,,,,,,,,,,,,,,
,,,,,WIN24_015,19,female,2024-01-29_17h00.18.593,jersey_experiment_5,2023.2.2,Win32,83.33333333,,,,,,,,,,,,,,,,961.1477,962.9451,962.9451,964.206,return,0.647,,70.18229167,,,,,,FBP-PT-91.png,0.4,1.2,58,1,,,,,,,,,,,,,,,,,,0,16,16,57,1,,,,,,,,,,,,,,,,,,,,,,,
,,,,,WIN24_015,19,female,2024-01-29_17h00.18.593,jersey_experiment_5,2023.2.2,Win32,83.33333333,,,,,,,,,,,,,,,,964.2062,965.5001,965.5001,971.1434,return,3.9837,,46.74479167,,,,,,FBP-YG-18.png,0.37,1.2,37,0.5,,,,,,,,,,,,,,,,,,0,17,17,36,1,,,,,,,,,,,,,,,,,,,,,,,
,,,,,WIN24_015,19,female,2024-01-29_17h00.18.593,jersey_experiment_5,2023.2.2,Win32,83.33333333,,,,,,,,,,,,,,,,971.1436,972.4416,972.4416,974.6024,return,0.9911,,31.51041667,,,,,,FBP-YG-18.png,0.35,1.2,36,0.5,,,,,,,,,,,,,,,,,,0,18,18,35,1,,,,,,,,,,,,,,,,,,,,,,,
,,,,,WIN24_015,19,female,2024-01-29_17h00.18.593,jersey_experiment_5,2023.2.2,Win32,83.33333333,,,,,,,,,,,,,,,,974.6027,976.3971,976.3971,980.1835,return,3.0238,,75,,,,,,FBP-PT-81.png,0.43,1.2,54,1,,,,,,,,,,,,,,,,,,0,19,19,53,1,,,,,,,,,,,,,,,,,,,,,,,
,,,,,WIN24_015,19,female,2024-01-29_17h00.18.593,jersey_experiment_5,2023.2.2,Win32,83.33333333,,,,,,,,,,,,,,,,980.1836,981.4793,981.4793,983.2892,return,0.9899,,69.27083333,,,,,,FBP-RB-71.png,0.4,1.2,18,0.5,,,,,,,,,,,,,,,,,,0,20,20,17,1,,,,,,,,,,,,,,,,,,,,,,,
,,,,,WIN24_015,19,female,2024-01-29_17h00.18.593,jersey_experiment_5,2023.2.2,Win32,83.33333333,,,,,,,,,,,,,,,,983.2893,984.5832,984.5832,987.9739,return,2.118,,48.56770833,,,,,,FBP-YG-17.png,0.35,1.2,31,0.5,,,,,,,,,,,,,,,,,,0,21,21,30,1,,,,,,,,,,,,,,,,,,,,,,,
,,,,,WIN24_015,19,female,2024-01-29_17h00.18.593,jersey_experiment_5,2023.2.2,Win32,83.33333333,,,,,,,,,,,,,,,,987.974,989.2656,989.2656,991.8895,return,1.7534,,84.89583333,,,,,,FBP-RB-91.png,0.45,1.2,30,0.5,,,,,,,,,,,,,,,,,,0,22,22,29,1,,,,,,,,,,,,,,,,,,,,,,,
,,,,,WIN24_015,19,female,2024-01-29_17h00.18.593,jersey_experiment_5,2023.2.2,Win32,83.33333333,,,,,,,,,,,,,,,,991.8896,993.1951,993.1951,999.4801,return,5.332,,91.66666667,,,,,,FBP-YG-17.png,0.43,1.2,34,0.5,,,,,,,,,,,,,,,,,,0,23,23,33,1,,,,,,,,,,,,,,,,,,,,,,,
,,,,,WIN24_015,19,female,2024-01-29_17h00.18.593,jersey_experiment_5,2023.2.2,Win32,83.33333333,,,,,,,,,,,,,,,,999.4844,1001.2781,1001.2781,1003.384,return,1.5179,,28.77604167,,,,,,FBP-PT-71.png,0.35,1.2,46,1,,,,,,,,,,,,,,,,,,0,24,24,45,1,,,,,,,,,,,,,,,,,,,,,,,
,,,,,WIN24_015,19,female,2024-01-29_17h00.18.593,jersey_experiment_5,2023.2.2,Win32,83.33333333,,,,,,,,,,,,,,,,1003.3842,1005.1828,1005.1828,1007.3158,return,1.4966,,8.072916667,,,,,,FBP-OG-17.png,0.35,1.2,1,1,,,,,,,,,,,,,,,,,,0,25,25,0,1,,,,,,,,,,,,,,,,,,,,,,,
,,,,,WIN24_015,19,female,2024-01-29_17h00.18.593,jersey_experiment_5,2023.2.2,Win32,83.33333333,,,,,,,,,,,,,,,,1007.3159,1008.6194,1008.6194,1012.3277,return,0.2024,,43.48958333,,,,,,FBP-RB-71.png,0.37,1.2,17,0.5,,,,,,,,,,,,,,,,,,0,26,26,16,1,,,,,,,,,,,,,,,,,,,,,,,
,,,,,WIN24_015,19,female,2024-01-29_17h00.18.593,jersey_experiment_5,2023.2.2,Win32,83.33333333,,,,,,,,,,,,,,,,1012.3279,1014.1235,1014.1236,1015.3138,return,0.2676,,85.15625,,,,,,FBP-PT-91.png,0.45,1.2,60,1,,,,,,,,,,,,,,,,,,0,27,27,59,1,,,,,,,,,,,,,,,,,,,,,,,
,,,,,WIN24_015,19,female,2024-01-29_17h00.18.593,jersey_experiment_5,2023.2.2,Win32,83.33333333,,,,,,,,,,,,,,,,1015.3139,1017.116,1017.116,1019.3023,return,1.3529,,46.74479167,,,,,,FBP-PT-91.png,0.37,1.2,57,1,,,,,,,,,,,,,,,,,,0,28,28,56,1,,,,,,,,,,,,,,,,,,,,,,,
,,,,,WIN24_015,19,female,2024-01-29_17h00.18.593,jersey_experiment_5,2023.2.2,Win32,83.33333333,,,,,,,,,,,,,,,,1019.3024,1021.1024,1021.1024,1022.3007,return,0.4785,,82.68229167,,,,,,FBP-OG-17.png,0.45,1.2,5,1,,,,,,,,,,,,,,,,,,0,29,29,4,1,,,,,,,,,,,,,,,,,,,,,,,
,,,,,WIN24_015,19,female,2024-01-29_17h00.18.593,jersey_experiment_5,2023.2.2,Win32,83.33333333,,,,,,,,,,,,,,,,1022.3008,1024.1045,1024.1045,1025.1613,return,0.2603,,93.75,,,,,,FBP-PT-81.png,0.45,1.2,55,1,,,,,,,,,,,,,,,,,,0,30,30,54,1,,,,,,,,,,,,,,,,,,,,,,,
,,,,,WIN24_015,19,female,2024-01-29_17h00.18.593,jersey_experiment_5,2023.2.2,Win32,83.33333333,,,,,,,,,,,,,,,,1025.1614,1026.9633,1026.9634,1028.1573,return,0.3183,,80.33854167,,,,,,FBP-OG-17.png,0.43,1.2,4,1,,,,,,,,,,,,,,,,,,0,31,31,3,1,,,,,,,,,,,,,,,,,,,,,,,
,,,,,WIN24_015,19,female,2024-01-29_17h00.18.593,jersey_experiment_5,2023.2.2,Win32,83.33333333,,,,,,,,,,,,,,,,1028.1576,1029.4548,1029.4548,1030.887,return,0.1948,,43.61979167,,,,,,FBP-RB-91.png,0.35,1.2,26,0.5,,,,,,,,,,,,,,,,,,0,32,32,25,1,,,,,,,,,,,,,,,,,,,,,,,
,,,,,WIN24_015,19,female,2024-01-29_17h00.18.593,jersey_experiment_5,2023.2.2,Win32,83.33333333,,,,,,,,,,,,,,,,1030.8871,1032.1851,1032.1852,1034.3972,return,1.4485,,38.54166667,,,,,,FBP-RB-81.png,0.37,1.2,22,0.5,,,,,,,,,,,,,,,,,,0,33,33,21,1,,,,,,,,,,,,,,,,,,,,,,,
,,,,,WIN24_015,19,female,2024-01-29_17h00.18.593,jersey_experiment_5,2023.2.2,Win32,83.33333333,,,,,,,,,,,,,,,,1034.3973,1035.6912,1035.6912,1037.3268,return,0.2239,,32.8125,,,,,,FBP-YG-19.png,0.37,1.2,42,0.5,,,,,,,,,,,,,,,,,,0,34,34,41,1,,,,,,,,,,,,,,,,,,,,,,,
,,,,,WIN24_015,19,female,2024-01-29_17h00.18.593,jersey_experiment_5,2023.2.2,Win32,83.33333333,,,,,,,,,,,,,,,,1037.3269,1039.1263,1039.1263,1041.8324,return,2.0253,,42.70833333,,,,,,FBP-OG-17.png,0.4,1.2,3,1,,,,,,,,,,,,,,,,,,0,35,35,2,1,,,,,,,,,,,,,,,,,,,,,,,
,,,,,WIN24_015,19,female,2024-01-29_17h00.18.593,jersey_experiment_5,2023.2.2,Win32,83.33333333,,,,,,,,,,,,,,,,1041.8326,1043.1382,1043.1382,1044.7109,return,0.7125,,81.640625,,,,,,FBP-YG-18.png,0.45,1.2,40,0.5,,,,,,,,,,,,,,,,,,0,36,36,39,1,,,,,,,,,,,,,,,,,,,,,,,
,,,,,WIN24_015,19,female,2024-01-29_17h00.18.593,jersey_experiment_5,2023.2.2,Win32,83.33333333,,,,,,,,,,,,,,,,1044.7111,1046.009,1046.009,1047.1031,return,0.3734,,81.640625,,,,,,FBP-YG-18.png,0.4,1.2,38,0.5,,,,,,,,,,,,,,,,,,0,37,37,37,1,,,,,,,,,,,,,,,,,,,,,,,
,,,,,WIN24_015,19,female,2024-01-29_17h00.18.593,jersey_experiment_5,2023.2.2,Win32,83.33333333,,,,,,,,,,,,,,,,1047.1033,1048.9024,1048.9024,1049.7507,return,0.5515,,90.625,,,,,,FBP-PT-71.png,0.45,1.2,50,1,,,,,,,,,,,,,,,,,,0,38,38,49,1,,,,,,,,,,,,,,,,,,,,,,,
,,,,,WIN24_015,19,female,2024-01-29_17h00.18.593,jersey_experiment_5,2023.2.2,Win32,83.33333333,,,,,,,,,,,,,,,,1049.7508,1051.0447,1051.0447,1053.5112,return,1.7489,,87.23958333,,,,,,FBP-YG-17.png,0.45,1.2,35,0.5,,,,,,,,,,,,,,,,,,0,39,39,34,1,,,,,,,,,,,,,,,,,,,,,,,
,,,,,WIN24_015,19,female,2024-01-29_17h00.18.593,jersey_experiment_5,2023.2.2,Win32,83.33333333,,,,,,,,,,,,,,,,1053.5114,1054.8092,1054.8092,1055.7388,return,0.223,,84.50520833,,,,,,FBP-RB-91.png,0.43,1.2,29,0.5,,,,,,,,,,,,,,,,,,0,40,40,28,1,,,,,,,,,,,,,,,,,,,,,,,
,,,,,WIN24_015,19,female,2024-01-29_17h00.18.593,jersey_experiment_5,2023.2.2,Win32,83.33333333,,,,,,,,,,,,,,,,1055.7389,1057.541,1057.541,1058.351,return,0.3044,,87.109375,,,,,,FBP-OG-18.png,0.43,1.2,9,1,,,,,,,,,,,,,,,,,,0,41,41,8,1,,,,,,,,,,,,,,,,,,,,,,,
,,,,,WIN24_015,19,female,2024-01-29_17h00.18.593,jersey_experiment_5,2023.2.2,Win32,83.33333333,,,,,,,,,,,,,,,,1058.3511,1060.1528,1060.1528,1061.7037,return,0.7645,,33.46354167,,,,,,FBP-OG-19.png,0.35,1.2,11,1,,,,,,,,,,,,,,,,,,0,42,42,10,1,,,,,,,,,,,,,,,,,,,,,,,
,,,,,WIN24_015,19,female,2024-01-29_17h00.18.593,jersey_experiment_5,2023.2.2,Win32,83.33333333,,,,,,,,,,,,,,,,1061.7038,1063.502,1063.502,1064.8472,return,0.5906,,31.77083333,,,,,,FBP-OG-18.png,0.4,1.2,8,1,,,,,,,,,,,,,,,,,,0,43,43,7,1,,,,,,,,,,,,,,,,,,,,,,,
,,,,,WIN24_015,19,female,2024-01-29_17h00.18.593,jersey_experiment_5,2023.2.2,Win32,83.33333333,,,,,,,,,,,,,,,,1064.8474,1066.1392,1066.1392,1069.1,return,2.1524,,66.53645833,,,,,,FBP-YG-18.png,0.43,1.2,39,0.5,,,,,,,,,,,,,,,,,,0,44,44,38,1,,,,,,,,,,,,,,,,,,,,,,,
,,,,,WIN24_015,19,female,2024-01-29_17h00.18.593,jersey_experiment_5,2023.2.2,Win32,83.33333333,,,,,,,,,,,,,,,,1069.1002,1070.8927,1070.8927,1073.0295,return,0.5133,,32.16145833,,,,,,FBP-OG-18.png,0.35,1.2,6,1,,,,,,,,,,,,,,,,,,0,45,45,5,1,,,,,,,,,,,,,,,,,,,,,,,
,,,,,WIN24_015,19,female,2024-01-29_17h00.18.593,jersey_experiment_5,2023.2.2,Win32,83.33333333,,,,,,,,,,,,,,,,1073.0297,1074.822,1074.822,1077.9121,return,2.3815,,81.77083333,,,,,,FBP-OG-19.png,0.45,1.2,15,1,,,,,,,,,,,,,,,,,,0,46,46,14,1,,,,,,,,,,,,,,,,,,,,,,,
,,,,,WIN24_015,19,female,2024-01-29_17h00.18.593,jersey_experiment_5,2023.2.2,Win32,83.33333333,,,,,,,,,,,,,,,,1077.9124,1079.2065,1079.2065,1080.7068,return,0.273,,7.552083333,,,,,,FBP-RB-71.png,0.35,1.2,16,0.5,,,,,,,,,,,,,,,,,,0,47,47,15,1,,,,,,,,,,,,,,,,,,,,,,,
,,,,,WIN24_015,19,female,2024-01-29_17h00.18.593,jersey_experiment_5,2023.2.2,Win32,83.33333333,,,,,,,,,,,,,,,,1080.7069,1082.5044,1082.5044,1083.3772,return,0.2589,,30.46875,,,,,,FBP-PT-71.png,0.37,1.2,47,1,,,,,,,,,,,,,,,,,,0,48,48,46,1,,,,,,,,,,,,,,,,,,,,,,,
,,,,,WIN24_015,19,female,2024-01-29_17h00.18.593,jersey_experiment_5,2023.2.2,Win32,83.33333333,,,,,,,,,,,,,,,,1083.3774,1084.6812,1084.6812,1086.0596,return,0.402,,78.77604167,,,,,,FBP-RB-81.png,0.45,1.2,25,0.5,,,,,,,,,,,,,,,,,,0,49,49,24,1,,,,,,,,,,,,,,,,,,,,,,,
,,,,,WIN24_015,19,female,2024-01-29_17h00.18.593,jersey_experiment_5,2023.2.2,Win32,83.33333333,,,,,,,,,,,,,,,,1086.0597,1087.3595,1087.3595,1089.799,return,1.704,,55.59895833,,,,,,FBP-YG-17.png,0.4,1.2,33,0.5,,,,,,,,,,,,,,,,,,0,50,50,32,1,,,,,,,,,,,,,,,,,,,,,,,
,,,,,WIN24_015,19,female,2024-01-29_17h00.18.593,jersey_experiment_5,2023.2.2,Win32,83.33333333,,,,,,,,,,,,,,,,1089.7991,1091.1047,1091.1047,1092.4814,return,0.6122,,30.20833333,,,,,,FBP-RB-81.png,0.35,1.2,21,0.5,,,,,,,,,,,,,,,,,,0,51,51,20,1,,,,,,,,,,,,,,,,,,,,,,,
,,,,,WIN24_015,19,female,2024-01-29_17h00.18.593,jersey_experiment_5,2023.2.2,Win32,83.33333333,,,,,,,,,,,,,,,,1092.4816,1093.7755,1093.7755,1095.2481,return,0.3293,,85.546875,,,,,,FBP-YG-19.png,0.43,1.2,44,0.5,,,,,,,,,,,,,,,,,,0,52,52,43,1,,,,,,,,,,,,,,,,,,,,,,,
,,,,,WIN24_015,19,female,2024-01-29_17h00.18.593,jersey_experiment_5,2023.2.2,Win32,83.33333333,,,,,,,,,,,,,,,,1095.2482,1096.5404,1096.5404,1097.9172,return,0.3514,,51.953125,,,,,,FBP-YG-17.png,0.37,1.2,32,0.5,,,,,,,,,,,,,,,,,,0,53,53,31,1,,,,,,,,,,,,,,,,,,,,,,,
,,,,,WIN24_015,19,female,2024-01-29_17h00.18.593,jersey_experiment_5,2023.2.2,Win32,83.33333333,,,,,,,,,,,,,,,,1097.9173,1099.719,1099.719,1100.6776,return,0.2192,,73.046875,,,,,,FBP-OG-18.png,0.45,1.2,10,1,,,,,,,,,,,,,,,,,,0,54,54,9,1,,,,,,,,,,,,,,,,,,,,,,,
,,,,,WIN24_015,19,female,2024-01-29_17h00.18.593,jersey_experiment_5,2023.2.2,Win32,83.33333333,,,,,,,,,,,,,,,,1100.6778,1102.472,1102.472,1105.2936,return,1.0591,,64.19270833,,,,,,FBP-PT-81.png,0.37,1.2,52,1,,,,,,,,,,,,,,,,,,0,55,55,51,1,,,,,,,,,,,,,,,,,,,,,,,
,,,,,WIN24_015,19,female,2024-01-29_17h00.18.593,jersey_experiment_5,2023.2.2,Win32,83.33333333,,,,,,,,,,,,,,,,1105.2938,1107.0896,1107.0896,1109.4071,return,0.8256,,47.78645833,,,,,,FBP-OG-19.png,0.4,1.2,13,1,,,,,,,,,,,,,,,,,,0,56,56,12,1,,,,,,,,,,,,,,,,,,,,,,,
,,,,,WIN24_015,19,female,2024-01-29_17h00.18.593,jersey_experiment_5,2023.2.2,Win32,83.33333333,,,,,,,,,,,,,,,,1109.4073,1110.7014,1110.7014,1115.0191,return,0.5883,,43.48958333,,,,,,FBP-YG-19.png,0.35,1.2,41,0.5,,,,,,,,,,,,,,,,,,0,57,57,40,1,,,,,,,,,,,,,,,,,,,,,,,
,,,,,WIN24_015,19,female,2024-01-29_17h00.18.593,jersey_experiment_5,2023.2.2,Win32,83.33333333,,,,,,,,,,,,,,,,1115.0193,1116.8138,1116.8138,1117.8664,return,0.6495,,77.86458333,,,,,,FBP-PT-71.png,0.43,1.2,49,1,,,,,,,,,,,,,,,,,,0,58,58,48,1,,,,,,,,,,,,,,,,,,,,,,,
,,,,,WIN24_015,19,female,2024-01-29_17h00.18.593,jersey_experiment_5,2023.2.2,Win32,83.33333333,,,,,,,,,,,,,,,,1117.8666,1119.6592,1119.6592,1120.8078,return,0.3819,,45.44270833,,,,,,FBP-OG-18.png,0.37,1.2,7,1,,,,,,,,,,,,,,,,,,0,59,59,6,1,,,,,,,,,,,,,,,,,,,,,,,
,,,,,WIN24_015,19,female,2024-01-29_17h00.18.593,jersey_experiment_5,2023.2.2,Win32,83.33333333,,,,,,,,,,,,,,,,,,,,,,,,,,,,,,,,,,,,,,,,,,,,,,,,,,,,,,,,1120.8082,1126.377,return,5.5529,,,,,,,,,,,,,,,,,,,
,,,,,WIN24_015,19,female,2024-01-29_17h00.18.593,jersey_experiment_5,2023.2.2,Win32,83.33333333,,,,,,,,,,,,,,,,,,,,,,,,,,,,,,,,,,,,,,,,,,,,,,,,,,,,,,,,,,,,,1126.3771,1131.2551,1,4.2193,return,0.6411,,,,,,,,,,,,
,,,,,WIN24_015,19,female,2024-01-29_17h00.18.593,jersey_experiment_5,2023.2.2,Win32,83.33333333,,,,,,,,,,,,,,,,,,,,,,,,,,,,,,,,,,,,,,,,,,,,,,,,,,,,,,,,,,,,,,,,,,,,1131.2553,1242.3742,if people view a certain color as larger? I recognized that some of the players were the same size consecutively but had a different skin color or jersey color.,right,105.6376,,,,,,
,,,,,WIN24_015,19,female,2024-01-29_17h00.18.593,jersey_experiment_5,2023.2.2,Win32,83.33333333,,,,,,,,,,,,,,,,,,,,,,,,,,,,,,,,,,,,,,,,,,,,,,,,,,,,,,,,,,,,,,,,,,,,,,,,,,1242.3743,1245.3066,return,2.9202,