requirements.started,requirements.stopped,key_resp_3.keys,key_resp_3.rt,key_resp_3.duration,Subject ID,Age,Gender,date,expName,psychopyVersion,OS,frameRate,instructions1.started,instructions1.stopped,key_resp.keys,key_resp.rt,key_resp.duration,example.started,example.stopped,enter_2.keys,enter_2.rt,enter_2.duration,instructions2.started,instructions2.stopped,enter_3.keys,enter_3.rt,enter_3.duration,image.started,image.stopped,slider_2.started,slider_2.stopped,next.keys,next.rt,next.duration,slider.response,trial_block_1.thisRepN,trial_block_1.thisTrialN,trial_block_1.thisN,trial_block_1.thisIndex,trial_block_1.ran,Path,Width,Height,Index,Duration,trial_block_2.thisRepN,trial_block_2.thisTrialN,trial_block_2.thisN,trial_block_2.thisIndex,trial_block_2.ran,rest_break.started,rest_break.stopped,end_break.started,end_break.stopped,key_resp_5.keys,key_resp_5.rt,key_resp_5.duration,trial_block_3.thisRepN,trial_block_3.thisTrialN,trial_block_3.thisN,trial_block_3.thisIndex,trial_block_3.ran,trial_block_4.thisRepN,trial_block_4.thisTrialN,trial_block_4.thisN,trial_block_4.thisIndex,trial_block_4.ran,questions_intro.started,questions_intro.stopped,enter_12.keys,enter_12.rt,enter_12.duration,question2.started,question2.stopped,question_doingbest.response,question_doingbest.rt,enter_15.keys,enter_15.rt,enter_15.duration,pattern.started,pattern.stopped,pattern_2.text,enter_17.keys,enter_17.rt,enter_17.duration,thankyou.started,thankyou.stopped,enter_14.keys,enter_14.rt,enter_14.duration
0.0002,12.7889,return,12.7833,,WIN24_010,21,non-binary,2024-01-29_13h03.10.666,jersey_experiment_5,2023.2.2,Win32,85.47008547,,,,,,,,,,,,,,,,,,,,,,,,,,,,,,,,,,,,,,,,,,,,,,,,,,,,,,,,,,,,,,,,,,,,,,,,,,,,,,
,,,,,WIN24_010,21,non-binary,2024-01-29_13h03.10.666,jersey_experiment_5,2023.2.2,Win32,85.47008547,12.789,20.646,return,7.8456,,,,,,,,,,,,,,,,,,,,,,,,,,,,,,,,,,,,,,,,,,,,,,,,,,,,,,,,,,,,,,,,,,,,,,,,,,
,,,,,WIN24_010,21,non-binary,2024-01-29_13h03.10.666,jersey_experiment_5,2023.2.2,Win32,85.47008547,,,,,,20.6461,27.8934,return,7.215,,,,,,,,,,,,,,,,,,,,,,,,,,,,,,,,,,,,,,,,,,,,,,,,,,,,,,,,,,,,,,,,,,,,,
,,,,,WIN24_010,21,non-binary,2024-01-29_13h03.10.666,jersey_experiment_5,2023.2.2,Win32,85.47008547,,,,,,,,,,,27.8935,51.7648,return,23.8627,,,,,,,,,,,,,,,,,,,,,,,,,,,,,,,,,,,,,,,,,,,,,,,,,,,,,,,,,,,,,,,,
,,,,,WIN24_010,21,non-binary,2024-01-29_13h03.10.666,jersey_experiment_5,2023.2.2,Win32,85.47008547,,,,,,,,,,,,,,,,51.7718,53.0706,53.0707,83.9893,return,2.5569,,0,0,0,0,55,1,FBP-PT-19.png,0.35,1.2,56,0.5,,,,,,,,,,,,,,,,,,,,,,,,,,,,,,,,,,,,,,,,,,,,,
,,,,,WIN24_010,21,non-binary,2024-01-29_13h03.10.666,jersey_experiment_5,2023.2.2,Win32,85.47008547,,,,,,,,,,,,,,,,83.9896,85.2833,85.2834,90.2953,return,0.9075,,100,0,1,1,3,1,FBP-OG-71.png,0.43,1.2,4,0.5,,,,,,,,,,,,,,,,,,,,,,,,,,,,,,,,,,,,,,,,,,,,,
,,,,,WIN24_010,21,non-binary,2024-01-29_13h03.10.666,jersey_experiment_5,2023.2.2,Win32,85.47008547,,,,,,,,,,,,,,,,90.2956,92.0954,92.0955,96.2249,return,1.149,,64.32291667,0,2,2,36,1,FBP-YG-81.png,0.37,1.2,37,1,,,,,,,,,,,,,,,,,,,,,,,,,,,,,,,,,,,,,,,,,,,,,
,,,,,WIN24_010,21,non-binary,2024-01-29_13h03.10.666,jersey_experiment_5,2023.2.2,Win32,85.47008547,,,,,,,,,,,,,,,,96.2251,98.0248,98.0249,101.2839,return,0.8406,,49.86979167,0,3,3,20,1,FBP-RB-18.png,0.35,1.2,21,1,,,,,,,,,,,,,,,,,,,,,,,,,,,,,,,,,,,,,,,,,,,,,
,,,,,WIN24_010,21,non-binary,2024-01-29_13h03.10.666,jersey_experiment_5,2023.2.2,Win32,85.47008547,,,,,,,,,,,,,,,,101.2841,103.0838,103.0839,105.5311,return,1.7044,,49.73958333,0,4,4,15,1,FBP-RB-17.png,0.35,1.2,16,1,,,,,,,,,,,,,,,,,,,,,,,,,,,,,,,,,,,,,,,,,,,,,
,,,,,WIN24_010,21,non-binary,2024-01-29_13h03.10.666,jersey_experiment_5,2023.2.2,Win32,85.47008547,,,,,,,,,,,,,,,,105.5314,106.8253,106.8253,112.8374,return,4.8495,,66.27604167,0,5,5,11,1,FBP-OG-91.png,0.37,1.2,12,0.5,,,,,,,,,,,,,,,,,,,,,,,,,,,,,,,,,,,,,,,,,,,,,
,,,,,WIN24_010,21,non-binary,2024-01-29_13h03.10.666,jersey_experiment_5,2023.2.2,Win32,85.47008547,,,,,,,,,,,,,,,,112.8375,114.1316,114.1316,117.1433,return,0.7443,,99.73958333,0,6,6,47,1,FBP-PT-17.png,0.4,1.2,48,0.5,,,,,,,,,,,,,,,,,,,,,,,,,,,,,,,,,,,,,,,,,,,,,
,,,,,WIN24_010,21,non-binary,2024-01-29_13h03.10.666,jersey_experiment_5,2023.2.2,Win32,85.47008547,,,,,,,,,,,,,,,,117.1435,118.4374,118.4375,121.6728,return,0.8241,,25,0,7,7,45,1,FBP-PT-17.png,0.35,1.2,46,0.5,,,,,,,,,,,,,,,,,,,,,,,,,,,,,,,,,,,,,,,,,,,,,
,,,,,WIN24_010,21,non-binary,2024-01-29_13h03.10.666,jersey_experiment_5,2023.2.2,Win32,85.47008547,,,,,,,,,,,,,,,,121.673,122.9669,122.9669,125.7788,return,0.7944,,99.73958333,0,8,8,49,1,FBP-PT-17.png,0.45,1.2,50,0.5,,,,,,,,,,,,,,,,,,,,,,,,,,,,,,,,,,,,,,,,,,,,,
,,,,,WIN24_010,21,non-binary,2024-01-29_13h03.10.666,jersey_experiment_5,2023.2.2,Win32,85.47008547,,,,,,,,,,,,,,,,125.779,127.579,127.579,130.5791,return,0.969,,99.47916667,0,9,9,39,1,FBP-YG-81.png,0.45,1.2,40,1,,,,,,,,,,,,,,,,,,,,,,,,,,,,,,,,,,,,,,,,,,,,,
,,,,,WIN24_010,21,non-binary,2024-01-29_13h03.10.666,jersey_experiment_5,2023.2.2,Win32,85.47008547,,,,,,,,,,,,,,,,130.5793,132.3791,132.3792,134.532,return,0.8972,,99.34895833,0,10,10,33,1,FBP-YG-71.png,0.43,1.2,34,1,,,,,,,,,,,,,,,,,,,,,,,,,,,,,,,,,,,,,,,,,,,,,
,,,,,WIN24_010,21,non-binary,2024-01-29_13h03.10.666,jersey_experiment_5,2023.2.2,Win32,85.47008547,,,,,,,,,,,,,,,,134.5323,136.332,136.3321,138.3792,return,0.871,,90.88541667,0,11,11,28,1,FBP-RB-19.png,0.43,1.2,29,1,,,,,,,,,,,,,,,,,,,,,,,,,,,,,,,,,,,,,,,,,,,,,
,,,,,WIN24_010,21,non-binary,2024-01-29_13h03.10.666,jersey_experiment_5,2023.2.2,Win32,85.47008547,,,,,,,,,,,,,,,,138.3794,139.6734,139.6734,142.2971,return,0.9559,,99.34895833,0,12,12,9,1,FBP-OG-81.png,0.45,1.2,10,0.5,,,,,,,,,,,,,,,,,,,,,,,,,,,,,,,,,,,,,,,,,,,,,
,,,,,WIN24_010,21,non-binary,2024-01-29_13h03.10.666,jersey_experiment_5,2023.2.2,Win32,85.47008547,,,,,,,,,,,,,,,,142.2974,144.0972,144.0972,146.7443,return,1.011,,37.63020833,0,13,13,30,1,FBP-YG-71.png,0.35,1.2,31,1,,,,,,,,,,,,,,,,,,,,,,,,,,,,,,,,,,,,,,,,,,,,,
,,,,,WIN24_010,21,non-binary,2024-01-29_13h03.10.666,jersey_experiment_5,2023.2.2,Win32,85.47008547,,,,,,,,,,,,,,,,146.7446,148.5442,148.5442,151.9209,return,0.7493,,49.47916667,0,14,14,22,1,FBP-RB-18.png,0.4,1.2,23,1,,,,,,,,,,,,,,,,,,,,,,,,,,,,,,,,,,,,,,,,,,,,,
,,,,,WIN24_010,21,non-binary,2024-01-29_13h03.10.666,jersey_experiment_5,2023.2.2,Win32,85.47008547,,,,,,,,,,,,,,,,151.9212,153.2152,153.2152,156.8505,return,1.1459,,89.19270833,0,15,15,48,1,FBP-PT-17.png,0.43,1.2,49,0.5,,,,,,,,,,,,,,,,,,,,,,,,,,,,,,,,,,,,,,,,,,,,,
,,,,,WIN24_010,21,non-binary,2024-01-29_13h03.10.666,jersey_experiment_5,2023.2.2,Win32,85.47008547,,,,,,,,,,,,,,,,156.8507,158.6506,158.6506,161.7331,return,0.7323,,85.02604167,0,16,16,42,1,FBP-YG-91.png,0.4,1.2,43,1,,,,,,,,,,,,,,,,,,,,,,,,,,,,,,,,,,,,,,,,,,,,,
,,,,,WIN24_010,21,non-binary,2024-01-29_13h03.10.666,jersey_experiment_5,2023.2.2,Win32,85.47008547,,,,,,,,,,,,,,,,161.7333,163.0273,163.0273,165.4625,return,1.0234,,86.45833333,0,17,17,52,1,FBP-PT-18.png,0.4,1.2,53,0.5,,,,,,,,,,,,,,,,,,,,,,,,,,,,,,,,,,,,,,,,,,,,,
,,,,,WIN24_010,21,non-binary,2024-01-29_13h03.10.666,jersey_experiment_5,2023.2.2,Win32,85.47008547,,,,,,,,,,,,,,,,165.4627,167.2626,167.2627,172.9687,return,4.3163,,75.13020833,0,18,18,43,1,FBP-YG-91.png,0.43,1.2,44,1,,,,,,,,,,,,,,,,,,,,,,,,,,,,,,,,,,,,,,,,,,,,,
,,,,,WIN24_010,21,non-binary,2024-01-29_13h03.10.666,jersey_experiment_5,2023.2.2,Win32,85.47008547,,,,,,,,,,,,,,,,172.969,174.7688,174.7688,177.9924,return,0.7663,,0.260416667,0,19,19,35,1,FBP-YG-81.png,0.35,1.2,36,1,,,,,,,,,,,,,,,,,,,,,,,,,,,,,,,,,,,,,,,,,,,,,
,,,,,WIN24_010,21,non-binary,2024-01-29_13h03.10.666,jersey_experiment_5,2023.2.2,Win32,85.47008547,,,,,,,,,,,,,,,,177.9927,179.2866,179.2866,184.2751,return,1.5,,99.609375,0,20,20,13,1,FBP-OG-91.png,0.43,1.2,14,0.5,,,,,,,,,,,,,,,,,,,,,,,,,,,,,,,,,,,,,,,,,,,,,
,,,,,WIN24_010,21,non-binary,2024-01-29_13h03.10.666,jersey_experiment_5,2023.2.2,Win32,85.47008547,,,,,,,,,,,,,,,,184.2752,185.5694,185.5694,188.3928,return,0.8146,,0.260416667,0,21,21,50,1,FBP-PT-18.png,0.35,1.2,51,0.5,,,,,,,,,,,,,,,,,,,,,,,,,,,,,,,,,,,,,,,,,,,,,
,,,,,WIN24_010,21,non-binary,2024-01-29_13h03.10.666,jersey_experiment_5,2023.2.2,Win32,85.47008547,,,,,,,,,,,,,,,,188.3931,189.6872,189.6872,192.4165,return,0.7026,,75,0,22,22,12,1,FBP-OG-91.png,0.4,1.2,13,0.5,,,,,,,,,,,,,,,,,,,,,,,,,,,,,,,,,,,,,,,,,,,,,
,,,,,WIN24_010,21,non-binary,2024-01-29_13h03.10.666,jersey_experiment_5,2023.2.2,Win32,85.47008547,,,,,,,,,,,,,,,,192.4167,193.7106,193.7106,197.0755,return,0.757,,99.86979167,0,23,23,59,1,FBP-PT-19.png,0.45,1.2,60,0.5,,,,,,,,,,,,,,,,,,,,,,,,,,,,,,,,,,,,,,,,,,,,,
,,,,,WIN24_010,21,non-binary,2024-01-29_13h03.10.666,jersey_experiment_5,2023.2.2,Win32,85.47008547,,,,,,,,,,,,,,,,197.0758,198.8756,198.8756,200.4403,return,0.6601,,25,0,24,24,16,1,FBP-RB-17.png,0.37,1.2,17,1,,,,,,,,,,,,,,,,,,,,,,,,,,,,,,,,,,,,,,,,,,,,,
,,,,,WIN24_010,21,non-binary,2024-01-29_13h03.10.666,jersey_experiment_5,2023.2.2,Win32,85.47008547,,,,,,,,,,,,,,,,200.4406,201.7345,201.7345,203.5464,return,0.706,,25,0,25,25,6,1,FBP-OG-81.png,0.37,1.2,7,0.5,,,,,,,,,,,,,,,,,,,,,,,,,,,,,,,,,,,,,,,,,,,,,
,,,,,WIN24_010,21,non-binary,2024-01-29_13h03.10.666,jersey_experiment_5,2023.2.2,Win32,85.47008547,,,,,,,,,,,,,,,,203.5466,205.3463,205.3463,207.4289,return,0.6987,,9.505208333,0,26,26,40,1,FBP-YG-91.png,0.35,1.2,41,1,,,,,,,,,,,,,,,,,,,,,,,,,,,,,,,,,,,,,,,,,,,,,
,,,,,WIN24_010,21,non-binary,2024-01-29_13h03.10.666,jersey_experiment_5,2023.2.2,Win32,85.47008547,,,,,,,,,,,,,,,,207.4291,209.2288,209.2288,210.7701,return,0.8423,,9.765625,0,27,27,25,1,FBP-RB-19.png,0.35,1.2,26,1,,,,,,,,,,,,,,,,,,,,,,,,,,,,,,,,,,,,,,,,,,,,,
,,,,,WIN24_010,21,non-binary,2024-01-29_13h03.10.666,jersey_experiment_5,2023.2.2,Win32,85.47008547,,,,,,,,,,,,,,,,210.7704,212.5701,212.5701,215.0761,return,0.6847,,99.609375,0,28,28,34,1,FBP-YG-71.png,0.45,1.2,35,1,,,,,,,,,,,,,,,,,,,,,,,,,,,,,,,,,,,,,,,,,,,,,
,,,,,WIN24_010,21,non-binary,2024-01-29_13h03.10.666,jersey_experiment_5,2023.2.2,Win32,85.47008547,,,,,,,,,,,,,,,,215.0764,216.8761,216.8761,219.5586,return,0.7889,,60.9375,0,29,29,31,1,FBP-YG-71.png,0.37,1.2,32,1,,,,,,,,,,,,,,,,,,,,,,,,,,,,,,,,,,,,,,,,,,,,,
,,,,,WIN24_010,21,non-binary,2024-01-29_13h03.10.666,jersey_experiment_5,2023.2.2,Win32,85.47008547,,,,,,,,,,,,,,,,219.5589,220.8527,220.8528,223.5471,return,0.8243,,50.13020833,0,30,30,46,1,FBP-PT-17.png,0.37,1.2,47,0.5,,,,,,,,,,,,,,,,,,,,,,,,,,,,,,,,,,,,,,,,,,,,,
,,,,,WIN24_010,21,non-binary,2024-01-29_13h03.10.666,jersey_experiment_5,2023.2.2,Win32,85.47008547,,,,,,,,,,,,,,,,223.5472,225.347,225.347,227.712,return,0.7971,,74.47916667,0,31,31,17,1,FBP-RB-17.png,0.4,1.2,18,1,,,,,,,,,,,,,,,,,,,,,,,,,,,,,,,,,,,,,,,,,,,,,
,,,,,WIN24_010,21,non-binary,2024-01-29_13h03.10.666,jersey_experiment_5,2023.2.2,Win32,85.47008547,,,,,,,,,,,,,,,,227.7121,229.512,229.512,231.512,return,0.7538,,75.13020833,0,32,32,21,1,FBP-RB-18.png,0.37,1.2,22,1,,,,,,,,,,,,,,,,,,,,,,,,,,,,,,,,,,,,,,,,,,,,,
,,,,,WIN24_010,21,non-binary,2024-01-29_13h03.10.666,jersey_experiment_5,2023.2.2,Win32,85.47008547,,,,,,,,,,,,,,,,231.5122,233.3121,233.3121,236.0062,return,0.9072,,75.13020833,0,33,33,41,1,FBP-YG-91.png,0.37,1.2,42,1,,,,,,,,,,,,,,,,,,,,,,,,,,,,,,,,,,,,,,,,,,,,,
,,,,,WIN24_010,21,non-binary,2024-01-29_13h03.10.666,jersey_experiment_5,2023.2.2,Win32,85.47008547,,,,,,,,,,,,,,,,236.0063,237.3003,237.3003,239.9593,return,0.6707,,75.390625,0,34,34,57,1,FBP-PT-19.png,0.4,1.2,58,0.5,,,,,,,,,,,,,,,,,,,,,,,,,,,,,,,,,,,,,,,,,,,,,
,,,,,WIN24_010,21,non-binary,2024-01-29_13h03.10.666,jersey_experiment_5,2023.2.2,Win32,85.47008547,,,,,,,,,,,,,,,,239.9596,241.7594,241.7594,245.6067,return,0.6846,,99.609375,0,35,35,44,1,FBP-YG-91.png,0.45,1.2,45,1,,,,,,,,,,,,,,,,,,,,,,,,,,,,,,,,,,,,,,,,,,,,,
,,,,,WIN24_010,21,non-binary,2024-01-29_13h03.10.666,jersey_experiment_5,2023.2.2,Win32,85.47008547,,,,,,,,,,,,,,,,245.6068,247.4067,247.4067,250.4422,return,0.706,,49.21875,0,36,36,26,1,FBP-RB-19.png,0.37,1.2,27,1,,,,,,,,,,,,,,,,,,,,,,,,,,,,,,,,,,,,,,,,,,,,,
,,,,,WIN24_010,21,non-binary,2024-01-29_13h03.10.666,jersey_experiment_5,2023.2.2,Win32,85.47008547,,,,,,,,,,,,,,,,250.4423,251.7363,251.7363,254.6775,return,0.7208,,99.47916667,0,37,37,14,1,FBP-OG-91.png,0.45,1.2,15,0.5,,,,,,,,,,,,,,,,,,,,,,,,,,,,,,,,,,,,,,,,,,,,,
,,,,,WIN24_010,21,non-binary,2024-01-29_13h03.10.666,jersey_experiment_5,2023.2.2,Win32,85.47008547,,,,,,,,,,,,,,,,254.6777,255.9718,255.9718,257.6189,return,0.6862,,99.73958333,0,38,38,4,1,FBP-OG-71.png,0.45,1.2,5,0.5,,,,,,,,,,,,,,,,,,,,,,,,,,,,,,,,,,,,,,,,,,,,,
,,,,,WIN24_010,21,non-binary,2024-01-29_13h03.10.666,jersey_experiment_5,2023.2.2,Win32,85.47008547,,,,,,,,,,,,,,,,257.619,259.4188,259.4189,260.8424,return,0.7677,,99.609375,0,39,39,29,1,FBP-RB-19.png,0.45,1.2,30,1,,,,,,,,,,,,,,,,,,,,,,,,,,,,,,,,,,,,,,,,,,,,,
,,,,,WIN24_010,21,non-binary,2024-01-29_13h03.10.666,jersey_experiment_5,2023.2.2,Win32,85.47008547,,,,,,,,,,,,,,,,260.8426,262.6425,262.6425,264.9132,return,0.8665,,74.73958333,0,40,40,37,1,FBP-YG-81.png,0.4,1.2,38,1,,,,,,,,,,,,,,,,,,,,,,,,,,,,,,,,,,,,,,,,,,,,,
,,,,,WIN24_010,21,non-binary,2024-01-29_13h03.10.666,jersey_experiment_5,2023.2.2,Win32,85.47008547,,,,,,,,,,,,,,,,264.9134,266.7133,266.7133,269.8662,return,1.2577,,83.72395833,0,41,41,18,1,FBP-RB-17.png,0.43,1.2,19,1,,,,,,,,,,,,,,,,,,,,,,,,,,,,,,,,,,,,,,,,,,,,,
,,,,,WIN24_010,21,non-binary,2024-01-29_13h03.10.666,jersey_experiment_5,2023.2.2,Win32,85.47008547,,,,,,,,,,,,,,,,269.8664,271.1605,271.1605,273.737,return,0.7899,,85.28645833,0,42,42,7,1,FBP-OG-81.png,0.4,1.2,8,0.5,,,,,,,,,,,,,,,,,,,,,,,,,,,,,,,,,,,,,,,,,,,,,
,,,,,WIN24_010,21,non-binary,2024-01-29_13h03.10.666,jersey_experiment_5,2023.2.2,Win32,85.47008547,,,,,,,,,,,,,,,,273.7373,275.537,275.537,279.6431,return,3.2383,,99.609375,0,43,43,24,1,FBP-RB-18.png,0.45,1.2,25,1,,,,,,,,,,,,,,,,,,,,,,,,,,,,,,,,,,,,,,,,,,,,,
,,,,,WIN24_010,21,non-binary,2024-01-29_13h03.10.666,jersey_experiment_5,2023.2.2,Win32,85.47008547,,,,,,,,,,,,,,,,279.6434,281.4431,281.4431,283.7021,return,0.7793,,66.015625,0,44,44,27,1,FBP-RB-19.png,0.4,1.2,28,1,,,,,,,,,,,,,,,,,,,,,,,,,,,,,,,,,,,,,,,,,,,,,
,,,,,WIN24_010,21,non-binary,2024-01-29_13h03.10.666,jersey_experiment_5,2023.2.2,Win32,85.47008547,,,,,,,,,,,,,,,,283.7024,284.9962,284.9962,287.314,return,0.8659,,75.13020833,0,45,45,8,1,FBP-OG-81.png,0.43,1.2,9,0.5,,,,,,,,,,,,,,,,,,,,,,,,,,,,,,,,,,,,,,,,,,,,,
,,,,,WIN24_010,21,non-binary,2024-01-29_13h03.10.666,jersey_experiment_5,2023.2.2,Win32,85.47008547,,,,,,,,,,,,,,,,287.3142,288.6082,288.6082,291.4081,return,0.7367,,50,0,46,46,2,1,FBP-OG-71.png,0.4,1.2,3,0.5,,,,,,,,,,,,,,,,,,,,,,,,,,,,,,,,,,,,,,,,,,,,,
,,,,,WIN24_010,21,non-binary,2024-01-29_13h03.10.666,jersey_experiment_5,2023.2.2,Win32,85.47008547,,,,,,,,,,,,,,,,291.4084,292.7024,292.7024,296.1967,return,0.6725,,84.765625,0,47,47,54,1,FBP-PT-18.png,0.45,1.2,55,0.5,,,,,,,,,,,,,,,,,,,,,,,,,,,,,,,,,,,,,,,,,,,,,
,,,,,WIN24_010,21,non-binary,2024-01-29_13h03.10.666,jersey_experiment_5,2023.2.2,Win32,85.47008547,,,,,,,,,,,,,,,,296.1969,297.4908,297.4908,300.4557,return,0.754,,0.390625,0,48,48,5,1,FBP-OG-81.png,0.35,1.2,6,0.5,,,,,,,,,,,,,,,,,,,,,,,,,,,,,,,,,,,,,,,,,,,,,
,,,,,WIN24_010,21,non-binary,2024-01-29_13h03.10.666,jersey_experiment_5,2023.2.2,Win32,85.47008547,,,,,,,,,,,,,,,,300.4559,302.2557,302.2557,304.691,return,0.7217,,24.34895833,0,49,49,32,1,FBP-YG-71.png,0.4,1.2,33,1,,,,,,,,,,,,,,,,,,,,,,,,,,,,,,,,,,,,,,,,,,,,,
,,,,,WIN24_010,21,non-binary,2024-01-29_13h03.10.666,jersey_experiment_5,2023.2.2,Win32,85.47008547,,,,,,,,,,,,,,,,304.6912,305.9852,305.9852,313.162,return,4.1887,,6.901041667,0,50,50,10,1,FBP-OG-91.png,0.35,1.2,11,0.5,,,,,,,,,,,,,,,,,,,,,,,,,,,,,,,,,,,,,,,,,,,,,
,,,,,WIN24_010,21,non-binary,2024-01-29_13h03.10.666,jersey_experiment_5,2023.2.2,Win32,85.47008547,,,,,,,,,,,,,,,,313.1621,314.4561,314.4561,317.621,return,0.8027,,0.390625,0,51,51,0,1,FBP-OG-71.png,0.35,1.2,1,0.5,,,,,,,,,,,,,,,,,,,,,,,,,,,,,,,,,,,,,,,,,,,,,
,,,,,WIN24_010,21,non-binary,2024-01-29_13h03.10.666,jersey_experiment_5,2023.2.2,Win32,85.47008547,,,,,,,,,,,,,,,,317.6212,318.9152,318.9152,320.9622,return,0.9455,,11.58854167,0,52,52,56,1,FBP-PT-19.png,0.37,1.2,57,0.5,,,,,,,,,,,,,,,,,,,,,,,,,,,,,,,,,,,,,,,,,,,,,
,,,,,WIN24_010,21,non-binary,2024-01-29_13h03.10.666,jersey_experiment_5,2023.2.2,Win32,85.47008547,,,,,,,,,,,,,,,,320.9625,322.2566,322.2566,326.0799,return,0.7017,,57.55208333,0,53,53,53,1,FBP-PT-18.png,0.43,1.2,54,0.5,,,,,,,,,,,,,,,,,,,,,,,,,,,,,,,,,,,,,,,,,,,,,
,,,,,WIN24_010,21,non-binary,2024-01-29_13h03.10.666,jersey_experiment_5,2023.2.2,Win32,85.47008547,,,,,,,,,,,,,,,,326.0801,327.8804,327.8805,330.3037,return,0.7119,,99.21875,0,54,54,19,1,FBP-RB-17.png,0.45,1.2,20,1,,,,,,,,,,,,,,,,,,,,,,,,,,,,,,,,,,,,,,,,,,,,,
,,,,,WIN24_010,21,non-binary,2024-01-29_13h03.10.666,jersey_experiment_5,2023.2.2,Win32,85.47008547,,,,,,,,,,,,,,,,330.304,331.5981,331.5982,333.9745,return,0.7521,,24.73958333,0,55,55,1,1,FBP-OG-71.png,0.37,1.2,2,0.5,,,,,,,,,,,,,,,,,,,,,,,,,,,,,,,,,,,,,,,,,,,,,
,,,,,WIN24_010,21,non-binary,2024-01-29_13h03.10.666,jersey_experiment_5,2023.2.2,Win32,85.47008547,,,,,,,,,,,,,,,,333.9748,335.7746,335.7746,338.8688,return,0.7217,,74.73958333,0,56,56,23,1,FBP-RB-18.png,0.43,1.2,24,1,,,,,,,,,,,,,,,,,,,,,,,,,,,,,,,,,,,,,,,,,,,,,
,,,,,WIN24_010,21,non-binary,2024-01-29_13h03.10.666,jersey_experiment_5,2023.2.2,Win32,85.47008547,,,,,,,,,,,,,,,,338.869,340.6688,340.6688,343.0806,return,0.7073,,75.390625,0,57,57,38,1,FBP-YG-81.png,0.43,1.2,39,1,,,,,,,,,,,,,,,,,,,,,,,,,,,,,,,,,,,,,,,,,,,,,
,,,,,WIN24_010,21,non-binary,2024-01-29_13h03.10.666,jersey_experiment_5,2023.2.2,Win32,85.47008547,,,,,,,,,,,,,,,,343.0808,344.3749,344.3749,346.5983,return,1,,75.390625,0,58,58,58,1,FBP-PT-19.png,0.43,1.2,59,0.5,,,,,,,,,,,,,,,,,,,,,,,,,,,,,,,,,,,,,,,,,,,,,
,,,,,WIN24_010,21,non-binary,2024-01-29_13h03.10.666,jersey_experiment_5,2023.2.2,Win32,85.47008547,,,,,,,,,,,,,,,,346.5985,347.8925,347.8925,350.6574,return,0.7485,,25.26041667,0,59,59,51,1,FBP-PT-18.png,0.37,1.2,52,0.5,,,,,,,,,,,,,,,,,,,,,,,,,,,,,,,,,,,,,,,,,,,,,
,,,,,WIN24_010,21,non-binary,2024-01-29_13h03.10.666,jersey_experiment_5,2023.2.2,Win32,85.47008547,,,,,,,,,,,,,,,,350.6595,352.4576,352.4576,354.7633,return,0.6678,,99.47916667,,,,,,FBP-RB-91.png,0.43,1.2,29,1,0,0,0,28,1,,,,,,,,,,,,,,,,,,,,,,,,,,,,,,,,,,,,,,,,
,,,,,WIN24_010,21,non-binary,2024-01-29_13h03.10.666,jersey_experiment_5,2023.2.2,Win32,85.47008547,,,,,,,,,,,,,,,,354.7638,356.0576,356.0576,358.9047,return,0.8001,,25.13020833,,,,,,FBP-OG-19.png,0.37,1.2,12,0.5,0,1,1,11,1,,,,,,,,,,,,,,,,,,,,,,,,,,,,,,,,,,,,,,,,
,,,,,WIN24_010,21,non-binary,2024-01-29_13h03.10.666,jersey_experiment_5,2023.2.2,Win32,85.47008547,,,,,,,,,,,,,,,,358.905,360.1989,360.1989,363.6108,return,0.7162,,59.11458333,,,,,,FBP-PT-81.png,0.4,1.2,53,0.5,0,2,2,52,1,,,,,,,,,,,,,,,,,,,,,,,,,,,,,,,,,,,,,,,,
,,,,,WIN24_010,21,non-binary,2024-01-29_13h03.10.666,jersey_experiment_5,2023.2.2,Win32,85.47008547,,,,,,,,,,,,,,,,363.611,364.905,364.905,367.6816,return,0.6999,,80.859375,,,,,,FBP-OG-17.png,0.43,1.2,4,0.5,0,3,3,3,1,,,,,,,,,,,,,,,,,,,,,,,,,,,,,,,,,,,,,,,,
,,,,,WIN24_010,21,non-binary,2024-01-29_13h03.10.666,jersey_experiment_5,2023.2.2,Win32,85.47008547,,,,,,,,,,,,,,,,367.6818,369.4819,369.4819,371.0347,return,0.801,,85.67708333,,,,,,FBP-RB-71.png,0.43,1.2,19,1,0,4,4,18,1,,,,,,,,,,,,,,,,,,,,,,,,,,,,,,,,,,,,,,,,
,,,,,WIN24_010,21,non-binary,2024-01-29_13h03.10.666,jersey_experiment_5,2023.2.2,Win32,85.47008547,,,,,,,,,,,,,,,,371.0349,372.3291,372.3291,375.1759,return,1.5298,,74.86979167,,,,,,FBP-PT-71.png,0.4,1.2,48,0.5,0,5,5,47,1,,,,,,,,,,,,,,,,,,,,,,,,,,,,,,,,,,,,,,,,
,,,,,WIN24_010,21,non-binary,2024-01-29_13h03.10.666,jersey_experiment_5,2023.2.2,Win32,85.47008547,,,,,,,,,,,,,,,,375.1761,376.9761,376.9761,380.6466,return,0.7552,,8.072916667,,,,,,FBP-RB-71.png,0.37,1.2,17,1,0,6,6,16,1,,,,,,,,,,,,,,,,,,,,,,,,,,,,,,,,,,,,,,,,
,,,,,WIN24_010,21,non-binary,2024-01-29_13h03.10.666,jersey_experiment_5,2023.2.2,Win32,85.47008547,,,,,,,,,,,,,,,,380.6468,382.4467,382.4468,385.2351,return,0.7587,,25,,,,,,FBP-YG-19.png,0.37,1.2,42,1,0,7,7,41,1,,,,,,,,,,,,,,,,,,,,,,,,,,,,,,,,,,,,,,,,
,,,,,WIN24_010,21,non-binary,2024-01-29_13h03.10.666,jersey_experiment_5,2023.2.2,Win32,85.47008547,,,,,,,,,,,,,,,,385.2353,386.5292,386.5292,389.7178,return,0.8147,,86.45833333,,,,,,FBP-PT-81.png,0.45,1.2,55,0.5,0,8,8,54,1,,,,,,,,,,,,,,,,,,,,,,,,,,,,,,,,,,,,,,,,
,,,,,WIN24_010,21,non-binary,2024-01-29_13h03.10.666,jersey_experiment_5,2023.2.2,Win32,85.47008547,,,,,,,,,,,,,,,,389.7179,391.0119,391.0119,393.306,return,0.7394,,99.73958333,,,,,,FBP-OG-19.png,0.45,1.2,15,0.5,0,9,9,14,1,,,,,,,,,,,,,,,,,,,,,,,,,,,,,,,,,,,,,,,,
,,,,,WIN24_010,21,non-binary,2024-01-29_13h03.10.666,jersey_experiment_5,2023.2.2,Win32,85.47008547,,,,,,,,,,,,,,,,393.3061,395.1062,395.1062,399.2826,return,1.7473,,75.13020833,,,,,,FBP-RB-81.png,0.4,1.2,23,1,0,10,10,22,1,,,,,,,,,,,,,,,,,,,,,,,,,,,,,,,,,,,,,,,,
,,,,,WIN24_010,21,non-binary,2024-01-29_13h03.10.666,jersey_experiment_5,2023.2.2,Win32,85.47008547,,,,,,,,,,,,,,,,399.2828,400.577,400.577,402.5535,return,0.8337,,25.52083333,,,,,,FBP-PT-71.png,0.37,1.2,47,0.5,0,11,11,46,1,,,,,,,,,,,,,,,,,,,,,,,,,,,,,,,,,,,,,,,,
,,,,,WIN24_010,21,non-binary,2024-01-29_13h03.10.666,jersey_experiment_5,2023.2.2,Win32,85.47008547,,,,,,,,,,,,,,,,402.5537,403.8475,403.8475,406.9536,return,0.858,,0.520833333,,,,,,FBP-OG-18.png,0.37,1.2,7,0.5,0,12,12,6,1,,,,,,,,,,,,,,,,,,,,,,,,,,,,,,,,,,,,,,,,
,,,,,WIN24_010,21,non-binary,2024-01-29_13h03.10.666,jersey_experiment_5,2023.2.2,Win32,85.47008547,,,,,,,,,,,,,,,,406.9538,408.7539,408.7539,421.2011,return,1.9961,,0,,,,,,FBP-RB-91.png,0.35,1.2,26,1,0,13,13,25,1,,,,,,,,,,,,,,,,,,,,,,,,,,,,,,,,,,,,,,,,
,,,,,WIN24_010,21,non-binary,2024-01-29_13h03.10.666,jersey_experiment_5,2023.2.2,Win32,85.47008547,,,,,,,,,,,,,,,,421.2014,423.0013,423.0014,427.0954,return,3.2012,,25.78125,,,,,,FBP-YG-19.png,0.35,1.2,41,1,0,14,14,40,1,,,,,,,,,,,,,,,,,,,,,,,,,,,,,,,,,,,,,,,,
,,,,,WIN24_010,21,non-binary,2024-01-29_13h03.10.666,jersey_experiment_5,2023.2.2,Win32,85.47008547,,,,,,,,,,,,,,,,427.0956,428.3897,428.3897,431.7662,return,0.7438,,62.36979167,,,,,,FBP-OG-19.png,0.4,1.2,13,0.5,0,15,15,12,1,,,,,,,,,,,,,,,,,,,,,,,,,,,,,,,,,,,,,,,,
,,,,,WIN24_010,21,non-binary,2024-01-29_13h03.10.666,jersey_experiment_5,2023.2.2,Win32,85.47008547,,,,,,,,,,,,,,,,431.7665,433.5664,433.5664,435.9076,return,0.7317,,77.734375,,,,,,FBP-RB-91.png,0.4,1.2,28,1,0,16,16,27,1,,,,,,,,,,,,,,,,,,,,,,,,,,,,,,,,,,,,,,,,
,,,,,WIN24_010,21,non-binary,2024-01-29_13h03.10.666,jersey_experiment_5,2023.2.2,Win32,85.47008547,,,,,,,,,,,,,,,,435.9079,437.7076,437.7077,439.2371,return,0.7564,,99.73958333,,,,,,FBP-YG-19.png,0.43,1.2,44,1,0,17,17,43,1,,,,,,,,,,,,,,,,,,,,,,,,,,,,,,,,,,,,,,,,
,,,,,WIN24_010,21,non-binary,2024-01-29_13h03.10.666,jersey_experiment_5,2023.2.2,Win32,85.47008547,,,,,,,,,,,,,,,,439.2372,440.5312,440.5312,442.7313,return,0.6815,,7.8125,,,,,,FBP-PT-81.png,0.35,1.2,51,0.5,0,18,18,50,1,,,,,,,,,,,,,,,,,,,,,,,,,,,,,,,,,,,,,,,,
,,,,,WIN24_010,21,non-binary,2024-01-29_13h03.10.666,jersey_experiment_5,2023.2.2,Win32,85.47008547,,,,,,,,,,,,,,,,442.7316,444.0255,444.0255,446.6726,return,0.9963,,0.260416667,,,,,,FBP-OG-18.png,0.35,1.2,6,0.5,0,19,19,5,1,,,,,,,,,,,,,,,,,,,,,,,,,,,,,,,,,,,,,,,,
,,,,,WIN24_010,21,non-binary,2024-01-29_13h03.10.666,jersey_experiment_5,2023.2.2,Win32,85.47008547,,,,,,,,,,,,,,,,446.6729,447.9667,447.9667,450.4962,return,0.8673,,99.86979167,,,,,,FBP-OG-18.png,0.45,1.2,10,0.5,0,20,20,9,1,,,,,,,,,,,,,,,,,,,,,,,,,,,,,,,,,,,,,,,,
,,,,,WIN24_010,21,non-binary,2024-01-29_13h03.10.666,jersey_experiment_5,2023.2.2,Win32,85.47008547,,,,,,,,,,,,,,,,450.4965,452.2963,452.2963,454.8376,return,0.8971,,99.34895833,,,,,,FBP-YG-19.png,0.45,1.2,45,1,0,21,21,44,1,,,,,,,,,,,,,,,,,,,,,,,,,,,,,,,,,,,,,,,,
,,,,,WIN24_010,21,non-binary,2024-01-29_13h03.10.666,jersey_experiment_5,2023.2.2,Win32,85.47008547,,,,,,,,,,,,,,,,454.8378,456.6377,456.6377,459.3438,return,1.9739,,98.30729167,,,,,,FBP-YG-18.png,0.43,1.2,39,1,0,22,22,38,1,,,,,,,,,,,,,,,,,,,,,,,,,,,,,,,,,,,,,,,,
,,,,,WIN24_010,21,non-binary,2024-01-29_13h03.10.666,jersey_experiment_5,2023.2.2,Win32,85.47008547,,,,,,,,,,,,,,,,459.344,460.6381,460.6382,463.7321,return,0.6733,,75,,,,,,FBP-PT-71.png,0.45,1.2,50,0.5,0,23,23,49,1,,,,,,,,,,,,,,,,,,,,,,,,,,,,,,,,,,,,,,,,
,,,,,WIN24_010,21,non-binary,2024-01-29_13h03.10.666,jersey_experiment_5,2023.2.2,Win32,85.47008547,,,,,,,,,,,,,,,,463.7323,465.5321,465.5322,468.1439,return,0.8672,,99.609375,,,,,,FBP-RB-71.png,0.45,1.2,20,1,0,24,24,19,1,,,,,,,,,,,,,,,,,,,,,,,,,,,,,,,,,,,,,,,,
,,,,,WIN24_010,21,non-binary,2024-01-29_13h03.10.666,jersey_experiment_5,2023.2.2,Win32,85.47008547,,,,,,,,,,,,,,,,468.1442,469.944,469.944,472.7207,return,0.7468,,63.41145833,,,,,,FBP-YG-18.png,0.4,1.2,38,1,0,25,25,37,1,,,,,,,,,,,,,,,,,,,,,,,,,,,,,,,,,,,,,,,,
,,,,,WIN24_010,21,non-binary,2024-01-29_13h03.10.666,jersey_experiment_5,2023.2.2,Win32,85.47008547,,,,,,,,,,,,,,,,472.7209,474.0148,474.0148,475.9678,return,0.8325,,25.26041667,,,,,,FBP-PT-91.png,0.37,1.2,57,0.5,0,26,26,56,1,,,,,,,,,,,,,,,,,,,,,,,,,,,,,,,,,,,,,,,,
,,,,,WIN24_010,21,non-binary,2024-01-29_13h03.10.666,jersey_experiment_5,2023.2.2,Win32,85.47008547,,,,,,,,,,,,,,,,475.968,477.7681,477.7681,480.4386,return,0.9521,,25.26041667,,,,,,FBP-RB-91.png,0.37,1.2,27,1,0,27,27,26,1,,,,,,,,,,,,,,,,,,,,,,,,,,,,,,,,,,,,,,,,
,,,,,WIN24_010,21,non-binary,2024-01-29_13h03.10.666,jersey_experiment_5,2023.2.2,Win32,85.47008547,,,,,,,,,,,,,,,,480.4388,481.7327,481.7327,483.7327,return,0.7801,,25.390625,,,,,,FBP-OG-17.png,0.37,1.2,2,0.5,0,28,28,1,1,,,,,,,,,,,,,,,,,,,,,,,,,,,,,,,,,,,,,,,,
,,,,,WIN24_010,21,non-binary,2024-01-29_13h03.10.666,jersey_experiment_5,2023.2.2,Win32,85.47008547,,,,,,,,,,,,,,,,483.7329,485.027,485.027,488.0388,return,0.74,,50,,,,,,FBP-OG-17.png,0.4,1.2,3,0.5,0,29,29,2,1,,,,,,,,,,,,,,,,,,,,,,,,,,,,,,,,,,,,,,,,
,,,,,WIN24_010,21,non-binary,2024-01-29_13h03.10.666,jersey_experiment_5,2023.2.2,Win32,85.47008547,,,,,,,,,,,,,,,,488.039,489.8389,489.8389,491.4742,return,0.674,,50.13020833,,,,,,FBP-RB-81.png,0.37,1.2,22,1,0,30,30,21,1,,,,,,,,,,,,,,,,,,,,,,,,,,,,,,,,,,,,,,,,
,,,,,WIN24_010,21,non-binary,2024-01-29_13h03.10.666,jersey_experiment_5,2023.2.2,Win32,85.47008547,,,,,,,,,,,,,,,,491.4745,493.2744,493.2744,494.545,return,0.7253,,50.13020833,,,,,,FBP-YG-18.png,0.35,1.2,36,1,0,31,31,35,1,,,,,,,,,,,,,,,,,,,,,,,,,,,,,,,,,,,,,,,,
,,,,,WIN24_010,21,non-binary,2024-01-29_13h03.10.666,jersey_experiment_5,2023.2.2,Win32,85.47008547,,,,,,,,,,,,,,,,494.5453,496.3449,496.3449,497.7686,return,0.801,,50.13020833,,,,,,FBP-YG-19.png,0.4,1.2,43,1,0,32,32,42,1,,,,,,,,,,,,,,,,,,,,,,,,,,,,,,,,,,,,,,,,
,,,,,WIN24_010,21,non-binary,2024-01-29_13h03.10.666,jersey_experiment_5,2023.2.2,Win32,85.47008547,,,,,,,,,,,,,,,,497.7689,499.5688,499.5688,501.6745,return,0.7437,,75,,,,,,FBP-YG-17.png,0.45,1.2,35,1,0,33,33,34,1,,,,,,,,,,,,,,,,,,,,,,,,,,,,,,,,,,,,,,,,
,,,,,WIN24_010,21,non-binary,2024-01-29_13h03.10.666,jersey_experiment_5,2023.2.2,Win32,85.47008547,,,,,,,,,,,,,,,,501.6748,502.9687,502.9688,505.2865,return,1.0375,,99.73958333,,,,,,FBP-OG-17.png,0.45,1.2,5,0.5,0,34,34,4,1,,,,,,,,,,,,,,,,,,,,,,,,,,,,,,,,,,,,,,,,
,,,,,WIN24_010,21,non-binary,2024-01-29_13h03.10.666,jersey_experiment_5,2023.2.2,Win32,85.47008547,,,,,,,,,,,,,,,,505.2866,506.5806,506.5806,508.9336,return,0.883,,99.86979167,,,,,,FBP-PT-71.png,0.43,1.2,49,0.5,0,35,35,48,1,,,,,,,,,,,,,,,,,,,,,,,,,,,,,,,,,,,,,,,,
,,,,,WIN24_010,21,non-binary,2024-01-29_13h03.10.666,jersey_experiment_5,2023.2.2,Win32,85.47008547,,,,,,,,,,,,,,,,508.9339,510.2278,510.2279,513.6397,return,0.8336,,9.765625,,,,,,FBP-PT-71.png,0.35,1.2,46,0.5,0,36,36,45,1,,,,,,,,,,,,,,,,,,,,,,,,,,,,,,,,,,,,,,,,
,,,,,WIN24_010,21,non-binary,2024-01-29_13h03.10.666,jersey_experiment_5,2023.2.2,Win32,85.47008547,,,,,,,,,,,,,,,,513.6399,515.44,515.44,517.8397,return,0.8776,,80.59895833,,,,,,FBP-RB-81.png,0.43,1.2,24,1,0,37,37,23,1,,,,,,,,,,,,,,,,,,,,,,,,,,,,,,,,,,,,,,,,
,,,,,WIN24_010,21,non-binary,2024-01-29_13h03.10.666,jersey_experiment_5,2023.2.2,Win32,85.47008547,,,,,,,,,,,,,,,,517.84,519.6401,519.6401,521.393,return,0.8056,,24.86979167,,,,,,FBP-YG-17.png,0.35,1.2,31,1,0,38,38,30,1,,,,,,,,,,,,,,,,,,,,,,,,,,,,,,,,,,,,,,,,
,,,,,WIN24_010,21,non-binary,2024-01-29_13h03.10.666,jersey_experiment_5,2023.2.2,Win32,85.47008547,,,,,,,,,,,,,,,,521.3932,523.1932,523.1932,525.5579,return,0.7441,,99.73958333,,,,,,FBP-RB-81.png,0.45,1.2,25,1,0,39,39,24,1,,,,,,,,,,,,,,,,,,,,,,,,,,,,,,,,,,,,,,,,
,,,,,WIN24_010,21,non-binary,2024-01-29_13h03.10.666,jersey_experiment_5,2023.2.2,Win32,85.47008547,,,,,,,,,,,,,,,,525.5581,526.8519,526.852,528.1226,return,0.6592,,99.73958333,,,,,,FBP-PT-81.png,0.43,1.2,54,0.5,0,40,40,53,1,,,,,,,,,,,,,,,,,,,,,,,,,,,,,,,,,,,,,,,,
,,,,,WIN24_010,21,non-binary,2024-01-29_13h03.10.666,jersey_experiment_5,2023.2.2,Win32,85.47008547,,,,,,,,,,,,,,,,528.1229,529.4167,529.4168,531.3815,return,0.6854,,24.21875,,,,,,FBP-OG-19.png,0.35,1.2,11,0.5,0,41,41,10,1,,,,,,,,,,,,,,,,,,,,,,,,,,,,,,,,,,,,,,,,
,,,,,WIN24_010,21,non-binary,2024-01-29_13h03.10.666,jersey_experiment_5,2023.2.2,Win32,85.47008547,,,,,,,,,,,,,,,,531.3817,532.6758,532.6758,535.3935,return,0.7955,,74.73958333,,,,,,FBP-OG-19.png,0.43,1.2,14,0.5,0,42,42,13,1,,,,,,,,,,,,,,,,,,,,,,,,,,,,,,,,,,,,,,,,
,,,,,WIN24_010,21,non-binary,2024-01-29_13h03.10.666,jersey_experiment_5,2023.2.2,Win32,85.47008547,,,,,,,,,,,,,,,,535.3937,537.1937,537.1937,538.9818,return,0.765,,25.390625,,,,,,FBP-RB-81.png,0.35,1.2,21,1,0,43,43,20,1,,,,,,,,,,,,,,,,,,,,,,,,,,,,,,,,,,,,,,,,
,,,,,WIN24_010,21,non-binary,2024-01-29_13h03.10.666,jersey_experiment_5,2023.2.2,Win32,85.47008547,,,,,,,,,,,,,,,,538.982,540.2761,540.2761,542.2173,return,0.7997,,25.13020833,,,,,,FBP-PT-91.png,0.35,1.2,56,0.5,0,44,44,55,1,,,,,,,,,,,,,,,,,,,,,,,,,,,,,,,,,,,,,,,,
,,,,,WIN24_010,21,non-binary,2024-01-29_13h03.10.666,jersey_experiment_5,2023.2.2,Win32,85.47008547,,,,,,,,,,,,,,,,542.2175,544.0175,544.0175,545.9703,return,0.8628,,50.13020833,,,,,,FBP-YG-17.png,0.37,1.2,32,1,0,45,45,31,1,,,,,,,,,,,,,,,,,,,,,,,,,,,,,,,,,,,,,,,,
,,,,,WIN24_010,21,non-binary,2024-01-29_13h03.10.666,jersey_experiment_5,2023.2.2,Win32,85.47008547,,,,,,,,,,,,,,,,545.9706,547.7704,547.7704,549.1233,return,0.7919,,49.47916667,,,,,,FBP-YG-18.png,0.37,1.2,37,1,0,46,46,36,1,,,,,,,,,,,,,,,,,,,,,,,,,,,,,,,,,,,,,,,,
,,,,,WIN24_010,21,non-binary,2024-01-29_13h03.10.666,jersey_experiment_5,2023.2.2,Win32,85.47008547,,,,,,,,,,,,,,,,549.1235,550.9234,550.9234,553.5704,return,1.4509,,81.25,,,,,,FBP-RB-91.png,0.45,1.2,30,1,0,47,47,29,1,,,,,,,,,,,,,,,,,,,,,,,,,,,,,,,,,,,,,,,,
,,,,,WIN24_010,21,non-binary,2024-01-29_13h03.10.666,jersey_experiment_5,2023.2.2,Win32,85.47008547,,,,,,,,,,,,,,,,553.5707,555.3709,555.3709,557.4412,return,0.6884,,99.34895833,,,,,,FBP-YG-18.png,0.45,1.2,40,1,0,48,48,39,1,,,,,,,,,,,,,,,,,,,,,,,,,,,,,,,,,,,,,,,,
,,,,,WIN24_010,21,non-binary,2024-01-29_13h03.10.666,jersey_experiment_5,2023.2.2,Win32,85.47008547,,,,,,,,,,,,,,,,557.4414,558.7354,558.7355,561.4885,return,0.9711,,74.86979167,,,,,,FBP-PT-91.png,0.4,1.2,58,0.5,0,49,49,57,1,,,,,,,,,,,,,,,,,,,,,,,,,,,,,,,,,,,,,,,,
,,,,,WIN24_010,21,non-binary,2024-01-29_13h03.10.666,jersey_experiment_5,2023.2.2,Win32,85.47008547,,,,,,,,,,,,,,,,561.4888,562.7827,562.7827,566.6768,return,0.7333,,25,,,,,,FBP-PT-81.png,0.37,1.2,52,0.5,0,50,50,51,1,,,,,,,,,,,,,,,,,,,,,,,,,,,,,,,,,,,,,,,,
,,,,,WIN24_010,21,non-binary,2024-01-29_13h03.10.666,jersey_experiment_5,2023.2.2,Win32,85.47008547,,,,,,,,,,,,,,,,566.677,568.4773,568.4773,572.1007,return,1.3569,,49.86979167,,,,,,FBP-RB-71.png,0.4,1.2,18,1,0,51,51,17,1,,,,,,,,,,,,,,,,,,,,,,,,,,,,,,,,,,,,,,,,
,,,,,WIN24_010,21,non-binary,2024-01-29_13h03.10.666,jersey_experiment_5,2023.2.2,Win32,85.47008547,,,,,,,,,,,,,,,,572.1008,573.3948,573.3948,575.4655,return,0.7192,,75.26041667,,,,,,FBP-OG-18.png,0.43,1.2,9,0.5,0,52,52,8,1,,,,,,,,,,,,,,,,,,,,,,,,,,,,,,,,,,,,,,,,
,,,,,WIN24_010,21,non-binary,2024-01-29_13h03.10.666,jersey_experiment_5,2023.2.2,Win32,85.47008547,,,,,,,,,,,,,,,,575.4657,577.2656,577.2656,579.0186,return,0.9788,,74.609375,,,,,,FBP-YG-17.png,0.4,1.2,33,1,0,53,53,32,1,,,,,,,,,,,,,,,,,,,,,,,,,,,,,,,,,,,,,,,,
,,,,,WIN24_010,21,non-binary,2024-01-29_13h03.10.666,jersey_experiment_5,2023.2.2,Win32,85.47008547,,,,,,,,,,,,,,,,579.0188,580.8187,580.8187,583.748,return,0.8866,,30.59895833,,,,,,FBP-RB-71.png,0.35,1.2,16,1,0,54,54,15,1,,,,,,,,,,,,,,,,,,,,,,,,,,,,,,,,,,,,,,,,
,,,,,WIN24_010,21,non-binary,2024-01-29_13h03.10.666,jersey_experiment_5,2023.2.2,Win32,85.47008547,,,,,,,,,,,,,,,,583.7483,585.0423,585.0423,589.5601,return,0.6829,,74.609375,,,,,,FBP-OG-18.png,0.4,1.2,8,0.5,0,55,55,7,1,,,,,,,,,,,,,,,,,,,,,,,,,,,,,,,,,,,,,,,,
,,,,,WIN24_010,21,non-binary,2024-01-29_13h03.10.666,jersey_experiment_5,2023.2.2,Win32,85.47008547,,,,,,,,,,,,,,,,589.5604,590.8543,590.8544,593.9132,return,1.2844,,98.95833333,,,,,,FBP-PT-91.png,0.45,1.2,60,0.5,0,56,56,59,1,,,,,,,,,,,,,,,,,,,,,,,,,,,,,,,,,,,,,,,,
,,,,,WIN24_010,21,non-binary,2024-01-29_13h03.10.666,jersey_experiment_5,2023.2.2,Win32,85.47008547,,,,,,,,,,,,,,,,593.9136,595.7135,595.7135,597.9721,return,0.7913,,85.67708333,,,,,,FBP-YG-17.png,0.43,1.2,34,1,0,57,57,33,1,,,,,,,,,,,,,,,,,,,,,,,,,,,,,,,,,,,,,,,,
,,,,,WIN24_010,21,non-binary,2024-01-29_13h03.10.666,jersey_experiment_5,2023.2.2,Win32,85.47008547,,,,,,,,,,,,,,,,597.9724,599.2663,599.2663,602.1134,return,0.6759,,87.5,,,,,,FBP-PT-91.png,0.43,1.2,59,0.5,0,58,58,58,1,,,,,,,,,,,,,,,,,,,,,,,,,,,,,,,,,,,,,,,,
,,,,,WIN24_010,21,non-binary,2024-01-29_13h03.10.666,jersey_experiment_5,2023.2.2,Win32,85.47008547,,,,,,,,,,,,,,,,602.1137,603.4076,603.4076,606.2782,return,0.7075,,24.73958333,,,,,,FBP-OG-17.png,0.35,1.2,1,0.5,0,59,59,0,1,,,,,,,,,,,,,,,,,,,,,,,,,,,,,,,,,,,,,,,,
,,,,,WIN24_010,21,non-binary,2024-01-29_13h03.10.666,jersey_experiment_5,2023.2.2,Win32,85.47008547,,,,,,,,,,,,,,,,,,,,,,,,,,,,,,,,,,,,,,,606.2787,726.283,,,,,,,,,,,,,,,,,,,,,,,,,,,,,,,,,,,,,,
,,,,,WIN24_010,21,non-binary,2024-01-29_13h03.10.666,jersey_experiment_5,2023.2.2,Win32,85.47008547,,,,,,,,,,,,,,,,,,,,,,,,,,,,,,,,,,,,,,,,,726.2831,729.6829,return,3.3918,,,,,,,,,,,,,,,,,,,,,,,,,,,,,,,,,,
,,,,,WIN24_010,21,non-binary,2024-01-29_13h03.10.666,jersey_experiment_5,2023.2.2,Win32,85.47008547,,,,,,,,,,,,,,,,729.6892,731.4831,731.4831,733.5536,return,0.7702,,74.86979167,,,,,,FBP-OG-91.png,0.43,1.2,14,1,,,,,,,,,,,,,0,0,0,13,1,,,,,,,,,,,,,,,,,,,,,,,,,,,,
,,,,,WIN24_010,21,non-binary,2024-01-29_13h03.10.666,jersey_experiment_5,2023.2.2,Win32,85.47008547,,,,,,,,,,,,,,,,733.5538,735.3539,735.3539,737.7301,return,0.8417,,60.28645833,,,,,,FBP-PT-18.png,0.4,1.2,53,1,,,,,,,,,,,,,0,1,1,52,1,,,,,,,,,,,,,,,,,,,,,,,,,,,,
,,,,,WIN24_010,21,non-binary,2024-01-29_13h03.10.666,jersey_experiment_5,2023.2.2,Win32,85.47008547,,,,,,,,,,,,,,,,737.7302,739.0244,739.0244,741.3185,return,0.9291,,25.13020833,,,,,,FBP-YG-81.png,0.35,1.2,36,0.5,,,,,,,,,,,,,0,2,2,35,1,,,,,,,,,,,,,,,,,,,,,,,,,,,,
,,,,,WIN24_010,21,non-binary,2024-01-29_13h03.10.666,jersey_experiment_5,2023.2.2,Win32,85.47008547,,,,,,,,,,,,,,,,741.3186,742.6127,742.6127,745.4599,return,0.6398,,24.73958333,,,,,,FBP-YG-91.png,0.37,1.2,42,0.5,,,,,,,,,,,,,0,3,3,41,1,,,,,,,,,,,,,,,,,,,,,,,,,,,,
,,,,,WIN24_010,21,non-binary,2024-01-29_13h03.10.666,jersey_experiment_5,2023.2.2,Win32,85.47008547,,,,,,,,,,,,,,,,745.46,747.2601,747.2602,750.1543,return,0.8364,,49.73958333,,,,,,FBP-PT-17.png,0.37,1.2,47,1,,,,,,,,,,,,,0,4,4,46,1,,,,,,,,,,,,,,,,,,,,,,,,,,,,
,,,,,WIN24_010,21,non-binary,2024-01-29_13h03.10.666,jersey_experiment_5,2023.2.2,Win32,85.47008547,,,,,,,,,,,,,,,,750.1545,751.4483,751.4484,752.8837,return,0.7225,,49.609375,,,,,,FBP-YG-81.png,0.37,1.2,37,0.5,,,,,,,,,,,,,0,5,5,36,1,,,,,,,,,,,,,,,,,,,,,,,,,,,,
,,,,,WIN24_010,21,non-binary,2024-01-29_13h03.10.666,jersey_experiment_5,2023.2.2,Win32,85.47008547,,,,,,,,,,,,,,,,752.8839,754.1779,754.1779,758.225,return,0.9239,,99.609375,,,,,,FBP-RB-19.png,0.45,1.2,30,0.5,,,,,,,,,,,,,0,6,6,29,1,,,,,,,,,,,,,,,,,,,,,,,,,,,,
,,,,,WIN24_010,21,non-binary,2024-01-29_13h03.10.666,jersey_experiment_5,2023.2.2,Win32,85.47008547,,,,,,,,,,,,,,,,758.2252,759.5192,759.5192,761.978,return,0.7164,,68.75,,,,,,FBP-RB-18.png,0.37,1.2,22,0.5,,,,,,,,,,,,,0,7,7,21,1,,,,,,,,,,,,,,,,,,,,,,,,,,,,
,,,,,WIN24_010,21,non-binary,2024-01-29_13h03.10.666,jersey_experiment_5,2023.2.2,Win32,85.47008547,,,,,,,,,,,,,,,,761.9782,763.2723,763.2723,765.1781,return,0.8332,,75,,,,,,FBP-YG-81.png,0.4,1.2,38,0.5,,,,,,,,,,,,,0,8,8,37,1,,,,,,,,,,,,,,,,,,,,,,,,,,,,
,,,,,WIN24_010,21,non-binary,2024-01-29_13h03.10.666,jersey_experiment_5,2023.2.2,Win32,85.47008547,,,,,,,,,,,,,,,,765.1784,766.4722,766.4723,768.9784,return,0.8182,,89.97395833,,,,,,FBP-RB-19.png,0.43,1.2,29,0.5,,,,,,,,,,,,,0,9,9,28,1,,,,,,,,,,,,,,,,,,,,,,,,,,,,
,,,,,WIN24_010,21,non-binary,2024-01-29_13h03.10.666,jersey_experiment_5,2023.2.2,Win32,85.47008547,,,,,,,,,,,,,,,,768.9785,770.7782,770.7783,772.2961,return,0.8139,,89.84375,,,,,,FBP-PT-19.png,0.43,1.2,59,1,,,,,,,,,,,,,0,10,10,58,1,,,,,,,,,,,,,,,,,,,,,,,,,,,,
,,,,,WIN24_010,21,non-binary,2024-01-29_13h03.10.666,jersey_experiment_5,2023.2.2,Win32,85.47008547,,,,,,,,,,,,,,,,772.2963,774.0963,774.0963,775.7668,return,0.8253,,99.86979167,,,,,,FBP-OG-91.png,0.45,1.2,15,1,,,,,,,,,,,,,0,11,11,14,1,,,,,,,,,,,,,,,,,,,,,,,,,,,,
,,,,,WIN24_010,21,non-binary,2024-01-29_13h03.10.666,jersey_experiment_5,2023.2.2,Win32,85.47008547,,,,,,,,,,,,,,,,775.767,777.061,777.061,778.7786,return,0.8237,,99.73958333,,,,,,FBP-YG-71.png,0.45,1.2,35,0.5,,,,,,,,,,,,,0,12,12,34,1,,,,,,,,,,,,,,,,,,,,,,,,,,,,
,,,,,WIN24_010,21,non-binary,2024-01-29_13h03.10.666,jersey_experiment_5,2023.2.2,Win32,85.47008547,,,,,,,,,,,,,,,,778.7788,780.0728,780.0728,783.9906,return,0.7193,,85.15625,,,,,,FBP-YG-91.png,0.43,1.2,44,0.5,,,,,,,,,,,,,0,13,13,43,1,,,,,,,,,,,,,,,,,,,,,,,,,,,,
,,,,,WIN24_010,21,non-binary,2024-01-29_13h03.10.666,jersey_experiment_5,2023.2.2,Win32,85.47008547,,,,,,,,,,,,,,,,783.9908,785.7909,785.791,788.085,return,0.8155,,25,,,,,,FBP-OG-71.png,0.37,1.2,2,1,,,,,,,,,,,,,0,14,14,1,1,,,,,,,,,,,,,,,,,,,,,,,,,,,,
,,,,,WIN24_010,21,non-binary,2024-01-29_13h03.10.666,jersey_experiment_5,2023.2.2,Win32,85.47008547,,,,,,,,,,,,,,,,788.0851,789.3792,789.3792,793.6968,return,1.349,,99.609375,,,,,,FBP-YG-81.png,0.45,1.2,40,0.5,,,,,,,,,,,,,0,15,15,39,1,,,,,,,,,,,,,,,,,,,,,,,,,,,,
,,,,,WIN24_010,21,non-binary,2024-01-29_13h03.10.666,jersey_experiment_5,2023.2.2,Win32,85.47008547,,,,,,,,,,,,,,,,793.697,795.4972,795.4973,798.9795,return,1.2035,,86.71875,,,,,,FBP-OG-81.png,0.43,1.2,9,1,,,,,,,,,,,,,0,16,16,8,1,,,,,,,,,,,,,,,,,,,,,,,,,,,,
,,,,,WIN24_010,21,non-binary,2024-01-29_13h03.10.666,jersey_experiment_5,2023.2.2,Win32,85.47008547,,,,,,,,,,,,,,,,798.9797,800.2736,800.2736,804.8031,return,1.4271,,50,,,,,,FBP-YG-91.png,0.4,1.2,43,0.5,,,,,,,,,,,,,0,17,17,42,1,,,,,,,,,,,,,,,,,,,,,,,,,,,,
,,,,,WIN24_010,21,non-binary,2024-01-29_13h03.10.666,jersey_experiment_5,2023.2.2,Win32,85.47008547,,,,,,,,,,,,,,,,804.8033,806.6033,806.6033,809.3209,return,0.903,,7.421875,,,,,,FBP-PT-19.png,0.35,1.2,56,1,,,,,,,,,,,,,0,18,18,55,1,,,,,,,,,,,,,,,,,,,,,,,,,,,,
,,,,,WIN24_010,21,non-binary,2024-01-29_13h03.10.666,jersey_experiment_5,2023.2.2,Win32,85.47008547,,,,,,,,,,,,,,,,809.3211,810.615,810.615,821.6979,return,0.8392,,1.041666667,,,,,,FBP-RB-19.png,0.35,1.2,26,0.5,,,,,,,,,,,,,0,19,19,25,1,,,,,,,,,,,,,,,,,,,,,,,,,,,,
,,,,,WIN24_010,21,non-binary,2024-01-29_13h03.10.666,jersey_experiment_5,2023.2.2,Win32,85.47008547,,,,,,,,,,,,,,,,821.6981,823.4982,823.4982,826.6275,return,0.7324,,99.86979167,,,,,,FBP-PT-17.png,0.45,1.2,50,1,,,,,,,,,,,,,0,20,20,49,1,,,,,,,,,,,,,,,,,,,,,,,,,,,,
,,,,,WIN24_010,21,non-binary,2024-01-29_13h03.10.666,jersey_experiment_5,2023.2.2,Win32,85.47008547,,,,,,,,,,,,,,,,826.6277,827.9218,827.9218,831.1924,return,0.7434,,25,,,,,,FBP-RB-17.png,0.35,1.2,16,0.5,,,,,,,,,,,,,0,21,21,15,1,,,,,,,,,,,,,,,,,,,,,,,,,,,,
,,,,,WIN24_010,21,non-binary,2024-01-29_13h03.10.666,jersey_experiment_5,2023.2.2,Win32,85.47008547,,,,,,,,,,,,,,,,831.1927,832.9925,832.9926,837.0394,return,0.7724,,75,,,,,,FBP-OG-71.png,0.4,1.2,3,1,,,,,,,,,,,,,0,22,22,2,1,,,,,,,,,,,,,,,,,,,,,,,,,,,,
,,,,,WIN24_010,21,non-binary,2024-01-29_13h03.10.666,jersey_experiment_5,2023.2.2,Win32,85.47008547,,,,,,,,,,,,,,,,837.0396,838.3337,838.3337,840.9691,return,1.4913,,84.63541667,,,,,,FBP-YG-71.png,0.43,1.2,34,0.5,,,,,,,,,,,,,0,23,23,33,1,,,,,,,,,,,,,,,,,,,,,,,,,,,,
,,,,,WIN24_010,21,non-binary,2024-01-29_13h03.10.666,jersey_experiment_5,2023.2.2,Win32,85.47008547,,,,,,,,,,,,,,,,840.9694,842.2633,842.2633,844.3222,return,0.7471,,85.546875,,,,,,FBP-RB-18.png,0.4,1.2,23,0.5,,,,,,,,,,,,,0,24,24,22,1,,,,,,,,,,,,,,,,,,,,,,,,,,,,
,,,,,WIN24_010,21,non-binary,2024-01-29_13h03.10.666,jersey_experiment_5,2023.2.2,Win32,85.47008547,,,,,,,,,,,,,,,,844.3224,845.6165,845.6165,847.4399,return,0.7143,,24.47916667,,,,,,FBP-RB-18.png,0.35,1.2,21,0.5,,,,,,,,,,,,,0,25,25,20,1,,,,,,,,,,,,,,,,,,,,,,,,,,,,
,,,,,WIN24_010,21,non-binary,2024-01-29_13h03.10.666,jersey_experiment_5,2023.2.2,Win32,85.47008547,,,,,,,,,,,,,,,,847.4402,849.2403,849.2404,852.4047,return,0.7199,,29.6875,,,,,,FBP-PT-18.png,0.35,1.2,51,1,,,,,,,,,,,,,0,26,26,50,1,,,,,,,,,,,,,,,,,,,,,,,,,,,,
,,,,,WIN24_010,21,non-binary,2024-01-29_13h03.10.666,jersey_experiment_5,2023.2.2,Win32,85.47008547,,,,,,,,,,,,,,,,852.4048,853.699,853.699,858.6639,return,0.7629,,11.97916667,,,,,,FBP-YG-71.png,0.35,1.2,31,0.5,,,,,,,,,,,,,0,27,27,30,1,,,,,,,,,,,,,,,,,,,,,,,,,,,,
,,,,,WIN24_010,21,non-binary,2024-01-29_13h03.10.666,jersey_experiment_5,2023.2.2,Win32,85.47008547,,,,,,,,,,,,,,,,858.664,860.464,860.4641,862.4523,return,0.8043,,99.86979167,,,,,,FBP-PT-18.png,0.45,1.2,55,1,,,,,,,,,,,,,0,28,28,54,1,,,,,,,,,,,,,,,,,,,,,,,,,,,,
,,,,,WIN24_010,21,non-binary,2024-01-29_13h03.10.666,jersey_experiment_5,2023.2.2,Win32,85.47008547,,,,,,,,,,,,,,,,862.4525,863.7466,863.7466,866.4408,return,0.8141,,99.86979167,,,,,,FBP-RB-18.png,0.43,1.2,24,0.5,,,,,,,,,,,,,0,29,29,23,1,,,,,,,,,,,,,,,,,,,,,,,,,,,,
,,,,,WIN24_010,21,non-binary,2024-01-29_13h03.10.666,jersey_experiment_5,2023.2.2,Win32,85.47008547,,,,,,,,,,,,,,,,866.4409,868.2408,868.2408,870.5119,return,0.8549,,93.75,,,,,,FBP-OG-71.png,0.45,1.2,5,1,,,,,,,,,,,,,0,30,30,4,1,,,,,,,,,,,,,,,,,,,,,,,,,,,,
,,,,,WIN24_010,21,non-binary,2024-01-29_13h03.10.666,jersey_experiment_5,2023.2.2,Win32,85.47008547,,,,,,,,,,,,,,,,870.5122,871.8056,871.8057,874.2174,return,0.9745,,92.96875,,,,,,FBP-RB-18.png,0.45,1.2,25,0.5,,,,,,,,,,,,,0,31,31,24,1,,,,,,,,,,,,,,,,,,,,,,,,,,,,
,,,,,WIN24_010,21,non-binary,2024-01-29_13h03.10.666,jersey_experiment_5,2023.2.2,Win32,85.47008547,,,,,,,,,,,,,,,,874.2176,876.0177,876.0178,878.8529,return,0.8508,,24.86979167,,,,,,FBP-OG-91.png,0.37,1.2,12,1,,,,,,,,,,,,,0,32,32,11,1,,,,,,,,,,,,,,,,,,,,,,,,,,,,
,,,,,WIN24_010,21,non-binary,2024-01-29_13h03.10.666,jersey_experiment_5,2023.2.2,Win32,85.47008547,,,,,,,,,,,,,,,,878.8531,880.6529,880.6529,883.4767,return,1.0136,,97.52604167,,,,,,FBP-OG-81.png,0.45,1.2,10,1,,,,,,,,,,,,,0,33,33,9,1,,,,,,,,,,,,,,,,,,,,,,,,,,,,
,,,,,WIN24_010,21,non-binary,2024-01-29_13h03.10.666,jersey_experiment_5,2023.2.2,Win32,85.47008547,,,,,,,,,,,,,,,,883.4769,885.2768,885.2768,888.9357,return,1.0355,,49.86979167,,,,,,FBP-OG-91.png,0.4,1.2,13,1,,,,,,,,,,,,,0,34,34,12,1,,,,,,,,,,,,,,,,,,,,,,,,,,,,
,,,,,WIN24_010,21,non-binary,2024-01-29_13h03.10.666,jersey_experiment_5,2023.2.2,Win32,85.47008547,,,,,,,,,,,,,,,,888.9359,890.2297,890.2297,892.5828,return,0.7057,,81.77083333,,,,,,FBP-YG-91.png,0.45,1.2,45,0.5,,,,,,,,,,,,,0,35,35,44,1,,,,,,,,,,,,,,,,,,,,,,,,,,,,
,,,,,WIN24_010,21,non-binary,2024-01-29_13h03.10.666,jersey_experiment_5,2023.2.2,Win32,85.47008547,,,,,,,,,,,,,,,,892.583,893.877,893.8771,896.2653,return,0.988,,74.86979167,,,,,,FBP-RB-19.png,0.4,1.2,28,0.5,,,,,,,,,,,,,0,36,36,27,1,,,,,,,,,,,,,,,,,,,,,,,,,,,,
,,,,,WIN24_010,21,non-binary,2024-01-29_13h03.10.666,jersey_experiment_5,2023.2.2,Win32,85.47008547,,,,,,,,,,,,,,,,896.2655,897.5595,897.5595,898.9831,return,0.8857,,75.13020833,,,,,,FBP-RB-17.png,0.4,1.2,18,0.5,,,,,,,,,,,,,0,37,37,17,1,,,,,,,,,,,,,,,,,,,,,,,,,,,,
,,,,,WIN24_010,21,non-binary,2024-01-29_13h03.10.666,jersey_experiment_5,2023.2.2,Win32,85.47008547,,,,,,,,,,,,,,,,898.9834,900.7831,900.7831,905.0304,return,3.5527,,42.578125,,,,,,FBP-PT-19.png,0.37,1.2,57,1,,,,,,,,,,,,,0,38,38,56,1,,,,,,,,,,,,,,,,,,,,,,,,,,,,
,,,,,WIN24_010,21,non-binary,2024-01-29_13h03.10.666,jersey_experiment_5,2023.2.2,Win32,85.47008547,,,,,,,,,,,,,,,,905.0308,906.8304,906.8304,909.5717,return,0.8973,,25.390625,,,,,,FBP-OG-71.png,0.35,1.2,1,1,,,,,,,,,,,,,0,39,39,0,1,,,,,,,,,,,,,,,,,,,,,,,,,,,,
,,,,,WIN24_010,21,non-binary,2024-01-29_13h03.10.666,jersey_experiment_5,2023.2.2,Win32,85.47008547,,,,,,,,,,,,,,,,909.5719,910.8658,910.8658,912.8188,return,0.7467,,24.73958333,,,,,,FBP-RB-17.png,0.37,1.2,17,0.5,,,,,,,,,,,,,0,40,40,16,1,,,,,,,,,,,,,,,,,,,,,,,,,,,,
,,,,,WIN24_010,21,non-binary,2024-01-29_13h03.10.666,jersey_experiment_5,2023.2.2,Win32,85.47008547,,,,,,,,,,,,,,,,912.819,914.1131,914.1131,916.1837,return,0.7536,,49.73958333,,,,,,FBP-YG-71.png,0.4,1.2,33,0.5,,,,,,,,,,,,,0,41,41,32,1,,,,,,,,,,,,,,,,,,,,,,,,,,,,
,,,,,WIN24_010,21,non-binary,2024-01-29_13h03.10.666,jersey_experiment_5,2023.2.2,Win32,85.47008547,,,,,,,,,,,,,,,,916.1839,917.9839,917.9839,920.7602,return,0.9049,,74.73958333,,,,,,FBP-PT-17.png,0.43,1.2,49,1,,,,,,,,,,,,,0,42,42,48,1,,,,,,,,,,,,,,,,,,,,,,,,,,,,
,,,,,WIN24_010,21,non-binary,2024-01-29_13h03.10.666,jersey_experiment_5,2023.2.2,Win32,85.47008547,,,,,,,,,,,,,,,,920.7605,922.5604,922.5604,925.4663,return,1.4455,,74.08854167,,,,,,FBP-PT-17.png,0.4,1.2,48,1,,,,,,,,,,,,,0,43,43,47,1,,,,,,,,,,,,,,,,,,,,,,,,,,,,
,,,,,WIN24_010,21,non-binary,2024-01-29_13h03.10.666,jersey_experiment_5,2023.2.2,Win32,85.47008547,,,,,,,,,,,,,,,,925.4665,926.7606,926.7606,929.6195,return,1.0847,,39.453125,,,,,,FBP-YG-91.png,0.35,1.2,41,0.5,,,,,,,,,,,,,0,44,44,40,1,,,,,,,,,,,,,,,,,,,,,,,,,,,,
,,,,,WIN24_010,21,non-binary,2024-01-29_13h03.10.666,jersey_experiment_5,2023.2.2,Win32,85.47008547,,,,,,,,,,,,,,,,929.6198,930.9137,930.9137,933.8667,return,0.9506,,24.73958333,,,,,,FBP-RB-19.png,0.37,1.2,27,0.5,,,,,,,,,,,,,0,45,45,26,1,,,,,,,,,,,,,,,,,,,,,,,,,,,,
,,,,,WIN24_010,21,non-binary,2024-01-29_13h03.10.666,jersey_experiment_5,2023.2.2,Win32,85.47008547,,,,,,,,,,,,,,,,933.867,935.6667,935.6668,936.9138,return,0.6773,,25.26041667,,,,,,FBP-PT-18.png,0.37,1.2,52,1,,,,,,,,,,,,,0,46,46,51,1,,,,,,,,,,,,,,,,,,,,,,,,,,,,
,,,,,WIN24_010,21,non-binary,2024-01-29_13h03.10.666,jersey_experiment_5,2023.2.2,Win32,85.47008547,,,,,,,,,,,,,,,,936.9141,938.714,938.7141,940.4081,return,0.7766,,50.65104167,,,,,,FBP-PT-19.png,0.4,1.2,58,1,,,,,,,,,,,,,0,47,47,57,1,,,,,,,,,,,,,,,,,,,,,,,,,,,,
,,,,,WIN24_010,21,non-binary,2024-01-29_13h03.10.666,jersey_experiment_5,2023.2.2,Win32,85.47008547,,,,,,,,,,,,,,,,940.4083,942.2082,942.2082,943.5729,return,0.9095,,50.65104167,,,,,,FBP-OG-81.png,0.4,1.2,8,1,,,,,,,,,,,,,0,48,48,7,1,,,,,,,,,,,,,,,,,,,,,,,,,,,,
,,,,,WIN24_010,21,non-binary,2024-01-29_13h03.10.666,jersey_experiment_5,2023.2.2,Win32,85.47008547,,,,,,,,,,,,,,,,943.5732,945.3729,945.3729,948.2555,return,0.7029,,74.609375,,,,,,FBP-PT-18.png,0.43,1.2,54,1,,,,,,,,,,,,,0,49,49,53,1,,,,,,,,,,,,,,,,,,,,,,,,,,,,
,,,,,WIN24_010,21,non-binary,2024-01-29_13h03.10.666,jersey_experiment_5,2023.2.2,Win32,85.47008547,,,,,,,,,,,,,,,,948.2557,950.0556,950.0557,952.9145,return,1.0997,,41.66666667,,,,,,FBP-OG-81.png,0.37,1.2,7,1,,,,,,,,,,,,,0,50,50,6,1,,,,,,,,,,,,,,,,,,,,,,,,,,,,
,,,,,WIN24_010,21,non-binary,2024-01-29_13h03.10.666,jersey_experiment_5,2023.2.2,Win32,85.47008547,,,,,,,,,,,,,,,,952.9147,954.7147,954.7147,957.9264,return,0.7538,,17.44791667,,,,,,FBP-PT-17.png,0.35,1.2,46,1,,,,,,,,,,,,,0,51,51,45,1,,,,,,,,,,,,,,,,,,,,,,,,,,,,
,,,,,WIN24_010,21,non-binary,2024-01-29_13h03.10.666,jersey_experiment_5,2023.2.2,Win32,85.47008547,,,,,,,,,,,,,,,,957.9266,959.7263,959.7264,962.6324,return,0.7759,,87.76041667,,,,,,FBP-PT-19.png,0.45,1.2,60,1,,,,,,,,,,,,,0,52,52,59,1,,,,,,,,,,,,,,,,,,,,,,,,,,,,
,,,,,WIN24_010,21,non-binary,2024-01-29_13h03.10.666,jersey_experiment_5,2023.2.2,Win32,85.47008547,,,,,,,,,,,,,,,,962.6327,963.9268,963.9268,966.5855,return,0.7546,,99.73958333,,,,,,FBP-RB-17.png,0.43,1.2,19,0.5,,,,,,,,,,,,,0,53,53,18,1,,,,,,,,,,,,,,,,,,,,,,,,,,,,
,,,,,WIN24_010,21,non-binary,2024-01-29_13h03.10.666,jersey_experiment_5,2023.2.2,Win32,85.47008547,,,,,,,,,,,,,,,,966.5857,967.8796,967.8797,969.9738,return,0.7907,,50.13020833,,,,,,FBP-YG-71.png,0.37,1.2,32,0.5,,,,,,,,,,,,,0,54,54,31,1,,,,,,,,,,,,,,,,,,,,,,,,,,,,
,,,,,WIN24_010,21,non-binary,2024-01-29_13h03.10.666,jersey_experiment_5,2023.2.2,Win32,85.47008547,,,,,,,,,,,,,,,,969.9739,971.7741,971.7741,975.6329,return,0.8545,,91.53645833,,,,,,FBP-OG-71.png,0.43,1.2,4,1,,,,,,,,,,,,,0,55,55,3,1,,,,,,,,,,,,,,,,,,,,,,,,,,,,
,,,,,WIN24_010,21,non-binary,2024-01-29_13h03.10.666,jersey_experiment_5,2023.2.2,Win32,85.47008547,,,,,,,,,,,,,,,,975.6331,976.927,976.9271,982.2332,return,1.6481,,100,,,,,,FBP-YG-81.png,0.43,1.2,39,0.5,,,,,,,,,,,,,0,56,56,38,1,,,,,,,,,,,,,,,,,,,,,,,,,,,,
,,,,,WIN24_010,21,non-binary,2024-01-29_13h03.10.666,jersey_experiment_5,2023.2.2,Win32,85.47008547,,,,,,,,,,,,,,,,982.2334,984.0334,984.0334,985.8802,return,0.7303,,25.13020833,,,,,,FBP-OG-81.png,0.35,1.2,6,1,,,,,,,,,,,,,0,57,57,5,1,,,,,,,,,,,,,,,,,,,,,,,,,,,,
,,,,,WIN24_010,21,non-binary,2024-01-29_13h03.10.666,jersey_experiment_5,2023.2.2,Win32,85.47008547,,,,,,,,,,,,,,,,985.8805,987.1746,987.1746,990.0804,return,0.7479,,82.55208333,,,,,,FBP-RB-17.png,0.45,1.2,20,0.5,,,,,,,,,,,,,0,58,58,19,1,,,,,,,,,,,,,,,,,,,,,,,,,,,,
,,,,,WIN24_010,21,non-binary,2024-01-29_13h03.10.666,jersey_experiment_5,2023.2.2,Win32,85.47008547,,,,,,,,,,,,,,,,990.0806,991.8807,991.8808,995.3041,return,0.73,,38.671875,,,,,,FBP-OG-91.png,0.35,1.2,11,1,,,,,,,,,,,,,0,59,59,10,1,,,,,,,,,,,,,,,,,,,,,,,,,,,,
,,,,,WIN24_010,21,non-binary,2024-01-29_13h03.10.666,jersey_experiment_5,2023.2.2,Win32,85.47008547,,,,,,,,,,,,,,,,995.3063,996.5983,996.5984,999.0926,return,0.9213,,74.47916667,,,,,,FBP-YG-19.png,0.4,1.2,43,0.5,,,,,,,,,,,,,,,,,,0,0,0,42,1,,,,,,,,,,,,,,,,,,,,,,,
,,,,,WIN24_010,21,non-binary,2024-01-29_13h03.10.666,jersey_experiment_5,2023.2.2,Win32,85.47008547,,,,,,,,,,,,,,,,999.0931,1000.3869,1000.3869,1003.1045,return,0.8194,,77.60416667,,,,,,FBP-YG-18.png,0.43,1.2,39,0.5,,,,,,,,,,,,,,,,,,0,1,1,38,1,,,,,,,,,,,,,,,,,,,,,,,
,,,,,WIN24_010,21,non-binary,2024-01-29_13h03.10.666,jersey_experiment_5,2023.2.2,Win32,85.47008547,,,,,,,,,,,,,,,,1003.1048,1004.9046,1004.9047,1008.5165,return,0.7448,,89.453125,,,,,,FBP-PT-91.png,0.45,1.2,60,1,,,,,,,,,,,,,,,,,,0,2,2,59,1,,,,,,,,,,,,,,,,,,,,,,,
,,,,,WIN24_010,21,non-binary,2024-01-29_13h03.10.666,jersey_experiment_5,2023.2.2,Win32,85.47008547,,,,,,,,,,,,,,,,1008.5168,1009.8106,1009.8107,1012.9989,return,0.7873,,38.28125,,,,,,FBP-RB-81.png,0.35,1.2,21,0.5,,,,,,,,,,,,,,,,,,0,3,3,20,1,,,,,,,,,,,,,,,,,,,,,,,
,,,,,WIN24_010,21,non-binary,2024-01-29_13h03.10.666,jersey_experiment_5,2023.2.2,Win32,85.47008547,,,,,,,,,,,,,,,,1012.9993,1014.7991,1014.7991,1016.9167,return,0.8243,,25.26041667,,,,,,FBP-OG-18.png,0.35,1.2,6,1,,,,,,,,,,,,,,,,,,0,4,4,5,1,,,,,,,,,,,,,,,,,,,,,,,
,,,,,WIN24_010,21,non-binary,2024-01-29_13h03.10.666,jersey_experiment_5,2023.2.2,Win32,85.47008547,,,,,,,,,,,,,,,,1016.917,1018.7167,1018.7167,1021.658,return,0.8474,,85.28645833,,,,,,FBP-OG-18.png,0.43,1.2,9,1,,,,,,,,,,,,,,,,,,0,5,5,8,1,,,,,,,,,,,,,,,,,,,,,,,
,,,,,WIN24_010,21,non-binary,2024-01-29_13h03.10.666,jersey_experiment_5,2023.2.2,Win32,85.47008547,,,,,,,,,,,,,,,,1021.6582,1023.4581,1023.4582,1027.4112,return,0.8027,,94.66145833,,,,,,FBP-OG-18.png,0.45,1.2,10,1,,,,,,,,,,,,,,,,,,0,6,6,9,1,,,,,,,,,,,,,,,,,,,,,,,
,,,,,WIN24_010,21,non-binary,2024-01-29_13h03.10.666,jersey_experiment_5,2023.2.2,Win32,85.47008547,,,,,,,,,,,,,,,,1027.4115,1028.7055,1028.7055,1030.8819,return,0.7226,,92.31770833,,,,,,FBP-YG-19.png,0.45,1.2,45,0.5,,,,,,,,,,,,,,,,,,0,7,7,44,1,,,,,,,,,,,,,,,,,,,,,,,
,,,,,WIN24_010,21,non-binary,2024-01-29_13h03.10.666,jersey_experiment_5,2023.2.2,Win32,85.47008547,,,,,,,,,,,,,,,,1030.8821,1032.1759,1032.176,1034.6467,return,0.6132,,99.86979167,,,,,,FBP-YG-17.png,0.43,1.2,34,0.5,,,,,,,,,,,,,,,,,,0,8,8,33,1,,,,,,,,,,,,,,,,,,,,,,,
,,,,,WIN24_010,21,non-binary,2024-01-29_13h03.10.666,jersey_experiment_5,2023.2.2,Win32,85.47008547,,,,,,,,,,,,,,,,1034.6469,1036.4469,1036.4469,1037.6704,return,0.7669,,99.34895833,,,,,,FBP-PT-91.png,0.43,1.2,59,1,,,,,,,,,,,,,,,,,,0,9,9,58,1,,,,,,,,,,,,,,,,,,,,,,,
,,,,,WIN24_010,21,non-binary,2024-01-29_13h03.10.666,jersey_experiment_5,2023.2.2,Win32,85.47008547,,,,,,,,,,,,,,,,1037.6707,1039.4705,1039.4705,1043.8589,return,0.6993,,42.96875,,,,,,FBP-PT-91.png,0.35,1.2,56,1,,,,,,,,,,,,,,,,,,0,10,10,55,1,,,,,,,,,,,,,,,,,,,,,,,
,,,,,WIN24_010,21,non-binary,2024-01-29_13h03.10.666,jersey_experiment_5,2023.2.2,Win32,85.47008547,,,,,,,,,,,,,,,,1043.8591,1045.6589,1045.6589,1048.8003,return,0.8436,,49.609375,,,,,,FBP-OG-19.png,0.37,1.2,12,1,,,,,,,,,,,,,,,,,,0,11,11,11,1,,,,,,,,,,,,,,,,,,,,,,,
,,,,,WIN24_010,21,non-binary,2024-01-29_13h03.10.666,jersey_experiment_5,2023.2.2,Win32,85.47008547,,,,,,,,,,,,,,,,1048.8005,1050.0942,1050.0943,1051.9533,return,0.7248,,49.609375,,,,,,FBP-YG-19.png,0.37,1.2,42,0.5,,,,,,,,,,,,,,,,,,0,12,12,41,1,,,,,,,,,,,,,,,,,,,,,,,
,,,,,WIN24_010,21,non-binary,2024-01-29_13h03.10.666,jersey_experiment_5,2023.2.2,Win32,85.47008547,,,,,,,,,,,,,,,,1051.9535,1053.7534,1053.7534,1055.4829,return,0.7669,,50.13020833,,,,,,FBP-PT-81.png,0.35,1.2,51,1,,,,,,,,,,,,,,,,,,0,13,13,50,1,,,,,,,,,,,,,,,,,,,,,,,
,,,,,WIN24_010,21,non-binary,2024-01-29_13h03.10.666,jersey_experiment_5,2023.2.2,Win32,85.47008547,,,,,,,,,,,,,,,,1055.483,1056.777,1056.777,1060.2124,return,0.8015,,24.73958333,,,,,,FBP-YG-19.png,0.35,1.2,41,0.5,,,,,,,,,,,,,,,,,,0,14,14,40,1,,,,,,,,,,,,,,,,,,,,,,,
,,,,,WIN24_010,21,non-binary,2024-01-29_13h03.10.666,jersey_experiment_5,2023.2.2,Win32,85.47008547,,,,,,,,,,,,,,,,1060.2126,1061.5066,1061.5066,1065.6362,return,2.4985,,80.98958333,,,,,,FBP-RB-71.png,0.43,1.2,19,0.5,,,,,,,,,,,,,,,,,,0,15,15,18,1,,,,,,,,,,,,,,,,,,,,,,,
,,,,,WIN24_010,21,non-binary,2024-01-29_13h03.10.666,jersey_experiment_5,2023.2.2,Win32,85.47008547,,,,,,,,,,,,,,,,1065.6363,1066.9303,1066.9303,1071.3304,return,0.8863,,99.609375,,,,,,FBP-YG-18.png,0.45,1.2,40,0.5,,,,,,,,,,,,,,,,,,0,16,16,39,1,,,,,,,,,,,,,,,,,,,,,,,
,,,,,WIN24_010,21,non-binary,2024-01-29_13h03.10.666,jersey_experiment_5,2023.2.2,Win32,85.47008547,,,,,,,,,,,,,,,,1071.3307,1073.1306,1073.1306,1076.5659,return,0.8144,,62.76041667,,,,,,FBP-OG-18.png,0.37,1.2,7,1,,,,,,,,,,,,,,,,,,0,17,17,6,1,,,,,,,,,,,,,,,,,,,,,,,
,,,,,WIN24_010,21,non-binary,2024-01-29_13h03.10.666,jersey_experiment_5,2023.2.2,Win32,85.47008547,,,,,,,,,,,,,,,,1076.5662,1077.8601,1077.8601,1080.0014,return,0.8184,,25.13020833,,,,,,FBP-RB-71.png,0.35,1.2,16,0.5,,,,,,,,,,,,,,,,,,0,18,18,15,1,,,,,,,,,,,,,,,,,,,,,,,
,,,,,WIN24_010,21,non-binary,2024-01-29_13h03.10.666,jersey_experiment_5,2023.2.2,Win32,85.47008547,,,,,,,,,,,,,,,,1080.0016,1081.2957,1081.2957,1084.4486,return,0.7961,,35.28645833,,,,,,FBP-RB-71.png,0.37,1.2,17,0.5,,,,,,,,,,,,,,,,,,0,19,19,16,1,,,,,,,,,,,,,,,,,,,,,,,
,,,,,WIN24_010,21,non-binary,2024-01-29_13h03.10.666,jersey_experiment_5,2023.2.2,Win32,85.47008547,,,,,,,,,,,,,,,,1084.4488,1086.2486,1086.2487,1088.084,return,0.9221,,24.73958333,,,,,,FBP-OG-19.png,0.35,1.2,11,1,,,,,,,,,,,,,,,,,,0,20,20,10,1,,,,,,,,,,,,,,,,,,,,,,,
,,,,,WIN24_010,21,non-binary,2024-01-29_13h03.10.666,jersey_experiment_5,2023.2.2,Win32,85.47008547,,,,,,,,,,,,,,,,1088.0842,1089.3781,1089.3782,1091.19,return,1.0478,,24.73958333,,,,,,FBP-YG-17.png,0.35,1.2,31,0.5,,,,,,,,,,,,,,,,,,0,21,21,30,1,,,,,,,,,,,,,,,,,,,,,,,
,,,,,WIN24_010,21,non-binary,2024-01-29_13h03.10.666,jersey_experiment_5,2023.2.2,Win32,85.47008547,,,,,,,,,,,,,,,,1091.1902,1092.9903,1092.9903,1095.602,return,0.8041,,74.73958333,,,,,,FBP-OG-19.png,0.4,1.2,13,1,,,,,,,,,,,,,,,,,,0,22,22,12,1,,,,,,,,,,,,,,,,,,,,,,,
,,,,,WIN24_010,21,non-binary,2024-01-29_13h03.10.666,jersey_experiment_5,2023.2.2,Win32,85.47008547,,,,,,,,,,,,,,,,1095.6022,1097.402,1097.402,1098.6726,return,0.8413,,74.47916667,,,,,,FBP-PT-81.png,0.4,1.2,53,1,,,,,,,,,,,,,,,,,,0,23,23,52,1,,,,,,,,,,,,,,,,,,,,,,,
,,,,,WIN24_010,21,non-binary,2024-01-29_13h03.10.666,jersey_experiment_5,2023.2.2,Win32,85.47008547,,,,,,,,,,,,,,,,1098.6729,1099.9667,1099.9667,1101.7316,return,0.8753,,74.47916667,,,,,,FBP-RB-81.png,0.37,1.2,22,0.5,,,,,,,,,,,,,,,,,,0,24,24,21,1,,,,,,,,,,,,,,,,,,,,,,,
,,,,,WIN24_010,21,non-binary,2024-01-29_13h03.10.666,jersey_experiment_5,2023.2.2,Win32,85.47008547,,,,,,,,,,,,,,,,1101.7317,1103.0256,1103.0257,1104.5433,return,0.9148,,74.47916667,,,,,,FBP-YG-17.png,0.37,1.2,32,0.5,,,,,,,,,,,,,,,,,,0,25,25,31,1,,,,,,,,,,,,,,,,,,,,,,,
,,,,,WIN24_010,21,non-binary,2024-01-29_13h03.10.666,jersey_experiment_5,2023.2.2,Win32,85.47008547,,,,,,,,,,,,,,,,1104.5435,1105.8375,1105.8376,1107.6494,return,0.7586,,99.73958333,,,,,,FBP-YG-19.png,0.43,1.2,44,0.5,,,,,,,,,,,,,,,,,,0,26,26,43,1,,,,,,,,,,,,,,,,,,,,,,,
,,,,,WIN24_010,21,non-binary,2024-01-29_13h03.10.666,jersey_experiment_5,2023.2.2,Win32,85.47008547,,,,,,,,,,,,,,,,1107.6497,1108.9436,1108.9437,1110.1789,return,0.7682,,99.609375,,,,,,FBP-RB-71.png,0.45,1.2,20,0.5,,,,,,,,,,,,,,,,,,0,27,27,19,1,,,,,,,,,,,,,,,,,,,,,,,
,,,,,WIN24_010,21,non-binary,2024-01-29_13h03.10.666,jersey_experiment_5,2023.2.2,Win32,85.47008547,,,,,,,,,,,,,,,,1110.1792,1111.979,1111.979,1114.132,return,0.8277,,85.9375,,,,,,FBP-OG-17.png,0.43,1.2,4,1,,,,,,,,,,,,,,,,,,0,28,28,3,1,,,,,,,,,,,,,,,,,,,,,,,
,,,,,WIN24_010,21,non-binary,2024-01-29_13h03.10.666,jersey_experiment_5,2023.2.2,Win32,85.47008547,,,,,,,,,,,,,,,,1114.1322,1115.4261,1115.4261,1118.9676,return,0.768,,49.86979167,,,,,,FBP-YG-18.png,0.37,1.2,37,0.5,,,,,,,,,,,,,,,,,,0,29,29,36,1,,,,,,,,,,,,,,,,,,,,,,,
,,,,,WIN24_010,21,non-binary,2024-01-29_13h03.10.666,jersey_experiment_5,2023.2.2,Win32,85.47008547,,,,,,,,,,,,,,,,1118.9678,1120.2616,1120.2616,1122.1676,return,0.8849,,74.86979167,,,,,,FBP-RB-91.png,0.43,1.2,29,0.5,,,,,,,,,,,,,,,,,,0,30,30,28,1,,,,,,,,,,,,,,,,,,,,,,,
,,,,,WIN24_010,21,non-binary,2024-01-29_13h03.10.666,jersey_experiment_5,2023.2.2,Win32,85.47008547,,,,,,,,,,,,,,,,1122.1679,1123.9675,1123.9676,1126.6737,return,2.2749,,95.18229167,,,,,,FBP-OG-19.png,0.45,1.2,15,1,,,,,,,,,,,,,,,,,,0,31,31,14,1,,,,,,,,,,,,,,,,,,,,,,,
,,,,,WIN24_010,21,non-binary,2024-01-29_13h03.10.666,jersey_experiment_5,2023.2.2,Win32,85.47008547,,,,,,,,,,,,,,,,1126.6738,1128.474,1128.474,1132.0739,return,2.2969,,56.25,,,,,,FBP-PT-91.png,0.4,1.2,58,1,,,,,,,,,,,,,,,,,,0,32,32,57,1,,,,,,,,,,,,,,,,,,,,,,,
,,,,,WIN24_010,21,non-binary,2024-01-29_13h03.10.666,jersey_experiment_5,2023.2.2,Win32,85.47008547,,,,,,,,,,,,,,,,1132.0741,1133.368,1133.368,1135.921,return,0.6897,,87.23958333,,,,,,FBP-YG-17.png,0.45,1.2,35,0.5,,,,,,,,,,,,,,,,,,0,33,33,34,1,,,,,,,,,,,,,,,,,,,,,,,
,,,,,WIN24_010,21,non-binary,2024-01-29_13h03.10.666,jersey_experiment_5,2023.2.2,Win32,85.47008547,,,,,,,,,,,,,,,,1135.9212,1137.7211,1137.7211,1139.8624,return,0.6727,,74.73958333,,,,,,FBP-OG-17.png,0.37,1.2,2,1,,,,,,,,,,,,,,,,,,0,34,34,1,1,,,,,,,,,,,,,,,,,,,,,,,
,,,,,WIN24_010,21,non-binary,2024-01-29_13h03.10.666,jersey_experiment_5,2023.2.2,Win32,85.47008547,,,,,,,,,,,,,,,,1139.8626,1141.6623,1141.6623,1145.2154,return,0.7958,,87.36979167,,,,,,FBP-PT-81.png,0.43,1.2,54,1,,,,,,,,,,,,,,,,,,0,35,35,53,1,,,,,,,,,,,,,,,,,,,,,,,
,,,,,WIN24_010,21,non-binary,2024-01-29_13h03.10.666,jersey_experiment_5,2023.2.2,Win32,85.47008547,,,,,,,,,,,,,,,,1145.2157,1146.5095,1146.5095,1149.6745,return,0.7057,,75.13020833,,,,,,FBP-RB-71.png,0.4,1.2,18,0.5,,,,,,,,,,,,,,,,,,0,36,36,17,1,,,,,,,,,,,,,,,,,,,,,,,
,,,,,WIN24_010,21,non-binary,2024-01-29_13h03.10.666,jersey_experiment_5,2023.2.2,Win32,85.47008547,,,,,,,,,,,,,,,,1149.6747,1151.4746,1151.4746,1154.2629,return,0.8705,,91.66666667,,,,,,FBP-PT-81.png,0.45,1.2,55,1,,,,,,,,,,,,,,,,,,0,37,37,54,1,,,,,,,,,,,,,,,,,,,,,,,
,,,,,WIN24_010,21,non-binary,2024-01-29_13h03.10.666,jersey_experiment_5,2023.2.2,Win32,85.47008547,,,,,,,,,,,,,,,,1154.2632,1156.063,1156.063,1158.7925,return,0.7636,,99.73958333,,,,,,FBP-OG-17.png,0.45,1.2,5,1,,,,,,,,,,,,,,,,,,0,38,38,4,1,,,,,,,,,,,,,,,,,,,,,,,
,,,,,WIN24_010,21,non-binary,2024-01-29_13h03.10.666,jersey_experiment_5,2023.2.2,Win32,85.47008547,,,,,,,,,,,,,,,,1158.7927,1160.5926,1160.5926,1162.2632,return,0.7049,,75,,,,,,FBP-PT-71.png,0.4,1.2,48,1,,,,,,,,,,,,,,,,,,0,39,39,47,1,,,,,,,,,,,,,,,,,,,,,,,
,,,,,WIN24_010,21,non-binary,2024-01-29_13h03.10.666,jersey_experiment_5,2023.2.2,Win32,85.47008547,,,,,,,,,,,,,,,,1162.2634,1163.5574,1163.5574,1165.6398,return,0.7634,,90.88541667,,,,,,FBP-RB-91.png,0.45,1.2,30,0.5,,,,,,,,,,,,,,,,,,0,40,40,29,1,,,,,,,,,,,,,,,,,,,,,,,
,,,,,WIN24_010,21,non-binary,2024-01-29_13h03.10.666,jersey_experiment_5,2023.2.2,Win32,85.47008547,,,,,,,,,,,,,,,,1165.64,1166.9339,1166.9339,1169.4987,return,0.7395,,86.71875,,,,,,FBP-YG-18.png,0.4,1.2,38,0.5,,,,,,,,,,,,,,,,,,0,41,41,37,1,,,,,,,,,,,,,,,,,,,,,,,
,,,,,WIN24_010,21,non-binary,2024-01-29_13h03.10.666,jersey_experiment_5,2023.2.2,Win32,85.47008547,,,,,,,,,,,,,,,,1169.4989,1171.2988,1171.2988,1174.9695,return,0.752,,46.61458333,,,,,,FBP-PT-71.png,0.35,1.2,46,1,,,,,,,,,,,,,,,,,,0,42,42,45,1,,,,,,,,,,,,,,,,,,,,,,,
,,,,,WIN24_010,21,non-binary,2024-01-29_13h03.10.666,jersey_experiment_5,2023.2.2,Win32,85.47008547,,,,,,,,,,,,,,,,1174.9697,1176.7694,1176.7694,1179.8403,return,0.7594,,49.73958333,,,,,,FBP-PT-71.png,0.37,1.2,47,1,,,,,,,,,,,,,,,,,,0,43,43,46,1,,,,,,,,,,,,,,,,,,,,,,,
,,,,,WIN24_010,21,non-binary,2024-01-29_13h03.10.666,jersey_experiment_5,2023.2.2,Win32,85.47008547,,,,,,,,,,,,,,,,1179.8406,1181.6403,1181.6403,1183.8286,return,0.8507,,49.73958333,,,,,,FBP-PT-91.png,0.37,1.2,57,1,,,,,,,,,,,,,,,,,,0,44,44,56,1,,,,,,,,,,,,,,,,,,,,,,,
,,,,,WIN24_010,21,non-binary,2024-01-29_13h03.10.666,jersey_experiment_5,2023.2.2,Win32,85.47008547,,,,,,,,,,,,,,,,1183.8289,1185.1228,1185.1228,1188.5347,return,0.8114,,24.47916667,,,,,,FBP-YG-18.png,0.35,1.2,36,0.5,,,,,,,,,,,,,,,,,,0,45,45,35,1,,,,,,,,,,,,,,,,,,,,,,,
,,,,,WIN24_010,21,non-binary,2024-01-29_13h03.10.666,jersey_experiment_5,2023.2.2,Win32,85.47008547,,,,,,,,,,,,,,,,1188.5349,1189.8289,1189.8289,1192.4171,return,0.7687,,74.34895833,,,,,,FBP-RB-81.png,0.43,1.2,24,0.5,,,,,,,,,,,,,,,,,,0,46,46,23,1,,,,,,,,,,,,,,,,,,,,,,,
,,,,,WIN24_010,21,non-binary,2024-01-29_13h03.10.666,jersey_experiment_5,2023.2.2,Win32,85.47008547,,,,,,,,,,,,,,,,1192.4174,1193.7114,1193.7114,1195.7703,return,0.7906,,95.703125,,,,,,FBP-RB-81.png,0.45,1.2,25,0.5,,,,,,,,,,,,,,,,,,0,47,47,24,1,,,,,,,,,,,,,,,,,,,,,,,
,,,,,WIN24_010,21,non-binary,2024-01-29_13h03.10.666,jersey_experiment_5,2023.2.2,Win32,85.47008547,,,,,,,,,,,,,,,,1195.7705,1197.5705,1197.5705,1200.6175,return,0.8698,,24.86979167,,,,,,FBP-OG-17.png,0.35,1.2,1,1,,,,,,,,,,,,,,,,,,0,48,48,0,1,,,,,,,,,,,,,,,,,,,,,,,
,,,,,WIN24_010,21,non-binary,2024-01-29_13h03.10.666,jersey_experiment_5,2023.2.2,Win32,85.47008547,,,,,,,,,,,,,,,,1200.6178,1202.4177,1202.4177,1204.4646,return,0.6426,,75,,,,,,FBP-PT-71.png,0.43,1.2,49,1,,,,,,,,,,,,,,,,,,0,49,49,48,1,,,,,,,,,,,,,,,,,,,,,,,
,,,,,WIN24_010,21,non-binary,2024-01-29_13h03.10.666,jersey_experiment_5,2023.2.2,Win32,85.47008547,,,,,,,,,,,,,,,,1204.4648,1205.7589,1205.7589,1207.1353,return,0.7031,,74.86979167,,,,,,FBP-RB-91.png,0.4,1.2,28,0.5,,,,,,,,,,,,,,,,,,0,50,50,27,1,,,,,,,,,,,,,,,,,,,,,,,
,,,,,WIN24_010,21,non-binary,2024-01-29_13h03.10.666,jersey_experiment_5,2023.2.2,Win32,85.47008547,,,,,,,,,,,,,,,,1207.1355,1208.4296,1208.4296,1211.2414,return,0.7865,,45.703125,,,,,,FBP-RB-91.png,0.35,1.2,26,0.5,,,,,,,,,,,,,,,,,,0,51,51,25,1,,,,,,,,,,,,,,,,,,,,,,,
,,,,,WIN24_010,21,non-binary,2024-01-29_13h03.10.666,jersey_experiment_5,2023.2.2,Win32,85.47008547,,,,,,,,,,,,,,,,1211.2416,1213.0416,1213.0416,1215.618,return,0.6179,,74.86979167,,,,,,FBP-OG-19.png,0.43,1.2,14,1,,,,,,,,,,,,,,,,,,0,52,52,13,1,,,,,,,,,,,,,,,,,,,,,,,
,,,,,WIN24_010,21,non-binary,2024-01-29_13h03.10.666,jersey_experiment_5,2023.2.2,Win32,85.47008547,,,,,,,,,,,,,,,,1215.6181,1217.4181,1217.4181,1218.771,return,0.7907,,74.609375,,,,,,FBP-OG-17.png,0.4,1.2,3,1,,,,,,,,,,,,,,,,,,0,53,53,2,1,,,,,,,,,,,,,,,,,,,,,,,
,,,,,WIN24_010,21,non-binary,2024-01-29_13h03.10.666,jersey_experiment_5,2023.2.2,Win32,85.47008547,,,,,,,,,,,,,,,,1218.7712,1220.0652,1220.0652,1223.4184,return,0.767,,63.54166667,,,,,,FBP-YG-17.png,0.4,1.2,33,0.5,,,,,,,,,,,,,,,,,,0,54,54,32,1,,,,,,,,,,,,,,,,,,,,,,,
,,,,,WIN24_010,21,non-binary,2024-01-29_13h03.10.666,jersey_experiment_5,2023.2.2,Win32,85.47008547,,,,,,,,,,,,,,,,1223.4185,1224.7125,1224.7125,1227.1714,return,0.6398,,50,,,,,,FBP-RB-91.png,0.37,1.2,27,0.5,,,,,,,,,,,,,,,,,,0,55,55,26,1,,,,,,,,,,,,,,,,,,,,,,,
,,,,,WIN24_010,21,non-binary,2024-01-29_13h03.10.666,jersey_experiment_5,2023.2.2,Win32,85.47008547,,,,,,,,,,,,,,,,1227.1715,1228.4655,1228.4655,1233.2421,return,0.6594,,63.671875,,,,,,FBP-RB-81.png,0.4,1.2,23,0.5,,,,,,,,,,,,,,,,,,0,56,56,22,1,,,,,,,,,,,,,,,,,,,,,,,
,,,,,WIN24_010,21,non-binary,2024-01-29_13h03.10.666,jersey_experiment_5,2023.2.2,Win32,85.47008547,,,,,,,,,,,,,,,,1233.2424,1235.0423,1235.0423,1236.8188,return,0.6507,,86.45833333,,,,,,FBP-PT-71.png,0.45,1.2,50,1,,,,,,,,,,,,,,,,,,0,57,57,49,1,,,,,,,,,,,,,,,,,,,,,,,
,,,,,WIN24_010,21,non-binary,2024-01-29_13h03.10.666,jersey_experiment_5,2023.2.2,Win32,85.47008547,,,,,,,,,,,,,,,,1236.819,1238.6191,1238.6191,1242.5837,return,1.0457,,49.73958333,,,,,,FBP-OG-18.png,0.4,1.2,8,1,,,,,,,,,,,,,,,,,,0,58,58,7,1,,,,,,,,,,,,,,,,,,,,,,,
,,,,,WIN24_010,21,non-binary,2024-01-29_13h03.10.666,jersey_experiment_5,2023.2.2,Win32,85.47008547,,,,,,,,,,,,,,,,1242.5839,1244.3838,1244.3839,1245.925,return,0.8032,,49.73958333,,,,,,FBP-PT-81.png,0.37,1.2,52,1,,,,,,,,,,,,,,,,,,0,59,59,51,1,,,,,,,,,,,,,,,,,,,,,,,
,,,,,WIN24_010,21,non-binary,2024-01-29_13h03.10.666,jersey_experiment_5,2023.2.2,Win32,85.47008547,,,,,,,,,,,,,,,,,,,,,,,,,,,,,,,,,,,,,,,,,,,,,,,,,,,,,,,,1245.9254,1251.8667,return,5.9294,,,,,,,,,,,,,,,,,,,
,,,,,WIN24_010,21,non-binary,2024-01-29_13h03.10.666,jersey_experiment_5,2023.2.2,Win32,85.47008547,,,,,,,,,,,,,,,,,,,,,,,,,,,,,,,,,,,,,,,,,,,,,,,,,,,,,,,,,,,,,1251.8668,1259.1139,1,5.5879,return,1.6378,,,,,,,,,,,,
,,,,,WIN24_010,21,non-binary,2024-01-29_13h03.10.666,jersey_experiment_5,2023.2.2,Win32,85.47008547,,,,,,,,,,,,,,,,,,,,,,,,,,,,,,,,,,,,,,,,,,,,,,,,,,,,,,,,,,,,,,,,,,,,1259.114,1292.8686,I'm not sure what the study is about but i did recognoze that the ,right,26.0375,,,,,,
,,,,,WIN24_010,21,non-binary,2024-01-29_13h03.10.666,jersey_experiment_5,2023.2.2,Win32,85.47008547,,,,,,,,,,,,,,,,,,,,,,,,,,,,,,,,,,,,,,,,,,,,,,,,,,,,,,,,,,,,,,,,,,,,,,,,,,1292.8687,1297.6682,return,4.7797,