requirements.started,requirements.stopped,key_resp_3.keys,key_resp_3.rt,key_resp_3.duration,Subject ID,Age,Gender,date,expName,psychopyVersion,OS,frameRate,instructions1.started,instructions1.stopped,key_resp.keys,key_resp.rt,key_resp.duration,example.started,example.stopped,enter_2.keys,enter_2.rt,enter_2.duration,instructions2.started,instructions2.stopped,enter_3.keys,enter_3.rt,enter_3.duration,image.started,image.stopped,slider_2.started,slider_2.stopped,next.keys,next.rt,next.duration,slider.response,trial_block_1.thisRepN,trial_block_1.thisTrialN,trial_block_1.thisN,trial_block_1.thisIndex,trial_block_1.ran,Path,Width,Height,Index,Duration,trial_block_2.thisRepN,trial_block_2.thisTrialN,trial_block_2.thisN,trial_block_2.thisIndex,trial_block_2.ran,rest_break.started,rest_break.stopped,end_break.started,end_break.stopped,key_resp_5.keys,key_resp_5.rt,key_resp_5.duration,trial_block_3.thisRepN,trial_block_3.thisTrialN,trial_block_3.thisN,trial_block_3.thisIndex,trial_block_3.ran,trial_block_4.thisRepN,trial_block_4.thisTrialN,trial_block_4.thisN,trial_block_4.thisIndex,trial_block_4.ran,questions_intro.started,questions_intro.stopped,enter_12.keys,enter_12.rt,enter_12.duration,question2.started,question2.stopped,question_doingbest.response,question_doingbest.rt,enter_15.keys,enter_15.rt,enter_15.duration,pattern.started,pattern.stopped,pattern_2.text,enter_17.keys,enter_17.rt,enter_17.duration,thankyou.started,thankyou.stopped,enter_14.keys,enter_14.rt,enter_14.duration
0.0002,8.1807,return,8.1766,,WIN24_070,22,female,2024-02-23_13h00.34.650,jersey_experiment_5,2023.2.2,Win32,84.74576271,,,,,,,,,,,,,,,,,,,,,,,,,,,,,,,,,,,,,,,,,,,,,,,,,,,,,,,,,,,,,,,,,,,,,,,,,,,,,,
,,,,,WIN24_070,22,female,2024-02-23_13h00.34.650,jersey_experiment_5,2023.2.2,Win32,84.74576271,8.1807,13.4835,return,5.2909,,,,,,,,,,,,,,,,,,,,,,,,,,,,,,,,,,,,,,,,,,,,,,,,,,,,,,,,,,,,,,,,,,,,,,,,,,
,,,,,WIN24_070,22,female,2024-02-23_13h00.34.650,jersey_experiment_5,2023.2.2,Win32,84.74576271,,,,,,13.4836,16.2366,return,2.7194,,,,,,,,,,,,,,,,,,,,,,,,,,,,,,,,,,,,,,,,,,,,,,,,,,,,,,,,,,,,,,,,,,,,,
,,,,,WIN24_070,22,female,2024-02-23_13h00.34.650,jersey_experiment_5,2023.2.2,Win32,84.74576271,,,,,,,,,,,16.2367,32.6142,return,16.3635,,,,,,,,,,,,,,,,,,,,,,,,,,,,,,,,,,,,,,,,,,,,,,,,,,,,,,,,,,,,,,,,
,,,,,WIN24_070,22,female,2024-02-23_13h00.34.650,jersey_experiment_5,2023.2.2,Win32,84.74576271,,,,,,,,,,,,,,,,32.6268,33.9194,33.9194,41.5903,return,2.1564,,50.13020833,0,0,0,13,1,FBP-OG-91.png,0.43,1.2,14,0.5,,,,,,,,,,,,,,,,,,,,,,,,,,,,,,,,,,,,,,,,,,,,,
,,,,,WIN24_070,22,female,2024-02-23_13h00.34.650,jersey_experiment_5,2023.2.2,Win32,84.74576271,,,,,,,,,,,,,,,,41.5907,43.3903,43.3903,45.5668,return,0.7467,,74.86979167,0,1,1,23,1,FBP-RB-18.png,0.43,1.2,24,1,,,,,,,,,,,,,,,,,,,,,,,,,,,,,,,,,,,,,,,,,,,,,
,,,,,WIN24_070,22,female,2024-02-23_13h00.34.650,jersey_experiment_5,2023.2.2,Win32,84.74576271,,,,,,,,,,,,,,,,45.5671,47.3672,47.3672,48.7671,return,0.6871,,74.609375,0,2,2,42,1,FBP-YG-91.png,0.4,1.2,43,1,,,,,,,,,,,,,,,,,,,,,,,,,,,,,,,,,,,,,,,,,,,,,
,,,,,WIN24_070,22,female,2024-02-23_13h00.34.650,jersey_experiment_5,2023.2.2,Win32,84.74576271,,,,,,,,,,,,,,,,48.7677,50.0611,50.0612,51.2494,return,0.5675,,74.609375,0,3,3,6,1,FBP-OG-81.png,0.37,1.2,7,0.5,,,,,,,,,,,,,,,,,,,,,,,,,,,,,,,,,,,,,,,,,,,,,
,,,,,WIN24_070,22,female,2024-02-23_13h00.34.650,jersey_experiment_5,2023.2.2,Win32,84.74576271,,,,,,,,,,,,,,,,51.2496,52.5437,52.5437,53.7319,return,0.6125,,74.609375,0,4,4,11,1,FBP-OG-91.png,0.37,1.2,12,0.5,,,,,,,,,,,,,,,,,,,,,,,,,,,,,,,,,,,,,,,,,,,,,
,,,,,WIN24_070,22,female,2024-02-23_13h00.34.650,jersey_experiment_5,2023.2.2,Win32,84.74576271,,,,,,,,,,,,,,,,53.7323,55.026,55.026,57.2966,return,1.8154,,74.609375,0,5,5,2,1,FBP-OG-71.png,0.4,1.2,3,0.5,,,,,,,,,,,,,,,,,,,,,,,,,,,,,,,,,,,,,,,,,,,,,
,,,,,WIN24_070,22,female,2024-02-23_13h00.34.650,jersey_experiment_5,2023.2.2,Win32,84.74576271,,,,,,,,,,,,,,,,57.2971,58.5908,58.5908,60.3676,return,0.6049,,99.08854167,0,6,6,14,1,FBP-OG-91.png,0.45,1.2,15,0.5,,,,,,,,,,,,,,,,,,,,,,,,,,,,,,,,,,,,,,,,,,,,,
,,,,,WIN24_070,22,female,2024-02-23_13h00.34.650,jersey_experiment_5,2023.2.2,Win32,84.74576271,,,,,,,,,,,,,,,,60.3678,61.6615,61.6615,62.9322,return,0.7177,,98.95833333,0,7,7,54,1,FBP-PT-18.png,0.45,1.2,55,0.5,,,,,,,,,,,,,,,,,,,,,,,,,,,,,,,,,,,,,,,,,,,,,
,,,,,WIN24_070,22,female,2024-02-23_13h00.34.650,jersey_experiment_5,2023.2.2,Win32,84.74576271,,,,,,,,,,,,,,,,62.9324,64.7323,64.7324,66.1089,return,0.678,,99.21875,0,8,8,39,1,FBP-YG-81.png,0.45,1.2,40,1,,,,,,,,,,,,,,,,,,,,,,,,,,,,,,,,,,,,,,,,,,,,,
,,,,,WIN24_070,22,female,2024-02-23_13h00.34.650,jersey_experiment_5,2023.2.2,Win32,84.74576271,,,,,,,,,,,,,,,,66.1091,67.403,67.4031,69.8266,return,1.5518,,86.06770833,0,9,9,57,1,FBP-PT-19.png,0.4,1.2,58,0.5,,,,,,,,,,,,,,,,,,,,,,,,,,,,,,,,,,,,,,,,,,,,,
,,,,,WIN24_070,22,female,2024-02-23_13h00.34.650,jersey_experiment_5,2023.2.2,Win32,84.74576271,,,,,,,,,,,,,,,,69.8268,71.1208,71.1208,73.1091,return,0.6351,,60.28645833,0,10,10,45,1,FBP-PT-17.png,0.35,1.2,46,0.5,,,,,,,,,,,,,,,,,,,,,,,,,,,,,,,,,,,,,,,,,,,,,
,,,,,WIN24_070,22,female,2024-02-23_13h00.34.650,jersey_experiment_5,2023.2.2,Win32,84.74576271,,,,,,,,,,,,,,,,73.1093,74.4031,74.4032,76.4152,return,0.6293,,75.26041667,0,11,11,52,1,FBP-PT-18.png,0.4,1.2,53,0.5,,,,,,,,,,,,,,,,,,,,,,,,,,,,,,,,,,,,,,,,,,,,,
,,,,,WIN24_070,22,female,2024-02-23_13h00.34.650,jersey_experiment_5,2023.2.2,Win32,84.74576271,,,,,,,,,,,,,,,,76.4156,77.7092,77.7092,79.1681,return,0.5807,,93.359375,0,12,12,9,1,FBP-OG-81.png,0.45,1.2,10,0.5,,,,,,,,,,,,,,,,,,,,,,,,,,,,,,,,,,,,,,,,,,,,,
,,,,,WIN24_070,22,female,2024-02-23_13h00.34.650,jersey_experiment_5,2023.2.2,Win32,84.74576271,,,,,,,,,,,,,,,,79.1682,80.4623,80.4623,83.3566,return,2.1729,,73.95833333,0,13,13,51,1,FBP-PT-18.png,0.37,1.2,52,0.5,,,,,,,,,,,,,,,,,,,,,,,,,,,,,,,,,,,,,,,,,,,,,
,,,,,WIN24_070,22,female,2024-02-23_13h00.34.650,jersey_experiment_5,2023.2.2,Win32,84.74576271,,,,,,,,,,,,,,,,83.3569,84.6506,84.6506,86.2037,return,0.5381,,74.47916667,0,14,14,0,1,FBP-OG-71.png,0.35,1.2,1,0.5,,,,,,,,,,,,,,,,,,,,,,,,,,,,,,,,,,,,,,,,,,,,,
,,,,,WIN24_070,22,female,2024-02-23_13h00.34.650,jersey_experiment_5,2023.2.2,Win32,84.74576271,,,,,,,,,,,,,,,,86.2039,87.4978,87.4978,88.7213,return,0.5562,,80.72916667,0,15,15,53,1,FBP-PT-18.png,0.43,1.2,54,0.5,,,,,,,,,,,,,,,,,,,,,,,,,,,,,,,,,,,,,,,,,,,,,
,,,,,WIN24_070,22,female,2024-02-23_13h00.34.650,jersey_experiment_5,2023.2.2,Win32,84.74576271,,,,,,,,,,,,,,,,88.7215,90.5215,90.5216,93.6627,return,2.3471,,50.390625,0,16,16,20,1,FBP-RB-18.png,0.35,1.2,21,1,,,,,,,,,,,,,,,,,,,,,,,,,,,,,,,,,,,,,,,,,,,,,
,,,,,WIN24_070,22,female,2024-02-23_13h00.34.650,jersey_experiment_5,2023.2.2,Win32,84.74576271,,,,,,,,,,,,,,,,93.663,95.4628,95.4628,97.1571,return,0.542,,75,0,17,17,21,1,FBP-RB-18.png,0.37,1.2,22,1,,,,,,,,,,,,,,,,,,,,,,,,,,,,,,,,,,,,,,,,,,,,,
,,,,,WIN24_070,22,female,2024-02-23_13h00.34.650,jersey_experiment_5,2023.2.2,Win32,84.74576271,,,,,,,,,,,,,,,,97.1575,98.9571,98.9571,100.1103,return,0.6537,,74.73958333,0,18,18,41,1,FBP-YG-91.png,0.37,1.2,42,1,,,,,,,,,,,,,,,,,,,,,,,,,,,,,,,,,,,,,,,,,,,,,
,,,,,WIN24_070,22,female,2024-02-23_13h00.34.650,jersey_experiment_5,2023.2.2,Win32,84.74576271,,,,,,,,,,,,,,,,100.1106,101.9101,101.9102,103.0867,return,0.6294,,74.73958333,0,19,19,17,1,FBP-RB-17.png,0.4,1.2,18,1,,,,,,,,,,,,,,,,,,,,,,,,,,,,,,,,,,,,,,,,,,,,,
,,,,,WIN24_070,22,female,2024-02-23_13h00.34.650,jersey_experiment_5,2023.2.2,Win32,84.74576271,,,,,,,,,,,,,,,,103.087,104.3808,104.3808,105.9222,return,0.8856,,74.73958333,0,20,20,47,1,FBP-PT-17.png,0.4,1.2,48,0.5,,,,,,,,,,,,,,,,,,,,,,,,,,,,,,,,,,,,,,,,,,,,,
,,,,,WIN24_070,22,female,2024-02-23_13h00.34.650,jersey_experiment_5,2023.2.2,Win32,84.74576271,,,,,,,,,,,,,,,,105.9224,107.2162,107.2162,108.734,return,0.698,,85.02604167,0,21,21,3,1,FBP-OG-71.png,0.43,1.2,4,0.5,,,,,,,,,,,,,,,,,,,,,,,,,,,,,,,,,,,,,,,,,,,,,
,,,,,WIN24_070,22,female,2024-02-23_13h00.34.650,jersey_experiment_5,2023.2.2,Win32,84.74576271,,,,,,,,,,,,,,,,108.7344,110.0281,110.0281,111.6635,return,0.4732,,74.609375,0,22,22,56,1,FBP-PT-19.png,0.37,1.2,57,0.5,,,,,,,,,,,,,,,,,,,,,,,,,,,,,,,,,,,,,,,,,,,,,
,,,,,WIN24_070,22,female,2024-02-23_13h00.34.650,jersey_experiment_5,2023.2.2,Win32,84.74576271,,,,,,,,,,,,,,,,111.6637,113.4635,113.4635,114.4988,return,0.5753,,83.07291667,0,23,23,16,1,FBP-RB-17.png,0.37,1.2,17,1,,,,,,,,,,,,,,,,,,,,,,,,,,,,,,,,,,,,,,,,,,,,,
,,,,,WIN24_070,22,female,2024-02-23_13h00.34.650,jersey_experiment_5,2023.2.2,Win32,84.74576271,,,,,,,,,,,,,,,,114.4991,116.2989,116.2989,117.346,return,0.5676,,93.75,0,24,24,19,1,FBP-RB-17.png,0.45,1.2,20,1,,,,,,,,,,,,,,,,,,,,,,,,,,,,,,,,,,,,,,,,,,,,,
,,,,,WIN24_070,22,female,2024-02-23_13h00.34.650,jersey_experiment_5,2023.2.2,Win32,84.74576271,,,,,,,,,,,,,,,,117.3464,118.6401,118.6401,120.3343,return,0.5704,,77.08333333,0,25,25,7,1,FBP-OG-81.png,0.4,1.2,8,0.5,,,,,,,,,,,,,,,,,,,,,,,,,,,,,,,,,,,,,,,,,,,,,
,,,,,WIN24_070,22,female,2024-02-23_13h00.34.650,jersey_experiment_5,2023.2.2,Win32,84.74576271,,,,,,,,,,,,,,,,120.3345,121.6286,121.6286,124.911,return,1.0878,,62.109375,0,26,26,55,1,FBP-PT-19.png,0.35,1.2,56,0.5,,,,,,,,,,,,,,,,,,,,,,,,,,,,,,,,,,,,,,,,,,,,,
,,,,,WIN24_070,22,female,2024-02-23_13h00.34.650,jersey_experiment_5,2023.2.2,Win32,84.74576271,,,,,,,,,,,,,,,,124.9113,126.7112,126.7113,128.3229,return,0.6388,,49.34895833,0,27,27,30,1,FBP-YG-71.png,0.35,1.2,31,1,,,,,,,,,,,,,,,,,,,,,,,,,,,,,,,,,,,,,,,,,,,,,
,,,,,WIN24_070,22,female,2024-02-23_13h00.34.650,jersey_experiment_5,2023.2.2,Win32,84.74576271,,,,,,,,,,,,,,,,128.3232,129.6171,129.6171,131.1817,return,0.524,,38.28125,0,28,28,1,1,FBP-OG-71.png,0.37,1.2,2,0.5,,,,,,,,,,,,,,,,,,,,,,,,,,,,,,,,,,,,,,,,,,,,,
,,,,,WIN24_070,22,female,2024-02-23_13h00.34.650,jersey_experiment_5,2023.2.2,Win32,84.74576271,,,,,,,,,,,,,,,,131.182,132.4759,132.4759,134.5113,return,0.5227,,89.71354167,0,29,29,4,1,FBP-OG-71.png,0.45,1.2,5,0.5,,,,,,,,,,,,,,,,,,,,,,,,,,,,,,,,,,,,,,,,,,,,,
,,,,,WIN24_070,22,female,2024-02-23_13h00.34.650,jersey_experiment_5,2023.2.2,Win32,84.74576271,,,,,,,,,,,,,,,,134.5116,135.8054,135.8055,137.1233,return,0.5631,,75,0,30,30,12,1,FBP-OG-91.png,0.4,1.2,13,0.5,,,,,,,,,,,,,,,,,,,,,,,,,,,,,,,,,,,,,,,,,,,,,
,,,,,WIN24_070,22,female,2024-02-23_13h00.34.650,jersey_experiment_5,2023.2.2,Win32,84.74576271,,,,,,,,,,,,,,,,137.1235,138.9233,138.9233,141.4998,return,0.5853,,98.046875,0,31,31,29,1,FBP-RB-19.png,0.45,1.2,30,1,,,,,,,,,,,,,,,,,,,,,,,,,,,,,,,,,,,,,,,,,,,,,
,,,,,WIN24_070,22,female,2024-02-23_13h00.34.650,jersey_experiment_5,2023.2.2,Win32,84.74576271,,,,,,,,,,,,,,,,141.5,143.3,143.3001,145.0295,return,0.6093,,75.13020833,0,32,32,37,1,FBP-YG-81.png,0.4,1.2,38,1,,,,,,,,,,,,,,,,,,,,,,,,,,,,,,,,,,,,,,,,,,,,,
,,,,,WIN24_070,22,female,2024-02-23_13h00.34.650,jersey_experiment_5,2023.2.2,Win32,84.74576271,,,,,,,,,,,,,,,,145.0297,146.8295,146.8296,148.5471,return,0.6132,,99.34895833,0,33,33,34,1,FBP-YG-71.png,0.45,1.2,35,1,,,,,,,,,,,,,,,,,,,,,,,,,,,,,,,,,,,,,,,,,,,,,
,,,,,WIN24_070,22,female,2024-02-23_13h00.34.650,jersey_experiment_5,2023.2.2,Win32,84.74576271,,,,,,,,,,,,,,,,148.5474,150.3474,150.3474,152.065,return,0.5563,,25,0,34,34,15,1,FBP-RB-17.png,0.35,1.2,16,1,,,,,,,,,,,,,,,,,,,,,,,,,,,,,,,,,,,,,,,,,,,,,
,,,,,WIN24_070,22,female,2024-02-23_13h00.34.650,jersey_experiment_5,2023.2.2,Win32,84.74576271,,,,,,,,,,,,,,,,152.0652,153.865,153.865,156.0769,return,0.5722,,75.13020833,0,35,35,28,1,FBP-RB-19.png,0.43,1.2,29,1,,,,,,,,,,,,,,,,,,,,,,,,,,,,,,,,,,,,,,,,,,,,,
,,,,,WIN24_070,22,female,2024-02-23_13h00.34.650,jersey_experiment_5,2023.2.2,Win32,84.74576271,,,,,,,,,,,,,,,,156.0772,157.371,157.3711,159.5828,return,0.5939,,36.71875,0,36,36,5,1,FBP-OG-81.png,0.35,1.2,6,0.5,,,,,,,,,,,,,,,,,,,,,,,,,,,,,,,,,,,,,,,,,,,,,
,,,,,WIN24_070,22,female,2024-02-23_13h00.34.650,jersey_experiment_5,2023.2.2,Win32,84.74576271,,,,,,,,,,,,,,,,159.5831,160.877,160.877,162.9947,return,0.8843,,86.71875,0,37,37,8,1,FBP-OG-81.png,0.43,1.2,9,0.5,,,,,,,,,,,,,,,,,,,,,,,,,,,,,,,,,,,,,,,,,,,,,
,,,,,WIN24_070,22,female,2024-02-23_13h00.34.650,jersey_experiment_5,2023.2.2,Win32,84.74576271,,,,,,,,,,,,,,,,162.995,164.7949,164.7949,166.2067,return,0.5351,,95.3125,0,38,38,38,1,FBP-YG-81.png,0.43,1.2,39,1,,,,,,,,,,,,,,,,,,,,,,,,,,,,,,,,,,,,,,,,,,,,,
,,,,,WIN24_070,22,female,2024-02-23_13h00.34.650,jersey_experiment_5,2023.2.2,Win32,84.74576271,,,,,,,,,,,,,,,,166.207,168.0066,168.0067,170.5716,return,0.5505,,84.375,0,39,39,43,1,FBP-YG-91.png,0.43,1.2,44,1,,,,,,,,,,,,,,,,,,,,,,,,,,,,,,,,,,,,,,,,,,,,,
,,,,,WIN24_070,22,female,2024-02-23_13h00.34.650,jersey_experiment_5,2023.2.2,Win32,84.74576271,,,,,,,,,,,,,,,,170.572,172.3716,172.3716,173.7245,return,0.4905,,93.75,0,40,40,18,1,FBP-RB-17.png,0.43,1.2,19,1,,,,,,,,,,,,,,,,,,,,,,,,,,,,,,,,,,,,,,,,,,,,,
,,,,,WIN24_070,22,female,2024-02-23_13h00.34.650,jersey_experiment_5,2023.2.2,Win32,84.74576271,,,,,,,,,,,,,,,,173.7249,175.5247,175.5247,177.3248,return,0.5724,,49.47916667,0,41,41,26,1,FBP-RB-19.png,0.37,1.2,27,1,,,,,,,,,,,,,,,,,,,,,,,,,,,,,,,,,,,,,,,,,,,,,
,,,,,WIN24_070,22,female,2024-02-23_13h00.34.650,jersey_experiment_5,2023.2.2,Win32,84.74576271,,,,,,,,,,,,,,,,177.3252,178.6189,178.619,180.8779,return,0.5832,,97.39583333,0,42,42,59,1,FBP-PT-19.png,0.45,1.2,60,0.5,,,,,,,,,,,,,,,,,,,,,,,,,,,,,,,,,,,,,,,,,,,,,
,,,,,WIN24_070,22,female,2024-02-23_13h00.34.650,jersey_experiment_5,2023.2.2,Win32,84.74576271,,,,,,,,,,,,,,,,180.8788,182.1721,182.1721,183.4075,return,0.6988,,97.39583333,0,43,43,48,1,FBP-PT-17.png,0.43,1.2,49,0.5,,,,,,,,,,,,,,,,,,,,,,,,,,,,,,,,,,,,,,,,,,,,,
,,,,,WIN24_070,22,female,2024-02-23_13h00.34.650,jersey_experiment_5,2023.2.2,Win32,84.74576271,,,,,,,,,,,,,,,,183.4081,184.7015,184.7015,186.7487,return,0.499,,87.890625,0,44,44,58,1,FBP-PT-19.png,0.43,1.2,59,0.5,,,,,,,,,,,,,,,,,,,,,,,,,,,,,,,,,,,,,,,,,,,,,
,,,,,WIN24_070,22,female,2024-02-23_13h00.34.650,jersey_experiment_5,2023.2.2,Win32,84.74576271,,,,,,,,,,,,,,,,186.749,188.5489,188.5489,189.584,return,0.4866,,92.578125,0,45,45,33,1,FBP-YG-71.png,0.43,1.2,34,1,,,,,,,,,,,,,,,,,,,,,,,,,,,,,,,,,,,,,,,,,,,,,
,,,,,WIN24_070,22,female,2024-02-23_13h00.34.650,jersey_experiment_5,2023.2.2,Win32,84.74576271,,,,,,,,,,,,,,,,189.5846,191.3841,191.3841,194.1019,return,0.565,,49.34895833,0,46,46,31,1,FBP-YG-71.png,0.37,1.2,32,1,,,,,,,,,,,,,,,,,,,,,,,,,,,,,,,,,,,,,,,,,,,,,
,,,,,WIN24_070,22,female,2024-02-23_13h00.34.650,jersey_experiment_5,2023.2.2,Win32,84.74576271,,,,,,,,,,,,,,,,194.1024,195.902,195.902,196.949,return,0.6002,,49.34895833,0,47,47,36,1,FBP-YG-81.png,0.37,1.2,37,1,,,,,,,,,,,,,,,,,,,,,,,,,,,,,,,,,,,,,,,,,,,,,
,,,,,WIN24_070,22,female,2024-02-23_13h00.34.650,jersey_experiment_5,2023.2.2,Win32,84.74576271,,,,,,,,,,,,,,,,196.9493,198.7489,198.749,200.7256,return,0.4916,,75.390625,0,48,48,24,1,FBP-RB-18.png,0.45,1.2,25,1,,,,,,,,,,,,,,,,,,,,,,,,,,,,,,,,,,,,,,,,,,,,,
,,,,,WIN24_070,22,female,2024-02-23_13h00.34.650,jersey_experiment_5,2023.2.2,Win32,84.74576271,,,,,,,,,,,,,,,,200.7259,202.5256,202.5257,203.5374,return,0.5767,,75.390625,0,49,49,27,1,FBP-RB-19.png,0.4,1.2,28,1,,,,,,,,,,,,,,,,,,,,,,,,,,,,,,,,,,,,,,,,,,,,,
,,,,,WIN24_070,22,female,2024-02-23_13h00.34.650,jersey_experiment_5,2023.2.2,Win32,84.74576271,,,,,,,,,,,,,,,,203.5376,204.8316,204.8316,206.8788,return,0.5582,,61.58854167,0,50,50,50,1,FBP-PT-18.png,0.35,1.2,51,0.5,,,,,,,,,,,,,,,,,,,,,,,,,,,,,,,,,,,,,,,,,,,,,
,,,,,WIN24_070,22,female,2024-02-23_13h00.34.650,jersey_experiment_5,2023.2.2,Win32,84.74576271,,,,,,,,,,,,,,,,206.8791,208.173,208.173,209.6317,return,0.5693,,50.52083333,0,51,51,46,1,FBP-PT-17.png,0.37,1.2,47,0.5,,,,,,,,,,,,,,,,,,,,,,,,,,,,,,,,,,,,,,,,,,,,,
,,,,,WIN24_070,22,female,2024-02-23_13h00.34.650,jersey_experiment_5,2023.2.2,Win32,84.74576271,,,,,,,,,,,,,,,,209.6322,210.9259,210.9259,212.4319,return,0.4841,,24.21875,0,52,52,10,1,FBP-OG-91.png,0.35,1.2,11,0.5,,,,,,,,,,,,,,,,,,,,,,,,,,,,,,,,,,,,,,,,,,,,,
,,,,,WIN24_070,22,female,2024-02-23_13h00.34.650,jersey_experiment_5,2023.2.2,Win32,84.74576271,,,,,,,,,,,,,,,,212.4321,214.2321,214.2321,215.7261,return,0.5476,,74.34895833,0,53,53,32,1,FBP-YG-71.png,0.4,1.2,33,1,,,,,,,,,,,,,,,,,,,,,,,,,,,,,,,,,,,,,,,,,,,,,
,,,,,WIN24_070,22,female,2024-02-23_13h00.34.650,jersey_experiment_5,2023.2.2,Win32,84.74576271,,,,,,,,,,,,,,,,215.7263,217.5262,217.5262,218.5498,return,0.565,,74.34895833,0,54,54,22,1,FBP-RB-18.png,0.4,1.2,23,1,,,,,,,,,,,,,,,,,,,,,,,,,,,,,,,,,,,,,,,,,,,,,
,,,,,WIN24_070,22,female,2024-02-23_13h00.34.650,jersey_experiment_5,2023.2.2,Win32,84.74576271,,,,,,,,,,,,,,,,218.5501,219.844,219.844,221.3734,return,0.6746,,88.02083333,0,55,55,49,1,FBP-PT-17.png,0.45,1.2,50,0.5,,,,,,,,,,,,,,,,,,,,,,,,,,,,,,,,,,,,,,,,,,,,,
,,,,,WIN24_070,22,female,2024-02-23_13h00.34.650,jersey_experiment_5,2023.2.2,Win32,84.74576271,,,,,,,,,,,,,,,,221.3736,223.1735,223.1736,224.6676,return,0.6089,,25.78125,0,56,56,35,1,FBP-YG-81.png,0.35,1.2,36,1,,,,,,,,,,,,,,,,,,,,,,,,,,,,,,,,,,,,,,,,,,,,,
,,,,,WIN24_070,22,female,2024-02-23_13h00.34.650,jersey_experiment_5,2023.2.2,Win32,84.74576271,,,,,,,,,,,,,,,,224.6679,226.4677,226.4677,227.7736,return,0.5478,,25,0,57,57,40,1,FBP-YG-91.png,0.35,1.2,41,1,,,,,,,,,,,,,,,,,,,,,,,,,,,,,,,,,,,,,,,,,,,,,
,,,,,WIN24_070,22,female,2024-02-23_13h00.34.650,jersey_experiment_5,2023.2.2,Win32,84.74576271,,,,,,,,,,,,,,,,227.7739,229.5738,229.5738,231.2209,return,0.5294,,97.52604167,0,58,58,44,1,FBP-YG-91.png,0.45,1.2,45,1,,,,,,,,,,,,,,,,,,,,,,,,,,,,,,,,,,,,,,,,,,,,,
,,,,,WIN24_070,22,female,2024-02-23_13h00.34.650,jersey_experiment_5,2023.2.2,Win32,84.74576271,,,,,,,,,,,,,,,,231.2211,233.021,233.021,235.28,return,1.0045,,36.58854167,0,59,59,25,1,FBP-RB-19.png,0.35,1.2,26,1,,,,,,,,,,,,,,,,,,,,,,,,,,,,,,,,,,,,,,,,,,,,,
,,,,,WIN24_070,22,female,2024-02-23_13h00.34.650,jersey_experiment_5,2023.2.2,Win32,84.74576271,,,,,,,,,,,,,,,,235.2835,236.5857,236.5858,238.4683,return,0.5862,,99.73958333,,,,,,FBP-OG-17.png,0.45,1.2,5,0.5,0,0,0,4,1,,,,,,,,,,,,,,,,,,,,,,,,,,,,,,,,,,,,,,,,
,,,,,WIN24_070,22,female,2024-02-23_13h00.34.650,jersey_experiment_5,2023.2.2,Win32,84.74576271,,,,,,,,,,,,,,,,238.4686,239.7624,239.7624,240.7859,return,0.5057,,99.73958333,,,,,,FBP-PT-71.png,0.45,1.2,50,0.5,0,1,1,49,1,,,,,,,,,,,,,,,,,,,,,,,,,,,,,,,,,,,,,,,,
,,,,,WIN24_070,22,female,2024-02-23_13h00.34.650,jersey_experiment_5,2023.2.2,Win32,84.74576271,,,,,,,,,,,,,,,,240.7863,242.5862,242.5862,243.6918,return,0.5149,,86.71875,,,,,,FBP-RB-91.png,0.4,1.2,28,1,0,2,2,27,1,,,,,,,,,,,,,,,,,,,,,,,,,,,,,,,,,,,,,,,,
,,,,,WIN24_070,22,female,2024-02-23_13h00.34.650,jersey_experiment_5,2023.2.2,Win32,84.74576271,,,,,,,,,,,,,,,,243.6921,244.9861,244.9862,247.2685,return,0.4819,,59.24479167,,,,,,FBP-OG-17.png,0.35,1.2,1,0.5,0,3,3,0,1,,,,,,,,,,,,,,,,,,,,,,,,,,,,,,,,,,,,,,,,
,,,,,WIN24_070,22,female,2024-02-23_13h00.34.650,jersey_experiment_5,2023.2.2,Win32,84.74576271,,,,,,,,,,,,,,,,247.2688,249.0686,249.0688,250.2922,return,0.503,,59.765625,,,,,,FBP-RB-71.png,0.37,1.2,17,1,0,4,4,16,1,,,,,,,,,,,,,,,,,,,,,,,,,,,,,,,,,,,,,,,,
,,,,,WIN24_070,22,female,2024-02-23_13h00.34.650,jersey_experiment_5,2023.2.2,Win32,84.74576271,,,,,,,,,,,,,,,,250.2925,252.0922,252.0923,253.0569,return,0.5092,,59.765625,,,,,,FBP-YG-17.png,0.4,1.2,33,1,0,5,5,32,1,,,,,,,,,,,,,,,,,,,,,,,,,,,,,,,,,,,,,,,,
,,,,,WIN24_070,22,female,2024-02-23_13h00.34.650,jersey_experiment_5,2023.2.2,Win32,84.74576271,,,,,,,,,,,,,,,,253.0571,254.3513,254.3513,255.7159,return,0.5067,,96.875,,,,,,FBP-PT-81.png,0.45,1.2,55,0.5,0,6,6,54,1,,,,,,,,,,,,,,,,,,,,,,,,,,,,,,,,,,,,,,,,
,,,,,WIN24_070,22,female,2024-02-23_13h00.34.650,jersey_experiment_5,2023.2.2,Win32,84.74576271,,,,,,,,,,,,,,,,255.7162,257.5158,257.5159,258.5395,return,0.5237,,97.65625,,,,,,FBP-RB-71.png,0.4,1.2,18,1,0,7,7,17,1,,,,,,,,,,,,,,,,,,,,,,,,,,,,,,,,,,,,,,,,
,,,,,WIN24_070,22,female,2024-02-23_13h00.34.650,jersey_experiment_5,2023.2.2,Win32,84.74576271,,,,,,,,,,,,,,,,258.5397,259.8337,259.8337,261.4573,return,0.5917,,74.73958333,,,,,,FBP-OG-19.png,0.4,1.2,13,0.5,0,8,8,12,1,,,,,,,,,,,,,,,,,,,,,,,,,,,,,,,,,,,,,,,,
,,,,,WIN24_070,22,female,2024-02-23_13h00.34.650,jersey_experiment_5,2023.2.2,Win32,84.74576271,,,,,,,,,,,,,,,,261.4574,262.7514,262.7515,263.9631,return,0.5149,,87.63020833,,,,,,FBP-PT-81.png,0.4,1.2,53,0.5,0,9,9,52,1,,,,,,,,,,,,,,,,,,,,,,,,,,,,,,,,,,,,,,,,
,,,,,WIN24_070,22,female,2024-02-23_13h00.34.650,jersey_experiment_5,2023.2.2,Win32,84.74576271,,,,,,,,,,,,,,,,263.9634,265.7632,265.7633,266.8223,return,0.5188,,95.83333333,,,,,,FBP-YG-18.png,0.43,1.2,39,1,0,10,10,38,1,,,,,,,,,,,,,,,,,,,,,,,,,,,,,,,,,,,,,,,,
,,,,,WIN24_070,22,female,2024-02-23_13h00.34.650,jersey_experiment_5,2023.2.2,Win32,84.74576271,,,,,,,,,,,,,,,,266.8225,268.6222,268.6222,269.693,return,0.5482,,87.63020833,,,,,,FBP-RB-81.png,0.43,1.2,24,1,0,11,11,23,1,,,,,,,,,,,,,,,,,,,,,,,,,,,,,,,,,,,,,,,,
,,,,,WIN24_070,22,female,2024-02-23_13h00.34.650,jersey_experiment_5,2023.2.2,Win32,84.74576271,,,,,,,,,,,,,,,,269.6933,270.9869,270.987,272.8341,return,0.5051,,84.765625,,,,,,FBP-PT-71.png,0.43,1.2,49,0.5,0,12,12,48,1,,,,,,,,,,,,,,,,,,,,,,,,,,,,,,,,,,,,,,,,
,,,,,WIN24_070,22,female,2024-02-23_13h00.34.650,jersey_experiment_5,2023.2.2,Win32,84.74576271,,,,,,,,,,,,,,,,272.8345,274.1283,274.1283,275.3755,return,0.499,,93.48958333,,,,,,FBP-PT-91.png,0.45,1.2,60,0.5,0,13,13,59,1,,,,,,,,,,,,,,,,,,,,,,,,,,,,,,,,,,,,,,,,
,,,,,WIN24_070,22,female,2024-02-23_13h00.34.650,jersey_experiment_5,2023.2.2,Win32,84.74576271,,,,,,,,,,,,,,,,275.3757,277.1759,277.1759,278.5166,return,0.5649,,50,,,,,,FBP-YG-19.png,0.4,1.2,43,1,0,14,14,42,1,,,,,,,,,,,,,,,,,,,,,,,,,,,,,,,,,,,,,,,,
,,,,,WIN24_070,22,female,2024-02-23_13h00.34.650,jersey_experiment_5,2023.2.2,Win32,84.74576271,,,,,,,,,,,,,,,,278.5169,280.3168,280.3168,281.4697,return,0.5241,,24.08854167,,,,,,FBP-YG-19.png,0.35,1.2,41,1,0,15,15,40,1,,,,,,,,,,,,,,,,,,,,,,,,,,,,,,,,,,,,,,,,
,,,,,WIN24_070,22,female,2024-02-23_13h00.34.650,jersey_experiment_5,2023.2.2,Win32,84.74576271,,,,,,,,,,,,,,,,281.4701,282.7639,282.7639,284.717,return,0.549,,74.34895833,,,,,,FBP-OG-17.png,0.43,1.2,4,0.5,0,16,16,3,1,,,,,,,,,,,,,,,,,,,,,,,,,,,,,,,,,,,,,,,,
,,,,,WIN24_070,22,female,2024-02-23_13h00.34.650,jersey_experiment_5,2023.2.2,Win32,84.74576271,,,,,,,,,,,,,,,,284.7172,286.0111,286.0111,287.1876,return,0.5654,,74.34895833,,,,,,FBP-OG-17.png,0.4,1.2,3,0.5,0,17,17,2,1,,,,,,,,,,,,,,,,,,,,,,,,,,,,,,,,,,,,,,,,
,,,,,WIN24_070,22,female,2024-02-23_13h00.34.650,jersey_experiment_5,2023.2.2,Win32,84.74576271,,,,,,,,,,,,,,,,287.1878,288.9878,288.9878,290.2114,return,0.532,,88.15104167,,,,,,FBP-YG-19.png,0.45,1.2,45,1,0,18,18,44,1,,,,,,,,,,,,,,,,,,,,,,,,,,,,,,,,,,,,,,,,
,,,,,WIN24_070,22,female,2024-02-23_13h00.34.650,jersey_experiment_5,2023.2.2,Win32,84.74576271,,,,,,,,,,,,,,,,290.2116,292.0113,292.0114,293.7409,return,0.5487,,88.15104167,,,,,,FBP-YG-17.png,0.43,1.2,34,1,0,19,19,33,1,,,,,,,,,,,,,,,,,,,,,,,,,,,,,,,,,,,,,,,,
,,,,,WIN24_070,22,female,2024-02-23_13h00.34.650,jersey_experiment_5,2023.2.2,Win32,84.74576271,,,,,,,,,,,,,,,,293.7411,295.0349,295.035,296.7527,return,0.5569,,75,,,,,,FBP-PT-91.png,0.4,1.2,58,0.5,0,20,20,57,1,,,,,,,,,,,,,,,,,,,,,,,,,,,,,,,,,,,,,,,,
,,,,,WIN24_070,22,female,2024-02-23_13h00.34.650,jersey_experiment_5,2023.2.2,Win32,84.74576271,,,,,,,,,,,,,,,,296.7529,298.5529,298.5529,299.7293,return,0.5323,,87.36979167,,,,,,FBP-RB-91.png,0.43,1.2,29,1,0,21,21,28,1,,,,,,,,,,,,,,,,,,,,,,,,,,,,,,,,,,,,,,,,
,,,,,WIN24_070,22,female,2024-02-23_13h00.34.650,jersey_experiment_5,2023.2.2,Win32,84.74576271,,,,,,,,,,,,,,,,299.7298,301.5294,301.5294,302.4824,return,0.5522,,87.36979167,,,,,,FBP-YG-19.png,0.43,1.2,44,1,0,22,22,43,1,,,,,,,,,,,,,,,,,,,,,,,,,,,,,,,,,,,,,,,,
,,,,,WIN24_070,22,female,2024-02-23_13h00.34.650,jersey_experiment_5,2023.2.2,Win32,84.74576271,,,,,,,,,,,,,,,,302.4827,303.7764,303.7765,305.3295,return,0.529,,50.390625,,,,,,FBP-PT-81.png,0.37,1.2,52,0.5,0,23,23,51,1,,,,,,,,,,,,,,,,,,,,,,,,,,,,,,,,,,,,,,,,
,,,,,WIN24_070,22,female,2024-02-23_13h00.34.650,jersey_experiment_5,2023.2.2,Win32,84.74576271,,,,,,,,,,,,,,,,305.3298,307.1296,307.1297,308.6354,return,0.5004,,86.19791667,,,,,,FBP-RB-81.png,0.45,1.2,25,1,0,24,24,24,1,,,,,,,,,,,,,,,,,,,,,,,,,,,,,,,,,,,,,,,,
,,,,,WIN24_070,22,female,2024-02-23_13h00.34.650,jersey_experiment_5,2023.2.2,Win32,84.74576271,,,,,,,,,,,,,,,,308.6357,309.9297,309.9297,310.918,return,0.5293,,86.19791667,,,,,,FBP-PT-91.png,0.43,1.2,59,0.5,0,25,25,58,1,,,,,,,,,,,,,,,,,,,,,,,,,,,,,,,,,,,,,,,,
,,,,,WIN24_070,22,female,2024-02-23_13h00.34.650,jersey_experiment_5,2023.2.2,Win32,84.74576271,,,,,,,,,,,,,,,,310.9183,312.212,312.212,313.6945,return,1.0059,,86.19791667,,,,,,FBP-OG-18.png,0.45,1.2,10,0.5,0,26,26,9,1,,,,,,,,,,,,,,,,,,,,,,,,,,,,,,,,,,,,,,,,
,,,,,WIN24_070,22,female,2024-02-23_13h00.34.650,jersey_experiment_5,2023.2.2,Win32,84.74576271,,,,,,,,,,,,,,,,313.6947,315.4946,315.4946,316.7887,return,0.5411,,25.26041667,,,,,,FBP-YG-18.png,0.35,1.2,36,1,0,27,27,35,1,,,,,,,,,,,,,,,,,,,,,,,,,,,,,,,,,,,,,,,,
,,,,,WIN24_070,22,female,2024-02-23_13h00.34.650,jersey_experiment_5,2023.2.2,Win32,84.74576271,,,,,,,,,,,,,,,,316.7892,318.5889,318.5889,320.1182,return,0.4945,,81.77083333,,,,,,FBP-RB-71.png,0.43,1.2,19,1,0,28,28,18,1,,,,,,,,,,,,,,,,,,,,,,,,,,,,,,,,,,,,,,,,
,,,,,WIN24_070,22,female,2024-02-23_13h00.34.650,jersey_experiment_5,2023.2.2,Win32,84.74576271,,,,,,,,,,,,,,,,320.1185,321.4124,321.4125,322.9183,return,0.5088,,74.21875,,,,,,FBP-PT-71.png,0.4,1.2,48,0.5,0,29,29,47,1,,,,,,,,,,,,,,,,,,,,,,,,,,,,,,,,,,,,,,,,
,,,,,WIN24_070,22,female,2024-02-23_13h00.34.650,jersey_experiment_5,2023.2.2,Win32,84.74576271,,,,,,,,,,,,,,,,322.9186,324.2125,324.2125,325.8125,return,0.5178,,50.13020833,,,,,,FBP-OG-17.png,0.37,1.2,2,0.5,0,30,30,1,1,,,,,,,,,,,,,,,,,,,,,,,,,,,,,,,,,,,,,,,,
,,,,,WIN24_070,22,female,2024-02-23_13h00.34.650,jersey_experiment_5,2023.2.2,Win32,84.74576271,,,,,,,,,,,,,,,,325.8129,327.6127,327.6128,328.6244,return,0.5924,,50.13020833,,,,,,FBP-RB-81.png,0.35,1.2,21,1,0,31,31,20,1,,,,,,,,,,,,,,,,,,,,,,,,,,,,,,,,,,,,,,,,
,,,,,WIN24_070,22,female,2024-02-23_13h00.34.650,jersey_experiment_5,2023.2.2,Win32,84.74576271,,,,,,,,,,,,,,,,328.6247,329.9187,329.9187,331.4598,return,0.5296,,36.19791667,,,,,,FBP-OG-19.png,0.35,1.2,11,0.5,0,32,32,10,1,,,,,,,,,,,,,,,,,,,,,,,,,,,,,,,,,,,,,,,,
,,,,,WIN24_070,22,female,2024-02-23_13h00.34.650,jersey_experiment_5,2023.2.2,Win32,84.74576271,,,,,,,,,,,,,,,,331.4602,333.26,333.26,334.2717,return,0.4873,,35.9375,,,,,,FBP-RB-81.png,0.37,1.2,22,1,0,33,33,21,1,,,,,,,,,,,,,,,,,,,,,,,,,,,,,,,,,,,,,,,,
,,,,,WIN24_070,22,female,2024-02-23_13h00.34.650,jersey_experiment_5,2023.2.2,Win32,84.74576271,,,,,,,,,,,,,,,,334.2719,335.5659,335.566,337.2953,return,0.5229,,75.65104167,,,,,,FBP-PT-81.png,0.43,1.2,54,0.5,0,34,34,53,1,,,,,,,,,,,,,,,,,,,,,,,,,,,,,,,,,,,,,,,,
,,,,,WIN24_070,22,female,2024-02-23_13h00.34.650,jersey_experiment_5,2023.2.2,Win32,84.74576271,,,,,,,,,,,,,,,,337.2956,338.5896,338.5897,340.1308,return,0.5519,,26.171875,,,,,,FBP-PT-71.png,0.35,1.2,46,0.5,0,35,35,45,1,,,,,,,,,,,,,,,,,,,,,,,,,,,,,,,,,,,,,,,,
,,,,,WIN24_070,22,female,2024-02-23_13h00.34.650,jersey_experiment_5,2023.2.2,Win32,84.74576271,,,,,,,,,,,,,,,,340.1313,341.9308,341.9308,342.9896,return,0.5713,,24.08854167,,,,,,FBP-RB-91.png,0.37,1.2,27,1,0,36,36,26,1,,,,,,,,,,,,,,,,,,,,,,,,,,,,,,,,,,,,,,,,
,,,,,WIN24_070,22,female,2024-02-23_13h00.34.650,jersey_experiment_5,2023.2.2,Win32,84.74576271,,,,,,,,,,,,,,,,342.9899,344.2839,344.2839,345.3074,return,0.5503,,24.08854167,,,,,,FBP-OG-19.png,0.37,1.2,12,0.5,0,37,37,11,1,,,,,,,,,,,,,,,,,,,,,,,,,,,,,,,,,,,,,,,,
,,,,,WIN24_070,22,female,2024-02-23_13h00.34.650,jersey_experiment_5,2023.2.2,Win32,84.74576271,,,,,,,,,,,,,,,,345.3078,347.1075,347.1075,348.19,return,0.536,,24.47916667,,,,,,FBP-RB-91.png,0.35,1.2,26,1,0,38,38,25,1,,,,,,,,,,,,,,,,,,,,,,,,,,,,,,,,,,,,,,,,
,,,,,WIN24_070,22,female,2024-02-23_13h00.34.650,jersey_experiment_5,2023.2.2,Win32,84.74576271,,,,,,,,,,,,,,,,348.1903,349.9901,349.9901,351.4842,return,0.4907,,85.28645833,,,,,,FBP-YG-18.png,0.45,1.2,40,1,0,39,39,39,1,,,,,,,,,,,,,,,,,,,,,,,,,,,,,,,,,,,,,,,,
,,,,,WIN24_070,22,female,2024-02-23_13h00.34.650,jersey_experiment_5,2023.2.2,Win32,84.74576271,,,,,,,,,,,,,,,,351.4844,353.2843,353.2843,354.6371,return,0.5368,,74.21875,,,,,,FBP-YG-18.png,0.37,1.2,37,1,0,40,40,36,1,,,,,,,,,,,,,,,,,,,,,,,,,,,,,,,,,,,,,,,,
,,,,,WIN24_070,22,female,2024-02-23_13h00.34.650,jersey_experiment_5,2023.2.2,Win32,84.74576271,,,,,,,,,,,,,,,,354.6374,356.4372,356.4372,357.7432,return,0.4995,,88.28125,,,,,,FBP-YG-17.png,0.45,1.2,35,1,0,41,41,34,1,,,,,,,,,,,,,,,,,,,,,,,,,,,,,,,,,,,,,,,,
,,,,,WIN24_070,22,female,2024-02-23_13h00.34.650,jersey_experiment_5,2023.2.2,Win32,84.74576271,,,,,,,,,,,,,,,,357.7434,359.5432,359.5432,361.0609,return,0.541,,75.26041667,,,,,,FBP-RB-71.png,0.35,1.2,16,1,0,42,42,15,1,,,,,,,,,,,,,,,,,,,,,,,,,,,,,,,,,,,,,,,,
,,,,,WIN24_070,22,female,2024-02-23_13h00.34.650,jersey_experiment_5,2023.2.2,Win32,84.74576271,,,,,,,,,,,,,,,,361.0613,362.8612,362.8612,364.1081,return,0.5259,,88.02083333,,,,,,FBP-RB-91.png,0.45,1.2,30,1,0,43,43,29,1,,,,,,,,,,,,,,,,,,,,,,,,,,,,,,,,,,,,,,,,
,,,,,WIN24_070,22,female,2024-02-23_13h00.34.650,jersey_experiment_5,2023.2.2,Win32,84.74576271,,,,,,,,,,,,,,,,364.1083,365.9082,365.9082,367.2612,return,0.5341,,76.171875,,,,,,FBP-RB-81.png,0.4,1.2,23,1,0,44,44,22,1,,,,,,,,,,,,,,,,,,,,,,,,,,,,,,,,,,,,,,,,
,,,,,WIN24_070,22,female,2024-02-23_13h00.34.650,jersey_experiment_5,2023.2.2,Win32,84.74576271,,,,,,,,,,,,,,,,367.2615,369.0614,369.0614,370.5789,return,0.4839,,25,,,,,,FBP-YG-17.png,0.35,1.2,31,1,0,45,45,30,1,,,,,,,,,,,,,,,,,,,,,,,,,,,,,,,,,,,,,,,,
,,,,,WIN24_070,22,female,2024-02-23_13h00.34.650,jersey_experiment_5,2023.2.2,Win32,84.74576271,,,,,,,,,,,,,,,,370.5793,371.8731,371.8732,373.4261,return,0.4814,,73.828125,,,,,,FBP-PT-71.png,0.37,1.2,47,0.5,0,46,46,46,1,,,,,,,,,,,,,,,,,,,,,,,,,,,,,,,,,,,,,,,,
,,,,,WIN24_070,22,female,2024-02-23_13h00.34.650,jersey_experiment_5,2023.2.2,Win32,84.74576271,,,,,,,,,,,,,,,,373.4264,375.2263,375.2263,376.4145,return,0.4999,,85.546875,,,,,,FBP-YG-18.png,0.4,1.2,38,1,0,47,47,37,1,,,,,,,,,,,,,,,,,,,,,,,,,,,,,,,,,,,,,,,,
,,,,,WIN24_070,22,female,2024-02-23_13h00.34.650,jersey_experiment_5,2023.2.2,Win32,84.74576271,,,,,,,,,,,,,,,,376.4148,378.2148,378.2148,379.3441,return,0.6043,,76.171875,,,,,,FBP-YG-19.png,0.37,1.2,42,1,0,48,48,41,1,,,,,,,,,,,,,,,,,,,,,,,,,,,,,,,,,,,,,,,,
,,,,,WIN24_070,22,female,2024-02-23_13h00.34.650,jersey_experiment_5,2023.2.2,Win32,84.74576271,,,,,,,,,,,,,,,,379.3443,380.6382,380.6382,382.0617,return,0.5243,,97.65625,,,,,,FBP-OG-19.png,0.45,1.2,15,0.5,0,49,49,14,1,,,,,,,,,,,,,,,,,,,,,,,,,,,,,,,,,,,,,,,,
,,,,,WIN24_070,22,female,2024-02-23_13h00.34.650,jersey_experiment_5,2023.2.2,Win32,84.74576271,,,,,,,,,,,,,,,,382.062,383.3558,383.3558,384.6384,return,0.5121,,75.65104167,,,,,,FBP-PT-81.png,0.35,1.2,51,0.5,0,50,50,50,1,,,,,,,,,,,,,,,,,,,,,,,,,,,,,,,,,,,,,,,,
,,,,,WIN24_070,22,female,2024-02-23_13h00.34.650,jersey_experiment_5,2023.2.2,Win32,84.74576271,,,,,,,,,,,,,,,,384.6388,385.9326,385.9326,387.2384,return,0.4708,,95.3125,,,,,,FBP-OG-18.png,0.43,1.2,9,0.5,0,51,51,8,1,,,,,,,,,,,,,,,,,,,,,,,,,,,,,,,,,,,,,,,,
,,,,,WIN24_070,22,female,2024-02-23_13h00.34.650,jersey_experiment_5,2023.2.2,Win32,84.74576271,,,,,,,,,,,,,,,,387.2387,388.5325,388.5325,389.4856,return,0.5242,,95.3125,,,,,,FBP-OG-18.png,0.4,1.2,8,0.5,0,52,52,7,1,,,,,,,,,,,,,,,,,,,,,,,,,,,,,,,,,,,,,,,,
,,,,,WIN24_070,22,female,2024-02-23_13h00.34.650,jersey_experiment_5,2023.2.2,Win32,84.74576271,,,,,,,,,,,,,,,,389.4859,391.2856,391.2857,392.5445,return,0.6512,,98.95833333,,,,,,FBP-RB-71.png,0.45,1.2,20,1,0,53,53,19,1,,,,,,,,,,,,,,,,,,,,,,,,,,,,,,,,,,,,,,,,
,,,,,WIN24_070,22,female,2024-02-23_13h00.34.650,jersey_experiment_5,2023.2.2,Win32,84.74576271,,,,,,,,,,,,,,,,392.5449,393.8387,393.8387,395.9681,return,0.1546,,73.828125,,,,,,FBP-PT-91.png,0.37,1.2,57,0.5,0,54,54,56,1,,,,,,,,,,,,,,,,,,,,,,,,,,,,,,,,,,,,,,,,
,,,,,WIN24_070,22,female,2024-02-23_13h00.34.650,jersey_experiment_5,2023.2.2,Win32,84.74576271,,,,,,,,,,,,,,,,395.9684,397.2626,397.2627,398.38,return,0.1378,,49.47916667,,,,,,FBP-OG-18.png,0.35,1.2,6,0.5,0,55,55,5,1,,,,,,,,,,,,,,,,,,,,,,,,,,,,,,,,,,,,,,,,
,,,,,WIN24_070,22,female,2024-02-23_13h00.34.650,jersey_experiment_5,2023.2.2,Win32,84.74576271,,,,,,,,,,,,,,,,398.3802,400.18,400.1801,400.7801,return,0.1611,,49.47916667,,,,,,FBP-YG-17.png,0.37,1.2,32,1,0,56,56,31,1,,,,,,,,,,,,,,,,,,,,,,,,,,,,,,,,,,,,,,,,
,,,,,WIN24_070,22,female,2024-02-23_13h00.34.650,jersey_experiment_5,2023.2.2,Win32,84.74576271,,,,,,,,,,,,,,,,400.7803,402.0743,402.0743,403.2154,return,0.1225,,63.28125,,,,,,FBP-OG-18.png,0.37,1.2,7,0.5,0,57,57,6,1,,,,,,,,,,,,,,,,,,,,,,,,,,,,,,,,,,,,,,,,
,,,,,WIN24_070,22,female,2024-02-23_13h00.34.650,jersey_experiment_5,2023.2.2,Win32,84.74576271,,,,,,,,,,,,,,,,403.2157,404.5096,404.5097,405.5802,return,0.0906,,74.47916667,,,,,,FBP-OG-19.png,0.43,1.2,14,0.5,0,58,58,13,1,,,,,,,,,,,,,,,,,,,,,,,,,,,,,,,,,,,,,,,,
,,,,,WIN24_070,22,female,2024-02-23_13h00.34.650,jersey_experiment_5,2023.2.2,Win32,84.74576271,,,,,,,,,,,,,,,,405.5805,406.8745,406.8746,407.7921,return,0.1571,,57.16145833,,,,,,FBP-PT-91.png,0.35,1.2,56,0.5,0,59,59,55,1,,,,,,,,,,,,,,,,,,,,,,,,,,,,,,,,,,,,,,,,
,,,,,WIN24_070,22,female,2024-02-23_13h00.34.650,jersey_experiment_5,2023.2.2,Win32,84.74576271,,,,,,,,,,,,,,,,,,,,,,,,,,,,,,,,,,,,,,,407.7924,527.7972,,,,,,,,,,,,,,,,,,,,,,,,,,,,,,,,,,,,,,
,,,,,WIN24_070,22,female,2024-02-23_13h00.34.650,jersey_experiment_5,2023.2.2,Win32,84.74576271,,,,,,,,,,,,,,,,,,,,,,,,,,,,,,,,,,,,,,,,,527.7974,556.2567,return,28.4466,,,,,,,,,,,,,,,,,,,,,,,,,,,,,,,,,,
,,,,,WIN24_070,22,female,2024-02-23_13h00.34.650,jersey_experiment_5,2023.2.2,Win32,84.74576271,,,,,,,,,,,,,,,,556.2626,557.5625,557.5626,559.6332,return,0.6034,,75.390625,,,,,,FBP-YG-71.png,0.35,1.2,31,0.5,,,,,,,,,,,,,0,0,0,30,1,,,,,,,,,,,,,,,,,,,,,,,,,,,,
,,,,,WIN24_070,22,female,2024-02-23_13h00.34.650,jersey_experiment_5,2023.2.2,Win32,84.74576271,,,,,,,,,,,,,,,,559.6336,560.9273,560.9273,561.7155,return,0.1771,,93.61979167,,,,,,FBP-RB-19.png,0.45,1.2,30,0.5,,,,,,,,,,,,,0,1,1,29,1,,,,,,,,,,,,,,,,,,,,,,,,,,,,
,,,,,WIN24_070,22,female,2024-02-23_13h00.34.650,jersey_experiment_5,2023.2.2,Win32,84.74576271,,,,,,,,,,,,,,,,561.7157,563.5157,563.5157,564.3745,return,0.2476,,64.0625,,,,,,FBP-PT-18.png,0.35,1.2,51,1,,,,,,,,,,,,,0,2,2,50,1,,,,,,,,,,,,,,,,,,,,,,,,,,,,
,,,,,WIN24_070,22,female,2024-02-23_13h00.34.650,jersey_experiment_5,2023.2.2,Win32,84.74576271,,,,,,,,,,,,,,,,564.3748,565.6687,565.6687,566.4216,return,0.0941,,93.09895833,,,,,,FBP-YG-91.png,0.43,1.2,44,0.5,,,,,,,,,,,,,0,3,3,43,1,,,,,,,,,,,,,,,,,,,,,,,,,,,,
,,,,,WIN24_070,22,female,2024-02-23_13h00.34.650,jersey_experiment_5,2023.2.2,Win32,84.74576271,,,,,,,,,,,,,,,,566.4217,568.2215,568.2215,568.8685,return,0.2358,,92.70833333,,,,,,FBP-PT-19.png,0.4,1.2,58,1,,,,,,,,,,,,,0,4,4,57,1,,,,,,,,,,,,,,,,,,,,,,,,,,,,
,,,,,WIN24_070,22,female,2024-02-23_13h00.34.650,jersey_experiment_5,2023.2.2,Win32,84.74576271,,,,,,,,,,,,,,,,568.8688,570.1628,570.1629,570.8218,return,0.212,,92.70833333,,,,,,FBP-YG-91.png,0.4,1.2,43,0.5,,,,,,,,,,,,,0,5,5,42,1,,,,,,,,,,,,,,,,,,,,,,,,,,,,
,,,,,WIN24_070,22,female,2024-02-23_13h00.34.650,jersey_experiment_5,2023.2.2,Win32,84.74576271,,,,,,,,,,,,,,,,570.8222,572.1161,572.1161,573.104,return,0.2015,,75.390625,,,,,,FBP-RB-19.png,0.37,1.2,27,0.5,,,,,,,,,,,,,0,6,6,26,1,,,,,,,,,,,,,,,,,,,,,,,,,,,,
,,,,,WIN24_070,22,female,2024-02-23_13h00.34.650,jersey_experiment_5,2023.2.2,Win32,84.74576271,,,,,,,,,,,,,,,,573.1043,574.9042,574.9042,575.6338,return,0.191,,86.58854167,,,,,,FBP-OG-81.png,0.43,1.2,9,1,,,,,,,,,,,,,0,7,7,8,1,,,,,,,,,,,,,,,,,,,,,,,,,,,,
,,,,,WIN24_070,22,female,2024-02-23_13h00.34.650,jersey_experiment_5,2023.2.2,Win32,84.74576271,,,,,,,,,,,,,,,,575.634,577.4336,577.4336,578.0455,return,0.1952,,91.66666667,,,,,,FBP-OG-71.png,0.43,1.2,4,1,,,,,,,,,,,,,0,8,8,3,1,,,,,,,,,,,,,,,,,,,,,,,,,,,,
,,,,,WIN24_070,22,female,2024-02-23_13h00.34.650,jersey_experiment_5,2023.2.2,Win32,84.74576271,,,,,,,,,,,,,,,,578.0458,579.3397,579.3398,580.0809,return,0.2128,,91.796875,,,,,,FBP-RB-17.png,0.43,1.2,19,0.5,,,,,,,,,,,,,0,9,9,18,1,,,,,,,,,,,,,,,,,,,,,,,,,,,,
,,,,,WIN24_070,22,female,2024-02-23_13h00.34.650,jersey_experiment_5,2023.2.2,Win32,84.74576271,,,,,,,,,,,,,,,,580.0811,581.8811,581.8811,583.47,return,0.1481,,36.06770833,,,,,,FBP-OG-91.png,0.35,1.2,11,1,,,,,,,,,,,,,0,10,10,10,1,,,,,,,,,,,,,,,,,,,,,,,,,,,,
,,,,,WIN24_070,22,female,2024-02-23_13h00.34.650,jersey_experiment_5,2023.2.2,Win32,84.74576271,,,,,,,,,,,,,,,,583.4704,585.2698,585.2698,586.1754,return,0.2055,,23.95833333,,,,,,FBP-OG-81.png,0.35,1.2,6,1,,,,,,,,,,,,,0,11,11,5,1,,,,,,,,,,,,,,,,,,,,,,,,,,,,
,,,,,WIN24_070,22,female,2024-02-23_13h00.34.650,jersey_experiment_5,2023.2.2,Win32,84.74576271,,,,,,,,,,,,,,,,586.1762,587.4694,587.4694,588.7402,return,0.2124,,93.61979167,,,,,,FBP-YG-91.png,0.45,1.2,45,0.5,,,,,,,,,,,,,0,12,12,44,1,,,,,,,,,,,,,,,,,,,,,,,,,,,,
,,,,,WIN24_070,22,female,2024-02-23_13h00.34.650,jersey_experiment_5,2023.2.2,Win32,84.74576271,,,,,,,,,,,,,,,,588.7404,590.5403,590.5403,591.4226,return,0.1472,,75.78125,,,,,,FBP-PT-19.png,0.37,1.2,57,1,,,,,,,,,,,,,0,13,13,56,1,,,,,,,,,,,,,,,,,,,,,,,,,,,,
,,,,,WIN24_070,22,female,2024-02-23_13h00.34.650,jersey_experiment_5,2023.2.2,Win32,84.74576271,,,,,,,,,,,,,,,,591.4228,593.2225,593.2226,594.0343,return,0.1553,,86.19791667,,,,,,FBP-OG-71.png,0.4,1.2,3,1,,,,,,,,,,,,,0,14,14,2,1,,,,,,,,,,,,,,,,,,,,,,,,,,,,
,,,,,WIN24_070,22,female,2024-02-23_13h00.34.650,jersey_experiment_5,2023.2.2,Win32,84.74576271,,,,,,,,,,,,,,,,594.0346,595.8348,595.8348,596.8227,return,0.118,,50.26041667,,,,,,FBP-OG-71.png,0.35,1.2,1,1,,,,,,,,,,,,,0,15,15,0,1,,,,,,,,,,,,,,,,,,,,,,,,,,,,
,,,,,WIN24_070,22,female,2024-02-23_13h00.34.650,jersey_experiment_5,2023.2.2,Win32,84.74576271,,,,,,,,,,,,,,,,596.823,598.1168,598.1168,599.2115,return,0.2684,,74.34895833,,,,,,FBP-YG-71.png,0.43,1.2,34,0.5,,,,,,,,,,,,,0,16,16,33,1,,,,,,,,,,,,,,,,,,,,,,,,,,,,
,,,,,WIN24_070,22,female,2024-02-23_13h00.34.650,jersey_experiment_5,2023.2.2,Win32,84.74576271,,,,,,,,,,,,,,,,599.2119,600.5052,600.5052,601.4228,return,0.1794,,87.36979167,,,,,,FBP-RB-18.png,0.45,1.2,25,0.5,,,,,,,,,,,,,0,17,17,24,1,,,,,,,,,,,,,,,,,,,,,,,,,,,,
,,,,,WIN24_070,22,female,2024-02-23_13h00.34.650,jersey_experiment_5,2023.2.2,Win32,84.74576271,,,,,,,,,,,,,,,,601.4231,603.223,603.2231,603.8229,return,0.1794,,87.36979167,,,,,,FBP-PT-17.png,0.43,1.2,49,1,,,,,,,,,,,,,0,18,18,48,1,,,,,,,,,,,,,,,,,,,,,,,,,,,,
,,,,,WIN24_070,22,female,2024-02-23_13h00.34.650,jersey_experiment_5,2023.2.2,Win32,84.74576271,,,,,,,,,,,,,,,,603.8232,605.6231,605.6231,606.2584,return,0.1903,,94.921875,,,,,,FBP-PT-17.png,0.45,1.2,50,1,,,,,,,,,,,,,0,19,19,49,1,,,,,,,,,,,,,,,,,,,,,,,,,,,,
,,,,,WIN24_070,22,female,2024-02-23_13h00.34.650,jersey_experiment_5,2023.2.2,Win32,84.74576271,,,,,,,,,,,,,,,,606.2586,607.5527,607.5528,608.6584,return,0.1433,,62.890625,,,,,,FBP-YG-71.png,0.37,1.2,32,0.5,,,,,,,,,,,,,0,20,20,31,1,,,,,,,,,,,,,,,,,,,,,,,,,,,,
,,,,,WIN24_070,22,female,2024-02-23_13h00.34.650,jersey_experiment_5,2023.2.2,Win32,84.74576271,,,,,,,,,,,,,,,,608.6586,610.4584,610.4584,611.4468,return,0.1648,,81.90104167,,,,,,FBP-OG-91.png,0.43,1.2,14,1,,,,,,,,,,,,,0,21,21,13,1,,,,,,,,,,,,,,,,,,,,,,,,,,,,
,,,,,WIN24_070,22,female,2024-02-23_13h00.34.650,jersey_experiment_5,2023.2.2,Win32,84.74576271,,,,,,,,,,,,,,,,611.447,613.2469,613.2469,613.8703,return,0.1823,,87.76041667,,,,,,FBP-OG-81.png,0.45,1.2,10,1,,,,,,,,,,,,,0,22,22,9,1,,,,,,,,,,,,,,,,,,,,,,,,,,,,
,,,,,WIN24_070,22,female,2024-02-23_13h00.34.650,jersey_experiment_5,2023.2.2,Win32,84.74576271,,,,,,,,,,,,,,,,613.8706,615.6705,615.6706,617.2941,return,0.1358,,80.33854167,,,,,,FBP-PT-19.png,0.43,1.2,59,1,,,,,,,,,,,,,0,23,23,58,1,,,,,,,,,,,,,,,,,,,,,,,,,,,,
,,,,,WIN24_070,22,female,2024-02-23_13h00.34.650,jersey_experiment_5,2023.2.2,Win32,84.74576271,,,,,,,,,,,,,,,,617.2943,618.5882,618.5882,619.6823,return,0.1546,,62.5,,,,,,FBP-YG-81.png,0.37,1.2,37,0.5,,,,,,,,,,,,,0,24,24,36,1,,,,,,,,,,,,,,,,,,,,,,,,,,,,
,,,,,WIN24_070,22,female,2024-02-23_13h00.34.650,jersey_experiment_5,2023.2.2,Win32,84.74576271,,,,,,,,,,,,,,,,619.6826,621.4825,621.4825,622.0824,return,0.1664,,62.5,,,,,,FBP-PT-19.png,0.35,1.2,56,1,,,,,,,,,,,,,0,25,25,55,1,,,,,,,,,,,,,,,,,,,,,,,,,,,,
,,,,,WIN24_070,22,female,2024-02-23_13h00.34.650,jersey_experiment_5,2023.2.2,Win32,84.74576271,,,,,,,,,,,,,,,,622.0827,623.3766,623.3766,624.5178,return,0.1528,,74.21875,,,,,,FBP-RB-17.png,0.4,1.2,18,0.5,,,,,,,,,,,,,0,26,26,17,1,,,,,,,,,,,,,,,,,,,,,,,,,,,,
,,,,,WIN24_070,22,female,2024-02-23_13h00.34.650,jersey_experiment_5,2023.2.2,Win32,84.74576271,,,,,,,,,,,,,,,,624.518,625.8124,625.8125,626.5768,return,0.1527,,86.71875,,,,,,FBP-RB-18.png,0.43,1.2,24,0.5,,,,,,,,,,,,,0,27,27,23,1,,,,,,,,,,,,,,,,,,,,,,,,,,,,
,,,,,WIN24_070,22,female,2024-02-23_13h00.34.650,jersey_experiment_5,2023.2.2,Win32,84.74576271,,,,,,,,,,,,,,,,626.5773,627.8708,627.8708,629.3887,return,0.1608,,24.86979167,,,,,,FBP-RB-17.png,0.35,1.2,16,0.5,,,,,,,,,,,,,0,28,28,15,1,,,,,,,,,,,,,,,,,,,,,,,,,,,,
,,,,,WIN24_070,22,female,2024-02-23_13h00.34.650,jersey_experiment_5,2023.2.2,Win32,84.74576271,,,,,,,,,,,,,,,,629.389,630.6828,630.6828,632.2123,return,0.118,,49.73958333,,,,,,FBP-RB-17.png,0.37,1.2,17,0.5,,,,,,,,,,,,,0,29,29,16,1,,,,,,,,,,,,,,,,,,,,,,,,,,,,
,,,,,WIN24_070,22,female,2024-02-23_13h00.34.650,jersey_experiment_5,2023.2.2,Win32,84.74576271,,,,,,,,,,,,,,,,632.2125,633.5064,633.5064,634.6123,return,0.1789,,88.80208333,,,,,,FBP-YG-81.png,0.43,1.2,39,0.5,,,,,,,,,,,,,0,30,30,38,1,,,,,,,,,,,,,,,,,,,,,,,,,,,,
,,,,,WIN24_070,22,female,2024-02-23_13h00.34.650,jersey_experiment_5,2023.2.2,Win32,84.74576271,,,,,,,,,,,,,,,,634.6126,636.4126,636.4126,637.3653,return,0.153,,80.859375,,,,,,FBP-OG-81.png,0.4,1.2,8,1,,,,,,,,,,,,,0,31,31,7,1,,,,,,,,,,,,,,,,,,,,,,,,,,,,
,,,,,WIN24_070,22,female,2024-02-23_13h00.34.650,jersey_experiment_5,2023.2.2,Win32,84.74576271,,,,,,,,,,,,,,,,637.3656,638.6597,638.6598,639.7654,return,0.3648,,98.95833333,,,,,,FBP-YG-71.png,0.45,1.2,35,0.5,,,,,,,,,,,,,0,32,32,34,1,,,,,,,,,,,,,,,,,,,,,,,,,,,,
,,,,,WIN24_070,22,female,2024-02-23_13h00.34.650,jersey_experiment_5,2023.2.2,Win32,84.74576271,,,,,,,,,,,,,,,,639.7656,641.0596,641.0596,642.4361,return,0.1037,,49.73958333,,,,,,FBP-YG-91.png,0.35,1.2,41,0.5,,,,,,,,,,,,,0,33,33,40,1,,,,,,,,,,,,,,,,,,,,,,,,,,,,
,,,,,WIN24_070,22,female,2024-02-23_13h00.34.650,jersey_experiment_5,2023.2.2,Win32,84.74576271,,,,,,,,,,,,,,,,642.4363,644.2361,644.2362,644.8597,return,0.1497,,49.73958333,,,,,,FBP-PT-17.png,0.37,1.2,47,1,,,,,,,,,,,,,0,34,34,46,1,,,,,,,,,,,,,,,,,,,,,,,,,,,,
,,,,,WIN24_070,22,female,2024-02-23_13h00.34.650,jersey_experiment_5,2023.2.2,Win32,84.74576271,,,,,,,,,,,,,,,,644.8599,646.6601,646.6601,648.0128,return,0.1249,,75.390625,,,,,,FBP-OG-81.png,0.37,1.2,7,1,,,,,,,,,,,,,0,35,35,6,1,,,,,,,,,,,,,,,,,,,,,,,,,,,,
,,,,,WIN24_070,22,female,2024-02-23_13h00.34.650,jersey_experiment_5,2023.2.2,Win32,84.74576271,,,,,,,,,,,,,,,,648.0133,649.813,649.813,650.4364,return,0.141,,88.15104167,,,,,,FBP-PT-19.png,0.45,1.2,60,1,,,,,,,,,,,,,0,36,36,59,1,,,,,,,,,,,,,,,,,,,,,,,,,,,,
,,,,,WIN24_070,22,female,2024-02-23_13h00.34.650,jersey_experiment_5,2023.2.2,Win32,84.74576271,,,,,,,,,,,,,,,,650.4366,651.7306,651.7306,653.2014,return,0.1438,,50.26041667,,,,,,FBP-RB-18.png,0.35,1.2,21,0.5,,,,,,,,,,,,,0,37,37,20,1,,,,,,,,,,,,,,,,,,,,,,,,,,,,
,,,,,WIN24_070,22,female,2024-02-23_13h00.34.650,jersey_experiment_5,2023.2.2,Win32,84.74576271,,,,,,,,,,,,,,,,653.2018,654.4956,654.4956,655.4603,return,0.142,,87.5,,,,,,FBP-YG-81.png,0.45,1.2,40,0.5,,,,,,,,,,,,,0,38,38,39,1,,,,,,,,,,,,,,,,,,,,,,,,,,,,
,,,,,WIN24_070,22,female,2024-02-23_13h00.34.650,jersey_experiment_5,2023.2.2,Win32,84.74576271,,,,,,,,,,,,,,,,655.4605,656.7543,656.7543,658.1426,return,0.096,,59.89583333,,,,,,FBP-YG-81.png,0.35,1.2,36,0.5,,,,,,,,,,,,,0,39,39,35,1,,,,,,,,,,,,,,,,,,,,,,,,,,,,
,,,,,WIN24_070,22,female,2024-02-23_13h00.34.650,jersey_experiment_5,2023.2.2,Win32,84.74576271,,,,,,,,,,,,,,,,658.1428,659.9429,659.9429,660.5662,return,0.1415,,89.19270833,,,,,,FBP-PT-18.png,0.45,1.2,55,1,,,,,,,,,,,,,0,40,40,54,1,,,,,,,,,,,,,,,,,,,,,,,,,,,,
,,,,,WIN24_070,22,female,2024-02-23_13h00.34.650,jersey_experiment_5,2023.2.2,Win32,84.74576271,,,,,,,,,,,,,,,,660.5664,662.3664,662.3664,663.8604,return,0.1149,,50.52083333,,,,,,FBP-PT-17.png,0.35,1.2,46,1,,,,,,,,,,,,,0,41,41,45,1,,,,,,,,,,,,,,,,,,,,,,,,,,,,
,,,,,WIN24_070,22,female,2024-02-23_13h00.34.650,jersey_experiment_5,2023.2.2,Win32,84.74576271,,,,,,,,,,,,,,,,663.8607,665.1548,665.1548,666.2252,return,0.1088,,51.04166667,,,,,,FBP-RB-18.png,0.37,1.2,22,0.5,,,,,,,,,,,,,0,42,42,21,1,,,,,,,,,,,,,,,,,,,,,,,,,,,,
,,,,,WIN24_070,22,female,2024-02-23_13h00.34.650,jersey_experiment_5,2023.2.2,Win32,84.74576271,,,,,,,,,,,,,,,,666.2256,668.0256,668.0256,668.943,return,0.1465,,76.171875,,,,,,FBP-PT-17.png,0.4,1.2,48,1,,,,,,,,,,,,,0,43,43,47,1,,,,,,,,,,,,,,,,,,,,,,,,,,,,
,,,,,WIN24_070,22,female,2024-02-23_13h00.34.650,jersey_experiment_5,2023.2.2,Win32,84.74576271,,,,,,,,,,,,,,,,668.9433,670.2372,670.2373,670.8842,return,0.2,,76.04166667,,,,,,FBP-RB-19.png,0.4,1.2,28,0.5,,,,,,,,,,,,,0,44,44,27,1,,,,,,,,,,,,,,,,,,,,,,,,,,,,
,,,,,WIN24_070,22,female,2024-02-23_13h00.34.650,jersey_experiment_5,2023.2.2,Win32,84.74576271,,,,,,,,,,,,,,,,670.8846,672.6843,672.6844,673.2021,return,0.1204,,82.8125,,,,,,FBP-PT-18.png,0.4,1.2,53,1,,,,,,,,,,,,,0,45,45,52,1,,,,,,,,,,,,,,,,,,,,,,,,,,,,
,,,,,WIN24_070,22,female,2024-02-23_13h00.34.650,jersey_experiment_5,2023.2.2,Win32,84.74576271,,,,,,,,,,,,,,,,673.2023,674.4961,674.4961,675.0726,return,0.1567,,82.8125,,,,,,FBP-RB-18.png,0.4,1.2,23,0.5,,,,,,,,,,,,,0,46,46,22,1,,,,,,,,,,,,,,,,,,,,,,,,,,,,
,,,,,WIN24_070,22,female,2024-02-23_13h00.34.650,jersey_experiment_5,2023.2.2,Win32,84.74576271,,,,,,,,,,,,,,,,675.0728,676.3668,676.3669,677.6492,return,0.0721,,75.390625,,,,,,FBP-RB-19.png,0.35,1.2,26,0.5,,,,,,,,,,,,,0,47,47,25,1,,,,,,,,,,,,,,,,,,,,,,,,,,,,
,,,,,WIN24_070,22,female,2024-02-23_13h00.34.650,jersey_experiment_5,2023.2.2,Win32,84.74576271,,,,,,,,,,,,,,,,677.6495,679.4493,679.4493,680.1908,return,0.0996,,88.15104167,,,,,,FBP-PT-18.png,0.43,1.2,54,1,,,,,,,,,,,,,0,48,48,53,1,,,,,,,,,,,,,,,,,,,,,,,,,,,,
,,,,,WIN24_070,22,female,2024-02-23_13h00.34.650,jersey_experiment_5,2023.2.2,Win32,84.74576271,,,,,,,,,,,,,,,,680.1916,681.9906,681.9907,682.9788,return,0.1546,,75,,,,,,FBP-OG-71.png,0.37,1.2,2,1,,,,,,,,,,,,,0,49,49,1,1,,,,,,,,,,,,,,,,,,,,,,,,,,,,
,,,,,WIN24_070,22,female,2024-02-23_13h00.34.650,jersey_experiment_5,2023.2.2,Win32,84.74576271,,,,,,,,,,,,,,,,682.9791,684.779,684.779,686.2613,return,0.835,,75,,,,,,FBP-OG-91.png,0.4,1.2,13,1,,,,,,,,,,,,,0,50,50,12,1,,,,,,,,,,,,,,,,,,,,,,,,,,,,
,,,,,WIN24_070,22,female,2024-02-23_13h00.34.650,jersey_experiment_5,2023.2.2,Win32,84.74576271,,,,,,,,,,,,,,,,686.2615,687.5555,687.5555,688.5909,return,0.2998,,82.03125,,,,,,FBP-YG-81.png,0.4,1.2,38,0.5,,,,,,,,,,,,,0,51,51,37,1,,,,,,,,,,,,,,,,,,,,,,,,,,,,
,,,,,WIN24_070,22,female,2024-02-23_13h00.34.650,jersey_experiment_5,2023.2.2,Win32,84.74576271,,,,,,,,,,,,,,,,688.5911,689.8849,689.8849,690.7086,return,0.1888,,90.10416667,,,,,,FBP-RB-19.png,0.43,1.2,29,0.5,,,,,,,,,,,,,0,52,52,28,1,,,,,,,,,,,,,,,,,,,,,,,,,,,,
,,,,,WIN24_070,22,female,2024-02-23_13h00.34.650,jersey_experiment_5,2023.2.2,Win32,84.74576271,,,,,,,,,,,,,,,,690.7088,692.0025,692.0026,692.6852,return,0.136,,95.44270833,,,,,,FBP-RB-17.png,0.45,1.2,20,0.5,,,,,,,,,,,,,0,53,53,19,1,,,,,,,,,,,,,,,,,,,,,,,,,,,,
,,,,,WIN24_070,22,female,2024-02-23_13h00.34.650,jersey_experiment_5,2023.2.2,Win32,84.74576271,,,,,,,,,,,,,,,,692.6855,693.9792,693.9793,695.1676,return,0.1813,,74.609375,,,,,,FBP-YG-71.png,0.4,1.2,33,0.5,,,,,,,,,,,,,0,54,54,32,1,,,,,,,,,,,,,,,,,,,,,,,,,,,,
,,,,,WIN24_070,22,female,2024-02-23_13h00.34.650,jersey_experiment_5,2023.2.2,Win32,84.74576271,,,,,,,,,,,,,,,,695.1681,696.9677,696.9677,697.5793,return,0.1619,,82.68229167,,,,,,FBP-OG-71.png,0.45,1.2,5,1,,,,,,,,,,,,,0,55,55,4,1,,,,,,,,,,,,,,,,,,,,,,,,,,,,
,,,,,WIN24_070,22,female,2024-02-23_13h00.34.650,jersey_experiment_5,2023.2.2,Win32,84.74576271,,,,,,,,,,,,,,,,697.5795,699.3795,699.3795,700.2619,return,0.1412,,49.73958333,,,,,,FBP-PT-18.png,0.37,1.2,52,1,,,,,,,,,,,,,0,56,56,51,1,,,,,,,,,,,,,,,,,,,,,,,,,,,,
,,,,,WIN24_070,22,female,2024-02-23_13h00.34.650,jersey_experiment_5,2023.2.2,Win32,84.74576271,,,,,,,,,,,,,,,,700.2621,702.062,702.0621,703.1678,return,0.122,,75,,,,,,FBP-OG-91.png,0.45,1.2,15,1,,,,,,,,,,,,,0,57,57,14,1,,,,,,,,,,,,,,,,,,,,,,,,,,,,
,,,,,WIN24_070,22,female,2024-02-23_13h00.34.650,jersey_experiment_5,2023.2.2,Win32,84.74576271,,,,,,,,,,,,,,,,703.1681,704.462,704.462,705.5796,return,0.1739,,50,,,,,,FBP-YG-91.png,0.37,1.2,42,0.5,,,,,,,,,,,,,0,58,58,41,1,,,,,,,,,,,,,,,,,,,,,,,,,,,,
,,,,,WIN24_070,22,female,2024-02-23_13h00.34.650,jersey_experiment_5,2023.2.2,Win32,84.74576271,,,,,,,,,,,,,,,,705.5799,707.3797,707.3797,708.1092,return,0.2425,,50,,,,,,FBP-OG-91.png,0.37,1.2,12,1,,,,,,,,,,,,,0,59,59,11,1,,,,,,,,,,,,,,,,,,,,,,,,,,,,
,,,,,WIN24_070,22,female,2024-02-23_13h00.34.650,jersey_experiment_5,2023.2.2,Win32,84.74576271,,,,,,,,,,,,,,,,708.1118,709.9095,709.9095,710.6858,return,0.1214,,75.78125,,,,,,FBP-PT-81.png,0.43,1.2,54,1,,,,,,,,,,,,,,,,,,0,0,0,53,1,,,,,,,,,,,,,,,,,,,,,,,
,,,,,WIN24_070,22,female,2024-02-23_13h00.34.650,jersey_experiment_5,2023.2.2,Win32,84.74576271,,,,,,,,,,,,,,,,710.6861,711.9799,711.9799,713.3331,return,0.2353,,65.234375,,,,,,FBP-YG-18.png,0.37,1.2,37,0.5,,,,,,,,,,,,,,,,,,0,1,1,36,1,,,,,,,,,,,,,,,,,,,,,,,
,,,,,WIN24_070,22,female,2024-02-23_13h00.34.650,jersey_experiment_5,2023.2.2,Win32,84.74576271,,,,,,,,,,,,,,,,713.3337,714.6271,714.6271,715.7566,return,0.1733,,26.04166667,,,,,,FBP-YG-17.png,0.35,1.2,31,0.5,,,,,,,,,,,,,,,,,,0,2,2,30,1,,,,,,,,,,,,,,,,,,,,,,,
,,,,,WIN24_070,22,female,2024-02-23_13h00.34.650,jersey_experiment_5,2023.2.2,Win32,84.74576271,,,,,,,,,,,,,,,,715.757,717.5565,717.5566,718.1801,return,0.1875,,26.04166667,,,,,,FBP-OG-17.png,0.37,1.2,2,1,,,,,,,,,,,,,,,,,,0,3,3,1,1,,,,,,,,,,,,,,,,,,,,,,,
,,,,,WIN24_070,22,female,2024-02-23_13h00.34.650,jersey_experiment_5,2023.2.2,Win32,84.74576271,,,,,,,,,,,,,,,,718.1803,719.4743,719.4744,720.9332,return,0.1412,,74.34895833,,,,,,FBP-YG-19.png,0.4,1.2,43,0.5,,,,,,,,,,,,,,,,,,0,4,4,42,1,,,,,,,,,,,,,,,,,,,,,,,
,,,,,WIN24_070,22,female,2024-02-23_13h00.34.650,jersey_experiment_5,2023.2.2,Win32,84.74576271,,,,,,,,,,,,,,,,720.9334,722.7333,722.7334,723.3333,return,0.1883,,74.21875,,,,,,FBP-PT-81.png,0.37,1.2,52,1,,,,,,,,,,,,,,,,,,0,5,5,51,1,,,,,,,,,,,,,,,,,,,,,,,
,,,,,WIN24_070,22,female,2024-02-23_13h00.34.650,jersey_experiment_5,2023.2.2,Win32,84.74576271,,,,,,,,,,,,,,,,723.3335,725.1335,725.1335,725.8276,return,0.1535,,87.109375,,,,,,FBP-PT-71.png,0.4,1.2,48,1,,,,,,,,,,,,,,,,,,0,6,6,47,1,,,,,,,,,,,,,,,,,,,,,,,
,,,,,WIN24_070,22,female,2024-02-23_13h00.34.650,jersey_experiment_5,2023.2.2,Win32,84.74576271,,,,,,,,,,,,,,,,725.8279,727.6277,727.6277,729.2865,return,1.153,,77.734375,,,,,,FBP-OG-19.png,0.37,1.2,12,1,,,,,,,,,,,,,,,,,,0,7,7,11,1,,,,,,,,,,,,,,,,,,,,,,,
,,,,,WIN24_070,22,female,2024-02-23_13h00.34.650,jersey_experiment_5,2023.2.2,Win32,84.74576271,,,,,,,,,,,,,,,,729.2868,730.5805,730.5805,731.5689,return,0.1328,,87.76041667,,,,,,FBP-RB-91.png,0.4,1.2,28,0.5,,,,,,,,,,,,,,,,,,0,8,8,27,1,,,,,,,,,,,,,,,,,,,,,,,
,,,,,WIN24_070,22,female,2024-02-23_13h00.34.650,jersey_experiment_5,2023.2.2,Win32,84.74576271,,,,,,,,,,,,,,,,731.5691,732.863,732.863,733.7806,return,0.1037,,75,,,,,,FBP-RB-91.png,0.35,1.2,26,0.5,,,,,,,,,,,,,,,,,,0,9,9,25,1,,,,,,,,,,,,,,,,,,,,,,,
,,,,,WIN24_070,22,female,2024-02-23_13h00.34.650,jersey_experiment_5,2023.2.2,Win32,84.74576271,,,,,,,,,,,,,,,,733.7809,735.075,735.0751,735.9573,return,0.2001,,88.80208333,,,,,,FBP-YG-17.png,0.4,1.2,33,0.5,,,,,,,,,,,,,,,,,,0,10,10,32,1,,,,,,,,,,,,,,,,,,,,,,,
,,,,,WIN24_070,22,female,2024-02-23_13h00.34.650,jersey_experiment_5,2023.2.2,Win32,84.74576271,,,,,,,,,,,,,,,,735.9575,737.7573,737.7574,738.3221,return,0.1552,,88.671875,,,,,,FBP-PT-81.png,0.4,1.2,53,1,,,,,,,,,,,,,,,,,,0,11,11,52,1,,,,,,,,,,,,,,,,,,,,,,,
,,,,,WIN24_070,22,female,2024-02-23_13h00.34.650,jersey_experiment_5,2023.2.2,Win32,84.74576271,,,,,,,,,,,,,,,,738.3224,739.6162,739.6162,740.4163,return,0.1534,,96.09375,,,,,,FBP-RB-71.png,0.45,1.2,20,0.5,,,,,,,,,,,,,,,,,,0,12,12,19,1,,,,,,,,,,,,,,,,,,,,,,,
,,,,,WIN24_070,22,female,2024-02-23_13h00.34.650,jersey_experiment_5,2023.2.2,Win32,84.74576271,,,,,,,,,,,,,,,,740.4164,742.2165,742.2166,742.8162,return,0.154,,94.27083333,,,,,,FBP-OG-18.png,0.43,1.2,9,1,,,,,,,,,,,,,,,,,,0,13,13,8,1,,,,,,,,,,,,,,,,,,,,,,,
,,,,,WIN24_070,22,female,2024-02-23_13h00.34.650,jersey_experiment_5,2023.2.2,Win32,84.74576271,,,,,,,,,,,,,,,,742.8165,744.1106,744.1106,744.8635,return,0.146,,74.86979167,,,,,,FBP-YG-18.png,0.35,1.2,36,0.5,,,,,,,,,,,,,,,,,,0,14,14,35,1,,,,,,,,,,,,,,,,,,,,,,,
,,,,,WIN24_070,22,female,2024-02-23_13h00.34.650,jersey_experiment_5,2023.2.2,Win32,84.74576271,,,,,,,,,,,,,,,,744.8639,746.1576,746.1576,747.4283,return,0.8356,,74.73958333,,,,,,FBP-YG-17.png,0.37,1.2,32,0.5,,,,,,,,,,,,,,,,,,0,15,15,31,1,,,,,,,,,,,,,,,,,,,,,,,
,,,,,WIN24_070,22,female,2024-02-23_13h00.34.650,jersey_experiment_5,2023.2.2,Win32,84.74576271,,,,,,,,,,,,,,,,747.4286,749.2284,749.2284,749.9108,return,0.2502,,95.703125,,,,,,FBP-OG-18.png,0.45,1.2,10,1,,,,,,,,,,,,,,,,,,0,16,16,9,1,,,,,,,,,,,,,,,,,,,,,,,
,,,,,WIN24_070,22,female,2024-02-23_13h00.34.650,jersey_experiment_5,2023.2.2,Win32,84.74576271,,,,,,,,,,,,,,,,749.9111,751.2048,751.2048,751.8873,return,0.2289,,95.05208333,,,,,,FBP-YG-18.png,0.4,1.2,38,0.5,,,,,,,,,,,,,,,,,,0,17,17,37,1,,,,,,,,,,,,,,,,,,,,,,,
,,,,,WIN24_070,22,female,2024-02-23_13h00.34.650,jersey_experiment_5,2023.2.2,Win32,84.74576271,,,,,,,,,,,,,,,,751.8875,753.6873,753.6873,754.3226,return,0.1663,,97.39583333,,,,,,FBP-PT-71.png,0.43,1.2,49,1,,,,,,,,,,,,,,,,,,0,18,18,48,1,,,,,,,,,,,,,,,,,,,,,,,
,,,,,WIN24_070,22,female,2024-02-23_13h00.34.650,jersey_experiment_5,2023.2.2,Win32,84.74576271,,,,,,,,,,,,,,,,754.3229,756.123,756.123,757.4521,return,0.1493,,59.50520833,,,,,,FBP-OG-18.png,0.37,1.2,7,1,,,,,,,,,,,,,,,,,,0,19,19,6,1,,,,,,,,,,,,,,,,,,,,,,,
,,,,,WIN24_070,22,female,2024-02-23_13h00.34.650,jersey_experiment_5,2023.2.2,Win32,84.74576271,,,,,,,,,,,,,,,,757.4523,758.7464,758.7464,759.7818,return,0.2204,,60.67708333,,,,,,FBP-RB-91.png,0.37,1.2,27,0.5,,,,,,,,,,,,,,,,,,0,20,20,26,1,,,,,,,,,,,,,,,,,,,,,,,
,,,,,WIN24_070,22,female,2024-02-23_13h00.34.650,jersey_experiment_5,2023.2.2,Win32,84.74576271,,,,,,,,,,,,,,,,759.7822,761.0758,761.0758,761.9817,return,0.1476,,92.96875,,,,,,FBP-YG-17.png,0.45,1.2,35,0.5,,,,,,,,,,,,,,,,,,0,21,21,34,1,,,,,,,,,,,,,,,,,,,,,,,
,,,,,WIN24_070,22,female,2024-02-23_13h00.34.650,jersey_experiment_5,2023.2.2,Win32,84.74576271,,,,,,,,,,,,,,,,761.9819,763.782,763.782,764.6408,return,0.1565,,80.078125,,,,,,FBP-PT-91.png,0.35,1.2,56,1,,,,,,,,,,,,,,,,,,0,22,22,55,1,,,,,,,,,,,,,,,,,,,,,,,
,,,,,WIN24_070,22,female,2024-02-23_13h00.34.650,jersey_experiment_5,2023.2.2,Win32,84.74576271,,,,,,,,,,,,,,,,764.6411,765.9348,765.9348,766.8172,return,0.1912,,90.88541667,,,,,,FBP-RB-71.png,0.37,1.2,17,0.5,,,,,,,,,,,,,,,,,,0,23,23,16,1,,,,,,,,,,,,,,,,,,,,,,,
,,,,,WIN24_070,22,female,2024-02-23_13h00.34.650,jersey_experiment_5,2023.2.2,Win32,84.74576271,,,,,,,,,,,,,,,,766.8174,768.6172,768.6173,769.2291,return,0.1699,,98.30729167,,,,,,FBP-OG-19.png,0.45,1.2,15,1,,,,,,,,,,,,,,,,,,0,24,24,14,1,,,,,,,,,,,,,,,,,,,,,,,
,,,,,WIN24_070,22,female,2024-02-23_13h00.34.650,jersey_experiment_5,2023.2.2,Win32,84.74576271,,,,,,,,,,,,,,,,769.2293,770.5233,770.5233,771.6174,return,0.1541,,98.4375,,,,,,FBP-YG-19.png,0.45,1.2,45,0.5,,,,,,,,,,,,,,,,,,0,25,25,44,1,,,,,,,,,,,,,,,,,,,,,,,
,,,,,WIN24_070,22,female,2024-02-23_13h00.34.650,jersey_experiment_5,2023.2.2,Win32,84.74576271,,,,,,,,,,,,,,,,771.6176,773.4175,773.4176,774.1587,return,0.1232,,74.34895833,,,,,,FBP-OG-19.png,0.4,1.2,13,1,,,,,,,,,,,,,,,,,,0,26,26,12,1,,,,,,,,,,,,,,,,,,,,,,,
,,,,,WIN24_070,22,female,2024-02-23_13h00.34.650,jersey_experiment_5,2023.2.2,Win32,84.74576271,,,,,,,,,,,,,,,,774.1589,775.4529,775.453,776.5471,return,0.1391,,35.546875,,,,,,FBP-RB-71.png,0.35,1.2,16,0.5,,,,,,,,,,,,,,,,,,0,27,27,15,1,,,,,,,,,,,,,,,,,,,,,,,
,,,,,WIN24_070,22,female,2024-02-23_13h00.34.650,jersey_experiment_5,2023.2.2,Win32,84.74576271,,,,,,,,,,,,,,,,776.5473,778.3472,778.3473,779.3588,return,0.0856,,75.26041667,,,,,,FBP-OG-17.png,0.45,1.2,5,1,,,,,,,,,,,,,,,,,,0,28,28,4,1,,,,,,,,,,,,,,,,,,,,,,,
,,,,,WIN24_070,22,female,2024-02-23_13h00.34.650,jersey_experiment_5,2023.2.2,Win32,84.74576271,,,,,,,,,,,,,,,,779.359,781.1593,781.1593,781.8531,return,0.1956,,61.06770833,,,,,,FBP-OG-18.png,0.35,1.2,6,1,,,,,,,,,,,,,,,,,,0,29,29,5,1,,,,,,,,,,,,,,,,,,,,,,,
,,,,,WIN24_070,22,female,2024-02-23_13h00.34.650,jersey_experiment_5,2023.2.2,Win32,84.74576271,,,,,,,,,,,,,,,,781.8534,783.6536,783.6536,784.5242,return,0.1143,,76.04166667,,,,,,FBP-PT-71.png,0.37,1.2,47,1,,,,,,,,,,,,,,,,,,0,30,30,46,1,,,,,,,,,,,,,,,,,,,,,,,
,,,,,WIN24_070,22,female,2024-02-23_13h00.34.650,jersey_experiment_5,2023.2.2,Win32,84.74576271,,,,,,,,,,,,,,,,784.5249,785.818,785.818,786.7473,return,0.136,,75.26041667,,,,,,FBP-YG-19.png,0.37,1.2,42,0.5,,,,,,,,,,,,,,,,,,0,31,31,41,1,,,,,,,,,,,,,,,,,,,,,,,
,,,,,WIN24_070,22,female,2024-02-23_13h00.34.650,jersey_experiment_5,2023.2.2,Win32,84.74576271,,,,,,,,,,,,,,,,786.7477,788.5475,788.5476,789.124,return,0.151,,87.76041667,,,,,,FBP-PT-71.png,0.45,1.2,50,1,,,,,,,,,,,,,,,,,,0,32,32,49,1,,,,,,,,,,,,,,,,,,,,,,,
,,,,,WIN24_070,22,female,2024-02-23_13h00.34.650,jersey_experiment_5,2023.2.2,Win32,84.74576271,,,,,,,,,,,,,,,,789.1243,790.9239,790.924,791.8418,return,0.1324,,74.08854167,,,,,,FBP-OG-18.png,0.4,1.2,8,1,,,,,,,,,,,,,,,,,,0,33,33,7,1,,,,,,,,,,,,,,,,,,,,,,,
,,,,,WIN24_070,22,female,2024-02-23_13h00.34.650,jersey_experiment_5,2023.2.2,Win32,84.74576271,,,,,,,,,,,,,,,,791.842,793.6419,793.6419,794.5948,return,0.1075,,51.30208333,,,,,,FBP-OG-17.png,0.35,1.2,1,1,,,,,,,,,,,,,,,,,,0,34,34,0,1,,,,,,,,,,,,,,,,,,,,,,,
,,,,,WIN24_070,22,female,2024-02-23_13h00.34.650,jersey_experiment_5,2023.2.2,Win32,84.74576271,,,,,,,,,,,,,,,,794.595,796.3948,796.3948,797.489,return,0.133,,74.08854167,,,,,,FBP-PT-91.png,0.4,1.2,58,1,,,,,,,,,,,,,,,,,,0,35,35,57,1,,,,,,,,,,,,,,,,,,,,,,,
,,,,,WIN24_070,22,female,2024-02-23_13h00.34.650,jersey_experiment_5,2023.2.2,Win32,84.74576271,,,,,,,,,,,,,,,,797.4892,799.2898,799.2898,800.148,return,0.1297,,51.04166667,,,,,,FBP-PT-81.png,0.35,1.2,51,1,,,,,,,,,,,,,,,,,,0,36,36,50,1,,,,,,,,,,,,,,,,,,,,,,,
,,,,,WIN24_070,22,female,2024-02-23_13h00.34.650,jersey_experiment_5,2023.2.2,Win32,84.74576271,,,,,,,,,,,,,,,,800.1485,801.9482,801.9482,802.5714,return,0.1611,,49.47916667,,,,,,FBP-PT-71.png,0.35,1.2,46,1,,,,,,,,,,,,,,,,,,0,37,37,45,1,,,,,,,,,,,,,,,,,,,,,,,
,,,,,WIN24_070,22,female,2024-02-23_13h00.34.650,jersey_experiment_5,2023.2.2,Win32,84.74576271,,,,,,,,,,,,,,,,802.5718,803.8656,803.8656,804.8657,return,0.1553,,84.765625,,,,,,FBP-YG-19.png,0.43,1.2,44,0.5,,,,,,,,,,,,,,,,,,0,38,38,43,1,,,,,,,,,,,,,,,,,,,,,,,
,,,,,WIN24_070,22,female,2024-02-23_13h00.34.650,jersey_experiment_5,2023.2.2,Win32,84.74576271,,,,,,,,,,,,,,,,804.8659,806.1598,806.1599,806.9246,return,0.1697,,93.61979167,,,,,,FBP-RB-71.png,0.43,1.2,19,0.5,,,,,,,,,,,,,,,,,,0,39,39,18,1,,,,,,,,,,,,,,,,,,,,,,,
,,,,,WIN24_070,22,female,2024-02-23_13h00.34.650,jersey_experiment_5,2023.2.2,Win32,84.74576271,,,,,,,,,,,,,,,,806.9248,808.7248,808.7248,809.3129,return,0.1682,,89.84375,,,,,,FBP-OG-17.png,0.43,1.2,4,1,,,,,,,,,,,,,,,,,,0,40,40,3,1,,,,,,,,,,,,,,,,,,,,,,,
,,,,,WIN24_070,22,female,2024-02-23_13h00.34.650,jersey_experiment_5,2023.2.2,Win32,84.74576271,,,,,,,,,,,,,,,,809.3131,810.6075,810.6076,811.3604,return,0.2393,,92.96875,,,,,,FBP-RB-81.png,0.45,1.2,25,0.5,,,,,,,,,,,,,,,,,,0,41,41,24,1,,,,,,,,,,,,,,,,,,,,,,,
,,,,,WIN24_070,22,female,2024-02-23_13h00.34.650,jersey_experiment_5,2023.2.2,Win32,84.74576271,,,,,,,,,,,,,,,,811.361,813.1602,813.1602,813.7719,return,0.1932,,97.39583333,,,,,,FBP-PT-91.png,0.45,1.2,60,1,,,,,,,,,,,,,,,,,,0,42,42,59,1,,,,,,,,,,,,,,,,,,,,,,,
,,,,,WIN24_070,22,female,2024-02-23_13h00.34.650,jersey_experiment_5,2023.2.2,Win32,84.74576271,,,,,,,,,,,,,,,,813.7722,815.0661,815.0662,815.9839,return,0.1213,,51.5625,,,,,,FBP-YG-19.png,0.35,1.2,41,0.5,,,,,,,,,,,,,,,,,,0,43,43,40,1,,,,,,,,,,,,,,,,,,,,,,,
,,,,,WIN24_070,22,female,2024-02-23_13h00.34.650,jersey_experiment_5,2023.2.2,Win32,84.74576271,,,,,,,,,,,,,,,,815.9843,817.2779,817.278,818.1956,return,0.1418,,91.015625,,,,,,FBP-YG-17.png,0.43,1.2,34,0.5,,,,,,,,,,,,,,,,,,0,44,44,33,1,,,,,,,,,,,,,,,,,,,,,,,
,,,,,WIN24_070,22,female,2024-02-23_13h00.34.650,jersey_experiment_5,2023.2.2,Win32,84.74576271,,,,,,,,,,,,,,,,818.1959,819.4898,819.4898,820.4662,return,0.0845,,74.34895833,,,,,,FBP-RB-81.png,0.4,1.2,23,0.5,,,,,,,,,,,,,,,,,,0,45,45,22,1,,,,,,,,,,,,,,,,,,,,,,,
,,,,,WIN24_070,22,female,2024-02-23_13h00.34.650,jersey_experiment_5,2023.2.2,Win32,84.74576271,,,,,,,,,,,,,,,,820.4664,822.2663,822.2663,822.8547,return,0.1646,,86.19791667,,,,,,FBP-OG-19.png,0.43,1.2,14,1,,,,,,,,,,,,,,,,,,0,46,46,13,1,,,,,,,,,,,,,,,,,,,,,,,
,,,,,WIN24_070,22,female,2024-02-23_13h00.34.650,jersey_experiment_5,2023.2.2,Win32,84.74576271,,,,,,,,,,,,,,,,822.8549,824.1487,824.1487,824.737,return,0.1565,,86.19791667,,,,,,FBP-YG-18.png,0.43,1.2,39,0.5,,,,,,,,,,,,,,,,,,0,47,47,38,1,,,,,,,,,,,,,,,,,,,,,,,
,,,,,WIN24_070,22,female,2024-02-23_13h00.34.650,jersey_experiment_5,2023.2.2,Win32,84.74576271,,,,,,,,,,,,,,,,824.7373,826.5371,826.5371,827.255,return,0.0591,,75.52083333,,,,,,FBP-OG-17.png,0.4,1.2,3,1,,,,,,,,,,,,,,,,,,0,48,48,2,1,,,,,,,,,,,,,,,,,,,,,,,
,,,,,WIN24_070,22,female,2024-02-23_13h00.34.650,jersey_experiment_5,2023.2.2,Win32,84.74576271,,,,,,,,,,,,,,,,827.2555,828.549,828.549,829.4785,return,0.2128,,86.58854167,,,,,,FBP-YG-18.png,0.45,1.2,40,0.5,,,,,,,,,,,,,,,,,,0,49,49,39,1,,,,,,,,,,,,,,,,,,,,,,,
,,,,,WIN24_070,22,female,2024-02-23_13h00.34.650,jersey_experiment_5,2023.2.2,Win32,84.74576271,,,,,,,,,,,,,,,,829.4789,831.2785,831.2785,831.9019,return,0.2181,,86.58854167,,,,,,FBP-PT-91.png,0.43,1.2,59,1,,,,,,,,,,,,,,,,,,0,50,50,58,1,,,,,,,,,,,,,,,,,,,,,,,
,,,,,WIN24_070,22,female,2024-02-23_13h00.34.650,jersey_experiment_5,2023.2.2,Win32,84.74576271,,,,,,,,,,,,,,,,831.9022,833.1962,833.1962,834.2785,return,0.1412,,50.52083333,,,,,,FBP-RB-81.png,0.37,1.2,22,0.5,,,,,,,,,,,,,,,,,,0,51,51,21,1,,,,,,,,,,,,,,,,,,,,,,,
,,,,,WIN24_070,22,female,2024-02-23_13h00.34.650,jersey_experiment_5,2023.2.2,Win32,84.74576271,,,,,,,,,,,,,,,,834.2789,836.0786,836.0787,837.1375,return,0.144,,34.24479167,,,,,,FBP-PT-91.png,0.37,1.2,57,1,,,,,,,,,,,,,,,,,,0,52,52,56,1,,,,,,,,,,,,,,,,,,,,,,,
,,,,,WIN24_070,22,female,2024-02-23_13h00.34.650,jersey_experiment_5,2023.2.2,Win32,84.74576271,,,,,,,,,,,,,,,,837.1378,838.9377,838.9377,839.5964,return,0.1344,,24.86979167,,,,,,FBP-OG-19.png,0.35,1.2,11,1,,,,,,,,,,,,,,,,,,0,53,53,10,1,,,,,,,,,,,,,,,,,,,,,,,
,,,,,WIN24_070,22,female,2024-02-23_13h00.34.650,jersey_experiment_5,2023.2.2,Win32,84.74576271,,,,,,,,,,,,,,,,839.5967,840.8907,840.8907,842.2436,return,0.1415,,85.41666667,,,,,,FBP-RB-81.png,0.43,1.2,24,0.5,,,,,,,,,,,,,,,,,,0,54,54,23,1,,,,,,,,,,,,,,,,,,,,,,,
,,,,,WIN24_070,22,female,2024-02-23_13h00.34.650,jersey_experiment_5,2023.2.2,Win32,84.74576271,,,,,,,,,,,,,,,,842.2439,843.5378,843.5378,844.2674,return,0.1625,,90.75520833,,,,,,FBP-RB-91.png,0.45,1.2,30,0.5,,,,,,,,,,,,,,,,,,0,55,55,29,1,,,,,,,,,,,,,,,,,,,,,,,
,,,,,WIN24_070,22,female,2024-02-23_13h00.34.650,jersey_experiment_5,2023.2.2,Win32,84.74576271,,,,,,,,,,,,,,,,844.2677,845.5613,845.5613,846.2556,return,0.1101,,95.05208333,,,,,,FBP-RB-91.png,0.43,1.2,29,0.5,,,,,,,,,,,,,,,,,,0,56,56,28,1,,,,,,,,,,,,,,,,,,,,,,,
,,,,,WIN24_070,22,female,2024-02-23_13h00.34.650,jersey_experiment_5,2023.2.2,Win32,84.74576271,,,,,,,,,,,,,,,,846.2561,848.0555,848.0556,848.6555,return,0.181,,95.05208333,,,,,,FBP-PT-81.png,0.45,1.2,55,1,,,,,,,,,,,,,,,,,,0,57,57,54,1,,,,,,,,,,,,,,,,,,,,,,,
,,,,,WIN24_070,22,female,2024-02-23_13h00.34.650,jersey_experiment_5,2023.2.2,Win32,84.74576271,,,,,,,,,,,,,,,,848.6557,849.9497,849.9497,851.2323,return,0.1335,,59.765625,,,,,,FBP-RB-71.png,0.4,1.2,18,0.5,,,,,,,,,,,,,,,,,,0,58,58,17,1,,,,,,,,,,,,,,,,,,,,,,,
,,,,,WIN24_070,22,female,2024-02-23_13h00.34.650,jersey_experiment_5,2023.2.2,Win32,84.74576271,,,,,,,,,,,,,,,,851.2326,852.5262,852.5262,853.6675,return,0.1278,,49.47916667,,,,,,FBP-RB-81.png,0.35,1.2,21,0.5,,,,,,,,,,,,,,,,,,0,59,59,20,1,,,,,,,,,,,,,,,,,,,,,,,
,,,,,WIN24_070,22,female,2024-02-23_13h00.34.650,jersey_experiment_5,2023.2.2,Win32,84.74576271,,,,,,,,,,,,,,,,,,,,,,,,,,,,,,,,,,,,,,,,,,,,,,,,,,,,,,,,853.6681,856.9152,return,3.234,,,,,,,,,,,,,,,,,,,
,,,,,WIN24_070,22,female,2024-02-23_13h00.34.650,jersey_experiment_5,2023.2.2,Win32,84.74576271,,,,,,,,,,,,,,,,,,,,,,,,,,,,,,,,,,,,,,,,,,,,,,,,,,,,,,,,,,,,,856.9153,861.0446,1,3.2662,return,0.8347,,,,,,,,,,,,
,,,,,WIN24_070,22,female,2024-02-23_13h00.34.650,jersey_experiment_5,2023.2.2,Win32,84.74576271,,,,,,,,,,,,,,,,,,,,,,,,,,,,,,,,,,,,,,,,,,,,,,,,,,,,,,,,,,,,,,,,,,,,861.0449,922.339,"If I was shown a lot of husky in a row then shown a slender one, would my ranking be different then when I saw the husky and slender images at more of a continuum. ",right,51.6725,,,,,,
,,,,,WIN24_070,22,female,2024-02-23_13h00.34.650,jersey_experiment_5,2023.2.2,Win32,84.74576271,,,,,,,,,,,,,,,,,,,,,,,,,,,,,,,,,,,,,,,,,,,,,,,,,,,,,,,,,,,,,,,,,,,,,,,,,,922.339,924.5409,return,2.1949,