requirements.started,requirements.stopped,key_resp_3.keys,key_resp_3.rt,key_resp_3.duration,Subject ID,Age,Gender,date,expName,psychopyVersion,OS,frameRate,instructions1.started,instructions1.stopped,key_resp.keys,key_resp.rt,key_resp.duration,example.started,example.stopped,enter_2.keys,enter_2.rt,enter_2.duration,instructions2.started,instructions2.stopped,enter_3.keys,enter_3.rt,enter_3.duration,image.started,image.stopped,slider_2.started,slider_2.stopped,next.keys,next.rt,next.duration,slider.response,trial_block_1.thisRepN,trial_block_1.thisTrialN,trial_block_1.thisN,trial_block_1.thisIndex,trial_block_1.ran,Path,Width,Height,Index,Duration,trial_block_2.thisRepN,trial_block_2.thisTrialN,trial_block_2.thisN,trial_block_2.thisIndex,trial_block_2.ran,rest_break.started,rest_break.stopped,end_break.started,end_break.stopped,key_resp_5.keys,key_resp_5.rt,key_resp_5.duration,trial_block_3.thisRepN,trial_block_3.thisTrialN,trial_block_3.thisN,trial_block_3.thisIndex,trial_block_3.ran,trial_block_4.thisRepN,trial_block_4.thisTrialN,trial_block_4.thisN,trial_block_4.thisIndex,trial_block_4.ran,questions_intro.started,questions_intro.stopped,enter_12.keys,enter_12.rt,enter_12.duration,question2.started,question2.stopped,question_doingbest.response,question_doingbest.rt,enter_15.keys,enter_15.rt,enter_15.duration,pattern.started,pattern.stopped,pattern_2.text,enter_17.keys,enter_17.rt,enter_17.duration,thankyou.started,thankyou.stopped,enter_14.keys,enter_14.rt,enter_14.duration
0.0001,14.844,return,14.839,,WIN24_011,20,Female,2024-01-29_13h33.17.898,jersey_experiment_5,2023.2.2,Win32,84.74576271,,,,,,,,,,,,,,,,,,,,,,,,,,,,,,,,,,,,,,,,,,,,,,,,,,,,,,,,,,,,,,,,,,,,,,,,,,,,,,
,,,,,WIN24_011,20,Female,2024-01-29_13h33.17.898,jersey_experiment_5,2023.2.2,Win32,84.74576271,14.8441,31.3707,return,16.5203,,,,,,,,,,,,,,,,,,,,,,,,,,,,,,,,,,,,,,,,,,,,,,,,,,,,,,,,,,,,,,,,,,,,,,,,,,
,,,,,WIN24_011,20,Female,2024-01-29_13h33.17.898,jersey_experiment_5,2023.2.2,Win32,84.74576271,,,,,,31.3709,38.3357,return,6.9307,,,,,,,,,,,,,,,,,,,,,,,,,,,,,,,,,,,,,,,,,,,,,,,,,,,,,,,,,,,,,,,,,,,,,
,,,,,WIN24_011,20,Female,2024-01-29_13h33.17.898,jersey_experiment_5,2023.2.2,Win32,84.74576271,,,,,,,,,,,38.3357,74.2487,return,35.9091,,,,,,,,,,,,,,,,,,,,,,,,,,,,,,,,,,,,,,,,,,,,,,,,,,,,,,,,,,,,,,,,
,,,,,WIN24_011,20,Female,2024-01-29_13h33.17.898,jersey_experiment_5,2023.2.2,Win32,84.74576271,,,,,,,,,,,,,,,,74.2556,76.0585,76.0585,106.4577,return,2.4196,,25,0,0,0,25,1,FBP-RB-19.png,0.35,1.2,26,1,,,,,,,,,,,,,,,,,,,,,,,,,,,,,,,,,,,,,,,,,,,,,
,,,,,WIN24_011,20,Female,2024-01-29_13h33.17.898,jersey_experiment_5,2023.2.2,Win32,84.74576271,,,,,,,,,,,,,,,,106.4579,107.7497,107.7497,114.5541,return,1.7179,,50.52083333,0,1,1,7,1,FBP-OG-81.png,0.4,1.2,8,0.5,,,,,,,,,,,,,,,,,,,,,,,,,,,,,,,,,,,,,,,,,,,,,
,,,,,WIN24_011,20,Female,2024-01-29_13h33.17.898,jersey_experiment_5,2023.2.2,Win32,84.74576271,,,,,,,,,,,,,,,,114.5542,115.8501,115.8502,121.4364,return,1.5313,,75.52083333,0,2,2,9,1,FBP-OG-81.png,0.45,1.2,10,0.5,,,,,,,,,,,,,,,,,,,,,,,,,,,,,,,,,,,,,,,,,,,,,
,,,,,WIN24_011,20,Female,2024-01-29_13h33.17.898,jersey_experiment_5,2023.2.2,Win32,84.74576271,,,,,,,,,,,,,,,,121.4365,123.2324,123.2324,129.1151,return,2.2414,,23.56770833,0,3,3,30,1,FBP-YG-71.png,0.35,1.2,31,1,,,,,,,,,,,,,,,,,,,,,,,,,,,,,,,,,,,,,,,,,,,,,
,,,,,WIN24_011,20,Female,2024-01-29_13h33.17.898,jersey_experiment_5,2023.2.2,Win32,84.74576271,,,,,,,,,,,,,,,,129.1153,130.9192,130.9193,134.9389,return,1.4631,,61.58854167,0,4,4,22,1,FBP-RB-18.png,0.4,1.2,23,1,,,,,,,,,,,,,,,,,,,,,,,,,,,,,,,,,,,,,,,,,,,,,
,,,,,WIN24_011,20,Female,2024-01-29_13h33.17.898,jersey_experiment_5,2023.2.2,Win32,84.74576271,,,,,,,,,,,,,,,,134.939,136.739,136.7391,140.8743,return,1.9312,,26.171875,0,5,5,15,1,FBP-RB-17.png,0.35,1.2,16,1,,,,,,,,,,,,,,,,,,,,,,,,,,,,,,,,,,,,,,,,,,,,,
,,,,,WIN24_011,20,Female,2024-01-29_13h33.17.898,jersey_experiment_5,2023.2.2,Win32,84.74576271,,,,,,,,,,,,,,,,140.8744,142.1746,142.1746,146.3319,return,1.9768,,82.55208333,0,6,6,48,1,FBP-PT-17.png,0.43,1.2,49,0.5,,,,,,,,,,,,,,,,,,,,,,,,,,,,,,,,,,,,,,,,,,,,,
,,,,,WIN24_011,20,Female,2024-01-29_13h33.17.898,jersey_experiment_5,2023.2.2,Win32,84.74576271,,,,,,,,,,,,,,,,146.332,147.6375,147.6375,154.6378,return,1.9392,,50.78125,0,7,7,50,1,FBP-PT-18.png,0.35,1.2,51,0.5,,,,,,,,,,,,,,,,,,,,,,,,,,,,,,,,,,,,,,,,,,,,,
,,,,,WIN24_011,20,Female,2024-01-29_13h33.17.898,jersey_experiment_5,2023.2.2,Win32,84.74576271,,,,,,,,,,,,,,,,154.6379,155.9437,155.9437,160.8503,return,1.4949,,24.609375,0,8,8,0,1,FBP-OG-71.png,0.35,1.2,1,0.5,,,,,,,,,,,,,,,,,,,,,,,,,,,,,,,,,,,,,,,,,,,,,
,,,,,WIN24_011,20,Female,2024-01-29_13h33.17.898,jersey_experiment_5,2023.2.2,Win32,84.74576271,,,,,,,,,,,,,,,,160.8504,162.1457,162.1457,166.511,return,2.0242,,95.44270833,0,9,9,4,1,FBP-OG-71.png,0.45,1.2,5,0.5,,,,,,,,,,,,,,,,,,,,,,,,,,,,,,,,,,,,,,,,,,,,,
,,,,,WIN24_011,20,Female,2024-01-29_13h33.17.898,jersey_experiment_5,2023.2.2,Win32,84.74576271,,,,,,,,,,,,,,,,166.5112,168.3047,168.3047,172.2738,return,1.5411,,49.609375,0,10,10,16,1,FBP-RB-17.png,0.37,1.2,17,1,,,,,,,,,,,,,,,,,,,,,,,,,,,,,,,,,,,,,,,,,,,,,
,,,,,WIN24_011,20,Female,2024-01-29_13h33.17.898,jersey_experiment_5,2023.2.2,Win32,84.74576271,,,,,,,,,,,,,,,,172.2739,173.5755,173.5756,177.0816,return,1.8405,,67.578125,0,11,11,57,1,FBP-PT-19.png,0.4,1.2,58,0.5,,,,,,,,,,,,,,,,,,,,,,,,,,,,,,,,,,,,,,,,,,,,,
,,,,,WIN24_011,20,Female,2024-01-29_13h33.17.898,jersey_experiment_5,2023.2.2,Win32,84.74576271,,,,,,,,,,,,,,,,177.0818,178.8816,178.8816,183.0863,return,3.0574,,82.55208333,0,12,12,28,1,FBP-RB-19.png,0.43,1.2,29,1,,,,,,,,,,,,,,,,,,,,,,,,,,,,,,,,,,,,,,,,,,,,,
,,,,,WIN24_011,20,Female,2024-01-29_13h33.17.898,jersey_experiment_5,2023.2.2,Win32,84.74576271,,,,,,,,,,,,,,,,183.0904,184.8818,184.8818,190.7786,return,1.2572,,53.64583333,0,13,13,40,1,FBP-YG-91.png,0.35,1.2,41,1,,,,,,,,,,,,,,,,,,,,,,,,,,,,,,,,,,,,,,,,,,,,,
,,,,,WIN24_011,20,Female,2024-01-29_13h33.17.898,jersey_experiment_5,2023.2.2,Win32,84.74576271,,,,,,,,,,,,,,,,190.7787,192.5763,192.5764,196.0118,return,1.2622,,50.78125,0,14,14,20,1,FBP-RB-18.png,0.35,1.2,21,1,,,,,,,,,,,,,,,,,,,,,,,,,,,,,,,,,,,,,,,,,,,,,
,,,,,WIN24_011,20,Female,2024-01-29_13h33.17.898,jersey_experiment_5,2023.2.2,Win32,84.74576271,,,,,,,,,,,,,,,,196.012,197.3098,197.3099,200.8825,return,1.3903,,49.609375,0,15,15,45,1,FBP-PT-17.png,0.35,1.2,46,0.5,,,,,,,,,,,,,,,,,,,,,,,,,,,,,,,,,,,,,,,,,,,,,
,,,,,WIN24_011,20,Female,2024-01-29_13h33.17.898,jersey_experiment_5,2023.2.2,Win32,84.74576271,,,,,,,,,,,,,,,,200.8827,202.6826,202.6826,206.4238,return,1.2992,,87.23958333,0,16,16,44,1,FBP-YG-91.png,0.45,1.2,45,1,,,,,,,,,,,,,,,,,,,,,,,,,,,,,,,,,,,,,,,,,,,,,
,,,,,WIN24_011,20,Female,2024-01-29_13h33.17.898,jersey_experiment_5,2023.2.2,Win32,84.74576271,,,,,,,,,,,,,,,,206.4239,208.2162,208.2162,211.6477,return,1.834,,89.453125,0,17,17,38,1,FBP-YG-81.png,0.43,1.2,39,1,,,,,,,,,,,,,,,,,,,,,,,,,,,,,,,,,,,,,,,,,,,,,
,,,,,WIN24_011,20,Female,2024-01-29_13h33.17.898,jersey_experiment_5,2023.2.2,Win32,84.74576271,,,,,,,,,,,,,,,,211.6478,212.9458,212.9458,216.7817,return,1.2359,,77.99479167,0,18,18,12,1,FBP-OG-91.png,0.4,1.2,13,0.5,,,,,,,,,,,,,,,,,,,,,,,,,,,,,,,,,,,,,,,,,,,,,
,,,,,WIN24_011,20,Female,2024-01-29_13h33.17.898,jersey_experiment_5,2023.2.2,Win32,84.74576271,,,,,,,,,,,,,,,,216.7818,218.5771,218.5772,221.6597,return,1.4623,,98.69791667,0,19,19,29,1,FBP-RB-19.png,0.45,1.2,30,1,,,,,,,,,,,,,,,,,,,,,,,,,,,,,,,,,,,,,,,,,,,,,
,,,,,WIN24_011,20,Female,2024-01-29_13h33.17.898,jersey_experiment_5,2023.2.2,Win32,84.74576271,,,,,,,,,,,,,,,,221.6598,222.954,222.954,225.8641,return,1.0118,,97.65625,0,20,20,54,1,FBP-PT-18.png,0.45,1.2,55,0.5,,,,,,,,,,,,,,,,,,,,,,,,,,,,,,,,,,,,,,,,,,,,,
,,,,,WIN24_011,20,Female,2024-01-29_13h33.17.898,jersey_experiment_5,2023.2.2,Win32,84.74576271,,,,,,,,,,,,,,,,225.8642,227.1658,227.1658,231.3232,return,2.4836,,72.78645833,0,21,21,8,1,FBP-OG-81.png,0.43,1.2,9,0.5,,,,,,,,,,,,,,,,,,,,,,,,,,,,,,,,,,,,,,,,,,,,,
,,,,,WIN24_011,20,Female,2024-01-29_13h33.17.898,jersey_experiment_5,2023.2.2,Win32,84.74576271,,,,,,,,,,,,,,,,231.3233,232.6271,232.6271,236.0649,return,1.0006,,26.953125,0,22,22,55,1,FBP-PT-19.png,0.35,1.2,56,0.5,,,,,,,,,,,,,,,,,,,,,,,,,,,,,,,,,,,,,,,,,,,,,
,,,,,WIN24_011,20,Female,2024-01-29_13h33.17.898,jersey_experiment_5,2023.2.2,Win32,84.74576271,,,,,,,,,,,,,,,,236.065,237.3661,237.3661,240.5696,return,1.1871,,26.953125,0,23,23,5,1,FBP-OG-81.png,0.35,1.2,6,0.5,,,,,,,,,,,,,,,,,,,,,,,,,,,,,,,,,,,,,,,,,,,,,
,,,,,WIN24_011,20,Female,2024-01-29_13h33.17.898,jersey_experiment_5,2023.2.2,Win32,84.74576271,,,,,,,,,,,,,,,,240.5697,241.863,241.863,245.9547,return,2.2103,,52.47395833,0,24,24,2,1,FBP-OG-71.png,0.4,1.2,3,0.5,,,,,,,,,,,,,,,,,,,,,,,,,,,,,,,,,,,,,,,,,,,,,
,,,,,WIN24_011,20,Female,2024-01-29_13h33.17.898,jersey_experiment_5,2023.2.2,Win32,84.74576271,,,,,,,,,,,,,,,,245.9549,247.755,247.755,251.9239,return,2.1198,,55.078125,0,25,25,27,1,FBP-RB-19.png,0.4,1.2,28,1,,,,,,,,,,,,,,,,,,,,,,,,,,,,,,,,,,,,,,,,,,,,,
,,,,,WIN24_011,20,Female,2024-01-29_13h33.17.898,jersey_experiment_5,2023.2.2,Win32,84.74576271,,,,,,,,,,,,,,,,251.9241,253.2255,253.2255,257.2417,return,0.6588,,24.86979167,0,26,26,10,1,FBP-OG-91.png,0.35,1.2,11,0.5,,,,,,,,,,,,,,,,,,,,,,,,,,,,,,,,,,,,,,,,,,,,,
,,,,,WIN24_011,20,Female,2024-01-29_13h33.17.898,jersey_experiment_5,2023.2.2,Win32,84.74576271,,,,,,,,,,,,,,,,257.2418,258.5435,258.5435,261.9948,return,1.2335,,48.4375,0,27,27,46,1,FBP-PT-17.png,0.37,1.2,47,0.5,,,,,,,,,,,,,,,,,,,,,,,,,,,,,,,,,,,,,,,,,,,,,
,,,,,WIN24_011,20,Female,2024-01-29_13h33.17.898,jersey_experiment_5,2023.2.2,Win32,84.74576271,,,,,,,,,,,,,,,,261.995,263.7908,263.7908,267.0732,return,1.2704,,81.25,0,28,28,18,1,FBP-RB-17.png,0.43,1.2,19,1,,,,,,,,,,,,,,,,,,,,,,,,,,,,,,,,,,,,,,,,,,,,,
,,,,,WIN24_011,20,Female,2024-01-29_13h33.17.898,jersey_experiment_5,2023.2.2,Win32,84.74576271,,,,,,,,,,,,,,,,267.0734,268.3672,268.3672,272.0264,return,1.0751,,84.11458333,0,29,29,53,1,FBP-PT-18.png,0.43,1.2,54,0.5,,,,,,,,,,,,,,,,,,,,,,,,,,,,,,,,,,,,,,,,,,,,,
,,,,,WIN24_011,20,Female,2024-01-29_13h33.17.898,jersey_experiment_5,2023.2.2,Win32,84.74576271,,,,,,,,,,,,,,,,272.0265,273.3249,273.3249,277.403,return,0.7689,,95.96354167,0,30,30,14,1,FBP-OG-91.png,0.45,1.2,15,0.5,,,,,,,,,,,,,,,,,,,,,,,,,,,,,,,,,,,,,,,,,,,,,
,,,,,WIN24_011,20,Female,2024-01-29_13h33.17.898,jersey_experiment_5,2023.2.2,Win32,84.74576271,,,,,,,,,,,,,,,,277.4032,278.6971,278.6971,282.0149,return,1.0005,,73.17708333,0,31,31,52,1,FBP-PT-18.png,0.4,1.2,53,0.5,,,,,,,,,,,,,,,,,,,,,,,,,,,,,,,,,,,,,,,,,,,,,
,,,,,WIN24_011,20,Female,2024-01-29_13h33.17.898,jersey_experiment_5,2023.2.2,Win32,84.74576271,,,,,,,,,,,,,,,,282.0151,283.8192,283.8192,287.4662,return,2.4684,,74.34895833,0,32,32,23,1,FBP-RB-18.png,0.43,1.2,24,1,,,,,,,,,,,,,,,,,,,,,,,,,,,,,,,,,,,,,,,,,,,,,
,,,,,WIN24_011,20,Female,2024-01-29_13h33.17.898,jersey_experiment_5,2023.2.2,Win32,84.74576271,,,,,,,,,,,,,,,,287.4664,288.7682,288.7682,295.1448,return,1.4198,,53.77604167,0,33,33,51,1,FBP-PT-18.png,0.37,1.2,52,0.5,,,,,,,,,,,,,,,,,,,,,,,,,,,,,,,,,,,,,,,,,,,,,
,,,,,WIN24_011,20,Female,2024-01-29_13h33.17.898,jersey_experiment_5,2023.2.2,Win32,84.74576271,,,,,,,,,,,,,,,,295.145,296.9448,296.9448,301.4155,return,0.8898,,83.72395833,0,34,34,24,1,FBP-RB-18.png,0.45,1.2,25,1,,,,,,,,,,,,,,,,,,,,,,,,,,,,,,,,,,,,,,,,,,,,,
,,,,,WIN24_011,20,Female,2024-01-29_13h33.17.898,jersey_experiment_5,2023.2.2,Win32,84.74576271,,,,,,,,,,,,,,,,301.4157,303.2156,303.2156,307.1804,return,0.6259,,83.33333333,0,35,35,34,1,FBP-YG-71.png,0.45,1.2,35,1,,,,,,,,,,,,,,,,,,,,,,,,,,,,,,,,,,,,,,,,,,,,,
,,,,,WIN24_011,20,Female,2024-01-29_13h33.17.898,jersey_experiment_5,2023.2.2,Win32,84.74576271,,,,,,,,,,,,,,,,307.1806,308.4747,308.4747,311.8788,return,1.0355,,45.83333333,0,36,36,1,1,FBP-OG-71.png,0.37,1.2,2,0.5,,,,,,,,,,,,,,,,,,,,,,,,,,,,,,,,,,,,,,,,,,,,,
,,,,,WIN24_011,20,Female,2024-01-29_13h33.17.898,jersey_experiment_5,2023.2.2,Win32,84.74576271,,,,,,,,,,,,,,,,311.8789,313.6748,313.6748,317.7853,return,0.8368,,37.890625,0,37,37,36,1,FBP-YG-81.png,0.37,1.2,37,1,,,,,,,,,,,,,,,,,,,,,,,,,,,,,,,,,,,,,,,,,,,,,
,,,,,WIN24_011,20,Female,2024-01-29_13h33.17.898,jersey_experiment_5,2023.2.2,Win32,84.74576271,,,,,,,,,,,,,,,,317.7855,319.0869,319.0869,322.8561,return,1.177,,74.34895833,0,38,38,3,1,FBP-OG-71.png,0.43,1.2,4,0.5,,,,,,,,,,,,,,,,,,,,,,,,,,,,,,,,,,,,,,,,,,,,,
,,,,,WIN24_011,20,Female,2024-01-29_13h33.17.898,jersey_experiment_5,2023.2.2,Win32,84.74576271,,,,,,,,,,,,,,,,322.8562,324.6516,324.6516,329.9696,return,1.9993,,69.79166667,0,39,39,37,1,FBP-YG-81.png,0.4,1.2,38,1,,,,,,,,,,,,,,,,,,,,,,,,,,,,,,,,,,,,,,,,,,,,,
,,,,,WIN24_011,20,Female,2024-01-29_13h33.17.898,jersey_experiment_5,2023.2.2,Win32,84.74576271,,,,,,,,,,,,,,,,329.9698,331.266,331.266,333.805,return,1.049,,57.55208333,0,40,40,11,1,FBP-OG-91.png,0.37,1.2,12,0.5,,,,,,,,,,,,,,,,,,,,,,,,,,,,,,,,,,,,,,,,,,,,,
,,,,,WIN24_011,20,Female,2024-01-29_13h33.17.898,jersey_experiment_5,2023.2.2,Win32,84.74576271,,,,,,,,,,,,,,,,333.8053,335.605,335.605,338.0758,return,1.0242,,74.609375,0,41,41,17,1,FBP-RB-17.png,0.4,1.2,18,1,,,,,,,,,,,,,,,,,,,,,,,,,,,,,,,,,,,,,,,,,,,,,
,,,,,WIN24_011,20,Female,2024-01-29_13h33.17.898,jersey_experiment_5,2023.2.2,Win32,84.74576271,,,,,,,,,,,,,,,,338.0759,339.3726,339.3727,344.5977,return,3.2127,,82.03125,0,42,42,13,1,FBP-OG-91.png,0.43,1.2,14,0.5,,,,,,,,,,,,,,,,,,,,,,,,,,,,,,,,,,,,,,,,,,,,,
,,,,,WIN24_011,20,Female,2024-01-29_13h33.17.898,jersey_experiment_5,2023.2.2,Win32,84.74576271,,,,,,,,,,,,,,,,344.5979,345.8918,345.8918,350.8233,return,2.4235,,49.86979167,0,43,43,6,1,FBP-OG-81.png,0.37,1.2,7,0.5,,,,,,,,,,,,,,,,,,,,,,,,,,,,,,,,,,,,,,,,,,,,,
,,,,,WIN24_011,20,Female,2024-01-29_13h33.17.898,jersey_experiment_5,2023.2.2,Win32,84.74576271,,,,,,,,,,,,,,,,350.8273,352.6293,352.6293,355.1704,return,1.0474,,49.47916667,0,44,44,26,1,FBP-RB-19.png,0.37,1.2,27,1,,,,,,,,,,,,,,,,,,,,,,,,,,,,,,,,,,,,,,,,,,,,,
,,,,,WIN24_011,20,Female,2024-01-29_13h33.17.898,jersey_experiment_5,2023.2.2,Win32,84.74576271,,,,,,,,,,,,,,,,355.1706,356.965,356.9651,359.5118,return,0.9951,,71.484375,0,45,45,33,1,FBP-YG-71.png,0.43,1.2,34,1,,,,,,,,,,,,,,,,,,,,,,,,,,,,,,,,,,,,,,,,,,,,,
,,,,,WIN24_011,20,Female,2024-01-29_13h33.17.898,jersey_experiment_5,2023.2.2,Win32,84.74576271,,,,,,,,,,,,,,,,359.512,361.3119,361.3119,364.265,return,0.8178,,49.86979167,0,46,46,35,1,FBP-YG-81.png,0.35,1.2,36,1,,,,,,,,,,,,,,,,,,,,,,,,,,,,,,,,,,,,,,,,,,,,,
,,,,,WIN24_011,20,Female,2024-01-29_13h33.17.898,jersey_experiment_5,2023.2.2,Win32,84.74576271,,,,,,,,,,,,,,,,364.2653,366.065,366.065,370.7003,return,0.7202,,56.25,0,47,47,41,1,FBP-YG-91.png,0.37,1.2,42,1,,,,,,,,,,,,,,,,,,,,,,,,,,,,,,,,,,,,,,,,,,,,,
,,,,,WIN24_011,20,Female,2024-01-29_13h33.17.898,jersey_experiment_5,2023.2.2,Win32,84.74576271,,,,,,,,,,,,,,,,370.7005,372.5006,372.5006,374.8888,return,0.8298,,67.578125,0,48,48,42,1,FBP-YG-91.png,0.4,1.2,43,1,,,,,,,,,,,,,,,,,,,,,,,,,,,,,,,,,,,,,,,,,,,,,
,,,,,WIN24_011,20,Female,2024-01-29_13h33.17.898,jersey_experiment_5,2023.2.2,Win32,84.74576271,,,,,,,,,,,,,,,,374.8891,376.1831,376.1831,379.2464,return,1.4729,,91.53645833,0,49,49,59,1,FBP-PT-19.png,0.45,1.2,60,0.5,,,,,,,,,,,,,,,,,,,,,,,,,,,,,,,,,,,,,,,,,,,,,
,,,,,WIN24_011,20,Female,2024-01-29_13h33.17.898,jersey_experiment_5,2023.2.2,Win32,84.74576271,,,,,,,,,,,,,,,,379.2464,381.0421,381.0421,382.9307,return,0.8846,,85.02604167,0,50,50,43,1,FBP-YG-91.png,0.43,1.2,44,1,,,,,,,,,,,,,,,,,,,,,,,,,,,,,,,,,,,,,,,,,,,,,
,,,,,WIN24_011,20,Female,2024-01-29_13h33.17.898,jersey_experiment_5,2023.2.2,Win32,84.74576271,,,,,,,,,,,,,,,,382.9308,384.2304,384.2304,386.5291,return,0.975,,86.58854167,0,51,51,47,1,FBP-PT-17.png,0.4,1.2,48,0.5,,,,,,,,,,,,,,,,,,,,,,,,,,,,,,,,,,,,,,,,,,,,,
,,,,,WIN24_011,20,Female,2024-01-29_13h33.17.898,jersey_experiment_5,2023.2.2,Win32,84.74576271,,,,,,,,,,,,,,,,386.5293,388.3245,388.3245,390.7012,return,1.0111,,61.328125,0,52,52,32,1,FBP-YG-71.png,0.4,1.2,33,1,,,,,,,,,,,,,,,,,,,,,,,,,,,,,,,,,,,,,,,,,,,,,
,,,,,WIN24_011,20,Female,2024-01-29_13h33.17.898,jersey_experiment_5,2023.2.2,Win32,84.74576271,,,,,,,,,,,,,,,,390.7013,391.9955,391.9956,395.0191,return,0.8958,,90.88541667,0,53,53,49,1,FBP-PT-17.png,0.45,1.2,50,0.5,,,,,,,,,,,,,,,,,,,,,,,,,,,,,,,,,,,,,,,,,,,,,
,,,,,WIN24_011,20,Female,2024-01-29_13h33.17.898,jersey_experiment_5,2023.2.2,Win32,84.74576271,,,,,,,,,,,,,,,,395.0192,396.3132,396.3132,399.4821,return,1.3649,,89.97395833,0,54,54,58,1,FBP-PT-19.png,0.43,1.2,59,0.5,,,,,,,,,,,,,,,,,,,,,,,,,,,,,,,,,,,,,,,,,,,,,
,,,,,WIN24_011,20,Female,2024-01-29_13h33.17.898,jersey_experiment_5,2023.2.2,Win32,84.74576271,,,,,,,,,,,,,,,,399.4823,401.278,401.2781,403.9764,return,0.8453,,50.26041667,0,55,55,31,1,FBP-YG-71.png,0.37,1.2,32,1,,,,,,,,,,,,,,,,,,,,,,,,,,,,,,,,,,,,,,,,,,,,,
,,,,,WIN24_011,20,Female,2024-01-29_13h33.17.898,jersey_experiment_5,2023.2.2,Win32,84.74576271,,,,,,,,,,,,,,,,403.9766,405.7767,405.7767,407.8547,return,0.6825,,42.83854167,0,56,56,21,1,FBP-RB-18.png,0.37,1.2,22,1,,,,,,,,,,,,,,,,,,,,,,,,,,,,,,,,,,,,,,,,,,,,,
,,,,,WIN24_011,20,Female,2024-01-29_13h33.17.898,jersey_experiment_5,2023.2.2,Win32,84.74576271,,,,,,,,,,,,,,,,407.8549,409.649,409.649,412.3021,return,0.8267,,78.77604167,0,57,57,39,1,FBP-YG-81.png,0.45,1.2,40,1,,,,,,,,,,,,,,,,,,,,,,,,,,,,,,,,,,,,,,,,,,,,,
,,,,,WIN24_011,20,Female,2024-01-29_13h33.17.898,jersey_experiment_5,2023.2.2,Win32,84.74576271,,,,,,,,,,,,,,,,412.3022,414.1021,414.1021,415.9373,return,0.8236,,94.40104167,0,58,58,19,1,FBP-RB-17.png,0.45,1.2,20,1,,,,,,,,,,,,,,,,,,,,,,,,,,,,,,,,,,,,,,,,,,,,,
,,,,,WIN24_011,20,Female,2024-01-29_13h33.17.898,jersey_experiment_5,2023.2.2,Win32,84.74576271,,,,,,,,,,,,,,,,415.9375,417.2316,417.2316,419.8316,return,0.5954,,49.34895833,0,59,59,56,1,FBP-PT-19.png,0.37,1.2,57,0.5,,,,,,,,,,,,,,,,,,,,,,,,,,,,,,,,,,,,,,,,,,,,,
,,,,,WIN24_011,20,Female,2024-01-29_13h33.17.898,jersey_experiment_5,2023.2.2,Win32,84.74576271,,,,,,,,,,,,,,,,419.8336,421.1259,421.1259,423.1494,return,0.6835,,69.01041667,,,,,,FBP-OG-19.png,0.43,1.2,14,0.5,0,0,0,13,1,,,,,,,,,,,,,,,,,,,,,,,,,,,,,,,,,,,,,,,,
,,,,,WIN24_011,20,Female,2024-01-29_13h33.17.898,jersey_experiment_5,2023.2.2,Win32,84.74576271,,,,,,,,,,,,,,,,423.1499,424.4438,424.4438,426.0083,return,0.7478,,69.01041667,,,,,,FBP-OG-17.png,0.4,1.2,3,0.5,0,1,1,2,1,,,,,,,,,,,,,,,,,,,,,,,,,,,,,,,,,,,,,,,,
,,,,,WIN24_011,20,Female,2024-01-29_13h33.17.898,jersey_experiment_5,2023.2.2,Win32,84.74576271,,,,,,,,,,,,,,,,426.0086,427.8085,427.8086,432.5146,return,3.2239,,31.25,,,,,,FBP-RB-81.png,0.37,1.2,22,1,0,2,2,21,1,,,,,,,,,,,,,,,,,,,,,,,,,,,,,,,,,,,,,,,,
,,,,,WIN24_011,20,Female,2024-01-29_13h33.17.898,jersey_experiment_5,2023.2.2,Win32,84.74576271,,,,,,,,,,,,,,,,432.5149,434.3146,434.3146,436.1735,return,0.9069,,26.171875,,,,,,FBP-YG-19.png,0.37,1.2,42,1,0,3,3,41,1,,,,,,,,,,,,,,,,,,,,,,,,,,,,,,,,,,,,,,,,
,,,,,WIN24_011,20,Female,2024-01-29_13h33.17.898,jersey_experiment_5,2023.2.2,Win32,84.74576271,,,,,,,,,,,,,,,,436.1737,437.4675,437.4675,439.7072,return,1.0709,,23.828125,,,,,,FBP-PT-81.png,0.37,1.2,52,0.5,0,4,4,51,1,,,,,,,,,,,,,,,,,,,,,,,,,,,,,,,,,,,,,,,,
,,,,,WIN24_011,20,Female,2024-01-29_13h33.17.898,jersey_experiment_5,2023.2.2,Win32,84.74576271,,,,,,,,,,,,,,,,439.7073,441.0088,441.0088,443.9172,return,0.6454,,49.47916667,,,,,,FBP-PT-71.png,0.4,1.2,48,0.5,0,5,5,47,1,,,,,,,,,,,,,,,,,,,,,,,,,,,,,,,,,,,,,,,,
,,,,,WIN24_011,20,Female,2024-01-29_13h33.17.898,jersey_experiment_5,2023.2.2,Win32,84.74576271,,,,,,,,,,,,,,,,443.9174,445.209,445.209,447.8327,return,1.1471,,40.234375,,,,,,FBP-OG-17.png,0.37,1.2,2,0.5,0,6,6,1,1,,,,,,,,,,,,,,,,,,,,,,,,,,,,,,,,,,,,,,,,
,,,,,WIN24_011,20,Female,2024-01-29_13h33.17.898,jersey_experiment_5,2023.2.2,Win32,84.74576271,,,,,,,,,,,,,,,,447.8329,449.127,449.127,453.9622,return,3.2048,,65.36458333,,,,,,FBP-OG-18.png,0.4,1.2,8,0.5,0,7,7,7,1,,,,,,,,,,,,,,,,,,,,,,,,,,,,,,,,,,,,,,,,
,,,,,WIN24_011,20,Female,2024-01-29_13h33.17.898,jersey_experiment_5,2023.2.2,Win32,84.74576271,,,,,,,,,,,,,,,,453.9625,455.7625,455.7625,459.0331,return,0.6294,,26.69270833,,,,,,FBP-RB-81.png,0.35,1.2,21,1,0,8,8,20,1,,,,,,,,,,,,,,,,,,,,,,,,,,,,,,,,,,,,,,,,
,,,,,WIN24_011,20,Female,2024-01-29_13h33.17.898,jersey_experiment_5,2023.2.2,Win32,84.74576271,,,,,,,,,,,,,,,,459.0334,460.3273,460.3273,464.4139,return,1.5414,,73.56770833,,,,,,FBP-PT-71.png,0.43,1.2,49,0.5,0,9,9,48,1,,,,,,,,,,,,,,,,,,,,,,,,,,,,,,,,,,,,,,,,
,,,,,WIN24_011,20,Female,2024-01-29_13h33.17.898,jersey_experiment_5,2023.2.2,Win32,84.74576271,,,,,,,,,,,,,,,,464.4141,466.2099,466.2099,468.2805,return,1.0514,,86.06770833,,,,,,FBP-RB-91.png,0.43,1.2,29,1,0,10,10,28,1,,,,,,,,,,,,,,,,,,,,,,,,,,,,,,,,,,,,,,,,
,,,,,WIN24_011,20,Female,2024-01-29_13h33.17.898,jersey_experiment_5,2023.2.2,Win32,84.74576271,,,,,,,,,,,,,,,,468.2808,470.0805,470.0805,472.567,return,0.6215,,77.99479167,,,,,,FBP-YG-18.png,0.43,1.2,39,1,0,11,11,38,1,,,,,,,,,,,,,,,,,,,,,,,,,,,,,,,,,,,,,,,,
,,,,,WIN24_011,20,Female,2024-01-29_13h33.17.898,jersey_experiment_5,2023.2.2,Win32,84.74576271,,,,,,,,,,,,,,,,472.5672,474.3629,474.3629,476.2691,return,0.8843,,71.74479167,,,,,,FBP-YG-18.png,0.4,1.2,38,1,0,12,12,37,1,,,,,,,,,,,,,,,,,,,,,,,,,,,,,,,,,,,,,,,,
,,,,,WIN24_011,20,Female,2024-01-29_13h33.17.898,jersey_experiment_5,2023.2.2,Win32,84.74576271,,,,,,,,,,,,,,,,476.2692,477.5632,477.5633,480.0927,return,0.9315,,70.703125,,,,,,FBP-OG-19.png,0.4,1.2,13,0.5,0,13,13,12,1,,,,,,,,,,,,,,,,,,,,,,,,,,,,,,,,,,,,,,,,
,,,,,WIN24_011,20,Female,2024-01-29_13h33.17.898,jersey_experiment_5,2023.2.2,Win32,84.74576271,,,,,,,,,,,,,,,,480.0929,481.3868,481.3868,485.2734,return,1.4475,,22.00520833,,,,,,FBP-OG-17.png,0.35,1.2,1,0.5,0,14,14,0,1,,,,,,,,,,,,,,,,,,,,,,,,,,,,,,,,,,,,,,,,
,,,,,WIN24_011,20,Female,2024-01-29_13h33.17.898,jersey_experiment_5,2023.2.2,Win32,84.74576271,,,,,,,,,,,,,,,,485.2736,486.5754,486.5754,489.4265,return,1.0919,,84.89583333,,,,,,FBP-PT-91.png,0.45,1.2,60,0.5,0,15,15,59,1,,,,,,,,,,,,,,,,,,,,,,,,,,,,,,,,,,,,,,,,
,,,,,WIN24_011,20,Female,2024-01-29_13h33.17.898,jersey_experiment_5,2023.2.2,Win32,84.74576271,,,,,,,,,,,,,,,,489.4266,491.2224,491.2225,493.7873,return,0.8605,,34.89583333,,,,,,FBP-YG-19.png,0.35,1.2,41,1,0,16,16,40,1,,,,,,,,,,,,,,,,,,,,,,,,,,,,,,,,,,,,,,,,
,,,,,WIN24_011,20,Female,2024-01-29_13h33.17.898,jersey_experiment_5,2023.2.2,Win32,84.74576271,,,,,,,,,,,,,,,,493.7875,495.0815,495.0815,498.0934,return,1.6623,,60.15625,,,,,,FBP-PT-91.png,0.4,1.2,58,0.5,0,17,17,57,1,,,,,,,,,,,,,,,,,,,,,,,,,,,,,,,,,,,,,,,,
,,,,,WIN24_011,20,Female,2024-01-29_13h33.17.898,jersey_experiment_5,2023.2.2,Win32,84.74576271,,,,,,,,,,,,,,,,498.0936,499.3882,499.3882,502.839,return,1.0808,,20.18229167,,,,,,FBP-OG-19.png,0.35,1.2,11,0.5,0,18,18,10,1,,,,,,,,,,,,,,,,,,,,,,,,,,,,,,,,,,,,,,,,
,,,,,WIN24_011,20,Female,2024-01-29_13h33.17.898,jersey_experiment_5,2023.2.2,Win32,84.74576271,,,,,,,,,,,,,,,,502.8391,504.1467,504.1467,507.3995,return,0.7956,,67.31770833,,,,,,FBP-PT-71.png,0.45,1.2,50,0.5,0,19,19,49,1,,,,,,,,,,,,,,,,,,,,,,,,,,,,,,,,,,,,,,,,
,,,,,WIN24_011,20,Female,2024-01-29_13h33.17.898,jersey_experiment_5,2023.2.2,Win32,84.74576271,,,,,,,,,,,,,,,,507.3997,509.1995,509.1995,512.5763,return,0.7295,,25.91145833,,,,,,FBP-RB-91.png,0.35,1.2,26,1,0,20,20,25,1,,,,,,,,,,,,,,,,,,,,,,,,,,,,,,,,,,,,,,,,
,,,,,WIN24_011,20,Female,2024-01-29_13h33.17.898,jersey_experiment_5,2023.2.2,Win32,84.74576271,,,,,,,,,,,,,,,,512.5764,513.8704,513.8704,516.6396,return,0.9533,,88.02083333,,,,,,FBP-OG-18.png,0.45,1.2,10,0.5,0,21,21,9,1,,,,,,,,,,,,,,,,,,,,,,,,,,,,,,,,,,,,,,,,
,,,,,WIN24_011,20,Female,2024-01-29_13h33.17.898,jersey_experiment_5,2023.2.2,Win32,84.74576271,,,,,,,,,,,,,,,,516.6398,518.4353,518.4353,524.1414,return,3.4848,,50,,,,,,FBP-YG-18.png,0.37,1.2,37,1,0,22,22,36,1,,,,,,,,,,,,,,,,,,,,,,,,,,,,,,,,,,,,,,,,
,,,,,WIN24_011,20,Female,2024-01-29_13h33.17.898,jersey_experiment_5,2023.2.2,Win32,84.74576271,,,,,,,,,,,,,,,,524.1416,525.9337,525.9337,528.1595,return,1.0842,,27.60416667,,,,,,FBP-YG-18.png,0.35,1.2,36,1,0,23,23,35,1,,,,,,,,,,,,,,,,,,,,,,,,,,,,,,,,,,,,,,,,
,,,,,WIN24_011,20,Female,2024-01-29_13h33.17.898,jersey_experiment_5,2023.2.2,Win32,84.74576271,,,,,,,,,,,,,,,,528.1596,529.4513,529.4513,532.0147,return,0.6454,,86.19791667,,,,,,FBP-OG-19.png,0.45,1.2,15,0.5,0,24,24,14,1,,,,,,,,,,,,,,,,,,,,,,,,,,,,,,,,,,,,,,,,
,,,,,WIN24_011,20,Female,2024-01-29_13h33.17.898,jersey_experiment_5,2023.2.2,Win32,84.74576271,,,,,,,,,,,,,,,,532.0148,533.8162,533.8162,535.9206,return,0.5632,,85.28645833,,,,,,FBP-YG-19.png,0.43,1.2,44,1,0,25,25,43,1,,,,,,,,,,,,,,,,,,,,,,,,,,,,,,,,,,,,,,,,
,,,,,WIN24_011,20,Female,2024-01-29_13h33.17.898,jersey_experiment_5,2023.2.2,Win32,84.74576271,,,,,,,,,,,,,,,,535.9208,537.2165,537.2165,539.6972,return,0.9632,,50.78125,,,,,,FBP-OG-18.png,0.37,1.2,7,0.5,0,26,26,6,1,,,,,,,,,,,,,,,,,,,,,,,,,,,,,,,,,,,,,,,,
,,,,,WIN24_011,20,Female,2024-01-29_13h33.17.898,jersey_experiment_5,2023.2.2,Win32,84.74576271,,,,,,,,,,,,,,,,539.6974,541.499,541.499,543.1797,return,0.598,,91.14583333,,,,,,FBP-RB-81.png,0.43,1.2,24,1,0,27,27,23,1,,,,,,,,,,,,,,,,,,,,,,,,,,,,,,,,,,,,,,,,
,,,,,WIN24_011,20,Female,2024-01-29_13h33.17.898,jersey_experiment_5,2023.2.2,Win32,84.74576271,,,,,,,,,,,,,,,,543.1799,544.9814,544.9814,546.6308,return,0.5787,,94.79166667,,,,,,FBP-RB-71.png,0.43,1.2,19,1,0,28,28,18,1,,,,,,,,,,,,,,,,,,,,,,,,,,,,,,,,,,,,,,,,
,,,,,WIN24_011,20,Female,2024-01-29_13h33.17.898,jersey_experiment_5,2023.2.2,Win32,84.74576271,,,,,,,,,,,,,,,,546.631,548.4286,548.4286,549.8951,return,0.6407,,92.31770833,,,,,,FBP-YG-18.png,0.45,1.2,40,1,0,29,29,39,1,,,,,,,,,,,,,,,,,,,,,,,,,,,,,,,,,,,,,,,,
,,,,,WIN24_011,20,Female,2024-01-29_13h33.17.898,jersey_experiment_5,2023.2.2,Win32,84.74576271,,,,,,,,,,,,,,,,549.8954,551.6992,551.6993,554.0878,return,0.9059,,89.453125,,,,,,FBP-RB-81.png,0.45,1.2,25,1,0,30,30,24,1,,,,,,,,,,,,,,,,,,,,,,,,,,,,,,,,,,,,,,,,
,,,,,WIN24_011,20,Female,2024-01-29_13h33.17.898,jersey_experiment_5,2023.2.2,Win32,84.74576271,,,,,,,,,,,,,,,,554.088,555.3896,555.3897,557.4996,return,1.0938,,87.890625,,,,,,FBP-OG-17.png,0.43,1.2,4,0.5,0,31,31,3,1,,,,,,,,,,,,,,,,,,,,,,,,,,,,,,,,,,,,,,,,
,,,,,WIN24_011,20,Female,2024-01-29_13h33.17.898,jersey_experiment_5,2023.2.2,Win32,84.74576271,,,,,,,,,,,,,,,,557.4998,558.792,558.792,561.225,return,0.6177,,17.83854167,,,,,,FBP-PT-71.png,0.35,1.2,46,0.5,0,32,32,45,1,,,,,,,,,,,,,,,,,,,,,,,,,,,,,,,,,,,,,,,,
,,,,,WIN24_011,20,Female,2024-01-29_13h33.17.898,jersey_experiment_5,2023.2.2,Win32,84.74576271,,,,,,,,,,,,,,,,561.2251,563.0251,563.0252,565.4746,return,0.9865,,78.77604167,,,,,,FBP-RB-91.png,0.45,1.2,30,1,0,33,33,29,1,,,,,,,,,,,,,,,,,,,,,,,,,,,,,,,,,,,,,,,,
,,,,,WIN24_011,20,Female,2024-01-29_13h33.17.898,jersey_experiment_5,2023.2.2,Win32,84.74576271,,,,,,,,,,,,,,,,565.4747,566.7706,566.7706,569.4311,return,0.6727,,11.06770833,,,,,,FBP-OG-18.png,0.35,1.2,6,0.5,0,34,34,5,1,,,,,,,,,,,,,,,,,,,,,,,,,,,,,,,,,,,,,,,,
,,,,,WIN24_011,20,Female,2024-01-29_13h33.17.898,jersey_experiment_5,2023.2.2,Win32,84.74576271,,,,,,,,,,,,,,,,569.4314,570.7235,570.7235,573.2414,return,0.6826,,74.86979167,,,,,,FBP-OG-17.png,0.45,1.2,5,0.5,0,35,35,4,1,,,,,,,,,,,,,,,,,,,,,,,,,,,,,,,,,,,,,,,,
,,,,,WIN24_011,20,Female,2024-01-29_13h33.17.898,jersey_experiment_5,2023.2.2,Win32,84.74576271,,,,,,,,,,,,,,,,573.2416,575.0373,575.0373,577.6181,return,0.7059,,57.03125,,,,,,FBP-YG-17.png,0.4,1.2,33,1,0,36,36,32,1,,,,,,,,,,,,,,,,,,,,,,,,,,,,,,,,,,,,,,,,
,,,,,WIN24_011,20,Female,2024-01-29_13h33.17.898,jersey_experiment_5,2023.2.2,Win32,84.74576271,,,,,,,,,,,,,,,,577.6182,579.414,579.414,581.5712,return,0.9901,,41.53645833,,,,,,FBP-RB-71.png,0.37,1.2,17,1,0,37,37,16,1,,,,,,,,,,,,,,,,,,,,,,,,,,,,,,,,,,,,,,,,
,,,,,WIN24_011,20,Female,2024-01-29_13h33.17.898,jersey_experiment_5,2023.2.2,Win32,84.74576271,,,,,,,,,,,,,,,,581.5714,582.8768,582.8769,586.567,return,2.3488,,86.71875,,,,,,FBP-PT-81.png,0.45,1.2,55,0.5,0,38,38,54,1,,,,,,,,,,,,,,,,,,,,,,,,,,,,,,,,,,,,,,,,
,,,,,WIN24_011,20,Female,2024-01-29_13h33.17.898,jersey_experiment_5,2023.2.2,Win32,84.74576271,,,,,,,,,,,,,,,,586.5673,588.3711,588.3711,589.8968,return,0.7119,,88.54166667,,,,,,FBP-YG-17.png,0.45,1.2,35,1,0,39,39,34,1,,,,,,,,,,,,,,,,,,,,,,,,,,,,,,,,,,,,,,,,
,,,,,WIN24_011,20,Female,2024-01-29_13h33.17.898,jersey_experiment_5,2023.2.2,Win32,84.74576271,,,,,,,,,,,,,,,,589.897,591.7009,591.7009,594.8263,return,0.5669,,75,,,,,,FBP-RB-71.png,0.45,1.2,20,1,0,40,40,19,1,,,,,,,,,,,,,,,,,,,,,,,,,,,,,,,,,,,,,,,,
,,,,,WIN24_011,20,Female,2024-01-29_13h33.17.898,jersey_experiment_5,2023.2.2,Win32,84.74576271,,,,,,,,,,,,,,,,594.8265,596.6266,596.6266,598.3346,return,0.7297,,75.91145833,,,,,,FBP-YG-17.png,0.43,1.2,34,1,0,41,41,33,1,,,,,,,,,,,,,,,,,,,,,,,,,,,,,,,,,,,,,,,,
,,,,,WIN24_011,20,Female,2024-01-29_13h33.17.898,jersey_experiment_5,2023.2.2,Win32,84.74576271,,,,,,,,,,,,,,,,598.3347,600.1363,600.1363,601.9474,return,0.7659,,77.734375,,,,,,FBP-RB-91.png,0.4,1.2,28,1,0,42,42,27,1,,,,,,,,,,,,,,,,,,,,,,,,,,,,,,,,,,,,,,,,
,,,,,WIN24_011,20,Female,2024-01-29_13h33.17.898,jersey_experiment_5,2023.2.2,Win32,84.74576271,,,,,,,,,,,,,,,,601.9475,603.7485,603.7485,605.8501,return,1.1789,,21.484375,,,,,,FBP-YG-17.png,0.35,1.2,31,1,0,43,43,30,1,,,,,,,,,,,,,,,,,,,,,,,,,,,,,,,,,,,,,,,,
,,,,,WIN24_011,20,Female,2024-01-29_13h33.17.898,jersey_experiment_5,2023.2.2,Win32,84.74576271,,,,,,,,,,,,,,,,605.8505,607.6426,607.6426,611.3726,return,2.5515,,13.671875,,,,,,FBP-RB-71.png,0.35,1.2,16,1,0,44,44,15,1,,,,,,,,,,,,,,,,,,,,,,,,,,,,,,,,,,,,,,,,
,,,,,WIN24_011,20,Female,2024-01-29_13h33.17.898,jersey_experiment_5,2023.2.2,Win32,84.74576271,,,,,,,,,,,,,,,,611.3728,613.1861,613.1861,614.7959,return,0.8939,,48.30729167,,,,,,FBP-RB-81.png,0.4,1.2,23,1,0,45,45,22,1,,,,,,,,,,,,,,,,,,,,,,,,,,,,,,,,,,,,,,,,
,,,,,WIN24_011,20,Female,2024-01-29_13h33.17.898,jersey_experiment_5,2023.2.2,Win32,84.74576271,,,,,,,,,,,,,,,,614.7961,616.5938,616.5938,618.6783,return,1.1767,,82.16145833,,,,,,FBP-YG-19.png,0.45,1.2,45,1,0,46,46,44,1,,,,,,,,,,,,,,,,,,,,,,,,,,,,,,,,,,,,,,,,
,,,,,WIN24_011,20,Female,2024-01-29_13h33.17.898,jersey_experiment_5,2023.2.2,Win32,84.74576271,,,,,,,,,,,,,,,,618.6784,619.9744,619.9744,623.1726,return,0.6687,,51.04166667,,,,,,FBP-PT-81.png,0.4,1.2,53,0.5,0,47,47,52,1,,,,,,,,,,,,,,,,,,,,,,,,,,,,,,,,,,,,,,,,
,,,,,WIN24_011,20,Female,2024-01-29_13h33.17.898,jersey_experiment_5,2023.2.2,Win32,84.74576271,,,,,,,,,,,,,,,,623.1728,624.4775,624.4775,630.2041,return,3.5771,,66.53645833,,,,,,FBP-PT-91.png,0.43,1.2,59,0.5,0,48,48,58,1,,,,,,,,,,,,,,,,,,,,,,,,,,,,,,,,,,,,,,,,
,,,,,WIN24_011,20,Female,2024-01-29_13h33.17.898,jersey_experiment_5,2023.2.2,Win32,84.74576271,,,,,,,,,,,,,,,,630.2043,631.4983,631.4983,635.0436,return,1.1432,,17.96875,,,,,,FBP-PT-91.png,0.35,1.2,56,0.5,0,49,49,55,1,,,,,,,,,,,,,,,,,,,,,,,,,,,,,,,,,,,,,,,,
,,,,,WIN24_011,20,Female,2024-01-29_13h33.17.898,jersey_experiment_5,2023.2.2,Win32,84.74576271,,,,,,,,,,,,,,,,635.0438,636.8439,636.8439,640.74,return,0.9786,,47.65625,,,,,,FBP-YG-19.png,0.4,1.2,43,1,0,50,50,42,1,,,,,,,,,,,,,,,,,,,,,,,,,,,,,,,,,,,,,,,,
,,,,,WIN24_011,20,Female,2024-01-29_13h33.17.898,jersey_experiment_5,2023.2.2,Win32,84.74576271,,,,,,,,,,,,,,,,640.7401,642.032,642.032,644.1693,return,0.6525,,62.890625,,,,,,FBP-OG-18.png,0.43,1.2,9,0.5,0,51,51,8,1,,,,,,,,,,,,,,,,,,,,,,,,,,,,,,,,,,,,,,,,
,,,,,WIN24_011,20,Female,2024-01-29_13h33.17.898,jersey_experiment_5,2023.2.2,Win32,84.74576271,,,,,,,,,,,,,,,,644.1696,645.4695,645.4695,647.493,return,0.9668,,69.79166667,,,,,,FBP-PT-81.png,0.43,1.2,54,0.5,0,52,52,53,1,,,,,,,,,,,,,,,,,,,,,,,,,,,,,,,,,,,,,,,,
,,,,,WIN24_011,20,Female,2024-01-29_13h33.17.898,jersey_experiment_5,2023.2.2,Win32,84.74576271,,,,,,,,,,,,,,,,647.4932,648.7956,648.7956,651.6799,return,0.9768,,40.75520833,,,,,,FBP-PT-71.png,0.37,1.2,47,0.5,0,53,53,46,1,,,,,,,,,,,,,,,,,,,,,,,,,,,,,,,,,,,,,,,,
,,,,,WIN24_011,20,Female,2024-01-29_13h33.17.898,jersey_experiment_5,2023.2.2,Win32,84.74576271,,,,,,,,,,,,,,,,651.6801,652.9719,652.9719,655.4898,return,0.7399,,37.63020833,,,,,,FBP-OG-19.png,0.37,1.2,12,0.5,0,54,54,11,1,,,,,,,,,,,,,,,,,,,,,,,,,,,,,,,,,,,,,,,,
,,,,,WIN24_011,20,Female,2024-01-29_13h33.17.898,jersey_experiment_5,2023.2.2,Win32,84.74576271,,,,,,,,,,,,,,,,655.4899,656.7846,656.7846,660.1723,return,2.1984,,25.65104167,,,,,,FBP-PT-81.png,0.35,1.2,51,0.5,0,55,55,50,1,,,,,,,,,,,,,,,,,,,,,,,,,,,,,,,,,,,,,,,,
,,,,,WIN24_011,20,Female,2024-01-29_13h33.17.898,jersey_experiment_5,2023.2.2,Win32,84.74576271,,,,,,,,,,,,,,,,660.1724,661.9739,661.974,665.3763,return,0.6727,,29.6875,,,,,,FBP-YG-17.png,0.37,1.2,32,1,0,56,56,31,1,,,,,,,,,,,,,,,,,,,,,,,,,,,,,,,,,,,,,,,,
,,,,,WIN24_011,20,Female,2024-01-29_13h33.17.898,jersey_experiment_5,2023.2.2,Win32,84.74576271,,,,,,,,,,,,,,,,665.3765,667.1729,667.173,670.3348,return,0.9315,,65.49479167,,,,,,FBP-RB-71.png,0.4,1.2,18,1,0,57,57,17,1,,,,,,,,,,,,,,,,,,,,,,,,,,,,,,,,,,,,,,,,
,,,,,WIN24_011,20,Female,2024-01-29_13h33.17.898,jersey_experiment_5,2023.2.2,Win32,84.74576271,,,,,,,,,,,,,,,,670.3349,671.629,671.629,675.2923,return,1.5432,,51.43229167,,,,,,FBP-PT-91.png,0.37,1.2,57,0.5,0,58,58,56,1,,,,,,,,,,,,,,,,,,,,,,,,,,,,,,,,,,,,,,,,
,,,,,WIN24_011,20,Female,2024-01-29_13h33.17.898,jersey_experiment_5,2023.2.2,Win32,84.74576271,,,,,,,,,,,,,,,,675.2924,677.0922,677.0922,679.0529,return,0.6726,,47.91666667,,,,,,FBP-RB-91.png,0.37,1.2,27,1,0,59,59,26,1,,,,,,,,,,,,,,,,,,,,,,,,,,,,,,,,,,,,,,,,
,,,,,WIN24_011,20,Female,2024-01-29_13h33.17.898,jersey_experiment_5,2023.2.2,Win32,84.74576271,,,,,,,,,,,,,,,,,,,,,,,,,,,,,,,,,,,,,,,679.0533,799.0577,,,,,,,,,,,,,,,,,,,,,,,,,,,,,,,,,,,,,,
,,,,,WIN24_011,20,Female,2024-01-29_13h33.17.898,jersey_experiment_5,2023.2.2,Win32,84.74576271,,,,,,,,,,,,,,,,,,,,,,,,,,,,,,,,,,,,,,,,,799.0577,808.6345,return,9.5576,,,,,,,,,,,,,,,,,,,,,,,,,,,,,,,,,,
,,,,,WIN24_011,20,Female,2024-01-29_13h33.17.898,jersey_experiment_5,2023.2.2,Win32,84.74576271,,,,,,,,,,,,,,,,808.6362,810.4364,810.4364,816.3755,return,1.6543,,50.52083333,,,,,,FBP-OG-81.png,0.4,1.2,8,1,,,,,,,,,,,,,0,0,0,7,1,,,,,,,,,,,,,,,,,,,,,,,,,,,,
,,,,,WIN24_011,20,Female,2024-01-29_13h33.17.898,jersey_experiment_5,2023.2.2,Win32,84.74576271,,,,,,,,,,,,,,,,816.3761,817.6736,817.6737,820.7189,return,0.7608,,42.05729167,,,,,,FBP-YG-71.png,0.35,1.2,31,0.5,,,,,,,,,,,,,0,1,1,30,1,,,,,,,,,,,,,,,,,,,,,,,,,,,,
,,,,,WIN24_011,20,Female,2024-01-29_13h33.17.898,jersey_experiment_5,2023.2.2,Win32,84.74576271,,,,,,,,,,,,,,,,820.7191,822.0109,822.011,823.886,return,0.4138,,71.22395833,,,,,,FBP-YG-81.png,0.43,1.2,39,0.5,,,,,,,,,,,,,0,2,2,38,1,,,,,,,,,,,,,,,,,,,,,,,,,,,,
,,,,,WIN24_011,20,Female,2024-01-29_13h33.17.898,jersey_experiment_5,2023.2.2,Win32,84.74576271,,,,,,,,,,,,,,,,823.886,825.6819,825.6819,827.8467,return,0.747,,60.9375,,,,,,FBP-PT-17.png,0.4,1.2,48,1,,,,,,,,,,,,,0,3,3,47,1,,,,,,,,,,,,,,,,,,,,,,,,,,,,
,,,,,WIN24_011,20,Female,2024-01-29_13h33.17.898,jersey_experiment_5,2023.2.2,Win32,84.74576271,,,,,,,,,,,,,,,,827.8468,829.6467,829.6467,831.882,return,1.3694,,84.765625,,,,,,FBP-OG-91.png,0.45,1.2,15,1,,,,,,,,,,,,,0,4,4,14,1,,,,,,,,,,,,,,,,,,,,,,,,,,,,
,,,,,WIN24_011,20,Female,2024-01-29_13h33.17.898,jersey_experiment_5,2023.2.2,Win32,84.74576271,,,,,,,,,,,,,,,,831.8821,833.1762,833.1763,834.5922,return,0.412,,64.71354167,,,,,,FBP-YG-91.png,0.4,1.2,43,0.5,,,,,,,,,,,,,0,5,5,42,1,,,,,,,,,,,,,,,,,,,,,,,,,,,,
,,,,,WIN24_011,20,Female,2024-01-29_13h33.17.898,jersey_experiment_5,2023.2.2,Win32,84.74576271,,,,,,,,,,,,,,,,834.5924,835.8887,835.8887,838.0941,return,0.34,,68.48958333,,,,,,FBP-YG-71.png,0.4,1.2,33,0.5,,,,,,,,,,,,,0,6,6,32,1,,,,,,,,,,,,,,,,,,,,,,,,,,,,
,,,,,WIN24_011,20,Female,2024-01-29_13h33.17.898,jersey_experiment_5,2023.2.2,Win32,84.74576271,,,,,,,,,,,,,,,,838.0942,839.3921,839.3922,841.967,return,0.4221,,50.26041667,,,,,,FBP-YG-71.png,0.37,1.2,32,0.5,,,,,,,,,,,,,0,7,7,31,1,,,,,,,,,,,,,,,,,,,,,,,,,,,,
,,,,,WIN24_011,20,Female,2024-01-29_13h33.17.898,jersey_experiment_5,2023.2.2,Win32,84.74576271,,,,,,,,,,,,,,,,841.9672,843.259,843.259,845.259,return,0.8502,,84.375,,,,,,FBP-RB-19.png,0.45,1.2,30,0.5,,,,,,,,,,,,,0,8,8,29,1,,,,,,,,,,,,,,,,,,,,,,,,,,,,
,,,,,WIN24_011,20,Female,2024-01-29_13h33.17.898,jersey_experiment_5,2023.2.2,Win32,84.74576271,,,,,,,,,,,,,,,,845.2592,846.5531,846.5532,848.8515,return,0.3532,,13.28125,,,,,,FBP-RB-17.png,0.35,1.2,16,0.5,,,,,,,,,,,,,0,9,9,15,1,,,,,,,,,,,,,,,,,,,,,,,,,,,,
,,,,,WIN24_011,20,Female,2024-01-29_13h33.17.898,jersey_experiment_5,2023.2.2,Win32,84.74576271,,,,,,,,,,,,,,,,848.8517,850.6518,850.6518,852.2184,return,0.4355,,67.44791667,,,,,,FBP-OG-71.png,0.43,1.2,4,1,,,,,,,,,,,,,0,10,10,3,1,,,,,,,,,,,,,,,,,,,,,,,,,,,,
,,,,,WIN24_011,20,Female,2024-01-29_13h33.17.898,jersey_experiment_5,2023.2.2,Win32,84.74576271,,,,,,,,,,,,,,,,852.2185,853.5221,853.5221,855.0358,return,0.4008,,88.671875,,,,,,FBP-RB-18.png,0.45,1.2,25,0.5,,,,,,,,,,,,,0,11,11,24,1,,,,,,,,,,,,,,,,,,,,,,,,,,,,
,,,,,WIN24_011,20,Female,2024-01-29_13h33.17.898,jersey_experiment_5,2023.2.2,Win32,84.74576271,,,,,,,,,,,,,,,,855.036,856.8417,856.8417,857.9225,return,0.2,,90.49479167,,,,,,FBP-OG-81.png,0.45,1.2,10,1,,,,,,,,,,,,,0,12,12,9,1,,,,,,,,,,,,,,,,,,,,,,,,,,,,
,,,,,WIN24_011,20,Female,2024-01-29_13h33.17.898,jersey_experiment_5,2023.2.2,Win32,84.74576271,,,,,,,,,,,,,,,,857.9226,859.7225,859.7225,860.6857,return,0.3162,,82.94270833,,,,,,FBP-OG-91.png,0.43,1.2,14,1,,,,,,,,,,,,,0,13,13,13,1,,,,,,,,,,,,,,,,,,,,,,,,,,,,
,,,,,WIN24_011,20,Female,2024-01-29_13h33.17.898,jersey_experiment_5,2023.2.2,Win32,84.74576271,,,,,,,,,,,,,,,,860.6859,862.4875,862.4875,864.6832,return,0.9678,,63.28125,,,,,,FBP-OG-71.png,0.4,1.2,3,1,,,,,,,,,,,,,0,14,14,2,1,,,,,,,,,,,,,,,,,,,,,,,,,,,,
,,,,,WIN24_011,20,Female,2024-01-29_13h33.17.898,jersey_experiment_5,2023.2.2,Win32,84.74576271,,,,,,,,,,,,,,,,864.6835,866.476,866.476,868.523,return,0.3531,,29.94791667,,,,,,FBP-OG-71.png,0.37,1.2,2,1,,,,,,,,,,,,,0,15,15,1,1,,,,,,,,,,,,,,,,,,,,,,,,,,,,
,,,,,WIN24_011,20,Female,2024-01-29_13h33.17.898,jersey_experiment_5,2023.2.2,Win32,84.74576271,,,,,,,,,,,,,,,,868.523,870.3187,870.3187,873.2405,return,0.8214,,11.71875,,,,,,FBP-OG-81.png,0.35,1.2,6,1,,,,,,,,,,,,,0,16,16,5,1,,,,,,,,,,,,,,,,,,,,,,,,,,,,
,,,,,WIN24_011,20,Female,2024-01-29_13h33.17.898,jersey_experiment_5,2023.2.2,Win32,84.74576271,,,,,,,,,,,,,,,,873.2406,875.0407,875.0407,876.8248,return,0.4293,,64.84375,,,,,,FBP-PT-19.png,0.45,1.2,60,1,,,,,,,,,,,,,0,17,17,59,1,,,,,,,,,,,,,,,,,,,,,,,,,,,,
,,,,,WIN24_011,20,Female,2024-01-29_13h33.17.898,jersey_experiment_5,2023.2.2,Win32,84.74576271,,,,,,,,,,,,,,,,876.8251,878.1231,878.1231,880.1544,return,1.0493,,72.78645833,,,,,,FBP-YG-71.png,0.43,1.2,34,0.5,,,,,,,,,,,,,0,18,18,33,1,,,,,,,,,,,,,,,,,,,,,,,,,,,,
,,,,,WIN24_011,20,Female,2024-01-29_13h33.17.898,jersey_experiment_5,2023.2.2,Win32,84.74576271,,,,,,,,,,,,,,,,880.1546,881.9472,881.9472,883.7116,return,0.2337,,29.03645833,,,,,,FBP-OG-81.png,0.37,1.2,7,1,,,,,,,,,,,,,0,19,19,6,1,,,,,,,,,,,,,,,,,,,,,,,,,,,,
,,,,,WIN24_011,20,Female,2024-01-29_13h33.17.898,jersey_experiment_5,2023.2.2,Win32,84.74576271,,,,,,,,,,,,,,,,883.7118,885.0174,885.0174,886.7945,return,0.4124,,93.88020833,,,,,,FBP-RB-17.png,0.45,1.2,20,0.5,,,,,,,,,,,,,0,20,20,19,1,,,,,,,,,,,,,,,,,,,,,,,,,,,,
,,,,,WIN24_011,20,Female,2024-01-29_13h33.17.898,jersey_experiment_5,2023.2.2,Win32,84.74576271,,,,,,,,,,,,,,,,886.7946,888.59,888.59,891.0372,return,0.5311,,84.50520833,,,,,,FBP-PT-17.png,0.45,1.2,50,1,,,,,,,,,,,,,0,21,21,49,1,,,,,,,,,,,,,,,,,,,,,,,,,,,,
,,,,,WIN24_011,20,Female,2024-01-29_13h33.17.898,jersey_experiment_5,2023.2.2,Win32,84.74576271,,,,,,,,,,,,,,,,891.0373,892.8371,892.8371,895.8256,return,0.6926,,78.125,,,,,,FBP-OG-71.png,0.45,1.2,5,1,,,,,,,,,,,,,0,22,22,4,1,,,,,,,,,,,,,,,,,,,,,,,,,,,,
,,,,,WIN24_011,20,Female,2024-01-29_13h33.17.898,jersey_experiment_5,2023.2.2,Win32,84.74576271,,,,,,,,,,,,,,,,895.8257,897.6179,897.6179,900.9668,return,0.3487,,59.24479167,,,,,,FBP-PT-17.png,0.43,1.2,49,1,,,,,,,,,,,,,0,23,23,48,1,,,,,,,,,,,,,,,,,,,,,,,,,,,,
,,,,,WIN24_011,20,Female,2024-01-29_13h33.17.898,jersey_experiment_5,2023.2.2,Win32,84.74576271,,,,,,,,,,,,,,,,900.9669,902.2641,902.2641,904.5378,return,0.308,,25.390625,,,,,,FBP-YG-91.png,0.37,1.2,42,0.5,,,,,,,,,,,,,0,24,24,41,1,,,,,,,,,,,,,,,,,,,,,,,,,,,,
,,,,,WIN24_011,20,Female,2024-01-29_13h33.17.898,jersey_experiment_5,2023.2.2,Win32,84.74576271,,,,,,,,,,,,,,,,904.538,905.8302,905.8302,907.1788,return,0.2279,,8.723958333,,,,,,FBP-YG-81.png,0.35,1.2,36,0.5,,,,,,,,,,,,,0,25,25,35,1,,,,,,,,,,,,,,,,,,,,,,,,,,,,
,,,,,WIN24_011,20,Female,2024-01-29_13h33.17.898,jersey_experiment_5,2023.2.2,Win32,84.74576271,,,,,,,,,,,,,,,,907.1789,908.4731,908.4731,910.2378,return,0.1653,,58.59375,,,,,,FBP-RB-18.png,0.4,1.2,23,0.5,,,,,,,,,,,,,0,26,26,22,1,,,,,,,,,,,,,,,,,,,,,,,,,,,,
,,,,,WIN24_011,20,Female,2024-01-29_13h33.17.898,jersey_experiment_5,2023.2.2,Win32,84.74576271,,,,,,,,,,,,,,,,910.238,912.038,912.038,913.9791,return,0.2129,,75,,,,,,FBP-OG-81.png,0.43,1.2,9,1,,,,,,,,,,,,,0,27,27,8,1,,,,,,,,,,,,,,,,,,,,,,,,,,,,
,,,,,WIN24_011,20,Female,2024-01-29_13h33.17.898,jersey_experiment_5,2023.2.2,Win32,84.74576271,,,,,,,,,,,,,,,,913.9793,915.2733,915.2733,917.25,return,0.1053,,25.26041667,,,,,,FBP-RB-18.png,0.35,1.2,21,0.5,,,,,,,,,,,,,0,28,28,20,1,,,,,,,,,,,,,,,,,,,,,,,,,,,,
,,,,,WIN24_011,20,Female,2024-01-29_13h33.17.898,jersey_experiment_5,2023.2.2,Win32,84.74576271,,,,,,,,,,,,,,,,917.2501,918.544,918.544,921.8542,return,0.1531,,68.48958333,,,,,,FBP-RB-19.png,0.43,1.2,29,0.5,,,,,,,,,,,,,0,29,29,28,1,,,,,,,,,,,,,,,,,,,,,,,,,,,,
,,,,,WIN24_011,20,Female,2024-01-29_13h33.17.898,jersey_experiment_5,2023.2.2,Win32,84.74576271,,,,,,,,,,,,,,,,921.8544,923.6501,923.6502,928.1841,return,0.2119,,25.390625,,,,,,FBP-PT-18.png,0.37,1.2,52,1,,,,,,,,,,,,,0,30,30,51,1,,,,,,,,,,,,,,,,,,,,,,,,,,,,
,,,,,WIN24_011,20,Female,2024-01-29_13h33.17.898,jersey_experiment_5,2023.2.2,Win32,84.74576271,,,,,,,,,,,,,,,,928.1842,929.9841,929.9841,931.2151,return,0.2723,,11.84895833,,,,,,FBP-PT-17.png,0.35,1.2,46,1,,,,,,,,,,,,,0,31,31,45,1,,,,,,,,,,,,,,,,,,,,,,,,,,,,
,,,,,WIN24_011,20,Female,2024-01-29_13h33.17.898,jersey_experiment_5,2023.2.2,Win32,84.74576271,,,,,,,,,,,,,,,,931.2154,932.5134,932.5135,934.4153,return,0.4,,69.79166667,,,,,,FBP-YG-91.png,0.43,1.2,44,0.5,,,,,,,,,,,,,0,32,32,43,1,,,,,,,,,,,,,,,,,,,,,,,,,,,,
,,,,,WIN24_011,20,Female,2024-01-29_13h33.17.898,jersey_experiment_5,2023.2.2,Win32,84.74576271,,,,,,,,,,,,,,,,934.4153,935.7093,935.7094,938.2153,return,0.2423,,49.08854167,,,,,,FBP-RB-17.png,0.37,1.2,17,0.5,,,,,,,,,,,,,0,33,33,16,1,,,,,,,,,,,,,,,,,,,,,,,,,,,,
,,,,,WIN24_011,20,Female,2024-01-29_13h33.17.898,jersey_experiment_5,2023.2.2,Win32,84.74576271,,,,,,,,,,,,,,,,938.2154,940.0154,940.0154,941.4507,return,0.2841,,61.97916667,,,,,,FBP-PT-18.png,0.4,1.2,53,1,,,,,,,,,,,,,0,34,34,52,1,,,,,,,,,,,,,,,,,,,,,,,,,,,,
,,,,,WIN24_011,20,Female,2024-01-29_13h33.17.898,jersey_experiment_5,2023.2.2,Win32,84.74576271,,,,,,,,,,,,,,,,941.4509,942.7448,942.7448,944.3684,return,0.3158,,52.734375,,,,,,FBP-RB-19.png,0.37,1.2,27,0.5,,,,,,,,,,,,,0,35,35,26,1,,,,,,,,,,,,,,,,,,,,,,,,,,,,
,,,,,WIN24_011,20,Female,2024-01-29_13h33.17.898,jersey_experiment_5,2023.2.2,Win32,84.74576271,,,,,,,,,,,,,,,,944.3686,945.6628,945.6628,947.1333,return,0.3776,,66.14583333,,,,,,FBP-RB-19.png,0.4,1.2,28,0.5,,,,,,,,,,,,,0,36,36,27,1,,,,,,,,,,,,,,,,,,,,,,,,,,,,
,,,,,WIN24_011,20,Female,2024-01-29_13h33.17.898,jersey_experiment_5,2023.2.2,Win32,84.74576271,,,,,,,,,,,,,,,,947.1335,948.9258,948.9259,950.3805,return,0.3782,,83.203125,,,,,,FBP-PT-18.png,0.45,1.2,55,1,,,,,,,,,,,,,0,37,37,54,1,,,,,,,,,,,,,,,,,,,,,,,,,,,,
,,,,,WIN24_011,20,Female,2024-01-29_13h33.17.898,jersey_experiment_5,2023.2.2,Win32,84.74576271,,,,,,,,,,,,,,,,950.3806,951.6747,951.6747,953.0865,return,0.2728,,58.203125,,,,,,FBP-YG-81.png,0.37,1.2,37,0.5,,,,,,,,,,,,,0,38,38,36,1,,,,,,,,,,,,,,,,,,,,,,,,,,,,
,,,,,WIN24_011,20,Female,2024-01-29_13h33.17.898,jersey_experiment_5,2023.2.2,Win32,84.74576271,,,,,,,,,,,,,,,,953.0866,954.8791,954.8791,956.5359,return,1.1139,,71.61458333,,,,,,FBP-PT-19.png,0.4,1.2,58,1,,,,,,,,,,,,,0,39,39,57,1,,,,,,,,,,,,,,,,,,,,,,,,,,,,
,,,,,WIN24_011,20,Female,2024-01-29_13h33.17.898,jersey_experiment_5,2023.2.2,Win32,84.74576271,,,,,,,,,,,,,,,,956.5361,957.8277,957.8277,959.632,return,0.3533,,88.671875,,,,,,FBP-YG-81.png,0.45,1.2,40,0.5,,,,,,,,,,,,,0,40,40,39,1,,,,,,,,,,,,,,,,,,,,,,,,,,,,
,,,,,WIN24_011,20,Female,2024-01-29_13h33.17.898,jersey_experiment_5,2023.2.2,Win32,84.74576271,,,,,,,,,,,,,,,,959.6321,961.4279,961.428,962.3635,return,0.2962,,87.109375,,,,,,FBP-PT-19.png,0.43,1.2,59,1,,,,,,,,,,,,,0,41,41,58,1,,,,,,,,,,,,,,,,,,,,,,,,,,,,
,,,,,WIN24_011,20,Female,2024-01-29_13h33.17.898,jersey_experiment_5,2023.2.2,Win32,84.74576271,,,,,,,,,,,,,,,,962.3636,964.1616,964.1616,965.3576,return,0.5043,,70.703125,,,,,,FBP-OG-91.png,0.4,1.2,13,1,,,,,,,,,,,,,0,42,42,12,1,,,,,,,,,,,,,,,,,,,,,,,,,,,,
,,,,,WIN24_011,20,Female,2024-01-29_13h33.17.898,jersey_experiment_5,2023.2.2,Win32,84.74576271,,,,,,,,,,,,,,,,965.3577,966.6518,966.6518,968.84,return,0.2654,,50.78125,,,,,,FBP-YG-91.png,0.35,1.2,41,0.5,,,,,,,,,,,,,0,43,43,40,1,,,,,,,,,,,,,,,,,,,,,,,,,,,,
,,,,,WIN24_011,20,Female,2024-01-29_13h33.17.898,jersey_experiment_5,2023.2.2,Win32,84.74576271,,,,,,,,,,,,,,,,968.8402,970.6401,970.6401,973.3031,return,1.1294,,42.96875,,,,,,FBP-OG-91.png,0.37,1.2,12,1,,,,,,,,,,,,,0,44,44,11,1,,,,,,,,,,,,,,,,,,,,,,,,,,,,
,,,,,WIN24_011,20,Female,2024-01-29_13h33.17.898,jersey_experiment_5,2023.2.2,Win32,84.74576271,,,,,,,,,,,,,,,,973.3032,975.0989,975.0989,976.9148,return,0.4473,,61.45833333,,,,,,FBP-PT-18.png,0.43,1.2,54,1,,,,,,,,,,,,,0,45,45,53,1,,,,,,,,,,,,,,,,,,,,,,,,,,,,
,,,,,WIN24_011,20,Female,2024-01-29_13h33.17.898,jersey_experiment_5,2023.2.2,Win32,84.74576271,,,,,,,,,,,,,,,,976.9151,978.2169,978.2169,980.558,return,0.3569,,26.69270833,,,,,,FBP-RB-19.png,0.35,1.2,26,0.5,,,,,,,,,,,,,0,46,46,25,1,,,,,,,,,,,,,,,,,,,,,,,,,,,,
,,,,,WIN24_011,20,Female,2024-01-29_13h33.17.898,jersey_experiment_5,2023.2.2,Win32,84.74576271,,,,,,,,,,,,,,,,980.5582,981.8521,981.8522,986.7464,return,1.6747,,63.80208333,,,,,,FBP-RB-17.png,0.4,1.2,18,0.5,,,,,,,,,,,,,0,47,47,17,1,,,,,,,,,,,,,,,,,,,,,,,,,,,,
,,,,,WIN24_011,20,Female,2024-01-29_13h33.17.898,jersey_experiment_5,2023.2.2,Win32,84.74576271,,,,,,,,,,,,,,,,986.7466,988.0407,988.0407,989.9938,return,0.3558,,48.95833333,,,,,,FBP-RB-18.png,0.37,1.2,22,0.5,,,,,,,,,,,,,0,48,48,21,1,,,,,,,,,,,,,,,,,,,,,,,,,,,,
,,,,,WIN24_011,20,Female,2024-01-29_13h33.17.898,jersey_experiment_5,2023.2.2,Win32,84.74576271,,,,,,,,,,,,,,,,989.9939,991.2877,991.2877,992.5979,return,0.2355,,83.203125,,,,,,FBP-YG-71.png,0.45,1.2,35,0.5,,,,,,,,,,,,,0,49,49,34,1,,,,,,,,,,,,,,,,,,,,,,,,,,,,
,,,,,WIN24_011,20,Female,2024-01-29_13h33.17.898,jersey_experiment_5,2023.2.2,Win32,84.74576271,,,,,,,,,,,,,,,,992.598,994.3967,994.3967,997.5822,return,2.1649,,37.36979167,,,,,,FBP-PT-19.png,0.37,1.2,57,1,,,,,,,,,,,,,0,50,50,56,1,,,,,,,,,,,,,,,,,,,,,,,,,,,,
,,,,,WIN24_011,20,Female,2024-01-29_13h33.17.898,jersey_experiment_5,2023.2.2,Win32,84.74576271,,,,,,,,,,,,,,,,997.5823,998.8762,998.8763,1000.4764,return,0.4976,,72.52604167,,,,,,FBP-YG-91.png,0.45,1.2,45,0.5,,,,,,,,,,,,,0,51,51,44,1,,,,,,,,,,,,,,,,,,,,,,,,,,,,
,,,,,WIN24_011,20,Female,2024-01-29_13h33.17.898,jersey_experiment_5,2023.2.2,Win32,84.74576271,,,,,,,,,,,,,,,,1000.4766,1002.2692,1002.2692,1004.2885,return,0.2846,,25.78125,,,,,,FBP-OG-71.png,0.35,1.2,1,1,,,,,,,,,,,,,0,52,52,0,1,,,,,,,,,,,,,,,,,,,,,,,,,,,,
,,,,,WIN24_011,20,Female,2024-01-29_13h33.17.898,jersey_experiment_5,2023.2.2,Win32,84.74576271,,,,,,,,,,,,,,,,1004.2887,1006.0884,1006.0884,1007.559,return,0.7465,,23.4375,,,,,,FBP-PT-17.png,0.37,1.2,47,1,,,,,,,,,,,,,0,53,53,46,1,,,,,,,,,,,,,,,,,,,,,,,,,,,,
,,,,,WIN24_011,20,Female,2024-01-29_13h33.17.898,jersey_experiment_5,2023.2.2,Win32,84.74576271,,,,,,,,,,,,,,,,1007.559,1009.3591,1009.3591,1010.5868,return,0.1886,,16.796875,,,,,,FBP-PT-19.png,0.35,1.2,56,1,,,,,,,,,,,,,0,54,54,55,1,,,,,,,,,,,,,,,,,,,,,,,,,,,,
,,,,,WIN24_011,20,Female,2024-01-29_13h33.17.898,jersey_experiment_5,2023.2.2,Win32,84.74576271,,,,,,,,,,,,,,,,1010.5869,1012.3828,1012.3829,1013.3872,return,0.3182,,16.796875,,,,,,FBP-OG-91.png,0.35,1.2,11,1,,,,,,,,,,,,,0,55,55,10,1,,,,,,,,,,,,,,,,,,,,,,,,,,,,
,,,,,WIN24_011,20,Female,2024-01-29_13h33.17.898,jersey_experiment_5,2023.2.2,Win32,84.74576271,,,,,,,,,,,,,,,,1013.3873,1014.6793,1014.6793,1016.9873,return,0.424,,63.41145833,,,,,,FBP-YG-81.png,0.4,1.2,38,0.5,,,,,,,,,,,,,0,56,56,37,1,,,,,,,,,,,,,,,,,,,,,,,,,,,,
,,,,,WIN24_011,20,Female,2024-01-29_13h33.17.898,jersey_experiment_5,2023.2.2,Win32,84.74576271,,,,,,,,,,,,,,,,1016.9874,1018.2889,1018.2889,1019.5477,return,0.2849,,88.28125,,,,,,FBP-RB-17.png,0.43,1.2,19,0.5,,,,,,,,,,,,,0,57,57,18,1,,,,,,,,,,,,,,,,,,,,,,,,,,,,
,,,,,WIN24_011,20,Female,2024-01-29_13h33.17.898,jersey_experiment_5,2023.2.2,Win32,84.74576271,,,,,,,,,,,,,,,,1019.548,1021.3405,1021.3405,1023.1126,return,0.2628,,18.09895833,,,,,,FBP-PT-18.png,0.35,1.2,51,1,,,,,,,,,,,,,0,58,58,50,1,,,,,,,,,,,,,,,,,,,,,,,,,,,,
,,,,,WIN24_011,20,Female,2024-01-29_13h33.17.898,jersey_experiment_5,2023.2.2,Win32,84.74576271,,,,,,,,,,,,,,,,1023.1127,1024.4107,1024.4107,1026.4114,return,0.3067,,84.63541667,,,,,,FBP-RB-18.png,0.43,1.2,24,0.5,,,,,,,,,,,,,0,59,59,23,1,,,,,,,,,,,,,,,,,,,,,,,,,,,,
,,,,,WIN24_011,20,Female,2024-01-29_13h33.17.898,jersey_experiment_5,2023.2.2,Win32,84.74576271,,,,,,,,,,,,,,,,1026.4132,1028.2068,1028.2068,1030.3127,return,0.3917,,33.07291667,,,,,,FBP-OG-17.png,0.35,1.2,1,1,,,,,,,,,,,,,,,,,,0,0,0,0,1,,,,,,,,,,,,,,,,,,,,,,,
,,,,,WIN24_011,20,Female,2024-01-29_13h33.17.898,jersey_experiment_5,2023.2.2,Win32,84.74576271,,,,,,,,,,,,,,,,1030.313,1031.6069,1031.6069,1033.1998,return,0.3296,,25.13020833,,,,,,FBP-RB-91.png,0.35,1.2,26,0.5,,,,,,,,,,,,,,,,,,0,1,1,25,1,,,,,,,,,,,,,,,,,,,,,,,
,,,,,WIN24_011,20,Female,2024-01-29_13h33.17.898,jersey_experiment_5,2023.2.2,Win32,84.74576271,,,,,,,,,,,,,,,,1033.2,1034.5044,1034.5044,1036.4723,return,0.3431,,79.81770833,,,,,,FBP-YG-18.png,0.45,1.2,40,0.5,,,,,,,,,,,,,,,,,,0,2,2,39,1,,,,,,,,,,,,,,,,,,,,,,,
,,,,,WIN24_011,20,Female,2024-01-29_13h33.17.898,jersey_experiment_5,2023.2.2,Win32,84.74576271,,,,,,,,,,,,,,,,1036.4724,1038.2661,1038.2661,1042.1838,return,2.5495,,34.375,,,,,,FBP-OG-19.png,0.35,1.2,11,1,,,,,,,,,,,,,,,,,,0,3,3,10,1,,,,,,,,,,,,,,,,,,,,,,,
,,,,,WIN24_011,20,Female,2024-01-29_13h33.17.898,jersey_experiment_5,2023.2.2,Win32,84.74576271,,,,,,,,,,,,,,,,1042.1879,1043.9839,1043.984,1045.784,return,0.3947,,71.09375,,,,,,FBP-PT-81.png,0.45,1.2,55,1,,,,,,,,,,,,,,,,,,0,4,4,54,1,,,,,,,,,,,,,,,,,,,,,,,
,,,,,WIN24_011,20,Female,2024-01-29_13h33.17.898,jersey_experiment_5,2023.2.2,Win32,84.74576271,,,,,,,,,,,,,,,,1045.7841,1047.5768,1047.5768,1049.7369,return,0.2405,,17.96875,,,,,,FBP-PT-71.png,0.37,1.2,47,1,,,,,,,,,,,,,,,,,,0,5,5,46,1,,,,,,,,,,,,,,,,,,,,,,,
,,,,,WIN24_011,20,Female,2024-01-29_13h33.17.898,jersey_experiment_5,2023.2.2,Win32,84.74576271,,,,,,,,,,,,,,,,1049.7372,1051.0312,1051.0312,1052.6495,return,0.5552,,83.46354167,,,,,,FBP-RB-71.png,0.45,1.2,20,0.5,,,,,,,,,,,,,,,,,,0,6,6,19,1,,,,,,,,,,,,,,,,,,,,,,,
,,,,,WIN24_011,20,Female,2024-01-29_13h33.17.898,jersey_experiment_5,2023.2.2,Win32,84.74576271,,,,,,,,,,,,,,,,1052.6496,1053.9411,1053.9411,1056.2902,return,0.9309,,72.13541667,,,,,,FBP-RB-81.png,0.43,1.2,24,0.5,,,,,,,,,,,,,,,,,,0,7,7,23,1,,,,,,,,,,,,,,,,,,,,,,,
,,,,,WIN24_011,20,Female,2024-01-29_13h33.17.898,jersey_experiment_5,2023.2.2,Win32,84.74576271,,,,,,,,,,,,,,,,1056.2904,1058.0828,1058.0828,1062.0433,return,0.203,,29.6875,,,,,,FBP-PT-81.png,0.4,1.2,53,1,,,,,,,,,,,,,,,,,,0,8,8,52,1,,,,,,,,,,,,,,,,,,,,,,,
,,,,,WIN24_011,20,Female,2024-01-29_13h33.17.898,jersey_experiment_5,2023.2.2,Win32,84.74576271,,,,,,,,,,,,,,,,1062.0435,1063.3376,1063.3376,1065.1376,return,0.2476,,71.875,,,,,,FBP-YG-17.png,0.45,1.2,35,0.5,,,,,,,,,,,,,,,,,,0,9,9,34,1,,,,,,,,,,,,,,,,,,,,,,,
,,,,,WIN24_011,20,Female,2024-01-29_13h33.17.898,jersey_experiment_5,2023.2.2,Win32,84.74576271,,,,,,,,,,,,,,,,1065.1379,1066.9321,1066.9321,1069.8381,return,1.7903,,19.66145833,,,,,,FBP-OG-18.png,0.37,1.2,7,1,,,,,,,,,,,,,,,,,,0,10,10,6,1,,,,,,,,,,,,,,,,,,,,,,,
,,,,,WIN24_011,20,Female,2024-01-29_13h33.17.898,jersey_experiment_5,2023.2.2,Win32,84.74576271,,,,,,,,,,,,,,,,1069.8383,1071.13,1071.13,1073.2438,return,0.7672,,17.1875,,,,,,FBP-RB-81.png,0.35,1.2,21,0.5,,,,,,,,,,,,,,,,,,0,11,11,20,1,,,,,,,,,,,,,,,,,,,,,,,
,,,,,WIN24_011,20,Female,2024-01-29_13h33.17.898,jersey_experiment_5,2023.2.2,Win32,84.74576271,,,,,,,,,,,,,,,,1073.244,1074.5379,1074.5379,1076.738,return,0.3534,,35.15625,,,,,,FBP-RB-71.png,0.37,1.2,17,0.5,,,,,,,,,,,,,,,,,,0,12,12,16,1,,,,,,,,,,,,,,,,,,,,,,,
,,,,,WIN24_011,20,Female,2024-01-29_13h33.17.898,jersey_experiment_5,2023.2.2,Win32,84.74576271,,,,,,,,,,,,,,,,1076.7381,1078.532,1078.532,1079.6246,return,0.353,,52.60416667,,,,,,FBP-PT-91.png,0.43,1.2,59,1,,,,,,,,,,,,,,,,,,0,13,13,58,1,,,,,,,,,,,,,,,,,,,,,,,
,,,,,WIN24_011,20,Female,2024-01-29_13h33.17.898,jersey_experiment_5,2023.2.2,Win32,84.74576271,,,,,,,,,,,,,,,,1079.6247,1080.9206,1080.9206,1082.717,return,0.3746,,24.47916667,,,,,,FBP-YG-19.png,0.35,1.2,41,0.5,,,,,,,,,,,,,,,,,,0,14,14,40,1,,,,,,,,,,,,,,,,,,,,,,,
,,,,,WIN24_011,20,Female,2024-01-29_13h33.17.898,jersey_experiment_5,2023.2.2,Win32,84.74576271,,,,,,,,,,,,,,,,1082.7172,1084.009,1084.009,1086.7895,return,0.5765,,63.15104167,,,,,,FBP-YG-18.png,0.43,1.2,39,0.5,,,,,,,,,,,,,,,,,,0,15,15,38,1,,,,,,,,,,,,,,,,,,,,,,,
,,,,,WIN24_011,20,Female,2024-01-29_13h33.17.898,jersey_experiment_5,2023.2.2,Win32,84.74576271,,,,,,,,,,,,,,,,1086.7898,1088.0818,1088.0818,1089.5313,return,0.4474,,84.11458333,,,,,,FBP-RB-91.png,0.45,1.2,30,0.5,,,,,,,,,,,,,,,,,,0,16,16,29,1,,,,,,,,,,,,,,,,,,,,,,,
,,,,,WIN24_011,20,Female,2024-01-29_13h33.17.898,jersey_experiment_5,2023.2.2,Win32,84.74576271,,,,,,,,,,,,,,,,1089.5315,1090.8367,1090.8367,1093.9897,return,0.9295,,63.15104167,,,,,,FBP-YG-17.png,0.4,1.2,33,0.5,,,,,,,,,,,,,,,,,,0,17,17,32,1,,,,,,,,,,,,,,,,,,,,,,,
,,,,,WIN24_011,20,Female,2024-01-29_13h33.17.898,jersey_experiment_5,2023.2.2,Win32,84.74576271,,,,,,,,,,,,,,,,1093.9898,1095.7903,1095.7903,1096.7034,return,0.3294,,83.984375,,,,,,FBP-PT-71.png,0.45,1.2,50,1,,,,,,,,,,,,,,,,,,0,18,18,49,1,,,,,,,,,,,,,,,,,,,,,,,
,,,,,WIN24_011,20,Female,2024-01-29_13h33.17.898,jersey_experiment_5,2023.2.2,Win32,84.74576271,,,,,,,,,,,,,,,,1096.7035,1098,1098,1099.9194,return,0.2686,,51.04166667,,,,,,FBP-YG-17.png,0.37,1.2,32,0.5,,,,,,,,,,,,,,,,,,0,19,19,31,1,,,,,,,,,,,,,,,,,,,,,,,
,,,,,WIN24_011,20,Female,2024-01-29_13h33.17.898,jersey_experiment_5,2023.2.2,Win32,84.74576271,,,,,,,,,,,,,,,,1099.9196,1101.7153,1101.7154,1102.6095,return,0.4003,,48.95833333,,,,,,FBP-PT-71.png,0.4,1.2,48,1,,,,,,,,,,,,,,,,,,0,20,20,47,1,,,,,,,,,,,,,,,,,,,,,,,
,,,,,WIN24_011,20,Female,2024-01-29_13h33.17.898,jersey_experiment_5,2023.2.2,Win32,84.74576271,,,,,,,,,,,,,,,,1102.6098,1103.9099,1103.9099,1105.3432,return,0.4473,,38.54166667,,,,,,FBP-YG-17.png,0.35,1.2,31,0.5,,,,,,,,,,,,,,,,,,0,21,21,30,1,,,,,,,,,,,,,,,,,,,,,,,
,,,,,WIN24_011,20,Female,2024-01-29_13h33.17.898,jersey_experiment_5,2023.2.2,Win32,84.74576271,,,,,,,,,,,,,,,,1105.3434,1107.1431,1107.1431,1109.308,return,0.5056,,50.91145833,,,,,,FBP-OG-19.png,0.4,1.2,13,1,,,,,,,,,,,,,,,,,,0,22,22,12,1,,,,,,,,,,,,,,,,,,,,,,,
,,,,,WIN24_011,20,Female,2024-01-29_13h33.17.898,jersey_experiment_5,2023.2.2,Win32,84.74576271,,,,,,,,,,,,,,,,1109.3082,1110.6131,1110.6131,1112.457,return,0.382,,64.19270833,,,,,,FBP-YG-18.png,0.4,1.2,38,0.5,,,,,,,,,,,,,,,,,,0,23,23,37,1,,,,,,,,,,,,,,,,,,,,,,,
,,,,,WIN24_011,20,Female,2024-01-29_13h33.17.898,jersey_experiment_5,2023.2.2,Win32,84.74576271,,,,,,,,,,,,,,,,1112.4573,1113.7551,1113.7551,1114.8611,return,0.235,,79.296875,,,,,,FBP-YG-19.png,0.43,1.2,44,0.5,,,,,,,,,,,,,,,,,,0,24,24,43,1,,,,,,,,,,,,,,,,,,,,,,,
,,,,,WIN24_011,20,Female,2024-01-29_13h33.17.898,jersey_experiment_5,2023.2.2,Win32,84.74576271,,,,,,,,,,,,,,,,1114.8611,1116.6616,1116.6616,1118.6616,return,0.3297,,39.0625,,,,,,FBP-PT-91.png,0.37,1.2,57,1,,,,,,,,,,,,,,,,,,0,25,25,56,1,,,,,,,,,,,,,,,,,,,,,,,
,,,,,WIN24_011,20,Female,2024-01-29_13h33.17.898,jersey_experiment_5,2023.2.2,Win32,84.74576271,,,,,,,,,,,,,,,,1118.6618,1119.9631,1119.9631,1121.8263,return,0.259,,82.55208333,,,,,,FBP-YG-17.png,0.43,1.2,34,0.5,,,,,,,,,,,,,,,,,,0,26,26,33,1,,,,,,,,,,,,,,,,,,,,,,,
,,,,,WIN24_011,20,Female,2024-01-29_13h33.17.898,jersey_experiment_5,2023.2.2,Win32,84.74576271,,,,,,,,,,,,,,,,1121.8265,1123.6264,1123.6265,1125.9674,return,0.2333,,33.07291667,,,,,,FBP-OG-18.png,0.35,1.2,6,1,,,,,,,,,,,,,,,,,,0,27,27,5,1,,,,,,,,,,,,,,,,,,,,,,,
,,,,,WIN24_011,20,Female,2024-01-29_13h33.17.898,jersey_experiment_5,2023.2.2,Win32,84.74576271,,,,,,,,,,,,,,,,1125.9676,1127.7636,1127.7636,1132.1753,return,2.9175,,60.28645833,,,,,,FBP-OG-19.png,0.43,1.2,14,1,,,,,,,,,,,,,,,,,,0,28,28,13,1,,,,,,,,,,,,,,,,,,,,,,,
,,,,,WIN24_011,20,Female,2024-01-29_13h33.17.898,jersey_experiment_5,2023.2.2,Win32,84.74576271,,,,,,,,,,,,,,,,1132.1756,1133.4756,1133.4756,1135.8388,return,1.2574,,50.13020833,,,,,,FBP-RB-91.png,0.37,1.2,27,0.5,,,,,,,,,,,,,,,,,,0,29,29,26,1,,,,,,,,,,,,,,,,,,,,,,,
,,,,,WIN24_011,20,Female,2024-01-29_13h33.17.898,jersey_experiment_5,2023.2.2,Win32,84.74576271,,,,,,,,,,,,,,,,1135.839,1137.6344,1137.6344,1140.321,return,0.3059,,62.890625,,,,,,FBP-OG-18.png,0.43,1.2,9,1,,,,,,,,,,,,,,,,,,0,30,30,8,1,,,,,,,,,,,,,,,,,,,,,,,
,,,,,WIN24_011,20,Female,2024-01-29_13h33.17.898,jersey_experiment_5,2023.2.2,Win32,84.74576271,,,,,,,,,,,,,,,,1140.3212,1141.6228,1141.6228,1144.2858,return,0.447,,69.40104167,,,,,,FBP-RB-81.png,0.4,1.2,23,0.5,,,,,,,,,,,,,,,,,,0,31,31,22,1,,,,,,,,,,,,,,,,,,,,,,,
,,,,,WIN24_011,20,Female,2024-01-29_13h33.17.898,jersey_experiment_5,2023.2.2,Win32,84.74576271,,,,,,,,,,,,,,,,1144.286,1146.086,1146.0861,1148.6861,return,1.2962,,76.30208333,,,,,,FBP-PT-71.png,0.43,1.2,49,1,,,,,,,,,,,,,,,,,,0,32,32,48,1,,,,,,,,,,,,,,,,,,,,,,,
,,,,,WIN24_011,20,Female,2024-01-29_13h33.17.898,jersey_experiment_5,2023.2.2,Win32,84.74576271,,,,,,,,,,,,,,,,1148.6862,1150.4819,1150.4819,1152.9526,return,1.0175,,63.02083333,,,,,,FBP-OG-18.png,0.4,1.2,8,1,,,,,,,,,,,,,,,,,,0,33,33,7,1,,,,,,,,,,,,,,,,,,,,,,,
,,,,,WIN24_011,20,Female,2024-01-29_13h33.17.898,jersey_experiment_5,2023.2.2,Win32,84.74576271,,,,,,,,,,,,,,,,1152.9529,1154.251,1154.251,1156.7056,return,0.4124,,81.11979167,,,,,,FBP-RB-81.png,0.45,1.2,25,0.5,,,,,,,,,,,,,,,,,,0,34,34,24,1,,,,,,,,,,,,,,,,,,,,,,,
,,,,,WIN24_011,20,Female,2024-01-29_13h33.17.898,jersey_experiment_5,2023.2.2,Win32,84.74576271,,,,,,,,,,,,,,,,1156.7058,1158.5058,1158.5058,1159.9691,return,0.3083,,74.08854167,,,,,,FBP-OG-17.png,0.43,1.2,4,1,,,,,,,,,,,,,,,,,,0,35,35,3,1,,,,,,,,,,,,,,,,,,,,,,,
,,,,,WIN24_011,20,Female,2024-01-29_13h33.17.898,jersey_experiment_5,2023.2.2,Win32,84.74576271,,,,,,,,,,,,,,,,1159.9693,1161.771,1161.771,1162.8589,return,0.3559,,80.078125,,,,,,FBP-PT-81.png,0.43,1.2,54,1,,,,,,,,,,,,,,,,,,0,36,36,53,1,,,,,,,,,,,,,,,,,,,,,,,
,,,,,WIN24_011,20,Female,2024-01-29_13h33.17.898,jersey_experiment_5,2023.2.2,Win32,84.74576271,,,,,,,,,,,,,,,,1162.8591,1164.1556,1164.1556,1165.299,return,0.5183,,80.078125,,,,,,FBP-RB-91.png,0.43,1.2,29,0.5,,,,,,,,,,,,,,,,,,0,37,37,28,1,,,,,,,,,,,,,,,,,,,,,,,
,,,,,WIN24_011,20,Female,2024-01-29_13h33.17.898,jersey_experiment_5,2023.2.2,Win32,84.74576271,,,,,,,,,,,,,,,,1165.299,1167.0969,1167.0969,1168.5531,return,0.2975,,49.08854167,,,,,,FBP-OG-19.png,0.37,1.2,12,1,,,,,,,,,,,,,,,,,,0,38,38,11,1,,,,,,,,,,,,,,,,,,,,,,,
,,,,,WIN24_011,20,Female,2024-01-29_13h33.17.898,jersey_experiment_5,2023.2.2,Win32,84.74576271,,,,,,,,,,,,,,,,1168.5533,1169.8474,1169.8474,1171.1594,return,0.4846,,34.375,,,,,,FBP-YG-18.png,0.35,1.2,36,0.5,,,,,,,,,,,,,,,,,,0,39,39,35,1,,,,,,,,,,,,,,,,,,,,,,,
,,,,,WIN24_011,20,Female,2024-01-29_13h33.17.898,jersey_experiment_5,2023.2.2,Win32,84.74576271,,,,,,,,,,,,,,,,1171.1595,1172.4632,1172.4632,1175.6594,return,1.9214,,57.29166667,,,,,,FBP-YG-19.png,0.4,1.2,43,0.5,,,,,,,,,,,,,,,,,,0,40,40,42,1,,,,,,,,,,,,,,,,,,,,,,,
,,,,,WIN24_011,20,Female,2024-01-29_13h33.17.898,jersey_experiment_5,2023.2.2,Win32,84.74576271,,,,,,,,,,,,,,,,1175.6596,1176.9555,1176.9555,1179.6048,return,1.1764,,37.63020833,,,,,,FBP-RB-71.png,0.35,1.2,16,0.5,,,,,,,,,,,,,,,,,,0,41,41,15,1,,,,,,,,,,,,,,,,,,,,,,,
,,,,,WIN24_011,20,Female,2024-01-29_13h33.17.898,jersey_experiment_5,2023.2.2,Win32,84.74576271,,,,,,,,,,,,,,,,1179.6049,1181.4049,1181.4049,1182.7771,return,0.4039,,79.94791667,,,,,,FBP-OG-18.png,0.45,1.2,10,1,,,,,,,,,,,,,,,,,,0,42,42,9,1,,,,,,,,,,,,,,,,,,,,,,,
,,,,,WIN24_011,20,Female,2024-01-29_13h33.17.898,jersey_experiment_5,2023.2.2,Win32,84.74576271,,,,,,,,,,,,,,,,1182.7773,1184.0714,1184.0714,1186.295,return,0.2423,,61.45833333,,,,,,FBP-RB-71.png,0.4,1.2,18,0.5,,,,,,,,,,,,,,,,,,0,43,43,17,1,,,,,,,,,,,,,,,,,,,,,,,
,,,,,WIN24_011,20,Female,2024-01-29_13h33.17.898,jersey_experiment_5,2023.2.2,Win32,84.74576271,,,,,,,,,,,,,,,,1186.2952,1188.0877,1188.0877,1190.1346,return,0.3178,,86.45833333,,,,,,FBP-OG-17.png,0.45,1.2,5,1,,,,,,,,,,,,,,,,,,0,44,44,4,1,,,,,,,,,,,,,,,,,,,,,,,
,,,,,WIN24_011,20,Female,2024-01-29_13h33.17.898,jersey_experiment_5,2023.2.2,Win32,84.74576271,,,,,,,,,,,,,,,,1190.1347,1191.4267,1191.4268,1193.9585,return,0.1666,,60.28645833,,,,,,FBP-RB-91.png,0.4,1.2,28,0.5,,,,,,,,,,,,,,,,,,0,45,45,27,1,,,,,,,,,,,,,,,,,,,,,,,
,,,,,WIN24_011,20,Female,2024-01-29_13h33.17.898,jersey_experiment_5,2023.2.2,Win32,84.74576271,,,,,,,,,,,,,,,,1193.9585,1195.7543,1195.7543,1197.8409,return,1.0835,,81.38020833,,,,,,FBP-PT-91.png,0.45,1.2,60,1,,,,,,,,,,,,,,,,,,0,46,46,59,1,,,,,,,,,,,,,,,,,,,,,,,
,,,,,WIN24_011,20,Female,2024-01-29_13h33.17.898,jersey_experiment_5,2023.2.2,Win32,84.74576271,,,,,,,,,,,,,,,,1197.8411,1199.1425,1199.1426,1201.8059,return,1.0828,,61.97916667,,,,,,FBP-RB-81.png,0.37,1.2,22,0.5,,,,,,,,,,,,,,,,,,0,47,47,21,1,,,,,,,,,,,,,,,,,,,,,,,
,,,,,WIN24_011,20,Female,2024-01-29_13h33.17.898,jersey_experiment_5,2023.2.2,Win32,84.74576271,,,,,,,,,,,,,,,,1201.806,1203.6077,1203.6077,1204.9221,return,0.4931,,79.16666667,,,,,,FBP-OG-19.png,0.45,1.2,15,1,,,,,,,,,,,,,,,,,,0,48,48,14,1,,,,,,,,,,,,,,,,,,,,,,,
,,,,,WIN24_011,20,Female,2024-01-29_13h33.17.898,jersey_experiment_5,2023.2.2,Win32,84.74576271,,,,,,,,,,,,,,,,1204.9222,1206.7192,1206.7192,1209.5783,return,0.4862,,46.09375,,,,,,FBP-OG-17.png,0.4,1.2,3,1,,,,,,,,,,,,,,,,,,0,49,49,2,1,,,,,,,,,,,,,,,,,,,,,,,
,,,,,WIN24_011,20,Female,2024-01-29_13h33.17.898,jersey_experiment_5,2023.2.2,Win32,84.74576271,,,,,,,,,,,,,,,,1209.5784,1211.3783,1211.3783,1214.146,return,0.5401,,7.03125,,,,,,FBP-PT-81.png,0.35,1.2,51,1,,,,,,,,,,,,,,,,,,0,50,50,50,1,,,,,,,,,,,,,,,,,,,,,,,
,,,,,WIN24_011,20,Female,2024-01-29_13h33.17.898,jersey_experiment_5,2023.2.2,Win32,84.74576271,,,,,,,,,,,,,,,,1214.1461,1215.9472,1215.9472,1217.5123,return,0.2593,,55.72916667,,,,,,FBP-PT-91.png,0.4,1.2,58,1,,,,,,,,,,,,,,,,,,0,51,51,57,1,,,,,,,,,,,,,,,,,,,,,,,
,,,,,WIN24_011,20,Female,2024-01-29_13h33.17.898,jersey_experiment_5,2023.2.2,Win32,84.74576271,,,,,,,,,,,,,,,,1217.5124,1218.8061,1218.8061,1220.7669,return,0.2356,,41.53645833,,,,,,FBP-YG-18.png,0.37,1.2,37,0.5,,,,,,,,,,,,,,,,,,0,52,52,36,1,,,,,,,,,,,,,,,,,,,,,,,
,,,,,WIN24_011,20,Female,2024-01-29_13h33.17.898,jersey_experiment_5,2023.2.2,Win32,84.74576271,,,,,,,,,,,,,,,,1220.7672,1222.0611,1222.0611,1223.8727,return,0.6257,,78.38541667,,,,,,FBP-YG-19.png,0.45,1.2,45,0.5,,,,,,,,,,,,,,,,,,0,53,53,44,1,,,,,,,,,,,,,,,,,,,,,,,
,,,,,WIN24_011,20,Female,2024-01-29_13h33.17.898,jersey_experiment_5,2023.2.2,Win32,84.74576271,,,,,,,,,,,,,,,,1223.873,1225.673,1225.673,1229.1105,return,1.8689,,25.13020833,,,,,,FBP-PT-91.png,0.35,1.2,56,1,,,,,,,,,,,,,,,,,,0,54,54,55,1,,,,,,,,,,,,,,,,,,,,,,,
,,,,,WIN24_011,20,Female,2024-01-29_13h33.17.898,jersey_experiment_5,2023.2.2,Win32,84.74576271,,,,,,,,,,,,,,,,1229.1106,1230.4026,1230.4026,1232.1438,return,0.7515,,71.484375,,,,,,FBP-RB-71.png,0.43,1.2,19,0.5,,,,,,,,,,,,,,,,,,0,55,55,18,1,,,,,,,,,,,,,,,,,,,,,,,
,,,,,WIN24_011,20,Female,2024-01-29_13h33.17.898,jersey_experiment_5,2023.2.2,Win32,84.74576271,,,,,,,,,,,,,,,,1232.144,1233.9382,1233.9382,1234.9909,return,0.2235,,31.25,,,,,,FBP-PT-81.png,0.37,1.2,52,1,,,,,,,,,,,,,,,,,,0,56,56,51,1,,,,,,,,,,,,,,,,,,,,,,,
,,,,,WIN24_011,20,Female,2024-01-29_13h33.17.898,jersey_experiment_5,2023.2.2,Win32,84.74576271,,,,,,,,,,,,,,,,1234.9911,1236.291,1236.291,1237.7674,return,0.3361,,46.35416667,,,,,,FBP-YG-19.png,0.37,1.2,42,0.5,,,,,,,,,,,,,,,,,,0,57,57,41,1,,,,,,,,,,,,,,,,,,,,,,,
,,,,,WIN24_011,20,Female,2024-01-29_13h33.17.898,jersey_experiment_5,2023.2.2,Win32,84.74576271,,,,,,,,,,,,,,,,1237.7676,1239.5677,1239.5677,1240.8734,return,0.228,,18.359375,,,,,,FBP-PT-71.png,0.35,1.2,46,1,,,,,,,,,,,,,,,,,,0,58,58,45,1,,,,,,,,,,,,,,,,,,,,,,,
,,,,,WIN24_011,20,Female,2024-01-29_13h33.17.898,jersey_experiment_5,2023.2.2,Win32,84.74576271,,,,,,,,,,,,,,,,1240.8736,1242.6677,1242.6677,1244.8681,return,0.369,,48.046875,,,,,,FBP-OG-17.png,0.37,1.2,2,1,,,,,,,,,,,,,,,,,,0,59,59,1,1,,,,,,,,,,,,,,,,,,,,,,,
,,,,,WIN24_011,20,Female,2024-01-29_13h33.17.898,jersey_experiment_5,2023.2.2,Win32,84.74576271,,,,,,,,,,,,,,,,,,,,,,,,,,,,,,,,,,,,,,,,,,,,,,,,,,,,,,,,1244.8683,1254.8389,return,9.9587,,,,,,,,,,,,,,,,,,,
,,,,,WIN24_011,20,Female,2024-01-29_13h33.17.898,jersey_experiment_5,2023.2.2,Win32,84.74576271,,,,,,,,,,,,,,,,,,,,,,,,,,,,,,,,,,,,,,,,,,,,,,,,,,,,,,,,,,,,,1254.8389,1266.1451,1,9.482,return,1.8,,,,,,,,,,,,
,,,,,WIN24_011,20,Female,2024-01-29_13h33.17.898,jersey_experiment_5,2023.2.2,Win32,84.74576271,,,,,,,,,,,,,,,,,,,,,,,,,,,,,,,,,,,,,,,,,,,,,,,,,,,,,,,,,,,,,,,,,,,,1266.1452,1345.5098,"The study might be about memory and how we perceive size of things from our memory. I did not recognize any patterns, it seemed random to me.",right,62.7099,,,,,,
,,,,,WIN24_011,20,Female,2024-01-29_13h33.17.898,jersey_experiment_5,2023.2.2,Win32,84.74576271,,,,,,,,,,,,,,,,,,,,,,,,,,,,,,,,,,,,,,,,,,,,,,,,,,,,,,,,,,,,,,,,,,,,,,,,,,1345.5099,1354.5763,return,9.0593,