requirements.started,requirements.stopped,key_resp_3.keys,key_resp_3.rt,key_resp_3.duration,Subject ID,Age,Gender,date,expName,psychopyVersion,OS,frameRate,instructions1.started,instructions1.stopped,key_resp.keys,key_resp.rt,key_resp.duration,example.started,example.stopped,enter_2.keys,enter_2.rt,enter_2.duration,instructions2.started,instructions2.stopped,enter_3.keys,enter_3.rt,enter_3.duration,image.started,image.stopped,slider_2.started,slider_2.stopped,next.keys,next.rt,next.duration,slider.response,trial_block_1.thisRepN,trial_block_1.thisTrialN,trial_block_1.thisN,trial_block_1.thisIndex,trial_block_1.ran,Path,Width,Height,Index,Duration,trial_block_2.thisRepN,trial_block_2.thisTrialN,trial_block_2.thisN,trial_block_2.thisIndex,trial_block_2.ran,rest_break.started,rest_break.stopped,end_break.started,end_break.stopped,key_resp_5.keys,key_resp_5.rt,key_resp_5.duration,trial_block_3.thisRepN,trial_block_3.thisTrialN,trial_block_3.thisN,trial_block_3.thisIndex,trial_block_3.ran,trial_block_4.thisRepN,trial_block_4.thisTrialN,trial_block_4.thisN,trial_block_4.thisIndex,trial_block_4.ran,questions_intro.started,questions_intro.stopped,enter_12.keys,enter_12.rt,enter_12.duration,question2.started,question2.stopped,question_doingbest.response,question_doingbest.rt,enter_15.keys,enter_15.rt,enter_15.duration,pattern.started,pattern.stopped,pattern_2.text,enter_17.keys,enter_17.rt,enter_17.duration,thankyou.started,thankyou.stopped,enter_14.keys,enter_14.rt,enter_14.duration
0.0001,7.7743,return,7.7603,,WIN24_054,23,Female,2024-02-12_13h06.52.792,jersey_experiment_5,2023.2.2,Win32,84.74576271,,,,,,,,,,,,,,,,,,,,,,,,,,,,,,,,,,,,,,,,,,,,,,,,,,,,,,,,,,,,,,,,,,,,,,,,,,,,,,
,,,,,WIN24_054,23,Female,2024-02-12_13h06.52.792,jersey_experiment_5,2023.2.2,Win32,84.74576271,7.7744,9.7975,return,2.0166,,,,,,,,,,,,,,,,,,,,,,,,,,,,,,,,,,,,,,,,,,,,,,,,,,,,,,,,,,,,,,,,,,,,,,,,,,
,,,,,WIN24_054,23,Female,2024-02-12_13h06.52.792,jersey_experiment_5,2023.2.2,Win32,84.74576271,,,,,,9.7977,13.598,return,3.773,,,,,,,,,,,,,,,,,,,,,,,,,,,,,,,,,,,,,,,,,,,,,,,,,,,,,,,,,,,,,,,,,,,,,
,,,,,WIN24_054,23,Female,2024-02-12_13h06.52.792,jersey_experiment_5,2023.2.2,Win32,84.74576271,,,,,,,,,,,13.598,15.2566,return,1.6495,,,,,,,,,,,,,,,,,,,,,,,,,,,,,,,,,,,,,,,,,,,,,,,,,,,,,,,,,,,,,,,,
,,,,,WIN24_054,23,Female,2024-02-12_13h06.52.792,jersey_experiment_5,2023.2.2,Win32,84.74576271,,,,,,,,,,,,,,,,15.2639,17.0569,17.057,34.0103,return,5.0844,,75.13020833,0,0,0,39,1,FBP-YG-81.png,0.45,1.2,40,1,,,,,,,,,,,,,,,,,,,,,,,,,,,,,,,,,,,,,,,,,,,,,
,,,,,WIN24_054,23,Female,2024-02-12_13h06.52.792,jersey_experiment_5,2023.2.2,Win32,84.74576271,,,,,,,,,,,,,,,,34.0106,35.3045,35.3045,38.3634,return,0.9049,,25.65104167,0,1,1,6,1,FBP-OG-81.png,0.37,1.2,7,0.5,,,,,,,,,,,,,,,,,,,,,,,,,,,,,,,,,,,,,,,,,,,,,
,,,,,WIN24_054,23,Female,2024-02-12_13h06.52.792,jersey_experiment_5,2023.2.2,Win32,84.74576271,,,,,,,,,,,,,,,,38.3635,39.6576,39.6577,42.2458,return,2.3692,,49.08854167,0,2,2,14,1,FBP-OG-91.png,0.45,1.2,15,0.5,,,,,,,,,,,,,,,,,,,,,,,,,,,,,,,,,,,,,,,,,,,,,
,,,,,WIN24_054,23,Female,2024-02-12_13h06.52.792,jersey_experiment_5,2023.2.2,Win32,84.74576271,,,,,,,,,,,,,,,,42.246,44.0458,44.0458,47.1753,return,1.5089,,74.86979167,0,3,3,44,1,FBP-YG-91.png,0.45,1.2,45,1,,,,,,,,,,,,,,,,,,,,,,,,,,,,,,,,,,,,,,,,,,,,,
,,,,,WIN24_054,23,Female,2024-02-12_13h06.52.792,jersey_experiment_5,2023.2.2,Win32,84.74576271,,,,,,,,,,,,,,,,47.1755,48.4694,48.4694,59.9288,return,0.8726,,99.86979167,0,4,4,47,1,FBP-PT-17.png,0.4,1.2,48,0.5,,,,,,,,,,,,,,,,,,,,,,,,,,,,,,,,,,,,,,,,,,,,,
,,,,,WIN24_054,23,Female,2024-02-12_13h06.52.792,jersey_experiment_5,2023.2.2,Win32,84.74576271,,,,,,,,,,,,,,,,59.9291,61.7288,61.7288,81.7648,return,3.0878,,26.04166667,0,5,5,23,1,FBP-RB-18.png,0.43,1.2,24,1,,,,,,,,,,,,,,,,,,,,,,,,,,,,,,,,,,,,,,,,,,,,,
,,,,,WIN24_054,23,Female,2024-02-12_13h06.52.792,jersey_experiment_5,2023.2.2,Win32,84.74576271,,,,,,,,,,,,,,,,81.765,83.5648,83.5648,91.271,return,6.3231,,0,0,6,6,29,1,FBP-RB-19.png,0.45,1.2,30,1,,,,,,,,,,,,,,,,,,,,,,,,,,,,,,,,,,,,,,,,,,,,,
,,,,,WIN24_054,23,Female,2024-02-12_13h06.52.792,jersey_experiment_5,2023.2.2,Win32,84.74576271,,,,,,,,,,,,,,,,91.2712,93.0712,93.0712,97.3418,return,0.8141,,75.26041667,0,7,7,28,1,FBP-RB-19.png,0.43,1.2,29,1,,,,,,,,,,,,,,,,,,,,,,,,,,,,,,,,,,,,,,,,,,,,,
,,,,,WIN24_054,23,Female,2024-02-12_13h06.52.792,jersey_experiment_5,2023.2.2,Win32,84.74576271,,,,,,,,,,,,,,,,97.3421,99.1418,99.1418,101.4361,return,0.6819,,50.78125,0,8,8,31,1,FBP-YG-71.png,0.37,1.2,32,1,,,,,,,,,,,,,,,,,,,,,,,,,,,,,,,,,,,,,,,,,,,,,
,,,,,WIN24_054,23,Female,2024-02-12_13h06.52.792,jersey_experiment_5,2023.2.2,Win32,84.74576271,,,,,,,,,,,,,,,,101.4363,103.236,103.2361,105.0479,return,0.475,,50.26041667,0,9,9,22,1,FBP-RB-18.png,0.4,1.2,23,1,,,,,,,,,,,,,,,,,,,,,,,,,,,,,,,,,,,,,,,,,,,,,
,,,,,WIN24_054,23,Female,2024-02-12_13h06.52.792,jersey_experiment_5,2023.2.2,Win32,84.74576271,,,,,,,,,,,,,,,,105.0481,106.3421,106.3421,108.7422,return,0.571,,74.34895833,0,10,10,3,1,FBP-OG-71.png,0.43,1.2,4,0.5,,,,,,,,,,,,,,,,,,,,,,,,,,,,,,,,,,,,,,,,,,,,,
,,,,,WIN24_054,23,Female,2024-02-12_13h06.52.792,jersey_experiment_5,2023.2.2,Win32,84.74576271,,,,,,,,,,,,,,,,108.7423,110.5423,110.5423,113.2834,return,0.9837,,99.47916667,0,11,11,15,1,FBP-RB-17.png,0.35,1.2,16,1,,,,,,,,,,,,,,,,,,,,,,,,,,,,,,,,,,,,,,,,,,,,,
,,,,,WIN24_054,23,Female,2024-02-12_13h06.52.792,jersey_experiment_5,2023.2.2,Win32,84.74576271,,,,,,,,,,,,,,,,113.2837,115.0837,115.0837,119.2601,return,2.9512,,24.73958333,0,12,12,16,1,FBP-RB-17.png,0.37,1.2,17,1,,,,,,,,,,,,,,,,,,,,,,,,,,,,,,,,,,,,,,,,,,,,,
,,,,,WIN24_054,23,Female,2024-02-12_13h06.52.792,jersey_experiment_5,2023.2.2,Win32,84.74576271,,,,,,,,,,,,,,,,119.2605,120.5543,120.5544,159.991,return,0.4996,,49.86979167,0,13,13,56,1,FBP-PT-19.png,0.37,1.2,57,0.5,,,,,,,,,,,,,,,,,,,,,,,,,,,,,,,,,,,,,,,,,,,,,
,,,,,WIN24_054,23,Female,2024-02-12_13h06.52.792,jersey_experiment_5,2023.2.2,Win32,84.74576271,,,,,,,,,,,,,,,,159.9914,161.7912,161.7912,164.0265,return,1.3783,,49.609375,0,14,14,25,1,FBP-RB-19.png,0.35,1.2,26,1,,,,,,,,,,,,,,,,,,,,,,,,,,,,,,,,,,,,,,,,,,,,,
,,,,,WIN24_054,23,Female,2024-02-12_13h06.52.792,jersey_experiment_5,2023.2.2,Win32,84.74576271,,,,,,,,,,,,,,,,164.0268,165.8265,165.8265,169.6149,return,2.6916,,99.609375,0,15,15,24,1,FBP-RB-18.png,0.45,1.2,25,1,,,,,,,,,,,,,,,,,,,,,,,,,,,,,,,,,,,,,,,,,,,,,
,,,,,WIN24_054,23,Female,2024-02-12_13h06.52.792,jersey_experiment_5,2023.2.2,Win32,84.74576271,,,,,,,,,,,,,,,,169.6151,171.415,171.4151,173.6268,return,0.5322,,75.65104167,0,16,16,18,1,FBP-RB-17.png,0.43,1.2,19,1,,,,,,,,,,,,,,,,,,,,,,,,,,,,,,,,,,,,,,,,,,,,,
,,,,,WIN24_054,23,Female,2024-02-12_13h06.52.792,jersey_experiment_5,2023.2.2,Win32,84.74576271,,,,,,,,,,,,,,,,173.6271,174.921,174.921,177.1447,return,0.5552,,24.21875,0,17,17,11,1,FBP-OG-91.png,0.37,1.2,12,0.5,,,,,,,,,,,,,,,,,,,,,,,,,,,,,,,,,,,,,,,,,,,,,
,,,,,WIN24_054,23,Female,2024-02-12_13h06.52.792,jersey_experiment_5,2023.2.2,Win32,84.74576271,,,,,,,,,,,,,,,,177.1448,178.9449,178.945,180.9565,return,0.4946,,76.04166667,0,18,18,27,1,FBP-RB-19.png,0.4,1.2,28,1,,,,,,,,,,,,,,,,,,,,,,,,,,,,,,,,,,,,,,,,,,,,,
,,,,,WIN24_054,23,Female,2024-02-12_13h06.52.792,jersey_experiment_5,2023.2.2,Win32,84.74576271,,,,,,,,,,,,,,,,180.9567,182.2506,182.2506,184.733,return,0.541,,76.171875,0,19,19,8,1,FBP-OG-81.png,0.43,1.2,9,0.5,,,,,,,,,,,,,,,,,,,,,,,,,,,,,,,,,,,,,,,,,,,,,
,,,,,WIN24_054,23,Female,2024-02-12_13h06.52.792,jersey_experiment_5,2023.2.2,Win32,84.74576271,,,,,,,,,,,,,,,,184.7333,186.5331,186.5332,189.4038,return,0.5035,,85.80729167,0,20,20,43,1,FBP-YG-91.png,0.43,1.2,44,1,,,,,,,,,,,,,,,,,,,,,,,,,,,,,,,,,,,,,,,,,,,,,
,,,,,WIN24_054,23,Female,2024-02-12_13h06.52.792,jersey_experiment_5,2023.2.2,Win32,84.74576271,,,,,,,,,,,,,,,,189.4041,191.2041,191.2041,194.3451,return,0.4826,,22.00520833,0,21,21,21,1,FBP-RB-18.png,0.37,1.2,22,1,,,,,,,,,,,,,,,,,,,,,,,,,,,,,,,,,,,,,,,,,,,,,
,,,,,WIN24_054,23,Female,2024-02-12_13h06.52.792,jersey_experiment_5,2023.2.2,Win32,84.74576271,,,,,,,,,,,,,,,,194.3453,195.6392,195.6392,197.0276,return,0.4792,,25,0,22,22,10,1,FBP-OG-91.png,0.35,1.2,11,0.5,,,,,,,,,,,,,,,,,,,,,,,,,,,,,,,,,,,,,,,,,,,,,
,,,,,WIN24_054,23,Female,2024-02-12_13h06.52.792,jersey_experiment_5,2023.2.2,Win32,84.74576271,,,,,,,,,,,,,,,,197.0277,198.322,198.322,199.7335,return,1.2776,,27.34375,0,23,23,45,1,FBP-PT-17.png,0.35,1.2,46,0.5,,,,,,,,,,,,,,,,,,,,,,,,,,,,,,,,,,,,,,,,,,,,,
,,,,,WIN24_054,23,Female,2024-02-12_13h06.52.792,jersey_experiment_5,2023.2.2,Win32,84.74576271,,,,,,,,,,,,,,,,199.7338,201.0278,201.0278,204.075,return,0.471,,70.18229167,0,24,24,7,1,FBP-OG-81.png,0.4,1.2,8,0.5,,,,,,,,,,,,,,,,,,,,,,,,,,,,,,,,,,,,,,,,,,,,,
,,,,,WIN24_054,23,Female,2024-02-12_13h06.52.792,jersey_experiment_5,2023.2.2,Win32,84.74576271,,,,,,,,,,,,,,,,204.0752,205.3692,205.3692,207.7338,return,1.0886,,90.88541667,0,25,25,57,1,FBP-PT-19.png,0.4,1.2,58,0.5,,,,,,,,,,,,,,,,,,,,,,,,,,,,,,,,,,,,,,,,,,,,,
,,,,,WIN24_054,23,Female,2024-02-12_13h06.52.792,jersey_experiment_5,2023.2.2,Win32,84.74576271,,,,,,,,,,,,,,,,207.734,209.0281,209.0281,211.5105,return,0.4741,,22.78645833,0,26,26,5,1,FBP-OG-81.png,0.35,1.2,6,0.5,,,,,,,,,,,,,,,,,,,,,,,,,,,,,,,,,,,,,,,,,,,,,
,,,,,WIN24_054,23,Female,2024-02-12_13h06.52.792,jersey_experiment_5,2023.2.2,Win32,84.74576271,,,,,,,,,,,,,,,,211.5107,213.3106,213.3106,215.0047,return,0.4944,,16.14583333,0,27,27,35,1,FBP-YG-81.png,0.35,1.2,36,1,,,,,,,,,,,,,,,,,,,,,,,,,,,,,,,,,,,,,,,,,,,,,
,,,,,WIN24_054,23,Female,2024-02-12_13h06.52.792,jersey_experiment_5,2023.2.2,Win32,84.74576271,,,,,,,,,,,,,,,,215.0049,216.2989,216.2989,217.6755,return,0.4386,,25,0,28,28,49,1,FBP-PT-17.png,0.45,1.2,50,0.5,,,,,,,,,,,,,,,,,,,,,,,,,,,,,,,,,,,,,,,,,,,,,
,,,,,WIN24_054,23,Female,2024-02-12_13h06.52.792,jersey_experiment_5,2023.2.2,Win32,84.74576271,,,,,,,,,,,,,,,,217.6757,219.4756,219.4756,221.2756,return,0.4607,,22.13541667,0,29,29,20,1,FBP-RB-18.png,0.35,1.2,21,1,,,,,,,,,,,,,,,,,,,,,,,,,,,,,,,,,,,,,,,,,,,,,
,,,,,WIN24_054,23,Female,2024-02-12_13h06.52.792,jersey_experiment_5,2023.2.2,Win32,84.74576271,,,,,,,,,,,,,,,,221.2758,222.5697,222.5697,224.8403,return,0.4748,,100,0,30,30,54,1,FBP-PT-18.png,0.45,1.2,55,0.5,,,,,,,,,,,,,,,,,,,,,,,,,,,,,,,,,,,,,,,,,,,,,
,,,,,WIN24_054,23,Female,2024-02-12_13h06.52.792,jersey_experiment_5,2023.2.2,Win32,84.74576271,,,,,,,,,,,,,,,,224.8406,226.1347,226.1348,228.3464,return,0.6473,,99.73958333,0,31,31,59,1,FBP-PT-19.png,0.45,1.2,60,0.5,,,,,,,,,,,,,,,,,,,,,,,,,,,,,,,,,,,,,,,,,,,,,
,,,,,WIN24_054,23,Female,2024-02-12_13h06.52.792,jersey_experiment_5,2023.2.2,Win32,84.74576271,,,,,,,,,,,,,,,,228.3465,229.6408,229.6408,231.4523,return,0.7632,,85.9375,0,32,32,46,1,FBP-PT-17.png,0.37,1.2,47,0.5,,,,,,,,,,,,,,,,,,,,,,,,,,,,,,,,,,,,,,,,,,,,,
,,,,,WIN24_054,23,Female,2024-02-12_13h06.52.792,jersey_experiment_5,2023.2.2,Win32,84.74576271,,,,,,,,,,,,,,,,231.4524,232.7466,232.7467,234.5584,return,0.4473,,94.921875,0,33,33,50,1,FBP-PT-18.png,0.35,1.2,51,0.5,,,,,,,,,,,,,,,,,,,,,,,,,,,,,,,,,,,,,,,,,,,,,
,,,,,WIN24_054,23,Female,2024-02-12_13h06.52.792,jersey_experiment_5,2023.2.2,Win32,84.74576271,,,,,,,,,,,,,,,,234.5587,236.3587,236.3587,238.0997,return,0.477,,98.56770833,0,34,34,19,1,FBP-RB-17.png,0.45,1.2,20,1,,,,,,,,,,,,,,,,,,,,,,,,,,,,,,,,,,,,,,,,,,,,,
,,,,,WIN24_054,23,Female,2024-02-12_13h06.52.792,jersey_experiment_5,2023.2.2,Win32,84.74576271,,,,,,,,,,,,,,,,238.0999,239.3938,239.3938,241.0175,return,0.4708,,100,0,35,35,9,1,FBP-OG-81.png,0.45,1.2,10,0.5,,,,,,,,,,,,,,,,,,,,,,,,,,,,,,,,,,,,,,,,,,,,,
,,,,,WIN24_054,23,Female,2024-02-12_13h06.52.792,jersey_experiment_5,2023.2.2,Win32,84.74576271,,,,,,,,,,,,,,,,241.0178,242.8175,242.8175,244.2646,return,0.439,,99.73958333,0,36,36,37,1,FBP-YG-81.png,0.4,1.2,38,1,,,,,,,,,,,,,,,,,,,,,,,,,,,,,,,,,,,,,,,,,,,,,
,,,,,WIN24_054,23,Female,2024-02-12_13h06.52.792,jersey_experiment_5,2023.2.2,Win32,84.74576271,,,,,,,,,,,,,,,,244.2649,246.0647,246.0647,247.6882,return,0.4982,,100,0,37,37,38,1,FBP-YG-81.png,0.43,1.2,39,1,,,,,,,,,,,,,,,,,,,,,,,,,,,,,,,,,,,,,,,,,,,,,
,,,,,WIN24_054,23,Female,2024-02-12_13h06.52.792,jersey_experiment_5,2023.2.2,Win32,84.74576271,,,,,,,,,,,,,,,,247.6883,248.9822,248.9823,250.6766,return,1.0516,,95.44270833,0,38,38,1,1,FBP-OG-71.png,0.37,1.2,2,0.5,,,,,,,,,,,,,,,,,,,,,,,,,,,,,,,,,,,,,,,,,,,,,
,,,,,WIN24_054,23,Female,2024-02-12_13h06.52.792,jersey_experiment_5,2023.2.2,Win32,84.74576271,,,,,,,,,,,,,,,,250.6769,251.9708,251.9709,254.0767,return,1.1299,,96.875,0,39,39,48,1,FBP-PT-17.png,0.43,1.2,49,0.5,,,,,,,,,,,,,,,,,,,,,,,,,,,,,,,,,,,,,,,,,,,,,
,,,,,WIN24_054,23,Female,2024-02-12_13h06.52.792,jersey_experiment_5,2023.2.2,Win32,84.74576271,,,,,,,,,,,,,,,,254.077,255.8769,255.8769,257.2769,return,0.6605,,7.942708333,0,40,40,40,1,FBP-YG-91.png,0.35,1.2,41,1,,,,,,,,,,,,,,,,,,,,,,,,,,,,,,,,,,,,,,,,,,,,,
,,,,,WIN24_054,23,Female,2024-02-12_13h06.52.792,jersey_experiment_5,2023.2.2,Win32,84.74576271,,,,,,,,,,,,,,,,257.2772,259.0769,259.077,263.6771,return,3.9906,,41.015625,0,41,41,32,1,FBP-YG-71.png,0.4,1.2,33,1,,,,,,,,,,,,,,,,,,,,,,,,,,,,,,,,,,,,,,,,,,,,,
,,,,,WIN24_054,23,Female,2024-02-12_13h06.52.792,jersey_experiment_5,2023.2.2,Win32,84.74576271,,,,,,,,,,,,,,,,263.6774,265.4772,265.4772,267.0771,return,0.7461,,85.02604167,0,42,42,34,1,FBP-YG-71.png,0.45,1.2,35,1,,,,,,,,,,,,,,,,,,,,,,,,,,,,,,,,,,,,,,,,,,,,,
,,,,,WIN24_054,23,Female,2024-02-12_13h06.52.792,jersey_experiment_5,2023.2.2,Win32,84.74576271,,,,,,,,,,,,,,,,267.0773,268.8776,268.8776,270.7008,return,0.5987,,89.32291667,0,43,43,33,1,FBP-YG-71.png,0.43,1.2,34,1,,,,,,,,,,,,,,,,,,,,,,,,,,,,,,,,,,,,,,,,,,,,,
,,,,,WIN24_054,23,Female,2024-02-12_13h06.52.792,jersey_experiment_5,2023.2.2,Win32,84.74576271,,,,,,,,,,,,,,,,270.701,271.995,271.995,274.7481,return,2.1988,,73.046875,0,44,44,13,1,FBP-OG-91.png,0.43,1.2,14,0.5,,,,,,,,,,,,,,,,,,,,,,,,,,,,,,,,,,,,,,,,,,,,,
,,,,,WIN24_054,23,Female,2024-02-12_13h06.52.792,jersey_experiment_5,2023.2.2,Win32,84.74576271,,,,,,,,,,,,,,,,274.7483,276.5484,276.5484,278.4541,return,0.8975,,49.609375,0,45,45,36,1,FBP-YG-81.png,0.37,1.2,37,1,,,,,,,,,,,,,,,,,,,,,,,,,,,,,,,,,,,,,,,,,,,,,
,,,,,WIN24_054,23,Female,2024-02-12_13h06.52.792,jersey_experiment_5,2023.2.2,Win32,84.74576271,,,,,,,,,,,,,,,,278.4544,279.7483,279.7483,281.8307,return,1.3562,,31.38020833,0,46,46,0,1,FBP-OG-71.png,0.35,1.2,1,0.5,,,,,,,,,,,,,,,,,,,,,,,,,,,,,,,,,,,,,,,,,,,,,
,,,,,WIN24_054,23,Female,2024-02-12_13h06.52.792,jersey_experiment_5,2023.2.2,Win32,84.74576271,,,,,,,,,,,,,,,,281.831,283.6306,283.6307,285.9955,return,1.2243,,94.40104167,0,47,47,42,1,FBP-YG-91.png,0.4,1.2,43,1,,,,,,,,,,,,,,,,,,,,,,,,,,,,,,,,,,,,,,,,,,,,,
,,,,,WIN24_054,23,Female,2024-02-12_13h06.52.792,jersey_experiment_5,2023.2.2,Win32,84.74576271,,,,,,,,,,,,,,,,285.9958,287.2898,287.2898,288.9486,return,0.57,,61.58854167,0,48,48,55,1,FBP-PT-19.png,0.35,1.2,56,0.5,,,,,,,,,,,,,,,,,,,,,,,,,,,,,,,,,,,,,,,,,,,,,
,,,,,WIN24_054,23,Female,2024-02-12_13h06.52.792,jersey_experiment_5,2023.2.2,Win32,84.74576271,,,,,,,,,,,,,,,,288.9489,290.2429,290.243,291.7839,return,0.5785,,76.82291667,0,49,49,12,1,FBP-OG-91.png,0.4,1.2,13,0.5,,,,,,,,,,,,,,,,,,,,,,,,,,,,,,,,,,,,,,,,,,,,,
,,,,,WIN24_054,23,Female,2024-02-12_13h06.52.792,jersey_experiment_5,2023.2.2,Win32,84.74576271,,,,,,,,,,,,,,,,291.7842,293.0781,293.0782,295.3369,return,0.578,,78.125,0,50,50,4,1,FBP-OG-71.png,0.45,1.2,5,0.5,,,,,,,,,,,,,,,,,,,,,,,,,,,,,,,,,,,,,,,,,,,,,
,,,,,WIN24_054,23,Female,2024-02-12_13h06.52.792,jersey_experiment_5,2023.2.2,Win32,84.74576271,,,,,,,,,,,,,,,,295.3372,296.6312,296.6312,298.0194,return,0.5121,,93.359375,0,51,51,53,1,FBP-PT-18.png,0.43,1.2,54,0.5,,,,,,,,,,,,,,,,,,,,,,,,,,,,,,,,,,,,,,,,,,,,,
,,,,,WIN24_054,23,Female,2024-02-12_13h06.52.792,jersey_experiment_5,2023.2.2,Win32,84.74576271,,,,,,,,,,,,,,,,298.0196,299.3136,299.3136,300.5372,return,0.5533,,96.484375,0,52,52,2,1,FBP-OG-71.png,0.4,1.2,3,0.5,,,,,,,,,,,,,,,,,,,,,,,,,,,,,,,,,,,,,,,,,,,,,
,,,,,WIN24_054,23,Female,2024-02-12_13h06.52.792,jersey_experiment_5,2023.2.2,Win32,84.74576271,,,,,,,,,,,,,,,,300.5374,301.8312,301.8312,303.4197,return,0.909,,100,0,53,53,58,1,FBP-PT-19.png,0.43,1.2,59,0.5,,,,,,,,,,,,,,,,,,,,,,,,,,,,,,,,,,,,,,,,,,,,,
,,,,,WIN24_054,23,Female,2024-02-12_13h06.52.792,jersey_experiment_5,2023.2.2,Win32,84.74576271,,,,,,,,,,,,,,,,303.42,305.2198,305.2198,306.8904,return,0.6136,,74.21875,0,54,54,26,1,FBP-RB-19.png,0.37,1.2,27,1,,,,,,,,,,,,,,,,,,,,,,,,,,,,,,,,,,,,,,,,,,,,,
,,,,,WIN24_054,23,Female,2024-02-12_13h06.52.792,jersey_experiment_5,2023.2.2,Win32,84.74576271,,,,,,,,,,,,,,,,306.8906,308.6904,308.6905,312.1729,return,2.0713,,94.79166667,0,55,55,17,1,FBP-RB-17.png,0.4,1.2,18,1,,,,,,,,,,,,,,,,,,,,,,,,,,,,,,,,,,,,,,,,,,,,,
,,,,,WIN24_054,23,Female,2024-02-12_13h06.52.792,jersey_experiment_5,2023.2.2,Win32,84.74576271,,,,,,,,,,,,,,,,312.1731,313.4671,313.4671,314.6202,return,0.5553,,96.484375,0,56,56,52,1,FBP-PT-18.png,0.4,1.2,53,0.5,,,,,,,,,,,,,,,,,,,,,,,,,,,,,,,,,,,,,,,,,,,,,
,,,,,WIN24_054,23,Female,2024-02-12_13h06.52.792,jersey_experiment_5,2023.2.2,Win32,84.74576271,,,,,,,,,,,,,,,,314.6203,316.4203,316.4203,318.1261,return,1.1197,,17.96875,0,57,57,30,1,FBP-YG-71.png,0.35,1.2,31,1,,,,,,,,,,,,,,,,,,,,,,,,,,,,,,,,,,,,,,,,,,,,,
,,,,,WIN24_054,23,Female,2024-02-12_13h06.52.792,jersey_experiment_5,2023.2.2,Win32,84.74576271,,,,,,,,,,,,,,,,318.1263,319.9261,319.9261,322.6439,return,1.4878,,33.46354167,0,58,58,41,1,FBP-YG-91.png,0.37,1.2,42,1,,,,,,,,,,,,,,,,,,,,,,,,,,,,,,,,,,,,,,,,,,,,,
,,,,,WIN24_054,23,Female,2024-02-12_13h06.52.792,jersey_experiment_5,2023.2.2,Win32,84.74576271,,,,,,,,,,,,,,,,322.6441,323.9379,323.938,327.6088,return,0.5565,,27.34375,0,59,59,51,1,FBP-PT-18.png,0.37,1.2,52,0.5,,,,,,,,,,,,,,,,,,,,,,,,,,,,,,,,,,,,,,,,,,,,,
,,,,,WIN24_054,23,Female,2024-02-12_13h06.52.792,jersey_experiment_5,2023.2.2,Win32,84.74576271,,,,,,,,,,,,,,,,327.611,328.9028,328.9028,330.7265,return,0.6272,,86.06770833,,,,,,FBP-PT-91.png,0.37,1.2,57,0.5,0,0,0,56,1,,,,,,,,,,,,,,,,,,,,,,,,,,,,,,,,,,,,,,,,
,,,,,WIN24_054,23,Female,2024-02-12_13h06.52.792,jersey_experiment_5,2023.2.2,Win32,84.74576271,,,,,,,,,,,,,,,,330.727,332.0208,332.0208,334.2679,return,1.0737,,99.609375,,,,,,FBP-OG-18.png,0.4,1.2,8,0.5,0,1,1,7,1,,,,,,,,,,,,,,,,,,,,,,,,,,,,,,,,,,,,,,,,
,,,,,WIN24_054,23,Female,2024-02-12_13h06.52.792,jersey_experiment_5,2023.2.2,Win32,84.74576271,,,,,,,,,,,,,,,,334.2683,335.5622,335.5623,337.2092,return,0.6268,,99.34895833,,,,,,FBP-OG-17.png,0.45,1.2,5,0.5,0,2,2,4,1,,,,,,,,,,,,,,,,,,,,,,,,,,,,,,,,,,,,,,,,
,,,,,WIN24_054,23,Female,2024-02-12_13h06.52.792,jersey_experiment_5,2023.2.2,Win32,84.74576271,,,,,,,,,,,,,,,,337.2093,339.0091,339.0091,340.068,return,0.6058,,100,,,,,,FBP-RB-81.png,0.45,1.2,25,1,0,3,3,24,1,,,,,,,,,,,,,,,,,,,,,,,,,,,,,,,,,,,,,,,,
,,,,,WIN24_054,23,Female,2024-02-12_13h06.52.792,jersey_experiment_5,2023.2.2,Win32,84.74576271,,,,,,,,,,,,,,,,340.0683,341.8682,341.8682,345.6447,return,3.0359,,100,,,,,,FBP-YG-17.png,0.45,1.2,35,1,0,4,4,34,1,,,,,,,,,,,,,,,,,,,,,,,,,,,,,,,,,,,,,,,,
,,,,,WIN24_054,23,Female,2024-02-12_13h06.52.792,jersey_experiment_5,2023.2.2,Win32,84.74576271,,,,,,,,,,,,,,,,345.6449,346.9386,346.9387,348.4566,return,0.486,,100,,,,,,FBP-PT-91.png,0.45,1.2,60,0.5,0,5,5,59,1,,,,,,,,,,,,,,,,,,,,,,,,,,,,,,,,,,,,,,,,
,,,,,WIN24_054,23,Female,2024-02-12_13h06.52.792,jersey_experiment_5,2023.2.2,Win32,84.74576271,,,,,,,,,,,,,,,,348.4568,350.2566,350.2567,351.7861,return,0.5998,,98.828125,,,,,,FBP-RB-71.png,0.43,1.2,19,1,0,6,6,18,1,,,,,,,,,,,,,,,,,,,,,,,,,,,,,,,,,,,,,,,,
,,,,,WIN24_054,23,Female,2024-02-12_13h06.52.792,jersey_experiment_5,2023.2.2,Win32,84.74576271,,,,,,,,,,,,,,,,351.7864,353.5865,353.5865,355.7039,return,1.2489,,18.88020833,,,,,,FBP-RB-71.png,0.35,1.2,16,1,0,7,7,15,1,,,,,,,,,,,,,,,,,,,,,,,,,,,,,,,,,,,,,,,,
,,,,,WIN24_054,23,Female,2024-02-12_13h06.52.792,jersey_experiment_5,2023.2.2,Win32,84.74576271,,,,,,,,,,,,,,,,355.7042,357.5039,357.504,358.5981,return,0.5452,,4.036458333,,,,,,FBP-RB-81.png,0.35,1.2,21,1,0,8,8,20,1,,,,,,,,,,,,,,,,,,,,,,,,,,,,,,,,,,,,,,,,
,,,,,WIN24_054,23,Female,2024-02-12_13h06.52.792,jersey_experiment_5,2023.2.2,Win32,84.74576271,,,,,,,,,,,,,,,,358.5984,360.3982,360.3983,363.5746,return,1.9202,,93.88020833,,,,,,FBP-YG-18.png,0.45,1.2,40,1,0,9,9,39,1,,,,,,,,,,,,,,,,,,,,,,,,,,,,,,,,,,,,,,,,
,,,,,WIN24_054,23,Female,2024-02-12_13h06.52.792,jersey_experiment_5,2023.2.2,Win32,84.74576271,,,,,,,,,,,,,,,,363.5749,364.8689,364.8689,366.5396,return,0.683,,9.765625,,,,,,FBP-OG-18.png,0.35,1.2,6,0.5,0,10,10,5,1,,,,,,,,,,,,,,,,,,,,,,,,,,,,,,,,,,,,,,,,
,,,,,WIN24_054,23,Female,2024-02-12_13h06.52.792,jersey_experiment_5,2023.2.2,Win32,84.74576271,,,,,,,,,,,,,,,,366.5398,367.8337,367.8338,371.8222,return,2.188,,22.52604167,,,,,,FBP-OG-19.png,0.37,1.2,12,0.5,0,11,11,11,1,,,,,,,,,,,,,,,,,,,,,,,,,,,,,,,,,,,,,,,,
,,,,,WIN24_054,23,Female,2024-02-12_13h06.52.792,jersey_experiment_5,2023.2.2,Win32,84.74576271,,,,,,,,,,,,,,,,371.8226,373.1166,373.1166,377.3987,return,3.3209,,50.13020833,,,,,,FBP-OG-17.png,0.37,1.2,2,0.5,0,12,12,1,1,,,,,,,,,,,,,,,,,,,,,,,,,,,,,,,,,,,,,,,,
,,,,,WIN24_054,23,Female,2024-02-12_13h06.52.792,jersey_experiment_5,2023.2.2,Win32,84.74576271,,,,,,,,,,,,,,,,377.3989,378.6929,378.693,384.4459,return,0.7624,,49.73958333,,,,,,FBP-OG-19.png,0.43,1.2,14,0.5,0,13,13,13,1,,,,,,,,,,,,,,,,,,,,,,,,,,,,,,,,,,,,,,,,
,,,,,WIN24_054,23,Female,2024-02-12_13h06.52.792,jersey_experiment_5,2023.2.2,Win32,84.74576271,,,,,,,,,,,,,,,,384.4461,385.74,385.7401,387.4697,return,1.1068,,27.734375,,,,,,FBP-OG-18.png,0.37,1.2,7,0.5,0,14,14,6,1,,,,,,,,,,,,,,,,,,,,,,,,,,,,,,,,,,,,,,,,
,,,,,WIN24_054,23,Female,2024-02-12_13h06.52.792,jersey_experiment_5,2023.2.2,Win32,84.74576271,,,,,,,,,,,,,,,,387.4699,389.2698,389.2698,391.6936,return,0.6589,,29.42708333,,,,,,FBP-RB-91.png,0.37,1.2,27,1,0,15,15,26,1,,,,,,,,,,,,,,,,,,,,,,,,,,,,,,,,,,,,,,,,
,,,,,WIN24_054,23,Female,2024-02-12_13h06.52.792,jersey_experiment_5,2023.2.2,Win32,84.74576271,,,,,,,,,,,,,,,,391.6938,393.4934,393.4935,395.1405,return,0.9937,,29.16666667,,,,,,FBP-YG-19.png,0.4,1.2,43,1,0,16,16,42,1,,,,,,,,,,,,,,,,,,,,,,,,,,,,,,,,,,,,,,,,
,,,,,WIN24_054,23,Female,2024-02-12_13h06.52.792,jersey_experiment_5,2023.2.2,Win32,84.74576271,,,,,,,,,,,,,,,,395.1407,396.9407,396.9407,398.4465,return,0.659,,84.89583333,,,,,,FBP-RB-71.png,0.37,1.2,17,1,0,17,17,16,1,,,,,,,,,,,,,,,,,,,,,,,,,,,,,,,,,,,,,,,,
,,,,,WIN24_054,23,Female,2024-02-12_13h06.52.792,jersey_experiment_5,2023.2.2,Win32,84.74576271,,,,,,,,,,,,,,,,398.4469,399.7407,399.7407,402.1879,return,1.3751,,19.79166667,,,,,,FBP-OG-19.png,0.35,1.2,11,0.5,0,18,18,10,1,,,,,,,,,,,,,,,,,,,,,,,,,,,,,,,,,,,,,,,,
,,,,,WIN24_054,23,Female,2024-02-12_13h06.52.792,jersey_experiment_5,2023.2.2,Win32,84.74576271,,,,,,,,,,,,,,,,402.1881,403.482,403.4821,405.141,return,0.6169,,92.31770833,,,,,,FBP-PT-71.png,0.43,1.2,49,0.5,0,19,19,48,1,,,,,,,,,,,,,,,,,,,,,,,,,,,,,,,,,,,,,,,,
,,,,,WIN24_054,23,Female,2024-02-12_13h06.52.792,jersey_experiment_5,2023.2.2,Win32,84.74576271,,,,,,,,,,,,,,,,405.1412,406.4351,406.4351,408.1881,return,0.659,,99.34895833,,,,,,FBP-OG-18.png,0.45,1.2,10,0.5,0,20,20,9,1,,,,,,,,,,,,,,,,,,,,,,,,,,,,,,,,,,,,,,,,
,,,,,WIN24_054,23,Female,2024-02-12_13h06.52.792,jersey_experiment_5,2023.2.2,Win32,84.74576271,,,,,,,,,,,,,,,,408.1882,409.9882,409.9882,411.3648,return,0.6662,,99.34895833,,,,,,FBP-RB-81.png,0.4,1.2,23,1,0,21,21,22,1,,,,,,,,,,,,,,,,,,,,,,,,,,,,,,,,,,,,,,,,
,,,,,WIN24_054,23,Female,2024-02-12_13h06.52.792,jersey_experiment_5,2023.2.2,Win32,84.74576271,,,,,,,,,,,,,,,,411.3649,412.6589,412.6589,414.0588,return,0.801,,98.17708333,,,,,,FBP-OG-18.png,0.43,1.2,9,0.5,0,22,22,8,1,,,,,,,,,,,,,,,,,,,,,,,,,,,,,,,,,,,,,,,,
,,,,,WIN24_054,23,Female,2024-02-12_13h06.52.792,jersey_experiment_5,2023.2.2,Win32,84.74576271,,,,,,,,,,,,,,,,414.0591,415.3531,415.3531,417.4473,return,1.3209,,7.682291667,,,,,,FBP-OG-17.png,0.35,1.2,1,0.5,0,23,23,0,1,,,,,,,,,,,,,,,,,,,,,,,,,,,,,,,,,,,,,,,,
,,,,,WIN24_054,23,Female,2024-02-12_13h06.52.792,jersey_experiment_5,2023.2.2,Win32,84.74576271,,,,,,,,,,,,,,,,417.4475,419.2474,419.2474,420.918,return,0.759,,97.39583333,,,,,,FBP-RB-91.png,0.45,1.2,30,1,0,24,24,29,1,,,,,,,,,,,,,,,,,,,,,,,,,,,,,,,,,,,,,,,,
,,,,,WIN24_054,23,Female,2024-02-12_13h06.52.792,jersey_experiment_5,2023.2.2,Win32,84.74576271,,,,,,,,,,,,,,,,420.9182,422.2121,422.2121,423.8828,return,0.7397,,25.26041667,,,,,,FBP-PT-91.png,0.35,1.2,56,0.5,0,25,25,55,1,,,,,,,,,,,,,,,,,,,,,,,,,,,,,,,,,,,,,,,,
,,,,,WIN24_054,23,Female,2024-02-12_13h06.52.792,jersey_experiment_5,2023.2.2,Win32,84.74576271,,,,,,,,,,,,,,,,423.883,425.1768,425.1769,426.7417,return,0.6399,,97.00520833,,,,,,FBP-PT-91.png,0.43,1.2,59,0.5,0,26,26,58,1,,,,,,,,,,,,,,,,,,,,,,,,,,,,,,,,,,,,,,,,
,,,,,WIN24_054,23,Female,2024-02-12_13h06.52.792,jersey_experiment_5,2023.2.2,Win32,84.74576271,,,,,,,,,,,,,,,,426.7419,428.0359,428.0359,430.3653,return,1.6373,,100,,,,,,FBP-PT-81.png,0.45,1.2,55,0.5,0,27,27,54,1,,,,,,,,,,,,,,,,,,,,,,,,,,,,,,,,,,,,,,,,
,,,,,WIN24_054,23,Female,2024-02-12_13h06.52.792,jersey_experiment_5,2023.2.2,Win32,84.74576271,,,,,,,,,,,,,,,,430.3656,431.6595,431.6596,433.2361,return,0.5235,,100,,,,,,FBP-PT-81.png,0.43,1.2,54,0.5,0,28,28,53,1,,,,,,,,,,,,,,,,,,,,,,,,,,,,,,,,,,,,,,,,
,,,,,WIN24_054,23,Female,2024-02-12_13h06.52.792,jersey_experiment_5,2023.2.2,Win32,84.74576271,,,,,,,,,,,,,,,,433.2364,434.5301,434.5301,438.5892,return,2.9418,,50,,,,,,FBP-PT-71.png,0.4,1.2,48,0.5,0,29,29,47,1,,,,,,,,,,,,,,,,,,,,,,,,,,,,,,,,,,,,,,,,
,,,,,WIN24_054,23,Female,2024-02-12_13h06.52.792,jersey_experiment_5,2023.2.2,Win32,84.74576271,,,,,,,,,,,,,,,,438.5895,440.3895,440.3895,442.0599,return,0.743,,97.78645833,,,,,,FBP-YG-19.png,0.45,1.2,45,1,0,30,30,44,1,,,,,,,,,,,,,,,,,,,,,,,,,,,,,,,,,,,,,,,,
,,,,,WIN24_054,23,Female,2024-02-12_13h06.52.792,jersey_experiment_5,2023.2.2,Win32,84.74576271,,,,,,,,,,,,,,,,442.0602,443.8602,443.8603,445.0835,return,0.6357,,99.21875,,,,,,FBP-RB-91.png,0.43,1.2,29,1,0,31,31,28,1,,,,,,,,,,,,,,,,,,,,,,,,,,,,,,,,,,,,,,,,
,,,,,WIN24_054,23,Female,2024-02-12_13h06.52.792,jersey_experiment_5,2023.2.2,Win32,84.74576271,,,,,,,,,,,,,,,,445.0837,446.8839,446.8839,448.0131,return,0.6589,,10.02604167,,,,,,FBP-YG-18.png,0.35,1.2,36,1,0,32,32,35,1,,,,,,,,,,,,,,,,,,,,,,,,,,,,,,,,,,,,,,,,
,,,,,WIN24_054,23,Female,2024-02-12_13h06.52.792,jersey_experiment_5,2023.2.2,Win32,84.74576271,,,,,,,,,,,,,,,,448.0133,449.8131,449.8132,451.3073,return,0.8465,,94.79166667,,,,,,FBP-RB-81.png,0.43,1.2,24,1,0,33,33,23,1,,,,,,,,,,,,,,,,,,,,,,,,,,,,,,,,,,,,,,,,
,,,,,WIN24_054,23,Female,2024-02-12_13h06.52.792,jersey_experiment_5,2023.2.2,Win32,84.74576271,,,,,,,,,,,,,,,,451.3076,452.6015,452.6015,455.3546,return,0.7767,,95.3125,,,,,,FBP-PT-71.png,0.45,1.2,50,0.5,0,34,34,49,1,,,,,,,,,,,,,,,,,,,,,,,,,,,,,,,,,,,,,,,,
,,,,,WIN24_054,23,Female,2024-02-12_13h06.52.792,jersey_experiment_5,2023.2.2,Win32,84.74576271,,,,,,,,,,,,,,,,455.3548,456.6487,456.6487,460.1662,return,0.6882,,98.69791667,,,,,,FBP-PT-71.png,0.37,1.2,47,0.5,0,35,35,46,1,,,,,,,,,,,,,,,,,,,,,,,,,,,,,,,,,,,,,,,,
,,,,,WIN24_054,23,Female,2024-02-12_13h06.52.792,jersey_experiment_5,2023.2.2,Win32,84.74576271,,,,,,,,,,,,,,,,460.1665,461.4607,461.4607,464.5195,return,2.4375,,93.61979167,,,,,,FBP-OG-17.png,0.43,1.2,4,0.5,0,36,36,3,1,,,,,,,,,,,,,,,,,,,,,,,,,,,,,,,,,,,,,,,,
,,,,,WIN24_054,23,Female,2024-02-12_13h06.52.792,jersey_experiment_5,2023.2.2,Win32,84.74576271,,,,,,,,,,,,,,,,464.5198,465.8137,465.8137,468.2373,return,0.8711,,95.3125,,,,,,FBP-OG-17.png,0.4,1.2,3,0.5,0,37,37,2,1,,,,,,,,,,,,,,,,,,,,,,,,,,,,,,,,,,,,,,,,
,,,,,WIN24_054,23,Female,2024-02-12_13h06.52.792,jersey_experiment_5,2023.2.2,Win32,84.74576271,,,,,,,,,,,,,,,,468.2375,469.5314,469.5314,470.7433,return,0.5903,,8.854166667,,,,,,FBP-PT-71.png,0.35,1.2,46,0.5,0,38,38,45,1,,,,,,,,,,,,,,,,,,,,,,,,,,,,,,,,,,,,,,,,
,,,,,WIN24_054,23,Female,2024-02-12_13h06.52.792,jersey_experiment_5,2023.2.2,Win32,84.74576271,,,,,,,,,,,,,,,,470.7436,472.0375,472.0375,473.5904,return,1.4153,,17.578125,,,,,,FBP-PT-81.png,0.37,1.2,52,0.5,0,39,39,51,1,,,,,,,,,,,,,,,,,,,,,,,,,,,,,,,,,,,,,,,,
,,,,,WIN24_054,23,Female,2024-02-12_13h06.52.792,jersey_experiment_5,2023.2.2,Win32,84.74576271,,,,,,,,,,,,,,,,473.5907,475.3905,475.3905,477.9436,return,1.9222,,20.05208333,,,,,,FBP-RB-71.png,0.4,1.2,18,1,0,40,40,17,1,,,,,,,,,,,,,,,,,,,,,,,,,,,,,,,,,,,,,,,,
,,,,,WIN24_054,23,Female,2024-02-12_13h06.52.792,jersey_experiment_5,2023.2.2,Win32,84.74576271,,,,,,,,,,,,,,,,477.9438,479.238,479.2381,480.8849,return,0.6874,,18.88020833,,,,,,FBP-PT-81.png,0.35,1.2,51,0.5,0,41,41,50,1,,,,,,,,,,,,,,,,,,,,,,,,,,,,,,,,,,,,,,,,
,,,,,WIN24_054,23,Female,2024-02-12_13h06.52.792,jersey_experiment_5,2023.2.2,Win32,84.74576271,,,,,,,,,,,,,,,,480.8851,482.1791,482.1791,483.7085,return,0.6357,,87.5,,,,,,FBP-PT-91.png,0.4,1.2,58,0.5,0,42,42,57,1,,,,,,,,,,,,,,,,,,,,,,,,,,,,,,,,,,,,,,,,
,,,,,WIN24_054,23,Female,2024-02-12_13h06.52.792,jersey_experiment_5,2023.2.2,Win32,84.74576271,,,,,,,,,,,,,,,,483.7087,485.5087,485.5088,487.5321,return,0.6591,,98.4375,,,,,,FBP-RB-71.png,0.45,1.2,20,1,0,43,43,19,1,,,,,,,,,,,,,,,,,,,,,,,,,,,,,,,,,,,,,,,,
,,,,,WIN24_054,23,Female,2024-02-12_13h06.52.792,jersey_experiment_5,2023.2.2,Win32,84.74576271,,,,,,,,,,,,,,,,487.5323,489.3322,489.3322,491.0852,return,0.7764,,95.05208333,,,,,,FBP-YG-17.png,0.37,1.2,32,1,0,44,44,31,1,,,,,,,,,,,,,,,,,,,,,,,,,,,,,,,,,,,,,,,,
,,,,,WIN24_054,23,Female,2024-02-12_13h06.52.792,jersey_experiment_5,2023.2.2,Win32,84.74576271,,,,,,,,,,,,,,,,491.0853,492.8853,492.8853,494.0853,return,0.6157,,74.34895833,,,,,,FBP-YG-17.png,0.43,1.2,34,1,0,45,45,33,1,,,,,,,,,,,,,,,,,,,,,,,,,,,,,,,,,,,,,,,,
,,,,,WIN24_054,23,Female,2024-02-12_13h06.52.792,jersey_experiment_5,2023.2.2,Win32,84.74576271,,,,,,,,,,,,,,,,494.0855,495.8853,495.8853,496.9677,return,0.5689,,68.75,,,,,,FBP-RB-81.png,0.37,1.2,22,1,0,46,46,21,1,,,,,,,,,,,,,,,,,,,,,,,,,,,,,,,,,,,,,,,,
,,,,,WIN24_054,23,Female,2024-02-12_13h06.52.792,jersey_experiment_5,2023.2.2,Win32,84.74576271,,,,,,,,,,,,,,,,496.968,498.7678,498.7679,499.8384,return,0.5886,,14.32291667,,,,,,FBP-RB-91.png,0.35,1.2,26,1,0,47,47,25,1,,,,,,,,,,,,,,,,,,,,,,,,,,,,,,,,,,,,,,,,
,,,,,WIN24_054,23,Female,2024-02-12_13h06.52.792,jersey_experiment_5,2023.2.2,Win32,84.74576271,,,,,,,,,,,,,,,,499.8386,501.6385,501.6386,503.0621,return,0.6409,,91.14583333,,,,,,FBP-YG-19.png,0.43,1.2,44,1,0,48,48,43,1,,,,,,,,,,,,,,,,,,,,,,,,,,,,,,,,,,,,,,,,
,,,,,WIN24_054,23,Female,2024-02-12_13h06.52.792,jersey_experiment_5,2023.2.2,Win32,84.74576271,,,,,,,,,,,,,,,,503.0623,504.8623,504.8624,505.8622,return,0.5323,,92.1875,,,,,,FBP-YG-18.png,0.37,1.2,37,1,0,49,49,36,1,,,,,,,,,,,,,,,,,,,,,,,,,,,,,,,,,,,,,,,,
,,,,,WIN24_054,23,Female,2024-02-12_13h06.52.792,jersey_experiment_5,2023.2.2,Win32,84.74576271,,,,,,,,,,,,,,,,505.8625,507.1563,507.1563,508.6977,return,0.8611,,32.55208333,,,,,,FBP-OG-19.png,0.4,1.2,13,0.5,0,50,50,12,1,,,,,,,,,,,,,,,,,,,,,,,,,,,,,,,,,,,,,,,,
,,,,,WIN24_054,23,Female,2024-02-12_13h06.52.792,jersey_experiment_5,2023.2.2,Win32,84.74576271,,,,,,,,,,,,,,,,508.6978,510.4977,510.4978,511.6859,return,0.5923,,24.86979167,,,,,,FBP-YG-17.png,0.35,1.2,31,1,0,51,51,30,1,,,,,,,,,,,,,,,,,,,,,,,,,,,,,,,,,,,,,,,,
,,,,,WIN24_054,23,Female,2024-02-12_13h06.52.792,jersey_experiment_5,2023.2.2,Win32,84.74576271,,,,,,,,,,,,,,,,511.6862,512.9801,512.9801,514.3919,return,0.6041,,93.61979167,,,,,,FBP-PT-81.png,0.4,1.2,53,0.5,0,52,52,52,1,,,,,,,,,,,,,,,,,,,,,,,,,,,,,,,,,,,,,,,,
,,,,,WIN24_054,23,Female,2024-02-12_13h06.52.792,jersey_experiment_5,2023.2.2,Win32,84.74576271,,,,,,,,,,,,,,,,514.3921,516.1919,516.1919,517.2037,return,0.5827,,92.1875,,,,,,FBP-YG-18.png,0.43,1.2,39,1,0,53,53,38,1,,,,,,,,,,,,,,,,,,,,,,,,,,,,,,,,,,,,,,,,
,,,,,WIN24_054,23,Female,2024-02-12_13h06.52.792,jersey_experiment_5,2023.2.2,Win32,84.74576271,,,,,,,,,,,,,,,,517.2039,518.4978,518.4978,520.6039,return,0.6113,,99.08854167,,,,,,FBP-OG-19.png,0.45,1.2,15,0.5,0,54,54,14,1,,,,,,,,,,,,,,,,,,,,,,,,,,,,,,,,,,,,,,,,
,,,,,WIN24_054,23,Female,2024-02-12_13h06.52.792,jersey_experiment_5,2023.2.2,Win32,84.74576271,,,,,,,,,,,,,,,,520.6042,522.4039,522.4039,524.5687,return,0.5539,,49.21875,,,,,,FBP-RB-91.png,0.4,1.2,28,1,0,55,55,27,1,,,,,,,,,,,,,,,,,,,,,,,,,,,,,,,,,,,,,,,,
,,,,,WIN24_054,23,Female,2024-02-12_13h06.52.792,jersey_experiment_5,2023.2.2,Win32,84.74576271,,,,,,,,,,,,,,,,524.5689,526.3688,526.3688,529.2749,return,0.7543,,56.77083333,,,,,,FBP-YG-17.png,0.4,1.2,33,1,0,56,56,32,1,,,,,,,,,,,,,,,,,,,,,,,,,,,,,,,,,,,,,,,,
,,,,,WIN24_054,23,Female,2024-02-12_13h06.52.792,jersey_experiment_5,2023.2.2,Win32,84.74576271,,,,,,,,,,,,,,,,529.275,531.0749,531.0749,532.6161,return,0.8276,,33.33333333,,,,,,FBP-YG-19.png,0.37,1.2,42,1,0,57,57,41,1,,,,,,,,,,,,,,,,,,,,,,,,,,,,,,,,,,,,,,,,
,,,,,WIN24_054,23,Female,2024-02-12_13h06.52.792,jersey_experiment_5,2023.2.2,Win32,84.74576271,,,,,,,,,,,,,,,,532.6163,534.4164,534.4164,536.2161,return,0.9079,,71.22395833,,,,,,FBP-YG-18.png,0.4,1.2,38,1,0,58,58,37,1,,,,,,,,,,,,,,,,,,,,,,,,,,,,,,,,,,,,,,,,
,,,,,WIN24_054,23,Female,2024-02-12_13h06.52.792,jersey_experiment_5,2023.2.2,Win32,84.74576271,,,,,,,,,,,,,,,,536.2163,538.0165,538.0165,539.5458,return,0.6258,,25.78125,,,,,,FBP-YG-19.png,0.35,1.2,41,1,0,59,59,40,1,,,,,,,,,,,,,,,,,,,,,,,,,,,,,,,,,,,,,,,,
,,,,,WIN24_054,23,Female,2024-02-12_13h06.52.792,jersey_experiment_5,2023.2.2,Win32,84.74576271,,,,,,,,,,,,,,,,,,,,,,,,,,,,,,,,,,,,,,,539.5462,659.5505,,,,,,,,,,,,,,,,,,,,,,,,,,,,,,,,,,,,,,
,,,,,WIN24_054,23,Female,2024-02-12_13h06.52.792,jersey_experiment_5,2023.2.2,Win32,84.74576271,,,,,,,,,,,,,,,,,,,,,,,,,,,,,,,,,,,,,,,,,659.5506,661.1738,return,1.617,,,,,,,,,,,,,,,,,,,,,,,,,,,,,,,,,,
,,,,,WIN24_054,23,Female,2024-02-12_13h06.52.792,jersey_experiment_5,2023.2.2,Win32,84.74576271,,,,,,,,,,,,,,,,661.1799,662.9737,662.9737,676.3977,return,1.1434,,49.47916667,,,,,,FBP-OG-71.png,0.37,1.2,2,1,,,,,,,,,,,,,0,0,0,1,1,,,,,,,,,,,,,,,,,,,,,,,,,,,,
,,,,,WIN24_054,23,Female,2024-02-12_13h06.52.792,jersey_experiment_5,2023.2.2,Win32,84.74576271,,,,,,,,,,,,,,,,676.3981,677.6919,677.6919,680.6802,return,0.5889,,49.47916667,,,,,,FBP-RB-17.png,0.45,1.2,20,0.5,,,,,,,,,,,,,0,1,1,19,1,,,,,,,,,,,,,,,,,,,,,,,,,,,,
,,,,,WIN24_054,23,Female,2024-02-12_13h06.52.792,jersey_experiment_5,2023.2.2,Win32,84.74576271,,,,,,,,,,,,,,,,680.6803,682.4803,682.4803,685.9745,return,2.0971,,49.609375,,,,,,FBP-OG-81.png,0.4,1.2,8,1,,,,,,,,,,,,,0,2,2,7,1,,,,,,,,,,,,,,,,,,,,,,,,,,,,
,,,,,WIN24_054,23,Female,2024-02-12_13h06.52.792,jersey_experiment_5,2023.2.2,Win32,84.74576271,,,,,,,,,,,,,,,,685.9748,687.7745,687.7745,689.8806,return,0.1657,,49.609375,,,,,,FBP-OG-91.png,0.43,1.2,14,1,,,,,,,,,,,,,0,3,3,13,1,,,,,,,,,,,,,,,,,,,,,,,,,,,,
,,,,,WIN24_054,23,Female,2024-02-12_13h06.52.792,jersey_experiment_5,2023.2.2,Win32,84.74576271,,,,,,,,,,,,,,,,689.8808,691.6807,691.6807,693.563,return,0.1891,,73.4375,,,,,,FBP-OG-81.png,0.43,1.2,9,1,,,,,,,,,,,,,0,4,4,8,1,,,,,,,,,,,,,,,,,,,,,,,,,,,,
,,,,,WIN24_054,23,Female,2024-02-12_13h06.52.792,jersey_experiment_5,2023.2.2,Win32,84.74576271,,,,,,,,,,,,,,,,693.5633,694.8573,694.8573,695.6925,return,0.2028,,25.390625,,,,,,FBP-YG-91.png,0.35,1.2,41,0.5,,,,,,,,,,,,,0,5,5,40,1,,,,,,,,,,,,,,,,,,,,,,,,,,,,
,,,,,WIN24_054,23,Female,2024-02-12_13h06.52.792,jersey_experiment_5,2023.2.2,Win32,84.74576271,,,,,,,,,,,,,,,,695.6928,696.9867,696.9867,701.4926,return,0.1954,,23.56770833,,,,,,FBP-YG-81.png,0.45,1.2,40,0.5,,,,,,,,,,,,,0,6,6,39,1,,,,,,,,,,,,,,,,,,,,,,,,,,,,
,,,,,WIN24_054,23,Female,2024-02-12_13h06.52.792,jersey_experiment_5,2023.2.2,Win32,84.74576271,,,,,,,,,,,,,,,,701.4929,702.7869,702.7869,703.6692,return,0.2066,,37.36979167,,,,,,FBP-YG-91.png,0.37,1.2,42,0.5,,,,,,,,,,,,,0,7,7,41,1,,,,,,,,,,,,,,,,,,,,,,,,,,,,
,,,,,WIN24_054,23,Female,2024-02-12_13h06.52.792,jersey_experiment_5,2023.2.2,Win32,84.74576271,,,,,,,,,,,,,,,,703.6694,704.9634,704.9634,705.7398,return,0.1641,,47.265625,,,,,,FBP-RB-18.png,0.45,1.2,25,0.5,,,,,,,,,,,,,0,8,8,24,1,,,,,,,,,,,,,,,,,,,,,,,,,,,,
,,,,,WIN24_054,23,Female,2024-02-12_13h06.52.792,jersey_experiment_5,2023.2.2,Win32,84.74576271,,,,,,,,,,,,,,,,705.7401,707.5401,707.5401,708.2458,return,0.1794,,73.828125,,,,,,FBP-PT-17.png,0.37,1.2,47,1,,,,,,,,,,,,,0,9,9,46,1,,,,,,,,,,,,,,,,,,,,,,,,,,,,
,,,,,WIN24_054,23,Female,2024-02-12_13h06.52.792,jersey_experiment_5,2023.2.2,Win32,84.74576271,,,,,,,,,,,,,,,,708.2461,709.5401,709.5401,711.093,return,0.195,,72.91666667,,,,,,FBP-RB-18.png,0.35,1.2,21,0.5,,,,,,,,,,,,,0,10,10,20,1,,,,,,,,,,,,,,,,,,,,,,,,,,,,
,,,,,WIN24_054,23,Female,2024-02-12_13h06.52.792,jersey_experiment_5,2023.2.2,Win32,84.74576271,,,,,,,,,,,,,,,,711.0931,712.3872,712.3872,713.1286,return,0.1796,,38.671875,,,,,,FBP-YG-71.png,0.4,1.2,33,0.5,,,,,,,,,,,,,0,11,11,32,1,,,,,,,,,,,,,,,,,,,,,,,,,,,,
,,,,,WIN24_054,23,Female,2024-02-12_13h06.52.792,jersey_experiment_5,2023.2.2,Win32,84.74576271,,,,,,,,,,,,,,,,713.1289,714.9285,714.9285,716.0579,return,0.1296,,87.23958333,,,,,,FBP-OG-71.png,0.45,1.2,5,1,,,,,,,,,,,,,0,12,12,4,1,,,,,,,,,,,,,,,,,,,,,,,,,,,,
,,,,,WIN24_054,23,Female,2024-02-12_13h06.52.792,jersey_experiment_5,2023.2.2,Win32,84.74576271,,,,,,,,,,,,,,,,716.0581,717.8582,717.8583,719.4344,return,0.2727,,95.44270833,,,,,,FBP-PT-18.png,0.4,1.2,53,1,,,,,,,,,,,,,0,13,13,52,1,,,,,,,,,,,,,,,,,,,,,,,,,,,,
,,,,,WIN24_054,23,Female,2024-02-12_13h06.52.792,jersey_experiment_5,2023.2.2,Win32,84.74576271,,,,,,,,,,,,,,,,719.4346,721.2346,721.2346,724.3288,return,0.203,,98.30729167,,,,,,FBP-PT-19.png,0.45,1.2,60,1,,,,,,,,,,,,,0,14,14,59,1,,,,,,,,,,,,,,,,,,,,,,,,,,,,
,,,,,WIN24_054,23,Female,2024-02-12_13h06.52.792,jersey_experiment_5,2023.2.2,Win32,84.74576271,,,,,,,,,,,,,,,,724.3291,725.6231,725.6231,726.9173,return,0.4986,,68.75,,,,,,FBP-YG-71.png,0.43,1.2,34,0.5,,,,,,,,,,,,,0,15,15,33,1,,,,,,,,,,,,,,,,,,,,,,,,,,,,
,,,,,WIN24_054,23,Female,2024-02-12_13h06.52.792,jersey_experiment_5,2023.2.2,Win32,84.74576271,,,,,,,,,,,,,,,,726.9175,728.2114,728.2114,728.9642,return,0.1604,,65.625,,,,,,FBP-YG-71.png,0.35,1.2,31,0.5,,,,,,,,,,,,,0,16,16,30,1,,,,,,,,,,,,,,,,,,,,,,,,,,,,
,,,,,WIN24_054,23,Female,2024-02-12_13h06.52.792,jersey_experiment_5,2023.2.2,Win32,84.74576271,,,,,,,,,,,,,,,,728.9645,730.2587,730.2587,731.0468,return,0.1699,,70.18229167,,,,,,FBP-YG-81.png,0.4,1.2,38,0.5,,,,,,,,,,,,,0,17,17,37,1,,,,,,,,,,,,,,,,,,,,,,,,,,,,
,,,,,WIN24_054,23,Female,2024-02-12_13h06.52.792,jersey_experiment_5,2023.2.2,Win32,84.74576271,,,,,,,,,,,,,,,,731.0471,732.847,732.847,733.6232,return,0.214,,34.63541667,,,,,,FBP-OG-81.png,0.37,1.2,7,1,,,,,,,,,,,,,0,18,18,6,1,,,,,,,,,,,,,,,,,,,,,,,,,,,,
,,,,,WIN24_054,23,Female,2024-02-12_13h06.52.792,jersey_experiment_5,2023.2.2,Win32,84.74576271,,,,,,,,,,,,,,,,733.6235,735.4233,735.4233,736.0703,return,0.168,,32.03125,,,,,,FBP-PT-18.png,0.37,1.2,52,1,,,,,,,,,,,,,0,19,19,51,1,,,,,,,,,,,,,,,,,,,,,,,,,,,,
,,,,,WIN24_054,23,Female,2024-02-12_13h06.52.792,jersey_experiment_5,2023.2.2,Win32,84.74576271,,,,,,,,,,,,,,,,736.0706,737.8705,737.8705,738.8706,return,0.1671,,27.60416667,,,,,,FBP-OG-71.png,0.35,1.2,1,1,,,,,,,,,,,,,0,20,20,0,1,,,,,,,,,,,,,,,,,,,,,,,,,,,,
,,,,,WIN24_054,23,Female,2024-02-12_13h06.52.792,jersey_experiment_5,2023.2.2,Win32,84.74576271,,,,,,,,,,,,,,,,738.8709,740.6705,740.6706,783.931,return,0.9647,,49.86979167,,,,,,FBP-OG-71.png,0.4,1.2,3,1,,,,,,,,,,,,,0,21,21,2,1,,,,,,,,,,,,,,,,,,,,,,,,,,,,
,,,,,WIN24_054,23,Female,2024-02-12_13h06.52.792,jersey_experiment_5,2023.2.2,Win32,84.74576271,,,,,,,,,,,,,,,,783.9313,785.2251,785.2251,827.2384,return,0.9231,,49.609375,,,,,,FBP-RB-18.png,0.37,1.2,22,0.5,,,,,,,,,,,,,0,22,22,21,1,,,,,,,,,,,,,,,,,,,,,,,,,,,,
,,,,,WIN24_054,23,Female,2024-02-12_13h06.52.792,jersey_experiment_5,2023.2.2,Win32,84.74576271,,,,,,,,,,,,,,,,827.2386,828.5325,828.5326,829.1797,return,0.1308,,58.984375,,,,,,FBP-YG-71.png,0.37,1.2,32,0.5,,,,,,,,,,,,,0,23,23,31,1,,,,,,,,,,,,,,,,,,,,,,,,,,,,
,,,,,WIN24_054,23,Female,2024-02-12_13h06.52.792,jersey_experiment_5,2023.2.2,Win32,84.74576271,,,,,,,,,,,,,,,,829.1799,830.4741,830.4741,831.4032,return,0.0809,,80.98958333,,,,,,FBP-YG-71.png,0.45,1.2,35,0.5,,,,,,,,,,,,,0,24,24,34,1,,,,,,,,,,,,,,,,,,,,,,,,,,,,
,,,,,WIN24_054,23,Female,2024-02-12_13h06.52.792,jersey_experiment_5,2023.2.2,Win32,84.74576271,,,,,,,,,,,,,,,,831.4035,833.2033,833.2033,833.6386,return,0.0518,,84.63541667,,,,,,FBP-PT-19.png,0.35,1.2,56,1,,,,,,,,,,,,,0,25,25,55,1,,,,,,,,,,,,,,,,,,,,,,,,,,,,
,,,,,WIN24_054,23,Female,2024-02-12_13h06.52.792,jersey_experiment_5,2023.2.2,Win32,84.74576271,,,,,,,,,,,,,,,,833.6389,835.4388,835.4388,836.0269,return,0.1882,,83.59375,,,,,,FBP-OG-81.png,0.35,1.2,6,1,,,,,,,,,,,,,0,26,26,5,1,,,,,,,,,,,,,,,,,,,,,,,,,,,,
,,,,,WIN24_054,23,Female,2024-02-12_13h06.52.792,jersey_experiment_5,2023.2.2,Win32,84.74576271,,,,,,,,,,,,,,,,836.0273,837.3211,837.3211,861.3221,return,0.6027,,76.953125,,,,,,FBP-RB-18.png,0.4,1.2,23,0.5,,,,,,,,,,,,,0,27,27,22,1,,,,,,,,,,,,,,,,,,,,,,,,,,,,
,,,,,WIN24_054,23,Female,2024-02-12_13h06.52.792,jersey_experiment_5,2023.2.2,Win32,84.74576271,,,,,,,,,,,,,,,,861.3223,862.6162,862.6162,863.4163,return,0.0859,,80.98958333,,,,,,FBP-RB-19.png,0.35,1.2,26,0.5,,,,,,,,,,,,,0,28,28,25,1,,,,,,,,,,,,,,,,,,,,,,,,,,,,
,,,,,WIN24_054,23,Female,2024-02-12_13h06.52.792,jersey_experiment_5,2023.2.2,Win32,84.74576271,,,,,,,,,,,,,,,,863.4165,865.2163,865.2163,865.6869,return,0.1223,,24.47916667,,,,,,FBP-OG-91.png,0.35,1.2,11,1,,,,,,,,,,,,,0,29,29,10,1,,,,,,,,,,,,,,,,,,,,,,,,,,,,
,,,,,WIN24_054,23,Female,2024-02-12_13h06.52.792,jersey_experiment_5,2023.2.2,Win32,84.74576271,,,,,,,,,,,,,,,,865.687,866.981,866.981,868.5815,return,0.1101,,22.13541667,,,,,,FBP-RB-19.png,0.43,1.2,29,0.5,,,,,,,,,,,,,0,30,30,28,1,,,,,,,,,,,,,,,,,,,,,,,,,,,,
,,,,,WIN24_054,23,Female,2024-02-12_13h06.52.792,jersey_experiment_5,2023.2.2,Win32,84.74576271,,,,,,,,,,,,,,,,868.5817,869.8753,869.8753,870.487,return,0.0989,,23.95833333,,,,,,FBP-YG-81.png,0.37,1.2,37,0.5,,,,,,,,,,,,,0,31,31,36,1,,,,,,,,,,,,,,,,,,,,,,,,,,,,
,,,,,WIN24_054,23,Female,2024-02-12_13h06.52.792,jersey_experiment_5,2023.2.2,Win32,84.74576271,,,,,,,,,,,,,,,,870.4872,872.2873,872.2874,872.8754,return,0.142,,21.875,,,,,,FBP-PT-19.png,0.37,1.2,57,1,,,,,,,,,,,,,0,32,32,56,1,,,,,,,,,,,,,,,,,,,,,,,,,,,,
,,,,,WIN24_054,23,Female,2024-02-12_13h06.52.792,jersey_experiment_5,2023.2.2,Win32,84.74576271,,,,,,,,,,,,,,,,872.8757,874.6754,874.6754,878.0872,return,0.0987,,33.203125,,,,,,FBP-OG-91.png,0.37,1.2,12,1,,,,,,,,,,,,,0,33,33,11,1,,,,,,,,,,,,,,,,,,,,,,,,,,,,
,,,,,WIN24_054,23,Female,2024-02-12_13h06.52.792,jersey_experiment_5,2023.2.2,Win32,84.74576271,,,,,,,,,,,,,,,,878.0875,879.8874,879.8874,880.4875,return,0.1087,,18.75,,,,,,FBP-OG-81.png,0.45,1.2,10,1,,,,,,,,,,,,,0,34,34,9,1,,,,,,,,,,,,,,,,,,,,,,,,,,,,
,,,,,WIN24_054,23,Female,2024-02-12_13h06.52.792,jersey_experiment_5,2023.2.2,Win32,84.74576271,,,,,,,,,,,,,,,,880.4878,881.7815,881.7815,882.2051,return,0.118,,19.53125,,,,,,FBP-YG-91.png,0.43,1.2,44,0.5,,,,,,,,,,,,,0,35,35,43,1,,,,,,,,,,,,,,,,,,,,,,,,,,,,
,,,,,WIN24_054,23,Female,2024-02-12_13h06.52.792,jersey_experiment_5,2023.2.2,Win32,84.74576271,,,,,,,,,,,,,,,,882.2054,883.4993,883.4993,883.9934,return,0.0818,,22.00520833,,,,,,FBP-RB-17.png,0.4,1.2,18,0.5,,,,,,,,,,,,,0,36,36,17,1,,,,,,,,,,,,,,,,,,,,,,,,,,,,
,,,,,WIN24_054,23,Female,2024-02-12_13h06.52.792,jersey_experiment_5,2023.2.2,Win32,84.74576271,,,,,,,,,,,,,,,,883.9937,885.7936,885.7936,886.3228,return,0.0889,,79.81770833,,,,,,FBP-OG-91.png,0.45,1.2,15,1,,,,,,,,,,,,,0,37,37,14,1,,,,,,,,,,,,,,,,,,,,,,,,,,,,
,,,,,WIN24_054,23,Female,2024-02-12_13h06.52.792,jersey_experiment_5,2023.2.2,Win32,84.74576271,,,,,,,,,,,,,,,,886.3231,887.6171,887.6171,888.2995,return,0.1267,,42.44791667,,,,,,FBP-YG-91.png,0.4,1.2,43,0.5,,,,,,,,,,,,,0,38,38,42,1,,,,,,,,,,,,,,,,,,,,,,,,,,,,
,,,,,WIN24_054,23,Female,2024-02-12_13h06.52.792,jersey_experiment_5,2023.2.2,Win32,84.74576271,,,,,,,,,,,,,,,,888.2997,890.0998,890.0998,890.6171,return,0.0939,,22.265625,,,,,,FBP-OG-71.png,0.43,1.2,4,1,,,,,,,,,,,,,0,39,39,3,1,,,,,,,,,,,,,,,,,,,,,,,,,,,,
,,,,,WIN24_054,23,Female,2024-02-12_13h06.52.792,jersey_experiment_5,2023.2.2,Win32,84.74576271,,,,,,,,,,,,,,,,890.6174,892.4173,892.4173,893.1233,return,0.0884,,89.32291667,,,,,,FBP-PT-18.png,0.45,1.2,55,1,,,,,,,,,,,,,0,40,40,54,1,,,,,,,,,,,,,,,,,,,,,,,,,,,,
,,,,,WIN24_054,23,Female,2024-02-12_13h06.52.792,jersey_experiment_5,2023.2.2,Win32,84.74576271,,,,,,,,,,,,,,,,893.1234,894.4174,894.4175,895.0528,return,0.1649,,37.76041667,,,,,,FBP-RB-19.png,0.37,1.2,27,0.5,,,,,,,,,,,,,0,41,41,26,1,,,,,,,,,,,,,,,,,,,,,,,,,,,,
,,,,,WIN24_054,23,Female,2024-02-12_13h06.52.792,jersey_experiment_5,2023.2.2,Win32,84.74576271,,,,,,,,,,,,,,,,895.053,896.3468,896.3468,896.7941,return,0.1431,,92.31770833,,,,,,FBP-YG-91.png,0.45,1.2,45,0.5,,,,,,,,,,,,,0,42,42,44,1,,,,,,,,,,,,,,,,,,,,,,,,,,,,
,,,,,WIN24_054,23,Female,2024-02-12_13h06.52.792,jersey_experiment_5,2023.2.2,Win32,84.74576271,,,,,,,,,,,,,,,,896.7943,898.0878,898.0878,898.5351,return,0.0747,,92.1875,,,,,,FBP-RB-18.png,0.43,1.2,24,0.5,,,,,,,,,,,,,0,43,43,23,1,,,,,,,,,,,,,,,,,,,,,,,,,,,,
,,,,,WIN24_054,23,Female,2024-02-12_13h06.52.792,jersey_experiment_5,2023.2.2,Win32,84.74576271,,,,,,,,,,,,,,,,898.5354,899.8292,899.8293,901.5117,return,0.6513,,82.68229167,,,,,,FBP-RB-17.png,0.37,1.2,17,0.5,,,,,,,,,,,,,0,44,44,16,1,,,,,,,,,,,,,,,,,,,,,,,,,,,,
,,,,,WIN24_054,23,Female,2024-02-12_13h06.52.792,jersey_experiment_5,2023.2.2,Win32,84.74576271,,,,,,,,,,,,,,,,901.512,902.8059,902.8059,904.1003,return,0.0898,,89.32291667,,,,,,FBP-YG-81.png,0.35,1.2,36,0.5,,,,,,,,,,,,,0,45,45,35,1,,,,,,,,,,,,,,,,,,,,,,,,,,,,
,,,,,WIN24_054,23,Female,2024-02-12_13h06.52.792,jersey_experiment_5,2023.2.2,Win32,84.74576271,,,,,,,,,,,,,,,,904.1004,905.8999,905.9,906.453,return,0.1597,,87.5,,,,,,FBP-PT-17.png,0.4,1.2,48,1,,,,,,,,,,,,,0,46,46,47,1,,,,,,,,,,,,,,,,,,,,,,,,,,,,
,,,,,WIN24_054,23,Female,2024-02-12_13h06.52.792,jersey_experiment_5,2023.2.2,Win32,84.74576271,,,,,,,,,,,,,,,,906.4533,908.253,908.253,908.8296,return,0.1312,,87.109375,,,,,,FBP-PT-17.png,0.35,1.2,46,1,,,,,,,,,,,,,0,47,47,45,1,,,,,,,,,,,,,,,,,,,,,,,,,,,,
,,,,,WIN24_054,23,Female,2024-02-12_13h06.52.792,jersey_experiment_5,2023.2.2,Win32,84.74576271,,,,,,,,,,,,,,,,908.8298,910.6296,910.6297,911.1593,return,0.1573,,90.49479167,,,,,,FBP-PT-17.png,0.43,1.2,49,1,,,,,,,,,,,,,0,48,48,48,1,,,,,,,,,,,,,,,,,,,,,,,,,,,,
,,,,,WIN24_054,23,Female,2024-02-12_13h06.52.792,jersey_experiment_5,2023.2.2,Win32,84.74576271,,,,,,,,,,,,,,,,911.1595,912.4532,912.4533,913.3356,return,0.498,,95.83333333,,,,,,FBP-RB-19.png,0.4,1.2,28,0.5,,,,,,,,,,,,,0,49,49,27,1,,,,,,,,,,,,,,,,,,,,,,,,,,,,
,,,,,WIN24_054,23,Female,2024-02-12_13h06.52.792,jersey_experiment_5,2023.2.2,Win32,84.74576271,,,,,,,,,,,,,,,,913.3358,914.6298,914.6298,915.1593,return,0.1573,,94.27083333,,,,,,FBP-RB-17.png,0.35,1.2,16,0.5,,,,,,,,,,,,,0,50,50,15,1,,,,,,,,,,,,,,,,,,,,,,,,,,,,
,,,,,WIN24_054,23,Female,2024-02-12_13h06.52.792,jersey_experiment_5,2023.2.2,Win32,84.74576271,,,,,,,,,,,,,,,,915.1595,916.9592,916.9592,917.4651,return,0.1084,,89.58333333,,,,,,FBP-OG-91.png,0.4,1.2,13,1,,,,,,,,,,,,,0,51,51,12,1,,,,,,,,,,,,,,,,,,,,,,,,,,,,
,,,,,WIN24_054,23,Female,2024-02-12_13h06.52.792,jersey_experiment_5,2023.2.2,Win32,84.74576271,,,,,,,,,,,,,,,,917.4653,918.7594,918.7594,919.3712,return,0.108,,89.453125,,,,,,FBP-RB-19.png,0.45,1.2,30,0.5,,,,,,,,,,,,,0,52,52,29,1,,,,,,,,,,,,,,,,,,,,,,,,,,,,
,,,,,WIN24_054,23,Female,2024-02-12_13h06.52.792,jersey_experiment_5,2023.2.2,Win32,84.74576271,,,,,,,,,,,,,,,,919.3714,921.1712,921.1712,921.9948,return,0.3301,,89.453125,,,,,,FBP-PT-19.png,0.4,1.2,58,1,,,,,,,,,,,,,0,53,53,57,1,,,,,,,,,,,,,,,,,,,,,,,,,,,,
,,,,,WIN24_054,23,Female,2024-02-12_13h06.52.792,jersey_experiment_5,2023.2.2,Win32,84.74576271,,,,,,,,,,,,,,,,921.995,923.2889,923.2889,924.0418,return,0.1752,,92.70833333,,,,,,FBP-RB-17.png,0.43,1.2,19,0.5,,,,,,,,,,,,,0,54,54,18,1,,,,,,,,,,,,,,,,,,,,,,,,,,,,
,,,,,WIN24_054,23,Female,2024-02-12_13h06.52.792,jersey_experiment_5,2023.2.2,Win32,84.74576271,,,,,,,,,,,,,,,,924.042,925.336,925.336,925.9949,return,0.2358,,92.578125,,,,,,FBP-YG-81.png,0.43,1.2,39,0.5,,,,,,,,,,,,,0,55,55,38,1,,,,,,,,,,,,,,,,,,,,,,,,,,,,
,,,,,WIN24_054,23,Female,2024-02-12_13h06.52.792,jersey_experiment_5,2023.2.2,Win32,84.74576271,,,,,,,,,,,,,,,,925.9951,927.795,927.795,933.2892,return,0.1671,,55.59895833,,,,,,FBP-PT-18.png,0.35,1.2,51,1,,,,,,,,,,,,,0,56,56,50,1,,,,,,,,,,,,,,,,,,,,,,,,,,,,
,,,,,WIN24_054,23,Female,2024-02-12_13h06.52.792,jersey_experiment_5,2023.2.2,Win32,84.74576271,,,,,,,,,,,,,,,,933.2894,935.0893,935.0894,942.7955,return,0.2121,,55.59895833,,,,,,FBP-PT-18.png,0.43,1.2,54,1,,,,,,,,,,,,,0,57,57,53,1,,,,,,,,,,,,,,,,,,,,,,,,,,,,
,,,,,WIN24_054,23,Female,2024-02-12_13h06.52.792,jersey_experiment_5,2023.2.2,Win32,84.74576271,,,,,,,,,,,,,,,,942.7958,944.5956,944.5957,953.1018,return,0.1413,,56.640625,,,,,,FBP-PT-19.png,0.43,1.2,59,1,,,,,,,,,,,,,0,58,58,58,1,,,,,,,,,,,,,,,,,,,,,,,,,,,,
,,,,,WIN24_054,23,Female,2024-02-12_13h06.52.792,jersey_experiment_5,2023.2.2,Win32,84.74576271,,,,,,,,,,,,,,,,953.102,954.9021,954.9021,955.5607,return,0.2737,,58.59375,,,,,,FBP-PT-17.png,0.45,1.2,50,1,,,,,,,,,,,,,0,59,59,49,1,,,,,,,,,,,,,,,,,,,,,,,,,,,,
,,,,,WIN24_054,23,Female,2024-02-12_13h06.52.792,jersey_experiment_5,2023.2.2,Win32,84.74576271,,,,,,,,,,,,,,,,955.5627,956.855,956.855,958.0195,return,0.1964,,59.11458333,,,,,,FBP-YG-17.png,0.43,1.2,34,0.5,,,,,,,,,,,,,,,,,,0,0,0,33,1,,,,,,,,,,,,,,,,,,,,,,,
,,,,,WIN24_054,23,Female,2024-02-12_13h06.52.792,jersey_experiment_5,2023.2.2,Win32,84.74576271,,,,,,,,,,,,,,,,958.0198,959.3137,959.3138,960.5844,return,0.2003,,58.984375,,,,,,FBP-YG-18.png,0.35,1.2,36,0.5,,,,,,,,,,,,,,,,,,0,1,1,35,1,,,,,,,,,,,,,,,,,,,,,,,
,,,,,WIN24_054,23,Female,2024-02-12_13h06.52.792,jersey_experiment_5,2023.2.2,Win32,84.74576271,,,,,,,,,,,,,,,,960.5847,962.3845,962.3846,963.114,return,0.2353,,59.375,,,,,,FBP-OG-18.png,0.35,1.2,6,1,,,,,,,,,,,,,,,,,,0,2,2,5,1,,,,,,,,,,,,,,,,,,,,,,,
,,,,,WIN24_054,23,Female,2024-02-12_13h06.52.792,jersey_experiment_5,2023.2.2,Win32,84.74576271,,,,,,,,,,,,,,,,963.1142,964.9141,964.9141,965.4906,return,0.2092,,60.15625,,,,,,FBP-PT-91.png,0.45,1.2,60,1,,,,,,,,,,,,,,,,,,0,3,3,59,1,,,,,,,,,,,,,,,,,,,,,,,
,,,,,WIN24_054,23,Female,2024-02-12_13h06.52.792,jersey_experiment_5,2023.2.2,Win32,84.74576271,,,,,,,,,,,,,,,,965.4907,966.7847,966.7847,968.1258,return,0.7062,,60.02604167,,,,,,FBP-RB-81.png,0.37,1.2,22,0.5,,,,,,,,,,,,,,,,,,0,4,4,21,1,,,,,,,,,,,,,,,,,,,,,,,
,,,,,WIN24_054,23,Female,2024-02-12_13h06.52.792,jersey_experiment_5,2023.2.2,Win32,84.74576271,,,,,,,,,,,,,,,,968.1261,969.4201,969.4201,972.1025,return,0.1446,,58.07291667,,,,,,FBP-YG-17.png,0.4,1.2,33,0.5,,,,,,,,,,,,,,,,,,0,5,5,32,1,,,,,,,,,,,,,,,,,,,,,,,
,,,,,WIN24_054,23,Female,2024-02-12_13h06.52.792,jersey_experiment_5,2023.2.2,Win32,84.74576271,,,,,,,,,,,,,,,,972.1027,973.9025,973.9025,976.2908,return,1.3948,,55.078125,,,,,,FBP-PT-71.png,0.4,1.2,48,1,,,,,,,,,,,,,,,,,,0,6,6,47,1,,,,,,,,,,,,,,,,,,,,,,,
,,,,,WIN24_054,23,Female,2024-02-12_13h06.52.792,jersey_experiment_5,2023.2.2,Win32,84.74576271,,,,,,,,,,,,,,,,976.2909,977.5851,977.5851,984.3734,return,0.4057,,55.20833333,,,,,,FBP-RB-91.png,0.35,1.2,26,0.5,,,,,,,,,,,,,,,,,,0,7,7,25,1,,,,,,,,,,,,,,,,,,,,,,,
,,,,,WIN24_054,23,Female,2024-02-12_13h06.52.792,jersey_experiment_5,2023.2.2,Win32,84.74576271,,,,,,,,,,,,,,,,984.3736,986.1738,986.1738,987.0912,return,0.3585,,54.42708333,,,,,,FBP-OG-19.png,0.35,1.2,11,1,,,,,,,,,,,,,,,,,,0,8,8,10,1,,,,,,,,,,,,,,,,,,,,,,,
,,,,,WIN24_054,23,Female,2024-02-12_13h06.52.792,jersey_experiment_5,2023.2.2,Win32,84.74576271,,,,,,,,,,,,,,,,987.0915,988.8915,988.8915,989.656,return,0.2033,,56.90104167,,,,,,FBP-PT-81.png,0.45,1.2,55,1,,,,,,,,,,,,,,,,,,0,9,9,54,1,,,,,,,,,,,,,,,,,,,,,,,
,,,,,WIN24_054,23,Female,2024-02-12_13h06.52.792,jersey_experiment_5,2023.2.2,Win32,84.74576271,,,,,,,,,,,,,,,,989.6562,990.9502,990.9502,991.5151,return,0.1554,,59.50520833,,,,,,FBP-YG-18.png,0.37,1.2,37,0.5,,,,,,,,,,,,,,,,,,0,10,10,36,1,,,,,,,,,,,,,,,,,,,,,,,
,,,,,WIN24_054,23,Female,2024-02-12_13h06.52.792,jersey_experiment_5,2023.2.2,Win32,84.74576271,,,,,,,,,,,,,,,,991.5153,993.3152,993.3152,993.7856,return,0.1194,,60.9375,,,,,,FBP-OG-19.png,0.43,1.2,14,1,,,,,,,,,,,,,,,,,,0,11,11,13,1,,,,,,,,,,,,,,,,,,,,,,,
,,,,,WIN24_054,23,Female,2024-02-12_13h06.52.792,jersey_experiment_5,2023.2.2,Win32,84.74576271,,,,,,,,,,,,,,,,993.7858,995.5856,995.5857,1009.539,return,1.0416,,60.9375,,,,,,FBP-PT-91.png,0.35,1.2,56,1,,,,,,,,,,,,,,,,,,0,12,12,55,1,,,,,,,,,,,,,,,,,,,,,,,
,,,,,WIN24_054,23,Female,2024-02-12_13h06.52.792,jersey_experiment_5,2023.2.2,Win32,84.74576271,,,,,,,,,,,,,,,,1009.5393,1010.8333,1010.8333,1023.222,return,0.5702,,50,,,,,,FBP-RB-91.png,0.37,1.2,27,0.5,,,,,,,,,,,,,,,,,,0,13,13,26,1,,,,,,,,,,,,,,,,,,,,,,,
,,,,,WIN24_054,23,Female,2024-02-12_13h06.52.792,jersey_experiment_5,2023.2.2,Win32,84.74576271,,,,,,,,,,,,,,,,1023.2221,1025.0221,1025.0221,1026.2809,return,0.6612,,52.86458333,,,,,,FBP-PT-71.png,0.43,1.2,49,1,,,,,,,,,,,,,,,,,,0,14,14,48,1,,,,,,,,,,,,,,,,,,,,,,,
,,,,,WIN24_054,23,Female,2024-02-12_13h06.52.792,jersey_experiment_5,2023.2.2,Win32,84.74576271,,,,,,,,,,,,,,,,1026.2811,1027.5749,1027.575,1028.1516,return,0.1332,,54.42708333,,,,,,FBP-YG-19.png,0.4,1.2,43,0.5,,,,,,,,,,,,,,,,,,0,15,15,42,1,,,,,,,,,,,,,,,,,,,,,,,
,,,,,WIN24_054,23,Female,2024-02-12_13h06.52.792,jersey_experiment_5,2023.2.2,Win32,84.74576271,,,,,,,,,,,,,,,,1028.1518,1029.4456,1029.4457,1052.8935,return,0.4805,,55.078125,,,,,,FBP-YG-18.png,0.45,1.2,40,0.5,,,,,,,,,,,,,,,,,,0,16,16,39,1,,,,,,,,,,,,,,,,,,,,,,,
,,,,,WIN24_054,23,Female,2024-02-12_13h06.52.792,jersey_experiment_5,2023.2.2,Win32,84.74576271,,,,,,,,,,,,,,,,1052.8938,1054.6936,1054.6937,1056.0936,return,0.2222,,56.77083333,,,,,,FBP-OG-17.png,0.45,1.2,5,1,,,,,,,,,,,,,,,,,,0,17,17,4,1,,,,,,,,,,,,,,,,,,,,,,,
,,,,,WIN24_054,23,Female,2024-02-12_13h06.52.792,jersey_experiment_5,2023.2.2,Win32,84.74576271,,,,,,,,,,,,,,,,1056.0939,1057.8938,1057.8938,1058.9409,return,0.3867,,58.07291667,,,,,,FBP-OG-19.png,0.45,1.2,15,1,,,,,,,,,,,,,,,,,,0,18,18,14,1,,,,,,,,,,,,,,,,,,,,,,,
,,,,,WIN24_054,23,Female,2024-02-12_13h06.52.792,jersey_experiment_5,2023.2.2,Win32,84.74576271,,,,,,,,,,,,,,,,1058.9412,1060.235,1060.235,1071.5652,return,0.1551,,58.07291667,,,,,,FBP-RB-71.png,0.43,1.2,19,0.5,,,,,,,,,,,,,,,,,,0,19,19,18,1,,,,,,,,,,,,,,,,,,,,,,,
,,,,,WIN24_054,23,Female,2024-02-12_13h06.52.792,jersey_experiment_5,2023.2.2,Win32,84.74576271,,,,,,,,,,,,,,,,1071.5652,1073.365,1073.365,1074.2003,return,0.0716,,83.59375,,,,,,FBP-PT-81.png,0.4,1.2,53,1,,,,,,,,,,,,,,,,,,0,20,20,52,1,,,,,,,,,,,,,,,,,,,,,,,
,,,,,WIN24_054,23,Female,2024-02-12_13h06.52.792,jersey_experiment_5,2023.2.2,Win32,84.74576271,,,,,,,,,,,,,,,,1074.2006,1075.4945,1075.4945,1076.2592,return,0.1256,,84.765625,,,,,,FBP-YG-18.png,0.43,1.2,39,0.5,,,,,,,,,,,,,,,,,,0,21,21,38,1,,,,,,,,,,,,,,,,,,,,,,,
,,,,,WIN24_054,23,Female,2024-02-12_13h06.52.792,jersey_experiment_5,2023.2.2,Win32,84.74576271,,,,,,,,,,,,,,,,1076.2595,1078.0593,1078.0593,1080.1064,return,0.1418,,83.07291667,,,,,,FBP-PT-91.png,0.4,1.2,58,1,,,,,,,,,,,,,,,,,,0,22,22,57,1,,,,,,,,,,,,,,,,,,,,,,,
,,,,,WIN24_054,23,Female,2024-02-12_13h06.52.792,jersey_experiment_5,2023.2.2,Win32,84.74576271,,,,,,,,,,,,,,,,1080.1066,1081.9063,1081.9063,1082.3653,return,0.3294,,83.07291667,,,,,,FBP-PT-81.png,0.37,1.2,52,1,,,,,,,,,,,,,,,,,,0,23,23,51,1,,,,,,,,,,,,,,,,,,,,,,,
,,,,,WIN24_054,23,Female,2024-02-12_13h06.52.792,jersey_experiment_5,2023.2.2,Win32,84.74576271,,,,,,,,,,,,,,,,1082.3655,1084.1653,1084.1653,1084.6829,return,0.1039,,83.72395833,,,,,,FBP-OG-17.png,0.4,1.2,3,1,,,,,,,,,,,,,,,,,,0,24,24,2,1,,,,,,,,,,,,,,,,,,,,,,,
,,,,,WIN24_054,23,Female,2024-02-12_13h06.52.792,jersey_experiment_5,2023.2.2,Win32,84.74576271,,,,,,,,,,,,,,,,1084.6832,1085.977,1085.977,1086.4713,return,0.1218,,84.50520833,,,,,,FBP-RB-91.png,0.43,1.2,29,0.5,,,,,,,,,,,,,,,,,,0,25,25,28,1,,,,,,,,,,,,,,,,,,,,,,,
,,,,,WIN24_054,23,Female,2024-02-12_13h06.52.792,jersey_experiment_5,2023.2.2,Win32,84.74576271,,,,,,,,,,,,,,,,1086.4714,1087.7655,1087.7655,1088.3304,return,0.1519,,84.50520833,,,,,,FBP-RB-81.png,0.45,1.2,25,0.5,,,,,,,,,,,,,,,,,,0,26,26,24,1,,,,,,,,,,,,,,,,,,,,,,,
,,,,,WIN24_054,23,Female,2024-02-12_13h06.52.792,jersey_experiment_5,2023.2.2,Win32,84.74576271,,,,,,,,,,,,,,,,1088.3306,1089.6244,1089.6245,1090.6126,return,0.077,,25.13020833,,,,,,FBP-RB-81.png,0.35,1.2,21,0.5,,,,,,,,,,,,,,,,,,0,27,27,20,1,,,,,,,,,,,,,,,,,,,,,,,
,,,,,WIN24_054,23,Female,2024-02-12_13h06.52.792,jersey_experiment_5,2023.2.2,Win32,84.74576271,,,,,,,,,,,,,,,,1090.6128,1091.9069,1091.9069,1093.3186,return,0.0753,,27.47395833,,,,,,FBP-RB-81.png,0.4,1.2,23,0.5,,,,,,,,,,,,,,,,,,0,28,28,22,1,,,,,,,,,,,,,,,,,,,,,,,
,,,,,WIN24_054,23,Female,2024-02-12_13h06.52.792,jersey_experiment_5,2023.2.2,Win32,84.74576271,,,,,,,,,,,,,,,,1093.3188,1095.1188,1095.1188,1095.7304,return,0.1149,,25.65104167,,,,,,FBP-PT-71.png,0.37,1.2,47,1,,,,,,,,,,,,,,,,,,0,29,29,46,1,,,,,,,,,,,,,,,,,,,,,,,
,,,,,WIN24_054,23,Female,2024-02-12_13h06.52.792,jersey_experiment_5,2023.2.2,Win32,84.74576271,,,,,,,,,,,,,,,,1095.7307,1097.0246,1097.0246,1097.5775,return,0.1432,,26.30208333,,,,,,FBP-YG-17.png,0.45,1.2,35,0.5,,,,,,,,,,,,,,,,,,0,30,30,34,1,,,,,,,,,,,,,,,,,,,,,,,
,,,,,WIN24_054,23,Female,2024-02-12_13h06.52.792,jersey_experiment_5,2023.2.2,Win32,84.74576271,,,,,,,,,,,,,,,,1097.5777,1099.3776,1099.3776,1100.6364,return,0.1409,,91.92708333,,,,,,FBP-PT-71.png,0.45,1.2,50,1,,,,,,,,,,,,,,,,,,0,31,31,49,1,,,,,,,,,,,,,,,,,,,,,,,
,,,,,WIN24_054,23,Female,2024-02-12_13h06.52.792,jersey_experiment_5,2023.2.2,Win32,84.74576271,,,,,,,,,,,,,,,,1100.6367,1102.4366,1102.4366,1103.013,return,0.1241,,94.27083333,,,,,,FBP-OG-18.png,0.45,1.2,10,1,,,,,,,,,,,,,,,,,,0,32,32,9,1,,,,,,,,,,,,,,,,,,,,,,,
,,,,,WIN24_054,23,Female,2024-02-12_13h06.52.792,jersey_experiment_5,2023.2.2,Win32,84.74576271,,,,,,,,,,,,,,,,1103.0134,1104.3073,1104.3073,1105.4132,return,0.1005,,28.125,,,,,,FBP-YG-18.png,0.4,1.2,38,0.5,,,,,,,,,,,,,,,,,,0,33,33,37,1,,,,,,,,,,,,,,,,,,,,,,,
,,,,,WIN24_054,23,Female,2024-02-12_13h06.52.792,jersey_experiment_5,2023.2.2,Win32,84.74576271,,,,,,,,,,,,,,,,1105.4134,1107.2135,1107.2135,1107.6134,return,0.1409,,89.0625,,,,,,FBP-OG-18.png,0.43,1.2,9,1,,,,,,,,,,,,,,,,,,0,34,34,8,1,,,,,,,,,,,,,,,,,,,,,,,
,,,,,WIN24_054,23,Female,2024-02-12_13h06.52.792,jersey_experiment_5,2023.2.2,Win32,84.74576271,,,,,,,,,,,,,,,,1107.6135,1108.9074,1108.9074,1109.6368,return,0.0985,,24.21875,,,,,,FBP-RB-71.png,0.37,1.2,17,0.5,,,,,,,,,,,,,,,,,,0,35,35,16,1,,,,,,,,,,,,,,,,,,,,,,,
,,,,,WIN24_054,23,Female,2024-02-12_13h06.52.792,jersey_experiment_5,2023.2.2,Win32,84.74576271,,,,,,,,,,,,,,,,1109.6371,1111.4368,1111.4368,1112.2487,return,0.095,,27.47395833,,,,,,FBP-PT-91.png,0.37,1.2,57,1,,,,,,,,,,,,,,,,,,0,36,36,56,1,,,,,,,,,,,,,,,,,,,,,,,
,,,,,WIN24_054,23,Female,2024-02-12_13h06.52.792,jersey_experiment_5,2023.2.2,Win32,84.74576271,,,,,,,,,,,,,,,,1112.2489,1113.5428,1113.5428,1114.5547,return,0.1181,,72.265625,,,,,,FBP-YG-19.png,0.43,1.2,44,0.5,,,,,,,,,,,,,,,,,,0,37,37,43,1,,,,,,,,,,,,,,,,,,,,,,,
,,,,,WIN24_054,23,Female,2024-02-12_13h06.52.792,jersey_experiment_5,2023.2.2,Win32,84.74576271,,,,,,,,,,,,,,,,1114.5549,1115.8489,1115.8489,1116.5312,return,0.0432,,26.82291667,,,,,,FBP-YG-17.png,0.35,1.2,31,0.5,,,,,,,,,,,,,,,,,,0,38,38,30,1,,,,,,,,,,,,,,,,,,,,,,,
,,,,,WIN24_054,23,Female,2024-02-12_13h06.52.792,jersey_experiment_5,2023.2.2,Win32,84.74576271,,,,,,,,,,,,,,,,1116.5315,1118.3314,1118.3315,1118.8372,return,0.0648,,96.22395833,,,,,,FBP-OG-19.png,0.4,1.2,13,1,,,,,,,,,,,,,,,,,,0,39,39,12,1,,,,,,,,,,,,,,,,,,,,,,,
,,,,,WIN24_054,23,Female,2024-02-12_13h06.52.792,jersey_experiment_5,2023.2.2,Win32,84.74576271,,,,,,,,,,,,,,,,1118.8374,1120.1316,1120.1316,1120.8256,return,0.0958,,83.984375,,,,,,FBP-YG-19.png,0.45,1.2,45,0.5,,,,,,,,,,,,,,,,,,0,40,40,44,1,,,,,,,,,,,,,,,,,,,,,,,
,,,,,WIN24_054,23,Female,2024-02-12_13h06.52.792,jersey_experiment_5,2023.2.2,Win32,84.74576271,,,,,,,,,,,,,,,,1120.8258,1122.6258,1122.6259,1123.3079,return,0.0849,,90.234375,,,,,,FBP-OG-18.png,0.4,1.2,8,1,,,,,,,,,,,,,,,,,,0,41,41,7,1,,,,,,,,,,,,,,,,,,,,,,,
,,,,,WIN24_054,23,Female,2024-02-12_13h06.52.792,jersey_experiment_5,2023.2.2,Win32,84.74576271,,,,,,,,,,,,,,,,1123.3081,1125.108,1125.108,1125.8374,return,0.316,,83.72395833,,,,,,FBP-OG-17.png,0.35,1.2,1,1,,,,,,,,,,,,,,,,,,0,42,42,0,1,,,,,,,,,,,,,,,,,,,,,,,
,,,,,WIN24_054,23,Female,2024-02-12_13h06.52.792,jersey_experiment_5,2023.2.2,Win32,84.74576271,,,,,,,,,,,,,,,,1125.8376,1127.1317,1127.1318,1127.8376,return,0.1418,,30.59895833,,,,,,FBP-YG-19.png,0.35,1.2,41,0.5,,,,,,,,,,,,,,,,,,0,43,43,40,1,,,,,,,,,,,,,,,,,,,,,,,
,,,,,WIN24_054,23,Female,2024-02-12_13h06.52.792,jersey_experiment_5,2023.2.2,Win32,84.74576271,,,,,,,,,,,,,,,,1127.8378,1129.1318,1129.1318,1130.026,return,0.0955,,82.421875,,,,,,FBP-RB-71.png,0.4,1.2,18,0.5,,,,,,,,,,,,,,,,,,0,44,44,17,1,,,,,,,,,,,,,,,,,,,,,,,
,,,,,WIN24_054,23,Female,2024-02-12_13h06.52.792,jersey_experiment_5,2023.2.2,Win32,84.74576271,,,,,,,,,,,,,,,,1130.0263,1131.3198,1131.3199,1132.12,return,0.0835,,81.640625,,,,,,FBP-RB-81.png,0.43,1.2,24,0.5,,,,,,,,,,,,,,,,,,0,45,45,23,1,,,,,,,,,,,,,,,,,,,,,,,
,,,,,WIN24_054,23,Female,2024-02-12_13h06.52.792,jersey_experiment_5,2023.2.2,Win32,84.74576271,,,,,,,,,,,,,,,,1132.1202,1133.4142,1133.4142,1135.3789,return,0.147,,98.95833333,,,,,,FBP-RB-71.png,0.45,1.2,20,0.5,,,,,,,,,,,,,,,,,,0,46,46,19,1,,,,,,,,,,,,,,,,,,,,,,,
,,,,,WIN24_054,23,Female,2024-02-12_13h06.52.792,jersey_experiment_5,2023.2.2,Win32,84.74576271,,,,,,,,,,,,,,,,1135.3791,1136.6731,1136.6731,1137.5909,return,0.1663,,99.73958333,,,,,,FBP-RB-91.png,0.4,1.2,28,0.5,,,,,,,,,,,,,,,,,,0,47,47,27,1,,,,,,,,,,,,,,,,,,,,,,,
,,,,,WIN24_054,23,Female,2024-02-12_13h06.52.792,jersey_experiment_5,2023.2.2,Win32,84.74576271,,,,,,,,,,,,,,,,1137.5911,1139.391,1139.391,1140.6617,return,0.1567,,32.8125,,,,,,FBP-OG-17.png,0.37,1.2,2,1,,,,,,,,,,,,,,,,,,0,48,48,1,1,,,,,,,,,,,,,,,,,,,,,,,
,,,,,WIN24_054,23,Female,2024-02-12_13h06.52.792,jersey_experiment_5,2023.2.2,Win32,84.74576271,,,,,,,,,,,,,,,,1140.6619,1142.4618,1142.4618,1143.038,return,0.1514,,38.93229167,,,,,,FBP-PT-81.png,0.35,1.2,51,1,,,,,,,,,,,,,,,,,,0,49,49,50,1,,,,,,,,,,,,,,,,,,,,,,,
,,,,,WIN24_054,23,Female,2024-02-12_13h06.52.792,jersey_experiment_5,2023.2.2,Win32,84.74576271,,,,,,,,,,,,,,,,1143.0383,1144.8382,1144.8382,1145.3793,return,0.1847,,95.57291667,,,,,,FBP-PT-81.png,0.43,1.2,54,1,,,,,,,,,,,,,,,,,,0,50,50,53,1,,,,,,,,,,,,,,,,,,,,,,,
,,,,,WIN24_054,23,Female,2024-02-12_13h06.52.792,jersey_experiment_5,2023.2.2,Win32,84.74576271,,,,,,,,,,,,,,,,1145.3795,1146.6735,1146.6735,1148.8382,return,0.1815,,38.80208333,,,,,,FBP-RB-71.png,0.35,1.2,16,0.5,,,,,,,,,,,,,,,,,,0,51,51,15,1,,,,,,,,,,,,,,,,,,,,,,,
,,,,,WIN24_054,23,Female,2024-02-12_13h06.52.792,jersey_experiment_5,2023.2.2,Win32,84.74576271,,,,,,,,,,,,,,,,1148.8385,1150.6383,1150.6383,1151.1444,return,0.1563,,30.20833333,,,,,,FBP-OG-18.png,0.37,1.2,7,1,,,,,,,,,,,,,,,,,,0,52,52,6,1,,,,,,,,,,,,,,,,,,,,,,,
,,,,,WIN24_054,23,Female,2024-02-12_13h06.52.792,jersey_experiment_5,2023.2.2,Win32,84.74576271,,,,,,,,,,,,,,,,1151.1445,1152.9443,1152.9443,1154.1562,return,0.1419,,89.97395833,,,,,,FBP-OG-17.png,0.43,1.2,4,1,,,,,,,,,,,,,,,,,,0,53,53,3,1,,,,,,,,,,,,,,,,,,,,,,,
,,,,,WIN24_054,23,Female,2024-02-12_13h06.52.792,jersey_experiment_5,2023.2.2,Win32,84.74576271,,,,,,,,,,,,,,,,1154.1565,1155.9562,1155.9562,1156.4032,return,0.1594,,31.640625,,,,,,FBP-PT-71.png,0.35,1.2,46,1,,,,,,,,,,,,,,,,,,0,54,54,45,1,,,,,,,,,,,,,,,,,,,,,,,
,,,,,WIN24_054,23,Female,2024-02-12_13h06.52.792,jersey_experiment_5,2023.2.2,Win32,84.74576271,,,,,,,,,,,,,,,,1156.4033,1157.6973,1157.6974,1158.2268,return,0.1005,,32.421875,,,,,,FBP-YG-17.png,0.37,1.2,32,0.5,,,,,,,,,,,,,,,,,,0,55,55,31,1,,,,,,,,,,,,,,,,,,,,,,,
,,,,,WIN24_054,23,Female,2024-02-12_13h06.52.792,jersey_experiment_5,2023.2.2,Win32,84.74576271,,,,,,,,,,,,,,,,1158.227,1159.521,1159.521,1160.0034,return,0.0876,,32.68229167,,,,,,FBP-YG-19.png,0.37,1.2,42,0.5,,,,,,,,,,,,,,,,,,0,56,56,41,1,,,,,,,,,,,,,,,,,,,,,,,
,,,,,WIN24_054,23,Female,2024-02-12_13h06.52.792,jersey_experiment_5,2023.2.2,Win32,84.74576271,,,,,,,,,,,,,,,,1160.0036,1161.2975,1161.2975,1162.2504,return,0.2354,,91.53645833,,,,,,FBP-RB-91.png,0.45,1.2,30,0.5,,,,,,,,,,,,,,,,,,0,57,57,29,1,,,,,,,,,,,,,,,,,,,,,,,
,,,,,WIN24_054,23,Female,2024-02-12_13h06.52.792,jersey_experiment_5,2023.2.2,Win32,84.74576271,,,,,,,,,,,,,,,,1162.2507,1164.0507,1164.0507,1164.6625,return,0.1555,,27.34375,,,,,,FBP-OG-19.png,0.37,1.2,12,1,,,,,,,,,,,,,,,,,,0,58,58,11,1,,,,,,,,,,,,,,,,,,,,,,,
,,,,,WIN24_054,23,Female,2024-02-12_13h06.52.792,jersey_experiment_5,2023.2.2,Win32,84.74576271,,,,,,,,,,,,,,,,1164.6627,1166.4626,1166.4627,1167.1095,return,0.1706,,93.09895833,,,,,,FBP-PT-91.png,0.43,1.2,59,1,,,,,,,,,,,,,,,,,,0,59,59,58,1,,,,,,,,,,,,,,,,,,,,,,,
,,,,,WIN24_054,23,Female,2024-02-12_13h06.52.792,jersey_experiment_5,2023.2.2,Win32,84.74576271,,,,,,,,,,,,,,,,,,,,,,,,,,,,,,,,,,,,,,,,,,,,,,,,,,,,,,,,1167.1098,1172.5336,return,5.4159,,,,,,,,,,,,,,,,,,,
,,,,,WIN24_054,23,Female,2024-02-12_13h06.52.792,jersey_experiment_5,2023.2.2,Win32,84.74576271,,,,,,,,,,,,,,,,,,,,,,,,,,,,,,,,,,,,,,,,,,,,,,,,,,,,,,,,,,,,,1172.5337,1177.4159,1,4.5201,return,0.3422,,,,,,,,,,,,
,,,,,WIN24_054,23,Female,2024-02-12_13h06.52.792,jersey_experiment_5,2023.2.2,Win32,84.74576271,,,,,,,,,,,,,,,,,,,,,,,,,,,,,,,,,,,,,,,,,,,,,,,,,,,,,,,,,,,,,,,,,,,,1177.416,1240.8633,basically I think this exepriment would test on how we visually perceive and to what extent we can recognize things by just looking at the items.,right,56.8144,,,,,,
,,,,,WIN24_054,23,Female,2024-02-12_13h06.52.792,jersey_experiment_5,2023.2.2,Win32,84.74576271,,,,,,,,,,,,,,,,,,,,,,,,,,,,,,,,,,,,,,,,,,,,,,,,,,,,,,,,,,,,,,,,,,,,,,,,,,1240.8634,1243.5983,return,2.7298,