requirements.started,requirements.stopped,key_resp_3.keys,key_resp_3.rt,key_resp_3.duration,Subject ID,Age,Gender,date,expName,psychopyVersion,OS,frameRate,instructions1.started,instructions1.stopped,key_resp.keys,key_resp.rt,key_resp.duration,example.started,example.stopped,enter_2.keys,enter_2.rt,enter_2.duration,instructions2.started,instructions2.stopped,enter_3.keys,enter_3.rt,enter_3.duration,image.started,image.stopped,slider_2.started,slider_2.stopped,next.keys,next.rt,next.duration,slider.response,trial_block_1.thisRepN,trial_block_1.thisTrialN,trial_block_1.thisN,trial_block_1.thisIndex,trial_block_1.ran,Path,Width,Height,Index,Duration,trial_block_2.thisRepN,trial_block_2.thisTrialN,trial_block_2.thisN,trial_block_2.thisIndex,trial_block_2.ran,rest_break.started,rest_break.stopped,end_break.started,end_break.stopped,key_resp_5.keys,key_resp_5.rt,key_resp_5.duration,trial_block_3.thisRepN,trial_block_3.thisTrialN,trial_block_3.thisN,trial_block_3.thisIndex,trial_block_3.ran,trial_block_4.thisRepN,trial_block_4.thisTrialN,trial_block_4.thisN,trial_block_4.thisIndex,trial_block_4.ran,questions_intro.started,questions_intro.stopped,enter_12.keys,enter_12.rt,enter_12.duration,question2.started,question2.stopped,question_doingbest.response,question_doingbest.rt,enter_15.keys,enter_15.rt,enter_15.duration,pattern.started,pattern.stopped,pattern_2.text,enter_17.keys,enter_17.rt,enter_17.duration,thankyou.started,thankyou.stopped,enter_14.keys,enter_14.rt,enter_14.duration
0.0001,11.8467,return,11.8413,,WIN24_043,22,Female,2024-02-08_14h29.43.155,jersey_experiment_5,2023.2.2,Win32,84.74576271,,,,,,,,,,,,,,,,,,,,,,,,,,,,,,,,,,,,,,,,,,,,,,,,,,,,,,,,,,,,,,,,,,,,,,,,,,,,,,
,,,,,WIN24_043,22,Female,2024-02-08_14h29.43.155,jersey_experiment_5,2023.2.2,Win32,84.74576271,11.8469,23.5916,return,11.7365,,,,,,,,,,,,,,,,,,,,,,,,,,,,,,,,,,,,,,,,,,,,,,,,,,,,,,,,,,,,,,,,,,,,,,,,,,
,,,,,WIN24_043,22,Female,2024-02-08_14h29.43.155,jersey_experiment_5,2023.2.2,Win32,84.74576271,,,,,,23.5917,28.8627,return,5.2321,,,,,,,,,,,,,,,,,,,,,,,,,,,,,,,,,,,,,,,,,,,,,,,,,,,,,,,,,,,,,,,,,,,,,
,,,,,WIN24_043,22,Female,2024-02-08_14h29.43.155,jersey_experiment_5,2023.2.2,Win32,84.74576271,,,,,,,,,,,28.8628,67.0052,return,38.1318,,,,,,,,,,,,,,,,,,,,,,,,,,,,,,,,,,,,,,,,,,,,,,,,,,,,,,,,,,,,,,,,
,,,,,WIN24_043,22,Female,2024-02-08_14h29.43.155,jersey_experiment_5,2023.2.2,Win32,84.74576271,,,,,,,,,,,,,,,,67.0127,68.311,68.3111,96.1121,return,20.3537,,40.234375,0,0,0,57,1,FBP-PT-19.png,0.4,1.2,58,0.5,,,,,,,,,,,,,,,,,,,,,,,,,,,,,,,,,,,,,,,,,,,,,
,,,,,WIN24_043,22,Female,2024-02-08_14h29.43.155,jersey_experiment_5,2023.2.2,Win32,84.74576271,,,,,,,,,,,,,,,,96.1166,97.4177,97.4178,105.5827,return,3.9772,,64.32291667,0,1,1,48,1,FBP-PT-17.png,0.43,1.2,49,0.5,,,,,,,,,,,,,,,,,,,,,,,,,,,,,,,,,,,,,,,,,,,,,
,,,,,WIN24_043,22,Female,2024-02-08_14h29.43.155,jersey_experiment_5,2023.2.2,Win32,84.74576271,,,,,,,,,,,,,,,,105.5874,106.8886,106.8886,111.324,return,1.5688,,58.46354167,0,2,2,7,1,FBP-OG-81.png,0.4,1.2,8,0.5,,,,,,,,,,,,,,,,,,,,,,,,,,,,,,,,,,,,,,,,,,,,,
,,,,,WIN24_043,22,Female,2024-02-08_14h29.43.155,jersey_experiment_5,2023.2.2,Win32,84.74576271,,,,,,,,,,,,,,,,111.3243,113.124,113.1241,118.6066,return,2.4009,,74.73958333,0,3,3,43,1,FBP-YG-91.png,0.43,1.2,44,1,,,,,,,,,,,,,,,,,,,,,,,,,,,,,,,,,,,,,,,,,,,,,
,,,,,WIN24_043,22,Female,2024-02-08_14h29.43.155,jersey_experiment_5,2023.2.2,Win32,84.74576271,,,,,,,,,,,,,,,,118.6112,119.9126,119.9126,124.1245,return,2.0251,,75.13020833,0,4,4,14,1,FBP-OG-91.png,0.45,1.2,15,0.5,,,,,,,,,,,,,,,,,,,,,,,,,,,,,,,,,,,,,,,,,,,,,
,,,,,WIN24_043,22,Female,2024-02-08_14h29.43.155,jersey_experiment_5,2023.2.2,Win32,84.74576271,,,,,,,,,,,,,,,,124.1248,125.9246,125.9246,132.3954,return,2.8284,,38.671875,0,5,5,32,1,FBP-YG-71.png,0.4,1.2,33,1,,,,,,,,,,,,,,,,,,,,,,,,,,,,,,,,,,,,,,,,,,,,,
,,,,,WIN24_043,22,Female,2024-02-08_14h29.43.155,jersey_experiment_5,2023.2.2,Win32,84.74576271,,,,,,,,,,,,,,,,132.3999,133.7013,133.7013,138.1133,return,1.8354,,66.27604167,0,6,6,58,1,FBP-PT-19.png,0.43,1.2,59,0.5,,,,,,,,,,,,,,,,,,,,,,,,,,,,,,,,,,,,,,,,,,,,,
,,,,,WIN24_043,22,Female,2024-02-08_14h29.43.155,jersey_experiment_5,2023.2.2,Win32,84.74576271,,,,,,,,,,,,,,,,138.1135,139.9133,139.9133,145.49,return,2.5414,,28.77604167,0,7,7,41,1,FBP-YG-91.png,0.37,1.2,42,1,,,,,,,,,,,,,,,,,,,,,,,,,,,,,,,,,,,,,,,,,,,,,
,,,,,WIN24_043,22,Female,2024-02-08_14h29.43.155,jersey_experiment_5,2023.2.2,Win32,84.74576271,,,,,,,,,,,,,,,,145.4901,146.7841,146.7842,151.1019,return,2.4261,,23.30729167,0,8,8,56,1,FBP-PT-19.png,0.37,1.2,57,0.5,,,,,,,,,,,,,,,,,,,,,,,,,,,,,,,,,,,,,,,,,,,,,
,,,,,WIN24_043,22,Female,2024-02-08_14h29.43.155,jersey_experiment_5,2023.2.2,Win32,84.74576271,,,,,,,,,,,,,,,,151.1021,152.396,152.396,157.208,return,2.9611,,9.375,0,9,9,55,1,FBP-PT-19.png,0.35,1.2,56,0.5,,,,,,,,,,,,,,,,,,,,,,,,,,,,,,,,,,,,,,,,,,,,,
,,,,,WIN24_043,22,Female,2024-02-08_14h29.43.155,jersey_experiment_5,2023.2.2,Win32,84.74576271,,,,,,,,,,,,,,,,157.2082,159.0081,159.0081,164.6317,return,4.2308,,89.84375,0,10,10,19,1,FBP-RB-17.png,0.45,1.2,20,1,,,,,,,,,,,,,,,,,,,,,,,,,,,,,,,,,,,,,,,,,,,,,
,,,,,WIN24_043,22,Female,2024-02-08_14h29.43.155,jersey_experiment_5,2023.2.2,Win32,84.74576271,,,,,,,,,,,,,,,,164.6361,166.4319,166.4319,173.9851,return,3.8357,,88.93229167,0,11,11,23,1,FBP-RB-18.png,0.43,1.2,24,1,,,,,,,,,,,,,,,,,,,,,,,,,,,,,,,,,,,,,,,,,,,,,
,,,,,WIN24_043,22,Female,2024-02-08_14h29.43.155,jersey_experiment_5,2023.2.2,Win32,84.74576271,,,,,,,,,,,,,,,,173.9853,175.785,175.7851,181.903,return,2.4818,,23.95833333,0,12,12,16,1,FBP-RB-17.png,0.37,1.2,17,1,,,,,,,,,,,,,,,,,,,,,,,,,,,,,,,,,,,,,,,,,,,,,
,,,,,WIN24_043,22,Female,2024-02-08_14h29.43.155,jersey_experiment_5,2023.2.2,Win32,84.74576271,,,,,,,,,,,,,,,,181.9032,183.1972,183.1972,187.962,return,2.9228,,83.07291667,0,13,13,3,1,FBP-OG-71.png,0.43,1.2,4,0.5,,,,,,,,,,,,,,,,,,,,,,,,,,,,,,,,,,,,,,,,,,,,,
,,,,,WIN24_043,22,Female,2024-02-08_14h29.43.155,jersey_experiment_5,2023.2.2,Win32,84.74576271,,,,,,,,,,,,,,,,187.9623,189.762,189.7621,196.0447,return,3.5568,,44.53125,0,14,14,37,1,FBP-YG-81.png,0.4,1.2,38,1,,,,,,,,,,,,,,,,,,,,,,,,,,,,,,,,,,,,,,,,,,,,,
,,,,,WIN24_043,22,Female,2024-02-08_14h29.43.155,jersey_experiment_5,2023.2.2,Win32,84.74576271,,,,,,,,,,,,,,,,196.0448,197.8446,197.8446,204.3627,return,3.7213,,99.86979167,0,15,15,24,1,FBP-RB-18.png,0.45,1.2,25,1,,,,,,,,,,,,,,,,,,,,,,,,,,,,,,,,,,,,,,,,,,,,,
,,,,,WIN24_043,22,Female,2024-02-08_14h29.43.155,jersey_experiment_5,2023.2.2,Win32,84.74576271,,,,,,,,,,,,,,,,204.367,206.1626,206.1626,210.704,return,1.7651,,10.02604167,0,16,16,20,1,FBP-RB-18.png,0.35,1.2,21,1,,,,,,,,,,,,,,,,,,,,,,,,,,,,,,,,,,,,,,,,,,,,,
,,,,,WIN24_043,22,Female,2024-02-08_14h29.43.155,jersey_experiment_5,2023.2.2,Win32,84.74576271,,,,,,,,,,,,,,,,210.7041,211.9982,211.9982,216.8924,return,2.1541,,25.65104167,0,17,17,46,1,FBP-PT-17.png,0.37,1.2,47,0.5,,,,,,,,,,,,,,,,,,,,,,,,,,,,,,,,,,,,,,,,,,,,,
,,,,,WIN24_043,22,Female,2024-02-08_14h29.43.155,jersey_experiment_5,2023.2.2,Win32,84.74576271,,,,,,,,,,,,,,,,216.8926,218.6925,218.6925,223.328,return,2.2254,,26.953125,0,18,18,25,1,FBP-RB-19.png,0.35,1.2,26,1,,,,,,,,,,,,,,,,,,,,,,,,,,,,,,,,,,,,,,,,,,,,,
,,,,,WIN24_043,22,Female,2024-02-08_14h29.43.155,jersey_experiment_5,2023.2.2,Win32,84.74576271,,,,,,,,,,,,,,,,223.3283,224.6221,224.6222,229.8341,return,2.3824,,99.86979167,0,19,19,4,1,FBP-OG-71.png,0.45,1.2,5,0.5,,,,,,,,,,,,,,,,,,,,,,,,,,,,,,,,,,,,,,,,,,,,,
,,,,,WIN24_043,22,Female,2024-02-08_14h29.43.155,jersey_experiment_5,2023.2.2,Win32,84.74576271,,,,,,,,,,,,,,,,229.8344,231.6342,231.6342,235.8577,return,1.2944,,23.046875,0,20,20,35,1,FBP-YG-81.png,0.35,1.2,36,1,,,,,,,,,,,,,,,,,,,,,,,,,,,,,,,,,,,,,,,,,,,,,
,,,,,WIN24_043,22,Female,2024-02-08_14h29.43.155,jersey_experiment_5,2023.2.2,Win32,84.74576271,,,,,,,,,,,,,,,,235.8579,237.1518,237.1518,242.5404,return,1.1799,,99.47916667,0,21,21,49,1,FBP-PT-17.png,0.45,1.2,50,0.5,,,,,,,,,,,,,,,,,,,,,,,,,,,,,,,,,,,,,,,,,,,,,
,,,,,WIN24_043,22,Female,2024-02-08_14h29.43.155,jersey_experiment_5,2023.2.2,Win32,84.74576271,,,,,,,,,,,,,,,,242.5406,244.3405,244.3405,248.8583,return,2.2394,,85.546875,0,22,22,18,1,FBP-RB-17.png,0.43,1.2,19,1,,,,,,,,,,,,,,,,,,,,,,,,,,,,,,,,,,,,,,,,,,,,,
,,,,,WIN24_043,22,Female,2024-02-08_14h29.43.155,jersey_experiment_5,2023.2.2,Win32,84.74576271,,,,,,,,,,,,,,,,248.8585,250.1525,250.1525,256.9763,return,3.8025,,63.41145833,0,23,23,13,1,FBP-OG-91.png,0.43,1.2,14,0.5,,,,,,,,,,,,,,,,,,,,,,,,,,,,,,,,,,,,,,,,,,,,,
,,,,,WIN24_043,22,Female,2024-02-08_14h29.43.155,jersey_experiment_5,2023.2.2,Win32,84.74576271,,,,,,,,,,,,,,,,256.9806,258.282,258.282,266.1882,return,4.85,,94.79166667,0,24,24,54,1,FBP-PT-18.png,0.45,1.2,55,0.5,,,,,,,,,,,,,,,,,,,,,,,,,,,,,,,,,,,,,,,,,,,,,
,,,,,WIN24_043,22,Female,2024-02-08_14h29.43.155,jersey_experiment_5,2023.2.2,Win32,84.74576271,,,,,,,,,,,,,,,,266.1884,267.4824,267.4824,271.9061,return,2.3397,,8.723958333,0,25,25,6,1,FBP-OG-81.png,0.37,1.2,7,0.5,,,,,,,,,,,,,,,,,,,,,,,,,,,,,,,,,,,,,,,,,,,,,
,,,,,WIN24_043,22,Female,2024-02-08_14h29.43.155,jersey_experiment_5,2023.2.2,Win32,84.74576271,,,,,,,,,,,,,,,,271.9062,273.7062,273.7062,286.9418,return,9.8005,,20.3125,0,26,26,40,1,FBP-YG-91.png,0.35,1.2,41,1,,,,,,,,,,,,,,,,,,,,,,,,,,,,,,,,,,,,,,,,,,,,,
,,,,,WIN24_043,22,Female,2024-02-08_14h29.43.155,jersey_experiment_5,2023.2.2,Win32,84.74576271,,,,,,,,,,,,,,,,286.9465,288.2479,288.2479,295.6129,return,4.4014,,61.19791667,0,27,27,2,1,FBP-OG-71.png,0.4,1.2,3,0.5,,,,,,,,,,,,,,,,,,,,,,,,,,,,,,,,,,,,,,,,,,,,,
,,,,,WIN24_043,22,Female,2024-02-08_14h29.43.155,jersey_experiment_5,2023.2.2,Win32,84.74576271,,,,,,,,,,,,,,,,295.6172,297.4129,297.4129,302.4954,return,1.4692,,30.46875,0,28,28,36,1,FBP-YG-81.png,0.37,1.2,37,1,,,,,,,,,,,,,,,,,,,,,,,,,,,,,,,,,,,,,,,,,,,,,
,,,,,WIN24_043,22,Female,2024-02-08_14h29.43.155,jersey_experiment_5,2023.2.2,Win32,84.74576271,,,,,,,,,,,,,,,,302.4956,303.7896,303.7896,307.6014,return,2.071,,99.86979167,0,29,29,9,1,FBP-OG-81.png,0.45,1.2,10,0.5,,,,,,,,,,,,,,,,,,,,,,,,,,,,,,,,,,,,,,,,,,,,,
,,,,,WIN24_043,22,Female,2024-02-08_14h29.43.155,jersey_experiment_5,2023.2.2,Win32,84.74576271,,,,,,,,,,,,,,,,307.6016,308.8956,308.8957,312.1781,return,1.0825,,0.130208333,0,30,30,45,1,FBP-PT-17.png,0.35,1.2,46,0.5,,,,,,,,,,,,,,,,,,,,,,,,,,,,,,,,,,,,,,,,,,,,,
,,,,,WIN24_043,22,Female,2024-02-08_14h29.43.155,jersey_experiment_5,2023.2.2,Win32,84.74576271,,,,,,,,,,,,,,,,312.1782,313.9782,313.9783,319.2018,return,3.6929,,99.609375,0,31,31,34,1,FBP-YG-71.png,0.45,1.2,35,1,,,,,,,,,,,,,,,,,,,,,,,,,,,,,,,,,,,,,,,,,,,,,
,,,,,WIN24_043,22,Female,2024-02-08_14h29.43.155,jersey_experiment_5,2023.2.2,Win32,84.74576271,,,,,,,,,,,,,,,,319.2062,320.5079,320.5079,324.5197,return,1.797,,69.40104167,0,32,32,53,1,FBP-PT-18.png,0.43,1.2,54,0.5,,,,,,,,,,,,,,,,,,,,,,,,,,,,,,,,,,,,,,,,,,,,,
,,,,,WIN24_043,22,Female,2024-02-08_14h29.43.155,jersey_experiment_5,2023.2.2,Win32,84.74576271,,,,,,,,,,,,,,,,324.5198,325.8139,325.8139,333.7907,return,4.92,,52.21354167,0,33,33,52,1,FBP-PT-18.png,0.4,1.2,53,0.5,,,,,,,,,,,,,,,,,,,,,,,,,,,,,,,,,,,,,,,,,,,,,
,,,,,WIN24_043,22,Female,2024-02-08_14h29.43.155,jersey_experiment_5,2023.2.2,Win32,84.74576271,,,,,,,,,,,,,,,,333.7954,335.0964,335.0964,340.7321,return,2.2509,,3.645833333,0,34,34,50,1,FBP-PT-18.png,0.35,1.2,51,0.5,,,,,,,,,,,,,,,,,,,,,,,,,,,,,,,,,,,,,,,,,,,,,
,,,,,WIN24_043,22,Female,2024-02-08_14h29.43.155,jersey_experiment_5,2023.2.2,Win32,84.74576271,,,,,,,,,,,,,,,,340.7323,342.5321,342.5321,347.8853,return,1.3088,,26.30208333,0,35,35,31,1,FBP-YG-71.png,0.37,1.2,32,1,,,,,,,,,,,,,,,,,,,,,,,,,,,,,,,,,,,,,,,,,,,,,
,,,,,WIN24_043,22,Female,2024-02-08_14h29.43.155,jersey_experiment_5,2023.2.2,Win32,84.74576271,,,,,,,,,,,,,,,,347.8856,349.6852,349.6853,356.2032,return,2.3208,,26.69270833,0,36,36,30,1,FBP-YG-71.png,0.35,1.2,31,1,,,,,,,,,,,,,,,,,,,,,,,,,,,,,,,,,,,,,,,,,,,,,
,,,,,WIN24_043,22,Female,2024-02-08_14h29.43.155,jersey_experiment_5,2023.2.2,Win32,84.74576271,,,,,,,,,,,,,,,,356.2034,358.0033,358.0033,361.3563,return,1.0251,,74.609375,0,37,37,22,1,FBP-RB-18.png,0.4,1.2,23,1,,,,,,,,,,,,,,,,,,,,,,,,,,,,,,,,,,,,,,,,,,,,,
,,,,,WIN24_043,22,Female,2024-02-08_14h29.43.155,jersey_experiment_5,2023.2.2,Win32,84.74576271,,,,,,,,,,,,,,,,361.3565,363.1565,363.1565,368.4153,return,2.034,,75.13020833,0,38,38,28,1,FBP-RB-19.png,0.43,1.2,29,1,,,,,,,,,,,,,,,,,,,,,,,,,,,,,,,,,,,,,,,,,,,,,
,,,,,WIN24_043,22,Female,2024-02-08_14h29.43.155,jersey_experiment_5,2023.2.2,Win32,84.74576271,,,,,,,,,,,,,,,,368.4156,370.2155,370.2155,375.345,return,2.2117,,30.59895833,0,39,39,15,1,FBP-RB-17.png,0.35,1.2,16,1,,,,,,,,,,,,,,,,,,,,,,,,,,,,,,,,,,,,,,,,,,,,,
,,,,,WIN24_043,22,Female,2024-02-08_14h29.43.155,jersey_experiment_5,2023.2.2,Win32,84.74576271,,,,,,,,,,,,,,,,375.3452,377.1451,377.1451,385.5688,return,4.7868,,75.91145833,0,40,40,17,1,FBP-RB-17.png,0.4,1.2,18,1,,,,,,,,,,,,,,,,,,,,,,,,,,,,,,,,,,,,,,,,,,,,,
,,,,,WIN24_043,22,Female,2024-02-08_14h29.43.155,jersey_experiment_5,2023.2.2,Win32,84.74576271,,,,,,,,,,,,,,,,385.5734,387.3689,387.3689,391.228,return,1.8511,,82.8125,0,41,41,44,1,FBP-YG-91.png,0.45,1.2,45,1,,,,,,,,,,,,,,,,,,,,,,,,,,,,,,,,,,,,,,,,,,,,,
,,,,,WIN24_043,22,Female,2024-02-08_14h29.43.155,jersey_experiment_5,2023.2.2,Win32,84.74576271,,,,,,,,,,,,,,,,391.2282,393.028,393.0281,395.4046,return,1.2501,,71.09375,0,42,42,42,1,FBP-YG-91.png,0.4,1.2,43,1,,,,,,,,,,,,,,,,,,,,,,,,,,,,,,,,,,,,,,,,,,,,,
,,,,,WIN24_043,22,Female,2024-02-08_14h29.43.155,jersey_experiment_5,2023.2.2,Win32,84.74576271,,,,,,,,,,,,,,,,395.4047,396.6987,396.6987,401.0401,return,2.3679,,100,0,43,43,59,1,FBP-PT-19.png,0.45,1.2,60,0.5,,,,,,,,,,,,,,,,,,,,,,,,,,,,,,,,,,,,,,,,,,,,,
,,,,,WIN24_043,22,Female,2024-02-08_14h29.43.155,jersey_experiment_5,2023.2.2,Win32,84.74576271,,,,,,,,,,,,,,,,401.0403,402.84,402.84,412.7463,return,7.8039,,100,0,44,44,33,1,FBP-YG-71.png,0.43,1.2,34,1,,,,,,,,,,,,,,,,,,,,,,,,,,,,,,,,,,,,,,,,,,,,,
,,,,,WIN24_043,22,Female,2024-02-08_14h29.43.155,jersey_experiment_5,2023.2.2,Win32,84.74576271,,,,,,,,,,,,,,,,412.7517,414.5467,414.5467,416.8406,return,1.2885,,86.19791667,0,45,45,29,1,FBP-RB-19.png,0.45,1.2,30,1,,,,,,,,,,,,,,,,,,,,,,,,,,,,,,,,,,,,,,,,,,,,,
,,,,,WIN24_043,22,Female,2024-02-08_14h29.43.155,jersey_experiment_5,2023.2.2,Win32,84.74576271,,,,,,,,,,,,,,,,416.8408,418.6408,418.6408,422.5232,return,2.4736,,24.609375,0,46,46,26,1,FBP-RB-19.png,0.37,1.2,27,1,,,,,,,,,,,,,,,,,,,,,,,,,,,,,,,,,,,,,,,,,,,,,
,,,,,WIN24_043,22,Female,2024-02-08_14h29.43.155,jersey_experiment_5,2023.2.2,Win32,84.74576271,,,,,,,,,,,,,,,,422.5235,423.8174,423.8174,428.0293,return,2.0851,,51.5625,0,47,47,12,1,FBP-OG-91.png,0.4,1.2,13,0.5,,,,,,,,,,,,,,,,,,,,,,,,,,,,,,,,,,,,,,,,,,,,,
,,,,,WIN24_043,22,Female,2024-02-08_14h29.43.155,jersey_experiment_5,2023.2.2,Win32,84.74576271,,,,,,,,,,,,,,,,428.0294,429.3234,429.3234,433.3236,return,1.6973,,21.875,0,48,48,5,1,FBP-OG-81.png,0.35,1.2,6,0.5,,,,,,,,,,,,,,,,,,,,,,,,,,,,,,,,,,,,,,,,,,,,,
,,,,,WIN24_043,22,Female,2024-02-08_14h29.43.155,jersey_experiment_5,2023.2.2,Win32,84.74576271,,,,,,,,,,,,,,,,433.3239,435.1236,435.1237,438.2649,return,1.1952,,53.125,0,49,49,21,1,FBP-RB-18.png,0.37,1.2,22,1,,,,,,,,,,,,,,,,,,,,,,,,,,,,,,,,,,,,,,,,,,,,,
,,,,,WIN24_043,22,Female,2024-02-08_14h29.43.155,jersey_experiment_5,2023.2.2,Win32,84.74576271,,,,,,,,,,,,,,,,438.2651,439.5592,439.5592,443.0181,return,1.557,,42.44791667,0,50,50,10,1,FBP-OG-91.png,0.35,1.2,11,0.5,,,,,,,,,,,,,,,,,,,,,,,,,,,,,,,,,,,,,,,,,,,,,
,,,,,WIN24_043,22,Female,2024-02-08_14h29.43.155,jersey_experiment_5,2023.2.2,Win32,84.74576271,,,,,,,,,,,,,,,,443.0183,444.3122,444.3123,448.5123,return,1.4355,,50,0,51,51,51,1,FBP-PT-18.png,0.37,1.2,52,0.5,,,,,,,,,,,,,,,,,,,,,,,,,,,,,,,,,,,,,,,,,,,,,
,,,,,WIN24_043,22,Female,2024-02-08_14h29.43.155,jersey_experiment_5,2023.2.2,Win32,84.74576271,,,,,,,,,,,,,,,,448.5126,450.3124,450.3124,455.5478,return,1.3922,,79.296875,0,52,52,39,1,FBP-YG-81.png,0.45,1.2,40,1,,,,,,,,,,,,,,,,,,,,,,,,,,,,,,,,,,,,,,,,,,,,,
,,,,,WIN24_043,22,Female,2024-02-08_14h29.43.155,jersey_experiment_5,2023.2.2,Win32,84.74576271,,,,,,,,,,,,,,,,455.5481,456.842,456.8421,463.6069,return,0.7969,,27.47395833,0,53,53,11,1,FBP-OG-91.png,0.37,1.2,12,0.5,,,,,,,,,,,,,,,,,,,,,,,,,,,,,,,,,,,,,,,,,,,,,
,,,,,WIN24_043,22,Female,2024-02-08_14h29.43.155,jersey_experiment_5,2023.2.2,Win32,84.74576271,,,,,,,,,,,,,,,,463.6071,464.9012,464.9012,468.3131,return,1.1952,,75.26041667,0,54,54,8,1,FBP-OG-81.png,0.43,1.2,9,0.5,,,,,,,,,,,,,,,,,,,,,,,,,,,,,,,,,,,,,,,,,,,,,
,,,,,WIN24_043,22,Female,2024-02-08_14h29.43.155,jersey_experiment_5,2023.2.2,Win32,84.74576271,,,,,,,,,,,,,,,,468.3135,470.1132,470.1132,472.9367,return,1.3251,,75.390625,0,55,55,27,1,FBP-RB-19.png,0.4,1.2,28,1,,,,,,,,,,,,,,,,,,,,,,,,,,,,,,,,,,,,,,,,,,,,,
,,,,,WIN24_043,22,Female,2024-02-08_14h29.43.155,jersey_experiment_5,2023.2.2,Win32,84.74576271,,,,,,,,,,,,,,,,472.9368,474.7369,474.7369,477.6311,return,1.3649,,81.11979167,0,56,56,38,1,FBP-YG-81.png,0.43,1.2,39,1,,,,,,,,,,,,,,,,,,,,,,,,,,,,,,,,,,,,,,,,,,,,,
,,,,,WIN24_043,22,Female,2024-02-08_14h29.43.155,jersey_experiment_5,2023.2.2,Win32,84.74576271,,,,,,,,,,,,,,,,477.6314,478.9252,478.9253,486.3608,return,3.2897,,75.26041667,0,57,57,47,1,FBP-PT-17.png,0.4,1.2,48,0.5,,,,,,,,,,,,,,,,,,,,,,,,,,,,,,,,,,,,,,,,,,,,,
,,,,,WIN24_043,22,Female,2024-02-08_14h29.43.155,jersey_experiment_5,2023.2.2,Win32,84.74576271,,,,,,,,,,,,,,,,486.361,487.655,487.655,491.9962,return,2.319,,22.91666667,0,58,58,0,1,FBP-OG-71.png,0.35,1.2,1,0.5,,,,,,,,,,,,,,,,,,,,,,,,,,,,,,,,,,,,,,,,,,,,,
,,,,,WIN24_043,22,Female,2024-02-08_14h29.43.155,jersey_experiment_5,2023.2.2,Win32,84.74576271,,,,,,,,,,,,,,,,491.9963,493.2904,493.2904,496.0434,return,0.5692,,45.703125,0,59,59,1,1,FBP-OG-71.png,0.37,1.2,2,0.5,,,,,,,,,,,,,,,,,,,,,,,,,,,,,,,,,,,,,,,,,,,,,
,,,,,WIN24_043,22,Female,2024-02-08_14h29.43.155,jersey_experiment_5,2023.2.2,Win32,84.74576271,,,,,,,,,,,,,,,,496.046,497.3376,497.3376,500.5847,return,1.301,,71.484375,,,,,,FBP-PT-71.png,0.4,1.2,48,0.5,0,0,0,47,1,,,,,,,,,,,,,,,,,,,,,,,,,,,,,,,,,,,,,,,,
,,,,,WIN24_043,22,Female,2024-02-08_14h29.43.155,jersey_experiment_5,2023.2.2,Win32,84.74576271,,,,,,,,,,,,,,,,500.5851,501.8789,501.8789,506.1144,return,0.9177,,22.65625,,,,,,FBP-PT-71.png,0.37,1.2,47,0.5,0,1,1,46,1,,,,,,,,,,,,,,,,,,,,,,,,,,,,,,,,,,,,,,,,
,,,,,WIN24_043,22,Female,2024-02-08_14h29.43.155,jersey_experiment_5,2023.2.2,Win32,84.74576271,,,,,,,,,,,,,,,,506.1146,507.4085,507.4085,511.4792,return,1.4205,,8.59375,,,,,,FBP-PT-81.png,0.35,1.2,51,0.5,0,2,2,50,1,,,,,,,,,,,,,,,,,,,,,,,,,,,,,,,,,,,,,,,,
,,,,,WIN24_043,22,Female,2024-02-08_14h29.43.155,jersey_experiment_5,2023.2.2,Win32,84.74576271,,,,,,,,,,,,,,,,511.4793,513.2795,513.2795,519.7855,return,5.0754,,77.99479167,,,,,,FBP-RB-71.png,0.4,1.2,18,1,0,3,3,17,1,,,,,,,,,,,,,,,,,,,,,,,,,,,,,,,,,,,,,,,,
,,,,,WIN24_043,22,Female,2024-02-08_14h29.43.155,jersey_experiment_5,2023.2.2,Win32,84.74576271,,,,,,,,,,,,,,,,519.79,521.5856,521.5856,527.1975,return,4.4022,,76.69270833,,,,,,FBP-YG-18.png,0.4,1.2,38,1,0,4,4,37,1,,,,,,,,,,,,,,,,,,,,,,,,,,,,,,,,,,,,,,,,
,,,,,WIN24_043,22,Female,2024-02-08_14h29.43.155,jersey_experiment_5,2023.2.2,Win32,84.74576271,,,,,,,,,,,,,,,,527.202,528.5035,528.5035,531.3859,return,1.1932,,93.88020833,,,,,,FBP-PT-81.png,0.45,1.2,55,0.5,0,5,5,54,1,,,,,,,,,,,,,,,,,,,,,,,,,,,,,,,,,,,,,,,,
,,,,,WIN24_043,22,Female,2024-02-08_14h29.43.155,jersey_experiment_5,2023.2.2,Win32,84.74576271,,,,,,,,,,,,,,,,531.3861,532.68,532.68,537.3038,return,0.5942,,65.234375,,,,,,FBP-PT-81.png,0.4,1.2,53,0.5,0,6,6,52,1,,,,,,,,,,,,,,,,,,,,,,,,,,,,,,,,,,,,,,,,
,,,,,WIN24_043,22,Female,2024-02-08_14h29.43.155,jersey_experiment_5,2023.2.2,Win32,84.74576271,,,,,,,,,,,,,,,,537.304,539.1038,539.1038,542.2569,return,1.4915,,94.66145833,,,,,,FBP-RB-81.png,0.45,1.2,25,1,0,7,7,24,1,,,,,,,,,,,,,,,,,,,,,,,,,,,,,,,,,,,,,,,,
,,,,,WIN24_043,22,Female,2024-02-08_14h29.43.155,jersey_experiment_5,2023.2.2,Win32,84.74576271,,,,,,,,,,,,,,,,542.2571,543.551,543.551,550.21,return,0.965,,62.109375,,,,,,FBP-OG-17.png,0.4,1.2,3,0.5,0,8,8,2,1,,,,,,,,,,,,,,,,,,,,,,,,,,,,,,,,,,,,,,,,
,,,,,WIN24_043,22,Female,2024-02-08_14h29.43.155,jersey_experiment_5,2023.2.2,Win32,84.74576271,,,,,,,,,,,,,,,,550.2103,551.5041,551.5041,556.0105,return,0.5442,,57.03125,,,,,,FBP-OG-18.png,0.4,1.2,8,0.5,0,9,9,7,1,,,,,,,,,,,,,,,,,,,,,,,,,,,,,,,,,,,,,,,,
,,,,,WIN24_043,22,Female,2024-02-08_14h29.43.155,jersey_experiment_5,2023.2.2,Win32,84.74576271,,,,,,,,,,,,,,,,556.0107,557.3045,557.3045,560.4105,return,0.6523,,11.45833333,,,,,,FBP-OG-19.png,0.35,1.2,11,0.5,0,10,10,10,1,,,,,,,,,,,,,,,,,,,,,,,,,,,,,,,,,,,,,,,,
,,,,,WIN24_043,22,Female,2024-02-08_14h29.43.155,jersey_experiment_5,2023.2.2,Win32,84.74576271,,,,,,,,,,,,,,,,560.4108,561.7046,561.7047,571.4697,return,0.8708,,62.5,,,,,,FBP-OG-19.png,0.45,1.2,15,0.5,0,11,11,14,1,,,,,,,,,,,,,,,,,,,,,,,,,,,,,,,,,,,,,,,,
,,,,,WIN24_043,22,Female,2024-02-08_14h29.43.155,jersey_experiment_5,2023.2.2,Win32,84.74576271,,,,,,,,,,,,,,,,571.4699,572.7639,572.7639,576.3522,return,1.563,,2.473958333,,,,,,FBP-OG-18.png,0.35,1.2,6,0.5,0,12,12,5,1,,,,,,,,,,,,,,,,,,,,,,,,,,,,,,,,,,,,,,,,
,,,,,WIN24_043,22,Female,2024-02-08_14h29.43.155,jersey_experiment_5,2023.2.2,Win32,84.74576271,,,,,,,,,,,,,,,,576.3524,578.1524,578.1524,581.6583,return,1.4998,,77.08333333,,,,,,FBP-YG-19.png,0.43,1.2,44,1,0,13,13,43,1,,,,,,,,,,,,,,,,,,,,,,,,,,,,,,,,,,,,,,,,
,,,,,WIN24_043,22,Female,2024-02-08_14h29.43.155,jersey_experiment_5,2023.2.2,Win32,84.74576271,,,,,,,,,,,,,,,,581.6585,582.9525,582.9525,587.6467,return,1.352,,70.57291667,,,,,,FBP-OG-18.png,0.43,1.2,9,0.5,0,14,14,8,1,,,,,,,,,,,,,,,,,,,,,,,,,,,,,,,,,,,,,,,,
,,,,,WIN24_043,22,Female,2024-02-08_14h29.43.155,jersey_experiment_5,2023.2.2,Win32,84.74576271,,,,,,,,,,,,,,,,587.6468,589.4468,589.4469,594.7646,return,2.2737,,78.125,,,,,,FBP-RB-71.png,0.43,1.2,19,1,0,15,15,18,1,,,,,,,,,,,,,,,,,,,,,,,,,,,,,,,,,,,,,,,,
,,,,,WIN24_043,22,Female,2024-02-08_14h29.43.155,jersey_experiment_5,2023.2.2,Win32,84.74576271,,,,,,,,,,,,,,,,594.7649,596.5646,596.5646,602.3648,return,1.7088,,29.81770833,,,,,,FBP-RB-91.png,0.37,1.2,27,1,0,16,16,26,1,,,,,,,,,,,,,,,,,,,,,,,,,,,,,,,,,,,,,,,,
,,,,,WIN24_043,22,Female,2024-02-08_14h29.43.155,jersey_experiment_5,2023.2.2,Win32,84.74576271,,,,,,,,,,,,,,,,602.365,604.1649,604.1649,612.8122,return,1.0505,,64.97395833,,,,,,FBP-YG-17.png,0.43,1.2,34,1,0,17,17,33,1,,,,,,,,,,,,,,,,,,,,,,,,,,,,,,,,,,,,,,,,
,,,,,WIN24_043,22,Female,2024-02-08_14h29.43.155,jersey_experiment_5,2023.2.2,Win32,84.74576271,,,,,,,,,,,,,,,,612.8124,614.1064,614.1064,618.9418,return,1.6113,,78.515625,,,,,,FBP-OG-19.png,0.43,1.2,14,0.5,0,18,18,13,1,,,,,,,,,,,,,,,,,,,,,,,,,,,,,,,,,,,,,,,,
,,,,,WIN24_043,22,Female,2024-02-08_14h29.43.155,jersey_experiment_5,2023.2.2,Win32,84.74576271,,,,,,,,,,,,,,,,618.9421,620.2359,620.236,623.9774,return,0.8171,,85.15625,,,,,,FBP-PT-71.png,0.43,1.2,49,0.5,0,19,19,48,1,,,,,,,,,,,,,,,,,,,,,,,,,,,,,,,,,,,,,,,,
,,,,,WIN24_043,22,Female,2024-02-08_14h29.43.155,jersey_experiment_5,2023.2.2,Win32,84.74576271,,,,,,,,,,,,,,,,623.9775,625.7775,625.7775,629.8363,return,0.907,,29.6875,,,,,,FBP-YG-19.png,0.37,1.2,42,1,0,20,20,41,1,,,,,,,,,,,,,,,,,,,,,,,,,,,,,,,,,,,,,,,,
,,,,,WIN24_043,22,Female,2024-02-08_14h29.43.155,jersey_experiment_5,2023.2.2,Win32,84.74576271,,,,,,,,,,,,,,,,629.8364,631.1305,631.1305,636.2955,return,0.8204,,90.36458333,,,,,,FBP-OG-18.png,0.45,1.2,10,0.5,0,21,21,9,1,,,,,,,,,,,,,,,,,,,,,,,,,,,,,,,,,,,,,,,,
,,,,,WIN24_043,22,Female,2024-02-08_14h29.43.155,jersey_experiment_5,2023.2.2,Win32,84.74576271,,,,,,,,,,,,,,,,636.2957,638.0955,638.0955,641.9191,return,1.2839,,86.71875,,,,,,FBP-YG-18.png,0.43,1.2,39,1,0,22,22,38,1,,,,,,,,,,,,,,,,,,,,,,,,,,,,,,,,,,,,,,,,
,,,,,WIN24_043,22,Female,2024-02-08_14h29.43.155,jersey_experiment_5,2023.2.2,Win32,84.74576271,,,,,,,,,,,,,,,,641.9192,643.7194,643.7195,647.7783,return,1.0962,,88.671875,,,,,,FBP-YG-17.png,0.45,1.2,35,1,0,23,23,34,1,,,,,,,,,,,,,,,,,,,,,,,,,,,,,,,,,,,,,,,,
,,,,,WIN24_043,22,Female,2024-02-08_14h29.43.155,jersey_experiment_5,2023.2.2,Win32,84.74576271,,,,,,,,,,,,,,,,647.7784,649.5783,649.5783,653.755,return,0.9342,,84.89583333,,,,,,FBP-YG-18.png,0.45,1.2,40,1,0,24,24,39,1,,,,,,,,,,,,,,,,,,,,,,,,,,,,,,,,,,,,,,,,
,,,,,WIN24_043,22,Female,2024-02-08_14h29.43.155,jersey_experiment_5,2023.2.2,Win32,84.74576271,,,,,,,,,,,,,,,,653.7551,655.0491,655.0491,677.9323,return,0.6486,,3.125,,,,,,FBP-PT-91.png,0.35,1.2,56,0.5,0,25,25,55,1,,,,,,,,,,,,,,,,,,,,,,,,,,,,,,,,,,,,,,,,
,,,,,WIN24_043,22,Female,2024-02-08_14h29.43.155,jersey_experiment_5,2023.2.2,Win32,84.74576271,,,,,,,,,,,,,,,,677.9326,679.2264,679.2264,687.3561,return,1.3902,,78.38541667,,,,,,FBP-PT-71.png,0.45,1.2,50,0.5,0,26,26,49,1,,,,,,,,,,,,,,,,,,,,,,,,,,,,,,,,,,,,,,,,
,,,,,WIN24_043,22,Female,2024-02-08_14h29.43.155,jersey_experiment_5,2023.2.2,Win32,84.74576271,,,,,,,,,,,,,,,,687.3564,688.6503,688.6503,693.1915,return,1.0083,,12.5,,,,,,FBP-PT-81.png,0.37,1.2,52,0.5,0,27,27,51,1,,,,,,,,,,,,,,,,,,,,,,,,,,,,,,,,,,,,,,,,
,,,,,WIN24_043,22,Female,2024-02-08_14h29.43.155,jersey_experiment_5,2023.2.2,Win32,84.74576271,,,,,,,,,,,,,,,,693.1918,694.4859,694.4859,698.4154,return,0.8939,,0.390625,,,,,,FBP-OG-19.png,0.37,1.2,12,0.5,0,28,28,11,1,,,,,,,,,,,,,,,,,,,,,,,,,,,,,,,,,,,,,,,,
,,,,,WIN24_043,22,Female,2024-02-08_14h29.43.155,jersey_experiment_5,2023.2.2,Win32,84.74576271,,,,,,,,,,,,,,,,698.4156,700.2154,700.2154,703.5332,return,1,,16.92708333,,,,,,FBP-YG-17.png,0.37,1.2,32,1,0,29,29,31,1,,,,,,,,,,,,,,,,,,,,,,,,,,,,,,,,,,,,,,,,
,,,,,WIN24_043,22,Female,2024-02-08_14h29.43.155,jersey_experiment_5,2023.2.2,Win32,84.74576271,,,,,,,,,,,,,,,,703.5334,705.3333,705.3333,708.3216,return,1.1199,,50,,,,,,FBP-YG-17.png,0.4,1.2,33,1,0,30,30,32,1,,,,,,,,,,,,,,,,,,,,,,,,,,,,,,,,,,,,,,,,
,,,,,WIN24_043,22,Female,2024-02-08_14h29.43.155,jersey_experiment_5,2023.2.2,Win32,84.74576271,,,,,,,,,,,,,,,,708.3218,709.6157,709.6157,712.6983,return,0.6759,,66.66666667,,,,,,FBP-OG-19.png,0.4,1.2,13,0.5,0,31,31,12,1,,,,,,,,,,,,,,,,,,,,,,,,,,,,,,,,,,,,,,,,
,,,,,WIN24_043,22,Female,2024-02-08_14h29.43.155,jersey_experiment_5,2023.2.2,Win32,84.74576271,,,,,,,,,,,,,,,,712.6984,714.4982,714.4982,717.3689,return,0.9241,,69.140625,,,,,,FBP-RB-91.png,0.4,1.2,28,1,0,32,32,27,1,,,,,,,,,,,,,,,,,,,,,,,,,,,,,,,,,,,,,,,,
,,,,,WIN24_043,22,Female,2024-02-08_14h29.43.155,jersey_experiment_5,2023.2.2,Win32,84.74576271,,,,,,,,,,,,,,,,717.3692,719.169,719.169,724.7692,return,3.6708,,37.76041667,,,,,,FBP-RB-71.png,0.35,1.2,16,1,0,33,33,15,1,,,,,,,,,,,,,,,,,,,,,,,,,,,,,,,,,,,,,,,,
,,,,,WIN24_043,22,Female,2024-02-08_14h29.43.155,jersey_experiment_5,2023.2.2,Win32,84.74576271,,,,,,,,,,,,,,,,724.7695,726.0634,726.0635,729.4399,return,1.2809,,80.859375,,,,,,FBP-OG-17.png,0.45,1.2,5,0.5,0,34,34,4,1,,,,,,,,,,,,,,,,,,,,,,,,,,,,,,,,,,,,,,,,
,,,,,WIN24_043,22,Female,2024-02-08_14h29.43.155,jersey_experiment_5,2023.2.2,Win32,84.74576271,,,,,,,,,,,,,,,,729.4402,730.7341,730.7341,734.252,return,1.2487,,43.75,,,,,,FBP-PT-91.png,0.37,1.2,57,0.5,0,35,35,56,1,,,,,,,,,,,,,,,,,,,,,,,,,,,,,,,,,,,,,,,,
,,,,,WIN24_043,22,Female,2024-02-08_14h29.43.155,jersey_experiment_5,2023.2.2,Win32,84.74576271,,,,,,,,,,,,,,,,734.2521,736.0519,736.0519,739.8874,return,0.4808,,11.58854167,,,,,,FBP-YG-19.png,0.35,1.2,41,1,0,36,36,40,1,,,,,,,,,,,,,,,,,,,,,,,,,,,,,,,,,,,,,,,,
,,,,,WIN24_043,22,Female,2024-02-08_14h29.43.155,jersey_experiment_5,2023.2.2,Win32,84.74576271,,,,,,,,,,,,,,,,739.8876,741.1815,741.1815,745.0875,return,0.9178,,76.04166667,,,,,,FBP-PT-81.png,0.43,1.2,54,0.5,0,37,37,53,1,,,,,,,,,,,,,,,,,,,,,,,,,,,,,,,,,,,,,,,,
,,,,,WIN24_043,22,Female,2024-02-08_14h29.43.155,jersey_experiment_5,2023.2.2,Win32,84.74576271,,,,,,,,,,,,,,,,745.0878,746.8879,746.8879,749.5937,return,1.3924,,96.875,,,,,,FBP-RB-71.png,0.45,1.2,20,1,0,38,38,19,1,,,,,,,,,,,,,,,,,,,,,,,,,,,,,,,,,,,,,,,,
,,,,,WIN24_043,22,Female,2024-02-08_14h29.43.155,jersey_experiment_5,2023.2.2,Win32,84.74576271,,,,,,,,,,,,,,,,749.5939,751.3936,751.3936,753.8172,return,1.0758,,42.83854167,,,,,,FBP-RB-71.png,0.37,1.2,17,1,0,39,39,16,1,,,,,,,,,,,,,,,,,,,,,,,,,,,,,,,,,,,,,,,,
,,,,,WIN24_043,22,Female,2024-02-08_14h29.43.155,jersey_experiment_5,2023.2.2,Win32,84.74576271,,,,,,,,,,,,,,,,753.8174,755.1115,755.1115,758.5234,return,1.7778,,78.64583333,,,,,,FBP-PT-91.png,0.4,1.2,58,0.5,0,40,40,57,1,,,,,,,,,,,,,,,,,,,,,,,,,,,,,,,,,,,,,,,,
,,,,,WIN24_043,22,Female,2024-02-08_14h29.43.155,jersey_experiment_5,2023.2.2,Win32,84.74576271,,,,,,,,,,,,,,,,758.5237,760.3236,760.3237,764.4883,return,1.6191,,75.13020833,,,,,,FBP-RB-81.png,0.43,1.2,24,1,0,41,41,23,1,,,,,,,,,,,,,,,,,,,,,,,,,,,,,,,,,,,,,,,,
,,,,,WIN24_043,22,Female,2024-02-08_14h29.43.155,jersey_experiment_5,2023.2.2,Win32,84.74576271,,,,,,,,,,,,,,,,764.4885,765.7825,765.7825,770.912,return,1.4257,,47.78645833,,,,,,FBP-OG-17.png,0.37,1.2,2,0.5,0,42,42,1,1,,,,,,,,,,,,,,,,,,,,,,,,,,,,,,,,,,,,,,,,
,,,,,WIN24_043,22,Female,2024-02-08_14h29.43.155,jersey_experiment_5,2023.2.2,Win32,84.74576271,,,,,,,,,,,,,,,,770.9122,772.712,772.7121,776.6887,return,0.6592,,71.74479167,,,,,,FBP-YG-19.png,0.45,1.2,45,1,0,43,43,44,1,,,,,,,,,,,,,,,,,,,,,,,,,,,,,,,,,,,,,,,,
,,,,,WIN24_043,22,Female,2024-02-08_14h29.43.155,jersey_experiment_5,2023.2.2,Win32,84.74576271,,,,,,,,,,,,,,,,776.6889,777.9829,777.9829,789.0068,return,7.9295,,71.484375,,,,,,FBP-OG-17.png,0.43,1.2,4,0.5,0,44,44,3,1,,,,,,,,,,,,,,,,,,,,,,,,,,,,,,,,,,,,,,,,
,,,,,WIN24_043,22,Female,2024-02-08_14h29.43.155,jersey_experiment_5,2023.2.2,Win32,84.74576271,,,,,,,,,,,,,,,,789.0113,790.3126,790.3126,795.4541,return,1.2709,,83.984375,,,,,,FBP-PT-91.png,0.45,1.2,60,0.5,0,45,45,59,1,,,,,,,,,,,,,,,,,,,,,,,,,,,,,,,,,,,,,,,,
,,,,,WIN24_043,22,Female,2024-02-08_14h29.43.155,jersey_experiment_5,2023.2.2,Win32,84.74576271,,,,,,,,,,,,,,,,795.4543,796.7483,796.7483,801.1602,return,0.5252,,1.953125,,,,,,FBP-OG-18.png,0.37,1.2,7,0.5,0,46,46,6,1,,,,,,,,,,,,,,,,,,,,,,,,,,,,,,,,,,,,,,,,
,,,,,WIN24_043,22,Female,2024-02-08_14h29.43.155,jersey_experiment_5,2023.2.2,Win32,84.74576271,,,,,,,,,,,,,,,,801.1604,802.9604,802.9605,823.2786,return,0.4813,,44.53125,,,,,,FBP-YG-19.png,0.4,1.2,43,1,0,47,47,42,1,,,,,,,,,,,,,,,,,,,,,,,,,,,,,,,,,,,,,,,,
,,,,,WIN24_043,22,Female,2024-02-08_14h29.43.155,jersey_experiment_5,2023.2.2,Win32,84.74576271,,,,,,,,,,,,,,,,823.2788,824.5727,824.5727,827.7141,return,0.7658,,25.52083333,,,,,,FBP-OG-17.png,0.35,1.2,1,0.5,0,48,48,0,1,,,,,,,,,,,,,,,,,,,,,,,,,,,,,,,,,,,,,,,,
,,,,,WIN24_043,22,Female,2024-02-08_14h29.43.155,jersey_experiment_5,2023.2.2,Win32,84.74576271,,,,,,,,,,,,,,,,827.7144,829.514,829.5141,832.1847,return,0.701,,26.30208333,,,,,,FBP-YG-18.png,0.37,1.2,37,1,0,49,49,36,1,,,,,,,,,,,,,,,,,,,,,,,,,,,,,,,,,,,,,,,,
,,,,,WIN24_043,22,Female,2024-02-08_14h29.43.155,jersey_experiment_5,2023.2.2,Win32,84.74576271,,,,,,,,,,,,,,,,832.185,833.4789,833.479,837.5967,return,0.815,,35.28645833,,,,,,FBP-PT-71.png,0.35,1.2,46,0.5,0,50,50,45,1,,,,,,,,,,,,,,,,,,,,,,,,,,,,,,,,,,,,,,,,
,,,,,WIN24_043,22,Female,2024-02-08_14h29.43.155,jersey_experiment_5,2023.2.2,Win32,84.74576271,,,,,,,,,,,,,,,,837.5969,839.3967,839.3968,841.9499,return,1.1061,,35.15625,,,,,,FBP-RB-81.png,0.35,1.2,21,1,0,51,51,20,1,,,,,,,,,,,,,,,,,,,,,,,,,,,,,,,,,,,,,,,,
,,,,,WIN24_043,22,Female,2024-02-08_14h29.43.155,jersey_experiment_5,2023.2.2,Win32,84.74576271,,,,,,,,,,,,,,,,841.9502,843.7498,843.7499,846.8441,return,1.0505,,34.375,,,,,,FBP-YG-17.png,0.35,1.2,31,1,0,52,52,30,1,,,,,,,,,,,,,,,,,,,,,,,,,,,,,,,,,,,,,,,,
,,,,,WIN24_043,22,Female,2024-02-08_14h29.43.155,jersey_experiment_5,2023.2.2,Win32,84.74576271,,,,,,,,,,,,,,,,846.8444,848.6442,848.6443,852.1267,return,0.8336,,43.61979167,,,,,,FBP-RB-91.png,0.35,1.2,26,1,0,53,53,25,1,,,,,,,,,,,,,,,,,,,,,,,,,,,,,,,,,,,,,,,,
,,,,,WIN24_043,22,Female,2024-02-08_14h29.43.155,jersey_experiment_5,2023.2.2,Win32,84.74576271,,,,,,,,,,,,,,,,852.1269,853.9268,853.9268,857.9034,return,1.3886,,43.22916667,,,,,,FBP-RB-81.png,0.37,1.2,22,1,0,54,54,21,1,,,,,,,,,,,,,,,,,,,,,,,,,,,,,,,,,,,,,,,,
,,,,,WIN24_043,22,Female,2024-02-08_14h29.43.155,jersey_experiment_5,2023.2.2,Win32,84.74576271,,,,,,,,,,,,,,,,857.9036,859.7033,859.7033,865.5154,return,0.7808,,90.36458333,,,,,,FBP-RB-91.png,0.43,1.2,29,1,0,55,55,28,1,,,,,,,,,,,,,,,,,,,,,,,,,,,,,,,,,,,,,,,,
,,,,,WIN24_043,22,Female,2024-02-08_14h29.43.155,jersey_experiment_5,2023.2.2,Win32,84.74576271,,,,,,,,,,,,,,,,865.5156,867.3154,867.3154,873.6569,return,0.4401,,25.390625,,,,,,FBP-YG-18.png,0.35,1.2,36,1,0,56,56,35,1,,,,,,,,,,,,,,,,,,,,,,,,,,,,,,,,,,,,,,,,
,,,,,WIN24_043,22,Female,2024-02-08_14h29.43.155,jersey_experiment_5,2023.2.2,Win32,84.74576271,,,,,,,,,,,,,,,,873.657,874.9509,874.9509,878.5276,return,1.3648,,75.52083333,,,,,,FBP-PT-91.png,0.43,1.2,59,0.5,0,57,57,58,1,,,,,,,,,,,,,,,,,,,,,,,,,,,,,,,,,,,,,,,,
,,,,,WIN24_043,22,Female,2024-02-08_14h29.43.155,jersey_experiment_5,2023.2.2,Win32,84.74576271,,,,,,,,,,,,,,,,878.5278,880.3277,880.3277,883.3043,return,0.8873,,71.35416667,,,,,,FBP-RB-81.png,0.4,1.2,23,1,0,58,58,22,1,,,,,,,,,,,,,,,,,,,,,,,,,,,,,,,,,,,,,,,,
,,,,,WIN24_043,22,Female,2024-02-08_14h29.43.155,jersey_experiment_5,2023.2.2,Win32,84.74576271,,,,,,,,,,,,,,,,883.3045,885.1046,885.1046,887.5748,return,0.9146,,85.9375,,,,,,FBP-RB-91.png,0.45,1.2,30,1,0,59,59,29,1,,,,,,,,,,,,,,,,,,,,,,,,,,,,,,,,,,,,,,,,
,,,,,WIN24_043,22,Female,2024-02-08_14h29.43.155,jersey_experiment_5,2023.2.2,Win32,84.74576271,,,,,,,,,,,,,,,,,,,,,,,,,,,,,,,,,,,,,,,887.5751,1007.5797,,,,,,,,,,,,,,,,,,,,,,,,,,,,,,,,,,,,,,
,,,,,WIN24_043,22,Female,2024-02-08_14h29.43.155,jersey_experiment_5,2023.2.2,Win32,84.74576271,,,,,,,,,,,,,,,,,,,,,,,,,,,,,,,,,,,,,,,,,1007.5797,1013.3445,return,5.7543,,,,,,,,,,,,,,,,,,,,,,,,,,,,,,,,,,
,,,,,WIN24_043,22,Female,2024-02-08_14h29.43.155,jersey_experiment_5,2023.2.2,Win32,84.74576271,,,,,,,,,,,,,,,,1013.3506,1015.1442,1015.1442,1019.6384,return,0.8189,,76.171875,,,,,,FBP-PT-17.png,0.4,1.2,48,1,,,,,,,,,,,,,0,0,0,47,1,,,,,,,,,,,,,,,,,,,,,,,,,,,,
,,,,,WIN24_043,22,Female,2024-02-08_14h29.43.155,jersey_experiment_5,2023.2.2,Win32,84.74576271,,,,,,,,,,,,,,,,1019.6388,1020.9327,1020.9327,1023.4034,return,0.7434,,77.734375,,,,,,FBP-YG-71.png,0.43,1.2,34,0.5,,,,,,,,,,,,,0,1,1,33,1,,,,,,,,,,,,,,,,,,,,,,,,,,,,
,,,,,WIN24_043,22,Female,2024-02-08_14h29.43.155,jersey_experiment_5,2023.2.2,Win32,84.74576271,,,,,,,,,,,,,,,,1023.4035,1025.2036,1025.2037,1027.1212,return,0.5031,,78.515625,,,,,,FBP-PT-18.png,0.45,1.2,55,1,,,,,,,,,,,,,0,2,2,54,1,,,,,,,,,,,,,,,,,,,,,,,,,,,,
,,,,,WIN24_043,22,Female,2024-02-08_14h29.43.155,jersey_experiment_5,2023.2.2,Win32,84.74576271,,,,,,,,,,,,,,,,1027.1213,1028.9214,1028.9214,1031.3213,return,0.6531,,12.23958333,,,,,,FBP-OG-71.png,0.37,1.2,2,1,,,,,,,,,,,,,0,3,3,1,1,,,,,,,,,,,,,,,,,,,,,,,,,,,,
,,,,,WIN24_043,22,Female,2024-02-08_14h29.43.155,jersey_experiment_5,2023.2.2,Win32,84.74576271,,,,,,,,,,,,,,,,1031.3215,1033.1214,1033.1214,1036.3685,return,1.9296,,5.338541667,,,,,,FBP-PT-19.png,0.35,1.2,56,1,,,,,,,,,,,,,0,4,4,55,1,,,,,,,,,,,,,,,,,,,,,,,,,,,,
,,,,,WIN24_043,22,Female,2024-02-08_14h29.43.155,jersey_experiment_5,2023.2.2,Win32,84.74576271,,,,,,,,,,,,,,,,1036.3688,1038.1687,1038.1687,1041.3452,return,0.9657,,19.79166667,,,,,,FBP-PT-18.png,0.37,1.2,52,1,,,,,,,,,,,,,0,5,5,51,1,,,,,,,,,,,,,,,,,,,,,,,,,,,,
,,,,,WIN24_043,22,Female,2024-02-08_14h29.43.155,jersey_experiment_5,2023.2.2,Win32,84.74576271,,,,,,,,,,,,,,,,1041.3454,1043.1454,1043.1455,1045.3219,return,0.8641,,11.58854167,,,,,,FBP-OG-71.png,0.35,1.2,1,1,,,,,,,,,,,,,0,6,6,0,1,,,,,,,,,,,,,,,,,,,,,,,,,,,,
,,,,,WIN24_043,22,Female,2024-02-08_14h29.43.155,jersey_experiment_5,2023.2.2,Win32,84.74576271,,,,,,,,,,,,,,,,1045.3221,1047.122,1047.122,1051.0514,return,0.804,,81.640625,,,,,,FBP-OG-91.png,0.43,1.2,14,1,,,,,,,,,,,,,0,7,7,13,1,,,,,,,,,,,,,,,,,,,,,,,,,,,,
,,,,,WIN24_043,22,Female,2024-02-08_14h29.43.155,jersey_experiment_5,2023.2.2,Win32,84.74576271,,,,,,,,,,,,,,,,1051.0516,1052.8516,1052.8516,1055.8164,return,0.8521,,85.67708333,,,,,,FBP-OG-71.png,0.45,1.2,5,1,,,,,,,,,,,,,0,8,8,4,1,,,,,,,,,,,,,,,,,,,,,,,,,,,,
,,,,,WIN24_043,22,Female,2024-02-08_14h29.43.155,jersey_experiment_5,2023.2.2,Win32,84.74576271,,,,,,,,,,,,,,,,1055.8167,1057.6163,1057.6164,1065.7343,return,5.6666,,35.02604167,,,,,,FBP-OG-91.png,0.37,1.2,12,1,,,,,,,,,,,,,0,9,9,11,1,,,,,,,,,,,,,,,,,,,,,,,,,,,,
,,,,,WIN24_043,22,Female,2024-02-08_14h29.43.155,jersey_experiment_5,2023.2.2,Win32,84.74576271,,,,,,,,,,,,,,,,1065.7346,1067.5344,1067.5344,1070.1933,return,0.6828,,81.25,,,,,,FBP-OG-81.png,0.43,1.2,9,1,,,,,,,,,,,,,0,10,10,8,1,,,,,,,,,,,,,,,,,,,,,,,,,,,,
,,,,,WIN24_043,22,Female,2024-02-08_14h29.43.155,jersey_experiment_5,2023.2.2,Win32,84.74576271,,,,,,,,,,,,,,,,1070.1936,1071.4875,1071.4875,1075.5464,return,1.5675,,10.15625,,,,,,FBP-RB-17.png,0.35,1.2,16,0.5,,,,,,,,,,,,,0,11,11,15,1,,,,,,,,,,,,,,,,,,,,,,,,,,,,
,,,,,WIN24_043,22,Female,2024-02-08_14h29.43.155,jersey_experiment_5,2023.2.2,Win32,84.74576271,,,,,,,,,,,,,,,,1075.5466,1076.8406,1076.8406,1082.3937,return,3.7942,,80.859375,,,,,,FBP-YG-91.png,0.43,1.2,44,0.5,,,,,,,,,,,,,0,12,12,43,1,,,,,,,,,,,,,,,,,,,,,,,,,,,,
,,,,,WIN24_043,22,Female,2024-02-08_14h29.43.155,jersey_experiment_5,2023.2.2,Win32,84.74576271,,,,,,,,,,,,,,,,1082.3983,1084.1939,1084.1939,1086.2057,return,0.6606,,83.72395833,,,,,,FBP-OG-71.png,0.4,1.2,3,1,,,,,,,,,,,,,0,13,13,2,1,,,,,,,,,,,,,,,,,,,,,,,,,,,,
,,,,,WIN24_043,22,Female,2024-02-08_14h29.43.155,jersey_experiment_5,2023.2.2,Win32,84.74576271,,,,,,,,,,,,,,,,1086.2059,1087.4998,1087.4998,1091.3116,return,1.6108,,12.890625,,,,,,FBP-YG-81.png,0.35,1.2,36,0.5,,,,,,,,,,,,,0,14,14,35,1,,,,,,,,,,,,,,,,,,,,,,,,,,,,
,,,,,WIN24_043,22,Female,2024-02-08_14h29.43.155,jersey_experiment_5,2023.2.2,Win32,84.74576271,,,,,,,,,,,,,,,,1091.3119,1093.112,1093.112,1095.0059,return,0.66,,53.38541667,,,,,,FBP-PT-18.png,0.4,1.2,53,1,,,,,,,,,,,,,0,15,15,52,1,,,,,,,,,,,,,,,,,,,,,,,,,,,,
,,,,,WIN24_043,22,Female,2024-02-08_14h29.43.155,jersey_experiment_5,2023.2.2,Win32,84.74576271,,,,,,,,,,,,,,,,1095.006,1096.8062,1096.8062,1099.6063,return,0.4778,,70.18229167,,,,,,FBP-OG-81.png,0.45,1.2,10,1,,,,,,,,,,,,,0,16,16,9,1,,,,,,,,,,,,,,,,,,,,,,,,,,,,
,,,,,WIN24_043,22,Female,2024-02-08_14h29.43.155,jersey_experiment_5,2023.2.2,Win32,84.74576271,,,,,,,,,,,,,,,,1099.6065,1100.9003,1100.9003,1102.9591,return,0.3863,,6.25,,,,,,FBP-YG-71.png,0.35,1.2,31,0.5,,,,,,,,,,,,,0,17,17,30,1,,,,,,,,,,,,,,,,,,,,,,,,,,,,
,,,,,WIN24_043,22,Female,2024-02-08_14h29.43.155,jersey_experiment_5,2023.2.2,Win32,84.74576271,,,,,,,,,,,,,,,,1102.9593,1104.7593,1104.7593,1109.3829,return,0.3374,,26.30208333,,,,,,FBP-PT-17.png,0.35,1.2,46,1,,,,,,,,,,,,,0,18,18,45,1,,,,,,,,,,,,,,,,,,,,,,,,,,,,
,,,,,WIN24_043,22,Female,2024-02-08_14h29.43.155,jersey_experiment_5,2023.2.2,Win32,84.74576271,,,,,,,,,,,,,,,,1109.383,1110.6771,1110.6771,1118.442,return,0.2974,,78.25520833,,,,,,FBP-YG-81.png,0.45,1.2,40,0.5,,,,,,,,,,,,,0,19,19,39,1,,,,,,,,,,,,,,,,,,,,,,,,,,,,
,,,,,WIN24_043,22,Female,2024-02-08_14h29.43.155,jersey_experiment_5,2023.2.2,Win32,84.74576271,,,,,,,,,,,,,,,,1118.4423,1119.7362,1119.7362,1123.0539,return,1.3895,,18.88020833,,,,,,FBP-RB-17.png,0.37,1.2,17,0.5,,,,,,,,,,,,,0,20,20,16,1,,,,,,,,,,,,,,,,,,,,,,,,,,,,
,,,,,WIN24_043,22,Female,2024-02-08_14h29.43.155,jersey_experiment_5,2023.2.2,Win32,84.74576271,,,,,,,,,,,,,,,,1123.0542,1124.3481,1124.3481,1126.1129,return,0.5983,,11.71875,,,,,,FBP-RB-18.png,0.35,1.2,21,0.5,,,,,,,,,,,,,0,21,21,20,1,,,,,,,,,,,,,,,,,,,,,,,,,,,,
,,,,,WIN24_043,22,Female,2024-02-08_14h29.43.155,jersey_experiment_5,2023.2.2,Win32,84.74576271,,,,,,,,,,,,,,,,1126.1131,1127.407,1127.4071,1129.866,return,0.8275,,11.71875,,,,,,FBP-RB-18.png,0.37,1.2,22,0.5,,,,,,,,,,,,,0,22,22,21,1,,,,,,,,,,,,,,,,,,,,,,,,,,,,
,,,,,WIN24_043,22,Female,2024-02-08_14h29.43.155,jersey_experiment_5,2023.2.2,Win32,84.74576271,,,,,,,,,,,,,,,,1129.8663,1131.6661,1131.6661,1134.8309,return,0.908,,76.953125,,,,,,FBP-PT-17.png,0.43,1.2,49,1,,,,,,,,,,,,,0,23,23,48,1,,,,,,,,,,,,,,,,,,,,,,,,,,,,
,,,,,WIN24_043,22,Female,2024-02-08_14h29.43.155,jersey_experiment_5,2023.2.2,Win32,84.74576271,,,,,,,,,,,,,,,,1134.8311,1136.631,1136.631,1139.1957,return,1.274,,78.38541667,,,,,,FBP-PT-17.png,0.45,1.2,50,1,,,,,,,,,,,,,0,24,24,49,1,,,,,,,,,,,,,,,,,,,,,,,,,,,,
,,,,,WIN24_043,22,Female,2024-02-08_14h29.43.155,jersey_experiment_5,2023.2.2,Win32,84.74576271,,,,,,,,,,,,,,,,1139.1959,1140.996,1140.9961,1142.9134,return,0.7867,,80.20833333,,,,,,FBP-PT-19.png,0.45,1.2,60,1,,,,,,,,,,,,,0,25,25,59,1,,,,,,,,,,,,,,,,,,,,,,,,,,,,
,,,,,WIN24_043,22,Female,2024-02-08_14h29.43.155,jersey_experiment_5,2023.2.2,Win32,84.74576271,,,,,,,,,,,,,,,,1142.9137,1144.2077,1144.2077,1146.4078,return,0.678,,80.59895833,,,,,,FBP-RB-17.png,0.43,1.2,19,0.5,,,,,,,,,,,,,0,26,26,18,1,,,,,,,,,,,,,,,,,,,,,,,,,,,,
,,,,,WIN24_043,22,Female,2024-02-08_14h29.43.155,jersey_experiment_5,2023.2.2,Win32,84.74576271,,,,,,,,,,,,,,,,1146.408,1147.702,1147.702,1150.1256,return,0.9081,,81.77083333,,,,,,FBP-RB-19.png,0.43,1.2,29,0.5,,,,,,,,,,,,,0,27,27,28,1,,,,,,,,,,,,,,,,,,,,,,,,,,,,
,,,,,WIN24_043,22,Female,2024-02-08_14h29.43.155,jersey_experiment_5,2023.2.2,Win32,84.74576271,,,,,,,,,,,,,,,,1150.1258,1151.4197,1151.4197,1157.1964,return,2.5772,,60.15625,,,,,,FBP-RB-18.png,0.4,1.2,23,0.5,,,,,,,,,,,,,0,28,28,22,1,,,,,,,,,,,,,,,,,,,,,,,,,,,,
,,,,,WIN24_043,22,Female,2024-02-08_14h29.43.155,jersey_experiment_5,2023.2.2,Win32,84.74576271,,,,,,,,,,,,,,,,1157.1966,1158.9966,1158.9967,1161.8084,return,1.9625,,72.78645833,,,,,,FBP-OG-91.png,0.45,1.2,15,1,,,,,,,,,,,,,0,29,29,14,1,,,,,,,,,,,,,,,,,,,,,,,,,,,,
,,,,,WIN24_043,22,Female,2024-02-08_14h29.43.155,jersey_experiment_5,2023.2.2,Win32,84.74576271,,,,,,,,,,,,,,,,1161.8086,1163.1025,1163.1025,1165.8084,return,0.612,,9.114583333,,,,,,FBP-YG-91.png,0.35,1.2,41,0.5,,,,,,,,,,,,,0,30,30,40,1,,,,,,,,,,,,,,,,,,,,,,,,,,,,
,,,,,WIN24_043,22,Female,2024-02-08_14h29.43.155,jersey_experiment_5,2023.2.2,Win32,84.74576271,,,,,,,,,,,,,,,,1165.8087,1167.1026,1167.1026,1169.3026,return,0.619,,8.072916667,,,,,,FBP-YG-91.png,0.37,1.2,42,0.5,,,,,,,,,,,,,0,31,31,41,1,,,,,,,,,,,,,,,,,,,,,,,,,,,,
,,,,,WIN24_043,22,Female,2024-02-08_14h29.43.155,jersey_experiment_5,2023.2.2,Win32,84.74576271,,,,,,,,,,,,,,,,1169.3028,1170.5969,1170.597,1182.9384,return,9.8873,,80.859375,,,,,,FBP-YG-81.png,0.43,1.2,39,0.5,,,,,,,,,,,,,0,32,32,38,1,,,,,,,,,,,,,,,,,,,,,,,,,,,,
,,,,,WIN24_043,22,Female,2024-02-08_14h29.43.155,jersey_experiment_5,2023.2.2,Win32,84.74576271,,,,,,,,,,,,,,,,1182.9432,1184.2445,1184.2445,1186.0563,return,0.3009,,45.83333333,,,,,,FBP-YG-81.png,0.37,1.2,37,0.5,,,,,,,,,,,,,0,33,33,36,1,,,,,,,,,,,,,,,,,,,,,,,,,,,,
,,,,,WIN24_043,22,Female,2024-02-08_14h29.43.155,jersey_experiment_5,2023.2.2,Win32,84.74576271,,,,,,,,,,,,,,,,1186.0564,1187.8563,1187.8563,1189.5622,return,0.6519,,71.22395833,,,,,,FBP-OG-91.png,0.4,1.2,13,1,,,,,,,,,,,,,0,34,34,12,1,,,,,,,,,,,,,,,,,,,,,,,,,,,,
,,,,,WIN24_043,22,Female,2024-02-08_14h29.43.155,jersey_experiment_5,2023.2.2,Win32,84.74576271,,,,,,,,,,,,,,,,1189.5624,1190.8565,1190.8565,1193.127,return,0.3718,,45.96354167,,,,,,FBP-YG-71.png,0.37,1.2,32,0.5,,,,,,,,,,,,,0,35,35,31,1,,,,,,,,,,,,,,,,,,,,,,,,,,,,
,,,,,WIN24_043,22,Female,2024-02-08_14h29.43.155,jersey_experiment_5,2023.2.2,Win32,84.74576271,,,,,,,,,,,,,,,,1193.1272,1194.4212,1194.4212,1197.2449,return,0.5774,,53.515625,,,,,,FBP-YG-71.png,0.4,1.2,33,0.5,,,,,,,,,,,,,0,36,36,32,1,,,,,,,,,,,,,,,,,,,,,,,,,,,,
,,,,,WIN24_043,22,Female,2024-02-08_14h29.43.155,jersey_experiment_5,2023.2.2,Win32,84.74576271,,,,,,,,,,,,,,,,1197.245,1198.539,1198.539,1200.8568,return,0.6062,,54.6875,,,,,,FBP-RB-19.png,0.4,1.2,28,0.5,,,,,,,,,,,,,0,37,37,27,1,,,,,,,,,,,,,,,,,,,,,,,,,,,,
,,,,,WIN24_043,22,Female,2024-02-08_14h29.43.155,jersey_experiment_5,2023.2.2,Win32,84.74576271,,,,,,,,,,,,,,,,1200.8571,1202.151,1202.151,1204.6334,return,0.7686,,73.69791667,,,,,,FBP-RB-17.png,0.45,1.2,20,0.5,,,,,,,,,,,,,0,38,38,19,1,,,,,,,,,,,,,,,,,,,,,,,,,,,,
,,,,,WIN24_043,22,Female,2024-02-08_14h29.43.155,jersey_experiment_5,2023.2.2,Win32,84.74576271,,,,,,,,,,,,,,,,1204.6336,1205.9275,1205.9275,1207.8688,return,0.6966,,74.21875,,,,,,FBP-YG-91.png,0.45,1.2,45,0.5,,,,,,,,,,,,,0,39,39,44,1,,,,,,,,,,,,,,,,,,,,,,,,,,,,
,,,,,WIN24_043,22,Female,2024-02-08_14h29.43.155,jersey_experiment_5,2023.2.2,Win32,84.74576271,,,,,,,,,,,,,,,,1207.8691,1209.6688,1209.6688,1211.8219,return,0.4847,,5.338541667,,,,,,FBP-OG-91.png,0.35,1.2,11,1,,,,,,,,,,,,,0,40,40,10,1,,,,,,,,,,,,,,,,,,,,,,,,,,,,
,,,,,WIN24_043,22,Female,2024-02-08_14h29.43.155,jersey_experiment_5,2023.2.2,Win32,84.74576271,,,,,,,,,,,,,,,,1211.8221,1213.1161,1213.1161,1216.1984,return,1.0656,,68.75,,,,,,FBP-YG-81.png,0.4,1.2,38,0.5,,,,,,,,,,,,,0,41,41,37,1,,,,,,,,,,,,,,,,,,,,,,,,,,,,
,,,,,WIN24_043,22,Female,2024-02-08_14h29.43.155,jersey_experiment_5,2023.2.2,Win32,84.74576271,,,,,,,,,,,,,,,,1216.1986,1217.9986,1217.9986,1219.9986,return,0.6921,,80.859375,,,,,,FBP-PT-18.png,0.43,1.2,54,1,,,,,,,,,,,,,0,42,42,53,1,,,,,,,,,,,,,,,,,,,,,,,,,,,,
,,,,,WIN24_043,22,Female,2024-02-08_14h29.43.155,jersey_experiment_5,2023.2.2,Win32,84.74576271,,,,,,,,,,,,,,,,1219.9987,1221.7987,1221.7987,1224.5753,return,0.8138,,78.90625,,,,,,FBP-OG-81.png,0.4,1.2,8,1,,,,,,,,,,,,,0,43,43,7,1,,,,,,,,,,,,,,,,,,,,,,,,,,,,
,,,,,WIN24_043,22,Female,2024-02-08_14h29.43.155,jersey_experiment_5,2023.2.2,Win32,84.74576271,,,,,,,,,,,,,,,,1224.5754,1226.3754,1226.3754,1228.2812,return,0.7928,,22.78645833,,,,,,FBP-PT-19.png,0.37,1.2,57,1,,,,,,,,,,,,,0,44,44,56,1,,,,,,,,,,,,,,,,,,,,,,,,,,,,
,,,,,WIN24_043,22,Female,2024-02-08_14h29.43.155,jersey_experiment_5,2023.2.2,Win32,84.74576271,,,,,,,,,,,,,,,,1228.2814,1230.0816,1230.0816,1232.0461,return,0.9284,,78.90625,,,,,,FBP-OG-71.png,0.43,1.2,4,1,,,,,,,,,,,,,0,45,45,3,1,,,,,,,,,,,,,,,,,,,,,,,,,,,,
,,,,,WIN24_043,22,Female,2024-02-08_14h29.43.155,jersey_experiment_5,2023.2.2,Win32,84.74576271,,,,,,,,,,,,,,,,1232.0465,1233.8463,1233.8463,1235.3756,return,0.6814,,82.8125,,,,,,FBP-PT-19.png,0.43,1.2,59,1,,,,,,,,,,,,,0,46,46,58,1,,,,,,,,,,,,,,,,,,,,,,,,,,,,
,,,,,WIN24_043,22,Female,2024-02-08_14h29.43.155,jersey_experiment_5,2023.2.2,Win32,84.74576271,,,,,,,,,,,,,,,,1235.3759,1237.1758,1237.1758,1239.4346,return,0.5555,,67.96875,,,,,,FBP-PT-17.png,0.37,1.2,47,1,,,,,,,,,,,,,0,47,47,46,1,,,,,,,,,,,,,,,,,,,,,,,,,,,,
,,,,,WIN24_043,22,Female,2024-02-08_14h29.43.155,jersey_experiment_5,2023.2.2,Win32,84.74576271,,,,,,,,,,,,,,,,1239.4348,1241.2349,1241.235,1244.7525,return,0.3394,,50.390625,,,,,,FBP-OG-81.png,0.37,1.2,7,1,,,,,,,,,,,,,0,48,48,6,1,,,,,,,,,,,,,,,,,,,,,,,,,,,,
,,,,,WIN24_043,22,Female,2024-02-08_14h29.43.155,jersey_experiment_5,2023.2.2,Win32,84.74576271,,,,,,,,,,,,,,,,1244.7527,1246.0465,1246.0465,1248.2468,return,0.4438,,74.86979167,,,,,,FBP-RB-19.png,0.45,1.2,30,0.5,,,,,,,,,,,,,0,49,49,29,1,,,,,,,,,,,,,,,,,,,,,,,,,,,,
,,,,,WIN24_043,22,Female,2024-02-08_14h29.43.155,jersey_experiment_5,2023.2.2,Win32,84.74576271,,,,,,,,,,,,,,,,1248.247,1249.5409,1249.5409,1251.2588,return,0.3793,,74.86979167,,,,,,FBP-RB-18.png,0.43,1.2,24,0.5,,,,,,,,,,,,,0,50,50,23,1,,,,,,,,,,,,,,,,,,,,,,,,,,,,
,,,,,WIN24_043,22,Female,2024-02-08_14h29.43.155,jersey_experiment_5,2023.2.2,Win32,84.74576271,,,,,,,,,,,,,,,,1251.259,1252.553,1252.553,1256.3058,return,1.0825,,23.95833333,,,,,,FBP-RB-19.png,0.35,1.2,26,0.5,,,,,,,,,,,,,0,51,51,25,1,,,,,,,,,,,,,,,,,,,,,,,,,,,,
,,,,,WIN24_043,22,Female,2024-02-08_14h29.43.155,jersey_experiment_5,2023.2.2,Win32,84.74576271,,,,,,,,,,,,,,,,1256.3061,1257.6,1257.6,1259.2706,return,0.2532,,23.17708333,,,,,,FBP-RB-19.png,0.37,1.2,27,0.5,,,,,,,,,,,,,0,52,52,26,1,,,,,,,,,,,,,,,,,,,,,,,,,,,,
,,,,,WIN24_043,22,Female,2024-02-08_14h29.43.155,jersey_experiment_5,2023.2.2,Win32,84.74576271,,,,,,,,,,,,,,,,1259.2709,1260.5648,1260.5648,1263.3531,return,1.3452,,71.74479167,,,,,,FBP-YG-71.png,0.45,1.2,35,0.5,,,,,,,,,,,,,0,53,53,34,1,,,,,,,,,,,,,,,,,,,,,,,,,,,,
,,,,,WIN24_043,22,Female,2024-02-08_14h29.43.155,jersey_experiment_5,2023.2.2,Win32,84.74576271,,,,,,,,,,,,,,,,1263.3533,1265.1532,1265.1532,1267.3181,return,0.301,,44.27083333,,,,,,FBP-PT-18.png,0.35,1.2,51,1,,,,,,,,,,,,,0,54,54,50,1,,,,,,,,,,,,,,,,,,,,,,,,,,,,
,,,,,WIN24_043,22,Female,2024-02-08_14h29.43.155,jersey_experiment_5,2023.2.2,Win32,84.74576271,,,,,,,,,,,,,,,,1267.3183,1269.118,1269.118,1270.8946,return,0.4809,,59.375,,,,,,FBP-PT-19.png,0.4,1.2,58,1,,,,,,,,,,,,,0,55,55,57,1,,,,,,,,,,,,,,,,,,,,,,,,,,,,
,,,,,WIN24_043,22,Female,2024-02-08_14h29.43.155,jersey_experiment_5,2023.2.2,Win32,84.74576271,,,,,,,,,,,,,,,,1270.8948,1272.6948,1272.6948,1274.8241,return,0.5716,,37.5,,,,,,FBP-OG-81.png,0.35,1.2,6,1,,,,,,,,,,,,,0,56,56,5,1,,,,,,,,,,,,,,,,,,,,,,,,,,,,
,,,,,WIN24_043,22,Female,2024-02-08_14h29.43.155,jersey_experiment_5,2023.2.2,Win32,84.74576271,,,,,,,,,,,,,,,,1274.8243,1276.1183,1276.1183,1278.5537,return,0.3469,,71.35416667,,,,,,FBP-RB-17.png,0.4,1.2,18,0.5,,,,,,,,,,,,,0,57,57,17,1,,,,,,,,,,,,,,,,,,,,,,,,,,,,
,,,,,WIN24_043,22,Female,2024-02-08_14h29.43.155,jersey_experiment_5,2023.2.2,Win32,84.74576271,,,,,,,,,,,,,,,,1278.554,1279.8478,1279.8478,1282.7186,return,0.3986,,72.78645833,,,,,,FBP-YG-91.png,0.4,1.2,43,0.5,,,,,,,,,,,,,0,58,58,42,1,,,,,,,,,,,,,,,,,,,,,,,,,,,,
,,,,,WIN24_043,22,Female,2024-02-08_14h29.43.155,jersey_experiment_5,2023.2.2,Win32,84.74576271,,,,,,,,,,,,,,,,1282.7188,1284.0127,1284.0127,1286.601,return,0.804,,86.58854167,,,,,,FBP-RB-18.png,0.45,1.2,25,0.5,,,,,,,,,,,,,0,59,59,24,1,,,,,,,,,,,,,,,,,,,,,,,,,,,,
,,,,,WIN24_043,22,Female,2024-02-08_14h29.43.155,jersey_experiment_5,2023.2.2,Win32,84.74576271,,,,,,,,,,,,,,,,1286.603,1288.4011,1288.4011,1290.9542,return,0.4506,,77.34375,,,,,,FBP-OG-19.png,0.4,1.2,13,1,,,,,,,,,,,,,,,,,,0,0,0,12,1,,,,,,,,,,,,,,,,,,,,,,,
,,,,,WIN24_043,22,Female,2024-02-08_14h29.43.155,jersey_experiment_5,2023.2.2,Win32,84.74576271,,,,,,,,,,,,,,,,1290.9546,1292.2483,1292.2483,1295.2484,return,1.0219,,86.45833333,,,,,,FBP-YG-19.png,0.45,1.2,45,0.5,,,,,,,,,,,,,,,,,,0,1,1,44,1,,,,,,,,,,,,,,,,,,,,,,,
,,,,,WIN24_043,22,Female,2024-02-08_14h29.43.155,jersey_experiment_5,2023.2.2,Win32,84.74576271,,,,,,,,,,,,,,,,1295.2486,1297.0486,1297.0487,1298.4015,return,0.5649,,87.76041667,,,,,,FBP-OG-18.png,0.43,1.2,9,1,,,,,,,,,,,,,,,,,,0,2,2,8,1,,,,,,,,,,,,,,,,,,,,,,,
,,,,,WIN24_043,22,Female,2024-02-08_14h29.43.155,jersey_experiment_5,2023.2.2,Win32,84.74576271,,,,,,,,,,,,,,,,1298.4017,1299.6956,1299.6956,1308.8489,return,0.4944,,21.22395833,,,,,,FBP-RB-71.png,0.37,1.2,17,0.5,,,,,,,,,,,,,,,,,,0,3,3,16,1,,,,,,,,,,,,,,,,,,,,,,,
,,,,,WIN24_043,22,Female,2024-02-08_14h29.43.155,jersey_experiment_5,2023.2.2,Win32,84.74576271,,,,,,,,,,,,,,,,1308.8491,1310.649,1310.649,1312.3197,return,0.2721,,48.17708333,,,,,,FBP-PT-71.png,0.4,1.2,48,1,,,,,,,,,,,,,,,,,,0,4,4,47,1,,,,,,,,,,,,,,,,,,,,,,,
,,,,,WIN24_043,22,Female,2024-02-08_14h29.43.155,jersey_experiment_5,2023.2.2,Win32,84.74576271,,,,,,,,,,,,,,,,1312.32,1313.6137,1313.6138,1316.2373,return,0.3177,,76.30208333,,,,,,FBP-YG-17.png,0.45,1.2,35,0.5,,,,,,,,,,,,,,,,,,0,5,5,34,1,,,,,,,,,,,,,,,,,,,,,,,
,,,,,WIN24_043,22,Female,2024-02-08_14h29.43.155,jersey_experiment_5,2023.2.2,Win32,84.74576271,,,,,,,,,,,,,,,,1316.2377,1318.0375,1318.0375,1324.5554,return,0.2507,,77.21354167,,,,,,FBP-PT-81.png,0.43,1.2,54,1,,,,,,,,,,,,,,,,,,0,6,6,53,1,,,,,,,,,,,,,,,,,,,,,,,
,,,,,WIN24_043,22,Female,2024-02-08_14h29.43.155,jersey_experiment_5,2023.2.2,Win32,84.74576271,,,,,,,,,,,,,,,,1324.5556,1326.3553,1326.3554,1327.9318,return,0.2248,,78.77604167,,,,,,FBP-OG-19.png,0.43,1.2,14,1,,,,,,,,,,,,,,,,,,0,7,7,13,1,,,,,,,,,,,,,,,,,,,,,,,
,,,,,WIN24_043,22,Female,2024-02-08_14h29.43.155,jersey_experiment_5,2023.2.2,Win32,84.74576271,,,,,,,,,,,,,,,,1327.9322,1329.226,1329.2261,1332.2027,return,0.825,,22.39583333,,,,,,FBP-YG-18.png,0.35,1.2,36,0.5,,,,,,,,,,,,,,,,,,0,8,8,35,1,,,,,,,,,,,,,,,,,,,,,,,
,,,,,WIN24_043,22,Female,2024-02-08_14h29.43.155,jersey_experiment_5,2023.2.2,Win32,84.74576271,,,,,,,,,,,,,,,,1332.2029,1333.4968,1333.4969,1338.897,return,3.7653,,78.515625,,,,,,FBP-RB-81.png,0.43,1.2,24,0.5,,,,,,,,,,,,,,,,,,0,9,9,23,1,,,,,,,,,,,,,,,,,,,,,,,
,,,,,WIN24_043,22,Female,2024-02-08_14h29.43.155,jersey_experiment_5,2023.2.2,Win32,84.74576271,,,,,,,,,,,,,,,,1338.8972,1340.1912,1340.1912,1343.4031,return,0.6746,,48.828125,,,,,,FBP-RB-91.png,0.35,1.2,26,0.5,,,,,,,,,,,,,,,,,,0,10,10,25,1,,,,,,,,,,,,,,,,,,,,,,,
,,,,,WIN24_043,22,Female,2024-02-08_14h29.43.155,jersey_experiment_5,2023.2.2,Win32,84.74576271,,,,,,,,,,,,,,,,1343.4034,1345.2031,1345.2031,1353.7211,return,6.1237,,61.19791667,,,,,,FBP-PT-91.png,0.43,1.2,59,1,,,,,,,,,,,,,,,,,,0,11,11,58,1,,,,,,,,,,,,,,,,,,,,,,,
,,,,,WIN24_043,22,Female,2024-02-08_14h29.43.155,jersey_experiment_5,2023.2.2,Win32,84.74576271,,,,,,,,,,,,,,,,1353.7256,1355.5212,1355.5212,1358.286,return,1.046,,71.35416667,,,,,,FBP-OG-17.png,0.43,1.2,4,1,,,,,,,,,,,,,,,,,,0,12,12,3,1,,,,,,,,,,,,,,,,,,,,,,,
,,,,,WIN24_043,22,Female,2024-02-08_14h29.43.155,jersey_experiment_5,2023.2.2,Win32,84.74576271,,,,,,,,,,,,,,,,1358.2862,1360.0861,1360.0861,1368.2628,return,3.9144,,5.859375,,,,,,FBP-PT-81.png,0.35,1.2,51,1,,,,,,,,,,,,,,,,,,0,13,13,50,1,,,,,,,,,,,,,,,,,,,,,,,
,,,,,WIN24_043,22,Female,2024-02-08_14h29.43.155,jersey_experiment_5,2023.2.2,Win32,84.74576271,,,,,,,,,,,,,,,,1368.2674,1370.0631,1370.0631,1371.9805,return,0.3553,,51.04166667,,,,,,FBP-PT-91.png,0.37,1.2,57,1,,,,,,,,,,,,,,,,,,0,14,14,56,1,,,,,,,,,,,,,,,,,,,,,,,
,,,,,WIN24_043,22,Female,2024-02-08_14h29.43.155,jersey_experiment_5,2023.2.2,Win32,84.74576271,,,,,,,,,,,,,,,,1371.9808,1373.7807,1373.7807,1380.2867,return,1.8689,,66.92708333,,,,,,FBP-OG-17.png,0.4,1.2,3,1,,,,,,,,,,,,,,,,,,0,15,15,2,1,,,,,,,,,,,,,,,,,,,,,,,
,,,,,WIN24_043,22,Female,2024-02-08_14h29.43.155,jersey_experiment_5,2023.2.2,Win32,84.74576271,,,,,,,,,,,,,,,,1380.2869,1382.0868,1382.0868,1384.8634,return,0.8854,,76.171875,,,,,,FBP-PT-71.png,0.43,1.2,49,1,,,,,,,,,,,,,,,,,,0,16,16,48,1,,,,,,,,,,,,,,,,,,,,,,,
,,,,,WIN24_043,22,Female,2024-02-08_14h29.43.155,jersey_experiment_5,2023.2.2,Win32,84.74576271,,,,,,,,,,,,,,,,1384.8637,1386.1575,1386.1576,1389.5929,return,0.8175,,52.86458333,,,,,,FBP-YG-18.png,0.4,1.2,38,0.5,,,,,,,,,,,,,,,,,,0,17,17,37,1,,,,,,,,,,,,,,,,,,,,,,,
,,,,,WIN24_043,22,Female,2024-02-08_14h29.43.155,jersey_experiment_5,2023.2.2,Win32,84.74576271,,,,,,,,,,,,,,,,1389.5932,1390.8871,1390.8871,1394.7932,return,2.0414,,71.22395833,,,,,,FBP-YG-17.png,0.43,1.2,34,0.5,,,,,,,,,,,,,,,,,,0,18,18,33,1,,,,,,,,,,,,,,,,,,,,,,,
,,,,,WIN24_043,22,Female,2024-02-08_14h29.43.155,jersey_experiment_5,2023.2.2,Win32,84.74576271,,,,,,,,,,,,,,,,1394.7933,1396.0873,1396.0873,1399.1344,return,0.8573,,76.953125,,,,,,FBP-RB-91.png,0.45,1.2,30,0.5,,,,,,,,,,,,,,,,,,0,19,19,29,1,,,,,,,,,,,,,,,,,,,,,,,
,,,,,WIN24_043,22,Female,2024-02-08_14h29.43.155,jersey_experiment_5,2023.2.2,Win32,84.74576271,,,,,,,,,,,,,,,,1399.1347,1400.4285,1400.4286,1405.1112,return,3.0665,,76.5625,,,,,,FBP-RB-91.png,0.43,1.2,29,0.5,,,,,,,,,,,,,,,,,,0,20,20,28,1,,,,,,,,,,,,,,,,,,,,,,,
,,,,,WIN24_043,22,Female,2024-02-08_14h29.43.155,jersey_experiment_5,2023.2.2,Win32,84.74576271,,,,,,,,,,,,,,,,1405.1156,1406.4171,1406.4171,1409.7113,return,0.72,,26.69270833,,,,,,FBP-YG-17.png,0.4,1.2,33,0.5,,,,,,,,,,,,,,,,,,0,21,21,32,1,,,,,,,,,,,,,,,,,,,,,,,
,,,,,WIN24_043,22,Female,2024-02-08_14h29.43.155,jersey_experiment_5,2023.2.2,Win32,84.74576271,,,,,,,,,,,,,,,,1409.7116,1411.5115,1411.5115,1413.6879,return,0.9702,,75.78125,,,,,,FBP-OG-18.png,0.45,1.2,10,1,,,,,,,,,,,,,,,,,,0,22,22,9,1,,,,,,,,,,,,,,,,,,,,,,,
,,,,,WIN24_043,22,Female,2024-02-08_14h29.43.155,jersey_experiment_5,2023.2.2,Win32,84.74576271,,,,,,,,,,,,,,,,1413.6882,1414.9821,1414.9821,1417.5822,return,1.0934,,76.5625,,,,,,FBP-YG-18.png,0.45,1.2,40,0.5,,,,,,,,,,,,,,,,,,0,23,23,39,1,,,,,,,,,,,,,,,,,,,,,,,
,,,,,WIN24_043,22,Female,2024-02-08_14h29.43.155,jersey_experiment_5,2023.2.2,Win32,84.74576271,,,,,,,,,,,,,,,,1417.5824,1418.8762,1418.8762,1421.7353,return,1.2902,,76.43229167,,,,,,FBP-RB-71.png,0.45,1.2,20,0.5,,,,,,,,,,,,,,,,,,0,24,24,19,1,,,,,,,,,,,,,,,,,,,,,,,
,,,,,WIN24_043,22,Female,2024-02-08_14h29.43.155,jersey_experiment_5,2023.2.2,Win32,84.74576271,,,,,,,,,,,,,,,,1421.7355,1423.0294,1423.0294,1425.5942,return,0.3224,,28.77604167,,,,,,FBP-YG-18.png,0.37,1.2,37,0.5,,,,,,,,,,,,,,,,,,0,25,25,36,1,,,,,,,,,,,,,,,,,,,,,,,
,,,,,WIN24_043,22,Female,2024-02-08_14h29.43.155,jersey_experiment_5,2023.2.2,Win32,84.74576271,,,,,,,,,,,,,,,,1425.5946,1426.8884,1426.8885,1428.9236,return,0.7796,,21.35416667,,,,,,FBP-RB-71.png,0.35,1.2,16,0.5,,,,,,,,,,,,,,,,,,0,26,26,15,1,,,,,,,,,,,,,,,,,,,,,,,
,,,,,WIN24_043,22,Female,2024-02-08_14h29.43.155,jersey_experiment_5,2023.2.2,Win32,84.74576271,,,,,,,,,,,,,,,,1428.9237,1430.724,1430.724,1433.1356,return,0.5512,,83.984375,,,,,,FBP-OG-17.png,0.45,1.2,5,1,,,,,,,,,,,,,,,,,,0,27,27,4,1,,,,,,,,,,,,,,,,,,,,,,,
,,,,,WIN24_043,22,Female,2024-02-08_14h29.43.155,jersey_experiment_5,2023.2.2,Win32,84.74576271,,,,,,,,,,,,,,,,1433.1359,1434.9359,1434.936,1436.6887,return,0.3168,,42.83854167,,,,,,FBP-OG-17.png,0.35,1.2,1,1,,,,,,,,,,,,,,,,,,0,28,28,0,1,,,,,,,,,,,,,,,,,,,,,,,
,,,,,WIN24_043,22,Female,2024-02-08_14h29.43.155,jersey_experiment_5,2023.2.2,Win32,84.74576271,,,,,,,,,,,,,,,,1436.6891,1437.9829,1437.9829,1440.63,return,0.3124,,27.34375,,,,,,FBP-YG-17.png,0.35,1.2,31,0.5,,,,,,,,,,,,,,,,,,0,29,29,30,1,,,,,,,,,,,,,,,,,,,,,,,
,,,,,WIN24_043,22,Female,2024-02-08_14h29.43.155,jersey_experiment_5,2023.2.2,Win32,84.74576271,,,,,,,,,,,,,,,,1440.6303,1442.4301,1442.4301,1444.1596,return,0.4375,,23.56770833,,,,,,FBP-OG-17.png,0.37,1.2,2,1,,,,,,,,,,,,,,,,,,0,30,30,1,1,,,,,,,,,,,,,,,,,,,,,,,
,,,,,WIN24_043,22,Female,2024-02-08_14h29.43.155,jersey_experiment_5,2023.2.2,Win32,84.74576271,,,,,,,,,,,,,,,,1444.1598,1445.9599,1445.9599,1447.6657,return,0.9174,,21.875,,,,,,FBP-OG-19.png,0.35,1.2,11,1,,,,,,,,,,,,,,,,,,0,31,31,10,1,,,,,,,,,,,,,,,,,,,,,,,
,,,,,WIN24_043,22,Female,2024-02-08_14h29.43.155,jersey_experiment_5,2023.2.2,Win32,84.74576271,,,,,,,,,,,,,,,,1447.6658,1449.4657,1449.4658,1451.6068,return,0.6057,,90.75520833,,,,,,FBP-PT-81.png,0.45,1.2,55,1,,,,,,,,,,,,,,,,,,0,32,32,54,1,,,,,,,,,,,,,,,,,,,,,,,
,,,,,WIN24_043,22,Female,2024-02-08_14h29.43.155,jersey_experiment_5,2023.2.2,Win32,84.74576271,,,,,,,,,,,,,,,,1451.6071,1452.901,1452.901,1456.9601,return,1.5199,,78.90625,,,,,,FBP-RB-91.png,0.4,1.2,28,0.5,,,,,,,,,,,,,,,,,,0,33,33,27,1,,,,,,,,,,,,,,,,,,,,,,,
,,,,,WIN24_043,22,Female,2024-02-08_14h29.43.155,jersey_experiment_5,2023.2.2,Win32,84.74576271,,,,,,,,,,,,,,,,1456.9603,1458.2543,1458.2543,1461.325,return,0.7076,,52.86458333,,,,,,FBP-RB-81.png,0.37,1.2,22,0.5,,,,,,,,,,,,,,,,,,0,34,34,21,1,,,,,,,,,,,,,,,,,,,,,,,
,,,,,WIN24_043,22,Female,2024-02-08_14h29.43.155,jersey_experiment_5,2023.2.2,Win32,84.74576271,,,,,,,,,,,,,,,,1461.3251,1462.6189,1462.6189,1464.925,return,0.9058,,44.79166667,,,,,,FBP-RB-81.png,0.35,1.2,21,0.5,,,,,,,,,,,,,,,,,,0,35,35,20,1,,,,,,,,,,,,,,,,,,,,,,,
,,,,,WIN24_043,22,Female,2024-02-08_14h29.43.155,jersey_experiment_5,2023.2.2,Win32,84.74576271,,,,,,,,,,,,,,,,1464.9253,1466.7252,1466.7252,1470.6077,return,0.485,,44.01041667,,,,,,FBP-OG-19.png,0.37,1.2,12,1,,,,,,,,,,,,,,,,,,0,36,36,11,1,,,,,,,,,,,,,,,,,,,,,,,
,,,,,WIN24_043,22,Female,2024-02-08_14h29.43.155,jersey_experiment_5,2023.2.2,Win32,84.74576271,,,,,,,,,,,,,,,,1470.6079,1471.9018,1471.9018,1474.6783,return,0.3367,,43.75,,,,,,FBP-YG-19.png,0.37,1.2,42,0.5,,,,,,,,,,,,,,,,,,0,37,37,41,1,,,,,,,,,,,,,,,,,,,,,,,
,,,,,WIN24_043,22,Female,2024-02-08_14h29.43.155,jersey_experiment_5,2023.2.2,Win32,84.74576271,,,,,,,,,,,,,,,,1474.6786,1476.4784,1476.4784,1478.5373,return,0.6995,,36.06770833,,,,,,FBP-PT-91.png,0.35,1.2,56,1,,,,,,,,,,,,,,,,,,0,38,38,55,1,,,,,,,,,,,,,,,,,,,,,,,
,,,,,WIN24_043,22,Female,2024-02-08_14h29.43.155,jersey_experiment_5,2023.2.2,Win32,84.74576271,,,,,,,,,,,,,,,,1478.5376,1479.8315,1479.8316,1482.0904,return,0.8258,,77.47395833,,,,,,FBP-RB-71.png,0.43,1.2,19,0.5,,,,,,,,,,,,,,,,,,0,39,39,18,1,,,,,,,,,,,,,,,,,,,,,,,
,,,,,WIN24_043,22,Female,2024-02-08_14h29.43.155,jersey_experiment_5,2023.2.2,Win32,84.74576271,,,,,,,,,,,,,,,,1482.0906,1483.8905,1483.8905,1485.8082,return,0.2826,,22.78645833,,,,,,FBP-PT-71.png,0.35,1.2,46,1,,,,,,,,,,,,,,,,,,0,40,40,45,1,,,,,,,,,,,,,,,,,,,,,,,
,,,,,WIN24_043,22,Female,2024-02-08_14h29.43.155,jersey_experiment_5,2023.2.2,Win32,84.74576271,,,,,,,,,,,,,,,,1485.8083,1487.1024,1487.1024,1489.2787,return,0.5649,,25,,,,,,FBP-YG-19.png,0.35,1.2,41,0.5,,,,,,,,,,,,,,,,,,0,41,41,40,1,,,,,,,,,,,,,,,,,,,,,,,
,,,,,WIN24_043,22,Female,2024-02-08_14h29.43.155,jersey_experiment_5,2023.2.2,Win32,84.74576271,,,,,,,,,,,,,,,,1489.2792,1491.079,1491.079,1494.1849,return,0.9589,,59.24479167,,,,,,FBP-PT-81.png,0.4,1.2,53,1,,,,,,,,,,,,,,,,,,0,42,42,52,1,,,,,,,,,,,,,,,,,,,,,,,
,,,,,WIN24_043,22,Female,2024-02-08_14h29.43.155,jersey_experiment_5,2023.2.2,Win32,84.74576271,,,,,,,,,,,,,,,,1494.1852,1495.985,1495.985,1498.2557,return,0.5884,,56.640625,,,,,,FBP-PT-71.png,0.37,1.2,47,1,,,,,,,,,,,,,,,,,,0,43,43,46,1,,,,,,,,,,,,,,,,,,,,,,,
,,,,,WIN24_043,22,Female,2024-02-08_14h29.43.155,jersey_experiment_5,2023.2.2,Win32,84.74576271,,,,,,,,,,,,,,,,1498.2559,1500.0558,1500.0558,1502.3969,return,1.0021,,73.4375,,,,,,FBP-PT-91.png,0.4,1.2,58,1,,,,,,,,,,,,,,,,,,0,44,44,57,1,,,,,,,,,,,,,,,,,,,,,,,
,,,,,WIN24_043,22,Female,2024-02-08_14h29.43.155,jersey_experiment_5,2023.2.2,Win32,84.74576271,,,,,,,,,,,,,,,,1502.3972,1504.1968,1504.1969,1506.4089,return,0.5096,,75.65104167,,,,,,FBP-PT-81.png,0.37,1.2,52,1,,,,,,,,,,,,,,,,,,0,45,45,51,1,,,,,,,,,,,,,,,,,,,,,,,
,,,,,WIN24_043,22,Female,2024-02-08_14h29.43.155,jersey_experiment_5,2023.2.2,Win32,84.74576271,,,,,,,,,,,,,,,,1506.4091,1508.2089,1508.2089,1510.1031,return,0.4171,,76.5625,,,,,,FBP-OG-18.png,0.4,1.2,8,1,,,,,,,,,,,,,,,,,,0,46,46,7,1,,,,,,,,,,,,,,,,,,,,,,,
,,,,,WIN24_043,22,Female,2024-02-08_14h29.43.155,jersey_experiment_5,2023.2.2,Win32,84.74576271,,,,,,,,,,,,,,,,1510.1034,1511.9033,1511.9033,1513.6562,return,0.5574,,87.76041667,,,,,,FBP-OG-19.png,0.45,1.2,15,1,,,,,,,,,,,,,,,,,,0,47,47,14,1,,,,,,,,,,,,,,,,,,,,,,,
,,,,,WIN24_043,22,Female,2024-02-08_14h29.43.155,jersey_experiment_5,2023.2.2,Win32,84.74576271,,,,,,,,,,,,,,,,1513.6564,1514.9504,1514.9504,1519.0683,return,0.8359,,90.625,,,,,,FBP-RB-81.png,0.45,1.2,25,0.5,,,,,,,,,,,,,,,,,,0,48,48,24,1,,,,,,,,,,,,,,,,,,,,,,,
,,,,,WIN24_043,22,Female,2024-02-08_14h29.43.155,jersey_experiment_5,2023.2.2,Win32,84.74576271,,,,,,,,,,,,,,,,1519.0686,1520.8682,1520.8682,1523.3742,return,0.4714,,27.734375,,,,,,FBP-OG-18.png,0.35,1.2,6,1,,,,,,,,,,,,,,,,,,0,49,49,5,1,,,,,,,,,,,,,,,,,,,,,,,
,,,,,WIN24_043,22,Female,2024-02-08_14h29.43.155,jersey_experiment_5,2023.2.2,Win32,84.74576271,,,,,,,,,,,,,,,,1523.3745,1524.6684,1524.6684,1527.7978,return,0.2208,,28.38541667,,,,,,FBP-YG-17.png,0.37,1.2,32,0.5,,,,,,,,,,,,,,,,,,0,50,50,31,1,,,,,,,,,,,,,,,,,,,,,,,
,,,,,WIN24_043,22,Female,2024-02-08_14h29.43.155,jersey_experiment_5,2023.2.2,Win32,84.74576271,,,,,,,,,,,,,,,,1527.7981,1529.5979,1529.598,1531.4687,return,0.5065,,76.82291667,,,,,,FBP-PT-71.png,0.45,1.2,50,1,,,,,,,,,,,,,,,,,,0,51,51,49,1,,,,,,,,,,,,,,,,,,,,,,,
,,,,,WIN24_043,22,Female,2024-02-08_14h29.43.155,jersey_experiment_5,2023.2.2,Win32,84.74576271,,,,,,,,,,,,,,,,1531.4689,1533.2688,1533.2688,1534.8923,return,0.1318,,82.94270833,,,,,,FBP-PT-91.png,0.45,1.2,60,1,,,,,,,,,,,,,,,,,,0,52,52,59,1,,,,,,,,,,,,,,,,,,,,,,,
,,,,,WIN24_043,22,Female,2024-02-08_14h29.43.155,jersey_experiment_5,2023.2.2,Win32,84.74576271,,,,,,,,,,,,,,,,1534.8926,1536.6923,1536.6923,1540.9982,return,0.9122,,21.09375,,,,,,FBP-OG-18.png,0.37,1.2,7,1,,,,,,,,,,,,,,,,,,0,53,53,6,1,,,,,,,,,,,,,,,,,,,,,,,
,,,,,WIN24_043,22,Female,2024-02-08_14h29.43.155,jersey_experiment_5,2023.2.2,Win32,84.74576271,,,,,,,,,,,,,,,,1540.9985,1542.2924,1542.2924,1544.9986,return,1.1944,,77.08333333,,,,,,FBP-YG-18.png,0.43,1.2,39,0.5,,,,,,,,,,,,,,,,,,0,54,54,38,1,,,,,,,,,,,,,,,,,,,,,,,
,,,,,WIN24_043,22,Female,2024-02-08_14h29.43.155,jersey_experiment_5,2023.2.2,Win32,84.74576271,,,,,,,,,,,,,,,,1544.9988,1546.2926,1546.2926,1549.5163,return,0.7788,,67.44791667,,,,,,FBP-RB-71.png,0.4,1.2,18,0.5,,,,,,,,,,,,,,,,,,0,55,55,17,1,,,,,,,,,,,,,,,,,,,,,,,
,,,,,WIN24_043,22,Female,2024-02-08_14h29.43.155,jersey_experiment_5,2023.2.2,Win32,84.74576271,,,,,,,,,,,,,,,,1549.5166,1550.8103,1550.8103,1552.9988,return,0.441,,66.40625,,,,,,FBP-RB-81.png,0.4,1.2,23,0.5,,,,,,,,,,,,,,,,,,0,56,56,22,1,,,,,,,,,,,,,,,,,,,,,,,
,,,,,WIN24_043,22,Female,2024-02-08_14h29.43.155,jersey_experiment_5,2023.2.2,Win32,84.74576271,,,,,,,,,,,,,,,,1552.999,1554.2929,1554.2929,1558.1284,return,0.5411,,53.515625,,,,,,FBP-YG-19.png,0.4,1.2,43,0.5,,,,,,,,,,,,,,,,,,0,57,57,42,1,,,,,,,,,,,,,,,,,,,,,,,
,,,,,WIN24_043,22,Female,2024-02-08_14h29.43.155,jersey_experiment_5,2023.2.2,Win32,84.74576271,,,,,,,,,,,,,,,,1558.1286,1559.4224,1559.4224,1564.7286,return,0.9829,,40.88541667,,,,,,FBP-RB-91.png,0.37,1.2,27,0.5,,,,,,,,,,,,,,,,,,0,58,58,26,1,,,,,,,,,,,,,,,,,,,,,,,
,,,,,WIN24_043,22,Female,2024-02-08_14h29.43.155,jersey_experiment_5,2023.2.2,Win32,84.74576271,,,,,,,,,,,,,,,,1564.7288,1566.0227,1566.0228,1569.9642,return,1.4378,,73.69791667,,,,,,FBP-YG-19.png,0.43,1.2,44,0.5,,,,,,,,,,,,,,,,,,0,59,59,43,1,,,,,,,,,,,,,,,,,,,,,,,
,,,,,WIN24_043,22,Female,2024-02-08_14h29.43.155,jersey_experiment_5,2023.2.2,Win32,84.74576271,,,,,,,,,,,,,,,,,,,,,,,,,,,,,,,,,,,,,,,,,,,,,,,,,,,,,,,,1569.9647,1576.9295,return,6.9508,,,,,,,,,,,,,,,,,,,
,,,,,WIN24_043,22,Female,2024-02-08_14h29.43.155,jersey_experiment_5,2023.2.2,Win32,84.74576271,,,,,,,,,,,,,,,,,,,,,,,,,,,,,,,,,,,,,,,,,,,,,,,,,,,,,,,,,,,,,1576.9296,1583.1295,1,4.3862,return,1.7912,,,,,,,,,,,,
,,,,,WIN24_043,22,Female,2024-02-08_14h29.43.155,jersey_experiment_5,2023.2.2,Win32,84.74576271,,,,,,,,,,,,,,,,,,,,,,,,,,,,,,,,,,,,,,,,,,,,,,,,,,,,,,,,,,,,,,,,,,,,1583.1296,1682.3779,To see if the human eye can detect subtle changes. A pattern I saw was the skin tone of the football players. Maybe the experiment was about if people perceive body type differently when the skin is lighter vs darker.,right,89.391,,,,,,
,,,,,WIN24_043,22,Female,2024-02-08_14h29.43.155,jersey_experiment_5,2023.2.2,Win32,84.74576271,,,,,,,,,,,,,,,,,,,,,,,,,,,,,,,,,,,,,,,,,,,,,,,,,,,,,,,,,,,,,,,,,,,,,,,,,,1682.378,1699.675,return,17.286,