requirements.started,requirements.stopped,key_resp_3.keys,key_resp_3.rt,key_resp_3.duration,Subject ID,Age,Gender,date,expName,psychopyVersion,OS,frameRate,instructions1.started,instructions1.stopped,key_resp.keys,key_resp.rt,key_resp.duration,example.started,example.stopped,enter_2.keys,enter_2.rt,enter_2.duration,instructions2.started,instructions2.stopped,enter_3.keys,enter_3.rt,enter_3.duration,image.started,image.stopped,slider_2.started,slider_2.stopped,next.keys,next.rt,next.duration,slider.response,trial_block_1.thisRepN,trial_block_1.thisTrialN,trial_block_1.thisN,trial_block_1.thisIndex,trial_block_1.ran,Path,Width,Height,Index,Duration,trial_block_2.thisRepN,trial_block_2.thisTrialN,trial_block_2.thisN,trial_block_2.thisIndex,trial_block_2.ran,rest_break.started,rest_break.stopped,end_break.started,end_break.stopped,key_resp_5.keys,key_resp_5.rt,key_resp_5.duration,trial_block_3.thisRepN,trial_block_3.thisTrialN,trial_block_3.thisN,trial_block_3.thisIndex,trial_block_3.ran,trial_block_4.thisRepN,trial_block_4.thisTrialN,trial_block_4.thisN,trial_block_4.thisIndex,trial_block_4.ran,questions_intro.started,questions_intro.stopped,enter_12.keys,enter_12.rt,enter_12.duration,question2.started,question2.stopped,question_doingbest.response,question_doingbest.rt,enter_15.keys,enter_15.rt,enter_15.duration,pattern.started,pattern.stopped,pattern_2.text,enter_17.keys,enter_17.rt,enter_17.duration,thankyou.started,thankyou.stopped,enter_14.keys,enter_14.rt,enter_14.duration
0.0002,13.9488,return,13.9385,,WIN24_067,24,female,2024-02-22_15h05.04.560,jersey_experiment_5,2023.2.2,Win32,84.74576271,,,,,,,,,,,,,,,,,,,,,,,,,,,,,,,,,,,,,,,,,,,,,,,,,,,,,,,,,,,,,,,,,,,,,,,,,,,,,,
,,,,,WIN24_067,24,female,2024-02-22_15h05.04.560,jersey_experiment_5,2023.2.2,Win32,84.74576271,13.9489,28.2669,return,14.2981,,,,,,,,,,,,,,,,,,,,,,,,,,,,,,,,,,,,,,,,,,,,,,,,,,,,,,,,,,,,,,,,,,,,,,,,,,
,,,,,WIN24_067,24,female,2024-02-22_15h05.04.560,jersey_experiment_5,2023.2.2,Win32,84.74576271,,,,,,28.2669,36.2671,return,7.964,,,,,,,,,,,,,,,,,,,,,,,,,,,,,,,,,,,,,,,,,,,,,,,,,,,,,,,,,,,,,,,,,,,,,
,,,,,WIN24_067,24,female,2024-02-22_15h05.04.560,jersey_experiment_5,2023.2.2,Win32,84.74576271,,,,,,,,,,,36.2672,67.0566,return,30.7764,,,,,,,,,,,,,,,,,,,,,,,,,,,,,,,,,,,,,,,,,,,,,,,,,,,,,,,,,,,,,,,,
,,,,,WIN24_067,24,female,2024-02-22_15h05.04.560,jersey_experiment_5,2023.2.2,Win32,84.74576271,,,,,,,,,,,,,,,,67.0631,68.8562,68.8563,73.6565,return,1.7485,,75,0,0,0,15,1,FBP-RB-17.png,0.35,1.2,16,1,,,,,,,,,,,,,,,,,,,,,,,,,,,,,,,,,,,,,,,,,,,,,
,,,,,WIN24_067,24,female,2024-02-22_15h05.04.560,jersey_experiment_5,2023.2.2,Win32,84.74576271,,,,,,,,,,,,,,,,73.6568,74.9506,74.9506,76.9742,return,0.6471,,25.13020833,0,1,1,51,1,FBP-PT-18.png,0.37,1.2,52,0.5,,,,,,,,,,,,,,,,,,,,,,,,,,,,,,,,,,,,,,,,,,,,,
,,,,,WIN24_067,24,female,2024-02-22_15h05.04.560,jersey_experiment_5,2023.2.2,Win32,84.74576271,,,,,,,,,,,,,,,,76.9744,78.2684,78.2684,80.8332,return,0.8569,,74.21875,0,2,2,48,1,FBP-PT-17.png,0.43,1.2,49,0.5,,,,,,,,,,,,,,,,,,,,,,,,,,,,,,,,,,,,,,,,,,,,,
,,,,,WIN24_067,24,female,2024-02-22_15h05.04.560,jersey_experiment_5,2023.2.2,Win32,84.74576271,,,,,,,,,,,,,,,,80.8333,82.6334,82.6334,83.9041,return,0.6358,,74.21875,0,3,3,19,1,FBP-RB-17.png,0.45,1.2,20,1,,,,,,,,,,,,,,,,,,,,,,,,,,,,,,,,,,,,,,,,,,,,,
,,,,,WIN24_067,24,female,2024-02-22_15h05.04.560,jersey_experiment_5,2023.2.2,Win32,84.74576271,,,,,,,,,,,,,,,,83.9043,85.198,85.1981,86.704,return,0.5789,,74.34895833,0,4,4,54,1,FBP-PT-18.png,0.45,1.2,55,0.5,,,,,,,,,,,,,,,,,,,,,,,,,,,,,,,,,,,,,,,,,,,,,
,,,,,WIN24_067,24,female,2024-02-22_15h05.04.560,jersey_experiment_5,2023.2.2,Win32,84.74576271,,,,,,,,,,,,,,,,86.7042,87.9983,87.9983,89.657,return,0.5718,,25.390625,0,5,5,50,1,FBP-PT-18.png,0.35,1.2,51,0.5,,,,,,,,,,,,,,,,,,,,,,,,,,,,,,,,,,,,,,,,,,,,,
,,,,,WIN24_067,24,female,2024-02-22_15h05.04.560,jersey_experiment_5,2023.2.2,Win32,84.74576271,,,,,,,,,,,,,,,,89.6572,90.9513,90.9513,92.6689,return,0.4602,,73.95833333,0,6,6,3,1,FBP-OG-71.png,0.43,1.2,4,0.5,,,,,,,,,,,,,,,,,,,,,,,,,,,,,,,,,,,,,,,,,,,,,
,,,,,WIN24_067,24,female,2024-02-22_15h05.04.560,jersey_experiment_5,2023.2.2,Win32,84.74576271,,,,,,,,,,,,,,,,92.6691,94.469,94.469,95.7044,return,0.4409,,24.08854167,0,7,7,40,1,FBP-YG-91.png,0.35,1.2,41,1,,,,,,,,,,,,,,,,,,,,,,,,,,,,,,,,,,,,,,,,,,,,,
,,,,,WIN24_067,24,female,2024-02-22_15h05.04.560,jersey_experiment_5,2023.2.2,Win32,84.74576271,,,,,,,,,,,,,,,,95.7046,97.5046,97.5046,98.5397,return,0.426,,74.08854167,0,8,8,18,1,FBP-RB-17.png,0.43,1.2,19,1,,,,,,,,,,,,,,,,,,,,,,,,,,,,,,,,,,,,,,,,,,,,,
,,,,,WIN24_067,24,female,2024-02-22_15h05.04.560,jersey_experiment_5,2023.2.2,Win32,84.74576271,,,,,,,,,,,,,,,,98.54,99.8339,99.8339,101.787,return,0.3698,,24.73958333,0,9,9,7,1,FBP-OG-81.png,0.4,1.2,8,0.5,,,,,,,,,,,,,,,,,,,,,,,,,,,,,,,,,,,,,,,,,,,,,
,,,,,WIN24_067,24,female,2024-02-22_15h05.04.560,jersey_experiment_5,2023.2.2,Win32,84.74576271,,,,,,,,,,,,,,,,101.7872,103.587,103.587,105.3281,return,1.365,,74.86979167,0,10,10,31,1,FBP-YG-71.png,0.37,1.2,32,1,,,,,,,,,,,,,,,,,,,,,,,,,,,,,,,,,,,,,,,,,,,,,
,,,,,WIN24_067,24,female,2024-02-22_15h05.04.560,jersey_experiment_5,2023.2.2,Win32,84.74576271,,,,,,,,,,,,,,,,105.3282,106.6224,106.6224,107.9165,return,0.1308,,74.86979167,0,11,11,55,1,FBP-PT-19.png,0.35,1.2,56,0.5,,,,,,,,,,,,,,,,,,,,,,,,,,,,,,,,,,,,,,,,,,,,,
,,,,,WIN24_067,24,female,2024-02-22_15h05.04.560,jersey_experiment_5,2023.2.2,Win32,84.74576271,,,,,,,,,,,,,,,,107.9166,109.7167,109.7168,110.6225,return,0.129,,25.65104167,0,12,12,20,1,FBP-RB-18.png,0.35,1.2,21,1,,,,,,,,,,,,,,,,,,,,,,,,,,,,,,,,,,,,,,,,,,,,,
,,,,,WIN24_067,24,female,2024-02-22_15h05.04.560,jersey_experiment_5,2023.2.2,Win32,84.74576271,,,,,,,,,,,,,,,,110.6227,111.9167,111.9167,112.5049,return,0.1952,,25.65104167,0,13,13,6,1,FBP-OG-81.png,0.37,1.2,7,0.5,,,,,,,,,,,,,,,,,,,,,,,,,,,,,,,,,,,,,,,,,,,,,
,,,,,WIN24_067,24,female,2024-02-22_15h05.04.560,jersey_experiment_5,2023.2.2,Win32,84.74576271,,,,,,,,,,,,,,,,112.5052,113.7991,113.7991,114.6816,return,0.1594,,73.828125,0,14,14,9,1,FBP-OG-81.png,0.45,1.2,10,0.5,,,,,,,,,,,,,,,,,,,,,,,,,,,,,,,,,,,,,,,,,,,,,
,,,,,WIN24_067,24,female,2024-02-22_15h05.04.560,jersey_experiment_5,2023.2.2,Win32,84.74576271,,,,,,,,,,,,,,,,114.6818,116.4817,116.4817,117.1757,return,0.1375,,99.34895833,0,15,15,29,1,FBP-RB-19.png,0.45,1.2,30,1,,,,,,,,,,,,,,,,,,,,,,,,,,,,,,,,,,,,,,,,,,,,,
,,,,,WIN24_067,24,female,2024-02-22_15h05.04.560,jersey_experiment_5,2023.2.2,Win32,84.74576271,,,,,,,,,,,,,,,,117.176,118.4699,118.4699,119.4817,return,0.1463,,25.26041667,0,16,16,1,1,FBP-OG-71.png,0.37,1.2,2,0.5,,,,,,,,,,,,,,,,,,,,,,,,,,,,,,,,,,,,,,,,,,,,,
,,,,,WIN24_067,24,female,2024-02-22_15h05.04.560,jersey_experiment_5,2023.2.2,Win32,84.74576271,,,,,,,,,,,,,,,,119.4819,121.2817,121.2817,121.964,return,0.1213,,74.21875,0,17,17,23,1,FBP-RB-18.png,0.43,1.2,24,1,,,,,,,,,,,,,,,,,,,,,,,,,,,,,,,,,,,,,,,,,,,,,
,,,,,WIN24_067,24,female,2024-02-22_15h05.04.560,jersey_experiment_5,2023.2.2,Win32,84.74576271,,,,,,,,,,,,,,,,121.9643,123.7642,123.7642,124.7053,return,0.1786,,24.34895833,0,18,18,16,1,FBP-RB-17.png,0.37,1.2,17,1,,,,,,,,,,,,,,,,,,,,,,,,,,,,,,,,,,,,,,,,,,,,,
,,,,,WIN24_067,24,female,2024-02-22_15h05.04.560,jersey_experiment_5,2023.2.2,Win32,84.74576271,,,,,,,,,,,,,,,,124.7056,126.5055,126.5055,127.2114,return,0.132,,75.390625,0,19,19,33,1,FBP-YG-71.png,0.43,1.2,34,1,,,,,,,,,,,,,,,,,,,,,,,,,,,,,,,,,,,,,,,,,,,,,
,,,,,WIN24_067,24,female,2024-02-22_15h05.04.560,jersey_experiment_5,2023.2.2,Win32,84.74576271,,,,,,,,,,,,,,,,127.2116,128.5055,128.5055,129.3761,return,0.094,,25.65104167,0,20,20,10,1,FBP-OG-91.png,0.35,1.2,11,0.5,,,,,,,,,,,,,,,,,,,,,,,,,,,,,,,,,,,,,,,,,,,,,
,,,,,WIN24_067,24,female,2024-02-22_15h05.04.560,jersey_experiment_5,2023.2.2,Win32,84.74576271,,,,,,,,,,,,,,,,129.3763,130.6704,130.6704,131.741,return,0.1088,,26.30208333,0,21,21,56,1,FBP-PT-19.png,0.37,1.2,57,0.5,,,,,,,,,,,,,,,,,,,,,,,,,,,,,,,,,,,,,,,,,,,,,
,,,,,WIN24_067,24,female,2024-02-22_15h05.04.560,jersey_experiment_5,2023.2.2,Win32,84.74576271,,,,,,,,,,,,,,,,131.7412,133.5411,133.5412,134.4469,return,0.084,,76.04166667,0,22,22,28,1,FBP-RB-19.png,0.43,1.2,29,1,,,,,,,,,,,,,,,,,,,,,,,,,,,,,,,,,,,,,,,,,,,,,
,,,,,WIN24_067,24,female,2024-02-22_15h05.04.560,jersey_experiment_5,2023.2.2,Win32,84.74576271,,,,,,,,,,,,,,,,134.4472,136.247,136.247,137.8707,return,0.176,,24.73958333,0,23,23,30,1,FBP-YG-71.png,0.35,1.2,31,1,,,,,,,,,,,,,,,,,,,,,,,,,,,,,,,,,,,,,,,,,,,,,
,,,,,WIN24_067,24,female,2024-02-22_15h05.04.560,jersey_experiment_5,2023.2.2,Win32,84.74576271,,,,,,,,,,,,,,,,137.871,139.6708,139.6708,140.5295,return,0.2448,,79.6875,0,24,24,34,1,FBP-YG-71.png,0.45,1.2,35,1,,,,,,,,,,,,,,,,,,,,,,,,,,,,,,,,,,,,,,,,,,,,,
,,,,,WIN24_067,24,female,2024-02-22_15h05.04.560,jersey_experiment_5,2023.2.2,Win32,84.74576271,,,,,,,,,,,,,,,,140.5297,141.8235,141.8236,142.8119,return,0.1452,,76.43229167,0,25,25,49,1,FBP-PT-17.png,0.45,1.2,50,0.5,,,,,,,,,,,,,,,,,,,,,,,,,,,,,,,,,,,,,,,,,,,,,
,,,,,WIN24_067,24,female,2024-02-22_15h05.04.560,jersey_experiment_5,2023.2.2,Win32,84.74576271,,,,,,,,,,,,,,,,142.8121,144.612,144.612,145.7061,return,0.2643,,73.69791667,0,26,26,22,1,FBP-RB-18.png,0.4,1.2,23,1,,,,,,,,,,,,,,,,,,,,,,,,,,,,,,,,,,,,,,,,,,,,,
,,,,,WIN24_067,24,female,2024-02-22_15h05.04.560,jersey_experiment_5,2023.2.2,Win32,84.74576271,,,,,,,,,,,,,,,,145.7064,147.5064,147.5064,148.071,return,0.0916,,25.390625,0,27,27,37,1,FBP-YG-81.png,0.4,1.2,38,1,,,,,,,,,,,,,,,,,,,,,,,,,,,,,,,,,,,,,,,,,,,,,
,,,,,WIN24_067,24,female,2024-02-22_15h05.04.560,jersey_experiment_5,2023.2.2,Win32,84.74576271,,,,,,,,,,,,,,,,148.0712,149.3652,149.3652,151.0004,return,0.1487,,55.59895833,0,28,28,13,1,FBP-OG-91.png,0.43,1.2,14,0.5,,,,,,,,,,,,,,,,,,,,,,,,,,,,,,,,,,,,,,,,,,,,,
,,,,,WIN24_067,24,female,2024-02-22_15h05.04.560,jersey_experiment_5,2023.2.2,Win32,84.74576271,,,,,,,,,,,,,,,,151.0006,152.2945,152.2946,155.2594,return,0.0988,,52.47395833,0,29,29,12,1,FBP-OG-91.png,0.4,1.2,13,0.5,,,,,,,,,,,,,,,,,,,,,,,,,,,,,,,,,,,,,,,,,,,,,
,,,,,WIN24_067,24,female,2024-02-22_15h05.04.560,jersey_experiment_5,2023.2.2,Win32,84.74576271,,,,,,,,,,,,,,,,155.2597,157.0597,157.0597,157.7537,return,0.1339,,25.65104167,0,30,30,36,1,FBP-YG-81.png,0.37,1.2,37,1,,,,,,,,,,,,,,,,,,,,,,,,,,,,,,,,,,,,,,,,,,,,,
,,,,,WIN24_067,24,female,2024-02-22_15h05.04.560,jersey_experiment_5,2023.2.2,Win32,84.74576271,,,,,,,,,,,,,,,,157.7539,159.0477,159.0478,159.6596,return,0.0277,,32.8125,0,31,31,46,1,FBP-PT-17.png,0.37,1.2,47,0.5,,,,,,,,,,,,,,,,,,,,,,,,,,,,,,,,,,,,,,,,,,,,,
,,,,,WIN24_067,24,female,2024-02-22_15h05.04.560,jersey_experiment_5,2023.2.2,Win32,84.74576271,,,,,,,,,,,,,,,,159.6599,161.4598,161.4598,162.3774,return,0.1459,,75.65104167,0,32,32,24,1,FBP-RB-18.png,0.45,1.2,25,1,,,,,,,,,,,,,,,,,,,,,,,,,,,,,,,,,,,,,,,,,,,,,
,,,,,WIN24_067,24,female,2024-02-22_15h05.04.560,jersey_experiment_5,2023.2.2,Win32,84.74576271,,,,,,,,,,,,,,,,162.3777,164.1776,164.1776,165.6951,return,0.0839,,55.72916667,0,33,33,17,1,FBP-RB-17.png,0.4,1.2,18,1,,,,,,,,,,,,,,,,,,,,,,,,,,,,,,,,,,,,,,,,,,,,,
,,,,,WIN24_067,24,female,2024-02-22_15h05.04.560,jersey_experiment_5,2023.2.2,Win32,84.74576271,,,,,,,,,,,,,,,,165.6952,166.9893,166.9893,167.9541,return,0.1181,,73.95833333,0,34,34,53,1,FBP-PT-18.png,0.43,1.2,54,0.5,,,,,,,,,,,,,,,,,,,,,,,,,,,,,,,,,,,,,,,,,,,,,
,,,,,WIN24_067,24,female,2024-02-22_15h05.04.560,jersey_experiment_5,2023.2.2,Win32,84.74576271,,,,,,,,,,,,,,,,167.9544,169.754,169.7541,170.1424,return,0.1076,,73.95833333,0,35,35,38,1,FBP-YG-81.png,0.43,1.2,39,1,,,,,,,,,,,,,,,,,,,,,,,,,,,,,,,,,,,,,,,,,,,,,
,,,,,WIN24_067,24,female,2024-02-22_15h05.04.560,jersey_experiment_5,2023.2.2,Win32,84.74576271,,,,,,,,,,,,,,,,170.1426,171.9426,171.9426,172.5777,return,0.1415,,42.1875,0,36,36,42,1,FBP-YG-91.png,0.4,1.2,43,1,,,,,,,,,,,,,,,,,,,,,,,,,,,,,,,,,,,,,,,,,,,,,
,,,,,WIN24_067,24,female,2024-02-22_15h05.04.560,jersey_experiment_5,2023.2.2,Win32,84.74576271,,,,,,,,,,,,,,,,172.578,173.8719,173.8719,174.8484,return,0.1309,,26.69270833,0,37,37,2,1,FBP-OG-71.png,0.4,1.2,3,0.5,,,,,,,,,,,,,,,,,,,,,,,,,,,,,,,,,,,,,,,,,,,,,
,,,,,WIN24_067,24,female,2024-02-22_15h05.04.560,jersey_experiment_5,2023.2.2,Win32,84.74576271,,,,,,,,,,,,,,,,174.8487,176.6485,176.6486,177.2485,return,0.0841,,74.86979167,0,38,38,39,1,FBP-YG-81.png,0.45,1.2,40,1,,,,,,,,,,,,,,,,,,,,,,,,,,,,,,,,,,,,,,,,,,,,,
,,,,,WIN24_067,24,female,2024-02-22_15h05.04.560,jersey_experiment_5,2023.2.2,Win32,84.74576271,,,,,,,,,,,,,,,,177.2488,178.5426,178.5426,179.0838,return,0.0724,,74.86979167,0,39,39,14,1,FBP-OG-91.png,0.45,1.2,15,0.5,,,,,,,,,,,,,,,,,,,,,,,,,,,,,,,,,,,,,,,,,,,,,
,,,,,WIN24_067,24,female,2024-02-22_15h05.04.560,jersey_experiment_5,2023.2.2,Win32,84.74576271,,,,,,,,,,,,,,,,179.0841,180.3781,180.3781,180.8252,return,0.0655,,74.86979167,0,40,40,58,1,FBP-PT-19.png,0.43,1.2,59,0.5,,,,,,,,,,,,,,,,,,,,,,,,,,,,,,,,,,,,,,,,,,,,,
,,,,,WIN24_067,24,female,2024-02-22_15h05.04.560,jersey_experiment_5,2023.2.2,Win32,84.74576271,,,,,,,,,,,,,,,,180.8253,182.1193,182.1193,183.037,return,0.2029,,22.65625,0,41,41,11,1,FBP-OG-91.png,0.37,1.2,12,0.5,,,,,,,,,,,,,,,,,,,,,,,,,,,,,,,,,,,,,,,,,,,,,
,,,,,WIN24_067,24,female,2024-02-22_15h05.04.560,jersey_experiment_5,2023.2.2,Win32,84.74576271,,,,,,,,,,,,,,,,183.0373,184.837,184.837,185.4724,return,0.1176,,74.609375,0,42,42,44,1,FBP-YG-91.png,0.45,1.2,45,1,,,,,,,,,,,,,,,,,,,,,,,,,,,,,,,,,,,,,,,,,,,,,
,,,,,WIN24_067,24,female,2024-02-22_15h05.04.560,jersey_experiment_5,2023.2.2,Win32,84.74576271,,,,,,,,,,,,,,,,185.4725,186.7664,186.7665,187.3547,return,0.1798,,74.609375,0,43,43,4,1,FBP-OG-71.png,0.45,1.2,5,0.5,,,,,,,,,,,,,,,,,,,,,,,,,,,,,,,,,,,,,,,,,,,,,
,,,,,WIN24_067,24,female,2024-02-22_15h05.04.560,jersey_experiment_5,2023.2.2,Win32,84.74576271,,,,,,,,,,,,,,,,187.3548,189.155,189.155,189.7431,return,0.1073,,25.91145833,0,44,44,27,1,FBP-RB-19.png,0.4,1.2,28,1,,,,,,,,,,,,,,,,,,,,,,,,,,,,,,,,,,,,,,,,,,,,,
,,,,,WIN24_067,24,female,2024-02-22_15h05.04.560,jersey_experiment_5,2023.2.2,Win32,84.74576271,,,,,,,,,,,,,,,,189.7433,191.0373,191.0373,192.0726,return,0.1467,,60.02604167,0,45,45,8,1,FBP-OG-81.png,0.43,1.2,9,0.5,,,,,,,,,,,,,,,,,,,,,,,,,,,,,,,,,,,,,,,,,,,,,
,,,,,WIN24_067,24,female,2024-02-22_15h05.04.560,jersey_experiment_5,2023.2.2,Win32,84.74576271,,,,,,,,,,,,,,,,192.0729,193.8726,193.8726,194.7786,return,0.169,,28.125,0,46,46,21,1,FBP-RB-18.png,0.37,1.2,22,1,,,,,,,,,,,,,,,,,,,,,,,,,,,,,,,,,,,,,,,,,,,,,
,,,,,WIN24_067,24,female,2024-02-22_15h05.04.560,jersey_experiment_5,2023.2.2,Win32,84.74576271,,,,,,,,,,,,,,,,194.7789,196.0728,196.0728,197.3551,return,0.24,,1.692708333,0,47,47,45,1,FBP-PT-17.png,0.35,1.2,46,0.5,,,,,,,,,,,,,,,,,,,,,,,,,,,,,,,,,,,,,,,,,,,,,
,,,,,WIN24_067,24,female,2024-02-22_15h05.04.560,jersey_experiment_5,2023.2.2,Win32,84.74576271,,,,,,,,,,,,,,,,197.3553,199.1553,199.1553,200.3788,return,0.1445,,1.041666667,0,48,48,41,1,FBP-YG-91.png,0.37,1.2,42,1,,,,,,,,,,,,,,,,,,,,,,,,,,,,,,,,,,,,,,,,,,,,,
,,,,,WIN24_067,24,female,2024-02-22_15h05.04.560,jersey_experiment_5,2023.2.2,Win32,84.74576271,,,,,,,,,,,,,,,,200.379,201.673,201.673,202.8495,return,0.1079,,28.38541667,0,49,49,57,1,FBP-PT-19.png,0.4,1.2,58,0.5,,,,,,,,,,,,,,,,,,,,,,,,,,,,,,,,,,,,,,,,,,,,,
,,,,,WIN24_067,24,female,2024-02-22_15h05.04.560,jersey_experiment_5,2023.2.2,Win32,84.74576271,,,,,,,,,,,,,,,,202.8496,204.6495,204.6495,205.3554,return,0.1329,,36.71875,0,50,50,25,1,FBP-RB-19.png,0.35,1.2,26,1,,,,,,,,,,,,,,,,,,,,,,,,,,,,,,,,,,,,,,,,,,,,,
,,,,,WIN24_067,24,female,2024-02-22_15h05.04.560,jersey_experiment_5,2023.2.2,Win32,84.74576271,,,,,,,,,,,,,,,,205.3556,206.6497,206.6497,207.6496,return,0.1663,,1.432291667,0,51,51,5,1,FBP-OG-81.png,0.35,1.2,6,0.5,,,,,,,,,,,,,,,,,,,,,,,,,,,,,,,,,,,,,,,,,,,,,
,,,,,WIN24_067,24,female,2024-02-22_15h05.04.560,jersey_experiment_5,2023.2.2,Win32,84.74576271,,,,,,,,,,,,,,,,207.6498,208.9438,208.9439,210.4733,return,0.1703,,0.651041667,0,52,52,0,1,FBP-OG-71.png,0.35,1.2,1,0.5,,,,,,,,,,,,,,,,,,,,,,,,,,,,,,,,,,,,,,,,,,,,,
,,,,,WIN24_067,24,female,2024-02-22_15h05.04.560,jersey_experiment_5,2023.2.2,Win32,84.74576271,,,,,,,,,,,,,,,,210.4735,211.7675,211.7675,213.2144,return,0.1526,,57.16145833,0,53,53,52,1,FBP-PT-18.png,0.4,1.2,53,0.5,,,,,,,,,,,,,,,,,,,,,,,,,,,,,,,,,,,,,,,,,,,,,
,,,,,WIN24_067,24,female,2024-02-22_15h05.04.560,jersey_experiment_5,2023.2.2,Win32,84.74576271,,,,,,,,,,,,,,,,213.2146,215.0148,215.0148,215.7912,return,0.1073,,26.04166667,0,54,54,35,1,FBP-YG-81.png,0.35,1.2,36,1,,,,,,,,,,,,,,,,,,,,,,,,,,,,,,,,,,,,,,,,,,,,,
,,,,,WIN24_067,24,female,2024-02-22_15h05.04.560,jersey_experiment_5,2023.2.2,Win32,84.74576271,,,,,,,,,,,,,,,,215.7914,217.5911,217.5911,218.1089,return,0.0736,,54.03645833,0,55,55,32,1,FBP-YG-71.png,0.4,1.2,33,1,,,,,,,,,,,,,,,,,,,,,,,,,,,,,,,,,,,,,,,,,,,,,
,,,,,WIN24_067,24,female,2024-02-22_15h05.04.560,jersey_experiment_5,2023.2.2,Win32,84.74576271,,,,,,,,,,,,,,,,218.1091,219.909,219.909,220.4972,return,0.0611,,76.69270833,0,56,56,43,1,FBP-YG-91.png,0.43,1.2,44,1,,,,,,,,,,,,,,,,,,,,,,,,,,,,,,,,,,,,,,,,,,,,,
,,,,,WIN24_067,24,female,2024-02-22_15h05.04.560,jersey_experiment_5,2023.2.2,Win32,84.74576271,,,,,,,,,,,,,,,,220.4975,221.7913,221.7913,222.6384,return,0.0706,,89.97395833,0,57,57,59,1,FBP-PT-19.png,0.45,1.2,60,0.5,,,,,,,,,,,,,,,,,,,,,,,,,,,,,,,,,,,,,,,,,,,,,
,,,,,WIN24_067,24,female,2024-02-22_15h05.04.560,jersey_experiment_5,2023.2.2,Win32,84.74576271,,,,,,,,,,,,,,,,222.6386,224.4385,224.4385,225.0738,return,0.0941,,37.63020833,0,58,58,26,1,FBP-RB-19.png,0.37,1.2,27,1,,,,,,,,,,,,,,,,,,,,,,,,,,,,,,,,,,,,,,,,,,,,,
,,,,,WIN24_067,24,female,2024-02-22_15h05.04.560,jersey_experiment_5,2023.2.2,Win32,84.74576271,,,,,,,,,,,,,,,,225.074,226.3678,226.3679,227.6739,return,0.6529,,52.86458333,0,59,59,47,1,FBP-PT-17.png,0.4,1.2,48,0.5,,,,,,,,,,,,,,,,,,,,,,,,,,,,,,,,,,,,,,,,,,,,,
,,,,,WIN24_067,24,female,2024-02-22_15h05.04.560,jersey_experiment_5,2023.2.2,Win32,84.74576271,,,,,,,,,,,,,,,,227.6755,228.9681,228.9681,229.9446,return,0.0878,,50.52083333,,,,,,FBP-PT-71.png,0.4,1.2,48,0.5,0,0,0,47,1,,,,,,,,,,,,,,,,,,,,,,,,,,,,,,,,,,,,,,,,
,,,,,WIN24_067,24,female,2024-02-22_15h05.04.560,jersey_experiment_5,2023.2.2,Win32,84.74576271,,,,,,,,,,,,,,,,229.9448,231.2386,231.2386,231.9211,return,0.0946,,68.75,,,,,,FBP-PT-91.png,0.4,1.2,58,0.5,0,1,1,57,1,,,,,,,,,,,,,,,,,,,,,,,,,,,,,,,,,,,,,,,,
,,,,,WIN24_067,24,female,2024-02-22_15h05.04.560,jersey_experiment_5,2023.2.2,Win32,84.74576271,,,,,,,,,,,,,,,,231.9213,233.2152,233.2152,233.8152,return,0.044,,74.47916667,,,,,,FBP-PT-71.png,0.43,1.2,49,0.5,0,2,2,48,1,,,,,,,,,,,,,,,,,,,,,,,,,,,,,,,,,,,,,,,,
,,,,,WIN24_067,24,female,2024-02-22_15h05.04.560,jersey_experiment_5,2023.2.2,Win32,84.74576271,,,,,,,,,,,,,,,,233.8155,235.1095,235.1095,235.7094,return,0.0595,,82.16145833,,,,,,FBP-OG-17.png,0.45,1.2,5,0.5,0,3,3,4,1,,,,,,,,,,,,,,,,,,,,,,,,,,,,,,,,,,,,,,,,
,,,,,WIN24_067,24,female,2024-02-22_15h05.04.560,jersey_experiment_5,2023.2.2,Win32,84.74576271,,,,,,,,,,,,,,,,235.7097,237.5096,237.5096,238.0978,return,0.0613,,72.39583333,,,,,,FBP-YG-17.png,0.4,1.2,33,1,0,4,4,32,1,,,,,,,,,,,,,,,,,,,,,,,,,,,,,,,,,,,,,,,,
,,,,,WIN24_067,24,female,2024-02-22_15h05.04.560,jersey_experiment_5,2023.2.2,Win32,84.74576271,,,,,,,,,,,,,,,,238.0981,239.8979,239.8979,240.6038,return,0.0984,,41.40625,,,,,,FBP-YG-19.png,0.4,1.2,43,1,0,5,5,42,1,,,,,,,,,,,,,,,,,,,,,,,,,,,,,,,,,,,,,,,,
,,,,,WIN24_067,24,female,2024-02-22_15h05.04.560,jersey_experiment_5,2023.2.2,Win32,84.74576271,,,,,,,,,,,,,,,,240.6039,242.404,242.404,243.1921,return,0.1356,,25.65104167,,,,,,FBP-RB-81.png,0.35,1.2,21,1,0,6,6,20,1,,,,,,,,,,,,,,,,,,,,,,,,,,,,,,,,,,,,,,,,
,,,,,WIN24_067,24,female,2024-02-22_15h05.04.560,jersey_experiment_5,2023.2.2,Win32,84.74576271,,,,,,,,,,,,,,,,243.1923,244.4862,244.4862,245.6746,return,0.3229,,46.35416667,,,,,,FBP-OG-17.png,0.43,1.2,4,0.5,0,7,7,3,1,,,,,,,,,,,,,,,,,,,,,,,,,,,,,,,,,,,,,,,,
,,,,,WIN24_067,24,female,2024-02-22_15h05.04.560,jersey_experiment_5,2023.2.2,Win32,84.74576271,,,,,,,,,,,,,,,,245.6749,247.4746,247.4746,247.9922,return,0.112,,43.61979167,,,,,,FBP-RB-91.png,0.37,1.2,27,1,0,8,8,26,1,,,,,,,,,,,,,,,,,,,,,,,,,,,,,,,,,,,,,,,,
,,,,,WIN24_067,24,female,2024-02-22_15h05.04.560,jersey_experiment_5,2023.2.2,Win32,84.74576271,,,,,,,,,,,,,,,,247.9924,249.2864,249.2864,249.7688,return,0.0659,,43.61979167,,,,,,FBP-OG-17.png,0.4,1.2,3,0.5,0,9,9,2,1,,,,,,,,,,,,,,,,,,,,,,,,,,,,,,,,,,,,,,,,
,,,,,WIN24_067,24,female,2024-02-22_15h05.04.560,jersey_experiment_5,2023.2.2,Win32,84.74576271,,,,,,,,,,,,,,,,249.769,251.5688,251.5688,252.1455,return,0.1885,,42.44791667,,,,,,FBP-YG-19.png,0.37,1.2,42,1,0,10,10,41,1,,,,,,,,,,,,,,,,,,,,,,,,,,,,,,,,,,,,,,,,
,,,,,WIN24_067,24,female,2024-02-22_15h05.04.560,jersey_experiment_5,2023.2.2,Win32,84.74576271,,,,,,,,,,,,,,,,252.1457,253.9453,253.9453,254.5926,return,0.1423,,75.65104167,,,,,,FBP-YG-19.png,0.45,1.2,45,1,0,11,11,44,1,,,,,,,,,,,,,,,,,,,,,,,,,,,,,,,,,,,,,,,,
,,,,,WIN24_067,24,female,2024-02-22_15h05.04.560,jersey_experiment_5,2023.2.2,Win32,84.74576271,,,,,,,,,,,,,,,,254.5928,255.8867,255.8868,256.5456,return,0.1318,,40.36458333,,,,,,FBP-PT-71.png,0.37,1.2,47,0.5,0,12,12,46,1,,,,,,,,,,,,,,,,,,,,,,,,,,,,,,,,,,,,,,,,
,,,,,WIN24_067,24,female,2024-02-22_15h05.04.560,jersey_experiment_5,2023.2.2,Win32,84.74576271,,,,,,,,,,,,,,,,256.5457,257.8397,257.8397,258.7927,return,0.1251,,39.58333333,,,,,,FBP-OG-19.png,0.37,1.2,12,0.5,0,13,13,11,1,,,,,,,,,,,,,,,,,,,,,,,,,,,,,,,,,,,,,,,,
,,,,,WIN24_067,24,female,2024-02-22_15h05.04.560,jersey_experiment_5,2023.2.2,Win32,84.74576271,,,,,,,,,,,,,,,,258.7929,260.0868,260.0868,260.6045,return,0.121,,39.58333333,,,,,,FBP-OG-17.png,0.37,1.2,2,0.5,0,14,14,1,1,,,,,,,,,,,,,,,,,,,,,,,,,,,,,,,,,,,,,,,,
,,,,,WIN24_067,24,female,2024-02-22_15h05.04.560,jersey_experiment_5,2023.2.2,Win32,84.74576271,,,,,,,,,,,,,,,,260.6047,261.8986,261.8986,263.2399,return,0.5727,,31.77083333,,,,,,FBP-OG-19.png,0.35,1.2,11,0.5,0,15,15,10,1,,,,,,,,,,,,,,,,,,,,,,,,,,,,,,,,,,,,,,,,
,,,,,WIN24_067,24,female,2024-02-22_15h05.04.560,jersey_experiment_5,2023.2.2,Win32,84.74576271,,,,,,,,,,,,,,,,263.24,265.0401,265.0401,265.7106,return,0.0347,,66.015625,,,,,,FBP-YG-18.png,0.4,1.2,38,1,0,16,16,37,1,,,,,,,,,,,,,,,,,,,,,,,,,,,,,,,,,,,,,,,,
,,,,,WIN24_067,24,female,2024-02-22_15h05.04.560,jersey_experiment_5,2023.2.2,Win32,84.74576271,,,,,,,,,,,,,,,,265.7108,267.5109,267.5109,268.487,return,0.6208,,89.453125,,,,,,FBP-YG-18.png,0.43,1.2,39,1,0,17,17,38,1,,,,,,,,,,,,,,,,,,,,,,,,,,,,,,,,,,,,,,,,
,,,,,WIN24_067,24,female,2024-02-22_15h05.04.560,jersey_experiment_5,2023.2.2,Win32,84.74576271,,,,,,,,,,,,,,,,268.4872,269.7813,269.7813,271.287,return,0.1724,,98.046875,,,,,,FBP-PT-71.png,0.45,1.2,50,0.5,0,18,18,49,1,,,,,,,,,,,,,,,,,,,,,,,,,,,,,,,,,,,,,,,,
,,,,,WIN24_067,24,female,2024-02-22_15h05.04.560,jersey_experiment_5,2023.2.2,Win32,84.74576271,,,,,,,,,,,,,,,,271.2872,272.5814,272.5814,274.4403,return,0.1958,,0.78125,,,,,,FBP-OG-17.png,0.35,1.2,1,0.5,0,19,19,0,1,,,,,,,,,,,,,,,,,,,,,,,,,,,,,,,,,,,,,,,,
,,,,,WIN24_067,24,female,2024-02-22_15h05.04.560,jersey_experiment_5,2023.2.2,Win32,84.74576271,,,,,,,,,,,,,,,,274.4406,276.2406,276.2406,277.0875,return,0.1649,,90.10416667,,,,,,FBP-RB-71.png,0.45,1.2,20,1,0,20,20,19,1,,,,,,,,,,,,,,,,,,,,,,,,,,,,,,,,,,,,,,,,
,,,,,WIN24_067,24,female,2024-02-22_15h05.04.560,jersey_experiment_5,2023.2.2,Win32,84.74576271,,,,,,,,,,,,,,,,277.0877,278.8876,278.8876,279.5699,return,0.1649,,86.84895833,,,,,,FBP-YG-18.png,0.45,1.2,40,1,0,21,21,39,1,,,,,,,,,,,,,,,,,,,,,,,,,,,,,,,,,,,,,,,,
,,,,,WIN24_067,24,female,2024-02-22_15h05.04.560,jersey_experiment_5,2023.2.2,Win32,84.74576271,,,,,,,,,,,,,,,,279.5701,280.8641,280.8641,281.8877,return,0.0838,,84.11458333,,,,,,FBP-OG-18.png,0.43,1.2,9,0.5,0,22,22,8,1,,,,,,,,,,,,,,,,,,,,,,,,,,,,,,,,,,,,,,,,
,,,,,WIN24_067,24,female,2024-02-22_15h05.04.560,jersey_experiment_5,2023.2.2,Win32,84.74576271,,,,,,,,,,,,,,,,281.8879,283.6877,283.6877,284.2406,return,0.155,,84.11458333,,,,,,FBP-RB-91.png,0.4,1.2,28,1,0,23,23,27,1,,,,,,,,,,,,,,,,,,,,,,,,,,,,,,,,,,,,,,,,
,,,,,WIN24_067,24,female,2024-02-22_15h05.04.560,jersey_experiment_5,2023.2.2,Win32,84.74576271,,,,,,,,,,,,,,,,284.2409,285.5348,285.5348,286.7466,return,0.1699,,0.911458333,,,,,,FBP-PT-81.png,0.35,1.2,51,0.5,0,24,24,50,1,,,,,,,,,,,,,,,,,,,,,,,,,,,,,,,,,,,,,,,,
,,,,,WIN24_067,24,female,2024-02-22_15h05.04.560,jersey_experiment_5,2023.2.2,Win32,84.74576271,,,,,,,,,,,,,,,,286.7468,288.0408,288.0408,288.4762,return,0.0722,,0.78125,,,,,,FBP-PT-71.png,0.35,1.2,46,0.5,0,25,25,45,1,,,,,,,,,,,,,,,,,,,,,,,,,,,,,,,,,,,,,,,,
,,,,,WIN24_067,24,female,2024-02-22_15h05.04.560,jersey_experiment_5,2023.2.2,Win32,84.74576271,,,,,,,,,,,,,,,,288.4764,289.7703,289.7703,291.4997,return,0.0747,,54.94791667,,,,,,FBP-PT-91.png,0.37,1.2,57,0.5,0,26,26,56,1,,,,,,,,,,,,,,,,,,,,,,,,,,,,,,,,,,,,,,,,
,,,,,WIN24_067,24,female,2024-02-22_15h05.04.560,jersey_experiment_5,2023.2.2,Win32,84.74576271,,,,,,,,,,,,,,,,291.4999,293.3,293.3001,293.8056,return,0.0834,,37.109375,,,,,,FBP-RB-91.png,0.35,1.2,26,1,0,27,27,25,1,,,,,,,,,,,,,,,,,,,,,,,,,,,,,,,,,,,,,,,,
,,,,,WIN24_067,24,female,2024-02-22_15h05.04.560,jersey_experiment_5,2023.2.2,Win32,84.74576271,,,,,,,,,,,,,,,,293.8058,295.0998,295.0998,296.7352,return,0.0844,,89.32291667,,,,,,FBP-PT-91.png,0.45,1.2,60,0.5,0,28,28,59,1,,,,,,,,,,,,,,,,,,,,,,,,,,,,,,,,,,,,,,,,
,,,,,WIN24_067,24,female,2024-02-22_15h05.04.560,jersey_experiment_5,2023.2.2,Win32,84.74576271,,,,,,,,,,,,,,,,296.7356,298.5354,298.5354,299.5354,return,0.0837,,36.84895833,,,,,,FBP-RB-81.png,0.37,1.2,22,1,0,29,29,21,1,,,,,,,,,,,,,,,,,,,,,,,,,,,,,,,,,,,,,,,,
,,,,,WIN24_067,24,female,2024-02-22_15h05.04.560,jersey_experiment_5,2023.2.2,Win32,84.74576271,,,,,,,,,,,,,,,,299.5355,300.8296,300.8296,302.0648,return,0.1177,,99.34895833,,,,,,FBP-PT-81.png,0.43,1.2,54,0.5,0,30,30,53,1,,,,,,,,,,,,,,,,,,,,,,,,,,,,,,,,,,,,,,,,
,,,,,WIN24_067,24,female,2024-02-22_15h05.04.560,jersey_experiment_5,2023.2.2,Win32,84.74576271,,,,,,,,,,,,,,,,302.065,303.3589,303.359,303.9472,return,0.0989,,99.34895833,,,,,,FBP-OG-18.png,0.45,1.2,10,0.5,0,31,31,9,1,,,,,,,,,,,,,,,,,,,,,,,,,,,,,,,,,,,,,,,,
,,,,,WIN24_067,24,female,2024-02-22_15h05.04.560,jersey_experiment_5,2023.2.2,Win32,84.74576271,,,,,,,,,,,,,,,,303.9475,305.7474,305.7474,306.2415,return,0.1887,,99.34895833,,,,,,FBP-RB-81.png,0.43,1.2,24,1,0,32,32,23,1,,,,,,,,,,,,,,,,,,,,,,,,,,,,,,,,,,,,,,,,
,,,,,WIN24_067,24,female,2024-02-22_15h05.04.560,jersey_experiment_5,2023.2.2,Win32,84.74576271,,,,,,,,,,,,,,,,306.2417,308.0415,308.0416,308.5946,return,0.2263,,99.34895833,,,,,,FBP-RB-81.png,0.45,1.2,25,1,0,33,33,24,1,,,,,,,,,,,,,,,,,,,,,,,,,,,,,,,,,,,,,,,,
,,,,,WIN24_067,24,female,2024-02-22_15h05.04.560,jersey_experiment_5,2023.2.2,Win32,84.74576271,,,,,,,,,,,,,,,,308.5948,310.3945,310.3946,311.7711,return,0.1815,,0.520833333,,,,,,FBP-RB-71.png,0.35,1.2,16,1,0,34,34,15,1,,,,,,,,,,,,,,,,,,,,,,,,,,,,,,,,,,,,,,,,
,,,,,WIN24_067,24,female,2024-02-22_15h05.04.560,jersey_experiment_5,2023.2.2,Win32,84.74576271,,,,,,,,,,,,,,,,311.7713,313.5713,313.5713,314.4771,return,0.1086,,0.390625,,,,,,FBP-YG-18.png,0.37,1.2,37,1,0,35,35,36,1,,,,,,,,,,,,,,,,,,,,,,,,,,,,,,,,,,,,,,,,
,,,,,WIN24_067,24,female,2024-02-22_15h05.04.560,jersey_experiment_5,2023.2.2,Win32,84.74576271,,,,,,,,,,,,,,,,314.4774,315.7713,315.7713,316.7477,return,0.1784,,59.89583333,,,,,,FBP-OG-18.png,0.4,1.2,8,0.5,0,36,36,7,1,,,,,,,,,,,,,,,,,,,,,,,,,,,,,,,,,,,,,,,,
,,,,,WIN24_067,24,female,2024-02-22_15h05.04.560,jersey_experiment_5,2023.2.2,Win32,84.74576271,,,,,,,,,,,,,,,,316.7479,318.042,318.042,319.0536,return,0.1297,,0.520833333,,,,,,FBP-OG-18.png,0.35,1.2,6,0.5,0,37,37,5,1,,,,,,,,,,,,,,,,,,,,,,,,,,,,,,,,,,,,,,,,
,,,,,WIN24_067,24,female,2024-02-22_15h05.04.560,jersey_experiment_5,2023.2.2,Win32,84.74576271,,,,,,,,,,,,,,,,319.0538,320.3478,320.3478,321.5126,return,0.0759,,54.94791667,,,,,,FBP-OG-19.png,0.4,1.2,13,0.5,0,38,38,12,1,,,,,,,,,,,,,,,,,,,,,,,,,,,,,,,,,,,,,,,,
,,,,,WIN24_067,24,female,2024-02-22_15h05.04.560,jersey_experiment_5,2023.2.2,Win32,84.74576271,,,,,,,,,,,,,,,,321.5128,322.8069,322.8069,323.7597,return,0.0814,,42.70833333,,,,,,FBP-PT-81.png,0.4,1.2,53,0.5,0,39,39,52,1,,,,,,,,,,,,,,,,,,,,,,,,,,,,,,,,,,,,,,,,
,,,,,WIN24_067,24,female,2024-02-22_15h05.04.560,jersey_experiment_5,2023.2.2,Win32,84.74576271,,,,,,,,,,,,,,,,323.7599,325.5599,325.5599,326.3129,return,0.0993,,69.27083333,,,,,,FBP-YG-17.png,0.43,1.2,34,1,0,40,40,33,1,,,,,,,,,,,,,,,,,,,,,,,,,,,,,,,,,,,,,,,,
,,,,,WIN24_067,24,female,2024-02-22_15h05.04.560,jersey_experiment_5,2023.2.2,Win32,84.74576271,,,,,,,,,,,,,,,,326.3131,328.1129,328.1129,328.8069,return,0.0543,,66.53645833,,,,,,FBP-RB-71.png,0.4,1.2,18,1,0,41,41,17,1,,,,,,,,,,,,,,,,,,,,,,,,,,,,,,,,,,,,,,,,
,,,,,WIN24_067,24,female,2024-02-22_15h05.04.560,jersey_experiment_5,2023.2.2,Win32,84.74576271,,,,,,,,,,,,,,,,328.807,330.6071,330.6071,331.2778,return,0.118,,65.88541667,,,,,,FBP-RB-71.png,0.37,1.2,17,1,0,42,42,16,1,,,,,,,,,,,,,,,,,,,,,,,,,,,,,,,,,,,,,,,,
,,,,,WIN24_067,24,female,2024-02-22_15h05.04.560,jersey_experiment_5,2023.2.2,Win32,84.74576271,,,,,,,,,,,,,,,,331.278,333.0777,333.0778,333.8542,return,0.1062,,91.40625,,,,,,FBP-YG-17.png,0.45,1.2,35,1,0,43,43,34,1,,,,,,,,,,,,,,,,,,,,,,,,,,,,,,,,,,,,,,,,
,,,,,WIN24_067,24,female,2024-02-22_15h05.04.560,jersey_experiment_5,2023.2.2,Win32,84.74576271,,,,,,,,,,,,,,,,333.8544,335.1484,335.1484,336.0426,return,0.0993,,33.72395833,,,,,,FBP-OG-18.png,0.37,1.2,7,0.5,0,44,44,6,1,,,,,,,,,,,,,,,,,,,,,,,,,,,,,,,,,,,,,,,,
,,,,,WIN24_067,24,female,2024-02-22_15h05.04.560,jersey_experiment_5,2023.2.2,Win32,84.74576271,,,,,,,,,,,,,,,,336.0428,337.8427,337.8427,339.5603,return,0.1938,,67.70833333,,,,,,FBP-YG-17.png,0.37,1.2,32,1,0,45,45,31,1,,,,,,,,,,,,,,,,,,,,,,,,,,,,,,,,,,,,,,,,
,,,,,WIN24_067,24,female,2024-02-22_15h05.04.560,jersey_experiment_5,2023.2.2,Win32,84.74576271,,,,,,,,,,,,,,,,339.5606,341.3604,341.3604,342.984,return,0.112,,90.36458333,,,,,,FBP-RB-71.png,0.43,1.2,19,1,0,46,46,18,1,,,,,,,,,,,,,,,,,,,,,,,,,,,,,,,,,,,,,,,,
,,,,,WIN24_067,24,female,2024-02-22_15h05.04.560,jersey_experiment_5,2023.2.2,Win32,84.74576271,,,,,,,,,,,,,,,,342.9842,344.7843,344.7843,346.2665,return,0.1917,,0.260416667,,,,,,FBP-YG-19.png,0.35,1.2,41,1,0,47,47,40,1,,,,,,,,,,,,,,,,,,,,,,,,,,,,,,,,,,,,,,,,
,,,,,WIN24_067,24,female,2024-02-22_15h05.04.560,jersey_experiment_5,2023.2.2,Win32,84.74576271,,,,,,,,,,,,,,,,346.2667,347.5607,347.5607,348.7489,return,0.1677,,77.08333333,,,,,,FBP-PT-81.png,0.45,1.2,55,0.5,0,48,48,54,1,,,,,,,,,,,,,,,,,,,,,,,,,,,,,,,,,,,,,,,,
,,,,,WIN24_067,24,female,2024-02-22_15h05.04.560,jersey_experiment_5,2023.2.2,Win32,84.74576271,,,,,,,,,,,,,,,,348.7491,350.549,350.5491,351.0312,return,0.1357,,80.98958333,,,,,,FBP-RB-91.png,0.45,1.2,30,1,0,49,49,29,1,,,,,,,,,,,,,,,,,,,,,,,,,,,,,,,,,,,,,,,,
,,,,,WIN24_067,24,female,2024-02-22_15h05.04.560,jersey_experiment_5,2023.2.2,Win32,84.74576271,,,,,,,,,,,,,,,,351.0315,352.8317,352.8318,354.1256,return,0.1319,,25.52083333,,,,,,FBP-YG-17.png,0.35,1.2,31,1,0,50,50,30,1,,,,,,,,,,,,,,,,,,,,,,,,,,,,,,,,,,,,,,,,
,,,,,WIN24_067,24,female,2024-02-22_15h05.04.560,jersey_experiment_5,2023.2.2,Win32,84.74576271,,,,,,,,,,,,,,,,354.1258,355.9256,355.9256,356.6669,return,0.0505,,33.46354167,,,,,,FBP-YG-18.png,0.35,1.2,36,1,0,51,51,35,1,,,,,,,,,,,,,,,,,,,,,,,,,,,,,,,,,,,,,,,,
,,,,,WIN24_067,24,female,2024-02-22_15h05.04.560,jersey_experiment_5,2023.2.2,Win32,84.74576271,,,,,,,,,,,,,,,,356.6671,357.9611,357.9611,358.8082,return,0.0899,,68.48958333,,,,,,FBP-OG-19.png,0.45,1.2,15,0.5,0,52,52,14,1,,,,,,,,,,,,,,,,,,,,,,,,,,,,,,,,,,,,,,,,
,,,,,WIN24_067,24,female,2024-02-22_15h05.04.560,jersey_experiment_5,2023.2.2,Win32,84.74576271,,,,,,,,,,,,,,,,358.8083,360.6083,360.6083,361.1023,return,0.0722,,78.38541667,,,,,,FBP-RB-91.png,0.43,1.2,29,1,0,53,53,28,1,,,,,,,,,,,,,,,,,,,,,,,,,,,,,,,,,,,,,,,,
,,,,,WIN24_067,24,female,2024-02-22_15h05.04.560,jersey_experiment_5,2023.2.2,Win32,84.74576271,,,,,,,,,,,,,,,,361.1025,362.3964,362.3965,363.0553,return,0.0817,,83.72395833,,,,,,FBP-PT-91.png,0.43,1.2,59,0.5,0,54,54,58,1,,,,,,,,,,,,,,,,,,,,,,,,,,,,,,,,,,,,,,,,
,,,,,WIN24_067,24,female,2024-02-22_15h05.04.560,jersey_experiment_5,2023.2.2,Win32,84.74576271,,,,,,,,,,,,,,,,363.0556,364.3495,364.3495,365.5849,return,0.2595,,5.729166667,,,,,,FBP-PT-81.png,0.37,1.2,52,0.5,0,55,55,51,1,,,,,,,,,,,,,,,,,,,,,,,,,,,,,,,,,,,,,,,,
,,,,,WIN24_067,24,female,2024-02-22_15h05.04.560,jersey_experiment_5,2023.2.2,Win32,84.74576271,,,,,,,,,,,,,,,,365.5852,367.385,367.385,368.0791,return,0.0846,,63.54166667,,,,,,FBP-RB-81.png,0.4,1.2,23,1,0,56,56,22,1,,,,,,,,,,,,,,,,,,,,,,,,,,,,,,,,,,,,,,,,
,,,,,WIN24_067,24,female,2024-02-22_15h05.04.560,jersey_experiment_5,2023.2.2,Win32,84.74576271,,,,,,,,,,,,,,,,368.0793,369.879,369.8791,370.6674,return,0.1104,,75.26041667,,,,,,FBP-YG-19.png,0.43,1.2,44,1,0,57,57,43,1,,,,,,,,,,,,,,,,,,,,,,,,,,,,,,,,,,,,,,,,
,,,,,WIN24_067,24,female,2024-02-22_15h05.04.560,jersey_experiment_5,2023.2.2,Win32,84.74576271,,,,,,,,,,,,,,,,370.6677,371.9616,371.9616,372.5616,return,0.1179,,75.26041667,,,,,,FBP-OG-19.png,0.43,1.2,14,0.5,0,58,58,13,1,,,,,,,,,,,,,,,,,,,,,,,,,,,,,,,,,,,,,,,,
,,,,,WIN24_067,24,female,2024-02-22_15h05.04.560,jersey_experiment_5,2023.2.2,Win32,84.74576271,,,,,,,,,,,,,,,,372.5618,373.8557,373.8557,374.9263,return,0.0971,,0.78125,,,,,,FBP-PT-91.png,0.35,1.2,56,0.5,0,59,59,55,1,,,,,,,,,,,,,,,,,,,,,,,,,,,,,,,,,,,,,,,,
,,,,,WIN24_067,24,female,2024-02-22_15h05.04.560,jersey_experiment_5,2023.2.2,Win32,84.74576271,,,,,,,,,,,,,,,,,,,,,,,,,,,,,,,,,,,,,,,374.9267,494.9311,,,,,,,,,,,,,,,,,,,,,,,,,,,,,,,,,,,,,,
,,,,,WIN24_067,24,female,2024-02-22_15h05.04.560,jersey_experiment_5,2023.2.2,Win32,84.74576271,,,,,,,,,,,,,,,,,,,,,,,,,,,,,,,,,,,,,,,,,494.9311,497.1192,return,2.1783,,,,,,,,,,,,,,,,,,,,,,,,,,,,,,,,,,
,,,,,WIN24_067,24,female,2024-02-22_15h05.04.560,jersey_experiment_5,2023.2.2,Win32,84.74576271,,,,,,,,,,,,,,,,497.1255,498.425,498.4251,501.178,return,0.9,,36.19791667,,,,,,FBP-RB-18.png,0.37,1.2,22,0.5,,,,,,,,,,,,,0,0,0,21,1,,,,,,,,,,,,,,,,,,,,,,,,,,,,
,,,,,WIN24_067,24,female,2024-02-22_15h05.04.560,jersey_experiment_5,2023.2.2,Win32,84.74576271,,,,,,,,,,,,,,,,501.1782,502.472,502.4721,503.4368,return,0.1541,,75.13020833,,,,,,FBP-RB-18.png,0.45,1.2,25,0.5,,,,,,,,,,,,,0,1,1,24,1,,,,,,,,,,,,,,,,,,,,,,,,,,,,
,,,,,WIN24_067,24,female,2024-02-22_15h05.04.560,jersey_experiment_5,2023.2.2,Win32,84.74576271,,,,,,,,,,,,,,,,503.437,505.237,505.2371,505.837,return,0.1071,,71.875,,,,,,FBP-PT-19.png,0.45,1.2,60,1,,,,,,,,,,,,,0,2,2,59,1,,,,,,,,,,,,,,,,,,,,,,,,,,,,
,,,,,WIN24_067,24,female,2024-02-22_15h05.04.560,jersey_experiment_5,2023.2.2,Win32,84.74576271,,,,,,,,,,,,,,,,505.8372,507.6371,507.6371,508.0959,return,0.1647,,71.875,,,,,,FBP-PT-18.png,0.43,1.2,54,1,,,,,,,,,,,,,0,3,3,53,1,,,,,,,,,,,,,,,,,,,,,,,,,,,,
,,,,,WIN24_067,24,female,2024-02-22_15h05.04.560,jersey_experiment_5,2023.2.2,Win32,84.74576271,,,,,,,,,,,,,,,,508.096,509.896,509.896,510.7783,return,0.17,,66.92708333,,,,,,FBP-PT-18.png,0.4,1.2,53,1,,,,,,,,,,,,,0,4,4,52,1,,,,,,,,,,,,,,,,,,,,,,,,,,,,
,,,,,WIN24_067,24,female,2024-02-22_15h05.04.560,jersey_experiment_5,2023.2.2,Win32,84.74576271,,,,,,,,,,,,,,,,510.7785,512.5785,512.5785,513.2138,return,0.0844,,77.08333333,,,,,,FBP-PT-17.png,0.43,1.2,49,1,,,,,,,,,,,,,0,5,5,48,1,,,,,,,,,,,,,,,,,,,,,,,,,,,,
,,,,,WIN24_067,24,female,2024-02-22_15h05.04.560,jersey_experiment_5,2023.2.2,Win32,84.74576271,,,,,,,,,,,,,,,,513.2141,514.508,514.5081,515.0374,return,0.1302,,77.08333333,,,,,,FBP-YG-81.png,0.45,1.2,40,0.5,,,,,,,,,,,,,0,6,6,39,1,,,,,,,,,,,,,,,,,,,,,,,,,,,,
,,,,,WIN24_067,24,female,2024-02-22_15h05.04.560,jersey_experiment_5,2023.2.2,Win32,84.74576271,,,,,,,,,,,,,,,,515.0377,516.3314,516.3314,517.0257,return,0.165,,77.08333333,,,,,,FBP-YG-71.png,0.45,1.2,35,0.5,,,,,,,,,,,,,0,7,7,34,1,,,,,,,,,,,,,,,,,,,,,,,,,,,,
,,,,,WIN24_067,24,female,2024-02-22_15h05.04.560,jersey_experiment_5,2023.2.2,Win32,84.74576271,,,,,,,,,,,,,,,,517.0258,518.3199,518.3199,520.3316,return,0.1221,,49.73958333,,,,,,FBP-YG-81.png,0.4,1.2,38,0.5,,,,,,,,,,,,,0,8,8,37,1,,,,,,,,,,,,,,,,,,,,,,,,,,,,
,,,,,WIN24_067,24,female,2024-02-22_15h05.04.560,jersey_experiment_5,2023.2.2,Win32,84.74576271,,,,,,,,,,,,,,,,520.3319,521.6259,521.6259,522.273,return,0.1073,,49.73958333,,,,,,FBP-YG-71.png,0.43,1.2,34,0.5,,,,,,,,,,,,,0,9,9,33,1,,,,,,,,,,,,,,,,,,,,,,,,,,,,
,,,,,WIN24_067,24,female,2024-02-22_15h05.04.560,jersey_experiment_5,2023.2.2,Win32,84.74576271,,,,,,,,,,,,,,,,522.2733,524.0729,524.073,524.6378,return,0.1669,,49.73958333,,,,,,FBP-OG-81.png,0.43,1.2,9,1,,,,,,,,,,,,,0,10,10,8,1,,,,,,,,,,,,,,,,,,,,,,,,,,,,
,,,,,WIN24_067,24,female,2024-02-22_15h05.04.560,jersey_experiment_5,2023.2.2,Win32,84.74576271,,,,,,,,,,,,,,,,524.6379,525.9319,525.932,527.2261,return,0.0868,,0.260416667,,,,,,FBP-YG-81.png,0.35,1.2,36,0.5,,,,,,,,,,,,,0,11,11,35,1,,,,,,,,,,,,,,,,,,,,,,,,,,,,
,,,,,WIN24_067,24,female,2024-02-22_15h05.04.560,jersey_experiment_5,2023.2.2,Win32,84.74576271,,,,,,,,,,,,,,,,527.2263,529.0262,529.0263,530.2262,return,0.6496,,20.44270833,,,,,,FBP-OG-91.png,0.4,1.2,13,1,,,,,,,,,,,,,0,12,12,12,1,,,,,,,,,,,,,,,,,,,,,,,,,,,,
,,,,,WIN24_067,24,female,2024-02-22_15h05.04.560,jersey_experiment_5,2023.2.2,Win32,84.74576271,,,,,,,,,,,,,,,,530.2264,531.5203,531.5204,532.2969,return,0.1361,,73.30729167,,,,,,FBP-RB-19.png,0.45,1.2,30,0.5,,,,,,,,,,,,,0,13,13,29,1,,,,,,,,,,,,,,,,,,,,,,,,,,,,
,,,,,WIN24_067,24,female,2024-02-22_15h05.04.560,jersey_experiment_5,2023.2.2,Win32,84.74576271,,,,,,,,,,,,,,,,532.2971,533.591,533.5911,536.0499,return,0.246,,0.520833333,,,,,,FBP-YG-71.png,0.35,1.2,31,0.5,,,,,,,,,,,,,0,14,14,30,1,,,,,,,,,,,,,,,,,,,,,,,,,,,,
,,,,,WIN24_067,24,female,2024-02-22_15h05.04.560,jersey_experiment_5,2023.2.2,Win32,84.74576271,,,,,,,,,,,,,,,,536.0501,537.8501,537.8502,538.5441,return,0.1412,,32.29166667,,,,,,FBP-PT-17.png,0.4,1.2,48,1,,,,,,,,,,,,,0,15,15,47,1,,,,,,,,,,,,,,,,,,,,,,,,,,,,
,,,,,WIN24_067,24,female,2024-02-22_15h05.04.560,jersey_experiment_5,2023.2.2,Win32,84.74576271,,,,,,,,,,,,,,,,538.5442,540.3443,540.3444,540.9912,return,0.071,,38.15104167,,,,,,FBP-PT-19.png,0.4,1.2,58,1,,,,,,,,,,,,,0,16,16,57,1,,,,,,,,,,,,,,,,,,,,,,,,,,,,
,,,,,WIN24_067,24,female,2024-02-22_15h05.04.560,jersey_experiment_5,2023.2.2,Win32,84.74576271,,,,,,,,,,,,,,,,540.9915,542.2853,542.2853,542.8266,return,0.0995,,38.28125,,,,,,FBP-RB-18.png,0.4,1.2,23,0.5,,,,,,,,,,,,,0,17,17,22,1,,,,,,,,,,,,,,,,,,,,,,,,,,,,
,,,,,WIN24_067,24,female,2024-02-22_15h05.04.560,jersey_experiment_5,2023.2.2,Win32,84.74576271,,,,,,,,,,,,,,,,542.8268,544.6267,544.6267,545.4973,return,0.1597,,0.130208333,,,,,,FBP-OG-81.png,0.35,1.2,6,1,,,,,,,,,,,,,0,18,18,5,1,,,,,,,,,,,,,,,,,,,,,,,,,,,,
,,,,,WIN24_067,24,female,2024-02-22_15h05.04.560,jersey_experiment_5,2023.2.2,Win32,84.74576271,,,,,,,,,,,,,,,,545.4976,546.7916,546.7916,547.3562,return,0.1099,,0.130208333,,,,,,FBP-RB-18.png,0.35,1.2,21,0.5,,,,,,,,,,,,,0,19,19,20,1,,,,,,,,,,,,,,,,,,,,,,,,,,,,
,,,,,WIN24_067,24,female,2024-02-22_15h05.04.560,jersey_experiment_5,2023.2.2,Win32,84.74576271,,,,,,,,,,,,,,,,547.3565,549.1563,549.1563,550.521,return,0.0873,,64.71354167,,,,,,FBP-PT-17.png,0.37,1.2,47,1,,,,,,,,,,,,,0,20,20,46,1,,,,,,,,,,,,,,,,,,,,,,,,,,,,
,,,,,WIN24_067,24,female,2024-02-22_15h05.04.560,jersey_experiment_5,2023.2.2,Win32,84.74576271,,,,,,,,,,,,,,,,550.5212,552.3211,552.3212,552.8975,return,0.1043,,64.71354167,,,,,,FBP-OG-71.png,0.4,1.2,3,1,,,,,,,,,,,,,0,21,21,2,1,,,,,,,,,,,,,,,,,,,,,,,,,,,,
,,,,,WIN24_067,24,female,2024-02-22_15h05.04.560,jersey_experiment_5,2023.2.2,Win32,84.74576271,,,,,,,,,,,,,,,,552.8977,554.6979,554.6979,555.6271,return,0.1456,,25.78125,,,,,,FBP-OG-91.png,0.35,1.2,11,1,,,,,,,,,,,,,0,22,22,10,1,,,,,,,,,,,,,,,,,,,,,,,,,,,,
,,,,,WIN24_067,24,female,2024-02-22_15h05.04.560,jersey_experiment_5,2023.2.2,Win32,84.74576271,,,,,,,,,,,,,,,,555.6273,556.9211,556.9211,559.0743,return,0.0938,,50,,,,,,FBP-YG-91.png,0.37,1.2,42,0.5,,,,,,,,,,,,,0,23,23,41,1,,,,,,,,,,,,,,,,,,,,,,,,,,,,
,,,,,WIN24_067,24,female,2024-02-22_15h05.04.560,jersey_experiment_5,2023.2.2,Win32,84.74576271,,,,,,,,,,,,,,,,559.0746,560.8743,560.8744,561.886,return,0.0828,,99.73958333,,,,,,FBP-OG-91.png,0.45,1.2,15,1,,,,,,,,,,,,,0,24,24,14,1,,,,,,,,,,,,,,,,,,,,,,,,,,,,
,,,,,WIN24_067,24,female,2024-02-22_15h05.04.560,jersey_experiment_5,2023.2.2,Win32,84.74576271,,,,,,,,,,,,,,,,561.8862,563.1802,563.1802,564.4744,return,0.1094,,24.609375,,,,,,FBP-YG-81.png,0.37,1.2,37,0.5,,,,,,,,,,,,,0,25,25,36,1,,,,,,,,,,,,,,,,,,,,,,,,,,,,
,,,,,WIN24_067,24,female,2024-02-22_15h05.04.560,jersey_experiment_5,2023.2.2,Win32,84.74576271,,,,,,,,,,,,,,,,564.4747,566.2746,566.2746,566.8629,return,0.1421,,24.609375,,,,,,FBP-OG-81.png,0.37,1.2,7,1,,,,,,,,,,,,,0,26,26,6,1,,,,,,,,,,,,,,,,,,,,,,,,,,,,
,,,,,WIN24_067,24,female,2024-02-22_15h05.04.560,jersey_experiment_5,2023.2.2,Win32,84.74576271,,,,,,,,,,,,,,,,566.8632,568.6627,568.6628,569.1335,return,0.1779,,24.609375,,,,,,FBP-OG-91.png,0.37,1.2,12,1,,,,,,,,,,,,,0,27,27,11,1,,,,,,,,,,,,,,,,,,,,,,,,,,,,
,,,,,WIN24_067,24,female,2024-02-22_15h05.04.560,jersey_experiment_5,2023.2.2,Win32,84.74576271,,,,,,,,,,,,,,,,569.1337,570.9336,570.9336,571.7689,return,0.1246,,74.21875,,,,,,FBP-OG-91.png,0.43,1.2,14,1,,,,,,,,,,,,,0,28,28,13,1,,,,,,,,,,,,,,,,,,,,,,,,,,,,
,,,,,WIN24_067,24,female,2024-02-22_15h05.04.560,jersey_experiment_5,2023.2.2,Win32,84.74576271,,,,,,,,,,,,,,,,571.769,573.5691,573.5691,575.6395,return,0.1483,,25.13020833,,,,,,FBP-PT-18.png,0.35,1.2,51,1,,,,,,,,,,,,,0,29,29,50,1,,,,,,,,,,,,,,,,,,,,,,,,,,,,
,,,,,WIN24_067,24,female,2024-02-22_15h05.04.560,jersey_experiment_5,2023.2.2,Win32,84.74576271,,,,,,,,,,,,,,,,575.6398,577.4396,577.4396,578.0633,return,0.1548,,66.92708333,,,,,,FBP-OG-71.png,0.43,1.2,4,1,,,,,,,,,,,,,0,30,30,3,1,,,,,,,,,,,,,,,,,,,,,,,,,,,,
,,,,,WIN24_067,24,female,2024-02-22_15h05.04.560,jersey_experiment_5,2023.2.2,Win32,84.74576271,,,,,,,,,,,,,,,,578.0634,579.8632,579.8632,582.5458,return,1.9158,,57.16145833,,,,,,FBP-PT-18.png,0.37,1.2,52,1,,,,,,,,,,,,,0,31,31,51,1,,,,,,,,,,,,,,,,,,,,,,,,,,,,
,,,,,WIN24_067,24,female,2024-02-22_15h05.04.560,jersey_experiment_5,2023.2.2,Win32,84.74576271,,,,,,,,,,,,,,,,582.546,583.8398,583.8399,584.9576,return,0.0708,,75,,,,,,FBP-YG-91.png,0.43,1.2,44,0.5,,,,,,,,,,,,,0,32,32,43,1,,,,,,,,,,,,,,,,,,,,,,,,,,,,
,,,,,WIN24_067,24,female,2024-02-22_15h05.04.560,jersey_experiment_5,2023.2.2,Win32,84.74576271,,,,,,,,,,,,,,,,584.9579,586.2518,586.2518,587.64,return,0.1477,,0.78125,,,,,,FBP-RB-17.png,0.35,1.2,16,0.5,,,,,,,,,,,,,0,33,33,15,1,,,,,,,,,,,,,,,,,,,,,,,,,,,,
,,,,,WIN24_067,24,female,2024-02-22_15h05.04.560,jersey_experiment_5,2023.2.2,Win32,84.74576271,,,,,,,,,,,,,,,,587.6403,589.4402,589.4402,590.1108,return,0.084,,75.26041667,,,,,,FBP-PT-17.png,0.45,1.2,50,1,,,,,,,,,,,,,0,34,34,49,1,,,,,,,,,,,,,,,,,,,,,,,,,,,,
,,,,,WIN24_067,24,female,2024-02-22_15h05.04.560,jersey_experiment_5,2023.2.2,Win32,84.74576271,,,,,,,,,,,,,,,,590.1111,591.4049,591.4049,594.4285,return,0.0974,,41.92708333,,,,,,FBP-RB-17.png,0.4,1.2,18,0.5,,,,,,,,,,,,,0,35,35,17,1,,,,,,,,,,,,,,,,,,,,,,,,,,,,
,,,,,WIN24_067,24,female,2024-02-22_15h05.04.560,jersey_experiment_5,2023.2.2,Win32,84.74576271,,,,,,,,,,,,,,,,594.4288,595.7226,595.7227,598.3699,return,0.0945,,24.34895833,,,,,,FBP-RB-17.png,0.37,1.2,17,0.5,,,,,,,,,,,,,0,36,36,16,1,,,,,,,,,,,,,,,,,,,,,,,,,,,,
,,,,,WIN24_067,24,female,2024-02-22_15h05.04.560,jersey_experiment_5,2023.2.2,Win32,84.74576271,,,,,,,,,,,,,,,,598.3701,599.664,599.664,600.6523,return,0.0488,,0.130208333,,,,,,FBP-YG-91.png,0.35,1.2,41,0.5,,,,,,,,,,,,,0,37,37,40,1,,,,,,,,,,,,,,,,,,,,,,,,,,,,
,,,,,WIN24_067,24,female,2024-02-22_15h05.04.560,jersey_experiment_5,2023.2.2,Win32,84.74576271,,,,,,,,,,,,,,,,600.6525,601.9464,601.9465,603.6758,return,0.0382,,49.47916667,,,,,,FBP-RB-19.png,0.4,1.2,28,0.5,,,,,,,,,,,,,0,38,38,27,1,,,,,,,,,,,,,,,,,,,,,,,,,,,,
,,,,,WIN24_067,24,female,2024-02-22_15h05.04.560,jersey_experiment_5,2023.2.2,Win32,84.74576271,,,,,,,,,,,,,,,,603.6761,604.97,604.97,605.4525,return,0.1094,,49.47916667,,,,,,FBP-RB-19.png,0.37,1.2,27,0.5,,,,,,,,,,,,,0,39,39,26,1,,,,,,,,,,,,,,,,,,,,,,,,,,,,
,,,,,WIN24_067,24,female,2024-02-22_15h05.04.560,jersey_experiment_5,2023.2.2,Win32,84.74576271,,,,,,,,,,,,,,,,605.4527,607.2526,607.2526,608.1937,return,0.0805,,74.86979167,,,,,,FBP-PT-18.png,0.45,1.2,55,1,,,,,,,,,,,,,0,40,40,54,1,,,,,,,,,,,,,,,,,,,,,,,,,,,,
,,,,,WIN24_067,24,female,2024-02-22_15h05.04.560,jersey_experiment_5,2023.2.2,Win32,84.74576271,,,,,,,,,,,,,,,,608.1939,609.994,609.994,610.7113,return,0.0418,,49.609375,,,,,,FBP-OG-81.png,0.4,1.2,8,1,,,,,,,,,,,,,0,41,41,7,1,,,,,,,,,,,,,,,,,,,,,,,,,,,,
,,,,,WIN24_067,24,female,2024-02-22_15h05.04.560,jersey_experiment_5,2023.2.2,Win32,84.74576271,,,,,,,,,,,,,,,,610.7115,612.0056,612.0056,612.935,return,0.0913,,75.65104167,,,,,,FBP-YG-81.png,0.43,1.2,39,0.5,,,,,,,,,,,,,0,42,42,38,1,,,,,,,,,,,,,,,,,,,,,,,,,,,,
,,,,,WIN24_067,24,female,2024-02-22_15h05.04.560,jersey_experiment_5,2023.2.2,Win32,84.74576271,,,,,,,,,,,,,,,,612.9351,614.2292,614.2293,616.0646,return,0.1308,,51.04166667,,,,,,FBP-YG-71.png,0.37,1.2,32,0.5,,,,,,,,,,,,,0,43,43,31,1,,,,,,,,,,,,,,,,,,,,,,,,,,,,
,,,,,WIN24_067,24,female,2024-02-22_15h05.04.560,jersey_experiment_5,2023.2.2,Win32,84.74576271,,,,,,,,,,,,,,,,616.0648,617.3588,617.3588,618.794,return,0.0881,,75.52083333,,,,,,FBP-RB-18.png,0.43,1.2,24,0.5,,,,,,,,,,,,,0,44,44,23,1,,,,,,,,,,,,,,,,,,,,,,,,,,,,
,,,,,WIN24_067,24,female,2024-02-22_15h05.04.560,jersey_experiment_5,2023.2.2,Win32,84.74576271,,,,,,,,,,,,,,,,618.7943,620.0883,620.0883,630.5593,return,1.9198,,0,,,,,,FBP-RB-19.png,0.35,1.2,26,0.5,,,,,,,,,,,,,0,45,45,25,1,,,,,,,,,,,,,,,,,,,,,,,,,,,,
,,,,,WIN24_067,24,female,2024-02-22_15h05.04.560,jersey_experiment_5,2023.2.2,Win32,84.74576271,,,,,,,,,,,,,,,,630.5595,631.8534,631.8534,633.0534,return,0.1319,,75,,,,,,FBP-RB-17.png,0.45,1.2,20,0.5,,,,,,,,,,,,,0,46,46,19,1,,,,,,,,,,,,,,,,,,,,,,,,,,,,
,,,,,WIN24_067,24,female,2024-02-22_15h05.04.560,jersey_experiment_5,2023.2.2,Win32,84.74576271,,,,,,,,,,,,,,,,633.0535,634.8536,634.8537,635.7125,return,0.2588,,0.911458333,,,,,,FBP-PT-17.png,0.35,1.2,46,1,,,,,,,,,,,,,0,47,47,45,1,,,,,,,,,,,,,,,,,,,,,,,,,,,,
,,,,,WIN24_067,24,female,2024-02-22_15h05.04.560,jersey_experiment_5,2023.2.2,Win32,84.74576271,,,,,,,,,,,,,,,,635.7127,637.0065,637.0066,638.3007,return,0.1902,,49.08854167,,,,,,FBP-YG-91.png,0.4,1.2,43,0.5,,,,,,,,,,,,,0,48,48,42,1,,,,,,,,,,,,,,,,,,,,,,,,,,,,
,,,,,WIN24_067,24,female,2024-02-22_15h05.04.560,jersey_experiment_5,2023.2.2,Win32,84.74576271,,,,,,,,,,,,,,,,638.3009,640.1007,640.1007,640.9596,return,0.2033,,75.52083333,,,,,,FBP-OG-81.png,0.45,1.2,10,1,,,,,,,,,,,,,0,49,49,9,1,,,,,,,,,,,,,,,,,,,,,,,,,,,,
,,,,,WIN24_067,24,female,2024-02-22_15h05.04.560,jersey_experiment_5,2023.2.2,Win32,84.74576271,,,,,,,,,,,,,,,,640.9599,642.7597,642.7597,643.7127,return,0.1409,,0.260416667,,,,,,FBP-PT-19.png,0.37,1.2,57,1,,,,,,,,,,,,,0,50,50,56,1,,,,,,,,,,,,,,,,,,,,,,,,,,,,
,,,,,WIN24_067,24,female,2024-02-22_15h05.04.560,jersey_experiment_5,2023.2.2,Win32,84.74576271,,,,,,,,,,,,,,,,643.7129,645.5127,645.5127,646.0304,return,0.1663,,0.260416667,,,,,,FBP-OG-71.png,0.35,1.2,1,1,,,,,,,,,,,,,0,51,51,0,1,,,,,,,,,,,,,,,,,,,,,,,,,,,,
,,,,,WIN24_067,24,female,2024-02-22_15h05.04.560,jersey_experiment_5,2023.2.2,Win32,84.74576271,,,,,,,,,,,,,,,,646.0306,647.3245,647.3245,648.6658,return,0.1807,,74.609375,,,,,,FBP-YG-91.png,0.45,1.2,45,0.5,,,,,,,,,,,,,0,52,52,44,1,,,,,,,,,,,,,,,,,,,,,,,,,,,,
,,,,,WIN24_067,24,female,2024-02-22_15h05.04.560,jersey_experiment_5,2023.2.2,Win32,84.74576271,,,,,,,,,,,,,,,,648.666,650.4661,650.4661,651.4894,return,0.1179,,0.130208333,,,,,,FBP-PT-19.png,0.35,1.2,56,1,,,,,,,,,,,,,0,53,53,55,1,,,,,,,,,,,,,,,,,,,,,,,,,,,,
,,,,,WIN24_067,24,female,2024-02-22_15h05.04.560,jersey_experiment_5,2023.2.2,Win32,84.74576271,,,,,,,,,,,,,,,,651.4897,652.7836,652.7836,653.7129,return,0.0943,,75.13020833,,,,,,FBP-RB-19.png,0.43,1.2,29,0.5,,,,,,,,,,,,,0,54,54,28,1,,,,,,,,,,,,,,,,,,,,,,,,,,,,
,,,,,WIN24_067,24,female,2024-02-22_15h05.04.560,jersey_experiment_5,2023.2.2,Win32,84.74576271,,,,,,,,,,,,,,,,653.7132,655.5131,655.5131,656.0307,return,0.1754,,75,,,,,,FBP-PT-19.png,0.43,1.2,59,1,,,,,,,,,,,,,0,55,55,58,1,,,,,,,,,,,,,,,,,,,,,,,,,,,,
,,,,,WIN24_067,24,female,2024-02-22_15h05.04.560,jersey_experiment_5,2023.2.2,Win32,84.74576271,,,,,,,,,,,,,,,,656.031,657.3248,657.3249,658.4779,return,0.1061,,99.86979167,,,,,,FBP-RB-17.png,0.43,1.2,19,0.5,,,,,,,,,,,,,0,56,56,18,1,,,,,,,,,,,,,,,,,,,,,,,,,,,,
,,,,,WIN24_067,24,female,2024-02-22_15h05.04.560,jersey_experiment_5,2023.2.2,Win32,84.74576271,,,,,,,,,,,,,,,,658.4781,659.772,659.772,661.1368,return,0.0813,,50,,,,,,FBP-YG-71.png,0.4,1.2,33,0.5,,,,,,,,,,,,,0,57,57,32,1,,,,,,,,,,,,,,,,,,,,,,,,,,,,
,,,,,WIN24_067,24,female,2024-02-22_15h05.04.560,jersey_experiment_5,2023.2.2,Win32,84.74576271,,,,,,,,,,,,,,,,661.137,662.9369,662.9369,663.9487,return,0.0722,,74.86979167,,,,,,FBP-OG-71.png,0.45,1.2,5,1,,,,,,,,,,,,,0,58,58,4,1,,,,,,,,,,,,,,,,,,,,,,,,,,,,
,,,,,WIN24_067,24,female,2024-02-22_15h05.04.560,jersey_experiment_5,2023.2.2,Win32,84.74576271,,,,,,,,,,,,,,,,663.9489,665.7489,665.7489,666.7489,return,0.1561,,0.520833333,,,,,,FBP-OG-71.png,0.37,1.2,2,1,,,,,,,,,,,,,0,59,59,1,1,,,,,,,,,,,,,,,,,,,,,,,,,,,,
,,,,,WIN24_067,24,female,2024-02-22_15h05.04.560,jersey_experiment_5,2023.2.2,Win32,84.74576271,,,,,,,,,,,,,,,,666.7504,668.5491,668.5491,669.6314,return,0.1417,,50.78125,,,,,,FBP-OG-18.png,0.43,1.2,9,1,,,,,,,,,,,,,,,,,,0,0,0,8,1,,,,,,,,,,,,,,,,,,,,,,,
,,,,,WIN24_067,24,female,2024-02-22_15h05.04.560,jersey_experiment_5,2023.2.2,Win32,84.74576271,,,,,,,,,,,,,,,,669.6317,670.9254,670.9254,672.0784,return,0.1524,,75.65104167,,,,,,FBP-RB-71.png,0.43,1.2,19,0.5,,,,,,,,,,,,,,,,,,0,1,1,18,1,,,,,,,,,,,,,,,,,,,,,,,
,,,,,WIN24_067,24,female,2024-02-22_15h05.04.560,jersey_experiment_5,2023.2.2,Win32,84.74576271,,,,,,,,,,,,,,,,672.0786,673.8786,673.8786,675.3726,return,0.0504,,50,,,,,,FBP-OG-17.png,0.4,1.2,3,1,,,,,,,,,,,,,,,,,,0,2,2,2,1,,,,,,,,,,,,,,,,,,,,,,,
,,,,,WIN24_067,24,female,2024-02-22_15h05.04.560,jersey_experiment_5,2023.2.2,Win32,84.74576271,,,,,,,,,,,,,,,,675.3728,676.6668,676.6668,677.8904,return,0.0945,,1.041666667,,,,,,FBP-YG-18.png,0.37,1.2,37,0.5,,,,,,,,,,,,,,,,,,0,3,3,36,1,,,,,,,,,,,,,,,,,,,,,,,
,,,,,WIN24_067,24,female,2024-02-22_15h05.04.560,jersey_experiment_5,2023.2.2,Win32,84.74576271,,,,,,,,,,,,,,,,677.8906,679.1845,679.1845,679.7728,return,0.0607,,1.041666667,,,,,,FBP-YG-18.png,0.35,1.2,36,0.5,,,,,,,,,,,,,,,,,,0,4,4,35,1,,,,,,,,,,,,,,,,,,,,,,,
,,,,,WIN24_067,24,female,2024-02-22_15h05.04.560,jersey_experiment_5,2023.2.2,Win32,84.74576271,,,,,,,,,,,,,,,,679.773,681.5731,681.5731,682.8435,return,0.6511,,49.47916667,,,,,,FBP-OG-19.png,0.43,1.2,14,1,,,,,,,,,,,,,,,,,,0,5,5,13,1,,,,,,,,,,,,,,,,,,,,,,,
,,,,,WIN24_067,24,female,2024-02-22_15h05.04.560,jersey_experiment_5,2023.2.2,Win32,84.74576271,,,,,,,,,,,,,,,,682.8438,684.6435,684.6435,686.5378,return,0.2638,,0.390625,,,,,,FBP-PT-81.png,0.37,1.2,52,1,,,,,,,,,,,,,,,,,,0,6,6,51,1,,,,,,,,,,,,,,,,,,,,,,,
,,,,,WIN24_067,24,female,2024-02-22_15h05.04.560,jersey_experiment_5,2023.2.2,Win32,84.74576271,,,,,,,,,,,,,,,,686.538,688.3379,688.3379,690.2673,return,0.969,,25.52083333,,,,,,FBP-OG-19.png,0.4,1.2,13,1,,,,,,,,,,,,,,,,,,0,7,7,12,1,,,,,,,,,,,,,,,,,,,,,,,
,,,,,WIN24_067,24,female,2024-02-22_15h05.04.560,jersey_experiment_5,2023.2.2,Win32,84.74576271,,,,,,,,,,,,,,,,690.2675,691.5615,691.5615,692.785,return,0.3166,,49.34895833,,,,,,FBP-RB-81.png,0.37,1.2,22,0.5,,,,,,,,,,,,,,,,,,0,8,8,21,1,,,,,,,,,,,,,,,,,,,,,,,
,,,,,WIN24_067,24,female,2024-02-22_15h05.04.560,jersey_experiment_5,2023.2.2,Win32,84.74576271,,,,,,,,,,,,,,,,692.7853,694.5851,694.5851,695.1498,return,0.1886,,49.34895833,,,,,,FBP-PT-71.png,0.4,1.2,48,1,,,,,,,,,,,,,,,,,,0,9,9,47,1,,,,,,,,,,,,,,,,,,,,,,,
,,,,,WIN24_067,24,female,2024-02-22_15h05.04.560,jersey_experiment_5,2023.2.2,Win32,84.74576271,,,,,,,,,,,,,,,,695.15,696.4441,696.4441,697.6087,return,0.1486,,75.390625,,,,,,FBP-YG-18.png,0.43,1.2,39,0.5,,,,,,,,,,,,,,,,,,0,10,10,38,1,,,,,,,,,,,,,,,,,,,,,,,
,,,,,WIN24_067,24,female,2024-02-22_15h05.04.560,jersey_experiment_5,2023.2.2,Win32,84.74576271,,,,,,,,,,,,,,,,697.6089,699.4087,699.4087,699.9618,return,0.2044,,75.390625,,,,,,FBP-OG-17.png,0.43,1.2,4,1,,,,,,,,,,,,,,,,,,0,11,11,3,1,,,,,,,,,,,,,,,,,,,,,,,
,,,,,WIN24_067,24,female,2024-02-22_15h05.04.560,jersey_experiment_5,2023.2.2,Win32,84.74576271,,,,,,,,,,,,,,,,699.962,701.2559,701.2559,701.8677,return,0.1453,,75.390625,,,,,,FBP-YG-17.png,0.4,1.2,33,0.5,,,,,,,,,,,,,,,,,,0,12,12,32,1,,,,,,,,,,,,,,,,,,,,,,,
,,,,,WIN24_067,24,female,2024-02-22_15h05.04.560,jersey_experiment_5,2023.2.2,Win32,84.74576271,,,,,,,,,,,,,,,,701.8679,703.6679,703.6679,704.9266,return,0.1425,,88.15104167,,,,,,FBP-PT-81.png,0.43,1.2,54,1,,,,,,,,,,,,,,,,,,0,13,13,53,1,,,,,,,,,,,,,,,,,,,,,,,
,,,,,WIN24_067,24,female,2024-02-22_15h05.04.560,jersey_experiment_5,2023.2.2,Win32,84.74576271,,,,,,,,,,,,,,,,704.9267,706.2208,706.2208,707.9855,return,0.1414,,0.390625,,,,,,FBP-YG-19.png,0.35,1.2,41,0.5,,,,,,,,,,,,,,,,,,0,14,14,40,1,,,,,,,,,,,,,,,,,,,,,,,
,,,,,WIN24_067,24,female,2024-02-22_15h05.04.560,jersey_experiment_5,2023.2.2,Win32,84.74576271,,,,,,,,,,,,,,,,707.9857,709.2797,709.2797,710.5387,return,0.1441,,74.47916667,,,,,,FBP-RB-91.png,0.43,1.2,29,0.5,,,,,,,,,,,,,,,,,,0,15,15,28,1,,,,,,,,,,,,,,,,,,,,,,,
,,,,,WIN24_067,24,female,2024-02-22_15h05.04.560,jersey_experiment_5,2023.2.2,Win32,84.74576271,,,,,,,,,,,,,,,,710.539,712.3386,712.3387,713.9976,return,0.189,,24.609375,,,,,,FBP-OG-17.png,0.37,1.2,2,1,,,,,,,,,,,,,,,,,,0,16,16,1,1,,,,,,,,,,,,,,,,,,,,,,,
,,,,,WIN24_067,24,female,2024-02-22_15h05.04.560,jersey_experiment_5,2023.2.2,Win32,84.74576271,,,,,,,,,,,,,,,,713.9978,715.7977,715.7978,716.7859,return,0.1282,,75.26041667,,,,,,FBP-PT-71.png,0.43,1.2,49,1,,,,,,,,,,,,,,,,,,0,17,17,48,1,,,,,,,,,,,,,,,,,,,,,,,
,,,,,WIN24_067,24,female,2024-02-22_15h05.04.560,jersey_experiment_5,2023.2.2,Win32,84.74576271,,,,,,,,,,,,,,,,716.7861,718.0801,718.0801,718.7977,return,0.1316,,75.26041667,,,,,,FBP-RB-81.png,0.43,1.2,24,0.5,,,,,,,,,,,,,,,,,,0,18,18,23,1,,,,,,,,,,,,,,,,,,,,,,,
,,,,,WIN24_067,24,female,2024-02-22_15h05.04.560,jersey_experiment_5,2023.2.2,Win32,84.74576271,,,,,,,,,,,,,,,,718.7979,720.0919,720.0919,722.6097,return,1.5297,,0.78125,,,,,,FBP-RB-71.png,0.35,1.2,16,0.5,,,,,,,,,,,,,,,,,,0,19,19,15,1,,,,,,,,,,,,,,,,,,,,,,,
,,,,,WIN24_067,24,female,2024-02-22_15h05.04.560,jersey_experiment_5,2023.2.2,Win32,84.74576271,,,,,,,,,,,,,,,,722.61,724.4097,724.4097,724.8921,return,0.18,,0.520833333,,,,,,FBP-PT-81.png,0.35,1.2,51,1,,,,,,,,,,,,,,,,,,0,20,20,50,1,,,,,,,,,,,,,,,,,,,,,,,
,,,,,WIN24_067,24,female,2024-02-22_15h05.04.560,jersey_experiment_5,2023.2.2,Win32,84.74576271,,,,,,,,,,,,,,,,724.8923,726.6923,726.6923,727.6451,return,0.1421,,74.73958333,,,,,,FBP-OG-19.png,0.45,1.2,15,1,,,,,,,,,,,,,,,,,,0,21,21,14,1,,,,,,,,,,,,,,,,,,,,,,,
,,,,,WIN24_067,24,female,2024-02-22_15h05.04.560,jersey_experiment_5,2023.2.2,Win32,84.74576271,,,,,,,,,,,,,,,,727.6454,728.9395,728.9395,730.0453,return,0.2025,,0.651041667,,,,,,FBP-YG-17.png,0.35,1.2,31,0.5,,,,,,,,,,,,,,,,,,0,22,22,30,1,,,,,,,,,,,,,,,,,,,,,,,
,,,,,WIN24_067,24,female,2024-02-22_15h05.04.560,jersey_experiment_5,2023.2.2,Win32,84.74576271,,,,,,,,,,,,,,,,730.0455,731.3394,731.3394,732.2571,return,0.1412,,75,,,,,,FBP-YG-17.png,0.43,1.2,34,0.5,,,,,,,,,,,,,,,,,,0,23,23,33,1,,,,,,,,,,,,,,,,,,,,,,,
,,,,,WIN24_067,24,female,2024-02-22_15h05.04.560,jersey_experiment_5,2023.2.2,Win32,84.74576271,,,,,,,,,,,,,,,,732.2573,733.5513,733.5513,734.6337,return,0.1121,,99.34895833,,,,,,FBP-YG-19.png,0.43,1.2,44,0.5,,,,,,,,,,,,,,,,,,0,24,24,43,1,,,,,,,,,,,,,,,,,,,,,,,
,,,,,WIN24_067,24,female,2024-02-22_15h05.04.560,jersey_experiment_5,2023.2.2,Win32,84.74576271,,,,,,,,,,,,,,,,734.6339,736.4337,736.4337,737.7042,return,0.1958,,0.390625,,,,,,FBP-OG-19.png,0.35,1.2,11,1,,,,,,,,,,,,,,,,,,0,25,25,10,1,,,,,,,,,,,,,,,,,,,,,,,
,,,,,WIN24_067,24,female,2024-02-22_15h05.04.560,jersey_experiment_5,2023.2.2,Win32,84.74576271,,,,,,,,,,,,,,,,737.7044,739.5045,739.5046,740.1397,return,0.2618,,0.130208333,,,,,,FBP-OG-17.png,0.35,1.2,1,1,,,,,,,,,,,,,,,,,,0,26,26,0,1,,,,,,,,,,,,,,,,,,,,,,,
,,,,,WIN24_067,24,female,2024-02-22_15h05.04.560,jersey_experiment_5,2023.2.2,Win32,84.74576271,,,,,,,,,,,,,,,,740.14,741.9399,741.9399,742.7751,return,0.1953,,50.65104167,,,,,,FBP-OG-18.png,0.4,1.2,8,1,,,,,,,,,,,,,,,,,,0,27,27,7,1,,,,,,,,,,,,,,,,,,,,,,,
,,,,,WIN24_067,24,female,2024-02-22_15h05.04.560,jersey_experiment_5,2023.2.2,Win32,84.74576271,,,,,,,,,,,,,,,,742.7753,744.0692,744.0692,745.0223,return,0.166,,75.52083333,,,,,,FBP-YG-17.png,0.45,1.2,35,0.5,,,,,,,,,,,,,,,,,,0,28,28,34,1,,,,,,,,,,,,,,,,,,,,,,,
,,,,,WIN24_067,24,female,2024-02-22_15h05.04.560,jersey_experiment_5,2023.2.2,Win32,84.74576271,,,,,,,,,,,,,,,,745.0225,746.3164,746.3164,747.3989,return,0.1973,,50.52083333,,,,,,FBP-YG-18.png,0.4,1.2,38,0.5,,,,,,,,,,,,,,,,,,0,29,29,37,1,,,,,,,,,,,,,,,,,,,,,,,
,,,,,WIN24_067,24,female,2024-02-22_15h05.04.560,jersey_experiment_5,2023.2.2,Win32,84.74576271,,,,,,,,,,,,,,,,747.3992,748.6929,748.6929,749.3282,return,0.1883,,50.26041667,,,,,,FBP-YG-19.png,0.4,1.2,43,0.5,,,,,,,,,,,,,,,,,,0,30,30,42,1,,,,,,,,,,,,,,,,,,,,,,,
,,,,,WIN24_067,24,female,2024-02-22_15h05.04.560,jersey_experiment_5,2023.2.2,Win32,84.74576271,,,,,,,,,,,,,,,,749.3284,750.6224,750.6224,751.1049,return,0.1186,,50.26041667,,,,,,FBP-RB-91.png,0.37,1.2,27,0.5,,,,,,,,,,,,,,,,,,0,31,31,26,1,,,,,,,,,,,,,,,,,,,,,,,
,,,,,WIN24_067,24,female,2024-02-22_15h05.04.560,jersey_experiment_5,2023.2.2,Win32,84.74576271,,,,,,,,,,,,,,,,751.1051,752.399,752.399,752.9285,return,0.1652,,50.26041667,,,,,,FBP-RB-81.png,0.35,1.2,21,0.5,,,,,,,,,,,,,,,,,,0,32,32,20,1,,,,,,,,,,,,,,,,,,,,,,,
,,,,,WIN24_067,24,female,2024-02-22_15h05.04.560,jersey_experiment_5,2023.2.2,Win32,84.74576271,,,,,,,,,,,,,,,,752.9287,754.7284,754.7284,756.505,return,0.2186,,99.08854167,,,,,,FBP-PT-91.png,0.45,1.2,60,1,,,,,,,,,,,,,,,,,,0,33,33,59,1,,,,,,,,,,,,,,,,,,,,,,,
,,,,,WIN24_067,24,female,2024-02-22_15h05.04.560,jersey_experiment_5,2023.2.2,Win32,84.74576271,,,,,,,,,,,,,,,,756.5051,757.7991,757.7992,760.4346,return,0.2452,,1.041666667,,,,,,FBP-RB-91.png,0.35,1.2,26,0.5,,,,,,,,,,,,,,,,,,0,34,34,25,1,,,,,,,,,,,,,,,,,,,,,,,
,,,,,WIN24_067,24,female,2024-02-22_15h05.04.560,jersey_experiment_5,2023.2.2,Win32,84.74576271,,,,,,,,,,,,,,,,760.4348,762.2348,762.2348,763.4819,return,0.3109,,0.130208333,,,,,,FBP-PT-91.png,0.4,1.2,58,1,,,,,,,,,,,,,,,,,,0,35,35,57,1,,,,,,,,,,,,,,,,,,,,,,,
,,,,,WIN24_067,24,female,2024-02-22_15h05.04.560,jersey_experiment_5,2023.2.2,Win32,84.74576271,,,,,,,,,,,,,,,,763.4821,765.2818,765.2818,766.1994,return,0.2201,,51.30208333,,,,,,FBP-OG-18.png,0.45,1.2,10,1,,,,,,,,,,,,,,,,,,0,36,36,9,1,,,,,,,,,,,,,,,,,,,,,,,
,,,,,WIN24_067,24,female,2024-02-22_15h05.04.560,jersey_experiment_5,2023.2.2,Win32,84.74576271,,,,,,,,,,,,,,,,766.1997,767.4936,767.4936,768.2349,return,0.1678,,50.26041667,,,,,,FBP-YG-19.png,0.45,1.2,45,0.5,,,,,,,,,,,,,,,,,,0,37,37,44,1,,,,,,,,,,,,,,,,,,,,,,,
,,,,,WIN24_067,24,female,2024-02-22_15h05.04.560,jersey_experiment_5,2023.2.2,Win32,84.74576271,,,,,,,,,,,,,,,,768.2352,769.529,769.529,770.1409,return,0.1894,,50.26041667,,,,,,FBP-RB-71.png,0.4,1.2,18,0.5,,,,,,,,,,,,,,,,,,0,38,38,17,1,,,,,,,,,,,,,,,,,,,,,,,
,,,,,WIN24_067,24,female,2024-02-22_15h05.04.560,jersey_experiment_5,2023.2.2,Win32,84.74576271,,,,,,,,,,,,,,,,770.1412,771.9408,771.9408,773.7881,return,0.1333,,74.609375,,,,,,FBP-OG-17.png,0.45,1.2,5,1,,,,,,,,,,,,,,,,,,0,39,39,4,1,,,,,,,,,,,,,,,,,,,,,,,
,,,,,WIN24_067,24,female,2024-02-22_15h05.04.560,jersey_experiment_5,2023.2.2,Win32,84.74576271,,,,,,,,,,,,,,,,773.7883,775.5881,775.5882,776.706,return,0.202,,0.130208333,,,,,,FBP-OG-19.png,0.37,1.2,12,1,,,,,,,,,,,,,,,,,,0,40,40,11,1,,,,,,,,,,,,,,,,,,,,,,,
,,,,,WIN24_067,24,female,2024-02-22_15h05.04.560,jersey_experiment_5,2023.2.2,Win32,84.74576271,,,,,,,,,,,,,,,,776.7062,778.5059,778.5059,779.4235,return,0.165,,0.651041667,,,,,,FBP-PT-71.png,0.37,1.2,47,1,,,,,,,,,,,,,,,,,,0,41,41,46,1,,,,,,,,,,,,,,,,,,,,,,,
,,,,,WIN24_067,24,female,2024-02-22_15h05.04.560,jersey_experiment_5,2023.2.2,Win32,84.74576271,,,,,,,,,,,,,,,,779.4237,780.7177,780.7177,782.953,return,0.1342,,50,,,,,,FBP-RB-91.png,0.4,1.2,28,0.5,,,,,,,,,,,,,,,,,,0,42,42,27,1,,,,,,,,,,,,,,,,,,,,,,,
,,,,,WIN24_067,24,female,2024-02-22_15h05.04.560,jersey_experiment_5,2023.2.2,Win32,84.74576271,,,,,,,,,,,,,,,,782.9533,784.753,784.7531,785.3414,return,0.2025,,50,,,,,,FBP-PT-81.png,0.4,1.2,53,1,,,,,,,,,,,,,,,,,,0,43,43,52,1,,,,,,,,,,,,,,,,,,,,,,,
,,,,,WIN24_067,24,female,2024-02-22_15h05.04.560,jersey_experiment_5,2023.2.2,Win32,84.74576271,,,,,,,,,,,,,,,,785.3417,787.1415,787.1416,792.6358,return,1.1453,,0.390625,,,,,,FBP-OG-18.png,0.35,1.2,6,1,,,,,,,,,,,,,,,,,,0,44,44,5,1,,,,,,,,,,,,,,,,,,,,,,,
,,,,,WIN24_067,24,female,2024-02-22_15h05.04.560,jersey_experiment_5,2023.2.2,Win32,84.74576271,,,,,,,,,,,,,,,,792.636,793.93,793.93,795.0359,return,0.2276,,49.47916667,,,,,,FBP-RB-81.png,0.4,1.2,23,0.5,,,,,,,,,,,,,,,,,,0,45,45,22,1,,,,,,,,,,,,,,,,,,,,,,,
,,,,,WIN24_067,24,female,2024-02-22_15h05.04.560,jersey_experiment_5,2023.2.2,Win32,84.74576271,,,,,,,,,,,,,,,,795.0361,796.3301,796.3301,797.6478,return,0.2596,,74.86979167,,,,,,FBP-RB-71.png,0.45,1.2,20,0.5,,,,,,,,,,,,,,,,,,0,46,46,19,1,,,,,,,,,,,,,,,,,,,,,,,
,,,,,WIN24_067,24,female,2024-02-22_15h05.04.560,jersey_experiment_5,2023.2.2,Win32,84.74576271,,,,,,,,,,,,,,,,797.6481,798.9419,798.9419,802.5891,return,0.1898,,24.73958333,,,,,,FBP-YG-19.png,0.37,1.2,42,0.5,,,,,,,,,,,,,,,,,,0,47,47,41,1,,,,,,,,,,,,,,,,,,,,,,,
,,,,,WIN24_067,24,female,2024-02-22_15h05.04.560,jersey_experiment_5,2023.2.2,Win32,84.74576271,,,,,,,,,,,,,,,,802.5894,804.3892,804.3892,806.0127,return,0.5778,,75.390625,,,,,,FBP-PT-71.png,0.45,1.2,50,1,,,,,,,,,,,,,,,,,,0,48,48,49,1,,,,,,,,,,,,,,,,,,,,,,,
,,,,,WIN24_067,24,female,2024-02-22_15h05.04.560,jersey_experiment_5,2023.2.2,Win32,84.74576271,,,,,,,,,,,,,,,,806.0129,807.3068,807.3068,809.307,return,0.6274,,24.47916667,,,,,,FBP-YG-17.png,0.37,1.2,32,0.5,,,,,,,,,,,,,,,,,,0,49,49,31,1,,,,,,,,,,,,,,,,,,,,,,,
,,,,,WIN24_067,24,female,2024-02-22_15h05.04.560,jersey_experiment_5,2023.2.2,Win32,84.74576271,,,,,,,,,,,,,,,,809.3073,810.601,810.601,811.5306,return,0.1206,,49.609375,,,,,,FBP-RB-81.png,0.45,1.2,25,0.5,,,,,,,,,,,,,,,,,,0,50,50,24,1,,,,,,,,,,,,,,,,,,,,,,,
,,,,,WIN24_067,24,female,2024-02-22_15h05.04.560,jersey_experiment_5,2023.2.2,Win32,84.74576271,,,,,,,,,,,,,,,,811.5308,813.3307,813.3307,814.7189,return,0.2126,,0.651041667,,,,,,FBP-PT-71.png,0.35,1.2,46,1,,,,,,,,,,,,,,,,,,0,51,51,45,1,,,,,,,,,,,,,,,,,,,,,,,
,,,,,WIN24_067,24,female,2024-02-22_15h05.04.560,jersey_experiment_5,2023.2.2,Win32,84.74576271,,,,,,,,,,,,,,,,814.7191,816.013,816.0131,819.8839,return,2.3319,,74.86979167,,,,,,FBP-RB-91.png,0.45,1.2,30,0.5,,,,,,,,,,,,,,,,,,0,52,52,29,1,,,,,,,,,,,,,,,,,,,,,,,
,,,,,WIN24_067,24,female,2024-02-22_15h05.04.560,jersey_experiment_5,2023.2.2,Win32,84.74576271,,,,,,,,,,,,,,,,819.8841,821.6838,821.6838,824.1075,return,1.9446,,74.86979167,,,,,,FBP-PT-91.png,0.43,1.2,59,1,,,,,,,,,,,,,,,,,,0,53,53,58,1,,,,,,,,,,,,,,,,,,,,,,,
,,,,,WIN24_067,24,female,2024-02-22_15h05.04.560,jersey_experiment_5,2023.2.2,Win32,84.74576271,,,,,,,,,,,,,,,,824.1078,825.9075,825.9075,827.0252,return,0.1747,,0.651041667,,,,,,FBP-PT-91.png,0.35,1.2,56,1,,,,,,,,,,,,,,,,,,0,54,54,55,1,,,,,,,,,,,,,,,,,,,,,,,
,,,,,WIN24_067,24,female,2024-02-22_15h05.04.560,jersey_experiment_5,2023.2.2,Win32,84.74576271,,,,,,,,,,,,,,,,827.0255,828.8253,828.8253,829.5312,return,0.3801,,0.911458333,,,,,,FBP-PT-91.png,0.37,1.2,57,1,,,,,,,,,,,,,,,,,,0,55,55,56,1,,,,,,,,,,,,,,,,,,,,,,,
,,,,,WIN24_067,24,female,2024-02-22_15h05.04.560,jersey_experiment_5,2023.2.2,Win32,84.74576271,,,,,,,,,,,,,,,,829.5313,831.3313,831.3313,835.2607,return,1.5091,,75.65104167,,,,,,FBP-PT-81.png,0.45,1.2,55,1,,,,,,,,,,,,,,,,,,0,56,56,54,1,,,,,,,,,,,,,,,,,,,,,,,
,,,,,WIN24_067,24,female,2024-02-22_15h05.04.560,jersey_experiment_5,2023.2.2,Win32,84.74576271,,,,,,,,,,,,,,,,835.261,836.555,836.555,839.5787,return,0.1682,,74.47916667,,,,,,FBP-YG-18.png,0.45,1.2,40,0.5,,,,,,,,,,,,,,,,,,0,57,57,39,1,,,,,,,,,,,,,,,,,,,,,,,
,,,,,WIN24_067,24,female,2024-02-22_15h05.04.560,jersey_experiment_5,2023.2.2,Win32,84.74576271,,,,,,,,,,,,,,,,839.5789,841.3788,841.3788,842.2377,return,0.2023,,0.520833333,,,,,,FBP-OG-18.png,0.37,1.2,7,1,,,,,,,,,,,,,,,,,,0,58,58,6,1,,,,,,,,,,,,,,,,,,,,,,,
,,,,,WIN24_067,24,female,2024-02-22_15h05.04.560,jersey_experiment_5,2023.2.2,Win32,84.74576271,,,,,,,,,,,,,,,,842.238,843.5318,843.5318,844.1669,return,0.2087,,0.520833333,,,,,,FBP-RB-71.png,0.37,1.2,17,0.5,,,,,,,,,,,,,,,,,,0,59,59,16,1,,,,,,,,,,,,,,,,,,,,,,,
,,,,,WIN24_067,24,female,2024-02-22_15h05.04.560,jersey_experiment_5,2023.2.2,Win32,84.74576271,,,,,,,,,,,,,,,,,,,,,,,,,,,,,,,,,,,,,,,,,,,,,,,,,,,,,,,,844.1674,853.7442,return,9.567,,,,,,,,,,,,,,,,,,,
,,,,,WIN24_067,24,female,2024-02-22_15h05.04.560,jersey_experiment_5,2023.2.2,Win32,84.74576271,,,,,,,,,,,,,,,,,,,,,,,,,,,,,,,,,,,,,,,,,,,,,,,,,,,,,,,,,,,,,853.7443,868.2034,1,13.642,return,0.8043,,,,,,,,,,,,
,,,,,WIN24_067,24,female,2024-02-22_15h05.04.560,jersey_experiment_5,2023.2.2,Win32,84.74576271,,,,,,,,,,,,,,,,,,,,,,,,,,,,,,,,,,,,,,,,,,,,,,,,,,,,,,,,,,,,,,,,,,,,868.2035,994.413,I think this study is about if we could identify the same size football players in the same catergories.,right,114.9037,,,,,,
,,,,,WIN24_067,24,female,2024-02-22_15h05.04.560,jersey_experiment_5,2023.2.2,Win32,84.74576271,,,,,,,,,,,,,,,,,,,,,,,,,,,,,,,,,,,,,,,,,,,,,,,,,,,,,,,,,,,,,,,,,,,,,,,,,,994.413,1000.8436,return,6.4223,