requirements.started,requirements.stopped,key_resp_3.keys,key_resp_3.rt,key_resp_3.duration,Subject ID,Age,Gender,date,expName,psychopyVersion,OS,frameRate,instructions1.started,instructions1.stopped,key_resp.keys,key_resp.rt,key_resp.duration,example.started,example.stopped,enter_2.keys,enter_2.rt,enter_2.duration,instructions2.started,instructions2.stopped,enter_3.keys,enter_3.rt,enter_3.duration,image.started,image.stopped,slider_2.started,slider_2.stopped,next.keys,next.rt,next.duration,slider.response,trial_block_1.thisRepN,trial_block_1.thisTrialN,trial_block_1.thisN,trial_block_1.thisIndex,trial_block_1.ran,Path,Width,Height,Index,Duration,trial_block_2.thisRepN,trial_block_2.thisTrialN,trial_block_2.thisN,trial_block_2.thisIndex,trial_block_2.ran,rest_break.started,rest_break.stopped,end_break.started,end_break.stopped,key_resp_5.keys,key_resp_5.rt,key_resp_5.duration,trial_block_3.thisRepN,trial_block_3.thisTrialN,trial_block_3.thisN,trial_block_3.thisIndex,trial_block_3.ran,trial_block_4.thisRepN,trial_block_4.thisTrialN,trial_block_4.thisN,trial_block_4.thisIndex,trial_block_4.ran,questions_intro.started,questions_intro.stopped,enter_12.keys,enter_12.rt,enter_12.duration,question2.started,question2.stopped,question_doingbest.response,question_doingbest.rt,enter_15.keys,enter_15.rt,enter_15.duration,pattern.started,pattern.stopped,pattern_2.text,enter_17.keys,enter_17.rt,enter_17.duration,thankyou.started,thankyou.stopped,enter_14.keys,enter_14.rt,enter_14.duration
0.0002,11.1763,return,11.1671,,WIN24_062,20,Female,2024-02-15_13h01.39.094,jersey_experiment_5,2023.2.2,Win32,84.74576271,,,,,,,,,,,,,,,,,,,,,,,,,,,,,,,,,,,,,,,,,,,,,,,,,,,,,,,,,,,,,,,,,,,,,,,,,,,,,,
,,,,,WIN24_062,20,Female,2024-02-15_13h01.39.094,jersey_experiment_5,2023.2.2,Win32,84.74576271,11.1764,19.3766,return,8.1828,,,,,,,,,,,,,,,,,,,,,,,,,,,,,,,,,,,,,,,,,,,,,,,,,,,,,,,,,,,,,,,,,,,,,,,,,,
,,,,,WIN24_062,20,Female,2024-02-15_13h01.39.094,jersey_experiment_5,2023.2.2,Win32,84.74576271,,,,,,19.3766,25.662,return,6.2515,,,,,,,,,,,,,,,,,,,,,,,,,,,,,,,,,,,,,,,,,,,,,,,,,,,,,,,,,,,,,,,,,,,,,
,,,,,WIN24_062,20,Female,2024-02-15_13h01.39.094,jersey_experiment_5,2023.2.2,Win32,84.74576271,,,,,,,,,,,25.662,47.4749,return,21.7983,,,,,,,,,,,,,,,,,,,,,,,,,,,,,,,,,,,,,,,,,,,,,,,,,,,,,,,,,,,,,,,,
,,,,,WIN24_062,20,Female,2024-02-15_13h01.39.094,jersey_experiment_5,2023.2.2,Win32,84.74576271,,,,,,,,,,,,,,,,47.4819,48.7774,48.7774,56.7542,return,2.0986,,76.82291667,0,0,0,9,1,FBP-OG-81.png,0.45,1.2,10,0.5,,,,,,,,,,,,,,,,,,,,,,,,,,,,,,,,,,,,,,,,,,,,,
,,,,,WIN24_062,20,Female,2024-02-15_13h01.39.094,jersey_experiment_5,2023.2.2,Win32,84.74576271,,,,,,,,,,,,,,,,56.7545,58.5542,58.5542,62.1895,return,1.4208,,88.41145833,0,1,1,19,1,FBP-RB-17.png,0.45,1.2,20,1,,,,,,,,,,,,,,,,,,,,,,,,,,,,,,,,,,,,,,,,,,,,,
,,,,,WIN24_062,20,Female,2024-02-15_13h01.39.094,jersey_experiment_5,2023.2.2,Win32,84.74576271,,,,,,,,,,,,,,,,62.1898,63.9897,63.9898,71.3312,return,1.2012,,28.77604167,0,2,2,26,1,FBP-RB-19.png,0.37,1.2,27,1,,,,,,,,,,,,,,,,,,,,,,,,,,,,,,,,,,,,,,,,,,,,,
,,,,,WIN24_062,20,Female,2024-02-15_13h01.39.094,jersey_experiment_5,2023.2.2,Win32,84.74576271,,,,,,,,,,,,,,,,71.3315,73.1312,73.1313,78.8136,return,1.2209,,36.97916667,0,3,3,41,1,FBP-YG-91.png,0.37,1.2,42,1,,,,,,,,,,,,,,,,,,,,,,,,,,,,,,,,,,,,,,,,,,,,,
,,,,,WIN24_062,20,Female,2024-02-15_13h01.39.094,jersey_experiment_5,2023.2.2,Win32,84.74576271,,,,,,,,,,,,,,,,78.814,80.6138,80.6138,84.967,return,0.8799,,42.578125,0,4,4,40,1,FBP-YG-91.png,0.35,1.2,41,1,,,,,,,,,,,,,,,,,,,,,,,,,,,,,,,,,,,,,,,,,,,,,
,,,,,WIN24_062,20,Female,2024-02-15_13h01.39.094,jersey_experiment_5,2023.2.2,Win32,84.74576271,,,,,,,,,,,,,,,,84.9672,86.7671,86.7672,90.6613,return,1.799,,94.01041667,0,5,5,38,1,FBP-YG-81.png,0.43,1.2,39,1,,,,,,,,,,,,,,,,,,,,,,,,,,,,,,,,,,,,,,,,,,,,,
,,,,,WIN24_062,20,Female,2024-02-15_13h01.39.094,jersey_experiment_5,2023.2.2,Win32,84.74576271,,,,,,,,,,,,,,,,90.6615,92.4614,92.4614,97.7203,return,2.3625,,56.38020833,0,6,6,27,1,FBP-RB-19.png,0.4,1.2,28,1,,,,,,,,,,,,,,,,,,,,,,,,,,,,,,,,,,,,,,,,,,,,,
,,,,,WIN24_062,20,Female,2024-02-15_13h01.39.094,jersey_experiment_5,2023.2.2,Win32,84.74576271,,,,,,,,,,,,,,,,97.7206,99.0145,99.0145,105.2499,return,0.9552,,45.83333333,0,7,7,1,1,FBP-OG-71.png,0.37,1.2,2,0.5,,,,,,,,,,,,,,,,,,,,,,,,,,,,,,,,,,,,,,,,,,,,,
,,,,,WIN24_062,20,Female,2024-02-15_13h01.39.094,jersey_experiment_5,2023.2.2,Win32,84.74576271,,,,,,,,,,,,,,,,105.2502,106.5442,106.5442,111.5209,return,0.78,,63.15104167,0,8,8,7,1,FBP-OG-81.png,0.4,1.2,8,0.5,,,,,,,,,,,,,,,,,,,,,,,,,,,,,,,,,,,,,,,,,,,,,
,,,,,WIN24_062,20,Female,2024-02-15_13h01.39.094,jersey_experiment_5,2023.2.2,Win32,84.74576271,,,,,,,,,,,,,,,,111.5212,112.8152,112.8152,116.8858,return,1.788,,98.56770833,0,9,9,14,1,FBP-OG-91.png,0.45,1.2,15,0.5,,,,,,,,,,,,,,,,,,,,,,,,,,,,,,,,,,,,,,,,,,,,,
,,,,,WIN24_062,20,Female,2024-02-15_13h01.39.094,jersey_experiment_5,2023.2.2,Win32,84.74576271,,,,,,,,,,,,,,,,116.8861,118.18,118.18,122.9095,return,1.5833,,70.44270833,0,10,10,47,1,FBP-PT-17.png,0.4,1.2,48,0.5,,,,,,,,,,,,,,,,,,,,,,,,,,,,,,,,,,,,,,,,,,,,,
,,,,,WIN24_062,20,Female,2024-02-15_13h01.39.094,jersey_experiment_5,2023.2.2,Win32,84.74576271,,,,,,,,,,,,,,,,122.9097,124.7095,124.7096,127.8156,return,1.7275,,86.19791667,0,11,11,28,1,FBP-RB-19.png,0.43,1.2,29,1,,,,,,,,,,,,,,,,,,,,,,,,,,,,,,,,,,,,,,,,,,,,,
,,,,,WIN24_062,20,Female,2024-02-15_13h01.39.094,jersey_experiment_5,2023.2.2,Win32,84.74576271,,,,,,,,,,,,,,,,127.8158,129.6157,129.6158,132.7217,return,0.9674,,80.98958333,0,12,12,23,1,FBP-RB-18.png,0.43,1.2,24,1,,,,,,,,,,,,,,,,,,,,,,,,,,,,,,,,,,,,,,,,,,,,,
,,,,,WIN24_062,20,Female,2024-02-15_13h01.39.094,jersey_experiment_5,2023.2.2,Win32,84.74576271,,,,,,,,,,,,,,,,132.7219,134.0158,134.0159,137.2043,return,1.5085,,8.463541667,0,13,13,45,1,FBP-PT-17.png,0.35,1.2,46,0.5,,,,,,,,,,,,,,,,,,,,,,,,,,,,,,,,,,,,,,,,,,,,,
,,,,,WIN24_062,20,Female,2024-02-15_13h01.39.094,jersey_experiment_5,2023.2.2,Win32,84.74576271,,,,,,,,,,,,,,,,137.2045,139.0043,139.0044,140.4985,return,0.3103,,63.02083333,0,14,14,22,1,FBP-RB-18.png,0.4,1.2,23,1,,,,,,,,,,,,,,,,,,,,,,,,,,,,,,,,,,,,,,,,,,,,,
,,,,,WIN24_062,20,Female,2024-02-15_13h01.39.094,jersey_experiment_5,2023.2.2,Win32,84.74576271,,,,,,,,,,,,,,,,140.4988,141.7926,141.7927,144.181,return,0.9888,,97.00520833,0,15,15,4,1,FBP-OG-71.png,0.45,1.2,5,0.5,,,,,,,,,,,,,,,,,,,,,,,,,,,,,,,,,,,,,,,,,,,,,
,,,,,WIN24_062,20,Female,2024-02-15_13h01.39.094,jersey_experiment_5,2023.2.2,Win32,84.74576271,,,,,,,,,,,,,,,,144.1812,145.4751,145.4752,148.6164,return,1.0448,,79.6875,0,16,16,53,1,FBP-PT-18.png,0.43,1.2,54,0.5,,,,,,,,,,,,,,,,,,,,,,,,,,,,,,,,,,,,,,,,,,,,,
,,,,,WIN24_062,20,Female,2024-02-15_13h01.39.094,jersey_experiment_5,2023.2.2,Win32,84.74576271,,,,,,,,,,,,,,,,148.6166,150.4165,150.4166,158.0521,return,5.6029,,96.74479167,0,17,17,29,1,FBP-RB-19.png,0.45,1.2,30,1,,,,,,,,,,,,,,,,,,,,,,,,,,,,,,,,,,,,,,,,,,,,,
,,,,,WIN24_062,20,Female,2024-02-15_13h01.39.094,jersey_experiment_5,2023.2.2,Win32,84.74576271,,,,,,,,,,,,,,,,158.0564,159.8522,159.8522,164.3229,return,2.0719,,28.90625,0,18,18,31,1,FBP-YG-71.png,0.37,1.2,32,1,,,,,,,,,,,,,,,,,,,,,,,,,,,,,,,,,,,,,,,,,,,,,
,,,,,WIN24_062,20,Female,2024-02-15_13h01.39.094,jersey_experiment_5,2023.2.2,Win32,84.74576271,,,,,,,,,,,,,,,,164.3233,166.1228,166.1228,169.2878,return,1.2236,,13.93229167,0,19,19,25,1,FBP-RB-19.png,0.35,1.2,26,1,,,,,,,,,,,,,,,,,,,,,,,,,,,,,,,,,,,,,,,,,,,,,
,,,,,WIN24_062,20,Female,2024-02-15_13h01.39.094,jersey_experiment_5,2023.2.2,Win32,84.74576271,,,,,,,,,,,,,,,,169.288,170.5818,170.5818,173.1115,return,1.1297,,84.375,0,20,20,13,1,FBP-OG-91.png,0.43,1.2,14,0.5,,,,,,,,,,,,,,,,,,,,,,,,,,,,,,,,,,,,,,,,,,,,,
,,,,,WIN24_062,20,Female,2024-02-15_13h01.39.094,jersey_experiment_5,2023.2.2,Win32,84.74576271,,,,,,,,,,,,,,,,173.1117,174.4056,174.4057,177.8411,return,1.1913,,8.072916667,0,21,21,50,1,FBP-PT-18.png,0.35,1.2,51,0.5,,,,,,,,,,,,,,,,,,,,,,,,,,,,,,,,,,,,,,,,,,,,,
,,,,,WIN24_062,20,Female,2024-02-15_13h01.39.094,jersey_experiment_5,2023.2.2,Win32,84.74576271,,,,,,,,,,,,,,,,177.8412,179.1351,179.1352,184.3588,return,0.9744,,39.0625,0,22,22,56,1,FBP-PT-19.png,0.37,1.2,57,0.5,,,,,,,,,,,,,,,,,,,,,,,,,,,,,,,,,,,,,,,,,,,,,
,,,,,WIN24_062,20,Female,2024-02-15_13h01.39.094,jersey_experiment_5,2023.2.2,Win32,84.74576271,,,,,,,,,,,,,,,,184.3591,185.6529,185.653,188.0061,return,1.1772,,75.390625,0,23,23,48,1,FBP-PT-17.png,0.43,1.2,49,0.5,,,,,,,,,,,,,,,,,,,,,,,,,,,,,,,,,,,,,,,,,,,,,
,,,,,WIN24_062,20,Female,2024-02-15_13h01.39.094,jersey_experiment_5,2023.2.2,Win32,84.74576271,,,,,,,,,,,,,,,,188.0063,189.8063,189.8063,194.2887,return,1.9217,,95.83333333,0,24,24,24,1,FBP-RB-18.png,0.45,1.2,25,1,,,,,,,,,,,,,,,,,,,,,,,,,,,,,,,,,,,,,,,,,,,,,
,,,,,WIN24_062,20,Female,2024-02-15_13h01.39.094,jersey_experiment_5,2023.2.2,Win32,84.74576271,,,,,,,,,,,,,,,,194.2889,196.0889,196.0889,203.5716,return,1.1306,,20.57291667,0,25,25,21,1,FBP-RB-18.png,0.37,1.2,22,1,,,,,,,,,,,,,,,,,,,,,,,,,,,,,,,,,,,,,,,,,,,,,
,,,,,WIN24_062,20,Female,2024-02-15_13h01.39.094,jersey_experiment_5,2023.2.2,Win32,84.74576271,,,,,,,,,,,,,,,,203.5717,205.3715,205.3715,209.301,return,1.6821,,6.25,0,26,26,35,1,FBP-YG-81.png,0.35,1.2,36,1,,,,,,,,,,,,,,,,,,,,,,,,,,,,,,,,,,,,,,,,,,,,,
,,,,,WIN24_062,20,Female,2024-02-15_13h01.39.094,jersey_experiment_5,2023.2.2,Win32,84.74576271,,,,,,,,,,,,,,,,209.3013,211.1011,211.1011,215.9719,return,2.9327,,67.96875,0,27,27,32,1,FBP-YG-71.png,0.4,1.2,33,1,,,,,,,,,,,,,,,,,,,,,,,,,,,,,,,,,,,,,,,,,,,,,
,,,,,WIN24_062,20,Female,2024-02-15_13h01.39.094,jersey_experiment_5,2023.2.2,Win32,84.74576271,,,,,,,,,,,,,,,,215.9722,217.7719,217.7719,220.7721,return,1.082,,29.42708333,0,28,28,15,1,FBP-RB-17.png,0.35,1.2,16,1,,,,,,,,,,,,,,,,,,,,,,,,,,,,,,,,,,,,,,,,,,,,,
,,,,,WIN24_062,20,Female,2024-02-15_13h01.39.094,jersey_experiment_5,2023.2.2,Win32,84.74576271,,,,,,,,,,,,,,,,220.7723,222.0662,222.0662,226.831,return,3.4902,,93.22916667,0,29,29,54,1,FBP-PT-18.png,0.45,1.2,55,0.5,,,,,,,,,,,,,,,,,,,,,,,,,,,,,,,,,,,,,,,,,,,,,
,,,,,WIN24_062,20,Female,2024-02-15_13h01.39.094,jersey_experiment_5,2023.2.2,Win32,84.74576271,,,,,,,,,,,,,,,,226.8312,228.6312,228.6313,233.6666,return,2.0868,,56.25,0,30,30,17,1,FBP-RB-17.png,0.4,1.2,18,1,,,,,,,,,,,,,,,,,,,,,,,,,,,,,,,,,,,,,,,,,,,,,
,,,,,WIN24_062,20,Female,2024-02-15_13h01.39.094,jersey_experiment_5,2023.2.2,Win32,84.74576271,,,,,,,,,,,,,,,,233.6669,234.961,234.961,238.0669,return,1.1307,,30.46875,0,31,31,5,1,FBP-OG-81.png,0.35,1.2,6,0.5,,,,,,,,,,,,,,,,,,,,,,,,,,,,,,,,,,,,,,,,,,,,,
,,,,,WIN24_062,20,Female,2024-02-15_13h01.39.094,jersey_experiment_5,2023.2.2,Win32,84.74576271,,,,,,,,,,,,,,,,238.0671,239.3611,239.3611,242.8552,return,1.0119,,96.35416667,0,32,32,49,1,FBP-PT-17.png,0.45,1.2,50,0.5,,,,,,,,,,,,,,,,,,,,,,,,,,,,,,,,,,,,,,,,,,,,,
,,,,,WIN24_062,20,Female,2024-02-15_13h01.39.094,jersey_experiment_5,2023.2.2,Win32,84.74576271,,,,,,,,,,,,,,,,242.8554,244.6553,244.6553,247.526,return,1.191,,63.80208333,0,33,33,37,1,FBP-YG-81.png,0.4,1.2,38,1,,,,,,,,,,,,,,,,,,,,,,,,,,,,,,,,,,,,,,,,,,,,,
,,,,,WIN24_062,20,Female,2024-02-15_13h01.39.094,jersey_experiment_5,2023.2.2,Win32,84.74576271,,,,,,,,,,,,,,,,247.5263,249.3259,249.3259,252.2556,return,1.5484,,59.11458333,0,34,34,42,1,FBP-YG-91.png,0.4,1.2,43,1,,,,,,,,,,,,,,,,,,,,,,,,,,,,,,,,,,,,,,,,,,,,,
,,,,,WIN24_062,20,Female,2024-02-15_13h01.39.094,jersey_experiment_5,2023.2.2,Win32,84.74576271,,,,,,,,,,,,,,,,252.2559,253.5498,253.5498,258.0205,return,2.4237,,92.578125,0,35,35,58,1,FBP-PT-19.png,0.43,1.2,59,0.5,,,,,,,,,,,,,,,,,,,,,,,,,,,,,,,,,,,,,,,,,,,,,
,,,,,WIN24_062,20,Female,2024-02-15_13h01.39.094,jersey_experiment_5,2023.2.2,Win32,84.74576271,,,,,,,,,,,,,,,,258.0207,259.8205,259.8205,270.1151,return,3.9779,,50.26041667,0,36,36,16,1,FBP-RB-17.png,0.37,1.2,17,1,,,,,,,,,,,,,,,,,,,,,,,,,,,,,,,,,,,,,,,,,,,,,
,,,,,WIN24_062,20,Female,2024-02-15_13h01.39.094,jersey_experiment_5,2023.2.2,Win32,84.74576271,,,,,,,,,,,,,,,,270.1153,271.4093,271.4093,274.3977,return,1.8187,,47.91666667,0,37,37,52,1,FBP-PT-18.png,0.4,1.2,53,0.5,,,,,,,,,,,,,,,,,,,,,,,,,,,,,,,,,,,,,,,,,,,,,
,,,,,WIN24_062,20,Female,2024-02-15_13h01.39.094,jersey_experiment_5,2023.2.2,Win32,84.74576271,,,,,,,,,,,,,,,,274.3978,275.6918,275.6918,279.7037,return,2.0557,,85.02604167,0,38,38,59,1,FBP-PT-19.png,0.45,1.2,60,0.5,,,,,,,,,,,,,,,,,,,,,,,,,,,,,,,,,,,,,,,,,,,,,
,,,,,WIN24_062,20,Female,2024-02-15_13h01.39.094,jersey_experiment_5,2023.2.2,Win32,84.74576271,,,,,,,,,,,,,,,,279.7039,281.5037,281.5037,288.3391,return,3.2746,,28.77604167,0,39,39,36,1,FBP-YG-81.png,0.37,1.2,37,1,,,,,,,,,,,,,,,,,,,,,,,,,,,,,,,,,,,,,,,,,,,,,
,,,,,WIN24_062,20,Female,2024-02-15_13h01.39.094,jersey_experiment_5,2023.2.2,Win32,84.74576271,,,,,,,,,,,,,,,,288.3394,290.1394,290.1394,294.3396,return,2.6156,,15.49479167,0,40,40,20,1,FBP-RB-18.png,0.35,1.2,21,1,,,,,,,,,,,,,,,,,,,,,,,,,,,,,,,,,,,,,,,,,,,,,
,,,,,WIN24_062,20,Female,2024-02-15_13h01.39.094,jersey_experiment_5,2023.2.2,Win32,84.74576271,,,,,,,,,,,,,,,,294.3397,295.6337,295.6337,299.4219,return,1.8208,,98.95833333,0,41,41,3,1,FBP-OG-71.png,0.43,1.2,4,0.5,,,,,,,,,,,,,,,,,,,,,,,,,,,,,,,,,,,,,,,,,,,,,
,,,,,WIN24_062,20,Female,2024-02-15_13h01.39.094,jersey_experiment_5,2023.2.2,Win32,84.74576271,,,,,,,,,,,,,,,,299.4222,300.7162,300.7162,305.7164,return,1.6473,,64.97395833,0,42,42,2,1,FBP-OG-71.png,0.4,1.2,3,0.5,,,,,,,,,,,,,,,,,,,,,,,,,,,,,,,,,,,,,,,,,,,,,
,,,,,WIN24_062,20,Female,2024-02-15_13h01.39.094,jersey_experiment_5,2023.2.2,Win32,84.74576271,,,,,,,,,,,,,,,,305.7167,307.0104,307.0104,312.046,return,2.689,,83.46354167,0,43,43,8,1,FBP-OG-81.png,0.43,1.2,9,0.5,,,,,,,,,,,,,,,,,,,,,,,,,,,,,,,,,,,,,,,,,,,,,
,,,,,WIN24_062,20,Female,2024-02-15_13h01.39.094,jersey_experiment_5,2023.2.2,Win32,84.74576271,,,,,,,,,,,,,,,,312.0463,313.846,313.846,322.8465,return,7.4792,,72.65625,0,44,44,33,1,FBP-YG-71.png,0.43,1.2,34,1,,,,,,,,,,,,,,,,,,,,,,,,,,,,,,,,,,,,,,,,,,,,,
,,,,,WIN24_062,20,Female,2024-02-15_13h01.39.094,jersey_experiment_5,2023.2.2,Win32,84.74576271,,,,,,,,,,,,,,,,322.8467,324.6465,324.6465,328.5996,return,2.7155,,91.92708333,0,45,45,34,1,FBP-YG-71.png,0.45,1.2,35,1,,,,,,,,,,,,,,,,,,,,,,,,,,,,,,,,,,,,,,,,,,,,,
,,,,,WIN24_062,20,Female,2024-02-15_13h01.39.094,jersey_experiment_5,2023.2.2,Win32,84.74576271,,,,,,,,,,,,,,,,328.5999,329.8937,329.8938,333.0116,return,1.2245,,4.427083333,0,46,46,55,1,FBP-PT-19.png,0.35,1.2,56,0.5,,,,,,,,,,,,,,,,,,,,,,,,,,,,,,,,,,,,,,,,,,,,,
,,,,,WIN24_062,20,Female,2024-02-15_13h01.39.094,jersey_experiment_5,2023.2.2,Win32,84.74576271,,,,,,,,,,,,,,,,333.0119,334.3057,334.3058,337.2706,return,1.5306,,19.53125,0,47,47,11,1,FBP-OG-91.png,0.37,1.2,12,0.5,,,,,,,,,,,,,,,,,,,,,,,,,,,,,,,,,,,,,,,,,,,,,
,,,,,WIN24_062,20,Female,2024-02-15_13h01.39.094,jersey_experiment_5,2023.2.2,Win32,84.74576271,,,,,,,,,,,,,,,,337.2708,339.0707,339.0707,341.7178,return,1.3887,,80.59895833,0,48,48,39,1,FBP-YG-81.png,0.45,1.2,40,1,,,,,,,,,,,,,,,,,,,,,,,,,,,,,,,,,,,,,,,,,,,,,
,,,,,WIN24_062,20,Female,2024-02-15_13h01.39.094,jersey_experiment_5,2023.2.2,Win32,84.74576271,,,,,,,,,,,,,,,,341.718,343.5176,343.5177,346.0003,return,1.0864,,92.05729167,0,49,49,18,1,FBP-RB-17.png,0.43,1.2,19,1,,,,,,,,,,,,,,,,,,,,,,,,,,,,,,,,,,,,,,,,,,,,,
,,,,,WIN24_062,20,Female,2024-02-15_13h01.39.094,jersey_experiment_5,2023.2.2,Win32,84.74576271,,,,,,,,,,,,,,,,346.0006,347.2944,347.2945,349.8239,return,0.8868,,9.895833333,0,50,50,0,1,FBP-OG-71.png,0.35,1.2,1,0.5,,,,,,,,,,,,,,,,,,,,,,,,,,,,,,,,,,,,,,,,,,,,,
,,,,,WIN24_062,20,Female,2024-02-15_13h01.39.094,jersey_experiment_5,2023.2.2,Win32,84.74576271,,,,,,,,,,,,,,,,349.8241,351.6242,351.6242,354.1653,return,1.4829,,94.66145833,0,51,51,44,1,FBP-YG-91.png,0.45,1.2,45,1,,,,,,,,,,,,,,,,,,,,,,,,,,,,,,,,,,,,,,,,,,,,,
,,,,,WIN24_062,20,Female,2024-02-15_13h01.39.094,jersey_experiment_5,2023.2.2,Win32,84.74576271,,,,,,,,,,,,,,,,354.1655,355.4595,355.4595,358.4478,return,1.0402,,27.60416667,0,52,52,6,1,FBP-OG-81.png,0.37,1.2,7,0.5,,,,,,,,,,,,,,,,,,,,,,,,,,,,,,,,,,,,,,,,,,,,,
,,,,,WIN24_062,20,Female,2024-02-15_13h01.39.094,jersey_experiment_5,2023.2.2,Win32,84.74576271,,,,,,,,,,,,,,,,358.4481,360.2478,360.2478,362.9657,return,1.1296,,91.796875,0,53,53,43,1,FBP-YG-91.png,0.43,1.2,44,1,,,,,,,,,,,,,,,,,,,,,,,,,,,,,,,,,,,,,,,,,,,,,
,,,,,WIN24_062,20,Female,2024-02-15_13h01.39.094,jersey_experiment_5,2023.2.2,Win32,84.74576271,,,,,,,,,,,,,,,,362.9658,364.2597,364.2598,367.2833,return,0.8033,,64.453125,0,54,54,57,1,FBP-PT-19.png,0.4,1.2,58,0.5,,,,,,,,,,,,,,,,,,,,,,,,,,,,,,,,,,,,,,,,,,,,,
,,,,,WIN24_062,20,Female,2024-02-15_13h01.39.094,jersey_experiment_5,2023.2.2,Win32,84.74576271,,,,,,,,,,,,,,,,367.2836,368.5776,368.5776,375.3308,return,4.2397,,52.99479167,0,55,55,51,1,FBP-PT-18.png,0.37,1.2,52,0.5,,,,,,,,,,,,,,,,,,,,,,,,,,,,,,,,,,,,,,,,,,,,,
,,,,,WIN24_062,20,Female,2024-02-15_13h01.39.094,jersey_experiment_5,2023.2.2,Win32,84.74576271,,,,,,,,,,,,,,,,375.331,377.1309,377.1309,379.0721,return,0.9481,,36.71875,0,56,56,30,1,FBP-YG-71.png,0.35,1.2,31,1,,,,,,,,,,,,,,,,,,,,,,,,,,,,,,,,,,,,,,,,,,,,,
,,,,,WIN24_062,20,Female,2024-02-15_13h01.39.094,jersey_experiment_5,2023.2.2,Win32,84.74576271,,,,,,,,,,,,,,,,379.0723,380.3663,380.3663,382.5897,return,0.6655,,43.61979167,0,57,57,46,1,FBP-PT-17.png,0.37,1.2,47,0.5,,,,,,,,,,,,,,,,,,,,,,,,,,,,,,,,,,,,,,,,,,,,,
,,,,,WIN24_062,20,Female,2024-02-15_13h01.39.094,jersey_experiment_5,2023.2.2,Win32,84.74576271,,,,,,,,,,,,,,,,382.5901,383.8841,383.8841,386.2253,return,0.6268,,63.671875,0,58,58,12,1,FBP-OG-91.png,0.4,1.2,13,0.5,,,,,,,,,,,,,,,,,,,,,,,,,,,,,,,,,,,,,,,,,,,,,
,,,,,WIN24_062,20,Female,2024-02-15_13h01.39.094,jersey_experiment_5,2023.2.2,Win32,84.74576271,,,,,,,,,,,,,,,,386.2255,387.5194,387.5194,390.0725,return,0.9178,,29.03645833,0,59,59,10,1,FBP-OG-91.png,0.35,1.2,11,0.5,,,,,,,,,,,,,,,,,,,,,,,,,,,,,,,,,,,,,,,,,,,,,
,,,,,WIN24_062,20,Female,2024-02-15_13h01.39.094,jersey_experiment_5,2023.2.2,Win32,84.74576271,,,,,,,,,,,,,,,,390.0744,391.8726,391.8726,394.0844,return,0.8826,,92.70833333,,,,,,FBP-RB-81.png,0.45,1.2,25,1,0,0,0,24,1,,,,,,,,,,,,,,,,,,,,,,,,,,,,,,,,,,,,,,,,
,,,,,WIN24_062,20,Female,2024-02-15_13h01.39.094,jersey_experiment_5,2023.2.2,Win32,84.74576271,,,,,,,,,,,,,,,,394.0847,395.8845,395.8845,398.4375,return,0.8108,,84.50520833,,,,,,FBP-YG-19.png,0.45,1.2,45,1,0,1,1,44,1,,,,,,,,,,,,,,,,,,,,,,,,,,,,,,,,,,,,,,,,
,,,,,WIN24_062,20,Female,2024-02-15_13h01.39.094,jersey_experiment_5,2023.2.2,Win32,84.74576271,,,,,,,,,,,,,,,,398.4378,399.7317,399.7317,403.1554,return,1.0037,,29.55729167,,,,,,FBP-PT-71.png,0.37,1.2,47,0.5,0,2,2,46,1,,,,,,,,,,,,,,,,,,,,,,,,,,,,,,,,,,,,,,,,
,,,,,WIN24_062,20,Female,2024-02-15_13h01.39.094,jersey_experiment_5,2023.2.2,Win32,84.74576271,,,,,,,,,,,,,,,,403.1556,404.4497,404.4498,407.1084,return,0.6592,,59.24479167,,,,,,FBP-PT-81.png,0.4,1.2,53,0.5,0,3,3,52,1,,,,,,,,,,,,,,,,,,,,,,,,,,,,,,,,,,,,,,,,
,,,,,WIN24_062,20,Female,2024-02-15_13h01.39.094,jersey_experiment_5,2023.2.2,Win32,84.74576271,,,,,,,,,,,,,,,,407.1086,408.4027,408.4027,411.5675,return,1.2638,,21.09375,,,,,,FBP-PT-81.png,0.37,1.2,52,0.5,0,4,4,51,1,,,,,,,,,,,,,,,,,,,,,,,,,,,,,,,,,,,,,,,,
,,,,,WIN24_062,20,Female,2024-02-15_13h01.39.094,jersey_experiment_5,2023.2.2,Win32,84.74576271,,,,,,,,,,,,,,,,411.5676,412.8615,412.8615,415.4381,return,0.8677,,89.0625,,,,,,FBP-PT-91.png,0.43,1.2,59,0.5,0,5,5,58,1,,,,,,,,,,,,,,,,,,,,,,,,,,,,,,,,,,,,,,,,
,,,,,WIN24_062,20,Female,2024-02-15_13h01.39.094,jersey_experiment_5,2023.2.2,Win32,84.74576271,,,,,,,,,,,,,,,,415.4384,416.7323,416.7323,419.3207,return,0.8936,,99.34895833,,,,,,FBP-OG-17.png,0.45,1.2,5,0.5,0,6,6,4,1,,,,,,,,,,,,,,,,,,,,,,,,,,,,,,,,,,,,,,,,
,,,,,WIN24_062,20,Female,2024-02-15_13h01.39.094,jersey_experiment_5,2023.2.2,Win32,84.74576271,,,,,,,,,,,,,,,,419.3209,421.1206,421.1207,423.368,return,1.1528,,78.515625,,,,,,FBP-RB-81.png,0.43,1.2,24,1,0,7,7,23,1,,,,,,,,,,,,,,,,,,,,,,,,,,,,,,,,,,,,,,,,
,,,,,WIN24_062,20,Female,2024-02-15_13h01.39.094,jersey_experiment_5,2023.2.2,Win32,84.74576271,,,,,,,,,,,,,,,,423.3682,425.168,425.168,430.8858,return,3.7425,,54.296875,,,,,,FBP-RB-91.png,0.4,1.2,28,1,0,8,8,27,1,,,,,,,,,,,,,,,,,,,,,,,,,,,,,,,,,,,,,,,,
,,,,,WIN24_062,20,Female,2024-02-15_13h01.39.094,jersey_experiment_5,2023.2.2,Win32,84.74576271,,,,,,,,,,,,,,,,430.8861,432.1799,432.1799,434.2153,return,0.6969,,92.31770833,,,,,,FBP-PT-91.png,0.45,1.2,60,0.5,0,9,9,59,1,,,,,,,,,,,,,,,,,,,,,,,,,,,,,,,,,,,,,,,,
,,,,,WIN24_062,20,Female,2024-02-15_13h01.39.094,jersey_experiment_5,2023.2.2,Win32,84.74576271,,,,,,,,,,,,,,,,434.2155,435.5094,435.5094,437.6977,return,0.8966,,20.703125,,,,,,FBP-PT-91.png,0.35,1.2,56,0.5,0,10,10,55,1,,,,,,,,,,,,,,,,,,,,,,,,,,,,,,,,,,,,,,,,
,,,,,WIN24_062,20,Female,2024-02-15_13h01.39.094,jersey_experiment_5,2023.2.2,Win32,84.74576271,,,,,,,,,,,,,,,,437.698,438.992,438.992,440.6274,return,0.7332,,34.24479167,,,,,,FBP-OG-18.png,0.37,1.2,7,0.5,0,11,11,6,1,,,,,,,,,,,,,,,,,,,,,,,,,,,,,,,,,,,,,,,,
,,,,,WIN24_062,20,Female,2024-02-15_13h01.39.094,jersey_experiment_5,2023.2.2,Win32,84.74576271,,,,,,,,,,,,,,,,440.6276,441.9214,441.9215,444.1804,return,0.7556,,99.08854167,,,,,,FBP-OG-18.png,0.45,1.2,10,0.5,0,12,12,9,1,,,,,,,,,,,,,,,,,,,,,,,,,,,,,,,,,,,,,,,,
,,,,,WIN24_062,20,Female,2024-02-15_13h01.39.094,jersey_experiment_5,2023.2.2,Win32,84.74576271,,,,,,,,,,,,,,,,444.1806,445.4745,445.4745,447.7334,return,0.7072,,22.78645833,,,,,,FBP-PT-81.png,0.35,1.2,51,0.5,0,13,13,50,1,,,,,,,,,,,,,,,,,,,,,,,,,,,,,,,,,,,,,,,,
,,,,,WIN24_062,20,Female,2024-02-15_13h01.39.094,jersey_experiment_5,2023.2.2,Win32,84.74576271,,,,,,,,,,,,,,,,447.7337,449.5337,449.5337,450.9454,return,0.6147,,29.6875,,,,,,FBP-RB-91.png,0.37,1.2,27,1,0,14,14,26,1,,,,,,,,,,,,,,,,,,,,,,,,,,,,,,,,,,,,,,,,
,,,,,WIN24_062,20,Female,2024-02-15_13h01.39.094,jersey_experiment_5,2023.2.2,Win32,84.74576271,,,,,,,,,,,,,,,,450.9456,452.7454,452.7454,456.2868,return,0.6317,,61.58854167,,,,,,FBP-RB-71.png,0.43,1.2,19,1,0,15,15,18,1,,,,,,,,,,,,,,,,,,,,,,,,,,,,,,,,,,,,,,,,
,,,,,WIN24_062,20,Female,2024-02-15_13h01.39.094,jersey_experiment_5,2023.2.2,Win32,84.74576271,,,,,,,,,,,,,,,,456.2871,458.0867,458.0867,460.2751,return,1.0484,,52.21354167,,,,,,FBP-RB-81.png,0.4,1.2,23,1,0,16,16,22,1,,,,,,,,,,,,,,,,,,,,,,,,,,,,,,,,,,,,,,,,
,,,,,WIN24_062,20,Female,2024-02-15_13h01.39.094,jersey_experiment_5,2023.2.2,Win32,84.74576271,,,,,,,,,,,,,,,,460.2753,461.5693,461.5694,463.1576,return,0.7057,,41.27604167,,,,,,FBP-OG-19.png,0.37,1.2,12,0.5,0,17,17,11,1,,,,,,,,,,,,,,,,,,,,,,,,,,,,,,,,,,,,,,,,
,,,,,WIN24_062,20,Female,2024-02-15_13h01.39.094,jersey_experiment_5,2023.2.2,Win32,84.74576271,,,,,,,,,,,,,,,,463.1578,464.9576,464.9576,467.346,return,0.779,,67.31770833,,,,,,FBP-RB-71.png,0.4,1.2,18,1,0,18,18,17,1,,,,,,,,,,,,,,,,,,,,,,,,,,,,,,,,,,,,,,,,
,,,,,WIN24_062,20,Female,2024-02-15_13h01.39.094,jersey_experiment_5,2023.2.2,Win32,84.74576271,,,,,,,,,,,,,,,,467.3462,468.6401,468.6402,472.1578,return,0.7384,,30.33854167,,,,,,FBP-OG-17.png,0.35,1.2,1,0.5,0,19,19,0,1,,,,,,,,,,,,,,,,,,,,,,,,,,,,,,,,,,,,,,,,
,,,,,WIN24_062,20,Female,2024-02-15_13h01.39.094,jersey_experiment_5,2023.2.2,Win32,84.74576271,,,,,,,,,,,,,,,,472.158,473.452,473.452,476.8993,return,1.5447,,44.66145833,,,,,,FBP-PT-91.png,0.37,1.2,57,0.5,0,20,20,56,1,,,,,,,,,,,,,,,,,,,,,,,,,,,,,,,,,,,,,,,,
,,,,,WIN24_062,20,Female,2024-02-15_13h01.39.094,jersey_experiment_5,2023.2.2,Win32,84.74576271,,,,,,,,,,,,,,,,476.8995,478.1935,478.1935,480.3112,return,0.7204,,78.38541667,,,,,,FBP-PT-81.png,0.43,1.2,54,0.5,0,21,21,53,1,,,,,,,,,,,,,,,,,,,,,,,,,,,,,,,,,,,,,,,,
,,,,,WIN24_062,20,Female,2024-02-15_13h01.39.094,jersey_experiment_5,2023.2.2,Win32,84.74576271,,,,,,,,,,,,,,,,480.3114,482.1114,482.1114,483.8759,return,0.6384,,28.38541667,,,,,,FBP-RB-71.png,0.35,1.2,16,1,0,22,22,15,1,,,,,,,,,,,,,,,,,,,,,,,,,,,,,,,,,,,,,,,,
,,,,,WIN24_062,20,Female,2024-02-15_13h01.39.094,jersey_experiment_5,2023.2.2,Win32,84.74576271,,,,,,,,,,,,,,,,483.8761,485.6761,485.6761,487.6879,return,0.9888,,46.09375,,,,,,FBP-YG-19.png,0.37,1.2,42,1,0,23,23,41,1,,,,,,,,,,,,,,,,,,,,,,,,,,,,,,,,,,,,,,,,
,,,,,WIN24_062,20,Female,2024-02-15_13h01.39.094,jersey_experiment_5,2023.2.2,Win32,84.74576271,,,,,,,,,,,,,,,,487.6881,488.9821,488.9821,491.1233,return,0.9071,,71.875,,,,,,FBP-OG-19.png,0.4,1.2,13,0.5,0,24,24,12,1,,,,,,,,,,,,,,,,,,,,,,,,,,,,,,,,,,,,,,,,
,,,,,WIN24_062,20,Female,2024-02-15_13h01.39.094,jersey_experiment_5,2023.2.2,Win32,84.74576271,,,,,,,,,,,,,,,,491.1236,492.4175,492.4175,497.4765,return,1.0236,,67.96875,,,,,,FBP-OG-17.png,0.37,1.2,2,0.5,0,25,25,1,1,,,,,,,,,,,,,,,,,,,,,,,,,,,,,,,,,,,,,,,,
,,,,,WIN24_062,20,Female,2024-02-15_13h01.39.094,jersey_experiment_5,2023.2.2,Win32,84.74576271,,,,,,,,,,,,,,,,497.4767,498.7707,498.7708,502.3826,return,2.0674,,81.25,,,,,,FBP-OG-18.png,0.4,1.2,8,0.5,0,26,26,7,1,,,,,,,,,,,,,,,,,,,,,,,,,,,,,,,,,,,,,,,,
,,,,,WIN24_062,20,Female,2024-02-15_13h01.39.094,jersey_experiment_5,2023.2.2,Win32,84.74576271,,,,,,,,,,,,,,,,502.3829,503.6768,503.6768,506.8887,return,1.4684,,97.00520833,,,,,,FBP-OG-18.png,0.43,1.2,9,0.5,0,27,27,8,1,,,,,,,,,,,,,,,,,,,,,,,,,,,,,,,,,,,,,,,,
,,,,,WIN24_062,20,Female,2024-02-15_13h01.39.094,jersey_experiment_5,2023.2.2,Win32,84.74576271,,,,,,,,,,,,,,,,506.8889,508.6888,508.6889,510.5004,return,0.8239,,90.234375,,,,,,FBP-YG-17.png,0.43,1.2,34,1,0,28,28,33,1,,,,,,,,,,,,,,,,,,,,,,,,,,,,,,,,,,,,,,,,
,,,,,WIN24_062,20,Female,2024-02-15_13h01.39.094,jersey_experiment_5,2023.2.2,Win32,84.74576271,,,,,,,,,,,,,,,,510.5006,512.3004,512.3004,518.6068,return,4.3379,,35.28645833,,,,,,FBP-RB-71.png,0.37,1.2,17,1,0,29,29,16,1,,,,,,,,,,,,,,,,,,,,,,,,,,,,,,,,,,,,,,,,
,,,,,WIN24_062,20,Female,2024-02-15_13h01.39.094,jersey_experiment_5,2023.2.2,Win32,84.74576271,,,,,,,,,,,,,,,,518.607,520.4067,520.4067,523.1716,return,0.8033,,25.91145833,,,,,,FBP-YG-17.png,0.35,1.2,31,1,0,30,30,30,1,,,,,,,,,,,,,,,,,,,,,,,,,,,,,,,,,,,,,,,,
,,,,,WIN24_062,20,Female,2024-02-15_13h01.39.094,jersey_experiment_5,2023.2.2,Win32,84.74576271,,,,,,,,,,,,,,,,523.1719,524.9717,524.9718,527.5718,return,1.0485,,85.67708333,,,,,,FBP-YG-18.png,0.45,1.2,40,1,0,31,31,39,1,,,,,,,,,,,,,,,,,,,,,,,,,,,,,,,,,,,,,,,,
,,,,,WIN24_062,20,Female,2024-02-15_13h01.39.094,jersey_experiment_5,2023.2.2,Win32,84.74576271,,,,,,,,,,,,,,,,527.572,528.8659,528.8659,532.7249,return,1.2819,,30.20833333,,,,,,FBP-OG-19.png,0.35,1.2,11,0.5,0,32,32,10,1,,,,,,,,,,,,,,,,,,,,,,,,,,,,,,,,,,,,,,,,
,,,,,WIN24_062,20,Female,2024-02-15_13h01.39.094,jersey_experiment_5,2023.2.2,Win32,84.74576271,,,,,,,,,,,,,,,,532.7252,534.525,534.525,540.7017,return,0.6536,,51.30208333,,,,,,FBP-RB-81.png,0.35,1.2,21,1,0,33,33,20,1,,,,,,,,,,,,,,,,,,,,,,,,,,,,,,,,,,,,,,,,
,,,,,WIN24_062,20,Female,2024-02-15_13h01.39.094,jersey_experiment_5,2023.2.2,Win32,84.74576271,,,,,,,,,,,,,,,,540.702,542.5018,542.5018,544.5605,return,0.745,,76.82291667,,,,,,FBP-RB-91.png,0.45,1.2,30,1,0,34,34,29,1,,,,,,,,,,,,,,,,,,,,,,,,,,,,,,,,,,,,,,,,
,,,,,WIN24_062,20,Female,2024-02-15_13h01.39.094,jersey_experiment_5,2023.2.2,Win32,84.74576271,,,,,,,,,,,,,,,,544.5608,545.8548,545.8548,547.9608,return,0.8236,,91.92708333,,,,,,FBP-PT-81.png,0.45,1.2,55,0.5,0,35,35,54,1,,,,,,,,,,,,,,,,,,,,,,,,,,,,,,,,,,,,,,,,
,,,,,WIN24_062,20,Female,2024-02-15_13h01.39.094,jersey_experiment_5,2023.2.2,Win32,84.74576271,,,,,,,,,,,,,,,,547.961,549.7608,549.7608,551.7021,return,0.7205,,79.55729167,,,,,,FBP-RB-91.png,0.43,1.2,29,1,0,36,36,28,1,,,,,,,,,,,,,,,,,,,,,,,,,,,,,,,,,,,,,,,,
,,,,,WIN24_062,20,Female,2024-02-15_13h01.39.094,jersey_experiment_5,2023.2.2,Win32,84.74576271,,,,,,,,,,,,,,,,551.7023,553.5022,553.5022,555.0434,return,0.7305,,92.31770833,,,,,,FBP-RB-71.png,0.45,1.2,20,1,0,37,37,19,1,,,,,,,,,,,,,,,,,,,,,,,,,,,,,,,,,,,,,,,,
,,,,,WIN24_062,20,Female,2024-02-15_13h01.39.094,jersey_experiment_5,2023.2.2,Win32,84.74576271,,,,,,,,,,,,,,,,555.0437,556.8436,556.8437,558.3377,return,0.6289,,92.83854167,,,,,,FBP-YG-17.png,0.45,1.2,35,1,0,38,38,34,1,,,,,,,,,,,,,,,,,,,,,,,,,,,,,,,,,,,,,,,,
,,,,,WIN24_062,20,Female,2024-02-15_13h01.39.094,jersey_experiment_5,2023.2.2,Win32,84.74576271,,,,,,,,,,,,,,,,558.3379,560.1377,560.1378,563.3496,return,1.6239,,30.20833333,,,,,,FBP-YG-17.png,0.37,1.2,32,1,0,39,39,31,1,,,,,,,,,,,,,,,,,,,,,,,,,,,,,,,,,,,,,,,,
,,,,,WIN24_062,20,Female,2024-02-15_13h01.39.094,jersey_experiment_5,2023.2.2,Win32,84.74576271,,,,,,,,,,,,,,,,563.3499,564.6438,564.6439,568.4557,return,0.8141,,72.265625,,,,,,FBP-OG-17.png,0.4,1.2,3,0.5,0,40,40,2,1,,,,,,,,,,,,,,,,,,,,,,,,,,,,,,,,,,,,,,,,
,,,,,WIN24_062,20,Female,2024-02-15_13h01.39.094,jersey_experiment_5,2023.2.2,Win32,84.74576271,,,,,,,,,,,,,,,,568.4559,569.7497,569.7497,572.15,return,0.6268,,27.99479167,,,,,,FBP-PT-71.png,0.35,1.2,46,0.5,0,41,41,45,1,,,,,,,,,,,,,,,,,,,,,,,,,,,,,,,,,,,,,,,,
,,,,,WIN24_062,20,Female,2024-02-15_13h01.39.094,jersey_experiment_5,2023.2.2,Win32,84.74576271,,,,,,,,,,,,,,,,572.1502,573.4441,573.4441,576.5618,return,0.5934,,32.68229167,,,,,,FBP-OG-18.png,0.35,1.2,6,0.5,0,42,42,5,1,,,,,,,,,,,,,,,,,,,,,,,,,,,,,,,,,,,,,,,,
,,,,,WIN24_062,20,Female,2024-02-15_13h01.39.094,jersey_experiment_5,2023.2.2,Win32,84.74576271,,,,,,,,,,,,,,,,576.5621,578.362,578.362,583.1502,return,0.6531,,44.27083333,,,,,,FBP-YG-18.png,0.37,1.2,37,1,0,43,43,36,1,,,,,,,,,,,,,,,,,,,,,,,,,,,,,,,,,,,,,,,,
,,,,,WIN24_062,20,Female,2024-02-15_13h01.39.094,jersey_experiment_5,2023.2.2,Win32,84.74576271,,,,,,,,,,,,,,,,583.1505,584.4444,584.4444,586.2327,return,0.7153,,93.48958333,,,,,,FBP-OG-19.png,0.45,1.2,15,0.5,0,44,44,14,1,,,,,,,,,,,,,,,,,,,,,,,,,,,,,,,,,,,,,,,,
,,,,,WIN24_062,20,Female,2024-02-15_13h01.39.094,jersey_experiment_5,2023.2.2,Win32,84.74576271,,,,,,,,,,,,,,,,586.233,587.527,587.527,588.9271,return,0.5702,,97.65625,,,,,,FBP-PT-71.png,0.45,1.2,50,0.5,0,45,45,49,1,,,,,,,,,,,,,,,,,,,,,,,,,,,,,,,,,,,,,,,,
,,,,,WIN24_062,20,Female,2024-02-15_13h01.39.094,jersey_experiment_5,2023.2.2,Win32,84.74576271,,,,,,,,,,,,,,,,588.9273,590.2211,590.2212,592.1978,return,0.612,,79.16666667,,,,,,FBP-OG-19.png,0.43,1.2,14,0.5,0,46,46,13,1,,,,,,,,,,,,,,,,,,,,,,,,,,,,,,,,,,,,,,,,
,,,,,WIN24_062,20,Female,2024-02-15_13h01.39.094,jersey_experiment_5,2023.2.2,Win32,84.74576271,,,,,,,,,,,,,,,,592.198,593.9977,593.9978,595.5977,return,0.6532,,76.953125,,,,,,FBP-YG-18.png,0.43,1.2,39,1,0,47,47,38,1,,,,,,,,,,,,,,,,,,,,,,,,,,,,,,,,,,,,,,,,
,,,,,WIN24_062,20,Female,2024-02-15_13h01.39.094,jersey_experiment_5,2023.2.2,Win32,84.74576271,,,,,,,,,,,,,,,,595.598,596.892,596.892,598.7274,return,0.6685,,79.6875,,,,,,FBP-OG-17.png,0.43,1.2,4,0.5,0,48,48,3,1,,,,,,,,,,,,,,,,,,,,,,,,,,,,,,,,,,,,,,,,
,,,,,WIN24_062,20,Female,2024-02-15_13h01.39.094,jersey_experiment_5,2023.2.2,Win32,84.74576271,,,,,,,,,,,,,,,,598.7277,600.0215,600.0215,601.8333,return,0.7764,,64.0625,,,,,,FBP-PT-91.png,0.4,1.2,58,0.5,0,49,49,57,1,,,,,,,,,,,,,,,,,,,,,,,,,,,,,,,,,,,,,,,,
,,,,,WIN24_062,20,Female,2024-02-15_13h01.39.094,jersey_experiment_5,2023.2.2,Win32,84.74576271,,,,,,,,,,,,,,,,601.8336,603.6334,603.6334,605.6806,return,0.6301,,26.171875,,,,,,FBP-YG-19.png,0.35,1.2,41,1,0,50,50,40,1,,,,,,,,,,,,,,,,,,,,,,,,,,,,,,,,,,,,,,,,
,,,,,WIN24_062,20,Female,2024-02-15_13h01.39.094,jersey_experiment_5,2023.2.2,Win32,84.74576271,,,,,,,,,,,,,,,,605.6808,607.4806,607.4806,609.269,return,0.6844,,53.25520833,,,,,,FBP-YG-19.png,0.4,1.2,43,1,0,51,51,42,1,,,,,,,,,,,,,,,,,,,,,,,,,,,,,,,,,,,,,,,,
,,,,,WIN24_062,20,Female,2024-02-15_13h01.39.094,jersey_experiment_5,2023.2.2,Win32,84.74576271,,,,,,,,,,,,,,,,609.2692,610.5631,610.5631,611.9513,return,0.5725,,46.09375,,,,,,FBP-PT-71.png,0.4,1.2,48,0.5,0,52,52,47,1,,,,,,,,,,,,,,,,,,,,,,,,,,,,,,,,,,,,,,,,
,,,,,WIN24_062,20,Female,2024-02-15_13h01.39.094,jersey_experiment_5,2023.2.2,Win32,84.74576271,,,,,,,,,,,,,,,,611.9516,613.7515,613.7516,615.3633,return,0.6955,,37.23958333,,,,,,FBP-RB-81.png,0.37,1.2,22,1,0,53,53,21,1,,,,,,,,,,,,,,,,,,,,,,,,,,,,,,,,,,,,,,,,
,,,,,WIN24_062,20,Female,2024-02-15_13h01.39.094,jersey_experiment_5,2023.2.2,Win32,84.74576271,,,,,,,,,,,,,,,,615.3635,617.1634,617.1635,619.281,return,0.7,,69.140625,,,,,,FBP-YG-18.png,0.4,1.2,38,1,0,54,54,37,1,,,,,,,,,,,,,,,,,,,,,,,,,,,,,,,,,,,,,,,,
,,,,,WIN24_062,20,Female,2024-02-15_13h01.39.094,jersey_experiment_5,2023.2.2,Win32,84.74576271,,,,,,,,,,,,,,,,619.2812,621.0811,621.0812,623.14,return,0.7067,,40.49479167,,,,,,FBP-RB-91.png,0.35,1.2,26,1,0,55,55,25,1,,,,,,,,,,,,,,,,,,,,,,,,,,,,,,,,,,,,,,,,
,,,,,WIN24_062,20,Female,2024-02-15_13h01.39.094,jersey_experiment_5,2023.2.2,Win32,84.74576271,,,,,,,,,,,,,,,,623.1402,624.94,624.94,627.4695,return,0.7125,,65.49479167,,,,,,FBP-YG-17.png,0.4,1.2,33,1,0,56,56,32,1,,,,,,,,,,,,,,,,,,,,,,,,,,,,,,,,,,,,,,,,
,,,,,WIN24_062,20,Female,2024-02-15_13h01.39.094,jersey_experiment_5,2023.2.2,Win32,84.74576271,,,,,,,,,,,,,,,,627.4697,628.7637,628.7637,630.2579,return,0.5816,,80.859375,,,,,,FBP-PT-71.png,0.43,1.2,49,0.5,0,57,57,48,1,,,,,,,,,,,,,,,,,,,,,,,,,,,,,,,,,,,,,,,,
,,,,,WIN24_062,20,Female,2024-02-15_13h01.39.094,jersey_experiment_5,2023.2.2,Win32,84.74576271,,,,,,,,,,,,,,,,630.258,632.058,632.0581,634.3993,return,0.5697,,24.47916667,,,,,,FBP-YG-18.png,0.35,1.2,36,1,0,58,58,35,1,,,,,,,,,,,,,,,,,,,,,,,,,,,,,,,,,,,,,,,,
,,,,,WIN24_062,20,Female,2024-02-15_13h01.39.094,jersey_experiment_5,2023.2.2,Win32,84.74576271,,,,,,,,,,,,,,,,634.3994,636.1992,636.1992,638.1523,return,0.6119,,70.44270833,,,,,,FBP-YG-19.png,0.43,1.2,44,1,0,59,59,43,1,,,,,,,,,,,,,,,,,,,,,,,,,,,,,,,,,,,,,,,,
,,,,,WIN24_062,20,Female,2024-02-15_13h01.39.094,jersey_experiment_5,2023.2.2,Win32,84.74576271,,,,,,,,,,,,,,,,,,,,,,,,,,,,,,,,,,,,,,,638.1525,758.1572,,,,,,,,,,,,,,,,,,,,,,,,,,,,,,,,,,,,,,
,,,,,WIN24_062,20,Female,2024-02-15_13h01.39.094,jersey_experiment_5,2023.2.2,Win32,84.74576271,,,,,,,,,,,,,,,,,,,,,,,,,,,,,,,,,,,,,,,,,758.1573,767.5575,return,9.3886,,,,,,,,,,,,,,,,,,,,,,,,,,,,,,,,,,
,,,,,WIN24_062,20,Female,2024-02-15_13h01.39.094,jersey_experiment_5,2023.2.2,Win32,84.74576271,,,,,,,,,,,,,,,,767.5637,768.8631,768.8631,772.0515,return,0.7333,,72.00520833,,,,,,FBP-YG-81.png,0.43,1.2,39,0.5,,,,,,,,,,,,,0,0,0,38,1,,,,,,,,,,,,,,,,,,,,,,,,,,,,
,,,,,WIN24_062,20,Female,2024-02-15_13h01.39.094,jersey_experiment_5,2023.2.2,Win32,84.74576271,,,,,,,,,,,,,,,,772.0518,773.3456,773.3456,775.6516,return,0.6007,,27.47395833,,,,,,FBP-RB-17.png,0.35,1.2,16,0.5,,,,,,,,,,,,,0,1,1,15,1,,,,,,,,,,,,,,,,,,,,,,,,,,,,
,,,,,WIN24_062,20,Female,2024-02-15_13h01.39.094,jersey_experiment_5,2023.2.2,Win32,84.74576271,,,,,,,,,,,,,,,,775.6519,776.9458,776.9458,779.887,return,0.5725,,72.39583333,,,,,,FBP-YG-81.png,0.4,1.2,38,0.5,,,,,,,,,,,,,0,2,2,37,1,,,,,,,,,,,,,,,,,,,,,,,,,,,,
,,,,,WIN24_062,20,Female,2024-02-15_13h01.39.094,jersey_experiment_5,2023.2.2,Win32,84.74576271,,,,,,,,,,,,,,,,779.8872,781.6874,781.6874,783.1931,return,0.5411,,92.44791667,,,,,,FBP-OG-91.png,0.43,1.2,14,1,,,,,,,,,,,,,0,3,3,13,1,,,,,,,,,,,,,,,,,,,,,,,,,,,,
,,,,,WIN24_062,20,Female,2024-02-15_13h01.39.094,jersey_experiment_5,2023.2.2,Win32,84.74576271,,,,,,,,,,,,,,,,783.1935,784.9931,784.9931,788.5345,return,0.4948,,58.33333333,,,,,,FBP-OG-71.png,0.4,1.2,3,1,,,,,,,,,,,,,0,4,4,2,1,,,,,,,,,,,,,,,,,,,,,,,,,,,,
,,,,,WIN24_062,20,Female,2024-02-15_13h01.39.094,jersey_experiment_5,2023.2.2,Win32,84.74576271,,,,,,,,,,,,,,,,788.5347,789.8287,789.8287,791.6992,return,0.5216,,30.859375,,,,,,FBP-YG-91.png,0.35,1.2,41,0.5,,,,,,,,,,,,,0,5,5,40,1,,,,,,,,,,,,,,,,,,,,,,,,,,,,
,,,,,WIN24_062,20,Female,2024-02-15_13h01.39.094,jersey_experiment_5,2023.2.2,Win32,84.74576271,,,,,,,,,,,,,,,,791.6994,792.9934,792.9934,794.9582,return,0.5851,,52.47395833,,,,,,FBP-YG-91.png,0.37,1.2,42,0.5,,,,,,,,,,,,,0,6,6,41,1,,,,,,,,,,,,,,,,,,,,,,,,,,,,
,,,,,WIN24_062,20,Female,2024-02-15_13h01.39.094,jersey_experiment_5,2023.2.2,Win32,84.74576271,,,,,,,,,,,,,,,,794.9584,796.7582,796.7582,800.4408,return,2.4237,,55.98958333,,,,,,FBP-PT-19.png,0.4,1.2,58,1,,,,,,,,,,,,,0,7,7,57,1,,,,,,,,,,,,,,,,,,,,,,,,,,,,
,,,,,WIN24_062,20,Female,2024-02-15_13h01.39.094,jersey_experiment_5,2023.2.2,Win32,84.74576271,,,,,,,,,,,,,,,,800.4409,802.2409,802.2409,804.0997,return,0.6712,,50,,,,,,FBP-OG-91.png,0.37,1.2,12,1,,,,,,,,,,,,,0,8,8,11,1,,,,,,,,,,,,,,,,,,,,,,,,,,,,
,,,,,WIN24_062,20,Female,2024-02-15_13h01.39.094,jersey_experiment_5,2023.2.2,Win32,84.74576271,,,,,,,,,,,,,,,,804.1,805.3938,805.3939,807.4881,return,0.5714,,85.9375,,,,,,FBP-YG-91.png,0.43,1.2,44,0.5,,,,,,,,,,,,,0,9,9,43,1,,,,,,,,,,,,,,,,,,,,,,,,,,,,
,,,,,WIN24_062,20,Female,2024-02-15_13h01.39.094,jersey_experiment_5,2023.2.2,Win32,84.74576271,,,,,,,,,,,,,,,,807.4883,809.2884,809.2885,810.6412,return,0.6503,,99.73958333,,,,,,FBP-OG-81.png,0.45,1.2,10,1,,,,,,,,,,,,,0,10,10,9,1,,,,,,,,,,,,,,,,,,,,,,,,,,,,
,,,,,WIN24_062,20,Female,2024-02-15_13h01.39.094,jersey_experiment_5,2023.2.2,Win32,84.74576271,,,,,,,,,,,,,,,,810.6415,812.4414,812.4414,815.0413,return,0.7207,,47.00520833,,,,,,FBP-PT-17.png,0.37,1.2,47,1,,,,,,,,,,,,,0,11,11,46,1,,,,,,,,,,,,,,,,,,,,,,,,,,,,
,,,,,WIN24_062,20,Female,2024-02-15_13h01.39.094,jersey_experiment_5,2023.2.2,Win32,84.74576271,,,,,,,,,,,,,,,,815.0415,816.8416,816.8417,818.512,return,0.6641,,37.23958333,,,,,,FBP-PT-17.png,0.35,1.2,46,1,,,,,,,,,,,,,0,12,12,45,1,,,,,,,,,,,,,,,,,,,,,,,,,,,,
,,,,,WIN24_062,20,Female,2024-02-15_13h01.39.094,jersey_experiment_5,2023.2.2,Win32,84.74576271,,,,,,,,,,,,,,,,818.5123,820.3121,820.3121,822.324,return,0.5797,,86.19791667,,,,,,FBP-OG-81.png,0.43,1.2,9,1,,,,,,,,,,,,,0,13,13,8,1,,,,,,,,,,,,,,,,,,,,,,,,,,,,
,,,,,WIN24_062,20,Female,2024-02-15_13h01.39.094,jersey_experiment_5,2023.2.2,Win32,84.74576271,,,,,,,,,,,,,,,,822.3243,823.6182,823.6182,825.3829,return,0.7063,,96.74479167,,,,,,FBP-YG-91.png,0.45,1.2,45,0.5,,,,,,,,,,,,,0,14,14,44,1,,,,,,,,,,,,,,,,,,,,,,,,,,,,
,,,,,WIN24_062,20,Female,2024-02-15_13h01.39.094,jersey_experiment_5,2023.2.2,Win32,84.74576271,,,,,,,,,,,,,,,,825.3831,827.1829,827.1829,828.9831,return,0.6591,,24.609375,,,,,,FBP-PT-18.png,0.35,1.2,51,1,,,,,,,,,,,,,0,15,15,50,1,,,,,,,,,,,,,,,,,,,,,,,,,,,,
,,,,,WIN24_062,20,Female,2024-02-15_13h01.39.094,jersey_experiment_5,2023.2.2,Win32,84.74576271,,,,,,,,,,,,,,,,828.9834,830.7833,830.7833,831.9125,return,0.5884,,11.45833333,,,,,,FBP-PT-19.png,0.35,1.2,56,1,,,,,,,,,,,,,0,16,16,55,1,,,,,,,,,,,,,,,,,,,,,,,,,,,,
,,,,,WIN24_062,20,Female,2024-02-15_13h01.39.094,jersey_experiment_5,2023.2.2,Win32,84.74576271,,,,,,,,,,,,,,,,831.9127,833.2069,833.2069,835.3128,return,0.593,,23.30729167,,,,,,FBP-RB-18.png,0.37,1.2,22,0.5,,,,,,,,,,,,,0,17,17,21,1,,,,,,,,,,,,,,,,,,,,,,,,,,,,
,,,,,WIN24_062,20,Female,2024-02-15_13h01.39.094,jersey_experiment_5,2023.2.2,Win32,84.74576271,,,,,,,,,,,,,,,,835.3129,836.6069,836.607,838.4539,return,0.6126,,92.1875,,,,,,FBP-RB-18.png,0.45,1.2,25,0.5,,,,,,,,,,,,,0,18,18,24,1,,,,,,,,,,,,,,,,,,,,,,,,,,,,
,,,,,WIN24_062,20,Female,2024-02-15_13h01.39.094,jersey_experiment_5,2023.2.2,Win32,84.74576271,,,,,,,,,,,,,,,,838.4542,840.2539,840.254,841.8071,return,0.5936,,49.73958333,,,,,,FBP-PT-18.png,0.37,1.2,52,1,,,,,,,,,,,,,0,19,19,51,1,,,,,,,,,,,,,,,,,,,,,,,,,,,,
,,,,,WIN24_062,20,Female,2024-02-15_13h01.39.094,jersey_experiment_5,2023.2.2,Win32,84.74576271,,,,,,,,,,,,,,,,841.8073,843.1012,843.1013,845.2779,return,0.5599,,47.00520833,,,,,,FBP-YG-71.png,0.37,1.2,32,0.5,,,,,,,,,,,,,0,20,20,31,1,,,,,,,,,,,,,,,,,,,,,,,,,,,,
,,,,,WIN24_062,20,Female,2024-02-15_13h01.39.094,jersey_experiment_5,2023.2.2,Win32,84.74576271,,,,,,,,,,,,,,,,845.278,847.0777,847.0777,848.6073,return,0.5937,,84.375,,,,,,FBP-PT-19.png,0.43,1.2,59,1,,,,,,,,,,,,,0,21,21,58,1,,,,,,,,,,,,,,,,,,,,,,,,,,,,
,,,,,WIN24_062,20,Female,2024-02-15_13h01.39.094,jersey_experiment_5,2023.2.2,Win32,84.74576271,,,,,,,,,,,,,,,,848.6076,849.9015,849.9015,852.9369,return,0.8706,,30.20833333,,,,,,FBP-YG-81.png,0.35,1.2,36,0.5,,,,,,,,,,,,,0,22,22,35,1,,,,,,,,,,,,,,,,,,,,,,,,,,,,
,,,,,WIN24_062,20,Female,2024-02-15_13h01.39.094,jersey_experiment_5,2023.2.2,Win32,84.74576271,,,,,,,,,,,,,,,,852.9371,854.737,854.737,857.1723,return,0.706,,99.73958333,,,,,,FBP-OG-71.png,0.45,1.2,5,1,,,,,,,,,,,,,0,23,23,4,1,,,,,,,,,,,,,,,,,,,,,,,,,,,,
,,,,,WIN24_062,20,Female,2024-02-15_13h01.39.094,jersey_experiment_5,2023.2.2,Win32,84.74576271,,,,,,,,,,,,,,,,857.1725,858.9724,858.9724,862.102,return,1.376,,95.96354167,,,,,,FBP-OG-71.png,0.43,1.2,4,1,,,,,,,,,,,,,0,24,24,3,1,,,,,,,,,,,,,,,,,,,,,,,,,,,,
,,,,,WIN24_062,20,Female,2024-02-15_13h01.39.094,jersey_experiment_5,2023.2.2,Win32,84.74576271,,,,,,,,,,,,,,,,862.1022,863.9019,863.9019,866.6786,return,0.7535,,71.09375,,,,,,FBP-OG-81.png,0.37,1.2,7,1,,,,,,,,,,,,,0,25,25,6,1,,,,,,,,,,,,,,,,,,,,,,,,,,,,
,,,,,WIN24_062,20,Female,2024-02-15_13h01.39.094,jersey_experiment_5,2023.2.2,Win32,84.74576271,,,,,,,,,,,,,,,,866.6788,867.9726,867.9727,870.9139,return,1.4052,,73.95833333,,,,,,FBP-RB-17.png,0.4,1.2,18,0.5,,,,,,,,,,,,,0,26,26,17,1,,,,,,,,,,,,,,,,,,,,,,,,,,,,
,,,,,WIN24_062,20,Female,2024-02-15_13h01.39.094,jersey_experiment_5,2023.2.2,Win32,84.74576271,,,,,,,,,,,,,,,,870.9142,872.714,872.714,875.526,return,0.6117,,48.56770833,,,,,,FBP-OG-71.png,0.35,1.2,1,1,,,,,,,,,,,,,0,27,27,0,1,,,,,,,,,,,,,,,,,,,,,,,,,,,,
,,,,,WIN24_062,20,Female,2024-02-15_13h01.39.094,jersey_experiment_5,2023.2.2,Win32,84.74576271,,,,,,,,,,,,,,,,875.5263,876.8201,876.8202,878.9967,return,0.6232,,53.125,,,,,,FBP-YG-81.png,0.37,1.2,37,0.5,,,,,,,,,,,,,0,28,28,36,1,,,,,,,,,,,,,,,,,,,,,,,,,,,,
,,,,,WIN24_062,20,Female,2024-02-15_13h01.39.094,jersey_experiment_5,2023.2.2,Win32,84.74576271,,,,,,,,,,,,,,,,878.9969,880.7969,880.797,882.385,return,0.6177,,96.74479167,,,,,,FBP-PT-19.png,0.45,1.2,60,1,,,,,,,,,,,,,0,29,29,59,1,,,,,,,,,,,,,,,,,,,,,,,,,,,,
,,,,,WIN24_062,20,Female,2024-02-15_13h01.39.094,jersey_experiment_5,2023.2.2,Win32,84.74576271,,,,,,,,,,,,,,,,882.3853,883.6792,883.6793,886.0792,return,0.8177,,41.66666667,,,,,,FBP-YG-71.png,0.35,1.2,31,0.5,,,,,,,,,,,,,0,30,30,30,1,,,,,,,,,,,,,,,,,,,,,,,,,,,,
,,,,,WIN24_062,20,Female,2024-02-15_13h01.39.094,jersey_experiment_5,2023.2.2,Win32,84.74576271,,,,,,,,,,,,,,,,886.0795,887.3735,887.3735,890.2559,return,1.1579,,58.203125,,,,,,FBP-RB-18.png,0.4,1.2,23,0.5,,,,,,,,,,,,,0,31,31,22,1,,,,,,,,,,,,,,,,,,,,,,,,,,,,
,,,,,WIN24_062,20,Female,2024-02-15_13h01.39.094,jersey_experiment_5,2023.2.2,Win32,84.74576271,,,,,,,,,,,,,,,,890.2562,891.5501,891.5501,894.3501,return,1.6443,,30.859375,,,,,,FBP-RB-19.png,0.35,1.2,26,0.5,,,,,,,,,,,,,0,32,32,25,1,,,,,,,,,,,,,,,,,,,,,,,,,,,,
,,,,,WIN24_062,20,Female,2024-02-15_13h01.39.094,jersey_experiment_5,2023.2.2,Win32,84.74576271,,,,,,,,,,,,,,,,894.3503,896.1501,896.1502,897.8444,return,0.5768,,66.015625,,,,,,FBP-PT-19.png,0.37,1.2,57,1,,,,,,,,,,,,,0,33,33,56,1,,,,,,,,,,,,,,,,,,,,,,,,,,,,
,,,,,WIN24_062,20,Female,2024-02-15_13h01.39.094,jersey_experiment_5,2023.2.2,Win32,84.74576271,,,,,,,,,,,,,,,,897.8447,899.6445,899.6445,900.9739,return,0.5835,,76.69270833,,,,,,FBP-OG-81.png,0.4,1.2,8,1,,,,,,,,,,,,,0,34,34,7,1,,,,,,,,,,,,,,,,,,,,,,,,,,,,
,,,,,WIN24_062,20,Female,2024-02-15_13h01.39.094,jersey_experiment_5,2023.2.2,Win32,84.74576271,,,,,,,,,,,,,,,,900.9742,902.2682,902.2682,903.5859,return,0.5465,,88.41145833,,,,,,FBP-YG-91.png,0.4,1.2,43,0.5,,,,,,,,,,,,,0,35,35,42,1,,,,,,,,,,,,,,,,,,,,,,,,,,,,
,,,,,WIN24_062,20,Female,2024-02-15_13h01.39.094,jersey_experiment_5,2023.2.2,Win32,84.74576271,,,,,,,,,,,,,,,,903.5861,904.8799,904.88,906.4799,return,0.5805,,79.94791667,,,,,,FBP-YG-71.png,0.4,1.2,33,0.5,,,,,,,,,,,,,0,36,36,32,1,,,,,,,,,,,,,,,,,,,,,,,,,,,,
,,,,,WIN24_062,20,Female,2024-02-15_13h01.39.094,jersey_experiment_5,2023.2.2,Win32,84.74576271,,,,,,,,,,,,,,,,906.4802,908.2802,908.2802,910.0802,return,0.5719,,93.22916667,,,,,,FBP-PT-17.png,0.43,1.2,49,1,,,,,,,,,,,,,0,37,37,48,1,,,,,,,,,,,,,,,,,,,,,,,,,,,,
,,,,,WIN24_062,20,Female,2024-02-15_13h01.39.094,jersey_experiment_5,2023.2.2,Win32,84.74576271,,,,,,,,,,,,,,,,910.0804,911.3742,911.3743,915.3274,return,0.5721,,53.38541667,,,,,,FBP-RB-19.png,0.37,1.2,27,0.5,,,,,,,,,,,,,0,38,38,26,1,,,,,,,,,,,,,,,,,,,,,,,,,,,,
,,,,,WIN24_062,20,Female,2024-02-15_13h01.39.094,jersey_experiment_5,2023.2.2,Win32,84.74576271,,,,,,,,,,,,,,,,915.3277,916.6216,916.6216,919.198,return,1.6443,,92.05729167,,,,,,FBP-RB-17.png,0.45,1.2,20,0.5,,,,,,,,,,,,,0,39,39,19,1,,,,,,,,,,,,,,,,,,,,,,,,,,,,
,,,,,WIN24_062,20,Female,2024-02-15_13h01.39.094,jersey_experiment_5,2023.2.2,Win32,84.74576271,,,,,,,,,,,,,,,,919.1983,920.9982,920.9983,928.6219,return,2.9504,,52.34375,,,,,,FBP-OG-91.png,0.35,1.2,11,1,,,,,,,,,,,,,0,40,40,10,1,,,,,,,,,,,,,,,,,,,,,,,,,,,,
,,,,,WIN24_062,20,Female,2024-02-15_13h01.39.094,jersey_experiment_5,2023.2.2,Win32,84.74576271,,,,,,,,,,,,,,,,928.6221,930.4222,930.4222,932.022,return,0.6128,,94.79166667,,,,,,FBP-OG-91.png,0.45,1.2,15,1,,,,,,,,,,,,,0,41,41,14,1,,,,,,,,,,,,,,,,,,,,,,,,,,,,
,,,,,WIN24_062,20,Female,2024-02-15_13h01.39.094,jersey_experiment_5,2023.2.2,Win32,84.74576271,,,,,,,,,,,,,,,,932.0223,933.3163,933.3164,935.0222,return,0.5265,,89.19270833,,,,,,FBP-YG-71.png,0.43,1.2,34,0.5,,,,,,,,,,,,,0,42,42,33,1,,,,,,,,,,,,,,,,,,,,,,,,,,,,
,,,,,WIN24_062,20,Female,2024-02-15_13h01.39.094,jersey_experiment_5,2023.2.2,Win32,84.74576271,,,,,,,,,,,,,,,,935.0224,936.8224,936.8224,938.0224,return,0.5792,,91.40625,,,,,,FBP-PT-17.png,0.45,1.2,50,1,,,,,,,,,,,,,0,43,43,49,1,,,,,,,,,,,,,,,,,,,,,,,,,,,,
,,,,,WIN24_062,20,Female,2024-02-15_13h01.39.094,jersey_experiment_5,2023.2.2,Win32,84.74576271,,,,,,,,,,,,,,,,938.0226,939.3166,939.3166,941.3754,return,0.5488,,93.88020833,,,,,,FBP-RB-17.png,0.43,1.2,19,0.5,,,,,,,,,,,,,0,44,44,18,1,,,,,,,,,,,,,,,,,,,,,,,,,,,,
,,,,,WIN24_062,20,Female,2024-02-15_13h01.39.094,jersey_experiment_5,2023.2.2,Win32,84.74576271,,,,,,,,,,,,,,,,941.3757,942.6695,942.6695,948.0346,return,3.826,,96.22395833,,,,,,FBP-RB-19.png,0.45,1.2,30,0.5,,,,,,,,,,,,,0,45,45,29,1,,,,,,,,,,,,,,,,,,,,,,,,,,,,
,,,,,WIN24_062,20,Female,2024-02-15_13h01.39.094,jersey_experiment_5,2023.2.2,Win32,84.74576271,,,,,,,,,,,,,,,,948.0348,949.3286,949.3286,951.4464,return,0.6356,,80.078125,,,,,,FBP-RB-18.png,0.43,1.2,24,0.5,,,,,,,,,,,,,0,46,46,23,1,,,,,,,,,,,,,,,,,,,,,,,,,,,,
,,,,,WIN24_062,20,Female,2024-02-15_13h01.39.094,jersey_experiment_5,2023.2.2,Win32,84.74576271,,,,,,,,,,,,,,,,951.4467,953.2466,953.2466,954.9994,return,0.7859,,77.99479167,,,,,,FBP-OG-91.png,0.4,1.2,13,1,,,,,,,,,,,,,0,47,47,12,1,,,,,,,,,,,,,,,,,,,,,,,,,,,,
,,,,,WIN24_062,20,Female,2024-02-15_13h01.39.094,jersey_experiment_5,2023.2.2,Win32,84.74576271,,,,,,,,,,,,,,,,954.9996,956.7998,956.7998,959.3291,return,1.4029,,52.60416667,,,,,,FBP-PT-18.png,0.4,1.2,53,1,,,,,,,,,,,,,0,48,48,52,1,,,,,,,,,,,,,,,,,,,,,,,,,,,,
,,,,,WIN24_062,20,Female,2024-02-15_13h01.39.094,jersey_experiment_5,2023.2.2,Win32,84.74576271,,,,,,,,,,,,,,,,959.3294,960.6232,960.6232,962.4822,return,0.5931,,44.79166667,,,,,,FBP-RB-17.png,0.37,1.2,17,0.5,,,,,,,,,,,,,0,49,49,16,1,,,,,,,,,,,,,,,,,,,,,,,,,,,,
,,,,,WIN24_062,20,Female,2024-02-15_13h01.39.094,jersey_experiment_5,2023.2.2,Win32,84.74576271,,,,,,,,,,,,,,,,962.4824,964.2824,964.2824,967.1882,return,1.9322,,38.80208333,,,,,,FBP-OG-81.png,0.35,1.2,6,1,,,,,,,,,,,,,0,50,50,5,1,,,,,,,,,,,,,,,,,,,,,,,,,,,,
,,,,,WIN24_062,20,Female,2024-02-15_13h01.39.094,jersey_experiment_5,2023.2.2,Win32,84.74576271,,,,,,,,,,,,,,,,967.1884,968.4823,968.4823,970.259,return,0.6373,,90.234375,,,,,,FBP-YG-71.png,0.45,1.2,35,0.5,,,,,,,,,,,,,0,51,51,34,1,,,,,,,,,,,,,,,,,,,,,,,,,,,,
,,,,,WIN24_062,20,Female,2024-02-15_13h01.39.094,jersey_experiment_5,2023.2.2,Win32,84.74576271,,,,,,,,,,,,,,,,970.2592,972.0589,972.0589,974.6943,return,0.8008,,56.11979167,,,,,,FBP-OG-71.png,0.37,1.2,2,1,,,,,,,,,,,,,0,52,52,1,1,,,,,,,,,,,,,,,,,,,,,,,,,,,,
,,,,,WIN24_062,20,Female,2024-02-15_13h01.39.094,jersey_experiment_5,2023.2.2,Win32,84.74576271,,,,,,,,,,,,,,,,974.6946,975.9884,975.9884,977.6827,return,0.5928,,95.05208333,,,,,,FBP-YG-81.png,0.45,1.2,40,0.5,,,,,,,,,,,,,0,53,53,39,1,,,,,,,,,,,,,,,,,,,,,,,,,,,,
,,,,,WIN24_062,20,Female,2024-02-15_13h01.39.094,jersey_experiment_5,2023.2.2,Win32,84.74576271,,,,,,,,,,,,,,,,977.6828,978.9768,978.9768,981.2005,return,0.536,,60.67708333,,,,,,FBP-RB-19.png,0.4,1.2,28,0.5,,,,,,,,,,,,,0,54,54,27,1,,,,,,,,,,,,,,,,,,,,,,,,,,,,
,,,,,WIN24_062,20,Female,2024-02-15_13h01.39.094,jersey_experiment_5,2023.2.2,Win32,84.74576271,,,,,,,,,,,,,,,,981.2007,983.0007,983.0007,984.3418,return,0.6366,,89.58333333,,,,,,FBP-PT-18.png,0.45,1.2,55,1,,,,,,,,,,,,,0,55,55,54,1,,,,,,,,,,,,,,,,,,,,,,,,,,,,
,,,,,WIN24_062,20,Female,2024-02-15_13h01.39.094,jersey_experiment_5,2023.2.2,Win32,84.74576271,,,,,,,,,,,,,,,,984.3419,986.1419,986.1419,989.2008,return,0.8653,,82.55208333,,,,,,FBP-PT-18.png,0.43,1.2,54,1,,,,,,,,,,,,,0,56,56,53,1,,,,,,,,,,,,,,,,,,,,,,,,,,,,
,,,,,WIN24_062,20,Female,2024-02-15_13h01.39.094,jersey_experiment_5,2023.2.2,Win32,84.74576271,,,,,,,,,,,,,,,,989.2011,991.001,991.0011,993.0008,return,0.6211,,56.51041667,,,,,,FBP-PT-17.png,0.4,1.2,48,1,,,,,,,,,,,,,0,57,57,47,1,,,,,,,,,,,,,,,,,,,,,,,,,,,,
,,,,,WIN24_062,20,Female,2024-02-15_13h01.39.094,jersey_experiment_5,2023.2.2,Win32,84.74576271,,,,,,,,,,,,,,,,993.001,994.2951,994.2951,996.0833,return,0.6004,,32.421875,,,,,,FBP-RB-18.png,0.35,1.2,21,0.5,,,,,,,,,,,,,0,58,58,20,1,,,,,,,,,,,,,,,,,,,,,,,,,,,,
,,,,,WIN24_062,20,Female,2024-02-15_13h01.39.094,jersey_experiment_5,2023.2.2,Win32,84.74576271,,,,,,,,,,,,,,,,996.0835,997.3775,997.3775,1002.9777,return,3.2758,,77.47395833,,,,,,FBP-RB-19.png,0.43,1.2,29,0.5,,,,,,,,,,,,,0,59,59,28,1,,,,,,,,,,,,,,,,,,,,,,,,,,,,
,,,,,WIN24_062,20,Female,2024-02-15_13h01.39.094,jersey_experiment_5,2023.2.2,Win32,84.74576271,,,,,,,,,,,,,,,,1002.9795,1004.7778,1004.7778,1007.3426,return,0.6321,,60.67708333,,,,,,FBP-PT-71.png,0.4,1.2,48,1,,,,,,,,,,,,,,,,,,0,0,0,47,1,,,,,,,,,,,,,,,,,,,,,,,
,,,,,WIN24_062,20,Female,2024-02-15_13h01.39.094,jersey_experiment_5,2023.2.2,Win32,84.74576271,,,,,,,,,,,,,,,,1007.3429,1009.1426,1009.1426,1013.2487,return,2.7479,,46.74479167,,,,,,FBP-OG-19.png,0.35,1.2,11,1,,,,,,,,,,,,,,,,,,0,1,1,10,1,,,,,,,,,,,,,,,,,,,,,,,
,,,,,WIN24_062,20,Female,2024-02-15_13h01.39.094,jersey_experiment_5,2023.2.2,Win32,84.74576271,,,,,,,,,,,,,,,,1013.2489,1015.0487,1015.0487,1016.9899,return,0.4774,,38.15104167,,,,,,FBP-PT-91.png,0.35,1.2,56,1,,,,,,,,,,,,,,,,,,0,2,2,55,1,,,,,,,,,,,,,,,,,,,,,,,
,,,,,WIN24_062,20,Female,2024-02-15_13h01.39.094,jersey_experiment_5,2023.2.2,Win32,84.74576271,,,,,,,,,,,,,,,,1016.9901,1018.2841,1018.2842,1020.2608,return,0.5649,,23.17708333,,,,,,FBP-YG-19.png,0.35,1.2,41,0.5,,,,,,,,,,,,,,,,,,0,3,3,40,1,,,,,,,,,,,,,,,,,,,,,,,
,,,,,WIN24_062,20,Female,2024-02-15_13h01.39.094,jersey_experiment_5,2023.2.2,Win32,84.74576271,,,,,,,,,,,,,,,,1020.2609,1022.0607,1022.0607,1024.5315,return,0.7333,,70.05208333,,,,,,FBP-OG-17.png,0.37,1.2,2,1,,,,,,,,,,,,,,,,,,0,4,4,1,1,,,,,,,,,,,,,,,,,,,,,,,
,,,,,WIN24_062,20,Female,2024-02-15_13h01.39.094,jersey_experiment_5,2023.2.2,Win32,84.74576271,,,,,,,,,,,,,,,,1024.5315,1026.3317,1026.3317,1028.0023,return,0.6519,,85.28645833,,,,,,FBP-OG-17.png,0.4,1.2,3,1,,,,,,,,,,,,,,,,,,0,5,5,2,1,,,,,,,,,,,,,,,,,,,,,,,
,,,,,WIN24_062,20,Female,2024-02-15_13h01.39.094,jersey_experiment_5,2023.2.2,Win32,84.74576271,,,,,,,,,,,,,,,,1028.0025,1029.2964,1029.2964,1031.0965,return,0.9036,,94.921875,,,,,,FBP-YG-18.png,0.43,1.2,39,0.5,,,,,,,,,,,,,,,,,,0,6,6,38,1,,,,,,,,,,,,,,,,,,,,,,,
,,,,,WIN24_062,20,Female,2024-02-15_13h01.39.094,jersey_experiment_5,2023.2.2,Win32,84.74576271,,,,,,,,,,,,,,,,1031.0966,1032.8966,1032.8966,1035.3438,return,0.7345,,50.13020833,,,,,,FBP-PT-91.png,0.37,1.2,57,1,,,,,,,,,,,,,,,,,,0,7,7,56,1,,,,,,,,,,,,,,,,,,,,,,,
,,,,,WIN24_062,20,Female,2024-02-15_13h01.39.094,jersey_experiment_5,2023.2.2,Win32,84.74576271,,,,,,,,,,,,,,,,1035.3439,1036.6379,1036.6379,1038.3203,return,0.6751,,60.67708333,,,,,,FBP-RB-71.png,0.4,1.2,18,0.5,,,,,,,,,,,,,,,,,,0,8,8,17,1,,,,,,,,,,,,,,,,,,,,,,,
,,,,,WIN24_062,20,Female,2024-02-15_13h01.39.094,jersey_experiment_5,2023.2.2,Win32,84.74576271,,,,,,,,,,,,,,,,1038.3205,1040.1206,1040.1206,1041.838,return,0.5949,,92.44791667,,,,,,FBP-PT-71.png,0.43,1.2,49,1,,,,,,,,,,,,,,,,,,0,9,9,48,1,,,,,,,,,,,,,,,,,,,,,,,
,,,,,WIN24_062,20,Female,2024-02-15_13h01.39.094,jersey_experiment_5,2023.2.2,Win32,84.74576271,,,,,,,,,,,,,,,,1041.8382,1043.1322,1043.1322,1045.7206,return,1.6944,,97.39583333,,,,,,FBP-RB-91.png,0.45,1.2,30,0.5,,,,,,,,,,,,,,,,,,0,10,10,29,1,,,,,,,,,,,,,,,,,,,,,,,
,,,,,WIN24_062,20,Female,2024-02-15_13h01.39.094,jersey_experiment_5,2023.2.2,Win32,84.74576271,,,,,,,,,,,,,,,,1045.7209,1047.0148,1047.0148,1048.9324,return,0.7649,,90.49479167,,,,,,FBP-RB-81.png,0.43,1.2,24,0.5,,,,,,,,,,,,,,,,,,0,11,11,23,1,,,,,,,,,,,,,,,,,,,,,,,
,,,,,WIN24_062,20,Female,2024-02-15_13h01.39.094,jersey_experiment_5,2023.2.2,Win32,84.74576271,,,,,,,,,,,,,,,,1048.9327,1050.2266,1050.2266,1054.0032,return,1.2246,,67.1875,,,,,,FBP-YG-19.png,0.4,1.2,43,0.5,,,,,,,,,,,,,,,,,,0,12,12,42,1,,,,,,,,,,,,,,,,,,,,,,,
,,,,,WIN24_062,20,Female,2024-02-15_13h01.39.094,jersey_experiment_5,2023.2.2,Win32,84.74576271,,,,,,,,,,,,,,,,1054.0035,1055.2974,1055.2974,1057.0974,return,0.7157,,94.921875,,,,,,FBP-YG-17.png,0.45,1.2,35,0.5,,,,,,,,,,,,,,,,,,0,13,13,34,1,,,,,,,,,,,,,,,,,,,,,,,
,,,,,WIN24_062,20,Female,2024-02-15_13h01.39.094,jersey_experiment_5,2023.2.2,Win32,84.74576271,,,,,,,,,,,,,,,,1057.0976,1058.8975,1058.8975,1063.7919,return,2.937,,70.703125,,,,,,FBP-OG-19.png,0.4,1.2,13,1,,,,,,,,,,,,,,,,,,0,14,14,12,1,,,,,,,,,,,,,,,,,,,,,,,
,,,,,WIN24_062,20,Female,2024-02-15_13h01.39.094,jersey_experiment_5,2023.2.2,Win32,84.74576271,,,,,,,,,,,,,,,,1063.7921,1065.5918,1065.5919,1068.5332,return,0.6374,,28.25520833,,,,,,FBP-PT-81.png,0.35,1.2,51,1,,,,,,,,,,,,,,,,,,0,15,15,50,1,,,,,,,,,,,,,,,,,,,,,,,
,,,,,WIN24_062,20,Female,2024-02-15_13h01.39.094,jersey_experiment_5,2023.2.2,Win32,84.74576271,,,,,,,,,,,,,,,,1068.5334,1069.8272,1069.8272,1072.5451,return,0.6764,,25.65104167,,,,,,FBP-YG-17.png,0.35,1.2,31,0.5,,,,,,,,,,,,,,,,,,0,16,16,30,1,,,,,,,,,,,,,,,,,,,,,,,
,,,,,WIN24_062,20,Female,2024-02-15_13h01.39.094,jersey_experiment_5,2023.2.2,Win32,84.74576271,,,,,,,,,,,,,,,,1072.5453,1073.8393,1073.8393,1076.2392,return,0.6405,,99.08854167,,,,,,FBP-YG-19.png,0.43,1.2,44,0.5,,,,,,,,,,,,,,,,,,0,17,17,43,1,,,,,,,,,,,,,,,,,,,,,,,
,,,,,WIN24_062,20,Female,2024-02-15_13h01.39.094,jersey_experiment_5,2023.2.2,Win32,84.74576271,,,,,,,,,,,,,,,,1076.2395,1077.5334,1077.5335,1080.0865,return,0.5558,,59.89583333,,,,,,FBP-RB-81.png,0.37,1.2,22,0.5,,,,,,,,,,,,,,,,,,0,18,18,21,1,,,,,,,,,,,,,,,,,,,,,,,
,,,,,WIN24_062,20,Female,2024-02-15_13h01.39.094,jersey_experiment_5,2023.2.2,Win32,84.74576271,,,,,,,,,,,,,,,,1080.0867,1081.3807,1081.3807,1084.0513,return,0.592,,35.9375,,,,,,FBP-YG-18.png,0.35,1.2,36,0.5,,,,,,,,,,,,,,,,,,0,19,19,35,1,,,,,,,,,,,,,,,,,,,,,,,
,,,,,WIN24_062,20,Female,2024-02-15_13h01.39.094,jersey_experiment_5,2023.2.2,Win32,84.74576271,,,,,,,,,,,,,,,,1084.0516,1085.3455,1085.3455,1086.9809,return,0.5085,,71.484375,,,,,,FBP-RB-91.png,0.4,1.2,28,0.5,,,,,,,,,,,,,,,,,,0,20,20,27,1,,,,,,,,,,,,,,,,,,,,,,,
,,,,,WIN24_062,20,Female,2024-02-15_13h01.39.094,jersey_experiment_5,2023.2.2,Win32,84.74576271,,,,,,,,,,,,,,,,1086.9811,1088.2751,1088.2751,1089.7692,return,0.5742,,97.00520833,,,,,,FBP-YG-19.png,0.45,1.2,45,0.5,,,,,,,,,,,,,,,,,,0,21,21,44,1,,,,,,,,,,,,,,,,,,,,,,,
,,,,,WIN24_062,20,Female,2024-02-15_13h01.39.094,jersey_experiment_5,2023.2.2,Win32,84.74576271,,,,,,,,,,,,,,,,1089.7695,1091.5694,1091.5694,1094.9695,return,0.5414,,41.66666667,,,,,,FBP-OG-18.png,0.35,1.2,6,1,,,,,,,,,,,,,,,,,,0,22,22,5,1,,,,,,,,,,,,,,,,,,,,,,,
,,,,,WIN24_062,20,Female,2024-02-15_13h01.39.094,jersey_experiment_5,2023.2.2,Win32,84.74576271,,,,,,,,,,,,,,,,1094.9697,1096.7695,1096.7695,1098.8519,return,0.6153,,52.34375,,,,,,FBP-OG-18.png,0.37,1.2,7,1,,,,,,,,,,,,,,,,,,0,23,23,6,1,,,,,,,,,,,,,,,,,,,,,,,
,,,,,WIN24_062,20,Female,2024-02-15_13h01.39.094,jersey_experiment_5,2023.2.2,Win32,84.74576271,,,,,,,,,,,,,,,,1098.8522,1100.6521,1100.6521,1102.4639,return,0.7011,,72.65625,,,,,,FBP-PT-81.png,0.4,1.2,53,1,,,,,,,,,,,,,,,,,,0,24,24,52,1,,,,,,,,,,,,,,,,,,,,,,,
,,,,,WIN24_062,20,Female,2024-02-15_13h01.39.094,jersey_experiment_5,2023.2.2,Win32,84.74576271,,,,,,,,,,,,,,,,1102.4641,1103.758,1103.758,1105.3463,return,0.6257,,77.86458333,,,,,,FBP-RB-81.png,0.4,1.2,23,0.5,,,,,,,,,,,,,,,,,,0,25,25,22,1,,,,,,,,,,,,,,,,,,,,,,,
,,,,,WIN24_062,20,Female,2024-02-15_13h01.39.094,jersey_experiment_5,2023.2.2,Win32,84.74576271,,,,,,,,,,,,,,,,1105.3465,1106.6404,1106.6404,1109.6523,return,0.6147,,40.36458333,,,,,,FBP-RB-91.png,0.35,1.2,26,0.5,,,,,,,,,,,,,,,,,,0,26,26,25,1,,,,,,,,,,,,,,,,,,,,,,,
,,,,,WIN24_062,20,Female,2024-02-15_13h01.39.094,jersey_experiment_5,2023.2.2,Win32,84.74576271,,,,,,,,,,,,,,,,1109.6525,1110.9465,1110.9465,1112.5936,return,0.6029,,43.359375,,,,,,FBP-RB-91.png,0.37,1.2,27,0.5,,,,,,,,,,,,,,,,,,0,27,27,26,1,,,,,,,,,,,,,,,,,,,,,,,
,,,,,WIN24_062,20,Female,2024-02-15_13h01.39.094,jersey_experiment_5,2023.2.2,Win32,84.74576271,,,,,,,,,,,,,,,,1112.5937,1113.8877,1113.8877,1115.5819,return,0.5501,,97.13541667,,,,,,FBP-YG-17.png,0.43,1.2,34,0.5,,,,,,,,,,,,,,,,,,0,28,28,33,1,,,,,,,,,,,,,,,,,,,,,,,
,,,,,WIN24_062,20,Female,2024-02-15_13h01.39.094,jersey_experiment_5,2023.2.2,Win32,84.74576271,,,,,,,,,,,,,,,,1115.5821,1117.382,1117.382,1118.5938,return,0.4993,,94.921875,,,,,,FBP-OG-17.png,0.43,1.2,4,1,,,,,,,,,,,,,,,,,,0,29,29,3,1,,,,,,,,,,,,,,,,,,,,,,,
,,,,,WIN24_062,20,Female,2024-02-15_13h01.39.094,jersey_experiment_5,2023.2.2,Win32,84.74576271,,,,,,,,,,,,,,,,1118.5941,1119.888,1119.888,1121.5821,return,0.597,,97.52604167,,,,,,FBP-RB-71.png,0.45,1.2,20,0.5,,,,,,,,,,,,,,,,,,0,30,30,19,1,,,,,,,,,,,,,,,,,,,,,,,
,,,,,WIN24_062,20,Female,2024-02-15_13h01.39.094,jersey_experiment_5,2023.2.2,Win32,84.74576271,,,,,,,,,,,,,,,,1121.5822,1123.3823,1123.3824,1125.4412,return,0.58,,68.75,,,,,,FBP-PT-91.png,0.4,1.2,58,1,,,,,,,,,,,,,,,,,,0,31,31,57,1,,,,,,,,,,,,,,,,,,,,,,,
,,,,,WIN24_062,20,Female,2024-02-15_13h01.39.094,jersey_experiment_5,2023.2.2,Win32,84.74576271,,,,,,,,,,,,,,,,1125.4414,1127.2414,1127.2414,1128.7707,return,0.6044,,95.44270833,,,,,,FBP-OG-19.png,0.45,1.2,15,1,,,,,,,,,,,,,,,,,,0,32,32,14,1,,,,,,,,,,,,,,,,,,,,,,,
,,,,,WIN24_062,20,Female,2024-02-15_13h01.39.094,jersey_experiment_5,2023.2.2,Win32,84.74576271,,,,,,,,,,,,,,,,1128.771,1130.0649,1130.0649,1132.3826,return,0.6203,,22.78645833,,,,,,FBP-RB-81.png,0.35,1.2,21,0.5,,,,,,,,,,,,,,,,,,0,33,33,20,1,,,,,,,,,,,,,,,,,,,,,,,
,,,,,WIN24_062,20,Female,2024-02-15_13h01.39.094,jersey_experiment_5,2023.2.2,Win32,84.74576271,,,,,,,,,,,,,,,,1132.3828,1134.1827,1134.1827,1136.3357,return,0.6426,,72.78645833,,,,,,FBP-OG-18.png,0.4,1.2,8,1,,,,,,,,,,,,,,,,,,0,34,34,7,1,,,,,,,,,,,,,,,,,,,,,,,
,,,,,WIN24_062,20,Female,2024-02-15_13h01.39.094,jersey_experiment_5,2023.2.2,Win32,84.74576271,,,,,,,,,,,,,,,,1136.336,1138.1358,1138.1358,1139.7946,return,0.6021,,92.1875,,,,,,FBP-OG-18.png,0.43,1.2,9,1,,,,,,,,,,,,,,,,,,0,35,35,8,1,,,,,,,,,,,,,,,,,,,,,,,
,,,,,WIN24_062,20,Female,2024-02-15_13h01.39.094,jersey_experiment_5,2023.2.2,Win32,84.74576271,,,,,,,,,,,,,,,,1139.7949,1141.0888,1141.0888,1145.9596,return,1.412,,54.42708333,,,,,,FBP-YG-17.png,0.37,1.2,32,0.5,,,,,,,,,,,,,,,,,,0,36,36,31,1,,,,,,,,,,,,,,,,,,,,,,,
,,,,,WIN24_062,20,Female,2024-02-15_13h01.39.094,jersey_experiment_5,2023.2.2,Win32,84.74576271,,,,,,,,,,,,,,,,1145.9599,1147.2537,1147.2537,1149.6538,return,0.5661,,60.67708333,,,,,,FBP-YG-18.png,0.4,1.2,38,0.5,,,,,,,,,,,,,,,,,,0,37,37,37,1,,,,,,,,,,,,,,,,,,,,,,,
,,,,,WIN24_062,20,Female,2024-02-15_13h01.39.094,jersey_experiment_5,2023.2.2,Win32,84.74576271,,,,,,,,,,,,,,,,1149.654,1151.454,1151.454,1152.8539,return,0.5895,,79.94791667,,,,,,FBP-PT-91.png,0.43,1.2,59,1,,,,,,,,,,,,,,,,,,0,38,38,58,1,,,,,,,,,,,,,,,,,,,,,,,
,,,,,WIN24_062,20,Female,2024-02-15_13h01.39.094,jersey_experiment_5,2023.2.2,Win32,84.74576271,,,,,,,,,,,,,,,,1152.8542,1154.6541,1154.6541,1155.9717,return,0.5421,,80.72916667,,,,,,FBP-OG-19.png,0.43,1.2,14,1,,,,,,,,,,,,,,,,,,0,39,39,13,1,,,,,,,,,,,,,,,,,,,,,,,
,,,,,WIN24_062,20,Female,2024-02-15_13h01.39.094,jersey_experiment_5,2023.2.2,Win32,84.74576271,,,,,,,,,,,,,,,,1155.972,1157.7717,1157.7718,1159.6071,return,0.5881,,83.72395833,,,,,,FBP-OG-18.png,0.45,1.2,10,1,,,,,,,,,,,,,,,,,,0,40,40,9,1,,,,,,,,,,,,,,,,,,,,,,,
,,,,,WIN24_062,20,Female,2024-02-15_13h01.39.094,jersey_experiment_5,2023.2.2,Win32,84.74576271,,,,,,,,,,,,,,,,1159.6074,1161.4073,1161.4073,1163.1721,return,0.6266,,83.85416667,,,,,,FBP-PT-81.png,0.43,1.2,54,1,,,,,,,,,,,,,,,,,,0,41,41,53,1,,,,,,,,,,,,,,,,,,,,,,,
,,,,,WIN24_062,20,Female,2024-02-15_13h01.39.094,jersey_experiment_5,2023.2.2,Win32,84.74576271,,,,,,,,,,,,,,,,1163.1723,1164.4662,1164.4662,1167.7486,return,0.5531,,27.08333333,,,,,,FBP-RB-71.png,0.35,1.2,16,0.5,,,,,,,,,,,,,,,,,,0,42,42,15,1,,,,,,,,,,,,,,,,,,,,,,,
,,,,,WIN24_062,20,Female,2024-02-15_13h01.39.094,jersey_experiment_5,2023.2.2,Win32,84.74576271,,,,,,,,,,,,,,,,1167.7489,1169.5488,1169.5488,1171.9841,return,1.2304,,83.203125,,,,,,FBP-PT-71.png,0.45,1.2,50,1,,,,,,,,,,,,,,,,,,0,43,43,49,1,,,,,,,,,,,,,,,,,,,,,,,
,,,,,WIN24_062,20,Female,2024-02-15_13h01.39.094,jersey_experiment_5,2023.2.2,Win32,84.74576271,,,,,,,,,,,,,,,,1171.9843,1173.2783,1173.2783,1176.6902,return,2.1084,,37.63020833,,,,,,FBP-YG-18.png,0.37,1.2,37,0.5,,,,,,,,,,,,,,,,,,0,44,44,36,1,,,,,,,,,,,,,,,,,,,,,,,
,,,,,WIN24_062,20,Female,2024-02-15_13h01.39.094,jersey_experiment_5,2023.2.2,Win32,84.74576271,,,,,,,,,,,,,,,,1176.6903,1178.4902,1178.4902,1180.808,return,0.4799,,49.609375,,,,,,FBP-OG-19.png,0.37,1.2,12,1,,,,,,,,,,,,,,,,,,0,45,45,11,1,,,,,,,,,,,,,,,,,,,,,,,
,,,,,WIN24_062,20,Female,2024-02-15_13h01.39.094,jersey_experiment_5,2023.2.2,Win32,84.74576271,,,,,,,,,,,,,,,,1180.8082,1182.1022,1182.1022,1183.5257,return,0.5553,,94.140625,,,,,,FBP-RB-81.png,0.45,1.2,25,0.5,,,,,,,,,,,,,,,,,,0,46,46,24,1,,,,,,,,,,,,,,,,,,,,,,,
,,,,,WIN24_062,20,Female,2024-02-15_13h01.39.094,jersey_experiment_5,2023.2.2,Win32,84.74576271,,,,,,,,,,,,,,,,1183.526,1185.3258,1185.3258,1188.1964,return,1.7062,,95.05208333,,,,,,FBP-OG-17.png,0.45,1.2,5,1,,,,,,,,,,,,,,,,,,0,47,47,4,1,,,,,,,,,,,,,,,,,,,,,,,
,,,,,WIN24_062,20,Female,2024-02-15_13h01.39.094,jersey_experiment_5,2023.2.2,Win32,84.74576271,,,,,,,,,,,,,,,,1188.1967,1189.9966,1189.9966,1191.62,return,0.6029,,88.93229167,,,,,,FBP-PT-81.png,0.45,1.2,55,1,,,,,,,,,,,,,,,,,,0,48,48,54,1,,,,,,,,,,,,,,,,,,,,,,,
,,,,,WIN24_062,20,Female,2024-02-15_13h01.39.094,jersey_experiment_5,2023.2.2,Win32,84.74576271,,,,,,,,,,,,,,,,1191.6203,1192.9144,1192.9144,1194.9025,return,0.7298,,51.30208333,,,,,,FBP-YG-19.png,0.37,1.2,42,0.5,,,,,,,,,,,,,,,,,,0,49,49,41,1,,,,,,,,,,,,,,,,,,,,,,,
,,,,,WIN24_062,20,Female,2024-02-15_13h01.39.094,jersey_experiment_5,2023.2.2,Win32,84.74576271,,,,,,,,,,,,,,,,1194.9027,1196.1966,1196.1966,1198.2086,return,0.7245,,93.88020833,,,,,,FBP-YG-18.png,0.45,1.2,40,0.5,,,,,,,,,,,,,,,,,,0,50,50,39,1,,,,,,,,,,,,,,,,,,,,,,,
,,,,,WIN24_062,20,Female,2024-02-15_13h01.39.094,jersey_experiment_5,2023.2.2,Win32,84.74576271,,,,,,,,,,,,,,,,1198.2089,1200.0086,1200.0087,1202.9852,return,0.5653,,58.85416667,,,,,,FBP-PT-81.png,0.37,1.2,52,1,,,,,,,,,,,,,,,,,,0,51,51,51,1,,,,,,,,,,,,,,,,,,,,,,,
,,,,,WIN24_062,20,Female,2024-02-15_13h01.39.094,jersey_experiment_5,2023.2.2,Win32,84.74576271,,,,,,,,,,,,,,,,1202.9854,1204.7853,1204.7853,1206.3267,return,0.7059,,86.71875,,,,,,FBP-PT-91.png,0.45,1.2,60,1,,,,,,,,,,,,,,,,,,0,52,52,59,1,,,,,,,,,,,,,,,,,,,,,,,
,,,,,WIN24_062,20,Female,2024-02-15_13h01.39.094,jersey_experiment_5,2023.2.2,Win32,84.74576271,,,,,,,,,,,,,,,,1206.3269,1208.1266,1208.1266,1210.6562,return,0.6402,,32.29166667,,,,,,FBP-OG-17.png,0.35,1.2,1,1,,,,,,,,,,,,,,,,,,0,53,53,0,1,,,,,,,,,,,,,,,,,,,,,,,
,,,,,WIN24_062,20,Female,2024-02-15_13h01.39.094,jersey_experiment_5,2023.2.2,Win32,84.74576271,,,,,,,,,,,,,,,,1210.6564,1212.4562,1212.4562,1214.6328,return,0.7206,,54.6875,,,,,,FBP-PT-71.png,0.37,1.2,47,1,,,,,,,,,,,,,,,,,,0,54,54,46,1,,,,,,,,,,,,,,,,,,,,,,,
,,,,,WIN24_062,20,Female,2024-02-15_13h01.39.094,jersey_experiment_5,2023.2.2,Win32,84.74576271,,,,,,,,,,,,,,,,1214.633,1215.9269,1215.9269,1217.5035,return,0.6405,,77.734375,,,,,,FBP-RB-71.png,0.43,1.2,19,0.5,,,,,,,,,,,,,,,,,,0,55,55,18,1,,,,,,,,,,,,,,,,,,,,,,,
,,,,,WIN24_062,20,Female,2024-02-15_13h01.39.094,jersey_experiment_5,2023.2.2,Win32,84.74576271,,,,,,,,,,,,,,,,1217.5037,1218.7976,1218.7977,1221.8329,return,0.6495,,66.53645833,,,,,,FBP-YG-17.png,0.4,1.2,33,0.5,,,,,,,,,,,,,,,,,,0,56,56,32,1,,,,,,,,,,,,,,,,,,,,,,,
,,,,,WIN24_062,20,Female,2024-02-15_13h01.39.094,jersey_experiment_5,2023.2.2,Win32,84.74576271,,,,,,,,,,,,,,,,1221.8332,1223.1271,1223.1271,1225.0803,return,0.5655,,57.55208333,,,,,,FBP-RB-71.png,0.37,1.2,17,0.5,,,,,,,,,,,,,,,,,,0,57,57,16,1,,,,,,,,,,,,,,,,,,,,,,,
,,,,,WIN24_062,20,Female,2024-02-15_13h01.39.094,jersey_experiment_5,2023.2.2,Win32,84.74576271,,,,,,,,,,,,,,,,1225.0806,1226.3744,1226.3744,1228.0332,return,0.5469,,90.36458333,,,,,,FBP-RB-91.png,0.43,1.2,29,0.5,,,,,,,,,,,,,,,,,,0,58,58,28,1,,,,,,,,,,,,,,,,,,,,,,,
,,,,,WIN24_062,20,Female,2024-02-15_13h01.39.094,jersey_experiment_5,2023.2.2,Win32,84.74576271,,,,,,,,,,,,,,,,1228.0335,1229.8335,1229.8336,1231.9041,return,0.6636,,30.33854167,,,,,,FBP-PT-71.png,0.35,1.2,46,1,,,,,,,,,,,,,,,,,,0,59,59,45,1,,,,,,,,,,,,,,,,,,,,,,,
,,,,,WIN24_062,20,Female,2024-02-15_13h01.39.094,jersey_experiment_5,2023.2.2,Win32,84.74576271,,,,,,,,,,,,,,,,,,,,,,,,,,,,,,,,,,,,,,,,,,,,,,,,,,,,,,,,1231.9045,1238.6809,return,6.7634,,,,,,,,,,,,,,,,,,,
,,,,,WIN24_062,20,Female,2024-02-15_13h01.39.094,jersey_experiment_5,2023.2.2,Win32,84.74576271,,,,,,,,,,,,,,,,,,,,,,,,,,,,,,,,,,,,,,,,,,,,,,,,,,,,,,,,,,,,,1238.6811,1243.2576,1,3.2802,return,1.2704,,,,,,,,,,,,
,,,,,WIN24_062,20,Female,2024-02-15_13h01.39.094,jersey_experiment_5,2023.2.2,Win32,84.74576271,,,,,,,,,,,,,,,,,,,,,,,,,,,,,,,,,,,,,,,,,,,,,,,,,,,,,,,,,,,,,,,,,,,,1243.2577,1309.2411,"No, it may have something to do with the colors on the football shirts and how that affects body size interpretation, but I am unsure. ",right,49.9215,,,,,,
,,,,,WIN24_062,20,Female,2024-02-15_13h01.39.094,jersey_experiment_5,2023.2.2,Win32,84.74576271,,,,,,,,,,,,,,,,,,,,,,,,,,,,,,,,,,,,,,,,,,,,,,,,,,,,,,,,,,,,,,,,,,,,,,,,,,1309.2412,1312.5187,return,3.2575,