requirements.started,requirements.stopped,key_resp_3.keys,key_resp_3.rt,key_resp_3.duration,Subject ID,Age,Gender,date,expName,psychopyVersion,OS,frameRate,instructions1.started,instructions1.stopped,key_resp.keys,key_resp.rt,key_resp.duration,example.started,example.stopped,enter_2.keys,enter_2.rt,enter_2.duration,instructions2.started,instructions2.stopped,enter_3.keys,enter_3.rt,enter_3.duration,image.started,image.stopped,slider_2.started,slider_2.stopped,next.keys,next.rt,next.duration,slider.response,trial_block_1.thisRepN,trial_block_1.thisTrialN,trial_block_1.thisN,trial_block_1.thisIndex,trial_block_1.ran,Path,Width,Height,Index,Duration,trial_block_2.thisRepN,trial_block_2.thisTrialN,trial_block_2.thisN,trial_block_2.thisIndex,trial_block_2.ran,rest_break.started,rest_break.stopped,end_break.started,end_break.stopped,key_resp_5.keys,key_resp_5.rt,key_resp_5.duration,trial_block_3.thisRepN,trial_block_3.thisTrialN,trial_block_3.thisN,trial_block_3.thisIndex,trial_block_3.ran,trial_block_4.thisRepN,trial_block_4.thisTrialN,trial_block_4.thisN,trial_block_4.thisIndex,trial_block_4.ran,questions_intro.started,questions_intro.stopped,enter_12.keys,enter_12.rt,enter_12.duration,question2.started,question2.stopped,question_doingbest.response,question_doingbest.rt,enter_15.keys,enter_15.rt,enter_15.duration,pattern.started,pattern.stopped,pattern_2.text,enter_17.keys,enter_17.rt,enter_17.duration,thankyou.started,thankyou.stopped,enter_14.keys,enter_14.rt,enter_14.duration
0.0002,6.9259,return,6.9219,,WIN24_065,21,female,2024-02-15_16h04.08.229,jersey_experiment_5,2023.2.2,Win32,85.47008547,,,,,,,,,,,,,,,,,,,,,,,,,,,,,,,,,,,,,,,,,,,,,,,,,,,,,,,,,,,,,,,,,,,,,,,,,,,,,,
,,,,,WIN24_065,21,female,2024-02-15_16h04.08.229,jersey_experiment_5,2023.2.2,Win32,85.47008547,6.926,13.1449,return,6.2016,,,,,,,,,,,,,,,,,,,,,,,,,,,,,,,,,,,,,,,,,,,,,,,,,,,,,,,,,,,,,,,,,,,,,,,,,,
,,,,,WIN24_065,21,female,2024-02-15_16h04.08.229,jersey_experiment_5,2023.2.2,Win32,85.47008547,,,,,,13.1449,17.4392,return,4.2598,,,,,,,,,,,,,,,,,,,,,,,,,,,,,,,,,,,,,,,,,,,,,,,,,,,,,,,,,,,,,,,,,,,,,
,,,,,WIN24_065,21,female,2024-02-15_16h04.08.229,jersey_experiment_5,2023.2.2,Win32,85.47008547,,,,,,,,,,,17.4393,31.6986,return,14.2396,,,,,,,,,,,,,,,,,,,,,,,,,,,,,,,,,,,,,,,,,,,,,,,,,,,,,,,,,,,,,,,,
,,,,,WIN24_065,21,female,2024-02-15_16h04.08.229,jersey_experiment_5,2023.2.2,Win32,85.47008547,,,,,,,,,,,,,,,,31.7054,33.5016,33.5017,39.3927,return,3.2404,,74.73958333,0,0,0,28,1,FBP-RB-19.png,0.43,1.2,29,1,,,,,,,,,,,,,,,,,,,,,,,,,,,,,,,,,,,,,,,,,,,,,
,,,,,WIN24_065,21,female,2024-02-15_16h04.08.229,jersey_experiment_5,2023.2.2,Win32,85.47008547,,,,,,,,,,,,,,,,39.393,41.1928,41.1928,43.3105,return,1.0316,,74.86979167,0,1,1,44,1,FBP-YG-91.png,0.45,1.2,45,1,,,,,,,,,,,,,,,,,,,,,,,,,,,,,,,,,,,,,,,,,,,,,
,,,,,WIN24_065,21,female,2024-02-15_16h04.08.229,jersey_experiment_5,2023.2.2,Win32,85.47008547,,,,,,,,,,,,,,,,43.3108,44.6047,44.6047,49.6638,return,3.9016,,30.078125,0,2,2,6,1,FBP-OG-81.png,0.37,1.2,7,0.5,,,,,,,,,,,,,,,,,,,,,,,,,,,,,,,,,,,,,,,,,,,,,
,,,,,WIN24_065,21,female,2024-02-15_16h04.08.229,jersey_experiment_5,2023.2.2,Win32,85.47008547,,,,,,,,,,,,,,,,49.6641,51.4637,51.4637,54.0168,return,1.3688,,79.42708333,0,3,3,24,1,FBP-RB-18.png,0.45,1.2,25,1,,,,,,,,,,,,,,,,,,,,,,,,,,,,,,,,,,,,,,,,,,,,,
,,,,,WIN24_065,21,female,2024-02-15_16h04.08.229,jersey_experiment_5,2023.2.2,Win32,85.47008547,,,,,,,,,,,,,,,,54.017,55.8167,55.8167,57.8875,return,0.7232,,18.22916667,0,4,4,15,1,FBP-RB-17.png,0.35,1.2,16,1,,,,,,,,,,,,,,,,,,,,,,,,,,,,,,,,,,,,,,,,,,,,,
,,,,,WIN24_065,21,female,2024-02-15_16h04.08.229,jersey_experiment_5,2023.2.2,Win32,85.47008547,,,,,,,,,,,,,,,,57.8877,59.6875,59.6876,62.4053,return,1.3897,,86.58854167,0,5,5,19,1,FBP-RB-17.png,0.45,1.2,20,1,,,,,,,,,,,,,,,,,,,,,,,,,,,,,,,,,,,,,,,,,,,,,
,,,,,WIN24_065,21,female,2024-02-15_16h04.08.229,jersey_experiment_5,2023.2.2,Win32,85.47008547,,,,,,,,,,,,,,,,62.4055,63.6994,63.6995,66.3348,return,1.6417,,99.73958333,0,6,6,9,1,FBP-OG-81.png,0.45,1.2,10,0.5,,,,,,,,,,,,,,,,,,,,,,,,,,,,,,,,,,,,,,,,,,,,,
,,,,,WIN24_065,21,female,2024-02-15_16h04.08.229,jersey_experiment_5,2023.2.2,Win32,85.47008547,,,,,,,,,,,,,,,,66.335,67.6289,67.6289,71.2999,return,2.5784,,49.73958333,0,7,7,2,1,FBP-OG-71.png,0.4,1.2,3,0.5,,,,,,,,,,,,,,,,,,,,,,,,,,,,,,,,,,,,,,,,,,,,,
,,,,,WIN24_065,21,female,2024-02-15_16h04.08.229,jersey_experiment_5,2023.2.2,Win32,85.47008547,,,,,,,,,,,,,,,,71.3001,72.5938,72.5939,77.1708,return,0.2749,,50.13020833,0,8,8,53,1,FBP-PT-18.png,0.43,1.2,54,0.5,,,,,,,,,,,,,,,,,,,,,,,,,,,,,,,,,,,,,,,,,,,,,
,,,,,WIN24_065,21,female,2024-02-15_16h04.08.229,jersey_experiment_5,2023.2.2,Win32,85.47008547,,,,,,,,,,,,,,,,77.171,78.4647,78.4647,80.6648,return,0.8479,,56.51041667,0,9,9,7,1,FBP-OG-81.png,0.4,1.2,8,0.5,,,,,,,,,,,,,,,,,,,,,,,,,,,,,,,,,,,,,,,,,,,,,
,,,,,WIN24_065,21,female,2024-02-15_16h04.08.229,jersey_experiment_5,2023.2.2,Win32,85.47008547,,,,,,,,,,,,,,,,80.6651,81.9589,81.9589,83.5238,return,0.6736,,44.01041667,0,10,10,46,1,FBP-PT-17.png,0.37,1.2,47,0.5,,,,,,,,,,,,,,,,,,,,,,,,,,,,,,,,,,,,,,,,,,,,,
,,,,,WIN24_065,21,female,2024-02-15_16h04.08.229,jersey_experiment_5,2023.2.2,Win32,85.47008547,,,,,,,,,,,,,,,,83.524,84.8179,84.8179,86.7708,return,0.604,,34.63541667,0,11,11,56,1,FBP-PT-19.png,0.37,1.2,57,0.5,,,,,,,,,,,,,,,,,,,,,,,,,,,,,,,,,,,,,,,,,,,,,
,,,,,WIN24_065,21,female,2024-02-15_16h04.08.229,jersey_experiment_5,2023.2.2,Win32,85.47008547,,,,,,,,,,,,,,,,86.771,88.0651,88.0651,90.1475,return,0.7194,,24.47916667,0,12,12,10,1,FBP-OG-91.png,0.35,1.2,11,0.5,,,,,,,,,,,,,,,,,,,,,,,,,,,,,,,,,,,,,,,,,,,,,
,,,,,WIN24_065,21,female,2024-02-15_16h04.08.229,jersey_experiment_5,2023.2.2,Win32,85.47008547,,,,,,,,,,,,,,,,90.1477,91.4417,91.4417,93.5594,return,0.8816,,20.703125,0,13,13,55,1,FBP-PT-19.png,0.35,1.2,56,0.5,,,,,,,,,,,,,,,,,,,,,,,,,,,,,,,,,,,,,,,,,,,,,
,,,,,WIN24_065,21,female,2024-02-15_16h04.08.229,jersey_experiment_5,2023.2.2,Win32,85.47008547,,,,,,,,,,,,,,,,93.5596,95.3595,95.3595,97.7126,return,0.8756,,67.44791667,0,14,14,18,1,FBP-RB-17.png,0.43,1.2,19,1,,,,,,,,,,,,,,,,,,,,,,,,,,,,,,,,,,,,,,,,,,,,,
,,,,,WIN24_065,21,female,2024-02-15_16h04.08.229,jersey_experiment_5,2023.2.2,Win32,85.47008547,,,,,,,,,,,,,,,,97.7127,99.0067,99.0067,101.5832,return,1.5138,,81.25,0,15,15,13,1,FBP-OG-91.png,0.43,1.2,14,0.5,,,,,,,,,,,,,,,,,,,,,,,,,,,,,,,,,,,,,,,,,,,,,
,,,,,WIN24_065,21,female,2024-02-15_16h04.08.229,jersey_experiment_5,2023.2.2,Win32,85.47008547,,,,,,,,,,,,,,,,101.5834,103.3833,103.3834,108.0659,return,3.2277,,66.92708333,0,16,16,21,1,FBP-RB-18.png,0.37,1.2,22,1,,,,,,,,,,,,,,,,,,,,,,,,,,,,,,,,,,,,,,,,,,,,,
,,,,,WIN24_065,21,female,2024-02-15_16h04.08.229,jersey_experiment_5,2023.2.2,Win32,85.47008547,,,,,,,,,,,,,,,,108.0701,109.8659,109.866,111.8072,return,0.712,,85.67708333,0,17,17,43,1,FBP-YG-91.png,0.43,1.2,44,1,,,,,,,,,,,,,,,,,,,,,,,,,,,,,,,,,,,,,,,,,,,,,
,,,,,WIN24_065,21,female,2024-02-15_16h04.08.229,jersey_experiment_5,2023.2.2,Win32,85.47008547,,,,,,,,,,,,,,,,111.8074,113.6072,113.6072,115.4542,return,0.7839,,87.890625,0,18,18,41,1,FBP-YG-91.png,0.37,1.2,42,1,,,,,,,,,,,,,,,,,,,,,,,,,,,,,,,,,,,,,,,,,,,,,
,,,,,WIN24_065,21,female,2024-02-15_16h04.08.229,jersey_experiment_5,2023.2.2,Win32,85.47008547,,,,,,,,,,,,,,,,115.4545,117.2544,117.2544,119.0544,return,0.3351,,99.21875,0,19,19,39,1,FBP-YG-81.png,0.45,1.2,40,1,,,,,,,,,,,,,,,,,,,,,,,,,,,,,,,,,,,,,,,,,,,,,
,,,,,WIN24_065,21,female,2024-02-15_16h04.08.229,jersey_experiment_5,2023.2.2,Win32,85.47008547,,,,,,,,,,,,,,,,119.0547,120.3487,120.3487,122.984,return,0.72,,16.015625,0,20,20,0,1,FBP-OG-71.png,0.35,1.2,1,0.5,,,,,,,,,,,,,,,,,,,,,,,,,,,,,,,,,,,,,,,,,,,,,
,,,,,WIN24_065,21,female,2024-02-15_16h04.08.229,jersey_experiment_5,2023.2.2,Win32,85.47008547,,,,,,,,,,,,,,,,122.9842,124.2781,124.2781,127.1842,return,0.3223,,58.46354167,0,21,21,47,1,FBP-PT-17.png,0.4,1.2,48,0.5,,,,,,,,,,,,,,,,,,,,,,,,,,,,,,,,,,,,,,,,,,,,,
,,,,,WIN24_065,21,female,2024-02-15_16h04.08.229,jersey_experiment_5,2023.2.2,Win32,85.47008547,,,,,,,,,,,,,,,,127.1844,128.4783,128.4783,130.996,return,1.3309,,24.86979167,0,22,22,5,1,FBP-OG-81.png,0.35,1.2,6,0.5,,,,,,,,,,,,,,,,,,,,,,,,,,,,,,,,,,,,,,,,,,,,,
,,,,,WIN24_065,21,female,2024-02-15_16h04.08.229,jersey_experiment_5,2023.2.2,Win32,85.47008547,,,,,,,,,,,,,,,,130.9963,132.796,132.796,136.6552,return,2.3357,,38.93229167,0,23,23,37,1,FBP-YG-81.png,0.4,1.2,38,1,,,,,,,,,,,,,,,,,,,,,,,,,,,,,,,,,,,,,,,,,,,,,
,,,,,WIN24_065,21,female,2024-02-15_16h04.08.229,jersey_experiment_5,2023.2.2,Win32,85.47008547,,,,,,,,,,,,,,,,136.6554,137.9493,137.9493,140.2552,return,0.5463,,58.07291667,0,24,24,4,1,FBP-OG-71.png,0.45,1.2,5,0.5,,,,,,,,,,,,,,,,,,,,,,,,,,,,,,,,,,,,,,,,,,,,,
,,,,,WIN24_065,21,female,2024-02-15_16h04.08.229,jersey_experiment_5,2023.2.2,Win32,85.47008547,,,,,,,,,,,,,,,,140.2555,141.5494,141.5494,144.5142,return,1.0141,,41.40625,0,25,25,50,1,FBP-PT-18.png,0.35,1.2,51,0.5,,,,,,,,,,,,,,,,,,,,,,,,,,,,,,,,,,,,,,,,,,,,,
,,,,,WIN24_065,21,female,2024-02-15_16h04.08.229,jersey_experiment_5,2023.2.2,Win32,85.47008547,,,,,,,,,,,,,,,,144.5143,145.8084,145.8085,147.7851,return,0.4716,,25.91145833,0,26,26,11,1,FBP-OG-91.png,0.37,1.2,12,0.5,,,,,,,,,,,,,,,,,,,,,,,,,,,,,,,,,,,,,,,,,,,,,
,,,,,WIN24_065,21,female,2024-02-15_16h04.08.229,jersey_experiment_5,2023.2.2,Win32,85.47008547,,,,,,,,,,,,,,,,147.7853,149.5851,149.5852,150.9851,return,0.4853,,50.26041667,0,27,27,32,1,FBP-YG-71.png,0.4,1.2,33,1,,,,,,,,,,,,,,,,,,,,,,,,,,,,,,,,,,,,,,,,,,,,,
,,,,,WIN24_065,21,female,2024-02-15_16h04.08.229,jersey_experiment_5,2023.2.2,Win32,85.47008547,,,,,,,,,,,,,,,,150.9853,152.7851,152.7852,154.1498,return,0.6361,,57.03125,0,28,28,38,1,FBP-YG-81.png,0.43,1.2,39,1,,,,,,,,,,,,,,,,,,,,,,,,,,,,,,,,,,,,,,,,,,,,,
,,,,,WIN24_065,21,female,2024-02-15_16h04.08.229,jersey_experiment_5,2023.2.2,Win32,85.47008547,,,,,,,,,,,,,,,,154.1501,155.444,155.4441,161.009,return,1.8398,,49.34895833,0,29,29,3,1,FBP-OG-71.png,0.43,1.2,4,0.5,,,,,,,,,,,,,,,,,,,,,,,,,,,,,,,,,,,,,,,,,,,,,
,,,,,WIN24_065,21,female,2024-02-15_16h04.08.229,jersey_experiment_5,2023.2.2,Win32,85.47008547,,,,,,,,,,,,,,,,161.0093,162.809,162.809,166.5974,return,1.6119,,36.71875,0,30,30,40,1,FBP-YG-91.png,0.35,1.2,41,1,,,,,,,,,,,,,,,,,,,,,,,,,,,,,,,,,,,,,,,,,,,,,
,,,,,WIN24_065,21,female,2024-02-15_16h04.08.229,jersey_experiment_5,2023.2.2,Win32,85.47008547,,,,,,,,,,,,,,,,166.5976,167.8915,167.8916,169.5269,return,0.3904,,87.890625,0,31,31,59,1,FBP-PT-19.png,0.45,1.2,60,0.5,,,,,,,,,,,,,,,,,,,,,,,,,,,,,,,,,,,,,,,,,,,,,
,,,,,WIN24_065,21,female,2024-02-15_16h04.08.229,jersey_experiment_5,2023.2.2,Win32,85.47008547,,,,,,,,,,,,,,,,169.5271,170.8211,170.8211,172.5035,return,0.6221,,94.140625,0,32,32,54,1,FBP-PT-18.png,0.45,1.2,55,0.5,,,,,,,,,,,,,,,,,,,,,,,,,,,,,,,,,,,,,,,,,,,,,
,,,,,WIN24_065,21,female,2024-02-15_16h04.08.229,jersey_experiment_5,2023.2.2,Win32,85.47008547,,,,,,,,,,,,,,,,172.5038,174.3036,174.3036,176.6802,return,0.5656,,67.31770833,0,33,33,22,1,FBP-RB-18.png,0.4,1.2,23,1,,,,,,,,,,,,,,,,,,,,,,,,,,,,,,,,,,,,,,,,,,,,,
,,,,,WIN24_065,21,female,2024-02-15_16h04.08.229,jersey_experiment_5,2023.2.2,Win32,85.47008547,,,,,,,,,,,,,,,,176.6804,177.9743,177.9743,179.845,return,0.6606,,97.91666667,0,34,34,48,1,FBP-PT-17.png,0.43,1.2,49,0.5,,,,,,,,,,,,,,,,,,,,,,,,,,,,,,,,,,,,,,,,,,,,,
,,,,,WIN24_065,21,female,2024-02-15_16h04.08.229,jersey_experiment_5,2023.2.2,Win32,85.47008547,,,,,,,,,,,,,,,,179.8452,181.1392,181.1392,183.9391,return,0.3904,,50.78125,0,35,35,52,1,FBP-PT-18.png,0.4,1.2,53,0.5,,,,,,,,,,,,,,,,,,,,,,,,,,,,,,,,,,,,,,,,,,,,,
,,,,,WIN24_065,21,female,2024-02-15_16h04.08.229,jersey_experiment_5,2023.2.2,Win32,85.47008547,,,,,,,,,,,,,,,,183.9394,185.2334,185.2335,186.8805,return,0.6756,,63.671875,0,36,36,12,1,FBP-OG-91.png,0.4,1.2,13,0.5,,,,,,,,,,,,,,,,,,,,,,,,,,,,,,,,,,,,,,,,,,,,,
,,,,,WIN24_065,21,female,2024-02-15_16h04.08.229,jersey_experiment_5,2023.2.2,Win32,85.47008547,,,,,,,,,,,,,,,,186.8808,188.6807,188.6808,191.0454,return,1.5178,,38.54166667,0,37,37,25,1,FBP-RB-19.png,0.35,1.2,26,1,,,,,,,,,,,,,,,,,,,,,,,,,,,,,,,,,,,,,,,,,,,,,
,,,,,WIN24_065,21,female,2024-02-15_16h04.08.229,jersey_experiment_5,2023.2.2,Win32,85.47008547,,,,,,,,,,,,,,,,191.0456,192.8455,192.8456,194.3867,return,0.4045,,49.609375,0,38,38,16,1,FBP-RB-17.png,0.37,1.2,17,1,,,,,,,,,,,,,,,,,,,,,,,,,,,,,,,,,,,,,,,,,,,,,
,,,,,WIN24_065,21,female,2024-02-15_16h04.08.229,jersey_experiment_5,2023.2.2,Win32,85.47008547,,,,,,,,,,,,,,,,194.387,195.6808,195.6808,197.775,return,0.7008,,73.30729167,0,39,39,58,1,FBP-PT-19.png,0.43,1.2,59,0.5,,,,,,,,,,,,,,,,,,,,,,,,,,,,,,,,,,,,,,,,,,,,,
,,,,,WIN24_065,21,female,2024-02-15_16h04.08.229,jersey_experiment_5,2023.2.2,Win32,85.47008547,,,,,,,,,,,,,,,,197.7753,199.5752,199.5752,202.6812,return,0.7299,,72.91666667,0,40,40,27,1,FBP-RB-19.png,0.4,1.2,28,1,,,,,,,,,,,,,,,,,,,,,,,,,,,,,,,,,,,,,,,,,,,,,
,,,,,WIN24_065,21,female,2024-02-15_16h04.08.229,jersey_experiment_5,2023.2.2,Win32,85.47008547,,,,,,,,,,,,,,,,202.6814,204.481,204.4811,206.9753,return,1.4534,,35.67708333,0,41,41,26,1,FBP-RB-19.png,0.37,1.2,27,1,,,,,,,,,,,,,,,,,,,,,,,,,,,,,,,,,,,,,,,,,,,,,
,,,,,WIN24_065,21,female,2024-02-15_16h04.08.229,jersey_experiment_5,2023.2.2,Win32,85.47008547,,,,,,,,,,,,,,,,206.9756,208.7754,208.7755,210.952,return,1.3176,,80.078125,0,42,42,33,1,FBP-YG-71.png,0.43,1.2,34,1,,,,,,,,,,,,,,,,,,,,,,,,,,,,,,,,,,,,,,,,,,,,,
,,,,,WIN24_065,21,female,2024-02-15_16h04.08.229,jersey_experiment_5,2023.2.2,Win32,85.47008547,,,,,,,,,,,,,,,,210.9522,212.7521,212.7522,215.0933,return,0.7542,,42.1875,0,43,43,17,1,FBP-RB-17.png,0.4,1.2,18,1,,,,,,,,,,,,,,,,,,,,,,,,,,,,,,,,,,,,,,,,,,,,,
,,,,,WIN24_065,21,female,2024-02-15_16h04.08.229,jersey_experiment_5,2023.2.2,Win32,85.47008547,,,,,,,,,,,,,,,,215.0935,216.3875,216.3875,218.4698,return,0.6827,,75.13020833,0,44,44,49,1,FBP-PT-17.png,0.45,1.2,50,0.5,,,,,,,,,,,,,,,,,,,,,,,,,,,,,,,,,,,,,,,,,,,,,
,,,,,WIN24_065,21,female,2024-02-15_16h04.08.229,jersey_experiment_5,2023.2.2,Win32,85.47008547,,,,,,,,,,,,,,,,218.4701,219.7642,219.7642,224.9995,return,2.9653,,50.26041667,0,45,45,57,1,FBP-PT-19.png,0.4,1.2,58,0.5,,,,,,,,,,,,,,,,,,,,,,,,,,,,,,,,,,,,,,,,,,,,,
,,,,,WIN24_065,21,female,2024-02-15_16h04.08.229,jersey_experiment_5,2023.2.2,Win32,85.47008547,,,,,,,,,,,,,,,,224.9998,226.7998,226.7998,229.2704,return,0.484,,45.703125,0,46,46,31,1,FBP-YG-71.png,0.37,1.2,32,1,,,,,,,,,,,,,,,,,,,,,,,,,,,,,,,,,,,,,,,,,,,,,
,,,,,WIN24_065,21,female,2024-02-15_16h04.08.229,jersey_experiment_5,2023.2.2,Win32,85.47008547,,,,,,,,,,,,,,,,229.2706,231.0705,231.0705,233.859,return,1.9687,,24.86979167,0,47,47,20,1,FBP-RB-18.png,0.35,1.2,21,1,,,,,,,,,,,,,,,,,,,,,,,,,,,,,,,,,,,,,,,,,,,,,
,,,,,WIN24_065,21,female,2024-02-15_16h04.08.229,jersey_experiment_5,2023.2.2,Win32,85.47008547,,,,,,,,,,,,,,,,233.8594,235.6589,235.659,237.3295,return,0.4289,,23.828125,0,48,48,36,1,FBP-YG-81.png,0.37,1.2,37,1,,,,,,,,,,,,,,,,,,,,,,,,,,,,,,,,,,,,,,,,,,,,,
,,,,,WIN24_065,21,female,2024-02-15_16h04.08.229,jersey_experiment_5,2023.2.2,Win32,85.47008547,,,,,,,,,,,,,,,,237.3297,239.1298,239.1298,240.2707,return,0.4785,,34.63541667,0,49,49,42,1,FBP-YG-91.png,0.4,1.2,43,1,,,,,,,,,,,,,,,,,,,,,,,,,,,,,,,,,,,,,,,,,,,,,
,,,,,WIN24_065,21,female,2024-02-15_16h04.08.229,jersey_experiment_5,2023.2.2,Win32,85.47008547,,,,,,,,,,,,,,,,240.271,242.071,242.071,244.5533,return,0.9886,,19.921875,0,50,50,35,1,FBP-YG-81.png,0.35,1.2,36,1,,,,,,,,,,,,,,,,,,,,,,,,,,,,,,,,,,,,,,,,,,,,,
,,,,,WIN24_065,21,female,2024-02-15_16h04.08.229,jersey_experiment_5,2023.2.2,Win32,85.47008547,,,,,,,,,,,,,,,,244.5535,246.3535,246.3535,248.2947,return,0.9281,,81.640625,0,51,51,29,1,FBP-RB-19.png,0.45,1.2,30,1,,,,,,,,,,,,,,,,,,,,,,,,,,,,,,,,,,,,,,,,,,,,,
,,,,,WIN24_065,21,female,2024-02-15_16h04.08.229,jersey_experiment_5,2023.2.2,Win32,85.47008547,,,,,,,,,,,,,,,,248.295,249.5887,249.5887,252.7066,return,1.2738,,25.65104167,0,52,52,51,1,FBP-PT-18.png,0.37,1.2,52,0.5,,,,,,,,,,,,,,,,,,,,,,,,,,,,,,,,,,,,,,,,,,,,,
,,,,,WIN24_065,21,female,2024-02-15_16h04.08.229,jersey_experiment_5,2023.2.2,Win32,85.47008547,,,,,,,,,,,,,,,,252.7069,254.0007,254.0008,256.7184,return,1.8055,,74.609375,0,53,53,8,1,FBP-OG-81.png,0.43,1.2,9,0.5,,,,,,,,,,,,,,,,,,,,,,,,,,,,,,,,,,,,,,,,,,,,,
,,,,,WIN24_065,21,female,2024-02-15_16h04.08.229,jersey_experiment_5,2023.2.2,Win32,85.47008547,,,,,,,,,,,,,,,,256.7186,258.0125,258.0126,260.7069,return,1.7569,,42.83854167,0,54,54,1,1,FBP-OG-71.png,0.37,1.2,2,0.5,,,,,,,,,,,,,,,,,,,,,,,,,,,,,,,,,,,,,,,,,,,,,
,,,,,WIN24_065,21,female,2024-02-15_16h04.08.229,jersey_experiment_5,2023.2.2,Win32,85.47008547,,,,,,,,,,,,,,,,260.7071,262.001,262.001,264.4011,return,1.2515,,25.13020833,0,55,55,45,1,FBP-PT-17.png,0.35,1.2,46,0.5,,,,,,,,,,,,,,,,,,,,,,,,,,,,,,,,,,,,,,,,,,,,,
,,,,,WIN24_065,21,female,2024-02-15_16h04.08.229,jersey_experiment_5,2023.2.2,Win32,85.47008547,,,,,,,,,,,,,,,,264.4013,266.2012,266.2012,267.8718,return,0.5341,,24.47916667,0,56,56,30,1,FBP-YG-71.png,0.35,1.2,31,1,,,,,,,,,,,,,,,,,,,,,,,,,,,,,,,,,,,,,,,,,,,,,
,,,,,WIN24_065,21,female,2024-02-15_16h04.08.229,jersey_experiment_5,2023.2.2,Win32,85.47008547,,,,,,,,,,,,,,,,267.8721,269.1658,269.1658,271.1189,return,0.324,,97.91666667,0,57,57,14,1,FBP-OG-91.png,0.45,1.2,15,0.5,,,,,,,,,,,,,,,,,,,,,,,,,,,,,,,,,,,,,,,,,,,,,
,,,,,WIN24_065,21,female,2024-02-15_16h04.08.229,jersey_experiment_5,2023.2.2,Win32,85.47008547,,,,,,,,,,,,,,,,271.1192,272.9192,272.9193,274.3073,return,0.4624,,98.17708333,0,58,58,34,1,FBP-YG-71.png,0.45,1.2,35,1,,,,,,,,,,,,,,,,,,,,,,,,,,,,,,,,,,,,,,,,,,,,,
,,,,,WIN24_065,21,female,2024-02-15_16h04.08.229,jersey_experiment_5,2023.2.2,Win32,85.47008547,,,,,,,,,,,,,,,,274.3076,276.1073,276.1074,277.4487,return,0.3061,,95.18229167,0,59,59,23,1,FBP-RB-18.png,0.43,1.2,24,1,,,,,,,,,,,,,,,,,,,,,,,,,,,,,,,,,,,,,,,,,,,,,
,,,,,WIN24_065,21,female,2024-02-15_16h04.08.229,jersey_experiment_5,2023.2.2,Win32,85.47008547,,,,,,,,,,,,,,,,277.4512,279.2486,279.2487,280.6487,return,0.4475,,96.61458333,,,,,,FBP-RB-71.png,0.43,1.2,19,1,0,0,0,18,1,,,,,,,,,,,,,,,,,,,,,,,,,,,,,,,,,,,,,,,,
,,,,,WIN24_065,21,female,2024-02-15_16h04.08.229,jersey_experiment_5,2023.2.2,Win32,85.47008547,,,,,,,,,,,,,,,,280.649,282.4488,282.4488,286.0725,return,2.0246,,12.5,,,,,,FBP-RB-71.png,0.35,1.2,16,1,0,1,1,15,1,,,,,,,,,,,,,,,,,,,,,,,,,,,,,,,,,,,,,,,,
,,,,,WIN24_065,21,female,2024-02-15_16h04.08.229,jersey_experiment_5,2023.2.2,Win32,85.47008547,,,,,,,,,,,,,,,,286.0728,287.8726,287.8727,288.9666,return,0.2587,,49.34895833,,,,,,FBP-YG-18.png,0.43,1.2,39,1,0,2,2,38,1,,,,,,,,,,,,,,,,,,,,,,,,,,,,,,,,,,,,,,,,
,,,,,WIN24_065,21,female,2024-02-15_16h04.08.229,jersey_experiment_5,2023.2.2,Win32,85.47008547,,,,,,,,,,,,,,,,288.9669,290.7667,290.7667,292.7904,return,1.3653,,63.93229167,,,,,,FBP-RB-91.png,0.43,1.2,29,1,0,3,3,28,1,,,,,,,,,,,,,,,,,,,,,,,,,,,,,,,,,,,,,,,,
,,,,,WIN24_065,21,female,2024-02-15_16h04.08.229,jersey_experiment_5,2023.2.2,Win32,85.47008547,,,,,,,,,,,,,,,,292.7907,294.5906,294.5907,295.6728,return,0.4008,,50,,,,,,FBP-YG-19.png,0.37,1.2,42,1,0,4,4,41,1,,,,,,,,,,,,,,,,,,,,,,,,,,,,,,,,,,,,,,,,
,,,,,WIN24_065,21,female,2024-02-15_16h04.08.229,jersey_experiment_5,2023.2.2,Win32,85.47008547,,,,,,,,,,,,,,,,295.6731,296.967,296.967,300.8494,return,2.474,,57.421875,,,,,,FBP-OG-19.png,0.4,1.2,13,0.5,0,5,5,12,1,,,,,,,,,,,,,,,,,,,,,,,,,,,,,,,,,,,,,,,,
,,,,,WIN24_065,21,female,2024-02-15_16h04.08.229,jersey_experiment_5,2023.2.2,Win32,85.47008547,,,,,,,,,,,,,,,,300.8498,302.1435,302.1435,303.8733,return,0.3824,,74.34895833,,,,,,FBP-OG-18.png,0.45,1.2,10,0.5,0,6,6,9,1,,,,,,,,,,,,,,,,,,,,,,,,,,,,,,,,,,,,,,,,
,,,,,WIN24_065,21,female,2024-02-15_16h04.08.229,jersey_experiment_5,2023.2.2,Win32,85.47008547,,,,,,,,,,,,,,,,303.8736,305.6731,305.6732,307.8263,return,1.4031,,45.05208333,,,,,,FBP-YG-18.png,0.37,1.2,37,1,0,7,7,36,1,,,,,,,,,,,,,,,,,,,,,,,,,,,,,,,,,,,,,,,,
,,,,,WIN24_065,21,female,2024-02-15_16h04.08.229,jersey_experiment_5,2023.2.2,Win32,85.47008547,,,,,,,,,,,,,,,,307.8265,309.6263,309.6263,310.85,return,0.427,,66.92708333,,,,,,FBP-YG-17.png,0.45,1.2,35,1,0,8,8,34,1,,,,,,,,,,,,,,,,,,,,,,,,,,,,,,,,,,,,,,,,
,,,,,WIN24_065,21,female,2024-02-15_16h04.08.229,jersey_experiment_5,2023.2.2,Win32,85.47008547,,,,,,,,,,,,,,,,310.8503,312.6498,312.6499,314.2735,return,0.382,,56.11979167,,,,,,FBP-YG-17.png,0.4,1.2,33,1,0,9,9,32,1,,,,,,,,,,,,,,,,,,,,,,,,,,,,,,,,,,,,,,,,
,,,,,WIN24_065,21,female,2024-02-15_16h04.08.229,jersey_experiment_5,2023.2.2,Win32,85.47008547,,,,,,,,,,,,,,,,314.2738,316.0737,316.0737,318.7208,return,1.6531,,54.03645833,,,,,,FBP-YG-19.png,0.4,1.2,43,1,0,10,10,42,1,,,,,,,,,,,,,,,,,,,,,,,,,,,,,,,,,,,,,,,,
,,,,,WIN24_065,21,female,2024-02-15_16h04.08.229,jersey_experiment_5,2023.2.2,Win32,85.47008547,,,,,,,,,,,,,,,,318.721,320.0149,320.015,324.2385,return,2.5956,,28.77604167,,,,,,FBP-PT-91.png,0.37,1.2,57,0.5,0,11,11,56,1,,,,,,,,,,,,,,,,,,,,,,,,,,,,,,,,,,,,,,,,
,,,,,WIN24_065,21,female,2024-02-15_16h04.08.229,jersey_experiment_5,2023.2.2,Win32,85.47008547,,,,,,,,,,,,,,,,324.2386,326.0387,326.0387,327.4976,return,0.4472,,32.68229167,,,,,,FBP-YG-17.png,0.35,1.2,31,1,0,12,12,30,1,,,,,,,,,,,,,,,,,,,,,,,,,,,,,,,,,,,,,,,,
,,,,,WIN24_065,21,female,2024-02-15_16h04.08.229,jersey_experiment_5,2023.2.2,Win32,85.47008547,,,,,,,,,,,,,,,,327.4978,329.2976,329.2977,335.286,return,1.6712,,61.58854167,,,,,,FBP-RB-81.png,0.45,1.2,25,1,0,13,13,24,1,,,,,,,,,,,,,,,,,,,,,,,,,,,,,,,,,,,,,,,,
,,,,,WIN24_065,21,female,2024-02-15_16h04.08.229,jersey_experiment_5,2023.2.2,Win32,85.47008547,,,,,,,,,,,,,,,,335.2862,337.0863,337.0864,337.8744,return,0.2163,,75.13020833,,,,,,FBP-YG-19.png,0.45,1.2,45,1,0,14,14,44,1,,,,,,,,,,,,,,,,,,,,,,,,,,,,,,,,,,,,,,,,
,,,,,WIN24_065,21,female,2024-02-15_16h04.08.229,jersey_experiment_5,2023.2.2,Win32,85.47008547,,,,,,,,,,,,,,,,337.8747,339.1684,339.1684,341.3687,return,0.3528,,73.046875,,,,,,FBP-PT-81.png,0.4,1.2,53,0.5,0,15,15,52,1,,,,,,,,,,,,,,,,,,,,,,,,,,,,,,,,,,,,,,,,
,,,,,WIN24_065,21,female,2024-02-15_16h04.08.229,jersey_experiment_5,2023.2.2,Win32,85.47008547,,,,,,,,,,,,,,,,341.3689,343.1688,343.1688,344.8984,return,0.2045,,75,,,,,,FBP-YG-17.png,0.43,1.2,34,1,0,16,16,33,1,,,,,,,,,,,,,,,,,,,,,,,,,,,,,,,,,,,,,,,,
,,,,,WIN24_065,21,female,2024-02-15_16h04.08.229,jersey_experiment_5,2023.2.2,Win32,85.47008547,,,,,,,,,,,,,,,,344.8987,346.6984,346.6984,349.4631,return,0.4375,,33.33333333,,,,,,FBP-RB-71.png,0.37,1.2,17,1,0,17,17,16,1,,,,,,,,,,,,,,,,,,,,,,,,,,,,,,,,,,,,,,,,
,,,,,WIN24_065,21,female,2024-02-15_16h04.08.229,jersey_experiment_5,2023.2.2,Win32,85.47008547,,,,,,,,,,,,,,,,349.4633,350.7572,350.7573,352.0867,return,0.4001,,70.44270833,,,,,,FBP-OG-19.png,0.43,1.2,14,0.5,0,18,18,13,1,,,,,,,,,,,,,,,,,,,,,,,,,,,,,,,,,,,,,,,,
,,,,,WIN24_065,21,female,2024-02-15_16h04.08.229,jersey_experiment_5,2023.2.2,Win32,85.47008547,,,,,,,,,,,,,,,,352.0869,353.3809,353.3809,355.1221,return,0.3448,,38.28125,,,,,,FBP-PT-71.png,0.35,1.2,46,0.5,0,19,19,45,1,,,,,,,,,,,,,,,,,,,,,,,,,,,,,,,,,,,,,,,,
,,,,,WIN24_065,21,female,2024-02-15_16h04.08.229,jersey_experiment_5,2023.2.2,Win32,85.47008547,,,,,,,,,,,,,,,,355.1223,356.4162,356.4162,358.1693,return,0.7441,,85.67708333,,,,,,FBP-OG-19.png,0.45,1.2,15,0.5,0,20,20,14,1,,,,,,,,,,,,,,,,,,,,,,,,,,,,,,,,,,,,,,,,
,,,,,WIN24_065,21,female,2024-02-15_16h04.08.229,jersey_experiment_5,2023.2.2,Win32,85.47008547,,,,,,,,,,,,,,,,358.1695,359.9695,359.9695,361.6048,return,0.3672,,43.48958333,,,,,,FBP-RB-91.png,0.35,1.2,26,1,0,21,21,25,1,,,,,,,,,,,,,,,,,,,,,,,,,,,,,,,,,,,,,,,,
,,,,,WIN24_065,21,female,2024-02-15_16h04.08.229,jersey_experiment_5,2023.2.2,Win32,85.47008547,,,,,,,,,,,,,,,,361.605,362.899,362.899,365.0873,return,0.194,,93.61979167,,,,,,FBP-PT-91.png,0.45,1.2,60,0.5,0,22,22,59,1,,,,,,,,,,,,,,,,,,,,,,,,,,,,,,,,,,,,,,,,
,,,,,WIN24_065,21,female,2024-02-15_16h04.08.229,jersey_experiment_5,2023.2.2,Win32,85.47008547,,,,,,,,,,,,,,,,365.0876,366.3814,366.3815,368.6404,return,0.2165,,50.52083333,,,,,,FBP-PT-91.png,0.35,1.2,56,0.5,0,23,23,55,1,,,,,,,,,,,,,,,,,,,,,,,,,,,,,,,,,,,,,,,,
,,,,,WIN24_065,21,female,2024-02-15_16h04.08.229,jersey_experiment_5,2023.2.2,Win32,85.47008547,,,,,,,,,,,,,,,,368.6407,370.4402,370.4403,372.0991,return,0.7917,,71.35416667,,,,,,FBP-RB-71.png,0.45,1.2,20,1,0,24,24,19,1,,,,,,,,,,,,,,,,,,,,,,,,,,,,,,,,,,,,,,,,
,,,,,WIN24_065,21,female,2024-02-15_16h04.08.229,jersey_experiment_5,2023.2.2,Win32,85.47008547,,,,,,,,,,,,,,,,372.0994,373.8993,373.8993,375.9111,return,1.1064,,58.203125,,,,,,FBP-YG-18.png,0.35,1.2,36,1,0,25,25,35,1,,,,,,,,,,,,,,,,,,,,,,,,,,,,,,,,,,,,,,,,
,,,,,WIN24_065,21,female,2024-02-15_16h04.08.229,jersey_experiment_5,2023.2.2,Win32,85.47008547,,,,,,,,,,,,,,,,375.9114,377.7113,377.7113,379.3349,return,0.2692,,74.34895833,,,,,,FBP-RB-81.png,0.4,1.2,23,1,0,26,26,22,1,,,,,,,,,,,,,,,,,,,,,,,,,,,,,,,,,,,,,,,,
,,,,,WIN24_065,21,female,2024-02-15_16h04.08.229,jersey_experiment_5,2023.2.2,Win32,85.47008547,,,,,,,,,,,,,,,,379.3351,380.6289,380.629,383.1116,return,0.283,,74.34895833,,,,,,FBP-OG-18.png,0.35,1.2,6,0.5,0,27,27,5,1,,,,,,,,,,,,,,,,,,,,,,,,,,,,,,,,,,,,,,,,
,,,,,WIN24_065,21,female,2024-02-15_16h04.08.229,jersey_experiment_5,2023.2.2,Win32,85.47008547,,,,,,,,,,,,,,,,383.1119,384.9115,384.9115,386.1116,return,0.2663,,75.390625,,,,,,FBP-YG-18.png,0.4,1.2,38,1,0,28,28,37,1,,,,,,,,,,,,,,,,,,,,,,,,,,,,,,,,,,,,,,,,
,,,,,WIN24_065,21,female,2024-02-15_16h04.08.229,jersey_experiment_5,2023.2.2,Win32,85.47008547,,,,,,,,,,,,,,,,386.1118,387.4057,387.4057,388.8175,return,0.2736,,80.98958333,,,,,,FBP-PT-71.png,0.43,1.2,49,0.5,0,29,29,48,1,,,,,,,,,,,,,,,,,,,,,,,,,,,,,,,,,,,,,,,,
,,,,,WIN24_065,21,female,2024-02-15_16h04.08.229,jersey_experiment_5,2023.2.2,Win32,85.47008547,,,,,,,,,,,,,,,,388.8178,390.6177,390.6177,392.8177,return,1.0172,,68.61979167,,,,,,FBP-RB-71.png,0.4,1.2,18,1,0,30,30,17,1,,,,,,,,,,,,,,,,,,,,,,,,,,,,,,,,,,,,,,,,
,,,,,WIN24_065,21,female,2024-02-15_16h04.08.229,jersey_experiment_5,2023.2.2,Win32,85.47008547,,,,,,,,,,,,,,,,392.8179,394.1118,394.1118,395.4059,return,0.3146,,81.25,,,,,,FBP-OG-18.png,0.43,1.2,9,0.5,0,31,31,8,1,,,,,,,,,,,,,,,,,,,,,,,,,,,,,,,,,,,,,,,,
,,,,,WIN24_065,21,female,2024-02-15_16h04.08.229,jersey_experiment_5,2023.2.2,Win32,85.47008547,,,,,,,,,,,,,,,,395.406,396.7001,396.7001,398.0178,return,0.2975,,86.58854167,,,,,,FBP-PT-71.png,0.45,1.2,50,0.5,0,32,32,49,1,,,,,,,,,,,,,,,,,,,,,,,,,,,,,,,,,,,,,,,,
,,,,,WIN24_065,21,female,2024-02-15_16h04.08.229,jersey_experiment_5,2023.2.2,Win32,85.47008547,,,,,,,,,,,,,,,,398.0181,399.818,399.818,401.3356,return,0.6119,,42.578125,,,,,,FBP-RB-81.png,0.35,1.2,21,1,0,33,33,20,1,,,,,,,,,,,,,,,,,,,,,,,,,,,,,,,,,,,,,,,,
,,,,,WIN24_065,21,female,2024-02-15_16h04.08.229,jersey_experiment_5,2023.2.2,Win32,85.47008547,,,,,,,,,,,,,,,,401.3358,402.6297,402.6297,404.5357,return,0.3064,,62.109375,,,,,,FBP-PT-71.png,0.4,1.2,48,0.5,0,34,34,47,1,,,,,,,,,,,,,,,,,,,,,,,,,,,,,,,,,,,,,,,,
,,,,,WIN24_065,21,female,2024-02-15_16h04.08.229,jersey_experiment_5,2023.2.2,Win32,85.47008547,,,,,,,,,,,,,,,,404.5359,405.8298,405.8299,407.4063,return,0.479,,66.14583333,,,,,,FBP-OG-19.png,0.35,1.2,11,0.5,0,35,35,10,1,,,,,,,,,,,,,,,,,,,,,,,,,,,,,,,,,,,,,,,,
,,,,,WIN24_065,21,female,2024-02-15_16h04.08.229,jersey_experiment_5,2023.2.2,Win32,85.47008547,,,,,,,,,,,,,,,,407.4065,409.2065,409.2066,411.5831,return,0.8901,,46.875,,,,,,FBP-YG-17.png,0.37,1.2,32,1,0,36,36,31,1,,,,,,,,,,,,,,,,,,,,,,,,,,,,,,,,,,,,,,,,
,,,,,WIN24_065,21,female,2024-02-15_16h04.08.229,jersey_experiment_5,2023.2.2,Win32,85.47008547,,,,,,,,,,,,,,,,411.5833,413.3833,413.3833,415.6301,return,1.1967,,50.52083333,,,,,,FBP-RB-91.png,0.37,1.2,27,1,0,37,37,26,1,,,,,,,,,,,,,,,,,,,,,,,,,,,,,,,,,,,,,,,,
,,,,,WIN24_065,21,female,2024-02-15_16h04.08.229,jersey_experiment_5,2023.2.2,Win32,85.47008547,,,,,,,,,,,,,,,,415.6303,416.9244,416.9244,419.9835,return,1.9725,,75,,,,,,FBP-PT-91.png,0.43,1.2,59,0.5,0,38,38,58,1,,,,,,,,,,,,,,,,,,,,,,,,,,,,,,,,,,,,,,,,
,,,,,WIN24_065,21,female,2024-02-15_16h04.08.229,jersey_experiment_5,2023.2.2,Win32,85.47008547,,,,,,,,,,,,,,,,419.9839,421.2774,421.2775,422.5954,return,0.227,,81.77083333,,,,,,FBP-OG-17.png,0.45,1.2,5,0.5,0,39,39,4,1,,,,,,,,,,,,,,,,,,,,,,,,,,,,,,,,,,,,,,,,
,,,,,WIN24_065,21,female,2024-02-15_16h04.08.229,jersey_experiment_5,2023.2.2,Win32,85.47008547,,,,,,,,,,,,,,,,422.5956,423.8895,423.8895,425.9248,return,1.2254,,45.703125,,,,,,FBP-OG-18.png,0.37,1.2,7,0.5,0,40,40,6,1,,,,,,,,,,,,,,,,,,,,,,,,,,,,,,,,,,,,,,,,
,,,,,WIN24_065,21,female,2024-02-15_16h04.08.229,jersey_experiment_5,2023.2.2,Win32,85.47008547,,,,,,,,,,,,,,,,425.9249,427.2188,427.2189,429.0776,return,0.2598,,49.86979167,,,,,,FBP-PT-91.png,0.4,1.2,58,0.5,0,41,41,57,1,,,,,,,,,,,,,,,,,,,,,,,,,,,,,,,,,,,,,,,,
,,,,,WIN24_065,21,female,2024-02-15_16h04.08.229,jersey_experiment_5,2023.2.2,Win32,85.47008547,,,,,,,,,,,,,,,,429.0777,430.8779,430.8779,433.125,return,1.2487,,74.73958333,,,,,,FBP-RB-91.png,0.45,1.2,30,1,0,42,42,29,1,,,,,,,,,,,,,,,,,,,,,,,,,,,,,,,,,,,,,,,,
,,,,,WIN24_065,21,female,2024-02-15_16h04.08.229,jersey_experiment_5,2023.2.2,Win32,85.47008547,,,,,,,,,,,,,,,,433.1253,434.4193,434.4193,436.9134,return,0.2739,,49.47916667,,,,,,FBP-PT-81.png,0.37,1.2,52,0.5,0,43,43,51,1,,,,,,,,,,,,,,,,,,,,,,,,,,,,,,,,,,,,,,,,
,,,,,WIN24_065,21,female,2024-02-15_16h04.08.229,jersey_experiment_5,2023.2.2,Win32,85.47008547,,,,,,,,,,,,,,,,436.9136,438.2075,438.2075,440.0194,return,0.2731,,75,,,,,,FBP-PT-81.png,0.43,1.2,54,0.5,0,44,44,53,1,,,,,,,,,,,,,,,,,,,,,,,,,,,,,,,,,,,,,,,,
,,,,,WIN24_065,21,female,2024-02-15_16h04.08.229,jersey_experiment_5,2023.2.2,Win32,85.47008547,,,,,,,,,,,,,,,,440.0196,441.3136,441.3136,442.7254,return,0.3178,,67.578125,,,,,,FBP-PT-71.png,0.37,1.2,47,0.5,0,45,45,46,1,,,,,,,,,,,,,,,,,,,,,,,,,,,,,,,,,,,,,,,,
,,,,,WIN24_065,21,female,2024-02-15_16h04.08.229,jersey_experiment_5,2023.2.2,Win32,85.47008547,,,,,,,,,,,,,,,,442.7256,444.5256,444.5256,446.7726,return,0.2481,,39.0625,,,,,,FBP-YG-19.png,0.35,1.2,41,1,0,46,46,40,1,,,,,,,,,,,,,,,,,,,,,,,,,,,,,,,,,,,,,,,,
,,,,,WIN24_065,21,female,2024-02-15_16h04.08.229,jersey_experiment_5,2023.2.2,Win32,85.47008547,,,,,,,,,,,,,,,,446.7728,448.5728,448.5728,450.9492,return,0.3439,,73.95833333,,,,,,FBP-RB-91.png,0.4,1.2,28,1,0,47,47,27,1,,,,,,,,,,,,,,,,,,,,,,,,,,,,,,,,,,,,,,,,
,,,,,WIN24_065,21,female,2024-02-15_16h04.08.229,jersey_experiment_5,2023.2.2,Win32,85.47008547,,,,,,,,,,,,,,,,450.9495,452.7494,452.7495,454.5377,return,1.1627,,95.05208333,,,,,,FBP-YG-18.png,0.45,1.2,40,1,0,48,48,39,1,,,,,,,,,,,,,,,,,,,,,,,,,,,,,,,,,,,,,,,,
,,,,,WIN24_065,21,female,2024-02-15_16h04.08.229,jersey_experiment_5,2023.2.2,Win32,85.47008547,,,,,,,,,,,,,,,,454.5379,455.8317,455.8317,458.4554,return,1.0364,,43.09895833,,,,,,FBP-OG-19.png,0.37,1.2,12,0.5,0,49,49,11,1,,,,,,,,,,,,,,,,,,,,,,,,,,,,,,,,,,,,,,,,
,,,,,WIN24_065,21,female,2024-02-15_16h04.08.229,jersey_experiment_5,2023.2.2,Win32,85.47008547,,,,,,,,,,,,,,,,458.4556,459.7496,459.7496,461.3615,return,0.2268,,63.671875,,,,,,FBP-OG-18.png,0.4,1.2,8,0.5,0,50,50,7,1,,,,,,,,,,,,,,,,,,,,,,,,,,,,,,,,,,,,,,,,
,,,,,WIN24_065,21,female,2024-02-15_16h04.08.229,jersey_experiment_5,2023.2.2,Win32,85.47008547,,,,,,,,,,,,,,,,461.3616,462.6555,462.6555,464.5029,return,0.2724,,97.265625,,,,,,FBP-PT-81.png,0.45,1.2,55,0.5,0,51,51,54,1,,,,,,,,,,,,,,,,,,,,,,,,,,,,,,,,,,,,,,,,
,,,,,WIN24_065,21,female,2024-02-15_16h04.08.229,jersey_experiment_5,2023.2.2,Win32,85.47008547,,,,,,,,,,,,,,,,464.503,465.7967,465.7968,468.7029,return,0.9961,,48.95833333,,,,,,FBP-OG-17.png,0.37,1.2,2,0.5,0,52,52,1,1,,,,,,,,,,,,,,,,,,,,,,,,,,,,,,,,,,,,,,,,
,,,,,WIN24_065,21,female,2024-02-15_16h04.08.229,jersey_experiment_5,2023.2.2,Win32,85.47008547,,,,,,,,,,,,,,,,468.7031,470.503,470.503,471.6561,return,0.212,,62.63020833,,,,,,FBP-YG-19.png,0.43,1.2,44,1,0,53,53,43,1,,,,,,,,,,,,,,,,,,,,,,,,,,,,,,,,,,,,,,,,
,,,,,WIN24_065,21,female,2024-02-15_16h04.08.229,jersey_experiment_5,2023.2.2,Win32,85.47008547,,,,,,,,,,,,,,,,471.6564,472.9501,472.9501,474.4562,return,0.1878,,37.5,,,,,,FBP-OG-17.png,0.35,1.2,1,0.5,0,54,54,0,1,,,,,,,,,,,,,,,,,,,,,,,,,,,,,,,,,,,,,,,,
,,,,,WIN24_065,21,female,2024-02-15_16h04.08.229,jersey_experiment_5,2023.2.2,Win32,85.47008547,,,,,,,,,,,,,,,,474.4564,475.7501,475.7501,477.6092,return,0.7893,,36.45833333,,,,,,FBP-PT-81.png,0.35,1.2,51,0.5,0,55,55,50,1,,,,,,,,,,,,,,,,,,,,,,,,,,,,,,,,,,,,,,,,
,,,,,WIN24_065,21,female,2024-02-15_16h04.08.229,jersey_experiment_5,2023.2.2,Win32,85.47008547,,,,,,,,,,,,,,,,477.6094,479.4093,479.4093,480.8799,return,0.231,,94.01041667,,,,,,FBP-RB-81.png,0.43,1.2,24,1,0,56,56,23,1,,,,,,,,,,,,,,,,,,,,,,,,,,,,,,,,,,,,,,,,
,,,,,WIN24_065,21,female,2024-02-15_16h04.08.229,jersey_experiment_5,2023.2.2,Win32,85.47008547,,,,,,,,,,,,,,,,480.88,482.1739,482.1739,485.0329,return,0.1889,,75.13020833,,,,,,FBP-OG-17.png,0.4,1.2,3,0.5,0,57,57,2,1,,,,,,,,,,,,,,,,,,,,,,,,,,,,,,,,,,,,,,,,
,,,,,WIN24_065,21,female,2024-02-15_16h04.08.229,jersey_experiment_5,2023.2.2,Win32,85.47008547,,,,,,,,,,,,,,,,485.033,486.833,486.833,488.4097,return,0.3309,,74.86979167,,,,,,FBP-RB-81.png,0.37,1.2,22,1,0,58,58,21,1,,,,,,,,,,,,,,,,,,,,,,,,,,,,,,,,,,,,,,,,
,,,,,WIN24_065,21,female,2024-02-15_16h04.08.229,jersey_experiment_5,2023.2.2,Win32,85.47008547,,,,,,,,,,,,,,,,488.41,489.7036,489.7036,490.9037,return,0.2032,,86.06770833,,,,,,FBP-OG-17.png,0.43,1.2,4,0.5,0,59,59,3,1,,,,,,,,,,,,,,,,,,,,,,,,,,,,,,,,,,,,,,,,
,,,,,WIN24_065,21,female,2024-02-15_16h04.08.229,jersey_experiment_5,2023.2.2,Win32,85.47008547,,,,,,,,,,,,,,,,,,,,,,,,,,,,,,,,,,,,,,,490.9041,610.9084,,,,,,,,,,,,,,,,,,,,,,,,,,,,,,,,,,,,,,
,,,,,WIN24_065,21,female,2024-02-15_16h04.08.229,jersey_experiment_5,2023.2.2,Win32,85.47008547,,,,,,,,,,,,,,,,,,,,,,,,,,,,,,,,,,,,,,,,,610.9085,627.815,return,16.8947,,,,,,,,,,,,,,,,,,,,,,,,,,,,,,,,,,
,,,,,WIN24_065,21,female,2024-02-15_16h04.08.229,jersey_experiment_5,2023.2.2,Win32,85.47008547,,,,,,,,,,,,,,,,627.8211,629.1206,629.1207,638.7446,return,2.6339,,83.85416667,,,,,,FBP-YG-91.png,0.45,1.2,45,0.5,,,,,,,,,,,,,0,0,0,44,1,,,,,,,,,,,,,,,,,,,,,,,,,,,,
,,,,,WIN24_065,21,female,2024-02-15_16h04.08.229,jersey_experiment_5,2023.2.2,Win32,85.47008547,,,,,,,,,,,,,,,,638.7449,640.5447,640.5447,642.8035,return,1.2033,,87.76041667,,,,,,FBP-PT-17.png,0.45,1.2,50,1,,,,,,,,,,,,,0,1,1,49,1,,,,,,,,,,,,,,,,,,,,,,,,,,,,
,,,,,WIN24_065,21,female,2024-02-15_16h04.08.229,jersey_experiment_5,2023.2.2,Win32,85.47008547,,,,,,,,,,,,,,,,642.8038,644.0976,644.0976,646.8624,return,0.6881,,9.244791667,,,,,,FBP-RB-19.png,0.35,1.2,26,0.5,,,,,,,,,,,,,0,2,2,25,1,,,,,,,,,,,,,,,,,,,,,,,,,,,,
,,,,,WIN24_065,21,female,2024-02-15_16h04.08.229,jersey_experiment_5,2023.2.2,Win32,85.47008547,,,,,,,,,,,,,,,,646.8626,648.1566,648.1566,650.7096,return,0.6365,,49.86979167,,,,,,FBP-RB-17.png,0.37,1.2,17,0.5,,,,,,,,,,,,,0,3,3,16,1,,,,,,,,,,,,,,,,,,,,,,,,,,,,
,,,,,WIN24_065,21,female,2024-02-15_16h04.08.229,jersey_experiment_5,2023.2.2,Win32,85.47008547,,,,,,,,,,,,,,,,650.7098,652.0037,652.0038,654.0039,return,0.897,,24.34895833,,,,,,FBP-RB-17.png,0.35,1.2,16,0.5,,,,,,,,,,,,,0,4,4,15,1,,,,,,,,,,,,,,,,,,,,,,,,,,,,
,,,,,WIN24_065,21,female,2024-02-15_16h04.08.229,jersey_experiment_5,2023.2.2,Win32,85.47008547,,,,,,,,,,,,,,,,654.0041,655.804,655.8041,657.4746,return,0.7219,,99.609375,,,,,,FBP-PT-18.png,0.45,1.2,55,1,,,,,,,,,,,,,0,5,5,54,1,,,,,,,,,,,,,,,,,,,,,,,,,,,,
,,,,,WIN24_065,21,female,2024-02-15_16h04.08.229,jersey_experiment_5,2023.2.2,Win32,85.47008547,,,,,,,,,,,,,,,,657.4748,659.2747,659.2747,661.8866,return,1.8671,,68.22916667,,,,,,FBP-PT-19.png,0.37,1.2,57,1,,,,,,,,,,,,,0,6,6,56,1,,,,,,,,,,,,,,,,,,,,,,,,,,,,
,,,,,WIN24_065,21,female,2024-02-15_16h04.08.229,jersey_experiment_5,2023.2.2,Win32,85.47008547,,,,,,,,,,,,,,,,661.8869,663.1807,663.1807,665.6867,return,0.9314,,71.35416667,,,,,,FBP-YG-81.png,0.37,1.2,37,0.5,,,,,,,,,,,,,0,7,7,36,1,,,,,,,,,,,,,,,,,,,,,,,,,,,,
,,,,,WIN24_065,21,female,2024-02-15_16h04.08.229,jersey_experiment_5,2023.2.2,Win32,85.47008547,,,,,,,,,,,,,,,,665.6869,667.4867,667.4868,671.0162,return,2.5649,,70.44270833,,,,,,FBP-PT-18.png,0.35,1.2,51,1,,,,,,,,,,,,,0,8,8,50,1,,,,,,,,,,,,,,,,,,,,,,,,,,,,
,,,,,WIN24_065,21,female,2024-02-15_16h04.08.229,jersey_experiment_5,2023.2.2,Win32,85.47008547,,,,,,,,,,,,,,,,671.0165,672.8163,672.8163,675.5223,return,0.9443,,70.18229167,,,,,,FBP-OG-71.png,0.35,1.2,1,1,,,,,,,,,,,,,0,9,9,0,1,,,,,,,,,,,,,,,,,,,,,,,,,,,,
,,,,,WIN24_065,21,female,2024-02-15_16h04.08.229,jersey_experiment_5,2023.2.2,Win32,85.47008547,,,,,,,,,,,,,,,,675.5225,677.3224,677.3224,678.7696,return,0.7336,,80.20833333,,,,,,FBP-OG-71.png,0.4,1.2,3,1,,,,,,,,,,,,,0,10,10,2,1,,,,,,,,,,,,,,,,,,,,,,,,,,,,
,,,,,WIN24_065,21,female,2024-02-15_16h04.08.229,jersey_experiment_5,2023.2.2,Win32,85.47008547,,,,,,,,,,,,,,,,678.7698,680.5697,680.5697,682.6166,return,0.8105,,79.03645833,,,,,,FBP-OG-81.png,0.4,1.2,8,1,,,,,,,,,,,,,0,11,11,7,1,,,,,,,,,,,,,,,,,,,,,,,,,,,,
,,,,,WIN24_065,21,female,2024-02-15_16h04.08.229,jersey_experiment_5,2023.2.2,Win32,85.47008547,,,,,,,,,,,,,,,,682.6169,683.9109,683.9109,685.7579,return,0.6796,,97.13541667,,,,,,FBP-RB-19.png,0.45,1.2,30,0.5,,,,,,,,,,,,,0,12,12,29,1,,,,,,,,,,,,,,,,,,,,,,,,,,,,
,,,,,WIN24_065,21,female,2024-02-15_16h04.08.229,jersey_experiment_5,2023.2.2,Win32,85.47008547,,,,,,,,,,,,,,,,685.7581,687.0522,687.0522,689.2875,return,0.6824,,75,,,,,,FBP-RB-19.png,0.4,1.2,28,0.5,,,,,,,,,,,,,0,13,13,27,1,,,,,,,,,,,,,,,,,,,,,,,,,,,,
,,,,,WIN24_065,21,female,2024-02-15_16h04.08.229,jersey_experiment_5,2023.2.2,Win32,85.47008547,,,,,,,,,,,,,,,,689.2878,691.0876,691.0876,692.5935,return,0.7209,,75,,,,,,FBP-OG-91.png,0.4,1.2,13,1,,,,,,,,,,,,,0,14,14,12,1,,,,,,,,,,,,,,,,,,,,,,,,,,,,
,,,,,WIN24_065,21,female,2024-02-15_16h04.08.229,jersey_experiment_5,2023.2.2,Win32,85.47008547,,,,,,,,,,,,,,,,692.5937,694.3936,694.3936,695.9232,return,0.6604,,93.88020833,,,,,,FBP-OG-71.png,0.43,1.2,4,1,,,,,,,,,,,,,0,15,15,3,1,,,,,,,,,,,,,,,,,,,,,,,,,,,,
,,,,,WIN24_065,21,female,2024-02-15_16h04.08.229,jersey_experiment_5,2023.2.2,Win32,85.47008547,,,,,,,,,,,,,,,,695.9234,697.7231,697.7231,699.0878,return,0.7701,,93.88020833,,,,,,FBP-OG-91.png,0.43,1.2,14,1,,,,,,,,,,,,,0,16,16,13,1,,,,,,,,,,,,,,,,,,,,,,,,,,,,
,,,,,WIN24_065,21,female,2024-02-15_16h04.08.229,jersey_experiment_5,2023.2.2,Win32,85.47008547,,,,,,,,,,,,,,,,699.0881,700.8879,700.888,703.3469,return,0.6497,,61.328125,,,,,,FBP-PT-18.png,0.37,1.2,52,1,,,,,,,,,,,,,0,17,17,51,1,,,,,,,,,,,,,,,,,,,,,,,,,,,,
,,,,,WIN24_065,21,female,2024-02-15_16h04.08.229,jersey_experiment_5,2023.2.2,Win32,85.47008547,,,,,,,,,,,,,,,,703.347,704.641,704.641,706.2646,return,0.9745,,61.328125,,,,,,FBP-YG-81.png,0.35,1.2,36,0.5,,,,,,,,,,,,,0,18,18,35,1,,,,,,,,,,,,,,,,,,,,,,,,,,,,
,,,,,WIN24_065,21,female,2024-02-15_16h04.08.229,jersey_experiment_5,2023.2.2,Win32,85.47008547,,,,,,,,,,,,,,,,706.2648,708.0647,708.0648,709.6059,return,0.6832,,68.09895833,,,,,,FBP-PT-17.png,0.37,1.2,47,1,,,,,,,,,,,,,0,19,19,46,1,,,,,,,,,,,,,,,,,,,,,,,,,,,,
,,,,,WIN24_065,21,female,2024-02-15_16h04.08.229,jersey_experiment_5,2023.2.2,Win32,85.47008547,,,,,,,,,,,,,,,,709.6062,711.406,711.406,713.6649,return,0.6765,,66.14583333,,,,,,FBP-OG-81.png,0.37,1.2,7,1,,,,,,,,,,,,,0,20,20,6,1,,,,,,,,,,,,,,,,,,,,,,,,,,,,
,,,,,WIN24_065,21,female,2024-02-15_16h04.08.229,jersey_experiment_5,2023.2.2,Win32,85.47008547,,,,,,,,,,,,,,,,713.6652,714.9591,714.9592,716.9122,return,0.6072,,95.57291667,,,,,,FBP-YG-81.png,0.45,1.2,40,0.5,,,,,,,,,,,,,0,21,21,39,1,,,,,,,,,,,,,,,,,,,,,,,,,,,,
,,,,,WIN24_065,21,female,2024-02-15_16h04.08.229,jersey_experiment_5,2023.2.2,Win32,85.47008547,,,,,,,,,,,,,,,,716.9124,718.2062,718.2062,719.5591,return,0.5753,,97.13541667,,,,,,FBP-YG-91.png,0.43,1.2,44,0.5,,,,,,,,,,,,,0,22,22,43,1,,,,,,,,,,,,,,,,,,,,,,,,,,,,
,,,,,WIN24_065,21,female,2024-02-15_16h04.08.229,jersey_experiment_5,2023.2.2,Win32,85.47008547,,,,,,,,,,,,,,,,719.5594,720.8534,720.8534,722.7359,return,0.572,,74.21875,,,,,,FBP-YG-91.png,0.35,1.2,41,0.5,,,,,,,,,,,,,0,23,23,40,1,,,,,,,,,,,,,,,,,,,,,,,,,,,,
,,,,,WIN24_065,21,female,2024-02-15_16h04.08.229,jersey_experiment_5,2023.2.2,Win32,85.47008547,,,,,,,,,,,,,,,,722.7361,724.5359,724.536,725.6653,return,0.7235,,73.828125,,,,,,FBP-PT-17.png,0.4,1.2,48,1,,,,,,,,,,,,,0,24,24,47,1,,,,,,,,,,,,,,,,,,,,,,,,,,,,
,,,,,WIN24_065,21,female,2024-02-15_16h04.08.229,jersey_experiment_5,2023.2.2,Win32,85.47008547,,,,,,,,,,,,,,,,725.6656,726.9596,726.9596,728.3125,return,0.5415,,80.98958333,,,,,,FBP-RB-17.png,0.4,1.2,18,0.5,,,,,,,,,,,,,0,25,25,17,1,,,,,,,,,,,,,,,,,,,,,,,,,,,,
,,,,,WIN24_065,21,female,2024-02-15_16h04.08.229,jersey_experiment_5,2023.2.2,Win32,85.47008547,,,,,,,,,,,,,,,,728.3127,730.1124,730.1125,731.6301,return,0.6065,,68.88020833,,,,,,FBP-PT-19.png,0.35,1.2,56,1,,,,,,,,,,,,,0,26,26,55,1,,,,,,,,,,,,,,,,,,,,,,,,,,,,
,,,,,WIN24_065,21,female,2024-02-15_16h04.08.229,jersey_experiment_5,2023.2.2,Win32,85.47008547,,,,,,,,,,,,,,,,731.6305,733.4304,733.4305,734.7246,return,0.5787,,87.890625,,,,,,FBP-PT-19.png,0.45,1.2,60,1,,,,,,,,,,,,,0,27,27,59,1,,,,,,,,,,,,,,,,,,,,,,,,,,,,
,,,,,WIN24_065,21,female,2024-02-15_16h04.08.229,jersey_experiment_5,2023.2.2,Win32,85.47008547,,,,,,,,,,,,,,,,734.7248,736.0187,736.0187,737.9599,return,0.5648,,91.40625,,,,,,FBP-RB-18.png,0.43,1.2,24,0.5,,,,,,,,,,,,,0,28,28,23,1,,,,,,,,,,,,,,,,,,,,,,,,,,,,
,,,,,WIN24_065,21,female,2024-02-15_16h04.08.229,jersey_experiment_5,2023.2.2,Win32,85.47008547,,,,,,,,,,,,,,,,737.9601,739.254,739.2541,741.113,return,0.6825,,75.13020833,,,,,,FBP-YG-71.png,0.37,1.2,32,0.5,,,,,,,,,,,,,0,29,29,31,1,,,,,,,,,,,,,,,,,,,,,,,,,,,,
,,,,,WIN24_065,21,female,2024-02-15_16h04.08.229,jersey_experiment_5,2023.2.2,Win32,85.47008547,,,,,,,,,,,,,,,,741.1132,742.4072,742.4072,744.1131,return,0.6397,,84.50520833,,,,,,FBP-RB-19.png,0.43,1.2,29,0.5,,,,,,,,,,,,,0,30,30,28,1,,,,,,,,,,,,,,,,,,,,,,,,,,,,
,,,,,WIN24_065,21,female,2024-02-15_16h04.08.229,jersey_experiment_5,2023.2.2,Win32,85.47008547,,,,,,,,,,,,,,,,744.1133,745.4073,745.4073,746.8662,return,0.6754,,93.48958333,,,,,,FBP-YG-71.png,0.43,1.2,34,0.5,,,,,,,,,,,,,0,31,31,33,1,,,,,,,,,,,,,,,,,,,,,,,,,,,,
,,,,,WIN24_065,21,female,2024-02-15_16h04.08.229,jersey_experiment_5,2023.2.2,Win32,85.47008547,,,,,,,,,,,,,,,,746.8664,748.6661,748.6661,751.1368,return,1.63,,100,,,,,,FBP-OG-81.png,0.43,1.2,9,1,,,,,,,,,,,,,0,32,32,8,1,,,,,,,,,,,,,,,,,,,,,,,,,,,,
,,,,,WIN24_065,21,female,2024-02-15_16h04.08.229,jersey_experiment_5,2023.2.2,Win32,85.47008547,,,,,,,,,,,,,,,,751.137,752.431,752.431,755.0782,return,1.1299,,67.70833333,,,,,,FBP-YG-91.png,0.4,1.2,43,0.5,,,,,,,,,,,,,0,33,33,42,1,,,,,,,,,,,,,,,,,,,,,,,,,,,,
,,,,,WIN24_065,21,female,2024-02-15_16h04.08.229,jersey_experiment_5,2023.2.2,Win32,85.47008547,,,,,,,,,,,,,,,,755.0785,756.3724,756.3724,758.243,return,0.6026,,49.47916667,,,,,,FBP-RB-18.png,0.35,1.2,21,0.5,,,,,,,,,,,,,0,34,34,20,1,,,,,,,,,,,,,,,,,,,,,,,,,,,,
,,,,,WIN24_065,21,female,2024-02-15_16h04.08.229,jersey_experiment_5,2023.2.2,Win32,85.47008547,,,,,,,,,,,,,,,,758.2432,760.0431,760.0431,762.255,return,0.5844,,75.26041667,,,,,,FBP-OG-91.png,0.45,1.2,15,1,,,,,,,,,,,,,0,35,35,14,1,,,,,,,,,,,,,,,,,,,,,,,,,,,,
,,,,,WIN24_065,21,female,2024-02-15_16h04.08.229,jersey_experiment_5,2023.2.2,Win32,85.47008547,,,,,,,,,,,,,,,,762.2552,764.055,764.0551,766.4669,return,0.6279,,25.52083333,,,,,,FBP-OG-91.png,0.35,1.2,11,1,,,,,,,,,,,,,0,36,36,10,1,,,,,,,,,,,,,,,,,,,,,,,,,,,,
,,,,,WIN24_065,21,female,2024-02-15_16h04.08.229,jersey_experiment_5,2023.2.2,Win32,85.47008547,,,,,,,,,,,,,,,,766.4671,768.2671,768.2671,769.7022,return,0.6219,,73.95833333,,,,,,FBP-PT-17.png,0.43,1.2,49,1,,,,,,,,,,,,,0,37,37,48,1,,,,,,,,,,,,,,,,,,,,,,,,,,,,
,,,,,WIN24_065,21,female,2024-02-15_16h04.08.229,jersey_experiment_5,2023.2.2,Win32,85.47008547,,,,,,,,,,,,,,,,769.7025,771.5025,771.5025,773.0553,return,0.6415,,97.13541667,,,,,,FBP-PT-19.png,0.43,1.2,59,1,,,,,,,,,,,,,0,38,38,58,1,,,,,,,,,,,,,,,,,,,,,,,,,,,,
,,,,,WIN24_065,21,female,2024-02-15_16h04.08.229,jersey_experiment_5,2023.2.2,Win32,85.47008547,,,,,,,,,,,,,,,,773.0555,774.8553,774.8553,776.8672,return,0.6369,,85.546875,,,,,,FBP-PT-18.png,0.43,1.2,54,1,,,,,,,,,,,,,0,39,39,53,1,,,,,,,,,,,,,,,,,,,,,,,,,,,,
,,,,,WIN24_065,21,female,2024-02-15_16h04.08.229,jersey_experiment_5,2023.2.2,Win32,85.47008547,,,,,,,,,,,,,,,,776.8675,778.6672,778.6673,780.2909,return,0.5789,,74.73958333,,,,,,FBP-PT-19.png,0.4,1.2,58,1,,,,,,,,,,,,,0,40,40,57,1,,,,,,,,,,,,,,,,,,,,,,,,,,,,
,,,,,WIN24_065,21,female,2024-02-15_16h04.08.229,jersey_experiment_5,2023.2.2,Win32,85.47008547,,,,,,,,,,,,,,,,780.2912,781.585,781.585,783.2674,return,0.5331,,74.73958333,,,,,,FBP-RB-17.png,0.43,1.2,19,0.5,,,,,,,,,,,,,0,41,41,18,1,,,,,,,,,,,,,,,,,,,,,,,,,,,,
,,,,,WIN24_065,21,female,2024-02-15_16h04.08.229,jersey_experiment_5,2023.2.2,Win32,85.47008547,,,,,,,,,,,,,,,,783.2677,784.5617,784.5617,786.0206,return,0.5552,,87.23958333,,,,,,FBP-YG-71.png,0.45,1.2,35,0.5,,,,,,,,,,,,,0,42,42,34,1,,,,,,,,,,,,,,,,,,,,,,,,,,,,
,,,,,WIN24_065,21,female,2024-02-15_16h04.08.229,jersey_experiment_5,2023.2.2,Win32,85.47008547,,,,,,,,,,,,,,,,786.0208,787.8204,787.8204,791.7973,return,1.9784,,42.96875,,,,,,FBP-PT-17.png,0.35,1.2,46,1,,,,,,,,,,,,,0,43,43,45,1,,,,,,,,,,,,,,,,,,,,,,,,,,,,
,,,,,WIN24_065,21,female,2024-02-15_16h04.08.229,jersey_experiment_5,2023.2.2,Win32,85.47008547,,,,,,,,,,,,,,,,791.7975,793.5971,793.5972,795.3502,return,0.6124,,69.921875,,,,,,FBP-PT-18.png,0.4,1.2,53,1,,,,,,,,,,,,,0,44,44,52,1,,,,,,,,,,,,,,,,,,,,,,,,,,,,
,,,,,WIN24_065,21,female,2024-02-15_16h04.08.229,jersey_experiment_5,2023.2.2,Win32,85.47008547,,,,,,,,,,,,,,,,795.3505,796.6444,796.6444,798.2445,return,0.6006,,74.73958333,,,,,,FBP-YG-81.png,0.43,1.2,39,0.5,,,,,,,,,,,,,0,45,45,38,1,,,,,,,,,,,,,,,,,,,,,,,,,,,,
,,,,,WIN24_065,21,female,2024-02-15_16h04.08.229,jersey_experiment_5,2023.2.2,Win32,85.47008547,,,,,,,,,,,,,,,,798.2447,799.5387,799.5387,800.9152,return,0.6846,,74.73958333,,,,,,FBP-RB-18.png,0.4,1.2,23,0.5,,,,,,,,,,,,,0,46,46,22,1,,,,,,,,,,,,,,,,,,,,,,,,,,,,
,,,,,WIN24_065,21,female,2024-02-15_16h04.08.229,jersey_experiment_5,2023.2.2,Win32,85.47008547,,,,,,,,,,,,,,,,800.9154,802.2093,802.2093,803.633,return,0.5945,,81.11979167,,,,,,FBP-RB-17.png,0.45,1.2,20,0.5,,,,,,,,,,,,,0,47,47,19,1,,,,,,,,,,,,,,,,,,,,,,,,,,,,
,,,,,WIN24_065,21,female,2024-02-15_16h04.08.229,jersey_experiment_5,2023.2.2,Win32,85.47008547,,,,,,,,,,,,,,,,803.6332,804.9271,804.9271,806.4213,return,0.8608,,81.11979167,,,,,,FBP-YG-71.png,0.4,1.2,33,0.5,,,,,,,,,,,,,0,48,48,32,1,,,,,,,,,,,,,,,,,,,,,,,,,,,,
,,,,,WIN24_065,21,female,2024-02-15_16h04.08.229,jersey_experiment_5,2023.2.2,Win32,85.47008547,,,,,,,,,,,,,,,,806.4215,808.2213,808.2214,811.092,return,1.519,,49.86979167,,,,,,FBP-OG-71.png,0.37,1.2,2,1,,,,,,,,,,,,,0,49,49,1,1,,,,,,,,,,,,,,,,,,,,,,,,,,,,
,,,,,WIN24_065,21,female,2024-02-15_16h04.08.229,jersey_experiment_5,2023.2.2,Win32,85.47008547,,,,,,,,,,,,,,,,811.0923,812.8923,812.8923,814.751,return,0.8906,,74.47916667,,,,,,FBP-OG-71.png,0.45,1.2,5,1,,,,,,,,,,,,,0,50,50,4,1,,,,,,,,,,,,,,,,,,,,,,,,,,,,
,,,,,WIN24_065,21,female,2024-02-15_16h04.08.229,jersey_experiment_5,2023.2.2,Win32,85.47008547,,,,,,,,,,,,,,,,814.7513,816.0451,816.0452,817.8923,return,0.7088,,80.72916667,,,,,,FBP-RB-18.png,0.45,1.2,25,0.5,,,,,,,,,,,,,0,51,51,24,1,,,,,,,,,,,,,,,,,,,,,,,,,,,,
,,,,,WIN24_065,21,female,2024-02-15_16h04.08.229,jersey_experiment_5,2023.2.2,Win32,85.47008547,,,,,,,,,,,,,,,,817.8926,819.1864,819.1865,822.069,return,1.0598,,44.140625,,,,,,FBP-YG-71.png,0.35,1.2,31,0.5,,,,,,,,,,,,,0,52,52,30,1,,,,,,,,,,,,,,,,,,,,,,,,,,,,
,,,,,WIN24_065,21,female,2024-02-15_16h04.08.229,jersey_experiment_5,2023.2.2,Win32,85.47008547,,,,,,,,,,,,,,,,822.0691,823.3631,823.3631,825.5044,return,0.993,,54.94791667,,,,,,FBP-RB-19.png,0.37,1.2,27,0.5,,,,,,,,,,,,,0,53,53,26,1,,,,,,,,,,,,,,,,,,,,,,,,,,,,
,,,,,WIN24_065,21,female,2024-02-15_16h04.08.229,jersey_experiment_5,2023.2.2,Win32,85.47008547,,,,,,,,,,,,,,,,825.5046,827.3044,827.3044,829.5752,return,0.5779,,62.5,,,,,,FBP-OG-91.png,0.37,1.2,12,1,,,,,,,,,,,,,0,54,54,11,1,,,,,,,,,,,,,,,,,,,,,,,,,,,,
,,,,,WIN24_065,21,female,2024-02-15_16h04.08.229,jersey_experiment_5,2023.2.2,Win32,85.47008547,,,,,,,,,,,,,,,,829.5754,831.3751,831.3751,833.7988,return,1.3283,,95.83333333,,,,,,FBP-OG-81.png,0.45,1.2,10,1,,,,,,,,,,,,,0,55,55,9,1,,,,,,,,,,,,,,,,,,,,,,,,,,,,
,,,,,WIN24_065,21,female,2024-02-15_16h04.08.229,jersey_experiment_5,2023.2.2,Win32,85.47008547,,,,,,,,,,,,,,,,833.7989,835.0929,835.0929,837.4578,return,0.629,,94.53125,,,,,,FBP-YG-81.png,0.4,1.2,38,0.5,,,,,,,,,,,,,0,56,56,37,1,,,,,,,,,,,,,,,,,,,,,,,,,,,,
,,,,,WIN24_065,21,female,2024-02-15_16h04.08.229,jersey_experiment_5,2023.2.2,Win32,85.47008547,,,,,,,,,,,,,,,,837.4581,838.7519,838.752,840.846,return,1.1603,,75.13020833,,,,,,FBP-YG-91.png,0.37,1.2,42,0.5,,,,,,,,,,,,,0,57,57,41,1,,,,,,,,,,,,,,,,,,,,,,,,,,,,
,,,,,WIN24_065,21,female,2024-02-15_16h04.08.229,jersey_experiment_5,2023.2.2,Win32,85.47008547,,,,,,,,,,,,,,,,840.8462,842.6461,842.6461,844.7992,return,0.8771,,50.390625,,,,,,FBP-OG-81.png,0.35,1.2,6,1,,,,,,,,,,,,,0,58,58,5,1,,,,,,,,,,,,,,,,,,,,,,,,,,,,
,,,,,WIN24_065,21,female,2024-02-15_16h04.08.229,jersey_experiment_5,2023.2.2,Win32,85.47008547,,,,,,,,,,,,,,,,844.7995,846.0934,846.0934,848.5288,return,0.5241,,49.86979167,,,,,,FBP-RB-18.png,0.37,1.2,22,0.5,,,,,,,,,,,,,0,59,59,21,1,,,,,,,,,,,,,,,,,,,,,,,,,,,,
,,,,,WIN24_065,21,female,2024-02-15_16h04.08.229,jersey_experiment_5,2023.2.2,Win32,85.47008547,,,,,,,,,,,,,,,,848.5309,849.8228,849.8228,852.4464,return,1.4788,,73.95833333,,,,,,FBP-YG-19.png,0.43,1.2,44,0.5,,,,,,,,,,,,,,,,,,0,0,0,43,1,,,,,,,,,,,,,,,,,,,,,,,
,,,,,WIN24_065,21,female,2024-02-15_16h04.08.229,jersey_experiment_5,2023.2.2,Win32,85.47008547,,,,,,,,,,,,,,,,852.4467,854.2466,854.2466,855.6702,return,0.5415,,81.90104167,,,,,,FBP-PT-71.png,0.4,1.2,48,1,,,,,,,,,,,,,,,,,,0,1,1,47,1,,,,,,,,,,,,,,,,,,,,,,,
,,,,,WIN24_065,21,female,2024-02-15_16h04.08.229,jersey_experiment_5,2023.2.2,Win32,85.47008547,,,,,,,,,,,,,,,,855.6705,857.4702,857.4703,858.6468,return,0.5653,,81.90104167,,,,,,FBP-OG-19.png,0.4,1.2,13,1,,,,,,,,,,,,,,,,,,0,2,2,12,1,,,,,,,,,,,,,,,,,,,,,,,
,,,,,WIN24_065,21,female,2024-02-15_16h04.08.229,jersey_experiment_5,2023.2.2,Win32,85.47008547,,,,,,,,,,,,,,,,858.647,859.9409,859.9409,861.8469,return,0.6224,,71.484375,,,,,,FBP-RB-81.png,0.37,1.2,22,0.5,,,,,,,,,,,,,,,,,,0,3,3,21,1,,,,,,,,,,,,,,,,,,,,,,,
,,,,,WIN24_065,21,female,2024-02-15_16h04.08.229,jersey_experiment_5,2023.2.2,Win32,85.47008547,,,,,,,,,,,,,,,,861.8471,863.141,863.141,865.3764,return,0.6279,,69.66145833,,,,,,FBP-RB-71.png,0.37,1.2,17,0.5,,,,,,,,,,,,,,,,,,0,4,4,16,1,,,,,,,,,,,,,,,,,,,,,,,
,,,,,WIN24_065,21,female,2024-02-15_16h04.08.229,jersey_experiment_5,2023.2.2,Win32,85.47008547,,,,,,,,,,,,,,,,865.3766,866.6706,866.6706,868.4354,return,0.7905,,76.171875,,,,,,FBP-YG-19.png,0.4,1.2,43,0.5,,,,,,,,,,,,,,,,,,0,5,5,42,1,,,,,,,,,,,,,,,,,,,,,,,
,,,,,WIN24_065,21,female,2024-02-15_16h04.08.229,jersey_experiment_5,2023.2.2,Win32,85.47008547,,,,,,,,,,,,,,,,868.4356,869.7296,869.7296,871.4944,return,0.7164,,90.36458333,,,,,,FBP-RB-71.png,0.45,1.2,20,0.5,,,,,,,,,,,,,,,,,,0,6,6,19,1,,,,,,,,,,,,,,,,,,,,,,,
,,,,,WIN24_065,21,female,2024-02-15_16h04.08.229,jersey_experiment_5,2023.2.2,Win32,85.47008547,,,,,,,,,,,,,,,,871.4946,873.2943,873.2943,875.1415,return,0.637,,98.17708333,,,,,,FBP-OG-18.png,0.45,1.2,10,1,,,,,,,,,,,,,,,,,,0,7,7,9,1,,,,,,,,,,,,,,,,,,,,,,,
,,,,,WIN24_065,21,female,2024-02-15_16h04.08.229,jersey_experiment_5,2023.2.2,Win32,85.47008547,,,,,,,,,,,,,,,,875.1418,876.9416,876.9416,879.4005,return,0.5748,,49.609375,,,,,,FBP-OG-19.png,0.37,1.2,12,1,,,,,,,,,,,,,,,,,,0,8,8,11,1,,,,,,,,,,,,,,,,,,,,,,,
,,,,,WIN24_065,21,female,2024-02-15_16h04.08.229,jersey_experiment_5,2023.2.2,Win32,85.47008547,,,,,,,,,,,,,,,,879.4007,881.2006,881.2006,882.8006,return,0.6771,,43.09895833,,,,,,FBP-PT-71.png,0.37,1.2,47,1,,,,,,,,,,,,,,,,,,0,9,9,46,1,,,,,,,,,,,,,,,,,,,,,,,
,,,,,WIN24_065,21,female,2024-02-15_16h04.08.229,jersey_experiment_5,2023.2.2,Win32,85.47008547,,,,,,,,,,,,,,,,882.8008,884.0948,884.0949,886.5656,return,0.6018,,63.54166667,,,,,,FBP-RB-91.png,0.4,1.2,28,0.5,,,,,,,,,,,,,,,,,,0,10,10,27,1,,,,,,,,,,,,,,,,,,,,,,,
,,,,,WIN24_065,21,female,2024-02-15_16h04.08.229,jersey_experiment_5,2023.2.2,Win32,85.47008547,,,,,,,,,,,,,,,,886.5657,888.3655,888.3655,889.5773,return,0.7439,,63.54166667,,,,,,FBP-PT-91.png,0.37,1.2,57,1,,,,,,,,,,,,,,,,,,0,11,11,56,1,,,,,,,,,,,,,,,,,,,,,,,
,,,,,WIN24_065,21,female,2024-02-15_16h04.08.229,jersey_experiment_5,2023.2.2,Win32,85.47008547,,,,,,,,,,,,,,,,889.5776,891.3776,891.3776,892.7069,return,0.722,,50.52083333,,,,,,FBP-OG-18.png,0.35,1.2,6,1,,,,,,,,,,,,,,,,,,0,12,12,5,1,,,,,,,,,,,,,,,,,,,,,,,
,,,,,WIN24_065,21,female,2024-02-15_16h04.08.229,jersey_experiment_5,2023.2.2,Win32,85.47008547,,,,,,,,,,,,,,,,892.707,894.5069,894.5069,895.5893,return,0.5664,,50.52083333,,,,,,FBP-OG-17.png,0.37,1.2,2,1,,,,,,,,,,,,,,,,,,0,13,13,1,1,,,,,,,,,,,,,,,,,,,,,,,
,,,,,WIN24_065,21,female,2024-02-15_16h04.08.229,jersey_experiment_5,2023.2.2,Win32,85.47008547,,,,,,,,,,,,,,,,895.5895,896.8834,896.8834,898.8719,return,0.9648,,50.52083333,,,,,,FBP-YG-19.png,0.37,1.2,42,0.5,,,,,,,,,,,,,,,,,,0,14,14,41,1,,,,,,,,,,,,,,,,,,,,,,,
,,,,,WIN24_065,21,female,2024-02-15_16h04.08.229,jersey_experiment_5,2023.2.2,Win32,85.47008547,,,,,,,,,,,,,,,,898.8721,900.1658,900.1658,901.8249,return,1.1824,,50.52083333,,,,,,FBP-YG-17.png,0.37,1.2,32,0.5,,,,,,,,,,,,,,,,,,0,15,15,31,1,,,,,,,,,,,,,,,,,,,,,,,
,,,,,WIN24_065,21,female,2024-02-15_16h04.08.229,jersey_experiment_5,2023.2.2,Win32,85.47008547,,,,,,,,,,,,,,,,901.825,903.625,903.625,905.7426,return,0.6892,,75,,,,,,FBP-OG-17.png,0.43,1.2,4,1,,,,,,,,,,,,,,,,,,0,16,16,3,1,,,,,,,,,,,,,,,,,,,,,,,
,,,,,WIN24_065,21,female,2024-02-15_16h04.08.229,jersey_experiment_5,2023.2.2,Win32,85.47008547,,,,,,,,,,,,,,,,905.7428,907.0368,907.0368,908.6604,return,0.6496,,87.890625,,,,,,FBP-YG-18.png,0.43,1.2,39,0.5,,,,,,,,,,,,,,,,,,0,17,17,38,1,,,,,,,,,,,,,,,,,,,,,,,
,,,,,WIN24_065,21,female,2024-02-15_16h04.08.229,jersey_experiment_5,2023.2.2,Win32,85.47008547,,,,,,,,,,,,,,,,908.6606,910.4604,910.4604,912.6017,return,0.9882,,24.47916667,,,,,,FBP-OG-17.png,0.35,1.2,1,1,,,,,,,,,,,,,,,,,,0,18,18,0,1,,,,,,,,,,,,,,,,,,,,,,,
,,,,,WIN24_065,21,female,2024-02-15_16h04.08.229,jersey_experiment_5,2023.2.2,Win32,85.47008547,,,,,,,,,,,,,,,,912.6018,913.8959,913.8959,915.5548,return,0.5807,,74.08854167,,,,,,FBP-RB-71.png,0.43,1.2,19,0.5,,,,,,,,,,,,,,,,,,0,19,19,18,1,,,,,,,,,,,,,,,,,,,,,,,
,,,,,WIN24_065,21,female,2024-02-15_16h04.08.229,jersey_experiment_5,2023.2.2,Win32,85.47008547,,,,,,,,,,,,,,,,915.5551,917.3548,917.3548,918.9314,return,0.5917,,65.36458333,,,,,,FBP-PT-81.png,0.35,1.2,51,1,,,,,,,,,,,,,,,,,,0,20,20,50,1,,,,,,,,,,,,,,,,,,,,,,,
,,,,,WIN24_065,21,female,2024-02-15_16h04.08.229,jersey_experiment_5,2023.2.2,Win32,85.47008547,,,,,,,,,,,,,,,,918.9316,920.7314,920.7315,922.2139,return,0.777,,91.27604167,,,,,,FBP-PT-81.png,0.45,1.2,55,1,,,,,,,,,,,,,,,,,,0,21,21,54,1,,,,,,,,,,,,,,,,,,,,,,,
,,,,,WIN24_065,21,female,2024-02-15_16h04.08.229,jersey_experiment_5,2023.2.2,Win32,85.47008547,,,,,,,,,,,,,,,,922.2142,923.508,923.508,926.1317,return,0.7562,,53.25520833,,,,,,FBP-YG-17.png,0.35,1.2,31,0.5,,,,,,,,,,,,,,,,,,0,22,22,30,1,,,,,,,,,,,,,,,,,,,,,,,
,,,,,WIN24_065,21,female,2024-02-15_16h04.08.229,jersey_experiment_5,2023.2.2,Win32,85.47008547,,,,,,,,,,,,,,,,926.1319,927.9317,927.9318,930.4377,return,0.5992,,45.18229167,,,,,,FBP-OG-19.png,0.35,1.2,11,1,,,,,,,,,,,,,,,,,,0,23,23,10,1,,,,,,,,,,,,,,,,,,,,,,,
,,,,,WIN24_065,21,female,2024-02-15_16h04.08.229,jersey_experiment_5,2023.2.2,Win32,85.47008547,,,,,,,,,,,,,,,,930.4379,931.7318,931.7319,934.179,return,0.6029,,49.34895833,,,,,,FBP-YG-18.png,0.37,1.2,37,0.5,,,,,,,,,,,,,,,,,,0,24,24,36,1,,,,,,,,,,,,,,,,,,,,,,,
,,,,,WIN24_065,21,female,2024-02-15_16h04.08.229,jersey_experiment_5,2023.2.2,Win32,85.47008547,,,,,,,,,,,,,,,,934.1793,935.9791,935.9792,938.1439,return,0.6633,,50.26041667,,,,,,FBP-PT-91.png,0.4,1.2,58,1,,,,,,,,,,,,,,,,,,0,25,25,57,1,,,,,,,,,,,,,,,,,,,,,,,
,,,,,WIN24_065,21,female,2024-02-15_16h04.08.229,jersey_experiment_5,2023.2.2,Win32,85.47008547,,,,,,,,,,,,,,,,938.1441,939.438,939.438,941.7792,return,1.4389,,46.74479167,,,,,,FBP-YG-18.png,0.35,1.2,36,0.5,,,,,,,,,,,,,,,,,,0,26,26,35,1,,,,,,,,,,,,,,,,,,,,,,,
,,,,,WIN24_065,21,female,2024-02-15_16h04.08.229,jersey_experiment_5,2023.2.2,Win32,85.47008547,,,,,,,,,,,,,,,,941.7795,943.5794,943.5794,945.5676,return,0.5719,,11.328125,,,,,,FBP-PT-71.png,0.35,1.2,46,1,,,,,,,,,,,,,,,,,,0,27,27,45,1,,,,,,,,,,,,,,,,,,,,,,,
,,,,,WIN24_065,21,female,2024-02-15_16h04.08.229,jersey_experiment_5,2023.2.2,Win32,85.47008547,,,,,,,,,,,,,,,,945.5679,947.3677,947.3677,950.8149,return,0.607,,49.47916667,,,,,,FBP-OG-18.png,0.4,1.2,8,1,,,,,,,,,,,,,,,,,,0,28,28,7,1,,,,,,,,,,,,,,,,,,,,,,,
,,,,,WIN24_065,21,female,2024-02-15_16h04.08.229,jersey_experiment_5,2023.2.2,Win32,85.47008547,,,,,,,,,,,,,,,,950.8152,952.6152,952.6152,953.9561,return,0.659,,94.27083333,,,,,,FBP-OG-17.png,0.45,1.2,5,1,,,,,,,,,,,,,,,,,,0,29,29,4,1,,,,,,,,,,,,,,,,,,,,,,,
,,,,,WIN24_065,21,female,2024-02-15_16h04.08.229,jersey_experiment_5,2023.2.2,Win32,85.47008547,,,,,,,,,,,,,,,,953.9563,955.2503,955.2503,956.8975,return,0.5453,,75,,,,,,FBP-YG-19.png,0.35,1.2,41,0.5,,,,,,,,,,,,,,,,,,0,30,30,40,1,,,,,,,,,,,,,,,,,,,,,,,
,,,,,WIN24_065,21,female,2024-02-15_16h04.08.229,jersey_experiment_5,2023.2.2,Win32,85.47008547,,,,,,,,,,,,,,,,956.8978,958.6976,958.6976,960.4152,return,0.5123,,93.88020833,,,,,,FBP-PT-91.png,0.45,1.2,60,1,,,,,,,,,,,,,,,,,,0,31,31,59,1,,,,,,,,,,,,,,,,,,,,,,,
,,,,,WIN24_065,21,female,2024-02-15_16h04.08.229,jersey_experiment_5,2023.2.2,Win32,85.47008547,,,,,,,,,,,,,,,,960.4154,961.7094,961.7094,963.2035,return,0.5562,,98.828125,,,,,,FBP-YG-18.png,0.45,1.2,40,0.5,,,,,,,,,,,,,,,,,,0,32,32,39,1,,,,,,,,,,,,,,,,,,,,,,,
,,,,,WIN24_065,21,female,2024-02-15_16h04.08.229,jersey_experiment_5,2023.2.2,Win32,85.47008547,,,,,,,,,,,,,,,,963.2038,965.0036,965.0036,967.039,return,0.6183,,73.046875,,,,,,FBP-PT-91.png,0.35,1.2,56,1,,,,,,,,,,,,,,,,,,0,33,33,55,1,,,,,,,,,,,,,,,,,,,,,,,
,,,,,WIN24_065,21,female,2024-02-15_16h04.08.229,jersey_experiment_5,2023.2.2,Win32,85.47008547,,,,,,,,,,,,,,,,967.0392,968.3333,968.3333,969.945,return,0.612,,75.78125,,,,,,FBP-RB-81.png,0.4,1.2,23,0.5,,,,,,,,,,,,,,,,,,0,34,34,22,1,,,,,,,,,,,,,,,,,,,,,,,
,,,,,WIN24_065,21,female,2024-02-15_16h04.08.229,jersey_experiment_5,2023.2.2,Win32,85.47008547,,,,,,,,,,,,,,,,969.9452,971.2392,971.2392,972.4627,return,0.6204,,88.54166667,,,,,,FBP-YG-19.png,0.45,1.2,45,0.5,,,,,,,,,,,,,,,,,,0,35,35,44,1,,,,,,,,,,,,,,,,,,,,,,,
,,,,,WIN24_065,21,female,2024-02-15_16h04.08.229,jersey_experiment_5,2023.2.2,Win32,85.47008547,,,,,,,,,,,,,,,,972.4629,974.2629,974.2629,975.3923,return,0.4991,,99.73958333,,,,,,FBP-PT-71.png,0.43,1.2,49,1,,,,,,,,,,,,,,,,,,0,36,36,48,1,,,,,,,,,,,,,,,,,,,,,,,
,,,,,WIN24_065,21,female,2024-02-15_16h04.08.229,jersey_experiment_5,2023.2.2,Win32,85.47008547,,,,,,,,,,,,,,,,975.3925,977.1923,977.1923,981.4866,return,1.0894,,67.96875,,,,,,FBP-OG-17.png,0.4,1.2,3,1,,,,,,,,,,,,,,,,,,0,37,37,2,1,,,,,,,,,,,,,,,,,,,,,,,
,,,,,WIN24_065,21,female,2024-02-15_16h04.08.229,jersey_experiment_5,2023.2.2,Win32,85.47008547,,,,,,,,,,,,,,,,981.4869,982.7809,982.7809,985.1221,return,0.8991,,74.08854167,,,,,,FBP-YG-17.png,0.43,1.2,34,0.5,,,,,,,,,,,,,,,,,,0,38,38,33,1,,,,,,,,,,,,,,,,,,,,,,,
,,,,,WIN24_065,21,female,2024-02-15_16h04.08.229,jersey_experiment_5,2023.2.2,Win32,85.47008547,,,,,,,,,,,,,,,,985.1222,986.4163,986.4164,987.5104,return,0.5179,,94.921875,,,,,,FBP-RB-81.png,0.45,1.2,25,0.5,,,,,,,,,,,,,,,,,,0,39,39,24,1,,,,,,,,,,,,,,,,,,,,,,,
,,,,,WIN24_065,21,female,2024-02-15_16h04.08.229,jersey_experiment_5,2023.2.2,Win32,85.47008547,,,,,,,,,,,,,,,,987.5107,988.8045,988.8045,992.1694,return,0.5649,,50.390625,,,,,,FBP-RB-71.png,0.35,1.2,16,0.5,,,,,,,,,,,,,,,,,,0,40,40,15,1,,,,,,,,,,,,,,,,,,,,,,,
,,,,,WIN24_065,21,female,2024-02-15_16h04.08.229,jersey_experiment_5,2023.2.2,Win32,85.47008547,,,,,,,,,,,,,,,,992.1695,993.9694,993.9695,995.8401,return,0.9834,,64.453125,,,,,,FBP-PT-81.png,0.37,1.2,52,1,,,,,,,,,,,,,,,,,,0,41,41,51,1,,,,,,,,,,,,,,,,,,,,,,,
,,,,,WIN24_065,21,female,2024-02-15_16h04.08.229,jersey_experiment_5,2023.2.2,Win32,85.47008547,,,,,,,,,,,,,,,,995.8404,997.6402,997.6402,999.1578,return,0.6489,,92.31770833,,,,,,FBP-OG-18.png,0.43,1.2,9,1,,,,,,,,,,,,,,,,,,0,42,42,8,1,,,,,,,,,,,,,,,,,,,,,,,
,,,,,WIN24_065,21,female,2024-02-15_16h04.08.229,jersey_experiment_5,2023.2.2,Win32,85.47008547,,,,,,,,,,,,,,,,999.1581,1000.4521,1000.4521,1002.1111,return,0.5823,,99.34895833,,,,,,FBP-RB-81.png,0.43,1.2,24,0.5,,,,,,,,,,,,,,,,,,0,43,43,23,1,,,,,,,,,,,,,,,,,,,,,,,
,,,,,WIN24_065,21,female,2024-02-15_16h04.08.229,jersey_experiment_5,2023.2.2,Win32,85.47008547,,,,,,,,,,,,,,,,1002.1113,1003.405,1003.4051,1005.311,return,0.5728,,85.02604167,,,,,,FBP-RB-71.png,0.4,1.2,18,0.5,,,,,,,,,,,,,,,,,,0,44,44,17,1,,,,,,,,,,,,,,,,,,,,,,,
,,,,,WIN24_065,21,female,2024-02-15_16h04.08.229,jersey_experiment_5,2023.2.2,Win32,85.47008547,,,,,,,,,,,,,,,,1005.3112,1006.6052,1006.6052,1008.8642,return,1.4656,,97.91666667,,,,,,FBP-RB-91.png,0.43,1.2,29,0.5,,,,,,,,,,,,,,,,,,0,45,45,28,1,,,,,,,,,,,,,,,,,,,,,,,
,,,,,WIN24_065,21,female,2024-02-15_16h04.08.229,jersey_experiment_5,2023.2.2,Win32,85.47008547,,,,,,,,,,,,,,,,1008.8644,1010.6643,1010.6643,1012.3114,return,0.6597,,99.47916667,,,,,,FBP-PT-71.png,0.45,1.2,50,1,,,,,,,,,,,,,,,,,,0,46,46,49,1,,,,,,,,,,,,,,,,,,,,,,,
,,,,,WIN24_065,21,female,2024-02-15_16h04.08.229,jersey_experiment_5,2023.2.2,Win32,85.47008547,,,,,,,,,,,,,,,,1012.3116,1013.6055,1013.6055,1015.5938,return,0.5648,,75.26041667,,,,,,FBP-YG-18.png,0.4,1.2,38,0.5,,,,,,,,,,,,,,,,,,0,47,47,37,1,,,,,,,,,,,,,,,,,,,,,,,
,,,,,WIN24_065,21,female,2024-02-15_16h04.08.229,jersey_experiment_5,2023.2.2,Win32,85.47008547,,,,,,,,,,,,,,,,1015.594,1016.8879,1016.8879,1018.6645,return,0.7194,,97.78645833,,,,,,FBP-YG-17.png,0.45,1.2,35,0.5,,,,,,,,,,,,,,,,,,0,48,48,34,1,,,,,,,,,,,,,,,,,,,,,,,
,,,,,WIN24_065,21,female,2024-02-15_16h04.08.229,jersey_experiment_5,2023.2.2,Win32,85.47008547,,,,,,,,,,,,,,,,1018.6646,1020.4645,1020.4645,1021.4176,return,0.6259,,97.65625,,,,,,FBP-PT-81.png,0.4,1.2,53,1,,,,,,,,,,,,,,,,,,0,49,49,52,1,,,,,,,,,,,,,,,,,,,,,,,
,,,,,WIN24_065,21,female,2024-02-15_16h04.08.229,jersey_experiment_5,2023.2.2,Win32,85.47008547,,,,,,,,,,,,,,,,1021.4178,1023.2176,1023.2176,1024.3823,return,0.538,,99.34895833,,,,,,FBP-OG-19.png,0.45,1.2,15,1,,,,,,,,,,,,,,,,,,0,50,50,14,1,,,,,,,,,,,,,,,,,,,,,,,
,,,,,WIN24_065,21,female,2024-02-15_16h04.08.229,jersey_experiment_5,2023.2.2,Win32,85.47008547,,,,,,,,,,,,,,,,1024.3825,1026.1824,1026.1824,1027.2648,return,0.5812,,99.34895833,,,,,,FBP-PT-91.png,0.43,1.2,59,1,,,,,,,,,,,,,,,,,,0,51,51,58,1,,,,,,,,,,,,,,,,,,,,,,,
,,,,,WIN24_065,21,female,2024-02-15_16h04.08.229,jersey_experiment_5,2023.2.2,Win32,85.47008547,,,,,,,,,,,,,,,,1027.2651,1028.5589,1028.5589,1030.1944,return,0.581,,75.65104167,,,,,,FBP-RB-81.png,0.35,1.2,21,0.5,,,,,,,,,,,,,,,,,,0,52,52,20,1,,,,,,,,,,,,,,,,,,,,,,,
,,,,,WIN24_065,21,female,2024-02-15_16h04.08.229,jersey_experiment_5,2023.2.2,Win32,85.47008547,,,,,,,,,,,,,,,,1030.1946,1031.4885,1031.4885,1036.1946,return,4.0973,,58.59375,,,,,,FBP-RB-91.png,0.35,1.2,26,0.5,,,,,,,,,,,,,,,,,,0,53,53,25,1,,,,,,,,,,,,,,,,,,,,,,,
,,,,,WIN24_065,21,female,2024-02-15_16h04.08.229,jersey_experiment_5,2023.2.2,Win32,85.47008547,,,,,,,,,,,,,,,,1036.1989,1037.5004,1037.5005,1039.5124,return,1.0493,,69.921875,,,,,,FBP-YG-17.png,0.4,1.2,33,0.5,,,,,,,,,,,,,,,,,,0,54,54,32,1,,,,,,,,,,,,,,,,,,,,,,,
,,,,,WIN24_065,21,female,2024-02-15_16h04.08.229,jersey_experiment_5,2023.2.2,Win32,85.47008547,,,,,,,,,,,,,,,,1039.5126,1041.3123,1041.3123,1044.3243,return,1.132,,69.921875,,,,,,FBP-OG-19.png,0.43,1.2,14,1,,,,,,,,,,,,,,,,,,0,55,55,13,1,,,,,,,,,,,,,,,,,,,,,,,
,,,,,WIN24_065,21,female,2024-02-15_16h04.08.229,jersey_experiment_5,2023.2.2,Win32,85.47008547,,,,,,,,,,,,,,,,1044.3245,1045.6182,1045.6183,1047.0656,return,0.5412,,83.203125,,,,,,FBP-RB-91.png,0.45,1.2,30,0.5,,,,,,,,,,,,,,,,,,0,56,56,29,1,,,,,,,,,,,,,,,,,,,,,,,
,,,,,WIN24_065,21,female,2024-02-15_16h04.08.229,jersey_experiment_5,2023.2.2,Win32,85.47008547,,,,,,,,,,,,,,,,1047.0658,1048.8656,1048.8656,1050.901,return,0.6816,,47.13541667,,,,,,FBP-OG-18.png,0.37,1.2,7,1,,,,,,,,,,,,,,,,,,0,57,57,6,1,,,,,,,,,,,,,,,,,,,,,,,
,,,,,WIN24_065,21,female,2024-02-15_16h04.08.229,jersey_experiment_5,2023.2.2,Win32,85.47008547,,,,,,,,,,,,,,,,1050.9011,1052.7012,1052.7012,1054.407,return,1.0015,,73.4375,,,,,,FBP-PT-81.png,0.43,1.2,54,1,,,,,,,,,,,,,,,,,,0,58,58,53,1,,,,,,,,,,,,,,,,,,,,,,,
,,,,,WIN24_065,21,female,2024-02-15_16h04.08.229,jersey_experiment_5,2023.2.2,Win32,85.47008547,,,,,,,,,,,,,,,,1054.4074,1055.7011,1055.7011,1057.913,return,0.5646,,63.28125,,,,,,FBP-RB-91.png,0.37,1.2,27,0.5,,,,,,,,,,,,,,,,,,0,59,59,26,1,,,,,,,,,,,,,,,,,,,,,,,
,,,,,WIN24_065,21,female,2024-02-15_16h04.08.229,jersey_experiment_5,2023.2.2,Win32,85.47008547,,,,,,,,,,,,,,,,,,,,,,,,,,,,,,,,,,,,,,,,,,,,,,,,,,,,,,,,1057.9135,1062.69,return,4.7697,,,,,,,,,,,,,,,,,,,
,,,,,WIN24_065,21,female,2024-02-15_16h04.08.229,jersey_experiment_5,2023.2.2,Win32,85.47008547,,,,,,,,,,,,,,,,,,,,,,,,,,,,,,,,,,,,,,,,,,,,,,,,,,,,,,,,,,,,,1062.69,1067.4546,1,3.5439,return,1.2082,,,,,,,,,,,,
,,,,,WIN24_065,21,female,2024-02-15_16h04.08.229,jersey_experiment_5,2023.2.2,Win32,85.47008547,,,,,,,,,,,,,,,,,,,,,,,,,,,,,,,,,,,,,,,,,,,,,,,,,,,,,,,,,,,,,,,,,,,,1067.4547,1106.4801,I don't really know what the experiment is abou,right,34.5836,,,,,,
,,,,,WIN24_065,21,female,2024-02-15_16h04.08.229,jersey_experiment_5,2023.2.2,Win32,85.47008547,,,,,,,,,,,,,,,,,,,,,,,,,,,,,,,,,,,,,,,,,,,,,,,,,,,,,,,,,,,,,,,,,,,,,,,,,,1106.4802,1112.8331,return,6.3342,