requirements.started,requirements.stopped,key_resp_3.keys,key_resp_3.rt,key_resp_3.duration,Subject ID,Age,Gender,date,expName,psychopyVersion,OS,frameRate,instructions1.started,instructions1.stopped,key_resp.keys,key_resp.rt,key_resp.duration,example.started,example.stopped,enter_2.keys,enter_2.rt,enter_2.duration,instructions2.started,instructions2.stopped,enter_3.keys,enter_3.rt,enter_3.duration,image.started,image.stopped,slider_2.started,slider_2.stopped,next.keys,next.rt,next.duration,slider.response,trial_block_1.thisRepN,trial_block_1.thisTrialN,trial_block_1.thisN,trial_block_1.thisIndex,trial_block_1.ran,Path,Width,Height,Index,Duration,trial_block_2.thisRepN,trial_block_2.thisTrialN,trial_block_2.thisN,trial_block_2.thisIndex,trial_block_2.ran,rest_break.started,rest_break.stopped,end_break.started,end_break.stopped,key_resp_5.keys,key_resp_5.rt,key_resp_5.duration,trial_block_3.thisRepN,trial_block_3.thisTrialN,trial_block_3.thisN,trial_block_3.thisIndex,trial_block_3.ran,trial_block_4.thisRepN,trial_block_4.thisTrialN,trial_block_4.thisN,trial_block_4.thisIndex,trial_block_4.ran,questions_intro.started,questions_intro.stopped,enter_12.keys,enter_12.rt,enter_12.duration,question2.started,question2.stopped,question_doingbest.response,question_doingbest.rt,enter_15.keys,enter_15.rt,enter_15.duration,pattern.started,pattern.stopped,pattern_2.text,enter_17.keys,enter_17.rt,enter_17.duration,thankyou.started,thankyou.stopped,enter_14.keys,enter_14.rt,enter_14.duration
0.0001,6.8819,return,6.8746,,WIN24_022,21,Male,2024-01-31_12h46.25.406,jersey_experiment_5,2023.2.2,Win32,85.47008547,,,,,,,,,,,,,,,,,,,,,,,,,,,,,,,,,,,,,,,,,,,,,,,,,,,,,,,,,,,,,,,,,,,,,,,,,,,,,,
,,,,,WIN24_022,21,Male,2024-01-31_12h46.25.406,jersey_experiment_5,2023.2.2,Win32,85.47008547,6.8821,8.2702,return,1.3801,,,,,,,,,,,,,,,,,,,,,,,,,,,,,,,,,,,,,,,,,,,,,,,,,,,,,,,,,,,,,,,,,,,,,,,,,,
,,,,,WIN24_022,21,Male,2024-01-31_12h46.25.406,jersey_experiment_5,2023.2.2,Win32,85.47008547,,,,,,8.2702,12.5562,return,4.265,,,,,,,,,,,,,,,,,,,,,,,,,,,,,,,,,,,,,,,,,,,,,,,,,,,,,,,,,,,,,,,,,,,,,
,,,,,WIN24_022,21,Male,2024-01-31_12h46.25.406,jersey_experiment_5,2023.2.2,Win32,85.47008547,,,,,,,,,,,12.5563,26.4474,return,13.8724,,,,,,,,,,,,,,,,,,,,,,,,,,,,,,,,,,,,,,,,,,,,,,,,,,,,,,,,,,,,,,,,
,,,,,WIN24_022,21,Male,2024-01-31_12h46.25.406,jersey_experiment_5,2023.2.2,Win32,85.47008547,,,,,,,,,,,,,,,,26.4543,28.2508,28.2508,35.3572,return,3.1874,,75.52083333,0,0,0,41,1,FBP-YG-91.png,0.37,1.2,42,1,,,,,,,,,,,,,,,,,,,,,,,,,,,,,,,,,,,,,,,,,,,,,
,,,,,WIN24_022,21,Male,2024-01-31_12h46.25.406,jersey_experiment_5,2023.2.2,Win32,85.47008547,,,,,,,,,,,,,,,,35.3614,37.1583,37.1583,39.9822,return,0.6022,,75,0,1,1,25,1,FBP-RB-19.png,0.35,1.2,26,1,,,,,,,,,,,,,,,,,,,,,,,,,,,,,,,,,,,,,,,,,,,,,
,,,,,WIN24_022,21,Male,2024-01-31_12h46.25.406,jersey_experiment_5,2023.2.2,Win32,85.47008547,,,,,,,,,,,,,,,,39.9824,41.7771,41.7771,46.9537,return,3.7953,,67.578125,0,2,2,20,1,FBP-RB-18.png,0.35,1.2,21,1,,,,,,,,,,,,,,,,,,,,,,,,,,,,,,,,,,,,,,,,,,,,,
,,,,,WIN24_022,21,Male,2024-01-31_12h46.25.406,jersey_experiment_5,2023.2.2,Win32,85.47008547,,,,,,,,,,,,,,,,46.9539,48.7457,48.7457,50.942,return,0.898,,57.16145833,0,3,3,35,1,FBP-YG-81.png,0.35,1.2,36,1,,,,,,,,,,,,,,,,,,,,,,,,,,,,,,,,,,,,,,,,,,,,,
,,,,,WIN24_022,21,Male,2024-01-31_12h46.25.406,jersey_experiment_5,2023.2.2,Win32,85.47008547,,,,,,,,,,,,,,,,50.9422,52.2362,52.2362,56.1708,return,0.6826,,64.71354167,0,4,4,6,1,FBP-OG-81.png,0.37,1.2,7,0.5,,,,,,,,,,,,,,,,,,,,,,,,,,,,,,,,,,,,,,,,,,,,,
,,,,,WIN24_022,21,Male,2024-01-31_12h46.25.406,jersey_experiment_5,2023.2.2,Win32,85.47008547,,,,,,,,,,,,,,,,56.1709,57.4751,57.4751,60.4164,return,0.8106,,81.38020833,0,5,5,13,1,FBP-OG-91.png,0.43,1.2,14,0.5,,,,,,,,,,,,,,,,,,,,,,,,,,,,,,,,,,,,,,,,,,,,,
,,,,,WIN24_022,21,Male,2024-01-31_12h46.25.406,jersey_experiment_5,2023.2.2,Win32,85.47008547,,,,,,,,,,,,,,,,60.4165,61.7189,61.7189,64.1073,return,1.1115,,90.36458333,0,6,6,14,1,FBP-OG-91.png,0.45,1.2,15,0.5,,,,,,,,,,,,,,,,,,,,,,,,,,,,,,,,,,,,,,,,,,,,,
,,,,,WIN24_022,21,Male,2024-01-31_12h46.25.406,jersey_experiment_5,2023.2.2,Win32,85.47008547,,,,,,,,,,,,,,,,64.1075,65.4014,65.4014,67.1225,return,0.293,,90.36458333,0,7,7,9,1,FBP-OG-81.png,0.45,1.2,10,0.5,,,,,,,,,,,,,,,,,,,,,,,,,,,,,,,,,,,,,,,,,,,,,
,,,,,WIN24_022,21,Male,2024-01-31_12h46.25.406,jersey_experiment_5,2023.2.2,Win32,85.47008547,,,,,,,,,,,,,,,,67.1227,68.9241,68.9241,71.1779,return,0.9727,,76.30208333,0,8,8,32,1,FBP-YG-71.png,0.4,1.2,33,1,,,,,,,,,,,,,,,,,,,,,,,,,,,,,,,,,,,,,,,,,,,,,
,,,,,WIN24_022,21,Male,2024-01-31_12h46.25.406,jersey_experiment_5,2023.2.2,Win32,85.47008547,,,,,,,,,,,,,,,,71.178,72.971,72.971,74.6889,return,0.6957,,84.765625,0,9,9,43,1,FBP-YG-91.png,0.43,1.2,44,1,,,,,,,,,,,,,,,,,,,,,,,,,,,,,,,,,,,,,,,,,,,,,
,,,,,WIN24_022,21,Male,2024-01-31_12h46.25.406,jersey_experiment_5,2023.2.2,Win32,85.47008547,,,,,,,,,,,,,,,,74.6892,75.9899,75.99,78.2993,return,0.5881,,58.33333333,0,10,10,11,1,FBP-OG-91.png,0.37,1.2,12,0.5,,,,,,,,,,,,,,,,,,,,,,,,,,,,,,,,,,,,,,,,,,,,,
,,,,,WIN24_022,21,Male,2024-01-31_12h46.25.406,jersey_experiment_5,2023.2.2,Win32,85.47008547,,,,,,,,,,,,,,,,78.2994,79.5938,79.5938,81.7549,return,0.6072,,93.61979167,0,11,11,54,1,FBP-PT-18.png,0.45,1.2,55,0.5,,,,,,,,,,,,,,,,,,,,,,,,,,,,,,,,,,,,,,,,,,,,,
,,,,,WIN24_022,21,Male,2024-01-31_12h46.25.406,jersey_experiment_5,2023.2.2,Win32,85.47008547,,,,,,,,,,,,,,,,81.7553,83.0526,83.0526,85.0894,return,0.6959,,44.53125,0,12,12,1,1,FBP-OG-71.png,0.37,1.2,2,0.5,,,,,,,,,,,,,,,,,,,,,,,,,,,,,,,,,,,,,,,,,,,,,
,,,,,WIN24_022,21,Male,2024-01-31_12h46.25.406,jersey_experiment_5,2023.2.2,Win32,85.47008547,,,,,,,,,,,,,,,,85.0895,86.8879,86.8879,88.3316,return,0.3359,,75.52083333,0,13,13,39,1,FBP-YG-81.png,0.45,1.2,40,1,,,,,,,,,,,,,,,,,,,,,,,,,,,,,,,,,,,,,,,,,,,,,
,,,,,WIN24_022,21,Male,2024-01-31_12h46.25.406,jersey_experiment_5,2023.2.2,Win32,85.47008547,,,,,,,,,,,,,,,,88.3318,89.6257,89.6257,90.814,return,0.2742,,75,0,14,14,48,1,FBP-PT-17.png,0.43,1.2,49,0.5,,,,,,,,,,,,,,,,,,,,,,,,,,,,,,,,,,,,,,,,,,,,,
,,,,,WIN24_022,21,Male,2024-01-31_12h46.25.406,jersey_experiment_5,2023.2.2,Win32,85.47008547,,,,,,,,,,,,,,,,90.8142,92.6059,92.6059,93.473,return,0.3303,,80.72916667,0,15,15,28,1,FBP-RB-19.png,0.43,1.2,29,1,,,,,,,,,,,,,,,,,,,,,,,,,,,,,,,,,,,,,,,,,,,,,
,,,,,WIN24_022,21,Male,2024-01-31_12h46.25.406,jersey_experiment_5,2023.2.2,Win32,85.47008547,,,,,,,,,,,,,,,,93.4732,95.265,95.265,96.1723,return,0.283,,87.5,0,16,16,24,1,FBP-RB-18.png,0.45,1.2,25,1,,,,,,,,,,,,,,,,,,,,,,,,,,,,,,,,,,,,,,,,,,,,,
,,,,,WIN24_022,21,Male,2024-01-31_12h46.25.406,jersey_experiment_5,2023.2.2,Win32,85.47008547,,,,,,,,,,,,,,,,96.1725,97.4731,97.4731,100.5438,return,0.1665,,51.04166667,0,17,17,47,1,FBP-PT-17.png,0.4,1.2,48,0.5,,,,,,,,,,,,,,,,,,,,,,,,,,,,,,,,,,,,,,,,,,,,,
,,,,,WIN24_022,21,Male,2024-01-31_12h46.25.406,jersey_experiment_5,2023.2.2,Win32,85.47008547,,,,,,,,,,,,,,,,100.5439,102.3439,102.3439,103.8262,return,0.2958,,47.65625,0,18,18,31,1,FBP-YG-71.png,0.37,1.2,32,1,,,,,,,,,,,,,,,,,,,,,,,,,,,,,,,,,,,,,,,,,,,,,
,,,,,WIN24_022,21,Male,2024-01-31_12h46.25.406,jersey_experiment_5,2023.2.2,Win32,85.47008547,,,,,,,,,,,,,,,,103.8264,105.6178,105.6178,107.4263,return,0.9652,,74.86979167,0,19,19,33,1,FBP-YG-71.png,0.43,1.2,34,1,,,,,,,,,,,,,,,,,,,,,,,,,,,,,,,,,,,,,,,,,,,,,
,,,,,WIN24_022,21,Male,2024-01-31_12h46.25.406,jersey_experiment_5,2023.2.2,Win32,85.47008547,,,,,,,,,,,,,,,,107.4266,108.7239,108.7239,110.2382,return,0.3437,,52.60416667,0,20,20,10,1,FBP-OG-91.png,0.35,1.2,11,0.5,,,,,,,,,,,,,,,,,,,,,,,,,,,,,,,,,,,,,,,,,,,,,
,,,,,WIN24_022,21,Male,2024-01-31_12h46.25.406,jersey_experiment_5,2023.2.2,Win32,85.47008547,,,,,,,,,,,,,,,,110.2384,111.5321,111.5322,112.9257,return,0.3063,,87.63020833,0,21,21,49,1,FBP-PT-17.png,0.45,1.2,50,0.5,,,,,,,,,,,,,,,,,,,,,,,,,,,,,,,,,,,,,,,,,,,,,
,,,,,WIN24_022,21,Male,2024-01-31_12h46.25.406,jersey_experiment_5,2023.2.2,Win32,85.47008547,,,,,,,,,,,,,,,,112.9259,114.7243,114.7243,117.0267,return,0.1652,,56.51041667,0,22,22,16,1,FBP-RB-17.png,0.37,1.2,17,1,,,,,,,,,,,,,,,,,,,,,,,,,,,,,,,,,,,,,,,,,,,,,
,,,,,WIN24_022,21,Male,2024-01-31_12h46.25.406,jersey_experiment_5,2023.2.2,Win32,85.47008547,,,,,,,,,,,,,,,,117.0269,118.3208,118.3209,119.6267,return,0.2764,,88.93229167,0,23,23,59,1,FBP-PT-19.png,0.45,1.2,60,0.5,,,,,,,,,,,,,,,,,,,,,,,,,,,,,,,,,,,,,,,,,,,,,
,,,,,WIN24_022,21,Male,2024-01-31_12h46.25.406,jersey_experiment_5,2023.2.2,Win32,85.47008547,,,,,,,,,,,,,,,,119.6269,120.9258,120.9258,122.6671,return,0.4475,,45.3125,0,24,24,45,1,FBP-PT-17.png,0.35,1.2,46,0.5,,,,,,,,,,,,,,,,,,,,,,,,,,,,,,,,,,,,,,,,,,,,,
,,,,,WIN24_022,21,Male,2024-01-31_12h46.25.406,jersey_experiment_5,2023.2.2,Win32,85.47008547,,,,,,,,,,,,,,,,122.6672,123.9681,123.9681,125.0777,return,0.2354,,44.40104167,0,25,25,51,1,FBP-PT-18.png,0.37,1.2,52,0.5,,,,,,,,,,,,,,,,,,,,,,,,,,,,,,,,,,,,,,,,,,,,,
,,,,,WIN24_022,21,Male,2024-01-31_12h46.25.406,jersey_experiment_5,2023.2.2,Win32,85.47008547,,,,,,,,,,,,,,,,125.0779,126.8791,126.8791,127.827,return,0.1548,,53.515625,0,26,26,15,1,FBP-RB-17.png,0.35,1.2,16,1,,,,,,,,,,,,,,,,,,,,,,,,,,,,,,,,,,,,,,,,,,,,,
,,,,,WIN24_022,21,Male,2024-01-31_12h46.25.406,jersey_experiment_5,2023.2.2,Win32,85.47008547,,,,,,,,,,,,,,,,127.8272,129.6186,129.6186,130.7846,return,0.7189,,64.19270833,0,27,27,21,1,FBP-RB-18.png,0.37,1.2,22,1,,,,,,,,,,,,,,,,,,,,,,,,,,,,,,,,,,,,,,,,,,,,,
,,,,,WIN24_022,21,Male,2024-01-31_12h46.25.406,jersey_experiment_5,2023.2.2,Win32,85.47008547,,,,,,,,,,,,,,,,130.7847,132.086,132.086,133.2894,return,0.1752,,78.90625,0,28,28,8,1,FBP-OG-81.png,0.43,1.2,9,0.5,,,,,,,,,,,,,,,,,,,,,,,,,,,,,,,,,,,,,,,,,,,,,
,,,,,WIN24_022,21,Male,2024-01-31_12h46.25.406,jersey_experiment_5,2023.2.2,Win32,85.47008547,,,,,,,,,,,,,,,,133.2895,134.5919,134.5919,135.9331,return,0.1563,,73.828125,0,29,29,46,1,FBP-PT-17.png,0.37,1.2,47,0.5,,,,,,,,,,,,,,,,,,,,,,,,,,,,,,,,,,,,,,,,,,,,,
,,,,,WIN24_022,21,Male,2024-01-31_12h46.25.406,jersey_experiment_5,2023.2.2,Win32,85.47008547,,,,,,,,,,,,,,,,135.9333,137.2273,137.2274,138.5734,return,0.3193,,92.44791667,0,30,30,4,1,FBP-OG-71.png,0.45,1.2,5,0.5,,,,,,,,,,,,,,,,,,,,,,,,,,,,,,,,,,,,,,,,,,,,,
,,,,,WIN24_022,21,Male,2024-01-31_12h46.25.406,jersey_experiment_5,2023.2.2,Win32,85.47008547,,,,,,,,,,,,,,,,138.5736,140.3685,140.3685,141.8548,return,0.1654,,77.34375,0,31,31,22,1,FBP-RB-18.png,0.4,1.2,23,1,,,,,,,,,,,,,,,,,,,,,,,,,,,,,,,,,,,,,,,,,,,,,
,,,,,WIN24_022,21,Male,2024-01-31_12h46.25.406,jersey_experiment_5,2023.2.2,Win32,85.47008547,,,,,,,,,,,,,,,,141.855,143.1569,143.1569,144.8628,return,0.8386,,74.609375,0,32,32,2,1,FBP-OG-71.png,0.4,1.2,3,0.5,,,,,,,,,,,,,,,,,,,,,,,,,,,,,,,,,,,,,,,,,,,,,
,,,,,WIN24_022,21,Male,2024-01-31_12h46.25.406,jersey_experiment_5,2023.2.2,Win32,85.47008547,,,,,,,,,,,,,,,,144.863,146.157,146.157,148.2546,return,0.5748,,57.421875,0,33,33,5,1,FBP-OG-81.png,0.35,1.2,6,0.5,,,,,,,,,,,,,,,,,,,,,,,,,,,,,,,,,,,,,,,,,,,,,
,,,,,WIN24_022,21,Male,2024-01-31_12h46.25.406,jersey_experiment_5,2023.2.2,Win32,85.47008547,,,,,,,,,,,,,,,,148.2547,149.5487,149.5487,151.0445,return,0.518,,75.26041667,0,34,34,53,1,FBP-PT-18.png,0.43,1.2,54,0.5,,,,,,,,,,,,,,,,,,,,,,,,,,,,,,,,,,,,,,,,,,,,,
,,,,,WIN24_022,21,Male,2024-01-31_12h46.25.406,jersey_experiment_5,2023.2.2,Win32,85.47008547,,,,,,,,,,,,,,,,151.0447,152.8396,152.8397,155.5728,return,1.6476,,89.97395833,0,35,35,37,1,FBP-YG-81.png,0.4,1.2,38,1,,,,,,,,,,,,,,,,,,,,,,,,,,,,,,,,,,,,,,,,,,,,,
,,,,,WIN24_022,21,Male,2024-01-31_12h46.25.406,jersey_experiment_5,2023.2.2,Win32,85.47008547,,,,,,,,,,,,,,,,155.5729,156.875,156.8751,158.4432,return,0.4473,,85.80729167,0,36,36,7,1,FBP-OG-81.png,0.4,1.2,8,0.5,,,,,,,,,,,,,,,,,,,,,,,,,,,,,,,,,,,,,,,,,,,,,
,,,,,WIN24_022,21,Male,2024-01-31_12h46.25.406,jersey_experiment_5,2023.2.2,Win32,85.47008547,,,,,,,,,,,,,,,,158.4433,160.2443,160.2443,161.8046,return,0.3569,,85.67708333,0,37,37,38,1,FBP-YG-81.png,0.43,1.2,39,1,,,,,,,,,,,,,,,,,,,,,,,,,,,,,,,,,,,,,,,,,,,,,
,,,,,WIN24_022,21,Male,2024-01-31_12h46.25.406,jersey_experiment_5,2023.2.2,Win32,85.47008547,,,,,,,,,,,,,,,,161.8048,163.6046,163.6046,164.7965,return,0.2355,,56.38020833,0,38,38,40,1,FBP-YG-91.png,0.35,1.2,41,1,,,,,,,,,,,,,,,,,,,,,,,,,,,,,,,,,,,,,,,,,,,,,
,,,,,WIN24_022,21,Male,2024-01-31_12h46.25.406,jersey_experiment_5,2023.2.2,Win32,85.47008547,,,,,,,,,,,,,,,,164.7966,166.0988,166.0988,168.4805,return,0.1548,,65.49479167,0,39,39,12,1,FBP-OG-91.png,0.4,1.2,13,0.5,,,,,,,,,,,,,,,,,,,,,,,,,,,,,,,,,,,,,,,,,,,,,
,,,,,WIN24_022,21,Male,2024-01-31_12h46.25.406,jersey_experiment_5,2023.2.2,Win32,85.47008547,,,,,,,,,,,,,,,,168.4807,169.7849,169.785,171.0402,return,0.2004,,77.21354167,0,40,40,3,1,FBP-OG-71.png,0.43,1.2,4,0.5,,,,,,,,,,,,,,,,,,,,,,,,,,,,,,,,,,,,,,,,,,,,,
,,,,,WIN24_022,21,Male,2024-01-31_12h46.25.406,jersey_experiment_5,2023.2.2,Win32,85.47008547,,,,,,,,,,,,,,,,171.0403,172.3343,172.3343,173.7226,return,0.4545,,94.140625,0,41,41,58,1,FBP-PT-19.png,0.43,1.2,59,0.5,,,,,,,,,,,,,,,,,,,,,,,,,,,,,,,,,,,,,,,,,,,,,
,,,,,WIN24_022,21,Male,2024-01-31_12h46.25.406,jersey_experiment_5,2023.2.2,Win32,85.47008547,,,,,,,,,,,,,,,,173.7228,175.0216,175.0216,176.2084,return,0.2586,,92.83854167,0,42,42,52,1,FBP-PT-18.png,0.4,1.2,53,0.5,,,,,,,,,,,,,,,,,,,,,,,,,,,,,,,,,,,,,,,,,,,,,
,,,,,WIN24_022,21,Male,2024-01-31_12h46.25.406,jersey_experiment_5,2023.2.2,Win32,85.47008547,,,,,,,,,,,,,,,,176.2086,178.0051,178.0051,179.0875,return,0.1772,,76.5625,0,43,43,42,1,FBP-YG-91.png,0.4,1.2,43,1,,,,,,,,,,,,,,,,,,,,,,,,,,,,,,,,,,,,,,,,,,,,,
,,,,,WIN24_022,21,Male,2024-01-31_12h46.25.406,jersey_experiment_5,2023.2.2,Win32,85.47008547,,,,,,,,,,,,,,,,179.0877,180.3817,180.3817,181.6339,return,0.2121,,56.11979167,0,44,44,56,1,FBP-PT-19.png,0.37,1.2,57,0.5,,,,,,,,,,,,,,,,,,,,,,,,,,,,,,,,,,,,,,,,,,,,,
,,,,,WIN24_022,21,Male,2024-01-31_12h46.25.406,jersey_experiment_5,2023.2.2,Win32,85.47008547,,,,,,,,,,,,,,,,181.6341,183.4322,183.4322,184.2559,return,0.1985,,44.01041667,0,45,45,30,1,FBP-YG-71.png,0.35,1.2,31,1,,,,,,,,,,,,,,,,,,,,,,,,,,,,,,,,,,,,,,,,,,,,,
,,,,,WIN24_022,21,Male,2024-01-31_12h46.25.406,jersey_experiment_5,2023.2.2,Win32,85.47008547,,,,,,,,,,,,,,,,184.256,186.0573,186.0573,187.6342,return,0.7533,,89.32291667,0,46,46,29,1,FBP-RB-19.png,0.45,1.2,30,1,,,,,,,,,,,,,,,,,,,,,,,,,,,,,,,,,,,,,,,,,,,,,
,,,,,WIN24_022,21,Male,2024-01-31_12h46.25.406,jersey_experiment_5,2023.2.2,Win32,85.47008547,,,,,,,,,,,,,,,,187.6345,189.4292,189.4292,192.9752,return,0.1179,,74.08854167,0,47,47,26,1,FBP-RB-19.png,0.37,1.2,27,1,,,,,,,,,,,,,,,,,,,,,,,,,,,,,,,,,,,,,,,,,,,,,
,,,,,WIN24_022,21,Male,2024-01-31_12h46.25.406,jersey_experiment_5,2023.2.2,Win32,85.47008547,,,,,,,,,,,,,,,,192.9753,194.7737,194.7737,195.8092,return,0.3296,,81.38020833,0,48,48,17,1,FBP-RB-17.png,0.4,1.2,18,1,,,,,,,,,,,,,,,,,,,,,,,,,,,,,,,,,,,,,,,,,,,,,
,,,,,WIN24_022,21,Male,2024-01-31_12h46.25.406,jersey_experiment_5,2023.2.2,Win32,85.47008547,,,,,,,,,,,,,,,,195.8093,197.6057,197.6058,200.2529,return,1.7213,,61.58854167,0,49,49,27,1,FBP-RB-19.png,0.4,1.2,28,1,,,,,,,,,,,,,,,,,,,,,,,,,,,,,,,,,,,,,,,,,,,,,
,,,,,WIN24_022,21,Male,2024-01-31_12h46.25.406,jersey_experiment_5,2023.2.2,Win32,85.47008547,,,,,,,,,,,,,,,,200.2531,202.0449,202.0449,202.7876,return,0.2018,,89.84375,0,50,50,23,1,FBP-RB-18.png,0.43,1.2,24,1,,,,,,,,,,,,,,,,,,,,,,,,,,,,,,,,,,,,,,,,,,,,,
,,,,,WIN24_022,21,Male,2024-01-31_12h46.25.406,jersey_experiment_5,2023.2.2,Win32,85.47008547,,,,,,,,,,,,,,,,202.7879,204.5826,204.5826,205.5237,return,0.187,,94.66145833,0,51,51,19,1,FBP-RB-17.png,0.45,1.2,20,1,,,,,,,,,,,,,,,,,,,,,,,,,,,,,,,,,,,,,,,,,,,,,
,,,,,WIN24_022,21,Male,2024-01-31_12h46.25.406,jersey_experiment_5,2023.2.2,Win32,85.47008547,,,,,,,,,,,,,,,,205.5239,206.8179,206.8179,208.5392,return,0.152,,59.89583333,0,52,52,0,1,FBP-OG-71.png,0.35,1.2,1,0.5,,,,,,,,,,,,,,,,,,,,,,,,,,,,,,,,,,,,,,,,,,,,,
,,,,,WIN24_022,21,Male,2024-01-31_12h46.25.406,jersey_experiment_5,2023.2.2,Win32,85.47008547,,,,,,,,,,,,,,,,208.5394,210.3406,210.3406,211.1004,return,0.2058,,98.4375,0,53,53,34,1,FBP-YG-71.png,0.45,1.2,35,1,,,,,,,,,,,,,,,,,,,,,,,,,,,,,,,,,,,,,,,,,,,,,
,,,,,WIN24_022,21,Male,2024-01-31_12h46.25.406,jersey_experiment_5,2023.2.2,Win32,85.47008547,,,,,,,,,,,,,,,,211.1006,212.3945,212.3946,214.7981,return,0.1886,,71.875,0,54,54,57,1,FBP-PT-19.png,0.4,1.2,58,0.5,,,,,,,,,,,,,,,,,,,,,,,,,,,,,,,,,,,,,,,,,,,,,
,,,,,WIN24_022,21,Male,2024-01-31_12h46.25.406,jersey_experiment_5,2023.2.2,Win32,85.47008547,,,,,,,,,,,,,,,,214.7982,216.1005,216.1006,217.324,return,0.1235,,52.21354167,0,55,55,55,1,FBP-PT-19.png,0.35,1.2,56,0.5,,,,,,,,,,,,,,,,,,,,,,,,,,,,,,,,,,,,,,,,,,,,,
,,,,,WIN24_022,21,Male,2024-01-31_12h46.25.406,jersey_experiment_5,2023.2.2,Win32,85.47008547,,,,,,,,,,,,,,,,217.3242,218.6182,218.6182,219.5644,return,0.1645,,42.44791667,0,56,56,50,1,FBP-PT-18.png,0.35,1.2,51,0.5,,,,,,,,,,,,,,,,,,,,,,,,,,,,,,,,,,,,,,,,,,,,,
,,,,,WIN24_022,21,Male,2024-01-31_12h46.25.406,jersey_experiment_5,2023.2.2,Win32,85.47008547,,,,,,,,,,,,,,,,219.5646,221.3629,221.3629,222.9295,return,0.3431,,76.69270833,0,57,57,18,1,FBP-RB-17.png,0.43,1.2,19,1,,,,,,,,,,,,,,,,,,,,,,,,,,,,,,,,,,,,,,,,,,,,,
,,,,,WIN24_022,21,Male,2024-01-31_12h46.25.406,jersey_experiment_5,2023.2.2,Win32,85.47008547,,,,,,,,,,,,,,,,222.9296,224.7277,224.7277,225.3765,return,0.1313,,69.27083333,0,58,58,36,1,FBP-YG-81.png,0.37,1.2,37,1,,,,,,,,,,,,,,,,,,,,,,,,,,,,,,,,,,,,,,,,,,,,,
,,,,,WIN24_022,21,Male,2024-01-31_12h46.25.406,jersey_experiment_5,2023.2.2,Win32,85.47008547,,,,,,,,,,,,,,,,225.3766,227.1716,227.1716,228.0186,return,0.1312,,88.15104167,0,59,59,44,1,FBP-YG-91.png,0.45,1.2,45,1,,,,,,,,,,,,,,,,,,,,,,,,,,,,,,,,,,,,,,,,,,,,,
,,,,,WIN24_022,21,Male,2024-01-31_12h46.25.406,jersey_experiment_5,2023.2.2,Win32,85.47008547,,,,,,,,,,,,,,,,228.0206,229.3127,229.3127,230.9064,return,0.0948,,89.19270833,,,,,,FBP-OG-18.png,0.43,1.2,9,0.5,0,0,0,8,1,,,,,,,,,,,,,,,,,,,,,,,,,,,,,,,,,,,,,,,,
,,,,,WIN24_022,21,Male,2024-01-31_12h46.25.406,jersey_experiment_5,2023.2.2,Win32,85.47008547,,,,,,,,,,,,,,,,230.9067,232.207,232.207,234.6657,return,0.737,,73.30729167,,,,,,FBP-PT-91.png,0.37,1.2,57,0.5,0,1,1,56,1,,,,,,,,,,,,,,,,,,,,,,,,,,,,,,,,,,,,,,,,
,,,,,WIN24_022,21,Male,2024-01-31_12h46.25.406,jersey_experiment_5,2023.2.2,Win32,85.47008547,,,,,,,,,,,,,,,,234.666,235.9648,235.9649,238.3836,return,0.6139,,77.08333333,,,,,,FBP-PT-71.png,0.43,1.2,49,0.5,0,2,2,48,1,,,,,,,,,,,,,,,,,,,,,,,,,,,,,,,,,,,,,,,,
,,,,,WIN24_022,21,Male,2024-01-31_12h46.25.406,jersey_experiment_5,2023.2.2,Win32,85.47008547,,,,,,,,,,,,,,,,238.3838,239.6777,239.6778,240.8308,return,0.1439,,63.02083333,,,,,,FBP-PT-91.png,0.4,1.2,58,0.5,0,3,3,57,1,,,,,,,,,,,,,,,,,,,,,,,,,,,,,,,,,,,,,,,,
,,,,,WIN24_022,21,Male,2024-01-31_12h46.25.406,jersey_experiment_5,2023.2.2,Win32,85.47008547,,,,,,,,,,,,,,,,240.8309,242.6243,242.6243,243.4813,return,0.1752,,53.64583333,,,,,,FBP-RB-81.png,0.35,1.2,21,1,0,4,4,20,1,,,,,,,,,,,,,,,,,,,,,,,,,,,,,,,,,,,,,,,,
,,,,,WIN24_022,21,Male,2024-01-31_12h46.25.406,jersey_experiment_5,2023.2.2,Win32,85.47008547,,,,,,,,,,,,,,,,243.4815,245.2826,245.2827,245.8344,return,0.0942,,53.64583333,,,,,,FBP-YG-19.png,0.37,1.2,42,1,0,5,5,41,1,,,,,,,,,,,,,,,,,,,,,,,,,,,,,,,,,,,,,,,,
,,,,,WIN24_022,21,Male,2024-01-31_12h46.25.406,jersey_experiment_5,2023.2.2,Win32,85.47008547,,,,,,,,,,,,,,,,245.8346,247.636,247.636,249.2362,return,0.6827,,82.29166667,,,,,,FBP-YG-19.png,0.43,1.2,44,1,0,6,6,43,1,,,,,,,,,,,,,,,,,,,,,,,,,,,,,,,,,,,,,,,,
,,,,,WIN24_022,21,Male,2024-01-31_12h46.25.406,jersey_experiment_5,2023.2.2,Win32,85.47008547,,,,,,,,,,,,,,,,249.2363,251.0345,251.0345,252.1306,return,0.1315,,88.15104167,,,,,,FBP-RB-81.png,0.43,1.2,24,1,0,7,7,23,1,,,,,,,,,,,,,,,,,,,,,,,,,,,,,,,,,,,,,,,,
,,,,,WIN24_022,21,Male,2024-01-31_12h46.25.406,jersey_experiment_5,2023.2.2,Win32,85.47008547,,,,,,,,,,,,,,,,252.1307,253.4242,253.4243,254.89,return,0.1134,,42.1875,,,,,,FBP-PT-91.png,0.35,1.2,56,0.5,0,8,8,55,1,,,,,,,,,,,,,,,,,,,,,,,,,,,,,,,,,,,,,,,,
,,,,,WIN24_022,21,Male,2024-01-31_12h46.25.406,jersey_experiment_5,2023.2.2,Win32,85.47008547,,,,,,,,,,,,,,,,254.8903,256.1843,256.1843,257.7548,return,0.1786,,88.93229167,,,,,,FBP-PT-81.png,0.43,1.2,54,0.5,0,9,9,53,1,,,,,,,,,,,,,,,,,,,,,,,,,,,,,,,,,,,,,,,,
,,,,,WIN24_022,21,Male,2024-01-31_12h46.25.406,jersey_experiment_5,2023.2.2,Win32,85.47008547,,,,,,,,,,,,,,,,257.755,259.0549,259.0549,259.9057,return,0.105,,92.578125,,,,,,FBP-OG-19.png,0.45,1.2,15,0.5,0,10,10,14,1,,,,,,,,,,,,,,,,,,,,,,,,,,,,,,,,,,,,,,,,
,,,,,WIN24_022,21,Male,2024-01-31_12h46.25.406,jersey_experiment_5,2023.2.2,Win32,85.47008547,,,,,,,,,,,,,,,,259.9058,261.1996,261.1996,263.0552,return,0.2494,,89.19270833,,,,,,FBP-PT-81.png,0.45,1.2,55,0.5,0,11,11,54,1,,,,,,,,,,,,,,,,,,,,,,,,,,,,,,,,,,,,,,,,
,,,,,WIN24_022,21,Male,2024-01-31_12h46.25.406,jersey_experiment_5,2023.2.2,Win32,85.47008547,,,,,,,,,,,,,,,,263.0554,264.8467,264.8467,265.5997,return,0.1644,,72.91666667,,,,,,FBP-RB-71.png,0.4,1.2,18,1,0,12,12,17,1,,,,,,,,,,,,,,,,,,,,,,,,,,,,,,,,,,,,,,,,
,,,,,WIN24_022,21,Male,2024-01-31_12h46.25.406,jersey_experiment_5,2023.2.2,Win32,85.47008547,,,,,,,,,,,,,,,,265.5998,267.3964,267.3964,270.0942,return,0.2695,,67.44791667,,,,,,FBP-YG-17.png,0.37,1.2,32,1,0,13,13,31,1,,,,,,,,,,,,,,,,,,,,,,,,,,,,,,,,,,,,,,,,
,,,,,WIN24_022,21,Male,2024-01-31_12h46.25.406,jersey_experiment_5,2023.2.2,Win32,85.47008547,,,,,,,,,,,,,,,,270.0944,271.8954,271.8954,273.9143,return,0.7842,,53.25520833,,,,,,FBP-YG-18.png,0.35,1.2,36,1,0,14,14,35,1,,,,,,,,,,,,,,,,,,,,,,,,,,,,,,,,,,,,,,,,
,,,,,WIN24_022,21,Male,2024-01-31_12h46.25.406,jersey_experiment_5,2023.2.2,Win32,85.47008547,,,,,,,,,,,,,,,,273.9145,275.2084,275.2085,276.432,return,0.1901,,82.55208333,,,,,,FBP-PT-71.png,0.45,1.2,50,0.5,0,15,15,49,1,,,,,,,,,,,,,,,,,,,,,,,,,,,,,,,,,,,,,,,,
,,,,,WIN24_022,21,Male,2024-01-31_12h46.25.406,jersey_experiment_5,2023.2.2,Win32,85.47008547,,,,,,,,,,,,,,,,276.4322,278.2253,278.2253,279.3145,return,0.259,,44.79166667,,,,,,FBP-YG-17.png,0.35,1.2,31,1,0,16,16,30,1,,,,,,,,,,,,,,,,,,,,,,,,,,,,,,,,,,,,,,,,
,,,,,WIN24_022,21,Male,2024-01-31_12h46.25.406,jersey_experiment_5,2023.2.2,Win32,85.47008547,,,,,,,,,,,,,,,,279.3147,281.1061,281.1061,282.155,return,0.202,,73.56770833,,,,,,FBP-YG-17.png,0.43,1.2,34,1,0,17,17,33,1,,,,,,,,,,,,,,,,,,,,,,,,,,,,,,,,,,,,,,,,
,,,,,WIN24_022,21,Male,2024-01-31_12h46.25.406,jersey_experiment_5,2023.2.2,Win32,85.47008547,,,,,,,,,,,,,,,,282.1553,283.9501,283.9501,284.8794,return,0.2011,,57.68229167,,,,,,FBP-RB-91.png,0.35,1.2,26,1,0,18,18,25,1,,,,,,,,,,,,,,,,,,,,,,,,,,,,,,,,,,,,,,,,
,,,,,WIN24_022,21,Male,2024-01-31_12h46.25.406,jersey_experiment_5,2023.2.2,Win32,85.47008547,,,,,,,,,,,,,,,,284.8797,286.6794,286.6795,287.483,return,0.2225,,50.91145833,,,,,,FBP-YG-18.png,0.37,1.2,37,1,0,19,19,36,1,,,,,,,,,,,,,,,,,,,,,,,,,,,,,,,,,,,,,,,,
,,,,,WIN24_022,21,Male,2024-01-31_12h46.25.406,jersey_experiment_5,2023.2.2,Win32,85.47008547,,,,,,,,,,,,,,,,287.4832,288.7904,288.7905,290.1316,return,0.2354,,42.578125,,,,,,FBP-PT-71.png,0.35,1.2,46,0.5,0,20,20,45,1,,,,,,,,,,,,,,,,,,,,,,,,,,,,,,,,,,,,,,,,
,,,,,WIN24_022,21,Male,2024-01-31_12h46.25.406,jersey_experiment_5,2023.2.2,Win32,85.47008547,,,,,,,,,,,,,,,,290.1317,291.9299,291.93,292.7303,return,0.1181,,67.1875,,,,,,FBP-YG-18.png,0.43,1.2,39,1,0,21,21,38,1,,,,,,,,,,,,,,,,,,,,,,,,,,,,,,,,,,,,,,,,
,,,,,WIN24_022,21,Male,2024-01-31_12h46.25.406,jersey_experiment_5,2023.2.2,Win32,85.47008547,,,,,,,,,,,,,,,,292.7305,294.5267,294.5267,296.9151,return,0.0604,,69.140625,,,,,,FBP-YG-18.png,0.4,1.2,38,1,0,22,22,37,1,,,,,,,,,,,,,,,,,,,,,,,,,,,,,,,,,,,,,,,,
,,,,,WIN24_022,21,Male,2024-01-31_12h46.25.406,jersey_experiment_5,2023.2.2,Win32,85.47008547,,,,,,,,,,,,,,,,296.9153,298.2091,298.2092,299.115,return,0.2185,,69.01041667,,,,,,FBP-OG-19.png,0.37,1.2,12,0.5,0,23,23,11,1,,,,,,,,,,,,,,,,,,,,,,,,,,,,,,,,,,,,,,,,
,,,,,WIN24_022,21,Male,2024-01-31_12h46.25.406,jersey_experiment_5,2023.2.2,Win32,85.47008547,,,,,,,,,,,,,,,,299.1152,300.9085,300.9085,301.7857,return,0.1712,,83.984375,,,,,,FBP-RB-91.png,0.45,1.2,30,1,0,24,24,29,1,,,,,,,,,,,,,,,,,,,,,,,,,,,,,,,,,,,,,,,,
,,,,,WIN24_022,21,Male,2024-01-31_12h46.25.406,jersey_experiment_5,2023.2.2,Win32,85.47008547,,,,,,,,,,,,,,,,301.786,303.5778,303.5779,304.2601,return,0.2119,,83.984375,,,,,,FBP-RB-91.png,0.43,1.2,29,1,0,25,25,28,1,,,,,,,,,,,,,,,,,,,,,,,,,,,,,,,,,,,,,,,,
,,,,,WIN24_022,21,Male,2024-01-31_12h46.25.406,jersey_experiment_5,2023.2.2,Win32,85.47008547,,,,,,,,,,,,,,,,304.2602,305.5544,305.5544,308.3776,return,0.0811,,74.86979167,,,,,,FBP-PT-81.png,0.4,1.2,53,0.5,0,26,26,52,1,,,,,,,,,,,,,,,,,,,,,,,,,,,,,,,,,,,,,,,,
,,,,,WIN24_022,21,Male,2024-01-31_12h46.25.406,jersey_experiment_5,2023.2.2,Win32,85.47008547,,,,,,,,,,,,,,,,308.3778,309.6846,309.6846,312.3442,return,0.6251,,36.328125,,,,,,FBP-OG-17.png,0.35,1.2,1,0.5,0,27,27,0,1,,,,,,,,,,,,,,,,,,,,,,,,,,,,,,,,,,,,,,,,
,,,,,WIN24_022,21,Male,2024-01-31_12h46.25.406,jersey_experiment_5,2023.2.2,Win32,85.47008547,,,,,,,,,,,,,,,,312.3443,313.645,313.6451,314.7782,return,0.2122,,41.53645833,,,,,,FBP-OG-18.png,0.35,1.2,6,0.5,0,28,28,5,1,,,,,,,,,,,,,,,,,,,,,,,,,,,,,,,,,,,,,,,,
,,,,,WIN24_022,21,Male,2024-01-31_12h46.25.406,jersey_experiment_5,2023.2.2,Win32,85.47008547,,,,,,,,,,,,,,,,314.7783,316.5796,316.5796,317.2923,return,0.1585,,67.05729167,,,,,,FBP-RB-91.png,0.4,1.2,28,1,0,29,29,27,1,,,,,,,,,,,,,,,,,,,,,,,,,,,,,,,,,,,,,,,,
,,,,,WIN24_022,21,Male,2024-01-31_12h46.25.406,jersey_experiment_5,2023.2.2,Win32,85.47008547,,,,,,,,,,,,,,,,317.2926,318.5865,318.5865,320.5158,return,0.1783,,61.45833333,,,,,,FBP-OG-17.png,0.37,1.2,2,0.5,0,30,30,1,1,,,,,,,,,,,,,,,,,,,,,,,,,,,,,,,,,,,,,,,,
,,,,,WIN24_022,21,Male,2024-01-31_12h46.25.406,jersey_experiment_5,2023.2.2,Win32,85.47008547,,,,,,,,,,,,,,,,320.516,321.8099,321.8099,322.8866,return,0.1424,,61.84895833,,,,,,FBP-OG-19.png,0.35,1.2,11,0.5,0,31,31,10,1,,,,,,,,,,,,,,,,,,,,,,,,,,,,,,,,,,,,,,,,
,,,,,WIN24_022,21,Male,2024-01-31_12h46.25.406,jersey_experiment_5,2023.2.2,Win32,85.47008547,,,,,,,,,,,,,,,,322.8868,324.1867,324.1867,325.7199,return,0.5521,,73.69791667,,,,,,FBP-PT-91.png,0.43,1.2,59,0.5,0,32,32,58,1,,,,,,,,,,,,,,,,,,,,,,,,,,,,,,,,,,,,,,,,
,,,,,WIN24_022,21,Male,2024-01-31_12h46.25.406,jersey_experiment_5,2023.2.2,Win32,85.47008547,,,,,,,,,,,,,,,,325.72,327.0219,327.022,329.0573,return,0.1887,,71.74479167,,,,,,FBP-PT-71.png,0.4,1.2,48,0.5,0,33,33,47,1,,,,,,,,,,,,,,,,,,,,,,,,,,,,,,,,,,,,,,,,
,,,,,WIN24_022,21,Male,2024-01-31_12h46.25.406,jersey_experiment_5,2023.2.2,Win32,85.47008547,,,,,,,,,,,,,,,,329.0576,330.3514,330.3515,331.5868,return,0.128,,85.02604167,,,,,,FBP-OG-17.png,0.45,1.2,5,0.5,0,34,34,4,1,,,,,,,,,,,,,,,,,,,,,,,,,,,,,,,,,,,,,,,,
,,,,,WIN24_022,21,Male,2024-01-31_12h46.25.406,jersey_experiment_5,2023.2.2,Win32,85.47008547,,,,,,,,,,,,,,,,331.5869,333.3868,333.3868,334.8811,return,0.0814,,73.30729167,,,,,,FBP-RB-71.png,0.37,1.2,17,1,0,35,35,16,1,,,,,,,,,,,,,,,,,,,,,,,,,,,,,,,,,,,,,,,,
,,,,,WIN24_022,21,Male,2024-01-31_12h46.25.406,jersey_experiment_5,2023.2.2,Win32,85.47008547,,,,,,,,,,,,,,,,334.8813,336.6744,336.6744,337.7567,return,0.6252,,89.0625,,,,,,FBP-RB-71.png,0.43,1.2,19,1,0,36,36,18,1,,,,,,,,,,,,,,,,,,,,,,,,,,,,,,,,,,,,,,,,
,,,,,WIN24_022,21,Male,2024-01-31_12h46.25.406,jersey_experiment_5,2023.2.2,Win32,85.47008547,,,,,,,,,,,,,,,,337.7569,339.5555,339.5556,340.4931,return,0.1917,,73.69791667,,,,,,FBP-RB-81.png,0.4,1.2,23,1,0,37,37,22,1,,,,,,,,,,,,,,,,,,,,,,,,,,,,,,,,,,,,,,,,
,,,,,WIN24_022,21,Male,2024-01-31_12h46.25.406,jersey_experiment_5,2023.2.2,Win32,85.47008547,,,,,,,,,,,,,,,,340.4933,342.2846,342.2846,342.9569,return,0.1414,,66.796875,,,,,,FBP-RB-81.png,0.37,1.2,22,1,0,38,38,21,1,,,,,,,,,,,,,,,,,,,,,,,,,,,,,,,,,,,,,,,,
,,,,,WIN24_022,21,Male,2024-01-31_12h46.25.406,jersey_experiment_5,2023.2.2,Win32,85.47008547,,,,,,,,,,,,,,,,342.9571,344.7521,344.7521,346.2696,return,0.2968,,93.75,,,,,,FBP-RB-71.png,0.45,1.2,20,1,0,39,39,19,1,,,,,,,,,,,,,,,,,,,,,,,,,,,,,,,,,,,,,,,,
,,,,,WIN24_022,21,Male,2024-01-31_12h46.25.406,jersey_experiment_5,2023.2.2,Win32,85.47008547,,,,,,,,,,,,,,,,346.2697,348.063,348.0631,349.5168,return,0.4622,,95.703125,,,,,,FBP-YG-18.png,0.45,1.2,40,1,0,40,40,39,1,,,,,,,,,,,,,,,,,,,,,,,,,,,,,,,,,,,,,,,,
,,,,,WIN24_022,21,Male,2024-01-31_12h46.25.406,jersey_experiment_5,2023.2.2,Win32,85.47008547,,,,,,,,,,,,,,,,349.517,351.3102,351.3102,352.0581,return,0.1355,,79.03645833,,,,,,FBP-YG-19.png,0.4,1.2,43,1,0,41,41,42,1,,,,,,,,,,,,,,,,,,,,,,,,,,,,,,,,,,,,,,,,
,,,,,WIN24_022,21,Male,2024-01-31_12h46.25.406,jersey_experiment_5,2023.2.2,Win32,85.47008547,,,,,,,,,,,,,,,,352.0583,353.3566,353.3566,355.5797,return,1.3418,,78.90625,,,,,,FBP-OG-19.png,0.4,1.2,13,0.5,0,42,42,12,1,,,,,,,,,,,,,,,,,,,,,,,,,,,,,,,,,,,,,,,,
,,,,,WIN24_022,21,Male,2024-01-31_12h46.25.406,jersey_experiment_5,2023.2.2,Win32,85.47008547,,,,,,,,,,,,,,,,355.5799,356.8818,356.8818,357.7441,return,0.0709,,90.49479167,,,,,,FBP-PT-91.png,0.45,1.2,60,0.5,0,43,43,59,1,,,,,,,,,,,,,,,,,,,,,,,,,,,,,,,,,,,,,,,,
,,,,,WIN24_022,21,Male,2024-01-31_12h46.25.406,jersey_experiment_5,2023.2.2,Win32,85.47008547,,,,,,,,,,,,,,,,357.7443,359.0466,359.0466,361.8115,return,1.6604,,81.640625,,,,,,FBP-OG-19.png,0.43,1.2,14,0.5,0,44,44,13,1,,,,,,,,,,,,,,,,,,,,,,,,,,,,,,,,,,,,,,,,
,,,,,WIN24_022,21,Male,2024-01-31_12h46.25.406,jersey_experiment_5,2023.2.2,Win32,85.47008547,,,,,,,,,,,,,,,,361.8118,363.1056,363.1056,364.4115,return,0.1946,,80.59895833,,,,,,FBP-OG-17.png,0.43,1.2,4,0.5,0,45,45,3,1,,,,,,,,,,,,,,,,,,,,,,,,,,,,,,,,,,,,,,,,
,,,,,WIN24_022,21,Male,2024-01-31_12h46.25.406,jersey_experiment_5,2023.2.2,Win32,85.47008547,,,,,,,,,,,,,,,,364.4116,366.2115,366.2115,366.8469,return,0.18,,80.859375,,,,,,FBP-YG-17.png,0.4,1.2,33,1,0,46,46,32,1,,,,,,,,,,,,,,,,,,,,,,,,,,,,,,,,,,,,,,,,
,,,,,WIN24_022,21,Male,2024-01-31_12h46.25.406,jersey_experiment_5,2023.2.2,Win32,85.47008547,,,,,,,,,,,,,,,,366.847,368.141,368.1411,369.9176,return,1.2279,,69.40104167,,,,,,FBP-PT-81.png,0.37,1.2,52,0.5,0,47,47,51,1,,,,,,,,,,,,,,,,,,,,,,,,,,,,,,,,,,,,,,,,
,,,,,WIN24_022,21,Male,2024-01-31_12h46.25.406,jersey_experiment_5,2023.2.2,Win32,85.47008547,,,,,,,,,,,,,,,,369.9179,371.2117,371.2117,372.0589,return,0.148,,82.55208333,,,,,,FBP-OG-18.png,0.45,1.2,10,0.5,0,48,48,9,1,,,,,,,,,,,,,,,,,,,,,,,,,,,,,,,,,,,,,,,,
,,,,,WIN24_022,21,Male,2024-01-31_12h46.25.406,jersey_experiment_5,2023.2.2,Win32,85.47008547,,,,,,,,,,,,,,,,372.059,373.3529,373.353,374.5882,return,0.1582,,74.86979167,,,,,,FBP-OG-17.png,0.4,1.2,3,0.5,0,49,49,2,1,,,,,,,,,,,,,,,,,,,,,,,,,,,,,,,,,,,,,,,,
,,,,,WIN24_022,21,Male,2024-01-31_12h46.25.406,jersey_experiment_5,2023.2.2,Win32,85.47008547,,,,,,,,,,,,,,,,374.5885,376.3883,376.3883,377.251,return,0.283,,68.22916667,,,,,,FBP-RB-91.png,0.37,1.2,27,1,0,50,50,26,1,,,,,,,,,,,,,,,,,,,,,,,,,,,,,,,,,,,,,,,,
,,,,,WIN24_022,21,Male,2024-01-31_12h46.25.406,jersey_experiment_5,2023.2.2,Win32,85.47008547,,,,,,,,,,,,,,,,377.2512,379.0471,379.0472,379.9062,return,0.1186,,51.5625,,,,,,FBP-RB-71.png,0.35,1.2,16,1,0,51,51,15,1,,,,,,,,,,,,,,,,,,,,,,,,,,,,,,,,,,,,,,,,
,,,,,WIN24_022,21,Male,2024-01-31_12h46.25.406,jersey_experiment_5,2023.2.2,Win32,85.47008547,,,,,,,,,,,,,,,,379.9065,381.7064,381.7064,382.8878,return,0.1547,,78.77604167,,,,,,FBP-RB-81.png,0.45,1.2,25,1,0,52,52,24,1,,,,,,,,,,,,,,,,,,,,,,,,,,,,,,,,,,,,,,,,
,,,,,WIN24_022,21,Male,2024-01-31_12h46.25.406,jersey_experiment_5,2023.2.2,Win32,85.47008547,,,,,,,,,,,,,,,,382.8879,384.1817,384.1817,385.4828,return,0.0997,,62.5,,,,,,FBP-PT-71.png,0.37,1.2,47,0.5,0,53,53,46,1,,,,,,,,,,,,,,,,,,,,,,,,,,,,,,,,,,,,,,,,
,,,,,WIN24_022,21,Male,2024-01-31_12h46.25.406,jersey_experiment_5,2023.2.2,Win32,85.47008547,,,,,,,,,,,,,,,,385.483,386.7804,386.7805,387.8997,return,0.1417,,75,,,,,,FBP-OG-18.png,0.4,1.2,8,0.5,0,54,54,7,1,,,,,,,,,,,,,,,,,,,,,,,,,,,,,,,,,,,,,,,,
,,,,,WIN24_022,21,Male,2024-01-31_12h46.25.406,jersey_experiment_5,2023.2.2,Win32,85.47008547,,,,,,,,,,,,,,,,387.8998,389.698,389.698,390.1217,return,0.2586,,74.21875,,,,,,FBP-YG-19.png,0.35,1.2,41,1,0,55,55,40,1,,,,,,,,,,,,,,,,,,,,,,,,,,,,,,,,,,,,,,,,
,,,,,WIN24_022,21,Male,2024-01-31_12h46.25.406,jersey_experiment_5,2023.2.2,Win32,85.47008547,,,,,,,,,,,,,,,,390.1218,391.9186,391.9187,392.7945,return,0.1184,,85.02604167,,,,,,FBP-YG-19.png,0.45,1.2,45,1,0,56,56,44,1,,,,,,,,,,,,,,,,,,,,,,,,,,,,,,,,,,,,,,,,
,,,,,WIN24_022,21,Male,2024-01-31_12h46.25.406,jersey_experiment_5,2023.2.2,Win32,85.47008547,,,,,,,,,,,,,,,,392.7947,394.0948,394.0949,395.9473,return,0.249,,63.80208333,,,,,,FBP-OG-18.png,0.37,1.2,7,0.5,0,57,57,6,1,,,,,,,,,,,,,,,,,,,,,,,,,,,,,,,,,,,,,,,,
,,,,,WIN24_022,21,Male,2024-01-31_12h46.25.406,jersey_experiment_5,2023.2.2,Win32,85.47008547,,,,,,,,,,,,,,,,395.9474,397.7455,397.7455,398.5537,return,0.183,,92.1875,,,,,,FBP-YG-17.png,0.45,1.2,35,1,0,58,58,34,1,,,,,,,,,,,,,,,,,,,,,,,,,,,,,,,,,,,,,,,,
,,,,,WIN24_022,21,Male,2024-01-31_12h46.25.406,jersey_experiment_5,2023.2.2,Win32,85.47008547,,,,,,,,,,,,,,,,398.5539,399.8528,399.8528,401.0363,return,0.0644,,44.53125,,,,,,FBP-PT-81.png,0.35,1.2,51,0.5,0,59,59,50,1,,,,,,,,,,,,,,,,,,,,,,,,,,,,,,,,,,,,,,,,
,,,,,WIN24_022,21,Male,2024-01-31_12h46.25.406,jersey_experiment_5,2023.2.2,Win32,85.47008547,,,,,,,,,,,,,,,,,,,,,,,,,,,,,,,,,,,,,,,401.0367,521.0443,,,,,,,,,,,,,,,,,,,,,,,,,,,,,,,,,,,,,,
,,,,,WIN24_022,21,Male,2024-01-31_12h46.25.406,jersey_experiment_5,2023.2.2,Win32,85.47008547,,,,,,,,,,,,,,,,,,,,,,,,,,,,,,,,,,,,,,,,,521.0444,522.2522,return,1.1919,,,,,,,,,,,,,,,,,,,,,,,,,,,,,,,,,,
,,,,,WIN24_022,21,Male,2024-01-31_12h46.25.406,jersey_experiment_5,2023.2.2,Win32,85.47008547,,,,,,,,,,,,,,,,522.2584,524.0557,524.0557,525.9987,return,0.8239,,80.72916667,,,,,,FBP-OG-91.png,0.43,1.2,14,1,,,,,,,,,,,,,0,0,0,13,1,,,,,,,,,,,,,,,,,,,,,,,,,,,,
,,,,,WIN24_022,21,Male,2024-01-31_12h46.25.406,jersey_experiment_5,2023.2.2,Win32,85.47008547,,,,,,,,,,,,,,,,525.999,527.7937,527.7937,528.6524,return,0.1564,,70.83333333,,,,,,FBP-PT-18.png,0.4,1.2,53,1,,,,,,,,,,,,,0,1,1,52,1,,,,,,,,,,,,,,,,,,,,,,,,,,,,
,,,,,WIN24_022,21,Male,2024-01-31_12h46.25.406,jersey_experiment_5,2023.2.2,Win32,85.47008547,,,,,,,,,,,,,,,,528.6525,530.4456,530.4456,530.9977,return,0.1417,,63.15104167,,,,,,FBP-OG-81.png,0.35,1.2,6,1,,,,,,,,,,,,,0,2,2,5,1,,,,,,,,,,,,,,,,,,,,,,,,,,,,
,,,,,WIN24_022,21,Male,2024-01-31_12h46.25.406,jersey_experiment_5,2023.2.2,Win32,85.47008547,,,,,,,,,,,,,,,,530.9979,532.7986,532.7986,533.2796,return,0.0813,,88.671875,,,,,,FBP-PT-19.png,0.45,1.2,60,1,,,,,,,,,,,,,0,3,3,59,1,,,,,,,,,,,,,,,,,,,,,,,,,,,,
,,,,,WIN24_022,21,Male,2024-01-31_12h46.25.406,jersey_experiment_5,2023.2.2,Win32,85.47008547,,,,,,,,,,,,,,,,533.2797,535.0827,535.0828,535.9999,return,0.4718,,57.68229167,,,,,,FBP-OG-91.png,0.35,1.2,11,1,,,,,,,,,,,,,0,4,4,10,1,,,,,,,,,,,,,,,,,,,,,,,,,,,,
,,,,,WIN24_022,21,Male,2024-01-31_12h46.25.406,jersey_experiment_5,2023.2.2,Win32,85.47008547,,,,,,,,,,,,,,,,536.0001,537.2924,537.2924,538.7622,return,0.1516,,94.27083333,,,,,,FBP-RB-19.png,0.45,1.2,30,0.5,,,,,,,,,,,,,0,5,5,29,1,,,,,,,,,,,,,,,,,,,,,,,,,,,,
,,,,,WIN24_022,21,Male,2024-01-31_12h46.25.406,jersey_experiment_5,2023.2.2,Win32,85.47008547,,,,,,,,,,,,,,,,538.7623,540.5638,540.5638,540.927,return,0.0239,,94.140625,,,,,,FBP-OG-81.png,0.45,1.2,10,1,,,,,,,,,,,,,0,6,6,9,1,,,,,,,,,,,,,,,,,,,,,,,,,,,,
,,,,,WIN24_022,21,Male,2024-01-31_12h46.25.406,jersey_experiment_5,2023.2.2,Win32,85.47008547,,,,,,,,,,,,,,,,540.9271,542.7284,542.7284,543.6227,return,0.5076,,65.234375,,,,,,FBP-OG-71.png,0.37,1.2,2,1,,,,,,,,,,,,,0,7,7,1,1,,,,,,,,,,,,,,,,,,,,,,,,,,,,
,,,,,WIN24_022,21,Male,2024-01-31_12h46.25.406,jersey_experiment_5,2023.2.2,Win32,85.47008547,,,,,,,,,,,,,,,,543.6228,545.4214,545.4214,546.2884,return,0.4475,,54.296875,,,,,,FBP-PT-19.png,0.35,1.2,56,1,,,,,,,,,,,,,0,8,8,55,1,,,,,,,,,,,,,,,,,,,,,,,,,,,,
,,,,,WIN24_022,21,Male,2024-01-31_12h46.25.406,jersey_experiment_5,2023.2.2,Win32,85.47008547,,,,,,,,,,,,,,,,546.2886,547.5826,547.5826,548.3709,return,0.0345,,60.80729167,,,,,,FBP-YG-81.png,0.4,1.2,38,0.5,,,,,,,,,,,,,0,9,9,37,1,,,,,,,,,,,,,,,,,,,,,,,,,,,,
,,,,,WIN24_022,21,Male,2024-01-31_12h46.25.406,jersey_experiment_5,2023.2.2,Win32,85.47008547,,,,,,,,,,,,,,,,548.3711,550.171,550.171,550.6347,return,0.0135,,86.19791667,,,,,,FBP-OG-71.png,0.45,1.2,5,1,,,,,,,,,,,,,0,10,10,4,1,,,,,,,,,,,,,,,,,,,,,,,,,,,,
,,,,,WIN24_022,21,Male,2024-01-31_12h46.25.406,jersey_experiment_5,2023.2.2,Win32,85.47008547,,,,,,,,,,,,,,,,550.6349,551.9288,551.9288,552.6063,return,0.0366,,63.93229167,,,,,,FBP-RB-19.png,0.35,1.2,26,0.5,,,,,,,,,,,,,0,11,11,25,1,,,,,,,,,,,,,,,,,,,,,,,,,,,,
,,,,,WIN24_022,21,Male,2024-01-31_12h46.25.406,jersey_experiment_5,2023.2.2,Win32,85.47008547,,,,,,,,,,,,,,,,552.6064,553.9004,553.9005,554.5945,return,0.0237,,81.77083333,,,,,,FBP-YG-71.png,0.4,1.2,33,0.5,,,,,,,,,,,,,0,12,12,32,1,,,,,,,,,,,,,,,,,,,,,,,,,,,,
,,,,,WIN24_022,21,Male,2024-01-31_12h46.25.406,jersey_experiment_5,2023.2.2,Win32,85.47008547,,,,,,,,,,,,,,,,554.5947,555.8889,555.8889,557.0215,return,0.047,,95.703125,,,,,,FBP-YG-91.png,0.45,1.2,45,0.5,,,,,,,,,,,,,0,13,13,44,1,,,,,,,,,,,,,,,,,,,,,,,,,,,,
,,,,,WIN24_022,21,Male,2024-01-31_12h46.25.406,jersey_experiment_5,2023.2.2,Win32,85.47008547,,,,,,,,,,,,,,,,557.0216,558.3289,558.3289,558.9947,return,0.0366,,97.00520833,,,,,,FBP-RB-18.png,0.43,1.2,24,0.5,,,,,,,,,,,,,0,14,14,23,1,,,,,,,,,,,,,,,,,,,,,,,,,,,,
,,,,,WIN24_022,21,Male,2024-01-31_12h46.25.406,jersey_experiment_5,2023.2.2,Win32,85.47008547,,,,,,,,,,,,,,,,558.9949,560.7863,560.7863,561.3712,return,0.065,,89.32291667,,,,,,FBP-OG-81.png,0.43,1.2,9,1,,,,,,,,,,,,,0,15,15,8,1,,,,,,,,,,,,,,,,,,,,,,,,,,,,
,,,,,WIN24_022,21,Male,2024-01-31_12h46.25.406,jersey_experiment_5,2023.2.2,Win32,85.47008547,,,,,,,,,,,,,,,,561.3714,563.1632,563.1632,563.8222,return,0.3299,,89.32291667,,,,,,FBP-OG-81.png,0.4,1.2,8,1,,,,,,,,,,,,,0,16,16,7,1,,,,,,,,,,,,,,,,,,,,,,,,,,,,
,,,,,WIN24_022,21,Male,2024-01-31_12h46.25.406,jersey_experiment_5,2023.2.2,Win32,85.47008547,,,,,,,,,,,,,,,,563.8224,565.6233,565.6233,566.4337,return,0.1179,,69.27083333,,,,,,FBP-PT-18.png,0.37,1.2,52,1,,,,,,,,,,,,,0,17,17,51,1,,,,,,,,,,,,,,,,,,,,,,,,,,,,
,,,,,WIN24_022,21,Male,2024-01-31_12h46.25.406,jersey_experiment_5,2023.2.2,Win32,85.47008547,,,,,,,,,,,,,,,,566.4339,567.7277,567.7277,568.8774,return,0.0733,,57.16145833,,,,,,FBP-RB-17.png,0.35,1.2,16,0.5,,,,,,,,,,,,,0,18,18,15,1,,,,,,,,,,,,,,,,,,,,,,,,,,,,
,,,,,WIN24_022,21,Male,2024-01-31_12h46.25.406,jersey_experiment_5,2023.2.2,Win32,85.47008547,,,,,,,,,,,,,,,,568.8776,570.6692,570.6692,571.4068,return,0.0836,,85.02604167,,,,,,FBP-OG-71.png,0.4,1.2,3,1,,,,,,,,,,,,,0,19,19,2,1,,,,,,,,,,,,,,,,,,,,,,,,,,,,
,,,,,WIN24_022,21,Male,2024-01-31_12h46.25.406,jersey_experiment_5,2023.2.2,Win32,85.47008547,,,,,,,,,,,,,,,,571.4071,572.701,572.7011,573.4186,return,0.0054,,91.66666667,,,,,,FBP-YG-81.png,0.43,1.2,39,0.5,,,,,,,,,,,,,0,20,20,38,1,,,,,,,,,,,,,,,,,,,,,,,,,,,,
,,,,,WIN24_022,21,Male,2024-01-31_12h46.25.406,jersey_experiment_5,2023.2.2,Win32,85.47008547,,,,,,,,,,,,,,,,573.4188,575.2239,575.2239,575.7247,return,0.0269,,95.57291667,,,,,,FBP-OG-91.png,0.45,1.2,15,1,,,,,,,,,,,,,0,21,21,14,1,,,,,,,,,,,,,,,,,,,,,,,,,,,,
,,,,,WIN24_022,21,Male,2024-01-31_12h46.25.406,jersey_experiment_5,2023.2.2,Win32,85.47008547,,,,,,,,,,,,,,,,575.7249,577.0189,577.0189,578.9601,return,0.0116,,71.22395833,,,,,,FBP-RB-18.png,0.4,1.2,23,0.5,,,,,,,,,,,,,0,22,22,22,1,,,,,,,,,,,,,,,,,,,,,,,,,,,,
,,,,,WIN24_022,21,Male,2024-01-31_12h46.25.406,jersey_experiment_5,2023.2.2,Win32,85.47008547,,,,,,,,,,,,,,,,578.9603,580.7602,580.7603,581.2346,return,0.0242,,88.93229167,,,,,,FBP-OG-71.png,0.43,1.2,4,1,,,,,,,,,,,,,0,23,23,3,1,,,,,,,,,,,,,,,,,,,,,,,,,,,,
,,,,,WIN24_022,21,Male,2024-01-31_12h46.25.406,jersey_experiment_5,2023.2.2,Win32,85.47008547,,,,,,,,,,,,,,,,581.2348,582.5366,582.5366,583.47,return,0.3303,,69.921875,,,,,,FBP-YG-71.png,0.37,1.2,32,0.5,,,,,,,,,,,,,0,24,24,31,1,,,,,,,,,,,,,,,,,,,,,,,,,,,,
,,,,,WIN24_022,21,Male,2024-01-31_12h46.25.406,jersey_experiment_5,2023.2.2,Win32,85.47008547,,,,,,,,,,,,,,,,583.4703,584.7721,584.7721,585.4898,return,0.2818,,69.921875,,,,,,FBP-YG-81.png,0.37,1.2,37,0.5,,,,,,,,,,,,,0,25,25,36,1,,,,,,,,,,,,,,,,,,,,,,,,,,,,
,,,,,WIN24_022,21,Male,2024-01-31_12h46.25.406,jersey_experiment_5,2023.2.2,Win32,85.47008547,,,,,,,,,,,,,,,,585.4901,587.2947,587.2947,587.8364,return,0.0005,,57.68229167,,,,,,FBP-PT-17.png,0.35,1.2,46,1,,,,,,,,,,,,,0,26,26,45,1,,,,,,,,,,,,,,,,,,,,,,,,,,,,
,,,,,WIN24_022,21,Male,2024-01-31_12h46.25.406,jersey_experiment_5,2023.2.2,Win32,85.47008547,,,,,,,,,,,,,,,,587.8364,589.6344,589.6344,590.1958,return,0.1181,,62.109375,,,,,,FBP-OG-81.png,0.37,1.2,7,1,,,,,,,,,,,,,0,27,27,6,1,,,,,,,,,,,,,,,,,,,,,,,,,,,,
,,,,,WIN24_022,21,Male,2024-01-31_12h46.25.406,jersey_experiment_5,2023.2.2,Win32,85.47008547,,,,,,,,,,,,,,,,590.1959,592.0008,592.0008,592.6229,return,0.2694,,62.109375,,,,,,FBP-OG-91.png,0.37,1.2,12,1,,,,,,,,,,,,,0,28,28,11,1,,,,,,,,,,,,,,,,,,,,,,,,,,,,
,,,,,WIN24_022,21,Male,2024-01-31_12h46.25.406,jersey_experiment_5,2023.2.2,Win32,85.47008547,,,,,,,,,,,,,,,,592.623,593.9303,593.9303,597.9373,return,0.0369,,63.28125,,,,,,FBP-YG-81.png,0.35,1.2,36,0.5,,,,,,,,,,,,,0,29,29,35,1,,,,,,,,,,,,,,,,,,,,,,,,,,,,
,,,,,WIN24_022,21,Male,2024-01-31_12h46.25.406,jersey_experiment_5,2023.2.2,Win32,85.47008547,,,,,,,,,,,,,,,,597.9375,599.2315,599.2315,600.6232,return,0.2825,,73.17708333,,,,,,FBP-RB-19.png,0.43,1.2,29,0.5,,,,,,,,,,,,,0,30,30,28,1,,,,,,,,,,,,,,,,,,,,,,,,,,,,
,,,,,WIN24_022,21,Male,2024-01-31_12h46.25.406,jersey_experiment_5,2023.2.2,Win32,85.47008547,,,,,,,,,,,,,,,,600.6233,602.4197,602.4197,603.2786,return,0.0857,,65.88541667,,,,,,FBP-PT-17.png,0.37,1.2,47,1,,,,,,,,,,,,,0,31,31,46,1,,,,,,,,,,,,,,,,,,,,,,,,,,,,
,,,,,WIN24_022,21,Male,2024-01-31_12h46.25.406,jersey_experiment_5,2023.2.2,Win32,85.47008547,,,,,,,,,,,,,,,,603.2787,604.5728,604.5729,605.7425,return,0.1412,,74.34895833,,,,,,FBP-YG-71.png,0.45,1.2,35,0.5,,,,,,,,,,,,,0,32,32,34,1,,,,,,,,,,,,,,,,,,,,,,,,,,,,
,,,,,WIN24_022,21,Male,2024-01-31_12h46.25.406,jersey_experiment_5,2023.2.2,Win32,85.47008547,,,,,,,,,,,,,,,,605.7427,607.0435,607.0435,608.0014,return,0.0708,,82.55208333,,,,,,FBP-YG-71.png,0.43,1.2,34,0.5,,,,,,,,,,,,,0,33,33,33,1,,,,,,,,,,,,,,,,,,,,,,,,,,,,
,,,,,WIN24_022,21,Male,2024-01-31_12h46.25.406,jersey_experiment_5,2023.2.2,Win32,85.47008547,,,,,,,,,,,,,,,,608.0016,609.7997,609.7997,610.2945,return,0.1051,,67.31770833,,,,,,FBP-OG-71.png,0.35,1.2,1,1,,,,,,,,,,,,,0,34,34,0,1,,,,,,,,,,,,,,,,,,,,,,,,,,,,
,,,,,WIN24_022,21,Male,2024-01-31_12h46.25.406,jersey_experiment_5,2023.2.2,Win32,85.47008547,,,,,,,,,,,,,,,,610.2946,612.0907,612.0907,612.8436,return,0.1102,,71.875,,,,,,FBP-PT-17.png,0.43,1.2,49,1,,,,,,,,,,,,,0,35,35,48,1,,,,,,,,,,,,,,,,,,,,,,,,,,,,
,,,,,WIN24_022,21,Male,2024-01-31_12h46.25.406,jersey_experiment_5,2023.2.2,Win32,85.47008547,,,,,,,,,,,,,,,,612.8438,614.6368,614.6368,615.3898,return,0.1312,,61.84895833,,,,,,FBP-PT-19.png,0.37,1.2,57,1,,,,,,,,,,,,,0,36,36,56,1,,,,,,,,,,,,,,,,,,,,,,,,,,,,
,,,,,WIN24_022,21,Male,2024-01-31_12h46.25.406,jersey_experiment_5,2023.2.2,Win32,85.47008547,,,,,,,,,,,,,,,,615.3899,616.6908,616.6908,617.679,return,0.1437,,56.77083333,,,,,,FBP-YG-91.png,0.35,1.2,41,0.5,,,,,,,,,,,,,0,37,37,40,1,,,,,,,,,,,,,,,,,,,,,,,,,,,,
,,,,,WIN24_022,21,Male,2024-01-31_12h46.25.406,jersey_experiment_5,2023.2.2,Win32,85.47008547,,,,,,,,,,,,,,,,617.6793,618.9733,618.9733,620.3313,return,0.1651,,63.54166667,,,,,,FBP-RB-19.png,0.37,1.2,27,0.5,,,,,,,,,,,,,0,38,38,26,1,,,,,,,,,,,,,,,,,,,,,,,,,,,,
,,,,,WIN24_022,21,Male,2024-01-31_12h46.25.406,jersey_experiment_5,2023.2.2,Win32,85.47008547,,,,,,,,,,,,,,,,620.3315,621.6322,621.6322,622.5381,return,0.0413,,71.484375,,,,,,FBP-RB-19.png,0.4,1.2,28,0.5,,,,,,,,,,,,,0,39,39,27,1,,,,,,,,,,,,,,,,,,,,,,,,,,,,
,,,,,WIN24_022,21,Male,2024-01-31_12h46.25.406,jersey_experiment_5,2023.2.2,Win32,85.47008547,,,,,,,,,,,,,,,,622.5383,624.3382,624.3382,625.6362,return,0.0714,,78.515625,,,,,,FBP-PT-19.png,0.43,1.2,59,1,,,,,,,,,,,,,0,40,40,58,1,,,,,,,,,,,,,,,,,,,,,,,,,,,,
,,,,,WIN24_022,21,Male,2024-01-31_12h46.25.406,jersey_experiment_5,2023.2.2,Win32,85.47008547,,,,,,,,,,,,,,,,625.6364,626.9383,626.9383,628.2848,return,0.6594,,66.14583333,,,,,,FBP-RB-18.png,0.37,1.2,22,0.5,,,,,,,,,,,,,0,41,41,21,1,,,,,,,,,,,,,,,,,,,,,,,,,,,,
,,,,,WIN24_022,21,Male,2024-01-31_12h46.25.406,jersey_experiment_5,2023.2.2,Win32,85.47008547,,,,,,,,,,,,,,,,628.2849,629.5855,629.5855,631.1973,return,0.1087,,60.546875,,,,,,FBP-RB-17.png,0.37,1.2,17,0.5,,,,,,,,,,,,,0,42,42,16,1,,,,,,,,,,,,,,,,,,,,,,,,,,,,
,,,,,WIN24_022,21,Male,2024-01-31_12h46.25.406,jersey_experiment_5,2023.2.2,Win32,85.47008547,,,,,,,,,,,,,,,,631.1974,632.4914,632.4914,633.5502,return,0.0738,,75.390625,,,,,,FBP-RB-17.png,0.43,1.2,19,0.5,,,,,,,,,,,,,0,43,43,18,1,,,,,,,,,,,,,,,,,,,,,,,,,,,,
,,,,,WIN24_022,21,Male,2024-01-31_12h46.25.406,jersey_experiment_5,2023.2.2,Win32,85.47008547,,,,,,,,,,,,,,,,633.5504,635.3433,635.3433,637.0211,return,1.0282,,64.58333333,,,,,,FBP-PT-17.png,0.4,1.2,48,1,,,,,,,,,,,,,0,44,44,47,1,,,,,,,,,,,,,,,,,,,,,,,,,,,,
,,,,,WIN24_022,21,Male,2024-01-31_12h46.25.406,jersey_experiment_5,2023.2.2,Win32,85.47008547,,,,,,,,,,,,,,,,637.0212,638.3152,638.3152,639.5153,return,0.1932,,77.47395833,,,,,,FBP-RB-17.png,0.4,1.2,18,0.5,,,,,,,,,,,,,0,45,45,17,1,,,,,,,,,,,,,,,,,,,,,,,,,,,,
,,,,,WIN24_022,21,Male,2024-01-31_12h46.25.406,jersey_experiment_5,2023.2.2,Win32,85.47008547,,,,,,,,,,,,,,,,639.5156,640.8094,640.8095,641.7271,return,0.1424,,82.421875,,,,,,FBP-YG-91.png,0.43,1.2,44,0.5,,,,,,,,,,,,,0,46,46,43,1,,,,,,,,,,,,,,,,,,,,,,,,,,,,
,,,,,WIN24_022,21,Male,2024-01-31_12h46.25.406,jersey_experiment_5,2023.2.2,Win32,85.47008547,,,,,,,,,,,,,,,,641.7274,643.532,643.532,643.966,return,0.141,,87.890625,,,,,,FBP-PT-18.png,0.45,1.2,55,1,,,,,,,,,,,,,0,47,47,54,1,,,,,,,,,,,,,,,,,,,,,,,,,,,,
,,,,,WIN24_022,21,Male,2024-01-31_12h46.25.406,jersey_experiment_5,2023.2.2,Win32,85.47008547,,,,,,,,,,,,,,,,643.966,645.7674,645.7674,646.6685,return,0.0972,,81.640625,,,,,,FBP-PT-18.png,0.43,1.2,54,1,,,,,,,,,,,,,0,48,48,53,1,,,,,,,,,,,,,,,,,,,,,,,,,,,,
,,,,,WIN24_022,21,Male,2024-01-31_12h46.25.406,jersey_experiment_5,2023.2.2,Win32,85.47008547,,,,,,,,,,,,,,,,646.6686,647.9626,647.9626,648.6214,return,0.1205,,81.90104167,,,,,,FBP-YG-81.png,0.45,1.2,40,0.5,,,,,,,,,,,,,0,49,49,39,1,,,,,,,,,,,,,,,,,,,,,,,,,,,,
,,,,,WIN24_022,21,Male,2024-01-31_12h46.25.406,jersey_experiment_5,2023.2.2,Win32,85.47008547,,,,,,,,,,,,,,,,648.6217,649.9158,649.9158,651.1331,return,0.0479,,72.52604167,,,,,,FBP-YG-91.png,0.37,1.2,42,0.5,,,,,,,,,,,,,0,50,50,41,1,,,,,,,,,,,,,,,,,,,,,,,,,,,,
,,,,,WIN24_022,21,Male,2024-01-31_12h46.25.406,jersey_experiment_5,2023.2.2,Win32,85.47008547,,,,,,,,,,,,,,,,651.1333,652.4334,652.4334,653.4723,return,0.058,,67.05729167,,,,,,FBP-RB-18.png,0.35,1.2,21,0.5,,,,,,,,,,,,,0,51,51,20,1,,,,,,,,,,,,,,,,,,,,,,,,,,,,
,,,,,WIN24_022,21,Male,2024-01-31_12h46.25.406,jersey_experiment_5,2023.2.2,Win32,85.47008547,,,,,,,,,,,,,,,,653.4725,654.7745,654.7746,655.5158,return,0.0882,,80.20833333,,,,,,FBP-RB-17.png,0.45,1.2,20,0.5,,,,,,,,,,,,,0,52,52,19,1,,,,,,,,,,,,,,,,,,,,,,,,,,,,
,,,,,WIN24_022,21,Male,2024-01-31_12h46.25.406,jersey_experiment_5,2023.2.2,Win32,85.47008547,,,,,,,,,,,,,,,,655.516,656.81,656.81,657.657,return,0.1849,,79.94791667,,,,,,FBP-YG-91.png,0.4,1.2,43,0.5,,,,,,,,,,,,,0,53,53,42,1,,,,,,,,,,,,,,,,,,,,,,,,,,,,
,,,,,WIN24_022,21,Male,2024-01-31_12h46.25.406,jersey_experiment_5,2023.2.2,Win32,85.47008547,,,,,,,,,,,,,,,,657.6572,659.4571,659.4571,660.6217,return,0.1434,,72.265625,,,,,,FBP-PT-18.png,0.35,1.2,51,1,,,,,,,,,,,,,0,54,54,50,1,,,,,,,,,,,,,,,,,,,,,,,,,,,,
,,,,,WIN24_022,21,Male,2024-01-31_12h46.25.406,jersey_experiment_5,2023.2.2,Win32,85.47008547,,,,,,,,,,,,,,,,660.6219,662.4137,662.4137,662.9631,return,0.1282,,76.04166667,,,,,,FBP-PT-19.png,0.4,1.2,58,1,,,,,,,,,,,,,0,55,55,57,1,,,,,,,,,,,,,,,,,,,,,,,,,,,,
,,,,,WIN24_022,21,Male,2024-01-31_12h46.25.406,jersey_experiment_5,2023.2.2,Win32,85.47008547,,,,,,,,,,,,,,,,662.9633,664.2573,664.2573,665.7549,return,0.1415,,79.42708333,,,,,,FBP-YG-71.png,0.35,1.2,31,0.5,,,,,,,,,,,,,0,56,56,30,1,,,,,,,,,,,,,,,,,,,,,,,,,,,,
,,,,,WIN24_022,21,Male,2024-01-31_12h46.25.406,jersey_experiment_5,2023.2.2,Win32,85.47008547,,,,,,,,,,,,,,,,665.755,667.0492,667.0492,668.639,return,0.2018,,89.32291667,,,,,,FBP-RB-18.png,0.45,1.2,25,0.5,,,,,,,,,,,,,0,57,57,24,1,,,,,,,,,,,,,,,,,,,,,,,,,,,,
,,,,,WIN24_022,21,Male,2024-01-31_12h46.25.406,jersey_experiment_5,2023.2.2,Win32,85.47008547,,,,,,,,,,,,,,,,668.6391,670.434,670.434,671.4694,return,0.1209,,71.74479167,,,,,,FBP-OG-91.png,0.4,1.2,13,1,,,,,,,,,,,,,0,58,58,12,1,,,,,,,,,,,,,,,,,,,,,,,,,,,,
,,,,,WIN24_022,21,Male,2024-01-31_12h46.25.406,jersey_experiment_5,2023.2.2,Win32,85.47008547,,,,,,,,,,,,,,,,671.4697,673.2743,673.2743,673.9635,return,0.1353,,91.40625,,,,,,FBP-PT-17.png,0.45,1.2,50,1,,,,,,,,,,,,,0,59,59,49,1,,,,,,,,,,,,,,,,,,,,,,,,,,,,
,,,,,WIN24_022,21,Male,2024-01-31_12h46.25.406,jersey_experiment_5,2023.2.2,Win32,85.47008547,,,,,,,,,,,,,,,,673.9654,675.7684,675.7684,677.7451,return,1.0488,,88.54166667,,,,,,FBP-PT-71.png,0.45,1.2,50,1,,,,,,,,,,,,,,,,,,0,0,0,49,1,,,,,,,,,,,,,,,,,,,,,,,
,,,,,WIN24_022,21,Male,2024-01-31_12h46.25.406,jersey_experiment_5,2023.2.2,Win32,85.47008547,,,,,,,,,,,,,,,,677.7453,679.039,679.039,680.4343,return,0.1652,,82.94270833,,,,,,FBP-RB-91.png,0.4,1.2,28,0.5,,,,,,,,,,,,,,,,,,0,1,1,27,1,,,,,,,,,,,,,,,,,,,,,,,
,,,,,WIN24_022,21,Male,2024-01-31_12h46.25.406,jersey_experiment_5,2023.2.2,Win32,85.47008547,,,,,,,,,,,,,,,,680.4346,682.2342,682.2343,683.2932,return,0.556,,60.15625,,,,,,FBP-PT-81.png,0.35,1.2,51,1,,,,,,,,,,,,,,,,,,0,2,2,50,1,,,,,,,,,,,,,,,,,,,,,,,
,,,,,WIN24_022,21,Male,2024-01-31_12h46.25.406,jersey_experiment_5,2023.2.2,Win32,85.47008547,,,,,,,,,,,,,,,,683.2933,684.5921,684.5921,685.3219,return,0.1547,,60.15625,,,,,,FBP-RB-81.png,0.35,1.2,21,0.5,,,,,,,,,,,,,,,,,,0,3,3,20,1,,,,,,,,,,,,,,,,,,,,,,,
,,,,,WIN24_022,21,Male,2024-01-31_12h46.25.406,jersey_experiment_5,2023.2.2,Win32,85.47008547,,,,,,,,,,,,,,,,685.322,687.1203,687.1203,687.9337,return,0.1072,,70.3125,,,,,,FBP-OG-19.png,0.37,1.2,12,1,,,,,,,,,,,,,,,,,,0,4,4,11,1,,,,,,,,,,,,,,,,,,,,,,,
,,,,,WIN24_022,21,Male,2024-01-31_12h46.25.406,jersey_experiment_5,2023.2.2,Win32,85.47008547,,,,,,,,,,,,,,,,687.9338,689.2278,689.2278,690.8521,return,0.495,,85.67708333,,,,,,FBP-RB-71.png,0.43,1.2,19,0.5,,,,,,,,,,,,,,,,,,0,5,5,18,1,,,,,,,,,,,,,,,,,,,,,,,
,,,,,WIN24_022,21,Male,2024-01-31_12h46.25.406,jersey_experiment_5,2023.2.2,Win32,85.47008547,,,,,,,,,,,,,,,,690.8522,692.6497,692.6497,694.4583,return,0.0528,,89.453125,,,,,,FBP-OG-19.png,0.4,1.2,13,1,,,,,,,,,,,,,,,,,,0,6,6,12,1,,,,,,,,,,,,,,,,,,,,,,,
,,,,,WIN24_022,21,Male,2024-01-31_12h46.25.406,jersey_experiment_5,2023.2.2,Win32,85.47008547,,,,,,,,,,,,,,,,694.4585,695.7557,695.7557,696.3996,return,0.119,,94.01041667,,,,,,FBP-RB-71.png,0.45,1.2,20,0.5,,,,,,,,,,,,,,,,,,0,7,7,19,1,,,,,,,,,,,,,,,,,,,,,,,
,,,,,WIN24_022,21,Male,2024-01-31_12h46.25.406,jersey_experiment_5,2023.2.2,Win32,85.47008547,,,,,,,,,,,,,,,,696.3998,697.6985,697.6985,698.3344,return,0.1551,,94.40104167,,,,,,FBP-YG-18.png,0.45,1.2,40,0.5,,,,,,,,,,,,,,,,,,0,8,8,39,1,,,,,,,,,,,,,,,,,,,,,,,
,,,,,WIN24_022,21,Male,2024-01-31_12h46.25.406,jersey_experiment_5,2023.2.2,Win32,85.47008547,,,,,,,,,,,,,,,,698.3345,699.6389,699.6389,701.3292,return,0.6593,,81.51041667,,,,,,FBP-RB-81.png,0.4,1.2,23,0.5,,,,,,,,,,,,,,,,,,0,9,9,22,1,,,,,,,,,,,,,,,,,,,,,,,
,,,,,WIN24_022,21,Male,2024-01-31_12h46.25.406,jersey_experiment_5,2023.2.2,Win32,85.47008547,,,,,,,,,,,,,,,,701.3295,703.1292,703.1292,703.7879,return,0.0994,,65.88541667,,,,,,FBP-PT-71.png,0.37,1.2,47,1,,,,,,,,,,,,,,,,,,0,10,10,46,1,,,,,,,,,,,,,,,,,,,,,,,
,,,,,WIN24_022,21,Male,2024-01-31_12h46.25.406,jersey_experiment_5,2023.2.2,Win32,85.47008547,,,,,,,,,,,,,,,,703.7882,705.588,705.588,705.958,return,0.1652,,62.5,,,,,,FBP-PT-91.png,0.37,1.2,57,1,,,,,,,,,,,,,,,,,,0,11,11,56,1,,,,,,,,,,,,,,,,,,,,,,,
,,,,,WIN24_022,21,Male,2024-01-31_12h46.25.406,jersey_experiment_5,2023.2.2,Win32,85.47008547,,,,,,,,,,,,,,,,705.9581,707.7528,707.7528,708.6171,return,0.0712,,58.07291667,,,,,,FBP-OG-17.png,0.37,1.2,2,1,,,,,,,,,,,,,,,,,,0,12,12,1,1,,,,,,,,,,,,,,,,,,,,,,,
,,,,,WIN24_022,21,Male,2024-01-31_12h46.25.406,jersey_experiment_5,2023.2.2,Win32,85.47008547,,,,,,,,,,,,,,,,708.6172,710.4151,710.4151,711.1294,return,0.1594,,73.828125,,,,,,FBP-PT-71.png,0.43,1.2,49,1,,,,,,,,,,,,,,,,,,0,13,13,48,1,,,,,,,,,,,,,,,,,,,,,,,
,,,,,WIN24_022,21,Male,2024-01-31_12h46.25.406,jersey_experiment_5,2023.2.2,Win32,85.47008547,,,,,,,,,,,,,,,,711.1296,712.9296,712.9296,713.8506,return,0.0708,,76.82291667,,,,,,FBP-OG-17.png,0.4,1.2,3,1,,,,,,,,,,,,,,,,,,0,14,14,2,1,,,,,,,,,,,,,,,,,,,,,,,
,,,,,WIN24_022,21,Male,2024-01-31_12h46.25.406,jersey_experiment_5,2023.2.2,Win32,85.47008547,,,,,,,,,,,,,,,,713.8507,715.1451,715.1451,715.9589,return,0.0949,,67.70833333,,,,,,FBP-YG-17.png,0.37,1.2,32,0.5,,,,,,,,,,,,,,,,,,0,15,15,31,1,,,,,,,,,,,,,,,,,,,,,,,
,,,,,WIN24_022,21,Male,2024-01-31_12h46.25.406,jersey_experiment_5,2023.2.2,Win32,85.47008547,,,,,,,,,,,,,,,,715.9591,717.7533,717.7533,718.4289,return,0.0135,,77.47395833,,,,,,FBP-OG-17.png,0.43,1.2,4,1,,,,,,,,,,,,,,,,,,0,16,16,3,1,,,,,,,,,,,,,,,,,,,,,,,
,,,,,WIN24_022,21,Male,2024-01-31_12h46.25.406,jersey_experiment_5,2023.2.2,Win32,85.47008547,,,,,,,,,,,,,,,,718.429,720.2241,720.2241,720.9938,return,0.3431,,85.546875,,,,,,FBP-PT-91.png,0.45,1.2,60,1,,,,,,,,,,,,,,,,,,0,17,17,59,1,,,,,,,,,,,,,,,,,,,,,,,
,,,,,WIN24_022,21,Male,2024-01-31_12h46.25.406,jersey_experiment_5,2023.2.2,Win32,85.47008547,,,,,,,,,,,,,,,,720.9939,722.2947,722.2947,723.0412,return,0.0947,,91.14583333,,,,,,FBP-YG-17.png,0.45,1.2,35,0.5,,,,,,,,,,,,,,,,,,0,18,18,34,1,,,,,,,,,,,,,,,,,,,,,,,
,,,,,WIN24_022,21,Male,2024-01-31_12h46.25.406,jersey_experiment_5,2023.2.2,Win32,85.47008547,,,,,,,,,,,,,,,,723.0414,724.3455,724.3455,725.2595,return,0.041,,89.71354167,,,,,,FBP-YG-19.png,0.43,1.2,44,0.5,,,,,,,,,,,,,,,,,,0,19,19,43,1,,,,,,,,,,,,,,,,,,,,,,,
,,,,,WIN24_022,21,Male,2024-01-31_12h46.25.406,jersey_experiment_5,2023.2.2,Win32,85.47008547,,,,,,,,,,,,,,,,725.2597,726.5536,726.5536,727.6397,return,0.2696,,89.71354167,,,,,,FBP-RB-71.png,0.4,1.2,18,0.5,,,,,,,,,,,,,,,,,,0,20,20,17,1,,,,,,,,,,,,,,,,,,,,,,,
,,,,,WIN24_022,21,Male,2024-01-31_12h46.25.406,jersey_experiment_5,2023.2.2,Win32,85.47008547,,,,,,,,,,,,,,,,727.64,729.4413,729.4413,730.1572,return,0.1282,,59.765625,,,,,,FBP-PT-91.png,0.35,1.2,56,1,,,,,,,,,,,,,,,,,,0,21,21,55,1,,,,,,,,,,,,,,,,,,,,,,,
,,,,,WIN24_022,21,Male,2024-01-31_12h46.25.406,jersey_experiment_5,2023.2.2,Win32,85.47008547,,,,,,,,,,,,,,,,730.1573,731.4596,731.4597,732.9707,return,0.178,,73.95833333,,,,,,FBP-RB-81.png,0.37,1.2,22,0.5,,,,,,,,,,,,,,,,,,0,22,22,21,1,,,,,,,,,,,,,,,,,,,,,,,
,,,,,WIN24_022,21,Male,2024-01-31_12h46.25.406,jersey_experiment_5,2023.2.2,Win32,85.47008547,,,,,,,,,,,,,,,,732.9708,734.7656,734.7657,735.3421,return,0.1549,,49.609375,,,,,,FBP-OG-19.png,0.35,1.2,11,1,,,,,,,,,,,,,,,,,,0,23,23,10,1,,,,,,,,,,,,,,,,,,,,,,,
,,,,,WIN24_022,21,Male,2024-01-31_12h46.25.406,jersey_experiment_5,2023.2.2,Win32,85.47008547,,,,,,,,,,,,,,,,735.3423,736.6363,736.6363,737.8178,return,0.3431,,51.5625,,,,,,FBP-RB-91.png,0.35,1.2,26,0.5,,,,,,,,,,,,,,,,,,0,24,24,25,1,,,,,,,,,,,,,,,,,,,,,,,
,,,,,WIN24_022,21,Male,2024-01-31_12h46.25.406,jersey_experiment_5,2023.2.2,Win32,85.47008547,,,,,,,,,,,,,,,,737.818,739.6162,739.6162,740.3541,return,0.1988,,66.796875,,,,,,FBP-PT-91.png,0.4,1.2,58,1,,,,,,,,,,,,,,,,,,0,25,25,57,1,,,,,,,,,,,,,,,,,,,,,,,
,,,,,WIN24_022,21,Male,2024-01-31_12h46.25.406,jersey_experiment_5,2023.2.2,Win32,85.47008547,,,,,,,,,,,,,,,,740.3542,742.1476,742.1476,743.001,return,0.4671,,66.92708333,,,,,,FBP-PT-81.png,0.4,1.2,53,1,,,,,,,,,,,,,,,,,,0,26,26,52,1,,,,,,,,,,,,,,,,,,,,,,,
,,,,,WIN24_022,21,Male,2024-01-31_12h46.25.406,jersey_experiment_5,2023.2.2,Win32,85.47008547,,,,,,,,,,,,,,,,743.0012,744.299,744.299,745.0886,return,0.1781,,77.08333333,,,,,,FBP-YG-18.png,0.43,1.2,39,0.5,,,,,,,,,,,,,,,,,,0,27,27,38,1,,,,,,,,,,,,,,,,,,,,,,,
,,,,,WIN24_022,21,Male,2024-01-31_12h46.25.406,jersey_experiment_5,2023.2.2,Win32,85.47008547,,,,,,,,,,,,,,,,745.0887,746.887,746.887,747.5778,return,0.0415,,69.53125,,,,,,FBP-PT-71.png,0.4,1.2,48,1,,,,,,,,,,,,,,,,,,0,28,28,47,1,,,,,,,,,,,,,,,,,,,,,,,
,,,,,WIN24_022,21,Male,2024-01-31_12h46.25.406,jersey_experiment_5,2023.2.2,Win32,85.47008547,,,,,,,,,,,,,,,,747.578,749.3779,749.3779,751.1695,return,0.8002,,73.69791667,,,,,,FBP-OG-19.png,0.43,1.2,14,1,,,,,,,,,,,,,,,,,,0,29,29,13,1,,,,,,,,,,,,,,,,,,,,,,,
,,,,,WIN24_022,21,Male,2024-01-31_12h46.25.406,jersey_experiment_5,2023.2.2,Win32,85.47008547,,,,,,,,,,,,,,,,751.1697,752.4721,752.4721,753.2299,return,0.0943,,83.07291667,,,,,,FBP-RB-81.png,0.45,1.2,25,0.5,,,,,,,,,,,,,,,,,,0,30,30,24,1,,,,,,,,,,,,,,,,,,,,,,,
,,,,,WIN24_022,21,Male,2024-01-31_12h46.25.406,jersey_experiment_5,2023.2.2,Win32,85.47008547,,,,,,,,,,,,,,,,753.2301,754.5345,754.5346,757.3951,return,1.9433,,47.78645833,,,,,,FBP-YG-18.png,0.35,1.2,36,0.5,,,,,,,,,,,,,,,,,,0,31,31,35,1,,,,,,,,,,,,,,,,,,,,,,,
,,,,,WIN24_022,21,Male,2024-01-31_12h46.25.406,jersey_experiment_5,2023.2.2,Win32,85.47008547,,,,,,,,,,,,,,,,757.3953,759.1934,759.1934,759.8051,return,0.0576,,50.26041667,,,,,,FBP-PT-71.png,0.35,1.2,46,1,,,,,,,,,,,,,,,,,,0,32,32,45,1,,,,,,,,,,,,,,,,,,,,,,,
,,,,,WIN24_022,21,Male,2024-01-31_12h46.25.406,jersey_experiment_5,2023.2.2,Win32,85.47008547,,,,,,,,,,,,,,,,759.8053,761.607,761.607,762.2254,return,0.0943,,68.88020833,,,,,,FBP-OG-18.png,0.43,1.2,9,1,,,,,,,,,,,,,,,,,,0,33,33,8,1,,,,,,,,,,,,,,,,,,,,,,,
,,,,,WIN24_022,21,Male,2024-01-31_12h46.25.406,jersey_experiment_5,2023.2.2,Win32,85.47008547,,,,,,,,,,,,,,,,762.2255,763.5197,763.5197,765.3431,return,0.8253,,56.77083333,,,,,,FBP-YG-18.png,0.37,1.2,37,0.5,,,,,,,,,,,,,,,,,,0,34,34,36,1,,,,,,,,,,,,,,,,,,,,,,,
,,,,,WIN24_022,21,Male,2024-01-31_12h46.25.406,jersey_experiment_5,2023.2.2,Win32,85.47008547,,,,,,,,,,,,,,,,765.3433,766.6421,766.6421,768.4543,return,1.1771,,63.54166667,,,,,,FBP-YG-19.png,0.4,1.2,43,0.5,,,,,,,,,,,,,,,,,,0,35,35,42,1,,,,,,,,,,,,,,,,,,,,,,,
,,,,,WIN24_022,21,Male,2024-01-31_12h46.25.406,jersey_experiment_5,2023.2.2,Win32,85.47008547,,,,,,,,,,,,,,,,768.4546,770.2525,770.2525,771.4293,return,0.8237,,74.34895833,,,,,,FBP-PT-91.png,0.43,1.2,59,1,,,,,,,,,,,,,,,,,,0,36,36,58,1,,,,,,,,,,,,,,,,,,,,,,,
,,,,,WIN24_022,21,Male,2024-01-31_12h46.25.406,jersey_experiment_5,2023.2.2,Win32,85.47008547,,,,,,,,,,,,,,,,771.4295,773.2307,773.2307,774.1486,return,0.46,,79.81770833,,,,,,FBP-OG-17.png,0.45,1.2,5,1,,,,,,,,,,,,,,,,,,0,37,37,4,1,,,,,,,,,,,,,,,,,,,,,,,
,,,,,WIN24_022,21,Male,2024-01-31_12h46.25.406,jersey_experiment_5,2023.2.2,Win32,85.47008547,,,,,,,,,,,,,,,,774.1487,775.4494,775.4494,776.1356,return,0.1417,,85.02604167,,,,,,FBP-RB-91.png,0.43,1.2,29,0.5,,,,,,,,,,,,,,,,,,0,38,38,28,1,,,,,,,,,,,,,,,,,,,,,,,
,,,,,WIN24_022,21,Male,2024-01-31_12h46.25.406,jersey_experiment_5,2023.2.2,Win32,85.47008547,,,,,,,,,,,,,,,,776.1357,777.4376,777.4377,778.3554,return,0.0476,,68.359375,,,,,,FBP-YG-17.png,0.35,1.2,31,0.5,,,,,,,,,,,,,,,,,,0,39,39,30,1,,,,,,,,,,,,,,,,,,,,,,,
,,,,,WIN24_022,21,Male,2024-01-31_12h46.25.406,jersey_experiment_5,2023.2.2,Win32,85.47008547,,,,,,,,,,,,,,,,778.3556,780.1487,780.1487,780.7945,return,0.1411,,88.41145833,,,,,,FBP-OG-18.png,0.45,1.2,10,1,,,,,,,,,,,,,,,,,,0,40,40,9,1,,,,,,,,,,,,,,,,,,,,,,,
,,,,,WIN24_022,21,Male,2024-01-31_12h46.25.406,jersey_experiment_5,2023.2.2,Win32,85.47008547,,,,,,,,,,,,,,,,780.7946,782.0966,782.0966,782.7477,return,0.1653,,87.5,,,,,,FBP-YG-17.png,0.43,1.2,34,0.5,,,,,,,,,,,,,,,,,,0,41,41,33,1,,,,,,,,,,,,,,,,,,,,,,,
,,,,,WIN24_022,21,Male,2024-01-31_12h46.25.406,jersey_experiment_5,2023.2.2,Win32,85.47008547,,,,,,,,,,,,,,,,782.7478,784.0497,784.0497,785.0497,return,0.1606,,61.06770833,,,,,,FBP-RB-71.png,0.35,1.2,16,0.5,,,,,,,,,,,,,,,,,,0,42,42,15,1,,,,,,,,,,,,,,,,,,,,,,,
,,,,,WIN24_022,21,Male,2024-01-31_12h46.25.406,jersey_experiment_5,2023.2.2,Win32,85.47008547,,,,,,,,,,,,,,,,785.0499,786.8497,786.8497,787.3323,return,0.0477,,88.02083333,,,,,,FBP-OG-19.png,0.45,1.2,15,1,,,,,,,,,,,,,,,,,,0,43,43,14,1,,,,,,,,,,,,,,,,,,,,,,,
,,,,,WIN24_022,21,Male,2024-01-31_12h46.25.406,jersey_experiment_5,2023.2.2,Win32,85.47008547,,,,,,,,,,,,,,,,787.3324,788.6264,788.6264,789.5372,return,0.0706,,62.76041667,,,,,,FBP-YG-17.png,0.4,1.2,33,0.5,,,,,,,,,,,,,,,,,,0,44,44,32,1,,,,,,,,,,,,,,,,,,,,,,,
,,,,,WIN24_022,21,Male,2024-01-31_12h46.25.406,jersey_experiment_5,2023.2.2,Win32,85.47008547,,,,,,,,,,,,,,,,789.5373,791.3356,791.3356,792.4317,return,0.1888,,53.125,,,,,,FBP-OG-18.png,0.37,1.2,7,1,,,,,,,,,,,,,,,,,,0,45,45,6,1,,,,,,,,,,,,,,,,,,,,,,,
,,,,,WIN24_022,21,Male,2024-01-31_12h46.25.406,jersey_experiment_5,2023.2.2,Win32,85.47008547,,,,,,,,,,,,,,,,792.4318,793.7323,793.7323,795.1207,return,0.2119,,77.99479167,,,,,,FBP-YG-19.png,0.45,1.2,45,0.5,,,,,,,,,,,,,,,,,,0,46,46,44,1,,,,,,,,,,,,,,,,,,,,,,,
,,,,,WIN24_022,21,Male,2024-01-31_12h46.25.406,jersey_experiment_5,2023.2.2,Win32,85.47008547,,,,,,,,,,,,,,,,795.1209,796.4149,796.4149,797.1325,return,0.0753,,84.24479167,,,,,,FBP-RB-81.png,0.43,1.2,24,0.5,,,,,,,,,,,,,,,,,,0,47,47,23,1,,,,,,,,,,,,,,,,,,,,,,,
,,,,,WIN24_022,21,Male,2024-01-31_12h46.25.406,jersey_experiment_5,2023.2.2,Win32,85.47008547,,,,,,,,,,,,,,,,797.1327,798.4317,798.4317,799.4267,return,0.1178,,66.796875,,,,,,FBP-RB-91.png,0.37,1.2,27,0.5,,,,,,,,,,,,,,,,,,0,48,48,26,1,,,,,,,,,,,,,,,,,,,,,,,
,,,,,WIN24_022,21,Male,2024-01-31_12h46.25.406,jersey_experiment_5,2023.2.2,Win32,85.47008547,,,,,,,,,,,,,,,,799.4269,800.7208,800.7209,801.9615,return,0.1183,,78.38541667,,,,,,FBP-YG-18.png,0.4,1.2,38,0.5,,,,,,,,,,,,,,,,,,0,49,49,37,1,,,,,,,,,,,,,,,,,,,,,,,
,,,,,WIN24_022,21,Male,2024-01-31_12h46.25.406,jersey_experiment_5,2023.2.2,Win32,85.47008547,,,,,,,,,,,,,,,,801.9617,803.7564,803.7564,807.7027,return,0.1783,,61.84895833,,,,,,FBP-PT-81.png,0.37,1.2,52,1,,,,,,,,,,,,,,,,,,0,50,50,51,1,,,,,,,,,,,,,,,,,,,,,,,
,,,,,WIN24_022,21,Male,2024-01-31_12h46.25.406,jersey_experiment_5,2023.2.2,Win32,85.47008547,,,,,,,,,,,,,,,,807.7028,809.5011,809.5011,809.8506,return,0.0418,,83.85416667,,,,,,FBP-PT-81.png,0.45,1.2,55,1,,,,,,,,,,,,,,,,,,0,51,51,54,1,,,,,,,,,,,,,,,,,,,,,,,
,,,,,WIN24_022,21,Male,2024-01-31_12h46.25.406,jersey_experiment_5,2023.2.2,Win32,85.47008547,,,,,,,,,,,,,,,,809.8507,811.6507,811.6507,812.0978,return,0.0473,,61.97916667,,,,,,FBP-OG-17.png,0.35,1.2,1,1,,,,,,,,,,,,,,,,,,0,52,52,0,1,,,,,,,,,,,,,,,,,,,,,,,
,,,,,WIN24_022,21,Male,2024-01-31_12h46.25.406,jersey_experiment_5,2023.2.2,Win32,85.47008547,,,,,,,,,,,,,,,,812.0979,813.3966,813.3966,814.7619,return,0.3902,,89.19270833,,,,,,FBP-RB-91.png,0.45,1.2,30,0.5,,,,,,,,,,,,,,,,,,0,53,53,29,1,,,,,,,,,,,,,,,,,,,,,,,
,,,,,WIN24_022,21,Male,2024-01-31_12h46.25.406,jersey_experiment_5,2023.2.2,Win32,85.47008547,,,,,,,,,,,,,,,,814.762,816.0558,816.0558,816.6783,return,0.0344,,62.109375,,,,,,FBP-YG-19.png,0.37,1.2,42,0.5,,,,,,,,,,,,,,,,,,0,54,54,41,1,,,,,,,,,,,,,,,,,,,,,,,
,,,,,WIN24_022,21,Male,2024-01-31_12h46.25.406,jersey_experiment_5,2023.2.2,Win32,85.47008547,,,,,,,,,,,,,,,,816.6785,818.4745,818.4745,818.9604,return,0.0941,,85.41666667,,,,,,FBP-OG-18.png,0.4,1.2,8,1,,,,,,,,,,,,,,,,,,0,55,55,7,1,,,,,,,,,,,,,,,,,,,,,,,
,,,,,WIN24_022,21,Male,2024-01-31_12h46.25.406,jersey_experiment_5,2023.2.2,Win32,85.47008547,,,,,,,,,,,,,,,,818.9605,820.2542,820.2542,821.4276,return,0.6731,,69.79166667,,,,,,FBP-RB-71.png,0.37,1.2,17,0.5,,,,,,,,,,,,,,,,,,0,56,56,16,1,,,,,,,,,,,,,,,,,,,,,,,
,,,,,WIN24_022,21,Male,2024-01-31_12h46.25.406,jersey_experiment_5,2023.2.2,Win32,85.47008547,,,,,,,,,,,,,,,,821.4278,823.2275,823.2275,824.816,return,1.237,,69.53125,,,,,,FBP-OG-18.png,0.35,1.2,6,1,,,,,,,,,,,,,,,,,,0,57,57,5,1,,,,,,,,,,,,,,,,,,,,,,,
,,,,,WIN24_022,21,Male,2024-01-31_12h46.25.406,jersey_experiment_5,2023.2.2,Win32,85.47008547,,,,,,,,,,,,,,,,824.8161,826.6075,826.6075,827.1628,return,0.1317,,81.90104167,,,,,,FBP-PT-81.png,0.43,1.2,54,1,,,,,,,,,,,,,,,,,,0,58,58,53,1,,,,,,,,,,,,,,,,,,,,,,,
,,,,,WIN24_022,21,Male,2024-01-31_12h46.25.406,jersey_experiment_5,2023.2.2,Win32,85.47008547,,,,,,,,,,,,,,,,827.163,828.456,828.456,829.3034,return,0.0606,,63.54166667,,,,,,FBP-YG-19.png,0.35,1.2,41,0.5,,,,,,,,,,,,,,,,,,0,59,59,40,1,,,,,,,,,,,,,,,,,,,,,,,
,,,,,WIN24_022,21,Male,2024-01-31_12h46.25.406,jersey_experiment_5,2023.2.2,Win32,85.47008547,,,,,,,,,,,,,,,,,,,,,,,,,,,,,,,,,,,,,,,,,,,,,,,,,,,,,,,,829.3036,833.0281,return,3.708,,,,,,,,,,,,,,,,,,,
,,,,,WIN24_022,21,Male,2024-01-31_12h46.25.406,jersey_experiment_5,2023.2.2,Win32,85.47008547,,,,,,,,,,,,,,,,,,,,,,,,,,,,,,,,,,,,,,,,,,,,,,,,,,,,,,,,,,,,,833.0282,837.6282,1,3.8112,return,0.7684,,,,,,,,,,,,
,,,,,WIN24_022,21,Male,2024-01-31_12h46.25.406,jersey_experiment_5,2023.2.2,Win32,85.47008547,,,,,,,,,,,,,,,,,,,,,,,,,,,,,,,,,,,,,,,,,,,,,,,,,,,,,,,,,,,,,,,,,,,,837.6283,878.1639,"Not really, I noticed the different t shirt colors, different skin colors, and different numbers but no patterns based on those. Also there heights may have been different",right,35.2487,,,,,,
,,,,,WIN24_022,21,Male,2024-01-31_12h46.25.406,jersey_experiment_5,2023.2.2,Win32,85.47008547,,,,,,,,,,,,,,,,,,,,,,,,,,,,,,,,,,,,,,,,,,,,,,,,,,,,,,,,,,,,,,,,,,,,,,,,,,878.164,880.865,return,2.6824,