requirements.started,requirements.stopped,key_resp_3.keys,key_resp_3.rt,key_resp_3.duration,Subject ID,Age,Gender,date,expName,psychopyVersion,OS,frameRate,instructions1.started,instructions1.stopped,key_resp.keys,key_resp.rt,key_resp.duration,example.started,example.stopped,enter_2.keys,enter_2.rt,enter_2.duration,instructions2.started,instructions2.stopped,enter_3.keys,enter_3.rt,enter_3.duration,image.started,image.stopped,slider_2.started,slider_2.stopped,next.keys,next.rt,next.duration,slider.response,trial_block_1.thisRepN,trial_block_1.thisTrialN,trial_block_1.thisN,trial_block_1.thisIndex,trial_block_1.ran,Path,Width,Height,Index,Duration,trial_block_2.thisRepN,trial_block_2.thisTrialN,trial_block_2.thisN,trial_block_2.thisIndex,trial_block_2.ran,rest_break.started,rest_break.stopped,end_break.started,end_break.stopped,key_resp_5.keys,key_resp_5.rt,key_resp_5.duration,trial_block_3.thisRepN,trial_block_3.thisTrialN,trial_block_3.thisN,trial_block_3.thisIndex,trial_block_3.ran,trial_block_4.thisRepN,trial_block_4.thisTrialN,trial_block_4.thisN,trial_block_4.thisIndex,trial_block_4.ran,questions_intro.started,questions_intro.stopped,enter_12.keys,enter_12.rt,enter_12.duration,question2.started,question2.stopped,question_doingbest.response,question_doingbest.rt,enter_15.keys,enter_15.rt,enter_15.duration,pattern.started,pattern.stopped,pattern_2.text,enter_17.keys,enter_17.rt,enter_17.duration,thankyou.started,thankyou.stopped,enter_14.keys,enter_14.rt,enter_14.duration
0.0001,7.169,return,7.1579,,WIN24_023,18,Female,2024-01-31_13h16.46.964,jersey_experiment_5,2023.2.2,Win32,84.74576271,,,,,,,,,,,,,,,,,,,,,,,,,,,,,,,,,,,,,,,,,,,,,,,,,,,,,,,,,,,,,,,,,,,,,,,,,,,,,,
,,,,,WIN24_023,18,Female,2024-01-31_13h16.46.964,jersey_experiment_5,2023.2.2,Win32,84.74576271,7.1691,17.0282,return,9.8482,,,,,,,,,,,,,,,,,,,,,,,,,,,,,,,,,,,,,,,,,,,,,,,,,,,,,,,,,,,,,,,,,,,,,,,,,,
,,,,,WIN24_023,18,Female,2024-01-31_13h16.46.964,jersey_experiment_5,2023.2.2,Win32,84.74576271,,,,,,17.0282,20.4514,return,3.3882,,,,,,,,,,,,,,,,,,,,,,,,,,,,,,,,,,,,,,,,,,,,,,,,,,,,,,,,,,,,,,,,,,,,,
,,,,,WIN24_023,18,Female,2024-01-31_13h16.46.964,jersey_experiment_5,2023.2.2,Win32,84.74576271,,,,,,,,,,,20.4515,27.7223,return,7.2663,,,,,,,,,,,,,,,,,,,,,,,,,,,,,,,,,,,,,,,,,,,,,,,,,,,,,,,,,,,,,,,,
,,,,,WIN24_023,18,Female,2024-01-31_13h16.46.964,jersey_experiment_5,2023.2.2,Win32,84.74576271,,,,,,,,,,,,,,,,27.7297,29.0282,29.0283,33.9226,return,1.5046,,74.08854167,0,0,0,59,1,FBP-PT-19.png,0.45,1.2,60,0.5,,,,,,,,,,,,,,,,,,,,,,,,,,,,,,,,,,,,,,,,,,,,,
,,,,,WIN24_023,18,Female,2024-01-31_13h16.46.964,jersey_experiment_5,2023.2.2,Win32,84.74576271,,,,,,,,,,,,,,,,33.9229,35.2166,35.2166,38.899,return,1.5061,,40.36458333,0,1,1,12,1,FBP-OG-91.png,0.4,1.2,13,0.5,,,,,,,,,,,,,,,,,,,,,,,,,,,,,,,,,,,,,,,,,,,,,
,,,,,WIN24_023,18,Female,2024-01-31_13h16.46.964,jersey_experiment_5,2023.2.2,Win32,84.74576271,,,,,,,,,,,,,,,,38.8993,40.6991,40.6991,44.0991,return,0.7629,,66.14583333,0,2,2,27,1,FBP-RB-19.png,0.4,1.2,28,1,,,,,,,,,,,,,,,,,,,,,,,,,,,,,,,,,,,,,,,,,,,,,
,,,,,WIN24_023,18,Female,2024-01-31_13h16.46.964,jersey_experiment_5,2023.2.2,Win32,84.74576271,,,,,,,,,,,,,,,,44.0994,45.3934,45.3934,48.4642,return,1.0838,,83.59375,0,3,3,14,1,FBP-OG-91.png,0.45,1.2,15,0.5,,,,,,,,,,,,,,,,,,,,,,,,,,,,,,,,,,,,,,,,,,,,,
,,,,,WIN24_023,18,Female,2024-01-31_13h16.46.964,jersey_experiment_5,2023.2.2,Win32,84.74576271,,,,,,,,,,,,,,,,48.4644,50.2642,50.2642,52.7819,return,0.792,,51.69270833,0,4,4,16,1,FBP-RB-17.png,0.37,1.2,17,1,,,,,,,,,,,,,,,,,,,,,,,,,,,,,,,,,,,,,,,,,,,,,
,,,,,WIN24_023,18,Female,2024-01-31_13h16.46.964,jersey_experiment_5,2023.2.2,Win32,84.74576271,,,,,,,,,,,,,,,,52.7821,54.582,54.582,56.9466,return,1.3744,,58.203125,0,5,5,17,1,FBP-RB-17.png,0.4,1.2,18,1,,,,,,,,,,,,,,,,,,,,,,,,,,,,,,,,,,,,,,,,,,,,,
,,,,,WIN24_023,18,Female,2024-01-31_13h16.46.964,jersey_experiment_5,2023.2.2,Win32,84.74576271,,,,,,,,,,,,,,,,56.9467,58.2409,58.2409,61.2999,return,0.7295,,31.640625,0,6,6,45,1,FBP-PT-17.png,0.35,1.2,46,0.5,,,,,,,,,,,,,,,,,,,,,,,,,,,,,,,,,,,,,,,,,,,,,
,,,,,WIN24_023,18,Female,2024-01-31_13h16.46.964,jersey_experiment_5,2023.2.2,Win32,84.74576271,,,,,,,,,,,,,,,,61.3001,63.0999,63.0999,65.6764,return,0.7219,,35.02604167,0,7,7,26,1,FBP-RB-19.png,0.37,1.2,27,1,,,,,,,,,,,,,,,,,,,,,,,,,,,,,,,,,,,,,,,,,,,,,
,,,,,WIN24_023,18,Female,2024-01-31_13h16.46.964,jersey_experiment_5,2023.2.2,Win32,84.74576271,,,,,,,,,,,,,,,,65.6766,66.9705,66.9705,69.8883,return,0.8599,,69.921875,0,8,8,7,1,FBP-OG-81.png,0.4,1.2,8,0.5,,,,,,,,,,,,,,,,,,,,,,,,,,,,,,,,,,,,,,,,,,,,,
,,,,,WIN24_023,18,Female,2024-01-31_13h16.46.964,jersey_experiment_5,2023.2.2,Win32,84.74576271,,,,,,,,,,,,,,,,69.8885,71.6884,71.6885,74.0768,return,0.9097,,24.73958333,0,9,9,40,1,FBP-YG-91.png,0.35,1.2,41,1,,,,,,,,,,,,,,,,,,,,,,,,,,,,,,,,,,,,,,,,,,,,,
,,,,,WIN24_023,18,Female,2024-01-31_13h16.46.964,jersey_experiment_5,2023.2.2,Win32,84.74576271,,,,,,,,,,,,,,,,74.077,75.8768,75.8768,78.9122,return,1.5439,,53.77604167,0,10,10,37,1,FBP-YG-81.png,0.4,1.2,38,1,,,,,,,,,,,,,,,,,,,,,,,,,,,,,,,,,,,,,,,,,,,,,
,,,,,WIN24_023,18,Female,2024-01-31_13h16.46.964,jersey_experiment_5,2023.2.2,Win32,84.74576271,,,,,,,,,,,,,,,,78.9124,80.2064,80.2064,83.0889,return,0.8592,,88.41145833,0,11,11,13,1,FBP-OG-91.png,0.43,1.2,14,0.5,,,,,,,,,,,,,,,,,,,,,,,,,,,,,,,,,,,,,,,,,,,,,
,,,,,WIN24_023,18,Female,2024-01-31_13h16.46.964,jersey_experiment_5,2023.2.2,Win32,84.74576271,,,,,,,,,,,,,,,,83.0891,84.383,84.383,86.7832,return,0.955,,69.40104167,0,12,12,6,1,FBP-OG-81.png,0.37,1.2,7,0.5,,,,,,,,,,,,,,,,,,,,,,,,,,,,,,,,,,,,,,,,,,,,,
,,,,,WIN24_023,18,Female,2024-01-31_13h16.46.964,jersey_experiment_5,2023.2.2,Win32,84.74576271,,,,,,,,,,,,,,,,86.7834,88.0773,88.0773,90.301,return,1.0532,,78.77604167,0,13,13,58,1,FBP-PT-19.png,0.43,1.2,59,0.5,,,,,,,,,,,,,,,,,,,,,,,,,,,,,,,,,,,,,,,,,,,,,
,,,,,WIN24_023,18,Female,2024-01-31_13h16.46.964,jersey_experiment_5,2023.2.2,Win32,84.74576271,,,,,,,,,,,,,,,,90.3011,92.1008,92.1008,94.7482,return,1.4167,,52.34375,0,14,14,41,1,FBP-YG-91.png,0.37,1.2,42,1,,,,,,,,,,,,,,,,,,,,,,,,,,,,,,,,,,,,,,,,,,,,,
,,,,,WIN24_023,18,Female,2024-01-31_13h16.46.964,jersey_experiment_5,2023.2.2,Win32,84.74576271,,,,,,,,,,,,,,,,94.7484,96.0423,96.0423,98.3953,return,0.8532,,53.77604167,0,15,15,50,1,FBP-PT-18.png,0.35,1.2,51,0.5,,,,,,,,,,,,,,,,,,,,,,,,,,,,,,,,,,,,,,,,,,,,,
,,,,,WIN24_023,18,Female,2024-01-31_13h16.46.964,jersey_experiment_5,2023.2.2,Win32,84.74576271,,,,,,,,,,,,,,,,98.3955,99.6895,99.6895,101.9366,return,0.826,,44.27083333,0,16,16,5,1,FBP-OG-81.png,0.35,1.2,6,0.5,,,,,,,,,,,,,,,,,,,,,,,,,,,,,,,,,,,,,,,,,,,,,
,,,,,WIN24_023,18,Female,2024-01-31_13h16.46.964,jersey_experiment_5,2023.2.2,Win32,84.74576271,,,,,,,,,,,,,,,,101.9368,103.2306,103.2306,104.772,return,0.8466,,48.046875,0,17,17,1,1,FBP-OG-71.png,0.37,1.2,2,0.5,,,,,,,,,,,,,,,,,,,,,,,,,,,,,,,,,,,,,,,,,,,,,
,,,,,WIN24_023,18,Female,2024-01-31_13h16.46.964,jersey_experiment_5,2023.2.2,Win32,84.74576271,,,,,,,,,,,,,,,,104.7723,106.0661,106.0661,109.2662,return,0.9642,,31.51041667,0,18,18,0,1,FBP-OG-71.png,0.35,1.2,1,0.5,,,,,,,,,,,,,,,,,,,,,,,,,,,,,,,,,,,,,,,,,,,,,
,,,,,WIN24_023,18,Female,2024-01-31_13h16.46.964,jersey_experiment_5,2023.2.2,Win32,84.74576271,,,,,,,,,,,,,,,,109.2665,110.5604,110.5604,114.5134,return,2.0853,,41.14583333,0,19,19,57,1,FBP-PT-19.png,0.4,1.2,58,0.5,,,,,,,,,,,,,,,,,,,,,,,,,,,,,,,,,,,,,,,,,,,,,
,,,,,WIN24_023,18,Female,2024-01-31_13h16.46.964,jersey_experiment_5,2023.2.2,Win32,84.74576271,,,,,,,,,,,,,,,,114.5137,116.3135,116.3135,118.6431,return,0.9887,,70.44270833,0,20,20,43,1,FBP-YG-91.png,0.43,1.2,44,1,,,,,,,,,,,,,,,,,,,,,,,,,,,,,,,,,,,,,,,,,,,,,
,,,,,WIN24_023,18,Female,2024-01-31_13h16.46.964,jersey_experiment_5,2023.2.2,Win32,84.74576271,,,,,,,,,,,,,,,,118.6433,119.9372,119.9373,122.6432,return,1.1161,,78.125,0,21,21,47,1,FBP-PT-17.png,0.4,1.2,48,0.5,,,,,,,,,,,,,,,,,,,,,,,,,,,,,,,,,,,,,,,,,,,,,
,,,,,WIN24_023,18,Female,2024-01-31_13h16.46.964,jersey_experiment_5,2023.2.2,Win32,84.74576271,,,,,,,,,,,,,,,,122.6434,123.9373,123.9373,128.2081,return,3.0502,,45.96354167,0,22,22,56,1,FBP-PT-19.png,0.37,1.2,57,0.5,,,,,,,,,,,,,,,,,,,,,,,,,,,,,,,,,,,,,,,,,,,,,
,,,,,WIN24_023,18,Female,2024-01-31_13h16.46.964,jersey_experiment_5,2023.2.2,Win32,84.74576271,,,,,,,,,,,,,,,,128.2125,130.0083,130.0083,131.5965,return,0.9201,,55.59895833,0,23,23,31,1,FBP-YG-71.png,0.37,1.2,32,1,,,,,,,,,,,,,,,,,,,,,,,,,,,,,,,,,,,,,,,,,,,,,
,,,,,WIN24_023,18,Female,2024-01-31_13h16.46.964,jersey_experiment_5,2023.2.2,Win32,84.74576271,,,,,,,,,,,,,,,,131.5968,133.3966,133.3966,135.3966,return,0.8241,,94.27083333,0,24,24,29,1,FBP-RB-19.png,0.45,1.2,30,1,,,,,,,,,,,,,,,,,,,,,,,,,,,,,,,,,,,,,,,,,,,,,
,,,,,WIN24_023,18,Female,2024-01-31_13h16.46.964,jersey_experiment_5,2023.2.2,Win32,84.74576271,,,,,,,,,,,,,,,,135.3967,136.6907,136.6907,137.9496,return,0.6623,,94.27083333,0,25,25,9,1,FBP-OG-81.png,0.45,1.2,10,0.5,,,,,,,,,,,,,,,,,,,,,,,,,,,,,,,,,,,,,,,,,,,,,
,,,,,WIN24_023,18,Female,2024-01-31_13h16.46.964,jersey_experiment_5,2023.2.2,Win32,84.74576271,,,,,,,,,,,,,,,,137.95,139.7497,139.7497,141.2792,return,0.5791,,97.13541667,0,26,26,44,1,FBP-YG-91.png,0.45,1.2,45,1,,,,,,,,,,,,,,,,,,,,,,,,,,,,,,,,,,,,,,,,,,,,,
,,,,,WIN24_023,18,Female,2024-01-31_13h16.46.964,jersey_experiment_5,2023.2.2,Win32,84.74576271,,,,,,,,,,,,,,,,141.2794,142.5733,142.5733,145.1029,return,0.6984,,28.515625,0,27,27,10,1,FBP-OG-91.png,0.35,1.2,11,0.5,,,,,,,,,,,,,,,,,,,,,,,,,,,,,,,,,,,,,,,,,,,,,
,,,,,WIN24_023,18,Female,2024-01-31_13h16.46.964,jersey_experiment_5,2023.2.2,Win32,84.74576271,,,,,,,,,,,,,,,,145.1032,146.9031,146.9032,148.4206,return,0.7438,,14.84375,0,28,28,20,1,FBP-RB-18.png,0.35,1.2,21,1,,,,,,,,,,,,,,,,,,,,,,,,,,,,,,,,,,,,,,,,,,,,,
,,,,,WIN24_023,18,Female,2024-01-31_13h16.46.964,jersey_experiment_5,2023.2.2,Win32,84.74576271,,,,,,,,,,,,,,,,148.4208,150.2209,150.2209,151.7737,return,0.6034,,35.41666667,0,29,29,32,1,FBP-YG-71.png,0.4,1.2,33,1,,,,,,,,,,,,,,,,,,,,,,,,,,,,,,,,,,,,,,,,,,,,,
,,,,,WIN24_023,18,Female,2024-01-31_13h16.46.964,jersey_experiment_5,2023.2.2,Win32,84.74576271,,,,,,,,,,,,,,,,151.7739,153.574,153.5741,155.056,return,0.6841,,67.44791667,0,30,30,18,1,FBP-RB-17.png,0.43,1.2,19,1,,,,,,,,,,,,,,,,,,,,,,,,,,,,,,,,,,,,,,,,,,,,,
,,,,,WIN24_023,18,Female,2024-01-31_13h16.46.964,jersey_experiment_5,2023.2.2,Win32,84.74576271,,,,,,,,,,,,,,,,155.0562,156.3504,156.3504,157.5033,return,0.5802,,67.44791667,0,31,31,2,1,FBP-OG-71.png,0.4,1.2,3,0.5,,,,,,,,,,,,,,,,,,,,,,,,,,,,,,,,,,,,,,,,,,,,,
,,,,,WIN24_023,18,Female,2024-01-31_13h16.46.964,jersey_experiment_5,2023.2.2,Win32,84.74576271,,,,,,,,,,,,,,,,157.5035,159.3034,159.3034,160.4916,return,0.6637,,85.9375,0,32,32,24,1,FBP-RB-18.png,0.45,1.2,25,1,,,,,,,,,,,,,,,,,,,,,,,,,,,,,,,,,,,,,,,,,,,,,
,,,,,WIN24_023,18,Female,2024-01-31_13h16.46.964,jersey_experiment_5,2023.2.2,Win32,84.74576271,,,,,,,,,,,,,,,,160.4919,161.7859,161.7859,164.2566,return,0.706,,42.70833333,0,33,33,46,1,FBP-PT-17.png,0.37,1.2,47,0.5,,,,,,,,,,,,,,,,,,,,,,,,,,,,,,,,,,,,,,,,,,,,,
,,,,,WIN24_023,18,Female,2024-01-31_13h16.46.964,jersey_experiment_5,2023.2.2,Win32,84.74576271,,,,,,,,,,,,,,,,164.2568,166.0565,166.0565,167.8919,return,0.9178,,35.02604167,0,34,34,35,1,FBP-YG-81.png,0.35,1.2,36,1,,,,,,,,,,,,,,,,,,,,,,,,,,,,,,,,,,,,,,,,,,,,,
,,,,,WIN24_023,18,Female,2024-01-31_13h16.46.964,jersey_experiment_5,2023.2.2,Win32,84.74576271,,,,,,,,,,,,,,,,167.8921,169.6919,169.692,171.6802,return,0.7184,,26.171875,0,35,35,15,1,FBP-RB-17.png,0.35,1.2,16,1,,,,,,,,,,,,,,,,,,,,,,,,,,,,,,,,,,,,,,,,,,,,,
,,,,,WIN24_023,18,Female,2024-01-31_13h16.46.964,jersey_experiment_5,2023.2.2,Win32,84.74576271,,,,,,,,,,,,,,,,171.6804,173.4805,173.4805,175.7745,return,0.8042,,80.33854167,0,36,36,39,1,FBP-YG-81.png,0.45,1.2,40,1,,,,,,,,,,,,,,,,,,,,,,,,,,,,,,,,,,,,,,,,,,,,,
,,,,,WIN24_023,18,Female,2024-01-31_13h16.46.964,jersey_experiment_5,2023.2.2,Win32,84.74576271,,,,,,,,,,,,,,,,175.7746,177.5745,177.5745,179.6335,return,0.8119,,87.36979167,0,37,37,33,1,FBP-YG-71.png,0.43,1.2,34,1,,,,,,,,,,,,,,,,,,,,,,,,,,,,,,,,,,,,,,,,,,,,,
,,,,,WIN24_023,18,Female,2024-01-31_13h16.46.964,jersey_experiment_5,2023.2.2,Win32,84.74576271,,,,,,,,,,,,,,,,179.6337,180.9275,180.9276,184.6102,return,1.2609,,34.375,0,38,38,11,1,FBP-OG-91.png,0.37,1.2,12,0.5,,,,,,,,,,,,,,,,,,,,,,,,,,,,,,,,,,,,,,,,,,,,,
,,,,,WIN24_023,18,Female,2024-01-31_13h16.46.964,jersey_experiment_5,2023.2.2,Win32,84.74576271,,,,,,,,,,,,,,,,184.6104,186.4102,186.4102,188.9634,return,0.8715,,82.55208333,0,39,39,19,1,FBP-RB-17.png,0.45,1.2,20,1,,,,,,,,,,,,,,,,,,,,,,,,,,,,,,,,,,,,,,,,,,,,,
,,,,,WIN24_023,18,Female,2024-01-31_13h16.46.964,jersey_experiment_5,2023.2.2,Win32,84.74576271,,,,,,,,,,,,,,,,188.9637,190.7633,190.7633,193.4105,return,1.2232,,68.61979167,0,40,40,22,1,FBP-RB-18.png,0.4,1.2,23,1,,,,,,,,,,,,,,,,,,,,,,,,,,,,,,,,,,,,,,,,,,,,,
,,,,,WIN24_023,18,Female,2024-01-31_13h16.46.964,jersey_experiment_5,2023.2.2,Win32,84.74576271,,,,,,,,,,,,,,,,193.4107,194.7047,194.7047,196.3165,return,0.6758,,43.09895833,0,41,41,51,1,FBP-PT-18.png,0.37,1.2,52,0.5,,,,,,,,,,,,,,,,,,,,,,,,,,,,,,,,,,,,,,,,,,,,,
,,,,,WIN24_023,18,Female,2024-01-31_13h16.46.964,jersey_experiment_5,2023.2.2,Win32,84.74576271,,,,,,,,,,,,,,,,196.3166,198.1168,198.1168,199.6461,return,0.7323,,68.22916667,0,42,42,23,1,FBP-RB-18.png,0.43,1.2,24,1,,,,,,,,,,,,,,,,,,,,,,,,,,,,,,,,,,,,,,,,,,,,,
,,,,,WIN24_023,18,Female,2024-01-31_13h16.46.964,jersey_experiment_5,2023.2.2,Win32,84.74576271,,,,,,,,,,,,,,,,199.6462,200.9402,200.9402,202.9638,return,0.6739,,68.75,0,43,43,52,1,FBP-PT-18.png,0.4,1.2,53,0.5,,,,,,,,,,,,,,,,,,,,,,,,,,,,,,,,,,,,,,,,,,,,,
,,,,,WIN24_023,18,Female,2024-01-31_13h16.46.964,jersey_experiment_5,2023.2.2,Win32,84.74576271,,,,,,,,,,,,,,,,202.964,204.7639,204.764,207.1993,return,1.0744,,15.75520833,0,44,44,21,1,FBP-RB-18.png,0.37,1.2,22,1,,,,,,,,,,,,,,,,,,,,,,,,,,,,,,,,,,,,,,,,,,,,,
,,,,,WIN24_023,18,Female,2024-01-31_13h16.46.964,jersey_experiment_5,2023.2.2,Win32,84.74576271,,,,,,,,,,,,,,,,207.1994,208.4933,208.4934,211.5524,return,1.0735,,84.375,0,45,45,8,1,FBP-OG-81.png,0.43,1.2,9,0.5,,,,,,,,,,,,,,,,,,,,,,,,,,,,,,,,,,,,,,,,,,,,,
,,,,,WIN24_023,18,Female,2024-01-31_13h16.46.964,jersey_experiment_5,2023.2.2,Win32,84.74576271,,,,,,,,,,,,,,,,211.5526,212.8465,212.8465,214.9172,return,1.2009,,84.375,0,46,46,3,1,FBP-OG-71.png,0.43,1.2,4,0.5,,,,,,,,,,,,,,,,,,,,,,,,,,,,,,,,,,,,,,,,,,,,,
,,,,,WIN24_023,18,Female,2024-01-31_13h16.46.964,jersey_experiment_5,2023.2.2,Win32,84.74576271,,,,,,,,,,,,,,,,214.9174,216.7172,216.7172,219.3879,return,1.4176,,18.22916667,0,47,47,25,1,FBP-RB-19.png,0.35,1.2,26,1,,,,,,,,,,,,,,,,,,,,,,,,,,,,,,,,,,,,,,,,,,,,,
,,,,,WIN24_023,18,Female,2024-01-31_13h16.46.964,jersey_experiment_5,2023.2.2,Win32,84.74576271,,,,,,,,,,,,,,,,219.3881,221.1881,221.1881,223.3292,return,0.9999,,98.4375,0,48,48,34,1,FBP-YG-71.png,0.45,1.2,35,1,,,,,,,,,,,,,,,,,,,,,,,,,,,,,,,,,,,,,,,,,,,,,
,,,,,WIN24_023,18,Female,2024-01-31_13h16.46.964,jersey_experiment_5,2023.2.2,Win32,84.74576271,,,,,,,,,,,,,,,,223.3294,224.6234,224.6234,225.9411,return,0.6826,,98.4375,0,49,49,48,1,FBP-PT-17.png,0.43,1.2,49,0.5,,,,,,,,,,,,,,,,,,,,,,,,,,,,,,,,,,,,,,,,,,,,,
,,,,,WIN24_023,18,Female,2024-01-31_13h16.46.964,jersey_experiment_5,2023.2.2,Win32,84.74576271,,,,,,,,,,,,,,,,225.9413,227.2352,227.2352,228.4823,return,0.5745,,98.4375,0,50,50,49,1,FBP-PT-17.png,0.45,1.2,50,0.5,,,,,,,,,,,,,,,,,,,,,,,,,,,,,,,,,,,,,,,,,,,,,
,,,,,WIN24_023,18,Female,2024-01-31_13h16.46.964,jersey_experiment_5,2023.2.2,Win32,84.74576271,,,,,,,,,,,,,,,,228.4825,229.7766,229.7766,231.4706,return,0.9085,,98.4375,0,51,51,54,1,FBP-PT-18.png,0.45,1.2,55,0.5,,,,,,,,,,,,,,,,,,,,,,,,,,,,,,,,,,,,,,,,,,,,,
,,,,,WIN24_023,18,Female,2024-01-31_13h16.46.964,jersey_experiment_5,2023.2.2,Win32,84.74576271,,,,,,,,,,,,,,,,231.4708,233.2709,233.2709,235.3884,return,0.7006,,22.13541667,0,52,52,30,1,FBP-YG-71.png,0.35,1.2,31,1,,,,,,,,,,,,,,,,,,,,,,,,,,,,,,,,,,,,,,,,,,,,,
,,,,,WIN24_023,18,Female,2024-01-31_13h16.46.964,jersey_experiment_5,2023.2.2,Win32,84.74576271,,,,,,,,,,,,,,,,235.3886,237.1886,237.1886,238.5886,return,0.6875,,22.13541667,0,53,53,36,1,FBP-YG-81.png,0.37,1.2,37,1,,,,,,,,,,,,,,,,,,,,,,,,,,,,,,,,,,,,,,,,,,,,,
,,,,,WIN24_023,18,Female,2024-01-31_13h16.46.964,jersey_experiment_5,2023.2.2,Win32,84.74576271,,,,,,,,,,,,,,,,238.5889,240.3887,240.3887,243.3299,return,1.7751,,85.80729167,0,54,54,28,1,FBP-RB-19.png,0.43,1.2,29,1,,,,,,,,,,,,,,,,,,,,,,,,,,,,,,,,,,,,,,,,,,,,,
,,,,,WIN24_023,18,Female,2024-01-31_13h16.46.964,jersey_experiment_5,2023.2.2,Win32,84.74576271,,,,,,,,,,,,,,,,243.3301,245.13,245.13,247.4595,return,0.8001,,92.44791667,0,55,55,38,1,FBP-YG-81.png,0.43,1.2,39,1,,,,,,,,,,,,,,,,,,,,,,,,,,,,,,,,,,,,,,,,,,,,,
,,,,,WIN24_023,18,Female,2024-01-31_13h16.46.964,jersey_experiment_5,2023.2.2,Win32,84.74576271,,,,,,,,,,,,,,,,247.4598,248.7537,248.7537,253.0714,return,1.3544,,92.1875,0,56,56,4,1,FBP-OG-71.png,0.45,1.2,5,0.5,,,,,,,,,,,,,,,,,,,,,,,,,,,,,,,,,,,,,,,,,,,,,
,,,,,WIN24_023,18,Female,2024-01-31_13h16.46.964,jersey_experiment_5,2023.2.2,Win32,84.74576271,,,,,,,,,,,,,,,,253.0716,254.3655,254.3656,256.7657,return,1.1674,,55.59895833,0,57,57,55,1,FBP-PT-19.png,0.35,1.2,56,0.5,,,,,,,,,,,,,,,,,,,,,,,,,,,,,,,,,,,,,,,,,,,,,
,,,,,WIN24_023,18,Female,2024-01-31_13h16.46.964,jersey_experiment_5,2023.2.2,Win32,84.74576271,,,,,,,,,,,,,,,,256.7658,258.0599,258.0599,262.3188,return,0.6483,,71.35416667,0,58,58,53,1,FBP-PT-18.png,0.43,1.2,54,0.5,,,,,,,,,,,,,,,,,,,,,,,,,,,,,,,,,,,,,,,,,,,,,
,,,,,WIN24_023,18,Female,2024-01-31_13h16.46.964,jersey_experiment_5,2023.2.2,Win32,84.74576271,,,,,,,,,,,,,,,,262.319,264.1189,264.1189,266.5897,return,0.8506,,70.96354167,0,59,59,42,1,FBP-YG-91.png,0.4,1.2,43,1,,,,,,,,,,,,,,,,,,,,,,,,,,,,,,,,,,,,,,,,,,,,,
,,,,,WIN24_023,18,Female,2024-01-31_13h16.46.964,jersey_experiment_5,2023.2.2,Win32,84.74576271,,,,,,,,,,,,,,,,266.5916,267.8837,267.8837,270.3191,return,1.6505,,78.25520833,,,,,,FBP-OG-17.png,0.4,1.2,3,0.5,0,0,0,2,1,,,,,,,,,,,,,,,,,,,,,,,,,,,,,,,,,,,,,,,,
,,,,,WIN24_023,18,Female,2024-01-31_13h16.46.964,jersey_experiment_5,2023.2.2,Win32,84.74576271,,,,,,,,,,,,,,,,270.3194,271.6133,271.6133,274.5781,return,0.7773,,52.99479167,,,,,,FBP-PT-91.png,0.37,1.2,57,0.5,0,1,1,56,1,,,,,,,,,,,,,,,,,,,,,,,,,,,,,,,,,,,,,,,,
,,,,,WIN24_023,18,Female,2024-01-31_13h16.46.964,jersey_experiment_5,2023.2.2,Win32,84.74576271,,,,,,,,,,,,,,,,274.5785,276.3784,276.3785,278.6724,return,0.9308,,77.21354167,,,,,,FBP-RB-91.png,0.43,1.2,29,1,0,2,2,28,1,,,,,,,,,,,,,,,,,,,,,,,,,,,,,,,,,,,,,,,,
,,,,,WIN24_023,18,Female,2024-01-31_13h16.46.964,jersey_experiment_5,2023.2.2,Win32,84.74576271,,,,,,,,,,,,,,,,278.6726,280.4725,280.4725,284.2607,return,2.3912,,82.94270833,,,,,,FBP-RB-81.png,0.45,1.2,25,1,0,3,3,24,1,,,,,,,,,,,,,,,,,,,,,,,,,,,,,,,,,,,,,,,,
,,,,,WIN24_023,18,Female,2024-01-31_13h16.46.964,jersey_experiment_5,2023.2.2,Win32,84.74576271,,,,,,,,,,,,,,,,284.2609,286.0608,286.0609,289.3432,return,2.2507,,97.00520833,,,,,,FBP-YG-18.png,0.45,1.2,40,1,0,4,4,39,1,,,,,,,,,,,,,,,,,,,,,,,,,,,,,,,,,,,,,,,,
,,,,,WIN24_023,18,Female,2024-01-31_13h16.46.964,jersey_experiment_5,2023.2.2,Win32,84.74576271,,,,,,,,,,,,,,,,289.3435,291.1434,291.1435,294.0611,return,0.9938,,22.00520833,,,,,,FBP-YG-17.png,0.37,1.2,32,1,0,5,5,31,1,,,,,,,,,,,,,,,,,,,,,,,,,,,,,,,,,,,,,,,,
,,,,,WIN24_023,18,Female,2024-01-31_13h16.46.964,jersey_experiment_5,2023.2.2,Win32,84.74576271,,,,,,,,,,,,,,,,294.0614,295.3553,295.3553,297.979,return,0.9942,,84.50520833,,,,,,FBP-PT-71.png,0.43,1.2,49,0.5,0,6,6,48,1,,,,,,,,,,,,,,,,,,,,,,,,,,,,,,,,,,,,,,,,
,,,,,WIN24_023,18,Female,2024-01-31_13h16.46.964,jersey_experiment_5,2023.2.2,Win32,84.74576271,,,,,,,,,,,,,,,,297.9791,299.2731,299.2732,301.3554,return,0.8073,,27.60416667,,,,,,FBP-OG-19.png,0.35,1.2,11,0.5,0,7,7,10,1,,,,,,,,,,,,,,,,,,,,,,,,,,,,,,,,,,,,,,,,
,,,,,WIN24_023,18,Female,2024-01-31_13h16.46.964,jersey_experiment_5,2023.2.2,Win32,84.74576271,,,,,,,,,,,,,,,,301.3556,302.6497,302.6497,304.8615,return,1.0268,,7.03125,,,,,,FBP-PT-71.png,0.35,1.2,46,0.5,0,8,8,45,1,,,,,,,,,,,,,,,,,,,,,,,,,,,,,,,,,,,,,,,,
,,,,,WIN24_023,18,Female,2024-01-31_13h16.46.964,jersey_experiment_5,2023.2.2,Win32,84.74576271,,,,,,,,,,,,,,,,304.8617,306.662,306.662,310.05,return,1.5434,,28.90625,,,,,,FBP-RB-71.png,0.4,1.2,18,1,0,9,9,17,1,,,,,,,,,,,,,,,,,,,,,,,,,,,,,,,,,,,,,,,,
,,,,,WIN24_023,18,Female,2024-01-31_13h16.46.964,jersey_experiment_5,2023.2.2,Win32,84.74576271,,,,,,,,,,,,,,,,310.0502,311.8501,311.8501,314.9913,return,0.8722,,28.125,,,,,,FBP-YG-19.png,0.4,1.2,43,1,0,10,10,42,1,,,,,,,,,,,,,,,,,,,,,,,,,,,,,,,,,,,,,,,,
,,,,,WIN24_023,18,Female,2024-01-31_13h16.46.964,jersey_experiment_5,2023.2.2,Win32,84.74576271,,,,,,,,,,,,,,,,314.9915,316.2858,316.2858,319.9798,return,2.9923,,30.46875,,,,,,FBP-PT-81.png,0.35,1.2,51,0.5,0,11,11,50,1,,,,,,,,,,,,,,,,,,,,,,,,,,,,,,,,,,,,,,,,
,,,,,WIN24_023,18,Female,2024-01-31_13h16.46.964,jersey_experiment_5,2023.2.2,Win32,84.74576271,,,,,,,,,,,,,,,,319.9841,321.2857,321.2857,323.3327,return,0.8237,,62.5,,,,,,FBP-PT-81.png,0.37,1.2,52,0.5,0,12,12,51,1,,,,,,,,,,,,,,,,,,,,,,,,,,,,,,,,,,,,,,,,
,,,,,WIN24_023,18,Female,2024-01-31_13h16.46.964,jersey_experiment_5,2023.2.2,Win32,84.74576271,,,,,,,,,,,,,,,,323.333,325.1332,325.1332,327.1565,return,0.815,,27.47395833,,,,,,FBP-YG-17.png,0.35,1.2,31,1,0,13,13,30,1,,,,,,,,,,,,,,,,,,,,,,,,,,,,,,,,,,,,,,,,
,,,,,WIN24_023,18,Female,2024-01-31_13h16.46.964,jersey_experiment_5,2023.2.2,Win32,84.74576271,,,,,,,,,,,,,,,,327.1568,328.9566,328.9566,331.1331,return,0.8517,,30.59895833,,,,,,FBP-RB-81.png,0.35,1.2,21,1,0,14,14,20,1,,,,,,,,,,,,,,,,,,,,,,,,,,,,,,,,,,,,,,,,
,,,,,WIN24_023,18,Female,2024-01-31_13h16.46.964,jersey_experiment_5,2023.2.2,Win32,84.74576271,,,,,,,,,,,,,,,,331.1333,332.9331,332.9332,334.6508,return,0.5492,,85.15625,,,,,,FBP-YG-19.png,0.43,1.2,44,1,0,15,15,43,1,,,,,,,,,,,,,,,,,,,,,,,,,,,,,,,,,,,,,,,,
,,,,,WIN24_023,18,Female,2024-01-31_13h16.46.964,jersey_experiment_5,2023.2.2,Win32,84.74576271,,,,,,,,,,,,,,,,334.651,336.4509,336.4509,338.298,return,0.8793,,92.578125,,,,,,FBP-YG-18.png,0.43,1.2,39,1,0,16,16,38,1,,,,,,,,,,,,,,,,,,,,,,,,,,,,,,,,,,,,,,,,
,,,,,WIN24_023,18,Female,2024-01-31_13h16.46.964,jersey_experiment_5,2023.2.2,Win32,84.74576271,,,,,,,,,,,,,,,,338.2982,340.0982,340.0982,342.2513,return,0.9017,,68.48958333,,,,,,FBP-RB-71.png,0.37,1.2,17,1,0,17,17,16,1,,,,,,,,,,,,,,,,,,,,,,,,,,,,,,,,,,,,,,,,
,,,,,WIN24_023,18,Female,2024-01-31_13h16.46.964,jersey_experiment_5,2023.2.2,Win32,84.74576271,,,,,,,,,,,,,,,,342.2516,343.5454,343.5454,345.5807,return,0.6533,,79.03645833,,,,,,FBP-PT-91.png,0.4,1.2,58,0.5,0,18,18,57,1,,,,,,,,,,,,,,,,,,,,,,,,,,,,,,,,,,,,,,,,
,,,,,WIN24_023,18,Female,2024-01-31_13h16.46.964,jersey_experiment_5,2023.2.2,Win32,84.74576271,,,,,,,,,,,,,,,,345.581,347.3808,347.3808,349.1808,return,0.8518,,94.921875,,,,,,FBP-YG-17.png,0.45,1.2,35,1,0,19,19,34,1,,,,,,,,,,,,,,,,,,,,,,,,,,,,,,,,,,,,,,,,
,,,,,WIN24_023,18,Female,2024-01-31_13h16.46.964,jersey_experiment_5,2023.2.2,Win32,84.74576271,,,,,,,,,,,,,,,,349.181,350.475,350.475,352.9221,return,0.8674,,42.578125,,,,,,FBP-OG-19.png,0.37,1.2,12,0.5,0,20,20,11,1,,,,,,,,,,,,,,,,,,,,,,,,,,,,,,,,,,,,,,,,
,,,,,WIN24_023,18,Female,2024-01-31_13h16.46.964,jersey_experiment_5,2023.2.2,Win32,84.74576271,,,,,,,,,,,,,,,,352.9222,354.2163,354.2163,356.6516,return,0.6057,,98.95833333,,,,,,FBP-PT-71.png,0.45,1.2,50,0.5,0,21,21,49,1,,,,,,,,,,,,,,,,,,,,,,,,,,,,,,,,,,,,,,,,
,,,,,WIN24_023,18,Female,2024-01-31_13h16.46.964,jersey_experiment_5,2023.2.2,Win32,84.74576271,,,,,,,,,,,,,,,,356.6518,358.4519,358.4519,360.2988,return,0.6067,,31.77083333,,,,,,FBP-YG-19.png,0.35,1.2,41,1,0,22,22,40,1,,,,,,,,,,,,,,,,,,,,,,,,,,,,,,,,,,,,,,,,
,,,,,WIN24_023,18,Female,2024-01-31_13h16.46.964,jersey_experiment_5,2023.2.2,Win32,84.74576271,,,,,,,,,,,,,,,,360.2991,361.593,361.593,363.3224,return,0.6085,,58.59375,,,,,,FBP-OG-19.png,0.45,1.2,15,0.5,0,23,23,14,1,,,,,,,,,,,,,,,,,,,,,,,,,,,,,,,,,,,,,,,,
,,,,,WIN24_023,18,Female,2024-01-31_13h16.46.964,jersey_experiment_5,2023.2.2,Win32,84.74576271,,,,,,,,,,,,,,,,363.3227,365.1224,365.1224,366.7697,return,0.636,,61.06770833,,,,,,FBP-RB-81.png,0.43,1.2,24,1,0,24,24,23,1,,,,,,,,,,,,,,,,,,,,,,,,,,,,,,,,,,,,,,,,
,,,,,WIN24_023,18,Female,2024-01-31_13h16.46.964,jersey_experiment_5,2023.2.2,Win32,84.74576271,,,,,,,,,,,,,,,,366.7698,368.0638,368.0639,370.2287,return,0.7629,,36.328125,,,,,,FBP-OG-17.png,0.35,1.2,1,0.5,0,25,25,0,1,,,,,,,,,,,,,,,,,,,,,,,,,,,,,,,,,,,,,,,,
,,,,,WIN24_023,18,Female,2024-01-31_13h16.46.964,jersey_experiment_5,2023.2.2,Win32,84.74576271,,,,,,,,,,,,,,,,370.2288,371.5228,371.5228,373.8523,return,0.9475,,41.53645833,,,,,,FBP-OG-19.png,0.4,1.2,13,0.5,0,26,26,12,1,,,,,,,,,,,,,,,,,,,,,,,,,,,,,,,,,,,,,,,,
,,,,,WIN24_023,18,Female,2024-01-31_13h16.46.964,jersey_experiment_5,2023.2.2,Win32,84.74576271,,,,,,,,,,,,,,,,373.8525,375.1465,375.1465,376.817,return,0.7077,,77.60416667,,,,,,FBP-OG-18.png,0.43,1.2,9,0.5,0,27,27,8,1,,,,,,,,,,,,,,,,,,,,,,,,,,,,,,,,,,,,,,,,
,,,,,WIN24_023,18,Female,2024-01-31_13h16.46.964,jersey_experiment_5,2023.2.2,Win32,84.74576271,,,,,,,,,,,,,,,,376.8173,378.1112,378.1113,379.5466,return,0.5961,,57.55208333,,,,,,FBP-OG-18.png,0.4,1.2,8,0.5,0,28,28,7,1,,,,,,,,,,,,,,,,,,,,,,,,,,,,,,,,,,,,,,,,
,,,,,WIN24_023,18,Female,2024-01-31_13h16.46.964,jersey_experiment_5,2023.2.2,Win32,84.74576271,,,,,,,,,,,,,,,,379.5468,381.3467,381.3467,383.2527,return,0.72,,26.953125,,,,,,FBP-YG-18.png,0.35,1.2,36,1,0,29,29,35,1,,,,,,,,,,,,,,,,,,,,,,,,,,,,,,,,,,,,,,,,
,,,,,WIN24_023,18,Female,2024-01-31_13h16.46.964,jersey_experiment_5,2023.2.2,Win32,84.74576271,,,,,,,,,,,,,,,,383.2529,385.0527,385.0527,389.5823,return,2.9813,,80.078125,,,,,,FBP-RB-71.png,0.43,1.2,19,1,0,30,30,18,1,,,,,,,,,,,,,,,,,,,,,,,,,,,,,,,,,,,,,,,,
,,,,,WIN24_023,18,Female,2024-01-31_13h16.46.964,jersey_experiment_5,2023.2.2,Win32,84.74576271,,,,,,,,,,,,,,,,389.5826,390.8765,390.8765,393.3708,return,0.7495,,30.859375,,,,,,FBP-OG-18.png,0.35,1.2,6,0.5,0,31,31,5,1,,,,,,,,,,,,,,,,,,,,,,,,,,,,,,,,,,,,,,,,
,,,,,WIN24_023,18,Female,2024-01-31_13h16.46.964,jersey_experiment_5,2023.2.2,Win32,84.74576271,,,,,,,,,,,,,,,,393.3709,395.1708,395.1708,397.1354,return,1.0269,,63.41145833,,,,,,FBP-RB-91.png,0.4,1.2,28,1,0,32,32,27,1,,,,,,,,,,,,,,,,,,,,,,,,,,,,,,,,,,,,,,,,
,,,,,WIN24_023,18,Female,2024-01-31_13h16.46.964,jersey_experiment_5,2023.2.2,Win32,84.74576271,,,,,,,,,,,,,,,,397.1358,398.4297,398.4297,401.4768,return,1.1061,,26.171875,,,,,,FBP-OG-17.png,0.37,1.2,2,0.5,0,33,33,1,1,,,,,,,,,,,,,,,,,,,,,,,,,,,,,,,,,,,,,,,,
,,,,,WIN24_023,18,Female,2024-01-31_13h16.46.964,jersey_experiment_5,2023.2.2,Win32,84.74576271,,,,,,,,,,,,,,,,401.4771,403.2772,403.2772,405.3712,return,1.0417,,72.265625,,,,,,FBP-YG-19.png,0.37,1.2,42,1,0,34,34,41,1,,,,,,,,,,,,,,,,,,,,,,,,,,,,,,,,,,,,,,,,
,,,,,WIN24_023,18,Female,2024-01-31_13h16.46.964,jersey_experiment_5,2023.2.2,Win32,84.74576271,,,,,,,,,,,,,,,,405.3715,407.171,407.171,409.0771,return,1.0691,,91.92708333,,,,,,FBP-RB-81.png,0.37,1.2,22,1,0,35,35,21,1,,,,,,,,,,,,,,,,,,,,,,,,,,,,,,,,,,,,,,,,
,,,,,WIN24_023,18,Female,2024-01-31_13h16.46.964,jersey_experiment_5,2023.2.2,Win32,84.74576271,,,,,,,,,,,,,,,,409.0773,410.8774,410.8774,412.7478,return,0.9103,,59.765625,,,,,,FBP-RB-91.png,0.37,1.2,27,1,0,36,36,26,1,,,,,,,,,,,,,,,,,,,,,,,,,,,,,,,,,,,,,,,,
,,,,,WIN24_023,18,Female,2024-01-31_13h16.46.964,jersey_experiment_5,2023.2.2,Win32,84.74576271,,,,,,,,,,,,,,,,412.7481,414.0418,414.0419,416.0774,return,0.6997,,48.828125,,,,,,FBP-PT-71.png,0.37,1.2,47,0.5,0,37,37,46,1,,,,,,,,,,,,,,,,,,,,,,,,,,,,,,,,,,,,,,,,
,,,,,WIN24_023,18,Female,2024-01-31_13h16.46.964,jersey_experiment_5,2023.2.2,Win32,84.74576271,,,,,,,,,,,,,,,,416.0776,417.3714,417.3714,420.6186,return,1.2069,,74.86979167,,,,,,FBP-OG-17.png,0.43,1.2,4,0.5,0,38,38,3,1,,,,,,,,,,,,,,,,,,,,,,,,,,,,,,,,,,,,,,,,
,,,,,WIN24_023,18,Female,2024-01-31_13h16.46.964,jersey_experiment_5,2023.2.2,Win32,84.74576271,,,,,,,,,,,,,,,,420.6189,421.9127,421.9127,423.6776,return,0.6993,,90.10416667,,,,,,FBP-OG-18.png,0.45,1.2,10,0.5,0,39,39,9,1,,,,,,,,,,,,,,,,,,,,,,,,,,,,,,,,,,,,,,,,
,,,,,WIN24_023,18,Female,2024-01-31_13h16.46.964,jersey_experiment_5,2023.2.2,Win32,84.74576271,,,,,,,,,,,,,,,,423.6778,424.9718,424.9718,426.0661,return,0.1516,,96.74479167,,,,,,FBP-PT-81.png,0.43,1.2,54,0.5,0,40,40,53,1,,,,,,,,,,,,,,,,,,,,,,,,,,,,,,,,,,,,,,,,
,,,,,WIN24_023,18,Female,2024-01-31_13h16.46.964,jersey_experiment_5,2023.2.2,Win32,84.74576271,,,,,,,,,,,,,,,,426.0664,427.3601,427.3601,429.0191,return,0.1939,,98.4375,,,,,,FBP-PT-81.png,0.45,1.2,55,0.5,0,41,41,54,1,,,,,,,,,,,,,,,,,,,,,,,,,,,,,,,,,,,,,,,,
,,,,,WIN24_023,18,Female,2024-01-31_13h16.46.964,jersey_experiment_5,2023.2.2,Win32,84.74576271,,,,,,,,,,,,,,,,429.0192,430.8192,430.8193,432.2191,return,0.1947,,92.96875,,,,,,FBP-RB-71.png,0.45,1.2,20,1,0,42,42,19,1,,,,,,,,,,,,,,,,,,,,,,,,,,,,,,,,,,,,,,,,
,,,,,WIN24_023,18,Female,2024-01-31_13h16.46.964,jersey_experiment_5,2023.2.2,Win32,84.74576271,,,,,,,,,,,,,,,,432.2192,434.0193,434.0193,435.6309,return,0.2038,,62.109375,,,,,,FBP-YG-18.png,0.4,1.2,38,1,0,43,43,37,1,,,,,,,,,,,,,,,,,,,,,,,,,,,,,,,,,,,,,,,,
,,,,,WIN24_023,18,Female,2024-01-31_13h16.46.964,jersey_experiment_5,2023.2.2,Win32,84.74576271,,,,,,,,,,,,,,,,435.6312,436.9251,436.9252,438.0782,return,0.191,,72.65625,,,,,,FBP-OG-17.png,0.45,1.2,5,0.5,0,44,44,4,1,,,,,,,,,,,,,,,,,,,,,,,,,,,,,,,,,,,,,,,,
,,,,,WIN24_023,18,Female,2024-01-31_13h16.46.964,jersey_experiment_5,2023.2.2,Win32,84.74576271,,,,,,,,,,,,,,,,438.0783,439.3723,439.3724,441.2786,return,0.2045,,96.09375,,,,,,FBP-PT-91.png,0.45,1.2,60,0.5,0,45,45,59,1,,,,,,,,,,,,,,,,,,,,,,,,,,,,,,,,,,,,,,,,
,,,,,WIN24_023,18,Female,2024-01-31_13h16.46.964,jersey_experiment_5,2023.2.2,Win32,84.74576271,,,,,,,,,,,,,,,,441.2788,442.5726,442.5727,443.8667,return,0.1481,,58.33333333,,,,,,FBP-PT-81.png,0.4,1.2,53,0.5,0,46,46,52,1,,,,,,,,,,,,,,,,,,,,,,,,,,,,,,,,,,,,,,,,
,,,,,WIN24_023,18,Female,2024-01-31_13h16.46.964,jersey_experiment_5,2023.2.2,Win32,84.74576271,,,,,,,,,,,,,,,,443.8669,445.1607,445.1608,447.055,return,0.5319,,60.15625,,,,,,FBP-OG-19.png,0.43,1.2,14,0.5,0,47,47,13,1,,,,,,,,,,,,,,,,,,,,,,,,,,,,,,,,,,,,,,,,
,,,,,WIN24_023,18,Female,2024-01-31_13h16.46.964,jersey_experiment_5,2023.2.2,Win32,84.74576271,,,,,,,,,,,,,,,,447.055,448.8552,448.8553,456.6553,return,6.8742,,80.98958333,,,,,,FBP-RB-91.png,0.45,1.2,30,1,0,48,48,29,1,,,,,,,,,,,,,,,,,,,,,,,,,,,,,,,,,,,,,,,,
,,,,,WIN24_023,18,Female,2024-01-31_13h16.46.964,jersey_experiment_5,2023.2.2,Win32,84.74576271,,,,,,,,,,,,,,,,456.6604,458.4554,458.4554,461.6791,return,1.7329,,81.640625,,,,,,FBP-YG-19.png,0.45,1.2,45,1,0,49,49,44,1,,,,,,,,,,,,,,,,,,,,,,,,,,,,,,,,,,,,,,,,
,,,,,WIN24_023,18,Female,2024-01-31_13h16.46.964,jersey_experiment_5,2023.2.2,Win32,84.74576271,,,,,,,,,,,,,,,,461.6792,463.4791,463.4791,465.5615,return,0.6091,,22.52604167,,,,,,FBP-RB-91.png,0.35,1.2,26,1,0,50,50,25,1,,,,,,,,,,,,,,,,,,,,,,,,,,,,,,,,,,,,,,,,
,,,,,WIN24_023,18,Female,2024-01-31_13h16.46.964,jersey_experiment_5,2023.2.2,Win32,84.74576271,,,,,,,,,,,,,,,,465.5617,467.3615,467.3615,470.3027,return,1.8863,,95.18229167,,,,,,FBP-YG-17.png,0.43,1.2,34,1,0,51,51,33,1,,,,,,,,,,,,,,,,,,,,,,,,,,,,,,,,,,,,,,,,
,,,,,WIN24_023,18,Female,2024-01-31_13h16.46.964,jersey_experiment_5,2023.2.2,Win32,84.74576271,,,,,,,,,,,,,,,,470.3029,471.597,471.597,473.7736,return,1.0759,,66.92708333,,,,,,FBP-PT-71.png,0.4,1.2,48,0.5,0,52,52,47,1,,,,,,,,,,,,,,,,,,,,,,,,,,,,,,,,,,,,,,,,
,,,,,WIN24_023,18,Female,2024-01-31_13h16.46.964,jersey_experiment_5,2023.2.2,Win32,84.74576271,,,,,,,,,,,,,,,,473.7738,475.5736,475.5736,478.4325,return,0.7309,,50.78125,,,,,,FBP-YG-17.png,0.4,1.2,33,1,0,53,53,32,1,,,,,,,,,,,,,,,,,,,,,,,,,,,,,,,,,,,,,,,,
,,,,,WIN24_023,18,Female,2024-01-31_13h16.46.964,jersey_experiment_5,2023.2.2,Win32,84.74576271,,,,,,,,,,,,,,,,478.4328,480.2328,480.2328,482.068,return,0.8577,,17.70833333,,,,,,FBP-RB-71.png,0.35,1.2,16,1,0,54,54,15,1,,,,,,,,,,,,,,,,,,,,,,,,,,,,,,,,,,,,,,,,
,,,,,WIN24_023,18,Female,2024-01-31_13h16.46.964,jersey_experiment_5,2023.2.2,Win32,84.74576271,,,,,,,,,,,,,,,,482.0682,483.3621,483.3621,485.6799,return,0.7301,,36.84895833,,,,,,FBP-PT-91.png,0.35,1.2,56,0.5,0,55,55,55,1,,,,,,,,,,,,,,,,,,,,,,,,,,,,,,,,,,,,,,,,
,,,,,WIN24_023,18,Female,2024-01-31_13h16.46.964,jersey_experiment_5,2023.2.2,Win32,84.74576271,,,,,,,,,,,,,,,,485.6801,487.4799,487.4799,488.9859,return,0.6912,,94.140625,,,,,,FBP-RB-81.png,0.4,1.2,23,1,0,56,56,22,1,,,,,,,,,,,,,,,,,,,,,,,,,,,,,,,,,,,,,,,,
,,,,,WIN24_023,18,Female,2024-01-31_13h16.46.964,jersey_experiment_5,2023.2.2,Win32,84.74576271,,,,,,,,,,,,,,,,488.9861,490.2802,490.2802,491.9625,return,0.7493,,39.58333333,,,,,,FBP-OG-18.png,0.37,1.2,7,0.5,0,57,57,6,1,,,,,,,,,,,,,,,,,,,,,,,,,,,,,,,,,,,,,,,,
,,,,,WIN24_023,18,Female,2024-01-31_13h16.46.964,jersey_experiment_5,2023.2.2,Win32,84.74576271,,,,,,,,,,,,,,,,491.9627,493.2569,493.2569,496.4096,return,1.6536,,96.61458333,,,,,,FBP-PT-91.png,0.43,1.2,59,0.5,0,58,58,58,1,,,,,,,,,,,,,,,,,,,,,,,,,,,,,,,,,,,,,,,,
,,,,,WIN24_023,18,Female,2024-01-31_13h16.46.964,jersey_experiment_5,2023.2.2,Win32,84.74576271,,,,,,,,,,,,,,,,496.4098,498.2098,498.2098,499.4216,return,0.2522,,80.59895833,,,,,,FBP-YG-18.png,0.37,1.2,37,1,0,59,59,36,1,,,,,,,,,,,,,,,,,,,,,,,,,,,,,,,,,,,,,,,,
,,,,,WIN24_023,18,Female,2024-01-31_13h16.46.964,jersey_experiment_5,2023.2.2,Win32,84.74576271,,,,,,,,,,,,,,,,,,,,,,,,,,,,,,,,,,,,,,,499.4219,619.4261,,,,,,,,,,,,,,,,,,,,,,,,,,,,,,,,,,,,,,
,,,,,WIN24_023,18,Female,2024-01-31_13h16.46.964,jersey_experiment_5,2023.2.2,Win32,84.74576271,,,,,,,,,,,,,,,,,,,,,,,,,,,,,,,,,,,,,,,,,619.4261,621.9086,return,2.4702,,,,,,,,,,,,,,,,,,,,,,,,,,,,,,,,,,
,,,,,WIN24_023,18,Female,2024-01-31_13h16.46.964,jersey_experiment_5,2023.2.2,Win32,84.74576271,,,,,,,,,,,,,,,,621.9145,623.7085,623.7085,626.5438,return,1.0944,,45.3125,,,,,,FBP-PT-18.png,0.37,1.2,52,1,,,,,,,,,,,,,0,0,0,51,1,,,,,,,,,,,,,,,,,,,,,,,,,,,,
,,,,,WIN24_023,18,Female,2024-01-31_13h16.46.964,jersey_experiment_5,2023.2.2,Win32,84.74576271,,,,,,,,,,,,,,,,626.5442,627.838,627.8381,629.8028,return,0.7821,,67.05729167,,,,,,FBP-YG-91.png,0.4,1.2,43,0.5,,,,,,,,,,,,,0,1,1,42,1,,,,,,,,,,,,,,,,,,,,,,,,,,,,
,,,,,WIN24_023,18,Female,2024-01-31_13h16.46.964,jersey_experiment_5,2023.2.2,Win32,84.74576271,,,,,,,,,,,,,,,,629.803,631.0968,631.0968,632.5439,return,0.8026,,57.29166667,,,,,,FBP-RB-19.png,0.37,1.2,27,0.5,,,,,,,,,,,,,0,2,2,26,1,,,,,,,,,,,,,,,,,,,,,,,,,,,,
,,,,,WIN24_023,18,Female,2024-01-31_13h16.46.964,jersey_experiment_5,2023.2.2,Win32,84.74576271,,,,,,,,,,,,,,,,632.5441,633.8382,633.8382,635.6029,return,0.7876,,92.83854167,,,,,,FBP-RB-19.png,0.45,1.2,30,0.5,,,,,,,,,,,,,0,3,3,29,1,,,,,,,,,,,,,,,,,,,,,,,,,,,,
,,,,,WIN24_023,18,Female,2024-01-31_13h16.46.964,jersey_experiment_5,2023.2.2,Win32,84.74576271,,,,,,,,,,,,,,,,635.6031,636.8971,636.8972,638.6383,return,0.7804,,90.75520833,,,,,,FBP-YG-81.png,0.43,1.2,39,0.5,,,,,,,,,,,,,0,4,4,38,1,,,,,,,,,,,,,,,,,,,,,,,,,,,,
,,,,,WIN24_023,18,Female,2024-01-31_13h16.46.964,jersey_experiment_5,2023.2.2,Win32,84.74576271,,,,,,,,,,,,,,,,638.6385,640.4384,640.4385,641.7797,return,0.602,,95.3125,,,,,,FBP-OG-71.png,0.43,1.2,4,1,,,,,,,,,,,,,0,5,5,3,1,,,,,,,,,,,,,,,,,,,,,,,,,,,,
,,,,,WIN24_023,18,Female,2024-01-31_13h16.46.964,jersey_experiment_5,2023.2.2,Win32,84.74576271,,,,,,,,,,,,,,,,641.7798,643.0737,643.0737,644.9445,return,0.7401,,34.24479167,,,,,,FBP-YG-71.png,0.35,1.2,31,0.5,,,,,,,,,,,,,0,6,6,30,1,,,,,,,,,,,,,,,,,,,,,,,,,,,,
,,,,,WIN24_023,18,Female,2024-01-31_13h16.46.964,jersey_experiment_5,2023.2.2,Win32,84.74576271,,,,,,,,,,,,,,,,644.9445,646.2388,646.2388,647.6033,return,0.6211,,18.61979167,,,,,,FBP-YG-81.png,0.35,1.2,36,0.5,,,,,,,,,,,,,0,7,7,35,1,,,,,,,,,,,,,,,,,,,,,,,,,,,,
,,,,,WIN24_023,18,Female,2024-01-31_13h16.46.964,jersey_experiment_5,2023.2.2,Win32,84.74576271,,,,,,,,,,,,,,,,647.6035,649.4036,649.4037,651.1564,return,0.9274,,64.0625,,,,,,FBP-OG-91.png,0.45,1.2,15,1,,,,,,,,,,,,,0,8,8,14,1,,,,,,,,,,,,,,,,,,,,,,,,,,,,
,,,,,WIN24_023,18,Female,2024-01-31_13h16.46.964,jersey_experiment_5,2023.2.2,Win32,84.74576271,,,,,,,,,,,,,,,,651.1566,652.4504,652.4504,654.2742,return,0.7915,,82.68229167,,,,,,FBP-RB-19.png,0.43,1.2,29,0.5,,,,,,,,,,,,,0,9,9,28,1,,,,,,,,,,,,,,,,,,,,,,,,,,,,
,,,,,WIN24_023,18,Female,2024-01-31_13h16.46.964,jersey_experiment_5,2023.2.2,Win32,84.74576271,,,,,,,,,,,,,,,,654.2745,656.0744,656.0744,657.6155,return,0.8614,,62.76041667,,,,,,FBP-OG-81.png,0.37,1.2,7,1,,,,,,,,,,,,,0,10,10,6,1,,,,,,,,,,,,,,,,,,,,,,,,,,,,
,,,,,WIN24_023,18,Female,2024-01-31_13h16.46.964,jersey_experiment_5,2023.2.2,Win32,84.74576271,,,,,,,,,,,,,,,,657.6158,658.9097,658.9098,660.8274,return,0.7698,,33.46354167,,,,,,FBP-YG-91.png,0.35,1.2,41,0.5,,,,,,,,,,,,,0,11,11,40,1,,,,,,,,,,,,,,,,,,,,,,,,,,,,
,,,,,WIN24_023,18,Female,2024-01-31_13h16.46.964,jersey_experiment_5,2023.2.2,Win32,84.74576271,,,,,,,,,,,,,,,,660.8275,662.6277,662.6278,664.1215,return,0.8172,,80.98958333,,,,,,FBP-PT-17.png,0.4,1.2,48,1,,,,,,,,,,,,,0,12,12,47,1,,,,,,,,,,,,,,,,,,,,,,,,,,,,
,,,,,WIN24_023,18,Female,2024-01-31_13h16.46.964,jersey_experiment_5,2023.2.2,Win32,84.74576271,,,,,,,,,,,,,,,,664.1217,665.4158,665.4158,667.0746,return,0.9172,,80.98958333,,,,,,FBP-YG-71.png,0.37,1.2,32,0.5,,,,,,,,,,,,,0,13,13,31,1,,,,,,,,,,,,,,,,,,,,,,,,,,,,
,,,,,WIN24_023,18,Female,2024-01-31_13h16.46.964,jersey_experiment_5,2023.2.2,Win32,84.74576271,,,,,,,,,,,,,,,,667.0748,668.3689,668.3689,670.2983,return,0.7965,,80.98958333,,,,,,FBP-YG-71.png,0.4,1.2,33,0.5,,,,,,,,,,,,,0,14,14,32,1,,,,,,,,,,,,,,,,,,,,,,,,,,,,
,,,,,WIN24_023,18,Female,2024-01-31_13h16.46.964,jersey_experiment_5,2023.2.2,Win32,84.74576271,,,,,,,,,,,,,,,,670.2984,672.0983,672.0983,674.7691,return,1.8835,,59.375,,,,,,FBP-PT-19.png,0.37,1.2,57,1,,,,,,,,,,,,,0,15,15,56,1,,,,,,,,,,,,,,,,,,,,,,,,,,,,
,,,,,WIN24_023,18,Female,2024-01-31_13h16.46.964,jersey_experiment_5,2023.2.2,Win32,84.74576271,,,,,,,,,,,,,,,,674.7693,676.0632,676.0632,677.9338,return,1.1674,,81.90104167,,,,,,FBP-YG-71.png,0.43,1.2,34,0.5,,,,,,,,,,,,,0,16,16,33,1,,,,,,,,,,,,,,,,,,,,,,,,,,,,
,,,,,WIN24_023,18,Female,2024-01-31_13h16.46.964,jersey_experiment_5,2023.2.2,Win32,84.74576271,,,,,,,,,,,,,,,,677.934,679.7342,679.7342,683.6281,return,3.2632,,89.84375,,,,,,FBP-PT-19.png,0.4,1.2,58,1,,,,,,,,,,,,,0,17,17,57,1,,,,,,,,,,,,,,,,,,,,,,,,,,,,
,,,,,WIN24_023,18,Female,2024-01-31_13h16.46.964,jersey_experiment_5,2023.2.2,Win32,84.74576271,,,,,,,,,,,,,,,,683.6326,684.9341,684.9341,686.3812,return,0.2638,,33.07291667,,,,,,FBP-RB-17.png,0.35,1.2,16,0.5,,,,,,,,,,,,,0,18,18,15,1,,,,,,,,,,,,,,,,,,,,,,,,,,,,
,,,,,WIN24_023,18,Female,2024-01-31_13h16.46.964,jersey_experiment_5,2023.2.2,Win32,84.74576271,,,,,,,,,,,,,,,,686.3814,687.6754,687.6754,688.7225,return,0.2835,,83.85416667,,,,,,FBP-RB-18.png,0.4,1.2,23,0.5,,,,,,,,,,,,,0,19,19,22,1,,,,,,,,,,,,,,,,,,,,,,,,,,,,
,,,,,WIN24_023,18,Female,2024-01-31_13h16.46.964,jersey_experiment_5,2023.2.2,Win32,84.74576271,,,,,,,,,,,,,,,,688.7228,690.5225,690.5225,691.4402,return,0.2707,,98.56770833,,,,,,FBP-OG-81.png,0.45,1.2,10,1,,,,,,,,,,,,,0,20,20,9,1,,,,,,,,,,,,,,,,,,,,,,,,,,,,
,,,,,WIN24_023,18,Female,2024-01-31_13h16.46.964,jersey_experiment_5,2023.2.2,Win32,84.74576271,,,,,,,,,,,,,,,,691.4405,692.7344,692.7344,693.8991,return,0.2781,,85.80729167,,,,,,FBP-RB-19.png,0.4,1.2,28,0.5,,,,,,,,,,,,,0,21,21,27,1,,,,,,,,,,,,,,,,,,,,,,,,,,,,
,,,,,WIN24_023,18,Female,2024-01-31_13h16.46.964,jersey_experiment_5,2023.2.2,Win32,84.74576271,,,,,,,,,,,,,,,,693.8993,695.1933,695.1934,697.1345,return,0.3203,,9.375,,,,,,FBP-RB-17.png,0.4,1.2,18,0.5,,,,,,,,,,,,,0,22,22,17,1,,,,,,,,,,,,,,,,,,,,,,,,,,,,
,,,,,WIN24_023,18,Female,2024-01-31_13h16.46.964,jersey_experiment_5,2023.2.2,Win32,84.74576271,,,,,,,,,,,,,,,,697.1347,698.4288,698.4289,699.7466,return,0.3401,,96.35416667,,,,,,FBP-RB-17.png,0.45,1.2,20,0.5,,,,,,,,,,,,,0,23,23,19,1,,,,,,,,,,,,,,,,,,,,,,,,,,,,
,,,,,WIN24_023,18,Female,2024-01-31_13h16.46.964,jersey_experiment_5,2023.2.2,Win32,84.74576271,,,,,,,,,,,,,,,,699.7468,701.5468,701.5468,702.2995,return,0.1941,,85.15625,,,,,,FBP-PT-19.png,0.43,1.2,59,1,,,,,,,,,,,,,0,24,24,58,1,,,,,,,,,,,,,,,,,,,,,,,,,,,,
,,,,,WIN24_023,18,Female,2024-01-31_13h16.46.964,jersey_experiment_5,2023.2.2,Win32,84.74576271,,,,,,,,,,,,,,,,702.2997,704.0997,704.0997,704.9466,return,0.1747,,60.67708333,,,,,,FBP-OG-71.png,0.4,1.2,3,1,,,,,,,,,,,,,0,25,25,2,1,,,,,,,,,,,,,,,,,,,,,,,,,,,,
,,,,,WIN24_023,18,Female,2024-01-31_13h16.46.964,jersey_experiment_5,2023.2.2,Win32,84.74576271,,,,,,,,,,,,,,,,704.9468,706.7467,706.7467,708.335,return,0.2389,,87.890625,,,,,,FBP-PT-17.png,0.45,1.2,50,1,,,,,,,,,,,,,0,26,26,49,1,,,,,,,,,,,,,,,,,,,,,,,,,,,,
,,,,,WIN24_023,18,Female,2024-01-31_13h16.46.964,jersey_experiment_5,2023.2.2,Win32,84.74576271,,,,,,,,,,,,,,,,708.3351,709.6291,709.6291,710.7703,return,0.3048,,96.74479167,,,,,,FBP-RB-18.png,0.43,1.2,24,0.5,,,,,,,,,,,,,0,27,27,23,1,,,,,,,,,,,,,,,,,,,,,,,,,,,,
,,,,,WIN24_023,18,Female,2024-01-31_13h16.46.964,jersey_experiment_5,2023.2.2,Win32,84.74576271,,,,,,,,,,,,,,,,710.7706,712.0645,712.0645,713.4058,return,0.2986,,89.84375,,,,,,FBP-YG-71.png,0.45,1.2,35,0.5,,,,,,,,,,,,,0,28,28,34,1,,,,,,,,,,,,,,,,,,,,,,,,,,,,
,,,,,WIN24_023,18,Female,2024-01-31_13h16.46.964,jersey_experiment_5,2023.2.2,Win32,84.74576271,,,,,,,,,,,,,,,,713.406,714.7005,714.7006,716.3941,return,0.1955,,30.98958333,,,,,,FBP-RB-17.png,0.37,1.2,17,0.5,,,,,,,,,,,,,0,29,29,16,1,,,,,,,,,,,,,,,,,,,,,,,,,,,,
,,,,,WIN24_023,18,Female,2024-01-31_13h16.46.964,jersey_experiment_5,2023.2.2,Win32,84.74576271,,,,,,,,,,,,,,,,716.3943,718.1943,718.1943,719.5353,return,0.2008,,40.234375,,,,,,FBP-PT-18.png,0.4,1.2,53,1,,,,,,,,,,,,,0,30,30,52,1,,,,,,,,,,,,,,,,,,,,,,,,,,,,
,,,,,WIN24_023,18,Female,2024-01-31_13h16.46.964,jersey_experiment_5,2023.2.2,Win32,84.74576271,,,,,,,,,,,,,,,,719.5356,721.3357,721.3357,722.9118,return,0.26,,19.921875,,,,,,FBP-OG-91.png,0.37,1.2,12,1,,,,,,,,,,,,,0,31,31,11,1,,,,,,,,,,,,,,,,,,,,,,,,,,,,
,,,,,WIN24_023,18,Female,2024-01-31_13h16.46.964,jersey_experiment_5,2023.2.2,Win32,84.74576271,,,,,,,,,,,,,,,,722.912,724.7122,724.7122,725.9708,return,0.2133,,82.8125,,,,,,FBP-OG-91.png,0.43,1.2,14,1,,,,,,,,,,,,,0,32,32,13,1,,,,,,,,,,,,,,,,,,,,,,,,,,,,
,,,,,WIN24_023,18,Female,2024-01-31_13h16.46.964,jersey_experiment_5,2023.2.2,Win32,84.74576271,,,,,,,,,,,,,,,,725.9711,727.7709,727.7709,729.242,return,0.3132,,34.375,,,,,,FBP-OG-91.png,0.35,1.2,11,1,,,,,,,,,,,,,0,33,33,10,1,,,,,,,,,,,,,,,,,,,,,,,,,,,,
,,,,,WIN24_023,18,Female,2024-01-31_13h16.46.964,jersey_experiment_5,2023.2.2,Win32,84.74576271,,,,,,,,,,,,,,,,729.2422,730.5358,730.5358,731.7946,return,0.2825,,83.07291667,,,,,,FBP-YG-91.png,0.43,1.2,44,0.5,,,,,,,,,,,,,0,34,34,43,1,,,,,,,,,,,,,,,,,,,,,,,,,,,,
,,,,,WIN24_023,18,Female,2024-01-31_13h16.46.964,jersey_experiment_5,2023.2.2,Win32,84.74576271,,,,,,,,,,,,,,,,731.7948,733.0887,733.0887,734.3829,return,0.2252,,69.40104167,,,,,,FBP-YG-81.png,0.4,1.2,38,0.5,,,,,,,,,,,,,0,35,35,37,1,,,,,,,,,,,,,,,,,,,,,,,,,,,,
,,,,,WIN24_023,18,Female,2024-01-31_13h16.46.964,jersey_experiment_5,2023.2.2,Win32,84.74576271,,,,,,,,,,,,,,,,734.3832,736.1832,736.1832,737.4183,return,0.2901,,11.84895833,,,,,,FBP-PT-18.png,0.35,1.2,51,1,,,,,,,,,,,,,0,36,36,50,1,,,,,,,,,,,,,,,,,,,,,,,,,,,,
,,,,,WIN24_023,18,Female,2024-01-31_13h16.46.964,jersey_experiment_5,2023.2.2,Win32,84.74576271,,,,,,,,,,,,,,,,737.4185,738.7125,738.7125,740.442,return,0.1947,,4.036458333,,,,,,FBP-YG-91.png,0.37,1.2,42,0.5,,,,,,,,,,,,,0,37,37,41,1,,,,,,,,,,,,,,,,,,,,,,,,,,,,
,,,,,WIN24_023,18,Female,2024-01-31_13h16.46.964,jersey_experiment_5,2023.2.2,Win32,84.74576271,,,,,,,,,,,,,,,,740.4422,742.2421,742.2421,743.3481,return,0.2224,,87.890625,,,,,,FBP-OG-71.png,0.45,1.2,5,1,,,,,,,,,,,,,0,38,38,4,1,,,,,,,,,,,,,,,,,,,,,,,,,,,,
,,,,,WIN24_023,18,Female,2024-01-31_13h16.46.964,jersey_experiment_5,2023.2.2,Win32,84.74576271,,,,,,,,,,,,,,,,743.3484,745.1483,745.1484,746.4424,return,0.2888,,72.91666667,,,,,,FBP-PT-17.png,0.43,1.2,49,1,,,,,,,,,,,,,0,39,39,48,1,,,,,,,,,,,,,,,,,,,,,,,,,,,,
,,,,,WIN24_023,18,Female,2024-01-31_13h16.46.964,jersey_experiment_5,2023.2.2,Win32,84.74576271,,,,,,,,,,,,,,,,746.4426,748.2424,748.2424,749.4189,return,0.2426,,29.6875,,,,,,FBP-OG-71.png,0.37,1.2,2,1,,,,,,,,,,,,,0,40,40,1,1,,,,,,,,,,,,,,,,,,,,,,,,,,,,
,,,,,WIN24_023,18,Female,2024-01-31_13h16.46.964,jersey_experiment_5,2023.2.2,Win32,84.74576271,,,,,,,,,,,,,,,,749.4189,750.713,750.713,751.9955,return,0.2407,,81.11979167,,,,,,FBP-YG-91.png,0.45,1.2,45,0.5,,,,,,,,,,,,,0,41,41,44,1,,,,,,,,,,,,,,,,,,,,,,,,,,,,
,,,,,WIN24_023,18,Female,2024-01-31_13h16.46.964,jersey_experiment_5,2023.2.2,Win32,84.74576271,,,,,,,,,,,,,,,,751.9956,753.7954,753.7954,754.6661,return,0.2303,,81.77083333,,,,,,FBP-PT-18.png,0.43,1.2,54,1,,,,,,,,,,,,,0,42,42,53,1,,,,,,,,,,,,,,,,,,,,,,,,,,,,
,,,,,WIN24_023,18,Female,2024-01-31_13h16.46.964,jersey_experiment_5,2023.2.2,Win32,84.74576271,,,,,,,,,,,,,,,,754.6664,756.4663,756.4664,757.3133,return,0.1312,,71.35416667,,,,,,FBP-OG-91.png,0.4,1.2,13,1,,,,,,,,,,,,,0,43,43,12,1,,,,,,,,,,,,,,,,,,,,,,,,,,,,
,,,,,WIN24_023,18,Female,2024-01-31_13h16.46.964,jersey_experiment_5,2023.2.2,Win32,84.74576271,,,,,,,,,,,,,,,,757.3134,759.1132,759.1133,760.5133,return,0.2834,,29.42708333,,,,,,FBP-OG-81.png,0.35,1.2,6,1,,,,,,,,,,,,,0,44,44,5,1,,,,,,,,,,,,,,,,,,,,,,,,,,,,
,,,,,WIN24_023,18,Female,2024-01-31_13h16.46.964,jersey_experiment_5,2023.2.2,Win32,84.74576271,,,,,,,,,,,,,,,,760.5135,761.8077,761.8077,763.5958,return,0.7715,,95.44270833,,,,,,FBP-RB-18.png,0.45,1.2,25,0.5,,,,,,,,,,,,,0,45,45,24,1,,,,,,,,,,,,,,,,,,,,,,,,,,,,
,,,,,WIN24_023,18,Female,2024-01-31_13h16.46.964,jersey_experiment_5,2023.2.2,Win32,84.74576271,,,,,,,,,,,,,,,,763.5961,765.3959,765.396,767.3136,return,0.908,,24.34895833,,,,,,FBP-PT-17.png,0.37,1.2,47,1,,,,,,,,,,,,,0,46,46,46,1,,,,,,,,,,,,,,,,,,,,,,,,,,,,
,,,,,WIN24_023,18,Female,2024-01-31_13h16.46.964,jersey_experiment_5,2023.2.2,Win32,84.74576271,,,,,,,,,,,,,,,,767.3137,769.1137,769.1138,771.043,return,0.927,,94.140625,,,,,,FBP-PT-19.png,0.45,1.2,60,1,,,,,,,,,,,,,0,47,47,59,1,,,,,,,,,,,,,,,,,,,,,,,,,,,,
,,,,,WIN24_023,18,Female,2024-01-31_13h16.46.964,jersey_experiment_5,2023.2.2,Win32,84.74576271,,,,,,,,,,,,,,,,771.0432,772.3372,772.3373,773.808,return,0.377,,8.854166667,,,,,,FBP-RB-18.png,0.35,1.2,21,0.5,,,,,,,,,,,,,0,48,48,20,1,,,,,,,,,,,,,,,,,,,,,,,,,,,,
,,,,,WIN24_023,18,Female,2024-01-31_13h16.46.964,jersey_experiment_5,2023.2.2,Win32,84.74576271,,,,,,,,,,,,,,,,773.8081,775.1021,775.1022,776.3138,return,0.2203,,0.651041667,,,,,,FBP-RB-19.png,0.35,1.2,26,0.5,,,,,,,,,,,,,0,49,49,25,1,,,,,,,,,,,,,,,,,,,,,,,,,,,,
,,,,,WIN24_023,18,Female,2024-01-31_13h16.46.964,jersey_experiment_5,2023.2.2,Win32,84.74576271,,,,,,,,,,,,,,,,776.314,778.114,778.114,778.7964,return,0.0982,,13.41145833,,,,,,FBP-OG-71.png,0.35,1.2,1,1,,,,,,,,,,,,,0,50,50,0,1,,,,,,,,,,,,,,,,,,,,,,,,,,,,
,,,,,WIN24_023,18,Female,2024-01-31_13h16.46.964,jersey_experiment_5,2023.2.2,Win32,84.74576271,,,,,,,,,,,,,,,,778.7966,780.0905,780.0906,781.1496,return,0.1912,,6.770833333,,,,,,FBP-RB-18.png,0.37,1.2,22,0.5,,,,,,,,,,,,,0,51,51,21,1,,,,,,,,,,,,,,,,,,,,,,,,,,,,
,,,,,WIN24_023,18,Female,2024-01-31_13h16.46.964,jersey_experiment_5,2023.2.2,Win32,84.74576271,,,,,,,,,,,,,,,,781.1497,782.4437,782.4438,784.2435,return,1.0122,,57.421875,,,,,,FBP-RB-17.png,0.43,1.2,19,0.5,,,,,,,,,,,,,0,52,52,18,1,,,,,,,,,,,,,,,,,,,,,,,,,,,,
,,,,,WIN24_023,18,Female,2024-01-31_13h16.46.964,jersey_experiment_5,2023.2.2,Win32,84.74576271,,,,,,,,,,,,,,,,784.2438,785.5377,785.5378,787.0555,return,0.4615,,80.859375,,,,,,FBP-YG-81.png,0.45,1.2,40,0.5,,,,,,,,,,,,,0,53,53,39,1,,,,,,,,,,,,,,,,,,,,,,,,,,,,
,,,,,WIN24_023,18,Female,2024-01-31_13h16.46.964,jersey_experiment_5,2023.2.2,Win32,84.74576271,,,,,,,,,,,,,,,,787.0557,788.8555,788.8555,789.6908,return,0.1691,,69.27083333,,,,,,FBP-OG-81.png,0.43,1.2,9,1,,,,,,,,,,,,,0,54,54,8,1,,,,,,,,,,,,,,,,,,,,,,,,,,,,
,,,,,WIN24_023,18,Female,2024-01-31_13h16.46.964,jersey_experiment_5,2023.2.2,Win32,84.74576271,,,,,,,,,,,,,,,,789.6911,791.4909,791.4909,792.8204,return,0.2129,,23.046875,,,,,,FBP-PT-17.png,0.35,1.2,46,1,,,,,,,,,,,,,0,55,55,45,1,,,,,,,,,,,,,,,,,,,,,,,,,,,,
,,,,,WIN24_023,18,Female,2024-01-31_13h16.46.964,jersey_experiment_5,2023.2.2,Win32,84.74576271,,,,,,,,,,,,,,,,792.8205,794.6206,794.6206,795.8205,return,0.429,,44.40104167,,,,,,FBP-PT-19.png,0.35,1.2,56,1,,,,,,,,,,,,,0,56,56,55,1,,,,,,,,,,,,,,,,,,,,,,,,,,,,
,,,,,WIN24_023,18,Female,2024-01-31_13h16.46.964,jersey_experiment_5,2023.2.2,Win32,84.74576271,,,,,,,,,,,,,,,,795.8206,797.6207,797.6207,798.4676,return,0.2123,,59.89583333,,,,,,FBP-OG-81.png,0.4,1.2,8,1,,,,,,,,,,,,,0,57,57,7,1,,,,,,,,,,,,,,,,,,,,,,,,,,,,
,,,,,WIN24_023,18,Female,2024-01-31_13h16.46.964,jersey_experiment_5,2023.2.2,Win32,84.74576271,,,,,,,,,,,,,,,,798.4678,799.7618,799.7618,801.3265,return,0.2731,,13.80208333,,,,,,FBP-YG-81.png,0.37,1.2,37,0.5,,,,,,,,,,,,,0,58,58,36,1,,,,,,,,,,,,,,,,,,,,,,,,,,,,
,,,,,WIN24_023,18,Female,2024-01-31_13h16.46.964,jersey_experiment_5,2023.2.2,Win32,84.74576271,,,,,,,,,,,,,,,,801.3267,803.1266,803.1267,804.2678,return,0.2419,,82.68229167,,,,,,FBP-PT-18.png,0.45,1.2,55,1,,,,,,,,,,,,,0,59,59,54,1,,,,,,,,,,,,,,,,,,,,,,,,,,,,
,,,,,WIN24_023,18,Female,2024-01-31_13h16.46.964,jersey_experiment_5,2023.2.2,Win32,84.74576271,,,,,,,,,,,,,,,,804.2697,805.562,805.562,806.6914,return,0.2119,,66.015625,,,,,,FBP-RB-91.png,0.43,1.2,29,0.5,,,,,,,,,,,,,,,,,,0,0,0,28,1,,,,,,,,,,,,,,,,,,,,,,,
,,,,,WIN24_023,18,Female,2024-01-31_13h16.46.964,jersey_experiment_5,2023.2.2,Win32,84.74576271,,,,,,,,,,,,,,,,806.6918,808.4917,808.4917,809.7386,return,0.4286,,85.15625,,,,,,FBP-PT-81.png,0.45,1.2,55,1,,,,,,,,,,,,,,,,,,0,1,1,54,1,,,,,,,,,,,,,,,,,,,,,,,
,,,,,WIN24_023,18,Female,2024-01-31_13h16.46.964,jersey_experiment_5,2023.2.2,Win32,84.74576271,,,,,,,,,,,,,,,,809.7389,811.0328,811.0328,812.1623,return,0.2595,,68.61979167,,,,,,FBP-YG-17.png,0.43,1.2,34,0.5,,,,,,,,,,,,,,,,,,0,2,2,33,1,,,,,,,,,,,,,,,,,,,,,,,
,,,,,WIN24_023,18,Female,2024-01-31_13h16.46.964,jersey_experiment_5,2023.2.2,Win32,84.74576271,,,,,,,,,,,,,,,,812.1624,813.9623,813.9623,816.5156,return,0.1665,,31.38020833,,,,,,FBP-OG-19.png,0.37,1.2,12,1,,,,,,,,,,,,,,,,,,0,3,3,11,1,,,,,,,,,,,,,,,,,,,,,,,
,,,,,WIN24_023,18,Female,2024-01-31_13h16.46.964,jersey_experiment_5,2023.2.2,Win32,84.74576271,,,,,,,,,,,,,,,,816.5158,817.8096,817.8096,819.1978,return,0.2982,,86.45833333,,,,,,FBP-RB-71.png,0.45,1.2,20,0.5,,,,,,,,,,,,,,,,,,0,4,4,19,1,,,,,,,,,,,,,,,,,,,,,,,
,,,,,WIN24_023,18,Female,2024-01-31_13h16.46.964,jersey_experiment_5,2023.2.2,Win32,84.74576271,,,,,,,,,,,,,,,,819.198,820.9979,820.9979,822.092,return,0.2766,,26.5625,,,,,,FBP-PT-91.png,0.37,1.2,57,1,,,,,,,,,,,,,,,,,,0,5,5,56,1,,,,,,,,,,,,,,,,,,,,,,,
,,,,,WIN24_023,18,Female,2024-01-31_13h16.46.964,jersey_experiment_5,2023.2.2,Win32,84.74576271,,,,,,,,,,,,,,,,822.0922,823.3865,823.3866,824.7628,return,0.2664,,3.645833333,,,,,,FBP-RB-81.png,0.35,1.2,21,0.5,,,,,,,,,,,,,,,,,,0,6,6,20,1,,,,,,,,,,,,,,,,,,,,,,,
,,,,,WIN24_023,18,Female,2024-01-31_13h16.46.964,jersey_experiment_5,2023.2.2,Win32,84.74576271,,,,,,,,,,,,,,,,824.7631,826.563,826.5631,827.9394,return,0.3857,,79.296875,,,,,,FBP-PT-91.png,0.43,1.2,59,1,,,,,,,,,,,,,,,,,,0,7,7,58,1,,,,,,,,,,,,,,,,,,,,,,,
,,,,,WIN24_023,18,Female,2024-01-31_13h16.46.964,jersey_experiment_5,2023.2.2,Win32,84.74576271,,,,,,,,,,,,,,,,827.9396,829.7394,829.7394,831.563,return,0.8543,,87.23958333,,,,,,FBP-PT-81.png,0.43,1.2,54,1,,,,,,,,,,,,,,,,,,0,8,8,53,1,,,,,,,,,,,,,,,,,,,,,,,
,,,,,WIN24_023,18,Female,2024-01-31_13h16.46.964,jersey_experiment_5,2023.2.2,Win32,84.74576271,,,,,,,,,,,,,,,,831.5631,833.3632,833.3632,834.5748,return,0.3327,,40.625,,,,,,FBP-PT-71.png,0.35,1.2,46,1,,,,,,,,,,,,,,,,,,0,9,9,45,1,,,,,,,,,,,,,,,,,,,,,,,
,,,,,WIN24_023,18,Female,2024-01-31_13h16.46.964,jersey_experiment_5,2023.2.2,Win32,84.74576271,,,,,,,,,,,,,,,,834.575,835.869,835.869,837.6925,return,0.2528,,67.70833333,,,,,,FBP-RB-81.png,0.37,1.2,22,0.5,,,,,,,,,,,,,,,,,,0,10,10,21,1,,,,,,,,,,,,,,,,,,,,,,,
,,,,,WIN24_023,18,Female,2024-01-31_13h16.46.964,jersey_experiment_5,2023.2.2,Win32,84.74576271,,,,,,,,,,,,,,,,837.6928,838.9868,838.9868,840.3046,return,0.3059,,57.68229167,,,,,,FBP-RB-71.png,0.4,1.2,18,0.5,,,,,,,,,,,,,,,,,,0,11,11,17,1,,,,,,,,,,,,,,,,,,,,,,,
,,,,,WIN24_023,18,Female,2024-01-31_13h16.46.964,jersey_experiment_5,2023.2.2,Win32,84.74576271,,,,,,,,,,,,,,,,840.3047,842.1045,842.1046,843.234,return,0.2827,,31.640625,,,,,,FBP-OG-17.png,0.35,1.2,1,1,,,,,,,,,,,,,,,,,,0,12,12,0,1,,,,,,,,,,,,,,,,,,,,,,,
,,,,,WIN24_023,18,Female,2024-01-31_13h16.46.964,jersey_experiment_5,2023.2.2,Win32,84.74576271,,,,,,,,,,,,,,,,843.2341,845.0343,845.0343,846.1753,return,0.3426,,93.22916667,,,,,,FBP-OG-17.png,0.45,1.2,5,1,,,,,,,,,,,,,,,,,,0,13,13,4,1,,,,,,,,,,,,,,,,,,,,,,,
,,,,,WIN24_023,18,Female,2024-01-31_13h16.46.964,jersey_experiment_5,2023.2.2,Win32,84.74576271,,,,,,,,,,,,,,,,846.1755,847.9754,847.9754,849.1989,return,0.1898,,67.1875,,,,,,FBP-PT-91.png,0.4,1.2,58,1,,,,,,,,,,,,,,,,,,0,14,14,57,1,,,,,,,,,,,,,,,,,,,,,,,
,,,,,WIN24_023,18,Female,2024-01-31_13h16.46.964,jersey_experiment_5,2023.2.2,Win32,84.74576271,,,,,,,,,,,,,,,,849.1991,850.999,850.9991,852.9873,return,0.9131,,47.52604167,,,,,,FBP-OG-17.png,0.37,1.2,2,1,,,,,,,,,,,,,,,,,,0,15,15,1,1,,,,,,,,,,,,,,,,,,,,,,,
,,,,,WIN24_023,18,Female,2024-01-31_13h16.46.964,jersey_experiment_5,2023.2.2,Win32,84.74576271,,,,,,,,,,,,,,,,852.9875,854.2814,854.2814,855.2579,return,0.2201,,41.015625,,,,,,FBP-YG-18.png,0.4,1.2,38,0.5,,,,,,,,,,,,,,,,,,0,16,16,37,1,,,,,,,,,,,,,,,,,,,,,,,
,,,,,WIN24_023,18,Female,2024-01-31_13h16.46.964,jersey_experiment_5,2023.2.2,Win32,84.74576271,,,,,,,,,,,,,,,,855.2581,856.552,856.552,857.6345,return,0.2459,,33.46354167,,,,,,FBP-YG-17.png,0.4,1.2,33,0.5,,,,,,,,,,,,,,,,,,0,17,17,32,1,,,,,,,,,,,,,,,,,,,,,,,
,,,,,WIN24_023,18,Female,2024-01-31_13h16.46.964,jersey_experiment_5,2023.2.2,Win32,84.74576271,,,,,,,,,,,,,,,,857.6347,858.9288,858.9289,859.8698,return,0.2487,,81.51041667,,,,,,FBP-RB-91.png,0.45,1.2,30,0.5,,,,,,,,,,,,,,,,,,0,18,18,29,1,,,,,,,,,,,,,,,,,,,,,,,
,,,,,WIN24_023,18,Female,2024-01-31_13h16.46.964,jersey_experiment_5,2023.2.2,Win32,84.74576271,,,,,,,,,,,,,,,,859.8701,861.164,861.1641,862.976,return,0.2845,,19.66145833,,,,,,FBP-YG-19.png,0.35,1.2,41,0.5,,,,,,,,,,,,,,,,,,0,19,19,40,1,,,,,,,,,,,,,,,,,,,,,,,
,,,,,WIN24_023,18,Female,2024-01-31_13h16.46.964,jersey_experiment_5,2023.2.2,Win32,84.74576271,,,,,,,,,,,,,,,,862.9762,864.27,864.2701,865.7642,return,0.4847,,83.07291667,,,,,,FBP-RB-81.png,0.45,1.2,25,0.5,,,,,,,,,,,,,,,,,,0,20,20,24,1,,,,,,,,,,,,,,,,,,,,,,,
,,,,,WIN24_023,18,Female,2024-01-31_13h16.46.964,jersey_experiment_5,2023.2.2,Win32,84.74576271,,,,,,,,,,,,,,,,865.7644,867.0584,867.0584,868.7172,return,0.4521,,61.58854167,,,,,,FBP-RB-71.png,0.43,1.2,19,0.5,,,,,,,,,,,,,,,,,,0,21,21,18,1,,,,,,,,,,,,,,,,,,,,,,,
,,,,,WIN24_023,18,Female,2024-01-31_13h16.46.964,jersey_experiment_5,2023.2.2,Win32,84.74576271,,,,,,,,,,,,,,,,868.7175,870.0114,870.0114,871.5529,return,0.3301,,31.38020833,,,,,,FBP-YG-17.png,0.37,1.2,32,0.5,,,,,,,,,,,,,,,,,,0,22,22,31,1,,,,,,,,,,,,,,,,,,,,,,,
,,,,,WIN24_023,18,Female,2024-01-31_13h16.46.964,jersey_experiment_5,2023.2.2,Win32,84.74576271,,,,,,,,,,,,,,,,871.553,872.8467,872.8467,874.6824,return,1.0887,,44.921875,,,,,,FBP-YG-18.png,0.43,1.2,39,0.5,,,,,,,,,,,,,,,,,,0,23,23,38,1,,,,,,,,,,,,,,,,,,,,,,,
,,,,,WIN24_023,18,Female,2024-01-31_13h16.46.964,jersey_experiment_5,2023.2.2,Win32,84.74576271,,,,,,,,,,,,,,,,874.6826,875.9763,875.9763,877.1057,return,0.343,,36.58854167,,,,,,FBP-RB-91.png,0.37,1.2,27,0.5,,,,,,,,,,,,,,,,,,0,24,24,26,1,,,,,,,,,,,,,,,,,,,,,,,
,,,,,WIN24_023,18,Female,2024-01-31_13h16.46.964,jersey_experiment_5,2023.2.2,Win32,84.74576271,,,,,,,,,,,,,,,,877.1061,878.3999,878.3999,882.3647,return,1.3568,,19.53125,,,,,,FBP-RB-71.png,0.35,1.2,16,0.5,,,,,,,,,,,,,,,,,,0,25,25,15,1,,,,,,,,,,,,,,,,,,,,,,,
,,,,,WIN24_023,18,Female,2024-01-31_13h16.46.964,jersey_experiment_5,2023.2.2,Win32,84.74576271,,,,,,,,,,,,,,,,882.365,883.6588,883.6589,886.3062,return,1.2851,,60.02604167,,,,,,FBP-RB-81.png,0.43,1.2,24,0.5,,,,,,,,,,,,,,,,,,0,26,26,23,1,,,,,,,,,,,,,,,,,,,,,,,
,,,,,WIN24_023,18,Female,2024-01-31_13h16.46.964,jersey_experiment_5,2023.2.2,Win32,84.74576271,,,,,,,,,,,,,,,,886.3064,888.1061,888.1061,889.5063,return,0.721,,88.28125,,,,,,FBP-PT-71.png,0.45,1.2,50,1,,,,,,,,,,,,,,,,,,0,27,27,49,1,,,,,,,,,,,,,,,,,,,,,,,
,,,,,WIN24_023,18,Female,2024-01-31_13h16.46.964,jersey_experiment_5,2023.2.2,Win32,84.74576271,,,,,,,,,,,,,,,,889.5065,891.3061,891.3063,894.6711,return,0.991,,32.8125,,,,,,FBP-OG-19.png,0.35,1.2,11,1,,,,,,,,,,,,,,,,,,0,28,28,10,1,,,,,,,,,,,,,,,,,,,,,,,
,,,,,WIN24_023,18,Female,2024-01-31_13h16.46.964,jersey_experiment_5,2023.2.2,Win32,84.74576271,,,,,,,,,,,,,,,,894.6713,895.9652,895.9652,897.8596,return,0.7204,,53.64583333,,,,,,FBP-RB-81.png,0.4,1.2,23,0.5,,,,,,,,,,,,,,,,,,0,29,29,22,1,,,,,,,,,,,,,,,,,,,,,,,
,,,,,WIN24_023,18,Female,2024-01-31_13h16.46.964,jersey_experiment_5,2023.2.2,Win32,84.74576271,,,,,,,,,,,,,,,,897.8598,899.6595,899.6595,901.3066,return,1.1472,,77.21354167,,,,,,FBP-OG-18.png,0.43,1.2,9,1,,,,,,,,,,,,,,,,,,0,30,30,8,1,,,,,,,,,,,,,,,,,,,,,,,
,,,,,WIN24_023,18,Female,2024-01-31_13h16.46.964,jersey_experiment_5,2023.2.2,Win32,84.74576271,,,,,,,,,,,,,,,,901.3068,902.6007,902.6007,904.8127,return,1.0641,,38.671875,,,,,,FBP-YG-19.png,0.4,1.2,43,0.5,,,,,,,,,,,,,,,,,,0,31,31,42,1,,,,,,,,,,,,,,,,,,,,,,,
,,,,,WIN24_023,18,Female,2024-01-31_13h16.46.964,jersey_experiment_5,2023.2.2,Win32,84.74576271,,,,,,,,,,,,,,,,904.8129,906.6129,906.6129,908.2715,return,0.9771,,88.15104167,,,,,,FBP-PT-91.png,0.45,1.2,60,1,,,,,,,,,,,,,,,,,,0,32,32,59,1,,,,,,,,,,,,,,,,,,,,,,,
,,,,,WIN24_023,18,Female,2024-01-31_13h16.46.964,jersey_experiment_5,2023.2.2,Win32,84.74576271,,,,,,,,,,,,,,,,908.2718,909.5657,909.5657,911.5775,return,0.7836,,29.03645833,,,,,,FBP-YG-17.png,0.35,1.2,31,0.5,,,,,,,,,,,,,,,,,,0,33,33,30,1,,,,,,,,,,,,,,,,,,,,,,,
,,,,,WIN24_023,18,Female,2024-01-31_13h16.46.964,jersey_experiment_5,2023.2.2,Win32,84.74576271,,,,,,,,,,,,,,,,911.5778,912.8718,912.8718,914.3659,return,0.8038,,79.296875,,,,,,FBP-YG-19.png,0.45,1.2,45,0.5,,,,,,,,,,,,,,,,,,0,34,34,44,1,,,,,,,,,,,,,,,,,,,,,,,
,,,,,WIN24_023,18,Female,2024-01-31_13h16.46.964,jersey_experiment_5,2023.2.2,Win32,84.74576271,,,,,,,,,,,,,,,,914.366,916.1661,916.1661,916.9779,return,0.0815,,36.58854167,,,,,,FBP-PT-81.png,0.35,1.2,51,1,,,,,,,,,,,,,,,,,,0,35,35,50,1,,,,,,,,,,,,,,,,,,,,,,,
,,,,,WIN24_023,18,Female,2024-01-31_13h16.46.964,jersey_experiment_5,2023.2.2,Win32,84.74576271,,,,,,,,,,,,,,,,916.978,918.7779,918.7779,919.5546,return,0.1784,,81.38020833,,,,,,FBP-OG-18.png,0.45,1.2,10,1,,,,,,,,,,,,,,,,,,0,36,36,9,1,,,,,,,,,,,,,,,,,,,,,,,
,,,,,WIN24_023,18,Female,2024-01-31_13h16.46.964,jersey_experiment_5,2023.2.2,Win32,84.74576271,,,,,,,,,,,,,,,,919.5547,921.3545,921.3545,922.4016,return,0.1309,,43.48958333,,,,,,FBP-PT-71.png,0.4,1.2,48,1,,,,,,,,,,,,,,,,,,0,37,37,47,1,,,,,,,,,,,,,,,,,,,,,,,
,,,,,WIN24_023,18,Female,2024-01-31_13h16.46.964,jersey_experiment_5,2023.2.2,Win32,84.74576271,,,,,,,,,,,,,,,,922.4019,924.2016,924.2017,924.943,return,0.1655,,23.046875,,,,,,FBP-OG-18.png,0.35,1.2,6,1,,,,,,,,,,,,,,,,,,0,38,38,5,1,,,,,,,,,,,,,,,,,,,,,,,
,,,,,WIN24_023,18,Female,2024-01-31_13h16.46.964,jersey_experiment_5,2023.2.2,Win32,84.74576271,,,,,,,,,,,,,,,,924.9432,926.7431,926.7431,928.2371,return,0.8168,,71.22395833,,,,,,FBP-OG-18.png,0.4,1.2,8,1,,,,,,,,,,,,,,,,,,0,39,39,7,1,,,,,,,,,,,,,,,,,,,,,,,
,,,,,WIN24_023,18,Female,2024-01-31_13h16.46.964,jersey_experiment_5,2023.2.2,Win32,84.74576271,,,,,,,,,,,,,,,,928.2373,929.5311,929.5311,932.096,return,0.777,,90.75520833,,,,,,FBP-YG-17.png,0.45,1.2,35,0.5,,,,,,,,,,,,,,,,,,0,40,40,34,1,,,,,,,,,,,,,,,,,,,,,,,
,,,,,WIN24_023,18,Female,2024-01-31_13h16.46.964,jersey_experiment_5,2023.2.2,Win32,84.74576271,,,,,,,,,,,,,,,,932.0963,933.896,933.896,935.5315,return,0.8744,,71.22395833,,,,,,FBP-PT-81.png,0.4,1.2,53,1,,,,,,,,,,,,,,,,,,0,41,41,52,1,,,,,,,,,,,,,,,,,,,,,,,
,,,,,WIN24_023,18,Female,2024-01-31_13h16.46.964,jersey_experiment_5,2023.2.2,Win32,84.74576271,,,,,,,,,,,,,,,,935.5315,937.3315,937.3315,939.3315,return,1.1063,,57.16145833,,,,,,FBP-OG-19.png,0.4,1.2,13,1,,,,,,,,,,,,,,,,,,0,42,42,12,1,,,,,,,,,,,,,,,,,,,,,,,
,,,,,WIN24_023,18,Female,2024-01-31_13h16.46.964,jersey_experiment_5,2023.2.2,Win32,84.74576271,,,,,,,,,,,,,,,,939.3318,941.1319,941.1319,942.0257,return,0.148,,30.33854167,,,,,,FBP-PT-71.png,0.43,1.2,49,1,,,,,,,,,,,,,,,,,,0,43,43,48,1,,,,,,,,,,,,,,,,,,,,,,,
,,,,,WIN24_023,18,Female,2024-01-31_13h16.46.964,jersey_experiment_5,2023.2.2,Win32,84.74576271,,,,,,,,,,,,,,,,942.0259,943.8256,943.8257,945.179,return,0.2547,,21.61458333,,,,,,FBP-PT-91.png,0.35,1.2,56,1,,,,,,,,,,,,,,,,,,0,44,44,55,1,,,,,,,,,,,,,,,,,,,,,,,
,,,,,WIN24_023,18,Female,2024-01-31_13h16.46.964,jersey_experiment_5,2023.2.2,Win32,84.74576271,,,,,,,,,,,,,,,,945.1793,946.979,946.979,948.4261,return,0.3491,,86.19791667,,,,,,FBP-OG-19.png,0.45,1.2,15,1,,,,,,,,,,,,,,,,,,0,45,45,14,1,,,,,,,,,,,,,,,,,,,,,,,
,,,,,WIN24_023,18,Female,2024-01-31_13h16.46.964,jersey_experiment_5,2023.2.2,Win32,84.74576271,,,,,,,,,,,,,,,,948.4263,950.2259,950.226,951.6026,return,0.2825,,91.92708333,,,,,,FBP-OG-17.png,0.43,1.2,4,1,,,,,,,,,,,,,,,,,,0,46,46,3,1,,,,,,,,,,,,,,,,,,,,,,,
,,,,,WIN24_023,18,Female,2024-01-31_13h16.46.964,jersey_experiment_5,2023.2.2,Win32,84.74576271,,,,,,,,,,,,,,,,951.6028,953.4027,953.4027,954.4615,return,0.2733,,66.015625,,,,,,FBP-OG-17.png,0.4,1.2,3,1,,,,,,,,,,,,,,,,,,0,47,47,2,1,,,,,,,,,,,,,,,,,,,,,,,
,,,,,WIN24_023,18,Female,2024-01-31_13h16.46.964,jersey_experiment_5,2023.2.2,Win32,84.74576271,,,,,,,,,,,,,,,,954.4617,955.7556,955.7556,957.156,return,0.2262,,9.244791667,,,,,,FBP-YG-18.png,0.35,1.2,36,0.5,,,,,,,,,,,,,,,,,,0,48,48,35,1,,,,,,,,,,,,,,,,,,,,,,,
,,,,,WIN24_023,18,Female,2024-01-31_13h16.46.964,jersey_experiment_5,2023.2.2,Win32,84.74576271,,,,,,,,,,,,,,,,957.1561,958.9558,958.9558,959.9676,return,0.2375,,20.18229167,,,,,,FBP-PT-71.png,0.37,1.2,47,1,,,,,,,,,,,,,,,,,,0,49,49,46,1,,,,,,,,,,,,,,,,,,,,,,,
,,,,,WIN24_023,18,Female,2024-01-31_13h16.46.964,jersey_experiment_5,2023.2.2,Win32,84.74576271,,,,,,,,,,,,,,,,959.9678,961.2618,961.2619,962.5913,return,0.2025,,35.41666667,,,,,,FBP-RB-71.png,0.37,1.2,17,0.5,,,,,,,,,,,,,,,,,,0,50,50,16,1,,,,,,,,,,,,,,,,,,,,,,,
,,,,,WIN24_023,18,Female,2024-01-31_13h16.46.964,jersey_experiment_5,2023.2.2,Win32,84.74576271,,,,,,,,,,,,,,,,962.5914,963.8853,963.8853,965.5206,return,0.3166,,42.96875,,,,,,FBP-YG-18.png,0.37,1.2,37,0.5,,,,,,,,,,,,,,,,,,0,51,51,36,1,,,,,,,,,,,,,,,,,,,,,,,
,,,,,WIN24_023,18,Female,2024-01-31_13h16.46.964,jersey_experiment_5,2023.2.2,Win32,84.74576271,,,,,,,,,,,,,,,,965.5209,966.8149,966.8149,968.1444,return,0.2596,,33.33333333,,,,,,FBP-YG-19.png,0.37,1.2,42,0.5,,,,,,,,,,,,,,,,,,0,52,52,41,1,,,,,,,,,,,,,,,,,,,,,,,
,,,,,WIN24_023,18,Female,2024-01-31_13h16.46.964,jersey_experiment_5,2023.2.2,Win32,84.74576271,,,,,,,,,,,,,,,,968.1447,969.4387,969.4387,971.0972,return,0.7379,,20.703125,,,,,,FBP-RB-91.png,0.35,1.2,26,0.5,,,,,,,,,,,,,,,,,,0,53,53,25,1,,,,,,,,,,,,,,,,,,,,,,,
,,,,,WIN24_023,18,Female,2024-01-31_13h16.46.964,jersey_experiment_5,2023.2.2,Win32,84.74576271,,,,,,,,,,,,,,,,971.0974,972.3916,972.3916,973.8387,return,0.8151,,57.68229167,,,,,,FBP-RB-91.png,0.4,1.2,28,0.5,,,,,,,,,,,,,,,,,,0,54,54,27,1,,,,,,,,,,,,,,,,,,,,,,,
,,,,,WIN24_023,18,Female,2024-01-31_13h16.46.964,jersey_experiment_5,2023.2.2,Win32,84.74576271,,,,,,,,,,,,,,,,973.8388,975.1328,975.1328,977.1682,return,0.7548,,67.578125,,,,,,FBP-YG-18.png,0.45,1.2,40,0.5,,,,,,,,,,,,,,,,,,0,55,55,39,1,,,,,,,,,,,,,,,,,,,,,,,
,,,,,WIN24_023,18,Female,2024-01-31_13h16.46.964,jersey_experiment_5,2023.2.2,Win32,84.74576271,,,,,,,,,,,,,,,,977.1684,978.9683,978.9683,999.1338,return,0.8966,,49.08854167,,,,,,FBP-PT-81.png,0.37,1.2,52,1,,,,,,,,,,,,,,,,,,0,56,56,51,1,,,,,,,,,,,,,,,,,,,,,,,
,,,,,WIN24_023,18,Female,2024-01-31_13h16.46.964,jersey_experiment_5,2023.2.2,Win32,84.74576271,,,,,,,,,,,,,,,,999.134,1000.9337,1000.9337,1004.2515,return,0.7933,,64.84375,,,,,,FBP-OG-19.png,0.43,1.2,14,1,,,,,,,,,,,,,,,,,,0,57,57,13,1,,,,,,,,,,,,,,,,,,,,,,,
,,,,,WIN24_023,18,Female,2024-01-31_13h16.46.964,jersey_experiment_5,2023.2.2,Win32,84.74576271,,,,,,,,,,,,,,,,1004.2518,1006.0516,1006.0516,1009.3693,return,0.8206,,69.140625,,,,,,FBP-OG-18.png,0.37,1.2,7,1,,,,,,,,,,,,,,,,,,0,58,58,6,1,,,,,,,,,,,,,,,,,,,,,,,
,,,,,WIN24_023,18,Female,2024-01-31_13h16.46.964,jersey_experiment_5,2023.2.2,Win32,84.74576271,,,,,,,,,,,,,,,,1009.3695,1010.6636,1010.6636,1011.8753,return,0.6455,,82.8125,,,,,,FBP-YG-19.png,0.43,1.2,44,0.5,,,,,,,,,,,,,,,,,,0,59,59,43,1,,,,,,,,,,,,,,,,,,,,,,,
,,,,,WIN24_023,18,Female,2024-01-31_13h16.46.964,jersey_experiment_5,2023.2.2,Win32,84.74576271,,,,,,,,,,,,,,,,,,,,,,,,,,,,,,,,,,,,,,,,,,,,,,,,,,,,,,,,1011.8756,1016.2875,return,4.4011,,,,,,,,,,,,,,,,,,,
,,,,,WIN24_023,18,Female,2024-01-31_13h16.46.964,jersey_experiment_5,2023.2.2,Win32,84.74576271,,,,,,,,,,,,,,,,,,,,,,,,,,,,,,,,,,,,,,,,,,,,,,,,,,,,,,,,,,,,,1016.2875,1020.017,1,2.4457,return,1.2581,,,,,,,,,,,,
,,,,,WIN24_023,18,Female,2024-01-31_13h16.46.964,jersey_experiment_5,2023.2.2,Win32,84.74576271,,,,,,,,,,,,,,,,,,,,,,,,,,,,,,,,,,,,,,,,,,,,,,,,,,,,,,,,,,,,,,,,,,,,1020.0171,1057.9296,i thought the study was about perception of size with color(racea). i thought sometimes you would show me the same size player in diff colors,right,35.0598,,,,,,
,,,,,WIN24_023,18,Female,2024-01-31_13h16.46.964,jersey_experiment_5,2023.2.2,Win32,84.74576271,,,,,,,,,,,,,,,,,,,,,,,,,,,,,,,,,,,,,,,,,,,,,,,,,,,,,,,,,,,,,,,,,,,,,,,,,,1057.9297,1060.8301,return,2.8913,