requirements.started,requirements.stopped,key_resp_3.keys,key_resp_3.rt,key_resp_3.duration,Subject ID,Age,Gender,date,expName,psychopyVersion,OS,frameRate,instructions1.started,instructions1.stopped,key_resp.keys,key_resp.rt,key_resp.duration,example.started,example.stopped,enter_2.keys,enter_2.rt,enter_2.duration,instructions2.started,instructions2.stopped,enter_3.keys,enter_3.rt,enter_3.duration,image.started,image.stopped,slider_2.started,slider_2.stopped,next.keys,next.rt,next.duration,slider.response,trial_block_1.thisRepN,trial_block_1.thisTrialN,trial_block_1.thisN,trial_block_1.thisIndex,trial_block_1.ran,Path,Width,Height,Index,Duration,trial_block_2.thisRepN,trial_block_2.thisTrialN,trial_block_2.thisN,trial_block_2.thisIndex,trial_block_2.ran,rest_break.started,rest_break.stopped,end_break.started,end_break.stopped,key_resp_5.keys,key_resp_5.rt,key_resp_5.duration,trial_block_3.thisRepN,trial_block_3.thisTrialN,trial_block_3.thisN,trial_block_3.thisIndex,trial_block_3.ran,trial_block_4.thisRepN,trial_block_4.thisTrialN,trial_block_4.thisN,trial_block_4.thisIndex,trial_block_4.ran,questions_intro.started,questions_intro.stopped,enter_12.keys,enter_12.rt,enter_12.duration,question2.started,question2.stopped,question_doingbest.response,question_doingbest.rt,enter_15.keys,enter_15.rt,enter_15.duration,pattern.started,pattern.stopped,pattern_2.text,enter_17.keys,enter_17.rt,enter_17.duration,thankyou.started,thankyou.stopped,enter_14.keys,enter_14.rt,enter_14.duration
1E-04,8.5925,return,8.5878,,WIN24_034,21,female,2024-02-02_13h20.12.814,jersey_experiment_5,2023.2.2,Win32,85.47008547,,,,,,,,,,,,,,,,,,,,,,,,,,,,,,,,,,,,,,,,,,,,,,,,,,,,,,,,,,,,,,,,,,,,,,,,,,,,,,
,,,,,WIN24_034,21,female,2024-02-02_13h20.12.814,jersey_experiment_5,2023.2.2,Win32,85.47008547,8.5925,14.2747,return,5.671,,,,,,,,,,,,,,,,,,,,,,,,,,,,,,,,,,,,,,,,,,,,,,,,,,,,,,,,,,,,,,,,,,,,,,,,,,
,,,,,WIN24_034,21,female,2024-02-02_13h20.12.814,jersey_experiment_5,2023.2.2,Win32,85.47008547,,,,,,14.2748,19.0369,return,4.7234,,,,,,,,,,,,,,,,,,,,,,,,,,,,,,,,,,,,,,,,,,,,,,,,,,,,,,,,,,,,,,,,,,,,,
,,,,,WIN24_034,21,female,2024-02-02_13h20.12.814,jersey_experiment_5,2023.2.2,Win32,85.47008547,,,,,,,,,,,19.037,79.8153,return,60.766,,,,,,,,,,,,,,,,,,,,,,,,,,,,,,,,,,,,,,,,,,,,,,,,,,,,,,,,,,,,,,,,
,,,,,WIN24_034,21,female,2024-02-02_13h20.12.814,jersey_experiment_5,2023.2.2,Win32,85.47008547,,,,,,,,,,,,,,,,79.8217,81.6149,81.615,90.5099,return,0.3304,,40.49479167,0,0,0,25,1,FBP-RB-19.png,0.35,1.2,26,1,,,,,,,,,,,,,,,,,,,,,,,,,,,,,,,,,,,,,,,,,,,,,
,,,,,WIN24_034,21,female,2024-02-02_13h20.12.814,jersey_experiment_5,2023.2.2,Win32,85.47008547,,,,,,,,,,,,,,,,90.5106,92.3093,92.3094,93.8742,return,0.4557,,40.10416667,0,1,1,16,1,FBP-RB-17.png,0.37,1.2,17,1,,,,,,,,,,,,,,,,,,,,,,,,,,,,,,,,,,,,,,,,,,,,,
,,,,,WIN24_034,21,female,2024-02-02_13h20.12.814,jersey_experiment_5,2023.2.2,Win32,85.47008547,,,,,,,,,,,,,,,,93.8745,95.6744,95.6745,98.3922,return,1.4852,,67.31770833,0,2,2,33,1,FBP-YG-71.png,0.43,1.2,34,1,,,,,,,,,,,,,,,,,,,,,,,,,,,,,,,,,,,,,,,,,,,,,
,,,,,WIN24_034,21,female,2024-02-02_13h20.12.814,jersey_experiment_5,2023.2.2,Win32,85.47008547,,,,,,,,,,,,,,,,98.3924,99.6866,99.6866,101.4628,return,0.2151,,45.18229167,0,3,3,56,1,FBP-PT-19.png,0.37,1.2,57,0.5,,,,,,,,,,,,,,,,,,,,,,,,,,,,,,,,,,,,,,,,,,,,,
,,,,,WIN24_034,21,female,2024-02-02_13h20.12.814,jersey_experiment_5,2023.2.2,Win32,85.47008547,,,,,,,,,,,,,,,,101.4631,102.757,102.757,103.6981,return,0.244,,45.18229167,0,4,4,1,1,FBP-OG-71.png,0.37,1.2,2,0.5,,,,,,,,,,,,,,,,,,,,,,,,,,,,,,,,,,,,,,,,,,,,,
,,,,,WIN24_034,21,female,2024-02-02_13h20.12.814,jersey_experiment_5,2023.2.2,Win32,85.47008547,,,,,,,,,,,,,,,,103.6983,105.4986,105.4986,107.1454,return,0.6608,,68.22916667,0,5,5,28,1,FBP-RB-19.png,0.43,1.2,29,1,,,,,,,,,,,,,,,,,,,,,,,,,,,,,,,,,,,,,,,,,,,,,
,,,,,WIN24_034,21,female,2024-02-02_13h20.12.814,jersey_experiment_5,2023.2.2,Win32,85.47008547,,,,,,,,,,,,,,,,107.1457,108.9456,108.9456,109.781,return,0.2063,,68.22916667,0,6,6,23,1,FBP-RB-18.png,0.43,1.2,24,1,,,,,,,,,,,,,,,,,,,,,,,,,,,,,,,,,,,,,,,,,,,,,
,,,,,WIN24_034,21,female,2024-02-02_13h20.12.814,jersey_experiment_5,2023.2.2,Win32,85.47008547,,,,,,,,,,,,,,,,109.7818,111.581,111.5811,113.0632,return,0.192,,75.26041667,0,7,7,39,1,FBP-YG-81.png,0.45,1.2,40,1,,,,,,,,,,,,,,,,,,,,,,,,,,,,,,,,,,,,,,,,,,,,,
,,,,,WIN24_034,21,female,2024-02-02_13h20.12.814,jersey_experiment_5,2023.2.2,Win32,85.47008547,,,,,,,,,,,,,,,,113.0636,114.3574,114.3574,116.7813,return,0.2001,,74.86979167,0,8,8,9,1,FBP-OG-81.png,0.45,1.2,10,0.5,,,,,,,,,,,,,,,,,,,,,,,,,,,,,,,,,,,,,,,,,,,,,
,,,,,WIN24_034,21,female,2024-02-02_13h20.12.814,jersey_experiment_5,2023.2.2,Win32,85.47008547,,,,,,,,,,,,,,,,116.7817,118.0753,118.0754,120.3813,return,0.589,,74.47916667,0,9,9,59,1,FBP-PT-19.png,0.45,1.2,60,0.5,,,,,,,,,,,,,,,,,,,,,,,,,,,,,,,,,,,,,,,,,,,,,
,,,,,WIN24_034,21,female,2024-02-02_13h20.12.814,jersey_experiment_5,2023.2.2,Win32,85.47008547,,,,,,,,,,,,,,,,120.3818,122.1814,122.1814,124.8874,return,1.1918,,23.95833333,0,10,10,36,1,FBP-YG-81.png,0.37,1.2,37,1,,,,,,,,,,,,,,,,,,,,,,,,,,,,,,,,,,,,,,,,,,,,,
,,,,,WIN24_034,21,female,2024-02-02_13h20.12.814,jersey_experiment_5,2023.2.2,Win32,85.47008547,,,,,,,,,,,,,,,,124.888,126.6873,126.6873,129.6875,return,1.3686,,53.64583333,0,11,11,17,1,FBP-RB-17.png,0.4,1.2,18,1,,,,,,,,,,,,,,,,,,,,,,,,,,,,,,,,,,,,,,,,,,,,,
,,,,,WIN24_034,21,female,2024-02-02_13h20.12.814,jersey_experiment_5,2023.2.2,Win32,85.47008547,,,,,,,,,,,,,,,,129.688,130.9817,130.9817,132.6054,return,0.1764,,54.6875,0,12,12,46,1,FBP-PT-17.png,0.37,1.2,47,0.5,,,,,,,,,,,,,,,,,,,,,,,,,,,,,,,,,,,,,,,,,,,,,
,,,,,WIN24_034,21,female,2024-02-02_13h20.12.814,jersey_experiment_5,2023.2.2,Win32,85.47008547,,,,,,,,,,,,,,,,132.6059,133.8994,133.8994,135.3817,return,0.629,,58.33333333,0,13,13,48,1,FBP-PT-17.png,0.43,1.2,49,0.5,,,,,,,,,,,,,,,,,,,,,,,,,,,,,,,,,,,,,,,,,,,,,
,,,,,WIN24_034,21,female,2024-02-02_13h20.12.814,jersey_experiment_5,2023.2.2,Win32,85.47008547,,,,,,,,,,,,,,,,135.3819,136.676,136.6761,137.5937,return,0.2012,,65.625,0,14,14,54,1,FBP-PT-18.png,0.45,1.2,55,0.5,,,,,,,,,,,,,,,,,,,,,,,,,,,,,,,,,,,,,,,,,,,,,
,,,,,WIN24_034,21,female,2024-02-02_13h20.12.814,jersey_experiment_5,2023.2.2,Win32,85.47008547,,,,,,,,,,,,,,,,137.5943,138.8878,138.8879,139.8055,return,0.1763,,67.83854167,0,15,15,13,1,FBP-OG-91.png,0.43,1.2,14,0.5,,,,,,,,,,,,,,,,,,,,,,,,,,,,,,,,,,,,,,,,,,,,,
,,,,,WIN24_034,21,female,2024-02-02_13h20.12.814,jersey_experiment_5,2023.2.2,Win32,85.47008547,,,,,,,,,,,,,,,,139.8062,141.6059,141.6059,142.5234,return,0.2356,,73.828125,0,16,16,24,1,FBP-RB-18.png,0.45,1.2,25,1,,,,,,,,,,,,,,,,,,,,,,,,,,,,,,,,,,,,,,,,,,,,,
,,,,,WIN24_034,21,female,2024-02-02_13h20.12.814,jersey_experiment_5,2023.2.2,Win32,85.47008547,,,,,,,,,,,,,,,,142.5239,143.8175,143.8176,145.1939,return,0.236,,26.171875,0,17,17,0,1,FBP-OG-71.png,0.35,1.2,1,0.5,,,,,,,,,,,,,,,,,,,,,,,,,,,,,,,,,,,,,,,,,,,,,
,,,,,WIN24_034,21,female,2024-02-02_13h20.12.814,jersey_experiment_5,2023.2.2,Win32,85.47008547,,,,,,,,,,,,,,,,145.1942,146.488,146.488,166.23,return,2.0761,,50.65104167,0,18,18,8,1,FBP-OG-81.png,0.43,1.2,9,0.5,,,,,,,,,,,,,,,,,,,,,,,,,,,,,,,,,,,,,,,,,,,,,
,,,,,WIN24_034,21,female,2024-02-02_13h20.12.814,jersey_experiment_5,2023.2.2,Win32,85.47008547,,,,,,,,,,,,,,,,166.2304,167.5241,167.5242,169.1242,return,0.1481,,45.96354167,0,19,19,7,1,FBP-OG-81.png,0.4,1.2,8,0.5,,,,,,,,,,,,,,,,,,,,,,,,,,,,,,,,,,,,,,,,,,,,,
,,,,,WIN24_034,21,female,2024-02-02_13h20.12.814,jersey_experiment_5,2023.2.2,Win32,85.47008547,,,,,,,,,,,,,,,,169.1244,170.9243,170.9243,171.6891,return,0.1547,,44.921875,0,20,20,42,1,FBP-YG-91.png,0.4,1.2,43,1,,,,,,,,,,,,,,,,,,,,,,,,,,,,,,,,,,,,,,,,,,,,,
,,,,,WIN24_034,21,female,2024-02-02_13h20.12.814,jersey_experiment_5,2023.2.2,Win32,85.47008547,,,,,,,,,,,,,,,,171.6895,173.489,173.489,174.3715,return,0.1841,,36.45833333,0,21,21,31,1,FBP-YG-71.png,0.37,1.2,32,1,,,,,,,,,,,,,,,,,,,,,,,,,,,,,,,,,,,,,,,,,,,,,
,,,,,WIN24_034,21,female,2024-02-02_13h20.12.814,jersey_experiment_5,2023.2.2,Win32,85.47008547,,,,,,,,,,,,,,,,174.3718,175.6657,175.6657,179.5719,return,0.1486,,38.41145833,0,22,22,52,1,FBP-PT-18.png,0.4,1.2,53,0.5,,,,,,,,,,,,,,,,,,,,,,,,,,,,,,,,,,,,,,,,,,,,,
,,,,,WIN24_034,21,female,2024-02-02_13h20.12.814,jersey_experiment_5,2023.2.2,Win32,85.47008547,,,,,,,,,,,,,,,,179.5723,181.3724,181.3724,182.713,return,0.1665,,55.859375,0,23,23,27,1,FBP-RB-19.png,0.4,1.2,28,1,,,,,,,,,,,,,,,,,,,,,,,,,,,,,,,,,,,,,,,,,,,,,
,,,,,WIN24_034,21,female,2024-02-02_13h20.12.814,jersey_experiment_5,2023.2.2,Win32,85.47008547,,,,,,,,,,,,,,,,182.7133,184.5131,184.5132,186.0191,return,0.7139,,77.21354167,0,24,24,19,1,FBP-RB-17.png,0.45,1.2,20,1,,,,,,,,,,,,,,,,,,,,,,,,,,,,,,,,,,,,,,,,,,,,,
,,,,,WIN24_034,21,female,2024-02-02_13h20.12.814,jersey_experiment_5,2023.2.2,Win32,85.47008547,,,,,,,,,,,,,,,,186.0196,187.3131,187.3132,188.5014,return,0.1822,,72.00520833,0,25,25,12,1,FBP-OG-91.png,0.4,1.2,13,0.5,,,,,,,,,,,,,,,,,,,,,,,,,,,,,,,,,,,,,,,,,,,,,
,,,,,WIN24_034,21,female,2024-02-02_13h20.12.814,jersey_experiment_5,2023.2.2,Win32,85.47008547,,,,,,,,,,,,,,,,188.5016,190.3015,190.3016,191.2427,return,0.1615,,72.00520833,0,26,26,22,1,FBP-RB-18.png,0.4,1.2,23,1,,,,,,,,,,,,,,,,,,,,,,,,,,,,,,,,,,,,,,,,,,,,,
,,,,,WIN24_034,21,female,2024-02-02_13h20.12.814,jersey_experiment_5,2023.2.2,Win32,85.47008547,,,,,,,,,,,,,,,,191.2429,192.537,192.537,195.3252,return,0.3385,,28.64583333,0,27,27,55,1,FBP-PT-19.png,0.35,1.2,56,0.5,,,,,,,,,,,,,,,,,,,,,,,,,,,,,,,,,,,,,,,,,,,,,
,,,,,WIN24_034,21,female,2024-02-02_13h20.12.814,jersey_experiment_5,2023.2.2,Win32,85.47008547,,,,,,,,,,,,,,,,195.3255,197.1256,197.1257,198.3492,return,0.1653,,75.52083333,0,28,28,34,1,FBP-YG-71.png,0.45,1.2,35,1,,,,,,,,,,,,,,,,,,,,,,,,,,,,,,,,,,,,,,,,,,,,,
,,,,,WIN24_034,21,female,2024-02-02_13h20.12.814,jersey_experiment_5,2023.2.2,Win32,85.47008547,,,,,,,,,,,,,,,,198.3497,199.6431,199.6431,202.4668,return,0.147,,57.68229167,0,29,29,2,1,FBP-OG-71.png,0.4,1.2,3,0.5,,,,,,,,,,,,,,,,,,,,,,,,,,,,,,,,,,,,,,,,,,,,,
,,,,,WIN24_034,21,female,2024-02-02_13h20.12.814,jersey_experiment_5,2023.2.2,Win32,85.47008547,,,,,,,,,,,,,,,,202.4671,204.2667,204.2667,205.3493,return,0.2415,,32.8125,0,30,30,20,1,FBP-RB-18.png,0.35,1.2,21,1,,,,,,,,,,,,,,,,,,,,,,,,,,,,,,,,,,,,,,,,,,,,,
,,,,,WIN24_034,21,female,2024-02-02_13h20.12.814,jersey_experiment_5,2023.2.2,Win32,85.47008547,,,,,,,,,,,,,,,,205.35,207.1493,207.1493,208.055,return,0.1807,,75.65104167,0,31,31,37,1,FBP-YG-81.png,0.4,1.2,38,1,,,,,,,,,,,,,,,,,,,,,,,,,,,,,,,,,,,,,,,,,,,,,
,,,,,WIN24_034,21,female,2024-02-02_13h20.12.814,jersey_experiment_5,2023.2.2,Win32,85.47008547,,,,,,,,,,,,,,,,208.0553,209.8553,209.8553,210.573,return,0.1655,,82.29166667,0,32,32,43,1,FBP-YG-91.png,0.43,1.2,44,1,,,,,,,,,,,,,,,,,,,,,,,,,,,,,,,,,,,,,,,,,,,,,
,,,,,WIN24_034,21,female,2024-02-02_13h20.12.814,jersey_experiment_5,2023.2.2,Win32,85.47008547,,,,,,,,,,,,,,,,210.5735,212.3728,212.3728,213.067,return,0.1177,,84.50520833,0,33,33,38,1,FBP-YG-81.png,0.43,1.2,39,1,,,,,,,,,,,,,,,,,,,,,,,,,,,,,,,,,,,,,,,,,,,,,
,,,,,WIN24_034,21,female,2024-02-02_13h20.12.814,jersey_experiment_5,2023.2.2,Win32,85.47008547,,,,,,,,,,,,,,,,213.0672,214.8671,214.8672,215.6437,return,0.1651,,19.921875,0,34,34,30,1,FBP-YG-71.png,0.35,1.2,31,1,,,,,,,,,,,,,,,,,,,,,,,,,,,,,,,,,,,,,,,,,,,,,
,,,,,WIN24_034,21,female,2024-02-02_13h20.12.814,jersey_experiment_5,2023.2.2,Win32,85.47008547,,,,,,,,,,,,,,,,215.6439,216.9381,216.9381,219.1262,return,0.1227,,29.6875,0,35,35,51,1,FBP-PT-18.png,0.37,1.2,52,0.5,,,,,,,,,,,,,,,,,,,,,,,,,,,,,,,,,,,,,,,,,,,,,
,,,,,WIN24_034,21,female,2024-02-02_13h20.12.814,jersey_experiment_5,2023.2.2,Win32,85.47008547,,,,,,,,,,,,,,,,219.1265,220.9261,220.9262,221.5734,return,0.1238,,29.81770833,0,36,36,26,1,FBP-RB-19.png,0.37,1.2,27,1,,,,,,,,,,,,,,,,,,,,,,,,,,,,,,,,,,,,,,,,,,,,,
,,,,,WIN24_034,21,female,2024-02-02_13h20.12.814,jersey_experiment_5,2023.2.2,Win32,85.47008547,,,,,,,,,,,,,,,,221.5736,223.3735,223.3735,224.0206,return,0.0767,,75.91145833,0,37,37,32,1,FBP-YG-71.png,0.4,1.2,33,1,,,,,,,,,,,,,,,,,,,,,,,,,,,,,,,,,,,,,,,,,,,,,
,,,,,WIN24_034,21,female,2024-02-02_13h20.12.814,jersey_experiment_5,2023.2.2,Win32,85.47008547,,,,,,,,,,,,,,,,224.0208,225.3146,225.3147,226.0677,return,0.1015,,86.71875,0,38,38,4,1,FBP-OG-71.png,0.45,1.2,5,0.5,,,,,,,,,,,,,,,,,,,,,,,,,,,,,,,,,,,,,,,,,,,,,
,,,,,WIN24_034,21,female,2024-02-02_13h20.12.814,jersey_experiment_5,2023.2.2,Win32,85.47008547,,,,,,,,,,,,,,,,226.0682,227.8677,227.8678,229.3383,return,0.083,,46.484375,0,39,39,21,1,FBP-RB-18.png,0.37,1.2,22,1,,,,,,,,,,,,,,,,,,,,,,,,,,,,,,,,,,,,,,,,,,,,,
,,,,,WIN24_034,21,female,2024-02-02_13h20.12.814,jersey_experiment_5,2023.2.2,Win32,85.47008547,,,,,,,,,,,,,,,,229.3386,231.1384,231.1385,231.6677,return,0.0898,,77.734375,0,40,40,18,1,FBP-RB-17.png,0.43,1.2,19,1,,,,,,,,,,,,,,,,,,,,,,,,,,,,,,,,,,,,,,,,,,,,,
,,,,,WIN24_034,21,female,2024-02-02_13h20.12.814,jersey_experiment_5,2023.2.2,Win32,85.47008547,,,,,,,,,,,,,,,,231.668,232.962,232.962,234.1385,return,0.0383,,85.67708333,0,41,41,14,1,FBP-OG-91.png,0.45,1.2,15,0.5,,,,,,,,,,,,,,,,,,,,,,,,,,,,,,,,,,,,,,,,,,,,,
,,,,,WIN24_034,21,female,2024-02-02_13h20.12.814,jersey_experiment_5,2023.2.2,Win32,85.47008547,,,,,,,,,,,,,,,,234.1388,235.9387,235.9388,237.1385,return,0.1963,,30.98958333,0,42,42,15,1,FBP-RB-17.png,0.35,1.2,16,1,,,,,,,,,,,,,,,,,,,,,,,,,,,,,,,,,,,,,,,,,,,,,
,,,,,WIN24_034,21,female,2024-02-02_13h20.12.814,jersey_experiment_5,2023.2.2,Win32,85.47008547,,,,,,,,,,,,,,,,237.1388,238.4327,238.4327,239.1269,return,0.0394,,32.03125,0,43,43,10,1,FBP-OG-91.png,0.35,1.2,11,0.5,,,,,,,,,,,,,,,,,,,,,,,,,,,,,,,,,,,,,,,,,,,,,
,,,,,WIN24_034,21,female,2024-02-02_13h20.12.814,jersey_experiment_5,2023.2.2,Win32,85.47008547,,,,,,,,,,,,,,,,239.1272,240.4211,240.4211,242.386,return,0.1154,,79.81770833,0,44,44,49,1,FBP-PT-17.png,0.45,1.2,50,0.5,,,,,,,,,,,,,,,,,,,,,,,,,,,,,,,,,,,,,,,,,,,,,
,,,,,WIN24_034,21,female,2024-02-02_13h20.12.814,jersey_experiment_5,2023.2.2,Win32,85.47008547,,,,,,,,,,,,,,,,242.3862,244.1858,244.1859,249.0333,return,0.5552,,71.484375,0,45,45,44,1,FBP-YG-91.png,0.45,1.2,45,1,,,,,,,,,,,,,,,,,,,,,,,,,,,,,,,,,,,,,,,,,,,,,
,,,,,WIN24_034,21,female,2024-02-02_13h20.12.814,jersey_experiment_5,2023.2.2,Win32,85.47008547,,,,,,,,,,,,,,,,249.0338,250.3272,250.3272,251.1273,return,0.1922,,78.77604167,0,46,46,3,1,FBP-OG-71.png,0.43,1.2,4,0.5,,,,,,,,,,,,,,,,,,,,,,,,,,,,,,,,,,,,,,,,,,,,,
,,,,,WIN24_034,21,female,2024-02-02_13h20.12.814,jersey_experiment_5,2023.2.2,Win32,85.47008547,,,,,,,,,,,,,,,,251.1276,252.9274,252.9274,253.5158,return,0.2117,,78.77604167,0,47,47,29,1,FBP-RB-19.png,0.45,1.2,30,1,,,,,,,,,,,,,,,,,,,,,,,,,,,,,,,,,,,,,,,,,,,,,
,,,,,WIN24_034,21,female,2024-02-02_13h20.12.814,jersey_experiment_5,2023.2.2,Win32,85.47008547,,,,,,,,,,,,,,,,253.5163,255.3157,255.3158,256.1393,return,0.1647,,24.86979167,0,48,48,41,1,FBP-YG-91.png,0.37,1.2,42,1,,,,,,,,,,,,,,,,,,,,,,,,,,,,,,,,,,,,,,,,,,,,,
,,,,,WIN24_034,21,female,2024-02-02_13h20.12.814,jersey_experiment_5,2023.2.2,Win32,85.47008547,,,,,,,,,,,,,,,,256.1395,257.4334,257.4334,258.4923,return,0.1415,,25.390625,0,49,49,57,1,FBP-PT-19.png,0.4,1.2,58,0.5,,,,,,,,,,,,,,,,,,,,,,,,,,,,,,,,,,,,,,,,,,,,,
,,,,,WIN24_034,21,female,2024-02-02_13h20.12.814,jersey_experiment_5,2023.2.2,Win32,85.47008547,,,,,,,,,,,,,,,,258.4927,259.7865,259.7865,261.2689,return,0.0766,,75.78125,0,50,50,53,1,FBP-PT-18.png,0.43,1.2,54,0.5,,,,,,,,,,,,,,,,,,,,,,,,,,,,,,,,,,,,,,,,,,,,,
,,,,,WIN24_034,21,female,2024-02-02_13h20.12.814,jersey_experiment_5,2023.2.2,Win32,85.47008547,,,,,,,,,,,,,,,,261.2692,262.563,262.563,263.7866,return,0.2586,,75.78125,0,51,51,58,1,FBP-PT-19.png,0.43,1.2,59,0.5,,,,,,,,,,,,,,,,,,,,,,,,,,,,,,,,,,,,,,,,,,,,,
,,,,,WIN24_034,21,female,2024-02-02_13h20.12.814,jersey_experiment_5,2023.2.2,Win32,85.47008547,,,,,,,,,,,,,,,,263.7869,265.587,265.587,266.6927,return,0.1237,,32.03125,0,52,52,40,1,FBP-YG-91.png,0.35,1.2,41,1,,,,,,,,,,,,,,,,,,,,,,,,,,,,,,,,,,,,,,,,,,,,,
,,,,,WIN24_034,21,female,2024-02-02_13h20.12.814,jersey_experiment_5,2023.2.2,Win32,85.47008547,,,,,,,,,,,,,,,,266.6932,267.9869,267.9869,269.6343,return,0.1618,,16.27604167,0,53,53,5,1,FBP-OG-81.png,0.35,1.2,6,0.5,,,,,,,,,,,,,,,,,,,,,,,,,,,,,,,,,,,,,,,,,,,,,
,,,,,WIN24_034,21,female,2024-02-02_13h20.12.814,jersey_experiment_5,2023.2.2,Win32,85.47008547,,,,,,,,,,,,,,,,269.6346,270.9282,270.9283,273.434,return,0.0342,,25.91145833,0,54,54,11,1,FBP-OG-91.png,0.37,1.2,12,0.5,,,,,,,,,,,,,,,,,,,,,,,,,,,,,,,,,,,,,,,,,,,,,
,,,,,WIN24_034,21,female,2024-02-02_13h20.12.814,jersey_experiment_5,2023.2.2,Win32,85.47008547,,,,,,,,,,,,,,,,273.4344,275.2342,275.2342,275.9283,return,0.156,,19.53125,0,55,55,35,1,FBP-YG-81.png,0.35,1.2,36,1,,,,,,,,,,,,,,,,,,,,,,,,,,,,,,,,,,,,,,,,,,,,,
,,,,,WIN24_034,21,female,2024-02-02_13h20.12.814,jersey_experiment_5,2023.2.2,Win32,85.47008547,,,,,,,,,,,,,,,,275.9287,277.2226,277.2227,279.399,return,0.2748,,15.625,0,56,56,50,1,FBP-PT-18.png,0.35,1.2,51,0.5,,,,,,,,,,,,,,,,,,,,,,,,,,,,,,,,,,,,,,,,,,,,,
,,,,,WIN24_034,21,female,2024-02-02_13h20.12.814,jersey_experiment_5,2023.2.2,Win32,85.47008547,,,,,,,,,,,,,,,,279.3995,280.6932,280.6932,283.8109,return,1.6202,,71.74479167,0,57,57,47,1,FBP-PT-17.png,0.4,1.2,48,0.5,,,,,,,,,,,,,,,,,,,,,,,,,,,,,,,,,,,,,,,,,,,,,
,,,,,WIN24_034,21,female,2024-02-02_13h20.12.814,jersey_experiment_5,2023.2.2,Win32,85.47008547,,,,,,,,,,,,,,,,283.8111,285.1052,285.1052,286.3405,return,0.1922,,28.77604167,0,58,58,45,1,FBP-PT-17.png,0.35,1.2,46,0.5,,,,,,,,,,,,,,,,,,,,,,,,,,,,,,,,,,,,,,,,,,,,,
,,,,,WIN24_034,21,female,2024-02-02_13h20.12.814,jersey_experiment_5,2023.2.2,Win32,85.47008547,,,,,,,,,,,,,,,,286.3407,287.6345,287.6346,288.7288,return,0.0844,,72.13541667,0,59,59,6,1,FBP-OG-81.png,0.37,1.2,7,0.5,,,,,,,,,,,,,,,,,,,,,,,,,,,,,,,,,,,,,,,,,,,,,
,,,,,WIN24_034,21,female,2024-02-02_13h20.12.814,jersey_experiment_5,2023.2.2,Win32,85.47008547,,,,,,,,,,,,,,,,288.7329,290.0348,290.035,290.7643,return,0.0833,,72.265625,,,,,,FBP-PT-81.png,0.37,1.2,52,0.5,0,0,0,51,1,,,,,,,,,,,,,,,,,,,,,,,,,,,,,,,,,,,,,,,,
,,,,,WIN24_034,21,female,2024-02-02_13h20.12.814,jersey_experiment_5,2023.2.2,Win32,85.47008547,,,,,,,,,,,,,,,,290.7646,292.5642,292.5642,293.1407,return,0.1479,,81.77083333,,,,,,FBP-YG-18.png,0.45,1.2,40,1,0,1,1,39,1,,,,,,,,,,,,,,,,,,,,,,,,,,,,,,,,,,,,,,,,
,,,,,WIN24_034,21,female,2024-02-02_13h20.12.814,jersey_experiment_5,2023.2.2,Win32,85.47008547,,,,,,,,,,,,,,,,293.1409,294.9413,294.9414,296.2584,return,0.1032,,28.515625,,,,,,FBP-YG-18.png,0.35,1.2,36,1,0,2,2,35,1,,,,,,,,,,,,,,,,,,,,,,,,,,,,,,,,,,,,,,,,
,,,,,WIN24_034,21,female,2024-02-02_13h20.12.814,jersey_experiment_5,2023.2.2,Win32,85.47008547,,,,,,,,,,,,,,,,296.2586,298.0591,298.0593,298.8704,return,0.1456,,27.60416667,,,,,,FBP-RB-91.png,0.37,1.2,27,1,0,3,3,26,1,,,,,,,,,,,,,,,,,,,,,,,,,,,,,,,,,,,,,,,,
,,,,,WIN24_034,21,female,2024-02-02_13h20.12.814,jersey_experiment_5,2023.2.2,Win32,85.47008547,,,,,,,,,,,,,,,,298.8705,300.1645,300.1646,301.0822,return,0.1302,,80.859375,,,,,,FBP-OG-17.png,0.45,1.2,5,0.5,0,4,4,4,1,,,,,,,,,,,,,,,,,,,,,,,,,,,,,,,,,,,,,,,,
,,,,,WIN24_034,21,female,2024-02-02_13h20.12.814,jersey_experiment_5,2023.2.2,Win32,85.47008547,,,,,,,,,,,,,,,,301.0826,302.3763,302.3763,303.6116,return,0.1183,,71.22395833,,,,,,FBP-PT-81.png,0.4,1.2,53,0.5,0,5,5,52,1,,,,,,,,,,,,,,,,,,,,,,,,,,,,,,,,,,,,,,,,
,,,,,WIN24_034,21,female,2024-02-02_13h20.12.814,jersey_experiment_5,2023.2.2,Win32,85.47008547,,,,,,,,,,,,,,,,303.6119,305.4119,305.4119,306.2001,return,0.141,,83.984375,,,,,,FBP-RB-91.png,0.45,1.2,30,1,0,6,6,29,1,,,,,,,,,,,,,,,,,,,,,,,,,,,,,,,,,,,,,,,,
,,,,,WIN24_034,21,female,2024-02-02_13h20.12.814,jersey_experiment_5,2023.2.2,Win32,85.47008547,,,,,,,,,,,,,,,,306.2005,307.4941,307.4942,308.5414,return,0.153,,91.40625,,,,,,FBP-OG-19.png,0.45,1.2,15,0.5,0,7,7,14,1,,,,,,,,,,,,,,,,,,,,,,,,,,,,,,,,,,,,,,,,
,,,,,WIN24_034,21,female,2024-02-02_13h20.12.814,jersey_experiment_5,2023.2.2,Win32,85.47008547,,,,,,,,,,,,,,,,308.5421,310.3414,310.3414,312.718,return,0.1179,,64.58333333,,,,,,FBP-YG-17.png,0.37,1.2,32,1,0,8,8,31,1,,,,,,,,,,,,,,,,,,,,,,,,,,,,,,,,,,,,,,,,
,,,,,WIN24_034,21,female,2024-02-02_13h20.12.814,jersey_experiment_5,2023.2.2,Win32,85.47008547,,,,,,,,,,,,,,,,312.7186,314.5182,314.5184,315.2827,return,0.1012,,77.34375,,,,,,FBP-YG-18.png,0.4,1.2,38,1,0,9,9,37,1,,,,,,,,,,,,,,,,,,,,,,,,,,,,,,,,,,,,,,,,
,,,,,WIN24_034,21,female,2024-02-02_13h20.12.814,jersey_experiment_5,2023.2.2,Win32,85.47008547,,,,,,,,,,,,,,,,315.283,317.0827,317.0828,317.5062,return,0.1114,,77.34375,,,,,,FBP-YG-18.png,0.43,1.2,39,1,0,10,10,38,1,,,,,,,,,,,,,,,,,,,,,,,,,,,,,,,,,,,,,,,,
,,,,,WIN24_034,21,female,2024-02-02_13h20.12.814,jersey_experiment_5,2023.2.2,Win32,85.47008547,,,,,,,,,,,,,,,,317.5065,318.8008,318.8009,319.3183,return,0.1235,,77.34375,,,,,,FBP-OG-18.png,0.43,1.2,9,0.5,0,11,11,8,1,,,,,,,,,,,,,,,,,,,,,,,,,,,,,,,,,,,,,,,,
,,,,,WIN24_034,21,female,2024-02-02_13h20.12.814,jersey_experiment_5,2023.2.2,Win32,85.47008547,,,,,,,,,,,,,,,,319.3189,321.1183,321.1183,321.8007,return,0.0614,,64.71354167,,,,,,FBP-YG-19.png,0.37,1.2,42,1,0,12,12,41,1,,,,,,,,,,,,,,,,,,,,,,,,,,,,,,,,,,,,,,,,
,,,,,WIN24_034,21,female,2024-02-02_13h20.12.814,jersey_experiment_5,2023.2.2,Win32,85.47008547,,,,,,,,,,,,,,,,321.8013,323.0948,323.0949,323.53,return,0.0245,,64.71354167,,,,,,FBP-OG-17.png,0.4,1.2,3,0.5,0,13,13,2,1,,,,,,,,,,,,,,,,,,,,,,,,,,,,,,,,,,,,,,,,
,,,,,WIN24_034,21,female,2024-02-02_13h20.12.814,jersey_experiment_5,2023.2.2,Win32,85.47008547,,,,,,,,,,,,,,,,323.5303,324.8247,324.8248,325.4596,return,0.043,,88.28125,,,,,,FBP-PT-81.png,0.43,1.2,54,0.5,0,14,14,53,1,,,,,,,,,,,,,,,,,,,,,,,,,,,,,,,,,,,,,,,,
,,,,,WIN24_034,21,female,2024-02-02_13h20.12.814,jersey_experiment_5,2023.2.2,Win32,85.47008547,,,,,,,,,,,,,,,,325.4599,326.7537,326.7537,327.6832,return,0.0552,,27.99479167,,,,,,FBP-OG-19.png,0.35,1.2,11,0.5,0,15,15,10,1,,,,,,,,,,,,,,,,,,,,,,,,,,,,,,,,,,,,,,,,
,,,,,WIN24_034,21,female,2024-02-02_13h20.12.814,jersey_experiment_5,2023.2.2,Win32,85.47008547,,,,,,,,,,,,,,,,327.6836,329.4834,329.4834,330.1656,return,0.1939,,89.19270833,,,,,,FBP-RB-81.png,0.4,1.2,23,1,0,16,16,22,1,,,,,,,,,,,,,,,,,,,,,,,,,,,,,,,,,,,,,,,,
,,,,,WIN24_034,21,female,2024-02-02_13h20.12.814,jersey_experiment_5,2023.2.2,Win32,85.47008547,,,,,,,,,,,,,,,,330.1658,331.9657,331.9658,332.5186,return,0.0989,,97.39583333,,,,,,FBP-RB-81.png,0.45,1.2,25,1,0,17,17,24,1,,,,,,,,,,,,,,,,,,,,,,,,,,,,,,,,,,,,,,,,
,,,,,WIN24_034,21,female,2024-02-02_13h20.12.814,jersey_experiment_5,2023.2.2,Win32,85.47008547,,,,,,,,,,,,,,,,332.5189,334.3188,334.3188,334.9304,return,0.1145,,94.921875,,,,,,FBP-RB-91.png,0.43,1.2,29,1,0,18,18,28,1,,,,,,,,,,,,,,,,,,,,,,,,,,,,,,,,,,,,,,,,
,,,,,WIN24_034,21,female,2024-02-02_13h20.12.814,jersey_experiment_5,2023.2.2,Win32,85.47008547,,,,,,,,,,,,,,,,334.9306,336.2247,336.2248,337.5778,return,0.0723,,70.3125,,,,,,FBP-PT-91.png,0.35,1.2,56,0.5,0,19,19,55,1,,,,,,,,,,,,,,,,,,,,,,,,,,,,,,,,,,,,,,,,
,,,,,WIN24_034,21,female,2024-02-02_13h20.12.814,jersey_experiment_5,2023.2.2,Win32,85.47008547,,,,,,,,,,,,,,,,337.5785,338.8719,338.8719,340.472,return,1.156,,63.671875,,,,,,FBP-PT-91.png,0.37,1.2,57,0.5,0,20,20,56,1,,,,,,,,,,,,,,,,,,,,,,,,,,,,,,,,,,,,,,,,
,,,,,WIN24_034,21,female,2024-02-02_13h20.12.814,jersey_experiment_5,2023.2.2,Win32,85.47008547,,,,,,,,,,,,,,,,340.4726,342.2722,342.2722,343.0486,return,0.1792,,87.109375,,,,,,FBP-RB-81.png,0.43,1.2,24,1,0,21,21,23,1,,,,,,,,,,,,,,,,,,,,,,,,,,,,,,,,,,,,,,,,
,,,,,WIN24_034,21,female,2024-02-02_13h20.12.814,jersey_experiment_5,2023.2.2,Win32,85.47008547,,,,,,,,,,,,,,,,343.0488,344.3427,344.3428,345.1426,return,0.1809,,95.44270833,,,,,,FBP-PT-71.png,0.45,1.2,50,0.5,0,22,22,49,1,,,,,,,,,,,,,,,,,,,,,,,,,,,,,,,,,,,,,,,,
,,,,,WIN24_034,21,female,2024-02-02_13h20.12.814,jersey_experiment_5,2023.2.2,Win32,85.47008547,,,,,,,,,,,,,,,,345.1429,346.9427,346.9427,347.5781,return,0.2132,,96.74479167,,,,,,FBP-RB-71.png,0.45,1.2,20,1,0,23,23,19,1,,,,,,,,,,,,,,,,,,,,,,,,,,,,,,,,,,,,,,,,
,,,,,WIN24_034,21,female,2024-02-02_13h20.12.814,jersey_experiment_5,2023.2.2,Win32,85.47008547,,,,,,,,,,,,,,,,347.5783,348.8723,348.8723,350.6371,return,0.1423,,32.94270833,,,,,,FBP-PT-71.png,0.37,1.2,47,0.5,0,24,24,46,1,,,,,,,,,,,,,,,,,,,,,,,,,,,,,,,,,,,,,,,,
,,,,,WIN24_034,21,female,2024-02-02_13h20.12.814,jersey_experiment_5,2023.2.2,Win32,85.47008547,,,,,,,,,,,,,,,,350.6373,352.4373,352.4375,353.0135,return,0.1233,,27.86458333,,,,,,FBP-YG-17.png,0.35,1.2,31,1,0,25,25,30,1,,,,,,,,,,,,,,,,,,,,,,,,,,,,,,,,,,,,,,,,
,,,,,WIN24_034,21,female,2024-02-02_13h20.12.814,jersey_experiment_5,2023.2.2,Win32,85.47008547,,,,,,,,,,,,,,,,353.0139,354.8139,354.8139,355.5547,return,0.2202,,71.61458333,,,,,,FBP-YG-19.png,0.4,1.2,43,1,0,26,26,42,1,,,,,,,,,,,,,,,,,,,,,,,,,,,,,,,,,,,,,,,,
,,,,,WIN24_034,21,female,2024-02-02_13h20.12.814,jersey_experiment_5,2023.2.2,Win32,85.47008547,,,,,,,,,,,,,,,,355.5551,357.3552,357.3552,358.3316,return,0.3421,,31.90104167,,,,,,FBP-RB-81.png,0.35,1.2,21,1,0,27,27,20,1,,,,,,,,,,,,,,,,,,,,,,,,,,,,,,,,,,,,,,,,
,,,,,WIN24_034,21,female,2024-02-02_13h20.12.814,jersey_experiment_5,2023.2.2,Win32,85.47008547,,,,,,,,,,,,,,,,358.332,359.6255,359.6255,360.6609,return,0.0534,,33.46354167,,,,,,FBP-OG-17.png,0.37,1.2,2,0.5,0,28,28,1,1,,,,,,,,,,,,,,,,,,,,,,,,,,,,,,,,,,,,,,,,
,,,,,WIN24_034,21,female,2024-02-02_13h20.12.814,jersey_experiment_5,2023.2.2,Win32,85.47008547,,,,,,,,,,,,,,,,360.6611,361.9552,361.9552,362.6962,return,0.0848,,85.15625,,,,,,FBP-PT-91.png,0.4,1.2,58,0.5,0,29,29,57,1,,,,,,,,,,,,,,,,,,,,,,,,,,,,,,,,,,,,,,,,
,,,,,WIN24_034,21,female,2024-02-02_13h20.12.814,jersey_experiment_5,2023.2.2,Win32,85.47008547,,,,,,,,,,,,,,,,362.6965,364.4963,364.4964,365.6728,return,0.0611,,73.30729167,,,,,,FBP-RB-71.png,0.37,1.2,17,1,0,30,30,16,1,,,,,,,,,,,,,,,,,,,,,,,,,,,,,,,,,,,,,,,,
,,,,,WIN24_034,21,female,2024-02-02_13h20.12.814,jersey_experiment_5,2023.2.2,Win32,85.47008547,,,,,,,,,,,,,,,,365.6732,366.967,366.967,368.3084,return,0.1718,,33.72395833,,,,,,FBP-PT-81.png,0.35,1.2,51,0.5,0,31,31,50,1,,,,,,,,,,,,,,,,,,,,,,,,,,,,,,,,,,,,,,,,
,,,,,WIN24_034,21,female,2024-02-02_13h20.12.814,jersey_experiment_5,2023.2.2,Win32,85.47008547,,,,,,,,,,,,,,,,368.3089,369.6023,369.6024,370.1201,return,0.0592,,33.46354167,,,,,,FBP-OG-18.png,0.35,1.2,6,0.5,0,32,32,5,1,,,,,,,,,,,,,,,,,,,,,,,,,,,,,,,,,,,,,,,,
,,,,,WIN24_034,21,female,2024-02-02_13h20.12.814,jersey_experiment_5,2023.2.2,Win32,85.47008547,,,,,,,,,,,,,,,,370.1203,371.4143,371.4143,372.1672,return,0.1102,,33.46354167,,,,,,FBP-OG-17.png,0.35,1.2,1,0.5,0,33,33,0,1,,,,,,,,,,,,,,,,,,,,,,,,,,,,,,,,,,,,,,,,
,,,,,WIN24_034,21,female,2024-02-02_13h20.12.814,jersey_experiment_5,2023.2.2,Win32,85.47008547,,,,,,,,,,,,,,,,372.1675,373.4614,373.4614,374.2026,return,0.0737,,83.33333333,,,,,,FBP-PT-81.png,0.45,1.2,55,0.5,0,34,34,54,1,,,,,,,,,,,,,,,,,,,,,,,,,,,,,,,,,,,,,,,,
,,,,,WIN24_034,21,female,2024-02-02_13h20.12.814,jersey_experiment_5,2023.2.2,Win32,85.47008547,,,,,,,,,,,,,,,,374.2029,376.0028,376.0028,377.3321,return,0.7338,,92.05729167,,,,,,FBP-YG-19.png,0.45,1.2,45,1,0,35,35,44,1,,,,,,,,,,,,,,,,,,,,,,,,,,,,,,,,,,,,,,,,
,,,,,WIN24_034,21,female,2024-02-02_13h20.12.814,jersey_experiment_5,2023.2.2,Win32,85.47008547,,,,,,,,,,,,,,,,377.3323,378.6266,378.6267,379.3677,return,0.1798,,90.88541667,,,,,,FBP-OG-18.png,0.4,1.2,8,0.5,0,36,36,7,1,,,,,,,,,,,,,,,,,,,,,,,,,,,,,,,,,,,,,,,,
,,,,,WIN24_034,21,female,2024-02-02_13h20.12.814,jersey_experiment_5,2023.2.2,Win32,85.47008547,,,,,,,,,,,,,,,,379.3684,380.6618,380.6619,381.5089,return,0.0648,,93.48958333,,,,,,FBP-PT-71.png,0.43,1.2,49,0.5,0,37,37,48,1,,,,,,,,,,,,,,,,,,,,,,,,,,,,,,,,,,,,,,,,
,,,,,WIN24_034,21,female,2024-02-02_13h20.12.814,jersey_experiment_5,2023.2.2,Win32,85.47008547,,,,,,,,,,,,,,,,381.5095,383.3089,383.3089,383.897,return,0.0139,,89.32291667,,,,,,FBP-YG-17.png,0.4,1.2,33,1,0,38,38,32,1,,,,,,,,,,,,,,,,,,,,,,,,,,,,,,,,,,,,,,,,
,,,,,WIN24_034,21,female,2024-02-02_13h20.12.814,jersey_experiment_5,2023.2.2,Win32,85.47008547,,,,,,,,,,,,,,,,383.8973,385.6971,385.6971,386.156,return,0.115,,89.32291667,,,,,,FBP-RB-91.png,0.4,1.2,28,1,0,39,39,27,1,,,,,,,,,,,,,,,,,,,,,,,,,,,,,,,,,,,,,,,,
,,,,,WIN24_034,21,female,2024-02-02_13h20.12.814,jersey_experiment_5,2023.2.2,Win32,85.47008547,,,,,,,,,,,,,,,,386.1562,387.4502,387.4502,388.509,return,0.0944,,89.32291667,,,,,,FBP-PT-91.png,0.43,1.2,59,0.5,0,40,40,58,1,,,,,,,,,,,,,,,,,,,,,,,,,,,,,,,,,,,,,,,,
,,,,,WIN24_034,21,female,2024-02-02_13h20.12.814,jersey_experiment_5,2023.2.2,Win32,85.47008547,,,,,,,,,,,,,,,,388.5092,389.8032,389.8033,390.6856,return,0.1178,,54.16666667,,,,,,FBP-OG-18.png,0.37,1.2,7,0.5,0,41,41,6,1,,,,,,,,,,,,,,,,,,,,,,,,,,,,,,,,,,,,,,,,
,,,,,WIN24_034,21,female,2024-02-02_13h20.12.814,jersey_experiment_5,2023.2.2,Win32,85.47008547,,,,,,,,,,,,,,,,390.686,392.4857,392.4857,393.6386,return,0.6282,,45.44270833,,,,,,FBP-YG-19.png,0.35,1.2,41,1,0,42,42,40,1,,,,,,,,,,,,,,,,,,,,,,,,,,,,,,,,,,,,,,,,
,,,,,WIN24_034,21,female,2024-02-02_13h20.12.814,jersey_experiment_5,2023.2.2,Win32,85.47008547,,,,,,,,,,,,,,,,393.639,394.9329,394.9329,395.4859,return,0.0949,,44.27083333,,,,,,FBP-PT-71.png,0.35,1.2,46,0.5,0,43,43,45,1,,,,,,,,,,,,,,,,,,,,,,,,,,,,,,,,,,,,,,,,
,,,,,WIN24_034,21,female,2024-02-02_13h20.12.814,jersey_experiment_5,2023.2.2,Win32,85.47008547,,,,,,,,,,,,,,,,395.4865,396.7799,396.7799,397.3211,return,0.0607,,44.27083333,,,,,,FBP-OG-19.png,0.37,1.2,12,0.5,0,44,44,11,1,,,,,,,,,,,,,,,,,,,,,,,,,,,,,,,,,,,,,,,,
,,,,,WIN24_034,21,female,2024-02-02_13h20.12.814,jersey_experiment_5,2023.2.2,Win32,85.47008547,,,,,,,,,,,,,,,,397.3213,399.1212,399.1212,399.6036,return,0.0658,,44.27083333,,,,,,FBP-RB-81.png,0.37,1.2,22,1,0,45,45,21,1,,,,,,,,,,,,,,,,,,,,,,,,,,,,,,,,,,,,,,,,
,,,,,WIN24_034,21,female,2024-02-02_13h20.12.814,jersey_experiment_5,2023.2.2,Win32,85.47008547,,,,,,,,,,,,,,,,399.6041,401.4038,401.4038,403.0037,return,1.0235,,62.76041667,,,,,,FBP-RB-71.png,0.4,1.2,18,1,0,46,46,17,1,,,,,,,,,,,,,,,,,,,,,,,,,,,,,,,,,,,,,,,,
,,,,,WIN24_034,21,female,2024-02-02_13h20.12.814,jersey_experiment_5,2023.2.2,Win32,85.47008547,,,,,,,,,,,,,,,,403.0041,404.298,404.298,405.8981,return,0.9311,,74.609375,,,,,,FBP-OG-17.png,0.43,1.2,4,0.5,0,47,47,3,1,,,,,,,,,,,,,,,,,,,,,,,,,,,,,,,,,,,,,,,,
,,,,,WIN24_034,21,female,2024-02-02_13h20.12.814,jersey_experiment_5,2023.2.2,Win32,85.47008547,,,,,,,,,,,,,,,,405.8984,407.6981,407.6984,408.2274,return,0.1845,,86.19791667,,,,,,FBP-YG-17.png,0.45,1.2,35,1,0,48,48,34,1,,,,,,,,,,,,,,,,,,,,,,,,,,,,,,,,,,,,,,,,
,,,,,WIN24_034,21,female,2024-02-02_13h20.12.814,jersey_experiment_5,2023.2.2,Win32,85.47008547,,,,,,,,,,,,,,,,408.2277,409.5217,409.5218,410.0863,return,0.2049,,86.19791667,,,,,,FBP-OG-19.png,0.43,1.2,14,0.5,0,49,49,13,1,,,,,,,,,,,,,,,,,,,,,,,,,,,,,,,,,,,,,,,,
,,,,,WIN24_034,21,female,2024-02-02_13h20.12.814,jersey_experiment_5,2023.2.2,Win32,85.47008547,,,,,,,,,,,,,,,,410.0866,411.3811,411.3811,411.9452,return,0.2372,,86.328125,,,,,,FBP-OG-18.png,0.45,1.2,10,0.5,0,50,50,9,1,,,,,,,,,,,,,,,,,,,,,,,,,,,,,,,,,,,,,,,,
,,,,,WIN24_034,21,female,2024-02-02_13h20.12.814,jersey_experiment_5,2023.2.2,Win32,85.47008547,,,,,,,,,,,,,,,,411.9458,413.7454,413.7454,414.2983,return,0.1775,,86.71875,,,,,,FBP-YG-17.png,0.43,1.2,34,1,0,51,51,33,1,,,,,,,,,,,,,,,,,,,,,,,,,,,,,,,,,,,,,,,,
,,,,,WIN24_034,21,female,2024-02-02_13h20.12.814,jersey_experiment_5,2023.2.2,Win32,85.47008547,,,,,,,,,,,,,,,,414.2986,416.0983,416.0983,416.6983,return,0.2596,,86.71875,,,,,,FBP-YG-19.png,0.43,1.2,44,1,0,52,52,43,1,,,,,,,,,,,,,,,,,,,,,,,,,,,,,,,,,,,,,,,,
,,,,,WIN24_034,21,female,2024-02-02_13h20.12.814,jersey_experiment_5,2023.2.2,Win32,85.47008547,,,,,,,,,,,,,,,,416.6986,417.9925,417.9925,418.6162,return,0.1795,,86.71875,,,,,,FBP-OG-19.png,0.4,1.2,13,0.5,0,53,53,12,1,,,,,,,,,,,,,,,,,,,,,,,,,,,,,,,,,,,,,,,,
,,,,,WIN24_034,21,female,2024-02-02_13h20.12.814,jersey_experiment_5,2023.2.2,Win32,85.47008547,,,,,,,,,,,,,,,,418.6165,420.4162,420.4163,421.0987,return,0.2595,,91.92708333,,,,,,FBP-RB-71.png,0.43,1.2,19,1,0,54,54,18,1,,,,,,,,,,,,,,,,,,,,,,,,,,,,,,,,,,,,,,,,
,,,,,WIN24_034,21,female,2024-02-02_13h20.12.814,jersey_experiment_5,2023.2.2,Win32,85.47008547,,,,,,,,,,,,,,,,421.0993,422.8988,422.8988,425.0634,return,1.404,,53.90625,,,,,,FBP-RB-91.png,0.35,1.2,26,1,0,55,55,25,1,,,,,,,,,,,,,,,,,,,,,,,,,,,,,,,,,,,,,,,,
,,,,,WIN24_034,21,female,2024-02-02_13h20.12.814,jersey_experiment_5,2023.2.2,Win32,85.47008547,,,,,,,,,,,,,,,,425.0639,426.3577,426.3577,428.2047,return,1.3407,,73.30729167,,,,,,FBP-PT-91.png,0.45,1.2,60,0.5,0,56,56,59,1,,,,,,,,,,,,,,,,,,,,,,,,,,,,,,,,,,,,,,,,
,,,,,WIN24_034,21,female,2024-02-02_13h20.12.814,jersey_experiment_5,2023.2.2,Win32,85.47008547,,,,,,,,,,,,,,,,428.205,430.005,430.005,430.9696,return,0.1077,,53.38541667,,,,,,FBP-YG-18.png,0.37,1.2,37,1,0,57,57,36,1,,,,,,,,,,,,,,,,,,,,,,,,,,,,,,,,,,,,,,,,
,,,,,WIN24_034,21,female,2024-02-02_13h20.12.814,jersey_experiment_5,2023.2.2,Win32,85.47008547,,,,,,,,,,,,,,,,430.9701,432.2637,432.2637,433.1932,return,0.4382,,53.64583333,,,,,,FBP-PT-71.png,0.4,1.2,48,0.5,0,58,58,47,1,,,,,,,,,,,,,,,,,,,,,,,,,,,,,,,,,,,,,,,,
,,,,,WIN24_034,21,female,2024-02-02_13h20.12.814,jersey_experiment_5,2023.2.2,Win32,85.47008547,,,,,,,,,,,,,,,,433.1938,434.9932,434.9932,435.5581,return,0.1114,,36.58854167,,,,,,FBP-RB-71.png,0.35,1.2,16,1,0,59,59,15,1,,,,,,,,,,,,,,,,,,,,,,,,,,,,,,,,,,,,,,,,
,,,,,WIN24_034,21,female,2024-02-02_13h20.12.814,jersey_experiment_5,2023.2.2,Win32,85.47008547,,,,,,,,,,,,,,,,,,,,,,,,,,,,,,,,,,,,,,,435.5583,555.5633,,,,,,,,,,,,,,,,,,,,,,,,,,,,,,,,,,,,,,
,,,,,WIN24_034,21,female,2024-02-02_13h20.12.814,jersey_experiment_5,2023.2.2,Win32,85.47008547,,,,,,,,,,,,,,,,,,,,,,,,,,,,,,,,,,,,,,,,,555.5635,972.8612,return,417.2829,,,,,,,,,,,,,,,,,,,,,,,,,,,,,,,,,,
,,,,,WIN24_034,21,female,2024-02-02_13h20.12.814,jersey_experiment_5,2023.2.2,Win32,85.47008547,,,,,,,,,,,,,,,,972.8711,974.1665,974.1666,977.9079,return,1.8199,,36.06770833,,,,,,FBP-YG-91.png,0.35,1.2,41,0.5,,,,,,,,,,,,,0,0,0,40,1,,,,,,,,,,,,,,,,,,,,,,,,,,,,
,,,,,WIN24_034,21,female,2024-02-02_13h20.12.814,jersey_experiment_5,2023.2.2,Win32,85.47008547,,,,,,,,,,,,,,,,977.9087,979.2023,979.2023,979.9904,return,0.1699,,64.453125,,,,,,FBP-RB-18.png,0.4,1.2,23,0.5,,,,,,,,,,,,,0,1,1,22,1,,,,,,,,,,,,,,,,,,,,,,,,,,,,
,,,,,WIN24_034,21,female,2024-02-02_13h20.12.814,jersey_experiment_5,2023.2.2,Win32,85.47008547,,,,,,,,,,,,,,,,979.9906,981.2846,981.2846,982.2022,return,0.1308,,32.68229167,,,,,,FBP-YG-81.png,0.35,1.2,36,0.5,,,,,,,,,,,,,0,2,2,35,1,,,,,,,,,,,,,,,,,,,,,,,,,,,,
,,,,,WIN24_034,21,female,2024-02-02_13h20.12.814,jersey_experiment_5,2023.2.2,Win32,85.47008547,,,,,,,,,,,,,,,,982.2025,984.0023,984.0024,984.9791,return,0.2682,,61.19791667,,,,,,FBP-OG-91.png,0.4,1.2,13,1,,,,,,,,,,,,,0,3,3,12,1,,,,,,,,,,,,,,,,,,,,,,,,,,,,
,,,,,WIN24_034,21,female,2024-02-02_13h20.12.814,jersey_experiment_5,2023.2.2,Win32,85.47008547,,,,,,,,,,,,,,,,984.9795,986.7789,986.7789,987.673,return,0.1441,,73.30729167,,,,,,FBP-PT-17.png,0.43,1.2,49,1,,,,,,,,,,,,,0,4,4,48,1,,,,,,,,,,,,,,,,,,,,,,,,,,,,
,,,,,WIN24_034,21,female,2024-02-02_13h20.12.814,jersey_experiment_5,2023.2.2,Win32,85.47008547,,,,,,,,,,,,,,,,987.6734,989.4731,989.4731,989.9791,return,0.144,,78.515625,,,,,,FBP-PT-18.png,0.45,1.2,55,1,,,,,,,,,,,,,0,5,5,54,1,,,,,,,,,,,,,,,,,,,,,,,,,,,,
,,,,,WIN24_034,21,female,2024-02-02_13h20.12.814,jersey_experiment_5,2023.2.2,Win32,85.47008547,,,,,,,,,,,,,,,,989.9793,991.7791,991.7791,992.4614,return,0.1532,,73.4375,,,,,,FBP-PT-18.png,0.43,1.2,54,1,,,,,,,,,,,,,0,6,6,53,1,,,,,,,,,,,,,,,,,,,,,,,,,,,,
,,,,,WIN24_034,21,female,2024-02-02_13h20.12.814,jersey_experiment_5,2023.2.2,Win32,85.47008547,,,,,,,,,,,,,,,,992.4617,993.7555,993.7556,994.9087,return,0.1646,,30.46875,,,,,,FBP-YG-71.png,0.37,1.2,32,0.5,,,,,,,,,,,,,0,7,7,31,1,,,,,,,,,,,,,,,,,,,,,,,,,,,,
,,,,,WIN24_034,21,female,2024-02-02_13h20.12.814,jersey_experiment_5,2023.2.2,Win32,85.47008547,,,,,,,,,,,,,,,,994.909,996.2026,996.2027,997.0499,return,0.3074,,35.67708333,,,,,,FBP-YG-81.png,0.37,1.2,37,0.5,,,,,,,,,,,,,0,8,8,36,1,,,,,,,,,,,,,,,,,,,,,,,,,,,,
,,,,,WIN24_034,21,female,2024-02-02_13h20.12.814,jersey_experiment_5,2023.2.2,Win32,85.47008547,,,,,,,,,,,,,,,,997.0503,998.85,998.85,999.3205,return,0.1561,,35.41666667,,,,,,FBP-OG-81.png,0.37,1.2,7,1,,,,,,,,,,,,,0,9,9,6,1,,,,,,,,,,,,,,,,,,,,,,,,,,,,
,,,,,WIN24_034,21,female,2024-02-02_13h20.12.814,jersey_experiment_5,2023.2.2,Win32,85.47008547,,,,,,,,,,,,,,,,999.3208,1001.1206,1001.1206,1001.6029,return,0.0671,,40.75520833,,,,,,FBP-OG-71.png,0.35,1.2,1,1,,,,,,,,,,,,,0,10,10,0,1,,,,,,,,,,,,,,,,,,,,,,,,,,,,
,,,,,WIN24_034,21,female,2024-02-02_13h20.12.814,jersey_experiment_5,2023.2.2,Win32,85.47008547,,,,,,,,,,,,,,,,1001.6032,1003.403,1003.403,1004.0266,return,0.0836,,72.52604167,,,,,,FBP-PT-19.png,0.43,1.2,59,1,,,,,,,,,,,,,0,11,11,58,1,,,,,,,,,,,,,,,,,,,,,,,,,,,,
,,,,,WIN24_034,21,female,2024-02-02_13h20.12.814,jersey_experiment_5,2023.2.2,Win32,85.47008547,,,,,,,,,,,,,,,,1004.0268,1005.3209,1005.3209,1006.2854,return,0.1419,,35.67708333,,,,,,FBP-RB-17.png,0.37,1.2,17,0.5,,,,,,,,,,,,,0,12,12,16,1,,,,,,,,,,,,,,,,,,,,,,,,,,,,
,,,,,WIN24_034,21,female,2024-02-02_13h20.12.814,jersey_experiment_5,2023.2.2,Win32,85.47008547,,,,,,,,,,,,,,,,1006.2857,1008.0857,1008.0857,1008.6622,return,0.088,,35.80729167,,,,,,FBP-PT-18.png,0.37,1.2,52,1,,,,,,,,,,,,,0,13,13,51,1,,,,,,,,,,,,,,,,,,,,,,,,,,,,
,,,,,WIN24_034,21,female,2024-02-02_13h20.12.814,jersey_experiment_5,2023.2.2,Win32,85.47008547,,,,,,,,,,,,,,,,1008.6626,1010.4623,1010.4625,1011.3093,return,0.3525,,77.86458333,,,,,,FBP-OG-91.png,0.45,1.2,15,1,,,,,,,,,,,,,0,14,14,14,1,,,,,,,,,,,,,,,,,,,,,,,,,,,,
,,,,,WIN24_034,21,female,2024-02-02_13h20.12.814,jersey_experiment_5,2023.2.2,Win32,85.47008547,,,,,,,,,,,,,,,,1011.3097,1013.1094,1013.1094,1013.7328,return,0.1953,,26.953125,,,,,,FBP-OG-71.png,0.37,1.2,2,1,,,,,,,,,,,,,0,15,15,1,1,,,,,,,,,,,,,,,,,,,,,,,,,,,,
,,,,,WIN24_034,21,female,2024-02-02_13h20.12.814,jersey_experiment_5,2023.2.2,Win32,85.47008547,,,,,,,,,,,,,,,,1013.7331,1015.027,1015.027,1015.8154,return,0.0635,,76.04166667,,,,,,FBP-YG-91.png,0.43,1.2,44,0.5,,,,,,,,,,,,,0,16,16,43,1,,,,,,,,,,,,,,,,,,,,,,,,,,,,
,,,,,WIN24_034,21,female,2024-02-02_13h20.12.814,jersey_experiment_5,2023.2.2,Win32,85.47008547,,,,,,,,,,,,,,,,1015.8156,1017.6155,1017.6155,1018.1098,return,0.0589,,64.97395833,,,,,,FBP-PT-19.png,0.4,1.2,58,1,,,,,,,,,,,,,0,17,17,57,1,,,,,,,,,,,,,,,,,,,,,,,,,,,,
,,,,,WIN24_034,21,female,2024-02-02_13h20.12.814,jersey_experiment_5,2023.2.2,Win32,85.47008547,,,,,,,,,,,,,,,,1018.1105,1019.4035,1019.4036,1020.3449,return,0.0971,,73.4375,,,,,,FBP-YG-91.png,0.45,1.2,45,0.5,,,,,,,,,,,,,0,18,18,44,1,,,,,,,,,,,,,,,,,,,,,,,,,,,,
,,,,,WIN24_034,21,female,2024-02-02_13h20.12.814,jersey_experiment_5,2023.2.2,Win32,85.47008547,,,,,,,,,,,,,,,,1020.3451,1021.6392,1021.6392,1022.2156,return,0.0271,,75,,,,,,FBP-RB-18.png,0.45,1.2,25,0.5,,,,,,,,,,,,,0,19,19,24,1,,,,,,,,,,,,,,,,,,,,,,,,,,,,
,,,,,WIN24_034,21,female,2024-02-02_13h20.12.814,jersey_experiment_5,2023.2.2,Win32,85.47008547,,,,,,,,,,,,,,,,1022.2162,1023.5096,1023.5097,1024.5332,return,0.0768,,26.5625,,,,,,FBP-YG-71.png,0.35,1.2,31,0.5,,,,,,,,,,,,,0,20,20,30,1,,,,,,,,,,,,,,,,,,,,,,,,,,,,
,,,,,WIN24_034,21,female,2024-02-02_13h20.12.814,jersey_experiment_5,2023.2.2,Win32,85.47008547,,,,,,,,,,,,,,,,1024.5336,1025.8276,1025.8276,1026.5333,return,0.0773,,75,,,,,,FBP-RB-17.png,0.43,1.2,19,0.5,,,,,,,,,,,,,0,21,21,18,1,,,,,,,,,,,,,,,,,,,,,,,,,,,,
,,,,,WIN24_034,21,female,2024-02-02_13h20.12.814,jersey_experiment_5,2023.2.2,Win32,85.47008547,,,,,,,,,,,,,,,,1026.5335,1028.3336,1028.3337,1028.6747,return,0.033,,80.98958333,,,,,,FBP-PT-17.png,0.45,1.2,50,1,,,,,,,,,,,,,0,22,22,49,1,,,,,,,,,,,,,,,,,,,,,,,,,,,,
,,,,,WIN24_034,21,female,2024-02-02_13h20.12.814,jersey_experiment_5,2023.2.2,Win32,85.47008547,,,,,,,,,,,,,,,,1028.6749,1029.9687,1029.9688,1030.8277,return,0.0618,,34.50520833,,,,,,FBP-RB-17.png,0.35,1.2,16,0.5,,,,,,,,,,,,,0,23,23,15,1,,,,,,,,,,,,,,,,,,,,,,,,,,,,
,,,,,WIN24_034,21,female,2024-02-02_13h20.12.814,jersey_experiment_5,2023.2.2,Win32,85.47008547,,,,,,,,,,,,,,,,1030.8279,1032.6277,1032.6277,1033.3337,return,0.0415,,35.9375,,,,,,FBP-PT-17.png,0.4,1.2,48,1,,,,,,,,,,,,,0,24,24,47,1,,,,,,,,,,,,,,,,,,,,,,,,,,,,
,,,,,WIN24_034,21,female,2024-02-02_13h20.12.814,jersey_experiment_5,2023.2.2,Win32,85.47008547,,,,,,,,,,,,,,,,1033.3341,1034.628,1034.6281,1035.0278,return,0.0193,,36.328125,,,,,,FBP-RB-19.png,0.37,1.2,27,0.5,,,,,,,,,,,,,0,25,25,26,1,,,,,,,,,,,,,,,,,,,,,,,,,,,,
,,,,,WIN24_034,21,female,2024-02-02_13h20.12.814,jersey_experiment_5,2023.2.2,Win32,85.47008547,,,,,,,,,,,,,,,,1035.0281,1036.8278,1036.8279,1037.3338,return,0.0297,,73.828125,,,,,,FBP-OG-91.png,0.43,1.2,14,1,,,,,,,,,,,,,0,26,26,13,1,,,,,,,,,,,,,,,,,,,,,,,,,,,,
,,,,,WIN24_034,21,female,2024-02-02_13h20.12.814,jersey_experiment_5,2023.2.2,Win32,85.47008547,,,,,,,,,,,,,,,,1037.334,1038.6279,1038.6279,1040.5224,return,0.1665,,21.22395833,,,,,,FBP-RB-18.png,0.37,1.2,22,0.5,,,,,,,,,,,,,0,27,27,21,1,,,,,,,,,,,,,,,,,,,,,,,,,,,,
,,,,,WIN24_034,21,female,2024-02-02_13h20.12.814,jersey_experiment_5,2023.2.2,Win32,85.47008547,,,,,,,,,,,,,,,,1040.5227,1042.3223,1042.3223,1043.4163,return,0.0626,,20.83333333,,,,,,FBP-OG-91.png,0.37,1.2,12,1,,,,,,,,,,,,,0,28,28,11,1,,,,,,,,,,,,,,,,,,,,,,,,,,,,
,,,,,WIN24_034,21,female,2024-02-02_13h20.12.814,jersey_experiment_5,2023.2.2,Win32,85.47008547,,,,,,,,,,,,,,,,1043.4165,1045.2165,1045.2165,1046.3811,return,0.0707,,78.25520833,,,,,,FBP-OG-71.png,0.43,1.2,4,1,,,,,,,,,,,,,0,29,29,3,1,,,,,,,,,,,,,,,,,,,,,,,,,,,,
,,,,,WIN24_034,21,female,2024-02-02_13h20.12.814,jersey_experiment_5,2023.2.2,Win32,85.47008547,,,,,,,,,,,,,,,,1046.3814,1047.6759,1047.676,1048.5696,return,0.0135,,21.74479167,,,,,,FBP-RB-19.png,0.35,1.2,26,0.5,,,,,,,,,,,,,0,30,30,25,1,,,,,,,,,,,,,,,,,,,,,,,,,,,,
,,,,,WIN24_034,21,female,2024-02-02_13h20.12.814,jersey_experiment_5,2023.2.2,Win32,85.47008547,,,,,,,,,,,,,,,,1048.5703,1049.8637,1049.8637,1050.5813,return,0.0418,,82.68229167,,,,,,FBP-RB-17.png,0.45,1.2,20,0.5,,,,,,,,,,,,,0,31,31,19,1,,,,,,,,,,,,,,,,,,,,,,,,,,,,
,,,,,WIN24_034,21,female,2024-02-02_13h20.12.814,jersey_experiment_5,2023.2.2,Win32,85.47008547,,,,,,,,,,,,,,,,1050.5815,1051.8756,1051.8756,1052.2755,return,0.0555,,82.68229167,,,,,,FBP-RB-19.png,0.43,1.2,29,0.5,,,,,,,,,,,,,0,32,32,28,1,,,,,,,,,,,,,,,,,,,,,,,,,,,,
,,,,,WIN24_034,21,female,2024-02-02_13h20.12.814,jersey_experiment_5,2023.2.2,Win32,85.47008547,,,,,,,,,,,,,,,,1052.2758,1054.0761,1054.0762,1054.7579,return,0.0147,,23.95833333,,,,,,FBP-PT-18.png,0.35,1.2,51,1,,,,,,,,,,,,,0,33,33,50,1,,,,,,,,,,,,,,,,,,,,,,,,,,,,
,,,,,WIN24_034,21,female,2024-02-02_13h20.12.814,jersey_experiment_5,2023.2.2,Win32,85.47008547,,,,,,,,,,,,,,,,1054.7582,1056.558,1056.5581,1057.1817,return,0.0126,,75.390625,,,,,,FBP-OG-81.png,0.43,1.2,9,1,,,,,,,,,,,,,0,34,34,8,1,,,,,,,,,,,,,,,,,,,,,,,,,,,,
,,,,,WIN24_034,21,female,2024-02-02_13h20.12.814,jersey_experiment_5,2023.2.2,Win32,85.47008547,,,,,,,,,,,,,,,,1057.1823,1058.4759,1058.476,1058.8758,return,0.012,,83.59375,,,,,,FBP-RB-18.png,0.43,1.2,24,0.5,,,,,,,,,,,,,0,35,35,23,1,,,,,,,,,,,,,,,,,,,,,,,,,,,,
,,,,,WIN24_034,21,female,2024-02-02_13h20.12.814,jersey_experiment_5,2023.2.2,Win32,85.47008547,,,,,,,,,,,,,,,,1058.8762,1060.6762,1060.6762,1061.2879,return,0.0042,,26.30208333,,,,,,FBP-OG-91.png,0.35,1.2,11,1,,,,,,,,,,,,,0,36,36,10,1,,,,,,,,,,,,,,,,,,,,,,,,,,,,
,,,,,WIN24_034,21,female,2024-02-02_13h20.12.814,jersey_experiment_5,2023.2.2,Win32,85.47008547,,,,,,,,,,,,,,,,1061.2882,1062.5819,1062.582,1064.4408,return,0.0145,,52.21354167,,,,,,FBP-YG-71.png,0.4,1.2,33,0.5,,,,,,,,,,,,,0,37,37,32,1,,,,,,,,,,,,,,,,,,,,,,,,,,,,
,,,,,WIN24_034,21,female,2024-02-02_13h20.12.814,jersey_experiment_5,2023.2.2,Win32,85.47008547,,,,,,,,,,,,,,,,1064.4411,1066.2408,1066.2409,1067.8055,return,0.9882,,30.078125,,,,,,FBP-PT-19.png,0.35,1.2,56,1,,,,,,,,,,,,,0,38,38,55,1,,,,,,,,,,,,,,,,,,,,,,,,,,,,
,,,,,WIN24_034,21,female,2024-02-02_13h20.12.814,jersey_experiment_5,2023.2.2,Win32,85.47008547,,,,,,,,,,,,,,,,1067.8057,1069.6058,1069.6059,1070.2292,return,0.0185,,22.265625,,,,,,FBP-OG-81.png,0.35,1.2,6,1,,,,,,,,,,,,,0,39,39,5,1,,,,,,,,,,,,,,,,,,,,,,,,,,,,
,,,,,WIN24_034,21,female,2024-02-02_13h20.12.814,jersey_experiment_5,2023.2.2,Win32,85.47008547,,,,,,,,,,,,,,,,1070.2295,1072.0292,1072.0292,1072.7117,return,0.0283,,82.8125,,,,,,FBP-OG-71.png,0.45,1.2,5,1,,,,,,,,,,,,,0,40,40,4,1,,,,,,,,,,,,,,,,,,,,,,,,,,,,
,,,,,WIN24_034,21,female,2024-02-02_13h20.12.814,jersey_experiment_5,2023.2.2,Win32,85.47008547,,,,,,,,,,,,,,,,1072.7122,1074.0057,1074.0057,1074.8883,return,0.0007,,82.8125,,,,,,FBP-RB-17.png,0.4,1.2,18,0.5,,,,,,,,,,,,,0,41,41,17,1,,,,,,,,,,,,,,,,,,,,,,,,,,,,
,,,,,WIN24_034,21,female,2024-02-02_13h20.12.814,jersey_experiment_5,2023.2.2,Win32,85.47008547,,,,,,,,,,,,,,,,1074.8886,1076.1823,1076.1823,1077.594,return,0.5781,,26.04166667,,,,,,FBP-RB-18.png,0.35,1.2,21,0.5,,,,,,,,,,,,,0,42,42,20,1,,,,,,,,,,,,,,,,,,,,,,,,,,,,
,,,,,WIN24_034,21,female,2024-02-02_13h20.12.814,jersey_experiment_5,2023.2.2,Win32,85.47008547,,,,,,,,,,,,,,,,1077.5943,1078.8883,1078.8883,1080.6179,return,0.0255,,64.32291667,,,,,,FBP-RB-19.png,0.4,1.2,28,0.5,,,,,,,,,,,,,0,43,43,27,1,,,,,,,,,,,,,,,,,,,,,,,,,,,,
,,,,,WIN24_034,21,female,2024-02-02_13h20.12.814,jersey_experiment_5,2023.2.2,Win32,85.47008547,,,,,,,,,,,,,,,,1080.6186,1081.9119,1081.912,1088.0298,return,0.0477,,64.32291667,,,,,,FBP-YG-71.png,0.43,1.2,34,0.5,,,,,,,,,,,,,0,44,44,33,1,,,,,,,,,,,,,,,,,,,,,,,,,,,,
,,,,,WIN24_034,21,female,2024-02-02_13h20.12.814,jersey_experiment_5,2023.2.2,Win32,85.47008547,,,,,,,,,,,,,,,,1088.0303,1089.3243,1089.3243,1090.7947,return,0.4368,,75.52083333,,,,,,FBP-YG-81.png,0.43,1.2,39,0.5,,,,,,,,,,,,,0,45,45,38,1,,,,,,,,,,,,,,,,,,,,,,,,,,,,
,,,,,WIN24_034,21,female,2024-02-02_13h20.12.814,jersey_experiment_5,2023.2.2,Win32,85.47008547,,,,,,,,,,,,,,,,1090.7952,1092.0887,1092.0887,1092.8065,return,0.0526,,30.59895833,,,,,,FBP-YG-91.png,0.37,1.2,42,0.5,,,,,,,,,,,,,0,46,46,41,1,,,,,,,,,,,,,,,,,,,,,,,,,,,,
,,,,,WIN24_034,21,female,2024-02-02_13h20.12.814,jersey_experiment_5,2023.2.2,Win32,85.47008547,,,,,,,,,,,,,,,,1092.8067,1094.1008,1094.1008,1094.7007,return,0.0259,,75.390625,,,,,,FBP-RB-19.png,0.45,1.2,30,0.5,,,,,,,,,,,,,0,47,47,29,1,,,,,,,,,,,,,,,,,,,,,,,,,,,,
,,,,,WIN24_034,21,female,2024-02-02_13h20.12.814,jersey_experiment_5,2023.2.2,Win32,85.47008547,,,,,,,,,,,,,,,,1094.7009,1096.5009,1096.5009,1096.9007,return,0.1251,,83.203125,,,,,,FBP-OG-81.png,0.45,1.2,10,1,,,,,,,,,,,,,0,48,48,9,1,,,,,,,,,,,,,,,,,,,,,,,,,,,,
,,,,,WIN24_034,21,female,2024-02-02_13h20.12.814,jersey_experiment_5,2023.2.2,Win32,85.47008547,,,,,,,,,,,,,,,,1096.9009,1098.701,1098.701,1099.595,return,0.0359,,66.14583333,,,,,,FBP-OG-71.png,0.4,1.2,3,1,,,,,,,,,,,,,0,49,49,2,1,,,,,,,,,,,,,,,,,,,,,,,,,,,,
,,,,,WIN24_034,21,female,2024-02-02_13h20.12.814,jersey_experiment_5,2023.2.2,Win32,85.47008547,,,,,,,,,,,,,,,,1099.5954,1100.889,1100.8891,1101.7009,return,0.5123,,66.14583333,,,,,,FBP-YG-91.png,0.4,1.2,43,0.5,,,,,,,,,,,,,0,50,50,42,1,,,,,,,,,,,,,,,,,,,,,,,,,,,,
,,,,,WIN24_034,21,female,2024-02-02_13h20.12.814,jersey_experiment_5,2023.2.2,Win32,85.47008547,,,,,,,,,,,,,,,,1101.7016,1102.995,1102.9951,1103.4187,return,0.0123,,66.14583333,,,,,,FBP-YG-81.png,0.4,1.2,38,0.5,,,,,,,,,,,,,0,51,51,37,1,,,,,,,,,,,,,,,,,,,,,,,,,,,,
,,,,,WIN24_034,21,female,2024-02-02_13h20.12.814,jersey_experiment_5,2023.2.2,Win32,85.47008547,,,,,,,,,,,,,,,,1103.4191,1104.7129,1104.7129,1105.3952,return,0.0645,,80.46875,,,,,,FBP-YG-71.png,0.45,1.2,35,0.5,,,,,,,,,,,,,0,52,52,34,1,,,,,,,,,,,,,,,,,,,,,,,,,,,,
,,,,,WIN24_034,21,female,2024-02-02_13h20.12.814,jersey_experiment_5,2023.2.2,Win32,85.47008547,,,,,,,,,,,,,,,,1105.3954,1106.6892,1106.6893,1107.1128,return,0.083,,80.46875,,,,,,FBP-YG-81.png,0.45,1.2,40,0.5,,,,,,,,,,,,,0,53,53,39,1,,,,,,,,,,,,,,,,,,,,,,,,,,,,
,,,,,WIN24_034,21,female,2024-02-02_13h20.12.814,jersey_experiment_5,2023.2.2,Win32,85.47008547,,,,,,,,,,,,,,,,1107.1133,1108.9132,1108.9133,1110.1836,return,0.0866,,53.64583333,,,,,,FBP-PT-18.png,0.4,1.2,53,1,,,,,,,,,,,,,0,54,54,52,1,,,,,,,,,,,,,,,,,,,,,,,,,,,,
,,,,,WIN24_034,21,female,2024-02-02_13h20.12.814,jersey_experiment_5,2023.2.2,Win32,85.47008547,,,,,,,,,,,,,,,,1110.1839,1111.9836,1111.9836,1113.2779,return,0.1175,,35.9375,,,,,,FBP-PT-17.png,0.35,1.2,46,1,,,,,,,,,,,,,0,55,55,45,1,,,,,,,,,,,,,,,,,,,,,,,,,,,,
,,,,,WIN24_034,21,female,2024-02-02_13h20.12.814,jersey_experiment_5,2023.2.2,Win32,85.47008547,,,,,,,,,,,,,,,,1113.2785,1115.0781,1115.0781,1116.7721,return,0.2197,,57.29166667,,,,,,FBP-OG-81.png,0.4,1.2,8,1,,,,,,,,,,,,,0,56,56,7,1,,,,,,,,,,,,,,,,,,,,,,,,,,,,
,,,,,WIN24_034,21,female,2024-02-02_13h20.12.814,jersey_experiment_5,2023.2.2,Win32,85.47008547,,,,,,,,,,,,,,,,1116.7723,1118.5721,1118.5721,1119.2074,return,0.0987,,58.07291667,,,,,,FBP-PT-17.png,0.37,1.2,47,1,,,,,,,,,,,,,0,57,57,46,1,,,,,,,,,,,,,,,,,,,,,,,,,,,,
,,,,,WIN24_034,21,female,2024-02-02_13h20.12.814,jersey_experiment_5,2023.2.2,Win32,85.47008547,,,,,,,,,,,,,,,,1119.2077,1121.0079,1121.0079,1121.5488,return,0.0941,,85.28645833,,,,,,FBP-PT-19.png,0.45,1.2,60,1,,,,,,,,,,,,,0,58,58,59,1,,,,,,,,,,,,,,,,,,,,,,,,,,,,
,,,,,WIN24_034,21,female,2024-02-02_13h20.12.814,jersey_experiment_5,2023.2.2,Win32,85.47008547,,,,,,,,,,,,,,,,1121.5494,1123.349,1123.3491,1124.5254,return,0.1412,,31.90104167,,,,,,FBP-PT-19.png,0.37,1.2,57,1,,,,,,,,,,,,,0,59,59,56,1,,,,,,,,,,,,,,,,,,,,,,,,,,,,
,,,,,WIN24_034,21,female,2024-02-02_13h20.12.814,jersey_experiment_5,2023.2.2,Win32,85.47008547,,,,,,,,,,,,,,,,1124.5268,1125.8197,1125.8197,1126.9961,return,0.0902,,61.58854167,,,,,,FBP-YG-18.png,0.4,1.2,38,0.5,,,,,,,,,,,,,,,,,,0,0,0,37,1,,,,,,,,,,,,,,,,,,,,,,,
,,,,,WIN24_034,21,female,2024-02-02_13h20.12.814,jersey_experiment_5,2023.2.2,Win32,85.47008547,,,,,,,,,,,,,,,,1126.9964,1128.2903,1128.2904,1129.0431,return,0.0307,,83.72395833,,,,,,FBP-RB-91.png,0.43,1.2,29,0.5,,,,,,,,,,,,,,,,,,0,1,1,28,1,,,,,,,,,,,,,,,,,,,,,,,
,,,,,WIN24_034,21,female,2024-02-02_13h20.12.814,jersey_experiment_5,2023.2.2,Win32,85.47008547,,,,,,,,,,,,,,,,1129.0433,1130.8432,1130.8432,1131.5609,return,0.3776,,83.72395833,,,,,,FBP-PT-71.png,0.43,1.2,49,1,,,,,,,,,,,,,,,,,,0,2,2,48,1,,,,,,,,,,,,,,,,,,,,,,,
,,,,,WIN24_034,21,female,2024-02-02_13h20.12.814,jersey_experiment_5,2023.2.2,Win32,85.47008547,,,,,,,,,,,,,,,,1131.5611,1132.855,1132.855,1134.5492,return,1.2656,,69.40104167,,,,,,FBP-RB-71.png,0.37,1.2,17,0.5,,,,,,,,,,,,,,,,,,0,3,3,16,1,,,,,,,,,,,,,,,,,,,,,,,
,,,,,WIN24_034,21,female,2024-02-02_13h20.12.814,jersey_experiment_5,2023.2.2,Win32,85.47008547,,,,,,,,,,,,,,,,1134.5495,1135.8434,1135.8435,1136.4435,return,0.0592,,69.40104167,,,,,,FBP-YG-19.png,0.37,1.2,42,0.5,,,,,,,,,,,,,,,,,,0,4,4,41,1,,,,,,,,,,,,,,,,,,,,,,,
,,,,,WIN24_034,21,female,2024-02-02_13h20.12.814,jersey_experiment_5,2023.2.2,Win32,85.47008547,,,,,,,,,,,,,,,,1136.4439,1137.7376,1137.7376,1138.3493,return,0.0569,,88.671875,,,,,,FBP-RB-71.png,0.43,1.2,19,0.5,,,,,,,,,,,,,,,,,,0,5,5,18,1,,,,,,,,,,,,,,,,,,,,,,,
,,,,,WIN24_034,21,female,2024-02-02_13h20.12.814,jersey_experiment_5,2023.2.2,Win32,85.47008547,,,,,,,,,,,,,,,,1138.3496,1139.6434,1139.6434,1140.1377,return,0.038,,91.40625,,,,,,FBP-YG-19.png,0.45,1.2,45,0.5,,,,,,,,,,,,,,,,,,0,6,6,44,1,,,,,,,,,,,,,,,,,,,,,,,
,,,,,WIN24_034,21,female,2024-02-02_13h20.12.814,jersey_experiment_5,2023.2.2,Win32,85.47008547,,,,,,,,,,,,,,,,1140.1379,1141.9377,1141.9377,1142.8907,return,0.0835,,61.58854167,,,,,,FBP-OG-19.png,0.35,1.2,11,1,,,,,,,,,,,,,,,,,,0,7,7,10,1,,,,,,,,,,,,,,,,,,,,,,,
,,,,,WIN24_034,21,female,2024-02-02_13h20.12.814,jersey_experiment_5,2023.2.2,Win32,85.47008547,,,,,,,,,,,,,,,,1142.8909,1144.6911,1144.6911,1145.3027,return,0.1346,,69.27083333,,,,,,FBP-OG-19.png,0.4,1.2,13,1,,,,,,,,,,,,,,,,,,0,8,8,12,1,,,,,,,,,,,,,,,,,,,,,,,
,,,,,WIN24_034,21,female,2024-02-02_13h20.12.814,jersey_experiment_5,2023.2.2,Win32,85.47008547,,,,,,,,,,,,,,,,1145.3034,1147.1027,1147.1027,1148.3145,return,0.1284,,47.13541667,,,,,,FBP-OG-18.png,0.35,1.2,6,1,,,,,,,,,,,,,,,,,,0,9,9,5,1,,,,,,,,,,,,,,,,,,,,,,,
,,,,,WIN24_034,21,female,2024-02-02_13h20.12.814,jersey_experiment_5,2023.2.2,Win32,85.47008547,,,,,,,,,,,,,,,,1148.3147,1150.1147,1150.1147,1151.3968,return,0.1954,,71.09375,,,,,,FBP-PT-91.png,0.4,1.2,58,1,,,,,,,,,,,,,,,,,,0,10,10,57,1,,,,,,,,,,,,,,,,,,,,,,,
,,,,,WIN24_034,21,female,2024-02-02_13h20.12.814,jersey_experiment_5,2023.2.2,Win32,85.47008547,,,,,,,,,,,,,,,,1151.3971,1153.1969,1153.1969,1153.6441,return,0.015,,95.44270833,,,,,,FBP-OG-18.png,0.43,1.2,9,1,,,,,,,,,,,,,,,,,,0,11,11,8,1,,,,,,,,,,,,,,,,,,,,,,,
,,,,,WIN24_034,21,female,2024-02-02_13h20.12.814,jersey_experiment_5,2023.2.2,Win32,85.47008547,,,,,,,,,,,,,,,,1153.6444,1154.9384,1154.9385,1155.7971,return,0.1011,,33.33333333,,,,,,FBP-YG-19.png,0.35,1.2,41,0.5,,,,,,,,,,,,,,,,,,0,12,12,40,1,,,,,,,,,,,,,,,,,,,,,,,
,,,,,WIN24_034,21,female,2024-02-02_13h20.12.814,jersey_experiment_5,2023.2.2,Win32,85.47008547,,,,,,,,,,,,,,,,1155.7975,1157.5974,1157.5974,1158.9972,return,0.0302,,75.91145833,,,,,,FBP-OG-19.png,0.45,1.2,15,1,,,,,,,,,,,,,,,,,,0,13,13,14,1,,,,,,,,,,,,,,,,,,,,,,,
,,,,,WIN24_034,21,female,2024-02-02_13h20.12.814,jersey_experiment_5,2023.2.2,Win32,85.47008547,,,,,,,,,,,,,,,,1158.9975,1160.2913,1160.2914,1161.1619,return,0.1196,,85.02604167,,,,,,FBP-YG-18.png,0.45,1.2,40,0.5,,,,,,,,,,,,,,,,,,0,14,14,39,1,,,,,,,,,,,,,,,,,,,,,,,
,,,,,WIN24_034,21,female,2024-02-02_13h20.12.814,jersey_experiment_5,2023.2.2,Win32,85.47008547,,,,,,,,,,,,,,,,1161.1623,1162.9621,1162.9622,1164.6328,return,0.1441,,37.890625,,,,,,FBP-PT-81.png,0.37,1.2,52,1,,,,,,,,,,,,,,,,,,0,15,15,51,1,,,,,,,,,,,,,,,,,,,,,,,
,,,,,WIN24_034,21,female,2024-02-02_13h20.12.814,jersey_experiment_5,2023.2.2,Win32,85.47008547,,,,,,,,,,,,,,,,1164.6331,1166.4328,1166.4329,1167.0798,return,0.0719,,33.59375,,,,,,FBP-OG-17.png,0.37,1.2,2,1,,,,,,,,,,,,,,,,,,0,16,16,1,1,,,,,,,,,,,,,,,,,,,,,,,
,,,,,WIN24_034,21,female,2024-02-02_13h20.12.814,jersey_experiment_5,2023.2.2,Win32,85.47008547,,,,,,,,,,,,,,,,1167.0802,1168.3741,1168.3741,1169.3858,return,0.0608,,65.88541667,,,,,,FBP-YG-18.png,0.37,1.2,37,0.5,,,,,,,,,,,,,,,,,,0,17,17,36,1,,,,,,,,,,,,,,,,,,,,,,,
,,,,,WIN24_034,21,female,2024-02-02_13h20.12.814,jersey_experiment_5,2023.2.2,Win32,85.47008547,,,,,,,,,,,,,,,,1169.386,1170.6801,1170.6801,1171.6094,return,0.0496,,65.88541667,,,,,,FBP-YG-17.png,0.37,1.2,32,0.5,,,,,,,,,,,,,,,,,,0,18,18,31,1,,,,,,,,,,,,,,,,,,,,,,,
,,,,,WIN24_034,21,female,2024-02-02_13h20.12.814,jersey_experiment_5,2023.2.2,Win32,85.47008547,,,,,,,,,,,,,,,,1171.6097,1172.9036,1172.9036,1173.6919,return,0.038,,36.84895833,,,,,,FBP-YG-18.png,0.35,1.2,36,0.5,,,,,,,,,,,,,,,,,,0,19,19,35,1,,,,,,,,,,,,,,,,,,,,,,,
,,,,,WIN24_034,21,female,2024-02-02_13h20.12.814,jersey_experiment_5,2023.2.2,Win32,85.47008547,,,,,,,,,,,,,,,,1173.6921,1175.4921,1175.4921,1176.0566,return,0.0741,,72.91666667,,,,,,FBP-OG-17.png,0.4,1.2,3,1,,,,,,,,,,,,,,,,,,0,20,20,2,1,,,,,,,,,,,,,,,,,,,,,,,
,,,,,WIN24_034,21,female,2024-02-02_13h20.12.814,jersey_experiment_5,2023.2.2,Win32,85.47008547,,,,,,,,,,,,,,,,1176.0568,1177.8566,1177.8567,1178.5038,return,0.0393,,72.91666667,,,,,,FBP-PT-91.png,0.35,1.2,56,1,,,,,,,,,,,,,,,,,,0,21,21,55,1,,,,,,,,,,,,,,,,,,,,,,,
,,,,,WIN24_034,21,female,2024-02-02_13h20.12.814,jersey_experiment_5,2023.2.2,Win32,85.47008547,,,,,,,,,,,,,,,,1178.5041,1180.304,1180.304,1180.6803,return,0.0622,,88.41145833,,,,,,FBP-OG-17.png,0.45,1.2,5,1,,,,,,,,,,,,,,,,,,0,22,22,4,1,,,,,,,,,,,,,,,,,,,,,,,
,,,,,WIN24_034,21,female,2024-02-02_13h20.12.814,jersey_experiment_5,2023.2.2,Win32,85.47008547,,,,,,,,,,,,,,,,1180.6806,1181.9746,1181.9746,1182.5394,return,0.0594,,92.1875,,,,,,FBP-RB-81.png,0.45,1.2,25,0.5,,,,,,,,,,,,,,,,,,0,23,23,24,1,,,,,,,,,,,,,,,,,,,,,,,
,,,,,WIN24_034,21,female,2024-02-02_13h20.12.814,jersey_experiment_5,2023.2.2,Win32,85.47008547,,,,,,,,,,,,,,,,1182.5397,1183.8334,1183.8334,1184.2922,return,0.0432,,93.75,,,,,,FBP-RB-81.png,0.43,1.2,24,0.5,,,,,,,,,,,,,,,,,,0,24,24,23,1,,,,,,,,,,,,,,,,,,,,,,,
,,,,,WIN24_034,21,female,2024-02-02_13h20.12.814,jersey_experiment_5,2023.2.2,Win32,85.47008547,,,,,,,,,,,,,,,,1184.2925,1186.0923,1186.0923,1187.2454,return,0.3913,,93.75,,,,,,FBP-PT-91.png,0.45,1.2,60,1,,,,,,,,,,,,,,,,,,0,25,25,59,1,,,,,,,,,,,,,,,,,,,,,,,
,,,,,WIN24_034,21,female,2024-02-02_13h20.12.814,jersey_experiment_5,2023.2.2,Win32,85.47008547,,,,,,,,,,,,,,,,1187.2456,1188.5394,1188.5395,1189.8221,return,0.0358,,78.90625,,,,,,FBP-YG-19.png,0.4,1.2,43,0.5,,,,,,,,,,,,,,,,,,0,26,26,42,1,,,,,,,,,,,,,,,,,,,,,,,
,,,,,WIN24_034,21,female,2024-02-02_13h20.12.814,jersey_experiment_5,2023.2.2,Win32,85.47008547,,,,,,,,,,,,,,,,1189.8228,1191.1161,1191.1161,1191.5162,return,0.036,,78.90625,,,,,,FBP-YG-17.png,0.4,1.2,33,0.5,,,,,,,,,,,,,,,,,,0,27,27,32,1,,,,,,,,,,,,,,,,,,,,,,,
,,,,,WIN24_034,21,female,2024-02-02_13h20.12.814,jersey_experiment_5,2023.2.2,Win32,85.47008547,,,,,,,,,,,,,,,,1191.5166,1193.3162,1193.3162,1193.822,return,0.0946,,90.234375,,,,,,FBP-PT-71.png,0.45,1.2,50,1,,,,,,,,,,,,,,,,,,0,28,28,49,1,,,,,,,,,,,,,,,,,,,,,,,
,,,,,WIN24_034,21,female,2024-02-02_13h20.12.814,jersey_experiment_5,2023.2.2,Win32,85.47008547,,,,,,,,,,,,,,,,1193.8223,1195.6221,1195.6222,1195.9162,return,0.0004,,90.234375,,,,,,FBP-OG-18.png,0.45,1.2,10,1,,,,,,,,,,,,,,,,,,0,29,29,9,1,,,,,,,,,,,,,,,,,,,,,,,
,,,,,WIN24_034,21,female,2024-02-02_13h20.12.814,jersey_experiment_5,2023.2.2,Win32,85.47008547,,,,,,,,,,,,,,,,1195.9165,1197.7166,1197.7166,1198.6342,return,0.1309,,54.94791667,,,,,,FBP-PT-91.png,0.37,1.2,57,1,,,,,,,,,,,,,,,,,,0,30,30,56,1,,,,,,,,,,,,,,,,,,,,,,,
,,,,,WIN24_034,21,female,2024-02-02_13h20.12.814,jersey_experiment_5,2023.2.2,Win32,85.47008547,,,,,,,,,,,,,,,,1198.6348,1200.4341,1200.4342,1200.9164,return,0.0902,,39.58333333,,,,,,FBP-OG-17.png,0.35,1.2,1,1,,,,,,,,,,,,,,,,,,0,31,31,0,1,,,,,,,,,,,,,,,,,,,,,,,
,,,,,WIN24_034,21,female,2024-02-02_13h20.12.814,jersey_experiment_5,2023.2.2,Win32,85.47008547,,,,,,,,,,,,,,,,1200.9166,1202.7168,1202.7169,1203.0694,return,0.0618,,39.58333333,,,,,,FBP-PT-71.png,0.37,1.2,47,1,,,,,,,,,,,,,,,,,,0,32,32,46,1,,,,,,,,,,,,,,,,,,,,,,,
,,,,,WIN24_034,21,female,2024-02-02_13h20.12.814,jersey_experiment_5,2023.2.2,Win32,85.47008547,,,,,,,,,,,,,,,,1203.0697,1204.3636,1204.3636,1205.0461,return,0.041,,68.88020833,,,,,,FBP-YG-18.png,0.43,1.2,39,0.5,,,,,,,,,,,,,,,,,,0,33,33,38,1,,,,,,,,,,,,,,,,,,,,,,,
,,,,,WIN24_034,21,female,2024-02-02_13h20.12.814,jersey_experiment_5,2023.2.2,Win32,85.47008547,,,,,,,,,,,,,,,,1205.0463,1206.8462,1206.8462,1207.1638,return,0.0006,,79.55729167,,,,,,FBP-PT-81.png,0.43,1.2,54,1,,,,,,,,,,,,,,,,,,0,34,34,53,1,,,,,,,,,,,,,,,,,,,,,,,
,,,,,WIN24_034,21,female,2024-02-02_13h20.12.814,jersey_experiment_5,2023.2.2,Win32,85.47008547,,,,,,,,,,,,,,,,1207.1641,1208.4579,1208.4579,1209.0107,return,0.0563,,84.375,,,,,,FBP-YG-19.png,0.43,1.2,44,0.5,,,,,,,,,,,,,,,,,,0,35,35,43,1,,,,,,,,,,,,,,,,,,,,,,,
,,,,,WIN24_034,21,female,2024-02-02_13h20.12.814,jersey_experiment_5,2023.2.2,Win32,85.47008547,,,,,,,,,,,,,,,,1209.011,1210.305,1210.305,1210.6463,return,0.0292,,84.375,,,,,,FBP-RB-91.png,0.4,1.2,28,0.5,,,,,,,,,,,,,,,,,,0,36,36,27,1,,,,,,,,,,,,,,,,,,,,,,,
,,,,,WIN24_034,21,female,2024-02-02_13h20.12.814,jersey_experiment_5,2023.2.2,Win32,85.47008547,,,,,,,,,,,,,,,,1210.6466,1211.9405,1211.9405,1212.8699,return,0.0621,,33.07291667,,,,,,FBP-RB-71.png,0.35,1.2,16,0.5,,,,,,,,,,,,,,,,,,0,37,37,15,1,,,,,,,,,,,,,,,,,,,,,,,
,,,,,WIN24_034,21,female,2024-02-02_13h20.12.814,jersey_experiment_5,2023.2.2,Win32,85.47008547,,,,,,,,,,,,,,,,1212.87,1214.6699,1214.6699,1215.1875,return,0.0914,,25.78125,,,,,,FBP-PT-81.png,0.35,1.2,51,1,,,,,,,,,,,,,,,,,,0,38,38,50,1,,,,,,,,,,,,,,,,,,,,,,,
,,,,,WIN24_034,21,female,2024-02-02_13h20.12.814,jersey_experiment_5,2023.2.2,Win32,85.47008547,,,,,,,,,,,,,,,,1215.1877,1216.4818,1216.4819,1217.1759,return,0.0276,,75.78125,,,,,,FBP-RB-81.png,0.4,1.2,23,0.5,,,,,,,,,,,,,,,,,,0,39,39,22,1,,,,,,,,,,,,,,,,,,,,,,,
,,,,,WIN24_034,21,female,2024-02-02_13h20.12.814,jersey_experiment_5,2023.2.2,Win32,85.47008547,,,,,,,,,,,,,,,,1217.1761,1218.976,1218.976,1219.1877,return,0.0435,,75.65104167,,,,,,FBP-PT-81.png,0.4,1.2,53,1,,,,,,,,,,,,,,,,,,0,40,40,52,1,,,,,,,,,,,,,,,,,,,,,,,
,,,,,WIN24_034,21,female,2024-02-02_13h20.12.814,jersey_experiment_5,2023.2.2,Win32,85.47008547,,,,,,,,,,,,,,,,1219.1879,1220.9878,1220.9878,1221.6938,return,0.1179,,81.90104167,,,,,,FBP-OG-19.png,0.43,1.2,14,1,,,,,,,,,,,,,,,,,,0,41,41,13,1,,,,,,,,,,,,,,,,,,,,,,,
,,,,,WIN24_034,21,female,2024-02-02_13h20.12.814,jersey_experiment_5,2023.2.2,Win32,85.47008547,,,,,,,,,,,,,,,,1221.6942,1222.9879,1222.988,1224.4114,return,0.5174,,31.25,,,,,,FBP-RB-81.png,0.35,1.2,21,0.5,,,,,,,,,,,,,,,,,,0,42,42,20,1,,,,,,,,,,,,,,,,,,,,,,,
,,,,,WIN24_034,21,female,2024-02-02_13h20.12.814,jersey_experiment_5,2023.2.2,Win32,85.47008547,,,,,,,,,,,,,,,,1224.4117,1226.2116,1226.2116,1226.7174,return,0.0823,,80.72916667,,,,,,FBP-PT-81.png,0.45,1.2,55,1,,,,,,,,,,,,,,,,,,0,43,43,54,1,,,,,,,,,,,,,,,,,,,,,,,
,,,,,WIN24_034,21,female,2024-02-02_13h20.12.814,jersey_experiment_5,2023.2.2,Win32,85.47008547,,,,,,,,,,,,,,,,1226.7177,1228.0122,1228.0123,1228.8235,return,0.0018,,28.38541667,,,,,,FBP-YG-17.png,0.35,1.2,31,0.5,,,,,,,,,,,,,,,,,,0,44,44,30,1,,,,,,,,,,,,,,,,,,,,,,,
,,,,,WIN24_034,21,female,2024-02-02_13h20.12.814,jersey_experiment_5,2023.2.2,Win32,85.47008547,,,,,,,,,,,,,,,,1228.8237,1230.6235,1230.6236,1231.2351,return,0.0325,,83.59375,,,,,,FBP-PT-91.png,0.43,1.2,59,1,,,,,,,,,,,,,,,,,,0,45,45,58,1,,,,,,,,,,,,,,,,,,,,,,,
,,,,,WIN24_034,21,female,2024-02-02_13h20.12.814,jersey_experiment_5,2023.2.2,Win32,85.47008547,,,,,,,,,,,,,,,,1231.2354,1232.5293,1232.5294,1233.5882,return,0.1253,,28.38541667,,,,,,FBP-RB-81.png,0.37,1.2,22,0.5,,,,,,,,,,,,,,,,,,0,46,46,21,1,,,,,,,,,,,,,,,,,,,,,,,
,,,,,WIN24_034,21,female,2024-02-02_13h20.12.814,jersey_experiment_5,2023.2.2,Win32,85.47008547,,,,,,,,,,,,,,,,1233.5884,1234.8826,1234.8827,1238.0592,return,2.2128,,80.20833333,,,,,,FBP-YG-17.png,0.45,1.2,35,0.5,,,,,,,,,,,,,,,,,,0,47,47,34,1,,,,,,,,,,,,,,,,,,,,,,,
,,,,,WIN24_034,21,female,2024-02-02_13h20.12.814,jersey_experiment_5,2023.2.2,Win32,85.47008547,,,,,,,,,,,,,,,,1238.0598,1239.8591,1239.8591,1240.612,return,0.1233,,28.25520833,,,,,,FBP-OG-19.png,0.37,1.2,12,1,,,,,,,,,,,,,,,,,,0,48,48,11,1,,,,,,,,,,,,,,,,,,,,,,,
,,,,,WIN24_034,21,female,2024-02-02_13h20.12.814,jersey_experiment_5,2023.2.2,Win32,85.47008547,,,,,,,,,,,,,,,,1240.6122,1242.4123,1242.4123,1243.3181,return,0.0532,,83.85416667,,,,,,FBP-OG-17.png,0.43,1.2,4,1,,,,,,,,,,,,,,,,,,0,49,49,3,1,,,,,,,,,,,,,,,,,,,,,,,
,,,,,WIN24_034,21,female,2024-02-02_13h20.12.814,jersey_experiment_5,2023.2.2,Win32,85.47008547,,,,,,,,,,,,,,,,1243.3183,1244.6123,1244.6123,1246.0127,return,0.1173,,19.40104167,,,,,,FBP-RB-91.png,0.35,1.2,26,0.5,,,,,,,,,,,,,,,,,,0,50,50,25,1,,,,,,,,,,,,,,,,,,,,,,,
,,,,,WIN24_034,21,female,2024-02-02_13h20.12.814,jersey_experiment_5,2023.2.2,Win32,85.47008547,,,,,,,,,,,,,,,,1246.013,1247.3064,1247.3064,1248.2594,return,0.0791,,26.30208333,,,,,,FBP-RB-91.png,0.37,1.2,27,0.5,,,,,,,,,,,,,,,,,,0,51,51,26,1,,,,,,,,,,,,,,,,,,,,,,,
,,,,,WIN24_034,21,female,2024-02-02_13h20.12.814,jersey_experiment_5,2023.2.2,Win32,85.47008547,,,,,,,,,,,,,,,,1248.2596,1249.5537,1249.5537,1250.1536,return,0.0024,,79.55729167,,,,,,FBP-RB-91.png,0.45,1.2,30,0.5,,,,,,,,,,,,,,,,,,0,52,52,29,1,,,,,,,,,,,,,,,,,,,,,,,
,,,,,WIN24_034,21,female,2024-02-02_13h20.12.814,jersey_experiment_5,2023.2.2,Win32,85.47008547,,,,,,,,,,,,,,,,1250.1539,1251.4477,1251.4477,1251.8833,return,0.0147,,83.72395833,,,,,,FBP-RB-71.png,0.45,1.2,20,0.5,,,,,,,,,,,,,,,,,,0,53,53,19,1,,,,,,,,,,,,,,,,,,,,,,,
,,,,,WIN24_034,21,female,2024-02-02_13h20.12.814,jersey_experiment_5,2023.2.2,Win32,85.47008547,,,,,,,,,,,,,,,,1251.8835,1253.6833,1253.6833,1254.5419,return,0.0826,,71.875,,,,,,FBP-PT-71.png,0.4,1.2,48,1,,,,,,,,,,,,,,,,,,0,54,54,47,1,,,,,,,,,,,,,,,,,,,,,,,
,,,,,WIN24_034,21,female,2024-02-02_13h20.12.814,jersey_experiment_5,2023.2.2,Win32,85.47008547,,,,,,,,,,,,,,,,1254.5422,1255.8362,1255.8362,1256.8245,return,0.4262,,70.57291667,,,,,,FBP-RB-71.png,0.4,1.2,18,0.5,,,,,,,,,,,,,,,,,,0,55,55,17,1,,,,,,,,,,,,,,,,,,,,,,,
,,,,,WIN24_034,21,female,2024-02-02_13h20.12.814,jersey_experiment_5,2023.2.2,Win32,85.47008547,,,,,,,,,,,,,,,,1256.8248,1258.1186,1258.1186,1258.7892,return,0.0539,,73.69791667,,,,,,FBP-YG-17.png,0.43,1.2,34,0.5,,,,,,,,,,,,,,,,,,0,56,56,33,1,,,,,,,,,,,,,,,,,,,,,,,
,,,,,WIN24_034,21,female,2024-02-02_13h20.12.814,jersey_experiment_5,2023.2.2,Win32,85.47008547,,,,,,,,,,,,,,,,1258.7894,1260.5897,1260.5897,1261.2245,return,0.0506,,27.60416667,,,,,,FBP-OG-18.png,0.37,1.2,7,1,,,,,,,,,,,,,,,,,,0,57,57,6,1,,,,,,,,,,,,,,,,,,,,,,,
,,,,,WIN24_034,21,female,2024-02-02_13h20.12.814,jersey_experiment_5,2023.2.2,Win32,85.47008547,,,,,,,,,,,,,,,,1261.2248,1263.0247,1263.0247,1263.6247,return,0.0501,,71.484375,,,,,,FBP-OG-18.png,0.4,1.2,8,1,,,,,,,,,,,,,,,,,,0,58,58,7,1,,,,,,,,,,,,,,,,,,,,,,,
,,,,,WIN24_034,21,female,2024-02-02_13h20.12.814,jersey_experiment_5,2023.2.2,Win32,85.47008547,,,,,,,,,,,,,,,,1263.6249,1265.4248,1265.4248,1266.1071,return,0.0362,,27.21354167,,,,,,FBP-PT-71.png,0.35,1.2,46,1,,,,,,,,,,,,,,,,,,0,59,59,45,1,,,,,,,,,,,,,,,,,,,,,,,
,,,,,WIN24_034,21,female,2024-02-02_13h20.12.814,jersey_experiment_5,2023.2.2,Win32,85.47008547,,,,,,,,,,,,,,,,,,,,,,,,,,,,,,,,,,,,,,,,,,,,,,,,,,,,,,,,1266.1074,1270.1315,return,4.0196,,,,,,,,,,,,,,,,,,,
,,,,,WIN24_034,21,female,2024-02-02_13h20.12.814,jersey_experiment_5,2023.2.2,Win32,85.47008547,,,,,,,,,,,,,,,,,,,,,,,,,,,,,,,,,,,,,,,,,,,,,,,,,,,,,,,,,,,,,1270.1316,1275.849,1,5.0898,return,0.6026,,,,,,,,,,,,
,,,,,WIN24_034,21,female,2024-02-02_13h20.12.814,jersey_experiment_5,2023.2.2,Win32,85.47008547,,,,,,,,,,,,,,,,,,,,,,,,,,,,,,,,,,,,,,,,,,,,,,,,,,,,,,,,,,,,,,,,,,,,1275.8493,1296.6077,n/a,right,16.4818,,,,,,
,,,,,WIN24_034,21,female,2024-02-02_13h20.12.814,jersey_experiment_5,2023.2.2,Win32,85.47008547,,,,,,,,,,,,,,,,,,,,,,,,,,,,,,,,,,,,,,,,,,,,,,,,,,,,,,,,,,,,,,,,,,,,,,,,,,1296.6078,1299.5912,return,2.9753,