requirements.started,requirements.stopped,key_resp_3.keys,key_resp_3.rt,key_resp_3.duration,Subject ID,Age,Gender,date,expName,psychopyVersion,OS,frameRate,instructions1.started,instructions1.stopped,key_resp.keys,key_resp.rt,key_resp.duration,example.started,example.stopped,enter_2.keys,enter_2.rt,enter_2.duration,instructions2.started,instructions2.stopped,enter_3.keys,enter_3.rt,enter_3.duration,image.started,image.stopped,slider_2.started,slider_2.stopped,next.keys,next.rt,next.duration,slider.response,trial_block_1.thisRepN,trial_block_1.thisTrialN,trial_block_1.thisN,trial_block_1.thisIndex,trial_block_1.ran,Path,Width,Height,Index,Duration,trial_block_2.thisRepN,trial_block_2.thisTrialN,trial_block_2.thisN,trial_block_2.thisIndex,trial_block_2.ran,rest_break.started,rest_break.stopped,end_break.started,end_break.stopped,key_resp_5.keys,key_resp_5.rt,key_resp_5.duration,trial_block_3.thisRepN,trial_block_3.thisTrialN,trial_block_3.thisN,trial_block_3.thisIndex,trial_block_3.ran,trial_block_4.thisRepN,trial_block_4.thisTrialN,trial_block_4.thisN,trial_block_4.thisIndex,trial_block_4.ran,questions_intro.started,questions_intro.stopped,enter_12.keys,enter_12.rt,enter_12.duration,question2.started,question2.stopped,question_doingbest.response,question_doingbest.rt,enter_15.keys,enter_15.rt,enter_15.duration,pattern.started,pattern.stopped,pattern_2.text,enter_17.keys,enter_17.rt,enter_17.duration,thankyou.started,thankyou.stopped,enter_14.keys,enter_14.rt,enter_14.duration
0.0002,13.5981,return,13.5928,,WIN24_007,21,Female,2024-01-26_15h08.10.758,jersey_experiment_5,2023.2.2,Win32,84.74576271,,,,,,,,,,,,,,,,,,,,,,,,,,,,,,,,,,,,,,,,,,,,,,,,,,,,,,,,,,,,,,,,,,,,,,,,,,,,,,
,,,,,WIN24_007,21,Female,2024-01-26_15h08.10.758,jersey_experiment_5,2023.2.2,Win32,84.74576271,13.5983,26.2951,return,12.6875,,,,,,,,,,,,,,,,,,,,,,,,,,,,,,,,,,,,,,,,,,,,,,,,,,,,,,,,,,,,,,,,,,,,,,,,,,
,,,,,WIN24_007,21,Female,2024-01-26_15h08.10.758,jersey_experiment_5,2023.2.2,Win32,84.74576271,,,,,,26.2951,35.0838,return,8.747,,,,,,,,,,,,,,,,,,,,,,,,,,,,,,,,,,,,,,,,,,,,,,,,,,,,,,,,,,,,,,,,,,,,,
,,,,,WIN24_007,21,Female,2024-01-26_15h08.10.758,jersey_experiment_5,2023.2.2,Win32,84.74576271,,,,,,,,,,,35.0838,71.0027,return,35.9062,,,,,,,,,,,,,,,,,,,,,,,,,,,,,,,,,,,,,,,,,,,,,,,,,,,,,,,,,,,,,,,,
,,,,,WIN24_007,21,Female,2024-01-26_15h08.10.758,jersey_experiment_5,2023.2.2,Win32,84.74576271,,,,,,,,,,,,,,,,71.0097,72.8025,72.8027,82.2765,return,6.1402,,49.73958333,0,0,0,41,1,FBP-YG-91.png,0.37,1.2,42,1,,,,,,,,,,,,,,,,,,,,,,,,,,,,,,,,,,,,,,,,,,,,,
,,,,,WIN24_007,21,Female,2024-01-26_15h08.10.758,jersey_experiment_5,2023.2.2,Win32,84.74576271,,,,,,,,,,,,,,,,82.2807,83.5826,83.5826,88.6087,return,3.4606,,63.15104167,0,1,1,56,1,FBP-PT-19.png,0.37,1.2,57,0.5,,,,,,,,,,,,,,,,,,,,,,,,,,,,,,,,,,,,,,,,,,,,,
,,,,,WIN24_007,21,Female,2024-01-26_15h08.10.758,jersey_experiment_5,2023.2.2,Win32,84.74576271,,,,,,,,,,,,,,,,88.6089,90.407,90.4071,93.2525,return,1.668,,65.36458333,0,2,2,26,1,FBP-RB-19.png,0.37,1.2,27,1,,,,,,,,,,,,,,,,,,,,,,,,,,,,,,,,,,,,,,,,,,,,,
,,,,,WIN24_007,21,Female,2024-01-26_15h08.10.758,jersey_experiment_5,2023.2.2,Win32,84.74576271,,,,,,,,,,,,,,,,93.2526,94.5483,94.5483,97.0973,return,1.1077,,76.43229167,0,3,3,13,1,FBP-OG-91.png,0.43,1.2,14,0.5,,,,,,,,,,,,,,,,,,,,,,,,,,,,,,,,,,,,,,,,,,,,,
,,,,,WIN24_007,21,Female,2024-01-26_15h08.10.758,jersey_experiment_5,2023.2.2,Win32,84.74576271,,,,,,,,,,,,,,,,97.0975,98.8896,98.8896,101.6271,return,1.6001,,39.97395833,0,4,4,20,1,FBP-RB-18.png,0.35,1.2,21,1,,,,,,,,,,,,,,,,,,,,,,,,,,,,,,,,,,,,,,,,,,,,,
,,,,,WIN24_007,21,Female,2024-01-26_15h08.10.758,jersey_experiment_5,2023.2.2,Win32,84.74576271,,,,,,,,,,,,,,,,101.6273,103.4271,103.4271,106.4308,return,2.0118,,31.51041667,0,5,5,35,1,FBP-YG-81.png,0.35,1.2,36,1,,,,,,,,,,,,,,,,,,,,,,,,,,,,,,,,,,,,,,,,,,,,,
,,,,,WIN24_007,21,Female,2024-01-26_15h08.10.758,jersey_experiment_5,2023.2.2,Win32,84.74576271,,,,,,,,,,,,,,,,106.431,107.7252,107.7252,110.6077,return,1.0706,,31.77083333,0,6,6,0,1,FBP-OG-71.png,0.35,1.2,1,0.5,,,,,,,,,,,,,,,,,,,,,,,,,,,,,,,,,,,,,,,,,,,,,
,,,,,WIN24_007,21,Female,2024-01-26_15h08.10.758,jersey_experiment_5,2023.2.2,Win32,84.74576271,,,,,,,,,,,,,,,,110.6078,111.9136,111.9136,114.5494,return,1.2722,,84.375,0,7,7,4,1,FBP-OG-71.png,0.45,1.2,5,0.5,,,,,,,,,,,,,,,,,,,,,,,,,,,,,,,,,,,,,,,,,,,,,
,,,,,WIN24_007,21,Female,2024-01-26_15h08.10.758,jersey_experiment_5,2023.2.2,Win32,84.74576271,,,,,,,,,,,,,,,,114.5495,116.3451,116.3452,118.3148,return,1.0007,,83.33333333,0,8,8,37,1,FBP-YG-81.png,0.4,1.2,38,1,,,,,,,,,,,,,,,,,,,,,,,,,,,,,,,,,,,,,,,,,,,,,
,,,,,WIN24_007,21,Female,2024-01-26_15h08.10.758,jersey_experiment_5,2023.2.2,Win32,84.74576271,,,,,,,,,,,,,,,,118.315,119.6065,119.6065,121.9245,return,1.1281,,35.28645833,0,9,9,10,1,FBP-OG-91.png,0.35,1.2,11,0.5,,,,,,,,,,,,,,,,,,,,,,,,,,,,,,,,,,,,,,,,,,,,,
,,,,,WIN24_007,21,Female,2024-01-26_15h08.10.758,jersey_experiment_5,2023.2.2,Win32,84.74576271,,,,,,,,,,,,,,,,121.9247,123.7247,123.7247,125.8436,return,0.7648,,93.75,0,10,10,24,1,FBP-RB-18.png,0.45,1.2,25,1,,,,,,,,,,,,,,,,,,,,,,,,,,,,,,,,,,,,,,,,,,,,,
,,,,,WIN24_007,21,Female,2024-01-26_15h08.10.758,jersey_experiment_5,2023.2.2,Win32,84.74576271,,,,,,,,,,,,,,,,125.8438,127.1377,127.1377,129.2202,return,0.7667,,77.08333333,0,11,11,12,1,FBP-OG-91.png,0.4,1.2,13,0.5,,,,,,,,,,,,,,,,,,,,,,,,,,,,,,,,,,,,,,,,,,,,,
,,,,,WIN24_007,21,Female,2024-01-26_15h08.10.758,jersey_experiment_5,2023.2.2,Win32,84.74576271,,,,,,,,,,,,,,,,129.2203,130.5261,130.5261,132.2088,return,0.7648,,80.859375,0,12,12,52,1,FBP-PT-18.png,0.4,1.2,53,0.5,,,,,,,,,,,,,,,,,,,,,,,,,,,,,,,,,,,,,,,,,,,,,
,,,,,WIN24_007,21,Female,2024-01-26_15h08.10.758,jersey_experiment_5,2023.2.2,Win32,84.74576271,,,,,,,,,,,,,,,,132.2089,134.0047,134.0047,137.7382,return,2.8482,,88.15104167,0,13,13,38,1,FBP-YG-81.png,0.43,1.2,39,1,,,,,,,,,,,,,,,,,,,,,,,,,,,,,,,,,,,,,,,,,,,,,
,,,,,WIN24_007,21,Female,2024-01-26_15h08.10.758,jersey_experiment_5,2023.2.2,Win32,84.74576271,,,,,,,,,,,,,,,,137.7382,139.539,139.539,143.0755,return,2.6191,,37.890625,0,14,14,40,1,FBP-YG-91.png,0.35,1.2,41,1,,,,,,,,,,,,,,,,,,,,,,,,,,,,,,,,,,,,,,,,,,,,,
,,,,,WIN24_007,21,Female,2024-01-26_15h08.10.758,jersey_experiment_5,2023.2.2,Win32,84.74576271,,,,,,,,,,,,,,,,143.0757,144.8756,144.8756,148.8207,return,0.8604,,75.13020833,0,15,15,42,1,FBP-YG-91.png,0.4,1.2,43,1,,,,,,,,,,,,,,,,,,,,,,,,,,,,,,,,,,,,,,,,,,,,,
,,,,,WIN24_007,21,Female,2024-01-26_15h08.10.758,jersey_experiment_5,2023.2.2,Win32,84.74576271,,,,,,,,,,,,,,,,148.8209,150.6211,150.6211,152.8551,return,0.9869,,51.30208333,0,16,16,30,1,FBP-YG-71.png,0.35,1.2,31,1,,,,,,,,,,,,,,,,,,,,,,,,,,,,,,,,,,,,,,,,,,,,,
,,,,,WIN24_007,21,Female,2024-01-26_15h08.10.758,jersey_experiment_5,2023.2.2,Win32,84.74576271,,,,,,,,,,,,,,,,152.8553,154.1466,154.1466,156.7153,return,0.6958,,75.26041667,0,17,17,8,1,FBP-OG-81.png,0.43,1.2,9,0.5,,,,,,,,,,,,,,,,,,,,,,,,,,,,,,,,,,,,,,,,,,,,,
,,,,,WIN24_007,21,Female,2024-01-26_15h08.10.758,jersey_experiment_5,2023.2.2,Win32,84.74576271,,,,,,,,,,,,,,,,156.7154,158.5158,158.5158,161.082,return,1.4623,,34.765625,0,18,18,25,1,FBP-RB-19.png,0.35,1.2,26,1,,,,,,,,,,,,,,,,,,,,,,,,,,,,,,,,,,,,,,,,,,,,,
,,,,,WIN24_007,21,Female,2024-01-26_15h08.10.758,jersey_experiment_5,2023.2.2,Win32,84.74576271,,,,,,,,,,,,,,,,161.0821,162.3823,162.3823,164.4908,return,1.3999,,36.06770833,0,19,19,55,1,FBP-PT-19.png,0.35,1.2,56,0.5,,,,,,,,,,,,,,,,,,,,,,,,,,,,,,,,,,,,,,,,,,,,,
,,,,,WIN24_007,21,Female,2024-01-26_15h08.10.758,jersey_experiment_5,2023.2.2,Win32,84.74576271,,,,,,,,,,,,,,,,164.4909,165.785,165.785,167.6086,return,0.6104,,84.375,0,20,20,14,1,FBP-OG-91.png,0.45,1.2,15,0.5,,,,,,,,,,,,,,,,,,,,,,,,,,,,,,,,,,,,,,,,,,,,,
,,,,,WIN24_007,21,Female,2024-01-26_15h08.10.758,jersey_experiment_5,2023.2.2,Win32,84.74576271,,,,,,,,,,,,,,,,167.6088,169.4058,169.4059,172.234,return,1.9653,,85.546875,0,21,21,34,1,FBP-YG-71.png,0.45,1.2,35,1,,,,,,,,,,,,,,,,,,,,,,,,,,,,,,,,,,,,,,,,,,,,,
,,,,,WIN24_007,21,Female,2024-01-26_15h08.10.758,jersey_experiment_5,2023.2.2,Win32,84.74576271,,,,,,,,,,,,,,,,172.2341,174.0299,174.0299,176.7163,return,1.6354,,27.60416667,0,22,22,15,1,FBP-RB-17.png,0.35,1.2,16,1,,,,,,,,,,,,,,,,,,,,,,,,,,,,,,,,,,,,,,,,,,,,,
,,,,,WIN24_007,21,Female,2024-01-26_15h08.10.758,jersey_experiment_5,2023.2.2,Win32,84.74576271,,,,,,,,,,,,,,,,176.7165,178.5123,178.5123,183.1263,return,3.7528,,77.08333333,0,23,23,23,1,FBP-RB-18.png,0.43,1.2,24,1,,,,,,,,,,,,,,,,,,,,,,,,,,,,,,,,,,,,,,,,,,,,,
,,,,,WIN24_007,21,Female,2024-01-26_15h08.10.758,jersey_experiment_5,2023.2.2,Win32,84.74576271,,,,,,,,,,,,,,,,183.1265,184.9242,184.9242,186.4814,return,0.906,,77.99479167,0,24,24,33,1,FBP-YG-71.png,0.43,1.2,34,1,,,,,,,,,,,,,,,,,,,,,,,,,,,,,,,,,,,,,,,,,,,,,
,,,,,WIN24_007,21,Female,2024-01-26_15h08.10.758,jersey_experiment_5,2023.2.2,Win32,84.74576271,,,,,,,,,,,,,,,,186.4815,187.7764,187.7764,189.0686,return,0.564,,80.078125,0,25,25,48,1,FBP-PT-17.png,0.43,1.2,49,0.5,,,,,,,,,,,,,,,,,,,,,,,,,,,,,,,,,,,,,,,,,,,,,
,,,,,WIN24_007,21,Female,2024-01-26_15h08.10.758,jersey_experiment_5,2023.2.2,Win32,84.74576271,,,,,,,,,,,,,,,,189.0687,190.3738,190.3738,192.9742,return,1.2096,,37.5,0,26,26,50,1,FBP-PT-18.png,0.35,1.2,51,0.5,,,,,,,,,,,,,,,,,,,,,,,,,,,,,,,,,,,,,,,,,,,,,
,,,,,WIN24_007,21,Female,2024-01-26_15h08.10.758,jersey_experiment_5,2023.2.2,Win32,84.74576271,,,,,,,,,,,,,,,,192.9743,194.7716,194.7716,197.0111,return,0.7413,,48.95833333,0,27,27,22,1,FBP-RB-18.png,0.4,1.2,23,1,,,,,,,,,,,,,,,,,,,,,,,,,,,,,,,,,,,,,,,,,,,,,
,,,,,WIN24_007,21,Female,2024-01-26_15h08.10.758,jersey_experiment_5,2023.2.2,Win32,84.74576271,,,,,,,,,,,,,,,,197.0113,198.3193,198.3193,199.7978,return,0.6,,17.1875,0,28,28,45,1,FBP-PT-17.png,0.35,1.2,46,0.5,,,,,,,,,,,,,,,,,,,,,,,,,,,,,,,,,,,,,,,,,,,,,
,,,,,WIN24_007,21,Female,2024-01-26_15h08.10.758,jersey_experiment_5,2023.2.2,Win32,84.74576271,,,,,,,,,,,,,,,,199.798,201.0916,201.0916,203.6937,return,1.7417,,69.53125,0,29,29,58,1,FBP-PT-19.png,0.43,1.2,59,0.5,,,,,,,,,,,,,,,,,,,,,,,,,,,,,,,,,,,,,,,,,,,,,
,,,,,WIN24_007,21,Female,2024-01-26_15h08.10.758,jersey_experiment_5,2023.2.2,Win32,84.74576271,,,,,,,,,,,,,,,,203.6939,204.9955,204.9955,210.4899,return,0.6012,,37.63020833,0,30,30,49,1,FBP-PT-17.png,0.45,1.2,50,0.5,,,,,,,,,,,,,,,,,,,,,,,,,,,,,,,,,,,,,,,,,,,,,
,,,,,WIN24_007,21,Female,2024-01-26_15h08.10.758,jersey_experiment_5,2023.2.2,Win32,84.74576271,,,,,,,,,,,,,,,,210.4901,212.2898,212.2898,213.9412,return,0.9663,,37.5,0,31,31,36,1,FBP-YG-81.png,0.37,1.2,37,1,,,,,,,,,,,,,,,,,,,,,,,,,,,,,,,,,,,,,,,,,,,,,
,,,,,WIN24_007,21,Female,2024-01-26_15h08.10.758,jersey_experiment_5,2023.2.2,Win32,84.74576271,,,,,,,,,,,,,,,,213.9414,215.2429,215.2429,216.5645,return,0.5766,,22.52604167,0,32,32,1,1,FBP-OG-71.png,0.37,1.2,2,0.5,,,,,,,,,,,,,,,,,,,,,,,,,,,,,,,,,,,,,,,,,,,,,
,,,,,WIN24_007,21,Female,2024-01-26_15h08.10.758,jersey_experiment_5,2023.2.2,Win32,84.74576271,,,,,,,,,,,,,,,,216.5647,218.3633,218.3633,220.0354,return,0.6491,,23.69791667,0,33,33,16,1,FBP-RB-17.png,0.37,1.2,17,1,,,,,,,,,,,,,,,,,,,,,,,,,,,,,,,,,,,,,,,,,,,,,
,,,,,WIN24_007,21,Female,2024-01-26_15h08.10.758,jersey_experiment_5,2023.2.2,Win32,84.74576271,,,,,,,,,,,,,,,,220.0356,221.8313,221.8313,223.0357,return,0.6257,,49.34895833,0,34,34,27,1,FBP-RB-19.png,0.4,1.2,28,1,,,,,,,,,,,,,,,,,,,,,,,,,,,,,,,,,,,,,,,,,,,,,
,,,,,WIN24_007,21,Female,2024-01-26_15h08.10.758,jersey_experiment_5,2023.2.2,Win32,84.74576271,,,,,,,,,,,,,,,,223.0358,224.3281,224.3281,225.4014,return,0.5543,,49.34895833,0,35,35,2,1,FBP-OG-71.png,0.4,1.2,3,0.5,,,,,,,,,,,,,,,,,,,,,,,,,,,,,,,,,,,,,,,,,,,,,
,,,,,WIN24_007,21,Female,2024-01-26_15h08.10.758,jersey_experiment_5,2023.2.2,Win32,84.74576271,,,,,,,,,,,,,,,,225.4015,227.2009,227.2009,228.5847,return,0.6391,,79.296875,0,36,36,39,1,FBP-YG-81.png,0.45,1.2,40,1,,,,,,,,,,,,,,,,,,,,,,,,,,,,,,,,,,,,,,,,,,,,,
,,,,,WIN24_007,21,Female,2024-01-26_15h08.10.758,jersey_experiment_5,2023.2.2,Win32,84.74576271,,,,,,,,,,,,,,,,228.5849,229.8825,229.8825,233.4672,return,1.2462,,72.00520833,0,37,37,7,1,FBP-OG-81.png,0.4,1.2,8,0.5,,,,,,,,,,,,,,,,,,,,,,,,,,,,,,,,,,,,,,,,,,,,,
,,,,,WIN24_007,21,Female,2024-01-26_15h08.10.758,jersey_experiment_5,2023.2.2,Win32,84.74576271,,,,,,,,,,,,,,,,233.4674,234.7637,234.7637,237.7067,return,1.9417,,39.71354167,0,38,38,11,1,FBP-OG-91.png,0.37,1.2,12,0.5,,,,,,,,,,,,,,,,,,,,,,,,,,,,,,,,,,,,,,,,,,,,,
,,,,,WIN24_007,21,Female,2024-01-26_15h08.10.758,jersey_experiment_5,2023.2.2,Win32,84.74576271,,,,,,,,,,,,,,,,237.7069,239.5027,239.5027,241.2482,return,0.6605,,81.38020833,0,39,39,44,1,FBP-YG-91.png,0.45,1.2,45,1,,,,,,,,,,,,,,,,,,,,,,,,,,,,,,,,,,,,,,,,,,,,,
,,,,,WIN24_007,21,Female,2024-01-26_15h08.10.758,jersey_experiment_5,2023.2.2,Win32,84.74576271,,,,,,,,,,,,,,,,241.2483,243.044,243.044,244.7187,return,1.2019,,80.98958333,0,40,40,28,1,FBP-RB-19.png,0.43,1.2,29,1,,,,,,,,,,,,,,,,,,,,,,,,,,,,,,,,,,,,,,,,,,,,,
,,,,,WIN24_007,21,Female,2024-01-26_15h08.10.758,jersey_experiment_5,2023.2.2,Win32,84.74576271,,,,,,,,,,,,,,,,244.7189,246.5192,246.5193,248.4249,return,1.2962,,45.18229167,0,41,41,31,1,FBP-YG-71.png,0.37,1.2,32,1,,,,,,,,,,,,,,,,,,,,,,,,,,,,,,,,,,,,,,,,,,,,,
,,,,,WIN24_007,21,Female,2024-01-26_15h08.10.758,jersey_experiment_5,2023.2.2,Win32,84.74576271,,,,,,,,,,,,,,,,248.4251,249.729,249.729,251.5176,return,0.5629,,90.234375,0,42,42,59,1,FBP-PT-19.png,0.45,1.2,60,0.5,,,,,,,,,,,,,,,,,,,,,,,,,,,,,,,,,,,,,,,,,,,,,
,,,,,WIN24_007,21,Female,2024-01-26_15h08.10.758,jersey_experiment_5,2023.2.2,Win32,84.74576271,,,,,,,,,,,,,,,,251.5177,253.315,253.315,256.8585,return,1.4119,,50.91145833,0,43,43,21,1,FBP-RB-18.png,0.37,1.2,22,1,,,,,,,,,,,,,,,,,,,,,,,,,,,,,,,,,,,,,,,,,,,,,
,,,,,WIN24_007,21,Female,2024-01-26_15h08.10.758,jersey_experiment_5,2023.2.2,Win32,84.74576271,,,,,,,,,,,,,,,,256.8587,258.1525,258.1525,259.2252,return,0.5299,,49.73958333,0,44,44,47,1,FBP-PT-17.png,0.4,1.2,48,0.5,,,,,,,,,,,,,,,,,,,,,,,,,,,,,,,,,,,,,,,,,,,,,
,,,,,WIN24_007,21,Female,2024-01-26_15h08.10.758,jersey_experiment_5,2023.2.2,Win32,84.74576271,,,,,,,,,,,,,,,,259.2254,260.5185,260.5185,264.1153,return,2.4548,,27.86458333,0,45,45,5,1,FBP-OG-81.png,0.35,1.2,6,0.5,,,,,,,,,,,,,,,,,,,,,,,,,,,,,,,,,,,,,,,,,,,,,
,,,,,WIN24_007,21,Female,2024-01-26_15h08.10.758,jersey_experiment_5,2023.2.2,Win32,84.74576271,,,,,,,,,,,,,,,,264.1155,265.4094,265.4095,266.9861,return,0.5296,,34.11458333,0,46,46,51,1,FBP-PT-18.png,0.37,1.2,52,0.5,,,,,,,,,,,,,,,,,,,,,,,,,,,,,,,,,,,,,,,,,,,,,
,,,,,WIN24_007,21,Female,2024-01-26_15h08.10.758,jersey_experiment_5,2023.2.2,Win32,84.74576271,,,,,,,,,,,,,,,,266.9863,268.7861,268.7861,270.73,return,1.1059,,60.80729167,0,47,47,18,1,FBP-RB-17.png,0.43,1.2,19,1,,,,,,,,,,,,,,,,,,,,,,,,,,,,,,,,,,,,,,,,,,,,,
,,,,,WIN24_007,21,Female,2024-01-26_15h08.10.758,jersey_experiment_5,2023.2.2,Win32,84.74576271,,,,,,,,,,,,,,,,270.7301,272.5328,272.5329,273.9668,return,0.7755,,50.91145833,0,48,48,32,1,FBP-YG-71.png,0.4,1.2,33,1,,,,,,,,,,,,,,,,,,,,,,,,,,,,,,,,,,,,,,,,,,,,,
,,,,,WIN24_007,21,Female,2024-01-26_15h08.10.758,jersey_experiment_5,2023.2.2,Win32,84.74576271,,,,,,,,,,,,,,,,273.9669,275.7677,275.7677,277.4334,return,1.1184,,68.88020833,0,49,49,43,1,FBP-YG-91.png,0.43,1.2,44,1,,,,,,,,,,,,,,,,,,,,,,,,,,,,,,,,,,,,,,,,,,,,,
,,,,,WIN24_007,21,Female,2024-01-26_15h08.10.758,jersey_experiment_5,2023.2.2,Win32,84.74576271,,,,,,,,,,,,,,,,277.4336,278.7301,278.7301,281.3866,return,1.8598,,78.90625,0,50,50,53,1,FBP-PT-18.png,0.43,1.2,54,0.5,,,,,,,,,,,,,,,,,,,,,,,,,,,,,,,,,,,,,,,,,,,,,
,,,,,WIN24_007,21,Female,2024-01-26_15h08.10.758,jersey_experiment_5,2023.2.2,Win32,84.74576271,,,,,,,,,,,,,,,,281.3868,283.1865,283.1865,286.1985,return,2.1925,,83.85416667,0,51,51,19,1,FBP-RB-17.png,0.45,1.2,20,1,,,,,,,,,,,,,,,,,,,,,,,,,,,,,,,,,,,,,,,,,,,,,
,,,,,WIN24_007,21,Female,2024-01-26_15h08.10.758,jersey_experiment_5,2023.2.2,Win32,84.74576271,,,,,,,,,,,,,,,,286.1987,287.4926,287.4927,290.5162,return,1.7814,,33.85416667,0,52,52,6,1,FBP-OG-81.png,0.37,1.2,7,0.5,,,,,,,,,,,,,,,,,,,,,,,,,,,,,,,,,,,,,,,,,,,,,
,,,,,WIN24_007,21,Female,2024-01-26_15h08.10.758,jersey_experiment_5,2023.2.2,Win32,84.74576271,,,,,,,,,,,,,,,,290.5165,291.8143,291.8143,293.7191,return,0.8003,,70.3125,0,53,53,9,1,FBP-OG-81.png,0.45,1.2,10,0.5,,,,,,,,,,,,,,,,,,,,,,,,,,,,,,,,,,,,,,,,,,,,,
,,,,,WIN24_007,21,Female,2024-01-26_15h08.10.758,jersey_experiment_5,2023.2.2,Win32,84.74576271,,,,,,,,,,,,,,,,293.7192,295.5164,295.5164,296.5322,return,0.6491,,73.30729167,0,54,54,29,1,FBP-RB-19.png,0.45,1.2,30,1,,,,,,,,,,,,,,,,,,,,,,,,,,,,,,,,,,,,,,,,,,,,,
,,,,,WIN24_007,21,Female,2024-01-26_15h08.10.758,jersey_experiment_5,2023.2.2,Win32,84.74576271,,,,,,,,,,,,,,,,296.5324,298.3307,298.3307,301.5074,return,2.2929,,61.71875,0,55,55,17,1,FBP-RB-17.png,0.4,1.2,18,1,,,,,,,,,,,,,,,,,,,,,,,,,,,,,,,,,,,,,,,,,,,,,
,,,,,WIN24_007,21,Female,2024-01-26_15h08.10.758,jersey_experiment_5,2023.2.2,Win32,84.74576271,,,,,,,,,,,,,,,,301.5075,302.8015,302.8015,304.7796,return,0.7313,,74.34895833,0,56,56,54,1,FBP-PT-18.png,0.45,1.2,55,0.5,,,,,,,,,,,,,,,,,,,,,,,,,,,,,,,,,,,,,,,,,,,,,
,,,,,WIN24_007,21,Female,2024-01-26_15h08.10.758,jersey_experiment_5,2023.2.2,Win32,84.74576271,,,,,,,,,,,,,,,,304.7797,306.0739,306.0739,309.627,return,2.1535,,54.42708333,0,57,57,3,1,FBP-OG-71.png,0.43,1.2,4,0.5,,,,,,,,,,,,,,,,,,,,,,,,,,,,,,,,,,,,,,,,,,,,,
,,,,,WIN24_007,21,Female,2024-01-26_15h08.10.758,jersey_experiment_5,2023.2.2,Win32,84.74576271,,,,,,,,,,,,,,,,309.6272,310.9226,310.9226,312.5524,return,0.519,,36.45833333,0,58,58,46,1,FBP-PT-17.png,0.37,1.2,47,0.5,,,,,,,,,,,,,,,,,,,,,,,,,,,,,,,,,,,,,,,,,,,,,
,,,,,WIN24_007,21,Female,2024-01-26_15h08.10.758,jersey_experiment_5,2023.2.2,Win32,84.74576271,,,,,,,,,,,,,,,,312.5526,313.8465,313.8466,315.0702,return,0.5431,,49.34895833,0,59,59,57,1,FBP-PT-19.png,0.4,1.2,58,0.5,,,,,,,,,,,,,,,,,,,,,,,,,,,,,,,,,,,,,,,,,,,,,
,,,,,WIN24_007,21,Female,2024-01-26_15h08.10.758,jersey_experiment_5,2023.2.2,Win32,84.74576271,,,,,,,,,,,,,,,,315.0729,316.3643,316.3643,318.0036,return,0.5766,,33.203125,,,,,,FBP-PT-91.png,0.37,1.2,57,0.5,0,0,0,56,1,,,,,,,,,,,,,,,,,,,,,,,,,,,,,,,,,,,,,,,,
,,,,,WIN24_007,21,Female,2024-01-26_15h08.10.758,jersey_experiment_5,2023.2.2,Win32,84.74576271,,,,,,,,,,,,,,,,318.0038,319.2976,319.2976,322.2705,return,1.5401,,50.52083333,,,,,,FBP-PT-81.png,0.4,1.2,53,0.5,0,1,1,52,1,,,,,,,,,,,,,,,,,,,,,,,,,,,,,,,,,,,,,,,,
,,,,,WIN24_007,21,Female,2024-01-26_15h08.10.758,jersey_experiment_5,2023.2.2,Win32,84.74576271,,,,,,,,,,,,,,,,322.2707,323.5685,323.5686,325.7555,return,0.7385,,24.73958333,,,,,,FBP-OG-18.png,0.35,1.2,6,0.5,0,2,2,5,1,,,,,,,,,,,,,,,,,,,,,,,,,,,,,,,,,,,,,,,,
,,,,,WIN24_007,21,Female,2024-01-26_15h08.10.758,jersey_experiment_5,2023.2.2,Win32,84.74576271,,,,,,,,,,,,,,,,325.7556,327.553,327.553,330.0261,return,1.0104,,36.45833333,,,,,,FBP-RB-71.png,0.37,1.2,17,1,0,3,3,16,1,,,,,,,,,,,,,,,,,,,,,,,,,,,,,,,,,,,,,,,,
,,,,,WIN24_007,21,Female,2024-01-26_15h08.10.758,jersey_experiment_5,2023.2.2,Win32,84.74576271,,,,,,,,,,,,,,,,330.0263,331.8237,331.8237,333.9806,return,0.9758,,57.8125,,,,,,FBP-RB-91.png,0.43,1.2,29,1,0,4,4,28,1,,,,,,,,,,,,,,,,,,,,,,,,,,,,,,,,,,,,,,,,
,,,,,WIN24_007,21,Female,2024-01-26_15h08.10.758,jersey_experiment_5,2023.2.2,Win32,84.74576271,,,,,,,,,,,,,,,,333.9807,335.2755,335.2756,336.6971,return,0.5398,,72.91666667,,,,,,FBP-OG-17.png,0.45,1.2,5,0.5,0,5,5,4,1,,,,,,,,,,,,,,,,,,,,,,,,,,,,,,,,,,,,,,,,
,,,,,WIN24_007,21,Female,2024-01-26_15h08.10.758,jersey_experiment_5,2023.2.2,Win32,84.74576271,,,,,,,,,,,,,,,,336.6973,337.9928,337.9929,339.193,return,0.5277,,77.60416667,,,,,,FBP-PT-91.png,0.45,1.2,60,0.5,0,6,6,59,1,,,,,,,,,,,,,,,,,,,,,,,,,,,,,,,,,,,,,,,,
,,,,,WIN24_007,21,Female,2024-01-26_15h08.10.758,jersey_experiment_5,2023.2.2,Win32,84.74576271,,,,,,,,,,,,,,,,339.1932,340.9933,340.9933,342.7417,return,0.8991,,30.72916667,,,,,,FBP-RB-91.png,0.35,1.2,26,1,0,7,7,25,1,,,,,,,,,,,,,,,,,,,,,,,,,,,,,,,,,,,,,,,,
,,,,,WIN24_007,21,Female,2024-01-26_15h08.10.758,jersey_experiment_5,2023.2.2,Win32,84.74576271,,,,,,,,,,,,,,,,342.7419,344.5455,344.5456,349.5332,return,4.1523,,62.36979167,,,,,,FBP-RB-71.png,0.43,1.2,19,1,0,8,8,18,1,,,,,,,,,,,,,,,,,,,,,,,,,,,,,,,,,,,,,,,,
,,,,,WIN24_007,21,Female,2024-01-26_15h08.10.758,jersey_experiment_5,2023.2.2,Win32,84.74576271,,,,,,,,,,,,,,,,349.5333,351.3351,351.3351,353.1421,return,0.8284,,38.54166667,,,,,,FBP-YG-19.png,0.35,1.2,41,1,0,9,9,40,1,,,,,,,,,,,,,,,,,,,,,,,,,,,,,,,,,,,,,,,,
,,,,,WIN24_007,21,Female,2024-01-26_15h08.10.758,jersey_experiment_5,2023.2.2,Win32,84.74576271,,,,,,,,,,,,,,,,353.1425,354.4362,354.4362,356.4386,return,0.8108,,61.45833333,,,,,,FBP-OG-17.png,0.4,1.2,3,0.5,0,10,10,2,1,,,,,,,,,,,,,,,,,,,,,,,,,,,,,,,,,,,,,,,,
,,,,,WIN24_007,21,Female,2024-01-26_15h08.10.758,jersey_experiment_5,2023.2.2,Win32,84.74576271,,,,,,,,,,,,,,,,356.4388,358.2411,358.2411,359.6165,return,0.7659,,81.25,,,,,,FBP-YG-17.png,0.45,1.2,35,1,0,11,11,34,1,,,,,,,,,,,,,,,,,,,,,,,,,,,,,,,,,,,,,,,,
,,,,,WIN24_007,21,Female,2024-01-26_15h08.10.758,jersey_experiment_5,2023.2.2,Win32,84.74576271,,,,,,,,,,,,,,,,359.6167,361.413,361.413,365.3584,return,2.7534,,53.38541667,,,,,,FBP-RB-91.png,0.37,1.2,27,1,0,12,12,26,1,,,,,,,,,,,,,,,,,,,,,,,,,,,,,,,,,,,,,,,,
,,,,,WIN24_007,21,Female,2024-01-26_15h08.10.758,jersey_experiment_5,2023.2.2,Win32,84.74576271,,,,,,,,,,,,,,,,365.3585,366.6603,366.6603,368.5344,return,0.9649,,30.859375,,,,,,FBP-PT-81.png,0.35,1.2,51,0.5,0,13,13,50,1,,,,,,,,,,,,,,,,,,,,,,,,,,,,,,,,,,,,,,,,
,,,,,WIN24_007,21,Female,2024-01-26_15h08.10.758,jersey_experiment_5,2023.2.2,Win32,84.74576271,,,,,,,,,,,,,,,,368.5345,370.3337,370.3338,371.8487,return,0.7337,,42.70833333,,,,,,FBP-YG-17.png,0.37,1.2,32,1,0,14,14,31,1,,,,,,,,,,,,,,,,,,,,,,,,,,,,,,,,,,,,,,,,
,,,,,WIN24_007,21,Female,2024-01-26_15h08.10.758,jersey_experiment_5,2023.2.2,Win32,84.74576271,,,,,,,,,,,,,,,,371.8489,373.6543,373.6543,375.9825,return,0.9535,,22.13541667,,,,,,FBP-YG-17.png,0.35,1.2,31,1,0,15,15,30,1,,,,,,,,,,,,,,,,,,,,,,,,,,,,,,,,,,,,,,,,
,,,,,WIN24_007,21,Female,2024-01-26_15h08.10.758,jersey_experiment_5,2023.2.2,Win32,84.74576271,,,,,,,,,,,,,,,,375.9827,377.7782,377.7783,378.8648,return,0.5769,,12.76041667,,,,,,FBP-YG-18.png,0.35,1.2,36,1,0,16,16,35,1,,,,,,,,,,,,,,,,,,,,,,,,,,,,,,,,,,,,,,,,
,,,,,WIN24_007,21,Female,2024-01-26_15h08.10.758,jersey_experiment_5,2023.2.2,Win32,84.74576271,,,,,,,,,,,,,,,,378.8651,380.6607,380.6607,382.5691,return,0.7517,,17.70833333,,,,,,FBP-YG-18.png,0.37,1.2,37,1,0,17,17,36,1,,,,,,,,,,,,,,,,,,,,,,,,,,,,,,,,,,,,,,,,
,,,,,WIN24_007,21,Female,2024-01-26_15h08.10.758,jersey_experiment_5,2023.2.2,Win32,84.74576271,,,,,,,,,,,,,,,,382.5693,383.8608,383.8609,387.2659,return,2.2142,,65.49479167,,,,,,FBP-OG-18.png,0.43,1.2,9,0.5,0,18,18,8,1,,,,,,,,,,,,,,,,,,,,,,,,,,,,,,,,,,,,,,,,
,,,,,WIN24_007,21,Female,2024-01-26_15h08.10.758,jersey_experiment_5,2023.2.2,Win32,84.74576271,,,,,,,,,,,,,,,,387.2661,388.5693,388.5693,392.3708,return,2.7779,,46.74479167,,,,,,FBP-OG-17.png,0.37,1.2,2,0.5,0,19,19,1,1,,,,,,,,,,,,,,,,,,,,,,,,,,,,,,,,,,,,,,,,
,,,,,WIN24_007,21,Female,2024-01-26_15h08.10.758,jersey_experiment_5,2023.2.2,Win32,84.74576271,,,,,,,,,,,,,,,,392.3709,393.6653,393.6654,395.4377,return,0.6254,,29.81770833,,,,,,FBP-OG-19.png,0.35,1.2,11,0.5,0,20,20,10,1,,,,,,,,,,,,,,,,,,,,,,,,,,,,,,,,,,,,,,,,
,,,,,WIN24_007,21,Female,2024-01-26_15h08.10.758,jersey_experiment_5,2023.2.2,Win32,84.74576271,,,,,,,,,,,,,,,,395.4379,396.736,396.736,399.4968,return,2.1451,,23.30729167,,,,,,FBP-OG-17.png,0.35,1.2,1,0.5,0,21,21,0,1,,,,,,,,,,,,,,,,,,,,,,,,,,,,,,,,,,,,,,,,
,,,,,WIN24_007,21,Female,2024-01-26_15h08.10.758,jersey_experiment_5,2023.2.2,Win32,84.74576271,,,,,,,,,,,,,,,,399.497,400.7935,400.7935,402.0172,return,0.5416,,19.66145833,,,,,,FBP-PT-91.png,0.35,1.2,56,0.5,0,22,22,55,1,,,,,,,,,,,,,,,,,,,,,,,,,,,,,,,,,,,,,,,,
,,,,,WIN24_007,21,Female,2024-01-26_15h08.10.758,jersey_experiment_5,2023.2.2,Win32,84.74576271,,,,,,,,,,,,,,,,402.0173,403.8191,403.8191,405.6265,return,1.0612,,70.703125,,,,,,FBP-RB-71.png,0.45,1.2,20,1,0,23,23,19,1,,,,,,,,,,,,,,,,,,,,,,,,,,,,,,,,,,,,,,,,
,,,,,WIN24_007,21,Female,2024-01-26_15h08.10.758,jersey_experiment_5,2023.2.2,Win32,84.74576271,,,,,,,,,,,,,,,,405.6267,406.9205,406.9205,408.547,return,0.6232,,81.90104167,,,,,,FBP-PT-71.png,0.45,1.2,50,0.5,0,24,24,49,1,,,,,,,,,,,,,,,,,,,,,,,,,,,,,,,,,,,,,,,,
,,,,,WIN24_007,21,Female,2024-01-26_15h08.10.758,jersey_experiment_5,2023.2.2,Win32,84.74576271,,,,,,,,,,,,,,,,408.5473,410.3442,410.3442,412.5365,return,1.1899,,57.68229167,,,,,,FBP-RB-71.png,0.35,1.2,16,1,0,25,25,15,1,,,,,,,,,,,,,,,,,,,,,,,,,,,,,,,,,,,,,,,,
,,,,,WIN24_007,21,Female,2024-01-26_15h08.10.758,jersey_experiment_5,2023.2.2,Win32,84.74576271,,,,,,,,,,,,,,,,412.5366,414.3325,414.3325,415.9385,return,1.1315,,61.71875,,,,,,FBP-YG-17.png,0.4,1.2,33,1,0,26,26,32,1,,,,,,,,,,,,,,,,,,,,,,,,,,,,,,,,,,,,,,,,
,,,,,WIN24_007,21,Female,2024-01-26_15h08.10.758,jersey_experiment_5,2023.2.2,Win32,84.74576271,,,,,,,,,,,,,,,,415.9386,417.2386,417.2386,420.619,return,2.1528,,66.015625,,,,,,FBP-PT-71.png,0.4,1.2,48,0.5,0,27,27,47,1,,,,,,,,,,,,,,,,,,,,,,,,,,,,,,,,,,,,,,,,
,,,,,WIN24_007,21,Female,2024-01-26_15h08.10.758,jersey_experiment_5,2023.2.2,Win32,84.74576271,,,,,,,,,,,,,,,,420.6192,422.4152,422.4152,423.5843,return,0.6594,,73.95833333,,,,,,FBP-YG-17.png,0.43,1.2,34,1,0,28,28,33,1,,,,,,,,,,,,,,,,,,,,,,,,,,,,,,,,,,,,,,,,
,,,,,WIN24_007,21,Female,2024-01-26_15h08.10.758,jersey_experiment_5,2023.2.2,Win32,84.74576271,,,,,,,,,,,,,,,,423.5845,425.3802,425.3802,427.3213,return,0.9187,,37.63020833,,,,,,FBP-RB-81.png,0.37,1.2,22,1,0,29,29,21,1,,,,,,,,,,,,,,,,,,,,,,,,,,,,,,,,,,,,,,,,
,,,,,WIN24_007,21,Female,2024-01-26_15h08.10.758,jersey_experiment_5,2023.2.2,Win32,84.74576271,,,,,,,,,,,,,,,,427.3215,429.1213,429.1213,431.0625,return,1.1467,,56.11979167,,,,,,FBP-RB-81.png,0.43,1.2,24,1,0,30,30,23,1,,,,,,,,,,,,,,,,,,,,,,,,,,,,,,,,,,,,,,,,
,,,,,WIN24_007,21,Female,2024-01-26_15h08.10.758,jersey_experiment_5,2023.2.2,Win32,84.74576271,,,,,,,,,,,,,,,,431.0627,432.8682,432.8682,436.4392,return,2.6153,,35.67708333,,,,,,FBP-YG-19.png,0.37,1.2,42,1,0,31,31,41,1,,,,,,,,,,,,,,,,,,,,,,,,,,,,,,,,,,,,,,,,
,,,,,WIN24_007,21,Female,2024-01-26_15h08.10.758,jersey_experiment_5,2023.2.2,Win32,84.74576271,,,,,,,,,,,,,,,,436.4395,437.7336,437.7336,439.6907,return,1.1296,,73.4375,,,,,,FBP-OG-19.png,0.43,1.2,14,0.5,0,32,32,13,1,,,,,,,,,,,,,,,,,,,,,,,,,,,,,,,,,,,,,,,,
,,,,,WIN24_007,21,Female,2024-01-26_15h08.10.758,jersey_experiment_5,2023.2.2,Win32,84.74576271,,,,,,,,,,,,,,,,439.6908,441.4866,441.4866,442.8042,return,0.7139,,76.30208333,,,,,,FBP-YG-19.png,0.43,1.2,44,1,0,33,33,43,1,,,,,,,,,,,,,,,,,,,,,,,,,,,,,,,,,,,,,,,,
,,,,,WIN24_007,21,Female,2024-01-26_15h08.10.758,jersey_experiment_5,2023.2.2,Win32,84.74576271,,,,,,,,,,,,,,,,442.8044,444.5963,444.5963,445.9263,return,0.6475,,76.30208333,,,,,,FBP-RB-81.png,0.4,1.2,23,1,0,34,34,22,1,,,,,,,,,,,,,,,,,,,,,,,,,,,,,,,,,,,,,,,,
,,,,,WIN24_007,21,Female,2024-01-26_15h08.10.758,jersey_experiment_5,2023.2.2,Win32,84.74576271,,,,,,,,,,,,,,,,445.9265,447.2279,447.2279,456.6752,return,7.808,,38.80208333,,,,,,FBP-OG-18.png,0.37,1.2,7,0.5,0,35,35,6,1,,,,,,,,,,,,,,,,,,,,,,,,,,,,,,,,,,,,,,,,
,,,,,WIN24_007,21,Female,2024-01-26_15h08.10.758,jersey_experiment_5,2023.2.2,Win32,84.74576271,,,,,,,,,,,,,,,,456.6754,457.9718,457.9718,459.5496,return,0.6941,,50.26041667,,,,,,FBP-PT-91.png,0.43,1.2,59,0.5,0,36,36,58,1,,,,,,,,,,,,,,,,,,,,,,,,,,,,,,,,,,,,,,,,
,,,,,WIN24_007,21,Female,2024-01-26_15h08.10.758,jersey_experiment_5,2023.2.2,Win32,84.74576271,,,,,,,,,,,,,,,,459.5498,461.3479,461.3479,462.5147,return,0.6359,,50.26041667,,,,,,FBP-YG-18.png,0.4,1.2,38,1,0,37,37,37,1,,,,,,,,,,,,,,,,,,,,,,,,,,,,,,,,,,,,,,,,
,,,,,WIN24_007,21,Female,2024-01-26_15h08.10.758,jersey_experiment_5,2023.2.2,Win32,84.74576271,,,,,,,,,,,,,,,,462.5148,463.8073,463.8073,465.2077,return,0.5297,,64.32291667,,,,,,FBP-PT-71.png,0.43,1.2,49,0.5,0,38,38,48,1,,,,,,,,,,,,,,,,,,,,,,,,,,,,,,,,,,,,,,,,
,,,,,WIN24_007,21,Female,2024-01-26_15h08.10.758,jersey_experiment_5,2023.2.2,Win32,84.74576271,,,,,,,,,,,,,,,,465.2079,467.0097,467.0097,468.2445,return,0.5765,,75.26041667,,,,,,FBP-YG-18.png,0.45,1.2,40,1,0,39,39,39,1,,,,,,,,,,,,,,,,,,,,,,,,,,,,,,,,,,,,,,,,
,,,,,WIN24_007,21,Female,2024-01-26_15h08.10.758,jersey_experiment_5,2023.2.2,Win32,84.74576271,,,,,,,,,,,,,,,,468.2446,469.5504,469.5505,470.9721,return,0.5525,,66.27604167,,,,,,FBP-OG-18.png,0.4,1.2,8,0.5,0,40,40,7,1,,,,,,,,,,,,,,,,,,,,,,,,,,,,,,,,,,,,,,,,
,,,,,WIN24_007,21,Female,2024-01-26_15h08.10.758,jersey_experiment_5,2023.2.2,Win32,84.74576271,,,,,,,,,,,,,,,,470.9723,472.2639,472.2639,473.7387,return,0.5895,,32.03125,,,,,,FBP-PT-71.png,0.35,1.2,46,0.5,0,41,41,45,1,,,,,,,,,,,,,,,,,,,,,,,,,,,,,,,,,,,,,,,,
,,,,,WIN24_007,21,Female,2024-01-26_15h08.10.758,jersey_experiment_5,2023.2.2,Win32,84.74576271,,,,,,,,,,,,,,,,473.7388,475.5377,475.5377,476.6787,return,0.6329,,80.859375,,,,,,FBP-YG-19.png,0.45,1.2,45,1,0,42,42,44,1,,,,,,,,,,,,,,,,,,,,,,,,,,,,,,,,,,,,,,,,
,,,,,WIN24_007,21,Female,2024-01-26_15h08.10.758,jersey_experiment_5,2023.2.2,Win32,84.74576271,,,,,,,,,,,,,,,,476.679,478.4784,478.4784,479.9864,return,0.6593,,71.35416667,,,,,,FBP-YG-19.png,0.4,1.2,43,1,0,43,43,42,1,,,,,,,,,,,,,,,,,,,,,,,,,,,,,,,,,,,,,,,,
,,,,,WIN24_007,21,Female,2024-01-26_15h08.10.758,jersey_experiment_5,2023.2.2,Win32,84.74576271,,,,,,,,,,,,,,,,479.9866,481.7844,481.7845,483.6569,return,0.6135,,52.08333333,,,,,,FBP-RB-91.png,0.4,1.2,28,1,0,44,44,27,1,,,,,,,,,,,,,,,,,,,,,,,,,,,,,,,,,,,,,,,,
,,,,,WIN24_007,21,Female,2024-01-26_15h08.10.758,jersey_experiment_5,2023.2.2,Win32,84.74576271,,,,,,,,,,,,,,,,483.657,484.9587,484.9587,486.4411,return,0.5783,,58.85416667,,,,,,FBP-PT-91.png,0.4,1.2,58,0.5,0,45,45,57,1,,,,,,,,,,,,,,,,,,,,,,,,,,,,,,,,,,,,,,,,
,,,,,WIN24_007,21,Female,2024-01-26_15h08.10.758,jersey_experiment_5,2023.2.2,Win32,84.74576271,,,,,,,,,,,,,,,,486.4414,488.2413,488.2413,489.5029,return,0.6932,,32.68229167,,,,,,FBP-RB-81.png,0.35,1.2,21,1,0,46,46,20,1,,,,,,,,,,,,,,,,,,,,,,,,,,,,,,,,,,,,,,,,
,,,,,WIN24_007,21,Female,2024-01-26_15h08.10.758,jersey_experiment_5,2023.2.2,Win32,84.74576271,,,,,,,,,,,,,,,,489.503,491.3,491.3,493.5264,return,1.5167,,79.94791667,,,,,,FBP-RB-91.png,0.45,1.2,30,1,0,47,47,29,1,,,,,,,,,,,,,,,,,,,,,,,,,,,,,,,,,,,,,,,,
,,,,,WIN24_007,21,Female,2024-01-26_15h08.10.758,jersey_experiment_5,2023.2.2,Win32,84.74576271,,,,,,,,,,,,,,,,493.5267,494.8203,494.8203,499.1632,return,2.4588,,66.53645833,,,,,,FBP-PT-81.png,0.45,1.2,55,0.5,0,48,48,54,1,,,,,,,,,,,,,,,,,,,,,,,,,,,,,,,,,,,,,,,,
,,,,,WIN24_007,21,Female,2024-01-26_15h08.10.758,jersey_experiment_5,2023.2.2,Win32,84.74576271,,,,,,,,,,,,,,,,499.1633,500.4558,500.4559,502.4211,return,0.6578,,51.43229167,,,,,,FBP-OG-19.png,0.4,1.2,13,0.5,0,49,49,12,1,,,,,,,,,,,,,,,,,,,,,,,,,,,,,,,,,,,,,,,,
,,,,,WIN24_007,21,Female,2024-01-26_15h08.10.758,jersey_experiment_5,2023.2.2,Win32,84.74576271,,,,,,,,,,,,,,,,502.4214,503.7144,503.7144,506.4116,return,1.8359,,67.31770833,,,,,,FBP-PT-81.png,0.43,1.2,54,0.5,0,50,50,53,1,,,,,,,,,,,,,,,,,,,,,,,,,,,,,,,,,,,,,,,,
,,,,,WIN24_007,21,Female,2024-01-26_15h08.10.758,jersey_experiment_5,2023.2.2,Win32,84.74576271,,,,,,,,,,,,,,,,506.4117,508.2133,508.2133,509.3522,return,0.6138,,49.86979167,,,,,,FBP-RB-71.png,0.4,1.2,18,1,0,51,51,17,1,,,,,,,,,,,,,,,,,,,,,,,,,,,,,,,,,,,,,,,,
,,,,,WIN24_007,21,Female,2024-01-26_15h08.10.758,jersey_experiment_5,2023.2.2,Win32,84.74576271,,,,,,,,,,,,,,,,509.3523,510.6458,510.6458,513.151,return,1.7875,,63.54166667,,,,,,FBP-OG-17.png,0.43,1.2,4,0.5,0,52,52,3,1,,,,,,,,,,,,,,,,,,,,,,,,,,,,,,,,,,,,,,,,
,,,,,WIN24_007,21,Female,2024-01-26_15h08.10.758,jersey_experiment_5,2023.2.2,Win32,84.74576271,,,,,,,,,,,,,,,,513.1512,514.459,514.459,515.9715,return,0.6085,,75.52083333,,,,,,FBP-OG-19.png,0.45,1.2,15,0.5,0,53,53,14,1,,,,,,,,,,,,,,,,,,,,,,,,,,,,,,,,,,,,,,,,
,,,,,WIN24_007,21,Female,2024-01-26_15h08.10.758,jersey_experiment_5,2023.2.2,Win32,84.74576271,,,,,,,,,,,,,,,,515.9718,517.7743,517.7744,520.327,return,0.6808,,66.015625,,,,,,FBP-YG-18.png,0.43,1.2,39,1,0,54,54,38,1,,,,,,,,,,,,,,,,,,,,,,,,,,,,,,,,,,,,,,,,
,,,,,WIN24_007,21,Female,2024-01-26_15h08.10.758,jersey_experiment_5,2023.2.2,Win32,84.74576271,,,,,,,,,,,,,,,,520.3271,522.1247,522.1248,523.3171,return,0.729,,64.58333333,,,,,,FBP-RB-81.png,0.45,1.2,25,1,0,55,55,24,1,,,,,,,,,,,,,,,,,,,,,,,,,,,,,,,,,,,,,,,,
,,,,,WIN24_007,21,Female,2024-01-26_15h08.10.758,jersey_experiment_5,2023.2.2,Win32,84.74576271,,,,,,,,,,,,,,,,523.3173,524.6109,524.6109,530.5367,return,5.0373,,24.47916667,,,,,,FBP-OG-19.png,0.37,1.2,12,0.5,0,56,56,11,1,,,,,,,,,,,,,,,,,,,,,,,,,,,,,,,,,,,,,,,,
,,,,,WIN24_007,21,Female,2024-01-26_15h08.10.758,jersey_experiment_5,2023.2.2,Win32,84.74576271,,,,,,,,,,,,,,,,530.5369,531.835,531.835,533.0954,return,0.5327,,24.08854167,,,,,,FBP-PT-81.png,0.37,1.2,52,0.5,0,57,57,51,1,,,,,,,,,,,,,,,,,,,,,,,,,,,,,,,,,,,,,,,,
,,,,,WIN24_007,21,Female,2024-01-26_15h08.10.758,jersey_experiment_5,2023.2.2,Win32,84.74576271,,,,,,,,,,,,,,,,533.0955,534.3881,534.3881,536.8194,return,0.5603,,36.58854167,,,,,,FBP-PT-71.png,0.37,1.2,47,0.5,0,58,58,46,1,,,,,,,,,,,,,,,,,,,,,,,,,,,,,,,,,,,,,,,,
,,,,,WIN24_007,21,Female,2024-01-26_15h08.10.758,jersey_experiment_5,2023.2.2,Win32,84.74576271,,,,,,,,,,,,,,,,536.8196,538.1134,538.1134,539.7843,return,0.7092,,70.05208333,,,,,,FBP-OG-18.png,0.45,1.2,10,0.5,0,59,59,9,1,,,,,,,,,,,,,,,,,,,,,,,,,,,,,,,,,,,,,,,,
,,,,,WIN24_007,21,Female,2024-01-26_15h08.10.758,jersey_experiment_5,2023.2.2,Win32,84.74576271,,,,,,,,,,,,,,,,,,,,,,,,,,,,,,,,,,,,,,,539.7847,659.7889,,,,,,,,,,,,,,,,,,,,,,,,,,,,,,,,,,,,,,
,,,,,WIN24_007,21,Female,2024-01-26_15h08.10.758,jersey_experiment_5,2023.2.2,Win32,84.74576271,,,,,,,,,,,,,,,,,,,,,,,,,,,,,,,,,,,,,,,,,659.7891,669.9228,return,10.1182,,,,,,,,,,,,,,,,,,,,,,,,,,,,,,,,,,
,,,,,WIN24_007,21,Female,2024-01-26_15h08.10.758,jersey_experiment_5,2023.2.2,Win32,84.74576271,,,,,,,,,,,,,,,,669.9287,671.2242,671.2243,677.8599,return,4.4555,,51.69270833,,,,,,FBP-RB-19.png,0.37,1.2,27,0.5,,,,,,,,,,,,,0,0,0,26,1,,,,,,,,,,,,,,,,,,,,,,,,,,,,
,,,,,WIN24_007,21,Female,2024-01-26_15h08.10.758,jersey_experiment_5,2023.2.2,Win32,84.74576271,,,,,,,,,,,,,,,,677.8643,679.664,679.664,680.9942,return,0.542,,39.0625,,,,,,FBP-PT-18.png,0.35,1.2,51,1,,,,,,,,,,,,,0,1,1,50,1,,,,,,,,,,,,,,,,,,,,,,,,,,,,
,,,,,WIN24_007,21,Female,2024-01-26_15h08.10.758,jersey_experiment_5,2023.2.2,Win32,84.74576271,,,,,,,,,,,,,,,,680.9943,682.2873,682.2873,683.8483,return,0.5201,,69.921875,,,,,,FBP-YG-71.png,0.43,1.2,34,0.5,,,,,,,,,,,,,0,2,2,33,1,,,,,,,,,,,,,,,,,,,,,,,,,,,,
,,,,,WIN24_007,21,Female,2024-01-26_15h08.10.758,jersey_experiment_5,2023.2.2,Win32,84.74576271,,,,,,,,,,,,,,,,683.8485,685.1477,685.1478,686.629,return,0.7534,,65.234375,,,,,,FBP-RB-19.png,0.43,1.2,29,0.5,,,,,,,,,,,,,0,3,3,28,1,,,,,,,,,,,,,,,,,,,,,,,,,,,,
,,,,,WIN24_007,21,Female,2024-01-26_15h08.10.758,jersey_experiment_5,2023.2.2,Win32,84.74576271,,,,,,,,,,,,,,,,686.6291,688.4301,688.4301,689.947,return,0.6353,,51.953125,,,,,,FBP-PT-19.png,0.4,1.2,58,1,,,,,,,,,,,,,0,4,4,57,1,,,,,,,,,,,,,,,,,,,,,,,,,,,,
,,,,,WIN24_007,21,Female,2024-01-26_15h08.10.758,jersey_experiment_5,2023.2.2,Win32,84.74576271,,,,,,,,,,,,,,,,689.9471,691.2423,691.2423,692.9336,return,0.5635,,43.88020833,,,,,,FBP-YG-91.png,0.37,1.2,42,0.5,,,,,,,,,,,,,0,5,5,41,1,,,,,,,,,,,,,,,,,,,,,,,,,,,,
,,,,,WIN24_007,21,Female,2024-01-26_15h08.10.758,jersey_experiment_5,2023.2.2,Win32,84.74576271,,,,,,,,,,,,,,,,692.9337,694.731,694.731,695.8764,return,0.5283,,47.91666667,,,,,,FBP-OG-91.png,0.4,1.2,13,1,,,,,,,,,,,,,0,6,6,12,1,,,,,,,,,,,,,,,,,,,,,,,,,,,,
,,,,,WIN24_007,21,Female,2024-01-26_15h08.10.758,jersey_experiment_5,2023.2.2,Win32,84.74576271,,,,,,,,,,,,,,,,695.8766,697.1818,697.1818,698.7119,return,0.5991,,62.76041667,,,,,,FBP-YG-91.png,0.4,1.2,43,0.5,,,,,,,,,,,,,0,7,7,42,1,,,,,,,,,,,,,,,,,,,,,,,,,,,,
,,,,,WIN24_007,21,Female,2024-01-26_15h08.10.758,jersey_experiment_5,2023.2.2,Win32,84.74576271,,,,,,,,,,,,,,,,698.712,700.0159,700.0159,701.4303,return,0.5892,,80.46875,,,,,,FBP-YG-81.png,0.45,1.2,40,0.5,,,,,,,,,,,,,0,8,8,39,1,,,,,,,,,,,,,,,,,,,,,,,,,,,,
,,,,,WIN24_007,21,Female,2024-01-26_15h08.10.758,jersey_experiment_5,2023.2.2,Win32,84.74576271,,,,,,,,,,,,,,,,701.4305,702.7219,702.7219,704.8281,return,1.1401,,41.27604167,,,,,,FBP-YG-71.png,0.35,1.2,31,0.5,,,,,,,,,,,,,0,9,9,30,1,,,,,,,,,,,,,,,,,,,,,,,,,,,,
,,,,,WIN24_007,21,Female,2024-01-26_15h08.10.758,jersey_experiment_5,2023.2.2,Win32,84.74576271,,,,,,,,,,,,,,,,704.8284,706.1352,706.1352,707.5254,return,0.6487,,28.515625,,,,,,FBP-YG-81.png,0.35,1.2,36,0.5,,,,,,,,,,,,,0,10,10,35,1,,,,,,,,,,,,,,,,,,,,,,,,,,,,
,,,,,WIN24_007,21,Female,2024-01-26_15h08.10.758,jersey_experiment_5,2023.2.2,Win32,84.74576271,,,,,,,,,,,,,,,,707.5256,709.3246,709.3247,711.3239,return,1.2354,,21.61458333,,,,,,FBP-OG-91.png,0.37,1.2,12,1,,,,,,,,,,,,,0,11,11,11,1,,,,,,,,,,,,,,,,,,,,,,,,,,,,
,,,,,WIN24_007,21,Female,2024-01-26_15h08.10.758,jersey_experiment_5,2023.2.2,Win32,84.74576271,,,,,,,,,,,,,,,,711.324,712.6165,712.6166,714.4885,return,0.7867,,73.56770833,,,,,,FBP-YG-91.png,0.45,1.2,45,0.5,,,,,,,,,,,,,0,12,12,44,1,,,,,,,,,,,,,,,,,,,,,,,,,,,,
,,,,,WIN24_007,21,Female,2024-01-26_15h08.10.758,jersey_experiment_5,2023.2.2,Win32,84.74576271,,,,,,,,,,,,,,,,714.4887,716.2871,716.2872,718.3239,return,1.3898,,29.94791667,,,,,,FBP-PT-17.png,0.35,1.2,46,1,,,,,,,,,,,,,0,13,13,45,1,,,,,,,,,,,,,,,,,,,,,,,,,,,,
,,,,,WIN24_007,21,Female,2024-01-26_15h08.10.758,jersey_experiment_5,2023.2.2,Win32,84.74576271,,,,,,,,,,,,,,,,718.3241,719.6293,719.6294,720.9833,return,0.5429,,34.50520833,,,,,,FBP-RB-18.png,0.35,1.2,21,0.5,,,,,,,,,,,,,0,14,14,20,1,,,,,,,,,,,,,,,,,,,,,,,,,,,,
,,,,,WIN24_007,21,Female,2024-01-26_15h08.10.758,jersey_experiment_5,2023.2.2,Win32,84.74576271,,,,,,,,,,,,,,,,720.9835,722.779,722.7791,726.1953,return,2.5282,,39.32291667,,,,,,FBP-PT-17.png,0.37,1.2,47,1,,,,,,,,,,,,,0,15,15,46,1,,,,,,,,,,,,,,,,,,,,,,,,,,,,
,,,,,WIN24_007,21,Female,2024-01-26_15h08.10.758,jersey_experiment_5,2023.2.2,Win32,84.74576271,,,,,,,,,,,,,,,,726.1954,727.9911,727.9911,730.1823,return,1.4475,,65.75520833,,,,,,FBP-PT-17.png,0.4,1.2,48,1,,,,,,,,,,,,,0,16,16,47,1,,,,,,,,,,,,,,,,,,,,,,,,,,,,
,,,,,WIN24_007,21,Female,2024-01-26_15h08.10.758,jersey_experiment_5,2023.2.2,Win32,84.74576271,,,,,,,,,,,,,,,,730.1824,731.9844,731.9844,733.3129,return,0.6252,,78.125,,,,,,FBP-PT-18.png,0.43,1.2,54,1,,,,,,,,,,,,,0,17,17,53,1,,,,,,,,,,,,,,,,,,,,,,,,,,,,
,,,,,WIN24_007,21,Female,2024-01-26_15h08.10.758,jersey_experiment_5,2023.2.2,Win32,84.74576271,,,,,,,,,,,,,,,,733.3131,734.6056,734.6056,736.1325,return,0.5605,,65.49479167,,,,,,FBP-YG-71.png,0.4,1.2,33,0.5,,,,,,,,,,,,,0,18,18,32,1,,,,,,,,,,,,,,,,,,,,,,,,,,,,
,,,,,WIN24_007,21,Female,2024-01-26_15h08.10.758,jersey_experiment_5,2023.2.2,Win32,84.74576271,,,,,,,,,,,,,,,,736.1327,737.4314,737.4316,738.4894,return,0.4925,,65.36458333,,,,,,FBP-YG-81.png,0.4,1.2,38,0.5,,,,,,,,,,,,,0,19,19,37,1,,,,,,,,,,,,,,,,,,,,,,,,,,,,
,,,,,WIN24_007,21,Female,2024-01-26_15h08.10.758,jersey_experiment_5,2023.2.2,Win32,84.74576271,,,,,,,,,,,,,,,,738.4895,740.2876,740.2876,741.5955,return,0.8485,,34.24479167,,,,,,FBP-PT-19.png,0.35,1.2,56,1,,,,,,,,,,,,,0,20,20,55,1,,,,,,,,,,,,,,,,,,,,,,,,,,,,
,,,,,WIN24_007,21,Female,2024-01-26_15h08.10.758,jersey_experiment_5,2023.2.2,Win32,84.74576271,,,,,,,,,,,,,,,,741.5957,743.3955,743.3956,745.5564,return,1.5456,,81.38020833,,,,,,FBP-OG-91.png,0.43,1.2,14,1,,,,,,,,,,,,,0,21,21,13,1,,,,,,,,,,,,,,,,,,,,,,,,,,,,
,,,,,WIN24_007,21,Female,2024-01-26_15h08.10.758,jersey_experiment_5,2023.2.2,Win32,84.74576271,,,,,,,,,,,,,,,,745.5566,746.8528,746.8528,749.4782,return,1.918,,39.19270833,,,,,,FBP-RB-19.png,0.35,1.2,26,0.5,,,,,,,,,,,,,0,22,22,25,1,,,,,,,,,,,,,,,,,,,,,,,,,,,,
,,,,,WIN24_007,21,Female,2024-01-26_15h08.10.758,jersey_experiment_5,2023.2.2,Win32,84.74576271,,,,,,,,,,,,,,,,749.4784,751.2744,751.2744,752.9726,return,0.8474,,76.69270833,,,,,,FBP-OG-91.png,0.45,1.2,15,1,,,,,,,,,,,,,0,23,23,14,1,,,,,,,,,,,,,,,,,,,,,,,,,,,,
,,,,,WIN24_007,21,Female,2024-01-26_15h08.10.758,jersey_experiment_5,2023.2.2,Win32,84.74576271,,,,,,,,,,,,,,,,752.9727,754.7704,754.7704,756.039,return,1.0036,,82.16145833,,,,,,FBP-PT-17.png,0.45,1.2,50,1,,,,,,,,,,,,,0,24,24,49,1,,,,,,,,,,,,,,,,,,,,,,,,,,,,
,,,,,WIN24_007,21,Female,2024-01-26_15h08.10.758,jersey_experiment_5,2023.2.2,Win32,84.74576271,,,,,,,,,,,,,,,,756.0391,757.8416,757.8416,759.5238,return,1.0925,,55.59895833,,,,,,FBP-PT-19.png,0.37,1.2,57,1,,,,,,,,,,,,,0,25,25,56,1,,,,,,,,,,,,,,,,,,,,,,,,,,,,
,,,,,WIN24_007,21,Female,2024-01-26_15h08.10.758,jersey_experiment_5,2023.2.2,Win32,84.74576271,,,,,,,,,,,,,,,,759.5239,760.8158,760.8158,762.514,return,1.1063,,35.67708333,,,,,,FBP-YG-91.png,0.35,1.2,41,0.5,,,,,,,,,,,,,0,26,26,40,1,,,,,,,,,,,,,,,,,,,,,,,,,,,,
,,,,,WIN24_007,21,Female,2024-01-26_15h08.10.758,jersey_experiment_5,2023.2.2,Win32,84.74576271,,,,,,,,,,,,,,,,762.5141,763.8065,763.8065,765.4307,return,0.6108,,83.85416667,,,,,,FBP-RB-19.png,0.45,1.2,30,0.5,,,,,,,,,,,,,0,27,27,29,1,,,,,,,,,,,,,,,,,,,,,,,,,,,,
,,,,,WIN24_007,21,Female,2024-01-26_15h08.10.758,jersey_experiment_5,2023.2.2,Win32,84.74576271,,,,,,,,,,,,,,,,765.4309,766.7257,766.7258,768.4425,return,0.5879,,51.43229167,,,,,,FBP-YG-71.png,0.37,1.2,32,0.5,,,,,,,,,,,,,0,28,28,31,1,,,,,,,,,,,,,,,,,,,,,,,,,,,,
,,,,,WIN24_007,21,Female,2024-01-26_15h08.10.758,jersey_experiment_5,2023.2.2,Win32,84.74576271,,,,,,,,,,,,,,,,768.4427,770.2368,770.2368,771.3023,return,0.6355,,39.71354167,,,,,,FBP-OG-81.png,0.35,1.2,6,1,,,,,,,,,,,,,0,29,29,5,1,,,,,,,,,,,,,,,,,,,,,,,,,,,,
,,,,,WIN24_007,21,Female,2024-01-26_15h08.10.758,jersey_experiment_5,2023.2.2,Win32,84.74576271,,,,,,,,,,,,,,,,771.3024,773.1034,773.1034,774.1528,return,0.6167,,80.46875,,,,,,FBP-OG-71.png,0.43,1.2,4,1,,,,,,,,,,,,,0,30,30,3,1,,,,,,,,,,,,,,,,,,,,,,,,,,,,
,,,,,WIN24_007,21,Female,2024-01-26_15h08.10.758,jersey_experiment_5,2023.2.2,Win32,84.74576271,,,,,,,,,,,,,,,,774.1529,775.4515,775.4515,777.5848,return,1.2471,,38.671875,,,,,,FBP-RB-17.png,0.35,1.2,16,0.5,,,,,,,,,,,,,0,31,31,15,1,,,,,,,,,,,,,,,,,,,,,,,,,,,,
,,,,,WIN24_007,21,Female,2024-01-26_15h08.10.758,jersey_experiment_5,2023.2.2,Win32,84.74576271,,,,,,,,,,,,,,,,777.585,779.3811,779.3811,782.5598,return,1.2452,,60.80729167,,,,,,FBP-OG-81.png,0.4,1.2,8,1,,,,,,,,,,,,,0,32,32,7,1,,,,,,,,,,,,,,,,,,,,,,,,,,,,
,,,,,WIN24_007,21,Female,2024-01-26_15h08.10.758,jersey_experiment_5,2023.2.2,Win32,84.74576271,,,,,,,,,,,,,,,,782.56,783.8518,783.8518,786.6218,return,2.2248,,69.79166667,,,,,,FBP-YG-81.png,0.43,1.2,39,0.5,,,,,,,,,,,,,0,33,33,38,1,,,,,,,,,,,,,,,,,,,,,,,,,,,,
,,,,,WIN24_007,21,Female,2024-01-26_15h08.10.758,jersey_experiment_5,2023.2.2,Win32,84.74576271,,,,,,,,,,,,,,,,786.622,787.9226,787.9227,789.3383,return,0.8707,,69.79166667,,,,,,FBP-YG-91.png,0.43,1.2,44,0.5,,,,,,,,,,,,,0,34,34,43,1,,,,,,,,,,,,,,,,,,,,,,,,,,,,
,,,,,WIN24_007,21,Female,2024-01-26_15h08.10.758,jersey_experiment_5,2023.2.2,Win32,84.74576271,,,,,,,,,,,,,,,,789.3386,791.1345,791.1345,793.033,return,1.1771,,39.84375,,,,,,FBP-OG-81.png,0.37,1.2,7,1,,,,,,,,,,,,,0,35,35,6,1,,,,,,,,,,,,,,,,,,,,,,,,,,,,
,,,,,WIN24_007,21,Female,2024-01-26_15h08.10.758,jersey_experiment_5,2023.2.2,Win32,84.74576271,,,,,,,,,,,,,,,,793.0331,794.3258,794.3258,796.3541,return,0.6745,,39.84375,,,,,,FBP-RB-18.png,0.37,1.2,22,0.5,,,,,,,,,,,,,0,36,36,21,1,,,,,,,,,,,,,,,,,,,,,,,,,,,,
,,,,,WIN24_007,21,Female,2024-01-26_15h08.10.758,jersey_experiment_5,2023.2.2,Win32,84.74576271,,,,,,,,,,,,,,,,796.3542,798.1488,798.1488,799.523,return,0.6325,,70.57291667,,,,,,FBP-OG-81.png,0.43,1.2,9,1,,,,,,,,,,,,,0,37,37,8,1,,,,,,,,,,,,,,,,,,,,,,,,,,,,
,,,,,WIN24_007,21,Female,2024-01-26_15h08.10.758,jersey_experiment_5,2023.2.2,Win32,84.74576271,,,,,,,,,,,,,,,,799.5232,801.3152,801.3152,802.4348,return,0.7091,,83.46354167,,,,,,FBP-PT-19.png,0.43,1.2,59,1,,,,,,,,,,,,,0,38,38,58,1,,,,,,,,,,,,,,,,,,,,,,,,,,,,
,,,,,WIN24_007,21,Female,2024-01-26_15h08.10.758,jersey_experiment_5,2023.2.2,Win32,84.74576271,,,,,,,,,,,,,,,,802.4349,803.7269,803.7269,806.1976,return,1.6689,,49.21875,,,,,,FBP-YG-81.png,0.37,1.2,37,0.5,,,,,,,,,,,,,0,39,39,36,1,,,,,,,,,,,,,,,,,,,,,,,,,,,,
,,,,,WIN24_007,21,Female,2024-01-26_15h08.10.758,jersey_experiment_5,2023.2.2,Win32,84.74576271,,,,,,,,,,,,,,,,806.1978,807.4902,807.4903,809.8689,return,0.8602,,67.83854167,,,,,,FBP-RB-18.png,0.43,1.2,24,0.5,,,,,,,,,,,,,0,40,40,23,1,,,,,,,,,,,,,,,,,,,,,,,,,,,,
,,,,,WIN24_007,21,Female,2024-01-26_15h08.10.758,jersey_experiment_5,2023.2.2,Win32,84.74576271,,,,,,,,,,,,,,,,809.869,811.6647,811.6648,812.5148,return,0.1167,,70.05208333,,,,,,FBP-OG-81.png,0.45,1.2,10,1,,,,,,,,,,,,,0,41,41,9,1,,,,,,,,,,,,,,,,,,,,,,,,,,,,
,,,,,WIN24_007,21,Female,2024-01-26_15h08.10.758,jersey_experiment_5,2023.2.2,Win32,84.74576271,,,,,,,,,,,,,,,,812.515,814.3168,814.3169,815.7163,return,0.8488,,51.30208333,,,,,,FBP-PT-18.png,0.4,1.2,53,1,,,,,,,,,,,,,0,42,42,52,1,,,,,,,,,,,,,,,,,,,,,,,,,,,,
,,,,,WIN24_007,21,Female,2024-01-26_15h08.10.758,jersey_experiment_5,2023.2.2,Win32,84.74576271,,,,,,,,,,,,,,,,815.7164,817.0215,817.0215,818.5355,return,0.7676,,86.97916667,,,,,,FBP-RB-17.png,0.45,1.2,20,0.5,,,,,,,,,,,,,0,43,43,19,1,,,,,,,,,,,,,,,,,,,,,,,,,,,,
,,,,,WIN24_007,21,Female,2024-01-26_15h08.10.758,jersey_experiment_5,2023.2.2,Win32,84.74576271,,,,,,,,,,,,,,,,818.5358,820.3283,820.3283,821.8298,return,0.194,,77.734375,,,,,,FBP-PT-18.png,0.45,1.2,55,1,,,,,,,,,,,,,0,44,44,54,1,,,,,,,,,,,,,,,,,,,,,,,,,,,,
,,,,,WIN24_007,21,Female,2024-01-26_15h08.10.758,jersey_experiment_5,2023.2.2,Win32,84.74576271,,,,,,,,,,,,,,,,821.8301,823.6297,823.6298,824.9987,return,0.1515,,78.64583333,,,,,,FBP-PT-19.png,0.45,1.2,60,1,,,,,,,,,,,,,0,45,45,59,1,,,,,,,,,,,,,,,,,,,,,,,,,,,,
,,,,,WIN24_007,21,Female,2024-01-26_15h08.10.758,jersey_experiment_5,2023.2.2,Win32,84.74576271,,,,,,,,,,,,,,,,824.9988,826.2911,826.2911,827.5247,return,0.187,,57.55208333,,,,,,FBP-RB-18.png,0.4,1.2,23,0.5,,,,,,,,,,,,,0,46,46,22,1,,,,,,,,,,,,,,,,,,,,,,,,,,,,
,,,,,WIN24_007,21,Female,2024-01-26_15h08.10.758,jersey_experiment_5,2023.2.2,Win32,84.74576271,,,,,,,,,,,,,,,,827.525,828.8248,828.8248,830.0535,return,0.1709,,41.92708333,,,,,,FBP-RB-17.png,0.37,1.2,17,0.5,,,,,,,,,,,,,0,47,47,16,1,,,,,,,,,,,,,,,,,,,,,,,,,,,,
,,,,,WIN24_007,21,Female,2024-01-26_15h08.10.758,jersey_experiment_5,2023.2.2,Win32,84.74576271,,,,,,,,,,,,,,,,830.0538,831.3517,831.3517,832.3987,return,0.2824,,85.80729167,,,,,,FBP-RB-18.png,0.45,1.2,25,0.5,,,,,,,,,,,,,0,48,48,24,1,,,,,,,,,,,,,,,,,,,,,,,,,,,,
,,,,,WIN24_007,21,Female,2024-01-26_15h08.10.758,jersey_experiment_5,2023.2.2,Win32,84.74576271,,,,,,,,,,,,,,,,832.3989,833.6914,833.6914,835.1597,return,0.215,,52.734375,,,,,,FBP-RB-17.png,0.4,1.2,18,0.5,,,,,,,,,,,,,0,49,49,17,1,,,,,,,,,,,,,,,,,,,,,,,,,,,,
,,,,,WIN24_007,21,Female,2024-01-26_15h08.10.758,jersey_experiment_5,2023.2.2,Win32,84.74576271,,,,,,,,,,,,,,,,835.1599,836.9623,836.9623,838.2346,return,0.2826,,71.61458333,,,,,,FBP-PT-17.png,0.43,1.2,49,1,,,,,,,,,,,,,0,50,50,48,1,,,,,,,,,,,,,,,,,,,,,,,,,,,,
,,,,,WIN24_007,21,Female,2024-01-26_15h08.10.758,jersey_experiment_5,2023.2.2,Win32,84.74576271,,,,,,,,,,,,,,,,838.2347,840.0327,840.0327,840.6304,return,0.2159,,82.16145833,,,,,,FBP-OG-71.png,0.45,1.2,5,1,,,,,,,,,,,,,0,51,51,4,1,,,,,,,,,,,,,,,,,,,,,,,,,,,,
,,,,,WIN24_007,21,Female,2024-01-26_15h08.10.758,jersey_experiment_5,2023.2.2,Win32,84.74576271,,,,,,,,,,,,,,,,840.6307,842.4333,842.4333,843.3411,return,0.1889,,30.46875,,,,,,FBP-OG-71.png,0.37,1.2,2,1,,,,,,,,,,,,,0,52,52,1,1,,,,,,,,,,,,,,,,,,,,,,,,,,,,
,,,,,WIN24_007,21,Female,2024-01-26_15h08.10.758,jersey_experiment_5,2023.2.2,Win32,84.74576271,,,,,,,,,,,,,,,,843.3413,844.6345,844.6345,845.5247,return,0.1583,,33.984375,,,,,,FBP-RB-19.png,0.4,1.2,28,0.5,,,,,,,,,,,,,0,53,53,27,1,,,,,,,,,,,,,,,,,,,,,,,,,,,,
,,,,,WIN24_007,21,Female,2024-01-26_15h08.10.758,jersey_experiment_5,2023.2.2,Win32,84.74576271,,,,,,,,,,,,,,,,845.5249,847.3172,847.3172,847.9601,return,0.2259,,20.83333333,,,,,,FBP-PT-18.png,0.37,1.2,52,1,,,,,,,,,,,,,0,54,54,51,1,,,,,,,,,,,,,,,,,,,,,,,,,,,,
,,,,,WIN24_007,21,Female,2024-01-26_15h08.10.758,jersey_experiment_5,2023.2.2,Win32,84.74576271,,,,,,,,,,,,,,,,847.9603,849.2543,849.2543,851.3997,return,1.2376,,81.90104167,,,,,,FBP-RB-17.png,0.43,1.2,19,0.5,,,,,,,,,,,,,0,55,55,18,1,,,,,,,,,,,,,,,,,,,,,,,,,,,,
,,,,,WIN24_007,21,Female,2024-01-26_15h08.10.758,jersey_experiment_5,2023.2.2,Win32,84.74576271,,,,,,,,,,,,,,,,851.3998,853.2003,853.2003,853.953,return,0.2243,,12.890625,,,,,,FBP-OG-71.png,0.35,1.2,1,1,,,,,,,,,,,,,0,56,56,0,1,,,,,,,,,,,,,,,,,,,,,,,,,,,,
,,,,,WIN24_007,21,Female,2024-01-26_15h08.10.758,jersey_experiment_5,2023.2.2,Win32,84.74576271,,,,,,,,,,,,,,,,853.9531,855.2465,855.2465,856.184,return,0.145,,83.203125,,,,,,FBP-YG-71.png,0.45,1.2,35,0.5,,,,,,,,,,,,,0,57,57,34,1,,,,,,,,,,,,,,,,,,,,,,,,,,,,
,,,,,WIN24_007,21,Female,2024-01-26_15h08.10.758,jersey_experiment_5,2023.2.2,Win32,84.74576271,,,,,,,,,,,,,,,,856.1841,857.984,857.984,858.5841,return,0.1691,,64.58333333,,,,,,FBP-OG-71.png,0.4,1.2,3,1,,,,,,,,,,,,,0,58,58,2,1,,,,,,,,,,,,,,,,,,,,,,,,,,,,
,,,,,WIN24_007,21,Female,2024-01-26_15h08.10.758,jersey_experiment_5,2023.2.2,Win32,84.74576271,,,,,,,,,,,,,,,,858.5844,860.389,860.389,861.4118,return,0.5544,,20.57291667,,,,,,FBP-OG-91.png,0.35,1.2,11,1,,,,,,,,,,,,,0,59,59,10,1,,,,,,,,,,,,,,,,,,,,,,,,,,,,
,,,,,WIN24_007,21,Female,2024-01-26_15h08.10.758,jersey_experiment_5,2023.2.2,Win32,84.74576271,,,,,,,,,,,,,,,,861.4136,862.7185,862.7185,863.6825,return,0.3648,,66.796875,,,,,,FBP-RB-81.png,0.45,1.2,25,0.5,,,,,,,,,,,,,,,,,,0,0,0,24,1,,,,,,,,,,,,,,,,,,,,,,,
,,,,,WIN24_007,21,Female,2024-01-26_15h08.10.758,jersey_experiment_5,2023.2.2,Win32,84.74576271,,,,,,,,,,,,,,,,863.6828,864.9893,864.9893,866.3018,return,0.1896,,56.38020833,,,,,,FBP-RB-71.png,0.4,1.2,18,0.5,,,,,,,,,,,,,,,,,,0,1,1,17,1,,,,,,,,,,,,,,,,,,,,,,,
,,,,,WIN24_007,21,Female,2024-01-26_15h08.10.758,jersey_experiment_5,2023.2.2,Win32,84.74576271,,,,,,,,,,,,,,,,866.3021,867.5997,867.5997,868.941,return,0.7763,,64.19270833,,,,,,FBP-YG-19.png,0.4,1.2,43,0.5,,,,,,,,,,,,,,,,,,0,2,2,42,1,,,,,,,,,,,,,,,,,,,,,,,
,,,,,WIN24_007,21,Female,2024-01-26_15h08.10.758,jersey_experiment_5,2023.2.2,Win32,84.74576271,,,,,,,,,,,,,,,,868.9411,870.7412,870.7412,871.2697,return,0.1873,,87.76041667,,,,,,FBP-PT-71.png,0.45,1.2,50,1,,,,,,,,,,,,,,,,,,0,3,3,49,1,,,,,,,,,,,,,,,,,,,,,,,
,,,,,WIN24_007,21,Female,2024-01-26_15h08.10.758,jersey_experiment_5,2023.2.2,Win32,84.74576271,,,,,,,,,,,,,,,,871.2699,873.0697,873.0697,873.9728,return,0.1469,,30.078125,,,,,,FBP-OG-19.png,0.35,1.2,11,1,,,,,,,,,,,,,,,,,,0,4,4,10,1,,,,,,,,,,,,,,,,,,,,,,,
,,,,,WIN24_007,21,Female,2024-01-26_15h08.10.758,jersey_experiment_5,2023.2.2,Win32,84.74576271,,,,,,,,,,,,,,,,873.9731,875.7751,875.7752,876.5652,return,0.1295,,43.48958333,,,,,,FBP-OG-19.png,0.4,1.2,13,1,,,,,,,,,,,,,,,,,,0,5,5,12,1,,,,,,,,,,,,,,,,,,,,,,,
,,,,,WIN24_007,21,Female,2024-01-26_15h08.10.758,jersey_experiment_5,2023.2.2,Win32,84.74576271,,,,,,,,,,,,,,,,876.5653,877.8581,877.8581,879.1434,return,0.2137,,67.44791667,,,,,,FBP-RB-71.png,0.43,1.2,19,0.5,,,,,,,,,,,,,,,,,,0,6,6,18,1,,,,,,,,,,,,,,,,,,,,,,,
,,,,,WIN24_007,21,Female,2024-01-26_15h08.10.758,jersey_experiment_5,2023.2.2,Win32,84.74576271,,,,,,,,,,,,,,,,879.1435,880.94,880.94,882.0555,return,0.3069,,62.890625,,,,,,FBP-PT-81.png,0.4,1.2,53,1,,,,,,,,,,,,,,,,,,0,7,7,52,1,,,,,,,,,,,,,,,,,,,,,,,
,,,,,WIN24_007,21,Female,2024-01-26_15h08.10.758,jersey_experiment_5,2023.2.2,Win32,84.74576271,,,,,,,,,,,,,,,,882.0557,883.3497,883.3497,884.1183,return,0.1883,,82.421875,,,,,,FBP-RB-91.png,0.45,1.2,30,0.5,,,,,,,,,,,,,,,,,,0,8,8,29,1,,,,,,,,,,,,,,,,,,,,,,,
,,,,,WIN24_007,21,Female,2024-01-26_15h08.10.758,jersey_experiment_5,2023.2.2,Win32,84.74576271,,,,,,,,,,,,,,,,884.1185,885.9143,885.9143,886.9774,return,0.1782,,84.89583333,,,,,,FBP-OG-17.png,0.45,1.2,5,1,,,,,,,,,,,,,,,,,,0,9,9,4,1,,,,,,,,,,,,,,,,,,,,,,,
,,,,,WIN24_007,21,Female,2024-01-26_15h08.10.758,jersey_experiment_5,2023.2.2,Win32,84.74576271,,,,,,,,,,,,,,,,886.9775,888.2829,888.283,889.035,return,0.1872,,73.828125,,,,,,FBP-YG-17.png,0.4,1.2,33,0.5,,,,,,,,,,,,,,,,,,0,10,10,32,1,,,,,,,,,,,,,,,,,,,,,,,
,,,,,WIN24_007,21,Female,2024-01-26_15h08.10.758,jersey_experiment_5,2023.2.2,Win32,84.74576271,,,,,,,,,,,,,,,,889.0353,890.3301,890.3301,891.1262,return,0.1802,,87.36979167,,,,,,FBP-RB-71.png,0.45,1.2,20,0.5,,,,,,,,,,,,,,,,,,0,11,11,19,1,,,,,,,,,,,,,,,,,,,,,,,
,,,,,WIN24_007,21,Female,2024-01-26_15h08.10.758,jersey_experiment_5,2023.2.2,Win32,84.74576271,,,,,,,,,,,,,,,,891.1265,892.9301,892.9301,895.0715,return,1.0356,,54.81770833,,,,,,FBP-OG-18.png,0.37,1.2,7,1,,,,,,,,,,,,,,,,,,0,12,12,6,1,,,,,,,,,,,,,,,,,,,,,,,
,,,,,WIN24_007,21,Female,2024-01-26_15h08.10.758,jersey_experiment_5,2023.2.2,Win32,84.74576271,,,,,,,,,,,,,,,,895.0717,896.8715,896.8715,897.4943,return,0.1856,,82.421875,,,,,,FBP-OG-18.png,0.45,1.2,10,1,,,,,,,,,,,,,,,,,,0,13,13,9,1,,,,,,,,,,,,,,,,,,,,,,,
,,,,,WIN24_007,21,Female,2024-01-26_15h08.10.758,jersey_experiment_5,2023.2.2,Win32,84.74576271,,,,,,,,,,,,,,,,897.4944,899.2948,899.2948,900.2914,return,0.1377,,23.69791667,,,,,,FBP-PT-71.png,0.35,1.2,46,1,,,,,,,,,,,,,,,,,,0,14,14,45,1,,,,,,,,,,,,,,,,,,,,,,,
,,,,,WIN24_007,21,Female,2024-01-26_15h08.10.758,jersey_experiment_5,2023.2.2,Win32,84.74576271,,,,,,,,,,,,,,,,900.2916,902.0951,902.0952,903.7531,return,0.1972,,47.52604167,,,,,,FBP-OG-18.png,0.4,1.2,8,1,,,,,,,,,,,,,,,,,,0,15,15,7,1,,,,,,,,,,,,,,,,,,,,,,,
,,,,,WIN24_007,21,Female,2024-01-26_15h08.10.758,jersey_experiment_5,2023.2.2,Win32,84.74576271,,,,,,,,,,,,,,,,903.7532,905.5537,905.5537,907.4485,return,0.9411,,63.93229167,,,,,,FBP-PT-81.png,0.43,1.2,54,1,,,,,,,,,,,,,,,,,,0,16,16,53,1,,,,,,,,,,,,,,,,,,,,,,,
,,,,,WIN24_007,21,Female,2024-01-26_15h08.10.758,jersey_experiment_5,2023.2.2,Win32,84.74576271,,,,,,,,,,,,,,,,907.4486,908.7441,908.7442,909.8917,return,0.1833,,72.00520833,,,,,,FBP-YG-18.png,0.45,1.2,40,0.5,,,,,,,,,,,,,,,,,,0,17,17,39,1,,,,,,,,,,,,,,,,,,,,,,,
,,,,,WIN24_007,21,Female,2024-01-26_15h08.10.758,jersey_experiment_5,2023.2.2,Win32,84.74576271,,,,,,,,,,,,,,,,909.8919,911.1898,911.1898,911.9655,return,0.1404,,79.81770833,,,,,,FBP-RB-81.png,0.43,1.2,24,0.5,,,,,,,,,,,,,,,,,,0,18,18,23,1,,,,,,,,,,,,,,,,,,,,,,,
,,,,,WIN24_007,21,Female,2024-01-26_15h08.10.758,jersey_experiment_5,2023.2.2,Win32,84.74576271,,,,,,,,,,,,,,,,911.9656,913.2607,913.2607,914.4488,return,0.2487,,85.28645833,,,,,,FBP-YG-19.png,0.45,1.2,45,0.5,,,,,,,,,,,,,,,,,,0,19,19,44,1,,,,,,,,,,,,,,,,,,,,,,,
,,,,,WIN24_007,21,Female,2024-01-26_15h08.10.758,jersey_experiment_5,2023.2.2,Win32,84.74576271,,,,,,,,,,,,,,,,914.4489,916.245,916.245,916.8567,return,0.1429,,88.41145833,,,,,,FBP-PT-81.png,0.45,1.2,55,1,,,,,,,,,,,,,,,,,,0,20,20,54,1,,,,,,,,,,,,,,,,,,,,,,,
,,,,,WIN24_007,21,Female,2024-01-26_15h08.10.758,jersey_experiment_5,2023.2.2,Win32,84.74576271,,,,,,,,,,,,,,,,916.8569,918.6592,918.6592,919.6254,return,0.2116,,60.80729167,,,,,,FBP-PT-71.png,0.4,1.2,48,1,,,,,,,,,,,,,,,,,,0,21,21,47,1,,,,,,,,,,,,,,,,,,,,,,,
,,,,,WIN24_007,21,Female,2024-01-26_15h08.10.758,jersey_experiment_5,2023.2.2,Win32,84.74576271,,,,,,,,,,,,,,,,919.6256,920.9198,920.9198,923.0923,return,1.2142,,36.328125,,,,,,FBP-RB-91.png,0.37,1.2,27,0.5,,,,,,,,,,,,,,,,,,0,22,22,26,1,,,,,,,,,,,,,,,,,,,,,,,
,,,,,WIN24_007,21,Female,2024-01-26_15h08.10.758,jersey_experiment_5,2023.2.2,Win32,84.74576271,,,,,,,,,,,,,,,,923.0925,924.8838,924.8839,926.5455,return,1.1214,,20.83333333,,,,,,FBP-OG-17.png,0.35,1.2,1,1,,,,,,,,,,,,,,,,,,0,23,23,0,1,,,,,,,,,,,,,,,,,,,,,,,
,,,,,WIN24_007,21,Female,2024-01-26_15h08.10.758,jersey_experiment_5,2023.2.2,Win32,84.74576271,,,,,,,,,,,,,,,,926.5456,927.8491,927.8491,929.2688,return,0.5576,,63.671875,,,,,,FBP-YG-19.png,0.43,1.2,44,0.5,,,,,,,,,,,,,,,,,,0,24,24,43,1,,,,,,,,,,,,,,,,,,,,,,,
,,,,,WIN24_007,21,Female,2024-01-26_15h08.10.758,jersey_experiment_5,2023.2.2,Win32,84.74576271,,,,,,,,,,,,,,,,929.2691,930.5671,930.5671,931.3317,return,0.1312,,74.86979167,,,,,,FBP-YG-18.png,0.43,1.2,39,0.5,,,,,,,,,,,,,,,,,,0,25,25,38,1,,,,,,,,,,,,,,,,,,,,,,,
,,,,,WIN24_007,21,Female,2024-01-26_15h08.10.758,jersey_experiment_5,2023.2.2,Win32,84.74576271,,,,,,,,,,,,,,,,931.3319,933.1299,933.1299,933.6954,return,0.1987,,79.6875,,,,,,FBP-PT-91.png,0.43,1.2,59,1,,,,,,,,,,,,,,,,,,0,26,26,58,1,,,,,,,,,,,,,,,,,,,,,,,
,,,,,WIN24_007,21,Female,2024-01-26_15h08.10.758,jersey_experiment_5,2023.2.2,Win32,84.74576271,,,,,,,,,,,,,,,,933.6956,935.4954,935.4954,936.3397,return,0.2754,,51.04166667,,,,,,FBP-PT-91.png,0.4,1.2,58,1,,,,,,,,,,,,,,,,,,0,27,27,57,1,,,,,,,,,,,,,,,,,,,,,,,
,,,,,WIN24_007,21,Female,2024-01-26_15h08.10.758,jersey_experiment_5,2023.2.2,Win32,84.74576271,,,,,,,,,,,,,,,,936.3399,938.1426,938.1427,938.7869,return,0.1029,,43.09895833,,,,,,FBP-PT-81.png,0.37,1.2,52,1,,,,,,,,,,,,,,,,,,0,28,28,51,1,,,,,,,,,,,,,,,,,,,,,,,
,,,,,WIN24_007,21,Female,2024-01-26_15h08.10.758,jersey_experiment_5,2023.2.2,Win32,84.74576271,,,,,,,,,,,,,,,,938.7871,940.5893,940.5893,941.6224,return,0.1217,,47.13541667,,,,,,FBP-OG-17.png,0.4,1.2,3,1,,,,,,,,,,,,,,,,,,0,29,29,2,1,,,,,,,,,,,,,,,,,,,,,,,
,,,,,WIN24_007,21,Female,2024-01-26_15h08.10.758,jersey_experiment_5,2023.2.2,Win32,84.74576271,,,,,,,,,,,,,,,,941.6226,942.9203,942.9203,943.7047,return,0.144,,36.328125,,,,,,FBP-YG-18.png,0.37,1.2,37,0.5,,,,,,,,,,,,,,,,,,0,30,30,36,1,,,,,,,,,,,,,,,,,,,,,,,
,,,,,WIN24_007,21,Female,2024-01-26_15h08.10.758,jersey_experiment_5,2023.2.2,Win32,84.74576271,,,,,,,,,,,,,,,,943.705,944.9989,944.9989,946.5793,return,0.6604,,24.609375,,,,,,FBP-YG-18.png,0.35,1.2,36,0.5,,,,,,,,,,,,,,,,,,0,31,31,35,1,,,,,,,,,,,,,,,,,,,,,,,
,,,,,WIN24_007,21,Female,2024-01-26_15h08.10.758,jersey_experiment_5,2023.2.2,Win32,84.74576271,,,,,,,,,,,,,,,,946.5795,947.875,947.875,949.45,return,0.7898,,44.140625,,,,,,FBP-YG-19.png,0.37,1.2,42,0.5,,,,,,,,,,,,,,,,,,0,32,32,41,1,,,,,,,,,,,,,,,,,,,,,,,
,,,,,WIN24_007,21,Female,2024-01-26_15h08.10.758,jersey_experiment_5,2023.2.2,Win32,84.74576271,,,,,,,,,,,,,,,,949.4502,950.7559,950.7559,951.5874,return,0.1938,,32.8125,,,,,,FBP-RB-81.png,0.37,1.2,22,0.5,,,,,,,,,,,,,,,,,,0,33,33,21,1,,,,,,,,,,,,,,,,,,,,,,,
,,,,,WIN24_007,21,Female,2024-01-26_15h08.10.758,jersey_experiment_5,2023.2.2,Win32,84.74576271,,,,,,,,,,,,,,,,951.5876,952.8838,952.8839,956.4933,return,2.7753,,37.63020833,,,,,,FBP-RB-71.png,0.37,1.2,17,0.5,,,,,,,,,,,,,,,,,,0,34,34,16,1,,,,,,,,,,,,,,,,,,,,,,,
,,,,,WIN24_007,21,Female,2024-01-26_15h08.10.758,jersey_experiment_5,2023.2.2,Win32,84.74576271,,,,,,,,,,,,,,,,956.4936,957.7903,957.7904,958.6818,return,0.2255,,24.86979167,,,,,,FBP-RB-81.png,0.35,1.2,21,0.5,,,,,,,,,,,,,,,,,,0,35,35,20,1,,,,,,,,,,,,,,,,,,,,,,,
,,,,,WIN24_007,21,Female,2024-01-26_15h08.10.758,jersey_experiment_5,2023.2.2,Win32,84.74576271,,,,,,,,,,,,,,,,958.682,960.4818,960.4818,961.2142,return,0.1989,,61.45833333,,,,,,FBP-PT-71.png,0.43,1.2,49,1,,,,,,,,,,,,,,,,,,0,36,36,48,1,,,,,,,,,,,,,,,,,,,,,,,
,,,,,WIN24_007,21,Female,2024-01-26_15h08.10.758,jersey_experiment_5,2023.2.2,Win32,84.74576271,,,,,,,,,,,,,,,,961.2143,963.0162,963.0162,963.7212,return,0.2235,,17.1875,,,,,,FBP-PT-91.png,0.35,1.2,56,1,,,,,,,,,,,,,,,,,,0,37,37,55,1,,,,,,,,,,,,,,,,,,,,,,,
,,,,,WIN24_007,21,Female,2024-01-26_15h08.10.758,jersey_experiment_5,2023.2.2,Win32,84.74576271,,,,,,,,,,,,,,,,963.7212,965.5198,965.5198,966.168,return,0.1761,,14.19270833,,,,,,FBP-PT-81.png,0.35,1.2,51,1,,,,,,,,,,,,,,,,,,0,38,38,50,1,,,,,,,,,,,,,,,,,,,,,,,
,,,,,WIN24_007,21,Female,2024-01-26_15h08.10.758,jersey_experiment_5,2023.2.2,Win32,84.74576271,,,,,,,,,,,,,,,,966.1683,967.4627,967.4627,968.5703,return,0.1565,,78.515625,,,,,,FBP-RB-91.png,0.43,1.2,29,0.5,,,,,,,,,,,,,,,,,,0,39,39,28,1,,,,,,,,,,,,,,,,,,,,,,,
,,,,,WIN24_007,21,Female,2024-01-26_15h08.10.758,jersey_experiment_5,2023.2.2,Win32,84.74576271,,,,,,,,,,,,,,,,968.5704,970.3665,970.3665,972.6586,return,1.49,,34.765625,,,,,,FBP-PT-71.png,0.37,1.2,47,1,,,,,,,,,,,,,,,,,,0,40,40,46,1,,,,,,,,,,,,,,,,,,,,,,,
,,,,,WIN24_007,21,Female,2024-01-26_15h08.10.758,jersey_experiment_5,2023.2.2,Win32,84.74576271,,,,,,,,,,,,,,,,972.6589,974.4618,974.4619,975.5647,return,0.553,,69.921875,,,,,,FBP-OG-19.png,0.43,1.2,14,1,,,,,,,,,,,,,,,,,,0,41,41,13,1,,,,,,,,,,,,,,,,,,,,,,,
,,,,,WIN24_007,21,Female,2024-01-26_15h08.10.758,jersey_experiment_5,2023.2.2,Win32,84.74576271,,,,,,,,,,,,,,,,975.565,977.3572,977.3572,978.0823,return,0.1017,,82.29166667,,,,,,FBP-PT-91.png,0.45,1.2,60,1,,,,,,,,,,,,,,,,,,0,42,42,59,1,,,,,,,,,,,,,,,,,,,,,,,
,,,,,WIN24_007,21,Female,2024-01-26_15h08.10.758,jersey_experiment_5,2023.2.2,Win32,84.74576271,,,,,,,,,,,,,,,,978.0825,979.8749,979.8749,980.5937,return,0.2031,,82.29166667,,,,,,FBP-OG-18.png,0.43,1.2,9,1,,,,,,,,,,,,,,,,,,0,43,43,8,1,,,,,,,,,,,,,,,,,,,,,,,
,,,,,WIN24_007,21,Female,2024-01-26_15h08.10.758,jersey_experiment_5,2023.2.2,Win32,84.74576271,,,,,,,,,,,,,,,,980.5939,981.8982,981.8982,983.5927,return,0.7306,,44.01041667,,,,,,FBP-YG-17.png,0.37,1.2,32,0.5,,,,,,,,,,,,,,,,,,0,44,44,31,1,,,,,,,,,,,,,,,,,,,,,,,
,,,,,WIN24_007,21,Female,2024-01-26_15h08.10.758,jersey_experiment_5,2023.2.2,Win32,84.74576271,,,,,,,,,,,,,,,,983.5929,985.3922,985.3922,986.0853,return,0.141,,90.36458333,,,,,,FBP-OG-19.png,0.45,1.2,15,1,,,,,,,,,,,,,,,,,,0,45,45,14,1,,,,,,,,,,,,,,,,,,,,,,,
,,,,,WIN24_007,21,Female,2024-01-26_15h08.10.758,jersey_experiment_5,2023.2.2,Win32,84.74576271,,,,,,,,,,,,,,,,986.0854,987.3769,987.3769,990.0595,return,1.6943,,13.54166667,,,,,,FBP-YG-17.png,0.35,1.2,31,0.5,,,,,,,,,,,,,,,,,,0,46,46,30,1,,,,,,,,,,,,,,,,,,,,,,,
,,,,,WIN24_007,21,Female,2024-01-26_15h08.10.758,jersey_experiment_5,2023.2.2,Win32,84.74576271,,,,,,,,,,,,,,,,990.0597,991.8618,991.8618,992.5826,return,0.0855,,26.953125,,,,,,FBP-OG-19.png,0.37,1.2,12,1,,,,,,,,,,,,,,,,,,0,47,47,11,1,,,,,,,,,,,,,,,,,,,,,,,
,,,,,WIN24_007,21,Female,2024-01-26_15h08.10.758,jersey_experiment_5,2023.2.2,Win32,84.74576271,,,,,,,,,,,,,,,,992.5827,993.8857,993.8857,995.1462,return,0.1643,,50.13020833,,,,,,FBP-RB-91.png,0.4,1.2,28,0.5,,,,,,,,,,,,,,,,,,0,48,48,27,1,,,,,,,,,,,,,,,,,,,,,,,
,,,,,WIN24_007,21,Female,2024-01-26_15h08.10.758,jersey_experiment_5,2023.2.2,Win32,84.74576271,,,,,,,,,,,,,,,,995.1463,996.9486,996.9486,997.7565,return,0.2455,,34.24479167,,,,,,FBP-OG-17.png,0.37,1.2,2,1,,,,,,,,,,,,,,,,,,0,49,49,1,1,,,,,,,,,,,,,,,,,,,,,,,
,,,,,WIN24_007,21,Female,2024-01-26_15h08.10.758,jersey_experiment_5,2023.2.2,Win32,84.74576271,,,,,,,,,,,,,,,,997.7567,999.0533,999.0533,1000.1341,return,0.1661,,26.5625,,,,,,FBP-RB-71.png,0.35,1.2,16,0.5,,,,,,,,,,,,,,,,,,0,50,50,15,1,,,,,,,,,,,,,,,,,,,,,,,
,,,,,WIN24_007,21,Female,2024-01-26_15h08.10.758,jersey_experiment_5,2023.2.2,Win32,84.74576271,,,,,,,,,,,,,,,,1000.1343,1001.9345,1001.9345,1002.4715,return,0.1201,,20.703125,,,,,,FBP-OG-18.png,0.35,1.2,6,1,,,,,,,,,,,,,,,,,,0,51,51,5,1,,,,,,,,,,,,,,,,,,,,,,,
,,,,,WIN24_007,21,Female,2024-01-26_15h08.10.758,jersey_experiment_5,2023.2.2,Win32,84.74576271,,,,,,,,,,,,,,,,1002.4717,1003.7657,1003.7657,1004.7347,return,0.178,,73.56770833,,,,,,FBP-YG-17.png,0.45,1.2,35,0.5,,,,,,,,,,,,,,,,,,0,52,52,34,1,,,,,,,,,,,,,,,,,,,,,,,
,,,,,WIN24_007,21,Female,2024-01-26_15h08.10.758,jersey_experiment_5,2023.2.2,Win32,84.74576271,,,,,,,,,,,,,,,,1004.7348,1006.0402,1006.0403,1007.0601,return,0.1577,,75,,,,,,FBP-YG-18.png,0.4,1.2,38,0.5,,,,,,,,,,,,,,,,,,0,53,53,37,1,,,,,,,,,,,,,,,,,,,,,,,
,,,,,WIN24_007,21,Female,2024-01-26_15h08.10.758,jersey_experiment_5,2023.2.2,Win32,84.74576271,,,,,,,,,,,,,,,,1007.0603,1008.3542,1008.3542,1010.6053,return,0.1651,,69.921875,,,,,,FBP-RB-81.png,0.4,1.2,23,0.5,,,,,,,,,,,,,,,,,,0,54,54,22,1,,,,,,,,,,,,,,,,,,,,,,,
,,,,,WIN24_007,21,Female,2024-01-26_15h08.10.758,jersey_experiment_5,2023.2.2,Win32,84.74576271,,,,,,,,,,,,,,,,1010.6054,1012.4051,1012.4051,1013.2367,return,0.1596,,82.68229167,,,,,,FBP-OG-17.png,0.43,1.2,4,1,,,,,,,,,,,,,,,,,,0,55,55,3,1,,,,,,,,,,,,,,,,,,,,,,,
,,,,,WIN24_007,21,Female,2024-01-26_15h08.10.758,jersey_experiment_5,2023.2.2,Win32,84.74576271,,,,,,,,,,,,,,,,1013.2369,1014.5329,1014.533,1015.3191,return,0.2736,,81.38020833,,,,,,FBP-YG-17.png,0.43,1.2,34,0.5,,,,,,,,,,,,,,,,,,0,56,56,33,1,,,,,,,,,,,,,,,,,,,,,,,
,,,,,WIN24_007,21,Female,2024-01-26_15h08.10.758,jersey_experiment_5,2023.2.2,Win32,84.74576271,,,,,,,,,,,,,,,,1015.3193,1016.617,1016.6171,1018.3428,return,0.1803,,26.953125,,,,,,FBP-RB-91.png,0.35,1.2,26,0.5,,,,,,,,,,,,,,,,,,0,57,57,25,1,,,,,,,,,,,,,,,,,,,,,,,
,,,,,WIN24_007,21,Female,2024-01-26_15h08.10.758,jersey_experiment_5,2023.2.2,Win32,84.74576271,,,,,,,,,,,,,,,,1018.3429,1020.1357,1020.1357,1020.8044,return,0.1412,,41.27604167,,,,,,FBP-PT-91.png,0.37,1.2,57,1,,,,,,,,,,,,,,,,,,0,58,58,56,1,,,,,,,,,,,,,,,,,,,,,,,
,,,,,WIN24_007,21,Female,2024-01-26_15h08.10.758,jersey_experiment_5,2023.2.2,Win32,84.74576271,,,,,,,,,,,,,,,,1020.8047,1022.1117,1022.1117,1023.2649,return,0.4238,,38.41145833,,,,,,FBP-YG-19.png,0.35,1.2,41,0.5,,,,,,,,,,,,,,,,,,0,59,59,40,1,,,,,,,,,,,,,,,,,,,,,,,
,,,,,WIN24_007,21,Female,2024-01-26_15h08.10.758,jersey_experiment_5,2023.2.2,Win32,84.74576271,,,,,,,,,,,,,,,,,,,,,,,,,,,,,,,,,,,,,,,,,,,,,,,,,,,,,,,,1023.2652,1027.9472,return,4.6707,,,,,,,,,,,,,,,,,,,
,,,,,WIN24_007,21,Female,2024-01-26_15h08.10.758,jersey_experiment_5,2023.2.2,Win32,84.74576271,,,,,,,,,,,,,,,,,,,,,,,,,,,,,,,,,,,,,,,,,,,,,,,,,,,,,,,,,,,,,1027.9473,1033.6259,1,4.7837,return,0.8714,,,,,,,,,,,,
,,,,,WIN24_007,21,Female,2024-01-26_15h08.10.758,jersey_experiment_5,2023.2.2,Win32,84.74576271,,,,,,,,,,,,,,,,,,,,,,,,,,,,,,,,,,,,,,,,,,,,,,,,,,,,,,,,,,,,,,,,,,,,1033.626,1062.9165,relative size of the brief expression,right,20.4108,,,,,,
,,,,,WIN24_007,21,Female,2024-01-26_15h08.10.758,jersey_experiment_5,2023.2.2,Win32,84.74576271,,,,,,,,,,,,,,,,,,,,,,,,,,,,,,,,,,,,,,,,,,,,,,,,,,,,,,,,,,,,,,,,,,,,,,,,,,1062.9166,1068.6624,return,5.7346,