requirements.started,requirements.stopped,key_resp_3.keys,key_resp_3.rt,key_resp_3.duration,Subject ID,Age,Gender,date,expName,psychopyVersion,OS,frameRate,instructions1.started,instructions1.stopped,key_resp.keys,key_resp.rt,key_resp.duration,example.started,example.stopped,enter_2.keys,enter_2.rt,enter_2.duration,instructions2.started,instructions2.stopped,enter_3.keys,enter_3.rt,enter_3.duration,image.started,image.stopped,slider_2.started,slider_2.stopped,next.keys,next.rt,next.duration,slider.response,trial_block_1.thisRepN,trial_block_1.thisTrialN,trial_block_1.thisN,trial_block_1.thisIndex,trial_block_1.ran,Path,Width,Height,Index,Duration,trial_block_2.thisRepN,trial_block_2.thisTrialN,trial_block_2.thisN,trial_block_2.thisIndex,trial_block_2.ran,rest_break.started,rest_break.stopped,end_break.started,end_break.stopped,key_resp_5.keys,key_resp_5.rt,key_resp_5.duration,trial_block_3.thisRepN,trial_block_3.thisTrialN,trial_block_3.thisN,trial_block_3.thisIndex,trial_block_3.ran,trial_block_4.thisRepN,trial_block_4.thisTrialN,trial_block_4.thisN,trial_block_4.thisIndex,trial_block_4.ran,questions_intro.started,questions_intro.stopped,enter_12.keys,enter_12.rt,enter_12.duration,question2.started,question2.stopped,question_doingbest.response,question_doingbest.rt,enter_15.keys,enter_15.rt,enter_15.duration,pattern.started,pattern.stopped,pattern_2.text,enter_17.keys,enter_17.rt,enter_17.duration,thankyou.started,thankyou.stopped,enter_14.keys,enter_14.rt,enter_14.duration
0.0001,11.2857,return,11.2808,,WIN24_028,20,Female,2024-02-01_14h20.59.815,jersey_experiment_5,2023.2.2,Win32,84.74576271,,,,,,,,,,,,,,,,,,,,,,,,,,,,,,,,,,,,,,,,,,,,,,,,,,,,,,,,,,,,,,,,,,,,,,,,,,,,,,
,,,,,WIN24_028,20,Female,2024-02-01_14h20.59.815,jersey_experiment_5,2023.2.2,Win32,84.74576271,11.2858,23.0578,return,11.7607,,,,,,,,,,,,,,,,,,,,,,,,,,,,,,,,,,,,,,,,,,,,,,,,,,,,,,,,,,,,,,,,,,,,,,,,,,
,,,,,WIN24_028,20,Female,2024-02-01_14h20.59.815,jersey_experiment_5,2023.2.2,Win32,84.74576271,,,,,,23.0579,27.4816,return,4.3797,,,,,,,,,,,,,,,,,,,,,,,,,,,,,,,,,,,,,,,,,,,,,,,,,,,,,,,,,,,,,,,,,,,,,
,,,,,WIN24_028,20,Female,2024-02-01_14h20.59.815,jersey_experiment_5,2023.2.2,Win32,84.74576271,,,,,,,,,,,27.4816,59.1885,return,31.6984,,,,,,,,,,,,,,,,,,,,,,,,,,,,,,,,,,,,,,,,,,,,,,,,,,,,,,,,,,,,,,,,
,,,,,WIN24_028,20,Female,2024-02-01_14h20.59.815,jersey_experiment_5,2023.2.2,Win32,84.74576271,,,,,,,,,,,,,,,,59.1959,60.4942,60.4942,81.9774,return,2.6119,,25.13020833,0,0,0,57,1,FBP-PT-19.png,0.4,1.2,58,0.5,,,,,,,,,,,,,,,,,,,,,,,,,,,,,,,,,,,,,,,,,,,,,
,,,,,WIN24_028,20,Female,2024-02-01_14h20.59.815,jersey_experiment_5,2023.2.2,Win32,84.74576271,,,,,,,,,,,,,,,,81.9778,83.7774,83.7775,89.1071,return,0.7478,,75,0,1,1,24,1,FBP-RB-18.png,0.45,1.2,25,1,,,,,,,,,,,,,,,,,,,,,,,,,,,,,,,,,,,,,,,,,,,,,
,,,,,WIN24_028,20,Female,2024-02-01_14h20.59.815,jersey_experiment_5,2023.2.2,Win32,84.74576271,,,,,,,,,,,,,,,,89.1074,90.907,90.907,93.0601,return,0.8744,,11.71875,0,2,2,36,1,FBP-YG-81.png,0.37,1.2,37,1,,,,,,,,,,,,,,,,,,,,,,,,,,,,,,,,,,,,,,,,,,,,,
,,,,,WIN24_028,20,Female,2024-02-01_14h20.59.815,jersey_experiment_5,2023.2.2,Win32,84.74576271,,,,,,,,,,,,,,,,93.0603,94.3542,94.3542,96.6131,return,0.6747,,0.520833333,0,3,3,46,1,FBP-PT-17.png,0.37,1.2,47,0.5,,,,,,,,,,,,,,,,,,,,,,,,,,,,,,,,,,,,,,,,,,,,,
,,,,,WIN24_028,20,Female,2024-02-01_14h20.59.815,jersey_experiment_5,2023.2.2,Win32,84.74576271,,,,,,,,,,,,,,,,96.6134,97.9077,97.9078,150.8773,return,51.7924,,0.260416667,0,4,4,50,1,FBP-PT-18.png,0.35,1.2,51,0.5,,,,,,,,,,,,,,,,,,,,,,,,,,,,,,,,,,,,,,,,,,,,,
,,,,,WIN24_028,20,Female,2024-02-01_14h20.59.815,jersey_experiment_5,2023.2.2,Win32,84.74576271,,,,,,,,,,,,,,,,150.8775,152.1846,152.1846,155.667,return,1.1764,,70.83333333,0,5,5,54,1,FBP-PT-18.png,0.45,1.2,55,0.5,,,,,,,,,,,,,,,,,,,,,,,,,,,,,,,,,,,,,,,,,,,,,
,,,,,WIN24_028,20,Female,2024-02-01_14h20.59.815,jersey_experiment_5,2023.2.2,Win32,84.74576271,,,,,,,,,,,,,,,,155.6671,156.9682,156.9683,159.3721,return,0.4343,,63.80208333,0,6,6,13,1,FBP-OG-91.png,0.43,1.2,14,0.5,,,,,,,,,,,,,,,,,,,,,,,,,,,,,,,,,,,,,,,,,,,,,
,,,,,WIN24_028,20,Female,2024-02-01_14h20.59.815,jersey_experiment_5,2023.2.2,Win32,84.74576271,,,,,,,,,,,,,,,,159.3723,160.6658,160.6658,164.5484,return,2.1991,,74.47916667,0,7,7,8,1,FBP-OG-81.png,0.43,1.2,9,0.5,,,,,,,,,,,,,,,,,,,,,,,,,,,,,,,,,,,,,,,,,,,,,
,,,,,WIN24_028,20,Female,2024-02-01_14h20.59.815,jersey_experiment_5,2023.2.2,Win32,84.74576271,,,,,,,,,,,,,,,,164.5486,165.8424,165.8424,168.727,return,0.5657,,23.828125,0,8,8,56,1,FBP-PT-19.png,0.37,1.2,57,0.5,,,,,,,,,,,,,,,,,,,,,,,,,,,,,,,,,,,,,,,,,,,,,
,,,,,WIN24_028,20,Female,2024-02-01_14h20.59.815,jersey_experiment_5,2023.2.2,Win32,84.74576271,,,,,,,,,,,,,,,,168.7272,170.0306,170.0307,171.5607,return,0.2933,,85.02604167,0,9,9,49,1,FBP-PT-17.png,0.45,1.2,50,0.5,,,,,,,,,,,,,,,,,,,,,,,,,,,,,,,,,,,,,,,,,,,,,
,,,,,WIN24_028,20,Female,2024-02-01_14h20.59.815,jersey_experiment_5,2023.2.2,Win32,84.74576271,,,,,,,,,,,,,,,,171.5608,173.3619,173.3619,175.0901,return,0.9649,,86.84895833,0,10,10,19,1,FBP-RB-17.png,0.45,1.2,20,1,,,,,,,,,,,,,,,,,,,,,,,,,,,,,,,,,,,,,,,,,,,,,
,,,,,WIN24_028,20,Female,2024-02-01_14h20.59.815,jersey_experiment_5,2023.2.2,Win32,84.74576271,,,,,,,,,,,,,,,,175.0903,176.8866,176.8866,178.3101,return,0.6971,,78.515625,0,11,11,43,1,FBP-YG-91.png,0.43,1.2,44,1,,,,,,,,,,,,,,,,,,,,,,,,,,,,,,,,,,,,,,,,,,,,,
,,,,,WIN24_028,20,Female,2024-02-01_14h20.59.815,jersey_experiment_5,2023.2.2,Win32,84.74576271,,,,,,,,,,,,,,,,178.3103,179.6074,179.6074,182.9861,return,0.9548,,42.05729167,0,12,12,2,1,FBP-OG-71.png,0.4,1.2,3,0.5,,,,,,,,,,,,,,,,,,,,,,,,,,,,,,,,,,,,,,,,,,,,,
,,,,,WIN24_028,20,Female,2024-02-01_14h20.59.815,jersey_experiment_5,2023.2.2,Win32,84.74576271,,,,,,,,,,,,,,,,182.9862,184.781,184.7811,186.8282,return,0.8473,,82.421875,0,13,13,28,1,FBP-RB-19.png,0.43,1.2,29,1,,,,,,,,,,,,,,,,,,,,,,,,,,,,,,,,,,,,,,,,,,,,,
,,,,,WIN24_028,20,Female,2024-02-01_14h20.59.815,jersey_experiment_5,2023.2.2,Win32,84.74576271,,,,,,,,,,,,,,,,186.8284,188.1254,188.1254,189.7812,return,0.6968,,1.432291667,0,14,14,5,1,FBP-OG-81.png,0.35,1.2,6,0.5,,,,,,,,,,,,,,,,,,,,,,,,,,,,,,,,,,,,,,,,,,,,,
,,,,,WIN24_028,20,Female,2024-02-01_14h20.59.815,jersey_experiment_5,2023.2.2,Win32,84.74576271,,,,,,,,,,,,,,,,189.7812,191.0752,191.0752,193.316,return,0.5313,,93.48958333,0,15,15,59,1,FBP-PT-19.png,0.45,1.2,60,0.5,,,,,,,,,,,,,,,,,,,,,,,,,,,,,,,,,,,,,,,,,,,,,
,,,,,WIN24_028,20,Female,2024-02-01_14h20.59.815,jersey_experiment_5,2023.2.2,Win32,84.74576271,,,,,,,,,,,,,,,,193.3161,195.1107,195.1107,197.0909,return,0.6588,,25.78125,0,16,16,41,1,FBP-YG-91.png,0.37,1.2,42,1,,,,,,,,,,,,,,,,,,,,,,,,,,,,,,,,,,,,,,,,,,,,,
,,,,,WIN24_028,20,Female,2024-02-01_14h20.59.815,jersey_experiment_5,2023.2.2,Win32,84.74576271,,,,,,,,,,,,,,,,197.0911,198.3845,198.3845,202.5817,return,3.1569,,75.13020833,0,17,17,53,1,FBP-PT-18.png,0.43,1.2,54,0.5,,,,,,,,,,,,,,,,,,,,,,,,,,,,,,,,,,,,,,,,,,,,,
,,,,,WIN24_028,20,Female,2024-02-01_14h20.59.815,jersey_experiment_5,2023.2.2,Win32,84.74576271,,,,,,,,,,,,,,,,202.5818,204.3747,204.3747,206.1631,return,0.5543,,52.08333333,0,18,18,42,1,FBP-YG-91.png,0.4,1.2,43,1,,,,,,,,,,,,,,,,,,,,,,,,,,,,,,,,,,,,,,,,,,,,,
,,,,,WIN24_028,20,Female,2024-02-01_14h20.59.815,jersey_experiment_5,2023.2.2,Win32,84.74576271,,,,,,,,,,,,,,,,206.1633,207.4675,207.4675,209.044,return,0.6929,,84.765625,0,19,19,4,1,FBP-OG-71.png,0.45,1.2,5,0.5,,,,,,,,,,,,,,,,,,,,,,,,,,,,,,,,,,,,,,,,,,,,,
,,,,,WIN24_028,20,Female,2024-02-01_14h20.59.815,jersey_experiment_5,2023.2.2,Win32,84.74576271,,,,,,,,,,,,,,,,209.0442,210.3377,210.3377,211.7819,return,0.5442,,51.04166667,0,20,20,52,1,FBP-PT-18.png,0.4,1.2,53,0.5,,,,,,,,,,,,,,,,,,,,,,,,,,,,,,,,,,,,,,,,,,,,,
,,,,,WIN24_028,20,Female,2024-02-01_14h20.59.815,jersey_experiment_5,2023.2.2,Win32,84.74576271,,,,,,,,,,,,,,,,211.7821,213.5749,213.5749,215.0291,return,0.6498,,89.0625,0,21,21,29,1,FBP-RB-19.png,0.45,1.2,30,1,,,,,,,,,,,,,,,,,,,,,,,,,,,,,,,,,,,,,,,,,,,,,
,,,,,WIN24_028,20,Female,2024-02-01_14h20.59.815,jersey_experiment_5,2023.2.2,Win32,84.74576271,,,,,,,,,,,,,,,,215.0293,216.3234,216.3234,217.6058,return,0.3446,,26.69270833,0,22,22,10,1,FBP-OG-91.png,0.35,1.2,11,0.5,,,,,,,,,,,,,,,,,,,,,,,,,,,,,,,,,,,,,,,,,,,,,
,,,,,WIN24_028,20,Female,2024-02-01_14h20.59.815,jersey_experiment_5,2023.2.2,Win32,84.74576271,,,,,,,,,,,,,,,,217.6061,219.4105,219.4105,220.6683,return,0.552,,6.25,0,23,23,25,1,FBP-RB-19.png,0.35,1.2,26,1,,,,,,,,,,,,,,,,,,,,,,,,,,,,,,,,,,,,,,,,,,,,,
,,,,,WIN24_028,20,Female,2024-02-01_14h20.59.815,jersey_experiment_5,2023.2.2,Win32,84.74576271,,,,,,,,,,,,,,,,220.6684,222.4647,222.4647,223.6225,return,0.5413,,4.817708333,0,24,24,15,1,FBP-RB-17.png,0.35,1.2,16,1,,,,,,,,,,,,,,,,,,,,,,,,,,,,,,,,,,,,,,,,,,,,,
,,,,,WIN24_028,20,Female,2024-02-01_14h20.59.815,jersey_experiment_5,2023.2.2,Win32,84.74576271,,,,,,,,,,,,,,,,223.6227,224.9167,224.9167,228.1944,return,0.5232,,22.00520833,0,25,25,47,1,FBP-PT-17.png,0.4,1.2,48,0.5,,,,,,,,,,,,,,,,,,,,,,,,,,,,,,,,,,,,,,,,,,,,,
,,,,,WIN24_028,20,Female,2024-02-01_14h20.59.815,jersey_experiment_5,2023.2.2,Win32,84.74576271,,,,,,,,,,,,,,,,228.1946,229.4917,229.4917,231.5709,return,0.9108,,0.520833333,0,26,26,45,1,FBP-PT-17.png,0.35,1.2,46,0.5,,,,,,,,,,,,,,,,,,,,,,,,,,,,,,,,,,,,,,,,,,,,,
,,,,,WIN24_028,20,Female,2024-02-01_14h20.59.815,jersey_experiment_5,2023.2.2,Win32,84.74576271,,,,,,,,,,,,,,,,231.5711,233.3742,233.3742,236.5946,return,0.4287,,55.72916667,0,27,27,32,1,FBP-YG-71.png,0.4,1.2,33,1,,,,,,,,,,,,,,,,,,,,,,,,,,,,,,,,,,,,,,,,,,,,,
,,,,,WIN24_028,20,Female,2024-02-01_14h20.59.815,jersey_experiment_5,2023.2.2,Win32,84.74576271,,,,,,,,,,,,,,,,236.5948,237.8923,237.8923,240.4571,return,0.471,,27.99479167,0,28,28,1,1,FBP-OG-71.png,0.37,1.2,2,0.5,,,,,,,,,,,,,,,,,,,,,,,,,,,,,,,,,,,,,,,,,,,,,
,,,,,WIN24_028,20,Female,2024-02-01_14h20.59.815,jersey_experiment_5,2023.2.2,Win32,84.74576271,,,,,,,,,,,,,,,,240.4572,242.2584,242.2584,244.7632,return,0.8004,,20.83333333,0,29,29,21,1,FBP-RB-18.png,0.37,1.2,22,1,,,,,,,,,,,,,,,,,,,,,,,,,,,,,,,,,,,,,,,,,,,,,
,,,,,WIN24_028,20,Female,2024-02-01_14h20.59.815,jersey_experiment_5,2023.2.2,Win32,84.74576271,,,,,,,,,,,,,,,,244.7633,246.5598,246.5598,252.1482,return,3.5225,,72.265625,0,30,30,38,1,FBP-YG-81.png,0.43,1.2,39,1,,,,,,,,,,,,,,,,,,,,,,,,,,,,,,,,,,,,,,,,,,,,,
,,,,,WIN24_028,20,Female,2024-02-01_14h20.59.815,jersey_experiment_5,2023.2.2,Win32,84.74576271,,,,,,,,,,,,,,,,252.1484,253.4424,253.4424,255.1531,return,0.5177,,52.34375,0,31,31,12,1,FBP-OG-91.png,0.4,1.2,13,0.5,,,,,,,,,,,,,,,,,,,,,,,,,,,,,,,,,,,,,,,,,,,,,
,,,,,WIN24_028,20,Female,2024-02-01_14h20.59.815,jersey_experiment_5,2023.2.2,Win32,84.74576271,,,,,,,,,,,,,,,,255.1533,256.4474,256.4474,258.1048,return,0.5754,,87.23958333,0,32,32,9,1,FBP-OG-81.png,0.45,1.2,10,0.5,,,,,,,,,,,,,,,,,,,,,,,,,,,,,,,,,,,,,,,,,,,,,
,,,,,WIN24_028,20,Female,2024-02-01_14h20.59.815,jersey_experiment_5,2023.2.2,Win32,84.74576271,,,,,,,,,,,,,,,,258.1049,259.412,259.412,266.0247,return,3.2142,,55.46875,0,33,33,7,1,FBP-OG-81.png,0.4,1.2,8,0.5,,,,,,,,,,,,,,,,,,,,,,,,,,,,,,,,,,,,,,,,,,,,,
,,,,,WIN24_028,20,Female,2024-02-01_14h20.59.815,jersey_experiment_5,2023.2.2,Win32,84.74576271,,,,,,,,,,,,,,,,266.0248,267.8224,267.8225,269.3657,return,0.2725,,59.765625,0,34,34,33,1,FBP-YG-71.png,0.43,1.2,34,1,,,,,,,,,,,,,,,,,,,,,,,,,,,,,,,,,,,,,,,,,,,,,
,,,,,WIN24_028,20,Female,2024-02-01_14h20.59.815,jersey_experiment_5,2023.2.2,Win32,84.74576271,,,,,,,,,,,,,,,,269.3658,271.1607,271.1607,274.0584,return,0.4108,,29.03645833,0,35,35,40,1,FBP-YG-91.png,0.35,1.2,41,1,,,,,,,,,,,,,,,,,,,,,,,,,,,,,,,,,,,,,,,,,,,,,
,,,,,WIN24_028,20,Female,2024-02-01_14h20.59.815,jersey_experiment_5,2023.2.2,Win32,84.74576271,,,,,,,,,,,,,,,,274.0585,275.8549,275.8549,277.7188,return,0.4472,,21.22395833,0,36,36,20,1,FBP-RB-18.png,0.35,1.2,21,1,,,,,,,,,,,,,,,,,,,,,,,,,,,,,,,,,,,,,,,,,,,,,
,,,,,WIN24_028,20,Female,2024-02-01_14h20.59.815,jersey_experiment_5,2023.2.2,Win32,84.74576271,,,,,,,,,,,,,,,,277.7191,279.0197,279.0197,280.5057,return,0.4238,,12.109375,0,37,37,55,1,FBP-PT-19.png,0.35,1.2,56,0.5,,,,,,,,,,,,,,,,,,,,,,,,,,,,,,,,,,,,,,,,,,,,,
,,,,,WIN24_028,20,Female,2024-02-01_14h20.59.815,jersey_experiment_5,2023.2.2,Win32,84.74576271,,,,,,,,,,,,,,,,280.5059,282.3068,282.3068,284.166,return,0.7532,,76.30208333,0,38,38,39,1,FBP-YG-81.png,0.45,1.2,40,1,,,,,,,,,,,,,,,,,,,,,,,,,,,,,,,,,,,,,,,,,,,,,
,,,,,WIN24_028,20,Female,2024-02-01_14h20.59.815,jersey_experiment_5,2023.2.2,Win32,84.74576271,,,,,,,,,,,,,,,,284.1661,285.4599,285.4599,286.6602,return,0.3897,,86.71875,0,39,39,14,1,FBP-OG-91.png,0.45,1.2,15,0.5,,,,,,,,,,,,,,,,,,,,,,,,,,,,,,,,,,,,,,,,,,,,,
,,,,,WIN24_028,20,Female,2024-02-01_14h20.59.815,jersey_experiment_5,2023.2.2,Win32,84.74576271,,,,,,,,,,,,,,,,286.6603,288.4585,288.4585,289.8234,return,0.3869,,33.33333333,0,40,40,35,1,FBP-YG-81.png,0.35,1.2,36,1,,,,,,,,,,,,,,,,,,,,,,,,,,,,,,,,,,,,,,,,,,,,,
,,,,,WIN24_028,20,Female,2024-02-01_14h20.59.815,jersey_experiment_5,2023.2.2,Win32,84.74576271,,,,,,,,,,,,,,,,289.8235,291.6202,291.6202,292.695,return,0.2229,,57.55208333,0,41,41,17,1,FBP-RB-17.png,0.4,1.2,18,1,,,,,,,,,,,,,,,,,,,,,,,,,,,,,,,,,,,,,,,,,,,,,
,,,,,WIN24_028,20,Female,2024-02-01_14h20.59.815,jersey_experiment_5,2023.2.2,Win32,84.74576271,,,,,,,,,,,,,,,,292.6951,294.4909,294.4909,295.4474,return,0.2695,,63.54166667,0,42,42,23,1,FBP-RB-18.png,0.43,1.2,24,1,,,,,,,,,,,,,,,,,,,,,,,,,,,,,,,,,,,,,,,,,,,,,
,,,,,WIN24_028,20,Female,2024-02-01_14h20.59.815,jersey_experiment_5,2023.2.2,Win32,84.74576271,,,,,,,,,,,,,,,,295.4475,296.7497,296.7498,299.5182,return,0.5284,,65.234375,0,43,43,48,1,FBP-PT-17.png,0.43,1.2,49,0.5,,,,,,,,,,,,,,,,,,,,,,,,,,,,,,,,,,,,,,,,,,,,,
,,,,,WIN24_028,20,Female,2024-02-01_14h20.59.815,jersey_experiment_5,2023.2.2,Win32,84.74576271,,,,,,,,,,,,,,,,299.5183,301.3193,301.3193,302.3078,return,0.1885,,79.42708333,0,44,44,44,1,FBP-YG-91.png,0.45,1.2,45,1,,,,,,,,,,,,,,,,,,,,,,,,,,,,,,,,,,,,,,,,,,,,,
,,,,,WIN24_028,20,Female,2024-02-01_14h20.59.815,jersey_experiment_5,2023.2.2,Win32,84.74576271,,,,,,,,,,,,,,,,302.3081,304.1061,304.1062,305.9384,return,0.735,,30.98958333,0,45,45,30,1,FBP-YG-71.png,0.35,1.2,31,1,,,,,,,,,,,,,,,,,,,,,,,,,,,,,,,,,,,,,,,,,,,,,
,,,,,WIN24_028,20,Female,2024-02-01_14h20.59.815,jersey_experiment_5,2023.2.2,Win32,84.74576271,,,,,,,,,,,,,,,,305.9387,307.2325,307.2325,310.3889,return,1.7518,,6.640625,0,46,46,0,1,FBP-OG-71.png,0.35,1.2,1,0.5,,,,,,,,,,,,,,,,,,,,,,,,,,,,,,,,,,,,,,,,,,,,,
,,,,,WIN24_028,20,Female,2024-02-01_14h20.59.815,jersey_experiment_5,2023.2.2,Win32,84.74576271,,,,,,,,,,,,,,,,310.3891,312.1856,312.1856,314.5068,return,1.365,,71.74479167,0,47,47,34,1,FBP-YG-71.png,0.45,1.2,35,1,,,,,,,,,,,,,,,,,,,,,,,,,,,,,,,,,,,,,,,,,,,,,
,,,,,WIN24_028,20,Female,2024-02-01_14h20.59.815,jersey_experiment_5,2023.2.2,Win32,84.74576271,,,,,,,,,,,,,,,,314.5069,316.3034,316.3034,317.3858,return,0.3059,,63.41145833,0,48,48,37,1,FBP-YG-81.png,0.4,1.2,38,1,,,,,,,,,,,,,,,,,,,,,,,,,,,,,,,,,,,,,,,,,,,,,
,,,,,WIN24_028,20,Female,2024-02-01_14h20.59.815,jersey_experiment_5,2023.2.2,Win32,84.74576271,,,,,,,,,,,,,,,,317.386,318.6799,318.68,320.4266,return,0.5782,,31.51041667,0,49,49,11,1,FBP-OG-91.png,0.37,1.2,12,0.5,,,,,,,,,,,,,,,,,,,,,,,,,,,,,,,,,,,,,,,,,,,,,
,,,,,WIN24_028,20,Female,2024-02-01_14h20.59.815,jersey_experiment_5,2023.2.2,Win32,84.74576271,,,,,,,,,,,,,,,,320.4268,321.7201,321.7201,325.5425,return,0.2458,,22.65625,0,50,50,51,1,FBP-PT-18.png,0.37,1.2,52,0.5,,,,,,,,,,,,,,,,,,,,,,,,,,,,,,,,,,,,,,,,,,,,,
,,,,,WIN24_028,20,Female,2024-02-01_14h20.59.815,jersey_experiment_5,2023.2.2,Win32,84.74576271,,,,,,,,,,,,,,,,325.5427,327.3391,327.3391,329.3213,return,1.1069,,24.609375,0,51,51,16,1,FBP-RB-17.png,0.37,1.2,17,1,,,,,,,,,,,,,,,,,,,,,,,,,,,,,,,,,,,,,,,,,,,,,
,,,,,WIN24_028,20,Female,2024-02-01_14h20.59.815,jersey_experiment_5,2023.2.2,Win32,84.74576271,,,,,,,,,,,,,,,,329.3215,331.1157,331.1157,332.978,return,0.2221,,54.6875,0,52,52,27,1,FBP-RB-19.png,0.4,1.2,28,1,,,,,,,,,,,,,,,,,,,,,,,,,,,,,,,,,,,,,,,,,,,,,
,,,,,WIN24_028,20,Female,2024-02-01_14h20.59.815,jersey_experiment_5,2023.2.2,Win32,84.74576271,,,,,,,,,,,,,,,,332.9781,334.2806,334.2806,335.8487,return,0.1881,,66.27604167,0,53,53,3,1,FBP-OG-71.png,0.43,1.2,4,0.5,,,,,,,,,,,,,,,,,,,,,,,,,,,,,,,,,,,,,,,,,,,,,
,,,,,WIN24_028,20,Female,2024-02-01_14h20.59.815,jersey_experiment_5,2023.2.2,Win32,84.74576271,,,,,,,,,,,,,,,,335.8489,337.6453,337.6454,340.5447,return,1.2605,,35.80729167,0,54,54,26,1,FBP-RB-19.png,0.37,1.2,27,1,,,,,,,,,,,,,,,,,,,,,,,,,,,,,,,,,,,,,,,,,,,,,
,,,,,WIN24_028,20,Female,2024-02-01_14h20.59.815,jersey_experiment_5,2023.2.2,Win32,84.74576271,,,,,,,,,,,,,,,,340.5449,342.3397,342.3397,343.6743,return,0.3431,,51.953125,0,55,55,22,1,FBP-RB-18.png,0.4,1.2,23,1,,,,,,,,,,,,,,,,,,,,,,,,,,,,,,,,,,,,,,,,,,,,,
,,,,,WIN24_028,20,Female,2024-02-01_14h20.59.815,jersey_experiment_5,2023.2.2,Win32,84.74576271,,,,,,,,,,,,,,,,343.6745,345.4693,345.4693,351.4862,return,0.4239,,39.97395833,0,56,56,31,1,FBP-YG-71.png,0.37,1.2,32,1,,,,,,,,,,,,,,,,,,,,,,,,,,,,,,,,,,,,,,,,,,,,,
,,,,,WIN24_028,20,Female,2024-02-01_14h20.59.815,jersey_experiment_5,2023.2.2,Win32,84.74576271,,,,,,,,,,,,,,,,351.4864,352.7872,352.7872,354.498,return,0.3297,,26.30208333,0,57,57,6,1,FBP-OG-81.png,0.37,1.2,7,0.5,,,,,,,,,,,,,,,,,,,,,,,,,,,,,,,,,,,,,,,,,,,,,
,,,,,WIN24_028,20,Female,2024-02-01_14h20.59.815,jersey_experiment_5,2023.2.2,Win32,84.74576271,,,,,,,,,,,,,,,,354.4982,356.2968,356.2968,357.8462,return,0.485,,66.66666667,0,58,58,18,1,FBP-RB-17.png,0.43,1.2,19,1,,,,,,,,,,,,,,,,,,,,,,,,,,,,,,,,,,,,,,,,,,,,,
,,,,,WIN24_028,20,Female,2024-02-01_14h20.59.815,jersey_experiment_5,2023.2.2,Win32,84.74576271,,,,,,,,,,,,,,,,357.8464,359.1403,359.1404,360.4345,return,0.2643,,82.29166667,0,59,59,58,1,FBP-PT-19.png,0.43,1.2,59,0.5,,,,,,,,,,,,,,,,,,,,,,,,,,,,,,,,,,,,,,,,,,,,,
,,,,,WIN24_028,20,Female,2024-02-01_14h20.59.815,jersey_experiment_5,2023.2.2,Win32,84.74576271,,,,,,,,,,,,,,,,360.4366,362.2345,362.2345,363.6514,return,0.6121,,92.578125,,,,,,FBP-RB-71.png,0.45,1.2,20,1,0,0,0,19,1,,,,,,,,,,,,,,,,,,,,,,,,,,,,,,,,,,,,,,,,
,,,,,WIN24_028,20,Female,2024-02-01_14h20.59.815,jersey_experiment_5,2023.2.2,Win32,84.74576271,,,,,,,,,,,,,,,,363.6516,365.4496,365.4496,367.1807,return,0.7295,,97.265625,,,,,,FBP-RB-91.png,0.45,1.2,30,1,0,1,1,29,1,,,,,,,,,,,,,,,,,,,,,,,,,,,,,,,,,,,,,,,,
,,,,,WIN24_028,20,Female,2024-02-01_14h20.59.815,jersey_experiment_5,2023.2.2,Win32,84.74576271,,,,,,,,,,,,,,,,367.1809,368.4854,368.4855,370.6467,return,1.2611,,20.96354167,,,,,,FBP-PT-71.png,0.35,1.2,46,0.5,0,2,2,45,1,,,,,,,,,,,,,,,,,,,,,,,,,,,,,,,,,,,,,,,,
,,,,,WIN24_028,20,Female,2024-02-01_14h20.59.815,jersey_experiment_5,2023.2.2,Win32,84.74576271,,,,,,,,,,,,,,,,370.6469,372.4383,372.4384,374.0232,return,0.5665,,63.02083333,,,,,,FBP-RB-71.png,0.43,1.2,19,1,0,3,3,18,1,,,,,,,,,,,,,,,,,,,,,,,,,,,,,,,,,,,,,,,,
,,,,,WIN24_028,20,Female,2024-02-01_14h20.59.815,jersey_experiment_5,2023.2.2,Win32,84.74576271,,,,,,,,,,,,,,,,374.0234,375.3175,375.3175,377.0585,return,0.1582,,24.609375,,,,,,FBP-OG-18.png,0.37,1.2,7,0.5,0,4,4,6,1,,,,,,,,,,,,,,,,,,,,,,,,,,,,,,,,,,,,,,,,
,,,,,WIN24_028,20,Female,2024-02-01_14h20.59.815,jersey_experiment_5,2023.2.2,Win32,84.74576271,,,,,,,,,,,,,,,,377.0587,378.3527,378.3527,383.8471,return,4.3315,,71.22395833,,,,,,FBP-PT-71.png,0.45,1.2,50,0.5,0,5,5,49,1,,,,,,,,,,,,,,,,,,,,,,,,,,,,,,,,,,,,,,,,
,,,,,WIN24_028,20,Female,2024-02-01_14h20.59.815,jersey_experiment_5,2023.2.2,Win32,84.74576271,,,,,,,,,,,,,,,,383.8473,385.6473,385.6473,389.1449,return,1.6003,,21.61458333,,,,,,FBP-YG-17.png,0.35,1.2,31,1,0,6,6,30,1,,,,,,,,,,,,,,,,,,,,,,,,,,,,,,,,,,,,,,,,
,,,,,WIN24_028,20,Female,2024-02-01_14h20.59.815,jersey_experiment_5,2023.2.2,Win32,84.74576271,,,,,,,,,,,,,,,,389.1451,390.9415,390.9415,392.6746,return,0.212,,31.11979167,,,,,,FBP-YG-18.png,0.37,1.2,37,1,0,7,7,36,1,,,,,,,,,,,,,,,,,,,,,,,,,,,,,,,,,,,,,,,,
,,,,,WIN24_028,20,Female,2024-02-01_14h20.59.815,jersey_experiment_5,2023.2.2,Win32,84.74576271,,,,,,,,,,,,,,,,392.6748,393.9684,393.9684,396.0993,return,0.612,,41.40625,,,,,,FBP-OG-19.png,0.4,1.2,13,0.5,0,8,8,12,1,,,,,,,,,,,,,,,,,,,,,,,,,,,,,,,,,,,,,,,,
,,,,,WIN24_028,20,Female,2024-02-01_14h20.59.815,jersey_experiment_5,2023.2.2,Win32,84.74576271,,,,,,,,,,,,,,,,396.0995,397.3935,397.3935,398.5654,return,0.3439,,64.97395833,,,,,,FBP-OG-17.png,0.43,1.2,4,0.5,0,9,9,3,1,,,,,,,,,,,,,,,,,,,,,,,,,,,,,,,,,,,,,,,,
,,,,,WIN24_028,20,Female,2024-02-01_14h20.59.815,jersey_experiment_5,2023.2.2,Win32,84.74576271,,,,,,,,,,,,,,,,398.5655,400.3686,400.3686,401.6393,return,0.282,,24.73958333,,,,,,FBP-RB-91.png,0.35,1.2,26,1,0,10,10,25,1,,,,,,,,,,,,,,,,,,,,,,,,,,,,,,,,,,,,,,,,
,,,,,WIN24_028,20,Female,2024-02-01_14h20.59.815,jersey_experiment_5,2023.2.2,Win32,84.74576271,,,,,,,,,,,,,,,,401.6395,402.9468,402.9468,405.7068,return,0.3428,,70.703125,,,,,,FBP-PT-81.png,0.45,1.2,55,0.5,0,11,11,54,1,,,,,,,,,,,,,,,,,,,,,,,,,,,,,,,,,,,,,,,,
,,,,,WIN24_028,20,Female,2024-02-01_14h20.59.815,jersey_experiment_5,2023.2.2,Win32,84.74576271,,,,,,,,,,,,,,,,405.707,407.0009,407.0009,408.7117,return,1.0121,,78.515625,,,,,,FBP-OG-19.png,0.43,1.2,14,0.5,0,12,12,13,1,,,,,,,,,,,,,,,,,,,,,,,,,,,,,,,,,,,,,,,,
,,,,,WIN24_028,20,Female,2024-02-01_14h20.59.815,jersey_experiment_5,2023.2.2,Win32,84.74576271,,,,,,,,,,,,,,,,408.7119,410.5101,410.5101,412.3774,return,0.3633,,54.42708333,,,,,,FBP-RB-81.png,0.4,1.2,23,1,0,13,13,22,1,,,,,,,,,,,,,,,,,,,,,,,,,,,,,,,,,,,,,,,,
,,,,,WIN24_028,20,Female,2024-02-01_14h20.59.815,jersey_experiment_5,2023.2.2,Win32,84.74576271,,,,,,,,,,,,,,,,412.3776,414.1706,414.1707,415.9777,return,0.5414,,73.17708333,,,,,,FBP-YG-17.png,0.43,1.2,34,1,0,14,14,33,1,,,,,,,,,,,,,,,,,,,,,,,,,,,,,,,,,,,,,,,,
,,,,,WIN24_028,20,Female,2024-02-01_14h20.59.815,jersey_experiment_5,2023.2.2,Win32,84.74576271,,,,,,,,,,,,,,,,415.978,417.7813,417.7813,419.0522,return,0.5522,,85.9375,,,,,,FBP-RB-81.png,0.45,1.2,25,1,0,15,15,24,1,,,,,,,,,,,,,,,,,,,,,,,,,,,,,,,,,,,,,,,,
,,,,,WIN24_028,20,Female,2024-02-01_14h20.59.815,jersey_experiment_5,2023.2.2,Win32,84.74576271,,,,,,,,,,,,,,,,419.0523,420.853,420.853,423.3816,return,1.4594,,34.89583333,,,,,,FBP-YG-19.png,0.35,1.2,41,1,0,16,16,40,1,,,,,,,,,,,,,,,,,,,,,,,,,,,,,,,,,,,,,,,,
,,,,,WIN24_028,20,Female,2024-02-01_14h20.59.815,jersey_experiment_5,2023.2.2,Win32,84.74576271,,,,,,,,,,,,,,,,423.3817,425.1781,425.1781,429.7241,return,0.3532,,45.96354167,,,,,,FBP-YG-17.png,0.4,1.2,33,1,0,17,17,32,1,,,,,,,,,,,,,,,,,,,,,,,,,,,,,,,,,,,,,,,,
,,,,,WIN24_028,20,Female,2024-02-01_14h20.59.815,jersey_experiment_5,2023.2.2,Win32,84.74576271,,,,,,,,,,,,,,,,429.7244,431.0184,431.0184,432.4539,return,0.2591,,20.703125,,,,,,FBP-OG-19.png,0.35,1.2,11,0.5,0,18,18,10,1,,,,,,,,,,,,,,,,,,,,,,,,,,,,,,,,,,,,,,,,
,,,,,WIN24_028,20,Female,2024-02-01_14h20.59.815,jersey_experiment_5,2023.2.2,Win32,84.74576271,,,,,,,,,,,,,,,,432.4541,434.2491,434.2491,435.2071,return,0.1885,,49.86979167,,,,,,FBP-RB-71.png,0.4,1.2,18,1,0,19,19,17,1,,,,,,,,,,,,,,,,,,,,,,,,,,,,,,,,,,,,,,,,
,,,,,WIN24_028,20,Female,2024-02-01_14h20.59.815,jersey_experiment_5,2023.2.2,Win32,84.74576271,,,,,,,,,,,,,,,,435.2073,436.5009,436.501,439.1232,return,1.4826,,34.765625,,,,,,FBP-PT-91.png,0.37,1.2,57,0.5,0,20,20,56,1,,,,,,,,,,,,,,,,,,,,,,,,,,,,,,,,,,,,,,,,
,,,,,WIN24_028,20,Female,2024-02-01_14h20.59.815,jersey_experiment_5,2023.2.2,Win32,84.74576271,,,,,,,,,,,,,,,,439.1233,440.4304,440.4304,442.9012,return,0.4602,,43.61979167,,,,,,FBP-PT-81.png,0.4,1.2,53,0.5,0,21,21,52,1,,,,,,,,,,,,,,,,,,,,,,,,,,,,,,,,,,,,,,,,
,,,,,WIN24_028,20,Female,2024-02-01_14h20.59.815,jersey_experiment_5,2023.2.2,Win32,84.74576271,,,,,,,,,,,,,,,,442.9013,444.6965,444.6965,446.7156,return,0.2273,,50.390625,,,,,,FBP-RB-71.png,0.37,1.2,17,1,0,22,22,16,1,,,,,,,,,,,,,,,,,,,,,,,,,,,,,,,,,,,,,,,,
,,,,,WIN24_028,20,Female,2024-02-01_14h20.59.815,jersey_experiment_5,2023.2.2,Win32,84.74576271,,,,,,,,,,,,,,,,446.7159,448.0142,448.0142,450.2143,return,0.9679,,44.40104167,,,,,,FBP-OG-19.png,0.37,1.2,12,0.5,0,23,23,11,1,,,,,,,,,,,,,,,,,,,,,,,,,,,,,,,,,,,,,,,,
,,,,,WIN24_028,20,Female,2024-02-01_14h20.59.815,jersey_experiment_5,2023.2.2,Win32,84.74576271,,,,,,,,,,,,,,,,450.2144,452.0073,452.0074,453.4261,return,0.2779,,69.27083333,,,,,,FBP-YG-18.png,0.43,1.2,39,1,0,24,24,38,1,,,,,,,,,,,,,,,,,,,,,,,,,,,,,,,,,,,,,,,,
,,,,,WIN24_028,20,Female,2024-02-01_14h20.59.815,jersey_experiment_5,2023.2.2,Win32,84.74576271,,,,,,,,,,,,,,,,453.4264,455.231,455.231,456.8885,return,0.6692,,31.77083333,,,,,,FBP-YG-18.png,0.35,1.2,36,1,0,25,25,35,1,,,,,,,,,,,,,,,,,,,,,,,,,,,,,,,,,,,,,,,,
,,,,,WIN24_028,20,Female,2024-02-01_14h20.59.815,jersey_experiment_5,2023.2.2,Win32,84.74576271,,,,,,,,,,,,,,,,456.8886,458.6851,458.6851,460.2667,return,0.5179,,86.58854167,,,,,,FBP-YG-18.png,0.45,1.2,40,1,0,26,26,39,1,,,,,,,,,,,,,,,,,,,,,,,,,,,,,,,,,,,,,,,,
,,,,,WIN24_028,20,Female,2024-02-01_14h20.59.815,jersey_experiment_5,2023.2.2,Win32,84.74576271,,,,,,,,,,,,,,,,460.2667,462.0649,462.0649,463.2382,return,0.355,,78.25520833,,,,,,FBP-YG-19.png,0.43,1.2,44,1,0,27,27,43,1,,,,,,,,,,,,,,,,,,,,,,,,,,,,,,,,,,,,,,,,
,,,,,WIN24_028,20,Female,2024-02-01_14h20.59.815,jersey_experiment_5,2023.2.2,Win32,84.74576271,,,,,,,,,,,,,,,,463.2385,464.5325,464.5325,466.8386,return,0.6501,,76.04166667,,,,,,FBP-PT-71.png,0.43,1.2,49,0.5,0,28,28,48,1,,,,,,,,,,,,,,,,,,,,,,,,,,,,,,,,,,,,,,,,
,,,,,WIN24_028,20,Female,2024-02-01_14h20.59.815,jersey_experiment_5,2023.2.2,Win32,84.74576271,,,,,,,,,,,,,,,,466.8389,468.6386,468.6386,471.1796,return,1.5635,,90.625,,,,,,FBP-YG-19.png,0.45,1.2,45,1,0,29,29,44,1,,,,,,,,,,,,,,,,,,,,,,,,,,,,,,,,,,,,,,,,
,,,,,WIN24_028,20,Female,2024-02-01_14h20.59.815,jersey_experiment_5,2023.2.2,Win32,84.74576271,,,,,,,,,,,,,,,,471.1799,472.9729,472.9729,475.6035,return,1.5351,,62.23958333,,,,,,FBP-RB-91.png,0.4,1.2,28,1,0,30,30,27,1,,,,,,,,,,,,,,,,,,,,,,,,,,,,,,,,,,,,,,,,
,,,,,WIN24_028,20,Female,2024-02-01_14h20.59.815,jersey_experiment_5,2023.2.2,Win32,84.74576271,,,,,,,,,,,,,,,,475.6036,476.8976,476.8976,478.5365,return,0.3637,,19.140625,,,,,,FBP-PT-81.png,0.35,1.2,51,0.5,0,31,31,50,1,,,,,,,,,,,,,,,,,,,,,,,,,,,,,,,,,,,,,,,,
,,,,,WIN24_028,20,Female,2024-02-01_14h20.59.815,jersey_experiment_5,2023.2.2,Win32,84.74576271,,,,,,,,,,,,,,,,478.5366,479.8431,479.8432,481.4272,return,0.6534,,36.45833333,,,,,,FBP-PT-71.png,0.4,1.2,48,0.5,0,32,32,47,1,,,,,,,,,,,,,,,,,,,,,,,,,,,,,,,,,,,,,,,,
,,,,,WIN24_028,20,Female,2024-02-01_14h20.59.815,jersey_experiment_5,2023.2.2,Win32,84.74576271,,,,,,,,,,,,,,,,481.4274,482.7214,482.7214,484.4089,return,0.7534,,15.625,,,,,,FBP-PT-91.png,0.35,1.2,56,0.5,0,33,33,55,1,,,,,,,,,,,,,,,,,,,,,,,,,,,,,,,,,,,,,,,,
,,,,,WIN24_028,20,Female,2024-02-01_14h20.59.815,jersey_experiment_5,2023.2.2,Win32,84.74576271,,,,,,,,,,,,,,,,484.409,485.7096,485.7098,487.9217,return,0.4898,,31.90104167,,,,,,FBP-PT-91.png,0.4,1.2,58,0.5,0,34,34,57,1,,,,,,,,,,,,,,,,,,,,,,,,,,,,,,,,,,,,,,,,
,,,,,WIN24_028,20,Female,2024-02-01_14h20.59.815,jersey_experiment_5,2023.2.2,Win32,84.74576271,,,,,,,,,,,,,,,,487.9219,489.2191,489.2191,491.3132,return,1.0355,,43.88020833,,,,,,FBP-OG-18.png,0.4,1.2,8,0.5,0,35,35,7,1,,,,,,,,,,,,,,,,,,,,,,,,,,,,,,,,,,,,,,,,
,,,,,WIN24_028,20,Female,2024-02-01_14h20.59.815,jersey_experiment_5,2023.2.2,Win32,84.74576271,,,,,,,,,,,,,,,,491.3134,492.6157,492.6157,494.1502,return,0.4945,,70.57291667,,,,,,FBP-OG-19.png,0.45,1.2,15,0.5,0,36,36,14,1,,,,,,,,,,,,,,,,,,,,,,,,,,,,,,,,,,,,,,,,
,,,,,WIN24_028,20,Female,2024-02-01_14h20.59.815,jersey_experiment_5,2023.2.2,Win32,84.74576271,,,,,,,,,,,,,,,,494.1504,495.9454,495.9454,501.428,return,0.3571,,53.25520833,,,,,,FBP-YG-18.png,0.4,1.2,38,1,0,37,37,37,1,,,,,,,,,,,,,,,,,,,,,,,,,,,,,,,,,,,,,,,,
,,,,,WIN24_028,20,Female,2024-02-01_14h20.59.815,jersey_experiment_5,2023.2.2,Win32,84.74576271,,,,,,,,,,,,,,,,501.4281,503.2199,503.2199,506.4329,return,0.3898,,32.8125,,,,,,FBP-RB-71.png,0.35,1.2,16,1,0,38,38,15,1,,,,,,,,,,,,,,,,,,,,,,,,,,,,,,,,,,,,,,,,
,,,,,WIN24_028,20,Female,2024-02-01_14h20.59.815,jersey_experiment_5,2023.2.2,Win32,84.74576271,,,,,,,,,,,,,,,,506.4331,508.2282,508.2282,509.8164,return,0.5062,,77.99479167,,,,,,FBP-RB-91.png,0.43,1.2,29,1,0,39,39,28,1,,,,,,,,,,,,,,,,,,,,,,,,,,,,,,,,,,,,,,,,
,,,,,WIN24_028,20,Female,2024-02-01_14h20.59.815,jersey_experiment_5,2023.2.2,Win32,84.74576271,,,,,,,,,,,,,,,,509.8165,511.6094,511.6095,516.7262,return,0.353,,42.83854167,,,,,,FBP-YG-19.png,0.37,1.2,42,1,0,40,40,41,1,,,,,,,,,,,,,,,,,,,,,,,,,,,,,,,,,,,,,,,,
,,,,,WIN24_028,20,Female,2024-02-01_14h20.59.815,jersey_experiment_5,2023.2.2,Win32,84.74576271,,,,,,,,,,,,,,,,516.7264,518.0201,518.0201,520.4201,return,1.4827,,67.1875,,,,,,FBP-PT-81.png,0.43,1.2,54,0.5,0,41,41,53,1,,,,,,,,,,,,,,,,,,,,,,,,,,,,,,,,,,,,,,,,
,,,,,WIN24_028,20,Female,2024-02-01_14h20.59.815,jersey_experiment_5,2023.2.2,Win32,84.74576271,,,,,,,,,,,,,,,,520.4203,521.714,521.714,523.4218,return,0.813,,32.94270833,,,,,,FBP-OG-17.png,0.37,1.2,2,0.5,0,42,42,1,1,,,,,,,,,,,,,,,,,,,,,,,,,,,,,,,,,,,,,,,,
,,,,,WIN24_028,20,Female,2024-02-01_14h20.59.815,jersey_experiment_5,2023.2.2,Win32,84.74576271,,,,,,,,,,,,,,,,523.422,524.723,524.723,525.8454,return,0.2355,,21.09375,,,,,,FBP-PT-71.png,0.37,1.2,47,0.5,0,43,43,46,1,,,,,,,,,,,,,,,,,,,,,,,,,,,,,,,,,,,,,,,,
,,,,,WIN24_028,20,Female,2024-02-01_14h20.59.815,jersey_experiment_5,2023.2.2,Win32,84.74576271,,,,,,,,,,,,,,,,525.8456,527.1396,527.1396,528.8996,return,1.041,,9.114583333,,,,,,FBP-OG-18.png,0.35,1.2,6,0.5,0,44,44,5,1,,,,,,,,,,,,,,,,,,,,,,,,,,,,,,,,,,,,,,,,
,,,,,WIN24_028,20,Female,2024-02-01_14h20.59.815,jersey_experiment_5,2023.2.2,Win32,84.74576271,,,,,,,,,,,,,,,,528.8998,530.1936,530.1936,532.6928,return,1.5666,,49.47916667,,,,,,FBP-OG-17.png,0.4,1.2,3,0.5,0,45,45,2,1,,,,,,,,,,,,,,,,,,,,,,,,,,,,,,,,,,,,,,,,
,,,,,WIN24_028,20,Female,2024-02-01_14h20.59.815,jersey_experiment_5,2023.2.2,Win32,84.74576271,,,,,,,,,,,,,,,,532.693,534.4881,534.4881,536.599,return,1.1661,,65.88541667,,,,,,FBP-YG-19.png,0.4,1.2,43,1,0,46,46,42,1,,,,,,,,,,,,,,,,,,,,,,,,,,,,,,,,,,,,,,,,
,,,,,WIN24_028,20,Female,2024-02-01_14h20.59.815,jersey_experiment_5,2023.2.2,Win32,84.74576271,,,,,,,,,,,,,,,,536.5991,537.8931,537.8931,540.1705,return,0.5991,,93.09895833,,,,,,FBP-OG-18.png,0.45,1.2,10,0.5,0,47,47,9,1,,,,,,,,,,,,,,,,,,,,,,,,,,,,,,,,,,,,,,,,
,,,,,WIN24_028,20,Female,2024-02-01_14h20.59.815,jersey_experiment_5,2023.2.2,Win32,84.74576271,,,,,,,,,,,,,,,,540.1708,541.4647,541.4648,542.853,return,0.4853,,92.578125,,,,,,FBP-OG-17.png,0.45,1.2,5,0.5,0,48,48,4,1,,,,,,,,,,,,,,,,,,,,,,,,,,,,,,,,,,,,,,,,
,,,,,WIN24_028,20,Female,2024-02-01_14h20.59.815,jersey_experiment_5,2023.2.2,Win32,84.74576271,,,,,,,,,,,,,,,,542.8531,544.6565,544.6565,545.7992,return,0.3769,,92.578125,,,,,,FBP-RB-81.png,0.43,1.2,24,1,0,49,49,23,1,,,,,,,,,,,,,,,,,,,,,,,,,,,,,,,,,,,,,,,,
,,,,,WIN24_028,20,Female,2024-02-01_14h20.59.815,jersey_experiment_5,2023.2.2,Win32,84.74576271,,,,,,,,,,,,,,,,545.7994,547.0929,547.0929,548.9525,return,0.5415,,89.0625,,,,,,FBP-OG-18.png,0.43,1.2,9,0.5,0,50,50,8,1,,,,,,,,,,,,,,,,,,,,,,,,,,,,,,,,,,,,,,,,
,,,,,WIN24_028,20,Female,2024-02-01_14h20.59.815,jersey_experiment_5,2023.2.2,Win32,84.74576271,,,,,,,,,,,,,,,,548.9526,550.2537,550.2537,553.7005,return,0.1106,,25.26041667,,,,,,FBP-OG-17.png,0.35,1.2,1,0.5,0,51,51,0,1,,,,,,,,,,,,,,,,,,,,,,,,,,,,,,,,,,,,,,,,
,,,,,WIN24_028,20,Female,2024-02-01_14h20.59.815,jersey_experiment_5,2023.2.2,Win32,84.74576271,,,,,,,,,,,,,,,,553.7006,554.9945,554.9945,556.1946,return,0.2895,,64.58333333,,,,,,FBP-PT-91.png,0.43,1.2,59,0.5,0,52,52,58,1,,,,,,,,,,,,,,,,,,,,,,,,,,,,,,,,,,,,,,,,
,,,,,WIN24_028,20,Female,2024-02-01_14h20.59.815,jersey_experiment_5,2023.2.2,Win32,84.74576271,,,,,,,,,,,,,,,,556.1949,557.9982,557.9982,559.9243,return,1.2511,,82.94270833,,,,,,FBP-YG-17.png,0.45,1.2,35,1,0,53,53,34,1,,,,,,,,,,,,,,,,,,,,,,,,,,,,,,,,,,,,,,,,
,,,,,WIN24_028,20,Female,2024-02-01_14h20.59.815,jersey_experiment_5,2023.2.2,Win32,84.74576271,,,,,,,,,,,,,,,,559.9244,561.2185,561.2185,562.3126,return,0.3173,,89.71354167,,,,,,FBP-PT-91.png,0.45,1.2,60,0.5,0,54,54,59,1,,,,,,,,,,,,,,,,,,,,,,,,,,,,,,,,,,,,,,,,
,,,,,WIN24_028,20,Female,2024-02-01_14h20.59.815,jersey_experiment_5,2023.2.2,Win32,84.74576271,,,,,,,,,,,,,,,,562.3126,564.1126,564.1126,565.8186,return,0.7401,,32.29166667,,,,,,FBP-YG-17.png,0.37,1.2,32,1,0,55,55,31,1,,,,,,,,,,,,,,,,,,,,,,,,,,,,,,,,,,,,,,,,
,,,,,WIN24_028,20,Female,2024-02-01_14h20.59.815,jersey_experiment_5,2023.2.2,Win32,84.74576271,,,,,,,,,,,,,,,,565.8188,567.1127,567.1127,568.2891,return,0.2779,,19.01041667,,,,,,FBP-PT-81.png,0.37,1.2,52,0.5,0,56,56,51,1,,,,,,,,,,,,,,,,,,,,,,,,,,,,,,,,,,,,,,,,
,,,,,WIN24_028,20,Female,2024-02-01_14h20.59.815,jersey_experiment_5,2023.2.2,Win32,84.74576271,,,,,,,,,,,,,,,,568.2892,570.0893,570.0894,570.9952,return,0.3121,,7.8125,,,,,,FBP-RB-81.png,0.35,1.2,21,1,0,57,57,20,1,,,,,,,,,,,,,,,,,,,,,,,,,,,,,,,,,,,,,,,,
,,,,,WIN24_028,20,Female,2024-02-01_14h20.59.815,jersey_experiment_5,2023.2.2,Win32,84.74576271,,,,,,,,,,,,,,,,570.9954,572.7986,572.7986,573.706,return,0.306,,6.640625,,,,,,FBP-RB-91.png,0.37,1.2,27,1,0,58,58,26,1,,,,,,,,,,,,,,,,,,,,,,,,,,,,,,,,,,,,,,,,
,,,,,WIN24_028,20,Female,2024-02-01_14h20.59.815,jersey_experiment_5,2023.2.2,Win32,84.74576271,,,,,,,,,,,,,,,,573.7062,575.5013,575.5013,577.1049,return,0.246,,36.328125,,,,,,FBP-RB-81.png,0.37,1.2,22,1,0,59,59,21,1,,,,,,,,,,,,,,,,,,,,,,,,,,,,,,,,,,,,,,,,
,,,,,WIN24_028,20,Female,2024-02-01_14h20.59.815,jersey_experiment_5,2023.2.2,Win32,84.74576271,,,,,,,,,,,,,,,,,,,,,,,,,,,,,,,,,,,,,,,577.1052,697.1061,,,,,,,,,,,,,,,,,,,,,,,,,,,,,,,,,,,,,,
,,,,,WIN24_028,20,Female,2024-02-01_14h20.59.815,jersey_experiment_5,2023.2.2,Win32,84.74576271,,,,,,,,,,,,,,,,,,,,,,,,,,,,,,,,,,,,,,,,,697.1061,699.5699,return,2.4474,,,,,,,,,,,,,,,,,,,,,,,,,,,,,,,,,,
,,,,,WIN24_028,20,Female,2024-02-01_14h20.59.815,jersey_experiment_5,2023.2.2,Win32,84.74576271,,,,,,,,,,,,,,,,699.5761,700.8707,700.8707,707.6982,return,5.6244,,69.79166667,,,,,,FBP-YG-71.png,0.45,1.2,35,0.5,,,,,,,,,,,,,0,0,0,34,1,,,,,,,,,,,,,,,,,,,,,,,,,,,,
,,,,,WIN24_028,20,Female,2024-02-01_14h20.59.815,jersey_experiment_5,2023.2.2,Win32,84.74576271,,,,,,,,,,,,,,,,707.7029,709.4992,709.4992,711.5534,return,0.9137,,54.81770833,,,,,,FBP-PT-18.png,0.4,1.2,53,1,,,,,,,,,,,,,0,1,1,52,1,,,,,,,,,,,,,,,,,,,,,,,,,,,,
,,,,,WIN24_028,20,Female,2024-02-01_14h20.59.815,jersey_experiment_5,2023.2.2,Win32,84.74576271,,,,,,,,,,,,,,,,711.5536,713.3535,713.3536,715.0475,return,0.2845,,19.66145833,,,,,,FBP-OG-91.png,0.35,1.2,11,1,,,,,,,,,,,,,0,2,2,10,1,,,,,,,,,,,,,,,,,,,,,,,,,,,,
,,,,,WIN24_028,20,Female,2024-02-01_14h20.59.815,jersey_experiment_5,2023.2.2,Win32,84.74576271,,,,,,,,,,,,,,,,715.0476,716.3465,716.3465,717.288,return,0.2355,,19.01041667,,,,,,FBP-YG-91.png,0.37,1.2,42,0.5,,,,,,,,,,,,,0,3,3,41,1,,,,,,,,,,,,,,,,,,,,,,,,,,,,
,,,,,WIN24_028,20,Female,2024-02-01_14h20.59.815,jersey_experiment_5,2023.2.2,Win32,84.74576271,,,,,,,,,,,,,,,,717.2881,719.0863,719.0863,720.2478,return,0.2476,,78.64583333,,,,,,FBP-PT-18.png,0.43,1.2,54,1,,,,,,,,,,,,,0,4,4,53,1,,,,,,,,,,,,,,,,,,,,,,,,,,,,
,,,,,WIN24_028,20,Female,2024-02-01_14h20.59.815,jersey_experiment_5,2023.2.2,Win32,84.74576271,,,,,,,,,,,,,,,,720.2481,722.0409,722.0409,723.4008,return,0.6602,,57.68229167,,,,,,FBP-OG-81.png,0.4,1.2,8,1,,,,,,,,,,,,,0,5,5,7,1,,,,,,,,,,,,,,,,,,,,,,,,,,,,
,,,,,WIN24_028,20,Female,2024-02-01_14h20.59.815,jersey_experiment_5,2023.2.2,Win32,84.74576271,,,,,,,,,,,,,,,,723.4009,725.2043,725.2043,726.6766,return,0.9077,,82.8125,,,,,,FBP-OG-81.png,0.43,1.2,9,1,,,,,,,,,,,,,0,6,6,8,1,,,,,,,,,,,,,,,,,,,,,,,,,,,,
,,,,,WIN24_028,20,Female,2024-02-01_14h20.59.815,jersey_experiment_5,2023.2.2,Win32,84.74576271,,,,,,,,,,,,,,,,726.6768,727.9707,727.9707,729.2833,return,0.2284,,93.09895833,,,,,,FBP-RB-19.png,0.43,1.2,29,0.5,,,,,,,,,,,,,0,7,7,28,1,,,,,,,,,,,,,,,,,,,,,,,,,,,,
,,,,,WIN24_028,20,Female,2024-02-01_14h20.59.815,jersey_experiment_5,2023.2.2,Win32,84.74576271,,,,,,,,,,,,,,,,729.2836,730.5776,730.5776,733.0403,return,0.505,,99.47916667,,,,,,FBP-YG-91.png,0.45,1.2,45,0.5,,,,,,,,,,,,,0,8,8,44,1,,,,,,,,,,,,,,,,,,,,,,,,,,,,
,,,,,WIN24_028,20,Female,2024-02-01_14h20.59.815,jersey_experiment_5,2023.2.2,Win32,84.74576271,,,,,,,,,,,,,,,,733.0405,734.3474,734.3475,735.6523,return,0.2702,,31.90104167,,,,,,FBP-YG-71.png,0.37,1.2,32,0.5,,,,,,,,,,,,,0,9,9,31,1,,,,,,,,,,,,,,,,,,,,,,,,,,,,
,,,,,WIN24_028,20,Female,2024-02-01_14h20.59.815,jersey_experiment_5,2023.2.2,Win32,84.74576271,,,,,,,,,,,,,,,,735.6525,737.4486,737.4486,738.7073,return,0.6637,,30.72916667,,,,,,FBP-OG-71.png,0.37,1.2,2,1,,,,,,,,,,,,,0,10,10,1,1,,,,,,,,,,,,,,,,,,,,,,,,,,,,
,,,,,WIN24_028,20,Female,2024-02-01_14h20.59.815,jersey_experiment_5,2023.2.2,Win32,84.74576271,,,,,,,,,,,,,,,,738.7074,740.0015,740.0015,741.1241,return,0.3297,,51.43229167,,,,,,FBP-RB-17.png,0.4,1.2,18,0.5,,,,,,,,,,,,,0,11,11,17,1,,,,,,,,,,,,,,,,,,,,,,,,,,,,
,,,,,WIN24_028,20,Female,2024-02-01_14h20.59.815,jersey_experiment_5,2023.2.2,Win32,84.74576271,,,,,,,,,,,,,,,,741.1243,742.4181,742.4181,743.6521,return,0.2355,,31.38020833,,,,,,FBP-RB-17.png,0.35,1.2,16,0.5,,,,,,,,,,,,,0,12,12,15,1,,,,,,,,,,,,,,,,,,,,,,,,,,,,
,,,,,WIN24_028,20,Female,2024-02-01_14h20.59.815,jersey_experiment_5,2023.2.2,Win32,84.74576271,,,,,,,,,,,,,,,,743.6523,745.4533,745.4534,746.8051,return,0.2827,,24.47916667,,,,,,FBP-PT-18.png,0.37,1.2,52,1,,,,,,,,,,,,,0,13,13,51,1,,,,,,,,,,,,,,,,,,,,,,,,,,,,
,,,,,WIN24_028,20,Female,2024-02-01_14h20.59.815,jersey_experiment_5,2023.2.2,Win32,84.74576271,,,,,,,,,,,,,,,,746.8053,748.6068,748.6068,749.689,return,0.2591,,88.93229167,,,,,,FBP-PT-17.png,0.45,1.2,50,1,,,,,,,,,,,,,0,14,14,49,1,,,,,,,,,,,,,,,,,,,,,,,,,,,,
,,,,,WIN24_028,20,Female,2024-02-01_14h20.59.815,jersey_experiment_5,2023.2.2,Win32,84.74576271,,,,,,,,,,,,,,,,749.6892,750.9901,750.9901,752.5937,return,0.9518,,92.70833333,,,,,,FBP-YG-91.png,0.43,1.2,44,0.5,,,,,,,,,,,,,0,15,15,43,1,,,,,,,,,,,,,,,,,,,,,,,,,,,,
,,,,,WIN24_028,20,Female,2024-02-01_14h20.59.815,jersey_experiment_5,2023.2.2,Win32,84.74576271,,,,,,,,,,,,,,,,752.5938,754.3951,754.3951,755.4779,return,0.1786,,66.40625,,,,,,FBP-OG-91.png,0.4,1.2,13,1,,,,,,,,,,,,,0,16,16,12,1,,,,,,,,,,,,,,,,,,,,,,,,,,,,
,,,,,WIN24_028,20,Female,2024-02-01_14h20.59.815,jersey_experiment_5,2023.2.2,Win32,84.74576271,,,,,,,,,,,,,,,,755.478,756.7721,756.7721,758.5365,return,0.3062,,94.921875,,,,,,FBP-YG-71.png,0.43,1.2,34,0.5,,,,,,,,,,,,,0,17,17,33,1,,,,,,,,,,,,,,,,,,,,,,,,,,,,
,,,,,WIN24_028,20,Female,2024-02-01_14h20.59.815,jersey_experiment_5,2023.2.2,Win32,84.74576271,,,,,,,,,,,,,,,,758.5367,759.8409,759.8409,761.6058,return,0.565,,98.69791667,,,,,,FBP-RB-18.png,0.45,1.2,25,0.5,,,,,,,,,,,,,0,18,18,24,1,,,,,,,,,,,,,,,,,,,,,,,,,,,,
,,,,,WIN24_028,20,Female,2024-02-01_14h20.59.815,jersey_experiment_5,2023.2.2,Win32,84.74576271,,,,,,,,,,,,,,,,761.6059,762.8996,762.8996,764.6647,return,0.2225,,43.75,,,,,,FBP-RB-18.png,0.37,1.2,22,0.5,,,,,,,,,,,,,0,19,19,21,1,,,,,,,,,,,,,,,,,,,,,,,,,,,,
,,,,,WIN24_028,20,Female,2024-02-01_14h20.59.815,jersey_experiment_5,2023.2.2,Win32,84.74576271,,,,,,,,,,,,,,,,764.6649,766.4661,766.4661,767.5721,return,0.4241,,18.88020833,,,,,,FBP-PT-17.png,0.37,1.2,47,1,,,,,,,,,,,,,0,20,20,46,1,,,,,,,,,,,,,,,,,,,,,,,,,,,,
,,,,,WIN24_028,20,Female,2024-02-01_14h20.59.815,jersey_experiment_5,2023.2.2,Win32,84.74576271,,,,,,,,,,,,,,,,767.5723,769.3707,769.3707,772.4431,return,1.7072,,64.58333333,,,,,,FBP-PT-17.png,0.43,1.2,49,1,,,,,,,,,,,,,0,21,21,48,1,,,,,,,,,,,,,,,,,,,,,,,,,,,,
,,,,,WIN24_028,20,Female,2024-02-01_14h20.59.815,jersey_experiment_5,2023.2.2,Win32,84.74576271,,,,,,,,,,,,,,,,772.4432,774.2412,774.2413,775.112,return,0.1988,,83.33333333,,,,,,FBP-PT-18.png,0.45,1.2,55,1,,,,,,,,,,,,,0,22,22,54,1,,,,,,,,,,,,,,,,,,,,,,,,,,,,
,,,,,WIN24_028,20,Female,2024-02-01_14h20.59.815,jersey_experiment_5,2023.2.2,Win32,84.74576271,,,,,,,,,,,,,,,,775.1122,776.9134,776.9135,777.9486,return,0.2351,,81.51041667,,,,,,FBP-OG-81.png,0.45,1.2,10,1,,,,,,,,,,,,,0,23,23,9,1,,,,,,,,,,,,,,,,,,,,,,,,,,,,
,,,,,WIN24_028,20,Female,2024-02-01_14h20.59.815,jersey_experiment_5,2023.2.2,Win32,84.74576271,,,,,,,,,,,,,,,,777.9487,779.2501,779.2501,780.5709,return,0.3765,,19.27083333,,,,,,FBP-RB-19.png,0.35,1.2,26,0.5,,,,,,,,,,,,,0,24,24,25,1,,,,,,,,,,,,,,,,,,,,,,,,,,,,
,,,,,WIN24_028,20,Female,2024-02-01_14h20.59.815,jersey_experiment_5,2023.2.2,Win32,84.74576271,,,,,,,,,,,,,,,,780.5711,781.8653,781.8653,785.3376,return,2.4947,,50.78125,,,,,,FBP-RB-19.png,0.4,1.2,28,0.5,,,,,,,,,,,,,0,25,25,27,1,,,,,,,,,,,,,,,,,,,,,,,,,,,,
,,,,,WIN24_028,20,Female,2024-02-01_14h20.59.815,jersey_experiment_5,2023.2.2,Win32,84.74576271,,,,,,,,,,,,,,,,785.3378,786.6316,786.6316,789.0422,return,0.212,,72.52604167,,,,,,FBP-RB-18.png,0.43,1.2,24,0.5,,,,,,,,,,,,,0,26,26,23,1,,,,,,,,,,,,,,,,,,,,,,,,,,,,
,,,,,WIN24_028,20,Female,2024-02-01_14h20.59.815,jersey_experiment_5,2023.2.2,Win32,84.74576271,,,,,,,,,,,,,,,,789.0424,790.8388,790.8388,792.0506,return,0.3951,,16.40625,,,,,,FBP-PT-18.png,0.35,1.2,51,1,,,,,,,,,,,,,0,27,27,50,1,,,,,,,,,,,,,,,,,,,,,,,,,,,,
,,,,,WIN24_028,20,Female,2024-02-01_14h20.59.815,jersey_experiment_5,2023.2.2,Win32,84.74576271,,,,,,,,,,,,,,,,792.0508,793.3447,793.3447,795.1918,return,0.3183,,79.03645833,,,,,,FBP-YG-81.png,0.45,1.2,40,0.5,,,,,,,,,,,,,0,28,28,39,1,,,,,,,,,,,,,,,,,,,,,,,,,,,,
,,,,,WIN24_028,20,Female,2024-02-01_14h20.59.815,jersey_experiment_5,2023.2.2,Win32,84.74576271,,,,,,,,,,,,,,,,795.192,796.4859,796.4859,797.4321,return,0.235,,86.71875,,,,,,FBP-RB-17.png,0.45,1.2,20,0.5,,,,,,,,,,,,,0,29,29,19,1,,,,,,,,,,,,,,,,,,,,,,,,,,,,
,,,,,WIN24_028,20,Female,2024-02-01_14h20.59.815,jersey_experiment_5,2023.2.2,Win32,84.74576271,,,,,,,,,,,,,,,,797.4323,798.7261,798.7261,800.792,return,0.8487,,78.25520833,,,,,,FBP-RB-17.png,0.43,1.2,19,0.5,,,,,,,,,,,,,0,30,30,18,1,,,,,,,,,,,,,,,,,,,,,,,,,,,,
,,,,,WIN24_028,20,Female,2024-02-01_14h20.59.815,jersey_experiment_5,2023.2.2,Win32,84.74576271,,,,,,,,,,,,,,,,800.7923,802.0908,802.0908,803.0896,return,0.2592,,76.953125,,,,,,FBP-YG-81.png,0.43,1.2,39,0.5,,,,,,,,,,,,,0,31,31,38,1,,,,,,,,,,,,,,,,,,,,,,,,,,,,
,,,,,WIN24_028,20,Female,2024-02-01_14h20.59.815,jersey_experiment_5,2023.2.2,Win32,84.74576271,,,,,,,,,,,,,,,,803.0897,804.8908,804.8908,806.1957,return,0.1179,,22.13541667,,,,,,FBP-OG-81.png,0.35,1.2,6,1,,,,,,,,,,,,,0,32,32,5,1,,,,,,,,,,,,,,,,,,,,,,,,,,,,
,,,,,WIN24_028,20,Female,2024-02-01_14h20.59.815,jersey_experiment_5,2023.2.2,Win32,84.74576271,,,,,,,,,,,,,,,,806.1958,807.9975,807.9975,809.9843,return,0.8815,,54.94791667,,,,,,FBP-OG-71.png,0.43,1.2,4,1,,,,,,,,,,,,,0,33,33,3,1,,,,,,,,,,,,,,,,,,,,,,,,,,,,
,,,,,WIN24_028,20,Female,2024-02-01_14h20.59.815,jersey_experiment_5,2023.2.2,Win32,84.74576271,,,,,,,,,,,,,,,,809.9844,811.7853,811.7853,812.5453,return,0.0537,,28.125,,,,,,FBP-OG-71.png,0.35,1.2,1,1,,,,,,,,,,,,,0,34,34,0,1,,,,,,,,,,,,,,,,,,,,,,,,,,,,
,,,,,WIN24_028,20,Female,2024-02-01_14h20.59.815,jersey_experiment_5,2023.2.2,Win32,84.74576271,,,,,,,,,,,,,,,,812.5456,813.8396,813.8397,817.161,return,2.2925,,66.66666667,,,,,,FBP-RB-18.png,0.4,1.2,23,0.5,,,,,,,,,,,,,0,35,35,22,1,,,,,,,,,,,,,,,,,,,,,,,,,,,,
,,,,,WIN24_028,20,Female,2024-02-01_14h20.59.815,jersey_experiment_5,2023.2.2,Win32,84.74576271,,,,,,,,,,,,,,,,817.1611,818.9574,818.9575,819.9574,return,0.2276,,70.05208333,,,,,,FBP-PT-19.png,0.43,1.2,59,1,,,,,,,,,,,,,0,36,36,58,1,,,,,,,,,,,,,,,,,,,,,,,,,,,,
,,,,,WIN24_028,20,Female,2024-02-01_14h20.59.815,jersey_experiment_5,2023.2.2,Win32,84.74576271,,,,,,,,,,,,,,,,819.9576,821.255,821.255,822.808,return,0.5048,,58.72395833,,,,,,FBP-YG-81.png,0.4,1.2,38,0.5,,,,,,,,,,,,,0,37,37,37,1,,,,,,,,,,,,,,,,,,,,,,,,,,,,
,,,,,WIN24_028,20,Female,2024-02-01_14h20.59.815,jersey_experiment_5,2023.2.2,Win32,84.74576271,,,,,,,,,,,,,,,,822.8082,824.1152,824.1152,826.0919,return,1.2944,,33.33333333,,,,,,FBP-YG-71.png,0.35,1.2,31,0.5,,,,,,,,,,,,,0,38,38,30,1,,,,,,,,,,,,,,,,,,,,,,,,,,,,
,,,,,WIN24_028,20,Female,2024-02-01_14h20.59.815,jersey_experiment_5,2023.2.2,Win32,84.74576271,,,,,,,,,,,,,,,,826.092,827.8906,827.8906,828.7981,return,0.3427,,31.11979167,,,,,,FBP-OG-81.png,0.37,1.2,7,1,,,,,,,,,,,,,0,39,39,6,1,,,,,,,,,,,,,,,,,,,,,,,,,,,,
,,,,,WIN24_028,20,Female,2024-02-01_14h20.59.815,jersey_experiment_5,2023.2.2,Win32,84.74576271,,,,,,,,,,,,,,,,828.7983,830.5963,830.5963,831.6554,return,0.5646,,50.13020833,,,,,,FBP-OG-71.png,0.4,1.2,3,1,,,,,,,,,,,,,0,40,40,2,1,,,,,,,,,,,,,,,,,,,,,,,,,,,,
,,,,,WIN24_028,20,Female,2024-02-01_14h20.59.815,jersey_experiment_5,2023.2.2,Win32,84.74576271,,,,,,,,,,,,,,,,831.6555,832.9579,832.9579,834.1159,return,0.2357,,25.65104167,,,,,,FBP-YG-81.png,0.35,1.2,36,0.5,,,,,,,,,,,,,0,41,41,35,1,,,,,,,,,,,,,,,,,,,,,,,,,,,,
,,,,,WIN24_028,20,Female,2024-02-01_14h20.59.815,jersey_experiment_5,2023.2.2,Win32,84.74576271,,,,,,,,,,,,,,,,834.116,835.9142,835.9142,837.1615,return,0.2826,,70.83333333,,,,,,FBP-OG-71.png,0.45,1.2,5,1,,,,,,,,,,,,,0,42,42,4,1,,,,,,,,,,,,,,,,,,,,,,,,,,,,
,,,,,WIN24_028,20,Female,2024-02-01_14h20.59.815,jersey_experiment_5,2023.2.2,Win32,84.74576271,,,,,,,,,,,,,,,,837.1617,838.9628,838.9629,839.6453,return,0.1779,,86.19791667,,,,,,FBP-OG-91.png,0.45,1.2,15,1,,,,,,,,,,,,,0,43,43,14,1,,,,,,,,,,,,,,,,,,,,,,,,,,,,
,,,,,WIN24_028,20,Female,2024-02-01_14h20.59.815,jersey_experiment_5,2023.2.2,Win32,84.74576271,,,,,,,,,,,,,,,,839.6454,841.4406,841.4407,842.5161,return,0.1651,,67.578125,,,,,,FBP-PT-19.png,0.4,1.2,58,1,,,,,,,,,,,,,0,44,44,57,1,,,,,,,,,,,,,,,,,,,,,,,,,,,,
,,,,,WIN24_028,20,Female,2024-02-01_14h20.59.815,jersey_experiment_5,2023.2.2,Win32,84.74576271,,,,,,,,,,,,,,,,842.5163,844.3146,844.3146,845.1385,return,0.0946,,44.921875,,,,,,FBP-OG-91.png,0.37,1.2,12,1,,,,,,,,,,,,,0,45,45,11,1,,,,,,,,,,,,,,,,,,,,,,,,,,,,
,,,,,WIN24_028,20,Female,2024-02-01_14h20.59.815,jersey_experiment_5,2023.2.2,Win32,84.74576271,,,,,,,,,,,,,,,,845.1386,846.9396,846.9396,848.5506,return,0.7874,,20.83333333,,,,,,FBP-PT-19.png,0.35,1.2,56,1,,,,,,,,,,,,,0,46,46,55,1,,,,,,,,,,,,,,,,,,,,,,,,,,,,
,,,,,WIN24_028,20,Female,2024-02-01_14h20.59.815,jersey_experiment_5,2023.2.2,Win32,84.74576271,,,,,,,,,,,,,,,,848.5509,849.8527,849.8527,851.515,return,0.1985,,32.29166667,,,,,,FBP-YG-81.png,0.37,1.2,37,0.5,,,,,,,,,,,,,0,47,47,36,1,,,,,,,,,,,,,,,,,,,,,,,,,,,,
,,,,,WIN24_028,20,Female,2024-02-01_14h20.59.815,jersey_experiment_5,2023.2.2,Win32,84.74576271,,,,,,,,,,,,,,,,851.5151,853.312,853.312,854.0932,return,0.1545,,54.42708333,,,,,,FBP-OG-91.png,0.43,1.2,14,1,,,,,,,,,,,,,0,48,48,13,1,,,,,,,,,,,,,,,,,,,,,,,,,,,,
,,,,,WIN24_028,20,Female,2024-02-01_14h20.59.815,jersey_experiment_5,2023.2.2,Win32,84.74576271,,,,,,,,,,,,,,,,854.0933,855.3941,855.3941,856.8094,return,0.3534,,26.30208333,,,,,,FBP-YG-91.png,0.35,1.2,41,0.5,,,,,,,,,,,,,0,49,49,40,1,,,,,,,,,,,,,,,,,,,,,,,,,,,,
,,,,,WIN24_028,20,Female,2024-02-01_14h20.59.815,jersey_experiment_5,2023.2.2,Win32,84.74576271,,,,,,,,,,,,,,,,856.8095,858.1117,858.1117,859.5292,return,0.2019,,51.43229167,,,,,,FBP-YG-91.png,0.4,1.2,43,0.5,,,,,,,,,,,,,0,50,50,42,1,,,,,,,,,,,,,,,,,,,,,,,,,,,,
,,,,,WIN24_028,20,Female,2024-02-01_14h20.59.815,jersey_experiment_5,2023.2.2,Win32,84.74576271,,,,,,,,,,,,,,,,859.5293,860.8295,860.8295,862.2916,return,0.293,,91.27604167,,,,,,FBP-RB-19.png,0.45,1.2,30,0.5,,,,,,,,,,,,,0,51,51,29,1,,,,,,,,,,,,,,,,,,,,,,,,,,,,
,,,,,WIN24_028,20,Female,2024-02-01_14h20.59.815,jersey_experiment_5,2023.2.2,Win32,84.74576271,,,,,,,,,,,,,,,,862.2918,864.0934,864.0934,865.7877,return,0.1416,,69.53125,,,,,,FBP-PT-17.png,0.4,1.2,48,1,,,,,,,,,,,,,0,52,52,47,1,,,,,,,,,,,,,,,,,,,,,,,,,,,,
,,,,,WIN24_028,20,Female,2024-02-01_14h20.59.815,jersey_experiment_5,2023.2.2,Win32,84.74576271,,,,,,,,,,,,,,,,865.788,867.0921,867.0921,869.7278,return,1.4935,,44.53125,,,,,,FBP-RB-19.png,0.37,1.2,27,0.5,,,,,,,,,,,,,0,53,53,26,1,,,,,,,,,,,,,,,,,,,,,,,,,,,,
,,,,,WIN24_028,20,Female,2024-02-01_14h20.59.815,jersey_experiment_5,2023.2.2,Win32,84.74576271,,,,,,,,,,,,,,,,869.728,871.5291,871.5291,872.7391,return,0.3164,,20.96354167,,,,,,FBP-PT-17.png,0.35,1.2,46,1,,,,,,,,,,,,,0,54,54,45,1,,,,,,,,,,,,,,,,,,,,,,,,,,,,
,,,,,WIN24_028,20,Female,2024-02-01_14h20.59.815,jersey_experiment_5,2023.2.2,Win32,84.74576271,,,,,,,,,,,,,,,,872.7393,874.0331,874.0332,874.8938,return,0.2121,,19.40104167,,,,,,FBP-RB-18.png,0.35,1.2,21,0.5,,,,,,,,,,,,,0,55,55,20,1,,,,,,,,,,,,,,,,,,,,,,,,,,,,
,,,,,WIN24_028,20,Female,2024-02-01_14h20.59.815,jersey_experiment_5,2023.2.2,Win32,84.74576271,,,,,,,,,,,,,,,,874.894,876.1949,876.1949,878.1644,return,0.5415,,46.22395833,,,,,,FBP-RB-17.png,0.37,1.2,17,0.5,,,,,,,,,,,,,0,56,56,16,1,,,,,,,,,,,,,,,,,,,,,,,,,,,,
,,,,,WIN24_028,20,Female,2024-02-01_14h20.59.815,jersey_experiment_5,2023.2.2,Win32,84.74576271,,,,,,,,,,,,,,,,878.1645,879.9628,879.9628,881.4927,return,0.2931,,47.13541667,,,,,,FBP-PT-19.png,0.37,1.2,57,1,,,,,,,,,,,,,0,57,57,56,1,,,,,,,,,,,,,,,,,,,,,,,,,,,,
,,,,,WIN24_028,20,Female,2024-02-01_14h20.59.815,jersey_experiment_5,2023.2.2,Win32,84.74576271,,,,,,,,,,,,,,,,881.4929,882.7871,882.7871,883.6708,return,0.1782,,58.984375,,,,,,FBP-YG-71.png,0.4,1.2,33,0.5,,,,,,,,,,,,,0,58,58,32,1,,,,,,,,,,,,,,,,,,,,,,,,,,,,
,,,,,WIN24_028,20,Female,2024-02-01_14h20.59.815,jersey_experiment_5,2023.2.2,Win32,84.74576271,,,,,,,,,,,,,,,,883.671,885.4694,885.4694,886.1414,return,0.0944,,81.77083333,,,,,,FBP-PT-19.png,0.45,1.2,60,1,,,,,,,,,,,,,0,59,59,59,1,,,,,,,,,,,,,,,,,,,,,,,,,,,,
,,,,,WIN24_028,20,Female,2024-02-01_14h20.59.815,jersey_experiment_5,2023.2.2,Win32,84.74576271,,,,,,,,,,,,,,,,886.1433,887.9365,887.9365,888.6593,return,0.024,,19.53125,,,,,,FBP-PT-81.png,0.35,1.2,51,1,,,,,,,,,,,,,,,,,,0,0,0,50,1,,,,,,,,,,,,,,,,,,,,,,,
,,,,,WIN24_028,20,Female,2024-02-01_14h20.59.815,jersey_experiment_5,2023.2.2,Win32,84.74576271,,,,,,,,,,,,,,,,888.6595,889.9635,889.9635,891.4827,return,0.2591,,26.04166667,,,,,,FBP-YG-19.png,0.35,1.2,41,0.5,,,,,,,,,,,,,,,,,,0,1,1,40,1,,,,,,,,,,,,,,,,,,,,,,,
,,,,,WIN24_028,20,Female,2024-02-01_14h20.59.815,jersey_experiment_5,2023.2.2,Win32,84.74576271,,,,,,,,,,,,,,,,891.4829,893.2811,893.2811,895.7486,return,1.123,,34.63541667,,,,,,FBP-PT-81.png,0.37,1.2,52,1,,,,,,,,,,,,,,,,,,0,2,2,51,1,,,,,,,,,,,,,,,,,,,,,,,
,,,,,WIN24_028,20,Female,2024-02-01_14h20.59.815,jersey_experiment_5,2023.2.2,Win32,84.74576271,,,,,,,,,,,,,,,,895.7488,897.5533,897.5533,898.424,return,0.1885,,32.55208333,,,,,,FBP-OG-19.png,0.37,1.2,12,1,,,,,,,,,,,,,,,,,,0,3,3,11,1,,,,,,,,,,,,,,,,,,,,,,,
,,,,,WIN24_028,20,Female,2024-02-01_14h20.59.815,jersey_experiment_5,2023.2.2,Win32,84.74576271,,,,,,,,,,,,,,,,898.4241,899.7284,899.7284,900.6931,return,0.1517,,70.57291667,,,,,,FBP-RB-81.png,0.43,1.2,24,0.5,,,,,,,,,,,,,,,,,,0,4,4,23,1,,,,,,,,,,,,,,,,,,,,,,,
,,,,,WIN24_028,20,Female,2024-02-01_14h20.59.815,jersey_experiment_5,2023.2.2,Win32,84.74576271,,,,,,,,,,,,,,,,900.6933,901.9957,901.9957,903.1539,return,0.2019,,74.73958333,,,,,,FBP-YG-18.png,0.43,1.2,39,0.5,,,,,,,,,,,,,,,,,,0,5,5,38,1,,,,,,,,,,,,,,,,,,,,,,,
,,,,,WIN24_028,20,Female,2024-02-01_14h20.59.815,jersey_experiment_5,2023.2.2,Win32,84.74576271,,,,,,,,,,,,,,,,903.1541,904.949,904.949,905.611,return,0.1517,,52.08333333,,,,,,FBP-PT-91.png,0.37,1.2,57,1,,,,,,,,,,,,,,,,,,0,6,6,56,1,,,,,,,,,,,,,,,,,,,,,,,
,,,,,WIN24_028,20,Female,2024-02-01_14h20.59.815,jersey_experiment_5,2023.2.2,Win32,84.74576271,,,,,,,,,,,,,,,,905.6111,907.4127,907.4127,908.4197,return,0.312,,86.328125,,,,,,FBP-OG-18.png,0.45,1.2,10,1,,,,,,,,,,,,,,,,,,0,7,7,9,1,,,,,,,,,,,,,,,,,,,,,,,
,,,,,WIN24_028,20,Female,2024-02-01_14h20.59.815,jersey_experiment_5,2023.2.2,Win32,84.74576271,,,,,,,,,,,,,,,,908.4198,910.2123,910.2123,911.4123,return,0.1539,,68.48958333,,,,,,FBP-OG-19.png,0.43,1.2,14,1,,,,,,,,,,,,,,,,,,0,8,8,13,1,,,,,,,,,,,,,,,,,,,,,,,
,,,,,WIN24_028,20,Female,2024-02-01_14h20.59.815,jersey_experiment_5,2023.2.2,Win32,84.74576271,,,,,,,,,,,,,,,,911.4124,912.7067,912.7067,913.9407,return,0.3762,,90.625,,,,,,FBP-RB-81.png,0.45,1.2,25,0.5,,,,,,,,,,,,,,,,,,0,9,9,24,1,,,,,,,,,,,,,,,,,,,,,,,
,,,,,WIN24_028,20,Female,2024-02-01_14h20.59.815,jersey_experiment_5,2023.2.2,Win32,84.74576271,,,,,,,,,,,,,,,,913.9409,915.235,915.235,916.2598,return,0.107,,61.84895833,,,,,,FBP-RB-71.png,0.4,1.2,18,0.5,,,,,,,,,,,,,,,,,,0,10,10,17,1,,,,,,,,,,,,,,,,,,,,,,,
,,,,,WIN24_028,20,Female,2024-02-01_14h20.59.815,jersey_experiment_5,2023.2.2,Win32,84.74576271,,,,,,,,,,,,,,,,916.26,917.5611,917.5611,919.06,return,0.0603,,66.53645833,,,,,,FBP-YG-17.png,0.4,1.2,33,0.5,,,,,,,,,,,,,,,,,,0,11,11,32,1,,,,,,,,,,,,,,,,,,,,,,,
,,,,,WIN24_028,20,Female,2024-02-01_14h20.59.815,jersey_experiment_5,2023.2.2,Win32,84.74576271,,,,,,,,,,,,,,,,919.0602,920.3647,920.3647,923.2119,return,0.8106,,54.296875,,,,,,FBP-RB-71.png,0.37,1.2,17,0.5,,,,,,,,,,,,,,,,,,0,12,12,16,1,,,,,,,,,,,,,,,,,,,,,,,
,,,,,WIN24_028,20,Female,2024-02-01_14h20.59.815,jersey_experiment_5,2023.2.2,Win32,84.74576271,,,,,,,,,,,,,,,,923.212,925.0132,925.0132,925.9882,return,0.2117,,87.63020833,,,,,,FBP-OG-19.png,0.45,1.2,15,1,,,,,,,,,,,,,,,,,,0,13,13,14,1,,,,,,,,,,,,,,,,,,,,,,,
,,,,,WIN24_028,20,Female,2024-02-01_14h20.59.815,jersey_experiment_5,2023.2.2,Win32,84.74576271,,,,,,,,,,,,,,,,925.9884,927.7849,927.7849,929.0136,return,0.2253,,64.97395833,,,,,,FBP-OG-19.png,0.4,1.2,13,1,,,,,,,,,,,,,,,,,,0,14,14,12,1,,,,,,,,,,,,,,,,,,,,,,,
,,,,,WIN24_028,20,Female,2024-02-01_14h20.59.815,jersey_experiment_5,2023.2.2,Win32,84.74576271,,,,,,,,,,,,,,,,929.0138,930.3179,930.3179,931.3061,return,0.2458,,74.86979167,,,,,,FBP-RB-91.png,0.43,1.2,29,0.5,,,,,,,,,,,,,,,,,,0,15,15,28,1,,,,,,,,,,,,,,,,,,,,,,,
,,,,,WIN24_028,20,Female,2024-02-01_14h20.59.815,jersey_experiment_5,2023.2.2,Win32,84.74576271,,,,,,,,,,,,,,,,931.3062,932.6087,932.6087,933.6255,return,0.131,,94.79166667,,,,,,FBP-YG-18.png,0.45,1.2,40,0.5,,,,,,,,,,,,,,,,,,0,16,16,39,1,,,,,,,,,,,,,,,,,,,,,,,
,,,,,WIN24_028,20,Female,2024-02-01_14h20.59.815,jersey_experiment_5,2023.2.2,Win32,84.74576271,,,,,,,,,,,,,,,,933.6256,935.4206,935.4206,937.3307,return,1.2949,,72.265625,,,,,,FBP-OG-17.png,0.43,1.2,4,1,,,,,,,,,,,,,,,,,,0,17,17,3,1,,,,,,,,,,,,,,,,,,,,,,,
,,,,,WIN24_028,20,Female,2024-02-01_14h20.59.815,jersey_experiment_5,2023.2.2,Win32,84.74576271,,,,,,,,,,,,,,,,937.3308,938.6373,938.6373,939.589,return,0.1648,,78.125,,,,,,FBP-YG-19.png,0.43,1.2,44,0.5,,,,,,,,,,,,,,,,,,0,18,18,43,1,,,,,,,,,,,,,,,,,,,,,,,
,,,,,WIN24_028,20,Female,2024-02-01_14h20.59.815,jersey_experiment_5,2023.2.2,Win32,84.74576271,,,,,,,,,,,,,,,,939.5892,940.8828,940.8828,942.554,return,0.3769,,41.796875,,,,,,FBP-RB-91.png,0.35,1.2,26,0.5,,,,,,,,,,,,,,,,,,0,19,19,25,1,,,,,,,,,,,,,,,,,,,,,,,
,,,,,WIN24_028,20,Female,2024-02-01_14h20.59.815,jersey_experiment_5,2023.2.2,Win32,84.74576271,,,,,,,,,,,,,,,,942.5541,943.861,943.861,945.4139,return,0.6483,,68.359375,,,,,,FBP-RB-71.png,0.43,1.2,19,0.5,,,,,,,,,,,,,,,,,,0,20,20,18,1,,,,,,,,,,,,,,,,,,,,,,,
,,,,,WIN24_028,20,Female,2024-02-01_14h20.59.815,jersey_experiment_5,2023.2.2,Win32,84.74576271,,,,,,,,,,,,,,,,945.4142,946.708,946.708,948.774,return,0.3672,,56.11979167,,,,,,FBP-YG-17.png,0.37,1.2,32,0.5,,,,,,,,,,,,,,,,,,0,21,21,31,1,,,,,,,,,,,,,,,,,,,,,,,
,,,,,WIN24_028,20,Female,2024-02-01_14h20.59.815,jersey_experiment_5,2023.2.2,Win32,84.74576271,,,,,,,,,,,,,,,,948.7742,950.5671,950.5672,951.6028,return,0.283,,32.16145833,,,,,,FBP-OG-17.png,0.37,1.2,2,1,,,,,,,,,,,,,,,,,,0,22,22,1,1,,,,,,,,,,,,,,,,,,,,,,,
,,,,,WIN24_028,20,Female,2024-02-01_14h20.59.815,jersey_experiment_5,2023.2.2,Win32,84.74576271,,,,,,,,,,,,,,,,951.603,952.9036,952.9036,954.1306,return,0.1176,,63.80208333,,,,,,FBP-RB-81.png,0.4,1.2,23,0.5,,,,,,,,,,,,,,,,,,0,23,23,22,1,,,,,,,,,,,,,,,,,,,,,,,
,,,,,WIN24_028,20,Female,2024-02-01_14h20.59.815,jersey_experiment_5,2023.2.2,Win32,84.74576271,,,,,,,,,,,,,,,,954.1308,955.9273,955.9273,957.0016,return,0.1985,,66.53645833,,,,,,FBP-PT-71.png,0.4,1.2,48,1,,,,,,,,,,,,,,,,,,0,24,24,47,1,,,,,,,,,,,,,,,,,,,,,,,
,,,,,WIN24_028,20,Female,2024-02-01_14h20.59.815,jersey_experiment_5,2023.2.2,Win32,84.74576271,,,,,,,,,,,,,,,,957.0018,958.8026,958.8027,959.9192,return,0.1283,,17.70833333,,,,,,FBP-PT-71.png,0.35,1.2,46,1,,,,,,,,,,,,,,,,,,0,25,25,45,1,,,,,,,,,,,,,,,,,,,,,,,
,,,,,WIN24_028,20,Female,2024-02-01_14h20.59.815,jersey_experiment_5,2023.2.2,Win32,84.74576271,,,,,,,,,,,,,,,,959.9195,961.2128,961.2128,962.7675,return,0.1657,,40.49479167,,,,,,FBP-YG-18.png,0.37,1.2,37,0.5,,,,,,,,,,,,,,,,,,0,26,26,36,1,,,,,,,,,,,,,,,,,,,,,,,
,,,,,WIN24_028,20,Female,2024-02-01_14h20.59.815,jersey_experiment_5,2023.2.2,Win32,84.74576271,,,,,,,,,,,,,,,,962.7677,964.0602,964.0602,965.8099,return,0.7244,,58.59375,,,,,,FBP-RB-91.png,0.4,1.2,28,0.5,,,,,,,,,,,,,,,,,,0,27,27,27,1,,,,,,,,,,,,,,,,,,,,,,,
,,,,,WIN24_028,20,Female,2024-02-01_14h20.59.815,jersey_experiment_5,2023.2.2,Win32,84.74576271,,,,,,,,,,,,,,,,965.8101,967.1041,967.1041,968.0845,return,0.1888,,66.53645833,,,,,,FBP-YG-18.png,0.4,1.2,38,0.5,,,,,,,,,,,,,,,,,,0,28,28,37,1,,,,,,,,,,,,,,,,,,,,,,,
,,,,,WIN24_028,20,Female,2024-02-01_14h20.59.815,jersey_experiment_5,2023.2.2,Win32,84.74576271,,,,,,,,,,,,,,,,968.0847,969.3912,969.3912,970.5916,return,0.2489,,9.895833333,,,,,,FBP-RB-71.png,0.35,1.2,16,0.5,,,,,,,,,,,,,,,,,,0,29,29,15,1,,,,,,,,,,,,,,,,,,,,,,,
,,,,,WIN24_028,20,Female,2024-02-01_14h20.59.815,jersey_experiment_5,2023.2.2,Win32,84.74576271,,,,,,,,,,,,,,,,970.5918,972.3899,972.3899,973.5092,return,0.2253,,10.546875,,,,,,FBP-OG-17.png,0.35,1.2,1,1,,,,,,,,,,,,,,,,,,0,30,30,0,1,,,,,,,,,,,,,,,,,,,,,,,
,,,,,WIN24_028,20,Female,2024-02-01_14h20.59.815,jersey_experiment_5,2023.2.2,Win32,84.74576271,,,,,,,,,,,,,,,,973.5094,974.8136,974.8136,975.9432,return,0.2223,,90.625,,,,,,FBP-YG-17.png,0.43,1.2,34,0.5,,,,,,,,,,,,,,,,,,0,31,31,33,1,,,,,,,,,,,,,,,,,,,,,,,
,,,,,WIN24_028,20,Female,2024-02-01_14h20.59.815,jersey_experiment_5,2023.2.2,Win32,84.74576271,,,,,,,,,,,,,,,,975.9433,977.7398,977.7398,979.3045,return,0.4486,,67.44791667,,,,,,FBP-PT-91.png,0.4,1.2,58,1,,,,,,,,,,,,,,,,,,0,32,32,57,1,,,,,,,,,,,,,,,,,,,,,,,
,,,,,WIN24_028,20,Female,2024-02-01_14h20.59.815,jersey_experiment_5,2023.2.2,Win32,84.74576271,,,,,,,,,,,,,,,,979.3048,981.1046,981.1046,982.1787,return,0.2591,,77.60416667,,,,,,FBP-PT-71.png,0.43,1.2,49,1,,,,,,,,,,,,,,,,,,0,33,33,48,1,,,,,,,,,,,,,,,,,,,,,,,
,,,,,WIN24_028,20,Female,2024-02-01_14h20.59.815,jersey_experiment_5,2023.2.2,Win32,84.74576271,,,,,,,,,,,,,,,,982.1788,983.98,983.98,985.3317,return,0.3288,,74.08854167,,,,,,FBP-PT-81.png,0.43,1.2,54,1,,,,,,,,,,,,,,,,,,0,34,34,53,1,,,,,,,,,,,,,,,,,,,,,,,
,,,,,WIN24_028,20,Female,2024-02-01_14h20.59.815,jersey_experiment_5,2023.2.2,Win32,84.74576271,,,,,,,,,,,,,,,,985.3319,986.6261,986.6262,987.6507,return,0.2482,,87.890625,,,,,,FBP-RB-91.png,0.45,1.2,30,0.5,,,,,,,,,,,,,,,,,,0,35,35,29,1,,,,,,,,,,,,,,,,,,,,,,,
,,,,,WIN24_028,20,Female,2024-02-01_14h20.59.815,jersey_experiment_5,2023.2.2,Win32,84.74576271,,,,,,,,,,,,,,,,987.6509,988.9446,988.9446,990.2965,return,0.2927,,36.328125,,,,,,FBP-YG-18.png,0.35,1.2,36,0.5,,,,,,,,,,,,,,,,,,0,36,36,35,1,,,,,,,,,,,,,,,,,,,,,,,
,,,,,WIN24_028,20,Female,2024-02-01_14h20.59.815,jersey_experiment_5,2023.2.2,Win32,84.74576271,,,,,,,,,,,,,,,,990.2966,991.6038,991.6038,992.6498,return,0.1415,,42.578125,,,,,,FBP-RB-81.png,0.37,1.2,22,0.5,,,,,,,,,,,,,,,,,,0,37,37,21,1,,,,,,,,,,,,,,,,,,,,,,,
,,,,,WIN24_028,20,Female,2024-02-01_14h20.59.815,jersey_experiment_5,2023.2.2,Win32,84.74576271,,,,,,,,,,,,,,,,992.6499,994.4509,994.451,995.3557,return,0.1518,,61.71875,,,,,,FBP-OG-17.png,0.4,1.2,3,1,,,,,,,,,,,,,,,,,,0,38,38,2,1,,,,,,,,,,,,,,,,,,,,,,,
,,,,,WIN24_028,20,Female,2024-02-01_14h20.59.815,jersey_experiment_5,2023.2.2,Win32,84.74576271,,,,,,,,,,,,,,,,995.356,996.6628,996.6629,998.5455,return,0.1885,,50.390625,,,,,,FBP-YG-19.png,0.37,1.2,42,0.5,,,,,,,,,,,,,,,,,,0,39,39,41,1,,,,,,,,,,,,,,,,,,,,,,,
,,,,,WIN24_028,20,Female,2024-02-01_14h20.59.815,jersey_experiment_5,2023.2.2,Win32,84.74576271,,,,,,,,,,,,,,,,998.5457,1000.3406,1000.3407,1001.6288,return,0.7303,,82.94270833,,,,,,FBP-PT-71.png,0.45,1.2,50,1,,,,,,,,,,,,,,,,,,0,40,40,49,1,,,,,,,,,,,,,,,,,,,,,,,
,,,,,WIN24_028,20,Female,2024-02-01_14h20.59.815,jersey_experiment_5,2023.2.2,Win32,84.74576271,,,,,,,,,,,,,,,,1001.6289,1003.4262,1003.4263,1004.2266,return,0.1989,,92.05729167,,,,,,FBP-PT-81.png,0.45,1.2,55,1,,,,,,,,,,,,,,,,,,0,41,41,54,1,,,,,,,,,,,,,,,,,,,,,,,
,,,,,WIN24_028,20,Female,2024-02-01_14h20.59.815,jersey_experiment_5,2023.2.2,Win32,84.74576271,,,,,,,,,,,,,,,,1004.2266,1006.023,1006.023,1006.6973,return,0.1278,,89.97395833,,,,,,FBP-PT-91.png,0.45,1.2,60,1,,,,,,,,,,,,,,,,,,0,42,42,59,1,,,,,,,,,,,,,,,,,,,,,,,
,,,,,WIN24_028,20,Female,2024-02-01_14h20.59.815,jersey_experiment_5,2023.2.2,Win32,84.74576271,,,,,,,,,,,,,,,,1006.6974,1008.4938,1008.4939,1012.6168,return,2.5313,,43.359375,,,,,,FBP-OG-18.png,0.35,1.2,6,1,,,,,,,,,,,,,,,,,,0,43,43,5,1,,,,,,,,,,,,,,,,,,,,,,,
,,,,,WIN24_028,20,Female,2024-02-01_14h20.59.815,jersey_experiment_5,2023.2.2,Win32,84.74576271,,,,,,,,,,,,,,,,1012.6171,1013.921,1013.921,1015.0637,return,0.131,,19.40104167,,,,,,FBP-YG-17.png,0.35,1.2,31,0.5,,,,,,,,,,,,,,,,,,0,44,44,30,1,,,,,,,,,,,,,,,,,,,,,,,
,,,,,WIN24_028,20,Female,2024-02-01_14h20.59.815,jersey_experiment_5,2023.2.2,Win32,84.74576271,,,,,,,,,,,,,,,,1015.0638,1016.3578,1016.3578,1017.2286,return,0.0607,,51.30208333,,,,,,FBP-YG-19.png,0.4,1.2,43,0.5,,,,,,,,,,,,,,,,,,0,45,45,42,1,,,,,,,,,,,,,,,,,,,,,,,
,,,,,WIN24_028,20,Female,2024-02-01_14h20.59.815,jersey_experiment_5,2023.2.2,Win32,84.74576271,,,,,,,,,,,,,,,,1017.2289,1019.0272,1019.0272,1019.8977,return,0.2353,,62.63020833,,,,,,FBP-OG-18.png,0.43,1.2,9,1,,,,,,,,,,,,,,,,,,0,46,46,8,1,,,,,,,,,,,,,,,,,,,,,,,
,,,,,WIN24_028,20,Female,2024-02-01_14h20.59.815,jersey_experiment_5,2023.2.2,Win32,84.74576271,,,,,,,,,,,,,,,,1019.8979,1021.6943,1021.6944,1022.3582,return,0.2252,,80.72916667,,,,,,FBP-OG-17.png,0.45,1.2,5,1,,,,,,,,,,,,,,,,,,0,47,47,4,1,,,,,,,,,,,,,,,,,,,,,,,
,,,,,WIN24_028,20,Female,2024-02-01_14h20.59.815,jersey_experiment_5,2023.2.2,Win32,84.74576271,,,,,,,,,,,,,,,,1022.3582,1024.1565,1024.1565,1024.8289,return,0.084,,49.73958333,,,,,,FBP-OG-18.png,0.4,1.2,8,1,,,,,,,,,,,,,,,,,,0,48,48,7,1,,,,,,,,,,,,,,,,,,,,,,,
,,,,,WIN24_028,20,Female,2024-02-01_14h20.59.815,jersey_experiment_5,2023.2.2,Win32,84.74576271,,,,,,,,,,,,,,,,1024.829,1026.1229,1026.1229,1027.4746,return,0.6823,,84.765625,,,,,,FBP-YG-17.png,0.45,1.2,35,0.5,,,,,,,,,,,,,,,,,,0,49,49,34,1,,,,,,,,,,,,,,,,,,,,,,,
,,,,,WIN24_028,20,Female,2024-02-01_14h20.59.815,jersey_experiment_5,2023.2.2,Win32,84.74576271,,,,,,,,,,,,,,,,1027.4748,1028.7684,1028.7685,1029.8747,return,0.3401,,90.10416667,,,,,,FBP-RB-71.png,0.45,1.2,20,0.5,,,,,,,,,,,,,,,,,,0,50,50,19,1,,,,,,,,,,,,,,,,,,,,,,,
,,,,,WIN24_028,20,Female,2024-02-01_14h20.59.815,jersey_experiment_5,2023.2.2,Win32,84.74576271,,,,,,,,,,,,,,,,1029.8748,1031.1684,1031.1684,1033.0172,return,0.9309,,32.55208333,,,,,,FBP-RB-81.png,0.35,1.2,21,0.5,,,,,,,,,,,,,,,,,,0,51,51,20,1,,,,,,,,,,,,,,,,,,,,,,,
,,,,,WIN24_028,20,Female,2024-02-01_14h20.59.815,jersey_experiment_5,2023.2.2,Win32,84.74576271,,,,,,,,,,,,,,,,1033.0174,1034.8158,1034.8159,1036.3116,return,0.3768,,62.890625,,,,,,FBP-PT-91.png,0.43,1.2,59,1,,,,,,,,,,,,,,,,,,0,52,52,58,1,,,,,,,,,,,,,,,,,,,,,,,
,,,,,WIN24_028,20,Female,2024-02-01_14h20.59.815,jersey_experiment_5,2023.2.2,Win32,84.74576271,,,,,,,,,,,,,,,,1036.3117,1038.1098,1038.1099,1039.0514,return,0.3294,,16.53645833,,,,,,FBP-OG-19.png,0.35,1.2,11,1,,,,,,,,,,,,,,,,,,0,53,53,10,1,,,,,,,,,,,,,,,,,,,,,,,
,,,,,WIN24_028,20,Female,2024-02-01_14h20.59.815,jersey_experiment_5,2023.2.2,Win32,84.74576271,,,,,,,,,,,,,,,,1039.0515,1040.3454,1040.3455,1041.9697,return,0.2595,,40.49479167,,,,,,FBP-RB-91.png,0.37,1.2,27,0.5,,,,,,,,,,,,,,,,,,0,54,54,26,1,,,,,,,,,,,,,,,,,,,,,,,
,,,,,WIN24_028,20,Female,2024-02-01_14h20.59.815,jersey_experiment_5,2023.2.2,Win32,84.74576271,,,,,,,,,,,,,,,,1041.9698,1043.7709,1043.7709,1046.6412,return,2.1646,,42.44791667,,,,,,FBP-PT-81.png,0.4,1.2,53,1,,,,,,,,,,,,,,,,,,0,55,55,52,1,,,,,,,,,,,,,,,,,,,,,,,
,,,,,WIN24_028,20,Female,2024-02-01_14h20.59.815,jersey_experiment_5,2023.2.2,Win32,84.74576271,,,,,,,,,,,,,,,,1046.6415,1048.4365,1048.4366,1049.512,return,0.0604,,38.15104167,,,,,,FBP-OG-18.png,0.37,1.2,7,1,,,,,,,,,,,,,,,,,,0,56,56,6,1,,,,,,,,,,,,,,,,,,,,,,,
,,,,,WIN24_028,20,Female,2024-02-01_14h20.59.815,jersey_experiment_5,2023.2.2,Win32,84.74576271,,,,,,,,,,,,,,,,1049.5121,1051.3104,1051.3104,1052.3932,return,0.199,,35.9375,,,,,,FBP-PT-71.png,0.37,1.2,47,1,,,,,,,,,,,,,,,,,,0,57,57,46,1,,,,,,,,,,,,,,,,,,,,,,,
,,,,,WIN24_028,20,Female,2024-02-01_14h20.59.815,jersey_experiment_5,2023.2.2,Win32,84.74576271,,,,,,,,,,,,,,,,1052.3934,1054.1944,1054.1944,1055.0182,return,0.1884,,22.13541667,,,,,,FBP-PT-91.png,0.35,1.2,56,1,,,,,,,,,,,,,,,,,,0,58,58,55,1,,,,,,,,,,,,,,,,,,,,,,,
,,,,,WIN24_028,20,Female,2024-02-01_14h20.59.815,jersey_experiment_5,2023.2.2,Win32,84.74576271,,,,,,,,,,,,,,,,1055.0183,1056.3193,1056.3193,1057.4133,return,0.2161,,70.57291667,,,,,,FBP-YG-19.png,0.45,1.2,45,0.5,,,,,,,,,,,,,,,,,,0,59,59,44,1,,,,,,,,,,,,,,,,,,,,,,,
,,,,,WIN24_028,20,Female,2024-02-01_14h20.59.815,jersey_experiment_5,2023.2.2,Win32,84.74576271,,,,,,,,,,,,,,,,,,,,,,,,,,,,,,,,,,,,,,,,,,,,,,,,,,,,,,,,1057.4137,1063.0137,return,5.5807,,,,,,,,,,,,,,,,,,,
,,,,,WIN24_028,20,Female,2024-02-01_14h20.59.815,jersey_experiment_5,2023.2.2,Win32,84.74576271,,,,,,,,,,,,,,,,,,,,,,,,,,,,,,,,,,,,,,,,,,,,,,,,,,,,,,,,,,,,,1063.0137,1067.3716,1,3.2002,return,1.1426,,,,,,,,,,,,
,,,,,WIN24_028,20,Female,2024-02-01_14h20.59.815,jersey_experiment_5,2023.2.2,Win32,84.74576271,,,,,,,,,,,,,,,,,,,,,,,,,,,,,,,,,,,,,,,,,,,,,,,,,,,,,,,,,,,,,,,,,,,,1067.3716,1122.2727,Not too sure - maybe the colors of their jerseys and its impact on huskiness,right,26.2127,,,,,,
,,,,,WIN24_028,20,Female,2024-02-01_14h20.59.815,jersey_experiment_5,2023.2.2,Win32,84.74576271,,,,,,,,,,,,,,,,,,,,,,,,,,,,,,,,,,,,,,,,,,,,,,,,,,,,,,,,,,,,,,,,,,,,,,,,,,1122.2728,1124.9611,return,2.6826,