requirements.started,requirements.stopped,key_resp_3.keys,key_resp_3.rt,key_resp_3.duration,Subject ID,Age,Gender,date,expName,psychopyVersion,OS,frameRate,instructions1.started,instructions1.stopped,key_resp.keys,key_resp.rt,key_resp.duration,example.started,example.stopped,enter_2.keys,enter_2.rt,enter_2.duration,instructions2.started,instructions2.stopped,enter_3.keys,enter_3.rt,enter_3.duration,image.started,image.stopped,slider_2.started,slider_2.stopped,next.keys,next.rt,next.duration,slider.response,trial_block_1.thisRepN,trial_block_1.thisTrialN,trial_block_1.thisN,trial_block_1.thisIndex,trial_block_1.ran,Path,Width,Height,Index,Duration,trial_block_2.thisRepN,trial_block_2.thisTrialN,trial_block_2.thisN,trial_block_2.thisIndex,trial_block_2.ran,rest_break.started,rest_break.stopped,end_break.started,end_break.stopped,key_resp_5.keys,key_resp_5.rt,key_resp_5.duration,trial_block_3.thisRepN,trial_block_3.thisTrialN,trial_block_3.thisN,trial_block_3.thisIndex,trial_block_3.ran,trial_block_4.thisRepN,trial_block_4.thisTrialN,trial_block_4.thisN,trial_block_4.thisIndex,trial_block_4.ran,questions_intro.started,questions_intro.stopped,enter_12.keys,enter_12.rt,enter_12.duration,question2.started,question2.stopped,question_doingbest.response,question_doingbest.rt,enter_15.keys,enter_15.rt,enter_15.duration,pattern.started,pattern.stopped,pattern_2.text,enter_17.keys,enter_17.rt,enter_17.duration,thankyou.started,thankyou.stopped,enter_14.keys,enter_14.rt,enter_14.duration
0.0002,12.2855,return,12.2817,,WIN24_036,21,female,2024-02-02_15h54.32.579,jersey_experiment_5,2023.2.2,Win32,84.74576271,,,,,,,,,,,,,,,,,,,,,,,,,,,,,,,,,,,,,,,,,,,,,,,,,,,,,,,,,,,,,,,,,,,,,,,,,,,,,,
,,,,,WIN24_036,21,female,2024-02-02_15h54.32.579,jersey_experiment_5,2023.2.2,Win32,84.74576271,12.2857,22.8728,return,10.5651,,,,,,,,,,,,,,,,,,,,,,,,,,,,,,,,,,,,,,,,,,,,,,,,,,,,,,,,,,,,,,,,,,,,,,,,,,
,,,,,WIN24_036,21,female,2024-02-02_15h54.32.579,jersey_experiment_5,2023.2.2,Win32,84.74576271,,,,,,22.8729,29.0967,return,6.1666,,,,,,,,,,,,,,,,,,,,,,,,,,,,,,,,,,,,,,,,,,,,,,,,,,,,,,,,,,,,,,,,,,,,,
,,,,,WIN24_036,21,female,2024-02-02_15h54.32.579,jersey_experiment_5,2023.2.2,Win32,84.74576271,,,,,,,,,,,29.0969,49.6387,return,20.5237,,,,,,,,,,,,,,,,,,,,,,,,,,,,,,,,,,,,,,,,,,,,,,,,,,,,,,,,,,,,,,,,
,,,,,WIN24_036,21,female,2024-02-02_15h54.32.579,jersey_experiment_5,2023.2.2,Win32,84.74576271,,,,,,,,,,,,,,,,49.6513,51.4501,51.4502,66.5328,return,11.6257,,20.18229167,0,0,0,35,1,FBP-YG-81.png,0.35,1.2,36,1,,,,,,,,,,,,,,,,,,,,,,,,,,,,,,,,,,,,,,,,,,,,,
,,,,,WIN24_036,21,female,2024-02-02_15h54.32.579,jersey_experiment_5,2023.2.2,Win32,84.74576271,,,,,,,,,,,,,,,,66.5335,67.827,67.8271,71.1681,return,0.8998,,85.80729167,0,1,1,49,1,FBP-PT-17.png,0.45,1.2,50,0.5,,,,,,,,,,,,,,,,,,,,,,,,,,,,,,,,,,,,,,,,,,,,,
,,,,,WIN24_036,21,female,2024-02-02_15h54.32.579,jersey_experiment_5,2023.2.2,Win32,84.74576271,,,,,,,,,,,,,,,,71.1686,72.4625,72.4625,76.0512,return,2.1918,,13.41145833,0,2,2,10,1,FBP-OG-91.png,0.35,1.2,11,0.5,,,,,,,,,,,,,,,,,,,,,,,,,,,,,,,,,,,,,,,,,,,,,
,,,,,WIN24_036,21,female,2024-02-02_15h54.32.579,jersey_experiment_5,2023.2.2,Win32,84.74576271,,,,,,,,,,,,,,,,76.0518,77.345,77.3451,79.9332,return,0.303,,39.84375,0,3,3,46,1,FBP-PT-17.png,0.37,1.2,47,0.5,,,,,,,,,,,,,,,,,,,,,,,,,,,,,,,,,,,,,,,,,,,,,
,,,,,WIN24_036,21,female,2024-02-02_15h54.32.579,jersey_experiment_5,2023.2.2,Win32,84.74576271,,,,,,,,,,,,,,,,79.9335,81.7342,81.7343,83.8391,return,0.8774,,85.15625,0,4,4,23,1,FBP-RB-18.png,0.43,1.2,24,1,,,,,,,,,,,,,,,,,,,,,,,,,,,,,,,,,,,,,,,,,,,,,
,,,,,WIN24_036,21,female,2024-02-02_15h54.32.579,jersey_experiment_5,2023.2.2,Win32,84.74576271,,,,,,,,,,,,,,,,83.8396,85.1335,85.1335,90.5806,return,2.5072,,82.16145833,0,5,5,12,1,FBP-OG-91.png,0.4,1.2,13,0.5,,,,,,,,,,,,,,,,,,,,,,,,,,,,,,,,,,,,,,,,,,,,,
,,,,,WIN24_036,21,female,2024-02-02_15h54.32.579,jersey_experiment_5,2023.2.2,Win32,84.74576271,,,,,,,,,,,,,,,,90.581,91.8751,91.8752,93.8868,return,0.2897,,92.83854167,0,6,6,53,1,FBP-PT-18.png,0.43,1.2,54,0.5,,,,,,,,,,,,,,,,,,,,,,,,,,,,,,,,,,,,,,,,,,,,,
,,,,,WIN24_036,21,female,2024-02-02_15h54.32.579,jersey_experiment_5,2023.2.2,Win32,84.74576271,,,,,,,,,,,,,,,,93.8874,95.181,95.181,96.946,return,0.5455,,99.47916667,0,7,7,14,1,FBP-OG-91.png,0.45,1.2,15,0.5,,,,,,,,,,,,,,,,,,,,,,,,,,,,,,,,,,,,,,,,,,,,,
,,,,,WIN24_036,21,female,2024-02-02_15h54.32.579,jersey_experiment_5,2023.2.2,Win32,84.74576271,,,,,,,,,,,,,,,,96.9464,98.7458,98.7458,101.5575,return,0.2125,,74.86979167,0,8,8,42,1,FBP-YG-91.png,0.4,1.2,43,1,,,,,,,,,,,,,,,,,,,,,,,,,,,,,,,,,,,,,,,,,,,,,
,,,,,WIN24_036,21,female,2024-02-02_15h54.32.579,jersey_experiment_5,2023.2.2,Win32,84.74576271,,,,,,,,,,,,,,,,101.5578,102.8518,102.8519,104.7694,return,0.2869,,82.29166667,0,9,9,58,1,FBP-PT-19.png,0.43,1.2,59,0.5,,,,,,,,,,,,,,,,,,,,,,,,,,,,,,,,,,,,,,,,,,,,,
,,,,,WIN24_036,21,female,2024-02-02_15h54.32.579,jersey_experiment_5,2023.2.2,Win32,84.74576271,,,,,,,,,,,,,,,,104.7698,106.5698,106.5699,110.0407,return,1.8484,,24.609375,0,10,10,36,1,FBP-YG-81.png,0.37,1.2,37,1,,,,,,,,,,,,,,,,,,,,,,,,,,,,,,,,,,,,,,,,,,,,,
,,,,,WIN24_036,21,female,2024-02-02_15h54.32.579,jersey_experiment_5,2023.2.2,Win32,84.74576271,,,,,,,,,,,,,,,,110.0412,111.3346,111.3347,114.9109,return,2.2662,,74.86979167,0,11,11,7,1,FBP-OG-81.png,0.4,1.2,8,0.5,,,,,,,,,,,,,,,,,,,,,,,,,,,,,,,,,,,,,,,,,,,,,
,,,,,WIN24_036,21,female,2024-02-02_15h54.32.579,jersey_experiment_5,2023.2.2,Win32,84.74576271,,,,,,,,,,,,,,,,114.9113,116.7111,116.7112,119.2523,return,0.2604,,60.15625,0,12,12,22,1,FBP-RB-18.png,0.4,1.2,23,1,,,,,,,,,,,,,,,,,,,,,,,,,,,,,,,,,,,,,,,,,,,,,
,,,,,WIN24_036,21,female,2024-02-02_15h54.32.579,jersey_experiment_5,2023.2.2,Win32,84.74576271,,,,,,,,,,,,,,,,119.2527,121.0534,121.0535,124.8642,return,1.0527,,91.66666667,0,13,13,33,1,FBP-YG-71.png,0.43,1.2,34,1,,,,,,,,,,,,,,,,,,,,,,,,,,,,,,,,,,,,,,,,,,,,,
,,,,,WIN24_036,21,female,2024-02-02_15h54.32.579,jersey_experiment_5,2023.2.2,Win32,84.74576271,,,,,,,,,,,,,,,,124.8647,126.1585,126.1587,128.1005,return,0.2258,,24.609375,0,14,14,1,1,FBP-OG-71.png,0.37,1.2,2,0.5,,,,,,,,,,,,,,,,,,,,,,,,,,,,,,,,,,,,,,,,,,,,,
,,,,,WIN24_036,21,female,2024-02-02_15h54.32.579,jersey_experiment_5,2023.2.2,Win32,84.74576271,,,,,,,,,,,,,,,,128.1009,129.9011,129.9011,130.8645,return,0.1939,,50,0,15,15,37,1,FBP-YG-81.png,0.4,1.2,38,1,,,,,,,,,,,,,,,,,,,,,,,,,,,,,,,,,,,,,,,,,,,,,
,,,,,WIN24_036,21,female,2024-02-02_15h54.32.579,jersey_experiment_5,2023.2.2,Win32,84.74576271,,,,,,,,,,,,,,,,130.8649,132.1589,132.159,134.9352,return,0.3183,,55.59895833,0,16,16,47,1,FBP-PT-17.png,0.4,1.2,48,0.5,,,,,,,,,,,,,,,,,,,,,,,,,,,,,,,,,,,,,,,,,,,,,
,,,,,WIN24_036,21,female,2024-02-02_15h54.32.579,jersey_experiment_5,2023.2.2,Win32,84.74576271,,,,,,,,,,,,,,,,134.9356,136.2295,136.2296,138.0179,return,0.2162,,10.28645833,0,17,17,50,1,FBP-PT-18.png,0.35,1.2,51,0.5,,,,,,,,,,,,,,,,,,,,,,,,,,,,,,,,,,,,,,,,,,,,,
,,,,,WIN24_036,21,female,2024-02-02_15h54.32.579,jersey_experiment_5,2023.2.2,Win32,84.74576271,,,,,,,,,,,,,,,,138.0183,139.312,139.312,141.3001,return,0.2135,,99.609375,0,18,18,54,1,FBP-PT-18.png,0.45,1.2,55,0.5,,,,,,,,,,,,,,,,,,,,,,,,,,,,,,,,,,,,,,,,,,,,,
,,,,,WIN24_036,21,female,2024-02-02_15h54.32.579,jersey_experiment_5,2023.2.2,Win32,84.74576271,,,,,,,,,,,,,,,,141.3005,143.1004,143.1004,144.759,return,0.2357,,99.609375,0,19,19,39,1,FBP-YG-81.png,0.45,1.2,40,1,,,,,,,,,,,,,,,,,,,,,,,,,,,,,,,,,,,,,,,,,,,,,
,,,,,WIN24_036,21,female,2024-02-02_15h54.32.579,jersey_experiment_5,2023.2.2,Win32,84.74576271,,,,,,,,,,,,,,,,144.7594,146.0534,146.0534,147.8886,return,0.2056,,74.73958333,0,20,20,48,1,FBP-PT-17.png,0.43,1.2,49,0.5,,,,,,,,,,,,,,,,,,,,,,,,,,,,,,,,,,,,,,,,,,,,,
,,,,,WIN24_036,21,female,2024-02-02_15h54.32.579,jersey_experiment_5,2023.2.2,Win32,84.74576271,,,,,,,,,,,,,,,,147.8889,149.1829,149.183,150.9475,return,0.2611,,69.01041667,0,21,21,52,1,FBP-PT-18.png,0.4,1.2,53,0.5,,,,,,,,,,,,,,,,,,,,,,,,,,,,,,,,,,,,,,,,,,,,,
,,,,,WIN24_036,21,female,2024-02-02_15h54.32.579,jersey_experiment_5,2023.2.2,Win32,84.74576271,,,,,,,,,,,,,,,,150.9479,152.7491,152.7492,154.6418,return,0.4277,,9.505208333,0,22,22,15,1,FBP-RB-17.png,0.35,1.2,16,1,,,,,,,,,,,,,,,,,,,,,,,,,,,,,,,,,,,,,,,,,,,,,
,,,,,WIN24_036,21,female,2024-02-02_15h54.32.579,jersey_experiment_5,2023.2.2,Win32,84.74576271,,,,,,,,,,,,,,,,154.6423,156.4428,156.4428,157.6775,return,0.3147,,8.984375,0,23,23,30,1,FBP-YG-71.png,0.35,1.2,31,1,,,,,,,,,,,,,,,,,,,,,,,,,,,,,,,,,,,,,,,,,,,,,
,,,,,WIN24_036,21,female,2024-02-02_15h54.32.579,jersey_experiment_5,2023.2.2,Win32,84.74576271,,,,,,,,,,,,,,,,157.6779,159.4781,159.4782,160.4538,return,0.2004,,24.73958333,0,24,24,16,1,FBP-RB-17.png,0.37,1.2,17,1,,,,,,,,,,,,,,,,,,,,,,,,,,,,,,,,,,,,,,,,,,,,,
,,,,,WIN24_036,21,female,2024-02-02_15h54.32.579,jersey_experiment_5,2023.2.2,Win32,84.74576271,,,,,,,,,,,,,,,,160.4542,162.2541,162.2542,162.9009,return,0.1546,,24.73958333,0,25,25,31,1,FBP-YG-71.png,0.37,1.2,32,1,,,,,,,,,,,,,,,,,,,,,,,,,,,,,,,,,,,,,,,,,,,,,
,,,,,WIN24_036,21,female,2024-02-02_15h54.32.579,jersey_experiment_5,2023.2.2,Win32,84.74576271,,,,,,,,,,,,,,,,162.9014,164.702,164.7021,166.0305,return,0.1843,,99.73958333,0,26,26,29,1,FBP-RB-19.png,0.45,1.2,30,1,,,,,,,,,,,,,,,,,,,,,,,,,,,,,,,,,,,,,,,,,,,,,
,,,,,WIN24_036,21,female,2024-02-02_15h54.32.579,jersey_experiment_5,2023.2.2,Win32,84.74576271,,,,,,,,,,,,,,,,166.0309,167.3248,167.3248,170.5483,return,2.0139,,85.67708333,0,27,27,13,1,FBP-OG-91.png,0.43,1.2,14,0.5,,,,,,,,,,,,,,,,,,,,,,,,,,,,,,,,,,,,,,,,,,,,,
,,,,,WIN24_036,21,female,2024-02-02_15h54.32.579,jersey_experiment_5,2023.2.2,Win32,84.74576271,,,,,,,,,,,,,,,,170.5487,172.3485,172.3486,173.7013,return,0.2601,,58.85416667,0,28,28,21,1,FBP-RB-18.png,0.37,1.2,22,1,,,,,,,,,,,,,,,,,,,,,,,,,,,,,,,,,,,,,,,,,,,,,
,,,,,WIN24_036,21,female,2024-02-02_15h54.32.579,jersey_experiment_5,2023.2.2,Win32,84.74576271,,,,,,,,,,,,,,,,173.7018,175.5027,175.5028,177.5735,return,0.2472,,17.70833333,0,29,29,25,1,FBP-RB-19.png,0.35,1.2,26,1,,,,,,,,,,,,,,,,,,,,,,,,,,,,,,,,,,,,,,,,,,,,,
,,,,,WIN24_036,21,female,2024-02-02_15h54.32.579,jersey_experiment_5,2023.2.2,Win32,84.74576271,,,,,,,,,,,,,,,,177.5737,179.372,179.372,180.5485,return,0.1905,,87.63020833,0,30,30,24,1,FBP-RB-18.png,0.45,1.2,25,1,,,,,,,,,,,,,,,,,,,,,,,,,,,,,,,,,,,,,,,,,,,,,
,,,,,WIN24_036,21,female,2024-02-02_15h54.32.579,jersey_experiment_5,2023.2.2,Win32,84.74576271,,,,,,,,,,,,,,,,180.5487,182.3489,182.3489,183.0325,return,0.2003,,96.74479167,0,31,31,28,1,FBP-RB-19.png,0.43,1.2,29,1,,,,,,,,,,,,,,,,,,,,,,,,,,,,,,,,,,,,,,,,,,,,,
,,,,,WIN24_036,21,female,2024-02-02_15h54.32.579,jersey_experiment_5,2023.2.2,Win32,84.74576271,,,,,,,,,,,,,,,,183.0327,184.8324,184.8325,186.3739,return,0.3297,,25.13020833,0,32,32,40,1,FBP-YG-91.png,0.35,1.2,41,1,,,,,,,,,,,,,,,,,,,,,,,,,,,,,,,,,,,,,,,,,,,,,
,,,,,WIN24_036,21,female,2024-02-02_15h54.32.579,jersey_experiment_5,2023.2.2,Win32,84.74576271,,,,,,,,,,,,,,,,186.3739,187.6666,187.6667,189.5504,return,0.2002,,16.14583333,0,33,33,56,1,FBP-PT-19.png,0.37,1.2,57,0.5,,,,,,,,,,,,,,,,,,,,,,,,,,,,,,,,,,,,,,,,,,,,,
,,,,,WIN24_036,21,female,2024-02-02_15h54.32.579,jersey_experiment_5,2023.2.2,Win32,84.74576271,,,,,,,,,,,,,,,,189.5505,190.8433,190.8434,192.1492,return,0.1548,,6.901041667,0,34,34,0,1,FBP-OG-71.png,0.35,1.2,1,0.5,,,,,,,,,,,,,,,,,,,,,,,,,,,,,,,,,,,,,,,,,,,,,
,,,,,WIN24_036,21,female,2024-02-02_15h54.32.579,jersey_experiment_5,2023.2.2,Win32,84.74576271,,,,,,,,,,,,,,,,192.1493,193.4436,193.4436,195.5021,return,0.8198,,24.609375,0,35,35,5,1,FBP-OG-81.png,0.35,1.2,6,0.5,,,,,,,,,,,,,,,,,,,,,,,,,,,,,,,,,,,,,,,,,,,,,
,,,,,WIN24_036,21,female,2024-02-02_15h54.32.579,jersey_experiment_5,2023.2.2,Win32,84.74576271,,,,,,,,,,,,,,,,195.5024,197.3026,197.3026,199.7733,return,0.7285,,74.73958333,0,36,36,32,1,FBP-YG-71.png,0.4,1.2,33,1,,,,,,,,,,,,,,,,,,,,,,,,,,,,,,,,,,,,,,,,,,,,,
,,,,,WIN24_036,21,female,2024-02-02_15h54.32.579,jersey_experiment_5,2023.2.2,Win32,84.74576271,,,,,,,,,,,,,,,,199.7738,201.5743,201.5744,202.6803,return,0.5179,,83.46354167,0,37,37,38,1,FBP-YG-81.png,0.43,1.2,39,1,,,,,,,,,,,,,,,,,,,,,,,,,,,,,,,,,,,,,,,,,,,,,
,,,,,WIN24_036,21,female,2024-02-02_15h54.32.579,jersey_experiment_5,2023.2.2,Win32,84.74576271,,,,,,,,,,,,,,,,202.6806,203.9733,203.9734,205.3628,return,0.2239,,85.67708333,0,38,38,9,1,FBP-OG-81.png,0.45,1.2,10,0.5,,,,,,,,,,,,,,,,,,,,,,,,,,,,,,,,,,,,,,,,,,,,,
,,,,,WIN24_036,21,female,2024-02-02_15h54.32.579,jersey_experiment_5,2023.2.2,Win32,84.74576271,,,,,,,,,,,,,,,,205.3629,207.1625,207.1625,208.2096,return,0.6587,,99.86979167,0,39,39,19,1,FBP-RB-17.png,0.45,1.2,20,1,,,,,,,,,,,,,,,,,,,,,,,,,,,,,,,,,,,,,,,,,,,,,
,,,,,WIN24_036,21,female,2024-02-02_15h54.32.579,jersey_experiment_5,2023.2.2,Win32,84.74576271,,,,,,,,,,,,,,,,208.2098,209.504,209.504,211.5732,return,0.7426,,33.85416667,0,40,40,11,1,FBP-OG-91.png,0.37,1.2,12,0.5,,,,,,,,,,,,,,,,,,,,,,,,,,,,,,,,,,,,,,,,,,,,,
,,,,,WIN24_036,21,female,2024-02-02_15h54.32.579,jersey_experiment_5,2023.2.2,Win32,84.74576271,,,,,,,,,,,,,,,,211.5734,213.3733,213.3733,214.7381,return,0.2637,,11.45833333,0,41,41,20,1,FBP-RB-18.png,0.35,1.2,21,1,,,,,,,,,,,,,,,,,,,,,,,,,,,,,,,,,,,,,,,,,,,,,
,,,,,WIN24_036,21,female,2024-02-02_15h54.32.579,jersey_experiment_5,2023.2.2,Win32,84.74576271,,,,,,,,,,,,,,,,214.7382,216.0325,216.0327,218.2452,return,0.235,,79.03645833,0,42,42,59,1,FBP-PT-19.png,0.45,1.2,60,0.5,,,,,,,,,,,,,,,,,,,,,,,,,,,,,,,,,,,,,,,,,,,,,
,,,,,WIN24_036,21,female,2024-02-02_15h54.32.579,jersey_experiment_5,2023.2.2,Win32,84.74576271,,,,,,,,,,,,,,,,218.2454,220.0454,220.0454,221.6927,return,0.2119,,99.47916667,0,43,43,44,1,FBP-YG-91.png,0.45,1.2,45,1,,,,,,,,,,,,,,,,,,,,,,,,,,,,,,,,,,,,,,,,,,,,,
,,,,,WIN24_036,21,female,2024-02-02_15h54.32.579,jersey_experiment_5,2023.2.2,Win32,84.74576271,,,,,,,,,,,,,,,,221.6928,222.9857,222.9858,225.8092,return,0.3473,,0.390625,0,44,44,45,1,FBP-PT-17.png,0.35,1.2,46,0.5,,,,,,,,,,,,,,,,,,,,,,,,,,,,,,,,,,,,,,,,,,,,,
,,,,,WIN24_036,21,female,2024-02-02_15h54.32.579,jersey_experiment_5,2023.2.2,Win32,84.74576271,,,,,,,,,,,,,,,,225.8096,227.1047,227.1047,228.7517,return,0.1886,,80.33854167,0,45,45,4,1,FBP-OG-71.png,0.45,1.2,5,0.5,,,,,,,,,,,,,,,,,,,,,,,,,,,,,,,,,,,,,,,,,,,,,
,,,,,WIN24_036,21,female,2024-02-02_15h54.32.579,jersey_experiment_5,2023.2.2,Win32,84.74576271,,,,,,,,,,,,,,,,228.7519,230.5503,230.5503,232.8226,return,0.4119,,86.45833333,0,46,46,17,1,FBP-RB-17.png,0.4,1.2,18,1,,,,,,,,,,,,,,,,,,,,,,,,,,,,,,,,,,,,,,,,,,,,,
,,,,,WIN24_036,21,female,2024-02-02_15h54.32.579,jersey_experiment_5,2023.2.2,Win32,84.74576271,,,,,,,,,,,,,,,,232.8227,234.1156,234.1156,235.539,return,0.1926,,24.609375,0,47,47,6,1,FBP-OG-81.png,0.37,1.2,7,0.5,,,,,,,,,,,,,,,,,,,,,,,,,,,,,,,,,,,,,,,,,,,,,
,,,,,WIN24_036,21,female,2024-02-02_15h54.32.579,jersey_experiment_5,2023.2.2,Win32,84.74576271,,,,,,,,,,,,,,,,235.5395,237.3389,237.3389,238.3403,return,0.1531,,39.97395833,0,48,48,27,1,FBP-RB-19.png,0.4,1.2,28,1,,,,,,,,,,,,,,,,,,,,,,,,,,,,,,,,,,,,,,,,,,,,,
,,,,,WIN24_036,21,female,2024-02-02_15h54.32.579,jersey_experiment_5,2023.2.2,Win32,84.74576271,,,,,,,,,,,,,,,,238.3404,239.6334,239.6335,241.917,return,0.9766,,61.58854167,0,49,49,3,1,FBP-OG-71.png,0.43,1.2,4,0.5,,,,,,,,,,,,,,,,,,,,,,,,,,,,,,,,,,,,,,,,,,,,,
,,,,,WIN24_036,21,female,2024-02-02_15h54.32.579,jersey_experiment_5,2023.2.2,Win32,84.74576271,,,,,,,,,,,,,,,,241.9171,243.2101,243.2101,245.7641,return,0.153,,49.73958333,0,50,50,2,1,FBP-OG-71.png,0.4,1.2,3,0.5,,,,,,,,,,,,,,,,,,,,,,,,,,,,,,,,,,,,,,,,,,,,,
,,,,,WIN24_036,21,female,2024-02-02_15h54.32.579,jersey_experiment_5,2023.2.2,Win32,84.74576271,,,,,,,,,,,,,,,,245.7642,247.564,247.5641,248.5629,return,0.1916,,24.21875,0,51,51,26,1,FBP-RB-19.png,0.37,1.2,27,1,,,,,,,,,,,,,,,,,,,,,,,,,,,,,,,,,,,,,,,,,,,,,
,,,,,WIN24_036,21,female,2024-02-02_15h54.32.579,jersey_experiment_5,2023.2.2,Win32,84.74576271,,,,,,,,,,,,,,,,248.5633,250.3642,250.3642,254.7408,return,2.7883,,68.359375,0,52,52,43,1,FBP-YG-91.png,0.43,1.2,44,1,,,,,,,,,,,,,,,,,,,,,,,,,,,,,,,,,,,,,,,,,,,,,
,,,,,WIN24_036,21,female,2024-02-02_15h54.32.579,jersey_experiment_5,2023.2.2,Win32,84.74576271,,,,,,,,,,,,,,,,254.7449,256.5399,256.54,257.9528,return,0.1886,,86.19791667,0,53,53,18,1,FBP-RB-17.png,0.43,1.2,19,1,,,,,,,,,,,,,,,,,,,,,,,,,,,,,,,,,,,,,,,,,,,,,
,,,,,WIN24_036,21,female,2024-02-02_15h54.32.579,jersey_experiment_5,2023.2.2,Win32,84.74576271,,,,,,,,,,,,,,,,257.953,259.2458,259.2459,261.3988,return,1.5656,,49.34895833,0,54,54,8,1,FBP-OG-81.png,0.43,1.2,9,0.5,,,,,,,,,,,,,,,,,,,,,,,,,,,,,,,,,,,,,,,,,,,,,
,,,,,WIN24_036,21,female,2024-02-02_15h54.32.579,jersey_experiment_5,2023.2.2,Win32,84.74576271,,,,,,,,,,,,,,,,261.3992,263.1997,263.1997,264.0812,return,0.1227,,24.609375,0,55,55,41,1,FBP-YG-91.png,0.37,1.2,42,1,,,,,,,,,,,,,,,,,,,,,,,,,,,,,,,,,,,,,,,,,,,,,
,,,,,WIN24_036,21,female,2024-02-02_15h54.32.579,jersey_experiment_5,2023.2.2,Win32,84.74576271,,,,,,,,,,,,,,,,264.0815,265.3755,265.3756,266.2694,return,0.1148,,24.609375,0,56,56,57,1,FBP-PT-19.png,0.4,1.2,58,0.5,,,,,,,,,,,,,,,,,,,,,,,,,,,,,,,,,,,,,,,,,,,,,
,,,,,WIN24_036,21,female,2024-02-02_15h54.32.579,jersey_experiment_5,2023.2.2,Win32,84.74576271,,,,,,,,,,,,,,,,266.2698,267.5638,267.5638,270.0225,return,0.7307,,38.671875,0,57,57,51,1,FBP-PT-18.png,0.37,1.2,52,0.5,,,,,,,,,,,,,,,,,,,,,,,,,,,,,,,,,,,,,,,,,,,,,
,,,,,WIN24_036,21,female,2024-02-02_15h54.32.579,jersey_experiment_5,2023.2.2,Win32,84.74576271,,,,,,,,,,,,,,,,270.023,271.3169,271.3169,286.6467,return,0.6252,,6.25,0,58,58,55,1,FBP-PT-19.png,0.35,1.2,56,0.5,,,,,,,,,,,,,,,,,,,,,,,,,,,,,,,,,,,,,,,,,,,,,
,,,,,WIN24_036,21,female,2024-02-02_15h54.32.579,jersey_experiment_5,2023.2.2,Win32,84.74576271,,,,,,,,,,,,,,,,286.6473,288.4481,288.4481,290.2248,return,0.4236,,92.05729167,0,59,59,34,1,FBP-YG-71.png,0.45,1.2,35,1,,,,,,,,,,,,,,,,,,,,,,,,,,,,,,,,,,,,,,,,,,,,,
,,,,,WIN24_036,21,female,2024-02-02_15h54.32.579,jersey_experiment_5,2023.2.2,Win32,84.74576271,,,,,,,,,,,,,,,,290.2277,291.5295,291.5296,293.3175,return,0.9425,,74.609375,,,,,,FBP-PT-71.png,0.45,1.2,50,0.5,0,0,0,49,1,,,,,,,,,,,,,,,,,,,,,,,,,,,,,,,,,,,,,,,,
,,,,,WIN24_036,21,female,2024-02-02_15h54.32.579,jersey_experiment_5,2023.2.2,Win32,84.74576271,,,,,,,,,,,,,,,,293.3176,295.1176,295.1176,295.9189,return,0.165,,24.73958333,,,,,,FBP-YG-17.png,0.35,1.2,31,1,0,1,1,30,1,,,,,,,,,,,,,,,,,,,,,,,,,,,,,,,,,,,,,,,,
,,,,,WIN24_036,21,female,2024-02-02_15h54.32.579,jersey_experiment_5,2023.2.2,Win32,84.74576271,,,,,,,,,,,,,,,,295.9192,297.212,297.2121,298.1294,return,0.1584,,20.57291667,,,,,,FBP-OG-19.png,0.37,1.2,12,0.5,0,2,2,11,1,,,,,,,,,,,,,,,,,,,,,,,,,,,,,,,,,,,,,,,,
,,,,,WIN24_036,21,female,2024-02-02_15h54.32.579,jersey_experiment_5,2023.2.2,Win32,84.74576271,,,,,,,,,,,,,,,,298.1295,299.4238,299.4238,301.8132,return,0.1873,,75.26041667,,,,,,FBP-PT-91.png,0.45,1.2,60,0.5,0,3,3,59,1,,,,,,,,,,,,,,,,,,,,,,,,,,,,,,,,,,,,,,,,
,,,,,WIN24_036,21,female,2024-02-02_15h54.32.579,jersey_experiment_5,2023.2.2,Win32,84.74576271,,,,,,,,,,,,,,,,301.8133,303.1074,303.1074,305.2003,return,0.2535,,34.50520833,,,,,,FBP-OG-19.png,0.4,1.2,13,0.5,0,4,4,12,1,,,,,,,,,,,,,,,,,,,,,,,,,,,,,,,,,,,,,,,,
,,,,,WIN24_036,21,female,2024-02-02_15h54.32.579,jersey_experiment_5,2023.2.2,Win32,84.74576271,,,,,,,,,,,,,,,,305.2006,306.4958,306.4958,309.4253,return,0.8827,,13.80208333,,,,,,FBP-PT-91.png,0.35,1.2,56,0.5,0,5,5,55,1,,,,,,,,,,,,,,,,,,,,,,,,,,,,,,,,,,,,,,,,
,,,,,WIN24_036,21,female,2024-02-02_15h54.32.579,jersey_experiment_5,2023.2.2,Win32,84.74576271,,,,,,,,,,,,,,,,309.4255,311.2254,311.2254,312.7535,return,0.6408,,84.11458333,,,,,,FBP-YG-19.png,0.45,1.2,45,1,0,6,6,44,1,,,,,,,,,,,,,,,,,,,,,,,,,,,,,,,,,,,,,,,,
,,,,,WIN24_036,21,female,2024-02-02_15h54.32.579,jersey_experiment_5,2023.2.2,Win32,84.74576271,,,,,,,,,,,,,,,,312.7538,314.048,314.0481,315.5065,return,0.1575,,74.34895833,,,,,,FBP-PT-91.png,0.4,1.2,58,0.5,0,7,7,57,1,,,,,,,,,,,,,,,,,,,,,,,,,,,,,,,,,,,,,,,,
,,,,,WIN24_036,21,female,2024-02-02_15h54.32.579,jersey_experiment_5,2023.2.2,Win32,84.74576271,,,,,,,,,,,,,,,,315.5069,317.3067,317.3067,318.0832,return,0.2393,,87.890625,,,,,,FBP-RB-91.png,0.43,1.2,29,1,0,8,8,28,1,,,,,,,,,,,,,,,,,,,,,,,,,,,,,,,,,,,,,,,,
,,,,,WIN24_036,21,female,2024-02-02_15h54.32.579,jersey_experiment_5,2023.2.2,Win32,84.74576271,,,,,,,,,,,,,,,,318.0837,319.3775,319.3775,320.9904,return,0.2823,,7.291666667,,,,,,FBP-PT-71.png,0.35,1.2,46,0.5,0,9,9,45,1,,,,,,,,,,,,,,,,,,,,,,,,,,,,,,,,,,,,,,,,
,,,,,WIN24_036,21,female,2024-02-02_15h54.32.579,jersey_experiment_5,2023.2.2,Win32,84.74576271,,,,,,,,,,,,,,,,320.9905,322.7893,322.7894,323.8716,return,0.1842,,2.994791667,,,,,,FBP-YG-19.png,0.35,1.2,41,1,0,10,10,40,1,,,,,,,,,,,,,,,,,,,,,,,,,,,,,,,,,,,,,,,,
,,,,,WIN24_036,21,female,2024-02-02_15h54.32.579,jersey_experiment_5,2023.2.2,Win32,84.74576271,,,,,,,,,,,,,,,,323.8721,325.1661,325.1662,326.8718,return,0.2484,,59.24479167,,,,,,FBP-OG-18.png,0.4,1.2,8,0.5,0,11,11,7,1,,,,,,,,,,,,,,,,,,,,,,,,,,,,,,,,,,,,,,,,
,,,,,WIN24_036,21,female,2024-02-02_15h54.32.579,jersey_experiment_5,2023.2.2,Win32,84.74576271,,,,,,,,,,,,,,,,326.8721,328.1661,328.1661,329.6952,return,0.114,,50,,,,,,FBP-PT-71.png,0.37,1.2,47,0.5,0,12,12,46,1,,,,,,,,,,,,,,,,,,,,,,,,,,,,,,,,,,,,,,,,
,,,,,WIN24_036,21,female,2024-02-02_15h54.32.579,jersey_experiment_5,2023.2.2,Win32,84.74576271,,,,,,,,,,,,,,,,329.6954,331.4955,331.4957,333.3777,return,0.1699,,62.109375,,,,,,FBP-YG-19.png,0.4,1.2,43,1,0,13,13,42,1,,,,,,,,,,,,,,,,,,,,,,,,,,,,,,,,,,,,,,,,
,,,,,WIN24_036,21,female,2024-02-02_15h54.32.579,jersey_experiment_5,2023.2.2,Win32,84.74576271,,,,,,,,,,,,,,,,333.3779,335.1787,335.1788,336.3427,return,0.3064,,24.08854167,,,,,,FBP-YG-18.png,0.35,1.2,36,1,0,14,14,35,1,,,,,,,,,,,,,,,,,,,,,,,,,,,,,,,,,,,,,,,,
,,,,,WIN24_036,21,female,2024-02-02_15h54.32.579,jersey_experiment_5,2023.2.2,Win32,84.74576271,,,,,,,,,,,,,,,,336.343,338.1429,338.143,338.7663,return,0.1141,,24.08854167,,,,,,FBP-RB-71.png,0.37,1.2,17,1,0,15,15,16,1,,,,,,,,,,,,,,,,,,,,,,,,,,,,,,,,,,,,,,,,
,,,,,WIN24_036,21,female,2024-02-02_15h54.32.579,jersey_experiment_5,2023.2.2,Win32,84.74576271,,,,,,,,,,,,,,,,338.7666,340.5665,340.5666,342.2606,return,1.0608,,34.765625,,,,,,FBP-YG-17.png,0.37,1.2,32,1,0,16,16,31,1,,,,,,,,,,,,,,,,,,,,,,,,,,,,,,,,,,,,,,,,
,,,,,WIN24_036,21,female,2024-02-02_15h54.32.579,jersey_experiment_5,2023.2.2,Win32,84.74576271,,,,,,,,,,,,,,,,342.261,344.0607,344.0608,345.1194,return,0.1952,,85.41666667,,,,,,FBP-RB-81.png,0.45,1.2,25,1,0,17,17,24,1,,,,,,,,,,,,,,,,,,,,,,,,,,,,,,,,,,,,,,,,
,,,,,WIN24_036,21,female,2024-02-02_15h54.32.579,jersey_experiment_5,2023.2.2,Win32,84.74576271,,,,,,,,,,,,,,,,345.1199,346.4138,346.4138,348.1313,return,0.8266,,80.72916667,,,,,,FBP-PT-91.png,0.43,1.2,59,0.5,0,18,18,58,1,,,,,,,,,,,,,,,,,,,,,,,,,,,,,,,,,,,,,,,,
,,,,,WIN24_036,21,female,2024-02-02_15h54.32.579,jersey_experiment_5,2023.2.2,Win32,84.74576271,,,,,,,,,,,,,,,,348.1317,349.9318,349.9319,351.3197,return,0.7068,,80.33854167,,,,,,FBP-YG-18.png,0.4,1.2,38,1,0,19,19,37,1,,,,,,,,,,,,,,,,,,,,,,,,,,,,,,,,,,,,,,,,
,,,,,WIN24_036,21,female,2024-02-02_15h54.32.579,jersey_experiment_5,2023.2.2,Win32,84.74576271,,,,,,,,,,,,,,,,351.3201,353.1208,353.1209,355.6493,return,1.5343,,92.96875,,,,,,FBP-YG-17.png,0.45,1.2,35,1,0,20,20,34,1,,,,,,,,,,,,,,,,,,,,,,,,,,,,,,,,,,,,,,,,
,,,,,WIN24_036,21,female,2024-02-02_15h54.32.579,jersey_experiment_5,2023.2.2,Win32,84.74576271,,,,,,,,,,,,,,,,355.6497,356.9442,356.9442,359.1082,return,1.1665,,13.02083333,,,,,,FBP-PT-81.png,0.35,1.2,51,0.5,0,21,21,50,1,,,,,,,,,,,,,,,,,,,,,,,,,,,,,,,,,,,,,,,,
,,,,,WIN24_036,21,female,2024-02-02_15h54.32.579,jersey_experiment_5,2023.2.2,Win32,84.74576271,,,,,,,,,,,,,,,,359.1087,360.4026,360.4026,362.673,return,1.1466,,63.02083333,,,,,,FBP-PT-71.png,0.43,1.2,49,0.5,0,22,22,48,1,,,,,,,,,,,,,,,,,,,,,,,,,,,,,,,,,,,,,,,,
,,,,,WIN24_036,21,female,2024-02-02_15h54.32.579,jersey_experiment_5,2023.2.2,Win32,84.74576271,,,,,,,,,,,,,,,,362.6735,364.4732,364.4734,368.0968,return,2.4055,,81.77083333,,,,,,FBP-YG-19.png,0.43,1.2,44,1,0,23,23,43,1,,,,,,,,,,,,,,,,,,,,,,,,,,,,,,,,,,,,,,,,
,,,,,WIN24_036,21,female,2024-02-02_15h54.32.579,jersey_experiment_5,2023.2.2,Win32,84.74576271,,,,,,,,,,,,,,,,368.0972,369.3911,369.3911,371.0734,return,0.3341,,1.432291667,,,,,,FBP-OG-18.png,0.35,1.2,6,0.5,0,24,24,5,1,,,,,,,,,,,,,,,,,,,,,,,,,,,,,,,,,,,,,,,,
,,,,,WIN24_036,21,female,2024-02-02_15h54.32.579,jersey_experiment_5,2023.2.2,Win32,84.74576271,,,,,,,,,,,,,,,,371.0738,372.3677,372.3678,374.5323,return,1.0839,,83.984375,,,,,,FBP-PT-81.png,0.45,1.2,55,0.5,0,25,25,54,1,,,,,,,,,,,,,,,,,,,,,,,,,,,,,,,,,,,,,,,,
,,,,,WIN24_036,21,female,2024-02-02_15h54.32.579,jersey_experiment_5,2023.2.2,Win32,84.74576271,,,,,,,,,,,,,,,,374.5327,375.8267,375.8267,377.203,return,0.4504,,6.25,,,,,,FBP-OG-17.png,0.35,1.2,1,0.5,0,26,26,0,1,,,,,,,,,,,,,,,,,,,,,,,,,,,,,,,,,,,,,,,,
,,,,,WIN24_036,21,female,2024-02-02_15h54.32.579,jersey_experiment_5,2023.2.2,Win32,84.74576271,,,,,,,,,,,,,,,,377.2034,379.0044,379.0044,380.4501,return,0.1812,,74.609375,,,,,,FBP-RB-81.png,0.43,1.2,24,1,0,27,27,23,1,,,,,,,,,,,,,,,,,,,,,,,,,,,,,,,,,,,,,,,,
,,,,,WIN24_036,21,female,2024-02-02_15h54.32.579,jersey_experiment_5,2023.2.2,Win32,84.74576271,,,,,,,,,,,,,,,,380.4503,382.2516,382.2516,382.9808,return,0.1757,,94.40104167,,,,,,FBP-YG-18.png,0.45,1.2,40,1,0,28,28,39,1,,,,,,,,,,,,,,,,,,,,,,,,,,,,,,,,,,,,,,,,
,,,,,WIN24_036,21,female,2024-02-02_15h54.32.579,jersey_experiment_5,2023.2.2,Win32,84.74576271,,,,,,,,,,,,,,,,382.981,384.7799,384.78,386.6756,return,0.1767,,24.609375,,,,,,FBP-RB-81.png,0.37,1.2,22,1,0,29,29,21,1,,,,,,,,,,,,,,,,,,,,,,,,,,,,,,,,,,,,,,,,
,,,,,WIN24_036,21,female,2024-02-02_15h54.32.579,jersey_experiment_5,2023.2.2,Win32,84.74576271,,,,,,,,,,,,,,,,386.676,388.4742,388.4742,389.6637,return,0.1648,,5.208333333,,,,,,FBP-RB-71.png,0.35,1.2,16,1,0,30,30,15,1,,,,,,,,,,,,,,,,,,,,,,,,,,,,,,,,,,,,,,,,
,,,,,WIN24_036,21,female,2024-02-02_15h54.32.579,jersey_experiment_5,2023.2.2,Win32,84.74576271,,,,,,,,,,,,,,,,389.6638,390.9578,390.9578,392.0858,return,0.2249,,81.77083333,,,,,,FBP-OG-18.png,0.43,1.2,9,0.5,0,31,31,8,1,,,,,,,,,,,,,,,,,,,,,,,,,,,,,,,,,,,,,,,,
,,,,,WIN24_036,21,female,2024-02-02_15h54.32.579,jersey_experiment_5,2023.2.2,Win32,84.74576271,,,,,,,,,,,,,,,,392.086,393.8872,393.8873,395.2978,return,0.3705,,86.328125,,,,,,FBP-RB-71.png,0.43,1.2,19,1,0,32,32,18,1,,,,,,,,,,,,,,,,,,,,,,,,,,,,,,,,,,,,,,,,
,,,,,WIN24_036,21,female,2024-02-02_15h54.32.579,jersey_experiment_5,2023.2.2,Win32,84.74576271,,,,,,,,,,,,,,,,395.2982,396.5922,396.5924,400.6862,return,0.6325,,76.82291667,,,,,,FBP-OG-17.png,0.45,1.2,5,0.5,0,33,33,4,1,,,,,,,,,,,,,,,,,,,,,,,,,,,,,,,,,,,,,,,,
,,,,,WIN24_036,21,female,2024-02-02_15h54.32.579,jersey_experiment_5,2023.2.2,Win32,84.74576271,,,,,,,,,,,,,,,,400.6865,401.9806,401.9807,404.2407,return,0.9766,,11.84895833,,,,,,FBP-PT-91.png,0.37,1.2,57,0.5,0,34,34,56,1,,,,,,,,,,,,,,,,,,,,,,,,,,,,,,,,,,,,,,,,
,,,,,WIN24_036,21,female,2024-02-02_15h54.32.579,jersey_experiment_5,2023.2.2,Win32,84.74576271,,,,,,,,,,,,,,,,404.2409,405.5336,405.5337,406.557,return,0.1866,,8.333333333,,,,,,FBP-OG-18.png,0.37,1.2,7,0.5,0,35,35,6,1,,,,,,,,,,,,,,,,,,,,,,,,,,,,,,,,,,,,,,,,
,,,,,WIN24_036,21,female,2024-02-02_15h54.32.579,jersey_experiment_5,2023.2.2,Win32,84.74576271,,,,,,,,,,,,,,,,406.5572,407.8514,407.8515,409.2041,return,0.1558,,21.35416667,,,,,,FBP-OG-17.png,0.37,1.2,2,0.5,0,36,36,1,1,,,,,,,,,,,,,,,,,,,,,,,,,,,,,,,,,,,,,,,,
,,,,,WIN24_036,21,female,2024-02-02_15h54.32.579,jersey_experiment_5,2023.2.2,Win32,84.74576271,,,,,,,,,,,,,,,,409.2041,411.0045,411.0046,412.722,return,0.1937,,11.328125,,,,,,FBP-RB-91.png,0.37,1.2,27,1,0,37,37,26,1,,,,,,,,,,,,,,,,,,,,,,,,,,,,,,,,,,,,,,,,
,,,,,WIN24_036,21,female,2024-02-02_15h54.32.579,jersey_experiment_5,2023.2.2,Win32,84.74576271,,,,,,,,,,,,,,,,412.7224,414.5223,414.5223,416.0057,return,0.2589,,74.21875,,,,,,FBP-YG-18.png,0.43,1.2,39,1,0,38,38,38,1,,,,,,,,,,,,,,,,,,,,,,,,,,,,,,,,,,,,,,,,
,,,,,WIN24_036,21,female,2024-02-02_15h54.32.579,jersey_experiment_5,2023.2.2,Win32,84.74576271,,,,,,,,,,,,,,,,416.0059,417.8053,417.8053,418.3824,return,0.1884,,74.21875,,,,,,FBP-YG-17.png,0.4,1.2,33,1,0,39,39,32,1,,,,,,,,,,,,,,,,,,,,,,,,,,,,,,,,,,,,,,,,
,,,,,WIN24_036,21,female,2024-02-02_15h54.32.579,jersey_experiment_5,2023.2.2,Win32,84.74576271,,,,,,,,,,,,,,,,418.3826,419.6754,419.6755,421.1119,return,0.8002,,87.5,,,,,,FBP-PT-81.png,0.43,1.2,54,0.5,0,40,40,53,1,,,,,,,,,,,,,,,,,,,,,,,,,,,,,,,,,,,,,,,,
,,,,,WIN24_036,21,female,2024-02-02_15h54.32.579,jersey_experiment_5,2023.2.2,Win32,84.74576271,,,,,,,,,,,,,,,,421.1122,422.9106,422.9106,425.4872,return,0.1845,,61.84895833,,,,,,FBP-YG-19.png,0.37,1.2,42,1,0,41,41,41,1,,,,,,,,,,,,,,,,,,,,,,,,,,,,,,,,,,,,,,,,
,,,,,WIN24_036,21,female,2024-02-02_15h54.32.579,jersey_experiment_5,2023.2.2,Win32,84.74576271,,,,,,,,,,,,,,,,425.4874,426.7815,426.7816,429.8769,return,1.5179,,88.41145833,,,,,,FBP-OG-19.png,0.45,1.2,15,0.5,0,42,42,14,1,,,,,,,,,,,,,,,,,,,,,,,,,,,,,,,,,,,,,,,,
,,,,,WIN24_036,21,female,2024-02-02_15h54.32.579,jersey_experiment_5,2023.2.2,Win32,84.74576271,,,,,,,,,,,,,,,,429.8771,431.1705,431.1705,432.7596,return,0.4945,,24.609375,,,,,,FBP-OG-19.png,0.35,1.2,11,0.5,0,43,43,10,1,,,,,,,,,,,,,,,,,,,,,,,,,,,,,,,,,,,,,,,,
,,,,,WIN24_036,21,female,2024-02-02_15h54.32.579,jersey_experiment_5,2023.2.2,Win32,84.74576271,,,,,,,,,,,,,,,,432.7598,434.5583,434.5584,437.8416,return,2.4352,,24.73958333,,,,,,FBP-RB-91.png,0.35,1.2,26,1,0,44,44,25,1,,,,,,,,,,,,,,,,,,,,,,,,,,,,,,,,,,,,,,,,
,,,,,WIN24_036,21,female,2024-02-02_15h54.32.579,jersey_experiment_5,2023.2.2,Win32,84.74576271,,,,,,,,,,,,,,,,437.8417,439.6405,439.6406,440.7244,return,0.2237,,88.28125,,,,,,FBP-RB-71.png,0.45,1.2,20,1,0,45,45,19,1,,,,,,,,,,,,,,,,,,,,,,,,,,,,,,,,,,,,,,,,
,,,,,WIN24_036,21,female,2024-02-02_15h54.32.579,jersey_experiment_5,2023.2.2,Win32,84.74576271,,,,,,,,,,,,,,,,440.7245,442.0173,442.0174,443.3127,return,0.106,,74.86979167,,,,,,FBP-OG-19.png,0.43,1.2,14,0.5,0,46,46,13,1,,,,,,,,,,,,,,,,,,,,,,,,,,,,,,,,,,,,,,,,
,,,,,WIN24_036,21,female,2024-02-02_15h54.32.579,jersey_experiment_5,2023.2.2,Win32,84.74576271,,,,,,,,,,,,,,,,443.3128,445.1127,445.1127,446.054,return,0.1643,,23.30729167,,,,,,FBP-RB-81.png,0.35,1.2,21,1,0,47,47,20,1,,,,,,,,,,,,,,,,,,,,,,,,,,,,,,,,,,,,,,,,
,,,,,WIN24_036,21,female,2024-02-02_15h54.32.579,jersey_experiment_5,2023.2.2,Win32,84.74576271,,,,,,,,,,,,,,,,446.0542,447.8529,447.853,449.2057,return,0.2846,,75,,,,,,FBP-RB-81.png,0.4,1.2,23,1,0,48,48,22,1,,,,,,,,,,,,,,,,,,,,,,,,,,,,,,,,,,,,,,,,
,,,,,WIN24_036,21,female,2024-02-02_15h54.32.579,jersey_experiment_5,2023.2.2,Win32,84.74576271,,,,,,,,,,,,,,,,449.2061,450.5001,450.5001,451.206,return,0.1779,,75,,,,,,FBP-PT-71.png,0.4,1.2,48,0.5,0,49,49,47,1,,,,,,,,,,,,,,,,,,,,,,,,,,,,,,,,,,,,,,,,
,,,,,WIN24_036,21,female,2024-02-02_15h54.32.579,jersey_experiment_5,2023.2.2,Win32,84.74576271,,,,,,,,,,,,,,,,451.2062,453.0059,453.0059,453.7118,return,0.196,,84.24479167,,,,,,FBP-RB-71.png,0.4,1.2,18,1,0,50,50,17,1,,,,,,,,,,,,,,,,,,,,,,,,,,,,,,,,,,,,,,,,
,,,,,WIN24_036,21,female,2024-02-02_15h54.32.579,jersey_experiment_5,2023.2.2,Win32,84.74576271,,,,,,,,,,,,,,,,453.7121,455.0062,455.0062,455.7119,return,0.1606,,84.24479167,,,,,,FBP-PT-81.png,0.4,1.2,53,0.5,0,51,51,52,1,,,,,,,,,,,,,,,,,,,,,,,,,,,,,,,,,,,,,,,,
,,,,,WIN24_036,21,female,2024-02-02_15h54.32.579,jersey_experiment_5,2023.2.2,Win32,84.74576271,,,,,,,,,,,,,,,,455.7122,457.0063,457.0064,458.5119,return,0.2189,,76.04166667,,,,,,FBP-PT-81.png,0.37,1.2,52,0.5,0,52,52,51,1,,,,,,,,,,,,,,,,,,,,,,,,,,,,,,,,,,,,,,,,
,,,,,WIN24_036,21,female,2024-02-02_15h54.32.579,jersey_experiment_5,2023.2.2,Win32,84.74576271,,,,,,,,,,,,,,,,458.5121,460.3118,460.3118,461.0884,return,0.242,,88.41145833,,,,,,FBP-YG-17.png,0.43,1.2,34,1,0,53,53,33,1,,,,,,,,,,,,,,,,,,,,,,,,,,,,,,,,,,,,,,,,
,,,,,WIN24_036,21,female,2024-02-02_15h54.32.579,jersey_experiment_5,2023.2.2,Win32,84.74576271,,,,,,,,,,,,,,,,461.0885,462.8884,462.8884,463.4532,return,0.1985,,94.27083333,,,,,,FBP-RB-91.png,0.45,1.2,30,1,0,54,54,29,1,,,,,,,,,,,,,,,,,,,,,,,,,,,,,,,,,,,,,,,,
,,,,,WIN24_036,21,female,2024-02-02_15h54.32.579,jersey_experiment_5,2023.2.2,Win32,84.74576271,,,,,,,,,,,,,,,,463.4536,464.7483,464.7483,465.8312,return,0.294,,91.796875,,,,,,FBP-OG-18.png,0.45,1.2,10,0.5,0,55,55,9,1,,,,,,,,,,,,,,,,,,,,,,,,,,,,,,,,,,,,,,,,
,,,,,WIN24_036,21,female,2024-02-02_15h54.32.579,jersey_experiment_5,2023.2.2,Win32,84.74576271,,,,,,,,,,,,,,,,465.8313,467.6301,467.6301,471.3611,return,3.0711,,75,,,,,,FBP-RB-91.png,0.4,1.2,28,1,0,56,56,27,1,,,,,,,,,,,,,,,,,,,,,,,,,,,,,,,,,,,,,,,,
,,,,,WIN24_036,21,female,2024-02-02_15h54.32.579,jersey_experiment_5,2023.2.2,Win32,84.74576271,,,,,,,,,,,,,,,,471.3613,472.6537,472.6538,474.1476,return,0.4034,,50.65104167,,,,,,FBP-OG-17.png,0.4,1.2,3,0.5,0,57,57,2,1,,,,,,,,,,,,,,,,,,,,,,,,,,,,,,,,,,,,,,,,
,,,,,WIN24_036,21,female,2024-02-02_15h54.32.579,jersey_experiment_5,2023.2.2,Win32,84.74576271,,,,,,,,,,,,,,,,474.1479,475.4422,475.4422,476.4195,return,0.2237,,73.30729167,,,,,,FBP-OG-17.png,0.43,1.2,4,0.5,0,58,58,3,1,,,,,,,,,,,,,,,,,,,,,,,,,,,,,,,,,,,,,,,,
,,,,,WIN24_036,21,female,2024-02-02_15h54.32.579,jersey_experiment_5,2023.2.2,Win32,84.74576271,,,,,,,,,,,,,,,,476.4197,478.2185,478.2185,479.5362,return,0.1717,,24.86979167,,,,,,FBP-YG-18.png,0.37,1.2,37,1,0,59,59,36,1,,,,,,,,,,,,,,,,,,,,,,,,,,,,,,,,,,,,,,,,
,,,,,WIN24_036,21,female,2024-02-02_15h54.32.579,jersey_experiment_5,2023.2.2,Win32,84.74576271,,,,,,,,,,,,,,,,,,,,,,,,,,,,,,,,,,,,,,,479.5366,599.5422,,,,,,,,,,,,,,,,,,,,,,,,,,,,,,,,,,,,,,
,,,,,WIN24_036,21,female,2024-02-02_15h54.32.579,jersey_experiment_5,2023.2.2,Win32,84.74576271,,,,,,,,,,,,,,,,,,,,,,,,,,,,,,,,,,,,,,,,,599.5427,602.7764,return,3.2132,,,,,,,,,,,,,,,,,,,,,,,,,,,,,,,,,,
,,,,,WIN24_036,21,female,2024-02-02_15h54.32.579,jersey_experiment_5,2023.2.2,Win32,84.74576271,,,,,,,,,,,,,,,,602.7898,604.082,604.082,606.4835,return,1.0708,,73.95833333,,,,,,FBP-YG-71.png,0.43,1.2,34,0.5,,,,,,,,,,,,,0,0,0,33,1,,,,,,,,,,,,,,,,,,,,,,,,,,,,
,,,,,WIN24_036,21,female,2024-02-02_15h54.32.579,jersey_experiment_5,2023.2.2,Win32,84.74576271,,,,,,,,,,,,,,,,606.4836,607.7774,607.7776,608.7175,return,0.1157,,84.89583333,,,,,,FBP-RB-17.png,0.43,1.2,19,0.5,,,,,,,,,,,,,0,1,1,18,1,,,,,,,,,,,,,,,,,,,,,,,,,,,,
,,,,,WIN24_036,21,female,2024-02-02_15h54.32.579,jersey_experiment_5,2023.2.2,Win32,84.74576271,,,,,,,,,,,,,,,,608.7178,610.5187,610.5187,611.1658,return,0.1294,,75,,,,,,FBP-PT-17.png,0.43,1.2,49,1,,,,,,,,,,,,,0,2,2,48,1,,,,,,,,,,,,,,,,,,,,,,,,,,,,
,,,,,WIN24_036,21,female,2024-02-02_15h54.32.579,jersey_experiment_5,2023.2.2,Win32,84.74576271,,,,,,,,,,,,,,,,611.166,612.966,612.966,613.9424,return,0.0824,,25.13020833,,,,,,FBP-PT-17.png,0.35,1.2,46,1,,,,,,,,,,,,,0,3,3,45,1,,,,,,,,,,,,,,,,,,,,,,,,,,,,
,,,,,WIN24_036,21,female,2024-02-02_15h54.32.579,jersey_experiment_5,2023.2.2,Win32,84.74576271,,,,,,,,,,,,,,,,613.9426,615.2357,615.2358,616.3545,return,0.0942,,74.47916667,,,,,,FBP-RB-17.png,0.4,1.2,18,0.5,,,,,,,,,,,,,0,4,4,17,1,,,,,,,,,,,,,,,,,,,,,,,,,,,,
,,,,,WIN24_036,21,female,2024-02-02_15h54.32.579,jersey_experiment_5,2023.2.2,Win32,84.74576271,,,,,,,,,,,,,,,,616.3546,617.6475,617.6476,619.1899,return,0.6943,,92.1875,,,,,,FBP-RB-19.png,0.45,1.2,30,0.5,,,,,,,,,,,,,0,5,5,29,1,,,,,,,,,,,,,,,,,,,,,,,,,,,,
,,,,,WIN24_036,21,female,2024-02-02_15h54.32.579,jersey_experiment_5,2023.2.2,Win32,84.74576271,,,,,,,,,,,,,,,,619.19,620.9898,620.9898,621.7298,return,0.135,,9.635416667,,,,,,FBP-OG-81.png,0.35,1.2,6,1,,,,,,,,,,,,,0,6,6,5,1,,,,,,,,,,,,,,,,,,,,,,,,,,,,
,,,,,WIN24_036,21,female,2024-02-02_15h54.32.579,jersey_experiment_5,2023.2.2,Win32,84.74576271,,,,,,,,,,,,,,,,621.7299,623.5301,623.5302,624.9903,return,0.1415,,50.13020833,,,,,,FBP-OG-81.png,0.4,1.2,8,1,,,,,,,,,,,,,0,7,7,7,1,,,,,,,,,,,,,,,,,,,,,,,,,,,,
,,,,,WIN24_036,21,female,2024-02-02_15h54.32.579,jersey_experiment_5,2023.2.2,Win32,84.74576271,,,,,,,,,,,,,,,,624.9905,626.2832,626.2833,628.2255,return,0.212,,54.42708333,,,,,,FBP-RB-19.png,0.4,1.2,28,0.5,,,,,,,,,,,,,0,8,8,27,1,,,,,,,,,,,,,,,,,,,,,,,,,,,,
,,,,,WIN24_036,21,female,2024-02-02_15h54.32.579,jersey_experiment_5,2023.2.2,Win32,84.74576271,,,,,,,,,,,,,,,,628.2257,629.5185,629.5187,631.0139,return,0.1532,,49.34895833,,,,,,FBP-RB-17.png,0.37,1.2,17,0.5,,,,,,,,,,,,,0,9,9,16,1,,,,,,,,,,,,,,,,,,,,,,,,,,,,
,,,,,WIN24_036,21,female,2024-02-02_15h54.32.579,jersey_experiment_5,2023.2.2,Win32,84.74576271,,,,,,,,,,,,,,,,631.0141,632.3069,632.3069,633.7774,return,0.171,,88.54166667,,,,,,FBP-RB-18.png,0.43,1.2,24,0.5,,,,,,,,,,,,,0,10,10,23,1,,,,,,,,,,,,,,,,,,,,,,,,,,,,
,,,,,WIN24_036,21,female,2024-02-02_15h54.32.579,jersey_experiment_5,2023.2.2,Win32,84.74576271,,,,,,,,,,,,,,,,633.7777,635.5774,635.5775,636.401,return,0.1362,,86.97916667,,,,,,FBP-OG-71.png,0.43,1.2,4,1,,,,,,,,,,,,,0,11,11,3,1,,,,,,,,,,,,,,,,,,,,,,,,,,,,
,,,,,WIN24_036,21,female,2024-02-02_15h54.32.579,jersey_experiment_5,2023.2.2,Win32,84.74576271,,,,,,,,,,,,,,,,636.4014,638.2022,638.2022,639.4734,return,0.8946,,90.75520833,,,,,,FBP-OG-91.png,0.45,1.2,15,1,,,,,,,,,,,,,0,12,12,14,1,,,,,,,,,,,,,,,,,,,,,,,,,,,,
,,,,,WIN24_036,21,female,2024-02-02_15h54.32.579,jersey_experiment_5,2023.2.2,Win32,84.74576271,,,,,,,,,,,,,,,,639.4736,641.273,641.273,642.3423,return,0.1417,,38.02083333,,,,,,FBP-OG-71.png,0.37,1.2,2,1,,,,,,,,,,,,,0,13,13,1,1,,,,,,,,,,,,,,,,,,,,,,,,,,,,
,,,,,WIN24_036,21,female,2024-02-02_15h54.32.579,jersey_experiment_5,2023.2.2,Win32,84.74576271,,,,,,,,,,,,,,,,642.3424,643.6368,643.6369,645.0849,return,0.7531,,75.26041667,,,,,,FBP-YG-91.png,0.45,1.2,45,0.5,,,,,,,,,,,,,0,14,14,44,1,,,,,,,,,,,,,,,,,,,,,,,,,,,,
,,,,,WIN24_036,21,female,2024-02-02_15h54.32.579,jersey_experiment_5,2023.2.2,Win32,84.74576271,,,,,,,,,,,,,,,,645.0851,646.378,646.3781,648.413,return,1.6102,,60.546875,,,,,,FBP-RB-18.png,0.4,1.2,23,0.5,,,,,,,,,,,,,0,15,15,22,1,,,,,,,,,,,,,,,,,,,,,,,,,,,,
,,,,,WIN24_036,21,female,2024-02-02_15h54.32.579,jersey_experiment_5,2023.2.2,Win32,84.74576271,,,,,,,,,,,,,,,,648.4132,649.7076,649.7077,651.1207,return,0.0943,,24.73958333,,,,,,FBP-RB-17.png,0.35,1.2,16,0.5,,,,,,,,,,,,,0,16,16,15,1,,,,,,,,,,,,,,,,,,,,,,,,,,,,
,,,,,WIN24_036,21,female,2024-02-02_15h54.32.579,jersey_experiment_5,2023.2.2,Win32,84.74576271,,,,,,,,,,,,,,,,651.1208,652.9195,652.9195,653.4617,return,0.2471,,24.73958333,,,,,,FBP-OG-81.png,0.37,1.2,7,1,,,,,,,,,,,,,0,17,17,6,1,,,,,,,,,,,,,,,,,,,,,,,,,,,,
,,,,,WIN24_036,21,female,2024-02-02_15h54.32.579,jersey_experiment_5,2023.2.2,Win32,84.74576271,,,,,,,,,,,,,,,,653.4619,655.2618,655.2618,657.0375,return,0.9049,,50.13020833,,,,,,FBP-OG-71.png,0.4,1.2,3,1,,,,,,,,,,,,,0,18,18,2,1,,,,,,,,,,,,,,,,,,,,,,,,,,,,
,,,,,WIN24_036,21,female,2024-02-02_15h54.32.579,jersey_experiment_5,2023.2.2,Win32,84.74576271,,,,,,,,,,,,,,,,657.0379,658.3315,658.3316,658.9668,return,0.1079,,50.13020833,,,,,,FBP-RB-18.png,0.35,1.2,21,0.5,,,,,,,,,,,,,0,19,19,20,1,,,,,,,,,,,,,,,,,,,,,,,,,,,,
,,,,,WIN24_036,21,female,2024-02-02_15h54.32.579,jersey_experiment_5,2023.2.2,Win32,84.74576271,,,,,,,,,,,,,,,,658.9672,660.261,660.2611,661.4619,return,0.2707,,68.22916667,,,,,,FBP-YG-91.png,0.4,1.2,43,0.5,,,,,,,,,,,,,0,20,20,42,1,,,,,,,,,,,,,,,,,,,,,,,,,,,,
,,,,,WIN24_036,21,female,2024-02-02_15h54.32.579,jersey_experiment_5,2023.2.2,Win32,84.74576271,,,,,,,,,,,,,,,,661.4621,662.7552,662.7552,665.3917,return,0.1297,,56.77083333,,,,,,FBP-RB-19.png,0.37,1.2,27,0.5,,,,,,,,,,,,,0,21,21,26,1,,,,,,,,,,,,,,,,,,,,,,,,,,,,
,,,,,WIN24_036,21,female,2024-02-02_15h54.32.579,jersey_experiment_5,2023.2.2,Win32,84.74576271,,,,,,,,,,,,,,,,665.392,666.6847,666.6847,667.8858,return,0.1297,,24.08854167,,,,,,FBP-RB-19.png,0.35,1.2,26,0.5,,,,,,,,,,,,,0,22,22,25,1,,,,,,,,,,,,,,,,,,,,,,,,,,,,
,,,,,WIN24_036,21,female,2024-02-02_15h54.32.579,jersey_experiment_5,2023.2.2,Win32,84.74576271,,,,,,,,,,,,,,,,667.8858,669.1798,669.1798,670.2388,return,0.0592,,91.015625,,,,,,FBP-RB-18.png,0.45,1.2,25,0.5,,,,,,,,,,,,,0,23,23,24,1,,,,,,,,,,,,,,,,,,,,,,,,,,,,
,,,,,WIN24_036,21,female,2024-02-02_15h54.32.579,jersey_experiment_5,2023.2.2,Win32,84.74576271,,,,,,,,,,,,,,,,670.239,671.5326,671.5327,672.6727,return,0.2063,,91.40625,,,,,,FBP-RB-19.png,0.43,1.2,29,0.5,,,,,,,,,,,,,0,24,24,28,1,,,,,,,,,,,,,,,,,,,,,,,,,,,,
,,,,,WIN24_036,21,female,2024-02-02_15h54.32.579,jersey_experiment_5,2023.2.2,Win32,84.74576271,,,,,,,,,,,,,,,,672.673,673.9672,673.9674,675.9201,return,1.0073,,75,,,,,,FBP-YG-71.png,0.4,1.2,33,0.5,,,,,,,,,,,,,0,25,25,32,1,,,,,,,,,,,,,,,,,,,,,,,,,,,,
,,,,,WIN24_036,21,female,2024-02-02_15h54.32.579,jersey_experiment_5,2023.2.2,Win32,84.74576271,,,,,,,,,,,,,,,,675.9204,677.7205,677.7206,678.3098,return,0.1767,,74.47916667,,,,,,FBP-PT-18.png,0.4,1.2,53,1,,,,,,,,,,,,,0,26,26,52,1,,,,,,,,,,,,,,,,,,,,,,,,,,,,
,,,,,WIN24_036,21,female,2024-02-02_15h54.32.579,jersey_experiment_5,2023.2.2,Win32,84.74576271,,,,,,,,,,,,,,,,678.31,680.1089,680.109,680.9437,return,0.137,,74.47916667,,,,,,FBP-PT-17.png,0.4,1.2,48,1,,,,,,,,,,,,,0,27,27,47,1,,,,,,,,,,,,,,,,,,,,,,,,,,,,
,,,,,WIN24_036,21,female,2024-02-02_15h54.32.579,jersey_experiment_5,2023.2.2,Win32,84.74576271,,,,,,,,,,,,,,,,680.9438,682.7441,682.7441,684.6276,return,0.1766,,49.609375,,,,,,FBP-PT-19.png,0.37,1.2,57,1,,,,,,,,,,,,,0,28,28,56,1,,,,,,,,,,,,,,,,,,,,,,,,,,,,
,,,,,WIN24_036,21,female,2024-02-02_15h54.32.579,jersey_experiment_5,2023.2.2,Win32,84.74576271,,,,,,,,,,,,,,,,684.6278,686.4266,686.4266,686.944,return,0.1482,,50,,,,,,FBP-PT-18.png,0.37,1.2,52,1,,,,,,,,,,,,,0,29,29,51,1,,,,,,,,,,,,,,,,,,,,,,,,,,,,
,,,,,WIN24_036,21,female,2024-02-02_15h54.32.579,jersey_experiment_5,2023.2.2,Win32,84.74576271,,,,,,,,,,,,,,,,686.9442,688.2385,688.2386,688.9337,return,0.1648,,50,,,,,,FBP-YG-91.png,0.37,1.2,42,0.5,,,,,,,,,,,,,0,30,30,41,1,,,,,,,,,,,,,,,,,,,,,,,,,,,,
,,,,,WIN24_036,21,female,2024-02-02_15h54.32.579,jersey_experiment_5,2023.2.2,Win32,84.74576271,,,,,,,,,,,,,,,,688.9338,690.7327,690.7327,691.5456,return,0.4,,50,,,,,,FBP-OG-91.png,0.37,1.2,12,1,,,,,,,,,,,,,0,31,31,11,1,,,,,,,,,,,,,,,,,,,,,,,,,,,,
,,,,,WIN24_036,21,female,2024-02-02_15h54.32.579,jersey_experiment_5,2023.2.2,Win32,84.74576271,,,,,,,,,,,,,,,,691.5457,693.3446,693.3446,693.9091,return,0.2026,,50,,,,,,FBP-OG-71.png,0.35,1.2,1,1,,,,,,,,,,,,,0,32,32,0,1,,,,,,,,,,,,,,,,,,,,,,,,,,,,
,,,,,WIN24_036,21,female,2024-02-02_15h54.32.579,jersey_experiment_5,2023.2.2,Win32,84.74576271,,,,,,,,,,,,,,,,693.9094,695.2034,695.2035,696.9325,return,0.2027,,52.34375,,,,,,FBP-YG-81.png,0.4,1.2,38,0.5,,,,,,,,,,,,,0,33,33,37,1,,,,,,,,,,,,,,,,,,,,,,,,,,,,
,,,,,WIN24_036,21,female,2024-02-02_15h54.32.579,jersey_experiment_5,2023.2.2,Win32,84.74576271,,,,,,,,,,,,,,,,696.9327,698.2271,698.2273,699.1811,return,0.0707,,49.73958333,,,,,,FBP-RB-18.png,0.37,1.2,22,0.5,,,,,,,,,,,,,0,34,34,21,1,,,,,,,,,,,,,,,,,,,,,,,,,,,,
,,,,,WIN24_036,21,female,2024-02-02_15h54.32.579,jersey_experiment_5,2023.2.2,Win32,84.74576271,,,,,,,,,,,,,,,,699.1813,700.9799,700.9799,701.9462,return,0.2123,,74.08854167,,,,,,FBP-OG-91.png,0.4,1.2,13,1,,,,,,,,,,,,,0,35,35,12,1,,,,,,,,,,,,,,,,,,,,,,,,,,,,
,,,,,WIN24_036,21,female,2024-02-02_15h54.32.579,jersey_experiment_5,2023.2.2,Win32,84.74576271,,,,,,,,,,,,,,,,701.9464,703.7459,703.7459,705.6168,return,1.106,,49.86979167,,,,,,FBP-OG-91.png,0.35,1.2,11,1,,,,,,,,,,,,,0,36,36,10,1,,,,,,,,,,,,,,,,,,,,,,,,,,,,
,,,,,WIN24_036,21,female,2024-02-02_15h54.32.579,jersey_experiment_5,2023.2.2,Win32,84.74576271,,,,,,,,,,,,,,,,705.6169,706.9097,706.9097,708.0506,return,0.1694,,74.73958333,,,,,,FBP-YG-81.png,0.37,1.2,37,0.5,,,,,,,,,,,,,0,37,37,36,1,,,,,,,,,,,,,,,,,,,,,,,,,,,,
,,,,,WIN24_036,21,female,2024-02-02_15h54.32.579,jersey_experiment_5,2023.2.2,Win32,84.74576271,,,,,,,,,,,,,,,,708.0507,709.3449,709.3449,710.7213,return,0.3471,,84.765625,,,,,,FBP-YG-91.png,0.43,1.2,44,0.5,,,,,,,,,,,,,0,38,38,43,1,,,,,,,,,,,,,,,,,,,,,,,,,,,,
,,,,,WIN24_036,21,female,2024-02-02_15h54.32.579,jersey_experiment_5,2023.2.2,Win32,84.74576271,,,,,,,,,,,,,,,,710.7215,712.0159,712.0159,715.1097,return,0.9778,,63.93229167,,,,,,FBP-YG-91.png,0.35,1.2,41,0.5,,,,,,,,,,,,,0,39,39,40,1,,,,,,,,,,,,,,,,,,,,,,,,,,,,
,,,,,WIN24_036,21,female,2024-02-02_15h54.32.579,jersey_experiment_5,2023.2.2,Win32,84.74576271,,,,,,,,,,,,,,,,715.1098,716.9111,716.9111,718.4981,return,0.0995,,49.34895833,,,,,,FBP-PT-17.png,0.37,1.2,47,1,,,,,,,,,,,,,0,40,40,46,1,,,,,,,,,,,,,,,,,,,,,,,,,,,,
,,,,,WIN24_036,21,female,2024-02-02_15h54.32.579,jersey_experiment_5,2023.2.2,Win32,84.74576271,,,,,,,,,,,,,,,,718.4983,720.2982,720.2982,720.9923,return,0.0776,,74.21875,,,,,,FBP-PT-18.png,0.43,1.2,54,1,,,,,,,,,,,,,0,41,41,53,1,,,,,,,,,,,,,,,,,,,,,,,,,,,,
,,,,,WIN24_036,21,female,2024-02-02_15h54.32.579,jersey_experiment_5,2023.2.2,Win32,84.74576271,,,,,,,,,,,,,,,,720.9925,722.2866,722.2866,724.9576,return,2.1872,,62.63020833,,,,,,FBP-YG-71.png,0.35,1.2,31,0.5,,,,,,,,,,,,,0,42,42,30,1,,,,,,,,,,,,,,,,,,,,,,,,,,,,
,,,,,WIN24_036,21,female,2024-02-02_15h54.32.579,jersey_experiment_5,2023.2.2,Win32,84.74576271,,,,,,,,,,,,,,,,724.958,726.2516,726.2516,727.6983,return,0.1223,,88.15104167,,,,,,FBP-YG-81.png,0.43,1.2,39,0.5,,,,,,,,,,,,,0,43,43,38,1,,,,,,,,,,,,,,,,,,,,,,,,,,,,
,,,,,WIN24_036,21,female,2024-02-02_15h54.32.579,jersey_experiment_5,2023.2.2,Win32,84.74576271,,,,,,,,,,,,,,,,727.6985,729.4987,729.4988,730.641,return,0.1649,,88.02083333,,,,,,FBP-OG-91.png,0.43,1.2,14,1,,,,,,,,,,,,,0,44,44,13,1,,,,,,,,,,,,,,,,,,,,,,,,,,,,
,,,,,WIN24_036,21,female,2024-02-02_15h54.32.579,jersey_experiment_5,2023.2.2,Win32,84.74576271,,,,,,,,,,,,,,,,730.6412,732.4401,732.4402,734.44,return,0.6603,,86.71875,,,,,,FBP-PT-18.png,0.45,1.2,55,1,,,,,,,,,,,,,0,45,45,54,1,,,,,,,,,,,,,,,,,,,,,,,,,,,,
,,,,,WIN24_036,21,female,2024-02-02_15h54.32.579,jersey_experiment_5,2023.2.2,Win32,84.74576271,,,,,,,,,,,,,,,,734.4403,736.2403,736.2404,736.7815,return,0.1392,,93.88020833,,,,,,FBP-OG-81.png,0.45,1.2,10,1,,,,,,,,,,,,,0,46,46,9,1,,,,,,,,,,,,,,,,,,,,,,,,,,,,
,,,,,WIN24_036,21,female,2024-02-02_15h54.32.579,jersey_experiment_5,2023.2.2,Win32,84.74576271,,,,,,,,,,,,,,,,736.7819,738.5813,738.5813,740.0049,return,0.144,,38.02083333,,,,,,FBP-PT-19.png,0.35,1.2,56,1,,,,,,,,,,,,,0,47,47,55,1,,,,,,,,,,,,,,,,,,,,,,,,,,,,
,,,,,WIN24_036,21,female,2024-02-02_15h54.32.579,jersey_experiment_5,2023.2.2,Win32,84.74576271,,,,,,,,,,,,,,,,740.0051,741.8051,741.8051,742.8638,return,0.1134,,74.86979167,,,,,,FBP-PT-17.png,0.45,1.2,50,1,,,,,,,,,,,,,0,48,48,49,1,,,,,,,,,,,,,,,,,,,,,,,,,,,,
,,,,,WIN24_036,21,female,2024-02-02_15h54.32.579,jersey_experiment_5,2023.2.2,Win32,84.74576271,,,,,,,,,,,,,,,,742.864,744.1581,744.1581,745.7461,return,0.2169,,49.21875,,,,,,FBP-YG-71.png,0.37,1.2,32,0.5,,,,,,,,,,,,,0,49,49,31,1,,,,,,,,,,,,,,,,,,,,,,,,,,,,
,,,,,WIN24_036,21,female,2024-02-02_15h54.32.579,jersey_experiment_5,2023.2.2,Win32,84.74576271,,,,,,,,,,,,,,,,745.7463,747.5465,747.5466,754.2878,return,5.9729,,67.96875,,,,,,FBP-OG-81.png,0.43,1.2,9,1,,,,,,,,,,,,,0,50,50,8,1,,,,,,,,,,,,,,,,,,,,,,,,,,,,
,,,,,WIN24_036,21,female,2024-02-02_15h54.32.579,jersey_experiment_5,2023.2.2,Win32,84.74576271,,,,,,,,,,,,,,,,754.2883,756.0881,756.0881,757.3467,return,0.1815,,84.24479167,,,,,,FBP-PT-19.png,0.45,1.2,60,1,,,,,,,,,,,,,0,51,51,59,1,,,,,,,,,,,,,,,,,,,,,,,,,,,,
,,,,,WIN24_036,21,female,2024-02-02_15h54.32.579,jersey_experiment_5,2023.2.2,Win32,84.74576271,,,,,,,,,,,,,,,,757.3471,758.6412,758.6412,759.9231,return,0.1926,,14.84375,,,,,,FBP-YG-81.png,0.35,1.2,36,0.5,,,,,,,,,,,,,0,52,52,35,1,,,,,,,,,,,,,,,,,,,,,,,,,,,,
,,,,,WIN24_036,21,female,2024-02-02_15h54.32.579,jersey_experiment_5,2023.2.2,Win32,84.74576271,,,,,,,,,,,,,,,,759.9233,761.2187,761.2187,762.4295,return,0.1166,,93.88020833,,,,,,FBP-YG-81.png,0.45,1.2,40,0.5,,,,,,,,,,,,,0,53,53,39,1,,,,,,,,,,,,,,,,,,,,,,,,,,,,
,,,,,WIN24_036,21,female,2024-02-02_15h54.32.579,jersey_experiment_5,2023.2.2,Win32,84.74576271,,,,,,,,,,,,,,,,762.4299,763.7237,763.7237,765.0411,return,0.7009,,95.57291667,,,,,,FBP-YG-71.png,0.45,1.2,35,0.5,,,,,,,,,,,,,0,54,54,34,1,,,,,,,,,,,,,,,,,,,,,,,,,,,,
,,,,,WIN24_036,21,female,2024-02-02_15h54.32.579,jersey_experiment_5,2023.2.2,Win32,84.74576271,,,,,,,,,,,,,,,,765.0414,766.8422,766.8422,768.3353,return,0.1263,,82.16145833,,,,,,FBP-PT-19.png,0.4,1.2,58,1,,,,,,,,,,,,,0,55,55,57,1,,,,,,,,,,,,,,,,,,,,,,,,,,,,
,,,,,WIN24_036,21,female,2024-02-02_15h54.32.579,jersey_experiment_5,2023.2.2,Win32,84.74576271,,,,,,,,,,,,,,,,768.3356,769.6297,769.6298,770.7604,return,0.2944,,95.44270833,,,,,,FBP-RB-17.png,0.45,1.2,20,0.5,,,,,,,,,,,,,0,56,56,19,1,,,,,,,,,,,,,,,,,,,,,,,,,,,,
,,,,,WIN24_036,21,female,2024-02-02_15h54.32.579,jersey_experiment_5,2023.2.2,Win32,84.74576271,,,,,,,,,,,,,,,,770.7605,772.5591,772.5592,773.1119,return,0.1768,,95.96354167,,,,,,FBP-PT-19.png,0.43,1.2,59,1,,,,,,,,,,,,,0,57,57,58,1,,,,,,,,,,,,,,,,,,,,,,,,,,,,
,,,,,WIN24_036,21,female,2024-02-02_15h54.32.579,jersey_experiment_5,2023.2.2,Win32,84.74576271,,,,,,,,,,,,,,,,773.1123,774.9134,774.9135,776.0531,return,0.179,,25.26041667,,,,,,FBP-PT-18.png,0.35,1.2,51,1,,,,,,,,,,,,,0,58,58,50,1,,,,,,,,,,,,,,,,,,,,,,,,,,,,
,,,,,WIN24_036,21,female,2024-02-02_15h54.32.579,jersey_experiment_5,2023.2.2,Win32,84.74576271,,,,,,,,,,,,,,,,776.0533,777.8547,777.8547,778.7369,return,0.2,,89.19270833,,,,,,FBP-OG-71.png,0.45,1.2,5,1,,,,,,,,,,,,,0,59,59,4,1,,,,,,,,,,,,,,,,,,,,,,,,,,,,
,,,,,WIN24_036,21,female,2024-02-02_15h54.32.579,jersey_experiment_5,2023.2.2,Win32,84.74576271,,,,,,,,,,,,,,,,778.7384,780.0302,780.0302,782.7606,return,0.106,,60.15625,,,,,,FBP-RB-81.png,0.37,1.2,22,0.5,,,,,,,,,,,,,,,,,,0,0,0,21,1,,,,,,,,,,,,,,,,,,,,,,,
,,,,,WIN24_036,21,female,2024-02-02_15h54.32.579,jersey_experiment_5,2023.2.2,Win32,84.74576271,,,,,,,,,,,,,,,,782.7608,784.0536,784.0536,785.7489,return,0.1414,,35.80729167,,,,,,FBP-YG-17.png,0.37,1.2,32,0.5,,,,,,,,,,,,,,,,,,0,1,1,31,1,,,,,,,,,,,,,,,,,,,,,,,
,,,,,WIN24_036,21,female,2024-02-02_15h54.32.579,jersey_experiment_5,2023.2.2,Win32,84.74576271,,,,,,,,,,,,,,,,785.7491,787.548,787.5481,790.7611,return,0.1061,,24.609375,,,,,,FBP-PT-91.png,0.35,1.2,56,1,,,,,,,,,,,,,,,,,,0,2,2,55,1,,,,,,,,,,,,,,,,,,,,,,,
,,,,,WIN24_036,21,female,2024-02-02_15h54.32.579,jersey_experiment_5,2023.2.2,Win32,84.74576271,,,,,,,,,,,,,,,,790.7612,792.561,792.5611,794.6892,return,0.1237,,84.11458333,,,,,,FBP-OG-17.png,0.43,1.2,4,1,,,,,,,,,,,,,,,,,,0,3,3,3,1,,,,,,,,,,,,,,,,,,,,,,,
,,,,,WIN24_036,21,female,2024-02-02_15h54.32.579,jersey_experiment_5,2023.2.2,Win32,84.74576271,,,,,,,,,,,,,,,,794.6893,796.4901,796.4901,797.76,return,0.1119,,24.73958333,,,,,,FBP-OG-18.png,0.35,1.2,6,1,,,,,,,,,,,,,,,,,,0,4,4,5,1,,,,,,,,,,,,,,,,,,,,,,,
,,,,,WIN24_036,21,female,2024-02-02_15h54.32.579,jersey_experiment_5,2023.2.2,Win32,84.74576271,,,,,,,,,,,,,,,,797.7604,799.0543,799.0544,800.1954,return,0.1442,,74.47916667,,,,,,FBP-RB-71.png,0.4,1.2,18,0.5,,,,,,,,,,,,,,,,,,0,5,5,17,1,,,,,,,,,,,,,,,,,,,,,,,
,,,,,WIN24_036,21,female,2024-02-02_15h54.32.579,jersey_experiment_5,2023.2.2,Win32,84.74576271,,,,,,,,,,,,,,,,800.1957,801.4897,801.4898,802.6307,return,0.1889,,87.5,,,,,,FBP-YG-17.png,0.43,1.2,34,0.5,,,,,,,,,,,,,,,,,,0,6,6,33,1,,,,,,,,,,,,,,,,,,,,,,,
,,,,,WIN24_036,21,female,2024-02-02_15h54.32.579,jersey_experiment_5,2023.2.2,Win32,84.74576271,,,,,,,,,,,,,,,,802.6311,803.9251,803.9252,804.6073,return,0.1249,,93.75,,,,,,FBP-RB-81.png,0.45,1.2,25,0.5,,,,,,,,,,,,,,,,,,0,7,7,24,1,,,,,,,,,,,,,,,,,,,,,,,
,,,,,WIN24_036,21,female,2024-02-02_15h54.32.579,jersey_experiment_5,2023.2.2,Win32,84.74576271,,,,,,,,,,,,,,,,804.6076,806.4082,806.4082,807.6309,return,0.1488,,75.13020833,,,,,,FBP-OG-17.png,0.4,1.2,3,1,,,,,,,,,,,,,,,,,,0,8,8,2,1,,,,,,,,,,,,,,,,,,,,,,,
,,,,,WIN24_036,21,female,2024-02-02_15h54.32.579,jersey_experiment_5,2023.2.2,Win32,84.74576271,,,,,,,,,,,,,,,,807.6313,809.4312,809.4313,810.4546,return,0.2006,,87.890625,,,,,,FBP-PT-71.png,0.4,1.2,48,1,,,,,,,,,,,,,,,,,,0,9,9,47,1,,,,,,,,,,,,,,,,,,,,,,,
,,,,,WIN24_036,21,female,2024-02-02_15h54.32.579,jersey_experiment_5,2023.2.2,Win32,84.74576271,,,,,,,,,,,,,,,,810.4549,812.2548,812.2549,812.9489,return,0.178,,90.36458333,,,,,,FBP-OG-19.png,0.43,1.2,14,1,,,,,,,,,,,,,,,,,,0,10,10,13,1,,,,,,,,,,,,,,,,,,,,,,,
,,,,,WIN24_036,21,female,2024-02-02_15h54.32.579,jersey_experiment_5,2023.2.2,Win32,84.74576271,,,,,,,,,,,,,,,,812.9492,814.2432,814.2433,815.7842,return,0.3065,,63.28125,,,,,,FBP-RB-81.png,0.35,1.2,21,0.5,,,,,,,,,,,,,,,,,,0,11,11,20,1,,,,,,,,,,,,,,,,,,,,,,,
,,,,,WIN24_036,21,female,2024-02-02_15h54.32.579,jersey_experiment_5,2023.2.2,Win32,84.74576271,,,,,,,,,,,,,,,,815.7846,817.0785,817.0786,819.1372,return,0.2772,,75.65104167,,,,,,FBP-YG-19.png,0.4,1.2,43,0.5,,,,,,,,,,,,,,,,,,0,12,12,42,1,,,,,,,,,,,,,,,,,,,,,,,
,,,,,WIN24_036,21,female,2024-02-02_15h54.32.579,jersey_experiment_5,2023.2.2,Win32,84.74576271,,,,,,,,,,,,,,,,819.1376,820.9374,820.9374,822.021,return,0.0824,,24.47916667,,,,,,FBP-PT-71.png,0.35,1.2,46,1,,,,,,,,,,,,,,,,,,0,13,13,45,1,,,,,,,,,,,,,,,,,,,,,,,
,,,,,WIN24_036,21,female,2024-02-02_15h54.32.579,jersey_experiment_5,2023.2.2,Win32,84.74576271,,,,,,,,,,,,,,,,822.0211,823.3137,823.3138,825.2316,return,0.126,,24.21875,,,,,,FBP-RB-71.png,0.37,1.2,17,0.5,,,,,,,,,,,,,,,,,,0,14,14,16,1,,,,,,,,,,,,,,,,,,,,,,,
,,,,,WIN24_036,21,female,2024-02-02_15h54.32.579,jersey_experiment_5,2023.2.2,Win32,84.74576271,,,,,,,,,,,,,,,,825.232,826.526,826.5261,827.5375,return,0.1003,,24.47916667,,,,,,FBP-RB-91.png,0.35,1.2,26,0.5,,,,,,,,,,,,,,,,,,0,15,15,25,1,,,,,,,,,,,,,,,,,,,,,,,
,,,,,WIN24_036,21,female,2024-02-02_15h54.32.579,jersey_experiment_5,2023.2.2,Win32,84.74576271,,,,,,,,,,,,,,,,827.5376,829.3375,829.3375,830.3377,return,0.0883,,24.34895833,,,,,,FBP-PT-71.png,0.37,1.2,47,1,,,,,,,,,,,,,,,,,,0,16,16,46,1,,,,,,,,,,,,,,,,,,,,,,,
,,,,,WIN24_036,21,female,2024-02-02_15h54.32.579,jersey_experiment_5,2023.2.2,Win32,84.74576271,,,,,,,,,,,,,,,,830.3378,832.139,832.139,835.9262,return,1.696,,88.80208333,,,,,,FBP-PT-81.png,0.45,1.2,55,1,,,,,,,,,,,,,,,,,,0,17,17,54,1,,,,,,,,,,,,,,,,,,,,,,,
,,,,,WIN24_036,21,female,2024-02-02_15h54.32.579,jersey_experiment_5,2023.2.2,Win32,84.74576271,,,,,,,,,,,,,,,,835.9265,837.2214,837.2215,838.3391,return,0.1058,,96.35416667,,,,,,FBP-YG-19.png,0.45,1.2,45,0.5,,,,,,,,,,,,,,,,,,0,18,18,44,1,,,,,,,,,,,,,,,,,,,,,,,
,,,,,WIN24_036,21,female,2024-02-02_15h54.32.579,jersey_experiment_5,2023.2.2,Win32,84.74576271,,,,,,,,,,,,,,,,838.3392,839.6324,839.6324,841.0334,return,0.247,,97.65625,,,,,,FBP-YG-18.png,0.43,1.2,39,0.5,,,,,,,,,,,,,,,,,,0,19,19,38,1,,,,,,,,,,,,,,,,,,,,,,,
,,,,,WIN24_036,21,female,2024-02-02_15h54.32.579,jersey_experiment_5,2023.2.2,Win32,84.74576271,,,,,,,,,,,,,,,,841.0335,842.8324,842.8325,844.8573,return,0.353,,86.06770833,,,,,,FBP-OG-18.png,0.45,1.2,10,1,,,,,,,,,,,,,,,,,,0,20,20,9,1,,,,,,,,,,,,,,,,,,,,,,,
,,,,,WIN24_036,21,female,2024-02-02_15h54.32.579,jersey_experiment_5,2023.2.2,Win32,84.74576271,,,,,,,,,,,,,,,,844.8574,846.1502,846.1503,847.5383,return,0.1587,,74.86979167,,,,,,FBP-YG-18.png,0.37,1.2,37,0.5,,,,,,,,,,,,,,,,,,0,21,21,36,1,,,,,,,,,,,,,,,,,,,,,,,
,,,,,WIN24_036,21,female,2024-02-02_15h54.32.579,jersey_experiment_5,2023.2.2,Win32,84.74576271,,,,,,,,,,,,,,,,847.5387,848.8327,848.8328,850.1633,return,0.2237,,99.21875,,,,,,FBP-YG-17.png,0.45,1.2,35,0.5,,,,,,,,,,,,,,,,,,0,22,22,34,1,,,,,,,,,,,,,,,,,,,,,,,
,,,,,WIN24_036,21,female,2024-02-02_15h54.32.579,jersey_experiment_5,2023.2.2,Win32,84.74576271,,,,,,,,,,,,,,,,850.1636,851.4564,851.4564,853.5386,return,0.1806,,49.73958333,,,,,,FBP-YG-17.png,0.4,1.2,33,0.5,,,,,,,,,,,,,,,,,,0,23,23,32,1,,,,,,,,,,,,,,,,,,,,,,,
,,,,,WIN24_036,21,female,2024-02-02_15h54.32.579,jersey_experiment_5,2023.2.2,Win32,84.74576271,,,,,,,,,,,,,,,,853.5391,855.3399,855.34,856.5035,return,0.1892,,25,,,,,,FBP-PT-81.png,0.37,1.2,52,1,,,,,,,,,,,,,,,,,,0,24,24,51,1,,,,,,,,,,,,,,,,,,,,,,,
,,,,,WIN24_036,21,female,2024-02-02_15h54.32.579,jersey_experiment_5,2023.2.2,Win32,84.74576271,,,,,,,,,,,,,,,,856.5039,857.7979,857.7979,860.9744,return,2.1971,,81.25,,,,,,FBP-RB-81.png,0.43,1.2,24,0.5,,,,,,,,,,,,,,,,,,0,25,25,23,1,,,,,,,,,,,,,,,,,,,,,,,
,,,,,WIN24_036,21,female,2024-02-02_15h54.32.579,jersey_experiment_5,2023.2.2,Win32,84.74576271,,,,,,,,,,,,,,,,860.9748,862.2686,862.2686,863.4448,return,0.2374,,24.609375,,,,,,FBP-YG-19.png,0.37,1.2,42,0.5,,,,,,,,,,,,,,,,,,0,26,26,41,1,,,,,,,,,,,,,,,,,,,,,,,
,,,,,WIN24_036,21,female,2024-02-02_15h54.32.579,jersey_experiment_5,2023.2.2,Win32,84.74576271,,,,,,,,,,,,,,,,863.4453,864.7392,864.7393,866.1746,return,0.1733,,50.13020833,,,,,,FBP-RB-91.png,0.4,1.2,28,0.5,,,,,,,,,,,,,,,,,,0,27,27,27,1,,,,,,,,,,,,,,,,,,,,,,,
,,,,,WIN24_036,21,female,2024-02-02_15h54.32.579,jersey_experiment_5,2023.2.2,Win32,84.74576271,,,,,,,,,,,,,,,,866.1751,867.4688,867.4689,868.598,return,0.2951,,62.890625,,,,,,FBP-RB-81.png,0.4,1.2,23,0.5,,,,,,,,,,,,,,,,,,0,28,28,22,1,,,,,,,,,,,,,,,,,,,,,,,
,,,,,WIN24_036,21,female,2024-02-02_15h54.32.579,jersey_experiment_5,2023.2.2,Win32,84.74576271,,,,,,,,,,,,,,,,868.5985,869.8934,869.8934,872.9637,return,1.8396,,16.27604167,,,,,,FBP-YG-19.png,0.35,1.2,41,0.5,,,,,,,,,,,,,,,,,,0,29,29,40,1,,,,,,,,,,,,,,,,,,,,,,,
,,,,,WIN24_036,21,female,2024-02-02_15h54.32.579,jersey_experiment_5,2023.2.2,Win32,84.74576271,,,,,,,,,,,,,,,,872.964,874.2577,874.2578,875.1394,return,0.1212,,8.333333333,,,,,,FBP-YG-17.png,0.35,1.2,31,0.5,,,,,,,,,,,,,,,,,,0,30,30,30,1,,,,,,,,,,,,,,,,,,,,,,,
,,,,,WIN24_036,21,female,2024-02-02_15h54.32.579,jersey_experiment_5,2023.2.2,Win32,84.74576271,,,,,,,,,,,,,,,,875.1399,876.4339,876.4339,878.1983,return,0.0832,,24.47916667,,,,,,FBP-RB-91.png,0.37,1.2,27,0.5,,,,,,,,,,,,,,,,,,0,31,31,26,1,,,,,,,,,,,,,,,,,,,,,,,
,,,,,WIN24_036,21,female,2024-02-02_15h54.32.579,jersey_experiment_5,2023.2.2,Win32,84.74576271,,,,,,,,,,,,,,,,878.1988,879.9993,879.9995,881.8456,return,0.9544,,88.15104167,,,,,,FBP-PT-91.png,0.43,1.2,59,1,,,,,,,,,,,,,,,,,,0,32,32,58,1,,,,,,,,,,,,,,,,,,,,,,,
,,,,,WIN24_036,21,female,2024-02-02_15h54.32.579,jersey_experiment_5,2023.2.2,Win32,84.74576271,,,,,,,,,,,,,,,,881.846,883.6459,883.6461,885.1399,return,0.1562,,14.84375,,,,,,FBP-OG-17.png,0.35,1.2,1,1,,,,,,,,,,,,,,,,,,0,33,33,0,1,,,,,,,,,,,,,,,,,,,,,,,
,,,,,WIN24_036,21,female,2024-02-02_15h54.32.579,jersey_experiment_5,2023.2.2,Win32,84.74576271,,,,,,,,,,,,,,,,885.1402,886.4342,886.4342,888.1047,return,0.0473,,77.47395833,,,,,,FBP-YG-19.png,0.43,1.2,44,0.5,,,,,,,,,,,,,,,,,,0,34,34,43,1,,,,,,,,,,,,,,,,,,,,,,,
,,,,,WIN24_036,21,female,2024-02-02_15h54.32.579,jersey_experiment_5,2023.2.2,Win32,84.74576271,,,,,,,,,,,,,,,,888.105,889.9058,889.9059,890.6577,return,0.276,,87.5,,,,,,FBP-PT-91.png,0.45,1.2,60,1,,,,,,,,,,,,,,,,,,0,35,35,59,1,,,,,,,,,,,,,,,,,,,,,,,
,,,,,WIN24_036,21,female,2024-02-02_15h54.32.579,jersey_experiment_5,2023.2.2,Win32,84.74576271,,,,,,,,,,,,,,,,890.6581,891.9521,891.9521,892.7055,return,0.1002,,94.921875,,,,,,FBP-RB-91.png,0.43,1.2,29,0.5,,,,,,,,,,,,,,,,,,0,36,36,28,1,,,,,,,,,,,,,,,,,,,,,,,
,,,,,WIN24_036,21,female,2024-02-02_15h54.32.579,jersey_experiment_5,2023.2.2,Win32,84.74576271,,,,,,,,,,,,,,,,892.7058,893.9991,893.9992,894.646,return,0.1774,,94.66145833,,,,,,FBP-RB-71.png,0.43,1.2,19,0.5,,,,,,,,,,,,,,,,,,0,37,37,18,1,,,,,,,,,,,,,,,,,,,,,,,
,,,,,WIN24_036,21,female,2024-02-02_15h54.32.579,jersey_experiment_5,2023.2.2,Win32,84.74576271,,,,,,,,,,,,,,,,894.6465,896.4465,896.4465,897.1286,return,0.2593,,94.53125,,,,,,FBP-PT-81.png,0.4,1.2,53,1,,,,,,,,,,,,,,,,,,0,38,38,52,1,,,,,,,,,,,,,,,,,,,,,,,
,,,,,WIN24_036,21,female,2024-02-02_15h54.32.579,jersey_experiment_5,2023.2.2,Win32,84.74576271,,,,,,,,,,,,,,,,897.129,898.4229,898.4229,899.5521,return,0.5599,,94.53125,,,,,,FBP-YG-18.png,0.4,1.2,38,0.5,,,,,,,,,,,,,,,,,,0,39,39,37,1,,,,,,,,,,,,,,,,,,,,,,,
,,,,,WIN24_036,21,female,2024-02-02_15h54.32.579,jersey_experiment_5,2023.2.2,Win32,84.74576271,,,,,,,,,,,,,,,,899.5526,901.3528,901.3528,902.164,return,0.203,,96.484375,,,,,,FBP-PT-81.png,0.43,1.2,54,1,,,,,,,,,,,,,,,,,,0,40,40,53,1,,,,,,,,,,,,,,,,,,,,,,,
,,,,,WIN24_036,21,female,2024-02-02_15h54.32.579,jersey_experiment_5,2023.2.2,Win32,84.74576271,,,,,,,,,,,,,,,,902.1644,903.4579,903.458,906.0228,return,0.1894,,24.73958333,,,,,,FBP-RB-71.png,0.35,1.2,16,0.5,,,,,,,,,,,,,,,,,,0,41,41,15,1,,,,,,,,,,,,,,,,,,,,,,,
,,,,,WIN24_036,21,female,2024-02-02_15h54.32.579,jersey_experiment_5,2023.2.2,Win32,84.74576271,,,,,,,,,,,,,,,,906.0231,907.8235,907.8235,909.023,return,0.1491,,50,,,,,,FBP-OG-17.png,0.37,1.2,2,1,,,,,,,,,,,,,,,,,,0,42,42,1,1,,,,,,,,,,,,,,,,,,,,,,,
,,,,,WIN24_036,21,female,2024-02-02_15h54.32.579,jersey_experiment_5,2023.2.2,Win32,84.74576271,,,,,,,,,,,,,,,,909.0236,910.8235,910.8236,912.3183,return,0.2691,,61.84895833,,,,,,FBP-PT-91.png,0.4,1.2,58,1,,,,,,,,,,,,,,,,,,0,43,43,57,1,,,,,,,,,,,,,,,,,,,,,,,
,,,,,WIN24_036,21,female,2024-02-02_15h54.32.579,jersey_experiment_5,2023.2.2,Win32,84.74576271,,,,,,,,,,,,,,,,912.3186,914.1185,914.1185,914.7408,return,0.1315,,50,,,,,,FBP-PT-91.png,0.37,1.2,57,1,,,,,,,,,,,,,,,,,,0,44,44,56,1,,,,,,,,,,,,,,,,,,,,,,,
,,,,,WIN24_036,21,female,2024-02-02_15h54.32.579,jersey_experiment_5,2023.2.2,Win32,84.74576271,,,,,,,,,,,,,,,,914.7414,916.5423,916.5423,917.3293,return,0.1233,,24.86979167,,,,,,FBP-OG-19.png,0.35,1.2,11,1,,,,,,,,,,,,,,,,,,0,45,45,10,1,,,,,,,,,,,,,,,,,,,,,,,
,,,,,WIN24_036,21,female,2024-02-02_15h54.32.579,jersey_experiment_5,2023.2.2,Win32,84.74576271,,,,,,,,,,,,,,,,917.3298,919.1296,919.1296,921.2706,return,0.2008,,62.76041667,,,,,,FBP-OG-18.png,0.4,1.2,8,1,,,,,,,,,,,,,,,,,,0,46,46,7,1,,,,,,,,,,,,,,,,,,,,,,,
,,,,,WIN24_036,21,female,2024-02-02_15h54.32.579,jersey_experiment_5,2023.2.2,Win32,84.74576271,,,,,,,,,,,,,,,,921.271,923.0709,923.071,924.1178,return,0.2129,,81.640625,,,,,,FBP-OG-19.png,0.45,1.2,15,1,,,,,,,,,,,,,,,,,,0,47,47,14,1,,,,,,,,,,,,,,,,,,,,,,,
,,,,,WIN24_036,21,female,2024-02-02_15h54.32.579,jersey_experiment_5,2023.2.2,Win32,84.74576271,,,,,,,,,,,,,,,,924.1182,925.9181,925.9182,927.9414,return,0.1074,,49.609375,,,,,,FBP-OG-18.png,0.37,1.2,7,1,,,,,,,,,,,,,,,,,,0,48,48,6,1,,,,,,,,,,,,,,,,,,,,,,,
,,,,,WIN24_036,21,female,2024-02-02_15h54.32.579,jersey_experiment_5,2023.2.2,Win32,84.74576271,,,,,,,,,,,,,,,,927.9418,929.7418,929.7418,932.2475,return,1.5538,,24.609375,,,,,,FBP-PT-81.png,0.35,1.2,51,1,,,,,,,,,,,,,,,,,,0,49,49,50,1,,,,,,,,,,,,,,,,,,,,,,,
,,,,,WIN24_036,21,female,2024-02-02_15h54.32.579,jersey_experiment_5,2023.2.2,Win32,84.74576271,,,,,,,,,,,,,,,,932.248,933.5419,933.542,935.7417,return,0.1623,,74.73958333,,,,,,FBP-YG-18.png,0.45,1.2,40,0.5,,,,,,,,,,,,,,,,,,0,50,50,39,1,,,,,,,,,,,,,,,,,,,,,,,
,,,,,WIN24_036,21,female,2024-02-02_15h54.32.579,jersey_experiment_5,2023.2.2,Win32,84.74576271,,,,,,,,,,,,,,,,935.7422,937.0362,937.0362,938.1301,return,0.0753,,98.95833333,,,,,,FBP-RB-91.png,0.45,1.2,30,0.5,,,,,,,,,,,,,,,,,,0,51,51,29,1,,,,,,,,,,,,,,,,,,,,,,,
,,,,,WIN24_036,21,female,2024-02-02_15h54.32.579,jersey_experiment_5,2023.2.2,Win32,84.74576271,,,,,,,,,,,,,,,,938.1304,939.9304,939.9304,940.3891,return,0.2609,,98.95833333,,,,,,FBP-PT-71.png,0.45,1.2,50,1,,,,,,,,,,,,,,,,,,0,52,52,49,1,,,,,,,,,,,,,,,,,,,,,,,
,,,,,WIN24_036,21,female,2024-02-02_15h54.32.579,jersey_experiment_5,2023.2.2,Win32,84.74576271,,,,,,,,,,,,,,,,940.3895,942.1893,942.1893,943.1538,return,0.1465,,50.26041667,,,,,,FBP-OG-19.png,0.37,1.2,12,1,,,,,,,,,,,,,,,,,,0,53,53,11,1,,,,,,,,,,,,,,,,,,,,,,,
,,,,,WIN24_036,21,female,2024-02-02_15h54.32.579,jersey_experiment_5,2023.2.2,Win32,84.74576271,,,,,,,,,,,,,,,,943.1544,944.9541,944.9542,946.1304,return,0.1576,,74.73958333,,,,,,FBP-OG-18.png,0.43,1.2,9,1,,,,,,,,,,,,,,,,,,0,54,54,8,1,,,,,,,,,,,,,,,,,,,,,,,
,,,,,WIN24_036,21,female,2024-02-02_15h54.32.579,jersey_experiment_5,2023.2.2,Win32,84.74576271,,,,,,,,,,,,,,,,946.131,947.4248,947.4248,949.7658,return,1.4599,,25,,,,,,FBP-YG-18.png,0.35,1.2,36,0.5,,,,,,,,,,,,,,,,,,0,55,55,35,1,,,,,,,,,,,,,,,,,,,,,,,
,,,,,WIN24_036,21,female,2024-02-02_15h54.32.579,jersey_experiment_5,2023.2.2,Win32,84.74576271,,,,,,,,,,,,,,,,949.7663,951.5668,951.5669,952.4012,return,0.1704,,75,,,,,,FBP-PT-71.png,0.43,1.2,49,1,,,,,,,,,,,,,,,,,,0,56,56,48,1,,,,,,,,,,,,,,,,,,,,,,,
,,,,,WIN24_036,21,female,2024-02-02_15h54.32.579,jersey_experiment_5,2023.2.2,Win32,84.74576271,,,,,,,,,,,,,,,,952.4016,953.6955,953.6955,954.59,return,0.0683,,90.234375,,,,,,FBP-RB-71.png,0.45,1.2,20,0.5,,,,,,,,,,,,,,,,,,0,57,57,19,1,,,,,,,,,,,,,,,,,,,,,,,
,,,,,WIN24_036,21,female,2024-02-02_15h54.32.579,jersey_experiment_5,2023.2.2,Win32,84.74576271,,,,,,,,,,,,,,,,954.5903,956.3898,956.3899,956.9661,return,0.1774,,94.79166667,,,,,,FBP-OG-17.png,0.45,1.2,5,1,,,,,,,,,,,,,,,,,,0,58,58,4,1,,,,,,,,,,,,,,,,,,,,,,,
,,,,,WIN24_036,21,female,2024-02-02_15h54.32.579,jersey_experiment_5,2023.2.2,Win32,84.74576271,,,,,,,,,,,,,,,,956.9667,958.767,958.7671,959.6956,return,0.2191,,75.26041667,,,,,,FBP-OG-19.png,0.4,1.2,13,1,,,,,,,,,,,,,,,,,,0,59,59,12,1,,,,,,,,,,,,,,,,,,,,,,,
,,,,,WIN24_036,21,female,2024-02-02_15h54.32.579,jersey_experiment_5,2023.2.2,Win32,84.74576271,,,,,,,,,,,,,,,,,,,,,,,,,,,,,,,,,,,,,,,,,,,,,,,,,,,,,,,,959.6963,964.0022,return,4.2948,,,,,,,,,,,,,,,,,,,
,,,,,WIN24_036,21,female,2024-02-02_15h54.32.579,jersey_experiment_5,2023.2.2,Win32,84.74576271,,,,,,,,,,,,,,,,,,,,,,,,,,,,,,,,,,,,,,,,,,,,,,,,,,,,,,,,,,,,,964.0024,971.5434,1,6.7145,return,0.7963,,,,,,,,,,,,
,,,,,WIN24_036,21,female,2024-02-02_15h54.32.579,jersey_experiment_5,2023.2.2,Win32,84.74576271,,,,,,,,,,,,,,,,,,,,,,,,,,,,,,,,,,,,,,,,,,,,,,,,,,,,,,,,,,,,,,,,,,,,971.5437,1096.4655,I believe that the study is about how perceptions of body sizes change once compared to a different one. An individual views a size that is husky as larger than it actually is ,right,115.6483,,,,,,
,,,,,WIN24_036,21,female,2024-02-02_15h54.32.579,jersey_experiment_5,2023.2.2,Win32,84.74576271,,,,,,,,,,,,,,,,,,,,,,,,,,,,,,,,,,,,,,,,,,,,,,,,,,,,,,,,,,,,,,,,,,,,,,,,,,1096.4657,1109.5843,return,13.1093,