requirements.started,requirements.stopped,key_resp_3.keys,key_resp_3.rt,key_resp_3.duration,Subject ID,Age,Gender,date,expName,psychopyVersion,OS,frameRate,instructions1.started,instructions1.stopped,key_resp.keys,key_resp.rt,key_resp.duration,example.started,example.stopped,enter_2.keys,enter_2.rt,enter_2.duration,instructions2.started,instructions2.stopped,enter_3.keys,enter_3.rt,enter_3.duration,image.started,image.stopped,slider_2.started,slider_2.stopped,next.keys,next.rt,next.duration,slider.response,trial_block_1.thisRepN,trial_block_1.thisTrialN,trial_block_1.thisN,trial_block_1.thisIndex,trial_block_1.ran,Path,Width,Height,Index,Duration,trial_block_2.thisRepN,trial_block_2.thisTrialN,trial_block_2.thisN,trial_block_2.thisIndex,trial_block_2.ran,rest_break.started,rest_break.stopped,end_break.started,end_break.stopped,key_resp_5.keys,key_resp_5.rt,key_resp_5.duration,trial_block_3.thisRepN,trial_block_3.thisTrialN,trial_block_3.thisN,trial_block_3.thisIndex,trial_block_3.ran,trial_block_4.thisRepN,trial_block_4.thisTrialN,trial_block_4.thisN,trial_block_4.thisIndex,trial_block_4.ran,questions_intro.started,questions_intro.stopped,enter_12.keys,enter_12.rt,enter_12.duration,question2.started,question2.stopped,question_doingbest.response,question_doingbest.rt,enter_15.keys,enter_15.rt,enter_15.duration,pattern.started,pattern.stopped,pattern_2.text,enter_17.keys,enter_17.rt,enter_17.duration,thankyou.started,thankyou.stopped,enter_14.keys,enter_14.rt,enter_14.duration
0,7.0806,return,7.0759,,WIN24_018,19,female,2024-01-29_18h28.01.700,jersey_experiment_5,2023.2.2,Win32,84.74576271,,,,,,,,,,,,,,,,,,,,,,,,,,,,,,,,,,,,,,,,,,,,,,,,,,,,,,,,,,,,,,,,,,,,,,,,,,,,,,
,,,,,WIN24_018,19,female,2024-01-29_18h28.01.700,jersey_experiment_5,2023.2.2,Win32,84.74576271,7.0807,11.7933,return,4.6873,,,,,,,,,,,,,,,,,,,,,,,,,,,,,,,,,,,,,,,,,,,,,,,,,,,,,,,,,,,,,,,,,,,,,,,,,,
,,,,,WIN24_018,19,female,2024-01-29_18h28.01.700,jersey_experiment_5,2023.2.2,Win32,84.74576271,,,,,,11.7935,14.5933,return,2.77,,,,,,,,,,,,,,,,,,,,,,,,,,,,,,,,,,,,,,,,,,,,,,,,,,,,,,,,,,,,,,,,,,,,,
,,,,,WIN24_018,19,female,2024-01-29_18h28.01.700,jersey_experiment_5,2023.2.2,Win32,84.74576271,,,,,,,,,,,14.5934,28.3234,return,13.7192,,,,,,,,,,,,,,,,,,,,,,,,,,,,,,,,,,,,,,,,,,,,,,,,,,,,,,,,,,,,,,,,
,,,,,WIN24_018,19,female,2024-01-29_18h28.01.700,jersey_experiment_5,2023.2.2,Win32,84.74576271,,,,,,,,,,,,,,,,28.3308,30.1272,30.1273,39.4455,return,3.2708,,66.40625,0,0,0,30,1,FBP-YG-71.png,0.35,1.2,31,1,,,,,,,,,,,,,,,,,,,,,,,,,,,,,,,,,,,,,,,,,,,,,
,,,,,WIN24_018,19,female,2024-01-29_18h28.01.700,jersey_experiment_5,2023.2.2,Win32,84.74576271,,,,,,,,,,,,,,,,39.4457,41.2434,41.2435,43.2829,return,0.6142,,83.07291667,0,1,1,27,1,FBP-RB-19.png,0.4,1.2,28,1,,,,,,,,,,,,,,,,,,,,,,,,,,,,,,,,,,,,,,,,,,,,,
,,,,,WIN24_018,19,female,2024-01-29_18h28.01.700,jersey_experiment_5,2023.2.2,Win32,84.74576271,,,,,,,,,,,,,,,,43.283,44.5825,44.5825,46.7824,return,0.8408,,93.09895833,0,2,2,4,1,FBP-OG-71.png,0.45,1.2,5,0.5,,,,,,,,,,,,,,,,,,,,,,,,,,,,,,,,,,,,,,,,,,,,,
,,,,,WIN24_018,19,female,2024-01-29_18h28.01.700,jersey_experiment_5,2023.2.2,Win32,84.74576271,,,,,,,,,,,,,,,,46.7826,48.0767,48.0767,49.7121,return,0.4767,,87.890625,0,3,3,9,1,FBP-OG-81.png,0.45,1.2,10,0.5,,,,,,,,,,,,,,,,,,,,,,,,,,,,,,,,,,,,,,,,,,,,,
,,,,,WIN24_018,19,female,2024-01-29_18h28.01.700,jersey_experiment_5,2023.2.2,Win32,84.74576271,,,,,,,,,,,,,,,,49.7123,51.0062,51.0062,53.4223,return,0.8846,,39.97395833,0,4,4,11,1,FBP-OG-91.png,0.37,1.2,12,0.5,,,,,,,,,,,,,,,,,,,,,,,,,,,,,,,,,,,,,,,,,,,,,
,,,,,WIN24_018,19,female,2024-01-29_18h28.01.700,jersey_experiment_5,2023.2.2,Win32,84.74576271,,,,,,,,,,,,,,,,53.4225,55.2222,55.2222,56.5304,return,0.5453,,42.83854167,0,5,5,42,1,FBP-YG-91.png,0.4,1.2,43,1,,,,,,,,,,,,,,,,,,,,,,,,,,,,,,,,,,,,,,,,,,,,,
,,,,,WIN24_018,19,female,2024-01-29_18h28.01.700,jersey_experiment_5,2023.2.2,Win32,84.74576271,,,,,,,,,,,,,,,,56.5306,58.3282,58.3282,59.7948,return,0.4856,,72.00520833,0,6,6,38,1,FBP-YG-81.png,0.43,1.2,39,1,,,,,,,,,,,,,,,,,,,,,,,,,,,,,,,,,,,,,,,,,,,,,
,,,,,WIN24_018,19,female,2024-01-29_18h28.01.700,jersey_experiment_5,2023.2.2,Win32,84.74576271,,,,,,,,,,,,,,,,59.795,61.5872,61.5872,62.8463,return,0.4845,,72.52604167,0,7,7,41,1,FBP-YG-91.png,0.37,1.2,42,1,,,,,,,,,,,,,,,,,,,,,,,,,,,,,,,,,,,,,,,,,,,,,
,,,,,WIN24_018,19,female,2024-01-29_18h28.01.700,jersey_experiment_5,2023.2.2,Win32,84.74576271,,,,,,,,,,,,,,,,62.8463,64.6421,64.6421,66.3054,return,0.7416,,47.00520833,0,8,8,35,1,FBP-YG-81.png,0.35,1.2,36,1,,,,,,,,,,,,,,,,,,,,,,,,,,,,,,,,,,,,,,,,,,,,,
,,,,,WIN24_018,19,female,2024-01-29_18h28.01.700,jersey_experiment_5,2023.2.2,Win32,84.74576271,,,,,,,,,,,,,,,,66.3054,68.1008,68.1009,69.6582,return,0.5179,,84.89583333,0,9,9,34,1,FBP-YG-71.png,0.45,1.2,35,1,,,,,,,,,,,,,,,,,,,,,,,,,,,,,,,,,,,,,,,,,,,,,
,,,,,WIN24_018,19,female,2024-01-29_18h28.01.700,jersey_experiment_5,2023.2.2,Win32,84.74576271,,,,,,,,,,,,,,,,69.6584,71.4581,71.4581,72.5129,return,0.4269,,83.72395833,0,10,10,23,1,FBP-RB-18.png,0.43,1.2,24,1,,,,,,,,,,,,,,,,,,,,,,,,,,,,,,,,,,,,,,,,,,,,,
,,,,,WIN24_018,19,female,2024-01-29_18h28.01.700,jersey_experiment_5,2023.2.2,Win32,84.74576271,,,,,,,,,,,,,,,,72.5132,73.8069,73.8069,75.8937,return,0.4942,,83.72395833,0,11,11,2,1,FBP-OG-71.png,0.4,1.2,3,0.5,,,,,,,,,,,,,,,,,,,,,,,,,,,,,,,,,,,,,,,,,,,,,
,,,,,WIN24_018,19,female,2024-01-29_18h28.01.700,jersey_experiment_5,2023.2.2,Win32,84.74576271,,,,,,,,,,,,,,,,75.8939,77.1878,77.1879,78.925,return,0.1841,,39.97395833,0,12,12,50,1,FBP-PT-18.png,0.35,1.2,51,0.5,,,,,,,,,,,,,,,,,,,,,,,,,,,,,,,,,,,,,,,,,,,,,
,,,,,WIN24_018,19,female,2024-01-29_18h28.01.700,jersey_experiment_5,2023.2.2,Win32,84.74576271,,,,,,,,,,,,,,,,78.9253,80.2235,80.2235,81.5879,return,0.2003,,43.09895833,0,13,13,7,1,FBP-OG-81.png,0.4,1.2,8,0.5,,,,,,,,,,,,,,,,,,,,,,,,,,,,,,,,,,,,,,,,,,,,,
,,,,,WIN24_018,19,female,2024-01-29_18h28.01.700,jersey_experiment_5,2023.2.2,Win32,84.74576271,,,,,,,,,,,,,,,,81.588,82.8821,82.8821,83.9838,return,0.2161,,86.19791667,0,14,14,48,1,FBP-PT-17.png,0.43,1.2,49,0.5,,,,,,,,,,,,,,,,,,,,,,,,,,,,,,,,,,,,,,,,,,,,,
,,,,,WIN24_018,19,female,2024-01-29_18h28.01.700,jersey_experiment_5,2023.2.2,Win32,84.74576271,,,,,,,,,,,,,,,,83.984,85.7762,85.7762,86.4473,return,0.2237,,93.22916667,0,15,15,43,1,FBP-YG-91.png,0.43,1.2,44,1,,,,,,,,,,,,,,,,,,,,,,,,,,,,,,,,,,,,,,,,,,,,,
,,,,,WIN24_018,19,female,2024-01-29_18h28.01.700,jersey_experiment_5,2023.2.2,Win32,84.74576271,,,,,,,,,,,,,,,,86.4474,88.2475,88.2476,89.318,return,0.1668,,64.0625,0,16,16,36,1,FBP-YG-81.png,0.37,1.2,37,1,,,,,,,,,,,,,,,,,,,,,,,,,,,,,,,,,,,,,,,,,,,,,
,,,,,WIN24_018,19,female,2024-01-29_18h28.01.700,jersey_experiment_5,2023.2.2,Win32,84.74576271,,,,,,,,,,,,,,,,89.3182,90.6234,90.6235,91.5019,return,0.2651,,70.3125,0,17,17,6,1,FBP-OG-81.png,0.37,1.2,7,0.5,,,,,,,,,,,,,,,,,,,,,,,,,,,,,,,,,,,,,,,,,,,,,
,,,,,WIN24_018,19,female,2024-01-29_18h28.01.700,jersey_experiment_5,2023.2.2,Win32,84.74576271,,,,,,,,,,,,,,,,91.5021,92.796,92.796,94.0828,return,0.2355,,79.55729167,0,18,18,57,1,FBP-PT-19.png,0.4,1.2,58,0.5,,,,,,,,,,,,,,,,,,,,,,,,,,,,,,,,,,,,,,,,,,,,,
,,,,,WIN24_018,19,female,2024-01-29_18h28.01.700,jersey_experiment_5,2023.2.2,Win32,84.74576271,,,,,,,,,,,,,,,,94.0831,95.3843,95.3843,97.2785,return,0.3118,,71.22395833,0,19,19,46,1,FBP-PT-17.png,0.37,1.2,47,0.5,,,,,,,,,,,,,,,,,,,,,,,,,,,,,,,,,,,,,,,,,,,,,
,,,,,WIN24_018,19,female,2024-01-29_18h28.01.700,jersey_experiment_5,2023.2.2,Win32,84.74576271,,,,,,,,,,,,,,,,97.2788,99.0786,99.0786,102.1964,return,0.3649,,74.34895833,0,20,20,26,1,FBP-RB-19.png,0.37,1.2,27,1,,,,,,,,,,,,,,,,,,,,,,,,,,,,,,,,,,,,,,,,,,,,,
,,,,,WIN24_018,19,female,2024-01-29_18h28.01.700,jersey_experiment_5,2023.2.2,Win32,84.74576271,,,,,,,,,,,,,,,,102.1966,104.0009,104.0009,105.1846,return,0.2627,,86.97916667,0,21,21,39,1,FBP-YG-81.png,0.45,1.2,40,1,,,,,,,,,,,,,,,,,,,,,,,,,,,,,,,,,,,,,,,,,,,,,
,,,,,WIN24_018,19,female,2024-01-29_18h28.01.700,jersey_experiment_5,2023.2.2,Win32,84.74576271,,,,,,,,,,,,,,,,105.1847,106.4789,106.4789,107.7676,return,0.1907,,92.1875,0,22,22,49,1,FBP-PT-17.png,0.45,1.2,50,0.5,,,,,,,,,,,,,,,,,,,,,,,,,,,,,,,,,,,,,,,,,,,,,
,,,,,WIN24_018,19,female,2024-01-29_18h28.01.700,jersey_experiment_5,2023.2.2,Win32,84.74576271,,,,,,,,,,,,,,,,107.7677,109.5653,109.5653,110.5522,return,0.3847,,92.70833333,0,23,23,28,1,FBP-RB-19.png,0.43,1.2,29,1,,,,,,,,,,,,,,,,,,,,,,,,,,,,,,,,,,,,,,,,,,,,,
,,,,,WIN24_018,19,female,2024-01-29_18h28.01.700,jersey_experiment_5,2023.2.2,Win32,84.74576271,,,,,,,,,,,,,,,,110.5524,111.8478,111.8478,112.8791,return,0.2736,,89.71354167,0,24,24,54,1,FBP-PT-18.png,0.45,1.2,55,0.5,,,,,,,,,,,,,,,,,,,,,,,,,,,,,,,,,,,,,,,,,,,,,
,,,,,WIN24_018,19,female,2024-01-29_18h28.01.700,jersey_experiment_5,2023.2.2,Win32,84.74576271,,,,,,,,,,,,,,,,112.8793,114.1773,114.1773,115.5027,return,0.3116,,87.36979167,0,25,25,53,1,FBP-PT-18.png,0.43,1.2,54,0.5,,,,,,,,,,,,,,,,,,,,,,,,,,,,,,,,,,,,,,,,,,,,,
,,,,,WIN24_018,19,female,2024-01-29_18h28.01.700,jersey_experiment_5,2023.2.2,Win32,84.74576271,,,,,,,,,,,,,,,,115.5029,116.8028,116.8028,119.5307,return,0.163,,52.86458333,0,26,26,51,1,FBP-PT-18.png,0.37,1.2,52,0.5,,,,,,,,,,,,,,,,,,,,,,,,,,,,,,,,,,,,,,,,,,,,,
,,,,,WIN24_018,19,female,2024-01-29_18h28.01.700,jersey_experiment_5,2023.2.2,Win32,84.74576271,,,,,,,,,,,,,,,,119.5309,120.8322,120.8322,121.9412,return,0.1997,,48.30729167,0,27,27,52,1,FBP-PT-18.png,0.4,1.2,53,0.5,,,,,,,,,,,,,,,,,,,,,,,,,,,,,,,,,,,,,,,,,,,,,
,,,,,WIN24_018,19,female,2024-01-29_18h28.01.700,jersey_experiment_5,2023.2.2,Win32,84.74576271,,,,,,,,,,,,,,,,121.9413,123.7447,123.7447,124.5972,return,0.1415,,89.84375,0,28,28,19,1,FBP-RB-17.png,0.45,1.2,20,1,,,,,,,,,,,,,,,,,,,,,,,,,,,,,,,,,,,,,,,,,,,,,
,,,,,WIN24_018,19,female,2024-01-29_18h28.01.700,jersey_experiment_5,2023.2.2,Win32,84.74576271,,,,,,,,,,,,,,,,124.5973,126.3973,126.3974,127.8977,return,0.3667,,41.796875,0,29,29,20,1,FBP-RB-18.png,0.35,1.2,21,1,,,,,,,,,,,,,,,,,,,,,,,,,,,,,,,,,,,,,,,,,,,,,
,,,,,WIN24_018,19,female,2024-01-29_18h28.01.700,jersey_experiment_5,2023.2.2,Win32,84.74576271,,,,,,,,,,,,,,,,127.8978,129.1898,129.1898,131.1074,return,0.2001,,77.21354167,0,30,30,3,1,FBP-OG-71.png,0.43,1.2,4,0.5,,,,,,,,,,,,,,,,,,,,,,,,,,,,,,,,,,,,,,,,,,,,,
,,,,,WIN24_018,19,female,2024-01-29_18h28.01.700,jersey_experiment_5,2023.2.2,Win32,84.74576271,,,,,,,,,,,,,,,,131.1075,132.9034,132.9034,134.2369,return,0.1782,,70.18229167,0,31,31,37,1,FBP-YG-81.png,0.4,1.2,38,1,,,,,,,,,,,,,,,,,,,,,,,,,,,,,,,,,,,,,,,,,,,,,
,,,,,WIN24_018,19,female,2024-01-29_18h28.01.700,jersey_experiment_5,2023.2.2,Win32,84.74576271,,,,,,,,,,,,,,,,134.2372,136.037,136.037,137.4472,return,0.2103,,64.71354167,0,32,32,32,1,FBP-YG-71.png,0.4,1.2,33,1,,,,,,,,,,,,,,,,,,,,,,,,,,,,,,,,,,,,,,,,,,,,,
,,,,,WIN24_018,19,female,2024-01-29_18h28.01.700,jersey_experiment_5,2023.2.2,Win32,84.74576271,,,,,,,,,,,,,,,,137.4474,139.2475,139.2475,140.1905,return,0.236,,41.27604167,0,33,33,40,1,FBP-YG-91.png,0.35,1.2,41,1,,,,,,,,,,,,,,,,,,,,,,,,,,,,,,,,,,,,,,,,,,,,,
,,,,,WIN24_018,19,female,2024-01-29_18h28.01.700,jersey_experiment_5,2023.2.2,Win32,84.74576271,,,,,,,,,,,,,,,,140.1907,141.9904,141.9904,143.1507,return,0.2056,,83.07291667,0,34,34,24,1,FBP-RB-18.png,0.45,1.2,25,1,,,,,,,,,,,,,,,,,,,,,,,,,,,,,,,,,,,,,,,,,,,,,
,,,,,WIN24_018,19,female,2024-01-29_18h28.01.700,jersey_experiment_5,2023.2.2,Win32,84.74576271,,,,,,,,,,,,,,,,143.1509,144.9433,144.9433,145.8214,return,0.2173,,79.94791667,0,35,35,17,1,FBP-RB-17.png,0.4,1.2,18,1,,,,,,,,,,,,,,,,,,,,,,,,,,,,,,,,,,,,,,,,,,,,,
,,,,,WIN24_018,19,female,2024-01-29_18h28.01.700,jersey_experiment_5,2023.2.2,Win32,84.74576271,,,,,,,,,,,,,,,,145.8215,147.6215,147.6215,148.7433,return,0.3291,,71.74479167,0,36,36,21,1,FBP-RB-18.png,0.37,1.2,22,1,,,,,,,,,,,,,,,,,,,,,,,,,,,,,,,,,,,,,,,,,,,,,
,,,,,WIN24_018,19,female,2024-01-29_18h28.01.700,jersey_experiment_5,2023.2.2,Win32,84.74576271,,,,,,,,,,,,,,,,148.7434,150.045,150.0451,151.2804,return,0.1922,,41.796875,0,37,37,0,1,FBP-OG-71.png,0.35,1.2,1,0.5,,,,,,,,,,,,,,,,,,,,,,,,,,,,,,,,,,,,,,,,,,,,,
,,,,,WIN24_018,19,female,2024-01-29_18h28.01.700,jersey_experiment_5,2023.2.2,Win32,84.74576271,,,,,,,,,,,,,,,,151.2805,152.5746,152.5746,153.5865,return,0.2372,,43.88020833,0,38,38,56,1,FBP-PT-19.png,0.37,1.2,57,0.5,,,,,,,,,,,,,,,,,,,,,,,,,,,,,,,,,,,,,,,,,,,,,
,,,,,WIN24_018,19,female,2024-01-29_18h28.01.700,jersey_experiment_5,2023.2.2,Win32,84.74576271,,,,,,,,,,,,,,,,153.5868,155.3791,155.3791,156.9512,return,0.7261,,79.16666667,0,39,39,18,1,FBP-RB-17.png,0.43,1.2,19,1,,,,,,,,,,,,,,,,,,,,,,,,,,,,,,,,,,,,,,,,,,,,,
,,,,,WIN24_018,19,female,2024-01-29_18h28.01.700,jersey_experiment_5,2023.2.2,Win32,84.74576271,,,,,,,,,,,,,,,,156.9514,158.7439,158.7439,159.469,return,0.2426,,87.109375,0,40,40,29,1,FBP-RB-19.png,0.45,1.2,30,1,,,,,,,,,,,,,,,,,,,,,,,,,,,,,,,,,,,,,,,,,,,,,
,,,,,WIN24_018,19,female,2024-01-29_18h28.01.700,jersey_experiment_5,2023.2.2,Win32,84.74576271,,,,,,,,,,,,,,,,159.4692,160.7633,160.7633,161.6691,return,0.1416,,86.19791667,0,41,41,8,1,FBP-OG-81.png,0.43,1.2,9,0.5,,,,,,,,,,,,,,,,,,,,,,,,,,,,,,,,,,,,,,,,,,,,,
,,,,,WIN24_018,19,female,2024-01-29_18h28.01.700,jersey_experiment_5,2023.2.2,Win32,84.74576271,,,,,,,,,,,,,,,,161.6694,162.9633,162.9633,163.7281,return,0.1472,,86.19791667,0,42,42,14,1,FBP-OG-91.png,0.45,1.2,15,0.5,,,,,,,,,,,,,,,,,,,,,,,,,,,,,,,,,,,,,,,,,,,,,
,,,,,WIN24_018,19,female,2024-01-29_18h28.01.700,jersey_experiment_5,2023.2.2,Win32,84.74576271,,,,,,,,,,,,,,,,163.7282,165.5208,165.5208,166.6104,return,0.1432,,63.41145833,0,43,43,22,1,FBP-RB-18.png,0.4,1.2,23,1,,,,,,,,,,,,,,,,,,,,,,,,,,,,,,,,,,,,,,,,,,,,,
,,,,,WIN24_018,19,female,2024-01-29_18h28.01.700,jersey_experiment_5,2023.2.2,Win32,84.74576271,,,,,,,,,,,,,,,,166.6106,167.9087,167.9087,168.9988,return,0.0493,,46.74479167,0,44,44,47,1,FBP-PT-17.png,0.4,1.2,48,0.5,,,,,,,,,,,,,,,,,,,,,,,,,,,,,,,,,,,,,,,,,,,,,
,,,,,WIN24_018,19,female,2024-01-29_18h28.01.700,jersey_experiment_5,2023.2.2,Win32,84.74576271,,,,,,,,,,,,,,,,168.999,170.293,170.293,171.2954,return,0.1513,,39.0625,0,45,45,10,1,FBP-OG-91.png,0.35,1.2,11,0.5,,,,,,,,,,,,,,,,,,,,,,,,,,,,,,,,,,,,,,,,,,,,,
,,,,,WIN24_018,19,female,2024-01-29_18h28.01.700,jersey_experiment_5,2023.2.2,Win32,84.74576271,,,,,,,,,,,,,,,,171.2956,173.0952,173.0952,174.0814,return,0.2487,,8.463541667,0,46,46,15,1,FBP-RB-17.png,0.35,1.2,16,1,,,,,,,,,,,,,,,,,,,,,,,,,,,,,,,,,,,,,,,,,,,,,
,,,,,WIN24_018,19,female,2024-01-29_18h28.01.700,jersey_experiment_5,2023.2.2,Win32,84.74576271,,,,,,,,,,,,,,,,174.0816,175.3755,175.3755,176.2697,return,0.1725,,9.505208333,0,47,47,45,1,FBP-PT-17.png,0.35,1.2,46,0.5,,,,,,,,,,,,,,,,,,,,,,,,,,,,,,,,,,,,,,,,,,,,,
,,,,,WIN24_018,19,female,2024-01-29_18h28.01.700,jersey_experiment_5,2023.2.2,Win32,84.74576271,,,,,,,,,,,,,,,,176.2698,178.062,178.0621,179.0462,return,0.2124,,72.78645833,0,48,48,44,1,FBP-YG-91.png,0.45,1.2,45,1,,,,,,,,,,,,,,,,,,,,,,,,,,,,,,,,,,,,,,,,,,,,,
,,,,,WIN24_018,19,female,2024-01-29_18h28.01.700,jersey_experiment_5,2023.2.2,Win32,84.74576271,,,,,,,,,,,,,,,,179.0465,180.3403,180.3404,181.427,return,0.2338,,73.69791667,0,49,49,58,1,FBP-PT-19.png,0.43,1.2,59,0.5,,,,,,,,,,,,,,,,,,,,,,,,,,,,,,,,,,,,,,,,,,,,,
,,,,,WIN24_018,19,female,2024-01-29_18h28.01.700,jersey_experiment_5,2023.2.2,Win32,84.74576271,,,,,,,,,,,,,,,,181.4271,182.7288,182.7288,184.3995,return,0.1693,,47.00520833,0,50,50,1,1,FBP-OG-71.png,0.37,1.2,2,0.5,,,,,,,,,,,,,,,,,,,,,,,,,,,,,,,,,,,,,,,,,,,,,
,,,,,WIN24_018,19,female,2024-01-29_18h28.01.700,jersey_experiment_5,2023.2.2,Win32,84.74576271,,,,,,,,,,,,,,,,184.3996,186.2038,186.2038,187.759,return,0.1656,,20.57291667,0,51,51,25,1,FBP-RB-19.png,0.35,1.2,26,1,,,,,,,,,,,,,,,,,,,,,,,,,,,,,,,,,,,,,,,,,,,,,
,,,,,WIN24_018,19,female,2024-01-29_18h28.01.700,jersey_experiment_5,2023.2.2,Win32,84.74576271,,,,,,,,,,,,,,,,187.7591,189.0511,189.0511,189.9878,return,0.1771,,79.6875,0,52,52,59,1,FBP-PT-19.png,0.45,1.2,60,0.5,,,,,,,,,,,,,,,,,,,,,,,,,,,,,,,,,,,,,,,,,,,,,
,,,,,WIN24_018,19,female,2024-01-29_18h28.01.700,jersey_experiment_5,2023.2.2,Win32,84.74576271,,,,,,,,,,,,,,,,189.9881,191.7919,191.7919,192.4292,return,0.2001,,87.890625,0,53,53,33,1,FBP-YG-71.png,0.43,1.2,34,1,,,,,,,,,,,,,,,,,,,,,,,,,,,,,,,,,,,,,,,,,,,,,
,,,,,WIN24_018,19,female,2024-01-29_18h28.01.700,jersey_experiment_5,2023.2.2,Win32,84.74576271,,,,,,,,,,,,,,,,192.4294,193.729,193.729,195.0022,return,0.176,,31.640625,0,54,54,5,1,FBP-OG-81.png,0.35,1.2,6,0.5,,,,,,,,,,,,,,,,,,,,,,,,,,,,,,,,,,,,,,,,,,,,,
,,,,,WIN24_018,19,female,2024-01-29_18h28.01.700,jersey_experiment_5,2023.2.2,Win32,84.74576271,,,,,,,,,,,,,,,,195.0024,196.8063,196.8063,197.5413,return,0.1395,,22.13541667,0,55,55,16,1,FBP-RB-17.png,0.37,1.2,17,1,,,,,,,,,,,,,,,,,,,,,,,,,,,,,,,,,,,,,,,,,,,,,
,,,,,WIN24_018,19,female,2024-01-29_18h28.01.700,jersey_experiment_5,2023.2.2,Win32,84.74576271,,,,,,,,,,,,,,,,197.5414,198.8352,198.8352,199.9058,return,0.1217,,80.98958333,0,56,56,13,1,FBP-OG-91.png,0.43,1.2,14,0.5,,,,,,,,,,,,,,,,,,,,,,,,,,,,,,,,,,,,,,,,,,,,,
,,,,,WIN24_018,19,female,2024-01-29_18h28.01.700,jersey_experiment_5,2023.2.2,Win32,84.74576271,,,,,,,,,,,,,,,,199.9059,201.2,201.2,202.1295,return,0.1773,,77.99479167,0,57,57,12,1,FBP-OG-91.png,0.4,1.2,13,0.5,,,,,,,,,,,,,,,,,,,,,,,,,,,,,,,,,,,,,,,,,,,,,
,,,,,WIN24_018,19,female,2024-01-29_18h28.01.700,jersey_experiment_5,2023.2.2,Win32,84.74576271,,,,,,,,,,,,,,,,202.1296,203.4236,203.4236,204.7059,return,0.1788,,20.3125,0,58,58,55,1,FBP-PT-19.png,0.35,1.2,56,0.5,,,,,,,,,,,,,,,,,,,,,,,,,,,,,,,,,,,,,,,,,,,,,
,,,,,WIN24_018,19,female,2024-01-29_18h28.01.700,jersey_experiment_5,2023.2.2,Win32,84.74576271,,,,,,,,,,,,,,,,204.7061,206.5004,206.5004,207.2474,return,0.1577,,10.80729167,0,59,59,31,1,FBP-YG-71.png,0.37,1.2,32,1,,,,,,,,,,,,,,,,,,,,,,,,,,,,,,,,,,,,,,,,,,,,,
,,,,,WIN24_018,19,female,2024-01-29_18h28.01.700,jersey_experiment_5,2023.2.2,Win32,84.74576271,,,,,,,,,,,,,,,,207.2495,208.5478,208.5479,211.1597,return,0.1649,,29.16666667,,,,,,FBP-OG-17.png,0.4,1.2,3,0.5,0,0,0,2,1,,,,,,,,,,,,,,,,,,,,,,,,,,,,,,,,,,,,,,,,
,,,,,WIN24_018,19,female,2024-01-29_18h28.01.700,jersey_experiment_5,2023.2.2,Win32,84.74576271,,,,,,,,,,,,,,,,211.16,212.9578,212.9579,213.777,return,0.1329,,87.109375,,,,,,FBP-RB-71.png,0.45,1.2,20,1,0,1,1,19,1,,,,,,,,,,,,,,,,,,,,,,,,,,,,,,,,,,,,,,,,
,,,,,WIN24_018,19,female,2024-01-29_18h28.01.700,jersey_experiment_5,2023.2.2,Win32,84.74576271,,,,,,,,,,,,,,,,213.7773,215.577,215.577,216.2046,return,0.1528,,86.58854167,,,,,,FBP-YG-19.png,0.43,1.2,44,1,0,2,2,43,1,,,,,,,,,,,,,,,,,,,,,,,,,,,,,,,,,,,,,,,,
,,,,,WIN24_018,19,female,2024-01-29_18h28.01.700,jersey_experiment_5,2023.2.2,Win32,84.74576271,,,,,,,,,,,,,,,,216.2047,217.4969,217.4969,218.4831,return,0.0837,,72.265625,,,,,,FBP-OG-17.png,0.45,1.2,5,0.5,0,3,3,4,1,,,,,,,,,,,,,,,,,,,,,,,,,,,,,,,,,,,,,,,,
,,,,,WIN24_018,19,female,2024-01-29_18h28.01.700,jersey_experiment_5,2023.2.2,Win32,84.74576271,,,,,,,,,,,,,,,,218.4833,220.2759,220.2759,221.0948,return,0.188,,80.20833333,,,,,,FBP-RB-91.png,0.43,1.2,29,1,0,4,4,28,1,,,,,,,,,,,,,,,,,,,,,,,,,,,,,,,,,,,,,,,,
,,,,,WIN24_018,19,female,2024-01-29_18h28.01.700,jersey_experiment_5,2023.2.2,Win32,84.74576271,,,,,,,,,,,,,,,,221.0949,222.3891,222.3891,223.3891,return,0.1384,,62.23958333,,,,,,FBP-PT-81.png,0.4,1.2,53,0.5,0,5,5,52,1,,,,,,,,,,,,,,,,,,,,,,,,,,,,,,,,,,,,,,,,
,,,,,WIN24_018,19,female,2024-01-29_18h28.01.700,jersey_experiment_5,2023.2.2,Win32,84.74576271,,,,,,,,,,,,,,,,223.3893,224.6831,224.6831,225.7186,return,0.1886,,37.109375,,,,,,FBP-OG-18.png,0.35,1.2,6,0.5,0,6,6,5,1,,,,,,,,,,,,,,,,,,,,,,,,,,,,,,,,,,,,,,,,
,,,,,WIN24_018,19,female,2024-01-29_18h28.01.700,jersey_experiment_5,2023.2.2,Win32,84.74576271,,,,,,,,,,,,,,,,225.7189,227.0127,227.0127,228.4009,return,0.0984,,61.45833333,,,,,,FBP-OG-18.png,0.4,1.2,8,0.5,0,7,7,7,1,,,,,,,,,,,,,,,,,,,,,,,,,,,,,,,,,,,,,,,,
,,,,,WIN24_018,19,female,2024-01-29_18h28.01.700,jersey_experiment_5,2023.2.2,Win32,84.74576271,,,,,,,,,,,,,,,,228.4012,230.2055,230.2055,231.1186,return,0.1821,,91.53645833,,,,,,FBP-YG-19.png,0.45,1.2,45,1,0,8,8,44,1,,,,,,,,,,,,,,,,,,,,,,,,,,,,,,,,,,,,,,,,
,,,,,WIN24_018,19,female,2024-01-29_18h28.01.700,jersey_experiment_5,2023.2.2,Win32,84.74576271,,,,,,,,,,,,,,,,231.1188,232.9132,232.9132,233.8248,return,0.1207,,18.359375,,,,,,FBP-YG-19.png,0.37,1.2,42,1,0,9,9,41,1,,,,,,,,,,,,,,,,,,,,,,,,,,,,,,,,,,,,,,,,
,,,,,WIN24_018,19,female,2024-01-29_18h28.01.700,jersey_experiment_5,2023.2.2,Win32,84.74576271,,,,,,,,,,,,,,,,233.8249,235.6247,235.6248,236.6132,return,0.1999,,61.328125,,,,,,FBP-RB-81.png,0.4,1.2,23,1,0,10,10,22,1,,,,,,,,,,,,,,,,,,,,,,,,,,,,,,,,,,,,,,,,
,,,,,WIN24_018,19,female,2024-01-29_18h28.01.700,jersey_experiment_5,2023.2.2,Win32,84.74576271,,,,,,,,,,,,,,,,236.6133,238.4056,238.4056,239.9824,return,0.226,,29.296875,,,,,,FBP-YG-19.png,0.35,1.2,41,1,0,11,11,40,1,,,,,,,,,,,,,,,,,,,,,,,,,,,,,,,,,,,,,,,,
,,,,,WIN24_018,19,female,2024-01-29_18h28.01.700,jersey_experiment_5,2023.2.2,Win32,84.74576271,,,,,,,,,,,,,,,,239.9825,241.2839,241.2839,242.7352,return,0.1529,,44.79166667,,,,,,FBP-OG-19.png,0.4,1.2,13,0.5,0,12,12,12,1,,,,,,,,,,,,,,,,,,,,,,,,,,,,,,,,,,,,,,,,
,,,,,WIN24_018,19,female,2024-01-29_18h28.01.700,jersey_experiment_5,2023.2.2,Win32,84.74576271,,,,,,,,,,,,,,,,242.7354,244.0369,244.037,245.7663,return,0.1204,,69.921875,,,,,,FBP-OG-18.png,0.43,1.2,9,0.5,0,13,13,8,1,,,,,,,,,,,,,,,,,,,,,,,,,,,,,,,,,,,,,,,,
,,,,,WIN24_018,19,female,2024-01-29_18h28.01.700,jersey_experiment_5,2023.2.2,Win32,84.74576271,,,,,,,,,,,,,,,,245.7665,247.5665,247.5665,248.2252,return,0.1774,,71.484375,,,,,,FBP-RB-71.png,0.43,1.2,19,1,0,14,14,18,1,,,,,,,,,,,,,,,,,,,,,,,,,,,,,,,,,,,,,,,,
,,,,,WIN24_018,19,female,2024-01-29_18h28.01.700,jersey_experiment_5,2023.2.2,Win32,84.74576271,,,,,,,,,,,,,,,,248.2255,250.0294,250.0294,250.9826,return,0.1646,,20.96354167,,,,,,FBP-RB-91.png,0.35,1.2,26,1,0,15,15,25,1,,,,,,,,,,,,,,,,,,,,,,,,,,,,,,,,,,,,,,,,
,,,,,WIN24_018,19,female,2024-01-29_18h28.01.700,jersey_experiment_5,2023.2.2,Win32,84.74576271,,,,,,,,,,,,,,,,250.9827,252.7785,252.7785,253.4961,return,0.1174,,20.703125,,,,,,FBP-RB-81.png,0.35,1.2,21,1,0,16,16,20,1,,,,,,,,,,,,,,,,,,,,,,,,,,,,,,,,,,,,,,,,
,,,,,WIN24_018,19,female,2024-01-29_18h28.01.700,jersey_experiment_5,2023.2.2,Win32,84.74576271,,,,,,,,,,,,,,,,253.4963,254.7904,254.7905,255.7669,return,0.1415,,56.25,,,,,,FBP-PT-91.png,0.43,1.2,59,0.5,0,17,17,58,1,,,,,,,,,,,,,,,,,,,,,,,,,,,,,,,,,,,,,,,,
,,,,,WIN24_018,19,female,2024-01-29_18h28.01.700,jersey_experiment_5,2023.2.2,Win32,84.74576271,,,,,,,,,,,,,,,,255.7671,257.5669,257.5669,258.4963,return,0.145,,76.5625,,,,,,FBP-RB-91.png,0.45,1.2,30,1,0,18,18,29,1,,,,,,,,,,,,,,,,,,,,,,,,,,,,,,,,,,,,,,,,
,,,,,WIN24_018,19,female,2024-01-29_18h28.01.700,jersey_experiment_5,2023.2.2,Win32,84.74576271,,,,,,,,,,,,,,,,258.4966,259.7948,259.7948,261.1669,return,0.0999,,55.72916667,,,,,,FBP-OG-17.png,0.43,1.2,4,0.5,0,19,19,3,1,,,,,,,,,,,,,,,,,,,,,,,,,,,,,,,,,,,,,,,,
,,,,,WIN24_018,19,female,2024-01-29_18h28.01.700,jersey_experiment_5,2023.2.2,Win32,84.74576271,,,,,,,,,,,,,,,,261.1671,262.9669,262.9669,263.6304,return,0.1181,,56.38020833,,,,,,FBP-RB-71.png,0.4,1.2,18,1,0,20,20,17,1,,,,,,,,,,,,,,,,,,,,,,,,,,,,,,,,,,,,,,,,
,,,,,WIN24_018,19,female,2024-01-29_18h28.01.700,jersey_experiment_5,2023.2.2,Win32,84.74576271,,,,,,,,,,,,,,,,263.6305,265.4258,265.4258,266.4987,return,0.1982,,63.28125,,,,,,FBP-YG-17.png,0.45,1.2,35,1,0,21,21,34,1,,,,,,,,,,,,,,,,,,,,,,,,,,,,,,,,,,,,,,,,
,,,,,WIN24_018,19,female,2024-01-29_18h28.01.700,jersey_experiment_5,2023.2.2,Win32,84.74576271,,,,,,,,,,,,,,,,266.4989,268.2996,268.2996,268.9908,return,0.1115,,65.88541667,,,,,,FBP-RB-81.png,0.45,1.2,25,1,0,22,22,24,1,,,,,,,,,,,,,,,,,,,,,,,,,,,,,,,,,,,,,,,,
,,,,,WIN24_018,19,female,2024-01-29_18h28.01.700,jersey_experiment_5,2023.2.2,Win32,84.74576271,,,,,,,,,,,,,,,,268.9909,270.7909,270.7909,271.4379,return,0.1726,,65.36458333,,,,,,FBP-YG-18.png,0.45,1.2,40,1,0,23,23,39,1,,,,,,,,,,,,,,,,,,,,,,,,,,,,,,,,,,,,,,,,
,,,,,WIN24_018,19,female,2024-01-29_18h28.01.700,jersey_experiment_5,2023.2.2,Win32,84.74576271,,,,,,,,,,,,,,,,271.4381,273.2381,273.2381,274.4775,return,0.1414,,74.609375,,,,,,FBP-YG-17.png,0.43,1.2,34,1,0,24,24,33,1,,,,,,,,,,,,,,,,,,,,,,,,,,,,,,,,,,,,,,,,
,,,,,WIN24_018,19,female,2024-01-29_18h28.01.700,jersey_experiment_5,2023.2.2,Win32,84.74576271,,,,,,,,,,,,,,,,274.4777,275.7791,275.7791,277.1014,return,0.13,,21.875,,,,,,FBP-PT-91.png,0.35,1.2,56,0.5,0,25,25,55,1,,,,,,,,,,,,,,,,,,,,,,,,,,,,,,,,,,,,,,,,
,,,,,WIN24_018,19,female,2024-01-29_18h28.01.700,jersey_experiment_5,2023.2.2,Win32,84.74576271,,,,,,,,,,,,,,,,277.1016,278.8971,278.8971,279.6638,return,0.1272,,16.14583333,,,,,,FBP-RB-81.png,0.37,1.2,22,1,0,26,26,21,1,,,,,,,,,,,,,,,,,,,,,,,,,,,,,,,,,,,,,,,,
,,,,,WIN24_018,19,female,2024-01-29_18h28.01.700,jersey_experiment_5,2023.2.2,Win32,84.74576271,,,,,,,,,,,,,,,,279.664,280.9564,280.9564,281.7676,return,0.0728,,7.552083333,,,,,,FBP-OG-17.png,0.35,1.2,1,0.5,0,27,27,0,1,,,,,,,,,,,,,,,,,,,,,,,,,,,,,,,,,,,,,,,,
,,,,,WIN24_018,19,female,2024-01-29_18h28.01.700,jersey_experiment_5,2023.2.2,Win32,84.74576271,,,,,,,,,,,,,,,,281.7678,283.5623,283.5623,284.3559,return,0.1292,,54.03645833,,,,,,FBP-YG-18.png,0.43,1.2,39,1,0,28,28,38,1,,,,,,,,,,,,,,,,,,,,,,,,,,,,,,,,,,,,,,,,
,,,,,WIN24_018,19,female,2024-01-29_18h28.01.700,jersey_experiment_5,2023.2.2,Win32,84.74576271,,,,,,,,,,,,,,,,284.356,286.1505,286.1505,286.909,return,0.1735,,28.77604167,,,,,,FBP-YG-18.png,0.37,1.2,37,1,0,29,29,36,1,,,,,,,,,,,,,,,,,,,,,,,,,,,,,,,,,,,,,,,,
,,,,,WIN24_018,19,female,2024-01-29_18h28.01.700,jersey_experiment_5,2023.2.2,Win32,84.74576271,,,,,,,,,,,,,,,,286.9091,288.7131,288.7131,289.4855,return,0.1715,,29.81770833,,,,,,FBP-YG-17.png,0.37,1.2,32,1,0,30,30,31,1,,,,,,,,,,,,,,,,,,,,,,,,,,,,,,,,,,,,,,,,
,,,,,WIN24_018,19,female,2024-01-29_18h28.01.700,jersey_experiment_5,2023.2.2,Win32,84.74576271,,,,,,,,,,,,,,,,289.4857,290.7797,290.7797,291.9563,return,0.1198,,40.49479167,,,,,,FBP-PT-71.png,0.4,1.2,48,0.5,0,31,31,47,1,,,,,,,,,,,,,,,,,,,,,,,,,,,,,,,,,,,,,,,,
,,,,,WIN24_018,19,female,2024-01-29_18h28.01.700,jersey_experiment_5,2023.2.2,Win32,84.74576271,,,,,,,,,,,,,,,,291.9566,293.2545,293.2545,294.4035,return,0.1674,,22.91666667,,,,,,FBP-OG-19.png,0.37,1.2,12,0.5,0,32,32,11,1,,,,,,,,,,,,,,,,,,,,,,,,,,,,,,,,,,,,,,,,
,,,,,WIN24_018,19,female,2024-01-29_18h28.01.700,jersey_experiment_5,2023.2.2,Win32,84.74576271,,,,,,,,,,,,,,,,294.4036,295.7016,295.7016,297.1253,return,0.647,,13.28125,,,,,,FBP-PT-71.png,0.35,1.2,46,0.5,0,33,33,45,1,,,,,,,,,,,,,,,,,,,,,,,,,,,,,,,,,,,,,,,,
,,,,,WIN24_018,19,female,2024-01-29_18h28.01.700,jersey_experiment_5,2023.2.2,Win32,84.74576271,,,,,,,,,,,,,,,,297.1255,298.4272,298.4272,299.2071,return,0.1405,,13.54166667,,,,,,FBP-PT-81.png,0.37,1.2,52,0.5,0,34,34,51,1,,,,,,,,,,,,,,,,,,,,,,,,,,,,,,,,,,,,,,,,
,,,,,WIN24_018,19,female,2024-01-29_18h28.01.700,jersey_experiment_5,2023.2.2,Win32,84.74576271,,,,,,,,,,,,,,,,299.2072,301.0082,301.0082,301.7609,return,0.0944,,30.98958333,,,,,,FBP-YG-19.png,0.4,1.2,43,1,0,35,35,42,1,,,,,,,,,,,,,,,,,,,,,,,,,,,,,,,,,,,,,,,,
,,,,,WIN24_018,19,female,2024-01-29_18h28.01.700,jersey_experiment_5,2023.2.2,Win32,84.74576271,,,,,,,,,,,,,,,,301.761,303.5624,303.5624,304.1803,return,0.0946,,33.33333333,,,,,,FBP-YG-17.png,0.4,1.2,33,1,0,36,36,32,1,,,,,,,,,,,,,,,,,,,,,,,,,,,,,,,,,,,,,,,,
,,,,,WIN24_018,19,female,2024-01-29_18h28.01.700,jersey_experiment_5,2023.2.2,Win32,84.74576271,,,,,,,,,,,,,,,,304.1805,305.9745,305.9745,306.7024,return,0.1648,,35.15625,,,,,,FBP-YG-18.png,0.4,1.2,38,1,0,37,37,37,1,,,,,,,,,,,,,,,,,,,,,,,,,,,,,,,,,,,,,,,,
,,,,,WIN24_018,19,female,2024-01-29_18h28.01.700,jersey_experiment_5,2023.2.2,Win32,84.74576271,,,,,,,,,,,,,,,,306.7025,307.9981,307.9981,309.1964,return,0.2353,,37.36979167,,,,,,FBP-PT-71.png,0.37,1.2,47,0.5,0,38,38,46,1,,,,,,,,,,,,,,,,,,,,,,,,,,,,,,,,,,,,,,,,
,,,,,WIN24_018,19,female,2024-01-29_18h28.01.700,jersey_experiment_5,2023.2.2,Win32,84.74576271,,,,,,,,,,,,,,,,309.1966,310.4983,310.4983,311.5689,return,0.156,,10.80729167,,,,,,FBP-PT-81.png,0.35,1.2,51,0.5,0,39,39,50,1,,,,,,,,,,,,,,,,,,,,,,,,,,,,,,,,,,,,,,,,
,,,,,WIN24_018,19,female,2024-01-29_18h28.01.700,jersey_experiment_5,2023.2.2,Win32,84.74576271,,,,,,,,,,,,,,,,311.569,312.8631,312.8631,314.0221,return,0.2845,,29.42708333,,,,,,FBP-PT-91.png,0.4,1.2,58,0.5,0,40,40,57,1,,,,,,,,,,,,,,,,,,,,,,,,,,,,,,,,,,,,,,,,
,,,,,WIN24_018,19,female,2024-01-29_18h28.01.700,jersey_experiment_5,2023.2.2,Win32,84.74576271,,,,,,,,,,,,,,,,314.0222,315.322,315.322,316.1573,return,0.1478,,29.6875,,,,,,FBP-PT-91.png,0.37,1.2,57,0.5,0,41,41,56,1,,,,,,,,,,,,,,,,,,,,,,,,,,,,,,,,,,,,,,,,
,,,,,WIN24_018,19,female,2024-01-29_18h28.01.700,jersey_experiment_5,2023.2.2,Win32,84.74576271,,,,,,,,,,,,,,,,316.1573,317.4514,317.4514,318.6692,return,0.0587,,62.109375,,,,,,FBP-PT-81.png,0.45,1.2,55,0.5,0,42,42,54,1,,,,,,,,,,,,,,,,,,,,,,,,,,,,,,,,,,,,,,,,
,,,,,WIN24_018,19,female,2024-01-29_18h28.01.700,jersey_experiment_5,2023.2.2,Win32,84.74576271,,,,,,,,,,,,,,,,318.6694,319.9691,319.9691,320.6693,return,0.1901,,61.06770833,,,,,,FBP-OG-19.png,0.43,1.2,14,0.5,0,43,43,13,1,,,,,,,,,,,,,,,,,,,,,,,,,,,,,,,,,,,,,,,,
,,,,,WIN24_018,19,female,2024-01-29_18h28.01.700,jersey_experiment_5,2023.2.2,Win32,84.74576271,,,,,,,,,,,,,,,,320.6694,322.4674,322.4674,323.8399,return,0.0985,,19.921875,,,,,,FBP-RB-71.png,0.35,1.2,16,1,0,44,44,15,1,,,,,,,,,,,,,,,,,,,,,,,,,,,,,,,,,,,,,,,,
,,,,,WIN24_018,19,female,2024-01-29_18h28.01.700,jersey_experiment_5,2023.2.2,Win32,84.74576271,,,,,,,,,,,,,,,,323.84,325.134,325.1341,326.1029,return,0.1776,,78.64583333,,,,,,FBP-PT-91.png,0.45,1.2,60,0.5,0,45,45,59,1,,,,,,,,,,,,,,,,,,,,,,,,,,,,,,,,,,,,,,,,
,,,,,WIN24_018,19,female,2024-01-29_18h28.01.700,jersey_experiment_5,2023.2.2,Win32,84.74576271,,,,,,,,,,,,,,,,326.103,327.9031,327.9031,328.7693,return,0.2145,,12.76041667,,,,,,FBP-YG-18.png,0.35,1.2,36,1,0,46,46,35,1,,,,,,,,,,,,,,,,,,,,,,,,,,,,,,,,,,,,,,,,
,,,,,WIN24_018,19,female,2024-01-29_18h28.01.700,jersey_experiment_5,2023.2.2,Win32,84.74576271,,,,,,,,,,,,,,,,328.7695,330.0636,330.0636,330.7343,return,0.1468,,13.02083333,,,,,,FBP-OG-19.png,0.35,1.2,11,0.5,0,47,47,10,1,,,,,,,,,,,,,,,,,,,,,,,,,,,,,,,,,,,,,,,,
,,,,,WIN24_018,19,female,2024-01-29_18h28.01.700,jersey_experiment_5,2023.2.2,Win32,84.74576271,,,,,,,,,,,,,,,,330.7344,332.0285,332.0285,332.9579,return,0.1361,,51.04166667,,,,,,FBP-PT-81.png,0.43,1.2,54,0.5,0,48,48,53,1,,,,,,,,,,,,,,,,,,,,,,,,,,,,,,,,,,,,,,,,
,,,,,WIN24_018,19,female,2024-01-29_18h28.01.700,jersey_experiment_5,2023.2.2,Win32,84.74576271,,,,,,,,,,,,,,,,332.9581,334.7504,334.7505,335.9227,return,0.1329,,49.21875,,,,,,FBP-RB-91.png,0.37,1.2,27,1,0,49,49,26,1,,,,,,,,,,,,,,,,,,,,,,,,,,,,,,,,,,,,,,,,
,,,,,WIN24_018,19,female,2024-01-29_18h28.01.700,jersey_experiment_5,2023.2.2,Win32,84.74576271,,,,,,,,,,,,,,,,335.9228,337.221,337.221,338.1034,return,0.1295,,63.671875,,,,,,FBP-PT-71.png,0.45,1.2,50,0.5,0,50,50,49,1,,,,,,,,,,,,,,,,,,,,,,,,,,,,,,,,,,,,,,,,
,,,,,WIN24_018,19,female,2024-01-29_18h28.01.700,jersey_experiment_5,2023.2.2,Win32,84.74576271,,,,,,,,,,,,,,,,338.1036,339.3976,339.3976,340.064,return,0.1432,,62.5,,,,,,FBP-OG-19.png,0.45,1.2,15,0.5,0,51,51,14,1,,,,,,,,,,,,,,,,,,,,,,,,,,,,,,,,,,,,,,,,
,,,,,WIN24_018,19,female,2024-01-29_18h28.01.700,jersey_experiment_5,2023.2.2,Win32,84.74576271,,,,,,,,,,,,,,,,340.0642,341.3582,341.3582,342.3059,return,0.1885,,65.234375,,,,,,FBP-OG-18.png,0.37,1.2,7,0.5,0,52,52,6,1,,,,,,,,,,,,,,,,,,,,,,,,,,,,,,,,,,,,,,,,
,,,,,WIN24_018,19,female,2024-01-29_18h28.01.700,jersey_experiment_5,2023.2.2,Win32,84.74576271,,,,,,,,,,,,,,,,342.3061,343.6054,343.6054,344.3583,return,0.1548,,66.40625,,,,,,FBP-PT-71.png,0.43,1.2,49,0.5,0,53,53,48,1,,,,,,,,,,,,,,,,,,,,,,,,,,,,,,,,,,,,,,,,
,,,,,WIN24_018,19,female,2024-01-29_18h28.01.700,jersey_experiment_5,2023.2.2,Win32,84.74576271,,,,,,,,,,,,,,,,344.3585,345.6568,345.6568,346.6449,return,0.1395,,71.875,,,,,,FBP-OG-18.png,0.45,1.2,10,0.5,0,54,54,9,1,,,,,,,,,,,,,,,,,,,,,,,,,,,,,,,,,,,,,,,,
,,,,,WIN24_018,19,female,2024-01-29_18h28.01.700,jersey_experiment_5,2023.2.2,Win32,84.74576271,,,,,,,,,,,,,,,,346.6451,347.9505,347.9505,349.4056,return,0.1846,,36.71875,,,,,,FBP-OG-17.png,0.37,1.2,2,0.5,0,55,55,1,1,,,,,,,,,,,,,,,,,,,,,,,,,,,,,,,,,,,,,,,,
,,,,,WIN24_018,19,female,2024-01-29_18h28.01.700,jersey_experiment_5,2023.2.2,Win32,84.74576271,,,,,,,,,,,,,,,,349.4057,351.1979,351.1979,353.2057,return,0.9415,,53.77604167,,,,,,FBP-RB-91.png,0.4,1.2,28,1,0,56,56,27,1,,,,,,,,,,,,,,,,,,,,,,,,,,,,,,,,,,,,,,,,
,,,,,WIN24_018,19,female,2024-01-29_18h28.01.700,jersey_experiment_5,2023.2.2,Win32,84.74576271,,,,,,,,,,,,,,,,353.206,355.012,355.012,355.7117,return,0.1338,,16.53645833,,,,,,FBP-YG-17.png,0.35,1.2,31,1,0,57,57,30,1,,,,,,,,,,,,,,,,,,,,,,,,,,,,,,,,,,,,,,,,
,,,,,WIN24_018,19,female,2024-01-29_18h28.01.700,jersey_experiment_5,2023.2.2,Win32,84.74576271,,,,,,,,,,,,,,,,355.7117,357.5057,357.5057,358.161,return,0.1866,,30.59895833,,,,,,FBP-RB-71.png,0.37,1.2,17,1,0,58,58,16,1,,,,,,,,,,,,,,,,,,,,,,,,,,,,,,,,,,,,,,,,
,,,,,WIN24_018,19,female,2024-01-29_18h28.01.700,jersey_experiment_5,2023.2.2,Win32,84.74576271,,,,,,,,,,,,,,,,358.1612,359.9633,359.9633,361.4295,return,0.1294,,36.71875,,,,,,FBP-RB-81.png,0.43,1.2,24,1,0,59,59,23,1,,,,,,,,,,,,,,,,,,,,,,,,,,,,,,,,,,,,,,,,
,,,,,WIN24_018,19,female,2024-01-29_18h28.01.700,jersey_experiment_5,2023.2.2,Win32,84.74576271,,,,,,,,,,,,,,,,,,,,,,,,,,,,,,,,,,,,,,,361.4298,481.4342,,,,,,,,,,,,,,,,,,,,,,,,,,,,,,,,,,,,,,
,,,,,WIN24_018,19,female,2024-01-29_18h28.01.700,jersey_experiment_5,2023.2.2,Win32,84.74576271,,,,,,,,,,,,,,,,,,,,,,,,,,,,,,,,,,,,,,,,,481.4342,496.0816,return,14.6268,,,,,,,,,,,,,,,,,,,,,,,,,,,,,,,,,,
,,,,,WIN24_018,19,female,2024-01-29_18h28.01.700,jersey_experiment_5,2023.2.2,Win32,84.74576271,,,,,,,,,,,,,,,,496.0876,497.3874,497.3874,501.827,return,3.1651,,54.6875,,,,,,FBP-RB-18.png,0.45,1.2,25,0.5,,,,,,,,,,,,,0,0,0,24,1,,,,,,,,,,,,,,,,,,,,,,,,,,,,
,,,,,WIN24_018,19,female,2024-01-29_18h28.01.700,jersey_experiment_5,2023.2.2,Win32,84.74576271,,,,,,,,,,,,,,,,501.8274,503.6251,503.6252,504.3805,return,0.118,,22.265625,,,,,,FBP-OG-91.png,0.35,1.2,11,1,,,,,,,,,,,,,0,1,1,10,1,,,,,,,,,,,,,,,,,,,,,,,,,,,,
,,,,,WIN24_018,19,female,2024-01-29_18h28.01.700,jersey_experiment_5,2023.2.2,Win32,84.74576271,,,,,,,,,,,,,,,,504.3807,505.6723,505.6723,507.0294,return,0.0942,,32.16145833,,,,,,FBP-RB-19.png,0.35,1.2,26,0.5,,,,,,,,,,,,,0,2,2,25,1,,,,,,,,,,,,,,,,,,,,,,,,,,,,
,,,,,WIN24_018,19,female,2024-01-29_18h28.01.700,jersey_experiment_5,2023.2.2,Win32,84.74576271,,,,,,,,,,,,,,,,507.0295,508.329,508.3291,509.3406,return,0.1934,,60.9375,,,,,,FBP-RB-18.png,0.37,1.2,22,0.5,,,,,,,,,,,,,0,3,3,21,1,,,,,,,,,,,,,,,,,,,,,,,,,,,,
,,,,,WIN24_018,19,female,2024-01-29_18h28.01.700,jersey_experiment_5,2023.2.2,Win32,84.74576271,,,,,,,,,,,,,,,,509.3409,511.1321,511.1321,512.1763,return,0.5213,,78.38541667,,,,,,FBP-PT-19.png,0.45,1.2,60,1,,,,,,,,,,,,,0,4,4,59,1,,,,,,,,,,,,,,,,,,,,,,,,,,,,
,,,,,WIN24_018,19,female,2024-01-29_18h28.01.700,jersey_experiment_5,2023.2.2,Win32,84.74576271,,,,,,,,,,,,,,,,512.1764,513.4766,513.4766,514.71,return,0.2117,,61.71875,,,,,,FBP-RB-18.png,0.43,1.2,24,0.5,,,,,,,,,,,,,0,5,5,23,1,,,,,,,,,,,,,,,,,,,,,,,,,,,,
,,,,,WIN24_018,19,female,2024-01-29_18h28.01.700,jersey_experiment_5,2023.2.2,Win32,84.74576271,,,,,,,,,,,,,,,,514.7101,516.5058,516.5059,517.3176,return,0.106,,53.64583333,,,,,,FBP-PT-19.png,0.4,1.2,58,1,,,,,,,,,,,,,0,6,6,57,1,,,,,,,,,,,,,,,,,,,,,,,,,,,,
,,,,,WIN24_018,19,female,2024-01-29_18h28.01.700,jersey_experiment_5,2023.2.2,Win32,84.74576271,,,,,,,,,,,,,,,,517.3178,518.614,518.614,519.2042,return,0.1179,,54.03645833,,,,,,FBP-RB-19.png,0.4,1.2,28,0.5,,,,,,,,,,,,,0,7,7,27,1,,,,,,,,,,,,,,,,,,,,,,,,,,,,
,,,,,WIN24_018,19,female,2024-01-29_18h28.01.700,jersey_experiment_5,2023.2.2,Win32,84.74576271,,,,,,,,,,,,,,,,519.2043,521.0001,521.0002,521.953,return,0.1216,,22.39583333,,,,,,FBP-PT-19.png,0.35,1.2,56,1,,,,,,,,,,,,,0,8,8,55,1,,,,,,,,,,,,,,,,,,,,,,,,,,,,
,,,,,WIN24_018,19,female,2024-01-29_18h28.01.700,jersey_experiment_5,2023.2.2,Win32,84.74576271,,,,,,,,,,,,,,,,521.9532,523.7529,523.753,524.6398,return,0.0827,,33.984375,,,,,,FBP-OG-91.png,0.4,1.2,13,1,,,,,,,,,,,,,0,9,9,12,1,,,,,,,,,,,,,,,,,,,,,,,,,,,,
,,,,,WIN24_018,19,female,2024-01-29_18h28.01.700,jersey_experiment_5,2023.2.2,Win32,84.74576271,,,,,,,,,,,,,,,,524.64,526.4417,526.4417,527.0164,return,0.1532,,58.85416667,,,,,,FBP-OG-71.png,0.4,1.2,3,1,,,,,,,,,,,,,0,10,10,2,1,,,,,,,,,,,,,,,,,,,,,,,,,,,,
,,,,,WIN24_018,19,female,2024-01-29_18h28.01.700,jersey_experiment_5,2023.2.2,Win32,84.74576271,,,,,,,,,,,,,,,,527.0166,528.3082,528.3082,529.471,return,0.2894,,76.30208333,,,,,,FBP-YG-71.png,0.45,1.2,35,0.5,,,,,,,,,,,,,0,11,11,34,1,,,,,,,,,,,,,,,,,,,,,,,,,,,,
,,,,,WIN24_018,19,female,2024-01-29_18h28.01.700,jersey_experiment_5,2023.2.2,Win32,84.74576271,,,,,,,,,,,,,,,,529.4712,530.7651,530.7652,531.4401,return,0.1432,,69.921875,,,,,,FBP-YG-81.png,0.4,1.2,38,0.5,,,,,,,,,,,,,0,12,12,37,1,,,,,,,,,,,,,,,,,,,,,,,,,,,,
,,,,,WIN24_018,19,female,2024-01-29_18h28.01.700,jersey_experiment_5,2023.2.2,Win32,84.74576271,,,,,,,,,,,,,,,,531.4403,532.7361,532.7361,533.9226,return,0.1534,,21.35416667,,,,,,FBP-RB-18.png,0.35,1.2,21,0.5,,,,,,,,,,,,,0,13,13,20,1,,,,,,,,,,,,,,,,,,,,,,,,,,,,
,,,,,WIN24_018,19,female,2024-01-29_18h28.01.700,jersey_experiment_5,2023.2.2,Win32,84.74576271,,,,,,,,,,,,,,,,533.9227,535.7223,535.7223,536.4636,return,0.1179,,72.78645833,,,,,,FBP-PT-19.png,0.43,1.2,59,1,,,,,,,,,,,,,0,14,14,58,1,,,,,,,,,,,,,,,,,,,,,,,,,,,,
,,,,,WIN24_018,19,female,2024-01-29_18h28.01.700,jersey_experiment_5,2023.2.2,Win32,84.74576271,,,,,,,,,,,,,,,,536.4638,538.2638,538.2639,539.4737,return,0.1391,,16.40625,,,,,,FBP-PT-17.png,0.35,1.2,46,1,,,,,,,,,,,,,0,15,15,45,1,,,,,,,,,,,,,,,,,,,,,,,,,,,,
,,,,,WIN24_018,19,female,2024-01-29_18h28.01.700,jersey_experiment_5,2023.2.2,Win32,84.74576271,,,,,,,,,,,,,,,,539.4739,540.7654,540.7655,541.605,return,0.1881,,31.11979167,,,,,,FBP-RB-19.png,0.37,1.2,27,0.5,,,,,,,,,,,,,0,16,16,26,1,,,,,,,,,,,,,,,,,,,,,,,,,,,,
,,,,,WIN24_018,19,female,2024-01-29_18h28.01.700,jersey_experiment_5,2023.2.2,Win32,84.74576271,,,,,,,,,,,,,,,,541.6051,543.4009,543.4009,544.0386,return,0.1059,,34.24479167,,,,,,FBP-PT-18.png,0.37,1.2,52,1,,,,,,,,,,,,,0,17,17,51,1,,,,,,,,,,,,,,,,,,,,,,,,,,,,
,,,,,WIN24_018,19,female,2024-01-29_18h28.01.700,jersey_experiment_5,2023.2.2,Win32,84.74576271,,,,,,,,,,,,,,,,544.0387,545.8405,545.8405,547.4523,return,0.9161,,58.07291667,,,,,,FBP-PT-18.png,0.43,1.2,54,1,,,,,,,,,,,,,0,18,18,53,1,,,,,,,,,,,,,,,,,,,,,,,,,,,,
,,,,,WIN24_018,19,female,2024-01-29_18h28.01.700,jersey_experiment_5,2023.2.2,Win32,84.74576271,,,,,,,,,,,,,,,,547.4525,549.2523,549.2523,550.7253,return,0.355,,84.11458333,,,,,,FBP-OG-91.png,0.45,1.2,15,1,,,,,,,,,,,,,0,19,19,14,1,,,,,,,,,,,,,,,,,,,,,,,,,,,,
,,,,,WIN24_018,19,female,2024-01-29_18h28.01.700,jersey_experiment_5,2023.2.2,Win32,84.74576271,,,,,,,,,,,,,,,,550.7254,552.017,552.017,553.2718,return,0.261,,72.13541667,,,,,,FBP-RB-19.png,0.45,1.2,30,0.5,,,,,,,,,,,,,0,20,20,29,1,,,,,,,,,,,,,,,,,,,,,,,,,,,,
,,,,,WIN24_018,19,female,2024-01-29_18h28.01.700,jersey_experiment_5,2023.2.2,Win32,84.74576271,,,,,,,,,,,,,,,,553.272,554.57,554.57,556.6885,return,1.0809,,29.94791667,,,,,,FBP-YG-71.png,0.37,1.2,32,0.5,,,,,,,,,,,,,0,21,21,31,1,,,,,,,,,,,,,,,,,,,,,,,,,,,,
,,,,,WIN24_018,19,female,2024-01-29_18h28.01.700,jersey_experiment_5,2023.2.2,Win32,84.74576271,,,,,,,,,,,,,,,,556.6886,557.9841,557.9841,559.2647,return,0.212,,79.81770833,,,,,,FBP-YG-81.png,0.45,1.2,40,0.5,,,,,,,,,,,,,0,22,22,39,1,,,,,,,,,,,,,,,,,,,,,,,,,,,,
,,,,,WIN24_018,19,female,2024-01-29_18h28.01.700,jersey_experiment_5,2023.2.2,Win32,84.74576271,,,,,,,,,,,,,,,,559.2649,561.0648,561.0648,561.9074,return,0.2713,,79.16666667,,,,,,FBP-OG-71.png,0.43,1.2,4,1,,,,,,,,,,,,,0,23,23,3,1,,,,,,,,,,,,,,,,,,,,,,,,,,,,
,,,,,WIN24_018,19,female,2024-01-29_18h28.01.700,jersey_experiment_5,2023.2.2,Win32,84.74576271,,,,,,,,,,,,,,,,561.9076,563.7116,563.7117,564.484,return,0.1172,,70.57291667,,,,,,FBP-OG-81.png,0.43,1.2,9,1,,,,,,,,,,,,,0,24,24,8,1,,,,,,,,,,,,,,,,,,,,,,,,,,,,
,,,,,WIN24_018,19,female,2024-01-29_18h28.01.700,jersey_experiment_5,2023.2.2,Win32,84.74576271,,,,,,,,,,,,,,,,564.4842,565.7823,565.7823,567.0277,return,0.4455,,55.72916667,,,,,,FBP-YG-71.png,0.4,1.2,33,0.5,,,,,,,,,,,,,0,25,25,32,1,,,,,,,,,,,,,,,,,,,,,,,,,,,,
,,,,,WIN24_018,19,female,2024-01-29_18h28.01.700,jersey_experiment_5,2023.2.2,Win32,84.74576271,,,,,,,,,,,,,,,,567.0278,568.3193,568.3193,569.7355,return,0.1178,,64.58333333,,,,,,FBP-RB-18.png,0.4,1.2,23,0.5,,,,,,,,,,,,,0,26,26,22,1,,,,,,,,,,,,,,,,,,,,,,,,,,,,
,,,,,WIN24_018,19,female,2024-01-29_18h28.01.700,jersey_experiment_5,2023.2.2,Win32,84.74576271,,,,,,,,,,,,,,,,569.7357,571.0414,571.0415,572.1197,return,0.1197,,70.18229167,,,,,,FBP-YG-91.png,0.4,1.2,43,0.5,,,,,,,,,,,,,0,27,27,42,1,,,,,,,,,,,,,,,,,,,,,,,,,,,,
,,,,,WIN24_018,19,female,2024-01-29_18h28.01.700,jersey_experiment_5,2023.2.2,Win32,84.74576271,,,,,,,,,,,,,,,,572.1198,573.4182,573.4182,574.5785,return,0.2856,,17.31770833,,,,,,FBP-RB-17.png,0.35,1.2,16,0.5,,,,,,,,,,,,,0,28,28,15,1,,,,,,,,,,,,,,,,,,,,,,,,,,,,
,,,,,WIN24_018,19,female,2024-01-29_18h28.01.700,jersey_experiment_5,2023.2.2,Win32,84.74576271,,,,,,,,,,,,,,,,574.5787,576.3711,576.3711,577.7357,return,0.5413,,79.296875,,,,,,FBP-PT-17.png,0.45,1.2,50,1,,,,,,,,,,,,,0,29,29,49,1,,,,,,,,,,,,,,,,,,,,,,,,,,,,
,,,,,WIN24_018,19,female,2024-01-29_18h28.01.700,jersey_experiment_5,2023.2.2,Win32,84.74576271,,,,,,,,,,,,,,,,577.7358,579.0278,579.0278,579.8437,return,0.1532,,86.06770833,,,,,,FBP-RB-17.png,0.45,1.2,20,0.5,,,,,,,,,,,,,0,30,30,19,1,,,,,,,,,,,,,,,,,,,,,,,,,,,,
,,,,,WIN24_018,19,female,2024-01-29_18h28.01.700,jersey_experiment_5,2023.2.2,Win32,84.74576271,,,,,,,,,,,,,,,,579.8439,581.136,581.136,582.5316,return,0.1298,,71.09375,,,,,,FBP-YG-81.png,0.35,1.2,36,0.5,,,,,,,,,,,,,0,31,31,35,1,,,,,,,,,,,,,,,,,,,,,,,,,,,,
,,,,,WIN24_018,19,female,2024-01-29_18h28.01.700,jersey_experiment_5,2023.2.2,Win32,84.74576271,,,,,,,,,,,,,,,,582.5318,583.8258,583.8258,584.6055,return,0.093,,71.61458333,,,,,,FBP-RB-17.png,0.37,1.2,17,0.5,,,,,,,,,,,,,0,32,32,16,1,,,,,,,,,,,,,,,,,,,,,,,,,,,,
,,,,,WIN24_018,19,female,2024-01-29_18h28.01.700,jersey_experiment_5,2023.2.2,Win32,84.74576271,,,,,,,,,,,,,,,,584.6057,586.4089,586.4089,587.1597,return,0.1411,,36.71875,,,,,,FBP-OG-91.png,0.37,1.2,12,1,,,,,,,,,,,,,0,33,33,11,1,,,,,,,,,,,,,,,,,,,,,,,,,,,,
,,,,,WIN24_018,19,female,2024-01-29_18h28.01.700,jersey_experiment_5,2023.2.2,Win32,84.74576271,,,,,,,,,,,,,,,,587.1599,588.4536,588.4536,589.1129,return,0.0828,,64.71354167,,,,,,FBP-RB-19.png,0.43,1.2,29,0.5,,,,,,,,,,,,,0,34,34,28,1,,,,,,,,,,,,,,,,,,,,,,,,,,,,
,,,,,WIN24_018,19,female,2024-01-29_18h28.01.700,jersey_experiment_5,2023.2.2,Win32,84.74576271,,,,,,,,,,,,,,,,589.113,590.915,590.9151,591.6378,return,0.1178,,79.55729167,,,,,,FBP-PT-18.png,0.45,1.2,55,1,,,,,,,,,,,,,0,35,35,54,1,,,,,,,,,,,,,,,,,,,,,,,,,,,,
,,,,,WIN24_018,19,female,2024-01-29_18h28.01.700,jersey_experiment_5,2023.2.2,Win32,84.74576271,,,,,,,,,,,,,,,,591.6379,593.444,593.444,594.1364,return,0.0829,,61.84895833,,,,,,FBP-OG-81.png,0.4,1.2,8,1,,,,,,,,,,,,,0,36,36,7,1,,,,,,,,,,,,,,,,,,,,,,,,,,,,
,,,,,WIN24_018,19,female,2024-01-29_18h28.01.700,jersey_experiment_5,2023.2.2,Win32,84.74576271,,,,,,,,,,,,,,,,594.1365,595.4421,595.4421,596.1835,return,0.0941,,63.02083333,,,,,,FBP-YG-71.png,0.43,1.2,34,0.5,,,,,,,,,,,,,0,37,37,33,1,,,,,,,,,,,,,,,,,,,,,,,,,,,,
,,,,,WIN24_018,19,female,2024-01-29_18h28.01.700,jersey_experiment_5,2023.2.2,Win32,84.74576271,,,,,,,,,,,,,,,,596.1837,597.9794,597.9794,598.5087,return,0.0989,,54.296875,,,,,,FBP-PT-19.png,0.37,1.2,57,1,,,,,,,,,,,,,0,38,38,56,1,,,,,,,,,,,,,,,,,,,,,,,,,,,,
,,,,,WIN24_018,19,female,2024-01-29_18h28.01.700,jersey_experiment_5,2023.2.2,Win32,84.74576271,,,,,,,,,,,,,,,,598.5089,599.8029,599.803,600.6189,return,0.2218,,51.30208333,,,,,,FBP-YG-91.png,0.35,1.2,41,0.5,,,,,,,,,,,,,0,39,39,40,1,,,,,,,,,,,,,,,,,,,,,,,,,,,,
,,,,,WIN24_018,19,female,2024-01-29_18h28.01.700,jersey_experiment_5,2023.2.2,Win32,84.74576271,,,,,,,,,,,,,,,,600.619,602.4148,602.4148,602.9913,return,0.1476,,47.13541667,,,,,,FBP-OG-71.png,0.35,1.2,1,1,,,,,,,,,,,,,0,40,40,0,1,,,,,,,,,,,,,,,,,,,,,,,,,,,,
,,,,,WIN24_018,19,female,2024-01-29_18h28.01.700,jersey_experiment_5,2023.2.2,Win32,84.74576271,,,,,,,,,,,,,,,,602.9915,604.7972,604.7972,605.5208,return,0.2044,,41.14583333,,,,,,FBP-PT-18.png,0.35,1.2,51,1,,,,,,,,,,,,,0,41,41,50,1,,,,,,,,,,,,,,,,,,,,,,,,,,,,
,,,,,WIN24_018,19,female,2024-01-29_18h28.01.700,jersey_experiment_5,2023.2.2,Win32,84.74576271,,,,,,,,,,,,,,,,605.521,607.3134,607.3134,608.2645,return,0.1277,,55.078125,,,,,,FBP-OG-91.png,0.43,1.2,14,1,,,,,,,,,,,,,0,42,42,13,1,,,,,,,,,,,,,,,,,,,,,,,,,,,,
,,,,,WIN24_018,19,female,2024-01-29_18h28.01.700,jersey_experiment_5,2023.2.2,Win32,84.74576271,,,,,,,,,,,,,,,,608.2646,609.5607,609.5607,610.2857,return,0.1261,,65.49479167,,,,,,FBP-YG-91.png,0.45,1.2,45,0.5,,,,,,,,,,,,,0,43,43,44,1,,,,,,,,,,,,,,,,,,,,,,,,,,,,
,,,,,WIN24_018,19,female,2024-01-29_18h28.01.700,jersey_experiment_5,2023.2.2,Win32,84.74576271,,,,,,,,,,,,,,,,610.286,612.0781,612.0781,613.2187,return,0.611,,64.71354167,,,,,,FBP-PT-18.png,0.4,1.2,53,1,,,,,,,,,,,,,0,44,44,52,1,,,,,,,,,,,,,,,,,,,,,,,,,,,,
,,,,,WIN24_018,19,female,2024-01-29_18h28.01.700,jersey_experiment_5,2023.2.2,Win32,84.74576271,,,,,,,,,,,,,,,,613.2188,614.5212,614.5212,615.6151,return,0.1086,,49.73958333,,,,,,FBP-YG-71.png,0.35,1.2,31,0.5,,,,,,,,,,,,,0,45,45,30,1,,,,,,,,,,,,,,,,,,,,,,,,,,,,
,,,,,WIN24_018,19,female,2024-01-29_18h28.01.700,jersey_experiment_5,2023.2.2,Win32,84.74576271,,,,,,,,,,,,,,,,615.6154,616.9093,616.9094,619.2314,return,0.1654,,50.13020833,,,,,,FBP-YG-81.png,0.37,1.2,37,0.5,,,,,,,,,,,,,0,46,46,36,1,,,,,,,,,,,,,,,,,,,,,,,,,,,,
,,,,,WIN24_018,19,female,2024-01-29_18h28.01.700,jersey_experiment_5,2023.2.2,Win32,84.74576271,,,,,,,,,,,,,,,,619.2316,620.5331,620.5331,621.733,return,0.1062,,57.94270833,,,,,,FBP-RB-17.png,0.43,1.2,19,0.5,,,,,,,,,,,,,0,47,47,18,1,,,,,,,,,,,,,,,,,,,,,,,,,,,,
,,,,,WIN24_018,19,female,2024-01-29_18h28.01.700,jersey_experiment_5,2023.2.2,Win32,84.74576271,,,,,,,,,,,,,,,,621.7333,623.5333,623.5334,624.7687,return,0.1209,,48.046875,,,,,,FBP-PT-17.png,0.37,1.2,47,1,,,,,,,,,,,,,0,48,48,46,1,,,,,,,,,,,,,,,,,,,,,,,,,,,,
,,,,,WIN24_018,19,female,2024-01-29_18h28.01.700,jersey_experiment_5,2023.2.2,Win32,84.74576271,,,,,,,,,,,,,,,,624.7687,626.0667,626.0667,626.9099,return,0.1,,60.02604167,,,,,,FBP-RB-17.png,0.4,1.2,18,0.5,,,,,,,,,,,,,0,49,49,17,1,,,,,,,,,,,,,,,,,,,,,,,,,,,,
,,,,,WIN24_018,19,female,2024-01-29_18h28.01.700,jersey_experiment_5,2023.2.2,Win32,84.74576271,,,,,,,,,,,,,,,,626.9101,628.7101,628.7101,629.3451,return,0.1897,,62.36979167,,,,,,FBP-OG-71.png,0.45,1.2,5,1,,,,,,,,,,,,,0,50,50,4,1,,,,,,,,,,,,,,,,,,,,,,,,,,,,
,,,,,WIN24_018,19,female,2024-01-29_18h28.01.700,jersey_experiment_5,2023.2.2,Win32,84.74576271,,,,,,,,,,,,,,,,629.3453,631.1452,631.1452,631.7336,return,0.2101,,62.36979167,,,,,,FBP-PT-17.png,0.43,1.2,49,1,,,,,,,,,,,,,0,51,51,48,1,,,,,,,,,,,,,,,,,,,,,,,,,,,,
,,,,,WIN24_018,19,female,2024-01-29_18h28.01.700,jersey_experiment_5,2023.2.2,Win32,84.74576271,,,,,,,,,,,,,,,,631.7337,633.0276,633.0276,633.8395,return,0.2965,,62.36979167,,,,,,FBP-YG-91.png,0.43,1.2,44,0.5,,,,,,,,,,,,,0,52,52,43,1,,,,,,,,,,,,,,,,,,,,,,,,,,,,
,,,,,WIN24_018,19,female,2024-01-29_18h28.01.700,jersey_experiment_5,2023.2.2,Win32,84.74576271,,,,,,,,,,,,,,,,633.8397,635.6398,635.6398,636.663,return,0.2002,,61.19791667,,,,,,FBP-PT-17.png,0.4,1.2,48,1,,,,,,,,,,,,,0,53,53,47,1,,,,,,,,,,,,,,,,,,,,,,,,,,,,
,,,,,WIN24_018,19,female,2024-01-29_18h28.01.700,jersey_experiment_5,2023.2.2,Win32,84.74576271,,,,,,,,,,,,,,,,636.6632,638.4559,638.4559,639.3596,return,0.1983,,35.9375,,,,,,FBP-OG-81.png,0.35,1.2,6,1,,,,,,,,,,,,,0,54,54,5,1,,,,,,,,,,,,,,,,,,,,,,,,,,,,
,,,,,WIN24_018,19,female,2024-01-29_18h28.01.700,jersey_experiment_5,2023.2.2,Win32,84.74576271,,,,,,,,,,,,,,,,639.3598,640.6514,640.6514,641.4633,return,0.1767,,40.10416667,,,,,,FBP-YG-91.png,0.37,1.2,42,0.5,,,,,,,,,,,,,0,55,55,41,1,,,,,,,,,,,,,,,,,,,,,,,,,,,,
,,,,,WIN24_018,19,female,2024-01-29_18h28.01.700,jersey_experiment_5,2023.2.2,Win32,84.74576271,,,,,,,,,,,,,,,,641.4635,643.2557,643.2557,643.7852,return,0.0943,,38.02083333,,,,,,FBP-OG-71.png,0.37,1.2,2,1,,,,,,,,,,,,,0,56,56,1,1,,,,,,,,,,,,,,,,,,,,,,,,,,,,
,,,,,WIN24_018,19,female,2024-01-29_18h28.01.700,jersey_experiment_5,2023.2.2,Win32,84.74576271,,,,,,,,,,,,,,,,643.7853,645.5832,645.5833,646.3342,return,0.1253,,57.68229167,,,,,,FBP-OG-81.png,0.45,1.2,10,1,,,,,,,,,,,,,0,57,57,9,1,,,,,,,,,,,,,,,,,,,,,,,,,,,,
,,,,,WIN24_018,19,female,2024-01-29_18h28.01.700,jersey_experiment_5,2023.2.2,Win32,84.74576271,,,,,,,,,,,,,,,,646.3343,647.6282,647.6282,648.2094,return,0.1772,,57.421875,,,,,,FBP-YG-81.png,0.43,1.2,39,0.5,,,,,,,,,,,,,0,58,58,38,1,,,,,,,,,,,,,,,,,,,,,,,,,,,,
,,,,,WIN24_018,19,female,2024-01-29_18h28.01.700,jersey_experiment_5,2023.2.2,Win32,84.74576271,,,,,,,,,,,,,,,,648.2095,650.0093,650.0093,650.6785,return,0.1522,,42.83854167,,,,,,FBP-OG-81.png,0.37,1.2,7,1,,,,,,,,,,,,,0,59,59,6,1,,,,,,,,,,,,,,,,,,,,,,,,,,,,
,,,,,WIN24_018,19,female,2024-01-29_18h28.01.700,jersey_experiment_5,2023.2.2,Win32,84.74576271,,,,,,,,,,,,,,,,650.6798,652.4799,652.4799,653.4935,return,0.2119,,28.90625,,,,,,FBP-OG-17.png,0.35,1.2,1,1,,,,,,,,,,,,,,,,,,0,0,0,0,1,,,,,,,,,,,,,,,,,,,,,,,
,,,,,WIN24_018,19,female,2024-01-29_18h28.01.700,jersey_experiment_5,2023.2.2,Win32,84.74576271,,,,,,,,,,,,,,,,653.4938,655.2896,655.2896,656.0519,return,0.1765,,22.65625,,,,,,FBP-PT-81.png,0.35,1.2,51,1,,,,,,,,,,,,,,,,,,0,1,1,50,1,,,,,,,,,,,,,,,,,,,,,,,
,,,,,WIN24_018,19,female,2024-01-29_18h28.01.700,jersey_experiment_5,2023.2.2,Win32,84.74576271,,,,,,,,,,,,,,,,656.0521,657.3504,657.3504,658.478,return,0.1159,,53.25520833,,,,,,FBP-YG-18.png,0.45,1.2,40,0.5,,,,,,,,,,,,,,,,,,0,2,2,39,1,,,,,,,,,,,,,,,,,,,,,,,
,,,,,WIN24_018,19,female,2024-01-29_18h28.01.700,jersey_experiment_5,2023.2.2,Win32,84.74576271,,,,,,,,,,,,,,,,658.4781,659.7699,659.7699,660.3741,return,0.1076,,59.24479167,,,,,,FBP-RB-71.png,0.43,1.2,19,0.5,,,,,,,,,,,,,,,,,,0,3,3,18,1,,,,,,,,,,,,,,,,,,,,,,,
,,,,,WIN24_018,19,female,2024-01-29_18h28.01.700,jersey_experiment_5,2023.2.2,Win32,84.74576271,,,,,,,,,,,,,,,,660.3742,661.6683,661.6684,662.1935,return,0.0827,,63.15104167,,,,,,FBP-YG-18.png,0.43,1.2,39,0.5,,,,,,,,,,,,,,,,,,0,4,4,38,1,,,,,,,,,,,,,,,,,,,,,,,
,,,,,WIN24_018,19,female,2024-01-29_18h28.01.700,jersey_experiment_5,2023.2.2,Win32,84.74576271,,,,,,,,,,,,,,,,662.1937,663.4876,663.4876,664.3817,return,0.11,,68.359375,,,,,,FBP-YG-19.png,0.45,1.2,45,0.5,,,,,,,,,,,,,,,,,,0,5,5,44,1,,,,,,,,,,,,,,,,,,,,,,,
,,,,,WIN24_018,19,female,2024-01-29_18h28.01.700,jersey_experiment_5,2023.2.2,Win32,84.74576271,,,,,,,,,,,,,,,,664.3818,666.1859,666.1859,667.0408,return,0.0968,,66.66666667,,,,,,FBP-OG-19.png,0.43,1.2,14,1,,,,,,,,,,,,,,,,,,0,6,6,13,1,,,,,,,,,,,,,,,,,,,,,,,
,,,,,WIN24_018,19,female,2024-01-29_18h28.01.700,jersey_experiment_5,2023.2.2,Win32,84.74576271,,,,,,,,,,,,,,,,667.041,668.8333,668.8333,670.4291,return,0.2538,,37.63020833,,,,,,FBP-PT-91.png,0.37,1.2,57,1,,,,,,,,,,,,,,,,,,0,7,7,56,1,,,,,,,,,,,,,,,,,,,,,,,
,,,,,WIN24_018,19,female,2024-01-29_18h28.01.700,jersey_experiment_5,2023.2.2,Win32,84.74576271,,,,,,,,,,,,,,,,670.4292,672.2217,672.2218,672.7704,return,0.1072,,21.35416667,,,,,,FBP-OG-18.png,0.35,1.2,6,1,,,,,,,,,,,,,,,,,,0,8,8,5,1,,,,,,,,,,,,,,,,,,,,,,,
,,,,,WIN24_018,19,female,2024-01-29_18h28.01.700,jersey_experiment_5,2023.2.2,Win32,84.74576271,,,,,,,,,,,,,,,,672.7706,674.0645,674.0645,674.782,return,0.0981,,16.27604167,,,,,,FBP-YG-17.png,0.35,1.2,31,0.5,,,,,,,,,,,,,,,,,,0,9,9,30,1,,,,,,,,,,,,,,,,,,,,,,,
,,,,,WIN24_018,19,female,2024-01-29_18h28.01.700,jersey_experiment_5,2023.2.2,Win32,84.74576271,,,,,,,,,,,,,,,,674.7823,676.5747,676.5747,677.5041,return,0.1669,,30.20833333,,,,,,FBP-OG-18.png,0.4,1.2,8,1,,,,,,,,,,,,,,,,,,0,10,10,7,1,,,,,,,,,,,,,,,,,,,,,,,
,,,,,WIN24_018,19,female,2024-01-29_18h28.01.700,jersey_experiment_5,2023.2.2,Win32,84.74576271,,,,,,,,,,,,,,,,677.5043,678.8099,678.8099,679.7824,return,0.1416,,33.72395833,,,,,,FBP-RB-71.png,0.35,1.2,16,0.5,,,,,,,,,,,,,,,,,,0,11,11,15,1,,,,,,,,,,,,,,,,,,,,,,,
,,,,,WIN24_018,19,female,2024-01-29_18h28.01.700,jersey_experiment_5,2023.2.2,Win32,84.74576271,,,,,,,,,,,,,,,,679.7826,681.5823,681.5823,682.2102,return,0.1414,,34.11458333,,,,,,FBP-OG-17.png,0.43,1.2,4,1,,,,,,,,,,,,,,,,,,0,12,12,3,1,,,,,,,,,,,,,,,,,,,,,,,
,,,,,WIN24_018,19,female,2024-01-29_18h28.01.700,jersey_experiment_5,2023.2.2,Win32,84.74576271,,,,,,,,,,,,,,,,682.2102,684.0106,684.0106,685.1355,return,0.6277,,60.02604167,,,,,,FBP-PT-81.png,0.43,1.2,54,1,,,,,,,,,,,,,,,,,,0,13,13,53,1,,,,,,,,,,,,,,,,,,,,,,,
,,,,,WIN24_018,19,female,2024-01-29_18h28.01.700,jersey_experiment_5,2023.2.2,Win32,84.74576271,,,,,,,,,,,,,,,,685.1357,686.9356,686.9356,687.5163,return,0.1434,,59.11458333,,,,,,FBP-PT-71.png,0.4,1.2,48,1,,,,,,,,,,,,,,,,,,0,14,14,47,1,,,,,,,,,,,,,,,,,,,,,,,
,,,,,WIN24_018,19,female,2024-01-29_18h28.01.700,jersey_experiment_5,2023.2.2,Win32,84.74576271,,,,,,,,,,,,,,,,687.5164,688.8181,688.8181,689.7356,return,0.1903,,40.36458333,,,,,,FBP-YG-19.png,0.37,1.2,42,0.5,,,,,,,,,,,,,,,,,,0,15,15,41,1,,,,,,,,,,,,,,,,,,,,,,,
,,,,,WIN24_018,19,female,2024-01-29_18h28.01.700,jersey_experiment_5,2023.2.2,Win32,84.74576271,,,,,,,,,,,,,,,,689.7357,691.0338,691.0338,691.7827,return,0.1546,,37.23958333,,,,,,FBP-RB-91.png,0.37,1.2,27,0.5,,,,,,,,,,,,,,,,,,0,16,16,26,1,,,,,,,,,,,,,,,,,,,,,,,
,,,,,WIN24_018,19,female,2024-01-29_18h28.01.700,jersey_experiment_5,2023.2.2,Win32,84.74576271,,,,,,,,,,,,,,,,691.7829,693.0814,693.0814,694.5389,return,0.2087,,55.72916667,,,,,,FBP-YG-18.png,0.4,1.2,38,0.5,,,,,,,,,,,,,,,,,,0,17,17,37,1,,,,,,,,,,,,,,,,,,,,,,,
,,,,,WIN24_018,19,female,2024-01-29_18h28.01.700,jersey_experiment_5,2023.2.2,Win32,84.74576271,,,,,,,,,,,,,,,,694.5391,696.3358,696.3358,697.1711,return,0.0594,,55.33854167,,,,,,FBP-OG-19.png,0.4,1.2,13,1,,,,,,,,,,,,,,,,,,0,18,18,12,1,,,,,,,,,,,,,,,,,,,,,,,
,,,,,WIN24_018,19,female,2024-01-29_18h28.01.700,jersey_experiment_5,2023.2.2,Win32,84.74576271,,,,,,,,,,,,,,,,697.1712,698.966,698.966,699.9244,return,0.1177,,29.55729167,,,,,,FBP-PT-91.png,0.35,1.2,56,1,,,,,,,,,,,,,,,,,,0,19,19,55,1,,,,,,,,,,,,,,,,,,,,,,,
,,,,,WIN24_018,19,female,2024-01-29_18h28.01.700,jersey_experiment_5,2023.2.2,Win32,84.74576271,,,,,,,,,,,,,,,,699.9246,701.7187,701.7187,702.3008,return,0.0659,,54.94791667,,,,,,FBP-PT-81.png,0.4,1.2,53,1,,,,,,,,,,,,,,,,,,0,20,20,52,1,,,,,,,,,,,,,,,,,,,,,,,
,,,,,WIN24_018,19,female,2024-01-29_18h28.01.700,jersey_experiment_5,2023.2.2,Win32,84.74576271,,,,,,,,,,,,,,,,702.3009,703.595,703.595,704.7757,return,0.4955,,58.72395833,,,,,,FBP-RB-81.png,0.45,1.2,25,0.5,,,,,,,,,,,,,,,,,,0,21,21,24,1,,,,,,,,,,,,,,,,,,,,,,,
,,,,,WIN24_018,19,female,2024-01-29_18h28.01.700,jersey_experiment_5,2023.2.2,Win32,84.74576271,,,,,,,,,,,,,,,,704.7757,706.5777,706.5778,708.6069,return,0.1085,,17.578125,,,,,,FBP-PT-71.png,0.35,1.2,46,1,,,,,,,,,,,,,,,,,,0,22,22,45,1,,,,,,,,,,,,,,,,,,,,,,,
,,,,,WIN24_018,19,female,2024-01-29_18h28.01.700,jersey_experiment_5,2023.2.2,Win32,84.74576271,,,,,,,,,,,,,,,,708.607,709.9054,709.9054,711.1171,return,0.1764,,52.99479167,,,,,,FBP-YG-17.png,0.4,1.2,33,0.5,,,,,,,,,,,,,,,,,,0,23,23,32,1,,,,,,,,,,,,,,,,,,,,,,,
,,,,,WIN24_018,19,female,2024-01-29_18h28.01.700,jersey_experiment_5,2023.2.2,Win32,84.74576271,,,,,,,,,,,,,,,,711.1172,712.4189,712.4189,713.1879,return,0.1076,,37.36979167,,,,,,FBP-RB-81.png,0.35,1.2,21,0.5,,,,,,,,,,,,,,,,,,0,24,24,20,1,,,,,,,,,,,,,,,,,,,,,,,
,,,,,WIN24_018,19,female,2024-01-29_18h28.01.700,jersey_experiment_5,2023.2.2,Win32,84.74576271,,,,,,,,,,,,,,,,713.188,714.99,714.99,716.1955,return,0.1769,,67.83854167,,,,,,FBP-PT-71.png,0.43,1.2,49,1,,,,,,,,,,,,,,,,,,0,25,25,48,1,,,,,,,,,,,,,,,,,,,,,,,
,,,,,WIN24_018,19,female,2024-01-29_18h28.01.700,jersey_experiment_5,2023.2.2,Win32,84.74576271,,,,,,,,,,,,,,,,716.1957,717.9881,717.9881,718.7838,return,0.098,,34.89583333,,,,,,FBP-PT-71.png,0.37,1.2,47,1,,,,,,,,,,,,,,,,,,0,26,26,46,1,,,,,,,,,,,,,,,,,,,,,,,
,,,,,WIN24_018,19,female,2024-01-29_18h28.01.700,jersey_experiment_5,2023.2.2,Win32,84.74576271,,,,,,,,,,,,,,,,718.7839,720.5879,720.5879,721.6192,return,0.1181,,32.68229167,,,,,,FBP-PT-91.png,0.4,1.2,58,1,,,,,,,,,,,,,,,,,,0,27,27,57,1,,,,,,,,,,,,,,,,,,,,,,,
,,,,,WIN24_018,19,female,2024-01-29_18h28.01.700,jersey_experiment_5,2023.2.2,Win32,84.74576271,,,,,,,,,,,,,,,,721.6193,723.4191,723.4191,724.6708,return,0.1177,,58.72395833,,,,,,FBP-PT-91.png,0.45,1.2,60,1,,,,,,,,,,,,,,,,,,0,28,28,59,1,,,,,,,,,,,,,,,,,,,,,,,
,,,,,WIN24_018,19,female,2024-01-29_18h28.01.700,jersey_experiment_5,2023.2.2,Win32,84.74576271,,,,,,,,,,,,,,,,724.6709,725.9722,725.9722,728.7529,return,2.1191,,45.96354167,,,,,,FBP-RB-81.png,0.37,1.2,22,0.5,,,,,,,,,,,,,,,,,,0,29,29,21,1,,,,,,,,,,,,,,,,,,,,,,,
,,,,,WIN24_018,19,female,2024-01-29_18h28.01.700,jersey_experiment_5,2023.2.2,Win32,84.74576271,,,,,,,,,,,,,,,,728.7531,730.5488,730.5488,731.5417,return,0.1769,,64.71354167,,,,,,FBP-OG-18.png,0.45,1.2,10,1,,,,,,,,,,,,,,,,,,0,30,30,9,1,,,,,,,,,,,,,,,,,,,,,,,
,,,,,WIN24_018,19,female,2024-01-29_18h28.01.700,jersey_experiment_5,2023.2.2,Win32,84.74576271,,,,,,,,,,,,,,,,731.5419,732.8431,732.8431,733.9372,return,0.5321,,62.36979167,,,,,,FBP-YG-19.png,0.4,1.2,43,0.5,,,,,,,,,,,,,,,,,,0,31,31,42,1,,,,,,,,,,,,,,,,,,,,,,,
,,,,,WIN24_018,19,female,2024-01-29_18h28.01.700,jersey_experiment_5,2023.2.2,Win32,84.74576271,,,,,,,,,,,,,,,,733.9373,735.2313,735.2313,735.977,return,0.2826,,62.36979167,,,,,,FBP-YG-17.png,0.45,1.2,35,0.5,,,,,,,,,,,,,,,,,,0,32,32,34,1,,,,,,,,,,,,,,,,,,,,,,,
,,,,,WIN24_018,19,female,2024-01-29_18h28.01.700,jersey_experiment_5,2023.2.2,Win32,84.74576271,,,,,,,,,,,,,,,,735.9771,737.273,737.273,738.4786,return,0.2071,,63.15104167,,,,,,FBP-RB-71.png,0.37,1.2,17,0.5,,,,,,,,,,,,,,,,,,0,33,33,16,1,,,,,,,,,,,,,,,,,,,,,,,
,,,,,WIN24_018,19,female,2024-01-29_18h28.01.700,jersey_experiment_5,2023.2.2,Win32,84.74576271,,,,,,,,,,,,,,,,738.4788,740.2827,740.2827,740.848,return,0.1064,,52.47395833,,,,,,FBP-PT-91.png,0.43,1.2,59,1,,,,,,,,,,,,,,,,,,0,34,34,58,1,,,,,,,,,,,,,,,,,,,,,,,
,,,,,WIN24_018,19,female,2024-01-29_18h28.01.700,jersey_experiment_5,2023.2.2,Win32,84.74576271,,,,,,,,,,,,,,,,740.8481,742.1494,742.1494,743.0317,return,0.1519,,63.54166667,,,,,,FBP-YG-17.png,0.43,1.2,34,0.5,,,,,,,,,,,,,,,,,,0,35,35,33,1,,,,,,,,,,,,,,,,,,,,,,,
,,,,,WIN24_018,19,female,2024-01-29_18h28.01.700,jersey_experiment_5,2023.2.2,Win32,84.74576271,,,,,,,,,,,,,,,,743.0319,744.3259,744.326,745.589,return,0.2004,,45.703125,,,,,,FBP-YG-18.png,0.37,1.2,37,0.5,,,,,,,,,,,,,,,,,,0,36,36,36,1,,,,,,,,,,,,,,,,,,,,,,,
,,,,,WIN24_018,19,female,2024-01-29_18h28.01.700,jersey_experiment_5,2023.2.2,Win32,84.74576271,,,,,,,,,,,,,,,,745.5891,746.8947,746.8947,747.8908,return,0.2855,,35.80729167,,,,,,FBP-YG-18.png,0.35,1.2,36,0.5,,,,,,,,,,,,,,,,,,0,37,37,35,1,,,,,,,,,,,,,,,,,,,,,,,
,,,,,WIN24_018,19,female,2024-01-29_18h28.01.700,jersey_experiment_5,2023.2.2,Win32,84.74576271,,,,,,,,,,,,,,,,747.8909,749.1849,749.1849,750.2791,return,0.2354,,57.94270833,,,,,,FBP-RB-81.png,0.43,1.2,24,0.5,,,,,,,,,,,,,,,,,,0,38,38,23,1,,,,,,,,,,,,,,,,,,,,,,,
,,,,,WIN24_018,19,female,2024-01-29_18h28.01.700,jersey_experiment_5,2023.2.2,Win32,84.74576271,,,,,,,,,,,,,,,,750.2793,751.5776,751.5776,752.3262,return,0.0824,,62.63020833,,,,,,FBP-RB-71.png,0.4,1.2,18,0.5,,,,,,,,,,,,,,,,,,0,39,39,17,1,,,,,,,,,,,,,,,,,,,,,,,
,,,,,WIN24_018,19,female,2024-01-29_18h28.01.700,jersey_experiment_5,2023.2.2,Win32,84.74576271,,,,,,,,,,,,,,,,752.3264,753.6204,753.6204,754.4205,return,0.1918,,61.71875,,,,,,FBP-RB-71.png,0.45,1.2,20,0.5,,,,,,,,,,,,,,,,,,0,40,40,19,1,,,,,,,,,,,,,,,,,,,,,,,
,,,,,WIN24_018,19,female,2024-01-29_18h28.01.700,jersey_experiment_5,2023.2.2,Win32,84.74576271,,,,,,,,,,,,,,,,754.4206,755.7146,755.7146,756.4129,return,0.0825,,65.234375,,,,,,FBP-RB-91.png,0.4,1.2,28,0.5,,,,,,,,,,,,,,,,,,0,41,41,27,1,,,,,,,,,,,,,,,,,,,,,,,
,,,,,WIN24_018,19,female,2024-01-29_18h28.01.700,jersey_experiment_5,2023.2.2,Win32,84.74576271,,,,,,,,,,,,,,,,756.413,758.2129,758.2129,758.9884,return,0.1502,,45.57291667,,,,,,FBP-OG-18.png,0.37,1.2,7,1,,,,,,,,,,,,,,,,,,0,42,42,6,1,,,,,,,,,,,,,,,,,,,,,,,
,,,,,WIN24_018,19,female,2024-01-29_18h28.01.700,jersey_experiment_5,2023.2.2,Win32,84.74576271,,,,,,,,,,,,,,,,758.9886,760.7853,760.7853,761.5737,return,0.1651,,60.80729167,,,,,,FBP-PT-71.png,0.45,1.2,50,1,,,,,,,,,,,,,,,,,,0,43,43,49,1,,,,,,,,,,,,,,,,,,,,,,,
,,,,,WIN24_018,19,female,2024-01-29_18h28.01.700,jersey_experiment_5,2023.2.2,Win32,84.74576271,,,,,,,,,,,,,,,,761.5739,763.3681,763.3681,764.5737,return,0.1004,,44.01041667,,,,,,FBP-OG-19.png,0.37,1.2,12,1,,,,,,,,,,,,,,,,,,0,44,44,11,1,,,,,,,,,,,,,,,,,,,,,,,
,,,,,WIN24_018,19,female,2024-01-29_18h28.01.700,jersey_experiment_5,2023.2.2,Win32,84.74576271,,,,,,,,,,,,,,,,764.5739,765.8679,765.8679,766.7385,return,0.1308,,41.53645833,,,,,,FBP-RB-81.png,0.4,1.2,23,0.5,,,,,,,,,,,,,,,,,,0,45,45,22,1,,,,,,,,,,,,,,,,,,,,,,,
,,,,,WIN24_018,19,female,2024-01-29_18h28.01.700,jersey_experiment_5,2023.2.2,Win32,84.74576271,,,,,,,,,,,,,,,,766.7386,768.0327,768.0327,768.9544,return,0.2354,,55.33854167,,,,,,FBP-YG-19.png,0.43,1.2,44,0.5,,,,,,,,,,,,,,,,,,0,46,46,43,1,,,,,,,,,,,,,,,,,,,,,,,
,,,,,WIN24_018,19,female,2024-01-29_18h28.01.700,jersey_experiment_5,2023.2.2,Win32,84.74576271,,,,,,,,,,,,,,,,768.9546,770.2586,770.2586,771.2841,return,0.1532,,46.74479167,,,,,,FBP-YG-17.png,0.37,1.2,32,0.5,,,,,,,,,,,,,,,,,,0,47,47,31,1,,,,,,,,,,,,,,,,,,,,,,,
,,,,,WIN24_018,19,female,2024-01-29_18h28.01.700,jersey_experiment_5,2023.2.2,Win32,84.74576271,,,,,,,,,,,,,,,,771.2841,772.5783,772.5783,774.3688,return,1.1433,,19.01041667,,,,,,FBP-YG-19.png,0.35,1.2,41,0.5,,,,,,,,,,,,,,,,,,0,48,48,40,1,,,,,,,,,,,,,,,,,,,,,,,
,,,,,WIN24_018,19,female,2024-01-29_18h28.01.700,jersey_experiment_5,2023.2.2,Win32,84.74576271,,,,,,,,,,,,,,,,774.369,776.1625,776.1626,777.5858,return,0.6253,,54.16666667,,,,,,FBP-OG-19.png,0.45,1.2,15,1,,,,,,,,,,,,,,,,,,0,49,49,14,1,,,,,,,,,,,,,,,,,,,,,,,
,,,,,WIN24_018,19,female,2024-01-29_18h28.01.700,jersey_experiment_5,2023.2.2,Win32,84.74576271,,,,,,,,,,,,,,,,777.586,778.8863,778.8863,780.7978,return,0.1824,,74.21875,,,,,,FBP-RB-91.png,0.45,1.2,30,0.5,,,,,,,,,,,,,,,,,,0,50,50,29,1,,,,,,,,,,,,,,,,,,,,,,,
,,,,,WIN24_018,19,female,2024-01-29_18h28.01.700,jersey_experiment_5,2023.2.2,Win32,84.74576271,,,,,,,,,,,,,,,,780.798,782.6025,782.6025,783.3453,return,0.1296,,72.52604167,,,,,,FBP-PT-81.png,0.45,1.2,55,1,,,,,,,,,,,,,,,,,,0,51,51,54,1,,,,,,,,,,,,,,,,,,,,,,,
,,,,,WIN24_018,19,female,2024-01-29_18h28.01.700,jersey_experiment_5,2023.2.2,Win32,84.74576271,,,,,,,,,,,,,,,,783.3455,785.1432,785.1432,785.951,return,0.1341,,27.08333333,,,,,,FBP-OG-19.png,0.35,1.2,11,1,,,,,,,,,,,,,,,,,,0,52,52,10,1,,,,,,,,,,,,,,,,,,,,,,,
,,,,,WIN24_018,19,female,2024-01-29_18h28.01.700,jersey_experiment_5,2023.2.2,Win32,84.74576271,,,,,,,,,,,,,,,,785.9511,787.2483,787.2484,788.1512,return,0.1879,,22.91666667,,,,,,FBP-RB-91.png,0.35,1.2,26,0.5,,,,,,,,,,,,,,,,,,0,53,53,25,1,,,,,,,,,,,,,,,,,,,,,,,
,,,,,WIN24_018,19,female,2024-01-29_18h28.01.700,jersey_experiment_5,2023.2.2,Win32,84.74576271,,,,,,,,,,,,,,,,788.1513,789.4451,789.4451,791.0687,return,0.1718,,54.296875,,,,,,FBP-RB-91.png,0.43,1.2,29,0.5,,,,,,,,,,,,,,,,,,0,54,54,28,1,,,,,,,,,,,,,,,,,,,,,,,
,,,,,WIN24_018,19,female,2024-01-29_18h28.01.700,jersey_experiment_5,2023.2.2,Win32,84.74576271,,,,,,,,,,,,,,,,791.0689,792.8615,792.8615,793.5865,return,0.1659,,45.57291667,,,,,,FBP-OG-17.png,0.4,1.2,3,1,,,,,,,,,,,,,,,,,,0,55,55,2,1,,,,,,,,,,,,,,,,,,,,,,,
,,,,,WIN24_018,19,female,2024-01-29_18h28.01.700,jersey_experiment_5,2023.2.2,Win32,84.74576271,,,,,,,,,,,,,,,,793.5867,795.3791,795.3791,796.022,return,0.1769,,63.02083333,,,,,,FBP-OG-18.png,0.43,1.2,9,1,,,,,,,,,,,,,,,,,,0,56,56,8,1,,,,,,,,,,,,,,,,,,,,,,,
,,,,,WIN24_018,19,female,2024-01-29_18h28.01.700,jersey_experiment_5,2023.2.2,Win32,84.74576271,,,,,,,,,,,,,,,,796.0222,797.8259,797.8259,798.5537,return,0.1749,,61.06770833,,,,,,FBP-OG-17.png,0.45,1.2,5,1,,,,,,,,,,,,,,,,,,0,57,57,4,1,,,,,,,,,,,,,,,,,,,,,,,
,,,,,WIN24_018,19,female,2024-01-29_18h28.01.700,jersey_experiment_5,2023.2.2,Win32,84.74576271,,,,,,,,,,,,,,,,798.554,800.3515,800.3515,801.0927,return,0.2707,,45.3125,,,,,,FBP-PT-81.png,0.37,1.2,52,1,,,,,,,,,,,,,,,,,,0,58,58,51,1,,,,,,,,,,,,,,,,,,,,,,,
,,,,,WIN24_018,19,female,2024-01-29_18h28.01.700,jersey_experiment_5,2023.2.2,Win32,84.74576271,,,,,,,,,,,,,,,,801.0929,802.8929,802.8929,803.4222,return,0.1213,,38.28125,,,,,,FBP-OG-17.png,0.37,1.2,2,1,,,,,,,,,,,,,,,,,,0,59,59,1,1,,,,,,,,,,,,,,,,,,,,,,,
,,,,,WIN24_018,19,female,2024-01-29_18h28.01.700,jersey_experiment_5,2023.2.2,Win32,84.74576271,,,,,,,,,,,,,,,,,,,,,,,,,,,,,,,,,,,,,,,,,,,,,,,,,,,,,,,,803.4226,808.152,return,4.703,,,,,,,,,,,,,,,,,,,
,,,,,WIN24_018,19,female,2024-01-29_18h28.01.700,jersey_experiment_5,2023.2.2,Win32,84.74576271,,,,,,,,,,,,,,,,,,,,,,,,,,,,,,,,,,,,,,,,,,,,,,,,,,,,,,,,,,,,,808.1521,811.4463,1,2.1356,return,1.1294,,,,,,,,,,,,
,,,,,WIN24_018,19,female,2024-01-29_18h28.01.700,jersey_experiment_5,2023.2.2,Win32,84.74576271,,,,,,,,,,,,,,,,,,,,,,,,,,,,,,,,,,,,,,,,,,,,,,,,,,,,,,,,,,,,,,,,,,,,811.4464,877.2108,I think it could be about tending to choose husky more often due to preconceptions of football players. It also could track the difference in perceptions based on the pervious image shown.,right,61.3202,,,,,,
,,,,,WIN24_018,19,female,2024-01-29_18h28.01.700,jersey_experiment_5,2023.2.2,Win32,84.74576271,,,,,,,,,,,,,,,,,,,,,,,,,,,,,,,,,,,,,,,,,,,,,,,,,,,,,,,,,,,,,,,,,,,,,,,,,,877.2109,879.8132,return,2.5902,