requirements.started,requirements.stopped,key_resp_3.keys,key_resp_3.rt,key_resp_3.duration,Subject ID,Age,Gender,date,expName,psychopyVersion,OS,frameRate,instructions1.started,instructions1.stopped,key_resp.keys,key_resp.rt,key_resp.duration,example.started,example.stopped,enter_2.keys,enter_2.rt,enter_2.duration,instructions2.started,instructions2.stopped,enter_3.keys,enter_3.rt,enter_3.duration,image.started,image.stopped,slider_2.started,slider_2.stopped,next.keys,next.rt,next.duration,slider.response,trial_block_1.thisRepN,trial_block_1.thisTrialN,trial_block_1.thisN,trial_block_1.thisIndex,trial_block_1.ran,Path,Width,Height,Index,Duration,trial_block_2.thisRepN,trial_block_2.thisTrialN,trial_block_2.thisN,trial_block_2.thisIndex,trial_block_2.ran,rest_break.started,rest_break.stopped,end_break.started,end_break.stopped,key_resp_5.keys,key_resp_5.rt,key_resp_5.duration,trial_block_3.thisRepN,trial_block_3.thisTrialN,trial_block_3.thisN,trial_block_3.thisIndex,trial_block_3.ran,trial_block_4.thisRepN,trial_block_4.thisTrialN,trial_block_4.thisN,trial_block_4.thisIndex,trial_block_4.ran,questions_intro.started,questions_intro.stopped,enter_12.keys,enter_12.rt,enter_12.duration,question2.started,question2.stopped,question_doingbest.response,question_doingbest.rt,enter_15.keys,enter_15.rt,enter_15.duration,pattern.started,pattern.stopped,pattern_2.text,enter_17.keys,enter_17.rt,enter_17.duration,thankyou.started,thankyou.stopped,enter_14.keys,enter_14.rt,enter_14.duration
0.0001,18.0614,return,18.0563,,FALL23_089,22,Male,2024-01-23_13h17.41.709,jersey_experiment_5,2023.2.2,Win32,60.24096386,,,,,,,,,,,,,,,,,,,,,,,,,,,,,,,,,,,,,,,,,,,,,,,,,,,,,,,,,,,,,,,,,,,,,,,,,,,,,,
,,,,,FALL23_089,22,Male,2024-01-23_13h17.41.709,jersey_experiment_5,2023.2.2,Win32,60.24096386,18.0615,30.1143,return,12.0337,,,,,,,,,,,,,,,,,,,,,,,,,,,,,,,,,,,,,,,,,,,,,,,,,,,,,,,,,,,,,,,,,,,,,,,,,,
,,,,,FALL23_089,22,Male,2024-01-23_13h17.41.709,jersey_experiment_5,2023.2.2,Win32,60.24096386,,,,,,30.1144,61.2091,return,31.0693,,,,,,,,,,,,,,,,,,,,,,,,,,,,,,,,,,,,,,,,,,,,,,,,,,,,,,,,,,,,,,,,,,,,,
,,,,,FALL23_089,22,Male,2024-01-23_13h17.41.709,jersey_experiment_5,2023.2.2,Win32,60.24096386,,,,,,,,,,,61.2093,116.7524,return,55.5217,,,,,,,,,,,,,,,,,,,,,,,,,,,,,,,,,,,,,,,,,,,,,,,,,,,,,,,,,,,,,,,,
,,,,,FALL23_089,22,Male,2024-01-23_13h17.41.709,jersey_experiment_5,2023.2.2,Win32,60.24096386,,,,,,,,,,,,,,,,116.7594,118.5563,118.5564,140.8331,return,10.4301,,49.86979167,0,0,0,42,1,FBP-YG-91.png,0.4,1.2,43,1,,,,,,,,,,,,,,,,,,,,,,,,,,,,,,,,,,,,,,,,,,,,,
,,,,,FALL23_089,22,Male,2024-01-23_13h17.41.709,jersey_experiment_5,2023.2.2,Win32,60.24096386,,,,,,,,,,,,,,,,140.8378,142.6268,142.6268,145.2794,return,0.8984,,50.13020833,0,1,1,22,1,FBP-RB-18.png,0.4,1.2,23,1,,,,,,,,,,,,,,,,,,,,,,,,,,,,,,,,,,,,,,,,,,,,,
,,,,,FALL23_089,22,Male,2024-01-23_13h17.41.709,jersey_experiment_5,2023.2.2,Win32,60.24096386,,,,,,,,,,,,,,,,145.2796,146.5753,146.5753,152.6956,return,2.0169,,74.86979167,0,2,2,54,1,FBP-PT-18.png,0.45,1.2,55,0.5,,,,,,,,,,,,,,,,,,,,,,,,,,,,,,,,,,,,,,,,,,,,,
,,,,,FALL23_089,22,Male,2024-01-23_13h17.41.709,jersey_experiment_5,2023.2.2,Win32,60.24096386,,,,,,,,,,,,,,,,152.6958,154.4894,154.4894,158.5267,return,1.0502,,49.73958333,0,3,3,21,1,FBP-RB-18.png,0.37,1.2,22,1,,,,,,,,,,,,,,,,,,,,,,,,,,,,,,,,,,,,,,,,,,,,,
,,,,,FALL23_089,22,Male,2024-01-23_13h17.41.709,jersey_experiment_5,2023.2.2,Win32,60.24096386,,,,,,,,,,,,,,,,158.5269,160.3257,160.3258,163.9916,return,1.5665,,76.43229167,0,4,4,24,1,FBP-RB-18.png,0.45,1.2,25,1,,,,,,,,,,,,,,,,,,,,,,,,,,,,,,,,,,,,,,,,,,,,,
,,,,,FALL23_089,22,Male,2024-01-23_13h17.41.709,jersey_experiment_5,2023.2.2,Win32,60.24096386,,,,,,,,,,,,,,,,163.9917,165.291,165.291,170.1228,return,1.416,,49.73958333,0,5,5,52,1,FBP-PT-18.png,0.4,1.2,53,0.5,,,,,,,,,,,,,,,,,,,,,,,,,,,,,,,,,,,,,,,,,,,,,
,,,,,FALL23_089,22,Male,2024-01-23_13h17.41.709,jersey_experiment_5,2023.2.2,Win32,60.24096386,,,,,,,,,,,,,,,,170.123,171.9221,171.9222,175.7716,return,0.650700001,,66.40625,0,6,6,38,1,FBP-YG-81.png,0.43,1.2,39,1,,,,,,,,,,,,,,,,,,,,,,,,,,,,,,,,,,,,,,,,,,,,,
,,,,,FALL23_089,22,Male,2024-01-23_13h17.41.709,jersey_experiment_5,2023.2.2,Win32,60.24096386,,,,,,,,,,,,,,,,175.7717,177.5701,177.5701,181.2305,return,1.1413,,32.16145833,0,7,7,40,1,FBP-YG-91.png,0.35,1.2,41,1,,,,,,,,,,,,,,,,,,,,,,,,,,,,,,,,,,,,,,,,,,,,,
,,,,,FALL23_089,22,Male,2024-01-23_13h17.41.709,jersey_experiment_5,2023.2.2,Win32,60.24096386,,,,,,,,,,,,,,,,181.2307,183.0188,183.0188,185.3665,return,0.4318,,83.72395833,0,8,8,29,1,FBP-RB-19.png,0.45,1.2,30,1,,,,,,,,,,,,,,,,,,,,,,,,,,,,,,,,,,,,,,,,,,,,,
,,,,,FALL23_089,22,Male,2024-01-23_13h17.41.709,jersey_experiment_5,2023.2.2,Win32,60.24096386,,,,,,,,,,,,,,,,185.3666,186.6671,186.6671,193.3155,return,0.5503,,47.65625,0,9,9,6,1,FBP-OG-81.png,0.37,1.2,7,0.5,,,,,,,,,,,,,,,,,,,,,,,,,,,,,,,,,,,,,,,,,,,,,
,,,,,FALL23_089,22,Male,2024-01-23_13h17.41.709,jersey_experiment_5,2023.2.2,Win32,60.24096386,,,,,,,,,,,,,,,,193.3156,195.1127,195.1127,197.9417,return,0.301099999,,84.50520833,0,10,10,33,1,FBP-YG-71.png,0.43,1.2,34,1,,,,,,,,,,,,,,,,,,,,,,,,,,,,,,,,,,,,,,,,,,,,,
,,,,,FALL23_089,22,Male,2024-01-23_13h17.41.709,jersey_experiment_5,2023.2.2,Win32,60.24096386,,,,,,,,,,,,,,,,197.942,199.2413,199.2413,201.4793,return,0.267,,94.01041667,0,11,11,59,1,FBP-PT-19.png,0.45,1.2,60,0.5,,,,,,,,,,,,,,,,,,,,,,,,,,,,,,,,,,,,,,,,,,,,,
,,,,,FALL23_089,22,Male,2024-01-23_13h17.41.709,jersey_experiment_5,2023.2.2,Win32,60.24096386,,,,,,,,,,,,,,,,201.4795,203.2734,203.2734,206.4943,return,0.2336,,25.26041667,0,12,12,35,1,FBP-YG-81.png,0.35,1.2,36,1,,,,,,,,,,,,,,,,,,,,,,,,,,,,,,,,,,,,,,,,,,,,,
,,,,,FALL23_089,22,Male,2024-01-23_13h17.41.709,jersey_experiment_5,2023.2.2,Win32,60.24096386,,,,,,,,,,,,,,,,206.4945,207.7943,207.7943,210.408,return,0.4,,25.26041667,0,13,13,10,1,FBP-OG-91.png,0.35,1.2,11,0.5,,,,,,,,,,,,,,,,,,,,,,,,,,,,,,,,,,,,,,,,,,,,,
,,,,,FALL23_089,22,Male,2024-01-23_13h17.41.709,jersey_experiment_5,2023.2.2,Win32,60.24096386,,,,,,,,,,,,,,,,210.4082,212.2092,212.2092,214.9027,return,0.2834,,75.13020833,0,14,14,19,1,FBP-RB-17.png,0.45,1.2,20,1,,,,,,,,,,,,,,,,,,,,,,,,,,,,,,,,,,,,,,,,,,,,,
,,,,,FALL23_089,22,Male,2024-01-23_13h17.41.709,jersey_experiment_5,2023.2.2,Win32,60.24096386,,,,,,,,,,,,,,,,214.9028,216.7025,216.7025,219.3181,return,0.8517,,75.390625,0,15,15,23,1,FBP-RB-18.png,0.43,1.2,24,1,,,,,,,,,,,,,,,,,,,,,,,,,,,,,,,,,,,,,,,,,,,,,
,,,,,FALL23_089,22,Male,2024-01-23_13h17.41.709,jersey_experiment_5,2023.2.2,Win32,60.24096386,,,,,,,,,,,,,,,,219.3184,221.1174,221.1175,223.3053,return,0.7335,,75.390625,0,16,16,18,1,FBP-RB-17.png,0.43,1.2,19,1,,,,,,,,,,,,,,,,,,,,,,,,,,,,,,,,,,,,,,,,,,,,,
,,,,,FALL23_089,22,Male,2024-01-23_13h17.41.709,jersey_experiment_5,2023.2.2,Win32,60.24096386,,,,,,,,,,,,,,,,223.3055,225.1046,225.1046,227.5209,return,0.667,,65.49479167,0,17,17,37,1,FBP-YG-81.png,0.4,1.2,38,1,,,,,,,,,,,,,,,,,,,,,,,,,,,,,,,,,,,,,,,,,,,,,
,,,,,FALL23_089,22,Male,2024-01-23_13h17.41.709,jersey_experiment_5,2023.2.2,Win32,60.24096386,,,,,,,,,,,,,,,,227.521,229.3199,229.3199,231.3694,return,0.8668,,64.84375,0,18,18,27,1,FBP-RB-19.png,0.4,1.2,28,1,,,,,,,,,,,,,,,,,,,,,,,,,,,,,,,,,,,,,,,,,,,,,
,,,,,FALL23_089,22,Male,2024-01-23_13h17.41.709,jersey_experiment_5,2023.2.2,Win32,60.24096386,,,,,,,,,,,,,,,,231.3695,232.6683,232.6683,236.3677,return,0.716700001,,24.609375,0,19,19,55,1,FBP-PT-19.png,0.35,1.2,56,0.5,,,,,,,,,,,,,,,,,,,,,,,,,,,,,,,,,,,,,,,,,,,,,
,,,,,FALL23_089,22,Male,2024-01-23_13h17.41.709,jersey_experiment_5,2023.2.2,Win32,60.24096386,,,,,,,,,,,,,,,,236.3679,238.1669,238.1669,242.2439,return,1.3027,,72.39583333,0,20,20,28,1,FBP-RB-19.png,0.43,1.2,29,1,,,,,,,,,,,,,,,,,,,,,,,,,,,,,,,,,,,,,,,,,,,,,
,,,,,FALL23_089,22,Male,2024-01-23_13h17.41.709,jersey_experiment_5,2023.2.2,Win32,60.24096386,,,,,,,,,,,,,,,,242.244,244.0431,244.0432,247.7752,return,0.940299999,,42.05729167,0,21,21,25,1,FBP-RB-19.png,0.35,1.2,26,1,,,,,,,,,,,,,,,,,,,,,,,,,,,,,,,,,,,,,,,,,,,,,
,,,,,FALL23_089,22,Male,2024-01-23_13h17.41.709,jersey_experiment_5,2023.2.2,Win32,60.24096386,,,,,,,,,,,,,,,,247.7754,249.0632,249.0632,252.5124,return,0.700099999,,31.11979167,0,22,22,1,1,FBP-OG-71.png,0.37,1.2,2,0.5,,,,,,,,,,,,,,,,,,,,,,,,,,,,,,,,,,,,,,,,,,,,,
,,,,,FALL23_089,22,Male,2024-01-23_13h17.41.709,jersey_experiment_5,2023.2.2,Win32,60.24096386,,,,,,,,,,,,,,,,252.5125,254.3063,254.3063,256.3776,return,0.5501,,24.73958333,0,23,23,15,1,FBP-RB-17.png,0.35,1.2,16,1,,,,,,,,,,,,,,,,,,,,,,,,,,,,,,,,,,,,,,,,,,,,,
,,,,,FALL23_089,22,Male,2024-01-23_13h17.41.709,jersey_experiment_5,2023.2.2,Win32,60.24096386,,,,,,,,,,,,,,,,256.3778,258.1719,258.1719,260.721,return,0.2561,,26.953125,0,24,24,36,1,FBP-YG-81.png,0.37,1.2,37,1,,,,,,,,,,,,,,,,,,,,,,,,,,,,,,,,,,,,,,,,,,,,,
,,,,,FALL23_089,22,Male,2024-01-23_13h17.41.709,jersey_experiment_5,2023.2.2,Win32,60.24096386,,,,,,,,,,,,,,,,260.7212,262.5255,262.5255,265.4194,return,0.2449,,66.796875,0,25,25,43,1,FBP-YG-91.png,0.43,1.2,44,1,,,,,,,,,,,,,,,,,,,,,,,,,,,,,,,,,,,,,,,,,,,,,
,,,,,FALL23_089,22,Male,2024-01-23_13h17.41.709,jersey_experiment_5,2023.2.2,Win32,60.24096386,,,,,,,,,,,,,,,,265.4196,266.7192,266.7192,268.6553,return,0.482,,19.27083333,0,26,26,50,1,FBP-PT-18.png,0.35,1.2,51,0.5,,,,,,,,,,,,,,,,,,,,,,,,,,,,,,,,,,,,,,,,,,,,,
,,,,,FALL23_089,22,Male,2024-01-23_13h17.41.709,jersey_experiment_5,2023.2.2,Win32,60.24096386,,,,,,,,,,,,,,,,268.6555,269.9565,269.9565,274.1554,return,0.6332,,49.47916667,0,27,27,58,1,FBP-PT-19.png,0.43,1.2,59,0.5,,,,,,,,,,,,,,,,,,,,,,,,,,,,,,,,,,,,,,,,,,,,,
,,,,,FALL23_089,22,Male,2024-01-23_13h17.41.709,jersey_experiment_5,2023.2.2,Win32,60.24096386,,,,,,,,,,,,,,,,274.1555,275.9494,275.9494,280.0199,return,0.8834,,25.26041667,0,28,28,30,1,FBP-YG-71.png,0.35,1.2,31,1,,,,,,,,,,,,,,,,,,,,,,,,,,,,,,,,,,,,,,,,,,,,,
,,,,,FALL23_089,22,Male,2024-01-23_13h17.41.709,jersey_experiment_5,2023.2.2,Win32,60.24096386,,,,,,,,,,,,,,,,280.0201,281.3193,281.3194,283.5522,return,0.3338,,86.328125,0,29,29,14,1,FBP-OG-91.png,0.45,1.2,15,0.5,,,,,,,,,,,,,,,,,,,,,,,,,,,,,,,,,,,,,,,,,,,,,
,,,,,FALL23_089,22,Male,2024-01-23_13h17.41.709,jersey_experiment_5,2023.2.2,Win32,60.24096386,,,,,,,,,,,,,,,,283.5524,285.3461,285.3462,287.9172,return,0.233599999,,83.72395833,0,30,30,39,1,FBP-YG-81.png,0.45,1.2,40,1,,,,,,,,,,,,,,,,,,,,,,,,,,,,,,,,,,,,,,,,,,,,,
,,,,,FALL23_089,22,Male,2024-01-23_13h17.41.709,jersey_experiment_5,2023.2.2,Win32,60.24096386,,,,,,,,,,,,,,,,287.9173,289.2169,289.2169,291.3943,return,0.3215,,75.13020833,0,31,31,8,1,FBP-OG-81.png,0.43,1.2,9,0.5,,,,,,,,,,,,,,,,,,,,,,,,,,,,,,,,,,,,,,,,,,,,,
,,,,,FALL23_089,22,Male,2024-01-23_13h17.41.709,jersey_experiment_5,2023.2.2,Win32,60.24096386,,,,,,,,,,,,,,,,291.3945,292.6938,292.6938,294.5651,return,0.3667,,92.05729167,0,32,32,4,1,FBP-OG-71.png,0.45,1.2,5,0.5,,,,,,,,,,,,,,,,,,,,,,,,,,,,,,,,,,,,,,,,,,,,,
,,,,,FALL23_089,22,Male,2024-01-23_13h17.41.709,jersey_experiment_5,2023.2.2,Win32,60.24096386,,,,,,,,,,,,,,,,294.5653,295.8595,295.8595,302.474,return,0.2334,,74.609375,0,33,33,47,1,FBP-PT-17.png,0.4,1.2,48,0.5,,,,,,,,,,,,,,,,,,,,,,,,,,,,,,,,,,,,,,,,,,,,,
,,,,,FALL23_089,22,Male,2024-01-23_13h17.41.709,jersey_experiment_5,2023.2.2,Win32,60.24096386,,,,,,,,,,,,,,,,302.4742,303.7736,303.7736,305.6617,return,0.199900001,,50.13020833,0,34,34,2,1,FBP-OG-71.png,0.4,1.2,3,0.5,,,,,,,,,,,,,,,,,,,,,,,,,,,,,,,,,,,,,,,,,,,,,
,,,,,FALL23_089,22,Male,2024-01-23_13h17.41.709,jersey_experiment_5,2023.2.2,Win32,60.24096386,,,,,,,,,,,,,,,,305.6618,307.4612,307.4612,309.7214,return,0.5335,,70.703125,0,35,35,44,1,FBP-YG-91.png,0.45,1.2,45,1,,,,,,,,,,,,,,,,,,,,,,,,,,,,,,,,,,,,,,,,,,,,,
,,,,,FALL23_089,22,Male,2024-01-23_13h17.41.709,jersey_experiment_5,2023.2.2,Win32,60.24096386,,,,,,,,,,,,,,,,309.7216,311.5208,311.5208,313.1092,return,0.4004,,25.26041667,0,36,36,20,1,FBP-RB-18.png,0.35,1.2,21,1,,,,,,,,,,,,,,,,,,,,,,,,,,,,,,,,,,,,,,,,,,,,,
,,,,,FALL23_089,22,Male,2024-01-23_13h17.41.709,jersey_experiment_5,2023.2.2,Win32,60.24096386,,,,,,,,,,,,,,,,313.1094,314.4032,314.4032,316.0528,return,0.6355,,35.80729167,0,37,37,12,1,FBP-OG-91.png,0.4,1.2,13,0.5,,,,,,,,,,,,,,,,,,,,,,,,,,,,,,,,,,,,,,,,,,,,,
,,,,,FALL23_089,22,Male,2024-01-23_13h17.41.709,jersey_experiment_5,2023.2.2,Win32,60.24096386,,,,,,,,,,,,,,,,316.053,317.8407,317.8407,319.6569,return,0.4497,,35.67708333,0,38,38,41,1,FBP-YG-91.png,0.37,1.2,42,1,,,,,,,,,,,,,,,,,,,,,,,,,,,,,,,,,,,,,,,,,,,,,
,,,,,FALL23_089,22,Male,2024-01-23_13h17.41.709,jersey_experiment_5,2023.2.2,Win32,60.24096386,,,,,,,,,,,,,,,,319.6571,320.9516,320.9516,323.1725,return,0.25,,37.109375,0,39,39,11,1,FBP-OG-91.png,0.37,1.2,12,0.5,,,,,,,,,,,,,,,,,,,,,,,,,,,,,,,,,,,,,,,,,,,,,
,,,,,FALL23_089,22,Male,2024-01-23_13h17.41.709,jersey_experiment_5,2023.2.2,Win32,60.24096386,,,,,,,,,,,,,,,,323.1726,324.4701,324.4702,327.7489,return,0.9869,,74.86979167,0,40,40,9,1,FBP-OG-81.png,0.45,1.2,10,0.5,,,,,,,,,,,,,,,,,,,,,,,,,,,,,,,,,,,,,,,,,,,,,
,,,,,FALL23_089,22,Male,2024-01-23_13h17.41.709,jersey_experiment_5,2023.2.2,Win32,60.24096386,,,,,,,,,,,,,,,,327.7492,329.037,329.0371,331.2645,return,0.856599999,,74.86979167,0,41,41,49,1,FBP-PT-17.png,0.45,1.2,50,0.5,,,,,,,,,,,,,,,,,,,,,,,,,,,,,,,,,,,,,,,,,,,,,
,,,,,FALL23_089,22,Male,2024-01-23_13h17.41.709,jersey_experiment_5,2023.2.2,Win32,60.24096386,,,,,,,,,,,,,,,,331.2647,332.5524,332.5524,333.9687,return,0.2337,,68.359375,0,42,42,7,1,FBP-OG-81.png,0.4,1.2,8,0.5,,,,,,,,,,,,,,,,,,,,,,,,,,,,,,,,,,,,,,,,,,,,,
,,,,,FALL23_089,22,Male,2024-01-23_13h17.41.709,jersey_experiment_5,2023.2.2,Win32,60.24096386,,,,,,,,,,,,,,,,333.9689,335.2682,335.2682,336.8458,return,0.3095,,79.03645833,0,43,43,53,1,FBP-PT-18.png,0.43,1.2,54,0.5,,,,,,,,,,,,,,,,,,,,,,,,,,,,,,,,,,,,,,,,,,,,,
,,,,,FALL23_089,22,Male,2024-01-23_13h17.41.709,jersey_experiment_5,2023.2.2,Win32,60.24096386,,,,,,,,,,,,,,,,336.846,338.1339,338.1339,341.0946,return,0.4685,,75.390625,0,44,44,56,1,FBP-PT-19.png,0.37,1.2,57,0.5,,,,,,,,,,,,,,,,,,,,,,,,,,,,,,,,,,,,,,,,,,,,,
,,,,,FALL23_089,22,Male,2024-01-23_13h17.41.709,jersey_experiment_5,2023.2.2,Win32,60.24096386,,,,,,,,,,,,,,,,341.0947,342.8823,342.8824,345.2819,return,0.2667,,46.22395833,0,45,45,26,1,FBP-RB-19.png,0.37,1.2,27,1,,,,,,,,,,,,,,,,,,,,,,,,,,,,,,,,,,,,,,,,,,,,,
,,,,,FALL23_089,22,Male,2024-01-23_13h17.41.709,jersey_experiment_5,2023.2.2,Win32,60.24096386,,,,,,,,,,,,,,,,345.2821,347.0759,347.076,348.1922,return,0.2233,,50.26041667,0,46,46,17,1,FBP-RB-17.png,0.4,1.2,18,1,,,,,,,,,,,,,,,,,,,,,,,,,,,,,,,,,,,,,,,,,,,,,
,,,,,FALL23_089,22,Male,2024-01-23_13h17.41.709,jersey_experiment_5,2023.2.2,Win32,60.24096386,,,,,,,,,,,,,,,,348.1924,349.9915,349.9916,351.3299,return,0.2837,,50,0,47,47,31,1,FBP-YG-71.png,0.37,1.2,32,1,,,,,,,,,,,,,,,,,,,,,,,,,,,,,,,,,,,,,,,,,,,,,
,,,,,FALL23_089,22,Male,2024-01-23_13h17.41.709,jersey_experiment_5,2023.2.2,Win32,60.24096386,,,,,,,,,,,,,,,,351.3301,353.1239,353.1239,354.5937,return,0.4152,,74.21875,0,48,48,32,1,FBP-YG-71.png,0.4,1.2,33,1,,,,,,,,,,,,,,,,,,,,,,,,,,,,,,,,,,,,,,,,,,,,,
,,,,,FALL23_089,22,Male,2024-01-23_13h17.41.709,jersey_experiment_5,2023.2.2,Win32,60.24096386,,,,,,,,,,,,,,,,354.5939,356.3948,356.3948,357.9722,return,0.2697,,94.921875,0,49,49,34,1,FBP-YG-71.png,0.45,1.2,35,1,,,,,,,,,,,,,,,,,,,,,,,,,,,,,,,,,,,,,,,,,,,,,
,,,,,FALL23_089,22,Male,2024-01-23_13h17.41.709,jersey_experiment_5,2023.2.2,Win32,60.24096386,,,,,,,,,,,,,,,,357.9724,359.2717,359.2717,364.4755,return,0.3503,,24.47916667,0,50,50,5,1,FBP-OG-81.png,0.35,1.2,6,0.5,,,,,,,,,,,,,,,,,,,,,,,,,,,,,,,,,,,,,,,,,,,,,
,,,,,FALL23_089,22,Male,2024-01-23_13h17.41.709,jersey_experiment_5,2023.2.2,Win32,60.24096386,,,,,,,,,,,,,,,,364.4757,365.7748,365.7748,369.985,return,1.5725,,75,0,51,51,48,1,FBP-PT-17.png,0.43,1.2,49,0.5,,,,,,,,,,,,,,,,,,,,,,,,,,,,,,,,,,,,,,,,,,,,,
,,,,,FALL23_089,22,Male,2024-01-23_13h17.41.709,jersey_experiment_5,2023.2.2,Win32,60.24096386,,,,,,,,,,,,,,,,369.9851,371.2896,371.2897,374.8883,return,2.1162,,25,0,52,52,45,1,FBP-PT-17.png,0.35,1.2,46,0.5,,,,,,,,,,,,,,,,,,,,,,,,,,,,,,,,,,,,,,,,,,,,,
,,,,,FALL23_089,22,Male,2024-01-23_13h17.41.709,jersey_experiment_5,2023.2.2,Win32,60.24096386,,,,,,,,,,,,,,,,374.8886,376.1829,376.183,379.1652,return,0.876400001,,49.86979167,0,53,53,57,1,FBP-PT-19.png,0.4,1.2,58,0.5,,,,,,,,,,,,,,,,,,,,,,,,,,,,,,,,,,,,,,,,,,,,,
,,,,,FALL23_089,22,Male,2024-01-23_13h17.41.709,jersey_experiment_5,2023.2.2,Win32,60.24096386,,,,,,,,,,,,,,,,379.1654,380.9647,380.9647,385.1027,return,1.083900001,,29.03645833,0,54,54,16,1,FBP-RB-17.png,0.37,1.2,17,1,,,,,,,,,,,,,,,,,,,,,,,,,,,,,,,,,,,,,,,,,,,,,
,,,,,FALL23_089,22,Male,2024-01-23_13h17.41.709,jersey_experiment_5,2023.2.2,Win32,60.24096386,,,,,,,,,,,,,,,,385.1028,386.4015,386.4015,390.6116,return,2.903,,74.47916667,0,55,55,3,1,FBP-OG-71.png,0.43,1.2,4,0.5,,,,,,,,,,,,,,,,,,,,,,,,,,,,,,,,,,,,,,,,,,,,,
,,,,,FALL23_089,22,Male,2024-01-23_13h17.41.709,jersey_experiment_5,2023.2.2,Win32,60.24096386,,,,,,,,,,,,,,,,390.6118,391.8999,391.9,398.2977,return,2.283099999,,36.06770833,0,56,56,46,1,FBP-PT-17.png,0.37,1.2,47,0.5,,,,,,,,,,,,,,,,,,,,,,,,,,,,,,,,,,,,,,,,,,,,,
,,,,,FALL23_089,22,Male,2024-01-23_13h17.41.709,jersey_experiment_5,2023.2.2,Win32,60.24096386,,,,,,,,,,,,,,,,398.2979,399.5919,399.592,406.0448,return,4.9654,,77.86458333,0,57,57,13,1,FBP-OG-91.png,0.43,1.2,14,0.5,,,,,,,,,,,,,,,,,,,,,,,,,,,,,,,,,,,,,,,,,,,,,
,,,,,FALL23_089,22,Male,2024-01-23_13h17.41.709,jersey_experiment_5,2023.2.2,Win32,60.24096386,,,,,,,,,,,,,,,,406.0451,407.3393,407.3394,410.5549,return,0.9998,,60.546875,0,58,58,51,1,FBP-PT-18.png,0.37,1.2,52,0.5,,,,,,,,,,,,,,,,,,,,,,,,,,,,,,,,,,,,,,,,,,,,,
,,,,,FALL23_089,22,Male,2024-01-23_13h17.41.709,jersey_experiment_5,2023.2.2,Win32,60.24096386,,,,,,,,,,,,,,,,410.5551,411.8595,411.8595,414.3756,return,0.201400001,,24.609375,0,59,59,0,1,FBP-OG-71.png,0.35,1.2,1,0.5,,,,,,,,,,,,,,,,,,,,,,,,,,,,,,,,,,,,,,,,,,,,,
,,,,,FALL23_089,22,Male,2024-01-23_13h17.41.709,jersey_experiment_5,2023.2.2,Win32,60.24096386,,,,,,,,,,,,,,,,414.3781,416.1732,416.1732,422.8728,return,4.7318,,90.625,,,,,,FBP-RB-71.png,0.43,1.2,19,1,0,0,0,18,1,,,,,,,,,,,,,,,,,,,,,,,,,,,,,,,,,,,,,,,,
,,,,,FALL23_089,22,Male,2024-01-23_13h17.41.709,jersey_experiment_5,2023.2.2,Win32,60.24096386,,,,,,,,,,,,,,,,422.8731,424.6719,424.6719,429.2873,return,1.9829,,74.73958333,,,,,,FBP-RB-91.png,0.4,1.2,28,1,0,1,1,27,1,,,,,,,,,,,,,,,,,,,,,,,,,,,,,,,,,,,,,,,,
,,,,,FALL23_089,22,Male,2024-01-23_13h17.41.709,jersey_experiment_5,2023.2.2,Win32,60.24096386,,,,,,,,,,,,,,,,429.2874,431.0814,431.0814,433.6195,return,0.2004,,25.26041667,,,,,,FBP-YG-18.png,0.35,1.2,36,1,0,2,2,35,1,,,,,,,,,,,,,,,,,,,,,,,,,,,,,,,,,,,,,,,,
,,,,,FALL23_089,22,Male,2024-01-23_13h17.41.709,jersey_experiment_5,2023.2.2,Win32,60.24096386,,,,,,,,,,,,,,,,433.6197,434.9135,434.9135,437.0014,return,0.200299999,,74.86979167,,,,,,FBP-PT-81.png,0.43,1.2,54,0.5,0,3,3,53,1,,,,,,,,,,,,,,,,,,,,,,,,,,,,,,,,,,,,,,,,
,,,,,FALL23_089,22,Male,2024-01-23_13h17.41.709,jersey_experiment_5,2023.2.2,Win32,60.24096386,,,,,,,,,,,,,,,,437.0015,438.8007,438.8008,440.4118,return,0.768400001,,74.73958333,,,,,,FBP-YG-19.png,0.4,1.2,43,1,0,4,4,42,1,,,,,,,,,,,,,,,,,,,,,,,,,,,,,,,,,,,,,,,,
,,,,,FALL23_089,22,Male,2024-01-23_13h17.41.709,jersey_experiment_5,2023.2.2,Win32,60.24096386,,,,,,,,,,,,,,,,440.4119,441.7114,441.7114,444.1825,return,0.2002,,77.34375,,,,,,FBP-OG-18.png,0.43,1.2,9,0.5,0,5,5,8,1,,,,,,,,,,,,,,,,,,,,,,,,,,,,,,,,,,,,,,,,
,,,,,FALL23_089,22,Male,2024-01-23_13h17.41.709,jersey_experiment_5,2023.2.2,Win32,60.24096386,,,,,,,,,,,,,,,,444.1827,445.4817,445.4818,447.3261,return,0.7918,,69.40104167,,,,,,FBP-OG-19.png,0.4,1.2,13,0.5,0,6,6,12,1,,,,,,,,,,,,,,,,,,,,,,,,,,,,,,,,,,,,,,,,
,,,,,FALL23_089,22,Male,2024-01-23_13h17.41.709,jersey_experiment_5,2023.2.2,Win32,60.24096386,,,,,,,,,,,,,,,,447.3264,449.1306,449.1306,450.8801,return,0.65,,65.234375,,,,,,FBP-YG-17.png,0.37,1.2,32,1,0,7,7,31,1,,,,,,,,,,,,,,,,,,,,,,,,,,,,,,,,,,,,,,,,
,,,,,FALL23_089,22,Male,2024-01-23_13h17.41.709,jersey_experiment_5,2023.2.2,Win32,60.24096386,,,,,,,,,,,,,,,,450.8802,452.6744,452.6744,455.4452,return,1.85,,44.66145833,,,,,,FBP-YG-18.png,0.37,1.2,37,1,0,8,8,36,1,,,,,,,,,,,,,,,,,,,,,,,,,,,,,,,,,,,,,,,,
,,,,,FALL23_089,22,Male,2024-01-23_13h17.41.709,jersey_experiment_5,2023.2.2,Win32,60.24096386,,,,,,,,,,,,,,,,455.4453,457.2394,457.2394,458.8925,return,0.2818,,38.41145833,,,,,,FBP-YG-19.png,0.35,1.2,41,1,0,9,9,40,1,,,,,,,,,,,,,,,,,,,,,,,,,,,,,,,,,,,,,,,,
,,,,,FALL23_089,22,Male,2024-01-23_13h17.41.709,jersey_experiment_5,2023.2.2,Win32,60.24096386,,,,,,,,,,,,,,,,458.8928,460.1885,460.1885,461.5767,return,0.1668,,24.73958333,,,,,,FBP-OG-19.png,0.35,1.2,11,0.5,0,10,10,10,1,,,,,,,,,,,,,,,,,,,,,,,,,,,,,,,,,,,,,,,,
,,,,,FALL23_089,22,Male,2024-01-23_13h17.41.709,jersey_experiment_5,2023.2.2,Win32,60.24096386,,,,,,,,,,,,,,,,461.5769,462.871,462.871,466.6235,return,0.2654,,69.01041667,,,,,,FBP-OG-19.png,0.43,1.2,14,0.5,0,11,11,13,1,,,,,,,,,,,,,,,,,,,,,,,,,,,,,,,,,,,,,,,,
,,,,,FALL23_089,22,Male,2024-01-23_13h17.41.709,jersey_experiment_5,2023.2.2,Win32,60.24096386,,,,,,,,,,,,,,,,466.6236,467.9192,467.9192,471.007,return,0.3005,,25,,,,,,FBP-PT-81.png,0.35,1.2,51,0.5,0,12,12,50,1,,,,,,,,,,,,,,,,,,,,,,,,,,,,,,,,,,,,,,,,
,,,,,FALL23_089,22,Male,2024-01-23_13h17.41.709,jersey_experiment_5,2023.2.2,Win32,60.24096386,,,,,,,,,,,,,,,,471.0072,472.801,472.801,476.8717,return,0.2498,,24.86979167,,,,,,FBP-RB-81.png,0.37,1.2,22,1,0,13,13,21,1,,,,,,,,,,,,,,,,,,,,,,,,,,,,,,,,,,,,,,,,
,,,,,FALL23_089,22,Male,2024-01-23_13h17.41.709,jersey_experiment_5,2023.2.2,Win32,60.24096386,,,,,,,,,,,,,,,,476.8718,478.1707,478.1707,480.987,return,0.3668,,12.63020833,,,,,,FBP-OG-17.png,0.35,1.2,1,0.5,0,14,14,0,1,,,,,,,,,,,,,,,,,,,,,,,,,,,,,,,,,,,,,,,,
,,,,,FALL23_089,22,Male,2024-01-23_13h17.41.709,jersey_experiment_5,2023.2.2,Win32,60.24096386,,,,,,,,,,,,,,,,480.9872,482.7865,482.7865,483.9807,return,0.162200001,,84.63541667,,,,,,FBP-YG-17.png,0.45,1.2,35,1,0,15,15,34,1,,,,,,,,,,,,,,,,,,,,,,,,,,,,,,,,,,,,,,,,
,,,,,FALL23_089,22,Male,2024-01-23_13h17.41.709,jersey_experiment_5,2023.2.2,Win32,60.24096386,,,,,,,,,,,,,,,,483.9808,485.785,485.785,486.6689,return,0.134099999,,93.48958333,,,,,,FBP-YG-18.png,0.45,1.2,40,1,0,16,16,39,1,,,,,,,,,,,,,,,,,,,,,,,,,,,,,,,,,,,,,,,,
,,,,,FALL23_089,22,Male,2024-01-23_13h17.41.709,jersey_experiment_5,2023.2.2,Win32,60.24096386,,,,,,,,,,,,,,,,486.6691,488.4676,488.4676,489.5954,return,0.1502,,95.3125,,,,,,FBP-YG-19.png,0.45,1.2,45,1,0,17,17,44,1,,,,,,,,,,,,,,,,,,,,,,,,,,,,,,,,,,,,,,,,
,,,,,FALL23_089,22,Male,2024-01-23_13h17.41.709,jersey_experiment_5,2023.2.2,Win32,60.24096386,,,,,,,,,,,,,,,,489.5956,491.3833,491.3833,492.4332,return,0.2338,,81.640625,,,,,,FBP-YG-17.png,0.4,1.2,33,1,0,18,18,32,1,,,,,,,,,,,,,,,,,,,,,,,,,,,,,,,,,,,,,,,,
,,,,,FALL23_089,22,Male,2024-01-23_13h17.41.709,jersey_experiment_5,2023.2.2,Win32,60.24096386,,,,,,,,,,,,,,,,492.4334,494.2322,494.2323,497.2815,return,0.2018,,35.80729167,,,,,,FBP-RB-91.png,0.35,1.2,26,1,0,19,19,25,1,,,,,,,,,,,,,,,,,,,,,,,,,,,,,,,,,,,,,,,,
,,,,,FALL23_089,22,Male,2024-01-23_13h17.41.709,jersey_experiment_5,2023.2.2,Win32,60.24096386,,,,,,,,,,,,,,,,497.2817,499.0808,499.0808,500.464,return,0.2505,,85.28645833,,,,,,FBP-RB-91.png,0.45,1.2,30,1,0,20,20,29,1,,,,,,,,,,,,,,,,,,,,,,,,,,,,,,,,,,,,,,,,
,,,,,FALL23_089,22,Male,2024-01-23_13h17.41.709,jersey_experiment_5,2023.2.2,Win32,60.24096386,,,,,,,,,,,,,,,,500.4642,501.7583,501.7584,504.8957,return,0.2335,,37.890625,,,,,,FBP-OG-17.png,0.43,1.2,4,0.5,0,21,21,3,1,,,,,,,,,,,,,,,,,,,,,,,,,,,,,,,,,,,,,,,,
,,,,,FALL23_089,22,Male,2024-01-23_13h17.41.709,jersey_experiment_5,2023.2.2,Win32,60.24096386,,,,,,,,,,,,,,,,504.8959,506.1899,506.19,507.445,return,0.2504,,11.97916667,,,,,,FBP-OG-17.png,0.37,1.2,2,0.5,0,22,22,1,1,,,,,,,,,,,,,,,,,,,,,,,,,,,,,,,,,,,,,,,,
,,,,,FALL23_089,22,Male,2024-01-23_13h17.41.709,jersey_experiment_5,2023.2.2,Win32,60.24096386,,,,,,,,,,,,,,,,507.4451,509.244,509.2441,511.4382,return,0.8419,,83.46354167,,,,,,FBP-YG-19.png,0.43,1.2,44,1,0,23,23,43,1,,,,,,,,,,,,,,,,,,,,,,,,,,,,,,,,,,,,,,,,
,,,,,FALL23_089,22,Male,2024-01-23_13h17.41.709,jersey_experiment_5,2023.2.2,Win32,60.24096386,,,,,,,,,,,,,,,,511.4386,512.7431,512.7432,514.3758,return,0.4335,,50.13020833,,,,,,FBP-PT-91.png,0.4,1.2,58,0.5,0,24,24,57,1,,,,,,,,,,,,,,,,,,,,,,,,,,,,,,,,,,,,,,,,
,,,,,FALL23_089,22,Male,2024-01-23_13h17.41.709,jersey_experiment_5,2023.2.2,Win32,60.24096386,,,,,,,,,,,,,,,,514.376,515.6754,515.6754,519.974,return,0.7165,,41.66666667,,,,,,FBP-PT-91.png,0.45,1.2,60,0.5,0,25,25,59,1,,,,,,,,,,,,,,,,,,,,,,,,,,,,,,,,,,,,,,,,
,,,,,FALL23_089,22,Male,2024-01-23_13h17.41.709,jersey_experiment_5,2023.2.2,Win32,60.24096386,,,,,,,,,,,,,,,,519.9742,521.7735,521.7735,523.3728,return,0.166900001,,38.41145833,,,,,,FBP-RB-71.png,0.4,1.2,18,1,0,26,26,17,1,,,,,,,,,,,,,,,,,,,,,,,,,,,,,,,,,,,,,,,,
,,,,,FALL23_089,22,Male,2024-01-23_13h17.41.709,jersey_experiment_5,2023.2.2,Win32,60.24096386,,,,,,,,,,,,,,,,523.3729,525.1706,525.1706,527.0721,return,0.7501,,24.21875,,,,,,FBP-RB-81.png,0.35,1.2,21,1,0,27,27,20,1,,,,,,,,,,,,,,,,,,,,,,,,,,,,,,,,,,,,,,,,
,,,,,FALL23_089,22,Male,2024-01-23_13h17.41.709,jersey_experiment_5,2023.2.2,Win32,60.24096386,,,,,,,,,,,,,,,,527.0723,528.8707,528.8707,531.4371,return,0.2334,,25,,,,,,FBP-RB-91.png,0.37,1.2,27,1,0,28,28,26,1,,,,,,,,,,,,,,,,,,,,,,,,,,,,,,,,,,,,,,,,
,,,,,FALL23_089,22,Male,2024-01-23_13h17.41.709,jersey_experiment_5,2023.2.2,Win32,60.24096386,,,,,,,,,,,,,,,,531.4373,532.7365,532.7365,534.5973,return,0.2191,,65.36458333,,,,,,FBP-PT-71.png,0.43,1.2,49,0.5,0,29,29,48,1,,,,,,,,,,,,,,,,,,,,,,,,,,,,,,,,,,,,,,,,
,,,,,FALL23_089,22,Male,2024-01-23_13h17.41.709,jersey_experiment_5,2023.2.2,Win32,60.24096386,,,,,,,,,,,,,,,,534.5975,536.3852,536.3852,540.3119,return,2.6161,,66.53645833,,,,,,FBP-YG-18.png,0.4,1.2,38,1,0,30,30,37,1,,,,,,,,,,,,,,,,,,,,,,,,,,,,,,,,,,,,,,,,
,,,,,FALL23_089,22,Male,2024-01-23_13h17.41.709,jersey_experiment_5,2023.2.2,Win32,60.24096386,,,,,,,,,,,,,,,,540.3122,542.0998,542.0998,543.9158,return,0.3167,,75.26041667,,,,,,FBP-RB-91.png,0.43,1.2,29,1,0,31,31,28,1,,,,,,,,,,,,,,,,,,,,,,,,,,,,,,,,,,,,,,,,
,,,,,FALL23_089,22,Male,2024-01-23_13h17.41.709,jersey_experiment_5,2023.2.2,Win32,60.24096386,,,,,,,,,,,,,,,,543.9161,545.2103,545.2103,546.1486,return,0.150200001,,75,,,,,,FBP-PT-91.png,0.43,1.2,59,0.5,0,32,32,58,1,,,,,,,,,,,,,,,,,,,,,,,,,,,,,,,,,,,,,,,,
,,,,,FALL23_089,22,Male,2024-01-23_13h17.41.709,jersey_experiment_5,2023.2.2,Win32,60.24096386,,,,,,,,,,,,,,,,546.1488,547.9428,547.9428,550.2587,return,1.254,,78.90625,,,,,,FBP-YG-18.png,0.43,1.2,39,1,0,33,33,38,1,,,,,,,,,,,,,,,,,,,,,,,,,,,,,,,,,,,,,,,,
,,,,,FALL23_089,22,Male,2024-01-23_13h17.41.709,jersey_experiment_5,2023.2.2,Win32,60.24096386,,,,,,,,,,,,,,,,550.2589,551.5583,551.5583,553.1132,return,0.65,,78.90625,,,,,,FBP-OG-18.png,0.45,1.2,10,0.5,0,34,34,9,1,,,,,,,,,,,,,,,,,,,,,,,,,,,,,,,,,,,,,,,,
,,,,,FALL23_089,22,Male,2024-01-23_13h17.41.709,jersey_experiment_5,2023.2.2,Win32,60.24096386,,,,,,,,,,,,,,,,553.1133,554.9072,554.9072,557.523,return,0.1877,,58.984375,,,,,,FBP-RB-81.png,0.4,1.2,23,1,0,35,35,22,1,,,,,,,,,,,,,,,,,,,,,,,,,,,,,,,,,,,,,,,,
,,,,,FALL23_089,22,Male,2024-01-23_13h17.41.709,jersey_experiment_5,2023.2.2,Win32,60.24096386,,,,,,,,,,,,,,,,557.5232,558.8226,558.8226,563.2878,return,1.3002,,74.47916667,,,,,,FBP-OG-17.png,0.45,1.2,5,0.5,0,36,36,4,1,,,,,,,,,,,,,,,,,,,,,,,,,,,,,,,,,,,,,,,,
,,,,,FALL23_089,22,Male,2024-01-23_13h17.41.709,jersey_experiment_5,2023.2.2,Win32,60.24096386,,,,,,,,,,,,,,,,563.288,564.5876,564.5876,568.2081,return,1.668099999,,25.13020833,,,,,,FBP-PT-91.png,0.37,1.2,57,0.5,0,37,37,56,1,,,,,,,,,,,,,,,,,,,,,,,,,,,,,,,,,,,,,,,,
,,,,,FALL23_089,22,Male,2024-01-23_13h17.41.709,jersey_experiment_5,2023.2.2,Win32,60.24096386,,,,,,,,,,,,,,,,568.2083,570.007,570.007,574.0395,return,1.199799999,,33.59375,,,,,,FBP-RB-71.png,0.37,1.2,17,1,0,38,38,16,1,,,,,,,,,,,,,,,,,,,,,,,,,,,,,,,,,,,,,,,,
,,,,,FALL23_089,22,Male,2024-01-23_13h17.41.709,jersey_experiment_5,2023.2.2,Win32,60.24096386,,,,,,,,,,,,,,,,574.0397,575.3338,575.3338,577.6331,return,0.223,,74.47916667,,,,,,FBP-PT-71.png,0.45,1.2,50,0.5,0,39,39,49,1,,,,,,,,,,,,,,,,,,,,,,,,,,,,,,,,,,,,,,,,
,,,,,FALL23_089,22,Male,2024-01-23_13h17.41.709,jersey_experiment_5,2023.2.2,Win32,60.24096386,,,,,,,,,,,,,,,,577.6332,578.9376,578.9376,582.57,return,1.533,,63.41145833,,,,,,FBP-PT-81.png,0.4,1.2,53,0.5,0,40,40,52,1,,,,,,,,,,,,,,,,,,,,,,,,,,,,,,,,,,,,,,,,
,,,,,FALL23_089,22,Male,2024-01-23_13h17.41.709,jersey_experiment_5,2023.2.2,Win32,60.24096386,,,,,,,,,,,,,,,,582.5702,584.3641,584.3642,587.0632,return,0.5498,,72.39583333,,,,,,FBP-RB-81.png,0.43,1.2,24,1,0,41,41,23,1,,,,,,,,,,,,,,,,,,,,,,,,,,,,,,,,,,,,,,,,
,,,,,FALL23_089,22,Male,2024-01-23_13h17.41.709,jersey_experiment_5,2023.2.2,Win32,60.24096386,,,,,,,,,,,,,,,,587.0633,588.851,588.851,590.6006,return,0.5499,,25.390625,,,,,,FBP-RB-71.png,0.35,1.2,16,1,0,42,42,15,1,,,,,,,,,,,,,,,,,,,,,,,,,,,,,,,,,,,,,,,,
,,,,,FALL23_089,22,Male,2024-01-23_13h17.41.709,jersey_experiment_5,2023.2.2,Win32,60.24096386,,,,,,,,,,,,,,,,590.6009,591.9001,591.9001,594.9999,return,1.75,,20.96354167,,,,,,FBP-OG-18.png,0.35,1.2,6,0.5,0,43,43,5,1,,,,,,,,,,,,,,,,,,,,,,,,,,,,,,,,,,,,,,,,
,,,,,FALL23_089,22,Male,2024-01-23_13h17.41.709,jersey_experiment_5,2023.2.2,Win32,60.24096386,,,,,,,,,,,,,,,,595.0002,596.7986,596.7986,598.0486,return,0.3006,,16.40625,,,,,,FBP-YG-19.png,0.37,1.2,42,1,0,44,44,41,1,,,,,,,,,,,,,,,,,,,,,,,,,,,,,,,,,,,,,,,,
,,,,,FALL23_089,22,Male,2024-01-23_13h17.41.709,jersey_experiment_5,2023.2.2,Win32,60.24096386,,,,,,,,,,,,,,,,598.0487,599.8423,599.8424,603.0297,return,0.1849,,67.1875,,,,,,FBP-YG-17.png,0.43,1.2,34,1,0,45,45,33,1,,,,,,,,,,,,,,,,,,,,,,,,,,,,,,,,,,,,,,,,
,,,,,FALL23_089,22,Male,2024-01-23_13h17.41.709,jersey_experiment_5,2023.2.2,Win32,60.24096386,,,,,,,,,,,,,,,,603.0299,604.3241,604.3242,605.9459,return,0.200200001,,63.93229167,,,,,,FBP-OG-17.png,0.4,1.2,3,0.5,0,46,46,2,1,,,,,,,,,,,,,,,,,,,,,,,,,,,,,,,,,,,,,,,,
,,,,,FALL23_089,22,Male,2024-01-23_13h17.41.709,jersey_experiment_5,2023.2.2,Win32,60.24096386,,,,,,,,,,,,,,,,605.946,607.2448,607.2448,608.978,return,0.3165,,74.73958333,,,,,,FBP-OG-19.png,0.45,1.2,15,0.5,0,47,47,14,1,,,,,,,,,,,,,,,,,,,,,,,,,,,,,,,,,,,,,,,,
,,,,,FALL23_089,22,Male,2024-01-23_13h17.41.709,jersey_experiment_5,2023.2.2,Win32,60.24096386,,,,,,,,,,,,,,,,608.9781,610.7772,610.7773,612.4435,return,0.167,,28.38541667,,,,,,FBP-YG-17.png,0.35,1.2,31,1,0,48,48,30,1,,,,,,,,,,,,,,,,,,,,,,,,,,,,,,,,,,,,,,,,
,,,,,FALL23_089,22,Male,2024-01-23_13h17.41.709,jersey_experiment_5,2023.2.2,Win32,60.24096386,,,,,,,,,,,,,,,,612.4438,613.7377,613.7378,616.4422,return,0.3016,,74.86979167,,,,,,FBP-PT-81.png,0.45,1.2,55,0.5,0,49,49,54,1,,,,,,,,,,,,,,,,,,,,,,,,,,,,,,,,,,,,,,,,
,,,,,FALL23_089,22,Male,2024-01-23_13h17.41.709,jersey_experiment_5,2023.2.2,Win32,60.24096386,,,,,,,,,,,,,,,,616.4423,618.2363,618.2363,619.806,return,0.2323,,77.34375,,,,,,FBP-RB-71.png,0.45,1.2,20,1,0,50,50,19,1,,,,,,,,,,,,,,,,,,,,,,,,,,,,,,,,,,,,,,,,
,,,,,FALL23_089,22,Male,2024-01-23_13h17.41.709,jersey_experiment_5,2023.2.2,Win32,60.24096386,,,,,,,,,,,,,,,,619.8062,621.102,621.102,623.0233,return,0.483599999,,55.59895833,,,,,,FBP-OG-18.png,0.4,1.2,8,0.5,0,51,51,7,1,,,,,,,,,,,,,,,,,,,,,,,,,,,,,,,,,,,,,,,,
,,,,,FALL23_089,22,Male,2024-01-23_13h17.41.709,jersey_experiment_5,2023.2.2,Win32,60.24096386,,,,,,,,,,,,,,,,623.0234,624.3175,624.3175,626.9707,return,1.248700001,,23.95833333,,,,,,FBP-PT-71.png,0.35,1.2,46,0.5,0,52,52,45,1,,,,,,,,,,,,,,,,,,,,,,,,,,,,,,,,,,,,,,,,
,,,,,FALL23_089,22,Male,2024-01-23_13h17.41.709,jersey_experiment_5,2023.2.2,Win32,60.24096386,,,,,,,,,,,,,,,,626.9708,628.2699,628.2699,630.4156,return,0.676,,33.07291667,,,,,,FBP-OG-18.png,0.37,1.2,7,0.5,0,53,53,6,1,,,,,,,,,,,,,,,,,,,,,,,,,,,,,,,,,,,,,,,,
,,,,,FALL23_089,22,Male,2024-01-23_13h17.41.709,jersey_experiment_5,2023.2.2,Win32,60.24096386,,,,,,,,,,,,,,,,630.4158,631.7036,631.7036,633.0371,return,0.2174,,18.22916667,,,,,,FBP-PT-71.png,0.37,1.2,47,0.5,0,54,54,46,1,,,,,,,,,,,,,,,,,,,,,,,,,,,,,,,,,,,,,,,,
,,,,,FALL23_089,22,Male,2024-01-23_13h17.41.709,jersey_experiment_5,2023.2.2,Win32,60.24096386,,,,,,,,,,,,,,,,633.0373,634.3361,634.3361,635.5858,return,0.166900001,,15.75520833,,,,,,FBP-PT-81.png,0.37,1.2,52,0.5,0,55,55,51,1,,,,,,,,,,,,,,,,,,,,,,,,,,,,,,,,,,,,,,,,
,,,,,FALL23_089,22,Male,2024-01-23_13h17.41.709,jersey_experiment_5,2023.2.2,Win32,60.24096386,,,,,,,,,,,,,,,,635.586,636.88,636.88,640.0845,return,1.6832,,38.80208333,,,,,,FBP-PT-71.png,0.4,1.2,48,0.5,0,56,56,47,1,,,,,,,,,,,,,,,,,,,,,,,,,,,,,,,,,,,,,,,,
,,,,,FALL23_089,22,Male,2024-01-23_13h17.41.709,jersey_experiment_5,2023.2.2,Win32,60.24096386,,,,,,,,,,,,,,,,640.0847,641.3836,641.3837,643.0342,return,0.2343,,15.88541667,,,,,,FBP-PT-91.png,0.35,1.2,56,0.5,0,57,57,55,1,,,,,,,,,,,,,,,,,,,,,,,,,,,,,,,,,,,,,,,,
,,,,,FALL23_089,22,Male,2024-01-23_13h17.41.709,jersey_experiment_5,2023.2.2,Win32,60.24096386,,,,,,,,,,,,,,,,643.0344,644.8327,644.8327,647.2635,return,0.5484,,64.453125,,,,,,FBP-RB-81.png,0.45,1.2,25,1,0,58,58,24,1,,,,,,,,,,,,,,,,,,,,,,,,,,,,,,,,,,,,,,,,
,,,,,FALL23_089,22,Male,2024-01-23_13h17.41.709,jersey_experiment_5,2023.2.2,Win32,60.24096386,,,,,,,,,,,,,,,,647.2637,648.5646,648.5646,653.8631,return,0.216299999,,43.22916667,,,,,,FBP-OG-19.png,0.37,1.2,12,0.5,0,59,59,11,1,,,,,,,,,,,,,,,,,,,,,,,,,,,,,,,,,,,,,,,,
,,,,,FALL23_089,22,Male,2024-01-23_13h17.41.709,jersey_experiment_5,2023.2.2,Win32,60.24096386,,,,,,,,,,,,,,,,,,,,,,,,,,,,,,,,,,,,,,,653.8635,773.8735,,,,,,,,,,,,,,,,,,,,,,,,,,,,,,,,,,,,,,
,,,,,FALL23_089,22,Male,2024-01-23_13h17.41.709,jersey_experiment_5,2023.2.2,Win32,60.24096386,,,,,,,,,,,,,,,,,,,,,,,,,,,,,,,,,,,,,,,,,773.8735,780.9045,return,7.0144,,,,,,,,,,,,,,,,,,,,,,,,,,,,,,,,,,
,,,,,FALL23_089,22,Male,2024-01-23_13h17.41.709,jersey_experiment_5,2023.2.2,Win32,60.24096386,,,,,,,,,,,,,,,,780.9105,782.2039,782.2039,786.9026,return,1.9833,,49.47916667,,,,,,FBP-RB-17.png,0.37,1.2,17,0.5,,,,,,,,,,,,,0,0,0,16,1,,,,,,,,,,,,,,,,,,,,,,,,,,,,
,,,,,FALL23_089,22,Male,2024-01-23_13h17.41.709,jersey_experiment_5,2023.2.2,Win32,60.24096386,,,,,,,,,,,,,,,,786.903,788.1968,788.1968,789.4516,return,0.2003,,59.89583333,,,,,,FBP-YG-71.png,0.4,1.2,33,0.5,,,,,,,,,,,,,0,1,1,32,1,,,,,,,,,,,,,,,,,,,,,,,,,,,,
,,,,,FALL23_089,22,Male,2024-01-23_13h17.41.709,jersey_experiment_5,2023.2.2,Win32,60.24096386,,,,,,,,,,,,,,,,789.4517,791.2509,791.2509,792.8503,return,0.883400001,,62.109375,,,,,,FBP-OG-91.png,0.43,1.2,14,1,,,,,,,,,,,,,0,2,2,13,1,,,,,,,,,,,,,,,,,,,,,,,,,,,,
,,,,,FALL23_089,22,Male,2024-01-23_13h17.41.709,jersey_experiment_5,2023.2.2,Win32,60.24096386,,,,,,,,,,,,,,,,792.8505,794.6499,794.65,795.9326,return,0.1017,,42.70833333,,,,,,FBP-OG-71.png,0.4,1.2,3,1,,,,,,,,,,,,,0,3,3,2,1,,,,,,,,,,,,,,,,,,,,,,,,,,,,
,,,,,FALL23_089,22,Male,2024-01-23_13h17.41.709,jersey_experiment_5,2023.2.2,Win32,60.24096386,,,,,,,,,,,,,,,,795.9327,797.7307,797.7307,799.5263,return,0.1511,,45.44270833,,,,,,FBP-PT-17.png,0.37,1.2,47,1,,,,,,,,,,,,,0,4,4,46,1,,,,,,,,,,,,,,,,,,,,,,,,,,,,
,,,,,FALL23_089,22,Male,2024-01-23_13h17.41.709,jersey_experiment_5,2023.2.2,Win32,60.24096386,,,,,,,,,,,,,,,,799.5264,800.8145,800.8145,802.292,return,0.4037,,76.30208333,,,,,,FBP-RB-18.png,0.45,1.2,25,0.5,,,,,,,,,,,,,0,5,5,24,1,,,,,,,,,,,,,,,,,,,,,,,,,,,,
,,,,,FALL23_089,22,Male,2024-01-23_13h17.41.709,jersey_experiment_5,2023.2.2,Win32,60.24096386,,,,,,,,,,,,,,,,802.2923,804.0916,804.0916,807.9622,return,1.1666,,35.28645833,,,,,,FBP-PT-18.png,0.35,1.2,51,1,,,,,,,,,,,,,0,6,6,50,1,,,,,,,,,,,,,,,,,,,,,,,,,,,,
,,,,,FALL23_089,22,Male,2024-01-23_13h17.41.709,jersey_experiment_5,2023.2.2,Win32,60.24096386,,,,,,,,,,,,,,,,807.9623,809.2615,809.2616,811.1281,return,0.1672,,66.40625,,,,,,FBP-YG-81.png,0.4,1.2,38,0.5,,,,,,,,,,,,,0,7,7,37,1,,,,,,,,,,,,,,,,,,,,,,,,,,,,
,,,,,FALL23_089,22,Male,2024-01-23_13h17.41.709,jersey_experiment_5,2023.2.2,Win32,60.24096386,,,,,,,,,,,,,,,,811.1283,812.9218,812.9218,814.3434,return,0.349900001,,25.26041667,,,,,,FBP-PT-17.png,0.35,1.2,46,1,,,,,,,,,,,,,0,8,8,45,1,,,,,,,,,,,,,,,,,,,,,,,,,,,,
,,,,,FALL23_089,22,Male,2024-01-23_13h17.41.709,jersey_experiment_5,2023.2.2,Win32,60.24096386,,,,,,,,,,,,,,,,814.3436,815.6431,815.6431,817.6923,return,0.417,,72.52604167,,,,,,FBP-RB-17.png,0.4,1.2,18,0.5,,,,,,,,,,,,,0,9,9,17,1,,,,,,,,,,,,,,,,,,,,,,,,,,,,
,,,,,FALL23_089,22,Male,2024-01-23_13h17.41.709,jersey_experiment_5,2023.2.2,Win32,60.24096386,,,,,,,,,,,,,,,,817.6925,819.4914,819.4915,822.5074,return,0.1669,,66.53645833,,,,,,FBP-OG-81.png,0.4,1.2,8,1,,,,,,,,,,,,,0,10,10,7,1,,,,,,,,,,,,,,,,,,,,,,,,,,,,
,,,,,FALL23_089,22,Male,2024-01-23_13h17.41.709,jersey_experiment_5,2023.2.2,Win32,60.24096386,,,,,,,,,,,,,,,,822.5076,824.3068,824.3069,825.6896,return,0.2668,,76.04166667,,,,,,FBP-PT-17.png,0.45,1.2,50,1,,,,,,,,,,,,,0,11,11,49,1,,,,,,,,,,,,,,,,,,,,,,,,,,,,
,,,,,FALL23_089,22,Male,2024-01-23_13h17.41.709,jersey_experiment_5,2023.2.2,Win32,60.24096386,,,,,,,,,,,,,,,,825.6898,826.9889,826.9889,828.7217,return,0.099400001,,76.43229167,,,,,,FBP-YG-71.png,0.43,1.2,34,0.5,,,,,,,,,,,,,0,12,12,33,1,,,,,,,,,,,,,,,,,,,,,,,,,,,,
,,,,,FALL23_089,22,Male,2024-01-23_13h17.41.709,jersey_experiment_5,2023.2.2,Win32,60.24096386,,,,,,,,,,,,,,,,828.7218,830.0213,830.0213,831.6711,return,0.1841,,78.25520833,,,,,,FBP-RB-17.png,0.45,1.2,20,0.5,,,,,,,,,,,,,0,13,13,19,1,,,,,,,,,,,,,,,,,,,,,,,,,,,,
,,,,,FALL23_089,22,Male,2024-01-23_13h17.41.709,jersey_experiment_5,2023.2.2,Win32,60.24096386,,,,,,,,,,,,,,,,831.6713,832.9653,832.9653,834.3202,return,0.200200001,,86.19791667,,,,,,FBP-RB-17.png,0.43,1.2,19,0.5,,,,,,,,,,,,,0,14,14,18,1,,,,,,,,,,,,,,,,,,,,,,,,,,,,
,,,,,FALL23_089,22,Male,2024-01-23_13h17.41.709,jersey_experiment_5,2023.2.2,Win32,60.24096386,,,,,,,,,,,,,,,,834.3203,836.1194,836.1194,838.3687,return,0.250099999,,43.09895833,,,,,,FBP-PT-19.png,0.35,1.2,56,1,,,,,,,,,,,,,0,15,15,55,1,,,,,,,,,,,,,,,,,,,,,,,,,,,,
,,,,,FALL23_089,22,Male,2024-01-23_13h17.41.709,jersey_experiment_5,2023.2.2,Win32,60.24096386,,,,,,,,,,,,,,,,838.3688,839.6631,839.6631,841.6789,return,0.2921,,77.99479167,,,,,,FBP-YG-91.png,0.45,1.2,45,0.5,,,,,,,,,,,,,0,16,16,44,1,,,,,,,,,,,,,,,,,,,,,,,,,,,,
,,,,,FALL23_089,22,Male,2024-01-23_13h17.41.709,jersey_experiment_5,2023.2.2,Win32,60.24096386,,,,,,,,,,,,,,,,841.6791,843.467,843.467,845.0665,return,0.567,,69.140625,,,,,,FBP-OG-91.png,0.4,1.2,13,1,,,,,,,,,,,,,0,17,17,12,1,,,,,,,,,,,,,,,,,,,,,,,,,,,,
,,,,,FALL23_089,22,Male,2024-01-23_13h17.41.709,jersey_experiment_5,2023.2.2,Win32,60.24096386,,,,,,,,,,,,,,,,845.0667,846.3608,846.3609,847.6992,return,0.116900001,,63.15104167,,,,,,FBP-RB-17.png,0.35,1.2,16,0.5,,,,,,,,,,,,,0,18,18,15,1,,,,,,,,,,,,,,,,,,,,,,,,,,,,
,,,,,FALL23_089,22,Male,2024-01-23_13h17.41.709,jersey_experiment_5,2023.2.2,Win32,60.24096386,,,,,,,,,,,,,,,,847.6994,849.4932,849.4932,851.3644,return,0.2667,,75.390625,,,,,,FBP-OG-71.png,0.43,1.2,4,1,,,,,,,,,,,,,0,19,19,3,1,,,,,,,,,,,,,,,,,,,,,,,,,,,,
,,,,,FALL23_089,22,Male,2024-01-23_13h17.41.709,jersey_experiment_5,2023.2.2,Win32,60.24096386,,,,,,,,,,,,,,,,851.3645,853.1641,853.1641,854.1416,return,0.144900001,,79.55729167,,,,,,FBP-PT-19.png,0.43,1.2,59,1,,,,,,,,,,,,,0,20,20,58,1,,,,,,,,,,,,,,,,,,,,,,,,,,,,
,,,,,FALL23_089,22,Male,2024-01-23_13h17.41.709,jersey_experiment_5,2023.2.2,Win32,60.24096386,,,,,,,,,,,,,,,,854.1418,855.9461,855.9461,857.2792,return,0.2835,,73.4375,,,,,,FBP-OG-81.png,0.43,1.2,9,1,,,,,,,,,,,,,0,21,21,8,1,,,,,,,,,,,,,,,,,,,,,,,,,,,,
,,,,,FALL23_089,22,Male,2024-01-23_13h17.41.709,jersey_experiment_5,2023.2.2,Win32,60.24096386,,,,,,,,,,,,,,,,857.2793,858.5736,858.5736,860.4618,return,0.2007,,88.80208333,,,,,,FBP-RB-19.png,0.45,1.2,30,0.5,,,,,,,,,,,,,0,22,22,29,1,,,,,,,,,,,,,,,,,,,,,,,,,,,,
,,,,,FALL23_089,22,Male,2024-01-23_13h17.41.709,jersey_experiment_5,2023.2.2,Win32,60.24096386,,,,,,,,,,,,,,,,860.4619,861.7558,861.7558,865.6595,return,1.301200001,,65.49479167,,,,,,FBP-RB-19.png,0.4,1.2,28,0.5,,,,,,,,,,,,,0,23,23,27,1,,,,,,,,,,,,,,,,,,,,,,,,,,,,
,,,,,FALL23_089,22,Male,2024-01-23_13h17.41.709,jersey_experiment_5,2023.2.2,Win32,60.24096386,,,,,,,,,,,,,,,,865.6597,867.4591,867.4591,869.3418,return,0.266799999,,75.91145833,,,,,,FBP-PT-18.png,0.45,1.2,55,1,,,,,,,,,,,,,0,24,24,54,1,,,,,,,,,,,,,,,,,,,,,,,,,,,,
,,,,,FALL23_089,22,Male,2024-01-23_13h17.41.709,jersey_experiment_5,2023.2.2,Win32,60.24096386,,,,,,,,,,,,,,,,869.342,871.136,871.136,875.2565,return,0.317,,42.70833333,,,,,,FBP-OG-91.png,0.35,1.2,11,1,,,,,,,,,,,,,0,25,25,10,1,,,,,,,,,,,,,,,,,,,,,,,,,,,,
,,,,,FALL23_089,22,Male,2024-01-23_13h17.41.709,jersey_experiment_5,2023.2.2,Win32,60.24096386,,,,,,,,,,,,,,,,875.2567,877.0555,877.0556,880.9882,return,1.3332,,66.40625,,,,,,FBP-PT-17.png,0.4,1.2,48,1,,,,,,,,,,,,,0,26,26,47,1,,,,,,,,,,,,,,,,,,,,,,,,,,,,
,,,,,FALL23_089,22,Male,2024-01-23_13h17.41.709,jersey_experiment_5,2023.2.2,Win32,60.24096386,,,,,,,,,,,,,,,,880.9884,882.2824,882.2824,885.3034,return,0.3001,,27.08333333,,,,,,FBP-YG-91.png,0.35,1.2,41,0.5,,,,,,,,,,,,,0,27,27,40,1,,,,,,,,,,,,,,,,,,,,,,,,,,,,
,,,,,FALL23_089,22,Male,2024-01-23_13h17.41.709,jersey_experiment_5,2023.2.2,Win32,60.24096386,,,,,,,,,,,,,,,,885.3035,887.1029,887.103,888.9134,return,0.873,,74.08854167,,,,,,FBP-PT-19.png,0.4,1.2,58,1,,,,,,,,,,,,,0,28,28,57,1,,,,,,,,,,,,,,,,,,,,,,,,,,,,
,,,,,FALL23_089,22,Male,2024-01-23_13h17.41.709,jersey_experiment_5,2023.2.2,Win32,60.24096386,,,,,,,,,,,,,,,,888.9136,890.7013,890.7013,892.3842,return,0.4667,,78.125,,,,,,FBP-OG-91.png,0.45,1.2,15,1,,,,,,,,,,,,,0,29,29,14,1,,,,,,,,,,,,,,,,,,,,,,,,,,,,
,,,,,FALL23_089,22,Male,2024-01-23_13h17.41.709,jersey_experiment_5,2023.2.2,Win32,60.24096386,,,,,,,,,,,,,,,,892.3844,893.6838,893.6838,896.3331,return,1.2668,,67.578125,,,,,,FBP-YG-71.png,0.35,1.2,31,0.5,,,,,,,,,,,,,0,30,30,30,1,,,,,,,,,,,,,,,,,,,,,,,,,,,,
,,,,,FALL23_089,22,Male,2024-01-23_13h17.41.709,jersey_experiment_5,2023.2.2,Win32,60.24096386,,,,,,,,,,,,,,,,896.3333,897.6273,897.6273,901.3759,return,0.340900001,,64.58333333,,,,,,FBP-YG-81.png,0.43,1.2,39,0.5,,,,,,,,,,,,,0,31,31,38,1,,,,,,,,,,,,,,,,,,,,,,,,,,,,
,,,,,FALL23_089,22,Male,2024-01-23_13h17.41.709,jersey_experiment_5,2023.2.2,Win32,60.24096386,,,,,,,,,,,,,,,,901.3761,902.6756,902.6756,904.9747,return,0.1588,,59.11458333,,,,,,FBP-RB-19.png,0.37,1.2,27,0.5,,,,,,,,,,,,,0,32,32,26,1,,,,,,,,,,,,,,,,,,,,,,,,,,,,
,,,,,FALL23_089,22,Male,2024-01-23_13h17.41.709,jersey_experiment_5,2023.2.2,Win32,60.24096386,,,,,,,,,,,,,,,,904.975,906.2627,906.2627,907.1629,return,0.1172,,75.13020833,,,,,,FBP-YG-81.png,0.45,1.2,40,0.5,,,,,,,,,,,,,0,33,33,39,1,,,,,,,,,,,,,,,,,,,,,,,,,,,,
,,,,,FALL23_089,22,Male,2024-01-23_13h17.41.709,jersey_experiment_5,2023.2.2,Win32,60.24096386,,,,,,,,,,,,,,,,907.1631,908.9568,908.9569,910.1449,return,0.3334,,79.81770833,,,,,,FBP-OG-81.png,0.45,1.2,10,1,,,,,,,,,,,,,0,34,34,9,1,,,,,,,,,,,,,,,,,,,,,,,,,,,,
,,,,,FALL23_089,22,Male,2024-01-23_13h17.41.709,jersey_experiment_5,2023.2.2,Win32,60.24096386,,,,,,,,,,,,,,,,910.145,911.9442,911.9442,913.3108,return,0.4001,,80.72916667,,,,,,FBP-PT-19.png,0.45,1.2,60,1,,,,,,,,,,,,,0,35,35,59,1,,,,,,,,,,,,,,,,,,,,,,,,,,,,
,,,,,FALL23_089,22,Male,2024-01-23_13h17.41.709,jersey_experiment_5,2023.2.2,Win32,60.24096386,,,,,,,,,,,,,,,,913.3109,915.1099,915.1099,916.3709,return,0.3048,,85.41666667,,,,,,FBP-PT-18.png,0.43,1.2,54,1,,,,,,,,,,,,,0,36,36,53,1,,,,,,,,,,,,,,,,,,,,,,,,,,,,
,,,,,FALL23_089,22,Male,2024-01-23_13h17.41.709,jersey_experiment_5,2023.2.2,Win32,60.24096386,,,,,,,,,,,,,,,,916.3712,918.1705,918.1705,921.2246,return,0.4833,,49.73958333,,,,,,FBP-OG-91.png,0.37,1.2,12,1,,,,,,,,,,,,,0,37,37,11,1,,,,,,,,,,,,,,,,,,,,,,,,,,,,
,,,,,FALL23_089,22,Male,2024-01-23_13h17.41.709,jersey_experiment_5,2023.2.2,Win32,60.24096386,,,,,,,,,,,,,,,,921.2248,922.5238,922.5238,924.535,return,0.201,,44.79166667,,,,,,FBP-YG-71.png,0.37,1.2,32,0.5,,,,,,,,,,,,,0,38,38,31,1,,,,,,,,,,,,,,,,,,,,,,,,,,,,
,,,,,FALL23_089,22,Male,2024-01-23_13h17.41.709,jersey_experiment_5,2023.2.2,Win32,60.24096386,,,,,,,,,,,,,,,,924.5351,925.8346,925.8347,930.0332,return,0.340099999,,71.61458333,,,,,,FBP-RB-18.png,0.4,1.2,23,0.5,,,,,,,,,,,,,0,39,39,22,1,,,,,,,,,,,,,,,,,,,,,,,,,,,,
,,,,,FALL23_089,22,Male,2024-01-23_13h17.41.709,jersey_experiment_5,2023.2.2,Win32,60.24096386,,,,,,,,,,,,,,,,930.0334,931.8213,931.8213,934.587,return,0.4002,,26.69270833,,,,,,FBP-OG-81.png,0.37,1.2,7,1,,,,,,,,,,,,,0,40,40,6,1,,,,,,,,,,,,,,,,,,,,,,,,,,,,
,,,,,FALL23_089,22,Male,2024-01-23_13h17.41.709,jersey_experiment_5,2023.2.2,Win32,60.24096386,,,,,,,,,,,,,,,,934.5872,935.8813,935.8813,941.0017,return,0.267,,49.08854167,,,,,,FBP-YG-91.png,0.4,1.2,43,0.5,,,,,,,,,,,,,0,41,41,42,1,,,,,,,,,,,,,,,,,,,,,,,,,,,,
,,,,,FALL23_089,22,Male,2024-01-23_13h17.41.709,jersey_experiment_5,2023.2.2,Win32,60.24096386,,,,,,,,,,,,,,,,941.0018,942.7957,942.7957,946,return,0.8667,,66.14583333,,,,,,FBP-OG-71.png,0.45,1.2,5,1,,,,,,,,,,,,,0,42,42,4,1,,,,,,,,,,,,,,,,,,,,,,,,,,,,
,,,,,FALL23_089,22,Male,2024-01-23_13h17.41.709,jersey_experiment_5,2023.2.2,Win32,60.24096386,,,,,,,,,,,,,,,,946.0002,947.2976,947.2976,948.7822,return,0.6164,,65.36458333,,,,,,FBP-YG-91.png,0.43,1.2,44,0.5,,,,,,,,,,,,,0,43,43,43,1,,,,,,,,,,,,,,,,,,,,,,,,,,,,
,,,,,FALL23_089,22,Male,2024-01-23_13h17.41.709,jersey_experiment_5,2023.2.2,Win32,60.24096386,,,,,,,,,,,,,,,,948.7824,950.5816,950.5817,952.7589,return,0.9186,,42.05729167,,,,,,FBP-PT-19.png,0.37,1.2,57,1,,,,,,,,,,,,,0,44,44,56,1,,,,,,,,,,,,,,,,,,,,,,,,,,,,
,,,,,FALL23_089,22,Male,2024-01-23_13h17.41.709,jersey_experiment_5,2023.2.2,Win32,60.24096386,,,,,,,,,,,,,,,,952.7591,954.0587,954.0587,955.4135,return,0.317,,40.88541667,,,,,,FBP-YG-91.png,0.37,1.2,42,0.5,,,,,,,,,,,,,0,45,45,41,1,,,,,,,,,,,,,,,,,,,,,,,,,,,,
,,,,,FALL23_089,22,Male,2024-01-23_13h17.41.709,jersey_experiment_5,2023.2.2,Win32,60.24096386,,,,,,,,,,,,,,,,955.4137,956.7127,956.7127,959.062,return,0.7331,,46.875,,,,,,FBP-RB-18.png,0.37,1.2,22,0.5,,,,,,,,,,,,,0,46,46,21,1,,,,,,,,,,,,,,,,,,,,,,,,,,,,
,,,,,FALL23_089,22,Male,2024-01-23_13h17.41.709,jersey_experiment_5,2023.2.2,Win32,60.24096386,,,,,,,,,,,,,,,,959.0622,960.3617,960.3617,961.8281,return,0.250200001,,50.78125,,,,,,FBP-RB-19.png,0.35,1.2,26,0.5,,,,,,,,,,,,,0,47,47,25,1,,,,,,,,,,,,,,,,,,,,,,,,,,,,
,,,,,FALL23_089,22,Male,2024-01-23_13h17.41.709,jersey_experiment_5,2023.2.2,Win32,60.24096386,,,,,,,,,,,,,,,,961.8282,963.6274,963.6274,964.827,return,0.217,,70.703125,,,,,,FBP-PT-17.png,0.43,1.2,49,1,,,,,,,,,,,,,0,48,48,48,1,,,,,,,,,,,,,,,,,,,,,,,,,,,,
,,,,,FALL23_089,22,Male,2024-01-23_13h17.41.709,jersey_experiment_5,2023.2.2,Win32,60.24096386,,,,,,,,,,,,,,,,964.8271,966.6265,966.6265,968.3539,return,0.8403,,66.66666667,,,,,,FBP-PT-18.png,0.37,1.2,52,1,,,,,,,,,,,,,0,49,49,51,1,,,,,,,,,,,,,,,,,,,,,,,,,,,,
,,,,,FALL23_089,22,Male,2024-01-23_13h17.41.709,jersey_experiment_5,2023.2.2,Win32,60.24096386,,,,,,,,,,,,,,,,968.3541,970.1533,970.1534,971.7195,return,0.17,,73.69791667,,,,,,FBP-OG-71.png,0.37,1.2,2,1,,,,,,,,,,,,,0,50,50,1,1,,,,,,,,,,,,,,,,,,,,,,,,,,,,
,,,,,FALL23_089,22,Male,2024-01-23_13h17.41.709,jersey_experiment_5,2023.2.2,Win32,60.24096386,,,,,,,,,,,,,,,,971.7196,973.5242,973.5242,975.29,return,0.2501,,52.47395833,,,,,,FBP-OG-81.png,0.35,1.2,6,1,,,,,,,,,,,,,0,51,51,5,1,,,,,,,,,,,,,,,,,,,,,,,,,,,,
,,,,,FALL23_089,22,Male,2024-01-23_13h17.41.709,jersey_experiment_5,2023.2.2,Win32,60.24096386,,,,,,,,,,,,,,,,975.2902,976.5896,976.5896,978.3392,return,0.2167,,75.91145833,,,,,,FBP-RB-19.png,0.43,1.2,29,0.5,,,,,,,,,,,,,0,52,52,28,1,,,,,,,,,,,,,,,,,,,,,,,,,,,,
,,,,,FALL23_089,22,Male,2024-01-23_13h17.41.709,jersey_experiment_5,2023.2.2,Win32,60.24096386,,,,,,,,,,,,,,,,978.3393,979.6384,979.6384,981.355,return,0.217099999,,39.84375,,,,,,FBP-RB-18.png,0.35,1.2,21,0.5,,,,,,,,,,,,,0,53,53,20,1,,,,,,,,,,,,,,,,,,,,,,,,,,,,
,,,,,FALL23_089,22,Male,2024-01-23_13h17.41.709,jersey_experiment_5,2023.2.2,Win32,60.24096386,,,,,,,,,,,,,,,,981.3551,982.6542,982.6542,984.2871,return,0.3167,,39.71354167,,,,,,FBP-YG-81.png,0.35,1.2,36,0.5,,,,,,,,,,,,,0,54,54,35,1,,,,,,,,,,,,,,,,,,,,,,,,,,,,
,,,,,FALL23_089,22,Male,2024-01-23_13h17.41.709,jersey_experiment_5,2023.2.2,Win32,60.24096386,,,,,,,,,,,,,,,,984.2874,985.5816,985.5816,987.8524,return,0.266799999,,73.30729167,,,,,,FBP-YG-71.png,0.45,1.2,35,0.5,,,,,,,,,,,,,0,55,55,34,1,,,,,,,,,,,,,,,,,,,,,,,,,,,,
,,,,,FALL23_089,22,Male,2024-01-23_13h17.41.709,jersey_experiment_5,2023.2.2,Win32,60.24096386,,,,,,,,,,,,,,,,987.8526,989.147,989.147,992.0459,return,0.7933,,70.57291667,,,,,,FBP-RB-18.png,0.43,1.2,24,0.5,,,,,,,,,,,,,0,56,56,23,1,,,,,,,,,,,,,,,,,,,,,,,,,,,,
,,,,,FALL23_089,22,Male,2024-01-23_13h17.41.709,jersey_experiment_5,2023.2.2,Win32,60.24096386,,,,,,,,,,,,,,,,992.0461,993.8339,993.8339,995.5834,return,0.3335,,25.52083333,,,,,,FBP-OG-71.png,0.35,1.2,1,1,,,,,,,,,,,,,0,57,57,0,1,,,,,,,,,,,,,,,,,,,,,,,,,,,,
,,,,,FALL23_089,22,Male,2024-01-23_13h17.41.709,jersey_experiment_5,2023.2.2,Win32,60.24096386,,,,,,,,,,,,,,,,995.5835,996.8779,996.8779,998.699,return,0.35,,73.17708333,,,,,,FBP-YG-81.png,0.37,1.2,37,0.5,,,,,,,,,,,,,0,58,58,36,1,,,,,,,,,,,,,,,,,,,,,,,,,,,,
,,,,,FALL23_089,22,Male,2024-01-23_13h17.41.709,jersey_experiment_5,2023.2.2,Win32,60.24096386,,,,,,,,,,,,,,,,998.6992,1000.4983,1000.4983,1001.5317,return,0.1005,,70.18229167,,,,,,FBP-PT-18.png,0.4,1.2,53,1,,,,,,,,,,,,,0,59,59,52,1,,,,,,,,,,,,,,,,,,,,,,,,,,,,
,,,,,FALL23_089,22,Male,2024-01-23_13h17.41.709,jersey_experiment_5,2023.2.2,Win32,60.24096386,,,,,,,,,,,,,,,,1001.5337,1002.826,1002.826,1004.447,return,0.2835,,72.78645833,,,,,,FBP-YG-19.png,0.43,1.2,44,0.5,,,,,,,,,,,,,,,,,,0,0,0,43,1,,,,,,,,,,,,,,,,,,,,,,,
,,,,,FALL23_089,22,Male,2024-01-23_13h17.41.709,jersey_experiment_5,2023.2.2,Win32,60.24096386,,,,,,,,,,,,,,,,1004.4473,1005.7415,1005.7415,1007.4296,return,0.3998,,57.68229167,,,,,,FBP-RB-81.png,0.37,1.2,22,0.5,,,,,,,,,,,,,,,,,,0,1,1,21,1,,,,,,,,,,,,,,,,,,,,,,,
,,,,,FALL23_089,22,Male,2024-01-23_13h17.41.709,jersey_experiment_5,2023.2.2,Win32,60.24096386,,,,,,,,,,,,,,,,1007.4297,1008.7292,1008.7293,1010.2621,return,0.218400001,,39.0625,,,,,,FBP-YG-18.png,0.37,1.2,37,0.5,,,,,,,,,,,,,,,,,,0,2,2,36,1,,,,,,,,,,,,,,,,,,,,,,,
,,,,,FALL23_089,22,Male,2024-01-23_13h17.41.709,jersey_experiment_5,2023.2.2,Win32,60.24096386,,,,,,,,,,,,,,,,1010.2622,1012.0612,1012.0613,1012.8283,return,0.1836,,22.78645833,,,,,,FBP-PT-91.png,0.35,1.2,56,1,,,,,,,,,,,,,,,,,,0,3,3,55,1,,,,,,,,,,,,,,,,,,,,,,,
,,,,,FALL23_089,22,Male,2024-01-23_13h17.41.709,jersey_experiment_5,2023.2.2,Win32,60.24096386,,,,,,,,,,,,,,,,1012.8284,1014.6272,1014.6272,1015.9768,return,0.101900001,,28.125,,,,,,FBP-PT-91.png,0.37,1.2,57,1,,,,,,,,,,,,,,,,,,0,4,4,56,1,,,,,,,,,,,,,,,,,,,,,,,
,,,,,FALL23_089,22,Male,2024-01-23_13h17.41.709,jersey_experiment_5,2023.2.2,Win32,60.24096386,,,,,,,,,,,,,,,,1015.977,1017.2711,1017.2711,1019.9089,return,0.466900001,,35.28645833,,,,,,FBP-RB-81.png,0.35,1.2,21,0.5,,,,,,,,,,,,,,,,,,0,5,5,20,1,,,,,,,,,,,,,,,,,,,,,,,
,,,,,FALL23_089,22,Male,2024-01-23_13h17.41.709,jersey_experiment_5,2023.2.2,Win32,60.24096386,,,,,,,,,,,,,,,,1019.909,1021.203,1021.203,1023.041,return,0.1667,,68.75,,,,,,FBP-RB-81.png,0.45,1.2,25,0.5,,,,,,,,,,,,,,,,,,0,6,6,24,1,,,,,,,,,,,,,,,,,,,,,,,
,,,,,FALL23_089,22,Male,2024-01-23_13h17.41.709,jersey_experiment_5,2023.2.2,Win32,60.24096386,,,,,,,,,,,,,,,,1023.0412,1024.3355,1024.3355,1025.9902,return,0.216900001,,69.27083333,,,,,,FBP-YG-19.png,0.45,1.2,45,0.5,,,,,,,,,,,,,,,,,,0,7,7,44,1,,,,,,,,,,,,,,,,,,,,,,,
,,,,,FALL23_089,22,Male,2024-01-23_13h17.41.709,jersey_experiment_5,2023.2.2,Win32,60.24096386,,,,,,,,,,,,,,,,1025.9904,1027.7895,1027.7895,1030.1888,return,0.2018,,31.25,,,,,,FBP-PT-91.png,0.4,1.2,58,1,,,,,,,,,,,,,,,,,,0,8,8,57,1,,,,,,,,,,,,,,,,,,,,,,,
,,,,,FALL23_089,22,Male,2024-01-23_13h17.41.709,jersey_experiment_5,2023.2.2,Win32,60.24096386,,,,,,,,,,,,,,,,1030.1889,1031.9829,1031.9829,1035.0523,return,0.4155,,38.15104167,,,,,,FBP-OG-18.png,0.35,1.2,6,1,,,,,,,,,,,,,,,,,,0,9,9,5,1,,,,,,,,,,,,,,,,,,,,,,,
,,,,,FALL23_089,22,Male,2024-01-23_13h17.41.709,jersey_experiment_5,2023.2.2,Win32,60.24096386,,,,,,,,,,,,,,,,1035.0524,1036.3532,1036.3532,1041.9349,return,3.7325,,63.15104167,,,,,,FBP-RB-71.png,0.37,1.2,17,0.5,,,,,,,,,,,,,,,,,,0,10,10,16,1,,,,,,,,,,,,,,,,,,,,,,,
,,,,,FALL23_089,22,Male,2024-01-23_13h17.41.709,jersey_experiment_5,2023.2.2,Win32,60.24096386,,,,,,,,,,,,,,,,1041.935,1043.7289,1043.7289,1046.8779,return,1.4928,,26.171875,,,,,,FBP-OG-17.png,0.35,1.2,1,1,,,,,,,,,,,,,,,,,,0,11,11,0,1,,,,,,,,,,,,,,,,,,,,,,,
,,,,,FALL23_089,22,Male,2024-01-23_13h17.41.709,jersey_experiment_5,2023.2.2,Win32,60.24096386,,,,,,,,,,,,,,,,1046.8781,1048.1774,1048.1775,1050.6319,return,1,,69.79166667,,,,,,FBP-RB-91.png,0.45,1.2,30,0.5,,,,,,,,,,,,,,,,,,0,12,12,29,1,,,,,,,,,,,,,,,,,,,,,,,
,,,,,FALL23_089,22,Male,2024-01-23_13h17.41.709,jersey_experiment_5,2023.2.2,Win32,60.24096386,,,,,,,,,,,,,,,,1050.6321,1052.426,1052.426,1057.2799,return,1.983099999,,55.98958333,,,,,,FBP-PT-81.png,0.45,1.2,55,1,,,,,,,,,,,,,,,,,,0,13,13,54,1,,,,,,,,,,,,,,,,,,,,,,,
,,,,,FALL23_089,22,Male,2024-01-23_13h17.41.709,jersey_experiment_5,2023.2.2,Win32,60.24096386,,,,,,,,,,,,,,,,1057.2801,1059.074,1059.074,1060.9787,return,0.6835,,74.609375,,,,,,FBP-OG-19.png,0.43,1.2,14,1,,,,,,,,,,,,,,,,,,0,14,14,13,1,,,,,,,,,,,,,,,,,,,,,,,
,,,,,FALL23_089,22,Male,2024-01-23_13h17.41.709,jersey_experiment_5,2023.2.2,Win32,60.24096386,,,,,,,,,,,,,,,,1060.9789,1062.7778,1062.7778,1064.2614,return,0.1673,,55.46875,,,,,,FBP-OG-19.png,0.37,1.2,12,1,,,,,,,,,,,,,,,,,,0,15,15,11,1,,,,,,,,,,,,,,,,,,,,,,,
,,,,,FALL23_089,22,Male,2024-01-23_13h17.41.709,jersey_experiment_5,2023.2.2,Win32,60.24096386,,,,,,,,,,,,,,,,1064.2615,1065.555,1065.555,1067.0933,return,0.1836,,27.08333333,,,,,,FBP-YG-18.png,0.35,1.2,36,0.5,,,,,,,,,,,,,,,,,,0,16,16,35,1,,,,,,,,,,,,,,,,,,,,,,,
,,,,,FALL23_089,22,Male,2024-01-23_13h17.41.709,jersey_experiment_5,2023.2.2,Win32,60.24096386,,,,,,,,,,,,,,,,1067.0935,1068.3876,1068.3876,1070.1089,return,0.266799999,,68.61979167,,,,,,FBP-YG-18.png,0.4,1.2,38,0.5,,,,,,,,,,,,,,,,,,0,17,17,37,1,,,,,,,,,,,,,,,,,,,,,,,
,,,,,FALL23_089,22,Male,2024-01-23_13h17.41.709,jersey_experiment_5,2023.2.2,Win32,60.24096386,,,,,,,,,,,,,,,,1070.1089,1071.4032,1071.4032,1073.2244,return,0.3182,,28.64583333,,,,,,FBP-RB-71.png,0.35,1.2,16,0.5,,,,,,,,,,,,,,,,,,0,18,18,15,1,,,,,,,,,,,,,,,,,,,,,,,
,,,,,FALL23_089,22,Male,2024-01-23_13h17.41.709,jersey_experiment_5,2023.2.2,Win32,60.24096386,,,,,,,,,,,,,,,,1073.2246,1075.0237,1075.0237,1076.1182,return,0.2017,,74.73958333,,,,,,FBP-PT-71.png,0.35,1.2,46,1,,,,,,,,,,,,,,,,,,0,19,19,45,1,,,,,,,,,,,,,,,,,,,,,,,
,,,,,FALL23_089,22,Male,2024-01-23_13h17.41.709,jersey_experiment_5,2023.2.2,Win32,60.24096386,,,,,,,,,,,,,,,,1076.1183,1077.4061,1077.4061,1078.6394,return,0.1335,,87.23958333,,,,,,FBP-YG-18.png,0.45,1.2,40,0.5,,,,,,,,,,,,,,,,,,0,20,20,39,1,,,,,,,,,,,,,,,,,,,,,,,
,,,,,FALL23_089,22,Male,2024-01-23_13h17.41.709,jersey_experiment_5,2023.2.2,Win32,60.24096386,,,,,,,,,,,,,,,,1078.6396,1080.4388,1080.4388,1081.1557,return,0.1673,,87.5,,,,,,FBP-OG-19.png,0.45,1.2,15,1,,,,,,,,,,,,,,,,,,0,21,21,14,1,,,,,,,,,,,,,,,,,,,,,,,
,,,,,FALL23_089,22,Male,2024-01-23_13h17.41.709,jersey_experiment_5,2023.2.2,Win32,60.24096386,,,,,,,,,,,,,,,,1081.1558,1082.4546,1082.4546,1083.6379,return,0.183799999,,83.07291667,,,,,,FBP-YG-17.png,0.45,1.2,35,0.5,,,,,,,,,,,,,,,,,,0,22,22,34,1,,,,,,,,,,,,,,,,,,,,,,,
,,,,,FALL23_089,22,Male,2024-01-23_13h17.41.709,jersey_experiment_5,2023.2.2,Win32,60.24096386,,,,,,,,,,,,,,,,1083.6381,1085.4371,1085.4372,1086.6149,return,0.384900001,,92.70833333,,,,,,FBP-OG-17.png,0.45,1.2,5,1,,,,,,,,,,,,,,,,,,0,23,23,4,1,,,,,,,,,,,,,,,,,,,,,,,
,,,,,FALL23_089,22,Male,2024-01-23_13h17.41.709,jersey_experiment_5,2023.2.2,Win32,60.24096386,,,,,,,,,,,,,,,,1086.6151,1088.4192,1088.4192,1089.1973,return,0.244,,75.78125,,,,,,FBP-OG-17.png,0.43,1.2,4,1,,,,,,,,,,,,,,,,,,0,24,24,3,1,,,,,,,,,,,,,,,,,,,,,,,
,,,,,FALL23_089,22,Male,2024-01-23_13h17.41.709,jersey_experiment_5,2023.2.2,Win32,60.24096386,,,,,,,,,,,,,,,,1089.1975,1090.497,1090.497,1093.2995,return,0.598299999,,28.38541667,,,,,,FBP-YG-19.png,0.35,1.2,41,0.5,,,,,,,,,,,,,,,,,,0,25,25,40,1,,,,,,,,,,,,,,,,,,,,,,,
,,,,,FALL23_089,22,Male,2024-01-23_13h17.41.709,jersey_experiment_5,2023.2.2,Win32,60.24096386,,,,,,,,,,,,,,,,1093.2997,1095.1007,1095.1007,1096.9318,return,0.165299999,,44.27083333,,,,,,FBP-OG-17.png,0.4,1.2,3,1,,,,,,,,,,,,,,,,,,0,26,26,2,1,,,,,,,,,,,,,,,,,,,,,,,
,,,,,FALL23_089,22,Male,2024-01-23_13h17.41.709,jersey_experiment_5,2023.2.2,Win32,60.24096386,,,,,,,,,,,,,,,,1096.9321,1098.7321,1098.7321,1100.5823,return,0.4168,,40.75520833,,,,,,FBP-PT-81.png,0.4,1.2,53,1,,,,,,,,,,,,,,,,,,0,27,27,52,1,,,,,,,,,,,,,,,,,,,,,,,
,,,,,FALL23_089,22,Male,2024-01-23_13h17.41.709,jersey_experiment_5,2023.2.2,Win32,60.24096386,,,,,,,,,,,,,,,,1100.5824,1102.3763,1102.3763,1104.4475,return,0.3018,,46.875,,,,,,FBP-PT-71.png,0.4,1.2,48,1,,,,,,,,,,,,,,,,,,0,28,28,47,1,,,,,,,,,,,,,,,,,,,,,,,
,,,,,FALL23_089,22,Male,2024-01-23_13h17.41.709,jersey_experiment_5,2023.2.2,Win32,60.24096386,,,,,,,,,,,,,,,,1104.4476,1106.2466,1106.2466,1107.6465,return,0.150299999,,42.578125,,,,,,FBP-PT-81.png,0.37,1.2,52,1,,,,,,,,,,,,,,,,,,0,29,29,51,1,,,,,,,,,,,,,,,,,,,,,,,
,,,,,FALL23_089,22,Male,2024-01-23_13h17.41.709,jersey_experiment_5,2023.2.2,Win32,60.24096386,,,,,,,,,,,,,,,,1107.6465,1109.4404,1109.4404,1110.9271,return,0.2321,,40.88541667,,,,,,FBP-OG-17.png,0.37,1.2,2,1,,,,,,,,,,,,,,,,,,0,30,30,1,1,,,,,,,,,,,,,,,,,,,,,,,
,,,,,FALL23_089,22,Male,2024-01-23_13h17.41.709,jersey_experiment_5,2023.2.2,Win32,60.24096386,,,,,,,,,,,,,,,,1110.9272,1112.7229,1112.723,1114.1758,return,0.4979,,68.48958333,,,,,,FBP-PT-71.png,0.45,1.2,50,1,,,,,,,,,,,,,,,,,,0,31,31,49,1,,,,,,,,,,,,,,,,,,,,,,,
,,,,,FALL23_089,22,Male,2024-01-23_13h17.41.709,jersey_experiment_5,2023.2.2,Win32,60.24096386,,,,,,,,,,,,,,,,1114.176,1115.9722,1115.9723,1116.86,return,0.2835,,79.296875,,,,,,FBP-PT-91.png,0.45,1.2,60,1,,,,,,,,,,,,,,,,,,0,32,32,59,1,,,,,,,,,,,,,,,,,,,,,,,
,,,,,FALL23_089,22,Male,2024-01-23_13h17.41.709,jersey_experiment_5,2023.2.2,Win32,60.24096386,,,,,,,,,,,,,,,,1116.86,1118.1595,1118.1595,1119.4541,return,0.0935,,79.81770833,,,,,,FBP-RB-71.png,0.45,1.2,20,0.5,,,,,,,,,,,,,,,,,,0,33,33,19,1,,,,,,,,,,,,,,,,,,,,,,,
,,,,,FALL23_089,22,Male,2024-01-23_13h17.41.709,jersey_experiment_5,2023.2.2,Win32,60.24096386,,,,,,,,,,,,,,,,1119.4543,1121.2585,1121.2585,1122.958,return,0.2165,,25.65104167,,,,,,FBP-PT-81.png,0.35,1.2,51,1,,,,,,,,,,,,,,,,,,0,34,34,50,1,,,,,,,,,,,,,,,,,,,,,,,
,,,,,FALL23_089,22,Male,2024-01-23_13h17.41.709,jersey_experiment_5,2023.2.2,Win32,60.24096386,,,,,,,,,,,,,,,,1122.9582,1124.2576,1124.2576,1126.0516,return,0.1375,,42.44791667,,,,,,FBP-RB-81.png,0.4,1.2,23,0.5,,,,,,,,,,,,,,,,,,0,35,35,22,1,,,,,,,,,,,,,,,,,,,,,,,
,,,,,FALL23_089,22,Male,2024-01-23_13h17.41.709,jersey_experiment_5,2023.2.2,Win32,60.24096386,,,,,,,,,,,,,,,,1126.0518,1127.3513,1127.3514,1129.6672,return,0.9712,,39.97395833,,,,,,FBP-YG-19.png,0.37,1.2,42,0.5,,,,,,,,,,,,,,,,,,0,36,36,41,1,,,,,,,,,,,,,,,,,,,,,,,
,,,,,FALL23_089,22,Male,2024-01-23_13h17.41.709,jersey_experiment_5,2023.2.2,Win32,60.24096386,,,,,,,,,,,,,,,,1129.6674,1130.9553,1130.9553,1132.705,return,0.2503,,63.02083333,,,,,,FBP-RB-91.png,0.4,1.2,28,0.5,,,,,,,,,,,,,,,,,,0,37,37,27,1,,,,,,,,,,,,,,,,,,,,,,,
,,,,,FALL23_089,22,Male,2024-01-23_13h17.41.709,jersey_experiment_5,2023.2.2,Win32,60.24096386,,,,,,,,,,,,,,,,1132.7052,1133.9992,1133.9992,1135.1207,return,0.3335,,63.54166667,,,,,,FBP-RB-81.png,0.43,1.2,24,0.5,,,,,,,,,,,,,,,,,,0,38,38,23,1,,,,,,,,,,,,,,,,,,,,,,,
,,,,,FALL23_089,22,Male,2024-01-23_13h17.41.709,jersey_experiment_5,2023.2.2,Win32,60.24096386,,,,,,,,,,,,,,,,1135.1208,1136.415,1136.415,1138.0978,return,0.222900001,,64.0625,,,,,,FBP-YG-17.png,0.4,1.2,33,0.5,,,,,,,,,,,,,,,,,,0,39,39,32,1,,,,,,,,,,,,,,,,,,,,,,,
,,,,,FALL23_089,22,Male,2024-01-23_13h17.41.709,jersey_experiment_5,2023.2.2,Win32,60.24096386,,,,,,,,,,,,,,,,1138.098,1139.3858,1139.3858,1141.2466,return,0.459299999,,67.31770833,,,,,,FBP-YG-18.png,0.43,1.2,39,0.5,,,,,,,,,,,,,,,,,,0,40,40,38,1,,,,,,,,,,,,,,,,,,,,,,,
,,,,,FALL23_089,22,Male,2024-01-23_13h17.41.709,jersey_experiment_5,2023.2.2,Win32,60.24096386,,,,,,,,,,,,,,,,1141.2469,1143.0515,1143.0515,1144.0009,return,0.234599999,,75.65104167,,,,,,FBP-PT-91.png,0.43,1.2,59,1,,,,,,,,,,,,,,,,,,0,41,41,58,1,,,,,,,,,,,,,,,,,,,,,,,
,,,,,FALL23_089,22,Male,2024-01-23_13h17.41.709,jersey_experiment_5,2023.2.2,Win32,60.24096386,,,,,,,,,,,,,,,,1144.0011,1145.2954,1145.2954,1146.3325,return,0.2326,,69.01041667,,,,,,FBP-RB-71.png,0.4,1.2,18,0.5,,,,,,,,,,,,,,,,,,0,42,42,17,1,,,,,,,,,,,,,,,,,,,,,,,
,,,,,FALL23_089,22,Male,2024-01-23_13h17.41.709,jersey_experiment_5,2023.2.2,Win32,60.24096386,,,,,,,,,,,,,,,,1146.3326,1147.6329,1147.633,1150.5103,return,1.1098,,36.58854167,,,,,,FBP-RB-91.png,0.35,1.2,26,0.5,,,,,,,,,,,,,,,,,,0,43,43,25,1,,,,,,,,,,,,,,,,,,,,,,,
,,,,,FALL23_089,22,Male,2024-01-23_13h17.41.709,jersey_experiment_5,2023.2.2,Win32,60.24096386,,,,,,,,,,,,,,,,1150.5105,1152.2982,1152.2982,1153.426,return,0.5889,,36.45833333,,,,,,FBP-PT-71.png,0.37,1.2,47,1,,,,,,,,,,,,,,,,,,0,44,44,46,1,,,,,,,,,,,,,,,,,,,,,,,
,,,,,FALL23_089,22,Male,2024-01-23_13h17.41.709,jersey_experiment_5,2023.2.2,Win32,60.24096386,,,,,,,,,,,,,,,,1153.4261,1155.2139,1155.214,1156.5302,return,0.1351,,62.890625,,,,,,FBP-OG-19.png,0.4,1.2,13,1,,,,,,,,,,,,,,,,,,0,45,45,12,1,,,,,,,,,,,,,,,,,,,,,,,
,,,,,FALL23_089,22,Male,2024-01-23_13h17.41.709,jersey_experiment_5,2023.2.2,Win32,60.24096386,,,,,,,,,,,,,,,,1156.5303,1157.8246,1157.8247,1158.928,return,0.0004,,67.44791667,,,,,,FBP-RB-91.png,0.43,1.2,29,0.5,,,,,,,,,,,,,,,,,,0,46,46,28,1,,,,,,,,,,,,,,,,,,,,,,,
,,,,,FALL23_089,22,Male,2024-01-23_13h17.41.709,jersey_experiment_5,2023.2.2,Win32,60.24096386,,,,,,,,,,,,,,,,1158.9282,1160.2239,1160.2239,1161.4735,return,0.089599999,,56.25,,,,,,FBP-RB-91.png,0.37,1.2,27,0.5,,,,,,,,,,,,,,,,,,0,47,47,26,1,,,,,,,,,,,,,,,,,,,,,,,
,,,,,FALL23_089,22,Male,2024-01-23_13h17.41.709,jersey_experiment_5,2023.2.2,Win32,60.24096386,,,,,,,,,,,,,,,,1161.4736,1163.2616,1163.2616,1164.461,return,0.317,,70.83333333,,,,,,FBP-OG-18.png,0.4,1.2,8,1,,,,,,,,,,,,,,,,,,0,48,48,7,1,,,,,,,,,,,,,,,,,,,,,,,
,,,,,FALL23_089,22,Male,2024-01-23_13h17.41.709,jersey_experiment_5,2023.2.2,Win32,60.24096386,,,,,,,,,,,,,,,,1164.4612,1166.2603,1166.2603,1167.8046,return,0.1114,,39.32291667,,,,,,FBP-OG-19.png,0.35,1.2,11,1,,,,,,,,,,,,,,,,,,0,49,49,10,1,,,,,,,,,,,,,,,,,,,,,,,
,,,,,FALL23_089,22,Male,2024-01-23_13h17.41.709,jersey_experiment_5,2023.2.2,Win32,60.24096386,,,,,,,,,,,,,,,,1167.8048,1169.6093,1169.6093,1170.4424,return,0.1669,,70.3125,,,,,,FBP-PT-81.png,0.43,1.2,54,1,,,,,,,,,,,,,,,,,,0,50,50,53,1,,,,,,,,,,,,,,,,,,,,,,,
,,,,,FALL23_089,22,Male,2024-01-23_13h17.41.709,jersey_experiment_5,2023.2.2,Win32,60.24096386,,,,,,,,,,,,,,,,1170.4426,1172.24,1172.24,1172.9582,return,0.1838,,74.86979167,,,,,,FBP-OG-18.png,0.45,1.2,10,1,,,,,,,,,,,,,,,,,,0,51,51,9,1,,,,,,,,,,,,,,,,,,,,,,,
,,,,,FALL23_089,22,Male,2024-01-23_13h17.41.709,jersey_experiment_5,2023.2.2,Win32,60.24096386,,,,,,,,,,,,,,,,1172.9583,1174.2524,1174.2524,1175.5909,return,0.2003,,32.16145833,,,,,,FBP-YG-17.png,0.37,1.2,32,0.5,,,,,,,,,,,,,,,,,,0,52,52,31,1,,,,,,,,,,,,,,,,,,,,,,,
,,,,,FALL23_089,22,Male,2024-01-23_13h17.41.709,jersey_experiment_5,2023.2.2,Win32,60.24096386,,,,,,,,,,,,,,,,1175.5911,1177.3848,1177.3848,1178.5066,return,0.2838,,74.86979167,,,,,,FBP-OG-18.png,0.43,1.2,9,1,,,,,,,,,,,,,,,,,,0,53,53,8,1,,,,,,,,,,,,,,,,,,,,,,,
,,,,,FALL23_089,22,Male,2024-01-23_13h17.41.709,jersey_experiment_5,2023.2.2,Win32,60.24096386,,,,,,,,,,,,,,,,1178.5068,1179.8058,1179.8059,1180.7723,return,0.266900001,,77.08333333,,,,,,FBP-RB-71.png,0.43,1.2,19,0.5,,,,,,,,,,,,,,,,,,0,54,54,18,1,,,,,,,,,,,,,,,,,,,,,,,
,,,,,FALL23_089,22,Male,2024-01-23_13h17.41.709,jersey_experiment_5,2023.2.2,Win32,60.24096386,,,,,,,,,,,,,,,,1180.7725,1182.5716,1182.5717,1183.4885,return,0.184099999,,30.20833333,,,,,,FBP-OG-18.png,0.37,1.2,7,1,,,,,,,,,,,,,,,,,,0,55,55,6,1,,,,,,,,,,,,,,,,,,,,,,,
,,,,,FALL23_089,22,Male,2024-01-23_13h17.41.709,jersey_experiment_5,2023.2.2,Win32,60.24096386,,,,,,,,,,,,,,,,1183.4886,1184.7825,1184.7825,1186.1355,return,0.232,,69.79166667,,,,,,FBP-YG-17.png,0.35,1.2,31,0.5,,,,,,,,,,,,,,,,,,0,56,56,30,1,,,,,,,,,,,,,,,,,,,,,,,
,,,,,FALL23_089,22,Male,2024-01-23_13h17.41.709,jersey_experiment_5,2023.2.2,Win32,60.24096386,,,,,,,,,,,,,,,,1186.1357,1187.9366,1187.9366,1188.9144,return,0.289099999,,74.73958333,,,,,,FBP-PT-71.png,0.43,1.2,49,1,,,,,,,,,,,,,,,,,,0,57,57,48,1,,,,,,,,,,,,,,,,,,,,,,,
,,,,,FALL23_089,22,Male,2024-01-23_13h17.41.709,jersey_experiment_5,2023.2.2,Win32,60.24096386,,,,,,,,,,,,,,,,1188.9146,1190.2024,1190.2024,1191.5353,return,0.266900001,,73.69791667,,,,,,FBP-YG-17.png,0.43,1.2,34,0.5,,,,,,,,,,,,,,,,,,0,58,58,33,1,,,,,,,,,,,,,,,,,,,,,,,
,,,,,FALL23_089,22,Male,2024-01-23_13h17.41.709,jersey_experiment_5,2023.2.2,Win32,60.24096386,,,,,,,,,,,,,,,,1191.5355,1192.8345,1192.8345,1194.6457,return,0.2854,,72.265625,,,,,,FBP-YG-19.png,0.4,1.2,43,0.5,,,,,,,,,,,,,,,,,,0,59,59,42,1,,,,,,,,,,,,,,,,,,,,,,,
,,,,,FALL23_089,22,Male,2024-01-23_13h17.41.709,jersey_experiment_5,2023.2.2,Win32,60.24096386,,,,,,,,,,,,,,,,,,,,,,,,,,,,,,,,,,,,,,,,,,,,,,,,,,,,,,,,1194.6459,1202.4485,return,7.7806,,,,,,,,,,,,,,,,,,,
,,,,,FALL23_089,22,Male,2024-01-23_13h17.41.709,jersey_experiment_5,2023.2.2,Win32,60.24096386,,,,,,,,,,,,,,,,,,,,,,,,,,,,,,,,,,,,,,,,,,,,,,,,,,,,,,,,,,,,,1202.4486,1229.4566,1,21.6149,return,5.365,,,,,,,,,,,,
,,,,,FALL23_089,22,Male,2024-01-23_13h17.41.709,jersey_experiment_5,2023.2.2,Win32,60.24096386,,,,,,,,,,,,,,,,,,,,,,,,,,,,,,,,,,,,,,,,,,,,,,,,,,,,,,,,,,,,,,,,,,,,1229.4609,1328.7451,If our subjective impression is based on the ,right,81.9896,,,,,,
,,,,,FALL23_089,22,Male,2024-01-23_13h17.41.709,jersey_experiment_5,2023.2.2,Win32,60.24096386,,,,,,,,,,,,,,,,,,,,,,,,,,,,,,,,,,,,,,,,,,,,,,,,,,,,,,,,,,,,,,,,,,,,,,,,,,1328.7452,1372.4041,return,43.6417,