requirements.started,requirements.stopped,key_resp_3.keys,key_resp_3.rt,key_resp_3.duration,Subject ID,Age,Gender,date,expName,psychopyVersion,OS,frameRate,instructions1.started,instructions1.stopped,key_resp.keys,key_resp.rt,key_resp.duration,example.started,example.stopped,enter_2.keys,enter_2.rt,enter_2.duration,instructions2.started,instructions2.stopped,enter_3.keys,enter_3.rt,enter_3.duration,image.started,image.stopped,slider_2.started,slider_2.stopped,next.keys,next.rt,next.duration,slider.response,trial_block_1.thisRepN,trial_block_1.thisTrialN,trial_block_1.thisN,trial_block_1.thisIndex,trial_block_1.ran,Path,Width,Height,Index,Duration,trial_block_2.thisRepN,trial_block_2.thisTrialN,trial_block_2.thisN,trial_block_2.thisIndex,trial_block_2.ran,rest_break.started,rest_break.stopped,end_break.started,end_break.stopped,key_resp_5.keys,key_resp_5.rt,key_resp_5.duration,trial_block_3.thisRepN,trial_block_3.thisTrialN,trial_block_3.thisN,trial_block_3.thisIndex,trial_block_3.ran,trial_block_4.thisRepN,trial_block_4.thisTrialN,trial_block_4.thisN,trial_block_4.thisIndex,trial_block_4.ran,questions_intro.started,questions_intro.stopped,enter_12.keys,enter_12.rt,enter_12.duration,question2.started,question2.stopped,question_doingbest.response,question_doingbest.rt,enter_15.keys,enter_15.rt,enter_15.duration,pattern.started,pattern.stopped,pattern_2.text,enter_17.keys,enter_17.rt,enter_17.duration,thankyou.started,thankyou.stopped,enter_14.keys,enter_14.rt,enter_14.duration
0.0001,10.1962,return,10.1905,,WIN24_037,21,Male ,2024-02-02_16h35.21.920,jersey_experiment_5,2023.2.2,Win32,84.74576271,,,,,,,,,,,,,,,,,,,,,,,,,,,,,,,,,,,,,,,,,,,,,,,,,,,,,,,,,,,,,,,,,,,,,,,,,,,,,,
,,,,,WIN24_037,21,Male ,2024-02-02_16h35.21.920,jersey_experiment_5,2023.2.2,Win32,84.74576271,10.1965,20.3141,return,10.0977,,,,,,,,,,,,,,,,,,,,,,,,,,,,,,,,,,,,,,,,,,,,,,,,,,,,,,,,,,,,,,,,,,,,,,,,,,
,,,,,WIN24_037,21,Male ,2024-02-02_16h35.21.920,jersey_experiment_5,2023.2.2,Win32,84.74576271,,,,,,20.3144,26.1731,return,5.8084,,,,,,,,,,,,,,,,,,,,,,,,,,,,,,,,,,,,,,,,,,,,,,,,,,,,,,,,,,,,,,,,,,,,,
,,,,,WIN24_037,21,Male ,2024-02-02_16h35.21.920,jersey_experiment_5,2023.2.2,Win32,84.74576271,,,,,,,,,,,26.1734,44.2676,return,18.0771,,,,,,,,,,,,,,,,,,,,,,,,,,,,,,,,,,,,,,,,,,,,,,,,,,,,,,,,,,,,,,,,
,,,,,WIN24_037,21,Male ,2024-02-02_16h35.21.920,jersey_experiment_5,2023.2.2,Win32,84.74576271,,,,,,,,,,,,,,,,44.2783,46.0797,46.0801,57.7508,return,4.0163,,72.91666667,0,0,0,18,1,FBP-RB-17.png,0.43,1.2,19,1,,,,,,,,,,,,,,,,,,,,,,,,,,,,,,,,,,,,,,,,,,,,,
,,,,,WIN24_037,21,Male ,2024-02-02_16h35.21.920,jersey_experiment_5,2023.2.2,Win32,84.74576271,,,,,,,,,,,,,,,,57.7612,59.5631,59.5632,61.4457,return,0.2943,,35.02604167,0,1,1,21,1,FBP-RB-18.png,0.37,1.2,22,1,,,,,,,,,,,,,,,,,,,,,,,,,,,,,,,,,,,,,,,,,,,,,
,,,,,WIN24_037,21,Male ,2024-02-02_16h35.21.920,jersey_experiment_5,2023.2.2,Win32,84.74576271,,,,,,,,,,,,,,,,61.4458,62.7397,62.7397,64.6813,return,0.1767,,26.69270833,0,2,2,47,1,FBP-PT-17.png,0.4,1.2,48,0.5,,,,,,,,,,,,,,,,,,,,,,,,,,,,,,,,,,,,,,,,,,,,,
,,,,,WIN24_037,21,Male ,2024-02-02_16h35.21.920,jersey_experiment_5,2023.2.2,Win32,84.74576271,,,,,,,,,,,,,,,,64.6815,65.974,65.9741,67.5283,return,0.2354,,65.234375,0,3,3,49,1,FBP-PT-17.png,0.45,1.2,50,0.5,,,,,,,,,,,,,,,,,,,,,,,,,,,,,,,,,,,,,,,,,,,,,
,,,,,WIN24_037,21,Male ,2024-02-02_16h35.21.920,jersey_experiment_5,2023.2.2,Win32,84.74576271,,,,,,,,,,,,,,,,67.5285,68.8213,68.8214,70.152,return,0.2825,,81.51041667,0,4,4,9,1,FBP-OG-81.png,0.45,1.2,10,0.5,,,,,,,,,,,,,,,,,,,,,,,,,,,,,,,,,,,,,,,,,,,,,
,,,,,WIN24_037,21,Male ,2024-02-02_16h35.21.920,jersey_experiment_5,2023.2.2,Win32,84.74576271,,,,,,,,,,,,,,,,70.1522,71.9518,71.9518,72.7757,return,0.1413,,85.546875,0,5,5,24,1,FBP-RB-18.png,0.45,1.2,25,1,,,,,,,,,,,,,,,,,,,,,,,,,,,,,,,,,,,,,,,,,,,,,
,,,,,WIN24_037,21,Male ,2024-02-02_16h35.21.920,jersey_experiment_5,2023.2.2,Win32,84.74576271,,,,,,,,,,,,,,,,72.7759,74.5754,74.5754,75.9169,return,0.1649,,24.21875,0,6,6,25,1,FBP-RB-19.png,0.35,1.2,26,1,,,,,,,,,,,,,,,,,,,,,,,,,,,,,,,,,,,,,,,,,,,,,
,,,,,WIN24_037,21,Male ,2024-02-02_16h35.21.920,jersey_experiment_5,2023.2.2,Win32,84.74576271,,,,,,,,,,,,,,,,75.9171,77.7167,77.7167,78.67,return,0.1295,,50.52083333,0,7,7,33,1,FBP-YG-71.png,0.43,1.2,34,1,,,,,,,,,,,,,,,,,,,,,,,,,,,,,,,,,,,,,,,,,,,,,
,,,,,WIN24_037,21,Male ,2024-02-02_16h35.21.920,jersey_experiment_5,2023.2.2,Win32,84.74576271,,,,,,,,,,,,,,,,78.67,79.9628,79.9629,81.1169,return,0.0707,,54.6875,0,8,8,13,1,FBP-OG-91.png,0.43,1.2,14,0.5,,,,,,,,,,,,,,,,,,,,,,,,,,,,,,,,,,,,,,,,,,,,,
,,,,,WIN24_037,21,Male ,2024-02-02_16h35.21.920,jersey_experiment_5,2023.2.2,Win32,84.74576271,,,,,,,,,,,,,,,,81.117,82.9159,82.916,84.7289,return,0.1413,,24.86979167,0,9,9,40,1,FBP-YG-91.png,0.35,1.2,41,1,,,,,,,,,,,,,,,,,,,,,,,,,,,,,,,,,,,,,,,,,,,,,
,,,,,WIN24_037,21,Male ,2024-02-02_16h35.21.920,jersey_experiment_5,2023.2.2,Win32,84.74576271,,,,,,,,,,,,,,,,84.7291,86.0226,86.0226,87.2936,return,0.1178,,26.82291667,0,10,10,52,1,FBP-PT-18.png,0.4,1.2,53,0.5,,,,,,,,,,,,,,,,,,,,,,,,,,,,,,,,,,,,,,,,,,,,,
,,,,,WIN24_037,21,Male ,2024-02-02_16h35.21.920,jersey_experiment_5,2023.2.2,Win32,84.74576271,,,,,,,,,,,,,,,,87.2938,89.0937,89.0937,90.2351,return,0.1059,,33.203125,0,11,11,36,1,FBP-YG-81.png,0.37,1.2,37,1,,,,,,,,,,,,,,,,,,,,,,,,,,,,,,,,,,,,,,,,,,,,,
,,,,,WIN24_037,21,Male ,2024-02-02_16h35.21.920,jersey_experiment_5,2023.2.2,Win32,84.74576271,,,,,,,,,,,,,,,,90.2352,92.035,92.035,92.9514,return,0.075,,30.46875,0,12,12,26,1,FBP-RB-19.png,0.37,1.2,27,1,,,,,,,,,,,,,,,,,,,,,,,,,,,,,,,,,,,,,,,,,,,,,
,,,,,WIN24_037,21,Male ,2024-02-02_16h35.21.920,jersey_experiment_5,2023.2.2,Win32,84.74576271,,,,,,,,,,,,,,,,92.9515,94.2457,94.2458,95.9411,return,0.1062,,80.59895833,0,13,13,58,1,FBP-PT-19.png,0.43,1.2,59,0.5,,,,,,,,,,,,,,,,,,,,,,,,,,,,,,,,,,,,,,,,,,,,,
,,,,,WIN24_037,21,Male ,2024-02-02_16h35.21.920,jersey_experiment_5,2023.2.2,Win32,84.74576271,,,,,,,,,,,,,,,,95.9412,97.741,97.741,98.588,return,0.0708,,50.78125,0,14,14,35,1,FBP-YG-81.png,0.35,1.2,36,1,,,,,,,,,,,,,,,,,,,,,,,,,,,,,,,,,,,,,,,,,,,,,
,,,,,WIN24_037,21,Male ,2024-02-02_16h35.21.920,jersey_experiment_5,2023.2.2,Win32,84.74576271,,,,,,,,,,,,,,,,98.5882,100.387,100.387,101.1296,return,0.0591,,17.96875,0,15,15,41,1,FBP-YG-91.png,0.37,1.2,42,1,,,,,,,,,,,,,,,,,,,,,,,,,,,,,,,,,,,,,,,,,,,,,
,,,,,WIN24_037,21,Male ,2024-02-02_16h35.21.920,jersey_experiment_5,2023.2.2,Win32,84.74576271,,,,,,,,,,,,,,,,101.1299,102.9294,102.9294,103.9298,return,0.1061,,90.625,0,16,16,28,1,FBP-RB-19.png,0.43,1.2,29,1,,,,,,,,,,,,,,,,,,,,,,,,,,,,,,,,,,,,,,,,,,,,,
,,,,,WIN24_037,21,Male ,2024-02-02_16h35.21.920,jersey_experiment_5,2023.2.2,Win32,84.74576271,,,,,,,,,,,,,,,,103.93,105.2225,105.2226,106.2944,return,0.0472,,73.95833333,0,17,17,2,1,FBP-OG-71.png,0.4,1.2,3,0.5,,,,,,,,,,,,,,,,,,,,,,,,,,,,,,,,,,,,,,,,,,,,,
,,,,,WIN24_037,21,Male ,2024-02-02_16h35.21.920,jersey_experiment_5,2023.2.2,Win32,84.74576271,,,,,,,,,,,,,,,,106.2946,107.5874,107.5874,109.0123,return,0.0945,,32.421875,0,18,18,50,1,FBP-PT-18.png,0.35,1.2,51,0.5,,,,,,,,,,,,,,,,,,,,,,,,,,,,,,,,,,,,,,,,,,,,,
,,,,,WIN24_037,21,Male ,2024-02-02_16h35.21.920,jersey_experiment_5,2023.2.2,Win32,84.74576271,,,,,,,,,,,,,,,,109.0125,110.3052,110.3052,111.3533,return,0.0708,,49.47916667,0,19,19,1,1,FBP-OG-71.png,0.37,1.2,2,0.5,,,,,,,,,,,,,,,,,,,,,,,,,,,,,,,,,,,,,,,,,,,,,
,,,,,WIN24_037,21,Male ,2024-02-02_16h35.21.920,jersey_experiment_5,2023.2.2,Win32,84.74576271,,,,,,,,,,,,,,,,111.3536,113.1523,113.1523,114.7403,return,0.0663,,69.79166667,0,20,20,37,1,FBP-YG-81.png,0.4,1.2,38,1,,,,,,,,,,,,,,,,,,,,,,,,,,,,,,,,,,,,,,,,,,,,,
,,,,,WIN24_037,21,Male ,2024-02-02_16h35.21.920,jersey_experiment_5,2023.2.2,Win32,84.74576271,,,,,,,,,,,,,,,,114.7405,116.5403,116.5403,117.4817,return,0.0492,,55.46875,0,21,21,31,1,FBP-YG-71.png,0.37,1.2,32,1,,,,,,,,,,,,,,,,,,,,,,,,,,,,,,,,,,,,,,,,,,,,,
,,,,,WIN24_037,21,Male ,2024-02-02_16h35.21.920,jersey_experiment_5,2023.2.2,Win32,84.74576271,,,,,,,,,,,,,,,,117.4818,118.7761,118.7762,119.6831,return,0.0355,,60.28645833,0,22,22,6,1,FBP-OG-81.png,0.37,1.2,7,0.5,,,,,,,,,,,,,,,,,,,,,,,,,,,,,,,,,,,,,,,,,,,,,
,,,,,WIN24_037,21,Male ,2024-02-02_16h35.21.920,jersey_experiment_5,2023.2.2,Win32,84.74576271,,,,,,,,,,,,,,,,119.6832,120.9761,120.9761,121.9303,return,0.0708,,35.02604167,0,23,23,55,1,FBP-PT-19.png,0.35,1.2,56,0.5,,,,,,,,,,,,,,,,,,,,,,,,,,,,,,,,,,,,,,,,,,,,,
,,,,,WIN24_037,21,Male ,2024-02-02_16h35.21.920,jersey_experiment_5,2023.2.2,Win32,84.74576271,,,,,,,,,,,,,,,,121.9304,123.729,123.729,124.4128,return,0.0463,,90.36458333,0,24,24,43,1,FBP-YG-91.png,0.43,1.2,44,1,,,,,,,,,,,,,,,,,,,,,,,,,,,,,,,,,,,,,,,,,,,,,
,,,,,WIN24_037,21,Male ,2024-02-02_16h35.21.920,jersey_experiment_5,2023.2.2,Win32,84.74576271,,,,,,,,,,,,,,,,124.4129,126.2125,126.2125,126.8819,return,0.0334,,98.828125,0,25,25,44,1,FBP-YG-91.png,0.45,1.2,45,1,,,,,,,,,,,,,,,,,,,,,,,,,,,,,,,,,,,,,,,,,,,,,
,,,,,WIN24_037,21,Male ,2024-02-02_16h35.21.920,jersey_experiment_5,2023.2.2,Win32,84.74576271,,,,,,,,,,,,,,,,126.8821,128.6831,128.6832,129.4467,return,0.0285,,95.57291667,0,26,26,29,1,FBP-RB-19.png,0.45,1.2,30,1,,,,,,,,,,,,,,,,,,,,,,,,,,,,,,,,,,,,,,,,,,,,,
,,,,,WIN24_037,21,Male ,2024-02-02_16h35.21.920,jersey_experiment_5,2023.2.2,Win32,84.74576271,,,,,,,,,,,,,,,,129.4468,130.7414,130.7414,131.8367,return,0.0827,,60.67708333,0,27,27,46,1,FBP-PT-17.png,0.37,1.2,47,0.5,,,,,,,,,,,,,,,,,,,,,,,,,,,,,,,,,,,,,,,,,,,,,
,,,,,WIN24_037,21,Male ,2024-02-02_16h35.21.920,jersey_experiment_5,2023.2.2,Win32,84.74576271,,,,,,,,,,,,,,,,131.8369,133.6365,133.6365,134.5057,return,0.0843,,13.15104167,0,28,28,15,1,FBP-RB-17.png,0.35,1.2,16,1,,,,,,,,,,,,,,,,,,,,,,,,,,,,,,,,,,,,,,,,,,,,,
,,,,,WIN24_037,21,Male ,2024-02-02_16h35.21.920,jersey_experiment_5,2023.2.2,Win32,84.74576271,,,,,,,,,,,,,,,,134.5058,135.8002,135.8003,137.5057,return,0.01,,83.33333333,0,29,29,48,1,FBP-PT-17.png,0.43,1.2,49,0.5,,,,,,,,,,,,,,,,,,,,,,,,,,,,,,,,,,,,,,,,,,,,,
,,,,,WIN24_037,21,Male ,2024-02-02_16h35.21.920,jersey_experiment_5,2023.2.2,Win32,84.74576271,,,,,,,,,,,,,,,,137.5059,139.3063,139.3064,140.1179,return,0.0766,,90.36458333,0,30,30,23,1,FBP-RB-18.png,0.43,1.2,24,1,,,,,,,,,,,,,,,,,,,,,,,,,,,,,,,,,,,,,,,,,,,,,
,,,,,WIN24_037,21,Male ,2024-02-02_16h35.21.920,jersey_experiment_5,2023.2.2,Win32,84.74576271,,,,,,,,,,,,,,,,140.118,141.9192,141.9192,142.5663,return,0.0475,,98.046875,0,31,31,19,1,FBP-RB-17.png,0.45,1.2,20,1,,,,,,,,,,,,,,,,,,,,,,,,,,,,,,,,,,,,,,,,,,,,,
,,,,,WIN24_037,21,Male ,2024-02-02_16h35.21.920,jersey_experiment_5,2023.2.2,Win32,84.74576271,,,,,,,,,,,,,,,,142.5665,144.3664,144.3664,145.3531,return,0.0734,,39.32291667,0,32,32,20,1,FBP-RB-18.png,0.35,1.2,21,1,,,,,,,,,,,,,,,,,,,,,,,,,,,,,,,,,,,,,,,,,,,,,
,,,,,WIN24_037,21,Male ,2024-02-02_16h35.21.920,jersey_experiment_5,2023.2.2,Win32,84.74576271,,,,,,,,,,,,,,,,145.3532,147.1532,147.1532,147.9298,return,0.0606,,50.390625,0,33,33,22,1,FBP-RB-18.png,0.4,1.2,23,1,,,,,,,,,,,,,,,,,,,,,,,,,,,,,,,,,,,,,,,,,,,,,
,,,,,WIN24_037,21,Male ,2024-02-02_16h35.21.920,jersey_experiment_5,2023.2.2,Win32,84.74576271,,,,,,,,,,,,,,,,147.9299,149.2242,149.2243,150.471,return,0.0402,,57.68229167,0,34,34,7,1,FBP-OG-81.png,0.4,1.2,8,0.5,,,,,,,,,,,,,,,,,,,,,,,,,,,,,,,,,,,,,,,,,,,,,
,,,,,WIN24_037,21,Male ,2024-02-02_16h35.21.920,jersey_experiment_5,2023.2.2,Win32,84.74576271,,,,,,,,,,,,,,,,150.4711,151.7655,151.7656,152.802,return,0.0237,,90.88541667,0,35,35,54,1,FBP-PT-18.png,0.45,1.2,55,0.5,,,,,,,,,,,,,,,,,,,,,,,,,,,,,,,,,,,,,,,,,,,,,
,,,,,WIN24_037,21,Male ,2024-02-02_16h35.21.920,jersey_experiment_5,2023.2.2,Win32,84.74576271,,,,,,,,,,,,,,,,152.8022,154.6008,154.6009,155.2359,return,0.0316,,86.58854167,0,36,36,32,1,FBP-YG-71.png,0.4,1.2,33,1,,,,,,,,,,,,,,,,,,,,,,,,,,,,,,,,,,,,,,,,,,,,,
,,,,,WIN24_037,21,Male ,2024-02-02_16h35.21.920,jersey_experiment_5,2023.2.2,Win32,84.74576271,,,,,,,,,,,,,,,,155.2361,157.037,157.037,157.5432,return,0.0236,,96.74479167,0,37,37,39,1,FBP-YG-81.png,0.45,1.2,40,1,,,,,,,,,,,,,,,,,,,,,,,,,,,,,,,,,,,,,,,,,,,,,
,,,,,WIN24_037,21,Male ,2024-02-02_16h35.21.920,jersey_experiment_5,2023.2.2,Win32,84.74576271,,,,,,,,,,,,,,,,157.5435,158.8367,158.8368,161.0008,return,0.0497,,47.00520833,0,38,38,0,1,FBP-OG-71.png,0.35,1.2,1,0.5,,,,,,,,,,,,,,,,,,,,,,,,,,,,,,,,,,,,,,,,,,,,,
,,,,,WIN24_037,21,Male ,2024-02-02_16h35.21.920,jersey_experiment_5,2023.2.2,Win32,84.74576271,,,,,,,,,,,,,,,,161.0011,162.8012,162.8012,163.626,return,0.0353,,43.09895833,0,39,39,16,1,FBP-RB-17.png,0.37,1.2,17,1,,,,,,,,,,,,,,,,,,,,,,,,,,,,,,,,,,,,,,,,,,,,,
,,,,,WIN24_037,21,Male ,2024-02-02_16h35.21.920,jersey_experiment_5,2023.2.2,Win32,84.74576271,,,,,,,,,,,,,,,,163.6261,165.426,165.426,166.1186,return,0.0401,,52.08333333,0,40,40,42,1,FBP-YG-91.png,0.4,1.2,43,1,,,,,,,,,,,,,,,,,,,,,,,,,,,,,,,,,,,,,,,,,,,,,
,,,,,WIN24_037,21,Male ,2024-02-02_16h35.21.920,jersey_experiment_5,2023.2.2,Win32,84.74576271,,,,,,,,,,,,,,,,166.1188,167.4131,167.4132,168.2951,return,0.0046,,34.24479167,0,41,41,56,1,FBP-PT-19.png,0.37,1.2,57,0.5,,,,,,,,,,,,,,,,,,,,,,,,,,,,,,,,,,,,,,,,,,,,,
,,,,,WIN24_037,21,Male ,2024-02-02_16h35.21.920,jersey_experiment_5,2023.2.2,Win32,84.74576271,,,,,,,,,,,,,,,,168.2953,169.5897,169.5898,170.4246,return,0.0618,,63.02083333,0,42,42,53,1,FBP-PT-18.png,0.43,1.2,54,0.5,,,,,,,,,,,,,,,,,,,,,,,,,,,,,,,,,,,,,,,,,,,,,
,,,,,WIN24_037,21,Male ,2024-02-02_16h35.21.920,jersey_experiment_5,2023.2.2,Win32,84.74576271,,,,,,,,,,,,,,,,170.4248,171.7193,171.7194,172.8379,return,0.0352,,94.140625,0,43,43,14,1,FBP-OG-91.png,0.45,1.2,15,0.5,,,,,,,,,,,,,,,,,,,,,,,,,,,,,,,,,,,,,,,,,,,,,
,,,,,WIN24_037,21,Male ,2024-02-02_16h35.21.920,jersey_experiment_5,2023.2.2,Win32,84.74576271,,,,,,,,,,,,,,,,172.8381,174.131,174.131,175.8484,return,0.0621,,37.63020833,0,44,44,45,1,FBP-PT-17.png,0.35,1.2,46,0.5,,,,,,,,,,,,,,,,,,,,,,,,,,,,,,,,,,,,,,,,,,,,,
,,,,,WIN24_037,21,Male ,2024-02-02_16h35.21.920,jersey_experiment_5,2023.2.2,Win32,84.74576271,,,,,,,,,,,,,,,,175.8487,177.1437,177.1438,178.2736,return,0.0474,,74.86979167,0,45,45,59,1,FBP-PT-19.png,0.45,1.2,60,0.5,,,,,,,,,,,,,,,,,,,,,,,,,,,,,,,,,,,,,,,,,,,,,
,,,,,WIN24_037,21,Male ,2024-02-02_16h35.21.920,jersey_experiment_5,2023.2.2,Win32,84.74576271,,,,,,,,,,,,,,,,178.2737,180.0722,180.0722,180.7544,return,0.0329,,87.5,0,46,46,34,1,FBP-YG-71.png,0.45,1.2,35,1,,,,,,,,,,,,,,,,,,,,,,,,,,,,,,,,,,,,,,,,,,,,,
,,,,,WIN24_037,21,Male ,2024-02-02_16h35.21.920,jersey_experiment_5,2023.2.2,Win32,84.74576271,,,,,,,,,,,,,,,,180.7546,182.0489,182.0489,182.8264,return,0.0119,,92.96875,0,47,47,4,1,FBP-OG-71.png,0.45,1.2,5,0.5,,,,,,,,,,,,,,,,,,,,,,,,,,,,,,,,,,,,,,,,,,,,,
,,,,,WIN24_037,21,Male ,2024-02-02_16h35.21.920,jersey_experiment_5,2023.2.2,Win32,84.74576271,,,,,,,,,,,,,,,,182.8266,184.1195,184.1195,185.437,return,0.0827,,45.05208333,0,48,48,51,1,FBP-PT-18.png,0.37,1.2,52,0.5,,,,,,,,,,,,,,,,,,,,,,,,,,,,,,,,,,,,,,,,,,,,,
,,,,,WIN24_037,21,Male ,2024-02-02_16h35.21.920,jersey_experiment_5,2023.2.2,Win32,84.74576271,,,,,,,,,,,,,,,,185.4374,186.7324,186.7324,187.474,return,0.0003,,49.609375,0,49,49,57,1,FBP-PT-19.png,0.4,1.2,58,0.5,,,,,,,,,,,,,,,,,,,,,,,,,,,,,,,,,,,,,,,,,,,,,
,,,,,WIN24_037,21,Male ,2024-02-02_16h35.21.920,jersey_experiment_5,2023.2.2,Win32,84.74576271,,,,,,,,,,,,,,,,187.4741,188.7668,188.7668,190.3327,return,0.5884,,41.796875,0,50,50,11,1,FBP-OG-91.png,0.37,1.2,12,0.5,,,,,,,,,,,,,,,,,,,,,,,,,,,,,,,,,,,,,,,,,,,,,
,,,,,WIN24_037,21,Male ,2024-02-02_16h35.21.920,jersey_experiment_5,2023.2.2,Win32,84.74576271,,,,,,,,,,,,,,,,190.333,191.6257,191.6258,192.6254,return,0.0575,,16.92708333,0,51,51,10,1,FBP-OG-91.png,0.35,1.2,11,0.5,,,,,,,,,,,,,,,,,,,,,,,,,,,,,,,,,,,,,,,,,,,,,
,,,,,WIN24_037,21,Male ,2024-02-02_16h35.21.920,jersey_experiment_5,2023.2.2,Win32,84.74576271,,,,,,,,,,,,,,,,192.6257,193.9206,193.9206,194.9683,return,0.059,,72.91666667,0,52,52,3,1,FBP-OG-71.png,0.43,1.2,4,0.5,,,,,,,,,,,,,,,,,,,,,,,,,,,,,,,,,,,,,,,,,,,,,
,,,,,WIN24_037,21,Male ,2024-02-02_16h35.21.920,jersey_experiment_5,2023.2.2,Win32,84.74576271,,,,,,,,,,,,,,,,194.9684,196.2613,196.2614,197.0508,return,0.0121,,81.25,0,53,53,8,1,FBP-OG-81.png,0.43,1.2,9,0.5,,,,,,,,,,,,,,,,,,,,,,,,,,,,,,,,,,,,,,,,,,,,,
,,,,,WIN24_037,21,Male ,2024-02-02_16h35.21.920,jersey_experiment_5,2023.2.2,Win32,84.74576271,,,,,,,,,,,,,,,,197.0509,198.8505,198.8505,200.0847,return,0.4661,,85.15625,0,54,54,38,1,FBP-YG-81.png,0.43,1.2,39,1,,,,,,,,,,,,,,,,,,,,,,,,,,,,,,,,,,,,,,,,,,,,,
,,,,,WIN24_037,21,Male ,2024-02-02_16h35.21.920,jersey_experiment_5,2023.2.2,Win32,84.74576271,,,,,,,,,,,,,,,,200.085,201.379,201.3791,202.2024,return,0.0366,,73.046875,0,55,55,12,1,FBP-OG-91.png,0.4,1.2,13,0.5,,,,,,,,,,,,,,,,,,,,,,,,,,,,,,,,,,,,,,,,,,,,,
,,,,,WIN24_037,21,Male ,2024-02-02_16h35.21.920,jersey_experiment_5,2023.2.2,Win32,84.74576271,,,,,,,,,,,,,,,,202.2025,203.4968,203.4968,204.5318,return,0.0315,,46.22395833,0,56,56,5,1,FBP-OG-81.png,0.35,1.2,6,0.5,,,,,,,,,,,,,,,,,,,,,,,,,,,,,,,,,,,,,,,,,,,,,
,,,,,WIN24_037,21,Male ,2024-02-02_16h35.21.920,jersey_experiment_5,2023.2.2,Win32,84.74576271,,,,,,,,,,,,,,,,204.532,206.3333,206.3334,207.1083,return,0.0663,,18.09895833,0,57,57,30,1,FBP-YG-71.png,0.35,1.2,31,1,,,,,,,,,,,,,,,,,,,,,,,,,,,,,,,,,,,,,,,,,,,,,
,,,,,WIN24_037,21,Male ,2024-02-02_16h35.21.920,jersey_experiment_5,2023.2.2,Win32,84.74576271,,,,,,,,,,,,,,,,207.1084,208.9085,208.9086,210.0262,return,0.0605,,35.28645833,0,58,58,27,1,FBP-RB-19.png,0.4,1.2,28,1,,,,,,,,,,,,,,,,,,,,,,,,,,,,,,,,,,,,,,,,,,,,,
,,,,,WIN24_037,21,Male ,2024-02-02_16h35.21.920,jersey_experiment_5,2023.2.2,Win32,84.74576271,,,,,,,,,,,,,,,,210.0265,211.8276,211.8277,212.7571,return,0.0588,,49.21875,0,59,59,17,1,FBP-RB-17.png,0.4,1.2,18,1,,,,,,,,,,,,,,,,,,,,,,,,,,,,,,,,,,,,,,,,,,,,,
,,,,,WIN24_037,21,Male ,2024-02-02_16h35.21.920,jersey_experiment_5,2023.2.2,Win32,84.74576271,,,,,,,,,,,,,,,,212.759,214.0619,214.0619,215.8028,return,0.0721,,26.953125,,,,,,FBP-PT-91.png,0.35,1.2,56,0.5,0,0,0,55,1,,,,,,,,,,,,,,,,,,,,,,,,,,,,,,,,,,,,,,,,
,,,,,WIN24_037,21,Male ,2024-02-02_16h35.21.920,jersey_experiment_5,2023.2.2,Win32,84.74576271,,,,,,,,,,,,,,,,215.8031,217.6029,217.603,218.2632,return,0.0472,,12.76041667,,,,,,FBP-YG-17.png,0.35,1.2,31,1,0,1,1,30,1,,,,,,,,,,,,,,,,,,,,,,,,,,,,,,,,,,,,,,,,
,,,,,WIN24_037,21,Male ,2024-02-02_16h35.21.920,jersey_experiment_5,2023.2.2,Win32,84.74576271,,,,,,,,,,,,,,,,218.2633,219.5561,219.5562,220.5692,return,0.0471,,20.05208333,,,,,,FBP-PT-71.png,0.35,1.2,46,0.5,0,2,2,45,1,,,,,,,,,,,,,,,,,,,,,,,,,,,,,,,,,,,,,,,,
,,,,,WIN24_037,21,Male ,2024-02-02_16h35.21.920,jersey_experiment_5,2023.2.2,Win32,84.74576271,,,,,,,,,,,,,,,,220.5693,221.8623,221.8624,222.8516,return,0.0942,,38.02083333,,,,,,FBP-PT-71.png,0.4,1.2,48,0.5,0,3,3,47,1,,,,,,,,,,,,,,,,,,,,,,,,,,,,,,,,,,,,,,,,
,,,,,WIN24_037,21,Male ,2024-02-02_16h35.21.920,jersey_experiment_5,2023.2.2,Win32,84.74576271,,,,,,,,,,,,,,,,222.8516,224.6515,224.6516,225.1915,return,0.0515,,37.5,,,,,,FBP-RB-71.png,0.35,1.2,16,1,0,4,4,15,1,,,,,,,,,,,,,,,,,,,,,,,,,,,,,,,,,,,,,,,,
,,,,,WIN24_037,21,Male ,2024-02-02_16h35.21.920,jersey_experiment_5,2023.2.2,Win32,84.74576271,,,,,,,,,,,,,,,,225.1917,226.4859,226.486,227.9812,return,0.1177,,62.23958333,,,,,,FBP-OG-18.png,0.43,1.2,9,0.5,0,5,5,8,1,,,,,,,,,,,,,,,,,,,,,,,,,,,,,,,,,,,,,,,,
,,,,,WIN24_037,21,Male ,2024-02-02_16h35.21.920,jersey_experiment_5,2023.2.2,Win32,84.74576271,,,,,,,,,,,,,,,,227.9814,229.2747,229.2748,230.3458,return,0.059,,48.56770833,,,,,,FBP-OG-18.png,0.37,1.2,7,0.5,0,6,6,6,1,,,,,,,,,,,,,,,,,,,,,,,,,,,,,,,,,,,,,,,,
,,,,,WIN24_037,21,Male ,2024-02-02_16h35.21.920,jersey_experiment_5,2023.2.2,Win32,84.74576271,,,,,,,,,,,,,,,,230.346,232.146,232.146,233.1447,return,0.0852,,65.36458333,,,,,,FBP-RB-71.png,0.4,1.2,18,1,0,7,7,17,1,,,,,,,,,,,,,,,,,,,,,,,,,,,,,,,,,,,,,,,,
,,,,,WIN24_037,21,Male ,2024-02-02_16h35.21.920,jersey_experiment_5,2023.2.2,Win32,84.74576271,,,,,,,,,,,,,,,,233.1449,234.4391,234.4391,235.3227,return,0.0355,,84.765625,,,,,,FBP-PT-71.png,0.43,1.2,49,0.5,0,8,8,48,1,,,,,,,,,,,,,,,,,,,,,,,,,,,,,,,,,,,,,,,,
,,,,,WIN24_037,21,Male ,2024-02-02_16h35.21.920,jersey_experiment_5,2023.2.2,Win32,84.74576271,,,,,,,,,,,,,,,,235.3228,237.1224,237.1225,237.9462,return,0.0592,,81.77083333,,,,,,FBP-YG-17.png,0.43,1.2,34,1,0,9,9,33,1,,,,,,,,,,,,,,,,,,,,,,,,,,,,,,,,,,,,,,,,
,,,,,WIN24_037,21,Male ,2024-02-02_16h35.21.920,jersey_experiment_5,2023.2.2,Win32,84.74576271,,,,,,,,,,,,,,,,237.9463,239.7462,239.7463,240.6053,return,0.0696,,48.17708333,,,,,,FBP-YG-17.png,0.37,1.2,32,1,0,10,10,31,1,,,,,,,,,,,,,,,,,,,,,,,,,,,,,,,,,,,,,,,,
,,,,,WIN24_037,21,Male ,2024-02-02_16h35.21.920,jersey_experiment_5,2023.2.2,Win32,84.74576271,,,,,,,,,,,,,,,,240.6054,242.4041,242.4041,243.7936,return,0.118,,68.09895833,,,,,,FBP-YG-19.png,0.43,1.2,44,1,0,11,11,43,1,,,,,,,,,,,,,,,,,,,,,,,,,,,,,,,,,,,,,,,,
,,,,,WIN24_037,21,Male ,2024-02-02_16h35.21.920,jersey_experiment_5,2023.2.2,Win32,84.74576271,,,,,,,,,,,,,,,,243.7938,245.0866,245.0866,246.1702,return,0.0589,,75.52083333,,,,,,FBP-OG-19.png,0.43,1.2,14,0.5,0,12,12,13,1,,,,,,,,,,,,,,,,,,,,,,,,,,,,,,,,,,,,,,,,
,,,,,WIN24_037,21,Male ,2024-02-02_16h35.21.920,jersey_experiment_5,2023.2.2,Win32,84.74576271,,,,,,,,,,,,,,,,246.1704,247.9691,247.9692,250.994,return,0.0236,,58.72395833,,,,,,FBP-RB-81.png,0.37,1.2,22,1,0,13,13,21,1,,,,,,,,,,,,,,,,,,,,,,,,,,,,,,,,,,,,,,,,
,,,,,WIN24_037,21,Male ,2024-02-02_16h35.21.920,jersey_experiment_5,2023.2.2,Win32,84.74576271,,,,,,,,,,,,,,,,250.9941,252.2866,252.2866,253.1925,return,0.1209,,25.52083333,,,,,,FBP-PT-81.png,0.37,1.2,52,0.5,0,14,14,51,1,,,,,,,,,,,,,,,,,,,,,,,,,,,,,,,,,,,,,,,,
,,,,,WIN24_037,21,Male ,2024-02-02_16h35.21.920,jersey_experiment_5,2023.2.2,Win32,84.74576271,,,,,,,,,,,,,,,,253.1928,254.4871,254.4871,255.5925,return,0.1443,,22.65625,,,,,,FBP-OG-17.png,0.35,1.2,1,0.5,0,15,15,0,1,,,,,,,,,,,,,,,,,,,,,,,,,,,,,,,,,,,,,,,,
,,,,,WIN24_037,21,Male ,2024-02-02_16h35.21.920,jersey_experiment_5,2023.2.2,Win32,84.74576271,,,,,,,,,,,,,,,,255.5928,257.3937,257.3937,257.9103,return,0.041,,14.0625,,,,,,FBP-RB-91.png,0.35,1.2,26,1,0,16,16,25,1,,,,,,,,,,,,,,,,,,,,,,,,,,,,,,,,,,,,,,,,
,,,,,WIN24_037,21,Male ,2024-02-02_16h35.21.920,jersey_experiment_5,2023.2.2,Win32,84.74576271,,,,,,,,,,,,,,,,257.9108,259.2047,259.2048,260.1354,return,0.0237,,25.91145833,,,,,,FBP-OG-19.png,0.4,1.2,13,0.5,0,17,17,12,1,,,,,,,,,,,,,,,,,,,,,,,,,,,,,,,,,,,,,,,,
,,,,,WIN24_037,21,Male ,2024-02-02_16h35.21.920,jersey_experiment_5,2023.2.2,Win32,84.74576271,,,,,,,,,,,,,,,,260.1355,261.4284,261.4284,262.4751,return,0.0251,,72.00520833,,,,,,FBP-OG-17.png,0.45,1.2,5,0.5,0,18,18,4,1,,,,,,,,,,,,,,,,,,,,,,,,,,,,,,,,,,,,,,,,
,,,,,WIN24_037,21,Male ,2024-02-02_16h35.21.920,jersey_experiment_5,2023.2.2,Win32,84.74576271,,,,,,,,,,,,,,,,262.4753,264.2766,264.2766,265.4062,return,0.5179,,50.390625,,,,,,FBP-RB-91.png,0.4,1.2,28,1,0,19,19,27,1,,,,,,,,,,,,,,,,,,,,,,,,,,,,,,,,,,,,,,,,
,,,,,WIN24_037,21,Male ,2024-02-02_16h35.21.920,jersey_experiment_5,2023.2.2,Win32,84.74576271,,,,,,,,,,,,,,,,265.4064,266.6987,266.6987,268.1003,return,0.0827,,7.8125,,,,,,FBP-PT-81.png,0.35,1.2,51,0.5,0,20,20,50,1,,,,,,,,,,,,,,,,,,,,,,,,,,,,,,,,,,,,,,,,
,,,,,WIN24_037,21,Male ,2024-02-02_16h35.21.920,jersey_experiment_5,2023.2.2,Win32,84.74576271,,,,,,,,,,,,,,,,268.1005,269.9003,269.9004,270.7594,return,0.0472,,50.78125,,,,,,FBP-RB-81.png,0.4,1.2,23,1,0,21,21,22,1,,,,,,,,,,,,,,,,,,,,,,,,,,,,,,,,,,,,,,,,
,,,,,WIN24_037,21,Male ,2024-02-02_16h35.21.920,jersey_experiment_5,2023.2.2,Win32,84.74576271,,,,,,,,,,,,,,,,270.7595,272.5592,272.5592,273.3477,return,0.0827,,75.78125,,,,,,FBP-RB-71.png,0.43,1.2,19,1,0,22,22,18,1,,,,,,,,,,,,,,,,,,,,,,,,,,,,,,,,,,,,,,,,
,,,,,WIN24_037,21,Male ,2024-02-02_16h35.21.920,jersey_experiment_5,2023.2.2,Win32,84.74576271,,,,,,,,,,,,,,,,273.3479,274.6406,274.6406,276.4536,return,0.0944,,41.53645833,,,,,,FBP-OG-17.png,0.37,1.2,2,0.5,0,23,23,1,1,,,,,,,,,,,,,,,,,,,,,,,,,,,,,,,,,,,,,,,,
,,,,,WIN24_037,21,Male ,2024-02-02_16h35.21.920,jersey_experiment_5,2023.2.2,Win32,84.74576271,,,,,,,,,,,,,,,,276.4538,277.7467,277.7468,278.8654,return,0.012,,10.15625,,,,,,FBP-OG-18.png,0.35,1.2,6,0.5,0,24,24,5,1,,,,,,,,,,,,,,,,,,,,,,,,,,,,,,,,,,,,,,,,
,,,,,WIN24_037,21,Male ,2024-02-02_16h35.21.920,jersey_experiment_5,2023.2.2,Win32,84.74576271,,,,,,,,,,,,,,,,278.8655,280.1585,280.1586,281.5596,return,0.0708,,83.07291667,,,,,,FBP-OG-18.png,0.45,1.2,10,0.5,0,25,25,9,1,,,,,,,,,,,,,,,,,,,,,,,,,,,,,,,,,,,,,,,,
,,,,,WIN24_037,21,Male ,2024-02-02_16h35.21.920,jersey_experiment_5,2023.2.2,Win32,84.74576271,,,,,,,,,,,,,,,,281.5597,283.3596,283.3596,284.2289,return,0.0188,,25.26041667,,,,,,FBP-YG-19.png,0.37,1.2,42,1,0,26,26,41,1,,,,,,,,,,,,,,,,,,,,,,,,,,,,,,,,,,,,,,,,
,,,,,WIN24_037,21,Male ,2024-02-02_16h35.21.920,jersey_experiment_5,2023.2.2,Win32,84.74576271,,,,,,,,,,,,,,,,284.229,286.0305,286.0305,287.5481,return,0.0706,,71.09375,,,,,,FBP-RB-91.png,0.43,1.2,29,1,0,27,27,28,1,,,,,,,,,,,,,,,,,,,,,,,,,,,,,,,,,,,,,,,,
,,,,,WIN24_037,21,Male ,2024-02-02_16h35.21.920,jersey_experiment_5,2023.2.2,Win32,84.74576271,,,,,,,,,,,,,,,,287.5482,289.347,289.347,290.76,return,0.0474,,40.36458333,,,,,,FBP-YG-17.png,0.4,1.2,33,1,0,28,28,32,1,,,,,,,,,,,,,,,,,,,,,,,,,,,,,,,,,,,,,,,,
,,,,,WIN24_037,21,Male ,2024-02-02_16h35.21.920,jersey_experiment_5,2023.2.2,Win32,84.74576271,,,,,,,,,,,,,,,,290.7601,292.5587,292.5587,293.288,return,0.0627,,79.81770833,,,,,,FBP-RB-91.png,0.45,1.2,30,1,0,29,29,29,1,,,,,,,,,,,,,,,,,,,,,,,,,,,,,,,,,,,,,,,,
,,,,,WIN24_037,21,Male ,2024-02-02_16h35.21.920,jersey_experiment_5,2023.2.2,Win32,84.74576271,,,,,,,,,,,,,,,,293.2882,295.0883,295.0885,296.5837,return,0.0589,,49.86979167,,,,,,FBP-YG-19.png,0.4,1.2,43,1,0,30,30,42,1,,,,,,,,,,,,,,,,,,,,,,,,,,,,,,,,,,,,,,,,
,,,,,WIN24_037,21,Male ,2024-02-02_16h35.21.920,jersey_experiment_5,2023.2.2,Win32,84.74576271,,,,,,,,,,,,,,,,296.5838,298.3826,298.3826,299.1943,return,0.0606,,28.90625,,,,,,FBP-RB-91.png,0.37,1.2,27,1,0,31,31,26,1,,,,,,,,,,,,,,,,,,,,,,,,,,,,,,,,,,,,,,,,
,,,,,WIN24_037,21,Male ,2024-02-02_16h35.21.920,jersey_experiment_5,2023.2.2,Win32,84.74576271,,,,,,,,,,,,,,,,299.1945,300.4885,300.4886,301.5017,return,0.0708,,80.72916667,,,,,,FBP-PT-91.png,0.45,1.2,60,0.5,0,32,32,59,1,,,,,,,,,,,,,,,,,,,,,,,,,,,,,,,,,,,,,,,,
,,,,,WIN24_037,21,Male ,2024-02-02_16h35.21.920,jersey_experiment_5,2023.2.2,Win32,84.74576271,,,,,,,,,,,,,,,,301.5018,302.7946,302.7946,303.7825,return,0.0408,,79.94791667,,,,,,FBP-PT-71.png,0.45,1.2,50,0.5,0,33,33,49,1,,,,,,,,,,,,,,,,,,,,,,,,,,,,,,,,,,,,,,,,
,,,,,WIN24_037,21,Male ,2024-02-02_16h35.21.920,jersey_experiment_5,2023.2.2,Win32,84.74576271,,,,,,,,,,,,,,,,303.7826,305.077,305.0771,306.1959,return,0.0354,,70.3125,,,,,,FBP-PT-91.png,0.43,1.2,59,0.5,0,34,34,58,1,,,,,,,,,,,,,,,,,,,,,,,,,,,,,,,,,,,,,,,,
,,,,,WIN24_037,21,Male ,2024-02-02_16h35.21.920,jersey_experiment_5,2023.2.2,Win32,84.74576271,,,,,,,,,,,,,,,,306.1961,307.9958,307.9959,308.5474,return,0.0319,,85.02604167,,,,,,FBP-RB-81.png,0.45,1.2,25,1,0,35,35,24,1,,,,,,,,,,,,,,,,,,,,,,,,,,,,,,,,,,,,,,,,
,,,,,WIN24_037,21,Male ,2024-02-02_16h35.21.920,jersey_experiment_5,2023.2.2,Win32,84.74576271,,,,,,,,,,,,,,,,308.5476,309.8419,309.8419,314.4548,return,2.8707,,71.35416667,,,,,,FBP-OG-17.png,0.4,1.2,3,0.5,0,36,36,2,1,,,,,,,,,,,,,,,,,,,,,,,,,,,,,,,,,,,,,,,,
,,,,,WIN24_037,21,Male ,2024-02-02_16h35.21.920,jersey_experiment_5,2023.2.2,Win32,84.74576271,,,,,,,,,,,,,,,,314.4549,315.7481,315.7481,317.4785,return,0.0472,,77.734375,,,,,,FBP-OG-19.png,0.45,1.2,15,0.5,0,37,37,14,1,,,,,,,,,,,,,,,,,,,,,,,,,,,,,,,,,,,,,,,,
,,,,,WIN24_037,21,Male ,2024-02-02_16h35.21.920,jersey_experiment_5,2023.2.2,Win32,84.74576271,,,,,,,,,,,,,,,,317.4788,318.7716,318.7717,320.3258,return,0.0472,,71.35416667,,,,,,FBP-PT-81.png,0.43,1.2,54,0.5,0,38,38,53,1,,,,,,,,,,,,,,,,,,,,,,,,,,,,,,,,,,,,,,,,
,,,,,WIN24_037,21,Male ,2024-02-02_16h35.21.920,jersey_experiment_5,2023.2.2,Win32,84.74576271,,,,,,,,,,,,,,,,320.326,321.6188,321.6188,322.5832,return,0.0279,,57.8125,,,,,,FBP-PT-91.png,0.4,1.2,58,0.5,0,39,39,57,1,,,,,,,,,,,,,,,,,,,,,,,,,,,,,,,,,,,,,,,,
,,,,,WIN24_037,21,Male ,2024-02-02_16h35.21.920,jersey_experiment_5,2023.2.2,Win32,84.74576271,,,,,,,,,,,,,,,,322.5834,324.3833,324.3834,325.1376,return,0.0705,,29.94791667,,,,,,FBP-RB-81.png,0.35,1.2,21,1,0,40,40,20,1,,,,,,,,,,,,,,,,,,,,,,,,,,,,,,,,,,,,,,,,
,,,,,WIN24_037,21,Male ,2024-02-02_16h35.21.920,jersey_experiment_5,2023.2.2,Win32,84.74576271,,,,,,,,,,,,,,,,325.1378,326.9376,326.9377,327.7378,return,0.059,,70.96354167,,,,,,FBP-YG-17.png,0.45,1.2,35,1,0,41,41,34,1,,,,,,,,,,,,,,,,,,,,,,,,,,,,,,,,,,,,,,,,
,,,,,WIN24_037,21,Male ,2024-02-02_16h35.21.920,jersey_experiment_5,2023.2.2,Win32,84.74576271,,,,,,,,,,,,,,,,327.7381,329.5381,329.5382,330.8195,return,0.0439,,73.4375,,,,,,FBP-RB-81.png,0.43,1.2,24,1,0,42,42,23,1,,,,,,,,,,,,,,,,,,,,,,,,,,,,,,,,,,,,,,,,
,,,,,WIN24_037,21,Male ,2024-02-02_16h35.21.920,jersey_experiment_5,2023.2.2,Win32,84.74576271,,,,,,,,,,,,,,,,330.8199,332.62,332.6201,333.7378,return,0.1205,,72.52604167,,,,,,FBP-YG-19.png,0.45,1.2,45,1,0,43,43,44,1,,,,,,,,,,,,,,,,,,,,,,,,,,,,,,,,,,,,,,,,
,,,,,WIN24_037,21,Male ,2024-02-02_16h35.21.920,jersey_experiment_5,2023.2.2,Win32,84.74576271,,,,,,,,,,,,,,,,333.7383,335.5384,335.5385,336.2198,return,0.0599,,50.91145833,,,,,,FBP-YG-18.png,0.4,1.2,38,1,0,44,44,37,1,,,,,,,,,,,,,,,,,,,,,,,,,,,,,,,,,,,,,,,,
,,,,,WIN24_037,21,Male ,2024-02-02_16h35.21.920,jersey_experiment_5,2023.2.2,Win32,84.74576271,,,,,,,,,,,,,,,,336.2202,337.5135,337.5137,338.5022,return,0.0761,,36.328125,,,,,,FBP-PT-91.png,0.37,1.2,57,0.5,0,45,45,56,1,,,,,,,,,,,,,,,,,,,,,,,,,,,,,,,,,,,,,,,,
,,,,,WIN24_037,21,Male ,2024-02-02_16h35.21.920,jersey_experiment_5,2023.2.2,Win32,84.74576271,,,,,,,,,,,,,,,,338.5025,340.3016,340.3016,340.7959,return,0.0228,,13.28125,,,,,,FBP-YG-19.png,0.35,1.2,41,1,0,46,46,40,1,,,,,,,,,,,,,,,,,,,,,,,,,,,,,,,,,,,,,,,,
,,,,,WIN24_037,21,Male ,2024-02-02_16h35.21.920,jersey_experiment_5,2023.2.2,Win32,84.74576271,,,,,,,,,,,,,,,,340.7963,342.5969,342.5969,343.1488,return,0.0122,,17.70833333,,,,,,FBP-YG-18.png,0.35,1.2,36,1,0,47,47,35,1,,,,,,,,,,,,,,,,,,,,,,,,,,,,,,,,,,,,,,,,
,,,,,WIN24_037,21,Male ,2024-02-02_16h35.21.920,jersey_experiment_5,2023.2.2,Win32,84.74576271,,,,,,,,,,,,,,,,343.1492,344.444,344.4441,345.467,return,0.0365,,13.02083333,,,,,,FBP-OG-19.png,0.37,1.2,12,0.5,0,48,48,11,1,,,,,,,,,,,,,,,,,,,,,,,,,,,,,,,,,,,,,,,,
,,,,,WIN24_037,21,Male ,2024-02-02_16h35.21.920,jersey_experiment_5,2023.2.2,Win32,84.74576271,,,,,,,,,,,,,,,,345.4675,347.2669,347.2669,349.8672,return,1.6837,,74.86979167,,,,,,FBP-RB-71.png,0.45,1.2,20,1,0,49,49,19,1,,,,,,,,,,,,,,,,,,,,,,,,,,,,,,,,,,,,,,,,
,,,,,WIN24_037,21,Male ,2024-02-02_16h35.21.920,jersey_experiment_5,2023.2.2,Win32,84.74576271,,,,,,,,,,,,,,,,349.8677,351.1611,351.1612,352.8439,return,0.7421,,38.671875,,,,,,FBP-PT-71.png,0.37,1.2,47,0.5,0,50,50,46,1,,,,,,,,,,,,,,,,,,,,,,,,,,,,,,,,,,,,,,,,
,,,,,WIN24_037,21,Male ,2024-02-02_16h35.21.920,jersey_experiment_5,2023.2.2,Win32,84.74576271,,,,,,,,,,,,,,,,352.8444,354.1377,354.1378,355.3026,return,0.0878,,53.90625,,,,,,FBP-OG-17.png,0.43,1.2,4,0.5,0,51,51,3,1,,,,,,,,,,,,,,,,,,,,,,,,,,,,,,,,,,,,,,,,
,,,,,WIN24_037,21,Male ,2024-02-02_16h35.21.920,jersey_experiment_5,2023.2.2,Win32,84.74576271,,,,,,,,,,,,,,,,355.3032,356.5966,356.5968,357.4671,return,0.0359,,60.41666667,,,,,,FBP-PT-81.png,0.45,1.2,55,0.5,0,52,52,54,1,,,,,,,,,,,,,,,,,,,,,,,,,,,,,,,,,,,,,,,,
,,,,,WIN24_037,21,Male ,2024-02-02_16h35.21.920,jersey_experiment_5,2023.2.2,Win32,84.74576271,,,,,,,,,,,,,,,,357.4675,359.2672,359.2672,360.5858,return,0.1321,,26.30208333,,,,,,FBP-YG-18.png,0.37,1.2,37,1,0,53,53,36,1,,,,,,,,,,,,,,,,,,,,,,,,,,,,,,,,,,,,,,,,
,,,,,WIN24_037,21,Male ,2024-02-02_16h35.21.920,jersey_experiment_5,2023.2.2,Win32,84.74576271,,,,,,,,,,,,,,,,360.5862,361.8793,361.8794,362.8087,return,0.0499,,25,,,,,,FBP-OG-18.png,0.4,1.2,8,0.5,0,54,54,7,1,,,,,,,,,,,,,,,,,,,,,,,,,,,,,,,,,,,,,,,,
,,,,,WIN24_037,21,Male ,2024-02-02_16h35.21.920,jersey_experiment_5,2023.2.2,Win32,84.74576271,,,,,,,,,,,,,,,,362.8091,364.1039,364.104,365.1621,return,0.061,,10.02604167,,,,,,FBP-OG-19.png,0.35,1.2,11,0.5,0,55,55,10,1,,,,,,,,,,,,,,,,,,,,,,,,,,,,,,,,,,,,,,,,
,,,,,WIN24_037,21,Male ,2024-02-02_16h35.21.920,jersey_experiment_5,2023.2.2,Win32,84.74576271,,,,,,,,,,,,,,,,365.1626,366.9618,366.962,369.1974,return,0.1061,,33.59375,,,,,,FBP-RB-71.png,0.37,1.2,17,1,0,56,56,16,1,,,,,,,,,,,,,,,,,,,,,,,,,,,,,,,,,,,,,,,,
,,,,,WIN24_037,21,Male ,2024-02-02_16h35.21.920,jersey_experiment_5,2023.2.2,Win32,84.74576271,,,,,,,,,,,,,,,,369.1978,370.998,370.998,371.7381,return,0.0481,,56.640625,,,,,,FBP-YG-18.png,0.43,1.2,39,1,0,57,57,38,1,,,,,,,,,,,,,,,,,,,,,,,,,,,,,,,,,,,,,,,,
,,,,,WIN24_037,21,Male ,2024-02-02_16h35.21.920,jersey_experiment_5,2023.2.2,Win32,84.74576271,,,,,,,,,,,,,,,,371.7385,373.5393,373.5393,374.3736,return,0.1233,,64.0625,,,,,,FBP-YG-18.png,0.45,1.2,40,1,0,58,58,39,1,,,,,,,,,,,,,,,,,,,,,,,,,,,,,,,,,,,,,,,,
,,,,,WIN24_037,21,Male ,2024-02-02_16h35.21.920,jersey_experiment_5,2023.2.2,Win32,84.74576271,,,,,,,,,,,,,,,,374.3738,375.668,375.6681,376.7393,return,0.0682,,60.15625,,,,,,FBP-PT-81.png,0.4,1.2,53,0.5,0,59,59,52,1,,,,,,,,,,,,,,,,,,,,,,,,,,,,,,,,,,,,,,,,
,,,,,WIN24_037,21,Male ,2024-02-02_16h35.21.920,jersey_experiment_5,2023.2.2,Win32,84.74576271,,,,,,,,,,,,,,,,,,,,,,,,,,,,,,,,,,,,,,,376.74,496.7443,,,,,,,,,,,,,,,,,,,,,,,,,,,,,,,,,,,,,,
,,,,,WIN24_037,21,Male ,2024-02-02_16h35.21.920,jersey_experiment_5,2023.2.2,Win32,84.74576271,,,,,,,,,,,,,,,,,,,,,,,,,,,,,,,,,,,,,,,,,496.7446,499.1313,return,2.3693,,,,,,,,,,,,,,,,,,,,,,,,,,,,,,,,,,
,,,,,WIN24_037,21,Male ,2024-02-02_16h35.21.920,jersey_experiment_5,2023.2.2,Win32,84.74576271,,,,,,,,,,,,,,,,499.1436,500.4374,500.4375,502.1665,return,0.6991,,23.95833333,,,,,,FBP-YG-81.png,0.35,1.2,36,0.5,,,,,,,,,,,,,0,0,0,35,1,,,,,,,,,,,,,,,,,,,,,,,,,,,,
,,,,,WIN24_037,21,Male ,2024-02-02_16h35.21.920,jersey_experiment_5,2023.2.2,Win32,84.74576271,,,,,,,,,,,,,,,,502.1671,503.4618,503.4618,504.696,return,0.086,,65.88541667,,,,,,FBP-YG-71.png,0.45,1.2,35,0.5,,,,,,,,,,,,,0,1,1,34,1,,,,,,,,,,,,,,,,,,,,,,,,,,,,
,,,,,WIN24_037,21,Male ,2024-02-02_16h35.21.920,jersey_experiment_5,2023.2.2,Win32,84.74576271,,,,,,,,,,,,,,,,504.6965,506.4975,506.4975,507.6374,return,0.0524,,49.21875,,,,,,FBP-OG-71.png,0.4,1.2,3,1,,,,,,,,,,,,,0,2,2,2,1,,,,,,,,,,,,,,,,,,,,,,,,,,,,
,,,,,WIN24_037,21,Male ,2024-02-02_16h35.21.920,jersey_experiment_5,2023.2.2,Win32,84.74576271,,,,,,,,,,,,,,,,507.6378,508.9317,508.9318,509.9433,return,0.0514,,24.34895833,,,,,,FBP-RB-19.png,0.35,1.2,26,0.5,,,,,,,,,,,,,0,3,3,25,1,,,,,,,,,,,,,,,,,,,,,,,,,,,,
,,,,,WIN24_037,21,Male ,2024-02-02_16h35.21.920,jersey_experiment_5,2023.2.2,Win32,84.74576271,,,,,,,,,,,,,,,,509.9437,511.7444,511.7444,512.567,return,0.0872,,76.69270833,,,,,,FBP-PT-17.png,0.45,1.2,50,1,,,,,,,,,,,,,0,4,4,49,1,,,,,,,,,,,,,,,,,,,,,,,,,,,,
,,,,,WIN24_037,21,Male ,2024-02-02_16h35.21.920,jersey_experiment_5,2023.2.2,Win32,84.74576271,,,,,,,,,,,,,,,,512.5674,513.8613,513.8614,515.1317,return,0.0355,,49.86979167,,,,,,FBP-RB-19.png,0.37,1.2,27,0.5,,,,,,,,,,,,,0,5,5,26,1,,,,,,,,,,,,,,,,,,,,,,,,,,,,
,,,,,WIN24_037,21,Male ,2024-02-02_16h35.21.920,jersey_experiment_5,2023.2.2,Win32,84.74576271,,,,,,,,,,,,,,,,515.1322,516.4264,516.4265,517.2739,return,0.0497,,19.27083333,,,,,,FBP-RB-18.png,0.37,1.2,22,0.5,,,,,,,,,,,,,0,6,6,21,1,,,,,,,,,,,,,,,,,,,,,,,,,,,,
,,,,,WIN24_037,21,Male ,2024-02-02_16h35.21.920,jersey_experiment_5,2023.2.2,Win32,84.74576271,,,,,,,,,,,,,,,,517.2742,519.0741,519.0741,519.8972,return,0.0503,,24.21875,,,,,,FBP-PT-18.png,0.37,1.2,52,1,,,,,,,,,,,,,0,7,7,51,1,,,,,,,,,,,,,,,,,,,,,,,,,,,,
,,,,,WIN24_037,21,Male ,2024-02-02_16h35.21.920,jersey_experiment_5,2023.2.2,Win32,84.74576271,,,,,,,,,,,,,,,,519.8978,521.191,521.191,522.4615,return,0.0589,,79.6875,,,,,,FBP-RB-19.png,0.45,1.2,30,0.5,,,,,,,,,,,,,0,8,8,29,1,,,,,,,,,,,,,,,,,,,,,,,,,,,,
,,,,,WIN24_037,21,Male ,2024-02-02_16h35.21.920,jersey_experiment_5,2023.2.2,Win32,84.74576271,,,,,,,,,,,,,,,,522.4621,524.2629,524.2629,524.9792,return,0.0672,,92.31770833,,,,,,FBP-OG-91.png,0.45,1.2,15,1,,,,,,,,,,,,,0,9,9,14,1,,,,,,,,,,,,,,,,,,,,,,,,,,,,
,,,,,WIN24_037,21,Male ,2024-02-02_16h35.21.920,jersey_experiment_5,2023.2.2,Win32,84.74576271,,,,,,,,,,,,,,,,524.9796,526.7805,526.7806,527.4145,return,0.0756,,84.765625,,,,,,FBP-PT-19.png,0.43,1.2,59,1,,,,,,,,,,,,,0,10,10,58,1,,,,,,,,,,,,,,,,,,,,,,,,,,,,
,,,,,WIN24_037,21,Male ,2024-02-02_16h35.21.920,jersey_experiment_5,2023.2.2,Win32,84.74576271,,,,,,,,,,,,,,,,527.4149,529.2148,529.2148,532.3802,return,0.0829,,44.921875,,,,,,FBP-OG-81.png,0.37,1.2,7,1,,,,,,,,,,,,,0,11,11,6,1,,,,,,,,,,,,,,,,,,,,,,,,,,,,
,,,,,WIN24_037,21,Male ,2024-02-02_16h35.21.920,jersey_experiment_5,2023.2.2,Win32,84.74576271,,,,,,,,,,,,,,,,532.3806,533.6737,533.6738,535.0747,return,0.1282,,22.13541667,,,,,,FBP-YG-81.png,0.37,1.2,37,0.5,,,,,,,,,,,,,0,12,12,36,1,,,,,,,,,,,,,,,,,,,,,,,,,,,,
,,,,,WIN24_037,21,Male ,2024-02-02_16h35.21.920,jersey_experiment_5,2023.2.2,Win32,84.74576271,,,,,,,,,,,,,,,,535.0751,536.8752,536.8753,537.6384,return,0.0757,,73.046875,,,,,,FBP-PT-18.png,0.45,1.2,55,1,,,,,,,,,,,,,0,13,13,54,1,,,,,,,,,,,,,,,,,,,,,,,,,,,,
,,,,,WIN24_037,21,Male ,2024-02-02_16h35.21.920,jersey_experiment_5,2023.2.2,Win32,84.74576271,,,,,,,,,,,,,,,,537.6388,538.933,538.933,539.7567,return,0.0599,,89.32291667,,,,,,FBP-RB-17.png,0.45,1.2,20,0.5,,,,,,,,,,,,,0,14,14,19,1,,,,,,,,,,,,,,,,,,,,,,,,,,,,
,,,,,WIN24_037,21,Male ,2024-02-02_16h35.21.920,jersey_experiment_5,2023.2.2,Win32,84.74576271,,,,,,,,,,,,,,,,539.7572,541.5566,541.5567,543.368,return,0.8148,,56.77083333,,,,,,FBP-PT-19.png,0.35,1.2,56,1,,,,,,,,,,,,,0,15,15,55,1,,,,,,,,,,,,,,,,,,,,,,,,,,,,
,,,,,WIN24_037,21,Male ,2024-02-02_16h35.21.920,jersey_experiment_5,2023.2.2,Win32,84.74576271,,,,,,,,,,,,,,,,543.3685,545.1683,545.1684,546.0505,return,0.0681,,44.40104167,,,,,,FBP-PT-19.png,0.37,1.2,57,1,,,,,,,,,,,,,0,16,16,56,1,,,,,,,,,,,,,,,,,,,,,,,,,,,,
,,,,,WIN24_037,21,Male ,2024-02-02_16h35.21.920,jersey_experiment_5,2023.2.2,Win32,84.74576271,,,,,,,,,,,,,,,,546.0509,547.3449,547.3451,548.1329,return,0.03,,64.58333333,,,,,,FBP-RB-17.png,0.4,1.2,18,0.5,,,,,,,,,,,,,0,17,17,17,1,,,,,,,,,,,,,,,,,,,,,,,,,,,,
,,,,,WIN24_037,21,Male ,2024-02-02_16h35.21.920,jersey_experiment_5,2023.2.2,Win32,84.74576271,,,,,,,,,,,,,,,,548.1333,549.4273,549.4274,551.1102,return,0.1001,,30.46875,,,,,,FBP-YG-91.png,0.35,1.2,41,0.5,,,,,,,,,,,,,0,18,18,40,1,,,,,,,,,,,,,,,,,,,,,,,,,,,,
,,,,,WIN24_037,21,Male ,2024-02-02_16h35.21.920,jersey_experiment_5,2023.2.2,Win32,84.74576271,,,,,,,,,,,,,,,,551.1106,552.404,552.4041,553.498,return,0.0606,,70.18229167,,,,,,FBP-YG-81.png,0.45,1.2,40,0.5,,,,,,,,,,,,,0,19,19,39,1,,,,,,,,,,,,,,,,,,,,,,,,,,,,
,,,,,WIN24_037,21,Male ,2024-02-02_16h35.21.920,jersey_experiment_5,2023.2.2,Win32,84.74576271,,,,,,,,,,,,,,,,553.4984,555.2989,555.299,557.0162,return,0.0981,,73.95833333,,,,,,FBP-PT-19.png,0.45,1.2,60,1,,,,,,,,,,,,,0,20,20,59,1,,,,,,,,,,,,,,,,,,,,,,,,,,,,
,,,,,WIN24_037,21,Male ,2024-02-02_16h35.21.920,jersey_experiment_5,2023.2.2,Win32,84.74576271,,,,,,,,,,,,,,,,557.0166,558.3101,558.3102,559.546,return,0.132,,31.11979167,,,,,,FBP-RB-17.png,0.35,1.2,16,0.5,,,,,,,,,,,,,0,21,21,15,1,,,,,,,,,,,,,,,,,,,,,,,,,,,,
,,,,,WIN24_037,21,Male ,2024-02-02_16h35.21.920,jersey_experiment_5,2023.2.2,Win32,84.74576271,,,,,,,,,,,,,,,,559.5464,560.8395,560.8397,565.8166,return,0.1565,,48.4375,,,,,,FBP-RB-18.png,0.4,1.2,23,0.5,,,,,,,,,,,,,0,22,22,22,1,,,,,,,,,,,,,,,,,,,,,,,,,,,,
,,,,,WIN24_037,21,Male ,2024-02-02_16h35.21.920,jersey_experiment_5,2023.2.2,Win32,84.74576271,,,,,,,,,,,,,,,,565.8169,567.1105,567.1105,568.0278,return,0.048,,58.85416667,,,,,,FBP-YG-81.png,0.43,1.2,39,0.5,,,,,,,,,,,,,0,23,23,38,1,,,,,,,,,,,,,,,,,,,,,,,,,,,,
,,,,,WIN24_037,21,Male ,2024-02-02_16h35.21.920,jersey_experiment_5,2023.2.2,Win32,84.74576271,,,,,,,,,,,,,,,,568.0284,569.8289,569.829,570.7808,return,0.0477,,76.82291667,,,,,,FBP-OG-81.png,0.45,1.2,10,1,,,,,,,,,,,,,0,24,24,9,1,,,,,,,,,,,,,,,,,,,,,,,,,,,,
,,,,,WIN24_037,21,Male ,2024-02-02_16h35.21.920,jersey_experiment_5,2023.2.2,Win32,84.74576271,,,,,,,,,,,,,,,,570.7813,572.5819,572.5819,573.2398,return,0.0272,,49.86979167,,,,,,FBP-PT-18.png,0.4,1.2,53,1,,,,,,,,,,,,,0,25,25,52,1,,,,,,,,,,,,,,,,,,,,,,,,,,,,
,,,,,WIN24_037,21,Male ,2024-02-02_16h35.21.920,jersey_experiment_5,2023.2.2,Win32,84.74576271,,,,,,,,,,,,,,,,573.2402,575.0411,575.0412,575.6876,return,0.0521,,28.77604167,,,,,,FBP-OG-91.png,0.37,1.2,12,1,,,,,,,,,,,,,0,26,26,11,1,,,,,,,,,,,,,,,,,,,,,,,,,,,,
,,,,,WIN24_037,21,Male ,2024-02-02_16h35.21.920,jersey_experiment_5,2023.2.2,Win32,84.74576271,,,,,,,,,,,,,,,,575.6879,577.488,577.4882,578.087,return,0.0287,,13.80208333,,,,,,FBP-PT-17.png,0.35,1.2,46,1,,,,,,,,,,,,,0,27,27,45,1,,,,,,,,,,,,,,,,,,,,,,,,,,,,
,,,,,WIN24_037,21,Male ,2024-02-02_16h35.21.920,jersey_experiment_5,2023.2.2,Win32,84.74576271,,,,,,,,,,,,,,,,578.0874,579.8873,579.8874,580.7459,return,0.0488,,42.31770833,,,,,,FBP-PT-17.png,0.4,1.2,48,1,,,,,,,,,,,,,0,28,28,47,1,,,,,,,,,,,,,,,,,,,,,,,,,,,,
,,,,,WIN24_037,21,Male ,2024-02-02_16h35.21.920,jersey_experiment_5,2023.2.2,Win32,84.74576271,,,,,,,,,,,,,,,,580.7463,582.0404,582.0404,582.9225,return,0.0364,,61.71875,,,,,,FBP-YG-71.png,0.43,1.2,34,0.5,,,,,,,,,,,,,0,29,29,33,1,,,,,,,,,,,,,,,,,,,,,,,,,,,,
,,,,,WIN24_037,21,Male ,2024-02-02_16h35.21.920,jersey_experiment_5,2023.2.2,Win32,84.74576271,,,,,,,,,,,,,,,,582.9229,584.2167,584.2168,585.099,return,0.0123,,36.328125,,,,,,FBP-YG-91.png,0.37,1.2,42,0.5,,,,,,,,,,,,,0,30,30,41,1,,,,,,,,,,,,,,,,,,,,,,,,,,,,
,,,,,WIN24_037,21,Male ,2024-02-02_16h35.21.920,jersey_experiment_5,2023.2.2,Win32,84.74576271,,,,,,,,,,,,,,,,585.0993,586.3938,586.3938,587.4998,return,0.2597,,26.171875,,,,,,FBP-RB-18.png,0.35,1.2,21,0.5,,,,,,,,,,,,,0,31,31,20,1,,,,,,,,,,,,,,,,,,,,,,,,,,,,
,,,,,WIN24_037,21,Male ,2024-02-02_16h35.21.920,jersey_experiment_5,2023.2.2,Win32,84.74576271,,,,,,,,,,,,,,,,587.5002,589.3004,589.3004,589.9467,return,0.0725,,18.09895833,,,,,,FBP-OG-91.png,0.35,1.2,11,1,,,,,,,,,,,,,0,32,32,10,1,,,,,,,,,,,,,,,,,,,,,,,,,,,,
,,,,,WIN24_037,21,Male ,2024-02-02_16h35.21.920,jersey_experiment_5,2023.2.2,Win32,84.74576271,,,,,,,,,,,,,,,,589.9471,591.2406,591.2406,592.1352,return,0.099,,19.01041667,,,,,,FBP-YG-71.png,0.35,1.2,31,0.5,,,,,,,,,,,,,0,33,33,30,1,,,,,,,,,,,,,,,,,,,,,,,,,,,,
,,,,,WIN24_037,21,Male ,2024-02-02_16h35.21.920,jersey_experiment_5,2023.2.2,Win32,84.74576271,,,,,,,,,,,,,,,,592.1356,593.4298,593.4299,594.3112,return,0.0398,,34.765625,,,,,,FBP-YG-71.png,0.37,1.2,32,0.5,,,,,,,,,,,,,0,34,34,31,1,,,,,,,,,,,,,,,,,,,,,,,,,,,,
,,,,,WIN24_037,21,Male ,2024-02-02_16h35.21.920,jersey_experiment_5,2023.2.2,Win32,84.74576271,,,,,,,,,,,,,,,,594.3116,595.6056,595.6057,596.6291,return,0.0293,,52.99479167,,,,,,FBP-YG-91.png,0.4,1.2,43,0.5,,,,,,,,,,,,,0,35,35,42,1,,,,,,,,,,,,,,,,,,,,,,,,,,,,
,,,,,WIN24_037,21,Male ,2024-02-02_16h35.21.920,jersey_experiment_5,2023.2.2,Win32,84.74576271,,,,,,,,,,,,,,,,596.6299,597.9232,597.9232,598.8995,return,0.0197,,57.421875,,,,,,FBP-YG-81.png,0.4,1.2,38,0.5,,,,,,,,,,,,,0,36,36,37,1,,,,,,,,,,,,,,,,,,,,,,,,,,,,
,,,,,WIN24_037,21,Male ,2024-02-02_16h35.21.920,jersey_experiment_5,2023.2.2,Win32,84.74576271,,,,,,,,,,,,,,,,598.8999,600.7007,600.7008,601.3347,return,0.0627,,76.953125,,,,,,FBP-PT-18.png,0.43,1.2,54,1,,,,,,,,,,,,,0,37,37,53,1,,,,,,,,,,,,,,,,,,,,,,,,,,,,
,,,,,WIN24_037,21,Male ,2024-02-02_16h35.21.920,jersey_experiment_5,2023.2.2,Win32,84.74576271,,,,,,,,,,,,,,,,601.335,602.6293,602.6294,604.1704,return,0.0592,,42.70833333,,,,,,FBP-RB-17.png,0.37,1.2,17,0.5,,,,,,,,,,,,,0,38,38,16,1,,,,,,,,,,,,,,,,,,,,,,,,,,,,
,,,,,WIN24_037,21,Male ,2024-02-02_16h35.21.920,jersey_experiment_5,2023.2.2,Win32,84.74576271,,,,,,,,,,,,,,,,604.1708,605.9705,605.9706,606.9353,return,0.0634,,58.07291667,,,,,,FBP-PT-19.png,0.4,1.2,58,1,,,,,,,,,,,,,0,39,39,57,1,,,,,,,,,,,,,,,,,,,,,,,,,,,,
,,,,,WIN24_037,21,Male ,2024-02-02_16h35.21.920,jersey_experiment_5,2023.2.2,Win32,84.74576271,,,,,,,,,,,,,,,,606.9357,608.7363,608.7363,609.5,return,0.0361,,82.68229167,,,,,,FBP-OG-71.png,0.45,1.2,5,1,,,,,,,,,,,,,0,40,40,4,1,,,,,,,,,,,,,,,,,,,,,,,,,,,,
,,,,,WIN24_037,21,Male ,2024-02-02_16h35.21.920,jersey_experiment_5,2023.2.2,Win32,84.74576271,,,,,,,,,,,,,,,,609.5003,610.7943,610.7944,611.6294,return,0.0236,,84.63541667,,,,,,FBP-YG-91.png,0.43,1.2,44,0.5,,,,,,,,,,,,,0,41,41,43,1,,,,,,,,,,,,,,,,,,,,,,,,,,,,
,,,,,WIN24_037,21,Male ,2024-02-02_16h35.21.920,jersey_experiment_5,2023.2.2,Win32,84.74576271,,,,,,,,,,,,,,,,611.6298,612.9239,612.9239,614.2648,return,0.0263,,71.61458333,,,,,,FBP-RB-19.png,0.4,1.2,28,0.5,,,,,,,,,,,,,0,42,42,27,1,,,,,,,,,,,,,,,,,,,,,,,,,,,,
,,,,,WIN24_037,21,Male ,2024-02-02_16h35.21.920,jersey_experiment_5,2023.2.2,Win32,84.74576271,,,,,,,,,,,,,,,,614.2653,616.0652,616.0653,616.6179,return,0.0722,,83.07291667,,,,,,FBP-OG-81.png,0.43,1.2,9,1,,,,,,,,,,,,,0,43,43,8,1,,,,,,,,,,,,,,,,,,,,,,,,,,,,
,,,,,WIN24_037,21,Male ,2024-02-02_16h35.21.920,jersey_experiment_5,2023.2.2,Win32,84.74576271,,,,,,,,,,,,,,,,616.6184,618.4193,618.4193,619.0533,return,0.0461,,78.125,,,,,,FBP-OG-71.png,0.43,1.2,4,1,,,,,,,,,,,,,0,44,44,3,1,,,,,,,,,,,,,,,,,,,,,,,,,,,,
,,,,,WIN24_037,21,Male ,2024-02-02_16h35.21.920,jersey_experiment_5,2023.2.2,Win32,84.74576271,,,,,,,,,,,,,,,,619.0537,620.8545,620.8546,621.6417,return,0.0373,,21.875,,,,,,FBP-PT-18.png,0.35,1.2,51,1,,,,,,,,,,,,,0,45,45,50,1,,,,,,,,,,,,,,,,,,,,,,,,,,,,
,,,,,WIN24_037,21,Male ,2024-02-02_16h35.21.920,jersey_experiment_5,2023.2.2,Win32,84.74576271,,,,,,,,,,,,,,,,621.6421,623.4418,623.4419,624.8535,return,0.0768,,32.03125,,,,,,FBP-OG-91.png,0.4,1.2,13,1,,,,,,,,,,,,,0,46,46,12,1,,,,,,,,,,,,,,,,,,,,,,,,,,,,
,,,,,WIN24_037,21,Male ,2024-02-02_16h35.21.920,jersey_experiment_5,2023.2.2,Win32,84.74576271,,,,,,,,,,,,,,,,624.8539,626.6545,626.6546,627.2536,return,0.0532,,58.72395833,,,,,,FBP-PT-17.png,0.43,1.2,49,1,,,,,,,,,,,,,0,47,47,48,1,,,,,,,,,,,,,,,,,,,,,,,,,,,,
,,,,,WIN24_037,21,Male ,2024-02-02_16h35.21.920,jersey_experiment_5,2023.2.2,Win32,84.74576271,,,,,,,,,,,,,,,,627.254,628.548,628.5481,629.5124,return,0.0504,,73.56770833,,,,,,FBP-RB-17.png,0.43,1.2,19,0.5,,,,,,,,,,,,,0,48,48,18,1,,,,,,,,,,,,,,,,,,,,,,,,,,,,
,,,,,WIN24_037,21,Male ,2024-02-02_16h35.21.920,jersey_experiment_5,2023.2.2,Win32,84.74576271,,,,,,,,,,,,,,,,629.513,630.807,630.8071,631.7243,return,0.0951,,74.08854167,,,,,,FBP-RB-19.png,0.43,1.2,29,0.5,,,,,,,,,,,,,0,49,49,28,1,,,,,,,,,,,,,,,,,,,,,,,,,,,,
,,,,,WIN24_037,21,Male ,2024-02-02_16h35.21.920,jersey_experiment_5,2023.2.2,Win32,84.74576271,,,,,,,,,,,,,,,,631.7248,633.5245,633.5245,634.5714,return,0.0473,,15.10416667,,,,,,FBP-OG-81.png,0.35,1.2,6,1,,,,,,,,,,,,,0,50,50,5,1,,,,,,,,,,,,,,,,,,,,,,,,,,,,
,,,,,WIN24_037,21,Male ,2024-02-02_16h35.21.920,jersey_experiment_5,2023.2.2,Win32,84.74576271,,,,,,,,,,,,,,,,634.5718,635.8657,635.8657,636.8185,return,0.0444,,83.59375,,,,,,FBP-YG-91.png,0.45,1.2,45,0.5,,,,,,,,,,,,,0,51,51,44,1,,,,,,,,,,,,,,,,,,,,,,,,,,,,
,,,,,WIN24_037,21,Male ,2024-02-02_16h35.21.920,jersey_experiment_5,2023.2.2,Win32,84.74576271,,,,,,,,,,,,,,,,636.8189,638.1129,638.1129,638.8422,return,0.0953,,86.328125,,,,,,FBP-RB-18.png,0.45,1.2,25,0.5,,,,,,,,,,,,,0,52,52,24,1,,,,,,,,,,,,,,,,,,,,,,,,,,,,
,,,,,WIN24_037,21,Male ,2024-02-02_16h35.21.920,jersey_experiment_5,2023.2.2,Win32,84.74576271,,,,,,,,,,,,,,,,638.8426,640.6425,640.6425,641.3717,return,0.0598,,35.80729167,,,,,,FBP-PT-17.png,0.37,1.2,47,1,,,,,,,,,,,,,0,53,53,46,1,,,,,,,,,,,,,,,,,,,,,,,,,,,,
,,,,,WIN24_037,21,Male ,2024-02-02_16h35.21.920,jersey_experiment_5,2023.2.2,Win32,84.74576271,,,,,,,,,,,,,,,,641.3722,643.1718,643.172,644.2658,return,0.1901,,42.05729167,,,,,,FBP-OG-71.png,0.37,1.2,2,1,,,,,,,,,,,,,0,54,54,1,1,,,,,,,,,,,,,,,,,,,,,,,,,,,,
,,,,,WIN24_037,21,Male ,2024-02-02_16h35.21.920,jersey_experiment_5,2023.2.2,Win32,84.74576271,,,,,,,,,,,,,,,,644.2663,645.5603,645.5603,647.5488,return,0.1187,,50.13020833,,,,,,FBP-YG-71.png,0.4,1.2,33,0.5,,,,,,,,,,,,,0,55,55,32,1,,,,,,,,,,,,,,,,,,,,,,,,,,,,
,,,,,WIN24_037,21,Male ,2024-02-02_16h35.21.920,jersey_experiment_5,2023.2.2,Win32,84.74576271,,,,,,,,,,,,,,,,647.5492,649.3494,649.3495,650.0896,return,0.0252,,59.375,,,,,,FBP-OG-81.png,0.4,1.2,8,1,,,,,,,,,,,,,0,56,56,7,1,,,,,,,,,,,,,,,,,,,,,,,,,,,,
,,,,,WIN24_037,21,Male ,2024-02-02_16h35.21.920,jersey_experiment_5,2023.2.2,Win32,84.74576271,,,,,,,,,,,,,,,,650.0901,651.8909,651.891,652.4426,return,0.0359,,79.6875,,,,,,FBP-OG-91.png,0.43,1.2,14,1,,,,,,,,,,,,,0,57,57,13,1,,,,,,,,,,,,,,,,,,,,,,,,,,,,
,,,,,WIN24_037,21,Male ,2024-02-02_16h35.21.920,jersey_experiment_5,2023.2.2,Win32,84.74576271,,,,,,,,,,,,,,,,652.4431,654.2433,654.2435,654.984,return,0.0503,,32.421875,,,,,,FBP-OG-71.png,0.35,1.2,1,1,,,,,,,,,,,,,0,58,58,0,1,,,,,,,,,,,,,,,,,,,,,,,,,,,,
,,,,,WIN24_037,21,Male ,2024-02-02_16h35.21.920,jersey_experiment_5,2023.2.2,Win32,84.74576271,,,,,,,,,,,,,,,,654.9844,656.2788,656.2789,656.9841,return,0.1094,,60.02604167,,,,,,FBP-RB-18.png,0.43,1.2,24,0.5,,,,,,,,,,,,,0,59,59,23,1,,,,,,,,,,,,,,,,,,,,,,,,,,,,
,,,,,WIN24_037,21,Male ,2024-02-02_16h35.21.920,jersey_experiment_5,2023.2.2,Win32,84.74576271,,,,,,,,,,,,,,,,656.99,658.2901,658.2902,659.1495,return,0.072,,74.21875,,,,,,FBP-RB-71.png,0.43,1.2,19,0.5,,,,,,,,,,,,,,,,,,0,0,0,18,1,,,,,,,,,,,,,,,,,,,,,,,
,,,,,WIN24_037,21,Male ,2024-02-02_16h35.21.920,jersey_experiment_5,2023.2.2,Win32,84.74576271,,,,,,,,,,,,,,,,659.1501,660.4431,660.4431,661.2438,return,0.0604,,67.96875,,,,,,FBP-RB-71.png,0.4,1.2,18,0.5,,,,,,,,,,,,,,,,,,0,1,1,17,1,,,,,,,,,,,,,,,,,,,,,,,
,,,,,WIN24_037,21,Male ,2024-02-02_16h35.21.920,jersey_experiment_5,2023.2.2,Win32,84.74576271,,,,,,,,,,,,,,,,661.2442,663.0438,663.0438,663.6905,return,0.0721,,76.30208333,,,,,,FBP-OG-18.png,0.43,1.2,9,1,,,,,,,,,,,,,,,,,,0,2,2,8,1,,,,,,,,,,,,,,,,,,,,,,,
,,,,,WIN24_037,21,Male ,2024-02-02_16h35.21.920,jersey_experiment_5,2023.2.2,Win32,84.74576271,,,,,,,,,,,,,,,,663.6911,665.4914,665.4914,666.0197,return,0.0677,,57.421875,,,,,,FBP-OG-19.png,0.4,1.2,13,1,,,,,,,,,,,,,,,,,,0,3,3,12,1,,,,,,,,,,,,,,,,,,,,,,,
,,,,,WIN24_037,21,Male ,2024-02-02_16h35.21.920,jersey_experiment_5,2023.2.2,Win32,84.74576271,,,,,,,,,,,,,,,,666.0198,667.821,667.821,668.4093,return,0.0237,,23.17708333,,,,,,FBP-OG-17.png,0.35,1.2,1,1,,,,,,,,,,,,,,,,,,0,4,4,0,1,,,,,,,,,,,,,,,,,,,,,,,
,,,,,WIN24_037,21,Male ,2024-02-02_16h35.21.920,jersey_experiment_5,2023.2.2,Win32,84.74576271,,,,,,,,,,,,,,,,668.4096,669.7032,669.7032,670.4563,return,0.0588,,35.546875,,,,,,FBP-YG-17.png,0.37,1.2,32,0.5,,,,,,,,,,,,,,,,,,0,5,5,31,1,,,,,,,,,,,,,,,,,,,,,,,
,,,,,WIN24_037,21,Male ,2024-02-02_16h35.21.920,jersey_experiment_5,2023.2.2,Win32,84.74576271,,,,,,,,,,,,,,,,670.4564,672.2551,672.2551,672.6799,return,0.0236,,61.06770833,,,,,,FBP-OG-17.png,0.43,1.2,4,1,,,,,,,,,,,,,,,,,,0,6,6,3,1,,,,,,,,,,,,,,,,,,,,,,,
,,,,,WIN24_037,21,Male ,2024-02-02_16h35.21.920,jersey_experiment_5,2023.2.2,Win32,84.74576271,,,,,,,,,,,,,,,,672.68,673.9732,673.9733,674.6097,return,0.0237,,49.34895833,,,,,,FBP-YG-17.png,0.4,1.2,33,0.5,,,,,,,,,,,,,,,,,,0,7,7,32,1,,,,,,,,,,,,,,,,,,,,,,,
,,,,,WIN24_037,21,Male ,2024-02-02_16h35.21.920,jersey_experiment_5,2023.2.2,Win32,84.74576271,,,,,,,,,,,,,,,,674.6099,675.9034,675.9034,676.6906,return,0.0096,,65.10416667,,,,,,FBP-RB-91.png,0.4,1.2,28,0.5,,,,,,,,,,,,,,,,,,0,8,8,27,1,,,,,,,,,,,,,,,,,,,,,,,
,,,,,WIN24_037,21,Male ,2024-02-02_16h35.21.920,jersey_experiment_5,2023.2.2,Win32,84.74576271,,,,,,,,,,,,,,,,676.6908,677.985,677.9851,678.6332,return,0.0004,,85.546875,,,,,,FBP-RB-71.png,0.45,1.2,20,0.5,,,,,,,,,,,,,,,,,,0,9,9,19,1,,,,,,,,,,,,,,,,,,,,,,,
,,,,,WIN24_037,21,Male ,2024-02-02_16h35.21.920,jersey_experiment_5,2023.2.2,Win32,84.74576271,,,,,,,,,,,,,,,,678.6334,679.926,679.926,680.6804,return,0.0002,,76.04166667,,,,,,FBP-YG-18.png,0.45,1.2,40,0.5,,,,,,,,,,,,,,,,,,0,10,10,39,1,,,,,,,,,,,,,,,,,,,,,,,
,,,,,WIN24_037,21,Male ,2024-02-02_16h35.21.920,jersey_experiment_5,2023.2.2,Win32,84.74576271,,,,,,,,,,,,,,,,680.6806,681.9741,681.9742,682.8672,return,0.0089,,76.69270833,,,,,,FBP-YG-19.png,0.43,1.2,44,0.5,,,,,,,,,,,,,,,,,,0,11,11,43,1,,,,,,,,,,,,,,,,,,,,,,,
,,,,,WIN24_037,21,Male ,2024-02-02_16h35.21.920,jersey_experiment_5,2023.2.2,Win32,84.74576271,,,,,,,,,,,,,,,,682.8673,684.6674,684.6674,685.3042,return,0.0708,,41.66666667,,,,,,FBP-PT-81.png,0.37,1.2,52,1,,,,,,,,,,,,,,,,,,0,12,12,51,1,,,,,,,,,,,,,,,,,,,,,,,
,,,,,WIN24_037,21,Male ,2024-02-02_16h35.21.920,jersey_experiment_5,2023.2.2,Win32,84.74576271,,,,,,,,,,,,,,,,685.3045,686.5981,686.5981,687.5264,return,0.0181,,30.72916667,,,,,,FBP-RB-81.png,0.37,1.2,22,0.5,,,,,,,,,,,,,,,,,,0,13,13,21,1,,,,,,,,,,,,,,,,,,,,,,,
,,,,,WIN24_037,21,Male ,2024-02-02_16h35.21.920,jersey_experiment_5,2023.2.2,Win32,84.74576271,,,,,,,,,,,,,,,,687.5266,689.3277,689.3277,689.9394,return,0.0235,,22.65625,,,,,,FBP-OG-19.png,0.37,1.2,12,1,,,,,,,,,,,,,,,,,,0,14,14,11,1,,,,,,,,,,,,,,,,,,,,,,,
,,,,,WIN24_037,21,Male ,2024-02-02_16h35.21.920,jersey_experiment_5,2023.2.2,Win32,84.74576271,,,,,,,,,,,,,,,,689.9395,691.7396,691.7396,692.644,return,0.1259,,67.31770833,,,,,,FBP-PT-91.png,0.45,1.2,60,1,,,,,,,,,,,,,,,,,,0,15,15,59,1,,,,,,,,,,,,,,,,,,,,,,,
,,,,,WIN24_037,21,Male ,2024-02-02_16h35.21.920,jersey_experiment_5,2023.2.2,Win32,84.74576271,,,,,,,,,,,,,,,,692.6442,694.4456,694.4456,695.0441,return,0.0316,,75.13020833,,,,,,FBP-PT-71.png,0.45,1.2,50,1,,,,,,,,,,,,,,,,,,0,16,16,49,1,,,,,,,,,,,,,,,,,,,,,,,
,,,,,WIN24_037,21,Male ,2024-02-02_16h35.21.920,jersey_experiment_5,2023.2.2,Win32,84.74576271,,,,,,,,,,,,,,,,695.0443,696.8447,696.8447,697.2342,return,0.0004,,75.13020833,,,,,,FBP-PT-81.png,0.43,1.2,54,1,,,,,,,,,,,,,,,,,,0,17,17,53,1,,,,,,,,,,,,,,,,,,,,,,,
,,,,,WIN24_037,21,Male ,2024-02-02_16h35.21.920,jersey_experiment_5,2023.2.2,Win32,84.74576271,,,,,,,,,,,,,,,,697.2343,698.5271,698.5271,699.3046,return,0.0236,,79.6875,,,,,,FBP-YG-17.png,0.45,1.2,35,0.5,,,,,,,,,,,,,,,,,,0,18,18,34,1,,,,,,,,,,,,,,,,,,,,,,,
,,,,,WIN24_037,21,Male ,2024-02-02_16h35.21.920,jersey_experiment_5,2023.2.2,Win32,84.74576271,,,,,,,,,,,,,,,,699.3047,700.5976,700.5977,701.7384,return,0.0593,,45.18229167,,,,,,FBP-RB-71.png,0.37,1.2,17,0.5,,,,,,,,,,,,,,,,,,0,19,19,16,1,,,,,,,,,,,,,,,,,,,,,,,
,,,,,WIN24_037,21,Male ,2024-02-02_16h35.21.920,jersey_experiment_5,2023.2.2,Win32,84.74576271,,,,,,,,,,,,,,,,701.7386,703.5389,703.539,704.5386,return,0.0602,,50.78125,,,,,,FBP-OG-18.png,0.4,1.2,8,1,,,,,,,,,,,,,,,,,,0,20,20,7,1,,,,,,,,,,,,,,,,,,,,,,,
,,,,,WIN24_037,21,Male ,2024-02-02_16h35.21.920,jersey_experiment_5,2023.2.2,Win32,84.74576271,,,,,,,,,,,,,,,,704.5387,706.3391,706.3392,707.1756,return,0.0237,,73.828125,,,,,,FBP-PT-71.png,0.43,1.2,49,1,,,,,,,,,,,,,,,,,,0,21,21,48,1,,,,,,,,,,,,,,,,,,,,,,,
,,,,,WIN24_037,21,Male ,2024-02-02_16h35.21.920,jersey_experiment_5,2023.2.2,Win32,84.74576271,,,,,,,,,,,,,,,,707.1757,708.9755,708.9755,709.8345,return,0.0709,,45.57291667,,,,,,FBP-PT-71.png,0.37,1.2,47,1,,,,,,,,,,,,,,,,,,0,22,22,46,1,,,,,,,,,,,,,,,,,,,,,,,
,,,,,WIN24_037,21,Male ,2024-02-02_16h35.21.920,jersey_experiment_5,2023.2.2,Win32,84.74576271,,,,,,,,,,,,,,,,709.8346,711.1274,711.1275,711.9405,return,0.0709,,33.72395833,,,,,,FBP-RB-91.png,0.37,1.2,27,0.5,,,,,,,,,,,,,,,,,,0,23,23,26,1,,,,,,,,,,,,,,,,,,,,,,,
,,,,,WIN24_037,21,Male ,2024-02-02_16h35.21.920,jersey_experiment_5,2023.2.2,Win32,84.74576271,,,,,,,,,,,,,,,,711.9407,713.7394,713.7394,714.633,return,0.0621,,50.26041667,,,,,,FBP-OG-17.png,0.4,1.2,3,1,,,,,,,,,,,,,,,,,,0,24,24,2,1,,,,,,,,,,,,,,,,,,,,,,,
,,,,,WIN24_037,21,Male ,2024-02-02_16h35.21.920,jersey_experiment_5,2023.2.2,Win32,84.74576271,,,,,,,,,,,,,,,,714.6332,715.9272,715.9272,716.8465,return,0.0708,,24.73958333,,,,,,FBP-YG-17.png,0.35,1.2,31,0.5,,,,,,,,,,,,,,,,,,0,25,25,30,1,,,,,,,,,,,,,,,,,,,,,,,
,,,,,WIN24_037,21,Male ,2024-02-02_16h35.21.920,jersey_experiment_5,2023.2.2,Win32,84.74576271,,,,,,,,,,,,,,,,716.8467,718.1403,718.1403,718.8819,return,0.0002,,31.25,,,,,,FBP-YG-18.png,0.35,1.2,36,0.5,,,,,,,,,,,,,,,,,,0,26,26,35,1,,,,,,,,,,,,,,,,,,,,,,,
,,,,,WIN24_037,21,Male ,2024-02-02_16h35.21.920,jersey_experiment_5,2023.2.2,Win32,84.74576271,,,,,,,,,,,,,,,,718.8822,720.1745,720.1745,721.3055,return,0.0356,,39.84375,,,,,,FBP-YG-18.png,0.37,1.2,37,0.5,,,,,,,,,,,,,,,,,,0,27,27,36,1,,,,,,,,,,,,,,,,,,,,,,,
,,,,,WIN24_037,21,Male ,2024-02-02_16h35.21.920,jersey_experiment_5,2023.2.2,Win32,84.74576271,,,,,,,,,,,,,,,,721.3056,723.105,723.105,724.1634,return,0.0804,,38.41145833,,,,,,FBP-OG-18.png,0.37,1.2,7,1,,,,,,,,,,,,,,,,,,0,28,28,6,1,,,,,,,,,,,,,,,,,,,,,,,
,,,,,WIN24_037,21,Male ,2024-02-02_16h35.21.920,jersey_experiment_5,2023.2.2,Win32,84.74576271,,,,,,,,,,,,,,,,724.1638,725.9643,725.9643,726.81,return,0.0491,,86.19791667,,,,,,FBP-PT-81.png,0.45,1.2,55,1,,,,,,,,,,,,,,,,,,0,29,29,54,1,,,,,,,,,,,,,,,,,,,,,,,
,,,,,WIN24_037,21,Male ,2024-02-02_16h35.21.920,jersey_experiment_5,2023.2.2,Win32,84.74576271,,,,,,,,,,,,,,,,726.8102,728.1041,728.1042,729.1294,return,0.0472,,79.03645833,,,,,,FBP-RB-81.png,0.43,1.2,24,0.5,,,,,,,,,,,,,,,,,,0,30,30,23,1,,,,,,,,,,,,,,,,,,,,,,,
,,,,,WIN24_037,21,Male ,2024-02-02_16h35.21.920,jersey_experiment_5,2023.2.2,Win32,84.74576271,,,,,,,,,,,,,,,,729.1296,730.4231,730.4232,731.4337,return,0.0495,,44.27083333,,,,,,FBP-RB-71.png,0.35,1.2,16,0.5,,,,,,,,,,,,,,,,,,0,31,31,15,1,,,,,,,,,,,,,,,,,,,,,,,
,,,,,WIN24_037,21,Male ,2024-02-02_16h35.21.920,jersey_experiment_5,2023.2.2,Win32,84.74576271,,,,,,,,,,,,,,,,731.4339,733.2351,733.2351,733.7059,return,0.0237,,24.08854167,,,,,,FBP-PT-81.png,0.35,1.2,51,1,,,,,,,,,,,,,,,,,,0,32,32,50,1,,,,,,,,,,,,,,,,,,,,,,,
,,,,,WIN24_037,21,Male ,2024-02-02_16h35.21.920,jersey_experiment_5,2023.2.2,Win32,84.74576271,,,,,,,,,,,,,,,,733.706,735.5044,735.5044,737.7163,return,0.0315,,41.92708333,,,,,,FBP-PT-91.png,0.35,1.2,56,1,,,,,,,,,,,,,,,,,,0,33,33,55,1,,,,,,,,,,,,,,,,,,,,,,,
,,,,,WIN24_037,21,Male ,2024-02-02_16h35.21.920,jersey_experiment_5,2023.2.2,Win32,84.74576271,,,,,,,,,,,,,,,,737.7165,739.0117,739.0117,739.871,return,0.0472,,73.17708333,,,,,,FBP-YG-17.png,0.43,1.2,34,0.5,,,,,,,,,,,,,,,,,,0,34,34,33,1,,,,,,,,,,,,,,,,,,,,,,,
,,,,,WIN24_037,21,Male ,2024-02-02_16h35.21.920,jersey_experiment_5,2023.2.2,Win32,84.74576271,,,,,,,,,,,,,,,,739.8712,741.671,741.671,742.2592,return,0.0591,,69.01041667,,,,,,FBP-PT-81.png,0.4,1.2,53,1,,,,,,,,,,,,,,,,,,0,35,35,52,1,,,,,,,,,,,,,,,,,,,,,,,
,,,,,WIN24_037,21,Male ,2024-02-02_16h35.21.920,jersey_experiment_5,2023.2.2,Win32,84.74576271,,,,,,,,,,,,,,,,742.2593,743.5518,743.5518,744.5888,return,0.0942,,70.57291667,,,,,,FBP-YG-18.png,0.4,1.2,38,0.5,,,,,,,,,,,,,,,,,,0,36,36,37,1,,,,,,,,,,,,,,,,,,,,,,,
,,,,,WIN24_037,21,Male ,2024-02-02_16h35.21.920,jersey_experiment_5,2023.2.2,Win32,84.74576271,,,,,,,,,,,,,,,,744.5889,745.8816,745.8817,746.646,return,0.0532,,85.02604167,,,,,,FBP-RB-91.png,0.45,1.2,30,0.5,,,,,,,,,,,,,,,,,,0,37,37,29,1,,,,,,,,,,,,,,,,,,,,,,,
,,,,,WIN24_037,21,Male ,2024-02-02_16h35.21.920,jersey_experiment_5,2023.2.2,Win32,84.74576271,,,,,,,,,,,,,,,,746.6462,748.4462,748.4462,749.0476,return,0.0588,,72.265625,,,,,,FBP-PT-71.png,0.4,1.2,48,1,,,,,,,,,,,,,,,,,,0,38,38,47,1,,,,,,,,,,,,,,,,,,,,,,,
,,,,,WIN24_037,21,Male ,2024-02-02_16h35.21.920,jersey_experiment_5,2023.2.2,Win32,84.74576271,,,,,,,,,,,,,,,,749.0478,750.8462,750.8462,751.4948,return,0.0825,,38.93229167,,,,,,FBP-PT-71.png,0.35,1.2,46,1,,,,,,,,,,,,,,,,,,0,39,39,45,1,,,,,,,,,,,,,,,,,,,,,,,
,,,,,WIN24_037,21,Male ,2024-02-02_16h35.21.920,jersey_experiment_5,2023.2.2,Win32,84.74576271,,,,,,,,,,,,,,,,751.495,752.7876,752.7877,753.8816,return,0.0615,,76.04166667,,,,,,FBP-RB-81.png,0.4,1.2,23,0.5,,,,,,,,,,,,,,,,,,0,40,40,22,1,,,,,,,,,,,,,,,,,,,,,,,
,,,,,WIN24_037,21,Male ,2024-02-02_16h35.21.920,jersey_experiment_5,2023.2.2,Win32,84.74576271,,,,,,,,,,,,,,,,753.8819,755.6829,755.683,756.2597,return,0.0472,,89.71354167,,,,,,FBP-OG-18.png,0.45,1.2,10,1,,,,,,,,,,,,,,,,,,0,41,41,9,1,,,,,,,,,,,,,,,,,,,,,,,
,,,,,WIN24_037,21,Male ,2024-02-02_16h35.21.920,jersey_experiment_5,2023.2.2,Win32,84.74576271,,,,,,,,,,,,,,,,756.2599,758.0595,758.0596,761.8585,return,2.0101,,40.75520833,,,,,,FBP-PT-91.png,0.37,1.2,57,1,,,,,,,,,,,,,,,,,,0,42,42,56,1,,,,,,,,,,,,,,,,,,,,,,,
,,,,,WIN24_037,21,Male ,2024-02-02_16h35.21.920,jersey_experiment_5,2023.2.2,Win32,84.74576271,,,,,,,,,,,,,,,,761.8587,763.6599,763.6599,764.1644,return,0.0312,,87.23958333,,,,,,FBP-OG-19.png,0.45,1.2,15,1,,,,,,,,,,,,,,,,,,0,43,43,14,1,,,,,,,,,,,,,,,,,,,,,,,
,,,,,WIN24_037,21,Male ,2024-02-02_16h35.21.920,jersey_experiment_5,2023.2.2,Win32,84.74576271,,,,,,,,,,,,,,,,764.1646,765.4585,765.4585,767.6837,return,0.0708,,24.73958333,,,,,,FBP-YG-19.png,0.35,1.2,41,0.5,,,,,,,,,,,,,,,,,,0,44,44,40,1,,,,,,,,,,,,,,,,,,,,,,,
,,,,,WIN24_037,21,Male ,2024-02-02_16h35.21.920,jersey_experiment_5,2023.2.2,Win32,84.74576271,,,,,,,,,,,,,,,,767.684,768.9778,768.9778,770.0823,return,0.0808,,75.52083333,,,,,,FBP-RB-91.png,0.43,1.2,29,0.5,,,,,,,,,,,,,,,,,,0,45,45,28,1,,,,,,,,,,,,,,,,,,,,,,,
,,,,,WIN24_037,21,Male ,2024-02-02_16h35.21.920,jersey_experiment_5,2023.2.2,Win32,84.74576271,,,,,,,,,,,,,,,,770.0825,771.8836,771.8836,772.8354,return,0.0797,,9.635416667,,,,,,FBP-OG-18.png,0.35,1.2,6,1,,,,,,,,,,,,,,,,,,0,46,46,5,1,,,,,,,,,,,,,,,,,,,,,,,
,,,,,WIN24_037,21,Male ,2024-02-02_16h35.21.920,jersey_experiment_5,2023.2.2,Win32,84.74576271,,,,,,,,,,,,,,,,772.8357,774.6366,774.6366,775.978,return,0.1178,,75,,,,,,FBP-PT-91.png,0.43,1.2,59,1,,,,,,,,,,,,,,,,,,0,47,47,58,1,,,,,,,,,,,,,,,,,,,,,,,
,,,,,WIN24_037,21,Male ,2024-02-02_16h35.21.920,jersey_experiment_5,2023.2.2,Win32,84.74576271,,,,,,,,,,,,,,,,775.9782,777.7771,777.7771,778.4839,return,0.1174,,71.484375,,,,,,FBP-PT-91.png,0.4,1.2,58,1,,,,,,,,,,,,,,,,,,0,48,48,57,1,,,,,,,,,,,,,,,,,,,,,,,
,,,,,WIN24_037,21,Male ,2024-02-02_16h35.21.920,jersey_experiment_5,2023.2.2,Win32,84.74576271,,,,,,,,,,,,,,,,778.484,779.7781,779.7781,780.5194,return,0.0707,,82.16145833,,,,,,FBP-RB-81.png,0.45,1.2,25,0.5,,,,,,,,,,,,,,,,,,0,49,49,24,1,,,,,,,,,,,,,,,,,,,,,,,
,,,,,WIN24_037,21,Male ,2024-02-02_16h35.21.920,jersey_experiment_5,2023.2.2,Win32,84.74576271,,,,,,,,,,,,,,,,780.5195,782.3192,782.3192,783.6255,return,0.106,,43.359375,,,,,,FBP-OG-19.png,0.35,1.2,11,1,,,,,,,,,,,,,,,,,,0,50,50,10,1,,,,,,,,,,,,,,,,,,,,,,,
,,,,,WIN24_037,21,Male ,2024-02-02_16h35.21.920,jersey_experiment_5,2023.2.2,Win32,84.74576271,,,,,,,,,,,,,,,,783.6258,784.918,784.918,785.8021,return,0.1295,,23.69791667,,,,,,FBP-RB-81.png,0.35,1.2,21,0.5,,,,,,,,,,,,,,,,,,0,51,51,20,1,,,,,,,,,,,,,,,,,,,,,,,
,,,,,WIN24_037,21,Male ,2024-02-02_16h35.21.920,jersey_experiment_5,2023.2.2,Win32,84.74576271,,,,,,,,,,,,,,,,785.8022,787.0951,787.0951,788.1667,return,0.0825,,67.1875,,,,,,FBP-YG-19.png,0.45,1.2,45,0.5,,,,,,,,,,,,,,,,,,0,52,52,44,1,,,,,,,,,,,,,,,,,,,,,,,
,,,,,WIN24_037,21,Male ,2024-02-02_16h35.21.920,jersey_experiment_5,2023.2.2,Win32,84.74576271,,,,,,,,,,,,,,,,788.1669,789.9666,789.9667,790.8609,return,0.1178,,34.63541667,,,,,,FBP-OG-17.png,0.37,1.2,2,1,,,,,,,,,,,,,,,,,,0,53,53,1,1,,,,,,,,,,,,,,,,,,,,,,,
,,,,,WIN24_037,21,Male ,2024-02-02_16h35.21.920,jersey_experiment_5,2023.2.2,Win32,84.74576271,,,,,,,,,,,,,,,,790.8611,792.6613,792.6613,793.2264,return,0.0714,,80.46875,,,,,,FBP-OG-17.png,0.45,1.2,5,1,,,,,,,,,,,,,,,,,,0,54,54,4,1,,,,,,,,,,,,,,,,,,,,,,,
,,,,,WIN24_037,21,Male ,2024-02-02_16h35.21.920,jersey_experiment_5,2023.2.2,Win32,84.74576271,,,,,,,,,,,,,,,,793.2266,794.5184,794.5184,796.0257,return,0.0472,,73.69791667,,,,,,FBP-YG-18.png,0.43,1.2,39,0.5,,,,,,,,,,,,,,,,,,0,55,55,38,1,,,,,,,,,,,,,,,,,,,,,,,
,,,,,WIN24_037,21,Male ,2024-02-02_16h35.21.920,jersey_experiment_5,2023.2.2,Win32,84.74576271,,,,,,,,,,,,,,,,796.0259,797.3198,797.3198,798.2009,return,0.0976,,33.46354167,,,,,,FBP-RB-91.png,0.35,1.2,26,0.5,,,,,,,,,,,,,,,,,,0,56,56,25,1,,,,,,,,,,,,,,,,,,,,,,,
,,,,,WIN24_037,21,Male ,2024-02-02_16h35.21.920,jersey_experiment_5,2023.2.2,Win32,84.74576271,,,,,,,,,,,,,,,,798.2011,799.4951,799.4951,800.4614,return,0.0591,,44.01041667,,,,,,FBP-YG-19.png,0.37,1.2,42,0.5,,,,,,,,,,,,,,,,,,0,57,57,41,1,,,,,,,,,,,,,,,,,,,,,,,
,,,,,WIN24_037,21,Male ,2024-02-02_16h35.21.920,jersey_experiment_5,2023.2.2,Win32,84.74576271,,,,,,,,,,,,,,,,800.4615,801.7552,801.7552,802.5908,return,0.0944,,69.921875,,,,,,FBP-YG-19.png,0.4,1.2,43,0.5,,,,,,,,,,,,,,,,,,0,58,58,42,1,,,,,,,,,,,,,,,,,,,,,,,
,,,,,WIN24_037,21,Male ,2024-02-02_16h35.21.920,jersey_experiment_5,2023.2.2,Win32,84.74576271,,,,,,,,,,,,,,,,802.5909,804.3895,804.3895,805.1777,return,0.1321,,84.89583333,,,,,,FBP-OG-19.png,0.43,1.2,14,1,,,,,,,,,,,,,,,,,,0,59,59,13,1,,,,,,,,,,,,,,,,,,,,,,,
,,,,,WIN24_037,21,Male ,2024-02-02_16h35.21.920,jersey_experiment_5,2023.2.2,Win32,84.74576271,,,,,,,,,,,,,,,,,,,,,,,,,,,,,,,,,,,,,,,,,,,,,,,,,,,,,,,,805.178,808.6609,return,3.4677,,,,,,,,,,,,,,,,,,,
,,,,,WIN24_037,21,Male ,2024-02-02_16h35.21.920,jersey_experiment_5,2023.2.2,Win32,84.74576271,,,,,,,,,,,,,,,,,,,,,,,,,,,,,,,,,,,,,,,,,,,,,,,,,,,,,,,,,,,,,808.6612,812.8854,1,3.5326,return,0.6705,,,,,,,,,,,,
,,,,,WIN24_037,21,Male ,2024-02-02_16h35.21.920,jersey_experiment_5,2023.2.2,Win32,84.74576271,,,,,,,,,,,,,,,,,,,,,,,,,,,,,,,,,,,,,,,,,,,,,,,,,,,,,,,,,,,,,,,,,,,,812.8855,865.4318,the study might be about perception of race,right,43.9169,,,,,,
,,,,,WIN24_037,21,Male ,2024-02-02_16h35.21.920,jersey_experiment_5,2023.2.2,Win32,84.74576271,,,,,,,,,,,,,,,,,,,,,,,,,,,,,,,,,,,,,,,,,,,,,,,,,,,,,,,,,,,,,,,,,,,,,,,,,,865.432,868.0276,return,2.5785,