requirements.started,requirements.stopped,key_resp_3.keys,key_resp_3.rt,key_resp_3.duration,Subject ID,Age,Gender,date,expName,psychopyVersion,OS,frameRate,instructions1.started,instructions1.stopped,key_resp.keys,key_resp.rt,key_resp.duration,example.started,example.stopped,enter_2.keys,enter_2.rt,enter_2.duration,instructions2.started,instructions2.stopped,enter_3.keys,enter_3.rt,enter_3.duration,image.started,image.stopped,slider_2.started,slider_2.stopped,next.keys,next.rt,next.duration,slider.response,trial_block_1.thisRepN,trial_block_1.thisTrialN,trial_block_1.thisN,trial_block_1.thisIndex,trial_block_1.ran,Path,Width,Height,Index,Duration,trial_block_2.thisRepN,trial_block_2.thisTrialN,trial_block_2.thisN,trial_block_2.thisIndex,trial_block_2.ran,rest_break.started,rest_break.stopped,end_break.started,end_break.stopped,key_resp_5.keys,key_resp_5.rt,key_resp_5.duration,trial_block_3.thisRepN,trial_block_3.thisTrialN,trial_block_3.thisN,trial_block_3.thisIndex,trial_block_3.ran,trial_block_4.thisRepN,trial_block_4.thisTrialN,trial_block_4.thisN,trial_block_4.thisIndex,trial_block_4.ran,questions_intro.started,questions_intro.stopped,enter_12.keys,enter_12.rt,enter_12.duration,question2.started,question2.stopped,question_doingbest.response,question_doingbest.rt,enter_15.keys,enter_15.rt,enter_15.duration,pattern.started,pattern.stopped,pattern_2.text,enter_17.keys,enter_17.rt,enter_17.duration,thankyou.started,thankyou.stopped,enter_14.keys,enter_14.rt,enter_14.duration
0.0002,28.8946,return,28.8849,,WIN24_058,20,female,2024-02-13_13h21.33.286,jersey_experiment_5,2023.2.2,Win32,85.47008547,,,,,,,,,,,,,,,,,,,,,,,,,,,,,,,,,,,,,,,,,,,,,,,,,,,,,,,,,,,,,,,,,,,,,,,,,,,,,,
,,,,,WIN24_058,20,female,2024-02-13_13h21.33.286,jersey_experiment_5,2023.2.2,Win32,85.47008547,28.8948,34.5063,return,5.6011,,,,,,,,,,,,,,,,,,,,,,,,,,,,,,,,,,,,,,,,,,,,,,,,,,,,,,,,,,,,,,,,,,,,,,,,,,
,,,,,WIN24_058,20,female,2024-02-13_13h21.33.286,jersey_experiment_5,2023.2.2,Win32,85.47008547,,,,,,34.5064,38.6008,return,4.0625,,,,,,,,,,,,,,,,,,,,,,,,,,,,,,,,,,,,,,,,,,,,,,,,,,,,,,,,,,,,,,,,,,,,,
,,,,,WIN24_058,20,female,2024-02-13_13h21.33.286,jersey_experiment_5,2023.2.2,Win32,85.47008547,,,,,,,,,,,38.6009,48.3422,return,9.7342,,,,,,,,,,,,,,,,,,,,,,,,,,,,,,,,,,,,,,,,,,,,,,,,,,,,,,,,,,,,,,,,
,,,,,WIN24_058,20,female,2024-02-13_13h21.33.286,jersey_experiment_5,2023.2.2,Win32,85.47008547,,,,,,,,,,,,,,,,48.3491,49.648,49.648,54.9541,return,1.2373,,74.34895833,0,0,0,9,1,FBP-OG-81.png,0.45,1.2,10,0.5,,,,,,,,,,,,,,,,,,,,,,,,,,,,,,,,,,,,,,,,,,,,,
,,,,,WIN24_058,20,female,2024-02-13_13h21.33.286,jersey_experiment_5,2023.2.2,Win32,85.47008547,,,,,,,,,,,,,,,,54.9544,56.2481,56.2481,59.0129,return,0.6277,,48.828125,0,1,1,53,1,FBP-PT-18.png,0.43,1.2,54,0.5,,,,,,,,,,,,,,,,,,,,,,,,,,,,,,,,,,,,,,,,,,,,,
,,,,,WIN24_058,20,female,2024-02-13_13h21.33.286,jersey_experiment_5,2023.2.2,Win32,85.47008547,,,,,,,,,,,,,,,,59.0131,60.8129,60.813,62.5542,return,0.6721,,80.33854167,0,2,2,24,1,FBP-RB-18.png,0.45,1.2,25,1,,,,,,,,,,,,,,,,,,,,,,,,,,,,,,,,,,,,,,,,,,,,,
,,,,,WIN24_058,20,female,2024-02-13_13h21.33.286,jersey_experiment_5,2023.2.2,Win32,85.47008547,,,,,,,,,,,,,,,,62.5545,63.8484,63.8484,67.4603,return,0.6663,,83.46354167,0,3,3,8,1,FBP-OG-81.png,0.43,1.2,9,0.5,,,,,,,,,,,,,,,,,,,,,,,,,,,,,,,,,,,,,,,,,,,,,
,,,,,WIN24_058,20,female,2024-02-13_13h21.33.286,jersey_experiment_5,2023.2.2,Win32,85.47008547,,,,,,,,,,,,,,,,67.4604,69.2603,69.2604,71.7076,return,0.6487,,42.1875,0,4,4,41,1,FBP-YG-91.png,0.37,1.2,42,1,,,,,,,,,,,,,,,,,,,,,,,,,,,,,,,,,,,,,,,,,,,,,
,,,,,WIN24_058,20,female,2024-02-13_13h21.33.286,jersey_experiment_5,2023.2.2,Win32,85.47008547,,,,,,,,,,,,,,,,71.7077,73.5075,73.5076,76.343,return,0.7934,,39.58333333,0,5,5,40,1,FBP-YG-91.png,0.35,1.2,41,1,,,,,,,,,,,,,,,,,,,,,,,,,,,,,,,,,,,,,,,,,,,,,
,,,,,WIN24_058,20,female,2024-02-13_13h21.33.286,jersey_experiment_5,2023.2.2,Win32,85.47008547,,,,,,,,,,,,,,,,76.3432,78.143,78.143,82.0138,return,0.9074,,36.71875,0,6,6,35,1,FBP-YG-81.png,0.35,1.2,36,1,,,,,,,,,,,,,,,,,,,,,,,,,,,,,,,,,,,,,,,,,,,,,
,,,,,WIN24_058,20,female,2024-02-13_13h21.33.286,jersey_experiment_5,2023.2.2,Win32,85.47008547,,,,,,,,,,,,,,,,82.014,83.3079,83.308,87.6257,return,1.9784,,57.55208333,0,7,7,12,1,FBP-OG-91.png,0.4,1.2,13,0.5,,,,,,,,,,,,,,,,,,,,,,,,,,,,,,,,,,,,,,,,,,,,,
,,,,,WIN24_058,20,female,2024-02-13_13h21.33.286,jersey_experiment_5,2023.2.2,Win32,85.47008547,,,,,,,,,,,,,,,,87.6259,88.9199,88.9199,91.4377,return,0.6213,,49.08854167,0,8,8,11,1,FBP-OG-91.png,0.37,1.2,12,0.5,,,,,,,,,,,,,,,,,,,,,,,,,,,,,,,,,,,,,,,,,,,,,
,,,,,WIN24_058,20,female,2024-02-13_13h21.33.286,jersey_experiment_5,2023.2.2,Win32,85.47008547,,,,,,,,,,,,,,,,91.4379,93.2377,93.2377,95.0967,return,0.6034,,86.45833333,0,9,9,34,1,FBP-YG-71.png,0.45,1.2,35,1,,,,,,,,,,,,,,,,,,,,,,,,,,,,,,,,,,,,,,,,,,,,,
,,,,,WIN24_058,20,female,2024-02-13_13h21.33.286,jersey_experiment_5,2023.2.2,Win32,85.47008547,,,,,,,,,,,,,,,,95.0969,96.8967,96.8967,99.3674,return,1.2371,,84.50520833,0,10,10,18,1,FBP-RB-17.png,0.43,1.2,19,1,,,,,,,,,,,,,,,,,,,,,,,,,,,,,,,,,,,,,,,,,,,,,
,,,,,WIN24_058,20,female,2024-02-13_13h21.33.286,jersey_experiment_5,2023.2.2,Win32,85.47008547,,,,,,,,,,,,,,,,99.3676,101.1675,101.1675,104.0264,return,0.5527,,75.13020833,0,11,11,42,1,FBP-YG-91.png,0.4,1.2,43,1,,,,,,,,,,,,,,,,,,,,,,,,,,,,,,,,,,,,,,,,,,,,,
,,,,,WIN24_058,20,female,2024-02-13_13h21.33.286,jersey_experiment_5,2023.2.2,Win32,85.47008547,,,,,,,,,,,,,,,,104.0266,105.3206,105.3206,107.7324,return,0.6183,,81.38020833,0,12,12,13,1,FBP-OG-91.png,0.43,1.2,14,0.5,,,,,,,,,,,,,,,,,,,,,,,,,,,,,,,,,,,,,,,,,,,,,
,,,,,WIN24_058,20,female,2024-02-13_13h21.33.286,jersey_experiment_5,2023.2.2,Win32,85.47008547,,,,,,,,,,,,,,,,107.7325,109.5324,109.5324,111.9444,return,0.6269,,41.66666667,0,13,13,26,1,FBP-RB-19.png,0.37,1.2,27,1,,,,,,,,,,,,,,,,,,,,,,,,,,,,,,,,,,,,,,,,,,,,,
,,,,,WIN24_058,20,female,2024-02-13_13h21.33.286,jersey_experiment_5,2023.2.2,Win32,85.47008547,,,,,,,,,,,,,,,,111.9445,113.7443,113.7443,115.5327,return,0.6353,,58.07291667,0,14,14,27,1,FBP-RB-19.png,0.4,1.2,28,1,,,,,,,,,,,,,,,,,,,,,,,,,,,,,,,,,,,,,,,,,,,,,
,,,,,WIN24_058,20,female,2024-02-13_13h21.33.286,jersey_experiment_5,2023.2.2,Win32,85.47008547,,,,,,,,,,,,,,,,115.5328,116.8269,116.8269,118.9564,return,0.6121,,88.93229167,0,15,15,49,1,FBP-PT-17.png,0.45,1.2,50,0.5,,,,,,,,,,,,,,,,,,,,,,,,,,,,,,,,,,,,,,,,,,,,,
,,,,,WIN24_058,20,female,2024-02-13_13h21.33.286,jersey_experiment_5,2023.2.2,Win32,85.47008547,,,,,,,,,,,,,,,,118.9566,120.2506,120.2506,122.3917,return,0.5809,,92.31770833,0,16,16,14,1,FBP-OG-91.png,0.45,1.2,15,0.5,,,,,,,,,,,,,,,,,,,,,,,,,,,,,,,,,,,,,,,,,,,,,
,,,,,WIN24_058,20,female,2024-02-13_13h21.33.286,jersey_experiment_5,2023.2.2,Win32,85.47008547,,,,,,,,,,,,,,,,122.392,124.1918,124.1918,125.7214,return,0.5531,,90.625,0,17,17,38,1,FBP-YG-81.png,0.43,1.2,39,1,,,,,,,,,,,,,,,,,,,,,,,,,,,,,,,,,,,,,,,,,,,,,
,,,,,WIN24_058,20,female,2024-02-13_13h21.33.286,jersey_experiment_5,2023.2.2,Win32,85.47008547,,,,,,,,,,,,,,,,125.7216,127.0154,127.0155,129.2862,return,0.6764,,91.14583333,0,18,18,59,1,FBP-PT-19.png,0.45,1.2,60,0.5,,,,,,,,,,,,,,,,,,,,,,,,,,,,,,,,,,,,,,,,,,,,,
,,,,,WIN24_058,20,female,2024-02-13_13h21.33.286,jersey_experiment_5,2023.2.2,Win32,85.47008547,,,,,,,,,,,,,,,,129.2864,131.0862,131.0862,132.5216,return,0.6237,,91.40625,0,19,19,39,1,FBP-YG-81.png,0.45,1.2,40,1,,,,,,,,,,,,,,,,,,,,,,,,,,,,,,,,,,,,,,,,,,,,,
,,,,,WIN24_058,20,female,2024-02-13_13h21.33.286,jersey_experiment_5,2023.2.2,Win32,85.47008547,,,,,,,,,,,,,,,,132.5217,133.8155,133.8155,136.2275,return,0.585,,66.66666667,0,20,20,47,1,FBP-PT-17.png,0.4,1.2,48,0.5,,,,,,,,,,,,,,,,,,,,,,,,,,,,,,,,,,,,,,,,,,,,,
,,,,,WIN24_058,20,female,2024-02-13_13h21.33.286,jersey_experiment_5,2023.2.2,Win32,85.47008547,,,,,,,,,,,,,,,,136.2278,137.5217,137.5218,139.769,return,0.6621,,73.69791667,0,21,21,58,1,FBP-PT-19.png,0.43,1.2,59,0.5,,,,,,,,,,,,,,,,,,,,,,,,,,,,,,,,,,,,,,,,,,,,,
,,,,,WIN24_058,20,female,2024-02-13_13h21.33.286,jersey_experiment_5,2023.2.2,Win32,85.47008547,,,,,,,,,,,,,,,,139.769,141.063,141.063,143.2749,return,0.5763,,49.21875,0,22,22,7,1,FBP-OG-81.png,0.4,1.2,8,0.5,,,,,,,,,,,,,,,,,,,,,,,,,,,,,,,,,,,,,,,,,,,,,
,,,,,WIN24_058,20,female,2024-02-13_13h21.33.286,jersey_experiment_5,2023.2.2,Win32,85.47008547,,,,,,,,,,,,,,,,143.2751,144.569,144.569,147.4751,return,1.1503,,33.59375,0,23,23,5,1,FBP-OG-81.png,0.35,1.2,6,0.5,,,,,,,,,,,,,,,,,,,,,,,,,,,,,,,,,,,,,,,,,,,,,
,,,,,WIN24_058,20,female,2024-02-13_13h21.33.286,jersey_experiment_5,2023.2.2,Win32,85.47008547,,,,,,,,,,,,,,,,147.4753,148.7694,148.7694,150.3459,return,0.5891,,27.08333333,0,24,24,50,1,FBP-PT-18.png,0.35,1.2,51,0.5,,,,,,,,,,,,,,,,,,,,,,,,,,,,,,,,,,,,,,,,,,,,,
,,,,,WIN24_058,20,female,2024-02-13_13h21.33.286,jersey_experiment_5,2023.2.2,Win32,85.47008547,,,,,,,,,,,,,,,,150.3461,152.1458,152.1459,154.4754,return,0.6592,,81.11979167,0,25,25,19,1,FBP-RB-17.png,0.45,1.2,20,1,,,,,,,,,,,,,,,,,,,,,,,,,,,,,,,,,,,,,,,,,,,,,
,,,,,WIN24_058,20,female,2024-02-13_13h21.33.286,jersey_experiment_5,2023.2.2,Win32,85.47008547,,,,,,,,,,,,,,,,154.4755,156.2754,156.2754,158.3343,return,0.5645,,44.79166667,0,26,26,25,1,FBP-RB-19.png,0.35,1.2,26,1,,,,,,,,,,,,,,,,,,,,,,,,,,,,,,,,,,,,,,,,,,,,,
,,,,,WIN24_058,20,female,2024-02-13_13h21.33.286,jersey_experiment_5,2023.2.2,Win32,85.47008547,,,,,,,,,,,,,,,,158.3344,160.1346,160.1346,161.7697,return,0.601,,69.53125,0,27,27,43,1,FBP-YG-91.png,0.43,1.2,44,1,,,,,,,,,,,,,,,,,,,,,,,,,,,,,,,,,,,,,,,,,,,,,
,,,,,WIN24_058,20,female,2024-02-13_13h21.33.286,jersey_experiment_5,2023.2.2,Win32,85.47008547,,,,,,,,,,,,,,,,161.7699,163.0639,163.0639,164.9581,return,0.7204,,58.07291667,0,28,28,1,1,FBP-OG-71.png,0.37,1.2,2,0.5,,,,,,,,,,,,,,,,,,,,,,,,,,,,,,,,,,,,,,,,,,,,,
,,,,,WIN24_058,20,female,2024-02-13_13h21.33.286,jersey_experiment_5,2023.2.2,Win32,85.47008547,,,,,,,,,,,,,,,,164.9584,166.7581,166.7581,171.1583,return,3.1458,,53.515625,0,29,29,16,1,FBP-RB-17.png,0.37,1.2,17,1,,,,,,,,,,,,,,,,,,,,,,,,,,,,,,,,,,,,,,,,,,,,,
,,,,,WIN24_058,20,female,2024-02-13_13h21.33.286,jersey_experiment_5,2023.2.2,Win32,85.47008547,,,,,,,,,,,,,,,,171.1586,172.9583,172.9583,174.829,return,0.6118,,55.59895833,0,30,30,32,1,FBP-YG-71.png,0.4,1.2,33,1,,,,,,,,,,,,,,,,,,,,,,,,,,,,,,,,,,,,,,,,,,,,,
,,,,,WIN24_058,20,female,2024-02-13_13h21.33.286,jersey_experiment_5,2023.2.2,Win32,85.47008547,,,,,,,,,,,,,,,,174.8292,176.6294,176.6294,177.9939,return,0.5892,,33.203125,0,31,31,15,1,FBP-RB-17.png,0.35,1.2,16,1,,,,,,,,,,,,,,,,,,,,,,,,,,,,,,,,,,,,,,,,,,,,,
,,,,,WIN24_058,20,female,2024-02-13_13h21.33.286,jersey_experiment_5,2023.2.2,Win32,85.47008547,,,,,,,,,,,,,,,,177.9941,179.2881,179.2881,181.9233,return,1.9026,,33.203125,0,32,32,55,1,FBP-PT-19.png,0.35,1.2,56,0.5,,,,,,,,,,,,,,,,,,,,,,,,,,,,,,,,,,,,,,,,,,,,,
,,,,,WIN24_058,20,female,2024-02-13_13h21.33.286,jersey_experiment_5,2023.2.2,Win32,85.47008547,,,,,,,,,,,,,,,,181.9235,183.7235,183.7235,185.853,return,0.8463,,65.234375,0,33,33,28,1,FBP-RB-19.png,0.43,1.2,29,1,,,,,,,,,,,,,,,,,,,,,,,,,,,,,,,,,,,,,,,,,,,,,
,,,,,WIN24_058,20,female,2024-02-13_13h21.33.286,jersey_experiment_5,2023.2.2,Win32,85.47008547,,,,,,,,,,,,,,,,185.8532,187.6529,187.6529,189.4767,return,0.6881,,64.97395833,0,34,34,37,1,FBP-YG-81.png,0.4,1.2,38,1,,,,,,,,,,,,,,,,,,,,,,,,,,,,,,,,,,,,,,,,,,,,,
,,,,,WIN24_058,20,female,2024-02-13_13h21.33.286,jersey_experiment_5,2023.2.2,Win32,85.47008547,,,,,,,,,,,,,,,,189.4769,191.2767,191.2767,195.0298,return,2.3334,,73.95833333,0,35,35,23,1,FBP-RB-18.png,0.43,1.2,24,1,,,,,,,,,,,,,,,,,,,,,,,,,,,,,,,,,,,,,,,,,,,,,
,,,,,WIN24_058,20,female,2024-02-13_13h21.33.286,jersey_experiment_5,2023.2.2,Win32,85.47008547,,,,,,,,,,,,,,,,195.0301,196.324,196.324,199.9948,return,2.4844,,39.84375,0,36,36,10,1,FBP-OG-91.png,0.35,1.2,11,0.5,,,,,,,,,,,,,,,,,,,,,,,,,,,,,,,,,,,,,,,,,,,,,
,,,,,WIN24_058,20,female,2024-02-13_13h21.33.286,jersey_experiment_5,2023.2.2,Win32,85.47008547,,,,,,,,,,,,,,,,199.995,201.7946,201.7947,204.089,return,1.309,,39.71354167,0,37,37,30,1,FBP-YG-71.png,0.35,1.2,31,1,,,,,,,,,,,,,,,,,,,,,,,,,,,,,,,,,,,,,,,,,,,,,
,,,,,WIN24_058,20,female,2024-02-13_13h21.33.286,jersey_experiment_5,2023.2.2,Win32,85.47008547,,,,,,,,,,,,,,,,204.0892,205.8889,205.8889,207.4185,return,0.553,,32.29166667,0,38,38,20,1,FBP-RB-18.png,0.35,1.2,21,1,,,,,,,,,,,,,,,,,,,,,,,,,,,,,,,,,,,,,,,,,,,,,
,,,,,WIN24_058,20,female,2024-02-13_13h21.33.286,jersey_experiment_5,2023.2.2,Win32,85.47008547,,,,,,,,,,,,,,,,207.4187,208.7126,208.7126,210.7128,return,0.6022,,57.03125,0,39,39,48,1,FBP-PT-17.png,0.43,1.2,49,0.5,,,,,,,,,,,,,,,,,,,,,,,,,,,,,,,,,,,,,,,,,,,,,
,,,,,WIN24_058,20,female,2024-02-13_13h21.33.286,jersey_experiment_5,2023.2.2,Win32,85.47008547,,,,,,,,,,,,,,,,210.713,212.5128,212.5128,213.9246,return,0.5945,,57.03125,0,40,40,36,1,FBP-YG-81.png,0.37,1.2,37,1,,,,,,,,,,,,,,,,,,,,,,,,,,,,,,,,,,,,,,,,,,,,,
,,,,,WIN24_058,20,female,2024-02-13_13h21.33.286,jersey_experiment_5,2023.2.2,Win32,85.47008547,,,,,,,,,,,,,,,,213.9248,215.2189,215.2189,216.9952,return,0.5971,,65.88541667,0,41,41,57,1,FBP-PT-19.png,0.4,1.2,58,0.5,,,,,,,,,,,,,,,,,,,,,,,,,,,,,,,,,,,,,,,,,,,,,
,,,,,WIN24_058,20,female,2024-02-13_13h21.33.286,jersey_experiment_5,2023.2.2,Win32,85.47008547,,,,,,,,,,,,,,,,216.9953,218.7955,218.7955,220.3954,return,0.5424,,67.44791667,0,42,42,17,1,FBP-RB-17.png,0.4,1.2,18,1,,,,,,,,,,,,,,,,,,,,,,,,,,,,,,,,,,,,,,,,,,,,,
,,,,,WIN24_058,20,female,2024-02-13_13h21.33.286,jersey_experiment_5,2023.2.2,Win32,85.47008547,,,,,,,,,,,,,,,,220.3956,221.6895,221.6895,223.8661,return,0.953,,75.390625,0,43,43,54,1,FBP-PT-18.png,0.45,1.2,55,0.5,,,,,,,,,,,,,,,,,,,,,,,,,,,,,,,,,,,,,,,,,,,,,
,,,,,WIN24_058,20,female,2024-02-13_13h21.33.286,jersey_experiment_5,2023.2.2,Win32,85.47008547,,,,,,,,,,,,,,,,223.8663,225.1604,225.1604,227.8781,return,0.6167,,69.27083333,0,44,44,52,1,FBP-PT-18.png,0.4,1.2,53,0.5,,,,,,,,,,,,,,,,,,,,,,,,,,,,,,,,,,,,,,,,,,,,,
,,,,,WIN24_058,20,female,2024-02-13_13h21.33.286,jersey_experiment_5,2023.2.2,Win32,85.47008547,,,,,,,,,,,,,,,,227.8783,229.6781,229.6781,231.5488,return,1.0121,,76.82291667,0,45,45,33,1,FBP-YG-71.png,0.43,1.2,34,1,,,,,,,,,,,,,,,,,,,,,,,,,,,,,,,,,,,,,,,,,,,,,
,,,,,WIN24_058,20,female,2024-02-13_13h21.33.286,jersey_experiment_5,2023.2.2,Win32,85.47008547,,,,,,,,,,,,,,,,231.5491,232.843,232.8431,234.9373,return,0.6265,,77.99479167,0,46,46,4,1,FBP-OG-71.png,0.45,1.2,5,0.5,,,,,,,,,,,,,,,,,,,,,,,,,,,,,,,,,,,,,,,,,,,,,
,,,,,WIN24_058,20,female,2024-02-13_13h21.33.286,jersey_experiment_5,2023.2.2,Win32,85.47008547,,,,,,,,,,,,,,,,234.9376,236.2314,236.2314,237.9608,return,0.6491,,79.42708333,0,47,47,3,1,FBP-OG-71.png,0.43,1.2,4,0.5,,,,,,,,,,,,,,,,,,,,,,,,,,,,,,,,,,,,,,,,,,,,,
,,,,,WIN24_058,20,female,2024-02-13_13h21.33.286,jersey_experiment_5,2023.2.2,Win32,85.47008547,,,,,,,,,,,,,,,,237.961,239.2549,239.2549,241.6197,return,0.9242,,47.00520833,0,48,48,46,1,FBP-PT-17.png,0.37,1.2,47,0.5,,,,,,,,,,,,,,,,,,,,,,,,,,,,,,,,,,,,,,,,,,,,,
,,,,,WIN24_058,20,female,2024-02-13_13h21.33.286,jersey_experiment_5,2023.2.2,Win32,85.47008547,,,,,,,,,,,,,,,,241.6201,243.4198,243.4199,248.1493,return,3.2304,,53.125,0,49,49,22,1,FBP-RB-18.png,0.4,1.2,23,1,,,,,,,,,,,,,,,,,,,,,,,,,,,,,,,,,,,,,,,,,,,,,
,,,,,WIN24_058,20,female,2024-02-13_13h21.33.286,jersey_experiment_5,2023.2.2,Win32,85.47008547,,,,,,,,,,,,,,,,248.1496,249.4436,249.4436,251.4436,return,0.7013,,56.11979167,0,50,50,51,1,FBP-PT-18.png,0.37,1.2,52,0.5,,,,,,,,,,,,,,,,,,,,,,,,,,,,,,,,,,,,,,,,,,,,,
,,,,,WIN24_058,20,female,2024-02-13_13h21.33.286,jersey_experiment_5,2023.2.2,Win32,85.47008547,,,,,,,,,,,,,,,,251.4438,253.2438,253.2438,256.3969,return,1.3071,,50.26041667,0,51,51,31,1,FBP-YG-71.png,0.37,1.2,32,1,,,,,,,,,,,,,,,,,,,,,,,,,,,,,,,,,,,,,,,,,,,,,
,,,,,WIN24_058,20,female,2024-02-13_13h21.33.286,jersey_experiment_5,2023.2.2,Win32,85.47008547,,,,,,,,,,,,,,,,256.3972,258.1968,258.1969,260.4911,return,0.5776,,52.86458333,0,52,52,21,1,FBP-RB-18.png,0.37,1.2,22,1,,,,,,,,,,,,,,,,,,,,,,,,,,,,,,,,,,,,,,,,,,,,,
,,,,,WIN24_058,20,female,2024-02-13_13h21.33.286,jersey_experiment_5,2023.2.2,Win32,85.47008547,,,,,,,,,,,,,,,,260.4914,261.7853,261.7853,263.1265,return,0.6531,,57.03125,0,53,53,2,1,FBP-OG-71.png,0.4,1.2,3,0.5,,,,,,,,,,,,,,,,,,,,,,,,,,,,,,,,,,,,,,,,,,,,,
,,,,,WIN24_058,20,female,2024-02-13_13h21.33.286,jersey_experiment_5,2023.2.2,Win32,85.47008547,,,,,,,,,,,,,,,,263.1267,264.4206,264.4207,265.8444,return,0.5493,,50.52083333,0,54,54,45,1,FBP-PT-17.png,0.35,1.2,46,0.5,,,,,,,,,,,,,,,,,,,,,,,,,,,,,,,,,,,,,,,,,,,,,
,,,,,WIN24_058,20,female,2024-02-13_13h21.33.286,jersey_experiment_5,2023.2.2,Win32,85.47008547,,,,,,,,,,,,,,,,265.8446,267.6443,267.6443,269.3738,return,0.8331,,72.265625,0,55,55,29,1,FBP-RB-19.png,0.45,1.2,30,1,,,,,,,,,,,,,,,,,,,,,,,,,,,,,,,,,,,,,,,,,,,,,
,,,,,WIN24_058,20,female,2024-02-13_13h21.33.286,jersey_experiment_5,2023.2.2,Win32,85.47008547,,,,,,,,,,,,,,,,269.3739,270.6679,270.6679,272.9857,return,0.6966,,70.96354167,0,56,56,56,1,FBP-PT-19.png,0.37,1.2,57,0.5,,,,,,,,,,,,,,,,,,,,,,,,,,,,,,,,,,,,,,,,,,,,,
,,,,,WIN24_058,20,female,2024-02-13_13h21.33.286,jersey_experiment_5,2023.2.2,Win32,85.47008547,,,,,,,,,,,,,,,,272.9859,274.2799,274.28,276.3622,return,0.6371,,67.05729167,0,57,57,6,1,FBP-OG-81.png,0.37,1.2,7,0.5,,,,,,,,,,,,,,,,,,,,,,,,,,,,,,,,,,,,,,,,,,,,,
,,,,,WIN24_058,20,female,2024-02-13_13h21.33.286,jersey_experiment_5,2023.2.2,Win32,85.47008547,,,,,,,,,,,,,,,,276.3624,278.1625,278.1625,279.7389,return,0.7299,,75.78125,0,58,58,44,1,FBP-YG-91.png,0.45,1.2,45,1,,,,,,,,,,,,,,,,,,,,,,,,,,,,,,,,,,,,,,,,,,,,,
,,,,,WIN24_058,20,female,2024-02-13_13h21.33.286,jersey_experiment_5,2023.2.2,Win32,85.47008547,,,,,,,,,,,,,,,,279.7391,281.0329,281.0329,283.5273,return,0.746,,60.80729167,0,59,59,0,1,FBP-OG-71.png,0.35,1.2,1,0.5,,,,,,,,,,,,,,,,,,,,,,,,,,,,,,,,,,,,,,,,,,,,,
,,,,,WIN24_058,20,female,2024-02-13_13h21.33.286,jersey_experiment_5,2023.2.2,Win32,85.47008547,,,,,,,,,,,,,,,,283.529,285.3273,285.3273,287.4332,return,0.9418,,68.88020833,,,,,,FBP-RB-81.png,0.4,1.2,23,1,0,0,0,22,1,,,,,,,,,,,,,,,,,,,,,,,,,,,,,,,,,,,,,,,,
,,,,,WIN24_058,20,female,2024-02-13_13h21.33.286,jersey_experiment_5,2023.2.2,Win32,85.47008547,,,,,,,,,,,,,,,,287.4337,289.2331,289.2332,291.1392,return,0.6307,,55.33854167,,,,,,FBP-RB-71.png,0.35,1.2,16,1,0,1,1,15,1,,,,,,,,,,,,,,,,,,,,,,,,,,,,,,,,,,,,,,,,
,,,,,WIN24_058,20,female,2024-02-13_13h21.33.286,jersey_experiment_5,2023.2.2,Win32,85.47008547,,,,,,,,,,,,,,,,291.1395,292.9395,292.9395,294.5865,return,0.6956,,73.4375,,,,,,FBP-RB-91.png,0.43,1.2,29,1,0,2,2,28,1,,,,,,,,,,,,,,,,,,,,,,,,,,,,,,,,,,,,,,,,
,,,,,WIN24_058,20,female,2024-02-13_13h21.33.286,jersey_experiment_5,2023.2.2,Win32,85.47008547,,,,,,,,,,,,,,,,294.5868,295.8806,295.8807,298.0455,return,0.6822,,60.02604167,,,,,,FBP-PT-81.png,0.35,1.2,51,0.5,0,3,3,50,1,,,,,,,,,,,,,,,,,,,,,,,,,,,,,,,,,,,,,,,,
,,,,,WIN24_058,20,female,2024-02-13_13h21.33.286,jersey_experiment_5,2023.2.2,Win32,85.47008547,,,,,,,,,,,,,,,,298.0457,299.3396,299.3396,301.4339,return,0.6585,,54.42708333,,,,,,FBP-PT-71.png,0.37,1.2,47,0.5,0,4,4,46,1,,,,,,,,,,,,,,,,,,,,,,,,,,,,,,,,,,,,,,,,
,,,,,WIN24_058,20,female,2024-02-13_13h21.33.286,jersey_experiment_5,2023.2.2,Win32,85.47008547,,,,,,,,,,,,,,,,301.4341,302.728,302.728,304.8574,return,0.6851,,67.578125,,,,,,FBP-PT-81.png,0.43,1.2,54,0.5,0,5,5,53,1,,,,,,,,,,,,,,,,,,,,,,,,,,,,,,,,,,,,,,,,
,,,,,WIN24_058,20,female,2024-02-13_13h21.33.286,jersey_experiment_5,2023.2.2,Win32,85.47008547,,,,,,,,,,,,,,,,304.8575,306.6576,306.6576,308.2694,return,0.7158,,83.46354167,,,,,,FBP-YG-19.png,0.45,1.2,45,1,0,6,6,44,1,,,,,,,,,,,,,,,,,,,,,,,,,,,,,,,,,,,,,,,,
,,,,,WIN24_058,20,female,2024-02-13_13h21.33.286,jersey_experiment_5,2023.2.2,Win32,85.47008547,,,,,,,,,,,,,,,,308.2697,309.5635,309.5635,311.9873,return,0.7148,,71.484375,,,,,,FBP-OG-18.png,0.37,1.2,7,0.5,0,7,7,6,1,,,,,,,,,,,,,,,,,,,,,,,,,,,,,,,,,,,,,,,,
,,,,,WIN24_058,20,female,2024-02-13_13h21.33.286,jersey_experiment_5,2023.2.2,Win32,85.47008547,,,,,,,,,,,,,,,,311.9876,313.2812,313.2812,315.2461,return,0.6969,,75.52083333,,,,,,FBP-PT-91.png,0.43,1.2,59,0.5,0,8,8,58,1,,,,,,,,,,,,,,,,,,,,,,,,,,,,,,,,,,,,,,,,
,,,,,WIN24_058,20,female,2024-02-13_13h21.33.286,jersey_experiment_5,2023.2.2,Win32,85.47008547,,,,,,,,,,,,,,,,315.2463,317.046,317.0461,320.2698,return,1.8458,,71.74479167,,,,,,FBP-RB-71.png,0.4,1.2,18,1,0,9,9,17,1,,,,,,,,,,,,,,,,,,,,,,,,,,,,,,,,,,,,,,,,
,,,,,WIN24_058,20,female,2024-02-13_13h21.33.286,jersey_experiment_5,2023.2.2,Win32,85.47008547,,,,,,,,,,,,,,,,320.2701,321.564,321.564,324.2935,return,0.995,,73.17708333,,,,,,FBP-OG-19.png,0.43,1.2,14,0.5,0,10,10,13,1,,,,,,,,,,,,,,,,,,,,,,,,,,,,,,,,,,,,,,,,
,,,,,WIN24_058,20,female,2024-02-13_13h21.33.286,jersey_experiment_5,2023.2.2,Win32,85.47008547,,,,,,,,,,,,,,,,324.2937,325.5877,325.5877,328.5054,return,1.1423,,56.640625,,,,,,FBP-PT-71.png,0.35,1.2,46,0.5,0,11,11,45,1,,,,,,,,,,,,,,,,,,,,,,,,,,,,,,,,,,,,,,,,
,,,,,WIN24_058,20,female,2024-02-13_13h21.33.286,jersey_experiment_5,2023.2.2,Win32,85.47008547,,,,,,,,,,,,,,,,328.5056,330.3055,330.3055,335.7059,return,3.8484,,71.61458333,,,,,,FBP-YG-18.png,0.4,1.2,38,1,0,12,12,37,1,,,,,,,,,,,,,,,,,,,,,,,,,,,,,,,,,,,,,,,,
,,,,,WIN24_058,20,female,2024-02-13_13h21.33.286,jersey_experiment_5,2023.2.2,Win32,85.47008547,,,,,,,,,,,,,,,,335.7061,337.5057,337.5057,339.3412,return,0.7293,,46.09375,,,,,,FBP-RB-91.png,0.35,1.2,26,1,0,13,13,25,1,,,,,,,,,,,,,,,,,,,,,,,,,,,,,,,,,,,,,,,,
,,,,,WIN24_058,20,female,2024-02-13_13h21.33.286,jersey_experiment_5,2023.2.2,Win32,85.47008547,,,,,,,,,,,,,,,,339.3414,341.1411,341.1412,342.7178,return,0.67,,50.26041667,,,,,,FBP-YG-17.png,0.4,1.2,33,1,0,14,14,32,1,,,,,,,,,,,,,,,,,,,,,,,,,,,,,,,,,,,,,,,,
,,,,,WIN24_058,20,female,2024-02-13_13h21.33.286,jersey_experiment_5,2023.2.2,Win32,85.47008547,,,,,,,,,,,,,,,,342.7179,344.0119,344.0119,345.9414,return,0.6655,,54.6875,,,,,,FBP-PT-81.png,0.4,1.2,53,0.5,0,15,15,52,1,,,,,,,,,,,,,,,,,,,,,,,,,,,,,,,,,,,,,,,,
,,,,,WIN24_058,20,female,2024-02-13_13h21.33.286,jersey_experiment_5,2023.2.2,Win32,85.47008547,,,,,,,,,,,,,,,,345.9416,347.7415,347.7415,349.0827,return,0.7059,,62.36979167,,,,,,FBP-YG-18.png,0.45,1.2,40,1,0,16,16,39,1,,,,,,,,,,,,,,,,,,,,,,,,,,,,,,,,,,,,,,,,
,,,,,WIN24_058,20,female,2024-02-13_13h21.33.286,jersey_experiment_5,2023.2.2,Win32,85.47008547,,,,,,,,,,,,,,,,349.0829,350.3769,350.3769,352.4356,return,0.6438,,55.72916667,,,,,,FBP-PT-81.png,0.37,1.2,52,0.5,0,17,17,51,1,,,,,,,,,,,,,,,,,,,,,,,,,,,,,,,,,,,,,,,,
,,,,,WIN24_058,20,female,2024-02-13_13h21.33.286,jersey_experiment_5,2023.2.2,Win32,85.47008547,,,,,,,,,,,,,,,,352.4358,353.7299,353.7299,355.836,return,0.6964,,55.46875,,,,,,FBP-PT-91.png,0.4,1.2,58,0.5,0,18,18,57,1,,,,,,,,,,,,,,,,,,,,,,,,,,,,,,,,,,,,,,,,
,,,,,WIN24_058,20,female,2024-02-13_13h21.33.286,jersey_experiment_5,2023.2.2,Win32,85.47008547,,,,,,,,,,,,,,,,355.8361,357.6359,357.6359,359.1183,return,0.7529,,64.84375,,,,,,FBP-RB-71.png,0.45,1.2,20,1,0,19,19,19,1,,,,,,,,,,,,,,,,,,,,,,,,,,,,,,,,,,,,,,,,
,,,,,WIN24_058,20,female,2024-02-13_13h21.33.286,jersey_experiment_5,2023.2.2,Win32,85.47008547,,,,,,,,,,,,,,,,359.1184,360.9187,360.9187,362.8125,return,0.6591,,44.921875,,,,,,FBP-YG-17.png,0.35,1.2,31,1,0,20,20,30,1,,,,,,,,,,,,,,,,,,,,,,,,,,,,,,,,,,,,,,,,
,,,,,WIN24_058,20,female,2024-02-13_13h21.33.286,jersey_experiment_5,2023.2.2,Win32,85.47008547,,,,,,,,,,,,,,,,362.8128,364.1067,364.1067,366.2361,return,0.7664,,47.91666667,,,,,,FBP-OG-17.png,0.37,1.2,2,0.5,0,21,21,1,1,,,,,,,,,,,,,,,,,,,,,,,,,,,,,,,,,,,,,,,,
,,,,,WIN24_058,20,female,2024-02-13_13h21.33.286,jersey_experiment_5,2023.2.2,Win32,85.47008547,,,,,,,,,,,,,,,,366.2364,368.0363,368.0363,370.3305,return,0.636,,58.85416667,,,,,,FBP-RB-81.png,0.43,1.2,24,1,0,22,22,23,1,,,,,,,,,,,,,,,,,,,,,,,,,,,,,,,,,,,,,,,,
,,,,,WIN24_058,20,female,2024-02-13_13h21.33.286,jersey_experiment_5,2023.2.2,Win32,85.47008547,,,,,,,,,,,,,,,,370.3307,372.1306,372.1307,373.9189,return,0.7535,,48.30729167,,,,,,FBP-RB-81.png,0.35,1.2,21,1,0,23,23,20,1,,,,,,,,,,,,,,,,,,,,,,,,,,,,,,,,,,,,,,,,
,,,,,WIN24_058,20,female,2024-02-13_13h21.33.286,jersey_experiment_5,2023.2.2,Win32,85.47008547,,,,,,,,,,,,,,,,373.9191,375.213,375.213,377.9779,return,1.2384,,39.58333333,,,,,,FBP-OG-18.png,0.35,1.2,6,0.5,0,24,24,5,1,,,,,,,,,,,,,,,,,,,,,,,,,,,,,,,,,,,,,,,,
,,,,,WIN24_058,20,female,2024-02-13_13h21.33.286,jersey_experiment_5,2023.2.2,Win32,85.47008547,,,,,,,,,,,,,,,,377.9781,379.2721,379.2721,381.3074,return,0.6229,,56.11979167,,,,,,FBP-OG-18.png,0.43,1.2,9,0.5,0,25,25,8,1,,,,,,,,,,,,,,,,,,,,,,,,,,,,,,,,,,,,,,,,
,,,,,WIN24_058,20,female,2024-02-13_13h21.33.286,jersey_experiment_5,2023.2.2,Win32,85.47008547,,,,,,,,,,,,,,,,381.3076,382.6016,382.6017,385.4958,return,0.8987,,59.50520833,,,,,,FBP-OG-18.png,0.4,1.2,8,0.5,0,26,26,7,1,,,,,,,,,,,,,,,,,,,,,,,,,,,,,,,,,,,,,,,,
,,,,,WIN24_058,20,female,2024-02-13_13h21.33.286,jersey_experiment_5,2023.2.2,Win32,85.47008547,,,,,,,,,,,,,,,,385.4959,386.7899,386.7899,389.6842,return,1.0434,,69.40104167,,,,,,FBP-PT-81.png,0.45,1.2,55,0.5,0,27,27,54,1,,,,,,,,,,,,,,,,,,,,,,,,,,,,,,,,,,,,,,,,
,,,,,WIN24_058,20,female,2024-02-13_13h21.33.286,jersey_experiment_5,2023.2.2,Win32,85.47008547,,,,,,,,,,,,,,,,389.6845,391.4843,391.4843,393.3667,return,0.794,,60.41666667,,,,,,FBP-RB-81.png,0.37,1.2,22,1,0,28,28,21,1,,,,,,,,,,,,,,,,,,,,,,,,,,,,,,,,,,,,,,,,
,,,,,WIN24_058,20,female,2024-02-13_13h21.33.286,jersey_experiment_5,2023.2.2,Win32,85.47008547,,,,,,,,,,,,,,,,393.3669,394.6609,394.6609,397.1903,return,0.8764,,62.890625,,,,,,FBP-OG-19.png,0.37,1.2,12,0.5,0,29,29,11,1,,,,,,,,,,,,,,,,,,,,,,,,,,,,,,,,,,,,,,,,
,,,,,WIN24_058,20,female,2024-02-13_13h21.33.286,jersey_experiment_5,2023.2.2,Win32,85.47008547,,,,,,,,,,,,,,,,397.1906,398.9904,398.9905,401.8377,return,1.8127,,59.50520833,,,,,,FBP-RB-91.png,0.37,1.2,27,1,0,30,30,26,1,,,,,,,,,,,,,,,,,,,,,,,,,,,,,,,,,,,,,,,,
,,,,,WIN24_058,20,female,2024-02-13_13h21.33.286,jersey_experiment_5,2023.2.2,Win32,85.47008547,,,,,,,,,,,,,,,,401.8379,403.1318,403.1318,405.4966,return,0.7903,,61.45833333,,,,,,FBP-OG-19.png,0.35,1.2,11,0.5,0,31,31,10,1,,,,,,,,,,,,,,,,,,,,,,,,,,,,,,,,,,,,,,,,
,,,,,WIN24_058,20,female,2024-02-13_13h21.33.286,jersey_experiment_5,2023.2.2,Win32,85.47008547,,,,,,,,,,,,,,,,405.4967,407.2965,407.2966,409.4967,return,0.9548,,87.109375,,,,,,FBP-RB-81.png,0.45,1.2,25,1,0,32,32,24,1,,,,,,,,,,,,,,,,,,,,,,,,,,,,,,,,,,,,,,,,
,,,,,WIN24_058,20,female,2024-02-13_13h21.33.286,jersey_experiment_5,2023.2.2,Win32,85.47008547,,,,,,,,,,,,,,,,409.4968,411.2968,411.2969,412.8851,return,0.7599,,81.11979167,,,,,,FBP-YG-18.png,0.43,1.2,39,1,0,33,33,38,1,,,,,,,,,,,,,,,,,,,,,,,,,,,,,,,,,,,,,,,,
,,,,,WIN24_058,20,female,2024-02-13_13h21.33.286,jersey_experiment_5,2023.2.2,Win32,85.47008547,,,,,,,,,,,,,,,,412.8853,414.6852,414.6852,416.4735,return,0.7676,,78.25520833,,,,,,FBP-RB-71.png,0.43,1.2,19,1,0,34,34,18,1,,,,,,,,,,,,,,,,,,,,,,,,,,,,,,,,,,,,,,,,
,,,,,WIN24_058,20,female,2024-02-13_13h21.33.286,jersey_experiment_5,2023.2.2,Win32,85.47008547,,,,,,,,,,,,,,,,416.4737,418.2735,418.2735,420.3441,return,0.6866,,40.88541667,,,,,,FBP-YG-18.png,0.35,1.2,36,1,0,35,35,35,1,,,,,,,,,,,,,,,,,,,,,,,,,,,,,,,,,,,,,,,,
,,,,,WIN24_058,20,female,2024-02-13_13h21.33.286,jersey_experiment_5,2023.2.2,Win32,85.47008547,,,,,,,,,,,,,,,,420.3443,421.6383,421.6383,424.2972,return,0.7091,,43.22916667,,,,,,FBP-OG-17.png,0.35,1.2,1,0.5,0,36,36,0,1,,,,,,,,,,,,,,,,,,,,,,,,,,,,,,,,,,,,,,,,
,,,,,WIN24_058,20,female,2024-02-13_13h21.33.286,jersey_experiment_5,2023.2.2,Win32,85.47008547,,,,,,,,,,,,,,,,424.2974,425.5914,425.5915,430.1563,return,3.6236,,55.078125,,,,,,FBP-OG-17.png,0.4,1.2,3,0.5,0,37,37,2,1,,,,,,,,,,,,,,,,,,,,,,,,,,,,,,,,,,,,,,,,
,,,,,WIN24_058,20,female,2024-02-13_13h21.33.286,jersey_experiment_5,2023.2.2,Win32,85.47008547,,,,,,,,,,,,,,,,430.1565,431.4504,431.4505,433.933,return,0.8243,,50,,,,,,FBP-OG-19.png,0.4,1.2,13,0.5,0,38,38,12,1,,,,,,,,,,,,,,,,,,,,,,,,,,,,,,,,,,,,,,,,
,,,,,WIN24_058,20,female,2024-02-13_13h21.33.286,jersey_experiment_5,2023.2.2,Win32,85.47008547,,,,,,,,,,,,,,,,433.9331,435.227,435.2271,438.1684,return,0.8497,,62.23958333,,,,,,FBP-OG-19.png,0.45,1.2,15,0.5,0,39,39,14,1,,,,,,,,,,,,,,,,,,,,,,,,,,,,,,,,,,,,,,,,
,,,,,WIN24_058,20,female,2024-02-13_13h21.33.286,jersey_experiment_5,2023.2.2,Win32,85.47008547,,,,,,,,,,,,,,,,438.1687,439.9684,439.9684,441.6862,return,0.6751,,78.64583333,,,,,,FBP-YG-17.png,0.45,1.2,35,1,0,40,40,34,1,,,,,,,,,,,,,,,,,,,,,,,,,,,,,,,,,,,,,,,,
,,,,,WIN24_058,20,female,2024-02-13_13h21.33.286,jersey_experiment_5,2023.2.2,Win32,85.47008547,,,,,,,,,,,,,,,,441.6865,443.4861,443.4861,445.3804,return,0.7371,,57.16145833,,,,,,FBP-YG-17.png,0.43,1.2,34,1,0,41,41,33,1,,,,,,,,,,,,,,,,,,,,,,,,,,,,,,,,,,,,,,,,
,,,,,WIN24_058,20,female,2024-02-13_13h21.33.286,jersey_experiment_5,2023.2.2,Win32,85.47008547,,,,,,,,,,,,,,,,445.3806,446.6747,446.6748,448.8041,return,0.6554,,72.78645833,,,,,,FBP-PT-71.png,0.43,1.2,49,0.5,0,42,42,48,1,,,,,,,,,,,,,,,,,,,,,,,,,,,,,,,,,,,,,,,,
,,,,,WIN24_058,20,female,2024-02-13_13h21.33.286,jersey_experiment_5,2023.2.2,Win32,85.47008547,,,,,,,,,,,,,,,,448.8044,450.6041,450.6041,452.5689,return,0.708,,68.48958333,,,,,,FBP-RB-91.png,0.4,1.2,28,1,0,43,43,27,1,,,,,,,,,,,,,,,,,,,,,,,,,,,,,,,,,,,,,,,,
,,,,,WIN24_058,20,female,2024-02-13_13h21.33.286,jersey_experiment_5,2023.2.2,Win32,85.47008547,,,,,,,,,,,,,,,,452.5692,453.8632,453.8632,455.8984,return,0.5999,,73.95833333,,,,,,FBP-OG-17.png,0.43,1.2,4,0.5,0,44,44,3,1,,,,,,,,,,,,,,,,,,,,,,,,,,,,,,,,,,,,,,,,
,,,,,WIN24_058,20,female,2024-02-13_13h21.33.286,jersey_experiment_5,2023.2.2,Win32,85.47008547,,,,,,,,,,,,,,,,455.8986,457.6985,457.6986,459.8633,return,1.0991,,55.59895833,,,,,,FBP-RB-71.png,0.37,1.2,17,1,0,45,45,16,1,,,,,,,,,,,,,,,,,,,,,,,,,,,,,,,,,,,,,,,,
,,,,,WIN24_058,20,female,2024-02-13_13h21.33.286,jersey_experiment_5,2023.2.2,Win32,85.47008547,,,,,,,,,,,,,,,,459.8635,461.1575,461.1575,464.3107,return,0.6293,,56.90104167,,,,,,FBP-PT-71.png,0.4,1.2,48,0.5,0,46,46,47,1,,,,,,,,,,,,,,,,,,,,,,,,,,,,,,,,,,,,,,,,
,,,,,WIN24_058,20,female,2024-02-13_13h21.33.286,jersey_experiment_5,2023.2.2,Win32,85.47008547,,,,,,,,,,,,,,,,464.3109,466.1106,466.1106,467.9578,return,0.6772,,47.39583333,,,,,,FBP-YG-18.png,0.37,1.2,37,1,0,47,47,36,1,,,,,,,,,,,,,,,,,,,,,,,,,,,,,,,,,,,,,,,,
,,,,,WIN24_058,20,female,2024-02-13_13h21.33.286,jersey_experiment_5,2023.2.2,Win32,85.47008547,,,,,,,,,,,,,,,,467.958,469.252,469.252,472.2521,return,1.2808,,76.171875,,,,,,FBP-PT-71.png,0.45,1.2,50,0.5,0,48,48,49,1,,,,,,,,,,,,,,,,,,,,,,,,,,,,,,,,,,,,,,,,
,,,,,WIN24_058,20,female,2024-02-13_13h21.33.286,jersey_experiment_5,2023.2.2,Win32,85.47008547,,,,,,,,,,,,,,,,472.2522,474.0521,474.0521,476.1815,return,0.9809,,60.67708333,,,,,,FBP-YG-19.png,0.37,1.2,42,1,0,49,49,41,1,,,,,,,,,,,,,,,,,,,,,,,,,,,,,,,,,,,,,,,,
,,,,,WIN24_058,20,female,2024-02-13_13h21.33.286,jersey_experiment_5,2023.2.2,Win32,85.47008547,,,,,,,,,,,,,,,,476.1817,477.4758,477.4758,479.9347,return,0.6719,,76.69270833,,,,,,FBP-PT-91.png,0.45,1.2,60,0.5,0,50,50,59,1,,,,,,,,,,,,,,,,,,,,,,,,,,,,,,,,,,,,,,,,
,,,,,WIN24_058,20,female,2024-02-13_13h21.33.286,jersey_experiment_5,2023.2.2,Win32,85.47008547,,,,,,,,,,,,,,,,479.9348,481.7347,481.7347,483.9349,return,0.6597,,74.21875,,,,,,FBP-YG-19.png,0.4,1.2,43,1,0,51,51,42,1,,,,,,,,,,,,,,,,,,,,,,,,,,,,,,,,,,,,,,,,
,,,,,WIN24_058,20,female,2024-02-13_13h21.33.286,jersey_experiment_5,2023.2.2,Win32,85.47008547,,,,,,,,,,,,,,,,483.9351,485.2291,485.2291,488.2174,return,0.8856,,76.5625,,,,,,FBP-OG-17.png,0.45,1.2,5,0.5,0,52,52,4,1,,,,,,,,,,,,,,,,,,,,,,,,,,,,,,,,,,,,,,,,
,,,,,WIN24_058,20,female,2024-02-13_13h21.33.286,jersey_experiment_5,2023.2.2,Win32,85.47008547,,,,,,,,,,,,,,,,488.2176,490.0172,490.0172,492.0293,return,0.659,,59.63541667,,,,,,FBP-YG-17.png,0.37,1.2,32,1,0,53,53,31,1,,,,,,,,,,,,,,,,,,,,,,,,,,,,,,,,,,,,,,,,
,,,,,WIN24_058,20,female,2024-02-13_13h21.33.286,jersey_experiment_5,2023.2.2,Win32,85.47008547,,,,,,,,,,,,,,,,492.0295,493.8292,493.8292,495.8177,return,0.6495,,78.515625,,,,,,FBP-YG-19.png,0.43,1.2,44,1,0,54,54,43,1,,,,,,,,,,,,,,,,,,,,,,,,,,,,,,,,,,,,,,,,
,,,,,WIN24_058,20,female,2024-02-13_13h21.33.286,jersey_experiment_5,2023.2.2,Win32,85.47008547,,,,,,,,,,,,,,,,495.818,497.1119,497.1119,498.7235,return,0.5971,,80.078125,,,,,,FBP-OG-18.png,0.45,1.2,10,0.5,0,55,55,9,1,,,,,,,,,,,,,,,,,,,,,,,,,,,,,,,,,,,,,,,,
,,,,,WIN24_058,20,female,2024-02-13_13h21.33.286,jersey_experiment_5,2023.2.2,Win32,85.47008547,,,,,,,,,,,,,,,,498.7236,500.0177,500.0177,502.2179,return,0.838,,43.22916667,,,,,,FBP-PT-91.png,0.35,1.2,56,0.5,0,56,56,55,1,,,,,,,,,,,,,,,,,,,,,,,,,,,,,,,,,,,,,,,,
,,,,,WIN24_058,20,female,2024-02-13_13h21.33.286,jersey_experiment_5,2023.2.2,Win32,85.47008547,,,,,,,,,,,,,,,,502.2181,503.5121,503.5121,505.7003,return,0.806,,58.33333333,,,,,,FBP-PT-91.png,0.37,1.2,57,0.5,0,57,57,56,1,,,,,,,,,,,,,,,,,,,,,,,,,,,,,,,,,,,,,,,,
,,,,,WIN24_058,20,female,2024-02-13_13h21.33.286,jersey_experiment_5,2023.2.2,Win32,85.47008547,,,,,,,,,,,,,,,,505.7006,507.5005,507.5006,508.9711,return,0.9177,,31.38020833,,,,,,FBP-YG-19.png,0.35,1.2,41,1,0,58,58,40,1,,,,,,,,,,,,,,,,,,,,,,,,,,,,,,,,,,,,,,,,
,,,,,WIN24_058,20,female,2024-02-13_13h21.33.286,jersey_experiment_5,2023.2.2,Win32,85.47008547,,,,,,,,,,,,,,,,508.9714,510.771,510.771,512.983,return,0.9467,,72.78645833,,,,,,FBP-RB-91.png,0.45,1.2,30,1,0,59,59,29,1,,,,,,,,,,,,,,,,,,,,,,,,,,,,,,,,,,,,,,,,
,,,,,WIN24_058,20,female,2024-02-13_13h21.33.286,jersey_experiment_5,2023.2.2,Win32,85.47008547,,,,,,,,,,,,,,,,,,,,,,,,,,,,,,,,,,,,,,,512.9834,632.9878,,,,,,,,,,,,,,,,,,,,,,,,,,,,,,,,,,,,,,
,,,,,WIN24_058,20,female,2024-02-13_13h21.33.286,jersey_experiment_5,2023.2.2,Win32,85.47008547,,,,,,,,,,,,,,,,,,,,,,,,,,,,,,,,,,,,,,,,,632.9879,636.4584,return,3.4587,,,,,,,,,,,,,,,,,,,,,,,,,,,,,,,,,,
,,,,,WIN24_058,20,female,2024-02-13_13h21.33.286,jersey_experiment_5,2023.2.2,Win32,85.47008547,,,,,,,,,,,,,,,,636.4643,637.7642,637.7642,640.4936,return,0.7632,,50.78125,,,,,,FBP-RB-19.png,0.37,1.2,27,0.5,,,,,,,,,,,,,0,0,0,26,1,,,,,,,,,,,,,,,,,,,,,,,,,,,,
,,,,,WIN24_058,20,female,2024-02-13_13h21.33.286,jersey_experiment_5,2023.2.2,Win32,85.47008547,,,,,,,,,,,,,,,,640.494,641.7878,641.7878,643.9762,return,0.7573,,61.45833333,,,,,,FBP-YG-71.png,0.43,1.2,34,0.5,,,,,,,,,,,,,0,1,1,33,1,,,,,,,,,,,,,,,,,,,,,,,,,,,,
,,,,,WIN24_058,20,female,2024-02-13_13h21.33.286,jersey_experiment_5,2023.2.2,Win32,85.47008547,,,,,,,,,,,,,,,,643.9763,645.7762,645.7763,647.2116,return,0.202,,54.6875,,,,,,FBP-PT-18.png,0.4,1.2,53,1,,,,,,,,,,,,,0,2,2,52,1,,,,,,,,,,,,,,,,,,,,,,,,,,,,
,,,,,WIN24_058,20,female,2024-02-13_13h21.33.286,jersey_experiment_5,2023.2.2,Win32,85.47008547,,,,,,,,,,,,,,,,647.2118,648.5058,648.5058,649.894,return,0.3329,,70.3125,,,,,,FBP-YG-81.png,0.43,1.2,39,0.5,,,,,,,,,,,,,0,3,3,38,1,,,,,,,,,,,,,,,,,,,,,,,,,,,,
,,,,,WIN24_058,20,female,2024-02-13_13h21.33.286,jersey_experiment_5,2023.2.2,Win32,85.47008547,,,,,,,,,,,,,,,,649.8943,651.6943,651.6943,652.5529,return,0.2979,,76.69270833,,,,,,FBP-PT-17.png,0.43,1.2,49,1,,,,,,,,,,,,,0,4,4,48,1,,,,,,,,,,,,,,,,,,,,,,,,,,,,
,,,,,WIN24_058,20,female,2024-02-13_13h21.33.286,jersey_experiment_5,2023.2.2,Win32,85.47008547,,,,,,,,,,,,,,,,652.5531,654.3532,654.3532,655.2237,return,0.1693,,65.625,,,,,,FBP-OG-91.png,0.4,1.2,13,1,,,,,,,,,,,,,0,5,5,12,1,,,,,,,,,,,,,,,,,,,,,,,,,,,,
,,,,,WIN24_058,20,female,2024-02-13_13h21.33.286,jersey_experiment_5,2023.2.2,Win32,85.47008547,,,,,,,,,,,,,,,,655.2238,656.5178,656.5178,658.0943,return,0.8241,,71.22395833,,,,,,FBP-YG-81.png,0.4,1.2,38,0.5,,,,,,,,,,,,,0,6,6,37,1,,,,,,,,,,,,,,,,,,,,,,,,,,,,
,,,,,WIN24_058,20,female,2024-02-13_13h21.33.286,jersey_experiment_5,2023.2.2,Win32,85.47008547,,,,,,,,,,,,,,,,658.0946,659.8946,659.8946,660.6826,return,0.1901,,54.55729167,,,,,,FBP-PT-19.png,0.37,1.2,57,1,,,,,,,,,,,,,0,7,7,56,1,,,,,,,,,,,,,,,,,,,,,,,,,,,,
,,,,,WIN24_058,20,female,2024-02-13_13h21.33.286,jersey_experiment_5,2023.2.2,Win32,85.47008547,,,,,,,,,,,,,,,,660.6829,661.9768,661.9768,662.8593,return,0.2589,,63.54166667,,,,,,FBP-RB-19.png,0.45,1.2,30,0.5,,,,,,,,,,,,,0,8,8,29,1,,,,,,,,,,,,,,,,,,,,,,,,,,,,
,,,,,WIN24_058,20,female,2024-02-13_13h21.33.286,jersey_experiment_5,2023.2.2,Win32,85.47008547,,,,,,,,,,,,,,,,662.8595,664.1534,664.1534,665.1299,return,0.272,,77.47395833,,,,,,FBP-YG-91.png,0.45,1.2,45,0.5,,,,,,,,,,,,,0,9,9,44,1,,,,,,,,,,,,,,,,,,,,,,,,,,,,
,,,,,WIN24_058,20,female,2024-02-13_13h21.33.286,jersey_experiment_5,2023.2.2,Win32,85.47008547,,,,,,,,,,,,,,,,665.1301,666.93,666.93,667.5183,return,0.1315,,80.59895833,,,,,,FBP-PT-19.png,0.45,1.2,60,1,,,,,,,,,,,,,0,10,10,59,1,,,,,,,,,,,,,,,,,,,,,,,,,,,,
,,,,,WIN24_058,20,female,2024-02-13_13h21.33.286,jersey_experiment_5,2023.2.2,Win32,85.47008547,,,,,,,,,,,,,,,,667.5186,669.3182,669.3182,669.8478,return,0.1339,,81.640625,,,,,,FBP-PT-17.png,0.45,1.2,50,1,,,,,,,,,,,,,0,11,11,49,1,,,,,,,,,,,,,,,,,,,,,,,,,,,,
,,,,,WIN24_058,20,female,2024-02-13_13h21.33.286,jersey_experiment_5,2023.2.2,Win32,85.47008547,,,,,,,,,,,,,,,,669.848,671.6477,671.6478,672.6949,return,0.0978,,59.24479167,,,,,,FBP-OG-91.png,0.37,1.2,12,1,,,,,,,,,,,,,0,12,12,11,1,,,,,,,,,,,,,,,,,,,,,,,,,,,,
,,,,,WIN24_058,20,female,2024-02-13_13h21.33.286,jersey_experiment_5,2023.2.2,Win32,85.47008547,,,,,,,,,,,,,,,,672.6951,674.4948,674.4948,675.1773,return,0.1314,,46.74479167,,,,,,FBP-PT-17.png,0.35,1.2,46,1,,,,,,,,,,,,,0,13,13,45,1,,,,,,,,,,,,,,,,,,,,,,,,,,,,
,,,,,WIN24_058,20,female,2024-02-13_13h21.33.286,jersey_experiment_5,2023.2.2,Win32,85.47008547,,,,,,,,,,,,,,,,675.1775,676.9775,676.9775,677.7657,return,0.1345,,53.125,,,,,,FBP-OG-71.png,0.37,1.2,2,1,,,,,,,,,,,,,0,14,14,1,1,,,,,,,,,,,,,,,,,,,,,,,,,,,,
,,,,,WIN24_058,20,female,2024-02-13_13h21.33.286,jersey_experiment_5,2023.2.2,Win32,85.47008547,,,,,,,,,,,,,,,,677.7658,679.0598,679.0598,680.3894,return,0.1602,,48.4375,,,,,,FBP-RB-17.png,0.35,1.2,16,0.5,,,,,,,,,,,,,0,15,15,15,1,,,,,,,,,,,,,,,,,,,,,,,,,,,,
,,,,,WIN24_058,20,female,2024-02-13_13h21.33.286,jersey_experiment_5,2023.2.2,Win32,85.47008547,,,,,,,,,,,,,,,,680.3896,681.6835,681.6836,682.6953,return,0.0976,,48.56770833,,,,,,FBP-YG-91.png,0.37,1.2,42,0.5,,,,,,,,,,,,,0,16,16,41,1,,,,,,,,,,,,,,,,,,,,,,,,,,,,
,,,,,WIN24_058,20,female,2024-02-13_13h21.33.286,jersey_experiment_5,2023.2.2,Win32,85.47008547,,,,,,,,,,,,,,,,682.6956,683.9895,683.9895,685.4484,return,0.5198,,69.27083333,,,,,,FBP-RB-18.png,0.43,1.2,24,0.5,,,,,,,,,,,,,0,17,17,23,1,,,,,,,,,,,,,,,,,,,,,,,,,,,,
,,,,,WIN24_058,20,female,2024-02-13_13h21.33.286,jersey_experiment_5,2023.2.2,Win32,85.47008547,,,,,,,,,,,,,,,,685.4486,687.2486,687.2486,688.3897,return,0.1227,,70.96354167,,,,,,FBP-OG-71.png,0.43,1.2,4,1,,,,,,,,,,,,,0,18,18,3,1,,,,,,,,,,,,,,,,,,,,,,,,,,,,
,,,,,WIN24_058,20,female,2024-02-13_13h21.33.286,jersey_experiment_5,2023.2.2,Win32,85.47008547,,,,,,,,,,,,,,,,688.3899,690.1897,690.1897,690.8132,return,0.1652,,74.73958333,,,,,,FBP-OG-91.png,0.43,1.2,14,1,,,,,,,,,,,,,0,19,19,13,1,,,,,,,,,,,,,,,,,,,,,,,,,,,,
,,,,,WIN24_058,20,female,2024-02-13_13h21.33.286,jersey_experiment_5,2023.2.2,Win32,85.47008547,,,,,,,,,,,,,,,,690.8135,692.6134,692.6134,693.2722,return,0.145,,67.578125,,,,,,FBP-PT-17.png,0.4,1.2,48,1,,,,,,,,,,,,,0,20,20,47,1,,,,,,,,,,,,,,,,,,,,,,,,,,,,
,,,,,WIN24_058,20,female,2024-02-13_13h21.33.286,jersey_experiment_5,2023.2.2,Win32,85.47008547,,,,,,,,,,,,,,,,693.2724,695.0726,695.0726,695.6605,return,0.1414,,65.88541667,,,,,,FBP-OG-81.png,0.35,1.2,6,1,,,,,,,,,,,,,0,21,21,5,1,,,,,,,,,,,,,,,,,,,,,,,,,,,,
,,,,,WIN24_058,20,female,2024-02-13_13h21.33.286,jersey_experiment_5,2023.2.2,Win32,85.47008547,,,,,,,,,,,,,,,,695.6607,697.4607,697.4607,698.037,return,0.1476,,70.18229167,,,,,,FBP-OG-81.png,0.4,1.2,8,1,,,,,,,,,,,,,0,22,22,7,1,,,,,,,,,,,,,,,,,,,,,,,,,,,,
,,,,,WIN24_058,20,female,2024-02-13_13h21.33.286,jersey_experiment_5,2023.2.2,Win32,85.47008547,,,,,,,,,,,,,,,,698.0373,699.3312,699.3312,700.4253,return,0.1442,,64.19270833,,,,,,FBP-YG-81.png,0.35,1.2,36,0.5,,,,,,,,,,,,,0,23,23,35,1,,,,,,,,,,,,,,,,,,,,,,,,,,,,
,,,,,WIN24_058,20,female,2024-02-13_13h21.33.286,jersey_experiment_5,2023.2.2,Win32,85.47008547,,,,,,,,,,,,,,,,700.4254,701.7194,701.7194,702.5079,return,0.1318,,71.484375,,,,,,FBP-YG-91.png,0.4,1.2,43,0.5,,,,,,,,,,,,,0,24,24,42,1,,,,,,,,,,,,,,,,,,,,,,,,,,,,
,,,,,WIN24_058,20,female,2024-02-13_13h21.33.286,jersey_experiment_5,2023.2.2,Win32,85.47008547,,,,,,,,,,,,,,,,702.508,703.802,703.802,704.4608,return,0.1175,,71.484375,,,,,,FBP-YG-81.png,0.37,1.2,37,0.5,,,,,,,,,,,,,0,25,25,36,1,,,,,,,,,,,,,,,,,,,,,,,,,,,,
,,,,,WIN24_058,20,female,2024-02-13_13h21.33.286,jersey_experiment_5,2023.2.2,Win32,85.47008547,,,,,,,,,,,,,,,,704.4611,706.261,706.2611,707.0022,return,0.1081,,85.15625,,,,,,FBP-PT-18.png,0.43,1.2,54,1,,,,,,,,,,,,,0,26,26,53,1,,,,,,,,,,,,,,,,,,,,,,,,,,,,
,,,,,WIN24_058,20,female,2024-02-13_13h21.33.286,jersey_experiment_5,2023.2.2,Win32,85.47008547,,,,,,,,,,,,,,,,707.0023,708.2963,708.2963,709.1669,return,0.0941,,61.58854167,,,,,,FBP-YG-91.png,0.35,1.2,41,0.5,,,,,,,,,,,,,0,27,27,40,1,,,,,,,,,,,,,,,,,,,,,,,,,,,,
,,,,,WIN24_058,20,female,2024-02-13_13h21.33.286,jersey_experiment_5,2023.2.2,Win32,85.47008547,,,,,,,,,,,,,,,,709.1671,710.9671,710.9671,711.6611,return,0.2114,,76.43229167,,,,,,FBP-PT-19.png,0.43,1.2,59,1,,,,,,,,,,,,,0,28,28,58,1,,,,,,,,,,,,,,,,,,,,,,,,,,,,
,,,,,WIN24_058,20,female,2024-02-13_13h21.33.286,jersey_experiment_5,2023.2.2,Win32,85.47008547,,,,,,,,,,,,,,,,711.6613,713.4611,713.4612,714.9083,return,0.1562,,69.79166667,,,,,,FBP-OG-71.png,0.4,1.2,3,1,,,,,,,,,,,,,0,29,29,2,1,,,,,,,,,,,,,,,,,,,,,,,,,,,,
,,,,,WIN24_058,20,female,2024-02-13_13h21.33.286,jersey_experiment_5,2023.2.2,Win32,85.47008547,,,,,,,,,,,,,,,,714.9084,716.2025,716.2025,717.0495,return,0.1089,,65.234375,,,,,,FBP-RB-18.png,0.37,1.2,22,0.5,,,,,,,,,,,,,0,30,30,21,1,,,,,,,,,,,,,,,,,,,,,,,,,,,,
,,,,,WIN24_058,20,female,2024-02-13_13h21.33.286,jersey_experiment_5,2023.2.2,Win32,85.47008547,,,,,,,,,,,,,,,,717.0498,718.3435,718.3435,719.132,return,0.0806,,58.07291667,,,,,,FBP-YG-71.png,0.37,1.2,32,0.5,,,,,,,,,,,,,0,31,31,31,1,,,,,,,,,,,,,,,,,,,,,,,,,,,,
,,,,,WIN24_058,20,female,2024-02-13_13h21.33.286,jersey_experiment_5,2023.2.2,Win32,85.47008547,,,,,,,,,,,,,,,,719.1321,720.4261,720.4261,721.532,return,0.0473,,70.44270833,,,,,,FBP-YG-71.png,0.4,1.2,33,0.5,,,,,,,,,,,,,0,32,32,32,1,,,,,,,,,,,,,,,,,,,,,,,,,,,,
,,,,,WIN24_058,20,female,2024-02-13_13h21.33.286,jersey_experiment_5,2023.2.2,Win32,85.47008547,,,,,,,,,,,,,,,,721.5322,723.3324,723.3324,724.1087,return,0.1405,,87.23958333,,,,,,FBP-OG-81.png,0.43,1.2,9,1,,,,,,,,,,,,,0,33,33,8,1,,,,,,,,,,,,,,,,,,,,,,,,,,,,
,,,,,WIN24_058,20,female,2024-02-13_13h21.33.286,jersey_experiment_5,2023.2.2,Win32,85.47008547,,,,,,,,,,,,,,,,724.1089,725.9087,725.9087,727.1912,return,0.1351,,46.09375,,,,,,FBP-PT-19.png,0.35,1.2,56,1,,,,,,,,,,,,,0,34,34,55,1,,,,,,,,,,,,,,,,,,,,,,,,,,,,
,,,,,WIN24_058,20,female,2024-02-13_13h21.33.286,jersey_experiment_5,2023.2.2,Win32,85.47008547,,,,,,,,,,,,,,,,727.1915,728.991,728.991,729.6736,return,0.1913,,62.36979167,,,,,,FBP-PT-18.png,0.45,1.2,55,1,,,,,,,,,,,,,0,35,35,54,1,,,,,,,,,,,,,,,,,,,,,,,,,,,,
,,,,,WIN24_058,20,female,2024-02-13_13h21.33.286,jersey_experiment_5,2023.2.2,Win32,85.47008547,,,,,,,,,,,,,,,,729.6737,731.4737,731.4738,732.0266,return,0.1302,,69.01041667,,,,,,FBP-OG-71.png,0.45,1.2,5,1,,,,,,,,,,,,,0,36,36,4,1,,,,,,,,,,,,,,,,,,,,,,,,,,,,
,,,,,WIN24_058,20,female,2024-02-13_13h21.33.286,jersey_experiment_5,2023.2.2,Win32,85.47008547,,,,,,,,,,,,,,,,732.0267,733.3207,733.3208,734.7795,return,0.1284,,63.671875,,,,,,FBP-RB-19.png,0.35,1.2,26,0.5,,,,,,,,,,,,,0,37,37,25,1,,,,,,,,,,,,,,,,,,,,,,,,,,,,
,,,,,WIN24_058,20,female,2024-02-13_13h21.33.286,jersey_experiment_5,2023.2.2,Win32,85.47008547,,,,,,,,,,,,,,,,734.7797,736.5797,736.5797,737.3091,return,0.1647,,55.078125,,,,,,FBP-PT-18.png,0.37,1.2,52,1,,,,,,,,,,,,,0,38,38,51,1,,,,,,,,,,,,,,,,,,,,,,,,,,,,
,,,,,WIN24_058,20,female,2024-02-13_13h21.33.286,jersey_experiment_5,2023.2.2,Win32,85.47008547,,,,,,,,,,,,,,,,737.3093,738.6033,738.6033,740.6975,return,1.5536,,57.94270833,,,,,,FBP-YG-71.png,0.35,1.2,31,0.5,,,,,,,,,,,,,0,39,39,30,1,,,,,,,,,,,,,,,,,,,,,,,,,,,,
,,,,,WIN24_058,20,female,2024-02-13_13h21.33.286,jersey_experiment_5,2023.2.2,Win32,85.47008547,,,,,,,,,,,,,,,,740.6977,741.9917,741.9917,742.7562,return,0.0785,,66.40625,,,,,,FBP-RB-17.png,0.4,1.2,18,0.5,,,,,,,,,,,,,0,40,40,17,1,,,,,,,,,,,,,,,,,,,,,,,,,,,,
,,,,,WIN24_058,20,female,2024-02-13_13h21.33.286,jersey_experiment_5,2023.2.2,Win32,85.47008547,,,,,,,,,,,,,,,,742.7564,744.0505,744.0505,744.7918,return,0.0873,,71.22395833,,,,,,FBP-YG-81.png,0.45,1.2,40,0.5,,,,,,,,,,,,,0,41,41,39,1,,,,,,,,,,,,,,,,,,,,,,,,,,,,
,,,,,WIN24_058,20,female,2024-02-13_13h21.33.286,jersey_experiment_5,2023.2.2,Win32,85.47008547,,,,,,,,,,,,,,,,744.7919,746.0859,746.0859,746.7919,return,0.0969,,78.25520833,,,,,,FBP-RB-17.png,0.45,1.2,20,0.5,,,,,,,,,,,,,0,42,42,19,1,,,,,,,,,,,,,,,,,,,,,,,,,,,,
,,,,,WIN24_058,20,female,2024-02-13_13h21.33.286,jersey_experiment_5,2023.2.2,Win32,85.47008547,,,,,,,,,,,,,,,,746.7921,748.5919,748.5919,749.4626,return,0.1342,,69.53125,,,,,,FBP-OG-81.png,0.45,1.2,10,1,,,,,,,,,,,,,0,43,43,9,1,,,,,,,,,,,,,,,,,,,,,,,,,,,,
,,,,,WIN24_058,20,female,2024-02-13_13h21.33.286,jersey_experiment_5,2023.2.2,Win32,85.47008547,,,,,,,,,,,,,,,,749.4627,751.2626,751.2626,752.5098,return,0.0964,,53.90625,,,,,,FBP-OG-81.png,0.37,1.2,7,1,,,,,,,,,,,,,0,44,44,6,1,,,,,,,,,,,,,,,,,,,,,,,,,,,,
,,,,,WIN24_058,20,female,2024-02-13_13h21.33.286,jersey_experiment_5,2023.2.2,Win32,85.47008547,,,,,,,,,,,,,,,,752.5098,753.8039,753.8039,754.604,return,0.1419,,58.59375,,,,,,FBP-RB-19.png,0.4,1.2,28,0.5,,,,,,,,,,,,,0,45,45,27,1,,,,,,,,,,,,,,,,,,,,,,,,,,,,
,,,,,WIN24_058,20,female,2024-02-13_13h21.33.286,jersey_experiment_5,2023.2.2,Win32,85.47008547,,,,,,,,,,,,,,,,754.6042,755.898,755.898,756.6157,return,0.0751,,62.76041667,,,,,,FBP-RB-18.png,0.4,1.2,23,0.5,,,,,,,,,,,,,0,46,46,22,1,,,,,,,,,,,,,,,,,,,,,,,,,,,,
,,,,,WIN24_058,20,female,2024-02-13_13h21.33.286,jersey_experiment_5,2023.2.2,Win32,85.47008547,,,,,,,,,,,,,,,,756.6159,757.9098,757.9098,759.0275,return,0.2325,,48.69791667,,,,,,FBP-RB-18.png,0.35,1.2,21,0.5,,,,,,,,,,,,,0,47,47,20,1,,,,,,,,,,,,,,,,,,,,,,,,,,,,
,,,,,WIN24_058,20,female,2024-02-13_13h21.33.286,jersey_experiment_5,2023.2.2,Win32,85.47008547,,,,,,,,,,,,,,,,759.0277,760.3218,760.3218,761.4159,return,0.2028,,72.39583333,,,,,,FBP-YG-91.png,0.43,1.2,44,0.5,,,,,,,,,,,,,0,48,48,43,1,,,,,,,,,,,,,,,,,,,,,,,,,,,,
,,,,,WIN24_058,20,female,2024-02-13_13h21.33.286,jersey_experiment_5,2023.2.2,Win32,85.47008547,,,,,,,,,,,,,,,,761.416,762.71,762.71,763.7102,return,0.1882,,82.03125,,,,,,FBP-RB-19.png,0.43,1.2,29,0.5,,,,,,,,,,,,,0,49,49,28,1,,,,,,,,,,,,,,,,,,,,,,,,,,,,
,,,,,WIN24_058,20,female,2024-02-13_13h21.33.286,jersey_experiment_5,2023.2.2,Win32,85.47008547,,,,,,,,,,,,,,,,763.7103,765.5103,765.5103,766.2985,return,0.1552,,61.328125,,,,,,FBP-OG-91.png,0.35,1.2,11,1,,,,,,,,,,,,,0,50,50,10,1,,,,,,,,,,,,,,,,,,,,,,,,,,,,
,,,,,WIN24_058,20,female,2024-02-13_13h21.33.286,jersey_experiment_5,2023.2.2,Win32,85.47008547,,,,,,,,,,,,,,,,766.2987,768.0985,768.0985,768.9691,return,0.3428,,52.08333333,,,,,,FBP-OG-71.png,0.35,1.2,1,1,,,,,,,,,,,,,0,51,51,0,1,,,,,,,,,,,,,,,,,,,,,,,,,,,,
,,,,,WIN24_058,20,female,2024-02-13_13h21.33.286,jersey_experiment_5,2023.2.2,Win32,85.47008547,,,,,,,,,,,,,,,,768.9693,770.2632,770.2632,771.1457,return,0.085,,48.56770833,,,,,,FBP-RB-17.png,0.37,1.2,17,0.5,,,,,,,,,,,,,0,52,52,16,1,,,,,,,,,,,,,,,,,,,,,,,,,,,,
,,,,,WIN24_058,20,female,2024-02-13_13h21.33.286,jersey_experiment_5,2023.2.2,Win32,85.47008547,,,,,,,,,,,,,,,,771.1459,772.9457,772.9457,773.981,return,0.5989,,55.33854167,,,,,,FBP-PT-19.png,0.4,1.2,58,1,,,,,,,,,,,,,0,53,53,57,1,,,,,,,,,,,,,,,,,,,,,,,,,,,,
,,,,,WIN24_058,20,female,2024-02-13_13h21.33.286,jersey_experiment_5,2023.2.2,Win32,85.47008547,,,,,,,,,,,,,,,,773.9811,775.7812,775.7812,776.5106,return,0.2349,,55.33854167,,,,,,FBP-PT-17.png,0.37,1.2,47,1,,,,,,,,,,,,,0,54,54,46,1,,,,,,,,,,,,,,,,,,,,,,,,,,,,
,,,,,WIN24_058,20,female,2024-02-13_13h21.33.286,jersey_experiment_5,2023.2.2,Win32,85.47008547,,,,,,,,,,,,,,,,776.5109,777.8048,777.8048,780.8873,return,1.3212,,66.53645833,,,,,,FBP-RB-18.png,0.45,1.2,25,0.5,,,,,,,,,,,,,0,55,55,24,1,,,,,,,,,,,,,,,,,,,,,,,,,,,,
,,,,,WIN24_058,20,female,2024-02-13_13h21.33.286,jersey_experiment_5,2023.2.2,Win32,85.47008547,,,,,,,,,,,,,,,,780.8875,782.6873,782.6873,783.2873,return,0.1346,,73.56770833,,,,,,FBP-OG-91.png,0.45,1.2,15,1,,,,,,,,,,,,,0,56,56,14,1,,,,,,,,,,,,,,,,,,,,,,,,,,,,
,,,,,WIN24_058,20,female,2024-02-13_13h21.33.286,jersey_experiment_5,2023.2.2,Win32,85.47008547,,,,,,,,,,,,,,,,783.2875,785.0875,785.0876,786.1344,return,0.2535,,47.39583333,,,,,,FBP-PT-18.png,0.35,1.2,51,1,,,,,,,,,,,,,0,57,57,50,1,,,,,,,,,,,,,,,,,,,,,,,,,,,,
,,,,,WIN24_058,20,female,2024-02-13_13h21.33.286,jersey_experiment_5,2023.2.2,Win32,85.47008547,,,,,,,,,,,,,,,,786.1346,787.4287,787.4287,789.6522,return,0.9967,,72.265625,,,,,,FBP-YG-71.png,0.45,1.2,35,0.5,,,,,,,,,,,,,0,58,58,34,1,,,,,,,,,,,,,,,,,,,,,,,,,,,,
,,,,,WIN24_058,20,female,2024-02-13_13h21.33.286,jersey_experiment_5,2023.2.2,Win32,85.47008547,,,,,,,,,,,,,,,,789.6523,790.9463,790.9463,792.3465,return,0.1082,,76.43229167,,,,,,FBP-RB-17.png,0.43,1.2,19,0.5,,,,,,,,,,,,,0,59,59,18,1,,,,,,,,,,,,,,,,,,,,,,,,,,,,
,,,,,WIN24_058,20,female,2024-02-13_13h21.33.286,jersey_experiment_5,2023.2.2,Win32,85.47008547,,,,,,,,,,,,,,,,792.3481,793.6407,793.6407,794.4408,return,0.0727,,78.25520833,,,,,,FBP-YG-18.png,0.4,1.2,38,0.5,,,,,,,,,,,,,,,,,,0,0,0,37,1,,,,,,,,,,,,,,,,,,,,,,,
,,,,,WIN24_058,20,female,2024-02-13_13h21.33.286,jersey_experiment_5,2023.2.2,Win32,85.47008547,,,,,,,,,,,,,,,,794.4411,795.7348,795.7348,796.5231,return,0.1283,,78.25520833,,,,,,FBP-RB-81.png,0.43,1.2,24,0.5,,,,,,,,,,,,,,,,,,0,1,1,23,1,,,,,,,,,,,,,,,,,,,,,,,
,,,,,WIN24_058,20,female,2024-02-13_13h21.33.286,jersey_experiment_5,2023.2.2,Win32,85.47008547,,,,,,,,,,,,,,,,796.5233,798.3232,798.3233,799.2882,return,0.1815,,54.03645833,,,,,,FBP-PT-91.png,0.37,1.2,57,1,,,,,,,,,,,,,,,,,,0,2,2,56,1,,,,,,,,,,,,,,,,,,,,,,,
,,,,,WIN24_058,20,female,2024-02-13_13h21.33.286,jersey_experiment_5,2023.2.2,Win32,85.47008547,,,,,,,,,,,,,,,,799.2884,801.088,801.088,801.8997,return,0.084,,64.71354167,,,,,,FBP-PT-91.png,0.45,1.2,60,1,,,,,,,,,,,,,,,,,,0,3,3,59,1,,,,,,,,,,,,,,,,,,,,,,,
,,,,,WIN24_058,20,female,2024-02-13_13h21.33.286,jersey_experiment_5,2023.2.2,Win32,85.47008547,,,,,,,,,,,,,,,,801.8999,803.1939,803.1939,804.5823,return,0.3003,,36.97916667,,,,,,FBP-RB-81.png,0.35,1.2,21,0.5,,,,,,,,,,,,,,,,,,0,4,4,20,1,,,,,,,,,,,,,,,,,,,,,,,
,,,,,WIN24_058,20,female,2024-02-13_13h21.33.286,jersey_experiment_5,2023.2.2,Win32,85.47008547,,,,,,,,,,,,,,,,804.5825,806.3823,806.3823,807.5353,return,0.0939,,49.34895833,,,,,,FBP-OG-17.png,0.4,1.2,3,1,,,,,,,,,,,,,,,,,,0,5,5,2,1,,,,,,,,,,,,,,,,,,,,,,,
,,,,,WIN24_058,20,female,2024-02-13_13h21.33.286,jersey_experiment_5,2023.2.2,Win32,85.47008547,,,,,,,,,,,,,,,,807.5355,809.3354,809.3354,810.2648,return,0.145,,53.515625,,,,,,FBP-PT-91.png,0.35,1.2,56,1,,,,,,,,,,,,,,,,,,0,6,6,55,1,,,,,,,,,,,,,,,,,,,,,,,
,,,,,WIN24_058,20,female,2024-02-13_13h21.33.286,jersey_experiment_5,2023.2.2,Win32,85.47008547,,,,,,,,,,,,,,,,810.265,811.559,811.559,812.3473,return,0.0131,,59.11458333,,,,,,FBP-YG-17.png,0.43,1.2,34,0.5,,,,,,,,,,,,,,,,,,0,7,7,33,1,,,,,,,,,,,,,,,,,,,,,,,
,,,,,WIN24_058,20,female,2024-02-13_13h21.33.286,jersey_experiment_5,2023.2.2,Win32,85.47008547,,,,,,,,,,,,,,,,812.3476,814.1472,814.1473,814.665,return,0.1312,,57.03125,,,,,,FBP-PT-91.png,0.4,1.2,58,1,,,,,,,,,,,,,,,,,,0,8,8,57,1,,,,,,,,,,,,,,,,,,,,,,,
,,,,,WIN24_058,20,female,2024-02-13_13h21.33.286,jersey_experiment_5,2023.2.2,Win32,85.47008547,,,,,,,,,,,,,,,,814.6651,815.959,815.959,817.6063,return,0.1346,,75.390625,,,,,,FBP-RB-91.png,0.45,1.2,30,0.5,,,,,,,,,,,,,,,,,,0,9,9,29,1,,,,,,,,,,,,,,,,,,,,,,,
,,,,,WIN24_058,20,female,2024-02-13_13h21.33.286,jersey_experiment_5,2023.2.2,Win32,85.47008547,,,,,,,,,,,,,,,,817.6065,818.9004,818.9004,819.6886,return,0.0865,,72.65625,,,,,,FBP-RB-91.png,0.43,1.2,29,0.5,,,,,,,,,,,,,,,,,,0,10,10,28,1,,,,,,,,,,,,,,,,,,,,,,,
,,,,,WIN24_058,20,female,2024-02-13_13h21.33.286,jersey_experiment_5,2023.2.2,Win32,85.47008547,,,,,,,,,,,,,,,,819.6888,820.9829,820.9829,822.63,return,0.0524,,80.20833333,,,,,,FBP-YG-18.png,0.43,1.2,39,0.5,,,,,,,,,,,,,,,,,,0,11,11,38,1,,,,,,,,,,,,,,,,,,,,,,,
,,,,,WIN24_058,20,female,2024-02-13_13h21.33.286,jersey_experiment_5,2023.2.2,Win32,85.47008547,,,,,,,,,,,,,,,,822.6301,824.4302,824.4302,825.1595,return,0.0993,,56.25,,,,,,FBP-OG-17.png,0.37,1.2,2,1,,,,,,,,,,,,,,,,,,0,12,12,1,1,,,,,,,,,,,,,,,,,,,,,,,
,,,,,WIN24_058,20,female,2024-02-13_13h21.33.286,jersey_experiment_5,2023.2.2,Win32,85.47008547,,,,,,,,,,,,,,,,825.1597,826.9595,826.9595,827.5242,return,0.0531,,62.23958333,,,,,,FBP-PT-81.png,0.43,1.2,54,1,,,,,,,,,,,,,,,,,,0,13,13,53,1,,,,,,,,,,,,,,,,,,,,,,,
,,,,,WIN24_058,20,female,2024-02-13_13h21.33.286,jersey_experiment_5,2023.2.2,Win32,85.47008547,,,,,,,,,,,,,,,,827.5244,828.8185,828.8185,829.7008,return,0.0172,,72.65625,,,,,,FBP-RB-71.png,0.43,1.2,19,0.5,,,,,,,,,,,,,,,,,,0,14,14,18,1,,,,,,,,,,,,,,,,,,,,,,,
,,,,,WIN24_058,20,female,2024-02-13_13h21.33.286,jersey_experiment_5,2023.2.2,Win32,85.47008547,,,,,,,,,,,,,,,,829.7009,831.5011,831.5012,832.2304,return,0.1921,,53.90625,,,,,,FBP-OG-17.png,0.35,1.2,1,1,,,,,,,,,,,,,,,,,,0,15,15,0,1,,,,,,,,,,,,,,,,,,,,,,,
,,,,,WIN24_058,20,female,2024-02-13_13h21.33.286,jersey_experiment_5,2023.2.2,Win32,85.47008547,,,,,,,,,,,,,,,,832.2306,833.5244,833.5245,835.6775,return,1.2945,,67.31770833,,,,,,FBP-YG-18.png,0.45,1.2,40,0.5,,,,,,,,,,,,,,,,,,0,16,16,39,1,,,,,,,,,,,,,,,,,,,,,,,
,,,,,WIN24_058,20,female,2024-02-13_13h21.33.286,jersey_experiment_5,2023.2.2,Win32,85.47008547,,,,,,,,,,,,,,,,835.6777,837.4778,837.4778,838.6071,return,0.061,,72.13541667,,,,,,FBP-OG-19.png,0.43,1.2,14,1,,,,,,,,,,,,,,,,,,0,17,17,13,1,,,,,,,,,,,,,,,,,,,,,,,
,,,,,WIN24_058,20,female,2024-02-13_13h21.33.286,jersey_experiment_5,2023.2.2,Win32,85.47008547,,,,,,,,,,,,,,,,838.6073,840.4071,840.4071,841.3248,return,0.1648,,72.265625,,,,,,FBP-PT-91.png,0.43,1.2,59,1,,,,,,,,,,,,,,,,,,0,18,18,58,1,,,,,,,,,,,,,,,,,,,,,,,
,,,,,WIN24_058,20,female,2024-02-13_13h21.33.286,jersey_experiment_5,2023.2.2,Win32,85.47008547,,,,,,,,,,,,,,,,841.325,842.619,842.619,843.4779,return,0.1363,,50,,,,,,FBP-YG-18.png,0.35,1.2,36,0.5,,,,,,,,,,,,,,,,,,0,19,19,35,1,,,,,,,,,,,,,,,,,,,,,,,
,,,,,WIN24_058,20,female,2024-02-13_13h21.33.286,jersey_experiment_5,2023.2.2,Win32,85.47008547,,,,,,,,,,,,,,,,843.4781,845.2777,845.2778,845.8309,return,0.0986,,50,,,,,,FBP-OG-19.png,0.37,1.2,12,1,,,,,,,,,,,,,,,,,,0,20,20,11,1,,,,,,,,,,,,,,,,,,,,,,,
,,,,,WIN24_058,20,female,2024-02-13_13h21.33.286,jersey_experiment_5,2023.2.2,Win32,85.47008547,,,,,,,,,,,,,,,,845.8311,847.6311,847.6311,848.1367,return,0.0625,,51.953125,,,,,,FBP-PT-81.png,0.4,1.2,53,1,,,,,,,,,,,,,,,,,,0,21,21,52,1,,,,,,,,,,,,,,,,,,,,,,,
,,,,,WIN24_058,20,female,2024-02-13_13h21.33.286,jersey_experiment_5,2023.2.2,Win32,85.47008547,,,,,,,,,,,,,,,,848.1369,849.937,849.937,850.4781,return,0.1176,,59.765625,,,,,,FBP-OG-17.png,0.43,1.2,4,1,,,,,,,,,,,,,,,,,,0,22,22,3,1,,,,,,,,,,,,,,,,,,,,,,,
,,,,,WIN24_058,20,female,2024-02-13_13h21.33.286,jersey_experiment_5,2023.2.2,Win32,85.47008547,,,,,,,,,,,,,,,,850.4783,852.2782,852.2782,852.8429,return,0.1412,,62.890625,,,,,,FBP-PT-71.png,0.45,1.2,50,1,,,,,,,,,,,,,,,,,,0,23,23,49,1,,,,,,,,,,,,,,,,,,,,,,,
,,,,,WIN24_058,20,female,2024-02-13_13h21.33.286,jersey_experiment_5,2023.2.2,Win32,85.47008547,,,,,,,,,,,,,,,,852.843,854.1371,854.1371,855.7841,return,0.8959,,48.30729167,,,,,,FBP-RB-71.png,0.37,1.2,17,0.5,,,,,,,,,,,,,,,,,,0,24,24,16,1,,,,,,,,,,,,,,,,,,,,,,,
,,,,,WIN24_058,20,female,2024-02-13_13h21.33.286,jersey_experiment_5,2023.2.2,Win32,85.47008547,,,,,,,,,,,,,,,,855.7844,857.0783,857.0783,857.9725,return,0.3494,,48.30729167,,,,,,FBP-YG-19.png,0.37,1.2,42,0.5,,,,,,,,,,,,,,,,,,0,25,25,41,1,,,,,,,,,,,,,,,,,,,,,,,
,,,,,WIN24_058,20,female,2024-02-13_13h21.33.286,jersey_experiment_5,2023.2.2,Win32,85.47008547,,,,,,,,,,,,,,,,857.9727,859.2666,859.2666,859.902,return,0.0005,,48.30729167,,,,,,FBP-RB-71.png,0.35,1.2,16,0.5,,,,,,,,,,,,,,,,,,0,26,26,15,1,,,,,,,,,,,,,,,,,,,,,,,
,,,,,WIN24_058,20,female,2024-02-13_13h21.33.286,jersey_experiment_5,2023.2.2,Win32,85.47008547,,,,,,,,,,,,,,,,859.9022,861.7021,861.7021,864.0904,return,1.2616,,52.08333333,,,,,,FBP-PT-71.png,0.35,1.2,46,1,,,,,,,,,,,,,,,,,,0,27,27,45,1,,,,,,,,,,,,,,,,,,,,,,,
,,,,,WIN24_058,20,female,2024-02-13_13h21.33.286,jersey_experiment_5,2023.2.2,Win32,85.47008547,,,,,,,,,,,,,,,,864.0907,865.3846,865.3846,867.114,return,0.5068,,60.67708333,,,,,,FBP-RB-71.png,0.4,1.2,18,0.5,,,,,,,,,,,,,,,,,,0,28,28,17,1,,,,,,,,,,,,,,,,,,,,,,,
,,,,,WIN24_058,20,female,2024-02-13_13h21.33.286,jersey_experiment_5,2023.2.2,Win32,85.47008547,,,,,,,,,,,,,,,,867.1142,868.914,868.914,870.1377,return,0.5323,,51.5625,,,,,,FBP-OG-18.png,0.4,1.2,8,1,,,,,,,,,,,,,,,,,,0,29,29,7,1,,,,,,,,,,,,,,,,,,,,,,,
,,,,,WIN24_058,20,female,2024-02-13_13h21.33.286,jersey_experiment_5,2023.2.2,Win32,85.47008547,,,,,,,,,,,,,,,,870.138,871.4319,871.4319,873.926,return,0.3009,,57.94270833,,,,,,FBP-RB-91.png,0.4,1.2,28,0.5,,,,,,,,,,,,,,,,,,0,30,30,27,1,,,,,,,,,,,,,,,,,,,,,,,
,,,,,WIN24_058,20,female,2024-02-13_13h21.33.286,jersey_experiment_5,2023.2.2,Win32,85.47008547,,,,,,,,,,,,,,,,873.9262,875.2202,875.2202,879.5263,return,1.5009,,61.71875,,,,,,FBP-YG-18.png,0.37,1.2,37,0.5,,,,,,,,,,,,,,,,,,0,31,31,36,1,,,,,,,,,,,,,,,,,,,,,,,
,,,,,WIN24_058,20,female,2024-02-13_13h21.33.286,jersey_experiment_5,2023.2.2,Win32,85.47008547,,,,,,,,,,,,,,,,879.5265,881.3265,881.3265,882.9969,return,0.2992,,52.734375,,,,,,FBP-PT-71.png,0.4,1.2,48,1,,,,,,,,,,,,,,,,,,0,32,32,47,1,,,,,,,,,,,,,,,,,,,,,,,
,,,,,WIN24_058,20,female,2024-02-13_13h21.33.286,jersey_experiment_5,2023.2.2,Win32,85.47008547,,,,,,,,,,,,,,,,882.997,884.7971,884.7971,885.9029,return,0.1643,,43.09895833,,,,,,FBP-OG-18.png,0.35,1.2,6,1,,,,,,,,,,,,,,,,,,0,33,33,5,1,,,,,,,,,,,,,,,,,,,,,,,
,,,,,WIN24_058,20,female,2024-02-13_13h21.33.286,jersey_experiment_5,2023.2.2,Win32,85.47008547,,,,,,,,,,,,,,,,885.9033,887.703,887.703,888.4089,return,0.0615,,47.78645833,,,,,,FBP-OG-19.png,0.35,1.2,11,1,,,,,,,,,,,,,,,,,,0,34,34,10,1,,,,,,,,,,,,,,,,,,,,,,,
,,,,,WIN24_058,20,female,2024-02-13_13h21.33.286,jersey_experiment_5,2023.2.2,Win32,85.47008547,,,,,,,,,,,,,,,,888.409,889.7031,889.7031,890.6796,return,0.0981,,72.00520833,,,,,,FBP-YG-19.png,0.43,1.2,44,0.5,,,,,,,,,,,,,,,,,,0,35,35,43,1,,,,,,,,,,,,,,,,,,,,,,,
,,,,,WIN24_058,20,female,2024-02-13_13h21.33.286,jersey_experiment_5,2023.2.2,Win32,85.47008547,,,,,,,,,,,,,,,,890.6798,892.4798,892.4799,893.3266,return,0.1648,,58.72395833,,,,,,FBP-PT-81.png,0.37,1.2,52,1,,,,,,,,,,,,,,,,,,0,36,36,51,1,,,,,,,,,,,,,,,,,,,,,,,
,,,,,WIN24_058,20,female,2024-02-13_13h21.33.286,jersey_experiment_5,2023.2.2,Win32,85.47008547,,,,,,,,,,,,,,,,893.3267,894.6208,894.6209,897.3504,return,0.0533,,70.703125,,,,,,FBP-RB-81.png,0.4,1.2,23,0.5,,,,,,,,,,,,,,,,,,0,37,37,22,1,,,,,,,,,,,,,,,,,,,,,,,
,,,,,WIN24_058,20,female,2024-02-13_13h21.33.286,jersey_experiment_5,2023.2.2,Win32,85.47008547,,,,,,,,,,,,,,,,897.3506,899.1505,899.1505,899.7505,return,0.0867,,74.47916667,,,,,,FBP-OG-19.png,0.45,1.2,15,1,,,,,,,,,,,,,,,,,,0,38,38,14,1,,,,,,,,,,,,,,,,,,,,,,,
,,,,,WIN24_058,20,female,2024-02-13_13h21.33.286,jersey_experiment_5,2023.2.2,Win32,85.47008547,,,,,,,,,,,,,,,,899.7507,901.0446,901.0447,901.6918,return,0.0608,,77.21354167,,,,,,FBP-RB-81.png,0.45,1.2,25,0.5,,,,,,,,,,,,,,,,,,0,39,39,24,1,,,,,,,,,,,,,,,,,,,,,,,
,,,,,WIN24_058,20,female,2024-02-13_13h21.33.286,jersey_experiment_5,2023.2.2,Win32,85.47008547,,,,,,,,,,,,,,,,901.692,903.4918,903.4918,904.2331,return,0.2598,,82.16145833,,,,,,FBP-OG-18.png,0.45,1.2,10,1,,,,,,,,,,,,,,,,,,0,40,40,9,1,,,,,,,,,,,,,,,,,,,,,,,
,,,,,WIN24_058,20,female,2024-02-13_13h21.33.286,jersey_experiment_5,2023.2.2,Win32,85.47008547,,,,,,,,,,,,,,,,904.2333,906.0333,906.0333,906.6449,return,0.0171,,69.40104167,,,,,,FBP-OG-19.png,0.4,1.2,13,1,,,,,,,,,,,,,,,,,,0,41,41,12,1,,,,,,,,,,,,,,,,,,,,,,,
,,,,,WIN24_058,20,female,2024-02-13_13h21.33.286,jersey_experiment_5,2023.2.2,Win32,85.47008547,,,,,,,,,,,,,,,,906.645,907.9391,907.9391,909.445,return,0.502,,69.40104167,,,,,,FBP-YG-19.png,0.4,1.2,43,0.5,,,,,,,,,,,,,,,,,,0,42,42,42,1,,,,,,,,,,,,,,,,,,,,,,,
,,,,,WIN24_058,20,female,2024-02-13_13h21.33.286,jersey_experiment_5,2023.2.2,Win32,85.47008547,,,,,,,,,,,,,,,,909.4451,911.2453,911.2453,911.8687,return,0.1277,,74.609375,,,,,,FBP-PT-71.png,0.43,1.2,49,1,,,,,,,,,,,,,,,,,,0,43,43,48,1,,,,,,,,,,,,,,,,,,,,,,,
,,,,,WIN24_058,20,female,2024-02-13_13h21.33.286,jersey_experiment_5,2023.2.2,Win32,85.47008547,,,,,,,,,,,,,,,,911.8688,913.1628,913.1628,914.2451,return,0.0308,,59.89583333,,,,,,FBP-YG-19.png,0.35,1.2,41,0.5,,,,,,,,,,,,,,,,,,0,44,44,40,1,,,,,,,,,,,,,,,,,,,,,,,
,,,,,WIN24_058,20,female,2024-02-13_13h21.33.286,jersey_experiment_5,2023.2.2,Win32,85.47008547,,,,,,,,,,,,,,,,914.2454,915.5393,915.5393,916.457,return,0.0509,,53.77604167,,,,,,FBP-YG-17.png,0.37,1.2,32,0.5,,,,,,,,,,,,,,,,,,0,45,45,31,1,,,,,,,,,,,,,,,,,,,,,,,
,,,,,WIN24_058,20,female,2024-02-13_13h21.33.286,jersey_experiment_5,2023.2.2,Win32,85.47008547,,,,,,,,,,,,,,,,916.4572,918.2574,918.2574,918.9159,return,0.0206,,72.00520833,,,,,,FBP-PT-81.png,0.45,1.2,55,1,,,,,,,,,,,,,,,,,,0,46,46,54,1,,,,,,,,,,,,,,,,,,,,,,,
,,,,,WIN24_058,20,female,2024-02-13_13h21.33.286,jersey_experiment_5,2023.2.2,Win32,85.47008547,,,,,,,,,,,,,,,,918.9162,920.7161,920.7162,921.3867,return,0.0136,,60.80729167,,,,,,FBP-PT-81.png,0.35,1.2,51,1,,,,,,,,,,,,,,,,,,0,47,47,50,1,,,,,,,,,,,,,,,,,,,,,,,
,,,,,WIN24_058,20,female,2024-02-13_13h21.33.286,jersey_experiment_5,2023.2.2,Win32,85.47008547,,,,,,,,,,,,,,,,921.3868,923.1868,923.1868,924.0575,return,0.2857,,46.74479167,,,,,,FBP-OG-18.png,0.37,1.2,7,1,,,,,,,,,,,,,,,,,,0,48,48,6,1,,,,,,,,,,,,,,,,,,,,,,,
,,,,,WIN24_058,20,female,2024-02-13_13h21.33.286,jersey_experiment_5,2023.2.2,Win32,85.47008547,,,,,,,,,,,,,,,,924.0577,925.3514,925.3514,926.281,return,0.1333,,31.38020833,,,,,,FBP-YG-17.png,0.35,1.2,31,0.5,,,,,,,,,,,,,,,,,,0,49,49,30,1,,,,,,,,,,,,,,,,,,,,,,,
,,,,,WIN24_058,20,female,2024-02-13_13h21.33.286,jersey_experiment_5,2023.2.2,Win32,85.47008547,,,,,,,,,,,,,,,,926.2812,927.5752,927.5752,928.4104,return,0.0967,,53.515625,,,,,,FBP-YG-17.png,0.45,1.2,35,0.5,,,,,,,,,,,,,,,,,,0,50,50,34,1,,,,,,,,,,,,,,,,,,,,,,,
,,,,,WIN24_058,20,female,2024-02-13_13h21.33.286,jersey_experiment_5,2023.2.2,Win32,85.47008547,,,,,,,,,,,,,,,,928.4106,930.2104,930.2104,930.8929,return,0.1542,,65.10416667,,,,,,FBP-OG-17.png,0.45,1.2,5,1,,,,,,,,,,,,,,,,,,0,51,51,4,1,,,,,,,,,,,,,,,,,,,,,,,
,,,,,WIN24_058,20,female,2024-02-13_13h21.33.286,jersey_experiment_5,2023.2.2,Win32,85.47008547,,,,,,,,,,,,,,,,930.8931,932.187,932.1871,934.6459,return,0.0879,,63.671875,,,,,,FBP-RB-81.png,0.37,1.2,22,0.5,,,,,,,,,,,,,,,,,,0,52,52,21,1,,,,,,,,,,,,,,,,,,,,,,,
,,,,,WIN24_058,20,female,2024-02-13_13h21.33.286,jersey_experiment_5,2023.2.2,Win32,85.47008547,,,,,,,,,,,,,,,,934.6461,935.9401,935.9401,936.5873,return,0.0605,,63.41145833,,,,,,FBP-RB-91.png,0.37,1.2,27,0.5,,,,,,,,,,,,,,,,,,0,53,53,26,1,,,,,,,,,,,,,,,,,,,,,,,
,,,,,WIN24_058,20,female,2024-02-13_13h21.33.286,jersey_experiment_5,2023.2.2,Win32,85.47008547,,,,,,,,,,,,,,,,936.5874,937.8815,937.8815,938.5874,return,0.0136,,78.38541667,,,,,,FBP-RB-71.png,0.45,1.2,20,0.5,,,,,,,,,,,,,,,,,,0,54,54,19,1,,,,,,,,,,,,,,,,,,,,,,,
,,,,,WIN24_058,20,female,2024-02-13_13h21.33.286,jersey_experiment_5,2023.2.2,Win32,85.47008547,,,,,,,,,,,,,,,,938.5876,939.8815,939.8815,940.7402,return,0.0659,,46.484375,,,,,,FBP-RB-91.png,0.35,1.2,26,0.5,,,,,,,,,,,,,,,,,,0,55,55,25,1,,,,,,,,,,,,,,,,,,,,,,,
,,,,,WIN24_058,20,female,2024-02-13_13h21.33.286,jersey_experiment_5,2023.2.2,Win32,85.47008547,,,,,,,,,,,,,,,,940.7404,942.0345,942.0345,943.1756,return,0.0981,,56.77083333,,,,,,FBP-YG-17.png,0.4,1.2,33,0.5,,,,,,,,,,,,,,,,,,0,56,56,32,1,,,,,,,,,,,,,,,,,,,,,,,
,,,,,WIN24_058,20,female,2024-02-13_13h21.33.286,jersey_experiment_5,2023.2.2,Win32,85.47008547,,,,,,,,,,,,,,,,943.1758,944.4699,944.47,945.6699,return,0.6174,,71.09375,,,,,,FBP-YG-19.png,0.45,1.2,45,0.5,,,,,,,,,,,,,,,,,,0,57,57,44,1,,,,,,,,,,,,,,,,,,,,,,,
,,,,,WIN24_058,20,female,2024-02-13_13h21.33.286,jersey_experiment_5,2023.2.2,Win32,85.47008547,,,,,,,,,,,,,,,,945.6702,947.4701,947.4701,948.0465,return,0.1418,,64.58333333,,,,,,FBP-PT-71.png,0.37,1.2,47,1,,,,,,,,,,,,,,,,,,0,58,58,46,1,,,,,,,,,,,,,,,,,,,,,,,
,,,,,WIN24_058,20,female,2024-02-13_13h21.33.286,jersey_experiment_5,2023.2.2,Win32,85.47008547,,,,,,,,,,,,,,,,948.0467,949.8467,949.8467,950.3642,return,0.0707,,77.86458333,,,,,,FBP-OG-18.png,0.43,1.2,9,1,,,,,,,,,,,,,,,,,,0,59,59,8,1,,,,,,,,,,,,,,,,,,,,,,,
,,,,,WIN24_058,20,female,2024-02-13_13h21.33.286,jersey_experiment_5,2023.2.2,Win32,85.47008547,,,,,,,,,,,,,,,,,,,,,,,,,,,,,,,,,,,,,,,,,,,,,,,,,,,,,,,,950.3644,955.3412,return,4.9639,,,,,,,,,,,,,,,,,,,
,,,,,WIN24_058,20,female,2024-02-13_13h21.33.286,jersey_experiment_5,2023.2.2,Win32,85.47008547,,,,,,,,,,,,,,,,,,,,,,,,,,,,,,,,,,,,,,,,,,,,,,,,,,,,,,,,,,,,,955.3412,959.2471,1,2.9631,return,0.9181,,,,,,,,,,,,
,,,,,WIN24_058,20,female,2024-02-13_13h21.33.286,jersey_experiment_5,2023.2.2,Win32,85.47008547,,,,,,,,,,,,,,,,,,,,,,,,,,,,,,,,,,,,,,,,,,,,,,,,,,,,,,,,,,,,,,,,,,,,959.2473,1020.4659,it might be size based on race and discrepancies or just noticeadable differences,right,53.8003,,,,,,
,,,,,WIN24_058,20,female,2024-02-13_13h21.33.286,jersey_experiment_5,2023.2.2,Win32,85.47008547,,,,,,,,,,,,,,,,,,,,,,,,,,,,,,,,,,,,,,,,,,,,,,,,,,,,,,,,,,,,,,,,,,,,,,,,,,1020.466,1023.4376,return,2.9603,