requirements.started,requirements.stopped,key_resp_3.keys,key_resp_3.rt,key_resp_3.duration,Subject ID,Age,Gender,date,expName,psychopyVersion,OS,frameRate,instructions1.started,instructions1.stopped,key_resp.keys,key_resp.rt,key_resp.duration,example.started,example.stopped,enter_2.keys,enter_2.rt,enter_2.duration,instructions2.started,instructions2.stopped,enter_3.keys,enter_3.rt,enter_3.duration,image.started,image.stopped,slider_2.started,slider_2.stopped,next.keys,next.rt,next.duration,slider.response,trial_block_1.thisRepN,trial_block_1.thisTrialN,trial_block_1.thisN,trial_block_1.thisIndex,trial_block_1.ran,Path,Width,Height,Index,Duration,trial_block_2.thisRepN,trial_block_2.thisTrialN,trial_block_2.thisN,trial_block_2.thisIndex,trial_block_2.ran,rest_break.started,rest_break.stopped,end_break.started,end_break.stopped,key_resp_5.keys,key_resp_5.rt,key_resp_5.duration,trial_block_3.thisRepN,trial_block_3.thisTrialN,trial_block_3.thisN,trial_block_3.thisIndex,trial_block_3.ran,trial_block_4.thisRepN,trial_block_4.thisTrialN,trial_block_4.thisN,trial_block_4.thisIndex,trial_block_4.ran,questions_intro.started,questions_intro.stopped,enter_12.keys,enter_12.rt,enter_12.duration,question2.started,question2.stopped,question_doingbest.response,question_doingbest.rt,enter_15.keys,enter_15.rt,enter_15.duration,pattern.started,pattern.stopped,pattern_2.text,enter_17.keys,enter_17.rt,enter_17.duration,thankyou.started,thankyou.stopped,enter_14.keys,enter_14.rt,enter_14.duration
1E-04,20.6387,return,20.6349,,WIN24_072,20,F,2024-02-23_15h32.15.500,jersey_experiment_5,2023.2.2,Win32,84.74576271,,,,,,,,,,,,,,,,,,,,,,,,,,,,,,,,,,,,,,,,,,,,,,,,,,,,,,,,,,,,,,,,,,,,,,,,,,,,,,
,,,,,WIN24_072,20,F,2024-02-23_15h32.15.500,jersey_experiment_5,2023.2.2,Win32,84.74576271,20.6387,35.5305,return,14.871,,,,,,,,,,,,,,,,,,,,,,,,,,,,,,,,,,,,,,,,,,,,,,,,,,,,,,,,,,,,,,,,,,,,,,,,,,
,,,,,WIN24_072,20,F,2024-02-23_15h32.15.500,jersey_experiment_5,2023.2.2,Win32,84.74576271,,,,,,35.5306,41.8128,return,6.2442,,,,,,,,,,,,,,,,,,,,,,,,,,,,,,,,,,,,,,,,,,,,,,,,,,,,,,,,,,,,,,,,,,,,,
,,,,,WIN24_072,20,F,2024-02-23_15h32.15.500,jersey_experiment_5,2023.2.2,Win32,84.74576271,,,,,,,,,,,41.8129,85.4969,return,43.6613,,,,,,,,,,,,,,,,,,,,,,,,,,,,,,,,,,,,,,,,,,,,,,,,,,,,,,,,,,,,,,,,
,,,,,WIN24_072,20,F,2024-02-23_15h32.15.500,jersey_experiment_5,2023.2.2,Win32,84.74576271,,,,,,,,,,,,,,,,85.5031,87.2995,87.2995,117.9098,return,10.0169,,27.34375,0,0,0,15,1,FBP-RB-17.png,0.35,1.2,16,1,,,,,,,,,,,,,,,,,,,,,,,,,,,,,,,,,,,,,,,,,,,,,
,,,,,WIN24_072,20,F,2024-02-23_15h32.15.500,jersey_experiment_5,2023.2.2,Win32,84.74576271,,,,,,,,,,,,,,,,117.9164,119.7096,119.7096,123.7217,return,2.2589,,38.28125,0,1,1,30,1,FBP-YG-71.png,0.35,1.2,31,1,,,,,,,,,,,,,,,,,,,,,,,,,,,,,,,,,,,,,,,,,,,,,
,,,,,WIN24_072,20,F,2024-02-23_15h32.15.500,jersey_experiment_5,2023.2.2,Win32,84.74576271,,,,,,,,,,,,,,,,123.7224,125.0158,125.0158,129.11,return,2.663,,67.70833333,0,2,2,6,1,FBP-OG-81.png,0.37,1.2,7,0.5,,,,,,,,,,,,,,,,,,,,,,,,,,,,,,,,,,,,,,,,,,,,,
,,,,,WIN24_072,20,F,2024-02-23_15h32.15.500,jersey_experiment_5,2023.2.2,Win32,84.74576271,,,,,,,,,,,,,,,,129.1103,130.4042,130.4042,132.569,return,0.8839,,76.43229167,0,3,3,47,1,FBP-PT-17.png,0.4,1.2,48,0.5,,,,,,,,,,,,,,,,,,,,,,,,,,,,,,,,,,,,,,,,,,,,,
,,,,,WIN24_072,20,F,2024-02-23_15h32.15.500,jersey_experiment_5,2023.2.2,Win32,84.74576271,,,,,,,,,,,,,,,,132.5697,133.8632,133.8632,136.275,return,1.4425,,85.28645833,0,4,4,12,1,FBP-OG-91.png,0.4,1.2,13,0.5,,,,,,,,,,,,,,,,,,,,,,,,,,,,,,,,,,,,,,,,,,,,,
,,,,,WIN24_072,20,F,2024-02-23_15h32.15.500,jersey_experiment_5,2023.2.2,Win32,84.74576271,,,,,,,,,,,,,,,,136.2753,138.075,138.0751,140.8751,return,1.5796,,82.16145833,0,5,5,37,1,FBP-YG-81.png,0.4,1.2,38,1,,,,,,,,,,,,,,,,,,,,,,,,,,,,,,,,,,,,,,,,,,,,,
,,,,,WIN24_072,20,F,2024-02-23_15h32.15.500,jersey_experiment_5,2023.2.2,Win32,84.74576271,,,,,,,,,,,,,,,,140.8754,142.6752,142.6752,144.8283,return,1.4264,,93.75,0,6,6,43,1,FBP-YG-91.png,0.43,1.2,44,1,,,,,,,,,,,,,,,,,,,,,,,,,,,,,,,,,,,,,,,,,,,,,
,,,,,WIN24_072,20,F,2024-02-23_15h32.15.500,jersey_experiment_5,2023.2.2,Win32,84.74576271,,,,,,,,,,,,,,,,144.8286,146.6283,146.6283,148.5813,return,0.5931,,85.02604167,0,7,7,38,1,FBP-YG-81.png,0.43,1.2,39,1,,,,,,,,,,,,,,,,,,,,,,,,,,,,,,,,,,,,,,,,,,,,,
,,,,,WIN24_072,20,F,2024-02-23_15h32.15.500,jersey_experiment_5,2023.2.2,Win32,84.74576271,,,,,,,,,,,,,,,,148.5816,150.3814,150.3815,154.2286,return,2.6411,,25.26041667,0,8,8,20,1,FBP-RB-18.png,0.35,1.2,21,1,,,,,,,,,,,,,,,,,,,,,,,,,,,,,,,,,,,,,,,,,,,,,
,,,,,WIN24_072,20,F,2024-02-23_15h32.15.500,jersey_experiment_5,2023.2.2,Win32,84.74576271,,,,,,,,,,,,,,,,154.2287,155.5228,155.5229,157.6993,return,1.1918,,47.39583333,0,9,9,51,1,FBP-PT-18.png,0.37,1.2,52,0.5,,,,,,,,,,,,,,,,,,,,,,,,,,,,,,,,,,,,,,,,,,,,,
,,,,,WIN24_072,20,F,2024-02-23_15h32.15.500,jersey_experiment_5,2023.2.2,Win32,84.74576271,,,,,,,,,,,,,,,,157.6995,159.4994,159.4994,161.0642,return,0.8137,,52.47395833,0,10,10,42,1,FBP-YG-91.png,0.4,1.2,43,1,,,,,,,,,,,,,,,,,,,,,,,,,,,,,,,,,,,,,,,,,,,,,
,,,,,WIN24_072,20,F,2024-02-23_15h32.15.500,jersey_experiment_5,2023.2.2,Win32,84.74576271,,,,,,,,,,,,,,,,161.0643,162.3583,162.3584,166.229,return,2.9466,,44.79166667,0,11,11,0,1,FBP-OG-71.png,0.35,1.2,1,0.5,,,,,,,,,,,,,,,,,,,,,,,,,,,,,,,,,,,,,,,,,,,,,
,,,,,WIN24_072,20,F,2024-02-23_15h32.15.500,jersey_experiment_5,2023.2.2,Win32,84.74576271,,,,,,,,,,,,,,,,166.2338,167.5349,167.535,169.3823,return,0.5216,,89.71354167,0,12,12,49,1,FBP-PT-17.png,0.45,1.2,50,0.5,,,,,,,,,,,,,,,,,,,,,,,,,,,,,,,,,,,,,,,,,,,,,
,,,,,WIN24_072,20,F,2024-02-23_15h32.15.500,jersey_experiment_5,2023.2.2,Win32,84.74576271,,,,,,,,,,,,,,,,169.3827,171.1823,171.1823,172.5705,return,0.6365,,98.046875,0,13,13,24,1,FBP-RB-18.png,0.45,1.2,25,1,,,,,,,,,,,,,,,,,,,,,,,,,,,,,,,,,,,,,,,,,,,,,
,,,,,WIN24_072,20,F,2024-02-23_15h32.15.500,jersey_experiment_5,2023.2.2,Win32,84.74576271,,,,,,,,,,,,,,,,172.571,173.8647,173.8648,177.4765,return,0.747,,92.1875,0,14,14,8,1,FBP-OG-81.png,0.43,1.2,9,0.5,,,,,,,,,,,,,,,,,,,,,,,,,,,,,,,,,,,,,,,,,,,,,
,,,,,WIN24_072,20,F,2024-02-23_15h32.15.500,jersey_experiment_5,2023.2.2,Win32,84.74576271,,,,,,,,,,,,,,,,177.4769,178.7708,178.7709,186.1475,return,4.1952,,84.63541667,0,15,15,4,1,FBP-OG-71.png,0.45,1.2,5,0.5,,,,,,,,,,,,,,,,,,,,,,,,,,,,,,,,,,,,,,,,,,,,,
,,,,,WIN24_072,20,F,2024-02-23_15h32.15.500,jersey_experiment_5,2023.2.2,Win32,84.74576271,,,,,,,,,,,,,,,,186.1479,187.4418,187.4419,189.2887,return,0.5776,,75.65104167,0,16,16,53,1,FBP-PT-18.png,0.43,1.2,54,0.5,,,,,,,,,,,,,,,,,,,,,,,,,,,,,,,,,,,,,,,,,,,,,
,,,,,WIN24_072,20,F,2024-02-23_15h32.15.500,jersey_experiment_5,2023.2.2,Win32,84.74576271,,,,,,,,,,,,,,,,189.2889,190.5829,190.5829,192.0535,return,0.6259,,41.53645833,0,17,17,2,1,FBP-OG-71.png,0.4,1.2,3,0.5,,,,,,,,,,,,,,,,,,,,,,,,,,,,,,,,,,,,,,,,,,,,,
,,,,,WIN24_072,20,F,2024-02-23_15h32.15.500,jersey_experiment_5,2023.2.2,Win32,84.74576271,,,,,,,,,,,,,,,,192.0537,193.348,193.3482,195.0182,return,0.7643,,55.078125,0,18,18,48,1,FBP-PT-17.png,0.43,1.2,49,0.5,,,,,,,,,,,,,,,,,,,,,,,,,,,,,,,,,,,,,,,,,,,,,
,,,,,WIN24_072,20,F,2024-02-23_15h32.15.500,jersey_experiment_5,2023.2.2,Win32,84.74576271,,,,,,,,,,,,,,,,195.0185,196.8187,196.8188,197.9715,return,0.5683,,67.44791667,0,19,19,18,1,FBP-RB-17.png,0.43,1.2,19,1,,,,,,,,,,,,,,,,,,,,,,,,,,,,,,,,,,,,,,,,,,,,,
,,,,,WIN24_072,20,F,2024-02-23_15h32.15.500,jersey_experiment_5,2023.2.2,Win32,84.74576271,,,,,,,,,,,,,,,,197.9718,199.2654,199.2655,202.148,return,2.1123,,73.828125,0,20,20,9,1,FBP-OG-81.png,0.45,1.2,10,0.5,,,,,,,,,,,,,,,,,,,,,,,,,,,,,,,,,,,,,,,,,,,,,
,,,,,WIN24_072,20,F,2024-02-23_15h32.15.500,jersey_experiment_5,2023.2.2,Win32,84.74576271,,,,,,,,,,,,,,,,202.1483,203.4421,203.4421,204.7129,return,0.672,,75.13020833,0,21,21,58,1,FBP-PT-19.png,0.43,1.2,59,0.5,,,,,,,,,,,,,,,,,,,,,,,,,,,,,,,,,,,,,,,,,,,,,
,,,,,WIN24_072,20,F,2024-02-23_15h32.15.500,jersey_experiment_5,2023.2.2,Win32,84.74576271,,,,,,,,,,,,,,,,204.7131,206.5128,206.5129,207.9719,return,0.6396,,23.17708333,0,22,22,40,1,FBP-YG-91.png,0.35,1.2,41,1,,,,,,,,,,,,,,,,,,,,,,,,,,,,,,,,,,,,,,,,,,,,,
,,,,,WIN24_072,20,F,2024-02-23_15h32.15.500,jersey_experiment_5,2023.2.2,Win32,84.74576271,,,,,,,,,,,,,,,,207.9724,209.7721,209.7723,211.6544,return,1.1681,,33.984375,0,23,23,26,1,FBP-RB-19.png,0.37,1.2,27,1,,,,,,,,,,,,,,,,,,,,,,,,,,,,,,,,,,,,,,,,,,,,,
,,,,,WIN24_072,20,F,2024-02-23_15h32.15.500,jersey_experiment_5,2023.2.2,Win32,84.74576271,,,,,,,,,,,,,,,,211.6549,213.4544,213.4544,216.984,return,0.6027,,63.93229167,0,24,24,34,1,FBP-YG-71.png,0.45,1.2,35,1,,,,,,,,,,,,,,,,,,,,,,,,,,,,,,,,,,,,,,,,,,,,,
,,,,,WIN24_072,20,F,2024-02-23_15h32.15.500,jersey_experiment_5,2023.2.2,Win32,84.74576271,,,,,,,,,,,,,,,,216.9843,218.2781,218.2781,222.4666,return,1.3015,,25.26041667,0,25,25,55,1,FBP-PT-19.png,0.35,1.2,56,0.5,,,,,,,,,,,,,,,,,,,,,,,,,,,,,,,,,,,,,,,,,,,,,
,,,,,WIN24_072,20,F,2024-02-23_15h32.15.500,jersey_experiment_5,2023.2.2,Win32,84.74576271,,,,,,,,,,,,,,,,222.467,223.7607,223.7607,226.8548,return,1.8851,,27.60416667,0,26,26,11,1,FBP-OG-91.png,0.37,1.2,12,0.5,,,,,,,,,,,,,,,,,,,,,,,,,,,,,,,,,,,,,,,,,,,,,
,,,,,WIN24_072,20,F,2024-02-23_15h32.15.500,jersey_experiment_5,2023.2.2,Win32,84.74576271,,,,,,,,,,,,,,,,226.8551,228.149,228.149,231.3491,return,2.1699,,74.609375,0,27,27,3,1,FBP-OG-71.png,0.43,1.2,4,0.5,,,,,,,,,,,,,,,,,,,,,,,,,,,,,,,,,,,,,,,,,,,,,
,,,,,WIN24_072,20,F,2024-02-23_15h32.15.500,jersey_experiment_5,2023.2.2,Win32,84.74576271,,,,,,,,,,,,,,,,231.3494,233.1491,233.1491,235.2905,return,1.0944,,66.40625,0,28,28,22,1,FBP-RB-18.png,0.4,1.2,23,1,,,,,,,,,,,,,,,,,,,,,,,,,,,,,,,,,,,,,,,,,,,,,
,,,,,WIN24_072,20,F,2024-02-23_15h32.15.500,jersey_experiment_5,2023.2.2,Win32,84.74576271,,,,,,,,,,,,,,,,235.2908,236.5846,236.5847,238.2789,return,0.6502,,94.53125,0,29,29,54,1,FBP-PT-18.png,0.45,1.2,55,0.5,,,,,,,,,,,,,,,,,,,,,,,,,,,,,,,,,,,,,,,,,,,,,
,,,,,WIN24_072,20,F,2024-02-23_15h32.15.500,jersey_experiment_5,2023.2.2,Win32,84.74576271,,,,,,,,,,,,,,,,238.2795,239.5731,239.5731,241.832,return,1.2023,,16.66666667,0,30,30,5,1,FBP-OG-81.png,0.35,1.2,6,0.5,,,,,,,,,,,,,,,,,,,,,,,,,,,,,,,,,,,,,,,,,,,,,
,,,,,WIN24_072,20,F,2024-02-23_15h32.15.500,jersey_experiment_5,2023.2.2,Win32,84.74576271,,,,,,,,,,,,,,,,241.8323,243.6319,243.6319,245.8909,return,1.4293,,32.68229167,0,31,31,21,1,FBP-RB-18.png,0.37,1.2,22,1,,,,,,,,,,,,,,,,,,,,,,,,,,,,,,,,,,,,,,,,,,,,,
,,,,,WIN24_072,20,F,2024-02-23_15h32.15.500,jersey_experiment_5,2023.2.2,Win32,84.74576271,,,,,,,,,,,,,,,,245.8914,247.691,247.6911,251.0321,return,2.6249,,51.30208333,0,32,32,17,1,FBP-RB-17.png,0.4,1.2,18,1,,,,,,,,,,,,,,,,,,,,,,,,,,,,,,,,,,,,,,,,,,,,,
,,,,,WIN24_072,20,F,2024-02-23_15h32.15.500,jersey_experiment_5,2023.2.2,Win32,84.74576271,,,,,,,,,,,,,,,,251.0323,252.3264,252.3265,253.5855,return,0.5855,,35.80729167,0,33,33,10,1,FBP-OG-91.png,0.35,1.2,11,0.5,,,,,,,,,,,,,,,,,,,,,,,,,,,,,,,,,,,,,,,,,,,,,
,,,,,WIN24_072,20,F,2024-02-23_15h32.15.500,jersey_experiment_5,2023.2.2,Win32,84.74576271,,,,,,,,,,,,,,,,253.586,255.3856,255.3856,257.7384,return,1.4971,,74.34895833,0,34,34,23,1,FBP-RB-18.png,0.43,1.2,24,1,,,,,,,,,,,,,,,,,,,,,,,,,,,,,,,,,,,,,,,,,,,,,
,,,,,WIN24_072,20,F,2024-02-23_15h32.15.500,jersey_experiment_5,2023.2.2,Win32,84.74576271,,,,,,,,,,,,,,,,257.7387,259.5384,259.5385,260.9502,return,0.8505,,91.796875,0,35,35,19,1,FBP-RB-17.png,0.45,1.2,20,1,,,,,,,,,,,,,,,,,,,,,,,,,,,,,,,,,,,,,,,,,,,,,
,,,,,WIN24_072,20,F,2024-02-23_15h32.15.500,jersey_experiment_5,2023.2.2,Win32,84.74576271,,,,,,,,,,,,,,,,260.9505,262.7502,262.7503,266.1152,return,2.2633,,23.69791667,0,36,36,35,1,FBP-YG-81.png,0.35,1.2,36,1,,,,,,,,,,,,,,,,,,,,,,,,,,,,,,,,,,,,,,,,,,,,,
,,,,,WIN24_072,20,F,2024-02-23_15h32.15.500,jersey_experiment_5,2023.2.2,Win32,84.74576271,,,,,,,,,,,,,,,,266.1155,267.9152,267.9152,270.6918,return,1.851,,30.20833333,0,37,37,41,1,FBP-YG-91.png,0.37,1.2,42,1,,,,,,,,,,,,,,,,,,,,,,,,,,,,,,,,,,,,,,,,,,,,,
,,,,,WIN24_072,20,F,2024-02-23_15h32.15.500,jersey_experiment_5,2023.2.2,Win32,84.74576271,,,,,,,,,,,,,,,,270.692,271.986,271.9861,273.3979,return,0.581,,85.9375,0,38,38,59,1,FBP-PT-19.png,0.45,1.2,60,0.5,,,,,,,,,,,,,,,,,,,,,,,,,,,,,,,,,,,,,,,,,,,,,
,,,,,WIN24_072,20,F,2024-02-23_15h32.15.500,jersey_experiment_5,2023.2.2,Win32,84.74576271,,,,,,,,,,,,,,,,273.3982,274.6918,274.6919,277.5863,return,0.549,,74.21875,0,39,39,7,1,FBP-OG-81.png,0.4,1.2,8,0.5,,,,,,,,,,,,,,,,,,,,,,,,,,,,,,,,,,,,,,,,,,,,,
,,,,,WIN24_072,20,F,2024-02-23_15h32.15.500,jersey_experiment_5,2023.2.2,Win32,84.74576271,,,,,,,,,,,,,,,,277.5868,279.3862,279.3863,280.598,return,0.5337,,78.38541667,0,40,40,33,1,FBP-YG-71.png,0.43,1.2,34,1,,,,,,,,,,,,,,,,,,,,,,,,,,,,,,,,,,,,,,,,,,,,,
,,,,,WIN24_072,20,F,2024-02-23_15h32.15.500,jersey_experiment_5,2023.2.2,Win32,84.74576271,,,,,,,,,,,,,,,,280.5984,281.8921,281.8922,283.6688,return,0.5935,,25,0,41,41,50,1,FBP-PT-18.png,0.35,1.2,51,0.5,,,,,,,,,,,,,,,,,,,,,,,,,,,,,,,,,,,,,,,,,,,,,
,,,,,WIN24_072,20,F,2024-02-23_15h32.15.500,jersey_experiment_5,2023.2.2,Win32,84.74576271,,,,,,,,,,,,,,,,283.6692,285.4687,285.4688,287.0805,return,1.0485,,29.296875,0,42,42,32,1,FBP-YG-71.png,0.4,1.2,33,1,,,,,,,,,,,,,,,,,,,,,,,,,,,,,,,,,,,,,,,,,,,,,
,,,,,WIN24_072,20,F,2024-02-23_15h32.15.500,jersey_experiment_5,2023.2.2,Win32,84.74576271,,,,,,,,,,,,,,,,287.0808,288.3749,288.375,289.4928,return,0.5355,,31.38020833,0,43,43,45,1,FBP-PT-17.png,0.35,1.2,46,0.5,,,,,,,,,,,,,,,,,,,,,,,,,,,,,,,,,,,,,,,,,,,,,
,,,,,WIN24_072,20,F,2024-02-23_15h32.15.500,jersey_experiment_5,2023.2.2,Win32,84.74576271,,,,,,,,,,,,,,,,289.4935,290.7866,290.7866,292.4337,return,0.561,,23.17708333,0,44,44,1,1,FBP-OG-71.png,0.37,1.2,2,0.5,,,,,,,,,,,,,,,,,,,,,,,,,,,,,,,,,,,,,,,,,,,,,
,,,,,WIN24_072,20,F,2024-02-23_15h32.15.500,jersey_experiment_5,2023.2.2,Win32,84.74576271,,,,,,,,,,,,,,,,292.4342,293.7279,293.728,295.834,return,0.5856,,25.91145833,0,45,45,57,1,FBP-PT-19.png,0.4,1.2,58,0.5,,,,,,,,,,,,,,,,,,,,,,,,,,,,,,,,,,,,,,,,,,,,,
,,,,,WIN24_072,20,F,2024-02-23_15h32.15.500,jersey_experiment_5,2023.2.2,Win32,84.74576271,,,,,,,,,,,,,,,,295.8346,297.634,297.634,298.9519,return,0.5318,,18.22916667,0,46,46,16,1,FBP-RB-17.png,0.37,1.2,17,1,,,,,,,,,,,,,,,,,,,,,,,,,,,,,,,,,,,,,,,,,,,,,
,,,,,WIN24_072,20,F,2024-02-23_15h32.15.500,jersey_experiment_5,2023.2.2,Win32,84.74576271,,,,,,,,,,,,,,,,298.9526,300.2457,300.2457,301.9165,return,0.565,,84.765625,0,47,47,13,1,FBP-OG-91.png,0.43,1.2,14,0.5,,,,,,,,,,,,,,,,,,,,,,,,,,,,,,,,,,,,,,,,,,,,,
,,,,,WIN24_072,20,F,2024-02-23_15h32.15.500,jersey_experiment_5,2023.2.2,Win32,84.74576271,,,,,,,,,,,,,,,,301.9168,303.2106,303.2106,304.3872,return,0.5719,,90.88541667,0,48,48,14,1,FBP-OG-91.png,0.45,1.2,15,0.5,,,,,,,,,,,,,,,,,,,,,,,,,,,,,,,,,,,,,,,,,,,,,
,,,,,WIN24_072,20,F,2024-02-23_15h32.15.500,jersey_experiment_5,2023.2.2,Win32,84.74576271,,,,,,,,,,,,,,,,304.3875,305.6813,305.6813,307.9874,return,1.5837,,75.52083333,0,49,49,52,1,FBP-PT-18.png,0.4,1.2,53,0.5,,,,,,,,,,,,,,,,,,,,,,,,,,,,,,,,,,,,,,,,,,,,,
,,,,,WIN24_072,20,F,2024-02-23_15h32.15.500,jersey_experiment_5,2023.2.2,Win32,84.74576271,,,,,,,,,,,,,,,,307.9878,309.7874,309.7874,311.0581,return,0.5848,,89.32291667,0,50,50,39,1,FBP-YG-81.png,0.45,1.2,40,1,,,,,,,,,,,,,,,,,,,,,,,,,,,,,,,,,,,,,,,,,,,,,
,,,,,WIN24_072,20,F,2024-02-23_15h32.15.500,jersey_experiment_5,2023.2.2,Win32,84.74576271,,,,,,,,,,,,,,,,311.0583,312.858,312.858,313.9876,return,0.5687,,90.10416667,0,51,51,28,1,FBP-RB-19.png,0.43,1.2,29,1,,,,,,,,,,,,,,,,,,,,,,,,,,,,,,,,,,,,,,,,,,,,,
,,,,,WIN24_072,20,F,2024-02-23_15h32.15.500,jersey_experiment_5,2023.2.2,Win32,84.74576271,,,,,,,,,,,,,,,,313.9879,315.7877,315.7877,316.8701,return,0.5922,,94.921875,0,52,52,29,1,FBP-RB-19.png,0.45,1.2,30,1,,,,,,,,,,,,,,,,,,,,,,,,,,,,,,,,,,,,,,,,,,,,,
,,,,,WIN24_072,20,F,2024-02-23_15h32.15.500,jersey_experiment_5,2023.2.2,Win32,84.74576271,,,,,,,,,,,,,,,,316.8706,318.67,318.6701,320.8702,return,1.3455,,44.01041667,0,53,53,36,1,FBP-YG-81.png,0.37,1.2,37,1,,,,,,,,,,,,,,,,,,,,,,,,,,,,,,,,,,,,,,,,,,,,,
,,,,,WIN24_072,20,F,2024-02-23_15h32.15.500,jersey_experiment_5,2023.2.2,Win32,84.74576271,,,,,,,,,,,,,,,,320.8706,322.6707,322.6708,324.0703,return,0.6242,,51.953125,0,54,54,27,1,FBP-RB-19.png,0.4,1.2,28,1,,,,,,,,,,,,,,,,,,,,,,,,,,,,,,,,,,,,,,,,,,,,,
,,,,,WIN24_072,20,F,2024-02-23_15h32.15.500,jersey_experiment_5,2023.2.2,Win32,84.74576271,,,,,,,,,,,,,,,,324.0705,325.3643,325.3643,326.9526,return,0.9073,,53.77604167,0,55,55,46,1,FBP-PT-17.png,0.37,1.2,47,0.5,,,,,,,,,,,,,,,,,,,,,,,,,,,,,,,,,,,,,,,,,,,,,
,,,,,WIN24_072,20,F,2024-02-23_15h32.15.500,jersey_experiment_5,2023.2.2,Win32,84.74576271,,,,,,,,,,,,,,,,326.953,328.7528,328.7528,330.3764,return,0.6224,,52.99479167,0,56,56,25,1,FBP-RB-19.png,0.35,1.2,26,1,,,,,,,,,,,,,,,,,,,,,,,,,,,,,,,,,,,,,,,,,,,,,
,,,,,WIN24_072,20,F,2024-02-23_15h32.15.500,jersey_experiment_5,2023.2.2,Win32,84.74576271,,,,,,,,,,,,,,,,330.3766,332.1768,332.1768,333.9412,return,1.0525,,48.30729167,0,57,57,31,1,FBP-YG-71.png,0.37,1.2,32,1,,,,,,,,,,,,,,,,,,,,,,,,,,,,,,,,,,,,,,,,,,,,,
,,,,,WIN24_072,20,F,2024-02-23_15h32.15.500,jersey_experiment_5,2023.2.2,Win32,84.74576271,,,,,,,,,,,,,,,,333.9415,335.7414,335.7414,337.6826,return,1.3842,,76.04166667,0,58,58,44,1,FBP-YG-91.png,0.45,1.2,45,1,,,,,,,,,,,,,,,,,,,,,,,,,,,,,,,,,,,,,,,,,,,,,
,,,,,WIN24_072,20,F,2024-02-23_15h32.15.500,jersey_experiment_5,2023.2.2,Win32,84.74576271,,,,,,,,,,,,,,,,337.683,338.9768,338.9768,342.7415,return,2.8639,,50.390625,0,59,59,56,1,FBP-PT-19.png,0.37,1.2,57,0.5,,,,,,,,,,,,,,,,,,,,,,,,,,,,,,,,,,,,,,,,,,,,,
,,,,,WIN24_072,20,F,2024-02-23_15h32.15.500,jersey_experiment_5,2023.2.2,Win32,84.74576271,,,,,,,,,,,,,,,,342.7449,344.0473,344.0475,345.2122,return,0.588,,50.52083333,,,,,,FBP-PT-71.png,0.37,1.2,47,0.5,0,0,0,46,1,,,,,,,,,,,,,,,,,,,,,,,,,,,,,,,,,,,,,,,,
,,,,,WIN24_072,20,F,2024-02-23_15h32.15.500,jersey_experiment_5,2023.2.2,Win32,84.74576271,,,,,,,,,,,,,,,,345.2129,347.0121,347.0122,349.1535,return,1.6321,,24.73958333,,,,,,FBP-RB-71.png,0.35,1.2,16,1,0,1,1,15,1,,,,,,,,,,,,,,,,,,,,,,,,,,,,,,,,,,,,,,,,
,,,,,WIN24_072,20,F,2024-02-23_15h32.15.500,jersey_experiment_5,2023.2.2,Win32,84.74576271,,,,,,,,,,,,,,,,349.1537,350.9536,350.9537,352.2359,return,0.5868,,50,,,,,,FBP-RB-91.png,0.4,1.2,28,1,0,2,2,27,1,,,,,,,,,,,,,,,,,,,,,,,,,,,,,,,,,,,,,,,,
,,,,,WIN24_072,20,F,2024-02-23_15h32.15.500,jersey_experiment_5,2023.2.2,Win32,84.74576271,,,,,,,,,,,,,,,,352.2362,354.036,354.036,357.8951,return,3.039,,61.71875,,,,,,FBP-YG-18.png,0.4,1.2,38,1,0,3,3,37,1,,,,,,,,,,,,,,,,,,,,,,,,,,,,,,,,,,,,,,,,
,,,,,WIN24_072,20,F,2024-02-23_15h32.15.500,jersey_experiment_5,2023.2.2,Win32,84.74576271,,,,,,,,,,,,,,,,357.9028,359.6951,359.6952,361.6012,return,1.3386,,25.390625,,,,,,FBP-YG-19.png,0.35,1.2,41,1,0,4,4,40,1,,,,,,,,,,,,,,,,,,,,,,,,,,,,,,,,,,,,,,,,
,,,,,WIN24_072,20,F,2024-02-23_15h32.15.500,jersey_experiment_5,2023.2.2,Win32,84.74576271,,,,,,,,,,,,,,,,361.6015,362.8953,362.8953,364.7894,return,0.5779,,49.08854167,,,,,,FBP-PT-71.png,0.4,1.2,48,0.5,0,5,5,47,1,,,,,,,,,,,,,,,,,,,,,,,,,,,,,,,,,,,,,,,,
,,,,,WIN24_072,20,F,2024-02-23_15h32.15.500,jersey_experiment_5,2023.2.2,Win32,84.74576271,,,,,,,,,,,,,,,,364.7897,366.5894,366.5894,367.719,return,0.5568,,75.13020833,,,,,,FBP-RB-71.png,0.43,1.2,19,1,0,6,6,18,1,,,,,,,,,,,,,,,,,,,,,,,,,,,,,,,,,,,,,,,,
,,,,,WIN24_072,20,F,2024-02-23_15h32.15.500,jersey_experiment_5,2023.2.2,Win32,84.74576271,,,,,,,,,,,,,,,,367.7195,369.0131,369.0132,370.072,return,0.5673,,74.73958333,,,,,,FBP-OG-18.png,0.43,1.2,9,0.5,0,7,7,8,1,,,,,,,,,,,,,,,,,,,,,,,,,,,,,,,,,,,,,,,,
,,,,,WIN24_072,20,F,2024-02-23_15h32.15.500,jersey_experiment_5,2023.2.2,Win32,84.74576271,,,,,,,,,,,,,,,,370.0722,371.3662,371.3662,372.4838,return,0.5712,,76.5625,,,,,,FBP-PT-81.png,0.43,1.2,54,0.5,0,8,8,53,1,,,,,,,,,,,,,,,,,,,,,,,,,,,,,,,,,,,,,,,,
,,,,,WIN24_072,20,F,2024-02-23_15h32.15.500,jersey_experiment_5,2023.2.2,Win32,84.74576271,,,,,,,,,,,,,,,,372.4842,373.7779,373.778,374.8604,return,0.5883,,75.52083333,,,,,,FBP-OG-17.png,0.43,1.2,4,0.5,0,9,9,3,1,,,,,,,,,,,,,,,,,,,,,,,,,,,,,,,,,,,,,,,,
,,,,,WIN24_072,20,F,2024-02-23_15h32.15.500,jersey_experiment_5,2023.2.2,Win32,84.74576271,,,,,,,,,,,,,,,,374.8608,376.1546,376.1546,379.4019,return,2.048,,30.59895833,,,,,,FBP-PT-81.png,0.35,1.2,51,0.5,0,10,10,50,1,,,,,,,,,,,,,,,,,,,,,,,,,,,,,,,,,,,,,,,,
,,,,,WIN24_072,20,F,2024-02-23_15h32.15.500,jersey_experiment_5,2023.2.2,Win32,84.74576271,,,,,,,,,,,,,,,,379.4026,380.6959,380.6959,382.0841,return,0.5946,,24.609375,,,,,,FBP-OG-19.png,0.35,1.2,11,0.5,0,11,11,10,1,,,,,,,,,,,,,,,,,,,,,,,,,,,,,,,,,,,,,,,,
,,,,,WIN24_072,20,F,2024-02-23_15h32.15.500,jersey_experiment_5,2023.2.2,Win32,84.74576271,,,,,,,,,,,,,,,,382.0844,383.8843,383.8843,385.449,return,0.6126,,74.73958333,,,,,,FBP-YG-18.png,0.45,1.2,40,1,0,12,12,39,1,,,,,,,,,,,,,,,,,,,,,,,,,,,,,,,,,,,,,,,,
,,,,,WIN24_072,20,F,2024-02-23_15h32.15.500,jersey_experiment_5,2023.2.2,Win32,84.74576271,,,,,,,,,,,,,,,,385.4494,386.7431,386.7432,388.0021,return,0.7258,,81.51041667,,,,,,FBP-OG-18.png,0.45,1.2,10,0.5,0,13,13,9,1,,,,,,,,,,,,,,,,,,,,,,,,,,,,,,,,,,,,,,,,
,,,,,WIN24_072,20,F,2024-02-23_15h32.15.500,jersey_experiment_5,2023.2.2,Win32,84.74576271,,,,,,,,,,,,,,,,388.0025,389.8023,389.8023,390.7551,return,0.5836,,88.41145833,,,,,,FBP-RB-91.png,0.45,1.2,30,1,0,14,14,29,1,,,,,,,,,,,,,,,,,,,,,,,,,,,,,,,,,,,,,,,,
,,,,,WIN24_072,20,F,2024-02-23_15h32.15.500,jersey_experiment_5,2023.2.2,Win32,84.74576271,,,,,,,,,,,,,,,,390.7554,392.0492,392.0492,394.8375,return,1.3227,,25,,,,,,FBP-PT-91.png,0.35,1.2,56,0.5,0,15,15,55,1,,,,,,,,,,,,,,,,,,,,,,,,,,,,,,,,,,,,,,,,
,,,,,WIN24_072,20,F,2024-02-23_15h32.15.500,jersey_experiment_5,2023.2.2,Win32,84.74576271,,,,,,,,,,,,,,,,394.838,396.1316,396.1317,399.1435,return,0.8028,,36.06770833,,,,,,FBP-OG-17.png,0.37,1.2,2,0.5,0,16,16,1,1,,,,,,,,,,,,,,,,,,,,,,,,,,,,,,,,,,,,,,,,
,,,,,WIN24_072,20,F,2024-02-23_15h32.15.500,jersey_experiment_5,2023.2.2,Win32,84.74576271,,,,,,,,,,,,,,,,399.1438,400.4377,400.4377,401.5791,return,0.1863,,77.99479167,,,,,,FBP-OG-19.png,0.45,1.2,15,0.5,0,17,17,14,1,,,,,,,,,,,,,,,,,,,,,,,,,,,,,,,,,,,,,,,,
,,,,,WIN24_072,20,F,2024-02-23_15h32.15.500,jersey_experiment_5,2023.2.2,Win32,84.74576271,,,,,,,,,,,,,,,,401.5795,403.379,403.3791,406.7087,return,0.2172,,24.609375,,,,,,FBP-RB-91.png,0.37,1.2,27,1,0,18,18,26,1,,,,,,,,,,,,,,,,,,,,,,,,,,,,,,,,,,,,,,,,
,,,,,WIN24_072,20,F,2024-02-23_15h32.15.500,jersey_experiment_5,2023.2.2,Win32,84.74576271,,,,,,,,,,,,,,,,406.7089,408.0027,408.0028,408.6969,return,0.166,,24.609375,,,,,,FBP-PT-71.png,0.35,1.2,46,0.5,0,19,19,45,1,,,,,,,,,,,,,,,,,,,,,,,,,,,,,,,,,,,,,,,,
,,,,,WIN24_072,20,F,2024-02-23_15h32.15.500,jersey_experiment_5,2023.2.2,Win32,84.74576271,,,,,,,,,,,,,,,,408.6972,409.9912,409.9913,410.7558,return,0.1123,,83.59375,,,,,,FBP-OG-17.png,0.45,1.2,5,0.5,0,20,20,4,1,,,,,,,,,,,,,,,,,,,,,,,,,,,,,,,,,,,,,,,,
,,,,,WIN24_072,20,F,2024-02-23_15h32.15.500,jersey_experiment_5,2023.2.2,Win32,84.74576271,,,,,,,,,,,,,,,,410.7561,412.5558,412.5559,413.3559,return,0.0946,,38.41145833,,,,,,FBP-YG-18.png,0.35,1.2,36,1,0,21,21,35,1,,,,,,,,,,,,,,,,,,,,,,,,,,,,,,,,,,,,,,,,
,,,,,WIN24_072,20,F,2024-02-23_15h32.15.500,jersey_experiment_5,2023.2.2,Win32,84.74576271,,,,,,,,,,,,,,,,413.3562,415.1561,415.1561,415.7677,return,0.2022,,76.43229167,,,,,,FBP-RB-91.png,0.43,1.2,29,1,0,22,22,28,1,,,,,,,,,,,,,,,,,,,,,,,,,,,,,,,,,,,,,,,,
,,,,,WIN24_072,20,F,2024-02-23_15h32.15.500,jersey_experiment_5,2023.2.2,Win32,84.74576271,,,,,,,,,,,,,,,,415.7681,417.062,417.062,418.7326,return,0.7874,,69.79166667,,,,,,FBP-OG-18.png,0.4,1.2,8,0.5,0,23,23,7,1,,,,,,,,,,,,,,,,,,,,,,,,,,,,,,,,,,,,,,,,
,,,,,WIN24_072,20,F,2024-02-23_15h32.15.500,jersey_experiment_5,2023.2.2,Win32,84.74576271,,,,,,,,,,,,,,,,418.7329,420.0268,420.0268,421.5798,return,0.8974,,66.53645833,,,,,,FBP-PT-81.png,0.4,1.2,53,0.5,0,24,24,52,1,,,,,,,,,,,,,,,,,,,,,,,,,,,,,,,,,,,,,,,,
,,,,,WIN24_072,20,F,2024-02-23_15h32.15.500,jersey_experiment_5,2023.2.2,Win32,84.74576271,,,,,,,,,,,,,,,,421.5801,422.874,422.8741,425.0268,return,0.6746,,50.13020833,,,,,,FBP-OG-19.png,0.37,1.2,12,0.5,0,25,25,11,1,,,,,,,,,,,,,,,,,,,,,,,,,,,,,,,,,,,,,,,,
,,,,,WIN24_072,20,F,2024-02-23_15h32.15.500,jersey_experiment_5,2023.2.2,Win32,84.74576271,,,,,,,,,,,,,,,,425.0271,426.8271,426.8272,428.227,return,0.1482,,61.06770833,,,,,,FBP-RB-81.png,0.37,1.2,22,1,0,26,26,21,1,,,,,,,,,,,,,,,,,,,,,,,,,,,,,,,,,,,,,,,,
,,,,,WIN24_072,20,F,2024-02-23_15h32.15.500,jersey_experiment_5,2023.2.2,Win32,84.74576271,,,,,,,,,,,,,,,,428.2274,429.5212,429.5213,430.2154,return,0.0851,,68.09895833,,,,,,FBP-OG-19.png,0.43,1.2,14,0.5,0,27,27,13,1,,,,,,,,,,,,,,,,,,,,,,,,,,,,,,,,,,,,,,,,
,,,,,WIN24_072,20,F,2024-02-23_15h32.15.500,jersey_experiment_5,2023.2.2,Win32,84.74576271,,,,,,,,,,,,,,,,430.2155,432.0155,432.0156,433.2861,return,0.5453,,53.90625,,,,,,FBP-RB-71.png,0.37,1.2,17,1,0,28,28,16,1,,,,,,,,,,,,,,,,,,,,,,,,,,,,,,,,,,,,,,,,
,,,,,WIN24_072,20,F,2024-02-23_15h32.15.500,jersey_experiment_5,2023.2.2,Win32,84.74576271,,,,,,,,,,,,,,,,433.2864,434.5803,434.5803,435.4039,return,0.1415,,77.47395833,,,,,,FBP-PT-81.png,0.45,1.2,55,0.5,0,29,29,54,1,,,,,,,,,,,,,,,,,,,,,,,,,,,,,,,,,,,,,,,,
,,,,,WIN24_072,20,F,2024-02-23_15h32.15.500,jersey_experiment_5,2023.2.2,Win32,84.74576271,,,,,,,,,,,,,,,,435.4044,436.6979,436.6979,438.051,return,0.1133,,66.92708333,,,,,,FBP-OG-19.png,0.4,1.2,13,0.5,0,30,30,12,1,,,,,,,,,,,,,,,,,,,,,,,,,,,,,,,,,,,,,,,,
,,,,,WIN24_072,20,F,2024-02-23_15h32.15.500,jersey_experiment_5,2023.2.2,Win32,84.74576271,,,,,,,,,,,,,,,,438.0513,439.8511,439.8511,440.4041,return,0.0982,,37.36979167,,,,,,FBP-RB-91.png,0.35,1.2,26,1,0,31,31,25,1,,,,,,,,,,,,,,,,,,,,,,,,,,,,,,,,,,,,,,,,
,,,,,WIN24_072,20,F,2024-02-23_15h32.15.500,jersey_experiment_5,2023.2.2,Win32,84.74576271,,,,,,,,,,,,,,,,440.4047,442.2039,442.204,442.8042,return,0.0976,,57.421875,,,,,,FBP-RB-81.png,0.4,1.2,23,1,0,32,32,22,1,,,,,,,,,,,,,,,,,,,,,,,,,,,,,,,,,,,,,,,,
,,,,,WIN24_072,20,F,2024-02-23_15h32.15.500,jersey_experiment_5,2023.2.2,Win32,84.74576271,,,,,,,,,,,,,,,,442.8044,444.6042,444.6043,446.1689,return,0.1311,,73.4375,,,,,,FBP-YG-19.png,0.43,1.2,44,1,0,33,33,43,1,,,,,,,,,,,,,,,,,,,,,,,,,,,,,,,,,,,,,,,,
,,,,,WIN24_072,20,F,2024-02-23_15h32.15.500,jersey_experiment_5,2023.2.2,Win32,84.74576271,,,,,,,,,,,,,,,,446.1691,447.969,447.9691,449.1219,return,0.138,,69.53125,,,,,,FBP-YG-17.png,0.4,1.2,33,1,0,34,34,32,1,,,,,,,,,,,,,,,,,,,,,,,,,,,,,,,,,,,,,,,,
,,,,,WIN24_072,20,F,2024-02-23_15h32.15.500,jersey_experiment_5,2023.2.2,Win32,84.74576271,,,,,,,,,,,,,,,,449.1222,450.9223,450.9226,452.0044,return,0.1587,,52.86458333,,,,,,FBP-RB-71.png,0.4,1.2,18,1,0,35,35,17,1,,,,,,,,,,,,,,,,,,,,,,,,,,,,,,,,,,,,,,,,
,,,,,WIN24_072,20,F,2024-02-23_15h32.15.500,jersey_experiment_5,2023.2.2,Win32,84.74576271,,,,,,,,,,,,,,,,452.0046,453.2985,453.2985,454.075,return,0.1145,,73.17708333,,,,,,FBP-PT-91.png,0.43,1.2,59,0.5,0,36,36,58,1,,,,,,,,,,,,,,,,,,,,,,,,,,,,,,,,,,,,,,,,
,,,,,WIN24_072,20,F,2024-02-23_15h32.15.500,jersey_experiment_5,2023.2.2,Win32,84.74576271,,,,,,,,,,,,,,,,454.0753,455.3694,455.3694,456.2751,return,0.101,,53.77604167,,,,,,FBP-OG-17.png,0.4,1.2,3,0.5,0,37,37,2,1,,,,,,,,,,,,,,,,,,,,,,,,,,,,,,,,,,,,,,,,
,,,,,WIN24_072,20,F,2024-02-23_15h32.15.500,jersey_experiment_5,2023.2.2,Win32,84.74576271,,,,,,,,,,,,,,,,456.2756,457.5694,457.5695,460.1695,return,1.9677,,47.13541667,,,,,,FBP-OG-18.png,0.37,1.2,7,0.5,0,38,38,6,1,,,,,,,,,,,,,,,,,,,,,,,,,,,,,,,,,,,,,,,,
,,,,,WIN24_072,20,F,2024-02-23_15h32.15.500,jersey_experiment_5,2023.2.2,Win32,84.74576271,,,,,,,,,,,,,,,,460.1697,461.9697,461.9699,462.4519,return,0.0652,,39.453125,,,,,,FBP-YG-18.png,0.37,1.2,37,1,0,39,39,36,1,,,,,,,,,,,,,,,,,,,,,,,,,,,,,,,,,,,,,,,,
,,,,,WIN24_072,20,F,2024-02-23_15h32.15.500,jersey_experiment_5,2023.2.2,Win32,84.74576271,,,,,,,,,,,,,,,,462.4524,464.2521,464.2522,465.8285,return,0.1582,,55.33854167,,,,,,FBP-RB-81.png,0.43,1.2,24,1,0,40,40,23,1,,,,,,,,,,,,,,,,,,,,,,,,,,,,,,,,,,,,,,,,
,,,,,WIN24_072,20,F,2024-02-23_15h32.15.500,jersey_experiment_5,2023.2.2,Win32,84.74576271,,,,,,,,,,,,,,,,465.8289,467.6284,467.6284,468.2522,return,0.1062,,55.33854167,,,,,,FBP-YG-19.png,0.4,1.2,43,1,0,41,41,42,1,,,,,,,,,,,,,,,,,,,,,,,,,,,,,,,,,,,,,,,,
,,,,,WIN24_072,20,F,2024-02-23_15h32.15.500,jersey_experiment_5,2023.2.2,Win32,84.74576271,,,,,,,,,,,,,,,,468.253,470.0525,470.0525,470.5932,return,0.0676,,74.34895833,,,,,,FBP-RB-71.png,0.45,1.2,20,1,0,42,42,19,1,,,,,,,,,,,,,,,,,,,,,,,,,,,,,,,,,,,,,,,,
,,,,,WIN24_072,20,F,2024-02-23_15h32.15.500,jersey_experiment_5,2023.2.2,Win32,84.74576271,,,,,,,,,,,,,,,,470.5935,471.8875,471.8876,473.064,return,0.1313,,46.09375,,,,,,FBP-OG-17.png,0.35,1.2,1,0.5,0,43,43,0,1,,,,,,,,,,,,,,,,,,,,,,,,,,,,,,,,,,,,,,,,
,,,,,WIN24_072,20,F,2024-02-23_15h32.15.500,jersey_experiment_5,2023.2.2,Win32,84.74576271,,,,,,,,,,,,,,,,473.0644,474.8642,474.8643,481.1466,return,0.2225,,57.68229167,,,,,,FBP-YG-19.png,0.45,1.2,45,1,0,44,44,44,1,,,,,,,,,,,,,,,,,,,,,,,,,,,,,,,,,,,,,,,,
,,,,,WIN24_072,20,F,2024-02-23_15h32.15.500,jersey_experiment_5,2023.2.2,Win32,84.74576271,,,,,,,,,,,,,,,,481.147,482.9469,482.947,483.8411,return,0.0798,,41.40625,,,,,,FBP-RB-81.png,0.35,1.2,21,1,0,45,45,20,1,,,,,,,,,,,,,,,,,,,,,,,,,,,,,,,,,,,,,,,,
,,,,,WIN24_072,20,F,2024-02-23_15h32.15.500,jersey_experiment_5,2023.2.2,Win32,84.74576271,,,,,,,,,,,,,,,,483.8413,485.6409,485.6409,487.5,return,0.1654,,39.84375,,,,,,FBP-YG-17.png,0.43,1.2,34,1,0,46,46,33,1,,,,,,,,,,,,,,,,,,,,,,,,,,,,,,,,,,,,,,,,
,,,,,WIN24_072,20,F,2024-02-23_15h32.15.500,jersey_experiment_5,2023.2.2,Win32,84.74576271,,,,,,,,,,,,,,,,487.5008,488.7939,488.794,490.1352,return,0.1091,,50.65104167,,,,,,FBP-PT-91.png,0.37,1.2,57,0.5,0,47,47,56,1,,,,,,,,,,,,,,,,,,,,,,,,,,,,,,,,,,,,,,,,
,,,,,WIN24_072,20,F,2024-02-23_15h32.15.500,jersey_experiment_5,2023.2.2,Win32,84.74576271,,,,,,,,,,,,,,,,490.1355,491.9356,491.9357,502.7239,return,9.924,,74.08854167,,,,,,FBP-RB-81.png,0.45,1.2,25,1,0,48,48,24,1,,,,,,,,,,,,,,,,,,,,,,,,,,,,,,,,,,,,,,,,
,,,,,WIN24_072,20,F,2024-02-23_15h32.15.500,jersey_experiment_5,2023.2.2,Win32,84.74576271,,,,,,,,,,,,,,,,502.7283,504.5241,504.5241,505.724,return,0.2822,,31.90104167,,,,,,FBP-YG-19.png,0.37,1.2,42,1,0,49,49,41,1,,,,,,,,,,,,,,,,,,,,,,,,,,,,,,,,,,,,,,,,
,,,,,WIN24_072,20,F,2024-02-23_15h32.15.500,jersey_experiment_5,2023.2.2,Win32,84.74576271,,,,,,,,,,,,,,,,505.7242,507.0184,507.0184,508.1949,return,0.0777,,36.97916667,,,,,,FBP-PT-81.png,0.37,1.2,52,0.5,0,50,50,51,1,,,,,,,,,,,,,,,,,,,,,,,,,,,,,,,,,,,,,,,,
,,,,,WIN24_072,20,F,2024-02-23_15h32.15.500,jersey_experiment_5,2023.2.2,Win32,84.74576271,,,,,,,,,,,,,,,,508.1957,509.489,509.489,510.3125,return,0.0843,,31.77083333,,,,,,FBP-OG-18.png,0.35,1.2,6,0.5,0,51,51,5,1,,,,,,,,,,,,,,,,,,,,,,,,,,,,,,,,,,,,,,,,
,,,,,WIN24_072,20,F,2024-02-23_15h32.15.500,jersey_experiment_5,2023.2.2,Win32,84.74576271,,,,,,,,,,,,,,,,510.3126,511.6068,511.6069,512.6655,return,0.1301,,54.94791667,,,,,,FBP-PT-71.png,0.43,1.2,49,0.5,0,52,52,48,1,,,,,,,,,,,,,,,,,,,,,,,,,,,,,,,,,,,,,,,,
,,,,,WIN24_072,20,F,2024-02-23_15h32.15.500,jersey_experiment_5,2023.2.2,Win32,84.74576271,,,,,,,,,,,,,,,,512.6658,513.9597,513.9597,514.8185,return,0.1489,,60.28645833,,,,,,FBP-PT-91.png,0.4,1.2,58,0.5,0,53,53,57,1,,,,,,,,,,,,,,,,,,,,,,,,,,,,,,,,,,,,,,,,
,,,,,WIN24_072,20,F,2024-02-23_15h32.15.500,jersey_experiment_5,2023.2.2,Win32,84.74576271,,,,,,,,,,,,,,,,514.8187,516.6185,516.6185,517.2541,return,0.0748,,73.828125,,,,,,FBP-YG-17.png,0.45,1.2,35,1,0,54,54,34,1,,,,,,,,,,,,,,,,,,,,,,,,,,,,,,,,,,,,,,,,
,,,,,WIN24_072,20,F,2024-02-23_15h32.15.500,jersey_experiment_5,2023.2.2,Win32,84.74576271,,,,,,,,,,,,,,,,517.2545,519.0541,519.0541,520.6423,return,0.0784,,49.34895833,,,,,,FBP-YG-17.png,0.35,1.2,31,1,0,55,55,30,1,,,,,,,,,,,,,,,,,,,,,,,,,,,,,,,,,,,,,,,,
,,,,,WIN24_072,20,F,2024-02-23_15h32.15.500,jersey_experiment_5,2023.2.2,Win32,84.74576271,,,,,,,,,,,,,,,,520.6428,522.4424,522.4425,522.9717,return,0.0586,,65.10416667,,,,,,FBP-YG-18.png,0.43,1.2,39,1,0,56,56,38,1,,,,,,,,,,,,,,,,,,,,,,,,,,,,,,,,,,,,,,,,
,,,,,WIN24_072,20,F,2024-02-23_15h32.15.500,jersey_experiment_5,2023.2.2,Win32,84.74576271,,,,,,,,,,,,,,,,522.9719,524.266,524.266,525.019,return,0.1672,,74.21875,,,,,,FBP-PT-91.png,0.45,1.2,60,0.5,0,57,57,59,1,,,,,,,,,,,,,,,,,,,,,,,,,,,,,,,,,,,,,,,,
,,,,,WIN24_072,20,F,2024-02-23_15h32.15.500,jersey_experiment_5,2023.2.2,Win32,84.74576271,,,,,,,,,,,,,,,,525.0192,526.819,526.8191,527.7837,return,0.1554,,70.44270833,,,,,,FBP-YG-17.png,0.37,1.2,32,1,0,58,58,31,1,,,,,,,,,,,,,,,,,,,,,,,,,,,,,,,,,,,,,,,,
,,,,,WIN24_072,20,F,2024-02-23_15h32.15.500,jersey_experiment_5,2023.2.2,Win32,84.74576271,,,,,,,,,,,,,,,,527.7842,529.078,529.078,529.9251,return,0.1697,,80.98958333,,,,,,FBP-PT-71.png,0.45,1.2,50,0.5,0,59,59,49,1,,,,,,,,,,,,,,,,,,,,,,,,,,,,,,,,,,,,,,,,
,,,,,WIN24_072,20,F,2024-02-23_15h32.15.500,jersey_experiment_5,2023.2.2,Win32,84.74576271,,,,,,,,,,,,,,,,,,,,,,,,,,,,,,,,,,,,,,,529.9258,649.931,,,,,,,,,,,,,,,,,,,,,,,,,,,,,,,,,,,,,,
,,,,,WIN24_072,20,F,2024-02-23_15h32.15.500,jersey_experiment_5,2023.2.2,Win32,84.74576271,,,,,,,,,,,,,,,,,,,,,,,,,,,,,,,,,,,,,,,,,649.9313,652.8591,return,2.9136,,,,,,,,,,,,,,,,,,,,,,,,,,,,,,,,,,
,,,,,WIN24_072,20,F,2024-02-23_15h32.15.500,jersey_experiment_5,2023.2.2,Win32,84.74576271,,,,,,,,,,,,,,,,652.8651,654.6591,654.6591,657.1299,return,1.1889,,50.65104167,,,,,,FBP-PT-18.png,0.37,1.2,52,1,,,,,,,,,,,,,0,0,0,51,1,,,,,,,,,,,,,,,,,,,,,,,,,,,,
,,,,,WIN24_072,20,F,2024-02-23_15h32.15.500,jersey_experiment_5,2023.2.2,Win32,84.74576271,,,,,,,,,,,,,,,,657.1307,658.9298,658.9298,661.3183,return,1.2983,,63.02083333,,,,,,FBP-PT-18.png,0.45,1.2,55,1,,,,,,,,,,,,,0,1,1,54,1,,,,,,,,,,,,,,,,,,,,,,,,,,,,
,,,,,WIN24_072,20,F,2024-02-23_15h32.15.500,jersey_experiment_5,2023.2.2,Win32,84.74576271,,,,,,,,,,,,,,,,661.319,662.6123,662.6123,664.0595,return,0.4003,,35.67708333,,,,,,FBP-RB-19.png,0.37,1.2,27,0.5,,,,,,,,,,,,,0,2,2,26,1,,,,,,,,,,,,,,,,,,,,,,,,,,,,
,,,,,WIN24_072,20,F,2024-02-23_15h32.15.500,jersey_experiment_5,2023.2.2,Win32,84.74576271,,,,,,,,,,,,,,,,664.0598,665.8594,665.8594,669.7772,return,1.5619,,64.453125,,,,,,FBP-PT-18.png,0.43,1.2,54,1,,,,,,,,,,,,,0,3,3,53,1,,,,,,,,,,,,,,,,,,,,,,,,,,,,
,,,,,WIN24_072,20,F,2024-02-23_15h32.15.500,jersey_experiment_5,2023.2.2,Win32,84.74576271,,,,,,,,,,,,,,,,669.7775,671.5774,671.5774,672.3069,return,0.1714,,37.76041667,,,,,,FBP-OG-81.png,0.37,1.2,7,1,,,,,,,,,,,,,0,4,4,6,1,,,,,,,,,,,,,,,,,,,,,,,,,,,,
,,,,,WIN24_072,20,F,2024-02-23_15h32.15.500,jersey_experiment_5,2023.2.2,Win32,84.74576271,,,,,,,,,,,,,,,,672.307,673.6009,673.601,674.554,return,0.0977,,62.36979167,,,,,,FBP-RB-19.png,0.43,1.2,29,0.5,,,,,,,,,,,,,0,5,5,28,1,,,,,,,,,,,,,,,,,,,,,,,,,,,,
,,,,,WIN24_072,20,F,2024-02-23_15h32.15.500,jersey_experiment_5,2023.2.2,Win32,84.74576271,,,,,,,,,,,,,,,,674.5542,675.848,675.8481,676.8834,return,0.2539,,40.49479167,,,,,,FBP-RB-18.png,0.37,1.2,22,0.5,,,,,,,,,,,,,0,6,6,21,1,,,,,,,,,,,,,,,,,,,,,,,,,,,,
,,,,,WIN24_072,20,F,2024-02-23_15h32.15.500,jersey_experiment_5,2023.2.2,Win32,84.74576271,,,,,,,,,,,,,,,,676.8837,678.1777,678.1777,679.5424,return,0.1218,,48.4375,,,,,,FBP-RB-19.png,0.4,1.2,28,0.5,,,,,,,,,,,,,0,7,7,27,1,,,,,,,,,,,,,,,,,,,,,,,,,,,,
,,,,,WIN24_072,20,F,2024-02-23_15h32.15.500,jersey_experiment_5,2023.2.2,Win32,84.74576271,,,,,,,,,,,,,,,,679.5426,680.8364,680.8365,682.6366,return,0.8,,24.86979167,,,,,,FBP-YG-91.png,0.35,1.2,41,0.5,,,,,,,,,,,,,0,8,8,40,1,,,,,,,,,,,,,,,,,,,,,,,,,,,,
,,,,,WIN24_072,20,F,2024-02-23_15h32.15.500,jersey_experiment_5,2023.2.2,Win32,84.74576271,,,,,,,,,,,,,,,,682.6369,684.4366,684.4367,685.0369,return,0.0947,,24.86979167,,,,,,FBP-OG-81.png,0.35,1.2,6,1,,,,,,,,,,,,,0,9,9,5,1,,,,,,,,,,,,,,,,,,,,,,,,,,,,
,,,,,WIN24_072,20,F,2024-02-23_15h32.15.500,jersey_experiment_5,2023.2.2,Win32,84.74576271,,,,,,,,,,,,,,,,685.0374,686.3309,686.331,692.0605,return,0.1792,,31.77083333,,,,,,FBP-YG-71.png,0.4,1.2,33,0.5,,,,,,,,,,,,,0,10,10,32,1,,,,,,,,,,,,,,,,,,,,,,,,,,,,
,,,,,WIN24_072,20,F,2024-02-23_15h32.15.500,jersey_experiment_5,2023.2.2,Win32,84.74576271,,,,,,,,,,,,,,,,692.0608,693.3545,693.3545,694.4722,return,0.1782,,74.08854167,,,,,,FBP-YG-91.png,0.45,1.2,45,0.5,,,,,,,,,,,,,0,11,11,44,1,,,,,,,,,,,,,,,,,,,,,,,,,,,,
,,,,,WIN24_072,20,F,2024-02-23_15h32.15.500,jersey_experiment_5,2023.2.2,Win32,84.74576271,,,,,,,,,,,,,,,,694.4725,695.7666,695.7667,696.6252,return,0.2413,,74.34895833,,,,,,FBP-RB-17.png,0.43,1.2,19,0.5,,,,,,,,,,,,,0,12,12,18,1,,,,,,,,,,,,,,,,,,,,,,,,,,,,
,,,,,WIN24_072,20,F,2024-02-23_15h32.15.500,jersey_experiment_5,2023.2.2,Win32,84.74576271,,,,,,,,,,,,,,,,696.6255,698.4253,698.4253,699.1432,return,0.1167,,64.453125,,,,,,FBP-PT-18.png,0.4,1.2,53,1,,,,,,,,,,,,,0,13,13,52,1,,,,,,,,,,,,,,,,,,,,,,,,,,,,
,,,,,WIN24_072,20,F,2024-02-23_15h32.15.500,jersey_experiment_5,2023.2.2,Win32,84.74576271,,,,,,,,,,,,,,,,699.1438,700.9434,700.9435,701.802,return,0.189,,55.20833333,,,,,,FBP-OG-81.png,0.4,1.2,8,1,,,,,,,,,,,,,0,14,14,7,1,,,,,,,,,,,,,,,,,,,,,,,,,,,,
,,,,,WIN24_072,20,F,2024-02-23_15h32.15.500,jersey_experiment_5,2023.2.2,Win32,84.74576271,,,,,,,,,,,,,,,,701.8025,703.0961,703.0962,703.7315,return,0.0984,,66.92708333,,,,,,FBP-YG-81.png,0.45,1.2,40,0.5,,,,,,,,,,,,,0,15,15,39,1,,,,,,,,,,,,,,,,,,,,,,,,,,,,
,,,,,WIN24_072,20,F,2024-02-23_15h32.15.500,jersey_experiment_5,2023.2.2,Win32,84.74576271,,,,,,,,,,,,,,,,703.7317,705.0255,705.0256,705.5432,return,0.0616,,66.92708333,,,,,,FBP-YG-91.png,0.43,1.2,44,0.5,,,,,,,,,,,,,0,16,16,43,1,,,,,,,,,,,,,,,,,,,,,,,,,,,,
,,,,,WIN24_072,20,F,2024-02-23_15h32.15.500,jersey_experiment_5,2023.2.2,Win32,84.74576271,,,,,,,,,,,,,,,,705.5435,706.8375,706.8375,732.0383,return,23.2982,,75.390625,,,,,,FBP-YG-81.png,0.43,1.2,39,0.5,,,,,,,,,,,,,0,17,17,38,1,,,,,,,,,,,,,,,,,,,,,,,,,,,,
,,,,,WIN24_072,20,F,2024-02-23_15h32.15.500,jersey_experiment_5,2023.2.2,Win32,84.74576271,,,,,,,,,,,,,,,,732.0429,733.3443,733.3443,734.4502,return,0.1493,,26.953125,,,,,,FBP-YG-71.png,0.37,1.2,32,0.5,,,,,,,,,,,,,0,18,18,31,1,,,,,,,,,,,,,,,,,,,,,,,,,,,,
,,,,,WIN24_072,20,F,2024-02-23_15h32.15.500,jersey_experiment_5,2023.2.2,Win32,84.74576271,,,,,,,,,,,,,,,,734.4504,735.7444,735.7445,736.6974,return,0.1891,,17.578125,,,,,,FBP-RB-19.png,0.35,1.2,26,0.5,,,,,,,,,,,,,0,19,19,25,1,,,,,,,,,,,,,,,,,,,,,,,,,,,,
,,,,,WIN24_072,20,F,2024-02-23_15h32.15.500,jersey_experiment_5,2023.2.2,Win32,84.74576271,,,,,,,,,,,,,,,,736.6977,738.4975,738.4976,739.6388,return,0.6034,,79.03645833,,,,,,FBP-OG-91.png,0.45,1.2,15,1,,,,,,,,,,,,,0,20,20,14,1,,,,,,,,,,,,,,,,,,,,,,,,,,,,
,,,,,WIN24_072,20,F,2024-02-23_15h32.15.500,jersey_experiment_5,2023.2.2,Win32,84.74576271,,,,,,,,,,,,,,,,739.6391,741.4387,741.4388,742.4387,return,0.0976,,42.44791667,,,,,,FBP-PT-19.png,0.37,1.2,57,1,,,,,,,,,,,,,0,21,21,56,1,,,,,,,,,,,,,,,,,,,,,,,,,,,,
,,,,,WIN24_072,20,F,2024-02-23_15h32.15.500,jersey_experiment_5,2023.2.2,Win32,84.74576271,,,,,,,,,,,,,,,,742.4389,743.7331,743.7331,744.9331,return,0.1197,,74.34895833,,,,,,FBP-RB-18.png,0.45,1.2,25,0.5,,,,,,,,,,,,,0,22,22,24,1,,,,,,,,,,,,,,,,,,,,,,,,,,,,
,,,,,WIN24_072,20,F,2024-02-23_15h32.15.500,jersey_experiment_5,2023.2.2,Win32,84.74576271,,,,,,,,,,,,,,,,744.9339,746.733,746.733,747.8273,return,0.2306,,74.34895833,,,,,,FBP-PT-19.png,0.43,1.2,59,1,,,,,,,,,,,,,0,23,23,58,1,,,,,,,,,,,,,,,,,,,,,,,,,,,,
,,,,,WIN24_072,20,F,2024-02-23_15h32.15.500,jersey_experiment_5,2023.2.2,Win32,84.74576271,,,,,,,,,,,,,,,,747.8274,749.1213,749.1213,750.2507,return,0.0942,,25.52083333,,,,,,FBP-RB-18.png,0.35,1.2,21,0.5,,,,,,,,,,,,,0,24,24,20,1,,,,,,,,,,,,,,,,,,,,,,,,,,,,
,,,,,WIN24_072,20,F,2024-02-23_15h32.15.500,jersey_experiment_5,2023.2.2,Win32,84.74576271,,,,,,,,,,,,,,,,750.2509,752.0515,752.0515,753.1451,return,0.1072,,51.30208333,,,,,,FBP-PT-19.png,0.4,1.2,58,1,,,,,,,,,,,,,0,25,25,57,1,,,,,,,,,,,,,,,,,,,,,,,,,,,,
,,,,,WIN24_072,20,F,2024-02-23_15h32.15.500,jersey_experiment_5,2023.2.2,Win32,84.74576271,,,,,,,,,,,,,,,,753.1454,754.9451,754.9451,755.4511,return,0.0832,,46.22395833,,,,,,FBP-OG-91.png,0.37,1.2,12,1,,,,,,,,,,,,,0,26,26,11,1,,,,,,,,,,,,,,,,,,,,,,,,,,,,
,,,,,WIN24_072,20,F,2024-02-23_15h32.15.500,jersey_experiment_5,2023.2.2,Win32,84.74576271,,,,,,,,,,,,,,,,755.4514,756.7452,756.7452,760.2041,return,0.6738,,75.52083333,,,,,,FBP-RB-19.png,0.45,1.2,30,0.5,,,,,,,,,,,,,0,27,27,29,1,,,,,,,,,,,,,,,,,,,,,,,,,,,,
,,,,,WIN24_072,20,F,2024-02-23_15h32.15.500,jersey_experiment_5,2023.2.2,Win32,84.74576271,,,,,,,,,,,,,,,,760.2044,761.4983,761.4984,762.6747,return,0.6073,,79.42708333,,,,,,FBP-RB-17.png,0.45,1.2,20,0.5,,,,,,,,,,,,,0,28,28,19,1,,,,,,,,,,,,,,,,,,,,,,,,,,,,
,,,,,WIN24_072,20,F,2024-02-23_15h32.15.500,jersey_experiment_5,2023.2.2,Win32,84.74576271,,,,,,,,,,,,,,,,762.675,764.475,764.475,767.4753,return,2.2404,,25.52083333,,,,,,FBP-OG-91.png,0.35,1.2,11,1,,,,,,,,,,,,,0,29,29,10,1,,,,,,,,,,,,,,,,,,,,,,,,,,,,
,,,,,WIN24_072,20,F,2024-02-23_15h32.15.500,jersey_experiment_5,2023.2.2,Win32,84.74576271,,,,,,,,,,,,,,,,767.476,769.2752,769.2753,772.9223,return,1.3413,,73.56770833,,,,,,FBP-OG-71.png,0.43,1.2,4,1,,,,,,,,,,,,,0,30,30,3,1,,,,,,,,,,,,,,,,,,,,,,,,,,,,
,,,,,WIN24_072,20,F,2024-02-23_15h32.15.500,jersey_experiment_5,2023.2.2,Win32,84.74576271,,,,,,,,,,,,,,,,772.9227,774.2163,774.2164,776.1342,return,0.7217,,72.65625,,,,,,FBP-YG-71.png,0.43,1.2,34,0.5,,,,,,,,,,,,,0,31,31,33,1,,,,,,,,,,,,,,,,,,,,,,,,,,,,
,,,,,WIN24_072,20,F,2024-02-23_15h32.15.500,jersey_experiment_5,2023.2.2,Win32,84.74576271,,,,,,,,,,,,,,,,776.1344,777.9342,777.9343,779.3343,return,0.8385,,46.74479167,,,,,,FBP-PT-18.png,0.35,1.2,51,1,,,,,,,,,,,,,0,32,32,50,1,,,,,,,,,,,,,,,,,,,,,,,,,,,,
,,,,,WIN24_072,20,F,2024-02-23_15h32.15.500,jersey_experiment_5,2023.2.2,Win32,84.74576271,,,,,,,,,,,,,,,,779.3348,781.1344,781.1344,782.6755,return,0.8746,,77.86458333,,,,,,FBP-OG-81.png,0.45,1.2,10,1,,,,,,,,,,,,,0,33,33,9,1,,,,,,,,,,,,,,,,,,,,,,,,,,,,
,,,,,WIN24_072,20,F,2024-02-23_15h32.15.500,jersey_experiment_5,2023.2.2,Win32,84.74576271,,,,,,,,,,,,,,,,782.6758,784.4757,784.4757,785.7814,return,0.8166,,63.28125,,,,,,FBP-PT-17.png,0.4,1.2,48,1,,,,,,,,,,,,,0,34,34,47,1,,,,,,,,,,,,,,,,,,,,,,,,,,,,
,,,,,WIN24_072,20,F,2024-02-23_15h32.15.500,jersey_experiment_5,2023.2.2,Win32,84.74576271,,,,,,,,,,,,,,,,785.7817,787.0759,787.0759,788.0758,return,0.1511,,50.390625,,,,,,FBP-RB-18.png,0.4,1.2,23,0.5,,,,,,,,,,,,,0,35,35,22,1,,,,,,,,,,,,,,,,,,,,,,,,,,,,
,,,,,WIN24_072,20,F,2024-02-23_15h32.15.500,jersey_experiment_5,2023.2.2,Win32,84.74576271,,,,,,,,,,,,,,,,788.0761,789.8763,789.8763,790.5816,return,0.2045,,70.05208333,,,,,,FBP-OG-71.png,0.45,1.2,5,1,,,,,,,,,,,,,0,36,36,4,1,,,,,,,,,,,,,,,,,,,,,,,,,,,,
,,,,,WIN24_072,20,F,2024-02-23_15h32.15.500,jersey_experiment_5,2023.2.2,Win32,84.74576271,,,,,,,,,,,,,,,,790.582,791.8759,791.8759,792.5348,return,0.1328,,71.09375,,,,,,FBP-RB-18.png,0.43,1.2,24,0.5,,,,,,,,,,,,,0,37,37,23,1,,,,,,,,,,,,,,,,,,,,,,,,,,,,
,,,,,WIN24_072,20,F,2024-02-23_15h32.15.500,jersey_experiment_5,2023.2.2,Win32,84.74576271,,,,,,,,,,,,,,,,792.535,793.829,793.829,795.1231,return,0.136,,37.109375,,,,,,FBP-YG-91.png,0.37,1.2,42,0.5,,,,,,,,,,,,,0,38,38,41,1,,,,,,,,,,,,,,,,,,,,,,,,,,,,
,,,,,WIN24_072,20,F,2024-02-23_15h32.15.500,jersey_experiment_5,2023.2.2,Win32,84.74576271,,,,,,,,,,,,,,,,795.1233,796.9233,796.9233,797.5468,return,0.1765,,19.40104167,,,,,,FBP-PT-17.png,0.35,1.2,46,1,,,,,,,,,,,,,0,39,39,45,1,,,,,,,,,,,,,,,,,,,,,,,,,,,,
,,,,,WIN24_072,20,F,2024-02-23_15h32.15.500,jersey_experiment_5,2023.2.2,Win32,84.74576271,,,,,,,,,,,,,,,,797.547,798.8409,798.8409,799.4644,return,0.1051,,12.5,,,,,,FBP-YG-81.png,0.35,1.2,36,0.5,,,,,,,,,,,,,0,40,40,35,1,,,,,,,,,,,,,,,,,,,,,,,,,,,,
,,,,,WIN24_072,20,F,2024-02-23_15h32.15.500,jersey_experiment_5,2023.2.2,Win32,84.74576271,,,,,,,,,,,,,,,,799.4646,800.7586,800.7586,802.1469,return,0.1955,,56.90104167,,,,,,FBP-YG-71.png,0.45,1.2,35,0.5,,,,,,,,,,,,,0,41,41,34,1,,,,,,,,,,,,,,,,,,,,,,,,,,,,
,,,,,WIN24_072,20,F,2024-02-23_15h32.15.500,jersey_experiment_5,2023.2.2,Win32,84.74576271,,,,,,,,,,,,,,,,802.1473,803.9472,803.9472,805.3707,return,0.2475,,39.84375,,,,,,FBP-OG-71.png,0.37,1.2,2,1,,,,,,,,,,,,,0,42,42,1,1,,,,,,,,,,,,,,,,,,,,,,,,,,,,
,,,,,WIN24_072,20,F,2024-02-23_15h32.15.500,jersey_experiment_5,2023.2.2,Win32,84.74576271,,,,,,,,,,,,,,,,805.3715,806.6646,806.6647,807.2764,return,0.1881,,39.84375,,,,,,FBP-YG-81.png,0.37,1.2,37,0.5,,,,,,,,,,,,,0,43,43,36,1,,,,,,,,,,,,,,,,,,,,,,,,,,,,
,,,,,WIN24_072,20,F,2024-02-23_15h32.15.500,jersey_experiment_5,2023.2.2,Win32,84.74576271,,,,,,,,,,,,,,,,807.2768,809.0765,809.0765,810.3237,return,0.0978,,74.47916667,,,,,,FBP-OG-81.png,0.43,1.2,9,1,,,,,,,,,,,,,0,44,44,8,1,,,,,,,,,,,,,,,,,,,,,,,,,,,,
,,,,,WIN24_072,20,F,2024-02-23_15h32.15.500,jersey_experiment_5,2023.2.2,Win32,84.74576271,,,,,,,,,,,,,,,,810.324,812.1238,812.1238,812.5827,return,0.0956,,79.296875,,,,,,FBP-PT-17.png,0.43,1.2,49,1,,,,,,,,,,,,,0,45,45,48,1,,,,,,,,,,,,,,,,,,,,,,,,,,,,
,,,,,WIN24_072,20,F,2024-02-23_15h32.15.500,jersey_experiment_5,2023.2.2,Win32,84.74576271,,,,,,,,,,,,,,,,812.5829,814.3826,814.3826,814.8649,return,0.139,,84.89583333,,,,,,FBP-PT-19.png,0.45,1.2,60,1,,,,,,,,,,,,,0,46,46,59,1,,,,,,,,,,,,,,,,,,,,,,,,,,,,
,,,,,WIN24_072,20,F,2024-02-23_15h32.15.500,jersey_experiment_5,2023.2.2,Win32,84.74576271,,,,,,,,,,,,,,,,814.8652,816.6653,816.6653,817.2534,return,0.1461,,70.96354167,,,,,,FBP-PT-17.png,0.37,1.2,47,1,,,,,,,,,,,,,0,47,47,46,1,,,,,,,,,,,,,,,,,,,,,,,,,,,,
,,,,,WIN24_072,20,F,2024-02-23_15h32.15.500,jersey_experiment_5,2023.2.2,Win32,84.74576271,,,,,,,,,,,,,,,,817.2539,819.0533,819.0533,819.5476,return,0.0913,,78.515625,,,,,,FBP-PT-17.png,0.45,1.2,50,1,,,,,,,,,,,,,0,48,48,49,1,,,,,,,,,,,,,,,,,,,,,,,,,,,,
,,,,,WIN24_072,20,F,2024-02-23_15h32.15.500,jersey_experiment_5,2023.2.2,Win32,84.74576271,,,,,,,,,,,,,,,,819.5479,820.8418,820.842,822.3242,return,0.8504,,20.44270833,,,,,,FBP-RB-17.png,0.37,1.2,17,0.5,,,,,,,,,,,,,0,49,49,16,1,,,,,,,,,,,,,,,,,,,,,,,,,,,,
,,,,,WIN24_072,20,F,2024-02-23_15h32.15.500,jersey_experiment_5,2023.2.2,Win32,84.74576271,,,,,,,,,,,,,,,,822.3243,824.1243,824.1243,825.1242,return,0.1683,,72.39583333,,,,,,FBP-OG-91.png,0.43,1.2,14,1,,,,,,,,,,,,,0,50,50,13,1,,,,,,,,,,,,,,,,,,,,,,,,,,,,
,,,,,WIN24_072,20,F,2024-02-23_15h32.15.500,jersey_experiment_5,2023.2.2,Win32,84.74576271,,,,,,,,,,,,,,,,825.1246,826.9242,826.9242,827.4889,return,0.174,,63.15104167,,,,,,FBP-OG-71.png,0.4,1.2,3,1,,,,,,,,,,,,,0,51,51,2,1,,,,,,,,,,,,,,,,,,,,,,,,,,,,
,,,,,WIN24_072,20,F,2024-02-23_15h32.15.500,jersey_experiment_5,2023.2.2,Win32,84.74576271,,,,,,,,,,,,,,,,827.4892,829.2892,829.2892,832.1009,return,2.005,,30.078125,,,,,,FBP-OG-71.png,0.35,1.2,1,1,,,,,,,,,,,,,0,52,52,0,1,,,,,,,,,,,,,,,,,,,,,,,,,,,,
,,,,,WIN24_072,20,F,2024-02-23_15h32.15.500,jersey_experiment_5,2023.2.2,Win32,84.74576271,,,,,,,,,,,,,,,,832.1012,833.395,833.3951,834.1246,return,0.1883,,19.66145833,,,,,,FBP-RB-17.png,0.35,1.2,16,0.5,,,,,,,,,,,,,0,53,53,15,1,,,,,,,,,,,,,,,,,,,,,,,,,,,,
,,,,,WIN24_072,20,F,2024-02-23_15h32.15.500,jersey_experiment_5,2023.2.2,Win32,84.74576271,,,,,,,,,,,,,,,,834.1249,835.9246,835.9246,836.6776,return,0.0964,,19.921875,,,,,,FBP-PT-19.png,0.35,1.2,56,1,,,,,,,,,,,,,0,54,54,55,1,,,,,,,,,,,,,,,,,,,,,,,,,,,,
,,,,,WIN24_072,20,F,2024-02-23_15h32.15.500,jersey_experiment_5,2023.2.2,Win32,84.74576271,,,,,,,,,,,,,,,,836.6777,837.9717,837.9717,839.6895,return,0.1538,,39.84375,,,,,,FBP-RB-17.png,0.4,1.2,18,0.5,,,,,,,,,,,,,0,55,55,17,1,,,,,,,,,,,,,,,,,,,,,,,,,,,,
,,,,,WIN24_072,20,F,2024-02-23_15h32.15.500,jersey_experiment_5,2023.2.2,Win32,84.74576271,,,,,,,,,,,,,,,,839.69,840.9837,840.9838,842.1484,return,0.147,,51.30208333,,,,,,FBP-YG-81.png,0.4,1.2,38,0.5,,,,,,,,,,,,,0,56,56,37,1,,,,,,,,,,,,,,,,,,,,,,,,,,,,
,,,,,WIN24_072,20,F,2024-02-23_15h32.15.500,jersey_experiment_5,2023.2.2,Win32,84.74576271,,,,,,,,,,,,,,,,842.1486,843.4425,843.4426,844.2897,return,0.1146,,33.07291667,,,,,,FBP-YG-71.png,0.35,1.2,31,0.5,,,,,,,,,,,,,0,57,57,30,1,,,,,,,,,,,,,,,,,,,,,,,,,,,,
,,,,,WIN24_072,20,F,2024-02-23_15h32.15.500,jersey_experiment_5,2023.2.2,Win32,84.74576271,,,,,,,,,,,,,,,,844.29,846.0897,846.0898,847.078,return,0.096,,59.63541667,,,,,,FBP-OG-91.png,0.4,1.2,13,1,,,,,,,,,,,,,0,58,58,12,1,,,,,,,,,,,,,,,,,,,,,,,,,,,,
,,,,,WIN24_072,20,F,2024-02-23_15h32.15.500,jersey_experiment_5,2023.2.2,Win32,84.74576271,,,,,,,,,,,,,,,,847.0783,848.372,848.372,849.0782,return,0.1099,,63.28125,,,,,,FBP-YG-91.png,0.4,1.2,43,0.5,,,,,,,,,,,,,0,59,59,42,1,,,,,,,,,,,,,,,,,,,,,,,,,,,,
,,,,,WIN24_072,20,F,2024-02-23_15h32.15.500,jersey_experiment_5,2023.2.2,Win32,84.74576271,,,,,,,,,,,,,,,,849.0816,850.8781,850.8781,851.4663,return,0.1183,,39.453125,,,,,,FBP-OG-19.png,0.35,1.2,11,1,,,,,,,,,,,,,,,,,,0,0,0,10,1,,,,,,,,,,,,,,,,,,,,,,,
,,,,,WIN24_072,20,F,2024-02-23_15h32.15.500,jersey_experiment_5,2023.2.2,Win32,84.74576271,,,,,,,,,,,,,,,,851.4666,853.2664,853.2665,853.7961,return,0.1127,,34.375,,,,,,FBP-PT-91.png,0.35,1.2,56,1,,,,,,,,,,,,,,,,,,0,1,1,55,1,,,,,,,,,,,,,,,,,,,,,,,
,,,,,WIN24_072,20,F,2024-02-23_15h32.15.500,jersey_experiment_5,2023.2.2,Win32,84.74576271,,,,,,,,,,,,,,,,853.7964,855.5962,855.5962,856.1844,return,0.0721,,58.85416667,,,,,,FBP-OG-19.png,0.4,1.2,13,1,,,,,,,,,,,,,,,,,,0,2,2,12,1,,,,,,,,,,,,,,,,,,,,,,,
,,,,,WIN24_072,20,F,2024-02-23_15h32.15.500,jersey_experiment_5,2023.2.2,Win32,84.74576271,,,,,,,,,,,,,,,,856.1854,857.4784,857.4784,858.4549,return,0.109,,71.22395833,,,,,,FBP-RB-71.png,0.45,1.2,20,0.5,,,,,,,,,,,,,,,,,,0,3,3,19,1,,,,,,,,,,,,,,,,,,,,,,,
,,,,,WIN24_072,20,F,2024-02-23_15h32.15.500,jersey_experiment_5,2023.2.2,Win32,84.74576271,,,,,,,,,,,,,,,,858.4551,859.749,859.749,860.4433,return,0.1765,,71.22395833,,,,,,FBP-RB-91.png,0.4,1.2,28,0.5,,,,,,,,,,,,,,,,,,0,4,4,27,1,,,,,,,,,,,,,,,,,,,,,,,
,,,,,WIN24_072,20,F,2024-02-23_15h32.15.500,jersey_experiment_5,2023.2.2,Win32,84.74576271,,,,,,,,,,,,,,,,860.4435,861.7373,861.7373,862.2903,return,0.0431,,74.73958333,,,,,,FBP-YG-19.png,0.4,1.2,43,0.5,,,,,,,,,,,,,,,,,,0,5,5,42,1,,,,,,,,,,,,,,,,,,,,,,,
,,,,,WIN24_072,20,F,2024-02-23_15h32.15.500,jersey_experiment_5,2023.2.2,Win32,84.74576271,,,,,,,,,,,,,,,,862.2906,864.0904,864.0905,864.808,return,0.1288,,53.64583333,,,,,,FBP-PT-91.png,0.37,1.2,57,1,,,,,,,,,,,,,,,,,,0,6,6,56,1,,,,,,,,,,,,,,,,,,,,,,,
,,,,,WIN24_072,20,F,2024-02-23_15h32.15.500,jersey_experiment_5,2023.2.2,Win32,84.74576271,,,,,,,,,,,,,,,,864.8083,866.6082,866.6082,867.1259,return,0.1213,,73.046875,,,,,,FBP-OG-19.png,0.43,1.2,14,1,,,,,,,,,,,,,,,,,,0,7,7,13,1,,,,,,,,,,,,,,,,,,,,,,,
,,,,,WIN24_072,20,F,2024-02-23_15h32.15.500,jersey_experiment_5,2023.2.2,Win32,84.74576271,,,,,,,,,,,,,,,,867.126,868.42,868.4201,869.0433,return,0.1243,,79.03645833,,,,,,FBP-RB-71.png,0.43,1.2,19,0.5,,,,,,,,,,,,,,,,,,0,8,8,18,1,,,,,,,,,,,,,,,,,,,,,,,
,,,,,WIN24_072,20,F,2024-02-23_15h32.15.500,jersey_experiment_5,2023.2.2,Win32,84.74576271,,,,,,,,,,,,,,,,869.0436,870.3375,870.3375,872.1964,return,0.3208,,48.95833333,,,,,,FBP-YG-18.png,0.35,1.2,36,0.5,,,,,,,,,,,,,,,,,,0,9,9,35,1,,,,,,,,,,,,,,,,,,,,,,,
,,,,,WIN24_072,20,F,2024-02-23_15h32.15.500,jersey_experiment_5,2023.2.2,Win32,84.74576271,,,,,,,,,,,,,,,,872.1967,873.9965,873.9965,877.9144,return,0.7416,,73.828125,,,,,,FBP-PT-81.png,0.45,1.2,55,1,,,,,,,,,,,,,,,,,,0,10,10,54,1,,,,,,,,,,,,,,,,,,,,,,,
,,,,,WIN24_072,20,F,2024-02-23_15h32.15.500,jersey_experiment_5,2023.2.2,Win32,84.74576271,,,,,,,,,,,,,,,,877.9146,879.2086,879.2086,879.8673,return,0.1884,,77.734375,,,,,,FBP-YG-17.png,0.45,1.2,35,0.5,,,,,,,,,,,,,,,,,,0,11,11,34,1,,,,,,,,,,,,,,,,,,,,,,,
,,,,,WIN24_072,20,F,2024-02-23_15h32.15.500,jersey_experiment_5,2023.2.2,Win32,84.74576271,,,,,,,,,,,,,,,,879.8676,881.1616,881.1616,881.8792,return,0.1085,,77.86458333,,,,,,FBP-RB-81.png,0.43,1.2,24,0.5,,,,,,,,,,,,,,,,,,0,12,12,23,1,,,,,,,,,,,,,,,,,,,,,,,
,,,,,WIN24_072,20,F,2024-02-23_15h32.15.500,jersey_experiment_5,2023.2.2,Win32,84.74576271,,,,,,,,,,,,,,,,881.8794,883.6793,883.6793,884.1617,return,0.0436,,69.27083333,,,,,,FBP-PT-81.png,0.37,1.2,52,1,,,,,,,,,,,,,,,,,,0,13,13,51,1,,,,,,,,,,,,,,,,,,,,,,,
,,,,,WIN24_072,20,F,2024-02-23_15h32.15.500,jersey_experiment_5,2023.2.2,Win32,84.74576271,,,,,,,,,,,,,,,,884.1619,885.9617,885.9618,886.4442,return,0.1172,,73.95833333,,,,,,FBP-PT-91.png,0.43,1.2,59,1,,,,,,,,,,,,,,,,,,0,14,14,58,1,,,,,,,,,,,,,,,,,,,,,,,
,,,,,WIN24_072,20,F,2024-02-23_15h32.15.500,jersey_experiment_5,2023.2.2,Win32,84.74576271,,,,,,,,,,,,,,,,886.4448,887.7383,887.7384,888.5031,return,0.2025,,66.796875,,,,,,FBP-RB-71.png,0.37,1.2,17,0.5,,,,,,,,,,,,,,,,,,0,15,15,16,1,,,,,,,,,,,,,,,,,,,,,,,
,,,,,WIN24_072,20,F,2024-02-23_15h32.15.500,jersey_experiment_5,2023.2.2,Win32,84.74576271,,,,,,,,,,,,,,,,888.5036,890.303,890.303,890.8443,return,0.156,,60.546875,,,,,,FBP-PT-91.png,0.4,1.2,58,1,,,,,,,,,,,,,,,,,,0,16,16,57,1,,,,,,,,,,,,,,,,,,,,,,,
,,,,,WIN24_072,20,F,2024-02-23_15h32.15.500,jersey_experiment_5,2023.2.2,Win32,84.74576271,,,,,,,,,,,,,,,,890.8445,892.6442,892.6442,909.7038,return,2.1312,,64.453125,,,,,,FBP-OG-18.png,0.4,1.2,8,1,,,,,,,,,,,,,,,,,,0,17,17,7,1,,,,,,,,,,,,,,,,,,,,,,,
,,,,,WIN24_072,20,F,2024-02-23_15h32.15.500,jersey_experiment_5,2023.2.2,Win32,84.74576271,,,,,,,,,,,,,,,,909.7041,910.9981,910.9981,912.0687,return,0.1345,,40.75520833,,,,,,FBP-RB-81.png,0.35,1.2,21,0.5,,,,,,,,,,,,,,,,,,0,18,18,20,1,,,,,,,,,,,,,,,,,,,,,,,
,,,,,WIN24_072,20,F,2024-02-23_15h32.15.500,jersey_experiment_5,2023.2.2,Win32,84.74576271,,,,,,,,,,,,,,,,912.0691,913.8686,913.8686,914.8334,return,0.5968,,43.48958333,,,,,,FBP-PT-71.png,0.37,1.2,47,1,,,,,,,,,,,,,,,,,,0,19,19,46,1,,,,,,,,,,,,,,,,,,,,,,,
,,,,,WIN24_072,20,F,2024-02-23_15h32.15.500,jersey_experiment_5,2023.2.2,Win32,84.74576271,,,,,,,,,,,,,,,,914.8336,916.1275,916.1275,917.0101,return,0.1027,,49.86979167,,,,,,FBP-RB-91.png,0.43,1.2,29,0.5,,,,,,,,,,,,,,,,,,0,20,20,28,1,,,,,,,,,,,,,,,,,,,,,,,
,,,,,WIN24_072,20,F,2024-02-23_15h32.15.500,jersey_experiment_5,2023.2.2,Win32,84.74576271,,,,,,,,,,,,,,,,917.0102,918.3043,918.3043,918.8336,return,0.1375,,49.86979167,,,,,,FBP-YG-17.png,0.4,1.2,33,0.5,,,,,,,,,,,,,,,,,,0,21,21,32,1,,,,,,,,,,,,,,,,,,,,,,,
,,,,,WIN24_072,20,F,2024-02-23_15h32.15.500,jersey_experiment_5,2023.2.2,Win32,84.74576271,,,,,,,,,,,,,,,,918.8341,920.6339,920.6339,921.1748,return,0.1656,,66.27604167,,,,,,FBP-OG-17.png,0.45,1.2,5,1,,,,,,,,,,,,,,,,,,0,22,22,4,1,,,,,,,,,,,,,,,,,,,,,,,
,,,,,WIN24_072,20,F,2024-02-23_15h32.15.500,jersey_experiment_5,2023.2.2,Win32,84.74576271,,,,,,,,,,,,,,,,921.175,922.975,922.9751,923.8103,return,0.1961,,38.28125,,,,,,FBP-OG-17.png,0.35,1.2,1,1,,,,,,,,,,,,,,,,,,0,23,23,0,1,,,,,,,,,,,,,,,,,,,,,,,
,,,,,WIN24_072,20,F,2024-02-23_15h32.15.500,jersey_experiment_5,2023.2.2,Win32,84.74576271,,,,,,,,,,,,,,,,923.8106,925.1045,925.1045,926.0103,return,0.1297,,75.26041667,,,,,,FBP-YG-18.png,0.45,1.2,40,0.5,,,,,,,,,,,,,,,,,,0,24,24,39,1,,,,,,,,,,,,,,,,,,,,,,,
,,,,,WIN24_072,20,F,2024-02-23_15h32.15.500,jersey_experiment_5,2023.2.2,Win32,84.74576271,,,,,,,,,,,,,,,,926.0105,927.3044,927.3045,929.5163,return,0.8472,,43.88020833,,,,,,FBP-RB-81.png,0.37,1.2,22,0.5,,,,,,,,,,,,,,,,,,0,25,25,21,1,,,,,,,,,,,,,,,,,,,,,,,
,,,,,WIN24_072,20,F,2024-02-23_15h32.15.500,jersey_experiment_5,2023.2.2,Win32,84.74576271,,,,,,,,,,,,,,,,929.5166,931.3167,931.3167,932.0224,return,0.18,,72.65625,,,,,,FBP-PT-71.png,0.43,1.2,49,1,,,,,,,,,,,,,,,,,,0,26,26,48,1,,,,,,,,,,,,,,,,,,,,,,,
,,,,,WIN24_072,20,F,2024-02-23_15h32.15.500,jersey_experiment_5,2023.2.2,Win32,84.74576271,,,,,,,,,,,,,,,,932.0228,933.8224,933.8225,934.3755,return,0.0961,,55.98958333,,,,,,FBP-OG-19.png,0.37,1.2,12,1,,,,,,,,,,,,,,,,,,0,27,27,11,1,,,,,,,,,,,,,,,,,,,,,,,
,,,,,WIN24_072,20,F,2024-02-23_15h32.15.500,jersey_experiment_5,2023.2.2,Win32,84.74576271,,,,,,,,,,,,,,,,934.3758,936.1753,936.1753,937.0342,return,0.162,,60.41666667,,,,,,FBP-PT-81.png,0.4,1.2,53,1,,,,,,,,,,,,,,,,,,0,28,28,52,1,,,,,,,,,,,,,,,,,,,,,,,
,,,,,WIN24_072,20,F,2024-02-23_15h32.15.500,jersey_experiment_5,2023.2.2,Win32,84.74576271,,,,,,,,,,,,,,,,937.0345,938.3284,938.3284,940.058,return,0.1652,,50.390625,,,,,,FBP-RB-71.png,0.4,1.2,18,0.5,,,,,,,,,,,,,,,,,,0,29,29,17,1,,,,,,,,,,,,,,,,,,,,,,,
,,,,,WIN24_072,20,F,2024-02-23_15h32.15.500,jersey_experiment_5,2023.2.2,Win32,84.74576271,,,,,,,,,,,,,,,,940.0584,941.352,941.352,942.0815,return,0.197,,50.390625,,,,,,FBP-YG-18.png,0.37,1.2,37,0.5,,,,,,,,,,,,,,,,,,0,30,30,36,1,,,,,,,,,,,,,,,,,,,,,,,
,,,,,WIN24_072,20,F,2024-02-23_15h32.15.500,jersey_experiment_5,2023.2.2,Win32,84.74576271,,,,,,,,,,,,,,,,942.0817,943.8816,943.8816,944.9993,return,0.6381,,65.625,,,,,,FBP-OG-18.png,0.43,1.2,9,1,,,,,,,,,,,,,,,,,,0,31,31,8,1,,,,,,,,,,,,,,,,,,,,,,,
,,,,,WIN24_072,20,F,2024-02-23_15h32.15.500,jersey_experiment_5,2023.2.2,Win32,84.74576271,,,,,,,,,,,,,,,,944.9996,946.2934,946.2934,948.3877,return,0.1472,,44.27083333,,,,,,FBP-RB-91.png,0.35,1.2,26,0.5,,,,,,,,,,,,,,,,,,0,32,32,25,1,,,,,,,,,,,,,,,,,,,,,,,
,,,,,WIN24_072,20,F,2024-02-23_15h32.15.500,jersey_experiment_5,2023.2.2,Win32,84.74576271,,,,,,,,,,,,,,,,948.3883,950.1879,950.188,950.729,return,0.1158,,69.140625,,,,,,FBP-PT-71.png,0.45,1.2,50,1,,,,,,,,,,,,,,,,,,0,33,33,49,1,,,,,,,,,,,,,,,,,,,,,,,
,,,,,WIN24_072,20,F,2024-02-23_15h32.15.500,jersey_experiment_5,2023.2.2,Win32,84.74576271,,,,,,,,,,,,,,,,950.7296,952.5291,952.5292,953.1054,return,0.1379,,63.15104167,,,,,,FBP-PT-81.png,0.35,1.2,51,1,,,,,,,,,,,,,,,,,,0,34,34,50,1,,,,,,,,,,,,,,,,,,,,,,,
,,,,,WIN24_072,20,F,2024-02-23_15h32.15.500,jersey_experiment_5,2023.2.2,Win32,84.74576271,,,,,,,,,,,,,,,,953.1057,954.3995,954.3995,956.188,return,0.7657,,52.86458333,,,,,,FBP-YG-19.png,0.37,1.2,42,0.5,,,,,,,,,,,,,,,,,,0,35,35,41,1,,,,,,,,,,,,,,,,,,,,,,,
,,,,,WIN24_072,20,F,2024-02-23_15h32.15.500,jersey_experiment_5,2023.2.2,Win32,84.74576271,,,,,,,,,,,,,,,,956.1885,957.4821,957.4821,958.2821,return,0.0614,,50,,,,,,FBP-YG-18.png,0.4,1.2,38,0.5,,,,,,,,,,,,,,,,,,0,36,36,37,1,,,,,,,,,,,,,,,,,,,,,,,
,,,,,WIN24_072,20,F,2024-02-23_15h32.15.500,jersey_experiment_5,2023.2.2,Win32,84.74576271,,,,,,,,,,,,,,,,958.2824,960.0821,960.0821,960.6585,return,0.1226,,45.44270833,,,,,,FBP-OG-17.png,0.37,1.2,2,1,,,,,,,,,,,,,,,,,,0,37,37,1,1,,,,,,,,,,,,,,,,,,,,,,,
,,,,,WIN24_072,20,F,2024-02-23_15h32.15.500,jersey_experiment_5,2023.2.2,Win32,84.74576271,,,,,,,,,,,,,,,,960.6588,961.9529,961.9529,964.8353,return,0.83,,66.14583333,,,,,,FBP-YG-18.png,0.43,1.2,39,0.5,,,,,,,,,,,,,,,,,,0,38,38,38,1,,,,,,,,,,,,,,,,,,,,,,,
,,,,,WIN24_072,20,F,2024-02-23_15h32.15.500,jersey_experiment_5,2023.2.2,Win32,84.74576271,,,,,,,,,,,,,,,,964.8356,966.1298,966.1299,966.6589,return,0.0895,,80.98958333,,,,,,FBP-RB-91.png,0.45,1.2,30,0.5,,,,,,,,,,,,,,,,,,0,39,39,29,1,,,,,,,,,,,,,,,,,,,,,,,
,,,,,WIN24_072,20,F,2024-02-23_15h32.15.500,jersey_experiment_5,2023.2.2,Win32,84.74576271,,,,,,,,,,,,,,,,966.6591,968.4589,968.4589,968.9883,return,0.1058,,83.59375,,,,,,FBP-PT-81.png,0.43,1.2,54,1,,,,,,,,,,,,,,,,,,0,40,40,53,1,,,,,,,,,,,,,,,,,,,,,,,
,,,,,WIN24_072,20,F,2024-02-23_15h32.15.500,jersey_experiment_5,2023.2.2,Win32,84.74576271,,,,,,,,,,,,,,,,968.9886,970.7886,970.7886,971.4002,return,0.1433,,75.26041667,,,,,,FBP-PT-71.png,0.4,1.2,48,1,,,,,,,,,,,,,,,,,,0,41,41,47,1,,,,,,,,,,,,,,,,,,,,,,,
,,,,,WIN24_072,20,F,2024-02-23_15h32.15.500,jersey_experiment_5,2023.2.2,Win32,84.74576271,,,,,,,,,,,,,,,,971.4006,973.2007,973.2008,973.9532,return,0.0913,,43.48958333,,,,,,FBP-PT-71.png,0.35,1.2,46,1,,,,,,,,,,,,,,,,,,0,42,42,45,1,,,,,,,,,,,,,,,,,,,,,,,
,,,,,WIN24_072,20,F,2024-02-23_15h32.15.500,jersey_experiment_5,2023.2.2,Win32,84.74576271,,,,,,,,,,,,,,,,973.9534,975.7534,975.7534,976.283,return,0.0599,,78.90625,,,,,,FBP-OG-18.png,0.45,1.2,10,1,,,,,,,,,,,,,,,,,,0,43,43,9,1,,,,,,,,,,,,,,,,,,,,,,,
,,,,,WIN24_072,20,F,2024-02-23_15h32.15.500,jersey_experiment_5,2023.2.2,Win32,84.74576271,,,,,,,,,,,,,,,,976.2835,977.5771,977.5772,978.2475,return,0.0734,,82.29166667,,,,,,FBP-YG-17.png,0.43,1.2,34,0.5,,,,,,,,,,,,,,,,,,0,44,44,33,1,,,,,,,,,,,,,,,,,,,,,,,
,,,,,WIN24_072,20,F,2024-02-23_15h32.15.500,jersey_experiment_5,2023.2.2,Win32,84.74576271,,,,,,,,,,,,,,,,978.2477,980.0475,980.0475,980.6593,return,0.0739,,75,,,,,,FBP-OG-17.png,0.4,1.2,3,1,,,,,,,,,,,,,,,,,,0,45,45,2,1,,,,,,,,,,,,,,,,,,,,,,,
,,,,,WIN24_072,20,F,2024-02-23_15h32.15.500,jersey_experiment_5,2023.2.2,Win32,84.74576271,,,,,,,,,,,,,,,,980.6596,981.9536,981.9536,982.5067,return,0.0712,,75,,,,,,FBP-RB-81.png,0.45,1.2,25,0.5,,,,,,,,,,,,,,,,,,0,46,46,24,1,,,,,,,,,,,,,,,,,,,,,,,
,,,,,WIN24_072,20,F,2024-02-23_15h32.15.500,jersey_experiment_5,2023.2.2,Win32,84.74576271,,,,,,,,,,,,,,,,982.5072,983.8007,983.8007,984.8243,return,0.062,,67.44791667,,,,,,FBP-RB-81.png,0.4,1.2,23,0.5,,,,,,,,,,,,,,,,,,0,47,47,22,1,,,,,,,,,,,,,,,,,,,,,,,
,,,,,WIN24_072,20,F,2024-02-23_15h32.15.500,jersey_experiment_5,2023.2.2,Win32,84.74576271,,,,,,,,,,,,,,,,984.8244,986.1184,986.1184,987.4362,return,0.3651,,52.99479167,,,,,,FBP-RB-91.png,0.37,1.2,27,0.5,,,,,,,,,,,,,,,,,,0,48,48,26,1,,,,,,,,,,,,,,,,,,,,,,,
,,,,,WIN24_072,20,F,2024-02-23_15h32.15.500,jersey_experiment_5,2023.2.2,Win32,84.74576271,,,,,,,,,,,,,,,,987.4365,988.7303,988.7303,989.6363,return,0.1467,,37.5,,,,,,FBP-YG-17.png,0.35,1.2,31,0.5,,,,,,,,,,,,,,,,,,0,49,49,30,1,,,,,,,,,,,,,,,,,,,,,,,
,,,,,WIN24_072,20,F,2024-02-23_15h32.15.500,jersey_experiment_5,2023.2.2,Win32,84.74576271,,,,,,,,,,,,,,,,989.6369,991.4363,991.4364,992.154,return,0.1275,,73.046875,,,,,,FBP-OG-19.png,0.45,1.2,15,1,,,,,,,,,,,,,,,,,,0,50,50,14,1,,,,,,,,,,,,,,,,,,,,,,,
,,,,,WIN24_072,20,F,2024-02-23_15h32.15.500,jersey_experiment_5,2023.2.2,Win32,84.74576271,,,,,,,,,,,,,,,,992.1542,993.4481,993.4481,994.0835,return,0.1003,,75,,,,,,FBP-YG-19.png,0.45,1.2,45,0.5,,,,,,,,,,,,,,,,,,0,51,51,44,1,,,,,,,,,,,,,,,,,,,,,,,
,,,,,WIN24_072,20,F,2024-02-23_15h32.15.500,jersey_experiment_5,2023.2.2,Win32,84.74576271,,,,,,,,,,,,,,,,994.084,995.8836,995.8836,996.3776,return,0.1299,,75,,,,,,FBP-OG-17.png,0.43,1.2,4,1,,,,,,,,,,,,,,,,,,0,52,52,3,1,,,,,,,,,,,,,,,,,,,,,,,
,,,,,WIN24_072,20,F,2024-02-23_15h32.15.500,jersey_experiment_5,2023.2.2,Win32,84.74576271,,,,,,,,,,,,,,,,996.378,997.6718,997.6718,1000.6013,return,0.527,,50.26041667,,,,,,FBP-YG-19.png,0.35,1.2,41,0.5,,,,,,,,,,,,,,,,,,0,53,53,40,1,,,,,,,,,,,,,,,,,,,,,,,
,,,,,WIN24_072,20,F,2024-02-23_15h32.15.500,jersey_experiment_5,2023.2.2,Win32,84.74576271,,,,,,,,,,,,,,,,1000.6015,1002.4015,1002.4015,1002.9543,return,0.0562,,81.640625,,,,,,FBP-PT-91.png,0.45,1.2,60,1,,,,,,,,,,,,,,,,,,0,54,54,59,1,,,,,,,,,,,,,,,,,,,,,,,
,,,,,WIN24_072,20,F,2024-02-23_15h32.15.500,jersey_experiment_5,2023.2.2,Win32,84.74576271,,,,,,,,,,,,,,,,1002.9546,1004.2485,1004.2486,1005.2366,return,0.17,,35.28645833,,,,,,FBP-RB-71.png,0.35,1.2,16,0.5,,,,,,,,,,,,,,,,,,0,55,55,15,1,,,,,,,,,,,,,,,,,,,,,,,
,,,,,WIN24_072,20,F,2024-02-23_15h32.15.500,jersey_experiment_5,2023.2.2,Win32,84.74576271,,,,,,,,,,,,,,,,1005.2369,1007.0371,1007.0371,1007.6018,return,0.1733,,26.30208333,,,,,,FBP-OG-18.png,0.35,1.2,6,1,,,,,,,,,,,,,,,,,,0,56,56,5,1,,,,,,,,,,,,,,,,,,,,,,,
,,,,,WIN24_072,20,F,2024-02-23_15h32.15.500,jersey_experiment_5,2023.2.2,Win32,84.74576271,,,,,,,,,,,,,,,,1007.6021,1008.8957,1008.8957,1009.8605,return,0.2179,,59.50520833,,,,,,FBP-YG-19.png,0.43,1.2,44,0.5,,,,,,,,,,,,,,,,,,0,57,57,43,1,,,,,,,,,,,,,,,,,,,,,,,
,,,,,WIN24_072,20,F,2024-02-23_15h32.15.500,jersey_experiment_5,2023.2.2,Win32,84.74576271,,,,,,,,,,,,,,,,1009.8609,1011.6605,1011.6605,1012.5548,return,0.1179,,45.05208333,,,,,,FBP-OG-18.png,0.37,1.2,7,1,,,,,,,,,,,,,,,,,,0,58,58,6,1,,,,,,,,,,,,,,,,,,,,,,,
,,,,,WIN24_072,20,F,2024-02-23_15h32.15.500,jersey_experiment_5,2023.2.2,Win32,84.74576271,,,,,,,,,,,,,,,,1012.555,1013.8489,1013.849,1014.4254,return,0.1087,,38.80208333,,,,,,FBP-YG-17.png,0.37,1.2,32,0.5,,,,,,,,,,,,,,,,,,0,59,59,31,1,,,,,,,,,,,,,,,,,,,,,,,
,,,,,WIN24_072,20,F,2024-02-23_15h32.15.500,jersey_experiment_5,2023.2.2,Win32,84.74576271,,,,,,,,,,,,,,,,,,,,,,,,,,,,,,,,,,,,,,,,,,,,,,,,,,,,,,,,1014.4258,1020.2143,return,5.78,,,,,,,,,,,,,,,,,,,
,,,,,WIN24_072,20,F,2024-02-23_15h32.15.500,jersey_experiment_5,2023.2.2,Win32,84.74576271,,,,,,,,,,,,,,,,,,,,,,,,,,,,,,,,,,,,,,,,,,,,,,,,,,,,,,,,,,,,,1020.2144,1038.05,1,16.4834,return,1.336,,,,,,,,,,,,
,,,,,WIN24_072,20,F,2024-02-23_15h32.15.500,jersey_experiment_5,2023.2.2,Win32,84.74576271,,,,,,,,,,,,,,,,,,,,,,,,,,,,,,,,,,,,,,,,,,,,,,,,,,,,,,,,,,,,,,,,,,,,1038.0501,1096.4001,How color relates to the size judgement?,right,53.2369,,,,,,
,,,,,WIN24_072,20,F,2024-02-23_15h32.15.500,jersey_experiment_5,2023.2.2,Win32,84.74576271,,,,,,,,,,,,,,,,,,,,,,,,,,,,,,,,,,,,,,,,,,,,,,,,,,,,,,,,,,,,,,,,,,,,,,,,,,1096.4003,1101.7818,return,5.3723,