requirements.started,requirements.stopped,key_resp_3.keys,key_resp_3.rt,key_resp_3.duration,Subject ID,Age,Gender,date,expName,psychopyVersion,OS,frameRate,instructions1.started,instructions1.stopped,key_resp.keys,key_resp.rt,key_resp.duration,example.started,example.stopped,enter_2.keys,enter_2.rt,enter_2.duration,instructions2.started,instructions2.stopped,enter_3.keys,enter_3.rt,enter_3.duration,image.started,image.stopped,slider_2.started,slider_2.stopped,next.keys,next.rt,next.duration,slider.response,trial_block_1.thisRepN,trial_block_1.thisTrialN,trial_block_1.thisN,trial_block_1.thisIndex,trial_block_1.ran,Path,Width,Height,Index,Duration,trial_block_2.thisRepN,trial_block_2.thisTrialN,trial_block_2.thisN,trial_block_2.thisIndex,trial_block_2.ran,rest_break.started,rest_break.stopped,end_break.started,end_break.stopped,key_resp_5.keys,key_resp_5.rt,key_resp_5.duration,trial_block_3.thisRepN,trial_block_3.thisTrialN,trial_block_3.thisN,trial_block_3.thisIndex,trial_block_3.ran,trial_block_4.thisRepN,trial_block_4.thisTrialN,trial_block_4.thisN,trial_block_4.thisIndex,trial_block_4.ran,questions_intro.started,questions_intro.stopped,enter_12.keys,enter_12.rt,enter_12.duration,question2.started,question2.stopped,question_doingbest.response,question_doingbest.rt,enter_15.keys,enter_15.rt,enter_15.duration,pattern.started,pattern.stopped,pattern_2.text,enter_17.keys,enter_17.rt,enter_17.duration,thankyou.started,thankyou.stopped,enter_14.keys,enter_14.rt,enter_14.duration
0.0002,8.8427,return,8.8385,,WIN24_008,19,Male ,2024-01-26_15h28.05.301,jersey_experiment_5,2023.2.2,Win32,85.47008547,,,,,,,,,,,,,,,,,,,,,,,,,,,,,,,,,,,,,,,,,,,,,,,,,,,,,,,,,,,,,,,,,,,,,,,,,,,,,,
,,,,,WIN24_008,19,Male ,2024-01-26_15h28.05.301,jersey_experiment_5,2023.2.2,Win32,85.47008547,8.8429,16.7785,return,7.9292,,,,,,,,,,,,,,,,,,,,,,,,,,,,,,,,,,,,,,,,,,,,,,,,,,,,,,,,,,,,,,,,,,,,,,,,,,
,,,,,WIN24_008,19,Male ,2024-01-26_15h28.05.301,jersey_experiment_5,2023.2.2,Win32,85.47008547,,,,,,16.7786,19.3803,return,2.5726,,,,,,,,,,,,,,,,,,,,,,,,,,,,,,,,,,,,,,,,,,,,,,,,,,,,,,,,,,,,,,,,,,,,,
,,,,,WIN24_008,19,Male ,2024-01-26_15h28.05.301,jersey_experiment_5,2023.2.2,Win32,85.47008547,,,,,,,,,,,19.3803,38.9459,return,19.5539,,,,,,,,,,,,,,,,,,,,,,,,,,,,,,,,,,,,,,,,,,,,,,,,,,,,,,,,,,,,,,,,
,,,,,WIN24_008,19,Male ,2024-01-26_15h28.05.301,jersey_experiment_5,2023.2.2,Win32,85.47008547,,,,,,,,,,,,,,,,38.9532,40.7456,40.7457,56.1305,return,5.4105,,75.390625,0,0,0,19,1,FBP-RB-17.png,0.45,1.2,20,1,,,,,,,,,,,,,,,,,,,,,,,,,,,,,,,,,,,,,,,,,,,,,
,,,,,WIN24_008,19,Male ,2024-01-26_15h28.05.301,jersey_experiment_5,2023.2.2,Win32,85.47008547,,,,,,,,,,,,,,,,56.1346,57.9302,57.9303,63.2482,return,2.7063,,74.609375,0,1,1,27,1,FBP-RB-19.png,0.4,1.2,28,1,,,,,,,,,,,,,,,,,,,,,,,,,,,,,,,,,,,,,,,,,,,,,
,,,,,WIN24_008,19,Male ,2024-01-26_15h28.05.301,jersey_experiment_5,2023.2.2,Win32,85.47008547,,,,,,,,,,,,,,,,63.2483,65.0482,65.0483,67.1689,return,0.4343,,68.75,0,2,2,17,1,FBP-RB-17.png,0.4,1.2,18,1,,,,,,,,,,,,,,,,,,,,,,,,,,,,,,,,,,,,,,,,,,,,,
,,,,,WIN24_008,19,Male ,2024-01-26_15h28.05.301,jersey_experiment_5,2023.2.2,Win32,85.47008547,,,,,,,,,,,,,,,,67.169,68.4744,68.4744,69.8533,return,0.26,,78.25520833,0,3,3,4,1,FBP-OG-71.png,0.45,1.2,5,0.5,,,,,,,,,,,,,,,,,,,,,,,,,,,,,,,,,,,,,,,,,,,,,
,,,,,WIN24_008,19,Male ,2024-01-26_15h28.05.301,jersey_experiment_5,2023.2.2,Win32,85.47008547,,,,,,,,,,,,,,,,69.8535,71.6483,71.6483,73.3347,return,0.3781,,66.66666667,0,4,4,15,1,FBP-RB-17.png,0.35,1.2,16,1,,,,,,,,,,,,,,,,,,,,,,,,,,,,,,,,,,,,,,,,,,,,,
,,,,,WIN24_008,19,Male ,2024-01-26_15h28.05.301,jersey_experiment_5,2023.2.2,Win32,85.47008547,,,,,,,,,,,,,,,,73.3349,74.6367,74.6368,77.6133,return,0.5893,,66.92708333,0,5,5,0,1,FBP-OG-71.png,0.35,1.2,1,0.5,,,,,,,,,,,,,,,,,,,,,,,,,,,,,,,,,,,,,,,,,,,,,
,,,,,WIN24_008,19,Male ,2024-01-26_15h28.05.301,jersey_experiment_5,2023.2.2,Win32,85.47008547,,,,,,,,,,,,,,,,77.6134,78.9074,78.9075,81.0749,return,0.7649,,77.21354167,0,6,6,58,1,FBP-PT-19.png,0.43,1.2,59,0.5,,,,,,,,,,,,,,,,,,,,,,,,,,,,,,,,,,,,,,,,,,,,,
,,,,,WIN24_008,19,Male ,2024-01-26_15h28.05.301,jersey_experiment_5,2023.2.2,Win32,85.47008547,,,,,,,,,,,,,,,,81.0751,82.3663,82.3663,85.9665,return,1.283,,56.51041667,0,7,7,45,1,FBP-PT-17.png,0.35,1.2,46,0.5,,,,,,,,,,,,,,,,,,,,,,,,,,,,,,,,,,,,,,,,,,,,,
,,,,,WIN24_008,19,Male ,2024-01-26_15h28.05.301,jersey_experiment_5,2023.2.2,Win32,85.47008547,,,,,,,,,,,,,,,,85.9666,87.7667,87.7667,89.947,return,0.9414,,56.25,0,8,8,25,1,FBP-RB-19.png,0.35,1.2,26,1,,,,,,,,,,,,,,,,,,,,,,,,,,,,,,,,,,,,,,,,,,,,,
,,,,,WIN24_008,19,Male ,2024-01-26_15h28.05.301,jersey_experiment_5,2023.2.2,Win32,85.47008547,,,,,,,,,,,,,,,,89.9472,91.2492,91.2492,93.4992,return,0.3063,,62.36979167,0,9,9,47,1,FBP-PT-17.png,0.4,1.2,48,0.5,,,,,,,,,,,,,,,,,,,,,,,,,,,,,,,,,,,,,,,,,,,,,
,,,,,WIN24_008,19,Male ,2024-01-26_15h28.05.301,jersey_experiment_5,2023.2.2,Win32,85.47008547,,,,,,,,,,,,,,,,93.4994,95.2989,95.299,97.3357,return,0.6824,,65.10416667,0,10,10,36,1,FBP-YG-81.png,0.37,1.2,37,1,,,,,,,,,,,,,,,,,,,,,,,,,,,,,,,,,,,,,,,,,,,,,
,,,,,WIN24_008,19,Male ,2024-01-26_15h28.05.301,jersey_experiment_5,2023.2.2,Win32,85.47008547,,,,,,,,,,,,,,,,97.3359,98.6281,98.6282,100.1552,return,0.3215,,59.375,0,11,11,56,1,FBP-PT-19.png,0.37,1.2,57,0.5,,,,,,,,,,,,,,,,,,,,,,,,,,,,,,,,,,,,,,,,,,,,,
,,,,,WIN24_008,19,Male ,2024-01-26_15h28.05.301,jersey_experiment_5,2023.2.2,Win32,85.47008547,,,,,,,,,,,,,,,,100.1554,101.4493,101.4494,102.9083,return,0.2514,,59.765625,0,12,12,57,1,FBP-PT-19.png,0.4,1.2,58,0.5,,,,,,,,,,,,,,,,,,,,,,,,,,,,,,,,,,,,,,,,,,,,,
,,,,,WIN24_008,19,Male ,2024-01-26_15h28.05.301,jersey_experiment_5,2023.2.2,Win32,85.47008547,,,,,,,,,,,,,,,,102.9084,104.7013,104.7013,106.6849,return,0.6631,,59.765625,0,13,13,22,1,FBP-RB-18.png,0.4,1.2,23,1,,,,,,,,,,,,,,,,,,,,,,,,,,,,,,,,,,,,,,,,,,,,,
,,,,,WIN24_008,19,Male ,2024-01-26_15h28.05.301,jersey_experiment_5,2023.2.2,Win32,85.47008547,,,,,,,,,,,,,,,,106.6851,107.9791,107.9791,109.7908,return,0.4493,,63.41145833,0,14,14,53,1,FBP-PT-18.png,0.43,1.2,54,0.5,,,,,,,,,,,,,,,,,,,,,,,,,,,,,,,,,,,,,,,,,,,,,
,,,,,WIN24_008,19,Male ,2024-01-26_15h28.05.301,jersey_experiment_5,2023.2.2,Win32,85.47008547,,,,,,,,,,,,,,,,109.7909,111.5948,111.5949,113.1792,return,0.2965,,58.59375,0,15,15,40,1,FBP-YG-91.png,0.35,1.2,41,1,,,,,,,,,,,,,,,,,,,,,,,,,,,,,,,,,,,,,,,,,,,,,
,,,,,WIN24_008,19,Male ,2024-01-26_15h28.05.301,jersey_experiment_5,2023.2.2,Win32,85.47008547,,,,,,,,,,,,,,,,113.1794,114.4734,114.4734,116.0643,return,0.1627,,73.95833333,0,16,16,59,1,FBP-PT-19.png,0.45,1.2,60,0.5,,,,,,,,,,,,,,,,,,,,,,,,,,,,,,,,,,,,,,,,,,,,,
,,,,,WIN24_008,19,Male ,2024-01-26_15h28.05.301,jersey_experiment_5,2023.2.2,Win32,85.47008547,,,,,,,,,,,,,,,,116.0645,117.8618,117.8618,120.556,return,1.4368,,76.43229167,0,17,17,39,1,FBP-YG-81.png,0.45,1.2,40,1,,,,,,,,,,,,,,,,,,,,,,,,,,,,,,,,,,,,,,,,,,,,,
,,,,,WIN24_008,19,Male ,2024-01-26_15h28.05.301,jersey_experiment_5,2023.2.2,Win32,85.47008547,,,,,,,,,,,,,,,,120.5561,122.3599,122.36,123.9,return,0.6703,,76.953125,0,18,18,23,1,FBP-RB-18.png,0.43,1.2,24,1,,,,,,,,,,,,,,,,,,,,,,,,,,,,,,,,,,,,,,,,,,,,,
,,,,,WIN24_008,19,Male ,2024-01-26_15h28.05.301,jersey_experiment_5,2023.2.2,Win32,85.47008547,,,,,,,,,,,,,,,,123.9002,125.2032,125.2032,127.4386,return,0.9409,,75.91145833,0,19,19,49,1,FBP-PT-17.png,0.45,1.2,50,0.5,,,,,,,,,,,,,,,,,,,,,,,,,,,,,,,,,,,,,,,,,,,,,
,,,,,WIN24_008,19,Male ,2024-01-26_15h28.05.301,jersey_experiment_5,2023.2.2,Win32,85.47008547,,,,,,,,,,,,,,,,127.4387,129.2387,129.2387,132.1917,return,0.8583,,67.1875,0,20,20,41,1,FBP-YG-91.png,0.37,1.2,42,1,,,,,,,,,,,,,,,,,,,,,,,,,,,,,,,,,,,,,,,,,,,,,
,,,,,WIN24_008,19,Male ,2024-01-26_15h28.05.301,jersey_experiment_5,2023.2.2,Win32,85.47008547,,,,,,,,,,,,,,,,132.1919,133.4859,133.4859,136.3801,return,1.2391,,75.26041667,0,21,21,8,1,FBP-OG-81.png,0.43,1.2,9,0.5,,,,,,,,,,,,,,,,,,,,,,,,,,,,,,,,,,,,,,,,,,,,,
,,,,,WIN24_008,19,Male ,2024-01-26_15h28.05.301,jersey_experiment_5,2023.2.2,Win32,85.47008547,,,,,,,,,,,,,,,,136.3803,138.1802,138.1802,139.6743,return,0.8395,,73.30729167,0,22,22,18,1,FBP-RB-17.png,0.43,1.2,19,1,,,,,,,,,,,,,,,,,,,,,,,,,,,,,,,,,,,,,,,,,,,,,
,,,,,WIN24_008,19,Male ,2024-01-26_15h28.05.301,jersey_experiment_5,2023.2.2,Win32,85.47008547,,,,,,,,,,,,,,,,139.6744,141.4744,141.4744,143.8092,return,0.8265,,66.40625,0,23,23,42,1,FBP-YG-91.png,0.4,1.2,43,1,,,,,,,,,,,,,,,,,,,,,,,,,,,,,,,,,,,,,,,,,,,,,
,,,,,WIN24_008,19,Male ,2024-01-26_15h28.05.301,jersey_experiment_5,2023.2.2,Win32,85.47008547,,,,,,,,,,,,,,,,143.8094,145.1097,145.1098,147.5217,return,1.2973,,69.53125,0,24,24,48,1,FBP-PT-17.png,0.43,1.2,49,0.5,,,,,,,,,,,,,,,,,,,,,,,,,,,,,,,,,,,,,,,,,,,,,
,,,,,WIN24_008,19,Male ,2024-01-26_15h28.05.301,jersey_experiment_5,2023.2.2,Win32,85.47008547,,,,,,,,,,,,,,,,147.5219,148.8195,148.8195,151.3714,return,1.6357,,66.40625,0,25,25,13,1,FBP-OG-91.png,0.43,1.2,14,0.5,,,,,,,,,,,,,,,,,,,,,,,,,,,,,,,,,,,,,,,,,,,,,
,,,,,WIN24_008,19,Male ,2024-01-26_15h28.05.301,jersey_experiment_5,2023.2.2,Win32,85.47008547,,,,,,,,,,,,,,,,151.3715,153.1689,153.169,154.8632,return,0.8929,,63.41145833,0,26,26,28,1,FBP-RB-19.png,0.43,1.2,29,1,,,,,,,,,,,,,,,,,,,,,,,,,,,,,,,,,,,,,,,,,,,,,
,,,,,WIN24_008,19,Male ,2024-01-26_15h28.05.301,jersey_experiment_5,2023.2.2,Win32,85.47008547,,,,,,,,,,,,,,,,154.8633,156.6632,156.6633,159.3262,return,1.8683,,74.609375,0,27,27,34,1,FBP-YG-71.png,0.45,1.2,35,1,,,,,,,,,,,,,,,,,,,,,,,,,,,,,,,,,,,,,,,,,,,,,
,,,,,WIN24_008,19,Male ,2024-01-26_15h28.05.301,jersey_experiment_5,2023.2.2,Win32,85.47008547,,,,,,,,,,,,,,,,159.3264,161.1223,161.1223,162.7145,return,0.9062,,73.4375,0,28,28,44,1,FBP-YG-91.png,0.45,1.2,45,1,,,,,,,,,,,,,,,,,,,,,,,,,,,,,,,,,,,,,,,,,,,,,
,,,,,WIN24_008,19,Male ,2024-01-26_15h28.05.301,jersey_experiment_5,2023.2.2,Win32,85.47008547,,,,,,,,,,,,,,,,162.7146,164.0205,164.0205,166.793,return,1.3575,,41.015625,0,29,29,50,1,FBP-PT-18.png,0.35,1.2,51,0.5,,,,,,,,,,,,,,,,,,,,,,,,,,,,,,,,,,,,,,,,,,,,,
,,,,,WIN24_008,19,Male ,2024-01-26_15h28.05.301,jersey_experiment_5,2023.2.2,Win32,85.47008547,,,,,,,,,,,,,,,,166.7932,168.5931,168.5931,170.1742,return,0.6698,,71.22395833,0,30,30,24,1,FBP-RB-18.png,0.45,1.2,25,1,,,,,,,,,,,,,,,,,,,,,,,,,,,,,,,,,,,,,,,,,,,,,
,,,,,WIN24_008,19,Male ,2024-01-26_15h28.05.301,jersey_experiment_5,2023.2.2,Win32,85.47008547,,,,,,,,,,,,,,,,170.1744,171.9661,171.9661,173.9141,return,0.9186,,73.56770833,0,31,31,33,1,FBP-YG-71.png,0.43,1.2,34,1,,,,,,,,,,,,,,,,,,,,,,,,,,,,,,,,,,,,,,,,,,,,,
,,,,,WIN24_008,19,Male ,2024-01-26_15h28.05.301,jersey_experiment_5,2023.2.2,Win32,85.47008547,,,,,,,,,,,,,,,,173.9142,175.2092,175.2092,176.9698,return,0.5587,,42.83854167,0,32,32,10,1,FBP-OG-91.png,0.35,1.2,11,0.5,,,,,,,,,,,,,,,,,,,,,,,,,,,,,,,,,,,,,,,,,,,,,
,,,,,WIN24_008,19,Male ,2024-01-26_15h28.05.301,jersey_experiment_5,2023.2.2,Win32,85.47008547,,,,,,,,,,,,,,,,176.97,178.7699,178.7699,179.7639,return,0.1664,,76.953125,0,33,33,29,1,FBP-RB-19.png,0.45,1.2,30,1,,,,,,,,,,,,,,,,,,,,,,,,,,,,,,,,,,,,,,,,,,,,,
,,,,,WIN24_008,19,Male ,2024-01-26_15h28.05.301,jersey_experiment_5,2023.2.2,Win32,85.47008547,,,,,,,,,,,,,,,,179.7641,181.0664,181.0665,182.0287,return,0.2263,,24.21875,0,34,34,55,1,FBP-PT-19.png,0.35,1.2,56,0.5,,,,,,,,,,,,,,,,,,,,,,,,,,,,,,,,,,,,,,,,,,,,,
,,,,,WIN24_008,19,Male ,2024-01-26_15h28.05.301,jersey_experiment_5,2023.2.2,Win32,85.47008547,,,,,,,,,,,,,,,,182.0289,183.8323,183.8324,184.7269,return,0.2131,,25.91145833,0,35,35,26,1,FBP-RB-19.png,0.37,1.2,27,1,,,,,,,,,,,,,,,,,,,,,,,,,,,,,,,,,,,,,,,,,,,,,
,,,,,WIN24_008,19,Male ,2024-01-26_15h28.05.301,jersey_experiment_5,2023.2.2,Win32,85.47008547,,,,,,,,,,,,,,,,184.727,186.0329,186.0329,187.0451,return,0.2477,,51.5625,0,36,36,2,1,FBP-OG-71.png,0.4,1.2,3,0.5,,,,,,,,,,,,,,,,,,,,,,,,,,,,,,,,,,,,,,,,,,,,,
,,,,,WIN24_008,19,Male ,2024-01-26_15h28.05.301,jersey_experiment_5,2023.2.2,Win32,85.47008547,,,,,,,,,,,,,,,,187.0452,188.8456,188.8456,189.5288,return,0.1678,,50.65104167,0,37,37,31,1,FBP-YG-71.png,0.37,1.2,32,1,,,,,,,,,,,,,,,,,,,,,,,,,,,,,,,,,,,,,,,,,,,,,
,,,,,WIN24_008,19,Male ,2024-01-26_15h28.05.301,jersey_experiment_5,2023.2.2,Win32,85.47008547,,,,,,,,,,,,,,,,189.529,190.8291,190.8291,191.9377,return,0.0925,,74.34895833,0,38,38,14,1,FBP-OG-91.png,0.45,1.2,15,0.5,,,,,,,,,,,,,,,,,,,,,,,,,,,,,,,,,,,,,,,,,,,,,
,,,,,WIN24_008,19,Male ,2024-01-26_15h28.05.301,jersey_experiment_5,2023.2.2,Win32,85.47008547,,,,,,,,,,,,,,,,191.9379,193.7352,193.7352,196.4411,return,1.8417,,39.32291667,0,39,39,35,1,FBP-YG-81.png,0.35,1.2,36,1,,,,,,,,,,,,,,,,,,,,,,,,,,,,,,,,,,,,,,,,,,,,,
,,,,,WIN24_008,19,Male ,2024-01-26_15h28.05.301,jersey_experiment_5,2023.2.2,Win32,85.47008547,,,,,,,,,,,,,,,,196.4412,197.7389,197.7389,199.2177,return,0.6955,,75.65104167,0,40,40,54,1,FBP-PT-18.png,0.45,1.2,55,0.5,,,,,,,,,,,,,,,,,,,,,,,,,,,,,,,,,,,,,,,,,,,,,
,,,,,WIN24_008,19,Male ,2024-01-26_15h28.05.301,jersey_experiment_5,2023.2.2,Win32,85.47008547,,,,,,,,,,,,,,,,199.2179,200.5142,200.5142,202.0294,return,0.6963,,50.390625,0,41,41,46,1,FBP-PT-17.png,0.37,1.2,47,0.5,,,,,,,,,,,,,,,,,,,,,,,,,,,,,,,,,,,,,,,,,,,,,
,,,,,WIN24_008,19,Male ,2024-01-26_15h28.05.301,jersey_experiment_5,2023.2.2,Win32,85.47008547,,,,,,,,,,,,,,,,202.0297,203.8333,203.8333,205.0531,return,0.3556,,50.65104167,0,42,42,21,1,FBP-RB-18.png,0.37,1.2,22,1,,,,,,,,,,,,,,,,,,,,,,,,,,,,,,,,,,,,,,,,,,,,,
,,,,,WIN24_008,19,Male ,2024-01-26_15h28.05.301,jersey_experiment_5,2023.2.2,Win32,85.47008547,,,,,,,,,,,,,,,,205.0532,206.8473,206.8474,208.1397,return,0.1776,,49.86979167,0,43,43,16,1,FBP-RB-17.png,0.37,1.2,17,1,,,,,,,,,,,,,,,,,,,,,,,,,,,,,,,,,,,,,,,,,,,,,
,,,,,WIN24_008,19,Male ,2024-01-26_15h28.05.301,jersey_experiment_5,2023.2.2,Win32,85.47008547,,,,,,,,,,,,,,,,208.1398,209.4416,209.4416,210.293,return,0.2256,,50.13020833,0,44,44,11,1,FBP-OG-91.png,0.37,1.2,12,0.5,,,,,,,,,,,,,,,,,,,,,,,,,,,,,,,,,,,,,,,,,,,,,
,,,,,WIN24_008,19,Male ,2024-01-26_15h28.05.301,jersey_experiment_5,2023.2.2,Win32,85.47008547,,,,,,,,,,,,,,,,210.2932,211.5946,211.5946,213.5712,return,0.9767,,65.75520833,0,45,45,12,1,FBP-OG-91.png,0.4,1.2,13,0.5,,,,,,,,,,,,,,,,,,,,,,,,,,,,,,,,,,,,,,,,,,,,,
,,,,,WIN24_008,19,Male ,2024-01-26_15h28.05.301,jersey_experiment_5,2023.2.2,Win32,85.47008547,,,,,,,,,,,,,,,,213.5714,214.8653,214.8653,215.6822,return,0.1912,,61.71875,0,46,46,52,1,FBP-PT-18.png,0.4,1.2,53,0.5,,,,,,,,,,,,,,,,,,,,,,,,,,,,,,,,,,,,,,,,,,,,,
,,,,,WIN24_008,19,Male ,2024-01-26_15h28.05.301,jersey_experiment_5,2023.2.2,Win32,85.47008547,,,,,,,,,,,,,,,,215.6823,217.4824,217.4824,219.6111,return,1.318,,27.34375,0,47,47,30,1,FBP-YG-71.png,0.35,1.2,31,1,,,,,,,,,,,,,,,,,,,,,,,,,,,,,,,,,,,,,,,,,,,,,
,,,,,WIN24_008,19,Male ,2024-01-26_15h28.05.301,jersey_experiment_5,2023.2.2,Win32,85.47008547,,,,,,,,,,,,,,,,219.6112,220.9166,220.9167,221.8067,return,0.1795,,38.41145833,0,48,48,51,1,FBP-PT-18.png,0.37,1.2,52,0.5,,,,,,,,,,,,,,,,,,,,,,,,,,,,,,,,,,,,,,,,,,,,,
,,,,,WIN24_008,19,Male ,2024-01-26_15h28.05.301,jersey_experiment_5,2023.2.2,Win32,85.47008547,,,,,,,,,,,,,,,,221.807,223.1008,223.1008,223.9511,return,0.1285,,75.26041667,0,49,49,3,1,FBP-OG-71.png,0.43,1.2,4,0.5,,,,,,,,,,,,,,,,,,,,,,,,,,,,,,,,,,,,,,,,,,,,,
,,,,,WIN24_008,19,Male ,2024-01-26_15h28.05.301,jersey_experiment_5,2023.2.2,Win32,85.47008547,,,,,,,,,,,,,,,,223.9513,225.7481,225.7481,226.8658,return,0.2591,,39.32291667,0,50,50,20,1,FBP-RB-18.png,0.35,1.2,21,1,,,,,,,,,,,,,,,,,,,,,,,,,,,,,,,,,,,,,,,,,,,,,
,,,,,WIN24_008,19,Male ,2024-01-26_15h28.05.301,jersey_experiment_5,2023.2.2,Win32,85.47008547,,,,,,,,,,,,,,,,226.866,228.67,228.67,229.8658,return,0.38,,61.328125,0,51,51,32,1,FBP-YG-71.png,0.4,1.2,33,1,,,,,,,,,,,,,,,,,,,,,,,,,,,,,,,,,,,,,,,,,,,,,
,,,,,WIN24_008,19,Male ,2024-01-26_15h28.05.301,jersey_experiment_5,2023.2.2,Win32,85.47008547,,,,,,,,,,,,,,,,229.866,231.16,231.1601,235.1836,return,0.8244,,49.73958333,0,52,52,1,1,FBP-OG-71.png,0.37,1.2,2,0.5,,,,,,,,,,,,,,,,,,,,,,,,,,,,,,,,,,,,,,,,,,,,,
,,,,,WIN24_008,19,Male ,2024-01-26_15h28.05.301,jersey_experiment_5,2023.2.2,Win32,85.47008547,,,,,,,,,,,,,,,,235.1837,236.9766,236.9766,237.8012,return,0.2487,,75.26041667,0,53,53,43,1,FBP-YG-91.png,0.43,1.2,44,1,,,,,,,,,,,,,,,,,,,,,,,,,,,,,,,,,,,,,,,,,,,,,
,,,,,WIN24_008,19,Male ,2024-01-26_15h28.05.301,jersey_experiment_5,2023.2.2,Win32,85.47008547,,,,,,,,,,,,,,,,237.8013,239.6015,239.6015,240.1859,return,0.1023,,76.5625,0,54,54,38,1,FBP-YG-81.png,0.43,1.2,39,1,,,,,,,,,,,,,,,,,,,,,,,,,,,,,,,,,,,,,,,,,,,,,
,,,,,WIN24_008,19,Male ,2024-01-26_15h28.05.301,jersey_experiment_5,2023.2.2,Win32,85.47008547,,,,,,,,,,,,,,,,240.186,241.984,241.984,242.8477,return,0.1323,,75.78125,0,55,55,37,1,FBP-YG-81.png,0.4,1.2,38,1,,,,,,,,,,,,,,,,,,,,,,,,,,,,,,,,,,,,,,,,,,,,,
,,,,,WIN24_008,19,Male ,2024-01-26_15h28.05.301,jersey_experiment_5,2023.2.2,Win32,85.47008547,,,,,,,,,,,,,,,,242.8479,244.1487,244.1487,245.2899,return,0.2303,,77.21354167,0,56,56,9,1,FBP-OG-81.png,0.45,1.2,10,0.5,,,,,,,,,,,,,,,,,,,,,,,,,,,,,,,,,,,,,,,,,,,,,
,,,,,WIN24_008,19,Male ,2024-01-26_15h28.05.301,jersey_experiment_5,2023.2.2,Win32,85.47008547,,,,,,,,,,,,,,,,245.2901,246.5841,246.5841,247.596,return,0.334,,51.04166667,0,57,57,7,1,FBP-OG-81.png,0.4,1.2,8,0.5,,,,,,,,,,,,,,,,,,,,,,,,,,,,,,,,,,,,,,,,,,,,,
,,,,,WIN24_008,19,Male ,2024-01-26_15h28.05.301,jersey_experiment_5,2023.2.2,Win32,85.47008547,,,,,,,,,,,,,,,,247.596,248.8899,248.89,249.9762,return,0.3287,,49.73958333,0,58,58,6,1,FBP-OG-81.png,0.37,1.2,7,0.5,,,,,,,,,,,,,,,,,,,,,,,,,,,,,,,,,,,,,,,,,,,,,
,,,,,WIN24_008,19,Male ,2024-01-26_15h28.05.301,jersey_experiment_5,2023.2.2,Win32,85.47008547,,,,,,,,,,,,,,,,249.9764,251.2822,251.2822,252.2715,return,0.1524,,48.828125,0,59,59,5,1,FBP-OG-81.png,0.35,1.2,6,0.5,,,,,,,,,,,,,,,,,,,,,,,,,,,,,,,,,,,,,,,,,,,,,
,,,,,WIN24_008,19,Male ,2024-01-26_15h28.05.301,jersey_experiment_5,2023.2.2,Win32,85.47008547,,,,,,,,,,,,,,,,252.2735,253.5725,253.5725,255.3291,return,0.1049,,52.60416667,,,,,,FBP-OG-19.png,0.37,1.2,12,0.5,0,0,0,11,1,,,,,,,,,,,,,,,,,,,,,,,,,,,,,,,,,,,,,,,,
,,,,,WIN24_008,19,Male ,2024-01-26_15h28.05.301,jersey_experiment_5,2023.2.2,Win32,85.47008547,,,,,,,,,,,,,,,,255.3293,257.1257,257.1257,259.9405,return,2.0344,,56.51041667,,,,,,FBP-RB-71.png,0.37,1.2,17,1,0,1,1,16,1,,,,,,,,,,,,,,,,,,,,,,,,,,,,,,,,,,,,,,,,
,,,,,WIN24_008,19,Male ,2024-01-26_15h28.05.301,jersey_experiment_5,2023.2.2,Win32,85.47008547,,,,,,,,,,,,,,,,259.9407,261.7423,261.7423,262.378,return,0.0963,,76.30208333,,,,,,FBP-RB-81.png,0.45,1.2,25,1,0,2,2,24,1,,,,,,,,,,,,,,,,,,,,,,,,,,,,,,,,,,,,,,,,
,,,,,WIN24_008,19,Male ,2024-01-26_15h28.05.301,jersey_experiment_5,2023.2.2,Win32,85.47008547,,,,,,,,,,,,,,,,262.3781,264.1731,264.1732,265.9308,return,0.9911,,75.78125,,,,,,FBP-RB-71.png,0.43,1.2,19,1,0,3,3,18,1,,,,,,,,,,,,,,,,,,,,,,,,,,,,,,,,,,,,,,,,
,,,,,WIN24_008,19,Male ,2024-01-26_15h28.05.301,jersey_experiment_5,2023.2.2,Win32,85.47008547,,,,,,,,,,,,,,,,265.931,267.2319,267.232,268.0132,return,0.0846,,77.734375,,,,,,FBP-PT-71.png,0.43,1.2,49,0.5,0,4,4,48,1,,,,,,,,,,,,,,,,,,,,,,,,,,,,,,,,,,,,,,,,
,,,,,WIN24_008,19,Male ,2024-01-26_15h28.05.301,jersey_experiment_5,2023.2.2,Win32,85.47008547,,,,,,,,,,,,,,,,268.0134,269.813,269.813,270.9543,return,0.6119,,81.25,,,,,,FBP-YG-19.png,0.45,1.2,45,1,0,5,5,44,1,,,,,,,,,,,,,,,,,,,,,,,,,,,,,,,,,,,,,,,,
,,,,,WIN24_008,19,Male ,2024-01-26_15h28.05.301,jersey_experiment_5,2023.2.2,Win32,85.47008547,,,,,,,,,,,,,,,,270.9545,272.2475,272.2476,273.3381,return,0.1715,,50.13020833,,,,,,FBP-OG-18.png,0.35,1.2,6,0.5,0,6,6,5,1,,,,,,,,,,,,,,,,,,,,,,,,,,,,,,,,,,,,,,,,
,,,,,WIN24_008,19,Male ,2024-01-26_15h28.05.301,jersey_experiment_5,2023.2.2,Win32,85.47008547,,,,,,,,,,,,,,,,273.3382,274.636,274.636,275.8019,return,0.2128,,89.71354167,,,,,,FBP-OG-19.png,0.45,1.2,15,0.5,0,7,7,14,1,,,,,,,,,,,,,,,,,,,,,,,,,,,,,,,,,,,,,,,,
,,,,,WIN24_008,19,Male ,2024-01-26_15h28.05.301,jersey_experiment_5,2023.2.2,Win32,85.47008547,,,,,,,,,,,,,,,,275.8021,277.1029,277.1029,278.1763,return,0.2002,,76.171875,,,,,,FBP-OG-17.png,0.43,1.2,4,0.5,0,8,8,3,1,,,,,,,,,,,,,,,,,,,,,,,,,,,,,,,,,,,,,,,,
,,,,,WIN24_008,19,Male ,2024-01-26_15h28.05.301,jersey_experiment_5,2023.2.2,Win32,85.47008547,,,,,,,,,,,,,,,,278.1765,279.978,279.978,281.0607,return,0.1434,,73.17708333,,,,,,FBP-YG-17.png,0.4,1.2,33,1,0,9,9,32,1,,,,,,,,,,,,,,,,,,,,,,,,,,,,,,,,,,,,,,,,
,,,,,WIN24_008,19,Male ,2024-01-26_15h28.05.301,jersey_experiment_5,2023.2.2,Win32,85.47008547,,,,,,,,,,,,,,,,281.0609,282.8587,282.8587,283.5315,return,0.0966,,73.828125,,,,,,FBP-RB-71.png,0.4,1.2,18,1,0,10,10,17,1,,,,,,,,,,,,,,,,,,,,,,,,,,,,,,,,,,,,,,,,
,,,,,WIN24_008,19,Male ,2024-01-26_15h28.05.301,jersey_experiment_5,2023.2.2,Win32,85.47008547,,,,,,,,,,,,,,,,283.5316,285.3289,285.3289,287.4535,return,0.8163,,25.65104167,,,,,,FBP-RB-91.png,0.35,1.2,26,1,0,11,11,25,1,,,,,,,,,,,,,,,,,,,,,,,,,,,,,,,,,,,,,,,,
,,,,,WIN24_008,19,Male ,2024-01-26_15h28.05.301,jersey_experiment_5,2023.2.2,Win32,85.47008547,,,,,,,,,,,,,,,,287.4537,288.7503,288.7503,290.0013,return,0.1879,,20.18229167,,,,,,FBP-PT-71.png,0.35,1.2,46,0.5,0,12,12,45,1,,,,,,,,,,,,,,,,,,,,,,,,,,,,,,,,,,,,,,,,
,,,,,WIN24_008,19,Male ,2024-01-26_15h28.05.301,jersey_experiment_5,2023.2.2,Win32,85.47008547,,,,,,,,,,,,,,,,290.0015,291.8013,291.8013,292.8022,return,0.3081,,75.65104167,,,,,,FBP-YG-17.png,0.45,1.2,35,1,0,13,13,34,1,,,,,,,,,,,,,,,,,,,,,,,,,,,,,,,,,,,,,,,,
,,,,,WIN24_008,19,Male ,2024-01-26_15h28.05.301,jersey_experiment_5,2023.2.2,Win32,85.47008547,,,,,,,,,,,,,,,,292.8024,294.1035,294.1035,295.0395,return,0.1671,,25.91145833,,,,,,FBP-PT-81.png,0.35,1.2,51,0.5,0,14,14,50,1,,,,,,,,,,,,,,,,,,,,,,,,,,,,,,,,,,,,,,,,
,,,,,WIN24_008,19,Male ,2024-01-26_15h28.05.301,jersey_experiment_5,2023.2.2,Win32,85.47008547,,,,,,,,,,,,,,,,295.0397,296.3389,296.3389,297.3743,return,0.1187,,49.08854167,,,,,,FBP-OG-18.png,0.45,1.2,10,0.5,0,15,15,9,1,,,,,,,,,,,,,,,,,,,,,,,,,,,,,,,,,,,,,,,,
,,,,,WIN24_008,19,Male ,2024-01-26_15h28.05.301,jersey_experiment_5,2023.2.2,Win32,85.47008547,,,,,,,,,,,,,,,,297.3745,298.6684,298.6684,299.2481,return,0.0464,,50,,,,,,FBP-PT-81.png,0.4,1.2,53,0.5,0,16,16,52,1,,,,,,,,,,,,,,,,,,,,,,,,,,,,,,,,,,,,,,,,
,,,,,WIN24_008,19,Male ,2024-01-26_15h28.05.301,jersey_experiment_5,2023.2.2,Win32,85.47008547,,,,,,,,,,,,,,,,299.2483,301.0474,301.0474,301.9333,return,0.1198,,25.26041667,,,,,,FBP-YG-19.png,0.35,1.2,41,1,0,17,17,40,1,,,,,,,,,,,,,,,,,,,,,,,,,,,,,,,,,,,,,,,,
,,,,,WIN24_008,19,Male ,2024-01-26_15h28.05.301,jersey_experiment_5,2023.2.2,Win32,85.47008547,,,,,,,,,,,,,,,,301.9335,303.7296,303.7296,304.8242,return,0.5886,,92.70833333,,,,,,FBP-RB-81.png,0.43,1.2,24,1,0,18,18,23,1,,,,,,,,,,,,,,,,,,,,,,,,,,,,,,,,,,,,,,,,
,,,,,WIN24_008,19,Male ,2024-01-26_15h28.05.301,jersey_experiment_5,2023.2.2,Win32,85.47008547,,,,,,,,,,,,,,,,304.8245,306.6256,306.6257,308.2726,return,0.3058,,57.16145833,,,,,,FBP-RB-81.png,0.37,1.2,22,1,0,19,19,21,1,,,,,,,,,,,,,,,,,,,,,,,,,,,,,,,,,,,,,,,,
,,,,,WIN24_008,19,Male ,2024-01-26_15h28.05.301,jersey_experiment_5,2023.2.2,Win32,85.47008547,,,,,,,,,,,,,,,,308.2727,309.5774,309.5774,310.508,return,0.3189,,72.13541667,,,,,,FBP-PT-81.png,0.43,1.2,54,0.5,0,20,20,53,1,,,,,,,,,,,,,,,,,,,,,,,,,,,,,,,,,,,,,,,,
,,,,,WIN24_008,19,Male ,2024-01-26_15h28.05.301,jersey_experiment_5,2023.2.2,Win32,85.47008547,,,,,,,,,,,,,,,,310.5082,312.3042,312.3043,313.4955,return,0.5269,,90.625,,,,,,FBP-RB-71.png,0.45,1.2,20,1,0,21,21,19,1,,,,,,,,,,,,,,,,,,,,,,,,,,,,,,,,,,,,,,,,
,,,,,WIN24_008,19,Male ,2024-01-26_15h28.05.301,jersey_experiment_5,2023.2.2,Win32,85.47008547,,,,,,,,,,,,,,,,313.4957,314.8021,314.8021,315.6972,return,0.0831,,75.13020833,,,,,,FBP-OG-19.png,0.4,1.2,13,0.5,0,22,22,12,1,,,,,,,,,,,,,,,,,,,,,,,,,,,,,,,,,,,,,,,,
,,,,,WIN24_008,19,Male ,2024-01-26_15h28.05.301,jersey_experiment_5,2023.2.2,Win32,85.47008547,,,,,,,,,,,,,,,,315.6974,317.4926,317.4927,318.222,return,0.0846,,76.82291667,,,,,,FBP-YG-18.png,0.43,1.2,39,1,0,23,23,38,1,,,,,,,,,,,,,,,,,,,,,,,,,,,,,,,,,,,,,,,,
,,,,,WIN24_008,19,Male ,2024-01-26_15h28.05.301,jersey_experiment_5,2023.2.2,Win32,85.47008547,,,,,,,,,,,,,,,,318.2223,319.5217,319.5218,320.7162,return,0.0972,,72.39583333,,,,,,FBP-PT-71.png,0.4,1.2,48,0.5,0,24,24,47,1,,,,,,,,,,,,,,,,,,,,,,,,,,,,,,,,,,,,,,,,
,,,,,WIN24_008,19,Male ,2024-01-26_15h28.05.301,jersey_experiment_5,2023.2.2,Win32,85.47008547,,,,,,,,,,,,,,,,320.7163,322.5201,322.5201,323.4729,return,0.129,,74.21875,,,,,,FBP-YG-19.png,0.43,1.2,44,1,0,25,25,43,1,,,,,,,,,,,,,,,,,,,,,,,,,,,,,,,,,,,,,,,,
,,,,,WIN24_008,19,Male ,2024-01-26_15h28.05.301,jersey_experiment_5,2023.2.2,Win32,85.47008547,,,,,,,,,,,,,,,,323.4731,325.2696,325.2696,325.9665,return,0.1639,,96.74479167,,,,,,FBP-RB-91.png,0.45,1.2,30,1,0,26,26,29,1,,,,,,,,,,,,,,,,,,,,,,,,,,,,,,,,,,,,,,,,
,,,,,WIN24_008,19,Male ,2024-01-26_15h28.05.301,jersey_experiment_5,2023.2.2,Win32,85.47008547,,,,,,,,,,,,,,,,325.9666,327.2601,327.2601,329.0696,return,0.1433,,50.78125,,,,,,FBP-PT-91.png,0.35,1.2,56,0.5,0,27,27,55,1,,,,,,,,,,,,,,,,,,,,,,,,,,,,,,,,,,,,,,,,
,,,,,WIN24_008,19,Male ,2024-01-26_15h28.05.301,jersey_experiment_5,2023.2.2,Win32,85.47008547,,,,,,,,,,,,,,,,329.0699,330.3678,330.3678,331.3215,return,0.1319,,50.78125,,,,,,FBP-OG-18.png,0.4,1.2,8,0.5,0,28,28,7,1,,,,,,,,,,,,,,,,,,,,,,,,,,,,,,,,,,,,,,,,
,,,,,WIN24_008,19,Male ,2024-01-26_15h28.05.301,jersey_experiment_5,2023.2.2,Win32,85.47008547,,,,,,,,,,,,,,,,331.3216,333.1167,333.1167,333.7897,return,0.1282,,76.69270833,,,,,,FBP-YG-19.png,0.4,1.2,43,1,0,29,29,42,1,,,,,,,,,,,,,,,,,,,,,,,,,,,,,,,,,,,,,,,,
,,,,,WIN24_008,19,Male ,2024-01-26_15h28.05.301,jersey_experiment_5,2023.2.2,Win32,85.47008547,,,,,,,,,,,,,,,,333.79,335.5822,335.5822,336.5094,return,0.258,,51.04166667,,,,,,FBP-YG-19.png,0.37,1.2,42,1,0,30,30,41,1,,,,,,,,,,,,,,,,,,,,,,,,,,,,,,,,,,,,,,,,
,,,,,WIN24_008,19,Male ,2024-01-26_15h28.05.301,jersey_experiment_5,2023.2.2,Win32,85.47008547,,,,,,,,,,,,,,,,336.5095,338.3076,338.3076,339.1333,return,0.1421,,74.47916667,,,,,,FBP-YG-18.png,0.4,1.2,38,1,0,31,31,37,1,,,,,,,,,,,,,,,,,,,,,,,,,,,,,,,,,,,,,,,,
,,,,,WIN24_008,19,Male ,2024-01-26_15h28.05.301,jersey_experiment_5,2023.2.2,Win32,85.47008547,,,,,,,,,,,,,,,,339.1334,340.4345,340.4346,341.2935,return,0.0626,,76.04166667,,,,,,FBP-OG-17.png,0.45,1.2,5,0.5,0,32,32,4,1,,,,,,,,,,,,,,,,,,,,,,,,,,,,,,,,,,,,,,,,
,,,,,WIN24_008,19,Male ,2024-01-26_15h28.05.301,jersey_experiment_5,2023.2.2,Win32,85.47008547,,,,,,,,,,,,,,,,341.2937,343.0863,343.0863,343.6727,return,0.1638,,89.0625,,,,,,FBP-YG-18.png,0.45,1.2,40,1,0,33,33,39,1,,,,,,,,,,,,,,,,,,,,,,,,,,,,,,,,,,,,,,,,
,,,,,WIN24_008,19,Male ,2024-01-26_15h28.05.301,jersey_experiment_5,2023.2.2,Win32,85.47008547,,,,,,,,,,,,,,,,343.6728,345.47,345.4701,346.9698,return,0.709,,51.171875,,,,,,FBP-YG-18.png,0.37,1.2,37,1,0,34,34,36,1,,,,,,,,,,,,,,,,,,,,,,,,,,,,,,,,,,,,,,,,
,,,,,WIN24_008,19,Male ,2024-01-26_15h28.05.301,jersey_experiment_5,2023.2.2,Win32,85.47008547,,,,,,,,,,,,,,,,346.9699,348.7643,348.7644,349.851,return,0.4701,,66.40625,,,,,,FBP-RB-81.png,0.4,1.2,23,1,0,35,35,22,1,,,,,,,,,,,,,,,,,,,,,,,,,,,,,,,,,,,,,,,,
,,,,,WIN24_008,19,Male ,2024-01-26_15h28.05.301,jersey_experiment_5,2023.2.2,Win32,85.47008547,,,,,,,,,,,,,,,,349.8511,351.1435,351.1435,352.2046,return,0.2484,,77.47395833,,,,,,FBP-PT-91.png,0.45,1.2,60,0.5,0,36,36,59,1,,,,,,,,,,,,,,,,,,,,,,,,,,,,,,,,,,,,,,,,
,,,,,WIN24_008,19,Male ,2024-01-26_15h28.05.301,jersey_experiment_5,2023.2.2,Win32,85.47008547,,,,,,,,,,,,,,,,352.2048,353.4979,353.4979,355.0197,return,0.1809,,36.84895833,,,,,,FBP-OG-17.png,0.37,1.2,2,0.5,0,37,37,1,1,,,,,,,,,,,,,,,,,,,,,,,,,,,,,,,,,,,,,,,,
,,,,,WIN24_008,19,Male ,2024-01-26_15h28.05.301,jersey_experiment_5,2023.2.2,Win32,85.47008547,,,,,,,,,,,,,,,,355.0199,356.3198,356.3198,357.4168,return,0.1174,,32.8125,,,,,,FBP-OG-18.png,0.37,1.2,7,0.5,0,38,38,6,1,,,,,,,,,,,,,,,,,,,,,,,,,,,,,,,,,,,,,,,,
,,,,,WIN24_008,19,Male ,2024-01-26_15h28.05.301,jersey_experiment_5,2023.2.2,Win32,85.47008547,,,,,,,,,,,,,,,,357.417,359.2118,359.2118,360.085,return,0.1867,,70.96354167,,,,,,FBP-YG-17.png,0.43,1.2,34,1,0,39,39,33,1,,,,,,,,,,,,,,,,,,,,,,,,,,,,,,,,,,,,,,,,
,,,,,WIN24_008,19,Male ,2024-01-26_15h28.05.301,jersey_experiment_5,2023.2.2,Win32,85.47008547,,,,,,,,,,,,,,,,360.0852,361.3807,361.3807,362.8034,return,0.1405,,73.4375,,,,,,FBP-PT-81.png,0.45,1.2,55,0.5,0,40,40,54,1,,,,,,,,,,,,,,,,,,,,,,,,,,,,,,,,,,,,,,,,
,,,,,WIN24_008,19,Male ,2024-01-26_15h28.05.301,jersey_experiment_5,2023.2.2,Win32,85.47008547,,,,,,,,,,,,,,,,362.8037,364.1099,364.1099,364.9231,return,0.1304,,49.73958333,,,,,,FBP-PT-81.png,0.37,1.2,52,0.5,0,41,41,51,1,,,,,,,,,,,,,,,,,,,,,,,,,,,,,,,,,,,,,,,,
,,,,,WIN24_008,19,Male ,2024-01-26_15h28.05.301,jersey_experiment_5,2023.2.2,Win32,85.47008547,,,,,,,,,,,,,,,,364.9233,366.7198,366.7198,367.6944,return,0.3889,,50.91145833,,,,,,FBP-RB-91.png,0.37,1.2,27,1,0,42,42,26,1,,,,,,,,,,,,,,,,,,,,,,,,,,,,,,,,,,,,,,,,
,,,,,WIN24_008,19,Male ,2024-01-26_15h28.05.301,jersey_experiment_5,2023.2.2,Win32,85.47008547,,,,,,,,,,,,,,,,367.6946,368.9886,368.9886,370.1886,return,0.4157,,49.47916667,,,,,,FBP-PT-91.png,0.37,1.2,57,0.5,0,43,43,56,1,,,,,,,,,,,,,,,,,,,,,,,,,,,,,,,,,,,,,,,,
,,,,,WIN24_008,19,Male ,2024-01-26_15h28.05.301,jersey_experiment_5,2023.2.2,Win32,85.47008547,,,,,,,,,,,,,,,,370.1888,371.9816,371.9816,372.7698,return,0.061,,26.5625,,,,,,FBP-RB-81.png,0.35,1.2,21,1,0,44,44,20,1,,,,,,,,,,,,,,,,,,,,,,,,,,,,,,,,,,,,,,,,
,,,,,WIN24_008,19,Male ,2024-01-26_15h28.05.301,jersey_experiment_5,2023.2.2,Win32,85.47008547,,,,,,,,,,,,,,,,372.7699,374.0613,374.0613,374.8969,return,0.1526,,27.60416667,,,,,,FBP-PT-71.png,0.37,1.2,47,0.5,0,45,45,46,1,,,,,,,,,,,,,,,,,,,,,,,,,,,,,,,,,,,,,,,,
,,,,,WIN24_008,19,Male ,2024-01-26_15h28.05.301,jersey_experiment_5,2023.2.2,Win32,85.47008547,,,,,,,,,,,,,,,,374.897,376.1928,376.1929,377.5352,return,0.0496,,60.28645833,,,,,,FBP-OG-19.png,0.43,1.2,14,0.5,0,46,46,13,1,,,,,,,,,,,,,,,,,,,,,,,,,,,,,,,,,,,,,,,,
,,,,,WIN24_008,19,Male ,2024-01-26_15h28.05.301,jersey_experiment_5,2023.2.2,Win32,85.47008547,,,,,,,,,,,,,,,,377.5353,379.3341,379.3341,380.2742,return,0.1855,,26.69270833,,,,,,FBP-YG-18.png,0.35,1.2,36,1,0,47,47,35,1,,,,,,,,,,,,,,,,,,,,,,,,,,,,,,,,,,,,,,,,
,,,,,WIN24_008,19,Male ,2024-01-26_15h28.05.301,jersey_experiment_5,2023.2.2,Win32,85.47008547,,,,,,,,,,,,,,,,380.2743,382.077,382.077,383.1,return,0.2243,,23.828125,,,,,,FBP-RB-71.png,0.35,1.2,16,1,0,48,48,15,1,,,,,,,,,,,,,,,,,,,,,,,,,,,,,,,,,,,,,,,,
,,,,,WIN24_008,19,Male ,2024-01-26_15h28.05.301,jersey_experiment_5,2023.2.2,Win32,85.47008547,,,,,,,,,,,,,,,,383.1002,384.8993,384.8993,385.6885,return,0.131,,26.69270833,,,,,,FBP-YG-17.png,0.35,1.2,31,1,0,49,49,30,1,,,,,,,,,,,,,,,,,,,,,,,,,,,,,,,,,,,,,,,,
,,,,,WIN24_008,19,Male ,2024-01-26_15h28.05.301,jersey_experiment_5,2023.2.2,Win32,85.47008547,,,,,,,,,,,,,,,,385.6887,387.4835,387.4835,388.6512,return,0.564,,50,,,,,,FBP-RB-91.png,0.4,1.2,28,1,0,50,50,27,1,,,,,,,,,,,,,,,,,,,,,,,,,,,,,,,,,,,,,,,,
,,,,,WIN24_008,19,Male ,2024-01-26_15h28.05.301,jersey_experiment_5,2023.2.2,Win32,85.47008547,,,,,,,,,,,,,,,,388.6515,389.9559,389.956,390.7721,return,0.0368,,74.47916667,,,,,,FBP-PT-71.png,0.45,1.2,50,0.5,0,51,51,49,1,,,,,,,,,,,,,,,,,,,,,,,,,,,,,,,,,,,,,,,,
,,,,,WIN24_008,19,Male ,2024-01-26_15h28.05.301,jersey_experiment_5,2023.2.2,Win32,85.47008547,,,,,,,,,,,,,,,,390.7722,392.0744,392.0744,393.7573,return,0.1064,,50.390625,,,,,,FBP-OG-19.png,0.35,1.2,11,0.5,0,52,52,10,1,,,,,,,,,,,,,,,,,,,,,,,,,,,,,,,,,,,,,,,,
,,,,,WIN24_008,19,Male ,2024-01-26_15h28.05.301,jersey_experiment_5,2023.2.2,Win32,85.47008547,,,,,,,,,,,,,,,,393.7575,395.5542,395.5542,396.4316,return,0.1219,,75.26041667,,,,,,FBP-RB-91.png,0.43,1.2,29,1,0,53,53,28,1,,,,,,,,,,,,,,,,,,,,,,,,,,,,,,,,,,,,,,,,
,,,,,WIN24_008,19,Male ,2024-01-26_15h28.05.301,jersey_experiment_5,2023.2.2,Win32,85.47008547,,,,,,,,,,,,,,,,396.4316,397.7359,397.7359,398.5264,return,0.0623,,76.43229167,,,,,,FBP-PT-91.png,0.43,1.2,59,0.5,0,54,54,58,1,,,,,,,,,,,,,,,,,,,,,,,,,,,,,,,,,,,,,,,,
,,,,,WIN24_008,19,Male ,2024-01-26_15h28.05.301,jersey_experiment_5,2023.2.2,Win32,85.47008547,,,,,,,,,,,,,,,,398.5266,399.8287,399.8287,400.372,return,0.0837,,50.26041667,,,,,,FBP-OG-17.png,0.4,1.2,3,0.5,0,55,55,2,1,,,,,,,,,,,,,,,,,,,,,,,,,,,,,,,,,,,,,,,,
,,,,,WIN24_008,19,Male ,2024-01-26_15h28.05.301,jersey_experiment_5,2023.2.2,Win32,85.47008547,,,,,,,,,,,,,,,,400.3722,402.1681,402.1682,402.7356,return,0.0569,,50.390625,,,,,,FBP-YG-17.png,0.37,1.2,32,1,0,56,56,31,1,,,,,,,,,,,,,,,,,,,,,,,,,,,,,,,,,,,,,,,,
,,,,,WIN24_008,19,Male ,2024-01-26_15h28.05.301,jersey_experiment_5,2023.2.2,Win32,85.47008547,,,,,,,,,,,,,,,,402.7358,404.0389,404.0389,404.7664,return,0.0356,,50.13020833,,,,,,FBP-PT-91.png,0.4,1.2,58,0.5,0,57,57,57,1,,,,,,,,,,,,,,,,,,,,,,,,,,,,,,,,,,,,,,,,
,,,,,WIN24_008,19,Male ,2024-01-26_15h28.05.301,jersey_experiment_5,2023.2.2,Win32,85.47008547,,,,,,,,,,,,,,,,404.7668,406.0629,406.0629,406.7807,return,0.0946,,49.86979167,,,,,,FBP-OG-18.png,0.43,1.2,9,0.5,0,58,58,8,1,,,,,,,,,,,,,,,,,,,,,,,,,,,,,,,,,,,,,,,,
,,,,,WIN24_008,19,Male ,2024-01-26_15h28.05.301,jersey_experiment_5,2023.2.2,Win32,85.47008547,,,,,,,,,,,,,,,,406.7808,408.0723,408.0723,408.83,return,0.0374,,25,,,,,,FBP-OG-17.png,0.35,1.2,1,0.5,0,59,59,0,1,,,,,,,,,,,,,,,,,,,,,,,,,,,,,,,,,,,,,,,,
,,,,,WIN24_008,19,Male ,2024-01-26_15h28.05.301,jersey_experiment_5,2023.2.2,Win32,85.47008547,,,,,,,,,,,,,,,,,,,,,,,,,,,,,,,,,,,,,,,408.8303,528.8337,,,,,,,,,,,,,,,,,,,,,,,,,,,,,,,,,,,,,,
,,,,,WIN24_008,19,Male ,2024-01-26_15h28.05.301,jersey_experiment_5,2023.2.2,Win32,85.47008547,,,,,,,,,,,,,,,,,,,,,,,,,,,,,,,,,,,,,,,,,528.8338,531.0888,return,2.235,,,,,,,,,,,,,,,,,,,,,,,,,,,,,,,,,,
,,,,,WIN24_008,19,Male ,2024-01-26_15h28.05.301,jersey_experiment_5,2023.2.2,Win32,85.47008547,,,,,,,,,,,,,,,,531.0949,532.3945,532.3945,534.9241,return,0.1925,,49.609375,,,,,,FBP-YG-71.png,0.4,1.2,33,0.5,,,,,,,,,,,,,0,0,0,32,1,,,,,,,,,,,,,,,,,,,,,,,,,,,,
,,,,,WIN24_008,19,Male ,2024-01-26_15h28.05.301,jersey_experiment_5,2023.2.2,Win32,85.47008547,,,,,,,,,,,,,,,,534.9243,536.2182,536.2183,536.8299,return,0.1555,,49.609375,,,,,,FBP-YG-91.png,0.4,1.2,43,0.5,,,,,,,,,,,,,0,1,1,42,1,,,,,,,,,,,,,,,,,,,,,,,,,,,,
,,,,,WIN24_008,19,Male ,2024-01-26_15h28.05.301,jersey_experiment_5,2023.2.2,Win32,85.47008547,,,,,,,,,,,,,,,,536.8301,538.1241,538.1242,539.2682,return,0.6697,,45.3125,,,,,,FBP-RB-19.png,0.37,1.2,27,0.5,,,,,,,,,,,,,0,2,2,26,1,,,,,,,,,,,,,,,,,,,,,,,,,,,,
,,,,,WIN24_008,19,Male ,2024-01-26_15h28.05.301,jersey_experiment_5,2023.2.2,Win32,85.47008547,,,,,,,,,,,,,,,,539.2684,540.5712,540.5712,541.1595,return,0.0899,,50.26041667,,,,,,FBP-YG-81.png,0.4,1.2,38,0.5,,,,,,,,,,,,,0,3,3,37,1,,,,,,,,,,,,,,,,,,,,,,,,,,,,
,,,,,WIN24_008,19,Male ,2024-01-26_15h28.05.301,jersey_experiment_5,2023.2.2,Win32,85.47008547,,,,,,,,,,,,,,,,541.1597,542.9595,542.9595,543.4184,return,0.0279,,49.73958333,,,,,,FBP-OG-81.png,0.4,1.2,8,1,,,,,,,,,,,,,0,4,4,7,1,,,,,,,,,,,,,,,,,,,,,,,,,,,,
,,,,,WIN24_008,19,Male ,2024-01-26_15h28.05.301,jersey_experiment_5,2023.2.2,Win32,85.47008547,,,,,,,,,,,,,,,,543.4186,544.7126,544.7126,545.6587,return,0.4242,,38.02083333,,,,,,FBP-YG-91.png,0.35,1.2,41,0.5,,,,,,,,,,,,,0,5,5,40,1,,,,,,,,,,,,,,,,,,,,,,,,,,,,
,,,,,WIN24_008,19,Male ,2024-01-26_15h28.05.301,jersey_experiment_5,2023.2.2,Win32,85.47008547,,,,,,,,,,,,,,,,545.6589,547.454,547.454,548.0423,return,0.0992,,56.640625,,,,,,FBP-PT-17.png,0.43,1.2,49,1,,,,,,,,,,,,,0,6,6,48,1,,,,,,,,,,,,,,,,,,,,,,,,,,,,
,,,,,WIN24_008,19,Male ,2024-01-26_15h28.05.301,jersey_experiment_5,2023.2.2,Win32,85.47008547,,,,,,,,,,,,,,,,548.0426,549.3364,549.3364,549.9059,return,0.1299,,55.20833333,,,,,,FBP-RB-17.png,0.4,1.2,18,0.5,,,,,,,,,,,,,0,7,7,17,1,,,,,,,,,,,,,,,,,,,,,,,,,,,,
,,,,,WIN24_008,19,Male ,2024-01-26_15h28.05.301,jersey_experiment_5,2023.2.2,Win32,85.47008547,,,,,,,,,,,,,,,,549.9061,551.2069,551.2069,551.6819,return,0.0469,,66.14583333,,,,,,FBP-RB-18.png,0.43,1.2,24,0.5,,,,,,,,,,,,,0,8,8,23,1,,,,,,,,,,,,,,,,,,,,,,,,,,,,
,,,,,WIN24_008,19,Male ,2024-01-26_15h28.05.301,jersey_experiment_5,2023.2.2,Win32,85.47008547,,,,,,,,,,,,,,,,551.6821,552.9764,552.9764,553.7247,return,0.2021,,35.28645833,,,,,,FBP-RB-17.png,0.37,1.2,17,0.5,,,,,,,,,,,,,0,9,9,16,1,,,,,,,,,,,,,,,,,,,,,,,,,,,,
,,,,,WIN24_008,19,Male ,2024-01-26_15h28.05.301,jersey_experiment_5,2023.2.2,Win32,85.47008547,,,,,,,,,,,,,,,,553.725,555.5297,555.5297,556.2209,return,0.2216,,27.08333333,,,,,,FBP-PT-19.png,0.35,1.2,56,1,,,,,,,,,,,,,0,10,10,55,1,,,,,,,,,,,,,,,,,,,,,,,,,,,,
,,,,,WIN24_008,19,Male ,2024-01-26_15h28.05.301,jersey_experiment_5,2023.2.2,Win32,85.47008547,,,,,,,,,,,,,,,,556.221,558.019,558.0191,558.5859,return,0.1037,,24.609375,,,,,,FBP-PT-18.png,0.35,1.2,51,1,,,,,,,,,,,,,0,11,11,50,1,,,,,,,,,,,,,,,,,,,,,,,,,,,,
,,,,,WIN24_008,19,Male ,2024-01-26_15h28.05.301,jersey_experiment_5,2023.2.2,Win32,85.47008547,,,,,,,,,,,,,,,,558.586,559.8779,559.8779,561.0662,return,0.1216,,50.65104167,,,,,,FBP-RB-19.png,0.4,1.2,28,0.5,,,,,,,,,,,,,0,12,12,27,1,,,,,,,,,,,,,,,,,,,,,,,,,,,,
,,,,,WIN24_008,19,Male ,2024-01-26_15h28.05.301,jersey_experiment_5,2023.2.2,Win32,85.47008547,,,,,,,,,,,,,,,,561.0662,562.3604,562.3604,563.2728,return,0.1039,,35.41666667,,,,,,FBP-RB-17.png,0.35,1.2,16,0.5,,,,,,,,,,,,,0,13,13,15,1,,,,,,,,,,,,,,,,,,,,,,,,,,,,
,,,,,WIN24_008,19,Male ,2024-01-26_15h28.05.301,jersey_experiment_5,2023.2.2,Win32,85.47008547,,,,,,,,,,,,,,,,563.2729,565.0717,565.0717,566.5888,return,0.7434,,49.609375,,,,,,FBP-PT-18.png,0.4,1.2,53,1,,,,,,,,,,,,,0,14,14,52,1,,,,,,,,,,,,,,,,,,,,,,,,,,,,
,,,,,WIN24_008,19,Male ,2024-01-26_15h28.05.301,jersey_experiment_5,2023.2.2,Win32,85.47008547,,,,,,,,,,,,,,,,566.5889,568.3842,568.3842,568.9065,return,0.0355,,78.64583333,,,,,,FBP-OG-71.png,0.45,1.2,5,1,,,,,,,,,,,,,0,15,15,4,1,,,,,,,,,,,,,,,,,,,,,,,,,,,,
,,,,,WIN24_008,19,Male ,2024-01-26_15h28.05.301,jersey_experiment_5,2023.2.2,Win32,85.47008547,,,,,,,,,,,,,,,,568.9067,570.7018,570.7018,571.5049,return,0.1522,,23.17708333,,,,,,FBP-OG-81.png,0.35,1.2,6,1,,,,,,,,,,,,,0,16,16,5,1,,,,,,,,,,,,,,,,,,,,,,,,,,,,
,,,,,WIN24_008,19,Male ,2024-01-26_15h28.05.301,jersey_experiment_5,2023.2.2,Win32,85.47008547,,,,,,,,,,,,,,,,571.5051,572.8001,572.8001,574.4615,return,0.14,,27.734375,,,,,,FBP-RB-18.png,0.37,1.2,22,0.5,,,,,,,,,,,,,0,17,17,21,1,,,,,,,,,,,,,,,,,,,,,,,,,,,,
,,,,,WIN24_008,19,Male ,2024-01-26_15h28.05.301,jersey_experiment_5,2023.2.2,Win32,85.47008547,,,,,,,,,,,,,,,,574.4617,575.7608,575.7608,576.5168,return,0.0695,,81.11979167,,,,,,FBP-YG-81.png,0.45,1.2,40,0.5,,,,,,,,,,,,,0,18,18,39,1,,,,,,,,,,,,,,,,,,,,,,,,,,,,
,,,,,WIN24_008,19,Male ,2024-01-26_15h28.05.301,jersey_experiment_5,2023.2.2,Win32,85.47008547,,,,,,,,,,,,,,,,576.517,577.8198,577.8198,578.306,return,0.0838,,50.390625,,,,,,FBP-YG-81.png,0.37,1.2,37,0.5,,,,,,,,,,,,,0,19,19,36,1,,,,,,,,,,,,,,,,,,,,,,,,,,,,
,,,,,WIN24_008,19,Male ,2024-01-26_15h28.05.301,jersey_experiment_5,2023.2.2,Win32,85.47008547,,,,,,,,,,,,,,,,578.3061,580.1021,580.1022,580.7168,return,0.0474,,74.08854167,,,,,,FBP-PT-18.png,0.43,1.2,54,1,,,,,,,,,,,,,0,20,20,53,1,,,,,,,,,,,,,,,,,,,,,,,,,,,,
,,,,,WIN24_008,19,Male ,2024-01-26_15h28.05.301,jersey_experiment_5,2023.2.2,Win32,85.47008547,,,,,,,,,,,,,,,,580.717,582.0198,582.0198,583.376,return,0.5287,,78.64583333,,,,,,FBP-RB-18.png,0.45,1.2,25,0.5,,,,,,,,,,,,,0,21,21,24,1,,,,,,,,,,,,,,,,,,,,,,,,,,,,
,,,,,WIN24_008,19,Male ,2024-01-26_15h28.05.301,jersey_experiment_5,2023.2.2,Win32,85.47008547,,,,,,,,,,,,,,,,583.3761,585.173,585.173,586.6818,return,0.1298,,33.72395833,,,,,,FBP-OG-91.png,0.37,1.2,12,1,,,,,,,,,,,,,0,22,22,11,1,,,,,,,,,,,,,,,,,,,,,,,,,,,,
,,,,,WIN24_008,19,Male ,2024-01-26_15h28.05.301,jersey_experiment_5,2023.2.2,Win32,85.47008547,,,,,,,,,,,,,,,,586.6819,587.9754,587.9755,589.4554,return,0.542,,50.13020833,,,,,,FBP-YG-71.png,0.37,1.2,32,0.5,,,,,,,,,,,,,0,23,23,31,1,,,,,,,,,,,,,,,,,,,,,,,,,,,,
,,,,,WIN24_008,19,Male ,2024-01-26_15h28.05.301,jersey_experiment_5,2023.2.2,Win32,85.47008547,,,,,,,,,,,,,,,,589.4555,590.7496,590.7496,591.5647,return,0.1528,,75.13020833,,,,,,FBP-RB-17.png,0.45,1.2,20,0.5,,,,,,,,,,,,,0,24,24,19,1,,,,,,,,,,,,,,,,,,,,,,,,,,,,
,,,,,WIN24_008,19,Male ,2024-01-26_15h28.05.301,jersey_experiment_5,2023.2.2,Win32,85.47008547,,,,,,,,,,,,,,,,591.5648,593.3614,593.3614,594.1421,return,0.2132,,73.828125,,,,,,FBP-PT-19.png,0.4,1.2,58,1,,,,,,,,,,,,,0,25,25,57,1,,,,,,,,,,,,,,,,,,,,,,,,,,,,
,,,,,WIN24_008,19,Male ,2024-01-26_15h28.05.301,jersey_experiment_5,2023.2.2,Win32,85.47008547,,,,,,,,,,,,,,,,594.1423,595.4438,595.4438,596.3174,return,0.0589,,75.390625,,,,,,FBP-YG-81.png,0.43,1.2,39,0.5,,,,,,,,,,,,,0,26,26,38,1,,,,,,,,,,,,,,,,,,,,,,,,,,,,
,,,,,WIN24_008,19,Male ,2024-01-26_15h28.05.301,jersey_experiment_5,2023.2.2,Win32,85.47008547,,,,,,,,,,,,,,,,596.3175,597.6111,597.6111,598.6323,return,0.0304,,75.13020833,,,,,,FBP-RB-19.png,0.43,1.2,29,0.5,,,,,,,,,,,,,0,27,27,28,1,,,,,,,,,,,,,,,,,,,,,,,,,,,,
,,,,,WIN24_008,19,Male ,2024-01-26_15h28.05.301,jersey_experiment_5,2023.2.2,Win32,85.47008547,,,,,,,,,,,,,,,,598.6325,600.4252,600.4252,601.0357,return,0.176,,74.47916667,,,,,,FBP-OG-71.png,0.4,1.2,3,1,,,,,,,,,,,,,0,28,28,2,1,,,,,,,,,,,,,,,,,,,,,,,,,,,,
,,,,,WIN24_008,19,Male ,2024-01-26_15h28.05.301,jersey_experiment_5,2023.2.2,Win32,85.47008547,,,,,,,,,,,,,,,,601.0359,602.8324,602.8324,603.2942,return,0.0698,,50.65104167,,,,,,FBP-PT-19.png,0.37,1.2,57,1,,,,,,,,,,,,,0,29,29,56,1,,,,,,,,,,,,,,,,,,,,,,,,,,,,
,,,,,WIN24_008,19,Male ,2024-01-26_15h28.05.301,jersey_experiment_5,2023.2.2,Win32,85.47008547,,,,,,,,,,,,,,,,603.2943,604.5972,604.5972,605.9882,return,0.7282,,37.23958333,,,,,,FBP-RB-19.png,0.35,1.2,26,0.5,,,,,,,,,,,,,0,30,30,25,1,,,,,,,,,,,,,,,,,,,,,,,,,,,,
,,,,,WIN24_008,19,Male ,2024-01-26_15h28.05.301,jersey_experiment_5,2023.2.2,Win32,85.47008547,,,,,,,,,,,,,,,,605.9883,607.2796,607.2796,608.0608,return,0.0731,,73.828125,,,,,,FBP-YG-91.png,0.43,1.2,44,0.5,,,,,,,,,,,,,0,31,31,43,1,,,,,,,,,,,,,,,,,,,,,,,,,,,,
,,,,,WIN24_008,19,Male ,2024-01-26_15h28.05.301,jersey_experiment_5,2023.2.2,Win32,85.47008547,,,,,,,,,,,,,,,,608.061,609.8589,609.8589,610.5671,return,0.2128,,75,,,,,,FBP-OG-81.png,0.43,1.2,9,1,,,,,,,,,,,,,0,32,32,8,1,,,,,,,,,,,,,,,,,,,,,,,,,,,,
,,,,,WIN24_008,19,Male ,2024-01-26_15h28.05.301,jersey_experiment_5,2023.2.2,Win32,85.47008547,,,,,,,,,,,,,,,,610.5673,612.3663,612.3663,612.9063,return,0.0463,,76.43229167,,,,,,FBP-PT-19.png,0.43,1.2,59,1,,,,,,,,,,,,,0,33,33,58,1,,,,,,,,,,,,,,,,,,,,,,,,,,,,
,,,,,WIN24_008,19,Male ,2024-01-26_15h28.05.301,jersey_experiment_5,2023.2.2,Win32,85.47008547,,,,,,,,,,,,,,,,612.9064,614.704,614.704,615.7894,return,0.0816,,41.015625,,,,,,FBP-OG-91.png,0.35,1.2,11,1,,,,,,,,,,,,,0,34,34,10,1,,,,,,,,,,,,,,,,,,,,,,,,,,,,
,,,,,WIN24_008,19,Male ,2024-01-26_15h28.05.301,jersey_experiment_5,2023.2.2,Win32,85.47008547,,,,,,,,,,,,,,,,615.7896,617.5857,617.5857,618.5678,return,0.1896,,71.74479167,,,,,,FBP-OG-91.png,0.43,1.2,14,1,,,,,,,,,,,,,0,35,35,13,1,,,,,,,,,,,,,,,,,,,,,,,,,,,,
,,,,,WIN24_008,19,Male ,2024-01-26_15h28.05.301,jersey_experiment_5,2023.2.2,Win32,85.47008547,,,,,,,,,,,,,,,,618.5679,620.3625,620.3627,621.2258,return,0.047,,75,,,,,,FBP-OG-71.png,0.43,1.2,4,1,,,,,,,,,,,,,0,36,36,3,1,,,,,,,,,,,,,,,,,,,,,,,,,,,,
,,,,,WIN24_008,19,Male ,2024-01-26_15h28.05.301,jersey_experiment_5,2023.2.2,Win32,85.47008547,,,,,,,,,,,,,,,,621.226,623.025,623.025,623.5978,return,0.1895,,49.47916667,,,,,,FBP-PT-17.png,0.35,1.2,46,1,,,,,,,,,,,,,0,37,37,45,1,,,,,,,,,,,,,,,,,,,,,,,,,,,,
,,,,,WIN24_008,19,Male ,2024-01-26_15h28.05.301,jersey_experiment_5,2023.2.2,Win32,85.47008547,,,,,,,,,,,,,,,,623.598,625.4007,625.4007,626.0144,return,0.0616,,75.26041667,,,,,,FBP-PT-17.png,0.45,1.2,50,1,,,,,,,,,,,,,0,38,38,49,1,,,,,,,,,,,,,,,,,,,,,,,,,,,,
,,,,,WIN24_008,19,Male ,2024-01-26_15h28.05.301,jersey_experiment_5,2023.2.2,Win32,85.47008547,,,,,,,,,,,,,,,,626.0145,627.8135,627.8135,628.6505,return,0.1323,,76.171875,,,,,,FBP-OG-91.png,0.45,1.2,15,1,,,,,,,,,,,,,0,39,39,14,1,,,,,,,,,,,,,,,,,,,,,,,,,,,,
,,,,,WIN24_008,19,Male ,2024-01-26_15h28.05.301,jersey_experiment_5,2023.2.2,Win32,85.47008547,,,,,,,,,,,,,,,,628.6506,630.4493,630.4493,630.8922,return,0.0835,,49.73958333,,,,,,FBP-PT-18.png,0.37,1.2,52,1,,,,,,,,,,,,,0,40,40,51,1,,,,,,,,,,,,,,,,,,,,,,,,,,,,
,,,,,WIN24_008,19,Male ,2024-01-26_15h28.05.301,jersey_experiment_5,2023.2.2,Win32,85.47008547,,,,,,,,,,,,,,,,630.8924,632.1864,632.1864,632.9219,return,0.0373,,73.828125,,,,,,FBP-RB-17.png,0.43,1.2,19,0.5,,,,,,,,,,,,,0,41,41,18,1,,,,,,,,,,,,,,,,,,,,,,,,,,,,
,,,,,WIN24_008,19,Male ,2024-01-26_15h28.05.301,jersey_experiment_5,2023.2.2,Win32,85.47008547,,,,,,,,,,,,,,,,632.922,634.2238,634.2238,638.5787,return,3.7059,,38.15104167,,,,,,FBP-YG-71.png,0.35,1.2,31,0.5,,,,,,,,,,,,,0,42,42,30,1,,,,,,,,,,,,,,,,,,,,,,,,,,,,
,,,,,WIN24_008,19,Male ,2024-01-26_15h28.05.301,jersey_experiment_5,2023.2.2,Win32,85.47008547,,,,,,,,,,,,,,,,638.5789,640.3749,640.3749,641.0008,return,0.1273,,50.13020833,,,,,,FBP-PT-17.png,0.37,1.2,47,1,,,,,,,,,,,,,0,43,43,46,1,,,,,,,,,,,,,,,,,,,,,,,,,,,,
,,,,,WIN24_008,19,Male ,2024-01-26_15h28.05.301,jersey_experiment_5,2023.2.2,Win32,85.47008547,,,,,,,,,,,,,,,,641.0009,642.8007,642.8007,643.5749,return,0.2672,,72.65625,,,,,,FBP-PT-19.png,0.45,1.2,60,1,,,,,,,,,,,,,0,44,44,59,1,,,,,,,,,,,,,,,,,,,,,,,,,,,,
,,,,,WIN24_008,19,Male ,2024-01-26_15h28.05.301,jersey_experiment_5,2023.2.2,Win32,85.47008547,,,,,,,,,,,,,,,,643.5751,644.8711,644.8712,645.481,return,0.0542,,50.65104167,,,,,,FBP-YG-81.png,0.35,1.2,36,0.5,,,,,,,,,,,,,0,45,45,35,1,,,,,,,,,,,,,,,,,,,,,,,,,,,,
,,,,,WIN24_008,19,Male ,2024-01-26_15h28.05.301,jersey_experiment_5,2023.2.2,Win32,85.47008547,,,,,,,,,,,,,,,,645.4812,647.2836,647.2836,647.7702,return,0.0629,,75.65104167,,,,,,FBP-OG-81.png,0.45,1.2,10,1,,,,,,,,,,,,,0,46,46,9,1,,,,,,,,,,,,,,,,,,,,,,,,,,,,
,,,,,WIN24_008,19,Male ,2024-01-26_15h28.05.301,jersey_experiment_5,2023.2.2,Win32,85.47008547,,,,,,,,,,,,,,,,647.7704,649.0692,649.0692,649.9308,return,0.0333,,74.34895833,,,,,,FBP-RB-18.png,0.4,1.2,23,0.5,,,,,,,,,,,,,0,47,47,22,1,,,,,,,,,,,,,,,,,,,,,,,,,,,,
,,,,,WIN24_008,19,Male ,2024-01-26_15h28.05.301,jersey_experiment_5,2023.2.2,Win32,85.47008547,,,,,,,,,,,,,,,,649.9309,651.7231,651.7231,652.1893,return,0.0574,,50.13020833,,,,,,FBP-OG-81.png,0.37,1.2,7,1,,,,,,,,,,,,,0,48,48,6,1,,,,,,,,,,,,,,,,,,,,,,,,,,,,
,,,,,WIN24_008,19,Male ,2024-01-26_15h28.05.301,jersey_experiment_5,2023.2.2,Win32,85.47008547,,,,,,,,,,,,,,,,652.1894,653.485,653.4851,654.142,return,0.0458,,75.52083333,,,,,,FBP-YG-71.png,0.43,1.2,34,0.5,,,,,,,,,,,,,0,49,49,33,1,,,,,,,,,,,,,,,,,,,,,,,,,,,,
,,,,,WIN24_008,19,Male ,2024-01-26_15h28.05.301,jersey_experiment_5,2023.2.2,Win32,85.47008547,,,,,,,,,,,,,,,,654.1422,655.4343,655.4343,655.9561,return,0.1167,,50,,,,,,FBP-YG-91.png,0.37,1.2,42,0.5,,,,,,,,,,,,,0,50,50,41,1,,,,,,,,,,,,,,,,,,,,,,,,,,,,
,,,,,WIN24_008,19,Male ,2024-01-26_15h28.05.301,jersey_experiment_5,2023.2.2,Win32,85.47008547,,,,,,,,,,,,,,,,655.9562,657.26,657.26,657.9804,return,0.0258,,74.34895833,,,,,,FBP-RB-19.png,0.45,1.2,30,0.5,,,,,,,,,,,,,0,51,51,29,1,,,,,,,,,,,,,,,,,,,,,,,,,,,,
,,,,,WIN24_008,19,Male ,2024-01-26_15h28.05.301,jersey_experiment_5,2023.2.2,Win32,85.47008547,,,,,,,,,,,,,,,,657.9806,659.7756,659.7756,660.411,return,0.1117,,49.34895833,,,,,,FBP-OG-71.png,0.37,1.2,2,1,,,,,,,,,,,,,0,52,52,1,1,,,,,,,,,,,,,,,,,,,,,,,,,,,,
,,,,,WIN24_008,19,Male ,2024-01-26_15h28.05.301,jersey_experiment_5,2023.2.2,Win32,85.47008547,,,,,,,,,,,,,,,,660.4112,662.211,662.211,663.1051,return,0.3055,,76.953125,,,,,,FBP-PT-18.png,0.45,1.2,55,1,,,,,,,,,,,,,0,53,53,54,1,,,,,,,,,,,,,,,,,,,,,,,,,,,,
,,,,,WIN24_008,19,Male ,2024-01-26_15h28.05.301,jersey_experiment_5,2023.2.2,Win32,85.47008547,,,,,,,,,,,,,,,,663.1052,664.3992,664.3992,665.164,return,0.1796,,50.26041667,,,,,,FBP-RB-18.png,0.35,1.2,21,0.5,,,,,,,,,,,,,0,54,54,20,1,,,,,,,,,,,,,,,,,,,,,,,,,,,,
,,,,,WIN24_008,19,Male ,2024-01-26_15h28.05.301,jersey_experiment_5,2023.2.2,Win32,85.47008547,,,,,,,,,,,,,,,,665.1642,666.4589,666.4589,667.6631,return,0.4126,,72.39583333,,,,,,FBP-YG-71.png,0.45,1.2,35,0.5,,,,,,,,,,,,,0,55,55,34,1,,,,,,,,,,,,,,,,,,,,,,,,,,,,
,,,,,WIN24_008,19,Male ,2024-01-26_15h28.05.301,jersey_experiment_5,2023.2.2,Win32,85.47008547,,,,,,,,,,,,,,,,667.6633,668.9693,668.9693,669.7799,return,0.106,,76.30208333,,,,,,FBP-YG-91.png,0.45,1.2,45,0.5,,,,,,,,,,,,,0,56,56,44,1,,,,,,,,,,,,,,,,,,,,,,,,,,,,
,,,,,WIN24_008,19,Male ,2024-01-26_15h28.05.301,jersey_experiment_5,2023.2.2,Win32,85.47008547,,,,,,,,,,,,,,,,669.78,671.5761,671.5762,672.4114,return,0.0878,,50.78125,,,,,,FBP-PT-17.png,0.4,1.2,48,1,,,,,,,,,,,,,0,57,57,47,1,,,,,,,,,,,,,,,,,,,,,,,,,,,,
,,,,,WIN24_008,19,Male ,2024-01-26_15h28.05.301,jersey_experiment_5,2023.2.2,Win32,85.47008547,,,,,,,,,,,,,,,,672.4115,674.2148,674.2149,675.1927,return,0.0733,,55.33854167,,,,,,FBP-OG-91.png,0.4,1.2,13,1,,,,,,,,,,,,,0,58,58,12,1,,,,,,,,,,,,,,,,,,,,,,,,,,,,
,,,,,WIN24_008,19,Male ,2024-01-26_15h28.05.301,jersey_experiment_5,2023.2.2,Win32,85.47008547,,,,,,,,,,,,,,,,675.1928,676.988,676.988,679.7321,return,1.9996,,36.45833333,,,,,,FBP-OG-71.png,0.35,1.2,1,1,,,,,,,,,,,,,0,59,59,0,1,,,,,,,,,,,,,,,,,,,,,,,,,,,,
,,,,,WIN24_008,19,Male ,2024-01-26_15h28.05.301,jersey_experiment_5,2023.2.2,Win32,85.47008547,,,,,,,,,,,,,,,,679.7342,681.0393,681.0393,682.506,return,0.3337,,50.26041667,,,,,,FBP-YG-17.png,0.37,1.2,32,0.5,,,,,,,,,,,,,,,,,,0,0,0,31,1,,,,,,,,,,,,,,,,,,,,,,,
,,,,,WIN24_008,19,Male ,2024-01-26_15h28.05.301,jersey_experiment_5,2023.2.2,Win32,85.47008547,,,,,,,,,,,,,,,,682.5062,683.8,683.8,685.4824,return,0.3824,,68.61979167,,,,,,FBP-RB-91.png,0.45,1.2,30,0.5,,,,,,,,,,,,,,,,,,0,1,1,29,1,,,,,,,,,,,,,,,,,,,,,,,
,,,,,WIN24_008,19,Male ,2024-01-26_15h28.05.301,jersey_experiment_5,2023.2.2,Win32,85.47008547,,,,,,,,,,,,,,,,685.4826,686.7765,686.7765,688.0526,return,0.4722,,73.30729167,,,,,,FBP-YG-17.png,0.43,1.2,34,0.5,,,,,,,,,,,,,,,,,,0,2,2,33,1,,,,,,,,,,,,,,,,,,,,,,,
,,,,,WIN24_008,19,Male ,2024-01-26_15h28.05.301,jersey_experiment_5,2023.2.2,Win32,85.47008547,,,,,,,,,,,,,,,,688.0528,689.3532,689.3532,690.5414,return,0.3188,,50.52083333,,,,,,FBP-YG-19.png,0.37,1.2,42,0.5,,,,,,,,,,,,,,,,,,0,3,3,41,1,,,,,,,,,,,,,,,,,,,,,,,
,,,,,WIN24_008,19,Male ,2024-01-26_15h28.05.301,jersey_experiment_5,2023.2.2,Win32,85.47008547,,,,,,,,,,,,,,,,690.5417,692.3352,692.3352,693.0043,return,0.1292,,73.56770833,,,,,,FBP-PT-81.png,0.43,1.2,54,1,,,,,,,,,,,,,,,,,,0,4,4,53,1,,,,,,,,,,,,,,,,,,,,,,,
,,,,,WIN24_008,19,Male ,2024-01-26_15h28.05.301,jersey_experiment_5,2023.2.2,Win32,85.47008547,,,,,,,,,,,,,,,,693.0044,694.8004,694.8004,695.2876,return,0.0715,,49.73958333,,,,,,FBP-PT-81.png,0.4,1.2,53,1,,,,,,,,,,,,,,,,,,0,5,5,52,1,,,,,,,,,,,,,,,,,,,,,,,
,,,,,WIN24_008,19,Male ,2024-01-26_15h28.05.301,jersey_experiment_5,2023.2.2,Win32,85.47008547,,,,,,,,,,,,,,,,695.2877,697.0828,697.0828,698.0878,return,0.2482,,70.05208333,,,,,,FBP-OG-19.png,0.43,1.2,14,1,,,,,,,,,,,,,,,,,,0,6,6,13,1,,,,,,,,,,,,,,,,,,,,,,,
,,,,,WIN24_008,19,Male ,2024-01-26_15h28.05.301,jersey_experiment_5,2023.2.2,Win32,85.47008547,,,,,,,,,,,,,,,,698.088,699.3887,699.3888,700.2478,return,0.1366,,49.609375,,,,,,FBP-RB-91.png,0.4,1.2,28,0.5,,,,,,,,,,,,,,,,,,0,7,7,27,1,,,,,,,,,,,,,,,,,,,,,,,
,,,,,WIN24_008,19,Male ,2024-01-26_15h28.05.301,jersey_experiment_5,2023.2.2,Win32,85.47008547,,,,,,,,,,,,,,,,700.2479,701.5419,701.5419,702.9332,return,0.3876,,49.21875,,,,,,FBP-YG-18.png,0.43,1.2,39,0.5,,,,,,,,,,,,,,,,,,0,8,8,38,1,,,,,,,,,,,,,,,,,,,,,,,
,,,,,WIN24_008,19,Male ,2024-01-26_15h28.05.301,jersey_experiment_5,2023.2.2,Win32,85.47008547,,,,,,,,,,,,,,,,702.9334,704.7329,704.7329,705.2505,return,0.1048,,49.08854167,,,,,,FBP-PT-91.png,0.37,1.2,57,1,,,,,,,,,,,,,,,,,,0,9,9,56,1,,,,,,,,,,,,,,,,,,,,,,,
,,,,,WIN24_008,19,Male ,2024-01-26_15h28.05.301,jersey_experiment_5,2023.2.2,Win32,85.47008547,,,,,,,,,,,,,,,,705.2506,707.048,707.048,707.7352,return,0.1555,,75.390625,,,,,,FBP-PT-71.png,0.45,1.2,50,1,,,,,,,,,,,,,,,,,,0,10,10,49,1,,,,,,,,,,,,,,,,,,,,,,,
,,,,,WIN24_008,19,Male ,2024-01-26_15h28.05.301,jersey_experiment_5,2023.2.2,Win32,85.47008547,,,,,,,,,,,,,,,,707.7353,709.0363,709.0363,709.8867,return,0.1068,,79.03645833,,,,,,FBP-YG-18.png,0.45,1.2,40,0.5,,,,,,,,,,,,,,,,,,0,11,11,39,1,,,,,,,,,,,,,,,,,,,,,,,
,,,,,WIN24_008,19,Male ,2024-01-26_15h28.05.301,jersey_experiment_5,2023.2.2,Win32,85.47008547,,,,,,,,,,,,,,,,709.8868,711.1893,711.1893,712.154,return,0.2049,,76.30208333,,,,,,FBP-RB-81.png,0.45,1.2,25,0.5,,,,,,,,,,,,,,,,,,0,12,12,24,1,,,,,,,,,,,,,,,,,,,,,,,
,,,,,WIN24_008,19,Male ,2024-01-26_15h28.05.301,jersey_experiment_5,2023.2.2,Win32,85.47008547,,,,,,,,,,,,,,,,712.1542,713.4482,713.4482,714.5454,return,0.1503,,28.38541667,,,,,,FBP-YG-17.png,0.35,1.2,31,0.5,,,,,,,,,,,,,,,,,,0,13,13,30,1,,,,,,,,,,,,,,,,,,,,,,,
,,,,,WIN24_008,19,Male ,2024-01-26_15h28.05.301,jersey_experiment_5,2023.2.2,Win32,85.47008547,,,,,,,,,,,,,,,,714.5456,716.3372,716.3372,717.1452,return,0.1404,,74.86979167,,,,,,FBP-PT-91.png,0.43,1.2,59,1,,,,,,,,,,,,,,,,,,0,14,14,58,1,,,,,,,,,,,,,,,,,,,,,,,
,,,,,WIN24_008,19,Male ,2024-01-26_15h28.05.301,jersey_experiment_5,2023.2.2,Win32,85.47008547,,,,,,,,,,,,,,,,717.1454,718.4484,718.4484,719.4014,return,0.2393,,49.86979167,,,,,,FBP-YG-18.png,0.35,1.2,36,0.5,,,,,,,,,,,,,,,,,,0,15,15,35,1,,,,,,,,,,,,,,,,,,,,,,,
,,,,,WIN24_008,19,Male ,2024-01-26_15h28.05.301,jersey_experiment_5,2023.2.2,Win32,85.47008547,,,,,,,,,,,,,,,,719.4017,720.6993,720.6994,721.8955,return,0.6527,,36.19791667,,,,,,FBP-RB-91.png,0.35,1.2,26,0.5,,,,,,,,,,,,,,,,,,0,16,16,25,1,,,,,,,,,,,,,,,,,,,,,,,
,,,,,WIN24_008,19,Male ,2024-01-26_15h28.05.301,jersey_experiment_5,2023.2.2,Win32,85.47008547,,,,,,,,,,,,,,,,721.8956,723.6957,723.6957,724.3191,return,0.0711,,60.9375,,,,,,FBP-OG-18.png,0.45,1.2,10,1,,,,,,,,,,,,,,,,,,0,17,17,9,1,,,,,,,,,,,,,,,,,,,,,,,
,,,,,WIN24_008,19,Male ,2024-01-26_15h28.05.301,jersey_experiment_5,2023.2.2,Win32,85.47008547,,,,,,,,,,,,,,,,724.3193,725.6132,725.6132,726.6045,return,0.3282,,70.57291667,,,,,,FBP-YG-19.png,0.43,1.2,44,0.5,,,,,,,,,,,,,,,,,,0,18,18,43,1,,,,,,,,,,,,,,,,,,,,,,,
,,,,,WIN24_008,19,Male ,2024-01-26_15h28.05.301,jersey_experiment_5,2023.2.2,Win32,85.47008547,,,,,,,,,,,,,,,,726.6047,727.8977,727.8977,728.6899,return,0.0624,,76.953125,,,,,,FBP-RB-81.png,0.43,1.2,24,0.5,,,,,,,,,,,,,,,,,,0,19,19,23,1,,,,,,,,,,,,,,,,,,,,,,,
,,,,,WIN24_008,19,Male ,2024-01-26_15h28.05.301,jersey_experiment_5,2023.2.2,Win32,85.47008547,,,,,,,,,,,,,,,,728.6901,730.4842,730.4842,731.6459,return,0.0989,,50.26041667,,,,,,FBP-OG-19.png,0.37,1.2,12,1,,,,,,,,,,,,,,,,,,0,20,20,11,1,,,,,,,,,,,,,,,,,,,,,,,
,,,,,WIN24_008,19,Male ,2024-01-26_15h28.05.301,jersey_experiment_5,2023.2.2,Win32,85.47008547,,,,,,,,,,,,,,,,731.6459,733.4489,733.4489,734.6176,return,0.7426,,49.86979167,,,,,,FBP-PT-71.png,0.37,1.2,47,1,,,,,,,,,,,,,,,,,,0,21,21,46,1,,,,,,,,,,,,,,,,,,,,,,,
,,,,,WIN24_008,19,Male ,2024-01-26_15h28.05.301,jersey_experiment_5,2023.2.2,Win32,85.47008547,,,,,,,,,,,,,,,,734.6177,736.4136,736.4137,737.1128,return,0.1555,,64.84375,,,,,,FBP-OG-18.png,0.43,1.2,9,1,,,,,,,,,,,,,,,,,,0,22,22,8,1,,,,,,,,,,,,,,,,,,,,,,,
,,,,,WIN24_008,19,Male ,2024-01-26_15h28.05.301,jersey_experiment_5,2023.2.2,Win32,85.47008547,,,,,,,,,,,,,,,,737.1129,738.9078,738.9079,740.0286,return,0.1891,,73.30729167,,,,,,FBP-OG-19.png,0.45,1.2,15,1,,,,,,,,,,,,,,,,,,0,23,23,14,1,,,,,,,,,,,,,,,,,,,,,,,
,,,,,WIN24_008,19,Male ,2024-01-26_15h28.05.301,jersey_experiment_5,2023.2.2,Win32,85.47008547,,,,,,,,,,,,,,,,740.0286,741.3314,741.3314,742.1361,return,0.1081,,50.13020833,,,,,,FBP-YG-18.png,0.37,1.2,37,0.5,,,,,,,,,,,,,,,,,,0,24,24,36,1,,,,,,,,,,,,,,,,,,,,,,,
,,,,,WIN24_008,19,Male ,2024-01-26_15h28.05.301,jersey_experiment_5,2023.2.2,Win32,85.47008547,,,,,,,,,,,,,,,,742.1362,743.4375,743.4375,744.5551,return,0.0288,,54.03645833,,,,,,FBP-RB-71.png,0.4,1.2,18,0.5,,,,,,,,,,,,,,,,,,0,25,25,17,1,,,,,,,,,,,,,,,,,,,,,,,
,,,,,WIN24_008,19,Male ,2024-01-26_15h28.05.301,jersey_experiment_5,2023.2.2,Win32,85.47008547,,,,,,,,,,,,,,,,744.5552,746.348,746.348,746.9358,return,0.059,,50.390625,,,,,,FBP-OG-18.png,0.37,1.2,7,1,,,,,,,,,,,,,,,,,,0,26,26,6,1,,,,,,,,,,,,,,,,,,,,,,,
,,,,,WIN24_008,19,Male ,2024-01-26_15h28.05.301,jersey_experiment_5,2023.2.2,Win32,85.47008547,,,,,,,,,,,,,,,,746.936,748.2377,748.2377,749.0654,return,0.0946,,50.13020833,,,,,,FBP-RB-81.png,0.37,1.2,22,0.5,,,,,,,,,,,,,,,,,,0,27,27,21,1,,,,,,,,,,,,,,,,,,,,,,,
,,,,,WIN24_008,19,Male ,2024-01-26_15h28.05.301,jersey_experiment_5,2023.2.2,Win32,85.47008547,,,,,,,,,,,,,,,,749.0656,750.8612,750.8612,751.2966,return,0.085,,50.26041667,,,,,,FBP-PT-81.png,0.37,1.2,52,1,,,,,,,,,,,,,,,,,,0,28,28,51,1,,,,,,,,,,,,,,,,,,,,,,,
,,,,,WIN24_008,19,Male ,2024-01-26_15h28.05.301,jersey_experiment_5,2023.2.2,Win32,85.47008547,,,,,,,,,,,,,,,,751.2968,752.5908,752.5908,753.3555,return,0.0873,,66.53645833,,,,,,FBP-YG-19.png,0.45,1.2,45,0.5,,,,,,,,,,,,,,,,,,0,29,29,44,1,,,,,,,,,,,,,,,,,,,,,,,
,,,,,WIN24_008,19,Male ,2024-01-26_15h28.05.301,jersey_experiment_5,2023.2.2,Win32,85.47008547,,,,,,,,,,,,,,,,753.3557,754.6497,754.6498,755.3723,return,0.12,,73.69791667,,,,,,FBP-RB-91.png,0.43,1.2,29,0.5,,,,,,,,,,,,,,,,,,0,30,30,28,1,,,,,,,,,,,,,,,,,,,,,,,
,,,,,WIN24_008,19,Male ,2024-01-26_15h28.05.301,jersey_experiment_5,2023.2.2,Win32,85.47008547,,,,,,,,,,,,,,,,755.3724,757.1721,757.1721,757.8548,return,0.1068,,75.13020833,,,,,,FBP-PT-71.png,0.43,1.2,49,1,,,,,,,,,,,,,,,,,,0,31,31,48,1,,,,,,,,,,,,,,,,,,,,,,,
,,,,,WIN24_008,19,Male ,2024-01-26_15h28.05.301,jersey_experiment_5,2023.2.2,Win32,85.47008547,,,,,,,,,,,,,,,,757.8549,759.1557,759.1558,759.9814,return,0.141,,51.5625,,,,,,FBP-YG-19.png,0.35,1.2,41,0.5,,,,,,,,,,,,,,,,,,0,32,32,40,1,,,,,,,,,,,,,,,,,,,,,,,
,,,,,WIN24_008,19,Male ,2024-01-26_15h28.05.301,jersey_experiment_5,2023.2.2,Win32,85.47008547,,,,,,,,,,,,,,,,759.9815,761.784,761.784,762.4429,return,0.0935,,71.22395833,,,,,,FBP-OG-17.png,0.45,1.2,5,1,,,,,,,,,,,,,,,,,,0,33,33,4,1,,,,,,,,,,,,,,,,,,,,,,,
,,,,,WIN24_008,19,Male ,2024-01-26_15h28.05.301,jersey_experiment_5,2023.2.2,Win32,85.47008547,,,,,,,,,,,,,,,,762.4431,764.2409,764.2409,765.1353,return,0.0933,,43.75,,,,,,FBP-OG-18.png,0.35,1.2,6,1,,,,,,,,,,,,,,,,,,0,34,34,5,1,,,,,,,,,,,,,,,,,,,,,,,
,,,,,WIN24_008,19,Male ,2024-01-26_15h28.05.301,jersey_experiment_5,2023.2.2,Win32,85.47008547,,,,,,,,,,,,,,,,765.1354,766.4304,766.4304,767.408,return,0.2026,,68.61979167,,,,,,FBP-RB-81.png,0.4,1.2,23,0.5,,,,,,,,,,,,,,,,,,0,35,35,22,1,,,,,,,,,,,,,,,,,,,,,,,
,,,,,WIN24_008,19,Male ,2024-01-26_15h28.05.301,jersey_experiment_5,2023.2.2,Win32,85.47008547,,,,,,,,,,,,,,,,767.4081,769.2029,769.203,770.109,return,0.2019,,49.34895833,,,,,,FBP-PT-71.png,0.35,1.2,46,1,,,,,,,,,,,,,,,,,,0,36,36,45,1,,,,,,,,,,,,,,,,,,,,,,,
,,,,,WIN24_008,19,Male ,2024-01-26_15h28.05.301,jersey_experiment_5,2023.2.2,Win32,85.47008547,,,,,,,,,,,,,,,,770.1092,771.4032,771.4032,773.3211,return,0.6072,,69.66145833,,,,,,FBP-RB-81.png,0.35,1.2,21,0.5,,,,,,,,,,,,,,,,,,0,37,37,20,1,,,,,,,,,,,,,,,,,,,,,,,
,,,,,WIN24_008,19,Male ,2024-01-26_15h28.05.301,jersey_experiment_5,2023.2.2,Win32,85.47008547,,,,,,,,,,,,,,,,773.3212,774.6188,774.6188,775.6649,return,0.1871,,73.56770833,,,,,,FBP-RB-71.png,0.45,1.2,20,0.5,,,,,,,,,,,,,,,,,,0,38,38,19,1,,,,,,,,,,,,,,,,,,,,,,,
,,,,,WIN24_008,19,Male ,2024-01-26_15h28.05.301,jersey_experiment_5,2023.2.2,Win32,85.47008547,,,,,,,,,,,,,,,,775.6651,777.4622,777.4623,778.3328,return,0.2136,,75.52083333,,,,,,FBP-OG-17.png,0.43,1.2,4,1,,,,,,,,,,,,,,,,,,0,39,39,3,1,,,,,,,,,,,,,,,,,,,,,,,
,,,,,WIN24_008,19,Male ,2024-01-26_15h28.05.301,jersey_experiment_5,2023.2.2,Win32,85.47008547,,,,,,,,,,,,,,,,778.3329,780.133,780.133,780.9449,return,0.1289,,76.5625,,,,,,FBP-PT-81.png,0.45,1.2,55,1,,,,,,,,,,,,,,,,,,0,40,40,54,1,,,,,,,,,,,,,,,,,,,,,,,
,,,,,WIN24_008,19,Male ,2024-01-26_15h28.05.301,jersey_experiment_5,2023.2.2,Win32,85.47008547,,,,,,,,,,,,,,,,780.9451,782.7388,782.7388,783.6766,return,0.1394,,59.24479167,,,,,,FBP-OG-17.png,0.4,1.2,3,1,,,,,,,,,,,,,,,,,,0,41,41,2,1,,,,,,,,,,,,,,,,,,,,,,,
,,,,,WIN24_008,19,Male ,2024-01-26_15h28.05.301,jersey_experiment_5,2023.2.2,Win32,85.47008547,,,,,,,,,,,,,,,,783.6768,785.4763,785.4763,786.0743,return,0.0751,,70.96354167,,,,,,FBP-PT-91.png,0.45,1.2,60,1,,,,,,,,,,,,,,,,,,0,42,42,59,1,,,,,,,,,,,,,,,,,,,,,,,
,,,,,WIN24_008,19,Male ,2024-01-26_15h28.05.301,jersey_experiment_5,2023.2.2,Win32,85.47008547,,,,,,,,,,,,,,,,786.0745,787.8744,787.8744,788.4772,return,0.0692,,70.3125,,,,,,FBP-PT-71.png,0.4,1.2,48,1,,,,,,,,,,,,,,,,,,0,43,43,47,1,,,,,,,,,,,,,,,,,,,,,,,
,,,,,WIN24_008,19,Male ,2024-01-26_15h28.05.301,jersey_experiment_5,2023.2.2,Win32,85.47008547,,,,,,,,,,,,,,,,788.4773,790.2746,790.2746,790.9021,return,0.2111,,69.140625,,,,,,FBP-PT-91.png,0.4,1.2,58,1,,,,,,,,,,,,,,,,,,0,44,44,57,1,,,,,,,,,,,,,,,,,,,,,,,
,,,,,WIN24_008,19,Male ,2024-01-26_15h28.05.301,jersey_experiment_5,2023.2.2,Win32,85.47008547,,,,,,,,,,,,,,,,790.9023,792.7016,792.7016,793.453,return,0.0804,,50.26041667,,,,,,FBP-OG-19.png,0.35,1.2,11,1,,,,,,,,,,,,,,,,,,0,45,45,10,1,,,,,,,,,,,,,,,,,,,,,,,
,,,,,WIN24_008,19,Male ,2024-01-26_15h28.05.301,jersey_experiment_5,2023.2.2,Win32,85.47008547,,,,,,,,,,,,,,,,793.4533,794.7453,794.7453,796.0159,return,0.5319,,73.69791667,,,,,,FBP-RB-71.png,0.43,1.2,19,0.5,,,,,,,,,,,,,,,,,,0,46,46,18,1,,,,,,,,,,,,,,,,,,,,,,,
,,,,,WIN24_008,19,Male ,2024-01-26_15h28.05.301,jersey_experiment_5,2023.2.2,Win32,85.47008547,,,,,,,,,,,,,,,,796.016,797.3099,797.31,797.9855,return,0.048,,50.52083333,,,,,,FBP-RB-71.png,0.37,1.2,17,0.5,,,,,,,,,,,,,,,,,,0,47,47,16,1,,,,,,,,,,,,,,,,,,,,,,,
,,,,,WIN24_008,19,Male ,2024-01-26_15h28.05.301,jersey_experiment_5,2023.2.2,Win32,85.47008547,,,,,,,,,,,,,,,,797.9856,799.2866,799.2867,800.0565,return,0.0939,,50.52083333,,,,,,FBP-YG-19.png,0.4,1.2,43,0.5,,,,,,,,,,,,,,,,,,0,48,48,42,1,,,,,,,,,,,,,,,,,,,,,,,
,,,,,WIN24_008,19,Male ,2024-01-26_15h28.05.301,jersey_experiment_5,2023.2.2,Win32,85.47008547,,,,,,,,,,,,,,,,800.0565,801.3573,801.3573,802.3487,return,0.2346,,42.31770833,,,,,,FBP-RB-71.png,0.35,1.2,16,0.5,,,,,,,,,,,,,,,,,,0,49,49,15,1,,,,,,,,,,,,,,,,,,,,,,,
,,,,,WIN24_008,19,Male ,2024-01-26_15h28.05.301,jersey_experiment_5,2023.2.2,Win32,85.47008547,,,,,,,,,,,,,,,,802.3489,804.1502,804.1502,805.7574,return,0.1189,,57.8125,,,,,,FBP-OG-18.png,0.4,1.2,8,1,,,,,,,,,,,,,,,,,,0,50,50,7,1,,,,,,,,,,,,,,,,,,,,,,,
,,,,,WIN24_008,19,Male ,2024-01-26_15h28.05.301,jersey_experiment_5,2023.2.2,Win32,85.47008547,,,,,,,,,,,,,,,,805.7576,807.5506,807.5506,808.6633,return,0.0439,,65.625,,,,,,FBP-OG-19.png,0.4,1.2,13,1,,,,,,,,,,,,,,,,,,0,51,51,12,1,,,,,,,,,,,,,,,,,,,,,,,
,,,,,WIN24_008,19,Male ,2024-01-26_15h28.05.301,jersey_experiment_5,2023.2.2,Win32,85.47008547,,,,,,,,,,,,,,,,808.6635,810.4635,810.4635,811.6675,return,0.7062,,47.00520833,,,,,,FBP-PT-81.png,0.35,1.2,51,1,,,,,,,,,,,,,,,,,,0,52,52,50,1,,,,,,,,,,,,,,,,,,,,,,,
,,,,,WIN24_008,19,Male ,2024-01-26_15h28.05.301,jersey_experiment_5,2023.2.2,Win32,85.47008547,,,,,,,,,,,,,,,,811.6676,813.4686,813.4686,814.0283,return,0.1562,,42.31770833,,,,,,FBP-PT-91.png,0.35,1.2,56,1,,,,,,,,,,,,,,,,,,0,53,53,55,1,,,,,,,,,,,,,,,,,,,,,,,
,,,,,WIN24_008,19,Male ,2024-01-26_15h28.05.301,jersey_experiment_5,2023.2.2,Win32,85.47008547,,,,,,,,,,,,,,,,814.0285,815.3226,815.3226,816.397,return,0.1532,,50.65104167,,,,,,FBP-YG-17.png,0.4,1.2,33,0.5,,,,,,,,,,,,,,,,,,0,54,54,32,1,,,,,,,,,,,,,,,,,,,,,,,
,,,,,WIN24_008,19,Male ,2024-01-26_15h28.05.301,jersey_experiment_5,2023.2.2,Win32,85.47008547,,,,,,,,,,,,,,,,816.3973,817.6991,817.6991,818.5031,return,0.143,,50.13020833,,,,,,FBP-RB-91.png,0.37,1.2,27,0.5,,,,,,,,,,,,,,,,,,0,55,55,26,1,,,,,,,,,,,,,,,,,,,,,,,
,,,,,WIN24_008,19,Male ,2024-01-26_15h28.05.301,jersey_experiment_5,2023.2.2,Win32,85.47008547,,,,,,,,,,,,,,,,818.5032,820.2991,820.2991,821.8639,return,0.4672,,50.13020833,,,,,,FBP-OG-17.png,0.37,1.2,2,1,,,,,,,,,,,,,,,,,,0,56,56,1,1,,,,,,,,,,,,,,,,,,,,,,,
,,,,,WIN24_008,19,Male ,2024-01-26_15h28.05.301,jersey_experiment_5,2023.2.2,Win32,85.47008547,,,,,,,,,,,,,,,,821.864,823.6664,823.6664,824.3509,return,0.0831,,29.55729167,,,,,,FBP-OG-17.png,0.35,1.2,1,1,,,,,,,,,,,,,,,,,,0,57,57,0,1,,,,,,,,,,,,,,,,,,,,,,,
,,,,,WIN24_008,19,Male ,2024-01-26_15h28.05.301,jersey_experiment_5,2023.2.2,Win32,85.47008547,,,,,,,,,,,,,,,,824.351,825.655,825.655,826.2797,return,0.1073,,49.86979167,,,,,,FBP-YG-18.png,0.4,1.2,38,0.5,,,,,,,,,,,,,,,,,,0,58,58,37,1,,,,,,,,,,,,,,,,,,,,,,,
,,,,,WIN24_008,19,Male ,2024-01-26_15h28.05.301,jersey_experiment_5,2023.2.2,Win32,85.47008547,,,,,,,,,,,,,,,,826.2799,827.5818,827.5818,828.7766,return,0.4845,,61.19791667,,,,,,FBP-YG-17.png,0.45,1.2,35,0.5,,,,,,,,,,,,,,,,,,0,59,59,34,1,,,,,,,,,,,,,,,,,,,,,,,
,,,,,WIN24_008,19,Male ,2024-01-26_15h28.05.301,jersey_experiment_5,2023.2.2,Win32,85.47008547,,,,,,,,,,,,,,,,,,,,,,,,,,,,,,,,,,,,,,,,,,,,,,,,,,,,,,,,828.7769,835.0058,return,6.2103,,,,,,,,,,,,,,,,,,,
,,,,,WIN24_008,19,Male ,2024-01-26_15h28.05.301,jersey_experiment_5,2023.2.2,Win32,85.47008547,,,,,,,,,,,,,,,,,,,,,,,,,,,,,,,,,,,,,,,,,,,,,,,,,,,,,,,,,,,,,835.0059,840.7968,1,4.7879,return,0.9867,,,,,,,,,,,,
,,,,,WIN24_008,19,Male ,2024-01-26_15h28.05.301,jersey_experiment_5,2023.2.2,Win32,85.47008547,,,,,,,,,,,,,,,,,,,,,,,,,,,,,,,,,,,,,,,,,,,,,,,,,,,,,,,,,,,,,,,,,,,,840.797,886.0169,There were a lot of repeated images and the figures stayed on screen for different amounts of time so maybe it was testing how well my eyes were able to distinguish finer details in images under different time constraints.,right,39.968,,,,,,
,,,,,WIN24_008,19,Male ,2024-01-26_15h28.05.301,jersey_experiment_5,2023.2.2,Win32,85.47008547,,,,,,,,,,,,,,,,,,,,,,,,,,,,,,,,,,,,,,,,,,,,,,,,,,,,,,,,,,,,,,,,,,,,,,,,,,886.017,889.337,return,3.3116,