requirements.started,requirements.stopped,key_resp_3.keys,key_resp_3.rt,key_resp_3.duration,Subject ID,Age,Gender,date,expName,psychopyVersion,OS,frameRate,instructions1.started,instructions1.stopped,key_resp.keys,key_resp.rt,key_resp.duration,example.started,example.stopped,enter_2.keys,enter_2.rt,enter_2.duration,instructions2.started,instructions2.stopped,enter_3.keys,enter_3.rt,enter_3.duration,image.started,image.stopped,slider_2.started,slider_2.stopped,next.keys,next.rt,next.duration,slider.response,trial_block_1.thisRepN,trial_block_1.thisTrialN,trial_block_1.thisN,trial_block_1.thisIndex,trial_block_1.ran,Path,Width,Height,Index,Duration,trial_block_2.thisRepN,trial_block_2.thisTrialN,trial_block_2.thisN,trial_block_2.thisIndex,trial_block_2.ran,rest_break.started,rest_break.stopped,end_break.started,end_break.stopped,key_resp_5.keys,key_resp_5.rt,key_resp_5.duration,trial_block_3.thisRepN,trial_block_3.thisTrialN,trial_block_3.thisN,trial_block_3.thisIndex,trial_block_3.ran,trial_block_4.thisRepN,trial_block_4.thisTrialN,trial_block_4.thisN,trial_block_4.thisIndex,trial_block_4.ran,questions_intro.started,questions_intro.stopped,enter_12.keys,enter_12.rt,enter_12.duration,question2.started,question2.stopped,question_doingbest.response,question_doingbest.rt,enter_15.keys,enter_15.rt,enter_15.duration,pattern.started,pattern.stopped,pattern_2.text,enter_17.keys,enter_17.rt,enter_17.duration,thankyou.started,thankyou.stopped,enter_14.keys,enter_14.rt,enter_14.duration
0.0001,12.1237,return,12.1196,,WIN24_066,20,Male ,2024-02-22_13h56.14.243,jersey_experiment_5,2023.2.2,Win32,84.74576271,,,,,,,,,,,,,,,,,,,,,,,,,,,,,,,,,,,,,,,,,,,,,,,,,,,,,,,,,,,,,,,,,,,,,,,,,,,,,,
,,,,,WIN24_066,20,Male ,2024-02-22_13h56.14.243,jersey_experiment_5,2023.2.2,Win32,84.74576271,12.1238,29.7149,return,17.5778,,,,,,,,,,,,,,,,,,,,,,,,,,,,,,,,,,,,,,,,,,,,,,,,,,,,,,,,,,,,,,,,,,,,,,,,,,
,,,,,WIN24_066,20,Male ,2024-02-22_13h56.14.243,jersey_experiment_5,2023.2.2,Win32,84.74576271,,,,,,29.7151,32.8442,return,3.0962,,,,,,,,,,,,,,,,,,,,,,,,,,,,,,,,,,,,,,,,,,,,,,,,,,,,,,,,,,,,,,,,,,,,,
,,,,,WIN24_066,20,Male ,2024-02-22_13h56.14.243,jersey_experiment_5,2023.2.2,Win32,84.74576271,,,,,,,,,,,32.8444,50.7863,return,17.93,,,,,,,,,,,,,,,,,,,,,,,,,,,,,,,,,,,,,,,,,,,,,,,,,,,,,,,,,,,,,,,,
,,,,,WIN24_066,20,Male ,2024-02-22_13h56.14.243,jersey_experiment_5,2023.2.2,Win32,84.74576271,,,,,,,,,,,,,,,,50.7938,52.586,52.5862,57.598,return,1.0269,,50,0,0,0,38,1,FBP-YG-81.png,0.43,1.2,39,1,,,,,,,,,,,,,,,,,,,,,,,,,,,,,,,,,,,,,,,,,,,,,
,,,,,WIN24_066,20,Male ,2024-02-22_13h56.14.243,jersey_experiment_5,2023.2.2,Win32,84.74576271,,,,,,,,,,,,,,,,57.5984,58.892,58.892,60.7981,return,0.4395,,50.390625,0,1,1,8,1,FBP-OG-81.png,0.43,1.2,9,0.5,,,,,,,,,,,,,,,,,,,,,,,,,,,,,,,,,,,,,,,,,,,,,
,,,,,WIN24_066,20,Male ,2024-02-22_13h56.14.243,jersey_experiment_5,2023.2.2,Win32,84.74576271,,,,,,,,,,,,,,,,60.7983,62.0922,62.0922,63.9394,return,0.4606,,25.65104167,0,2,2,56,1,FBP-PT-19.png,0.37,1.2,57,0.5,,,,,,,,,,,,,,,,,,,,,,,,,,,,,,,,,,,,,,,,,,,,,
,,,,,WIN24_066,20,Male ,2024-02-22_13h56.14.243,jersey_experiment_5,2023.2.2,Win32,84.74576271,,,,,,,,,,,,,,,,63.9397,65.7394,65.7394,68.7866,return,0.5787,,50.390625,0,3,3,27,1,FBP-RB-19.png,0.4,1.2,28,1,,,,,,,,,,,,,,,,,,,,,,,,,,,,,,,,,,,,,,,,,,,,,
,,,,,WIN24_066,20,Male ,2024-02-22_13h56.14.243,jersey_experiment_5,2023.2.2,Win32,84.74576271,,,,,,,,,,,,,,,,68.7869,70.0808,70.0808,72.1279,return,0.4261,,75.65104167,0,4,4,5,1,FBP-OG-81.png,0.35,1.2,6,0.5,,,,,,,,,,,,,,,,,,,,,,,,,,,,,,,,,,,,,,,,,,,,,
,,,,,WIN24_066,20,Male ,2024-02-22_13h56.14.243,jersey_experiment_5,2023.2.2,Win32,84.74576271,,,,,,,,,,,,,,,,72.1281,73.4222,73.4222,75.2927,return,0.4545,,74.08854167,0,5,5,57,1,FBP-PT-19.png,0.4,1.2,58,0.5,,,,,,,,,,,,,,,,,,,,,,,,,,,,,,,,,,,,,,,,,,,,,
,,,,,WIN24_066,20,Male ,2024-02-22_13h56.14.243,jersey_experiment_5,2023.2.2,Win32,84.74576271,,,,,,,,,,,,,,,,75.2929,76.5868,76.5868,78.5398,return,0.5023,,49.86979167,0,6,6,51,1,FBP-PT-18.png,0.37,1.2,52,0.5,,,,,,,,,,,,,,,,,,,,,,,,,,,,,,,,,,,,,,,,,,,,,
,,,,,WIN24_066,20,Male ,2024-02-22_13h56.14.243,jersey_experiment_5,2023.2.2,Win32,84.74576271,,,,,,,,,,,,,,,,78.5401,79.834,79.834,82.9988,return,0.978,,63.93229167,0,7,7,3,1,FBP-OG-71.png,0.43,1.2,4,0.5,,,,,,,,,,,,,,,,,,,,,,,,,,,,,,,,,,,,,,,,,,,,,
,,,,,WIN24_066,20,Male ,2024-02-22_13h56.14.243,jersey_experiment_5,2023.2.2,Win32,84.74576271,,,,,,,,,,,,,,,,82.9991,84.7988,84.7988,85.846,return,0.4371,,85.67708333,0,8,8,39,1,FBP-YG-81.png,0.45,1.2,40,1,,,,,,,,,,,,,,,,,,,,,,,,,,,,,,,,,,,,,,,,,,,,,
,,,,,WIN24_066,20,Male ,2024-02-22_13h56.14.243,jersey_experiment_5,2023.2.2,Win32,84.74576271,,,,,,,,,,,,,,,,85.8462,87.1402,87.1402,89.1873,return,0.4702,,72.39583333,0,9,9,12,1,FBP-OG-91.png,0.4,1.2,13,0.5,,,,,,,,,,,,,,,,,,,,,,,,,,,,,,,,,,,,,,,,,,,,,
,,,,,WIN24_066,20,Male ,2024-02-22_13h56.14.243,jersey_experiment_5,2023.2.2,Win32,84.74576271,,,,,,,,,,,,,,,,89.1876,90.9875,90.9876,92.2463,return,0.6732,,82.94270833,0,10,10,43,1,FBP-YG-91.png,0.43,1.2,44,1,,,,,,,,,,,,,,,,,,,,,,,,,,,,,,,,,,,,,,,,,,,,,
,,,,,WIN24_066,20,Male ,2024-02-22_13h56.14.243,jersey_experiment_5,2023.2.2,Win32,84.74576271,,,,,,,,,,,,,,,,92.2466,93.5403,93.5403,95.058,return,0.4627,,30.078125,0,11,11,1,1,FBP-OG-71.png,0.37,1.2,2,0.5,,,,,,,,,,,,,,,,,,,,,,,,,,,,,,,,,,,,,,,,,,,,,
,,,,,WIN24_066,20,Male ,2024-02-22_13h56.14.243,jersey_experiment_5,2023.2.2,Win32,84.74576271,,,,,,,,,,,,,,,,95.0581,96.3521,96.3521,98.0227,return,0.4944,,48.95833333,0,12,12,58,1,FBP-PT-19.png,0.43,1.2,59,0.5,,,,,,,,,,,,,,,,,,,,,,,,,,,,,,,,,,,,,,,,,,,,,
,,,,,WIN24_066,20,Male ,2024-02-22_13h56.14.243,jersey_experiment_5,2023.2.2,Win32,84.74576271,,,,,,,,,,,,,,,,98.0228,99.8229,99.8229,100.8111,return,0.4669,,72.00520833,0,13,13,19,1,FBP-RB-17.png,0.45,1.2,20,1,,,,,,,,,,,,,,,,,,,,,,,,,,,,,,,,,,,,,,,,,,,,,
,,,,,WIN24_066,20,Male ,2024-02-22_13h56.14.243,jersey_experiment_5,2023.2.2,Win32,84.74576271,,,,,,,,,,,,,,,,100.8113,102.6113,102.6114,104.2465,return,0.471,,23.30729167,0,14,14,25,1,FBP-RB-19.png,0.35,1.2,26,1,,,,,,,,,,,,,,,,,,,,,,,,,,,,,,,,,,,,,,,,,,,,,
,,,,,WIN24_066,20,Male ,2024-02-22_13h56.14.243,jersey_experiment_5,2023.2.2,Win32,84.74576271,,,,,,,,,,,,,,,,104.2467,105.5407,105.5407,107.2466,return,0.3939,,50,0,15,15,53,1,FBP-PT-18.png,0.43,1.2,54,0.5,,,,,,,,,,,,,,,,,,,,,,,,,,,,,,,,,,,,,,,,,,,,,
,,,,,WIN24_066,20,Male ,2024-02-22_13h56.14.243,jersey_experiment_5,2023.2.2,Win32,84.74576271,,,,,,,,,,,,,,,,107.2467,109.0467,109.0467,109.9173,return,0.3931,,18.09895833,0,16,16,40,1,FBP-YG-91.png,0.35,1.2,41,1,,,,,,,,,,,,,,,,,,,,,,,,,,,,,,,,,,,,,,,,,,,,,
,,,,,WIN24_066,20,Male ,2024-02-22_13h56.14.243,jersey_experiment_5,2023.2.2,Win32,84.74576271,,,,,,,,,,,,,,,,109.9175,111.2113,111.2114,112.388,return,0.3766,,30.59895833,0,17,17,6,1,FBP-OG-81.png,0.37,1.2,7,0.5,,,,,,,,,,,,,,,,,,,,,,,,,,,,,,,,,,,,,,,,,,,,,
,,,,,WIN24_066,20,Male ,2024-02-22_13h56.14.243,jersey_experiment_5,2023.2.2,Win32,84.74576271,,,,,,,,,,,,,,,,112.3882,114.1881,114.1882,115.2351,return,0.4107,,72.91666667,0,18,18,29,1,FBP-RB-19.png,0.45,1.2,30,1,,,,,,,,,,,,,,,,,,,,,,,,,,,,,,,,,,,,,,,,,,,,,
,,,,,WIN24_066,20,Male ,2024-02-22_13h56.14.243,jersey_experiment_5,2023.2.2,Win32,84.74576271,,,,,,,,,,,,,,,,115.2353,116.5293,116.5293,117.8234,return,0.4614,,79.296875,0,19,19,13,1,FBP-OG-91.png,0.43,1.2,14,0.5,,,,,,,,,,,,,,,,,,,,,,,,,,,,,,,,,,,,,,,,,,,,,
,,,,,WIN24_066,20,Male ,2024-02-22_13h56.14.243,jersey_experiment_5,2023.2.2,Win32,84.74576271,,,,,,,,,,,,,,,,117.8235,119.1176,119.1176,120.3176,return,0.6651,,90.49479167,0,20,20,9,1,FBP-OG-81.png,0.45,1.2,10,0.5,,,,,,,,,,,,,,,,,,,,,,,,,,,,,,,,,,,,,,,,,,,,,
,,,,,WIN24_066,20,Male ,2024-02-22_13h56.14.243,jersey_experiment_5,2023.2.2,Win32,84.74576271,,,,,,,,,,,,,,,,120.3179,122.1179,122.1179,123.2472,return,0.4169,,22.00520833,0,21,21,31,1,FBP-YG-71.png,0.37,1.2,32,1,,,,,,,,,,,,,,,,,,,,,,,,,,,,,,,,,,,,,,,,,,,,,
,,,,,WIN24_066,20,Male ,2024-02-22_13h56.14.243,jersey_experiment_5,2023.2.2,Win32,84.74576271,,,,,,,,,,,,,,,,123.2474,124.5415,124.5415,125.7416,return,0.4763,,29.55729167,0,22,22,2,1,FBP-OG-71.png,0.4,1.2,3,0.5,,,,,,,,,,,,,,,,,,,,,,,,,,,,,,,,,,,,,,,,,,,,,
,,,,,WIN24_066,20,Male ,2024-02-22_13h56.14.243,jersey_experiment_5,2023.2.2,Win32,84.74576271,,,,,,,,,,,,,,,,125.7417,127.5415,127.5415,128.4945,return,0.4745,,54.81770833,0,23,23,44,1,FBP-YG-91.png,0.45,1.2,45,1,,,,,,,,,,,,,,,,,,,,,,,,,,,,,,,,,,,,,,,,,,,,,
,,,,,WIN24_066,20,Male ,2024-02-22_13h56.14.243,jersey_experiment_5,2023.2.2,Win32,84.74576271,,,,,,,,,,,,,,,,128.4946,130.2945,130.2945,131.3417,return,0.4291,,63.02083333,0,24,24,23,1,FBP-RB-18.png,0.43,1.2,24,1,,,,,,,,,,,,,,,,,,,,,,,,,,,,,,,,,,,,,,,,,,,,,
,,,,,WIN24_066,20,Male ,2024-02-22_13h56.14.243,jersey_experiment_5,2023.2.2,Win32,84.74576271,,,,,,,,,,,,,,,,131.3418,132.6358,132.6358,133.9182,return,0.4532,,63.02083333,0,25,25,49,1,FBP-PT-17.png,0.45,1.2,50,0.5,,,,,,,,,,,,,,,,,,,,,,,,,,,,,,,,,,,,,,,,,,,,,
,,,,,WIN24_066,20,Male ,2024-02-22_13h56.14.243,jersey_experiment_5,2023.2.2,Win32,84.74576271,,,,,,,,,,,,,,,,133.9184,135.7183,135.7183,136.9184,return,0.4479,,6.770833333,0,26,26,20,1,FBP-RB-18.png,0.35,1.2,21,1,,,,,,,,,,,,,,,,,,,,,,,,,,,,,,,,,,,,,,,,,,,,,
,,,,,WIN24_066,20,Male ,2024-02-22_13h56.14.243,jersey_experiment_5,2023.2.2,Win32,84.74576271,,,,,,,,,,,,,,,,136.9185,138.7186,138.7186,139.7185,return,0.4018,,50.390625,0,27,27,33,1,FBP-YG-71.png,0.43,1.2,34,1,,,,,,,,,,,,,,,,,,,,,,,,,,,,,,,,,,,,,,,,,,,,,
,,,,,WIN24_066,20,Male ,2024-02-22_13h56.14.243,jersey_experiment_5,2023.2.2,Win32,84.74576271,,,,,,,,,,,,,,,,139.7186,141.5185,141.5185,143.095,return,0.3865,,74.609375,0,28,28,34,1,FBP-YG-71.png,0.45,1.2,35,1,,,,,,,,,,,,,,,,,,,,,,,,,,,,,,,,,,,,,,,,,,,,,
,,,,,WIN24_066,20,Male ,2024-02-22_13h56.14.243,jersey_experiment_5,2023.2.2,Win32,84.74576271,,,,,,,,,,,,,,,,143.0953,144.3892,144.3892,145.8245,return,0.3437,,10.67708333,0,29,29,50,1,FBP-PT-18.png,0.35,1.2,51,0.5,,,,,,,,,,,,,,,,,,,,,,,,,,,,,,,,,,,,,,,,,,,,,
,,,,,WIN24_066,20,Male ,2024-02-22_13h56.14.243,jersey_experiment_5,2023.2.2,Win32,84.74576271,,,,,,,,,,,,,,,,145.8247,147.1187,147.1187,148.4364,return,0.4234,,56.51041667,0,30,30,54,1,FBP-PT-18.png,0.45,1.2,55,0.5,,,,,,,,,,,,,,,,,,,,,,,,,,,,,,,,,,,,,,,,,,,,,
,,,,,WIN24_066,20,Male ,2024-02-22_13h56.14.243,jersey_experiment_5,2023.2.2,Win32,84.74576271,,,,,,,,,,,,,,,,148.4366,149.7305,149.7305,150.9424,return,0.4175,,15.49479167,0,31,31,11,1,FBP-OG-91.png,0.37,1.2,12,0.5,,,,,,,,,,,,,,,,,,,,,,,,,,,,,,,,,,,,,,,,,,,,,
,,,,,WIN24_066,20,Male ,2024-02-22_13h56.14.243,jersey_experiment_5,2023.2.2,Win32,84.74576271,,,,,,,,,,,,,,,,150.9426,152.2367,152.2368,153.2954,return,0.4274,,7.161458333,0,32,32,0,1,FBP-OG-71.png,0.35,1.2,1,0.5,,,,,,,,,,,,,,,,,,,,,,,,,,,,,,,,,,,,,,,,,,,,,
,,,,,WIN24_066,20,Male ,2024-02-22_13h56.14.243,jersey_experiment_5,2023.2.2,Win32,84.74576271,,,,,,,,,,,,,,,,153.2956,154.5895,154.5896,159.9898,return,2.3396,,3.645833333,0,33,33,10,1,FBP-OG-91.png,0.35,1.2,11,0.5,,,,,,,,,,,,,,,,,,,,,,,,,,,,,,,,,,,,,,,,,,,,,
,,,,,WIN24_066,20,Male ,2024-02-22_13h56.14.243,jersey_experiment_5,2023.2.2,Win32,84.74576271,,,,,,,,,,,,,,,,159.99,161.2839,161.2839,163.4133,return,0.4718,,58.203125,0,34,34,52,1,FBP-PT-18.png,0.4,1.2,53,0.5,,,,,,,,,,,,,,,,,,,,,,,,,,,,,,,,,,,,,,,,,,,,,
,,,,,WIN24_066,20,Male ,2024-02-22_13h56.14.243,jersey_experiment_5,2023.2.2,Win32,84.74576271,,,,,,,,,,,,,,,,163.4134,165.2135,165.2135,166.0839,return,0.4571,,49.609375,0,35,35,17,1,FBP-RB-17.png,0.4,1.2,18,1,,,,,,,,,,,,,,,,,,,,,,,,,,,,,,,,,,,,,,,,,,,,,
,,,,,WIN24_066,20,Male ,2024-02-22_13h56.14.243,jersey_experiment_5,2023.2.2,Win32,84.74576271,,,,,,,,,,,,,,,,166.0841,167.3782,167.3782,168.5429,return,0.4742,,24.609375,0,36,36,45,1,FBP-PT-17.png,0.35,1.2,46,0.5,,,,,,,,,,,,,,,,,,,,,,,,,,,,,,,,,,,,,,,,,,,,,
,,,,,WIN24_066,20,Male ,2024-02-22_13h56.14.243,jersey_experiment_5,2023.2.2,Win32,84.74576271,,,,,,,,,,,,,,,,168.5432,169.8371,169.8371,171.5665,return,0.4048,,78.38541667,0,37,37,4,1,FBP-OG-71.png,0.45,1.2,5,0.5,,,,,,,,,,,,,,,,,,,,,,,,,,,,,,,,,,,,,,,,,,,,,
,,,,,WIN24_066,20,Male ,2024-02-22_13h56.14.243,jersey_experiment_5,2023.2.2,Win32,84.74576271,,,,,,,,,,,,,,,,171.5667,172.8608,172.8608,174.2255,return,0.484,,20.3125,0,38,38,55,1,FBP-PT-19.png,0.35,1.2,56,0.5,,,,,,,,,,,,,,,,,,,,,,,,,,,,,,,,,,,,,,,,,,,,,
,,,,,WIN24_066,20,Male ,2024-02-22_13h56.14.243,jersey_experiment_5,2023.2.2,Win32,84.74576271,,,,,,,,,,,,,,,,174.2256,176.0256,176.0256,177.908,return,0.6829,,32.68229167,0,39,39,16,1,FBP-RB-17.png,0.37,1.2,17,1,,,,,,,,,,,,,,,,,,,,,,,,,,,,,,,,,,,,,,,,,,,,,
,,,,,WIN24_066,20,Male ,2024-02-22_13h56.14.243,jersey_experiment_5,2023.2.2,Win32,84.74576271,,,,,,,,,,,,,,,,177.9083,179.7081,179.7082,180.6728,return,0.4504,,75,0,40,40,24,1,FBP-RB-18.png,0.45,1.2,25,1,,,,,,,,,,,,,,,,,,,,,,,,,,,,,,,,,,,,,,,,,,,,,
,,,,,WIN24_066,20,Male ,2024-02-22_13h56.14.243,jersey_experiment_5,2023.2.2,Win32,84.74576271,,,,,,,,,,,,,,,,180.6729,182.4728,182.4728,183.6024,return,0.5548,,52.47395833,0,41,41,42,1,FBP-YG-91.png,0.4,1.2,43,1,,,,,,,,,,,,,,,,,,,,,,,,,,,,,,,,,,,,,,,,,,,,,
,,,,,WIN24_066,20,Male ,2024-02-22_13h56.14.243,jersey_experiment_5,2023.2.2,Win32,84.74576271,,,,,,,,,,,,,,,,183.6026,185.4023,185.4023,186.3083,return,0.3897,,52.47395833,0,42,42,37,1,FBP-YG-81.png,0.4,1.2,38,1,,,,,,,,,,,,,,,,,,,,,,,,,,,,,,,,,,,,,,,,,,,,,
,,,,,WIN24_066,20,Male ,2024-02-22_13h56.14.243,jersey_experiment_5,2023.2.2,Win32,84.74576271,,,,,,,,,,,,,,,,186.3084,188.1083,188.1084,188.979,return,0.4589,,27.734375,0,43,43,21,1,FBP-RB-18.png,0.37,1.2,22,1,,,,,,,,,,,,,,,,,,,,,,,,,,,,,,,,,,,,,,,,,,,,,
,,,,,WIN24_066,20,Male ,2024-02-22_13h56.14.243,jersey_experiment_5,2023.2.2,Win32,84.74576271,,,,,,,,,,,,,,,,188.9792,190.273,190.273,191.5086,return,0.4131,,39.97395833,0,44,44,7,1,FBP-OG-81.png,0.4,1.2,8,0.5,,,,,,,,,,,,,,,,,,,,,,,,,,,,,,,,,,,,,,,,,,,,,
,,,,,WIN24_066,20,Male ,2024-02-22_13h56.14.243,jersey_experiment_5,2023.2.2,Win32,84.74576271,,,,,,,,,,,,,,,,191.5088,193.3085,193.3085,195.4615,return,1.6009,,63.93229167,0,45,45,28,1,FBP-RB-19.png,0.43,1.2,29,1,,,,,,,,,,,,,,,,,,,,,,,,,,,,,,,,,,,,,,,,,,,,,
,,,,,WIN24_066,20,Male ,2024-02-22_13h56.14.243,jersey_experiment_5,2023.2.2,Win32,84.74576271,,,,,,,,,,,,,,,,195.4617,197.2615,197.2615,198.8616,return,0.4165,,65.234375,0,46,46,22,1,FBP-RB-18.png,0.4,1.2,23,1,,,,,,,,,,,,,,,,,,,,,,,,,,,,,,,,,,,,,,,,,,,,,
,,,,,WIN24_066,20,Male ,2024-02-22_13h56.14.243,jersey_experiment_5,2023.2.2,Win32,84.74576271,,,,,,,,,,,,,,,,198.8618,200.6619,200.6619,201.9206,return,0.4038,,75.13020833,0,47,47,18,1,FBP-RB-17.png,0.43,1.2,19,1,,,,,,,,,,,,,,,,,,,,,,,,,,,,,,,,,,,,,,,,,,,,,
,,,,,WIN24_066,20,Male ,2024-02-22_13h56.14.243,jersey_experiment_5,2023.2.2,Win32,84.74576271,,,,,,,,,,,,,,,,201.9208,203.2147,203.2148,205.6972,return,1.2471,,69.27083333,0,48,48,47,1,FBP-PT-17.png,0.4,1.2,48,0.5,,,,,,,,,,,,,,,,,,,,,,,,,,,,,,,,,,,,,,,,,,,,,
,,,,,WIN24_066,20,Male ,2024-02-22_13h56.14.243,jersey_experiment_5,2023.2.2,Win32,84.74576271,,,,,,,,,,,,,,,,205.6975,207.4973,207.4973,208.4973,return,0.5326,,21.875,0,49,49,30,1,FBP-YG-71.png,0.35,1.2,31,1,,,,,,,,,,,,,,,,,,,,,,,,,,,,,,,,,,,,,,,,,,,,,
,,,,,WIN24_066,20,Male ,2024-02-22_13h56.14.243,jersey_experiment_5,2023.2.2,Win32,84.74576271,,,,,,,,,,,,,,,,208.4976,210.2973,210.2973,211.6504,return,0.3431,,21.35416667,0,50,50,26,1,FBP-RB-19.png,0.37,1.2,27,1,,,,,,,,,,,,,,,,,,,,,,,,,,,,,,,,,,,,,,,,,,,,,
,,,,,WIN24_066,20,Male ,2024-02-22_13h56.14.243,jersey_experiment_5,2023.2.2,Win32,84.74576271,,,,,,,,,,,,,,,,211.6505,212.9445,212.9445,214.4152,return,0.416,,70.83333333,0,51,51,59,1,FBP-PT-19.png,0.45,1.2,60,0.5,,,,,,,,,,,,,,,,,,,,,,,,,,,,,,,,,,,,,,,,,,,,,
,,,,,WIN24_066,20,Male ,2024-02-22_13h56.14.243,jersey_experiment_5,2023.2.2,Win32,84.74576271,,,,,,,,,,,,,,,,214.4153,215.7092,215.7093,216.8034,return,0.4617,,77.60416667,0,52,52,14,1,FBP-OG-91.png,0.45,1.2,15,0.5,,,,,,,,,,,,,,,,,,,,,,,,,,,,,,,,,,,,,,,,,,,,,
,,,,,WIN24_066,20,Male ,2024-02-22_13h56.14.243,jersey_experiment_5,2023.2.2,Win32,84.74576271,,,,,,,,,,,,,,,,216.8037,218.6035,218.6035,220.4153,return,1.2518,,26.30208333,0,53,53,15,1,FBP-RB-17.png,0.35,1.2,16,1,,,,,,,,,,,,,,,,,,,,,,,,,,,,,,,,,,,,,,,,,,,,,
,,,,,WIN24_066,20,Male ,2024-02-22_13h56.14.243,jersey_experiment_5,2023.2.2,Win32,84.74576271,,,,,,,,,,,,,,,,220.4155,222.2153,222.2153,223.4742,return,0.4359,,37.23958333,0,54,54,36,1,FBP-YG-81.png,0.37,1.2,37,1,,,,,,,,,,,,,,,,,,,,,,,,,,,,,,,,,,,,,,,,,,,,,
,,,,,WIN24_066,20,Male ,2024-02-22_13h56.14.243,jersey_experiment_5,2023.2.2,Win32,84.74576271,,,,,,,,,,,,,,,,223.4745,224.7684,224.7684,226.3802,return,0.3725,,48.95833333,0,55,55,48,1,FBP-PT-17.png,0.43,1.2,49,0.5,,,,,,,,,,,,,,,,,,,,,,,,,,,,,,,,,,,,,,,,,,,,,
,,,,,WIN24_066,20,Male ,2024-02-22_13h56.14.243,jersey_experiment_5,2023.2.2,Win32,84.74576271,,,,,,,,,,,,,,,,226.3805,228.1804,228.1804,229.4628,return,0.3665,,30.33854167,0,56,56,35,1,FBP-YG-81.png,0.35,1.2,36,1,,,,,,,,,,,,,,,,,,,,,,,,,,,,,,,,,,,,,,,,,,,,,
,,,,,WIN24_066,20,Male ,2024-02-22_13h56.14.243,jersey_experiment_5,2023.2.2,Win32,84.74576271,,,,,,,,,,,,,,,,229.463,230.757,230.757,231.8275,return,0.4348,,30.33854167,0,57,57,46,1,FBP-PT-17.png,0.37,1.2,47,0.5,,,,,,,,,,,,,,,,,,,,,,,,,,,,,,,,,,,,,,,,,,,,,
,,,,,WIN24_066,20,Male ,2024-02-22_13h56.14.243,jersey_experiment_5,2023.2.2,Win32,84.74576271,,,,,,,,,,,,,,,,231.8277,233.6276,233.6276,235.4865,return,1.1471,,22.78645833,0,58,58,41,1,FBP-YG-91.png,0.37,1.2,42,1,,,,,,,,,,,,,,,,,,,,,,,,,,,,,,,,,,,,,,,,,,,,,
,,,,,WIN24_066,20,Male ,2024-02-22_13h56.14.243,jersey_experiment_5,2023.2.2,Win32,84.74576271,,,,,,,,,,,,,,,,235.4867,237.2865,237.2866,239.7455,return,0.4851,,56.38020833,0,59,59,32,1,FBP-YG-71.png,0.4,1.2,33,1,,,,,,,,,,,,,,,,,,,,,,,,,,,,,,,,,,,,,,,,,,,,,
,,,,,WIN24_066,20,Male ,2024-02-22_13h56.14.243,jersey_experiment_5,2023.2.2,Win32,84.74576271,,,,,,,,,,,,,,,,239.7476,241.5456,241.5456,242.6043,return,0.3944,,50.26041667,,,,,,FBP-YG-19.png,0.4,1.2,43,1,0,0,0,42,1,,,,,,,,,,,,,,,,,,,,,,,,,,,,,,,,,,,,,,,,
,,,,,WIN24_066,20,Male ,2024-02-22_13h56.14.243,jersey_experiment_5,2023.2.2,Win32,84.74576271,,,,,,,,,,,,,,,,242.6047,244.4044,244.4044,245.2868,return,0.4234,,34.89583333,,,,,,FBP-YG-17.png,0.37,1.2,32,1,0,1,1,31,1,,,,,,,,,,,,,,,,,,,,,,,,,,,,,,,,,,,,,,,,
,,,,,WIN24_066,20,Male ,2024-02-22_13h56.14.243,jersey_experiment_5,2023.2.2,Win32,84.74576271,,,,,,,,,,,,,,,,245.2869,246.5809,246.5809,247.828,return,0.4236,,71.09375,,,,,,FBP-PT-91.png,0.45,1.2,60,0.5,0,2,2,59,1,,,,,,,,,,,,,,,,,,,,,,,,,,,,,,,,,,,,,,,,
,,,,,WIN24_066,20,Male ,2024-02-22_13h56.14.243,jersey_experiment_5,2023.2.2,Win32,84.74576271,,,,,,,,,,,,,,,,247.8282,249.1221,249.1222,250.3575,return,0.461,,76.5625,,,,,,FBP-PT-71.png,0.43,1.2,49,0.5,0,3,3,48,1,,,,,,,,,,,,,,,,,,,,,,,,,,,,,,,,,,,,,,,,
,,,,,WIN24_066,20,Male ,2024-02-22_13h56.14.243,jersey_experiment_5,2023.2.2,Win32,84.74576271,,,,,,,,,,,,,,,,250.3578,251.6519,251.6519,252.9811,return,0.5175,,81.25,,,,,,FBP-OG-18.png,0.45,1.2,10,0.5,0,4,4,9,1,,,,,,,,,,,,,,,,,,,,,,,,,,,,,,,,,,,,,,,,
,,,,,WIN24_066,20,Male ,2024-02-22_13h56.14.243,jersey_experiment_5,2023.2.2,Win32,84.74576271,,,,,,,,,,,,,,,,252.9814,254.2753,254.2753,255.4872,return,0.4974,,50.65104167,,,,,,FBP-PT-81.png,0.4,1.2,53,0.5,0,5,5,52,1,,,,,,,,,,,,,,,,,,,,,,,,,,,,,,,,,,,,,,,,
,,,,,WIN24_066,20,Male ,2024-02-22_13h56.14.243,jersey_experiment_5,2023.2.2,Win32,84.74576271,,,,,,,,,,,,,,,,255.4874,257.2872,257.2872,258.0166,return,0.4033,,50.390625,,,,,,FBP-YG-17.png,0.4,1.2,33,1,0,6,6,32,1,,,,,,,,,,,,,,,,,,,,,,,,,,,,,,,,,,,,,,,,
,,,,,WIN24_066,20,Male ,2024-02-22_13h56.14.243,jersey_experiment_5,2023.2.2,Win32,84.74576271,,,,,,,,,,,,,,,,258.0167,259.8167,259.8167,260.8755,return,0.3592,,60.28645833,,,,,,FBP-YG-17.png,0.43,1.2,34,1,0,7,7,33,1,,,,,,,,,,,,,,,,,,,,,,,,,,,,,,,,,,,,,,,,
,,,,,WIN24_066,20,Male ,2024-02-22_13h56.14.243,jersey_experiment_5,2023.2.2,Win32,84.74576271,,,,,,,,,,,,,,,,260.8758,262.1698,262.1698,263.7345,return,0.4804,,63.02083333,,,,,,FBP-OG-19.png,0.45,1.2,15,0.5,0,8,8,14,1,,,,,,,,,,,,,,,,,,,,,,,,,,,,,,,,,,,,,,,,
,,,,,WIN24_066,20,Male ,2024-02-22_13h56.14.243,jersey_experiment_5,2023.2.2,Win32,84.74576271,,,,,,,,,,,,,,,,263.7347,265.5346,265.5346,267.4992,return,0.7014,,19.01041667,,,,,,FBP-YG-19.png,0.35,1.2,41,1,0,9,9,40,1,,,,,,,,,,,,,,,,,,,,,,,,,,,,,,,,,,,,,,,,
,,,,,WIN24_066,20,Male ,2024-02-22_13h56.14.243,jersey_experiment_5,2023.2.2,Win32,84.74576271,,,,,,,,,,,,,,,,267.4994,268.7935,268.7935,270.2406,return,0.4494,,30.20833333,,,,,,FBP-PT-91.png,0.4,1.2,58,0.5,0,10,10,57,1,,,,,,,,,,,,,,,,,,,,,,,,,,,,,,,,,,,,,,,,
,,,,,WIN24_066,20,Male ,2024-02-22_13h56.14.243,jersey_experiment_5,2023.2.2,Win32,84.74576271,,,,,,,,,,,,,,,,270.2409,271.5349,271.5349,272.5466,return,0.4704,,7.8125,,,,,,FBP-OG-18.png,0.35,1.2,6,0.5,0,11,11,5,1,,,,,,,,,,,,,,,,,,,,,,,,,,,,,,,,,,,,,,,,
,,,,,WIN24_066,20,Male ,2024-02-22_13h56.14.243,jersey_experiment_5,2023.2.2,Win32,84.74576271,,,,,,,,,,,,,,,,272.5469,273.8407,273.8408,275.2761,return,0.4542,,50.26041667,,,,,,FBP-PT-71.png,0.4,1.2,48,0.5,0,12,12,47,1,,,,,,,,,,,,,,,,,,,,,,,,,,,,,,,,,,,,,,,,
,,,,,WIN24_066,20,Male ,2024-02-22_13h56.14.243,jersey_experiment_5,2023.2.2,Win32,84.74576271,,,,,,,,,,,,,,,,275.2763,276.5703,276.5703,277.9703,return,0.4588,,25.52083333,,,,,,FBP-PT-81.png,0.35,1.2,51,0.5,0,13,13,50,1,,,,,,,,,,,,,,,,,,,,,,,,,,,,,,,,,,,,,,,,
,,,,,WIN24_066,20,Male ,2024-02-22_13h56.14.243,jersey_experiment_5,2023.2.2,Win32,84.74576271,,,,,,,,,,,,,,,,277.9705,279.7705,279.7705,281.4291,return,0.4704,,92.83854167,,,,,,FBP-RB-81.png,0.45,1.2,25,1,0,14,14,24,1,,,,,,,,,,,,,,,,,,,,,,,,,,,,,,,,,,,,,,,,
,,,,,WIN24_066,20,Male ,2024-02-22_13h56.14.243,jersey_experiment_5,2023.2.2,Win32,84.74576271,,,,,,,,,,,,,,,,281.4294,282.7233,282.7234,284.4646,return,0.5214,,70.05208333,,,,,,FBP-OG-17.png,0.4,1.2,3,0.5,0,15,15,2,1,,,,,,,,,,,,,,,,,,,,,,,,,,,,,,,,,,,,,,,,
,,,,,WIN24_066,20,Male ,2024-02-22_13h56.14.243,jersey_experiment_5,2023.2.2,Win32,84.74576271,,,,,,,,,,,,,,,,284.4648,286.2649,286.2649,287.3118,return,0.6268,,33.85416667,,,,,,FBP-YG-19.png,0.37,1.2,42,1,0,16,16,41,1,,,,,,,,,,,,,,,,,,,,,,,,,,,,,,,,,,,,,,,,
,,,,,WIN24_066,20,Male ,2024-02-22_13h56.14.243,jersey_experiment_5,2023.2.2,Win32,84.74576271,,,,,,,,,,,,,,,,287.312,288.6059,288.6059,290.253,return,0.4172,,25,,,,,,FBP-PT-81.png,0.37,1.2,52,0.5,0,17,17,51,1,,,,,,,,,,,,,,,,,,,,,,,,,,,,,,,,,,,,,,,,
,,,,,WIN24_066,20,Male ,2024-02-22_13h56.14.243,jersey_experiment_5,2023.2.2,Win32,84.74576271,,,,,,,,,,,,,,,,290.2532,292.0534,292.0534,293.0885,return,0.426,,74.86979167,,,,,,FBP-RB-71.png,0.45,1.2,20,1,0,18,18,19,1,,,,,,,,,,,,,,,,,,,,,,,,,,,,,,,,,,,,,,,,
,,,,,WIN24_066,20,Male ,2024-02-22_13h56.14.243,jersey_experiment_5,2023.2.2,Win32,84.74576271,,,,,,,,,,,,,,,,293.0887,294.3827,294.3827,295.2768,return,0.4663,,81.51041667,,,,,,FBP-PT-91.png,0.43,1.2,59,0.5,0,19,19,58,1,,,,,,,,,,,,,,,,,,,,,,,,,,,,,,,,,,,,,,,,
,,,,,WIN24_066,20,Male ,2024-02-22_13h56.14.243,jersey_experiment_5,2023.2.2,Win32,84.74576271,,,,,,,,,,,,,,,,295.277,297.0767,297.0767,298.018,return,0.507,,88.41145833,,,,,,FBP-YG-19.png,0.45,1.2,45,1,0,20,20,44,1,,,,,,,,,,,,,,,,,,,,,,,,,,,,,,,,,,,,,,,,
,,,,,WIN24_066,20,Male ,2024-02-22_13h56.14.243,jersey_experiment_5,2023.2.2,Win32,84.74576271,,,,,,,,,,,,,,,,298.0182,299.3122,299.3122,300.324,return,0.4805,,88.671875,,,,,,FBP-OG-17.png,0.45,1.2,5,0.5,0,21,21,4,1,,,,,,,,,,,,,,,,,,,,,,,,,,,,,,,,,,,,,,,,
,,,,,WIN24_066,20,Male ,2024-02-22_13h56.14.243,jersey_experiment_5,2023.2.2,Win32,84.74576271,,,,,,,,,,,,,,,,300.3242,302.1243,302.1244,303.1359,return,0.3925,,49.609375,,,,,,FBP-RB-71.png,0.37,1.2,17,1,0,22,22,16,1,,,,,,,,,,,,,,,,,,,,,,,,,,,,,,,,,,,,,,,,
,,,,,WIN24_066,20,Male ,2024-02-22_13h56.14.243,jersey_experiment_5,2023.2.2,Win32,84.74576271,,,,,,,,,,,,,,,,303.1361,304.43,304.4301,305.2654,return,0.4121,,49.609375,,,,,,FBP-PT-71.png,0.37,1.2,47,0.5,0,23,23,46,1,,,,,,,,,,,,,,,,,,,,,,,,,,,,,,,,,,,,,,,,
,,,,,WIN24_066,20,Male ,2024-02-22_13h56.14.243,jersey_experiment_5,2023.2.2,Win32,84.74576271,,,,,,,,,,,,,,,,305.2656,306.5595,306.5595,307.7714,return,0.431,,58.46354167,,,,,,FBP-OG-17.png,0.43,1.2,4,0.5,0,24,24,3,1,,,,,,,,,,,,,,,,,,,,,,,,,,,,,,,,,,,,,,,,
,,,,,WIN24_066,20,Male ,2024-02-22_13h56.14.243,jersey_experiment_5,2023.2.2,Win32,84.74576271,,,,,,,,,,,,,,,,307.7716,309.5714,309.5714,310.7008,return,0.5353,,21.74479167,,,,,,FBP-RB-71.png,0.35,1.2,16,1,0,25,25,15,1,,,,,,,,,,,,,,,,,,,,,,,,,,,,,,,,,,,,,,,,
,,,,,WIN24_066,20,Male ,2024-02-22_13h56.14.243,jersey_experiment_5,2023.2.2,Win32,84.74576271,,,,,,,,,,,,,,,,310.701,311.9949,311.9949,313.348,return,0.4456,,16.66666667,,,,,,FBP-OG-19.png,0.35,1.2,11,0.5,0,26,26,10,1,,,,,,,,,,,,,,,,,,,,,,,,,,,,,,,,,,,,,,,,
,,,,,WIN24_066,20,Male ,2024-02-22_13h56.14.243,jersey_experiment_5,2023.2.2,Win32,84.74576271,,,,,,,,,,,,,,,,313.3482,315.148,315.148,317.0894,return,0.425,,45.3125,,,,,,FBP-YG-18.png,0.4,1.2,38,1,0,27,27,37,1,,,,,,,,,,,,,,,,,,,,,,,,,,,,,,,,,,,,,,,,
,,,,,WIN24_066,20,Male ,2024-02-22_13h56.14.243,jersey_experiment_5,2023.2.2,Win32,84.74576271,,,,,,,,,,,,,,,,317.0895,318.8894,318.8894,319.9482,return,0.4186,,50.78125,,,,,,FBP-RB-81.png,0.4,1.2,23,1,0,28,28,22,1,,,,,,,,,,,,,,,,,,,,,,,,,,,,,,,,,,,,,,,,
,,,,,WIN24_066,20,Male ,2024-02-22_13h56.14.243,jersey_experiment_5,2023.2.2,Win32,84.74576271,,,,,,,,,,,,,,,,319.9483,321.7483,321.7483,322.6896,return,0.438,,74.34895833,,,,,,FBP-RB-91.png,0.43,1.2,29,1,0,29,29,28,1,,,,,,,,,,,,,,,,,,,,,,,,,,,,,,,,,,,,,,,,
,,,,,WIN24_066,20,Male ,2024-02-22_13h56.14.243,jersey_experiment_5,2023.2.2,Win32,84.74576271,,,,,,,,,,,,,,,,322.6898,323.9837,323.9837,325.2308,return,0.7105,,84.24479167,,,,,,FBP-PT-81.png,0.45,1.2,55,0.5,0,30,30,54,1,,,,,,,,,,,,,,,,,,,,,,,,,,,,,,,,,,,,,,,,
,,,,,WIN24_066,20,Male ,2024-02-22_13h56.14.243,jersey_experiment_5,2023.2.2,Win32,84.74576271,,,,,,,,,,,,,,,,325.231,327.0309,327.0309,327.8426,return,0.4851,,91.66666667,,,,,,FBP-YG-18.png,0.45,1.2,40,1,0,31,31,39,1,,,,,,,,,,,,,,,,,,,,,,,,,,,,,,,,,,,,,,,,
,,,,,WIN24_066,20,Male ,2024-02-22_13h56.14.243,jersey_experiment_5,2023.2.2,Win32,84.74576271,,,,,,,,,,,,,,,,327.8429,329.1368,329.1368,330.9487,return,0.5077,,75.65104167,,,,,,FBP-PT-81.png,0.43,1.2,54,0.5,0,32,32,53,1,,,,,,,,,,,,,,,,,,,,,,,,,,,,,,,,,,,,,,,,
,,,,,WIN24_066,20,Male ,2024-02-22_13h56.14.243,jersey_experiment_5,2023.2.2,Win32,84.74576271,,,,,,,,,,,,,,,,330.949,332.2428,332.2428,333.9957,return,0.4427,,49.86979167,,,,,,FBP-PT-91.png,0.37,1.2,57,0.5,0,33,33,56,1,,,,,,,,,,,,,,,,,,,,,,,,,,,,,,,,,,,,,,,,
,,,,,WIN24_066,20,Male ,2024-02-22_13h56.14.243,jersey_experiment_5,2023.2.2,Win32,84.74576271,,,,,,,,,,,,,,,,333.9959,335.29,335.29,337.4077,return,0.4751,,25.26041667,,,,,,FBP-PT-91.png,0.35,1.2,56,0.5,0,34,34,55,1,,,,,,,,,,,,,,,,,,,,,,,,,,,,,,,,,,,,,,,,
,,,,,WIN24_066,20,Male ,2024-02-22_13h56.14.243,jersey_experiment_5,2023.2.2,Win32,84.74576271,,,,,,,,,,,,,,,,337.4079,339.2077,339.2077,340.6431,return,0.4238,,48.95833333,,,,,,FBP-RB-71.png,0.43,1.2,19,1,0,35,35,18,1,,,,,,,,,,,,,,,,,,,,,,,,,,,,,,,,,,,,,,,,
,,,,,WIN24_066,20,Male ,2024-02-22_13h56.14.243,jersey_experiment_5,2023.2.2,Win32,84.74576271,,,,,,,,,,,,,,,,340.6433,342.4432,342.4432,343.5726,return,0.447,,9.635416667,,,,,,FBP-RB-81.png,0.35,1.2,21,1,0,36,36,20,1,,,,,,,,,,,,,,,,,,,,,,,,,,,,,,,,,,,,,,,,
,,,,,WIN24_066,20,Male ,2024-02-22_13h56.14.243,jersey_experiment_5,2023.2.2,Win32,84.74576271,,,,,,,,,,,,,,,,343.5727,345.3727,345.3727,346.5257,return,0.4524,,59.50520833,,,,,,FBP-YG-18.png,0.43,1.2,39,1,0,37,37,38,1,,,,,,,,,,,,,,,,,,,,,,,,,,,,,,,,,,,,,,,,
,,,,,WIN24_066,20,Male ,2024-02-22_13h56.14.243,jersey_experiment_5,2023.2.2,Win32,84.74576271,,,,,,,,,,,,,,,,346.526,347.8198,347.8198,348.7963,return,0.4185,,34.89583333,,,,,,FBP-OG-18.png,0.37,1.2,7,0.5,0,38,38,6,1,,,,,,,,,,,,,,,,,,,,,,,,,,,,,,,,,,,,,,,,
,,,,,WIN24_066,20,Male ,2024-02-22_13h56.14.243,jersey_experiment_5,2023.2.2,Win32,84.74576271,,,,,,,,,,,,,,,,348.7965,350.5966,350.5966,351.6433,return,0.4186,,11.328125,,,,,,FBP-RB-91.png,0.35,1.2,26,1,0,39,39,25,1,,,,,,,,,,,,,,,,,,,,,,,,,,,,,,,,,,,,,,,,
,,,,,WIN24_066,20,Male ,2024-02-22_13h56.14.243,jersey_experiment_5,2023.2.2,Win32,84.74576271,,,,,,,,,,,,,,,,351.6435,353.4436,353.4436,354.3495,return,0.4644,,35.9375,,,,,,FBP-RB-91.png,0.4,1.2,28,1,0,40,40,27,1,,,,,,,,,,,,,,,,,,,,,,,,,,,,,,,,,,,,,,,,
,,,,,WIN24_066,20,Male ,2024-02-22_13h56.14.243,jersey_experiment_5,2023.2.2,Win32,84.74576271,,,,,,,,,,,,,,,,354.3498,356.1496,356.1496,357.7025,return,0.4603,,49.08854167,,,,,,FBP-RB-71.png,0.4,1.2,18,1,0,41,41,17,1,,,,,,,,,,,,,,,,,,,,,,,,,,,,,,,,,,,,,,,,
,,,,,WIN24_066,20,Male ,2024-02-22_13h56.14.243,jersey_experiment_5,2023.2.2,Win32,84.74576271,,,,,,,,,,,,,,,,357.7027,358.9966,358.9966,361.3968,return,0.4844,,26.43229167,,,,,,FBP-OG-19.png,0.4,1.2,13,0.5,0,42,42,12,1,,,,,,,,,,,,,,,,,,,,,,,,,,,,,,,,,,,,,,,,
,,,,,WIN24_066,20,Male ,2024-02-22_13h56.14.243,jersey_experiment_5,2023.2.2,Win32,84.74576271,,,,,,,,,,,,,,,,361.397,363.1969,363.1969,364.7381,return,0.4845,,25,,,,,,FBP-YG-18.png,0.37,1.2,37,1,0,43,43,36,1,,,,,,,,,,,,,,,,,,,,,,,,,,,,,,,,,,,,,,,,
,,,,,WIN24_066,20,Male ,2024-02-22_13h56.14.243,jersey_experiment_5,2023.2.2,Win32,84.74576271,,,,,,,,,,,,,,,,364.7382,366.0321,366.0321,367.2792,return,0.4637,,5.078125,,,,,,FBP-OG-17.png,0.35,1.2,1,0.5,0,44,44,0,1,,,,,,,,,,,,,,,,,,,,,,,,,,,,,,,,,,,,,,,,
,,,,,WIN24_066,20,Male ,2024-02-22_13h56.14.243,jersey_experiment_5,2023.2.2,Win32,84.74576271,,,,,,,,,,,,,,,,367.2794,369.0795,369.0795,370.2088,return,0.4738,,72.91666667,,,,,,FBP-YG-17.png,0.45,1.2,35,1,0,45,45,34,1,,,,,,,,,,,,,,,,,,,,,,,,,,,,,,,,,,,,,,,,
,,,,,WIN24_066,20,Male ,2024-02-22_13h56.14.243,jersey_experiment_5,2023.2.2,Win32,84.74576271,,,,,,,,,,,,,,,,370.209,371.503,371.503,372.7736,return,0.4473,,27.34375,,,,,,FBP-OG-17.png,0.37,1.2,2,0.5,0,46,46,1,1,,,,,,,,,,,,,,,,,,,,,,,,,,,,,,,,,,,,,,,,
,,,,,WIN24_066,20,Male ,2024-02-22_13h56.14.243,jersey_experiment_5,2023.2.2,Win32,84.74576271,,,,,,,,,,,,,,,,372.7738,374.5738,374.5738,375.5855,return,0.4244,,65.10416667,,,,,,FBP-RB-91.png,0.45,1.2,30,1,0,47,47,29,1,,,,,,,,,,,,,,,,,,,,,,,,,,,,,,,,,,,,,,,,
,,,,,WIN24_066,20,Male ,2024-02-22_13h56.14.243,jersey_experiment_5,2023.2.2,Win32,84.74576271,,,,,,,,,,,,,,,,375.5858,376.8799,376.8799,378.2092,return,0.4267,,51.30208333,,,,,,FBP-OG-18.png,0.4,1.2,8,0.5,0,48,48,7,1,,,,,,,,,,,,,,,,,,,,,,,,,,,,,,,,,,,,,,,,
,,,,,WIN24_066,20,Male ,2024-02-22_13h56.14.243,jersey_experiment_5,2023.2.2,Win32,84.74576271,,,,,,,,,,,,,,,,378.2094,380.0092,380.0092,380.7387,return,0.4146,,66.015625,,,,,,FBP-YG-19.png,0.43,1.2,44,1,0,49,49,43,1,,,,,,,,,,,,,,,,,,,,,,,,,,,,,,,,,,,,,,,,
,,,,,WIN24_066,20,Male ,2024-02-22_13h56.14.243,jersey_experiment_5,2023.2.2,Win32,84.74576271,,,,,,,,,,,,,,,,380.7389,382.5386,382.5386,383.527,return,0.4237,,20.3125,,,,,,FBP-YG-17.png,0.35,1.2,31,1,0,50,50,30,1,,,,,,,,,,,,,,,,,,,,,,,,,,,,,,,,,,,,,,,,
,,,,,WIN24_066,20,Male ,2024-02-22_13h56.14.243,jersey_experiment_5,2023.2.2,Win32,84.74576271,,,,,,,,,,,,,,,,383.5271,384.8211,384.8212,386.7036,return,0.4047,,49.609375,,,,,,FBP-OG-18.png,0.43,1.2,9,0.5,0,51,51,8,1,,,,,,,,,,,,,,,,,,,,,,,,,,,,,,,,,,,,,,,,
,,,,,WIN24_066,20,Male ,2024-02-22_13h56.14.243,jersey_experiment_5,2023.2.2,Win32,84.74576271,,,,,,,,,,,,,,,,386.7037,388.5038,388.5038,389.3154,return,0.4336,,25.13020833,,,,,,FBP-YG-18.png,0.35,1.2,36,1,0,52,52,35,1,,,,,,,,,,,,,,,,,,,,,,,,,,,,,,,,,,,,,,,,
,,,,,WIN24_066,20,Male ,2024-02-22_13h56.14.243,jersey_experiment_5,2023.2.2,Win32,84.74576271,,,,,,,,,,,,,,,,389.3156,391.1155,391.1155,391.8685,return,0.3727,,16.015625,,,,,,FBP-RB-91.png,0.37,1.2,27,1,0,53,53,26,1,,,,,,,,,,,,,,,,,,,,,,,,,,,,,,,,,,,,,,,,
,,,,,WIN24_066,20,Male ,2024-02-22_13h56.14.243,jersey_experiment_5,2023.2.2,Win32,84.74576271,,,,,,,,,,,,,,,,391.8687,393.1628,393.1629,394.6214,return,0.4187,,65.49479167,,,,,,FBP-PT-71.png,0.45,1.2,50,0.5,0,54,54,49,1,,,,,,,,,,,,,,,,,,,,,,,,,,,,,,,,,,,,,,,,
,,,,,WIN24_066,20,Male ,2024-02-22_13h56.14.243,jersey_experiment_5,2023.2.2,Win32,84.74576271,,,,,,,,,,,,,,,,394.6217,395.9157,395.9157,396.8804,return,0.4486,,65.234375,,,,,,FBP-OG-19.png,0.43,1.2,14,0.5,0,55,55,13,1,,,,,,,,,,,,,,,,,,,,,,,,,,,,,,,,,,,,,,,,
,,,,,WIN24_066,20,Male ,2024-02-22_13h56.14.243,jersey_experiment_5,2023.2.2,Win32,84.74576271,,,,,,,,,,,,,,,,396.8806,398.1746,398.1746,399.2334,return,0.4253,,34.63541667,,,,,,FBP-PT-71.png,0.35,1.2,46,0.5,0,56,56,45,1,,,,,,,,,,,,,,,,,,,,,,,,,,,,,,,,,,,,,,,,
,,,,,WIN24_066,20,Male ,2024-02-22_13h56.14.243,jersey_experiment_5,2023.2.2,Win32,84.74576271,,,,,,,,,,,,,,,,399.2337,401.0334,401.0334,402.6453,return,0.39,,25,,,,,,FBP-RB-81.png,0.37,1.2,22,1,0,57,57,21,1,,,,,,,,,,,,,,,,,,,,,,,,,,,,,,,,,,,,,,,,
,,,,,WIN24_066,20,Male ,2024-02-22_13h56.14.243,jersey_experiment_5,2023.2.2,Win32,84.74576271,,,,,,,,,,,,,,,,402.6456,404.4453,404.4453,405.4571,return,0.3798,,50.65104167,,,,,,FBP-RB-81.png,0.43,1.2,24,1,0,58,58,23,1,,,,,,,,,,,,,,,,,,,,,,,,,,,,,,,,,,,,,,,,
,,,,,WIN24_066,20,Male ,2024-02-22_13h56.14.243,jersey_experiment_5,2023.2.2,Win32,84.74576271,,,,,,,,,,,,,,,,405.4572,406.7513,406.7513,407.9396,return,0.4131,,38.80208333,,,,,,FBP-OG-19.png,0.37,1.2,12,0.5,0,59,59,11,1,,,,,,,,,,,,,,,,,,,,,,,,,,,,,,,,,,,,,,,,
,,,,,WIN24_066,20,Male ,2024-02-22_13h56.14.243,jersey_experiment_5,2023.2.2,Win32,84.74576271,,,,,,,,,,,,,,,,,,,,,,,,,,,,,,,,,,,,,,,407.9399,527.9443,,,,,,,,,,,,,,,,,,,,,,,,,,,,,,,,,,,,,,
,,,,,WIN24_066,20,Male ,2024-02-22_13h56.14.243,jersey_experiment_5,2023.2.2,Win32,84.74576271,,,,,,,,,,,,,,,,,,,,,,,,,,,,,,,,,,,,,,,,,527.9444,533.0854,return,5.1351,,,,,,,,,,,,,,,,,,,,,,,,,,,,,,,,,,
,,,,,WIN24_066,20,Male ,2024-02-22_13h56.14.243,jersey_experiment_5,2023.2.2,Win32,84.74576271,,,,,,,,,,,,,,,,533.0919,534.3912,534.3914,536.4501,return,1.0375,,34.63541667,,,,,,FBP-YG-91.png,0.37,1.2,42,0.5,,,,,,,,,,,,,0,0,0,41,1,,,,,,,,,,,,,,,,,,,,,,,,,,,,
,,,,,WIN24_066,20,Male ,2024-02-22_13h56.14.243,jersey_experiment_5,2023.2.2,Win32,84.74576271,,,,,,,,,,,,,,,,536.4505,537.7441,537.7441,539.5325,return,0.4077,,23.4375,,,,,,FBP-RB-18.png,0.35,1.2,21,0.5,,,,,,,,,,,,,0,1,1,20,1,,,,,,,,,,,,,,,,,,,,,,,,,,,,
,,,,,WIN24_066,20,Male ,2024-02-22_13h56.14.243,jersey_experiment_5,2023.2.2,Win32,84.74576271,,,,,,,,,,,,,,,,539.5327,540.8267,540.8267,541.909,return,0.41,,37.890625,,,,,,FBP-RB-17.png,0.37,1.2,17,0.5,,,,,,,,,,,,,0,2,2,16,1,,,,,,,,,,,,,,,,,,,,,,,,,,,,
,,,,,WIN24_066,20,Male ,2024-02-22_13h56.14.243,jersey_experiment_5,2023.2.2,Win32,84.74576271,,,,,,,,,,,,,,,,541.9092,543.7091,543.7091,544.4386,return,0.3663,,33.984375,,,,,,FBP-OG-71.png,0.35,1.2,1,1,,,,,,,,,,,,,0,3,3,0,1,,,,,,,,,,,,,,,,,,,,,,,,,,,,
,,,,,WIN24_066,20,Male ,2024-02-22_13h56.14.243,jersey_experiment_5,2023.2.2,Win32,84.74576271,,,,,,,,,,,,,,,,544.4387,546.2386,546.2386,547.3093,return,0.4056,,38.15104167,,,,,,FBP-PT-19.png,0.37,1.2,57,1,,,,,,,,,,,,,0,4,4,56,1,,,,,,,,,,,,,,,,,,,,,,,,,,,,
,,,,,WIN24_066,20,Male ,2024-02-22_13h56.14.243,jersey_experiment_5,2023.2.2,Win32,84.74576271,,,,,,,,,,,,,,,,547.3095,549.1093,549.1093,550.3563,return,0.3393,,57.8125,,,,,,FBP-PT-17.png,0.43,1.2,49,1,,,,,,,,,,,,,0,5,5,48,1,,,,,,,,,,,,,,,,,,,,,,,,,,,,
,,,,,WIN24_066,20,Male ,2024-02-22_13h56.14.243,jersey_experiment_5,2023.2.2,Win32,84.74576271,,,,,,,,,,,,,,,,550.3565,552.1565,552.1565,552.8977,return,0.3896,,31.25,,,,,,FBP-PT-19.png,0.35,1.2,56,1,,,,,,,,,,,,,0,6,6,55,1,,,,,,,,,,,,,,,,,,,,,,,,,,,,
,,,,,WIN24_066,20,Male ,2024-02-22_13h56.14.243,jersey_experiment_5,2023.2.2,Win32,84.74576271,,,,,,,,,,,,,,,,552.8978,554.1918,554.1918,555.0272,return,0.4135,,21.09375,,,,,,FBP-YG-81.png,0.35,1.2,36,0.5,,,,,,,,,,,,,0,7,7,35,1,,,,,,,,,,,,,,,,,,,,,,,,,,,,
,,,,,WIN24_066,20,Male ,2024-02-22_13h56.14.243,jersey_experiment_5,2023.2.2,Win32,84.74576271,,,,,,,,,,,,,,,,555.0274,556.3215,556.3215,557.392,return,0.4043,,48.56770833,,,,,,FBP-YG-71.png,0.4,1.2,33,0.5,,,,,,,,,,,,,0,8,8,32,1,,,,,,,,,,,,,,,,,,,,,,,,,,,,
,,,,,WIN24_066,20,Male ,2024-02-22_13h56.14.243,jersey_experiment_5,2023.2.2,Win32,84.74576271,,,,,,,,,,,,,,,,557.3923,559.1921,559.1921,560.1331,return,0.4137,,49.34895833,,,,,,FBP-PT-17.png,0.37,1.2,47,1,,,,,,,,,,,,,0,9,9,46,1,,,,,,,,,,,,,,,,,,,,,,,,,,,,
,,,,,WIN24_066,20,Male ,2024-02-22_13h56.14.243,jersey_experiment_5,2023.2.2,Win32,84.74576271,,,,,,,,,,,,,,,,560.1334,561.4274,561.4274,564.0158,return,2.1443,,71.09375,,,,,,FBP-RB-18.png,0.4,1.2,23,0.5,,,,,,,,,,,,,0,10,10,22,1,,,,,,,,,,,,,,,,,,,,,,,,,,,,
,,,,,WIN24_066,20,Male ,2024-02-22_13h56.14.243,jersey_experiment_5,2023.2.2,Win32,84.74576271,,,,,,,,,,,,,,,,564.016,565.8159,565.816,566.5806,return,0.4373,,88.80208333,,,,,,FBP-OG-81.png,0.43,1.2,9,1,,,,,,,,,,,,,0,11,11,8,1,,,,,,,,,,,,,,,,,,,,,,,,,,,,
,,,,,WIN24_066,20,Male ,2024-02-22_13h56.14.243,jersey_experiment_5,2023.2.2,Win32,84.74576271,,,,,,,,,,,,,,,,566.5808,567.8748,567.8748,568.9571,return,0.4658,,95.96354167,,,,,,FBP-RB-18.png,0.45,1.2,25,0.5,,,,,,,,,,,,,0,12,12,24,1,,,,,,,,,,,,,,,,,,,,,,,,,,,,
,,,,,WIN24_066,20,Male ,2024-02-22_13h56.14.243,jersey_experiment_5,2023.2.2,Win32,84.74576271,,,,,,,,,,,,,,,,568.9573,570.2513,570.2513,571.6043,return,0.433,,29.42708333,,,,,,FBP-YG-81.png,0.37,1.2,37,0.5,,,,,,,,,,,,,0,13,13,36,1,,,,,,,,,,,,,,,,,,,,,,,,,,,,
,,,,,WIN24_066,20,Male ,2024-02-22_13h56.14.243,jersey_experiment_5,2023.2.2,Win32,84.74576271,,,,,,,,,,,,,,,,571.6043,573.4045,573.4045,574.4043,return,0.4234,,73.56770833,,,,,,FBP-OG-71.png,0.43,1.2,4,1,,,,,,,,,,,,,0,14,14,3,1,,,,,,,,,,,,,,,,,,,,,,,,,,,,
,,,,,WIN24_066,20,Male ,2024-02-22_13h56.14.243,jersey_experiment_5,2023.2.2,Win32,84.74576271,,,,,,,,,,,,,,,,574.4044,575.6984,575.6985,576.5574,return,0.4188,,80.33854167,,,,,,FBP-RB-18.png,0.43,1.2,24,0.5,,,,,,,,,,,,,0,15,15,23,1,,,,,,,,,,,,,,,,,,,,,,,,,,,,
,,,,,WIN24_066,20,Male ,2024-02-22_13h56.14.243,jersey_experiment_5,2023.2.2,Win32,84.74576271,,,,,,,,,,,,,,,,576.5575,577.8516,577.8516,579.9221,return,1.5099,,34.24479167,,,,,,FBP-YG-71.png,0.35,1.2,31,0.5,,,,,,,,,,,,,0,16,16,30,1,,,,,,,,,,,,,,,,,,,,,,,,,,,,
,,,,,WIN24_066,20,Male ,2024-02-22_13h56.14.243,jersey_experiment_5,2023.2.2,Win32,84.74576271,,,,,,,,,,,,,,,,579.9224,581.2163,581.2164,582.1458,return,0.4017,,45.05208333,,,,,,FBP-RB-19.png,0.35,1.2,26,0.5,,,,,,,,,,,,,0,17,17,25,1,,,,,,,,,,,,,,,,,,,,,,,,,,,,
,,,,,WIN24_066,20,Male ,2024-02-22_13h56.14.243,jersey_experiment_5,2023.2.2,Win32,84.74576271,,,,,,,,,,,,,,,,582.146,583.4399,583.44,584.7222,return,0.4348,,89.97395833,,,,,,FBP-YG-71.png,0.43,1.2,34,0.5,,,,,,,,,,,,,0,18,18,33,1,,,,,,,,,,,,,,,,,,,,,,,,,,,,
,,,,,WIN24_066,20,Male ,2024-02-22_13h56.14.243,jersey_experiment_5,2023.2.2,Win32,84.74576271,,,,,,,,,,,,,,,,584.7224,586.0166,586.0167,587.0283,return,0.4338,,96.74479167,,,,,,FBP-RB-19.png,0.43,1.2,29,0.5,,,,,,,,,,,,,0,19,19,28,1,,,,,,,,,,,,,,,,,,,,,,,,,,,,
,,,,,WIN24_066,20,Male ,2024-02-22_13h56.14.243,jersey_experiment_5,2023.2.2,Win32,84.74576271,,,,,,,,,,,,,,,,587.0285,588.3225,588.3225,589.6637,return,0.4145,,64.32291667,,,,,,FBP-RB-19.png,0.4,1.2,28,0.5,,,,,,,,,,,,,0,20,20,27,1,,,,,,,,,,,,,,,,,,,,,,,,,,,,
,,,,,WIN24_066,20,Male ,2024-02-22_13h56.14.243,jersey_experiment_5,2023.2.2,Win32,84.74576271,,,,,,,,,,,,,,,,589.664,591.4639,591.464,592.4521,return,0.401,,72.65625,,,,,,FBP-OG-81.png,0.4,1.2,8,1,,,,,,,,,,,,,0,21,21,7,1,,,,,,,,,,,,,,,,,,,,,,,,,,,,
,,,,,WIN24_066,20,Male ,2024-02-22_13h56.14.243,jersey_experiment_5,2023.2.2,Win32,84.74576271,,,,,,,,,,,,,,,,592.4523,593.7462,593.7462,596.5581,return,2.1945,,65.234375,,,,,,FBP-YG-91.png,0.4,1.2,43,0.5,,,,,,,,,,,,,0,22,22,42,1,,,,,,,,,,,,,,,,,,,,,,,,,,,,
,,,,,WIN24_066,20,Male ,2024-02-22_13h56.14.243,jersey_experiment_5,2023.2.2,Win32,84.74576271,,,,,,,,,,,,,,,,596.5582,598.3581,598.3581,599.311,return,0.4053,,85.15625,,,,,,FBP-OG-71.png,0.45,1.2,5,1,,,,,,,,,,,,,0,23,23,4,1,,,,,,,,,,,,,,,,,,,,,,,,,,,,
,,,,,WIN24_066,20,Male ,2024-02-22_13h56.14.243,jersey_experiment_5,2023.2.2,Win32,84.74576271,,,,,,,,,,,,,,,,599.3113,601.1113,601.1113,601.7818,return,0.3528,,91.40625,,,,,,FBP-OG-91.png,0.43,1.2,14,1,,,,,,,,,,,,,0,24,24,13,1,,,,,,,,,,,,,,,,,,,,,,,,,,,,
,,,,,WIN24_066,20,Male ,2024-02-22_13h56.14.243,jersey_experiment_5,2023.2.2,Win32,84.74576271,,,,,,,,,,,,,,,,601.782,603.5818,603.5819,604.3349,return,0.3567,,98.95833333,,,,,,FBP-PT-18.png,0.45,1.2,55,1,,,,,,,,,,,,,0,25,25,54,1,,,,,,,,,,,,,,,,,,,,,,,,,,,,
,,,,,WIN24_066,20,Male ,2024-02-22_13h56.14.243,jersey_experiment_5,2023.2.2,Win32,84.74576271,,,,,,,,,,,,,,,,604.335,606.1349,606.1349,607.3936,return,0.4144,,9.635416667,,,,,,FBP-OG-91.png,0.35,1.2,11,1,,,,,,,,,,,,,0,26,26,10,1,,,,,,,,,,,,,,,,,,,,,,,,,,,,
,,,,,WIN24_066,20,Male ,2024-02-22_13h56.14.243,jersey_experiment_5,2023.2.2,Win32,84.74576271,,,,,,,,,,,,,,,,607.3939,609.1938,609.1938,610.9469,return,0.3675,,49.47916667,,,,,,FBP-PT-18.png,0.4,1.2,53,1,,,,,,,,,,,,,0,27,27,52,1,,,,,,,,,,,,,,,,,,,,,,,,,,,,
,,,,,WIN24_066,20,Male ,2024-02-22_13h56.14.243,jersey_experiment_5,2023.2.2,Win32,84.74576271,,,,,,,,,,,,,,,,610.9471,612.241,612.241,613.4881,return,0.4266,,42.05729167,,,,,,FBP-RB-18.png,0.37,1.2,22,0.5,,,,,,,,,,,,,0,28,28,21,1,,,,,,,,,,,,,,,,,,,,,,,,,,,,
,,,,,WIN24_066,20,Male ,2024-02-22_13h56.14.243,jersey_experiment_5,2023.2.2,Win32,84.74576271,,,,,,,,,,,,,,,,613.4884,615.2883,615.2883,615.9233,return,0.33,,49.73958333,,,,,,FBP-OG-71.png,0.4,1.2,3,1,,,,,,,,,,,,,0,29,29,2,1,,,,,,,,,,,,,,,,,,,,,,,,,,,,
,,,,,WIN24_066,20,Male ,2024-02-22_13h56.14.243,jersey_experiment_5,2023.2.2,Win32,84.74576271,,,,,,,,,,,,,,,,615.9235,617.7235,617.7236,618.5235,return,0.3839,,29.55729167,,,,,,FBP-PT-17.png,0.35,1.2,46,1,,,,,,,,,,,,,0,30,30,45,1,,,,,,,,,,,,,,,,,,,,,,,,,,,,
,,,,,WIN24_066,20,Male ,2024-02-22_13h56.14.243,jersey_experiment_5,2023.2.2,Win32,84.74576271,,,,,,,,,,,,,,,,618.5236,619.8177,619.8178,620.9472,return,0.4384,,79.81770833,,,,,,FBP-YG-81.png,0.43,1.2,39,0.5,,,,,,,,,,,,,0,31,31,38,1,,,,,,,,,,,,,,,,,,,,,,,,,,,,
,,,,,WIN24_066,20,Male ,2024-02-22_13h56.14.243,jersey_experiment_5,2023.2.2,Win32,84.74576271,,,,,,,,,,,,,,,,620.9474,622.7472,622.7472,623.7591,return,0.4285,,24.86979167,,,,,,FBP-PT-18.png,0.35,1.2,51,1,,,,,,,,,,,,,0,32,32,50,1,,,,,,,,,,,,,,,,,,,,,,,,,,,,
,,,,,WIN24_066,20,Male ,2024-02-22_13h56.14.243,jersey_experiment_5,2023.2.2,Win32,84.74576271,,,,,,,,,,,,,,,,623.7593,625.5592,625.5592,626.5591,return,0.4523,,5.729166667,,,,,,FBP-OG-81.png,0.35,1.2,6,1,,,,,,,,,,,,,0,33,33,5,1,,,,,,,,,,,,,,,,,,,,,,,,,,,,
,,,,,WIN24_066,20,Male ,2024-02-22_13h56.14.243,jersey_experiment_5,2023.2.2,Win32,84.74576271,,,,,,,,,,,,,,,,626.5594,627.8533,627.8534,629.0768,return,0.4471,,89.19270833,,,,,,FBP-RB-19.png,0.45,1.2,30,0.5,,,,,,,,,,,,,0,34,34,29,1,,,,,,,,,,,,,,,,,,,,,,,,,,,,
,,,,,WIN24_066,20,Male ,2024-02-22_13h56.14.243,jersey_experiment_5,2023.2.2,Win32,84.74576271,,,,,,,,,,,,,,,,629.077,630.8771,630.8771,631.7241,return,0.4199,,83.984375,,,,,,FBP-PT-19.png,0.43,1.2,59,1,,,,,,,,,,,,,0,35,35,58,1,,,,,,,,,,,,,,,,,,,,,,,,,,,,
,,,,,WIN24_066,20,Male ,2024-02-22_13h56.14.243,jersey_experiment_5,2023.2.2,Win32,84.74576271,,,,,,,,,,,,,,,,631.7243,633.524,633.5241,634.983,return,0.447,,50.65104167,,,,,,FBP-OG-71.png,0.37,1.2,2,1,,,,,,,,,,,,,0,36,36,1,1,,,,,,,,,,,,,,,,,,,,,,,,,,,,
,,,,,WIN24_066,20,Male ,2024-02-22_13h56.14.243,jersey_experiment_5,2023.2.2,Win32,84.74576271,,,,,,,,,,,,,,,,634.9832,636.7831,636.7831,638.383,return,0.4025,,60.9375,,,,,,FBP-OG-91.png,0.4,1.2,13,1,,,,,,,,,,,,,0,37,37,12,1,,,,,,,,,,,,,,,,,,,,,,,,,,,,
,,,,,WIN24_066,20,Male ,2024-02-22_13h56.14.243,jersey_experiment_5,2023.2.2,Win32,84.74576271,,,,,,,,,,,,,,,,638.3832,640.1831,640.1831,641.3949,return,0.4139,,88.41145833,,,,,,FBP-PT-18.png,0.43,1.2,54,1,,,,,,,,,,,,,0,38,38,53,1,,,,,,,,,,,,,,,,,,,,,,,,,,,,
,,,,,WIN24_066,20,Male ,2024-02-22_13h56.14.243,jersey_experiment_5,2023.2.2,Win32,84.74576271,,,,,,,,,,,,,,,,641.3951,642.6894,642.6894,644.8069,return,0.3997,,50,,,,,,FBP-RB-19.png,0.37,1.2,27,0.5,,,,,,,,,,,,,0,39,39,26,1,,,,,,,,,,,,,,,,,,,,,,,,,,,,
,,,,,WIN24_066,20,Male ,2024-02-22_13h56.14.243,jersey_experiment_5,2023.2.2,Win32,84.74576271,,,,,,,,,,,,,,,,644.8071,646.1011,646.1011,647.6185,return,0.4485,,80.859375,,,,,,FBP-YG-91.png,0.43,1.2,44,0.5,,,,,,,,,,,,,0,40,40,43,1,,,,,,,,,,,,,,,,,,,,,,,,,,,,
,,,,,WIN24_066,20,Male ,2024-02-22_13h56.14.243,jersey_experiment_5,2023.2.2,Win32,84.74576271,,,,,,,,,,,,,,,,647.6188,649.4188,649.4188,651.2658,return,0.7316,,56.25,,,,,,FBP-OG-91.png,0.37,1.2,12,1,,,,,,,,,,,,,0,41,41,11,1,,,,,,,,,,,,,,,,,,,,,,,,,,,,
,,,,,WIN24_066,20,Male ,2024-02-22_13h56.14.243,jersey_experiment_5,2023.2.2,Win32,84.74576271,,,,,,,,,,,,,,,,651.2661,652.5601,652.5601,653.6543,return,0.437,,26.953125,,,,,,FBP-YG-91.png,0.35,1.2,41,0.5,,,,,,,,,,,,,0,42,42,40,1,,,,,,,,,,,,,,,,,,,,,,,,,,,,
,,,,,WIN24_066,20,Male ,2024-02-22_13h56.14.243,jersey_experiment_5,2023.2.2,Win32,84.74576271,,,,,,,,,,,,,,,,653.6545,655.4543,655.4543,656.1956,return,0.4,,25.390625,,,,,,FBP-OG-81.png,0.37,1.2,7,1,,,,,,,,,,,,,0,43,43,6,1,,,,,,,,,,,,,,,,,,,,,,,,,,,,
,,,,,WIN24_066,20,Male ,2024-02-22_13h56.14.243,jersey_experiment_5,2023.2.2,Win32,84.74576271,,,,,,,,,,,,,,,,656.1957,657.4898,657.4898,658.7955,return,0.4193,,94.01041667,,,,,,FBP-YG-71.png,0.45,1.2,35,0.5,,,,,,,,,,,,,0,44,44,34,1,,,,,,,,,,,,,,,,,,,,,,,,,,,,
,,,,,WIN24_066,20,Male ,2024-02-22_13h56.14.243,jersey_experiment_5,2023.2.2,Win32,84.74576271,,,,,,,,,,,,,,,,658.7957,660.5956,660.5956,661.3957,return,0.461,,83.72395833,,,,,,FBP-OG-91.png,0.45,1.2,15,1,,,,,,,,,,,,,0,45,45,14,1,,,,,,,,,,,,,,,,,,,,,,,,,,,,
,,,,,WIN24_066,20,Male ,2024-02-22_13h56.14.243,jersey_experiment_5,2023.2.2,Win32,84.74576271,,,,,,,,,,,,,,,,661.3959,662.6899,662.6899,665.6311,return,2.0973,,52.86458333,,,,,,FBP-YG-81.png,0.4,1.2,38,0.5,,,,,,,,,,,,,0,46,46,37,1,,,,,,,,,,,,,,,,,,,,,,,,,,,,
,,,,,WIN24_066,20,Male ,2024-02-22_13h56.14.243,jersey_experiment_5,2023.2.2,Win32,84.74576271,,,,,,,,,,,,,,,,665.6314,667.4311,667.4312,668.2077,return,0.381,,49.73958333,,,,,,FBP-PT-17.png,0.4,1.2,48,1,,,,,,,,,,,,,0,47,47,47,1,,,,,,,,,,,,,,,,,,,,,,,,,,,,
,,,,,WIN24_066,20,Male ,2024-02-22_13h56.14.243,jersey_experiment_5,2023.2.2,Win32,84.74576271,,,,,,,,,,,,,,,,668.2079,670.0078,670.0079,671.0902,return,0.3996,,75.13020833,,,,,,FBP-PT-19.png,0.45,1.2,60,1,,,,,,,,,,,,,0,48,48,59,1,,,,,,,,,,,,,,,,,,,,,,,,,,,,
,,,,,WIN24_066,20,Male ,2024-02-22_13h56.14.243,jersey_experiment_5,2023.2.2,Win32,84.74576271,,,,,,,,,,,,,,,,671.0904,672.3843,672.3844,673.9491,return,0.3603,,42.83854167,,,,,,FBP-YG-71.png,0.37,1.2,32,0.5,,,,,,,,,,,,,0,49,49,31,1,,,,,,,,,,,,,,,,,,,,,,,,,,,,
,,,,,WIN24_066,20,Male ,2024-02-22_13h56.14.243,jersey_experiment_5,2023.2.2,Win32,84.74576271,,,,,,,,,,,,,,,,673.9492,675.2432,675.2433,676.1728,return,0.4057,,81.25,,,,,,FBP-YG-91.png,0.45,1.2,45,0.5,,,,,,,,,,,,,0,50,50,44,1,,,,,,,,,,,,,,,,,,,,,,,,,,,,
,,,,,WIN24_066,20,Male ,2024-02-22_13h56.14.243,jersey_experiment_5,2023.2.2,Win32,84.74576271,,,,,,,,,,,,,,,,676.173,677.4671,677.4671,678.6905,return,0.3666,,25.26041667,,,,,,FBP-RB-17.png,0.35,1.2,16,0.5,,,,,,,,,,,,,0,51,51,15,1,,,,,,,,,,,,,,,,,,,,,,,,,,,,
,,,,,WIN24_066,20,Male ,2024-02-22_13h56.14.243,jersey_experiment_5,2023.2.2,Win32,84.74576271,,,,,,,,,,,,,,,,678.6907,680.4906,680.4906,681.314,return,0.4023,,49.73958333,,,,,,FBP-PT-19.png,0.4,1.2,58,1,,,,,,,,,,,,,0,52,52,57,1,,,,,,,,,,,,,,,,,,,,,,,,,,,,
,,,,,WIN24_066,20,Male ,2024-02-22_13h56.14.243,jersey_experiment_5,2023.2.2,Win32,84.74576271,,,,,,,,,,,,,,,,681.3142,682.6081,682.6081,683.3612,return,0.3428,,49.73958333,,,,,,FBP-RB-17.png,0.43,1.2,19,0.5,,,,,,,,,,,,,0,53,53,18,1,,,,,,,,,,,,,,,,,,,,,,,,,,,,
,,,,,WIN24_066,20,Male ,2024-02-22_13h56.14.243,jersey_experiment_5,2023.2.2,Win32,84.74576271,,,,,,,,,,,,,,,,683.3614,685.1613,685.1613,686.1142,return,0.3782,,75.78125,,,,,,FBP-PT-17.png,0.45,1.2,50,1,,,,,,,,,,,,,0,54,54,49,1,,,,,,,,,,,,,,,,,,,,,,,,,,,,
,,,,,WIN24_066,20,Male ,2024-02-22_13h56.14.243,jersey_experiment_5,2023.2.2,Win32,84.74576271,,,,,,,,,,,,,,,,686.1144,687.4083,687.4083,688.3849,return,0.4252,,84.89583333,,,,,,FBP-YG-81.png,0.45,1.2,40,0.5,,,,,,,,,,,,,0,55,55,39,1,,,,,,,,,,,,,,,,,,,,,,,,,,,,
,,,,,WIN24_066,20,Male ,2024-02-22_13h56.14.243,jersey_experiment_5,2023.2.2,Win32,84.74576271,,,,,,,,,,,,,,,,688.3851,690.1849,690.1849,691.0672,return,0.3967,,76.04166667,,,,,,FBP-OG-81.png,0.45,1.2,10,1,,,,,,,,,,,,,0,56,56,9,1,,,,,,,,,,,,,,,,,,,,,,,,,,,,
,,,,,WIN24_066,20,Male ,2024-02-22_13h56.14.243,jersey_experiment_5,2023.2.2,Win32,84.74576271,,,,,,,,,,,,,,,,691.0675,692.3614,692.3615,694.2911,return,1.3549,,72.78645833,,,,,,FBP-RB-17.png,0.4,1.2,18,0.5,,,,,,,,,,,,,0,57,57,17,1,,,,,,,,,,,,,,,,,,,,,,,,,,,,
,,,,,WIN24_066,20,Male ,2024-02-22_13h56.14.243,jersey_experiment_5,2023.2.2,Win32,84.74576271,,,,,,,,,,,,,,,,694.2912,695.5852,695.5852,696.8205,return,0.4097,,89.19270833,,,,,,FBP-RB-17.png,0.45,1.2,20,0.5,,,,,,,,,,,,,0,58,58,19,1,,,,,,,,,,,,,,,,,,,,,,,,,,,,
,,,,,WIN24_066,20,Male ,2024-02-22_13h56.14.243,jersey_experiment_5,2023.2.2,Win32,84.74576271,,,,,,,,,,,,,,,,696.8206,698.6207,698.6207,699.7971,return,0.4138,,35.15625,,,,,,FBP-PT-18.png,0.37,1.2,52,1,,,,,,,,,,,,,0,59,59,51,1,,,,,,,,,,,,,,,,,,,,,,,,,,,,
,,,,,WIN24_066,20,Male ,2024-02-22_13h56.14.243,jersey_experiment_5,2023.2.2,Win32,84.74576271,,,,,,,,,,,,,,,,699.7987,701.5971,701.5971,702.6913,return,0.4247,,22.13541667,,,,,,FBP-OG-18.png,0.37,1.2,7,1,,,,,,,,,,,,,,,,,,0,0,0,6,1,,,,,,,,,,,,,,,,,,,,,,,
,,,,,WIN24_066,20,Male ,2024-02-22_13h56.14.243,jersey_experiment_5,2023.2.2,Win32,84.74576271,,,,,,,,,,,,,,,,702.6916,703.9856,703.9856,705.1501,return,0.4532,,2.864583333,,,,,,FBP-YG-18.png,0.35,1.2,36,0.5,,,,,,,,,,,,,,,,,,0,1,1,35,1,,,,,,,,,,,,,,,,,,,,,,,
,,,,,WIN24_066,20,Male ,2024-02-22_13h56.14.243,jersey_experiment_5,2023.2.2,Win32,84.74576271,,,,,,,,,,,,,,,,705.1503,706.4443,706.4443,708.3738,return,0.386,,23.56770833,,,,,,FBP-YG-17.png,0.4,1.2,33,0.5,,,,,,,,,,,,,,,,,,0,2,2,32,1,,,,,,,,,,,,,,,,,,,,,,,
,,,,,WIN24_066,20,Male ,2024-02-22_13h56.14.243,jersey_experiment_5,2023.2.2,Win32,84.74576271,,,,,,,,,,,,,,,,708.374,710.1739,710.1739,711.2328,return,0.4251,,74.08854167,,,,,,FBP-PT-81.png,0.43,1.2,54,1,,,,,,,,,,,,,,,,,,0,3,3,53,1,,,,,,,,,,,,,,,,,,,,,,,
,,,,,WIN24_066,20,Male ,2024-02-22_13h56.14.243,jersey_experiment_5,2023.2.2,Win32,84.74576271,,,,,,,,,,,,,,,,711.2331,712.527,712.527,713.7976,return,0.4141,,60.80729167,,,,,,FBP-RB-81.png,0.4,1.2,23,0.5,,,,,,,,,,,,,,,,,,0,4,4,22,1,,,,,,,,,,,,,,,,,,,,,,,
,,,,,WIN24_066,20,Male ,2024-02-22_13h56.14.243,jersey_experiment_5,2023.2.2,Win32,84.74576271,,,,,,,,,,,,,,,,713.7979,715.5976,715.5976,716.48,return,0.4258,,40.234375,,,,,,FBP-PT-91.png,0.35,1.2,56,1,,,,,,,,,,,,,,,,,,0,5,5,55,1,,,,,,,,,,,,,,,,,,,,,,,
,,,,,WIN24_066,20,Male ,2024-02-22_13h56.14.243,jersey_experiment_5,2023.2.2,Win32,84.74576271,,,,,,,,,,,,,,,,716.4803,717.7743,717.7744,718.7507,return,0.4625,,69.79166667,,,,,,FBP-YG-17.png,0.43,1.2,34,0.5,,,,,,,,,,,,,,,,,,0,6,6,33,1,,,,,,,,,,,,,,,,,,,,,,,
,,,,,WIN24_066,20,Male ,2024-02-22_13h56.14.243,jersey_experiment_5,2023.2.2,Win32,84.74576271,,,,,,,,,,,,,,,,718.7508,720.5509,720.5509,721.4214,return,0.489,,32.68229167,,,,,,FBP-OG-18.png,0.35,1.2,6,1,,,,,,,,,,,,,,,,,,0,7,7,5,1,,,,,,,,,,,,,,,,,,,,,,,
,,,,,WIN24_066,20,Male ,2024-02-22_13h56.14.243,jersey_experiment_5,2023.2.2,Win32,84.74576271,,,,,,,,,,,,,,,,721.4217,722.7155,722.7155,725.4098,return,2.1905,,58.07291667,,,,,,FBP-RB-91.png,0.4,1.2,28,0.5,,,,,,,,,,,,,,,,,,0,8,8,27,1,,,,,,,,,,,,,,,,,,,,,,,
,,,,,WIN24_066,20,Male ,2024-02-22_13h56.14.243,jersey_experiment_5,2023.2.2,Win32,84.74576271,,,,,,,,,,,,,,,,725.41,726.7039,726.7039,728.2452,return,0.4854,,81.25,,,,,,FBP-RB-91.png,0.45,1.2,30,0.5,,,,,,,,,,,,,,,,,,0,9,9,29,1,,,,,,,,,,,,,,,,,,,,,,,
,,,,,WIN24_066,20,Male ,2024-02-22_13h56.14.243,jersey_experiment_5,2023.2.2,Win32,84.74576271,,,,,,,,,,,,,,,,728.2455,729.5395,729.5395,730.5628,return,0.4348,,29.03645833,,,,,,FBP-YG-17.png,0.35,1.2,31,0.5,,,,,,,,,,,,,,,,,,0,10,10,30,1,,,,,,,,,,,,,,,,,,,,,,,
,,,,,WIN24_066,20,Male ,2024-02-22_13h56.14.243,jersey_experiment_5,2023.2.2,Win32,84.74576271,,,,,,,,,,,,,,,,730.5631,732.3631,732.3631,733.1395,return,0.4013,,71.875,,,,,,FBP-OG-19.png,0.45,1.2,15,1,,,,,,,,,,,,,,,,,,0,11,11,14,1,,,,,,,,,,,,,,,,,,,,,,,
,,,,,WIN24_066,20,Male ,2024-02-22_13h56.14.243,jersey_experiment_5,2023.2.2,Win32,84.74576271,,,,,,,,,,,,,,,,733.1397,734.9394,734.9394,735.6925,return,0.4177,,81.640625,,,,,,FBP-PT-81.png,0.45,1.2,55,1,,,,,,,,,,,,,,,,,,0,12,12,54,1,,,,,,,,,,,,,,,,,,,,,,,
,,,,,WIN24_066,20,Male ,2024-02-22_13h56.14.243,jersey_experiment_5,2023.2.2,Win32,84.74576271,,,,,,,,,,,,,,,,735.6927,737.4925,737.4926,738.3514,return,0.405,,51.04166667,,,,,,FBP-OG-17.png,0.43,1.2,4,1,,,,,,,,,,,,,,,,,,0,13,13,3,1,,,,,,,,,,,,,,,,,,,,,,,
,,,,,WIN24_066,20,Male ,2024-02-22_13h56.14.243,jersey_experiment_5,2023.2.2,Win32,84.74576271,,,,,,,,,,,,,,,,738.3516,739.6455,739.6455,740.6457,return,0.3994,,65.234375,,,,,,FBP-RB-91.png,0.43,1.2,29,0.5,,,,,,,,,,,,,,,,,,0,14,14,28,1,,,,,,,,,,,,,,,,,,,,,,,
,,,,,WIN24_066,20,Male ,2024-02-22_13h56.14.243,jersey_experiment_5,2023.2.2,Win32,84.74576271,,,,,,,,,,,,,,,,740.6459,742.4456,742.4456,743.1869,return,0.3517,,37.63020833,,,,,,FBP-OG-17.png,0.37,1.2,2,1,,,,,,,,,,,,,,,,,,0,15,15,1,1,,,,,,,,,,,,,,,,,,,,,,,
,,,,,WIN24_066,20,Male ,2024-02-22_13h56.14.243,jersey_experiment_5,2023.2.2,Win32,84.74576271,,,,,,,,,,,,,,,,743.1871,744.9869,744.9869,745.7634,return,0.3769,,54.81770833,,,,,,FBP-OG-19.png,0.43,1.2,14,1,,,,,,,,,,,,,,,,,,0,16,16,13,1,,,,,,,,,,,,,,,,,,,,,,,
,,,,,WIN24_066,20,Male ,2024-02-22_13h56.14.243,jersey_experiment_5,2023.2.2,Win32,84.74576271,,,,,,,,,,,,,,,,745.7636,747.5636,747.5636,748.3047,return,0.3563,,50.13020833,,,,,,FBP-PT-91.png,0.4,1.2,58,1,,,,,,,,,,,,,,,,,,0,17,17,57,1,,,,,,,,,,,,,,,,,,,,,,,
,,,,,WIN24_066,20,Male ,2024-02-22_13h56.14.243,jersey_experiment_5,2023.2.2,Win32,84.74576271,,,,,,,,,,,,,,,,748.3049,749.5987,749.5987,750.4342,return,0.3673,,29.42708333,,,,,,FBP-YG-18.png,0.37,1.2,37,0.5,,,,,,,,,,,,,,,,,,0,18,18,36,1,,,,,,,,,,,,,,,,,,,,,,,
,,,,,WIN24_066,20,Male ,2024-02-22_13h56.14.243,jersey_experiment_5,2023.2.2,Win32,84.74576271,,,,,,,,,,,,,,,,750.4344,752.2342,752.2342,753.1872,return,0.4147,,48.828125,,,,,,FBP-OG-18.png,0.43,1.2,9,1,,,,,,,,,,,,,,,,,,0,19,19,8,1,,,,,,,,,,,,,,,,,,,,,,,
,,,,,WIN24_066,20,Male ,2024-02-22_13h56.14.243,jersey_experiment_5,2023.2.2,Win32,84.74576271,,,,,,,,,,,,,,,,753.1874,754.9872,754.9872,755.9402,return,0.414,,77.86458333,,,,,,FBP-OG-17.png,0.45,1.2,5,1,,,,,,,,,,,,,,,,,,0,20,20,4,1,,,,,,,,,,,,,,,,,,,,,,,
,,,,,WIN24_066,20,Male ,2024-02-22_13h56.14.243,jersey_experiment_5,2023.2.2,Win32,84.74576271,,,,,,,,,,,,,,,,755.9403,757.2345,757.2346,758.1872,return,0.3716,,11.06770833,,,,,,FBP-YG-19.png,0.35,1.2,41,0.5,,,,,,,,,,,,,,,,,,0,21,21,40,1,,,,,,,,,,,,,,,,,,,,,,,
,,,,,WIN24_066,20,Male ,2024-02-22_13h56.14.243,jersey_experiment_5,2023.2.2,Win32,84.74576271,,,,,,,,,,,,,,,,758.1875,759.4815,759.4815,761.9875,return,1.8342,,47.13541667,,,,,,FBP-RB-71.png,0.4,1.2,18,0.5,,,,,,,,,,,,,,,,,,0,22,22,17,1,,,,,,,,,,,,,,,,,,,,,,,
,,,,,WIN24_066,20,Male ,2024-02-22_13h56.14.243,jersey_experiment_5,2023.2.2,Win32,84.74576271,,,,,,,,,,,,,,,,761.9878,763.7876,763.7876,764.4934,return,0.4067,,27.86458333,,,,,,FBP-PT-71.png,0.35,1.2,46,1,,,,,,,,,,,,,,,,,,0,23,23,45,1,,,,,,,,,,,,,,,,,,,,,,,
,,,,,WIN24_066,20,Male ,2024-02-22_13h56.14.243,jersey_experiment_5,2023.2.2,Win32,84.74576271,,,,,,,,,,,,,,,,764.4936,765.7876,765.7876,766.5876,return,0.3379,,42.05729167,,,,,,FBP-RB-81.png,0.37,1.2,22,0.5,,,,,,,,,,,,,,,,,,0,24,24,21,1,,,,,,,,,,,,,,,,,,,,,,,
,,,,,WIN24_066,20,Male ,2024-02-22_13h56.14.243,jersey_experiment_5,2023.2.2,Win32,84.74576271,,,,,,,,,,,,,,,,766.5877,767.8818,767.8818,769.0584,return,0.3784,,75.65104167,,,,,,FBP-YG-19.png,0.43,1.2,44,0.5,,,,,,,,,,,,,,,,,,0,25,25,43,1,,,,,,,,,,,,,,,,,,,,,,,
,,,,,WIN24_066,20,Male ,2024-02-22_13h56.14.243,jersey_experiment_5,2023.2.2,Win32,84.74576271,,,,,,,,,,,,,,,,769.0586,770.8585,770.8585,772.6702,return,1.4155,,39.71354167,,,,,,FBP-PT-91.png,0.37,1.2,57,1,,,,,,,,,,,,,,,,,,0,26,26,56,1,,,,,,,,,,,,,,,,,,,,,,,
,,,,,WIN24_066,20,Male ,2024-02-22_13h56.14.243,jersey_experiment_5,2023.2.2,Win32,84.74576271,,,,,,,,,,,,,,,,772.6703,773.9646,773.9647,774.788,return,0.3532,,49.08854167,,,,,,FBP-YG-19.png,0.4,1.2,43,0.5,,,,,,,,,,,,,,,,,,0,27,27,42,1,,,,,,,,,,,,,,,,,,,,,,,
,,,,,WIN24_066,20,Male ,2024-02-22_13h56.14.243,jersey_experiment_5,2023.2.2,Win32,84.74576271,,,,,,,,,,,,,,,,774.7882,776.5881,776.5881,777.1881,return,0.3298,,49.08854167,,,,,,FBP-PT-71.png,0.4,1.2,48,1,,,,,,,,,,,,,,,,,,0,28,28,47,1,,,,,,,,,,,,,,,,,,,,,,,
,,,,,WIN24_066,20,Male ,2024-02-22_13h56.14.243,jersey_experiment_5,2023.2.2,Win32,84.74576271,,,,,,,,,,,,,,,,777.1883,778.4823,778.4823,779.3646,return,0.3529,,34.375,,,,,,FBP-RB-91.png,0.37,1.2,27,0.5,,,,,,,,,,,,,,,,,,0,29,29,26,1,,,,,,,,,,,,,,,,,,,,,,,
,,,,,WIN24_066,20,Male ,2024-02-22_13h56.14.243,jersey_experiment_5,2023.2.2,Win32,84.74576271,,,,,,,,,,,,,,,,779.3649,781.1646,781.1646,781.9883,return,0.3059,,49.34895833,,,,,,FBP-OG-19.png,0.4,1.2,13,1,,,,,,,,,,,,,,,,,,0,30,30,12,1,,,,,,,,,,,,,,,,,,,,,,,
,,,,,WIN24_066,20,Male ,2024-02-22_13h56.14.243,jersey_experiment_5,2023.2.2,Win32,84.74576271,,,,,,,,,,,,,,,,781.9885,783.2825,783.2825,784.1648,return,0.4334,,41.015625,,,,,,FBP-RB-71.png,0.35,1.2,16,0.5,,,,,,,,,,,,,,,,,,0,31,31,15,1,,,,,,,,,,,,,,,,,,,,,,,
,,,,,WIN24_066,20,Male ,2024-02-22_13h56.14.243,jersey_experiment_5,2023.2.2,Win32,84.74576271,,,,,,,,,,,,,,,,784.1651,785.9649,785.9649,787.3884,return,0.5724,,50.52083333,,,,,,FBP-OG-17.png,0.4,1.2,3,1,,,,,,,,,,,,,,,,,,0,32,32,2,1,,,,,,,,,,,,,,,,,,,,,,,
,,,,,WIN24_066,20,Male ,2024-02-22_13h56.14.243,jersey_experiment_5,2023.2.2,Win32,84.74576271,,,,,,,,,,,,,,,,787.3886,789.1886,789.1886,789.8709,return,0.3565,,74.21875,,,,,,FBP-OG-18.png,0.45,1.2,10,1,,,,,,,,,,,,,,,,,,0,33,33,9,1,,,,,,,,,,,,,,,,,,,,,,,
,,,,,WIN24_066,20,Male ,2024-02-22_13h56.14.243,jersey_experiment_5,2023.2.2,Win32,84.74576271,,,,,,,,,,,,,,,,789.8711,791.1652,791.1652,792.1416,return,0.322,,50,,,,,,FBP-YG-19.png,0.45,1.2,45,0.5,,,,,,,,,,,,,,,,,,0,34,34,44,1,,,,,,,,,,,,,,,,,,,,,,,
,,,,,WIN24_066,20,Male ,2024-02-22_13h56.14.243,jersey_experiment_5,2023.2.2,Win32,84.74576271,,,,,,,,,,,,,,,,792.1418,793.9417,793.9417,794.6122,return,0.353,,50,,,,,,FBP-OG-18.png,0.4,1.2,8,1,,,,,,,,,,,,,,,,,,0,35,35,7,1,,,,,,,,,,,,,,,,,,,,,,,
,,,,,WIN24_066,20,Male ,2024-02-22_13h56.14.243,jersey_experiment_5,2023.2.2,Win32,84.74576271,,,,,,,,,,,,,,,,794.6124,795.9064,795.9064,796.9182,return,0.3626,,85.28645833,,,,,,FBP-RB-81.png,0.45,1.2,25,0.5,,,,,,,,,,,,,,,,,,0,36,36,24,1,,,,,,,,,,,,,,,,,,,,,,,
,,,,,WIN24_066,20,Male ,2024-02-22_13h56.14.243,jersey_experiment_5,2023.2.2,Win32,84.74576271,,,,,,,,,,,,,,,,796.9184,798.7183,798.7184,799.5419,return,0.4373,,93.61979167,,,,,,FBP-PT-91.png,0.45,1.2,60,1,,,,,,,,,,,,,,,,,,0,37,37,59,1,,,,,,,,,,,,,,,,,,,,,,,
,,,,,WIN24_066,20,Male ,2024-02-22_13h56.14.243,jersey_experiment_5,2023.2.2,Win32,84.74576271,,,,,,,,,,,,,,,,799.5422,801.3418,801.3419,802.2948,return,0.6256,,15.36458333,,,,,,FBP-OG-19.png,0.35,1.2,11,1,,,,,,,,,,,,,,,,,,0,38,38,10,1,,,,,,,,,,,,,,,,,,,,,,,
,,,,,WIN24_066,20,Male ,2024-02-22_13h56.14.243,jersey_experiment_5,2023.2.2,Win32,84.74576271,,,,,,,,,,,,,,,,802.2949,804.095,804.0951,804.9773,return,0.3775,,80.98958333,,,,,,FBP-PT-71.png,0.43,1.2,49,1,,,,,,,,,,,,,,,,,,0,39,39,48,1,,,,,,,,,,,,,,,,,,,,,,,
,,,,,WIN24_066,20,Male ,2024-02-22_13h56.14.243,jersey_experiment_5,2023.2.2,Win32,84.74576271,,,,,,,,,,,,,,,,804.9775,806.2715,806.2715,807.4126,return,0.3633,,94.01041667,,,,,,FBP-RB-71.png,0.45,1.2,20,0.5,,,,,,,,,,,,,,,,,,0,40,40,19,1,,,,,,,,,,,,,,,,,,,,,,,
,,,,,WIN24_066,20,Male ,2024-02-22_13h56.14.243,jersey_experiment_5,2023.2.2,Win32,84.74576271,,,,,,,,,,,,,,,,807.4128,808.7069,808.707,809.6364,return,0.3435,,79.296875,,,,,,FBP-YG-18.png,0.43,1.2,39,0.5,,,,,,,,,,,,,,,,,,0,41,41,38,1,,,,,,,,,,,,,,,,,,,,,,,
,,,,,WIN24_066,20,Male ,2024-02-22_13h56.14.243,jersey_experiment_5,2023.2.2,Win32,84.74576271,,,,,,,,,,,,,,,,809.6366,810.9307,810.9308,811.6835,return,0.3666,,94.66145833,,,,,,FBP-YG-17.png,0.45,1.2,35,0.5,,,,,,,,,,,,,,,,,,0,42,42,34,1,,,,,,,,,,,,,,,,,,,,,,,
,,,,,WIN24_066,20,Male ,2024-02-22_13h56.14.243,jersey_experiment_5,2023.2.2,Win32,84.74576271,,,,,,,,,,,,,,,,811.6836,813.4835,813.4835,815.9661,return,1.7591,,47.265625,,,,,,FBP-PT-81.png,0.37,1.2,52,1,,,,,,,,,,,,,,,,,,0,43,43,51,1,,,,,,,,,,,,,,,,,,,,,,,
,,,,,WIN24_066,20,Male ,2024-02-22_13h56.14.243,jersey_experiment_5,2023.2.2,Win32,84.74576271,,,,,,,,,,,,,,,,815.9663,817.2601,817.2602,818.2367,return,0.4644,,75.78125,,,,,,FBP-RB-71.png,0.43,1.2,19,0.5,,,,,,,,,,,,,,,,,,0,44,44,18,1,,,,,,,,,,,,,,,,,,,,,,,
,,,,,WIN24_066,20,Male ,2024-02-22_13h56.14.243,jersey_experiment_5,2023.2.2,Win32,84.74576271,,,,,,,,,,,,,,,,818.2368,820.0367,820.0367,820.9426,return,0.392,,30.98958333,,,,,,FBP-PT-71.png,0.37,1.2,47,1,,,,,,,,,,,,,,,,,,0,45,45,46,1,,,,,,,,,,,,,,,,,,,,,,,
,,,,,WIN24_066,20,Male ,2024-02-22_13h56.14.243,jersey_experiment_5,2023.2.2,Win32,84.74576271,,,,,,,,,,,,,,,,820.9429,822.7427,822.7427,824.0132,return,0.3717,,24.609375,,,,,,FBP-OG-19.png,0.37,1.2,12,1,,,,,,,,,,,,,,,,,,0,46,46,11,1,,,,,,,,,,,,,,,,,,,,,,,
,,,,,WIN24_066,20,Male ,2024-02-22_13h56.14.243,jersey_experiment_5,2023.2.2,Win32,84.74576271,,,,,,,,,,,,,,,,824.0135,825.3075,825.3075,826.5663,return,0.3408,,48.95833333,,,,,,FBP-YG-18.png,0.4,1.2,38,0.5,,,,,,,,,,,,,,,,,,0,47,47,37,1,,,,,,,,,,,,,,,,,,,,,,,
,,,,,WIN24_066,20,Male ,2024-02-22_13h56.14.243,jersey_experiment_5,2023.2.2,Win32,84.74576271,,,,,,,,,,,,,,,,826.5665,827.8605,827.8605,828.837,return,0.3896,,24.47916667,,,,,,FBP-RB-91.png,0.35,1.2,26,0.5,,,,,,,,,,,,,,,,,,0,48,48,25,1,,,,,,,,,,,,,,,,,,,,,,,
,,,,,WIN24_066,20,Male ,2024-02-22_13h56.14.243,jersey_experiment_5,2023.2.2,Win32,84.74576271,,,,,,,,,,,,,,,,828.8372,830.6372,830.6372,831.6842,return,0.4138,,84.375,,,,,,FBP-PT-91.png,0.43,1.2,59,1,,,,,,,,,,,,,,,,,,0,49,49,58,1,,,,,,,,,,,,,,,,,,,,,,,
,,,,,WIN24_066,20,Male ,2024-02-22_13h56.14.243,jersey_experiment_5,2023.2.2,Win32,84.74576271,,,,,,,,,,,,,,,,831.6844,832.9786,832.9786,833.9078,return,0.4003,,27.21354167,,,,,,FBP-YG-17.png,0.37,1.2,32,0.5,,,,,,,,,,,,,,,,,,0,50,50,31,1,,,,,,,,,,,,,,,,,,,,,,,
,,,,,WIN24_066,20,Male ,2024-02-22_13h56.14.243,jersey_experiment_5,2023.2.2,Win32,84.74576271,,,,,,,,,,,,,,,,833.908,835.2019,835.2019,837.4844,return,1.759,,30.859375,,,,,,FBP-YG-19.png,0.37,1.2,42,0.5,,,,,,,,,,,,,,,,,,0,51,51,41,1,,,,,,,,,,,,,,,,,,,,,,,
,,,,,WIN24_066,20,Male ,2024-02-22_13h56.14.243,jersey_experiment_5,2023.2.2,Win32,84.74576271,,,,,,,,,,,,,,,,837.4845,839.2845,839.2845,840.5787,return,0.4374,,18.359375,,,,,,FBP-OG-17.png,0.35,1.2,1,1,,,,,,,,,,,,,,,,,,0,52,52,0,1,,,,,,,,,,,,,,,,,,,,,,,
,,,,,WIN24_066,20,Male ,2024-02-22_13h56.14.243,jersey_experiment_5,2023.2.2,Win32,84.74576271,,,,,,,,,,,,,,,,840.5789,841.8728,841.8729,843.2847,return,0.5416,,81.11979167,,,,,,FBP-RB-81.png,0.43,1.2,24,0.5,,,,,,,,,,,,,,,,,,0,53,53,23,1,,,,,,,,,,,,,,,,,,,,,,,
,,,,,WIN24_066,20,Male ,2024-02-22_13h56.14.243,jersey_experiment_5,2023.2.2,Win32,84.74576271,,,,,,,,,,,,,,,,843.2849,845.0846,845.0846,846.3553,return,0.6226,,76.04166667,,,,,,FBP-PT-81.png,0.4,1.2,53,1,,,,,,,,,,,,,,,,,,0,54,54,52,1,,,,,,,,,,,,,,,,,,,,,,,
,,,,,WIN24_066,20,Male ,2024-02-22_13h56.14.243,jersey_experiment_5,2023.2.2,Win32,84.74576271,,,,,,,,,,,,,,,,846.3554,847.6495,847.6495,848.7553,return,0.4106,,30.98958333,,,,,,FBP-RB-81.png,0.35,1.2,21,0.5,,,,,,,,,,,,,,,,,,0,55,55,20,1,,,,,,,,,,,,,,,,,,,,,,,
,,,,,WIN24_066,20,Male ,2024-02-22_13h56.14.243,jersey_experiment_5,2023.2.2,Win32,84.74576271,,,,,,,,,,,,,,,,848.7554,850.5553,850.5554,851.2849,return,0.4373,,26.5625,,,,,,FBP-PT-81.png,0.35,1.2,51,1,,,,,,,,,,,,,,,,,,0,56,56,50,1,,,,,,,,,,,,,,,,,,,,,,,
,,,,,WIN24_066,20,Male ,2024-02-22_13h56.14.243,jersey_experiment_5,2023.2.2,Win32,84.74576271,,,,,,,,,,,,,,,,851.2851,852.5791,852.5791,853.7909,return,0.4996,,86.06770833,,,,,,FBP-YG-18.png,0.45,1.2,40,0.5,,,,,,,,,,,,,,,,,,0,57,57,39,1,,,,,,,,,,,,,,,,,,,,,,,
,,,,,WIN24_066,20,Male ,2024-02-22_13h56.14.243,jersey_experiment_5,2023.2.2,Win32,84.74576271,,,,,,,,,,,,,,,,853.791,855.0852,855.0852,856.1086,return,0.4195,,54.42708333,,,,,,FBP-RB-71.png,0.37,1.2,17,0.5,,,,,,,,,,,,,,,,,,0,58,58,16,1,,,,,,,,,,,,,,,,,,,,,,,
,,,,,WIN24_066,20,Male ,2024-02-22_13h56.14.243,jersey_experiment_5,2023.2.2,Win32,84.74576271,,,,,,,,,,,,,,,,856.1088,857.9087,857.9087,859.0735,return,0.5557,,82.55208333,,,,,,FBP-PT-71.png,0.45,1.2,50,1,,,,,,,,,,,,,,,,,,0,59,59,49,1,,,,,,,,,,,,,,,,,,,,,,,
,,,,,WIN24_066,20,Male ,2024-02-22_13h56.14.243,jersey_experiment_5,2023.2.2,Win32,84.74576271,,,,,,,,,,,,,,,,,,,,,,,,,,,,,,,,,,,,,,,,,,,,,,,,,,,,,,,,859.0738,864.8857,return,5.8022,,,,,,,,,,,,,,,,,,,
,,,,,WIN24_066,20,Male ,2024-02-22_13h56.14.243,jersey_experiment_5,2023.2.2,Win32,84.74576271,,,,,,,,,,,,,,,,,,,,,,,,,,,,,,,,,,,,,,,,,,,,,,,,,,,,,,,,,,,,,864.8857,872.0504,1,6.4014,return,0.7399,,,,,,,,,,,,
,,,,,WIN24_066,20,Male ,2024-02-22_13h56.14.243,jersey_experiment_5,2023.2.2,Win32,84.74576271,,,,,,,,,,,,,,,,,,,,,,,,,,,,,,,,,,,,,,,,,,,,,,,,,,,,,,,,,,,,,,,,,,,,872.0505,895.8564,"No, I did not",right,11.0628,,,,,,
,,,,,WIN24_066,20,Male ,2024-02-22_13h56.14.243,jersey_experiment_5,2023.2.2,Win32,84.74576271,,,,,,,,,,,,,,,,,,,,,,,,,,,,,,,,,,,,,,,,,,,,,,,,,,,,,,,,,,,,,,,,,,,,,,,,,,895.8564,899.3455,return,3.4793,