requirements.started,requirements.stopped,key_resp_3.keys,key_resp_3.rt,key_resp_3.duration,Subject ID,Age,Gender,date,expName,psychopyVersion,OS,frameRate,instructions1.started,instructions1.stopped,key_resp.keys,key_resp.rt,key_resp.duration,example.started,example.stopped,enter_2.keys,enter_2.rt,enter_2.duration,instructions2.started,instructions2.stopped,enter_3.keys,enter_3.rt,enter_3.duration,image.started,image.stopped,slider_2.started,slider_2.stopped,next.keys,next.rt,next.duration,slider.response,trial_block_1.thisRepN,trial_block_1.thisTrialN,trial_block_1.thisN,trial_block_1.thisIndex,trial_block_1.ran,Path,Width,Height,Index,Duration,trial_block_2.thisRepN,trial_block_2.thisTrialN,trial_block_2.thisN,trial_block_2.thisIndex,trial_block_2.ran,rest_break.started,rest_break.stopped,end_break.started,end_break.stopped,key_resp_5.keys,key_resp_5.rt,key_resp_5.duration,trial_block_3.thisRepN,trial_block_3.thisTrialN,trial_block_3.thisN,trial_block_3.thisIndex,trial_block_3.ran,trial_block_4.thisRepN,trial_block_4.thisTrialN,trial_block_4.thisN,trial_block_4.thisIndex,trial_block_4.ran,questions_intro.started,questions_intro.stopped,enter_12.keys,enter_12.rt,enter_12.duration,question2.started,question2.stopped,question_doingbest.response,question_doingbest.rt,enter_15.keys,enter_15.rt,enter_15.duration,pattern.started,pattern.stopped,pattern_2.text,enter_17.keys,enter_17.rt,enter_17.duration,thankyou.started,thankyou.stopped,enter_14.keys,enter_14.rt,enter_14.duration
0.0001,13.5884,return,13.5793,,WIN24_045,19,Female,2024-02-09_11h03.22.390,jersey_experiment_5,2023.2.2,Win32,85.47008547,,,,,,,,,,,,,,,,,,,,,,,,,,,,,,,,,,,,,,,,,,,,,,,,,,,,,,,,,,,,,,,,,,,,,,,,,,,,,,
,,,,,WIN24_045,19,Female,2024-02-09_11h03.22.390,jersey_experiment_5,2023.2.2,Win32,85.47008547,13.5886,25.029,return,11.4258,,,,,,,,,,,,,,,,,,,,,,,,,,,,,,,,,,,,,,,,,,,,,,,,,,,,,,,,,,,,,,,,,,,,,,,,,,
,,,,,WIN24_045,19,Female,2024-02-09_11h03.22.390,jersey_experiment_5,2023.2.2,Win32,85.47008547,,,,,,25.0291,36.2865,return,11.2274,,,,,,,,,,,,,,,,,,,,,,,,,,,,,,,,,,,,,,,,,,,,,,,,,,,,,,,,,,,,,,,,,,,,,
,,,,,WIN24_045,19,Female,2024-02-09_11h03.22.390,jersey_experiment_5,2023.2.2,Win32,85.47008547,,,,,,,,,,,36.2865,86.7088,return,50.4024,,,,,,,,,,,,,,,,,,,,,,,,,,,,,,,,,,,,,,,,,,,,,,,,,,,,,,,,,,,,,,,,
,,,,,WIN24_045,19,Female,2024-02-09_11h03.22.390,jersey_experiment_5,2023.2.2,Win32,85.47008547,,,,,,,,,,,,,,,,86.7157,88.0187,88.0187,114.0862,return,4.7866,,37.5,0,0,0,11,1,FBP-OG-91.png,0.37,1.2,12,0.5,,,,,,,,,,,,,,,,,,,,,,,,,,,,,,,,,,,,,,,,,,,,,
,,,,,WIN24_045,19,Female,2024-02-09_11h03.22.390,jersey_experiment_5,2023.2.2,Win32,85.47008547,,,,,,,,,,,,,,,,114.0905,115.8861,115.8861,129.0509,return,6.0185,,91.53645833,0,1,1,27,1,FBP-RB-19.png,0.4,1.2,28,1,,,,,,,,,,,,,,,,,,,,,,,,,,,,,,,,,,,,,,,,,,,,,
,,,,,WIN24_045,19,Female,2024-02-09_11h03.22.390,jersey_experiment_5,2023.2.2,Win32,85.47008547,,,,,,,,,,,,,,,,129.0555,130.3571,130.3571,138.1337,return,3.6713,,24.34895833,0,2,2,0,1,FBP-OG-71.png,0.35,1.2,1,0.5,,,,,,,,,,,,,,,,,,,,,,,,,,,,,,,,,,,,,,,,,,,,,
,,,,,WIN24_045,19,Female,2024-02-09_11h03.22.390,jersey_experiment_5,2023.2.2,Win32,85.47008547,,,,,,,,,,,,,,,,138.1382,139.4397,139.4397,144.3811,return,1.8168,,75.26041667,0,3,3,56,1,FBP-PT-19.png,0.37,1.2,57,0.5,,,,,,,,,,,,,,,,,,,,,,,,,,,,,,,,,,,,,,,,,,,,,
,,,,,WIN24_045,19,Female,2024-02-09_11h03.22.390,jersey_experiment_5,2023.2.2,Win32,85.47008547,,,,,,,,,,,,,,,,144.3813,146.181,146.1811,151.005,return,2.6052,,99.609375,0,4,4,24,1,FBP-RB-18.png,0.45,1.2,25,1,,,,,,,,,,,,,,,,,,,,,,,,,,,,,,,,,,,,,,,,,,,,,
,,,,,WIN24_045,19,Female,2024-02-09_11h03.22.390,jersey_experiment_5,2023.2.2,Win32,85.47008547,,,,,,,,,,,,,,,,151.0124,152.3108,152.3108,161.8053,return,5.3013,,23.95833333,0,5,5,45,1,FBP-PT-17.png,0.35,1.2,46,0.5,,,,,,,,,,,,,,,,,,,,,,,,,,,,,,,,,,,,,,,,,,,,,
,,,,,WIN24_045,19,Female,2024-02-09_11h03.22.390,jersey_experiment_5,2023.2.2,Win32,85.47008547,,,,,,,,,,,,,,,,161.8113,163.6053,163.6054,185.1002,return,4.9812,,0,0,6,6,15,1,FBP-RB-17.png,0.35,1.2,16,1,,,,,,,,,,,,,,,,,,,,,,,,,,,,,,,,,,,,,,,,,,,,,
,,,,,WIN24_045,19,Female,2024-02-09_11h03.22.390,jersey_experiment_5,2023.2.2,Win32,85.47008547,,,,,,,,,,,,,,,,185.1059,186.9002,186.9002,193.5474,return,2.8413,,24.73958333,0,7,7,21,1,FBP-RB-18.png,0.37,1.2,22,1,,,,,,,,,,,,,,,,,,,,,,,,,,,,,,,,,,,,,,,,,,,,,
,,,,,WIN24_045,19,Female,2024-02-09_11h03.22.390,jersey_experiment_5,2023.2.2,Win32,85.47008547,,,,,,,,,,,,,,,,193.5476,194.8417,194.8417,199.0419,return,1.4258,,99.86979167,0,8,8,3,1,FBP-OG-71.png,0.43,1.2,4,0.5,,,,,,,,,,,,,,,,,,,,,,,,,,,,,,,,,,,,,,,,,,,,,
,,,,,WIN24_045,19,Female,2024-02-09_11h03.22.390,jersey_experiment_5,2023.2.2,Win32,85.47008547,,,,,,,,,,,,,,,,199.0421,200.8419,200.8419,207.2656,return,1.9175,,49.47916667,0,9,9,31,1,FBP-YG-71.png,0.37,1.2,32,1,,,,,,,,,,,,,,,,,,,,,,,,,,,,,,,,,,,,,,,,,,,,,
,,,,,WIN24_045,19,Female,2024-02-09_11h03.22.390,jersey_experiment_5,2023.2.2,Win32,85.47008547,,,,,,,,,,,,,,,,207.2659,208.5598,208.5598,213.8187,return,1.715,,99.34895833,0,10,10,8,1,FBP-OG-81.png,0.43,1.2,9,0.5,,,,,,,,,,,,,,,,,,,,,,,,,,,,,,,,,,,,,,,,,,,,,
,,,,,WIN24_045,19,Female,2024-02-09_11h03.22.390,jersey_experiment_5,2023.2.2,Win32,85.47008547,,,,,,,,,,,,,,,,213.819,215.6189,215.6189,220.6897,return,2.3527,,91.27604167,0,11,11,43,1,FBP-YG-91.png,0.43,1.2,44,1,,,,,,,,,,,,,,,,,,,,,,,,,,,,,,,,,,,,,,,,,,,,,
,,,,,WIN24_045,19,Female,2024-02-09_11h03.22.390,jersey_experiment_5,2023.2.2,Win32,85.47008547,,,,,,,,,,,,,,,,220.6899,221.9839,221.9839,225.4074,return,1.2753,,99.609375,0,12,12,13,1,FBP-OG-91.png,0.43,1.2,14,0.5,,,,,,,,,,,,,,,,,,,,,,,,,,,,,,,,,,,,,,,,,,,,,
,,,,,WIN24_045,19,Female,2024-02-09_11h03.22.390,jersey_experiment_5,2023.2.2,Win32,85.47008547,,,,,,,,,,,,,,,,225.4075,226.7016,226.7017,231.6665,return,1.1076,,0.260416667,0,13,13,10,1,FBP-OG-91.png,0.35,1.2,11,0.5,,,,,,,,,,,,,,,,,,,,,,,,,,,,,,,,,,,,,,,,,,,,,
,,,,,WIN24_045,19,Female,2024-02-09_11h03.22.390,jersey_experiment_5,2023.2.2,Win32,85.47008547,,,,,,,,,,,,,,,,231.6667,233.4666,233.4667,240.208,return,4.2251,,88.15104167,0,14,14,42,1,FBP-YG-91.png,0.4,1.2,43,1,,,,,,,,,,,,,,,,,,,,,,,,,,,,,,,,,,,,,,,,,,,,,
,,,,,WIN24_045,19,Female,2024-02-09_11h03.22.390,jersey_experiment_5,2023.2.2,Win32,85.47008547,,,,,,,,,,,,,,,,240.2083,241.5021,241.5022,246.3377,return,1.2612,,99.609375,0,15,15,4,1,FBP-OG-71.png,0.45,1.2,5,0.5,,,,,,,,,,,,,,,,,,,,,,,,,,,,,,,,,,,,,,,,,,,,,
,,,,,WIN24_045,19,Female,2024-02-09_11h03.22.390,jersey_experiment_5,2023.2.2,Win32,85.47008547,,,,,,,,,,,,,,,,246.3379,248.1376,248.1376,264.4207,return,1.1388,,10.9375,0,16,16,36,1,FBP-YG-81.png,0.37,1.2,37,1,,,,,,,,,,,,,,,,,,,,,,,,,,,,,,,,,,,,,,,,,,,,,
,,,,,WIN24_045,19,Female,2024-02-09_11h03.22.390,jersey_experiment_5,2023.2.2,Win32,85.47008547,,,,,,,,,,,,,,,,264.4207,266.2208,266.2208,272.2092,return,3.0243,,99.609375,0,17,17,18,1,FBP-RB-17.png,0.43,1.2,19,1,,,,,,,,,,,,,,,,,,,,,,,,,,,,,,,,,,,,,,,,,,,,,
,,,,,WIN24_045,19,Female,2024-02-09_11h03.22.390,jersey_experiment_5,2023.2.2,Win32,85.47008547,,,,,,,,,,,,,,,,272.2094,274.0093,274.0093,282.1273,return,2.7226,,12.23958333,0,18,18,40,1,FBP-YG-91.png,0.35,1.2,41,1,,,,,,,,,,,,,,,,,,,,,,,,,,,,,,,,,,,,,,,,,,,,,
,,,,,WIN24_045,19,Female,2024-02-09_11h03.22.390,jersey_experiment_5,2023.2.2,Win32,85.47008547,,,,,,,,,,,,,,,,282.1275,283.9271,283.9272,291.8688,return,1.6054,,88.93229167,0,19,19,33,1,FBP-YG-71.png,0.43,1.2,34,1,,,,,,,,,,,,,,,,,,,,,,,,,,,,,,,,,,,,,,,,,,,,,
,,,,,WIN24_045,19,Female,2024-02-09_11h03.22.390,jersey_experiment_5,2023.2.2,Win32,85.47008547,,,,,,,,,,,,,,,,291.8691,293.1629,293.1629,306.6457,return,8.0383,,24.73958333,0,20,20,46,1,FBP-PT-17.png,0.37,1.2,47,0.5,,,,,,,,,,,,,,,,,,,,,,,,,,,,,,,,,,,,,,,,,,,,,
,,,,,WIN24_045,19,Female,2024-02-09_11h03.22.390,jersey_experiment_5,2023.2.2,Win32,85.47008547,,,,,,,,,,,,,,,,306.6502,307.9516,307.9516,312.8459,return,1.63,,4.947916667,0,21,21,50,1,FBP-PT-18.png,0.35,1.2,51,0.5,,,,,,,,,,,,,,,,,,,,,,,,,,,,,,,,,,,,,,,,,,,,,
,,,,,WIN24_045,19,Female,2024-02-09_11h03.22.390,jersey_experiment_5,2023.2.2,Win32,85.47008547,,,,,,,,,,,,,,,,312.8461,314.6459,314.6459,319.8933,return,1.6711,,99.609375,0,22,22,29,1,FBP-RB-19.png,0.45,1.2,30,1,,,,,,,,,,,,,,,,,,,,,,,,,,,,,,,,,,,,,,,,,,,,,
,,,,,WIN24_045,19,Female,2024-02-09_11h03.22.390,jersey_experiment_5,2023.2.2,Win32,85.47008547,,,,,,,,,,,,,,,,319.8936,321.1874,321.1874,326.5758,return,1.5925,,25,0,23,23,12,1,FBP-OG-91.png,0.4,1.2,13,0.5,,,,,,,,,,,,,,,,,,,,,,,,,,,,,,,,,,,,,,,,,,,,,
,,,,,WIN24_045,19,Female,2024-02-09_11h03.22.390,jersey_experiment_5,2023.2.2,Win32,85.47008547,,,,,,,,,,,,,,,,326.5761,328.3759,328.3759,332.1642,return,1.0918,,0.390625,0,24,24,26,1,FBP-RB-19.png,0.37,1.2,27,1,,,,,,,,,,,,,,,,,,,,,,,,,,,,,,,,,,,,,,,,,,,,,
,,,,,WIN24_045,19,Female,2024-02-09_11h03.22.390,jersey_experiment_5,2023.2.2,Win32,85.47008547,,,,,,,,,,,,,,,,332.1645,333.9644,333.9644,338.0938,return,1.0744,,0.390625,0,25,25,25,1,FBP-RB-19.png,0.35,1.2,26,1,,,,,,,,,,,,,,,,,,,,,,,,,,,,,,,,,,,,,,,,,,,,,
,,,,,WIN24_045,19,Female,2024-02-09_11h03.22.390,jersey_experiment_5,2023.2.2,Win32,85.47008547,,,,,,,,,,,,,,,,338.0939,339.388,339.3881,346.4471,return,3.8969,,8.854166667,0,26,26,5,1,FBP-OG-81.png,0.35,1.2,6,0.5,,,,,,,,,,,,,,,,,,,,,,,,,,,,,,,,,,,,,,,,,,,,,
,,,,,WIN24_045,19,Female,2024-02-09_11h03.22.390,jersey_experiment_5,2023.2.2,Win32,85.47008547,,,,,,,,,,,,,,,,346.4473,347.7412,347.7413,352.0944,return,1.8529,,84.50520833,0,27,27,53,1,FBP-PT-18.png,0.43,1.2,54,0.5,,,,,,,,,,,,,,,,,,,,,,,,,,,,,,,,,,,,,,,,,,,,,
,,,,,WIN24_045,19,Female,2024-02-09_11h03.22.390,jersey_experiment_5,2023.2.2,Win32,85.47008547,,,,,,,,,,,,,,,,352.0946,353.3884,353.3884,357.1181,return,1.392,,98.30729167,0,28,28,54,1,FBP-PT-18.png,0.45,1.2,55,0.5,,,,,,,,,,,,,,,,,,,,,,,,,,,,,,,,,,,,,,,,,,,,,
,,,,,WIN24_045,19,Female,2024-02-09_11h03.22.390,jersey_experiment_5,2023.2.2,Win32,85.47008547,,,,,,,,,,,,,,,,357.1183,358.918,358.9181,363.5653,return,2.9833,,25.26041667,0,29,29,30,1,FBP-YG-71.png,0.35,1.2,31,1,,,,,,,,,,,,,,,,,,,,,,,,,,,,,,,,,,,,,,,,,,,,,
,,,,,WIN24_045,19,Female,2024-02-09_11h03.22.390,jersey_experiment_5,2023.2.2,Win32,85.47008547,,,,,,,,,,,,,,,,363.5695,364.8712,364.8712,368.2715,return,1.2022,,74.609375,0,30,30,52,1,FBP-PT-18.png,0.4,1.2,53,0.5,,,,,,,,,,,,,,,,,,,,,,,,,,,,,,,,,,,,,,,,,,,,,
,,,,,WIN24_045,19,Female,2024-02-09_11h03.22.390,jersey_experiment_5,2023.2.2,Win32,85.47008547,,,,,,,,,,,,,,,,368.2717,369.5656,369.5656,374.9657,return,3.5158,,100,0,31,31,59,1,FBP-PT-19.png,0.45,1.2,60,0.5,,,,,,,,,,,,,,,,,,,,,,,,,,,,,,,,,,,,,,,,,,,,,
,,,,,WIN24_045,19,Female,2024-02-09_11h03.22.390,jersey_experiment_5,2023.2.2,Win32,85.47008547,,,,,,,,,,,,,,,,374.966,376.7659,376.766,385.2956,return,6.3576,,13.80208333,0,32,32,20,1,FBP-RB-18.png,0.35,1.2,21,1,,,,,,,,,,,,,,,,,,,,,,,,,,,,,,,,,,,,,,,,,,,,,
,,,,,WIN24_045,19,Female,2024-02-09_11h03.22.390,jersey_experiment_5,2023.2.2,Win32,85.47008547,,,,,,,,,,,,,,,,385.2957,386.5896,386.5896,390.1663,return,1.3649,,75.390625,0,33,33,47,1,FBP-PT-17.png,0.4,1.2,48,0.5,,,,,,,,,,,,,,,,,,,,,,,,,,,,,,,,,,,,,,,,,,,,,
,,,,,WIN24_045,19,Female,2024-02-09_11h03.22.390,jersey_experiment_5,2023.2.2,Win32,85.47008547,,,,,,,,,,,,,,,,390.1665,391.9664,391.9665,396.9901,return,2.391,,18.22916667,0,34,34,41,1,FBP-YG-91.png,0.37,1.2,42,1,,,,,,,,,,,,,,,,,,,,,,,,,,,,,,,,,,,,,,,,,,,,,
,,,,,WIN24_045,19,Female,2024-02-09_11h03.22.390,jersey_experiment_5,2023.2.2,Win32,85.47008547,,,,,,,,,,,,,,,,396.9945,398.7902,398.7902,401.955,return,1.3044,,99.73958333,0,35,35,34,1,FBP-YG-71.png,0.45,1.2,35,1,,,,,,,,,,,,,,,,,,,,,,,,,,,,,,,,,,,,,,,,,,,,,
,,,,,WIN24_045,19,Female,2024-02-09_11h03.22.390,jersey_experiment_5,2023.2.2,Win32,85.47008547,,,,,,,,,,,,,,,,401.9552,403.7549,403.7549,410.273,return,1.3191,,92.05729167,0,36,36,22,1,FBP-RB-18.png,0.4,1.2,23,1,,,,,,,,,,,,,,,,,,,,,,,,,,,,,,,,,,,,,,,,,,,,,
,,,,,WIN24_045,19,Female,2024-02-09_11h03.22.390,jersey_experiment_5,2023.2.2,Win32,85.47008547,,,,,,,,,,,,,,,,410.2732,412.0729,412.0729,415.9204,return,1.2248,,98.046875,0,37,37,19,1,FBP-RB-17.png,0.45,1.2,20,1,,,,,,,,,,,,,,,,,,,,,,,,,,,,,,,,,,,,,,,,,,,,,
,,,,,WIN24_045,19,Female,2024-02-09_11h03.22.390,jersey_experiment_5,2023.2.2,Win32,85.47008547,,,,,,,,,,,,,,,,415.9205,417.2144,417.2145,422.0027,return,1.2106,,93.61979167,0,38,38,49,1,FBP-PT-17.png,0.45,1.2,50,0.5,,,,,,,,,,,,,,,,,,,,,,,,,,,,,,,,,,,,,,,,,,,,,
,,,,,WIN24_045,19,Female,2024-02-09_11h03.22.390,jersey_experiment_5,2023.2.2,Win32,85.47008547,,,,,,,,,,,,,,,,422.003,423.2968,423.2968,430.7795,return,3.7354,,24.86979167,0,39,39,51,1,FBP-PT-18.png,0.37,1.2,52,0.5,,,,,,,,,,,,,,,,,,,,,,,,,,,,,,,,,,,,,,,,,,,,,
,,,,,WIN24_045,19,Female,2024-02-09_11h03.22.390,jersey_experiment_5,2023.2.2,Win32,85.47008547,,,,,,,,,,,,,,,,430.7796,432.0737,432.0737,436.2739,return,1.8489,,24.86979167,0,40,40,1,1,FBP-OG-71.png,0.37,1.2,2,0.5,,,,,,,,,,,,,,,,,,,,,,,,,,,,,,,,,,,,,,,,,,,,,
,,,,,WIN24_045,19,Female,2024-02-09_11h03.22.390,jersey_experiment_5,2023.2.2,Win32,85.47008547,,,,,,,,,,,,,,,,436.2741,437.5681,437.5681,442.7211,return,2.6591,,98.17708333,0,41,41,58,1,FBP-PT-19.png,0.43,1.2,59,0.5,,,,,,,,,,,,,,,,,,,,,,,,,,,,,,,,,,,,,,,,,,,,,
,,,,,WIN24_045,19,Female,2024-02-09_11h03.22.390,jersey_experiment_5,2023.2.2,Win32,85.47008547,,,,,,,,,,,,,,,,442.7256,444.027,444.0271,450.8273,return,1.2793,,49.73958333,0,42,42,6,1,FBP-OG-81.png,0.37,1.2,7,0.5,,,,,,,,,,,,,,,,,,,,,,,,,,,,,,,,,,,,,,,,,,,,,
,,,,,WIN24_045,19,Female,2024-02-09_11h03.22.390,jersey_experiment_5,2023.2.2,Win32,85.47008547,,,,,,,,,,,,,,,,450.8276,452.6273,452.6274,457.0275,return,2.1088,,100,0,43,43,44,1,FBP-YG-91.png,0.45,1.2,45,1,,,,,,,,,,,,,,,,,,,,,,,,,,,,,,,,,,,,,,,,,,,,,
,,,,,WIN24_045,19,Female,2024-02-09_11h03.22.390,jersey_experiment_5,2023.2.2,Win32,85.47008547,,,,,,,,,,,,,,,,457.0278,458.8276,458.8276,461.6042,return,1.163,,98.046875,0,44,44,23,1,FBP-RB-18.png,0.43,1.2,24,1,,,,,,,,,,,,,,,,,,,,,,,,,,,,,,,,,,,,,,,,,,,,,
,,,,,WIN24_045,19,Female,2024-02-09_11h03.22.390,jersey_experiment_5,2023.2.2,Win32,85.47008547,,,,,,,,,,,,,,,,461.6045,463.4044,463.4045,471.2163,return,4.7544,,60.9375,0,45,45,17,1,FBP-RB-17.png,0.4,1.2,18,1,,,,,,,,,,,,,,,,,,,,,,,,,,,,,,,,,,,,,,,,,,,,,
,,,,,WIN24_045,19,Female,2024-02-09_11h03.22.390,jersey_experiment_5,2023.2.2,Win32,85.47008547,,,,,,,,,,,,,,,,471.2206,473.0163,473.0164,476.8165,return,1.7796,,70.83333333,0,46,46,32,1,FBP-YG-71.png,0.4,1.2,33,1,,,,,,,,,,,,,,,,,,,,,,,,,,,,,,,,,,,,,,,,,,,,,
,,,,,WIN24_045,19,Female,2024-02-09_11h03.22.390,jersey_experiment_5,2023.2.2,Win32,85.47008547,,,,,,,,,,,,,,,,476.8168,478.1107,478.1107,483.7815,return,2.7775,,39.97395833,0,47,47,2,1,FBP-OG-71.png,0.4,1.2,3,0.5,,,,,,,,,,,,,,,,,,,,,,,,,,,,,,,,,,,,,,,,,,,,,
,,,,,WIN24_045,19,Female,2024-02-09_11h03.22.390,jersey_experiment_5,2023.2.2,Win32,85.47008547,,,,,,,,,,,,,,,,483.7818,485.0756,485.0756,494.2288,return,1.9912,,74.73958333,0,48,48,57,1,FBP-PT-19.png,0.4,1.2,58,0.5,,,,,,,,,,,,,,,,,,,,,,,,,,,,,,,,,,,,,,,,,,,,,
,,,,,WIN24_045,19,Female,2024-02-09_11h03.22.390,jersey_experiment_5,2023.2.2,Win32,85.47008547,,,,,,,,,,,,,,,,494.2292,496.0288,496.0289,501.0056,return,1.7922,,91.66666667,0,49,49,38,1,FBP-YG-81.png,0.43,1.2,39,1,,,,,,,,,,,,,,,,,,,,,,,,,,,,,,,,,,,,,,,,,,,,,
,,,,,WIN24_045,19,Female,2024-02-09_11h03.22.390,jersey_experiment_5,2023.2.2,Win32,85.47008547,,,,,,,,,,,,,,,,501.0058,502.8056,502.8056,506.1706,return,1.1624,,88.54166667,0,50,50,28,1,FBP-RB-19.png,0.43,1.2,29,1,,,,,,,,,,,,,,,,,,,,,,,,,,,,,,,,,,,,,,,,,,,,,
,,,,,WIN24_045,19,Female,2024-02-09_11h03.22.390,jersey_experiment_5,2023.2.2,Win32,85.47008547,,,,,,,,,,,,,,,,506.1709,507.4644,507.4645,512.7826,return,1.732,,99.47916667,0,51,51,14,1,FBP-OG-91.png,0.45,1.2,15,0.5,,,,,,,,,,,,,,,,,,,,,,,,,,,,,,,,,,,,,,,,,,,,,
,,,,,WIN24_045,19,Female,2024-02-09_11h03.22.390,jersey_experiment_5,2023.2.2,Win32,85.47008547,,,,,,,,,,,,,,,,512.7828,514.0766,514.0766,517.6061,return,1.2941,,75.390625,0,52,52,48,1,FBP-PT-17.png,0.43,1.2,49,0.5,,,,,,,,,,,,,,,,,,,,,,,,,,,,,,,,,,,,,,,,,,,,,
,,,,,WIN24_045,19,Female,2024-02-09_11h03.22.390,jersey_experiment_5,2023.2.2,Win32,85.47008547,,,,,,,,,,,,,,,,517.6064,519.4061,519.4062,524.3242,return,2.297,,95.18229167,0,53,53,39,1,FBP-YG-81.png,0.45,1.2,40,1,,,,,,,,,,,,,,,,,,,,,,,,,,,,,,,,,,,,,,,,,,,,,
,,,,,WIN24_045,19,Female,2024-02-09_11h03.22.390,jersey_experiment_5,2023.2.2,Win32,85.47008547,,,,,,,,,,,,,,,,524.3244,525.6182,525.6182,529.2772,return,1.4656,,58.46354167,0,54,54,7,1,FBP-OG-81.png,0.4,1.2,8,0.5,,,,,,,,,,,,,,,,,,,,,,,,,,,,,,,,,,,,,,,,,,,,,
,,,,,WIN24_045,19,Female,2024-02-09_11h03.22.390,jersey_experiment_5,2023.2.2,Win32,85.47008547,,,,,,,,,,,,,,,,529.2774,531.0774,531.0774,535.3598,return,1.2014,,50,0,55,55,37,1,FBP-YG-81.png,0.4,1.2,38,1,,,,,,,,,,,,,,,,,,,,,,,,,,,,,,,,,,,,,,,,,,,,,
,,,,,WIN24_045,19,Female,2024-02-09_11h03.22.390,jersey_experiment_5,2023.2.2,Win32,85.47008547,,,,,,,,,,,,,,,,535.3601,536.6541,536.6541,539.9011,return,1.1007,,24.47916667,0,56,56,55,1,FBP-PT-19.png,0.35,1.2,56,0.5,,,,,,,,,,,,,,,,,,,,,,,,,,,,,,,,,,,,,,,,,,,,,
,,,,,WIN24_045,19,Female,2024-02-09_11h03.22.390,jersey_experiment_5,2023.2.2,Win32,85.47008547,,,,,,,,,,,,,,,,539.9014,541.7012,541.7012,544.1954,return,0.8095,,25,0,57,57,35,1,FBP-YG-81.png,0.35,1.2,36,1,,,,,,,,,,,,,,,,,,,,,,,,,,,,,,,,,,,,,,,,,,,,,
,,,,,WIN24_045,19,Female,2024-02-09_11h03.22.390,jersey_experiment_5,2023.2.2,Win32,85.47008547,,,,,,,,,,,,,,,,544.1957,545.9954,545.9954,553.0898,return,3.9081,,49.73958333,0,58,58,16,1,FBP-RB-17.png,0.37,1.2,17,1,,,,,,,,,,,,,,,,,,,,,,,,,,,,,,,,,,,,,,,,,,,,,
,,,,,WIN24_045,19,Female,2024-02-09_11h03.22.390,jersey_experiment_5,2023.2.2,Win32,85.47008547,,,,,,,,,,,,,,,,553.0901,554.384,554.384,557.7606,return,1.0266,,88.80208333,0,59,59,9,1,FBP-OG-81.png,0.45,1.2,10,0.5,,,,,,,,,,,,,,,,,,,,,,,,,,,,,,,,,,,,,,,,,,,,,
,,,,,WIN24_045,19,Female,2024-02-09_11h03.22.390,jersey_experiment_5,2023.2.2,Win32,85.47008547,,,,,,,,,,,,,,,,557.7628,559.5607,559.5607,565.1491,return,2.748,,99.73958333,,,,,,FBP-YG-18.png,0.45,1.2,40,1,0,0,0,39,1,,,,,,,,,,,,,,,,,,,,,,,,,,,,,,,,,,,,,,,,
,,,,,WIN24_045,19,Female,2024-02-09_11h03.22.390,jersey_experiment_5,2023.2.2,Win32,85.47008547,,,,,,,,,,,,,,,,565.1536,566.455,566.455,570.8904,return,1.1978,,36.71875,,,,,,FBP-PT-91.png,0.37,1.2,57,0.5,0,1,1,56,1,,,,,,,,,,,,,,,,,,,,,,,,,,,,,,,,,,,,,,,,
,,,,,WIN24_045,19,Female,2024-02-09_11h03.22.390,jersey_experiment_5,2023.2.2,Win32,85.47008547,,,,,,,,,,,,,,,,570.8907,572.6903,572.6904,578.9614,return,3.8736,,49.86979167,,,,,,FBP-RB-81.png,0.37,1.2,22,1,0,2,2,21,1,,,,,,,,,,,,,,,,,,,,,,,,,,,,,,,,,,,,,,,,
,,,,,WIN24_045,19,Female,2024-02-09_11h03.22.390,jersey_experiment_5,2023.2.2,Win32,85.47008547,,,,,,,,,,,,,,,,578.9616,580.7615,580.7615,584.6087,return,1.0735,,60.546875,,,,,,FBP-YG-18.png,0.4,1.2,38,1,0,3,3,37,1,,,,,,,,,,,,,,,,,,,,,,,,,,,,,,,,,,,,,,,,
,,,,,WIN24_045,19,Female,2024-02-09_11h03.22.390,jersey_experiment_5,2023.2.2,Win32,85.47008547,,,,,,,,,,,,,,,,584.6089,586.4086,586.4086,592.3031,return,3.3201,,88.93229167,,,,,,FBP-YG-17.png,0.45,1.2,35,1,0,4,4,34,1,,,,,,,,,,,,,,,,,,,,,,,,,,,,,,,,,,,,,,,,
,,,,,WIN24_045,19,Female,2024-02-09_11h03.22.390,jersey_experiment_5,2023.2.2,Win32,85.47008547,,,,,,,,,,,,,,,,592.3033,593.5971,593.5972,597.3149,return,1.144,,25.13020833,,,,,,FBP-OG-19.png,0.35,1.2,11,0.5,0,5,5,10,1,,,,,,,,,,,,,,,,,,,,,,,,,,,,,,,,,,,,,,,,
,,,,,WIN24_045,19,Female,2024-02-09_11h03.22.390,jersey_experiment_5,2023.2.2,Win32,85.47008547,,,,,,,,,,,,,,,,597.3151,598.6091,598.6092,601.9386,return,0.9658,,24.47916667,,,,,,FBP-OG-18.png,0.35,1.2,6,0.5,0,6,6,5,1,,,,,,,,,,,,,,,,,,,,,,,,,,,,,,,,,,,,,,,,
,,,,,WIN24_045,19,Female,2024-02-09_11h03.22.390,jersey_experiment_5,2023.2.2,Win32,85.47008547,,,,,,,,,,,,,,,,601.9387,603.7387,603.7388,606.6565,return,1.1303,,14.71354167,,,,,,FBP-RB-91.png,0.35,1.2,26,1,0,7,7,25,1,,,,,,,,,,,,,,,,,,,,,,,,,,,,,,,,,,,,,,,,
,,,,,WIN24_045,19,Female,2024-02-09_11h03.22.390,jersey_experiment_5,2023.2.2,Win32,85.47008547,,,,,,,,,,,,,,,,606.6567,608.4564,608.4564,612.9155,return,1.059,,59.63541667,,,,,,FBP-RB-91.png,0.4,1.2,28,1,0,8,8,27,1,,,,,,,,,,,,,,,,,,,,,,,,,,,,,,,,,,,,,,,,
,,,,,WIN24_045,19,Female,2024-02-09_11h03.22.390,jersey_experiment_5,2023.2.2,Win32,85.47008547,,,,,,,,,,,,,,,,612.9158,614.7155,614.7155,620.4453,return,3.9009,,86.97916667,,,,,,FBP-RB-81.png,0.43,1.2,24,1,0,9,9,23,1,,,,,,,,,,,,,,,,,,,,,,,,,,,,,,,,,,,,,,,,
,,,,,WIN24_045,19,Female,2024-02-09_11h03.22.390,jersey_experiment_5,2023.2.2,Win32,85.47008547,,,,,,,,,,,,,,,,620.4454,621.7393,621.7393,624.5631,return,1.06,,97.65625,,,,,,FBP-OG-17.png,0.45,1.2,5,0.5,0,10,10,4,1,,,,,,,,,,,,,,,,,,,,,,,,,,,,,,,,,,,,,,,,
,,,,,WIN24_045,19,Female,2024-02-09_11h03.22.390,jersey_experiment_5,2023.2.2,Win32,85.47008547,,,,,,,,,,,,,,,,624.5633,626.3629,626.3629,629.7162,return,1.5772,,98.828125,,,,,,FBP-YG-19.png,0.43,1.2,44,1,0,11,11,43,1,,,,,,,,,,,,,,,,,,,,,,,,,,,,,,,,,,,,,,,,
,,,,,WIN24_045,19,Female,2024-02-09_11h03.22.390,jersey_experiment_5,2023.2.2,Win32,85.47008547,,,,,,,,,,,,,,,,629.7165,631.516,631.516,638.3399,return,3.5155,,37.76041667,,,,,,FBP-RB-71.png,0.37,1.2,17,1,0,12,12,16,1,,,,,,,,,,,,,,,,,,,,,,,,,,,,,,,,,,,,,,,,
,,,,,WIN24_045,19,Female,2024-02-09_11h03.22.390,jersey_experiment_5,2023.2.2,Win32,85.47008547,,,,,,,,,,,,,,,,638.3402,639.634,639.6341,642.9871,return,1.2297,,14.19270833,,,,,,FBP-PT-81.png,0.35,1.2,51,0.5,0,13,13,50,1,,,,,,,,,,,,,,,,,,,,,,,,,,,,,,,,,,,,,,,,
,,,,,WIN24_045,19,Female,2024-02-09_11h03.22.390,jersey_experiment_5,2023.2.2,Win32,85.47008547,,,,,,,,,,,,,,,,642.9874,644.7872,644.7872,647.8697,return,1.2766,,5.989583333,,,,,,FBP-YG-19.png,0.35,1.2,41,1,0,14,14,40,1,,,,,,,,,,,,,,,,,,,,,,,,,,,,,,,,,,,,,,,,
,,,,,WIN24_045,19,Female,2024-02-09_11h03.22.390,jersey_experiment_5,2023.2.2,Win32,85.47008547,,,,,,,,,,,,,,,,647.8698,649.1638,649.1639,655.1052,return,3.0735,,74.86979167,,,,,,FBP-OG-17.png,0.4,1.2,3,0.5,0,15,15,2,1,,,,,,,,,,,,,,,,,,,,,,,,,,,,,,,,,,,,,,,,
,,,,,WIN24_045,19,Female,2024-02-09_11h03.22.390,jersey_experiment_5,2023.2.2,Win32,85.47008547,,,,,,,,,,,,,,,,655.1055,656.9052,656.9052,661.5055,return,1.2007,,75.13020833,,,,,,FBP-RB-71.png,0.4,1.2,18,1,0,16,16,17,1,,,,,,,,,,,,,,,,,,,,,,,,,,,,,,,,,,,,,,,,
,,,,,WIN24_045,19,Female,2024-02-09_11h03.22.390,jersey_experiment_5,2023.2.2,Win32,85.47008547,,,,,,,,,,,,,,,,661.5057,663.3054,663.3055,665.8115,return,1.0259,,86.58854167,,,,,,FBP-RB-91.png,0.43,1.2,29,1,0,17,17,28,1,,,,,,,,,,,,,,,,,,,,,,,,,,,,,,,,,,,,,,,,
,,,,,WIN24_045,19,Female,2024-02-09_11h03.22.390,jersey_experiment_5,2023.2.2,Win32,85.47008547,,,,,,,,,,,,,,,,665.8118,667.1057,667.1058,670.4352,return,1.3275,,94.140625,,,,,,FBP-OG-18.png,0.45,1.2,10,0.5,0,18,18,9,1,,,,,,,,,,,,,,,,,,,,,,,,,,,,,,,,,,,,,,,,
,,,,,WIN24_045,19,Female,2024-02-09_11h03.22.390,jersey_experiment_5,2023.2.2,Win32,85.47008547,,,,,,,,,,,,,,,,670.4354,671.7293,671.7294,676.5649,return,2.344,,6.25,,,,,,FBP-PT-71.png,0.35,1.2,46,0.5,0,19,19,45,1,,,,,,,,,,,,,,,,,,,,,,,,,,,,,,,,,,,,,,,,
,,,,,WIN24_045,19,Female,2024-02-09_11h03.22.390,jersey_experiment_5,2023.2.2,Win32,85.47008547,,,,,,,,,,,,,,,,676.5652,678.3649,678.3649,682.2826,return,1.489,,12.63020833,,,,,,FBP-RB-91.png,0.37,1.2,27,1,0,20,20,26,1,,,,,,,,,,,,,,,,,,,,,,,,,,,,,,,,,,,,,,,,
,,,,,WIN24_045,19,Female,2024-02-09_11h03.22.390,jersey_experiment_5,2023.2.2,Win32,85.47008547,,,,,,,,,,,,,,,,682.2828,683.5769,683.5769,688.4122,return,2.8639,,24.73958333,,,,,,FBP-OG-17.png,0.37,1.2,2,0.5,0,21,21,1,1,,,,,,,,,,,,,,,,,,,,,,,,,,,,,,,,,,,,,,,,
,,,,,WIN24_045,19,Female,2024-02-09_11h03.22.390,jersey_experiment_5,2023.2.2,Win32,85.47008547,,,,,,,,,,,,,,,,688.4125,689.7064,689.7064,694.1065,return,1.562,,2.864583333,,,,,,FBP-OG-17.png,0.35,1.2,1,0.5,0,22,22,0,1,,,,,,,,,,,,,,,,,,,,,,,,,,,,,,,,,,,,,,,,
,,,,,WIN24_045,19,Female,2024-02-09_11h03.22.390,jersey_experiment_5,2023.2.2,Win32,85.47008547,,,,,,,,,,,,,,,,694.1067,695.4008,695.4008,699.3774,return,1.2349,,74.609375,,,,,,FBP-PT-81.png,0.43,1.2,54,0.5,0,23,23,53,1,,,,,,,,,,,,,,,,,,,,,,,,,,,,,,,,,,,,,,,,
,,,,,WIN24_045,19,Female,2024-02-09_11h03.22.390,jersey_experiment_5,2023.2.2,Win32,85.47008547,,,,,,,,,,,,,,,,699.3776,701.1775,701.1775,704.7304,return,1.4421,,12.109375,,,,,,FBP-YG-18.png,0.35,1.2,36,1,0,24,24,35,1,,,,,,,,,,,,,,,,,,,,,,,,,,,,,,,,,,,,,,,,
,,,,,WIN24_045,19,Female,2024-02-09_11h03.22.390,jersey_experiment_5,2023.2.2,Win32,85.47008547,,,,,,,,,,,,,,,,704.7307,706.5304,706.5305,709.3308,return,1.3984,,87.890625,,,,,,FBP-RB-71.png,0.45,1.2,20,1,0,25,25,19,1,,,,,,,,,,,,,,,,,,,,,,,,,,,,,,,,,,,,,,,,
,,,,,WIN24_045,19,Female,2024-02-09_11h03.22.390,jersey_experiment_5,2023.2.2,Win32,85.47008547,,,,,,,,,,,,,,,,709.3309,711.1307,711.1308,714.5543,return,1.2656,,87.36979167,,,,,,FBP-RB-71.png,0.43,1.2,19,1,0,26,26,18,1,,,,,,,,,,,,,,,,,,,,,,,,,,,,,,,,,,,,,,,,
,,,,,WIN24_045,19,Female,2024-02-09_11h03.22.390,jersey_experiment_5,2023.2.2,Win32,85.47008547,,,,,,,,,,,,,,,,714.5545,715.8485,715.8486,723.9782,return,1.0884,,24.609375,,,,,,FBP-OG-18.png,0.37,1.2,7,0.5,0,27,27,6,1,,,,,,,,,,,,,,,,,,,,,,,,,,,,,,,,,,,,,,,,
,,,,,WIN24_045,19,Female,2024-02-09_11h03.22.390,jersey_experiment_5,2023.2.2,Win32,85.47008547,,,,,,,,,,,,,,,,723.9784,725.2726,725.2726,728.5903,return,0.8967,,78.125,,,,,,FBP-PT-71.png,0.43,1.2,49,0.5,0,28,28,48,1,,,,,,,,,,,,,,,,,,,,,,,,,,,,,,,,,,,,,,,,
,,,,,WIN24_045,19,Female,2024-02-09_11h03.22.390,jersey_experiment_5,2023.2.2,Win32,85.47008547,,,,,,,,,,,,,,,,728.5904,729.8843,729.8843,732.5786,return,0.8103,,88.93229167,,,,,,FBP-PT-91.png,0.43,1.2,59,0.5,0,29,29,58,1,,,,,,,,,,,,,,,,,,,,,,,,,,,,,,,,,,,,,,,,
,,,,,WIN24_045,19,Female,2024-02-09_11h03.22.390,jersey_experiment_5,2023.2.2,Win32,85.47008547,,,,,,,,,,,,,,,,732.5788,733.8727,733.8727,739.2141,return,1.4031,,90.625,,,,,,FBP-OG-19.png,0.45,1.2,15,0.5,0,30,30,14,1,,,,,,,,,,,,,,,,,,,,,,,,,,,,,,,,,,,,,,,,
,,,,,WIN24_045,19,Female,2024-02-09_11h03.22.390,jersey_experiment_5,2023.2.2,Win32,85.47008547,,,,,,,,,,,,,,,,739.2143,741.0143,741.0144,749.038,return,4.5447,,74.609375,,,,,,FBP-YG-18.png,0.43,1.2,39,1,0,31,31,38,1,,,,,,,,,,,,,,,,,,,,,,,,,,,,,,,,,,,,,,,,
,,,,,WIN24_045,19,Female,2024-02-09_11h03.22.390,jersey_experiment_5,2023.2.2,Win32,85.47008547,,,,,,,,,,,,,,,,749.0382,750.8381,750.8381,753.7323,return,0.9512,,46.35416667,,,,,,FBP-YG-17.png,0.4,1.2,33,1,0,32,32,32,1,,,,,,,,,,,,,,,,,,,,,,,,,,,,,,,,,,,,,,,,
,,,,,WIN24_045,19,Female,2024-02-09_11h03.22.390,jersey_experiment_5,2023.2.2,Win32,85.47008547,,,,,,,,,,,,,,,,753.7325,755.5324,755.5324,759.0383,return,1.6499,,2.083333333,,,,,,FBP-RB-71.png,0.35,1.2,16,1,0,33,33,15,1,,,,,,,,,,,,,,,,,,,,,,,,,,,,,,,,,,,,,,,,
,,,,,WIN24_045,19,Female,2024-02-09_11h03.22.390,jersey_experiment_5,2023.2.2,Win32,85.47008547,,,,,,,,,,,,,,,,759.0386,760.3325,760.3326,764.6857,return,1.2505,,39.58333333,,,,,,FBP-PT-91.png,0.4,1.2,58,0.5,0,34,34,57,1,,,,,,,,,,,,,,,,,,,,,,,,,,,,,,,,,,,,,,,,
,,,,,WIN24_045,19,Female,2024-02-09_11h03.22.390,jersey_experiment_5,2023.2.2,Win32,85.47008547,,,,,,,,,,,,,,,,764.686,766.4857,766.4857,770.8858,return,1.0356,,50.13020833,,,,,,FBP-YG-19.png,0.4,1.2,43,1,0,35,35,42,1,,,,,,,,,,,,,,,,,,,,,,,,,,,,,,,,,,,,,,,,
,,,,,WIN24_045,19,Female,2024-02-09_11h03.22.390,jersey_experiment_5,2023.2.2,Win32,85.47008547,,,,,,,,,,,,,,,,770.886,772.686,772.686,775.7331,return,1.2095,,13.02083333,,,,,,FBP-YG-17.png,0.37,1.2,32,1,0,36,36,31,1,,,,,,,,,,,,,,,,,,,,,,,,,,,,,,,,,,,,,,,,
,,,,,WIN24_045,19,Female,2024-02-09_11h03.22.390,jersey_experiment_5,2023.2.2,Win32,85.47008547,,,,,,,,,,,,,,,,775.7332,777.0272,777.0272,780.2039,return,0.747,,3.385416667,,,,,,FBP-PT-91.png,0.35,1.2,56,0.5,0,37,37,55,1,,,,,,,,,,,,,,,,,,,,,,,,,,,,,,,,,,,,,,,,
,,,,,WIN24_045,19,Female,2024-02-09_11h03.22.390,jersey_experiment_5,2023.2.2,Win32,85.47008547,,,,,,,,,,,,,,,,780.2041,782.004,782.004,788.2276,return,1.2796,,81.25,,,,,,FBP-YG-19.png,0.45,1.2,45,1,0,38,38,44,1,,,,,,,,,,,,,,,,,,,,,,,,,,,,,,,,,,,,,,,,
,,,,,WIN24_045,19,Female,2024-02-09_11h03.22.390,jersey_experiment_5,2023.2.2,Win32,85.47008547,,,,,,,,,,,,,,,,788.2278,790.0278,790.0278,796.475,return,2.2889,,17.1875,,,,,,FBP-YG-19.png,0.37,1.2,42,1,0,39,39,41,1,,,,,,,,,,,,,,,,,,,,,,,,,,,,,,,,,,,,,,,,
,,,,,WIN24_045,19,Female,2024-02-09_11h03.22.390,jersey_experiment_5,2023.2.2,Win32,85.47008547,,,,,,,,,,,,,,,,796.4755,798.2754,798.2755,804.6283,return,3.9204,,93.359375,,,,,,FBP-RB-91.png,0.45,1.2,30,1,0,40,40,29,1,,,,,,,,,,,,,,,,,,,,,,,,,,,,,,,,,,,,,,,,
,,,,,WIN24_045,19,Female,2024-02-09_11h03.22.390,jersey_experiment_5,2023.2.2,Win32,85.47008547,,,,,,,,,,,,,,,,804.6329,805.9342,805.9342,816.8286,return,4.8539,,49.73958333,,,,,,FBP-PT-71.png,0.4,1.2,48,0.5,0,41,41,47,1,,,,,,,,,,,,,,,,,,,,,,,,,,,,,,,,,,,,,,,,
,,,,,WIN24_045,19,Female,2024-02-09_11h03.22.390,jersey_experiment_5,2023.2.2,Win32,85.47008547,,,,,,,,,,,,,,,,816.8288,818.1228,818.1228,829.8762,return,1.2152,,38.80208333,,,,,,FBP-PT-71.png,0.37,1.2,47,0.5,0,42,42,46,1,,,,,,,,,,,,,,,,,,,,,,,,,,,,,,,,,,,,,,,,
,,,,,WIN24_045,19,Female,2024-02-09_11h03.22.390,jersey_experiment_5,2023.2.2,Win32,85.47008547,,,,,,,,,,,,,,,,829.8764,831.1704,831.1704,836.5118,return,3.1451,,75.26041667,,,,,,FBP-OG-18.png,0.43,1.2,9,0.5,0,43,43,8,1,,,,,,,,,,,,,,,,,,,,,,,,,,,,,,,,,,,,,,,,
,,,,,WIN24_045,19,Female,2024-02-09_11h03.22.390,jersey_experiment_5,2023.2.2,Win32,85.47008547,,,,,,,,,,,,,,,,836.5121,838.3118,838.3118,842.6414,return,0.8348,,55.98958333,,,,,,FBP-RB-81.png,0.4,1.2,23,1,0,44,44,22,1,,,,,,,,,,,,,,,,,,,,,,,,,,,,,,,,,,,,,,,,
,,,,,WIN24_045,19,Female,2024-02-09_11h03.22.390,jersey_experiment_5,2023.2.2,Win32,85.47008547,,,,,,,,,,,,,,,,842.6415,844.4415,844.4415,848.8298,return,2.4762,,4.427083333,,,,,,FBP-YG-17.png,0.35,1.2,31,1,0,45,45,30,1,,,,,,,,,,,,,,,,,,,,,,,,,,,,,,,,,,,,,,,,
,,,,,WIN24_045,19,Female,2024-02-09_11h03.22.390,jersey_experiment_5,2023.2.2,Win32,85.47008547,,,,,,,,,,,,,,,,848.8341,850.6298,850.6299,855.8417,return,3.0935,,75.26041667,,,,,,FBP-RB-81.png,0.45,1.2,25,1,0,46,46,24,1,,,,,,,,,,,,,,,,,,,,,,,,,,,,,,,,,,,,,,,,
,,,,,WIN24_045,19,Female,2024-02-09_11h03.22.390,jersey_experiment_5,2023.2.2,Win32,85.47008547,,,,,,,,,,,,,,,,855.842,857.136,857.136,861.195,return,1.1354,,49.609375,,,,,,FBP-OG-18.png,0.4,1.2,8,0.5,0,47,47,7,1,,,,,,,,,,,,,,,,,,,,,,,,,,,,,,,,,,,,,,,,
,,,,,WIN24_045,19,Female,2024-02-09_11h03.22.390,jersey_experiment_5,2023.2.2,Win32,85.47008547,,,,,,,,,,,,,,,,861.1951,862.4892,862.4892,866.3247,return,0.9415,,61.84895833,,,,,,FBP-OG-19.png,0.43,1.2,14,0.5,0,48,48,13,1,,,,,,,,,,,,,,,,,,,,,,,,,,,,,,,,,,,,,,,,
,,,,,WIN24_045,19,Female,2024-02-09_11h03.22.390,jersey_experiment_5,2023.2.2,Win32,85.47008547,,,,,,,,,,,,,,,,866.3249,867.6188,867.6188,877.0191,return,5.1946,,49.86979167,,,,,,FBP-PT-81.png,0.4,1.2,53,0.5,0,49,49,52,1,,,,,,,,,,,,,,,,,,,,,,,,,,,,,,,,,,,,,,,,
,,,,,WIN24_045,19,Female,2024-02-09_11h03.22.390,jersey_experiment_5,2023.2.2,Win32,85.47008547,,,,,,,,,,,,,,,,877.0233,878.8192,878.8192,885.8548,return,3.1799,,5.859375,,,,,,FBP-RB-81.png,0.35,1.2,21,1,0,50,50,20,1,,,,,,,,,,,,,,,,,,,,,,,,,,,,,,,,,,,,,,,,
,,,,,WIN24_045,19,Female,2024-02-09_11h03.22.390,jersey_experiment_5,2023.2.2,Win32,85.47008547,,,,,,,,,,,,,,,,885.855,887.1488,887.1489,890.8666,return,0.9322,,61.45833333,,,,,,FBP-OG-19.png,0.4,1.2,13,0.5,0,51,51,12,1,,,,,,,,,,,,,,,,,,,,,,,,,,,,,,,,,,,,,,,,
,,,,,WIN24_045,19,Female,2024-02-09_11h03.22.390,jersey_experiment_5,2023.2.2,Win32,85.47008547,,,,,,,,,,,,,,,,890.8669,892.1608,892.1608,895.1374,return,0.9297,,77.21354167,,,,,,FBP-PT-91.png,0.45,1.2,60,0.5,0,52,52,59,1,,,,,,,,,,,,,,,,,,,,,,,,,,,,,,,,,,,,,,,,
,,,,,WIN24_045,19,Female,2024-02-09_11h03.22.390,jersey_experiment_5,2023.2.2,Win32,85.47008547,,,,,,,,,,,,,,,,895.1376,896.9377,896.9377,900.5258,return,0.9939,,50,,,,,,FBP-YG-18.png,0.37,1.2,37,1,0,53,53,36,1,,,,,,,,,,,,,,,,,,,,,,,,,,,,,,,,,,,,,,,,
,,,,,WIN24_045,19,Female,2024-02-09_11h03.22.390,jersey_experiment_5,2023.2.2,Win32,85.47008547,,,,,,,,,,,,,,,,900.526,901.8199,901.8199,905.6672,return,1.1441,,75.390625,,,,,,FBP-OG-17.png,0.43,1.2,4,0.5,0,54,54,3,1,,,,,,,,,,,,,,,,,,,,,,,,,,,,,,,,,,,,,,,,
,,,,,WIN24_045,19,Female,2024-02-09_11h03.22.390,jersey_experiment_5,2023.2.2,Win32,85.47008547,,,,,,,,,,,,,,,,905.6674,907.4672,907.4672,909.985,return,1.108,,84.11458333,,,,,,FBP-YG-17.png,0.43,1.2,34,1,0,55,55,33,1,,,,,,,,,,,,,,,,,,,,,,,,,,,,,,,,,,,,,,,,
,,,,,WIN24_045,19,Female,2024-02-09_11h03.22.390,jersey_experiment_5,2023.2.2,Win32,85.47008547,,,,,,,,,,,,,,,,909.9852,911.2791,911.2791,916.1734,return,0.8765,,39.84375,,,,,,FBP-OG-19.png,0.37,1.2,12,0.5,0,56,56,11,1,,,,,,,,,,,,,,,,,,,,,,,,,,,,,,,,,,,,,,,,
,,,,,WIN24_045,19,Female,2024-02-09_11h03.22.390,jersey_experiment_5,2023.2.2,Win32,85.47008547,,,,,,,,,,,,,,,,916.1737,917.4676,917.4676,920.5971,return,1.0922,,88.28125,,,,,,FBP-PT-71.png,0.45,1.2,50,0.5,0,57,57,49,1,,,,,,,,,,,,,,,,,,,,,,,,,,,,,,,,,,,,,,,,
,,,,,WIN24_045,19,Female,2024-02-09_11h03.22.390,jersey_experiment_5,2023.2.2,Win32,85.47008547,,,,,,,,,,,,,,,,920.5973,921.8912,921.8913,925.2444,return,1.1719,,86.19791667,,,,,,FBP-PT-81.png,0.45,1.2,55,0.5,0,58,58,54,1,,,,,,,,,,,,,,,,,,,,,,,,,,,,,,,,,,,,,,,,
,,,,,WIN24_045,19,Female,2024-02-09_11h03.22.390,jersey_experiment_5,2023.2.2,Win32,85.47008547,,,,,,,,,,,,,,,,925.2445,926.5385,926.5385,930.2563,return,1.0265,,17.31770833,,,,,,FBP-PT-81.png,0.37,1.2,52,0.5,0,59,59,51,1,,,,,,,,,,,,,,,,,,,,,,,,,,,,,,,,,,,,,,,,
,,,,,WIN24_045,19,Female,2024-02-09_11h03.22.390,jersey_experiment_5,2023.2.2,Win32,85.47008547,,,,,,,,,,,,,,,,,,,,,,,,,,,,,,,,,,,,,,,930.2568,1050.261,,,,,,,,,,,,,,,,,,,,,,,,,,,,,,,,,,,,,,
,,,,,WIN24_045,19,Female,2024-02-09_11h03.22.390,jersey_experiment_5,2023.2.2,Win32,85.47008547,,,,,,,,,,,,,,,,,,,,,,,,,,,,,,,,,,,,,,,,,1050.261,1080.6032,return,30.3372,,,,,,,,,,,,,,,,,,,,,,,,,,,,,,,,,,
,,,,,WIN24_045,19,Female,2024-02-09_11h03.22.390,jersey_experiment_5,2023.2.2,Win32,85.47008547,,,,,,,,,,,,,,,,1080.6114,1082.4029,1082.403,1088.0032,return,1.0598,,67.83854167,,,,,,FBP-OG-81.png,0.45,1.2,10,1,,,,,,,,,,,,,0,0,0,9,1,,,,,,,,,,,,,,,,,,,,,,,,,,,,
,,,,,WIN24_045,19,Female,2024-02-09_11h03.22.390,jersey_experiment_5,2023.2.2,Win32,85.47008547,,,,,,,,,,,,,,,,1088.0036,1089.8032,1089.8032,1094.1445,return,0.9321,,59.24479167,,,,,,FBP-PT-19.png,0.4,1.2,58,1,,,,,,,,,,,,,0,1,1,57,1,,,,,,,,,,,,,,,,,,,,,,,,,,,,
,,,,,WIN24_045,19,Female,2024-02-09_11h03.22.390,jersey_experiment_5,2023.2.2,Win32,85.47008547,,,,,,,,,,,,,,,,1094.1447,1095.4386,1095.4386,1105.4507,return,1.3257,,25,,,,,,FBP-YG-91.png,0.37,1.2,42,0.5,,,,,,,,,,,,,0,2,2,41,1,,,,,,,,,,,,,,,,,,,,,,,,,,,,
,,,,,WIN24_045,19,Female,2024-02-09_11h03.22.390,jersey_experiment_5,2023.2.2,Win32,85.47008547,,,,,,,,,,,,,,,,1105.451,1106.7448,1106.745,1110.5922,return,1.0971,,8.072916667,,,,,,FBP-YG-81.png,0.35,1.2,36,0.5,,,,,,,,,,,,,0,3,3,35,1,,,,,,,,,,,,,,,,,,,,,,,,,,,,
,,,,,WIN24_045,19,Female,2024-02-09_11h03.22.390,jersey_experiment_5,2023.2.2,Win32,85.47008547,,,,,,,,,,,,,,,,1110.5925,1112.3921,1112.3922,1115.4276,return,0.7627,,79.81770833,,,,,,FBP-PT-19.png,0.45,1.2,60,1,,,,,,,,,,,,,0,4,4,59,1,,,,,,,,,,,,,,,,,,,,,,,,,,,,
,,,,,WIN24_045,19,Female,2024-02-09_11h03.22.390,jersey_experiment_5,2023.2.2,Win32,85.47008547,,,,,,,,,,,,,,,,1115.4279,1116.7218,1116.7218,1119.8513,return,0.982,,79.81770833,,,,,,FBP-RB-17.png,0.4,1.2,18,0.5,,,,,,,,,,,,,0,5,5,17,1,,,,,,,,,,,,,,,,,,,,,,,,,,,,
,,,,,WIN24_045,19,Female,2024-02-09_11h03.22.390,jersey_experiment_5,2023.2.2,Win32,85.47008547,,,,,,,,,,,,,,,,1119.8515,1121.6514,1121.6515,1124.6398,return,0.8623,,24.609375,,,,,,FBP-OG-71.png,0.35,1.2,1,1,,,,,,,,,,,,,0,6,6,0,1,,,,,,,,,,,,,,,,,,,,,,,,,,,,
,,,,,WIN24_045,19,Female,2024-02-09_11h03.22.390,jersey_experiment_5,2023.2.2,Win32,85.47008547,,,,,,,,,,,,,,,,1124.6401,1126.4397,1126.4397,1128.9811,return,1.0213,,24.86979167,,,,,,FBP-OG-81.png,0.37,1.2,7,1,,,,,,,,,,,,,0,7,7,6,1,,,,,,,,,,,,,,,,,,,,,,,,,,,,
,,,,,WIN24_045,19,Female,2024-02-09_11h03.22.390,jersey_experiment_5,2023.2.2,Win32,85.47008547,,,,,,,,,,,,,,,,1128.9813,1130.2752,1130.2752,1138.4285,return,1.7834,,75,,,,,,FBP-RB-19.png,0.4,1.2,28,0.5,,,,,,,,,,,,,0,8,8,27,1,,,,,,,,,,,,,,,,,,,,,,,,,,,,
,,,,,WIN24_045,19,Female,2024-02-09_11h03.22.390,jersey_experiment_5,2023.2.2,Win32,85.47008547,,,,,,,,,,,,,,,,1138.4288,1140.2285,1140.2285,1144.0639,return,1.4005,,81.51041667,,,,,,FBP-PT-18.png,0.4,1.2,53,1,,,,,,,,,,,,,0,9,9,52,1,,,,,,,,,,,,,,,,,,,,,,,,,,,,
,,,,,WIN24_045,19,Female,2024-02-09_11h03.22.390,jersey_experiment_5,2023.2.2,Win32,85.47008547,,,,,,,,,,,,,,,,1144.0642,1145.8641,1145.8642,1149.0052,return,0.9939,,90.625,,,,,,FBP-PT-17.png,0.45,1.2,50,1,,,,,,,,,,,,,0,10,10,49,1,,,,,,,,,,,,,,,,,,,,,,,,,,,,
,,,,,WIN24_045,19,Female,2024-02-09_11h03.22.390,jersey_experiment_5,2023.2.2,Win32,85.47008547,,,,,,,,,,,,,,,,1149.0055,1150.8054,1150.8054,1154.0056,return,1.0963,,10.28645833,,,,,,FBP-PT-17.png,0.35,1.2,46,1,,,,,,,,,,,,,0,11,11,45,1,,,,,,,,,,,,,,,,,,,,,,,,,,,,
,,,,,WIN24_045,19,Female,2024-02-09_11h03.22.390,jersey_experiment_5,2023.2.2,Win32,85.47008547,,,,,,,,,,,,,,,,1154.0058,1155.2997,1155.2997,1158.4528,return,0.989,,75.26041667,,,,,,FBP-YG-81.png,0.43,1.2,39,0.5,,,,,,,,,,,,,0,12,12,38,1,,,,,,,,,,,,,,,,,,,,,,,,,,,,
,,,,,WIN24_045,19,Female,2024-02-09_11h03.22.390,jersey_experiment_5,2023.2.2,Win32,85.47008547,,,,,,,,,,,,,,,,1158.4531,1159.7469,1159.747,1164.1116,return,1.3682,,24.47916667,,,,,,FBP-YG-91.png,0.35,1.2,41,0.5,,,,,,,,,,,,,0,13,13,40,1,,,,,,,,,,,,,,,,,,,,,,,,,,,,
,,,,,WIN24_045,19,Female,2024-02-09_11h03.22.390,jersey_experiment_5,2023.2.2,Win32,85.47008547,,,,,,,,,,,,,,,,1164.1118,1165.4059,1165.4059,1168.7355,return,1.2481,,99.73958333,,,,,,FBP-YG-81.png,0.45,1.2,40,0.5,,,,,,,,,,,,,0,14,14,39,1,,,,,,,,,,,,,,,,,,,,,,,,,,,,
,,,,,WIN24_045,19,Female,2024-02-09_11h03.22.390,jersey_experiment_5,2023.2.2,Win32,85.47008547,,,,,,,,,,,,,,,,1168.7357,1170.0296,1170.0297,1172.9709,return,1.0082,,99.47916667,,,,,,FBP-YG-71.png,0.45,1.2,35,0.5,,,,,,,,,,,,,0,15,15,34,1,,,,,,,,,,,,,,,,,,,,,,,,,,,,
,,,,,WIN24_045,19,Female,2024-02-09_11h03.22.390,jersey_experiment_5,2023.2.2,Win32,85.47008547,,,,,,,,,,,,,,,,1172.9712,1174.265,1174.265,1177.5005,return,0.9099,,93.88020833,,,,,,FBP-RB-18.png,0.43,1.2,24,0.5,,,,,,,,,,,,,0,16,16,23,1,,,,,,,,,,,,,,,,,,,,,,,,,,,,
,,,,,WIN24_045,19,Female,2024-02-09_11h03.22.390,jersey_experiment_5,2023.2.2,Win32,85.47008547,,,,,,,,,,,,,,,,1177.5006,1178.7946,1178.7946,1183.0536,return,1.6528,,73.17708333,,,,,,FBP-YG-81.png,0.4,1.2,38,0.5,,,,,,,,,,,,,0,17,17,37,1,,,,,,,,,,,,,,,,,,,,,,,,,,,,
,,,,,WIN24_045,19,Female,2024-02-09_11h03.22.390,jersey_experiment_5,2023.2.2,Win32,85.47008547,,,,,,,,,,,,,,,,1183.0538,1184.8537,1184.8537,1188.6773,return,0.8331,,83.72395833,,,,,,FBP-PT-19.png,0.43,1.2,59,1,,,,,,,,,,,,,0,18,18,58,1,,,,,,,,,,,,,,,,,,,,,,,,,,,,
,,,,,WIN24_045,19,Female,2024-02-09_11h03.22.390,jersey_experiment_5,2023.2.2,Win32,85.47008547,,,,,,,,,,,,,,,,1188.6775,1190.4775,1190.4775,1195.819,return,1.065,,24.47916667,,,,,,FBP-PT-19.png,0.37,1.2,57,1,,,,,,,,,,,,,0,19,19,56,1,,,,,,,,,,,,,,,,,,,,,,,,,,,,
,,,,,WIN24_045,19,Female,2024-02-09_11h03.22.390,jersey_experiment_5,2023.2.2,Win32,85.47008547,,,,,,,,,,,,,,,,1195.8197,1197.1129,1197.1129,1206.1956,return,1.3884,,49.47916667,,,,,,FBP-YG-71.png,0.43,1.2,34,0.5,,,,,,,,,,,,,0,20,20,33,1,,,,,,,,,,,,,,,,,,,,,,,,,,,,
,,,,,WIN24_045,19,Female,2024-02-09_11h03.22.390,jersey_experiment_5,2023.2.2,Win32,85.47008547,,,,,,,,,,,,,,,,1206.1959,1207.9956,1207.9956,1210.6544,return,0.9456,,25.13020833,,,,,,FBP-OG-91.png,0.37,1.2,12,1,,,,,,,,,,,,,0,21,21,11,1,,,,,,,,,,,,,,,,,,,,,,,,,,,,
,,,,,WIN24_045,19,Female,2024-02-09_11h03.22.390,jersey_experiment_5,2023.2.2,Win32,85.47008547,,,,,,,,,,,,,,,,1210.6545,1212.4546,1212.4547,1215.7254,return,0.6764,,74.86979167,,,,,,FBP-PT-17.png,0.4,1.2,48,1,,,,,,,,,,,,,0,22,22,47,1,,,,,,,,,,,,,,,,,,,,,,,,,,,,
,,,,,WIN24_045,19,Female,2024-02-09_11h03.22.390,jersey_experiment_5,2023.2.2,Win32,85.47008547,,,,,,,,,,,,,,,,1215.7256,1217.0195,1217.0196,1222.1138,return,1.013,,56.25,,,,,,FBP-YG-71.png,0.35,1.2,31,0.5,,,,,,,,,,,,,0,23,23,30,1,,,,,,,,,,,,,,,,,,,,,,,,,,,,
,,,,,WIN24_045,19,Female,2024-02-09_11h03.22.390,jersey_experiment_5,2023.2.2,Win32,85.47008547,,,,,,,,,,,,,,,,1222.1139,1223.408,1223.408,1227.1022,return,1.5202,,34.24479167,,,,,,FBP-RB-19.png,0.37,1.2,27,0.5,,,,,,,,,,,,,0,24,24,26,1,,,,,,,,,,,,,,,,,,,,,,,,,,,,
,,,,,WIN24_045,19,Female,2024-02-09_11h03.22.390,jersey_experiment_5,2023.2.2,Win32,85.47008547,,,,,,,,,,,,,,,,1227.1024,1228.3964,1228.3964,1232.2906,return,0.908,,75.13020833,,,,,,FBP-YG-91.png,0.43,1.2,44,0.5,,,,,,,,,,,,,0,25,25,43,1,,,,,,,,,,,,,,,,,,,,,,,,,,,,
,,,,,WIN24_045,19,Female,2024-02-09_11h03.22.390,jersey_experiment_5,2023.2.2,Win32,85.47008547,,,,,,,,,,,,,,,,1232.2911,1233.5849,1233.5849,1237.1378,return,1.0832,,87.890625,,,,,,FBP-RB-19.png,0.43,1.2,29,0.5,,,,,,,,,,,,,0,26,26,28,1,,,,,,,,,,,,,,,,,,,,,,,,,,,,
,,,,,WIN24_045,19,Female,2024-02-09_11h03.22.390,jersey_experiment_5,2023.2.2,Win32,85.47008547,,,,,,,,,,,,,,,,1237.138,1238.938,1238.938,1242.7381,return,1.0356,,97.91666667,,,,,,FBP-OG-91.png,0.43,1.2,14,1,,,,,,,,,,,,,0,27,27,13,1,,,,,,,,,,,,,,,,,,,,,,,,,,,,
,,,,,WIN24_045,19,Female,2024-02-09_11h03.22.390,jersey_experiment_5,2023.2.2,Win32,85.47008547,,,,,,,,,,,,,,,,1242.7383,1244.5382,1244.5382,1251.4561,return,2.9776,,31.51041667,,,,,,FBP-PT-19.png,0.35,1.2,56,1,,,,,,,,,,,,,0,28,28,55,1,,,,,,,,,,,,,,,,,,,,,,,,,,,,
,,,,,WIN24_045,19,Female,2024-02-09_11h03.22.390,jersey_experiment_5,2023.2.2,Win32,85.47008547,,,,,,,,,,,,,,,,1251.4563,1252.7502,1252.7502,1256.0915,return,1.1466,,11.84895833,,,,,,FBP-RB-18.png,0.37,1.2,22,0.5,,,,,,,,,,,,,0,29,29,21,1,,,,,,,,,,,,,,,,,,,,,,,,,,,,
,,,,,WIN24_045,19,Female,2024-02-09_11h03.22.390,jersey_experiment_5,2023.2.2,Win32,85.47008547,,,,,,,,,,,,,,,,1256.0917,1257.8916,1257.8916,1261.4093,return,1.1549,,74.47916667,,,,,,FBP-OG-81.png,0.43,1.2,9,1,,,,,,,,,,,,,0,30,30,8,1,,,,,,,,,,,,,,,,,,,,,,,,,,,,
,,,,,WIN24_045,19,Female,2024-02-09_11h03.22.390,jersey_experiment_5,2023.2.2,Win32,85.47008547,,,,,,,,,,,,,,,,1261.4095,1263.2095,1263.2095,1268.3155,return,1.2191,,32.29166667,,,,,,FBP-PT-17.png,0.37,1.2,47,1,,,,,,,,,,,,,0,31,31,46,1,,,,,,,,,,,,,,,,,,,,,,,,,,,,
,,,,,WIN24_045,19,Female,2024-02-09_11h03.22.390,jersey_experiment_5,2023.2.2,Win32,85.47008547,,,,,,,,,,,,,,,,1268.3157,1269.6098,1269.6098,1276.657,return,4.247,,14.84375,,,,,,FBP-RB-17.png,0.37,1.2,17,0.5,,,,,,,,,,,,,0,32,32,16,1,,,,,,,,,,,,,,,,,,,,,,,,,,,,
,,,,,WIN24_045,19,Female,2024-02-09_11h03.22.390,jersey_experiment_5,2023.2.2,Win32,85.47008547,,,,,,,,,,,,,,,,1276.6611,1278.4568,1278.4569,1281.0336,return,1.0918,,3.645833333,,,,,,FBP-OG-91.png,0.35,1.2,11,1,,,,,,,,,,,,,0,33,33,10,1,,,,,,,,,,,,,,,,,,,,,,,,,,,,
,,,,,WIN24_045,19,Female,2024-02-09_11h03.22.390,jersey_experiment_5,2023.2.2,Win32,85.47008547,,,,,,,,,,,,,,,,1281.0338,1282.3277,1282.3277,1289.9398,return,4.2257,,68.359375,,,,,,FBP-YG-71.png,0.4,1.2,33,0.5,,,,,,,,,,,,,0,34,34,32,1,,,,,,,,,,,,,,,,,,,,,,,,,,,,
,,,,,WIN24_045,19,Female,2024-02-09_11h03.22.390,jersey_experiment_5,2023.2.2,Win32,85.47008547,,,,,,,,,,,,,,,,1289.94,1291.234,1291.234,1294.6928,return,1.45,,91.27604167,,,,,,FBP-YG-91.png,0.45,1.2,45,0.5,,,,,,,,,,,,,0,35,35,44,1,,,,,,,,,,,,,,,,,,,,,,,,,,,,
,,,,,WIN24_045,19,Female,2024-02-09_11h03.22.390,jersey_experiment_5,2023.2.2,Win32,85.47008547,,,,,,,,,,,,,,,,1294.6931,1295.9869,1295.987,1299.8225,return,1.2869,,98.30729167,,,,,,FBP-RB-17.png,0.45,1.2,20,0.5,,,,,,,,,,,,,0,36,36,19,1,,,,,,,,,,,,,,,,,,,,,,,,,,,,
,,,,,WIN24_045,19,Female,2024-02-09_11h03.22.390,jersey_experiment_5,2023.2.2,Win32,85.47008547,,,,,,,,,,,,,,,,1299.8227,1301.1167,1301.1167,1305.505,return,1.4466,,99.86979167,,,,,,FBP-RB-18.png,0.45,1.2,25,0.5,,,,,,,,,,,,,0,37,37,24,1,,,,,,,,,,,,,,,,,,,,,,,,,,,,
,,,,,WIN24_045,19,Female,2024-02-09_11h03.22.390,jersey_experiment_5,2023.2.2,Win32,85.47008547,,,,,,,,,,,,,,,,1305.5053,1306.7991,1306.7991,1315.6349,return,4.9416,,50.13020833,,,,,,FBP-RB-18.png,0.4,1.2,23,0.5,,,,,,,,,,,,,0,38,38,22,1,,,,,,,,,,,,,,,,,,,,,,,,,,,,
,,,,,WIN24_045,19,Female,2024-02-09_11h03.22.390,jersey_experiment_5,2023.2.2,Win32,85.47008547,,,,,,,,,,,,,,,,1315.635,1316.9291,1316.9291,1321.8704,return,1.2398,,25.13020833,,,,,,FBP-RB-17.png,0.35,1.2,16,0.5,,,,,,,,,,,,,0,39,39,15,1,,,,,,,,,,,,,,,,,,,,,,,,,,,,
,,,,,WIN24_045,19,Female,2024-02-09_11h03.22.390,jersey_experiment_5,2023.2.2,Win32,85.47008547,,,,,,,,,,,,,,,,1321.8707,1323.1646,1323.1646,1326.9764,return,1.4128,,74.21875,,,,,,FBP-RB-17.png,0.43,1.2,19,0.5,,,,,,,,,,,,,0,40,40,18,1,,,,,,,,,,,,,,,,,,,,,,,,,,,,
,,,,,WIN24_045,19,Female,2024-02-09_11h03.22.390,jersey_experiment_5,2023.2.2,Win32,85.47008547,,,,,,,,,,,,,,,,1326.9767,1328.2706,1328.2706,1331.7766,return,0.8476,,49.73958333,,,,,,FBP-YG-91.png,0.4,1.2,43,0.5,,,,,,,,,,,,,0,41,41,42,1,,,,,,,,,,,,,,,,,,,,,,,,,,,,
,,,,,WIN24_045,19,Female,2024-02-09_11h03.22.390,jersey_experiment_5,2023.2.2,Win32,85.47008547,,,,,,,,,,,,,,,,1331.7769,1333.5768,1333.5768,1337.1061,return,1.1772,,4.296875,,,,,,FBP-PT-18.png,0.35,1.2,51,1,,,,,,,,,,,,,0,42,42,50,1,,,,,,,,,,,,,,,,,,,,,,,,,,,,
,,,,,WIN24_045,19,Female,2024-02-09_11h03.22.390,jersey_experiment_5,2023.2.2,Win32,85.47008547,,,,,,,,,,,,,,,,1337.1064,1338.9063,1338.9064,1343.1534,return,1.5311,,72.65625,,,,,,FBP-OG-71.png,0.43,1.2,4,1,,,,,,,,,,,,,0,43,43,3,1,,,,,,,,,,,,,,,,,,,,,,,,,,,,
,,,,,WIN24_045,19,Female,2024-02-09_11h03.22.390,jersey_experiment_5,2023.2.2,Win32,85.47008547,,,,,,,,,,,,,,,,1343.1536,1344.9536,1344.9536,1349.1536,return,2.4106,,2.083333333,,,,,,FBP-OG-81.png,0.35,1.2,6,1,,,,,,,,,,,,,0,44,44,5,1,,,,,,,,,,,,,,,,,,,,,,,,,,,,
,,,,,WIN24_045,19,Female,2024-02-09_11h03.22.390,jersey_experiment_5,2023.2.2,Win32,85.47008547,,,,,,,,,,,,,,,,1349.1537,1350.4476,1350.4476,1358.1775,return,1.8592,,18.75,,,,,,FBP-RB-19.png,0.35,1.2,26,0.5,,,,,,,,,,,,,0,45,45,25,1,,,,,,,,,,,,,,,,,,,,,,,,,,,,
,,,,,WIN24_045,19,Female,2024-02-09_11h03.22.390,jersey_experiment_5,2023.2.2,Win32,85.47008547,,,,,,,,,,,,,,,,1358.1779,1359.9776,1359.9776,1364.5307,return,1.2141,,74.47916667,,,,,,FBP-OG-71.png,0.4,1.2,3,1,,,,,,,,,,,,,0,46,46,2,1,,,,,,,,,,,,,,,,,,,,,,,,,,,,
,,,,,WIN24_045,19,Female,2024-02-09_11h03.22.390,jersey_experiment_5,2023.2.2,Win32,85.47008547,,,,,,,,,,,,,,,,1364.5311,1366.3308,1366.3308,1369.3544,return,0.9144,,75.26041667,,,,,,FBP-OG-81.png,0.4,1.2,8,1,,,,,,,,,,,,,0,47,47,7,1,,,,,,,,,,,,,,,,,,,,,,,,,,,,
,,,,,WIN24_045,19,Female,2024-02-09_11h03.22.390,jersey_experiment_5,2023.2.2,Win32,85.47008547,,,,,,,,,,,,,,,,1369.3546,1371.1544,1371.1544,1373.8604,return,1.1061,,80.46875,,,,,,FBP-OG-91.png,0.4,1.2,13,1,,,,,,,,,,,,,0,48,48,12,1,,,,,,,,,,,,,,,,,,,,,,,,,,,,
,,,,,WIN24_045,19,Female,2024-02-09_11h03.22.390,jersey_experiment_5,2023.2.2,Win32,85.47008547,,,,,,,,,,,,,,,,1373.8606,1375.1546,1375.1546,1377.9781,return,0.8417,,87.890625,,,,,,FBP-RB-19.png,0.45,1.2,30,0.5,,,,,,,,,,,,,0,49,49,29,1,,,,,,,,,,,,,,,,,,,,,,,,,,,,
,,,,,WIN24_045,19,Female,2024-02-09_11h03.22.390,jersey_experiment_5,2023.2.2,Win32,85.47008547,,,,,,,,,,,,,,,,1377.9784,1379.7783,1379.7783,1382.943,return,1.0252,,81.90104167,,,,,,FBP-PT-18.png,0.43,1.2,54,1,,,,,,,,,,,,,0,50,50,53,1,,,,,,,,,,,,,,,,,,,,,,,,,,,,
,,,,,WIN24_045,19,Female,2024-02-09_11h03.22.390,jersey_experiment_5,2023.2.2,Win32,85.47008547,,,,,,,,,,,,,,,,1382.9433,1384.7432,1384.7432,1388.014,return,1.1464,,91.14583333,,,,,,FBP-OG-71.png,0.45,1.2,5,1,,,,,,,,,,,,,0,51,51,4,1,,,,,,,,,,,,,,,,,,,,,,,,,,,,
,,,,,WIN24_045,19,Female,2024-02-09_11h03.22.390,jersey_experiment_5,2023.2.2,Win32,85.47008547,,,,,,,,,,,,,,,,1388.0141,1389.8139,1389.814,1394.273,return,2.1086,,24.34895833,,,,,,FBP-OG-71.png,0.37,1.2,2,1,,,,,,,,,,,,,0,52,52,1,1,,,,,,,,,,,,,,,,,,,,,,,,,,,,
,,,,,WIN24_045,19,Female,2024-02-09_11h03.22.390,jersey_experiment_5,2023.2.2,Win32,85.47008547,,,,,,,,,,,,,,,,1394.2732,1396.0729,1396.073,1401.9555,return,0.8942,,74.47916667,,,,,,FBP-OG-91.png,0.45,1.2,15,1,,,,,,,,,,,,,0,53,53,14,1,,,,,,,,,,,,,,,,,,,,,,,,,,,,
,,,,,WIN24_045,19,Female,2024-02-09_11h03.22.390,jersey_experiment_5,2023.2.2,Win32,85.47008547,,,,,,,,,,,,,,,,1401.9557,1403.2497,1403.2497,1406.6028,return,0.796,,25,,,,,,FBP-YG-81.png,0.37,1.2,37,0.5,,,,,,,,,,,,,0,54,54,36,1,,,,,,,,,,,,,,,,,,,,,,,,,,,,
,,,,,WIN24_045,19,Female,2024-02-09_11h03.22.390,jersey_experiment_5,2023.2.2,Win32,85.47008547,,,,,,,,,,,,,,,,1406.6031,1408.4028,1408.4029,1410.2264,return,0.9177,,25,,,,,,FBP-PT-18.png,0.37,1.2,52,1,,,,,,,,,,,,,0,55,55,51,1,,,,,,,,,,,,,,,,,,,,,,,,,,,,
,,,,,WIN24_045,19,Female,2024-02-09_11h03.22.390,jersey_experiment_5,2023.2.2,Win32,85.47008547,,,,,,,,,,,,,,,,1410.2266,1412.0265,1412.0265,1421.6975,return,4.6603,,74.86979167,,,,,,FBP-PT-17.png,0.43,1.2,49,1,,,,,,,,,,,,,0,56,56,48,1,,,,,,,,,,,,,,,,,,,,,,,,,,,,
,,,,,WIN24_045,19,Female,2024-02-09_11h03.22.390,jersey_experiment_5,2023.2.2,Win32,85.47008547,,,,,,,,,,,,,,,,1421.7016,1423.0034,1423.0034,1427.2976,return,1.2481,,16.796875,,,,,,FBP-RB-18.png,0.35,1.2,21,0.5,,,,,,,,,,,,,0,57,57,20,1,,,,,,,,,,,,,,,,,,,,,,,,,,,,
,,,,,WIN24_045,19,Female,2024-02-09_11h03.22.390,jersey_experiment_5,2023.2.2,Win32,85.47008547,,,,,,,,,,,,,,,,1427.2978,1428.5918,1428.5918,1432.6038,return,1.1812,,26.171875,,,,,,FBP-YG-71.png,0.37,1.2,32,0.5,,,,,,,,,,,,,0,58,58,31,1,,,,,,,,,,,,,,,,,,,,,,,,,,,,
,,,,,WIN24_045,19,Female,2024-02-09_11h03.22.390,jersey_experiment_5,2023.2.2,Win32,85.47008547,,,,,,,,,,,,,,,,1432.604,1434.4038,1434.4038,1438.298,return,0.9713,,75.13020833,,,,,,FBP-PT-18.png,0.45,1.2,55,1,,,,,,,,,,,,,0,59,59,54,1,,,,,,,,,,,,,,,,,,,,,,,,,,,,
,,,,,WIN24_045,19,Female,2024-02-09_11h03.22.390,jersey_experiment_5,2023.2.2,Win32,85.47008547,,,,,,,,,,,,,,,,1438.3,1440.0981,1440.0982,1443.604,return,1.0587,,75.13020833,,,,,,FBP-OG-19.png,0.4,1.2,13,1,,,,,,,,,,,,,,,,,,0,0,0,12,1,,,,,,,,,,,,,,,,,,,,,,,
,,,,,WIN24_045,19,Female,2024-02-09_11h03.22.390,jersey_experiment_5,2023.2.2,Win32,85.47008547,,,,,,,,,,,,,,,,1443.6045,1445.4042,1445.4043,1448.5573,return,0.9681,,81.25,,,,,,FBP-OG-17.png,0.43,1.2,4,1,,,,,,,,,,,,,,,,,,0,1,1,3,1,,,,,,,,,,,,,,,,,,,,,,,
,,,,,WIN24_045,19,Female,2024-02-09_11h03.22.390,jersey_experiment_5,2023.2.2,Win32,85.47008547,,,,,,,,,,,,,,,,1448.5575,1450.3573,1450.3574,1453.8868,return,0.9544,,10.41666667,,,,,,FBP-PT-91.png,0.35,1.2,56,1,,,,,,,,,,,,,,,,,,0,2,2,55,1,,,,,,,,,,,,,,,,,,,,,,,
,,,,,WIN24_045,19,Female,2024-02-09_11h03.22.390,jersey_experiment_5,2023.2.2,Win32,85.47008547,,,,,,,,,,,,,,,,1453.887,1455.687,1455.687,1458.9458,return,1.0834,,74.609375,,,,,,FBP-PT-81.png,0.43,1.2,54,1,,,,,,,,,,,,,,,,,,0,3,3,53,1,,,,,,,,,,,,,,,,,,,,,,,
,,,,,WIN24_045,19,Female,2024-02-09_11h03.22.390,jersey_experiment_5,2023.2.2,Win32,85.47008547,,,,,,,,,,,,,,,,1458.946,1460.746,1460.746,1464.593,return,1.6582,,79.42708333,,,,,,FBP-OG-17.png,0.45,1.2,5,1,,,,,,,,,,,,,,,,,,0,4,4,4,1,,,,,,,,,,,,,,,,,,,,,,,
,,,,,WIN24_045,19,Female,2024-02-09_11h03.22.390,jersey_experiment_5,2023.2.2,Win32,85.47008547,,,,,,,,,,,,,,,,1464.5933,1465.8873,1465.8873,1469.0872,return,1.3447,,79.42708333,,,,,,FBP-RB-91.png,0.4,1.2,28,0.5,,,,,,,,,,,,,,,,,,0,5,5,27,1,,,,,,,,,,,,,,,,,,,,,,,
,,,,,WIN24_045,19,Female,2024-02-09_11h03.22.390,jersey_experiment_5,2023.2.2,Win32,85.47008547,,,,,,,,,,,,,,,,1469.0875,1470.8876,1470.8876,1473.2287,return,1.0178,,88.80208333,,,,,,FBP-PT-81.png,0.45,1.2,55,1,,,,,,,,,,,,,,,,,,0,6,6,54,1,,,,,,,,,,,,,,,,,,,,,,,
,,,,,WIN24_045,19,Female,2024-02-09_11h03.22.390,jersey_experiment_5,2023.2.2,Win32,85.47008547,,,,,,,,,,,,,,,,1473.2289,1474.5229,1474.5229,1477.7935,return,1.0929,,24.86979167,,,,,,FBP-YG-19.png,0.35,1.2,41,0.5,,,,,,,,,,,,,,,,,,0,7,7,40,1,,,,,,,,,,,,,,,,,,,,,,,
,,,,,WIN24_045,19,Female,2024-02-09_11h03.22.390,jersey_experiment_5,2023.2.2,Win32,85.47008547,,,,,,,,,,,,,,,,1477.7937,1479.0876,1479.0877,1481.6526,return,0.9179,,32.29166667,,,,,,FBP-RB-81.png,0.37,1.2,22,0.5,,,,,,,,,,,,,,,,,,0,8,8,21,1,,,,,,,,,,,,,,,,,,,,,,,
,,,,,WIN24_045,19,Female,2024-02-09_11h03.22.390,jersey_experiment_5,2023.2.2,Win32,85.47008547,,,,,,,,,,,,,,,,1481.6527,1482.9467,1482.9467,1488.0763,return,3.0417,,64.71354167,,,,,,FBP-YG-17.png,0.43,1.2,34,0.5,,,,,,,,,,,,,,,,,,0,9,9,33,1,,,,,,,,,,,,,,,,,,,,,,,
,,,,,WIN24_045,19,Female,2024-02-09_11h03.22.390,jersey_experiment_5,2023.2.2,Win32,85.47008547,,,,,,,,,,,,,,,,1488.0765,1489.8763,1489.8763,1494.2882,return,1.885,,36.06770833,,,,,,FBP-OG-18.png,0.35,1.2,6,1,,,,,,,,,,,,,,,,,,0,10,10,5,1,,,,,,,,,,,,,,,,,,,,,,,
,,,,,WIN24_045,19,Female,2024-02-09_11h03.22.390,jersey_experiment_5,2023.2.2,Win32,85.47008547,,,,,,,,,,,,,,,,1494.2884,1496.0884,1496.0884,1502.5238,return,1.6777,,75.390625,,,,,,FBP-PT-91.png,0.4,1.2,58,1,,,,,,,,,,,,,,,,,,0,11,11,57,1,,,,,,,,,,,,,,,,,,,,,,,
,,,,,WIN24_045,19,Female,2024-02-09_11h03.22.390,jersey_experiment_5,2023.2.2,Win32,85.47008547,,,,,,,,,,,,,,,,1502.5241,1503.818,1503.8181,1507.0535,return,0.9821,,24.73958333,,,,,,FBP-RB-71.png,0.37,1.2,17,0.5,,,,,,,,,,,,,,,,,,0,12,12,16,1,,,,,,,,,,,,,,,,,,,,,,,
,,,,,WIN24_045,19,Female,2024-02-09_11h03.22.390,jersey_experiment_5,2023.2.2,Win32,85.47008547,,,,,,,,,,,,,,,,1507.0538,1508.8534,1508.8534,1511.3006,return,0.8944,,24.73958333,,,,,,FBP-OG-19.png,0.35,1.2,11,1,,,,,,,,,,,,,,,,,,0,13,13,10,1,,,,,,,,,,,,,,,,,,,,,,,
,,,,,WIN24_045,19,Female,2024-02-09_11h03.22.390,jersey_experiment_5,2023.2.2,Win32,85.47008547,,,,,,,,,,,,,,,,1511.3008,1513.1007,1513.1007,1516.4303,return,1.0637,,75.13020833,,,,,,FBP-PT-71.png,0.45,1.2,50,1,,,,,,,,,,,,,,,,,,0,14,14,49,1,,,,,,,,,,,,,,,,,,,,,,,
,,,,,WIN24_045,19,Female,2024-02-09_11h03.22.390,jersey_experiment_5,2023.2.2,Win32,85.47008547,,,,,,,,,,,,,,,,1516.4305,1517.7245,1517.7245,1523.8422,return,2.5652,,30.20833333,,,,,,FBP-RB-81.png,0.35,1.2,21,0.5,,,,,,,,,,,,,,,,,,0,15,15,20,1,,,,,,,,,,,,,,,,,,,,,,,
,,,,,WIN24_045,19,Female,2024-02-09_11h03.22.390,jersey_experiment_5,2023.2.2,Win32,85.47008547,,,,,,,,,,,,,,,,1523.8424,1525.1365,1525.1365,1534.3015,return,0.8272,,73.69791667,,,,,,FBP-RB-71.png,0.4,1.2,18,0.5,,,,,,,,,,,,,,,,,,0,16,16,17,1,,,,,,,,,,,,,,,,,,,,,,,
,,,,,WIN24_045,19,Female,2024-02-09_11h03.22.390,jersey_experiment_5,2023.2.2,Win32,85.47008547,,,,,,,,,,,,,,,,1534.3018,1536.1015,1536.1015,1538.6899,return,0.9889,,87.76041667,,,,,,FBP-OG-19.png,0.43,1.2,14,1,,,,,,,,,,,,,,,,,,0,17,17,13,1,,,,,,,,,,,,,,,,,,,,,,,
,,,,,WIN24_045,19,Female,2024-02-09_11h03.22.390,jersey_experiment_5,2023.2.2,Win32,85.47008547,,,,,,,,,,,,,,,,1538.6901,1539.984,1539.984,1542.6195,return,0.8634,,87.76041667,,,,,,FBP-YG-18.png,0.43,1.2,39,0.5,,,,,,,,,,,,,,,,,,0,18,18,38,1,,,,,,,,,,,,,,,,,,,,,,,
,,,,,WIN24_045,19,Female,2024-02-09_11h03.22.390,jersey_experiment_5,2023.2.2,Win32,85.47008547,,,,,,,,,,,,,,,,1542.6196,1543.9135,1543.9135,1546.3843,return,0.9298,,86.71875,,,,,,FBP-RB-91.png,0.43,1.2,29,0.5,,,,,,,,,,,,,,,,,,0,19,19,28,1,,,,,,,,,,,,,,,,,,,,,,,
,,,,,WIN24_045,19,Female,2024-02-09_11h03.22.390,jersey_experiment_5,2023.2.2,Win32,85.47008547,,,,,,,,,,,,,,,,1546.3844,1547.6784,1547.6785,1552.8316,return,2.6012,,24.86979167,,,,,,FBP-YG-18.png,0.35,1.2,36,0.5,,,,,,,,,,,,,,,,,,0,20,20,35,1,,,,,,,,,,,,,,,,,,,,,,,
,,,,,WIN24_045,19,Female,2024-02-09_11h03.22.390,jersey_experiment_5,2023.2.2,Win32,85.47008547,,,,,,,,,,,,,,,,1552.8318,1554.6317,1554.6317,1556.5141,return,1.0589,,24.86979167,,,,,,FBP-PT-71.png,0.37,1.2,47,1,,,,,,,,,,,,,,,,,,0,21,21,46,1,,,,,,,,,,,,,,,,,,,,,,,
,,,,,WIN24_045,19,Female,2024-02-09_11h03.22.390,jersey_experiment_5,2023.2.2,Win32,85.47008547,,,,,,,,,,,,,,,,1556.5144,1558.3141,1558.3142,1561.5143,return,0.785,,74.73958333,,,,,,FBP-PT-71.png,0.4,1.2,48,1,,,,,,,,,,,,,,,,,,0,22,22,47,1,,,,,,,,,,,,,,,,,,,,,,,
,,,,,WIN24_045,19,Female,2024-02-09_11h03.22.390,jersey_experiment_5,2023.2.2,Win32,85.47008547,,,,,,,,,,,,,,,,1561.5144,1563.3144,1563.3144,1567.0556,return,1.6618,,47.00520833,,,,,,FBP-PT-91.png,0.37,1.2,57,1,,,,,,,,,,,,,,,,,,0,23,23,56,1,,,,,,,,,,,,,,,,,,,,,,,
,,,,,WIN24_045,19,Female,2024-02-09_11h03.22.390,jersey_experiment_5,2023.2.2,Win32,85.47008547,,,,,,,,,,,,,,,,1567.0559,1568.3498,1568.3498,1571.8205,return,0.8157,,53.90625,,,,,,FBP-YG-17.png,0.4,1.2,33,0.5,,,,,,,,,,,,,,,,,,0,24,24,32,1,,,,,,,,,,,,,,,,,,,,,,,
,,,,,WIN24_045,19,Female,2024-02-09_11h03.22.390,jersey_experiment_5,2023.2.2,Win32,85.47008547,,,,,,,,,,,,,,,,1571.8207,1573.1146,1573.1146,1576.1264,return,0.8983,,62.109375,,,,,,FBP-RB-81.png,0.4,1.2,23,0.5,,,,,,,,,,,,,,,,,,0,25,25,22,1,,,,,,,,,,,,,,,,,,,,,,,
,,,,,WIN24_045,19,Female,2024-02-09_11h03.22.390,jersey_experiment_5,2023.2.2,Win32,85.47008547,,,,,,,,,,,,,,,,1576.1267,1577.9266,1577.9266,1580.4679,return,0.9412,,17.1875,,,,,,FBP-PT-71.png,0.35,1.2,46,1,,,,,,,,,,,,,,,,,,0,26,26,45,1,,,,,,,,,,,,,,,,,,,,,,,
,,,,,WIN24_045,19,Female,2024-02-09_11h03.22.390,jersey_experiment_5,2023.2.2,Win32,85.47008547,,,,,,,,,,,,,,,,1580.4681,1581.762,1581.762,1584.9622,return,1.1771,,72.265625,,,,,,FBP-RB-81.png,0.43,1.2,24,0.5,,,,,,,,,,,,,,,,,,0,27,27,23,1,,,,,,,,,,,,,,,,,,,,,,,
,,,,,WIN24_045,19,Female,2024-02-09_11h03.22.390,jersey_experiment_5,2023.2.2,Win32,85.47008547,,,,,,,,,,,,,,,,1584.9624,1586.7622,1586.7622,1589.8447,return,1.271,,59.11458333,,,,,,FBP-PT-81.png,0.37,1.2,52,1,,,,,,,,,,,,,,,,,,0,28,28,51,1,,,,,,,,,,,,,,,,,,,,,,,
,,,,,WIN24_045,19,Female,2024-02-09_11h03.22.390,jersey_experiment_5,2023.2.2,Win32,85.47008547,,,,,,,,,,,,,,,,1589.845,1591.6447,1591.6447,1593.9978,return,0.8636,,66.66666667,,,,,,FBP-OG-18.png,0.4,1.2,8,1,,,,,,,,,,,,,,,,,,0,29,29,7,1,,,,,,,,,,,,,,,,,,,,,,,
,,,,,WIN24_045,19,Female,2024-02-09_11h03.22.390,jersey_experiment_5,2023.2.2,Win32,85.47008547,,,,,,,,,,,,,,,,1593.998,1595.292,1595.292,1597.5508,return,0.8718,,81.77083333,,,,,,FBP-YG-19.png,0.43,1.2,44,0.5,,,,,,,,,,,,,,,,,,0,30,30,43,1,,,,,,,,,,,,,,,,,,,,,,,
,,,,,WIN24_045,19,Female,2024-02-09_11h03.22.390,jersey_experiment_5,2023.2.2,Win32,85.47008547,,,,,,,,,,,,,,,,1597.5511,1598.8451,1598.8451,1601.6451,return,0.7235,,25.26041667,,,,,,FBP-YG-18.png,0.37,1.2,37,0.5,,,,,,,,,,,,,,,,,,0,31,31,36,1,,,,,,,,,,,,,,,,,,,,,,,
,,,,,WIN24_045,19,Female,2024-02-09_11h03.22.390,jersey_experiment_5,2023.2.2,Win32,85.47008547,,,,,,,,,,,,,,,,1601.6454,1603.4452,1603.4452,1606.4924,return,0.9219,,29.16666667,,,,,,FBP-OG-19.png,0.37,1.2,12,1,,,,,,,,,,,,,,,,,,0,32,32,11,1,,,,,,,,,,,,,,,,,,,,,,,
,,,,,WIN24_045,19,Female,2024-02-09_11h03.22.390,jersey_experiment_5,2023.2.2,Win32,85.47008547,,,,,,,,,,,,,,,,1606.4926,1607.7865,1607.7865,1611.916,return,1.0512,,64.97395833,,,,,,FBP-YG-19.png,0.4,1.2,43,0.5,,,,,,,,,,,,,,,,,,0,33,33,42,1,,,,,,,,,,,,,,,,,,,,,,,
,,,,,WIN24_045,19,Female,2024-02-09_11h03.22.390,jersey_experiment_5,2023.2.2,Win32,85.47008547,,,,,,,,,,,,,,,,1611.9163,1613.7161,1613.7162,1616.3986,return,1.0039,,88.15104167,,,,,,FBP-OG-18.png,0.45,1.2,10,1,,,,,,,,,,,,,,,,,,0,34,34,9,1,,,,,,,,,,,,,,,,,,,,,,,
,,,,,WIN24_045,19,Female,2024-02-09_11h03.22.390,jersey_experiment_5,2023.2.2,Win32,85.47008547,,,,,,,,,,,,,,,,1616.3989,1617.6928,1617.6928,1621.1516,return,1.0734,,88.41145833,,,,,,FBP-RB-71.png,0.43,1.2,19,0.5,,,,,,,,,,,,,,,,,,0,35,35,18,1,,,,,,,,,,,,,,,,,,,,,,,
,,,,,WIN24_045,19,Female,2024-02-09_11h03.22.390,jersey_experiment_5,2023.2.2,Win32,85.47008547,,,,,,,,,,,,,,,,1621.1518,1622.9517,1622.9517,1625.2931,return,0.8175,,95.96354167,,,,,,FBP-PT-91.png,0.43,1.2,59,1,,,,,,,,,,,,,,,,,,0,36,36,58,1,,,,,,,,,,,,,,,,,,,,,,,
,,,,,WIN24_045,19,Female,2024-02-09_11h03.22.390,jersey_experiment_5,2023.2.2,Win32,85.47008547,,,,,,,,,,,,,,,,1625.2933,1627.093,1627.093,1629.7754,return,0.8831,,24.73958333,,,,,,FBP-OG-17.png,0.37,1.2,2,1,,,,,,,,,,,,,,,,,,0,37,37,1,1,,,,,,,,,,,,,,,,,,,,,,,
,,,,,WIN24_045,19,Female,2024-02-09_11h03.22.390,jersey_experiment_5,2023.2.2,Win32,85.47008547,,,,,,,,,,,,,,,,1629.7757,1631.0696,1631.0696,1634.0463,return,0.7218,,83.07291667,,,,,,FBP-YG-17.png,0.45,1.2,35,0.5,,,,,,,,,,,,,,,,,,0,38,38,34,1,,,,,,,,,,,,,,,,,,,,,,,
,,,,,WIN24_045,19,Female,2024-02-09_11h03.22.390,jersey_experiment_5,2023.2.2,Win32,85.47008547,,,,,,,,,,,,,,,,1634.0466,1635.3405,1635.3405,1637.917,return,0.9937,,92.1875,,,,,,FBP-RB-81.png,0.45,1.2,25,0.5,,,,,,,,,,,,,,,,,,0,39,39,24,1,,,,,,,,,,,,,,,,,,,,,,,
,,,,,WIN24_045,19,Female,2024-02-09_11h03.22.390,jersey_experiment_5,2023.2.2,Win32,85.47008547,,,,,,,,,,,,,,,,1637.9172,1639.2111,1639.2111,1642.0818,return,0.8951,,24.86979167,,,,,,FBP-RB-71.png,0.35,1.2,16,0.5,,,,,,,,,,,,,,,,,,0,40,40,15,1,,,,,,,,,,,,,,,,,,,,,,,
,,,,,WIN24_045,19,Female,2024-02-09_11h03.22.390,jersey_experiment_5,2023.2.2,Win32,85.47008547,,,,,,,,,,,,,,,,1642.082,1643.3759,1643.376,1646.4467,return,1.132,,21.22395833,,,,,,FBP-YG-19.png,0.37,1.2,42,0.5,,,,,,,,,,,,,,,,,,0,41,41,41,1,,,,,,,,,,,,,,,,,,,,,,,
,,,,,WIN24_045,19,Female,2024-02-09_11h03.22.390,jersey_experiment_5,2023.2.2,Win32,85.47008547,,,,,,,,,,,,,,,,1646.4471,1648.2467,1648.2467,1651.3411,return,1.3116,,60.41666667,,,,,,FBP-OG-17.png,0.4,1.2,3,1,,,,,,,,,,,,,,,,,,0,42,42,2,1,,,,,,,,,,,,,,,,,,,,,,,
,,,,,WIN24_045,19,Female,2024-02-09_11h03.22.390,jersey_experiment_5,2023.2.2,Win32,85.47008547,,,,,,,,,,,,,,,,1651.3413,1653.1412,1653.1412,1655.3647,return,1.1199,,83.59375,,,,,,FBP-OG-19.png,0.45,1.2,15,1,,,,,,,,,,,,,,,,,,0,43,43,14,1,,,,,,,,,,,,,,,,,,,,,,,
,,,,,WIN24_045,19,Female,2024-02-09_11h03.22.390,jersey_experiment_5,2023.2.2,Win32,85.47008547,,,,,,,,,,,,,,,,1655.3649,1656.6589,1656.6589,1660.9414,return,0.77,,49.73958333,,,,,,FBP-RB-91.png,0.37,1.2,27,0.5,,,,,,,,,,,,,,,,,,0,44,44,26,1,,,,,,,,,,,,,,,,,,,,,,,
,,,,,WIN24_045,19,Female,2024-02-09_11h03.22.390,jersey_experiment_5,2023.2.2,Win32,85.47008547,,,,,,,,,,,,,,,,1660.9417,1662.2355,1662.2355,1665.5885,return,1.0456,,24.609375,,,,,,FBP-YG-17.png,0.35,1.2,31,0.5,,,,,,,,,,,,,,,,,,0,45,45,30,1,,,,,,,,,,,,,,,,,,,,,,,
,,,,,WIN24_045,19,Female,2024-02-09_11h03.22.390,jersey_experiment_5,2023.2.2,Win32,85.47008547,,,,,,,,,,,,,,,,1665.5887,1667.3887,1667.3887,1670.0475,return,0.73,,84.11458333,,,,,,FBP-OG-18.png,0.43,1.2,9,1,,,,,,,,,,,,,,,,,,0,46,46,8,1,,,,,,,,,,,,,,,,,,,,,,,
,,,,,WIN24_045,19,Female,2024-02-09_11h03.22.390,jersey_experiment_5,2023.2.2,Win32,85.47008547,,,,,,,,,,,,,,,,1670.0477,1671.8475,1671.8475,1673.8829,return,0.7956,,93.88020833,,,,,,FBP-PT-91.png,0.45,1.2,60,1,,,,,,,,,,,,,,,,,,0,47,47,59,1,,,,,,,,,,,,,,,,,,,,,,,
,,,,,WIN24_045,19,Female,2024-02-09_11h03.22.390,jersey_experiment_5,2023.2.2,Win32,85.47008547,,,,,,,,,,,,,,,,1673.8831,1675.6831,1675.6831,1678.636,return,0.9219,,93.88020833,,,,,,FBP-PT-71.png,0.43,1.2,49,1,,,,,,,,,,,,,,,,,,0,48,48,48,1,,,,,,,,,,,,,,,,,,,,,,,
,,,,,WIN24_045,19,Female,2024-02-09_11h03.22.390,jersey_experiment_5,2023.2.2,Win32,85.47008547,,,,,,,,,,,,,,,,1678.6363,1679.9303,1679.9303,1681.9304,return,0.7589,,93.88020833,,,,,,FBP-RB-71.png,0.45,1.2,20,0.5,,,,,,,,,,,,,,,,,,0,49,49,19,1,,,,,,,,,,,,,,,,,,,,,,,
,,,,,WIN24_045,19,Female,2024-02-09_11h03.22.390,jersey_experiment_5,2023.2.2,Win32,85.47008547,,,,,,,,,,,,,,,,1681.9306,1683.7303,1683.7304,1686.2835,return,0.9227,,24.86979167,,,,,,FBP-PT-81.png,0.35,1.2,51,1,,,,,,,,,,,,,,,,,,0,50,50,50,1,,,,,,,,,,,,,,,,,,,,,,,
,,,,,WIN24_045,19,Female,2024-02-09_11h03.22.390,jersey_experiment_5,2023.2.2,Win32,85.47008547,,,,,,,,,,,,,,,,1686.2836,1687.5776,1687.5776,1693.6014,return,2.319,,24.47916667,,,,,,FBP-YG-17.png,0.37,1.2,32,0.5,,,,,,,,,,,,,,,,,,0,51,51,31,1,,,,,,,,,,,,,,,,,,,,,,,
,,,,,WIN24_045,19,Female,2024-02-09_11h03.22.390,jersey_experiment_5,2023.2.2,Win32,85.47008547,,,,,,,,,,,,,,,,1693.6016,1694.8954,1694.8954,1698.3779,return,0.9381,,74.73958333,,,,,,FBP-RB-91.png,0.45,1.2,30,0.5,,,,,,,,,,,,,,,,,,0,52,52,29,1,,,,,,,,,,,,,,,,,,,,,,,
,,,,,WIN24_045,19,Female,2024-02-09_11h03.22.390,jersey_experiment_5,2023.2.2,Win32,85.47008547,,,,,,,,,,,,,,,,1698.3782,1699.6721,1699.6722,1703.8841,return,1.5099,,66.14583333,,,,,,FBP-YG-18.png,0.4,1.2,38,0.5,,,,,,,,,,,,,,,,,,0,53,53,37,1,,,,,,,,,,,,,,,,,,,,,,,
,,,,,WIN24_045,19,Female,2024-02-09_11h03.22.390,jersey_experiment_5,2023.2.2,Win32,85.47008547,,,,,,,,,,,,,,,,1703.8843,1705.6842,1705.6842,1709.202,return,1.1539,,32.55208333,,,,,,FBP-OG-18.png,0.37,1.2,7,1,,,,,,,,,,,,,,,,,,0,54,54,6,1,,,,,,,,,,,,,,,,,,,,,,,
,,,,,WIN24_045,19,Female,2024-02-09_11h03.22.390,jersey_experiment_5,2023.2.2,Win32,85.47008547,,,,,,,,,,,,,,,,1709.2022,1711.0019,1711.0019,1715.7079,return,1.3242,,63.02083333,,,,,,FBP-PT-81.png,0.4,1.2,53,1,,,,,,,,,,,,,,,,,,0,55,55,52,1,,,,,,,,,,,,,,,,,,,,,,,
,,,,,WIN24_045,19,Female,2024-02-09_11h03.22.390,jersey_experiment_5,2023.2.2,Win32,85.47008547,,,,,,,,,,,,,,,,1715.7082,1717.5081,1717.5081,1722.9082,return,0.9098,,25,,,,,,FBP-OG-17.png,0.35,1.2,1,1,,,,,,,,,,,,,,,,,,0,56,56,0,1,,,,,,,,,,,,,,,,,,,,,,,
,,,,,WIN24_045,19,Female,2024-02-09_11h03.22.390,jersey_experiment_5,2023.2.2,Win32,85.47008547,,,,,,,,,,,,,,,,1722.9084,1724.2024,1724.2024,1727.1202,return,0.7789,,75.13020833,,,,,,FBP-YG-18.png,0.45,1.2,40,0.5,,,,,,,,,,,,,,,,,,0,57,57,39,1,,,,,,,,,,,,,,,,,,,,,,,
,,,,,WIN24_045,19,Female,2024-02-09_11h03.22.390,jersey_experiment_5,2023.2.2,Win32,85.47008547,,,,,,,,,,,,,,,,1727.1204,1728.4144,1728.4144,1732.1909,return,1.1779,,24.73958333,,,,,,FBP-RB-91.png,0.35,1.2,26,0.5,,,,,,,,,,,,,,,,,,0,58,58,25,1,,,,,,,,,,,,,,,,,,,,,,,
,,,,,WIN24_045,19,Female,2024-02-09_11h03.22.390,jersey_experiment_5,2023.2.2,Win32,85.47008547,,,,,,,,,,,,,,,,1732.1912,1733.485,1733.485,1737.6616,return,1.2284,,83.85416667,,,,,,FBP-YG-19.png,0.45,1.2,45,0.5,,,,,,,,,,,,,,,,,,0,59,59,44,1,,,,,,,,,,,,,,,,,,,,,,,
,,,,,WIN24_045,19,Female,2024-02-09_11h03.22.390,jersey_experiment_5,2023.2.2,Win32,85.47008547,,,,,,,,,,,,,,,,,,,,,,,,,,,,,,,,,,,,,,,,,,,,,,,,,,,,,,,,1737.6621,1755.3922,return,17.7181,,,,,,,,,,,,,,,,,,,
,,,,,WIN24_045,19,Female,2024-02-09_11h03.22.390,jersey_experiment_5,2023.2.2,Win32,85.47008547,,,,,,,,,,,,,,,,,,,,,,,,,,,,,,,,,,,,,,,,,,,,,,,,,,,,,,,,,,,,,1755.3922,1763.0274,1,4.868,return,2.7384,,,,,,,,,,,,
,,,,,WIN24_045,19,Female,2024-02-09_11h03.22.390,jersey_experiment_5,2023.2.2,Win32,85.47008547,,,,,,,,,,,,,,,,,,,,,,,,,,,,,,,,,,,,,,,,,,,,,,,,,,,,,,,,,,,,,,,,,,,,1763.0275,1888.5664,"how color, size of the image, and the sequence of images affect people's perception of whether the player is husky or slender. I think the pattern is relatively random.",right,97.271,,,,,,
,,,,,WIN24_045,19,Female,2024-02-09_11h03.22.390,jersey_experiment_5,2023.2.2,Win32,85.47008547,,,,,,,,,,,,,,,,,,,,,,,,,,,,,,,,,,,,,,,,,,,,,,,,,,,,,,,,,,,,,,,,,,,,,,,,,,1888.5665,1893.9969,return,5.4226,