requirements.started,requirements.stopped,key_resp_3.keys,key_resp_3.rt,key_resp_3.duration,Subject ID,Age,Gender,date,expName,psychopyVersion,OS,frameRate,instructions1.started,instructions1.stopped,key_resp.keys,key_resp.rt,key_resp.duration,example.started,example.stopped,enter_2.keys,enter_2.rt,enter_2.duration,instructions2.started,instructions2.stopped,enter_3.keys,enter_3.rt,enter_3.duration,image.started,image.stopped,slider_2.started,slider_2.stopped,next.keys,next.rt,next.duration,slider.response,trial_block_1.thisRepN,trial_block_1.thisTrialN,trial_block_1.thisN,trial_block_1.thisIndex,trial_block_1.ran,Path,Width,Height,Index,Duration,trial_block_2.thisRepN,trial_block_2.thisTrialN,trial_block_2.thisN,trial_block_2.thisIndex,trial_block_2.ran,rest_break.started,rest_break.stopped,end_break.started,end_break.stopped,key_resp_5.keys,key_resp_5.rt,key_resp_5.duration,trial_block_3.thisRepN,trial_block_3.thisTrialN,trial_block_3.thisN,trial_block_3.thisIndex,trial_block_3.ran,trial_block_4.thisRepN,trial_block_4.thisTrialN,trial_block_4.thisN,trial_block_4.thisIndex,trial_block_4.ran,questions_intro.started,questions_intro.stopped,enter_12.keys,enter_12.rt,enter_12.duration,question2.started,question2.stopped,question_doingbest.response,question_doingbest.rt,enter_15.keys,enter_15.rt,enter_15.duration,pattern.started,pattern.stopped,pattern_2.text,enter_17.keys,enter_17.rt,enter_17.duration,thankyou.started,thankyou.stopped,enter_14.keys,enter_14.rt,enter_14.duration
0.0001,5.6919,return,5.6867,,WIN24_016,22,Female,2024-01-29_17h31.03.009,jersey_experiment_5,2023.2.2,Win32,84.03361345,,,,,,,,,,,,,,,,,,,,,,,,,,,,,,,,,,,,,,,,,,,,,,,,,,,,,,,,,,,,,,,,,,,,,,,,,,,,,,
,,,,,WIN24_016,22,Female,2024-01-29_17h31.03.009,jersey_experiment_5,2023.2.2,Win32,84.03361345,5.692,10.1863,return,4.4875,,,,,,,,,,,,,,,,,,,,,,,,,,,,,,,,,,,,,,,,,,,,,,,,,,,,,,,,,,,,,,,,,,,,,,,,,,
,,,,,WIN24_016,22,Female,2024-01-29_17h31.03.009,jersey_experiment_5,2023.2.2,Win32,84.03361345,,,,,,10.1863,14.5556,return,4.3423,,,,,,,,,,,,,,,,,,,,,,,,,,,,,,,,,,,,,,,,,,,,,,,,,,,,,,,,,,,,,,,,,,,,,
,,,,,WIN24_016,22,Female,2024-01-29_17h31.03.009,jersey_experiment_5,2023.2.2,Win32,84.03361345,,,,,,,,,,,14.5556,26.3516,return,11.777,,,,,,,,,,,,,,,,,,,,,,,,,,,,,,,,,,,,,,,,,,,,,,,,,,,,,,,,,,,,,,,,
,,,,,WIN24_016,22,Female,2024-01-29_17h31.03.009,jersey_experiment_5,2023.2.2,Win32,84.03361345,,,,,,,,,,,,,,,,26.359,27.6573,27.6574,36.4105,return,3.1928,,25.65104167,0,0,0,4,1,FBP-OG-71.png,0.45,1.2,5,0.5,,,,,,,,,,,,,,,,,,,,,,,,,,,,,,,,,,,,,,,,,,,,,
,,,,,WIN24_016,22,Female,2024-01-29_17h31.03.009,jersey_experiment_5,2023.2.2,Win32,84.03361345,,,,,,,,,,,,,,,,36.4108,37.7046,37.7047,39.5185,return,0.3608,,50,0,1,1,50,1,FBP-PT-18.png,0.35,1.2,51,0.5,,,,,,,,,,,,,,,,,,,,,,,,,,,,,,,,,,,,,,,,,,,,,
,,,,,WIN24_016,22,Female,2024-01-29_17h31.03.009,jersey_experiment_5,2023.2.2,Win32,84.03361345,,,,,,,,,,,,,,,,39.5187,40.8104,40.8104,42.803,return,0.2707,,50.78125,0,2,2,45,1,FBP-PT-17.png,0.35,1.2,46,0.5,,,,,,,,,,,,,,,,,,,,,,,,,,,,,,,,,,,,,,,,,,,,,
,,,,,WIN24_016,22,Female,2024-01-29_17h31.03.009,jersey_experiment_5,2023.2.2,Win32,84.03361345,,,,,,,,,,,,,,,,42.8032,44.0971,44.0971,45.7872,return,0.3096,,98.69791667,0,3,3,54,1,FBP-PT-18.png,0.45,1.2,55,0.5,,,,,,,,,,,,,,,,,,,,,,,,,,,,,,,,,,,,,,,,,,,,,
,,,,,WIN24_016,22,Female,2024-01-29_17h31.03.009,jersey_experiment_5,2023.2.2,Win32,84.03361345,,,,,,,,,,,,,,,,45.7873,47.0814,47.0815,49.3449,return,1.1868,,49.86979167,0,4,4,11,1,FBP-OG-91.png,0.37,1.2,12,0.5,,,,,,,,,,,,,,,,,,,,,,,,,,,,,,,,,,,,,,,,,,,,,
,,,,,WIN24_016,22,Female,2024-01-29_17h31.03.009,jersey_experiment_5,2023.2.2,Win32,84.03361345,,,,,,,,,,,,,,,,49.345,50.6379,50.6379,54.0111,return,1.9922,,27.08333333,0,5,5,0,1,FBP-OG-71.png,0.35,1.2,1,0.5,,,,,,,,,,,,,,,,,,,,,,,,,,,,,,,,,,,,,,,,,,,,,
,,,,,WIN24_016,22,Female,2024-01-29_17h31.03.009,jersey_experiment_5,2023.2.2,Win32,84.03361345,,,,,,,,,,,,,,,,54.0113,55.8152,55.8152,57.2111,return,0.5333,,98.046875,0,6,6,33,1,FBP-YG-71.png,0.43,1.2,34,1,,,,,,,,,,,,,,,,,,,,,,,,,,,,,,,,,,,,,,,,,,,,,
,,,,,WIN24_016,22,Female,2024-01-29_17h31.03.009,jersey_experiment_5,2023.2.2,Win32,84.03361345,,,,,,,,,,,,,,,,57.2112,58.5054,58.5054,60.7567,return,0.5863,,49.86979167,0,7,7,51,1,FBP-PT-18.png,0.37,1.2,52,0.5,,,,,,,,,,,,,,,,,,,,,,,,,,,,,,,,,,,,,,,,,,,,,
,,,,,WIN24_016,22,Female,2024-01-29_17h31.03.009,jersey_experiment_5,2023.2.2,Win32,84.03361345,,,,,,,,,,,,,,,,60.7568,62.5526,62.5527,63.6508,return,0.4962,,48.69791667,0,8,8,26,1,FBP-RB-19.png,0.37,1.2,27,1,,,,,,,,,,,,,,,,,,,,,,,,,,,,,,,,,,,,,,,,,,,,,
,,,,,WIN24_016,22,Female,2024-01-29_17h31.03.009,jersey_experiment_5,2023.2.2,Win32,84.03361345,,,,,,,,,,,,,,,,63.651,65.4507,65.4507,67.3568,return,0.7532,,97.13541667,0,9,9,19,1,FBP-RB-17.png,0.45,1.2,20,1,,,,,,,,,,,,,,,,,,,,,,,,,,,,,,,,,,,,,,,,,,,,,
,,,,,WIN24_016,22,Female,2024-01-29_17h31.03.009,jersey_experiment_5,2023.2.2,Win32,84.03361345,,,,,,,,,,,,,,,,67.3569,69.1591,69.1591,71.0631,return,1.1536,,98.828125,0,10,10,18,1,FBP-RB-17.png,0.43,1.2,19,1,,,,,,,,,,,,,,,,,,,,,,,,,,,,,,,,,,,,,,,,,,,,,
,,,,,WIN24_016,22,Female,2024-01-29_17h31.03.009,jersey_experiment_5,2023.2.2,Win32,84.03361345,,,,,,,,,,,,,,,,71.0632,72.8615,72.8615,74.659,return,0.6832,,35.546875,0,11,11,40,1,FBP-YG-91.png,0.35,1.2,41,1,,,,,,,,,,,,,,,,,,,,,,,,,,,,,,,,,,,,,,,,,,,,,
,,,,,WIN24_016,22,Female,2024-01-29_17h31.03.009,jersey_experiment_5,2023.2.2,Win32,84.03361345,,,,,,,,,,,,,,,,74.6591,76.4617,76.4617,78.0824,return,0.7537,,35.28645833,0,12,12,16,1,FBP-RB-17.png,0.37,1.2,17,1,,,,,,,,,,,,,,,,,,,,,,,,,,,,,,,,,,,,,,,,,,,,,
,,,,,WIN24_016,22,Female,2024-01-29_17h31.03.009,jersey_experiment_5,2023.2.2,Win32,84.03361345,,,,,,,,,,,,,,,,78.0826,79.8827,79.8827,80.9768,return,0.4021,,38.671875,0,13,13,31,1,FBP-YG-71.png,0.37,1.2,32,1,,,,,,,,,,,,,,,,,,,,,,,,,,,,,,,,,,,,,,,,,,,,,
,,,,,WIN24_016,22,Female,2024-01-29_17h31.03.009,jersey_experiment_5,2023.2.2,Win32,84.03361345,,,,,,,,,,,,,,,,80.977,82.2753,82.2753,83.9769,return,0.4746,,78.77604167,0,14,14,47,1,FBP-PT-17.png,0.4,1.2,48,0.5,,,,,,,,,,,,,,,,,,,,,,,,,,,,,,,,,,,,,,,,,,,,,
,,,,,WIN24_016,22,Female,2024-01-29_17h31.03.009,jersey_experiment_5,2023.2.2,Win32,84.03361345,,,,,,,,,,,,,,,,83.977,85.2751,85.2752,86.4946,return,0.5042,,77.34375,0,15,15,52,1,FBP-PT-18.png,0.4,1.2,53,0.5,,,,,,,,,,,,,,,,,,,,,,,,,,,,,,,,,,,,,,,,,,,,,
,,,,,WIN24_016,22,Female,2024-01-29_17h31.03.009,jersey_experiment_5,2023.2.2,Win32,84.03361345,,,,,,,,,,,,,,,,86.4946,87.7908,87.7909,89.2124,return,0.4026,,96.61458333,0,16,16,59,1,FBP-PT-19.png,0.45,1.2,60,0.5,,,,,,,,,,,,,,,,,,,,,,,,,,,,,,,,,,,,,,,,,,,,,
,,,,,WIN24_016,22,Female,2024-01-29_17h31.03.009,jersey_experiment_5,2023.2.2,Win32,84.03361345,,,,,,,,,,,,,,,,89.2126,91.0049,91.0049,92.2166,return,0.3414,,98.828125,0,17,17,22,1,FBP-RB-18.png,0.4,1.2,23,1,,,,,,,,,,,,,,,,,,,,,,,,,,,,,,,,,,,,,,,,,,,,,
,,,,,WIN24_016,22,Female,2024-01-29_17h31.03.009,jersey_experiment_5,2023.2.2,Win32,84.03361345,,,,,,,,,,,,,,,,92.2168,93.5184,93.5185,94.448,return,0.3651,,98.4375,0,18,18,58,1,FBP-PT-19.png,0.43,1.2,59,0.5,,,,,,,,,,,,,,,,,,,,,,,,,,,,,,,,,,,,,,,,,,,,,
,,,,,WIN24_016,22,Female,2024-01-29_17h31.03.009,jersey_experiment_5,2023.2.2,Win32,84.03361345,,,,,,,,,,,,,,,,94.448,95.7461,95.7461,96.7108,return,0.4237,,98.4375,0,19,19,9,1,FBP-OG-81.png,0.45,1.2,10,0.5,,,,,,,,,,,,,,,,,,,,,,,,,,,,,,,,,,,,,,,,,,,,,
,,,,,WIN24_016,22,Female,2024-01-29_17h31.03.009,jersey_experiment_5,2023.2.2,Win32,84.03361345,,,,,,,,,,,,,,,,96.711,98.511,98.511,100.048,return,0.5661,,70.05208333,0,20,20,37,1,FBP-YG-81.png,0.4,1.2,38,1,,,,,,,,,,,,,,,,,,,,,,,,,,,,,,,,,,,,,,,,,,,,,
,,,,,WIN24_016,22,Female,2024-01-29_17h31.03.009,jersey_experiment_5,2023.2.2,Win32,84.03361345,,,,,,,,,,,,,,,,100.0482,101.8408,101.8408,103.1776,return,0.7463,,92.70833333,0,21,21,43,1,FBP-YG-91.png,0.43,1.2,44,1,,,,,,,,,,,,,,,,,,,,,,,,,,,,,,,,,,,,,,,,,,,,,
,,,,,WIN24_016,22,Female,2024-01-29_17h31.03.009,jersey_experiment_5,2023.2.2,Win32,84.03361345,,,,,,,,,,,,,,,,103.1778,104.4716,104.4716,106.6171,return,0.3859,,77.34375,0,22,22,8,1,FBP-OG-81.png,0.43,1.2,9,0.5,,,,,,,,,,,,,,,,,,,,,,,,,,,,,,,,,,,,,,,,,,,,,
,,,,,WIN24_016,22,Female,2024-01-29_17h31.03.009,jersey_experiment_5,2023.2.2,Win32,84.03361345,,,,,,,,,,,,,,,,106.6172,108.4193,108.4193,109.5331,return,0.4102,,93.359375,0,23,23,39,1,FBP-YG-81.png,0.45,1.2,40,1,,,,,,,,,,,,,,,,,,,,,,,,,,,,,,,,,,,,,,,,,,,,,
,,,,,WIN24_016,22,Female,2024-01-29_17h31.03.009,jersey_experiment_5,2023.2.2,Win32,84.03361345,,,,,,,,,,,,,,,,109.5332,110.825,110.825,115.6133,return,0.5314,,99.47916667,0,24,24,14,1,FBP-OG-91.png,0.45,1.2,15,0.5,,,,,,,,,,,,,,,,,,,,,,,,,,,,,,,,,,,,,,,,,,,,,
,,,,,WIN24_016,22,Female,2024-01-29_17h31.03.009,jersey_experiment_5,2023.2.2,Win32,84.03361345,,,,,,,,,,,,,,,,115.6135,117.4134,117.4134,119.0369,return,0.6017,,20.703125,0,25,25,20,1,FBP-RB-18.png,0.35,1.2,21,1,,,,,,,,,,,,,,,,,,,,,,,,,,,,,,,,,,,,,,,,,,,,,
,,,,,WIN24_016,22,Female,2024-01-29_17h31.03.009,jersey_experiment_5,2023.2.2,Win32,84.03361345,,,,,,,,,,,,,,,,119.0371,120.8298,120.8298,121.912,return,0.3179,,7.421875,0,26,26,35,1,FBP-YG-81.png,0.35,1.2,36,1,,,,,,,,,,,,,,,,,,,,,,,,,,,,,,,,,,,,,,,,,,,,,
,,,,,WIN24_016,22,Female,2024-01-29_17h31.03.009,jersey_experiment_5,2023.2.2,Win32,84.03361345,,,,,,,,,,,,,,,,121.9121,123.7119,123.7119,125.0414,return,0.398,,66.66666667,0,27,27,34,1,FBP-YG-71.png,0.45,1.2,35,1,,,,,,,,,,,,,,,,,,,,,,,,,,,,,,,,,,,,,,,,,,,,,
,,,,,WIN24_016,22,Female,2024-01-29_17h31.03.009,jersey_experiment_5,2023.2.2,Win32,84.03361345,,,,,,,,,,,,,,,,125.0415,126.8372,126.8373,128.0608,return,0.5196,,76.171875,0,28,28,23,1,FBP-RB-18.png,0.43,1.2,24,1,,,,,,,,,,,,,,,,,,,,,,,,,,,,,,,,,,,,,,,,,,,,,
,,,,,WIN24_016,22,Female,2024-01-29_17h31.03.009,jersey_experiment_5,2023.2.2,Win32,84.03361345,,,,,,,,,,,,,,,,128.0611,129.3551,129.3552,131.2257,return,0.3349,,52.86458333,0,29,29,6,1,FBP-OG-81.png,0.37,1.2,7,0.5,,,,,,,,,,,,,,,,,,,,,,,,,,,,,,,,,,,,,,,,,,,,,
,,,,,WIN24_016,22,Female,2024-01-29_17h31.03.009,jersey_experiment_5,2023.2.2,Win32,84.03361345,,,,,,,,,,,,,,,,131.2259,132.5199,132.5199,134.1576,return,0.326,,93.75,0,30,30,48,1,FBP-PT-17.png,0.43,1.2,49,0.5,,,,,,,,,,,,,,,,,,,,,,,,,,,,,,,,,,,,,,,,,,,,,
,,,,,WIN24_016,22,Female,2024-01-29_17h31.03.009,jersey_experiment_5,2023.2.2,Win32,84.03361345,,,,,,,,,,,,,,,,134.1578,135.9496,135.9496,137.9435,return,1.0193,,51.953125,0,31,31,32,1,FBP-YG-71.png,0.4,1.2,33,1,,,,,,,,,,,,,,,,,,,,,,,,,,,,,,,,,,,,,,,,,,,,,
,,,,,WIN24_016,22,Female,2024-01-29_17h31.03.009,jersey_experiment_5,2023.2.2,Win32,84.03361345,,,,,,,,,,,,,,,,137.9437,139.2417,139.2417,141.3465,return,0.3851,,73.56770833,0,32,32,3,1,FBP-OG-71.png,0.43,1.2,4,0.5,,,,,,,,,,,,,,,,,,,,,,,,,,,,,,,,,,,,,,,,,,,,,
,,,,,WIN24_016,22,Female,2024-01-29_17h31.03.009,jersey_experiment_5,2023.2.2,Win32,84.03361345,,,,,,,,,,,,,,,,141.3466,142.638,142.638,144.2875,return,0.4591,,16.015625,0,33,33,10,1,FBP-OG-91.png,0.35,1.2,11,0.5,,,,,,,,,,,,,,,,,,,,,,,,,,,,,,,,,,,,,,,,,,,,,
,,,,,WIN24_016,22,Female,2024-01-29_17h31.03.009,jersey_experiment_5,2023.2.2,Win32,84.03361345,,,,,,,,,,,,,,,,144.2876,146.0871,146.0871,147.6262,return,0.4635,,95.05208333,0,34,34,24,1,FBP-RB-18.png,0.45,1.2,25,1,,,,,,,,,,,,,,,,,,,,,,,,,,,,,,,,,,,,,,,,,,,,,
,,,,,WIN24_016,22,Female,2024-01-29_17h31.03.009,jersey_experiment_5,2023.2.2,Win32,84.03361345,,,,,,,,,,,,,,,,147.6265,148.9203,148.9203,150.9716,return,0.3865,,83.72395833,0,35,35,49,1,FBP-PT-17.png,0.45,1.2,50,0.5,,,,,,,,,,,,,,,,,,,,,,,,,,,,,,,,,,,,,,,,,,,,,
,,,,,WIN24_016,22,Female,2024-01-29_17h31.03.009,jersey_experiment_5,2023.2.2,Win32,84.03361345,,,,,,,,,,,,,,,,150.9718,152.2736,152.2736,154.0644,return,0.4589,,50.52083333,0,36,36,12,1,FBP-OG-91.png,0.4,1.2,13,0.5,,,,,,,,,,,,,,,,,,,,,,,,,,,,,,,,,,,,,,,,,,,,,
,,,,,WIN24_016,22,Female,2024-01-29_17h31.03.009,jersey_experiment_5,2023.2.2,Win32,84.03361345,,,,,,,,,,,,,,,,154.0645,155.3561,155.3561,157.0641,return,0.3988,,54.55729167,0,37,37,7,1,FBP-OG-81.png,0.4,1.2,8,0.5,,,,,,,,,,,,,,,,,,,,,,,,,,,,,,,,,,,,,,,,,,,,,
,,,,,WIN24_016,22,Female,2024-01-29_17h31.03.009,jersey_experiment_5,2023.2.2,Win32,84.03361345,,,,,,,,,,,,,,,,157.0642,158.3561,158.3562,160.1956,return,0.4352,,62.76041667,0,38,38,57,1,FBP-PT-19.png,0.4,1.2,58,0.5,,,,,,,,,,,,,,,,,,,,,,,,,,,,,,,,,,,,,,,,,,,,,
,,,,,WIN24_016,22,Female,2024-01-29_17h31.03.009,jersey_experiment_5,2023.2.2,Win32,84.03361345,,,,,,,,,,,,,,,,160.1957,161.4975,161.4975,163.8063,return,0.3997,,49.34895833,0,39,39,56,1,FBP-PT-19.png,0.37,1.2,57,0.5,,,,,,,,,,,,,,,,,,,,,,,,,,,,,,,,,,,,,,,,,,,,,
,,,,,WIN24_016,22,Female,2024-01-29_17h31.03.009,jersey_experiment_5,2023.2.2,Win32,84.03361345,,,,,,,,,,,,,,,,163.8064,165.6034,165.6034,167.0195,return,0.5413,,50.52083333,0,40,40,27,1,FBP-RB-19.png,0.4,1.2,28,1,,,,,,,,,,,,,,,,,,,,,,,,,,,,,,,,,,,,,,,,,,,,,
,,,,,WIN24_016,22,Female,2024-01-29_17h31.03.009,jersey_experiment_5,2023.2.2,Win32,84.03361345,,,,,,,,,,,,,,,,167.0197,168.3212,168.3212,169.6314,return,0.3061,,30.72916667,0,41,41,46,1,FBP-PT-17.png,0.37,1.2,47,0.5,,,,,,,,,,,,,,,,,,,,,,,,,,,,,,,,,,,,,,,,,,,,,
,,,,,WIN24_016,22,Female,2024-01-29_17h31.03.009,jersey_experiment_5,2023.2.2,Win32,84.03361345,,,,,,,,,,,,,,,,169.6315,171.4273,171.4273,175.2743,return,0.4513,,12.76041667,0,42,42,15,1,FBP-RB-17.png,0.35,1.2,16,1,,,,,,,,,,,,,,,,,,,,,,,,,,,,,,,,,,,,,,,,,,,,,
,,,,,WIN24_016,22,Female,2024-01-29_17h31.03.009,jersey_experiment_5,2023.2.2,Win32,84.03361345,,,,,,,,,,,,,,,,175.2745,176.5686,176.5686,178.1608,return,0.3533,,48.046875,0,43,43,2,1,FBP-OG-71.png,0.4,1.2,3,0.5,,,,,,,,,,,,,,,,,,,,,,,,,,,,,,,,,,,,,,,,,,,,,
,,,,,WIN24_016,22,Female,2024-01-29_17h31.03.009,jersey_experiment_5,2023.2.2,Win32,84.03361345,,,,,,,,,,,,,,,,178.1611,179.4627,179.4627,180.7806,return,0.3298,,82.29166667,0,44,44,53,1,FBP-PT-18.png,0.43,1.2,54,0.5,,,,,,,,,,,,,,,,,,,,,,,,,,,,,,,,,,,,,,,,,,,,,
,,,,,WIN24_016,22,Female,2024-01-29_17h31.03.009,jersey_experiment_5,2023.2.2,Win32,84.03361345,,,,,,,,,,,,,,,,180.7808,182.0745,182.0745,183.8866,return,0.3297,,52.34375,0,45,45,1,1,FBP-OG-71.png,0.37,1.2,2,0.5,,,,,,,,,,,,,,,,,,,,,,,,,,,,,,,,,,,,,,,,,,,,,
,,,,,WIN24_016,22,Female,2024-01-29_17h31.03.009,jersey_experiment_5,2023.2.2,Win32,84.03361345,,,,,,,,,,,,,,,,183.8867,185.1805,185.1806,186.4395,return,0.3015,,20.05208333,0,46,46,55,1,FBP-PT-19.png,0.35,1.2,56,0.5,,,,,,,,,,,,,,,,,,,,,,,,,,,,,,,,,,,,,,,,,,,,,
,,,,,WIN24_016,22,Female,2024-01-29_17h31.03.009,jersey_experiment_5,2023.2.2,Win32,84.03361345,,,,,,,,,,,,,,,,186.4397,188.2418,188.2418,189.4985,return,0.3553,,86.58854167,0,47,47,28,1,FBP-RB-19.png,0.43,1.2,29,1,,,,,,,,,,,,,,,,,,,,,,,,,,,,,,,,,,,,,,,,,,,,,
,,,,,WIN24_016,22,Female,2024-01-29_17h31.03.009,jersey_experiment_5,2023.2.2,Win32,84.03361345,,,,,,,,,,,,,,,,189.4987,190.7927,190.7927,192.4163,return,0.412,,13.93229167,0,48,48,5,1,FBP-OG-81.png,0.35,1.2,6,0.5,,,,,,,,,,,,,,,,,,,,,,,,,,,,,,,,,,,,,,,,,,,,,
,,,,,WIN24_016,22,Female,2024-01-29_17h31.03.009,jersey_experiment_5,2023.2.2,Win32,84.03361345,,,,,,,,,,,,,,,,192.4164,194.2086,194.2086,195.3733,return,0.53,,34.63541667,0,49,49,21,1,FBP-RB-18.png,0.37,1.2,22,1,,,,,,,,,,,,,,,,,,,,,,,,,,,,,,,,,,,,,,,,,,,,,
,,,,,WIN24_016,22,Female,2024-01-29_17h31.03.009,jersey_experiment_5,2023.2.2,Win32,84.03361345,,,,,,,,,,,,,,,,195.3735,196.6751,196.6751,197.997,return,1.1528,,85.02604167,0,50,50,13,1,FBP-OG-91.png,0.43,1.2,14,0.5,,,,,,,,,,,,,,,,,,,,,,,,,,,,,,,,,,,,,,,,,,,,,
,,,,,WIN24_016,22,Female,2024-01-29_17h31.03.009,jersey_experiment_5,2023.2.2,Win32,84.03361345,,,,,,,,,,,,,,,,197.9972,199.7973,199.7974,201.4425,return,0.4904,,12.890625,0,51,51,30,1,FBP-YG-71.png,0.35,1.2,31,1,,,,,,,,,,,,,,,,,,,,,,,,,,,,,,,,,,,,,,,,,,,,,
,,,,,WIN24_016,22,Female,2024-01-29_17h31.03.009,jersey_experiment_5,2023.2.2,Win32,84.03361345,,,,,,,,,,,,,,,,201.4426,203.2344,203.2345,204.3855,return,0.447,,87.76041667,0,52,52,38,1,FBP-YG-81.png,0.43,1.2,39,1,,,,,,,,,,,,,,,,,,,,,,,,,,,,,,,,,,,,,,,,,,,,,
,,,,,WIN24_016,22,Female,2024-01-29_17h31.03.009,jersey_experiment_5,2023.2.2,Win32,84.03361345,,,,,,,,,,,,,,,,204.3857,206.1813,206.1813,210.958,return,0.4828,,87.890625,0,53,53,44,1,FBP-YG-91.png,0.45,1.2,45,1,,,,,,,,,,,,,,,,,,,,,,,,,,,,,,,,,,,,,,,,,,,,,
,,,,,WIN24_016,22,Female,2024-01-29_17h31.03.009,jersey_experiment_5,2023.2.2,Win32,84.03361345,,,,,,,,,,,,,,,,210.9581,212.7622,212.7622,214.1272,return,0.4357,,16.27604167,0,54,54,25,1,FBP-RB-19.png,0.35,1.2,26,1,,,,,,,,,,,,,,,,,,,,,,,,,,,,,,,,,,,,,,,,,,,,,
,,,,,WIN24_016,22,Female,2024-01-29_17h31.03.009,jersey_experiment_5,2023.2.2,Win32,84.03361345,,,,,,,,,,,,,,,,214.1273,215.9229,215.9229,217.4642,return,0.7813,,16.27604167,0,55,55,41,1,FBP-YG-91.png,0.37,1.2,42,1,,,,,,,,,,,,,,,,,,,,,,,,,,,,,,,,,,,,,,,,,,,,,
,,,,,WIN24_016,22,Female,2024-01-29_17h31.03.009,jersey_experiment_5,2023.2.2,Win32,84.03361345,,,,,,,,,,,,,,,,217.4643,219.2683,219.2683,220.6054,return,0.578,,89.71354167,0,56,56,42,1,FBP-YG-91.png,0.4,1.2,43,1,,,,,,,,,,,,,,,,,,,,,,,,,,,,,,,,,,,,,,,,,,,,,
,,,,,WIN24_016,22,Female,2024-01-29_17h31.03.009,jersey_experiment_5,2023.2.2,Win32,84.03361345,,,,,,,,,,,,,,,,220.6055,222.3982,222.3982,223.7116,return,0.5158,,13.28125,0,57,57,36,1,FBP-YG-81.png,0.37,1.2,37,1,,,,,,,,,,,,,,,,,,,,,,,,,,,,,,,,,,,,,,,,,,,,,
,,,,,WIN24_016,22,Female,2024-01-29_17h31.03.009,jersey_experiment_5,2023.2.2,Win32,84.03361345,,,,,,,,,,,,,,,,223.7118,225.5114,225.5114,226.9041,return,0.4238,,81.77083333,0,58,58,17,1,FBP-RB-17.png,0.4,1.2,18,1,,,,,,,,,,,,,,,,,,,,,,,,,,,,,,,,,,,,,,,,,,,,,
,,,,,WIN24_016,22,Female,2024-01-29_17h31.03.009,jersey_experiment_5,2023.2.2,Win32,84.03361345,,,,,,,,,,,,,,,,226.9042,228.6998,228.6999,233.4178,return,1.0853,,89.0625,0,59,59,29,1,FBP-RB-19.png,0.45,1.2,30,1,,,,,,,,,,,,,,,,,,,,,,,,,,,,,,,,,,,,,,,,,,,,,
,,,,,WIN24_016,22,Female,2024-01-29_17h31.03.009,jersey_experiment_5,2023.2.2,Win32,84.03361345,,,,,,,,,,,,,,,,233.42,235.2178,235.2178,236.5238,return,0.5441,,22.91666667,,,,,,FBP-RB-91.png,0.37,1.2,27,1,0,0,0,26,1,,,,,,,,,,,,,,,,,,,,,,,,,,,,,,,,,,,,,,,,
,,,,,WIN24_016,22,Female,2024-01-29_17h31.03.009,jersey_experiment_5,2023.2.2,Win32,84.03361345,,,,,,,,,,,,,,,,236.524,238.3238,238.3239,249.0792,return,0.1294,,32.29166667,,,,,,FBP-RB-91.png,0.4,1.2,28,1,0,1,1,27,1,,,,,,,,,,,,,,,,,,,,,,,,,,,,,,,,,,,,,,,,
,,,,,WIN24_016,22,Female,2024-01-29_17h31.03.009,jersey_experiment_5,2023.2.2,Win32,84.03361345,,,,,,,,,,,,,,,,249.0794,250.8773,250.8773,251.8889,return,0.5533,,46.875,,,,,,FBP-RB-71.png,0.4,1.2,18,1,0,2,2,17,1,,,,,,,,,,,,,,,,,,,,,,,,,,,,,,,,,,,,,,,,
,,,,,WIN24_016,22,Female,2024-01-29_17h31.03.009,jersey_experiment_5,2023.2.2,Win32,84.03361345,,,,,,,,,,,,,,,,251.8891,253.6835,253.6836,254.6068,return,0.1528,,77.21354167,,,,,,FBP-RB-91.png,0.43,1.2,29,1,0,3,3,28,1,,,,,,,,,,,,,,,,,,,,,,,,,,,,,,,,,,,,,,,,
,,,,,WIN24_016,22,Female,2024-01-29_17h31.03.009,jersey_experiment_5,2023.2.2,Win32,84.03361345,,,,,,,,,,,,,,,,254.6069,256.4069,256.4069,257.3288,return,0.1315,,18.09895833,,,,,,FBP-YG-18.png,0.4,1.2,38,1,0,4,4,37,1,,,,,,,,,,,,,,,,,,,,,,,,,,,,,,,,,,,,,,,,
,,,,,WIN24_016,22,Female,2024-01-29_17h31.03.009,jersey_experiment_5,2023.2.2,Win32,84.03361345,,,,,,,,,,,,,,,,257.329,259.1244,259.1244,259.9365,return,0.1648,,51.04166667,,,,,,FBP-RB-81.png,0.43,1.2,24,1,0,5,5,23,1,,,,,,,,,,,,,,,,,,,,,,,,,,,,,,,,,,,,,,,,
,,,,,WIN24_016,22,Female,2024-01-29_17h31.03.009,jersey_experiment_5,2023.2.2,Win32,84.03361345,,,,,,,,,,,,,,,,259.9368,261.2346,261.2346,262.0586,return,0.1534,,76.171875,,,,,,FBP-PT-91.png,0.43,1.2,59,0.5,0,6,6,58,1,,,,,,,,,,,,,,,,,,,,,,,,,,,,,,,,,,,,,,,,
,,,,,WIN24_016,22,Female,2024-01-29_17h31.03.009,jersey_experiment_5,2023.2.2,Win32,84.03361345,,,,,,,,,,,,,,,,262.0587,263.3622,263.3622,264.6465,return,0.1533,,25.52083333,,,,,,FBP-PT-91.png,0.35,1.2,56,0.5,0,7,7,55,1,,,,,,,,,,,,,,,,,,,,,,,,,,,,,,,,,,,,,,,,
,,,,,WIN24_016,22,Female,2024-01-29_17h31.03.009,jersey_experiment_5,2023.2.2,Win32,84.03361345,,,,,,,,,,,,,,,,264.6467,266.4466,266.4467,267.1996,return,0.1514,,99.609375,,,,,,FBP-RB-91.png,0.45,1.2,30,1,0,8,8,29,1,,,,,,,,,,,,,,,,,,,,,,,,,,,,,,,,,,,,,,,,
,,,,,WIN24_016,22,Female,2024-01-29_17h31.03.009,jersey_experiment_5,2023.2.2,Win32,84.03361345,,,,,,,,,,,,,,,,267.1998,269.0018,269.0018,269.8,return,0.271,,98.69791667,,,,,,FBP-YG-19.png,0.45,1.2,45,1,0,9,9,44,1,,,,,,,,,,,,,,,,,,,,,,,,,,,,,,,,,,,,,,,,
,,,,,WIN24_016,22,Female,2024-01-29_17h31.03.009,jersey_experiment_5,2023.2.2,Win32,84.03361345,,,,,,,,,,,,,,,,269.8002,271.0938,271.0938,272.4589,return,0.1883,,65.234375,,,,,,FBP-PT-81.png,0.4,1.2,53,0.5,0,10,10,52,1,,,,,,,,,,,,,,,,,,,,,,,,,,,,,,,,,,,,,,,,
,,,,,WIN24_016,22,Female,2024-01-29_17h31.03.009,jersey_experiment_5,2023.2.2,Win32,84.03361345,,,,,,,,,,,,,,,,272.4589,273.7528,273.7528,274.4311,return,0.1158,,42.578125,,,,,,FBP-OG-19.png,0.37,1.2,12,0.5,0,11,11,11,1,,,,,,,,,,,,,,,,,,,,,,,,,,,,,,,,,,,,,,,,
,,,,,WIN24_016,22,Female,2024-01-29_17h31.03.009,jersey_experiment_5,2023.2.2,Win32,84.03361345,,,,,,,,,,,,,,,,274.4313,276.231,276.231,276.9723,return,0.1785,,30.98958333,,,,,,FBP-YG-17.png,0.37,1.2,32,1,0,12,12,31,1,,,,,,,,,,,,,,,,,,,,,,,,,,,,,,,,,,,,,,,,
,,,,,WIN24_016,22,Female,2024-01-29_17h31.03.009,jersey_experiment_5,2023.2.2,Win32,84.03361345,,,,,,,,,,,,,,,,276.9724,278.2665,278.2665,279.0471,return,0.1294,,37.63020833,,,,,,FBP-OG-17.png,0.4,1.2,3,0.5,0,13,13,2,1,,,,,,,,,,,,,,,,,,,,,,,,,,,,,,,,,,,,,,,,
,,,,,WIN24_016,22,Female,2024-01-29_17h31.03.009,jersey_experiment_5,2023.2.2,Win32,84.03361345,,,,,,,,,,,,,,,,279.0472,280.3489,280.3489,281.5372,return,0.1413,,97.265625,,,,,,FBP-PT-91.png,0.45,1.2,60,0.5,0,14,14,59,1,,,,,,,,,,,,,,,,,,,,,,,,,,,,,,,,,,,,,,,,
,,,,,WIN24_016,22,Female,2024-01-29_17h31.03.009,jersey_experiment_5,2023.2.2,Win32,84.03361345,,,,,,,,,,,,,,,,281.5373,282.8312,282.8312,283.7724,return,0.1688,,45.3125,,,,,,FBP-PT-81.png,0.37,1.2,52,0.5,0,15,15,51,1,,,,,,,,,,,,,,,,,,,,,,,,,,,,,,,,,,,,,,,,
,,,,,WIN24_016,22,Female,2024-01-29_17h31.03.009,jersey_experiment_5,2023.2.2,Win32,84.03361345,,,,,,,,,,,,,,,,283.7726,285.5654,285.5654,286.4831,return,0.1417,,28.25520833,,,,,,FBP-RB-81.png,0.35,1.2,21,1,0,16,16,20,1,,,,,,,,,,,,,,,,,,,,,,,,,,,,,,,,,,,,,,,,
,,,,,WIN24_016,22,Female,2024-01-29_17h31.03.009,jersey_experiment_5,2023.2.2,Win32,84.03361345,,,,,,,,,,,,,,,,286.4833,287.7847,287.7847,288.7963,return,0.1435,,97.91666667,,,,,,FBP-OG-18.png,0.45,1.2,10,0.5,0,17,17,9,1,,,,,,,,,,,,,,,,,,,,,,,,,,,,,,,,,,,,,,,,
,,,,,WIN24_016,22,Female,2024-01-29_17h31.03.009,jersey_experiment_5,2023.2.2,Win32,84.03361345,,,,,,,,,,,,,,,,288.7965,290.5891,290.5891,291.2713,return,0.1295,,95.83333333,,,,,,FBP-RB-71.png,0.43,1.2,19,1,0,18,18,18,1,,,,,,,,,,,,,,,,,,,,,,,,,,,,,,,,,,,,,,,,
,,,,,WIN24_016,22,Female,2024-01-29_17h31.03.009,jersey_experiment_5,2023.2.2,Win32,84.03361345,,,,,,,,,,,,,,,,291.2715,292.5729,292.5729,293.2711,return,0.0824,,94.27083333,,,,,,FBP-PT-71.png,0.43,1.2,49,0.5,0,19,19,48,1,,,,,,,,,,,,,,,,,,,,,,,,,,,,,,,,,,,,,,,,
,,,,,WIN24_016,22,Female,2024-01-29_17h31.03.009,jersey_experiment_5,2023.2.2,Win32,84.03361345,,,,,,,,,,,,,,,,293.2713,294.5729,294.5729,295.7144,return,0.1414,,50.13020833,,,,,,FBP-PT-91.png,0.4,1.2,58,0.5,0,20,20,57,1,,,,,,,,,,,,,,,,,,,,,,,,,,,,,,,,,,,,,,,,
,,,,,WIN24_016,22,Female,2024-01-29_17h31.03.009,jersey_experiment_5,2023.2.2,Win32,84.03361345,,,,,,,,,,,,,,,,295.7146,297.5071,297.5071,298.2381,return,0.1175,,99.73958333,,,,,,FBP-RB-81.png,0.45,1.2,25,1,0,21,21,24,1,,,,,,,,,,,,,,,,,,,,,,,,,,,,,,,,,,,,,,,,
,,,,,WIN24_016,22,Female,2024-01-29_17h31.03.009,jersey_experiment_5,2023.2.2,Win32,84.03361345,,,,,,,,,,,,,,,,298.2382,300.0366,300.0366,300.6972,return,0.0975,,35.28645833,,,,,,FBP-RB-71.png,0.37,1.2,17,1,0,22,22,16,1,,,,,,,,,,,,,,,,,,,,,,,,,,,,,,,,,,,,,,,,
,,,,,WIN24_016,22,Female,2024-01-29_17h31.03.009,jersey_experiment_5,2023.2.2,Win32,84.03361345,,,,,,,,,,,,,,,,300.6973,302.495,302.495,303.3089,return,0.1559,,3.645833333,,,,,,FBP-RB-71.png,0.35,1.2,16,1,0,23,23,15,1,,,,,,,,,,,,,,,,,,,,,,,,,,,,,,,,,,,,,,,,
,,,,,WIN24_016,22,Female,2024-01-29_17h31.03.009,jersey_experiment_5,2023.2.2,Win32,84.03361345,,,,,,,,,,,,,,,,303.3091,304.6085,304.6086,305.5616,return,0.1913,,15.625,,,,,,FBP-PT-71.png,0.35,1.2,46,0.5,0,24,24,45,1,,,,,,,,,,,,,,,,,,,,,,,,,,,,,,,,,,,,,,,,
,,,,,WIN24_016,22,Female,2024-01-29_17h31.03.009,jersey_experiment_5,2023.2.2,Win32,84.03361345,,,,,,,,,,,,,,,,305.5619,307.3539,307.354,308.0719,return,0.1511,,13.41145833,,,,,,FBP-RB-91.png,0.35,1.2,26,1,0,25,25,25,1,,,,,,,,,,,,,,,,,,,,,,,,,,,,,,,,,,,,,,,,
,,,,,WIN24_016,22,Female,2024-01-29_17h31.03.009,jersey_experiment_5,2023.2.2,Win32,84.03361345,,,,,,,,,,,,,,,,308.072,309.3779,309.3779,310.1382,return,0.2524,,15.88541667,,,,,,FBP-PT-71.png,0.37,1.2,47,0.5,0,26,26,46,1,,,,,,,,,,,,,,,,,,,,,,,,,,,,,,,,,,,,,,,,
,,,,,WIN24_016,22,Female,2024-01-29_17h31.03.009,jersey_experiment_5,2023.2.2,Win32,84.03361345,,,,,,,,,,,,,,,,310.1383,311.9426,311.9427,312.7543,return,0.1061,,99.21875,,,,,,FBP-YG-17.png,0.43,1.2,34,1,0,27,27,33,1,,,,,,,,,,,,,,,,,,,,,,,,,,,,,,,,,,,,,,,,
,,,,,WIN24_016,22,Female,2024-01-29_17h31.03.009,jersey_experiment_5,2023.2.2,Win32,84.03361345,,,,,,,,,,,,,,,,312.7544,314.5501,314.5501,315.1974,return,0.156,,92.31770833,,,,,,FBP-YG-17.png,0.4,1.2,33,1,0,28,28,32,1,,,,,,,,,,,,,,,,,,,,,,,,,,,,,,,,,,,,,,,,
,,,,,WIN24_016,22,Female,2024-01-29_17h31.03.009,jersey_experiment_5,2023.2.2,Win32,84.03361345,,,,,,,,,,,,,,,,315.1975,316.4913,316.4913,317.2325,return,0.2357,,92.31770833,,,,,,FBP-OG-17.png,0.43,1.2,4,0.5,0,29,29,3,1,,,,,,,,,,,,,,,,,,,,,,,,,,,,,,,,,,,,,,,,
,,,,,WIN24_016,22,Female,2024-01-29_17h31.03.009,jersey_experiment_5,2023.2.2,Win32,84.03361345,,,,,,,,,,,,,,,,317.2327,318.5268,318.5268,319.0679,return,0.0379,,92.31770833,,,,,,FBP-PT-81.png,0.43,1.2,54,0.5,0,30,30,53,1,,,,,,,,,,,,,,,,,,,,,,,,,,,,,,,,,,,,,,,,
,,,,,WIN24_016,22,Female,2024-01-29_17h31.03.009,jersey_experiment_5,2023.2.2,Win32,84.03361345,,,,,,,,,,,,,,,,319.068,320.3621,320.3621,321.7738,return,0.1084,,74.21875,,,,,,FBP-PT-71.png,0.4,1.2,48,0.5,0,31,31,47,1,,,,,,,,,,,,,,,,,,,,,,,,,,,,,,,,,,,,,,,,
,,,,,WIN24_016,22,Female,2024-01-29_17h31.03.009,jersey_experiment_5,2023.2.2,Win32,84.03361345,,,,,,,,,,,,,,,,321.774,323.0682,323.0682,323.9153,return,0.2387,,94.01041667,,,,,,FBP-OG-17.png,0.45,1.2,5,0.5,0,32,32,4,1,,,,,,,,,,,,,,,,,,,,,,,,,,,,,,,,,,,,,,,,
,,,,,WIN24_016,22,Female,2024-01-29_17h31.03.009,jersey_experiment_5,2023.2.2,Win32,84.03361345,,,,,,,,,,,,,,,,323.9154,325.7153,325.7153,326.8257,return,0.0712,,17.44791667,,,,,,FBP-YG-18.png,0.43,1.2,39,1,0,33,33,38,1,,,,,,,,,,,,,,,,,,,,,,,,,,,,,,,,,,,,,,,,
,,,,,WIN24_016,22,Female,2024-01-29_17h31.03.009,jersey_experiment_5,2023.2.2,Win32,84.03361345,,,,,,,,,,,,,,,,326.8259,328.1271,328.1271,330.186,return,0.0989,,41.27604167,,,,,,FBP-OG-18.png,0.35,1.2,6,0.5,0,34,34,5,1,,,,,,,,,,,,,,,,,,,,,,,,,,,,,,,,,,,,,,,,
,,,,,WIN24_016,22,Female,2024-01-29_17h31.03.009,jersey_experiment_5,2023.2.2,Win32,84.03361345,,,,,,,,,,,,,,,,330.1861,331.9861,331.9862,332.6823,return,0.304,,32.29166667,,,,,,FBP-YG-19.png,0.37,1.2,42,1,0,35,35,41,1,,,,,,,,,,,,,,,,,,,,,,,,,,,,,,,,,,,,,,,,
,,,,,WIN24_016,22,Female,2024-01-29_17h31.03.009,jersey_experiment_5,2023.2.2,Win32,84.03361345,,,,,,,,,,,,,,,,332.6825,333.9744,333.9744,334.6803,return,0.1947,,36.84895833,,,,,,FBP-OG-18.png,0.37,1.2,7,0.5,0,36,36,6,1,,,,,,,,,,,,,,,,,,,,,,,,,,,,,,,,,,,,,,,,
,,,,,WIN24_016,22,Female,2024-01-29_17h31.03.009,jersey_experiment_5,2023.2.2,Win32,84.03361345,,,,,,,,,,,,,,,,334.6805,335.9746,335.9746,339.7554,return,3.3179,,17.44791667,,,,,,FBP-OG-17.png,0.35,1.2,1,0.5,0,37,37,0,1,,,,,,,,,,,,,,,,,,,,,,,,,,,,,,,,,,,,,,,,
,,,,,WIN24_016,22,Female,2024-01-29_17h31.03.009,jersey_experiment_5,2023.2.2,Win32,84.03361345,,,,,,,,,,,,,,,,339.7596,341.057,341.0571,342.7906,return,0.4332,,47.91666667,,,,,,FBP-OG-18.png,0.4,1.2,8,0.5,0,38,38,7,1,,,,,,,,,,,,,,,,,,,,,,,,,,,,,,,,,,,,,,,,
,,,,,WIN24_016,22,Female,2024-01-29_17h31.03.009,jersey_experiment_5,2023.2.2,Win32,84.03361345,,,,,,,,,,,,,,,,342.7908,344.0924,344.0924,345.469,return,0.4739,,97.13541667,,,,,,FBP-OG-19.png,0.45,1.2,15,0.5,0,39,39,14,1,,,,,,,,,,,,,,,,,,,,,,,,,,,,,,,,,,,,,,,,
,,,,,WIN24_016,22,Female,2024-01-29_17h31.03.009,jersey_experiment_5,2023.2.2,Win32,84.03361345,,,,,,,,,,,,,,,,345.4691,347.2604,347.2604,348.4809,return,0.5194,,98.69791667,,,,,,FBP-YG-18.png,0.45,1.2,40,1,0,40,40,39,1,,,,,,,,,,,,,,,,,,,,,,,,,,,,,,,,,,,,,,,,
,,,,,WIN24_016,22,Female,2024-01-29_17h31.03.009,jersey_experiment_5,2023.2.2,Win32,84.03361345,,,,,,,,,,,,,,,,348.481,349.7751,349.7751,350.6809,return,0.441,,93.48958333,,,,,,FBP-PT-71.png,0.45,1.2,50,0.5,0,41,41,49,1,,,,,,,,,,,,,,,,,,,,,,,,,,,,,,,,,,,,,,,,
,,,,,WIN24_016,22,Female,2024-01-29_17h31.03.009,jersey_experiment_5,2023.2.2,Win32,84.03361345,,,,,,,,,,,,,,,,350.6811,352.4733,352.4733,353.5632,return,0.3915,,87.63020833,,,,,,FBP-YG-19.png,0.43,1.2,44,1,0,42,42,43,1,,,,,,,,,,,,,,,,,,,,,,,,,,,,,,,,,,,,,,,,
,,,,,WIN24_016,22,Female,2024-01-29_17h31.03.009,jersey_experiment_5,2023.2.2,Win32,84.03361345,,,,,,,,,,,,,,,,353.5634,355.3561,355.3561,356.5518,return,0.5126,,11.84895833,,,,,,FBP-RB-81.png,0.37,1.2,22,1,0,43,43,21,1,,,,,,,,,,,,,,,,,,,,,,,,,,,,,,,,,,,,,,,,
,,,,,WIN24_016,22,Female,2024-01-29_17h31.03.009,jersey_experiment_5,2023.2.2,Win32,84.03361345,,,,,,,,,,,,,,,,356.5519,357.8521,357.8521,358.8578,return,0.3469,,15.36458333,,,,,,FBP-OG-17.png,0.37,1.2,2,0.5,0,44,44,1,1,,,,,,,,,,,,,,,,,,,,,,,,,,,,,,,,,,,,,,,,
,,,,,WIN24_016,22,Female,2024-01-29_17h31.03.009,jersey_experiment_5,2023.2.2,Win32,84.03361345,,,,,,,,,,,,,,,,358.8579,360.6524,360.6524,361.7755,return,0.518,,1.5625,,,,,,FBP-YG-17.png,0.35,1.2,31,1,0,45,45,30,1,,,,,,,,,,,,,,,,,,,,,,,,,,,,,,,,,,,,,,,,
,,,,,WIN24_016,22,Female,2024-01-29_17h31.03.009,jersey_experiment_5,2023.2.2,Win32,84.03361345,,,,,,,,,,,,,,,,361.7756,363.0756,363.0756,364.0579,return,0.3696,,16.27604167,,,,,,FBP-PT-91.png,0.37,1.2,57,0.5,0,46,46,56,1,,,,,,,,,,,,,,,,,,,,,,,,,,,,,,,,,,,,,,,,
,,,,,WIN24_016,22,Female,2024-01-29_17h31.03.009,jersey_experiment_5,2023.2.2,Win32,84.03361345,,,,,,,,,,,,,,,,364.058,365.3583,365.3584,366.8272,return,0.4611,,1.692708333,,,,,,FBP-PT-81.png,0.35,1.2,51,0.5,0,47,47,50,1,,,,,,,,,,,,,,,,,,,,,,,,,,,,,,,,,,,,,,,,
,,,,,WIN24_016,22,Female,2024-01-29_17h31.03.009,jersey_experiment_5,2023.2.2,Win32,84.03361345,,,,,,,,,,,,,,,,366.8274,368.131,368.131,369.5589,return,0.4142,,2.864583333,,,,,,FBP-OG-19.png,0.35,1.2,11,0.5,0,48,48,10,1,,,,,,,,,,,,,,,,,,,,,,,,,,,,,,,,,,,,,,,,
,,,,,WIN24_016,22,Female,2024-01-29_17h31.03.009,jersey_experiment_5,2023.2.2,Win32,84.03361345,,,,,,,,,,,,,,,,369.5591,370.8581,370.8581,372.6608,return,0.573,,93.48958333,,,,,,FBP-OG-19.png,0.43,1.2,14,0.5,0,49,49,13,1,,,,,,,,,,,,,,,,,,,,,,,,,,,,,,,,,,,,,,,,
,,,,,WIN24_016,22,Female,2024-01-29_17h31.03.009,jersey_experiment_5,2023.2.2,Win32,84.03361345,,,,,,,,,,,,,,,,372.6609,374.4626,374.4626,375.6253,return,0.6337,,99.73958333,,,,,,FBP-YG-17.png,0.45,1.2,35,1,0,50,50,34,1,,,,,,,,,,,,,,,,,,,,,,,,,,,,,,,,,,,,,,,,
,,,,,WIN24_016,22,Female,2024-01-29_17h31.03.009,jersey_experiment_5,2023.2.2,Win32,84.03361345,,,,,,,,,,,,,,,,375.6255,377.4277,377.4277,379.0819,return,0.6381,,73.69791667,,,,,,FBP-RB-81.png,0.4,1.2,23,1,0,51,51,22,1,,,,,,,,,,,,,,,,,,,,,,,,,,,,,,,,,,,,,,,,
,,,,,WIN24_016,22,Female,2024-01-29_17h31.03.009,jersey_experiment_5,2023.2.2,Win32,84.03361345,,,,,,,,,,,,,,,,379.0821,380.8764,380.8764,382.122,return,0.5295,,5.989583333,,,,,,FBP-YG-19.png,0.35,1.2,41,1,0,52,52,40,1,,,,,,,,,,,,,,,,,,,,,,,,,,,,,,,,,,,,,,,,
,,,,,WIN24_016,22,Female,2024-01-29_17h31.03.009,jersey_experiment_5,2023.2.2,Win32,84.03361345,,,,,,,,,,,,,,,,382.1221,383.9216,383.9216,385.247,return,0.52,,5.729166667,,,,,,FBP-YG-18.png,0.37,1.2,37,1,0,53,53,36,1,,,,,,,,,,,,,,,,,,,,,,,,,,,,,,,,,,,,,,,,
,,,,,WIN24_016,22,Female,2024-01-29_17h31.03.009,jersey_experiment_5,2023.2.2,Win32,84.03361345,,,,,,,,,,,,,,,,385.2471,387.0395,387.0395,388.2824,return,0.4045,,80.078125,,,,,,FBP-YG-19.png,0.4,1.2,43,1,0,54,54,42,1,,,,,,,,,,,,,,,,,,,,,,,,,,,,,,,,,,,,,,,,
,,,,,WIN24_016,22,Female,2024-01-29_17h31.03.009,jersey_experiment_5,2023.2.2,Win32,84.03361345,,,,,,,,,,,,,,,,388.2826,389.5764,389.5765,390.6001,return,0.4423,,81.51041667,,,,,,FBP-OG-19.png,0.4,1.2,13,0.5,0,55,55,12,1,,,,,,,,,,,,,,,,,,,,,,,,,,,,,,,,,,,,,,,,
,,,,,WIN24_016,22,Female,2024-01-29_17h31.03.009,jersey_experiment_5,2023.2.2,Win32,84.03361345,,,,,,,,,,,,,,,,390.6002,391.8942,391.8942,393.2001,return,0.8004,,80.46875,,,,,,FBP-OG-18.png,0.43,1.2,9,0.5,0,56,56,8,1,,,,,,,,,,,,,,,,,,,,,,,,,,,,,,,,,,,,,,,,
,,,,,WIN24_016,22,Female,2024-01-29_17h31.03.009,jersey_experiment_5,2023.2.2,Win32,84.03361345,,,,,,,,,,,,,,,,393.2003,395.0002,395.0002,396.1598,return,1.0024,,17.578125,,,,,,FBP-YG-18.png,0.35,1.2,36,1,0,57,57,35,1,,,,,,,,,,,,,,,,,,,,,,,,,,,,,,,,,,,,,,,,
,,,,,WIN24_016,22,Female,2024-01-29_17h31.03.009,jersey_experiment_5,2023.2.2,Win32,84.03361345,,,,,,,,,,,,,,,,396.1599,397.459,397.459,398.9795,return,0.5848,,96.35416667,,,,,,FBP-PT-81.png,0.45,1.2,55,0.5,0,58,58,54,1,,,,,,,,,,,,,,,,,,,,,,,,,,,,,,,,,,,,,,,,
,,,,,WIN24_016,22,Female,2024-01-29_17h31.03.009,jersey_experiment_5,2023.2.2,Win32,84.03361345,,,,,,,,,,,,,,,,398.9796,400.7813,400.7813,403.977,return,1.0058,,93.88020833,,,,,,FBP-RB-71.png,0.45,1.2,20,1,0,59,59,19,1,,,,,,,,,,,,,,,,,,,,,,,,,,,,,,,,,,,,,,,,
,,,,,WIN24_016,22,Female,2024-01-29_17h31.03.009,jersey_experiment_5,2023.2.2,Win32,84.03361345,,,,,,,,,,,,,,,,,,,,,,,,,,,,,,,,,,,,,,,403.9774,523.9819,,,,,,,,,,,,,,,,,,,,,,,,,,,,,,,,,,,,,,
,,,,,WIN24_016,22,Female,2024-01-29_17h31.03.009,jersey_experiment_5,2023.2.2,Win32,84.03361345,,,,,,,,,,,,,,,,,,,,,,,,,,,,,,,,,,,,,,,,,523.982,541.1517,return,17.1539,,,,,,,,,,,,,,,,,,,,,,,,,,,,,,,,,,
,,,,,WIN24_016,22,Female,2024-01-29_17h31.03.009,jersey_experiment_5,2023.2.2,Win32,84.03361345,,,,,,,,,,,,,,,,541.1575,542.4526,542.4526,545.147,return,1.331,,79.03645833,,,,,,FBP-RB-19.png,0.45,1.2,30,0.5,,,,,,,,,,,,,0,0,0,29,1,,,,,,,,,,,,,,,,,,,,,,,,,,,,
,,,,,WIN24_016,22,Female,2024-01-29_17h31.03.009,jersey_experiment_5,2023.2.2,Win32,84.03361345,,,,,,,,,,,,,,,,545.1473,546.9396,546.9396,548.7984,return,1.6591,,5.598958333,,,,,,FBP-OG-81.png,0.35,1.2,6,1,,,,,,,,,,,,,0,1,1,5,1,,,,,,,,,,,,,,,,,,,,,,,,,,,,
,,,,,WIN24_016,22,Female,2024-01-29_17h31.03.009,jersey_experiment_5,2023.2.2,Win32,84.03361345,,,,,,,,,,,,,,,,548.7985,550.5969,550.5969,551.9162,return,0.6803,,82.8125,,,,,,FBP-PT-18.png,0.4,1.2,53,1,,,,,,,,,,,,,0,2,2,52,1,,,,,,,,,,,,,,,,,,,,,,,,,,,,
,,,,,WIN24_016,22,Female,2024-01-29_17h31.03.009,jersey_experiment_5,2023.2.2,Win32,84.03361345,,,,,,,,,,,,,,,,551.9165,553.7182,553.7182,554.6532,return,0.3071,,99.21875,,,,,,FBP-PT-19.png,0.45,1.2,60,1,,,,,,,,,,,,,0,3,3,59,1,,,,,,,,,,,,,,,,,,,,,,,,,,,,
,,,,,WIN24_016,22,Female,2024-01-29_17h31.03.009,jersey_experiment_5,2023.2.2,Win32,84.03361345,,,,,,,,,,,,,,,,554.6534,556.4533,556.4533,557.434,return,0.4452,,77.99479167,,,,,,FBP-OG-81.png,0.45,1.2,10,1,,,,,,,,,,,,,0,4,4,9,1,,,,,,,,,,,,,,,,,,,,,,,,,,,,
,,,,,WIN24_016,22,Female,2024-01-29_17h31.03.009,jersey_experiment_5,2023.2.2,Win32,84.03361345,,,,,,,,,,,,,,,,557.4342,558.728,558.728,560.2693,return,0.4492,,2.734375,,,,,,FBP-RB-18.png,0.35,1.2,21,0.5,,,,,,,,,,,,,0,5,5,20,1,,,,,,,,,,,,,,,,,,,,,,,,,,,,
,,,,,WIN24_016,22,Female,2024-01-29_17h31.03.009,jersey_experiment_5,2023.2.2,Win32,84.03361345,,,,,,,,,,,,,,,,560.2695,562.0651,562.0651,564.3992,return,0.328,,35.67708333,,,,,,FBP-PT-17.png,0.45,1.2,50,1,,,,,,,,,,,,,0,6,6,49,1,,,,,,,,,,,,,,,,,,,,,,,,,,,,
,,,,,WIN24_016,22,Female,2024-01-29_17h31.03.009,jersey_experiment_5,2023.2.2,Win32,84.03361345,,,,,,,,,,,,,,,,564.3993,566.201,566.201,567.1125,return,0.3335,,2.994791667,,,,,,FBP-OG-71.png,0.37,1.2,2,1,,,,,,,,,,,,,0,7,7,1,1,,,,,,,,,,,,,,,,,,,,,,,,,,,,
,,,,,WIN24_016,22,Female,2024-01-29_17h31.03.009,jersey_experiment_5,2023.2.2,Win32,84.03361345,,,,,,,,,,,,,,,,567.1127,568.4065,568.4065,569.7714,return,0.3443,,3.90625,,,,,,FBP-YG-91.png,0.4,1.2,43,0.5,,,,,,,,,,,,,0,8,8,42,1,,,,,,,,,,,,,,,,,,,,,,,,,,,,
,,,,,WIN24_016,22,Female,2024-01-29_17h31.03.009,jersey_experiment_5,2023.2.2,Win32,84.03361345,,,,,,,,,,,,,,,,569.7715,571.5636,571.5636,572.9597,return,0.308,,92.578125,,,,,,FBP-PT-19.png,0.43,1.2,59,1,,,,,,,,,,,,,0,9,9,58,1,,,,,,,,,,,,,,,,,,,,,,,,,,,,
,,,,,WIN24_016,22,Female,2024-01-29_17h31.03.009,jersey_experiment_5,2023.2.2,Win32,84.03361345,,,,,,,,,,,,,,,,572.9598,574.2562,574.2562,575.6068,return,0.4289,,8.723958333,,,,,,FBP-YG-71.png,0.37,1.2,32,0.5,,,,,,,,,,,,,0,10,10,31,1,,,,,,,,,,,,,,,,,,,,,,,,,,,,
,,,,,WIN24_016,22,Female,2024-01-29_17h31.03.009,jersey_experiment_5,2023.2.2,Win32,84.03361345,,,,,,,,,,,,,,,,575.607,576.9052,576.9052,578.2817,return,0.4451,,79.16666667,,,,,,FBP-YG-71.png,0.4,1.2,33,0.5,,,,,,,,,,,,,0,11,11,32,1,,,,,,,,,,,,,,,,,,,,,,,,,,,,
,,,,,WIN24_016,22,Female,2024-01-29_17h31.03.009,jersey_experiment_5,2023.2.2,Win32,84.03361345,,,,,,,,,,,,,,,,578.2818,580.0798,580.0799,580.9365,return,0.4059,,76.5625,,,,,,FBP-OG-71.png,0.4,1.2,3,1,,,,,,,,,,,,,0,12,12,2,1,,,,,,,,,,,,,,,,,,,,,,,,,,,,
,,,,,WIN24_016,22,Female,2024-01-29_17h31.03.009,jersey_experiment_5,2023.2.2,Win32,84.03361345,,,,,,,,,,,,,,,,580.9368,582.7291,582.7291,583.7996,return,0.6002,,83.59375,,,,,,FBP-OG-91.png,0.4,1.2,13,1,,,,,,,,,,,,,0,13,13,12,1,,,,,,,,,,,,,,,,,,,,,,,,,,,,
,,,,,WIN24_016,22,Female,2024-01-29_17h31.03.009,jersey_experiment_5,2023.2.2,Win32,84.03361345,,,,,,,,,,,,,,,,583.7997,585.5996,585.5996,586.8687,return,0.5514,,99.47916667,,,,,,FBP-PT-18.png,0.45,1.2,55,1,,,,,,,,,,,,,0,14,14,54,1,,,,,,,,,,,,,,,,,,,,,,,,,,,,
,,,,,WIN24_016,22,Female,2024-01-29_17h31.03.009,jersey_experiment_5,2023.2.2,Win32,84.03361345,,,,,,,,,,,,,,,,586.8689,588.1603,588.1603,589.5624,return,0.339,,3.255208333,,,,,,FBP-RB-19.png,0.35,1.2,26,0.5,,,,,,,,,,,,,0,15,15,25,1,,,,,,,,,,,,,,,,,,,,,,,,,,,,
,,,,,WIN24_016,22,Female,2024-01-29_17h31.03.009,jersey_experiment_5,2023.2.2,Win32,84.03361345,,,,,,,,,,,,,,,,589.5625,590.8544,590.8544,592.0075,return,0.2657,,7.161458333,,,,,,FBP-YG-71.png,0.35,1.2,31,0.5,,,,,,,,,,,,,0,16,16,30,1,,,,,,,,,,,,,,,,,,,,,,,,,,,,
,,,,,WIN24_016,22,Female,2024-01-29_17h31.03.009,jersey_experiment_5,2023.2.2,Win32,84.03361345,,,,,,,,,,,,,,,,592.0077,593.3017,593.3017,594.6664,return,0.3687,,7.552083333,,,,,,FBP-RB-19.png,0.4,1.2,28,0.5,,,,,,,,,,,,,0,17,17,27,1,,,,,,,,,,,,,,,,,,,,,,,,,,,,
,,,,,WIN24_016,22,Female,2024-01-29_17h31.03.009,jersey_experiment_5,2023.2.2,Win32,84.03361345,,,,,,,,,,,,,,,,594.6666,595.9607,595.9607,597.3843,return,0.2906,,96.74479167,,,,,,FBP-YG-91.png,0.43,1.2,44,0.5,,,,,,,,,,,,,0,18,18,43,1,,,,,,,,,,,,,,,,,,,,,,,,,,,,
,,,,,WIN24_016,22,Female,2024-01-29_17h31.03.009,jersey_experiment_5,2023.2.2,Win32,84.03361345,,,,,,,,,,,,,,,,597.3844,599.1787,599.1787,600.1255,return,0.2835,,9.505208333,,,,,,FBP-OG-81.png,0.37,1.2,7,1,,,,,,,,,,,,,0,19,19,6,1,,,,,,,,,,,,,,,,,,,,,,,,,,,,
,,,,,WIN24_016,22,Female,2024-01-29_17h31.03.009,jersey_experiment_5,2023.2.2,Win32,84.03361345,,,,,,,,,,,,,,,,600.1256,601.4197,601.4197,602.6828,return,0.3296,,5.46875,,,,,,FBP-YG-81.png,0.35,1.2,36,0.5,,,,,,,,,,,,,0,20,20,35,1,,,,,,,,,,,,,,,,,,,,,,,,,,,,
,,,,,WIN24_016,22,Female,2024-01-29_17h31.03.009,jersey_experiment_5,2023.2.2,Win32,84.03361345,,,,,,,,,,,,,,,,602.6829,603.9844,603.9844,604.8125,return,0.283,,14.84375,,,,,,FBP-YG-81.png,0.37,1.2,37,0.5,,,,,,,,,,,,,0,21,21,36,1,,,,,,,,,,,,,,,,,,,,,,,,,,,,
,,,,,WIN24_016,22,Female,2024-01-29_17h31.03.009,jersey_experiment_5,2023.2.2,Win32,84.03361345,,,,,,,,,,,,,,,,604.8127,606.6081,606.6081,607.9492,return,0.2934,,29.296875,,,,,,FBP-PT-19.png,0.37,1.2,57,1,,,,,,,,,,,,,0,22,22,56,1,,,,,,,,,,,,,,,,,,,,,,,,,,,,
,,,,,WIN24_016,22,Female,2024-01-29_17h31.03.009,jersey_experiment_5,2023.2.2,Win32,84.03361345,,,,,,,,,,,,,,,,607.9493,609.2435,609.2435,610.7022,return,0.5195,,59.89583333,,,,,,FBP-RB-17.png,0.4,1.2,18,0.5,,,,,,,,,,,,,0,23,23,17,1,,,,,,,,,,,,,,,,,,,,,,,,,,,,
,,,,,WIN24_016,22,Female,2024-01-29_17h31.03.009,jersey_experiment_5,2023.2.2,Win32,84.03361345,,,,,,,,,,,,,,,,610.7024,612.4947,612.4947,613.5141,return,0.5573,,96.35416667,,,,,,FBP-PT-18.png,0.43,1.2,54,1,,,,,,,,,,,,,0,24,24,53,1,,,,,,,,,,,,,,,,,,,,,,,,,,,,
,,,,,WIN24_016,22,Female,2024-01-29_17h31.03.009,jersey_experiment_5,2023.2.2,Win32,84.03361345,,,,,,,,,,,,,,,,613.5143,614.8124,614.8124,615.5967,return,0.3428,,96.35416667,,,,,,FBP-YG-91.png,0.45,1.2,45,0.5,,,,,,,,,,,,,0,25,25,44,1,,,,,,,,,,,,,,,,,,,,,,,,,,,,
,,,,,WIN24_016,22,Female,2024-01-29_17h31.03.009,jersey_experiment_5,2023.2.2,Win32,84.03361345,,,,,,,,,,,,,,,,615.5968,616.8949,616.8949,618.4791,return,0.9807,,76.30208333,,,,,,FBP-YG-71.png,0.43,1.2,34,0.5,,,,,,,,,,,,,0,26,26,33,1,,,,,,,,,,,,,,,,,,,,,,,,,,,,
,,,,,WIN24_016,22,Female,2024-01-29_17h31.03.009,jersey_experiment_5,2023.2.2,Win32,84.03361345,,,,,,,,,,,,,,,,618.4793,620.2718,620.2718,621.2557,return,0.3258,,14.32291667,,,,,,FBP-PT-18.png,0.37,1.2,52,1,,,,,,,,,,,,,0,27,27,51,1,,,,,,,,,,,,,,,,,,,,,,,,,,,,
,,,,,WIN24_016,22,Female,2024-01-29_17h31.03.009,jersey_experiment_5,2023.2.2,Win32,84.03361345,,,,,,,,,,,,,,,,621.2558,622.5541,622.5541,624.2322,return,0.8319,,47.52604167,,,,,,FBP-RB-17.png,0.35,1.2,16,0.5,,,,,,,,,,,,,0,28,28,15,1,,,,,,,,,,,,,,,,,,,,,,,,,,,,
,,,,,WIN24_016,22,Female,2024-01-29_17h31.03.009,jersey_experiment_5,2023.2.2,Win32,84.03361345,,,,,,,,,,,,,,,,624.2324,626.0247,626.0248,627.4152,return,0.3672,,76.5625,,,,,,FBP-PT-17.png,0.37,1.2,47,1,,,,,,,,,,,,,0,29,29,46,1,,,,,,,,,,,,,,,,,,,,,,,,,,,,
,,,,,WIN24_016,22,Female,2024-01-29_17h31.03.009,jersey_experiment_5,2023.2.2,Win32,84.03361345,,,,,,,,,,,,,,,,627.4154,629.2129,629.2129,630.6131,return,0.3747,,50.13020833,,,,,,FBP-PT-17.png,0.35,1.2,46,1,,,,,,,,,,,,,0,30,30,45,1,,,,,,,,,,,,,,,,,,,,,,,,,,,,
,,,,,WIN24_016,22,Female,2024-01-29_17h31.03.009,jersey_experiment_5,2023.2.2,Win32,84.03361345,,,,,,,,,,,,,,,,630.6132,632.4133,632.4134,633.5032,return,0.3765,,66.27604167,,,,,,FBP-PT-19.png,0.4,1.2,58,1,,,,,,,,,,,,,0,31,31,57,1,,,,,,,,,,,,,,,,,,,,,,,,,,,,
,,,,,WIN24_016,22,Female,2024-01-29_17h31.03.009,jersey_experiment_5,2023.2.2,Win32,84.03361345,,,,,,,,,,,,,,,,633.5033,635.2959,635.2959,636.1738,return,0.2963,,88.671875,,,,,,FBP-PT-17.png,0.43,1.2,49,1,,,,,,,,,,,,,0,32,32,48,1,,,,,,,,,,,,,,,,,,,,,,,,,,,,
,,,,,WIN24_016,22,Female,2024-01-29_17h31.03.009,jersey_experiment_5,2023.2.2,Win32,84.03361345,,,,,,,,,,,,,,,,636.174,637.4681,637.4681,639.1667,return,0.4239,,49.34895833,,,,,,FBP-YG-91.png,0.35,1.2,41,0.5,,,,,,,,,,,,,0,33,33,40,1,,,,,,,,,,,,,,,,,,,,,,,,,,,,
,,,,,WIN24_016,22,Female,2024-01-29_17h31.03.009,jersey_experiment_5,2023.2.2,Win32,84.03361345,,,,,,,,,,,,,,,,639.1668,640.4628,640.4628,641.9859,return,0.4106,,94.40104167,,,,,,FBP-RB-18.png,0.43,1.2,24,0.5,,,,,,,,,,,,,0,34,34,23,1,,,,,,,,,,,,,,,,,,,,,,,,,,,,
,,,,,WIN24_016,22,Female,2024-01-29_17h31.03.009,jersey_experiment_5,2023.2.2,Win32,84.03361345,,,,,,,,,,,,,,,,641.986,643.2799,643.28,644.5389,return,0.2861,,53.125,,,,,,FBP-RB-18.png,0.4,1.2,23,0.5,,,,,,,,,,,,,0,35,35,22,1,,,,,,,,,,,,,,,,,,,,,,,,,,,,
,,,,,WIN24_016,22,Female,2024-01-29_17h31.03.009,jersey_experiment_5,2023.2.2,Win32,84.03361345,,,,,,,,,,,,,,,,644.539,645.8371,645.8371,646.7623,return,0.3215,,72.265625,,,,,,FBP-YG-81.png,0.4,1.2,38,0.5,,,,,,,,,,,,,0,36,36,37,1,,,,,,,,,,,,,,,,,,,,,,,,,,,,
,,,,,WIN24_016,22,Female,2024-01-29_17h31.03.009,jersey_experiment_5,2023.2.2,Win32,84.03361345,,,,,,,,,,,,,,,,646.7625,648.0567,648.0567,649.9783,return,0.304,,99.47916667,,,,,,FBP-RB-17.png,0.43,1.2,19,0.5,,,,,,,,,,,,,0,37,37,18,1,,,,,,,,,,,,,,,,,,,,,,,,,,,,
,,,,,WIN24_016,22,Female,2024-01-29_17h31.03.009,jersey_experiment_5,2023.2.2,Win32,84.03361345,,,,,,,,,,,,,,,,649.9785,651.7805,651.7805,652.9669,return,0.2826,,69.79166667,,,,,,FBP-OG-81.png,0.4,1.2,8,1,,,,,,,,,,,,,0,38,38,7,1,,,,,,,,,,,,,,,,,,,,,,,,,,,,
,,,,,WIN24_016,22,Female,2024-01-29_17h31.03.009,jersey_experiment_5,2023.2.2,Win32,84.03361345,,,,,,,,,,,,,,,,652.9671,654.7673,654.7673,655.5317,return,0.3412,,79.6875,,,,,,FBP-OG-71.png,0.43,1.2,4,1,,,,,,,,,,,,,0,39,39,3,1,,,,,,,,,,,,,,,,,,,,,,,,,,,,
,,,,,WIN24_016,22,Female,2024-01-29_17h31.03.009,jersey_experiment_5,2023.2.2,Win32,84.03361345,,,,,,,,,,,,,,,,655.5319,656.8334,656.8335,658.0924,return,0.8494,,89.453125,,,,,,FBP-YG-71.png,0.45,1.2,35,0.5,,,,,,,,,,,,,0,40,40,34,1,,,,,,,,,,,,,,,,,,,,,,,,,,,,
,,,,,WIN24_016,22,Female,2024-01-29_17h31.03.009,jersey_experiment_5,2023.2.2,Win32,84.03361345,,,,,,,,,,,,,,,,658.0925,659.3907,659.3907,660.8453,return,0.3074,,11.328125,,,,,,FBP-RB-18.png,0.37,1.2,22,0.5,,,,,,,,,,,,,0,41,41,21,1,,,,,,,,,,,,,,,,,,,,,,,,,,,,
,,,,,WIN24_016,22,Female,2024-01-29_17h31.03.009,jersey_experiment_5,2023.2.2,Win32,84.03361345,,,,,,,,,,,,,,,,660.8455,662.6403,662.6403,663.697,return,0.471,,2.864583333,,,,,,FBP-OG-71.png,0.35,1.2,1,1,,,,,,,,,,,,,0,42,42,0,1,,,,,,,,,,,,,,,,,,,,,,,,,,,,
,,,,,WIN24_016,22,Female,2024-01-29_17h31.03.009,jersey_experiment_5,2023.2.2,Win32,84.03361345,,,,,,,,,,,,,,,,663.6971,664.9983,664.9983,666.3515,return,0.3991,,99.86979167,,,,,,FBP-RB-17.png,0.45,1.2,20,0.5,,,,,,,,,,,,,0,43,43,19,1,,,,,,,,,,,,,,,,,,,,,,,,,,,,
,,,,,WIN24_016,22,Female,2024-01-29_17h31.03.009,jersey_experiment_5,2023.2.2,Win32,84.03361345,,,,,,,,,,,,,,,,666.3516,668.1514,668.1514,669.0808,return,0.2997,,99.73958333,,,,,,FBP-OG-81.png,0.43,1.2,9,1,,,,,,,,,,,,,0,44,44,8,1,,,,,,,,,,,,,,,,,,,,,,,,,,,,
,,,,,WIN24_016,22,Female,2024-01-29_17h31.03.009,jersey_experiment_5,2023.2.2,Win32,84.03361345,,,,,,,,,,,,,,,,669.081,670.375,670.375,671.2146,return,0.3527,,99.73958333,,,,,,FBP-RB-19.png,0.43,1.2,29,0.5,,,,,,,,,,,,,0,45,45,28,1,,,,,,,,,,,,,,,,,,,,,,,,,,,,
,,,,,WIN24_016,22,Female,2024-01-29_17h31.03.009,jersey_experiment_5,2023.2.2,Win32,84.03361345,,,,,,,,,,,,,,,,671.2147,672.5086,672.5087,673.3517,return,0.279,,99.73958333,,,,,,FBP-YG-81.png,0.45,1.2,40,0.5,,,,,,,,,,,,,0,46,46,39,1,,,,,,,,,,,,,,,,,,,,,,,,,,,,
,,,,,WIN24_016,22,Female,2024-01-29_17h31.03.009,jersey_experiment_5,2023.2.2,Win32,84.03361345,,,,,,,,,,,,,,,,673.3519,674.6457,674.6457,675.4811,return,0.2532,,99.86979167,,,,,,FBP-RB-18.png,0.45,1.2,25,0.5,,,,,,,,,,,,,0,47,47,24,1,,,,,,,,,,,,,,,,,,,,,,,,,,,,
,,,,,WIN24_016,22,Female,2024-01-29_17h31.03.009,jersey_experiment_5,2023.2.2,Win32,84.03361345,,,,,,,,,,,,,,,,675.4812,676.7752,676.7752,678.1541,return,0.3163,,22.00520833,,,,,,FBP-RB-17.png,0.37,1.2,17,0.5,,,,,,,,,,,,,0,48,48,16,1,,,,,,,,,,,,,,,,,,,,,,,,,,,,
,,,,,WIN24_016,22,Female,2024-01-29_17h31.03.009,jersey_experiment_5,2023.2.2,Win32,84.03361345,,,,,,,,,,,,,,,,678.1542,679.9561,679.9561,680.8259,return,0.2935,,49.86979167,,,,,,FBP-PT-17.png,0.4,1.2,48,1,,,,,,,,,,,,,0,49,49,47,1,,,,,,,,,,,,,,,,,,,,,,,,,,,,
,,,,,WIN24_016,22,Female,2024-01-29_17h31.03.009,jersey_experiment_5,2023.2.2,Win32,84.03361345,,,,,,,,,,,,,,,,680.826,682.6267,682.6267,683.5286,return,0.2762,,1.953125,,,,,,FBP-PT-19.png,0.35,1.2,56,1,,,,,,,,,,,,,0,50,50,55,1,,,,,,,,,,,,,,,,,,,,,,,,,,,,
,,,,,WIN24_016,22,Female,2024-01-29_17h31.03.009,jersey_experiment_5,2023.2.2,Win32,84.03361345,,,,,,,,,,,,,,,,683.5287,684.8227,684.8227,685.9329,return,0.3058,,12.36979167,,,,,,FBP-YG-91.png,0.37,1.2,42,0.5,,,,,,,,,,,,,0,51,51,41,1,,,,,,,,,,,,,,,,,,,,,,,,,,,,
,,,,,WIN24_016,22,Female,2024-01-29_17h31.03.009,jersey_experiment_5,2023.2.2,Win32,84.03361345,,,,,,,,,,,,,,,,685.933,687.7352,687.7352,689.2034,return,0.5313,,85.9375,,,,,,FBP-OG-91.png,0.43,1.2,14,1,,,,,,,,,,,,,0,52,52,13,1,,,,,,,,,,,,,,,,,,,,,,,,,,,,
,,,,,WIN24_016,22,Female,2024-01-29_17h31.03.009,jersey_experiment_5,2023.2.2,Win32,84.03361345,,,,,,,,,,,,,,,,689.2036,691.0017,691.0017,692.0294,return,0.297,,12.109375,,,,,,FBP-OG-91.png,0.35,1.2,11,1,,,,,,,,,,,,,0,53,53,10,1,,,,,,,,,,,,,,,,,,,,,,,,,,,,
,,,,,WIN24_016,22,Female,2024-01-29_17h31.03.009,jersey_experiment_5,2023.2.2,Win32,84.03361345,,,,,,,,,,,,,,,,692.0295,693.8276,693.8276,694.8743,return,0.3509,,93.75,,,,,,FBP-OG-71.png,0.45,1.2,5,1,,,,,,,,,,,,,0,54,54,4,1,,,,,,,,,,,,,,,,,,,,,,,,,,,,
,,,,,WIN24_016,22,Female,2024-01-29_17h31.03.009,jersey_experiment_5,2023.2.2,Win32,84.03361345,,,,,,,,,,,,,,,,694.8745,696.1683,696.1683,697.8627,return,0.7193,,48.30729167,,,,,,FBP-RB-19.png,0.37,1.2,27,0.5,,,,,,,,,,,,,0,55,55,26,1,,,,,,,,,,,,,,,,,,,,,,,,,,,,
,,,,,WIN24_016,22,Female,2024-01-29_17h31.03.009,jersey_experiment_5,2023.2.2,Win32,84.03361345,,,,,,,,,,,,,,,,697.8629,699.6629,699.6629,701.1324,return,0.5287,,86.45833333,,,,,,FBP-OG-91.png,0.45,1.2,15,1,,,,,,,,,,,,,0,56,56,14,1,,,,,,,,,,,,,,,,,,,,,,,,,,,,
,,,,,WIN24_016,22,Female,2024-01-29_17h31.03.009,jersey_experiment_5,2023.2.2,Win32,84.03361345,,,,,,,,,,,,,,,,701.1325,702.439,702.439,703.4884,return,0.4844,,87.23958333,,,,,,FBP-YG-81.png,0.43,1.2,39,0.5,,,,,,,,,,,,,0,57,57,38,1,,,,,,,,,,,,,,,,,,,,,,,,,,,,
,,,,,WIN24_016,22,Female,2024-01-29_17h31.03.009,jersey_experiment_5,2023.2.2,Win32,84.03361345,,,,,,,,,,,,,,,,703.4886,705.2867,705.2867,707.5219,return,1.7629,,49.34895833,,,,,,FBP-OG-91.png,0.37,1.2,12,1,,,,,,,,,,,,,0,58,58,11,1,,,,,,,,,,,,,,,,,,,,,,,,,,,,
,,,,,WIN24_016,22,Female,2024-01-29_17h31.03.009,jersey_experiment_5,2023.2.2,Win32,84.03361345,,,,,,,,,,,,,,,,707.5221,709.3221,709.3221,710.4044,return,0.4218,,30.859375,,,,,,FBP-PT-18.png,0.35,1.2,51,1,,,,,,,,,,,,,0,59,59,50,1,,,,,,,,,,,,,,,,,,,,,,,,,,,,
,,,,,WIN24_016,22,Female,2024-01-29_17h31.03.009,jersey_experiment_5,2023.2.2,Win32,84.03361345,,,,,,,,,,,,,,,,710.4061,712.2062,712.2062,713.393,return,0.5654,,93.359375,,,,,,FBP-OG-17.png,0.45,1.2,5,1,,,,,,,,,,,,,,,,,,0,0,0,4,1,,,,,,,,,,,,,,,,,,,,,,,
,,,,,WIN24_016,22,Female,2024-01-29_17h31.03.009,jersey_experiment_5,2023.2.2,Win32,84.03361345,,,,,,,,,,,,,,,,713.3933,714.6866,714.6866,715.8632,return,0.5764,,91.015625,,,,,,FBP-YG-19.png,0.43,1.2,44,0.5,,,,,,,,,,,,,,,,,,0,1,1,43,1,,,,,,,,,,,,,,,,,,,,,,,
,,,,,WIN24_016,22,Female,2024-01-29_17h31.03.009,jersey_experiment_5,2023.2.2,Win32,84.03361345,,,,,,,,,,,,,,,,715.8634,717.6632,717.6632,718.7674,return,0.5867,,85.15625,,,,,,FBP-OG-19.png,0.43,1.2,14,1,,,,,,,,,,,,,,,,,,0,2,2,13,1,,,,,,,,,,,,,,,,,,,,,,,
,,,,,WIN24_016,22,Female,2024-01-29_17h31.03.009,jersey_experiment_5,2023.2.2,Win32,84.03361345,,,,,,,,,,,,,,,,718.7675,720.5596,720.5596,721.7065,return,0.2982,,50.91145833,,,,,,FBP-PT-81.png,0.35,1.2,51,1,,,,,,,,,,,,,,,,,,0,3,3,50,1,,,,,,,,,,,,,,,,,,,,,,,
,,,,,WIN24_016,22,Female,2024-01-29_17h31.03.009,jersey_experiment_5,2023.2.2,Win32,84.03361345,,,,,,,,,,,,,,,,721.7066,723.0046,723.0046,723.8282,return,0.3058,,50.91145833,,,,,,FBP-YG-17.png,0.35,1.2,31,0.5,,,,,,,,,,,,,,,,,,0,4,4,30,1,,,,,,,,,,,,,,,,,,,,,,,
,,,,,WIN24_016,22,Female,2024-01-29_17h31.03.009,jersey_experiment_5,2023.2.2,Win32,84.03361345,,,,,,,,,,,,,,,,723.8284,725.6286,725.6287,726.4754,return,0.412,,87.109375,,,,,,FBP-OG-19.png,0.45,1.2,15,1,,,,,,,,,,,,,,,,,,0,5,5,14,1,,,,,,,,,,,,,,,,,,,,,,,
,,,,,WIN24_016,22,Female,2024-01-29_17h31.03.009,jersey_experiment_5,2023.2.2,Win32,84.03361345,,,,,,,,,,,,,,,,726.4756,727.7694,727.7694,728.9365,return,0.2728,,50,,,,,,FBP-RB-71.png,0.37,1.2,17,0.5,,,,,,,,,,,,,,,,,,0,6,6,16,1,,,,,,,,,,,,,,,,,,,,,,,
,,,,,WIN24_016,22,Female,2024-01-29_17h31.03.009,jersey_experiment_5,2023.2.2,Win32,84.03361345,,,,,,,,,,,,,,,,728.9367,730.7343,730.7343,731.4154,return,0.2908,,50,,,,,,FBP-OG-19.png,0.35,1.2,11,1,,,,,,,,,,,,,,,,,,0,7,7,10,1,,,,,,,,,,,,,,,,,,,,,,,
,,,,,WIN24_016,22,Female,2024-01-29_17h31.03.009,jersey_experiment_5,2023.2.2,Win32,84.03361345,,,,,,,,,,,,,,,,731.4155,733.2071,733.2071,733.8168,return,0.3881,,50,,,,,,FBP-OG-17.png,0.35,1.2,1,1,,,,,,,,,,,,,,,,,,0,8,8,0,1,,,,,,,,,,,,,,,,,,,,,,,
,,,,,WIN24_016,22,Female,2024-01-29_17h31.03.009,jersey_experiment_5,2023.2.2,Win32,84.03361345,,,,,,,,,,,,,,,,733.817,735.1108,735.1108,736.6643,return,0.3421,,78.64583333,,,,,,FBP-YG-18.png,0.43,1.2,39,0.5,,,,,,,,,,,,,,,,,,0,9,9,38,1,,,,,,,,,,,,,,,,,,,,,,,
,,,,,WIN24_016,22,Female,2024-01-29_17h31.03.009,jersey_experiment_5,2023.2.2,Win32,84.03361345,,,,,,,,,,,,,,,,736.6645,738.46,738.46,739.307,return,0.3208,,78.64583333,,,,,,FBP-PT-81.png,0.4,1.2,53,1,,,,,,,,,,,,,,,,,,0,10,10,52,1,,,,,,,,,,,,,,,,,,,,,,,
,,,,,WIN24_016,22,Female,2024-01-29_17h31.03.009,jersey_experiment_5,2023.2.2,Win32,84.03361345,,,,,,,,,,,,,,,,739.3072,741.1111,741.1111,741.8193,return,0.3433,,78.64583333,,,,,,FBP-OG-18.png,0.45,1.2,10,1,,,,,,,,,,,,,,,,,,0,11,11,9,1,,,,,,,,,,,,,,,,,,,,,,,
,,,,,WIN24_016,22,Female,2024-01-29_17h31.03.009,jersey_experiment_5,2023.2.2,Win32,84.03361345,,,,,,,,,,,,,,,,741.8194,743.1112,743.1112,744.5544,return,0.4844,,52.21354167,,,,,,FBP-RB-91.png,0.35,1.2,26,0.5,,,,,,,,,,,,,,,,,,0,12,12,25,1,,,,,,,,,,,,,,,,,,,,,,,
,,,,,WIN24_016,22,Female,2024-01-29_17h31.03.009,jersey_experiment_5,2023.2.2,Win32,84.03361345,,,,,,,,,,,,,,,,744.5546,745.8484,745.8484,746.7232,return,0.3511,,50.78125,,,,,,FBP-YG-18.png,0.35,1.2,36,0.5,,,,,,,,,,,,,,,,,,0,13,13,35,1,,,,,,,,,,,,,,,,,,,,,,,
,,,,,WIN24_016,22,Female,2024-01-29_17h31.03.009,jersey_experiment_5,2023.2.2,Win32,84.03361345,,,,,,,,,,,,,,,,746.7234,748.0173,748.0173,748.9704,return,0.2588,,50.78125,,,,,,FBP-RB-91.png,0.43,1.2,29,0.5,,,,,,,,,,,,,,,,,,0,14,14,28,1,,,,,,,,,,,,,,,,,,,,,,,
,,,,,WIN24_016,22,Female,2024-01-29_17h31.03.009,jersey_experiment_5,2023.2.2,Win32,84.03361345,,,,,,,,,,,,,,,,748.9705,750.7704,750.7704,753.7591,return,0.2711,,50.13020833,,,,,,FBP-OG-19.png,0.4,1.2,13,1,,,,,,,,,,,,,,,,,,0,15,15,12,1,,,,,,,,,,,,,,,,,,,,,,,
,,,,,WIN24_016,22,Female,2024-01-29_17h31.03.009,jersey_experiment_5,2023.2.2,Win32,84.03361345,,,,,,,,,,,,,,,,753.7592,755.5547,755.5547,756.296,return,0.2535,,50.26041667,,,,,,FBP-OG-18.png,0.4,1.2,8,1,,,,,,,,,,,,,,,,,,0,16,16,7,1,,,,,,,,,,,,,,,,,,,,,,,
,,,,,WIN24_016,22,Female,2024-01-29_17h31.03.009,jersey_experiment_5,2023.2.2,Win32,84.03361345,,,,,,,,,,,,,,,,756.2961,758.0882,758.0882,758.7475,return,0.2474,,50.26041667,,,,,,FBP-PT-81.png,0.37,1.2,52,1,,,,,,,,,,,,,,,,,,0,17,17,51,1,,,,,,,,,,,,,,,,,,,,,,,
,,,,,WIN24_016,22,Female,2024-01-29_17h31.03.009,jersey_experiment_5,2023.2.2,Win32,84.03361345,,,,,,,,,,,,,,,,758.7477,760.5477,760.5477,761.3493,return,0.2729,,76.43229167,,,,,,FBP-OG-18.png,0.43,1.2,9,1,,,,,,,,,,,,,,,,,,0,18,18,8,1,,,,,,,,,,,,,,,,,,,,,,,
,,,,,WIN24_016,22,Female,2024-01-29_17h31.03.009,jersey_experiment_5,2023.2.2,Win32,84.03361345,,,,,,,,,,,,,,,,761.3494,762.653,762.653,763.5731,return,0.3219,,76.69270833,,,,,,FBP-RB-71.png,0.43,1.2,19,0.5,,,,,,,,,,,,,,,,,,0,19,19,18,1,,,,,,,,,,,,,,,,,,,,,,,
,,,,,WIN24_016,22,Female,2024-01-29_17h31.03.009,jersey_experiment_5,2023.2.2,Win32,84.03361345,,,,,,,,,,,,,,,,763.5732,764.8768,764.8768,766.0299,return,0.2235,,49.47916667,,,,,,FBP-RB-81.png,0.35,1.2,21,0.5,,,,,,,,,,,,,,,,,,0,20,20,20,1,,,,,,,,,,,,,,,,,,,,,,,
,,,,,WIN24_016,22,Female,2024-01-29_17h31.03.009,jersey_experiment_5,2023.2.2,Win32,84.03361345,,,,,,,,,,,,,,,,766.0301,767.8258,767.8258,768.4757,return,0.2908,,49.47916667,,,,,,FBP-OG-17.png,0.4,1.2,3,1,,,,,,,,,,,,,,,,,,0,21,21,2,1,,,,,,,,,,,,,,,,,,,,,,,
,,,,,WIN24_016,22,Female,2024-01-29_17h31.03.009,jersey_experiment_5,2023.2.2,Win32,84.03361345,,,,,,,,,,,,,,,,768.4758,770.279,770.279,770.8654,return,0.2923,,49.47916667,,,,,,FBP-PT-91.png,0.35,1.2,56,1,,,,,,,,,,,,,,,,,,0,22,22,55,1,,,,,,,,,,,,,,,,,,,,,,,
,,,,,WIN24_016,22,Female,2024-01-29_17h31.03.009,jersey_experiment_5,2023.2.2,Win32,84.03361345,,,,,,,,,,,,,,,,770.8654,772.1593,772.1593,772.9245,return,0.2129,,49.47916667,,,,,,FBP-RB-81.png,0.4,1.2,23,0.5,,,,,,,,,,,,,,,,,,0,23,23,22,1,,,,,,,,,,,,,,,,,,,,,,,
,,,,,WIN24_016,22,Female,2024-01-29_17h31.03.009,jersey_experiment_5,2023.2.2,Win32,84.03361345,,,,,,,,,,,,,,,,772.9247,774.2303,774.2303,774.9381,return,0.2235,,49.47916667,,,,,,FBP-RB-81.png,0.37,1.2,22,0.5,,,,,,,,,,,,,,,,,,0,24,24,21,1,,,,,,,,,,,,,,,,,,,,,,,
,,,,,WIN24_016,22,Female,2024-01-29_17h31.03.009,jersey_experiment_5,2023.2.2,Win32,84.03361345,,,,,,,,,,,,,,,,774.9382,776.7342,776.7342,777.5672,return,0.2939,,79.55729167,,,,,,FBP-PT-71.png,0.45,1.2,50,1,,,,,,,,,,,,,,,,,,0,25,25,49,1,,,,,,,,,,,,,,,,,,,,,,,
,,,,,WIN24_016,22,Female,2024-01-29_17h31.03.009,jersey_experiment_5,2023.2.2,Win32,84.03361345,,,,,,,,,,,,,,,,777.5675,778.8655,778.8655,780.3674,return,0.5055,,98.69791667,,,,,,FBP-RB-91.png,0.45,1.2,30,0.5,,,,,,,,,,,,,,,,,,0,26,26,29,1,,,,,,,,,,,,,,,,,,,,,,,
,,,,,WIN24_016,22,Female,2024-01-29_17h31.03.009,jersey_experiment_5,2023.2.2,Win32,84.03361345,,,,,,,,,,,,,,,,780.3676,782.1596,782.1596,783.3675,return,0.3123,,72.13541667,,,,,,FBP-PT-81.png,0.43,1.2,54,1,,,,,,,,,,,,,,,,,,0,27,27,53,1,,,,,,,,,,,,,,,,,,,,,,,
,,,,,WIN24_016,22,Female,2024-01-29_17h31.03.009,jersey_experiment_5,2023.2.2,Win32,84.03361345,,,,,,,,,,,,,,,,783.3677,784.6618,784.6618,785.9794,return,0.2617,,49.73958333,,,,,,FBP-YG-18.png,0.37,1.2,37,0.5,,,,,,,,,,,,,,,,,,0,28,28,36,1,,,,,,,,,,,,,,,,,,,,,,,
,,,,,WIN24_016,22,Female,2024-01-29_17h31.03.009,jersey_experiment_5,2023.2.2,Win32,84.03361345,,,,,,,,,,,,,,,,785.9796,787.7738,787.7738,789.0029,return,0.4288,,49.73958333,,,,,,FBP-OG-17.png,0.37,1.2,2,1,,,,,,,,,,,,,,,,,,0,29,29,1,1,,,,,,,,,,,,,,,,,,,,,,,
,,,,,WIN24_016,22,Female,2024-01-29_17h31.03.009,jersey_experiment_5,2023.2.2,Win32,84.03361345,,,,,,,,,,,,,,,,789.003,790.2972,790.2972,791.1131,return,0.188,,49.73958333,,,,,,FBP-YG-17.png,0.37,1.2,32,0.5,,,,,,,,,,,,,,,,,,0,30,30,31,1,,,,,,,,,,,,,,,,,,,,,,,
,,,,,WIN24_016,22,Female,2024-01-29_17h31.03.009,jersey_experiment_5,2023.2.2,Win32,84.03361345,,,,,,,,,,,,,,,,791.1132,792.9113,792.9113,793.8856,return,0.3184,,77.34375,,,,,,FBP-PT-71.png,0.43,1.2,49,1,,,,,,,,,,,,,,,,,,0,31,31,48,1,,,,,,,,,,,,,,,,,,,,,,,
,,,,,WIN24_016,22,Female,2024-01-29_17h31.03.009,jersey_experiment_5,2023.2.2,Win32,84.03361345,,,,,,,,,,,,,,,,793.8857,795.1796,795.1796,796.7134,return,0.3042,,48.95833333,,,,,,FBP-RB-71.png,0.35,1.2,16,0.5,,,,,,,,,,,,,,,,,,0,32,32,15,1,,,,,,,,,,,,,,,,,,,,,,,
,,,,,WIN24_016,22,Female,2024-01-29_17h31.03.009,jersey_experiment_5,2023.2.2,Win32,84.03361345,,,,,,,,,,,,,,,,796.7136,798.0152,798.0152,800.0298,return,0.3048,,79.42708333,,,,,,FBP-RB-71.png,0.45,1.2,20,0.5,,,,,,,,,,,,,,,,,,0,33,33,19,1,,,,,,,,,,,,,,,,,,,,,,,
,,,,,WIN24_016,22,Female,2024-01-29_17h31.03.009,jersey_experiment_5,2023.2.2,Win32,84.03361345,,,,,,,,,,,,,,,,800.0299,801.3329,801.3329,802.9211,return,0.77,,85.67708333,,,,,,FBP-YG-19.png,0.45,1.2,45,0.5,,,,,,,,,,,,,,,,,,0,34,34,44,1,,,,,,,,,,,,,,,,,,,,,,,
,,,,,WIN24_016,22,Female,2024-01-29_17h31.03.009,jersey_experiment_5,2023.2.2,Win32,84.03361345,,,,,,,,,,,,,,,,802.9212,804.2154,804.2155,805.596,return,0.2472,,40.49479167,,,,,,FBP-YG-19.png,0.35,1.2,41,0.5,,,,,,,,,,,,,,,,,,0,35,35,40,1,,,,,,,,,,,,,,,,,,,,,,,
,,,,,WIN24_016,22,Female,2024-01-29_17h31.03.009,jersey_experiment_5,2023.2.2,Win32,84.03361345,,,,,,,,,,,,,,,,805.5961,806.8978,806.8978,808.3684,return,0.2587,,77.60416667,,,,,,FBP-YG-17.png,0.43,1.2,34,0.5,,,,,,,,,,,,,,,,,,0,36,36,33,1,,,,,,,,,,,,,,,,,,,,,,,
,,,,,WIN24_016,22,Female,2024-01-29_17h31.03.009,jersey_experiment_5,2023.2.2,Win32,84.03361345,,,,,,,,,,,,,,,,808.3684,809.6624,809.6624,810.9258,return,0.2607,,38.15104167,,,,,,FBP-RB-91.png,0.37,1.2,27,0.5,,,,,,,,,,,,,,,,,,0,37,37,26,1,,,,,,,,,,,,,,,,,,,,,,,
,,,,,WIN24_016,22,Female,2024-01-29_17h31.03.009,jersey_experiment_5,2023.2.2,Win32,84.03361345,,,,,,,,,,,,,,,,810.9259,812.2273,812.2273,813.0979,return,0.2871,,38.80208333,,,,,,FBP-YG-18.png,0.4,1.2,38,0.5,,,,,,,,,,,,,,,,,,0,38,38,37,1,,,,,,,,,,,,,,,,,,,,,,,
,,,,,WIN24_016,22,Female,2024-01-29_17h31.03.009,jersey_experiment_5,2023.2.2,Win32,84.03361345,,,,,,,,,,,,,,,,813.0981,814.8982,814.8982,815.5923,return,0.1962,,38.80208333,,,,,,FBP-PT-71.png,0.4,1.2,48,1,,,,,,,,,,,,,,,,,,0,39,39,47,1,,,,,,,,,,,,,,,,,,,,,,,
,,,,,WIN24_016,22,Female,2024-01-29_17h31.03.009,jersey_experiment_5,2023.2.2,Win32,84.03361345,,,,,,,,,,,,,,,,815.5924,817.3849,817.3849,818.3163,return,0.274,,78.515625,,,,,,FBP-OG-17.png,0.43,1.2,4,1,,,,,,,,,,,,,,,,,,0,40,40,3,1,,,,,,,,,,,,,,,,,,,,,,,
,,,,,WIN24_016,22,Female,2024-01-29_17h31.03.009,jersey_experiment_5,2023.2.2,Win32,84.03361345,,,,,,,,,,,,,,,,818.3164,820.1101,820.1101,821.138,return,0.3064,,41.015625,,,,,,FBP-OG-18.png,0.35,1.2,6,1,,,,,,,,,,,,,,,,,,0,41,41,5,1,,,,,,,,,,,,,,,,,,,,,,,
,,,,,WIN24_016,22,Female,2024-01-29_17h31.03.009,jersey_experiment_5,2023.2.2,Win32,84.03361345,,,,,,,,,,,,,,,,821.1381,822.9399,822.9399,823.6396,return,0.2422,,81.640625,,,,,,FBP-PT-91.png,0.43,1.2,59,1,,,,,,,,,,,,,,,,,,0,42,42,58,1,,,,,,,,,,,,,,,,,,,,,,,
,,,,,WIN24_016,22,Female,2024-01-29_17h31.03.009,jersey_experiment_5,2023.2.2,Win32,84.03361345,,,,,,,,,,,,,,,,823.6398,824.9338,824.9338,826.0676,return,0.272,,43.359375,,,,,,FBP-YG-19.png,0.37,1.2,42,0.5,,,,,,,,,,,,,,,,,,0,43,43,41,1,,,,,,,,,,,,,,,,,,,,,,,
,,,,,WIN24_016,22,Female,2024-01-29_17h31.03.009,jersey_experiment_5,2023.2.2,Win32,84.03361345,,,,,,,,,,,,,,,,826.0678,827.8696,827.8697,829.0675,return,0.494,,85.28645833,,,,,,FBP-PT-91.png,0.45,1.2,60,1,,,,,,,,,,,,,,,,,,0,44,44,59,1,,,,,,,,,,,,,,,,,,,,,,,
,,,,,WIN24_016,22,Female,2024-01-29_17h31.03.009,jersey_experiment_5,2023.2.2,Win32,84.03361345,,,,,,,,,,,,,,,,829.0676,830.3692,830.3692,831.4441,return,0.2474,,51.30208333,,,,,,FBP-RB-71.png,0.4,1.2,18,0.5,,,,,,,,,,,,,,,,,,0,45,45,17,1,,,,,,,,,,,,,,,,,,,,,,,
,,,,,WIN24_016,22,Female,2024-01-29_17h31.03.009,jersey_experiment_5,2023.2.2,Win32,84.03361345,,,,,,,,,,,,,,,,831.4442,832.7458,832.7458,833.5341,return,0.2475,,51.171875,,,,,,FBP-RB-91.png,0.4,1.2,28,0.5,,,,,,,,,,,,,,,,,,0,46,46,27,1,,,,,,,,,,,,,,,,,,,,,,,
,,,,,WIN24_016,22,Female,2024-01-29_17h31.03.009,jersey_experiment_5,2023.2.2,Win32,84.03361345,,,,,,,,,,,,,,,,833.5342,834.8283,834.8283,835.9031,return,0.2116,,69.140625,,,,,,FBP-YG-17.png,0.45,1.2,35,0.5,,,,,,,,,,,,,,,,,,0,47,47,34,1,,,,,,,,,,,,,,,,,,,,,,,
,,,,,WIN24_016,22,Female,2024-01-29_17h31.03.009,jersey_experiment_5,2023.2.2,Win32,84.03361345,,,,,,,,,,,,,,,,835.9033,837.209,837.209,837.887,return,0.1882,,69.140625,,,,,,FBP-YG-17.png,0.4,1.2,33,0.5,,,,,,,,,,,,,,,,,,0,48,48,32,1,,,,,,,,,,,,,,,,,,,,,,,
,,,,,WIN24_016,22,Female,2024-01-29_17h31.03.009,jersey_experiment_5,2023.2.2,Win32,84.03361345,,,,,,,,,,,,,,,,837.8871,839.6913,839.6913,840.8229,return,0.4728,,69.140625,,,,,,FBP-OG-19.png,0.37,1.2,12,1,,,,,,,,,,,,,,,,,,0,49,49,11,1,,,,,,,,,,,,,,,,,,,,,,,
,,,,,WIN24_016,22,Female,2024-01-29_17h31.03.009,jersey_experiment_5,2023.2.2,Win32,84.03361345,,,,,,,,,,,,,,,,840.8231,842.1227,842.1227,843.9108,return,0.2429,,51.30208333,,,,,,FBP-YG-18.png,0.45,1.2,40,0.5,,,,,,,,,,,,,,,,,,0,50,50,39,1,,,,,,,,,,,,,,,,,,,,,,,
,,,,,WIN24_016,22,Female,2024-01-29_17h31.03.009,jersey_experiment_5,2023.2.2,Win32,84.03361345,,,,,,,,,,,,,,,,843.911,845.7171,845.7171,846.5346,return,0.2077,,57.8125,,,,,,FBP-PT-91.png,0.4,1.2,58,1,,,,,,,,,,,,,,,,,,0,51,51,57,1,,,,,,,,,,,,,,,,,,,,,,,
,,,,,WIN24_016,22,Female,2024-01-29_17h31.03.009,jersey_experiment_5,2023.2.2,Win32,84.03361345,,,,,,,,,,,,,,,,846.5348,847.8286,847.8286,849.0053,return,0.2129,,51.43229167,,,,,,FBP-YG-19.png,0.4,1.2,43,0.5,,,,,,,,,,,,,,,,,,0,52,52,42,1,,,,,,,,,,,,,,,,,,,,,,,
,,,,,WIN24_016,22,Female,2024-01-29_17h31.03.009,jersey_experiment_5,2023.2.2,Win32,84.03361345,,,,,,,,,,,,,,,,849.0054,850.8053,850.8053,851.3625,return,0.355,,51.43229167,,,,,,FBP-PT-71.png,0.35,1.2,46,1,,,,,,,,,,,,,,,,,,0,53,53,45,1,,,,,,,,,,,,,,,,,,,,,,,
,,,,,WIN24_016,22,Female,2024-01-29_17h31.03.009,jersey_experiment_5,2023.2.2,Win32,84.03361345,,,,,,,,,,,,,,,,851.3627,853.1584,853.1584,853.7585,return,0.2594,,51.43229167,,,,,,FBP-PT-71.png,0.37,1.2,47,1,,,,,,,,,,,,,,,,,,0,54,54,46,1,,,,,,,,,,,,,,,,,,,,,,,
,,,,,WIN24_016,22,Female,2024-01-29_17h31.03.009,jersey_experiment_5,2023.2.2,Win32,84.03361345,,,,,,,,,,,,,,,,853.7587,855.5507,855.5507,857.0054,return,0.2812,,51.43229167,,,,,,FBP-PT-91.png,0.37,1.2,57,1,,,,,,,,,,,,,,,,,,0,55,55,56,1,,,,,,,,,,,,,,,,,,,,,,,
,,,,,WIN24_016,22,Female,2024-01-29_17h31.03.009,jersey_experiment_5,2023.2.2,Win32,84.03361345,,,,,,,,,,,,,,,,857.0056,858.8,858.8,859.9469,return,0.2504,,96.74479167,,,,,,FBP-PT-81.png,0.45,1.2,55,1,,,,,,,,,,,,,,,,,,0,56,56,54,1,,,,,,,,,,,,,,,,,,,,,,,
,,,,,WIN24_016,22,Female,2024-01-29_17h31.03.009,jersey_experiment_5,2023.2.2,Win32,84.03361345,,,,,,,,,,,,,,,,859.9471,861.7396,861.7396,862.9233,return,0.2499,,50.26041667,,,,,,FBP-OG-18.png,0.37,1.2,7,1,,,,,,,,,,,,,,,,,,0,57,57,6,1,,,,,,,,,,,,,,,,,,,,,,,
,,,,,WIN24_016,22,Female,2024-01-29_17h31.03.009,jersey_experiment_5,2023.2.2,Win32,84.03361345,,,,,,,,,,,,,,,,862.9234,864.2216,864.2216,865.3398,return,0.2457,,84.63541667,,,,,,FBP-RB-81.png,0.45,1.2,25,0.5,,,,,,,,,,,,,,,,,,0,58,58,24,1,,,,,,,,,,,,,,,,,,,,,,,
,,,,,WIN24_016,22,Female,2024-01-29_17h31.03.009,jersey_experiment_5,2023.2.2,Win32,84.03361345,,,,,,,,,,,,,,,,865.34,866.6451,866.6451,867.4219,return,0.2569,,84.63541667,,,,,,FBP-RB-81.png,0.43,1.2,24,0.5,,,,,,,,,,,,,,,,,,0,59,59,23,1,,,,,,,,,,,,,,,,,,,,,,,
,,,,,WIN24_016,22,Female,2024-01-29_17h31.03.009,jersey_experiment_5,2023.2.2,Win32,84.03361345,,,,,,,,,,,,,,,,,,,,,,,,,,,,,,,,,,,,,,,,,,,,,,,,,,,,,,,,867.4222,869.5866,return,2.153,,,,,,,,,,,,,,,,,,,
,,,,,WIN24_016,22,Female,2024-01-29_17h31.03.009,jersey_experiment_5,2023.2.2,Win32,84.03361345,,,,,,,,,,,,,,,,,,,,,,,,,,,,,,,,,,,,,,,,,,,,,,,,,,,,,,,,,,,,,869.5866,873.4103,1,2.8468,return,0.9647,,,,,,,,,,,,
,,,,,WIN24_016,22,Female,2024-01-29_17h31.03.009,jersey_experiment_5,2023.2.2,Win32,84.03361345,,,,,,,,,,,,,,,,,,,,,,,,,,,,,,,,,,,,,,,,,,,,,,,,,,,,,,,,,,,,,,,,,,,,873.4105,911.7653,Visual perception. There were multiple husky and slender ones in a row.,right,27.707,,,,,,
,,,,,WIN24_016,22,Female,2024-01-29_17h31.03.009,jersey_experiment_5,2023.2.2,Win32,84.03361345,,,,,,,,,,,,,,,,,,,,,,,,,,,,,,,,,,,,,,,,,,,,,,,,,,,,,,,,,,,,,,,,,,,,,,,,,,911.7654,913.6592,return,1.8828,