requirements.started,requirements.stopped,key_resp_3.keys,key_resp_3.rt,key_resp_3.duration,Subject ID,Age,Gender,date,expName,psychopyVersion,OS,frameRate,instructions1.started,instructions1.stopped,key_resp.keys,key_resp.rt,key_resp.duration,example.started,example.stopped,enter_2.keys,enter_2.rt,enter_2.duration,instructions2.started,instructions2.stopped,enter_3.keys,enter_3.rt,enter_3.duration,image.started,image.stopped,slider_2.started,slider_2.stopped,next.keys,next.rt,next.duration,slider.response,trial_block_1.thisRepN,trial_block_1.thisTrialN,trial_block_1.thisN,trial_block_1.thisIndex,trial_block_1.ran,Path,Width,Height,Index,Duration,trial_block_2.thisRepN,trial_block_2.thisTrialN,trial_block_2.thisN,trial_block_2.thisIndex,trial_block_2.ran,rest_break.started,rest_break.stopped,end_break.started,end_break.stopped,key_resp_5.keys,key_resp_5.rt,key_resp_5.duration,trial_block_3.thisRepN,trial_block_3.thisTrialN,trial_block_3.thisN,trial_block_3.thisIndex,trial_block_3.ran,trial_block_4.thisRepN,trial_block_4.thisTrialN,trial_block_4.thisN,trial_block_4.thisIndex,trial_block_4.ran,questions_intro.started,questions_intro.stopped,enter_12.keys,enter_12.rt,enter_12.duration,question2.started,question2.stopped,question_doingbest.response,question_doingbest.rt,enter_15.keys,enter_15.rt,enter_15.duration,pattern.started,pattern.stopped,pattern_2.text,enter_17.keys,enter_17.rt,enter_17.duration,thankyou.started,thankyou.stopped,enter_14.keys,enter_14.rt,enter_14.duration
1E-04,15.1174,return,15.1124,,WIN24_052,19,female,2024-02-09_14h57.15.336,jersey_experiment_5,2023.2.2,Win32,84.74576271,,,,,,,,,,,,,,,,,,,,,,,,,,,,,,,,,,,,,,,,,,,,,,,,,,,,,,,,,,,,,,,,,,,,,,,,,,,,,,
,,,,,WIN24_052,19,female,2024-02-09_14h57.15.336,jersey_experiment_5,2023.2.2,Win32,84.74576271,15.1175,22.8103,return,7.6812,,,,,,,,,,,,,,,,,,,,,,,,,,,,,,,,,,,,,,,,,,,,,,,,,,,,,,,,,,,,,,,,,,,,,,,,,,
,,,,,WIN24_052,19,female,2024-02-09_14h57.15.336,jersey_experiment_5,2023.2.2,Win32,84.74576271,,,,,,22.8104,27.718,return,4.8763,,,,,,,,,,,,,,,,,,,,,,,,,,,,,,,,,,,,,,,,,,,,,,,,,,,,,,,,,,,,,,,,,,,,,
,,,,,WIN24_052,19,female,2024-02-09_14h57.15.336,jersey_experiment_5,2023.2.2,Win32,84.74576271,,,,,,,,,,,27.7182,58.2559,return,30.5203,,,,,,,,,,,,,,,,,,,,,,,,,,,,,,,,,,,,,,,,,,,,,,,,,,,,,,,,,,,,,,,,
,,,,,WIN24_052,19,female,2024-02-09_14h57.15.336,jersey_experiment_5,2023.2.2,Win32,84.74576271,,,,,,,,,,,,,,,,58.2636,60.056,60.0561,83.7391,return,3.5364,,60.9375,0,0,0,24,1,FBP-RB-18.png,0.45,1.2,25,1,,,,,,,,,,,,,,,,,,,,,,,,,,,,,,,,,,,,,,,,,,,,,
,,,,,WIN24_052,19,female,2024-02-09_14h57.15.336,jersey_experiment_5,2023.2.2,Win32,84.74576271,,,,,,,,,,,,,,,,83.7437,85.5389,85.5389,92.3393,return,1.3422,,32.8125,0,1,1,21,1,FBP-RB-18.png,0.37,1.2,22,1,,,,,,,,,,,,,,,,,,,,,,,,,,,,,,,,,,,,,,,,,,,,,
,,,,,WIN24_052,19,female,2024-02-09_14h57.15.336,jersey_experiment_5,2023.2.2,Win32,84.74576271,,,,,,,,,,,,,,,,92.3395,94.1392,94.1392,97.7276,return,0.9089,,36.328125,0,2,2,42,1,FBP-YG-91.png,0.4,1.2,43,1,,,,,,,,,,,,,,,,,,,,,,,,,,,,,,,,,,,,,,,,,,,,,
,,,,,WIN24_052,19,female,2024-02-09_14h57.15.336,jersey_experiment_5,2023.2.2,Win32,84.74576271,,,,,,,,,,,,,,,,97.7279,99.0216,99.0216,103.2454,return,1.3078,,60.28645833,0,3,3,2,1,FBP-OG-71.png,0.4,1.2,3,0.5,,,,,,,,,,,,,,,,,,,,,,,,,,,,,,,,,,,,,,,,,,,,,
,,,,,WIN24_052,19,female,2024-02-09_14h57.15.336,jersey_experiment_5,2023.2.2,Win32,84.74576271,,,,,,,,,,,,,,,,103.2456,104.5395,104.5396,106.0573,return,0.3025,,89.0625,0,4,4,58,1,FBP-PT-19.png,0.43,1.2,59,0.5,,,,,,,,,,,,,,,,,,,,,,,,,,,,,,,,,,,,,,,,,,,,,
,,,,,WIN24_052,19,female,2024-02-09_14h57.15.336,jersey_experiment_5,2023.2.2,Win32,84.74576271,,,,,,,,,,,,,,,,106.0576,107.8572,107.8573,108.928,return,0.2596,,88.54166667,0,5,5,18,1,FBP-RB-17.png,0.43,1.2,19,1,,,,,,,,,,,,,,,,,,,,,,,,,,,,,,,,,,,,,,,,,,,,,
,,,,,WIN24_052,19,female,2024-02-09_14h57.15.336,jersey_experiment_5,2023.2.2,Win32,84.74576271,,,,,,,,,,,,,,,,108.9282,110.2224,110.2224,113.4575,return,1.7515,,55.98958333,0,6,6,13,1,FBP-OG-91.png,0.43,1.2,14,0.5,,,,,,,,,,,,,,,,,,,,,,,,,,,,,,,,,,,,,,,,,,,,,
,,,,,WIN24_052,19,female,2024-02-09_14h57.15.336,jersey_experiment_5,2023.2.2,Win32,84.74576271,,,,,,,,,,,,,,,,113.4578,114.7517,114.7518,116.6341,return,0.6195,,1.041666667,0,7,7,45,1,FBP-PT-17.png,0.35,1.2,46,0.5,,,,,,,,,,,,,,,,,,,,,,,,,,,,,,,,,,,,,,,,,,,,,
,,,,,WIN24_052,19,female,2024-02-09_14h57.15.336,jersey_experiment_5,2023.2.2,Win32,84.74576271,,,,,,,,,,,,,,,,116.6343,118.4343,118.4343,119.8813,return,0.291,,3.125,0,8,8,41,1,FBP-YG-91.png,0.37,1.2,42,1,,,,,,,,,,,,,,,,,,,,,,,,,,,,,,,,,,,,,,,,,,,,,
,,,,,WIN24_052,19,female,2024-02-09_14h57.15.336,jersey_experiment_5,2023.2.2,Win32,84.74576271,,,,,,,,,,,,,,,,119.8815,121.1754,121.1754,122.6225,return,0.3771,,2.34375,0,9,9,10,1,FBP-OG-91.png,0.35,1.2,11,0.5,,,,,,,,,,,,,,,,,,,,,,,,,,,,,,,,,,,,,,,,,,,,,
,,,,,WIN24_052,19,female,2024-02-09_14h57.15.336,jersey_experiment_5,2023.2.2,Win32,84.74576271,,,,,,,,,,,,,,,,122.6227,123.9168,123.9168,126.3284,return,0.2546,,99.609375,0,10,10,14,1,FBP-OG-91.png,0.45,1.2,15,0.5,,,,,,,,,,,,,,,,,,,,,,,,,,,,,,,,,,,,,,,,,,,,,
,,,,,WIN24_052,19,female,2024-02-09_14h57.15.336,jersey_experiment_5,2023.2.2,Win32,84.74576271,,,,,,,,,,,,,,,,126.3287,127.6229,127.623,129.1051,return,0.471,,97.78645833,0,11,11,48,1,FBP-PT-17.png,0.43,1.2,49,0.5,,,,,,,,,,,,,,,,,,,,,,,,,,,,,,,,,,,,,,,,,,,,,
,,,,,WIN24_052,19,female,2024-02-09_14h57.15.336,jersey_experiment_5,2023.2.2,Win32,84.74576271,,,,,,,,,,,,,,,,129.1053,130.9054,130.9054,133.3054,return,0.1942,,14.19270833,0,12,12,36,1,FBP-YG-81.png,0.37,1.2,37,1,,,,,,,,,,,,,,,,,,,,,,,,,,,,,,,,,,,,,,,,,,,,,
,,,,,WIN24_052,19,female,2024-02-09_14h57.15.336,jersey_experiment_5,2023.2.2,Win32,84.74576271,,,,,,,,,,,,,,,,133.3057,134.5997,134.5997,135.5288,return,0.1839,,14.97395833,0,13,13,51,1,FBP-PT-18.png,0.37,1.2,52,0.5,,,,,,,,,,,,,,,,,,,,,,,,,,,,,,,,,,,,,,,,,,,,,
,,,,,WIN24_052,19,female,2024-02-09_14h57.15.336,jersey_experiment_5,2023.2.2,Win32,84.74576271,,,,,,,,,,,,,,,,135.529,137.329,137.329,139.7291,return,1.4125,,33.07291667,0,14,14,26,1,FBP-RB-19.png,0.37,1.2,27,1,,,,,,,,,,,,,,,,,,,,,,,,,,,,,,,,,,,,,,,,,,,,,
,,,,,WIN24_052,19,female,2024-02-09_14h57.15.336,jersey_experiment_5,2023.2.2,Win32,84.74576271,,,,,,,,,,,,,,,,139.7294,141.5292,141.5293,142.5409,return,0.2256,,2.864583333,0,15,15,15,1,FBP-RB-17.png,0.35,1.2,16,1,,,,,,,,,,,,,,,,,,,,,,,,,,,,,,,,,,,,,,,,,,,,,
,,,,,WIN24_052,19,female,2024-02-09_14h57.15.336,jersey_experiment_5,2023.2.2,Win32,84.74576271,,,,,,,,,,,,,,,,142.5412,143.835,143.8351,146.2822,return,0.1813,,41.40625,0,16,16,7,1,FBP-OG-81.png,0.4,1.2,8,0.5,,,,,,,,,,,,,,,,,,,,,,,,,,,,,,,,,,,,,,,,,,,,,
,,,,,WIN24_052,19,female,2024-02-09_14h57.15.336,jersey_experiment_5,2023.2.2,Win32,84.74576271,,,,,,,,,,,,,,,,146.2824,148.0826,148.0826,150.659,return,1.8684,,36.45833333,0,17,17,20,1,FBP-RB-18.png,0.35,1.2,21,1,,,,,,,,,,,,,,,,,,,,,,,,,,,,,,,,,,,,,,,,,,,,,
,,,,,WIN24_052,19,female,2024-02-09_14h57.15.336,jersey_experiment_5,2023.2.2,Win32,84.74576271,,,,,,,,,,,,,,,,150.6591,152.4592,152.4593,153.5297,return,0.1962,,85.28645833,0,18,18,43,1,FBP-YG-91.png,0.43,1.2,44,1,,,,,,,,,,,,,,,,,,,,,,,,,,,,,,,,,,,,,,,,,,,,,
,,,,,WIN24_052,19,female,2024-02-09_14h57.15.336,jersey_experiment_5,2023.2.2,Win32,84.74576271,,,,,,,,,,,,,,,,153.5299,155.3298,155.3298,156.6121,return,0.188,,12.23958333,0,19,19,35,1,FBP-YG-81.png,0.35,1.2,36,1,,,,,,,,,,,,,,,,,,,,,,,,,,,,,,,,,,,,,,,,,,,,,
,,,,,WIN24_052,19,female,2024-02-09_14h57.15.336,jersey_experiment_5,2023.2.2,Win32,84.74576271,,,,,,,,,,,,,,,,156.6123,157.9062,157.9062,158.6356,return,0.1096,,6.510416667,0,20,20,0,1,FBP-OG-71.png,0.35,1.2,1,0.5,,,,,,,,,,,,,,,,,,,,,,,,,,,,,,,,,,,,,,,,,,,,,
,,,,,WIN24_052,19,female,2024-02-09_14h57.15.336,jersey_experiment_5,2023.2.2,Win32,84.74576271,,,,,,,,,,,,,,,,158.6359,159.9297,159.9299,161.424,return,0.3781,,99.08854167,0,21,21,3,1,FBP-OG-71.png,0.43,1.2,4,0.5,,,,,,,,,,,,,,,,,,,,,,,,,,,,,,,,,,,,,,,,,,,,,
,,,,,WIN24_052,19,female,2024-02-09_14h57.15.336,jersey_experiment_5,2023.2.2,Win32,84.74576271,,,,,,,,,,,,,,,,161.4243,163.224,163.224,164.7065,return,0.4332,,99.609375,0,22,22,44,1,FBP-YG-91.png,0.45,1.2,45,1,,,,,,,,,,,,,,,,,,,,,,,,,,,,,,,,,,,,,,,,,,,,,
,,,,,WIN24_052,19,female,2024-02-09_14h57.15.336,jersey_experiment_5,2023.2.2,Win32,84.74576271,,,,,,,,,,,,,,,,164.7067,166.0006,166.0006,167.3537,return,0.161,,68.61979167,0,23,23,47,1,FBP-PT-17.png,0.4,1.2,48,0.5,,,,,,,,,,,,,,,,,,,,,,,,,,,,,,,,,,,,,,,,,,,,,
,,,,,WIN24_052,19,female,2024-02-09_14h57.15.336,jersey_experiment_5,2023.2.2,Win32,84.74576271,,,,,,,,,,,,,,,,167.3539,168.6478,168.6478,169.6478,return,0.1524,,63.28125,0,24,24,57,1,FBP-PT-19.png,0.4,1.2,58,0.5,,,,,,,,,,,,,,,,,,,,,,,,,,,,,,,,,,,,,,,,,,,,,
,,,,,WIN24_052,19,female,2024-02-09_14h57.15.336,jersey_experiment_5,2023.2.2,Win32,84.74576271,,,,,,,,,,,,,,,,169.6479,170.9419,170.9419,171.8362,return,0.2029,,81.25,0,25,25,8,1,FBP-OG-81.png,0.43,1.2,9,0.5,,,,,,,,,,,,,,,,,,,,,,,,,,,,,,,,,,,,,,,,,,,,,
,,,,,WIN24_052,19,female,2024-02-09_14h57.15.336,jersey_experiment_5,2023.2.2,Win32,84.74576271,,,,,,,,,,,,,,,,171.8364,173.1303,173.1303,174.3186,return,0.1796,,99.73958333,0,26,26,9,1,FBP-OG-81.png,0.45,1.2,10,0.5,,,,,,,,,,,,,,,,,,,,,,,,,,,,,,,,,,,,,,,,,,,,,
,,,,,WIN24_052,19,female,2024-02-09_14h57.15.336,jersey_experiment_5,2023.2.2,Win32,84.74576271,,,,,,,,,,,,,,,,174.3188,176.1187,176.1187,178.754,return,1.4212,,61.06770833,0,27,27,37,1,FBP-YG-81.png,0.4,1.2,38,1,,,,,,,,,,,,,,,,,,,,,,,,,,,,,,,,,,,,,,,,,,,,,
,,,,,WIN24_052,19,female,2024-02-09_14h57.15.336,jersey_experiment_5,2023.2.2,Win32,84.74576271,,,,,,,,,,,,,,,,178.7542,180.5542,180.5542,182.1307,return,0.2594,,17.83854167,0,28,28,40,1,FBP-YG-91.png,0.35,1.2,41,1,,,,,,,,,,,,,,,,,,,,,,,,,,,,,,,,,,,,,,,,,,,,,
,,,,,WIN24_052,19,female,2024-02-09_14h57.15.336,jersey_experiment_5,2023.2.2,Win32,84.74576271,,,,,,,,,,,,,,,,182.131,183.9307,183.9308,185.8367,return,1.4407,,30.46875,0,29,29,31,1,FBP-YG-71.png,0.37,1.2,32,1,,,,,,,,,,,,,,,,,,,,,,,,,,,,,,,,,,,,,,,,,,,,,
,,,,,WIN24_052,19,female,2024-02-09_14h57.15.336,jersey_experiment_5,2023.2.2,Win32,84.74576271,,,,,,,,,,,,,,,,185.8369,187.6367,187.6367,192.0016,return,3.0591,,49.609375,0,30,30,27,1,FBP-RB-19.png,0.4,1.2,28,1,,,,,,,,,,,,,,,,,,,,,,,,,,,,,,,,,,,,,,,,,,,,,
,,,,,WIN24_052,19,female,2024-02-09_14h57.15.336,jersey_experiment_5,2023.2.2,Win32,84.74576271,,,,,,,,,,,,,,,,192.0018,193.8016,193.8016,209.1199,return,1.1065,,65.49479167,0,31,31,23,1,FBP-RB-18.png,0.43,1.2,24,1,,,,,,,,,,,,,,,,,,,,,,,,,,,,,,,,,,,,,,,,,,,,,
,,,,,WIN24_052,19,female,2024-02-09_14h57.15.336,jersey_experiment_5,2023.2.2,Win32,84.74576271,,,,,,,,,,,,,,,,209.1202,210.4141,210.4141,211.579,return,0.1482,,38.28125,0,32,32,52,1,FBP-PT-18.png,0.4,1.2,53,0.5,,,,,,,,,,,,,,,,,,,,,,,,,,,,,,,,,,,,,,,,,,,,,
,,,,,WIN24_052,19,female,2024-02-09_14h57.15.336,jersey_experiment_5,2023.2.2,Win32,84.74576271,,,,,,,,,,,,,,,,211.5792,213.3789,213.379,214.1906,return,0.1767,,91.92708333,0,33,33,38,1,FBP-YG-81.png,0.43,1.2,39,1,,,,,,,,,,,,,,,,,,,,,,,,,,,,,,,,,,,,,,,,,,,,,
,,,,,WIN24_052,19,female,2024-02-09_14h57.15.336,jersey_experiment_5,2023.2.2,Win32,84.74576271,,,,,,,,,,,,,,,,214.1908,215.9909,215.9909,216.8731,return,0.3235,,9.635416667,0,34,34,25,1,FBP-RB-19.png,0.35,1.2,26,1,,,,,,,,,,,,,,,,,,,,,,,,,,,,,,,,,,,,,,,,,,,,,
,,,,,WIN24_052,19,female,2024-02-09_14h57.15.336,jersey_experiment_5,2023.2.2,Win32,84.74576271,,,,,,,,,,,,,,,,216.8733,218.1674,218.1674,219.4849,return,0.1929,,99.86979167,0,35,35,59,1,FBP-PT-19.png,0.45,1.2,60,0.5,,,,,,,,,,,,,,,,,,,,,,,,,,,,,,,,,,,,,,,,,,,,,
,,,,,WIN24_052,19,female,2024-02-09_14h57.15.336,jersey_experiment_5,2023.2.2,Win32,84.74576271,,,,,,,,,,,,,,,,219.4851,221.2852,221.2852,223.3557,return,0.7941,,93.359375,0,36,36,22,1,FBP-RB-18.png,0.4,1.2,23,1,,,,,,,,,,,,,,,,,,,,,,,,,,,,,,,,,,,,,,,,,,,,,
,,,,,WIN24_052,19,female,2024-02-09_14h57.15.336,jersey_experiment_5,2023.2.2,Win32,84.74576271,,,,,,,,,,,,,,,,223.3559,224.6499,224.6499,226.6499,return,0.9609,,39.84375,0,37,37,56,1,FBP-PT-19.png,0.37,1.2,57,0.5,,,,,,,,,,,,,,,,,,,,,,,,,,,,,,,,,,,,,,,,,,,,,
,,,,,WIN24_052,19,female,2024-02-09_14h57.15.336,jersey_experiment_5,2023.2.2,Win32,84.74576271,,,,,,,,,,,,,,,,226.6502,228.4501,228.4501,229.2265,return,0.181,,99.47916667,0,38,38,33,1,FBP-YG-71.png,0.43,1.2,34,1,,,,,,,,,,,,,,,,,,,,,,,,,,,,,,,,,,,,,,,,,,,,,
,,,,,WIN24_052,19,female,2024-02-09_14h57.15.336,jersey_experiment_5,2023.2.2,Win32,84.74576271,,,,,,,,,,,,,,,,229.2267,231.0266,231.0266,231.9561,return,0.1509,,2.473958333,0,39,39,30,1,FBP-YG-71.png,0.35,1.2,31,1,,,,,,,,,,,,,,,,,,,,,,,,,,,,,,,,,,,,,,,,,,,,,
,,,,,WIN24_052,19,female,2024-02-09_14h57.15.336,jersey_experiment_5,2023.2.2,Win32,84.74576271,,,,,,,,,,,,,,,,231.9562,233.2502,233.2502,234.6267,return,0.1645,,99.73958333,0,40,40,54,1,FBP-PT-18.png,0.45,1.2,55,0.5,,,,,,,,,,,,,,,,,,,,,,,,,,,,,,,,,,,,,,,,,,,,,
,,,,,WIN24_052,19,female,2024-02-09_14h57.15.336,jersey_experiment_5,2023.2.2,Win32,84.74576271,,,,,,,,,,,,,,,,234.6269,235.9208,235.9208,237.2268,return,0.1718,,4.166666667,0,41,41,1,1,FBP-OG-71.png,0.37,1.2,2,0.5,,,,,,,,,,,,,,,,,,,,,,,,,,,,,,,,,,,,,,,,,,,,,
,,,,,WIN24_052,19,female,2024-02-09_14h57.15.336,jersey_experiment_5,2023.2.2,Win32,84.74576271,,,,,,,,,,,,,,,,237.2271,239.0268,239.0268,240.8269,return,0.1476,,55.59895833,0,42,42,32,1,FBP-YG-71.png,0.4,1.2,33,1,,,,,,,,,,,,,,,,,,,,,,,,,,,,,,,,,,,,,,,,,,,,,
,,,,,WIN24_052,19,female,2024-02-09_14h57.15.336,jersey_experiment_5,2023.2.2,Win32,84.74576271,,,,,,,,,,,,,,,,240.8272,242.121,242.121,244.5094,return,1.3337,,31.51041667,0,43,43,6,1,FBP-OG-81.png,0.37,1.2,7,0.5,,,,,,,,,,,,,,,,,,,,,,,,,,,,,,,,,,,,,,,,,,,,,
,,,,,WIN24_052,19,female,2024-02-09_14h57.15.336,jersey_experiment_5,2023.2.2,Win32,84.74576271,,,,,,,,,,,,,,,,244.5097,245.8036,245.8036,247.58,return,0.8148,,91.796875,0,44,44,4,1,FBP-OG-71.png,0.45,1.2,5,0.5,,,,,,,,,,,,,,,,,,,,,,,,,,,,,,,,,,,,,,,,,,,,,
,,,,,WIN24_052,19,female,2024-02-09_14h57.15.336,jersey_experiment_5,2023.2.2,Win32,84.74576271,,,,,,,,,,,,,,,,247.5804,249.3802,249.3802,251.451,return,0.9597,,74.47916667,0,45,45,17,1,FBP-RB-17.png,0.4,1.2,18,1,,,,,,,,,,,,,,,,,,,,,,,,,,,,,,,,,,,,,,,,,,,,,
,,,,,WIN24_052,19,female,2024-02-09_14h57.15.336,jersey_experiment_5,2023.2.2,Win32,84.74576271,,,,,,,,,,,,,,,,251.4511,252.7451,252.7452,254.0038,return,0.198,,0.260416667,0,46,46,55,1,FBP-PT-19.png,0.35,1.2,56,0.5,,,,,,,,,,,,,,,,,,,,,,,,,,,,,,,,,,,,,,,,,,,,,
,,,,,WIN24_052,19,female,2024-02-09_14h57.15.336,jersey_experiment_5,2023.2.2,Win32,84.74576271,,,,,,,,,,,,,,,,254.004,255.298,255.298,256.2862,return,0.1919,,1.302083333,0,47,47,5,1,FBP-OG-81.png,0.35,1.2,6,0.5,,,,,,,,,,,,,,,,,,,,,,,,,,,,,,,,,,,,,,,,,,,,,
,,,,,WIN24_052,19,female,2024-02-09_14h57.15.336,jersey_experiment_5,2023.2.2,Win32,84.74576271,,,,,,,,,,,,,,,,256.2865,258.0864,258.0864,259.3451,return,0.3859,,98.828125,0,48,48,19,1,FBP-RB-17.png,0.45,1.2,20,1,,,,,,,,,,,,,,,,,,,,,,,,,,,,,,,,,,,,,,,,,,,,,
,,,,,WIN24_052,19,female,2024-02-09_14h57.15.336,jersey_experiment_5,2023.2.2,Win32,84.74576271,,,,,,,,,,,,,,,,259.3455,261.1453,261.1453,261.7687,return,0.244,,98.69791667,0,49,49,34,1,FBP-YG-71.png,0.45,1.2,35,1,,,,,,,,,,,,,,,,,,,,,,,,,,,,,,,,,,,,,,,,,,,,,
,,,,,WIN24_052,19,female,2024-02-09_14h57.15.336,jersey_experiment_5,2023.2.2,Win32,84.74576271,,,,,,,,,,,,,,,,261.7689,263.5689,263.5689,264.3219,return,0.3294,,98.69791667,0,50,50,29,1,FBP-RB-19.png,0.45,1.2,30,1,,,,,,,,,,,,,,,,,,,,,,,,,,,,,,,,,,,,,,,,,,,,,
,,,,,WIN24_052,19,female,2024-02-09_14h57.15.336,jersey_experiment_5,2023.2.2,Win32,84.74576271,,,,,,,,,,,,,,,,264.3222,265.6159,265.6159,266.9925,return,0.151,,85.15625,0,51,51,53,1,FBP-PT-18.png,0.43,1.2,54,0.5,,,,,,,,,,,,,,,,,,,,,,,,,,,,,,,,,,,,,,,,,,,,,
,,,,,WIN24_052,19,female,2024-02-09_14h57.15.336,jersey_experiment_5,2023.2.2,Win32,84.74576271,,,,,,,,,,,,,,,,266.9926,268.7926,268.7926,269.7103,return,0.3065,,99.21875,0,52,52,39,1,FBP-YG-81.png,0.45,1.2,40,1,,,,,,,,,,,,,,,,,,,,,,,,,,,,,,,,,,,,,,,,,,,,,
,,,,,WIN24_052,19,female,2024-02-09_14h57.15.336,jersey_experiment_5,2023.2.2,Win32,84.74576271,,,,,,,,,,,,,,,,269.7105,271.0047,271.0047,272.2516,return,0.3,,5.208333333,0,53,53,50,1,FBP-PT-18.png,0.35,1.2,51,0.5,,,,,,,,,,,,,,,,,,,,,,,,,,,,,,,,,,,,,,,,,,,,,
,,,,,WIN24_052,19,female,2024-02-09_14h57.15.336,jersey_experiment_5,2023.2.2,Win32,84.74576271,,,,,,,,,,,,,,,,272.2518,273.5457,273.5457,275.4399,return,0.1191,,33.33333333,0,54,54,12,1,FBP-OG-91.png,0.4,1.2,13,0.5,,,,,,,,,,,,,,,,,,,,,,,,,,,,,,,,,,,,,,,,,,,,,
,,,,,WIN24_052,19,female,2024-02-09_14h57.15.336,jersey_experiment_5,2023.2.2,Win32,84.74576271,,,,,,,,,,,,,,,,275.4401,276.734,276.734,277.946,return,0.6643,,19.66145833,0,55,55,46,1,FBP-PT-17.png,0.37,1.2,47,0.5,,,,,,,,,,,,,,,,,,,,,,,,,,,,,,,,,,,,,,,,,,,,,
,,,,,WIN24_052,19,female,2024-02-09_14h57.15.336,jersey_experiment_5,2023.2.2,Win32,84.74576271,,,,,,,,,,,,,,,,277.9462,279.2401,279.2401,280.5929,return,0.2692,,68.359375,0,56,56,49,1,FBP-PT-17.png,0.45,1.2,50,0.5,,,,,,,,,,,,,,,,,,,,,,,,,,,,,,,,,,,,,,,,,,,,,
,,,,,WIN24_052,19,female,2024-02-09_14h57.15.336,jersey_experiment_5,2023.2.2,Win32,84.74576271,,,,,,,,,,,,,,,,280.5932,282.3933,282.3933,283.9344,return,0.2,,44.66145833,0,57,57,16,1,FBP-RB-17.png,0.37,1.2,17,1,,,,,,,,,,,,,,,,,,,,,,,,,,,,,,,,,,,,,,,,,,,,,
,,,,,WIN24_052,19,female,2024-02-09_14h57.15.336,jersey_experiment_5,2023.2.2,Win32,84.74576271,,,,,,,,,,,,,,,,283.9346,285.7345,285.7346,286.9698,return,0.1583,,63.54166667,0,58,58,28,1,FBP-RB-19.png,0.43,1.2,29,1,,,,,,,,,,,,,,,,,,,,,,,,,,,,,,,,,,,,,,,,,,,,,
,,,,,WIN24_052,19,female,2024-02-09_14h57.15.336,jersey_experiment_5,2023.2.2,Win32,84.74576271,,,,,,,,,,,,,,,,286.9699,288.2639,288.264,289.3698,return,0.1956,,32.29166667,0,59,59,11,1,FBP-OG-91.png,0.37,1.2,12,0.5,,,,,,,,,,,,,,,,,,,,,,,,,,,,,,,,,,,,,,,,,,,,,
,,,,,WIN24_052,19,female,2024-02-09_14h57.15.336,jersey_experiment_5,2023.2.2,Win32,84.74576271,,,,,,,,,,,,,,,,289.372,291.17,291.17,291.9228,return,0.2259,,93.88020833,,,,,,FBP-RB-71.png,0.43,1.2,19,1,0,0,0,18,1,,,,,,,,,,,,,,,,,,,,,,,,,,,,,,,,,,,,,,,,
,,,,,WIN24_052,19,female,2024-02-09_14h57.15.336,jersey_experiment_5,2023.2.2,Win32,84.74576271,,,,,,,,,,,,,,,,291.923,293.2172,293.2173,294.6759,return,0.6497,,8.59375,,,,,,FBP-OG-18.png,0.35,1.2,6,0.5,0,1,1,5,1,,,,,,,,,,,,,,,,,,,,,,,,,,,,,,,,,,,,,,,,
,,,,,WIN24_052,19,female,2024-02-09_14h57.15.336,jersey_experiment_5,2023.2.2,Win32,84.74576271,,,,,,,,,,,,,,,,294.6762,295.9701,295.9701,297.7114,return,0.1887,,25.13020833,,,,,,FBP-PT-81.png,0.4,1.2,53,0.5,0,2,2,52,1,,,,,,,,,,,,,,,,,,,,,,,,,,,,,,,,,,,,,,,,
,,,,,WIN24_052,19,female,2024-02-09_14h57.15.336,jersey_experiment_5,2023.2.2,Win32,84.74576271,,,,,,,,,,,,,,,,297.7117,299.5114,299.5114,300.5114,return,0.1792,,95.57291667,,,,,,FBP-RB-81.png,0.43,1.2,24,1,0,3,3,23,1,,,,,,,,,,,,,,,,,,,,,,,,,,,,,,,,,,,,,,,,
,,,,,WIN24_052,19,female,2024-02-09_14h57.15.336,jersey_experiment_5,2023.2.2,Win32,84.74576271,,,,,,,,,,,,,,,,300.5117,301.8056,301.8056,302.8645,return,0.156,,7.03125,,,,,,FBP-PT-91.png,0.35,1.2,56,0.5,0,4,4,55,1,,,,,,,,,,,,,,,,,,,,,,,,,,,,,,,,,,,,,,,,
,,,,,WIN24_052,19,female,2024-02-09_14h57.15.336,jersey_experiment_5,2023.2.2,Win32,84.74576271,,,,,,,,,,,,,,,,302.8647,304.6646,304.6646,305.2292,return,0.1923,,6.901041667,,,,,,FBP-RB-81.png,0.37,1.2,22,1,0,5,5,21,1,,,,,,,,,,,,,,,,,,,,,,,,,,,,,,,,,,,,,,,,
,,,,,WIN24_052,19,female,2024-02-09_14h57.15.336,jersey_experiment_5,2023.2.2,Win32,84.74576271,,,,,,,,,,,,,,,,305.2295,307.0295,307.0295,308.2882,return,0.5048,,89.84375,,,,,,FBP-RB-81.png,0.45,1.2,25,1,0,6,6,24,1,,,,,,,,,,,,,,,,,,,,,,,,,,,,,,,,,,,,,,,,
,,,,,WIN24_052,19,female,2024-02-09_14h57.15.336,jersey_experiment_5,2023.2.2,Win32,84.74576271,,,,,,,,,,,,,,,,308.2884,309.5823,309.5823,310.5235,return,0.2268,,84.89583333,,,,,,FBP-PT-81.png,0.45,1.2,55,0.5,0,7,7,54,1,,,,,,,,,,,,,,,,,,,,,,,,,,,,,,,,,,,,,,,,
,,,,,WIN24_052,19,female,2024-02-09_14h57.15.336,jersey_experiment_5,2023.2.2,Win32,84.74576271,,,,,,,,,,,,,,,,310.5238,311.8177,311.8178,313.1001,return,0.1821,,4.296875,,,,,,FBP-PT-71.png,0.35,1.2,46,0.5,0,8,8,45,1,,,,,,,,,,,,,,,,,,,,,,,,,,,,,,,,,,,,,,,,
,,,,,WIN24_052,19,female,2024-02-09_14h57.15.336,jersey_experiment_5,2023.2.2,Win32,84.74576271,,,,,,,,,,,,,,,,313.1004,314.3943,314.3943,316.0767,return,1.0401,,56.90104167,,,,,,FBP-PT-71.png,0.43,1.2,49,0.5,0,9,9,48,1,,,,,,,,,,,,,,,,,,,,,,,,,,,,,,,,,,,,,,,,
,,,,,WIN24_052,19,female,2024-02-09_14h57.15.336,jersey_experiment_5,2023.2.2,Win32,84.74576271,,,,,,,,,,,,,,,,316.0769,317.8768,317.8768,318.7826,return,0.1531,,33.33333333,,,,,,FBP-YG-18.png,0.35,1.2,36,1,0,10,10,35,1,,,,,,,,,,,,,,,,,,,,,,,,,,,,,,,,,,,,,,,,
,,,,,WIN24_052,19,female,2024-02-09_14h57.15.336,jersey_experiment_5,2023.2.2,Win32,84.74576271,,,,,,,,,,,,,,,,318.7828,320.0767,320.0768,321.0415,return,0.1511,,28.77604167,,,,,,FBP-OG-17.png,0.37,1.2,2,0.5,0,11,11,1,1,,,,,,,,,,,,,,,,,,,,,,,,,,,,,,,,,,,,,,,,
,,,,,WIN24_052,19,female,2024-02-09_14h57.15.336,jersey_experiment_5,2023.2.2,Win32,84.74576271,,,,,,,,,,,,,,,,321.0418,322.3358,322.3358,323.8064,return,0.6032,,72.265625,,,,,,FBP-OG-18.png,0.4,1.2,8,0.5,0,12,12,7,1,,,,,,,,,,,,,,,,,,,,,,,,,,,,,,,,,,,,,,,,
,,,,,WIN24_052,19,female,2024-02-09_14h57.15.336,jersey_experiment_5,2023.2.2,Win32,84.74576271,,,,,,,,,,,,,,,,323.8067,325.6064,325.6064,326.8771,return,0.2017,,72.78645833,,,,,,FBP-RB-71.png,0.4,1.2,18,1,0,13,13,17,1,,,,,,,,,,,,,,,,,,,,,,,,,,,,,,,,,,,,,,,,
,,,,,WIN24_052,19,female,2024-02-09_14h57.15.336,jersey_experiment_5,2023.2.2,Win32,84.74576271,,,,,,,,,,,,,,,,326.8773,328.6773,328.6774,329.4889,return,0.1652,,34.63541667,,,,,,FBP-YG-17.png,0.35,1.2,31,1,0,14,14,30,1,,,,,,,,,,,,,,,,,,,,,,,,,,,,,,,,,,,,,,,,
,,,,,WIN24_052,19,female,2024-02-09_14h57.15.336,jersey_experiment_5,2023.2.2,Win32,84.74576271,,,,,,,,,,,,,,,,329.4891,330.783,330.7831,331.4066,return,0.1791,,34.375,,,,,,FBP-OG-17.png,0.35,1.2,1,0.5,0,15,15,0,1,,,,,,,,,,,,,,,,,,,,,,,,,,,,,,,,,,,,,,,,
,,,,,WIN24_052,19,female,2024-02-09_14h57.15.336,jersey_experiment_5,2023.2.2,Win32,84.74576271,,,,,,,,,,,,,,,,331.4069,333.207,333.2071,335.1715,return,1.2381,,67.96875,,,,,,FBP-YG-17.png,0.4,1.2,33,1,0,16,16,32,1,,,,,,,,,,,,,,,,,,,,,,,,,,,,,,,,,,,,,,,,
,,,,,WIN24_052,19,female,2024-02-09_14h57.15.336,jersey_experiment_5,2023.2.2,Win32,84.74576271,,,,,,,,,,,,,,,,335.1718,336.4656,336.4656,337.8186,return,0.2748,,95.96354167,,,,,,FBP-PT-91.png,0.45,1.2,60,0.5,0,17,17,59,1,,,,,,,,,,,,,,,,,,,,,,,,,,,,,,,,,,,,,,,,
,,,,,WIN24_052,19,female,2024-02-09_14h57.15.336,jersey_experiment_5,2023.2.2,Win32,84.74576271,,,,,,,,,,,,,,,,337.8189,339.1128,339.1128,339.7952,return,0.2122,,95.44270833,,,,,,FBP-OG-19.png,0.43,1.2,14,0.5,0,18,18,13,1,,,,,,,,,,,,,,,,,,,,,,,,,,,,,,,,,,,,,,,,
,,,,,WIN24_052,19,female,2024-02-09_14h57.15.336,jersey_experiment_5,2023.2.2,Win32,84.74576271,,,,,,,,,,,,,,,,339.7955,341.5952,341.5952,345.7248,return,2.9458,,19.921875,,,,,,FBP-RB-91.png,0.35,1.2,26,1,0,19,19,25,1,,,,,,,,,,,,,,,,,,,,,,,,,,,,,,,,,,,,,,,,
,,,,,WIN24_052,19,female,2024-02-09_14h57.15.336,jersey_experiment_5,2023.2.2,Win32,84.74576271,,,,,,,,,,,,,,,,345.7252,347.5251,347.5252,350.0428,return,1.6514,,83.203125,,,,,,FBP-RB-91.png,0.45,1.2,30,1,0,20,20,29,1,,,,,,,,,,,,,,,,,,,,,,,,,,,,,,,,,,,,,,,,
,,,,,WIN24_052,19,female,2024-02-09_14h57.15.336,jersey_experiment_5,2023.2.2,Win32,84.74576271,,,,,,,,,,,,,,,,350.043,351.3368,351.3368,353.7133,return,0.8721,,54.16666667,,,,,,FBP-PT-71.png,0.37,1.2,47,0.5,0,21,21,46,1,,,,,,,,,,,,,,,,,,,,,,,,,,,,,,,,,,,,,,,,
,,,,,WIN24_052,19,female,2024-02-09_14h57.15.336,jersey_experiment_5,2023.2.2,Win32,84.74576271,,,,,,,,,,,,,,,,353.7136,355.5133,355.5133,359.7958,return,3.2798,,22.00520833,,,,,,FBP-YG-19.png,0.35,1.2,41,1,0,22,22,40,1,,,,,,,,,,,,,,,,,,,,,,,,,,,,,,,,,,,,,,,,
,,,,,WIN24_052,19,female,2024-02-09_14h57.15.336,jersey_experiment_5,2023.2.2,Win32,84.74576271,,,,,,,,,,,,,,,,359.7962,361.5961,361.5961,362.8313,return,0.1525,,30.59895833,,,,,,FBP-RB-71.png,0.37,1.2,17,1,0,23,23,16,1,,,,,,,,,,,,,,,,,,,,,,,,,,,,,,,,,,,,,,,,
,,,,,WIN24_052,19,female,2024-02-09_14h57.15.336,jersey_experiment_5,2023.2.2,Win32,84.74576271,,,,,,,,,,,,,,,,362.8316,364.6315,364.6316,365.2902,return,0.1695,,39.19270833,,,,,,FBP-YG-18.png,0.37,1.2,37,1,0,24,24,36,1,,,,,,,,,,,,,,,,,,,,,,,,,,,,,,,,,,,,,,,,
,,,,,WIN24_052,19,female,2024-02-09_14h57.15.336,jersey_experiment_5,2023.2.2,Win32,84.74576271,,,,,,,,,,,,,,,,365.2904,367.0904,367.0904,368.2551,return,0.1326,,93.48958333,,,,,,FBP-YG-19.png,0.45,1.2,45,1,0,25,25,44,1,,,,,,,,,,,,,,,,,,,,,,,,,,,,,,,,,,,,,,,,
,,,,,WIN24_052,19,female,2024-02-09_14h57.15.336,jersey_experiment_5,2023.2.2,Win32,84.74576271,,,,,,,,,,,,,,,,368.2554,370.055,370.0551,370.6552,return,0.25,,93.48958333,,,,,,FBP-RB-91.png,0.43,1.2,29,1,0,26,26,28,1,,,,,,,,,,,,,,,,,,,,,,,,,,,,,,,,,,,,,,,,
,,,,,WIN24_052,19,female,2024-02-09_14h57.15.336,jersey_experiment_5,2023.2.2,Win32,84.74576271,,,,,,,,,,,,,,,,370.6555,372.4552,372.4552,373.2316,return,0.1521,,88.93229167,,,,,,FBP-YG-18.png,0.4,1.2,38,1,0,27,27,37,1,,,,,,,,,,,,,,,,,,,,,,,,,,,,,,,,,,,,,,,,
,,,,,WIN24_052,19,female,2024-02-09_14h57.15.336,jersey_experiment_5,2023.2.2,Win32,84.74576271,,,,,,,,,,,,,,,,373.2319,374.5258,374.5258,375.3142,return,0.1188,,94.66145833,,,,,,FBP-OG-17.png,0.43,1.2,4,0.5,0,28,28,3,1,,,,,,,,,,,,,,,,,,,,,,,,,,,,,,,,,,,,,,,,
,,,,,WIN24_052,19,female,2024-02-09_14h57.15.336,jersey_experiment_5,2023.2.2,Win32,84.74576271,,,,,,,,,,,,,,,,375.3145,377.1142,377.1142,377.7143,return,0.2123,,94.66145833,,,,,,FBP-YG-19.png,0.43,1.2,44,1,0,29,29,43,1,,,,,,,,,,,,,,,,,,,,,,,,,,,,,,,,,,,,,,,,
,,,,,WIN24_052,19,female,2024-02-09_14h57.15.336,jersey_experiment_5,2023.2.2,Win32,84.74576271,,,,,,,,,,,,,,,,377.7145,379.0085,379.0085,381.0085,return,1.285,,15.625,,,,,,FBP-OG-18.png,0.37,1.2,7,0.5,0,30,30,6,1,,,,,,,,,,,,,,,,,,,,,,,,,,,,,,,,,,,,,,,,
,,,,,WIN24_052,19,female,2024-02-09_14h57.15.336,jersey_experiment_5,2023.2.2,Win32,84.74576271,,,,,,,,,,,,,,,,381.0087,382.3026,382.3027,383.5851,return,0.3863,,36.71875,,,,,,FBP-OG-18.png,0.43,1.2,9,0.5,0,31,31,8,1,,,,,,,,,,,,,,,,,,,,,,,,,,,,,,,,,,,,,,,,
,,,,,WIN24_052,19,female,2024-02-09_14h57.15.336,jersey_experiment_5,2023.2.2,Win32,84.74576271,,,,,,,,,,,,,,,,383.5852,384.8792,384.8792,385.9969,return,0.2047,,18.09895833,,,,,,FBP-PT-81.png,0.35,1.2,51,0.5,0,32,32,50,1,,,,,,,,,,,,,,,,,,,,,,,,,,,,,,,,,,,,,,,,
,,,,,WIN24_052,19,female,2024-02-09_14h57.15.336,jersey_experiment_5,2023.2.2,Win32,84.74576271,,,,,,,,,,,,,,,,385.9971,387.797,387.797,390.1735,return,1.7778,,58.59375,,,,,,FBP-YG-18.png,0.43,1.2,39,1,0,33,33,38,1,,,,,,,,,,,,,,,,,,,,,,,,,,,,,,,,,,,,,,,,
,,,,,WIN24_052,19,female,2024-02-09_14h57.15.336,jersey_experiment_5,2023.2.2,Win32,84.74576271,,,,,,,,,,,,,,,,390.1738,391.9737,391.9737,393.2088,return,0.1735,,86.45833333,,,,,,FBP-YG-18.png,0.45,1.2,40,1,0,34,34,39,1,,,,,,,,,,,,,,,,,,,,,,,,,,,,,,,,,,,,,,,,
,,,,,WIN24_052,19,female,2024-02-09_14h57.15.336,jersey_experiment_5,2023.2.2,Win32,84.74576271,,,,,,,,,,,,,,,,393.2091,394.5031,394.5031,396.2561,return,0.2816,,83.59375,,,,,,FBP-PT-91.png,0.37,1.2,57,0.5,0,35,35,56,1,,,,,,,,,,,,,,,,,,,,,,,,,,,,,,,,,,,,,,,,
,,,,,WIN24_052,19,female,2024-02-09_14h57.15.336,jersey_experiment_5,2023.2.2,Win32,84.74576271,,,,,,,,,,,,,,,,396.2563,397.5503,397.5503,399.6092,return,1.0529,,89.453125,,,,,,FBP-OG-19.png,0.45,1.2,15,0.5,0,36,36,14,1,,,,,,,,,,,,,,,,,,,,,,,,,,,,,,,,,,,,,,,,
,,,,,WIN24_052,19,female,2024-02-09_14h57.15.336,jersey_experiment_5,2023.2.2,Win32,84.74576271,,,,,,,,,,,,,,,,399.6095,401.4094,401.4094,402.1387,return,0.1364,,34.11458333,,,,,,FBP-RB-91.png,0.37,1.2,27,1,0,37,37,26,1,,,,,,,,,,,,,,,,,,,,,,,,,,,,,,,,,,,,,,,,
,,,,,WIN24_052,19,female,2024-02-09_14h57.15.336,jersey_experiment_5,2023.2.2,Win32,84.74576271,,,,,,,,,,,,,,,,402.1389,403.4329,403.4329,404.2329,return,0.171,,89.32291667,,,,,,FBP-OG-17.png,0.45,1.2,5,0.5,0,38,38,4,1,,,,,,,,,,,,,,,,,,,,,,,,,,,,,,,,,,,,,,,,
,,,,,WIN24_052,19,female,2024-02-09_14h57.15.336,jersey_experiment_5,2023.2.2,Win32,84.74576271,,,,,,,,,,,,,,,,404.2331,405.527,405.527,406.0799,return,0.1988,,86.97916667,,,,,,FBP-PT-91.png,0.43,1.2,59,0.5,0,39,39,58,1,,,,,,,,,,,,,,,,,,,,,,,,,,,,,,,,,,,,,,,,
,,,,,WIN24_052,19,female,2024-02-09_14h57.15.336,jersey_experiment_5,2023.2.2,Win32,84.74576271,,,,,,,,,,,,,,,,406.0801,407.3742,407.3742,408.6918,return,0.6913,,32.94270833,,,,,,FBP-OG-19.png,0.37,1.2,12,0.5,0,40,40,11,1,,,,,,,,,,,,,,,,,,,,,,,,,,,,,,,,,,,,,,,,
,,,,,WIN24_052,19,female,2024-02-09_14h57.15.336,jersey_experiment_5,2023.2.2,Win32,84.74576271,,,,,,,,,,,,,,,,408.6921,409.9859,409.9859,411.0566,return,0.179,,88.54166667,,,,,,FBP-OG-18.png,0.45,1.2,10,0.5,0,41,41,9,1,,,,,,,,,,,,,,,,,,,,,,,,,,,,,,,,,,,,,,,,
,,,,,WIN24_052,19,female,2024-02-09_14h57.15.336,jersey_experiment_5,2023.2.2,Win32,84.74576271,,,,,,,,,,,,,,,,411.0569,412.8567,412.8567,413.4568,return,0.1647,,88.54166667,,,,,,FBP-YG-17.png,0.45,1.2,35,1,0,42,42,34,1,,,,,,,,,,,,,,,,,,,,,,,,,,,,,,,,,,,,,,,,
,,,,,WIN24_052,19,female,2024-02-09_14h57.15.336,jersey_experiment_5,2023.2.2,Win32,84.74576271,,,,,,,,,,,,,,,,413.457,414.7509,414.751,416.2216,return,0.5688,,30.98958333,,,,,,FBP-PT-81.png,0.37,1.2,52,0.5,0,43,43,51,1,,,,,,,,,,,,,,,,,,,,,,,,,,,,,,,,,,,,,,,,
,,,,,WIN24_052,19,female,2024-02-09_14h57.15.336,jersey_experiment_5,2023.2.2,Win32,84.74576271,,,,,,,,,,,,,,,,416.2218,417.5156,417.5157,419.7393,return,1.5005,,59.375,,,,,,FBP-PT-91.png,0.4,1.2,58,0.5,0,44,44,57,1,,,,,,,,,,,,,,,,,,,,,,,,,,,,,,,,,,,,,,,,
,,,,,WIN24_052,19,female,2024-02-09_14h57.15.336,jersey_experiment_5,2023.2.2,Win32,84.74576271,,,,,,,,,,,,,,,,419.7397,421.0335,421.0335,422.3394,return,0.6681,,61.58854167,,,,,,FBP-PT-81.png,0.43,1.2,54,0.5,0,45,45,53,1,,,,,,,,,,,,,,,,,,,,,,,,,,,,,,,,,,,,,,,,
,,,,,WIN24_052,19,female,2024-02-09_14h57.15.336,jersey_experiment_5,2023.2.2,Win32,84.74576271,,,,,,,,,,,,,,,,422.3396,424.1396,424.1397,425.1041,return,0.1324,,18.88020833,,,,,,FBP-RB-81.png,0.35,1.2,21,1,0,46,46,20,1,,,,,,,,,,,,,,,,,,,,,,,,,,,,,,,,,,,,,,,,
,,,,,WIN24_052,19,female,2024-02-09_14h57.15.336,jersey_experiment_5,2023.2.2,Win32,84.74576271,,,,,,,,,,,,,,,,425.1044,426.9043,426.9043,427.9985,return,0.0943,,61.06770833,,,,,,FBP-RB-91.png,0.4,1.2,28,1,0,47,47,27,1,,,,,,,,,,,,,,,,,,,,,,,,,,,,,,,,,,,,,,,,
,,,,,WIN24_052,19,female,2024-02-09_14h57.15.336,jersey_experiment_5,2023.2.2,Win32,84.74576271,,,,,,,,,,,,,,,,427.9987,429.7985,429.7985,431.3869,return,0.6394,,64.19270833,,,,,,FBP-YG-19.png,0.37,1.2,42,1,0,48,48,41,1,,,,,,,,,,,,,,,,,,,,,,,,,,,,,,,,,,,,,,,,
,,,,,WIN24_052,19,female,2024-02-09_14h57.15.336,jersey_experiment_5,2023.2.2,Win32,84.74576271,,,,,,,,,,,,,,,,431.3871,433.1868,433.1868,433.7044,return,0.112,,64.19270833,,,,,,FBP-YG-17.png,0.37,1.2,32,1,0,49,49,31,1,,,,,,,,,,,,,,,,,,,,,,,,,,,,,,,,,,,,,,,,
,,,,,WIN24_052,19,female,2024-02-09_14h57.15.336,jersey_experiment_5,2023.2.2,Win32,84.74576271,,,,,,,,,,,,,,,,433.7046,434.9988,434.9988,437.34,return,0.0974,,63.671875,,,,,,FBP-PT-71.png,0.4,1.2,48,0.5,0,50,50,47,1,,,,,,,,,,,,,,,,,,,,,,,,,,,,,,,,,,,,,,,,
,,,,,WIN24_052,19,female,2024-02-09_14h57.15.336,jersey_experiment_5,2023.2.2,Win32,84.74576271,,,,,,,,,,,,,,,,437.3402,439.1402,439.1402,441.1165,return,1.4494,,81.11979167,,,,,,FBP-YG-17.png,0.43,1.2,34,1,0,51,51,33,1,,,,,,,,,,,,,,,,,,,,,,,,,,,,,,,,,,,,,,,,
,,,,,WIN24_052,19,female,2024-02-09_14h57.15.336,jersey_experiment_5,2023.2.2,Win32,84.74576271,,,,,,,,,,,,,,,,441.1167,442.9166,442.9167,443.8578,return,0.2265,,84.375,,,,,,FBP-YG-19.png,0.4,1.2,43,1,0,52,52,42,1,,,,,,,,,,,,,,,,,,,,,,,,,,,,,,,,,,,,,,,,
,,,,,WIN24_052,19,female,2024-02-09_14h57.15.336,jersey_experiment_5,2023.2.2,Win32,84.74576271,,,,,,,,,,,,,,,,443.858,445.152,445.152,446.8933,return,0.1429,,61.328125,,,,,,FBP-OG-17.png,0.4,1.2,3,0.5,0,53,53,2,1,,,,,,,,,,,,,,,,,,,,,,,,,,,,,,,,,,,,,,,,
,,,,,WIN24_052,19,female,2024-02-09_14h57.15.336,jersey_experiment_5,2023.2.2,Win32,84.74576271,,,,,,,,,,,,,,,,446.8936,448.6932,448.6932,451.1993,return,1.0972,,16.92708333,,,,,,FBP-RB-71.png,0.35,1.2,16,1,0,54,54,15,1,,,,,,,,,,,,,,,,,,,,,,,,,,,,,,,,,,,,,,,,
,,,,,WIN24_052,19,female,2024-02-09_14h57.15.336,jersey_experiment_5,2023.2.2,Win32,84.74576271,,,,,,,,,,,,,,,,451.1996,452.4935,452.4936,453.4112,return,0.2019,,91.015625,,,,,,FBP-PT-71.png,0.45,1.2,50,0.5,0,55,55,49,1,,,,,,,,,,,,,,,,,,,,,,,,,,,,,,,,,,,,,,,,
,,,,,WIN24_052,19,female,2024-02-09_14h57.15.336,jersey_experiment_5,2023.2.2,Win32,84.74576271,,,,,,,,,,,,,,,,453.4115,454.7053,454.7053,456.3996,return,0.1874,,62.23958333,,,,,,FBP-OG-19.png,0.4,1.2,13,0.5,0,56,56,12,1,,,,,,,,,,,,,,,,,,,,,,,,,,,,,,,,,,,,,,,,
,,,,,WIN24_052,19,female,2024-02-09_14h57.15.336,jersey_experiment_5,2023.2.2,Win32,84.74576271,,,,,,,,,,,,,,,,456.3999,458.1995,458.1995,460.5054,return,0.9959,,75.78125,,,,,,FBP-RB-81.png,0.4,1.2,23,1,0,57,57,22,1,,,,,,,,,,,,,,,,,,,,,,,,,,,,,,,,,,,,,,,,
,,,,,WIN24_052,19,female,2024-02-09_14h57.15.336,jersey_experiment_5,2023.2.2,Win32,84.74576271,,,,,,,,,,,,,,,,460.5057,462.3056,462.3057,463.2114,return,0.2504,,99.21875,,,,,,FBP-RB-71.png,0.45,1.2,20,1,0,58,58,19,1,,,,,,,,,,,,,,,,,,,,,,,,,,,,,,,,,,,,,,,,
,,,,,WIN24_052,19,female,2024-02-09_14h57.15.336,jersey_experiment_5,2023.2.2,Win32,84.74576271,,,,,,,,,,,,,,,,463.2118,464.5058,464.5058,465.8823,return,0.1693,,2.864583333,,,,,,FBP-OG-19.png,0.35,1.2,11,0.5,0,59,59,10,1,,,,,,,,,,,,,,,,,,,,,,,,,,,,,,,,,,,,,,,,
,,,,,WIN24_052,19,female,2024-02-09_14h57.15.336,jersey_experiment_5,2023.2.2,Win32,84.74576271,,,,,,,,,,,,,,,,,,,,,,,,,,,,,,,,,,,,,,,465.8827,585.8871,,,,,,,,,,,,,,,,,,,,,,,,,,,,,,,,,,,,,,
,,,,,WIN24_052,19,female,2024-02-09_14h57.15.336,jersey_experiment_5,2023.2.2,Win32,84.74576271,,,,,,,,,,,,,,,,,,,,,,,,,,,,,,,,,,,,,,,,,585.8872,597.546,return,11.6525,,,,,,,,,,,,,,,,,,,,,,,,,,,,,,,,,,
,,,,,WIN24_052,19,female,2024-02-09_14h57.15.336,jersey_experiment_5,2023.2.2,Win32,84.74576271,,,,,,,,,,,,,,,,597.5533,598.8518,598.8518,602.6754,return,2.6115,,17.96875,,,,,,FBP-YG-71.png,0.35,1.2,31,0.5,,,,,,,,,,,,,0,0,0,30,1,,,,,,,,,,,,,,,,,,,,,,,,,,,,
,,,,,WIN24_052,19,female,2024-02-09_14h57.15.336,jersey_experiment_5,2023.2.2,Win32,84.74576271,,,,,,,,,,,,,,,,602.6758,603.9695,603.9695,605.3226,return,0.1451,,80.20833333,,,,,,FBP-YG-91.png,0.43,1.2,44,0.5,,,,,,,,,,,,,0,1,1,43,1,,,,,,,,,,,,,,,,,,,,,,,,,,,,
,,,,,WIN24_052,19,female,2024-02-09_14h57.15.336,jersey_experiment_5,2023.2.2,Win32,84.74576271,,,,,,,,,,,,,,,,605.3228,607.1226,607.1226,610.0168,return,0.1414,,43.22916667,,,,,,FBP-OG-71.png,0.4,1.2,3,1,,,,,,,,,,,,,0,2,2,2,1,,,,,,,,,,,,,,,,,,,,,,,,,,,,
,,,,,WIN24_052,19,female,2024-02-09_14h57.15.336,jersey_experiment_5,2023.2.2,Win32,84.74576271,,,,,,,,,,,,,,,,610.017,611.3109,611.311,612.4285,return,0.5197,,58.59375,,,,,,FBP-RB-18.png,0.4,1.2,23,0.5,,,,,,,,,,,,,0,3,3,22,1,,,,,,,,,,,,,,,,,,,,,,,,,,,,
,,,,,WIN24_052,19,female,2024-02-09_14h57.15.336,jersey_experiment_5,2023.2.2,Win32,84.74576271,,,,,,,,,,,,,,,,612.4288,613.7228,613.7228,614.7699,return,0.1649,,10.80729167,,,,,,FBP-RB-19.png,0.35,1.2,26,0.5,,,,,,,,,,,,,0,4,4,25,1,,,,,,,,,,,,,,,,,,,,,,,,,,,,
,,,,,WIN24_052,19,female,2024-02-09_14h57.15.336,jersey_experiment_5,2023.2.2,Win32,84.74576271,,,,,,,,,,,,,,,,614.7702,616.0641,616.0641,617.4406,return,0.791,,54.81770833,,,,,,FBP-RB-19.png,0.4,1.2,28,0.5,,,,,,,,,,,,,0,5,5,27,1,,,,,,,,,,,,,,,,,,,,,,,,,,,,
,,,,,WIN24_052,19,female,2024-02-09_14h57.15.336,jersey_experiment_5,2023.2.2,Win32,84.74576271,,,,,,,,,,,,,,,,617.4408,618.735,618.735,620.6054,return,0.7334,,88.671875,,,,,,FBP-YG-91.png,0.45,1.2,45,0.5,,,,,,,,,,,,,0,6,6,44,1,,,,,,,,,,,,,,,,,,,,,,,,,,,,
,,,,,WIN24_052,19,female,2024-02-09_14h57.15.336,jersey_experiment_5,2023.2.2,Win32,84.74576271,,,,,,,,,,,,,,,,620.6058,621.8996,621.8996,622.5703,return,0.1456,,96.09375,,,,,,FBP-RB-17.png,0.45,1.2,20,0.5,,,,,,,,,,,,,0,7,7,19,1,,,,,,,,,,,,,,,,,,,,,,,,,,,,
,,,,,WIN24_052,19,female,2024-02-09_14h57.15.336,jersey_experiment_5,2023.2.2,Win32,84.74576271,,,,,,,,,,,,,,,,622.5706,624.3703,624.3703,625.8998,return,0.1796,,74.21875,,,,,,FBP-PT-18.png,0.43,1.2,54,1,,,,,,,,,,,,,0,8,8,53,1,,,,,,,,,,,,,,,,,,,,,,,,,,,,
,,,,,WIN24_052,19,female,2024-02-09_14h57.15.336,jersey_experiment_5,2023.2.2,Win32,84.74576271,,,,,,,,,,,,,,,,625.9001,627.7,627.7,628.888,return,0.1593,,75.26041667,,,,,,FBP-OG-71.png,0.43,1.2,4,1,,,,,,,,,,,,,0,9,9,3,1,,,,,,,,,,,,,,,,,,,,,,,,,,,,
,,,,,WIN24_052,19,female,2024-02-09_14h57.15.336,jersey_experiment_5,2023.2.2,Win32,84.74576271,,,,,,,,,,,,,,,,628.8881,630.6882,630.6883,631.4648,return,0.138,,10.41666667,,,,,,FBP-PT-19.png,0.35,1.2,56,1,,,,,,,,,,,,,0,10,10,55,1,,,,,,,,,,,,,,,,,,,,,,,,,,,,
,,,,,WIN24_052,19,female,2024-02-09_14h57.15.336,jersey_experiment_5,2023.2.2,Win32,84.74576271,,,,,,,,,,,,,,,,631.465,632.7589,632.7589,633.6412,return,0.1114,,31.11979167,,,,,,FBP-RB-18.png,0.37,1.2,22,0.5,,,,,,,,,,,,,0,11,11,21,1,,,,,,,,,,,,,,,,,,,,,,,,,,,,
,,,,,WIN24_052,19,female,2024-02-09_14h57.15.336,jersey_experiment_5,2023.2.2,Win32,84.74576271,,,,,,,,,,,,,,,,633.6414,635.4413,635.4413,636.3942,return,0.4398,,32.29166667,,,,,,FBP-OG-91.png,0.37,1.2,12,1,,,,,,,,,,,,,0,12,12,11,1,,,,,,,,,,,,,,,,,,,,,,,,,,,,
,,,,,WIN24_052,19,female,2024-02-09_14h57.15.336,jersey_experiment_5,2023.2.2,Win32,84.74576271,,,,,,,,,,,,,,,,636.3945,637.6884,637.6884,638.7943,return,0.2984,,83.33333333,,,,,,FBP-RB-19.png,0.45,1.2,30,0.5,,,,,,,,,,,,,0,13,13,29,1,,,,,,,,,,,,,,,,,,,,,,,,,,,,
,,,,,WIN24_052,19,female,2024-02-09_14h57.15.336,jersey_experiment_5,2023.2.2,Win32,84.74576271,,,,,,,,,,,,,,,,638.7946,640.0884,640.0885,641.1119,return,0.2564,,31.640625,,,,,,FBP-RB-19.png,0.37,1.2,27,0.5,,,,,,,,,,,,,0,14,14,26,1,,,,,,,,,,,,,,,,,,,,,,,,,,,,
,,,,,WIN24_052,19,female,2024-02-09_14h57.15.336,jersey_experiment_5,2023.2.2,Win32,84.74576271,,,,,,,,,,,,,,,,641.1122,642.9122,642.9122,643.5357,return,0.1656,,6.640625,,,,,,FBP-OG-71.png,0.35,1.2,1,1,,,,,,,,,,,,,0,15,15,0,1,,,,,,,,,,,,,,,,,,,,,,,,,,,,
,,,,,WIN24_052,19,female,2024-02-09_14h57.15.336,jersey_experiment_5,2023.2.2,Win32,84.74576271,,,,,,,,,,,,,,,,643.536,644.8301,644.8301,646.3475,return,0.1794,,84.765625,,,,,,FBP-RB-18.png,0.45,1.2,25,0.5,,,,,,,,,,,,,0,16,16,24,1,,,,,,,,,,,,,,,,,,,,,,,,,,,,
,,,,,WIN24_052,19,female,2024-02-09_14h57.15.336,jersey_experiment_5,2023.2.2,Win32,84.74576271,,,,,,,,,,,,,,,,646.3478,647.6417,647.6417,649.23,return,0.1092,,63.02083333,,,,,,FBP-YG-71.png,0.4,1.2,33,0.5,,,,,,,,,,,,,0,17,17,32,1,,,,,,,,,,,,,,,,,,,,,,,,,,,,
,,,,,WIN24_052,19,female,2024-02-09_14h57.15.336,jersey_experiment_5,2023.2.2,Win32,84.74576271,,,,,,,,,,,,,,,,649.2302,651.03,651.03,652.0889,return,0.2763,,72.91666667,,,,,,FBP-OG-81.png,0.45,1.2,10,1,,,,,,,,,,,,,0,18,18,9,1,,,,,,,,,,,,,,,,,,,,,,,,,,,,
,,,,,WIN24_052,19,female,2024-02-09_14h57.15.336,jersey_experiment_5,2023.2.2,Win32,84.74576271,,,,,,,,,,,,,,,,652.089,653.383,653.3831,655.1009,return,0.334,,74.609375,,,,,,FBP-RB-18.png,0.43,1.2,24,0.5,,,,,,,,,,,,,0,19,19,23,1,,,,,,,,,,,,,,,,,,,,,,,,,,,,
,,,,,WIN24_052,19,female,2024-02-09_14h57.15.336,jersey_experiment_5,2023.2.2,Win32,84.74576271,,,,,,,,,,,,,,,,655.101,656.9011,656.9011,658.3008,return,0.1691,,66.53645833,,,,,,FBP-OG-81.png,0.4,1.2,8,1,,,,,,,,,,,,,0,20,20,7,1,,,,,,,,,,,,,,,,,,,,,,,,,,,,
,,,,,WIN24_052,19,female,2024-02-09_14h57.15.336,jersey_experiment_5,2023.2.2,Win32,84.74576271,,,,,,,,,,,,,,,,658.3011,659.5949,659.595,662.1717,return,1.2967,,17.44791667,,,,,,FBP-YG-91.png,0.35,1.2,41,0.5,,,,,,,,,,,,,0,21,21,40,1,,,,,,,,,,,,,,,,,,,,,,,,,,,,
,,,,,WIN24_052,19,female,2024-02-09_14h57.15.336,jersey_experiment_5,2023.2.2,Win32,84.74576271,,,,,,,,,,,,,,,,662.1719,663.9717,663.9718,666.5601,return,0.5985,,79.296875,,,,,,FBP-PT-17.png,0.45,1.2,50,1,,,,,,,,,,,,,0,22,22,49,1,,,,,,,,,,,,,,,,,,,,,,,,,,,,
,,,,,WIN24_052,19,female,2024-02-09_14h57.15.336,jersey_experiment_5,2023.2.2,Win32,84.74576271,,,,,,,,,,,,,,,,666.5603,667.8542,667.8543,668.8189,return,0.212,,83.46354167,,,,,,FBP-YG-81.png,0.43,1.2,39,0.5,,,,,,,,,,,,,0,23,23,38,1,,,,,,,,,,,,,,,,,,,,,,,,,,,,
,,,,,WIN24_052,19,female,2024-02-09_14h57.15.336,jersey_experiment_5,2023.2.2,Win32,84.74576271,,,,,,,,,,,,,,,,668.8191,670.113,670.113,671.0192,return,0.1686,,82.68229167,,,,,,FBP-YG-81.png,0.4,1.2,38,0.5,,,,,,,,,,,,,0,24,24,37,1,,,,,,,,,,,,,,,,,,,,,,,,,,,,
,,,,,WIN24_052,19,female,2024-02-09_14h57.15.336,jersey_experiment_5,2023.2.2,Win32,84.74576271,,,,,,,,,,,,,,,,671.0193,672.3132,672.3132,673.278,return,0.2359,,91.14583333,,,,,,FBP-RB-19.png,0.43,1.2,29,0.5,,,,,,,,,,,,,0,25,25,28,1,,,,,,,,,,,,,,,,,,,,,,,,,,,,
,,,,,WIN24_052,19,female,2024-02-09_14h57.15.336,jersey_experiment_5,2023.2.2,Win32,84.74576271,,,,,,,,,,,,,,,,673.2782,675.078,675.078,676.0311,return,0.2735,,98.17708333,,,,,,FBP-PT-19.png,0.45,1.2,60,1,,,,,,,,,,,,,0,26,26,59,1,,,,,,,,,,,,,,,,,,,,,,,,,,,,
,,,,,WIN24_052,19,female,2024-02-09_14h57.15.336,jersey_experiment_5,2023.2.2,Win32,84.74576271,,,,,,,,,,,,,,,,676.0313,677.831,677.831,679.0665,return,0.4185,,9.244791667,,,,,,FBP-PT-19.png,0.37,1.2,57,1,,,,,,,,,,,,,0,27,27,56,1,,,,,,,,,,,,,,,,,,,,,,,,,,,,
,,,,,WIN24_052,19,female,2024-02-09_14h57.15.336,jersey_experiment_5,2023.2.2,Win32,84.74576271,,,,,,,,,,,,,,,,679.0667,680.3606,680.3607,681.2195,return,0.1883,,7.682291667,,,,,,FBP-YG-81.png,0.37,1.2,37,0.5,,,,,,,,,,,,,0,28,28,36,1,,,,,,,,,,,,,,,,,,,,,,,,,,,,
,,,,,WIN24_052,19,female,2024-02-09_14h57.15.336,jersey_experiment_5,2023.2.2,Win32,84.74576271,,,,,,,,,,,,,,,,681.2198,683.0195,683.0195,683.9136,return,0.2402,,7.421875,,,,,,FBP-OG-71.png,0.37,1.2,2,1,,,,,,,,,,,,,0,29,29,1,1,,,,,,,,,,,,,,,,,,,,,,,,,,,,
,,,,,WIN24_052,19,female,2024-02-09_14h57.15.336,jersey_experiment_5,2023.2.2,Win32,84.74576271,,,,,,,,,,,,,,,,683.9139,685.2078,685.2079,685.9844,return,0.2593,,7.291666667,,,,,,FBP-RB-17.png,0.35,1.2,16,0.5,,,,,,,,,,,,,0,30,30,15,1,,,,,,,,,,,,,,,,,,,,,,,,,,,,
,,,,,WIN24_052,19,female,2024-02-09_14h57.15.336,jersey_experiment_5,2023.2.2,Win32,84.74576271,,,,,,,,,,,,,,,,685.9847,687.2787,687.2787,690.3138,return,1.7696,,79.55729167,,,,,,FBP-RB-17.png,0.4,1.2,18,0.5,,,,,,,,,,,,,0,31,31,17,1,,,,,,,,,,,,,,,,,,,,,,,,,,,,
,,,,,WIN24_052,19,female,2024-02-09_14h57.15.336,jersey_experiment_5,2023.2.2,Win32,84.74576271,,,,,,,,,,,,,,,,690.314,692.1139,692.1139,692.9258,return,0.2738,,95.83333333,,,,,,FBP-OG-71.png,0.45,1.2,5,1,,,,,,,,,,,,,0,32,32,4,1,,,,,,,,,,,,,,,,,,,,,,,,,,,,
,,,,,WIN24_052,19,female,2024-02-09_14h57.15.336,jersey_experiment_5,2023.2.2,Win32,84.74576271,,,,,,,,,,,,,,,,692.9261,694.7258,694.7258,696.6553,return,1.2017,,92.1875,,,,,,FBP-OG-91.png,0.45,1.2,15,1,,,,,,,,,,,,,0,33,33,14,1,,,,,,,,,,,,,,,,,,,,,,,,,,,,
,,,,,WIN24_052,19,female,2024-02-09_14h57.15.336,jersey_experiment_5,2023.2.2,Win32,84.74576271,,,,,,,,,,,,,,,,696.6556,698.4554,698.4554,699.4438,return,0.1788,,8.203125,,,,,,FBP-OG-91.png,0.35,1.2,11,1,,,,,,,,,,,,,0,34,34,10,1,,,,,,,,,,,,,,,,,,,,,,,,,,,,
,,,,,WIN24_052,19,female,2024-02-09_14h57.15.336,jersey_experiment_5,2023.2.2,Win32,84.74576271,,,,,,,,,,,,,,,,699.444,701.2436,701.2437,702.2555,return,0.1759,,9.895833333,,,,,,FBP-PT-19.png,0.4,1.2,58,1,,,,,,,,,,,,,0,35,35,57,1,,,,,,,,,,,,,,,,,,,,,,,,,,,,
,,,,,WIN24_052,19,female,2024-02-09_14h57.15.336,jersey_experiment_5,2023.2.2,Win32,84.74576271,,,,,,,,,,,,,,,,702.2557,704.0556,704.0556,707.4557,return,0.1288,,69.53125,,,,,,FBP-PT-17.png,0.43,1.2,49,1,,,,,,,,,,,,,0,36,36,48,1,,,,,,,,,,,,,,,,,,,,,,,,,,,,
,,,,,WIN24_052,19,female,2024-02-09_14h57.15.336,jersey_experiment_5,2023.2.2,Win32,84.74576271,,,,,,,,,,,,,,,,707.4559,709.2558,709.2558,710.2321,return,0.0793,,77.60416667,,,,,,FBP-PT-19.png,0.43,1.2,59,1,,,,,,,,,,,,,0,37,37,58,1,,,,,,,,,,,,,,,,,,,,,,,,,,,,
,,,,,WIN24_052,19,female,2024-02-09_14h57.15.336,jersey_experiment_5,2023.2.2,Win32,84.74576271,,,,,,,,,,,,,,,,710.2322,712.0323,712.0323,713.1382,return,0.5179,,41.796875,,,,,,FBP-PT-17.png,0.37,1.2,47,1,,,,,,,,,,,,,0,38,38,46,1,,,,,,,,,,,,,,,,,,,,,,,,,,,,
,,,,,WIN24_052,19,female,2024-02-09_14h57.15.336,jersey_experiment_5,2023.2.2,Win32,84.74576271,,,,,,,,,,,,,,,,713.1384,714.4324,714.4324,715.2089,return,0.0904,,38.15104167,,,,,,FBP-YG-91.png,0.4,1.2,43,0.5,,,,,,,,,,,,,0,39,39,42,1,,,,,,,,,,,,,,,,,,,,,,,,,,,,
,,,,,WIN24_052,19,female,2024-02-09_14h57.15.336,jersey_experiment_5,2023.2.2,Win32,84.74576271,,,,,,,,,,,,,,,,715.2091,717.009,717.009,717.6796,return,0.1319,,13.15104167,,,,,,FBP-PT-17.png,0.35,1.2,46,1,,,,,,,,,,,,,0,40,40,45,1,,,,,,,,,,,,,,,,,,,,,,,,,,,,
,,,,,WIN24_052,19,female,2024-02-09_14h57.15.336,jersey_experiment_5,2023.2.2,Win32,84.74576271,,,,,,,,,,,,,,,,717.6798,719.4796,719.4797,720.3856,return,0.1176,,82.55208333,,,,,,FBP-PT-18.png,0.45,1.2,55,1,,,,,,,,,,,,,0,41,41,54,1,,,,,,,,,,,,,,,,,,,,,,,,,,,,
,,,,,WIN24_052,19,female,2024-02-09_14h57.15.336,jersey_experiment_5,2023.2.2,Win32,84.74576271,,,,,,,,,,,,,,,,720.3859,721.6798,721.6798,722.3973,return,0.1449,,90.75520833,,,,,,FBP-YG-71.png,0.45,1.2,35,0.5,,,,,,,,,,,,,0,42,42,34,1,,,,,,,,,,,,,,,,,,,,,,,,,,,,
,,,,,WIN24_052,19,female,2024-02-09_14h57.15.336,jersey_experiment_5,2023.2.2,Win32,84.74576271,,,,,,,,,,,,,,,,722.3976,723.6915,723.6915,724.2797,return,0.0426,,90.10416667,,,,,,FBP-RB-17.png,0.43,1.2,19,0.5,,,,,,,,,,,,,0,43,43,18,1,,,,,,,,,,,,,,,,,,,,,,,,,,,,
,,,,,WIN24_052,19,female,2024-02-09_14h57.15.336,jersey_experiment_5,2023.2.2,Win32,84.74576271,,,,,,,,,,,,,,,,724.28,725.5739,725.5739,726.3858,return,0.1174,,99.73958333,,,,,,FBP-YG-81.png,0.45,1.2,40,0.5,,,,,,,,,,,,,0,44,44,39,1,,,,,,,,,,,,,,,,,,,,,,,,,,,,
,,,,,WIN24_052,19,female,2024-02-09_14h57.15.336,jersey_experiment_5,2023.2.2,Win32,84.74576271,,,,,,,,,,,,,,,,726.386,728.1857,728.1858,729.3153,return,0.1413,,54.81770833,,,,,,FBP-OG-81.png,0.37,1.2,7,1,,,,,,,,,,,,,0,45,45,6,1,,,,,,,,,,,,,,,,,,,,,,,,,,,,
,,,,,WIN24_052,19,female,2024-02-09_14h57.15.336,jersey_experiment_5,2023.2.2,Win32,84.74576271,,,,,,,,,,,,,,,,729.3155,731.1154,731.1154,732.6566,return,0.1181,,19.01041667,,,,,,FBP-PT-18.png,0.35,1.2,51,1,,,,,,,,,,,,,0,46,46,50,1,,,,,,,,,,,,,,,,,,,,,,,,,,,,
,,,,,WIN24_052,19,female,2024-02-09_14h57.15.336,jersey_experiment_5,2023.2.2,Win32,84.74576271,,,,,,,,,,,,,,,,732.6568,733.9507,733.9507,735.6804,return,0.5794,,60.28645833,,,,,,FBP-YG-71.png,0.43,1.2,34,0.5,,,,,,,,,,,,,0,47,47,33,1,,,,,,,,,,,,,,,,,,,,,,,,,,,,
,,,,,WIN24_052,19,female,2024-02-09_14h57.15.336,jersey_experiment_5,2023.2.2,Win32,84.74576271,,,,,,,,,,,,,,,,735.6805,736.9744,736.9744,737.9627,return,0.183,,60.28645833,,,,,,FBP-YG-71.png,0.37,1.2,32,0.5,,,,,,,,,,,,,0,48,48,31,1,,,,,,,,,,,,,,,,,,,,,,,,,,,,
,,,,,WIN24_052,19,female,2024-02-09_14h57.15.336,jersey_experiment_5,2023.2.2,Win32,84.74576271,,,,,,,,,,,,,,,,737.9629,739.7626,739.7626,740.3157,return,0.0877,,67.44791667,,,,,,FBP-OG-81.png,0.43,1.2,9,1,,,,,,,,,,,,,0,49,49,8,1,,,,,,,,,,,,,,,,,,,,,,,,,,,,
,,,,,WIN24_052,19,female,2024-02-09_14h57.15.336,jersey_experiment_5,2023.2.2,Win32,84.74576271,,,,,,,,,,,,,,,,740.3159,742.1157,742.1158,742.8451,return,0.1918,,67.31770833,,,,,,FBP-PT-18.png,0.4,1.2,53,1,,,,,,,,,,,,,0,50,50,52,1,,,,,,,,,,,,,,,,,,,,,,,,,,,,
,,,,,WIN24_052,19,female,2024-02-09_14h57.15.336,jersey_experiment_5,2023.2.2,Win32,84.74576271,,,,,,,,,,,,,,,,742.8453,744.1394,744.1395,745.1628,return,0.1355,,36.45833333,,,,,,FBP-RB-17.png,0.37,1.2,17,0.5,,,,,,,,,,,,,0,51,51,16,1,,,,,,,,,,,,,,,,,,,,,,,,,,,,
,,,,,WIN24_052,19,female,2024-02-09_14h57.15.336,jersey_experiment_5,2023.2.2,Win32,84.74576271,,,,,,,,,,,,,,,,745.1631,746.9631,746.9631,747.4689,return,0.1336,,13.28125,,,,,,FBP-PT-18.png,0.37,1.2,52,1,,,,,,,,,,,,,0,52,52,51,1,,,,,,,,,,,,,,,,,,,,,,,,,,,,
,,,,,WIN24_052,19,female,2024-02-09_14h57.15.336,jersey_experiment_5,2023.2.2,Win32,84.74576271,,,,,,,,,,,,,,,,747.4691,748.7631,748.7631,749.8336,return,0.6897,,5.729166667,,,,,,FBP-YG-81.png,0.35,1.2,36,0.5,,,,,,,,,,,,,0,53,53,35,1,,,,,,,,,,,,,,,,,,,,,,,,,,,,
,,,,,WIN24_052,19,female,2024-02-09_14h57.15.336,jersey_experiment_5,2023.2.2,Win32,84.74576271,,,,,,,,,,,,,,,,749.8338,751.6338,751.6338,752.1867,return,0.2181,,5.729166667,,,,,,FBP-OG-81.png,0.35,1.2,6,1,,,,,,,,,,,,,0,54,54,5,1,,,,,,,,,,,,,,,,,,,,,,,,,,,,
,,,,,WIN24_052,19,female,2024-02-09_14h57.15.336,jersey_experiment_5,2023.2.2,Win32,84.74576271,,,,,,,,,,,,,,,,752.1868,753.4808,753.4808,754.9396,return,0.1793,,12.109375,,,,,,FBP-YG-91.png,0.37,1.2,42,0.5,,,,,,,,,,,,,0,55,55,41,1,,,,,,,,,,,,,,,,,,,,,,,,,,,,
,,,,,WIN24_052,19,female,2024-02-09_14h57.15.336,jersey_experiment_5,2023.2.2,Win32,84.74576271,,,,,,,,,,,,,,,,754.9398,756.74,756.7401,759.0104,return,0.9887,,50.26041667,,,,,,FBP-PT-17.png,0.4,1.2,48,1,,,,,,,,,,,,,0,56,56,47,1,,,,,,,,,,,,,,,,,,,,,,,,,,,,
,,,,,WIN24_052,19,female,2024-02-09_14h57.15.336,jersey_experiment_5,2023.2.2,Win32,84.74576271,,,,,,,,,,,,,,,,759.0107,760.8106,760.8106,762.1047,return,0.7822,,63.54166667,,,,,,FBP-OG-91.png,0.4,1.2,13,1,,,,,,,,,,,,,0,57,57,12,1,,,,,,,,,,,,,,,,,,,,,,,,,,,,
,,,,,WIN24_052,19,female,2024-02-09_14h57.15.336,jersey_experiment_5,2023.2.2,Win32,84.74576271,,,,,,,,,,,,,,,,762.105,763.3991,763.3991,764.8343,return,0.1417,,41.53645833,,,,,,FBP-RB-18.png,0.35,1.2,21,0.5,,,,,,,,,,,,,0,58,58,20,1,,,,,,,,,,,,,,,,,,,,,,,,,,,,
,,,,,WIN24_052,19,female,2024-02-09_14h57.15.336,jersey_experiment_5,2023.2.2,Win32,84.74576271,,,,,,,,,,,,,,,,764.8345,766.6342,766.6342,767.5518,return,0.1657,,74.609375,,,,,,FBP-OG-91.png,0.43,1.2,14,1,,,,,,,,,,,,,0,59,59,13,1,,,,,,,,,,,,,,,,,,,,,,,,,,,,
,,,,,WIN24_052,19,female,2024-02-09_14h57.15.336,jersey_experiment_5,2023.2.2,Win32,84.74576271,,,,,,,,,,,,,,,,767.5537,769.352,769.3521,770.7521,return,0.1752,,41.66666667,,,,,,FBP-OG-18.png,0.35,1.2,6,1,,,,,,,,,,,,,,,,,,0,0,0,5,1,,,,,,,,,,,,,,,,,,,,,,,
,,,,,WIN24_052,19,female,2024-02-09_14h57.15.336,jersey_experiment_5,2023.2.2,Win32,84.74576271,,,,,,,,,,,,,,,,770.7526,772.0461,772.0462,772.6344,return,0.1477,,41.66666667,,,,,,FBP-YG-17.png,0.35,1.2,31,0.5,,,,,,,,,,,,,,,,,,0,1,1,30,1,,,,,,,,,,,,,,,,,,,,,,,
,,,,,WIN24_052,19,female,2024-02-09_14h57.15.336,jersey_experiment_5,2023.2.2,Win32,84.74576271,,,,,,,,,,,,,,,,772.6345,774.4346,774.4346,775.0346,return,0.2418,,41.66666667,,,,,,FBP-OG-19.png,0.35,1.2,11,1,,,,,,,,,,,,,,,,,,0,2,2,10,1,,,,,,,,,,,,,,,,,,,,,,,
,,,,,WIN24_052,19,female,2024-02-09_14h57.15.336,jersey_experiment_5,2023.2.2,Win32,84.74576271,,,,,,,,,,,,,,,,775.0347,776.8347,776.8347,778.3643,return,0.2049,,74.21875,,,,,,FBP-PT-91.png,0.4,1.2,58,1,,,,,,,,,,,,,,,,,,0,3,3,57,1,,,,,,,,,,,,,,,,,,,,,,,
,,,,,WIN24_052,19,female,2024-02-09_14h57.15.336,jersey_experiment_5,2023.2.2,Win32,84.74576271,,,,,,,,,,,,,,,,778.3645,780.1641,780.1642,781.6112,return,0.9915,,64.71354167,,,,,,FBP-OG-18.png,0.37,1.2,7,1,,,,,,,,,,,,,,,,,,0,4,4,6,1,,,,,,,,,,,,,,,,,,,,,,,
,,,,,WIN24_052,19,female,2024-02-09_14h57.15.336,jersey_experiment_5,2023.2.2,Win32,84.74576271,,,,,,,,,,,,,,,,781.6116,783.4114,783.4114,784.6703,return,0.3769,,32.29166667,,,,,,FBP-OG-17.png,0.35,1.2,1,1,,,,,,,,,,,,,,,,,,0,5,5,0,1,,,,,,,,,,,,,,,,,,,,,,,
,,,,,WIN24_052,19,female,2024-02-09_14h57.15.336,jersey_experiment_5,2023.2.2,Win32,84.74576271,,,,,,,,,,,,,,,,784.6705,786.4704,786.4704,787.6351,return,0.6501,,91.14583333,,,,,,FBP-OG-18.png,0.43,1.2,9,1,,,,,,,,,,,,,,,,,,0,6,6,8,1,,,,,,,,,,,,,,,,,,,,,,,
,,,,,WIN24_052,19,female,2024-02-09_14h57.15.336,jersey_experiment_5,2023.2.2,Win32,84.74576271,,,,,,,,,,,,,,,,787.6353,788.9293,788.9293,789.6351,return,0.2731,,90.88541667,,,,,,FBP-RB-91.png,0.45,1.2,30,0.5,,,,,,,,,,,,,,,,,,0,7,7,29,1,,,,,,,,,,,,,,,,,,,,,,,
,,,,,WIN24_052,19,female,2024-02-09_14h57.15.336,jersey_experiment_5,2023.2.2,Win32,84.74576271,,,,,,,,,,,,,,,,789.6355,791.4353,791.4354,792.6706,return,0.3298,,73.046875,,,,,,FBP-OG-19.png,0.4,1.2,13,1,,,,,,,,,,,,,,,,,,0,8,8,12,1,,,,,,,,,,,,,,,,,,,,,,,
,,,,,WIN24_052,19,female,2024-02-09_14h57.15.336,jersey_experiment_5,2023.2.2,Win32,84.74576271,,,,,,,,,,,,,,,,792.6708,794.4706,794.4706,795.9178,return,0.1094,,43.61979167,,,,,,FBP-PT-71.png,0.37,1.2,47,1,,,,,,,,,,,,,,,,,,0,9,9,46,1,,,,,,,,,,,,,,,,,,,,,,,
,,,,,WIN24_052,19,female,2024-02-09_14h57.15.336,jersey_experiment_5,2023.2.2,Win32,84.74576271,,,,,,,,,,,,,,,,795.918,797.212,797.212,798.5297,return,0.494,,82.55208333,,,,,,FBP-YG-18.png,0.45,1.2,40,0.5,,,,,,,,,,,,,,,,,,0,10,10,39,1,,,,,,,,,,,,,,,,,,,,,,,
,,,,,WIN24_052,19,female,2024-02-09_14h57.15.336,jersey_experiment_5,2023.2.2,Win32,84.74576271,,,,,,,,,,,,,,,,798.5299,799.8238,799.8238,801.6002,return,0.6593,,14.453125,,,,,,FBP-RB-91.png,0.35,1.2,26,0.5,,,,,,,,,,,,,,,,,,0,11,11,25,1,,,,,,,,,,,,,,,,,,,,,,,
,,,,,WIN24_052,19,female,2024-02-09_14h57.15.336,jersey_experiment_5,2023.2.2,Win32,84.74576271,,,,,,,,,,,,,,,,801.6005,802.8944,802.8944,804.1534,return,0.396,,60.15625,,,,,,FBP-YG-19.png,0.45,1.2,45,0.5,,,,,,,,,,,,,,,,,,0,12,12,44,1,,,,,,,,,,,,,,,,,,,,,,,
,,,,,WIN24_052,19,female,2024-02-09_14h57.15.336,jersey_experiment_5,2023.2.2,Win32,84.74576271,,,,,,,,,,,,,,,,804.1536,805.4475,805.4475,806.7299,return,0.2987,,34.765625,,,,,,FBP-YG-17.png,0.37,1.2,32,0.5,,,,,,,,,,,,,,,,,,0,13,13,31,1,,,,,,,,,,,,,,,,,,,,,,,
,,,,,WIN24_052,19,female,2024-02-09_14h57.15.336,jersey_experiment_5,2023.2.2,Win32,84.74576271,,,,,,,,,,,,,,,,806.73,808.024,808.024,810.083,return,0.1884,,34.765625,,,,,,FBP-RB-81.png,0.37,1.2,22,0.5,,,,,,,,,,,,,,,,,,0,14,14,21,1,,,,,,,,,,,,,,,,,,,,,,,
,,,,,WIN24_052,19,female,2024-02-09_14h57.15.336,jersey_experiment_5,2023.2.2,Win32,84.74576271,,,,,,,,,,,,,,,,810.0832,811.8831,811.8831,815.5185,return,0.6263,,82.55208333,,,,,,FBP-OG-19.png,0.43,1.2,14,1,,,,,,,,,,,,,,,,,,0,15,15,13,1,,,,,,,,,,,,,,,,,,,,,,,
,,,,,WIN24_052,19,female,2024-02-09_14h57.15.336,jersey_experiment_5,2023.2.2,Win32,84.74576271,,,,,,,,,,,,,,,,815.5187,816.8126,816.8126,819.3891,return,0.6859,,68.75,,,,,,FBP-YG-18.png,0.37,1.2,37,0.5,,,,,,,,,,,,,,,,,,0,16,16,36,1,,,,,,,,,,,,,,,,,,,,,,,
,,,,,WIN24_052,19,female,2024-02-09_14h57.15.336,jersey_experiment_5,2023.2.2,Win32,84.74576271,,,,,,,,,,,,,,,,819.3894,820.6832,820.6832,822.7658,return,1.1302,,62.890625,,,,,,FBP-RB-71.png,0.35,1.2,16,0.5,,,,,,,,,,,,,,,,,,0,17,17,15,1,,,,,,,,,,,,,,,,,,,,,,,
,,,,,WIN24_052,19,female,2024-02-09_14h57.15.336,jersey_experiment_5,2023.2.2,Win32,84.74576271,,,,,,,,,,,,,,,,822.766,824.5658,824.5658,825.5776,return,0.0882,,44.53125,,,,,,FBP-PT-81.png,0.35,1.2,51,1,,,,,,,,,,,,,,,,,,0,18,18,50,1,,,,,,,,,,,,,,,,,,,,,,,
,,,,,WIN24_052,19,female,2024-02-09_14h57.15.336,jersey_experiment_5,2023.2.2,Win32,84.74576271,,,,,,,,,,,,,,,,825.5778,827.3778,827.3778,828.1307,return,0.3202,,63.41145833,,,,,,FBP-OG-18.png,0.4,1.2,8,1,,,,,,,,,,,,,,,,,,0,19,19,7,1,,,,,,,,,,,,,,,,,,,,,,,
,,,,,WIN24_052,19,female,2024-02-09_14h57.15.336,jersey_experiment_5,2023.2.2,Win32,84.74576271,,,,,,,,,,,,,,,,828.1309,829.9306,829.9306,831.2601,return,0.5577,,42.578125,,,,,,FBP-OG-17.png,0.37,1.2,2,1,,,,,,,,,,,,,,,,,,0,20,20,1,1,,,,,,,,,,,,,,,,,,,,,,,
,,,,,WIN24_052,19,female,2024-02-09_14h57.15.336,jersey_experiment_5,2023.2.2,Win32,84.74576271,,,,,,,,,,,,,,,,831.2603,833.0603,833.0603,833.6957,return,0.1424,,60.02604167,,,,,,FBP-PT-81.png,0.4,1.2,53,1,,,,,,,,,,,,,,,,,,0,21,21,52,1,,,,,,,,,,,,,,,,,,,,,,,
,,,,,WIN24_052,19,female,2024-02-09_14h57.15.336,jersey_experiment_5,2023.2.2,Win32,84.74576271,,,,,,,,,,,,,,,,833.6959,835.4956,835.4956,836.0604,return,0.19,,59.765625,,,,,,FBP-PT-91.png,0.37,1.2,57,1,,,,,,,,,,,,,,,,,,0,22,22,56,1,,,,,,,,,,,,,,,,,,,,,,,
,,,,,WIN24_052,19,female,2024-02-09_14h57.15.336,jersey_experiment_5,2023.2.2,Win32,84.74576271,,,,,,,,,,,,,,,,836.0606,837.3545,837.3545,838.8605,return,0.7081,,75.13020833,,,,,,FBP-YG-18.png,0.43,1.2,39,0.5,,,,,,,,,,,,,,,,,,0,23,23,38,1,,,,,,,,,,,,,,,,,,,,,,,
,,,,,WIN24_052,19,female,2024-02-09_14h57.15.336,jersey_experiment_5,2023.2.2,Win32,84.74576271,,,,,,,,,,,,,,,,838.8608,840.6605,840.6605,841.5311,return,0.1705,,96.74479167,,,,,,FBP-PT-91.png,0.45,1.2,60,1,,,,,,,,,,,,,,,,,,0,24,24,59,1,,,,,,,,,,,,,,,,,,,,,,,
,,,,,WIN24_052,19,female,2024-02-09_14h57.15.336,jersey_experiment_5,2023.2.2,Win32,84.74576271,,,,,,,,,,,,,,,,841.5313,842.8253,842.8254,843.437,return,0.2023,,96.61458333,,,,,,FBP-YG-19.png,0.43,1.2,44,0.5,,,,,,,,,,,,,,,,,,0,25,25,43,1,,,,,,,,,,,,,,,,,,,,,,,
,,,,,WIN24_052,19,female,2024-02-09_14h57.15.336,jersey_experiment_5,2023.2.2,Win32,84.74576271,,,,,,,,,,,,,,,,843.4373,845.2371,845.2372,846.0607,return,0.1572,,87.23958333,,,,,,FBP-PT-71.png,0.4,1.2,48,1,,,,,,,,,,,,,,,,,,0,26,26,47,1,,,,,,,,,,,,,,,,,,,,,,,
,,,,,WIN24_052,19,female,2024-02-09_14h57.15.336,jersey_experiment_5,2023.2.2,Win32,84.74576271,,,,,,,,,,,,,,,,846.061,847.3549,847.3549,848.6373,return,0.2011,,84.11458333,,,,,,FBP-YG-18.png,0.4,1.2,38,0.5,,,,,,,,,,,,,,,,,,0,27,27,37,1,,,,,,,,,,,,,,,,,,,,,,,
,,,,,WIN24_052,19,female,2024-02-09_14h57.15.336,jersey_experiment_5,2023.2.2,Win32,84.74576271,,,,,,,,,,,,,,,,848.6374,849.9315,849.9315,851.4844,return,0.1692,,39.19270833,,,,,,FBP-YG-18.png,0.35,1.2,36,0.5,,,,,,,,,,,,,,,,,,0,28,28,35,1,,,,,,,,,,,,,,,,,,,,,,,
,,,,,WIN24_052,19,female,2024-02-09_14h57.15.336,jersey_experiment_5,2023.2.2,Win32,84.74576271,,,,,,,,,,,,,,,,851.4846,852.7785,852.7786,853.6727,return,0.1732,,31.51041667,,,,,,FBP-YG-17.png,0.4,1.2,33,0.5,,,,,,,,,,,,,,,,,,0,29,29,32,1,,,,,,,,,,,,,,,,,,,,,,,
,,,,,WIN24_052,19,female,2024-02-09_14h57.15.336,jersey_experiment_5,2023.2.2,Win32,84.74576271,,,,,,,,,,,,,,,,853.673,854.967,854.967,855.6611,return,0.2039,,31.51041667,,,,,,FBP-RB-91.png,0.37,1.2,27,0.5,,,,,,,,,,,,,,,,,,0,30,30,26,1,,,,,,,,,,,,,,,,,,,,,,,
,,,,,WIN24_052,19,female,2024-02-09_14h57.15.336,jersey_experiment_5,2023.2.2,Win32,84.74576271,,,,,,,,,,,,,,,,855.6613,856.9552,856.9552,858.2847,return,0.2489,,31.640625,,,,,,FBP-RB-91.png,0.4,1.2,28,0.5,,,,,,,,,,,,,,,,,,0,31,31,27,1,,,,,,,,,,,,,,,,,,,,,,,
,,,,,WIN24_052,19,female,2024-02-09_14h57.15.336,jersey_experiment_5,2023.2.2,Win32,84.74576271,,,,,,,,,,,,,,,,858.2849,860.0849,860.085,860.6495,return,0.1226,,12.5,,,,,,FBP-PT-91.png,0.35,1.2,56,1,,,,,,,,,,,,,,,,,,0,32,32,55,1,,,,,,,,,,,,,,,,,,,,,,,
,,,,,WIN24_052,19,female,2024-02-09_14h57.15.336,jersey_experiment_5,2023.2.2,Win32,84.74576271,,,,,,,,,,,,,,,,860.6498,861.9436,861.9437,862.9791,return,0.0702,,63.28125,,,,,,FBP-RB-81.png,0.4,1.2,23,0.5,,,,,,,,,,,,,,,,,,0,33,33,22,1,,,,,,,,,,,,,,,,,,,,,,,
,,,,,WIN24_052,19,female,2024-02-09_14h57.15.336,jersey_experiment_5,2023.2.2,Win32,84.74576271,,,,,,,,,,,,,,,,862.9792,864.7789,864.7789,865.4497,return,0.1603,,63.28125,,,,,,FBP-OG-17.png,0.4,1.2,3,1,,,,,,,,,,,,,,,,,,0,34,34,2,1,,,,,,,,,,,,,,,,,,,,,,,
,,,,,WIN24_052,19,female,2024-02-09_14h57.15.336,jersey_experiment_5,2023.2.2,Win32,84.74576271,,,,,,,,,,,,,,,,865.45,866.7438,866.7438,867.6146,return,0.2026,,76.43229167,,,,,,FBP-YG-17.png,0.43,1.2,34,0.5,,,,,,,,,,,,,,,,,,0,35,35,33,1,,,,,,,,,,,,,,,,,,,,,,,
,,,,,WIN24_052,19,female,2024-02-09_14h57.15.336,jersey_experiment_5,2023.2.2,Win32,84.74576271,,,,,,,,,,,,,,,,867.6148,869.4145,869.4145,869.9322,return,0.1226,,92.96875,,,,,,FBP-PT-81.png,0.45,1.2,55,1,,,,,,,,,,,,,,,,,,0,36,36,54,1,,,,,,,,,,,,,,,,,,,,,,,
,,,,,WIN24_052,19,female,2024-02-09_14h57.15.336,jersey_experiment_5,2023.2.2,Win32,84.74576271,,,,,,,,,,,,,,,,869.9324,871.2263,871.2263,872.1558,return,0.2051,,81.38020833,,,,,,FBP-YG-19.png,0.4,1.2,43,0.5,,,,,,,,,,,,,,,,,,0,37,37,42,1,,,,,,,,,,,,,,,,,,,,,,,
,,,,,WIN24_052,19,female,2024-02-09_14h57.15.336,jersey_experiment_5,2023.2.2,Win32,84.74576271,,,,,,,,,,,,,,,,872.1561,873.956,873.956,875.2499,return,0.2212,,38.15104167,,,,,,FBP-PT-71.png,0.35,1.2,46,1,,,,,,,,,,,,,,,,,,0,38,38,45,1,,,,,,,,,,,,,,,,,,,,,,,
,,,,,WIN24_052,19,female,2024-02-09_14h57.15.336,jersey_experiment_5,2023.2.2,Win32,84.74576271,,,,,,,,,,,,,,,,875.2501,876.544,876.544,877.5324,return,0.2019,,80.46875,,,,,,FBP-YG-17.png,0.45,1.2,35,0.5,,,,,,,,,,,,,,,,,,0,39,39,34,1,,,,,,,,,,,,,,,,,,,,,,,
,,,,,WIN24_052,19,female,2024-02-09_14h57.15.336,jersey_experiment_5,2023.2.2,Win32,84.74576271,,,,,,,,,,,,,,,,877.5327,878.8265,878.8265,879.6501,return,0.1745,,42.70833333,,,,,,FBP-YG-19.png,0.37,1.2,42,0.5,,,,,,,,,,,,,,,,,,0,40,40,41,1,,,,,,,,,,,,,,,,,,,,,,,
,,,,,WIN24_052,19,female,2024-02-09_14h57.15.336,jersey_experiment_5,2023.2.2,Win32,84.74576271,,,,,,,,,,,,,,,,879.6503,880.9443,880.9444,881.7208,return,0.1115,,83.07291667,,,,,,FBP-RB-81.png,0.43,1.2,24,0.5,,,,,,,,,,,,,,,,,,0,41,41,23,1,,,,,,,,,,,,,,,,,,,,,,,
,,,,,WIN24_052,19,female,2024-02-09_14h57.15.336,jersey_experiment_5,2023.2.2,Win32,84.74576271,,,,,,,,,,,,,,,,881.721,883.015,883.015,884.3445,return,0.1237,,88.41145833,,,,,,FBP-RB-81.png,0.45,1.2,25,0.5,,,,,,,,,,,,,,,,,,0,42,42,24,1,,,,,,,,,,,,,,,,,,,,,,,
,,,,,WIN24_052,19,female,2024-02-09_14h57.15.336,jersey_experiment_5,2023.2.2,Win32,84.74576271,,,,,,,,,,,,,,,,884.3447,886.1446,886.1446,886.6857,return,0.1538,,96.61458333,,,,,,FBP-OG-19.png,0.45,1.2,15,1,,,,,,,,,,,,,,,,,,0,43,43,14,1,,,,,,,,,,,,,,,,,,,,,,,
,,,,,WIN24_052,19,female,2024-02-09_14h57.15.336,jersey_experiment_5,2023.2.2,Win32,84.74576271,,,,,,,,,,,,,,,,886.6858,888.486,888.486,889.1917,return,0.1387,,96.484375,,,,,,FBP-OG-18.png,0.45,1.2,10,1,,,,,,,,,,,,,,,,,,0,44,44,9,1,,,,,,,,,,,,,,,,,,,,,,,
,,,,,WIN24_052,19,female,2024-02-09_14h57.15.336,jersey_experiment_5,2023.2.2,Win32,84.74576271,,,,,,,,,,,,,,,,889.192,890.9917,890.9917,892.1447,return,0.2354,,88.80208333,,,,,,FBP-PT-71.png,0.43,1.2,49,1,,,,,,,,,,,,,,,,,,0,45,45,48,1,,,,,,,,,,,,,,,,,,,,,,,
,,,,,WIN24_052,19,female,2024-02-09_14h57.15.336,jersey_experiment_5,2023.2.2,Win32,84.74576271,,,,,,,,,,,,,,,,892.1449,893.4389,893.4389,894.2978,return,0.16,,88.80208333,,,,,,FBP-RB-71.png,0.4,1.2,18,0.5,,,,,,,,,,,,,,,,,,0,46,46,17,1,,,,,,,,,,,,,,,,,,,,,,,
,,,,,WIN24_052,19,female,2024-02-09_14h57.15.336,jersey_experiment_5,2023.2.2,Win32,84.74576271,,,,,,,,,,,,,,,,894.298,896.0978,896.0978,896.7331,return,0.1781,,88.80208333,,,,,,FBP-OG-17.png,0.43,1.2,4,1,,,,,,,,,,,,,,,,,,0,47,47,3,1,,,,,,,,,,,,,,,,,,,,,,,
,,,,,WIN24_052,19,female,2024-02-09_14h57.15.336,jersey_experiment_5,2023.2.2,Win32,84.74576271,,,,,,,,,,,,,,,,896.7333,898.0272,898.0272,900.345,return,1.0783,,13.28125,,,,,,FBP-RB-71.png,0.37,1.2,17,0.5,,,,,,,,,,,,,,,,,,0,48,48,16,1,,,,,,,,,,,,,,,,,,,,,,,
,,,,,WIN24_052,19,female,2024-02-09_14h57.15.336,jersey_experiment_5,2023.2.2,Win32,84.74576271,,,,,,,,,,,,,,,,900.3452,902.1452,902.1452,902.9452,return,0.0799,,86.97916667,,,,,,FBP-OG-17.png,0.45,1.2,5,1,,,,,,,,,,,,,,,,,,0,49,49,4,1,,,,,,,,,,,,,,,,,,,,,,,
,,,,,WIN24_052,19,female,2024-02-09_14h57.15.336,jersey_experiment_5,2023.2.2,Win32,84.74576271,,,,,,,,,,,,,,,,902.9454,904.2392,904.2392,904.8981,return,0.1178,,86.328125,,,,,,FBP-RB-71.png,0.45,1.2,20,0.5,,,,,,,,,,,,,,,,,,0,50,50,19,1,,,,,,,,,,,,,,,,,,,,,,,
,,,,,WIN24_052,19,female,2024-02-09_14h57.15.336,jersey_experiment_5,2023.2.2,Win32,84.74576271,,,,,,,,,,,,,,,,904.8983,906.6985,906.6985,908.2865,return,0.9058,,17.70833333,,,,,,FBP-OG-19.png,0.37,1.2,12,1,,,,,,,,,,,,,,,,,,0,51,51,11,1,,,,,,,,,,,,,,,,,,,,,,,
,,,,,WIN24_052,19,female,2024-02-09_14h57.15.336,jersey_experiment_5,2023.2.2,Win32,84.74576271,,,,,,,,,,,,,,,,908.2867,910.0866,910.0866,911.3102,return,0.5561,,31.38020833,,,,,,FBP-PT-81.png,0.37,1.2,52,1,,,,,,,,,,,,,,,,,,0,52,52,51,1,,,,,,,,,,,,,,,,,,,,,,,
,,,,,WIN24_052,19,female,2024-02-09_14h57.15.336,jersey_experiment_5,2023.2.2,Win32,84.74576271,,,,,,,,,,,,,,,,911.3104,913.1101,913.1101,914.5926,return,0.1044,,62.76041667,,,,,,FBP-PT-81.png,0.43,1.2,54,1,,,,,,,,,,,,,,,,,,0,53,53,53,1,,,,,,,,,,,,,,,,,,,,,,,
,,,,,WIN24_052,19,female,2024-02-09_14h57.15.336,jersey_experiment_5,2023.2.2,Win32,84.74576271,,,,,,,,,,,,,,,,914.5928,916.3927,916.3928,918.1692,return,1.2168,,67.44791667,,,,,,FBP-PT-91.png,0.43,1.2,59,1,,,,,,,,,,,,,,,,,,0,54,54,58,1,,,,,,,,,,,,,,,,,,,,,,,
,,,,,WIN24_052,19,female,2024-02-09_14h57.15.336,jersey_experiment_5,2023.2.2,Win32,84.74576271,,,,,,,,,,,,,,,,918.1695,919.4633,919.4633,920.334,return,0.1768,,35.41666667,,,,,,FBP-YG-19.png,0.35,1.2,41,0.5,,,,,,,,,,,,,,,,,,0,55,55,40,1,,,,,,,,,,,,,,,,,,,,,,,
,,,,,WIN24_052,19,female,2024-02-09_14h57.15.336,jersey_experiment_5,2023.2.2,Win32,84.74576271,,,,,,,,,,,,,,,,920.3342,921.6281,921.6281,923.5222,return,0.391,,90.625,,,,,,FBP-RB-91.png,0.43,1.2,29,0.5,,,,,,,,,,,,,,,,,,0,56,56,28,1,,,,,,,,,,,,,,,,,,,,,,,
,,,,,WIN24_052,19,female,2024-02-09_14h57.15.336,jersey_experiment_5,2023.2.2,Win32,84.74576271,,,,,,,,,,,,,,,,923.5225,925.3223,925.3224,926.1223,return,0.2651,,91.53645833,,,,,,FBP-PT-71.png,0.45,1.2,50,1,,,,,,,,,,,,,,,,,,0,57,57,49,1,,,,,,,,,,,,,,,,,,,,,,,
,,,,,WIN24_052,19,female,2024-02-09_14h57.15.336,jersey_experiment_5,2023.2.2,Win32,84.74576271,,,,,,,,,,,,,,,,926.1225,927.4166,927.4166,928.146,return,0.1506,,90.36458333,,,,,,FBP-RB-71.png,0.43,1.2,19,0.5,,,,,,,,,,,,,,,,,,0,58,58,18,1,,,,,,,,,,,,,,,,,,,,,,,
,,,,,WIN24_052,19,female,2024-02-09_14h57.15.336,jersey_experiment_5,2023.2.2,Win32,84.74576271,,,,,,,,,,,,,,,,928.1462,929.4404,929.4404,931.2754,return,0.9556,,19.53125,,,,,,FBP-RB-81.png,0.35,1.2,21,0.5,,,,,,,,,,,,,,,,,,0,59,59,20,1,,,,,,,,,,,,,,,,,,,,,,,
,,,,,WIN24_052,19,female,2024-02-09_14h57.15.336,jersey_experiment_5,2023.2.2,Win32,84.74576271,,,,,,,,,,,,,,,,,,,,,,,,,,,,,,,,,,,,,,,,,,,,,,,,,,,,,,,,931.2758,937.4644,return,6.1828,,,,,,,,,,,,,,,,,,,
,,,,,WIN24_052,19,female,2024-02-09_14h57.15.336,jersey_experiment_5,2023.2.2,Win32,84.74576271,,,,,,,,,,,,,,,,,,,,,,,,,,,,,,,,,,,,,,,,,,,,,,,,,,,,,,,,,,,,,937.4645,943.9232,1,4.2191,return,2.225,,,,,,,,,,,,
,,,,,WIN24_052,19,female,2024-02-09_14h57.15.336,jersey_experiment_5,2023.2.2,Win32,84.74576271,,,,,,,,,,,,,,,,,,,,,,,,,,,,,,,,,,,,,,,,,,,,,,,,,,,,,,,,,,,,,,,,,,,,943.9234,996.8357,I am unsure of what the study is about. I did notice there was a pattern if sizes and colors of the football players.,right,41.4943,,,,,,
,,,,,WIN24_052,19,female,2024-02-09_14h57.15.336,jersey_experiment_5,2023.2.2,Win32,84.74576271,,,,,,,,,,,,,,,,,,,,,,,,,,,,,,,,,,,,,,,,,,,,,,,,,,,,,,,,,,,,,,,,,,,,,,,,,,996.8358,1001.0667,return,4.2237,