requirements.started,requirements.stopped,key_resp_3.keys,key_resp_3.rt,key_resp_3.duration,Subject ID,Age,Gender,date,expName,psychopyVersion,OS,frameRate,instructions1.started,instructions1.stopped,key_resp.keys,key_resp.rt,key_resp.duration,example.started,example.stopped,enter_2.keys,enter_2.rt,enter_2.duration,instructions2.started,instructions2.stopped,enter_3.keys,enter_3.rt,enter_3.duration,image.started,image.stopped,slider_2.started,slider_2.stopped,next.keys,next.rt,next.duration,slider.response,trial_block_1.thisRepN,trial_block_1.thisTrialN,trial_block_1.thisN,trial_block_1.thisIndex,trial_block_1.ran,Path,Width,Height,Index,Duration,trial_block_2.thisRepN,trial_block_2.thisTrialN,trial_block_2.thisN,trial_block_2.thisIndex,trial_block_2.ran,rest_break.started,rest_break.stopped,end_break.started,end_break.stopped,key_resp_5.keys,key_resp_5.rt,key_resp_5.duration,trial_block_3.thisRepN,trial_block_3.thisTrialN,trial_block_3.thisN,trial_block_3.thisIndex,trial_block_3.ran,trial_block_4.thisRepN,trial_block_4.thisTrialN,trial_block_4.thisN,trial_block_4.thisIndex,trial_block_4.ran,questions_intro.started,questions_intro.stopped,enter_12.keys,enter_12.rt,enter_12.duration,question2.started,question2.stopped,question_doingbest.response,question_doingbest.rt,enter_15.keys,enter_15.rt,enter_15.duration,pattern.started,pattern.stopped,pattern_2.text,enter_17.keys,enter_17.rt,enter_17.duration,thankyou.started,thankyou.stopped,enter_14.keys,enter_14.rt,enter_14.duration
0.0002,12.2018,return,12.1968,,WIN24_003,20,female,2024-01-25_12h32.22.210,jersey_experiment_5,2023.2.2,Win32,85.47008547,,,,,,,,,,,,,,,,,,,,,,,,,,,,,,,,,,,,,,,,,,,,,,,,,,,,,,,,,,,,,,,,,,,,,,,,,,,,,,
,,,,,WIN24_003,20,female,2024-01-25_12h32.22.210,jersey_experiment_5,2023.2.2,Win32,85.47008547,12.2019,22.1585,return,9.9409,,,,,,,,,,,,,,,,,,,,,,,,,,,,,,,,,,,,,,,,,,,,,,,,,,,,,,,,,,,,,,,,,,,,,,,,,,
,,,,,WIN24_003,20,female,2024-01-25_12h32.22.210,jersey_experiment_5,2023.2.2,Win32,85.47008547,,,,,,22.1586,28.041,return,5.8465,,,,,,,,,,,,,,,,,,,,,,,,,,,,,,,,,,,,,,,,,,,,,,,,,,,,,,,,,,,,,,,,,,,,,
,,,,,WIN24_003,20,female,2024-01-25_12h32.22.210,jersey_experiment_5,2023.2.2,Win32,85.47008547,,,,,,,,,,,28.0412,62.6069,return,34.5467,,,,,,,,,,,,,,,,,,,,,,,,,,,,,,,,,,,,,,,,,,,,,,,,,,,,,,,,,,,,,,,,
,,,,,WIN24_003,20,female,2024-01-25_12h32.22.210,jersey_experiment_5,2023.2.2,Win32,85.47008547,,,,,,,,,,,,,,,,62.6141,64.4069,64.4069,73.5484,return,1.5679,,49.609375,0,0,0,41,1,FBP-YG-91.png,0.37,1.2,42,1,,,,,,,,,,,,,,,,,,,,,,,,,,,,,,,,,,,,,,,,,,,,,
,,,,,WIN24_003,20,female,2024-01-25_12h32.22.210,jersey_experiment_5,2023.2.2,Win32,85.47008547,,,,,,,,,,,,,,,,73.5487,75.3481,75.3482,77.9484,return,1.0032,,74.34895833,0,1,1,42,1,FBP-YG-91.png,0.4,1.2,43,1,,,,,,,,,,,,,,,,,,,,,,,,,,,,,,,,,,,,,,,,,,,,,
,,,,,WIN24_003,20,female,2024-01-25_12h32.22.210,jersey_experiment_5,2023.2.2,Win32,85.47008547,,,,,,,,,,,,,,,,77.9486,79.7483,79.7483,83.2897,return,1.1707,,78.77604167,0,2,2,24,1,FBP-RB-18.png,0.45,1.2,25,1,,,,,,,,,,,,,,,,,,,,,,,,,,,,,,,,,,,,,,,,,,,,,
,,,,,WIN24_003,20,female,2024-01-25_12h32.22.210,jersey_experiment_5,2023.2.2,Win32,85.47008547,,,,,,,,,,,,,,,,83.29,84.5838,84.5839,87.8309,return,0.9382,,47.265625,0,3,3,46,1,FBP-PT-17.png,0.37,1.2,47,0.5,,,,,,,,,,,,,,,,,,,,,,,,,,,,,,,,,,,,,,,,,,,,,
,,,,,WIN24_003,20,female,2024-01-25_12h32.22.210,jersey_experiment_5,2023.2.2,Win32,85.47008547,,,,,,,,,,,,,,,,87.8312,89.631,89.631,93.1136,return,1.0883,,80.078125,0,4,4,44,1,FBP-YG-91.png,0.45,1.2,45,1,,,,,,,,,,,,,,,,,,,,,,,,,,,,,,,,,,,,,,,,,,,,,
,,,,,WIN24_003,20,female,2024-01-25_12h32.22.210,jersey_experiment_5,2023.2.2,Win32,85.47008547,,,,,,,,,,,,,,,,93.1137,94.4076,94.4076,97.1961,return,0.6982,,81.25,0,5,5,9,1,FBP-OG-81.png,0.45,1.2,10,0.5,,,,,,,,,,,,,,,,,,,,,,,,,,,,,,,,,,,,,,,,,,,,,
,,,,,WIN24_003,20,female,2024-01-25_12h32.22.210,jersey_experiment_5,2023.2.2,Win32,85.47008547,,,,,,,,,,,,,,,,97.1964,98.9959,98.9959,102.4786,return,0.8479,,73.69791667,0,6,6,28,1,FBP-RB-19.png,0.43,1.2,29,1,,,,,,,,,,,,,,,,,,,,,,,,,,,,,,,,,,,,,,,,,,,,,
,,,,,WIN24_003,20,female,2024-01-25_12h32.22.210,jersey_experiment_5,2023.2.2,Win32,85.47008547,,,,,,,,,,,,,,,,102.4788,103.7727,103.7727,107.2904,return,0.676,,53.38541667,0,7,7,12,1,FBP-OG-91.png,0.4,1.2,13,0.5,,,,,,,,,,,,,,,,,,,,,,,,,,,,,,,,,,,,,,,,,,,,,
,,,,,WIN24_003,20,female,2024-01-25_12h32.22.210,jersey_experiment_5,2023.2.2,Win32,85.47008547,,,,,,,,,,,,,,,,107.2907,108.5847,108.5847,111.8671,return,0.6975,,32.03125,0,8,8,10,1,FBP-OG-91.png,0.35,1.2,11,0.5,,,,,,,,,,,,,,,,,,,,,,,,,,,,,,,,,,,,,,,,,,,,,
,,,,,WIN24_003,20,female,2024-01-25_12h32.22.210,jersey_experiment_5,2023.2.2,Win32,85.47008547,,,,,,,,,,,,,,,,111.8673,113.1612,113.1612,115.6319,return,0.5749,,72.52604167,0,9,9,59,1,FBP-PT-19.png,0.45,1.2,60,0.5,,,,,,,,,,,,,,,,,,,,,,,,,,,,,,,,,,,,,,,,,,,,,
,,,,,WIN24_003,20,female,2024-01-25_12h32.22.210,jersey_experiment_5,2023.2.2,Win32,85.47008547,,,,,,,,,,,,,,,,115.6321,117.432,117.4321,119.8673,return,0.6021,,76.43229167,0,10,10,37,1,FBP-YG-81.png,0.4,1.2,38,1,,,,,,,,,,,,,,,,,,,,,,,,,,,,,,,,,,,,,,,,,,,,,
,,,,,WIN24_003,20,female,2024-01-25_12h32.22.210,jersey_experiment_5,2023.2.2,Win32,85.47008547,,,,,,,,,,,,,,,,119.8676,121.6674,121.6674,123.6086,return,0.5953,,68.359375,0,11,11,36,1,FBP-YG-81.png,0.37,1.2,37,1,,,,,,,,,,,,,,,,,,,,,,,,,,,,,,,,,,,,,,,,,,,,,
,,,,,WIN24_003,20,female,2024-01-25_12h32.22.210,jersey_experiment_5,2023.2.2,Win32,85.47008547,,,,,,,,,,,,,,,,123.6089,124.9028,124.9028,126.7147,return,0.6267,,52.08333333,0,12,12,56,1,FBP-PT-19.png,0.37,1.2,57,0.5,,,,,,,,,,,,,,,,,,,,,,,,,,,,,,,,,,,,,,,,,,,,,
,,,,,WIN24_003,20,female,2024-01-25_12h32.22.210,jersey_experiment_5,2023.2.2,Win32,85.47008547,,,,,,,,,,,,,,,,126.7149,128.0087,128.0087,129.9971,return,0.589,,78.90625,0,13,13,49,1,FBP-PT-17.png,0.45,1.2,50,0.5,,,,,,,,,,,,,,,,,,,,,,,,,,,,,,,,,,,,,,,,,,,,,
,,,,,WIN24_003,20,female,2024-01-25_12h32.22.210,jersey_experiment_5,2023.2.2,Win32,85.47008547,,,,,,,,,,,,,,,,129.9973,131.7972,131.7972,135.3621,return,0.6018,,47.65625,0,14,14,35,1,FBP-YG-81.png,0.35,1.2,36,1,,,,,,,,,,,,,,,,,,,,,,,,,,,,,,,,,,,,,,,,,,,,,
,,,,,WIN24_003,20,female,2024-01-25_12h32.22.210,jersey_experiment_5,2023.2.2,Win32,85.47008547,,,,,,,,,,,,,,,,135.3623,136.6562,136.6562,138.6092,return,0.6028,,69.140625,0,15,15,58,1,FBP-PT-19.png,0.43,1.2,59,0.5,,,,,,,,,,,,,,,,,,,,,,,,,,,,,,,,,,,,,,,,,,,,,
,,,,,WIN24_003,20,female,2024-01-25_12h32.22.210,jersey_experiment_5,2023.2.2,Win32,85.47008547,,,,,,,,,,,,,,,,138.6095,139.9034,139.9034,141.4094,return,0.5878,,80.46875,0,16,16,52,1,FBP-PT-18.png,0.4,1.2,53,0.5,,,,,,,,,,,,,,,,,,,,,,,,,,,,,,,,,,,,,,,,,,,,,
,,,,,WIN24_003,20,female,2024-01-25_12h32.22.210,jersey_experiment_5,2023.2.2,Win32,85.47008547,,,,,,,,,,,,,,,,141.4095,142.7035,142.7035,144.8449,return,0.6969,,36.328125,0,17,17,5,1,FBP-OG-81.png,0.35,1.2,6,0.5,,,,,,,,,,,,,,,,,,,,,,,,,,,,,,,,,,,,,,,,,,,,,
,,,,,WIN24_003,20,female,2024-01-25_12h32.22.210,jersey_experiment_5,2023.2.2,Win32,85.47008547,,,,,,,,,,,,,,,,144.845,146.6447,146.6447,148.7036,return,0.6263,,77.08333333,0,18,18,38,1,FBP-YG-81.png,0.43,1.2,39,1,,,,,,,,,,,,,,,,,,,,,,,,,,,,,,,,,,,,,,,,,,,,,
,,,,,WIN24_003,20,female,2024-01-25_12h32.22.210,jersey_experiment_5,2023.2.2,Win32,85.47008547,,,,,,,,,,,,,,,,148.7039,150.5037,150.5037,152.7626,return,0.6966,,39.58333333,0,19,19,31,1,FBP-YG-71.png,0.37,1.2,32,1,,,,,,,,,,,,,,,,,,,,,,,,,,,,,,,,,,,,,,,,,,,,,
,,,,,WIN24_003,20,female,2024-01-25_12h32.22.210,jersey_experiment_5,2023.2.2,Win32,85.47008547,,,,,,,,,,,,,,,,152.7628,154.5627,154.5627,156.0921,return,0.5801,,43.88020833,0,20,20,40,1,FBP-YG-91.png,0.35,1.2,41,1,,,,,,,,,,,,,,,,,,,,,,,,,,,,,,,,,,,,,,,,,,,,,
,,,,,WIN24_003,20,female,2024-01-25_12h32.22.210,jersey_experiment_5,2023.2.2,Win32,85.47008547,,,,,,,,,,,,,,,,156.0923,157.8922,157.8922,160.1864,return,0.652,,80.46875,0,21,21,39,1,FBP-YG-81.png,0.45,1.2,40,1,,,,,,,,,,,,,,,,,,,,,,,,,,,,,,,,,,,,,,,,,,,,,
,,,,,WIN24_003,20,female,2024-01-25_12h32.22.210,jersey_experiment_5,2023.2.2,Win32,85.47008547,,,,,,,,,,,,,,,,160.1866,161.9866,161.9866,163.7865,return,0.5817,,24.86979167,0,22,22,25,1,FBP-RB-19.png,0.35,1.2,26,1,,,,,,,,,,,,,,,,,,,,,,,,,,,,,,,,,,,,,,,,,,,,,
,,,,,WIN24_003,20,female,2024-01-25_12h32.22.210,jersey_experiment_5,2023.2.2,Win32,85.47008547,,,,,,,,,,,,,,,,163.7867,165.5866,165.5867,167.7396,return,1.1787,,38.93229167,0,23,23,21,1,FBP-RB-18.png,0.37,1.2,22,1,,,,,,,,,,,,,,,,,,,,,,,,,,,,,,,,,,,,,,,,,,,,,
,,,,,WIN24_003,20,female,2024-01-25_12h32.22.210,jersey_experiment_5,2023.2.2,Win32,85.47008547,,,,,,,,,,,,,,,,167.7398,169.0337,169.0337,170.3044,return,0.6127,,39.32291667,0,24,24,11,1,FBP-OG-91.png,0.37,1.2,12,0.5,,,,,,,,,,,,,,,,,,,,,,,,,,,,,,,,,,,,,,,,,,,,,
,,,,,WIN24_003,20,female,2024-01-25_12h32.22.210,jersey_experiment_5,2023.2.2,Win32,85.47008547,,,,,,,,,,,,,,,,170.3046,171.5986,171.5986,173.0222,return,0.5533,,34.11458333,0,25,25,55,1,FBP-PT-19.png,0.35,1.2,56,0.5,,,,,,,,,,,,,,,,,,,,,,,,,,,,,,,,,,,,,,,,,,,,,
,,,,,WIN24_003,20,female,2024-01-25_12h32.22.210,jersey_experiment_5,2023.2.2,Win32,85.47008547,,,,,,,,,,,,,,,,173.0223,174.8222,174.8222,176.5517,return,0.7003,,74.609375,0,26,26,19,1,FBP-RB-17.png,0.45,1.2,20,1,,,,,,,,,,,,,,,,,,,,,,,,,,,,,,,,,,,,,,,,,,,,,
,,,,,WIN24_003,20,female,2024-01-25_12h32.22.210,jersey_experiment_5,2023.2.2,Win32,85.47008547,,,,,,,,,,,,,,,,176.5518,177.8458,177.8458,179.8812,return,0.5592,,30.59895833,0,27,27,50,1,FBP-PT-18.png,0.35,1.2,51,0.5,,,,,,,,,,,,,,,,,,,,,,,,,,,,,,,,,,,,,,,,,,,,,
,,,,,WIN24_003,20,female,2024-01-25_12h32.22.210,jersey_experiment_5,2023.2.2,Win32,85.47008547,,,,,,,,,,,,,,,,179.8814,181.1753,181.1753,183.1991,return,0.589,,72.52604167,0,28,28,54,1,FBP-PT-18.png,0.45,1.2,55,0.5,,,,,,,,,,,,,,,,,,,,,,,,,,,,,,,,,,,,,,,,,,,,,
,,,,,WIN24_003,20,female,2024-01-25_12h32.22.210,jersey_experiment_5,2023.2.2,Win32,85.47008547,,,,,,,,,,,,,,,,183.1992,184.999,184.999,186.3637,return,0.6027,,24.08854167,0,29,29,16,1,FBP-RB-17.png,0.37,1.2,17,1,,,,,,,,,,,,,,,,,,,,,,,,,,,,,,,,,,,,,,,,,,,,,
,,,,,WIN24_003,20,female,2024-01-25_12h32.22.210,jersey_experiment_5,2023.2.2,Win32,85.47008547,,,,,,,,,,,,,,,,186.3639,187.6579,187.6579,189.858,return,0.6598,,74.609375,0,30,30,48,1,FBP-PT-17.png,0.43,1.2,49,0.5,,,,,,,,,,,,,,,,,,,,,,,,,,,,,,,,,,,,,,,,,,,,,
,,,,,WIN24_003,20,female,2024-01-25_12h32.22.210,jersey_experiment_5,2023.2.2,Win32,85.47008547,,,,,,,,,,,,,,,,189.8582,191.658,191.658,193.3876,return,0.5914,,37.5,0,31,31,27,1,FBP-RB-19.png,0.4,1.2,28,1,,,,,,,,,,,,,,,,,,,,,,,,,,,,,,,,,,,,,,,,,,,,,
,,,,,WIN24_003,20,female,2024-01-25_12h32.22.210,jersey_experiment_5,2023.2.2,Win32,85.47008547,,,,,,,,,,,,,,,,193.3877,194.6817,194.6817,196.2818,return,0.5695,,70.05208333,0,32,32,47,1,FBP-PT-17.png,0.4,1.2,48,0.5,,,,,,,,,,,,,,,,,,,,,,,,,,,,,,,,,,,,,,,,,,,,,
,,,,,WIN24_003,20,female,2024-01-25_12h32.22.210,jersey_experiment_5,2023.2.2,Win32,85.47008547,,,,,,,,,,,,,,,,196.282,197.5758,197.5758,200.5759,return,0.6825,,27.34375,0,33,33,1,1,FBP-OG-71.png,0.37,1.2,2,0.5,,,,,,,,,,,,,,,,,,,,,,,,,,,,,,,,,,,,,,,,,,,,,
,,,,,WIN24_003,20,female,2024-01-25_12h32.22.210,jersey_experiment_5,2023.2.2,Win32,85.47008547,,,,,,,,,,,,,,,,200.5761,202.3763,202.3764,203.788,return,0.5893,,75.52083333,0,34,34,18,1,FBP-RB-17.png,0.43,1.2,19,1,,,,,,,,,,,,,,,,,,,,,,,,,,,,,,,,,,,,,,,,,,,,,
,,,,,WIN24_003,20,female,2024-01-25_12h32.22.210,jersey_experiment_5,2023.2.2,Win32,85.47008547,,,,,,,,,,,,,,,,203.7882,205.0821,205.0821,207.3292,return,0.5747,,65.36458333,0,35,35,2,1,FBP-OG-71.png,0.4,1.2,3,0.5,,,,,,,,,,,,,,,,,,,,,,,,,,,,,,,,,,,,,,,,,,,,,
,,,,,WIN24_003,20,female,2024-01-25_12h32.22.210,jersey_experiment_5,2023.2.2,Win32,85.47008547,,,,,,,,,,,,,,,,207.3293,209.1293,209.1293,210.6352,return,0.6849,,57.55208333,0,36,36,32,1,FBP-YG-71.png,0.4,1.2,33,1,,,,,,,,,,,,,,,,,,,,,,,,,,,,,,,,,,,,,,,,,,,,,
,,,,,WIN24_003,20,female,2024-01-25_12h32.22.210,jersey_experiment_5,2023.2.2,Win32,85.47008547,,,,,,,,,,,,,,,,210.6354,211.9293,211.9294,213.8469,return,0.6438,,72.265625,0,37,37,14,1,FBP-OG-91.png,0.45,1.2,15,0.5,,,,,,,,,,,,,,,,,,,,,,,,,,,,,,,,,,,,,,,,,,,,,
,,,,,WIN24_003,20,female,2024-01-25_12h32.22.210,jersey_experiment_5,2023.2.2,Win32,85.47008547,,,,,,,,,,,,,,,,213.8472,215.647,215.6471,217.8706,return,0.683,,59.63541667,0,38,38,26,1,FBP-RB-19.png,0.37,1.2,27,1,,,,,,,,,,,,,,,,,,,,,,,,,,,,,,,,,,,,,,,,,,,,,
,,,,,WIN24_003,20,female,2024-01-25_12h32.22.210,jersey_experiment_5,2023.2.2,Win32,85.47008547,,,,,,,,,,,,,,,,217.8708,219.1648,219.1648,221.0236,return,0.6225,,37.63020833,0,39,39,6,1,FBP-OG-81.png,0.37,1.2,7,0.5,,,,,,,,,,,,,,,,,,,,,,,,,,,,,,,,,,,,,,,,,,,,,
,,,,,WIN24_003,20,female,2024-01-25_12h32.22.210,jersey_experiment_5,2023.2.2,Win32,85.47008547,,,,,,,,,,,,,,,,221.0238,222.8239,222.8239,224.3297,return,0.6635,,74.08854167,0,40,40,29,1,FBP-RB-19.png,0.45,1.2,30,1,,,,,,,,,,,,,,,,,,,,,,,,,,,,,,,,,,,,,,,,,,,,,
,,,,,WIN24_003,20,female,2024-01-25_12h32.22.210,jersey_experiment_5,2023.2.2,Win32,85.47008547,,,,,,,,,,,,,,,,224.3299,225.624,225.624,227.4358,return,0.5423,,24.34895833,0,41,41,0,1,FBP-OG-71.png,0.35,1.2,1,0.5,,,,,,,,,,,,,,,,,,,,,,,,,,,,,,,,,,,,,,,,,,,,,
,,,,,WIN24_003,20,female,2024-01-25_12h32.22.210,jersey_experiment_5,2023.2.2,Win32,85.47008547,,,,,,,,,,,,,,,,227.4361,228.7299,228.7299,230.177,return,0.5749,,30.859375,0,42,42,45,1,FBP-PT-17.png,0.35,1.2,46,0.5,,,,,,,,,,,,,,,,,,,,,,,,,,,,,,,,,,,,,,,,,,,,,
,,,,,WIN24_003,20,female,2024-01-25_12h32.22.210,jersey_experiment_5,2023.2.2,Win32,85.47008547,,,,,,,,,,,,,,,,230.1772,231.9771,231.9771,234.0477,return,0.579,,72.65625,0,43,43,23,1,FBP-RB-18.png,0.43,1.2,24,1,,,,,,,,,,,,,,,,,,,,,,,,,,,,,,,,,,,,,,,,,,,,,
,,,,,WIN24_003,20,female,2024-01-25_12h32.22.210,jersey_experiment_5,2023.2.2,Win32,85.47008547,,,,,,,,,,,,,,,,234.048,235.342,235.342,236.9301,return,0.5415,,70.703125,0,44,44,13,1,FBP-OG-91.png,0.43,1.2,14,0.5,,,,,,,,,,,,,,,,,,,,,,,,,,,,,,,,,,,,,,,,,,,,,
,,,,,WIN24_003,20,female,2024-01-25_12h32.22.210,jersey_experiment_5,2023.2.2,Win32,85.47008547,,,,,,,,,,,,,,,,236.9303,238.2243,238.2243,241.7422,return,0.4849,,73.95833333,0,45,45,4,1,FBP-OG-71.png,0.45,1.2,5,0.5,,,,,,,,,,,,,,,,,,,,,,,,,,,,,,,,,,,,,,,,,,,,,
,,,,,WIN24_003,20,female,2024-01-25_12h32.22.210,jersey_experiment_5,2023.2.2,Win32,85.47008547,,,,,,,,,,,,,,,,241.7424,243.5424,243.5424,244.9186,return,0.5957,,13.93229167,0,46,46,15,1,FBP-RB-17.png,0.35,1.2,16,1,,,,,,,,,,,,,,,,,,,,,,,,,,,,,,,,,,,,,,,,,,,,,
,,,,,WIN24_003,20,female,2024-01-25_12h32.22.210,jersey_experiment_5,2023.2.2,Win32,85.47008547,,,,,,,,,,,,,,,,244.9189,246.2129,246.2129,248.5071,return,0.6031,,39.71354167,0,47,47,7,1,FBP-OG-81.png,0.4,1.2,8,0.5,,,,,,,,,,,,,,,,,,,,,,,,,,,,,,,,,,,,,,,,,,,,,
,,,,,WIN24_003,20,female,2024-01-25_12h32.22.210,jersey_experiment_5,2023.2.2,Win32,85.47008547,,,,,,,,,,,,,,,,248.5072,249.8011,249.8012,251.7189,return,0.6191,,68.359375,0,48,48,8,1,FBP-OG-81.png,0.43,1.2,9,0.5,,,,,,,,,,,,,,,,,,,,,,,,,,,,,,,,,,,,,,,,,,,,,
,,,,,WIN24_003,20,female,2024-01-25_12h32.22.210,jersey_experiment_5,2023.2.2,Win32,85.47008547,,,,,,,,,,,,,,,,251.7191,253.0131,253.0131,255.5662,return,0.8115,,29.81770833,0,49,49,51,1,FBP-PT-18.png,0.37,1.2,52,0.5,,,,,,,,,,,,,,,,,,,,,,,,,,,,,,,,,,,,,,,,,,,,,
,,,,,WIN24_003,20,female,2024-01-25_12h32.22.210,jersey_experiment_5,2023.2.2,Win32,85.47008547,,,,,,,,,,,,,,,,255.5665,256.8603,256.8604,259.6723,return,0.641,,74.609375,0,50,50,3,1,FBP-OG-71.png,0.43,1.2,4,0.5,,,,,,,,,,,,,,,,,,,,,,,,,,,,,,,,,,,,,,,,,,,,,
,,,,,WIN24_003,20,female,2024-01-25_12h32.22.210,jersey_experiment_5,2023.2.2,Win32,85.47008547,,,,,,,,,,,,,,,,259.6725,260.9664,260.9664,263.6488,return,1.3547,,72.265625,0,51,51,53,1,FBP-PT-18.png,0.43,1.2,54,0.5,,,,,,,,,,,,,,,,,,,,,,,,,,,,,,,,,,,,,,,,,,,,,
,,,,,WIN24_003,20,female,2024-01-25_12h32.22.210,jersey_experiment_5,2023.2.2,Win32,85.47008547,,,,,,,,,,,,,,,,263.649,265.4488,265.4488,267.7431,return,0.6599,,75.390625,0,52,52,33,1,FBP-YG-71.png,0.43,1.2,34,1,,,,,,,,,,,,,,,,,,,,,,,,,,,,,,,,,,,,,,,,,,,,,
,,,,,WIN24_003,20,female,2024-01-25_12h32.22.210,jersey_experiment_5,2023.2.2,Win32,85.47008547,,,,,,,,,,,,,,,,267.7433,269.5431,269.5432,271.049,return,0.5947,,78.64583333,0,53,53,43,1,FBP-YG-91.png,0.43,1.2,44,1,,,,,,,,,,,,,,,,,,,,,,,,,,,,,,,,,,,,,,,,,,,,,
,,,,,WIN24_003,20,female,2024-01-25_12h32.22.210,jersey_experiment_5,2023.2.2,Win32,85.47008547,,,,,,,,,,,,,,,,271.0492,272.8492,272.8492,274.908,return,0.5786,,56.51041667,0,54,54,22,1,FBP-RB-18.png,0.4,1.2,23,1,,,,,,,,,,,,,,,,,,,,,,,,,,,,,,,,,,,,,,,,,,,,,
,,,,,WIN24_003,20,female,2024-01-25_12h32.22.210,jersey_experiment_5,2023.2.2,Win32,85.47008547,,,,,,,,,,,,,,,,274.9081,276.7081,276.7081,278.6729,return,0.5651,,72.265625,0,55,55,34,1,FBP-YG-71.png,0.45,1.2,35,1,,,,,,,,,,,,,,,,,,,,,,,,,,,,,,,,,,,,,,,,,,,,,
,,,,,WIN24_003,20,female,2024-01-25_12h32.22.210,jersey_experiment_5,2023.2.2,Win32,85.47008547,,,,,,,,,,,,,,,,278.6731,279.9669,279.967,282.1906,return,0.649,,53.38541667,0,56,56,57,1,FBP-PT-19.png,0.4,1.2,58,0.5,,,,,,,,,,,,,,,,,,,,,,,,,,,,,,,,,,,,,,,,,,,,,
,,,,,WIN24_003,20,female,2024-01-25_12h32.22.210,jersey_experiment_5,2023.2.2,Win32,85.47008547,,,,,,,,,,,,,,,,282.1909,283.9906,283.9906,285.4495,return,0.6179,,26.5625,0,57,57,20,1,FBP-RB-18.png,0.35,1.2,21,1,,,,,,,,,,,,,,,,,,,,,,,,,,,,,,,,,,,,,,,,,,,,,
,,,,,WIN24_003,20,female,2024-01-25_12h32.22.210,jersey_experiment_5,2023.2.2,Win32,85.47008547,,,,,,,,,,,,,,,,285.4497,287.2496,287.2497,288.779,return,0.5199,,70.83333333,0,58,58,17,1,FBP-RB-17.png,0.4,1.2,18,1,,,,,,,,,,,,,,,,,,,,,,,,,,,,,,,,,,,,,,,,,,,,,
,,,,,WIN24_003,20,female,2024-01-25_12h32.22.210,jersey_experiment_5,2023.2.2,Win32,85.47008547,,,,,,,,,,,,,,,,288.7793,290.5792,290.5793,292.4969,return,0.6029,,25,0,59,59,30,1,FBP-YG-71.png,0.35,1.2,31,1,,,,,,,,,,,,,,,,,,,,,,,,,,,,,,,,,,,,,,,,,,,,,
,,,,,WIN24_003,20,female,2024-01-25_12h32.22.210,jersey_experiment_5,2023.2.2,Win32,85.47008547,,,,,,,,,,,,,,,,292.4991,294.2969,294.2969,296.3676,return,0.6458,,72.39583333,,,,,,FBP-YG-19.png,0.45,1.2,45,1,0,0,0,44,1,,,,,,,,,,,,,,,,,,,,,,,,,,,,,,,,,,,,,,,,
,,,,,WIN24_003,20,female,2024-01-25_12h32.22.210,jersey_experiment_5,2023.2.2,Win32,85.47008547,,,,,,,,,,,,,,,,296.3679,298.1676,298.1676,301.9677,return,1.8359,,33.46354167,,,,,,FBP-YG-17.png,0.37,1.2,32,1,0,1,1,31,1,,,,,,,,,,,,,,,,,,,,,,,,,,,,,,,,,,,,,,,,
,,,,,WIN24_003,20,female,2024-01-25_12h32.22.210,jersey_experiment_5,2023.2.2,Win32,85.47008547,,,,,,,,,,,,,,,,301.9681,303.262,303.2621,304.9914,return,0.5411,,68.359375,,,,,,FBP-PT-71.png,0.45,1.2,50,0.5,0,2,2,49,1,,,,,,,,,,,,,,,,,,,,,,,,,,,,,,,,,,,,,,,,
,,,,,WIN24_003,20,female,2024-01-25_12h32.22.210,jersey_experiment_5,2023.2.2,Win32,85.47008547,,,,,,,,,,,,,,,,304.9917,306.2855,306.2855,308.0974,return,0.5178,,21.35416667,,,,,,FBP-PT-81.png,0.37,1.2,52,0.5,0,3,3,51,1,,,,,,,,,,,,,,,,,,,,,,,,,,,,,,,,,,,,,,,,
,,,,,WIN24_003,20,female,2024-01-25_12h32.22.210,jersey_experiment_5,2023.2.2,Win32,85.47008547,,,,,,,,,,,,,,,,308.0976,309.3915,309.3915,311.4151,return,0.5246,,71.35416667,,,,,,FBP-OG-18.png,0.45,1.2,10,0.5,0,4,4,9,1,,,,,,,,,,,,,,,,,,,,,,,,,,,,,,,,,,,,,,,,
,,,,,WIN24_003,20,female,2024-01-25_12h32.22.210,jersey_experiment_5,2023.2.2,Win32,85.47008547,,,,,,,,,,,,,,,,311.4153,312.7093,312.7093,314.1681,return,0.5462,,80.078125,,,,,,FBP-PT-91.png,0.43,1.2,59,0.5,0,5,5,58,1,,,,,,,,,,,,,,,,,,,,,,,,,,,,,,,,,,,,,,,,
,,,,,WIN24_003,20,female,2024-01-25_12h32.22.210,jersey_experiment_5,2023.2.2,Win32,85.47008547,,,,,,,,,,,,,,,,314.1684,315.4623,315.4623,317.7683,return,1.1584,,23.95833333,,,,,,FBP-PT-81.png,0.4,1.2,53,0.5,0,6,6,52,1,,,,,,,,,,,,,,,,,,,,,,,,,,,,,,,,,,,,,,,,
,,,,,WIN24_003,20,female,2024-01-25_12h32.22.210,jersey_experiment_5,2023.2.2,Win32,85.47008547,,,,,,,,,,,,,,,,317.7686,319.0625,319.0625,320.4273,return,0.5102,,21.35416667,,,,,,FBP-PT-91.png,0.35,1.2,56,0.5,0,7,7,55,1,,,,,,,,,,,,,,,,,,,,,,,,,,,,,,,,,,,,,,,,
,,,,,WIN24_003,20,female,2024-01-25_12h32.22.210,jersey_experiment_5,2023.2.2,Win32,85.47008547,,,,,,,,,,,,,,,,320.4274,322.2272,322.2272,323.7685,return,0.6169,,27.734375,,,,,,FBP-RB-81.png,0.35,1.2,21,1,0,8,8,20,1,,,,,,,,,,,,,,,,,,,,,,,,,,,,,,,,,,,,,,,,
,,,,,WIN24_003,20,female,2024-01-25_12h32.22.210,jersey_experiment_5,2023.2.2,Win32,85.47008547,,,,,,,,,,,,,,,,323.7688,325.5687,325.5687,326.839,return,0.6528,,77.47395833,,,,,,FBP-RB-91.png,0.43,1.2,29,1,0,9,9,28,1,,,,,,,,,,,,,,,,,,,,,,,,,,,,,,,,,,,,,,,,
,,,,,WIN24_003,20,female,2024-01-25_12h32.22.210,jersey_experiment_5,2023.2.2,Win32,85.47008547,,,,,,,,,,,,,,,,326.8393,328.6394,328.6394,330.0391,return,0.5964,,23.56770833,,,,,,FBP-RB-71.png,0.35,1.2,16,1,0,10,10,15,1,,,,,,,,,,,,,,,,,,,,,,,,,,,,,,,,,,,,,,,,
,,,,,WIN24_003,20,female,2024-01-25_12h32.22.210,jersey_experiment_5,2023.2.2,Win32,85.47008547,,,,,,,,,,,,,,,,330.0393,331.3335,331.3335,333.2277,return,0.5335,,73.828125,,,,,,FBP-OG-17.png,0.43,1.2,4,0.5,0,11,11,3,1,,,,,,,,,,,,,,,,,,,,,,,,,,,,,,,,,,,,,,,,
,,,,,WIN24_003,20,female,2024-01-25_12h32.22.210,jersey_experiment_5,2023.2.2,Win32,85.47008547,,,,,,,,,,,,,,,,333.228,335.0277,335.0277,336.3807,return,0.579,,24.34895833,,,,,,FBP-YG-19.png,0.37,1.2,42,1,0,12,12,41,1,,,,,,,,,,,,,,,,,,,,,,,,,,,,,,,,,,,,,,,,
,,,,,WIN24_003,20,female,2024-01-25_12h32.22.210,jersey_experiment_5,2023.2.2,Win32,85.47008547,,,,,,,,,,,,,,,,336.3809,337.675,337.6751,339.3691,return,0.5466,,74.47916667,,,,,,FBP-OG-19.png,0.43,1.2,14,0.5,0,13,13,13,1,,,,,,,,,,,,,,,,,,,,,,,,,,,,,,,,,,,,,,,,
,,,,,WIN24_003,20,female,2024-01-25_12h32.22.210,jersey_experiment_5,2023.2.2,Win32,85.47008547,,,,,,,,,,,,,,,,339.3693,340.6632,340.6633,342.2397,return,0.5886,,25.13020833,,,,,,FBP-OG-18.png,0.35,1.2,6,0.5,0,14,14,5,1,,,,,,,,,,,,,,,,,,,,,,,,,,,,,,,,,,,,,,,,
,,,,,WIN24_003,20,female,2024-01-25_12h32.22.210,jersey_experiment_5,2023.2.2,Win32,85.47008547,,,,,,,,,,,,,,,,342.24,344.0399,344.0399,345.6634,return,0.5277,,73.828125,,,,,,FBP-YG-17.png,0.43,1.2,34,1,0,15,15,33,1,,,,,,,,,,,,,,,,,,,,,,,,,,,,,,,,,,,,,,,,
,,,,,WIN24_003,20,female,2024-01-25_12h32.22.210,jersey_experiment_5,2023.2.2,Win32,85.47008547,,,,,,,,,,,,,,,,345.6636,347.4636,347.4636,348.6635,return,0.548,,79.03645833,,,,,,FBP-RB-91.png,0.45,1.2,30,1,0,16,16,29,1,,,,,,,,,,,,,,,,,,,,,,,,,,,,,,,,,,,,,,,,
,,,,,WIN24_003,20,female,2024-01-25_12h32.22.210,jersey_experiment_5,2023.2.2,Win32,85.47008547,,,,,,,,,,,,,,,,348.6637,350.4637,350.4637,351.5812,return,0.5658,,26.171875,,,,,,FBP-YG-17.png,0.4,1.2,33,1,0,17,17,32,1,,,,,,,,,,,,,,,,,,,,,,,,,,,,,,,,,,,,,,,,
,,,,,WIN24_003,20,female,2024-01-25_12h32.22.210,jersey_experiment_5,2023.2.2,Win32,85.47008547,,,,,,,,,,,,,,,,351.5814,352.8754,352.8754,354.2637,return,0.5373,,20.96354167,,,,,,FBP-PT-71.png,0.35,1.2,46,0.5,0,18,18,45,1,,,,,,,,,,,,,,,,,,,,,,,,,,,,,,,,,,,,,,,,
,,,,,WIN24_003,20,female,2024-01-25_12h32.22.210,jersey_experiment_5,2023.2.2,Win32,85.47008547,,,,,,,,,,,,,,,,354.2639,356.0637,356.0638,357.2756,return,0.557,,75.91145833,,,,,,FBP-YG-18.png,0.43,1.2,39,1,0,19,19,38,1,,,,,,,,,,,,,,,,,,,,,,,,,,,,,,,,,,,,,,,,
,,,,,WIN24_003,20,female,2024-01-25_12h32.22.210,jersey_experiment_5,2023.2.2,Win32,85.47008547,,,,,,,,,,,,,,,,357.2757,358.5698,358.5698,360.2874,return,0.564,,67.70833333,,,,,,FBP-PT-71.png,0.37,1.2,47,0.5,0,20,20,46,1,,,,,,,,,,,,,,,,,,,,,,,,,,,,,,,,,,,,,,,,
,,,,,WIN24_003,20,female,2024-01-25_12h32.22.210,jersey_experiment_5,2023.2.2,Win32,85.47008547,,,,,,,,,,,,,,,,360.2877,362.0875,362.0875,363.464,return,0.5465,,43.359375,,,,,,FBP-RB-71.png,0.4,1.2,18,1,0,21,21,17,1,,,,,,,,,,,,,,,,,,,,,,,,,,,,,,,,,,,,,,,,
,,,,,WIN24_003,20,female,2024-01-25_12h32.22.210,jersey_experiment_5,2023.2.2,Win32,85.47008547,,,,,,,,,,,,,,,,363.4642,365.2642,365.2643,366.7348,return,0.5417,,11.97916667,,,,,,FBP-YG-18.png,0.35,1.2,36,1,0,22,22,35,1,,,,,,,,,,,,,,,,,,,,,,,,,,,,,,,,,,,,,,,,
,,,,,WIN24_003,20,female,2024-01-25_12h32.22.210,jersey_experiment_5,2023.2.2,Win32,85.47008547,,,,,,,,,,,,,,,,366.735,368.5346,368.5346,370.1347,return,0.5732,,2.34375,,,,,,FBP-YG-19.png,0.35,1.2,41,1,0,23,23,40,1,,,,,,,,,,,,,,,,,,,,,,,,,,,,,,,,,,,,,,,,
,,,,,WIN24_003,20,female,2024-01-25_12h32.22.210,jersey_experiment_5,2023.2.2,Win32,85.47008547,,,,,,,,,,,,,,,,370.1349,371.9349,371.9349,373.629,return,0.5316,,20.44270833,,,,,,FBP-RB-81.png,0.37,1.2,22,1,0,24,24,21,1,,,,,,,,,,,,,,,,,,,,,,,,,,,,,,,,,,,,,,,,
,,,,,WIN24_003,20,female,2024-01-25_12h32.22.210,jersey_experiment_5,2023.2.2,Win32,85.47008547,,,,,,,,,,,,,,,,373.6293,374.9232,374.9233,376.7468,return,0.5225,,53.38541667,,,,,,FBP-OG-19.png,0.45,1.2,15,0.5,0,25,25,14,1,,,,,,,,,,,,,,,,,,,,,,,,,,,,,,,,,,,,,,,,
,,,,,WIN24_003,20,female,2024-01-25_12h32.22.210,jersey_experiment_5,2023.2.2,Win32,85.47008547,,,,,,,,,,,,,,,,376.7469,378.5469,378.5469,380.241,return,0.5181,,71.35416667,,,,,,FBP-YG-18.png,0.45,1.2,40,1,0,26,26,39,1,,,,,,,,,,,,,,,,,,,,,,,,,,,,,,,,,,,,,,,,
,,,,,WIN24_003,20,female,2024-01-25_12h32.22.210,jersey_experiment_5,2023.2.2,Win32,85.47008547,,,,,,,,,,,,,,,,380.2413,382.0415,382.0415,383.5471,return,0.6262,,17.31770833,,,,,,FBP-RB-91.png,0.37,1.2,27,1,0,27,27,26,1,,,,,,,,,,,,,,,,,,,,,,,,,,,,,,,,,,,,,,,,
,,,,,WIN24_003,20,female,2024-01-25_12h32.22.210,jersey_experiment_5,2023.2.2,Win32,85.47008547,,,,,,,,,,,,,,,,383.5473,384.8411,384.8412,386.5237,return,0.6743,,18.09895833,,,,,,FBP-PT-81.png,0.35,1.2,51,0.5,0,28,28,50,1,,,,,,,,,,,,,,,,,,,,,,,,,,,,,,,,,,,,,,,,
,,,,,WIN24_003,20,female,2024-01-25_12h32.22.210,jersey_experiment_5,2023.2.2,Win32,85.47008547,,,,,,,,,,,,,,,,386.5239,388.3237,388.3237,391.8531,return,2.8257,,66.40625,,,,,,FBP-RB-71.png,0.45,1.2,20,1,0,29,29,19,1,,,,,,,,,,,,,,,,,,,,,,,,,,,,,,,,,,,,,,,,
,,,,,WIN24_003,20,female,2024-01-25_12h32.22.210,jersey_experiment_5,2023.2.2,Win32,85.47008547,,,,,,,,,,,,,,,,391.8533,393.1474,393.1474,394.9826,return,0.5971,,28.90625,,,,,,FBP-OG-17.png,0.37,1.2,2,0.5,0,30,30,1,1,,,,,,,,,,,,,,,,,,,,,,,,,,,,,,,,,,,,,,,,
,,,,,WIN24_003,20,female,2024-01-25_12h32.22.210,jersey_experiment_5,2023.2.2,Win32,85.47008547,,,,,,,,,,,,,,,,394.9828,396.7829,396.7829,398.3475,return,0.7096,,51.953125,,,,,,FBP-RB-81.png,0.43,1.2,24,1,0,31,31,23,1,,,,,,,,,,,,,,,,,,,,,,,,,,,,,,,,,,,,,,,,
,,,,,WIN24_003,20,female,2024-01-25_12h32.22.210,jersey_experiment_5,2023.2.2,Win32,85.47008547,,,,,,,,,,,,,,,,398.3477,400.1476,400.1476,401.8888,return,0.5892,,51.43229167,,,,,,FBP-RB-91.png,0.4,1.2,28,1,0,32,32,27,1,,,,,,,,,,,,,,,,,,,,,,,,,,,,,,,,,,,,,,,,
,,,,,WIN24_003,20,female,2024-01-25_12h32.22.210,jersey_experiment_5,2023.2.2,Win32,85.47008547,,,,,,,,,,,,,,,,401.8891,403.6889,403.6889,405.2772,return,0.6025,,45.05208333,,,,,,FBP-RB-71.png,0.37,1.2,17,1,0,33,33,16,1,,,,,,,,,,,,,,,,,,,,,,,,,,,,,,,,,,,,,,,,
,,,,,WIN24_003,20,female,2024-01-25_12h32.22.210,jersey_experiment_5,2023.2.2,Win32,85.47008547,,,,,,,,,,,,,,,,405.2775,406.5714,406.5714,408.1126,return,0.5982,,49.08854167,,,,,,FBP-PT-71.png,0.4,1.2,48,0.5,0,34,34,47,1,,,,,,,,,,,,,,,,,,,,,,,,,,,,,,,,,,,,,,,,
,,,,,WIN24_003,20,female,2024-01-25_12h32.22.210,jersey_experiment_5,2023.2.2,Win32,85.47008547,,,,,,,,,,,,,,,,408.1128,409.9129,409.9129,411.2774,return,0.6962,,57.16145833,,,,,,FBP-RB-81.png,0.45,1.2,25,1,0,35,35,24,1,,,,,,,,,,,,,,,,,,,,,,,,,,,,,,,,,,,,,,,,
,,,,,WIN24_003,20,female,2024-01-25_12h32.22.210,jersey_experiment_5,2023.2.2,Win32,85.47008547,,,,,,,,,,,,,,,,411.2776,413.0774,413.0774,414.6303,return,0.5973,,33.33333333,,,,,,FBP-YG-18.png,0.37,1.2,37,1,0,36,36,36,1,,,,,,,,,,,,,,,,,,,,,,,,,,,,,,,,,,,,,,,,
,,,,,WIN24_003,20,female,2024-01-25_12h32.22.210,jersey_experiment_5,2023.2.2,Win32,85.47008547,,,,,,,,,,,,,,,,414.6305,415.9246,415.9247,417.2777,return,0.5787,,33.33333333,,,,,,FBP-OG-19.png,0.35,1.2,11,0.5,0,37,37,10,1,,,,,,,,,,,,,,,,,,,,,,,,,,,,,,,,,,,,,,,,
,,,,,WIN24_003,20,female,2024-01-25_12h32.22.210,jersey_experiment_5,2023.2.2,Win32,85.47008547,,,,,,,,,,,,,,,,417.2778,419.0776,419.0776,421.1954,return,0.5788,,36.71875,,,,,,FBP-YG-19.png,0.4,1.2,43,1,0,38,38,42,1,,,,,,,,,,,,,,,,,,,,,,,,,,,,,,,,,,,,,,,,
,,,,,WIN24_003,20,female,2024-01-25_12h32.22.210,jersey_experiment_5,2023.2.2,Win32,85.47008547,,,,,,,,,,,,,,,,421.1956,422.4895,422.4895,424.2191,return,0.5208,,25.13020833,,,,,,FBP-OG-17.png,0.35,1.2,1,0.5,0,39,39,0,1,,,,,,,,,,,,,,,,,,,,,,,,,,,,,,,,,,,,,,,,
,,,,,WIN24_003,20,female,2024-01-25_12h32.22.210,jersey_experiment_5,2023.2.2,Win32,85.47008547,,,,,,,,,,,,,,,,424.2193,426.0193,426.0193,427.8663,return,0.6052,,30.72916667,,,,,,FBP-RB-81.png,0.4,1.2,23,1,0,40,40,22,1,,,,,,,,,,,,,,,,,,,,,,,,,,,,,,,,,,,,,,,,
,,,,,WIN24_003,20,female,2024-01-25_12h32.22.210,jersey_experiment_5,2023.2.2,Win32,85.47008547,,,,,,,,,,,,,,,,427.8666,429.6663,429.6663,431.5135,return,0.7571,,32.68229167,,,,,,FBP-YG-18.png,0.4,1.2,38,1,0,41,41,37,1,,,,,,,,,,,,,,,,,,,,,,,,,,,,,,,,,,,,,,,,
,,,,,WIN24_003,20,female,2024-01-25_12h32.22.210,jersey_experiment_5,2023.2.2,Win32,85.47008547,,,,,,,,,,,,,,,,431.5137,432.8076,432.8076,434.3958,return,0.577,,31.25,,,,,,FBP-OG-18.png,0.4,1.2,8,0.5,0,42,42,7,1,,,,,,,,,,,,,,,,,,,,,,,,,,,,,,,,,,,,,,,,
,,,,,WIN24_003,20,female,2024-01-25_12h32.22.210,jersey_experiment_5,2023.2.2,Win32,85.47008547,,,,,,,,,,,,,,,,434.396,435.6899,435.6899,437.3136,return,0.6118,,31.25,,,,,,FBP-PT-91.png,0.4,1.2,58,0.5,0,43,43,57,1,,,,,,,,,,,,,,,,,,,,,,,,,,,,,,,,,,,,,,,,
,,,,,WIN24_003,20,female,2024-01-25_12h32.22.210,jersey_experiment_5,2023.2.2,Win32,85.47008547,,,,,,,,,,,,,,,,437.3138,438.6078,438.6078,440.3373,return,0.5664,,32.421875,,,,,,FBP-OG-18.png,0.37,1.2,7,0.5,0,44,44,6,1,,,,,,,,,,,,,,,,,,,,,,,,,,,,,,,,,,,,,,,,
,,,,,WIN24_003,20,female,2024-01-25_12h32.22.210,jersey_experiment_5,2023.2.2,Win32,85.47008547,,,,,,,,,,,,,,,,440.3375,441.6315,441.6315,444.255,return,0.9886,,20.96354167,,,,,,FBP-OG-19.png,0.37,1.2,12,0.5,0,45,45,11,1,,,,,,,,,,,,,,,,,,,,,,,,,,,,,,,,,,,,,,,,
,,,,,WIN24_003,20,female,2024-01-25_12h32.22.210,jersey_experiment_5,2023.2.2,Win32,85.47008547,,,,,,,,,,,,,,,,444.2551,446.0552,446.0552,447.8199,return,0.5896,,55.20833333,,,,,,FBP-YG-19.png,0.43,1.2,44,1,0,46,46,43,1,,,,,,,,,,,,,,,,,,,,,,,,,,,,,,,,,,,,,,,,
,,,,,WIN24_003,20,female,2024-01-25_12h32.22.210,jersey_experiment_5,2023.2.2,Win32,85.47008547,,,,,,,,,,,,,,,,447.8201,449.6198,449.6198,451.9023,return,0.5524,,49.21875,,,,,,FBP-RB-71.png,0.43,1.2,19,1,0,47,47,18,1,,,,,,,,,,,,,,,,,,,,,,,,,,,,,,,,,,,,,,,,
,,,,,WIN24_003,20,female,2024-01-25_12h32.22.210,jersey_experiment_5,2023.2.2,Win32,85.47008547,,,,,,,,,,,,,,,,451.9025,453.1968,453.1968,455.1378,return,0.5181,,49.21875,,,,,,FBP-OG-17.png,0.4,1.2,3,0.5,0,48,48,2,1,,,,,,,,,,,,,,,,,,,,,,,,,,,,,,,,,,,,,,,,
,,,,,WIN24_003,20,female,2024-01-25_12h32.22.210,jersey_experiment_5,2023.2.2,Win32,85.47008547,,,,,,,,,,,,,,,,455.1381,456.432,456.432,458.1848,return,0.5005,,55.20833333,,,,,,FBP-OG-18.png,0.43,1.2,9,0.5,0,49,49,8,1,,,,,,,,,,,,,,,,,,,,,,,,,,,,,,,,,,,,,,,,
,,,,,WIN24_003,20,female,2024-01-25_12h32.22.210,jersey_experiment_5,2023.2.2,Win32,85.47008547,,,,,,,,,,,,,,,,458.185,459.479,459.4791,461.1497,return,0.718,,51.5625,,,,,,FBP-OG-19.png,0.4,1.2,13,0.5,0,50,50,12,1,,,,,,,,,,,,,,,,,,,,,,,,,,,,,,,,,,,,,,,,
,,,,,WIN24_003,20,female,2024-01-25_12h32.22.210,jersey_experiment_5,2023.2.2,Win32,85.47008547,,,,,,,,,,,,,,,,461.1499,462.95,462.9501,464.491,return,0.6736,,23.046875,,,,,,FBP-YG-17.png,0.35,1.2,31,1,0,51,51,30,1,,,,,,,,,,,,,,,,,,,,,,,,,,,,,,,,,,,,,,,,
,,,,,WIN24_003,20,female,2024-01-25_12h32.22.210,jersey_experiment_5,2023.2.2,Win32,85.47008547,,,,,,,,,,,,,,,,464.4913,466.2911,466.2912,467.9853,return,0.7537,,25.13020833,,,,,,FBP-RB-91.png,0.35,1.2,26,1,0,52,52,25,1,,,,,,,,,,,,,,,,,,,,,,,,,,,,,,,,,,,,,,,,
,,,,,WIN24_003,20,female,2024-01-25_12h32.22.210,jersey_experiment_5,2023.2.2,Win32,85.47008547,,,,,,,,,,,,,,,,467.9856,469.2795,469.2795,471.9149,return,0.722,,73.30729167,,,,,,FBP-PT-91.png,0.45,1.2,60,0.5,0,53,53,59,1,,,,,,,,,,,,,,,,,,,,,,,,,,,,,,,,,,,,,,,,
,,,,,WIN24_003,20,female,2024-01-25_12h32.22.210,jersey_experiment_5,2023.2.2,Win32,85.47008547,,,,,,,,,,,,,,,,471.9151,473.209,473.209,476.5268,return,0.6727,,71.09375,,,,,,FBP-PT-81.png,0.43,1.2,54,0.5,0,54,54,53,1,,,,,,,,,,,,,,,,,,,,,,,,,,,,,,,,,,,,,,,,
,,,,,WIN24_003,20,female,2024-01-25_12h32.22.210,jersey_experiment_5,2023.2.2,Win32,85.47008547,,,,,,,,,,,,,,,,476.527,477.8209,477.8209,479.6445,return,0.6484,,50.390625,,,,,,FBP-PT-91.png,0.37,1.2,57,0.5,0,55,55,56,1,,,,,,,,,,,,,,,,,,,,,,,,,,,,,,,,,,,,,,,,
,,,,,WIN24_003,20,female,2024-01-25_12h32.22.210,jersey_experiment_5,2023.2.2,Win32,85.47008547,,,,,,,,,,,,,,,,479.6447,481.4448,481.4448,483.7036,return,0.6175,,73.046875,,,,,,FBP-YG-17.png,0.45,1.2,35,1,0,56,56,34,1,,,,,,,,,,,,,,,,,,,,,,,,,,,,,,,,,,,,,,,,
,,,,,WIN24_003,20,female,2024-01-25_12h32.22.210,jersey_experiment_5,2023.2.2,Win32,85.47008547,,,,,,,,,,,,,,,,483.7037,484.9977,484.9977,487.7505,return,0.8436,,77.734375,,,,,,FBP-PT-81.png,0.45,1.2,55,0.5,0,57,57,54,1,,,,,,,,,,,,,,,,,,,,,,,,,,,,,,,,,,,,,,,,
,,,,,WIN24_003,20,female,2024-01-25_12h32.22.210,jersey_experiment_5,2023.2.2,Win32,85.47008547,,,,,,,,,,,,,,,,487.7507,489.0448,489.0448,491.0213,return,0.6019,,74.47916667,,,,,,FBP-OG-17.png,0.45,1.2,5,0.5,0,58,58,4,1,,,,,,,,,,,,,,,,,,,,,,,,,,,,,,,,,,,,,,,,
,,,,,WIN24_003,20,female,2024-01-25_12h32.22.210,jersey_experiment_5,2023.2.2,Win32,85.47008547,,,,,,,,,,,,,,,,491.0215,492.3155,492.3155,493.5744,return,0.5499,,74.47916667,,,,,,FBP-PT-71.png,0.43,1.2,49,0.5,0,59,59,48,1,,,,,,,,,,,,,,,,,,,,,,,,,,,,,,,,,,,,,,,,
,,,,,WIN24_003,20,female,2024-01-25_12h32.22.210,jersey_experiment_5,2023.2.2,Win32,85.47008547,,,,,,,,,,,,,,,,,,,,,,,,,,,,,,,,,,,,,,,493.5747,613.5788,,,,,,,,,,,,,,,,,,,,,,,,,,,,,,,,,,,,,,
,,,,,WIN24_003,20,female,2024-01-25_12h32.22.210,jersey_experiment_5,2023.2.2,Win32,85.47008547,,,,,,,,,,,,,,,,,,,,,,,,,,,,,,,,,,,,,,,,,613.579,615.4846,return,1.8938,,,,,,,,,,,,,,,,,,,,,,,,,,,,,,,,,,
,,,,,WIN24_003,20,female,2024-01-25_12h32.22.210,jersey_experiment_5,2023.2.2,Win32,85.47008547,,,,,,,,,,,,,,,,615.4914,616.7905,616.7906,618.6965,return,0.6539,,57.03125,,,,,,FBP-YG-91.png,0.37,1.2,42,0.5,,,,,,,,,,,,,0,0,0,41,1,,,,,,,,,,,,,,,,,,,,,,,,,,,,
,,,,,WIN24_003,20,female,2024-01-25_12h32.22.210,jersey_experiment_5,2023.2.2,Win32,85.47008547,,,,,,,,,,,,,,,,618.697,620.4964,620.4965,621.9788,return,0.5687,,70.18229167,,,,,,FBP-OG-71.png,0.4,1.2,3,1,,,,,,,,,,,,,0,1,1,2,1,,,,,,,,,,,,,,,,,,,,,,,,,,,,
,,,,,WIN24_003,20,female,2024-01-25_12h32.22.210,jersey_experiment_5,2023.2.2,Win32,85.47008547,,,,,,,,,,,,,,,,621.979,623.779,623.779,625.3084,return,0.6825,,24.21875,,,,,,FBP-PT-17.png,0.37,1.2,47,1,,,,,,,,,,,,,0,2,2,46,1,,,,,,,,,,,,,,,,,,,,,,,,,,,,
,,,,,WIN24_003,20,female,2024-01-25_12h32.22.210,jersey_experiment_5,2023.2.2,Win32,85.47008547,,,,,,,,,,,,,,,,625.3086,627.1085,627.1085,630.2143,return,2.2772,,57.68229167,,,,,,FBP-OG-81.png,0.43,1.2,9,1,,,,,,,,,,,,,0,3,3,8,1,,,,,,,,,,,,,,,,,,,,,,,,,,,,
,,,,,WIN24_003,20,female,2024-01-25_12h32.22.210,jersey_experiment_5,2023.2.2,Win32,85.47008547,,,,,,,,,,,,,,,,630.2145,631.5086,631.5086,633.1676,return,0.6587,,68.48958333,,,,,,FBP-YG-71.png,0.45,1.2,35,0.5,,,,,,,,,,,,,0,4,4,34,1,,,,,,,,,,,,,,,,,,,,,,,,,,,,
,,,,,WIN24_003,20,female,2024-01-25_12h32.22.210,jersey_experiment_5,2023.2.2,Win32,85.47008547,,,,,,,,,,,,,,,,633.1677,634.9676,634.9677,637.3911,return,1.506,,14.0625,,,,,,FBP-PT-18.png,0.35,1.2,51,1,,,,,,,,,,,,,0,5,5,50,1,,,,,,,,,,,,,,,,,,,,,,,,,,,,
,,,,,WIN24_003,20,female,2024-01-25_12h32.22.210,jersey_experiment_5,2023.2.2,Win32,85.47008547,,,,,,,,,,,,,,,,637.3913,639.1915,639.1915,641.0973,return,0.8989,,49.609375,,,,,,FBP-OG-71.png,0.43,1.2,4,1,,,,,,,,,,,,,0,6,6,3,1,,,,,,,,,,,,,,,,,,,,,,,,,,,,
,,,,,WIN24_003,20,female,2024-01-25_12h32.22.210,jersey_experiment_5,2023.2.2,Win32,85.47008547,,,,,,,,,,,,,,,,641.0974,642.3914,642.3914,644.5563,return,1.1542,,54.296875,,,,,,FBP-RB-19.png,0.43,1.2,29,0.5,,,,,,,,,,,,,0,7,7,28,1,,,,,,,,,,,,,,,,,,,,,,,,,,,,
,,,,,WIN24_003,20,female,2024-01-25_12h32.22.210,jersey_experiment_5,2023.2.2,Win32,85.47008547,,,,,,,,,,,,,,,,644.5564,645.8504,645.8505,647.6386,return,0.5703,,44.66145833,,,,,,FBP-YG-81.png,0.4,1.2,38,0.5,,,,,,,,,,,,,0,8,8,37,1,,,,,,,,,,,,,,,,,,,,,,,,,,,,
,,,,,WIN24_003,20,female,2024-01-25_12h32.22.210,jersey_experiment_5,2023.2.2,Win32,85.47008547,,,,,,,,,,,,,,,,647.6388,649.4387,649.4387,650.5564,return,0.6733,,44.66145833,,,,,,FBP-OG-91.png,0.4,1.2,13,1,,,,,,,,,,,,,0,9,9,12,1,,,,,,,,,,,,,,,,,,,,,,,,,,,,
,,,,,WIN24_003,20,female,2024-01-25_12h32.22.210,jersey_experiment_5,2023.2.2,Win32,85.47008547,,,,,,,,,,,,,,,,650.5567,652.3564,652.3564,655.1329,return,0.9431,,59.24479167,,,,,,FBP-OG-81.png,0.45,1.2,10,1,,,,,,,,,,,,,0,10,10,9,1,,,,,,,,,,,,,,,,,,,,,,,,,,,,
,,,,,WIN24_003,20,female,2024-01-25_12h32.22.210,jersey_experiment_5,2023.2.2,Win32,85.47008547,,,,,,,,,,,,,,,,655.1331,656.9332,656.9332,658.792,return,0.7589,,31.11979167,,,,,,FBP-OG-81.png,0.4,1.2,8,1,,,,,,,,,,,,,0,11,11,7,1,,,,,,,,,,,,,,,,,,,,,,,,,,,,
,,,,,WIN24_003,20,female,2024-01-25_12h32.22.210,jersey_experiment_5,2023.2.2,Win32,85.47008547,,,,,,,,,,,,,,,,658.7921,660.5919,660.592,661.7214,return,0.6272,,31.90104167,,,,,,FBP-OG-71.png,0.35,1.2,1,1,,,,,,,,,,,,,0,12,12,0,1,,,,,,,,,,,,,,,,,,,,,,,,,,,,
,,,,,WIN24_003,20,female,2024-01-25_12h32.22.210,jersey_experiment_5,2023.2.2,Win32,85.47008547,,,,,,,,,,,,,,,,661.7217,663.0156,663.0156,665.3686,return,0.5947,,23.69791667,,,,,,FBP-RB-18.png,0.35,1.2,21,0.5,,,,,,,,,,,,,0,13,13,20,1,,,,,,,,,,,,,,,,,,,,,,,,,,,,
,,,,,WIN24_003,20,female,2024-01-25_12h32.22.210,jersey_experiment_5,2023.2.2,Win32,85.47008547,,,,,,,,,,,,,,,,665.3688,667.1687,667.1688,668.7924,return,0.5703,,22.78645833,,,,,,FBP-OG-91.png,0.35,1.2,11,1,,,,,,,,,,,,,0,14,14,10,1,,,,,,,,,,,,,,,,,,,,,,,,,,,,
,,,,,WIN24_003,20,female,2024-01-25_12h32.22.210,jersey_experiment_5,2023.2.2,Win32,85.47008547,,,,,,,,,,,,,,,,668.7926,670.0865,670.0865,671.9455,return,0.5824,,49.08854167,,,,,,FBP-YG-71.png,0.43,1.2,34,0.5,,,,,,,,,,,,,0,15,15,33,1,,,,,,,,,,,,,,,,,,,,,,,,,,,,
,,,,,WIN24_003,20,female,2024-01-25_12h32.22.210,jersey_experiment_5,2023.2.2,Win32,85.47008547,,,,,,,,,,,,,,,,671.9457,673.2396,673.2396,674.9925,return,0.6214,,51.5625,,,,,,FBP-YG-71.png,0.4,1.2,33,0.5,,,,,,,,,,,,,0,16,16,32,1,,,,,,,,,,,,,,,,,,,,,,,,,,,,
,,,,,WIN24_003,20,female,2024-01-25_12h32.22.210,jersey_experiment_5,2023.2.2,Win32,85.47008547,,,,,,,,,,,,,,,,674.9926,676.7926,676.7927,678.8869,return,0.6082,,59.24479167,,,,,,FBP-PT-17.png,0.45,1.2,50,1,,,,,,,,,,,,,0,17,17,49,1,,,,,,,,,,,,,,,,,,,,,,,,,,,,
,,,,,WIN24_003,20,female,2024-01-25_12h32.22.210,jersey_experiment_5,2023.2.2,Win32,85.47008547,,,,,,,,,,,,,,,,678.8871,680.6868,680.6868,682.8634,return,0.612,,30.72916667,,,,,,FBP-PT-19.png,0.37,1.2,57,1,,,,,,,,,,,,,0,18,18,56,1,,,,,,,,,,,,,,,,,,,,,,,,,,,,
,,,,,WIN24_003,20,female,2024-01-25_12h32.22.210,jersey_experiment_5,2023.2.2,Win32,85.47008547,,,,,,,,,,,,,,,,682.8636,684.1576,684.1576,686.4752,return,0.6733,,69.921875,,,,,,FBP-RB-17.png,0.4,1.2,18,0.5,,,,,,,,,,,,,0,19,19,17,1,,,,,,,,,,,,,,,,,,,,,,,,,,,,
,,,,,WIN24_003,20,female,2024-01-25_12h32.22.210,jersey_experiment_5,2023.2.2,Win32,85.47008547,,,,,,,,,,,,,,,,686.4754,688.2755,688.2755,689.84,return,0.6118,,73.69791667,,,,,,FBP-OG-91.png,0.43,1.2,14,1,,,,,,,,,,,,,0,20,20,13,1,,,,,,,,,,,,,,,,,,,,,,,,,,,,
,,,,,WIN24_003,20,female,2024-01-25_12h32.22.210,jersey_experiment_5,2023.2.2,Win32,85.47008547,,,,,,,,,,,,,,,,689.8402,691.6403,691.6404,693.499,return,0.7323,,24.34895833,,,,,,FBP-PT-17.png,0.35,1.2,46,1,,,,,,,,,,,,,0,21,21,45,1,,,,,,,,,,,,,,,,,,,,,,,,,,,,
,,,,,WIN24_003,20,female,2024-01-25_12h32.22.210,jersey_experiment_5,2023.2.2,Win32,85.47008547,,,,,,,,,,,,,,,,693.4991,694.7933,694.7933,696.9227,return,0.616,,74.34895833,,,,,,FBP-RB-17.png,0.45,1.2,20,0.5,,,,,,,,,,,,,0,22,22,19,1,,,,,,,,,,,,,,,,,,,,,,,,,,,,
,,,,,WIN24_003,20,female,2024-01-25_12h32.22.210,jersey_experiment_5,2023.2.2,Win32,85.47008547,,,,,,,,,,,,,,,,696.9229,698.7228,698.7228,701.2288,return,0.5906,,73.17708333,,,,,,FBP-PT-18.png,0.43,1.2,54,1,,,,,,,,,,,,,0,23,23,53,1,,,,,,,,,,,,,,,,,,,,,,,,,,,,
,,,,,WIN24_003,20,female,2024-01-25_12h32.22.210,jersey_experiment_5,2023.2.2,Win32,85.47008547,,,,,,,,,,,,,,,,701.2289,702.5228,702.5229,704.4171,return,0.5661,,75.26041667,,,,,,FBP-RB-18.png,0.45,1.2,25,0.5,,,,,,,,,,,,,0,24,24,24,1,,,,,,,,,,,,,,,,,,,,,,,,,,,,
,,,,,WIN24_003,20,female,2024-01-25_12h32.22.210,jersey_experiment_5,2023.2.2,Win32,85.47008547,,,,,,,,,,,,,,,,704.4174,705.7113,705.7113,707.8407,return,0.5649,,0.130208333,,,,,,FBP-YG-91.png,0.35,1.2,41,0.5,,,,,,,,,,,,,0,25,25,40,1,,,,,,,,,,,,,,,,,,,,,,,,,,,,
,,,,,WIN24_003,20,female,2024-01-25_12h32.22.210,jersey_experiment_5,2023.2.2,Win32,85.47008547,,,,,,,,,,,,,,,,707.8409,709.1349,709.1349,712.5703,return,2.2036,,40.10416667,,,,,,FBP-RB-17.png,0.43,1.2,19,0.5,,,,,,,,,,,,,0,26,26,18,1,,,,,,,,,,,,,,,,,,,,,,,,,,,,
,,,,,WIN24_003,20,female,2024-01-25_12h32.22.210,jersey_experiment_5,2023.2.2,Win32,85.47008547,,,,,,,,,,,,,,,,712.5704,713.8645,713.8645,715.4999,return,0.6268,,54.55729167,,,,,,FBP-YG-81.png,0.45,1.2,40,0.5,,,,,,,,,,,,,0,27,27,39,1,,,,,,,,,,,,,,,,,,,,,,,,,,,,
,,,,,WIN24_003,20,female,2024-01-25_12h32.22.210,jersey_experiment_5,2023.2.2,Win32,85.47008547,,,,,,,,,,,,,,,,715.5001,716.794,716.794,719.5823,return,1.6341,,35.80729167,,,,,,FBP-YG-91.png,0.4,1.2,43,0.5,,,,,,,,,,,,,0,28,28,42,1,,,,,,,,,,,,,,,,,,,,,,,,,,,,
,,,,,WIN24_003,20,female,2024-01-25_12h32.22.210,jersey_experiment_5,2023.2.2,Win32,85.47008547,,,,,,,,,,,,,,,,719.5825,721.3825,721.3825,722.7001,return,0.603,,42.96875,,,,,,FBP-PT-19.png,0.4,1.2,58,1,,,,,,,,,,,,,0,29,29,57,1,,,,,,,,,,,,,,,,,,,,,,,,,,,,
,,,,,WIN24_003,20,female,2024-01-25_12h32.22.210,jersey_experiment_5,2023.2.2,Win32,85.47008547,,,,,,,,,,,,,,,,722.7004,724.5002,724.5002,725.959,return,0.6197,,24.609375,,,,,,FBP-OG-81.png,0.35,1.2,6,1,,,,,,,,,,,,,0,30,30,5,1,,,,,,,,,,,,,,,,,,,,,,,,,,,,
,,,,,WIN24_003,20,female,2024-01-25_12h32.22.210,jersey_experiment_5,2023.2.2,Win32,85.47008547,,,,,,,,,,,,,,,,725.9592,727.7592,727.7592,729.5945,return,0.6145,,51.69270833,,,,,,FBP-PT-17.png,0.4,1.2,48,1,,,,,,,,,,,,,0,31,31,47,1,,,,,,,,,,,,,,,,,,,,,,,,,,,,
,,,,,WIN24_003,20,female,2024-01-25_12h32.22.210,jersey_experiment_5,2023.2.2,Win32,85.47008547,,,,,,,,,,,,,,,,729.5946,731.3945,731.3945,732.4886,return,0.5594,,51.82291667,,,,,,FBP-OG-81.png,0.37,1.2,7,1,,,,,,,,,,,,,0,32,32,6,1,,,,,,,,,,,,,,,,,,,,,,,,,,,,
,,,,,WIN24_003,20,female,2024-01-25_12h32.22.210,jersey_experiment_5,2023.2.2,Win32,85.47008547,,,,,,,,,,,,,,,,732.4887,733.7828,733.7828,735.6299,return,0.6129,,70.96354167,,,,,,FBP-RB-19.png,0.45,1.2,30,0.5,,,,,,,,,,,,,0,33,33,29,1,,,,,,,,,,,,,,,,,,,,,,,,,,,,
,,,,,WIN24_003,20,female,2024-01-25_12h32.22.210,jersey_experiment_5,2023.2.2,Win32,85.47008547,,,,,,,,,,,,,,,,735.6301,737.4299,737.43,738.8418,return,0.5688,,72.91666667,,,,,,FBP-OG-91.png,0.45,1.2,15,1,,,,,,,,,,,,,0,34,34,14,1,,,,,,,,,,,,,,,,,,,,,,,,,,,,
,,,,,WIN24_003,20,female,2024-01-25_12h32.22.210,jersey_experiment_5,2023.2.2,Win32,85.47008547,,,,,,,,,,,,,,,,738.8421,740.6419,740.6419,741.9008,return,0.7305,,71.875,,,,,,FBP-PT-17.png,0.43,1.2,49,1,,,,,,,,,,,,,0,35,35,48,1,,,,,,,,,,,,,,,,,,,,,,,,,,,,
,,,,,WIN24_003,20,female,2024-01-25_12h32.22.210,jersey_experiment_5,2023.2.2,Win32,85.47008547,,,,,,,,,,,,,,,,741.901,743.195,743.195,745.0539,return,0.8467,,72.91666667,,,,,,FBP-YG-91.png,0.43,1.2,44,0.5,,,,,,,,,,,,,0,36,36,43,1,,,,,,,,,,,,,,,,,,,,,,,,,,,,
,,,,,WIN24_003,20,female,2024-01-25_12h32.22.210,jersey_experiment_5,2023.2.2,Win32,85.47008547,,,,,,,,,,,,,,,,745.0541,746.8538,746.8539,748.3011,return,0.801,,67.96875,,,,,,FBP-PT-18.png,0.45,1.2,55,1,,,,,,,,,,,,,0,37,37,54,1,,,,,,,,,,,,,,,,,,,,,,,,,,,,
,,,,,WIN24_003,20,female,2024-01-25_12h32.22.210,jersey_experiment_5,2023.2.2,Win32,85.47008547,,,,,,,,,,,,,,,,748.3012,749.5952,749.5952,751.9482,return,0.6263,,52.86458333,,,,,,FBP-YG-81.png,0.43,1.2,39,0.5,,,,,,,,,,,,,0,38,38,38,1,,,,,,,,,,,,,,,,,,,,,,,,,,,,
,,,,,WIN24_003,20,female,2024-01-25_12h32.22.210,jersey_experiment_5,2023.2.2,Win32,85.47008547,,,,,,,,,,,,,,,,751.9484,753.7483,753.7483,755.466,return,0.6501,,58.85416667,,,,,,FBP-PT-19.png,0.45,1.2,60,1,,,,,,,,,,,,,0,39,39,59,1,,,,,,,,,,,,,,,,,,,,,,,,,,,,
,,,,,WIN24_003,20,female,2024-01-25_12h32.22.210,jersey_experiment_5,2023.2.2,Win32,85.47008547,,,,,,,,,,,,,,,,755.4661,757.2661,757.2661,758.8072,return,0.6431,,25.13020833,,,,,,FBP-OG-91.png,0.37,1.2,12,1,,,,,,,,,,,,,0,40,40,11,1,,,,,,,,,,,,,,,,,,,,,,,,,,,,
,,,,,WIN24_003,20,female,2024-01-25_12h32.22.210,jersey_experiment_5,2023.2.2,Win32,85.47008547,,,,,,,,,,,,,,,,758.8074,760.6074,760.6074,763.4191,return,2.0512,,27.99479167,,,,,,FBP-PT-18.png,0.37,1.2,52,1,,,,,,,,,,,,,0,41,41,51,1,,,,,,,,,,,,,,,,,,,,,,,,,,,,
,,,,,WIN24_003,20,female,2024-01-25_12h32.22.210,jersey_experiment_5,2023.2.2,Win32,85.47008547,,,,,,,,,,,,,,,,763.4194,765.2194,765.2194,767.184,return,1.0225,,70.18229167,,,,,,FBP-OG-71.png,0.45,1.2,5,1,,,,,,,,,,,,,0,42,42,4,1,,,,,,,,,,,,,,,,,,,,,,,,,,,,
,,,,,WIN24_003,20,female,2024-01-25_12h32.22.210,jersey_experiment_5,2023.2.2,Win32,85.47008547,,,,,,,,,,,,,,,,767.1842,768.4782,768.4782,769.8547,return,0.5667,,23.95833333,,,,,,FBP-YG-81.png,0.35,1.2,36,0.5,,,,,,,,,,,,,0,43,43,35,1,,,,,,,,,,,,,,,,,,,,,,,,,,,,
,,,,,WIN24_003,20,female,2024-01-25_12h32.22.210,jersey_experiment_5,2023.2.2,Win32,85.47008547,,,,,,,,,,,,,,,,769.855,771.1487,771.1488,773.6431,return,1.5324,,27.86458333,,,,,,FBP-RB-18.png,0.37,1.2,22,0.5,,,,,,,,,,,,,0,44,44,21,1,,,,,,,,,,,,,,,,,,,,,,,,,,,,
,,,,,WIN24_003,20,female,2024-01-25_12h32.22.210,jersey_experiment_5,2023.2.2,Win32,85.47008547,,,,,,,,,,,,,,,,773.6433,774.9373,774.9373,776.9373,return,1.0296,,36.06770833,,,,,,FBP-RB-18.png,0.4,1.2,23,0.5,,,,,,,,,,,,,0,45,45,22,1,,,,,,,,,,,,,,,,,,,,,,,,,,,,
,,,,,WIN24_003,20,female,2024-01-25_12h32.22.210,jersey_experiment_5,2023.2.2,Win32,85.47008547,,,,,,,,,,,,,,,,776.9377,778.2315,778.2315,780.0433,return,0.5563,,41.53645833,,,,,,FBP-YG-81.png,0.37,1.2,37,0.5,,,,,,,,,,,,,0,46,46,36,1,,,,,,,,,,,,,,,,,,,,,,,,,,,,
,,,,,WIN24_003,20,female,2024-01-25_12h32.22.210,jersey_experiment_5,2023.2.2,Win32,85.47008547,,,,,,,,,,,,,,,,780.0436,781.3375,781.3375,783.0198,return,0.5299,,45.703125,,,,,,FBP-RB-18.png,0.43,1.2,24,0.5,,,,,,,,,,,,,0,47,47,23,1,,,,,,,,,,,,,,,,,,,,,,,,,,,,
,,,,,WIN24_003,20,female,2024-01-25_12h32.22.210,jersey_experiment_5,2023.2.2,Win32,85.47008547,,,,,,,,,,,,,,,,783.0201,784.8199,784.82,786.6671,return,0.5922,,69.140625,,,,,,FBP-PT-18.png,0.4,1.2,53,1,,,,,,,,,,,,,0,48,48,52,1,,,,,,,,,,,,,,,,,,,,,,,,,,,,
,,,,,WIN24_003,20,female,2024-01-25_12h32.22.210,jersey_experiment_5,2023.2.2,Win32,85.47008547,,,,,,,,,,,,,,,,786.6673,787.9612,787.9612,789.3848,return,0.5459,,69.140625,,,,,,FBP-RB-17.png,0.37,1.2,17,0.5,,,,,,,,,,,,,0,49,49,16,1,,,,,,,,,,,,,,,,,,,,,,,,,,,,
,,,,,WIN24_003,20,female,2024-01-25_12h32.22.210,jersey_experiment_5,2023.2.2,Win32,85.47008547,,,,,,,,,,,,,,,,789.3851,791.1849,791.1849,792.7848,return,0.6922,,46.09375,,,,,,FBP-OG-71.png,0.37,1.2,2,1,,,,,,,,,,,,,0,50,50,1,1,,,,,,,,,,,,,,,,,,,,,,,,,,,,
,,,,,WIN24_003,20,female,2024-01-25_12h32.22.210,jersey_experiment_5,2023.2.2,Win32,85.47008547,,,,,,,,,,,,,,,,792.785,794.0791,794.0791,795.9027,return,0.555,,30.59895833,,,,,,FBP-YG-71.png,0.35,1.2,31,0.5,,,,,,,,,,,,,0,51,51,30,1,,,,,,,,,,,,,,,,,,,,,,,,,,,,
,,,,,WIN24_003,20,female,2024-01-25_12h32.22.210,jersey_experiment_5,2023.2.2,Win32,85.47008547,,,,,,,,,,,,,,,,795.9029,797.1971,797.1972,799.2911,return,0.5199,,68.359375,,,,,,FBP-YG-91.png,0.45,1.2,45,0.5,,,,,,,,,,,,,0,52,52,44,1,,,,,,,,,,,,,,,,,,,,,,,,,,,,
,,,,,WIN24_003,20,female,2024-01-25_12h32.22.210,jersey_experiment_5,2023.2.2,Win32,85.47008547,,,,,,,,,,,,,,,,799.2913,801.091,801.091,803.0676,return,0.8133,,50.78125,,,,,,FBP-PT-19.png,0.35,1.2,56,1,,,,,,,,,,,,,0,53,53,55,1,,,,,,,,,,,,,,,,,,,,,,,,,,,,
,,,,,WIN24_003,20,female,2024-01-25_12h32.22.210,jersey_experiment_5,2023.2.2,Win32,85.47008547,,,,,,,,,,,,,,,,803.0678,804.3618,804.3618,806.6206,return,0.7548,,55.72916667,,,,,,FBP-YG-71.png,0.37,1.2,32,0.5,,,,,,,,,,,,,0,54,54,31,1,,,,,,,,,,,,,,,,,,,,,,,,,,,,
,,,,,WIN24_003,20,female,2024-01-25_12h32.22.210,jersey_experiment_5,2023.2.2,Win32,85.47008547,,,,,,,,,,,,,,,,806.6208,807.9149,807.9149,810.0445,return,0.9424,,25.78125,,,,,,FBP-RB-17.png,0.35,1.2,16,0.5,,,,,,,,,,,,,0,55,55,15,1,,,,,,,,,,,,,,,,,,,,,,,,,,,,
,,,,,WIN24_003,20,female,2024-01-25_12h32.22.210,jersey_experiment_5,2023.2.2,Win32,85.47008547,,,,,,,,,,,,,,,,810.0446,811.8445,811.8445,813.3032,return,0.7239,,45.3125,,,,,,FBP-PT-19.png,0.43,1.2,59,1,,,,,,,,,,,,,0,56,56,58,1,,,,,,,,,,,,,,,,,,,,,,,,,,,,
,,,,,WIN24_003,20,female,2024-01-25_12h32.22.210,jersey_experiment_5,2023.2.2,Win32,85.47008547,,,,,,,,,,,,,,,,813.3034,814.5974,814.5974,817.374,return,0.7302,,42.96875,,,,,,FBP-RB-19.png,0.35,1.2,26,0.5,,,,,,,,,,,,,0,57,57,25,1,,,,,,,,,,,,,,,,,,,,,,,,,,,,
,,,,,WIN24_003,20,female,2024-01-25_12h32.22.210,jersey_experiment_5,2023.2.2,Win32,85.47008547,,,,,,,,,,,,,,,,817.3742,818.6682,818.6682,820.433,return,0.7062,,57.68229167,,,,,,FBP-RB-19.png,0.4,1.2,28,0.5,,,,,,,,,,,,,0,58,58,27,1,,,,,,,,,,,,,,,,,,,,,,,,,,,,
,,,,,WIN24_003,20,female,2024-01-25_12h32.22.210,jersey_experiment_5,2023.2.2,Win32,85.47008547,,,,,,,,,,,,,,,,820.4331,821.7271,821.7271,823.9037,return,0.6728,,54.94791667,,,,,,FBP-RB-19.png,0.37,1.2,27,0.5,,,,,,,,,,,,,0,59,59,26,1,,,,,,,,,,,,,,,,,,,,,,,,,,,,
,,,,,WIN24_003,20,female,2024-01-25_12h32.22.210,jersey_experiment_5,2023.2.2,Win32,85.47008547,,,,,,,,,,,,,,,,823.9057,825.1979,825.1979,827.198,return,0.7061,,65.625,,,,,,FBP-YG-19.png,0.4,1.2,43,0.5,,,,,,,,,,,,,,,,,,0,0,0,42,1,,,,,,,,,,,,,,,,,,,,,,,
,,,,,WIN24_003,20,female,2024-01-25_12h32.22.210,jersey_experiment_5,2023.2.2,Win32,85.47008547,,,,,,,,,,,,,,,,827.1982,828.4921,828.4922,830.5274,return,1.1637,,67.96875,,,,,,FBP-YG-17.png,0.43,1.2,34,0.5,,,,,,,,,,,,,,,,,,0,1,1,33,1,,,,,,,,,,,,,,,,,,,,,,,
,,,,,WIN24_003,20,female,2024-01-25_12h32.22.210,jersey_experiment_5,2023.2.2,Win32,85.47008547,,,,,,,,,,,,,,,,830.5276,831.8216,831.8216,834.41,return,0.6504,,50.91145833,,,,,,FBP-RB-81.png,0.35,1.2,21,0.5,,,,,,,,,,,,,,,,,,0,2,2,20,1,,,,,,,,,,,,,,,,,,,,,,,
,,,,,WIN24_003,20,female,2024-01-25_12h32.22.210,jersey_experiment_5,2023.2.2,Win32,85.47008547,,,,,,,,,,,,,,,,834.4101,836.21,836.21,838.5512,return,0.7843,,27.734375,,,,,,FBP-OG-18.png,0.35,1.2,6,1,,,,,,,,,,,,,,,,,,0,3,3,5,1,,,,,,,,,,,,,,,,,,,,,,,
,,,,,WIN24_003,20,female,2024-01-25_12h32.22.210,jersey_experiment_5,2023.2.2,Win32,85.47008547,,,,,,,,,,,,,,,,838.5514,840.3514,840.3514,843.2102,return,0.6634,,58.07291667,,,,,,FBP-PT-91.png,0.4,1.2,58,1,,,,,,,,,,,,,,,,,,0,4,4,57,1,,,,,,,,,,,,,,,,,,,,,,,
,,,,,WIN24_003,20,female,2024-01-25_12h32.22.210,jersey_experiment_5,2023.2.2,Win32,85.47008547,,,,,,,,,,,,,,,,843.2104,844.5044,844.5044,846.8103,return,1.2153,,67.44791667,,,,,,FBP-RB-91.png,0.45,1.2,30,0.5,,,,,,,,,,,,,,,,,,0,5,5,29,1,,,,,,,,,,,,,,,,,,,,,,,
,,,,,WIN24_003,20,female,2024-01-25_12h32.22.210,jersey_experiment_5,2023.2.2,Win32,85.47008547,,,,,,,,,,,,,,,,846.8106,848.6105,848.6106,850.0576,return,0.6269,,72.265625,,,,,,FBP-OG-17.png,0.43,1.2,4,1,,,,,,,,,,,,,,,,,,0,6,6,3,1,,,,,,,,,,,,,,,,,,,,,,,
,,,,,WIN24_003,20,female,2024-01-25_12h32.22.210,jersey_experiment_5,2023.2.2,Win32,85.47008547,,,,,,,,,,,,,,,,850.0578,851.3516,851.3516,852.8223,return,0.6421,,71.61458333,,,,,,FBP-YG-19.png,0.45,1.2,45,0.5,,,,,,,,,,,,,,,,,,0,7,7,44,1,,,,,,,,,,,,,,,,,,,,,,,
,,,,,WIN24_003,20,female,2024-01-25_12h32.22.210,jersey_experiment_5,2023.2.2,Win32,85.47008547,,,,,,,,,,,,,,,,852.8225,854.6224,854.6225,856.2225,return,0.683,,67.83854167,,,,,,FBP-OG-17.png,0.4,1.2,3,1,,,,,,,,,,,,,,,,,,0,8,8,2,1,,,,,,,,,,,,,,,,,,,,,,,
,,,,,WIN24_003,20,female,2024-01-25_12h32.22.210,jersey_experiment_5,2023.2.2,Win32,85.47008547,,,,,,,,,,,,,,,,856.2226,858.0227,858.0228,859.5285,return,0.6164,,25.26041667,,,,,,FBP-PT-71.png,0.37,1.2,47,1,,,,,,,,,,,,,,,,,,0,9,9,46,1,,,,,,,,,,,,,,,,,,,,,,,
,,,,,WIN24_003,20,female,2024-01-25_12h32.22.210,jersey_experiment_5,2023.2.2,Win32,85.47008547,,,,,,,,,,,,,,,,859.5287,860.8227,860.8227,862.505,return,0.9,,25.26041667,,,,,,FBP-RB-91.png,0.35,1.2,26,0.5,,,,,,,,,,,,,,,,,,0,10,10,25,1,,,,,,,,,,,,,,,,,,,,,,,
,,,,,WIN24_003,20,female,2024-01-25_12h32.22.210,jersey_experiment_5,2023.2.2,Win32,85.47008547,,,,,,,,,,,,,,,,862.5052,864.3052,864.3052,866.4464,return,0.9542,,29.296875,,,,,,FBP-PT-81.png,0.37,1.2,52,1,,,,,,,,,,,,,,,,,,0,11,11,51,1,,,,,,,,,,,,,,,,,,,,,,,
,,,,,WIN24_003,20,female,2024-01-25_12h32.22.210,jersey_experiment_5,2023.2.2,Win32,85.47008547,,,,,,,,,,,,,,,,866.4467,867.7406,867.7406,870.27,return,0.6128,,30.859375,,,,,,FBP-YG-19.png,0.37,1.2,42,0.5,,,,,,,,,,,,,,,,,,0,12,12,41,1,,,,,,,,,,,,,,,,,,,,,,,
,,,,,WIN24_003,20,female,2024-01-25_12h32.22.210,jersey_experiment_5,2023.2.2,Win32,85.47008547,,,,,,,,,,,,,,,,870.2702,871.5642,871.5642,873.6584,return,0.7103,,58.46354167,,,,,,FBP-YG-17.png,0.4,1.2,33,0.5,,,,,,,,,,,,,,,,,,0,13,13,32,1,,,,,,,,,,,,,,,,,,,,,,,
,,,,,WIN24_003,20,female,2024-01-25_12h32.22.210,jersey_experiment_5,2023.2.2,Win32,85.47008547,,,,,,,,,,,,,,,,873.6586,875.4586,875.4586,876.988,return,0.6135,,66.53645833,,,,,,FBP-OG-18.png,0.43,1.2,9,1,,,,,,,,,,,,,,,,,,0,14,14,8,1,,,,,,,,,,,,,,,,,,,,,,,
,,,,,WIN24_003,20,female,2024-01-25_12h32.22.210,jersey_experiment_5,2023.2.2,Win32,85.47008547,,,,,,,,,,,,,,,,876.9882,878.7879,878.7879,881.8469,return,2.3941,,60.02604167,,,,,,FBP-PT-81.png,0.4,1.2,53,1,,,,,,,,,,,,,,,,,,0,15,15,52,1,,,,,,,,,,,,,,,,,,,,,,,
,,,,,WIN24_003,20,female,2024-01-25_12h32.22.210,jersey_experiment_5,2023.2.2,Win32,85.47008547,,,,,,,,,,,,,,,,881.847,883.1411,883.1411,885.0705,return,0.5886,,29.16666667,,,,,,FBP-YG-17.png,0.35,1.2,31,0.5,,,,,,,,,,,,,,,,,,0,16,16,30,1,,,,,,,,,,,,,,,,,,,,,,,
,,,,,WIN24_003,20,female,2024-01-25_12h32.22.210,jersey_experiment_5,2023.2.2,Win32,85.47008547,,,,,,,,,,,,,,,,885.0707,886.8706,886.8707,888.9059,return,0.64,,25.52083333,,,,,,FBP-PT-81.png,0.35,1.2,51,1,,,,,,,,,,,,,,,,,,0,17,17,50,1,,,,,,,,,,,,,,,,,,,,,,,
,,,,,WIN24_003,20,female,2024-01-25_12h32.22.210,jersey_experiment_5,2023.2.2,Win32,85.47008547,,,,,,,,,,,,,,,,888.9061,890.2001,890.2001,892.1885,return,0.697,,70.703125,,,,,,FBP-RB-91.png,0.43,1.2,29,0.5,,,,,,,,,,,,,,,,,,0,18,18,28,1,,,,,,,,,,,,,,,,,,,,,,,
,,,,,WIN24_003,20,female,2024-01-25_12h32.22.210,jersey_experiment_5,2023.2.2,Win32,85.47008547,,,,,,,,,,,,,,,,892.1887,893.9886,893.9886,895.2473,return,0.5896,,73.56770833,,,,,,FBP-PT-81.png,0.43,1.2,54,1,,,,,,,,,,,,,,,,,,0,19,19,53,1,,,,,,,,,,,,,,,,,,,,,,,
,,,,,WIN24_003,20,female,2024-01-25_12h32.22.210,jersey_experiment_5,2023.2.2,Win32,85.47008547,,,,,,,,,,,,,,,,895.2476,896.5416,896.5416,898.0593,return,0.5553,,68.61979167,,,,,,FBP-RB-71.png,0.35,1.2,16,0.5,,,,,,,,,,,,,,,,,,0,20,20,15,1,,,,,,,,,,,,,,,,,,,,,,,
,,,,,WIN24_003,20,female,2024-01-25_12h32.22.210,jersey_experiment_5,2023.2.2,Win32,85.47008547,,,,,,,,,,,,,,,,898.0596,899.8594,899.8594,902.5888,return,0.6256,,54.296875,,,,,,FBP-OG-17.png,0.37,1.2,2,1,,,,,,,,,,,,,,,,,,0,21,21,1,1,,,,,,,,,,,,,,,,,,,,,,,
,,,,,WIN24_003,20,female,2024-01-25_12h32.22.210,jersey_experiment_5,2023.2.2,Win32,85.47008547,,,,,,,,,,,,,,,,902.5891,904.389,904.389,905.7536,return,0.5229,,63.54166667,,,,,,FBP-PT-71.png,0.43,1.2,49,1,,,,,,,,,,,,,,,,,,0,22,22,48,1,,,,,,,,,,,,,,,,,,,,,,,
,,,,,WIN24_003,20,female,2024-01-25_12h32.22.210,jersey_experiment_5,2023.2.2,Win32,85.47008547,,,,,,,,,,,,,,,,905.7538,907.0478,907.0478,909.2008,return,0.5415,,76.43229167,,,,,,FBP-RB-81.png,0.45,1.2,25,0.5,,,,,,,,,,,,,,,,,,0,23,23,24,1,,,,,,,,,,,,,,,,,,,,,,,
,,,,,WIN24_003,20,female,2024-01-25_12h32.22.210,jersey_experiment_5,2023.2.2,Win32,85.47008547,,,,,,,,,,,,,,,,909.2011,911.0009,911.0009,912.9068,return,0.5687,,51.82291667,,,,,,FBP-OG-17.png,0.35,1.2,1,1,,,,,,,,,,,,,,,,,,0,24,24,0,1,,,,,,,,,,,,,,,,,,,,,,,
,,,,,WIN24_003,20,female,2024-01-25_12h32.22.210,jersey_experiment_5,2023.2.2,Win32,85.47008547,,,,,,,,,,,,,,,,912.907,914.2008,914.2008,916.154,return,0.5459,,42.44791667,,,,,,FBP-YG-19.png,0.35,1.2,41,0.5,,,,,,,,,,,,,,,,,,0,25,25,40,1,,,,,,,,,,,,,,,,,,,,,,,
,,,,,WIN24_003,20,female,2024-01-25_12h32.22.210,jersey_experiment_5,2023.2.2,Win32,85.47008547,,,,,,,,,,,,,,,,916.1542,917.4482,917.4482,918.9894,return,0.5311,,37.63020833,,,,,,FBP-YG-18.png,0.37,1.2,37,0.5,,,,,,,,,,,,,,,,,,0,26,26,36,1,,,,,,,,,,,,,,,,,,,,,,,
,,,,,WIN24_003,20,female,2024-01-25_12h32.22.210,jersey_experiment_5,2023.2.2,Win32,85.47008547,,,,,,,,,,,,,,,,918.9897,920.2836,920.2836,922.0483,return,0.5423,,72.78645833,,,,,,FBP-RB-81.png,0.4,1.2,23,0.5,,,,,,,,,,,,,,,,,,0,27,27,22,1,,,,,,,,,,,,,,,,,,,,,,,
,,,,,WIN24_003,20,female,2024-01-25_12h32.22.210,jersey_experiment_5,2023.2.2,Win32,85.47008547,,,,,,,,,,,,,,,,922.0486,923.3427,923.3427,925.7426,return,0.5555,,77.60416667,,,,,,FBP-RB-71.png,0.43,1.2,19,0.5,,,,,,,,,,,,,,,,,,0,28,28,18,1,,,,,,,,,,,,,,,,,,,,,,,
,,,,,WIN24_003,20,female,2024-01-25_12h32.22.210,jersey_experiment_5,2023.2.2,Win32,85.47008547,,,,,,,,,,,,,,,,925.7428,927.0368,927.0368,928.4485,return,0.5636,,80.59895833,,,,,,FBP-YG-19.png,0.43,1.2,44,0.5,,,,,,,,,,,,,,,,,,0,29,29,43,1,,,,,,,,,,,,,,,,,,,,,,,
,,,,,WIN24_003,20,female,2024-01-25_12h32.22.210,jersey_experiment_5,2023.2.2,Win32,85.47008547,,,,,,,,,,,,,,,,928.4488,930.2487,930.2487,931.5192,return,0.5413,,76.953125,,,,,,FBP-OG-19.png,0.43,1.2,14,1,,,,,,,,,,,,,,,,,,0,30,30,13,1,,,,,,,,,,,,,,,,,,,,,,,
,,,,,WIN24_003,20,female,2024-01-25_12h32.22.210,jersey_experiment_5,2023.2.2,Win32,85.47008547,,,,,,,,,,,,,,,,931.5194,932.8133,932.8133,934.1076,return,0.5209,,84.765625,,,,,,FBP-RB-71.png,0.45,1.2,20,0.5,,,,,,,,,,,,,,,,,,0,31,31,19,1,,,,,,,,,,,,,,,,,,,,,,,
,,,,,WIN24_003,20,female,2024-01-25_12h32.22.210,jersey_experiment_5,2023.2.2,Win32,85.47008547,,,,,,,,,,,,,,,,934.1077,935.4017,935.4018,937.8488,return,0.5233,,77.60416667,,,,,,FBP-RB-71.png,0.4,1.2,18,0.5,,,,,,,,,,,,,,,,,,0,32,32,17,1,,,,,,,,,,,,,,,,,,,,,,,
,,,,,WIN24_003,20,female,2024-01-25_12h32.22.210,jersey_experiment_5,2023.2.2,Win32,85.47008547,,,,,,,,,,,,,,,,937.8491,939.6491,939.6491,940.7314,return,0.6138,,77.60416667,,,,,,FBP-PT-71.png,0.4,1.2,48,1,,,,,,,,,,,,,,,,,,0,33,33,47,1,,,,,,,,,,,,,,,,,,,,,,,
,,,,,WIN24_003,20,female,2024-01-25_12h32.22.210,jersey_experiment_5,2023.2.2,Win32,85.47008547,,,,,,,,,,,,,,,,940.7316,942.5315,942.5315,943.802,return,0.6266,,71.22395833,,,,,,FBP-PT-71.png,0.35,1.2,46,1,,,,,,,,,,,,,,,,,,0,34,34,45,1,,,,,,,,,,,,,,,,,,,,,,,
,,,,,WIN24_003,20,female,2024-01-25_12h32.22.210,jersey_experiment_5,2023.2.2,Win32,85.47008547,,,,,,,,,,,,,,,,943.8023,945.0962,945.0963,946.5668,return,0.594,,70.57291667,,,,,,FBP-RB-91.png,0.37,1.2,27,0.5,,,,,,,,,,,,,,,,,,0,35,35,26,1,,,,,,,,,,,,,,,,,,,,,,,
,,,,,WIN24_003,20,female,2024-01-25_12h32.22.210,jersey_experiment_5,2023.2.2,Win32,85.47008547,,,,,,,,,,,,,,,,946.5669,947.8611,947.8611,950.2023,return,0.6265,,68.09895833,,,,,,FBP-RB-81.png,0.37,1.2,22,0.5,,,,,,,,,,,,,,,,,,0,36,36,21,1,,,,,,,,,,,,,,,,,,,,,,,
,,,,,WIN24_003,20,female,2024-01-25_12h32.22.210,jersey_experiment_5,2023.2.2,Win32,85.47008547,,,,,,,,,,,,,,,,950.2025,952.0025,952.0026,953.7083,return,0.6847,,87.5,,,,,,FBP-OG-17.png,0.45,1.2,5,1,,,,,,,,,,,,,,,,,,0,37,37,4,1,,,,,,,,,,,,,,,,,,,,,,,
,,,,,WIN24_003,20,female,2024-01-25_12h32.22.210,jersey_experiment_5,2023.2.2,Win32,85.47008547,,,,,,,,,,,,,,,,953.7085,955.5084,955.5084,956.9083,return,0.6008,,84.11458333,,,,,,FBP-OG-19.png,0.4,1.2,13,1,,,,,,,,,,,,,,,,,,0,38,38,12,1,,,,,,,,,,,,,,,,,,,,,,,
,,,,,WIN24_003,20,female,2024-01-25_12h32.22.210,jersey_experiment_5,2023.2.2,Win32,85.47008547,,,,,,,,,,,,,,,,956.9086,958.7087,958.7087,960.0262,return,0.6857,,86.71875,,,,,,FBP-PT-91.png,0.43,1.2,59,1,,,,,,,,,,,,,,,,,,0,39,39,58,1,,,,,,,,,,,,,,,,,,,,,,,
,,,,,WIN24_003,20,female,2024-01-25_12h32.22.210,jersey_experiment_5,2023.2.2,Win32,85.47008547,,,,,,,,,,,,,,,,960.0264,961.3203,961.3203,963.144,return,0.6283,,86.84895833,,,,,,FBP-RB-81.png,0.43,1.2,24,0.5,,,,,,,,,,,,,,,,,,0,40,40,23,1,,,,,,,,,,,,,,,,,,,,,,,
,,,,,WIN24_003,20,female,2024-01-25_12h32.22.210,jersey_experiment_5,2023.2.2,Win32,85.47008547,,,,,,,,,,,,,,,,963.1441,964.944,964.944,966.6027,return,0.6391,,91.40625,,,,,,FBP-OG-18.png,0.45,1.2,10,1,,,,,,,,,,,,,,,,,,0,41,41,9,1,,,,,,,,,,,,,,,,,,,,,,,
,,,,,WIN24_003,20,female,2024-01-25_12h32.22.210,jersey_experiment_5,2023.2.2,Win32,85.47008547,,,,,,,,,,,,,,,,966.603,967.897,967.897,969.3677,return,0.5941,,85.80729167,,,,,,FBP-YG-18.png,0.4,1.2,38,0.5,,,,,,,,,,,,,,,,,,0,42,42,37,1,,,,,,,,,,,,,,,,,,,,,,,
,,,,,WIN24_003,20,female,2024-01-25_12h32.22.210,jersey_experiment_5,2023.2.2,Win32,85.47008547,,,,,,,,,,,,,,,,969.3679,971.1678,971.1679,972.556,return,0.6011,,77.99479167,,,,,,FBP-OG-19.png,0.37,1.2,12,1,,,,,,,,,,,,,,,,,,0,43,43,11,1,,,,,,,,,,,,,,,,,,,,,,,
,,,,,WIN24_003,20,female,2024-01-25_12h32.22.210,jersey_experiment_5,2023.2.2,Win32,85.47008547,,,,,,,,,,,,,,,,972.5563,973.8501,973.8501,975.2267,return,0.6144,,83.07291667,,,,,,FBP-YG-17.png,0.45,1.2,35,0.5,,,,,,,,,,,,,,,,,,0,44,44,34,1,,,,,,,,,,,,,,,,,,,,,,,
,,,,,WIN24_003,20,female,2024-01-25_12h32.22.210,jersey_experiment_5,2023.2.2,Win32,85.47008547,,,,,,,,,,,,,,,,975.227,976.5208,976.5209,977.8621,return,0.5719,,79.6875,,,,,,FBP-YG-18.png,0.35,1.2,36,0.5,,,,,,,,,,,,,,,,,,0,45,45,35,1,,,,,,,,,,,,,,,,,,,,,,,
,,,,,WIN24_003,20,female,2024-01-25_12h32.22.210,jersey_experiment_5,2023.2.2,Win32,85.47008547,,,,,,,,,,,,,,,,977.8624,979.6621,979.6621,980.8976,return,0.5894,,95.05208333,,,,,,FBP-PT-71.png,0.45,1.2,50,1,,,,,,,,,,,,,,,,,,0,46,46,49,1,,,,,,,,,,,,,,,,,,,,,,,
,,,,,WIN24_003,20,female,2024-01-25_12h32.22.210,jersey_experiment_5,2023.2.2,Win32,85.47008547,,,,,,,,,,,,,,,,980.8979,982.6976,982.6976,984.6505,return,0.5689,,76.82291667,,,,,,FBP-OG-19.png,0.35,1.2,11,1,,,,,,,,,,,,,,,,,,0,47,47,10,1,,,,,,,,,,,,,,,,,,,,,,,
,,,,,WIN24_003,20,female,2024-01-25_12h32.22.210,jersey_experiment_5,2023.2.2,Win32,85.47008547,,,,,,,,,,,,,,,,984.6507,986.4508,986.4509,987.8507,return,0.5322,,82.68229167,,,,,,FBP-PT-91.png,0.35,1.2,56,1,,,,,,,,,,,,,,,,,,0,48,48,55,1,,,,,,,,,,,,,,,,,,,,,,,
,,,,,WIN24_003,20,female,2024-01-25_12h32.22.210,jersey_experiment_5,2023.2.2,Win32,85.47008547,,,,,,,,,,,,,,,,987.851,989.6507,989.6507,990.7919,return,0.5584,,88.02083333,,,,,,FBP-OG-18.png,0.4,1.2,8,1,,,,,,,,,,,,,,,,,,0,49,49,7,1,,,,,,,,,,,,,,,,,,,,,,,
,,,,,WIN24_003,20,female,2024-01-25_12h32.22.210,jersey_experiment_5,2023.2.2,Win32,85.47008547,,,,,,,,,,,,,,,,990.7922,992.5921,992.5921,993.9451,return,0.5337,,85.67708333,,,,,,FBP-OG-18.png,0.37,1.2,7,1,,,,,,,,,,,,,,,,,,0,50,50,6,1,,,,,,,,,,,,,,,,,,,,,,,
,,,,,WIN24_003,20,female,2024-01-25_12h32.22.210,jersey_experiment_5,2023.2.2,Win32,85.47008547,,,,,,,,,,,,,,,,993.9452,995.7451,995.7451,997.2392,return,0.6055,,95.83333333,,,,,,FBP-PT-81.png,0.45,1.2,55,1,,,,,,,,,,,,,,,,,,0,51,51,54,1,,,,,,,,,,,,,,,,,,,,,,,
,,,,,WIN24_003,20,female,2024-01-25_12h32.22.210,jersey_experiment_5,2023.2.2,Win32,85.47008547,,,,,,,,,,,,,,,,997.2394,998.5335,998.5335,1000.1217,return,0.5206,,75.390625,,,,,,FBP-RB-71.png,0.37,1.2,17,0.5,,,,,,,,,,,,,,,,,,0,52,52,16,1,,,,,,,,,,,,,,,,,,,,,,,
,,,,,WIN24_003,20,female,2024-01-25_12h32.22.210,jersey_experiment_5,2023.2.2,Win32,85.47008547,,,,,,,,,,,,,,,,1000.1219,1001.4161,1001.4161,1002.8865,return,0.62,,80.59895833,,,,,,FBP-YG-17.png,0.37,1.2,32,0.5,,,,,,,,,,,,,,,,,,0,53,53,31,1,,,,,,,,,,,,,,,,,,,,,,,
,,,,,WIN24_003,20,female,2024-01-25_12h32.22.210,jersey_experiment_5,2023.2.2,Win32,85.47008547,,,,,,,,,,,,,,,,1002.8867,1004.1807,1004.1807,1005.6395,return,0.5482,,88.93229167,,,,,,FBP-YG-18.png,0.43,1.2,39,0.5,,,,,,,,,,,,,,,,,,0,54,54,38,1,,,,,,,,,,,,,,,,,,,,,,,
,,,,,WIN24_003,20,female,2024-01-25_12h32.22.210,jersey_experiment_5,2023.2.2,Win32,85.47008547,,,,,,,,,,,,,,,,1005.6397,1007.4396,1007.4396,1010.7103,return,2.2417,,65.36458333,,,,,,FBP-PT-91.png,0.37,1.2,57,1,,,,,,,,,,,,,,,,,,0,55,55,56,1,,,,,,,,,,,,,,,,,,,,,,,
,,,,,WIN24_003,20,female,2024-01-25_12h32.22.210,jersey_experiment_5,2023.2.2,Win32,85.47008547,,,,,,,,,,,,,,,,1010.7104,1012.0045,1012.0045,1013.6164,return,0.6456,,82.94270833,,,,,,FBP-YG-18.png,0.45,1.2,40,0.5,,,,,,,,,,,,,,,,,,0,56,56,39,1,,,,,,,,,,,,,,,,,,,,,,,
,,,,,WIN24_003,20,female,2024-01-25_12h32.22.210,jersey_experiment_5,2023.2.2,Win32,85.47008547,,,,,,,,,,,,,,,,1013.6165,1015.4164,1015.4164,1017.0988,return,0.6967,,88.93229167,,,,,,FBP-OG-19.png,0.45,1.2,15,1,,,,,,,,,,,,,,,,,,0,57,57,14,1,,,,,,,,,,,,,,,,,,,,,,,
,,,,,WIN24_003,20,female,2024-01-25_12h32.22.210,jersey_experiment_5,2023.2.2,Win32,85.47008547,,,,,,,,,,,,,,,,1017.099,1018.8991,1018.8991,1020.3931,return,0.7222,,91.14583333,,,,,,FBP-PT-91.png,0.45,1.2,60,1,,,,,,,,,,,,,,,,,,0,58,58,59,1,,,,,,,,,,,,,,,,,,,,,,,
,,,,,WIN24_003,20,female,2024-01-25_12h32.22.210,jersey_experiment_5,2023.2.2,Win32,85.47008547,,,,,,,,,,,,,,,,1020.3932,1021.6871,1021.6871,1023.9109,return,0.702,,73.046875,,,,,,FBP-RB-91.png,0.4,1.2,28,0.5,,,,,,,,,,,,,,,,,,0,59,59,27,1,,,,,,,,,,,,,,,,,,,,,,,
,,,,,WIN24_003,20,female,2024-01-25_12h32.22.210,jersey_experiment_5,2023.2.2,Win32,85.47008547,,,,,,,,,,,,,,,,,,,,,,,,,,,,,,,,,,,,,,,,,,,,,,,,,,,,,,,,1023.9113,1030.2524,return,6.3307,,,,,,,,,,,,,,,,,,,
,,,,,WIN24_003,20,female,2024-01-25_12h32.22.210,jersey_experiment_5,2023.2.2,Win32,85.47008547,,,,,,,,,,,,,,,,,,,,,,,,,,,,,,,,,,,,,,,,,,,,,,,,,,,,,,,,,,,,,1030.2524,1037.5584,1,5.719,return,1.5726,,,,,,,,,,,,
,,,,,WIN24_003,20,female,2024-01-25_12h32.22.210,jersey_experiment_5,2023.2.2,Win32,85.47008547,,,,,,,,,,,,,,,,,,,,,,,,,,,,,,,,,,,,,,,,,,,,,,,,,,,,,,,,,,,,,,,,,,,,1037.5586,1105.5352,If the color of the player's skin impacts my rating on the scale for how bulky they are,right,43.2617,,,,,,
,,,,,WIN24_003,20,female,2024-01-25_12h32.22.210,jersey_experiment_5,2023.2.2,Win32,85.47008547,,,,,,,,,,,,,,,,,,,,,,,,,,,,,,,,,,,,,,,,,,,,,,,,,,,,,,,,,,,,,,,,,,,,,,,,,,1105.5353,1110.0788,return,4.5308,