requirements.started,requirements.stopped,key_resp_3.keys,key_resp_3.rt,key_resp_3.duration,Subject ID,Age,Gender,date,expName,psychopyVersion,OS,frameRate,instructions1.started,instructions1.stopped,key_resp.keys,key_resp.rt,key_resp.duration,example.started,example.stopped,enter_2.keys,enter_2.rt,enter_2.duration,instructions2.started,instructions2.stopped,enter_3.keys,enter_3.rt,enter_3.duration,image.started,image.stopped,slider_2.started,slider_2.stopped,next.keys,next.rt,next.duration,slider.response,trial_block_1.thisRepN,trial_block_1.thisTrialN,trial_block_1.thisN,trial_block_1.thisIndex,trial_block_1.ran,Path,Width,Height,Index,Duration,trial_block_2.thisRepN,trial_block_2.thisTrialN,trial_block_2.thisN,trial_block_2.thisIndex,trial_block_2.ran,rest_break.started,rest_break.stopped,end_break.started,end_break.stopped,key_resp_5.keys,key_resp_5.rt,key_resp_5.duration,trial_block_3.thisRepN,trial_block_3.thisTrialN,trial_block_3.thisN,trial_block_3.thisIndex,trial_block_3.ran,trial_block_4.thisRepN,trial_block_4.thisTrialN,trial_block_4.thisN,trial_block_4.thisIndex,trial_block_4.ran,questions_intro.started,questions_intro.stopped,enter_12.keys,enter_12.rt,enter_12.duration,question2.started,question2.stopped,question_doingbest.response,question_doingbest.rt,enter_15.keys,enter_15.rt,enter_15.duration,pattern.started,pattern.stopped,pattern_2.text,enter_17.keys,enter_17.rt,enter_17.duration,thankyou.started,thankyou.stopped,enter_14.keys,enter_14.rt,enter_14.duration
0.0002,17.9547,return,17.9509,,WIN24_067,18,Male,2024-02-22_14h12.28.585,jersey_experiment_5,2023.2.2,Win32,84.74576271,,,,,,,,,,,,,,,,,,,,,,,,,,,,,,,,,,,,,,,,,,,,,,,,,,,,,,,,,,,,,,,,,,,,,,,,,,,,,,
,,,,,WIN24_067,18,Male,2024-02-22_14h12.28.585,jersey_experiment_5,2023.2.2,Win32,84.74576271,17.9548,24.5985,return,6.6284,,,,,,,,,,,,,,,,,,,,,,,,,,,,,,,,,,,,,,,,,,,,,,,,,,,,,,,,,,,,,,,,,,,,,,,,,,
,,,,,WIN24_067,18,Male,2024-02-22_14h12.28.585,jersey_experiment_5,2023.2.2,Win32,84.74576271,,,,,,24.5985,28.1515,return,3.5175,,,,,,,,,,,,,,,,,,,,,,,,,,,,,,,,,,,,,,,,,,,,,,,,,,,,,,,,,,,,,,,,,,,,,
,,,,,WIN24_067,18,Male,2024-02-22_14h12.28.585,jersey_experiment_5,2023.2.2,Win32,84.74576271,,,,,,,,,,,28.1515,41.7168,return,13.5595,,,,,,,,,,,,,,,,,,,,,,,,,,,,,,,,,,,,,,,,,,,,,,,,,,,,,,,,,,,,,,,,
,,,,,WIN24_067,18,Male,2024-02-22_14h12.28.585,jersey_experiment_5,2023.2.2,Win32,84.74576271,,,,,,,,,,,,,,,,41.7231,43.5166,43.5166,51.5992,return,1.6375,,50.65104167,0,0,0,16,1,FBP-RB-17.png,0.37,1.2,17,1,,,,,,,,,,,,,,,,,,,,,,,,,,,,,,,,,,,,,,,,,,,,,
,,,,,WIN24_067,18,Male,2024-02-22_14h12.28.585,jersey_experiment_5,2023.2.2,Win32,84.74576271,,,,,,,,,,,,,,,,51.5994,53.3993,53.3993,55.7405,return,0.7062,,55.078125,0,1,1,15,1,FBP-RB-17.png,0.35,1.2,16,1,,,,,,,,,,,,,,,,,,,,,,,,,,,,,,,,,,,,,,,,,,,,,
,,,,,WIN24_067,18,Male,2024-02-22_14h12.28.585,jersey_experiment_5,2023.2.2,Win32,84.74576271,,,,,,,,,,,,,,,,55.7408,57.0347,57.0348,58.5994,return,0.8526,,72.265625,0,2,2,12,1,FBP-OG-91.png,0.4,1.2,13,0.5,,,,,,,,,,,,,,,,,,,,,,,,,,,,,,,,,,,,,,,,,,,,,
,,,,,WIN24_067,18,Male,2024-02-22_14h12.28.585,jersey_experiment_5,2023.2.2,Win32,84.74576271,,,,,,,,,,,,,,,,58.5996,60.3995,60.3996,61.6584,return,0.5772,,88.15104167,0,3,3,18,1,FBP-RB-17.png,0.43,1.2,19,1,,,,,,,,,,,,,,,,,,,,,,,,,,,,,,,,,,,,,,,,,,,,,
,,,,,WIN24_067,18,Male,2024-02-22_14h12.28.585,jersey_experiment_5,2023.2.2,Win32,84.74576271,,,,,,,,,,,,,,,,61.6587,62.9525,62.9525,64.3409,return,0.5962,,65.234375,0,4,4,11,1,FBP-OG-91.png,0.37,1.2,12,0.5,,,,,,,,,,,,,,,,,,,,,,,,,,,,,,,,,,,,,,,,,,,,,
,,,,,WIN24_067,18,Male,2024-02-22_14h12.28.585,jersey_experiment_5,2023.2.2,Win32,84.74576271,,,,,,,,,,,,,,,,64.3411,66.1409,66.141,67.2586,return,0.6711,,68.61979167,0,5,5,21,1,FBP-RB-18.png,0.37,1.2,22,1,,,,,,,,,,,,,,,,,,,,,,,,,,,,,,,,,,,,,,,,,,,,,
,,,,,WIN24_067,18,Male,2024-02-22_14h12.28.585,jersey_experiment_5,2023.2.2,Win32,84.74576271,,,,,,,,,,,,,,,,67.2588,68.5527,68.5528,70.1646,return,0.6426,,73.046875,0,6,6,51,1,FBP-PT-18.png,0.37,1.2,52,0.5,,,,,,,,,,,,,,,,,,,,,,,,,,,,,,,,,,,,,,,,,,,,,
,,,,,WIN24_067,18,Male,2024-02-22_14h12.28.585,jersey_experiment_5,2023.2.2,Win32,84.74576271,,,,,,,,,,,,,,,,70.1648,71.4587,71.4588,72.8706,return,0.5692,,92.44791667,0,7,7,14,1,FBP-OG-91.png,0.45,1.2,15,0.5,,,,,,,,,,,,,,,,,,,,,,,,,,,,,,,,,,,,,,,,,,,,,
,,,,,WIN24_067,18,Male,2024-02-22_14h12.28.585,jersey_experiment_5,2023.2.2,Win32,84.74576271,,,,,,,,,,,,,,,,72.8708,74.1648,74.1648,75.5765,return,0.6515,,85.9375,0,8,8,7,1,FBP-OG-81.png,0.4,1.2,8,0.5,,,,,,,,,,,,,,,,,,,,,,,,,,,,,,,,,,,,,,,,,,,,,
,,,,,WIN24_067,18,Male,2024-02-22_14h12.28.585,jersey_experiment_5,2023.2.2,Win32,84.74576271,,,,,,,,,,,,,,,,75.5768,77.3766,77.3766,78.3883,return,0.5969,,85.9375,0,9,9,33,1,FBP-YG-71.png,0.43,1.2,34,1,,,,,,,,,,,,,,,,,,,,,,,,,,,,,,,,,,,,,,,,,,,,,
,,,,,WIN24_067,18,Male,2024-02-22_14h12.28.585,jersey_experiment_5,2023.2.2,Win32,84.74576271,,,,,,,,,,,,,,,,78.3885,80.1885,80.1885,81.4121,return,0.619,,87.76041667,0,10,10,32,1,FBP-YG-71.png,0.4,1.2,33,1,,,,,,,,,,,,,,,,,,,,,,,,,,,,,,,,,,,,,,,,,,,,,
,,,,,WIN24_067,18,Male,2024-02-22_14h12.28.585,jersey_experiment_5,2023.2.2,Win32,84.74576271,,,,,,,,,,,,,,,,81.4122,82.7062,82.7062,84.2121,return,0.6188,,95.3125,0,11,11,9,1,FBP-OG-81.png,0.45,1.2,10,0.5,,,,,,,,,,,,,,,,,,,,,,,,,,,,,,,,,,,,,,,,,,,,,
,,,,,WIN24_067,18,Male,2024-02-22_14h12.28.585,jersey_experiment_5,2023.2.2,Win32,84.74576271,,,,,,,,,,,,,,,,84.2123,86.0122,86.0122,87.0476,return,0.6405,,95.3125,0,12,12,24,1,FBP-RB-18.png,0.45,1.2,25,1,,,,,,,,,,,,,,,,,,,,,,,,,,,,,,,,,,,,,,,,,,,,,
,,,,,WIN24_067,18,Male,2024-02-22_14h12.28.585,jersey_experiment_5,2023.2.2,Win32,84.74576271,,,,,,,,,,,,,,,,87.0477,88.3417,88.3417,89.8477,return,0.5801,,37.36979167,0,13,13,45,1,FBP-PT-17.png,0.35,1.2,46,0.5,,,,,,,,,,,,,,,,,,,,,,,,,,,,,,,,,,,,,,,,,,,,,
,,,,,WIN24_067,18,Male,2024-02-22_14h12.28.585,jersey_experiment_5,2023.2.2,Win32,84.74576271,,,,,,,,,,,,,,,,89.8479,91.1418,91.1418,92.8124,return,0.5985,,71.35416667,0,14,14,8,1,FBP-OG-81.png,0.43,1.2,9,0.5,,,,,,,,,,,,,,,,,,,,,,,,,,,,,,,,,,,,,,,,,,,,,
,,,,,WIN24_067,18,Male,2024-02-22_14h12.28.585,jersey_experiment_5,2023.2.2,Win32,84.74576271,,,,,,,,,,,,,,,,92.8127,94.1066,94.1066,96.1536,return,1.0856,,79.55729167,0,15,15,52,1,FBP-PT-18.png,0.4,1.2,53,0.5,,,,,,,,,,,,,,,,,,,,,,,,,,,,,,,,,,,,,,,,,,,,,
,,,,,WIN24_067,18,Male,2024-02-22_14h12.28.585,jersey_experiment_5,2023.2.2,Win32,84.74576271,,,,,,,,,,,,,,,,96.1539,97.4479,97.4479,98.6479,return,0.5696,,96.09375,0,16,16,59,1,FBP-PT-19.png,0.45,1.2,60,0.5,,,,,,,,,,,,,,,,,,,,,,,,,,,,,,,,,,,,,,,,,,,,,
,,,,,WIN24_067,18,Male,2024-02-22_14h12.28.585,jersey_experiment_5,2023.2.2,Win32,84.74576271,,,,,,,,,,,,,,,,98.6482,100.4481,100.4481,101.6717,return,0.6757,,99.609375,0,17,17,44,1,FBP-YG-91.png,0.45,1.2,45,1,,,,,,,,,,,,,,,,,,,,,,,,,,,,,,,,,,,,,,,,,,,,,
,,,,,WIN24_067,18,Male,2024-02-22_14h12.28.585,jersey_experiment_5,2023.2.2,Win32,84.74576271,,,,,,,,,,,,,,,,101.6719,103.4716,103.4716,104.4247,return,0.557,,99.609375,0,18,18,39,1,FBP-YG-81.png,0.45,1.2,40,1,,,,,,,,,,,,,,,,,,,,,,,,,,,,,,,,,,,,,,,,,,,,,
,,,,,WIN24_067,18,Male,2024-02-22_14h12.28.585,jersey_experiment_5,2023.2.2,Win32,84.74576271,,,,,,,,,,,,,,,,104.4249,106.2248,106.2248,107.6365,return,0.5596,,41.14583333,0,19,19,20,1,FBP-RB-18.png,0.35,1.2,21,1,,,,,,,,,,,,,,,,,,,,,,,,,,,,,,,,,,,,,,,,,,,,,
,,,,,WIN24_067,18,Male,2024-02-22_14h12.28.585,jersey_experiment_5,2023.2.2,Win32,84.74576271,,,,,,,,,,,,,,,,107.6367,108.9307,108.9307,112.0366,return,2.1258,,33.203125,0,20,20,55,1,FBP-PT-19.png,0.35,1.2,56,0.5,,,,,,,,,,,,,,,,,,,,,,,,,,,,,,,,,,,,,,,,,,,,,
,,,,,WIN24_067,18,Male,2024-02-22_14h12.28.585,jersey_experiment_5,2023.2.2,Win32,84.74576271,,,,,,,,,,,,,,,,112.0369,113.8367,113.8367,116.1545,return,0.6007,,39.84375,0,21,21,31,1,FBP-YG-71.png,0.37,1.2,32,1,,,,,,,,,,,,,,,,,,,,,,,,,,,,,,,,,,,,,,,,,,,,,
,,,,,WIN24_067,18,Male,2024-02-22_14h12.28.585,jersey_experiment_5,2023.2.2,Win32,84.74576271,,,,,,,,,,,,,,,,116.1547,117.4486,117.4486,118.9428,return,0.6241,,84.11458333,0,22,22,47,1,FBP-PT-17.png,0.4,1.2,48,0.5,,,,,,,,,,,,,,,,,,,,,,,,,,,,,,,,,,,,,,,,,,,,,
,,,,,WIN24_067,18,Male,2024-02-22_14h12.28.585,jersey_experiment_5,2023.2.2,Win32,84.74576271,,,,,,,,,,,,,,,,118.943,120.237,120.237,121.6606,return,0.6123,,32.68229167,0,23,23,50,1,FBP-PT-18.png,0.35,1.2,51,0.5,,,,,,,,,,,,,,,,,,,,,,,,,,,,,,,,,,,,,,,,,,,,,
,,,,,WIN24_067,18,Male,2024-02-22_14h12.28.585,jersey_experiment_5,2023.2.2,Win32,84.74576271,,,,,,,,,,,,,,,,121.6608,122.9548,122.9548,124.4725,return,0.7087,,48.828125,0,24,24,1,1,FBP-OG-71.png,0.37,1.2,2,0.5,,,,,,,,,,,,,,,,,,,,,,,,,,,,,,,,,,,,,,,,,,,,,
,,,,,WIN24_067,18,Male,2024-02-22_14h12.28.585,jersey_experiment_5,2023.2.2,Win32,84.74576271,,,,,,,,,,,,,,,,124.4728,126.2726,126.2726,127.4608,return,0.5947,,92.96875,0,25,25,34,1,FBP-YG-71.png,0.45,1.2,35,1,,,,,,,,,,,,,,,,,,,,,,,,,,,,,,,,,,,,,,,,,,,,,
,,,,,WIN24_067,18,Male,2024-02-22_14h12.28.585,jersey_experiment_5,2023.2.2,Win32,84.74576271,,,,,,,,,,,,,,,,127.461,129.2608,129.2608,130.2961,return,0.6029,,92.1875,0,26,26,28,1,FBP-RB-19.png,0.43,1.2,29,1,,,,,,,,,,,,,,,,,,,,,,,,,,,,,,,,,,,,,,,,,,,,,
,,,,,WIN24_067,18,Male,2024-02-22_14h12.28.585,jersey_experiment_5,2023.2.2,Win32,84.74576271,,,,,,,,,,,,,,,,130.2964,132.0962,132.0963,133.0963,return,0.593,,92.1875,0,27,27,29,1,FBP-RB-19.png,0.45,1.2,30,1,,,,,,,,,,,,,,,,,,,,,,,,,,,,,,,,,,,,,,,,,,,,,
,,,,,WIN24_067,18,Male,2024-02-22_14h12.28.585,jersey_experiment_5,2023.2.2,Win32,84.74576271,,,,,,,,,,,,,,,,133.0964,134.3904,134.3905,135.414,return,0.5834,,92.1875,0,28,28,54,1,FBP-PT-18.png,0.45,1.2,55,0.5,,,,,,,,,,,,,,,,,,,,,,,,,,,,,,,,,,,,,,,,,,,,,
,,,,,WIN24_067,18,Male,2024-02-22_14h12.28.585,jersey_experiment_5,2023.2.2,Win32,84.74576271,,,,,,,,,,,,,,,,135.4143,137.2141,137.2141,139.5435,return,1.3798,,29.94791667,0,29,29,41,1,FBP-YG-91.png,0.37,1.2,42,1,,,,,,,,,,,,,,,,,,,,,,,,,,,,,,,,,,,,,,,,,,,,,
,,,,,WIN24_067,18,Male,2024-02-22_14h12.28.585,jersey_experiment_5,2023.2.2,Win32,84.74576271,,,,,,,,,,,,,,,,139.5437,141.3436,141.3436,142.6025,return,0.5538,,8.723958333,0,30,30,40,1,FBP-YG-91.png,0.35,1.2,41,1,,,,,,,,,,,,,,,,,,,,,,,,,,,,,,,,,,,,,,,,,,,,,
,,,,,WIN24_067,18,Male,2024-02-22_14h12.28.585,jersey_experiment_5,2023.2.2,Win32,84.74576271,,,,,,,,,,,,,,,,142.6026,144.4027,144.4028,145.8144,return,0.536,,50.65104167,0,31,31,22,1,FBP-RB-18.png,0.4,1.2,23,1,,,,,,,,,,,,,,,,,,,,,,,,,,,,,,,,,,,,,,,,,,,,,
,,,,,WIN24_067,18,Male,2024-02-22_14h12.28.585,jersey_experiment_5,2023.2.2,Win32,84.74576271,,,,,,,,,,,,,,,,145.8147,147.1086,147.1086,148.4145,return,0.5514,,24.21875,0,32,32,56,1,FBP-PT-19.png,0.37,1.2,57,0.5,,,,,,,,,,,,,,,,,,,,,,,,,,,,,,,,,,,,,,,,,,,,,
,,,,,WIN24_067,18,Male,2024-02-22_14h12.28.585,jersey_experiment_5,2023.2.2,Win32,84.74576271,,,,,,,,,,,,,,,,148.4146,149.7086,149.7086,150.744,return,0.5461,,24.21875,0,33,33,6,1,FBP-OG-81.png,0.37,1.2,7,0.5,,,,,,,,,,,,,,,,,,,,,,,,,,,,,,,,,,,,,,,,,,,,,
,,,,,WIN24_067,18,Male,2024-02-22_14h12.28.585,jersey_experiment_5,2023.2.2,Win32,84.74576271,,,,,,,,,,,,,,,,150.7442,152.5442,152.5443,153.7676,return,0.5212,,51.171875,0,34,34,27,1,FBP-RB-19.png,0.4,1.2,28,1,,,,,,,,,,,,,,,,,,,,,,,,,,,,,,,,,,,,,,,,,,,,,
,,,,,WIN24_067,18,Male,2024-02-22_14h12.28.585,jersey_experiment_5,2023.2.2,Win32,84.74576271,,,,,,,,,,,,,,,,153.7679,155.0618,155.0618,156.5913,return,0.8706,,77.21354167,0,35,35,48,1,FBP-PT-17.png,0.43,1.2,49,0.5,,,,,,,,,,,,,,,,,,,,,,,,,,,,,,,,,,,,,,,,,,,,,
,,,,,WIN24_067,18,Male,2024-02-22_14h12.28.585,jersey_experiment_5,2023.2.2,Win32,84.74576271,,,,,,,,,,,,,,,,156.5915,158.3912,158.3913,159.7091,return,0.5989,,94.66145833,0,36,36,38,1,FBP-YG-81.png,0.43,1.2,39,1,,,,,,,,,,,,,,,,,,,,,,,,,,,,,,,,,,,,,,,,,,,,,
,,,,,WIN24_067,18,Male,2024-02-22_14h12.28.585,jersey_experiment_5,2023.2.2,Win32,84.74576271,,,,,,,,,,,,,,,,159.7094,161.0031,161.0031,161.9327,return,0.5642,,94.66145833,0,37,37,49,1,FBP-PT-17.png,0.45,1.2,50,0.5,,,,,,,,,,,,,,,,,,,,,,,,,,,,,,,,,,,,,,,,,,,,,
,,,,,WIN24_067,18,Male,2024-02-22_14h12.28.585,jersey_experiment_5,2023.2.2,Win32,84.74576271,,,,,,,,,,,,,,,,161.9329,163.7327,163.7327,165.6385,return,0.665,,25.13020833,0,38,38,25,1,FBP-RB-19.png,0.35,1.2,26,1,,,,,,,,,,,,,,,,,,,,,,,,,,,,,,,,,,,,,,,,,,,,,
,,,,,WIN24_067,18,Male,2024-02-22_14h12.28.585,jersey_experiment_5,2023.2.2,Win32,84.74576271,,,,,,,,,,,,,,,,165.6387,167.4388,167.4388,168.3799,return,0.612,,25.13020833,0,39,39,30,1,FBP-YG-71.png,0.35,1.2,31,1,,,,,,,,,,,,,,,,,,,,,,,,,,,,,,,,,,,,,,,,,,,,,
,,,,,WIN24_067,18,Male,2024-02-22_14h12.28.585,jersey_experiment_5,2023.2.2,Win32,84.74576271,,,,,,,,,,,,,,,,168.3801,170.18,170.18,171.4976,return,0.662,,78.38541667,0,40,40,19,1,FBP-RB-17.png,0.45,1.2,20,1,,,,,,,,,,,,,,,,,,,,,,,,,,,,,,,,,,,,,,,,,,,,,
,,,,,WIN24_067,18,Male,2024-02-22_14h12.28.585,jersey_experiment_5,2023.2.2,Win32,84.74576271,,,,,,,,,,,,,,,,171.4979,172.7918,172.7918,174.5566,return,0.7869,,8.723958333,0,41,41,0,1,FBP-OG-71.png,0.35,1.2,1,0.5,,,,,,,,,,,,,,,,,,,,,,,,,,,,,,,,,,,,,,,,,,,,,
,,,,,WIN24_067,18,Male,2024-02-22_14h12.28.585,jersey_experiment_5,2023.2.2,Win32,84.74576271,,,,,,,,,,,,,,,,174.5568,176.3569,176.3569,177.7685,return,0.6152,,76.171875,0,42,42,37,1,FBP-YG-81.png,0.4,1.2,38,1,,,,,,,,,,,,,,,,,,,,,,,,,,,,,,,,,,,,,,,,,,,,,
,,,,,WIN24_067,18,Male,2024-02-22_14h12.28.585,jersey_experiment_5,2023.2.2,Win32,84.74576271,,,,,,,,,,,,,,,,177.7687,179.5685,179.5685,180.6862,return,0.6727,,76.171875,0,43,43,43,1,FBP-YG-91.png,0.43,1.2,44,1,,,,,,,,,,,,,,,,,,,,,,,,,,,,,,,,,,,,,,,,,,,,,
,,,,,WIN24_067,18,Male,2024-02-22_14h12.28.585,jersey_experiment_5,2023.2.2,Win32,84.74576271,,,,,,,,,,,,,,,,180.6864,181.9804,181.9804,183.1098,return,0.5836,,76.171875,0,44,44,13,1,FBP-OG-91.png,0.43,1.2,14,0.5,,,,,,,,,,,,,,,,,,,,,,,,,,,,,,,,,,,,,,,,,,,,,
,,,,,WIN24_067,18,Male,2024-02-22_14h12.28.585,jersey_experiment_5,2023.2.2,Win32,84.74576271,,,,,,,,,,,,,,,,183.1101,184.4041,184.4041,185.3334,return,0.5955,,76.171875,0,45,45,58,1,FBP-PT-19.png,0.43,1.2,59,0.5,,,,,,,,,,,,,,,,,,,,,,,,,,,,,,,,,,,,,,,,,,,,,
,,,,,WIN24_067,18,Male,2024-02-22_14h12.28.585,jersey_experiment_5,2023.2.2,Win32,84.74576271,,,,,,,,,,,,,,,,185.3336,186.6276,186.6276,187.6042,return,0.5617,,76.171875,0,46,46,57,1,FBP-PT-19.png,0.4,1.2,58,0.5,,,,,,,,,,,,,,,,,,,,,,,,,,,,,,,,,,,,,,,,,,,,,
,,,,,WIN24_067,18,Male,2024-02-22_14h12.28.585,jersey_experiment_5,2023.2.2,Win32,84.74576271,,,,,,,,,,,,,,,,187.6044,188.8984,188.8984,192.0396,return,2.6511,,94.921875,0,47,47,4,1,FBP-OG-71.png,0.45,1.2,5,0.5,,,,,,,,,,,,,,,,,,,,,,,,,,,,,,,,,,,,,,,,,,,,,
,,,,,WIN24_067,18,Male,2024-02-22_14h12.28.585,jersey_experiment_5,2023.2.2,Win32,84.74576271,,,,,,,,,,,,,,,,192.0399,193.8397,193.8397,195.5809,return,0.9784,,19.53125,0,48,48,36,1,FBP-YG-81.png,0.37,1.2,37,1,,,,,,,,,,,,,,,,,,,,,,,,,,,,,,,,,,,,,,,,,,,,,
,,,,,WIN24_067,18,Male,2024-02-22_14h12.28.585,jersey_experiment_5,2023.2.2,Win32,84.74576271,,,,,,,,,,,,,,,,195.5811,196.8751,196.8751,198.5222,return,0.6263,,81.90104167,0,49,49,53,1,FBP-PT-18.png,0.43,1.2,54,0.5,,,,,,,,,,,,,,,,,,,,,,,,,,,,,,,,,,,,,,,,,,,,,
,,,,,WIN24_067,18,Male,2024-02-22_14h12.28.585,jersey_experiment_5,2023.2.2,Win32,84.74576271,,,,,,,,,,,,,,,,198.5224,199.8163,199.8163,201.4517,return,0.5897,,12.76041667,0,50,50,10,1,FBP-OG-91.png,0.35,1.2,11,0.5,,,,,,,,,,,,,,,,,,,,,,,,,,,,,,,,,,,,,,,,,,,,,
,,,,,WIN24_067,18,Male,2024-02-22_14h12.28.585,jersey_experiment_5,2023.2.2,Win32,84.74576271,,,,,,,,,,,,,,,,201.4519,203.2517,203.2518,204.6872,return,0.5186,,20.44270833,0,51,51,26,1,FBP-RB-19.png,0.37,1.2,27,1,,,,,,,,,,,,,,,,,,,,,,,,,,,,,,,,,,,,,,,,,,,,,
,,,,,WIN24_067,18,Male,2024-02-22_14h12.28.585,jersey_experiment_5,2023.2.2,Win32,84.74576271,,,,,,,,,,,,,,,,204.6875,205.9813,205.9814,207.2049,return,0.514,,6.25,0,52,52,46,1,FBP-PT-17.png,0.37,1.2,47,0.5,,,,,,,,,,,,,,,,,,,,,,,,,,,,,,,,,,,,,,,,,,,,,
,,,,,WIN24_067,18,Male,2024-02-22_14h12.28.585,jersey_experiment_5,2023.2.2,Win32,84.74576271,,,,,,,,,,,,,,,,207.2051,209.0049,209.0049,212.5698,return,2.8485,,80.859375,0,53,53,17,1,FBP-RB-17.png,0.4,1.2,18,1,,,,,,,,,,,,,,,,,,,,,,,,,,,,,,,,,,,,,,,,,,,,,
,,,,,WIN24_067,18,Male,2024-02-22_14h12.28.585,jersey_experiment_5,2023.2.2,Win32,84.74576271,,,,,,,,,,,,,,,,212.5743,214.3697,214.3698,216.2522,return,1.2241,,95.57291667,0,54,54,23,1,FBP-RB-18.png,0.43,1.2,24,1,,,,,,,,,,,,,,,,,,,,,,,,,,,,,,,,,,,,,,,,,,,,,
,,,,,WIN24_067,18,Male,2024-02-22_14h12.28.585,jersey_experiment_5,2023.2.2,Win32,84.74576271,,,,,,,,,,,,,,,,216.2524,217.5464,217.5464,219.0994,return,0.7174,,4.296875,0,55,55,5,1,FBP-OG-81.png,0.35,1.2,6,0.5,,,,,,,,,,,,,,,,,,,,,,,,,,,,,,,,,,,,,,,,,,,,,
,,,,,WIN24_067,18,Male,2024-02-22_14h12.28.585,jersey_experiment_5,2023.2.2,Win32,84.74576271,,,,,,,,,,,,,,,,219.0996,220.8994,220.8995,223.1113,return,1.0058,,58.85416667,0,56,56,42,1,FBP-YG-91.png,0.4,1.2,43,1,,,,,,,,,,,,,,,,,,,,,,,,,,,,,,,,,,,,,,,,,,,,,
,,,,,WIN24_067,18,Male,2024-02-22_14h12.28.585,jersey_experiment_5,2023.2.2,Win32,84.74576271,,,,,,,,,,,,,,,,223.1115,224.4055,224.4055,225.8055,return,0.612,,89.58333333,0,57,57,3,1,FBP-OG-71.png,0.43,1.2,4,0.5,,,,,,,,,,,,,,,,,,,,,,,,,,,,,,,,,,,,,,,,,,,,,
,,,,,WIN24_067,18,Male,2024-02-22_14h12.28.585,jersey_experiment_5,2023.2.2,Win32,84.74576271,,,,,,,,,,,,,,,,225.8057,227.6056,227.6056,229.0645,return,0.9447,,25.91145833,0,58,58,35,1,FBP-YG-81.png,0.35,1.2,36,1,,,,,,,,,,,,,,,,,,,,,,,,,,,,,,,,,,,,,,,,,,,,,
,,,,,WIN24_067,18,Male,2024-02-22_14h12.28.585,jersey_experiment_5,2023.2.2,Win32,84.74576271,,,,,,,,,,,,,,,,229.0648,230.3587,230.3587,232.041,return,0.6258,,73.4375,0,59,59,2,1,FBP-OG-71.png,0.4,1.2,3,0.5,,,,,,,,,,,,,,,,,,,,,,,,,,,,,,,,,,,,,,,,,,,,,
,,,,,WIN24_067,18,Male,2024-02-22_14h12.28.585,jersey_experiment_5,2023.2.2,Win32,84.74576271,,,,,,,,,,,,,,,,232.0423,233.8413,233.8413,235.1588,return,0.5923,,94.27083333,,,,,,FBP-YG-17.png,0.45,1.2,35,1,0,0,0,34,1,,,,,,,,,,,,,,,,,,,,,,,,,,,,,,,,,,,,,,,,
,,,,,WIN24_067,18,Male,2024-02-22_14h12.28.585,jersey_experiment_5,2023.2.2,Win32,84.74576271,,,,,,,,,,,,,,,,235.1591,236.453,236.453,237.4177,return,0.6032,,94.27083333,,,,,,FBP-PT-91.png,0.45,1.2,60,0.5,0,1,1,59,1,,,,,,,,,,,,,,,,,,,,,,,,,,,,,,,,,,,,,,,,
,,,,,WIN24_067,18,Male,2024-02-22_14h12.28.585,jersey_experiment_5,2023.2.2,Win32,84.74576271,,,,,,,,,,,,,,,,237.4179,239.2177,239.2177,240.5708,return,0.649,,24.73958333,,,,,,FBP-RB-71.png,0.37,1.2,17,1,0,2,2,16,1,,,,,,,,,,,,,,,,,,,,,,,,,,,,,,,,,,,,,,,,
,,,,,WIN24_067,18,Male,2024-02-22_14h12.28.585,jersey_experiment_5,2023.2.2,Win32,84.74576271,,,,,,,,,,,,,,,,240.571,241.8649,241.8649,244.1357,return,1.0505,,75.390625,,,,,,FBP-PT-71.png,0.4,1.2,48,0.5,0,3,3,47,1,,,,,,,,,,,,,,,,,,,,,,,,,,,,,,,,,,,,,,,,
,,,,,WIN24_067,18,Male,2024-02-22_14h12.28.585,jersey_experiment_5,2023.2.2,Win32,84.74576271,,,,,,,,,,,,,,,,244.1359,245.9357,245.9358,248.3829,return,2.2962,,85.15625,,,,,,FBP-RB-91.png,0.4,1.2,28,1,0,4,4,27,1,,,,,,,,,,,,,,,,,,,,,,,,,,,,,,,,,,,,,,,,
,,,,,WIN24_067,18,Male,2024-02-22_14h12.28.585,jersey_experiment_5,2023.2.2,Win32,84.74576271,,,,,,,,,,,,,,,,248.3831,249.6771,249.6771,251.077,return,0.243,,88.80208333,,,,,,FBP-PT-71.png,0.43,1.2,49,0.5,0,5,5,48,1,,,,,,,,,,,,,,,,,,,,,,,,,,,,,,,,,,,,,,,,
,,,,,WIN24_067,18,Male,2024-02-22_14h12.28.585,jersey_experiment_5,2023.2.2,Win32,84.74576271,,,,,,,,,,,,,,,,251.0773,252.8771,252.8771,253.6888,return,0.2732,,84.89583333,,,,,,FBP-YG-18.png,0.43,1.2,39,1,0,6,6,38,1,,,,,,,,,,,,,,,,,,,,,,,,,,,,,,,,,,,,,,,,
,,,,,WIN24_067,18,Male,2024-02-22_14h12.28.585,jersey_experiment_5,2023.2.2,Win32,84.74576271,,,,,,,,,,,,,,,,253.6891,255.489,255.489,257.3715,return,0.8605,,22.00520833,,,,,,FBP-RB-91.png,0.35,1.2,26,1,0,7,7,25,1,,,,,,,,,,,,,,,,,,,,,,,,,,,,,,,,,,,,,,,,
,,,,,WIN24_067,18,Male,2024-02-22_14h12.28.585,jersey_experiment_5,2023.2.2,Win32,84.74576271,,,,,,,,,,,,,,,,257.3716,258.6656,258.6656,259.6421,return,0.2482,,20.96354167,,,,,,FBP-PT-81.png,0.35,1.2,51,0.5,0,8,8,50,1,,,,,,,,,,,,,,,,,,,,,,,,,,,,,,,,,,,,,,,,
,,,,,WIN24_067,18,Male,2024-02-22_14h12.28.585,jersey_experiment_5,2023.2.2,Win32,84.74576271,,,,,,,,,,,,,,,,259.6424,261.4424,261.4424,263.2422,return,1.2028,,67.44791667,,,,,,FBP-YG-18.png,0.4,1.2,38,1,0,9,9,37,1,,,,,,,,,,,,,,,,,,,,,,,,,,,,,,,,,,,,,,,,
,,,,,WIN24_067,18,Male,2024-02-22_14h12.28.585,jersey_experiment_5,2023.2.2,Win32,84.74576271,,,,,,,,,,,,,,,,263.2425,264.5363,264.5364,265.4071,return,0.175,,61.71875,,,,,,FBP-OG-19.png,0.37,1.2,12,0.5,0,10,10,11,1,,,,,,,,,,,,,,,,,,,,,,,,,,,,,,,,,,,,,,,,
,,,,,WIN24_067,18,Male,2024-02-22_14h12.28.585,jersey_experiment_5,2023.2.2,Win32,84.74576271,,,,,,,,,,,,,,,,265.4074,267.207,267.207,268.0071,return,0.1921,,86.45833333,,,,,,FBP-YG-19.png,0.43,1.2,44,1,0,11,11,43,1,,,,,,,,,,,,,,,,,,,,,,,,,,,,,,,,,,,,,,,,
,,,,,WIN24_067,18,Male,2024-02-22_14h12.28.585,jersey_experiment_5,2023.2.2,Win32,84.74576271,,,,,,,,,,,,,,,,268.0073,269.3012,269.3012,270.8424,return,0.7183,,38.41145833,,,,,,FBP-PT-91.png,0.37,1.2,57,0.5,0,12,12,56,1,,,,,,,,,,,,,,,,,,,,,,,,,,,,,,,,,,,,,,,,
,,,,,WIN24_067,18,Male,2024-02-22_14h12.28.585,jersey_experiment_5,2023.2.2,Win32,84.74576271,,,,,,,,,,,,,,,,270.8427,272.6425,272.6426,273.6545,return,0.1832,,40.234375,,,,,,FBP-YG-18.png,0.35,1.2,36,1,0,13,13,35,1,,,,,,,,,,,,,,,,,,,,,,,,,,,,,,,,,,,,,,,,
,,,,,WIN24_067,18,Male,2024-02-22_14h12.28.585,jersey_experiment_5,2023.2.2,Win32,84.74576271,,,,,,,,,,,,,,,,273.6546,275.4544,275.4544,276.2778,return,0.219,,45.44270833,,,,,,FBP-RB-91.png,0.37,1.2,27,1,0,14,14,26,1,,,,,,,,,,,,,,,,,,,,,,,,,,,,,,,,,,,,,,,,
,,,,,WIN24_067,18,Male,2024-02-22_14h12.28.585,jersey_experiment_5,2023.2.2,Win32,84.74576271,,,,,,,,,,,,,,,,276.278,277.572,277.5721,278.678,return,0.1579,,97.00520833,,,,,,FBP-PT-71.png,0.45,1.2,50,0.5,0,15,15,49,1,,,,,,,,,,,,,,,,,,,,,,,,,,,,,,,,,,,,,,,,
,,,,,WIN24_067,18,Male,2024-02-22_14h12.28.585,jersey_experiment_5,2023.2.2,Win32,84.74576271,,,,,,,,,,,,,,,,278.6783,279.9724,279.9724,281.0664,return,0.1553,,100,,,,,,FBP-OG-17.png,0.45,1.2,5,0.5,0,16,16,4,1,,,,,,,,,,,,,,,,,,,,,,,,,,,,,,,,,,,,,,,,
,,,,,WIN24_067,18,Male,2024-02-22_14h12.28.585,jersey_experiment_5,2023.2.2,Win32,84.74576271,,,,,,,,,,,,,,,,281.0666,282.3605,282.3606,283.9253,return,0.2293,,99.86979167,,,,,,FBP-PT-81.png,0.45,1.2,55,0.5,0,17,17,54,1,,,,,,,,,,,,,,,,,,,,,,,,,,,,,,,,,,,,,,,,
,,,,,WIN24_067,18,Male,2024-02-22_14h12.28.585,jersey_experiment_5,2023.2.2,Win32,84.74576271,,,,,,,,,,,,,,,,283.9254,285.7256,285.7256,286.6312,return,0.0858,,100,,,,,,FBP-YG-18.png,0.45,1.2,40,1,0,18,18,39,1,,,,,,,,,,,,,,,,,,,,,,,,,,,,,,,,,,,,,,,,
,,,,,WIN24_067,18,Male,2024-02-22_14h12.28.585,jersey_experiment_5,2023.2.2,Win32,84.74576271,,,,,,,,,,,,,,,,286.6314,288.4317,288.4317,289.8197,return,0.5546,,11.45833333,,,,,,FBP-YG-19.png,0.35,1.2,41,1,0,19,19,40,1,,,,,,,,,,,,,,,,,,,,,,,,,,,,,,,,,,,,,,,,
,,,,,WIN24_067,18,Male,2024-02-22_14h12.28.585,jersey_experiment_5,2023.2.2,Win32,84.74576271,,,,,,,,,,,,,,,,289.82,291.6197,291.6197,292.5256,return,0.1082,,49.21875,,,,,,FBP-RB-71.png,0.4,1.2,18,1,0,20,20,17,1,,,,,,,,,,,,,,,,,,,,,,,,,,,,,,,,,,,,,,,,
,,,,,WIN24_067,18,Male,2024-02-22_14h12.28.585,jersey_experiment_5,2023.2.2,Win32,84.74576271,,,,,,,,,,,,,,,,292.5259,294.3257,294.3257,295.1492,return,0.175,,59.89583333,,,,,,FBP-YG-17.png,0.43,1.2,34,1,0,21,21,33,1,,,,,,,,,,,,,,,,,,,,,,,,,,,,,,,,,,,,,,,,
,,,,,WIN24_067,18,Male,2024-02-22_14h12.28.585,jersey_experiment_5,2023.2.2,Win32,84.74576271,,,,,,,,,,,,,,,,295.1493,296.4434,296.4434,297.7964,return,0.138,,37.36979167,,,,,,FBP-PT-81.png,0.4,1.2,53,0.5,0,22,22,52,1,,,,,,,,,,,,,,,,,,,,,,,,,,,,,,,,,,,,,,,,
,,,,,WIN24_067,18,Male,2024-02-22_14h12.28.585,jersey_experiment_5,2023.2.2,Win32,84.74576271,,,,,,,,,,,,,,,,297.7966,299.0905,299.0906,303.0789,return,1.9461,,60.02604167,,,,,,FBP-OG-18.png,0.43,1.2,9,0.5,0,23,23,8,1,,,,,,,,,,,,,,,,,,,,,,,,,,,,,,,,,,,,,,,,
,,,,,WIN24_067,18,Male,2024-02-22_14h12.28.585,jersey_experiment_5,2023.2.2,Win32,84.74576271,,,,,,,,,,,,,,,,303.0793,304.8793,304.8793,306.5026,return,0.476,,97.52604167,,,,,,FBP-YG-19.png,0.45,1.2,45,1,0,24,24,44,1,,,,,,,,,,,,,,,,,,,,,,,,,,,,,,,,,,,,,,,,
,,,,,WIN24_067,18,Male,2024-02-22_14h12.28.585,jersey_experiment_5,2023.2.2,Win32,84.74576271,,,,,,,,,,,,,,,,306.5028,307.7967,307.7967,308.6793,return,0.147,,86.328125,,,,,,FBP-PT-91.png,0.43,1.2,59,0.5,0,25,25,58,1,,,,,,,,,,,,,,,,,,,,,,,,,,,,,,,,,,,,,,,,
,,,,,WIN24_067,18,Male,2024-02-22_14h12.28.585,jersey_experiment_5,2023.2.2,Win32,84.74576271,,,,,,,,,,,,,,,,308.6794,310.4792,310.4792,310.9499,return,0.1129,,95.3125,,,,,,FBP-RB-91.png,0.43,1.2,29,1,0,26,26,28,1,,,,,,,,,,,,,,,,,,,,,,,,,,,,,,,,,,,,,,,,
,,,,,WIN24_067,18,Male,2024-02-22_14h12.28.585,jersey_experiment_5,2023.2.2,Win32,84.74576271,,,,,,,,,,,,,,,,310.9501,312.244,312.2441,313.5971,return,0.6593,,43.22916667,,,,,,FBP-PT-71.png,0.37,1.2,47,0.5,0,27,27,46,1,,,,,,,,,,,,,,,,,,,,,,,,,,,,,,,,,,,,,,,,
,,,,,WIN24_067,18,Male,2024-02-22_14h12.28.585,jersey_experiment_5,2023.2.2,Win32,84.74576271,,,,,,,,,,,,,,,,313.5973,315.3972,315.3972,316.3618,return,0.4383,,82.68229167,,,,,,FBP-RB-81.png,0.4,1.2,23,1,0,28,28,22,1,,,,,,,,,,,,,,,,,,,,,,,,,,,,,,,,,,,,,,,,
,,,,,WIN24_067,18,Male,2024-02-22_14h12.28.585,jersey_experiment_5,2023.2.2,Win32,84.74576271,,,,,,,,,,,,,,,,316.3621,317.656,317.656,318.3265,return,0.1944,,84.11458333,,,,,,FBP-OG-17.png,0.43,1.2,4,0.5,0,29,29,3,1,,,,,,,,,,,,,,,,,,,,,,,,,,,,,,,,,,,,,,,,
,,,,,WIN24_067,18,Male,2024-02-22_14h12.28.585,jersey_experiment_5,2023.2.2,Win32,84.74576271,,,,,,,,,,,,,,,,318.3267,320.1268,320.1269,320.6796,return,0.1101,,96.484375,,,,,,FBP-RB-71.png,0.43,1.2,19,1,0,30,30,18,1,,,,,,,,,,,,,,,,,,,,,,,,,,,,,,,,,,,,,,,,
,,,,,WIN24_067,18,Male,2024-02-22_14h12.28.585,jersey_experiment_5,2023.2.2,Win32,84.74576271,,,,,,,,,,,,,,,,320.6798,322.4796,322.4797,323.3031,return,0.2626,,90.88541667,,,,,,FBP-YG-19.png,0.4,1.2,43,1,0,31,31,42,1,,,,,,,,,,,,,,,,,,,,,,,,,,,,,,,,,,,,,,,,
,,,,,WIN24_067,18,Male,2024-02-22_14h12.28.585,jersey_experiment_5,2023.2.2,Win32,84.74576271,,,,,,,,,,,,,,,,323.3033,324.5973,324.5974,325.5738,return,0.2053,,65.75520833,,,,,,FBP-OG-17.png,0.37,1.2,2,0.5,0,32,32,1,1,,,,,,,,,,,,,,,,,,,,,,,,,,,,,,,,,,,,,,,,
,,,,,WIN24_067,18,Male,2024-02-22_14h12.28.585,jersey_experiment_5,2023.2.2,Win32,84.74576271,,,,,,,,,,,,,,,,325.5741,327.374,327.374,328.2798,return,0.2639,,55.59895833,,,,,,FBP-YG-18.png,0.37,1.2,37,1,0,33,33,36,1,,,,,,,,,,,,,,,,,,,,,,,,,,,,,,,,,,,,,,,,
,,,,,WIN24_067,18,Male,2024-02-22_14h12.28.585,jersey_experiment_5,2023.2.2,Win32,84.74576271,,,,,,,,,,,,,,,,328.2801,329.5739,329.5739,330.327,return,0.0992,,39.19270833,,,,,,FBP-PT-81.png,0.37,1.2,52,0.5,0,34,34,51,1,,,,,,,,,,,,,,,,,,,,,,,,,,,,,,,,,,,,,,,,
,,,,,WIN24_067,18,Male,2024-02-22_14h12.28.585,jersey_experiment_5,2023.2.2,Win32,84.74576271,,,,,,,,,,,,,,,,330.3272,332.1271,332.1271,332.9037,return,0.1684,,82.29166667,,,,,,FBP-RB-81.png,0.43,1.2,24,1,0,35,35,23,1,,,,,,,,,,,,,,,,,,,,,,,,,,,,,,,,,,,,,,,,
,,,,,WIN24_067,18,Male,2024-02-22_14h12.28.585,jersey_experiment_5,2023.2.2,Win32,84.74576271,,,,,,,,,,,,,,,,332.9039,334.1978,334.1979,334.9507,return,0.122,,82.29166667,,,,,,FBP-OG-19.png,0.43,1.2,14,0.5,0,36,36,13,1,,,,,,,,,,,,,,,,,,,,,,,,,,,,,,,,,,,,,,,,
,,,,,WIN24_067,18,Male,2024-02-22_14h12.28.585,jersey_experiment_5,2023.2.2,Win32,84.74576271,,,,,,,,,,,,,,,,334.951,336.2449,336.2449,337.2684,return,0.2302,,39.71354167,,,,,,FBP-OG-18.png,0.35,1.2,6,0.5,0,37,37,5,1,,,,,,,,,,,,,,,,,,,,,,,,,,,,,,,,,,,,,,,,
,,,,,WIN24_067,18,Male,2024-02-22_14h12.28.585,jersey_experiment_5,2023.2.2,Win32,84.74576271,,,,,,,,,,,,,,,,337.2686,338.5626,338.5626,339.6214,return,0.0882,,88.02083333,,,,,,FBP-OG-19.png,0.45,1.2,15,0.5,0,38,38,14,1,,,,,,,,,,,,,,,,,,,,,,,,,,,,,,,,,,,,,,,,
,,,,,WIN24_067,18,Male,2024-02-22_14h12.28.585,jersey_experiment_5,2023.2.2,Win32,84.74576271,,,,,,,,,,,,,,,,339.6216,341.4215,341.4215,342.5747,return,0.2732,,24.21875,,,,,,FBP-YG-17.png,0.35,1.2,31,1,0,39,39,30,1,,,,,,,,,,,,,,,,,,,,,,,,,,,,,,,,,,,,,,,,
,,,,,WIN24_067,18,Male,2024-02-22_14h12.28.585,jersey_experiment_5,2023.2.2,Win32,84.74576271,,,,,,,,,,,,,,,,342.5749,343.8687,343.8688,345.2099,return,0.1796,,47.00520833,,,,,,FBP-OG-17.png,0.4,1.2,3,0.5,0,40,40,2,1,,,,,,,,,,,,,,,,,,,,,,,,,,,,,,,,,,,,,,,,
,,,,,WIN24_067,18,Male,2024-02-22_14h12.28.585,jersey_experiment_5,2023.2.2,Win32,84.74576271,,,,,,,,,,,,,,,,345.2101,347.01,347.01,347.657,return,0.0629,,74.73958333,,,,,,FBP-YG-17.png,0.4,1.2,33,1,0,41,41,32,1,,,,,,,,,,,,,,,,,,,,,,,,,,,,,,,,,,,,,,,,
,,,,,WIN24_067,18,Male,2024-02-22_14h12.28.585,jersey_experiment_5,2023.2.2,Win32,84.74576271,,,,,,,,,,,,,,,,347.6572,348.9512,348.9513,350.0925,return,0.0809,,25.26041667,,,,,,FBP-OG-17.png,0.35,1.2,1,0.5,0,42,42,0,1,,,,,,,,,,,,,,,,,,,,,,,,,,,,,,,,,,,,,,,,
,,,,,WIN24_067,18,Male,2024-02-22_14h12.28.585,jersey_experiment_5,2023.2.2,Win32,84.74576271,,,,,,,,,,,,,,,,350.0927,351.8923,351.8924,352.5865,return,0.0829,,49.73958333,,,,,,FBP-YG-17.png,0.37,1.2,32,1,0,43,43,31,1,,,,,,,,,,,,,,,,,,,,,,,,,,,,,,,,,,,,,,,,
,,,,,WIN24_067,18,Male,2024-02-22_14h12.28.585,jersey_experiment_5,2023.2.2,Win32,84.74576271,,,,,,,,,,,,,,,,352.5868,354.3867,354.3867,356.4927,return,0.2357,,75.13020833,,,,,,FBP-RB-71.png,0.45,1.2,20,1,0,44,44,19,1,,,,,,,,,,,,,,,,,,,,,,,,,,,,,,,,,,,,,,,,
,,,,,WIN24_067,18,Male,2024-02-22_14h12.28.585,jersey_experiment_5,2023.2.2,Win32,84.74576271,,,,,,,,,,,,,,,,356.493,358.2928,358.2928,358.8928,return,0.1045,,100,,,,,,FBP-RB-81.png,0.45,1.2,25,1,0,45,45,24,1,,,,,,,,,,,,,,,,,,,,,,,,,,,,,,,,,,,,,,,,
,,,,,WIN24_067,18,Male,2024-02-22_14h12.28.585,jersey_experiment_5,2023.2.2,Win32,84.74576271,,,,,,,,,,,,,,,,358.8929,360.6928,360.6928,363.3519,return,1.7923,,25.13020833,,,,,,FBP-RB-71.png,0.35,1.2,16,1,0,46,46,15,1,,,,,,,,,,,,,,,,,,,,,,,,,,,,,,,,,,,,,,,,
,,,,,WIN24_067,18,Male,2024-02-22_14h12.28.585,jersey_experiment_5,2023.2.2,Win32,84.74576271,,,,,,,,,,,,,,,,363.3522,364.6459,364.6459,365.7049,return,0.1209,,22.00520833,,,,,,FBP-PT-71.png,0.35,1.2,46,0.5,0,47,47,45,1,,,,,,,,,,,,,,,,,,,,,,,,,,,,,,,,,,,,,,,,
,,,,,WIN24_067,18,Male,2024-02-22_14h12.28.585,jersey_experiment_5,2023.2.2,Win32,84.74576271,,,,,,,,,,,,,,,,365.7052,366.9988,366.9988,368.8578,return,0.0955,,74.34895833,,,,,,FBP-OG-18.png,0.45,1.2,10,0.5,0,48,48,9,1,,,,,,,,,,,,,,,,,,,,,,,,,,,,,,,,,,,,,,,,
,,,,,WIN24_067,18,Male,2024-02-22_14h12.28.585,jersey_experiment_5,2023.2.2,Win32,84.74576271,,,,,,,,,,,,,,,,368.8581,370.152,370.152,370.7401,return,0.0439,,75.13020833,,,,,,FBP-OG-19.png,0.35,1.2,11,0.5,0,49,49,10,1,,,,,,,,,,,,,,,,,,,,,,,,,,,,,,,,,,,,,,,,
,,,,,WIN24_067,18,Male,2024-02-22_14h12.28.585,jersey_experiment_5,2023.2.2,Win32,84.74576271,,,,,,,,,,,,,,,,370.7404,372.0344,372.0345,373.1992,return,0.1045,,14.71354167,,,,,,FBP-PT-91.png,0.35,1.2,56,0.5,0,50,50,55,1,,,,,,,,,,,,,,,,,,,,,,,,,,,,,,,,,,,,,,,,
,,,,,WIN24_067,18,Male,2024-02-22_14h12.28.585,jersey_experiment_5,2023.2.2,Win32,84.74576271,,,,,,,,,,,,,,,,373.1994,374.4933,374.4933,375.7522,return,0.2048,,47.00520833,,,,,,FBP-PT-91.png,0.4,1.2,58,0.5,0,51,51,57,1,,,,,,,,,,,,,,,,,,,,,,,,,,,,,,,,,,,,,,,,
,,,,,WIN24_067,18,Male,2024-02-22_14h12.28.585,jersey_experiment_5,2023.2.2,Win32,84.74576271,,,,,,,,,,,,,,,,375.7524,377.5522,377.5522,378.9053,return,0.3311,,75,,,,,,FBP-RB-81.png,0.37,1.2,22,1,0,52,52,21,1,,,,,,,,,,,,,,,,,,,,,,,,,,,,,,,,,,,,,,,,
,,,,,WIN24_067,18,Male,2024-02-22_14h12.28.585,jersey_experiment_5,2023.2.2,Win32,84.74576271,,,,,,,,,,,,,,,,378.9055,380.1994,380.1994,382.1407,return,0.105,,96.875,,,,,,FBP-PT-81.png,0.43,1.2,54,0.5,0,53,53,53,1,,,,,,,,,,,,,,,,,,,,,,,,,,,,,,,,,,,,,,,,
,,,,,WIN24_067,18,Male,2024-02-22_14h12.28.585,jersey_experiment_5,2023.2.2,Win32,84.74576271,,,,,,,,,,,,,,,,382.1408,383.4348,383.4348,384.2937,return,0.0896,,84.11458333,,,,,,FBP-OG-18.png,0.4,1.2,8,0.5,0,54,54,7,1,,,,,,,,,,,,,,,,,,,,,,,,,,,,,,,,,,,,,,,,
,,,,,WIN24_067,18,Male,2024-02-22_14h12.28.585,jersey_experiment_5,2023.2.2,Win32,84.74576271,,,,,,,,,,,,,,,,384.2939,385.5878,385.5878,386.6702,return,0.6585,,96.74479167,,,,,,FBP-OG-19.png,0.4,1.2,13,0.5,0,55,55,12,1,,,,,,,,,,,,,,,,,,,,,,,,,,,,,,,,,,,,,,,,
,,,,,WIN24_067,18,Male,2024-02-22_14h12.28.585,jersey_experiment_5,2023.2.2,Win32,84.74576271,,,,,,,,,,,,,,,,386.6704,387.9644,387.9645,389.1762,return,0.1224,,88.54166667,,,,,,FBP-OG-18.png,0.37,1.2,7,0.5,0,56,56,6,1,,,,,,,,,,,,,,,,,,,,,,,,,,,,,,,,,,,,,,,,
,,,,,WIN24_067,18,Male,2024-02-22_14h12.28.585,jersey_experiment_5,2023.2.2,Win32,84.74576271,,,,,,,,,,,,,,,,389.1764,390.9765,390.9765,391.741,return,0.1882,,100,,,,,,FBP-RB-91.png,0.45,1.2,30,1,0,57,57,29,1,,,,,,,,,,,,,,,,,,,,,,,,,,,,,,,,,,,,,,,,
,,,,,WIN24_067,18,Male,2024-02-22_14h12.28.585,jersey_experiment_5,2023.2.2,Win32,84.74576271,,,,,,,,,,,,,,,,391.7411,393.5411,393.5411,394.5412,return,0.1414,,49.609375,,,,,,FBP-YG-19.png,0.37,1.2,42,1,0,58,58,41,1,,,,,,,,,,,,,,,,,,,,,,,,,,,,,,,,,,,,,,,,
,,,,,WIN24_067,18,Male,2024-02-22_14h12.28.585,jersey_experiment_5,2023.2.2,Win32,84.74576271,,,,,,,,,,,,,,,,394.5414,396.3414,396.3414,397.2236,return,0.1936,,24.609375,,,,,,FBP-RB-81.png,0.35,1.2,21,1,0,59,59,20,1,,,,,,,,,,,,,,,,,,,,,,,,,,,,,,,,,,,,,,,,
,,,,,WIN24_067,18,Male,2024-02-22_14h12.28.585,jersey_experiment_5,2023.2.2,Win32,84.74576271,,,,,,,,,,,,,,,,,,,,,,,,,,,,,,,,,,,,,,,397.224,517.2282,,,,,,,,,,,,,,,,,,,,,,,,,,,,,,,,,,,,,,
,,,,,WIN24_067,18,Male,2024-02-22_14h12.28.585,jersey_experiment_5,2023.2.2,Win32,84.74576271,,,,,,,,,,,,,,,,,,,,,,,,,,,,,,,,,,,,,,,,,517.2282,519.0046,return,1.7638,,,,,,,,,,,,,,,,,,,,,,,,,,,,,,,,,,
,,,,,WIN24_067,18,Male,2024-02-22_14h12.28.585,jersey_experiment_5,2023.2.2,Win32,84.74576271,,,,,,,,,,,,,,,,519.0105,520.3104,520.3104,522.3458,return,0.6737,,72.00520833,,,,,,FBP-YG-81.png,0.43,1.2,39,0.5,,,,,,,,,,,,,0,0,0,38,1,,,,,,,,,,,,,,,,,,,,,,,,,,,,
,,,,,WIN24_067,18,Male,2024-02-22_14h12.28.585,jersey_experiment_5,2023.2.2,Win32,84.74576271,,,,,,,,,,,,,,,,522.3461,524.1457,524.1457,524.7929,return,0.0727,,83.59375,,,,,,FBP-PT-17.png,0.43,1.2,49,1,,,,,,,,,,,,,0,1,1,48,1,,,,,,,,,,,,,,,,,,,,,,,,,,,,
,,,,,WIN24_067,18,Male,2024-02-22_14h12.28.585,jersey_experiment_5,2023.2.2,Win32,84.74576271,,,,,,,,,,,,,,,,524.7932,526.0871,526.0871,526.9222,return,0.0361,,21.09375,,,,,,FBP-YG-81.png,0.35,1.2,36,0.5,,,,,,,,,,,,,0,2,2,35,1,,,,,,,,,,,,,,,,,,,,,,,,,,,,
,,,,,WIN24_067,18,Male,2024-02-22_14h12.28.585,jersey_experiment_5,2023.2.2,Win32,84.74576271,,,,,,,,,,,,,,,,526.9224,528.2165,528.2165,529.2048,return,0.0787,,41.27604167,,,,,,FBP-YG-91.png,0.35,1.2,41,0.5,,,,,,,,,,,,,0,3,3,40,1,,,,,,,,,,,,,,,,,,,,,,,,,,,,
,,,,,WIN24_067,18,Male,2024-02-22_14h12.28.585,jersey_experiment_5,2023.2.2,Win32,84.74576271,,,,,,,,,,,,,,,,529.205,531.005,531.005,531.5814,return,0.1649,,24.47916667,,,,,,FBP-OG-91.png,0.35,1.2,11,1,,,,,,,,,,,,,0,4,4,10,1,,,,,,,,,,,,,,,,,,,,,,,,,,,,
,,,,,WIN24_067,18,Male,2024-02-22_14h12.28.585,jersey_experiment_5,2023.2.2,Win32,84.74576271,,,,,,,,,,,,,,,,531.5816,532.8755,532.8755,533.6403,return,0.0162,,75.78125,,,,,,FBP-YG-71.png,0.4,1.2,33,0.5,,,,,,,,,,,,,0,5,5,32,1,,,,,,,,,,,,,,,,,,,,,,,,,,,,
,,,,,WIN24_067,18,Male,2024-02-22_14h12.28.585,jersey_experiment_5,2023.2.2,Win32,84.74576271,,,,,,,,,,,,,,,,533.6405,535.4404,535.4404,536.0285,return,0.0472,,75.78125,,,,,,FBP-PT-17.png,0.37,1.2,47,1,,,,,,,,,,,,,0,6,6,46,1,,,,,,,,,,,,,,,,,,,,,,,,,,,,
,,,,,WIN24_067,18,Male,2024-02-22_14h12.28.585,jersey_experiment_5,2023.2.2,Win32,84.74576271,,,,,,,,,,,,,,,,536.0287,537.8287,537.8288,538.2639,return,0.0856,,71.875,,,,,,FBP-OG-71.png,0.37,1.2,2,1,,,,,,,,,,,,,0,7,7,1,1,,,,,,,,,,,,,,,,,,,,,,,,,,,,
,,,,,WIN24_067,18,Male,2024-02-22_14h12.28.585,jersey_experiment_5,2023.2.2,Win32,84.74576271,,,,,,,,,,,,,,,,538.2641,539.5581,539.5582,540.1699,return,0.0601,,96.22395833,,,,,,FBP-RB-19.png,0.4,1.2,28,0.5,,,,,,,,,,,,,0,8,8,27,1,,,,,,,,,,,,,,,,,,,,,,,,,,,,
,,,,,WIN24_067,18,Male,2024-02-22_14h12.28.585,jersey_experiment_5,2023.2.2,Win32,84.74576271,,,,,,,,,,,,,,,,540.1701,541.464,541.464,542.0406,return,0.1201,,94.53125,,,,,,FBP-YG-91.png,0.37,1.2,42,0.5,,,,,,,,,,,,,0,9,9,41,1,,,,,,,,,,,,,,,,,,,,,,,,,,,,
,,,,,WIN24_067,18,Male,2024-02-22_14h12.28.585,jersey_experiment_5,2023.2.2,Win32,84.74576271,,,,,,,,,,,,,,,,542.0408,543.8406,543.8406,544.3583,return,0.0771,,92.31770833,,,,,,FBP-PT-19.png,0.4,1.2,58,1,,,,,,,,,,,,,0,10,10,57,1,,,,,,,,,,,,,,,,,,,,,,,,,,,,
,,,,,WIN24_067,18,Male,2024-02-22_14h12.28.585,jersey_experiment_5,2023.2.2,Win32,84.74576271,,,,,,,,,,,,,,,,544.3585,546.1584,546.1584,546.5701,return,0.0832,,94.27083333,,,,,,FBP-OG-71.png,0.4,1.2,3,1,,,,,,,,,,,,,0,11,11,2,1,,,,,,,,,,,,,,,,,,,,,,,,,,,,
,,,,,WIN24_067,18,Male,2024-02-22_14h12.28.585,jersey_experiment_5,2023.2.2,Win32,84.74576271,,,,,,,,,,,,,,,,546.5702,548.3703,548.3703,548.8055,return,0.1247,,97.265625,,,,,,FBP-OG-91.png,0.43,1.2,14,1,,,,,,,,,,,,,0,12,12,13,1,,,,,,,,,,,,,,,,,,,,,,,,,,,,
,,,,,WIN24_067,18,Male,2024-02-22_14h12.28.585,jersey_experiment_5,2023.2.2,Win32,84.74576271,,,,,,,,,,,,,,,,548.8056,550.6058,550.6058,552.3351,return,0.0942,,51.04166667,,,,,,FBP-PT-18.png,0.37,1.2,52,1,,,,,,,,,,,,,0,13,13,51,1,,,,,,,,,,,,,,,,,,,,,,,,,,,,
,,,,,WIN24_067,18,Male,2024-02-22_14h12.28.585,jersey_experiment_5,2023.2.2,Win32,84.74576271,,,,,,,,,,,,,,,,552.3353,553.6292,553.6292,554.5704,return,0.0829,,58.46354167,,,,,,FBP-YG-81.png,0.4,1.2,38,0.5,,,,,,,,,,,,,0,14,14,37,1,,,,,,,,,,,,,,,,,,,,,,,,,,,,
,,,,,WIN24_067,18,Male,2024-02-22_14h12.28.585,jersey_experiment_5,2023.2.2,Win32,84.74576271,,,,,,,,,,,,,,,,554.5706,556.3706,556.3706,557.1941,return,0.0616,,75.65104167,,,,,,FBP-PT-17.png,0.4,1.2,48,1,,,,,,,,,,,,,0,15,15,47,1,,,,,,,,,,,,,,,,,,,,,,,,,,,,
,,,,,WIN24_067,18,Male,2024-02-22_14h12.28.585,jersey_experiment_5,2023.2.2,Win32,84.74576271,,,,,,,,,,,,,,,,557.1943,558.9941,558.9941,559.6883,return,0.1198,,99.47916667,,,,,,FBP-OG-81.png,0.45,1.2,10,1,,,,,,,,,,,,,0,16,16,9,1,,,,,,,,,,,,,,,,,,,,,,,,,,,,
,,,,,WIN24_067,18,Male,2024-02-22_14h12.28.585,jersey_experiment_5,2023.2.2,Win32,84.74576271,,,,,,,,,,,,,,,,559.6884,560.9824,560.9824,562.2296,return,0.0762,,73.69791667,,,,,,FBP-RB-18.png,0.4,1.2,23,0.5,,,,,,,,,,,,,0,17,17,22,1,,,,,,,,,,,,,,,,,,,,,,,,,,,,
,,,,,WIN24_067,18,Male,2024-02-22_14h12.28.585,jersey_experiment_5,2023.2.2,Win32,84.74576271,,,,,,,,,,,,,,,,562.2298,563.5237,563.5238,564.2649,return,0.0747,,100,,,,,,FBP-RB-17.png,0.43,1.2,19,0.5,,,,,,,,,,,,,0,18,18,18,1,,,,,,,,,,,,,,,,,,,,,,,,,,,,
,,,,,WIN24_067,18,Male,2024-02-22_14h12.28.585,jersey_experiment_5,2023.2.2,Win32,84.74576271,,,,,,,,,,,,,,,,564.2651,565.5591,565.5591,566.5001,return,0.0892,,26.171875,,,,,,FBP-RB-18.png,0.35,1.2,21,0.5,,,,,,,,,,,,,0,19,19,20,1,,,,,,,,,,,,,,,,,,,,,,,,,,,,
,,,,,WIN24_067,18,Male,2024-02-22_14h12.28.585,jersey_experiment_5,2023.2.2,Win32,84.74576271,,,,,,,,,,,,,,,,566.5002,567.7943,567.7944,568.618,return,0.0831,,19.01041667,,,,,,FBP-YG-71.png,0.37,1.2,32,0.5,,,,,,,,,,,,,0,20,20,31,1,,,,,,,,,,,,,,,,,,,,,,,,,,,,
,,,,,WIN24_067,18,Male,2024-02-22_14h12.28.585,jersey_experiment_5,2023.2.2,Win32,84.74576271,,,,,,,,,,,,,,,,568.6183,569.9121,569.9121,571.1593,return,0.1094,,100,,,,,,FBP-RB-18.png,0.45,1.2,25,0.5,,,,,,,,,,,,,0,21,21,24,1,,,,,,,,,,,,,,,,,,,,,,,,,,,,
,,,,,WIN24_067,18,Male,2024-02-22_14h12.28.585,jersey_experiment_5,2023.2.2,Win32,84.74576271,,,,,,,,,,,,,,,,571.1594,572.4536,572.4536,573.83,return,0.0895,,13.41145833,,,,,,FBP-YG-71.png,0.35,1.2,31,0.5,,,,,,,,,,,,,0,22,22,30,1,,,,,,,,,,,,,,,,,,,,,,,,,,,,
,,,,,WIN24_067,18,Male,2024-02-22_14h12.28.585,jersey_experiment_5,2023.2.2,Win32,84.74576271,,,,,,,,,,,,,,,,573.8301,575.1242,575.1242,576.1596,return,0.118,,73.828125,,,,,,FBP-YG-91.png,0.45,1.2,45,0.5,,,,,,,,,,,,,0,23,23,44,1,,,,,,,,,,,,,,,,,,,,,,,,,,,,
,,,,,WIN24_067,18,Male,2024-02-22_14h12.28.585,jersey_experiment_5,2023.2.2,Win32,84.74576271,,,,,,,,,,,,,,,,576.1598,577.9594,577.9594,578.6772,return,0.0997,,75.26041667,,,,,,FBP-PT-18.png,0.4,1.2,53,1,,,,,,,,,,,,,0,24,24,52,1,,,,,,,,,,,,,,,,,,,,,,,,,,,,
,,,,,WIN24_067,18,Male,2024-02-22_14h12.28.585,jersey_experiment_5,2023.2.2,Win32,84.74576271,,,,,,,,,,,,,,,,578.6775,579.9713,579.9713,580.795,return,0.0609,,96.09375,,,,,,FBP-YG-91.png,0.43,1.2,44,0.5,,,,,,,,,,,,,0,25,25,43,1,,,,,,,,,,,,,,,,,,,,,,,,,,,,
,,,,,WIN24_067,18,Male,2024-02-22_14h12.28.585,jersey_experiment_5,2023.2.2,Win32,84.74576271,,,,,,,,,,,,,,,,580.7951,582.5951,582.5951,583.4069,return,0.0375,,27.21354167,,,,,,FBP-PT-19.png,0.37,1.2,57,1,,,,,,,,,,,,,0,26,26,56,1,,,,,,,,,,,,,,,,,,,,,,,,,,,,
,,,,,WIN24_067,18,Male,2024-02-22_14h12.28.585,jersey_experiment_5,2023.2.2,Win32,84.74576271,,,,,,,,,,,,,,,,583.4071,585.207,585.207,585.9598,return,0.1092,,75,,,,,,FBP-OG-71.png,0.43,1.2,4,1,,,,,,,,,,,,,0,27,27,3,1,,,,,,,,,,,,,,,,,,,,,,,,,,,,
,,,,,WIN24_067,18,Male,2024-02-22_14h12.28.585,jersey_experiment_5,2023.2.2,Win32,84.74576271,,,,,,,,,,,,,,,,585.96,587.7601,587.7601,588.3481,return,0.0608,,27.34375,,,,,,FBP-OG-81.png,0.35,1.2,6,1,,,,,,,,,,,,,0,28,28,5,1,,,,,,,,,,,,,,,,,,,,,,,,,,,,
,,,,,WIN24_067,18,Male,2024-02-22_14h12.28.585,jersey_experiment_5,2023.2.2,Win32,84.74576271,,,,,,,,,,,,,,,,588.3483,589.6424,589.6424,591.5014,return,1.1067,,28.515625,,,,,,FBP-RB-19.png,0.35,1.2,26,0.5,,,,,,,,,,,,,0,29,29,25,1,,,,,,,,,,,,,,,,,,,,,,,,,,,,
,,,,,WIN24_067,18,Male,2024-02-22_14h12.28.585,jersey_experiment_5,2023.2.2,Win32,84.74576271,,,,,,,,,,,,,,,,591.5016,593.3014,593.3014,594.2073,return,0.165,,70.18229167,,,,,,FBP-PT-19.png,0.45,1.2,60,1,,,,,,,,,,,,,0,30,30,59,1,,,,,,,,,,,,,,,,,,,,,,,,,,,,
,,,,,WIN24_067,18,Male,2024-02-22_14h12.28.585,jersey_experiment_5,2023.2.2,Win32,84.74576271,,,,,,,,,,,,,,,,594.2075,595.5013,595.5013,596.266,return,0.2244,,92.70833333,,,,,,FBP-YG-71.png,0.45,1.2,35,0.5,,,,,,,,,,,,,0,31,31,34,1,,,,,,,,,,,,,,,,,,,,,,,,,,,,
,,,,,WIN24_067,18,Male,2024-02-22_14h12.28.585,jersey_experiment_5,2023.2.2,Win32,84.74576271,,,,,,,,,,,,,,,,596.2662,597.5603,597.5603,598.5368,return,0.0865,,29.03645833,,,,,,FBP-RB-19.png,0.37,1.2,27,0.5,,,,,,,,,,,,,0,32,32,26,1,,,,,,,,,,,,,,,,,,,,,,,,,,,,
,,,,,WIN24_067,18,Male,2024-02-22_14h12.28.585,jersey_experiment_5,2023.2.2,Win32,84.74576271,,,,,,,,,,,,,,,,598.537,599.8309,599.8309,600.5369,return,0.0627,,77.99479167,,,,,,FBP-RB-17.png,0.45,1.2,20,0.5,,,,,,,,,,,,,0,33,33,19,1,,,,,,,,,,,,,,,,,,,,,,,,,,,,
,,,,,WIN24_067,18,Male,2024-02-22_14h12.28.585,jersey_experiment_5,2023.2.2,Win32,84.74576271,,,,,,,,,,,,,,,,600.5371,602.3368,602.3368,603.4075,return,0.5553,,43.48958333,,,,,,FBP-OG-81.png,0.37,1.2,7,1,,,,,,,,,,,,,0,34,34,6,1,,,,,,,,,,,,,,,,,,,,,,,,,,,,
,,,,,WIN24_067,18,Male,2024-02-22_14h12.28.585,jersey_experiment_5,2023.2.2,Win32,84.74576271,,,,,,,,,,,,,,,,603.4077,604.7017,604.7017,605.6076,return,0.1229,,25,,,,,,FBP-RB-17.png,0.35,1.2,16,0.5,,,,,,,,,,,,,0,35,35,15,1,,,,,,,,,,,,,,,,,,,,,,,,,,,,
,,,,,WIN24_067,18,Male,2024-02-22_14h12.28.585,jersey_experiment_5,2023.2.2,Win32,84.74576271,,,,,,,,,,,,,,,,605.6078,607.4077,607.4077,607.9488,return,0.1314,,22.91666667,,,,,,FBP-OG-71.png,0.35,1.2,1,1,,,,,,,,,,,,,0,36,36,0,1,,,,,,,,,,,,,,,,,,,,,,,,,,,,
,,,,,WIN24_067,18,Male,2024-02-22_14h12.28.585,jersey_experiment_5,2023.2.2,Win32,84.74576271,,,,,,,,,,,,,,,,607.9491,609.2431,609.2431,609.8313,return,0.0977,,22.91666667,,,,,,FBP-YG-91.png,0.4,1.2,43,0.5,,,,,,,,,,,,,0,37,37,42,1,,,,,,,,,,,,,,,,,,,,,,,,,,,,
,,,,,WIN24_067,18,Male,2024-02-22_14h12.28.585,jersey_experiment_5,2023.2.2,Win32,84.74576271,,,,,,,,,,,,,,,,609.8315,611.6313,611.6313,612.2195,return,0.072,,97.65625,,,,,,FBP-PT-18.png,0.45,1.2,55,1,,,,,,,,,,,,,0,38,38,54,1,,,,,,,,,,,,,,,,,,,,,,,,,,,,
,,,,,WIN24_067,18,Male,2024-02-22_14h12.28.585,jersey_experiment_5,2023.2.2,Win32,84.74576271,,,,,,,,,,,,,,,,612.2198,614.0197,614.0197,614.4785,return,0.1646,,96.61458333,,,,,,FBP-OG-91.png,0.45,1.2,15,1,,,,,,,,,,,,,0,39,39,14,1,,,,,,,,,,,,,,,,,,,,,,,,,,,,
,,,,,WIN24_067,18,Male,2024-02-22_14h12.28.585,jersey_experiment_5,2023.2.2,Win32,84.74576271,,,,,,,,,,,,,,,,614.4788,616.2788,616.2788,616.9727,return,0.1755,,25,,,,,,FBP-OG-91.png,0.37,1.2,12,1,,,,,,,,,,,,,0,40,40,11,1,,,,,,,,,,,,,,,,,,,,,,,,,,,,
,,,,,WIN24_067,18,Male,2024-02-22_14h12.28.585,jersey_experiment_5,2023.2.2,Win32,84.74576271,,,,,,,,,,,,,,,,616.9731,618.7728,618.7729,619.6316,return,0.1511,,70.57291667,,,,,,FBP-OG-81.png,0.43,1.2,9,1,,,,,,,,,,,,,0,41,41,8,1,,,,,,,,,,,,,,,,,,,,,,,,,,,,
,,,,,WIN24_067,18,Male,2024-02-22_14h12.28.585,jersey_experiment_5,2023.2.2,Win32,84.74576271,,,,,,,,,,,,,,,,619.6319,620.9258,620.9258,621.7729,return,0.1041,,71.09375,,,,,,FBP-RB-18.png,0.43,1.2,24,0.5,,,,,,,,,,,,,0,42,42,23,1,,,,,,,,,,,,,,,,,,,,,,,,,,,,
,,,,,WIN24_067,18,Male,2024-02-22_14h12.28.585,jersey_experiment_5,2023.2.2,Win32,84.74576271,,,,,,,,,,,,,,,,621.7731,623.5731,623.5732,624.173,return,0.1413,,26.953125,,,,,,FBP-PT-17.png,0.35,1.2,46,1,,,,,,,,,,,,,0,43,43,45,1,,,,,,,,,,,,,,,,,,,,,,,,,,,,
,,,,,WIN24_067,18,Male,2024-02-22_14h12.28.585,jersey_experiment_5,2023.2.2,Win32,84.74576271,,,,,,,,,,,,,,,,624.1732,625.9731,625.9731,626.42,return,0.1381,,26.953125,,,,,,FBP-PT-19.png,0.35,1.2,56,1,,,,,,,,,,,,,0,44,44,55,1,,,,,,,,,,,,,,,,,,,,,,,,,,,,
,,,,,WIN24_067,18,Male,2024-02-22_14h12.28.585,jersey_experiment_5,2023.2.2,Win32,84.74576271,,,,,,,,,,,,,,,,626.4203,627.7143,627.7143,628.7143,return,0.0829,,68.75,,,,,,FBP-RB-17.png,0.4,1.2,18,0.5,,,,,,,,,,,,,0,45,45,17,1,,,,,,,,,,,,,,,,,,,,,,,,,,,,
,,,,,WIN24_067,18,Male,2024-02-22_14h12.28.585,jersey_experiment_5,2023.2.2,Win32,84.74576271,,,,,,,,,,,,,,,,628.7143,630.0085,630.0085,630.5732,return,0.1511,,68.75,,,,,,FBP-RB-18.png,0.37,1.2,22,0.5,,,,,,,,,,,,,0,46,46,21,1,,,,,,,,,,,,,,,,,,,,,,,,,,,,
,,,,,WIN24_067,18,Male,2024-02-22_14h12.28.585,jersey_experiment_5,2023.2.2,Win32,84.74576271,,,,,,,,,,,,,,,,630.5733,631.8674,631.8674,632.9262,return,0.1276,,29.42708333,,,,,,FBP-RB-17.png,0.37,1.2,17,0.5,,,,,,,,,,,,,0,47,47,16,1,,,,,,,,,,,,,,,,,,,,,,,,,,,,
,,,,,WIN24_067,18,Male,2024-02-22_14h12.28.585,jersey_experiment_5,2023.2.2,Win32,84.74576271,,,,,,,,,,,,,,,,632.9264,634.2204,634.2204,635.0675,return,0.0585,,96.09375,,,,,,FBP-RB-19.png,0.45,1.2,30,0.5,,,,,,,,,,,,,0,48,48,29,1,,,,,,,,,,,,,,,,,,,,,,,,,,,,
,,,,,WIN24_067,18,Male,2024-02-22_14h12.28.585,jersey_experiment_5,2023.2.2,Win32,84.74576271,,,,,,,,,,,,,,,,635.0677,636.3617,636.3617,636.8912,return,0.0843,,97.265625,,,,,,FBP-YG-81.png,0.45,1.2,40,0.5,,,,,,,,,,,,,0,49,49,39,1,,,,,,,,,,,,,,,,,,,,,,,,,,,,
,,,,,WIN24_067,18,Male,2024-02-22_14h12.28.585,jersey_experiment_5,2023.2.2,Win32,84.74576271,,,,,,,,,,,,,,,,636.8912,638.6912,638.6912,639.1265,return,0.1354,,97.265625,,,,,,FBP-OG-71.png,0.45,1.2,5,1,,,,,,,,,,,,,0,50,50,4,1,,,,,,,,,,,,,,,,,,,,,,,,,,,,
,,,,,WIN24_067,18,Male,2024-02-22_14h12.28.585,jersey_experiment_5,2023.2.2,Win32,84.74576271,,,,,,,,,,,,,,,,639.1267,640.4206,640.4206,641.7384,return,0.1083,,51.43229167,,,,,,FBP-YG-81.png,0.37,1.2,37,0.5,,,,,,,,,,,,,0,51,51,36,1,,,,,,,,,,,,,,,,,,,,,,,,,,,,
,,,,,WIN24_067,18,Male,2024-02-22_14h12.28.585,jersey_experiment_5,2023.2.2,Win32,84.74576271,,,,,,,,,,,,,,,,641.7386,643.5384,643.5384,644.5032,return,0.1469,,77.08333333,,,,,,FBP-PT-18.png,0.43,1.2,54,1,,,,,,,,,,,,,0,52,52,53,1,,,,,,,,,,,,,,,,,,,,,,,,,,,,
,,,,,WIN24_067,18,Male,2024-02-22_14h12.28.585,jersey_experiment_5,2023.2.2,Win32,84.74576271,,,,,,,,,,,,,,,,644.5034,645.7973,645.7973,646.3738,return,0.1465,,86.45833333,,,,,,FBP-RB-19.png,0.43,1.2,29,0.5,,,,,,,,,,,,,0,53,53,28,1,,,,,,,,,,,,,,,,,,,,,,,,,,,,
,,,,,WIN24_067,18,Male,2024-02-22_14h12.28.585,jersey_experiment_5,2023.2.2,Win32,84.74576271,,,,,,,,,,,,,,,,646.374,647.668,647.668,648.3033,return,0.0844,,89.84375,,,,,,FBP-YG-71.png,0.43,1.2,34,0.5,,,,,,,,,,,,,0,54,54,33,1,,,,,,,,,,,,,,,,,,,,,,,,,,,,
,,,,,WIN24_067,18,Male,2024-02-22_14h12.28.585,jersey_experiment_5,2023.2.2,Win32,84.74576271,,,,,,,,,,,,,,,,648.3036,650.1033,650.1033,650.5858,return,0.156,,94.40104167,,,,,,FBP-PT-17.png,0.45,1.2,50,1,,,,,,,,,,,,,0,55,55,49,1,,,,,,,,,,,,,,,,,,,,,,,,,,,,
,,,,,WIN24_067,18,Male,2024-02-22_14h12.28.585,jersey_experiment_5,2023.2.2,Win32,84.74576271,,,,,,,,,,,,,,,,650.586,652.3859,652.3859,653.774,return,0.141,,26.171875,,,,,,FBP-PT-18.png,0.35,1.2,51,1,,,,,,,,,,,,,0,56,56,50,1,,,,,,,,,,,,,,,,,,,,,,,,,,,,
,,,,,WIN24_067,18,Male,2024-02-22_14h12.28.585,jersey_experiment_5,2023.2.2,Win32,84.74576271,,,,,,,,,,,,,,,,653.7743,655.5741,655.5741,656.4214,return,0.0998,,29.03645833,,,,,,FBP-OG-91.png,0.4,1.2,13,1,,,,,,,,,,,,,0,57,57,12,1,,,,,,,,,,,,,,,,,,,,,,,,,,,,
,,,,,WIN24_067,18,Male,2024-02-22_14h12.28.585,jersey_experiment_5,2023.2.2,Win32,84.74576271,,,,,,,,,,,,,,,,656.4216,658.2213,658.2213,658.8096,return,0.0738,,73.56770833,,,,,,FBP-PT-19.png,0.43,1.2,59,1,,,,,,,,,,,,,0,58,58,58,1,,,,,,,,,,,,,,,,,,,,,,,,,,,,
,,,,,WIN24_067,18,Male,2024-02-22_14h12.28.585,jersey_experiment_5,2023.2.2,Win32,84.74576271,,,,,,,,,,,,,,,,658.8096,660.6098,660.6098,661.1626,return,0.1534,,64.58333333,,,,,,FBP-OG-81.png,0.4,1.2,8,1,,,,,,,,,,,,,0,59,59,7,1,,,,,,,,,,,,,,,,,,,,,,,,,,,,
,,,,,WIN24_067,18,Male,2024-02-22_14h12.28.585,jersey_experiment_5,2023.2.2,Win32,84.74576271,,,,,,,,,,,,,,,,661.1638,662.4567,662.4567,663.2685,return,0.171,,80.078125,,,,,,FBP-RB-91.png,0.45,1.2,30,0.5,,,,,,,,,,,,,,,,,,0,0,0,29,1,,,,,,,,,,,,,,,,,,,,,,,
,,,,,WIN24_067,18,Male,2024-02-22_14h12.28.585,jersey_experiment_5,2023.2.2,Win32,84.74576271,,,,,,,,,,,,,,,,663.2688,665.0687,665.0687,665.7276,return,0.0572,,10.02604167,,,,,,FBP-PT-91.png,0.35,1.2,56,1,,,,,,,,,,,,,,,,,,0,1,1,55,1,,,,,,,,,,,,,,,,,,,,,,,
,,,,,WIN24_067,18,Male,2024-02-22_14h12.28.585,jersey_experiment_5,2023.2.2,Win32,84.74576271,,,,,,,,,,,,,,,,665.7277,667.5275,667.5275,668.104,return,0.099,,30.33854167,,,,,,FBP-OG-17.png,0.4,1.2,3,1,,,,,,,,,,,,,,,,,,0,2,2,2,1,,,,,,,,,,,,,,,,,,,,,,,
,,,,,WIN24_067,18,Male,2024-02-22_14h12.28.585,jersey_experiment_5,2023.2.2,Win32,84.74576271,,,,,,,,,,,,,,,,668.1043,669.3982,669.3982,670.9276,return,0.0802,,96.74479167,,,,,,FBP-YG-17.png,0.43,1.2,34,0.5,,,,,,,,,,,,,,,,,,0,3,3,33,1,,,,,,,,,,,,,,,,,,,,,,,
,,,,,WIN24_067,18,Male,2024-02-22_14h12.28.585,jersey_experiment_5,2023.2.2,Win32,84.74576271,,,,,,,,,,,,,,,,670.9278,672.2217,672.2217,672.8454,return,0.0848,,91.27604167,,,,,,FBP-YG-18.png,0.43,1.2,39,0.5,,,,,,,,,,,,,,,,,,0,4,4,38,1,,,,,,,,,,,,,,,,,,,,,,,
,,,,,WIN24_067,18,Male,2024-02-22_14h12.28.585,jersey_experiment_5,2023.2.2,Win32,84.74576271,,,,,,,,,,,,,,,,672.8456,674.6455,674.6456,675.3161,return,0.1384,,34.765625,,,,,,FBP-PT-91.png,0.37,1.2,57,1,,,,,,,,,,,,,,,,,,0,5,5,56,1,,,,,,,,,,,,,,,,,,,,,,,
,,,,,WIN24_067,18,Male,2024-02-22_14h12.28.585,jersey_experiment_5,2023.2.2,Win32,84.74576271,,,,,,,,,,,,,,,,675.3163,677.1161,677.1161,677.7514,return,0.1097,,32.68229167,,,,,,FBP-OG-17.png,0.35,1.2,1,1,,,,,,,,,,,,,,,,,,0,6,6,0,1,,,,,,,,,,,,,,,,,,,,,,,
,,,,,WIN24_067,18,Male,2024-02-22_14h12.28.585,jersey_experiment_5,2023.2.2,Win32,84.74576271,,,,,,,,,,,,,,,,677.7516,679.0455,679.0456,679.8691,return,0.0472,,75.13020833,,,,,,FBP-YG-18.png,0.45,1.2,40,0.5,,,,,,,,,,,,,,,,,,0,7,7,39,1,,,,,,,,,,,,,,,,,,,,,,,
,,,,,WIN24_067,18,Male,2024-02-22_14h12.28.585,jersey_experiment_5,2023.2.2,Win32,84.74576271,,,,,,,,,,,,,,,,679.8693,681.1633,681.1633,682.0457,return,0.1072,,34.11458333,,,,,,FBP-YG-19.png,0.35,1.2,41,0.5,,,,,,,,,,,,,,,,,,0,8,8,40,1,,,,,,,,,,,,,,,,,,,,,,,
,,,,,WIN24_067,18,Male,2024-02-22_14h12.28.585,jersey_experiment_5,2023.2.2,Win32,84.74576271,,,,,,,,,,,,,,,,682.0458,683.8458,683.8458,685.1164,return,0.7767,,66.40625,,,,,,FBP-OG-18.png,0.43,1.2,9,1,,,,,,,,,,,,,,,,,,0,9,9,8,1,,,,,,,,,,,,,,,,,,,,,,,
,,,,,WIN24_067,18,Male,2024-02-22_14h12.28.585,jersey_experiment_5,2023.2.2,Win32,84.74576271,,,,,,,,,,,,,,,,685.1165,686.4106,686.4106,687.5753,return,0.0745,,55.078125,,,,,,FBP-YG-17.png,0.37,1.2,32,0.5,,,,,,,,,,,,,,,,,,0,10,10,31,1,,,,,,,,,,,,,,,,,,,,,,,
,,,,,WIN24_067,18,Male,2024-02-22_14h12.28.585,jersey_experiment_5,2023.2.2,Win32,84.74576271,,,,,,,,,,,,,,,,687.5755,688.8695,688.8695,689.4342,return,0.0852,,55.33854167,,,,,,FBP-RB-91.png,0.43,1.2,29,0.5,,,,,,,,,,,,,,,,,,0,11,11,28,1,,,,,,,,,,,,,,,,,,,,,,,
,,,,,WIN24_067,18,Male,2024-02-22_14h12.28.585,jersey_experiment_5,2023.2.2,Win32,84.74576271,,,,,,,,,,,,,,,,689.4344,690.7282,690.7282,692.3166,return,0.1038,,55.33854167,,,,,,FBP-RB-71.png,0.45,1.2,20,0.5,,,,,,,,,,,,,,,,,,0,12,12,19,1,,,,,,,,,,,,,,,,,,,,,,,
,,,,,WIN24_067,18,Male,2024-02-22_14h12.28.585,jersey_experiment_5,2023.2.2,Win32,84.74576271,,,,,,,,,,,,,,,,692.3168,694.1167,694.1168,695.0344,return,0.3536,,28.125,,,,,,FBP-OG-18.png,0.35,1.2,6,1,,,,,,,,,,,,,,,,,,0,13,13,5,1,,,,,,,,,,,,,,,,,,,,,,,
,,,,,WIN24_067,18,Male,2024-02-22_14h12.28.585,jersey_experiment_5,2023.2.2,Win32,84.74576271,,,,,,,,,,,,,,,,695.0345,696.3285,696.3285,698.3756,return,1.2973,,74.73958333,,,,,,FBP-RB-71.png,0.4,1.2,18,0.5,,,,,,,,,,,,,,,,,,0,14,14,17,1,,,,,,,,,,,,,,,,,,,,,,,
,,,,,WIN24_067,18,Male,2024-02-22_14h12.28.585,jersey_experiment_5,2023.2.2,Win32,84.74576271,,,,,,,,,,,,,,,,698.3759,700.1757,700.1758,700.7994,return,0.0941,,97.00520833,,,,,,FBP-OG-19.png,0.45,1.2,15,1,,,,,,,,,,,,,,,,,,0,15,15,14,1,,,,,,,,,,,,,,,,,,,,,,,
,,,,,WIN24_067,18,Male,2024-02-22_14h12.28.585,jersey_experiment_5,2023.2.2,Win32,84.74576271,,,,,,,,,,,,,,,,700.7997,702.0935,702.0935,702.7995,return,0.0847,,96.09375,,,,,,FBP-YG-18.png,0.4,1.2,38,0.5,,,,,,,,,,,,,,,,,,0,16,16,37,1,,,,,,,,,,,,,,,,,,,,,,,
,,,,,WIN24_067,18,Male,2024-02-22_14h12.28.585,jersey_experiment_5,2023.2.2,Win32,84.74576271,,,,,,,,,,,,,,,,702.7996,704.5994,704.5994,706.4583,return,0.036,,82.68229167,,,,,,FBP-PT-71.png,0.35,1.2,46,1,,,,,,,,,,,,,,,,,,0,17,17,45,1,,,,,,,,,,,,,,,,,,,,,,,
,,,,,WIN24_067,18,Male,2024-02-22_14h12.28.585,jersey_experiment_5,2023.2.2,Win32,84.74576271,,,,,,,,,,,,,,,,706.4586,707.7523,707.7523,708.5173,return,0.0432,,52.47395833,,,,,,FBP-YG-19.png,0.37,1.2,42,0.5,,,,,,,,,,,,,,,,,,0,18,18,41,1,,,,,,,,,,,,,,,,,,,,,,,
,,,,,WIN24_067,18,Male,2024-02-22_14h12.28.585,jersey_experiment_5,2023.2.2,Win32,84.74576271,,,,,,,,,,,,,,,,708.5175,709.8114,709.8114,710.4233,return,0.0518,,31.77083333,,,,,,FBP-RB-91.png,0.35,1.2,26,0.5,,,,,,,,,,,,,,,,,,0,19,19,25,1,,,,,,,,,,,,,,,,,,,,,,,
,,,,,WIN24_067,18,Male,2024-02-22_14h12.28.585,jersey_experiment_5,2023.2.2,Win32,84.74576271,,,,,,,,,,,,,,,,710.4236,712.2232,712.2232,712.8586,return,0.107,,98.56770833,,,,,,FBP-OG-17.png,0.45,1.2,5,1,,,,,,,,,,,,,,,,,,0,20,20,4,1,,,,,,,,,,,,,,,,,,,,,,,
,,,,,WIN24_067,18,Male,2024-02-22_14h12.28.585,jersey_experiment_5,2023.2.2,Win32,84.74576271,,,,,,,,,,,,,,,,712.8588,714.6588,714.6589,715.1293,return,0.1328,,96.61458333,,,,,,FBP-PT-81.png,0.43,1.2,54,1,,,,,,,,,,,,,,,,,,0,21,21,53,1,,,,,,,,,,,,,,,,,,,,,,,
,,,,,WIN24_067,18,Male,2024-02-22_14h12.28.585,jersey_experiment_5,2023.2.2,Win32,84.74576271,,,,,,,,,,,,,,,,715.1295,716.9293,716.9293,717.3999,return,0.2266,,96.61458333,,,,,,FBP-PT-71.png,0.45,1.2,50,1,,,,,,,,,,,,,,,,,,0,22,22,49,1,,,,,,,,,,,,,,,,,,,,,,,
,,,,,WIN24_067,18,Male,2024-02-22_14h12.28.585,jersey_experiment_5,2023.2.2,Win32,84.74576271,,,,,,,,,,,,,,,,717.4001,718.694,718.694,719.2236,return,0.1673,,96.61458333,,,,,,FBP-YG-19.png,0.45,1.2,45,0.5,,,,,,,,,,,,,,,,,,0,23,23,44,1,,,,,,,,,,,,,,,,,,,,,,,
,,,,,WIN24_067,18,Male,2024-02-22_14h12.28.585,jersey_experiment_5,2023.2.2,Win32,84.74576271,,,,,,,,,,,,,,,,719.2238,721.0236,721.0236,721.8355,return,0.1782,,66.015625,,,,,,FBP-OG-18.png,0.37,1.2,7,1,,,,,,,,,,,,,,,,,,0,24,24,6,1,,,,,,,,,,,,,,,,,,,,,,,
,,,,,WIN24_067,18,Male,2024-02-22_14h12.28.585,jersey_experiment_5,2023.2.2,Win32,84.74576271,,,,,,,,,,,,,,,,721.8357,723.1296,723.1296,723.6472,return,0.1317,,66.14583333,,,,,,FBP-YG-18.png,0.37,1.2,37,0.5,,,,,,,,,,,,,,,,,,0,25,25,36,1,,,,,,,,,,,,,,,,,,,,,,,
,,,,,WIN24_067,18,Male,2024-02-22_14h12.28.585,jersey_experiment_5,2023.2.2,Win32,84.74576271,,,,,,,,,,,,,,,,723.6474,725.4472,725.4472,725.965,return,0.1509,,95.96354167,,,,,,FBP-OG-18.png,0.45,1.2,10,1,,,,,,,,,,,,,,,,,,0,26,26,9,1,,,,,,,,,,,,,,,,,,,,,,,
,,,,,WIN24_067,18,Male,2024-02-22_14h12.28.585,jersey_experiment_5,2023.2.2,Win32,84.74576271,,,,,,,,,,,,,,,,725.965,727.2589,727.2589,728.518,return,0.3481,,76.171875,,,,,,FBP-YG-19.png,0.4,1.2,43,0.5,,,,,,,,,,,,,,,,,,0,27,27,42,1,,,,,,,,,,,,,,,,,,,,,,,
,,,,,WIN24_067,18,Male,2024-02-22_14h12.28.585,jersey_experiment_5,2023.2.2,Win32,84.74576271,,,,,,,,,,,,,,,,728.5183,729.8121,729.8121,730.7182,return,0.0807,,47.91666667,,,,,,FBP-RB-91.png,0.37,1.2,27,0.5,,,,,,,,,,,,,,,,,,0,28,28,26,1,,,,,,,,,,,,,,,,,,,,,,,
,,,,,WIN24_067,18,Male,2024-02-22_14h12.28.585,jersey_experiment_5,2023.2.2,Win32,84.74576271,,,,,,,,,,,,,,,,730.7183,732.5183,732.5183,732.9534,return,0.0975,,47.52604167,,,,,,FBP-PT-71.png,0.37,1.2,47,1,,,,,,,,,,,,,,,,,,0,29,29,46,1,,,,,,,,,,,,,,,,,,,,,,,
,,,,,WIN24_067,18,Male,2024-02-22_14h12.28.585,jersey_experiment_5,2023.2.2,Win32,84.74576271,,,,,,,,,,,,,,,,732.9536,734.2475,734.2475,735.5301,return,0.0615,,77.734375,,,,,,FBP-RB-71.png,0.37,1.2,17,0.5,,,,,,,,,,,,,,,,,,0,30,30,16,1,,,,,,,,,,,,,,,,,,,,,,,
,,,,,WIN24_067,18,Male,2024-02-22_14h12.28.585,jersey_experiment_5,2023.2.2,Win32,84.74576271,,,,,,,,,,,,,,,,735.5303,737.3301,737.3301,738.7184,return,0.1179,,92.70833333,,,,,,FBP-PT-91.png,0.45,1.2,60,1,,,,,,,,,,,,,,,,,,0,31,31,59,1,,,,,,,,,,,,,,,,,,,,,,,
,,,,,WIN24_067,18,Male,2024-02-22_14h12.28.585,jersey_experiment_5,2023.2.2,Win32,84.74576271,,,,,,,,,,,,,,,,738.7185,740.0124,740.0125,740.6831,return,0.1077,,92.70833333,,,,,,FBP-YG-17.png,0.45,1.2,35,0.5,,,,,,,,,,,,,,,,,,0,32,32,34,1,,,,,,,,,,,,,,,,,,,,,,,
,,,,,WIN24_067,18,Male,2024-02-22_14h12.28.585,jersey_experiment_5,2023.2.2,Win32,84.74576271,,,,,,,,,,,,,,,,740.6833,742.4831,742.4832,743.0009,return,0.1794,,92.70833333,,,,,,FBP-PT-71.png,0.4,1.2,48,1,,,,,,,,,,,,,,,,,,0,33,33,47,1,,,,,,,,,,,,,,,,,,,,,,,
,,,,,WIN24_067,18,Male,2024-02-22_14h12.28.585,jersey_experiment_5,2023.2.2,Win32,84.74576271,,,,,,,,,,,,,,,,743.0011,744.295,744.295,745.9774,return,0.0858,,49.34895833,,,,,,FBP-RB-81.png,0.37,1.2,22,0.5,,,,,,,,,,,,,,,,,,0,34,34,21,1,,,,,,,,,,,,,,,,,,,,,,,
,,,,,WIN24_067,18,Male,2024-02-22_14h12.28.585,jersey_experiment_5,2023.2.2,Win32,84.74576271,,,,,,,,,,,,,,,,745.9776,747.7774,747.7774,748.6364,return,0.1065,,74.34895833,,,,,,FBP-OG-19.png,0.43,1.2,14,1,,,,,,,,,,,,,,,,,,0,35,35,13,1,,,,,,,,,,,,,,,,,,,,,,,
,,,,,WIN24_067,18,Male,2024-02-22_14h12.28.585,jersey_experiment_5,2023.2.2,Win32,84.74576271,,,,,,,,,,,,,,,,748.6367,750.4365,750.4365,751.1189,return,0.0806,,54.16666667,,,,,,FBP-PT-81.png,0.37,1.2,52,1,,,,,,,,,,,,,,,,,,0,36,36,51,1,,,,,,,,,,,,,,,,,,,,,,,
,,,,,WIN24_067,18,Male,2024-02-22_14h12.28.585,jersey_experiment_5,2023.2.2,Win32,84.74576271,,,,,,,,,,,,,,,,751.1191,752.919,752.9191,753.4366,return,0.0847,,56.90104167,,,,,,FBP-OG-18.png,0.4,1.2,8,1,,,,,,,,,,,,,,,,,,0,37,37,7,1,,,,,,,,,,,,,,,,,,,,,,,
,,,,,WIN24_067,18,Male,2024-02-22_14h12.28.585,jersey_experiment_5,2023.2.2,Win32,84.74576271,,,,,,,,,,,,,,,,753.4368,755.2366,755.2366,755.8367,return,0.0602,,53.77604167,,,,,,FBP-PT-91.png,0.43,1.2,59,1,,,,,,,,,,,,,,,,,,0,38,38,58,1,,,,,,,,,,,,,,,,,,,,,,,
,,,,,WIN24_067,18,Male,2024-02-22_14h12.28.585,jersey_experiment_5,2023.2.2,Win32,84.74576271,,,,,,,,,,,,,,,,755.8369,757.6367,757.6367,758.8602,return,0.7302,,85.80729167,,,,,,FBP-PT-81.png,0.45,1.2,55,1,,,,,,,,,,,,,,,,,,0,39,39,54,1,,,,,,,,,,,,,,,,,,,,,,,
,,,,,WIN24_067,18,Male,2024-02-22_14h12.28.585,jersey_experiment_5,2023.2.2,Win32,84.74576271,,,,,,,,,,,,,,,,758.8604,760.1544,760.1544,760.7191,return,0.0236,,90.36458333,,,,,,FBP-RB-81.png,0.45,1.2,25,0.5,,,,,,,,,,,,,,,,,,0,40,40,24,1,,,,,,,,,,,,,,,,,,,,,,,
,,,,,WIN24_067,18,Male,2024-02-22_14h12.28.585,jersey_experiment_5,2023.2.2,Win32,84.74576271,,,,,,,,,,,,,,,,760.7193,762.5193,762.5193,762.9075,return,0.0353,,86.06770833,,,,,,FBP-OG-19.png,0.4,1.2,13,1,,,,,,,,,,,,,,,,,,0,41,41,12,1,,,,,,,,,,,,,,,,,,,,,,,
,,,,,WIN24_067,18,Male,2024-02-22_14h12.28.585,jersey_experiment_5,2023.2.2,Win32,84.74576271,,,,,,,,,,,,,,,,762.9076,764.2015,764.2016,766.59,return,1.661,,88.93229167,,,,,,FBP-RB-81.png,0.4,1.2,23,0.5,,,,,,,,,,,,,,,,,,0,42,42,22,1,,,,,,,,,,,,,,,,,,,,,,,
,,,,,WIN24_067,18,Male,2024-02-22_14h12.28.585,jersey_experiment_5,2023.2.2,Win32,84.74576271,,,,,,,,,,,,,,,,766.5901,768.3899,768.3899,769.6606,return,0.1651,,25,,,,,,FBP-PT-81.png,0.35,1.2,51,1,,,,,,,,,,,,,,,,,,0,43,43,50,1,,,,,,,,,,,,,,,,,,,,,,,
,,,,,WIN24_067,18,Male,2024-02-22_14h12.28.585,jersey_experiment_5,2023.2.2,Win32,84.74576271,,,,,,,,,,,,,,,,769.6608,770.9548,770.9548,772.0607,return,0.0567,,73.69791667,,,,,,FBP-RB-71.png,0.35,1.2,16,0.5,,,,,,,,,,,,,,,,,,0,44,44,15,1,,,,,,,,,,,,,,,,,,,,,,,
,,,,,WIN24_067,18,Male,2024-02-22_14h12.28.585,jersey_experiment_5,2023.2.2,Win32,84.74576271,,,,,,,,,,,,,,,,772.0608,773.8608,773.8608,774.8138,return,0.4333,,94.140625,,,,,,FBP-PT-81.png,0.4,1.2,53,1,,,,,,,,,,,,,,,,,,0,45,45,52,1,,,,,,,,,,,,,,,,,,,,,,,
,,,,,WIN24_067,18,Male,2024-02-22_14h12.28.585,jersey_experiment_5,2023.2.2,Win32,84.74576271,,,,,,,,,,,,,,,,774.8139,776.614,776.614,777.0962,return,0.1693,,88.80208333,,,,,,FBP-PT-91.png,0.4,1.2,58,1,,,,,,,,,,,,,,,,,,0,46,46,57,1,,,,,,,,,,,,,,,,,,,,,,,
,,,,,WIN24_067,18,Male,2024-02-22_14h12.28.585,jersey_experiment_5,2023.2.2,Win32,84.74576271,,,,,,,,,,,,,,,,777.0964,778.8964,778.8965,779.3433,return,0.0608,,83.72395833,,,,,,FBP-PT-71.png,0.43,1.2,49,1,,,,,,,,,,,,,,,,,,0,47,47,48,1,,,,,,,,,,,,,,,,,,,,,,,
,,,,,WIN24_067,18,Male,2024-02-22_14h12.28.585,jersey_experiment_5,2023.2.2,Win32,84.74576271,,,,,,,,,,,,,,,,779.3435,780.6375,780.6375,781.7435,return,0.0935,,20.05208333,,,,,,FBP-YG-17.png,0.35,1.2,31,0.5,,,,,,,,,,,,,,,,,,0,48,48,30,1,,,,,,,,,,,,,,,,,,,,,,,
,,,,,WIN24_067,18,Male,2024-02-22_14h12.28.585,jersey_experiment_5,2023.2.2,Win32,84.74576271,,,,,,,,,,,,,,,,781.7436,783.0376,783.0377,784.1553,return,0.0957,,74.34895833,,,,,,FBP-RB-71.png,0.43,1.2,19,0.5,,,,,,,,,,,,,,,,,,0,49,49,18,1,,,,,,,,,,,,,,,,,,,,,,,
,,,,,WIN24_067,18,Male,2024-02-22_14h12.28.585,jersey_experiment_5,2023.2.2,Win32,84.74576271,,,,,,,,,,,,,,,,784.1555,785.9557,785.9557,787.9083,return,0.5381,,73.56770833,,,,,,FBP-OG-17.png,0.37,1.2,2,1,,,,,,,,,,,,,,,,,,0,50,50,1,1,,,,,,,,,,,,,,,,,,,,,,,
,,,,,WIN24_067,18,Male,2024-02-22_14h12.28.585,jersey_experiment_5,2023.2.2,Win32,84.74576271,,,,,,,,,,,,,,,,787.9087,789.2026,789.2026,789.9083,return,0.0675,,77.86458333,,,,,,FBP-RB-81.png,0.43,1.2,24,0.5,,,,,,,,,,,,,,,,,,0,51,51,23,1,,,,,,,,,,,,,,,,,,,,,,,
,,,,,WIN24_067,18,Male,2024-02-22_14h12.28.585,jersey_experiment_5,2023.2.2,Win32,84.74576271,,,,,,,,,,,,,,,,789.9086,791.7084,791.7084,792.7086,return,0.1958,,27.734375,,,,,,FBP-OG-19.png,0.37,1.2,12,1,,,,,,,,,,,,,,,,,,0,52,52,11,1,,,,,,,,,,,,,,,,,,,,,,,
,,,,,WIN24_067,18,Male,2024-02-22_14h12.28.585,jersey_experiment_5,2023.2.2,Win32,84.74576271,,,,,,,,,,,,,,,,792.7088,794.0028,794.0028,794.8736,return,0.0486,,26.04166667,,,,,,FBP-RB-81.png,0.35,1.2,21,0.5,,,,,,,,,,,,,,,,,,0,53,53,20,1,,,,,,,,,,,,,,,,,,,,,,,
,,,,,WIN24_067,18,Male,2024-02-22_14h12.28.585,jersey_experiment_5,2023.2.2,Win32,84.74576271,,,,,,,,,,,,,,,,794.8738,796.1675,796.1676,797.1792,return,0.1545,,27.60416667,,,,,,FBP-YG-17.png,0.4,1.2,33,0.5,,,,,,,,,,,,,,,,,,0,54,54,32,1,,,,,,,,,,,,,,,,,,,,,,,
,,,,,WIN24_067,18,Male,2024-02-22_14h12.28.585,jersey_experiment_5,2023.2.2,Win32,84.74576271,,,,,,,,,,,,,,,,797.1794,798.9795,798.9795,800.0382,return,0.6185,,22.65625,,,,,,FBP-OG-19.png,0.35,1.2,11,1,,,,,,,,,,,,,,,,,,0,55,55,10,1,,,,,,,,,,,,,,,,,,,,,,,
,,,,,WIN24_067,18,Male,2024-02-22_14h12.28.585,jersey_experiment_5,2023.2.2,Win32,84.74576271,,,,,,,,,,,,,,,,800.0384,801.8385,801.8385,802.4383,return,0.1008,,70.83333333,,,,,,FBP-OG-17.png,0.43,1.2,4,1,,,,,,,,,,,,,,,,,,0,56,56,3,1,,,,,,,,,,,,,,,,,,,,,,,
,,,,,WIN24_067,18,Male,2024-02-22_14h12.28.585,jersey_experiment_5,2023.2.2,Win32,84.74576271,,,,,,,,,,,,,,,,802.4385,803.7324,803.7324,804.4736,return,0.0617,,72.52604167,,,,,,FBP-RB-91.png,0.4,1.2,28,0.5,,,,,,,,,,,,,,,,,,0,57,57,27,1,,,,,,,,,,,,,,,,,,,,,,,
,,,,,WIN24_067,18,Male,2024-02-22_14h12.28.585,jersey_experiment_5,2023.2.2,Win32,84.74576271,,,,,,,,,,,,,,,,804.4738,805.7679,805.7679,806.6502,return,0.332,,72.52604167,,,,,,FBP-YG-18.png,0.35,1.2,36,0.5,,,,,,,,,,,,,,,,,,0,58,58,35,1,,,,,,,,,,,,,,,,,,,,,,,
,,,,,WIN24_067,18,Male,2024-02-22_14h12.28.585,jersey_experiment_5,2023.2.2,Win32,84.74576271,,,,,,,,,,,,,,,,806.6504,807.9444,807.9444,808.8386,return,0.0533,,72.52604167,,,,,,FBP-YG-19.png,0.43,1.2,44,0.5,,,,,,,,,,,,,,,,,,0,59,59,43,1,,,,,,,,,,,,,,,,,,,,,,,
,,,,,WIN24_067,18,Male,2024-02-22_14h12.28.585,jersey_experiment_5,2023.2.2,Win32,84.74576271,,,,,,,,,,,,,,,,,,,,,,,,,,,,,,,,,,,,,,,,,,,,,,,,,,,,,,,,808.8389,813.3565,return,4.5043,,,,,,,,,,,,,,,,,,,
,,,,,WIN24_067,18,Male,2024-02-22_14h12.28.585,jersey_experiment_5,2023.2.2,Win32,84.74576271,,,,,,,,,,,,,,,,,,,,,,,,,,,,,,,,,,,,,,,,,,,,,,,,,,,,,,,,,,,,,813.3566,818.9331,1,3.1392,return,2.4176,,,,,,,,,,,,
,,,,,WIN24_067,18,Male,2024-02-22_14h12.28.585,jersey_experiment_5,2023.2.2,Win32,84.74576271,,,,,,,,,,,,,,,,,,,,,,,,,,,,,,,,,,,,,,,,,,,,,,,,,,,,,,,,,,,,,,,,,,,,818.9332,851.1629,the football player's jersey color or skin color influencing one's perception of being big or not?,right,29.2663,,,,,,
,,,,,WIN24_067,18,Male,2024-02-22_14h12.28.585,jersey_experiment_5,2023.2.2,Win32,84.74576271,,,,,,,,,,,,,,,,,,,,,,,,,,,,,,,,,,,,,,,,,,,,,,,,,,,,,,,,,,,,,,,,,,,,,,,,,,851.163,859.5818,return,8.4082,