requirements.started,requirements.stopped,key_resp_3.keys,key_resp_3.rt,key_resp_3.duration,Subject ID,Age,Gender,date,expName,psychopyVersion,OS,frameRate,instructions1.started,instructions1.stopped,key_resp.keys,key_resp.rt,key_resp.duration,example.started,example.stopped,enter_2.keys,enter_2.rt,enter_2.duration,instructions2.started,instructions2.stopped,enter_3.keys,enter_3.rt,enter_3.duration,image.started,image.stopped,slider_2.started,slider_2.stopped,next.keys,next.rt,next.duration,slider.response,trial_block_1.thisRepN,trial_block_1.thisTrialN,trial_block_1.thisN,trial_block_1.thisIndex,trial_block_1.ran,Path,Width,Height,Index,Duration,trial_block_2.thisRepN,trial_block_2.thisTrialN,trial_block_2.thisN,trial_block_2.thisIndex,trial_block_2.ran,rest_break.started,rest_break.stopped,end_break.started,end_break.stopped,key_resp_5.keys,key_resp_5.rt,key_resp_5.duration,trial_block_3.thisRepN,trial_block_3.thisTrialN,trial_block_3.thisN,trial_block_3.thisIndex,trial_block_3.ran,trial_block_4.thisRepN,trial_block_4.thisTrialN,trial_block_4.thisN,trial_block_4.thisIndex,trial_block_4.ran,questions_intro.started,questions_intro.stopped,enter_12.keys,enter_12.rt,enter_12.duration,question2.started,question2.stopped,question_doingbest.response,question_doingbest.rt,enter_15.keys,enter_15.rt,enter_15.duration,pattern.started,pattern.stopped,pattern_2.text,enter_17.keys,enter_17.rt,enter_17.duration,thankyou.started,thankyou.stopped,enter_14.keys,enter_14.rt,enter_14.duration
0.0001,15.1187,return,15.1138,,WIN24_021,21,Female,2024-01-30_13h18.31.144,jersey_experiment_5,2023.2.2,Win32,84.74576271,,,,,,,,,,,,,,,,,,,,,,,,,,,,,,,,,,,,,,,,,,,,,,,,,,,,,,,,,,,,,,,,,,,,,,,,,,,,,,
,,,,,WIN24_021,21,Female,2024-01-30_13h18.31.144,jersey_experiment_5,2023.2.2,Win32,84.74576271,15.1188,24.6244,return,9.4963,,,,,,,,,,,,,,,,,,,,,,,,,,,,,,,,,,,,,,,,,,,,,,,,,,,,,,,,,,,,,,,,,,,,,,,,,,
,,,,,WIN24_021,21,Female,2024-01-30_13h18.31.144,jersey_experiment_5,2023.2.2,Win32,84.74576271,,,,,,24.6244,30.501,return,5.846,,,,,,,,,,,,,,,,,,,,,,,,,,,,,,,,,,,,,,,,,,,,,,,,,,,,,,,,,,,,,,,,,,,,,
,,,,,WIN24_021,21,Female,2024-01-30_13h18.31.144,jersey_experiment_5,2023.2.2,Win32,84.74576271,,,,,,,,,,,30.5011,61.8903,return,31.382,,,,,,,,,,,,,,,,,,,,,,,,,,,,,,,,,,,,,,,,,,,,,,,,,,,,,,,,,,,,,,,,
,,,,,WIN24_021,21,Female,2024-01-30_13h18.31.144,jersey_experiment_5,2023.2.2,Win32,84.74576271,,,,,,,,,,,,,,,,61.893,63.2,63.2001,68.9491,return,2.4026,,74.609375,0,0,0,2,1,FBP-OG-71.png,0.4,1.2,3,0.5,,,,,,,,,,,,,,,,,,,,,,,,,,,,,,,,,,,,,,,,,,,,,
,,,,,WIN24_021,21,Female,2024-01-30_13h18.31.144,jersey_experiment_5,2023.2.2,Win32,84.74576271,,,,,,,,,,,,,,,,68.9495,70.2471,70.2471,74.1964,return,1.1347,,49.86979167,0,1,1,13,1,FBP-OG-91.png,0.43,1.2,14,0.5,,,,,,,,,,,,,,,,,,,,,,,,,,,,,,,,,,,,,,,,,,,,,
,,,,,WIN24_021,21,Female,2024-01-30_13h18.31.144,jersey_experiment_5,2023.2.2,Win32,84.74576271,,,,,,,,,,,,,,,,74.1967,75.9993,75.9993,78.6243,return,0.9298,,49.86979167,0,2,2,22,1,FBP-RB-18.png,0.4,1.2,23,1,,,,,,,,,,,,,,,,,,,,,,,,,,,,,,,,,,,,,,,,,,,,,
,,,,,WIN24_021,21,Female,2024-01-30_13h18.31.144,jersey_experiment_5,2023.2.2,Win32,84.74576271,,,,,,,,,,,,,,,,78.6244,80.4225,80.4225,82.9658,return,0.8024,,74.73958333,0,3,3,32,1,FBP-YG-71.png,0.4,1.2,33,1,,,,,,,,,,,,,,,,,,,,,,,,,,,,,,,,,,,,,,,,,,,,,
,,,,,WIN24_021,21,Female,2024-01-30_13h18.31.144,jersey_experiment_5,2023.2.2,Win32,84.74576271,,,,,,,,,,,,,,,,82.9661,84.7663,84.7663,87.3026,return,1.4269,,74.73958333,0,4,4,39,1,FBP-YG-81.png,0.45,1.2,40,1,,,,,,,,,,,,,,,,,,,,,,,,,,,,,,,,,,,,,,,,,,,,,
,,,,,WIN24_021,21,Female,2024-01-30_13h18.31.144,jersey_experiment_5,2023.2.2,Win32,84.74576271,,,,,,,,,,,,,,,,87.3028,88.5969,88.5969,95.4914,return,5.0045,,49.609375,0,5,5,6,1,FBP-OG-81.png,0.37,1.2,7,0.5,,,,,,,,,,,,,,,,,,,,,,,,,,,,,,,,,,,,,,,,,,,,,
,,,,,WIN24_021,21,Female,2024-01-30_13h18.31.144,jersey_experiment_5,2023.2.2,Win32,84.74576271,,,,,,,,,,,,,,,,95.4957,97.2914,97.2915,99.9446,return,0.7449,,74.73958333,0,6,6,29,1,FBP-RB-19.png,0.45,1.2,30,1,,,,,,,,,,,,,,,,,,,,,,,,,,,,,,,,,,,,,,,,,,,,,
,,,,,WIN24_021,21,Female,2024-01-30_13h18.31.144,jersey_experiment_5,2023.2.2,Win32,84.74576271,,,,,,,,,,,,,,,,99.9448,101.7386,101.7386,104.5386,return,0.6592,,24.21875,0,7,7,27,1,FBP-RB-19.png,0.4,1.2,28,1,,,,,,,,,,,,,,,,,,,,,,,,,,,,,,,,,,,,,,,,,,,,,
,,,,,WIN24_021,21,Female,2024-01-30_13h18.31.144,jersey_experiment_5,2023.2.2,Win32,84.74576271,,,,,,,,,,,,,,,,104.5388,106.3306,106.3306,108.7707,return,0.5712,,49.47916667,0,8,8,43,1,FBP-YG-91.png,0.43,1.2,44,1,,,,,,,,,,,,,,,,,,,,,,,,,,,,,,,,,,,,,,,,,,,,,
,,,,,WIN24_021,21,Female,2024-01-30_13h18.31.144,jersey_experiment_5,2023.2.2,Win32,84.74576271,,,,,,,,,,,,,,,,108.7708,110.5623,110.5624,112.8494,return,0.7302,,74.73958333,0,9,9,19,1,FBP-RB-17.png,0.45,1.2,20,1,,,,,,,,,,,,,,,,,,,,,,,,,,,,,,,,,,,,,,,,,,,,,
,,,,,WIN24_021,21,Female,2024-01-30_13h18.31.144,jersey_experiment_5,2023.2.2,Win32,84.74576271,,,,,,,,,,,,,,,,112.8495,114.1428,114.1428,116.7785,return,0.7063,,24.34895833,0,10,10,55,1,FBP-PT-19.png,0.35,1.2,56,0.5,,,,,,,,,,,,,,,,,,,,,,,,,,,,,,,,,,,,,,,,,,,,,
,,,,,WIN24_021,21,Female,2024-01-30_13h18.31.144,jersey_experiment_5,2023.2.2,Win32,84.74576271,,,,,,,,,,,,,,,,116.7788,118.0722,118.0723,122.3907,return,3.1063,,50.13020833,0,11,11,11,1,FBP-OG-91.png,0.37,1.2,12,0.5,,,,,,,,,,,,,,,,,,,,,,,,,,,,,,,,,,,,,,,,,,,,,
,,,,,WIN24_021,21,Female,2024-01-30_13h18.31.144,jersey_experiment_5,2023.2.2,Win32,84.74576271,,,,,,,,,,,,,,,,122.3909,124.1902,124.1902,127.8453,return,0.5082,,74.73958333,0,12,12,38,1,FBP-YG-81.png,0.43,1.2,39,1,,,,,,,,,,,,,,,,,,,,,,,,,,,,,,,,,,,,,,,,,,,,,
,,,,,WIN24_021,21,Female,2024-01-30_13h18.31.144,jersey_experiment_5,2023.2.2,Win32,84.74576271,,,,,,,,,,,,,,,,127.8455,129.6384,129.6385,131.3631,return,0.4391,,24.34895833,0,13,13,15,1,FBP-RB-17.png,0.35,1.2,16,1,,,,,,,,,,,,,,,,,,,,,,,,,,,,,,,,,,,,,,,,,,,,,
,,,,,WIN24_021,21,Female,2024-01-30_13h18.31.144,jersey_experiment_5,2023.2.2,Win32,84.74576271,,,,,,,,,,,,,,,,131.3633,132.6573,132.6574,134.775,return,0.5888,,99.609375,0,14,14,54,1,FBP-PT-18.png,0.45,1.2,55,0.5,,,,,,,,,,,,,,,,,,,,,,,,,,,,,,,,,,,,,,,,,,,,,
,,,,,WIN24_021,21,Female,2024-01-30_13h18.31.144,jersey_experiment_5,2023.2.2,Win32,84.74576271,,,,,,,,,,,,,,,,134.7753,136.5793,136.5793,138.3044,return,0.4893,,24.21875,0,15,15,25,1,FBP-RB-19.png,0.35,1.2,26,1,,,,,,,,,,,,,,,,,,,,,,,,,,,,,,,,,,,,,,,,,,,,,
,,,,,WIN24_021,21,Female,2024-01-30_13h18.31.144,jersey_experiment_5,2023.2.2,Win32,84.74576271,,,,,,,,,,,,,,,,138.3046,139.6027,139.6027,142.1165,return,0.7444,,99.609375,0,16,16,8,1,FBP-OG-81.png,0.43,1.2,9,0.5,,,,,,,,,,,,,,,,,,,,,,,,,,,,,,,,,,,,,,,,,,,,,
,,,,,WIN24_021,21,Female,2024-01-30_13h18.31.144,jersey_experiment_5,2023.2.2,Win32,84.74576271,,,,,,,,,,,,,,,,142.1167,143.9205,143.9205,145.8735,return,0.5062,,24.21875,0,17,17,30,1,FBP-YG-71.png,0.35,1.2,31,1,,,,,,,,,,,,,,,,,,,,,,,,,,,,,,,,,,,,,,,,,,,,,
,,,,,WIN24_021,21,Female,2024-01-30_13h18.31.144,jersey_experiment_5,2023.2.2,Win32,84.74576271,,,,,,,,,,,,,,,,145.8737,147.6696,147.6696,151.6034,return,1.9536,,49.47916667,0,18,18,41,1,FBP-YG-91.png,0.37,1.2,42,1,,,,,,,,,,,,,,,,,,,,,,,,,,,,,,,,,,,,,,,,,,,,,
,,,,,WIN24_021,21,Female,2024-01-30_13h18.31.144,jersey_experiment_5,2023.2.2,Win32,84.74576271,,,,,,,,,,,,,,,,151.6036,152.8963,152.8963,154.7942,return,0.4383,,74.34895833,0,19,19,14,1,FBP-OG-91.png,0.45,1.2,15,0.5,,,,,,,,,,,,,,,,,,,,,,,,,,,,,,,,,,,,,,,,,,,,,
,,,,,WIN24_021,21,Female,2024-01-30_13h18.31.144,jersey_experiment_5,2023.2.2,Win32,84.74576271,,,,,,,,,,,,,,,,154.7943,156.0965,156.0965,157.7053,return,0.3648,,49.609375,0,20,20,45,1,FBP-PT-17.png,0.35,1.2,46,0.5,,,,,,,,,,,,,,,,,,,,,,,,,,,,,,,,,,,,,,,,,,,,,
,,,,,WIN24_021,21,Female,2024-01-30_13h18.31.144,jersey_experiment_5,2023.2.2,Win32,84.74576271,,,,,,,,,,,,,,,,157.7054,158.9994,158.9994,160.8976,return,0.6943,,75.91145833,0,21,21,57,1,FBP-PT-19.png,0.4,1.2,58,0.5,,,,,,,,,,,,,,,,,,,,,,,,,,,,,,,,,,,,,,,,,,,,,
,,,,,WIN24_021,21,Female,2024-01-30_13h18.31.144,jersey_experiment_5,2023.2.2,Win32,84.74576271,,,,,,,,,,,,,,,,160.8978,162.1903,162.1903,164.0726,return,0.3295,,75.13020833,0,22,22,48,1,FBP-PT-17.png,0.43,1.2,49,0.5,,,,,,,,,,,,,,,,,,,,,,,,,,,,,,,,,,,,,,,,,,,,,
,,,,,WIN24_021,21,Female,2024-01-30_13h18.31.144,jersey_experiment_5,2023.2.2,Win32,84.74576271,,,,,,,,,,,,,,,,164.0727,165.3643,165.3644,169.1441,return,0.3762,,74.47916667,0,23,23,12,1,FBP-OG-91.png,0.4,1.2,13,0.5,,,,,,,,,,,,,,,,,,,,,,,,,,,,,,,,,,,,,,,,,,,,,
,,,,,WIN24_021,21,Female,2024-01-30_13h18.31.144,jersey_experiment_5,2023.2.2,Win32,84.74576271,,,,,,,,,,,,,,,,169.1442,170.9411,170.9411,174.1647,return,0.8862,,74.609375,0,24,24,18,1,FBP-RB-17.png,0.43,1.2,19,1,,,,,,,,,,,,,,,,,,,,,,,,,,,,,,,,,,,,,,,,,,,,,
,,,,,WIN24_021,21,Female,2024-01-30_13h18.31.144,jersey_experiment_5,2023.2.2,Win32,84.74576271,,,,,,,,,,,,,,,,174.1649,175.9647,175.9647,179.9458,return,3.0827,,50.390625,0,25,25,17,1,FBP-RB-17.png,0.4,1.2,18,1,,,,,,,,,,,,,,,,,,,,,,,,,,,,,,,,,,,,,,,,,,,,,
,,,,,WIN24_021,21,Female,2024-01-30_13h18.31.144,jersey_experiment_5,2023.2.2,Win32,84.74576271,,,,,,,,,,,,,,,,179.946,181.7454,181.7454,183.0401,return,0.3065,,50.390625,0,26,26,16,1,FBP-RB-17.png,0.37,1.2,17,1,,,,,,,,,,,,,,,,,,,,,,,,,,,,,,,,,,,,,,,,,,,,,
,,,,,WIN24_021,21,Female,2024-01-30_13h18.31.144,jersey_experiment_5,2023.2.2,Win32,84.74576271,,,,,,,,,,,,,,,,183.0402,184.3338,184.3338,186.0047,return,0.4005,,50.390625,0,27,27,10,1,FBP-OG-91.png,0.35,1.2,11,0.5,,,,,,,,,,,,,,,,,,,,,,,,,,,,,,,,,,,,,,,,,,,,,
,,,,,WIN24_021,21,Female,2024-01-30_13h18.31.144,jersey_experiment_5,2023.2.2,Win32,84.74576271,,,,,,,,,,,,,,,,186.0049,187.3089,187.3089,188.652,return,0.4121,,50.390625,0,28,28,1,1,FBP-OG-71.png,0.37,1.2,2,0.5,,,,,,,,,,,,,,,,,,,,,,,,,,,,,,,,,,,,,,,,,,,,,
,,,,,WIN24_021,21,Female,2024-01-30_13h18.31.144,jersey_experiment_5,2023.2.2,Win32,84.74576271,,,,,,,,,,,,,,,,188.6521,189.9575,189.9575,191.6359,return,0.3329,,74.609375,0,29,29,3,1,FBP-OG-71.png,0.43,1.2,4,0.5,,,,,,,,,,,,,,,,,,,,,,,,,,,,,,,,,,,,,,,,,,,,,
,,,,,WIN24_021,21,Female,2024-01-30_13h18.31.144,jersey_experiment_5,2023.2.2,Win32,84.74576271,,,,,,,,,,,,,,,,191.6361,192.9342,192.9342,194.7916,return,0.3883,,49.86979167,0,30,30,5,1,FBP-OG-81.png,0.35,1.2,6,0.5,,,,,,,,,,,,,,,,,,,,,,,,,,,,,,,,,,,,,,,,,,,,,
,,,,,WIN24_021,21,Female,2024-01-30_13h18.31.144,jersey_experiment_5,2023.2.2,Win32,84.74576271,,,,,,,,,,,,,,,,194.7918,196.0873,196.0873,199.1772,return,0.4497,,49.86979167,0,31,31,0,1,FBP-OG-71.png,0.35,1.2,1,0.5,,,,,,,,,,,,,,,,,,,,,,,,,,,,,,,,,,,,,,,,,,,,,
,,,,,WIN24_021,21,Female,2024-01-30_13h18.31.144,jersey_experiment_5,2023.2.2,Win32,84.74576271,,,,,,,,,,,,,,,,199.1774,200.4715,200.4715,203.5348,return,1.0473,,99.73958333,0,32,32,9,1,FBP-OG-81.png,0.45,1.2,10,0.5,,,,,,,,,,,,,,,,,,,,,,,,,,,,,,,,,,,,,,,,,,,,,
,,,,,WIN24_021,21,Female,2024-01-30_13h18.31.144,jersey_experiment_5,2023.2.2,Win32,84.74576271,,,,,,,,,,,,,,,,203.5349,205.3305,205.3305,206.8407,return,0.3886,,99.08854167,0,33,33,28,1,FBP-RB-19.png,0.43,1.2,29,1,,,,,,,,,,,,,,,,,,,,,,,,,,,,,,,,,,,,,,,,,,,,,
,,,,,WIN24_021,21,Female,2024-01-30_13h18.31.144,jersey_experiment_5,2023.2.2,Win32,84.74576271,,,,,,,,,,,,,,,,206.8408,208.1349,208.1349,210.7896,return,0.4726,,99.47916667,0,34,34,53,1,FBP-PT-18.png,0.43,1.2,54,0.5,,,,,,,,,,,,,,,,,,,,,,,,,,,,,,,,,,,,,,,,,,,,,
,,,,,WIN24_021,21,Female,2024-01-30_13h18.31.144,jersey_experiment_5,2023.2.2,Win32,84.74576271,,,,,,,,,,,,,,,,210.7899,212.5935,212.5936,213.9566,return,0.5397,,99.47916667,0,35,35,42,1,FBP-YG-91.png,0.4,1.2,43,1,,,,,,,,,,,,,,,,,,,,,,,,,,,,,,,,,,,,,,,,,,,,,
,,,,,WIN24_021,21,Female,2024-01-30_13h18.31.144,jersey_experiment_5,2023.2.2,Win32,84.74576271,,,,,,,,,,,,,,,,213.9566,215.2529,215.2529,216.9663,return,0.3423,,74.21875,0,36,36,56,1,FBP-PT-19.png,0.37,1.2,57,0.5,,,,,,,,,,,,,,,,,,,,,,,,,,,,,,,,,,,,,,,,,,,,,
,,,,,WIN24_021,21,Female,2024-01-30_13h18.31.144,jersey_experiment_5,2023.2.2,Win32,84.74576271,,,,,,,,,,,,,,,,216.9665,218.7705,218.7706,220.4645,return,0.3883,,99.21875,0,37,37,34,1,FBP-YG-71.png,0.45,1.2,35,1,,,,,,,,,,,,,,,,,,,,,,,,,,,,,,,,,,,,,,,,,,,,,
,,,,,WIN24_021,21,Female,2024-01-30_13h18.31.144,jersey_experiment_5,2023.2.2,Win32,84.74576271,,,,,,,,,,,,,,,,220.4646,222.2605,222.2605,223.902,return,0.6256,,73.95833333,0,38,38,37,1,FBP-YG-81.png,0.4,1.2,38,1,,,,,,,,,,,,,,,,,,,,,,,,,,,,,,,,,,,,,,,,,,,,,
,,,,,WIN24_021,21,Female,2024-01-30_13h18.31.144,jersey_experiment_5,2023.2.2,Win32,84.74576271,,,,,,,,,,,,,,,,223.9021,225.6983,225.6984,227.1473,return,0.4238,,100,0,39,39,44,1,FBP-YG-91.png,0.45,1.2,45,1,,,,,,,,,,,,,,,,,,,,,,,,,,,,,,,,,,,,,,,,,,,,,
,,,,,WIN24_021,21,Female,2024-01-30_13h18.31.144,jersey_experiment_5,2023.2.2,Win32,84.74576271,,,,,,,,,,,,,,,,227.1474,228.4489,228.4489,231.0609,return,0.3926,,99.609375,0,40,40,58,1,FBP-PT-19.png,0.43,1.2,59,0.5,,,,,,,,,,,,,,,,,,,,,,,,,,,,,,,,,,,,,,,,,,,,,
,,,,,WIN24_021,21,Female,2024-01-30_13h18.31.144,jersey_experiment_5,2023.2.2,Win32,84.74576271,,,,,,,,,,,,,,,,231.0611,232.3576,232.3576,234.5612,return,0.3555,,74.86979167,0,41,41,47,1,FBP-PT-17.png,0.4,1.2,48,0.5,,,,,,,,,,,,,,,,,,,,,,,,,,,,,,,,,,,,,,,,,,,,,
,,,,,WIN24_021,21,Female,2024-01-30_13h18.31.144,jersey_experiment_5,2023.2.2,Win32,84.74576271,,,,,,,,,,,,,,,,234.5613,236.3602,236.3602,237.4729,return,0.3968,,50,0,42,42,40,1,FBP-YG-91.png,0.35,1.2,41,1,,,,,,,,,,,,,,,,,,,,,,,,,,,,,,,,,,,,,,,,,,,,,
,,,,,WIN24_021,21,Female,2024-01-30_13h18.31.144,jersey_experiment_5,2023.2.2,Win32,84.74576271,,,,,,,,,,,,,,,,237.4731,238.767,238.767,241.5123,return,1.6375,,49.609375,0,43,43,7,1,FBP-OG-81.png,0.4,1.2,8,0.5,,,,,,,,,,,,,,,,,,,,,,,,,,,,,,,,,,,,,,,,,,,,,
,,,,,WIN24_021,21,Female,2024-01-30_13h18.31.144,jersey_experiment_5,2023.2.2,Win32,84.74576271,,,,,,,,,,,,,,,,241.5124,242.8181,242.8182,244.0771,return,0.3293,,49.609375,0,44,44,50,1,FBP-PT-18.png,0.35,1.2,51,0.5,,,,,,,,,,,,,,,,,,,,,,,,,,,,,,,,,,,,,,,,,,,,,
,,,,,WIN24_021,21,Female,2024-01-30_13h18.31.144,jersey_experiment_5,2023.2.2,Win32,84.74576271,,,,,,,,,,,,,,,,244.0772,245.8732,245.8732,246.9598,return,0.4828,,49.609375,0,45,45,21,1,FBP-RB-18.png,0.37,1.2,22,1,,,,,,,,,,,,,,,,,,,,,,,,,,,,,,,,,,,,,,,,,,,,,
,,,,,WIN24_021,21,Female,2024-01-30_13h18.31.144,jersey_experiment_5,2023.2.2,Win32,84.74576271,,,,,,,,,,,,,,,,246.96,248.7556,248.7557,250.054,return,0.3655,,75,0,46,46,24,1,FBP-RB-18.png,0.45,1.2,25,1,,,,,,,,,,,,,,,,,,,,,,,,,,,,,,,,,,,,,,,,,,,,,
,,,,,WIN24_021,21,Female,2024-01-30_13h18.31.144,jersey_experiment_5,2023.2.2,Win32,84.74576271,,,,,,,,,,,,,,,,250.0541,251.8547,251.8547,253.2891,return,0.4942,,50,0,47,47,35,1,FBP-YG-81.png,0.35,1.2,36,1,,,,,,,,,,,,,,,,,,,,,,,,,,,,,,,,,,,,,,,,,,,,,
,,,,,WIN24_021,21,Female,2024-01-30_13h18.31.144,jersey_experiment_5,2023.2.2,Win32,84.74576271,,,,,,,,,,,,,,,,253.2892,255.0851,255.0852,256.0499,return,0.3467,,49.86979167,0,48,48,31,1,FBP-YG-71.png,0.37,1.2,32,1,,,,,,,,,,,,,,,,,,,,,,,,,,,,,,,,,,,,,,,,,,,,,
,,,,,WIN24_021,21,Female,2024-01-30_13h18.31.144,jersey_experiment_5,2023.2.2,Win32,84.74576271,,,,,,,,,,,,,,,,256.0502,257.344,257.344,259.2855,return,0.4601,,99.08854167,0,49,49,59,1,FBP-PT-19.png,0.45,1.2,60,0.5,,,,,,,,,,,,,,,,,,,,,,,,,,,,,,,,,,,,,,,,,,,,,
,,,,,WIN24_021,21,Female,2024-01-30_13h18.31.144,jersey_experiment_5,2023.2.2,Win32,84.74576271,,,,,,,,,,,,,,,,259.2856,260.5797,260.5797,262.0501,return,0.4049,,49.86979167,0,50,50,51,1,FBP-PT-18.png,0.37,1.2,52,0.5,,,,,,,,,,,,,,,,,,,,,,,,,,,,,,,,,,,,,,,,,,,,,
,,,,,WIN24_021,21,Female,2024-01-30_13h18.31.144,jersey_experiment_5,2023.2.2,Win32,84.74576271,,,,,,,,,,,,,,,,262.0504,263.3444,263.3444,265.5588,return,1.1279,,22.91666667,0,51,51,46,1,FBP-PT-17.png,0.37,1.2,47,0.5,,,,,,,,,,,,,,,,,,,,,,,,,,,,,,,,,,,,,,,,,,,,,
,,,,,WIN24_021,21,Female,2024-01-30_13h18.31.144,jersey_experiment_5,2023.2.2,Win32,84.74576271,,,,,,,,,,,,,,,,265.559,267.3562,267.3562,268.4056,return,0.3493,,24.34895833,0,52,52,36,1,FBP-YG-81.png,0.37,1.2,37,1,,,,,,,,,,,,,,,,,,,,,,,,,,,,,,,,,,,,,,,,,,,,,
,,,,,WIN24_021,21,Female,2024-01-30_13h18.31.144,jersey_experiment_5,2023.2.2,Win32,84.74576271,,,,,,,,,,,,,,,,268.4059,269.6975,269.6975,273.0742,return,0.3597,,75,0,53,53,52,1,FBP-PT-18.png,0.4,1.2,53,0.5,,,,,,,,,,,,,,,,,,,,,,,,,,,,,,,,,,,,,,,,,,,,,
,,,,,WIN24_021,21,Female,2024-01-30_13h18.31.144,jersey_experiment_5,2023.2.2,Win32,84.74576271,,,,,,,,,,,,,,,,273.0744,274.8671,274.8671,276.6315,return,0.6354,,23.56770833,0,54,54,20,1,FBP-RB-18.png,0.35,1.2,21,1,,,,,,,,,,,,,,,,,,,,,,,,,,,,,,,,,,,,,,,,,,,,,
,,,,,WIN24_021,21,Female,2024-01-30_13h18.31.144,jersey_experiment_5,2023.2.2,Win32,84.74576271,,,,,,,,,,,,,,,,276.6316,278.4274,278.4274,279.9025,return,0.3905,,74.47916667,0,55,55,23,1,FBP-RB-18.png,0.43,1.2,24,1,,,,,,,,,,,,,,,,,,,,,,,,,,,,,,,,,,,,,,,,,,,,,
,,,,,WIN24_021,21,Female,2024-01-30_13h18.31.144,jersey_experiment_5,2023.2.2,Win32,84.74576271,,,,,,,,,,,,,,,,279.9026,281.7022,281.7022,285.324,return,2.881,,74.47916667,0,56,56,33,1,FBP-YG-71.png,0.43,1.2,34,1,,,,,,,,,,,,,,,,,,,,,,,,,,,,,,,,,,,,,,,,,,,,,
,,,,,WIN24_021,21,Female,2024-01-30_13h18.31.144,jersey_experiment_5,2023.2.2,Win32,84.74576271,,,,,,,,,,,,,,,,285.3242,286.6158,286.6159,288.1805,return,0.3458,,99.47916667,0,57,57,4,1,FBP-OG-71.png,0.45,1.2,5,0.5,,,,,,,,,,,,,,,,,,,,,,,,,,,,,,,,,,,,,,,,,,,,,
,,,,,WIN24_021,21,Female,2024-01-30_13h18.31.144,jersey_experiment_5,2023.2.2,Win32,84.74576271,,,,,,,,,,,,,,,,288.1807,289.4787,289.4787,290.7689,return,0.4081,,99.47916667,0,58,58,49,1,FBP-PT-17.png,0.45,1.2,50,0.5,,,,,,,,,,,,,,,,,,,,,,,,,,,,,,,,,,,,,,,,,,,,,
,,,,,WIN24_021,21,Female,2024-01-30_13h18.31.144,jersey_experiment_5,2023.2.2,Win32,84.74576271,,,,,,,,,,,,,,,,290.7691,292.5689,292.5689,295.2397,return,1.7547,,49.73958333,0,59,59,26,1,FBP-RB-19.png,0.37,1.2,27,1,,,,,,,,,,,,,,,,,,,,,,,,,,,,,,,,,,,,,,,,,,,,,
,,,,,WIN24_021,21,Female,2024-01-30_13h18.31.144,jersey_experiment_5,2023.2.2,Win32,84.74576271,,,,,,,,,,,,,,,,295.2422,297.0397,297.0397,298.2437,return,0.5412,,49.73958333,,,,,,FBP-YG-18.png,0.37,1.2,37,1,0,0,0,36,1,,,,,,,,,,,,,,,,,,,,,,,,,,,,,,,,,,,,,,,,
,,,,,WIN24_021,21,Female,2024-01-30_13h18.31.144,jersey_experiment_5,2023.2.2,Win32,84.74576271,,,,,,,,,,,,,,,,298.244,300.0397,300.0398,302.5834,return,0.304,,49.73958333,,,,,,FBP-RB-91.png,0.4,1.2,28,1,0,1,1,27,1,,,,,,,,,,,,,,,,,,,,,,,,,,,,,,,,,,,,,,,,
,,,,,WIN24_021,21,Female,2024-01-30_13h18.31.144,jersey_experiment_5,2023.2.2,Win32,84.74576271,,,,,,,,,,,,,,,,302.5836,304.3812,304.3812,305.8324,return,0.4022,,74.08854167,,,,,,FBP-RB-71.png,0.43,1.2,19,1,0,2,2,18,1,,,,,,,,,,,,,,,,,,,,,,,,,,,,,,,,,,,,,,,,
,,,,,WIN24_021,21,Female,2024-01-30_13h18.31.144,jersey_experiment_5,2023.2.2,Win32,84.74576271,,,,,,,,,,,,,,,,305.8326,307.6323,307.6323,308.993,return,0.4176,,49.73958333,,,,,,FBP-RB-71.png,0.37,1.2,17,1,0,3,3,16,1,,,,,,,,,,,,,,,,,,,,,,,,,,,,,,,,,,,,,,,,
,,,,,WIN24_021,21,Female,2024-01-30_13h18.31.144,jersey_experiment_5,2023.2.2,Win32,84.74576271,,,,,,,,,,,,,,,,308.9932,310.797,310.797,312.7379,return,0.9172,,74.47916667,,,,,,FBP-YG-17.png,0.4,1.2,33,1,0,4,4,32,1,,,,,,,,,,,,,,,,,,,,,,,,,,,,,,,,,,,,,,,,
,,,,,WIN24_021,21,Female,2024-01-30_13h18.31.144,jersey_experiment_5,2023.2.2,Win32,84.74576271,,,,,,,,,,,,,,,,312.7381,314.0463,314.0463,315.9152,return,0.2945,,49.73958333,,,,,,FBP-PT-81.png,0.37,1.2,52,0.5,0,5,5,51,1,,,,,,,,,,,,,,,,,,,,,,,,,,,,,,,,,,,,,,,,
,,,,,WIN24_021,21,Female,2024-01-30_13h18.31.144,jersey_experiment_5,2023.2.2,Win32,84.74576271,,,,,,,,,,,,,,,,315.9153,317.209,317.209,318.8877,return,0.6707,,74.86979167,,,,,,FBP-OG-18.png,0.43,1.2,9,0.5,0,6,6,8,1,,,,,,,,,,,,,,,,,,,,,,,,,,,,,,,,,,,,,,,,
,,,,,WIN24_021,21,Female,2024-01-30_13h18.31.144,jersey_experiment_5,2023.2.2,Win32,84.74576271,,,,,,,,,,,,,,,,318.8878,320.1818,320.1819,321.1741,return,0.3296,,74.86979167,,,,,,FBP-OG-19.png,0.43,1.2,14,0.5,0,7,7,13,1,,,,,,,,,,,,,,,,,,,,,,,,,,,,,,,,,,,,,,,,
,,,,,WIN24_021,21,Female,2024-01-30_13h18.31.144,jersey_experiment_5,2023.2.2,Win32,84.74576271,,,,,,,,,,,,,,,,321.1741,322.48,322.48,324.3997,return,0.3419,,24.47916667,,,,,,FBP-OG-19.png,0.37,1.2,12,0.5,0,8,8,11,1,,,,,,,,,,,,,,,,,,,,,,,,,,,,,,,,,,,,,,,,
,,,,,WIN24_021,21,Female,2024-01-30_13h18.31.144,jersey_experiment_5,2023.2.2,Win32,84.74576271,,,,,,,,,,,,,,,,324.3999,325.7021,325.7021,327.6995,return,0.5331,,48.828125,,,,,,FBP-OG-17.png,0.4,1.2,3,0.5,0,9,9,2,1,,,,,,,,,,,,,,,,,,,,,,,,,,,,,,,,,,,,,,,,
,,,,,WIN24_021,21,Female,2024-01-30_13h18.31.144,jersey_experiment_5,2023.2.2,Win32,84.74576271,,,,,,,,,,,,,,,,327.6998,328.9938,328.9938,330.6674,return,0.4357,,25.26041667,,,,,,FBP-PT-81.png,0.35,1.2,51,0.5,0,10,10,50,1,,,,,,,,,,,,,,,,,,,,,,,,,,,,,,,,,,,,,,,,
,,,,,WIN24_021,21,Female,2024-01-30_13h18.31.144,jersey_experiment_5,2023.2.2,Win32,84.74576271,,,,,,,,,,,,,,,,330.6676,331.9783,331.9783,333.6529,return,0.3672,,99.609375,,,,,,FBP-PT-71.png,0.45,1.2,50,0.5,0,11,11,49,1,,,,,,,,,,,,,,,,,,,,,,,,,,,,,,,,,,,,,,,,
,,,,,WIN24_021,21,Female,2024-01-30_13h18.31.144,jersey_experiment_5,2023.2.2,Win32,84.74576271,,,,,,,,,,,,,,,,333.6532,335.4568,335.4569,339.0804,return,0.4129,,50,,,,,,FBP-RB-71.png,0.4,1.2,18,1,0,12,12,17,1,,,,,,,,,,,,,,,,,,,,,,,,,,,,,,,,,,,,,,,,
,,,,,WIN24_021,21,Female,2024-01-30_13h18.31.144,jersey_experiment_5,2023.2.2,Win32,84.74576271,,,,,,,,,,,,,,,,339.0806,340.8813,340.8813,342.0669,return,0.3996,,24.73958333,,,,,,FBP-RB-81.png,0.37,1.2,22,1,0,13,13,21,1,,,,,,,,,,,,,,,,,,,,,,,,,,,,,,,,,,,,,,,,
,,,,,WIN24_021,21,Female,2024-01-30_13h18.31.144,jersey_experiment_5,2023.2.2,Win32,84.74576271,,,,,,,,,,,,,,,,342.067,343.359,343.359,344.9854,return,0.3388,,24.08854167,,,,,,FBP-OG-18.png,0.37,1.2,7,0.5,0,14,14,6,1,,,,,,,,,,,,,,,,,,,,,,,,,,,,,,,,,,,,,,,,
,,,,,WIN24_021,21,Female,2024-01-30_13h18.31.144,jersey_experiment_5,2023.2.2,Win32,84.74576271,,,,,,,,,,,,,,,,344.9856,346.2807,346.2807,347.2946,return,0.3434,,24.21875,,,,,,FBP-PT-81.png,0.4,1.2,53,0.5,0,15,15,52,1,,,,,,,,,,,,,,,,,,,,,,,,,,,,,,,,,,,,,,,,
,,,,,WIN24_021,21,Female,2024-01-30_13h18.31.144,jersey_experiment_5,2023.2.2,Win32,84.74576271,,,,,,,,,,,,,,,,347.2948,349.0886,349.0886,351.448,return,0.6271,,74.21875,,,,,,FBP-YG-17.png,0.45,1.2,35,1,0,16,16,34,1,,,,,,,,,,,,,,,,,,,,,,,,,,,,,,,,,,,,,,,,
,,,,,WIN24_021,21,Female,2024-01-30_13h18.31.144,jersey_experiment_5,2023.2.2,Win32,84.74576271,,,,,,,,,,,,,,,,351.4482,353.2417,353.2417,354.0811,return,0.3759,,74.21875,,,,,,FBP-YG-18.png,0.43,1.2,39,1,0,17,17,38,1,,,,,,,,,,,,,,,,,,,,,,,,,,,,,,,,,,,,,,,,
,,,,,WIN24_021,21,Female,2024-01-30_13h18.31.144,jersey_experiment_5,2023.2.2,Win32,84.74576271,,,,,,,,,,,,,,,,354.0812,355.8772,355.8772,357.7831,return,1.2824,,74.21875,,,,,,FBP-RB-91.png,0.43,1.2,29,1,0,18,18,28,1,,,,,,,,,,,,,,,,,,,,,,,,,,,,,,,,,,,,,,,,
,,,,,WIN24_021,21,Female,2024-01-30_13h18.31.144,jersey_experiment_5,2023.2.2,Win32,84.74576271,,,,,,,,,,,,,,,,357.7834,359.0773,359.0774,360.5423,return,0.3668,,75.13020833,,,,,,FBP-OG-19.png,0.45,1.2,15,0.5,0,19,19,14,1,,,,,,,,,,,,,,,,,,,,,,,,,,,,,,,,,,,,,,,,
,,,,,WIN24_021,21,Female,2024-01-30_13h18.31.144,jersey_experiment_5,2023.2.2,Win32,84.74576271,,,,,,,,,,,,,,,,360.5424,362.3362,362.3362,363.5149,return,0.3394,,75.13020833,,,,,,FBP-YG-19.png,0.45,1.2,45,1,0,20,20,44,1,,,,,,,,,,,,,,,,,,,,,,,,,,,,,,,,,,,,,,,,
,,,,,WIN24_021,21,Female,2024-01-30_13h18.31.144,jersey_experiment_5,2023.2.2,Win32,84.74576271,,,,,,,,,,,,,,,,363.5151,365.3128,365.3128,366.1481,return,0.297,,75.13020833,,,,,,FBP-YG-19.png,0.43,1.2,44,1,0,21,21,43,1,,,,,,,,,,,,,,,,,,,,,,,,,,,,,,,,,,,,,,,,
,,,,,WIN24_021,21,Female,2024-01-30_13h18.31.144,jersey_experiment_5,2023.2.2,Win32,84.74576271,,,,,,,,,,,,,,,,366.1483,367.9432,367.9432,369.4928,return,0.5539,,23.17708333,,,,,,FBP-YG-19.png,0.4,1.2,43,1,0,22,22,42,1,,,,,,,,,,,,,,,,,,,,,,,,,,,,,,,,,,,,,,,,
,,,,,WIN24_021,21,Female,2024-01-30_13h18.31.144,jersey_experiment_5,2023.2.2,Win32,84.74576271,,,,,,,,,,,,,,,,369.4929,370.7896,370.7896,372.7055,return,0.2489,,24.21875,,,,,,FBP-OG-17.png,0.35,1.2,1,0.5,0,23,23,0,1,,,,,,,,,,,,,,,,,,,,,,,,,,,,,,,,,,,,,,,,
,,,,,WIN24_021,21,Female,2024-01-30_13h18.31.144,jersey_experiment_5,2023.2.2,Win32,84.74576271,,,,,,,,,,,,,,,,372.7057,374.5058,374.5058,378.1761,return,3.1429,,48.17708333,,,,,,FBP-YG-18.png,0.4,1.2,38,1,0,24,24,37,1,,,,,,,,,,,,,,,,,,,,,,,,,,,,,,,,,,,,,,,,
,,,,,WIN24_021,21,Female,2024-01-30_13h18.31.144,jersey_experiment_5,2023.2.2,Win32,84.74576271,,,,,,,,,,,,,,,,378.1763,379.9678,379.9678,381.3957,return,0.4407,,25.26041667,,,,,,FBP-RB-81.png,0.35,1.2,21,1,0,25,25,20,1,,,,,,,,,,,,,,,,,,,,,,,,,,,,,,,,,,,,,,,,
,,,,,WIN24_021,21,Female,2024-01-30_13h18.31.144,jersey_experiment_5,2023.2.2,Win32,84.74576271,,,,,,,,,,,,,,,,381.3959,383.1889,383.1889,396.6435,return,0.9938,,10.9375,,,,,,FBP-RB-91.png,0.35,1.2,26,1,0,26,26,25,1,,,,,,,,,,,,,,,,,,,,,,,,,,,,,,,,,,,,,,,,
,,,,,WIN24_021,21,Female,2024-01-30_13h18.31.144,jersey_experiment_5,2023.2.2,Win32,84.74576271,,,,,,,,,,,,,,,,396.6438,398.4472,398.4472,400.4961,return,0.6131,,24.73958333,,,,,,FBP-YG-19.png,0.35,1.2,41,1,0,27,27,40,1,,,,,,,,,,,,,,,,,,,,,,,,,,,,,,,,,,,,,,,,
,,,,,WIN24_021,21,Female,2024-01-30_13h18.31.144,jersey_experiment_5,2023.2.2,Win32,84.74576271,,,,,,,,,,,,,,,,400.4963,401.7985,401.7985,403.0122,return,0.4246,,24.73958333,,,,,,FBP-PT-91.png,0.35,1.2,56,0.5,0,28,28,55,1,,,,,,,,,,,,,,,,,,,,,,,,,,,,,,,,,,,,,,,,
,,,,,WIN24_021,21,Female,2024-01-30_13h18.31.144,jersey_experiment_5,2023.2.2,Win32,84.74576271,,,,,,,,,,,,,,,,403.0123,404.3062,404.3063,405.6202,return,0.297,,24.73958333,,,,,,FBP-PT-71.png,0.35,1.2,46,0.5,0,29,29,45,1,,,,,,,,,,,,,,,,,,,,,,,,,,,,,,,,,,,,,,,,
,,,,,WIN24_021,21,Female,2024-01-30_13h18.31.144,jersey_experiment_5,2023.2.2,Win32,84.74576271,,,,,,,,,,,,,,,,405.6204,407.4241,407.4241,412.2366,return,0.402,,49.34895833,,,,,,FBP-YG-19.png,0.37,1.2,42,1,0,30,30,41,1,,,,,,,,,,,,,,,,,,,,,,,,,,,,,,,,,,,,,,,,
,,,,,WIN24_021,21,Female,2024-01-30_13h18.31.144,jersey_experiment_5,2023.2.2,Win32,84.74576271,,,,,,,,,,,,,,,,412.2368,413.5407,413.5407,417.9186,return,1.8484,,48.95833333,,,,,,FBP-OG-19.png,0.4,1.2,13,0.5,0,31,31,12,1,,,,,,,,,,,,,,,,,,,,,,,,,,,,,,,,,,,,,,,,
,,,,,WIN24_021,21,Female,2024-01-30_13h18.31.144,jersey_experiment_5,2023.2.2,Win32,84.74576271,,,,,,,,,,,,,,,,417.9188,419.2207,419.2207,421.2955,return,0.5195,,99.609375,,,,,,FBP-OG-17.png,0.45,1.2,5,0.5,0,32,32,4,1,,,,,,,,,,,,,,,,,,,,,,,,,,,,,,,,,,,,,,,,
,,,,,WIN24_021,21,Female,2024-01-30_13h18.31.144,jersey_experiment_5,2023.2.2,Win32,84.74576271,,,,,,,,,,,,,,,,421.2957,422.5881,422.5881,423.8722,return,0.7151,,99.47916667,,,,,,FBP-PT-71.png,0.43,1.2,49,0.5,0,33,33,48,1,,,,,,,,,,,,,,,,,,,,,,,,,,,,,,,,,,,,,,,,
,,,,,WIN24_021,21,Female,2024-01-30_13h18.31.144,jersey_experiment_5,2023.2.2,Win32,84.74576271,,,,,,,,,,,,,,,,423.8723,425.1798,425.1798,426.825,return,0.3648,,74.609375,,,,,,FBP-OG-17.png,0.37,1.2,2,0.5,0,34,34,1,1,,,,,,,,,,,,,,,,,,,,,,,,,,,,,,,,,,,,,,,,
,,,,,WIN24_021,21,Female,2024-01-30_13h18.31.144,jersey_experiment_5,2023.2.2,Win32,84.74576271,,,,,,,,,,,,,,,,426.8251,428.1309,428.1309,430.1652,return,0.3636,,49.86979167,,,,,,FBP-PT-91.png,0.37,1.2,57,0.5,0,35,35,56,1,,,,,,,,,,,,,,,,,,,,,,,,,,,,,,,,,,,,,,,,
,,,,,WIN24_021,21,Female,2024-01-30_13h18.31.144,jersey_experiment_5,2023.2.2,Win32,84.74576271,,,,,,,,,,,,,,,,430.1654,431.4708,431.4708,433.7547,return,0.3864,,25.13020833,,,,,,FBP-OG-18.png,0.35,1.2,6,0.5,0,36,36,5,1,,,,,,,,,,,,,,,,,,,,,,,,,,,,,,,,,,,,,,,,
,,,,,WIN24_021,21,Female,2024-01-30_13h18.31.144,jersey_experiment_5,2023.2.2,Win32,84.74576271,,,,,,,,,,,,,,,,433.7549,435.5548,435.5549,436.4487,return,0.3531,,25.52083333,,,,,,FBP-RB-91.png,0.37,1.2,27,1,0,37,37,26,1,,,,,,,,,,,,,,,,,,,,,,,,,,,,,,,,,,,,,,,,
,,,,,WIN24_021,21,Female,2024-01-30_13h18.31.144,jersey_experiment_5,2023.2.2,Win32,84.74576271,,,,,,,,,,,,,,,,436.4488,437.7431,437.7431,438.6371,return,0.3077,,25.52083333,,,,,,FBP-PT-71.png,0.37,1.2,47,0.5,0,38,38,46,1,,,,,,,,,,,,,,,,,,,,,,,,,,,,,,,,,,,,,,,,
,,,,,WIN24_021,21,Female,2024-01-30_13h18.31.144,jersey_experiment_5,2023.2.2,Win32,84.74576271,,,,,,,,,,,,,,,,438.6373,439.9429,439.9429,441.6255,return,0.3172,,74.47916667,,,,,,FBP-OG-18.png,0.45,1.2,10,0.5,0,39,39,9,1,,,,,,,,,,,,,,,,,,,,,,,,,,,,,,,,,,,,,,,,
,,,,,WIN24_021,21,Female,2024-01-30_13h18.31.144,jersey_experiment_5,2023.2.2,Win32,84.74576271,,,,,,,,,,,,,,,,441.6257,443.4266,443.4266,447.6806,return,3.0537,,49.609375,,,,,,FBP-YG-17.png,0.37,1.2,32,1,0,40,40,31,1,,,,,,,,,,,,,,,,,,,,,,,,,,,,,,,,,,,,,,,,
,,,,,WIN24_021,21,Female,2024-01-30_13h18.31.144,jersey_experiment_5,2023.2.2,Win32,84.74576271,,,,,,,,,,,,,,,,447.6809,448.9746,448.9747,451.073,return,1.096,,75,,,,,,FBP-PT-71.png,0.4,1.2,48,0.5,0,41,41,47,1,,,,,,,,,,,,,,,,,,,,,,,,,,,,,,,,,,,,,,,,
,,,,,WIN24_021,21,Female,2024-01-30_13h18.31.144,jersey_experiment_5,2023.2.2,Win32,84.74576271,,,,,,,,,,,,,,,,451.0731,452.8689,452.869,453.7088,return,0.2926,,74.86979167,,,,,,FBP-RB-71.png,0.45,1.2,20,1,0,42,42,19,1,,,,,,,,,,,,,,,,,,,,,,,,,,,,,,,,,,,,,,,,
,,,,,WIN24_021,21,Female,2024-01-30_13h18.31.144,jersey_experiment_5,2023.2.2,Win32,84.74576271,,,,,,,,,,,,,,,,453.7088,455.5042,455.5042,457.2378,return,0.3875,,49.34895833,,,,,,FBP-RB-81.png,0.4,1.2,23,1,0,43,43,22,1,,,,,,,,,,,,,,,,,,,,,,,,,,,,,,,,,,,,,,,,
,,,,,WIN24_021,21,Female,2024-01-30_13h18.31.144,jersey_experiment_5,2023.2.2,Win32,84.74576271,,,,,,,,,,,,,,,,457.238,459.0339,459.034,462.7087,return,0.3194,,50.390625,,,,,,FBP-RB-91.png,0.45,1.2,30,1,0,44,44,29,1,,,,,,,,,,,,,,,,,,,,,,,,,,,,,,,,,,,,,,,,
,,,,,WIN24_021,21,Female,2024-01-30_13h18.31.144,jersey_experiment_5,2023.2.2,Win32,84.74576271,,,,,,,,,,,,,,,,462.7088,464.5087,464.5087,466.0381,return,0.2819,,75,,,,,,FBP-YG-18.png,0.45,1.2,40,1,0,45,45,39,1,,,,,,,,,,,,,,,,,,,,,,,,,,,,,,,,,,,,,,,,
,,,,,WIN24_021,21,Female,2024-01-30_13h18.31.144,jersey_experiment_5,2023.2.2,Win32,84.74576271,,,,,,,,,,,,,,,,466.0382,467.3341,467.3341,468.5558,return,0.3176,,24.08854167,,,,,,FBP-OG-19.png,0.35,1.2,11,0.5,0,46,46,10,1,,,,,,,,,,,,,,,,,,,,,,,,,,,,,,,,,,,,,,,,
,,,,,WIN24_021,21,Female,2024-01-30_13h18.31.144,jersey_experiment_5,2023.2.2,Win32,84.74576271,,,,,,,,,,,,,,,,468.556,469.8579,469.8579,471.5448,return,0.4239,,50.78125,,,,,,FBP-PT-91.png,0.4,1.2,58,0.5,0,47,47,57,1,,,,,,,,,,,,,,,,,,,,,,,,,,,,,,,,,,,,,,,,
,,,,,WIN24_021,21,Female,2024-01-30_13h18.31.144,jersey_experiment_5,2023.2.2,Win32,84.74576271,,,,,,,,,,,,,,,,471.5449,473.3402,473.3403,474.9666,return,0.9631,,24.34895833,,,,,,FBP-RB-71.png,0.35,1.2,16,1,0,48,48,15,1,,,,,,,,,,,,,,,,,,,,,,,,,,,,,,,,,,,,,,,,
,,,,,WIN24_021,21,Female,2024-01-30_13h18.31.144,jersey_experiment_5,2023.2.2,Win32,84.74576271,,,,,,,,,,,,,,,,474.9667,476.2622,476.2622,478.581,return,0.7438,,73.95833333,,,,,,FBP-OG-17.png,0.43,1.2,4,0.5,0,49,49,3,1,,,,,,,,,,,,,,,,,,,,,,,,,,,,,,,,,,,,,,,,
,,,,,WIN24_021,21,Female,2024-01-30_13h18.31.144,jersey_experiment_5,2023.2.2,Win32,84.74576271,,,,,,,,,,,,,,,,478.5811,480.3757,480.3757,481.9197,return,0.6337,,74.34895833,,,,,,FBP-YG-17.png,0.43,1.2,34,1,0,50,50,33,1,,,,,,,,,,,,,,,,,,,,,,,,,,,,,,,,,,,,,,,,
,,,,,WIN24_021,21,Female,2024-01-30_13h18.31.144,jersey_experiment_5,2023.2.2,Win32,84.74576271,,,,,,,,,,,,,,,,481.9199,483.2155,483.2155,485.0626,return,0.859,,74.34895833,,,,,,FBP-PT-91.png,0.43,1.2,59,0.5,0,51,51,58,1,,,,,,,,,,,,,,,,,,,,,,,,,,,,,,,,,,,,,,,,
,,,,,WIN24_021,21,Female,2024-01-30_13h18.31.144,jersey_experiment_5,2023.2.2,Win32,84.74576271,,,,,,,,,,,,,,,,485.0627,486.8625,486.8626,488.1097,return,0.5181,,73.828125,,,,,,FBP-RB-81.png,0.45,1.2,25,1,0,52,52,24,1,,,,,,,,,,,,,,,,,,,,,,,,,,,,,,,,,,,,,,,,
,,,,,WIN24_021,21,Female,2024-01-30_13h18.31.144,jersey_experiment_5,2023.2.2,Win32,84.74576271,,,,,,,,,,,,,,,,488.1099,489.4036,489.4036,490.5291,return,0.3591,,74.08854167,,,,,,FBP-PT-81.png,0.43,1.2,54,0.5,0,53,53,53,1,,,,,,,,,,,,,,,,,,,,,,,,,,,,,,,,,,,,,,,,
,,,,,WIN24_021,21,Female,2024-01-30_13h18.31.144,jersey_experiment_5,2023.2.2,Win32,84.74576271,,,,,,,,,,,,,,,,490.5294,492.3212,492.3212,494.0351,return,0.3571,,25.65104167,,,,,,FBP-YG-17.png,0.35,1.2,31,1,0,54,54,30,1,,,,,,,,,,,,,,,,,,,,,,,,,,,,,,,,,,,,,,,,
,,,,,WIN24_021,21,Female,2024-01-30_13h18.31.144,jersey_experiment_5,2023.2.2,Win32,84.74576271,,,,,,,,,,,,,,,,494.0354,495.3322,495.3323,496.8353,return,0.3913,,75.390625,,,,,,FBP-PT-81.png,0.45,1.2,55,0.5,0,55,55,54,1,,,,,,,,,,,,,,,,,,,,,,,,,,,,,,,,,,,,,,,,
,,,,,WIN24_021,21,Female,2024-01-30_13h18.31.144,jersey_experiment_5,2023.2.2,Win32,84.74576271,,,,,,,,,,,,,,,,496.8355,498.1336,498.1337,499.4118,return,0.2857,,50.91145833,,,,,,FBP-OG-18.png,0.4,1.2,8,0.5,0,56,56,7,1,,,,,,,,,,,,,,,,,,,,,,,,,,,,,,,,,,,,,,,,
,,,,,WIN24_021,21,Female,2024-01-30_13h18.31.144,jersey_experiment_5,2023.2.2,Win32,84.74576271,,,,,,,,,,,,,,,,499.4121,500.7058,500.7059,501.9089,return,0.3874,,74.34895833,,,,,,FBP-PT-91.png,0.45,1.2,60,0.5,0,57,57,59,1,,,,,,,,,,,,,,,,,,,,,,,,,,,,,,,,,,,,,,,,
,,,,,WIN24_021,21,Female,2024-01-30_13h18.31.144,jersey_experiment_5,2023.2.2,Win32,84.74576271,,,,,,,,,,,,,,,,501.9091,503.7081,503.7081,504.8376,return,0.4692,,26.43229167,,,,,,FBP-YG-18.png,0.35,1.2,36,1,0,58,58,35,1,,,,,,,,,,,,,,,,,,,,,,,,,,,,,,,,,,,,,,,,
,,,,,WIN24_021,21,Female,2024-01-30_13h18.31.144,jersey_experiment_5,2023.2.2,Win32,84.74576271,,,,,,,,,,,,,,,,504.8378,506.6397,506.6397,507.52,return,0.4347,,75.13020833,,,,,,FBP-RB-81.png,0.43,1.2,24,1,0,59,59,23,1,,,,,,,,,,,,,,,,,,,,,,,,,,,,,,,,,,,,,,,,
,,,,,WIN24_021,21,Female,2024-01-30_13h18.31.144,jersey_experiment_5,2023.2.2,Win32,84.74576271,,,,,,,,,,,,,,,,,,,,,,,,,,,,,,,,,,,,,,,507.5203,627.5246,,,,,,,,,,,,,,,,,,,,,,,,,,,,,,,,,,,,,,
,,,,,WIN24_021,21,Female,2024-01-30_13h18.31.144,jersey_experiment_5,2023.2.2,Win32,84.74576271,,,,,,,,,,,,,,,,,,,,,,,,,,,,,,,,,,,,,,,,,627.5247,629.9855,return,2.4469,,,,,,,,,,,,,,,,,,,,,,,,,,,,,,,,,,
,,,,,WIN24_021,21,Female,2024-01-30_13h18.31.144,jersey_experiment_5,2023.2.2,Win32,84.74576271,,,,,,,,,,,,,,,,629.9915,631.7853,631.7853,633.9737,return,0.67,,49.47916667,,,,,,FBP-PT-18.png,0.43,1.2,54,1,,,,,,,,,,,,,0,0,0,53,1,,,,,,,,,,,,,,,,,,,,,,,,,,,,
,,,,,WIN24_021,21,Female,2024-01-30_13h18.31.144,jersey_experiment_5,2023.2.2,Win32,84.74576271,,,,,,,,,,,,,,,,633.9739,635.7697,635.7698,637.3462,return,0.6499,,49.34895833,,,,,,FBP-OG-71.png,0.43,1.2,4,1,,,,,,,,,,,,,0,1,1,3,1,,,,,,,,,,,,,,,,,,,,,,,,,,,,
,,,,,WIN24_021,21,Female,2024-01-30_13h18.31.144,jersey_experiment_5,2023.2.2,Win32,84.74576271,,,,,,,,,,,,,,,,637.3465,638.6442,638.6442,639.8803,return,0.8023,,48.69791667,,,,,,FBP-YG-81.png,0.4,1.2,38,0.5,,,,,,,,,,,,,0,2,2,37,1,,,,,,,,,,,,,,,,,,,,,,,,,,,,
,,,,,WIN24_021,21,Female,2024-01-30_13h18.31.144,jersey_experiment_5,2023.2.2,Win32,84.74576271,,,,,,,,,,,,,,,,639.8804,641.1745,641.1746,642.4668,return,0.3399,,50.65104167,,,,,,FBP-RB-17.png,0.4,1.2,18,0.5,,,,,,,,,,,,,0,3,3,17,1,,,,,,,,,,,,,,,,,,,,,,,,,,,,
,,,,,WIN24_021,21,Female,2024-01-30_13h18.31.144,jersey_experiment_5,2023.2.2,Win32,84.74576271,,,,,,,,,,,,,,,,642.467,644.2681,644.2681,645.4586,return,0.2844,,24.47916667,,,,,,FBP-OG-91.png,0.37,1.2,12,1,,,,,,,,,,,,,0,4,4,11,1,,,,,,,,,,,,,,,,,,,,,,,,,,,,
,,,,,WIN24_021,21,Female,2024-01-30_13h18.31.144,jersey_experiment_5,2023.2.2,Win32,84.74576271,,,,,,,,,,,,,,,,645.4588,646.7506,646.7506,648.4922,return,0.3309,,75.78125,,,,,,FBP-RB-17.png,0.43,1.2,19,0.5,,,,,,,,,,,,,0,5,5,18,1,,,,,,,,,,,,,,,,,,,,,,,,,,,,
,,,,,WIN24_021,21,Female,2024-01-30_13h18.31.144,jersey_experiment_5,2023.2.2,Win32,84.74576271,,,,,,,,,,,,,,,,648.4924,650.2949,650.2949,651.2174,return,0.3603,,50,,,,,,FBP-OG-71.png,0.4,1.2,3,1,,,,,,,,,,,,,0,6,6,2,1,,,,,,,,,,,,,,,,,,,,,,,,,,,,
,,,,,WIN24_021,21,Female,2024-01-30_13h18.31.144,jersey_experiment_5,2023.2.2,Win32,84.74576271,,,,,,,,,,,,,,,,651.2175,653.0105,653.0105,654.3746,return,0.6462,,25.52083333,,,,,,FBP-OG-81.png,0.35,1.2,6,1,,,,,,,,,,,,,0,7,7,5,1,,,,,,,,,,,,,,,,,,,,,,,,,,,,
,,,,,WIN24_021,21,Female,2024-01-30_13h18.31.144,jersey_experiment_5,2023.2.2,Win32,84.74576271,,,,,,,,,,,,,,,,654.3747,656.1765,656.1766,659.1511,return,1.1657,,99.73958333,,,,,,FBP-OG-71.png,0.45,1.2,5,1,,,,,,,,,,,,,0,8,8,4,1,,,,,,,,,,,,,,,,,,,,,,,,,,,,
,,,,,WIN24_021,21,Female,2024-01-30_13h18.31.144,jersey_experiment_5,2023.2.2,Win32,84.74576271,,,,,,,,,,,,,,,,659.1514,660.4581,660.4581,662.5001,return,0.3082,,49.73958333,,,,,,FBP-YG-71.png,0.37,1.2,32,0.5,,,,,,,,,,,,,0,9,9,31,1,,,,,,,,,,,,,,,,,,,,,,,,,,,,
,,,,,WIN24_021,21,Female,2024-01-30_13h18.31.144,jersey_experiment_5,2023.2.2,Win32,84.74576271,,,,,,,,,,,,,,,,662.5003,663.7961,663.7961,665.0767,return,0.32,,24.21875,,,,,,FBP-RB-18.png,0.37,1.2,22,0.5,,,,,,,,,,,,,0,10,10,21,1,,,,,,,,,,,,,,,,,,,,,,,,,,,,
,,,,,WIN24_021,21,Female,2024-01-30_13h18.31.144,jersey_experiment_5,2023.2.2,Win32,84.74576271,,,,,,,,,,,,,,,,665.0769,666.3744,666.3744,667.9752,return,0.2728,,16.53645833,,,,,,FBP-YG-71.png,0.35,1.2,31,0.5,,,,,,,,,,,,,0,11,11,30,1,,,,,,,,,,,,,,,,,,,,,,,,,,,,
,,,,,WIN24_021,21,Female,2024-01-30_13h18.31.144,jersey_experiment_5,2023.2.2,Win32,84.74576271,,,,,,,,,,,,,,,,667.9755,669.7709,669.7709,672.1048,return,0.3652,,50,,,,,,FBP-OG-81.png,0.4,1.2,8,1,,,,,,,,,,,,,0,12,12,7,1,,,,,,,,,,,,,,,,,,,,,,,,,,,,
,,,,,WIN24_021,21,Female,2024-01-30_13h18.31.144,jersey_experiment_5,2023.2.2,Win32,84.74576271,,,,,,,,,,,,,,,,672.1049,673.4104,673.4105,674.4458,return,0.3177,,24.47916667,,,,,,FBP-RB-17.png,0.37,1.2,17,0.5,,,,,,,,,,,,,0,13,13,16,1,,,,,,,,,,,,,,,,,,,,,,,,,,,,
,,,,,WIN24_021,21,Female,2024-01-30_13h18.31.144,jersey_experiment_5,2023.2.2,Win32,84.74576271,,,,,,,,,,,,,,,,674.446,675.7398,675.7398,678.401,return,0.4491,,86.97916667,,,,,,FBP-YG-91.png,0.43,1.2,44,0.5,,,,,,,,,,,,,0,14,14,43,1,,,,,,,,,,,,,,,,,,,,,,,,,,,,
,,,,,WIN24_021,21,Female,2024-01-30_13h18.31.144,jersey_experiment_5,2023.2.2,Win32,84.74576271,,,,,,,,,,,,,,,,678.4011,679.7049,679.7049,681.2655,return,0.5935,,74.47916667,,,,,,FBP-RB-19.png,0.4,1.2,28,0.5,,,,,,,,,,,,,0,15,15,27,1,,,,,,,,,,,,,,,,,,,,,,,,,,,,
,,,,,WIN24_021,21,Female,2024-01-30_13h18.31.144,jersey_experiment_5,2023.2.2,Win32,84.74576271,,,,,,,,,,,,,,,,681.2657,683.0706,683.0706,685.6696,return,0.6722,,99.73958333,,,,,,FBP-OG-81.png,0.43,1.2,9,1,,,,,,,,,,,,,0,16,16,8,1,,,,,,,,,,,,,,,,,,,,,,,,,,,,
,,,,,WIN24_021,21,Female,2024-01-30_13h18.31.144,jersey_experiment_5,2023.2.2,Win32,84.74576271,,,,,,,,,,,,,,,,685.6697,686.9758,686.9758,688.869,return,0.3854,,40.75520833,,,,,,FBP-RB-19.png,0.37,1.2,27,0.5,,,,,,,,,,,,,0,17,17,26,1,,,,,,,,,,,,,,,,,,,,,,,,,,,,
,,,,,WIN24_021,21,Female,2024-01-30_13h18.31.144,jersey_experiment_5,2023.2.2,Win32,84.74576271,,,,,,,,,,,,,,,,688.8692,690.6618,690.6618,692.5012,return,0.6018,,74.34895833,,,,,,FBP-OG-91.png,0.45,1.2,15,1,,,,,,,,,,,,,0,18,18,14,1,,,,,,,,,,,,,,,,,,,,,,,,,,,,
,,,,,WIN24_021,21,Female,2024-01-30_13h18.31.144,jersey_experiment_5,2023.2.2,Win32,84.74576271,,,,,,,,,,,,,,,,692.5015,694.3032,694.3033,695.8307,return,0.2817,,49.73958333,,,,,,FBP-OG-91.png,0.35,1.2,11,1,,,,,,,,,,,,,0,19,19,10,1,,,,,,,,,,,,,,,,,,,,,,,,,,,,
,,,,,WIN24_021,21,Female,2024-01-30_13h18.31.144,jersey_experiment_5,2023.2.2,Win32,84.74576271,,,,,,,,,,,,,,,,695.8309,697.6238,697.6238,699.8781,return,0.4012,,98.828125,,,,,,FBP-PT-17.png,0.45,1.2,50,1,,,,,,,,,,,,,0,20,20,49,1,,,,,,,,,,,,,,,,,,,,,,,,,,,,
,,,,,WIN24_021,21,Female,2024-01-30_13h18.31.144,jersey_experiment_5,2023.2.2,Win32,84.74576271,,,,,,,,,,,,,,,,699.8783,701.1721,701.1721,702.3178,return,0.5529,,99.34895833,,,,,,FBP-RB-18.png,0.45,1.2,25,0.5,,,,,,,,,,,,,0,21,21,24,1,,,,,,,,,,,,,,,,,,,,,,,,,,,,
,,,,,WIN24_021,21,Female,2024-01-30_13h18.31.144,jersey_experiment_5,2023.2.2,Win32,84.74576271,,,,,,,,,,,,,,,,702.3179,704.1135,704.1135,705.745,return,0.3473,,74.86979167,,,,,,FBP-PT-18.png,0.4,1.2,53,1,,,,,,,,,,,,,0,22,22,52,1,,,,,,,,,,,,,,,,,,,,,,,,,,,,
,,,,,WIN24_021,21,Female,2024-01-30_13h18.31.144,jersey_experiment_5,2023.2.2,Win32,84.74576271,,,,,,,,,,,,,,,,705.7452,707.537,707.537,709.1174,return,0.4236,,49.73958333,,,,,,FBP-PT-17.png,0.37,1.2,47,1,,,,,,,,,,,,,0,23,23,46,1,,,,,,,,,,,,,,,,,,,,,,,,,,,,
,,,,,WIN24_021,21,Female,2024-01-30_13h18.31.144,jersey_experiment_5,2023.2.2,Win32,84.74576271,,,,,,,,,,,,,,,,709.1176,710.4116,710.4117,713.3544,return,0.729,,74.609375,,,,,,FBP-YG-81.png,0.43,1.2,39,0.5,,,,,,,,,,,,,0,24,24,38,1,,,,,,,,,,,,,,,,,,,,,,,,,,,,
,,,,,WIN24_021,21,Female,2024-01-30_13h18.31.144,jersey_experiment_5,2023.2.2,Win32,84.74576271,,,,,,,,,,,,,,,,713.3546,714.655,714.655,716.3162,return,0.5044,,48.56770833,,,,,,FBP-YG-91.png,0.4,1.2,43,0.5,,,,,,,,,,,,,0,25,25,42,1,,,,,,,,,,,,,,,,,,,,,,,,,,,,
,,,,,WIN24_021,21,Female,2024-01-30_13h18.31.144,jersey_experiment_5,2023.2.2,Win32,84.74576271,,,,,,,,,,,,,,,,716.3165,718.1184,718.1184,719.131,return,0.2955,,25.26041667,,,,,,FBP-PT-19.png,0.35,1.2,56,1,,,,,,,,,,,,,0,26,26,55,1,,,,,,,,,,,,,,,,,,,,,,,,,,,,
,,,,,WIN24_021,21,Female,2024-01-30_13h18.31.144,jersey_experiment_5,2023.2.2,Win32,84.74576271,,,,,,,,,,,,,,,,719.1312,720.9257,720.9258,724.0008,return,2.3984,,35.28645833,,,,,,FBP-PT-18.png,0.37,1.2,52,1,,,,,,,,,,,,,0,27,27,51,1,,,,,,,,,,,,,,,,,,,,,,,,,,,,
,,,,,WIN24_021,21,Female,2024-01-30_13h18.31.144,jersey_experiment_5,2023.2.2,Win32,84.74576271,,,,,,,,,,,,,,,,724.001,725.8015,725.8016,729.5053,return,2.5981,,99.34895833,,,,,,FBP-PT-18.png,0.45,1.2,55,1,,,,,,,,,,,,,0,28,28,54,1,,,,,,,,,,,,,,,,,,,,,,,,,,,,
,,,,,WIN24_021,21,Female,2024-01-30_13h18.31.144,jersey_experiment_5,2023.2.2,Win32,84.74576271,,,,,,,,,,,,,,,,729.5054,730.7968,730.7968,731.6361,return,0.2825,,99.08854167,,,,,,FBP-YG-71.png,0.45,1.2,35,0.5,,,,,,,,,,,,,0,29,29,34,1,,,,,,,,,,,,,,,,,,,,,,,,,,,,
,,,,,WIN24_021,21,Female,2024-01-30_13h18.31.144,jersey_experiment_5,2023.2.2,Win32,84.74576271,,,,,,,,,,,,,,,,731.6363,733.4321,733.4321,734.4791,return,0.2197,,74.73958333,,,,,,FBP-PT-17.png,0.35,1.2,46,1,,,,,,,,,,,,,0,30,30,45,1,,,,,,,,,,,,,,,,,,,,,,,,,,,,
,,,,,WIN24_021,21,Female,2024-01-30_13h18.31.144,jersey_experiment_5,2023.2.2,Win32,84.74576271,,,,,,,,,,,,,,,,734.4794,736.272,736.272,737.5911,return,0.5564,,99.08854167,,,,,,FBP-OG-81.png,0.45,1.2,10,1,,,,,,,,,,,,,0,31,31,9,1,,,,,,,,,,,,,,,,,,,,,,,,,,,,
,,,,,WIN24_021,21,Female,2024-01-30_13h18.31.144,jersey_experiment_5,2023.2.2,Win32,84.74576271,,,,,,,,,,,,,,,,737.5913,738.895,738.895,740.2559,return,0.4059,,75,,,,,,FBP-RB-19.png,0.35,1.2,26,0.5,,,,,,,,,,,,,0,32,32,25,1,,,,,,,,,,,,,,,,,,,,,,,,,,,,
,,,,,WIN24_021,21,Female,2024-01-30_13h18.31.144,jersey_experiment_5,2023.2.2,Win32,84.74576271,,,,,,,,,,,,,,,,740.2561,742.0492,742.0492,744.3075,return,0.4239,,99.609375,,,,,,FBP-OG-91.png,0.43,1.2,14,1,,,,,,,,,,,,,0,33,33,13,1,,,,,,,,,,,,,,,,,,,,,,,,,,,,
,,,,,WIN24_021,21,Female,2024-01-30_13h18.31.144,jersey_experiment_5,2023.2.2,Win32,84.74576271,,,,,,,,,,,,,,,,744.3076,745.6149,745.6149,747.5031,return,0.2904,,49.47916667,,,,,,FBP-RB-17.png,0.35,1.2,16,0.5,,,,,,,,,,,,,0,34,34,15,1,,,,,,,,,,,,,,,,,,,,,,,,,,,,
,,,,,WIN24_021,21,Female,2024-01-30_13h18.31.144,jersey_experiment_5,2023.2.2,Win32,84.74576271,,,,,,,,,,,,,,,,747.5033,749.2955,749.2955,750.517,return,0.3861,,50.52083333,,,,,,FBP-PT-17.png,0.4,1.2,48,1,,,,,,,,,,,,,0,35,35,47,1,,,,,,,,,,,,,,,,,,,,,,,,,,,,
,,,,,WIN24_021,21,Female,2024-01-30_13h18.31.144,jersey_experiment_5,2023.2.2,Win32,84.74576271,,,,,,,,,,,,,,,,750.5172,752.32,752.32,753.2236,return,0.2689,,75,,,,,,FBP-PT-17.png,0.43,1.2,49,1,,,,,,,,,,,,,0,36,36,48,1,,,,,,,,,,,,,,,,,,,,,,,,,,,,
,,,,,WIN24_021,21,Female,2024-01-30_13h18.31.144,jersey_experiment_5,2023.2.2,Win32,84.74576271,,,,,,,,,,,,,,,,753.2237,754.5152,754.5152,757.5684,return,1.3562,,48.4375,,,,,,FBP-YG-91.png,0.35,1.2,41,0.5,,,,,,,,,,,,,0,37,37,40,1,,,,,,,,,,,,,,,,,,,,,,,,,,,,
,,,,,WIN24_021,21,Female,2024-01-30_13h18.31.144,jersey_experiment_5,2023.2.2,Win32,84.74576271,,,,,,,,,,,,,,,,757.5685,759.3623,759.3623,760.8568,return,0.3781,,36.45833333,,,,,,FBP-OG-71.png,0.37,1.2,2,1,,,,,,,,,,,,,0,38,38,1,1,,,,,,,,,,,,,,,,,,,,,,,,,,,,
,,,,,WIN24_021,21,Female,2024-01-30_13h18.31.144,jersey_experiment_5,2023.2.2,Win32,84.74576271,,,,,,,,,,,,,,,,760.8569,762.6625,762.6625,764.292,return,0.5202,,74.21875,,,,,,FBP-PT-19.png,0.43,1.2,59,1,,,,,,,,,,,,,0,39,39,58,1,,,,,,,,,,,,,,,,,,,,,,,,,,,,
,,,,,WIN24_021,21,Female,2024-01-30_13h18.31.144,jersey_experiment_5,2023.2.2,Win32,84.74576271,,,,,,,,,,,,,,,,764.2922,766.096,766.096,766.7671,return,0.283,,74.21875,,,,,,FBP-PT-19.png,0.4,1.2,58,1,,,,,,,,,,,,,0,40,40,57,1,,,,,,,,,,,,,,,,,,,,,,,,,,,,
,,,,,WIN24_021,21,Female,2024-01-30_13h18.31.144,jersey_experiment_5,2023.2.2,Win32,84.74576271,,,,,,,,,,,,,,,,766.7672,768.0619,768.0619,769.4516,return,0.5433,,74.08854167,,,,,,FBP-RB-18.png,0.4,1.2,23,0.5,,,,,,,,,,,,,0,41,41,22,1,,,,,,,,,,,,,,,,,,,,,,,,,,,,
,,,,,WIN24_021,21,Female,2024-01-30_13h18.31.144,jersey_experiment_5,2023.2.2,Win32,84.74576271,,,,,,,,,,,,,,,,769.4517,770.7533,770.7533,772.0999,return,0.2625,,49.34895833,,,,,,FBP-YG-81.png,0.37,1.2,37,0.5,,,,,,,,,,,,,0,42,42,36,1,,,,,,,,,,,,,,,,,,,,,,,,,,,,
,,,,,WIN24_021,21,Female,2024-01-30_13h18.31.144,jersey_experiment_5,2023.2.2,Win32,84.74576271,,,,,,,,,,,,,,,,772.1001,773.4021,773.4021,774.4688,return,0.251,,74.34895833,,,,,,FBP-YG-71.png,0.4,1.2,33,0.5,,,,,,,,,,,,,0,43,43,32,1,,,,,,,,,,,,,,,,,,,,,,,,,,,,
,,,,,WIN24_021,21,Female,2024-01-30_13h18.31.144,jersey_experiment_5,2023.2.2,Win32,84.74576271,,,,,,,,,,,,,,,,774.469,775.7668,775.7669,777.45,return,0.5901,,75.52083333,,,,,,FBP-YG-91.png,0.37,1.2,42,0.5,,,,,,,,,,,,,0,44,44,41,1,,,,,,,,,,,,,,,,,,,,,,,,,,,,
,,,,,WIN24_021,21,Female,2024-01-30_13h18.31.144,jersey_experiment_5,2023.2.2,Win32,84.74576271,,,,,,,,,,,,,,,,777.4502,778.7548,778.7548,780.0967,return,0.3191,,99.73958333,,,,,,FBP-RB-19.png,0.43,1.2,29,0.5,,,,,,,,,,,,,0,45,45,28,1,,,,,,,,,,,,,,,,,,,,,,,,,,,,
,,,,,WIN24_021,21,Female,2024-01-30_13h18.31.144,jersey_experiment_5,2023.2.2,Win32,84.74576271,,,,,,,,,,,,,,,,780.0968,781.4024,781.4024,782.2251,return,0.2931,,99.47916667,,,,,,FBP-YG-91.png,0.45,1.2,45,0.5,,,,,,,,,,,,,0,46,46,44,1,,,,,,,,,,,,,,,,,,,,,,,,,,,,
,,,,,WIN24_021,21,Female,2024-01-30_13h18.31.144,jersey_experiment_5,2023.2.2,Win32,84.74576271,,,,,,,,,,,,,,,,782.2254,784.0262,784.0262,784.6763,return,0.2852,,99.47916667,,,,,,FBP-OG-91.png,0.4,1.2,13,1,,,,,,,,,,,,,0,47,47,12,1,,,,,,,,,,,,,,,,,,,,,,,,,,,,
,,,,,WIN24_021,21,Female,2024-01-30_13h18.31.144,jersey_experiment_5,2023.2.2,Win32,84.74576271,,,,,,,,,,,,,,,,784.6764,785.9792,785.9792,787.0578,return,0.5467,,99.47916667,,,,,,FBP-RB-18.png,0.43,1.2,24,0.5,,,,,,,,,,,,,0,48,48,23,1,,,,,,,,,,,,,,,,,,,,,,,,,,,,
,,,,,WIN24_021,21,Female,2024-01-30_13h18.31.144,jersey_experiment_5,2023.2.2,Win32,84.74576271,,,,,,,,,,,,,,,,787.0581,788.8506,788.8506,789.8738,return,0.2704,,73.69791667,,,,,,FBP-OG-81.png,0.37,1.2,7,1,,,,,,,,,,,,,0,49,49,6,1,,,,,,,,,,,,,,,,,,,,,,,,,,,,
,,,,,WIN24_021,21,Female,2024-01-30_13h18.31.144,jersey_experiment_5,2023.2.2,Win32,84.74576271,,,,,,,,,,,,,,,,789.8739,791.1794,791.1794,792.3401,return,0.2745,,99.609375,,,,,,FBP-YG-71.png,0.43,1.2,34,0.5,,,,,,,,,,,,,0,50,50,33,1,,,,,,,,,,,,,,,,,,,,,,,,,,,,
,,,,,WIN24_021,21,Female,2024-01-30_13h18.31.144,jersey_experiment_5,2023.2.2,Win32,84.74576271,,,,,,,,,,,,,,,,792.3402,794.1324,794.1324,795.8019,return,0.3042,,53.515625,,,,,,FBP-PT-19.png,0.37,1.2,57,1,,,,,,,,,,,,,0,51,51,56,1,,,,,,,,,,,,,,,,,,,,,,,,,,,,
,,,,,WIN24_021,21,Female,2024-01-30_13h18.31.144,jersey_experiment_5,2023.2.2,Win32,84.74576271,,,,,,,,,,,,,,,,795.8021,797.1076,797.1077,799.1071,return,0.3057,,74.21875,,,,,,FBP-YG-81.png,0.45,1.2,40,0.5,,,,,,,,,,,,,0,52,52,39,1,,,,,,,,,,,,,,,,,,,,,,,,,,,,
,,,,,WIN24_021,21,Female,2024-01-30_13h18.31.144,jersey_experiment_5,2023.2.2,Win32,84.74576271,,,,,,,,,,,,,,,,799.1073,800.3993,800.3993,802.2623,return,0.8942,,48.69791667,,,,,,FBP-YG-81.png,0.35,1.2,36,0.5,,,,,,,,,,,,,0,53,53,35,1,,,,,,,,,,,,,,,,,,,,,,,,,,,,
,,,,,WIN24_021,21,Female,2024-01-30_13h18.31.144,jersey_experiment_5,2023.2.2,Win32,84.74576271,,,,,,,,,,,,,,,,802.2625,804.0606,804.0606,804.9644,return,0.2269,,25.13020833,,,,,,FBP-OG-71.png,0.35,1.2,1,1,,,,,,,,,,,,,0,54,54,0,1,,,,,,,,,,,,,,,,,,,,,,,,,,,,
,,,,,WIN24_021,21,Female,2024-01-30_13h18.31.144,jersey_experiment_5,2023.2.2,Win32,84.74576271,,,,,,,,,,,,,,,,804.9645,806.7683,806.7684,808.4271,return,0.5307,,98.828125,,,,,,FBP-PT-19.png,0.45,1.2,60,1,,,,,,,,,,,,,0,55,55,59,1,,,,,,,,,,,,,,,,,,,,,,,,,,,,
,,,,,WIN24_021,21,Female,2024-01-30_13h18.31.144,jersey_experiment_5,2023.2.2,Win32,84.74576271,,,,,,,,,,,,,,,,808.4272,810.223,810.223,813.098,return,1.528,,49.86979167,,,,,,FBP-PT-18.png,0.35,1.2,51,1,,,,,,,,,,,,,0,56,56,50,1,,,,,,,,,,,,,,,,,,,,,,,,,,,,
,,,,,WIN24_021,21,Female,2024-01-30_13h18.31.144,jersey_experiment_5,2023.2.2,Win32,84.74576271,,,,,,,,,,,,,,,,813.0982,814.4034,814.4035,815.6275,return,0.2729,,75.13020833,,,,,,FBP-RB-17.png,0.45,1.2,20,0.5,,,,,,,,,,,,,0,57,57,19,1,,,,,,,,,,,,,,,,,,,,,,,,,,,,
,,,,,WIN24_021,21,Female,2024-01-30_13h18.31.144,jersey_experiment_5,2023.2.2,Win32,84.74576271,,,,,,,,,,,,,,,,815.6276,816.9215,816.9215,818.9316,return,0.3981,,99.21875,,,,,,FBP-RB-19.png,0.45,1.2,30,0.5,,,,,,,,,,,,,0,58,58,29,1,,,,,,,,,,,,,,,,,,,,,,,,,,,,
,,,,,WIN24_021,21,Female,2024-01-30_13h18.31.144,jersey_experiment_5,2023.2.2,Win32,84.74576271,,,,,,,,,,,,,,,,818.9318,820.2276,820.2277,822.6266,return,1.1168,,43.88020833,,,,,,FBP-RB-18.png,0.35,1.2,21,0.5,,,,,,,,,,,,,0,59,59,20,1,,,,,,,,,,,,,,,,,,,,,,,,,,,,
,,,,,WIN24_021,21,Female,2024-01-30_13h18.31.144,jersey_experiment_5,2023.2.2,Win32,84.74576271,,,,,,,,,,,,,,,,822.628,824.4297,824.4297,825.7295,return,0.3112,,49.73958333,,,,,,FBP-OG-19.png,0.35,1.2,11,1,,,,,,,,,,,,,,,,,,0,0,0,10,1,,,,,,,,,,,,,,,,,,,,,,,
,,,,,WIN24_021,21,Female,2024-01-30_13h18.31.144,jersey_experiment_5,2023.2.2,Win32,84.74576271,,,,,,,,,,,,,,,,825.73,827.5226,827.5226,828.9651,return,0.3312,,25.91145833,,,,,,FBP-PT-81.png,0.37,1.2,52,1,,,,,,,,,,,,,,,,,,0,1,1,51,1,,,,,,,,,,,,,,,,,,,,,,,
,,,,,WIN24_021,21,Female,2024-01-30_13h18.31.144,jersey_experiment_5,2023.2.2,Win32,84.74576271,,,,,,,,,,,,,,,,828.9653,830.2632,830.2632,831.0988,return,0.2943,,25.78125,,,,,,FBP-YG-17.png,0.37,1.2,32,0.5,,,,,,,,,,,,,,,,,,0,2,2,31,1,,,,,,,,,,,,,,,,,,,,,,,
,,,,,WIN24_021,21,Female,2024-01-30_13h18.31.144,jersey_experiment_5,2023.2.2,Win32,84.74576271,,,,,,,,,,,,,,,,831.0989,832.4043,832.4043,834.5201,return,0.657,,99.73958333,,,,,,FBP-RB-91.png,0.45,1.2,30,0.5,,,,,,,,,,,,,,,,,,0,3,3,29,1,,,,,,,,,,,,,,,,,,,,,,,
,,,,,WIN24_021,21,Female,2024-01-30_13h18.31.144,jersey_experiment_5,2023.2.2,Win32,84.74576271,,,,,,,,,,,,,,,,834.5203,835.8124,835.8124,837.33,return,0.3226,,50,,,,,,FBP-YG-19.png,0.35,1.2,41,0.5,,,,,,,,,,,,,,,,,,0,4,4,40,1,,,,,,,,,,,,,,,,,,,,,,,
,,,,,WIN24_021,21,Female,2024-01-30_13h18.31.144,jersey_experiment_5,2023.2.2,Win32,84.74576271,,,,,,,,,,,,,,,,837.3302,839.1222,839.1222,841.8243,return,1.7126,,99.73958333,,,,,,FBP-OG-19.png,0.45,1.2,15,1,,,,,,,,,,,,,,,,,,0,5,5,14,1,,,,,,,,,,,,,,,,,,,,,,,
,,,,,WIN24_021,21,Female,2024-01-30_13h18.31.144,jersey_experiment_5,2023.2.2,Win32,84.74576271,,,,,,,,,,,,,,,,841.8245,843.1223,843.1223,844.7068,return,0.2823,,49.47916667,,,,,,FBP-RB-91.png,0.35,1.2,26,0.5,,,,,,,,,,,,,,,,,,0,6,6,25,1,,,,,,,,,,,,,,,,,,,,,,,
,,,,,WIN24_021,21,Female,2024-01-30_13h18.31.144,jersey_experiment_5,2023.2.2,Win32,84.74576271,,,,,,,,,,,,,,,,844.7071,846.0051,846.0051,848.0638,return,0.4252,,98.95833333,,,,,,FBP-RB-71.png,0.45,1.2,20,0.5,,,,,,,,,,,,,,,,,,0,7,7,19,1,,,,,,,,,,,,,,,,,,,,,,,
,,,,,WIN24_021,21,Female,2024-01-30_13h18.31.144,jersey_experiment_5,2023.2.2,Win32,84.74576271,,,,,,,,,,,,,,,,848.064,849.8597,849.8598,851.4717,return,0.7131,,98.828125,,,,,,FBP-PT-81.png,0.45,1.2,55,1,,,,,,,,,,,,,,,,,,0,8,8,54,1,,,,,,,,,,,,,,,,,,,,,,,
,,,,,WIN24_021,21,Female,2024-01-30_13h18.31.144,jersey_experiment_5,2023.2.2,Win32,84.74576271,,,,,,,,,,,,,,,,851.4719,853.264,853.264,855.0129,return,0.7189,,37.5,,,,,,FBP-PT-71.png,0.35,1.2,46,1,,,,,,,,,,,,,,,,,,0,9,9,45,1,,,,,,,,,,,,,,,,,,,,,,,
,,,,,WIN24_021,21,Female,2024-01-30_13h18.31.144,jersey_experiment_5,2023.2.2,Win32,84.74576271,,,,,,,,,,,,,,,,855.0133,856.3072,856.3072,857.922,return,0.3161,,35.15625,,,,,,FBP-RB-71.png,0.4,1.2,18,0.5,,,,,,,,,,,,,,,,,,0,10,10,17,1,,,,,,,,,,,,,,,,,,,,,,,
,,,,,WIN24_021,21,Female,2024-01-30_13h18.31.144,jersey_experiment_5,2023.2.2,Win32,84.74576271,,,,,,,,,,,,,,,,857.9221,859.2277,859.2277,860.7365,return,0.4252,,75.91145833,,,,,,FBP-RB-81.png,0.43,1.2,24,0.5,,,,,,,,,,,,,,,,,,0,11,11,23,1,,,,,,,,,,,,,,,,,,,,,,,
,,,,,WIN24_021,21,Female,2024-01-30_13h18.31.144,jersey_experiment_5,2023.2.2,Win32,84.74576271,,,,,,,,,,,,,,,,860.7366,862.0295,862.0295,863.5782,return,0.4941,,98.17708333,,,,,,FBP-YG-18.png,0.45,1.2,40,0.5,,,,,,,,,,,,,,,,,,0,12,12,39,1,,,,,,,,,,,,,,,,,,,,,,,
,,,,,WIN24_021,21,Female,2024-01-30_13h18.31.144,jersey_experiment_5,2023.2.2,Win32,84.74576271,,,,,,,,,,,,,,,,863.5785,864.8746,864.8746,867.3588,return,1.5307,,50,,,,,,FBP-RB-81.png,0.35,1.2,21,0.5,,,,,,,,,,,,,,,,,,0,13,13,20,1,,,,,,,,,,,,,,,,,,,,,,,
,,,,,WIN24_021,21,Female,2024-01-30_13h18.31.144,jersey_experiment_5,2023.2.2,Win32,84.74576271,,,,,,,,,,,,,,,,867.3589,868.6531,868.6531,873.0415,return,2.5553,,25,,,,,,FBP-RB-71.png,0.37,1.2,17,0.5,,,,,,,,,,,,,,,,,,0,14,14,16,1,,,,,,,,,,,,,,,,,,,,,,,
,,,,,WIN24_021,21,Female,2024-01-30_13h18.31.144,jersey_experiment_5,2023.2.2,Win32,84.74576271,,,,,,,,,,,,,,,,873.0416,874.8372,874.8372,876.2021,return,0.8136,,24.47916667,,,,,,FBP-OG-17.png,0.37,1.2,2,1,,,,,,,,,,,,,,,,,,0,15,15,1,1,,,,,,,,,,,,,,,,,,,,,,,
,,,,,WIN24_021,21,Female,2024-01-30_13h18.31.144,jersey_experiment_5,2023.2.2,Win32,84.74576271,,,,,,,,,,,,,,,,876.2023,878.0067,878.0067,879.2022,return,0.2977,,74.609375,,,,,,FBP-PT-71.png,0.45,1.2,50,1,,,,,,,,,,,,,,,,,,0,16,16,49,1,,,,,,,,,,,,,,,,,,,,,,,
,,,,,WIN24_021,21,Female,2024-01-30_13h18.31.144,jersey_experiment_5,2023.2.2,Win32,84.74576271,,,,,,,,,,,,,,,,879.2024,880.5002,880.5002,881.8992,return,0.3519,,49.21875,,,,,,FBP-YG-19.png,0.37,1.2,42,0.5,,,,,,,,,,,,,,,,,,0,17,17,41,1,,,,,,,,,,,,,,,,,,,,,,,
,,,,,WIN24_021,21,Female,2024-01-30_13h18.31.144,jersey_experiment_5,2023.2.2,Win32,84.74576271,,,,,,,,,,,,,,,,881.8994,883.6964,883.6964,886.3009,return,0.4474,,40.234375,,,,,,FBP-PT-71.png,0.43,1.2,49,1,,,,,,,,,,,,,,,,,,0,18,18,48,1,,,,,,,,,,,,,,,,,,,,,,,
,,,,,WIN24_021,21,Female,2024-01-30_13h18.31.144,jersey_experiment_5,2023.2.2,Win32,84.74576271,,,,,,,,,,,,,,,,886.301,888.0966,888.0967,889.3716,return,0.3647,,49.21875,,,,,,FBP-PT-71.png,0.4,1.2,48,1,,,,,,,,,,,,,,,,,,0,19,19,47,1,,,,,,,,,,,,,,,,,,,,,,,
,,,,,WIN24_021,21,Female,2024-01-30_13h18.31.144,jersey_experiment_5,2023.2.2,Win32,84.74576271,,,,,,,,,,,,,,,,889.3717,891.1673,891.1673,892.0968,return,0.3118,,22.91666667,,,,,,FBP-OG-17.png,0.35,1.2,1,1,,,,,,,,,,,,,,,,,,0,20,20,0,1,,,,,,,,,,,,,,,,,,,,,,,
,,,,,WIN24_021,21,Female,2024-01-30_13h18.31.144,jersey_experiment_5,2023.2.2,Win32,84.74576271,,,,,,,,,,,,,,,,892.097,893.3954,893.3954,894.3031,return,0.2743,,24.73958333,,,,,,FBP-YG-18.png,0.35,1.2,36,0.5,,,,,,,,,,,,,,,,,,0,21,21,35,1,,,,,,,,,,,,,,,,,,,,,,,
,,,,,WIN24_021,21,Female,2024-01-30_13h18.31.144,jersey_experiment_5,2023.2.2,Win32,84.74576271,,,,,,,,,,,,,,,,894.3033,895.6027,895.6027,897.2538,return,0.2717,,49.34895833,,,,,,FBP-RB-91.png,0.43,1.2,29,0.5,,,,,,,,,,,,,,,,,,0,22,22,28,1,,,,,,,,,,,,,,,,,,,,,,,
,,,,,WIN24_021,21,Female,2024-01-30_13h18.31.144,jersey_experiment_5,2023.2.2,Win32,84.74576271,,,,,,,,,,,,,,,,897.254,898.5459,898.5459,899.7112,return,0.2907,,75.26041667,,,,,,FBP-YG-19.png,0.43,1.2,44,0.5,,,,,,,,,,,,,,,,,,0,23,23,43,1,,,,,,,,,,,,,,,,,,,,,,,
,,,,,WIN24_021,21,Female,2024-01-30_13h18.31.144,jersey_experiment_5,2023.2.2,Win32,84.74576271,,,,,,,,,,,,,,,,899.7114,901.007,901.007,902.2082,return,0.2837,,50.13020833,,,,,,FBP-RB-91.png,0.37,1.2,27,0.5,,,,,,,,,,,,,,,,,,0,24,24,26,1,,,,,,,,,,,,,,,,,,,,,,,
,,,,,WIN24_021,21,Female,2024-01-30_13h18.31.144,jersey_experiment_5,2023.2.2,Win32,84.74576271,,,,,,,,,,,,,,,,902.2084,903.5024,903.5024,904.676,return,0.3398,,74.08854167,,,,,,FBP-YG-17.png,0.43,1.2,34,0.5,,,,,,,,,,,,,,,,,,0,25,25,33,1,,,,,,,,,,,,,,,,,,,,,,,
,,,,,WIN24_021,21,Female,2024-01-30_13h18.31.144,jersey_experiment_5,2023.2.2,Win32,84.74576271,,,,,,,,,,,,,,,,904.6761,906.4776,906.4776,908.1003,return,0.5277,,49.609375,,,,,,FBP-OG-19.png,0.4,1.2,13,1,,,,,,,,,,,,,,,,,,0,26,26,12,1,,,,,,,,,,,,,,,,,,,,,,,
,,,,,WIN24_021,21,Female,2024-01-30_13h18.31.144,jersey_experiment_5,2023.2.2,Win32,84.74576271,,,,,,,,,,,,,,,,908.1004,909.8974,909.8974,910.9822,return,0.2926,,74.47916667,,,,,,FBP-PT-91.png,0.43,1.2,59,1,,,,,,,,,,,,,,,,,,0,27,27,58,1,,,,,,,,,,,,,,,,,,,,,,,
,,,,,WIN24_021,21,Female,2024-01-30_13h18.31.144,jersey_experiment_5,2023.2.2,Win32,84.74576271,,,,,,,,,,,,,,,,910.9823,912.7846,912.7846,913.8622,return,0.4826,,48.4375,,,,,,FBP-OG-18.png,0.37,1.2,7,1,,,,,,,,,,,,,,,,,,0,28,28,6,1,,,,,,,,,,,,,,,,,,,,,,,
,,,,,WIN24_021,21,Female,2024-01-30_13h18.31.144,jersey_experiment_5,2023.2.2,Win32,84.74576271,,,,,,,,,,,,,,,,913.8625,915.6543,915.6543,916.5474,return,0.3181,,49.34895833,,,,,,FBP-PT-81.png,0.4,1.2,53,1,,,,,,,,,,,,,,,,,,0,29,29,52,1,,,,,,,,,,,,,,,,,,,,,,,
,,,,,WIN24_021,21,Female,2024-01-30_13h18.31.144,jersey_experiment_5,2023.2.2,Win32,84.74576271,,,,,,,,,,,,,,,,916.5476,918.3496,918.3496,919.2901,return,0.3533,,74.47916667,,,,,,FBP-PT-91.png,0.45,1.2,60,1,,,,,,,,,,,,,,,,,,0,30,30,59,1,,,,,,,,,,,,,,,,,,,,,,,
,,,,,WIN24_021,21,Female,2024-01-30_13h18.31.144,jersey_experiment_5,2023.2.2,Win32,84.74576271,,,,,,,,,,,,,,,,919.2901,921.0902,921.0902,922.9002,return,0.847,,49.08854167,,,,,,FBP-OG-17.png,0.4,1.2,3,1,,,,,,,,,,,,,,,,,,0,31,31,2,1,,,,,,,,,,,,,,,,,,,,,,,
,,,,,WIN24_021,21,Female,2024-01-30_13h18.31.144,jersey_experiment_5,2023.2.2,Win32,84.74576271,,,,,,,,,,,,,,,,922.9004,924.1942,924.1942,925.0312,return,0.3177,,48.95833333,,,,,,FBP-RB-81.png,0.4,1.2,23,0.5,,,,,,,,,,,,,,,,,,0,32,32,22,1,,,,,,,,,,,,,,,,,,,,,,,
,,,,,WIN24_021,21,Female,2024-01-30_13h18.31.144,jersey_experiment_5,2023.2.2,Win32,84.74576271,,,,,,,,,,,,,,,,925.0314,926.8299,926.83,928.0317,return,0.3411,,48.56770833,,,,,,FBP-OG-19.png,0.37,1.2,12,1,,,,,,,,,,,,,,,,,,0,33,33,11,1,,,,,,,,,,,,,,,,,,,,,,,
,,,,,WIN24_021,21,Female,2024-01-30_13h18.31.144,jersey_experiment_5,2023.2.2,Win32,84.74576271,,,,,,,,,,,,,,,,928.0318,929.8275,929.8275,930.9451,return,0.3211,,75.390625,,,,,,FBP-OG-19.png,0.43,1.2,14,1,,,,,,,,,,,,,,,,,,0,34,34,13,1,,,,,,,,,,,,,,,,,,,,,,,
,,,,,WIN24_021,21,Female,2024-01-30_13h18.31.144,jersey_experiment_5,2023.2.2,Win32,84.74576271,,,,,,,,,,,,,,,,930.9454,932.7386,932.7386,934.113,return,0.6696,,98.828125,,,,,,FBP-OG-18.png,0.45,1.2,10,1,,,,,,,,,,,,,,,,,,0,35,35,9,1,,,,,,,,,,,,,,,,,,,,,,,
,,,,,WIN24_021,21,Female,2024-01-30_13h18.31.144,jersey_experiment_5,2023.2.2,Win32,84.74576271,,,,,,,,,,,,,,,,934.1133,935.9149,935.9149,937.2557,return,0.4125,,73.95833333,,,,,,FBP-PT-91.png,0.37,1.2,57,1,,,,,,,,,,,,,,,,,,0,36,36,56,1,,,,,,,,,,,,,,,,,,,,,,,
,,,,,WIN24_021,21,Female,2024-01-30_13h18.31.144,jersey_experiment_5,2023.2.2,Win32,84.74576271,,,,,,,,,,,,,,,,937.2559,938.5572,938.5572,939.526,return,0.3532,,75.13020833,,,,,,FBP-RB-71.png,0.43,1.2,19,0.5,,,,,,,,,,,,,,,,,,0,37,37,18,1,,,,,,,,,,,,,,,,,,,,,,,
,,,,,WIN24_021,21,Female,2024-01-30_13h18.31.144,jersey_experiment_5,2023.2.2,Win32,84.74576271,,,,,,,,,,,,,,,,939.5261,940.8213,940.8213,943.019,return,0.3632,,99.73958333,,,,,,FBP-YG-17.png,0.45,1.2,35,0.5,,,,,,,,,,,,,,,,,,0,38,38,34,1,,,,,,,,,,,,,,,,,,,,,,,
,,,,,WIN24_021,21,Female,2024-01-30_13h18.31.144,jersey_experiment_5,2023.2.2,Win32,84.74576271,,,,,,,,,,,,,,,,943.0193,944.3167,944.3167,945.4399,return,0.2552,,74.08854167,,,,,,FBP-RB-81.png,0.37,1.2,22,0.5,,,,,,,,,,,,,,,,,,0,39,39,21,1,,,,,,,,,,,,,,,,,,,,,,,
,,,,,WIN24_021,21,Female,2024-01-30_13h18.31.144,jersey_experiment_5,2023.2.2,Win32,84.74576271,,,,,,,,,,,,,,,,945.4401,946.734,946.7341,947.8312,return,0.3185,,50.13020833,,,,,,FBP-YG-17.png,0.35,1.2,31,0.5,,,,,,,,,,,,,,,,,,0,40,40,30,1,,,,,,,,,,,,,,,,,,,,,,,
,,,,,WIN24_021,21,Female,2024-01-30_13h18.31.144,jersey_experiment_5,2023.2.2,Win32,84.74576271,,,,,,,,,,,,,,,,947.8314,949.6305,949.6305,950.7386,return,0.4726,,76.171875,,,,,,FBP-PT-81.png,0.43,1.2,54,1,,,,,,,,,,,,,,,,,,0,41,41,53,1,,,,,,,,,,,,,,,,,,,,,,,
,,,,,WIN24_021,21,Female,2024-01-30_13h18.31.144,jersey_experiment_5,2023.2.2,Win32,84.74576271,,,,,,,,,,,,,,,,950.7388,952.0304,952.0304,953.0445,return,0.3198,,75.91145833,,,,,,FBP-YG-19.png,0.45,1.2,45,0.5,,,,,,,,,,,,,,,,,,0,42,42,44,1,,,,,,,,,,,,,,,,,,,,,,,
,,,,,WIN24_021,21,Female,2024-01-30_13h18.31.144,jersey_experiment_5,2023.2.2,Win32,84.74576271,,,,,,,,,,,,,,,,953.0446,954.3502,954.3502,956.1269,return,0.7314,,47.91666667,,,,,,FBP-RB-91.png,0.4,1.2,28,0.5,,,,,,,,,,,,,,,,,,0,43,43,27,1,,,,,,,,,,,,,,,,,,,,,,,
,,,,,WIN24_021,21,Female,2024-01-30_13h18.31.144,jersey_experiment_5,2023.2.2,Win32,84.74576271,,,,,,,,,,,,,,,,956.1271,957.4194,957.4194,959.7462,return,0.4195,,100,,,,,,FBP-RB-81.png,0.45,1.2,25,0.5,,,,,,,,,,,,,,,,,,0,44,44,24,1,,,,,,,,,,,,,,,,,,,,,,,
,,,,,WIN24_021,21,Female,2024-01-30_13h18.31.144,jersey_experiment_5,2023.2.2,Win32,84.74576271,,,,,,,,,,,,,,,,959.7463,961.5492,961.5492,963.7838,return,0.5641,,99.47916667,,,,,,FBP-OG-17.png,0.43,1.2,4,1,,,,,,,,,,,,,,,,,,0,45,45,3,1,,,,,,,,,,,,,,,,,,,,,,,
,,,,,WIN24_021,21,Female,2024-01-30_13h18.31.144,jersey_experiment_5,2023.2.2,Win32,84.74576271,,,,,,,,,,,,,,,,963.7839,965.5818,965.5818,966.7735,return,0.7405,,99.47916667,,,,,,FBP-PT-91.png,0.4,1.2,58,1,,,,,,,,,,,,,,,,,,0,46,46,57,1,,,,,,,,,,,,,,,,,,,,,,,
,,,,,WIN24_021,21,Female,2024-01-30_13h18.31.144,jersey_experiment_5,2023.2.2,Win32,84.74576271,,,,,,,,,,,,,,,,966.7736,968.0759,968.0759,970.0526,return,0.5335,,48.95833333,,,,,,FBP-YG-18.png,0.37,1.2,37,0.5,,,,,,,,,,,,,,,,,,0,47,47,36,1,,,,,,,,,,,,,,,,,,,,,,,
,,,,,WIN24_021,21,Female,2024-01-30_13h18.31.144,jersey_experiment_5,2023.2.2,Win32,84.74576271,,,,,,,,,,,,,,,,970.0529,971.8577,971.8577,973.479,return,0.6079,,23.4375,,,,,,FBP-PT-81.png,0.35,1.2,51,1,,,,,,,,,,,,,,,,,,0,48,48,50,1,,,,,,,,,,,,,,,,,,,,,,,
,,,,,WIN24_021,21,Female,2024-01-30_13h18.31.144,jersey_experiment_5,2023.2.2,Win32,84.74576271,,,,,,,,,,,,,,,,973.4792,975.2809,975.2809,976.2685,return,0.3179,,24.73958333,,,,,,FBP-PT-71.png,0.37,1.2,47,1,,,,,,,,,,,,,,,,,,0,49,49,46,1,,,,,,,,,,,,,,,,,,,,,,,
,,,,,WIN24_021,21,Female,2024-01-30_13h18.31.144,jersey_experiment_5,2023.2.2,Win32,84.74576271,,,,,,,,,,,,,,,,976.2687,977.5624,977.5624,978.8337,return,0.2474,,49.34895833,,,,,,FBP-YG-18.png,0.43,1.2,39,0.5,,,,,,,,,,,,,,,,,,0,50,50,38,1,,,,,,,,,,,,,,,,,,,,,,,
,,,,,WIN24_021,21,Female,2024-01-30_13h18.31.144,jersey_experiment_5,2023.2.2,Win32,84.74576271,,,,,,,,,,,,,,,,978.8339,980.1276,980.1276,980.8529,return,0.2844,,48.56770833,,,,,,FBP-YG-19.png,0.4,1.2,43,0.5,,,,,,,,,,,,,,,,,,0,51,51,42,1,,,,,,,,,,,,,,,,,,,,,,,
,,,,,WIN24_021,21,Female,2024-01-30_13h18.31.144,jersey_experiment_5,2023.2.2,Win32,84.74576271,,,,,,,,,,,,,,,,980.8532,982.6569,982.6569,983.9236,return,0.3795,,26.04166667,,,,,,FBP-OG-18.png,0.35,1.2,6,1,,,,,,,,,,,,,,,,,,0,52,52,5,1,,,,,,,,,,,,,,,,,,,,,,,
,,,,,WIN24_021,21,Female,2024-01-30_13h18.31.144,jersey_experiment_5,2023.2.2,Win32,84.74576271,,,,,,,,,,,,,,,,983.9237,985.2201,985.2201,986.9751,return,0.5053,,49.08854167,,,,,,FBP-YG-18.png,0.4,1.2,38,0.5,,,,,,,,,,,,,,,,,,0,53,53,37,1,,,,,,,,,,,,,,,,,,,,,,,
,,,,,WIN24_021,21,Female,2024-01-30_13h18.31.144,jersey_experiment_5,2023.2.2,Win32,84.74576271,,,,,,,,,,,,,,,,986.9752,988.2688,988.2688,989.2556,return,0.3045,,48.828125,,,,,,FBP-YG-17.png,0.4,1.2,33,0.5,,,,,,,,,,,,,,,,,,0,54,54,32,1,,,,,,,,,,,,,,,,,,,,,,,
,,,,,WIN24_021,21,Female,2024-01-30_13h18.31.144,jersey_experiment_5,2023.2.2,Win32,84.74576271,,,,,,,,,,,,,,,,989.2557,991.0534,991.0534,992.3281,return,0.2709,,49.86979167,,,,,,FBP-OG-18.png,0.4,1.2,8,1,,,,,,,,,,,,,,,,,,0,55,55,7,1,,,,,,,,,,,,,,,,,,,,,,,
,,,,,WIN24_021,21,Female,2024-01-30_13h18.31.144,jersey_experiment_5,2023.2.2,Win32,84.74576271,,,,,,,,,,,,,,,,992.3283,994.124,994.124,994.9828,return,0.3321,,75.52083333,,,,,,FBP-OG-17.png,0.45,1.2,5,1,,,,,,,,,,,,,,,,,,0,56,56,4,1,,,,,,,,,,,,,,,,,,,,,,,
,,,,,WIN24_021,21,Female,2024-01-30_13h18.31.144,jersey_experiment_5,2023.2.2,Win32,84.74576271,,,,,,,,,,,,,,,,994.983,996.7869,996.7869,997.8104,return,0.2941,,75.26041667,,,,,,FBP-OG-18.png,0.43,1.2,9,1,,,,,,,,,,,,,,,,,,0,57,57,8,1,,,,,,,,,,,,,,,,,,,,,,,
,,,,,WIN24_021,21,Female,2024-01-30_13h18.31.144,jersey_experiment_5,2023.2.2,Win32,84.74576271,,,,,,,,,,,,,,,,997.8107,999.1124,999.1124,1000.8109,return,0.2606,,24.21875,,,,,,FBP-RB-71.png,0.35,1.2,16,0.5,,,,,,,,,,,,,,,,,,0,58,58,15,1,,,,,,,,,,,,,,,,,,,,,,,
,,,,,WIN24_021,21,Female,2024-01-30_13h18.31.144,jersey_experiment_5,2023.2.2,Win32,84.74576271,,,,,,,,,,,,,,,,1000.8111,1002.6066,1002.6067,1003.2247,return,0.2964,,24.34895833,,,,,,FBP-PT-91.png,0.35,1.2,56,1,,,,,,,,,,,,,,,,,,0,59,59,55,1,,,,,,,,,,,,,,,,,,,,,,,
,,,,,WIN24_021,21,Female,2024-01-30_13h18.31.144,jersey_experiment_5,2023.2.2,Win32,84.74576271,,,,,,,,,,,,,,,,,,,,,,,,,,,,,,,,,,,,,,,,,,,,,,,,,,,,,,,,1003.2249,1008.6582,return,5.4217,,,,,,,,,,,,,,,,,,,
,,,,,WIN24_021,21,Female,2024-01-30_13h18.31.144,jersey_experiment_5,2023.2.2,Win32,84.74576271,,,,,,,,,,,,,,,,,,,,,,,,,,,,,,,,,,,,,,,,,,,,,,,,,,,,,,,,,,,,,1008.6583,1013.8817,1,3.7521,return,1.447,,,,,,,,,,,,
,,,,,WIN24_021,21,Female,2024-01-30_13h18.31.144,jersey_experiment_5,2023.2.2,Win32,84.74576271,,,,,,,,,,,,,,,,,,,,,,,,,,,,,,,,,,,,,,,,,,,,,,,,,,,,,,,,,,,,,,,,,,,,1013.8818,1044.7895,That the race of the players kept changing.,right,20.8298,,,,,,
,,,,,WIN24_021,21,Female,2024-01-30_13h18.31.144,jersey_experiment_5,2023.2.2,Win32,84.74576271,,,,,,,,,,,,,,,,,,,,,,,,,,,,,,,,,,,,,,,,,,,,,,,,,,,,,,,,,,,,,,,,,,,,,,,,,,1044.7895,1049.8792,return,5.0703,