requirements.started,requirements.stopped,key_resp_3.keys,key_resp_3.rt,key_resp_3.duration,Subject ID,Age,Gender,date,expName,psychopyVersion,OS,frameRate,instructions1.started,instructions1.stopped,key_resp.keys,key_resp.rt,key_resp.duration,example.started,example.stopped,enter_2.keys,enter_2.rt,enter_2.duration,instructions2.started,instructions2.stopped,enter_3.keys,enter_3.rt,enter_3.duration,image.started,image.stopped,slider_2.started,slider_2.stopped,next.keys,next.rt,next.duration,slider.response,trial_block_1.thisRepN,trial_block_1.thisTrialN,trial_block_1.thisN,trial_block_1.thisIndex,trial_block_1.ran,Path,Width,Height,Index,Duration,trial_block_2.thisRepN,trial_block_2.thisTrialN,trial_block_2.thisN,trial_block_2.thisIndex,trial_block_2.ran,rest_break.started,rest_break.stopped,end_break.started,end_break.stopped,key_resp_5.keys,key_resp_5.rt,key_resp_5.duration,trial_block_3.thisRepN,trial_block_3.thisTrialN,trial_block_3.thisN,trial_block_3.thisIndex,trial_block_3.ran,trial_block_4.thisRepN,trial_block_4.thisTrialN,trial_block_4.thisN,trial_block_4.thisIndex,trial_block_4.ran,questions_intro.started,questions_intro.stopped,enter_12.keys,enter_12.rt,enter_12.duration,question2.started,question2.stopped,question_doingbest.response,question_doingbest.rt,enter_15.keys,enter_15.rt,enter_15.duration,pattern.started,pattern.stopped,pattern_2.text,enter_17.keys,enter_17.rt,enter_17.duration,thankyou.started,thankyou.stopped,enter_14.keys,enter_14.rt,enter_14.duration
0,11.8045,return,11.7995,,WIN24_017,20,female,2024-01-29_17h52.07.397,jersey_experiment_5,2023.2.2,Win32,84.74576271,,,,,,,,,,,,,,,,,,,,,,,,,,,,,,,,,,,,,,,,,,,,,,,,,,,,,,,,,,,,,,,,,,,,,,,,,,,,,,
,,,,,WIN24_017,20,female,2024-01-29_17h52.07.397,jersey_experiment_5,2023.2.2,Win32,84.74576271,11.8045,20.5624,return,8.7485,,,,,,,,,,,,,,,,,,,,,,,,,,,,,,,,,,,,,,,,,,,,,,,,,,,,,,,,,,,,,,,,,,,,,,,,,,
,,,,,WIN24_017,20,female,2024-01-29_17h52.07.397,jersey_experiment_5,2023.2.2,Win32,84.74576271,,,,,,20.5625,26.3158,return,5.7148,,,,,,,,,,,,,,,,,,,,,,,,,,,,,,,,,,,,,,,,,,,,,,,,,,,,,,,,,,,,,,,,,,,,,
,,,,,WIN24_017,20,female,2024-01-29_17h52.07.397,jersey_experiment_5,2023.2.2,Win32,84.74576271,,,,,,,,,,,26.3159,51.8697,return,25.5391,,,,,,,,,,,,,,,,,,,,,,,,,,,,,,,,,,,,,,,,,,,,,,,,,,,,,,,,,,,,,,,,
,,,,,WIN24_017,20,female,2024-01-29_17h52.07.397,jersey_experiment_5,2023.2.2,Win32,84.74576271,,,,,,,,,,,,,,,,51.8768,53.1754,53.1755,59.6343,return,3.3349,,74.34895833,0,0,0,9,1,FBP-OG-81.png,0.45,1.2,10,0.5,,,,,,,,,,,,,,,,,,,,,,,,,,,,,,,,,,,,,,,,,,,,,
,,,,,WIN24_017,20,female,2024-01-29_17h52.07.397,jersey_experiment_5,2023.2.2,Win32,84.74576271,,,,,,,,,,,,,,,,59.6347,61.4343,61.4343,65.5403,return,2.1457,,99.47916667,0,1,1,44,1,FBP-YG-91.png,0.45,1.2,45,1,,,,,,,,,,,,,,,,,,,,,,,,,,,,,,,,,,,,,,,,,,,,,
,,,,,WIN24_017,20,female,2024-01-29_17h52.07.397,jersey_experiment_5,2023.2.2,Win32,84.74576271,,,,,,,,,,,,,,,,65.5405,66.8344,66.8345,74.3171,return,1.765,,24.47916667,0,2,2,47,1,FBP-PT-17.png,0.4,1.2,48,0.5,,,,,,,,,,,,,,,,,,,,,,,,,,,,,,,,,,,,,,,,,,,,,
,,,,,WIN24_017,20,female,2024-01-29_17h52.07.397,jersey_experiment_5,2023.2.2,Win32,84.74576271,,,,,,,,,,,,,,,,74.3174,76.117,76.1171,79.1644,return,1.1323,,75.13020833,0,3,3,23,1,FBP-RB-18.png,0.43,1.2,24,1,,,,,,,,,,,,,,,,,,,,,,,,,,,,,,,,,,,,,,,,,,,,,
,,,,,WIN24_017,20,female,2024-01-29_17h52.07.397,jersey_experiment_5,2023.2.2,Win32,84.74576271,,,,,,,,,,,,,,,,79.1646,80.4584,80.4584,83.9409,return,1.2866,,49.609375,0,4,4,3,1,FBP-OG-71.png,0.43,1.2,4,0.5,,,,,,,,,,,,,,,,,,,,,,,,,,,,,,,,,,,,,,,,,,,,,
,,,,,WIN24_017,20,female,2024-01-29_17h52.07.397,jersey_experiment_5,2023.2.2,Win32,84.74576271,,,,,,,,,,,,,,,,83.9412,85.7411,85.7411,89.0001,return,1.3417,,75,0,5,5,33,1,FBP-YG-71.png,0.43,1.2,34,1,,,,,,,,,,,,,,,,,,,,,,,,,,,,,,,,,,,,,,,,,,,,,
,,,,,WIN24_017,20,female,2024-01-29_17h52.07.397,jersey_experiment_5,2023.2.2,Win32,84.74576271,,,,,,,,,,,,,,,,89.0003,90.2942,90.2942,92.8708,return,0.8026,,0.390625,0,6,6,55,1,FBP-PT-19.png,0.35,1.2,56,0.5,,,,,,,,,,,,,,,,,,,,,,,,,,,,,,,,,,,,,,,,,,,,,
,,,,,WIN24_017,20,female,2024-01-29_17h52.07.397,jersey_experiment_5,2023.2.2,Win32,84.74576271,,,,,,,,,,,,,,,,92.8711,94.6748,94.6749,97.3458,return,1.0139,,25.26041667,0,7,7,36,1,FBP-YG-81.png,0.37,1.2,37,1,,,,,,,,,,,,,,,,,,,,,,,,,,,,,,,,,,,,,,,,,,,,,
,,,,,WIN24_017,20,female,2024-01-29_17h52.07.397,jersey_experiment_5,2023.2.2,Win32,84.74576271,,,,,,,,,,,,,,,,97.346,98.6496,98.6496,106.9229,return,6.2339,,64.84375,0,8,8,2,1,FBP-OG-71.png,0.4,1.2,3,0.5,,,,,,,,,,,,,,,,,,,,,,,,,,,,,,,,,,,,,,,,,,,,,
,,,,,WIN24_017,20,female,2024-01-29_17h52.07.397,jersey_experiment_5,2023.2.2,Win32,84.74576271,,,,,,,,,,,,,,,,106.9231,108.2242,108.2242,109.9538,return,0.7372,,87.63020833,0,9,9,48,1,FBP-PT-17.png,0.43,1.2,49,0.5,,,,,,,,,,,,,,,,,,,,,,,,,,,,,,,,,,,,,,,,,,,,,
,,,,,WIN24_017,20,female,2024-01-29_17h52.07.397,jersey_experiment_5,2023.2.2,Win32,84.74576271,,,,,,,,,,,,,,,,109.9541,111.2478,111.2478,112.8243,return,0.7637,,97.265625,0,10,10,58,1,FBP-PT-19.png,0.43,1.2,59,0.5,,,,,,,,,,,,,,,,,,,,,,,,,,,,,,,,,,,,,,,,,,,,,
,,,,,WIN24_017,20,female,2024-01-29_17h52.07.397,jersey_experiment_5,2023.2.2,Win32,84.74576271,,,,,,,,,,,,,,,,112.8245,114.6173,114.6173,116.5345,return,0.7413,,94.40104167,0,11,11,18,1,FBP-RB-17.png,0.43,1.2,19,1,,,,,,,,,,,,,,,,,,,,,,,,,,,,,,,,,,,,,,,,,,,,,
,,,,,WIN24_017,20,female,2024-01-29_17h52.07.397,jersey_experiment_5,2023.2.2,Win32,84.74576271,,,,,,,,,,,,,,,,116.5347,118.3306,118.3306,121.288,return,1.2259,,61.97916667,0,12,12,32,1,FBP-YG-71.png,0.4,1.2,33,1,,,,,,,,,,,,,,,,,,,,,,,,,,,,,,,,,,,,,,,,,,,,,
,,,,,WIN24_017,20,female,2024-01-29_17h52.07.397,jersey_experiment_5,2023.2.2,Win32,84.74576271,,,,,,,,,,,,,,,,121.2882,123.0877,123.0877,124.949,return,0.9673,,68.359375,0,13,13,27,1,FBP-RB-19.png,0.4,1.2,28,1,,,,,,,,,,,,,,,,,,,,,,,,,,,,,,,,,,,,,,,,,,,,,
,,,,,WIN24_017,20,female,2024-01-29_17h52.07.397,jersey_experiment_5,2023.2.2,Win32,84.74576271,,,,,,,,,,,,,,,,124.9492,126.2485,126.2485,130.3075,return,2.6654,,12.63020833,0,14,14,10,1,FBP-OG-91.png,0.35,1.2,11,0.5,,,,,,,,,,,,,,,,,,,,,,,,,,,,,,,,,,,,,,,,,,,,,
,,,,,WIN24_017,20,female,2024-01-29_17h52.07.397,jersey_experiment_5,2023.2.2,Win32,84.74576271,,,,,,,,,,,,,,,,130.3078,132.1078,132.1078,134.9354,return,1.9652,,87.63020833,0,15,15,38,1,FBP-YG-81.png,0.43,1.2,39,1,,,,,,,,,,,,,,,,,,,,,,,,,,,,,,,,,,,,,,,,,,,,,
,,,,,WIN24_017,20,female,2024-01-29_17h52.07.397,jersey_experiment_5,2023.2.2,Win32,84.74576271,,,,,,,,,,,,,,,,134.9356,136.2372,136.2372,137.465,return,0.4943,,94.921875,0,16,16,52,1,FBP-PT-18.png,0.4,1.2,53,0.5,,,,,,,,,,,,,,,,,,,,,,,,,,,,,,,,,,,,,,,,,,,,,
,,,,,WIN24_017,20,female,2024-01-29_17h52.07.397,jersey_experiment_5,2023.2.2,Win32,84.74576271,,,,,,,,,,,,,,,,137.4652,139.2649,139.2649,140.7943,return,0.798,,14.0625,0,17,17,20,1,FBP-RB-18.png,0.35,1.2,21,1,,,,,,,,,,,,,,,,,,,,,,,,,,,,,,,,,,,,,,,,,,,,,
,,,,,WIN24_017,20,female,2024-01-29_17h52.07.397,jersey_experiment_5,2023.2.2,Win32,84.74576271,,,,,,,,,,,,,,,,140.7944,142.0905,142.0905,143.8418,return,1.1082,,20.44270833,0,18,18,50,1,FBP-PT-18.png,0.35,1.2,51,0.5,,,,,,,,,,,,,,,,,,,,,,,,,,,,,,,,,,,,,,,,,,,,,
,,,,,WIN24_017,20,female,2024-01-29_17h52.07.397,jersey_experiment_5,2023.2.2,Win32,84.74576271,,,,,,,,,,,,,,,,143.8419,145.6414,145.6414,146.773,return,0.7312,,19.53125,0,19,19,41,1,FBP-YG-91.png,0.37,1.2,42,1,,,,,,,,,,,,,,,,,,,,,,,,,,,,,,,,,,,,,,,,,,,,,
,,,,,WIN24_017,20,female,2024-01-29_17h52.07.397,jersey_experiment_5,2023.2.2,Win32,84.74576271,,,,,,,,,,,,,,,,146.7732,148.5669,148.5669,149.9435,return,0.5317,,3.255208333,0,20,20,40,1,FBP-YG-91.png,0.35,1.2,41,1,,,,,,,,,,,,,,,,,,,,,,,,,,,,,,,,,,,,,,,,,,,,,
,,,,,WIN24_017,20,female,2024-01-29_17h52.07.397,jersey_experiment_5,2023.2.2,Win32,84.74576271,,,,,,,,,,,,,,,,149.9437,151.7362,151.7362,153.5599,return,0.7063,,90.49479167,0,21,21,28,1,FBP-RB-19.png,0.43,1.2,29,1,,,,,,,,,,,,,,,,,,,,,,,,,,,,,,,,,,,,,,,,,,,,,
,,,,,WIN24_017,20,female,2024-01-29_17h52.07.397,jersey_experiment_5,2023.2.2,Win32,84.74576271,,,,,,,,,,,,,,,,153.5601,154.8539,154.8539,156.7599,return,0.7299,,19.53125,0,22,22,5,1,FBP-OG-81.png,0.35,1.2,6,0.5,,,,,,,,,,,,,,,,,,,,,,,,,,,,,,,,,,,,,,,,,,,,,
,,,,,WIN24_017,20,female,2024-01-29_17h52.07.397,jersey_experiment_5,2023.2.2,Win32,84.74576271,,,,,,,,,,,,,,,,156.76,158.0541,158.0542,159.2776,return,0.659,,32.8125,0,23,23,46,1,FBP-PT-17.png,0.37,1.2,47,0.5,,,,,,,,,,,,,,,,,,,,,,,,,,,,,,,,,,,,,,,,,,,,,
,,,,,WIN24_017,20,female,2024-01-29_17h52.07.397,jersey_experiment_5,2023.2.2,Win32,84.74576271,,,,,,,,,,,,,,,,159.2779,161.0732,161.0732,164.1088,return,2.2942,,41.92708333,0,24,24,15,1,FBP-RB-17.png,0.35,1.2,16,1,,,,,,,,,,,,,,,,,,,,,,,,,,,,,,,,,,,,,,,,,,,,,
,,,,,WIN24_017,20,female,2024-01-29_17h52.07.397,jersey_experiment_5,2023.2.2,Win32,84.74576271,,,,,,,,,,,,,,,,164.109,165.9131,165.9131,167.8424,return,0.6135,,99.73958333,0,25,25,29,1,FBP-RB-19.png,0.45,1.2,30,1,,,,,,,,,,,,,,,,,,,,,,,,,,,,,,,,,,,,,,,,,,,,,
,,,,,WIN24_017,20,female,2024-01-29_17h52.07.397,jersey_experiment_5,2023.2.2,Win32,84.74576271,,,,,,,,,,,,,,,,167.8426,169.1368,169.1369,172.4783,return,2.224,,23.95833333,0,26,26,0,1,FBP-OG-71.png,0.35,1.2,1,0.5,,,,,,,,,,,,,,,,,,,,,,,,,,,,,,,,,,,,,,,,,,,,,
,,,,,WIN24_017,20,female,2024-01-29_17h52.07.397,jersey_experiment_5,2023.2.2,Win32,84.74576271,,,,,,,,,,,,,,,,172.4784,173.7718,173.7718,175.1249,return,0.5177,,23.4375,0,27,27,6,1,FBP-OG-81.png,0.37,1.2,7,0.5,,,,,,,,,,,,,,,,,,,,,,,,,,,,,,,,,,,,,,,,,,,,,
,,,,,WIN24_017,20,female,2024-01-29_17h52.07.397,jersey_experiment_5,2023.2.2,Win32,84.74576271,,,,,,,,,,,,,,,,175.1251,176.9254,176.9254,178.9211,return,0.5181,,96.35416667,0,28,28,34,1,FBP-YG-71.png,0.45,1.2,35,1,,,,,,,,,,,,,,,,,,,,,,,,,,,,,,,,,,,,,,,,,,,,,
,,,,,WIN24_017,20,female,2024-01-29_17h52.07.397,jersey_experiment_5,2023.2.2,Win32,84.74576271,,,,,,,,,,,,,,,,178.9213,180.7138,180.7138,182.3093,return,0.5195,,69.79166667,0,29,29,37,1,FBP-YG-81.png,0.4,1.2,38,1,,,,,,,,,,,,,,,,,,,,,,,,,,,,,,,,,,,,,,,,,,,,,
,,,,,WIN24_017,20,female,2024-01-29_17h52.07.397,jersey_experiment_5,2023.2.2,Win32,84.74576271,,,,,,,,,,,,,,,,182.3095,184.1093,184.1094,185.8097,return,0.6492,,19.27083333,0,30,30,30,1,FBP-YG-71.png,0.35,1.2,31,1,,,,,,,,,,,,,,,,,,,,,,,,,,,,,,,,,,,,,,,,,,,,,
,,,,,WIN24_017,20,female,2024-01-29_17h52.07.397,jersey_experiment_5,2023.2.2,Win32,84.74576271,,,,,,,,,,,,,,,,185.8099,187.102,187.102,190.2626,return,0.5084,,66.14583333,0,31,31,1,1,FBP-OG-71.png,0.37,1.2,2,0.5,,,,,,,,,,,,,,,,,,,,,,,,,,,,,,,,,,,,,,,,,,,,,
,,,,,WIN24_017,20,female,2024-01-29_17h52.07.397,jersey_experiment_5,2023.2.2,Win32,84.74576271,,,,,,,,,,,,,,,,190.2629,191.5568,191.5568,193.6318,return,0.563,,99.73958333,0,32,32,4,1,FBP-OG-71.png,0.45,1.2,5,0.5,,,,,,,,,,,,,,,,,,,,,,,,,,,,,,,,,,,,,,,,,,,,,
,,,,,WIN24_017,20,female,2024-01-29_17h52.07.397,jersey_experiment_5,2023.2.2,Win32,84.74576271,,,,,,,,,,,,,,,,193.6319,195.4338,195.4338,196.8184,return,0.53,,24.08854167,0,33,33,25,1,FBP-RB-19.png,0.35,1.2,26,1,,,,,,,,,,,,,,,,,,,,,,,,,,,,,,,,,,,,,,,,,,,,,
,,,,,WIN24_017,20,female,2024-01-29_17h52.07.397,jersey_experiment_5,2023.2.2,Win32,84.74576271,,,,,,,,,,,,,,,,196.8185,198.1217,198.1217,200.2317,return,1.0119,,83.984375,0,34,34,13,1,FBP-OG-91.png,0.43,1.2,14,0.5,,,,,,,,,,,,,,,,,,,,,,,,,,,,,,,,,,,,,,,,,,,,,
,,,,,WIN24_017,20,female,2024-01-29_17h52.07.397,jersey_experiment_5,2023.2.2,Win32,84.74576271,,,,,,,,,,,,,,,,200.2318,201.5335,201.5335,202.9379,return,0.5201,,66.796875,0,35,35,12,1,FBP-OG-91.png,0.4,1.2,13,0.5,,,,,,,,,,,,,,,,,,,,,,,,,,,,,,,,,,,,,,,,,,,,,
,,,,,WIN24_017,20,female,2024-01-29_17h52.07.397,jersey_experiment_5,2023.2.2,Win32,84.74576271,,,,,,,,,,,,,,,,202.9381,204.7358,204.7358,206.0696,return,0.5438,,36.06770833,0,36,36,21,1,FBP-RB-18.png,0.37,1.2,22,1,,,,,,,,,,,,,,,,,,,,,,,,,,,,,,,,,,,,,,,,,,,,,
,,,,,WIN24_017,20,female,2024-01-29_17h52.07.397,jersey_experiment_5,2023.2.2,Win32,84.74576271,,,,,,,,,,,,,,,,206.0697,207.3617,207.3617,209.8987,return,0.5412,,93.61979167,0,37,37,14,1,FBP-OG-91.png,0.45,1.2,15,0.5,,,,,,,,,,,,,,,,,,,,,,,,,,,,,,,,,,,,,,,,,,,,,
,,,,,WIN24_017,20,female,2024-01-29_17h52.07.397,jersey_experiment_5,2023.2.2,Win32,84.74576271,,,,,,,,,,,,,,,,209.8988,211.1974,211.1974,213.181,return,0.5158,,24.34895833,0,38,38,45,1,FBP-PT-17.png,0.35,1.2,46,0.5,,,,,,,,,,,,,,,,,,,,,,,,,,,,,,,,,,,,,,,,,,,,,
,,,,,WIN24_017,20,female,2024-01-29_17h52.07.397,jersey_experiment_5,2023.2.2,Win32,84.74576271,,,,,,,,,,,,,,,,213.1813,214.4752,214.4752,217.2677,return,0.6943,,49.34895833,0,39,39,51,1,FBP-PT-18.png,0.37,1.2,52,0.5,,,,,,,,,,,,,,,,,,,,,,,,,,,,,,,,,,,,,,,,,,,,,
,,,,,WIN24_017,20,female,2024-01-29_17h52.07.397,jersey_experiment_5,2023.2.2,Win32,84.74576271,,,,,,,,,,,,,,,,217.2679,218.5695,218.5695,220.1459,return,0.6187,,74.08854167,0,40,40,53,1,FBP-PT-18.png,0.43,1.2,54,0.5,,,,,,,,,,,,,,,,,,,,,,,,,,,,,,,,,,,,,,,,,,,,,
,,,,,WIN24_017,20,female,2024-01-29_17h52.07.397,jersey_experiment_5,2023.2.2,Win32,84.74576271,,,,,,,,,,,,,,,,220.1462,221.4401,221.4401,223.314,return,1.2363,,93.359375,0,41,41,49,1,FBP-PT-17.png,0.45,1.2,50,0.5,,,,,,,,,,,,,,,,,,,,,,,,,,,,,,,,,,,,,,,,,,,,,
,,,,,WIN24_017,20,female,2024-01-29_17h52.07.397,jersey_experiment_5,2023.2.2,Win32,84.74576271,,,,,,,,,,,,,,,,223.3141,225.1153,225.1153,226.9979,return,0.7534,,41.27604167,0,42,42,16,1,FBP-RB-17.png,0.37,1.2,17,1,,,,,,,,,,,,,,,,,,,,,,,,,,,,,,,,,,,,,,,,,,,,,
,,,,,WIN24_017,20,female,2024-01-29_17h52.07.397,jersey_experiment_5,2023.2.2,Win32,84.74576271,,,,,,,,,,,,,,,,226.9981,228.2993,228.2994,230.1347,return,0.5068,,99.08854167,0,43,43,59,1,FBP-PT-19.png,0.45,1.2,60,0.5,,,,,,,,,,,,,,,,,,,,,,,,,,,,,,,,,,,,,,,,,,,,,
,,,,,WIN24_017,20,female,2024-01-29_17h52.07.397,jersey_experiment_5,2023.2.2,Win32,84.74576271,,,,,,,,,,,,,,,,230.1349,231.9378,231.9378,237.3375,return,3.9414,,39.84375,0,44,44,31,1,FBP-YG-71.png,0.37,1.2,32,1,,,,,,,,,,,,,,,,,,,,,,,,,,,,,,,,,,,,,,,,,,,,,
,,,,,WIN24_017,20,female,2024-01-29_17h52.07.397,jersey_experiment_5,2023.2.2,Win32,84.74576271,,,,,,,,,,,,,,,,237.3416,238.6353,238.6354,241.8217,return,1.1985,,48.4375,0,45,45,57,1,FBP-PT-19.png,0.4,1.2,58,0.5,,,,,,,,,,,,,,,,,,,,,,,,,,,,,,,,,,,,,,,,,,,,,
,,,,,WIN24_017,20,female,2024-01-29_17h52.07.397,jersey_experiment_5,2023.2.2,Win32,84.74576271,,,,,,,,,,,,,,,,241.8218,243.1233,243.1233,247.2177,return,0.5962,,29.42708333,0,46,46,11,1,FBP-OG-91.png,0.37,1.2,12,0.5,,,,,,,,,,,,,,,,,,,,,,,,,,,,,,,,,,,,,,,,,,,,,
,,,,,WIN24_017,20,female,2024-01-29_17h52.07.397,jersey_experiment_5,2023.2.2,Win32,84.74576271,,,,,,,,,,,,,,,,247.2177,248.5118,248.5118,250.1942,return,0.7696,,39.97395833,0,47,47,56,1,FBP-PT-19.png,0.37,1.2,57,0.5,,,,,,,,,,,,,,,,,,,,,,,,,,,,,,,,,,,,,,,,,,,,,
,,,,,WIN24_017,20,female,2024-01-29_17h52.07.397,jersey_experiment_5,2023.2.2,Win32,84.74576271,,,,,,,,,,,,,,,,250.1944,251.9943,251.9943,253.5003,return,0.7414,,50.78125,0,48,48,22,1,FBP-RB-18.png,0.4,1.2,23,1,,,,,,,,,,,,,,,,,,,,,,,,,,,,,,,,,,,,,,,,,,,,,
,,,,,WIN24_017,20,female,2024-01-29_17h52.07.397,jersey_experiment_5,2023.2.2,Win32,84.74576271,,,,,,,,,,,,,,,,253.5006,255.3039,255.304,256.8768,return,0.5174,,86.58854167,0,49,49,19,1,FBP-RB-17.png,0.45,1.2,20,1,,,,,,,,,,,,,,,,,,,,,,,,,,,,,,,,,,,,,,,,,,,,,
,,,,,WIN24_017,20,female,2024-01-29_17h52.07.397,jersey_experiment_5,2023.2.2,Win32,84.74576271,,,,,,,,,,,,,,,,256.8769,258.6772,258.6772,261.5753,return,1.8,,41.796875,0,50,50,26,1,FBP-RB-19.png,0.37,1.2,27,1,,,,,,,,,,,,,,,,,,,,,,,,,,,,,,,,,,,,,,,,,,,,,
,,,,,WIN24_017,20,female,2024-01-29_17h52.07.397,jersey_experiment_5,2023.2.2,Win32,84.74576271,,,,,,,,,,,,,,,,261.5755,262.8769,262.877,265.2572,return,0.8348,,71.875,0,51,51,8,1,FBP-OG-81.png,0.43,1.2,9,0.5,,,,,,,,,,,,,,,,,,,,,,,,,,,,,,,,,,,,,,,,,,,,,
,,,,,WIN24_017,20,female,2024-01-29_17h52.07.397,jersey_experiment_5,2023.2.2,Win32,84.74576271,,,,,,,,,,,,,,,,265.2573,266.5596,266.5596,268.936,return,0.8251,,86.06770833,0,52,52,54,1,FBP-PT-18.png,0.45,1.2,55,0.5,,,,,,,,,,,,,,,,,,,,,,,,,,,,,,,,,,,,,,,,,,,,,
,,,,,WIN24_017,20,female,2024-01-29_17h52.07.397,jersey_experiment_5,2023.2.2,Win32,84.74576271,,,,,,,,,,,,,,,,268.9361,270.729,270.729,274.6421,return,3.1367,,50.390625,0,53,53,17,1,FBP-RB-17.png,0.4,1.2,18,1,,,,,,,,,,,,,,,,,,,,,,,,,,,,,,,,,,,,,,,,,,,,,
,,,,,WIN24_017,20,female,2024-01-29_17h52.07.397,jersey_experiment_5,2023.2.2,Win32,84.74576271,,,,,,,,,,,,,,,,274.6422,276.4351,276.4351,281.219,return,3.9825,,11.19791667,0,54,54,35,1,FBP-YG-81.png,0.35,1.2,36,1,,,,,,,,,,,,,,,,,,,,,,,,,,,,,,,,,,,,,,,,,,,,,
,,,,,WIN24_017,20,female,2024-01-29_17h52.07.397,jersey_experiment_5,2023.2.2,Win32,84.74576271,,,,,,,,,,,,,,,,281.2191,282.5152,282.5153,285.5719,return,0.2524,,49.34895833,0,55,55,7,1,FBP-OG-81.png,0.4,1.2,8,0.5,,,,,,,,,,,,,,,,,,,,,,,,,,,,,,,,,,,,,,,,,,,,,
,,,,,WIN24_017,20,female,2024-01-29_17h52.07.397,jersey_experiment_5,2023.2.2,Win32,84.74576271,,,,,,,,,,,,,,,,285.5721,287.3666,287.3666,288.7604,return,0.2597,,89.58333333,0,56,56,39,1,FBP-YG-81.png,0.45,1.2,40,1,,,,,,,,,,,,,,,,,,,,,,,,,,,,,,,,,,,,,,,,,,,,,
,,,,,WIN24_017,20,female,2024-01-29_17h52.07.397,jersey_experiment_5,2023.2.2,Win32,84.74576271,,,,,,,,,,,,,,,,288.7607,290.5647,290.5647,292.0664,return,0.2082,,81.38020833,0,57,57,43,1,FBP-YG-91.png,0.43,1.2,44,1,,,,,,,,,,,,,,,,,,,,,,,,,,,,,,,,,,,,,,,,,,,,,
,,,,,WIN24_017,20,female,2024-01-29_17h52.07.397,jersey_experiment_5,2023.2.2,Win32,84.74576271,,,,,,,,,,,,,,,,292.0665,293.8592,293.8592,295.3649,return,0.7062,,98.56770833,0,58,58,24,1,FBP-RB-18.png,0.45,1.2,25,1,,,,,,,,,,,,,,,,,,,,,,,,,,,,,,,,,,,,,,,,,,,,,
,,,,,WIN24_017,20,female,2024-01-29_17h52.07.397,jersey_experiment_5,2023.2.2,Win32,84.74576271,,,,,,,,,,,,,,,,295.3651,297.1651,297.1651,298.9724,return,0.1991,,40.75520833,0,59,59,42,1,FBP-YG-91.png,0.4,1.2,43,1,,,,,,,,,,,,,,,,,,,,,,,,,,,,,,,,,,,,,,,,,,,,,
,,,,,WIN24_017,20,female,2024-01-29_17h52.07.397,jersey_experiment_5,2023.2.2,Win32,84.74576271,,,,,,,,,,,,,,,,298.9744,300.7726,300.7726,302.761,return,0.1874,,46.484375,,,,,,FBP-RB-91.png,0.4,1.2,28,1,0,0,0,27,1,,,,,,,,,,,,,,,,,,,,,,,,,,,,,,,,,,,,,,,,
,,,,,WIN24_017,20,female,2024-01-29_17h52.07.397,jersey_experiment_5,2023.2.2,Win32,84.74576271,,,,,,,,,,,,,,,,302.7613,304.0551,304.0551,305.2198,return,0.2055,,21.74479167,,,,,,FBP-PT-81.png,0.37,1.2,52,0.5,0,1,1,51,1,,,,,,,,,,,,,,,,,,,,,,,,,,,,,,,,,,,,,,,,
,,,,,WIN24_017,20,female,2024-01-29_17h52.07.397,jersey_experiment_5,2023.2.2,Win32,84.74576271,,,,,,,,,,,,,,,,305.22,306.5181,306.5181,307.4315,return,0.1881,,9.505208333,,,,,,FBP-OG-18.png,0.35,1.2,6,0.5,0,2,2,5,1,,,,,,,,,,,,,,,,,,,,,,,,,,,,,,,,,,,,,,,,
,,,,,WIN24_017,20,female,2024-01-29_17h52.07.397,jersey_experiment_5,2023.2.2,Win32,84.74576271,,,,,,,,,,,,,,,,307.4317,308.7257,308.7257,309.9142,return,0.1771,,10.15625,,,,,,FBP-OG-17.png,0.37,1.2,2,0.5,0,3,3,1,1,,,,,,,,,,,,,,,,,,,,,,,,,,,,,,,,,,,,,,,,
,,,,,WIN24_017,20,female,2024-01-29_17h52.07.397,jersey_experiment_5,2023.2.2,Win32,84.74576271,,,,,,,,,,,,,,,,309.9144,311.7142,311.7142,312.9872,return,0.1865,,9.635416667,,,,,,FBP-YG-17.png,0.35,1.2,31,1,0,4,4,30,1,,,,,,,,,,,,,,,,,,,,,,,,,,,,,,,,,,,,,,,,
,,,,,WIN24_017,20,female,2024-01-29_17h52.07.397,jersey_experiment_5,2023.2.2,Win32,84.74576271,,,,,,,,,,,,,,,,312.9874,314.7889,314.7889,315.9565,return,0.2242,,89.58333333,,,,,,FBP-RB-81.png,0.43,1.2,24,1,0,5,5,23,1,,,,,,,,,,,,,,,,,,,,,,,,,,,,,,,,,,,,,,,,
,,,,,WIN24_017,20,female,2024-01-29_17h52.07.397,jersey_experiment_5,2023.2.2,Win32,84.74576271,,,,,,,,,,,,,,,,315.9566,317.2555,317.2555,318.4954,return,0.2126,,95.703125,,,,,,FBP-PT-71.png,0.43,1.2,49,0.5,0,6,6,48,1,,,,,,,,,,,,,,,,,,,,,,,,,,,,,,,,,,,,,,,,
,,,,,WIN24_017,20,female,2024-01-29_17h52.07.397,jersey_experiment_5,2023.2.2,Win32,84.74576271,,,,,,,,,,,,,,,,318.4956,320.2971,320.2971,322.244,return,0.207,,19.79166667,,,,,,FBP-YG-18.png,0.35,1.2,36,1,0,7,7,35,1,,,,,,,,,,,,,,,,,,,,,,,,,,,,,,,,,,,,,,,,
,,,,,WIN24_017,20,female,2024-01-29_17h52.07.397,jersey_experiment_5,2023.2.2,Win32,84.74576271,,,,,,,,,,,,,,,,322.2442,324.044,324.044,325.3071,return,0.2946,,85.02604167,,,,,,FBP-YG-18.png,0.45,1.2,40,1,0,8,8,39,1,,,,,,,,,,,,,,,,,,,,,,,,,,,,,,,,,,,,,,,,
,,,,,WIN24_017,20,female,2024-01-29_17h52.07.397,jersey_experiment_5,2023.2.2,Win32,84.74576271,,,,,,,,,,,,,,,,325.3072,327.109,327.109,327.8794,return,0.2604,,74.86979167,,,,,,FBP-YG-19.png,0.4,1.2,43,1,0,9,9,42,1,,,,,,,,,,,,,,,,,,,,,,,,,,,,,,,,,,,,,,,,
,,,,,WIN24_017,20,female,2024-01-29_17h52.07.397,jersey_experiment_5,2023.2.2,Win32,84.74576271,,,,,,,,,,,,,,,,327.8795,329.1736,329.1736,330.0248,return,0.1999,,74.47916667,,,,,,FBP-OG-17.png,0.4,1.2,3,0.5,0,10,10,2,1,,,,,,,,,,,,,,,,,,,,,,,,,,,,,,,,,,,,,,,,
,,,,,WIN24_017,20,female,2024-01-29_17h52.07.397,jersey_experiment_5,2023.2.2,Win32,84.74576271,,,,,,,,,,,,,,,,330.025,331.3267,331.3267,332.7619,return,0.6354,,75.91145833,,,,,,FBP-PT-71.png,0.4,1.2,48,0.5,0,11,11,47,1,,,,,,,,,,,,,,,,,,,,,,,,,,,,,,,,,,,,,,,,
,,,,,WIN24_017,20,female,2024-01-29_17h52.07.397,jersey_experiment_5,2023.2.2,Win32,84.74576271,,,,,,,,,,,,,,,,332.7621,334.056,334.056,335.3031,return,0.2017,,89.84375,,,,,,FBP-OG-17.png,0.45,1.2,5,0.5,0,12,12,4,1,,,,,,,,,,,,,,,,,,,,,,,,,,,,,,,,,,,,,,,,
,,,,,WIN24_017,20,female,2024-01-29_17h52.07.397,jersey_experiment_5,2023.2.2,Win32,84.74576271,,,,,,,,,,,,,,,,335.3033,336.5976,336.5976,337.6681,return,0.2404,,98.56770833,,,,,,FBP-OG-18.png,0.45,1.2,10,0.5,0,13,13,9,1,,,,,,,,,,,,,,,,,,,,,,,,,,,,,,,,,,,,,,,,
,,,,,WIN24_017,20,female,2024-01-29_17h52.07.397,jersey_experiment_5,2023.2.2,Win32,84.74576271,,,,,,,,,,,,,,,,337.6682,339.4682,339.4682,340.4605,return,0.2097,,20.05208333,,,,,,FBP-YG-17.png,0.37,1.2,32,1,0,14,14,31,1,,,,,,,,,,,,,,,,,,,,,,,,,,,,,,,,,,,,,,,,
,,,,,WIN24_017,20,female,2024-01-29_17h52.07.397,jersey_experiment_5,2023.2.2,Win32,84.74576271,,,,,,,,,,,,,,,,340.4607,342.2628,342.2628,343.4683,return,0.4244,,83.72395833,,,,,,FBP-RB-71.png,0.43,1.2,19,1,0,15,15,18,1,,,,,,,,,,,,,,,,,,,,,,,,,,,,,,,,,,,,,,,,
,,,,,WIN24_017,20,female,2024-01-29_17h52.07.397,jersey_experiment_5,2023.2.2,Win32,84.74576271,,,,,,,,,,,,,,,,343.4684,345.2684,345.2684,346.1626,return,0.4082,,74.34895833,,,,,,FBP-RB-81.png,0.4,1.2,23,1,0,16,16,22,1,,,,,,,,,,,,,,,,,,,,,,,,,,,,,,,,,,,,,,,,
,,,,,WIN24_017,20,female,2024-01-29_17h52.07.397,jersey_experiment_5,2023.2.2,Win32,84.74576271,,,,,,,,,,,,,,,,346.1627,347.9625,347.9625,348.7082,return,0.3533,,97.78645833,,,,,,FBP-RB-71.png,0.45,1.2,20,1,0,17,17,19,1,,,,,,,,,,,,,,,,,,,,,,,,,,,,,,,,,,,,,,,,
,,,,,WIN24_017,20,female,2024-01-29_17h52.07.397,jersey_experiment_5,2023.2.2,Win32,84.74576271,,,,,,,,,,,,,,,,348.7084,350.5081,350.5082,351.7862,return,1.0845,,92.31770833,,,,,,FBP-RB-91.png,0.43,1.2,29,1,0,18,18,28,1,,,,,,,,,,,,,,,,,,,,,,,,,,,,,,,,,,,,,,,,
,,,,,WIN24_017,20,female,2024-01-29_17h52.07.397,jersey_experiment_5,2023.2.2,Win32,84.74576271,,,,,,,,,,,,,,,,351.7863,353.0804,353.0804,355.2922,return,0.2111,,0.130208333,,,,,,FBP-OG-19.png,0.35,1.2,11,0.5,0,19,19,10,1,,,,,,,,,,,,,,,,,,,,,,,,,,,,,,,,,,,,,,,,
,,,,,WIN24_017,20,female,2024-01-29_17h52.07.397,jersey_experiment_5,2023.2.2,Win32,84.74576271,,,,,,,,,,,,,,,,355.2924,357.0925,357.0925,357.8806,return,0.2729,,72.13541667,,,,,,FBP-YG-18.png,0.43,1.2,39,1,0,20,20,38,1,,,,,,,,,,,,,,,,,,,,,,,,,,,,,,,,,,,,,,,,
,,,,,WIN24_017,20,female,2024-01-29_17h52.07.397,jersey_experiment_5,2023.2.2,Win32,84.74576271,,,,,,,,,,,,,,,,357.8808,359.1746,359.1746,360.5042,return,0.2694,,78.515625,,,,,,FBP-OG-19.png,0.43,1.2,14,0.5,0,21,21,13,1,,,,,,,,,,,,,,,,,,,,,,,,,,,,,,,,,,,,,,,,
,,,,,WIN24_017,20,female,2024-01-29_17h52.07.397,jersey_experiment_5,2023.2.2,Win32,84.74576271,,,,,,,,,,,,,,,,360.5043,362.3105,362.3105,362.9865,return,0.3192,,89.0625,,,,,,FBP-YG-19.png,0.45,1.2,45,1,0,22,22,44,1,,,,,,,,,,,,,,,,,,,,,,,,,,,,,,,,,,,,,,,,
,,,,,WIN24_017,20,female,2024-01-29_17h52.07.397,jersey_experiment_5,2023.2.2,Win32,84.74576271,,,,,,,,,,,,,,,,362.9867,364.7812,364.7812,365.9439,return,0.4236,,72.91666667,,,,,,FBP-RB-71.png,0.4,1.2,18,1,0,23,23,17,1,,,,,,,,,,,,,,,,,,,,,,,,,,,,,,,,,,,,,,,,
,,,,,WIN24_017,20,female,2024-01-29_17h52.07.397,jersey_experiment_5,2023.2.2,Win32,84.74576271,,,,,,,,,,,,,,,,365.9439,367.7418,367.7419,368.9986,return,0.532,,42.70833333,,,,,,FBP-RB-81.png,0.37,1.2,22,1,0,24,24,21,1,,,,,,,,,,,,,,,,,,,,,,,,,,,,,,,,,,,,,,,,
,,,,,WIN24_017,20,female,2024-01-29_17h52.07.397,jersey_experiment_5,2023.2.2,Win32,84.74576271,,,,,,,,,,,,,,,,368.9987,370.2967,370.2967,371.2928,return,0.2618,,52.734375,,,,,,FBP-OG-17.png,0.43,1.2,4,0.5,0,25,25,3,1,,,,,,,,,,,,,,,,,,,,,,,,,,,,,,,,,,,,,,,,
,,,,,WIN24_017,20,female,2024-01-29_17h52.07.397,jersey_experiment_5,2023.2.2,Win32,84.74576271,,,,,,,,,,,,,,,,371.293,373.0856,373.0857,373.9752,return,0.261,,7.421875,,,,,,FBP-RB-91.png,0.37,1.2,27,1,0,26,26,26,1,,,,,,,,,,,,,,,,,,,,,,,,,,,,,,,,,,,,,,,,
,,,,,WIN24_017,20,female,2024-01-29_17h52.07.397,jersey_experiment_5,2023.2.2,Win32,84.74576271,,,,,,,,,,,,,,,,373.9753,375.2695,375.2695,377.7908,return,0.5404,,0.130208333,,,,,,FBP-PT-91.png,0.37,1.2,57,0.5,0,27,27,56,1,,,,,,,,,,,,,,,,,,,,,,,,,,,,,,,,,,,,,,,,
,,,,,WIN24_017,20,female,2024-01-29_17h52.07.397,jersey_experiment_5,2023.2.2,Win32,84.74576271,,,,,,,,,,,,,,,,377.7909,379.5916,379.5916,380.5991,return,0.2376,,0.390625,,,,,,FBP-RB-91.png,0.35,1.2,26,1,0,28,28,25,1,,,,,,,,,,,,,,,,,,,,,,,,,,,,,,,,,,,,,,,,
,,,,,WIN24_017,20,female,2024-01-29_17h52.07.397,jersey_experiment_5,2023.2.2,Win32,84.74576271,,,,,,,,,,,,,,,,380.5992,381.8933,381.8933,383.4484,return,0.3282,,98.4375,,,,,,FBP-PT-91.png,0.45,1.2,60,0.5,0,29,29,59,1,,,,,,,,,,,,,,,,,,,,,,,,,,,,,,,,,,,,,,,,
,,,,,WIN24_017,20,female,2024-01-29_17h52.07.397,jersey_experiment_5,2023.2.2,Win32,84.74576271,,,,,,,,,,,,,,,,383.4486,384.7404,384.7404,386.6346,return,0.674,,4.296875,,,,,,FBP-PT-91.png,0.35,1.2,56,0.5,0,30,30,55,1,,,,,,,,,,,,,,,,,,,,,,,,,,,,,,,,,,,,,,,,
,,,,,WIN24_017,20,female,2024-01-29_17h52.07.397,jersey_experiment_5,2023.2.2,Win32,84.74576271,,,,,,,,,,,,,,,,386.6347,388.4271,388.4271,389.3995,return,0.2136,,12.890625,,,,,,FBP-RB-81.png,0.35,1.2,21,1,0,31,31,20,1,,,,,,,,,,,,,,,,,,,,,,,,,,,,,,,,,,,,,,,,
,,,,,WIN24_017,20,female,2024-01-29_17h52.07.397,jersey_experiment_5,2023.2.2,Win32,84.74576271,,,,,,,,,,,,,,,,389.3996,390.6934,390.6935,392.4392,return,0.624,,95.05208333,,,,,,FBP-PT-81.png,0.45,1.2,55,0.5,0,32,32,54,1,,,,,,,,,,,,,,,,,,,,,,,,,,,,,,,,,,,,,,,,
,,,,,WIN24_017,20,female,2024-01-29_17h52.07.397,jersey_experiment_5,2023.2.2,Win32,84.74576271,,,,,,,,,,,,,,,,392.4394,394.2349,394.2349,395.0273,return,0.3058,,99.08854167,,,,,,FBP-RB-91.png,0.45,1.2,30,1,0,33,33,29,1,,,,,,,,,,,,,,,,,,,,,,,,,,,,,,,,,,,,,,,,
,,,,,WIN24_017,20,female,2024-01-29_17h52.07.397,jersey_experiment_5,2023.2.2,Win32,84.74576271,,,,,,,,,,,,,,,,395.0274,396.3215,396.3215,397.3408,return,0.259,,99.609375,,,,,,FBP-PT-71.png,0.45,1.2,50,0.5,0,34,34,49,1,,,,,,,,,,,,,,,,,,,,,,,,,,,,,,,,,,,,,,,,
,,,,,WIN24_017,20,female,2024-01-29_17h52.07.397,jersey_experiment_5,2023.2.2,Win32,84.74576271,,,,,,,,,,,,,,,,397.341,399.1408,399.1408,400.3292,return,0.4612,,99.609375,,,,,,FBP-RB-81.png,0.45,1.2,25,1,0,35,35,24,1,,,,,,,,,,,,,,,,,,,,,,,,,,,,,,,,,,,,,,,,
,,,,,WIN24_017,20,female,2024-01-29_17h52.07.397,jersey_experiment_5,2023.2.2,Win32,84.74576271,,,,,,,,,,,,,,,,400.3293,401.6234,401.6234,404.0514,return,1.4591,,44.27083333,,,,,,FBP-OG-19.png,0.37,1.2,12,0.5,0,36,36,11,1,,,,,,,,,,,,,,,,,,,,,,,,,,,,,,,,,,,,,,,,
,,,,,WIN24_017,20,female,2024-01-29_17h52.07.397,jersey_experiment_5,2023.2.2,Win32,84.74576271,,,,,,,,,,,,,,,,404.0516,405.3529,405.3529,406.5357,return,0.2495,,53.38541667,,,,,,FBP-PT-81.png,0.43,1.2,54,0.5,0,37,37,53,1,,,,,,,,,,,,,,,,,,,,,,,,,,,,,,,,,,,,,,,,
,,,,,WIN24_017,20,female,2024-01-29_17h52.07.397,jersey_experiment_5,2023.2.2,Win32,84.74576271,,,,,,,,,,,,,,,,406.536,407.8352,407.8352,409.1809,return,0.3511,,30.72916667,,,,,,FBP-OG-17.png,0.35,1.2,1,0.5,0,38,38,0,1,,,,,,,,,,,,,,,,,,,,,,,,,,,,,,,,,,,,,,,,
,,,,,WIN24_017,20,female,2024-01-29_17h52.07.397,jersey_experiment_5,2023.2.2,Win32,84.74576271,,,,,,,,,,,,,,,,409.181,410.4752,410.4752,411.6707,return,0.2983,,31.25,,,,,,FBP-PT-71.png,0.37,1.2,47,0.5,0,39,39,46,1,,,,,,,,,,,,,,,,,,,,,,,,,,,,,,,,,,,,,,,,
,,,,,WIN24_017,20,female,2024-01-29_17h52.07.397,jersey_experiment_5,2023.2.2,Win32,84.74576271,,,,,,,,,,,,,,,,411.671,413.477,413.4771,415.6828,return,1.4534,,24.73958333,,,,,,FBP-YG-19.png,0.37,1.2,42,1,0,40,40,41,1,,,,,,,,,,,,,,,,,,,,,,,,,,,,,,,,,,,,,,,,
,,,,,WIN24_017,20,female,2024-01-29_17h52.07.397,jersey_experiment_5,2023.2.2,Win32,84.74576271,,,,,,,,,,,,,,,,415.683,417.4772,417.4773,418.3343,return,0.3417,,24.609375,,,,,,FBP-RB-71.png,0.37,1.2,17,1,0,41,41,16,1,,,,,,,,,,,,,,,,,,,,,,,,,,,,,,,,,,,,,,,,
,,,,,WIN24_017,20,female,2024-01-29_17h52.07.397,jersey_experiment_5,2023.2.2,Win32,84.74576271,,,,,,,,,,,,,,,,418.3346,419.6359,419.6359,422.036,return,1.5347,,20.44270833,,,,,,FBP-OG-18.png,0.37,1.2,7,0.5,0,42,42,6,1,,,,,,,,,,,,,,,,,,,,,,,,,,,,,,,,,,,,,,,,
,,,,,WIN24_017,20,female,2024-01-29_17h52.07.397,jersey_experiment_5,2023.2.2,Win32,84.74576271,,,,,,,,,,,,,,,,422.0361,423.8306,423.8306,425.0477,return,0.5075,,79.296875,,,,,,FBP-YG-17.png,0.43,1.2,34,1,0,43,43,33,1,,,,,,,,,,,,,,,,,,,,,,,,,,,,,,,,,,,,,,,,
,,,,,WIN24_017,20,female,2024-01-29_17h52.07.397,jersey_experiment_5,2023.2.2,Win32,84.74576271,,,,,,,,,,,,,,,,425.0478,426.8401,426.8401,427.5418,return,0.2267,,79.16666667,,,,,,FBP-YG-18.png,0.4,1.2,38,1,0,44,44,37,1,,,,,,,,,,,,,,,,,,,,,,,,,,,,,,,,,,,,,,,,
,,,,,WIN24_017,20,female,2024-01-29_17h52.07.397,jersey_experiment_5,2023.2.2,Win32,84.74576271,,,,,,,,,,,,,,,,427.542,428.8404,428.8404,429.8951,return,0.1667,,84.89583333,,,,,,FBP-PT-91.png,0.43,1.2,59,0.5,0,45,45,58,1,,,,,,,,,,,,,,,,,,,,,,,,,,,,,,,,,,,,,,,,
,,,,,WIN24_017,20,female,2024-01-29_17h52.07.397,jersey_experiment_5,2023.2.2,Win32,84.74576271,,,,,,,,,,,,,,,,429.8952,431.1891,431.1891,433.0128,return,0.4987,,24.86979167,,,,,,FBP-PT-71.png,0.35,1.2,46,0.5,0,46,46,45,1,,,,,,,,,,,,,,,,,,,,,,,,,,,,,,,,,,,,,,,,
,,,,,WIN24_017,20,female,2024-01-29_17h52.07.397,jersey_experiment_5,2023.2.2,Win32,84.74576271,,,,,,,,,,,,,,,,433.0129,434.3069,434.3069,435.3774,return,0.1608,,67.31770833,,,,,,FBP-OG-18.png,0.43,1.2,9,0.5,0,47,47,8,1,,,,,,,,,,,,,,,,,,,,,,,,,,,,,,,,,,,,,,,,
,,,,,WIN24_017,20,female,2024-01-29_17h52.07.397,jersey_experiment_5,2023.2.2,Win32,84.74576271,,,,,,,,,,,,,,,,435.3777,437.1817,437.1817,438.0525,return,0.1665,,50.91145833,,,,,,FBP-YG-18.png,0.37,1.2,37,1,0,48,48,36,1,,,,,,,,,,,,,,,,,,,,,,,,,,,,,,,,,,,,,,,,
,,,,,WIN24_017,20,female,2024-01-29_17h52.07.397,jersey_experiment_5,2023.2.2,Win32,84.74576271,,,,,,,,,,,,,,,,438.0526,439.3463,439.3463,440.7938,return,0.1767,,66.14583333,,,,,,FBP-OG-19.png,0.4,1.2,13,0.5,0,49,49,12,1,,,,,,,,,,,,,,,,,,,,,,,,,,,,,,,,,,,,,,,,
,,,,,WIN24_017,20,female,2024-01-29_17h52.07.397,jersey_experiment_5,2023.2.2,Win32,84.74576271,,,,,,,,,,,,,,,,440.7939,442.594,442.594,443.5896,return,0.4015,,92.1875,,,,,,FBP-YG-17.png,0.45,1.2,35,1,0,50,50,34,1,,,,,,,,,,,,,,,,,,,,,,,,,,,,,,,,,,,,,,,,
,,,,,WIN24_017,20,female,2024-01-29_17h52.07.397,jersey_experiment_5,2023.2.2,Win32,84.74576271,,,,,,,,,,,,,,,,443.5898,444.8882,444.8882,446.2486,return,0.177,,4.6875,,,,,,FBP-PT-81.png,0.35,1.2,51,0.5,0,51,51,50,1,,,,,,,,,,,,,,,,,,,,,,,,,,,,,,,,,,,,,,,,
,,,,,WIN24_017,20,female,2024-01-29_17h52.07.397,jersey_experiment_5,2023.2.2,Win32,84.74576271,,,,,,,,,,,,,,,,446.2487,447.549,447.5491,449.8282,return,0.2579,,22.91666667,,,,,,FBP-PT-91.png,0.4,1.2,58,0.5,0,52,52,57,1,,,,,,,,,,,,,,,,,,,,,,,,,,,,,,,,,,,,,,,,
,,,,,WIN24_017,20,female,2024-01-29_17h52.07.397,jersey_experiment_5,2023.2.2,Win32,84.74576271,,,,,,,,,,,,,,,,449.8284,451.6276,451.6276,453.6533,return,0.1651,,0.260416667,,,,,,FBP-YG-19.png,0.35,1.2,41,1,0,53,53,40,1,,,,,,,,,,,,,,,,,,,,,,,,,,,,,,,,,,,,,,,,
,,,,,WIN24_017,20,female,2024-01-29_17h52.07.397,jersey_experiment_5,2023.2.2,Win32,84.74576271,,,,,,,,,,,,,,,,453.6535,454.9548,454.9549,457.9549,return,0.4413,,87.76041667,,,,,,FBP-OG-19.png,0.45,1.2,15,0.5,0,54,54,14,1,,,,,,,,,,,,,,,,,,,,,,,,,,,,,,,,,,,,,,,,
,,,,,WIN24_017,20,female,2024-01-29_17h52.07.397,jersey_experiment_5,2023.2.2,Win32,84.74576271,,,,,,,,,,,,,,,,457.9551,459.7594,459.7594,461.0961,return,0.4839,,97.65625,,,,,,FBP-YG-19.png,0.43,1.2,44,1,0,55,55,43,1,,,,,,,,,,,,,,,,,,,,,,,,,,,,,,,,,,,,,,,,
,,,,,WIN24_017,20,female,2024-01-29_17h52.07.397,jersey_experiment_5,2023.2.2,Win32,84.74576271,,,,,,,,,,,,,,,,461.0962,462.3947,462.3947,463.9551,return,0.2413,,5.338541667,,,,,,FBP-OG-18.png,0.4,1.2,8,0.5,0,56,56,7,1,,,,,,,,,,,,,,,,,,,,,,,,,,,,,,,,,,,,,,,,
,,,,,WIN24_017,20,female,2024-01-29_17h52.07.397,jersey_experiment_5,2023.2.2,Win32,84.74576271,,,,,,,,,,,,,,,,463.9554,465.2492,465.2492,467.414,return,0.6736,,50.78125,,,,,,FBP-PT-81.png,0.4,1.2,53,0.5,0,57,57,52,1,,,,,,,,,,,,,,,,,,,,,,,,,,,,,,,,,,,,,,,,
,,,,,WIN24_017,20,female,2024-01-29_17h52.07.397,jersey_experiment_5,2023.2.2,Win32,84.74576271,,,,,,,,,,,,,,,,467.4142,469.214,469.214,471.2258,return,0.4944,,28.90625,,,,,,FBP-YG-17.png,0.4,1.2,33,1,0,58,58,32,1,,,,,,,,,,,,,,,,,,,,,,,,,,,,,,,,,,,,,,,,
,,,,,WIN24_017,20,female,2024-01-29_17h52.07.397,jersey_experiment_5,2023.2.2,Win32,84.74576271,,,,,,,,,,,,,,,,471.226,473.0183,473.0183,473.8205,return,0.1671,,0.911458333,,,,,,FBP-RB-71.png,0.35,1.2,16,1,0,59,59,15,1,,,,,,,,,,,,,,,,,,,,,,,,,,,,,,,,,,,,,,,,
,,,,,WIN24_017,20,female,2024-01-29_17h52.07.397,jersey_experiment_5,2023.2.2,Win32,84.74576271,,,,,,,,,,,,,,,,,,,,,,,,,,,,,,,,,,,,,,,473.8208,593.8307,,,,,,,,,,,,,,,,,,,,,,,,,,,,,,,,,,,,,,
,,,,,WIN24_017,20,female,2024-01-29_17h52.07.397,jersey_experiment_5,2023.2.2,Win32,84.74576271,,,,,,,,,,,,,,,,,,,,,,,,,,,,,,,,,,,,,,,,,593.8308,595.7247,return,1.8729,,,,,,,,,,,,,,,,,,,,,,,,,,,,,,,,,,
,,,,,WIN24_017,20,female,2024-01-29_17h52.07.397,jersey_experiment_5,2023.2.2,Win32,84.74576271,,,,,,,,,,,,,,,,595.7308,597.0305,597.0305,598.9741,return,0.5751,,30.859375,,,,,,FBP-YG-71.png,0.4,1.2,33,0.5,,,,,,,,,,,,,0,0,0,32,1,,,,,,,,,,,,,,,,,,,,,,,,,,,,
,,,,,WIN24_017,20,female,2024-01-29_17h52.07.397,jersey_experiment_5,2023.2.2,Win32,84.74576271,,,,,,,,,,,,,,,,598.9745,600.772,600.772,602.9291,return,0.6216,,30.20833333,,,,,,FBP-PT-17.png,0.37,1.2,47,1,,,,,,,,,,,,,0,1,1,46,1,,,,,,,,,,,,,,,,,,,,,,,,,,,,
,,,,,WIN24_017,20,female,2024-01-29_17h52.07.397,jersey_experiment_5,2023.2.2,Win32,84.74576271,,,,,,,,,,,,,,,,602.9292,604.2234,604.2234,605.2544,return,0.2359,,9.765625,,,,,,FBP-RB-18.png,0.35,1.2,21,0.5,,,,,,,,,,,,,0,2,2,20,1,,,,,,,,,,,,,,,,,,,,,,,,,,,,
,,,,,WIN24_017,20,female,2024-01-29_17h52.07.397,jersey_experiment_5,2023.2.2,Win32,84.74576271,,,,,,,,,,,,,,,,605.2547,606.5486,606.5486,607.878,return,0.5067,,66.92708333,,,,,,FBP-YG-91.png,0.4,1.2,43,0.5,,,,,,,,,,,,,0,3,3,42,1,,,,,,,,,,,,,,,,,,,,,,,,,,,,
,,,,,WIN24_017,20,female,2024-01-29_17h52.07.397,jersey_experiment_5,2023.2.2,Win32,84.74576271,,,,,,,,,,,,,,,,607.8783,609.6704,609.6705,610.5297,return,0.0945,,33.85416667,,,,,,FBP-PT-18.png,0.35,1.2,51,1,,,,,,,,,,,,,0,4,4,50,1,,,,,,,,,,,,,,,,,,,,,,,,,,,,
,,,,,WIN24_017,20,female,2024-01-29_17h52.07.397,jersey_experiment_5,2023.2.2,Win32,84.74576271,,,,,,,,,,,,,,,,610.5299,611.8257,611.8257,612.9414,return,0.2236,,68.75,,,,,,FBP-RB-17.png,0.4,1.2,18,0.5,,,,,,,,,,,,,0,5,5,17,1,,,,,,,,,,,,,,,,,,,,,,,,,,,,
,,,,,WIN24_017,20,female,2024-01-29_17h52.07.397,jersey_experiment_5,2023.2.2,Win32,84.74576271,,,,,,,,,,,,,,,,612.9416,614.7411,614.7411,615.6001,return,0.1411,,69.53125,,,,,,FBP-OG-71.png,0.4,1.2,3,1,,,,,,,,,,,,,0,6,6,2,1,,,,,,,,,,,,,,,,,,,,,,,,,,,,
,,,,,WIN24_017,20,female,2024-01-29_17h52.07.397,jersey_experiment_5,2023.2.2,Win32,84.74576271,,,,,,,,,,,,,,,,615.6002,617.4005,617.4006,619.8784,return,1.9318,,45.83333333,,,,,,FBP-PT-19.png,0.37,1.2,57,1,,,,,,,,,,,,,0,7,7,56,1,,,,,,,,,,,,,,,,,,,,,,,,,,,,
,,,,,WIN24_017,20,female,2024-01-29_17h52.07.397,jersey_experiment_5,2023.2.2,Win32,84.74576271,,,,,,,,,,,,,,,,619.8785,621.6708,621.6709,622.8829,return,0.271,,35.41666667,,,,,,FBP-OG-81.png,0.37,1.2,7,1,,,,,,,,,,,,,0,8,8,6,1,,,,,,,,,,,,,,,,,,,,,,,,,,,,
,,,,,WIN24_017,20,female,2024-01-29_17h52.07.397,jersey_experiment_5,2023.2.2,Win32,84.74576271,,,,,,,,,,,,,,,,622.883,624.1888,624.1888,625.4103,return,0.2101,,89.453125,,,,,,FBP-RB-19.png,0.45,1.2,30,0.5,,,,,,,,,,,,,0,9,9,29,1,,,,,,,,,,,,,,,,,,,,,,,,,,,,
,,,,,WIN24_017,20,female,2024-01-29_17h52.07.397,jersey_experiment_5,2023.2.2,Win32,84.74576271,,,,,,,,,,,,,,,,625.4105,627.2144,627.2145,629.0734,return,0.2024,,51.04166667,,,,,,FBP-PT-19.png,0.4,1.2,58,1,,,,,,,,,,,,,0,10,10,57,1,,,,,,,,,,,,,,,,,,,,,,,,,,,,
,,,,,WIN24_017,20,female,2024-01-29_17h52.07.397,jersey_experiment_5,2023.2.2,Win32,84.74576271,,,,,,,,,,,,,,,,629.0736,630.3656,630.3656,632.2831,return,0.1896,,4.036458333,,,,,,FBP-YG-81.png,0.35,1.2,36,0.5,,,,,,,,,,,,,0,11,11,35,1,,,,,,,,,,,,,,,,,,,,,,,,,,,,
,,,,,WIN24_017,20,female,2024-01-29_17h52.07.397,jersey_experiment_5,2023.2.2,Win32,84.74576271,,,,,,,,,,,,,,,,632.2832,633.5771,633.5771,635.6105,return,1.1159,,65.88541667,,,,,,FBP-YG-81.png,0.4,1.2,38,0.5,,,,,,,,,,,,,0,12,12,37,1,,,,,,,,,,,,,,,,,,,,,,,,,,,,
,,,,,WIN24_017,20,female,2024-01-29_17h52.07.397,jersey_experiment_5,2023.2.2,Win32,84.74576271,,,,,,,,,,,,,,,,635.6106,637.4085,637.4085,638.9542,return,0.6688,,12.23958333,,,,,,FBP-PT-19.png,0.35,1.2,56,1,,,,,,,,,,,,,0,13,13,55,1,,,,,,,,,,,,,,,,,,,,,,,,,,,,
,,,,,WIN24_017,20,female,2024-01-29_17h52.07.397,jersey_experiment_5,2023.2.2,Win32,84.74576271,,,,,,,,,,,,,,,,638.9544,640.7562,640.7562,642.0818,return,0.471,,97.65625,,,,,,FBP-PT-17.png,0.43,1.2,49,1,,,,,,,,,,,,,0,14,14,48,1,,,,,,,,,,,,,,,,,,,,,,,,,,,,
,,,,,WIN24_017,20,female,2024-01-29_17h52.07.397,jersey_experiment_5,2023.2.2,Win32,84.74576271,,,,,,,,,,,,,,,,642.0819,643.379,643.379,644.4343,return,0.233,,91.53645833,,,,,,FBP-YG-91.png,0.43,1.2,44,0.5,,,,,,,,,,,,,0,15,15,43,1,,,,,,,,,,,,,,,,,,,,,,,,,,,,
,,,,,WIN24_017,20,female,2024-01-29_17h52.07.397,jersey_experiment_5,2023.2.2,Win32,84.74576271,,,,,,,,,,,,,,,,644.4345,645.7305,645.7305,647.5264,return,0.3787,,28.77604167,,,,,,FBP-RB-17.png,0.37,1.2,17,0.5,,,,,,,,,,,,,0,16,16,16,1,,,,,,,,,,,,,,,,,,,,,,,,,,,,
,,,,,WIN24_017,20,female,2024-01-29_17h52.07.397,jersey_experiment_5,2023.2.2,Win32,84.74576271,,,,,,,,,,,,,,,,647.5265,649.3297,649.3297,650.7384,return,0.5007,,96.35416667,,,,,,FBP-PT-18.png,0.43,1.2,54,1,,,,,,,,,,,,,0,17,17,53,1,,,,,,,,,,,,,,,,,,,,,,,,,,,,
,,,,,WIN24_017,20,female,2024-01-29_17h52.07.397,jersey_experiment_5,2023.2.2,Win32,84.74576271,,,,,,,,,,,,,,,,650.7387,652.0367,652.0367,653.4797,return,0.1789,,5.208333333,,,,,,FBP-YG-91.png,0.35,1.2,41,0.5,,,,,,,,,,,,,0,18,18,40,1,,,,,,,,,,,,,,,,,,,,,,,,,,,,
,,,,,WIN24_017,20,female,2024-01-29_17h52.07.397,jersey_experiment_5,2023.2.2,Win32,84.74576271,,,,,,,,,,,,,,,,653.48,655.2837,655.2837,657.4254,return,0.226,,48.30729167,,,,,,FBP-PT-17.png,0.4,1.2,48,1,,,,,,,,,,,,,0,19,19,47,1,,,,,,,,,,,,,,,,,,,,,,,,,,,,
,,,,,WIN24_017,20,female,2024-01-29_17h52.07.397,jersey_experiment_5,2023.2.2,Win32,84.74576271,,,,,,,,,,,,,,,,657.4255,658.7309,658.7309,660.4448,return,0.4023,,47.13541667,,,,,,FBP-RB-18.png,0.37,1.2,22,0.5,,,,,,,,,,,,,0,20,20,21,1,,,,,,,,,,,,,,,,,,,,,,,,,,,,
,,,,,WIN24_017,20,female,2024-01-29_17h52.07.397,jersey_experiment_5,2023.2.2,Win32,84.74576271,,,,,,,,,,,,,,,,660.4451,662.2398,662.2398,663.4842,return,0.6588,,86.84895833,,,,,,FBP-OG-91.png,0.43,1.2,14,1,,,,,,,,,,,,,0,21,21,13,1,,,,,,,,,,,,,,,,,,,,,,,,,,,,
,,,,,WIN24_017,20,female,2024-01-29_17h52.07.397,jersey_experiment_5,2023.2.2,Win32,84.74576271,,,,,,,,,,,,,,,,663.4844,665.2862,665.2862,666.5313,return,0.4824,,98.56770833,,,,,,FBP-PT-18.png,0.45,1.2,55,1,,,,,,,,,,,,,0,22,22,54,1,,,,,,,,,,,,,,,,,,,,,,,,,,,,
,,,,,WIN24_017,20,female,2024-01-29_17h52.07.397,jersey_experiment_5,2023.2.2,Win32,84.74576271,,,,,,,,,,,,,,,,666.5314,668.3313,668.3314,669.398,return,0.6971,,98.56770833,,,,,,FBP-PT-17.png,0.45,1.2,50,1,,,,,,,,,,,,,0,23,23,49,1,,,,,,,,,,,,,,,,,,,,,,,,,,,,
,,,,,WIN24_017,20,female,2024-01-29_17h52.07.397,jersey_experiment_5,2023.2.2,Win32,84.74576271,,,,,,,,,,,,,,,,669.3983,670.6961,670.6961,672.4024,return,0.2358,,11.84895833,,,,,,FBP-YG-81.png,0.37,1.2,37,0.5,,,,,,,,,,,,,0,24,24,36,1,,,,,,,,,,,,,,,,,,,,,,,,,,,,
,,,,,WIN24_017,20,female,2024-01-29_17h52.07.397,jersey_experiment_5,2023.2.2,Win32,84.74576271,,,,,,,,,,,,,,,,672.4025,673.7039,673.7039,675.3511,return,0.215,,0.651041667,,,,,,FBP-YG-71.png,0.35,1.2,31,0.5,,,,,,,,,,,,,0,25,25,30,1,,,,,,,,,,,,,,,,,,,,,,,,,,,,
,,,,,WIN24_017,20,female,2024-01-29_17h52.07.397,jersey_experiment_5,2023.2.2,Win32,84.74576271,,,,,,,,,,,,,,,,675.3513,676.6493,676.6494,678.01,return,0.2234,,97.39583333,,,,,,FBP-RB-18.png,0.45,1.2,25,0.5,,,,,,,,,,,,,0,26,26,24,1,,,,,,,,,,,,,,,,,,,,,,,,,,,,
,,,,,WIN24_017,20,female,2024-01-29_17h52.07.397,jersey_experiment_5,2023.2.2,Win32,84.74576271,,,,,,,,,,,,,,,,678.0103,679.3085,679.3085,680.61,return,0.2399,,2.994791667,,,,,,FBP-RB-19.png,0.35,1.2,26,0.5,,,,,,,,,,,,,0,27,27,25,1,,,,,,,,,,,,,,,,,,,,,,,,,,,,
,,,,,WIN24_017,20,female,2024-01-29_17h52.07.397,jersey_experiment_5,2023.2.2,Win32,84.74576271,,,,,,,,,,,,,,,,680.6103,681.9081,681.9082,683.8143,return,0.8471,,83.984375,,,,,,FBP-RB-19.png,0.43,1.2,29,0.5,,,,,,,,,,,,,0,28,28,28,1,,,,,,,,,,,,,,,,,,,,,,,,,,,,
,,,,,WIN24_017,20,female,2024-01-29_17h52.07.397,jersey_experiment_5,2023.2.2,Win32,84.74576271,,,,,,,,,,,,,,,,683.8145,685.1088,685.1088,686.4692,return,0.1927,,89.84375,,,,,,FBP-RB-17.png,0.43,1.2,19,0.5,,,,,,,,,,,,,0,29,29,18,1,,,,,,,,,,,,,,,,,,,,,,,,,,,,
,,,,,WIN24_017,20,female,2024-01-29_17h52.07.397,jersey_experiment_5,2023.2.2,Win32,84.74576271,,,,,,,,,,,,,,,,686.4695,687.7672,687.7673,689.4011,return,0.3044,,49.21875,,,,,,FBP-RB-18.png,0.4,1.2,23,0.5,,,,,,,,,,,,,0,30,30,22,1,,,,,,,,,,,,,,,,,,,,,,,,,,,,
,,,,,WIN24_017,20,female,2024-01-29_17h52.07.397,jersey_experiment_5,2023.2.2,Win32,84.74576271,,,,,,,,,,,,,,,,689.4012,691.1932,691.1932,692.3797,return,0.1768,,8.723958333,,,,,,FBP-OG-91.png,0.35,1.2,11,1,,,,,,,,,,,,,0,31,31,10,1,,,,,,,,,,,,,,,,,,,,,,,,,,,,
,,,,,WIN24_017,20,female,2024-01-29_17h52.07.397,jersey_experiment_5,2023.2.2,Win32,84.74576271,,,,,,,,,,,,,,,,692.3798,693.6852,693.6852,695.1092,return,0.224,,91.015625,,,,,,FBP-YG-91.png,0.45,1.2,45,0.5,,,,,,,,,,,,,0,32,32,44,1,,,,,,,,,,,,,,,,,,,,,,,,,,,,
,,,,,WIN24_017,20,female,2024-01-29_17h52.07.397,jersey_experiment_5,2023.2.2,Win32,84.74576271,,,,,,,,,,,,,,,,695.1093,696.4146,696.4146,697.8971,return,0.5648,,98.95833333,,,,,,FBP-YG-81.png,0.45,1.2,40,0.5,,,,,,,,,,,,,0,33,33,39,1,,,,,,,,,,,,,,,,,,,,,,,,,,,,
,,,,,WIN24_017,20,female,2024-01-29_17h52.07.397,jersey_experiment_5,2023.2.2,Win32,84.74576271,,,,,,,,,,,,,,,,697.8973,699.6931,699.6932,700.9681,return,0.4943,,99.34895833,,,,,,FBP-PT-19.png,0.45,1.2,60,1,,,,,,,,,,,,,0,34,34,59,1,,,,,,,,,,,,,,,,,,,,,,,,,,,,
,,,,,WIN24_017,20,female,2024-01-29_17h52.07.397,jersey_experiment_5,2023.2.2,Win32,84.74576271,,,,,,,,,,,,,,,,700.9682,702.7681,702.7682,703.8463,return,0.4973,,93.359375,,,,,,FBP-OG-71.png,0.45,1.2,5,1,,,,,,,,,,,,,0,35,35,4,1,,,,,,,,,,,,,,,,,,,,,,,,,,,,
,,,,,WIN24_017,20,female,2024-01-29_17h52.07.397,jersey_experiment_5,2023.2.2,Win32,84.74576271,,,,,,,,,,,,,,,,703.8465,705.6462,705.6463,707.0625,return,0.2357,,81.51041667,,,,,,FBP-OG-81.png,0.45,1.2,10,1,,,,,,,,,,,,,0,36,36,9,1,,,,,,,,,,,,,,,,,,,,,,,,,,,,
,,,,,WIN24_017,20,female,2024-01-29_17h52.07.397,jersey_experiment_5,2023.2.2,Win32,84.74576271,,,,,,,,,,,,,,,,707.0627,708.3682,708.3682,709.7684,return,0.3434,,26.30208333,,,,,,FBP-YG-71.png,0.37,1.2,32,0.5,,,,,,,,,,,,,0,37,37,31,1,,,,,,,,,,,,,,,,,,,,,,,,,,,,
,,,,,WIN24_017,20,female,2024-01-29_17h52.07.397,jersey_experiment_5,2023.2.2,Win32,84.74576271,,,,,,,,,,,,,,,,709.7686,711.0731,711.0731,712.6509,return,0.2591,,15.36458333,,,,,,FBP-YG-91.png,0.37,1.2,42,0.5,,,,,,,,,,,,,0,38,38,41,1,,,,,,,,,,,,,,,,,,,,,,,,,,,,
,,,,,WIN24_017,20,female,2024-01-29_17h52.07.397,jersey_experiment_5,2023.2.2,Win32,84.74576271,,,,,,,,,,,,,,,,712.6511,713.943,713.943,715.4293,return,0.2257,,82.03125,,,,,,FBP-YG-71.png,0.45,1.2,35,0.5,,,,,,,,,,,,,0,39,39,34,1,,,,,,,,,,,,,,,,,,,,,,,,,,,,
,,,,,WIN24_017,20,female,2024-01-29_17h52.07.397,jersey_experiment_5,2023.2.2,Win32,84.74576271,,,,,,,,,,,,,,,,715.4294,716.7331,716.7331,718.1568,return,0.2473,,24.34895833,,,,,,FBP-RB-19.png,0.4,1.2,28,0.5,,,,,,,,,,,,,0,40,40,27,1,,,,,,,,,,,,,,,,,,,,,,,,,,,,
,,,,,WIN24_017,20,female,2024-01-29_17h52.07.397,jersey_experiment_5,2023.2.2,Win32,84.74576271,,,,,,,,,,,,,,,,718.157,719.4625,719.4626,720.957,return,0.2356,,64.453125,,,,,,FBP-YG-71.png,0.43,1.2,34,0.5,,,,,,,,,,,,,0,41,41,33,1,,,,,,,,,,,,,,,,,,,,,,,,,,,,
,,,,,WIN24_017,20,female,2024-01-29_17h52.07.397,jersey_experiment_5,2023.2.2,Win32,84.74576271,,,,,,,,,,,,,,,,720.9571,722.2627,722.2627,723.4982,return,0.2827,,0.130208333,,,,,,FBP-RB-17.png,0.35,1.2,16,0.5,,,,,,,,,,,,,0,42,42,15,1,,,,,,,,,,,,,,,,,,,,,,,,,,,,
,,,,,WIN24_017,20,female,2024-01-29_17h52.07.397,jersey_experiment_5,2023.2.2,Win32,84.74576271,,,,,,,,,,,,,,,,723.4984,725.2964,725.2964,726.1829,return,0.2514,,3.515625,,,,,,FBP-OG-81.png,0.35,1.2,6,1,,,,,,,,,,,,,0,43,43,5,1,,,,,,,,,,,,,,,,,,,,,,,,,,,,
,,,,,WIN24_017,20,female,2024-01-29_17h52.07.397,jersey_experiment_5,2023.2.2,Win32,84.74576271,,,,,,,,,,,,,,,,726.1831,727.9789,727.9789,728.9222,return,0.212,,5.208333333,,,,,,FBP-OG-71.png,0.35,1.2,1,1,,,,,,,,,,,,,0,44,44,0,1,,,,,,,,,,,,,,,,,,,,,,,,,,,,
,,,,,WIN24_017,20,female,2024-01-29_17h52.07.397,jersey_experiment_5,2023.2.2,Win32,84.74576271,,,,,,,,,,,,,,,,728.9224,730.7202,730.7202,731.9573,return,0.2353,,7.421875,,,,,,FBP-PT-18.png,0.37,1.2,52,1,,,,,,,,,,,,,0,45,45,51,1,,,,,,,,,,,,,,,,,,,,,,,,,,,,
,,,,,WIN24_017,20,female,2024-01-29_17h52.07.397,jersey_experiment_5,2023.2.2,Win32,84.74576271,,,,,,,,,,,,,,,,731.9575,733.7576,733.7576,734.9457,return,0.4842,,51.171875,,,,,,FBP-OG-81.png,0.4,1.2,8,1,,,,,,,,,,,,,0,46,46,7,1,,,,,,,,,,,,,,,,,,,,,,,,,,,,
,,,,,WIN24_017,20,female,2024-01-29_17h52.07.397,jersey_experiment_5,2023.2.2,Win32,84.74576271,,,,,,,,,,,,,,,,734.9458,736.7478,736.7479,738.0753,return,0.4257,,67.96875,,,,,,FBP-OG-91.png,0.4,1.2,13,1,,,,,,,,,,,,,0,47,47,12,1,,,,,,,,,,,,,,,,,,,,,,,,,,,,
,,,,,WIN24_017,20,female,2024-01-29_17h52.07.397,jersey_experiment_5,2023.2.2,Win32,84.74576271,,,,,,,,,,,,,,,,738.0754,739.3676,739.3676,740.6282,return,0.2588,,29.16666667,,,,,,FBP-RB-19.png,0.37,1.2,27,0.5,,,,,,,,,,,,,0,48,48,26,1,,,,,,,,,,,,,,,,,,,,,,,,,,,,
,,,,,WIN24_017,20,female,2024-01-29_17h52.07.397,jersey_experiment_5,2023.2.2,Win32,84.74576271,,,,,,,,,,,,,,,,740.6285,741.9342,741.9342,743.0948,return,0.2257,,90.234375,,,,,,FBP-RB-18.png,0.43,1.2,24,0.5,,,,,,,,,,,,,0,49,49,23,1,,,,,,,,,,,,,,,,,,,,,,,,,,,,
,,,,,WIN24_017,20,female,2024-01-29_17h52.07.397,jersey_experiment_5,2023.2.2,Win32,84.74576271,,,,,,,,,,,,,,,,743.095,744.3889,744.3889,745.7678,return,0.5042,,98.046875,,,,,,FBP-RB-17.png,0.45,1.2,20,0.5,,,,,,,,,,,,,0,50,50,19,1,,,,,,,,,,,,,,,,,,,,,,,,,,,,
,,,,,WIN24_017,20,female,2024-01-29_17h52.07.397,jersey_experiment_5,2023.2.2,Win32,84.74576271,,,,,,,,,,,,,,,,745.7679,747.5717,747.5717,748.6361,return,0.553,,96.09375,,,,,,FBP-OG-81.png,0.43,1.2,9,1,,,,,,,,,,,,,0,51,51,8,1,,,,,,,,,,,,,,,,,,,,,,,,,,,,
,,,,,WIN24_017,20,female,2024-01-29_17h52.07.397,jersey_experiment_5,2023.2.2,Win32,84.74576271,,,,,,,,,,,,,,,,748.6363,749.9343,749.9343,751.2169,return,0.2591,,96.61458333,,,,,,FBP-YG-81.png,0.43,1.2,39,0.5,,,,,,,,,,,,,0,52,52,38,1,,,,,,,,,,,,,,,,,,,,,,,,,,,,
,,,,,WIN24_017,20,female,2024-01-29_17h52.07.397,jersey_experiment_5,2023.2.2,Win32,84.74576271,,,,,,,,,,,,,,,,751.2171,753.0171,753.0171,754.5229,return,0.445,,15.49479167,,,,,,FBP-OG-71.png,0.37,1.2,2,1,,,,,,,,,,,,,0,53,53,1,1,,,,,,,,,,,,,,,,,,,,,,,,,,,,
,,,,,WIN24_017,20,female,2024-01-29_17h52.07.397,jersey_experiment_5,2023.2.2,Win32,84.74576271,,,,,,,,,,,,,,,,754.523,756.3188,756.3189,757.406,return,0.2127,,5.338541667,,,,,,FBP-PT-17.png,0.35,1.2,46,1,,,,,,,,,,,,,0,54,54,45,1,,,,,,,,,,,,,,,,,,,,,,,,,,,,
,,,,,WIN24_017,20,female,2024-01-29_17h52.07.397,jersey_experiment_5,2023.2.2,Win32,84.74576271,,,,,,,,,,,,,,,,757.4063,759.2056,759.2056,760.3424,return,0.4726,,8.854166667,,,,,,FBP-OG-91.png,0.37,1.2,12,1,,,,,,,,,,,,,0,55,55,11,1,,,,,,,,,,,,,,,,,,,,,,,,,,,,
,,,,,WIN24_017,20,female,2024-01-29_17h52.07.397,jersey_experiment_5,2023.2.2,Win32,84.74576271,,,,,,,,,,,,,,,,760.3427,762.1352,762.1353,763.5073,return,0.2405,,49.73958333,,,,,,FBP-PT-18.png,0.4,1.2,53,1,,,,,,,,,,,,,0,56,56,52,1,,,,,,,,,,,,,,,,,,,,,,,,,,,,
,,,,,WIN24_017,20,female,2024-01-29_17h52.07.397,jersey_experiment_5,2023.2.2,Win32,84.74576271,,,,,,,,,,,,,,,,763.5076,765.3018,765.3018,766.4839,return,0.5107,,75.78125,,,,,,FBP-OG-91.png,0.45,1.2,15,1,,,,,,,,,,,,,0,57,57,14,1,,,,,,,,,,,,,,,,,,,,,,,,,,,,
,,,,,WIN24_017,20,female,2024-01-29_17h52.07.397,jersey_experiment_5,2023.2.2,Win32,84.74576271,,,,,,,,,,,,,,,,766.4841,768.288,768.288,769.4518,return,0.4934,,49.34895833,,,,,,FBP-OG-71.png,0.43,1.2,4,1,,,,,,,,,,,,,0,58,58,3,1,,,,,,,,,,,,,,,,,,,,,,,,,,,,
,,,,,WIN24_017,20,female,2024-01-29_17h52.07.397,jersey_experiment_5,2023.2.2,Win32,84.74576271,,,,,,,,,,,,,,,,769.452,771.2487,771.2487,775.6319,return,1.1319,,28.64583333,,,,,,FBP-PT-19.png,0.43,1.2,59,1,,,,,,,,,,,,,0,59,59,58,1,,,,,,,,,,,,,,,,,,,,,,,,,,,,
,,,,,WIN24_017,20,female,2024-01-29_17h52.07.397,jersey_experiment_5,2023.2.2,Win32,84.74576271,,,,,,,,,,,,,,,,775.6337,776.9314,776.9314,778.202,return,0.2807,,39.0625,,,,,,FBP-RB-71.png,0.43,1.2,19,0.5,,,,,,,,,,,,,,,,,,0,0,0,18,1,,,,,,,,,,,,,,,,,,,,,,,
,,,,,WIN24_017,20,female,2024-01-29_17h52.07.397,jersey_experiment_5,2023.2.2,Win32,84.74576271,,,,,,,,,,,,,,,,778.2022,779.4961,779.4961,780.5666,return,0.3294,,49.609375,,,,,,FBP-RB-71.png,0.4,1.2,18,0.5,,,,,,,,,,,,,,,,,,0,1,1,17,1,,,,,,,,,,,,,,,,,,,,,,,
,,,,,WIN24_017,20,female,2024-01-29_17h52.07.397,jersey_experiment_5,2023.2.2,Win32,84.74576271,,,,,,,,,,,,,,,,780.5669,782.3731,782.3731,783.324,return,0.2589,,17.1875,,,,,,FBP-PT-91.png,0.37,1.2,57,1,,,,,,,,,,,,,,,,,,0,2,2,56,1,,,,,,,,,,,,,,,,,,,,,,,
,,,,,WIN24_017,20,female,2024-01-29_17h52.07.397,jersey_experiment_5,2023.2.2,Win32,84.74576271,,,,,,,,,,,,,,,,783.3241,785.1241,785.1241,786.1475,return,0.2823,,77.47395833,,,,,,FBP-OG-17.png,0.43,1.2,4,1,,,,,,,,,,,,,,,,,,0,3,3,3,1,,,,,,,,,,,,,,,,,,,,,,,
,,,,,WIN24_017,20,female,2024-01-29_17h52.07.397,jersey_experiment_5,2023.2.2,Win32,84.74576271,,,,,,,,,,,,,,,,786.1477,787.4493,787.4493,788.8654,return,0.3507,,53.125,,,,,,FBP-RB-91.png,0.4,1.2,28,0.5,,,,,,,,,,,,,,,,,,0,4,4,27,1,,,,,,,,,,,,,,,,,,,,,,,
,,,,,WIN24_017,20,female,2024-01-29_17h52.07.397,jersey_experiment_5,2023.2.2,Win32,84.74576271,,,,,,,,,,,,,,,,788.8656,790.1594,790.1594,791.5317,return,0.3062,,26.04166667,,,,,,FBP-YG-18.png,0.37,1.2,37,0.5,,,,,,,,,,,,,,,,,,0,5,5,36,1,,,,,,,,,,,,,,,,,,,,,,,
,,,,,WIN24_017,20,female,2024-01-29_17h52.07.397,jersey_experiment_5,2023.2.2,Win32,84.74576271,,,,,,,,,,,,,,,,791.5319,792.8288,792.8288,793.779,return,0.3468,,78.90625,,,,,,FBP-YG-19.png,0.43,1.2,44,0.5,,,,,,,,,,,,,,,,,,0,6,6,43,1,,,,,,,,,,,,,,,,,,,,,,,
,,,,,WIN24_017,20,female,2024-01-29_17h52.07.397,jersey_experiment_5,2023.2.2,Win32,84.74576271,,,,,,,,,,,,,,,,793.7792,795.0776,795.0776,796.2542,return,0.3553,,15.234375,,,,,,FBP-RB-71.png,0.35,1.2,16,0.5,,,,,,,,,,,,,,,,,,0,7,7,15,1,,,,,,,,,,,,,,,,,,,,,,,
,,,,,WIN24_017,20,female,2024-01-29_17h52.07.397,jersey_experiment_5,2023.2.2,Win32,84.74576271,,,,,,,,,,,,,,,,796.2544,798.0541,798.0541,799.3085,return,0.306,,17.44791667,,,,,,FBP-OG-19.png,0.37,1.2,12,1,,,,,,,,,,,,,,,,,,0,8,8,11,1,,,,,,,,,,,,,,,,,,,,,,,
,,,,,WIN24_017,20,female,2024-01-29_17h52.07.397,jersey_experiment_5,2023.2.2,Win32,84.74576271,,,,,,,,,,,,,,,,799.3087,800.6027,800.6027,801.6499,return,0.266,,72.91666667,,,,,,FBP-YG-19.png,0.45,1.2,45,0.5,,,,,,,,,,,,,,,,,,0,9,9,44,1,,,,,,,,,,,,,,,,,,,,,,,
,,,,,WIN24_017,20,female,2024-01-29_17h52.07.397,jersey_experiment_5,2023.2.2,Win32,84.74576271,,,,,,,,,,,,,,,,801.65,803.4539,803.4539,804.6499,return,0.2693,,7.03125,,,,,,FBP-OG-19.png,0.35,1.2,11,1,,,,,,,,,,,,,,,,,,0,10,10,10,1,,,,,,,,,,,,,,,,,,,,,,,
,,,,,WIN24_017,20,female,2024-01-29_17h52.07.397,jersey_experiment_5,2023.2.2,Win32,84.74576271,,,,,,,,,,,,,,,,804.6502,805.9465,805.9465,806.866,return,0.3274,,81.640625,,,,,,FBP-RB-81.png,0.45,1.2,25,0.5,,,,,,,,,,,,,,,,,,0,11,11,24,1,,,,,,,,,,,,,,,,,,,,,,,
,,,,,WIN24_017,20,female,2024-01-29_17h52.07.397,jersey_experiment_5,2023.2.2,Win32,84.74576271,,,,,,,,,,,,,,,,806.8661,808.666,808.666,809.6267,return,0.318,,88.93229167,,,,,,FBP-OG-19.png,0.43,1.2,14,1,,,,,,,,,,,,,,,,,,0,12,12,13,1,,,,,,,,,,,,,,,,,,,,,,,
,,,,,WIN24_017,20,female,2024-01-29_17h52.07.397,jersey_experiment_5,2023.2.2,Win32,84.74576271,,,,,,,,,,,,,,,,809.6269,811.4192,811.4192,812.4309,return,0.3057,,71.61458333,,,,,,FBP-PT-71.png,0.4,1.2,48,1,,,,,,,,,,,,,,,,,,0,13,13,47,1,,,,,,,,,,,,,,,,,,,,,,,
,,,,,WIN24_017,20,female,2024-01-29_17h52.07.397,jersey_experiment_5,2023.2.2,Win32,84.74576271,,,,,,,,,,,,,,,,812.431,814.2267,814.2267,815.3037,return,0.3055,,18.88020833,,,,,,FBP-PT-81.png,0.37,1.2,52,1,,,,,,,,,,,,,,,,,,0,14,14,51,1,,,,,,,,,,,,,,,,,,,,,,,
,,,,,WIN24_017,20,female,2024-01-29_17h52.07.397,jersey_experiment_5,2023.2.2,Win32,84.74576271,,,,,,,,,,,,,,,,815.3038,817.0976,817.0976,818.3606,return,0.3059,,42.96875,,,,,,FBP-OG-18.png,0.4,1.2,8,1,,,,,,,,,,,,,,,,,,0,15,15,7,1,,,,,,,,,,,,,,,,,,,,,,,
,,,,,WIN24_017,20,female,2024-01-29_17h52.07.397,jersey_experiment_5,2023.2.2,Win32,84.74576271,,,,,,,,,,,,,,,,818.3607,820.1566,820.1566,820.9727,return,0.3434,,83.46354167,,,,,,FBP-PT-81.png,0.45,1.2,55,1,,,,,,,,,,,,,,,,,,0,16,16,54,1,,,,,,,,,,,,,,,,,,,,,,,
,,,,,WIN24_017,20,female,2024-01-29_17h52.07.397,jersey_experiment_5,2023.2.2,Win32,84.74576271,,,,,,,,,,,,,,,,820.9729,822.2742,822.2742,824.8743,return,0.3393,,0.130208333,,,,,,FBP-YG-17.png,0.35,1.2,31,0.5,,,,,,,,,,,,,,,,,,0,17,17,30,1,,,,,,,,,,,,,,,,,,,,,,,
,,,,,WIN24_017,20,female,2024-01-29_17h52.07.397,jersey_experiment_5,2023.2.2,Win32,84.74576271,,,,,,,,,,,,,,,,824.8745,826.1685,826.1685,827.5095,return,0.356,,49.609375,,,,,,FBP-YG-19.png,0.4,1.2,43,0.5,,,,,,,,,,,,,,,,,,0,18,18,42,1,,,,,,,,,,,,,,,,,,,,,,,
,,,,,WIN24_017,20,female,2024-01-29_17h52.07.397,jersey_experiment_5,2023.2.2,Win32,84.74576271,,,,,,,,,,,,,,,,827.5097,828.8099,828.8099,830.2318,return,0.3412,,68.48958333,,,,,,FBP-RB-71.png,0.45,1.2,20,0.5,,,,,,,,,,,,,,,,,,0,19,19,19,1,,,,,,,,,,,,,,,,,,,,,,,
,,,,,WIN24_017,20,female,2024-01-29_17h52.07.397,jersey_experiment_5,2023.2.2,Win32,84.74576271,,,,,,,,,,,,,,,,830.232,831.5239,831.5239,832.3803,return,0.365,,83.85416667,,,,,,FBP-RB-91.png,0.45,1.2,30,0.5,,,,,,,,,,,,,,,,,,0,20,20,29,1,,,,,,,,,,,,,,,,,,,,,,,
,,,,,WIN24_017,20,female,2024-01-29_17h52.07.397,jersey_experiment_5,2023.2.2,Win32,84.74576271,,,,,,,,,,,,,,,,832.3805,834.1846,834.1846,835.2414,return,0.353,,25.13020833,,,,,,FBP-OG-18.png,0.37,1.2,7,1,,,,,,,,,,,,,,,,,,0,21,21,6,1,,,,,,,,,,,,,,,,,,,,,,,
,,,,,WIN24_017,20,female,2024-01-29_17h52.07.397,jersey_experiment_5,2023.2.2,Win32,84.74576271,,,,,,,,,,,,,,,,835.2415,837.0434,837.0434,838.3571,return,0.3228,,46.875,,,,,,FBP-PT-91.png,0.43,1.2,59,1,,,,,,,,,,,,,,,,,,0,22,22,58,1,,,,,,,,,,,,,,,,,,,,,,,
,,,,,WIN24_017,20,female,2024-01-29_17h52.07.397,jersey_experiment_5,2023.2.2,Win32,84.74576271,,,,,,,,,,,,,,,,838.3574,839.6514,839.6514,840.7125,return,0.3022,,38.80208333,,,,,,FBP-RB-81.png,0.4,1.2,23,0.5,,,,,,,,,,,,,,,,,,0,23,23,22,1,,,,,,,,,,,,,,,,,,,,,,,
,,,,,WIN24_017,20,female,2024-01-29_17h52.07.397,jersey_experiment_5,2023.2.2,Win32,84.74576271,,,,,,,,,,,,,,,,840.7127,842.0043,842.0043,843.7831,return,0.4807,,74.73958333,,,,,,FBP-YG-18.png,0.45,1.2,40,0.5,,,,,,,,,,,,,,,,,,0,24,24,39,1,,,,,,,,,,,,,,,,,,,,,,,
,,,,,WIN24_017,20,female,2024-01-29_17h52.07.397,jersey_experiment_5,2023.2.2,Win32,84.74576271,,,,,,,,,,,,,,,,843.7833,845.5831,845.5832,847.4281,return,0.4539,,59.89583333,,,,,,FBP-PT-81.png,0.43,1.2,54,1,,,,,,,,,,,,,,,,,,0,25,25,53,1,,,,,,,,,,,,,,,,,,,,,,,
,,,,,WIN24_017,20,female,2024-01-29_17h52.07.397,jersey_experiment_5,2023.2.2,Win32,84.74576271,,,,,,,,,,,,,,,,847.4283,848.7262,848.7262,850.2442,return,0.2923,,12.76041667,,,,,,FBP-YG-17.png,0.4,1.2,33,0.5,,,,,,,,,,,,,,,,,,0,26,26,32,1,,,,,,,,,,,,,,,,,,,,,,,
,,,,,WIN24_017,20,female,2024-01-29_17h52.07.397,jersey_experiment_5,2023.2.2,Win32,84.74576271,,,,,,,,,,,,,,,,850.2443,852.0462,852.0462,852.9387,return,0.3202,,75.78125,,,,,,FBP-OG-18.png,0.45,1.2,10,1,,,,,,,,,,,,,,,,,,0,27,27,9,1,,,,,,,,,,,,,,,,,,,,,,,
,,,,,WIN24_017,20,female,2024-01-29_17h52.07.397,jersey_experiment_5,2023.2.2,Win32,84.74576271,,,,,,,,,,,,,,,,852.9387,854.2401,854.2401,855.209,return,0.318,,81.11979167,,,,,,FBP-YG-17.png,0.45,1.2,35,0.5,,,,,,,,,,,,,,,,,,0,28,28,34,1,,,,,,,,,,,,,,,,,,,,,,,
,,,,,WIN24_017,20,female,2024-01-29_17h52.07.397,jersey_experiment_5,2023.2.2,Win32,84.74576271,,,,,,,,,,,,,,,,855.2092,857.0047,857.0048,858.1737,return,0.2943,,23.56770833,,,,,,FBP-OG-18.png,0.35,1.2,6,1,,,,,,,,,,,,,,,,,,0,29,29,5,1,,,,,,,,,,,,,,,,,,,,,,,
,,,,,WIN24_017,20,female,2024-01-29_17h52.07.397,jersey_experiment_5,2023.2.2,Win32,84.74576271,,,,,,,,,,,,,,,,858.1739,859.9696,859.9696,861.4898,return,0.563,,12.5,,,,,,FBP-PT-71.png,0.35,1.2,46,1,,,,,,,,,,,,,,,,,,0,30,30,45,1,,,,,,,,,,,,,,,,,,,,,,,
,,,,,WIN24_017,20,female,2024-01-29_17h52.07.397,jersey_experiment_5,2023.2.2,Win32,84.74576271,,,,,,,,,,,,,,,,861.4899,862.7856,862.7856,864.0446,return,0.2826,,13.80208333,,,,,,FBP-YG-19.png,0.37,1.2,42,0.5,,,,,,,,,,,,,,,,,,0,31,31,41,1,,,,,,,,,,,,,,,,,,,,,,,
,,,,,WIN24_017,20,female,2024-01-29_17h52.07.397,jersey_experiment_5,2023.2.2,Win32,84.74576271,,,,,,,,,,,,,,,,864.0448,865.3463,865.3464,866.5366,return,0.2687,,68.61979167,,,,,,FBP-RB-91.png,0.43,1.2,29,0.5,,,,,,,,,,,,,,,,,,0,32,32,28,1,,,,,,,,,,,,,,,,,,,,,,,
,,,,,WIN24_017,20,female,2024-01-29_17h52.07.397,jersey_experiment_5,2023.2.2,Win32,84.74576271,,,,,,,,,,,,,,,,866.5368,868.3347,868.3348,869.3934,return,0.5133,,76.30208333,,,,,,FBP-PT-91.png,0.45,1.2,60,1,,,,,,,,,,,,,,,,,,0,33,33,59,1,,,,,,,,,,,,,,,,,,,,,,,
,,,,,WIN24_017,20,female,2024-01-29_17h52.07.397,jersey_experiment_5,2023.2.2,Win32,84.74576271,,,,,,,,,,,,,,,,869.3936,870.6877,870.6877,872.9295,return,0.5797,,48.828125,,,,,,FBP-YG-18.png,0.4,1.2,38,0.5,,,,,,,,,,,,,,,,,,0,34,34,37,1,,,,,,,,,,,,,,,,,,,,,,,
,,,,,WIN24_017,20,female,2024-01-29_17h52.07.397,jersey_experiment_5,2023.2.2,Win32,84.74576271,,,,,,,,,,,,,,,,872.9296,874.723,874.723,875.963,return,0.2472,,74.34895833,,,,,,FBP-PT-71.png,0.43,1.2,49,1,,,,,,,,,,,,,,,,,,0,35,35,48,1,,,,,,,,,,,,,,,,,,,,,,,
,,,,,WIN24_017,20,female,2024-01-29_17h52.07.397,jersey_experiment_5,2023.2.2,Win32,84.74576271,,,,,,,,,,,,,,,,875.9631,877.2644,877.2644,880.0997,return,0.3107,,68.359375,,,,,,FBP-YG-17.png,0.43,1.2,34,0.5,,,,,,,,,,,,,,,,,,0,36,36,33,1,,,,,,,,,,,,,,,,,,,,,,,
,,,,,WIN24_017,20,female,2024-01-29_17h52.07.397,jersey_experiment_5,2023.2.2,Win32,84.74576271,,,,,,,,,,,,,,,,880.1,881.8999,881.9,883.4764,return,0.3573,,51.82291667,,,,,,FBP-OG-18.png,0.43,1.2,9,1,,,,,,,,,,,,,,,,,,0,37,37,8,1,,,,,,,,,,,,,,,,,,,,,,,
,,,,,WIN24_017,20,female,2024-01-29_17h52.07.397,jersey_experiment_5,2023.2.2,Win32,84.74576271,,,,,,,,,,,,,,,,883.4767,885.269,885.2691,886.0221,return,0.3161,,62.76041667,,,,,,FBP-OG-17.png,0.45,1.2,5,1,,,,,,,,,,,,,,,,,,0,38,38,4,1,,,,,,,,,,,,,,,,,,,,,,,
,,,,,WIN24_017,20,female,2024-01-29_17h52.07.397,jersey_experiment_5,2023.2.2,Win32,84.74576271,,,,,,,,,,,,,,,,886.0223,887.8205,887.8205,888.9044,return,0.2824,,26.82291667,,,,,,FBP-OG-17.png,0.35,1.2,1,1,,,,,,,,,,,,,,,,,,0,39,39,0,1,,,,,,,,,,,,,,,,,,,,,,,
,,,,,WIN24_017,20,female,2024-01-29_17h52.07.397,jersey_experiment_5,2023.2.2,Win32,84.74576271,,,,,,,,,,,,,,,,888.9045,890.1985,890.1985,891.3398,return,0.2941,,12.36979167,,,,,,FBP-RB-91.png,0.35,1.2,26,0.5,,,,,,,,,,,,,,,,,,0,40,40,25,1,,,,,,,,,,,,,,,,,,,,,,,
,,,,,WIN24_017,20,female,2024-01-29_17h52.07.397,jersey_experiment_5,2023.2.2,Win32,84.74576271,,,,,,,,,,,,,,,,891.3399,892.6415,892.6415,893.7992,return,0.2946,,8.072916667,,,,,,FBP-YG-19.png,0.35,1.2,41,0.5,,,,,,,,,,,,,,,,,,0,41,41,40,1,,,,,,,,,,,,,,,,,,,,,,,
,,,,,WIN24_017,20,female,2024-01-29_17h52.07.397,jersey_experiment_5,2023.2.2,Win32,84.74576271,,,,,,,,,,,,,,,,893.7994,895.5967,895.5967,896.7869,return,0.3628,,79.94791667,,,,,,FBP-OG-19.png,0.45,1.2,15,1,,,,,,,,,,,,,,,,,,0,42,42,14,1,,,,,,,,,,,,,,,,,,,,,,,
,,,,,WIN24_017,20,female,2024-01-29_17h52.07.397,jersey_experiment_5,2023.2.2,Win32,84.74576271,,,,,,,,,,,,,,,,896.787,898.589,898.5891,900.1029,return,0.7963,,19.79166667,,,,,,FBP-PT-91.png,0.35,1.2,56,1,,,,,,,,,,,,,,,,,,0,43,43,55,1,,,,,,,,,,,,,,,,,,,,,,,
,,,,,WIN24_017,20,female,2024-01-29_17h52.07.397,jersey_experiment_5,2023.2.2,Win32,84.74576271,,,,,,,,,,,,,,,,900.103,901.9006,901.9006,904.0225,return,0.257,,37.63020833,,,,,,FBP-PT-81.png,0.4,1.2,53,1,,,,,,,,,,,,,,,,,,0,44,44,52,1,,,,,,,,,,,,,,,,,,,,,,,
,,,,,WIN24_017,20,female,2024-01-29_17h52.07.397,jersey_experiment_5,2023.2.2,Win32,84.74576271,,,,,,,,,,,,,,,,904.0226,905.3163,905.3163,906.6463,return,0.2372,,29.42708333,,,,,,FBP-RB-91.png,0.37,1.2,27,0.5,,,,,,,,,,,,,,,,,,0,45,45,26,1,,,,,,,,,,,,,,,,,,,,,,,
,,,,,WIN24_017,20,female,2024-01-29_17h52.07.397,jersey_experiment_5,2023.2.2,Win32,84.74576271,,,,,,,,,,,,,,,,906.6465,908.4421,908.4421,908.9975,return,0.281,,21.09375,,,,,,FBP-PT-71.png,0.37,1.2,47,1,,,,,,,,,,,,,,,,,,0,46,46,46,1,,,,,,,,,,,,,,,,,,,,,,,
,,,,,WIN24_017,20,female,2024-01-29_17h52.07.397,jersey_experiment_5,2023.2.2,Win32,84.74576271,,,,,,,,,,,,,,,,908.9977,910.7991,910.7991,911.8819,return,0.2376,,14.84375,,,,,,FBP-OG-17.png,0.37,1.2,2,1,,,,,,,,,,,,,,,,,,0,47,47,1,1,,,,,,,,,,,,,,,,,,,,,,,
,,,,,WIN24_017,20,female,2024-01-29_17h52.07.397,jersey_experiment_5,2023.2.2,Win32,84.74576271,,,,,,,,,,,,,,,,911.8821,913.6816,913.6816,914.47,return,0.2708,,7.161458333,,,,,,FBP-PT-81.png,0.35,1.2,51,1,,,,,,,,,,,,,,,,,,0,48,48,50,1,,,,,,,,,,,,,,,,,,,,,,,
,,,,,WIN24_017,20,female,2024-01-29_17h52.07.397,jersey_experiment_5,2023.2.2,Win32,84.74576271,,,,,,,,,,,,,,,,914.4701,916.2705,916.2705,917.6703,return,0.563,,55.46875,,,,,,FBP-PT-91.png,0.4,1.2,58,1,,,,,,,,,,,,,,,,,,0,49,49,57,1,,,,,,,,,,,,,,,,,,,,,,,
,,,,,WIN24_017,20,female,2024-01-29_17h52.07.397,jersey_experiment_5,2023.2.2,Win32,84.74576271,,,,,,,,,,,,,,,,917.6705,918.9772,918.9772,920.4701,return,0.5297,,80.59895833,,,,,,FBP-YG-18.png,0.43,1.2,39,0.5,,,,,,,,,,,,,,,,,,0,50,50,38,1,,,,,,,,,,,,,,,,,,,,,,,
,,,,,WIN24_017,20,female,2024-01-29_17h52.07.397,jersey_experiment_5,2023.2.2,Win32,84.74576271,,,,,,,,,,,,,,,,920.4703,921.7762,921.7763,923.5411,return,0.7671,,48.69791667,,,,,,FBP-RB-81.png,0.37,1.2,22,0.5,,,,,,,,,,,,,,,,,,0,51,51,21,1,,,,,,,,,,,,,,,,,,,,,,,
,,,,,WIN24_017,20,female,2024-01-29_17h52.07.397,jersey_experiment_5,2023.2.2,Win32,84.74576271,,,,,,,,,,,,,,,,923.5412,924.8466,924.8466,925.8137,return,0.202,,34.24479167,,,,,,FBP-RB-81.png,0.35,1.2,21,0.5,,,,,,,,,,,,,,,,,,0,52,52,20,1,,,,,,,,,,,,,,,,,,,,,,,
,,,,,WIN24_017,20,female,2024-01-29_17h52.07.397,jersey_experiment_5,2023.2.2,Win32,84.74576271,,,,,,,,,,,,,,,,925.8139,927.1133,927.1133,928.2469,return,0.3157,,34.63541667,,,,,,FBP-RB-71.png,0.37,1.2,17,0.5,,,,,,,,,,,,,,,,,,0,53,53,16,1,,,,,,,,,,,,,,,,,,,,,,,
,,,,,WIN24_017,20,female,2024-01-29_17h52.07.397,jersey_experiment_5,2023.2.2,Win32,84.74576271,,,,,,,,,,,,,,,,928.247,930.0456,930.0456,931.4334,return,0.2689,,81.90104167,,,,,,FBP-PT-71.png,0.45,1.2,50,1,,,,,,,,,,,,,,,,,,0,54,54,49,1,,,,,,,,,,,,,,,,,,,,,,,
,,,,,WIN24_017,20,female,2024-01-29_17h52.07.397,jersey_experiment_5,2023.2.2,Win32,84.74576271,,,,,,,,,,,,,,,,931.4336,932.7253,932.7253,933.8121,return,0.212,,3.385416667,,,,,,FBP-YG-18.png,0.35,1.2,36,0.5,,,,,,,,,,,,,,,,,,0,55,55,35,1,,,,,,,,,,,,,,,,,,,,,,,
,,,,,WIN24_017,20,female,2024-01-29_17h52.07.397,jersey_experiment_5,2023.2.2,Win32,84.74576271,,,,,,,,,,,,,,,,933.8122,935.6077,935.6077,937.7295,return,0.5295,,47.78645833,,,,,,FBP-OG-17.png,0.4,1.2,3,1,,,,,,,,,,,,,,,,,,0,56,56,2,1,,,,,,,,,,,,,,,,,,,,,,,
,,,,,WIN24_017,20,female,2024-01-29_17h52.07.397,jersey_experiment_5,2023.2.2,Win32,84.74576271,,,,,,,,,,,,,,,,937.7297,939.0236,939.0236,940.259,return,0.3883,,27.34375,,,,,,FBP-YG-17.png,0.37,1.2,32,0.5,,,,,,,,,,,,,,,,,,0,57,57,31,1,,,,,,,,,,,,,,,,,,,,,,,
,,,,,WIN24_017,20,female,2024-01-29_17h52.07.397,jersey_experiment_5,2023.2.2,Win32,84.74576271,,,,,,,,,,,,,,,,940.2592,941.5531,941.5531,942.9203,return,0.2493,,80.46875,,,,,,FBP-RB-81.png,0.43,1.2,24,0.5,,,,,,,,,,,,,,,,,,0,58,58,23,1,,,,,,,,,,,,,,,,,,,,,,,
,,,,,WIN24_017,20,female,2024-01-29_17h52.07.397,jersey_experiment_5,2023.2.2,Win32,84.74576271,,,,,,,,,,,,,,,,942.9205,944.718,944.718,947.4261,return,0.7335,,33.59375,,,,,,FBP-OG-19.png,0.4,1.2,13,1,,,,,,,,,,,,,,,,,,0,59,59,12,1,,,,,,,,,,,,,,,,,,,,,,,
,,,,,WIN24_017,20,female,2024-01-29_17h52.07.397,jersey_experiment_5,2023.2.2,Win32,84.74576271,,,,,,,,,,,,,,,,,,,,,,,,,,,,,,,,,,,,,,,,,,,,,,,,,,,,,,,,947.4264,952.2362,return,4.7982,,,,,,,,,,,,,,,,,,,
,,,,,WIN24_017,20,female,2024-01-29_17h52.07.397,jersey_experiment_5,2023.2.2,Win32,84.74576271,,,,,,,,,,,,,,,,,,,,,,,,,,,,,,,,,,,,,,,,,,,,,,,,,,,,,,,,,,,,,952.2363,956.9893,1,1.7978,return,2.9392,,,,,,,,,,,,
,,,,,WIN24_017,20,female,2024-01-29_17h52.07.397,jersey_experiment_5,2023.2.2,Win32,84.74576271,,,,,,,,,,,,,,,,,,,,,,,,,,,,,,,,,,,,,,,,,,,,,,,,,,,,,,,,,,,,,,,,,,,,956.9893,999.9115,It seems like there were some of the same size back to back of different skin colors. Also it seems like there is some comparison between the size I said based on what I saw before. ,right,37.9874,,,,,,
,,,,,WIN24_017,20,female,2024-01-29_17h52.07.397,jersey_experiment_5,2023.2.2,Win32,84.74576271,,,,,,,,,,,,,,,,,,,,,,,,,,,,,,,,,,,,,,,,,,,,,,,,,,,,,,,,,,,,,,,,,,,,,,,,,,999.9115,1003.344,return,3.4235,