requirements.started,requirements.stopped,key_resp_3.keys,key_resp_3.rt,key_resp_3.duration,Subject ID,Age,Gender,date,expName,psychopyVersion,OS,frameRate,instructions1.started,instructions1.stopped,key_resp.keys,key_resp.rt,key_resp.duration,example.started,example.stopped,enter_2.keys,enter_2.rt,enter_2.duration,instructions2.started,instructions2.stopped,enter_3.keys,enter_3.rt,enter_3.duration,image.started,image.stopped,slider_2.started,slider_2.stopped,next.keys,next.rt,next.duration,slider.response,trial_block_1.thisRepN,trial_block_1.thisTrialN,trial_block_1.thisN,trial_block_1.thisIndex,trial_block_1.ran,Path,Width,Height,Index,Duration,trial_block_2.thisRepN,trial_block_2.thisTrialN,trial_block_2.thisN,trial_block_2.thisIndex,trial_block_2.ran,rest_break.started,rest_break.stopped,end_break.started,end_break.stopped,key_resp_5.keys,key_resp_5.rt,key_resp_5.duration,trial_block_3.thisRepN,trial_block_3.thisTrialN,trial_block_3.thisN,trial_block_3.thisIndex,trial_block_3.ran,trial_block_4.thisRepN,trial_block_4.thisTrialN,trial_block_4.thisN,trial_block_4.thisIndex,trial_block_4.ran,questions_intro.started,questions_intro.stopped,enter_12.keys,enter_12.rt,enter_12.duration,question2.started,question2.stopped,question_doingbest.response,question_doingbest.rt,enter_15.keys,enter_15.rt,enter_15.duration,pattern.started,pattern.stopped,pattern_2.text,enter_17.keys,enter_17.rt,enter_17.duration,thankyou.started,thankyou.stopped,enter_14.keys,enter_14.rt,enter_14.duration
0.0001,8.4023,return,8.3956,,WIN24_024,19,Female,2024-01-31_14h28.10.823,jersey_experiment_5,2023.2.2,Win32,84.03361345,,,,,,,,,,,,,,,,,,,,,,,,,,,,,,,,,,,,,,,,,,,,,,,,,,,,,,,,,,,,,,,,,,,,,,,,,,,,,,
,,,,,WIN24_024,19,Female,2024-01-31_14h28.10.823,jersey_experiment_5,2023.2.2,Win32,84.03361345,8.4023,15.9811,return,7.5663,,,,,,,,,,,,,,,,,,,,,,,,,,,,,,,,,,,,,,,,,,,,,,,,,,,,,,,,,,,,,,,,,,,,,,,,,,
,,,,,WIN24_024,19,Female,2024-01-31_14h28.10.823,jersey_experiment_5,2023.2.2,Win32,84.03361345,,,,,,15.9812,18.9224,return,2.8997,,,,,,,,,,,,,,,,,,,,,,,,,,,,,,,,,,,,,,,,,,,,,,,,,,,,,,,,,,,,,,,,,,,,,
,,,,,WIN24_024,19,Female,2024-01-31_14h28.10.823,jersey_experiment_5,2023.2.2,Win32,84.03361345,,,,,,,,,,,18.9224,43.8528,return,24.9185,,,,,,,,,,,,,,,,,,,,,,,,,,,,,,,,,,,,,,,,,,,,,,,,,,,,,,,,,,,,,,,,
,,,,,WIN24_024,19,Female,2024-01-31_14h28.10.823,jersey_experiment_5,2023.2.2,Win32,84.03361345,,,,,,,,,,,,,,,,43.8601,45.6526,45.6527,55.6767,return,2.0009,,55.98958333,0,0,0,40,1,FBP-YG-91.png,0.35,1.2,41,1,,,,,,,,,,,,,,,,,,,,,,,,,,,,,,,,,,,,,,,,,,,,,
,,,,,WIN24_024,19,Female,2024-01-31_14h28.10.823,jersey_experiment_5,2023.2.2,Win32,84.03361345,,,,,,,,,,,,,,,,55.6769,56.9705,56.9706,59.5824,return,0.518,,68.22916667,0,1,1,53,1,FBP-PT-18.png,0.43,1.2,54,0.5,,,,,,,,,,,,,,,,,,,,,,,,,,,,,,,,,,,,,,,,,,,,,
,,,,,WIN24_024,19,Female,2024-01-31_14h28.10.823,jersey_experiment_5,2023.2.2,Win32,84.03361345,,,,,,,,,,,,,,,,59.5827,61.3826,61.3826,63.8884,return,0.5889,,25.13020833,0,2,2,15,1,FBP-RB-17.png,0.35,1.2,16,1,,,,,,,,,,,,,,,,,,,,,,,,,,,,,,,,,,,,,,,,,,,,,
,,,,,WIN24_024,19,Female,2024-01-31_14h28.10.823,jersey_experiment_5,2023.2.2,Win32,84.03361345,,,,,,,,,,,,,,,,63.8888,65.6883,65.6884,69.2415,return,0.8754,,47.00520833,0,3,3,36,1,FBP-YG-81.png,0.37,1.2,37,1,,,,,,,,,,,,,,,,,,,,,,,,,,,,,,,,,,,,,,,,,,,,,
,,,,,WIN24_024,19,Female,2024-01-31_14h28.10.823,jersey_experiment_5,2023.2.2,Win32,84.03361345,,,,,,,,,,,,,,,,69.2418,71.0416,71.0416,73.4299,return,1.2787,,64.0625,0,4,4,32,1,FBP-YG-71.png,0.4,1.2,33,1,,,,,,,,,,,,,,,,,,,,,,,,,,,,,,,,,,,,,,,,,,,,,
,,,,,WIN24_024,19,Female,2024-01-31_14h28.10.823,jersey_experiment_5,2023.2.2,Win32,84.03361345,,,,,,,,,,,,,,,,73.4301,75.2301,75.2301,82.2302,return,0.6899,,39.32291667,0,5,5,35,1,FBP-YG-81.png,0.35,1.2,36,1,,,,,,,,,,,,,,,,,,,,,,,,,,,,,,,,,,,,,,,,,,,,,
,,,,,WIN24_024,19,Female,2024-01-31_14h28.10.823,jersey_experiment_5,2023.2.2,Win32,84.03361345,,,,,,,,,,,,,,,,82.2304,83.5244,83.5244,85.642,return,0.6258,,94.27083333,0,6,6,49,1,FBP-PT-17.png,0.45,1.2,50,0.5,,,,,,,,,,,,,,,,,,,,,,,,,,,,,,,,,,,,,,,,,,,,,
,,,,,WIN24_024,19,Female,2024-01-31_14h28.10.823,jersey_experiment_5,2023.2.2,Win32,84.03361345,,,,,,,,,,,,,,,,85.6422,87.4423,87.4424,90.6306,return,0.5251,,40.49479167,0,7,7,42,1,FBP-YG-91.png,0.4,1.2,43,1,,,,,,,,,,,,,,,,,,,,,,,,,,,,,,,,,,,,,,,,,,,,,
,,,,,WIN24_024,19,Female,2024-01-31_14h28.10.823,jersey_experiment_5,2023.2.2,Win32,84.03361345,,,,,,,,,,,,,,,,90.6307,92.4306,92.4306,95.3248,return,0.4236,,50,0,8,8,30,1,FBP-YG-71.png,0.35,1.2,31,1,,,,,,,,,,,,,,,,,,,,,,,,,,,,,,,,,,,,,,,,,,,,,
,,,,,WIN24_024,19,Female,2024-01-31_14h28.10.823,jersey_experiment_5,2023.2.2,Win32,84.03361345,,,,,,,,,,,,,,,,95.3249,97.1247,97.1247,100.3133,return,0.6282,,80.59895833,0,9,9,44,1,FBP-YG-91.png,0.45,1.2,45,1,,,,,,,,,,,,,,,,,,,,,,,,,,,,,,,,,,,,,,,,,,,,,
,,,,,WIN24_024,19,Female,2024-01-31_14h28.10.823,jersey_experiment_5,2023.2.2,Win32,84.03361345,,,,,,,,,,,,,,,,100.3135,101.6076,101.6076,103.1604,return,0.7232,,49.86979167,0,10,10,1,1,FBP-OG-71.png,0.37,1.2,2,0.5,,,,,,,,,,,,,,,,,,,,,,,,,,,,,,,,,,,,,,,,,,,,,
,,,,,WIN24_024,19,Female,2024-01-31_14h28.10.823,jersey_experiment_5,2023.2.2,Win32,84.03361345,,,,,,,,,,,,,,,,103.1607,104.9605,104.9605,107.1017,return,0.3299,,46.09375,0,11,11,26,1,FBP-RB-19.png,0.37,1.2,27,1,,,,,,,,,,,,,,,,,,,,,,,,,,,,,,,,,,,,,,,,,,,,,
,,,,,WIN24_024,19,Female,2024-01-31_14h28.10.823,jersey_experiment_5,2023.2.2,Win32,84.03361345,,,,,,,,,,,,,,,,107.1019,108.9019,108.9019,112.443,return,0.4031,,66.92708333,0,12,12,28,1,FBP-RB-19.png,0.43,1.2,29,1,,,,,,,,,,,,,,,,,,,,,,,,,,,,,,,,,,,,,,,,,,,,,
,,,,,WIN24_024,19,Female,2024-01-31_14h28.10.823,jersey_experiment_5,2023.2.2,Win32,84.03361345,,,,,,,,,,,,,,,,112.4433,113.7372,113.7372,115.2315,return,0.5178,,38.41145833,0,13,13,55,1,FBP-PT-19.png,0.35,1.2,56,0.5,,,,,,,,,,,,,,,,,,,,,,,,,,,,,,,,,,,,,,,,,,,,,
,,,,,WIN24_024,19,Female,2024-01-31_14h28.10.823,jersey_experiment_5,2023.2.2,Win32,84.03361345,,,,,,,,,,,,,,,,115.2318,116.5256,116.5256,118.7022,return,0.4566,,25,0,14,14,6,1,FBP-OG-81.png,0.37,1.2,7,0.5,,,,,,,,,,,,,,,,,,,,,,,,,,,,,,,,,,,,,,,,,,,,,
,,,,,WIN24_024,19,Female,2024-01-31_14h28.10.823,jersey_experiment_5,2023.2.2,Win32,84.03361345,,,,,,,,,,,,,,,,118.7023,119.9963,119.9963,125.2553,return,2.7716,,74.47916667,0,15,15,14,1,FBP-OG-91.png,0.45,1.2,15,0.5,,,,,,,,,,,,,,,,,,,,,,,,,,,,,,,,,,,,,,,,,,,,,
,,,,,WIN24_024,19,Female,2024-01-31_14h28.10.823,jersey_experiment_5,2023.2.2,Win32,84.03361345,,,,,,,,,,,,,,,,125.2555,126.5495,126.5495,133.2556,return,2.395,,45.44270833,0,16,16,7,1,FBP-OG-81.png,0.4,1.2,8,0.5,,,,,,,,,,,,,,,,,,,,,,,,,,,,,,,,,,,,,,,,,,,,,
,,,,,WIN24_024,19,Female,2024-01-31_14h28.10.823,jersey_experiment_5,2023.2.2,Win32,84.03361345,,,,,,,,,,,,,,,,133.2559,134.5498,134.5498,136.3732,return,0.5499,,22.78645833,0,17,17,10,1,FBP-OG-91.png,0.35,1.2,11,0.5,,,,,,,,,,,,,,,,,,,,,,,,,,,,,,,,,,,,,,,,,,,,,
,,,,,WIN24_024,19,Female,2024-01-31_14h28.10.823,jersey_experiment_5,2023.2.2,Win32,84.03361345,,,,,,,,,,,,,,,,136.3733,137.6674,137.6674,139.7499,return,0.5712,,49.86979167,0,18,18,47,1,FBP-PT-17.png,0.4,1.2,48,0.5,,,,,,,,,,,,,,,,,,,,,,,,,,,,,,,,,,,,,,,,,,,,,
,,,,,WIN24_024,19,Female,2024-01-31_14h28.10.823,jersey_experiment_5,2023.2.2,Win32,84.03361345,,,,,,,,,,,,,,,,139.7501,141.0441,141.0441,143.1971,return,0.9049,,37.109375,0,19,19,51,1,FBP-PT-18.png,0.37,1.2,52,0.5,,,,,,,,,,,,,,,,,,,,,,,,,,,,,,,,,,,,,,,,,,,,,
,,,,,WIN24_024,19,Female,2024-01-31_14h28.10.823,jersey_experiment_5,2023.2.2,Win32,84.03361345,,,,,,,,,,,,,,,,143.1972,144.9974,144.9974,147.2561,return,0.5451,,68.75,0,20,20,38,1,FBP-YG-81.png,0.43,1.2,39,1,,,,,,,,,,,,,,,,,,,,,,,,,,,,,,,,,,,,,,,,,,,,,
,,,,,WIN24_024,19,Female,2024-01-31_14h28.10.823,jersey_experiment_5,2023.2.2,Win32,84.03361345,,,,,,,,,,,,,,,,147.2564,148.5503,148.5503,155.774,return,2.5884,,74.73958333,0,21,21,48,1,FBP-PT-17.png,0.43,1.2,49,0.5,,,,,,,,,,,,,,,,,,,,,,,,,,,,,,,,,,,,,,,,,,,,,
,,,,,WIN24_024,19,Female,2024-01-31_14h28.10.823,jersey_experiment_5,2023.2.2,Win32,84.03361345,,,,,,,,,,,,,,,,155.7742,157.0682,157.0682,159.4329,return,0.6032,,77.21354167,0,22,22,13,1,FBP-OG-91.png,0.43,1.2,14,0.5,,,,,,,,,,,,,,,,,,,,,,,,,,,,,,,,,,,,,,,,,,,,,
,,,,,WIN24_024,19,Female,2024-01-31_14h28.10.823,jersey_experiment_5,2023.2.2,Win32,84.03361345,,,,,,,,,,,,,,,,159.4331,160.727,160.7271,163.1037,return,0.5413,,24.86979167,0,23,23,11,1,FBP-OG-91.png,0.37,1.2,12,0.5,,,,,,,,,,,,,,,,,,,,,,,,,,,,,,,,,,,,,,,,,,,,,
,,,,,WIN24_024,19,Female,2024-01-31_14h28.10.823,jersey_experiment_5,2023.2.2,Win32,84.03361345,,,,,,,,,,,,,,,,163.1038,164.9038,164.9038,167.7038,return,0.4986,,56.640625,0,24,24,43,1,FBP-YG-91.png,0.43,1.2,44,1,,,,,,,,,,,,,,,,,,,,,,,,,,,,,,,,,,,,,,,,,,,,,
,,,,,WIN24_024,19,Female,2024-01-31_14h28.10.823,jersey_experiment_5,2023.2.2,Win32,84.03361345,,,,,,,,,,,,,,,,167.704,168.998,168.998,170.857,return,0.3934,,67.31770833,0,25,25,58,1,FBP-PT-19.png,0.43,1.2,59,0.5,,,,,,,,,,,,,,,,,,,,,,,,,,,,,,,,,,,,,,,,,,,,,
,,,,,WIN24_024,19,Female,2024-01-31_14h28.10.823,jersey_experiment_5,2023.2.2,Win32,84.03361345,,,,,,,,,,,,,,,,170.8571,172.1512,172.1512,178.1395,return,3.3065,,25,0,26,26,45,1,FBP-PT-17.png,0.35,1.2,46,0.5,,,,,,,,,,,,,,,,,,,,,,,,,,,,,,,,,,,,,,,,,,,,,
,,,,,WIN24_024,19,Female,2024-01-31_14h28.10.823,jersey_experiment_5,2023.2.2,Win32,84.03361345,,,,,,,,,,,,,,,,178.1397,179.9395,179.9396,186.9045,return,0.5687,,50.26041667,0,27,27,41,1,FBP-YG-91.png,0.37,1.2,42,1,,,,,,,,,,,,,,,,,,,,,,,,,,,,,,,,,,,,,,,,,,,,,
,,,,,WIN24_024,19,Female,2024-01-31_14h28.10.823,jersey_experiment_5,2023.2.2,Win32,84.03361345,,,,,,,,,,,,,,,,186.9049,188.1987,188.1987,189.9751,return,0.3695,,74.08854167,0,28,28,4,1,FBP-OG-71.png,0.45,1.2,5,0.5,,,,,,,,,,,,,,,,,,,,,,,,,,,,,,,,,,,,,,,,,,,,,
,,,,,WIN24_024,19,Female,2024-01-31_14h28.10.823,jersey_experiment_5,2023.2.2,Win32,84.03361345,,,,,,,,,,,,,,,,189.9754,191.2694,191.2694,192.9754,return,0.4479,,39.58333333,0,29,29,0,1,FBP-OG-71.png,0.35,1.2,1,0.5,,,,,,,,,,,,,,,,,,,,,,,,,,,,,,,,,,,,,,,,,,,,,
,,,,,WIN24_024,19,Female,2024-01-31_14h28.10.823,jersey_experiment_5,2023.2.2,Win32,84.03361345,,,,,,,,,,,,,,,,192.9755,194.7755,194.7755,195.7049,return,0.3464,,28.64583333,0,30,30,21,1,FBP-RB-18.png,0.37,1.2,22,1,,,,,,,,,,,,,,,,,,,,,,,,,,,,,,,,,,,,,,,,,,,,,
,,,,,WIN24_024,19,Female,2024-01-31_14h28.10.823,jersey_experiment_5,2023.2.2,Win32,84.03361345,,,,,,,,,,,,,,,,195.7051,196.999,196.999,198.5872,return,0.3556,,37.76041667,0,31,31,2,1,FBP-OG-71.png,0.4,1.2,3,0.5,,,,,,,,,,,,,,,,,,,,,,,,,,,,,,,,,,,,,,,,,,,,,
,,,,,WIN24_024,19,Female,2024-01-31_14h28.10.823,jersey_experiment_5,2023.2.2,Win32,84.03361345,,,,,,,,,,,,,,,,198.5875,200.3875,200.3875,202.6698,return,0.2489,,74.86979167,0,32,32,33,1,FBP-YG-71.png,0.43,1.2,34,1,,,,,,,,,,,,,,,,,,,,,,,,,,,,,,,,,,,,,,,,,,,,,
,,,,,WIN24_024,19,Female,2024-01-31_14h28.10.823,jersey_experiment_5,2023.2.2,Win32,84.03361345,,,,,,,,,,,,,,,,202.6701,204.47,204.47,206.3288,return,0.462,,74.08854167,0,33,33,18,1,FBP-RB-17.png,0.43,1.2,19,1,,,,,,,,,,,,,,,,,,,,,,,,,,,,,,,,,,,,,,,,,,,,,
,,,,,WIN24_024,19,Female,2024-01-31_14h28.10.823,jersey_experiment_5,2023.2.2,Win32,84.03361345,,,,,,,,,,,,,,,,206.329,207.6229,207.6229,209.27,return,0.3244,,74.609375,0,34,34,52,1,FBP-PT-18.png,0.4,1.2,53,0.5,,,,,,,,,,,,,,,,,,,,,,,,,,,,,,,,,,,,,,,,,,,,,
,,,,,WIN24_024,19,Female,2024-01-31_14h28.10.823,jersey_experiment_5,2023.2.2,Win32,84.03361345,,,,,,,,,,,,,,,,209.2701,210.5642,210.5642,211.9173,return,0.3298,,86.84895833,0,35,35,8,1,FBP-OG-81.png,0.43,1.2,9,0.5,,,,,,,,,,,,,,,,,,,,,,,,,,,,,,,,,,,,,,,,,,,,,
,,,,,WIN24_024,19,Female,2024-01-31_14h28.10.823,jersey_experiment_5,2023.2.2,Win32,84.03361345,,,,,,,,,,,,,,,,211.9174,213.2113,213.2113,214.4114,return,0.4014,,99.21875,0,36,36,54,1,FBP-PT-18.png,0.45,1.2,55,0.5,,,,,,,,,,,,,,,,,,,,,,,,,,,,,,,,,,,,,,,,,,,,,
,,,,,WIN24_024,19,Female,2024-01-31_14h28.10.823,jersey_experiment_5,2023.2.2,Win32,84.03361345,,,,,,,,,,,,,,,,214.4116,216.2114,216.2114,217.529,return,0.3111,,99.08854167,0,37,37,24,1,FBP-RB-18.png,0.45,1.2,25,1,,,,,,,,,,,,,,,,,,,,,,,,,,,,,,,,,,,,,,,,,,,,,
,,,,,WIN24_024,19,Female,2024-01-31_14h28.10.823,jersey_experiment_5,2023.2.2,Win32,84.03361345,,,,,,,,,,,,,,,,217.5292,219.3292,219.3293,220.5528,return,0.5445,,98.30729167,0,38,38,19,1,FBP-RB-17.png,0.45,1.2,20,1,,,,,,,,,,,,,,,,,,,,,,,,,,,,,,,,,,,,,,,,,,,,,
,,,,,WIN24_024,19,Female,2024-01-31_14h28.10.823,jersey_experiment_5,2023.2.2,Win32,84.03361345,,,,,,,,,,,,,,,,220.553,221.847,221.847,224.4,return,1.0926,,63.41145833,0,39,39,57,1,FBP-PT-19.png,0.4,1.2,58,0.5,,,,,,,,,,,,,,,,,,,,,,,,,,,,,,,,,,,,,,,,,,,,,
,,,,,WIN24_024,19,Female,2024-01-31_14h28.10.823,jersey_experiment_5,2023.2.2,Win32,84.03361345,,,,,,,,,,,,,,,,224.4001,226.2003,226.2003,228.6237,return,0.6119,,25.390625,0,40,40,31,1,FBP-YG-71.png,0.37,1.2,32,1,,,,,,,,,,,,,,,,,,,,,,,,,,,,,,,,,,,,,,,,,,,,,
,,,,,WIN24_024,19,Female,2024-01-31_14h28.10.823,jersey_experiment_5,2023.2.2,Win32,84.03361345,,,,,,,,,,,,,,,,228.624,230.4238,230.4239,233.6944,return,1.1631,,99.86979167,0,41,41,34,1,FBP-YG-71.png,0.45,1.2,35,1,,,,,,,,,,,,,,,,,,,,,,,,,,,,,,,,,,,,,,,,,,,,,
,,,,,WIN24_024,19,Female,2024-01-31_14h28.10.823,jersey_experiment_5,2023.2.2,Win32,84.03361345,,,,,,,,,,,,,,,,233.6946,235.4946,235.4946,239.6005,return,0.6825,,99.21875,0,42,42,23,1,FBP-RB-18.png,0.43,1.2,24,1,,,,,,,,,,,,,,,,,,,,,,,,,,,,,,,,,,,,,,,,,,,,,
,,,,,WIN24_024,19,Female,2024-01-31_14h28.10.823,jersey_experiment_5,2023.2.2,Win32,84.03361345,,,,,,,,,,,,,,,,239.6007,240.8946,240.8947,245.1419,return,0.42,,25.78125,0,43,43,50,1,FBP-PT-18.png,0.35,1.2,51,0.5,,,,,,,,,,,,,,,,,,,,,,,,,,,,,,,,,,,,,,,,,,,,,
,,,,,WIN24_024,19,Female,2024-01-31_14h28.10.823,jersey_experiment_5,2023.2.2,Win32,84.03361345,,,,,,,,,,,,,,,,245.1422,246.942,246.942,248.7772,return,0.3213,,11.45833333,0,44,44,25,1,FBP-RB-19.png,0.35,1.2,26,1,,,,,,,,,,,,,,,,,,,,,,,,,,,,,,,,,,,,,,,,,,,,,
,,,,,WIN24_024,19,Female,2024-01-31_14h28.10.823,jersey_experiment_5,2023.2.2,Win32,84.03361345,,,,,,,,,,,,,,,,248.7774,250.5774,250.5774,252.6833,return,0.3557,,45.96354167,0,45,45,37,1,FBP-YG-81.png,0.4,1.2,38,1,,,,,,,,,,,,,,,,,,,,,,,,,,,,,,,,,,,,,,,,,,,,,
,,,,,WIN24_024,19,Female,2024-01-31_14h28.10.823,jersey_experiment_5,2023.2.2,Win32,84.03361345,,,,,,,,,,,,,,,,252.6834,253.9775,253.9775,256.5423,return,0.659,,75,0,46,46,9,1,FBP-OG-81.png,0.45,1.2,10,0.5,,,,,,,,,,,,,,,,,,,,,,,,,,,,,,,,,,,,,,,,,,,,,
,,,,,WIN24_024,19,Female,2024-01-31_14h28.10.823,jersey_experiment_5,2023.2.2,Win32,84.03361345,,,,,,,,,,,,,,,,256.5424,258.3424,258.3424,260.2836,return,0.4027,,88.80208333,0,47,47,39,1,FBP-YG-81.png,0.45,1.2,40,1,,,,,,,,,,,,,,,,,,,,,,,,,,,,,,,,,,,,,,,,,,,,,
,,,,,WIN24_024,19,Female,2024-01-31_14h28.10.823,jersey_experiment_5,2023.2.2,Win32,84.03361345,,,,,,,,,,,,,,,,260.2838,261.5778,261.5778,262.9896,return,0.4237,,75.390625,0,48,48,3,1,FBP-OG-71.png,0.43,1.2,4,0.5,,,,,,,,,,,,,,,,,,,,,,,,,,,,,,,,,,,,,,,,,,,,,
,,,,,WIN24_024,19,Female,2024-01-31_14h28.10.823,jersey_experiment_5,2023.2.2,Win32,84.03361345,,,,,,,,,,,,,,,,262.9898,264.7899,264.7899,266.9661,return,1.2649,,24.86979167,0,49,49,20,1,FBP-RB-18.png,0.35,1.2,21,1,,,,,,,,,,,,,,,,,,,,,,,,,,,,,,,,,,,,,,,,,,,,,
,,,,,WIN24_024,19,Female,2024-01-31_14h28.10.823,jersey_experiment_5,2023.2.2,Win32,84.03361345,,,,,,,,,,,,,,,,266.9663,268.2603,268.2603,269.5428,return,0.3349,,7.552083333,0,50,50,5,1,FBP-OG-81.png,0.35,1.2,6,0.5,,,,,,,,,,,,,,,,,,,,,,,,,,,,,,,,,,,,,,,,,,,,,
,,,,,WIN24_024,19,Female,2024-01-31_14h28.10.823,jersey_experiment_5,2023.2.2,Win32,84.03361345,,,,,,,,,,,,,,,,269.5431,271.3429,271.343,273.3076,return,0.4952,,99.73958333,0,51,51,29,1,FBP-RB-19.png,0.45,1.2,30,1,,,,,,,,,,,,,,,,,,,,,,,,,,,,,,,,,,,,,,,,,,,,,
,,,,,WIN24_024,19,Female,2024-01-31_14h28.10.823,jersey_experiment_5,2023.2.2,Win32,84.03361345,,,,,,,,,,,,,,,,273.3079,275.1076,275.1076,278.0961,return,0.6124,,99.47916667,0,52,52,17,1,FBP-RB-17.png,0.4,1.2,18,1,,,,,,,,,,,,,,,,,,,,,,,,,,,,,,,,,,,,,,,,,,,,,
,,,,,WIN24_024,19,Female,2024-01-31_14h28.10.823,jersey_experiment_5,2023.2.2,Win32,84.03361345,,,,,,,,,,,,,,,,278.0961,279.8961,279.8961,290.4963,return,0.6216,,99.47916667,0,53,53,22,1,FBP-RB-18.png,0.4,1.2,23,1,,,,,,,,,,,,,,,,,,,,,,,,,,,,,,,,,,,,,,,,,,,,,
,,,,,WIN24_024,19,Female,2024-01-31_14h28.10.823,jersey_experiment_5,2023.2.2,Win32,84.03361345,,,,,,,,,,,,,,,,290.4967,291.7905,291.7906,294.5201,return,1.6871,,99.609375,0,54,54,59,1,FBP-PT-19.png,0.45,1.2,60,0.5,,,,,,,,,,,,,,,,,,,,,,,,,,,,,,,,,,,,,,,,,,,,,
,,,,,WIN24_024,19,Female,2024-01-31_14h28.10.823,jersey_experiment_5,2023.2.2,Win32,84.03361345,,,,,,,,,,,,,,,,294.5204,296.3203,296.3203,297.4378,return,0.4473,,50.13020833,0,55,55,16,1,FBP-RB-17.png,0.37,1.2,17,1,,,,,,,,,,,,,,,,,,,,,,,,,,,,,,,,,,,,,,,,,,,,,
,,,,,WIN24_024,19,Female,2024-01-31_14h28.10.823,jersey_experiment_5,2023.2.2,Win32,84.03361345,,,,,,,,,,,,,,,,297.438,298.7319,298.7319,299.4143,return,0.266,,50.13020833,0,56,56,46,1,FBP-PT-17.png,0.37,1.2,47,0.5,,,,,,,,,,,,,,,,,,,,,,,,,,,,,,,,,,,,,,,,,,,,,
,,,,,WIN24_024,19,Female,2024-01-31_14h28.10.823,jersey_experiment_5,2023.2.2,Win32,84.03361345,,,,,,,,,,,,,,,,299.4147,300.7087,300.7087,302.1439,return,0.4815,,62.5,0,57,57,12,1,FBP-OG-91.png,0.4,1.2,13,0.5,,,,,,,,,,,,,,,,,,,,,,,,,,,,,,,,,,,,,,,,,,,,,
,,,,,WIN24_024,19,Female,2024-01-31_14h28.10.823,jersey_experiment_5,2023.2.2,Win32,84.03361345,,,,,,,,,,,,,,,,302.1441,303.438,303.438,304.7793,return,0.2476,,50,0,58,58,56,1,FBP-PT-19.png,0.37,1.2,57,0.5,,,,,,,,,,,,,,,,,,,,,,,,,,,,,,,,,,,,,,,,,,,,,
,,,,,WIN24_024,19,Female,2024-01-31_14h28.10.823,jersey_experiment_5,2023.2.2,Win32,84.03361345,,,,,,,,,,,,,,,,304.7794,306.5794,306.5794,307.7205,return,0.4291,,61.71875,0,59,59,27,1,FBP-RB-19.png,0.4,1.2,28,1,,,,,,,,,,,,,,,,,,,,,,,,,,,,,,,,,,,,,,,,,,,,,
,,,,,WIN24_024,19,Female,2024-01-31_14h28.10.823,jersey_experiment_5,2023.2.2,Win32,84.03361345,,,,,,,,,,,,,,,,307.7228,309.0147,309.0147,311.5678,return,1.1063,,50.26041667,,,,,,FBP-OG-19.png,0.4,1.2,13,0.5,0,0,0,12,1,,,,,,,,,,,,,,,,,,,,,,,,,,,,,,,,,,,,,,,,
,,,,,WIN24_024,19,Female,2024-01-31_14h28.10.823,jersey_experiment_5,2023.2.2,Win32,84.03361345,,,,,,,,,,,,,,,,311.5682,312.8619,312.8619,314.2032,return,0.2833,,61.328125,,,,,,FBP-PT-81.png,0.4,1.2,53,0.5,0,1,1,52,1,,,,,,,,,,,,,,,,,,,,,,,,,,,,,,,,,,,,,,,,
,,,,,WIN24_024,19,Female,2024-01-31_14h28.10.823,jersey_experiment_5,2023.2.2,Win32,84.03361345,,,,,,,,,,,,,,,,314.2035,315.4974,315.4974,316.7796,return,0.2953,,36.84895833,,,,,,FBP-PT-71.png,0.37,1.2,47,0.5,0,2,2,46,1,,,,,,,,,,,,,,,,,,,,,,,,,,,,,,,,,,,,,,,,
,,,,,WIN24_024,19,Female,2024-01-31_14h28.10.823,jersey_experiment_5,2023.2.2,Win32,84.03361345,,,,,,,,,,,,,,,,316.7798,318.0738,318.0738,319.1681,return,0.2601,,87.23958333,,,,,,FBP-PT-91.png,0.43,1.2,59,0.5,0,3,3,58,1,,,,,,,,,,,,,,,,,,,,,,,,,,,,,,,,,,,,,,,,
,,,,,WIN24_024,19,Female,2024-01-31_14h28.10.823,jersey_experiment_5,2023.2.2,Win32,84.03361345,,,,,,,,,,,,,,,,319.1682,320.9683,320.9683,322.074,return,0.4845,,99.08854167,,,,,,FBP-YG-19.png,0.45,1.2,45,1,0,4,4,44,1,,,,,,,,,,,,,,,,,,,,,,,,,,,,,,,,,,,,,,,,
,,,,,WIN24_024,19,Female,2024-01-31_14h28.10.823,jersey_experiment_5,2023.2.2,Win32,84.03361345,,,,,,,,,,,,,,,,322.0742,323.8743,323.8744,326.6507,return,2.1093,,12.76041667,,,,,,FBP-RB-91.png,0.35,1.2,26,1,0,5,5,25,1,,,,,,,,,,,,,,,,,,,,,,,,,,,,,,,,,,,,,,,,
,,,,,WIN24_024,19,Female,2024-01-31_14h28.10.823,jersey_experiment_5,2023.2.2,Win32,84.03361345,,,,,,,,,,,,,,,,326.651,328.4507,328.4507,330.4744,return,0.7801,,61.58854167,,,,,,FBP-RB-81.png,0.43,1.2,24,1,0,6,6,23,1,,,,,,,,,,,,,,,,,,,,,,,,,,,,,,,,,,,,,,,,
,,,,,WIN24_024,19,Female,2024-01-31_14h28.10.823,jersey_experiment_5,2023.2.2,Win32,84.03361345,,,,,,,,,,,,,,,,330.4745,332.2746,332.2746,333.5686,return,0.3289,,75.13020833,,,,,,FBP-RB-81.png,0.45,1.2,25,1,0,7,7,24,1,,,,,,,,,,,,,,,,,,,,,,,,,,,,,,,,,,,,,,,,
,,,,,WIN24_024,19,Female,2024-01-31_14h28.10.823,jersey_experiment_5,2023.2.2,Win32,84.03361345,,,,,,,,,,,,,,,,333.5688,335.3686,335.3687,337.051,return,0.4713,,85.67708333,,,,,,FBP-RB-71.png,0.43,1.2,19,1,0,8,8,18,1,,,,,,,,,,,,,,,,,,,,,,,,,,,,,,,,,,,,,,,,
,,,,,WIN24_024,19,Female,2024-01-31_14h28.10.823,jersey_experiment_5,2023.2.2,Win32,84.03361345,,,,,,,,,,,,,,,,337.0512,338.8512,338.8512,343.3924,return,1.7413,,24.73958333,,,,,,FBP-YG-19.png,0.37,1.2,42,1,0,9,9,41,1,,,,,,,,,,,,,,,,,,,,,,,,,,,,,,,,,,,,,,,,
,,,,,WIN24_024,19,Female,2024-01-31_14h28.10.823,jersey_experiment_5,2023.2.2,Win32,84.03361345,,,,,,,,,,,,,,,,343.3926,345.1925,345.1925,346.875,return,0.2724,,11.58854167,,,,,,FBP-YG-19.png,0.35,1.2,41,1,0,10,10,40,1,,,,,,,,,,,,,,,,,,,,,,,,,,,,,,,,,,,,,,,,
,,,,,WIN24_024,19,Female,2024-01-31_14h28.10.823,jersey_experiment_5,2023.2.2,Win32,84.03361345,,,,,,,,,,,,,,,,346.8751,348.6752,348.6752,350.1926,return,0.5411,,50.52083333,,,,,,FBP-RB-91.png,0.4,1.2,28,1,0,11,11,27,1,,,,,,,,,,,,,,,,,,,,,,,,,,,,,,,,,,,,,,,,
,,,,,WIN24_024,19,Female,2024-01-31_14h28.10.823,jersey_experiment_5,2023.2.2,Win32,84.03361345,,,,,,,,,,,,,,,,350.1929,351.9929,351.9929,353.2398,return,0.5461,,74.08854167,,,,,,FBP-RB-91.png,0.45,1.2,30,1,0,12,12,29,1,,,,,,,,,,,,,,,,,,,,,,,,,,,,,,,,,,,,,,,,
,,,,,WIN24_024,19,Female,2024-01-31_14h28.10.823,jersey_experiment_5,2023.2.2,Win32,84.03361345,,,,,,,,,,,,,,,,353.2401,354.5341,354.5341,356.0163,return,0.5657,,25,,,,,,FBP-OG-17.png,0.4,1.2,3,0.5,0,13,13,2,1,,,,,,,,,,,,,,,,,,,,,,,,,,,,,,,,,,,,,,,,
,,,,,WIN24_024,19,Female,2024-01-31_14h28.10.823,jersey_experiment_5,2023.2.2,Win32,84.03361345,,,,,,,,,,,,,,,,356.0166,357.3107,357.3107,358.734,return,0.3058,,11.71875,,,,,,FBP-PT-81.png,0.37,1.2,52,0.5,0,14,14,51,1,,,,,,,,,,,,,,,,,,,,,,,,,,,,,,,,,,,,,,,,
,,,,,WIN24_024,19,Female,2024-01-31_14h28.10.823,jersey_experiment_5,2023.2.2,Win32,84.03361345,,,,,,,,,,,,,,,,358.7342,360.0285,360.0285,361.546,return,0.8863,,0,,,,,,FBP-PT-81.png,0.35,1.2,51,0.5,0,15,15,50,1,,,,,,,,,,,,,,,,,,,,,,,,,,,,,,,,,,,,,,,,
,,,,,WIN24_024,19,Female,2024-01-31_14h28.10.823,jersey_experiment_5,2023.2.2,Win32,84.03361345,,,,,,,,,,,,,,,,361.5463,363.346,363.346,373.0406,return,2.5883,,4.6875,,,,,,FBP-RB-71.png,0.37,1.2,17,1,0,16,16,16,1,,,,,,,,,,,,,,,,,,,,,,,,,,,,,,,,,,,,,,,,
,,,,,WIN24_024,19,Female,2024-01-31_14h28.10.823,jersey_experiment_5,2023.2.2,Win32,84.03361345,,,,,,,,,,,,,,,,373.0408,374.8407,374.8408,376.9348,return,1.3601,,35.15625,,,,,,FBP-YG-18.png,0.4,1.2,38,1,0,17,17,37,1,,,,,,,,,,,,,,,,,,,,,,,,,,,,,,,,,,,,,,,,
,,,,,WIN24_024,19,Female,2024-01-31_14h28.10.823,jersey_experiment_5,2023.2.2,Win32,84.03361345,,,,,,,,,,,,,,,,376.935,378.7349,378.7349,380.029,return,0.4813,,0.651041667,,,,,,FBP-RB-71.png,0.35,1.2,16,1,0,18,18,15,1,,,,,,,,,,,,,,,,,,,,,,,,,,,,,,,,,,,,,,,,
,,,,,WIN24_024,19,Female,2024-01-31_14h28.10.823,jersey_experiment_5,2023.2.2,Win32,84.03361345,,,,,,,,,,,,,,,,380.0292,381.3232,381.3232,383.8526,return,0.8475,,23.4375,,,,,,FBP-OG-18.png,0.35,1.2,6,0.5,0,19,19,5,1,,,,,,,,,,,,,,,,,,,,,,,,,,,,,,,,,,,,,,,,
,,,,,WIN24_024,19,Female,2024-01-31_14h28.10.823,jersey_experiment_5,2023.2.2,Win32,84.03361345,,,,,,,,,,,,,,,,383.8528,385.1467,385.1468,387.7352,return,0.4986,,36.58854167,,,,,,FBP-OG-17.png,0.35,1.2,1,0.5,0,20,20,0,1,,,,,,,,,,,,,,,,,,,,,,,,,,,,,,,,,,,,,,,,
,,,,,WIN24_024,19,Female,2024-01-31_14h28.10.823,jersey_experiment_5,2023.2.2,Win32,84.03361345,,,,,,,,,,,,,,,,387.7355,389.0294,389.0294,391.053,return,0.7061,,75.26041667,,,,,,FBP-PT-91.png,0.45,1.2,60,0.5,0,21,21,59,1,,,,,,,,,,,,,,,,,,,,,,,,,,,,,,,,,,,,,,,,
,,,,,WIN24_024,19,Female,2024-01-31_14h28.10.823,jersey_experiment_5,2023.2.2,Win32,84.03361345,,,,,,,,,,,,,,,,391.0532,392.853,392.8531,396.6884,return,1.2706,,75,,,,,,FBP-YG-17.png,0.4,1.2,33,1,0,22,22,32,1,,,,,,,,,,,,,,,,,,,,,,,,,,,,,,,,,,,,,,,,
,,,,,WIN24_024,19,Female,2024-01-31_14h28.10.823,jersey_experiment_5,2023.2.2,Win32,84.03361345,,,,,,,,,,,,,,,,396.6886,397.9826,397.9826,400.8416,return,1.0379,,23.56770833,,,,,,FBP-OG-17.png,0.37,1.2,2,0.5,0,23,23,1,1,,,,,,,,,,,,,,,,,,,,,,,,,,,,,,,,,,,,,,,,
,,,,,WIN24_024,19,Female,2024-01-31_14h28.10.823,jersey_experiment_5,2023.2.2,Win32,84.03361345,,,,,,,,,,,,,,,,400.8419,402.6415,402.6415,409.03,return,0.3362,,66.14583333,,,,,,FBP-RB-91.png,0.43,1.2,29,1,0,24,24,28,1,,,,,,,,,,,,,,,,,,,,,,,,,,,,,,,,,,,,,,,,
,,,,,WIN24_024,19,Female,2024-01-31_14h28.10.823,jersey_experiment_5,2023.2.2,Win32,84.03361345,,,,,,,,,,,,,,,,409.0302,410.8301,410.8302,411.8538,return,0.3904,,75.13020833,,,,,,FBP-YG-19.png,0.4,1.2,43,1,0,25,25,42,1,,,,,,,,,,,,,,,,,,,,,,,,,,,,,,,,,,,,,,,,
,,,,,WIN24_024,19,Female,2024-01-31_14h28.10.823,jersey_experiment_5,2023.2.2,Win32,84.03361345,,,,,,,,,,,,,,,,411.8539,413.6537,413.6537,415.4772,return,0.642,,24.86979167,,,,,,FBP-YG-17.png,0.37,1.2,32,1,0,26,26,31,1,,,,,,,,,,,,,,,,,,,,,,,,,,,,,,,,,,,,,,,,
,,,,,WIN24_024,19,Female,2024-01-31_14h28.10.823,jersey_experiment_5,2023.2.2,Win32,84.03361345,,,,,,,,,,,,,,,,415.4776,417.2774,417.2774,418.0893,return,0.3794,,24.73958333,,,,,,FBP-RB-81.png,0.35,1.2,21,1,0,27,27,20,1,,,,,,,,,,,,,,,,,,,,,,,,,,,,,,,,,,,,,,,,
,,,,,WIN24_024,19,Female,2024-01-31_14h28.10.823,jersey_experiment_5,2023.2.2,Win32,84.03361345,,,,,,,,,,,,,,,,418.0895,419.8892,419.8892,420.854,return,0.3471,,12.890625,,,,,,FBP-YG-18.png,0.35,1.2,36,1,0,28,28,35,1,,,,,,,,,,,,,,,,,,,,,,,,,,,,,,,,,,,,,,,,
,,,,,WIN24_024,19,Female,2024-01-31_14h28.10.823,jersey_experiment_5,2023.2.2,Win32,84.03361345,,,,,,,,,,,,,,,,420.8542,422.148,422.148,424.3012,return,0.5884,,80.078125,,,,,,FBP-PT-71.png,0.45,1.2,50,0.5,0,29,29,49,1,,,,,,,,,,,,,,,,,,,,,,,,,,,,,,,,,,,,,,,,
,,,,,WIN24_024,19,Female,2024-01-31_14h28.10.823,jersey_experiment_5,2023.2.2,Win32,84.03361345,,,,,,,,,,,,,,,,424.3014,426.1013,426.1013,429.2308,return,0.3633,,25.65104167,,,,,,FBP-RB-91.png,0.37,1.2,27,1,0,30,30,26,1,,,,,,,,,,,,,,,,,,,,,,,,,,,,,,,,,,,,,,,,
,,,,,WIN24_024,19,Female,2024-01-31_14h28.10.823,jersey_experiment_5,2023.2.2,Win32,84.03361345,,,,,,,,,,,,,,,,429.231,430.5249,430.5249,431.8545,return,0.2824,,36.19791667,,,,,,FBP-OG-18.png,0.37,1.2,7,0.5,0,31,31,6,1,,,,,,,,,,,,,,,,,,,,,,,,,,,,,,,,,,,,,,,,
,,,,,WIN24_024,19,Female,2024-01-31_14h28.10.823,jersey_experiment_5,2023.2.2,Win32,84.03361345,,,,,,,,,,,,,,,,431.8547,433.1486,433.1486,436.0074,return,1.3239,,60.02604167,,,,,,FBP-PT-81.png,0.43,1.2,54,0.5,0,32,32,53,1,,,,,,,,,,,,,,,,,,,,,,,,,,,,,,,,,,,,,,,,
,,,,,WIN24_024,19,Female,2024-01-31_14h28.10.823,jersey_experiment_5,2023.2.2,Win32,84.03361345,,,,,,,,,,,,,,,,436.0076,437.8077,437.8077,439.1251,return,0.4066,,25.13020833,,,,,,FBP-RB-81.png,0.37,1.2,22,1,0,33,33,21,1,,,,,,,,,,,,,,,,,,,,,,,,,,,,,,,,,,,,,,,,
,,,,,WIN24_024,19,Female,2024-01-31_14h28.10.823,jersey_experiment_5,2023.2.2,Win32,84.03361345,,,,,,,,,,,,,,,,439.1253,440.4195,440.4195,442.4077,return,0.5803,,88.15104167,,,,,,FBP-OG-19.png,0.43,1.2,14,0.5,0,34,34,13,1,,,,,,,,,,,,,,,,,,,,,,,,,,,,,,,,,,,,,,,,
,,,,,WIN24_024,19,Female,2024-01-31_14h28.10.823,jersey_experiment_5,2023.2.2,Win32,84.03361345,,,,,,,,,,,,,,,,442.408,443.7019,443.7019,445.7489,return,0.4793,,88.15104167,,,,,,FBP-OG-17.png,0.45,1.2,5,0.5,0,35,35,4,1,,,,,,,,,,,,,,,,,,,,,,,,,,,,,,,,,,,,,,,,
,,,,,WIN24_024,19,Female,2024-01-31_14h28.10.823,jersey_experiment_5,2023.2.2,Win32,84.03361345,,,,,,,,,,,,,,,,445.7491,447.5492,447.5492,450.055,return,0.4645,,99.08854167,,,,,,FBP-RB-71.png,0.45,1.2,20,1,0,36,36,19,1,,,,,,,,,,,,,,,,,,,,,,,,,,,,,,,,,,,,,,,,
,,,,,WIN24_024,19,Female,2024-01-31_14h28.10.823,jersey_experiment_5,2023.2.2,Win32,84.03361345,,,,,,,,,,,,,,,,450.0551,451.8552,451.8552,453.0669,return,0.4496,,99.86979167,,,,,,FBP-YG-17.png,0.43,1.2,34,1,0,37,37,33,1,,,,,,,,,,,,,,,,,,,,,,,,,,,,,,,,,,,,,,,,
,,,,,WIN24_024,19,Female,2024-01-31_14h28.10.823,jersey_experiment_5,2023.2.2,Win32,84.03361345,,,,,,,,,,,,,,,,453.0671,454.361,454.3611,456.6318,return,0.7097,,75.390625,,,,,,FBP-PT-71.png,0.35,1.2,46,0.5,0,38,38,45,1,,,,,,,,,,,,,,,,,,,,,,,,,,,,,,,,,,,,,,,,
,,,,,WIN24_024,19,Female,2024-01-31_14h28.10.823,jersey_experiment_5,2023.2.2,Win32,84.03361345,,,,,,,,,,,,,,,,456.632,457.9259,457.926,460.2201,return,0.6233,,24.21875,,,,,,FBP-PT-71.png,0.4,1.2,48,0.5,0,39,39,47,1,,,,,,,,,,,,,,,,,,,,,,,,,,,,,,,,,,,,,,,,
,,,,,WIN24_024,19,Female,2024-01-31_14h28.10.823,jersey_experiment_5,2023.2.2,Win32,84.03361345,,,,,,,,,,,,,,,,460.2203,462.0203,462.0203,463.7026,return,0.4406,,0.911458333,,,,,,FBP-YG-17.png,0.35,1.2,31,1,0,40,40,30,1,,,,,,,,,,,,,,,,,,,,,,,,,,,,,,,,,,,,,,,,
,,,,,WIN24_024,19,Female,2024-01-31_14h28.10.823,jersey_experiment_5,2023.2.2,Win32,84.03361345,,,,,,,,,,,,,,,,463.7027,464.9967,464.9968,466.5733,return,0.5515,,73.56770833,,,,,,FBP-OG-17.png,0.43,1.2,4,0.5,0,41,41,3,1,,,,,,,,,,,,,,,,,,,,,,,,,,,,,,,,,,,,,,,,
,,,,,WIN24_024,19,Female,2024-01-31_14h28.10.823,jersey_experiment_5,2023.2.2,Win32,84.03361345,,,,,,,,,,,,,,,,466.5734,468.3734,468.3734,470.2675,return,0.661,,98.95833333,,,,,,FBP-YG-18.png,0.43,1.2,39,1,0,42,42,38,1,,,,,,,,,,,,,,,,,,,,,,,,,,,,,,,,,,,,,,,,
,,,,,WIN24_024,19,Female,2024-01-31_14h28.10.823,jersey_experiment_5,2023.2.2,Win32,84.03361345,,,,,,,,,,,,,,,,470.2677,471.5617,471.5617,474.5264,return,0.918,,75.26041667,,,,,,FBP-OG-18.png,0.4,1.2,8,0.5,0,43,43,7,1,,,,,,,,,,,,,,,,,,,,,,,,,,,,,,,,,,,,,,,,
,,,,,WIN24_024,19,Female,2024-01-31_14h28.10.823,jersey_experiment_5,2023.2.2,Win32,84.03361345,,,,,,,,,,,,,,,,474.5267,475.8207,475.8207,478.4089,return,0.9462,,8.333333333,,,,,,FBP-PT-91.png,0.37,1.2,57,0.5,0,44,44,56,1,,,,,,,,,,,,,,,,,,,,,,,,,,,,,,,,,,,,,,,,
,,,,,WIN24_024,19,Female,2024-01-31_14h28.10.823,jersey_experiment_5,2023.2.2,Win32,84.03361345,,,,,,,,,,,,,,,,478.4091,479.7032,479.7032,481.6915,return,0.4002,,16.14583333,,,,,,FBP-OG-19.png,0.37,1.2,12,0.5,0,45,45,11,1,,,,,,,,,,,,,,,,,,,,,,,,,,,,,,,,,,,,,,,,
,,,,,WIN24_024,19,Female,2024-01-31_14h28.10.823,jersey_experiment_5,2023.2.2,Win32,84.03361345,,,,,,,,,,,,,,,,481.6917,482.9858,482.9858,484.7269,return,0.8286,,76.30208333,,,,,,FBP-OG-19.png,0.45,1.2,15,0.5,0,46,46,14,1,,,,,,,,,,,,,,,,,,,,,,,,,,,,,,,,,,,,,,,,
,,,,,WIN24_024,19,Female,2024-01-31_14h28.10.823,jersey_experiment_5,2023.2.2,Win32,84.03361345,,,,,,,,,,,,,,,,484.7271,486.0211,486.0211,487.9269,return,0.3948,,67.44791667,,,,,,FBP-OG-18.png,0.43,1.2,9,0.5,0,47,47,8,1,,,,,,,,,,,,,,,,,,,,,,,,,,,,,,,,,,,,,,,,
,,,,,WIN24_024,19,Female,2024-01-31_14h28.10.823,jersey_experiment_5,2023.2.2,Win32,84.03361345,,,,,,,,,,,,,,,,487.9271,489.727,489.727,491.1625,return,0.3326,,25,,,,,,FBP-RB-71.png,0.4,1.2,18,1,0,48,48,17,1,,,,,,,,,,,,,,,,,,,,,,,,,,,,,,,,,,,,,,,,
,,,,,WIN24_024,19,Female,2024-01-31_14h28.10.823,jersey_experiment_5,2023.2.2,Win32,84.03361345,,,,,,,,,,,,,,,,491.1627,492.4566,492.4566,495.3861,return,0.4015,,74.86979167,,,,,,FBP-PT-71.png,0.43,1.2,49,0.5,0,49,49,48,1,,,,,,,,,,,,,,,,,,,,,,,,,,,,,,,,,,,,,,,,
,,,,,WIN24_024,19,Female,2024-01-31_14h28.10.823,jersey_experiment_5,2023.2.2,Win32,84.03361345,,,,,,,,,,,,,,,,495.3864,497.1862,497.1862,499.0685,return,0.5049,,34.89583333,,,,,,FBP-RB-81.png,0.4,1.2,23,1,0,50,50,22,1,,,,,,,,,,,,,,,,,,,,,,,,,,,,,,,,,,,,,,,,
,,,,,WIN24_024,19,Female,2024-01-31_14h28.10.823,jersey_experiment_5,2023.2.2,Win32,84.03361345,,,,,,,,,,,,,,,,499.0688,500.3627,500.3627,501.904,return,0.6254,,16.66666667,,,,,,FBP-PT-91.png,0.35,1.2,56,0.5,0,51,51,55,1,,,,,,,,,,,,,,,,,,,,,,,,,,,,,,,,,,,,,,,,
,,,,,WIN24_024,19,Female,2024-01-31_14h28.10.823,jersey_experiment_5,2023.2.2,Win32,84.03361345,,,,,,,,,,,,,,,,501.9043,503.7042,503.7043,507.7041,return,2.3683,,99.609375,,,,,,FBP-YG-18.png,0.45,1.2,40,1,0,52,52,39,1,,,,,,,,,,,,,,,,,,,,,,,,,,,,,,,,,,,,,,,,
,,,,,WIN24_024,19,Female,2024-01-31_14h28.10.823,jersey_experiment_5,2023.2.2,Win32,84.03361345,,,,,,,,,,,,,,,,507.7044,509.5044,509.5044,513.6221,return,3.0412,,38.41145833,,,,,,FBP-YG-18.png,0.37,1.2,37,1,0,53,53,36,1,,,,,,,,,,,,,,,,,,,,,,,,,,,,,,,,,,,,,,,,
,,,,,WIN24_024,19,Female,2024-01-31_14h28.10.823,jersey_experiment_5,2023.2.2,Win32,84.03361345,,,,,,,,,,,,,,,,513.6223,514.9163,514.9163,519.3046,return,2.0994,,63.15104167,,,,,,FBP-PT-81.png,0.45,1.2,55,0.5,0,54,54,54,1,,,,,,,,,,,,,,,,,,,,,,,,,,,,,,,,,,,,,,,,
,,,,,WIN24_024,19,Female,2024-01-31_14h28.10.823,jersey_experiment_5,2023.2.2,Win32,84.03361345,,,,,,,,,,,,,,,,519.3048,521.1047,521.1048,523.1519,return,0.7671,,74.73958333,,,,,,FBP-YG-19.png,0.43,1.2,44,1,0,55,55,43,1,,,,,,,,,,,,,,,,,,,,,,,,,,,,,,,,,,,,,,,,
,,,,,WIN24_024,19,Female,2024-01-31_14h28.10.823,jersey_experiment_5,2023.2.2,Win32,84.03361345,,,,,,,,,,,,,,,,523.152,524.446,524.446,527.0225,return,0.4338,,24.47916667,,,,,,FBP-OG-19.png,0.35,1.2,11,0.5,0,56,56,10,1,,,,,,,,,,,,,,,,,,,,,,,,,,,,,,,,,,,,,,,,
,,,,,WIN24_024,19,Female,2024-01-31_14h28.10.823,jersey_experiment_5,2023.2.2,Win32,84.03361345,,,,,,,,,,,,,,,,527.0228,528.8228,528.8228,531.2579,return,1.392,,60.80729167,,,,,,FBP-YG-17.png,0.45,1.2,35,1,0,57,57,34,1,,,,,,,,,,,,,,,,,,,,,,,,,,,,,,,,,,,,,,,,
,,,,,WIN24_024,19,Female,2024-01-31_14h28.10.823,jersey_experiment_5,2023.2.2,Win32,84.03361345,,,,,,,,,,,,,,,,531.2583,532.5521,532.5521,534.3639,return,0.4586,,75.26041667,,,,,,FBP-PT-91.png,0.4,1.2,58,0.5,0,58,58,57,1,,,,,,,,,,,,,,,,,,,,,,,,,,,,,,,,,,,,,,,,
,,,,,WIN24_024,19,Female,2024-01-31_14h28.10.823,jersey_experiment_5,2023.2.2,Win32,84.03361345,,,,,,,,,,,,,,,,534.3642,535.6581,535.6582,537.2935,return,0.5316,,89.453125,,,,,,FBP-OG-18.png,0.45,1.2,10,0.5,0,59,59,9,1,,,,,,,,,,,,,,,,,,,,,,,,,,,,,,,,,,,,,,,,
,,,,,WIN24_024,19,Female,2024-01-31_14h28.10.823,jersey_experiment_5,2023.2.2,Win32,84.03361345,,,,,,,,,,,,,,,,,,,,,,,,,,,,,,,,,,,,,,,537.2939,657.298,,,,,,,,,,,,,,,,,,,,,,,,,,,,,,,,,,,,,,
,,,,,WIN24_024,19,Female,2024-01-31_14h28.10.823,jersey_experiment_5,2023.2.2,Win32,84.03361345,,,,,,,,,,,,,,,,,,,,,,,,,,,,,,,,,,,,,,,,,657.2981,659.898,return,2.5894,,,,,,,,,,,,,,,,,,,,,,,,,,,,,,,,,,
,,,,,WIN24_024,19,Female,2024-01-31_14h28.10.823,jersey_experiment_5,2023.2.2,Win32,84.03361345,,,,,,,,,,,,,,,,659.9043,661.698,661.698,666.1334,return,3.4182,,49.08854167,,,,,,FBP-PT-19.png,0.43,1.2,59,1,,,,,,,,,,,,,0,0,0,58,1,,,,,,,,,,,,,,,,,,,,,,,,,,,,
,,,,,WIN24_024,19,Female,2024-01-31_14h28.10.823,jersey_experiment_5,2023.2.2,Win32,84.03361345,,,,,,,,,,,,,,,,666.1379,667.4392,667.4392,668.9217,return,0.6393,,49.08854167,,,,,,FBP-RB-19.png,0.43,1.2,29,0.5,,,,,,,,,,,,,0,1,1,28,1,,,,,,,,,,,,,,,,,,,,,,,,,,,,
,,,,,WIN24_024,19,Female,2024-01-31_14h28.10.823,jersey_experiment_5,2023.2.2,Win32,84.03361345,,,,,,,,,,,,,,,,668.9219,670.7219,670.722,672.1336,return,0.5376,,50,,,,,,FBP-PT-18.png,0.4,1.2,53,1,,,,,,,,,,,,,0,2,2,52,1,,,,,,,,,,,,,,,,,,,,,,,,,,,,
,,,,,WIN24_024,19,Female,2024-01-31_14h28.10.823,jersey_experiment_5,2023.2.2,Win32,84.03361345,,,,,,,,,,,,,,,,672.1338,673.4278,673.4278,674.7926,return,0.5346,,62.36979167,,,,,,FBP-RB-19.png,0.45,1.2,30,0.5,,,,,,,,,,,,,0,3,3,29,1,,,,,,,,,,,,,,,,,,,,,,,,,,,,
,,,,,WIN24_024,19,Female,2024-01-31_14h28.10.823,jersey_experiment_5,2023.2.2,Win32,84.03361345,,,,,,,,,,,,,,,,674.7929,676.0867,676.0867,677.8986,return,0.4246,,49.47916667,,,,,,FBP-YG-91.png,0.4,1.2,43,0.5,,,,,,,,,,,,,0,4,4,42,1,,,,,,,,,,,,,,,,,,,,,,,,,,,,
,,,,,WIN24_024,19,Female,2024-01-31_14h28.10.823,jersey_experiment_5,2023.2.2,Win32,84.03361345,,,,,,,,,,,,,,,,677.8988,679.1927,679.1927,680.3104,return,0.3837,,36.97916667,,,,,,FBP-YG-91.png,0.37,1.2,42,0.5,,,,,,,,,,,,,0,5,5,41,1,,,,,,,,,,,,,,,,,,,,,,,,,,,,
,,,,,WIN24_024,19,Female,2024-01-31_14h28.10.823,jersey_experiment_5,2023.2.2,Win32,84.03361345,,,,,,,,,,,,,,,,680.3106,681.6044,681.6045,682.5105,return,0.5172,,36.97916667,,,,,,FBP-RB-18.png,0.37,1.2,22,0.5,,,,,,,,,,,,,0,6,6,21,1,,,,,,,,,,,,,,,,,,,,,,,,,,,,
,,,,,WIN24_024,19,Female,2024-01-31_14h28.10.823,jersey_experiment_5,2023.2.2,Win32,84.03361345,,,,,,,,,,,,,,,,682.5107,684.3103,684.3103,686.0283,return,0.7168,,75.65104167,,,,,,FBP-OG-81.png,0.45,1.2,10,1,,,,,,,,,,,,,0,7,7,9,1,,,,,,,,,,,,,,,,,,,,,,,,,,,,
,,,,,WIN24_024,19,Female,2024-01-31_14h28.10.823,jersey_experiment_5,2023.2.2,Win32,84.03361345,,,,,,,,,,,,,,,,686.0284,687.3224,687.3224,688.9812,return,0.538,,50.26041667,,,,,,FBP-YG-81.png,0.4,1.2,38,0.5,,,,,,,,,,,,,0,8,8,37,1,,,,,,,,,,,,,,,,,,,,,,,,,,,,
,,,,,WIN24_024,19,Female,2024-01-31_14h28.10.823,jersey_experiment_5,2023.2.2,Win32,84.03361345,,,,,,,,,,,,,,,,688.9815,690.7813,690.7813,692.3578,return,0.4879,,74.08854167,,,,,,FBP-PT-18.png,0.45,1.2,55,1,,,,,,,,,,,,,0,9,9,54,1,,,,,,,,,,,,,,,,,,,,,,,,,,,,
,,,,,WIN24_024,19,Female,2024-01-31_14h28.10.823,jersey_experiment_5,2023.2.2,Win32,84.03361345,,,,,,,,,,,,,,,,692.3581,694.158,694.158,696.2169,return,0.5697,,74.86979167,,,,,,FBP-PT-17.png,0.45,1.2,50,1,,,,,,,,,,,,,0,10,10,49,1,,,,,,,,,,,,,,,,,,,,,,,,,,,,
,,,,,WIN24_024,19,Female,2024-01-31_14h28.10.823,jersey_experiment_5,2023.2.2,Win32,84.03361345,,,,,,,,,,,,,,,,696.217,698.017,698.0171,699.3228,return,0.6146,,86.58854167,,,,,,FBP-OG-71.png,0.45,1.2,5,1,,,,,,,,,,,,,0,11,11,4,1,,,,,,,,,,,,,,,,,,,,,,,,,,,,
,,,,,WIN24_024,19,Female,2024-01-31_14h28.10.823,jersey_experiment_5,2023.2.2,Win32,84.03361345,,,,,,,,,,,,,,,,699.323,701.123,701.123,704.6995,return,2.6963,,49.86979167,,,,,,FBP-OG-91.png,0.4,1.2,13,1,,,,,,,,,,,,,0,12,12,12,1,,,,,,,,,,,,,,,,,,,,,,,,,,,,
,,,,,WIN24_024,19,Female,2024-01-31_14h28.10.823,jersey_experiment_5,2023.2.2,Win32,84.03361345,,,,,,,,,,,,,,,,704.6997,706.4996,706.4996,708.0289,return,0.7635,,24.86979167,,,,,,FBP-OG-81.png,0.35,1.2,6,1,,,,,,,,,,,,,0,13,13,5,1,,,,,,,,,,,,,,,,,,,,,,,,,,,,
,,,,,WIN24_024,19,Female,2024-01-31_14h28.10.823,jersey_experiment_5,2023.2.2,Win32,84.03361345,,,,,,,,,,,,,,,,708.029,709.8291,709.8291,710.6878,return,0.4002,,24.86979167,,,,,,FBP-OG-91.png,0.37,1.2,12,1,,,,,,,,,,,,,0,14,14,11,1,,,,,,,,,,,,,,,,,,,,,,,,,,,,
,,,,,WIN24_024,19,Female,2024-01-31_14h28.10.823,jersey_experiment_5,2023.2.2,Win32,84.03361345,,,,,,,,,,,,,,,,710.688,711.9821,711.9821,715.3116,return,0.7769,,64.58333333,,,,,,FBP-RB-18.png,0.4,1.2,23,0.5,,,,,,,,,,,,,0,15,15,22,1,,,,,,,,,,,,,,,,,,,,,,,,,,,,
,,,,,WIN24_024,19,Female,2024-01-31_14h28.10.823,jersey_experiment_5,2023.2.2,Win32,84.03361345,,,,,,,,,,,,,,,,715.3118,716.6058,716.6058,718.2294,return,0.2884,,25.13020833,,,,,,FBP-RB-18.png,0.35,1.2,21,0.5,,,,,,,,,,,,,0,16,16,20,1,,,,,,,,,,,,,,,,,,,,,,,,,,,,
,,,,,WIN24_024,19,Female,2024-01-31_14h28.10.823,jersey_experiment_5,2023.2.2,Win32,84.03361345,,,,,,,,,,,,,,,,718.2297,719.5237,719.5237,721.2529,return,0.4321,,74.47916667,,,,,,FBP-YG-71.png,0.43,1.2,34,0.5,,,,,,,,,,,,,0,17,17,33,1,,,,,,,,,,,,,,,,,,,,,,,,,,,,
,,,,,WIN24_024,19,Female,2024-01-31_14h28.10.823,jersey_experiment_5,2023.2.2,Win32,84.03361345,,,,,,,,,,,,,,,,721.2531,723.053,723.053,724.3119,return,0.6645,,86.71875,,,,,,FBP-OG-91.png,0.45,1.2,15,1,,,,,,,,,,,,,0,18,18,14,1,,,,,,,,,,,,,,,,,,,,,,,,,,,,
,,,,,WIN24_024,19,Female,2024-01-31_14h28.10.823,jersey_experiment_5,2023.2.2,Win32,84.03361345,,,,,,,,,,,,,,,,724.3122,726.1123,726.1123,727.4298,return,0.3961,,36.84895833,,,,,,FBP-OG-71.png,0.35,1.2,1,1,,,,,,,,,,,,,0,19,19,0,1,,,,,,,,,,,,,,,,,,,,,,,,,,,,
,,,,,WIN24_024,19,Female,2024-01-31_14h28.10.823,jersey_experiment_5,2023.2.2,Win32,84.03361345,,,,,,,,,,,,,,,,727.43,728.7239,728.7239,730.2297,return,0.3586,,75.13020833,,,,,,FBP-RB-19.png,0.4,1.2,28,0.5,,,,,,,,,,,,,0,20,20,27,1,,,,,,,,,,,,,,,,,,,,,,,,,,,,
,,,,,WIN24_024,19,Female,2024-01-31_14h28.10.823,jersey_experiment_5,2023.2.2,Win32,84.03361345,,,,,,,,,,,,,,,,730.23,732.03,732.03,733.3358,return,0.5695,,88.02083333,,,,,,FBP-OG-71.png,0.43,1.2,4,1,,,,,,,,,,,,,0,21,21,3,1,,,,,,,,,,,,,,,,,,,,,,,,,,,,
,,,,,WIN24_024,19,Female,2024-01-31_14h28.10.823,jersey_experiment_5,2023.2.2,Win32,84.03361345,,,,,,,,,,,,,,,,733.3361,735.136,735.136,737.0183,return,1.1329,,13.02083333,,,,,,FBP-OG-91.png,0.35,1.2,11,1,,,,,,,,,,,,,0,22,22,10,1,,,,,,,,,,,,,,,,,,,,,,,,,,,,
,,,,,WIN24_024,19,Female,2024-01-31_14h28.10.823,jersey_experiment_5,2023.2.2,Win32,84.03361345,,,,,,,,,,,,,,,,737.0185,738.3124,738.3124,740.336,return,0.6451,,86.71875,,,,,,FBP-YG-91.png,0.43,1.2,44,0.5,,,,,,,,,,,,,0,23,23,43,1,,,,,,,,,,,,,,,,,,,,,,,,,,,,
,,,,,WIN24_024,19,Female,2024-01-31_14h28.10.823,jersey_experiment_5,2023.2.2,Win32,84.03361345,,,,,,,,,,,,,,,,740.3362,742.1362,742.1362,745.0539,return,1.9067,,25.52083333,,,,,,FBP-PT-17.png,0.35,1.2,46,1,,,,,,,,,,,,,0,24,24,45,1,,,,,,,,,,,,,,,,,,,,,,,,,,,,
,,,,,WIN24_024,19,Female,2024-01-31_14h28.10.823,jersey_experiment_5,2023.2.2,Win32,84.03361345,,,,,,,,,,,,,,,,745.054,746.854,746.854,749.1482,return,1.0354,,88.41145833,,,,,,FBP-OG-91.png,0.43,1.2,14,1,,,,,,,,,,,,,0,25,25,13,1,,,,,,,,,,,,,,,,,,,,,,,,,,,,
,,,,,WIN24_024,19,Female,2024-01-31_14h28.10.823,jersey_experiment_5,2023.2.2,Win32,84.03361345,,,,,,,,,,,,,,,,749.1483,750.4424,750.4424,752.2071,return,0.6371,,25,,,,,,FBP-RB-17.png,0.4,1.2,18,0.5,,,,,,,,,,,,,0,26,26,17,1,,,,,,,,,,,,,,,,,,,,,,,,,,,,
,,,,,WIN24_024,19,Female,2024-01-31_14h28.10.823,jersey_experiment_5,2023.2.2,Win32,84.03361345,,,,,,,,,,,,,,,,752.2073,753.5013,753.5013,756.1837,return,1.5238,,74.86979167,,,,,,FBP-RB-17.png,0.43,1.2,19,0.5,,,,,,,,,,,,,0,27,27,18,1,,,,,,,,,,,,,,,,,,,,,,,,,,,,
,,,,,WIN24_024,19,Female,2024-01-31_14h28.10.823,jersey_experiment_5,2023.2.2,Win32,84.03361345,,,,,,,,,,,,,,,,756.184,757.4779,757.4779,759.9015,return,0.6359,,25.390625,,,,,,FBP-YG-71.png,0.35,1.2,31,0.5,,,,,,,,,,,,,0,28,28,30,1,,,,,,,,,,,,,,,,,,,,,,,,,,,,
,,,,,WIN24_024,19,Female,2024-01-31_14h28.10.823,jersey_experiment_5,2023.2.2,Win32,84.03361345,,,,,,,,,,,,,,,,759.9017,761.7016,761.7017,763.7016,return,0.5021,,14.58333333,,,,,,FBP-PT-19.png,0.37,1.2,57,1,,,,,,,,,,,,,0,29,29,56,1,,,,,,,,,,,,,,,,,,,,,,,,,,,,
,,,,,WIN24_024,19,Female,2024-01-31_14h28.10.823,jersey_experiment_5,2023.2.2,Win32,84.03361345,,,,,,,,,,,,,,,,763.7017,764.9957,764.9957,766.7135,return,0.6259,,87.36979167,,,,,,FBP-YG-71.png,0.45,1.2,35,0.5,,,,,,,,,,,,,0,30,30,34,1,,,,,,,,,,,,,,,,,,,,,,,,,,,,
,,,,,WIN24_024,19,Female,2024-01-31_14h28.10.823,jersey_experiment_5,2023.2.2,Win32,84.03361345,,,,,,,,,,,,,,,,766.7137,768.0077,768.0077,770.3254,return,0.4065,,49.73958333,,,,,,FBP-YG-71.png,0.37,1.2,32,0.5,,,,,,,,,,,,,0,31,31,31,1,,,,,,,,,,,,,,,,,,,,,,,,,,,,
,,,,,WIN24_024,19,Female,2024-01-31_14h28.10.823,jersey_experiment_5,2023.2.2,Win32,84.03361345,,,,,,,,,,,,,,,,770.3255,772.1255,772.1255,775.4079,return,1.3413,,74.86979167,,,,,,FBP-OG-81.png,0.4,1.2,8,1,,,,,,,,,,,,,0,32,32,7,1,,,,,,,,,,,,,,,,,,,,,,,,,,,,
,,,,,WIN24_024,19,Female,2024-01-31_14h28.10.823,jersey_experiment_5,2023.2.2,Win32,84.03361345,,,,,,,,,,,,,,,,775.4081,776.7022,776.7022,779.608,return,1.9822,,75,,,,,,FBP-YG-81.png,0.43,1.2,39,0.5,,,,,,,,,,,,,0,33,33,38,1,,,,,,,,,,,,,,,,,,,,,,,,,,,,
,,,,,WIN24_024,19,Female,2024-01-31_14h28.10.823,jersey_experiment_5,2023.2.2,Win32,84.03361345,,,,,,,,,,,,,,,,779.6082,781.4082,781.4082,783.8318,return,1.6411,,85.41666667,,,,,,FBP-PT-17.png,0.43,1.2,49,1,,,,,,,,,,,,,0,34,34,48,1,,,,,,,,,,,,,,,,,,,,,,,,,,,,
,,,,,WIN24_024,19,Female,2024-01-31_14h28.10.823,jersey_experiment_5,2023.2.2,Win32,84.03361345,,,,,,,,,,,,,,,,783.8319,785.1259,785.1259,786.8906,return,0.3207,,99.73958333,,,,,,FBP-RB-18.png,0.45,1.2,25,0.5,,,,,,,,,,,,,0,35,35,24,1,,,,,,,,,,,,,,,,,,,,,,,,,,,,
,,,,,WIN24_024,19,Female,2024-01-31_14h28.10.823,jersey_experiment_5,2023.2.2,Win32,84.03361345,,,,,,,,,,,,,,,,786.8909,788.6907,788.6908,790.3614,return,0.5923,,50.52083333,,,,,,FBP-PT-17.png,0.4,1.2,48,1,,,,,,,,,,,,,0,36,36,47,1,,,,,,,,,,,,,,,,,,,,,,,,,,,,
,,,,,WIN24_024,19,Female,2024-01-31_14h28.10.823,jersey_experiment_5,2023.2.2,Win32,84.03361345,,,,,,,,,,,,,,,,790.3615,792.1616,792.1616,793.5028,return,0.5416,,13.15104167,,,,,,FBP-OG-81.png,0.37,1.2,7,1,,,,,,,,,,,,,0,37,37,6,1,,,,,,,,,,,,,,,,,,,,,,,,,,,,
,,,,,WIN24_024,19,Female,2024-01-31_14h28.10.823,jersey_experiment_5,2023.2.2,Win32,84.03361345,,,,,,,,,,,,,,,,793.503,795.3027,795.3027,796.2793,return,0.4987,,13.15104167,,,,,,FBP-OG-71.png,0.37,1.2,2,1,,,,,,,,,,,,,0,38,38,1,1,,,,,,,,,,,,,,,,,,,,,,,,,,,,
,,,,,WIN24_024,19,Female,2024-01-31_14h28.10.823,jersey_experiment_5,2023.2.2,Win32,84.03361345,,,,,,,,,,,,,,,,796.2795,797.5735,797.5735,799.5617,return,0.555,,0.390625,,,,,,FBP-YG-81.png,0.35,1.2,36,0.5,,,,,,,,,,,,,0,39,39,35,1,,,,,,,,,,,,,,,,,,,,,,,,,,,,
,,,,,WIN24_024,19,Female,2024-01-31_14h28.10.823,jersey_experiment_5,2023.2.2,Win32,84.03361345,,,,,,,,,,,,,,,,799.5618,801.362,801.362,803.7854,return,0.7219,,75,,,,,,FBP-OG-81.png,0.43,1.2,9,1,,,,,,,,,,,,,0,40,40,8,1,,,,,,,,,,,,,,,,,,,,,,,,,,,,
,,,,,WIN24_024,19,Female,2024-01-31_14h28.10.823,jersey_experiment_5,2023.2.2,Win32,84.03361345,,,,,,,,,,,,,,,,803.7857,805.5853,805.5853,809.6915,return,0.4612,,24.34895833,,,,,,FBP-PT-18.png,0.37,1.2,52,1,,,,,,,,,,,,,0,41,41,51,1,,,,,,,,,,,,,,,,,,,,,,,,,,,,
,,,,,WIN24_024,19,Female,2024-01-31_14h28.10.823,jersey_experiment_5,2023.2.2,Win32,84.03361345,,,,,,,,,,,,,,,,809.6917,810.9857,810.9857,813.5505,return,0.659,,99.47916667,,,,,,FBP-RB-17.png,0.45,1.2,20,0.5,,,,,,,,,,,,,0,42,42,19,1,,,,,,,,,,,,,,,,,,,,,,,,,,,,
,,,,,WIN24_024,19,Female,2024-01-31_14h28.10.823,jersey_experiment_5,2023.2.2,Win32,84.03361345,,,,,,,,,,,,,,,,813.5507,814.8446,814.8446,823.2802,return,1.2002,,13.28125,,,,,,FBP-RB-19.png,0.35,1.2,26,0.5,,,,,,,,,,,,,0,43,43,25,1,,,,,,,,,,,,,,,,,,,,,,,,,,,,
,,,,,WIN24_024,19,Female,2024-01-31_14h28.10.823,jersey_experiment_5,2023.2.2,Win32,84.03361345,,,,,,,,,,,,,,,,823.2803,825.0804,825.0804,827.3039,return,0.382,,37.76041667,,,,,,FBP-OG-71.png,0.4,1.2,3,1,,,,,,,,,,,,,0,44,44,2,1,,,,,,,,,,,,,,,,,,,,,,,,,,,,
,,,,,WIN24_024,19,Female,2024-01-31_14h28.10.823,jersey_experiment_5,2023.2.2,Win32,84.03361345,,,,,,,,,,,,,,,,827.3041,829.104,829.104,830.8686,return,0.5953,,75,,,,,,FBP-PT-19.png,0.45,1.2,60,1,,,,,,,,,,,,,0,45,45,59,1,,,,,,,,,,,,,,,,,,,,,,,,,,,,
,,,,,WIN24_024,19,Female,2024-01-31_14h28.10.823,jersey_experiment_5,2023.2.2,Win32,84.03361345,,,,,,,,,,,,,,,,830.869,832.1628,832.1628,833.4217,return,0.3528,,50.65104167,,,,,,FBP-RB-18.png,0.43,1.2,24,0.5,,,,,,,,,,,,,0,46,46,23,1,,,,,,,,,,,,,,,,,,,,,,,,,,,,
,,,,,WIN24_024,19,Female,2024-01-31_14h28.10.823,jersey_experiment_5,2023.2.2,Win32,84.03361345,,,,,,,,,,,,,,,,833.422,835.2219,835.2219,836.6689,return,0.3064,,11.06770833,,,,,,FBP-PT-17.png,0.37,1.2,47,1,,,,,,,,,,,,,0,47,47,46,1,,,,,,,,,,,,,,,,,,,,,,,,,,,,
,,,,,WIN24_024,19,Female,2024-01-31_14h28.10.823,jersey_experiment_5,2023.2.2,Win32,84.03361345,,,,,,,,,,,,,,,,836.6691,837.9631,837.9631,840.4926,return,0.2825,,24.609375,,,,,,FBP-YG-81.png,0.37,1.2,37,0.5,,,,,,,,,,,,,0,48,48,36,1,,,,,,,,,,,,,,,,,,,,,,,,,,,,
,,,,,WIN24_024,19,Female,2024-01-31_14h28.10.823,jersey_experiment_5,2023.2.2,Win32,84.03361345,,,,,,,,,,,,,,,,840.4927,841.7868,841.7869,843.6692,return,0.289,,24.73958333,,,,,,FBP-RB-17.png,0.35,1.2,16,0.5,,,,,,,,,,,,,0,49,49,15,1,,,,,,,,,,,,,,,,,,,,,,,,,,,,
,,,,,WIN24_024,19,Female,2024-01-31_14h28.10.823,jersey_experiment_5,2023.2.2,Win32,84.03361345,,,,,,,,,,,,,,,,843.6694,844.9633,844.9633,845.8339,return,0.2833,,24.73958333,,,,,,FBP-RB-19.png,0.37,1.2,27,0.5,,,,,,,,,,,,,0,50,50,26,1,,,,,,,,,,,,,,,,,,,,,,,,,,,,
,,,,,WIN24_024,19,Female,2024-01-31_14h28.10.823,jersey_experiment_5,2023.2.2,Win32,84.03361345,,,,,,,,,,,,,,,,845.8342,847.1281,847.1281,849.9164,return,0.5519,,99.73958333,,,,,,FBP-YG-91.png,0.45,1.2,45,0.5,,,,,,,,,,,,,0,51,51,44,1,,,,,,,,,,,,,,,,,,,,,,,,,,,,
,,,,,WIN24_024,19,Female,2024-01-31_14h28.10.823,jersey_experiment_5,2023.2.2,Win32,84.03361345,,,,,,,,,,,,,,,,849.9166,851.7165,851.7165,853.2225,return,0.3816,,75.13020833,,,,,,FBP-PT-19.png,0.4,1.2,58,1,,,,,,,,,,,,,0,52,52,57,1,,,,,,,,,,,,,,,,,,,,,,,,,,,,
,,,,,WIN24_024,19,Female,2024-01-31_14h28.10.823,jersey_experiment_5,2023.2.2,Win32,84.03361345,,,,,,,,,,,,,,,,853.2227,855.0225,855.0225,858.0697,return,1.8547,,99.609375,,,,,,FBP-PT-18.png,0.43,1.2,54,1,,,,,,,,,,,,,0,53,53,53,1,,,,,,,,,,,,,,,,,,,,,,,,,,,,
,,,,,WIN24_024,19,Female,2024-01-31_14h28.10.823,jersey_experiment_5,2023.2.2,Win32,84.03361345,,,,,,,,,,,,,,,,858.07,859.8698,859.8698,861.1286,return,0.4404,,49.86979167,,,,,,FBP-PT-19.png,0.35,1.2,56,1,,,,,,,,,,,,,0,54,54,55,1,,,,,,,,,,,,,,,,,,,,,,,,,,,,
,,,,,WIN24_024,19,Female,2024-01-31_14h28.10.823,jersey_experiment_5,2023.2.2,Win32,84.03361345,,,,,,,,,,,,,,,,861.1289,862.9286,862.9286,863.9523,return,0.3665,,49.73958333,,,,,,FBP-PT-18.png,0.35,1.2,51,1,,,,,,,,,,,,,0,55,55,50,1,,,,,,,,,,,,,,,,,,,,,,,,,,,,
,,,,,WIN24_024,19,Female,2024-01-31_14h28.10.823,jersey_experiment_5,2023.2.2,Win32,84.03361345,,,,,,,,,,,,,,,,863.9525,865.2463,865.2463,867.6465,return,0.5422,,62.890625,,,,,,FBP-YG-81.png,0.45,1.2,40,0.5,,,,,,,,,,,,,0,56,56,39,1,,,,,,,,,,,,,,,,,,,,,,,,,,,,
,,,,,WIN24_024,19,Female,2024-01-31_14h28.10.823,jersey_experiment_5,2023.2.2,Win32,84.03361345,,,,,,,,,,,,,,,,867.6467,868.9407,868.9407,870.8702,return,0.5467,,75.78125,,,,,,FBP-YG-71.png,0.4,1.2,33,0.5,,,,,,,,,,,,,0,57,57,32,1,,,,,,,,,,,,,,,,,,,,,,,,,,,,
,,,,,WIN24_024,19,Female,2024-01-31_14h28.10.823,jersey_experiment_5,2023.2.2,Win32,84.03361345,,,,,,,,,,,,,,,,870.8703,872.1643,872.1643,874.3997,return,0.4241,,49.609375,,,,,,FBP-RB-17.png,0.37,1.2,17,0.5,,,,,,,,,,,,,0,58,58,16,1,,,,,,,,,,,,,,,,,,,,,,,,,,,,
,,,,,WIN24_024,19,Female,2024-01-31_14h28.10.823,jersey_experiment_5,2023.2.2,Win32,84.03361345,,,,,,,,,,,,,,,,874.3998,875.6937,875.6938,878.7175,return,1.8588,,37.5,,,,,,FBP-YG-91.png,0.35,1.2,41,0.5,,,,,,,,,,,,,0,59,59,40,1,,,,,,,,,,,,,,,,,,,,,,,,,,,,
,,,,,WIN24_024,19,Female,2024-01-31_14h28.10.823,jersey_experiment_5,2023.2.2,Win32,84.03361345,,,,,,,,,,,,,,,,878.7194,880.5177,880.5177,881.8824,return,0.3914,,75.26041667,,,,,,FBP-PT-91.png,0.43,1.2,59,1,,,,,,,,,,,,,,,,,,0,0,0,58,1,,,,,,,,,,,,,,,,,,,,,,,
,,,,,WIN24_024,19,Female,2024-01-31_14h28.10.823,jersey_experiment_5,2023.2.2,Win32,84.03361345,,,,,,,,,,,,,,,,881.8827,883.1764,883.1764,885.2942,return,0.7433,,88.02083333,,,,,,FBP-YG-18.png,0.4,1.2,38,0.5,,,,,,,,,,,,,,,,,,0,1,1,37,1,,,,,,,,,,,,,,,,,,,,,,,
,,,,,WIN24_024,19,Female,2024-01-31_14h28.10.823,jersey_experiment_5,2023.2.2,Win32,84.03361345,,,,,,,,,,,,,,,,885.2944,887.0943,887.0943,888.4003,return,0.3897,,24.47916667,,,,,,FBP-OG-17.png,0.35,1.2,1,1,,,,,,,,,,,,,,,,,,0,2,2,0,1,,,,,,,,,,,,,,,,,,,,,,,
,,,,,WIN24_024,19,Female,2024-01-31_14h28.10.823,jersey_experiment_5,2023.2.2,Win32,84.03361345,,,,,,,,,,,,,,,,888.4005,889.6944,889.6944,891.271,return,0.3812,,75.52083333,,,,,,FBP-YG-18.png,0.37,1.2,37,0.5,,,,,,,,,,,,,,,,,,0,3,3,36,1,,,,,,,,,,,,,,,,,,,,,,,
,,,,,WIN24_024,19,Female,2024-01-31_14h28.10.823,jersey_experiment_5,2023.2.2,Win32,84.03361345,,,,,,,,,,,,,,,,891.2711,893.0707,893.0707,894.6475,return,0.6178,,74.86979167,,,,,,FBP-OG-17.png,0.4,1.2,3,1,,,,,,,,,,,,,,,,,,0,4,4,2,1,,,,,,,,,,,,,,,,,,,,,,,
,,,,,WIN24_024,19,Female,2024-01-31_14h28.10.823,jersey_experiment_5,2023.2.2,Win32,84.03361345,,,,,,,,,,,,,,,,894.6477,896.4477,896.4477,898.0946,return,0.6499,,88.671875,,,,,,FBP-OG-18.png,0.45,1.2,10,1,,,,,,,,,,,,,,,,,,0,5,5,9,1,,,,,,,,,,,,,,,,,,,,,,,
,,,,,WIN24_024,19,Female,2024-01-31_14h28.10.823,jersey_experiment_5,2023.2.2,Win32,84.03361345,,,,,,,,,,,,,,,,898.0948,899.8948,899.8948,901.7419,return,0.4137,,99.73958333,,,,,,FBP-PT-81.png,0.43,1.2,54,1,,,,,,,,,,,,,,,,,,0,6,6,53,1,,,,,,,,,,,,,,,,,,,,,,,
,,,,,WIN24_024,19,Female,2024-01-31_14h28.10.823,jersey_experiment_5,2023.2.2,Win32,84.03361345,,,,,,,,,,,,,,,,901.7421,903.5421,903.5421,905.3067,return,0.3321,,86.97916667,,,,,,FBP-OG-18.png,0.43,1.2,9,1,,,,,,,,,,,,,,,,,,0,7,7,8,1,,,,,,,,,,,,,,,,,,,,,,,
,,,,,WIN24_024,19,Female,2024-01-31_14h28.10.823,jersey_experiment_5,2023.2.2,Win32,84.03361345,,,,,,,,,,,,,,,,905.307,907.1069,907.107,908.0243,return,0.3227,,99.34895833,,,,,,FBP-PT-71.png,0.45,1.2,50,1,,,,,,,,,,,,,,,,,,0,8,8,49,1,,,,,,,,,,,,,,,,,,,,,,,
,,,,,WIN24_024,19,Female,2024-01-31_14h28.10.823,jersey_experiment_5,2023.2.2,Win32,84.03361345,,,,,,,,,,,,,,,,908.0246,909.8246,909.8246,913.5306,return,1.9778,,25.13020833,,,,,,FBP-PT-81.png,0.37,1.2,52,1,,,,,,,,,,,,,,,,,,0,9,9,51,1,,,,,,,,,,,,,,,,,,,,,,,
,,,,,WIN24_024,19,Female,2024-01-31_14h28.10.823,jersey_experiment_5,2023.2.2,Win32,84.03361345,,,,,,,,,,,,,,,,913.5308,915.3307,915.3307,917.307,return,0.6849,,87.36979167,,,,,,FBP-OG-17.png,0.43,1.2,4,1,,,,,,,,,,,,,,,,,,0,10,10,3,1,,,,,,,,,,,,,,,,,,,,,,,
,,,,,WIN24_024,19,Female,2024-01-31_14h28.10.823,jersey_experiment_5,2023.2.2,Win32,84.03361345,,,,,,,,,,,,,,,,917.3071,918.6012,918.6012,920.4249,return,0.3798,,99.47916667,,,,,,FBP-YG-17.png,0.45,1.2,35,0.5,,,,,,,,,,,,,,,,,,0,11,11,34,1,,,,,,,,,,,,,,,,,,,,,,,
,,,,,WIN24_024,19,Female,2024-01-31_14h28.10.823,jersey_experiment_5,2023.2.2,Win32,84.03361345,,,,,,,,,,,,,,,,920.4251,921.7192,921.7192,924.025,return,0.3692,,62.76041667,,,,,,FBP-RB-71.png,0.4,1.2,18,0.5,,,,,,,,,,,,,,,,,,0,12,12,17,1,,,,,,,,,,,,,,,,,,,,,,,
,,,,,WIN24_024,19,Female,2024-01-31_14h28.10.823,jersey_experiment_5,2023.2.2,Win32,84.03361345,,,,,,,,,,,,,,,,924.0252,925.8251,925.8252,927.4486,return,0.7207,,75.52083333,,,,,,FBP-OG-19.png,0.45,1.2,15,1,,,,,,,,,,,,,,,,,,0,13,13,14,1,,,,,,,,,,,,,,,,,,,,,,,
,,,,,WIN24_024,19,Female,2024-01-31_14h28.10.823,jersey_experiment_5,2023.2.2,Win32,84.03361345,,,,,,,,,,,,,,,,927.4489,928.7428,928.7428,931.3546,return,0.6381,,50.13020833,,,,,,FBP-RB-71.png,0.37,1.2,17,0.5,,,,,,,,,,,,,,,,,,0,14,14,16,1,,,,,,,,,,,,,,,,,,,,,,,
,,,,,WIN24_024,19,Female,2024-01-31_14h28.10.823,jersey_experiment_5,2023.2.2,Win32,84.03361345,,,,,,,,,,,,,,,,931.3549,933.1547,933.1548,934.649,return,0.438,,74.86979167,,,,,,FBP-PT-91.png,0.45,1.2,60,1,,,,,,,,,,,,,,,,,,0,15,15,59,1,,,,,,,,,,,,,,,,,,,,,,,
,,,,,WIN24_024,19,Female,2024-01-31_14h28.10.823,jersey_experiment_5,2023.2.2,Win32,84.03361345,,,,,,,,,,,,,,,,934.6491,936.4491,936.4491,938.4961,return,1.1067,,37.890625,,,,,,FBP-OG-19.png,0.37,1.2,12,1,,,,,,,,,,,,,,,,,,0,16,16,11,1,,,,,,,,,,,,,,,,,,,,,,,
,,,,,WIN24_024,19,Female,2024-01-31_14h28.10.823,jersey_experiment_5,2023.2.2,Win32,84.03361345,,,,,,,,,,,,,,,,938.4964,940.2963,940.2963,941.708,return,0.5533,,50.13020833,,,,,,FBP-PT-71.png,0.4,1.2,48,1,,,,,,,,,,,,,,,,,,0,17,17,47,1,,,,,,,,,,,,,,,,,,,,,,,
,,,,,WIN24_024,19,Female,2024-01-31_14h28.10.823,jersey_experiment_5,2023.2.2,Win32,84.03361345,,,,,,,,,,,,,,,,941.7082,943.5083,943.5083,944.461,return,0.3163,,75.13020833,,,,,,FBP-PT-81.png,0.45,1.2,55,1,,,,,,,,,,,,,,,,,,0,18,18,54,1,,,,,,,,,,,,,,,,,,,,,,,
,,,,,WIN24_024,19,Female,2024-01-31_14h28.10.823,jersey_experiment_5,2023.2.2,Win32,84.03361345,,,,,,,,,,,,,,,,944.4612,946.2613,946.2613,947.4611,return,0.3497,,48.828125,,,,,,FBP-PT-71.png,0.37,1.2,47,1,,,,,,,,,,,,,,,,,,0,19,19,46,1,,,,,,,,,,,,,,,,,,,,,,,
,,,,,WIN24_024,19,Female,2024-01-31_14h28.10.823,jersey_experiment_5,2023.2.2,Win32,84.03361345,,,,,,,,,,,,,,,,947.4613,949.2612,949.2612,950.5906,return,0.4843,,50.13020833,,,,,,FBP-PT-81.png,0.4,1.2,53,1,,,,,,,,,,,,,,,,,,0,20,20,52,1,,,,,,,,,,,,,,,,,,,,,,,
,,,,,WIN24_024,19,Female,2024-01-31_14h28.10.823,jersey_experiment_5,2023.2.2,Win32,84.03361345,,,,,,,,,,,,,,,,950.5909,951.8848,951.8849,953.8495,return,0.9218,,75.390625,,,,,,FBP-RB-71.png,0.45,1.2,20,0.5,,,,,,,,,,,,,,,,,,0,21,21,19,1,,,,,,,,,,,,,,,,,,,,,,,
,,,,,WIN24_024,19,Female,2024-01-31_14h28.10.823,jersey_experiment_5,2023.2.2,Win32,84.03361345,,,,,,,,,,,,,,,,953.8498,955.1438,955.1438,958.5556,return,0.6608,,74.86979167,,,,,,FBP-YG-18.png,0.45,1.2,40,0.5,,,,,,,,,,,,,,,,,,0,22,22,39,1,,,,,,,,,,,,,,,,,,,,,,,
,,,,,WIN24_024,19,Female,2024-01-31_14h28.10.823,jersey_experiment_5,2023.2.2,Win32,84.03361345,,,,,,,,,,,,,,,,958.5557,960.3559,960.3559,962.297,return,0.6258,,36.84895833,,,,,,FBP-OG-18.png,0.35,1.2,6,1,,,,,,,,,,,,,,,,,,0,23,23,5,1,,,,,,,,,,,,,,,,,,,,,,,
,,,,,WIN24_024,19,Female,2024-01-31_14h28.10.823,jersey_experiment_5,2023.2.2,Win32,84.03361345,,,,,,,,,,,,,,,,962.2972,963.5912,963.5912,964.697,return,0.3572,,25.13020833,,,,,,FBP-YG-19.png,0.35,1.2,41,0.5,,,,,,,,,,,,,,,,,,0,24,24,40,1,,,,,,,,,,,,,,,,,,,,,,,
,,,,,WIN24_024,19,Female,2024-01-31_14h28.10.823,jersey_experiment_5,2023.2.2,Win32,84.03361345,,,,,,,,,,,,,,,,964.6972,966.4973,966.4973,969.1913,return,1.6396,,63.28125,,,,,,FBP-OG-18.png,0.4,1.2,8,1,,,,,,,,,,,,,,,,,,0,25,25,7,1,,,,,,,,,,,,,,,,,,,,,,,
,,,,,WIN24_024,19,Female,2024-01-31_14h28.10.823,jersey_experiment_5,2023.2.2,Win32,84.03361345,,,,,,,,,,,,,,,,969.1914,970.4856,970.4856,973.0385,return,1.5534,,99.08854167,,,,,,FBP-RB-81.png,0.45,1.2,25,0.5,,,,,,,,,,,,,,,,,,0,26,26,24,1,,,,,,,,,,,,,,,,,,,,,,,
,,,,,WIN24_024,19,Female,2024-01-31_14h28.10.823,jersey_experiment_5,2023.2.2,Win32,84.03361345,,,,,,,,,,,,,,,,973.0387,974.3327,974.3327,975.7562,return,0.3541,,75.390625,,,,,,FBP-YG-19.png,0.43,1.2,44,0.5,,,,,,,,,,,,,,,,,,0,27,27,43,1,,,,,,,,,,,,,,,,,,,,,,,
,,,,,WIN24_024,19,Female,2024-01-31_14h28.10.823,jersey_experiment_5,2023.2.2,Win32,84.03361345,,,,,,,,,,,,,,,,975.7564,977.5563,977.5563,979.0152,return,0.7237,,50.26041667,,,,,,FBP-OG-19.png,0.35,1.2,11,1,,,,,,,,,,,,,,,,,,0,28,28,10,1,,,,,,,,,,,,,,,,,,,,,,,
,,,,,WIN24_024,19,Female,2024-01-31_14h28.10.823,jersey_experiment_5,2023.2.2,Win32,84.03361345,,,,,,,,,,,,,,,,979.0155,980.3094,980.3095,982.0153,return,0.5648,,34.89583333,,,,,,FBP-YG-18.png,0.35,1.2,36,0.5,,,,,,,,,,,,,,,,,,0,29,29,35,1,,,,,,,,,,,,,,,,,,,,,,,
,,,,,WIN24_024,19,Female,2024-01-31_14h28.10.823,jersey_experiment_5,2023.2.2,Win32,84.03361345,,,,,,,,,,,,,,,,982.0155,983.8154,983.8155,985.286,return,0.4778,,49.34895833,,,,,,FBP-OG-17.png,0.37,1.2,2,1,,,,,,,,,,,,,,,,,,0,30,30,1,1,,,,,,,,,,,,,,,,,,,,,,,
,,,,,WIN24_024,19,Female,2024-01-31_14h28.10.823,jersey_experiment_5,2023.2.2,Win32,84.03361345,,,,,,,,,,,,,,,,985.2862,987.0863,987.0863,988.4861,return,0.6426,,25.65104167,,,,,,FBP-PT-71.png,0.35,1.2,46,1,,,,,,,,,,,,,,,,,,0,31,31,45,1,,,,,,,,,,,,,,,,,,,,,,,
,,,,,WIN24_024,19,Female,2024-01-31_14h28.10.823,jersey_experiment_5,2023.2.2,Win32,84.03361345,,,,,,,,,,,,,,,,988.4862,989.7803,989.7803,991.6862,return,0.5819,,25.390625,,,,,,FBP-RB-91.png,0.35,1.2,26,0.5,,,,,,,,,,,,,,,,,,0,32,32,25,1,,,,,,,,,,,,,,,,,,,,,,,
,,,,,WIN24_024,19,Female,2024-01-31_14h28.10.823,jersey_experiment_5,2023.2.2,Win32,84.03361345,,,,,,,,,,,,,,,,991.6864,992.9803,992.9803,994.2392,return,0.6492,,25.390625,,,,,,FBP-RB-71.png,0.35,1.2,16,0.5,,,,,,,,,,,,,,,,,,0,33,33,15,1,,,,,,,,,,,,,,,,,,,,,,,
,,,,,WIN24_024,19,Female,2024-01-31_14h28.10.823,jersey_experiment_5,2023.2.2,Win32,84.03361345,,,,,,,,,,,,,,,,994.2395,995.5335,995.5335,997.5923,return,0.3343,,87.76041667,,,,,,FBP-YG-19.png,0.45,1.2,45,0.5,,,,,,,,,,,,,,,,,,0,34,34,44,1,,,,,,,,,,,,,,,,,,,,,,,
,,,,,WIN24_024,19,Female,2024-01-31_14h28.10.823,jersey_experiment_5,2023.2.2,Win32,84.03361345,,,,,,,,,,,,,,,,997.5925,998.8864,998.8864,1000.0159,return,0.4807,,86.97916667,,,,,,FBP-RB-91.png,0.45,1.2,30,0.5,,,,,,,,,,,,,,,,,,0,35,35,29,1,,,,,,,,,,,,,,,,,,,,,,,
,,,,,WIN24_024,19,Female,2024-01-31_14h28.10.823,jersey_experiment_5,2023.2.2,Win32,84.03361345,,,,,,,,,,,,,,,,1000.0161,1001.8162,1001.8162,1004.122,return,0.9092,,24.86979167,,,,,,FBP-PT-81.png,0.35,1.2,51,1,,,,,,,,,,,,,,,,,,0,36,36,50,1,,,,,,,,,,,,,,,,,,,,,,,
,,,,,WIN24_024,19,Female,2024-01-31_14h28.10.823,jersey_experiment_5,2023.2.2,Win32,84.03361345,,,,,,,,,,,,,,,,1004.1223,1005.922,1005.922,1009.8986,return,0.5065,,10.15625,,,,,,FBP-PT-91.png,0.37,1.2,57,1,,,,,,,,,,,,,,,,,,0,37,37,56,1,,,,,,,,,,,,,,,,,,,,,,,
,,,,,WIN24_024,19,Female,2024-01-31_14h28.10.823,jersey_experiment_5,2023.2.2,Win32,84.03361345,,,,,,,,,,,,,,,,1009.8989,1011.1928,1011.1928,1013.5459,return,0.8137,,25.13020833,,,,,,FBP-YG-17.png,0.4,1.2,33,0.5,,,,,,,,,,,,,,,,,,0,38,38,32,1,,,,,,,,,,,,,,,,,,,,,,,
,,,,,WIN24_024,19,Female,2024-01-31_14h28.10.823,jersey_experiment_5,2023.2.2,Win32,84.03361345,,,,,,,,,,,,,,,,1013.5461,1014.84,1014.84,1016.746,return,0.7093,,99.609375,,,,,,FBP-YG-18.png,0.43,1.2,39,0.5,,,,,,,,,,,,,,,,,,0,39,39,38,1,,,,,,,,,,,,,,,,,,,,,,,
,,,,,WIN24_024,19,Female,2024-01-31_14h28.10.823,jersey_experiment_5,2023.2.2,Win32,84.03361345,,,,,,,,,,,,,,,,1016.7461,1018.0401,1018.0401,1019.5931,return,0.6025,,25.26041667,,,,,,FBP-RB-81.png,0.35,1.2,21,0.5,,,,,,,,,,,,,,,,,,0,40,40,20,1,,,,,,,,,,,,,,,,,,,,,,,
,,,,,WIN24_024,19,Female,2024-01-31_14h28.10.823,jersey_experiment_5,2023.2.2,Win32,84.03361345,,,,,,,,,,,,,,,,1019.5933,1020.8872,1020.8872,1022.7344,return,0.5084,,74.86979167,,,,,,FBP-RB-91.png,0.43,1.2,29,0.5,,,,,,,,,,,,,,,,,,0,41,41,28,1,,,,,,,,,,,,,,,,,,,,,,,
,,,,,WIN24_024,19,Female,2024-01-31_14h28.10.823,jersey_experiment_5,2023.2.2,Win32,84.03361345,,,,,,,,,,,,,,,,1022.7346,1024.5344,1024.5344,1025.2639,return,0.4709,,75,,,,,,FBP-OG-19.png,0.43,1.2,14,1,,,,,,,,,,,,,,,,,,0,42,42,13,1,,,,,,,,,,,,,,,,,,,,,,,
,,,,,WIN24_024,19,Female,2024-01-31_14h28.10.823,jersey_experiment_5,2023.2.2,Win32,84.03361345,,,,,,,,,,,,,,,,1025.2641,1026.558,1026.5581,1028.0757,return,0.6028,,85.9375,,,,,,FBP-RB-81.png,0.43,1.2,24,0.5,,,,,,,,,,,,,,,,,,0,43,43,23,1,,,,,,,,,,,,,,,,,,,,,,,
,,,,,WIN24_024,19,Female,2024-01-31_14h28.10.823,jersey_experiment_5,2023.2.2,Win32,84.03361345,,,,,,,,,,,,,,,,1028.076,1029.8758,1029.8759,1032.3347,return,0.5643,,99.609375,,,,,,FBP-OG-17.png,0.45,1.2,5,1,,,,,,,,,,,,,,,,,,0,44,44,4,1,,,,,,,,,,,,,,,,,,,,,,,
,,,,,WIN24_024,19,Female,2024-01-31_14h28.10.823,jersey_experiment_5,2023.2.2,Win32,84.03361345,,,,,,,,,,,,,,,,1032.335,1033.629,1033.629,1035.4879,return,0.33,,49.609375,,,,,,FBP-RB-91.png,0.4,1.2,28,0.5,,,,,,,,,,,,,,,,,,0,45,45,27,1,,,,,,,,,,,,,,,,,,,,,,,
,,,,,WIN24_024,19,Female,2024-01-31_14h28.10.823,jersey_experiment_5,2023.2.2,Win32,84.03361345,,,,,,,,,,,,,,,,1035.488,1036.782,1036.782,1037.8996,return,0.3407,,48.828125,,,,,,FBP-YG-19.png,0.4,1.2,43,0.5,,,,,,,,,,,,,,,,,,0,46,46,42,1,,,,,,,,,,,,,,,,,,,,,,,
,,,,,WIN24_024,19,Female,2024-01-31_14h28.10.823,jersey_experiment_5,2023.2.2,Win32,84.03361345,,,,,,,,,,,,,,,,1037.8998,1039.1939,1039.1939,1040.9233,return,0.5079,,49.73958333,,,,,,FBP-YG-17.png,0.37,1.2,32,0.5,,,,,,,,,,,,,,,,,,0,47,47,31,1,,,,,,,,,,,,,,,,,,,,,,,
,,,,,WIN24_024,19,Female,2024-01-31_14h28.10.823,jersey_experiment_5,2023.2.2,Win32,84.03361345,,,,,,,,,,,,,,,,1040.9234,1042.2175,1042.2175,1042.9234,return,0.2832,,49.73958333,,,,,,FBP-RB-81.png,0.37,1.2,22,0.5,,,,,,,,,,,,,,,,,,0,48,48,21,1,,,,,,,,,,,,,,,,,,,,,,,
,,,,,WIN24_024,19,Female,2024-01-31_14h28.10.823,jersey_experiment_5,2023.2.2,Win32,84.03361345,,,,,,,,,,,,,,,,1042.9236,1044.2174,1044.2175,1045.1117,return,0.2997,,62.5,,,,,,FBP-YG-17.png,0.43,1.2,34,0.5,,,,,,,,,,,,,,,,,,0,49,49,33,1,,,,,,,,,,,,,,,,,,,,,,,
,,,,,WIN24_024,19,Female,2024-01-31_14h28.10.823,jersey_experiment_5,2023.2.2,Win32,84.03361345,,,,,,,,,,,,,,,,1045.1119,1046.9117,1046.9118,1047.6411,return,0.3432,,62.5,,,,,,FBP-OG-19.png,0.4,1.2,13,1,,,,,,,,,,,,,,,,,,0,50,50,12,1,,,,,,,,,,,,,,,,,,,,,,,
,,,,,WIN24_024,19,Female,2024-01-31_14h28.10.823,jersey_experiment_5,2023.2.2,Win32,84.03361345,,,,,,,,,,,,,,,,1047.6414,1049.4412,1049.4412,1050.3,return,0.2835,,49.73958333,,,,,,FBP-PT-91.png,0.35,1.2,56,1,,,,,,,,,,,,,,,,,,0,51,51,55,1,,,,,,,,,,,,,,,,,,,,,,,
,,,,,WIN24_024,19,Female,2024-01-31_14h28.10.823,jersey_experiment_5,2023.2.2,Win32,84.03361345,,,,,,,,,,,,,,,,1050.3002,1051.5943,1051.5943,1052.4297,return,0.3072,,50.52083333,,,,,,FBP-YG-19.png,0.37,1.2,42,0.5,,,,,,,,,,,,,,,,,,0,52,52,41,1,,,,,,,,,,,,,,,,,,,,,,,
,,,,,WIN24_024,19,Female,2024-01-31_14h28.10.823,jersey_experiment_5,2023.2.2,Win32,84.03361345,,,,,,,,,,,,,,,,1052.4299,1053.7238,1053.7238,1054.5355,return,0.2977,,50.52083333,,,,,,FBP-RB-91.png,0.37,1.2,27,0.5,,,,,,,,,,,,,,,,,,0,53,53,26,1,,,,,,,,,,,,,,,,,,,,,,,
,,,,,WIN24_024,19,Female,2024-01-31_14h28.10.823,jersey_experiment_5,2023.2.2,Win32,84.03361345,,,,,,,,,,,,,,,,1054.5358,1055.8296,1055.8296,1056.6531,return,0.3533,,50.52083333,,,,,,FBP-YG-17.png,0.35,1.2,31,0.5,,,,,,,,,,,,,,,,,,0,54,54,30,1,,,,,,,,,,,,,,,,,,,,,,,
,,,,,WIN24_024,19,Female,2024-01-31_14h28.10.823,jersey_experiment_5,2023.2.2,Win32,84.03361345,,,,,,,,,,,,,,,,1056.6534,1057.9474,1057.9474,1059.4298,return,0.5111,,75.26041667,,,,,,FBP-RB-71.png,0.43,1.2,19,0.5,,,,,,,,,,,,,,,,,,0,55,55,18,1,,,,,,,,,,,,,,,,,,,,,,,
,,,,,WIN24_024,19,Female,2024-01-31_14h28.10.823,jersey_experiment_5,2023.2.2,Win32,84.03361345,,,,,,,,,,,,,,,,1059.4301,1061.2299,1061.2299,1062.2769,return,0.5721,,75.26041667,,,,,,FBP-PT-91.png,0.4,1.2,58,1,,,,,,,,,,,,,,,,,,0,56,56,57,1,,,,,,,,,,,,,,,,,,,,,,,
,,,,,WIN24_024,19,Female,2024-01-31_14h28.10.823,jersey_experiment_5,2023.2.2,Win32,84.03361345,,,,,,,,,,,,,,,,1062.2772,1063.5711,1063.5711,1064.9829,return,0.7125,,75.26041667,,,,,,FBP-RB-81.png,0.4,1.2,23,0.5,,,,,,,,,,,,,,,,,,0,57,57,22,1,,,,,,,,,,,,,,,,,,,,,,,
,,,,,WIN24_024,19,Female,2024-01-31_14h28.10.823,jersey_experiment_5,2023.2.2,Win32,84.03361345,,,,,,,,,,,,,,,,1064.9832,1066.7832,1066.7832,1067.5596,return,0.2997,,64.32291667,,,,,,FBP-OG-18.png,0.37,1.2,7,1,,,,,,,,,,,,,,,,,,0,58,58,6,1,,,,,,,,,,,,,,,,,,,,,,,
,,,,,WIN24_024,19,Female,2024-01-31_14h28.10.823,jersey_experiment_5,2023.2.2,Win32,84.03361345,,,,,,,,,,,,,,,,1067.5598,1069.3596,1069.3596,1070.2537,return,0.2927,,75.390625,,,,,,FBP-PT-71.png,0.43,1.2,49,1,,,,,,,,,,,,,,,,,,0,59,59,48,1,,,,,,,,,,,,,,,,,,,,,,,
,,,,,WIN24_024,19,Female,2024-01-31_14h28.10.823,jersey_experiment_5,2023.2.2,Win32,84.03361345,,,,,,,,,,,,,,,,,,,,,,,,,,,,,,,,,,,,,,,,,,,,,,,,,,,,,,,,1070.2541,1074.0307,return,3.7648,,,,,,,,,,,,,,,,,,,
,,,,,WIN24_024,19,Female,2024-01-31_14h28.10.823,jersey_experiment_5,2023.2.2,Win32,84.03361345,,,,,,,,,,,,,,,,,,,,,,,,,,,,,,,,,,,,,,,,,,,,,,,,,,,,,,,,,,,,,1074.0308,1078.0778,1,3.393,return,0.6344,,,,,,,,,,,,
,,,,,WIN24_024,19,Female,2024-01-31_14h28.10.823,jersey_experiment_5,2023.2.2,Win32,84.03361345,,,,,,,,,,,,,,,,,,,,,,,,,,,,,,,,,,,,,,,,,,,,,,,,,,,,,,,,,,,,,,,,,,,,1078.0779,1086.9063,None,right,3.7368,,,,,,
,,,,,WIN24_024,19,Female,2024-01-31_14h28.10.823,jersey_experiment_5,2023.2.2,Win32,84.03361345,,,,,,,,,,,,,,,,,,,,,,,,,,,,,,,,,,,,,,,,,,,,,,,,,,,,,,,,,,,,,,,,,,,,,,,,,,1086.9064,1090.4075,return,3.4943,