requirements.started,requirements.stopped,key_resp_3.keys,key_resp_3.rt,key_resp_3.duration,Subject ID,Age,Gender,date,expName,psychopyVersion,OS,frameRate,instructions1.started,instructions1.stopped,key_resp.keys,key_resp.rt,key_resp.duration,example.started,example.stopped,enter_2.keys,enter_2.rt,enter_2.duration,instructions2.started,instructions2.stopped,enter_3.keys,enter_3.rt,enter_3.duration,image.started,image.stopped,slider_2.started,slider_2.stopped,next.keys,next.rt,next.duration,slider.response,trial_block_1.thisRepN,trial_block_1.thisTrialN,trial_block_1.thisN,trial_block_1.thisIndex,trial_block_1.ran,Path,Width,Height,Index,Duration,trial_block_2.thisRepN,trial_block_2.thisTrialN,trial_block_2.thisN,trial_block_2.thisIndex,trial_block_2.ran,rest_break.started,rest_break.stopped,end_break.started,end_break.stopped,key_resp_5.keys,key_resp_5.rt,key_resp_5.duration,trial_block_3.thisRepN,trial_block_3.thisTrialN,trial_block_3.thisN,trial_block_3.thisIndex,trial_block_3.ran,trial_block_4.thisRepN,trial_block_4.thisTrialN,trial_block_4.thisN,trial_block_4.thisIndex,trial_block_4.ran,questions_intro.started,questions_intro.stopped,enter_12.keys,enter_12.rt,enter_12.duration,question2.started,question2.stopped,question_doingbest.response,question_doingbest.rt,enter_15.keys,enter_15.rt,enter_15.duration,pattern.started,pattern.stopped,pattern_2.text,enter_17.keys,enter_17.rt,enter_17.duration,thankyou.started,thankyou.stopped,enter_14.keys,enter_14.rt,enter_14.duration
0.0002,7.4751,return,7.4659,,WIN24_020,22,female,2024-01-30_12h48.16.610,jersey_experiment_5,2023.2.2,Win32,86.95652174,,,,,,,,,,,,,,,,,,,,,,,,,,,,,,,,,,,,,,,,,,,,,,,,,,,,,,,,,,,,,,,,,,,,,,,,,,,,,,
,,,,,WIN24_020,22,female,2024-01-30_12h48.16.610,jersey_experiment_5,2023.2.2,Win32,86.95652174,7.4752,16.7258,return,9.2462,,,,,,,,,,,,,,,,,,,,,,,,,,,,,,,,,,,,,,,,,,,,,,,,,,,,,,,,,,,,,,,,,,,,,,,,,,
,,,,,WIN24_020,22,female,2024-01-30_12h48.16.610,jersey_experiment_5,2023.2.2,Win32,86.95652174,,,,,,16.7259,19.0162,return,2.262,,,,,,,,,,,,,,,,,,,,,,,,,,,,,,,,,,,,,,,,,,,,,,,,,,,,,,,,,,,,,,,,,,,,,
,,,,,WIN24_020,22,female,2024-01-30_12h48.16.610,jersey_experiment_5,2023.2.2,Win32,86.95652174,,,,,,,,,,,19.0164,32.6179,return,13.5954,,,,,,,,,,,,,,,,,,,,,,,,,,,,,,,,,,,,,,,,,,,,,,,,,,,,,,,,,,,,,,,,
,,,,,WIN24_020,22,female,2024-01-30_12h48.16.610,jersey_experiment_5,2023.2.2,Win32,86.95652174,,,,,,,,,,,,,,,,32.6308,34.4288,34.4289,48.0292,return,1.1336,,50,0,0,0,18,1,FBP-RB-17.png,0.43,1.2,19,1,,,,,,,,,,,,,,,,,,,,,,,,,,,,,,,,,,,,,,,,,,,,,
,,,,,WIN24_020,22,female,2024-01-30_12h48.16.610,jersey_experiment_5,2023.2.2,Win32,86.95652174,,,,,,,,,,,,,,,,48.0295,49.3232,49.3232,51.9975,return,0.9034,,26.69270833,0,1,1,57,1,FBP-PT-19.png,0.4,1.2,58,0.5,,,,,,,,,,,,,,,,,,,,,,,,,,,,,,,,,,,,,,,,,,,,,
,,,,,WIN24_020,22,female,2024-01-30_12h48.16.610,jersey_experiment_5,2023.2.2,Win32,86.95652174,,,,,,,,,,,,,,,,51.9977,53.2996,53.2997,55.6763,return,0.9209,,73.046875,0,2,2,47,1,FBP-PT-17.png,0.4,1.2,48,0.5,,,,,,,,,,,,,,,,,,,,,,,,,,,,,,,,,,,,,,,,,,,,,
,,,,,WIN24_020,22,female,2024-01-30_12h48.16.610,jersey_experiment_5,2023.2.2,Win32,86.95652174,,,,,,,,,,,,,,,,55.6764,57.4796,57.4796,59.3274,return,0.6707,,59.50520833,0,3,3,16,1,FBP-RB-17.png,0.37,1.2,17,1,,,,,,,,,,,,,,,,,,,,,,,,,,,,,,,,,,,,,,,,,,,,,
,,,,,WIN24_020,22,female,2024-01-30_12h48.16.610,jersey_experiment_5,2023.2.2,Win32,86.95652174,,,,,,,,,,,,,,,,59.3275,60.6294,60.6294,62.7625,return,0.6101,,31.25,0,4,4,55,1,FBP-PT-19.png,0.35,1.2,56,0.5,,,,,,,,,,,,,,,,,,,,,,,,,,,,,,,,,,,,,,,,,,,,,
,,,,,WIN24_020,22,female,2024-01-30_12h48.16.610,jersey_experiment_5,2023.2.2,Win32,86.95652174,,,,,,,,,,,,,,,,62.7626,64.0649,64.0649,66.2559,return,0.7869,,87.5,0,5,5,53,1,FBP-PT-18.png,0.43,1.2,54,0.5,,,,,,,,,,,,,,,,,,,,,,,,,,,,,,,,,,,,,,,,,,,,,
,,,,,WIN24_020,22,female,2024-01-30_12h48.16.610,jersey_experiment_5,2023.2.2,Win32,86.95652174,,,,,,,,,,,,,,,,66.256,68.0554,68.0554,69.3298,return,0.52,,95.05208333,0,6,6,29,1,FBP-RB-19.png,0.45,1.2,30,1,,,,,,,,,,,,,,,,,,,,,,,,,,,,,,,,,,,,,,,,,,,,,
,,,,,WIN24_020,22,female,2024-01-30_12h48.16.610,jersey_experiment_5,2023.2.2,Win32,86.95652174,,,,,,,,,,,,,,,,69.3299,71.1289,71.1289,73.4651,return,0.6419,,25.91145833,0,7,7,35,1,FBP-YG-81.png,0.35,1.2,36,1,,,,,,,,,,,,,,,,,,,,,,,,,,,,,,,,,,,,,,,,,,,,,
,,,,,WIN24_020,22,female,2024-01-30_12h48.16.610,jersey_experiment_5,2023.2.2,Win32,86.95652174,,,,,,,,,,,,,,,,73.4652,74.7592,74.7592,76.1162,return,0.5276,,42.70833333,0,8,8,11,1,FBP-OG-91.png,0.37,1.2,12,0.5,,,,,,,,,,,,,,,,,,,,,,,,,,,,,,,,,,,,,,,,,,,,,
,,,,,WIN24_020,22,female,2024-01-30_12h48.16.610,jersey_experiment_5,2023.2.2,Win32,86.95652174,,,,,,,,,,,,,,,,76.1164,77.4103,77.4104,78.5948,return,0.493,,45.18229167,0,9,9,50,1,FBP-PT-18.png,0.35,1.2,51,0.5,,,,,,,,,,,,,,,,,,,,,,,,,,,,,,,,,,,,,,,,,,,,,
,,,,,WIN24_020,22,female,2024-01-30_12h48.16.610,jersey_experiment_5,2023.2.2,Win32,86.95652174,,,,,,,,,,,,,,,,78.5948,79.8907,79.8907,81.4536,return,0.485,,72.39583333,0,10,10,3,1,FBP-OG-71.png,0.43,1.2,4,0.5,,,,,,,,,,,,,,,,,,,,,,,,,,,,,,,,,,,,,,,,,,,,,
,,,,,WIN24_020,22,female,2024-01-30_12h48.16.610,jersey_experiment_5,2023.2.2,Win32,86.95652174,,,,,,,,,,,,,,,,81.4538,83.2564,83.2565,84.3624,return,0.4697,,85.80729167,0,11,11,32,1,FBP-YG-71.png,0.4,1.2,33,1,,,,,,,,,,,,,,,,,,,,,,,,,,,,,,,,,,,,,,,,,,,,,
,,,,,WIN24_020,22,female,2024-01-30_12h48.16.610,jersey_experiment_5,2023.2.2,Win32,86.95652174,,,,,,,,,,,,,,,,84.3626,85.6689,85.6689,87.0442,return,0.4356,,97.00520833,0,12,12,58,1,FBP-PT-19.png,0.43,1.2,59,0.5,,,,,,,,,,,,,,,,,,,,,,,,,,,,,,,,,,,,,,,,,,,,,
,,,,,WIN24_020,22,female,2024-01-30_12h48.16.610,jersey_experiment_5,2023.2.2,Win32,86.95652174,,,,,,,,,,,,,,,,87.0443,88.3412,88.3413,89.4892,return,0.459,,92.31770833,0,13,13,48,1,FBP-PT-17.png,0.43,1.2,49,0.5,,,,,,,,,,,,,,,,,,,,,,,,,,,,,,,,,,,,,,,,,,,,,
,,,,,WIN24_020,22,female,2024-01-30_12h48.16.610,jersey_experiment_5,2023.2.2,Win32,86.95652174,,,,,,,,,,,,,,,,89.4894,91.2824,91.2824,92.7626,return,0.5177,,32.68229167,0,14,14,30,1,FBP-YG-71.png,0.35,1.2,31,1,,,,,,,,,,,,,,,,,,,,,,,,,,,,,,,,,,,,,,,,,,,,,
,,,,,WIN24_020,22,female,2024-01-30_12h48.16.610,jersey_experiment_5,2023.2.2,Win32,86.95652174,,,,,,,,,,,,,,,,92.7627,94.0658,94.0658,95.4113,return,0.4237,,93.359375,0,15,15,9,1,FBP-OG-81.png,0.45,1.2,10,0.5,,,,,,,,,,,,,,,,,,,,,,,,,,,,,,,,,,,,,,,,,,,,,
,,,,,WIN24_020,22,female,2024-01-30_12h48.16.610,jersey_experiment_5,2023.2.2,Win32,86.95652174,,,,,,,,,,,,,,,,95.4115,96.7062,96.7062,97.881,return,0.364,,45.83333333,0,16,16,46,1,FBP-PT-17.png,0.37,1.2,47,0.5,,,,,,,,,,,,,,,,,,,,,,,,,,,,,,,,,,,,,,,,,,,,,
,,,,,WIN24_020,22,female,2024-01-30_12h48.16.610,jersey_experiment_5,2023.2.2,Win32,86.95652174,,,,,,,,,,,,,,,,97.8812,99.1739,99.1739,100.4938,return,0.4472,,26.43229167,0,17,17,5,1,FBP-OG-81.png,0.35,1.2,6,0.5,,,,,,,,,,,,,,,,,,,,,,,,,,,,,,,,,,,,,,,,,,,,,
,,,,,WIN24_020,22,female,2024-01-30_12h48.16.610,jersey_experiment_5,2023.2.2,Win32,86.95652174,,,,,,,,,,,,,,,,100.4939,101.7955,101.7955,103.6839,return,0.3902,,61.45833333,0,18,18,2,1,FBP-OG-71.png,0.4,1.2,3,0.5,,,,,,,,,,,,,,,,,,,,,,,,,,,,,,,,,,,,,,,,,,,,,
,,,,,WIN24_020,22,female,2024-01-30_12h48.16.610,jersey_experiment_5,2023.2.2,Win32,86.95652174,,,,,,,,,,,,,,,,103.6841,105.4801,105.4801,106.6896,return,0.4118,,68.61979167,0,19,19,42,1,FBP-YG-91.png,0.4,1.2,43,1,,,,,,,,,,,,,,,,,,,,,,,,,,,,,,,,,,,,,,,,,,,,,
,,,,,WIN24_020,22,female,2024-01-30_12h48.16.610,jersey_experiment_5,2023.2.2,Win32,86.95652174,,,,,,,,,,,,,,,,106.6899,108.4828,108.4828,109.8544,return,0.4011,,44.79166667,0,20,20,41,1,FBP-YG-91.png,0.37,1.2,42,1,,,,,,,,,,,,,,,,,,,,,,,,,,,,,,,,,,,,,,,,,,,,,
,,,,,WIN24_020,22,female,2024-01-30_12h48.16.610,jersey_experiment_5,2023.2.2,Win32,86.95652174,,,,,,,,,,,,,,,,109.8547,111.6597,111.6597,112.9784,return,0.4151,,72.52604167,0,21,21,37,1,FBP-YG-81.png,0.4,1.2,38,1,,,,,,,,,,,,,,,,,,,,,,,,,,,,,,,,,,,,,,,,,,,,,
,,,,,WIN24_020,22,female,2024-01-30_12h48.16.610,jersey_experiment_5,2023.2.2,Win32,86.95652174,,,,,,,,,,,,,,,,112.9785,114.2809,114.2809,115.6312,return,0.447,,60.41666667,0,22,22,6,1,FBP-OG-81.png,0.37,1.2,7,0.5,,,,,,,,,,,,,,,,,,,,,,,,,,,,,,,,,,,,,,,,,,,,,
,,,,,WIN24_020,22,female,2024-01-30_12h48.16.610,jersey_experiment_5,2023.2.2,Win32,86.95652174,,,,,,,,,,,,,,,,115.6315,116.9254,116.9255,117.9489,return,0.4013,,42.96875,0,23,23,56,1,FBP-PT-19.png,0.37,1.2,57,0.5,,,,,,,,,,,,,,,,,,,,,,,,,,,,,,,,,,,,,,,,,,,,,
,,,,,WIN24_020,22,female,2024-01-30_12h48.16.610,jersey_experiment_5,2023.2.2,Win32,86.95652174,,,,,,,,,,,,,,,,117.9492,119.243,119.2431,120.5373,return,0.3957,,63.41145833,0,24,24,7,1,FBP-OG-81.png,0.4,1.2,8,0.5,,,,,,,,,,,,,,,,,,,,,,,,,,,,,,,,,,,,,,,,,,,,,
,,,,,WIN24_020,22,female,2024-01-30_12h48.16.610,jersey_experiment_5,2023.2.2,Win32,86.95652174,,,,,,,,,,,,,,,,120.5374,122.3437,122.3437,123.5531,return,0.5897,,41.796875,0,25,25,21,1,FBP-RB-18.png,0.37,1.2,22,1,,,,,,,,,,,,,,,,,,,,,,,,,,,,,,,,,,,,,,,,,,,,,
,,,,,WIN24_020,22,female,2024-01-30_12h48.16.610,jersey_experiment_5,2023.2.2,Win32,86.95652174,,,,,,,,,,,,,,,,123.5532,125.3536,125.3536,126.5298,return,0.4004,,77.21354167,0,26,26,43,1,FBP-YG-91.png,0.43,1.2,44,1,,,,,,,,,,,,,,,,,,,,,,,,,,,,,,,,,,,,,,,,,,,,,
,,,,,WIN24_020,22,female,2024-01-30_12h48.16.610,jersey_experiment_5,2023.2.2,Win32,86.95652174,,,,,,,,,,,,,,,,126.53,128.3281,128.3281,129.4317,return,0.3856,,46.35416667,0,27,27,31,1,FBP-YG-71.png,0.37,1.2,32,1,,,,,,,,,,,,,,,,,,,,,,,,,,,,,,,,,,,,,,,,,,,,,
,,,,,WIN24_020,22,female,2024-01-30_12h48.16.610,jersey_experiment_5,2023.2.2,Win32,86.95652174,,,,,,,,,,,,,,,,129.4319,130.7282,130.7283,132.0436,return,0.5804,,30.20833333,0,28,28,45,1,FBP-PT-17.png,0.35,1.2,46,0.5,,,,,,,,,,,,,,,,,,,,,,,,,,,,,,,,,,,,,,,,,,,,,
,,,,,WIN24_020,22,female,2024-01-30_12h48.16.610,jersey_experiment_5,2023.2.2,Win32,86.95652174,,,,,,,,,,,,,,,,132.0437,133.3377,133.3378,136.7615,return,0.5356,,46.484375,0,29,29,49,1,FBP-PT-17.png,0.45,1.2,50,0.5,,,,,,,,,,,,,,,,,,,,,,,,,,,,,,,,,,,,,,,,,,,,,
,,,,,WIN24_020,22,female,2024-01-30_12h48.16.610,jersey_experiment_5,2023.2.2,Win32,86.95652174,,,,,,,,,,,,,,,,136.7616,138.5546,138.5546,139.764,return,0.4221,,30.20833333,0,30,30,25,1,FBP-RB-19.png,0.35,1.2,26,1,,,,,,,,,,,,,,,,,,,,,,,,,,,,,,,,,,,,,,,,,,,,,
,,,,,WIN24_020,22,female,2024-01-30_12h48.16.610,jersey_experiment_5,2023.2.2,Win32,86.95652174,,,,,,,,,,,,,,,,139.7641,141.5642,141.5642,142.9145,return,0.5289,,91.14583333,0,31,31,28,1,FBP-RB-19.png,0.43,1.2,29,1,,,,,,,,,,,,,,,,,,,,,,,,,,,,,,,,,,,,,,,,,,,,,
,,,,,WIN24_020,22,female,2024-01-30_12h48.16.610,jersey_experiment_5,2023.2.2,Win32,86.95652174,,,,,,,,,,,,,,,,142.9149,144.2112,144.2112,146.6676,return,0.5452,,24.34895833,0,32,32,0,1,FBP-OG-71.png,0.35,1.2,1,0.5,,,,,,,,,,,,,,,,,,,,,,,,,,,,,,,,,,,,,,,,,,,,,
,,,,,WIN24_020,22,female,2024-01-30_12h48.16.610,jersey_experiment_5,2023.2.2,Win32,86.95652174,,,,,,,,,,,,,,,,146.6677,148.4618,148.4618,149.5382,return,0.4469,,91.796875,0,33,33,33,1,FBP-YG-71.png,0.43,1.2,34,1,,,,,,,,,,,,,,,,,,,,,,,,,,,,,,,,,,,,,,,,,,,,,
,,,,,WIN24_020,22,female,2024-01-30_12h48.16.610,jersey_experiment_5,2023.2.2,Win32,86.95652174,,,,,,,,,,,,,,,,149.5385,151.3431,151.3431,152.8324,return,0.5169,,45.57291667,0,34,34,26,1,FBP-RB-19.png,0.37,1.2,27,1,,,,,,,,,,,,,,,,,,,,,,,,,,,,,,,,,,,,,,,,,,,,,
,,,,,WIN24_020,22,female,2024-01-30_12h48.16.610,jersey_experiment_5,2023.2.2,Win32,86.95652174,,,,,,,,,,,,,,,,152.8327,154.1267,154.1267,155.1897,return,0.3981,,40.234375,0,35,35,1,1,FBP-OG-71.png,0.37,1.2,2,0.5,,,,,,,,,,,,,,,,,,,,,,,,,,,,,,,,,,,,,,,,,,,,,
,,,,,WIN24_020,22,female,2024-01-30_12h48.16.610,jersey_experiment_5,2023.2.2,Win32,86.95652174,,,,,,,,,,,,,,,,155.1899,156.4838,156.4839,157.9425,return,0.4354,,92.578125,0,36,36,54,1,FBP-PT-18.png,0.45,1.2,55,0.5,,,,,,,,,,,,,,,,,,,,,,,,,,,,,,,,,,,,,,,,,,,,,
,,,,,WIN24_020,22,female,2024-01-30_12h48.16.610,jersey_experiment_5,2023.2.2,Win32,86.95652174,,,,,,,,,,,,,,,,157.9427,159.7446,159.7447,161.0799,return,0.3857,,49.47916667,0,37,37,36,1,FBP-YG-81.png,0.37,1.2,37,1,,,,,,,,,,,,,,,,,,,,,,,,,,,,,,,,,,,,,,,,,,,,,
,,,,,WIN24_020,22,female,2024-01-30_12h48.16.610,jersey_experiment_5,2023.2.2,Win32,86.95652174,,,,,,,,,,,,,,,,161.0801,162.8799,162.8799,163.99,return,0.4239,,62.23958333,0,38,38,27,1,FBP-RB-19.png,0.4,1.2,28,1,,,,,,,,,,,,,,,,,,,,,,,,,,,,,,,,,,,,,,,,,,,,,
,,,,,WIN24_020,22,female,2024-01-30_12h48.16.610,jersey_experiment_5,2023.2.2,Win32,86.95652174,,,,,,,,,,,,,,,,163.9902,165.7885,165.7886,167.2095,return,0.4042,,84.375,0,39,39,23,1,FBP-RB-18.png,0.43,1.2,24,1,,,,,,,,,,,,,,,,,,,,,,,,,,,,,,,,,,,,,,,,,,,,,
,,,,,WIN24_020,22,female,2024-01-30_12h48.16.610,jersey_experiment_5,2023.2.2,Win32,86.95652174,,,,,,,,,,,,,,,,167.2097,169.0134,169.0135,170.0018,return,0.4015,,94.921875,0,40,40,44,1,FBP-YG-91.png,0.45,1.2,45,1,,,,,,,,,,,,,,,,,,,,,,,,,,,,,,,,,,,,,,,,,,,,,
,,,,,WIN24_020,22,female,2024-01-30_12h48.16.610,jersey_experiment_5,2023.2.2,Win32,86.95652174,,,,,,,,,,,,,,,,170.002,171.8003,171.8003,173.2842,return,0.6354,,30.078125,0,41,41,40,1,FBP-YG-91.png,0.35,1.2,41,1,,,,,,,,,,,,,,,,,,,,,,,,,,,,,,,,,,,,,,,,,,,,,
,,,,,WIN24_020,22,female,2024-01-30_12h48.16.610,jersey_experiment_5,2023.2.2,Win32,86.95652174,,,,,,,,,,,,,,,,173.2844,174.5862,174.5863,176.1039,return,0.419,,66.92708333,0,42,42,52,1,FBP-PT-18.png,0.4,1.2,53,0.5,,,,,,,,,,,,,,,,,,,,,,,,,,,,,,,,,,,,,,,,,,,,,
,,,,,WIN24_020,22,female,2024-01-30_12h48.16.610,jersey_experiment_5,2023.2.2,Win32,86.95652174,,,,,,,,,,,,,,,,176.1041,177.9039,177.9039,178.8569,return,0.3611,,83.72395833,0,43,43,38,1,FBP-YG-81.png,0.43,1.2,39,1,,,,,,,,,,,,,,,,,,,,,,,,,,,,,,,,,,,,,,,,,,,,,
,,,,,WIN24_020,22,female,2024-01-30_12h48.16.610,jersey_experiment_5,2023.2.2,Win32,86.95652174,,,,,,,,,,,,,,,,178.8572,180.1511,180.1512,181.3435,return,0.4611,,93.88020833,0,44,44,8,1,FBP-OG-81.png,0.43,1.2,9,0.5,,,,,,,,,,,,,,,,,,,,,,,,,,,,,,,,,,,,,,,,,,,,,
,,,,,WIN24_020,22,female,2024-01-30_12h48.16.610,jersey_experiment_5,2023.2.2,Win32,86.95652174,,,,,,,,,,,,,,,,181.3437,182.6492,182.6492,183.5629,return,0.4517,,96.484375,0,45,45,14,1,FBP-OG-91.png,0.45,1.2,15,0.5,,,,,,,,,,,,,,,,,,,,,,,,,,,,,,,,,,,,,,,,,,,,,
,,,,,WIN24_020,22,female,2024-01-30_12h48.16.610,jersey_experiment_5,2023.2.2,Win32,86.95652174,,,,,,,,,,,,,,,,183.5632,185.3672,185.3672,186.1395,return,0.3701,,96.484375,0,46,46,34,1,FBP-YG-71.png,0.45,1.2,35,1,,,,,,,,,,,,,,,,,,,,,,,,,,,,,,,,,,,,,,,,,,,,,
,,,,,WIN24_020,22,female,2024-01-30_12h48.16.610,jersey_experiment_5,2023.2.2,Win32,86.95652174,,,,,,,,,,,,,,,,186.1397,187.9325,187.9325,189.5084,return,0.4,,65.36458333,0,47,47,22,1,FBP-RB-18.png,0.4,1.2,23,1,,,,,,,,,,,,,,,,,,,,,,,,,,,,,,,,,,,,,,,,,,,,,
,,,,,WIN24_020,22,female,2024-01-30_12h48.16.610,jersey_experiment_5,2023.2.2,Win32,86.95652174,,,,,,,,,,,,,,,,189.5085,190.8141,190.8141,191.7868,return,0.3576,,85.41666667,0,48,48,59,1,FBP-PT-19.png,0.45,1.2,60,0.5,,,,,,,,,,,,,,,,,,,,,,,,,,,,,,,,,,,,,,,,,,,,,
,,,,,WIN24_020,22,female,2024-01-30_12h48.16.610,jersey_experiment_5,2023.2.2,Win32,86.95652174,,,,,,,,,,,,,,,,191.7871,193.5789,193.579,194.487,return,0.4022,,88.41145833,0,49,49,39,1,FBP-YG-81.png,0.45,1.2,40,1,,,,,,,,,,,,,,,,,,,,,,,,,,,,,,,,,,,,,,,,,,,,,
,,,,,WIN24_020,22,female,2024-01-30_12h48.16.610,jersey_experiment_5,2023.2.2,Win32,86.95652174,,,,,,,,,,,,,,,,194.4871,195.7869,195.7869,196.634,return,0.3702,,88.41145833,0,50,50,4,1,FBP-OG-71.png,0.45,1.2,5,0.5,,,,,,,,,,,,,,,,,,,,,,,,,,,,,,,,,,,,,,,,,,,,,
,,,,,WIN24_020,22,female,2024-01-30_12h48.16.610,jersey_experiment_5,2023.2.2,Win32,86.95652174,,,,,,,,,,,,,,,,196.6343,198.4293,198.4293,199.2854,return,0.4352,,91.40625,0,51,51,24,1,FBP-RB-18.png,0.45,1.2,25,1,,,,,,,,,,,,,,,,,,,,,,,,,,,,,,,,,,,,,,,,,,,,,
,,,,,WIN24_020,22,female,2024-01-30_12h48.16.610,jersey_experiment_5,2023.2.2,Win32,86.95652174,,,,,,,,,,,,,,,,199.2855,201.0858,201.0858,202.9677,return,0.7534,,24.609375,0,52,52,20,1,FBP-RB-18.png,0.35,1.2,21,1,,,,,,,,,,,,,,,,,,,,,,,,,,,,,,,,,,,,,,,,,,,,,
,,,,,WIN24_020,22,female,2024-01-30_12h48.16.610,jersey_experiment_5,2023.2.2,Win32,86.95652174,,,,,,,,,,,,,,,,202.9679,204.261,204.261,205.7561,return,0.4471,,84.765625,0,53,53,13,1,FBP-OG-91.png,0.43,1.2,14,0.5,,,,,,,,,,,,,,,,,,,,,,,,,,,,,,,,,,,,,,,,,,,,,
,,,,,WIN24_020,22,female,2024-01-30_12h48.16.610,jersey_experiment_5,2023.2.2,Win32,86.95652174,,,,,,,,,,,,,,,,205.7562,207.5559,207.556,208.4344,return,0.377,,88.671875,0,54,54,19,1,FBP-RB-17.png,0.45,1.2,20,1,,,,,,,,,,,,,,,,,,,,,,,,,,,,,,,,,,,,,,,,,,,,,
,,,,,WIN24_020,22,female,2024-01-30_12h48.16.610,jersey_experiment_5,2023.2.2,Win32,86.95652174,,,,,,,,,,,,,,,,208.4346,209.7332,209.7332,210.9208,return,0.3529,,20.18229167,0,55,55,10,1,FBP-OG-91.png,0.35,1.2,11,0.5,,,,,,,,,,,,,,,,,,,,,,,,,,,,,,,,,,,,,,,,,,,,,
,,,,,WIN24_020,22,female,2024-01-30_12h48.16.610,jersey_experiment_5,2023.2.2,Win32,86.95652174,,,,,,,,,,,,,,,,210.921,212.7169,212.717,213.5638,return,0.44,,20.18229167,0,56,56,15,1,FBP-RB-17.png,0.35,1.2,16,1,,,,,,,,,,,,,,,,,,,,,,,,,,,,,,,,,,,,,,,,,,,,,
,,,,,WIN24_020,22,female,2024-01-30_12h48.16.610,jersey_experiment_5,2023.2.2,Win32,86.95652174,,,,,,,,,,,,,,,,213.564,215.3592,215.3592,217.4389,return,1.1194,,90.10416667,0,57,57,17,1,FBP-RB-17.png,0.4,1.2,18,1,,,,,,,,,,,,,,,,,,,,,,,,,,,,,,,,,,,,,,,,,,,,,
,,,,,WIN24_020,22,female,2024-01-30_12h48.16.610,jersey_experiment_5,2023.2.2,Win32,86.95652174,,,,,,,,,,,,,,,,217.439,218.7318,218.7318,220.1442,return,0.3996,,58.984375,0,58,58,12,1,FBP-OG-91.png,0.4,1.2,13,0.5,,,,,,,,,,,,,,,,,,,,,,,,,,,,,,,,,,,,,,,,,,,,,
,,,,,WIN24_020,22,female,2024-01-30_12h48.16.610,jersey_experiment_5,2023.2.2,Win32,86.95652174,,,,,,,,,,,,,,,,220.1443,221.4388,221.4388,222.5212,return,0.4017,,39.71354167,0,59,59,51,1,FBP-PT-18.png,0.37,1.2,52,0.5,,,,,,,,,,,,,,,,,,,,,,,,,,,,,,,,,,,,,,,,,,,,,
,,,,,WIN24_020,22,female,2024-01-30_12h48.16.610,jersey_experiment_5,2023.2.2,Win32,86.95652174,,,,,,,,,,,,,,,,222.5233,224.3194,224.3194,226.0757,return,0.4246,,67.578125,,,,,,FBP-RB-91.png,0.4,1.2,28,1,0,0,0,27,1,,,,,,,,,,,,,,,,,,,,,,,,,,,,,,,,,,,,,,,,
,,,,,WIN24_020,22,female,2024-01-30_12h48.16.610,jersey_experiment_5,2023.2.2,Win32,86.95652174,,,,,,,,,,,,,,,,226.0759,227.3765,227.3765,228.3453,return,0.3668,,82.55208333,,,,,,FBP-OG-18.png,0.43,1.2,9,0.5,0,1,1,8,1,,,,,,,,,,,,,,,,,,,,,,,,,,,,,,,,,,,,,,,,
,,,,,WIN24_020,22,female,2024-01-30_12h48.16.610,jersey_experiment_5,2023.2.2,Win32,86.95652174,,,,,,,,,,,,,,,,228.3456,230.1411,230.1411,230.9452,return,0.436,,82.55208333,,,,,,FBP-YG-19.png,0.4,1.2,43,1,0,2,2,42,1,,,,,,,,,,,,,,,,,,,,,,,,,,,,,,,,,,,,,,,,
,,,,,WIN24_020,22,female,2024-01-30_12h48.16.610,jersey_experiment_5,2023.2.2,Win32,86.95652174,,,,,,,,,,,,,,,,230.9453,232.2394,232.2394,234.0158,return,0.9903,,87.76041667,,,,,,FBP-PT-71.png,0.43,1.2,49,0.5,0,3,3,48,1,,,,,,,,,,,,,,,,,,,,,,,,,,,,,,,,,,,,,,,,
,,,,,WIN24_020,22,female,2024-01-30_12h48.16.610,jersey_experiment_5,2023.2.2,Win32,86.95652174,,,,,,,,,,,,,,,,234.0159,235.3107,235.3107,236.7687,return,0.7177,,56.11979167,,,,,,FBP-OG-18.png,0.4,1.2,8,0.5,0,4,4,7,1,,,,,,,,,,,,,,,,,,,,,,,,,,,,,,,,,,,,,,,,
,,,,,WIN24_020,22,female,2024-01-30_12h48.16.610,jersey_experiment_5,2023.2.2,Win32,86.95652174,,,,,,,,,,,,,,,,236.7688,238.0611,238.0611,239.4748,return,0.3766,,80.46875,,,,,,FBP-OG-18.png,0.45,1.2,10,0.5,0,5,5,9,1,,,,,,,,,,,,,,,,,,,,,,,,,,,,,,,,,,,,,,,,
,,,,,WIN24_020,22,female,2024-01-30_12h48.16.610,jersey_experiment_5,2023.2.2,Win32,86.95652174,,,,,,,,,,,,,,,,239.4749,241.2708,241.2709,242.0887,return,0.3686,,91.92708333,,,,,,FBP-RB-81.png,0.45,1.2,25,1,0,6,6,24,1,,,,,,,,,,,,,,,,,,,,,,,,,,,,,,,,,,,,,,,,
,,,,,WIN24_020,22,female,2024-01-30_12h48.16.610,jersey_experiment_5,2023.2.2,Win32,86.95652174,,,,,,,,,,,,,,,,242.0889,243.8873,243.8873,245.6165,return,0.4373,,51.82291667,,,,,,FBP-RB-81.png,0.37,1.2,22,1,0,7,7,21,1,,,,,,,,,,,,,,,,,,,,,,,,,,,,,,,,,,,,,,,,
,,,,,WIN24_020,22,female,2024-01-30_12h48.16.610,jersey_experiment_5,2023.2.2,Win32,86.95652174,,,,,,,,,,,,,,,,245.6167,246.9207,246.9208,248.0753,return,0.3884,,31.25,,,,,,FBP-PT-71.png,0.35,1.2,46,0.5,0,8,8,45,1,,,,,,,,,,,,,,,,,,,,,,,,,,,,,,,,,,,,,,,,
,,,,,WIN24_020,22,female,2024-01-30_12h48.16.610,jersey_experiment_5,2023.2.2,Win32,86.95652174,,,,,,,,,,,,,,,,248.0755,249.3701,249.3701,250.483,return,0.3891,,87.109375,,,,,,FBP-PT-91.png,0.45,1.2,60,0.5,0,9,9,59,1,,,,,,,,,,,,,,,,,,,,,,,,,,,,,,,,,,,,,,,,
,,,,,WIN24_020,22,female,2024-01-30_12h48.16.610,jersey_experiment_5,2023.2.2,Win32,86.95652174,,,,,,,,,,,,,,,,250.4832,252.2752,252.2752,253.9324,return,0.4927,,88.54166667,,,,,,FBP-YG-17.png,0.45,1.2,35,1,0,10,10,34,1,,,,,,,,,,,,,,,,,,,,,,,,,,,,,,,,,,,,,,,,
,,,,,WIN24_020,22,female,2024-01-30_12h48.16.610,jersey_experiment_5,2023.2.2,Win32,86.95652174,,,,,,,,,,,,,,,,253.9326,255.2305,255.2305,256.4152,return,0.387,,58.85416667,,,,,,FBP-PT-91.png,0.4,1.2,58,0.5,0,11,11,57,1,,,,,,,,,,,,,,,,,,,,,,,,,,,,,,,,,,,,,,,,
,,,,,WIN24_020,22,female,2024-01-30_12h48.16.610,jersey_experiment_5,2023.2.2,Win32,86.95652174,,,,,,,,,,,,,,,,256.4154,258.2168,258.2168,259.2715,return,0.4313,,60.9375,,,,,,FBP-RB-81.png,0.4,1.2,23,1,0,12,12,22,1,,,,,,,,,,,,,,,,,,,,,,,,,,,,,,,,,,,,,,,,
,,,,,WIN24_020,22,female,2024-01-30_12h48.16.610,jersey_experiment_5,2023.2.2,Win32,86.95652174,,,,,,,,,,,,,,,,259.2716,261.0637,261.0637,262.0521,return,0.3866,,84.89583333,,,,,,FBP-YG-18.png,0.45,1.2,40,1,0,13,13,39,1,,,,,,,,,,,,,,,,,,,,,,,,,,,,,,,,,,,,,,,,
,,,,,WIN24_020,22,female,2024-01-30_12h48.16.610,jersey_experiment_5,2023.2.2,Win32,86.95652174,,,,,,,,,,,,,,,,262.0522,263.8503,263.8503,264.8716,return,0.4213,,87.5,,,,,,FBP-YG-18.png,0.43,1.2,39,1,0,14,14,38,1,,,,,,,,,,,,,,,,,,,,,,,,,,,,,,,,,,,,,,,,
,,,,,WIN24_020,22,female,2024-01-30_12h48.16.610,jersey_experiment_5,2023.2.2,Win32,86.95652174,,,,,,,,,,,,,,,,264.8718,266.1658,266.1658,267.488,return,0.8848,,87.5,,,,,,FBP-PT-81.png,0.43,1.2,54,0.5,0,15,15,53,1,,,,,,,,,,,,,,,,,,,,,,,,,,,,,,,,,,,,,,,,
,,,,,WIN24_020,22,female,2024-01-30_12h48.16.610,jersey_experiment_5,2023.2.2,Win32,86.95652174,,,,,,,,,,,,,,,,267.4881,269.2856,269.2857,270.3838,return,0.592,,91.015625,,,,,,FBP-RB-91.png,0.45,1.2,30,1,0,16,16,29,1,,,,,,,,,,,,,,,,,,,,,,,,,,,,,,,,,,,,,,,,
,,,,,WIN24_020,22,female,2024-01-30_12h48.16.610,jersey_experiment_5,2023.2.2,Win32,86.95652174,,,,,,,,,,,,,,,,270.3839,272.1825,272.1825,273.6979,return,0.5413,,24.609375,,,,,,FBP-YG-19.png,0.35,1.2,41,1,0,17,17,40,1,,,,,,,,,,,,,,,,,,,,,,,,,,,,,,,,,,,,,,,,
,,,,,WIN24_020,22,female,2024-01-30_12h48.16.610,jersey_experiment_5,2023.2.2,Win32,86.95652174,,,,,,,,,,,,,,,,273.698,274.9935,274.9935,277.1467,return,0.5175,,55.59895833,,,,,,FBP-OG-19.png,0.37,1.2,12,0.5,0,18,18,11,1,,,,,,,,,,,,,,,,,,,,,,,,,,,,,,,,,,,,,,,,
,,,,,WIN24_020,22,female,2024-01-30_12h48.16.610,jersey_experiment_5,2023.2.2,Win32,86.95652174,,,,,,,,,,,,,,,,277.1468,278.9476,278.9476,280.0306,return,0.4249,,28.64583333,,,,,,FBP-YG-18.png,0.35,1.2,36,1,0,19,19,35,1,,,,,,,,,,,,,,,,,,,,,,,,,,,,,,,,,,,,,,,,
,,,,,WIN24_020,22,female,2024-01-30_12h48.16.610,jersey_experiment_5,2023.2.2,Win32,86.95652174,,,,,,,,,,,,,,,,280.0307,281.3241,281.3241,282.6665,return,0.3902,,63.671875,,,,,,FBP-OG-17.png,0.4,1.2,3,0.5,0,20,20,2,1,,,,,,,,,,,,,,,,,,,,,,,,,,,,,,,,,,,,,,,,
,,,,,WIN24_020,22,female,2024-01-30_12h48.16.610,jersey_experiment_5,2023.2.2,Win32,86.95652174,,,,,,,,,,,,,,,,282.6666,283.9589,283.9589,285.1117,return,0.364,,49.609375,,,,,,FBP-OG-17.png,0.37,1.2,2,0.5,0,21,21,1,1,,,,,,,,,,,,,,,,,,,,,,,,,,,,,,,,,,,,,,,,
,,,,,WIN24_020,22,female,2024-01-30_12h48.16.610,jersey_experiment_5,2023.2.2,Win32,86.95652174,,,,,,,,,,,,,,,,285.112,286.9125,286.9125,288.0725,return,0.4671,,79.42708333,,,,,,FBP-YG-17.png,0.43,1.2,34,1,0,22,22,33,1,,,,,,,,,,,,,,,,,,,,,,,,,,,,,,,,,,,,,,,,
,,,,,WIN24_020,22,female,2024-01-30_12h48.16.610,jersey_experiment_5,2023.2.2,Win32,86.95652174,,,,,,,,,,,,,,,,288.0727,289.3714,289.3714,290.4413,return,0.5309,,88.93229167,,,,,,FBP-PT-81.png,0.45,1.2,55,0.5,0,23,23,54,1,,,,,,,,,,,,,,,,,,,,,,,,,,,,,,,,,,,,,,,,
,,,,,WIN24_020,22,female,2024-01-30_12h48.16.610,jersey_experiment_5,2023.2.2,Win32,86.95652174,,,,,,,,,,,,,,,,290.4415,292.2418,292.2418,295.4402,return,2.3764,,52.08333333,,,,,,FBP-RB-71.png,0.37,1.2,17,1,0,24,24,16,1,,,,,,,,,,,,,,,,,,,,,,,,,,,,,,,,,,,,,,,,
,,,,,WIN24_020,22,female,2024-01-30_12h48.16.610,jersey_experiment_5,2023.2.2,Win32,86.95652174,,,,,,,,,,,,,,,,295.4403,297.2422,297.2423,299.0757,return,0.3988,,85.9375,,,,,,FBP-RB-71.png,0.45,1.2,20,1,0,25,25,19,1,,,,,,,,,,,,,,,,,,,,,,,,,,,,,,,,,,,,,,,,
,,,,,WIN24_020,22,female,2024-01-30_12h48.16.610,jersey_experiment_5,2023.2.2,Win32,86.95652174,,,,,,,,,,,,,,,,299.0759,300.8781,300.8781,302.0282,return,0.6102,,50.390625,,,,,,FBP-YG-18.png,0.37,1.2,37,1,0,26,26,36,1,,,,,,,,,,,,,,,,,,,,,,,,,,,,,,,,,,,,,,,,
,,,,,WIN24_020,22,female,2024-01-30_12h48.16.610,jersey_experiment_5,2023.2.2,Win32,86.95652174,,,,,,,,,,,,,,,,302.0283,303.8315,303.8315,305.1009,return,0.3787,,74.21875,,,,,,FBP-YG-19.png,0.43,1.2,44,1,0,27,27,43,1,,,,,,,,,,,,,,,,,,,,,,,,,,,,,,,,,,,,,,,,
,,,,,WIN24_020,22,female,2024-01-30_12h48.16.610,jersey_experiment_5,2023.2.2,Win32,86.95652174,,,,,,,,,,,,,,,,305.101,306.3955,306.3955,308.5479,return,0.461,,58.33333333,,,,,,FBP-OG-19.png,0.43,1.2,14,0.5,0,28,28,13,1,,,,,,,,,,,,,,,,,,,,,,,,,,,,,,,,,,,,,,,,
,,,,,WIN24_020,22,female,2024-01-30_12h48.16.610,jersey_experiment_5,2023.2.2,Win32,86.95652174,,,,,,,,,,,,,,,,308.5481,310.349,310.349,311.4026,return,0.381,,47.78645833,,,,,,FBP-RB-91.png,0.37,1.2,27,1,0,29,29,26,1,,,,,,,,,,,,,,,,,,,,,,,,,,,,,,,,,,,,,,,,
,,,,,WIN24_020,22,female,2024-01-30_12h48.16.610,jersey_experiment_5,2023.2.2,Win32,86.95652174,,,,,,,,,,,,,,,,311.4028,312.6968,312.6969,313.7674,return,0.3605,,34.375,,,,,,FBP-OG-19.png,0.35,1.2,11,0.5,0,30,30,10,1,,,,,,,,,,,,,,,,,,,,,,,,,,,,,,,,,,,,,,,,
,,,,,WIN24_020,22,female,2024-01-30_12h48.16.610,jersey_experiment_5,2023.2.2,Win32,86.95652174,,,,,,,,,,,,,,,,313.7676,315.5616,315.5616,316.3955,return,0.4022,,35.15625,,,,,,FBP-RB-81.png,0.35,1.2,21,1,0,31,31,20,1,,,,,,,,,,,,,,,,,,,,,,,,,,,,,,,,,,,,,,,,
,,,,,WIN24_020,22,female,2024-01-30_12h48.16.610,jersey_experiment_5,2023.2.2,Win32,86.95652174,,,,,,,,,,,,,,,,316.3956,318.196,318.196,319.3599,return,0.4,,83.07291667,,,,,,FBP-RB-81.png,0.43,1.2,24,1,0,32,32,23,1,,,,,,,,,,,,,,,,,,,,,,,,,,,,,,,,,,,,,,,,
,,,,,WIN24_020,22,female,2024-01-30_12h48.16.610,jersey_experiment_5,2023.2.2,Win32,86.95652174,,,,,,,,,,,,,,,,319.36,320.6523,320.6523,322.2267,return,0.3635,,59.765625,,,,,,FBP-OG-19.png,0.4,1.2,13,0.5,0,33,33,12,1,,,,,,,,,,,,,,,,,,,,,,,,,,,,,,,,,,,,,,,,
,,,,,WIN24_020,22,female,2024-01-30_12h48.16.610,jersey_experiment_5,2023.2.2,Win32,86.95652174,,,,,,,,,,,,,,,,322.2269,324.0308,324.0308,324.866,return,0.3768,,71.61458333,,,,,,FBP-YG-18.png,0.4,1.2,38,1,0,34,34,37,1,,,,,,,,,,,,,,,,,,,,,,,,,,,,,,,,,,,,,,,,
,,,,,WIN24_020,22,female,2024-01-30_12h48.16.610,jersey_experiment_5,2023.2.2,Win32,86.95652174,,,,,,,,,,,,,,,,324.8662,326.1698,326.1699,327.3249,return,0.3999,,86.58854167,,,,,,FBP-OG-17.png,0.45,1.2,5,0.5,0,35,35,4,1,,,,,,,,,,,,,,,,,,,,,,,,,,,,,,,,,,,,,,,,
,,,,,WIN24_020,22,female,2024-01-30_12h48.16.610,jersey_experiment_5,2023.2.2,Win32,86.95652174,,,,,,,,,,,,,,,,327.325,328.62,328.6201,329.8409,return,0.3746,,43.48958333,,,,,,FBP-OG-18.png,0.35,1.2,6,0.5,0,36,36,5,1,,,,,,,,,,,,,,,,,,,,,,,,,,,,,,,,,,,,,,,,
,,,,,WIN24_020,22,female,2024-01-30_12h48.16.610,jersey_experiment_5,2023.2.2,Win32,86.95652174,,,,,,,,,,,,,,,,329.8411,331.6387,331.6388,332.9019,return,0.3783,,66.92708333,,,,,,FBP-RB-71.png,0.4,1.2,18,1,0,37,37,17,1,,,,,,,,,,,,,,,,,,,,,,,,,,,,,,,,,,,,,,,,
,,,,,WIN24_020,22,female,2024-01-30_12h48.16.610,jersey_experiment_5,2023.2.2,Win32,86.95652174,,,,,,,,,,,,,,,,332.9021,334.1966,334.1966,335.227,return,0.3707,,47.00520833,,,,,,FBP-PT-71.png,0.37,1.2,47,0.5,0,38,38,46,1,,,,,,,,,,,,,,,,,,,,,,,,,,,,,,,,,,,,,,,,
,,,,,WIN24_020,22,female,2024-01-30_12h48.16.610,jersey_experiment_5,2023.2.2,Win32,86.95652174,,,,,,,,,,,,,,,,335.2273,336.5238,336.5238,337.7023,return,0.3907,,28.64583333,,,,,,FBP-PT-81.png,0.35,1.2,51,0.5,0,39,39,50,1,,,,,,,,,,,,,,,,,,,,,,,,,,,,,,,,,,,,,,,,
,,,,,WIN24_020,22,female,2024-01-30_12h48.16.610,jersey_experiment_5,2023.2.2,Win32,86.95652174,,,,,,,,,,,,,,,,337.7024,339.5017,339.5017,340.3136,return,0.4236,,28.64583333,,,,,,FBP-RB-71.png,0.35,1.2,16,1,0,40,40,15,1,,,,,,,,,,,,,,,,,,,,,,,,,,,,,,,,,,,,,,,,
,,,,,WIN24_020,22,female,2024-01-30_12h48.16.610,jersey_experiment_5,2023.2.2,Win32,86.95652174,,,,,,,,,,,,,,,,340.3137,341.6059,341.6059,343.1512,return,0.3802,,54.42708333,,,,,,FBP-OG-18.png,0.37,1.2,7,0.5,0,41,41,6,1,,,,,,,,,,,,,,,,,,,,,,,,,,,,,,,,,,,,,,,,
,,,,,WIN24_020,22,female,2024-01-30_12h48.16.610,jersey_experiment_5,2023.2.2,Win32,86.95652174,,,,,,,,,,,,,,,,343.1514,344.945,344.945,346.2336,return,0.4726,,53.515625,,,,,,FBP-YG-19.png,0.37,1.2,42,1,0,42,42,41,1,,,,,,,,,,,,,,,,,,,,,,,,,,,,,,,,,,,,,,,,
,,,,,WIN24_020,22,female,2024-01-30_12h48.16.610,jersey_experiment_5,2023.2.2,Win32,86.95652174,,,,,,,,,,,,,,,,346.2338,348.0304,348.0304,349.1023,return,0.4606,,71.875,,,,,,FBP-RB-91.png,0.43,1.2,29,1,0,43,43,28,1,,,,,,,,,,,,,,,,,,,,,,,,,,,,,,,,,,,,,,,,
,,,,,WIN24_020,22,female,2024-01-30_12h48.16.610,jersey_experiment_5,2023.2.2,Win32,86.95652174,,,,,,,,,,,,,,,,349.1024,350.9042,350.9042,351.7924,return,0.411,,83.72395833,,,,,,FBP-YG-17.png,0.4,1.2,33,1,0,44,44,32,1,,,,,,,,,,,,,,,,,,,,,,,,,,,,,,,,,,,,,,,,
,,,,,WIN24_020,22,female,2024-01-30_12h48.16.610,jersey_experiment_5,2023.2.2,Win32,86.95652174,,,,,,,,,,,,,,,,351.7926,353.0905,353.0905,354.2552,return,0.4002,,86.84895833,,,,,,FBP-PT-81.png,0.4,1.2,53,0.5,0,45,45,52,1,,,,,,,,,,,,,,,,,,,,,,,,,,,,,,,,,,,,,,,,
,,,,,WIN24_020,22,female,2024-01-30_12h48.16.610,jersey_experiment_5,2023.2.2,Win32,86.95652174,,,,,,,,,,,,,,,,354.2554,355.5479,355.5479,357.5925,return,0.418,,64.97395833,,,,,,FBP-PT-81.png,0.37,1.2,52,0.5,0,46,46,51,1,,,,,,,,,,,,,,,,,,,,,,,,,,,,,,,,,,,,,,,,
,,,,,WIN24_020,22,female,2024-01-30_12h48.16.610,jersey_experiment_5,2023.2.2,Win32,86.95652174,,,,,,,,,,,,,,,,357.5927,358.8914,358.8914,360.028,return,0.3695,,87.23958333,,,,,,FBP-OG-17.png,0.43,1.2,4,0.5,0,47,47,3,1,,,,,,,,,,,,,,,,,,,,,,,,,,,,,,,,,,,,,,,,
,,,,,WIN24_020,22,female,2024-01-30_12h48.16.610,jersey_experiment_5,2023.2.2,Win32,86.95652174,,,,,,,,,,,,,,,,360.0282,361.8203,361.8204,363.0202,return,0.378,,53.125,,,,,,FBP-YG-17.png,0.35,1.2,31,1,0,48,48,30,1,,,,,,,,,,,,,,,,,,,,,,,,,,,,,,,,,,,,,,,,
,,,,,WIN24_020,22,female,2024-01-30_12h48.16.610,jersey_experiment_5,2023.2.2,Win32,86.95652174,,,,,,,,,,,,,,,,363.0204,364.8164,364.8164,365.8634,return,0.478,,55.98958333,,,,,,FBP-YG-17.png,0.37,1.2,32,1,0,49,49,31,1,,,,,,,,,,,,,,,,,,,,,,,,,,,,,,,,,,,,,,,,
,,,,,WIN24_020,22,female,2024-01-30_12h48.16.610,jersey_experiment_5,2023.2.2,Win32,86.95652174,,,,,,,,,,,,,,,,365.8637,367.1606,367.1607,368.3031,return,0.3649,,66.14583333,,,,,,FBP-PT-71.png,0.4,1.2,48,0.5,0,50,50,47,1,,,,,,,,,,,,,,,,,,,,,,,,,,,,,,,,,,,,,,,,
,,,,,WIN24_020,22,female,2024-01-30_12h48.16.610,jersey_experiment_5,2023.2.2,Win32,86.95652174,,,,,,,,,,,,,,,,368.3033,369.6047,369.6047,371.1973,return,0.8474,,46.61458333,,,,,,FBP-PT-91.png,0.35,1.2,56,0.5,0,51,51,55,1,,,,,,,,,,,,,,,,,,,,,,,,,,,,,,,,,,,,,,,,
,,,,,WIN24_020,22,female,2024-01-30_12h48.16.610,jersey_experiment_5,2023.2.2,Win32,86.95652174,,,,,,,,,,,,,,,,371.1975,372.4918,372.4918,374.8403,return,1.6068,,84.50520833,,,,,,FBP-PT-91.png,0.43,1.2,59,0.5,0,52,52,58,1,,,,,,,,,,,,,,,,,,,,,,,,,,,,,,,,,,,,,,,,
,,,,,WIN24_020,22,female,2024-01-30_12h48.16.610,jersey_experiment_5,2023.2.2,Win32,86.95652174,,,,,,,,,,,,,,,,374.8405,376.1367,376.1368,378.205,return,0.9873,,60.546875,,,,,,FBP-PT-91.png,0.37,1.2,57,0.5,0,53,53,56,1,,,,,,,,,,,,,,,,,,,,,,,,,,,,,,,,,,,,,,,,
,,,,,WIN24_020,22,female,2024-01-30_12h48.16.610,jersey_experiment_5,2023.2.2,Win32,86.95652174,,,,,,,,,,,,,,,,378.2052,380.005,380.005,381.2758,return,0.3459,,35.9375,,,,,,FBP-RB-91.png,0.35,1.2,26,1,0,54,54,25,1,,,,,,,,,,,,,,,,,,,,,,,,,,,,,,,,,,,,,,,,
,,,,,WIN24_020,22,female,2024-01-30_12h48.16.610,jersey_experiment_5,2023.2.2,Win32,86.95652174,,,,,,,,,,,,,,,,381.2759,382.5721,382.5721,383.6466,return,0.4018,,29.42708333,,,,,,FBP-OG-17.png,0.35,1.2,1,0.5,0,55,55,0,1,,,,,,,,,,,,,,,,,,,,,,,,,,,,,,,,,,,,,,,,
,,,,,WIN24_020,22,female,2024-01-30_12h48.16.610,jersey_experiment_5,2023.2.2,Win32,86.95652174,,,,,,,,,,,,,,,,383.6467,384.9397,384.9397,387.5623,return,1.7183,,89.453125,,,,,,FBP-OG-19.png,0.45,1.2,15,0.5,0,56,56,14,1,,,,,,,,,,,,,,,,,,,,,,,,,,,,,,,,,,,,,,,,
,,,,,WIN24_020,22,female,2024-01-30_12h48.16.610,jersey_experiment_5,2023.2.2,Win32,86.95652174,,,,,,,,,,,,,,,,387.5625,389.3633,389.3633,390.5388,return,0.4366,,87.76041667,,,,,,FBP-RB-71.png,0.43,1.2,19,1,0,57,57,18,1,,,,,,,,,,,,,,,,,,,,,,,,,,,,,,,,,,,,,,,,
,,,,,WIN24_020,22,female,2024-01-30_12h48.16.610,jersey_experiment_5,2023.2.2,Win32,86.95652174,,,,,,,,,,,,,,,,390.5389,391.8332,391.8333,392.9882,return,0.4039,,92.1875,,,,,,FBP-PT-71.png,0.45,1.2,50,0.5,0,58,58,49,1,,,,,,,,,,,,,,,,,,,,,,,,,,,,,,,,,,,,,,,,
,,,,,WIN24_020,22,female,2024-01-30_12h48.16.610,jersey_experiment_5,2023.2.2,Win32,86.95652174,,,,,,,,,,,,,,,,392.9884,394.7822,394.7822,395.5983,return,0.4122,,92.44791667,,,,,,FBP-YG-19.png,0.45,1.2,45,1,0,59,59,44,1,,,,,,,,,,,,,,,,,,,,,,,,,,,,,,,,,,,,,,,,
,,,,,WIN24_020,22,female,2024-01-30_12h48.16.610,jersey_experiment_5,2023.2.2,Win32,86.95652174,,,,,,,,,,,,,,,,,,,,,,,,,,,,,,,,,,,,,,,395.5986,515.6102,,,,,,,,,,,,,,,,,,,,,,,,,,,,,,,,,,,,,,
,,,,,WIN24_020,22,female,2024-01-30_12h48.16.610,jersey_experiment_5,2023.2.2,Win32,86.95652174,,,,,,,,,,,,,,,,,,,,,,,,,,,,,,,,,,,,,,,,,515.6102,519.0808,return,3.4534,,,,,,,,,,,,,,,,,,,,,,,,,,,,,,,,,,
,,,,,WIN24_020,22,female,2024-01-30_12h48.16.610,jersey_experiment_5,2023.2.2,Win32,86.95652174,,,,,,,,,,,,,,,,519.0866,520.8807,520.8807,524.0143,return,1.3512,,50.390625,,,,,,FBP-PT-19.png,0.37,1.2,57,1,,,,,,,,,,,,,0,0,0,56,1,,,,,,,,,,,,,,,,,,,,,,,,,,,,
,,,,,WIN24_020,22,female,2024-01-30_12h48.16.610,jersey_experiment_5,2023.2.2,Win32,86.95652174,,,,,,,,,,,,,,,,524.0146,525.8152,525.8152,526.4381,return,0.1535,,58.85416667,,,,,,FBP-OG-81.png,0.37,1.2,7,1,,,,,,,,,,,,,0,1,1,6,1,,,,,,,,,,,,,,,,,,,,,,,,,,,,
,,,,,WIN24_020,22,female,2024-01-30_12h48.16.610,jersey_experiment_5,2023.2.2,Win32,86.95652174,,,,,,,,,,,,,,,,526.4383,528.2338,528.2339,529.7093,return,0.8123,,67.1875,,,,,,FBP-OG-81.png,0.4,1.2,8,1,,,,,,,,,,,,,0,2,2,7,1,,,,,,,,,,,,,,,,,,,,,,,,,,,,
,,,,,WIN24_020,22,female,2024-01-30_12h48.16.610,jersey_experiment_5,2023.2.2,Win32,86.95652174,,,,,,,,,,,,,,,,529.7095,531.5089,531.5089,532.2693,return,0.1414,,49.47916667,,,,,,FBP-OG-71.png,0.37,1.2,2,1,,,,,,,,,,,,,0,3,3,1,1,,,,,,,,,,,,,,,,,,,,,,,,,,,,
,,,,,WIN24_020,22,female,2024-01-30_12h48.16.610,jersey_experiment_5,2023.2.2,Win32,86.95652174,,,,,,,,,,,,,,,,532.2696,534.0626,534.0626,534.7921,return,0.1187,,76.5625,,,,,,FBP-PT-17.png,0.43,1.2,49,1,,,,,,,,,,,,,0,4,4,48,1,,,,,,,,,,,,,,,,,,,,,,,,,,,,
,,,,,WIN24_020,22,female,2024-01-30_12h48.16.610,jersey_experiment_5,2023.2.2,Win32,86.95652174,,,,,,,,,,,,,,,,534.7922,536.5871,536.5871,537.0972,return,0.0961,,85.80729167,,,,,,FBP-OG-71.png,0.45,1.2,5,1,,,,,,,,,,,,,0,5,5,4,1,,,,,,,,,,,,,,,,,,,,,,,,,,,,
,,,,,WIN24_020,22,female,2024-01-30_12h48.16.610,jersey_experiment_5,2023.2.2,Win32,86.95652174,,,,,,,,,,,,,,,,537.0972,538.3897,538.3897,539.4695,return,0.1543,,58.72395833,,,,,,FBP-RB-18.png,0.37,1.2,22,0.5,,,,,,,,,,,,,0,6,6,21,1,,,,,,,,,,,,,,,,,,,,,,,,,,,,
,,,,,WIN24_020,22,female,2024-01-30_12h48.16.610,jersey_experiment_5,2023.2.2,Win32,86.95652174,,,,,,,,,,,,,,,,539.4697,540.766,540.766,541.6757,return,0.1061,,77.99479167,,,,,,FBP-RB-18.png,0.43,1.2,24,0.5,,,,,,,,,,,,,0,7,7,23,1,,,,,,,,,,,,,,,,,,,,,,,,,,,,
,,,,,WIN24_020,22,female,2024-01-30_12h48.16.610,jersey_experiment_5,2023.2.2,Win32,86.95652174,,,,,,,,,,,,,,,,541.6759,543.4763,543.4764,544.1561,return,0.0588,,47.265625,,,,,,FBP-PT-18.png,0.35,1.2,51,1,,,,,,,,,,,,,0,8,8,50,1,,,,,,,,,,,,,,,,,,,,,,,,,,,,
,,,,,WIN24_020,22,female,2024-01-30_12h48.16.610,jersey_experiment_5,2023.2.2,Win32,86.95652174,,,,,,,,,,,,,,,,544.1562,545.4487,545.4487,546.427,return,0.1414,,74.34895833,,,,,,FBP-RB-19.png,0.45,1.2,30,0.5,,,,,,,,,,,,,0,9,9,29,1,,,,,,,,,,,,,,,,,,,,,,,,,,,,
,,,,,WIN24_020,22,female,2024-01-30_12h48.16.610,jersey_experiment_5,2023.2.2,Win32,86.95652174,,,,,,,,,,,,,,,,546.4271,548.2227,548.2227,548.717,return,0.061,,74.86979167,,,,,,FBP-OG-71.png,0.4,1.2,3,1,,,,,,,,,,,,,0,10,10,2,1,,,,,,,,,,,,,,,,,,,,,,,,,,,,
,,,,,WIN24_020,22,female,2024-01-30_12h48.16.610,jersey_experiment_5,2023.2.2,Win32,86.95652174,,,,,,,,,,,,,,,,548.7172,550.018,550.018,550.5447,return,0.0372,,81.77083333,,,,,,FBP-RB-17.png,0.43,1.2,19,0.5,,,,,,,,,,,,,0,11,11,18,1,,,,,,,,,,,,,,,,,,,,,,,,,,,,
,,,,,WIN24_020,22,female,2024-01-30_12h48.16.610,jersey_experiment_5,2023.2.2,Win32,86.95652174,,,,,,,,,,,,,,,,550.5448,551.8393,551.8393,552.8348,return,0.1185,,47.78645833,,,,,,FBP-YG-71.png,0.37,1.2,32,0.5,,,,,,,,,,,,,0,12,12,31,1,,,,,,,,,,,,,,,,,,,,,,,,,,,,
,,,,,WIN24_020,22,female,2024-01-30_12h48.16.610,jersey_experiment_5,2023.2.2,Win32,86.95652174,,,,,,,,,,,,,,,,552.8349,554.1311,554.1311,554.729,return,0.0177,,80.72916667,,,,,,FBP-RB-17.png,0.45,1.2,20,0.5,,,,,,,,,,,,,0,13,13,19,1,,,,,,,,,,,,,,,,,,,,,,,,,,,,
,,,,,WIN24_020,22,female,2024-01-30_12h48.16.610,jersey_experiment_5,2023.2.2,Win32,86.95652174,,,,,,,,,,,,,,,,554.7291,556.5219,556.522,557.176,return,0.113,,40.49479167,,,,,,FBP-PT-17.png,0.35,1.2,46,1,,,,,,,,,,,,,0,14,14,45,1,,,,,,,,,,,,,,,,,,,,,,,,,,,,
,,,,,WIN24_020,22,female,2024-01-30_12h48.16.610,jersey_experiment_5,2023.2.2,Win32,86.95652174,,,,,,,,,,,,,,,,557.1761,558.4752,558.4752,559.181,return,0.0833,,30.46875,,,,,,FBP-RB-17.png,0.35,1.2,16,0.5,,,,,,,,,,,,,0,15,15,15,1,,,,,,,,,,,,,,,,,,,,,,,,,,,,
,,,,,WIN24_020,22,female,2024-01-30_12h48.16.610,jersey_experiment_5,2023.2.2,Win32,86.95652174,,,,,,,,,,,,,,,,559.1812,560.475,560.475,561.4166,return,0.048,,81.25,,,,,,FBP-RB-19.png,0.4,1.2,28,0.5,,,,,,,,,,,,,0,16,16,27,1,,,,,,,,,,,,,,,,,,,,,,,,,,,,
,,,,,WIN24_020,22,female,2024-01-30_12h48.16.610,jersey_experiment_5,2023.2.2,Win32,86.95652174,,,,,,,,,,,,,,,,561.4167,562.7214,562.7214,564.2822,return,0.1224,,63.671875,,,,,,FBP-RB-17.png,0.37,1.2,17,0.5,,,,,,,,,,,,,0,17,17,16,1,,,,,,,,,,,,,,,,,,,,,,,,,,,,
,,,,,WIN24_020,22,female,2024-01-30_12h48.16.610,jersey_experiment_5,2023.2.2,Win32,86.95652174,,,,,,,,,,,,,,,,564.2823,565.5765,565.5765,566.7058,return,0.1174,,76.04166667,,,,,,FBP-YG-81.png,0.4,1.2,38,0.5,,,,,,,,,,,,,0,18,18,37,1,,,,,,,,,,,,,,,,,,,,,,,,,,,,
,,,,,WIN24_020,22,female,2024-01-30_12h48.16.610,jersey_experiment_5,2023.2.2,Win32,86.95652174,,,,,,,,,,,,,,,,566.706,568.002,568.002,568.7787,return,0.104,,90.49479167,,,,,,FBP-RB-18.png,0.45,1.2,25,0.5,,,,,,,,,,,,,0,19,19,24,1,,,,,,,,,,,,,,,,,,,,,,,,,,,,
,,,,,WIN24_020,22,female,2024-01-30_12h48.16.610,jersey_experiment_5,2023.2.2,Win32,86.95652174,,,,,,,,,,,,,,,,568.7788,570.5829,570.5829,571.2823,return,0.0929,,86.71875,,,,,,FBP-OG-91.png,0.43,1.2,14,1,,,,,,,,,,,,,0,20,20,13,1,,,,,,,,,,,,,,,,,,,,,,,,,,,,
,,,,,WIN24_020,22,female,2024-01-30_12h48.16.610,jersey_experiment_5,2023.2.2,Win32,86.95652174,,,,,,,,,,,,,,,,571.2825,572.5788,572.5788,573.6395,return,0.0588,,75.390625,,,,,,FBP-RB-17.png,0.4,1.2,18,0.5,,,,,,,,,,,,,0,21,21,17,1,,,,,,,,,,,,,,,,,,,,,,,,,,,,
,,,,,WIN24_020,22,female,2024-01-30_12h48.16.610,jersey_experiment_5,2023.2.2,Win32,86.95652174,,,,,,,,,,,,,,,,573.6396,575.4355,575.4355,575.8517,return,0.0475,,86.58854167,,,,,,FBP-OG-81.png,0.45,1.2,10,1,,,,,,,,,,,,,0,22,22,9,1,,,,,,,,,,,,,,,,,,,,,,,,,,,,
,,,,,WIN24_020,22,female,2024-01-30_12h48.16.610,jersey_experiment_5,2023.2.2,Win32,86.95652174,,,,,,,,,,,,,,,,575.8519,577.1475,577.1475,577.8855,return,0.0579,,73.30729167,,,,,,FBP-YG-91.png,0.4,1.2,43,0.5,,,,,,,,,,,,,0,23,23,42,1,,,,,,,,,,,,,,,,,,,,,,,,,,,,
,,,,,WIN24_020,22,female,2024-01-30_12h48.16.610,jersey_experiment_5,2023.2.2,Win32,86.95652174,,,,,,,,,,,,,,,,577.8856,579.1769,579.1769,580.2033,return,0.0938,,48.30729167,,,,,,FBP-YG-71.png,0.35,1.2,31,0.5,,,,,,,,,,,,,0,24,24,30,1,,,,,,,,,,,,,,,,,,,,,,,,,,,,
,,,,,WIN24_020,22,female,2024-01-30_12h48.16.610,jersey_experiment_5,2023.2.2,Win32,86.95652174,,,,,,,,,,,,,,,,580.2034,581.4946,581.4946,582.024,return,0.0422,,45.57291667,,,,,,FBP-RB-19.png,0.37,1.2,27,0.5,,,,,,,,,,,,,0,25,25,26,1,,,,,,,,,,,,,,,,,,,,,,,,,,,,
,,,,,WIN24_020,22,female,2024-01-30_12h48.16.610,jersey_experiment_5,2023.2.2,Win32,86.95652174,,,,,,,,,,,,,,,,582.0242,583.817,583.8171,584.4639,return,0.0476,,31.77083333,,,,,,FBP-OG-81.png,0.35,1.2,6,1,,,,,,,,,,,,,0,26,26,5,1,,,,,,,,,,,,,,,,,,,,,,,,,,,,
,,,,,WIN24_020,22,female,2024-01-30_12h48.16.610,jersey_experiment_5,2023.2.2,Win32,86.95652174,,,,,,,,,,,,,,,,584.4641,586.2639,586.2639,587.5215,return,0.0441,,86.06770833,,,,,,FBP-OG-81.png,0.43,1.2,9,1,,,,,,,,,,,,,0,27,27,8,1,,,,,,,,,,,,,,,,,,,,,,,,,,,,
,,,,,WIN24_020,22,female,2024-01-30_12h48.16.610,jersey_experiment_5,2023.2.2,Win32,86.95652174,,,,,,,,,,,,,,,,587.5216,589.3184,589.3185,590.2408,return,0.2477,,78.515625,,,,,,FBP-OG-91.png,0.4,1.2,13,1,,,,,,,,,,,,,0,28,28,12,1,,,,,,,,,,,,,,,,,,,,,,,,,,,,
,,,,,WIN24_020,22,female,2024-01-30_12h48.16.610,jersey_experiment_5,2023.2.2,Win32,86.95652174,,,,,,,,,,,,,,,,590.2409,591.5326,591.5326,592.4284,return,0.0474,,61.19791667,,,,,,FBP-YG-91.png,0.37,1.2,42,0.5,,,,,,,,,,,,,0,29,29,41,1,,,,,,,,,,,,,,,,,,,,,,,,,,,,
,,,,,WIN24_020,22,female,2024-01-30_12h48.16.610,jersey_experiment_5,2023.2.2,Win32,86.95652174,,,,,,,,,,,,,,,,592.4286,594.2244,594.2244,594.6834,return,0.039,,81.77083333,,,,,,FBP-OG-71.png,0.43,1.2,4,1,,,,,,,,,,,,,0,30,30,3,1,,,,,,,,,,,,,,,,,,,,,,,,,,,,
,,,,,WIN24_020,22,female,2024-01-30_12h48.16.610,jersey_experiment_5,2023.2.2,Win32,86.95652174,,,,,,,,,,,,,,,,594.6834,595.9823,595.9823,596.9463,return,0.0237,,35.41666667,,,,,,FBP-YG-91.png,0.35,1.2,41,0.5,,,,,,,,,,,,,0,31,31,40,1,,,,,,,,,,,,,,,,,,,,,,,,,,,,
,,,,,WIN24_020,22,female,2024-01-30_12h48.16.610,jersey_experiment_5,2023.2.2,Win32,86.95652174,,,,,,,,,,,,,,,,596.9465,598.2484,598.2484,599.7677,return,0.6798,,83.984375,,,,,,FBP-YG-91.png,0.43,1.2,44,0.5,,,,,,,,,,,,,0,32,32,43,1,,,,,,,,,,,,,,,,,,,,,,,,,,,,
,,,,,WIN24_020,22,female,2024-01-30_12h48.16.610,jersey_experiment_5,2023.2.2,Win32,86.95652174,,,,,,,,,,,,,,,,599.768,601.0621,601.0621,602.0413,return,0.1422,,64.19270833,,,,,,FBP-YG-81.png,0.37,1.2,37,0.5,,,,,,,,,,,,,0,33,33,36,1,,,,,,,,,,,,,,,,,,,,,,,,,,,,
,,,,,WIN24_020,22,female,2024-01-30_12h48.16.610,jersey_experiment_5,2023.2.2,Win32,86.95652174,,,,,,,,,,,,,,,,602.0415,603.3353,603.3353,604.1121,return,0.0373,,89.32291667,,,,,,FBP-YG-71.png,0.45,1.2,35,0.5,,,,,,,,,,,,,0,34,34,34,1,,,,,,,,,,,,,,,,,,,,,,,,,,,,
,,,,,WIN24_020,22,female,2024-01-30_12h48.16.610,jersey_experiment_5,2023.2.2,Win32,86.95652174,,,,,,,,,,,,,,,,604.1123,605.4063,605.4063,606.4602,return,0.0262,,36.97916667,,,,,,FBP-YG-81.png,0.35,1.2,36,0.5,,,,,,,,,,,,,0,35,35,35,1,,,,,,,,,,,,,,,,,,,,,,,,,,,,
,,,,,WIN24_020,22,female,2024-01-30_12h48.16.610,jersey_experiment_5,2023.2.2,Win32,86.95652174,,,,,,,,,,,,,,,,606.4602,607.7573,607.7573,608.7571,return,0.1144,,79.03645833,,,,,,FBP-RB-19.png,0.43,1.2,29,0.5,,,,,,,,,,,,,0,36,36,28,1,,,,,,,,,,,,,,,,,,,,,,,,,,,,
,,,,,WIN24_020,22,female,2024-01-30_12h48.16.610,jersey_experiment_5,2023.2.2,Win32,86.95652174,,,,,,,,,,,,,,,,608.7573,610.5545,610.5545,611.0076,return,0.0355,,82.421875,,,,,,FBP-PT-17.png,0.4,1.2,48,1,,,,,,,,,,,,,0,37,37,47,1,,,,,,,,,,,,,,,,,,,,,,,,,,,,
,,,,,WIN24_020,22,female,2024-01-30_12h48.16.610,jersey_experiment_5,2023.2.2,Win32,86.95652174,,,,,,,,,,,,,,,,611.0079,612.31,612.31,613.0489,return,0.065,,86.84895833,,,,,,FBP-YG-71.png,0.4,1.2,33,0.5,,,,,,,,,,,,,0,38,38,32,1,,,,,,,,,,,,,,,,,,,,,,,,,,,,
,,,,,WIN24_020,22,female,2024-01-30_12h48.16.610,jersey_experiment_5,2023.2.2,Win32,86.95652174,,,,,,,,,,,,,,,,613.0491,614.8409,614.8409,616.0023,return,0.2869,,45.83333333,,,,,,FBP-OG-71.png,0.35,1.2,1,1,,,,,,,,,,,,,0,39,39,0,1,,,,,,,,,,,,,,,,,,,,,,,,,,,,
,,,,,WIN24_020,22,female,2024-01-30_12h48.16.610,jersey_experiment_5,2023.2.2,Win32,86.95652174,,,,,,,,,,,,,,,,616.0024,617.8023,617.8024,618.4524,return,0.036,,91.53645833,,,,,,FBP-OG-91.png,0.45,1.2,15,1,,,,,,,,,,,,,0,40,40,14,1,,,,,,,,,,,,,,,,,,,,,,,,,,,,
,,,,,WIN24_020,22,female,2024-01-30_12h48.16.610,jersey_experiment_5,2023.2.2,Win32,86.95652174,,,,,,,,,,,,,,,,618.4526,619.7453,619.7453,620.7195,return,0.0823,,48.69791667,,,,,,FBP-RB-19.png,0.35,1.2,26,0.5,,,,,,,,,,,,,0,41,41,25,1,,,,,,,,,,,,,,,,,,,,,,,,,,,,
,,,,,WIN24_020,22,female,2024-01-30_12h48.16.610,jersey_experiment_5,2023.2.2,Win32,86.95652174,,,,,,,,,,,,,,,,620.7197,622.0135,622.0135,622.6178,return,0.1176,,49.08854167,,,,,,FBP-RB-18.png,0.35,1.2,21,0.5,,,,,,,,,,,,,0,42,42,20,1,,,,,,,,,,,,,,,,,,,,,,,,,,,,
,,,,,WIN24_020,22,female,2024-01-30_12h48.16.610,jersey_experiment_5,2023.2.2,Win32,86.95652174,,,,,,,,,,,,,,,,622.618,624.4138,624.4138,625.0749,return,0.1398,,75.65104167,,,,,,FBP-PT-18.png,0.43,1.2,54,1,,,,,,,,,,,,,0,43,43,53,1,,,,,,,,,,,,,,,,,,,,,,,,,,,,
,,,,,WIN24_020,22,female,2024-01-30_12h48.16.610,jersey_experiment_5,2023.2.2,Win32,86.95652174,,,,,,,,,,,,,,,,625.0751,626.3715,626.3716,626.9355,return,0.0249,,83.59375,,,,,,FBP-YG-81.png,0.43,1.2,39,0.5,,,,,,,,,,,,,0,44,44,38,1,,,,,,,,,,,,,,,,,,,,,,,,,,,,
,,,,,WIN24_020,22,female,2024-01-30_12h48.16.610,jersey_experiment_5,2023.2.2,Win32,86.95652174,,,,,,,,,,,,,,,,626.9356,628.7315,628.7315,629.1316,return,0.1212,,89.58333333,,,,,,FBP-PT-19.png,0.43,1.2,59,1,,,,,,,,,,,,,0,45,45,58,1,,,,,,,,,,,,,,,,,,,,,,,,,,,,
,,,,,WIN24_020,22,female,2024-01-30_12h48.16.610,jersey_experiment_5,2023.2.2,Win32,86.95652174,,,,,,,,,,,,,,,,629.1318,630.9315,630.9316,631.5358,return,0.2475,,89.84375,,,,,,FBP-PT-18.png,0.45,1.2,55,1,,,,,,,,,,,,,0,46,46,54,1,,,,,,,,,,,,,,,,,,,,,,,,,,,,
,,,,,WIN24_020,22,female,2024-01-30_12h48.16.610,jersey_experiment_5,2023.2.2,Win32,86.95652174,,,,,,,,,,,,,,,,631.536,632.8418,632.8418,633.4493,return,0.1134,,90.234375,,,,,,FBP-YG-71.png,0.43,1.2,34,0.5,,,,,,,,,,,,,0,47,47,33,1,,,,,,,,,,,,,,,,,,,,,,,,,,,,
,,,,,WIN24_020,22,female,2024-01-30_12h48.16.610,jersey_experiment_5,2023.2.2,Win32,86.95652174,,,,,,,,,,,,,,,,633.4494,635.2495,635.2495,636.0259,return,0.0755,,61.84895833,,,,,,FBP-PT-18.png,0.37,1.2,52,1,,,,,,,,,,,,,0,48,48,51,1,,,,,,,,,,,,,,,,,,,,,,,,,,,,
,,,,,WIN24_020,22,female,2024-01-30_12h48.16.610,jersey_experiment_5,2023.2.2,Win32,86.95652174,,,,,,,,,,,,,,,,636.0261,637.826,637.826,638.3436,return,0.1724,,63.93229167,,,,,,FBP-PT-18.png,0.4,1.2,53,1,,,,,,,,,,,,,0,49,49,52,1,,,,,,,,,,,,,,,,,,,,,,,,,,,,
,,,,,WIN24_020,22,female,2024-01-30_12h48.16.610,jersey_experiment_5,2023.2.2,Win32,86.95652174,,,,,,,,,,,,,,,,638.3438,640.1363,640.1364,640.7949,return,0.1896,,65.49479167,,,,,,FBP-PT-19.png,0.4,1.2,58,1,,,,,,,,,,,,,0,50,50,57,1,,,,,,,,,,,,,,,,,,,,,,,,,,,,
,,,,,WIN24_020,22,female,2024-01-30_12h48.16.610,jersey_experiment_5,2023.2.2,Win32,86.95652174,,,,,,,,,,,,,,,,640.7951,642.5936,642.5936,643.9243,return,0.306,,48.95833333,,,,,,FBP-OG-91.png,0.35,1.2,11,1,,,,,,,,,,,,,0,51,51,10,1,,,,,,,,,,,,,,,,,,,,,,,,,,,,
,,,,,WIN24_020,22,female,2024-01-30_12h48.16.610,jersey_experiment_5,2023.2.2,Win32,86.95652174,,,,,,,,,,,,,,,,643.9245,645.2192,645.2192,646.5127,return,0.0587,,81.25,,,,,,FBP-YG-91.png,0.45,1.2,45,0.5,,,,,,,,,,,,,0,52,52,44,1,,,,,,,,,,,,,,,,,,,,,,,,,,,,
,,,,,WIN24_020,22,female,2024-01-30_12h48.16.610,jersey_experiment_5,2023.2.2,Win32,86.95652174,,,,,,,,,,,,,,,,646.5129,647.8144,647.8145,648.9675,return,0.7017,,76.04166667,,,,,,FBP-RB-18.png,0.4,1.2,23,0.5,,,,,,,,,,,,,0,53,53,22,1,,,,,,,,,,,,,,,,,,,,,,,,,,,,
,,,,,WIN24_020,22,female,2024-01-30_12h48.16.610,jersey_experiment_5,2023.2.2,Win32,86.95652174,,,,,,,,,,,,,,,,648.9676,650.7675,650.7676,651.3384,return,0.1672,,84.24479167,,,,,,FBP-PT-17.png,0.45,1.2,50,1,,,,,,,,,,,,,0,54,54,49,1,,,,,,,,,,,,,,,,,,,,,,,,,,,,
,,,,,WIN24_020,22,female,2024-01-30_12h48.16.610,jersey_experiment_5,2023.2.2,Win32,86.95652174,,,,,,,,,,,,,,,,651.3386,653.1325,653.1325,653.6896,return,0.0943,,89.0625,,,,,,FBP-PT-19.png,0.45,1.2,60,1,,,,,,,,,,,,,0,55,55,59,1,,,,,,,,,,,,,,,,,,,,,,,,,,,,
,,,,,WIN24_020,22,female,2024-01-30_12h48.16.610,jersey_experiment_5,2023.2.2,Win32,86.95652174,,,,,,,,,,,,,,,,653.6897,655.49,655.49,657.7679,return,0.6906,,46.35416667,,,,,,FBP-OG-91.png,0.37,1.2,12,1,,,,,,,,,,,,,0,56,56,11,1,,,,,,,,,,,,,,,,,,,,,,,,,,,,
,,,,,WIN24_020,22,female,2024-01-30_12h48.16.610,jersey_experiment_5,2023.2.2,Win32,86.95652174,,,,,,,,,,,,,,,,657.7681,659.568,659.568,660.2072,return,0.2822,,41.66666667,,,,,,FBP-PT-17.png,0.37,1.2,47,1,,,,,,,,,,,,,0,57,57,46,1,,,,,,,,,,,,,,,,,,,,,,,,,,,,
,,,,,WIN24_020,22,female,2024-01-30_12h48.16.610,jersey_experiment_5,2023.2.2,Win32,86.95652174,,,,,,,,,,,,,,,,660.2074,662.0073,662.0073,662.9367,return,0.353,,33.07291667,,,,,,FBP-PT-19.png,0.35,1.2,56,1,,,,,,,,,,,,,0,58,58,55,1,,,,,,,,,,,,,,,,,,,,,,,,,,,,
,,,,,WIN24_020,22,female,2024-01-30_12h48.16.610,jersey_experiment_5,2023.2.2,Win32,86.95652174,,,,,,,,,,,,,,,,662.9368,664.2294,664.2294,665.1721,return,0.1068,,82.55208333,,,,,,FBP-YG-81.png,0.45,1.2,40,0.5,,,,,,,,,,,,,0,59,59,39,1,,,,,,,,,,,,,,,,,,,,,,,,,,,,
,,,,,WIN24_020,22,female,2024-01-30_12h48.16.610,jersey_experiment_5,2023.2.2,Win32,86.95652174,,,,,,,,,,,,,,,,665.1735,666.4742,666.4742,667.465,return,0.1635,,63.02083333,,,,,,FBP-YG-17.png,0.37,1.2,32,0.5,,,,,,,,,,,,,,,,,,0,0,0,31,1,,,,,,,,,,,,,,,,,,,,,,,
,,,,,WIN24_020,22,female,2024-01-30_12h48.16.610,jersey_experiment_5,2023.2.2,Win32,86.95652174,,,,,,,,,,,,,,,,667.4653,669.268,669.268,669.7683,return,0.0553,,39.453125,,,,,,FBP-PT-71.png,0.35,1.2,46,1,,,,,,,,,,,,,,,,,,0,1,1,45,1,,,,,,,,,,,,,,,,,,,,,,,
,,,,,WIN24_020,22,female,2024-01-30_12h48.16.610,jersey_experiment_5,2023.2.2,Win32,86.95652174,,,,,,,,,,,,,,,,669.7684,671.5605,671.5605,672.3611,return,0.0005,,49.73958333,,,,,,FBP-PT-81.png,0.37,1.2,52,1,,,,,,,,,,,,,,,,,,0,2,2,51,1,,,,,,,,,,,,,,,,,,,,,,,
,,,,,WIN24_020,22,female,2024-01-30_12h48.16.610,jersey_experiment_5,2023.2.2,Win32,86.95652174,,,,,,,,,,,,,,,,672.3612,673.6529,673.6529,674.3595,return,0.0693,,38.28125,,,,,,FBP-YG-18.png,0.35,1.2,36,0.5,,,,,,,,,,,,,,,,,,0,3,3,35,1,,,,,,,,,,,,,,,,,,,,,,,
,,,,,WIN24_020,22,female,2024-01-30_12h48.16.610,jersey_experiment_5,2023.2.2,Win32,86.95652174,,,,,,,,,,,,,,,,674.3597,676.1607,676.1607,677.4806,return,0.5908,,49.34895833,,,,,,FBP-OG-19.png,0.37,1.2,12,1,,,,,,,,,,,,,,,,,,0,4,4,11,1,,,,,,,,,,,,,,,,,,,,,,,
,,,,,WIN24_020,22,female,2024-01-30_12h48.16.610,jersey_experiment_5,2023.2.2,Win32,86.95652174,,,,,,,,,,,,,,,,677.4807,678.7725,678.7725,679.4201,return,0.0711,,49.47916667,,,,,,FBP-RB-71.png,0.35,1.2,16,0.5,,,,,,,,,,,,,,,,,,0,5,5,15,1,,,,,,,,,,,,,,,,,,,,,,,
,,,,,WIN24_020,22,female,2024-01-30_12h48.16.610,jersey_experiment_5,2023.2.2,Win32,86.95652174,,,,,,,,,,,,,,,,679.4203,681.2181,681.2181,681.757,return,0.0506,,77.99479167,,,,,,FBP-OG-17.png,0.45,1.2,5,1,,,,,,,,,,,,,,,,,,0,6,6,4,1,,,,,,,,,,,,,,,,,,,,,,,
,,,,,WIN24_020,22,female,2024-01-30_12h48.16.610,jersey_experiment_5,2023.2.2,Win32,86.95652174,,,,,,,,,,,,,,,,681.7571,683.5593,683.5593,683.9833,return,0.0931,,81.51041667,,,,,,FBP-OG-19.png,0.43,1.2,14,1,,,,,,,,,,,,,,,,,,0,7,7,13,1,,,,,,,,,,,,,,,,,,,,,,,
,,,,,WIN24_020,22,female,2024-01-30_12h48.16.610,jersey_experiment_5,2023.2.2,Win32,86.95652174,,,,,,,,,,,,,,,,683.9834,685.277,685.277,685.9365,return,0.0814,,84.24479167,,,,,,FBP-YG-18.png,0.43,1.2,39,0.5,,,,,,,,,,,,,,,,,,0,8,8,38,1,,,,,,,,,,,,,,,,,,,,,,,
,,,,,WIN24_020,22,female,2024-01-30_12h48.16.610,jersey_experiment_5,2023.2.2,Win32,86.95652174,,,,,,,,,,,,,,,,685.9367,687.2435,687.2435,688.5927,return,0.0818,,52.86458333,,,,,,FBP-RB-91.png,0.35,1.2,26,0.5,,,,,,,,,,,,,,,,,,0,9,9,25,1,,,,,,,,,,,,,,,,,,,,,,,
,,,,,WIN24_020,22,female,2024-01-30_12h48.16.610,jersey_experiment_5,2023.2.2,Win32,86.95652174,,,,,,,,,,,,,,,,688.5928,689.8913,689.8913,690.7499,return,0.0709,,77.47395833,,,,,,FBP-YG-17.png,0.45,1.2,35,0.5,,,,,,,,,,,,,,,,,,0,10,10,34,1,,,,,,,,,,,,,,,,,,,,,,,
,,,,,WIN24_020,22,female,2024-01-30_12h48.16.610,jersey_experiment_5,2023.2.2,Win32,86.95652174,,,,,,,,,,,,,,,,690.75,692.0563,692.0563,692.8637,return,0.0847,,72.13541667,,,,,,FBP-RB-81.png,0.4,1.2,23,0.5,,,,,,,,,,,,,,,,,,0,11,11,22,1,,,,,,,,,,,,,,,,,,,,,,,
,,,,,WIN24_020,22,female,2024-01-30_12h48.16.610,jersey_experiment_5,2023.2.2,Win32,86.95652174,,,,,,,,,,,,,,,,692.8639,694.6676,694.6677,695.0539,return,0.058,,85.41666667,,,,,,FBP-PT-81.png,0.45,1.2,55,1,,,,,,,,,,,,,,,,,,0,12,12,54,1,,,,,,,,,,,,,,,,,,,,,,,
,,,,,WIN24_020,22,female,2024-01-30_12h48.16.610,jersey_experiment_5,2023.2.2,Win32,86.95652174,,,,,,,,,,,,,,,,695.054,696.8562,696.8562,697.4088,return,0.0257,,64.71354167,,,,,,FBP-OG-18.png,0.37,1.2,7,1,,,,,,,,,,,,,,,,,,0,13,13,6,1,,,,,,,,,,,,,,,,,,,,,,,
,,,,,WIN24_020,22,female,2024-01-30_12h48.16.610,jersey_experiment_5,2023.2.2,Win32,86.95652174,,,,,,,,,,,,,,,,697.4089,698.7131,698.7132,699.4872,return,0.0607,,78.64583333,,,,,,FBP-RB-81.png,0.43,1.2,24,0.5,,,,,,,,,,,,,,,,,,0,14,14,23,1,,,,,,,,,,,,,,,,,,,,,,,
,,,,,WIN24_020,22,female,2024-01-30_12h48.16.610,jersey_experiment_5,2023.2.2,Win32,86.95652174,,,,,,,,,,,,,,,,699.4874,701.2871,701.2872,702.2519,return,0.1912,,79.94791667,,,,,,FBP-OG-19.png,0.4,1.2,13,1,,,,,,,,,,,,,,,,,,0,15,15,12,1,,,,,,,,,,,,,,,,,,,,,,,
,,,,,WIN24_020,22,female,2024-01-30_12h48.16.610,jersey_experiment_5,2023.2.2,Win32,86.95652174,,,,,,,,,,,,,,,,702.2521,703.5485,703.5486,704.2547,return,0.0592,,78.515625,,,,,,FBP-RB-71.png,0.43,1.2,19,0.5,,,,,,,,,,,,,,,,,,0,16,16,18,1,,,,,,,,,,,,,,,,,,,,,,,
,,,,,WIN24_020,22,female,2024-01-30_12h48.16.610,jersey_experiment_5,2023.2.2,Win32,86.95652174,,,,,,,,,,,,,,,,704.2549,706.0568,706.0568,707.6071,return,0.6896,,51.953125,,,,,,FBP-OG-17.png,0.37,1.2,2,1,,,,,,,,,,,,,,,,,,0,17,17,1,1,,,,,,,,,,,,,,,,,,,,,,,
,,,,,WIN24_020,22,female,2024-01-30_12h48.16.610,jersey_experiment_5,2023.2.2,Win32,86.95652174,,,,,,,,,,,,,,,,707.6073,708.8992,708.8993,709.3958,return,0.0222,,60.80729167,,,,,,FBP-YG-17.png,0.4,1.2,33,0.5,,,,,,,,,,,,,,,,,,0,18,18,32,1,,,,,,,,,,,,,,,,,,,,,,,
,,,,,WIN24_020,22,female,2024-01-30_12h48.16.610,jersey_experiment_5,2023.2.2,Win32,86.95652174,,,,,,,,,,,,,,,,709.396,710.6913,710.6913,711.5154,return,0.0259,,50.390625,,,,,,FBP-RB-81.png,0.37,1.2,22,0.5,,,,,,,,,,,,,,,,,,0,19,19,21,1,,,,,,,,,,,,,,,,,,,,,,,
,,,,,WIN24_020,22,female,2024-01-30_12h48.16.610,jersey_experiment_5,2023.2.2,Win32,86.95652174,,,,,,,,,,,,,,,,711.5156,712.8075,712.8076,713.657,return,0.1203,,39.19270833,,,,,,FBP-YG-19.png,0.35,1.2,41,0.5,,,,,,,,,,,,,,,,,,0,20,20,40,1,,,,,,,,,,,,,,,,,,,,,,,
,,,,,WIN24_020,22,female,2024-01-30_12h48.16.610,jersey_experiment_5,2023.2.2,Win32,86.95652174,,,,,,,,,,,,,,,,713.6572,714.9512,714.9512,715.8328,return,0.1411,,33.85416667,,,,,,FBP-RB-81.png,0.35,1.2,21,0.5,,,,,,,,,,,,,,,,,,0,21,21,20,1,,,,,,,,,,,,,,,,,,,,,,,
,,,,,WIN24_020,22,female,2024-01-30_12h48.16.610,jersey_experiment_5,2023.2.2,Win32,86.95652174,,,,,,,,,,,,,,,,715.8329,717.633,717.633,718.3612,return,0.0003,,78.64583333,,,,,,FBP-OG-19.png,0.45,1.2,15,1,,,,,,,,,,,,,,,,,,0,22,22,14,1,,,,,,,,,,,,,,,,,,,,,,,
,,,,,WIN24_020,22,female,2024-01-30_12h48.16.610,jersey_experiment_5,2023.2.2,Win32,86.95652174,,,,,,,,,,,,,,,,718.3613,720.1606,720.1606,720.6331,return,0.0824,,79.42708333,,,,,,FBP-PT-71.png,0.43,1.2,49,1,,,,,,,,,,,,,,,,,,0,23,23,48,1,,,,,,,,,,,,,,,,,,,,,,,
,,,,,WIN24_020,22,female,2024-01-30_12h48.16.610,jersey_experiment_5,2023.2.2,Win32,86.95652174,,,,,,,,,,,,,,,,720.6332,722.4295,722.4295,722.9942,return,0.1533,,66.40625,,,,,,FBP-PT-81.png,0.4,1.2,53,1,,,,,,,,,,,,,,,,,,0,24,24,52,1,,,,,,,,,,,,,,,,,,,,,,,
,,,,,WIN24_020,22,female,2024-01-30_12h48.16.610,jersey_experiment_5,2023.2.2,Win32,86.95652174,,,,,,,,,,,,,,,,722.9944,724.7865,724.7865,725.6762,return,0.0497,,77.08333333,,,,,,FBP-OG-18.png,0.4,1.2,8,1,,,,,,,,,,,,,,,,,,0,25,25,7,1,,,,,,,,,,,,,,,,,,,,,,,
,,,,,WIN24_020,22,female,2024-01-30_12h48.16.610,jersey_experiment_5,2023.2.2,Win32,86.95652174,,,,,,,,,,,,,,,,725.6764,727.4692,727.4692,728.3275,return,0.0588,,49.73958333,,,,,,FBP-PT-91.png,0.37,1.2,57,1,,,,,,,,,,,,,,,,,,0,26,26,56,1,,,,,,,,,,,,,,,,,,,,,,,
,,,,,WIN24_020,22,female,2024-01-30_12h48.16.610,jersey_experiment_5,2023.2.2,Win32,86.95652174,,,,,,,,,,,,,,,,728.3276,729.6197,729.6197,730.563,return,0.071,,76.953125,,,,,,FBP-YG-17.png,0.43,1.2,34,0.5,,,,,,,,,,,,,,,,,,0,27,27,33,1,,,,,,,,,,,,,,,,,,,,,,,
,,,,,WIN24_020,22,female,2024-01-30_12h48.16.610,jersey_experiment_5,2023.2.2,Win32,86.95652174,,,,,,,,,,,,,,,,730.5632,732.3589,732.359,733.2882,return,0.0655,,49.34895833,,,,,,FBP-PT-71.png,0.37,1.2,47,1,,,,,,,,,,,,,,,,,,0,28,28,46,1,,,,,,,,,,,,,,,,,,,,,,,
,,,,,WIN24_020,22,female,2024-01-30_12h48.16.610,jersey_experiment_5,2023.2.2,Win32,86.95652174,,,,,,,,,,,,,,,,733.2883,734.5824,734.5825,735.3035,return,0.0327,,43.88020833,,,,,,FBP-YG-19.png,0.37,1.2,42,0.5,,,,,,,,,,,,,,,,,,0,29,29,41,1,,,,,,,,,,,,,,,,,,,,,,,
,,,,,WIN24_020,22,female,2024-01-30_12h48.16.610,jersey_experiment_5,2023.2.2,Win32,86.95652174,,,,,,,,,,,,,,,,735.3036,737.1023,737.1023,737.9504,return,0.0225,,78.125,,,,,,FBP-PT-71.png,0.45,1.2,50,1,,,,,,,,,,,,,,,,,,0,30,30,49,1,,,,,,,,,,,,,,,,,,,,,,,
,,,,,WIN24_020,22,female,2024-01-30_12h48.16.610,jersey_experiment_5,2023.2.2,Win32,86.95652174,,,,,,,,,,,,,,,,737.9505,739.261,739.261,740.5059,return,0.0264,,69.79166667,,,,,,FBP-RB-91.png,0.4,1.2,28,0.5,,,,,,,,,,,,,,,,,,0,31,31,27,1,,,,,,,,,,,,,,,,,,,,,,,
,,,,,WIN24_020,22,female,2024-01-30_12h48.16.610,jersey_experiment_5,2023.2.2,Win32,86.95652174,,,,,,,,,,,,,,,,740.506,741.7992,741.7992,742.481,return,0.047,,82.94270833,,,,,,FBP-YG-19.png,0.43,1.2,44,0.5,,,,,,,,,,,,,,,,,,0,32,32,43,1,,,,,,,,,,,,,,,,,,,,,,,
,,,,,WIN24_020,22,female,2024-01-30_12h48.16.610,jersey_experiment_5,2023.2.2,Win32,86.95652174,,,,,,,,,,,,,,,,742.4812,743.7757,743.7757,744.7882,return,0.0249,,61.58854167,,,,,,FBP-YG-18.png,0.4,1.2,38,0.5,,,,,,,,,,,,,,,,,,0,33,33,37,1,,,,,,,,,,,,,,,,,,,,,,,
,,,,,WIN24_020,22,female,2024-01-30_12h48.16.610,jersey_experiment_5,2023.2.2,Win32,86.95652174,,,,,,,,,,,,,,,,744.7883,746.5868,746.5869,747.4235,return,0.037,,47.39583333,,,,,,FBP-PT-81.png,0.35,1.2,51,1,,,,,,,,,,,,,,,,,,0,34,34,50,1,,,,,,,,,,,,,,,,,,,,,,,
,,,,,WIN24_020,22,female,2024-01-30_12h48.16.610,jersey_experiment_5,2023.2.2,Win32,86.95652174,,,,,,,,,,,,,,,,747.4237,748.7172,748.7172,749.3754,return,0.0373,,76.953125,,,,,,FBP-YG-19.png,0.45,1.2,45,0.5,,,,,,,,,,,,,,,,,,0,35,35,44,1,,,,,,,,,,,,,,,,,,,,,,,
,,,,,WIN24_020,22,female,2024-01-30_12h48.16.610,jersey_experiment_5,2023.2.2,Win32,86.95652174,,,,,,,,,,,,,,,,749.3754,751.1713,751.1713,751.9125,return,0.2316,,62.5,,,,,,FBP-PT-91.png,0.4,1.2,58,1,,,,,,,,,,,,,,,,,,0,36,36,57,1,,,,,,,,,,,,,,,,,,,,,,,
,,,,,WIN24_020,22,female,2024-01-30_12h48.16.610,jersey_experiment_5,2023.2.2,Win32,86.95652174,,,,,,,,,,,,,,,,751.9127,753.7046,753.7046,754.6185,return,0.0645,,77.86458333,,,,,,FBP-OG-18.png,0.45,1.2,10,1,,,,,,,,,,,,,,,,,,0,37,37,9,1,,,,,,,,,,,,,,,,,,,,,,,
,,,,,WIN24_020,22,female,2024-01-30_12h48.16.610,jersey_experiment_5,2023.2.2,Win32,86.95652174,,,,,,,,,,,,,,,,754.6187,755.9165,755.9165,756.6655,return,0.0522,,85.546875,,,,,,FBP-YG-18.png,0.45,1.2,40,0.5,,,,,,,,,,,,,,,,,,0,38,38,39,1,,,,,,,,,,,,,,,,,,,,,,,
,,,,,WIN24_020,22,female,2024-01-30_12h48.16.610,jersey_experiment_5,2023.2.2,Win32,86.95652174,,,,,,,,,,,,,,,,756.6658,758.475,758.475,759.457,return,0.3187,,59.11458333,,,,,,FBP-OG-17.png,0.4,1.2,3,1,,,,,,,,,,,,,,,,,,0,39,39,2,1,,,,,,,,,,,,,,,,,,,,,,,
,,,,,WIN24_020,22,female,2024-01-30_12h48.16.610,jersey_experiment_5,2023.2.2,Win32,86.95652174,,,,,,,,,,,,,,,,759.4572,761.2596,761.2596,761.7855,return,0.0583,,38.80208333,,,,,,FBP-OG-17.png,0.35,1.2,1,1,,,,,,,,,,,,,,,,,,0,40,40,0,1,,,,,,,,,,,,,,,,,,,,,,,
,,,,,WIN24_020,22,female,2024-01-30_12h48.16.610,jersey_experiment_5,2023.2.2,Win32,86.95652174,,,,,,,,,,,,,,,,761.7857,763.0825,763.0826,764.2424,return,0.104,,76.953125,,,,,,FBP-RB-71.png,0.45,1.2,20,0.5,,,,,,,,,,,,,,,,,,0,41,41,19,1,,,,,,,,,,,,,,,,,,,,,,,
,,,,,WIN24_020,22,female,2024-01-30_12h48.16.610,jersey_experiment_5,2023.2.2,Win32,86.95652174,,,,,,,,,,,,,,,,764.2426,765.5385,765.5385,766.1248,return,0.0487,,66.14583333,,,,,,FBP-RB-71.png,0.4,1.2,18,0.5,,,,,,,,,,,,,,,,,,0,42,42,17,1,,,,,,,,,,,,,,,,,,,,,,,
,,,,,WIN24_020,22,female,2024-01-30_12h48.16.610,jersey_experiment_5,2023.2.2,Win32,86.95652174,,,,,,,,,,,,,,,,766.125,767.4238,767.4239,768.0778,return,0.0123,,82.55208333,,,,,,FBP-RB-81.png,0.45,1.2,25,0.5,,,,,,,,,,,,,,,,,,0,43,43,24,1,,,,,,,,,,,,,,,,,,,,,,,
,,,,,WIN24_020,22,female,2024-01-30_12h48.16.610,jersey_experiment_5,2023.2.2,Win32,86.95652174,,,,,,,,,,,,,,,,768.0781,769.372,769.372,770.7133,return,0.0518,,46.484375,,,,,,FBP-RB-91.png,0.37,1.2,27,0.5,,,,,,,,,,,,,,,,,,0,44,44,26,1,,,,,,,,,,,,,,,,,,,,,,,
,,,,,WIN24_020,22,female,2024-01-30_12h48.16.610,jersey_experiment_5,2023.2.2,Win32,86.95652174,,,,,,,,,,,,,,,,770.7134,772.5132,772.5132,773.5999,return,0.1044,,77.47395833,,,,,,FBP-PT-91.png,0.43,1.2,59,1,,,,,,,,,,,,,,,,,,0,45,45,58,1,,,,,,,,,,,,,,,,,,,,,,,
,,,,,WIN24_020,22,female,2024-01-30_12h48.16.610,jersey_experiment_5,2023.2.2,Win32,86.95652174,,,,,,,,,,,,,,,,773.6,774.8918,774.8919,775.5544,return,0.2725,,78.515625,,,,,,FBP-RB-91.png,0.43,1.2,29,0.5,,,,,,,,,,,,,,,,,,0,46,46,28,1,,,,,,,,,,,,,,,,,,,,,,,
,,,,,WIN24_020,22,female,2024-01-30_12h48.16.610,jersey_experiment_5,2023.2.2,Win32,86.95652174,,,,,,,,,,,,,,,,775.5547,777.3514,777.3514,777.8809,return,0.128,,79.55729167,,,,,,FBP-OG-17.png,0.43,1.2,4,1,,,,,,,,,,,,,,,,,,0,47,47,3,1,,,,,,,,,,,,,,,,,,,,,,,
,,,,,WIN24_020,22,female,2024-01-30_12h48.16.610,jersey_experiment_5,2023.2.2,Win32,86.95652174,,,,,,,,,,,,,,,,777.8811,779.6809,779.681,780.1723,return,0.1202,,78.25520833,,,,,,FBP-OG-18.png,0.43,1.2,9,1,,,,,,,,,,,,,,,,,,0,48,48,8,1,,,,,,,,,,,,,,,,,,,,,,,
,,,,,WIN24_020,22,female,2024-01-30_12h48.16.610,jersey_experiment_5,2023.2.2,Win32,86.95652174,,,,,,,,,,,,,,,,780.1726,781.9762,781.9762,782.5371,return,0.2076,,80.859375,,,,,,FBP-PT-81.png,0.43,1.2,54,1,,,,,,,,,,,,,,,,,,0,49,49,53,1,,,,,,,,,,,,,,,,,,,,,,,
,,,,,WIN24_020,22,female,2024-01-30_12h48.16.610,jersey_experiment_5,2023.2.2,Win32,86.95652174,,,,,,,,,,,,,,,,782.5374,784.3293,784.3293,784.8727,return,0.1328,,73.046875,,,,,,FBP-PT-71.png,0.4,1.2,48,1,,,,,,,,,,,,,,,,,,0,50,50,47,1,,,,,,,,,,,,,,,,,,,,,,,
,,,,,WIN24_020,22,female,2024-01-30_12h48.16.610,jersey_experiment_5,2023.2.2,Win32,86.95652174,,,,,,,,,,,,,,,,784.8729,786.1764,786.1764,786.9726,return,0.0612,,59.24479167,,,,,,FBP-YG-18.png,0.37,1.2,37,0.5,,,,,,,,,,,,,,,,,,0,51,51,36,1,,,,,,,,,,,,,,,,,,,,,,,
,,,,,WIN24_020,22,female,2024-01-30_12h48.16.610,jersey_experiment_5,2023.2.2,Win32,86.95652174,,,,,,,,,,,,,,,,786.9729,788.2716,788.2716,788.9725,return,0.0492,,47.13541667,,,,,,FBP-RB-71.png,0.37,1.2,17,0.5,,,,,,,,,,,,,,,,,,0,52,52,16,1,,,,,,,,,,,,,,,,,,,,,,,
,,,,,WIN24_020,22,female,2024-01-30_12h48.16.610,jersey_experiment_5,2023.2.2,Win32,86.95652174,,,,,,,,,,,,,,,,788.9728,790.765,790.765,791.9868,return,0.1516,,29.81770833,,,,,,FBP-OG-18.png,0.35,1.2,6,1,,,,,,,,,,,,,,,,,,0,53,53,5,1,,,,,,,,,,,,,,,,,,,,,,,
,,,,,WIN24_020,22,female,2024-01-30_12h48.16.610,jersey_experiment_5,2023.2.2,Win32,86.95652174,,,,,,,,,,,,,,,,791.9869,793.2833,793.2833,794.5284,return,0.0342,,77.21354167,,,,,,FBP-RB-91.png,0.45,1.2,30,0.5,,,,,,,,,,,,,,,,,,0,54,54,29,1,,,,,,,,,,,,,,,,,,,,,,,
,,,,,WIN24_020,22,female,2024-01-30_12h48.16.610,jersey_experiment_5,2023.2.2,Win32,86.95652174,,,,,,,,,,,,,,,,794.5287,795.8257,795.8257,797.7907,return,0.9668,,62.890625,,,,,,FBP-YG-19.png,0.4,1.2,43,0.5,,,,,,,,,,,,,,,,,,0,55,55,42,1,,,,,,,,,,,,,,,,,,,,,,,
,,,,,WIN24_020,22,female,2024-01-30_12h48.16.610,jersey_experiment_5,2023.2.2,Win32,86.95652174,,,,,,,,,,,,,,,,797.7908,799.0956,799.0956,799.8348,return,0.0458,,45.703125,,,,,,FBP-YG-17.png,0.35,1.2,31,0.5,,,,,,,,,,,,,,,,,,0,56,56,30,1,,,,,,,,,,,,,,,,,,,,,,,
,,,,,WIN24_020,22,female,2024-01-30_12h48.16.610,jersey_experiment_5,2023.2.2,Win32,86.95652174,,,,,,,,,,,,,,,,799.835,801.6319,801.6319,802.201,return,0.0946,,55.20833333,,,,,,FBP-OG-19.png,0.35,1.2,11,1,,,,,,,,,,,,,,,,,,0,57,57,10,1,,,,,,,,,,,,,,,,,,,,,,,
,,,,,WIN24_020,22,female,2024-01-30_12h48.16.610,jersey_experiment_5,2023.2.2,Win32,86.95652174,,,,,,,,,,,,,,,,802.2011,803.9968,803.9968,804.6204,return,0.0612,,77.99479167,,,,,,FBP-PT-91.png,0.45,1.2,60,1,,,,,,,,,,,,,,,,,,0,58,58,59,1,,,,,,,,,,,,,,,,,,,,,,,
,,,,,WIN24_020,22,female,2024-01-30_12h48.16.610,jersey_experiment_5,2023.2.2,Win32,86.95652174,,,,,,,,,,,,,,,,804.6205,806.4136,806.4136,807.2577,return,0.1392,,39.0625,,,,,,FBP-PT-91.png,0.35,1.2,56,1,,,,,,,,,,,,,,,,,,0,59,59,55,1,,,,,,,,,,,,,,,,,,,,,,,
,,,,,WIN24_020,22,female,2024-01-30_12h48.16.610,jersey_experiment_5,2023.2.2,Win32,86.95652174,,,,,,,,,,,,,,,,,,,,,,,,,,,,,,,,,,,,,,,,,,,,,,,,,,,,,,,,807.258,810.5852,return,3.3113,,,,,,,,,,,,,,,,,,,
,,,,,WIN24_020,22,female,2024-01-30_12h48.16.610,jersey_experiment_5,2023.2.2,Win32,86.95652174,,,,,,,,,,,,,,,,,,,,,,,,,,,,,,,,,,,,,,,,,,,,,,,,,,,,,,,,,,,,,810.5853,814.3662,1,2.886,return,0.8844,,,,,,,,,,,,
,,,,,WIN24_020,22,female,2024-01-30_12h48.16.610,jersey_experiment_5,2023.2.2,Win32,86.95652174,,,,,,,,,,,,,,,,,,,,,,,,,,,,,,,,,,,,,,,,,,,,,,,,,,,,,,,,,,,,,,,,,,,,814.3663,827.2608,no,right,4.9719,,,,,,
,,,,,WIN24_020,22,female,2024-01-30_12h48.16.610,jersey_experiment_5,2023.2.2,Win32,86.95652174,,,,,,,,,,,,,,,,,,,,,,,,,,,,,,,,,,,,,,,,,,,,,,,,,,,,,,,,,,,,,,,,,,,,,,,,,,827.2609,829.8565,return,2.5783,