requirements.started,requirements.stopped,key_resp_3.keys,key_resp_3.rt,key_resp_3.duration,Subject ID,Age,Gender,date,expName,psychopyVersion,OS,frameRate,instructions1.started,instructions1.stopped,key_resp.keys,key_resp.rt,key_resp.duration,example.started,example.stopped,enter_2.keys,enter_2.rt,enter_2.duration,instructions2.started,instructions2.stopped,enter_3.keys,enter_3.rt,enter_3.duration,image.started,image.stopped,slider_2.started,slider_2.stopped,next.keys,next.rt,next.duration,slider.response,trial_block_1.thisRepN,trial_block_1.thisTrialN,trial_block_1.thisN,trial_block_1.thisIndex,trial_block_1.ran,Path,Width,Height,Index,Duration,trial_block_2.thisRepN,trial_block_2.thisTrialN,trial_block_2.thisN,trial_block_2.thisIndex,trial_block_2.ran,rest_break.started,rest_break.stopped,end_break.started,end_break.stopped,key_resp_5.keys,key_resp_5.rt,key_resp_5.duration,trial_block_3.thisRepN,trial_block_3.thisTrialN,trial_block_3.thisN,trial_block_3.thisIndex,trial_block_3.ran,trial_block_4.thisRepN,trial_block_4.thisTrialN,trial_block_4.thisN,trial_block_4.thisIndex,trial_block_4.ran,questions_intro.started,questions_intro.stopped,enter_12.keys,enter_12.rt,enter_12.duration,question2.started,question2.stopped,question_doingbest.response,question_doingbest.rt,enter_15.keys,enter_15.rt,enter_15.duration,pattern.started,pattern.stopped,pattern_2.text,enter_17.keys,enter_17.rt,enter_17.duration,thankyou.started,thankyou.stopped,enter_14.keys,enter_14.rt,enter_14.duration
0.0002,13.2883,return,13.2811,,WIN24_012,32,Male,2024-01-29_14h43.01.979,jersey_experiment_5,2023.2.2,Win32,84.03361345,,,,,,,,,,,,,,,,,,,,,,,,,,,,,,,,,,,,,,,,,,,,,,,,,,,,,,,,,,,,,,,,,,,,,,,,,,,,,,
,,,,,WIN24_012,32,Male,2024-01-29_14h43.01.979,jersey_experiment_5,2023.2.2,Win32,84.03361345,13.2884,21.1944,return,7.8938,,,,,,,,,,,,,,,,,,,,,,,,,,,,,,,,,,,,,,,,,,,,,,,,,,,,,,,,,,,,,,,,,,,,,,,,,,
,,,,,WIN24_012,32,Male,2024-01-29_14h43.01.979,jersey_experiment_5,2023.2.2,Win32,84.03361345,,,,,,21.1944,26.277,return,5.0491,,,,,,,,,,,,,,,,,,,,,,,,,,,,,,,,,,,,,,,,,,,,,,,,,,,,,,,,,,,,,,,,,,,,,
,,,,,WIN24_012,32,Male,2024-01-29_14h43.01.979,jersey_experiment_5,2023.2.2,Win32,84.03361345,,,,,,,,,,,26.2771,46.7481,return,20.4458,,,,,,,,,,,,,,,,,,,,,,,,,,,,,,,,,,,,,,,,,,,,,,,,,,,,,,,,,,,,,,,,
,,,,,WIN24_012,32,Male,2024-01-29_14h43.01.979,jersey_experiment_5,2023.2.2,Win32,84.03361345,,,,,,,,,,,,,,,,46.7551,48.5512,48.5513,64.3079,return,3.0022,,62.63020833,0,0,0,42,1,FBP-YG-91.png,0.4,1.2,43,1,,,,,,,,,,,,,,,,,,,,,,,,,,,,,,,,,,,,,,,,,,,,,
,,,,,WIN24_012,32,Male,2024-01-29_14h43.01.979,jersey_experiment_5,2023.2.2,Win32,84.03361345,,,,,,,,,,,,,,,,64.3121,66.1134,66.1134,71.1607,return,1.4358,,40.10416667,0,1,1,27,1,FBP-RB-19.png,0.4,1.2,28,1,,,,,,,,,,,,,,,,,,,,,,,,,,,,,,,,,,,,,,,,,,,,,
,,,,,WIN24_012,32,Male,2024-01-29_14h43.01.979,jersey_experiment_5,2023.2.2,Win32,84.03361345,,,,,,,,,,,,,,,,71.1609,72.4547,72.4548,76.4002,return,1.7414,,87.76041667,0,2,2,59,1,FBP-PT-19.png,0.45,1.2,60,0.5,,,,,,,,,,,,,,,,,,,,,,,,,,,,,,,,,,,,,,,,,,,,,
,,,,,WIN24_012,32,Male,2024-01-29_14h43.01.979,jersey_experiment_5,2023.2.2,Win32,84.03361345,,,,,,,,,,,,,,,,76.4003,78.1961,78.1961,83.9063,return,1.5765,,31.38020833,0,3,3,36,1,FBP-YG-81.png,0.37,1.2,37,1,,,,,,,,,,,,,,,,,,,,,,,,,,,,,,,,,,,,,,,,,,,,,
,,,,,WIN24_012,32,Male,2024-01-29_14h43.01.979,jersey_experiment_5,2023.2.2,Win32,84.03361345,,,,,,,,,,,,,,,,83.9064,85.2123,85.2123,88.4123,return,1.3863,,16.92708333,0,4,4,10,1,FBP-OG-91.png,0.35,1.2,11,0.5,,,,,,,,,,,,,,,,,,,,,,,,,,,,,,,,,,,,,,,,,,,,,
,,,,,WIN24_012,32,Male,2024-01-29_14h43.01.979,jersey_experiment_5,2023.2.2,Win32,84.03361345,,,,,,,,,,,,,,,,88.4124,89.7141,89.7141,94.3144,return,2.1887,,38.54166667,0,5,5,56,1,FBP-PT-19.png,0.37,1.2,57,0.5,,,,,,,,,,,,,,,,,,,,,,,,,,,,,,,,,,,,,,,,,,,,,
,,,,,WIN24_012,32,Male,2024-01-29_14h43.01.979,jersey_experiment_5,2023.2.2,Win32,84.03361345,,,,,,,,,,,,,,,,94.3146,95.6084,95.6085,99.2204,return,1.0615,,49.86979167,0,6,6,12,1,FBP-OG-91.png,0.4,1.2,13,0.5,,,,,,,,,,,,,,,,,,,,,,,,,,,,,,,,,,,,,,,,,,,,,
,,,,,WIN24_012,32,Male,2024-01-29_14h43.01.979,jersey_experiment_5,2023.2.2,Win32,84.03361345,,,,,,,,,,,,,,,,99.2205,100.5145,100.5145,104.2794,return,1.2604,,85.546875,0,7,7,3,1,FBP-OG-71.png,0.43,1.2,4,0.5,,,,,,,,,,,,,,,,,,,,,,,,,,,,,,,,,,,,,,,,,,,,,
,,,,,WIN24_012,32,Male,2024-01-29_14h43.01.979,jersey_experiment_5,2023.2.2,Win32,84.03361345,,,,,,,,,,,,,,,,104.2795,105.5736,105.5736,109.2035,return,0.9325,,25.390625,0,8,8,45,1,FBP-PT-17.png,0.35,1.2,46,0.5,,,,,,,,,,,,,,,,,,,,,,,,,,,,,,,,,,,,,,,,,,,,,
,,,,,WIN24_012,32,Male,2024-01-29_14h43.01.979,jersey_experiment_5,2023.2.2,Win32,84.03361345,,,,,,,,,,,,,,,,109.2036,111.0014,111.0014,113.6092,return,0.9551,,16.66666667,0,9,9,40,1,FBP-YG-91.png,0.35,1.2,41,1,,,,,,,,,,,,,,,,,,,,,,,,,,,,,,,,,,,,,,,,,,,,,
,,,,,WIN24_012,32,Male,2024-01-29_14h43.01.979,jersey_experiment_5,2023.2.2,Win32,84.03361345,,,,,,,,,,,,,,,,113.6094,115.4093,115.4093,117.8682,return,0.8238,,84.375,0,10,10,43,1,FBP-YG-91.png,0.43,1.2,44,1,,,,,,,,,,,,,,,,,,,,,,,,,,,,,,,,,,,,,,,,,,,,,
,,,,,WIN24_012,32,Male,2024-01-29_14h43.01.979,jersey_experiment_5,2023.2.2,Win32,84.03361345,,,,,,,,,,,,,,,,117.8684,119.1623,119.1623,122.0726,return,1.0473,,25.13020833,0,11,11,5,1,FBP-OG-81.png,0.35,1.2,6,0.5,,,,,,,,,,,,,,,,,,,,,,,,,,,,,,,,,,,,,,,,,,,,,
,,,,,WIN24_012,32,Male,2024-01-29_14h43.01.979,jersey_experiment_5,2023.2.2,Win32,84.03361345,,,,,,,,,,,,,,,,122.0728,123.8683,123.8683,126.1667,return,0.7751,,49.73958333,0,12,12,31,1,FBP-YG-71.png,0.37,1.2,32,1,,,,,,,,,,,,,,,,,,,,,,,,,,,,,,,,,,,,,,,,,,,,,
,,,,,WIN24_012,32,Male,2024-01-29_14h43.01.979,jersey_experiment_5,2023.2.2,Win32,84.03361345,,,,,,,,,,,,,,,,126.1669,127.9627,127.9627,130.0686,return,0.7926,,92.1875,0,13,13,39,1,FBP-YG-81.png,0.45,1.2,40,1,,,,,,,,,,,,,,,,,,,,,,,,,,,,,,,,,,,,,,,,,,,,,
,,,,,WIN24_012,32,Male,2024-01-29_14h43.01.979,jersey_experiment_5,2023.2.2,Win32,84.03361345,,,,,,,,,,,,,,,,130.0688,131.3629,131.3629,133.6217,return,0.7207,,62.36979167,0,14,14,51,1,FBP-PT-18.png,0.37,1.2,52,0.5,,,,,,,,,,,,,,,,,,,,,,,,,,,,,,,,,,,,,,,,,,,,,
,,,,,WIN24_012,32,Male,2024-01-29_14h43.01.979,jersey_experiment_5,2023.2.2,Win32,84.03361345,,,,,,,,,,,,,,,,133.6218,134.9158,134.9158,136.9041,return,0.7668,,62.36979167,0,15,15,7,1,FBP-OG-81.png,0.4,1.2,8,0.5,,,,,,,,,,,,,,,,,,,,,,,,,,,,,,,,,,,,,,,,,,,,,
,,,,,WIN24_012,32,Male,2024-01-29_14h43.01.979,jersey_experiment_5,2023.2.2,Win32,84.03361345,,,,,,,,,,,,,,,,136.9042,138.1984,138.1984,142.0852,return,2.2255,,79.94791667,0,16,16,9,1,FBP-OG-81.png,0.45,1.2,10,0.5,,,,,,,,,,,,,,,,,,,,,,,,,,,,,,,,,,,,,,,,,,,,,
,,,,,WIN24_012,32,Male,2024-01-29_14h43.01.979,jersey_experiment_5,2023.2.2,Win32,84.03361345,,,,,,,,,,,,,,,,142.0853,143.8809,143.8809,146.7634,return,0.7528,,6.380208333,0,17,17,21,1,FBP-RB-18.png,0.37,1.2,22,1,,,,,,,,,,,,,,,,,,,,,,,,,,,,,,,,,,,,,,,,,,,,,
,,,,,WIN24_012,32,Male,2024-01-29_14h43.01.979,jersey_experiment_5,2023.2.2,Win32,84.03361345,,,,,,,,,,,,,,,,146.7635,148.5633,148.5633,150.5795,return,0.7295,,99.86979167,0,18,18,44,1,FBP-YG-91.png,0.45,1.2,45,1,,,,,,,,,,,,,,,,,,,,,,,,,,,,,,,,,,,,,,,,,,,,,
,,,,,WIN24_012,32,Male,2024-01-29_14h43.01.979,jersey_experiment_5,2023.2.2,Win32,84.03361345,,,,,,,,,,,,,,,,150.5797,151.8811,151.8811,154.152,return,0.7164,,74.86979167,0,19,19,53,1,FBP-PT-18.png,0.43,1.2,54,0.5,,,,,,,,,,,,,,,,,,,,,,,,,,,,,,,,,,,,,,,,,,,,,
,,,,,WIN24_012,32,Male,2024-01-29_14h43.01.979,jersey_experiment_5,2023.2.2,Win32,84.03361345,,,,,,,,,,,,,,,,154.1521,155.952,155.952,157.9584,return,0.7318,,3.645833333,0,20,20,20,1,FBP-RB-18.png,0.35,1.2,21,1,,,,,,,,,,,,,,,,,,,,,,,,,,,,,,,,,,,,,,,,,,,,,
,,,,,WIN24_012,32,Male,2024-01-29_14h43.01.979,jersey_experiment_5,2023.2.2,Win32,84.03361345,,,,,,,,,,,,,,,,157.9585,159.258,159.258,161.6579,return,0.719,,74.34895833,0,21,21,58,1,FBP-PT-19.png,0.43,1.2,59,0.5,,,,,,,,,,,,,,,,,,,,,,,,,,,,,,,,,,,,,,,,,,,,,
,,,,,WIN24_012,32,Male,2024-01-29_14h43.01.979,jersey_experiment_5,2023.2.2,Win32,84.03361345,,,,,,,,,,,,,,,,161.6581,163.4579,163.458,167.156,return,2.0351,,43.75,0,22,22,41,1,FBP-YG-91.png,0.37,1.2,42,1,,,,,,,,,,,,,,,,,,,,,,,,,,,,,,,,,,,,,,,,,,,,,
,,,,,WIN24_012,32,Male,2024-01-29_14h43.01.979,jersey_experiment_5,2023.2.2,Win32,84.03361345,,,,,,,,,,,,,,,,167.1562,168.9524,168.9525,170.6466,return,0.6376,,24.08854167,0,23,23,25,1,FBP-RB-19.png,0.35,1.2,26,1,,,,,,,,,,,,,,,,,,,,,,,,,,,,,,,,,,,,,,,,,,,,,
,,,,,WIN24_012,32,Male,2024-01-29_14h43.01.979,jersey_experiment_5,2023.2.2,Win32,84.03361345,,,,,,,,,,,,,,,,170.6467,171.9408,171.9408,174.4862,return,0.9532,,74.73958333,0,24,24,13,1,FBP-OG-91.png,0.43,1.2,14,0.5,,,,,,,,,,,,,,,,,,,,,,,,,,,,,,,,,,,,,,,,,,,,,
,,,,,WIN24_012,32,Male,2024-01-29_14h43.01.979,jersey_experiment_5,2023.2.2,Win32,84.03361345,,,,,,,,,,,,,,,,174.4864,176.2821,176.2822,177.9923,return,0.659,,0.78125,0,25,25,15,1,FBP-RB-17.png,0.35,1.2,16,1,,,,,,,,,,,,,,,,,,,,,,,,,,,,,,,,,,,,,,,,,,,,,
,,,,,WIN24_012,32,Male,2024-01-29_14h43.01.979,jersey_experiment_5,2023.2.2,Win32,84.03361345,,,,,,,,,,,,,,,,177.9924,179.7921,179.7921,181.3882,return,0.5625,,64.32291667,0,26,26,22,1,FBP-RB-18.png,0.4,1.2,23,1,,,,,,,,,,,,,,,,,,,,,,,,,,,,,,,,,,,,,,,,,,,,,
,,,,,WIN24_012,32,Male,2024-01-29_14h43.01.979,jersey_experiment_5,2023.2.2,Win32,84.03361345,,,,,,,,,,,,,,,,181.3884,182.6822,182.6823,184.753,return,0.5981,,86.328125,0,27,27,4,1,FBP-OG-71.png,0.45,1.2,5,0.5,,,,,,,,,,,,,,,,,,,,,,,,,,,,,,,,,,,,,,,,,,,,,
,,,,,WIN24_012,32,Male,2024-01-29_14h43.01.979,jersey_experiment_5,2023.2.2,Win32,84.03361345,,,,,,,,,,,,,,,,184.7532,186.047,186.047,188.1884,return,0.6213,,36.71875,0,28,28,6,1,FBP-OG-81.png,0.37,1.2,7,0.5,,,,,,,,,,,,,,,,,,,,,,,,,,,,,,,,,,,,,,,,,,,,,
,,,,,WIN24_012,32,Male,2024-01-29_14h43.01.979,jersey_experiment_5,2023.2.2,Win32,84.03361345,,,,,,,,,,,,,,,,188.1886,189.4826,189.4826,191.3926,return,0.647,,97.65625,0,29,29,49,1,FBP-PT-17.png,0.45,1.2,50,0.5,,,,,,,,,,,,,,,,,,,,,,,,,,,,,,,,,,,,,,,,,,,,,
,,,,,WIN24_012,32,Male,2024-01-29_14h43.01.979,jersey_experiment_5,2023.2.2,Win32,84.03361345,,,,,,,,,,,,,,,,191.3926,192.6866,192.6866,194.781,return,0.5981,,63.15104167,0,30,30,57,1,FBP-PT-19.png,0.4,1.2,58,0.5,,,,,,,,,,,,,,,,,,,,,,,,,,,,,,,,,,,,,,,,,,,,,
,,,,,WIN24_012,32,Male,2024-01-29_14h43.01.979,jersey_experiment_5,2023.2.2,Win32,84.03361345,,,,,,,,,,,,,,,,194.7811,196.577,196.577,198.3064,return,0.5945,,75.65104167,0,31,31,18,1,FBP-RB-17.png,0.43,1.2,19,1,,,,,,,,,,,,,,,,,,,,,,,,,,,,,,,,,,,,,,,,,,,,,
,,,,,WIN24_012,32,Male,2024-01-29_14h43.01.979,jersey_experiment_5,2023.2.2,Win32,84.03361345,,,,,,,,,,,,,,,,198.3067,200.1063,200.1063,201.8048,return,0.6566,,3.255208333,0,32,32,35,1,FBP-YG-81.png,0.35,1.2,36,1,,,,,,,,,,,,,,,,,,,,,,,,,,,,,,,,,,,,,,,,,,,,,
,,,,,WIN24_012,32,Male,2024-01-29_14h43.01.979,jersey_experiment_5,2023.2.2,Win32,84.03361345,,,,,,,,,,,,,,,,201.8049,203.1066,203.1067,205.0479,return,0.6015,,25.13020833,0,33,33,46,1,FBP-PT-17.png,0.37,1.2,47,0.5,,,,,,,,,,,,,,,,,,,,,,,,,,,,,,,,,,,,,,,,,,,,,
,,,,,WIN24_012,32,Male,2024-01-29_14h43.01.979,jersey_experiment_5,2023.2.2,Win32,84.03361345,,,,,,,,,,,,,,,,205.0481,206.8479,206.848,209.5089,return,0.5861,,53.515625,0,34,34,37,1,FBP-YG-81.png,0.4,1.2,38,1,,,,,,,,,,,,,,,,,,,,,,,,,,,,,,,,,,,,,,,,,,,,,
,,,,,WIN24_012,32,Male,2024-01-29_14h43.01.979,jersey_experiment_5,2023.2.2,Win32,84.03361345,,,,,,,,,,,,,,,,209.509,210.801,210.801,212.8055,return,0.6103,,31.640625,0,35,35,11,1,FBP-OG-91.png,0.37,1.2,12,0.5,,,,,,,,,,,,,,,,,,,,,,,,,,,,,,,,,,,,,,,,,,,,,
,,,,,WIN24_012,32,Male,2024-01-29_14h43.01.979,jersey_experiment_5,2023.2.2,Win32,84.03361345,,,,,,,,,,,,,,,,212.8057,214.107,214.1071,217.3583,return,0.6371,,98.95833333,0,36,36,14,1,FBP-OG-91.png,0.45,1.2,15,0.5,,,,,,,,,,,,,,,,,,,,,,,,,,,,,,,,,,,,,,,,,,,,,
,,,,,WIN24_012,32,Male,2024-01-29_14h43.01.979,jersey_experiment_5,2023.2.2,Win32,84.03361345,,,,,,,,,,,,,,,,217.3585,219.1543,219.1543,220.839,return,0.6572,,25.65104167,0,37,37,16,1,FBP-RB-17.png,0.37,1.2,17,1,,,,,,,,,,,,,,,,,,,,,,,,,,,,,,,,,,,,,,,,,,,,,
,,,,,WIN24_012,32,Male,2024-01-29_14h43.01.979,jersey_experiment_5,2023.2.2,Win32,84.03361345,,,,,,,,,,,,,,,,220.8391,222.6367,222.6367,224.4015,return,0.6073,,90.625,0,38,38,29,1,FBP-RB-19.png,0.45,1.2,30,1,,,,,,,,,,,,,,,,,,,,,,,,,,,,,,,,,,,,,,,,,,,,,
,,,,,WIN24_012,32,Male,2024-01-29_14h43.01.979,jersey_experiment_5,2023.2.2,Win32,84.03361345,,,,,,,,,,,,,,,,224.4017,225.6957,225.6957,228.484,return,1.5106,,74.08854167,0,39,39,47,1,FBP-PT-17.png,0.4,1.2,48,0.5,,,,,,,,,,,,,,,,,,,,,,,,,,,,,,,,,,,,,,,,,,,,,
,,,,,WIN24_012,32,Male,2024-01-29_14h43.01.979,jersey_experiment_5,2023.2.2,Win32,84.03361345,,,,,,,,,,,,,,,,228.4842,230.284,230.2841,233.1471,return,2.0472,,99.34895833,0,40,40,19,1,FBP-RB-17.png,0.45,1.2,20,1,,,,,,,,,,,,,,,,,,,,,,,,,,,,,,,,,,,,,,,,,,,,,
,,,,,WIN24_012,32,Male,2024-01-29_14h43.01.979,jersey_experiment_5,2023.2.2,Win32,84.03361345,,,,,,,,,,,,,,,,233.1472,234.4488,234.4488,236.7102,return,0.7629,,0.651041667,0,41,41,1,1,FBP-OG-71.png,0.37,1.2,2,0.5,,,,,,,,,,,,,,,,,,,,,,,,,,,,,,,,,,,,,,,,,,,,,
,,,,,WIN24_012,32,Male,2024-01-29_14h43.01.979,jersey_experiment_5,2023.2.2,Win32,84.03361345,,,,,,,,,,,,,,,,236.7103,238.5122,238.5122,239.9549,return,0.6078,,25,0,42,42,26,1,FBP-RB-19.png,0.37,1.2,27,1,,,,,,,,,,,,,,,,,,,,,,,,,,,,,,,,,,,,,,,,,,,,,
,,,,,WIN24_012,32,Male,2024-01-29_14h43.01.979,jersey_experiment_5,2023.2.2,Win32,84.03361345,,,,,,,,,,,,,,,,239.9552,241.755,241.755,244.3345,return,0.6108,,51.171875,0,43,43,38,1,FBP-YG-81.png,0.43,1.2,39,1,,,,,,,,,,,,,,,,,,,,,,,,,,,,,,,,,,,,,,,,,,,,,
,,,,,WIN24_012,32,Male,2024-01-29_14h43.01.979,jersey_experiment_5,2023.2.2,Win32,84.03361345,,,,,,,,,,,,,,,,244.3346,245.6433,245.6433,248.3242,return,0.5276,,51.04166667,0,44,44,8,1,FBP-OG-81.png,0.43,1.2,9,0.5,,,,,,,,,,,,,,,,,,,,,,,,,,,,,,,,,,,,,,,,,,,,,
,,,,,WIN24_012,32,Male,2024-01-29_14h43.01.979,jersey_experiment_5,2023.2.2,Win32,84.03361345,,,,,,,,,,,,,,,,248.3242,250.1201,250.1202,251.5831,return,0.5764,,74.609375,0,45,45,28,1,FBP-RB-19.png,0.43,1.2,29,1,,,,,,,,,,,,,,,,,,,,,,,,,,,,,,,,,,,,,,,,,,,,,
,,,,,WIN24_012,32,Male,2024-01-29_14h43.01.979,jersey_experiment_5,2023.2.2,Win32,84.03361345,,,,,,,,,,,,,,,,251.5833,253.379,253.3791,254.8556,return,0.5922,,50.390625,0,46,46,17,1,FBP-RB-17.png,0.4,1.2,18,1,,,,,,,,,,,,,,,,,,,,,,,,,,,,,,,,,,,,,,,,,,,,,
,,,,,WIN24_012,32,Male,2024-01-29_14h43.01.979,jersey_experiment_5,2023.2.2,Win32,84.03361345,,,,,,,,,,,,,,,,254.8558,256.654,256.654,258.2422,return,0.5973,,74.21875,0,47,47,23,1,FBP-RB-18.png,0.43,1.2,24,1,,,,,,,,,,,,,,,,,,,,,,,,,,,,,,,,,,,,,,,,,,,,,
,,,,,WIN24_012,32,Male,2024-01-29_14h43.01.979,jersey_experiment_5,2023.2.2,Win32,84.03361345,,,,,,,,,,,,,,,,258.2423,259.5352,259.5352,261.6734,return,0.7178,,51.04166667,0,48,48,2,1,FBP-OG-71.png,0.4,1.2,3,0.5,,,,,,,,,,,,,,,,,,,,,,,,,,,,,,,,,,,,,,,,,,,,,
,,,,,WIN24_012,32,Male,2024-01-29_14h43.01.979,jersey_experiment_5,2023.2.2,Win32,84.03361345,,,,,,,,,,,,,,,,261.6738,262.9676,262.9676,266.1249,return,0.6237,,24.73958333,0,49,49,0,1,FBP-OG-71.png,0.35,1.2,1,0.5,,,,,,,,,,,,,,,,,,,,,,,,,,,,,,,,,,,,,,,,,,,,,
,,,,,WIN24_012,32,Male,2024-01-29_14h43.01.979,jersey_experiment_5,2023.2.2,Win32,84.03361345,,,,,,,,,,,,,,,,266.125,267.9207,267.9208,269.4779,return,0.6483,,76.82291667,0,50,50,24,1,FBP-RB-18.png,0.45,1.2,25,1,,,,,,,,,,,,,,,,,,,,,,,,,,,,,,,,,,,,,,,,,,,,,
,,,,,WIN24_012,32,Male,2024-01-29_14h43.01.979,jersey_experiment_5,2023.2.2,Win32,84.03361345,,,,,,,,,,,,,,,,269.478,271.2736,271.2736,273.0211,return,0.5314,,72.265625,0,51,51,33,1,FBP-YG-71.png,0.43,1.2,34,1,,,,,,,,,,,,,,,,,,,,,,,,,,,,,,,,,,,,,,,,,,,,,
,,,,,WIN24_012,32,Male,2024-01-29_14h43.01.979,jersey_experiment_5,2023.2.2,Win32,84.03361345,,,,,,,,,,,,,,,,273.0213,274.8151,274.8151,276.2548,return,0.5652,,94.53125,0,52,52,34,1,FBP-YG-71.png,0.45,1.2,35,1,,,,,,,,,,,,,,,,,,,,,,,,,,,,,,,,,,,,,,,,,,,,,
,,,,,WIN24_012,32,Male,2024-01-29_14h43.01.979,jersey_experiment_5,2023.2.2,Win32,84.03361345,,,,,,,,,,,,,,,,276.2549,277.5563,277.5563,279.5371,return,0.5414,,73.56770833,0,53,53,52,1,FBP-PT-18.png,0.4,1.2,53,0.5,,,,,,,,,,,,,,,,,,,,,,,,,,,,,,,,,,,,,,,,,,,,,
,,,,,WIN24_012,32,Male,2024-01-29_14h43.01.979,jersey_experiment_5,2023.2.2,Win32,84.03361345,,,,,,,,,,,,,,,,279.5372,280.8411,280.8411,283.2664,return,0.5413,,4.166666667,0,54,54,50,1,FBP-PT-18.png,0.35,1.2,51,0.5,,,,,,,,,,,,,,,,,,,,,,,,,,,,,,,,,,,,,,,,,,,,,
,,,,,WIN24_012,32,Male,2024-01-29_14h43.01.979,jersey_experiment_5,2023.2.2,Win32,84.03361345,,,,,,,,,,,,,,,,283.2666,284.5683,284.5683,286.8215,return,0.7429,,73.17708333,0,55,55,48,1,FBP-PT-17.png,0.43,1.2,49,0.5,,,,,,,,,,,,,,,,,,,,,,,,,,,,,,,,,,,,,,,,,,,,,
,,,,,WIN24_012,32,Male,2024-01-29_14h43.01.979,jersey_experiment_5,2023.2.2,Win32,84.03361345,,,,,,,,,,,,,,,,286.8217,288.1137,288.1137,289.8667,return,0.5295,,95.05208333,0,56,56,54,1,FBP-PT-18.png,0.45,1.2,55,0.5,,,,,,,,,,,,,,,,,,,,,,,,,,,,,,,,,,,,,,,,,,,,,
,,,,,WIN24_012,32,Male,2024-01-29_14h43.01.979,jersey_experiment_5,2023.2.2,Win32,84.03361345,,,,,,,,,,,,,,,,289.8669,291.6668,291.6668,293.2808,return,0.5671,,11.97916667,0,57,57,30,1,FBP-YG-71.png,0.35,1.2,31,1,,,,,,,,,,,,,,,,,,,,,,,,,,,,,,,,,,,,,,,,,,,,,
,,,,,WIN24_012,32,Male,2024-01-29_14h43.01.979,jersey_experiment_5,2023.2.2,Win32,84.03361345,,,,,,,,,,,,,,,,293.281,295.0746,295.0746,296.6747,return,0.7333,,50.65104167,0,58,58,32,1,FBP-YG-71.png,0.4,1.2,33,1,,,,,,,,,,,,,,,,,,,,,,,,,,,,,,,,,,,,,,,,,,,,,
,,,,,WIN24_012,32,Male,2024-01-29_14h43.01.979,jersey_experiment_5,2023.2.2,Win32,84.03361345,,,,,,,,,,,,,,,,296.6749,297.9689,297.9689,299.8042,return,0.4945,,0.520833333,0,59,59,55,1,FBP-PT-19.png,0.35,1.2,56,0.5,,,,,,,,,,,,,,,,,,,,,,,,,,,,,,,,,,,,,,,,,,,,,
,,,,,WIN24_012,32,Male,2024-01-29_14h43.01.979,jersey_experiment_5,2023.2.2,Win32,84.03361345,,,,,,,,,,,,,,,,299.807,301.1026,301.1026,303.1146,return,0.5749,,50.52083333,,,,,,FBP-PT-91.png,0.4,1.2,58,0.5,0,0,0,57,1,,,,,,,,,,,,,,,,,,,,,,,,,,,,,,,,,,,,,,,,
,,,,,WIN24_012,32,Male,2024-01-29_14h43.01.979,jersey_experiment_5,2023.2.2,Win32,84.03361345,,,,,,,,,,,,,,,,303.115,304.4163,304.4163,306.1479,return,0.5631,,26.04166667,,,,,,FBP-OG-17.png,0.37,1.2,2,0.5,0,1,1,1,1,,,,,,,,,,,,,,,,,,,,,,,,,,,,,,,,,,,,,,,,
,,,,,WIN24_012,32,Male,2024-01-29_14h43.01.979,jersey_experiment_5,2023.2.2,Win32,84.03361345,,,,,,,,,,,,,,,,306.1481,307.4398,307.4398,308.9145,return,0.5079,,74.34895833,,,,,,FBP-PT-71.png,0.43,1.2,49,0.5,0,2,2,48,1,,,,,,,,,,,,,,,,,,,,,,,,,,,,,,,,,,,,,,,,
,,,,,WIN24_012,32,Male,2024-01-29_14h43.01.979,jersey_experiment_5,2023.2.2,Win32,84.03361345,,,,,,,,,,,,,,,,308.9147,310.7145,310.7145,312.244,return,0.5863,,52.34375,,,,,,FBP-YG-18.png,0.4,1.2,38,1,0,3,3,37,1,,,,,,,,,,,,,,,,,,,,,,,,,,,,,,,,,,,,,,,,
,,,,,WIN24_012,32,Male,2024-01-29_14h43.01.979,jersey_experiment_5,2023.2.2,Win32,84.03361345,,,,,,,,,,,,,,,,312.2441,314.0401,314.0401,315.4913,return,0.9077,,52.34375,,,,,,FBP-RB-81.png,0.37,1.2,22,1,0,4,4,21,1,,,,,,,,,,,,,,,,,,,,,,,,,,,,,,,,,,,,,,,,
,,,,,WIN24_012,32,Male,2024-01-29_14h43.01.979,jersey_experiment_5,2023.2.2,Win32,84.03361345,,,,,,,,,,,,,,,,315.4915,316.7932,316.7932,318.3738,return,0.4824,,76.04166667,,,,,,FBP-PT-81.png,0.43,1.2,54,0.5,0,5,5,53,1,,,,,,,,,,,,,,,,,,,,,,,,,,,,,,,,,,,,,,,,
,,,,,WIN24_012,32,Male,2024-01-29_14h43.01.979,jersey_experiment_5,2023.2.2,Win32,84.03361345,,,,,,,,,,,,,,,,318.3739,320.1738,320.1738,321.3856,return,0.4805,,96.484375,,,,,,FBP-YG-18.png,0.45,1.2,40,1,0,6,6,39,1,,,,,,,,,,,,,,,,,,,,,,,,,,,,,,,,,,,,,,,,
,,,,,WIN24_012,32,Male,2024-01-29_14h43.01.979,jersey_experiment_5,2023.2.2,Win32,84.03361345,,,,,,,,,,,,,,,,321.3857,322.6875,322.6876,324.7699,return,0.8422,,50.78125,,,,,,FBP-OG-17.png,0.4,1.2,3,0.5,0,7,7,2,1,,,,,,,,,,,,,,,,,,,,,,,,,,,,,,,,,,,,,,,,
,,,,,WIN24_012,32,Male,2024-01-29_14h43.01.979,jersey_experiment_5,2023.2.2,Win32,84.03361345,,,,,,,,,,,,,,,,324.7701,326.0679,326.0679,327.6937,return,0.5317,,25.65104167,,,,,,FBP-PT-91.png,0.35,1.2,56,0.5,0,8,8,55,1,,,,,,,,,,,,,,,,,,,,,,,,,,,,,,,,,,,,,,,,
,,,,,WIN24_012,32,Male,2024-01-29_14h43.01.979,jersey_experiment_5,2023.2.2,Win32,84.03361345,,,,,,,,,,,,,,,,327.6939,328.9976,328.9976,330.6906,return,0.5173,,51.43229167,,,,,,FBP-PT-81.png,0.4,1.2,53,0.5,0,9,9,52,1,,,,,,,,,,,,,,,,,,,,,,,,,,,,,,,,,,,,,,,,
,,,,,WIN24_012,32,Male,2024-01-29_14h43.01.979,jersey_experiment_5,2023.2.2,Win32,84.03361345,,,,,,,,,,,,,,,,330.6907,331.9858,331.9858,333.6096,return,0.4473,,75,,,,,,FBP-OG-18.png,0.43,1.2,9,0.5,0,10,10,8,1,,,,,,,,,,,,,,,,,,,,,,,,,,,,,,,,,,,,,,,,
,,,,,WIN24_012,32,Male,2024-01-29_14h43.01.979,jersey_experiment_5,2023.2.2,Win32,84.03361345,,,,,,,,,,,,,,,,333.6098,334.9114,334.9115,336.7296,return,0.4847,,25.78125,,,,,,FBP-PT-71.png,0.37,1.2,47,0.5,0,11,11,46,1,,,,,,,,,,,,,,,,,,,,,,,,,,,,,,,,,,,,,,,,
,,,,,WIN24_012,32,Male,2024-01-29_14h43.01.979,jersey_experiment_5,2023.2.2,Win32,84.03361345,,,,,,,,,,,,,,,,336.7298,338.0291,338.0291,339.7391,return,0.507,,25.78125,,,,,,FBP-OG-19.png,0.37,1.2,12,0.5,0,12,12,11,1,,,,,,,,,,,,,,,,,,,,,,,,,,,,,,,,,,,,,,,,
,,,,,WIN24_012,32,Male,2024-01-29_14h43.01.979,jersey_experiment_5,2023.2.2,Win32,84.03361345,,,,,,,,,,,,,,,,339.7393,341.5352,341.5353,342.4923,return,0.4927,,25.78125,,,,,,FBP-YG-18.png,0.35,1.2,36,1,0,13,13,35,1,,,,,,,,,,,,,,,,,,,,,,,,,,,,,,,,,,,,,,,,
,,,,,WIN24_012,32,Male,2024-01-29_14h43.01.979,jersey_experiment_5,2023.2.2,Win32,84.03361345,,,,,,,,,,,,,,,,342.4925,343.798,343.7981,345.516,return,0.494,,26.69270833,,,,,,FBP-OG-18.png,0.37,1.2,7,0.5,0,14,14,6,1,,,,,,,,,,,,,,,,,,,,,,,,,,,,,,,,,,,,,,,,
,,,,,WIN24_012,32,Male,2024-01-29_14h43.01.979,jersey_experiment_5,2023.2.2,Win32,84.03361345,,,,,,,,,,,,,,,,345.5161,347.3159,347.316,349.7825,return,1.814,,10.9375,,,,,,FBP-YG-19.png,0.35,1.2,41,1,0,15,15,40,1,,,,,,,,,,,,,,,,,,,,,,,,,,,,,,,,,,,,,,,,
,,,,,WIN24_012,32,Male,2024-01-29_14h43.01.979,jersey_experiment_5,2023.2.2,Win32,84.03361345,,,,,,,,,,,,,,,,349.7826,351.5769,351.5769,353.0222,return,0.5416,,97.78645833,,,,,,FBP-RB-91.png,0.45,1.2,30,1,0,16,16,29,1,,,,,,,,,,,,,,,,,,,,,,,,,,,,,,,,,,,,,,,,
,,,,,WIN24_012,32,Male,2024-01-29_14h43.01.979,jersey_experiment_5,2023.2.2,Win32,84.03361345,,,,,,,,,,,,,,,,353.0224,354.3279,354.3279,356.324,return,0.6048,,25.91145833,,,,,,FBP-OG-19.png,0.35,1.2,11,0.5,0,17,17,10,1,,,,,,,,,,,,,,,,,,,,,,,,,,,,,,,,,,,,,,,,
,,,,,WIN24_012,32,Male,2024-01-29_14h43.01.979,jersey_experiment_5,2023.2.2,Win32,84.03361345,,,,,,,,,,,,,,,,356.3242,357.6182,357.6183,359.1475,return,0.4925,,25.91145833,,,,,,FBP-PT-81.png,0.37,1.2,52,0.5,0,18,18,51,1,,,,,,,,,,,,,,,,,,,,,,,,,,,,,,,,,,,,,,,,
,,,,,WIN24_012,32,Male,2024-01-29_14h43.01.979,jersey_experiment_5,2023.2.2,Win32,84.03361345,,,,,,,,,,,,,,,,359.1477,360.9475,360.9476,362.6302,return,0.5553,,3.385416667,,,,,,FBP-RB-81.png,0.35,1.2,21,1,0,19,19,20,1,,,,,,,,,,,,,,,,,,,,,,,,,,,,,,,,,,,,,,,,
,,,,,WIN24_012,32,Male,2024-01-29_14h43.01.979,jersey_experiment_5,2023.2.2,Win32,84.03361345,,,,,,,,,,,,,,,,362.6303,364.4341,364.4341,366.9384,return,0.5274,,47.265625,,,,,,FBP-YG-17.png,0.37,1.2,32,1,0,20,20,31,1,,,,,,,,,,,,,,,,,,,,,,,,,,,,,,,,,,,,,,,,
,,,,,WIN24_012,32,Male,2024-01-29_14h43.01.979,jersey_experiment_5,2023.2.2,Win32,84.03361345,,,,,,,,,,,,,,,,366.9385,368.7401,368.7401,370.2422,return,0.512,,59.89583333,,,,,,FBP-RB-71.png,0.4,1.2,18,1,0,21,21,17,1,,,,,,,,,,,,,,,,,,,,,,,,,,,,,,,,,,,,,,,,
,,,,,WIN24_012,32,Male,2024-01-29_14h43.01.979,jersey_experiment_5,2023.2.2,Win32,84.03361345,,,,,,,,,,,,,,,,370.2424,371.5364,371.5364,373.0583,return,0.4455,,74.08854167,,,,,,FBP-PT-91.png,0.43,1.2,59,0.5,0,22,22,58,1,,,,,,,,,,,,,,,,,,,,,,,,,,,,,,,,,,,,,,,,
,,,,,WIN24_012,32,Male,2024-01-29_14h43.01.979,jersey_experiment_5,2023.2.2,Win32,84.03361345,,,,,,,,,,,,,,,,373.0584,374.8541,374.8541,377.0777,return,0.6037,,96.35416667,,,,,,FBP-YG-18.png,0.43,1.2,39,1,0,23,23,38,1,,,,,,,,,,,,,,,,,,,,,,,,,,,,,,,,,,,,,,,,
,,,,,WIN24_012,32,Male,2024-01-29_14h43.01.979,jersey_experiment_5,2023.2.2,Win32,84.03361345,,,,,,,,,,,,,,,,377.0779,378.3718,378.3718,380.4543,return,0.5652,,2.604166667,,,,,,FBP-PT-71.png,0.35,1.2,46,0.5,0,24,24,45,1,,,,,,,,,,,,,,,,,,,,,,,,,,,,,,,,,,,,,,,,
,,,,,WIN24_012,32,Male,2024-01-29_14h43.01.979,jersey_experiment_5,2023.2.2,Win32,84.03361345,,,,,,,,,,,,,,,,380.4545,381.7485,381.7485,384.0543,return,0.6493,,98.046875,,,,,,FBP-OG-19.png,0.45,1.2,15,0.5,0,25,25,14,1,,,,,,,,,,,,,,,,,,,,,,,,,,,,,,,,,,,,,,,,
,,,,,WIN24_012,32,Male,2024-01-29_14h43.01.979,jersey_experiment_5,2023.2.2,Win32,84.03361345,,,,,,,,,,,,,,,,384.0545,385.8544,385.8544,389.4311,return,0.602,,55.20833333,,,,,,FBP-YG-19.png,0.4,1.2,43,1,0,26,26,42,1,,,,,,,,,,,,,,,,,,,,,,,,,,,,,,,,,,,,,,,,
,,,,,WIN24_012,32,Male,2024-01-29_14h43.01.979,jersey_experiment_5,2023.2.2,Win32,84.03361345,,,,,,,,,,,,,,,,389.4313,390.7254,390.7254,392.9372,return,0.518,,69.140625,,,,,,FBP-OG-17.png,0.43,1.2,4,0.5,0,27,27,3,1,,,,,,,,,,,,,,,,,,,,,,,,,,,,,,,,,,,,,,,,
,,,,,WIN24_012,32,Male,2024-01-29_14h43.01.979,jersey_experiment_5,2023.2.2,Win32,84.03361345,,,,,,,,,,,,,,,,392.9373,394.7371,394.7371,396.3725,return,0.51,,75.52083333,,,,,,FBP-RB-71.png,0.43,1.2,19,1,0,28,28,18,1,,,,,,,,,,,,,,,,,,,,,,,,,,,,,,,,,,,,,,,,
,,,,,WIN24_012,32,Male,2024-01-29_14h43.01.979,jersey_experiment_5,2023.2.2,Win32,84.03361345,,,,,,,,,,,,,,,,396.3727,397.6667,397.6668,399.7491,return,0.5446,,43.88020833,,,,,,FBP-PT-91.png,0.37,1.2,57,0.5,0,29,29,56,1,,,,,,,,,,,,,,,,,,,,,,,,,,,,,,,,,,,,,,,,
,,,,,WIN24_012,32,Male,2024-01-29_14h43.01.979,jersey_experiment_5,2023.2.2,Win32,84.03361345,,,,,,,,,,,,,,,,399.7493,401.5491,401.5491,403.1256,return,0.5217,,4.427083333,,,,,,FBP-RB-91.png,0.35,1.2,26,1,0,30,30,25,1,,,,,,,,,,,,,,,,,,,,,,,,,,,,,,,,,,,,,,,,
,,,,,WIN24_012,32,Male,2024-01-29_14h43.01.979,jersey_experiment_5,2023.2.2,Win32,84.03361345,,,,,,,,,,,,,,,,403.1258,404.4199,404.4199,406.4904,return,0.5178,,86.84895833,,,,,,FBP-PT-81.png,0.45,1.2,55,0.5,0,31,31,54,1,,,,,,,,,,,,,,,,,,,,,,,,,,,,,,,,,,,,,,,,
,,,,,WIN24_012,32,Male,2024-01-29_14h43.01.979,jersey_experiment_5,2023.2.2,Win32,84.03361345,,,,,,,,,,,,,,,,406.4906,407.7846,407.7846,410.0082,return,0.5513,,100,,,,,,FBP-PT-91.png,0.45,1.2,60,0.5,0,32,32,59,1,,,,,,,,,,,,,,,,,,,,,,,,,,,,,,,,,,,,,,,,
,,,,,WIN24_012,32,Male,2024-01-29_14h43.01.979,jersey_experiment_5,2023.2.2,Win32,84.03361345,,,,,,,,,,,,,,,,410.0083,411.3025,411.3025,413.2603,return,0.5066,,50.52083333,,,,,,FBP-PT-71.png,0.4,1.2,48,0.5,0,33,33,47,1,,,,,,,,,,,,,,,,,,,,,,,,,,,,,,,,,,,,,,,,
,,,,,WIN24_012,32,Male,2024-01-29_14h43.01.979,jersey_experiment_5,2023.2.2,Win32,84.03361345,,,,,,,,,,,,,,,,413.2605,414.5615,414.5615,416.6344,return,0.5259,,73.95833333,,,,,,FBP-OG-18.png,0.45,1.2,10,0.5,0,34,34,9,1,,,,,,,,,,,,,,,,,,,,,,,,,,,,,,,,,,,,,,,,
,,,,,WIN24_012,32,Male,2024-01-29_14h43.01.979,jersey_experiment_5,2023.2.2,Win32,84.03361345,,,,,,,,,,,,,,,,416.6345,417.9261,417.9261,420.3382,return,0.5476,,56.25,,,,,,FBP-OG-19.png,0.43,1.2,14,0.5,0,35,35,13,1,,,,,,,,,,,,,,,,,,,,,,,,,,,,,,,,,,,,,,,,
,,,,,WIN24_012,32,Male,2024-01-29_14h43.01.979,jersey_experiment_5,2023.2.2,Win32,84.03361345,,,,,,,,,,,,,,,,420.3384,422.1382,422.1382,424.1541,return,0.5181,,68.88020833,,,,,,FBP-YG-17.png,0.43,1.2,34,1,0,36,36,33,1,,,,,,,,,,,,,,,,,,,,,,,,,,,,,,,,,,,,,,,,
,,,,,WIN24_012,32,Male,2024-01-29_14h43.01.979,jersey_experiment_5,2023.2.2,Win32,84.03361345,,,,,,,,,,,,,,,,424.1543,425.444,425.4441,427.4323,return,0.5551,,3.645833333,,,,,,FBP-OG-17.png,0.35,1.2,1,0.5,0,37,37,0,1,,,,,,,,,,,,,,,,,,,,,,,,,,,,,,,,,,,,,,,,
,,,,,WIN24_012,32,Male,2024-01-29_14h43.01.979,jersey_experiment_5,2023.2.2,Win32,84.03361345,,,,,,,,,,,,,,,,427.4325,429.2325,429.2325,433.2484,return,2.8235,,84.89583333,,,,,,FBP-RB-71.png,0.45,1.2,20,1,0,38,38,19,1,,,,,,,,,,,,,,,,,,,,,,,,,,,,,,,,,,,,,,,,
,,,,,WIN24_012,32,Male,2024-01-29_14h43.01.979,jersey_experiment_5,2023.2.2,Win32,84.03361345,,,,,,,,,,,,,,,,433.2485,435.0446,435.0446,436.8211,return,0.5799,,30.078125,,,,,,FBP-YG-18.png,0.37,1.2,37,1,0,39,39,36,1,,,,,,,,,,,,,,,,,,,,,,,,,,,,,,,,,,,,,,,,
,,,,,WIN24_012,32,Male,2024-01-29_14h43.01.979,jersey_experiment_5,2023.2.2,Win32,84.03361345,,,,,,,,,,,,,,,,436.8212,438.1153,438.1153,440.2918,return,0.782,,49.73958333,,,,,,FBP-OG-19.png,0.4,1.2,13,0.5,0,40,40,12,1,,,,,,,,,,,,,,,,,,,,,,,,,,,,,,,,,,,,,,,,
,,,,,WIN24_012,32,Male,2024-01-29_14h43.01.979,jersey_experiment_5,2023.2.2,Win32,84.03361345,,,,,,,,,,,,,,,,440.2919,442.0919,442.092,443.6589,return,0.6824,,25.52083333,,,,,,FBP-YG-19.png,0.37,1.2,42,1,0,41,41,41,1,,,,,,,,,,,,,,,,,,,,,,,,,,,,,,,,,,,,,,,,
,,,,,WIN24_012,32,Male,2024-01-29_14h43.01.979,jersey_experiment_5,2023.2.2,Win32,84.03361345,,,,,,,,,,,,,,,,443.6591,445.4567,445.4567,447.3038,return,0.5548,,10.546875,,,,,,FBP-YG-17.png,0.35,1.2,31,1,0,42,42,30,1,,,,,,,,,,,,,,,,,,,,,,,,,,,,,,,,,,,,,,,,
,,,,,WIN24_012,32,Male,2024-01-29_14h43.01.979,jersey_experiment_5,2023.2.2,Win32,84.03361345,,,,,,,,,,,,,,,,447.304,448.598,448.598,451.859,return,0.5255,,38.54166667,,,,,,FBP-PT-81.png,0.35,1.2,51,0.5,0,43,43,50,1,,,,,,,,,,,,,,,,,,,,,,,,,,,,,,,,,,,,,,,,
,,,,,WIN24_012,32,Male,2024-01-29_14h43.01.979,jersey_experiment_5,2023.2.2,Win32,84.03361345,,,,,,,,,,,,,,,,451.8591,453.6609,453.6609,455.01,return,0.4657,,25.26041667,,,,,,FBP-RB-71.png,0.35,1.2,16,1,0,44,44,15,1,,,,,,,,,,,,,,,,,,,,,,,,,,,,,,,,,,,,,,,,
,,,,,WIN24_012,32,Male,2024-01-29_14h43.01.979,jersey_experiment_5,2023.2.2,Win32,84.03361345,,,,,,,,,,,,,,,,455.0102,456.8141,456.8141,458.316,return,0.5089,,63.02083333,,,,,,FBP-YG-17.png,0.4,1.2,33,1,0,45,45,32,1,,,,,,,,,,,,,,,,,,,,,,,,,,,,,,,,,,,,,,,,
,,,,,WIN24_012,32,Male,2024-01-29_14h43.01.979,jersey_experiment_5,2023.2.2,Win32,84.03361345,,,,,,,,,,,,,,,,458.3162,459.6143,459.6143,462.9228,return,0.5183,,92.96875,,,,,,FBP-PT-71.png,0.45,1.2,50,0.5,0,46,46,49,1,,,,,,,,,,,,,,,,,,,,,,,,,,,,,,,,,,,,,,,,
,,,,,WIN24_012,32,Male,2024-01-29_14h43.01.979,jersey_experiment_5,2023.2.2,Win32,84.03361345,,,,,,,,,,,,,,,,462.9229,464.226,464.226,466.9322,return,0.6235,,52.08333333,,,,,,FBP-OG-18.png,0.4,1.2,8,0.5,0,47,47,7,1,,,,,,,,,,,,,,,,,,,,,,,,,,,,,,,,,,,,,,,,
,,,,,WIN24_012,32,Male,2024-01-29_14h43.01.979,jersey_experiment_5,2023.2.2,Win32,84.03361345,,,,,,,,,,,,,,,,466.9324,468.732,468.732,470.4618,return,0.602,,73.828125,,,,,,FBP-YG-19.png,0.43,1.2,44,1,0,48,48,43,1,,,,,,,,,,,,,,,,,,,,,,,,,,,,,,,,,,,,,,,,
,,,,,WIN24_012,32,Male,2024-01-29_14h43.01.979,jersey_experiment_5,2023.2.2,Win32,84.03361345,,,,,,,,,,,,,,,,470.4619,471.7633,471.7633,473.7089,return,0.5647,,26.171875,,,,,,FBP-OG-18.png,0.35,1.2,6,0.5,0,49,49,5,1,,,,,,,,,,,,,,,,,,,,,,,,,,,,,,,,,,,,,,,,
,,,,,WIN24_012,32,Male,2024-01-29_14h43.01.979,jersey_experiment_5,2023.2.2,Win32,84.03361345,,,,,,,,,,,,,,,,473.7091,475.5047,475.5047,477.3207,return,0.5981,,73.95833333,,,,,,FBP-RB-91.png,0.43,1.2,29,1,0,50,50,28,1,,,,,,,,,,,,,,,,,,,,,,,,,,,,,,,,,,,,,,,,
,,,,,WIN24_012,32,Male,2024-01-29_14h43.01.979,jersey_experiment_5,2023.2.2,Win32,84.03361345,,,,,,,,,,,,,,,,477.3208,479.1168,479.1168,480.6933,return,0.5565,,49.609375,,,,,,FBP-RB-91.png,0.37,1.2,27,1,0,51,51,26,1,,,,,,,,,,,,,,,,,,,,,,,,,,,,,,,,,,,,,,,,
,,,,,WIN24_012,32,Male,2024-01-29_14h43.01.979,jersey_experiment_5,2023.2.2,Win32,84.03361345,,,,,,,,,,,,,,,,480.6935,482.4972,482.4973,483.8464,return,0.4973,,74.47916667,,,,,,FBP-RB-81.png,0.43,1.2,24,1,0,52,52,23,1,,,,,,,,,,,,,,,,,,,,,,,,,,,,,,,,,,,,,,,,
,,,,,WIN24_012,32,Male,2024-01-29_14h43.01.979,jersey_experiment_5,2023.2.2,Win32,84.03361345,,,,,,,,,,,,,,,,483.8465,485.6503,485.6503,487.7936,return,0.9552,,74.47916667,,,,,,FBP-RB-81.png,0.45,1.2,25,1,0,53,53,24,1,,,,,,,,,,,,,,,,,,,,,,,,,,,,,,,,,,,,,,,,
,,,,,WIN24_012,32,Male,2024-01-29_14h43.01.979,jersey_experiment_5,2023.2.2,Win32,84.03361345,,,,,,,,,,,,,,,,487.7938,489.5918,489.5918,491.639,return,0.5293,,87.36979167,,,,,,FBP-YG-17.png,0.45,1.2,35,1,0,54,54,34,1,,,,,,,,,,,,,,,,,,,,,,,,,,,,,,,,,,,,,,,,
,,,,,WIN24_012,32,Male,2024-01-29_14h43.01.979,jersey_experiment_5,2023.2.2,Win32,84.03361345,,,,,,,,,,,,,,,,491.6391,493.437,493.437,495.0861,return,0.5542,,50.26041667,,,,,,FBP-RB-91.png,0.4,1.2,28,1,0,55,55,27,1,,,,,,,,,,,,,,,,,,,,,,,,,,,,,,,,,,,,,,,,
,,,,,WIN24_012,32,Male,2024-01-29_14h43.01.979,jersey_experiment_5,2023.2.2,Win32,84.03361345,,,,,,,,,,,,,,,,495.0863,496.8878,496.8879,500.0115,return,1.2725,,63.15104167,,,,,,FBP-RB-81.png,0.4,1.2,23,1,0,56,56,22,1,,,,,,,,,,,,,,,,,,,,,,,,,,,,,,,,,,,,,,,,
,,,,,WIN24_012,32,Male,2024-01-29_14h43.01.979,jersey_experiment_5,2023.2.2,Win32,84.03361345,,,,,,,,,,,,,,,,500.0118,501.8156,501.8156,503.2512,return,0.5078,,75.91145833,,,,,,FBP-YG-19.png,0.45,1.2,45,1,0,57,57,44,1,,,,,,,,,,,,,,,,,,,,,,,,,,,,,,,,,,,,,,,,
,,,,,WIN24_012,32,Male,2024-01-29_14h43.01.979,jersey_experiment_5,2023.2.2,Win32,84.03361345,,,,,,,,,,,,,,,,503.2514,505.047,505.047,506.4847,return,0.5641,,49.86979167,,,,,,FBP-RB-71.png,0.37,1.2,17,1,0,58,58,16,1,,,,,,,,,,,,,,,,,,,,,,,,,,,,,,,,,,,,,,,,
,,,,,WIN24_012,32,Male,2024-01-29_14h43.01.979,jersey_experiment_5,2023.2.2,Win32,84.03361345,,,,,,,,,,,,,,,,506.4849,507.7765,507.7765,510.8868,return,0.553,,82.8125,,,,,,FBP-OG-17.png,0.45,1.2,5,0.5,0,59,59,4,1,,,,,,,,,,,,,,,,,,,,,,,,,,,,,,,,,,,,,,,,
,,,,,WIN24_012,32,Male,2024-01-29_14h43.01.979,jersey_experiment_5,2023.2.2,Win32,84.03361345,,,,,,,,,,,,,,,,,,,,,,,,,,,,,,,,,,,,,,,510.8871,630.8872,,,,,,,,,,,,,,,,,,,,,,,,,,,,,,,,,,,,,,
,,,,,WIN24_012,32,Male,2024-01-29_14h43.01.979,jersey_experiment_5,2023.2.2,Win32,84.03361345,,,,,,,,,,,,,,,,,,,,,,,,,,,,,,,,,,,,,,,,,630.8873,633.1225,return,2.218,,,,,,,,,,,,,,,,,,,,,,,,,,,,,,,,,,
,,,,,WIN24_012,32,Male,2024-01-29_14h43.01.979,jersey_experiment_5,2023.2.2,Win32,84.03361345,,,,,,,,,,,,,,,,633.1285,634.9224,634.9225,638.2638,return,0.9776,,56.77083333,,,,,,FBP-OG-91.png,0.43,1.2,14,1,,,,,,,,,,,,,0,0,0,13,1,,,,,,,,,,,,,,,,,,,,,,,,,,,,
,,,,,WIN24_012,32,Male,2024-01-29_14h43.01.979,jersey_experiment_5,2023.2.2,Win32,84.03361345,,,,,,,,,,,,,,,,638.2641,639.5601,639.5601,642.5033,return,0.3295,,51.30208333,,,,,,FBP-YG-71.png,0.45,1.2,35,0.5,,,,,,,,,,,,,0,1,1,34,1,,,,,,,,,,,,,,,,,,,,,,,,,,,,
,,,,,WIN24_012,32,Male,2024-01-29_14h43.01.979,jersey_experiment_5,2023.2.2,Win32,84.03361345,,,,,,,,,,,,,,,,642.5034,644.3034,644.3034,646.7934,return,0.5533,,5.46875,,,,,,FBP-PT-17.png,0.35,1.2,46,1,,,,,,,,,,,,,0,2,2,45,1,,,,,,,,,,,,,,,,,,,,,,,,,,,,
,,,,,WIN24_012,32,Male,2024-01-29_14h43.01.979,jersey_experiment_5,2023.2.2,Win32,84.03361345,,,,,,,,,,,,,,,,646.7936,648.5976,648.5976,650.4407,return,0.1786,,66.92708333,,,,,,FBP-PT-19.png,0.43,1.2,59,1,,,,,,,,,,,,,0,3,3,58,1,,,,,,,,,,,,,,,,,,,,,,,,,,,,
,,,,,WIN24_012,32,Male,2024-01-29_14h43.01.979,jersey_experiment_5,2023.2.2,Win32,84.03361345,,,,,,,,,,,,,,,,650.4408,651.7347,651.7348,652.8704,return,0.2712,,49.08854167,,,,,,FBP-RB-17.png,0.4,1.2,18,0.5,,,,,,,,,,,,,0,4,4,17,1,,,,,,,,,,,,,,,,,,,,,,,,,,,,
,,,,,WIN24_012,32,Male,2024-01-29_14h43.01.979,jersey_experiment_5,2023.2.2,Win32,84.03361345,,,,,,,,,,,,,,,,652.8706,654.6687,654.6687,655.6526,return,0.1802,,92.96875,,,,,,FBP-OG-91.png,0.45,1.2,15,1,,,,,,,,,,,,,0,5,5,14,1,,,,,,,,,,,,,,,,,,,,,,,,,,,,
,,,,,WIN24_012,32,Male,2024-01-29_14h43.01.979,jersey_experiment_5,2023.2.2,Win32,84.03361345,,,,,,,,,,,,,,,,655.6528,657.4527,657.4527,658.3586,return,0.1173,,74.21875,,,,,,FBP-PT-18.png,0.43,1.2,54,1,,,,,,,,,,,,,0,6,6,53,1,,,,,,,,,,,,,,,,,,,,,,,,,,,,
,,,,,WIN24_012,32,Male,2024-01-29_14h43.01.979,jersey_experiment_5,2023.2.2,Win32,84.03361345,,,,,,,,,,,,,,,,658.3588,660.1648,660.1649,661.0104,return,0.2141,,50,,,,,,FBP-PT-19.png,0.4,1.2,58,1,,,,,,,,,,,,,0,7,7,57,1,,,,,,,,,,,,,,,,,,,,,,,,,,,,
,,,,,WIN24_012,32,Male,2024-01-29_14h43.01.979,jersey_experiment_5,2023.2.2,Win32,84.03361345,,,,,,,,,,,,,,,,661.0106,662.3037,662.3037,663.3159,return,0.1413,,25.13020833,,,,,,FBP-YG-71.png,0.35,1.2,31,0.5,,,,,,,,,,,,,0,8,8,30,1,,,,,,,,,,,,,,,,,,,,,,,,,,,,
,,,,,WIN24_012,32,Male,2024-01-29_14h43.01.979,jersey_experiment_5,2023.2.2,Win32,84.03361345,,,,,,,,,,,,,,,,663.316,665.1179,665.1179,665.9119,return,0.1064,,50.13020833,,,,,,FBP-OG-71.png,0.4,1.2,3,1,,,,,,,,,,,,,0,9,9,2,1,,,,,,,,,,,,,,,,,,,,,,,,,,,,
,,,,,WIN24_012,32,Male,2024-01-29_14h43.01.979,jersey_experiment_5,2023.2.2,Win32,84.03361345,,,,,,,,,,,,,,,,665.9122,667.206,667.206,668.6338,return,0.1653,,88.671875,,,,,,FBP-YG-91.png,0.45,1.2,45,0.5,,,,,,,,,,,,,0,10,10,44,1,,,,,,,,,,,,,,,,,,,,,,,,,,,,
,,,,,WIN24_012,32,Male,2024-01-29_14h43.01.979,jersey_experiment_5,2023.2.2,Win32,84.03361345,,,,,,,,,,,,,,,,668.634,669.9355,669.9355,670.9044,return,0.2003,,74.609375,,,,,,FBP-RB-18.png,0.43,1.2,24,0.5,,,,,,,,,,,,,0,11,11,23,1,,,,,,,,,,,,,,,,,,,,,,,,,,,,
,,,,,WIN24_012,32,Male,2024-01-29_14h43.01.979,jersey_experiment_5,2023.2.2,Win32,84.03361345,,,,,,,,,,,,,,,,670.9045,672.7003,672.7003,675.8769,return,0.1331,,49.08854167,,,,,,FBP-OG-71.png,0.37,1.2,2,1,,,,,,,,,,,,,0,12,12,1,1,,,,,,,,,,,,,,,,,,,,,,,,,,,,
,,,,,WIN24_012,32,Male,2024-01-29_14h43.01.979,jersey_experiment_5,2023.2.2,Win32,84.03361345,,,,,,,,,,,,,,,,675.877,677.171,677.1711,678.3123,return,0.096,,75,,,,,,FBP-YG-91.png,0.43,1.2,44,0.5,,,,,,,,,,,,,0,13,13,43,1,,,,,,,,,,,,,,,,,,,,,,,,,,,,
,,,,,WIN24_012,32,Male,2024-01-29_14h43.01.979,jersey_experiment_5,2023.2.2,Win32,84.03361345,,,,,,,,,,,,,,,,678.3126,679.6064,679.6064,681.1874,return,0.1295,,24.47916667,,,,,,FBP-YG-81.png,0.35,1.2,36,0.5,,,,,,,,,,,,,0,14,14,35,1,,,,,,,,,,,,,,,,,,,,,,,,,,,,
,,,,,WIN24_012,32,Male,2024-01-29_14h43.01.979,jersey_experiment_5,2023.2.2,Win32,84.03361345,,,,,,,,,,,,,,,,681.1875,682.9891,682.9891,684.0224,return,0.2234,,89.58333333,,,,,,FBP-PT-19.png,0.45,1.2,60,1,,,,,,,,,,,,,0,15,15,59,1,,,,,,,,,,,,,,,,,,,,,,,,,,,,
,,,,,WIN24_012,32,Male,2024-01-29_14h43.01.979,jersey_experiment_5,2023.2.2,Win32,84.03361345,,,,,,,,,,,,,,,,684.0226,685.3283,685.3283,686.4565,return,0.175,,25,,,,,,FBP-RB-18.png,0.35,1.2,21,0.5,,,,,,,,,,,,,0,16,16,20,1,,,,,,,,,,,,,,,,,,,,,,,,,,,,
,,,,,WIN24_012,32,Male,2024-01-29_14h43.01.979,jersey_experiment_5,2023.2.2,Win32,84.03361345,,,,,,,,,,,,,,,,686.4567,687.7597,687.7597,688.9288,return,0.1301,,38.28125,,,,,,FBP-RB-19.png,0.37,1.2,27,0.5,,,,,,,,,,,,,0,17,17,26,1,,,,,,,,,,,,,,,,,,,,,,,,,,,,
,,,,,WIN24_012,32,Male,2024-01-29_14h43.01.979,jersey_experiment_5,2023.2.2,Win32,84.03361345,,,,,,,,,,,,,,,,688.929,690.7307,690.7307,691.3996,return,0.1653,,50,,,,,,FBP-OG-91.png,0.37,1.2,12,1,,,,,,,,,,,,,0,18,18,11,1,,,,,,,,,,,,,,,,,,,,,,,,,,,,
,,,,,WIN24_012,32,Male,2024-01-29_14h43.01.979,jersey_experiment_5,2023.2.2,Win32,84.03361345,,,,,,,,,,,,,,,,691.3998,692.701,692.701,695.0133,return,1.0143,,98.95833333,,,,,,FBP-RB-17.png,0.45,1.2,20,0.5,,,,,,,,,,,,,0,19,19,19,1,,,,,,,,,,,,,,,,,,,,,,,,,,,,
,,,,,WIN24_012,32,Male,2024-01-29_14h43.01.979,jersey_experiment_5,2023.2.2,Win32,84.03361345,,,,,,,,,,,,,,,,695.0135,696.3158,696.3159,697.2824,return,0.1181,,75.13020833,,,,,,FBP-RB-19.png,0.4,1.2,28,0.5,,,,,,,,,,,,,0,20,20,27,1,,,,,,,,,,,,,,,,,,,,,,,,,,,,
,,,,,WIN24_012,32,Male,2024-01-29_14h43.01.979,jersey_experiment_5,2023.2.2,Win32,84.03361345,,,,,,,,,,,,,,,,697.2825,699.0821,699.0821,700.104,return,0.0909,,75.13020833,,,,,,FBP-OG-81.png,0.43,1.2,9,1,,,,,,,,,,,,,0,21,21,8,1,,,,,,,,,,,,,,,,,,,,,,,,,,,,
,,,,,WIN24_012,32,Male,2024-01-29_14h43.01.979,jersey_experiment_5,2023.2.2,Win32,84.03361345,,,,,,,,,,,,,,,,700.1042,701.896,701.896,702.6307,return,0.1212,,86.97916667,,,,,,FBP-OG-81.png,0.45,1.2,10,1,,,,,,,,,,,,,0,22,22,9,1,,,,,,,,,,,,,,,,,,,,,,,,,,,,
,,,,,WIN24_012,32,Male,2024-01-29_14h43.01.979,jersey_experiment_5,2023.2.2,Win32,84.03361345,,,,,,,,,,,,,,,,702.6308,703.925,703.925,705.1647,return,0.2102,,100,,,,,,FBP-RB-19.png,0.45,1.2,30,0.5,,,,,,,,,,,,,0,23,23,29,1,,,,,,,,,,,,,,,,,,,,,,,,,,,,
,,,,,WIN24_012,32,Male,2024-01-29_14h43.01.979,jersey_experiment_5,2023.2.2,Win32,84.03361345,,,,,,,,,,,,,,,,705.1648,706.9604,706.9604,709.484,return,1.3904,,38.671875,,,,,,FBP-PT-18.png,0.35,1.2,51,1,,,,,,,,,,,,,0,24,24,50,1,,,,,,,,,,,,,,,,,,,,,,,,,,,,
,,,,,WIN24_012,32,Male,2024-01-29_14h43.01.979,jersey_experiment_5,2023.2.2,Win32,84.03361345,,,,,,,,,,,,,,,,709.4842,710.7841,710.7841,712.3412,return,0.2356,,100,,,,,,FBP-RB-18.png,0.45,1.2,25,0.5,,,,,,,,,,,,,0,25,25,24,1,,,,,,,,,,,,,,,,,,,,,,,,,,,,
,,,,,WIN24_012,32,Male,2024-01-29_14h43.01.979,jersey_experiment_5,2023.2.2,Win32,84.03361345,,,,,,,,,,,,,,,,712.3414,714.1414,714.1414,714.8826,return,0.2023,,75,,,,,,FBP-PT-17.png,0.43,1.2,49,1,,,,,,,,,,,,,0,26,26,48,1,,,,,,,,,,,,,,,,,,,,,,,,,,,,
,,,,,WIN24_012,32,Male,2024-01-29_14h43.01.979,jersey_experiment_5,2023.2.2,Win32,84.03361345,,,,,,,,,,,,,,,,714.8827,716.6828,716.6828,717.5649,return,0.1413,,10.15625,,,,,,FBP-OG-91.png,0.35,1.2,11,1,,,,,,,,,,,,,0,27,27,10,1,,,,,,,,,,,,,,,,,,,,,,,,,,,,
,,,,,WIN24_012,32,Male,2024-01-29_14h43.01.979,jersey_experiment_5,2023.2.2,Win32,84.03361345,,,,,,,,,,,,,,,,717.5651,718.8667,718.8667,720.9537,return,0.1535,,15.625,,,,,,FBP-YG-91.png,0.35,1.2,41,0.5,,,,,,,,,,,,,0,28,28,40,1,,,,,,,,,,,,,,,,,,,,,,,,,,,,
,,,,,WIN24_012,32,Male,2024-01-29_14h43.01.979,jersey_experiment_5,2023.2.2,Win32,84.03361345,,,,,,,,,,,,,,,,720.954,722.2455,722.2455,723.5255,return,0.1213,,50.26041667,,,,,,FBP-YG-81.png,0.37,1.2,37,0.5,,,,,,,,,,,,,0,29,29,36,1,,,,,,,,,,,,,,,,,,,,,,,,,,,,
,,,,,WIN24_012,32,Male,2024-01-29_14h43.01.979,jersey_experiment_5,2023.2.2,Win32,84.03361345,,,,,,,,,,,,,,,,723.5257,725.3201,725.3201,727.9302,return,0.2003,,80.98958333,,,,,,FBP-PT-17.png,0.45,1.2,50,1,,,,,,,,,,,,,0,30,30,49,1,,,,,,,,,,,,,,,,,,,,,,,,,,,,
,,,,,WIN24_012,32,Male,2024-01-29_14h43.01.979,jersey_experiment_5,2023.2.2,Win32,84.03361345,,,,,,,,,,,,,,,,727.9302,729.726,729.726,730.9421,return,0.1767,,51.82291667,,,,,,FBP-PT-17.png,0.4,1.2,48,1,,,,,,,,,,,,,0,31,31,47,1,,,,,,,,,,,,,,,,,,,,,,,,,,,,
,,,,,WIN24_012,32,Male,2024-01-29_14h43.01.979,jersey_experiment_5,2023.2.2,Win32,84.03361345,,,,,,,,,,,,,,,,730.9422,732.7421,732.7421,733.9089,return,0.2138,,95.96354167,,,,,,FBP-PT-18.png,0.45,1.2,55,1,,,,,,,,,,,,,0,32,32,54,1,,,,,,,,,,,,,,,,,,,,,,,,,,,,
,,,,,WIN24_012,32,Male,2024-01-29_14h43.01.979,jersey_experiment_5,2023.2.2,Win32,84.03361345,,,,,,,,,,,,,,,,733.9091,735.7047,735.7047,736.65,return,0.1178,,26.04166667,,,,,,FBP-PT-19.png,0.35,1.2,56,1,,,,,,,,,,,,,0,33,33,55,1,,,,,,,,,,,,,,,,,,,,,,,,,,,,
,,,,,WIN24_012,32,Male,2024-01-29_14h43.01.979,jersey_experiment_5,2023.2.2,Win32,84.03361345,,,,,,,,,,,,,,,,736.6501,737.9497,737.9498,740.3073,return,1.5886,,51.43229167,,,,,,FBP-RB-18.png,0.4,1.2,23,0.5,,,,,,,,,,,,,0,34,34,22,1,,,,,,,,,,,,,,,,,,,,,,,,,,,,
,,,,,WIN24_012,32,Male,2024-01-29_14h43.01.979,jersey_experiment_5,2023.2.2,Win32,84.03361345,,,,,,,,,,,,,,,,740.3074,741.6087,741.6088,742.5662,return,0.1766,,75.26041667,,,,,,FBP-YG-81.png,0.43,1.2,39,0.5,,,,,,,,,,,,,0,35,35,38,1,,,,,,,,,,,,,,,,,,,,,,,,,,,,
,,,,,WIN24_012,32,Male,2024-01-29_14h43.01.979,jersey_experiment_5,2023.2.2,Win32,84.03361345,,,,,,,,,,,,,,,,742.5664,744.3617,744.3618,745.4482,return,0.1549,,50,,,,,,FBP-OG-81.png,0.4,1.2,8,1,,,,,,,,,,,,,0,36,36,7,1,,,,,,,,,,,,,,,,,,,,,,,,,,,,
,,,,,WIN24_012,32,Male,2024-01-29_14h43.01.979,jersey_experiment_5,2023.2.2,Win32,84.03361345,,,,,,,,,,,,,,,,745.4483,746.7539,746.754,748.1681,return,0.0472,,25,,,,,,FBP-YG-71.png,0.37,1.2,32,0.5,,,,,,,,,,,,,0,37,37,31,1,,,,,,,,,,,,,,,,,,,,,,,,,,,,
,,,,,WIN24_012,32,Male,2024-01-29_14h43.01.979,jersey_experiment_5,2023.2.2,Win32,84.03361345,,,,,,,,,,,,,,,,748.1683,749.47,749.4701,750.776,return,0.2336,,49.609375,,,,,,FBP-YG-71.png,0.4,1.2,33,0.5,,,,,,,,,,,,,0,38,38,32,1,,,,,,,,,,,,,,,,,,,,,,,,,,,,
,,,,,WIN24_012,32,Male,2024-01-29_14h43.01.979,jersey_experiment_5,2023.2.2,Win32,84.03361345,,,,,,,,,,,,,,,,750.7762,752.0678,752.0678,753.6862,return,0.1063,,24.86979167,,,,,,FBP-RB-17.png,0.35,1.2,16,0.5,,,,,,,,,,,,,0,39,39,15,1,,,,,,,,,,,,,,,,,,,,,,,,,,,,
,,,,,WIN24_012,32,Male,2024-01-29_14h43.01.979,jersey_experiment_5,2023.2.2,Win32,84.03361345,,,,,,,,,,,,,,,,753.6863,754.9897,754.9897,756.3063,return,0.1147,,50.26041667,,,,,,FBP-YG-91.png,0.4,1.2,43,0.5,,,,,,,,,,,,,0,40,40,42,1,,,,,,,,,,,,,,,,,,,,,,,,,,,,
,,,,,WIN24_012,32,Male,2024-01-29_14h43.01.979,jersey_experiment_5,2023.2.2,Win32,84.03361345,,,,,,,,,,,,,,,,756.3065,757.6015,757.6015,761.543,return,2.1294,,93.48958333,,,,,,FBP-YG-81.png,0.45,1.2,40,0.5,,,,,,,,,,,,,0,41,41,39,1,,,,,,,,,,,,,,,,,,,,,,,,,,,,
,,,,,WIN24_012,32,Male,2024-01-29_14h43.01.979,jersey_experiment_5,2023.2.2,Win32,84.03361345,,,,,,,,,,,,,,,,761.5432,762.8362,762.8362,765.1334,return,0.1527,,36.97916667,,,,,,FBP-RB-19.png,0.35,1.2,26,0.5,,,,,,,,,,,,,0,42,42,25,1,,,,,,,,,,,,,,,,,,,,,,,,,,,,
,,,,,WIN24_012,32,Male,2024-01-29_14h43.01.979,jersey_experiment_5,2023.2.2,Win32,84.03361345,,,,,,,,,,,,,,,,765.1336,766.9318,766.9318,767.9296,return,0.0945,,75.26041667,,,,,,FBP-OG-71.png,0.43,1.2,4,1,,,,,,,,,,,,,0,43,43,3,1,,,,,,,,,,,,,,,,,,,,,,,,,,,,
,,,,,WIN24_012,32,Male,2024-01-29_14h43.01.979,jersey_experiment_5,2023.2.2,Win32,84.03361345,,,,,,,,,,,,,,,,767.9298,769.2254,769.2254,770.379,return,0.1415,,49.73958333,,,,,,FBP-RB-17.png,0.37,1.2,17,0.5,,,,,,,,,,,,,0,44,44,16,1,,,,,,,,,,,,,,,,,,,,,,,,,,,,
,,,,,WIN24_012,32,Male,2024-01-29_14h43.01.979,jersey_experiment_5,2023.2.2,Win32,84.03361345,,,,,,,,,,,,,,,,770.3791,771.6749,771.6749,773.0964,return,0.1411,,53.38541667,,,,,,FBP-YG-81.png,0.4,1.2,38,0.5,,,,,,,,,,,,,0,45,45,37,1,,,,,,,,,,,,,,,,,,,,,,,,,,,,
,,,,,WIN24_012,32,Male,2024-01-29_14h43.01.979,jersey_experiment_5,2023.2.2,Win32,84.03361345,,,,,,,,,,,,,,,,773.0965,774.8966,774.8966,775.9924,return,0.155,,42.44791667,,,,,,FBP-OG-81.png,0.37,1.2,7,1,,,,,,,,,,,,,0,46,46,6,1,,,,,,,,,,,,,,,,,,,,,,,,,,,,
,,,,,WIN24_012,32,Male,2024-01-29_14h43.01.979,jersey_experiment_5,2023.2.2,Win32,84.03361345,,,,,,,,,,,,,,,,775.9926,777.2924,777.2925,780.4144,return,0.212,,78.77604167,,,,,,FBP-YG-71.png,0.43,1.2,34,0.5,,,,,,,,,,,,,0,47,47,33,1,,,,,,,,,,,,,,,,,,,,,,,,,,,,
,,,,,WIN24_012,32,Male,2024-01-29_14h43.01.979,jersey_experiment_5,2023.2.2,Win32,84.03361345,,,,,,,,,,,,,,,,780.4146,782.2103,782.2103,783.144,return,0.1535,,50.26041667,,,,,,FBP-PT-18.png,0.37,1.2,52,1,,,,,,,,,,,,,0,48,48,51,1,,,,,,,,,,,,,,,,,,,,,,,,,,,,
,,,,,WIN24_012,32,Male,2024-01-29_14h43.01.979,jersey_experiment_5,2023.2.2,Win32,84.03361345,,,,,,,,,,,,,,,,783.1442,784.4456,784.4456,785.6223,return,0.1215,,74.47916667,,,,,,FBP-RB-17.png,0.43,1.2,19,0.5,,,,,,,,,,,,,0,49,49,18,1,,,,,,,,,,,,,,,,,,,,,,,,,,,,
,,,,,WIN24_012,32,Male,2024-01-29_14h43.01.979,jersey_experiment_5,2023.2.2,Win32,84.03361345,,,,,,,,,,,,,,,,785.6225,787.4144,787.4144,788.4692,return,0.099,,55.20833333,,,,,,FBP-PT-17.png,0.37,1.2,47,1,,,,,,,,,,,,,0,50,50,46,1,,,,,,,,,,,,,,,,,,,,,,,,,,,,
,,,,,WIN24_012,32,Male,2024-01-29_14h43.01.979,jersey_experiment_5,2023.2.2,Win32,84.03361345,,,,,,,,,,,,,,,,788.4695,790.262,790.262,791.2835,return,0.114,,49.86979167,,,,,,FBP-PT-19.png,0.37,1.2,57,1,,,,,,,,,,,,,0,51,51,56,1,,,,,,,,,,,,,,,,,,,,,,,,,,,,
,,,,,WIN24_012,32,Male,2024-01-29_14h43.01.979,jersey_experiment_5,2023.2.2,Win32,84.03361345,,,,,,,,,,,,,,,,791.2836,792.5752,792.5752,794.168,return,0.1183,,54.94791667,,,,,,FBP-YG-91.png,0.37,1.2,42,0.5,,,,,,,,,,,,,0,52,52,41,1,,,,,,,,,,,,,,,,,,,,,,,,,,,,
,,,,,WIN24_012,32,Male,2024-01-29_14h43.01.979,jersey_experiment_5,2023.2.2,Win32,84.03361345,,,,,,,,,,,,,,,,794.1682,795.9698,795.9698,797.2249,return,0.1632,,77.734375,,,,,,FBP-OG-71.png,0.45,1.2,5,1,,,,,,,,,,,,,0,53,53,4,1,,,,,,,,,,,,,,,,,,,,,,,,,,,,
,,,,,WIN24_012,32,Male,2024-01-29_14h43.01.979,jersey_experiment_5,2023.2.2,Win32,84.03361345,,,,,,,,,,,,,,,,797.2251,798.5224,798.5224,799.684,return,0.1868,,72.13541667,,,,,,FBP-RB-19.png,0.43,1.2,29,0.5,,,,,,,,,,,,,0,54,54,28,1,,,,,,,,,,,,,,,,,,,,,,,,,,,,
,,,,,WIN24_012,32,Male,2024-01-29_14h43.01.979,jersey_experiment_5,2023.2.2,Win32,84.03361345,,,,,,,,,,,,,,,,799.6842,801.4859,801.4859,802.4036,return,0.1299,,54.6875,,,,,,FBP-OG-91.png,0.4,1.2,13,1,,,,,,,,,,,,,0,55,55,12,1,,,,,,,,,,,,,,,,,,,,,,,,,,,,
,,,,,WIN24_012,32,Male,2024-01-29_14h43.01.979,jersey_experiment_5,2023.2.2,Win32,84.03361345,,,,,,,,,,,,,,,,802.4038,804.2035,804.2035,805.335,return,0.1179,,44.66145833,,,,,,FBP-OG-81.png,0.35,1.2,6,1,,,,,,,,,,,,,0,56,56,5,1,,,,,,,,,,,,,,,,,,,,,,,,,,,,
,,,,,WIN24_012,32,Male,2024-01-29_14h43.01.979,jersey_experiment_5,2023.2.2,Win32,84.03361345,,,,,,,,,,,,,,,,805.335,807.1314,807.1314,808.5449,return,0.4336,,26.171875,,,,,,FBP-OG-71.png,0.35,1.2,1,1,,,,,,,,,,,,,0,57,57,0,1,,,,,,,,,,,,,,,,,,,,,,,,,,,,
,,,,,WIN24_012,32,Male,2024-01-29_14h43.01.979,jersey_experiment_5,2023.2.2,Win32,84.03361345,,,,,,,,,,,,,,,,808.545,810.3407,810.3407,811.1919,return,0.1766,,49.21875,,,,,,FBP-PT-18.png,0.4,1.2,53,1,,,,,,,,,,,,,0,58,58,52,1,,,,,,,,,,,,,,,,,,,,,,,,,,,,
,,,,,WIN24_012,32,Male,2024-01-29_14h43.01.979,jersey_experiment_5,2023.2.2,Win32,84.03361345,,,,,,,,,,,,,,,,811.192,812.4995,812.4995,813.6513,return,0.1538,,49.86979167,,,,,,FBP-RB-18.png,0.37,1.2,22,0.5,,,,,,,,,,,,,0,59,59,21,1,,,,,,,,,,,,,,,,,,,,,,,,,,,,
,,,,,WIN24_012,32,Male,2024-01-29_14h43.01.979,jersey_experiment_5,2023.2.2,Win32,84.03361345,,,,,,,,,,,,,,,,813.6531,815.4527,815.4527,816.7215,return,0.1313,,74.73958333,,,,,,FBP-PT-91.png,0.43,1.2,59,1,,,,,,,,,,,,,,,,,,0,0,0,58,1,,,,,,,,,,,,,,,,,,,,,,,
,,,,,WIN24_012,32,Male,2024-01-29_14h43.01.979,jersey_experiment_5,2023.2.2,Win32,84.03361345,,,,,,,,,,,,,,,,816.7219,818.029,818.029,819.1097,return,0.1782,,50.52083333,,,,,,FBP-YG-19.png,0.4,1.2,43,0.5,,,,,,,,,,,,,,,,,,0,1,1,42,1,,,,,,,,,,,,,,,,,,,,,,,
,,,,,WIN24_012,32,Male,2024-01-29_14h43.01.979,jersey_experiment_5,2023.2.2,Win32,84.03361345,,,,,,,,,,,,,,,,819.1099,820.9101,820.9101,822.0516,return,0.2357,,26.5625,,,,,,FBP-OG-18.png,0.35,1.2,6,1,,,,,,,,,,,,,,,,,,0,2,2,5,1,,,,,,,,,,,,,,,,,,,,,,,
,,,,,WIN24_012,32,Male,2024-01-29_14h43.01.979,jersey_experiment_5,2023.2.2,Win32,84.03361345,,,,,,,,,,,,,,,,822.0517,823.849,823.849,825.2984,return,0.1985,,85.80729167,,,,,,FBP-PT-81.png,0.45,1.2,55,1,,,,,,,,,,,,,,,,,,0,3,3,54,1,,,,,,,,,,,,,,,,,,,,,,,
,,,,,WIN24_012,32,Male,2024-01-29_14h43.01.979,jersey_experiment_5,2023.2.2,Win32,84.03361345,,,,,,,,,,,,,,,,825.2986,826.6041,826.6041,828.2473,return,0.1194,,25.65104167,,,,,,FBP-YG-17.png,0.37,1.2,32,0.5,,,,,,,,,,,,,,,,,,0,4,4,31,1,,,,,,,,,,,,,,,,,,,,,,,
,,,,,WIN24_012,32,Male,2024-01-29_14h43.01.979,jersey_experiment_5,2023.2.2,Win32,84.03361345,,,,,,,,,,,,,,,,828.2475,830.0395,830.0395,831.1084,return,0.1749,,61.58854167,,,,,,FBP-OG-17.png,0.4,1.2,3,1,,,,,,,,,,,,,,,,,,0,5,5,2,1,,,,,,,,,,,,,,,,,,,,,,,
,,,,,WIN24_012,32,Male,2024-01-29_14h43.01.979,jersey_experiment_5,2023.2.2,Win32,84.03361345,,,,,,,,,,,,,,,,831.1086,832.4061,832.4061,833.593,return,0.1533,,25.390625,,,,,,FBP-YG-17.png,0.35,1.2,31,0.5,,,,,,,,,,,,,,,,,,0,6,6,30,1,,,,,,,,,,,,,,,,,,,,,,,
,,,,,WIN24_012,32,Male,2024-01-29_14h43.01.979,jersey_experiment_5,2023.2.2,Win32,84.03361345,,,,,,,,,,,,,,,,833.5931,834.8984,834.8984,841.654,return,3.0257,,37.890625,,,,,,FBP-YG-19.png,0.35,1.2,41,0.5,,,,,,,,,,,,,,,,,,0,7,7,40,1,,,,,,,,,,,,,,,,,,,,,,,
,,,,,WIN24_012,32,Male,2024-01-29_14h43.01.979,jersey_experiment_5,2023.2.2,Win32,84.03361345,,,,,,,,,,,,,,,,841.6541,843.4518,843.4518,844.2304,return,0.1415,,50.13020833,,,,,,FBP-PT-91.png,0.37,1.2,57,1,,,,,,,,,,,,,,,,,,0,8,8,56,1,,,,,,,,,,,,,,,,,,,,,,,
,,,,,WIN24_012,32,Male,2024-01-29_14h43.01.979,jersey_experiment_5,2023.2.2,Win32,84.03361345,,,,,,,,,,,,,,,,844.2305,846.0241,846.0242,847.7206,return,0.3866,,39.58333333,,,,,,FBP-PT-81.png,0.35,1.2,51,1,,,,,,,,,,,,,,,,,,0,9,9,50,1,,,,,,,,,,,,,,,,,,,,,,,
,,,,,WIN24_012,32,Male,2024-01-29_14h43.01.979,jersey_experiment_5,2023.2.2,Win32,84.03361345,,,,,,,,,,,,,,,,847.7208,849.5227,849.5227,851.6055,return,0.1889,,75.13020833,,,,,,FBP-PT-71.png,0.45,1.2,50,1,,,,,,,,,,,,,,,,,,0,10,10,49,1,,,,,,,,,,,,,,,,,,,,,,,
,,,,,WIN24_012,32,Male,2024-01-29_14h43.01.979,jersey_experiment_5,2023.2.2,Win32,84.03361345,,,,,,,,,,,,,,,,851.6056,852.8991,852.8991,856.6268,return,1.916,,71.35416667,,,,,,FBP-RB-81.png,0.4,1.2,23,0.5,,,,,,,,,,,,,,,,,,0,11,11,22,1,,,,,,,,,,,,,,,,,,,,,,,
,,,,,WIN24_012,32,Male,2024-01-29_14h43.01.979,jersey_experiment_5,2023.2.2,Win32,84.03361345,,,,,,,,,,,,,,,,856.627,858.4248,858.4248,860.2742,return,0.163,,36.71875,,,,,,FBP-OG-19.png,0.37,1.2,12,1,,,,,,,,,,,,,,,,,,0,12,12,11,1,,,,,,,,,,,,,,,,,,,,,,,
,,,,,WIN24_012,32,Male,2024-01-29_14h43.01.979,jersey_experiment_5,2023.2.2,Win32,84.03361345,,,,,,,,,,,,,,,,860.2743,861.5704,861.5704,864.0367,return,0.228,,63.15104167,,,,,,FBP-RB-71.png,0.4,1.2,18,0.5,,,,,,,,,,,,,,,,,,0,13,13,17,1,,,,,,,,,,,,,,,,,,,,,,,
,,,,,WIN24_012,32,Male,2024-01-29_14h43.01.979,jersey_experiment_5,2023.2.2,Win32,84.03361345,,,,,,,,,,,,,,,,864.037,865.3349,865.3349,866.7136,return,0.106,,74.609375,,,,,,FBP-RB-91.png,0.4,1.2,28,0.5,,,,,,,,,,,,,,,,,,0,14,14,27,1,,,,,,,,,,,,,,,,,,,,,,,
,,,,,WIN24_012,32,Male,2024-01-29_14h43.01.979,jersey_experiment_5,2023.2.2,Win32,84.03361345,,,,,,,,,,,,,,,,866.7137,868.0173,868.0173,869.3727,return,0.1413,,50,,,,,,FBP-RB-81.png,0.35,1.2,21,0.5,,,,,,,,,,,,,,,,,,0,15,15,20,1,,,,,,,,,,,,,,,,,,,,,,,
,,,,,WIN24_012,32,Male,2024-01-29_14h43.01.979,jersey_experiment_5,2023.2.2,Win32,84.03361345,,,,,,,,,,,,,,,,869.3728,871.1705,871.1706,873.2648,return,0.2235,,57.29166667,,,,,,FBP-PT-81.png,0.4,1.2,53,1,,,,,,,,,,,,,,,,,,0,16,16,52,1,,,,,,,,,,,,,,,,,,,,,,,
,,,,,WIN24_012,32,Male,2024-01-29_14h43.01.979,jersey_experiment_5,2023.2.2,Win32,84.03361345,,,,,,,,,,,,,,,,873.2649,874.5664,874.5664,876.1708,return,0.0354,,85.67708333,,,,,,FBP-RB-71.png,0.43,1.2,19,0.5,,,,,,,,,,,,,,,,,,0,17,17,18,1,,,,,,,,,,,,,,,,,,,,,,,
,,,,,WIN24_012,32,Male,2024-01-29_14h43.01.979,jersey_experiment_5,2023.2.2,Win32,84.03361345,,,,,,,,,,,,,,,,876.1709,877.4724,877.4724,878.9496,return,0.2145,,53.64583333,,,,,,FBP-RB-71.png,0.37,1.2,17,0.5,,,,,,,,,,,,,,,,,,0,18,18,16,1,,,,,,,,,,,,,,,,,,,,,,,
,,,,,WIN24_012,32,Male,2024-01-29_14h43.01.979,jersey_experiment_5,2023.2.2,Win32,84.03361345,,,,,,,,,,,,,,,,878.9497,880.2412,880.2412,881.7943,return,0.1628,,95.3125,,,,,,FBP-YG-18.png,0.45,1.2,40,0.5,,,,,,,,,,,,,,,,,,0,19,19,39,1,,,,,,,,,,,,,,,,,,,,,,,
,,,,,WIN24_012,32,Male,2024-01-29_14h43.01.979,jersey_experiment_5,2023.2.2,Win32,84.03361345,,,,,,,,,,,,,,,,881.7945,883.5933,883.5933,884.9083,return,0.2,,79.55729167,,,,,,FBP-OG-19.png,0.43,1.2,14,1,,,,,,,,,,,,,,,,,,0,20,20,13,1,,,,,,,,,,,,,,,,,,,,,,,
,,,,,WIN24_012,32,Male,2024-01-29_14h43.01.979,jersey_experiment_5,2023.2.2,Win32,84.03361345,,,,,,,,,,,,,,,,884.9085,886.7083,886.7083,888.1128,return,0.2125,,46.35416667,,,,,,FBP-OG-17.png,0.35,1.2,1,1,,,,,,,,,,,,,,,,,,0,21,21,0,1,,,,,,,,,,,,,,,,,,,,,,,
,,,,,WIN24_012,32,Male,2024-01-29_14h43.01.979,jersey_experiment_5,2023.2.2,Win32,84.03361345,,,,,,,,,,,,,,,,888.113,889.4141,889.4141,892.148,return,1.3181,,41.66666667,,,,,,FBP-RB-91.png,0.37,1.2,27,0.5,,,,,,,,,,,,,,,,,,0,22,22,26,1,,,,,,,,,,,,,,,,,,,,,,,
,,,,,WIN24_012,32,Male,2024-01-29_14h43.01.979,jersey_experiment_5,2023.2.2,Win32,84.03361345,,,,,,,,,,,,,,,,892.1482,893.4495,893.4495,895.4773,return,0.2356,,62.890625,,,,,,FBP-RB-81.png,0.43,1.2,24,0.5,,,,,,,,,,,,,,,,,,0,23,23,23,1,,,,,,,,,,,,,,,,,,,,,,,
,,,,,WIN24_012,32,Male,2024-01-29_14h43.01.979,jersey_experiment_5,2023.2.2,Win32,84.03361345,,,,,,,,,,,,,,,,895.4775,896.7791,896.7791,898.4498,return,0.3694,,30.20833333,,,,,,FBP-YG-18.png,0.35,1.2,36,0.5,,,,,,,,,,,,,,,,,,0,24,24,35,1,,,,,,,,,,,,,,,,,,,,,,,
,,,,,WIN24_012,32,Male,2024-01-29_14h43.01.979,jersey_experiment_5,2023.2.2,Win32,84.03361345,,,,,,,,,,,,,,,,898.45,900.2543,900.2543,901.394,return,0.1764,,54.94791667,,,,,,FBP-PT-71.png,0.4,1.2,48,1,,,,,,,,,,,,,,,,,,0,25,25,47,1,,,,,,,,,,,,,,,,,,,,,,,
,,,,,WIN24_012,32,Male,2024-01-29_14h43.01.979,jersey_experiment_5,2023.2.2,Win32,84.03361345,,,,,,,,,,,,,,,,901.3942,903.195,903.195,905.544,return,0.3293,,26.5625,,,,,,FBP-OG-19.png,0.35,1.2,11,1,,,,,,,,,,,,,,,,,,0,26,26,10,1,,,,,,,,,,,,,,,,,,,,,,,
,,,,,WIN24_012,32,Male,2024-01-29_14h43.01.979,jersey_experiment_5,2023.2.2,Win32,84.03361345,,,,,,,,,,,,,,,,905.5443,906.8383,906.8383,908.7559,return,0.1435,,56.11979167,,,,,,FBP-YG-18.png,0.4,1.2,38,0.5,,,,,,,,,,,,,,,,,,0,27,27,37,1,,,,,,,,,,,,,,,,,,,,,,,
,,,,,WIN24_012,32,Male,2024-01-29_14h43.01.979,jersey_experiment_5,2023.2.2,Win32,84.03361345,,,,,,,,,,,,,,,,908.7561,910.5504,910.5504,912.0666,return,0.1768,,27.734375,,,,,,FBP-PT-71.png,0.35,1.2,46,1,,,,,,,,,,,,,,,,,,0,28,28,45,1,,,,,,,,,,,,,,,,,,,,,,,
,,,,,WIN24_012,32,Male,2024-01-29_14h43.01.979,jersey_experiment_5,2023.2.2,Win32,84.03361345,,,,,,,,,,,,,,,,912.0667,913.3719,913.3719,916.6267,return,0.2051,,56.90104167,,,,,,FBP-YG-17.png,0.4,1.2,33,0.5,,,,,,,,,,,,,,,,,,0,29,29,32,1,,,,,,,,,,,,,,,,,,,,,,,
,,,,,WIN24_012,32,Male,2024-01-29_14h43.01.979,jersey_experiment_5,2023.2.2,Win32,84.03361345,,,,,,,,,,,,,,,,916.6269,918.4189,918.4189,920.0685,return,0.2237,,39.453125,,,,,,FBP-PT-91.png,0.35,1.2,56,1,,,,,,,,,,,,,,,,,,0,30,30,55,1,,,,,,,,,,,,,,,,,,,,,,,
,,,,,WIN24_012,32,Male,2024-01-29_14h43.01.979,jersey_experiment_5,2023.2.2,Win32,84.03361345,,,,,,,,,,,,,,,,920.0686,921.3681,921.3681,922.6505,return,0.2592,,50,,,,,,FBP-YG-18.png,0.37,1.2,37,0.5,,,,,,,,,,,,,,,,,,0,31,31,36,1,,,,,,,,,,,,,,,,,,,,,,,
,,,,,WIN24_012,32,Male,2024-01-29_14h43.01.979,jersey_experiment_5,2023.2.2,Win32,84.03361345,,,,,,,,,,,,,,,,922.6509,924.4507,924.4507,925.4786,return,0.1197,,50,,,,,,FBP-OG-18.png,0.37,1.2,7,1,,,,,,,,,,,,,,,,,,0,32,32,6,1,,,,,,,,,,,,,,,,,,,,,,,
,,,,,WIN24_012,32,Male,2024-01-29_14h43.01.979,jersey_experiment_5,2023.2.2,Win32,84.03361345,,,,,,,,,,,,,,,,925.4787,926.7802,926.7802,928.6672,return,0.1889,,87.76041667,,,,,,FBP-RB-91.png,0.43,1.2,29,0.5,,,,,,,,,,,,,,,,,,0,33,33,28,1,,,,,,,,,,,,,,,,,,,,,,,
,,,,,WIN24_012,32,Male,2024-01-29_14h43.01.979,jersey_experiment_5,2023.2.2,Win32,84.03361345,,,,,,,,,,,,,,,,928.6674,930.4669,930.4669,931.7965,return,0.2689,,95.44270833,,,,,,FBP-PT-91.png,0.45,1.2,60,1,,,,,,,,,,,,,,,,,,0,34,34,59,1,,,,,,,,,,,,,,,,,,,,,,,
,,,,,WIN24_012,32,Male,2024-01-29_14h43.01.979,jersey_experiment_5,2023.2.2,Win32,84.03361345,,,,,,,,,,,,,,,,931.7967,933.0906,933.0906,934.5496,return,0.2003,,25.26041667,,,,,,FBP-RB-91.png,0.35,1.2,26,0.5,,,,,,,,,,,,,,,,,,0,35,35,25,1,,,,,,,,,,,,,,,,,,,,,,,
,,,,,WIN24_012,32,Male,2024-01-29_14h43.01.979,jersey_experiment_5,2023.2.2,Win32,84.03361345,,,,,,,,,,,,,,,,934.5497,935.8511,935.8511,936.8202,return,0.1533,,74.47916667,,,,,,FBP-YG-17.png,0.43,1.2,34,0.5,,,,,,,,,,,,,,,,,,0,36,36,33,1,,,,,,,,,,,,,,,,,,,,,,,
,,,,,WIN24_012,32,Male,2024-01-29_14h43.01.979,jersey_experiment_5,2023.2.2,Win32,84.03361345,,,,,,,,,,,,,,,,936.8204,938.6199,938.6199,939.8184,return,0.1863,,97.13541667,,,,,,FBP-OG-17.png,0.45,1.2,5,1,,,,,,,,,,,,,,,,,,0,37,37,4,1,,,,,,,,,,,,,,,,,,,,,,,
,,,,,WIN24_012,32,Male,2024-01-29_14h43.01.979,jersey_experiment_5,2023.2.2,Win32,84.03361345,,,,,,,,,,,,,,,,939.8186,941.6203,941.6203,942.5484,return,0.1408,,74.609375,,,,,,FBP-OG-17.png,0.43,1.2,4,1,,,,,,,,,,,,,,,,,,0,38,38,3,1,,,,,,,,,,,,,,,,,,,,,,,
,,,,,WIN24_012,32,Male,2024-01-29_14h43.01.979,jersey_experiment_5,2023.2.2,Win32,84.03361345,,,,,,,,,,,,,,,,942.5486,944.3495,944.3495,945.7456,return,0.3952,,47.39583333,,,,,,FBP-PT-81.png,0.37,1.2,52,1,,,,,,,,,,,,,,,,,,0,39,39,51,1,,,,,,,,,,,,,,,,,,,,,,,
,,,,,WIN24_012,32,Male,2024-01-29_14h43.01.979,jersey_experiment_5,2023.2.2,Win32,84.03361345,,,,,,,,,,,,,,,,945.7457,947.5381,947.5381,949.195,return,0.1179,,71.74479167,,,,,,FBP-PT-81.png,0.43,1.2,54,1,,,,,,,,,,,,,,,,,,0,40,40,53,1,,,,,,,,,,,,,,,,,,,,,,,
,,,,,WIN24_012,32,Male,2024-01-29_14h43.01.979,jersey_experiment_5,2023.2.2,Win32,84.03361345,,,,,,,,,,,,,,,,949.1952,950.487,950.487,951.7974,return,0.2474,,75.13020833,,,,,,FBP-RB-91.png,0.45,1.2,30,0.5,,,,,,,,,,,,,,,,,,0,41,41,29,1,,,,,,,,,,,,,,,,,,,,,,,
,,,,,WIN24_012,32,Male,2024-01-29_14h43.01.979,jersey_experiment_5,2023.2.2,Win32,84.03361345,,,,,,,,,,,,,,,,951.7976,953.5929,953.593,956.2519,return,1.5399,,50.13020833,,,,,,FBP-PT-71.png,0.37,1.2,47,1,,,,,,,,,,,,,,,,,,0,42,42,46,1,,,,,,,,,,,,,,,,,,,,,,,
,,,,,WIN24_012,32,Male,2024-01-29_14h43.01.979,jersey_experiment_5,2023.2.2,Win32,84.03361345,,,,,,,,,,,,,,,,956.2521,958.0519,958.052,959.9973,return,0.2004,,50.26041667,,,,,,FBP-OG-18.png,0.4,1.2,8,1,,,,,,,,,,,,,,,,,,0,43,43,7,1,,,,,,,,,,,,,,,,,,,,,,,
,,,,,WIN24_012,32,Male,2024-01-29_14h43.01.979,jersey_experiment_5,2023.2.2,Win32,84.03361345,,,,,,,,,,,,,,,,959.9975,961.2933,961.2933,962.6992,return,0.2121,,74.86979167,,,,,,FBP-RB-71.png,0.45,1.2,20,0.5,,,,,,,,,,,,,,,,,,0,44,44,19,1,,,,,,,,,,,,,,,,,,,,,,,
,,,,,WIN24_012,32,Male,2024-01-29_14h43.01.979,jersey_experiment_5,2023.2.2,Win32,84.03361345,,,,,,,,,,,,,,,,962.6994,964.4991,964.4991,965.5932,return,0.1296,,74.86979167,,,,,,FBP-OG-18.png,0.45,1.2,10,1,,,,,,,,,,,,,,,,,,0,45,45,9,1,,,,,,,,,,,,,,,,,,,,,,,
,,,,,WIN24_012,32,Male,2024-01-29_14h43.01.979,jersey_experiment_5,2023.2.2,Win32,84.03361345,,,,,,,,,,,,,,,,965.5934,966.8876,966.8876,970.0446,return,0.4826,,37.76041667,,,,,,FBP-RB-71.png,0.35,1.2,16,0.5,,,,,,,,,,,,,,,,,,0,46,46,15,1,,,,,,,,,,,,,,,,,,,,,,,
,,,,,WIN24_012,32,Male,2024-01-29_14h43.01.979,jersey_experiment_5,2023.2.2,Win32,84.03361345,,,,,,,,,,,,,,,,970.0448,971.339,971.339,973.7467,return,0.2057,,87.109375,,,,,,FBP-YG-19.png,0.45,1.2,45,0.5,,,,,,,,,,,,,,,,,,0,47,47,44,1,,,,,,,,,,,,,,,,,,,,,,,
,,,,,WIN24_012,32,Male,2024-01-29_14h43.01.979,jersey_experiment_5,2023.2.2,Win32,84.03361345,,,,,,,,,,,,,,,,973.7469,975.045,975.045,976.4098,return,0.1784,,75.13020833,,,,,,FBP-YG-17.png,0.45,1.2,35,0.5,,,,,,,,,,,,,,,,,,0,48,48,34,1,,,,,,,,,,,,,,,,,,,,,,,
,,,,,WIN24_012,32,Male,2024-01-29_14h43.01.979,jersey_experiment_5,2023.2.2,Win32,84.03361345,,,,,,,,,,,,,,,,976.4099,978.2099,978.2099,979.5374,return,0.2218,,50,,,,,,FBP-PT-91.png,0.4,1.2,58,1,,,,,,,,,,,,,,,,,,0,49,49,57,1,,,,,,,,,,,,,,,,,,,,,,,
,,,,,WIN24_012,32,Male,2024-01-29_14h43.01.979,jersey_experiment_5,2023.2.2,Win32,84.03361345,,,,,,,,,,,,,,,,979.5375,980.8291,980.8291,982.2571,return,0.1397,,25.26041667,,,,,,FBP-YG-19.png,0.37,1.2,42,0.5,,,,,,,,,,,,,,,,,,0,50,50,41,1,,,,,,,,,,,,,,,,,,,,,,,
,,,,,WIN24_012,32,Male,2024-01-29_14h43.01.979,jersey_experiment_5,2023.2.2,Win32,84.03361345,,,,,,,,,,,,,,,,982.2574,984.0591,984.0591,985.234,return,0.236,,10.9375,,,,,,FBP-OG-17.png,0.37,1.2,2,1,,,,,,,,,,,,,,,,,,0,51,51,1,1,,,,,,,,,,,,,,,,,,,,,,,
,,,,,WIN24_012,32,Male,2024-01-29_14h43.01.979,jersey_experiment_5,2023.2.2,Win32,84.03361345,,,,,,,,,,,,,,,,985.2341,987.0295,987.0295,988.1147,return,0.14,,74.73958333,,,,,,FBP-OG-19.png,0.45,1.2,15,1,,,,,,,,,,,,,,,,,,0,52,52,14,1,,,,,,,,,,,,,,,,,,,,,,,
,,,,,WIN24_012,32,Male,2024-01-29_14h43.01.979,jersey_experiment_5,2023.2.2,Win32,84.03361345,,,,,,,,,,,,,,,,988.1149,989.4101,989.4101,990.7165,return,0.1769,,60.9375,,,,,,FBP-YG-19.png,0.43,1.2,44,0.5,,,,,,,,,,,,,,,,,,0,53,53,43,1,,,,,,,,,,,,,,,,,,,,,,,
,,,,,WIN24_012,32,Male,2024-01-29_14h43.01.979,jersey_experiment_5,2023.2.2,Win32,84.03361345,,,,,,,,,,,,,,,,990.7166,992.0179,992.0179,993.4127,return,0.1888,,24.73958333,,,,,,FBP-RB-81.png,0.37,1.2,22,0.5,,,,,,,,,,,,,,,,,,0,54,54,21,1,,,,,,,,,,,,,,,,,,,,,,,
,,,,,WIN24_012,32,Male,2024-01-29_14h43.01.979,jersey_experiment_5,2023.2.2,Win32,84.03361345,,,,,,,,,,,,,,,,993.4128,994.7122,994.7122,995.9048,return,0.1295,,50.13020833,,,,,,FBP-YG-18.png,0.43,1.2,39,0.5,,,,,,,,,,,,,,,,,,0,55,55,38,1,,,,,,,,,,,,,,,,,,,,,,,
,,,,,WIN24_012,32,Male,2024-01-29_14h43.01.979,jersey_experiment_5,2023.2.2,Win32,84.03361345,,,,,,,,,,,,,,,,995.9048,997.7005,997.7005,999.3615,return,0.1883,,62.36979167,,,,,,FBP-OG-18.png,0.43,1.2,9,1,,,,,,,,,,,,,,,,,,0,56,56,8,1,,,,,,,,,,,,,,,,,,,,,,,
,,,,,WIN24_012,32,Male,2024-01-29_14h43.01.979,jersey_experiment_5,2023.2.2,Win32,84.03361345,,,,,,,,,,,,,,,,999.3618,1001.1594,1001.1594,1004.0812,return,0.1649,,50.13020833,,,,,,FBP-PT-71.png,0.43,1.2,49,1,,,,,,,,,,,,,,,,,,0,57,57,48,1,,,,,,,,,,,,,,,,,,,,,,,
,,,,,WIN24_012,32,Male,2024-01-29_14h43.01.979,jersey_experiment_5,2023.2.2,Win32,84.03361345,,,,,,,,,,,,,,,,1004.0813,1005.8812,1005.8812,1006.8696,return,0.1884,,35.9375,,,,,,FBP-OG-19.png,0.4,1.2,13,1,,,,,,,,,,,,,,,,,,0,58,58,12,1,,,,,,,,,,,,,,,,,,,,,,,
,,,,,WIN24_012,32,Male,2024-01-29_14h43.01.979,jersey_experiment_5,2023.2.2,Win32,84.03361345,,,,,,,,,,,,,,,,1006.8698,1008.1714,1008.1714,1009.3125,return,0.1253,,50,,,,,,FBP-RB-81.png,0.45,1.2,25,0.5,,,,,,,,,,,,,,,,,,0,59,59,24,1,,,,,,,,,,,,,,,,,,,,,,,
,,,,,WIN24_012,32,Male,2024-01-29_14h43.01.979,jersey_experiment_5,2023.2.2,Win32,84.03361345,,,,,,,,,,,,,,,,,,,,,,,,,,,,,,,,,,,,,,,,,,,,,,,,,,,,,,,,1009.313,1015.6348,return,6.3059,,,,,,,,,,,,,,,,,,,
,,,,,WIN24_012,32,Male,2024-01-29_14h43.01.979,jersey_experiment_5,2023.2.2,Win32,84.03361345,,,,,,,,,,,,,,,,,,,,,,,,,,,,,,,,,,,,,,,,,,,,,,,,,,,,,,,,,,,,,1015.6349,1022.1484,1,5.1049,return,1.3803,,,,,,,,,,,,
,,,,,WIN24_012,32,Male,2024-01-29_14h43.01.979,jersey_experiment_5,2023.2.2,Win32,84.03361345,,,,,,,,,,,,,,,,,,,,,,,,,,,,,,,,,,,,,,,,,,,,,,,,,,,,,,,,,,,,,,,,,,,,1022.1485,1033.6239,None,right,5.7117,,,,,,
,,,,,WIN24_012,32,Male,2024-01-29_14h43.01.979,jersey_experiment_5,2023.2.2,Win32,84.03361345,,,,,,,,,,,,,,,,,,,,,,,,,,,,,,,,,,,,,,,,,,,,,,,,,,,,,,,,,,,,,,,,,,,,,,,,,,1033.624,1041.1847,return,7.549,