requirements.started,requirements.stopped,key_resp_3.keys,key_resp_3.rt,key_resp_3.duration,Subject ID,Age,Gender,date,expName,psychopyVersion,OS,frameRate,instructions1.started,instructions1.stopped,key_resp.keys,key_resp.rt,key_resp.duration,example.started,example.stopped,enter_2.keys,enter_2.rt,enter_2.duration,instructions2.started,instructions2.stopped,enter_3.keys,enter_3.rt,enter_3.duration,image.started,image.stopped,slider_2.started,slider_2.stopped,next.keys,next.rt,next.duration,slider.response,trial_block_1.thisRepN,trial_block_1.thisTrialN,trial_block_1.thisN,trial_block_1.thisIndex,trial_block_1.ran,Path,Width,Height,Index,Duration,trial_block_2.thisRepN,trial_block_2.thisTrialN,trial_block_2.thisN,trial_block_2.thisIndex,trial_block_2.ran,rest_break.started,rest_break.stopped,end_break.started,end_break.stopped,key_resp_5.keys,key_resp_5.rt,key_resp_5.duration,trial_block_3.thisRepN,trial_block_3.thisTrialN,trial_block_3.thisN,trial_block_3.thisIndex,trial_block_3.ran,trial_block_4.thisRepN,trial_block_4.thisTrialN,trial_block_4.thisN,trial_block_4.thisIndex,trial_block_4.ran,questions_intro.started,questions_intro.stopped,enter_12.keys,enter_12.rt,enter_12.duration,question2.started,question2.stopped,question_doingbest.response,question_doingbest.rt,enter_15.keys,enter_15.rt,enter_15.duration,pattern.started,pattern.stopped,pattern_2.text,enter_17.keys,enter_17.rt,enter_17.duration,thankyou.started,thankyou.stopped,enter_14.keys,enter_14.rt,enter_14.duration
0,6.4726,return,6.4684,,WIN25_026,21,male,2024-02-01_12h16.41.618,jersey_experiment_5,2023.2.2,Win32,84.74576271,,,,,,,,,,,,,,,,,,,,,,,,,,,,,,,,,,,,,,,,,,,,,,,,,,,,,,,,,,,,,,,,,,,,,,,,,,,,,,
,,,,,WIN25_026,21,male,2024-02-01_12h16.41.618,jersey_experiment_5,2023.2.2,Win32,84.74576271,6.4727,11.6691,return,5.1813,,,,,,,,,,,,,,,,,,,,,,,,,,,,,,,,,,,,,,,,,,,,,,,,,,,,,,,,,,,,,,,,,,,,,,,,,,
,,,,,WIN25_026,21,male,2024-02-01_12h16.41.618,jersey_experiment_5,2023.2.2,Win32,84.74576271,,,,,,11.6692,14.9162,return,3.21,,,,,,,,,,,,,,,,,,,,,,,,,,,,,,,,,,,,,,,,,,,,,,,,,,,,,,,,,,,,,,,,,,,,,
,,,,,WIN25_026,21,male,2024-02-01_12h16.41.618,jersey_experiment_5,2023.2.2,Win32,84.74576271,,,,,,,,,,,14.9163,26.387,return,11.4659,,,,,,,,,,,,,,,,,,,,,,,,,,,,,,,,,,,,,,,,,,,,,,,,,,,,,,,,,,,,,,,,
,,,,,WIN25_026,21,male,2024-02-01_12h16.41.618,jersey_experiment_5,2023.2.2,Win32,84.74576271,,,,,,,,,,,,,,,,26.3935,28.187,28.187,36.9637,return,3.395,,43.09895833,0,0,0,36,1,FBP-YG-81.png,0.37,1.2,37,1,,,,,,,,,,,,,,,,,,,,,,,,,,,,,,,,,,,,,,,,,,,,,
,,,,,WIN25_026,21,male,2024-02-01_12h16.41.618,jersey_experiment_5,2023.2.2,Win32,84.74576271,,,,,,,,,,,,,,,,36.9641,38.7636,38.7636,40.9874,return,0.2122,,42.578125,0,1,1,32,1,FBP-YG-71.png,0.4,1.2,33,1,,,,,,,,,,,,,,,,,,,,,,,,,,,,,,,,,,,,,,,,,,,,,
,,,,,WIN25_026,21,male,2024-02-01_12h16.41.618,jersey_experiment_5,2023.2.2,Win32,84.74576271,,,,,,,,,,,,,,,,40.9875,42.2815,42.2815,44.5169,return,0.1595,,62.76041667,0,2,2,13,1,FBP-OG-91.png,0.43,1.2,14,0.5,,,,,,,,,,,,,,,,,,,,,,,,,,,,,,,,,,,,,,,,,,,,,
,,,,,WIN25_026,21,male,2024-02-01_12h16.41.618,jersey_experiment_5,2023.2.2,Win32,84.74576271,,,,,,,,,,,,,,,,44.5171,45.8113,45.8114,47.3405,return,0.3303,,69.27083333,0,3,3,57,1,FBP-PT-19.png,0.4,1.2,58,0.5,,,,,,,,,,,,,,,,,,,,,,,,,,,,,,,,,,,,,,,,,,,,,
,,,,,WIN25_026,21,male,2024-02-01_12h16.41.618,jersey_experiment_5,2023.2.2,Win32,84.74576271,,,,,,,,,,,,,,,,47.3407,48.6348,48.6348,54.4702,return,4.1213,,20.57291667,0,4,4,0,1,FBP-OG-71.png,0.35,1.2,1,0.5,,,,,,,,,,,,,,,,,,,,,,,,,,,,,,,,,,,,,,,,,,,,,
,,,,,WIN25_026,21,male,2024-02-01_12h16.41.618,jersey_experiment_5,2023.2.2,Win32,84.74576271,,,,,,,,,,,,,,,,54.4744,55.7761,55.7761,57.2232,return,0.2747,,42.31770833,0,5,5,47,1,FBP-PT-17.png,0.4,1.2,48,0.5,,,,,,,,,,,,,,,,,,,,,,,,,,,,,,,,,,,,,,,,,,,,,
,,,,,WIN25_026,21,male,2024-02-01_12h16.41.618,jersey_experiment_5,2023.2.2,Win32,84.74576271,,,,,,,,,,,,,,,,57.2235,59.0232,59.0232,61.0469,return,0.2034,,39.97395833,0,6,6,40,1,FBP-YG-91.png,0.35,1.2,41,1,,,,,,,,,,,,,,,,,,,,,,,,,,,,,,,,,,,,,,,,,,,,,
,,,,,WIN25_026,21,male,2024-02-01_12h16.41.618,jersey_experiment_5,2023.2.2,Win32,84.74576271,,,,,,,,,,,,,,,,61.0471,62.341,62.341,63.7176,return,0.2164,,54.42708333,0,7,7,7,1,FBP-OG-81.png,0.4,1.2,8,0.5,,,,,,,,,,,,,,,,,,,,,,,,,,,,,,,,,,,,,,,,,,,,,
,,,,,WIN25_026,21,male,2024-02-01_12h16.41.618,jersey_experiment_5,2023.2.2,Win32,84.74576271,,,,,,,,,,,,,,,,63.7178,65.5176,65.5177,67.0942,return,0.8383,,59.63541667,0,8,8,22,1,FBP-RB-18.png,0.4,1.2,23,1,,,,,,,,,,,,,,,,,,,,,,,,,,,,,,,,,,,,,,,,,,,,,
,,,,,WIN25_026,21,male,2024-02-01_12h16.41.618,jersey_experiment_5,2023.2.2,Win32,84.74576271,,,,,,,,,,,,,,,,67.0945,68.3883,68.3883,70.3177,return,0.9647,,38.41145833,0,9,9,52,1,FBP-PT-18.png,0.4,1.2,53,0.5,,,,,,,,,,,,,,,,,,,,,,,,,,,,,,,,,,,,,,,,,,,,,
,,,,,WIN25_026,21,male,2024-02-01_12h16.41.618,jersey_experiment_5,2023.2.2,Win32,84.74576271,,,,,,,,,,,,,,,,70.318,71.612,71.612,73.012,return,0.1465,,40.10416667,0,10,10,6,1,FBP-OG-81.png,0.37,1.2,7,0.5,,,,,,,,,,,,,,,,,,,,,,,,,,,,,,,,,,,,,,,,,,,,,
,,,,,WIN25_026,21,male,2024-02-01_12h16.41.618,jersey_experiment_5,2023.2.2,Win32,84.74576271,,,,,,,,,,,,,,,,73.0123,74.3062,74.3062,76.3298,return,0.1559,,31.11979167,0,11,11,55,1,FBP-PT-19.png,0.35,1.2,56,0.5,,,,,,,,,,,,,,,,,,,,,,,,,,,,,,,,,,,,,,,,,,,,,
,,,,,WIN25_026,21,male,2024-02-01_12h16.41.618,jersey_experiment_5,2023.2.2,Win32,84.74576271,,,,,,,,,,,,,,,,76.33,78.1301,78.1301,79.5772,return,0.5791,,69.140625,0,12,12,23,1,FBP-RB-18.png,0.43,1.2,24,1,,,,,,,,,,,,,,,,,,,,,,,,,,,,,,,,,,,,,,,,,,,,,
,,,,,WIN25_026,21,male,2024-02-01_12h16.41.618,jersey_experiment_5,2023.2.2,Win32,84.74576271,,,,,,,,,,,,,,,,79.5773,81.377,81.377,82.3064,return,0.2185,,63.02083333,0,13,13,18,1,FBP-RB-17.png,0.43,1.2,19,1,,,,,,,,,,,,,,,,,,,,,,,,,,,,,,,,,,,,,,,,,,,,,
,,,,,WIN25_026,21,male,2024-02-01_12h16.41.618,jersey_experiment_5,2023.2.2,Win32,84.74576271,,,,,,,,,,,,,,,,82.3066,83.6006,83.6006,84.683,return,0.2838,,40.36458333,0,14,14,56,1,FBP-PT-19.png,0.37,1.2,57,0.5,,,,,,,,,,,,,,,,,,,,,,,,,,,,,,,,,,,,,,,,,,,,,
,,,,,WIN25_026,21,male,2024-02-01_12h16.41.618,jersey_experiment_5,2023.2.2,Win32,84.74576271,,,,,,,,,,,,,,,,84.6832,86.4831,86.4831,87.4477,return,0.3328,,71.09375,0,15,15,44,1,FBP-YG-91.png,0.45,1.2,45,1,,,,,,,,,,,,,,,,,,,,,,,,,,,,,,,,,,,,,,,,,,,,,
,,,,,WIN25_026,21,male,2024-02-01_12h16.41.618,jersey_experiment_5,2023.2.2,Win32,84.74576271,,,,,,,,,,,,,,,,87.4479,89.2478,89.2478,90.1891,return,0.188,,74.86979167,0,16,16,43,1,FBP-YG-91.png,0.43,1.2,44,1,,,,,,,,,,,,,,,,,,,,,,,,,,,,,,,,,,,,,,,,,,,,,
,,,,,WIN25_026,21,male,2024-02-01_12h16.41.618,jersey_experiment_5,2023.2.2,Win32,84.74576271,,,,,,,,,,,,,,,,90.1893,91.9892,91.9892,93.3186,return,0.1812,,44.66145833,0,17,17,26,1,FBP-RB-19.png,0.37,1.2,27,1,,,,,,,,,,,,,,,,,,,,,,,,,,,,,,,,,,,,,,,,,,,,,
,,,,,WIN25_026,21,male,2024-02-01_12h16.41.618,jersey_experiment_5,2023.2.2,Win32,84.74576271,,,,,,,,,,,,,,,,93.3187,94.6128,94.6128,95.7068,return,0.1883,,62.5,0,18,18,53,1,FBP-PT-18.png,0.43,1.2,54,0.5,,,,,,,,,,,,,,,,,,,,,,,,,,,,,,,,,,,,,,,,,,,,,
,,,,,WIN25_026,21,male,2024-02-01_12h16.41.618,jersey_experiment_5,2023.2.2,Win32,84.74576271,,,,,,,,,,,,,,,,95.707,97.5072,97.5072,100.4719,return,1.6719,,55.078125,0,19,19,27,1,FBP-RB-19.png,0.4,1.2,28,1,,,,,,,,,,,,,,,,,,,,,,,,,,,,,,,,,,,,,,,,,,,,,
,,,,,WIN25_026,21,male,2024-02-01_12h16.41.618,jersey_experiment_5,2023.2.2,Win32,84.74576271,,,,,,,,,,,,,,,,100.4721,101.766,101.766,103.9424,return,1.2754,,66.796875,0,20,20,9,1,FBP-OG-81.png,0.45,1.2,10,0.5,,,,,,,,,,,,,,,,,,,,,,,,,,,,,,,,,,,,,,,,,,,,,
,,,,,WIN25_026,21,male,2024-02-01_12h16.41.618,jersey_experiment_5,2023.2.2,Win32,84.74576271,,,,,,,,,,,,,,,,103.9427,105.2365,105.2366,106.4366,return,0.1713,,71.875,0,21,21,49,1,FBP-PT-17.png,0.45,1.2,50,0.5,,,,,,,,,,,,,,,,,,,,,,,,,,,,,,,,,,,,,,,,,,,,,
,,,,,WIN25_026,21,male,2024-02-01_12h16.41.618,jersey_experiment_5,2023.2.2,Win32,84.74576271,,,,,,,,,,,,,,,,106.4368,108.2369,108.237,110.3545,return,0.2432,,43.75,0,22,22,42,1,FBP-YG-91.png,0.4,1.2,43,1,,,,,,,,,,,,,,,,,,,,,,,,,,,,,,,,,,,,,,,,,,,,,
,,,,,WIN25_026,21,male,2024-02-01_12h16.41.618,jersey_experiment_5,2023.2.2,Win32,84.74576271,,,,,,,,,,,,,,,,110.3547,112.1545,112.1545,113.0368,return,0.1417,,20.96354167,0,23,23,21,1,FBP-RB-18.png,0.37,1.2,22,1,,,,,,,,,,,,,,,,,,,,,,,,,,,,,,,,,,,,,,,,,,,,,
,,,,,WIN25_026,21,male,2024-02-01_12h16.41.618,jersey_experiment_5,2023.2.2,Win32,84.74576271,,,,,,,,,,,,,,,,113.037,114.8371,114.8371,115.9899,return,0.1937,,8.59375,0,24,24,35,1,FBP-YG-81.png,0.35,1.2,36,1,,,,,,,,,,,,,,,,,,,,,,,,,,,,,,,,,,,,,,,,,,,,,
,,,,,WIN25_026,21,male,2024-02-01_12h16.41.618,jersey_experiment_5,2023.2.2,Win32,84.74576271,,,,,,,,,,,,,,,,115.9902,117.284,117.284,118.3546,return,0.2181,,72.00520833,0,25,25,14,1,FBP-OG-91.png,0.45,1.2,15,0.5,,,,,,,,,,,,,,,,,,,,,,,,,,,,,,,,,,,,,,,,,,,,,
,,,,,WIN25_026,21,male,2024-02-01_12h16.41.618,jersey_experiment_5,2023.2.2,Win32,84.74576271,,,,,,,,,,,,,,,,118.3548,119.6492,119.6492,120.7078,return,0.09,,30.59895833,0,26,26,10,1,FBP-OG-91.png,0.35,1.2,11,0.5,,,,,,,,,,,,,,,,,,,,,,,,,,,,,,,,,,,,,,,,,,,,,
,,,,,WIN25_026,21,male,2024-02-01_12h16.41.618,jersey_experiment_5,2023.2.2,Win32,84.74576271,,,,,,,,,,,,,,,,120.708,122.0019,122.0019,122.7313,return,0.1177,,38.41145833,0,27,27,46,1,FBP-PT-17.png,0.37,1.2,47,0.5,,,,,,,,,,,,,,,,,,,,,,,,,,,,,,,,,,,,,,,,,,,,,
,,,,,WIN25_026,21,male,2024-02-01_12h16.41.618,jersey_experiment_5,2023.2.2,Win32,84.74576271,,,,,,,,,,,,,,,,122.7316,124.5312,124.5313,126.1784,return,0.1968,,74.73958333,0,28,28,33,1,FBP-YG-71.png,0.43,1.2,34,1,,,,,,,,,,,,,,,,,,,,,,,,,,,,,,,,,,,,,,,,,,,,,
,,,,,WIN25_026,21,male,2024-02-01_12h16.41.618,jersey_experiment_5,2023.2.2,Win32,84.74576271,,,,,,,,,,,,,,,,126.1787,127.4727,127.4727,128.555,return,0.1415,,79.81770833,0,29,29,3,1,FBP-OG-71.png,0.43,1.2,4,0.5,,,,,,,,,,,,,,,,,,,,,,,,,,,,,,,,,,,,,,,,,,,,,
,,,,,WIN25_026,21,male,2024-02-01_12h16.41.618,jersey_experiment_5,2023.2.2,Win32,84.74576271,,,,,,,,,,,,,,,,128.5553,129.8492,129.8493,130.8257,return,0.1653,,73.17708333,0,30,30,2,1,FBP-OG-71.png,0.4,1.2,3,0.5,,,,,,,,,,,,,,,,,,,,,,,,,,,,,,,,,,,,,,,,,,,,,
,,,,,WIN25_026,21,male,2024-02-01_12h16.41.618,jersey_experiment_5,2023.2.2,Win32,84.74576271,,,,,,,,,,,,,,,,130.8259,132.1199,132.1199,133.6024,return,0.1148,,73.95833333,0,31,31,8,1,FBP-OG-81.png,0.43,1.2,9,0.5,,,,,,,,,,,,,,,,,,,,,,,,,,,,,,,,,,,,,,,,,,,,,
,,,,,WIN25_026,21,male,2024-02-01_12h16.41.618,jersey_experiment_5,2023.2.2,Win32,84.74576271,,,,,,,,,,,,,,,,133.6026,135.4023,135.4023,136.8377,return,0.6982,,38.41145833,0,32,32,31,1,FBP-YG-71.png,0.37,1.2,32,1,,,,,,,,,,,,,,,,,,,,,,,,,,,,,,,,,,,,,,,,,,,,,
,,,,,WIN25_026,21,male,2024-02-01_12h16.41.618,jersey_experiment_5,2023.2.2,Win32,84.74576271,,,,,,,,,,,,,,,,136.8379,138.6377,138.6378,139.5554,return,0.1239,,58.46354167,0,33,33,17,1,FBP-RB-17.png,0.4,1.2,18,1,,,,,,,,,,,,,,,,,,,,,,,,,,,,,,,,,,,,,,,,,,,,,
,,,,,WIN25_026,21,male,2024-02-01_12h16.41.618,jersey_experiment_5,2023.2.2,Win32,84.74576271,,,,,,,,,,,,,,,,139.5556,141.3554,141.3555,142.0379,return,0.1333,,39.71354167,0,34,34,41,1,FBP-YG-91.png,0.37,1.2,42,1,,,,,,,,,,,,,,,,,,,,,,,,,,,,,,,,,,,,,,,,,,,,,
,,,,,WIN25_026,21,male,2024-02-01_12h16.41.618,jersey_experiment_5,2023.2.2,Win32,84.74576271,,,,,,,,,,,,,,,,142.0381,143.3321,143.3321,147.2851,return,2.2747,,38.15104167,0,35,35,11,1,FBP-OG-91.png,0.37,1.2,12,0.5,,,,,,,,,,,,,,,,,,,,,,,,,,,,,,,,,,,,,,,,,,,,,
,,,,,WIN25_026,21,male,2024-02-01_12h16.41.618,jersey_experiment_5,2023.2.2,Win32,84.74576271,,,,,,,,,,,,,,,,147.2853,148.5792,148.5792,149.9794,return,0.2355,,21.484375,0,36,36,5,1,FBP-OG-81.png,0.35,1.2,6,0.5,,,,,,,,,,,,,,,,,,,,,,,,,,,,,,,,,,,,,,,,,,,,,
,,,,,WIN25_026,21,male,2024-02-01_12h16.41.618,jersey_experiment_5,2023.2.2,Win32,84.74576271,,,,,,,,,,,,,,,,149.9796,151.2737,151.2738,152.4852,return,0.0294,,82.16145833,0,37,37,4,1,FBP-OG-71.png,0.45,1.2,5,0.5,,,,,,,,,,,,,,,,,,,,,,,,,,,,,,,,,,,,,,,,,,,,,
,,,,,WIN25_026,21,male,2024-02-01_12h16.41.618,jersey_experiment_5,2023.2.2,Win32,84.74576271,,,,,,,,,,,,,,,,152.4854,154.2855,154.2855,155.6265,return,0.5895,,38.54166667,0,38,38,15,1,FBP-RB-17.png,0.35,1.2,16,1,,,,,,,,,,,,,,,,,,,,,,,,,,,,,,,,,,,,,,,,,,,,,
,,,,,WIN25_026,21,male,2024-02-01_12h16.41.618,jersey_experiment_5,2023.2.2,Win32,84.74576271,,,,,,,,,,,,,,,,155.6266,157.4266,157.4266,158.7796,return,0.4839,,30.33854167,0,39,39,25,1,FBP-RB-19.png,0.35,1.2,26,1,,,,,,,,,,,,,,,,,,,,,,,,,,,,,,,,,,,,,,,,,,,,,
,,,,,WIN25_026,21,male,2024-02-01_12h16.41.618,jersey_experiment_5,2023.2.2,Win32,84.74576271,,,,,,,,,,,,,,,,158.7799,160.5797,160.5797,162.1798,return,0.1953,,82.8125,0,40,40,39,1,FBP-YG-81.png,0.45,1.2,40,1,,,,,,,,,,,,,,,,,,,,,,,,,,,,,,,,,,,,,,,,,,,,,
,,,,,WIN25_026,21,male,2024-02-01_12h16.41.618,jersey_experiment_5,2023.2.2,Win32,84.74576271,,,,,,,,,,,,,,,,162.18,163.474,163.474,164.5681,return,0.2266,,12.109375,0,41,41,50,1,FBP-PT-18.png,0.35,1.2,51,0.5,,,,,,,,,,,,,,,,,,,,,,,,,,,,,,,,,,,,,,,,,,,,,
,,,,,WIN25_026,21,male,2024-02-01_12h16.41.618,jersey_experiment_5,2023.2.2,Win32,84.74576271,,,,,,,,,,,,,,,,164.5683,166.3681,166.3681,167.1565,return,0.0423,,31.38020833,0,42,42,37,1,FBP-YG-81.png,0.4,1.2,38,1,,,,,,,,,,,,,,,,,,,,,,,,,,,,,,,,,,,,,,,,,,,,,
,,,,,WIN25_026,21,male,2024-02-01_12h16.41.618,jersey_experiment_5,2023.2.2,Win32,84.74576271,,,,,,,,,,,,,,,,167.1566,168.9564,168.9564,169.7682,return,0.1794,,85.02604167,0,43,43,34,1,FBP-YG-71.png,0.45,1.2,35,1,,,,,,,,,,,,,,,,,,,,,,,,,,,,,,,,,,,,,,,,,,,,,
,,,,,WIN25_026,21,male,2024-02-01_12h16.41.618,jersey_experiment_5,2023.2.2,Win32,84.74576271,,,,,,,,,,,,,,,,169.7685,171.5683,171.5683,173.0507,return,0.5283,,92.83854167,0,44,44,28,1,FBP-RB-19.png,0.43,1.2,29,1,,,,,,,,,,,,,,,,,,,,,,,,,,,,,,,,,,,,,,,,,,,,,
,,,,,WIN25_026,21,male,2024-02-01_12h16.41.618,jersey_experiment_5,2023.2.2,Win32,84.74576271,,,,,,,,,,,,,,,,173.0509,174.345,174.345,175.4742,return,0.3716,,38.15104167,0,45,45,51,1,FBP-PT-18.png,0.37,1.2,52,0.5,,,,,,,,,,,,,,,,,,,,,,,,,,,,,,,,,,,,,,,,,,,,,
,,,,,WIN25_026,21,male,2024-02-01_12h16.41.618,jersey_experiment_5,2023.2.2,Win32,84.74576271,,,,,,,,,,,,,,,,175.4744,176.7684,176.7684,178.5804,return,0.1356,,22.265625,0,46,46,1,1,FBP-OG-71.png,0.37,1.2,2,0.5,,,,,,,,,,,,,,,,,,,,,,,,,,,,,,,,,,,,,,,,,,,,,
,,,,,WIN25_026,21,male,2024-02-01_12h16.41.618,jersey_experiment_5,2023.2.2,Win32,84.74576271,,,,,,,,,,,,,,,,178.5806,179.8744,179.8745,181.4276,return,0.7705,,80.859375,0,47,47,58,1,FBP-PT-19.png,0.43,1.2,59,0.5,,,,,,,,,,,,,,,,,,,,,,,,,,,,,,,,,,,,,,,,,,,,,
,,,,,WIN25_026,21,male,2024-02-01_12h16.41.618,jersey_experiment_5,2023.2.2,Win32,84.74576271,,,,,,,,,,,,,,,,181.4279,183.2275,183.2275,184.157,return,0.1883,,88.671875,0,48,48,29,1,FBP-RB-19.png,0.45,1.2,30,1,,,,,,,,,,,,,,,,,,,,,,,,,,,,,,,,,,,,,,,,,,,,,
,,,,,WIN25_026,21,male,2024-02-01_12h16.41.618,jersey_experiment_5,2023.2.2,Win32,84.74576271,,,,,,,,,,,,,,,,184.1572,185.4512,185.4513,186.5336,return,0.2748,,33.33333333,0,49,49,45,1,FBP-PT-17.png,0.35,1.2,46,0.5,,,,,,,,,,,,,,,,,,,,,,,,,,,,,,,,,,,,,,,,,,,,,
,,,,,WIN25_026,21,male,2024-02-01_12h16.41.618,jersey_experiment_5,2023.2.2,Win32,84.74576271,,,,,,,,,,,,,,,,186.5338,187.8275,187.8276,189.0042,return,0.2121,,77.34375,0,50,50,48,1,FBP-PT-17.png,0.43,1.2,49,0.5,,,,,,,,,,,,,,,,,,,,,,,,,,,,,,,,,,,,,,,,,,,,,
,,,,,WIN25_026,21,male,2024-02-01_12h16.41.618,jersey_experiment_5,2023.2.2,Win32,84.74576271,,,,,,,,,,,,,,,,189.0043,190.8044,190.8044,191.8159,return,0.1896,,70.18229167,0,51,51,16,1,FBP-RB-17.png,0.37,1.2,17,1,,,,,,,,,,,,,,,,,,,,,,,,,,,,,,,,,,,,,,,,,,,,,
,,,,,WIN25_026,21,male,2024-02-01_12h16.41.618,jersey_experiment_5,2023.2.2,Win32,84.74576271,,,,,,,,,,,,,,,,191.8162,193.6162,193.6162,194.3926,return,0.178,,93.88020833,0,52,52,24,1,FBP-RB-18.png,0.45,1.2,25,1,,,,,,,,,,,,,,,,,,,,,,,,,,,,,,,,,,,,,,,,,,,,,
,,,,,WIN25_026,21,male,2024-02-01_12h16.41.618,jersey_experiment_5,2023.2.2,Win32,84.74576271,,,,,,,,,,,,,,,,194.3927,196.1925,196.1926,196.8868,return,0.1454,,84.89583333,0,53,53,38,1,FBP-YG-81.png,0.43,1.2,39,1,,,,,,,,,,,,,,,,,,,,,,,,,,,,,,,,,,,,,,,,,,,,,
,,,,,WIN25_026,21,male,2024-02-01_12h16.41.618,jersey_experiment_5,2023.2.2,Win32,84.74576271,,,,,,,,,,,,,,,,196.8869,198.181,198.181,199.0986,return,0.1886,,88.93229167,0,54,54,59,1,FBP-PT-19.png,0.45,1.2,60,0.5,,,,,,,,,,,,,,,,,,,,,,,,,,,,,,,,,,,,,,,,,,,,,
,,,,,WIN25_026,21,male,2024-02-01_12h16.41.618,jersey_experiment_5,2023.2.2,Win32,84.74576271,,,,,,,,,,,,,,,,199.0988,200.8988,200.8988,201.5105,return,0.1106,,91.27604167,0,55,55,19,1,FBP-RB-17.png,0.45,1.2,20,1,,,,,,,,,,,,,,,,,,,,,,,,,,,,,,,,,,,,,,,,,,,,,
,,,,,WIN25_026,21,male,2024-02-01_12h16.41.618,jersey_experiment_5,2023.2.2,Win32,84.74576271,,,,,,,,,,,,,,,,201.5107,203.3107,203.3108,204.2987,return,0.2121,,35.41666667,0,56,56,30,1,FBP-YG-71.png,0.35,1.2,31,1,,,,,,,,,,,,,,,,,,,,,,,,,,,,,,,,,,,,,,,,,,,,,
,,,,,WIN25_026,21,male,2024-02-01_12h16.41.618,jersey_experiment_5,2023.2.2,Win32,84.74576271,,,,,,,,,,,,,,,,204.2989,205.5928,205.5928,207.4989,return,0.1178,,53.64583333,0,57,57,12,1,FBP-OG-91.png,0.4,1.2,13,0.5,,,,,,,,,,,,,,,,,,,,,,,,,,,,,,,,,,,,,,,,,,,,,
,,,,,WIN25_026,21,male,2024-02-01_12h16.41.618,jersey_experiment_5,2023.2.2,Win32,84.74576271,,,,,,,,,,,,,,,,207.4991,209.2992,209.2992,210.2755,return,0.5581,,35.15625,0,58,58,20,1,FBP-RB-18.png,0.35,1.2,21,1,,,,,,,,,,,,,,,,,,,,,,,,,,,,,,,,,,,,,,,,,,,,,
,,,,,WIN25_026,21,male,2024-02-01_12h16.41.618,jersey_experiment_5,2023.2.2,Win32,84.74576271,,,,,,,,,,,,,,,,210.2757,211.5696,211.5696,212.758,return,0.1818,,77.21354167,0,59,59,54,1,FBP-PT-18.png,0.45,1.2,55,0.5,,,,,,,,,,,,,,,,,,,,,,,,,,,,,,,,,,,,,,,,,,,,,
,,,,,WIN25_026,21,male,2024-02-01_12h16.41.618,jersey_experiment_5,2023.2.2,Win32,84.74576271,,,,,,,,,,,,,,,,212.7594,214.0522,214.0522,214.9698,return,0.3662,,67.44791667,,,,,,FBP-PT-71.png,0.43,1.2,49,0.5,0,0,0,48,1,,,,,,,,,,,,,,,,,,,,,,,,,,,,,,,,,,,,,,,,
,,,,,WIN25_026,21,male,2024-02-01_12h16.41.618,jersey_experiment_5,2023.2.2,Win32,84.74576271,,,,,,,,,,,,,,,,214.9701,216.264,216.264,217.005,return,0.1174,,32.94270833,,,,,,FBP-PT-91.png,0.37,1.2,57,0.5,0,1,1,56,1,,,,,,,,,,,,,,,,,,,,,,,,,,,,,,,,,,,,,,,,
,,,,,WIN25_026,21,male,2024-02-01_12h16.41.618,jersey_experiment_5,2023.2.2,Win32,84.74576271,,,,,,,,,,,,,,,,217.0052,218.8054,218.8054,220.5463,return,0.0438,,33.85416667,,,,,,FBP-RB-91.png,0.37,1.2,27,1,0,2,2,26,1,,,,,,,,,,,,,,,,,,,,,,,,,,,,,,,,,,,,,,,,
,,,,,WIN25_026,21,male,2024-02-01_12h16.41.618,jersey_experiment_5,2023.2.2,Win32,84.74576271,,,,,,,,,,,,,,,,220.5466,221.8406,221.8406,223.0289,return,0.2288,,22.265625,,,,,,FBP-PT-91.png,0.35,1.2,56,0.5,0,3,3,55,1,,,,,,,,,,,,,,,,,,,,,,,,,,,,,,,,,,,,,,,,
,,,,,WIN25_026,21,male,2024-02-01_12h16.41.618,jersey_experiment_5,2023.2.2,Win32,84.74576271,,,,,,,,,,,,,,,,223.0292,224.8291,224.8291,225.7348,return,0.2394,,89.58333333,,,,,,FBP-RB-71.png,0.45,1.2,20,1,0,4,4,19,1,,,,,,,,,,,,,,,,,,,,,,,,,,,,,,,,,,,,,,,,
,,,,,WIN25_026,21,male,2024-02-01_12h16.41.618,jersey_experiment_5,2023.2.2,Win32,84.74576271,,,,,,,,,,,,,,,,225.7349,227.535,227.535,231.4528,return,1.8219,,47.39583333,,,,,,FBP-RB-81.png,0.37,1.2,22,1,0,5,5,21,1,,,,,,,,,,,,,,,,,,,,,,,,,,,,,,,,,,,,,,,,
,,,,,WIN25_026,21,male,2024-02-01_12h16.41.618,jersey_experiment_5,2023.2.2,Win32,84.74576271,,,,,,,,,,,,,,,,231.4529,233.2528,233.2528,234.6763,return,0.7362,,36.19791667,,,,,,FBP-YG-19.png,0.37,1.2,42,1,0,6,6,41,1,,,,,,,,,,,,,,,,,,,,,,,,,,,,,,,,,,,,,,,,
,,,,,WIN25_026,21,male,2024-02-01_12h16.41.618,jersey_experiment_5,2023.2.2,Win32,84.74576271,,,,,,,,,,,,,,,,234.6766,236.4766,236.4767,237.8765,return,0.2421,,79.6875,,,,,,FBP-RB-71.png,0.43,1.2,19,1,0,7,7,18,1,,,,,,,,,,,,,,,,,,,,,,,,,,,,,,,,,,,,,,,,
,,,,,WIN25_026,21,male,2024-02-01_12h16.41.618,jersey_experiment_5,2023.2.2,Win32,84.74576271,,,,,,,,,,,,,,,,237.8766,239.1707,239.1708,240.359,return,0.1569,,93.61979167,,,,,,FBP-PT-91.png,0.45,1.2,60,0.5,0,8,8,59,1,,,,,,,,,,,,,,,,,,,,,,,,,,,,,,,,,,,,,,,,
,,,,,WIN25_026,21,male,2024-02-01_12h16.41.618,jersey_experiment_5,2023.2.2,Win32,84.74576271,,,,,,,,,,,,,,,,240.3592,241.6531,241.6532,242.8061,return,0.2621,,25.78125,,,,,,FBP-OG-19.png,0.35,1.2,11,0.5,0,9,9,10,1,,,,,,,,,,,,,,,,,,,,,,,,,,,,,,,,,,,,,,,,
,,,,,WIN25_026,21,male,2024-02-01_12h16.41.618,jersey_experiment_5,2023.2.2,Win32,84.74576271,,,,,,,,,,,,,,,,242.8062,244.1002,244.1002,245.5002,return,0.4939,,74.21875,,,,,,FBP-PT-81.png,0.43,1.2,54,0.5,0,10,10,53,1,,,,,,,,,,,,,,,,,,,,,,,,,,,,,,,,,,,,,,,,
,,,,,WIN25_026,21,male,2024-02-01_12h16.41.618,jersey_experiment_5,2023.2.2,Win32,84.74576271,,,,,,,,,,,,,,,,245.5004,247.3005,247.3005,248.124,return,0.1785,,31.25,,,,,,FBP-RB-71.png,0.37,1.2,17,1,0,11,11,16,1,,,,,,,,,,,,,,,,,,,,,,,,,,,,,,,,,,,,,,,,
,,,,,WIN25_026,21,male,2024-02-01_12h16.41.618,jersey_experiment_5,2023.2.2,Win32,84.74576271,,,,,,,,,,,,,,,,248.1241,249.924,249.924,250.7239,return,0.2061,,76.5625,,,,,,FBP-RB-81.png,0.4,1.2,23,1,0,12,12,22,1,,,,,,,,,,,,,,,,,,,,,,,,,,,,,,,,,,,,,,,,
,,,,,WIN25_026,21,male,2024-02-01_12h16.41.618,jersey_experiment_5,2023.2.2,Win32,84.74576271,,,,,,,,,,,,,,,,250.7242,252.018,252.018,254.4771,return,1.3409,,58.85416667,,,,,,FBP-PT-81.png,0.37,1.2,52,0.5,0,13,13,51,1,,,,,,,,,,,,,,,,,,,,,,,,,,,,,,,,,,,,,,,,
,,,,,WIN25_026,21,male,2024-02-01_12h16.41.618,jersey_experiment_5,2023.2.2,Win32,84.74576271,,,,,,,,,,,,,,,,254.4773,256.2772,256.2772,257.5006,return,0.6929,,35.02604167,,,,,,FBP-RB-81.png,0.35,1.2,21,1,0,14,14,20,1,,,,,,,,,,,,,,,,,,,,,,,,,,,,,,,,,,,,,,,,
,,,,,WIN25_026,21,male,2024-02-01_12h16.41.618,jersey_experiment_5,2023.2.2,Win32,84.74576271,,,,,,,,,,,,,,,,257.5008,258.7948,258.7949,260.4067,return,0.2281,,46.09375,,,,,,FBP-OG-18.png,0.37,1.2,7,0.5,0,15,15,6,1,,,,,,,,,,,,,,,,,,,,,,,,,,,,,,,,,,,,,,,,
,,,,,WIN25_026,21,male,2024-02-01_12h16.41.618,jersey_experiment_5,2023.2.2,Win32,84.74576271,,,,,,,,,,,,,,,,260.4068,262.2067,262.2068,263.0185,return,0.1309,,77.99479167,,,,,,FBP-YG-18.png,0.45,1.2,40,1,0,16,16,39,1,,,,,,,,,,,,,,,,,,,,,,,,,,,,,,,,,,,,,,,,
,,,,,WIN25_026,21,male,2024-02-01_12h16.41.618,jersey_experiment_5,2023.2.2,Win32,84.74576271,,,,,,,,,,,,,,,,263.0187,264.8186,264.8187,265.6068,return,0.309,,82.03125,,,,,,FBP-RB-81.png,0.45,1.2,25,1,0,17,17,24,1,,,,,,,,,,,,,,,,,,,,,,,,,,,,,,,,,,,,,,,,
,,,,,WIN25_026,21,male,2024-02-01_12h16.41.618,jersey_experiment_5,2023.2.2,Win32,84.74576271,,,,,,,,,,,,,,,,265.607,266.901,266.901,269.148,return,0.2351,,59.375,,,,,,FBP-PT-71.png,0.37,1.2,47,0.5,0,18,18,46,1,,,,,,,,,,,,,,,,,,,,,,,,,,,,,,,,,,,,,,,,
,,,,,WIN25_026,21,male,2024-02-01_12h16.41.618,jersey_experiment_5,2023.2.2,Win32,84.74576271,,,,,,,,,,,,,,,,269.1481,270.4422,270.4422,271.8306,return,0.075,,69.79166667,,,,,,FBP-OG-17.png,0.4,1.2,3,0.5,0,19,19,2,1,,,,,,,,,,,,,,,,,,,,,,,,,,,,,,,,,,,,,,,,
,,,,,WIN25_026,21,male,2024-02-01_12h16.41.618,jersey_experiment_5,2023.2.2,Win32,84.74576271,,,,,,,,,,,,,,,,271.8308,273.6307,273.6307,274.7012,return,0.1992,,74.47916667,,,,,,FBP-YG-18.png,0.4,1.2,38,1,0,20,20,37,1,,,,,,,,,,,,,,,,,,,,,,,,,,,,,,,,,,,,,,,,
,,,,,WIN25_026,21,male,2024-02-01_12h16.41.618,jersey_experiment_5,2023.2.2,Win32,84.74576271,,,,,,,,,,,,,,,,274.7015,275.9955,275.9955,280.9838,return,0.4034,,61.328125,,,,,,FBP-OG-19.png,0.37,1.2,12,0.5,0,21,21,11,1,,,,,,,,,,,,,,,,,,,,,,,,,,,,,,,,,,,,,,,,
,,,,,WIN25_026,21,male,2024-02-01_12h16.41.618,jersey_experiment_5,2023.2.2,Win32,84.74576271,,,,,,,,,,,,,,,,280.984,282.7841,282.7841,284.0193,return,0.8314,,38.02083333,,,,,,FBP-RB-71.png,0.35,1.2,16,1,0,22,22,15,1,,,,,,,,,,,,,,,,,,,,,,,,,,,,,,,,,,,,,,,,
,,,,,WIN25_026,21,male,2024-02-01_12h16.41.618,jersey_experiment_5,2023.2.2,Win32,84.74576271,,,,,,,,,,,,,,,,284.0194,285.8194,285.8194,286.6311,return,0.1452,,65.625,,,,,,FBP-YG-17.png,0.45,1.2,35,1,0,23,23,34,1,,,,,,,,,,,,,,,,,,,,,,,,,,,,,,,,,,,,,,,,
,,,,,WIN25_026,21,male,2024-02-01_12h16.41.618,jersey_experiment_5,2023.2.2,Win32,84.74576271,,,,,,,,,,,,,,,,286.6313,287.9254,287.9254,289.1018,return,0.0808,,43.88020833,,,,,,FBP-OG-19.png,0.4,1.2,13,0.5,0,24,24,12,1,,,,,,,,,,,,,,,,,,,,,,,,,,,,,,,,,,,,,,,,
,,,,,WIN25_026,21,male,2024-02-01_12h16.41.618,jersey_experiment_5,2023.2.2,Win32,84.74576271,,,,,,,,,,,,,,,,289.102,290.9018,290.9018,292.0196,return,0.1123,,65.234375,,,,,,FBP-YG-19.png,0.4,1.2,43,1,0,25,25,42,1,,,,,,,,,,,,,,,,,,,,,,,,,,,,,,,,,,,,,,,,
,,,,,WIN25_026,21,male,2024-02-01_12h16.41.618,jersey_experiment_5,2023.2.2,Win32,84.74576271,,,,,,,,,,,,,,,,292.0198,293.3137,293.3137,294.1843,return,0.1304,,81.640625,,,,,,FBP-PT-71.png,0.45,1.2,50,0.5,0,26,26,49,1,,,,,,,,,,,,,,,,,,,,,,,,,,,,,,,,,,,,,,,,
,,,,,WIN25_026,21,male,2024-02-01_12h16.41.618,jersey_experiment_5,2023.2.2,Win32,84.74576271,,,,,,,,,,,,,,,,294.1845,295.9845,295.9845,296.6433,return,0.0993,,86.19791667,,,,,,FBP-RB-81.png,0.43,1.2,24,1,0,27,27,23,1,,,,,,,,,,,,,,,,,,,,,,,,,,,,,,,,,,,,,,,,
,,,,,WIN25_026,21,male,2024-02-01_12h16.41.618,jersey_experiment_5,2023.2.2,Win32,84.74576271,,,,,,,,,,,,,,,,296.6434,297.9374,297.9374,299.5256,return,0.8996,,80.98958333,,,,,,FBP-PT-91.png,0.43,1.2,59,0.5,0,28,28,58,1,,,,,,,,,,,,,,,,,,,,,,,,,,,,,,,,,,,,,,,,
,,,,,WIN25_026,21,male,2024-02-01_12h16.41.618,jersey_experiment_5,2023.2.2,Win32,84.74576271,,,,,,,,,,,,,,,,299.5258,300.8197,300.8197,301.6903,return,0.1742,,35.02604167,,,,,,FBP-PT-71.png,0.4,1.2,48,0.5,0,29,29,47,1,,,,,,,,,,,,,,,,,,,,,,,,,,,,,,,,,,,,,,,,
,,,,,WIN25_026,21,male,2024-02-01_12h16.41.618,jersey_experiment_5,2023.2.2,Win32,84.74576271,,,,,,,,,,,,,,,,301.6907,302.9846,302.9846,303.8904,return,0.1619,,71.22395833,,,,,,FBP-OG-17.png,0.45,1.2,5,0.5,0,30,30,4,1,,,,,,,,,,,,,,,,,,,,,,,,,,,,,,,,,,,,,,,,
,,,,,WIN25_026,21,male,2024-02-01_12h16.41.618,jersey_experiment_5,2023.2.2,Win32,84.74576271,,,,,,,,,,,,,,,,303.8906,305.1848,305.1848,305.9612,return,0.1899,,41.14583333,,,,,,FBP-OG-17.png,0.43,1.2,4,0.5,0,31,31,3,1,,,,,,,,,,,,,,,,,,,,,,,,,,,,,,,,,,,,,,,,
,,,,,WIN25_026,21,male,2024-02-01_12h16.41.618,jersey_experiment_5,2023.2.2,Win32,84.74576271,,,,,,,,,,,,,,,,305.9615,307.7613,307.7613,308.373,return,0.1108,,30.46875,,,,,,FBP-RB-71.png,0.4,1.2,18,1,0,32,32,17,1,,,,,,,,,,,,,,,,,,,,,,,,,,,,,,,,,,,,,,,,
,,,,,WIN25_026,21,male,2024-02-01_12h16.41.618,jersey_experiment_5,2023.2.2,Win32,84.74576271,,,,,,,,,,,,,,,,308.3732,310.173,310.1731,311.7026,return,0.0976,,63.02083333,,,,,,FBP-YG-18.png,0.35,1.2,36,1,0,33,33,35,1,,,,,,,,,,,,,,,,,,,,,,,,,,,,,,,,,,,,,,,,
,,,,,WIN25_026,21,male,2024-02-01_12h16.41.618,jersey_experiment_5,2023.2.2,Win32,84.74576271,,,,,,,,,,,,,,,,311.7029,312.9966,312.9966,313.8791,return,0.4748,,69.01041667,,,,,,FBP-OG-19.png,0.43,1.2,14,0.5,0,34,34,13,1,,,,,,,,,,,,,,,,,,,,,,,,,,,,,,,,,,,,,,,,
,,,,,WIN25_026,21,male,2024-02-01_12h16.41.618,jersey_experiment_5,2023.2.2,Win32,84.74576271,,,,,,,,,,,,,,,,313.8793,315.6793,315.6793,316.1027,return,0.097,,80.59895833,,,,,,FBP-YG-17.png,0.4,1.2,33,1,0,35,35,32,1,,,,,,,,,,,,,,,,,,,,,,,,,,,,,,,,,,,,,,,,
,,,,,WIN25_026,21,male,2024-02-01_12h16.41.618,jersey_experiment_5,2023.2.2,Win32,84.74576271,,,,,,,,,,,,,,,,316.103,317.9028,317.9028,319.5498,return,0.5642,,56.77083333,,,,,,FBP-YG-17.png,0.37,1.2,32,1,0,36,36,31,1,,,,,,,,,,,,,,,,,,,,,,,,,,,,,,,,,,,,,,,,
,,,,,WIN25_026,21,male,2024-02-01_12h16.41.618,jersey_experiment_5,2023.2.2,Win32,84.74576271,,,,,,,,,,,,,,,,319.5501,321.3502,321.3502,322.4676,return,0.7935,,73.95833333,,,,,,FBP-YG-19.png,0.43,1.2,44,1,0,37,37,43,1,,,,,,,,,,,,,,,,,,,,,,,,,,,,,,,,,,,,,,,,
,,,,,WIN25_026,21,male,2024-02-01_12h16.41.618,jersey_experiment_5,2023.2.2,Win32,84.74576271,,,,,,,,,,,,,,,,322.4678,323.7617,323.7617,324.9383,return,0.1181,,75.91145833,,,,,,FBP-PT-91.png,0.4,1.2,58,0.5,0,38,38,57,1,,,,,,,,,,,,,,,,,,,,,,,,,,,,,,,,,,,,,,,,
,,,,,WIN25_026,21,male,2024-02-01_12h16.41.618,jersey_experiment_5,2023.2.2,Win32,84.74576271,,,,,,,,,,,,,,,,324.9385,326.7384,326.7385,327.4443,return,0.1362,,72.00520833,,,,,,FBP-RB-91.png,0.4,1.2,28,1,0,39,39,27,1,,,,,,,,,,,,,,,,,,,,,,,,,,,,,,,,,,,,,,,,
,,,,,WIN25_026,21,male,2024-02-01_12h16.41.618,jersey_experiment_5,2023.2.2,Win32,84.74576271,,,,,,,,,,,,,,,,327.4445,329.2444,329.2445,329.9621,return,0.1305,,28.515625,,,,,,FBP-YG-19.png,0.35,1.2,41,1,0,40,40,40,1,,,,,,,,,,,,,,,,,,,,,,,,,,,,,,,,,,,,,,,,
,,,,,WIN25_026,21,male,2024-02-01_12h16.41.618,jersey_experiment_5,2023.2.2,Win32,84.74576271,,,,,,,,,,,,,,,,329.9623,331.7621,331.7621,332.5503,return,0.1676,,67.83854167,,,,,,FBP-YG-18.png,0.37,1.2,37,1,0,41,41,36,1,,,,,,,,,,,,,,,,,,,,,,,,,,,,,,,,,,,,,,,,
,,,,,WIN25_026,21,male,2024-02-01_12h16.41.618,jersey_experiment_5,2023.2.2,Win32,84.74576271,,,,,,,,,,,,,,,,332.5507,334.3504,334.3504,334.8563,return,0.1662,,83.46354167,,,,,,FBP-RB-91.png,0.45,1.2,30,1,0,42,42,29,1,,,,,,,,,,,,,,,,,,,,,,,,,,,,,,,,,,,,,,,,
,,,,,WIN25_026,21,male,2024-02-01_12h16.41.618,jersey_experiment_5,2023.2.2,Win32,84.74576271,,,,,,,,,,,,,,,,334.8565,336.1505,336.1505,336.8917,return,0.0808,,75.78125,,,,,,FBP-OG-18.png,0.43,1.2,9,0.5,0,43,43,8,1,,,,,,,,,,,,,,,,,,,,,,,,,,,,,,,,,,,,,,,,
,,,,,WIN25_026,21,male,2024-02-01_12h16.41.618,jersey_experiment_5,2023.2.2,Win32,84.74576271,,,,,,,,,,,,,,,,336.8918,338.692,338.692,340.6447,return,1.3452,,25.26041667,,,,,,FBP-YG-17.png,0.35,1.2,31,1,0,44,44,30,1,,,,,,,,,,,,,,,,,,,,,,,,,,,,,,,,,,,,,,,,
,,,,,WIN25_026,21,male,2024-02-01_12h16.41.618,jersey_experiment_5,2023.2.2,Win32,84.74576271,,,,,,,,,,,,,,,,340.645,341.939,341.939,343.3155,return,0.2196,,29.55729167,,,,,,FBP-PT-81.png,0.35,1.2,51,0.5,0,45,45,50,1,,,,,,,,,,,,,,,,,,,,,,,,,,,,,,,,,,,,,,,,
,,,,,WIN25_026,21,male,2024-02-01_12h16.41.618,jersey_experiment_5,2023.2.2,Win32,84.74576271,,,,,,,,,,,,,,,,343.3157,345.1156,345.1156,345.8331,return,0.0823,,22.265625,,,,,,FBP-RB-91.png,0.35,1.2,26,1,0,46,46,25,1,,,,,,,,,,,,,,,,,,,,,,,,,,,,,,,,,,,,,,,,
,,,,,WIN25_026,21,male,2024-02-01_12h16.41.618,jersey_experiment_5,2023.2.2,Win32,84.74576271,,,,,,,,,,,,,,,,345.8333,347.1273,347.1273,348.0215,return,0.0527,,34.375,,,,,,FBP-OG-18.png,0.4,1.2,8,0.5,0,47,47,7,1,,,,,,,,,,,,,,,,,,,,,,,,,,,,,,,,,,,,,,,,
,,,,,WIN25_026,21,male,2024-02-01_12h16.41.618,jersey_experiment_5,2023.2.2,Win32,84.74576271,,,,,,,,,,,,,,,,348.0216,349.3155,349.3155,351.5393,return,1.0314,,81.25,,,,,,FBP-OG-19.png,0.45,1.2,15,0.5,0,48,48,14,1,,,,,,,,,,,,,,,,,,,,,,,,,,,,,,,,,,,,,,,,
,,,,,WIN25_026,21,male,2024-02-01_12h16.41.618,jersey_experiment_5,2023.2.2,Win32,84.74576271,,,,,,,,,,,,,,,,351.5395,352.8334,352.8334,353.8805,return,0.1908,,26.953125,,,,,,FBP-OG-17.png,0.35,1.2,1,0.5,0,49,49,0,1,,,,,,,,,,,,,,,,,,,,,,,,,,,,,,,,,,,,,,,,
,,,,,WIN25_026,21,male,2024-02-01_12h16.41.618,jersey_experiment_5,2023.2.2,Win32,84.74576271,,,,,,,,,,,,,,,,353.8807,355.1746,355.1746,356.1394,return,0.3401,,66.14583333,,,,,,FBP-OG-18.png,0.45,1.2,10,0.5,0,50,50,9,1,,,,,,,,,,,,,,,,,,,,,,,,,,,,,,,,,,,,,,,,
,,,,,WIN25_026,21,male,2024-02-01_12h16.41.618,jersey_experiment_5,2023.2.2,Win32,84.74576271,,,,,,,,,,,,,,,,356.1396,357.4334,357.4334,358.4572,return,0.0608,,54.55729167,,,,,,FBP-PT-81.png,0.4,1.2,53,0.5,0,51,51,52,1,,,,,,,,,,,,,,,,,,,,,,,,,,,,,,,,,,,,,,,,
,,,,,WIN25_026,21,male,2024-02-01_12h16.41.618,jersey_experiment_5,2023.2.2,Win32,84.74576271,,,,,,,,,,,,,,,,358.4573,360.2571,360.2572,360.9631,return,0.1493,,64.19270833,,,,,,FBP-RB-91.png,0.43,1.2,29,1,0,52,52,28,1,,,,,,,,,,,,,,,,,,,,,,,,,,,,,,,,,,,,,,,,
,,,,,WIN25_026,21,male,2024-02-01_12h16.41.618,jersey_experiment_5,2023.2.2,Win32,84.74576271,,,,,,,,,,,,,,,,360.9633,362.2573,362.2573,364.5044,return,1.1908,,60.41666667,,,,,,FBP-OG-18.png,0.35,1.2,6,0.5,0,53,53,5,1,,,,,,,,,,,,,,,,,,,,,,,,,,,,,,,,,,,,,,,,
,,,,,WIN25_026,21,male,2024-02-01_12h16.41.618,jersey_experiment_5,2023.2.2,Win32,84.74576271,,,,,,,,,,,,,,,,364.5046,365.7985,365.7985,366.5162,return,0.1713,,72.39583333,,,,,,FBP-PT-81.png,0.45,1.2,55,0.5,0,54,54,54,1,,,,,,,,,,,,,,,,,,,,,,,,,,,,,,,,,,,,,,,,
,,,,,WIN25_026,21,male,2024-02-01_12h16.41.618,jersey_experiment_5,2023.2.2,Win32,84.74576271,,,,,,,,,,,,,,,,366.5163,367.8103,367.8103,368.6457,return,0.1917,,56.51041667,,,,,,FBP-PT-71.png,0.35,1.2,46,0.5,0,55,55,45,1,,,,,,,,,,,,,,,,,,,,,,,,,,,,,,,,,,,,,,,,
,,,,,WIN25_026,21,male,2024-02-01_12h16.41.618,jersey_experiment_5,2023.2.2,Win32,84.74576271,,,,,,,,,,,,,,,,368.6459,370.4457,370.4457,371.0692,return,0.1417,,71.875,,,,,,FBP-YG-17.png,0.43,1.2,34,1,0,56,56,33,1,,,,,,,,,,,,,,,,,,,,,,,,,,,,,,,,,,,,,,,,
,,,,,WIN25_026,21,male,2024-02-01_12h16.41.618,jersey_experiment_5,2023.2.2,Win32,84.74576271,,,,,,,,,,,,,,,,371.0695,372.8694,372.8694,373.7165,return,0.0404,,78.90625,,,,,,FBP-YG-19.png,0.45,1.2,45,1,0,57,57,44,1,,,,,,,,,,,,,,,,,,,,,,,,,,,,,,,,,,,,,,,,
,,,,,WIN25_026,21,male,2024-02-01_12h16.41.618,jersey_experiment_5,2023.2.2,Win32,84.74576271,,,,,,,,,,,,,,,,373.7167,375.5165,375.5165,376.6459,return,0.874,,75.52083333,,,,,,FBP-YG-18.png,0.43,1.2,39,1,0,58,58,38,1,,,,,,,,,,,,,,,,,,,,,,,,,,,,,,,,,,,,,,,,
,,,,,WIN25_026,21,male,2024-02-01_12h16.41.618,jersey_experiment_5,2023.2.2,Win32,84.74576271,,,,,,,,,,,,,,,,376.6461,377.9403,377.9404,379.0106,return,0.1837,,31.38020833,,,,,,FBP-OG-17.png,0.37,1.2,2,0.5,0,59,59,1,1,,,,,,,,,,,,,,,,,,,,,,,,,,,,,,,,,,,,,,,,
,,,,,WIN25_026,21,male,2024-02-01_12h16.41.618,jersey_experiment_5,2023.2.2,Win32,84.74576271,,,,,,,,,,,,,,,,,,,,,,,,,,,,,,,,,,,,,,,379.011,499.0154,,,,,,,,,,,,,,,,,,,,,,,,,,,,,,,,,,,,,,
,,,,,WIN25_026,21,male,2024-02-01_12h16.41.618,jersey_experiment_5,2023.2.2,Win32,84.74576271,,,,,,,,,,,,,,,,,,,,,,,,,,,,,,,,,,,,,,,,,499.0155,503.4272,return,4.4069,,,,,,,,,,,,,,,,,,,,,,,,,,,,,,,,,,
,,,,,WIN25_026,21,male,2024-02-01_12h16.41.618,jersey_experiment_5,2023.2.2,Win32,84.74576271,,,,,,,,,,,,,,,,503.4334,505.227,505.227,506.7564,return,0.817,,36.19791667,,,,,,FBP-OG-81.png,0.37,1.2,7,1,,,,,,,,,,,,,0,0,0,6,1,,,,,,,,,,,,,,,,,,,,,,,,,,,,
,,,,,WIN25_026,21,male,2024-02-01_12h16.41.618,jersey_experiment_5,2023.2.2,Win32,84.74576271,,,,,,,,,,,,,,,,506.7565,508.5568,508.5568,509.5094,return,0.147,,42.83854167,,,,,,FBP-PT-17.png,0.4,1.2,48,1,,,,,,,,,,,,,0,1,1,47,1,,,,,,,,,,,,,,,,,,,,,,,,,,,,
,,,,,WIN25_026,21,male,2024-02-01_12h16.41.618,jersey_experiment_5,2023.2.2,Win32,84.74576271,,,,,,,,,,,,,,,,509.5097,511.3097,511.3098,512.4272,return,0.4817,,20.83333333,,,,,,FBP-OG-81.png,0.35,1.2,6,1,,,,,,,,,,,,,0,2,2,5,1,,,,,,,,,,,,,,,,,,,,,,,,,,,,
,,,,,WIN25_026,21,male,2024-02-01_12h16.41.618,jersey_experiment_5,2023.2.2,Win32,84.74576271,,,,,,,,,,,,,,,,512.4275,513.7213,513.7214,514.8509,return,0.4187,,63.671875,,,,,,FBP-RB-17.png,0.43,1.2,19,0.5,,,,,,,,,,,,,0,3,3,18,1,,,,,,,,,,,,,,,,,,,,,,,,,,,,
,,,,,WIN25_026,21,male,2024-02-01_12h16.41.618,jersey_experiment_5,2023.2.2,Win32,84.74576271,,,,,,,,,,,,,,,,514.851,516.1449,516.1449,517.3333,return,0.0644,,41.66666667,,,,,,FBP-YG-81.png,0.37,1.2,37,0.5,,,,,,,,,,,,,0,4,4,36,1,,,,,,,,,,,,,,,,,,,,,,,,,,,,
,,,,,WIN25_026,21,male,2024-02-01_12h16.41.618,jersey_experiment_5,2023.2.2,Win32,84.74576271,,,,,,,,,,,,,,,,517.3335,519.1332,519.1332,519.4981,return,0.2492,,33.85416667,,,,,,FBP-PT-17.png,0.35,1.2,46,1,,,,,,,,,,,,,0,5,5,45,1,,,,,,,,,,,,,,,,,,,,,,,,,,,,
,,,,,WIN25_026,21,male,2024-02-01_12h16.41.618,jersey_experiment_5,2023.2.2,Win32,84.74576271,,,,,,,,,,,,,,,,519.4983,520.7923,520.7923,521.8745,return,0.2083,,71.74479167,,,,,,FBP-YG-91.png,0.45,1.2,45,0.5,,,,,,,,,,,,,0,6,6,44,1,,,,,,,,,,,,,,,,,,,,,,,,,,,,
,,,,,WIN25_026,21,male,2024-02-01_12h16.41.618,jersey_experiment_5,2023.2.2,Win32,84.74576271,,,,,,,,,,,,,,,,521.8746,523.1688,523.1688,524.3924,return,0.0852,,35.546875,,,,,,FBP-YG-71.png,0.35,1.2,31,0.5,,,,,,,,,,,,,0,7,7,30,1,,,,,,,,,,,,,,,,,,,,,,,,,,,,
,,,,,WIN25_026,21,male,2024-02-01_12h16.41.618,jersey_experiment_5,2023.2.2,Win32,84.74576271,,,,,,,,,,,,,,,,524.3926,526.1925,526.1925,527.3336,return,0.5441,,58.85416667,,,,,,FBP-PT-19.png,0.4,1.2,58,1,,,,,,,,,,,,,0,8,8,57,1,,,,,,,,,,,,,,,,,,,,,,,,,,,,
,,,,,WIN25_026,21,male,2024-02-01_12h16.41.618,jersey_experiment_5,2023.2.2,Win32,84.74576271,,,,,,,,,,,,,,,,527.3338,528.6279,528.6279,530.8514,return,1.3958,,38.80208333,,,,,,FBP-RB-17.png,0.35,1.2,16,0.5,,,,,,,,,,,,,0,9,9,15,1,,,,,,,,,,,,,,,,,,,,,,,,,,,,
,,,,,WIN25_026,21,male,2024-02-01_12h16.41.618,jersey_experiment_5,2023.2.2,Win32,84.74576271,,,,,,,,,,,,,,,,530.8515,532.6517,532.6517,533.3809,return,0.169,,76.04166667,,,,,,FBP-OG-71.png,0.45,1.2,5,1,,,,,,,,,,,,,0,10,10,4,1,,,,,,,,,,,,,,,,,,,,,,,,,,,,
,,,,,WIN25_026,21,male,2024-02-01_12h16.41.618,jersey_experiment_5,2023.2.2,Win32,84.74576271,,,,,,,,,,,,,,,,533.3811,534.6751,534.6751,536.3456,return,0.1788,,28.90625,,,,,,FBP-YG-81.png,0.35,1.2,36,0.5,,,,,,,,,,,,,0,11,11,35,1,,,,,,,,,,,,,,,,,,,,,,,,,,,,
,,,,,WIN25_026,21,male,2024-02-01_12h16.41.618,jersey_experiment_5,2023.2.2,Win32,84.74576271,,,,,,,,,,,,,,,,536.3459,538.1457,538.1458,538.8399,return,0.1666,,40.88541667,,,,,,FBP-PT-17.png,0.37,1.2,47,1,,,,,,,,,,,,,0,12,12,46,1,,,,,,,,,,,,,,,,,,,,,,,,,,,,
,,,,,WIN25_026,21,male,2024-02-01_12h16.41.618,jersey_experiment_5,2023.2.2,Win32,84.74576271,,,,,,,,,,,,,,,,538.8401,540.6399,540.6399,541.8048,return,0.1305,,44.79166667,,,,,,FBP-OG-91.png,0.37,1.2,12,1,,,,,,,,,,,,,0,13,13,11,1,,,,,,,,,,,,,,,,,,,,,,,,,,,,
,,,,,WIN25_026,21,male,2024-02-01_12h16.41.618,jersey_experiment_5,2023.2.2,Win32,84.74576271,,,,,,,,,,,,,,,,541.805,543.0989,543.099,544.1813,return,0.1451,,29.94791667,,,,,,FBP-RB-19.png,0.35,1.2,26,0.5,,,,,,,,,,,,,0,14,14,25,1,,,,,,,,,,,,,,,,,,,,,,,,,,,,
,,,,,WIN25_026,21,male,2024-02-01_12h16.41.618,jersey_experiment_5,2023.2.2,Win32,84.74576271,,,,,,,,,,,,,,,,544.1815,545.4755,545.4755,547.852,return,0.1543,,38.02083333,,,,,,FBP-RB-17.png,0.37,1.2,17,0.5,,,,,,,,,,,,,0,15,15,16,1,,,,,,,,,,,,,,,,,,,,,,,,,,,,
,,,,,WIN25_026,21,male,2024-02-01_12h16.41.618,jersey_experiment_5,2023.2.2,Win32,84.74576271,,,,,,,,,,,,,,,,547.8523,549.1462,549.1462,550.4874,return,0.4259,,19.66145833,,,,,,FBP-YG-91.png,0.35,1.2,41,0.5,,,,,,,,,,,,,0,16,16,40,1,,,,,,,,,,,,,,,,,,,,,,,,,,,,
,,,,,WIN25_026,21,male,2024-02-01_12h16.41.618,jersey_experiment_5,2023.2.2,Win32,84.74576271,,,,,,,,,,,,,,,,550.4876,552.2874,552.2874,552.9462,return,0.0557,,73.69791667,,,,,,FBP-OG-91.png,0.45,1.2,15,1,,,,,,,,,,,,,0,17,17,14,1,,,,,,,,,,,,,,,,,,,,,,,,,,,,
,,,,,WIN25_026,21,male,2024-02-01_12h16.41.618,jersey_experiment_5,2023.2.2,Win32,84.74576271,,,,,,,,,,,,,,,,552.9463,554.2405,554.2405,555.6994,return,0.1125,,64.97395833,,,,,,FBP-YG-91.png,0.43,1.2,44,0.5,,,,,,,,,,,,,0,18,18,43,1,,,,,,,,,,,,,,,,,,,,,,,,,,,,
,,,,,WIN25_026,21,male,2024-02-01_12h16.41.618,jersey_experiment_5,2023.2.2,Win32,84.74576271,,,,,,,,,,,,,,,,555.6995,556.9935,556.9935,558.2289,return,0.0275,,50.26041667,,,,,,FBP-RB-19.png,0.37,1.2,27,0.5,,,,,,,,,,,,,0,19,19,26,1,,,,,,,,,,,,,,,,,,,,,,,,,,,,
,,,,,WIN25_026,21,male,2024-02-01_12h16.41.618,jersey_experiment_5,2023.2.2,Win32,84.74576271,,,,,,,,,,,,,,,,558.2291,559.523,559.5231,560.123,return,0.0804,,50.26041667,,,,,,FBP-RB-18.png,0.37,1.2,22,0.5,,,,,,,,,,,,,0,20,20,21,1,,,,,,,,,,,,,,,,,,,,,,,,,,,,
,,,,,WIN25_026,21,male,2024-02-01_12h16.41.618,jersey_experiment_5,2023.2.2,Win32,84.74576271,,,,,,,,,,,,,,,,560.1231,561.4172,561.4172,562.3584,return,0.4153,,50.26041667,,,,,,FBP-YG-71.png,0.37,1.2,32,0.5,,,,,,,,,,,,,0,21,21,31,1,,,,,,,,,,,,,,,,,,,,,,,,,,,,
,,,,,WIN25_026,21,male,2024-02-01_12h16.41.618,jersey_experiment_5,2023.2.2,Win32,84.74576271,,,,,,,,,,,,,,,,562.3585,563.6526,563.6526,564.3232,return,0.1472,,50.26041667,,,,,,FBP-YG-91.png,0.4,1.2,43,0.5,,,,,,,,,,,,,0,22,22,42,1,,,,,,,,,,,,,,,,,,,,,,,,,,,,
,,,,,WIN25_026,21,male,2024-02-01_12h16.41.618,jersey_experiment_5,2023.2.2,Win32,84.74576271,,,,,,,,,,,,,,,,564.3234,566.1231,566.1232,567.6056,return,0.7348,,63.28125,,,,,,FBP-OG-71.png,0.37,1.2,2,1,,,,,,,,,,,,,0,23,23,1,1,,,,,,,,,,,,,,,,,,,,,,,,,,,,
,,,,,WIN25_026,21,male,2024-02-01_12h16.41.618,jersey_experiment_5,2023.2.2,Win32,84.74576271,,,,,,,,,,,,,,,,567.6058,568.8998,568.8998,569.6998,return,0.1718,,75.78125,,,,,,FBP-YG-71.png,0.43,1.2,34,0.5,,,,,,,,,,,,,0,24,24,33,1,,,,,,,,,,,,,,,,,,,,,,,,,,,,
,,,,,WIN25_026,21,male,2024-02-01_12h16.41.618,jersey_experiment_5,2023.2.2,Win32,84.74576271,,,,,,,,,,,,,,,,569.7001,571.5,571.5,572.8058,return,0.1092,,37.23958333,,,,,,FBP-PT-18.png,0.37,1.2,52,1,,,,,,,,,,,,,0,25,25,51,1,,,,,,,,,,,,,,,,,,,,,,,,,,,,
,,,,,WIN25_026,21,male,2024-02-01_12h16.41.618,jersey_experiment_5,2023.2.2,Win32,84.74576271,,,,,,,,,,,,,,,,572.8059,574.606,574.6061,575.8294,return,0.5452,,51.953125,,,,,,FBP-OG-81.png,0.4,1.2,8,1,,,,,,,,,,,,,0,26,26,7,1,,,,,,,,,,,,,,,,,,,,,,,,,,,,
,,,,,WIN25_026,21,male,2024-02-01_12h16.41.618,jersey_experiment_5,2023.2.2,Win32,84.74576271,,,,,,,,,,,,,,,,575.8296,577.1236,577.1237,578.3943,return,0.6579,,74.08854167,,,,,,FBP-RB-18.png,0.43,1.2,24,0.5,,,,,,,,,,,,,0,27,27,23,1,,,,,,,,,,,,,,,,,,,,,,,,,,,,
,,,,,WIN25_026,21,male,2024-02-01_12h16.41.618,jersey_experiment_5,2023.2.2,Win32,84.74576271,,,,,,,,,,,,,,,,578.3945,579.6883,579.6883,581.7355,return,0.1328,,44.66145833,,,,,,FBP-RB-19.png,0.4,1.2,28,0.5,,,,,,,,,,,,,0,28,28,27,1,,,,,,,,,,,,,,,,,,,,,,,,,,,,
,,,,,WIN25_026,21,male,2024-02-01_12h16.41.618,jersey_experiment_5,2023.2.2,Win32,84.74576271,,,,,,,,,,,,,,,,581.7357,583.5357,583.5358,584.265,return,0.0817,,17.44791667,,,,,,FBP-PT-19.png,0.35,1.2,56,1,,,,,,,,,,,,,0,29,29,55,1,,,,,,,,,,,,,,,,,,,,,,,,,,,,
,,,,,WIN25_026,21,male,2024-02-01_12h16.41.618,jersey_experiment_5,2023.2.2,Win32,84.74576271,,,,,,,,,,,,,,,,584.2651,586.0653,586.0654,587.0535,return,0.0233,,49.34895833,,,,,,FBP-OG-71.png,0.4,1.2,3,1,,,,,,,,,,,,,0,30,30,2,1,,,,,,,,,,,,,,,,,,,,,,,,,,,,
,,,,,WIN25_026,21,male,2024-02-01_12h16.41.618,jersey_experiment_5,2023.2.2,Win32,84.74576271,,,,,,,,,,,,,,,,587.0537,588.3475,588.3475,589.7476,return,0.5246,,42.31770833,,,,,,FBP-RB-18.png,0.35,1.2,21,0.5,,,,,,,,,,,,,0,31,31,20,1,,,,,,,,,,,,,,,,,,,,,,,,,,,,
,,,,,WIN25_026,21,male,2024-02-01_12h16.41.618,jersey_experiment_5,2023.2.2,Win32,84.74576271,,,,,,,,,,,,,,,,589.7477,591.0417,591.0418,592.136,return,0.4009,,63.93229167,,,,,,FBP-RB-18.png,0.4,1.2,23,0.5,,,,,,,,,,,,,0,32,32,22,1,,,,,,,,,,,,,,,,,,,,,,,,,,,,
,,,,,WIN25_026,21,male,2024-02-01_12h16.41.618,jersey_experiment_5,2023.2.2,Win32,84.74576271,,,,,,,,,,,,,,,,592.1362,593.9361,593.9361,594.6183,return,0.2124,,75.78125,,,,,,FBP-OG-81.png,0.43,1.2,9,1,,,,,,,,,,,,,0,33,33,8,1,,,,,,,,,,,,,,,,,,,,,,,,,,,,
,,,,,WIN25_026,21,male,2024-02-01_12h16.41.618,jersey_experiment_5,2023.2.2,Win32,84.74576271,,,,,,,,,,,,,,,,594.6185,596.4185,596.4185,597.0654,return,0.0826,,76.82291667,,,,,,FBP-PT-19.png,0.43,1.2,59,1,,,,,,,,,,,,,0,34,34,58,1,,,,,,,,,,,,,,,,,,,,,,,,,,,,
,,,,,WIN25_026,21,male,2024-02-01_12h16.41.618,jersey_experiment_5,2023.2.2,Win32,84.74576271,,,,,,,,,,,,,,,,597.0657,598.8658,598.8659,599.7008,return,0.1002,,26.69270833,,,,,,FBP-PT-18.png,0.35,1.2,51,1,,,,,,,,,,,,,0,35,35,50,1,,,,,,,,,,,,,,,,,,,,,,,,,,,,
,,,,,WIN25_026,21,male,2024-02-01_12h16.41.618,jersey_experiment_5,2023.2.2,Win32,84.74576271,,,,,,,,,,,,,,,,599.7011,600.9951,600.9951,602.1834,return,0.4482,,89.32291667,,,,,,FBP-RB-19.png,0.45,1.2,30,0.5,,,,,,,,,,,,,0,36,36,29,1,,,,,,,,,,,,,,,,,,,,,,,,,,,,
,,,,,WIN25_026,21,male,2024-02-01_12h16.41.618,jersey_experiment_5,2023.2.2,Win32,84.74576271,,,,,,,,,,,,,,,,602.1836,603.4777,603.4777,604.2187,return,0.1041,,82.03125,,,,,,FBP-YG-71.png,0.4,1.2,33,0.5,,,,,,,,,,,,,0,37,37,32,1,,,,,,,,,,,,,,,,,,,,,,,,,,,,
,,,,,WIN25_026,21,male,2024-02-01_12h16.41.618,jersey_experiment_5,2023.2.2,Win32,84.74576271,,,,,,,,,,,,,,,,604.2189,605.513,605.513,608.6188,return,0.1047,,58.59375,,,,,,FBP-YG-91.png,0.37,1.2,42,0.5,,,,,,,,,,,,,0,38,38,41,1,,,,,,,,,,,,,,,,,,,,,,,,,,,,
,,,,,WIN25_026,21,male,2024-02-01_12h16.41.618,jersey_experiment_5,2023.2.2,Win32,84.74576271,,,,,,,,,,,,,,,,608.619,610.4192,610.4192,610.9366,return,0.0703,,75,,,,,,FBP-OG-81.png,0.45,1.2,10,1,,,,,,,,,,,,,0,39,39,9,1,,,,,,,,,,,,,,,,,,,,,,,,,,,,
,,,,,WIN25_026,21,male,2024-02-01_12h16.41.618,jersey_experiment_5,2023.2.2,Win32,84.74576271,,,,,,,,,,,,,,,,610.9368,612.7367,612.7367,613.5249,return,0.0647,,77.08333333,,,,,,FBP-PT-18.png,0.43,1.2,54,1,,,,,,,,,,,,,0,40,40,53,1,,,,,,,,,,,,,,,,,,,,,,,,,,,,
,,,,,WIN25_026,21,male,2024-02-01_12h16.41.618,jersey_experiment_5,2023.2.2,Win32,84.74576271,,,,,,,,,,,,,,,,613.5252,614.819,614.819,616.1839,return,0.1192,,75.13020833,,,,,,FBP-YG-81.png,0.4,1.2,38,0.5,,,,,,,,,,,,,0,41,41,37,1,,,,,,,,,,,,,,,,,,,,,,,,,,,,
,,,,,WIN25_026,21,male,2024-02-01_12h16.41.618,jersey_experiment_5,2023.2.2,Win32,84.74576271,,,,,,,,,,,,,,,,616.1841,617.478,617.478,618.3487,return,0.0717,,82.8125,,,,,,FBP-YG-81.png,0.45,1.2,40,0.5,,,,,,,,,,,,,0,42,42,39,1,,,,,,,,,,,,,,,,,,,,,,,,,,,,
,,,,,WIN25_026,21,male,2024-02-01_12h16.41.618,jersey_experiment_5,2023.2.2,Win32,84.74576271,,,,,,,,,,,,,,,,618.3489,620.1486,620.1487,621.3251,return,0.0802,,72.78645833,,,,,,FBP-OG-91.png,0.43,1.2,14,1,,,,,,,,,,,,,0,43,43,13,1,,,,,,,,,,,,,,,,,,,,,,,,,,,,
,,,,,WIN25_026,21,male,2024-02-01_12h16.41.618,jersey_experiment_5,2023.2.2,Win32,84.74576271,,,,,,,,,,,,,,,,621.3254,622.6193,622.6194,623.5489,return,0.1657,,76.953125,,,,,,FBP-YG-81.png,0.43,1.2,39,0.5,,,,,,,,,,,,,0,44,44,38,1,,,,,,,,,,,,,,,,,,,,,,,,,,,,
,,,,,WIN25_026,21,male,2024-02-01_12h16.41.618,jersey_experiment_5,2023.2.2,Win32,84.74576271,,,,,,,,,,,,,,,,623.5491,624.8431,624.8431,626.1958,return,0.0407,,83.33333333,,,,,,FBP-RB-19.png,0.43,1.2,29,0.5,,,,,,,,,,,,,0,45,45,28,1,,,,,,,,,,,,,,,,,,,,,,,,,,,,
,,,,,WIN25_026,21,male,2024-02-01_12h16.41.618,jersey_experiment_5,2023.2.2,Win32,84.74576271,,,,,,,,,,,,,,,,626.1961,627.9962,627.9962,628.6195,return,0.1885,,71.09375,,,,,,FBP-PT-17.png,0.43,1.2,49,1,,,,,,,,,,,,,0,46,46,48,1,,,,,,,,,,,,,,,,,,,,,,,,,,,,
,,,,,WIN25_026,21,male,2024-02-01_12h16.41.618,jersey_experiment_5,2023.2.2,Win32,84.74576271,,,,,,,,,,,,,,,,628.6198,629.9136,629.9136,631.1491,return,0.0477,,54.296875,,,,,,FBP-RB-17.png,0.4,1.2,18,0.5,,,,,,,,,,,,,0,47,47,17,1,,,,,,,,,,,,,,,,,,,,,,,,,,,,
,,,,,WIN25_026,21,male,2024-02-01_12h16.41.618,jersey_experiment_5,2023.2.2,Win32,84.74576271,,,,,,,,,,,,,,,,631.1493,632.9491,632.9491,633.5727,return,0.1592,,58.46354167,,,,,,FBP-OG-91.png,0.4,1.2,13,1,,,,,,,,,,,,,0,48,48,12,1,,,,,,,,,,,,,,,,,,,,,,,,,,,,
,,,,,WIN25_026,21,male,2024-02-01_12h16.41.618,jersey_experiment_5,2023.2.2,Win32,84.74576271,,,,,,,,,,,,,,,,633.5729,635.3727,635.3727,636.808,return,0.0841,,72.13541667,,,,,,FBP-PT-18.png,0.45,1.2,55,1,,,,,,,,,,,,,0,49,49,54,1,,,,,,,,,,,,,,,,,,,,,,,,,,,,
,,,,,WIN25_026,21,male,2024-02-01_12h16.41.618,jersey_experiment_5,2023.2.2,Win32,84.74576271,,,,,,,,,,,,,,,,636.8082,638.6083,638.6083,639.6081,return,0.1774,,26.82291667,,,,,,FBP-OG-91.png,0.35,1.2,11,1,,,,,,,,,,,,,0,50,50,10,1,,,,,,,,,,,,,,,,,,,,,,,,,,,,
,,,,,WIN25_026,21,male,2024-02-01_12h16.41.618,jersey_experiment_5,2023.2.2,Win32,84.74576271,,,,,,,,,,,,,,,,639.6083,640.9023,640.9023,642.22,return,0.0942,,76.82291667,,,,,,FBP-YG-71.png,0.45,1.2,35,0.5,,,,,,,,,,,,,0,51,51,34,1,,,,,,,,,,,,,,,,,,,,,,,,,,,,
,,,,,WIN25_026,21,male,2024-02-01_12h16.41.618,jersey_experiment_5,2023.2.2,Win32,84.74576271,,,,,,,,,,,,,,,,642.2201,644.0203,644.0203,644.5849,return,0.3533,,83.59375,,,,,,FBP-PT-19.png,0.45,1.2,60,1,,,,,,,,,,,,,0,52,52,59,1,,,,,,,,,,,,,,,,,,,,,,,,,,,,
,,,,,WIN25_026,21,male,2024-02-01_12h16.41.618,jersey_experiment_5,2023.2.2,Win32,84.74576271,,,,,,,,,,,,,,,,644.5851,646.3849,646.3849,647.0907,return,0.0786,,78.25520833,,,,,,FBP-OG-71.png,0.43,1.2,4,1,,,,,,,,,,,,,0,53,53,3,1,,,,,,,,,,,,,,,,,,,,,,,,,,,,
,,,,,WIN25_026,21,male,2024-02-01_12h16.41.618,jersey_experiment_5,2023.2.2,Win32,84.74576271,,,,,,,,,,,,,,,,647.091,648.8909,648.8909,649.9733,return,0.0987,,82.03125,,,,,,FBP-PT-17.png,0.45,1.2,50,1,,,,,,,,,,,,,0,54,54,49,1,,,,,,,,,,,,,,,,,,,,,,,,,,,,
,,,,,WIN25_026,21,male,2024-02-01_12h16.41.618,jersey_experiment_5,2023.2.2,Win32,84.74576271,,,,,,,,,,,,,,,,649.9736,651.7734,651.7734,652.5851,return,0.0934,,28.38541667,,,,,,FBP-PT-19.png,0.37,1.2,57,1,,,,,,,,,,,,,0,55,55,56,1,,,,,,,,,,,,,,,,,,,,,,,,,,,,
,,,,,WIN25_026,21,male,2024-02-01_12h16.41.618,jersey_experiment_5,2023.2.2,Win32,84.74576271,,,,,,,,,,,,,,,,652.5853,653.8792,653.8792,654.9734,return,0.1179,,82.55208333,,,,,,FBP-RB-18.png,0.45,1.2,25,0.5,,,,,,,,,,,,,0,56,56,24,1,,,,,,,,,,,,,,,,,,,,,,,,,,,,
,,,,,WIN25_026,21,male,2024-02-01_12h16.41.618,jersey_experiment_5,2023.2.2,Win32,84.74576271,,,,,,,,,,,,,,,,654.9735,656.7737,656.7737,657.6677,return,0.0761,,26.82291667,,,,,,FBP-PT-18.png,0.4,1.2,53,1,,,,,,,,,,,,,0,57,57,52,1,,,,,,,,,,,,,,,,,,,,,,,,,,,,
,,,,,WIN25_026,21,male,2024-02-01_12h16.41.618,jersey_experiment_5,2023.2.2,Win32,84.74576271,,,,,,,,,,,,,,,,657.6678,659.4678,659.4678,660.0088,return,0.1059,,14.32291667,,,,,,FBP-OG-71.png,0.35,1.2,1,1,,,,,,,,,,,,,0,58,58,0,1,,,,,,,,,,,,,,,,,,,,,,,,,,,,
,,,,,WIN25_026,21,male,2024-02-01_12h16.41.618,jersey_experiment_5,2023.2.2,Win32,84.74576271,,,,,,,,,,,,,,,,660.0091,661.303,661.303,662.2678,return,0.1415,,76.5625,,,,,,FBP-RB-17.png,0.45,1.2,20,0.5,,,,,,,,,,,,,0,59,59,19,1,,,,,,,,,,,,,,,,,,,,,,,,,,,,
,,,,,WIN25_026,21,male,2024-02-01_12h16.41.618,jersey_experiment_5,2023.2.2,Win32,84.74576271,,,,,,,,,,,,,,,,662.2693,664.068,664.068,667.6445,return,0.2109,,51.30208333,,,,,,FBP-PT-81.png,0.37,1.2,52,1,,,,,,,,,,,,,,,,,,0,0,0,51,1,,,,,,,,,,,,,,,,,,,,,,,
,,,,,WIN25_026,21,male,2024-02-01_12h16.41.618,jersey_experiment_5,2023.2.2,Win32,84.74576271,,,,,,,,,,,,,,,,667.6447,668.9387,668.9388,669.6211,return,0.1821,,72.78645833,,,,,,FBP-RB-91.png,0.45,1.2,30,0.5,,,,,,,,,,,,,,,,,,0,1,1,29,1,,,,,,,,,,,,,,,,,,,,,,,
,,,,,WIN25_026,21,male,2024-02-01_12h16.41.618,jersey_experiment_5,2023.2.2,Win32,84.74576271,,,,,,,,,,,,,,,,669.6212,671.4212,671.4212,671.974,return,0.1212,,28.64583333,,,,,,FBP-OG-18.png,0.37,1.2,7,1,,,,,,,,,,,,,,,,,,0,2,2,6,1,,,,,,,,,,,,,,,,,,,,,,,
,,,,,WIN25_026,21,male,2024-02-01_12h16.41.618,jersey_experiment_5,2023.2.2,Win32,84.74576271,,,,,,,,,,,,,,,,671.9743,673.2682,673.2682,674.5977,return,0.0754,,73.4375,,,,,,FBP-RB-81.png,0.4,1.2,23,0.5,,,,,,,,,,,,,,,,,,0,3,3,22,1,,,,,,,,,,,,,,,,,,,,,,,
,,,,,WIN25_026,21,male,2024-02-01_12h16.41.618,jersey_experiment_5,2023.2.2,Win32,84.74576271,,,,,,,,,,,,,,,,674.5978,675.8917,675.8917,677.786,return,1.0484,,70.83333333,,,,,,FBP-YG-17.png,0.45,1.2,35,0.5,,,,,,,,,,,,,,,,,,0,4,4,34,1,,,,,,,,,,,,,,,,,,,,,,,
,,,,,WIN25_026,21,male,2024-02-01_12h16.41.618,jersey_experiment_5,2023.2.2,Win32,84.74576271,,,,,,,,,,,,,,,,677.7862,679.0802,679.0802,680.0685,return,0.1828,,28.515625,,,,,,FBP-YG-18.png,0.35,1.2,36,0.5,,,,,,,,,,,,,,,,,,0,5,5,35,1,,,,,,,,,,,,,,,,,,,,,,,
,,,,,WIN25_026,21,male,2024-02-01_12h16.41.618,jersey_experiment_5,2023.2.2,Win32,84.74576271,,,,,,,,,,,,,,,,680.0687,681.3626,681.3626,682.445,return,0.0952,,71.09375,,,,,,FBP-YG-17.png,0.4,1.2,33,0.5,,,,,,,,,,,,,,,,,,0,6,6,32,1,,,,,,,,,,,,,,,,,,,,,,,
,,,,,WIN25_026,21,male,2024-02-01_12h16.41.618,jersey_experiment_5,2023.2.2,Win32,84.74576271,,,,,,,,,,,,,,,,682.4453,684.2452,684.2452,684.8687,return,0.0986,,19.140625,,,,,,FBP-PT-91.png,0.35,1.2,56,1,,,,,,,,,,,,,,,,,,0,7,7,55,1,,,,,,,,,,,,,,,,,,,,,,,
,,,,,WIN25_026,21,male,2024-02-01_12h16.41.618,jersey_experiment_5,2023.2.2,Win32,84.74576271,,,,,,,,,,,,,,,,684.8689,686.1627,686.1627,686.951,return,0.027,,16.796875,,,,,,FBP-RB-71.png,0.37,1.2,17,0.5,,,,,,,,,,,,,,,,,,0,8,8,16,1,,,,,,,,,,,,,,,,,,,,,,,
,,,,,WIN25_026,21,male,2024-02-01_12h16.41.618,jersey_experiment_5,2023.2.2,Win32,84.74576271,,,,,,,,,,,,,,,,686.9511,688.2451,688.2452,688.9511,return,0.0741,,63.80208333,,,,,,FBP-YG-18.png,0.45,1.2,40,0.5,,,,,,,,,,,,,,,,,,0,9,9,39,1,,,,,,,,,,,,,,,,,,,,,,,
,,,,,WIN25_026,21,male,2024-02-01_12h16.41.618,jersey_experiment_5,2023.2.2,Win32,84.74576271,,,,,,,,,,,,,,,,688.9512,690.2451,690.2451,691.21,return,0.105,,55.33854167,,,,,,FBP-YG-18.png,0.4,1.2,38,0.5,,,,,,,,,,,,,,,,,,0,10,10,37,1,,,,,,,,,,,,,,,,,,,,,,,
,,,,,WIN25_026,21,male,2024-02-01_12h16.41.618,jersey_experiment_5,2023.2.2,Win32,84.74576271,,,,,,,,,,,,,,,,691.2102,693.01,693.0101,693.8689,return,0.0944,,57.68229167,,,,,,FBP-PT-91.png,0.43,1.2,59,1,,,,,,,,,,,,,,,,,,0,11,11,58,1,,,,,,,,,,,,,,,,,,,,,,,
,,,,,WIN25_026,21,male,2024-02-01_12h16.41.618,jersey_experiment_5,2023.2.2,Win32,84.74576271,,,,,,,,,,,,,,,,693.8691,695.1631,695.1631,695.8808,return,0.0491,,58.984375,,,,,,FBP-RB-91.png,0.4,1.2,28,0.5,,,,,,,,,,,,,,,,,,0,12,12,27,1,,,,,,,,,,,,,,,,,,,,,,,
,,,,,WIN25_026,21,male,2024-02-01_12h16.41.618,jersey_experiment_5,2023.2.2,Win32,84.74576271,,,,,,,,,,,,,,,,695.881,697.6808,697.6808,699.0454,return,0.674,,51.04166667,,,,,,FBP-PT-81.png,0.4,1.2,53,1,,,,,,,,,,,,,,,,,,0,13,13,52,1,,,,,,,,,,,,,,,,,,,,,,,
,,,,,WIN25_026,21,male,2024-02-01_12h16.41.618,jersey_experiment_5,2023.2.2,Win32,84.74576271,,,,,,,,,,,,,,,,699.0455,700.3397,700.3397,701.0927,return,0.1472,,39.453125,,,,,,FBP-YG-19.png,0.35,1.2,41,0.5,,,,,,,,,,,,,,,,,,0,14,14,40,1,,,,,,,,,,,,,,,,,,,,,,,
,,,,,WIN25_026,21,male,2024-02-01_12h16.41.618,jersey_experiment_5,2023.2.2,Win32,84.74576271,,,,,,,,,,,,,,,,701.0929,702.8927,702.8927,706.4576,return,1.2482,,81.25,,,,,,FBP-PT-81.png,0.43,1.2,54,1,,,,,,,,,,,,,,,,,,0,15,15,53,1,,,,,,,,,,,,,,,,,,,,,,,
,,,,,WIN25_026,21,male,2024-02-01_12h16.41.618,jersey_experiment_5,2023.2.2,Win32,84.74576271,,,,,,,,,,,,,,,,706.4579,707.7517,707.7517,708.6106,return,0.1139,,72.39583333,,,,,,FBP-YG-17.png,0.43,1.2,34,0.5,,,,,,,,,,,,,,,,,,0,16,16,33,1,,,,,,,,,,,,,,,,,,,,,,,
,,,,,WIN25_026,21,male,2024-02-01_12h16.41.618,jersey_experiment_5,2023.2.2,Win32,84.74576271,,,,,,,,,,,,,,,,708.6108,710.4107,710.4107,713.4578,return,1.503,,40.49479167,,,,,,FBP-PT-91.png,0.37,1.2,57,1,,,,,,,,,,,,,,,,,,0,17,17,56,1,,,,,,,,,,,,,,,,,,,,,,,
,,,,,WIN25_026,21,male,2024-02-01_12h16.41.618,jersey_experiment_5,2023.2.2,Win32,84.74576271,,,,,,,,,,,,,,,,713.4579,715.2578,715.2578,716.2581,return,0.0915,,36.84895833,,,,,,FBP-OG-19.png,0.4,1.2,13,1,,,,,,,,,,,,,,,,,,0,18,18,12,1,,,,,,,,,,,,,,,,,,,,,,,
,,,,,WIN25_026,21,male,2024-02-01_12h16.41.618,jersey_experiment_5,2023.2.2,Win32,84.74576271,,,,,,,,,,,,,,,,716.2583,717.5522,717.5522,720.0934,return,1.6841,,36.328125,,,,,,FBP-YG-17.png,0.35,1.2,31,0.5,,,,,,,,,,,,,,,,,,0,19,19,30,1,,,,,,,,,,,,,,,,,,,,,,,
,,,,,WIN25_026,21,male,2024-02-01_12h16.41.618,jersey_experiment_5,2023.2.2,Win32,84.74576271,,,,,,,,,,,,,,,,720.0936,721.8936,721.8936,722.6112,return,0.1132,,69.40104167,,,,,,FBP-PT-71.png,0.43,1.2,49,1,,,,,,,,,,,,,,,,,,0,20,20,48,1,,,,,,,,,,,,,,,,,,,,,,,
,,,,,WIN25_026,21,male,2024-02-01_12h16.41.618,jersey_experiment_5,2023.2.2,Win32,84.74576271,,,,,,,,,,,,,,,,722.6114,723.9052,723.9053,726.4229,return,0.3792,,75.13020833,,,,,,FBP-YG-18.png,0.43,1.2,39,0.5,,,,,,,,,,,,,,,,,,0,21,21,38,1,,,,,,,,,,,,,,,,,,,,,,,
,,,,,WIN25_026,21,male,2024-02-01_12h16.41.618,jersey_experiment_5,2023.2.2,Win32,84.74576271,,,,,,,,,,,,,,,,726.4231,728.2231,728.2232,728.9173,return,0.4408,,63.41145833,,,,,,FBP-OG-19.png,0.43,1.2,14,1,,,,,,,,,,,,,,,,,,0,22,22,13,1,,,,,,,,,,,,,,,,,,,,,,,
,,,,,WIN25_026,21,male,2024-02-01_12h16.41.618,jersey_experiment_5,2023.2.2,Win32,84.74576271,,,,,,,,,,,,,,,,728.9174,730.2115,730.2115,730.8703,return,0.1677,,69.40104167,,,,,,FBP-RB-91.png,0.43,1.2,29,0.5,,,,,,,,,,,,,,,,,,0,23,23,28,1,,,,,,,,,,,,,,,,,,,,,,,
,,,,,WIN25_026,21,male,2024-02-01_12h16.41.618,jersey_experiment_5,2023.2.2,Win32,84.74576271,,,,,,,,,,,,,,,,730.8705,732.6704,732.6705,733.2819,return,0.0899,,34.11458333,,,,,,FBP-PT-71.png,0.37,1.2,47,1,,,,,,,,,,,,,,,,,,0,24,24,46,1,,,,,,,,,,,,,,,,,,,,,,,
,,,,,WIN25_026,21,male,2024-02-01_12h16.41.618,jersey_experiment_5,2023.2.2,Win32,84.74576271,,,,,,,,,,,,,,,,733.2821,735.0822,735.0822,737.0587,return,0.6182,,62.109375,,,,,,FBP-PT-91.png,0.4,1.2,58,1,,,,,,,,,,,,,,,,,,0,25,25,57,1,,,,,,,,,,,,,,,,,,,,,,,
,,,,,WIN25_026,21,male,2024-02-01_12h16.41.618,jersey_experiment_5,2023.2.2,Win32,84.74576271,,,,,,,,,,,,,,,,737.0589,738.3529,738.3529,739.5057,return,0.4534,,81.11979167,,,,,,FBP-RB-81.png,0.45,1.2,25,0.5,,,,,,,,,,,,,,,,,,0,26,26,24,1,,,,,,,,,,,,,,,,,,,,,,,
,,,,,WIN25_026,21,male,2024-02-01_12h16.41.618,jersey_experiment_5,2023.2.2,Win32,84.74576271,,,,,,,,,,,,,,,,739.5059,741.3058,741.3058,741.8471,return,0.0604,,83.46354167,,,,,,FBP-PT-81.png,0.45,1.2,55,1,,,,,,,,,,,,,,,,,,0,27,27,54,1,,,,,,,,,,,,,,,,,,,,,,,
,,,,,WIN25_026,21,male,2024-02-01_12h16.41.618,jersey_experiment_5,2023.2.2,Win32,84.74576271,,,,,,,,,,,,,,,,741.8472,743.1412,743.1412,744.0824,return,0.1494,,25.390625,,,,,,FBP-RB-91.png,0.37,1.2,27,0.5,,,,,,,,,,,,,,,,,,0,28,28,26,1,,,,,,,,,,,,,,,,,,,,,,,
,,,,,WIN25_026,21,male,2024-02-01_12h16.41.618,jersey_experiment_5,2023.2.2,Win32,84.74576271,,,,,,,,,,,,,,,,744.0826,745.8827,745.8828,746.824,return,0.2366,,4.817708333,,,,,,FBP-PT-71.png,0.35,1.2,46,1,,,,,,,,,,,,,,,,,,0,29,29,45,1,,,,,,,,,,,,,,,,,,,,,,,
,,,,,WIN25_026,21,male,2024-02-01_12h16.41.618,jersey_experiment_5,2023.2.2,Win32,84.74576271,,,,,,,,,,,,,,,,746.8242,748.6238,748.6238,750.1886,return,0.9173,,74.86979167,,,,,,FBP-OG-18.png,0.45,1.2,10,1,,,,,,,,,,,,,,,,,,0,30,30,9,1,,,,,,,,,,,,,,,,,,,,,,,
,,,,,WIN25_026,21,male,2024-02-01_12h16.41.618,jersey_experiment_5,2023.2.2,Win32,84.74576271,,,,,,,,,,,,,,,,750.1888,751.9887,751.9887,752.6357,return,0.1322,,81.25,,,,,,FBP-OG-19.png,0.45,1.2,15,1,,,,,,,,,,,,,,,,,,0,31,31,14,1,,,,,,,,,,,,,,,,,,,,,,,
,,,,,WIN25_026,21,male,2024-02-01_12h16.41.618,jersey_experiment_5,2023.2.2,Win32,84.74576271,,,,,,,,,,,,,,,,752.6358,754.4358,754.4359,755.3182,return,0.2282,,42.44791667,,,,,,FBP-OG-17.png,0.37,1.2,2,1,,,,,,,,,,,,,,,,,,0,32,32,1,1,,,,,,,,,,,,,,,,,,,,,,,
,,,,,WIN25_026,21,male,2024-02-01_12h16.41.618,jersey_experiment_5,2023.2.2,Win32,84.74576271,,,,,,,,,,,,,,,,755.3184,757.1181,757.1181,758.1299,return,0.6202,,47.13541667,,,,,,FBP-OG-18.png,0.4,1.2,8,1,,,,,,,,,,,,,,,,,,0,33,33,7,1,,,,,,,,,,,,,,,,,,,,,,,
,,,,,WIN25_026,21,male,2024-02-01_12h16.41.618,jersey_experiment_5,2023.2.2,Win32,84.74576271,,,,,,,,,,,,,,,,758.13,759.4241,759.4242,760.5065,return,0.4107,,45.96354167,,,,,,FBP-RB-81.png,0.35,1.2,21,0.5,,,,,,,,,,,,,,,,,,0,34,34,20,1,,,,,,,,,,,,,,,,,,,,,,,
,,,,,WIN25_026,21,male,2024-02-01_12h16.41.618,jersey_experiment_5,2023.2.2,Win32,84.74576271,,,,,,,,,,,,,,,,760.5066,761.8007,761.8007,762.3773,return,0.1078,,34.375,,,,,,FBP-YG-18.png,0.37,1.2,37,0.5,,,,,,,,,,,,,,,,,,0,35,35,36,1,,,,,,,,,,,,,,,,,,,,,,,
,,,,,WIN25_026,21,male,2024-02-01_12h16.41.618,jersey_experiment_5,2023.2.2,Win32,84.74576271,,,,,,,,,,,,,,,,762.3775,763.6714,763.6715,764.389,return,0.147,,67.70833333,,,,,,FBP-RB-71.png,0.43,1.2,19,0.5,,,,,,,,,,,,,,,,,,0,36,36,18,1,,,,,,,,,,,,,,,,,,,,,,,
,,,,,WIN25_026,21,male,2024-02-01_12h16.41.618,jersey_experiment_5,2023.2.2,Win32,84.74576271,,,,,,,,,,,,,,,,764.3893,766.1893,766.1893,766.5657,return,0.1453,,80.72916667,,,,,,FBP-OG-17.png,0.45,1.2,5,1,,,,,,,,,,,,,,,,,,0,37,37,4,1,,,,,,,,,,,,,,,,,,,,,,,
,,,,,WIN25_026,21,male,2024-02-01_12h16.41.618,jersey_experiment_5,2023.2.2,Win32,84.74576271,,,,,,,,,,,,,,,,766.5658,767.8598,767.8598,768.4363,return,0.1006,,77.60416667,,,,,,FBP-YG-19.png,0.45,1.2,45,0.5,,,,,,,,,,,,,,,,,,0,38,38,44,1,,,,,,,,,,,,,,,,,,,,,,,
,,,,,WIN25_026,21,male,2024-02-01_12h16.41.618,jersey_experiment_5,2023.2.2,Win32,84.74576271,,,,,,,,,,,,,,,,768.4365,769.7305,769.7305,770.9187,return,0.4394,,43.09895833,,,,,,FBP-YG-17.png,0.37,1.2,32,0.5,,,,,,,,,,,,,,,,,,0,39,39,31,1,,,,,,,,,,,,,,,,,,,,,,,
,,,,,WIN25_026,21,male,2024-02-01_12h16.41.618,jersey_experiment_5,2023.2.2,Win32,84.74576271,,,,,,,,,,,,,,,,770.919,772.2129,772.2129,772.7071,return,0.0664,,46.09375,,,,,,FBP-RB-91.png,0.35,1.2,26,0.5,,,,,,,,,,,,,,,,,,0,40,40,25,1,,,,,,,,,,,,,,,,,,,,,,,
,,,,,WIN25_026,21,male,2024-02-01_12h16.41.618,jersey_experiment_5,2023.2.2,Win32,84.74576271,,,,,,,,,,,,,,,,772.7072,774.0013,774.0013,774.5894,return,0.0476,,39.58333333,,,,,,FBP-YG-19.png,0.4,1.2,43,0.5,,,,,,,,,,,,,,,,,,0,41,41,42,1,,,,,,,,,,,,,,,,,,,,,,,
,,,,,WIN25_026,21,male,2024-02-01_12h16.41.618,jersey_experiment_5,2023.2.2,Win32,84.74576271,,,,,,,,,,,,,,,,774.5897,776.3896,776.3897,776.7895,return,0.0994,,68.75,,,,,,FBP-PT-71.png,0.45,1.2,50,1,,,,,,,,,,,,,,,,,,0,42,42,49,1,,,,,,,,,,,,,,,,,,,,,,,
,,,,,WIN25_026,21,male,2024-02-01_12h16.41.618,jersey_experiment_5,2023.2.2,Win32,84.74576271,,,,,,,,,,,,,,,,776.7896,778.0836,778.0836,780.1073,return,0.0346,,26.82291667,,,,,,FBP-RB-81.png,0.37,1.2,22,0.5,,,,,,,,,,,,,,,,,,0,43,43,21,1,,,,,,,,,,,,,,,,,,,,,,,
,,,,,WIN25_026,21,male,2024-02-01_12h16.41.618,jersey_experiment_5,2023.2.2,Win32,84.74576271,,,,,,,,,,,,,,,,780.1075,781.4014,781.4014,782.4721,return,0.0849,,76.30208333,,,,,,FBP-RB-71.png,0.45,1.2,20,0.5,,,,,,,,,,,,,,,,,,0,44,44,19,1,,,,,,,,,,,,,,,,,,,,,,,
,,,,,WIN25_026,21,male,2024-02-01_12h16.41.618,jersey_experiment_5,2023.2.2,Win32,84.74576271,,,,,,,,,,,,,,,,782.4722,783.7664,783.7664,785.1545,return,0.666,,41.92708333,,,,,,FBP-YG-19.png,0.37,1.2,42,0.5,,,,,,,,,,,,,,,,,,0,45,45,41,1,,,,,,,,,,,,,,,,,,,,,,,
,,,,,WIN25_026,21,male,2024-02-01_12h16.41.618,jersey_experiment_5,2023.2.2,Win32,84.74576271,,,,,,,,,,,,,,,,785.1547,786.4487,786.4487,787.3664,return,0.1333,,79.42708333,,,,,,FBP-RB-81.png,0.43,1.2,24,0.5,,,,,,,,,,,,,,,,,,0,46,46,23,1,,,,,,,,,,,,,,,,,,,,,,,
,,,,,WIN25_026,21,male,2024-02-01_12h16.41.618,jersey_experiment_5,2023.2.2,Win32,84.74576271,,,,,,,,,,,,,,,,787.3666,789.1665,789.1665,790.1195,return,0.0024,,35.80729167,,,,,,FBP-OG-18.png,0.35,1.2,6,1,,,,,,,,,,,,,,,,,,0,47,47,5,1,,,,,,,,,,,,,,,,,,,,,,,
,,,,,WIN25_026,21,male,2024-02-01_12h16.41.618,jersey_experiment_5,2023.2.2,Win32,84.74576271,,,,,,,,,,,,,,,,790.1196,791.9196,791.9196,792.5547,return,0.0811,,76.69270833,,,,,,FBP-PT-91.png,0.45,1.2,60,1,,,,,,,,,,,,,,,,,,0,48,48,59,1,,,,,,,,,,,,,,,,,,,,,,,
,,,,,WIN25_026,21,male,2024-02-01_12h16.41.618,jersey_experiment_5,2023.2.2,Win32,84.74576271,,,,,,,,,,,,,,,,792.555,794.355,794.3551,794.7784,return,0.2719,,78.38541667,,,,,,FBP-PT-71.png,0.4,1.2,48,1,,,,,,,,,,,,,,,,,,0,49,49,47,1,,,,,,,,,,,,,,,,,,,,,,,
,,,,,WIN25_026,21,male,2024-02-01_12h16.41.618,jersey_experiment_5,2023.2.2,Win32,84.74576271,,,,,,,,,,,,,,,,794.7785,796.5785,796.5785,797.6726,return,0.0609,,25.13020833,,,,,,FBP-OG-19.png,0.35,1.2,11,1,,,,,,,,,,,,,,,,,,0,50,50,10,1,,,,,,,,,,,,,,,,,,,,,,,
,,,,,WIN25_026,21,male,2024-02-01_12h16.41.618,jersey_experiment_5,2023.2.2,Win32,84.74576271,,,,,,,,,,,,,,,,797.6729,798.9668,798.9668,800.6491,return,0.0593,,63.28125,,,,,,FBP-RB-71.png,0.35,1.2,16,0.5,,,,,,,,,,,,,,,,,,0,51,51,15,1,,,,,,,,,,,,,,,,,,,,,,,
,,,,,WIN25_026,21,male,2024-02-01_12h16.41.618,jersey_experiment_5,2023.2.2,Win32,84.74576271,,,,,,,,,,,,,,,,800.6493,802.4494,802.4495,803.0611,return,0.135,,64.0625,,,,,,FBP-PT-81.png,0.35,1.2,51,1,,,,,,,,,,,,,,,,,,0,52,52,50,1,,,,,,,,,,,,,,,,,,,,,,,
,,,,,WIN25_026,21,male,2024-02-01_12h16.41.618,jersey_experiment_5,2023.2.2,Win32,84.74576271,,,,,,,,,,,,,,,,803.0612,804.8612,804.8612,805.4023,return,0.1651,,73.69791667,,,,,,FBP-OG-17.png,0.43,1.2,4,1,,,,,,,,,,,,,,,,,,0,53,53,3,1,,,,,,,,,,,,,,,,,,,,,,,
,,,,,WIN25_026,21,male,2024-02-01_12h16.41.618,jersey_experiment_5,2023.2.2,Win32,84.74576271,,,,,,,,,,,,,,,,805.4024,807.2024,807.2025,808.026,return,0.1081,,73.69791667,,,,,,FBP-OG-17.png,0.4,1.2,3,1,,,,,,,,,,,,,,,,,,0,54,54,2,1,,,,,,,,,,,,,,,,,,,,,,,
,,,,,WIN25_026,21,male,2024-02-01_12h16.41.618,jersey_experiment_5,2023.2.2,Win32,84.74576271,,,,,,,,,,,,,,,,808.0262,809.3201,809.3201,810.332,return,0.1784,,73.30729167,,,,,,FBP-RB-71.png,0.4,1.2,18,0.5,,,,,,,,,,,,,,,,,,0,55,55,17,1,,,,,,,,,,,,,,,,,,,,,,,
,,,,,WIN25_026,21,male,2024-02-01_12h16.41.618,jersey_experiment_5,2023.2.2,Win32,84.74576271,,,,,,,,,,,,,,,,810.3321,812.132,812.1321,813.026,return,0.2674,,29.55729167,,,,,,FBP-OG-19.png,0.37,1.2,12,1,,,,,,,,,,,,,,,,,,0,56,56,11,1,,,,,,,,,,,,,,,,,,,,,,,
,,,,,WIN25_026,21,male,2024-02-01_12h16.41.618,jersey_experiment_5,2023.2.2,Win32,84.74576271,,,,,,,,,,,,,,,,813.0261,814.8263,814.8263,815.3085,return,0.0707,,23.046875,,,,,,FBP-OG-17.png,0.35,1.2,1,1,,,,,,,,,,,,,,,,,,0,57,57,0,1,,,,,,,,,,,,,,,,,,,,,,,
,,,,,WIN25_026,21,male,2024-02-01_12h16.41.618,jersey_experiment_5,2023.2.2,Win32,84.74576271,,,,,,,,,,,,,,,,815.3087,816.6028,816.6029,818.1557,return,0.7167,,84.89583333,,,,,,FBP-YG-19.png,0.43,1.2,44,0.5,,,,,,,,,,,,,,,,,,0,58,58,43,1,,,,,,,,,,,,,,,,,,,,,,,
,,,,,WIN25_026,21,male,2024-02-01_12h16.41.618,jersey_experiment_5,2023.2.2,Win32,84.74576271,,,,,,,,,,,,,,,,818.1559,819.9558,819.9559,820.9206,return,0.3064,,76.171875,,,,,,FBP-OG-18.png,0.43,1.2,9,1,,,,,,,,,,,,,,,,,,0,59,59,8,1,,,,,,,,,,,,,,,,,,,,,,,
,,,,,WIN25_026,21,male,2024-02-01_12h16.41.618,jersey_experiment_5,2023.2.2,Win32,84.74576271,,,,,,,,,,,,,,,,,,,,,,,,,,,,,,,,,,,,,,,,,,,,,,,,,,,,,,,,820.921,826.5797,return,5.6539,,,,,,,,,,,,,,,,,,,
,,,,,WIN25_026,21,male,2024-02-01_12h16.41.618,jersey_experiment_5,2023.2.2,Win32,84.74576271,,,,,,,,,,,,,,,,,,,,,,,,,,,,,,,,,,,,,,,,,,,,,,,,,,,,,,,,,,,,,826.5797,829.8268,1,2.6016,return,0.6288,,,,,,,,,,,,
,,,,,WIN25_026,21,male,2024-02-01_12h16.41.618,jersey_experiment_5,2023.2.2,Win32,84.74576271,,,,,,,,,,,,,,,,,,,,,,,,,,,,,,,,,,,,,,,,,,,,,,,,,,,,,,,,,,,,,,,,,,,,829.8269,858.5272,maybe the colors of the jerseys or order of the pictures that appeared affected how I perceived them,right,24.5173,,,,,,
,,,,,WIN25_026,21,male,2024-02-01_12h16.41.618,jersey_experiment_5,2023.2.2,Win32,84.74576271,,,,,,,,,,,,,,,,,,,,,,,,,,,,,,,,,,,,,,,,,,,,,,,,,,,,,,,,,,,,,,,,,,,,,,,,,,858.5273,871.5814,return,13.0431,