requirements.started,requirements.stopped,key_resp_3.keys,key_resp_3.rt,key_resp_3.duration,Subject ID,Age,Gender,date,expName,psychopyVersion,OS,frameRate,instructions1.started,instructions1.stopped,key_resp.keys,key_resp.rt,key_resp.duration,example.started,example.stopped,enter_2.keys,enter_2.rt,enter_2.duration,instructions2.started,instructions2.stopped,enter_3.keys,enter_3.rt,enter_3.duration,image.started,image.stopped,slider_2.started,slider_2.stopped,next.keys,next.rt,next.duration,slider.response,trial_block_1.thisRepN,trial_block_1.thisTrialN,trial_block_1.thisN,trial_block_1.thisIndex,trial_block_1.ran,Path,Width,Height,Index,Duration,trial_block_2.thisRepN,trial_block_2.thisTrialN,trial_block_2.thisN,trial_block_2.thisIndex,trial_block_2.ran,rest_break.started,rest_break.stopped,end_break.started,end_break.stopped,key_resp_5.keys,key_resp_5.rt,key_resp_5.duration,trial_block_3.thisRepN,trial_block_3.thisTrialN,trial_block_3.thisN,trial_block_3.thisIndex,trial_block_3.ran,trial_block_4.thisRepN,trial_block_4.thisTrialN,trial_block_4.thisN,trial_block_4.thisIndex,trial_block_4.ran,questions_intro.started,questions_intro.stopped,enter_12.keys,enter_12.rt,enter_12.duration,question2.started,question2.stopped,question_doingbest.response,question_doingbest.rt,enter_15.keys,enter_15.rt,enter_15.duration,pattern.started,pattern.stopped,pattern_2.text,enter_17.keys,enter_17.rt,enter_17.duration,thankyou.started,thankyou.stopped,enter_14.keys,enter_14.rt,enter_14.duration
1E-04,10.0429,return,10.0352,,WIN24_033,20,Female,2024-02-02_13h00.37.123,jersey_experiment_5,2023.2.2,Win32,84.74576271,,,,,,,,,,,,,,,,,,,,,,,,,,,,,,,,,,,,,,,,,,,,,,,,,,,,,,,,,,,,,,,,,,,,,,,,,,,,,,
,,,,,WIN24_033,20,Female,2024-02-02_13h00.37.123,jersey_experiment_5,2023.2.2,Win32,84.74576271,10.043,18.8315,return,8.7657,,,,,,,,,,,,,,,,,,,,,,,,,,,,,,,,,,,,,,,,,,,,,,,,,,,,,,,,,,,,,,,,,,,,,,,,,,
,,,,,WIN24_033,20,Female,2024-02-02_13h00.37.123,jersey_experiment_5,2023.2.2,Win32,84.74576271,,,,,,18.8316,23.055,return,4.1836,,,,,,,,,,,,,,,,,,,,,,,,,,,,,,,,,,,,,,,,,,,,,,,,,,,,,,,,,,,,,,,,,,,,,
,,,,,WIN24_033,20,Female,2024-02-02_13h00.37.123,jersey_experiment_5,2023.2.2,Win32,84.74576271,,,,,,,,,,,23.055,40.3616,return,17.2881,,,,,,,,,,,,,,,,,,,,,,,,,,,,,,,,,,,,,,,,,,,,,,,,,,,,,,,,,,,,,,,,
,,,,,WIN24_033,20,Female,2024-02-02_13h00.37.123,jersey_experiment_5,2023.2.2,Win32,84.74576271,,,,,,,,,,,,,,,,40.3681,41.67,41.67,55.0796,return,4.6446,,75.26041667,0,0,0,53,1,FBP-PT-18.png,0.43,1.2,54,0.5,,,,,,,,,,,,,,,,,,,,,,,,,,,,,,,,,,,,,,,,,,,,,
,,,,,WIN24_033,20,Female,2024-02-02_13h00.37.123,jersey_experiment_5,2023.2.2,Win32,84.74576271,,,,,,,,,,,,,,,,55.0841,56.3856,56.3856,63.821,return,5.2119,,49.86979167,0,1,1,1,1,FBP-OG-71.png,0.37,1.2,2,0.5,,,,,,,,,,,,,,,,,,,,,,,,,,,,,,,,,,,,,,,,,,,,,
,,,,,WIN24_033,20,Female,2024-02-02_13h00.37.123,jersey_experiment_5,2023.2.2,Win32,84.74576271,,,,,,,,,,,,,,,,63.8268,65.6211,65.6211,67.9977,return,1.1327,,98.828125,0,2,2,19,1,FBP-RB-17.png,0.45,1.2,20,1,,,,,,,,,,,,,,,,,,,,,,,,,,,,,,,,,,,,,,,,,,,,,
,,,,,WIN24_033,20,Female,2024-02-02_13h00.37.123,jersey_experiment_5,2023.2.2,Win32,84.74576271,,,,,,,,,,,,,,,,67.9983,69.2919,69.2919,71.833,return,0.796,,70.96354167,0,3,3,6,1,FBP-OG-81.png,0.37,1.2,7,0.5,,,,,,,,,,,,,,,,,,,,,,,,,,,,,,,,,,,,,,,,,,,,,
,,,,,WIN24_033,20,Female,2024-02-02_13h00.37.123,jersey_experiment_5,2023.2.2,Win32,84.74576271,,,,,,,,,,,,,,,,71.8334,73.1272,73.1272,75.2097,return,0.772,,74.86979167,0,4,4,51,1,FBP-PT-18.png,0.37,1.2,52,0.5,,,,,,,,,,,,,,,,,,,,,,,,,,,,,,,,,,,,,,,,,,,,,
,,,,,WIN24_033,20,Female,2024-02-02_13h00.37.123,jersey_experiment_5,2023.2.2,Win32,84.74576271,,,,,,,,,,,,,,,,75.21,77.0098,77.0098,79.2571,return,0.7369,,90.36458333,0,5,5,32,1,FBP-YG-71.png,0.4,1.2,33,1,,,,,,,,,,,,,,,,,,,,,,,,,,,,,,,,,,,,,,,,,,,,,
,,,,,WIN24_033,20,Female,2024-02-02_13h00.37.123,jersey_experiment_5,2023.2.2,Win32,84.74576271,,,,,,,,,,,,,,,,79.2576,80.551,80.551,82.6805,return,0.7141,,82.29166667,0,6,6,45,1,FBP-PT-17.png,0.35,1.2,46,0.5,,,,,,,,,,,,,,,,,,,,,,,,,,,,,,,,,,,,,,,,,,,,,
,,,,,WIN24_033,20,Female,2024-02-02_13h00.37.123,jersey_experiment_5,2023.2.2,Win32,84.74576271,,,,,,,,,,,,,,,,82.6809,84.4806,84.4806,86.0925,return,0.8017,,82.94270833,0,7,7,15,1,FBP-RB-17.png,0.35,1.2,16,1,,,,,,,,,,,,,,,,,,,,,,,,,,,,,,,,,,,,,,,,,,,,,
,,,,,WIN24_033,20,Female,2024-02-02_13h00.37.123,jersey_experiment_5,2023.2.2,Win32,84.74576271,,,,,,,,,,,,,,,,86.0927,87.8924,87.8925,91.1867,return,0.8471,,99.86979167,0,8,8,44,1,FBP-YG-91.png,0.45,1.2,45,1,,,,,,,,,,,,,,,,,,,,,,,,,,,,,,,,,,,,,,,,,,,,,
,,,,,WIN24_033,20,Female,2024-02-02_13h00.37.123,jersey_experiment_5,2023.2.2,Win32,84.74576271,,,,,,,,,,,,,,,,91.187,92.9867,92.9869,94.7163,return,1.0278,,99.86979167,0,9,9,34,1,FBP-YG-71.png,0.45,1.2,35,1,,,,,,,,,,,,,,,,,,,,,,,,,,,,,,,,,,,,,,,,,,,,,
,,,,,WIN24_033,20,Female,2024-02-02_13h00.37.123,jersey_experiment_5,2023.2.2,Win32,84.74576271,,,,,,,,,,,,,,,,94.7167,96.5167,96.5167,97.9872,return,0.6478,,99.86979167,0,10,10,27,1,FBP-RB-19.png,0.4,1.2,28,1,,,,,,,,,,,,,,,,,,,,,,,,,,,,,,,,,,,,,,,,,,,,,
,,,,,WIN24_033,20,Female,2024-02-02_13h00.37.123,jersey_experiment_5,2023.2.2,Win32,84.74576271,,,,,,,,,,,,,,,,97.9876,99.7872,99.7872,100.94,return,0.6163,,99.86979167,0,11,11,24,1,FBP-RB-18.png,0.45,1.2,25,1,,,,,,,,,,,,,,,,,,,,,,,,,,,,,,,,,,,,,,,,,,,,,
,,,,,WIN24_033,20,Female,2024-02-02_13h00.37.123,jersey_experiment_5,2023.2.2,Win32,84.74576271,,,,,,,,,,,,,,,,100.9402,102.2341,102.2341,103.6344,return,0.4951,,99.86979167,0,12,12,12,1,FBP-OG-91.png,0.4,1.2,13,0.5,,,,,,,,,,,,,,,,,,,,,,,,,,,,,,,,,,,,,,,,,,,,,
,,,,,WIN24_033,20,Female,2024-02-02_13h00.37.123,jersey_experiment_5,2023.2.2,Win32,84.74576271,,,,,,,,,,,,,,,,103.635,105.4345,105.4346,107.658,return,0.5481,,70.703125,0,13,13,25,1,FBP-RB-19.png,0.35,1.2,26,1,,,,,,,,,,,,,,,,,,,,,,,,,,,,,,,,,,,,,,,,,,,,,
,,,,,WIN24_033,20,Female,2024-02-02_13h00.37.123,jersey_experiment_5,2023.2.2,Win32,84.74576271,,,,,,,,,,,,,,,,107.6582,109.4581,109.4581,112.223,return,0.496,,99.47916667,0,14,14,39,1,FBP-YG-81.png,0.45,1.2,40,1,,,,,,,,,,,,,,,,,,,,,,,,,,,,,,,,,,,,,,,,,,,,,
,,,,,WIN24_033,20,Female,2024-02-02_13h00.37.123,jersey_experiment_5,2023.2.2,Win32,84.74576271,,,,,,,,,,,,,,,,112.2235,114.0231,114.0232,116.5289,return,1.317,,73.17708333,0,15,15,36,1,FBP-YG-81.png,0.37,1.2,37,1,,,,,,,,,,,,,,,,,,,,,,,,,,,,,,,,,,,,,,,,,,,,,
,,,,,WIN24_033,20,Female,2024-02-02_13h00.37.123,jersey_experiment_5,2023.2.2,Win32,84.74576271,,,,,,,,,,,,,,,,116.5291,117.8232,117.8232,119.4232,return,0.5555,,77.734375,0,16,16,2,1,FBP-OG-71.png,0.4,1.2,3,0.5,,,,,,,,,,,,,,,,,,,,,,,,,,,,,,,,,,,,,,,,,,,,,
,,,,,WIN24_033,20,Female,2024-02-02_13h00.37.123,jersey_experiment_5,2023.2.2,Win32,84.74576271,,,,,,,,,,,,,,,,119.4234,120.7174,120.7175,122.6704,return,0.5551,,99.34895833,0,17,17,54,1,FBP-PT-18.png,0.45,1.2,55,0.5,,,,,,,,,,,,,,,,,,,,,,,,,,,,,,,,,,,,,,,,,,,,,
,,,,,WIN24_033,20,Female,2024-02-02_13h00.37.123,jersey_experiment_5,2023.2.2,Win32,84.74576271,,,,,,,,,,,,,,,,122.6706,124.4704,124.4704,126.188,return,0.6751,,72.78645833,0,18,18,41,1,FBP-YG-91.png,0.37,1.2,42,1,,,,,,,,,,,,,,,,,,,,,,,,,,,,,,,,,,,,,,,,,,,,,
,,,,,WIN24_033,20,Female,2024-02-02_13h00.37.123,jersey_experiment_5,2023.2.2,Win32,84.74576271,,,,,,,,,,,,,,,,126.1883,127.4823,127.4824,129.2588,return,0.6176,,75.52083333,0,19,19,50,1,FBP-PT-18.png,0.35,1.2,51,0.5,,,,,,,,,,,,,,,,,,,,,,,,,,,,,,,,,,,,,,,,,,,,,
,,,,,WIN24_033,20,Female,2024-02-02_13h00.37.123,jersey_experiment_5,2023.2.2,Win32,84.74576271,,,,,,,,,,,,,,,,129.2592,130.5529,130.553,132.6355,return,0.6522,,98.56770833,0,20,20,3,1,FBP-OG-71.png,0.43,1.2,4,0.5,,,,,,,,,,,,,,,,,,,,,,,,,,,,,,,,,,,,,,,,,,,,,
,,,,,WIN24_033,20,Female,2024-02-02_13h00.37.123,jersey_experiment_5,2023.2.2,Win32,84.74576271,,,,,,,,,,,,,,,,132.6362,133.9296,133.9296,135.6825,return,0.6123,,90.49479167,0,21,21,52,1,FBP-PT-18.png,0.4,1.2,53,0.5,,,,,,,,,,,,,,,,,,,,,,,,,,,,,,,,,,,,,,,,,,,,,
,,,,,WIN24_033,20,Female,2024-02-02_13h00.37.123,jersey_experiment_5,2023.2.2,Win32,84.74576271,,,,,,,,,,,,,,,,135.6828,136.9767,136.9767,138.8591,return,0.5231,,99.73958333,0,22,22,4,1,FBP-OG-71.png,0.45,1.2,5,0.5,,,,,,,,,,,,,,,,,,,,,,,,,,,,,,,,,,,,,,,,,,,,,
,,,,,WIN24_033,20,Female,2024-02-02_13h00.37.123,jersey_experiment_5,2023.2.2,Win32,84.74576271,,,,,,,,,,,,,,,,138.8594,140.6592,140.6593,142.3534,return,0.5793,,70.96354167,0,23,23,20,1,FBP-RB-18.png,0.35,1.2,21,1,,,,,,,,,,,,,,,,,,,,,,,,,,,,,,,,,,,,,,,,,,,,,
,,,,,WIN24_033,20,Female,2024-02-02_13h00.37.123,jersey_experiment_5,2023.2.2,Win32,84.74576271,,,,,,,,,,,,,,,,142.3537,144.1536,144.1536,146.9422,return,0.7679,,99.609375,0,24,24,38,1,FBP-YG-81.png,0.43,1.2,39,1,,,,,,,,,,,,,,,,,,,,,,,,,,,,,,,,,,,,,,,,,,,,,
,,,,,WIN24_033,20,Female,2024-02-02_13h00.37.123,jersey_experiment_5,2023.2.2,Win32,84.74576271,,,,,,,,,,,,,,,,146.9427,148.742,148.742,150.2714,return,0.566,,48.046875,0,25,25,21,1,FBP-RB-18.png,0.37,1.2,22,1,,,,,,,,,,,,,,,,,,,,,,,,,,,,,,,,,,,,,,,,,,,,,
,,,,,WIN24_033,20,Female,2024-02-02_13h00.37.123,jersey_experiment_5,2023.2.2,Win32,84.74576271,,,,,,,,,,,,,,,,150.2715,152.0716,152.0717,153.7892,return,0.5674,,99.609375,0,26,26,18,1,FBP-RB-17.png,0.43,1.2,19,1,,,,,,,,,,,,,,,,,,,,,,,,,,,,,,,,,,,,,,,,,,,,,
,,,,,WIN24_033,20,Female,2024-02-02_13h00.37.123,jersey_experiment_5,2023.2.2,Win32,84.74576271,,,,,,,,,,,,,,,,153.7896,155.0833,155.0834,157.0716,return,0.565,,75,0,27,27,0,1,FBP-OG-71.png,0.35,1.2,1,0.5,,,,,,,,,,,,,,,,,,,,,,,,,,,,,,,,,,,,,,,,,,,,,
,,,,,WIN24_033,20,Female,2024-02-02_13h00.37.123,jersey_experiment_5,2023.2.2,Win32,84.74576271,,,,,,,,,,,,,,,,157.0718,158.3659,158.3659,159.8363,return,0.4979,,75.13020833,0,28,28,7,1,FBP-OG-81.png,0.4,1.2,8,0.5,,,,,,,,,,,,,,,,,,,,,,,,,,,,,,,,,,,,,,,,,,,,,
,,,,,WIN24_033,20,Female,2024-02-02_13h00.37.123,jersey_experiment_5,2023.2.2,Win32,84.74576271,,,,,,,,,,,,,,,,159.8367,161.6366,161.6367,163.0247,return,0.5409,,79.81770833,0,29,29,37,1,FBP-YG-81.png,0.4,1.2,38,1,,,,,,,,,,,,,,,,,,,,,,,,,,,,,,,,,,,,,,,,,,,,,
,,,,,WIN24_033,20,Female,2024-02-02_13h00.37.123,jersey_experiment_5,2023.2.2,Win32,84.74576271,,,,,,,,,,,,,,,,163.0251,164.8249,164.8249,165.8367,return,0.4707,,78.25520833,0,30,30,22,1,FBP-RB-18.png,0.4,1.2,23,1,,,,,,,,,,,,,,,,,,,,,,,,,,,,,,,,,,,,,,,,,,,,,
,,,,,WIN24_033,20,Female,2024-02-02_13h00.37.123,jersey_experiment_5,2023.2.2,Win32,84.74576271,,,,,,,,,,,,,,,,165.837,167.6365,167.6365,169.1546,return,0.5771,,49.609375,0,31,31,26,1,FBP-RB-19.png,0.37,1.2,27,1,,,,,,,,,,,,,,,,,,,,,,,,,,,,,,,,,,,,,,,,,,,,,
,,,,,WIN24_033,20,Female,2024-02-02_13h00.37.123,jersey_experiment_5,2023.2.2,Win32,84.74576271,,,,,,,,,,,,,,,,169.1553,170.4486,170.4486,174.096,return,0.5872,,99.73958333,0,32,32,14,1,FBP-OG-91.png,0.45,1.2,15,0.5,,,,,,,,,,,,,,,,,,,,,,,,,,,,,,,,,,,,,,,,,,,,,
,,,,,WIN24_033,20,Female,2024-02-02_13h00.37.123,jersey_experiment_5,2023.2.2,Win32,84.74576271,,,,,,,,,,,,,,,,174.0965,175.3903,175.3903,176.6488,return,0.5584,,99.73958333,0,33,33,59,1,FBP-PT-19.png,0.45,1.2,60,0.5,,,,,,,,,,,,,,,,,,,,,,,,,,,,,,,,,,,,,,,,,,,,,
,,,,,WIN24_033,20,Female,2024-02-02_13h00.37.123,jersey_experiment_5,2023.2.2,Win32,84.74576271,,,,,,,,,,,,,,,,176.649,177.9429,177.9429,179.3902,return,0.5086,,86.45833333,0,34,34,58,1,FBP-PT-19.png,0.43,1.2,59,0.5,,,,,,,,,,,,,,,,,,,,,,,,,,,,,,,,,,,,,,,,,,,,,
,,,,,WIN24_033,20,Female,2024-02-02_13h00.37.123,jersey_experiment_5,2023.2.2,Win32,84.74576271,,,,,,,,,,,,,,,,179.3905,180.6846,180.6847,182.555,return,0.5463,,39.58333333,0,35,35,10,1,FBP-OG-91.png,0.35,1.2,11,0.5,,,,,,,,,,,,,,,,,,,,,,,,,,,,,,,,,,,,,,,,,,,,,
,,,,,WIN24_033,20,Female,2024-02-02_13h00.37.123,jersey_experiment_5,2023.2.2,Win32,84.74576271,,,,,,,,,,,,,,,,182.5552,184.3549,184.355,186.0021,return,0.5385,,49.34895833,0,36,36,31,1,FBP-YG-71.png,0.37,1.2,32,1,,,,,,,,,,,,,,,,,,,,,,,,,,,,,,,,,,,,,,,,,,,,,
,,,,,WIN24_033,20,Female,2024-02-02_13h00.37.123,jersey_experiment_5,2023.2.2,Win32,84.74576271,,,,,,,,,,,,,,,,186.0024,187.8023,187.8024,191.0024,return,0.6533,,99.34895833,0,37,37,29,1,FBP-RB-19.png,0.45,1.2,30,1,,,,,,,,,,,,,,,,,,,,,,,,,,,,,,,,,,,,,,,,,,,,,
,,,,,WIN24_033,20,Female,2024-02-02_13h00.37.123,jersey_experiment_5,2023.2.2,Win32,84.74576271,,,,,,,,,,,,,,,,191.003,192.2965,192.2965,193.7788,return,0.5294,,99.34895833,0,38,38,48,1,FBP-PT-17.png,0.43,1.2,49,0.5,,,,,,,,,,,,,,,,,,,,,,,,,,,,,,,,,,,,,,,,,,,,,
,,,,,WIN24_033,20,Female,2024-02-02_13h00.37.123,jersey_experiment_5,2023.2.2,Win32,84.74576271,,,,,,,,,,,,,,,,193.7791,195.0731,195.0731,196.2849,return,0.4865,,99.34895833,0,39,39,13,1,FBP-OG-91.png,0.43,1.2,14,0.5,,,,,,,,,,,,,,,,,,,,,,,,,,,,,,,,,,,,,,,,,,,,,
,,,,,WIN24_033,20,Female,2024-02-02_13h00.37.123,jersey_experiment_5,2023.2.2,Win32,84.74576271,,,,,,,,,,,,,,,,196.2852,197.5789,197.5789,199.4966,return,0.8906,,76.5625,0,40,40,47,1,FBP-PT-17.png,0.4,1.2,48,0.5,,,,,,,,,,,,,,,,,,,,,,,,,,,,,,,,,,,,,,,,,,,,,
,,,,,WIN24_033,20,Female,2024-02-02_13h00.37.123,jersey_experiment_5,2023.2.2,Win32,84.74576271,,,,,,,,,,,,,,,,199.4969,200.7911,200.7912,202.8146,return,0.5314,,99.609375,0,41,41,49,1,FBP-PT-17.png,0.45,1.2,50,0.5,,,,,,,,,,,,,,,,,,,,,,,,,,,,,,,,,,,,,,,,,,,,,
,,,,,WIN24_033,20,Female,2024-02-02_13h00.37.123,jersey_experiment_5,2023.2.2,Win32,84.74576271,,,,,,,,,,,,,,,,202.8152,204.6145,204.6145,206.2264,return,0.5745,,75.52083333,0,42,42,42,1,FBP-YG-91.png,0.4,1.2,43,1,,,,,,,,,,,,,,,,,,,,,,,,,,,,,,,,,,,,,,,,,,,,,
,,,,,WIN24_033,20,Female,2024-02-02_13h00.37.123,jersey_experiment_5,2023.2.2,Win32,84.74576271,,,,,,,,,,,,,,,,206.2267,207.5205,207.5205,209.7682,return,0.5615,,50.13020833,0,43,43,11,1,FBP-OG-91.png,0.37,1.2,12,0.5,,,,,,,,,,,,,,,,,,,,,,,,,,,,,,,,,,,,,,,,,,,,,
,,,,,WIN24_033,20,Female,2024-02-02_13h00.37.123,jersey_experiment_5,2023.2.2,Win32,84.74576271,,,,,,,,,,,,,,,,209.7688,211.0619,211.062,212.9209,return,0.5483,,98.95833333,0,44,44,9,1,FBP-OG-81.png,0.45,1.2,10,0.5,,,,,,,,,,,,,,,,,,,,,,,,,,,,,,,,,,,,,,,,,,,,,
,,,,,WIN24_033,20,Female,2024-02-02_13h00.37.123,jersey_experiment_5,2023.2.2,Win32,84.74576271,,,,,,,,,,,,,,,,212.9214,214.7212,214.7212,216.0974,return,0.544,,75.13020833,0,45,45,28,1,FBP-RB-19.png,0.43,1.2,29,1,,,,,,,,,,,,,,,,,,,,,,,,,,,,,,,,,,,,,,,,,,,,,
,,,,,WIN24_033,20,Female,2024-02-02_13h00.37.123,jersey_experiment_5,2023.2.2,Win32,84.74576271,,,,,,,,,,,,,,,,216.0976,217.8973,217.8973,219.4504,return,0.6419,,48.95833333,0,46,46,16,1,FBP-RB-17.png,0.37,1.2,17,1,,,,,,,,,,,,,,,,,,,,,,,,,,,,,,,,,,,,,,,,,,,,,
,,,,,WIN24_033,20,Female,2024-02-02_13h00.37.123,jersey_experiment_5,2023.2.2,Win32,84.74576271,,,,,,,,,,,,,,,,219.4507,220.7444,220.7445,222.3682,return,0.4806,,36.84895833,0,47,47,46,1,FBP-PT-17.png,0.37,1.2,47,0.5,,,,,,,,,,,,,,,,,,,,,,,,,,,,,,,,,,,,,,,,,,,,,
,,,,,WIN24_033,20,Female,2024-02-02_13h00.37.123,jersey_experiment_5,2023.2.2,Win32,84.74576271,,,,,,,,,,,,,,,,222.3684,224.1682,224.1682,225.7212,return,0.5837,,76.04166667,0,48,48,33,1,FBP-YG-71.png,0.43,1.2,34,1,,,,,,,,,,,,,,,,,,,,,,,,,,,,,,,,,,,,,,,,,,,,,
,,,,,WIN24_033,20,Female,2024-02-02_13h00.37.123,jersey_experiment_5,2023.2.2,Win32,84.74576271,,,,,,,,,,,,,,,,225.7215,227.5212,227.5212,228.851,return,0.5536,,84.11458333,0,49,49,43,1,FBP-YG-91.png,0.43,1.2,44,1,,,,,,,,,,,,,,,,,,,,,,,,,,,,,,,,,,,,,,,,,,,,,
,,,,,WIN24_033,20,Female,2024-02-02_13h00.37.123,jersey_experiment_5,2023.2.2,Win32,84.74576271,,,,,,,,,,,,,,,,228.8514,230.1449,230.1449,231.8509,return,0.5234,,48.828125,0,50,50,56,1,FBP-PT-19.png,0.37,1.2,57,0.5,,,,,,,,,,,,,,,,,,,,,,,,,,,,,,,,,,,,,,,,,,,,,
,,,,,WIN24_033,20,Female,2024-02-02_13h00.37.123,jersey_experiment_5,2023.2.2,Win32,84.74576271,,,,,,,,,,,,,,,,231.8512,233.651,233.651,235.0039,return,0.5225,,77.21354167,0,51,51,23,1,FBP-RB-18.png,0.43,1.2,24,1,,,,,,,,,,,,,,,,,,,,,,,,,,,,,,,,,,,,,,,,,,,,,
,,,,,WIN24_033,20,Female,2024-02-02_13h00.37.123,jersey_experiment_5,2023.2.2,Win32,84.74576271,,,,,,,,,,,,,,,,235.0041,236.2981,236.2981,237.9923,return,0.5145,,25.78125,0,52,52,55,1,FBP-PT-19.png,0.35,1.2,56,0.5,,,,,,,,,,,,,,,,,,,,,,,,,,,,,,,,,,,,,,,,,,,,,
,,,,,WIN24_033,20,Female,2024-02-02_13h00.37.123,jersey_experiment_5,2023.2.2,Win32,84.74576271,,,,,,,,,,,,,,,,237.9926,239.7924,239.7924,240.8747,return,0.5119,,24.34895833,0,53,53,30,1,FBP-YG-71.png,0.35,1.2,31,1,,,,,,,,,,,,,,,,,,,,,,,,,,,,,,,,,,,,,,,,,,,,,
,,,,,WIN24_033,20,Female,2024-02-02_13h00.37.123,jersey_experiment_5,2023.2.2,Win32,84.74576271,,,,,,,,,,,,,,,,240.8749,242.1691,242.1692,243.6984,return,0.5062,,42.83854167,0,54,54,57,1,FBP-PT-19.png,0.4,1.2,58,0.5,,,,,,,,,,,,,,,,,,,,,,,,,,,,,,,,,,,,,,,,,,,,,
,,,,,WIN24_033,20,Female,2024-02-02_13h00.37.123,jersey_experiment_5,2023.2.2,Win32,84.74576271,,,,,,,,,,,,,,,,243.6991,245.4985,245.4985,246.7927,return,0.4892,,74.86979167,0,55,55,17,1,FBP-RB-17.png,0.4,1.2,18,1,,,,,,,,,,,,,,,,,,,,,,,,,,,,,,,,,,,,,,,,,,,,,
,,,,,WIN24_033,20,Female,2024-02-02_13h00.37.123,jersey_experiment_5,2023.2.2,Win32,84.74576271,,,,,,,,,,,,,,,,246.793,248.0867,248.0868,250.5105,return,0.755,,48.828125,0,56,56,5,1,FBP-OG-81.png,0.35,1.2,6,0.5,,,,,,,,,,,,,,,,,,,,,,,,,,,,,,,,,,,,,,,,,,,,,
,,,,,WIN24_033,20,Female,2024-02-02_13h00.37.123,jersey_experiment_5,2023.2.2,Win32,84.74576271,,,,,,,,,,,,,,,,250.5107,251.8045,251.8046,253.2165,return,0.4361,,91.53645833,0,57,57,8,1,FBP-OG-81.png,0.43,1.2,9,0.5,,,,,,,,,,,,,,,,,,,,,,,,,,,,,,,,,,,,,,,,,,,,,
,,,,,WIN24_033,20,Female,2024-02-02_13h00.37.123,jersey_experiment_5,2023.2.2,Win32,84.74576271,,,,,,,,,,,,,,,,253.217,255.0165,255.0165,256.24,return,0.507,,74.08854167,0,58,58,40,1,FBP-YG-91.png,0.35,1.2,41,1,,,,,,,,,,,,,,,,,,,,,,,,,,,,,,,,,,,,,,,,,,,,,
,,,,,WIN24_033,20,Female,2024-02-02_13h00.37.123,jersey_experiment_5,2023.2.2,Win32,84.74576271,,,,,,,,,,,,,,,,256.2405,258.0402,258.0402,259.1343,return,0.4821,,74.08854167,0,59,59,35,1,FBP-YG-81.png,0.35,1.2,36,1,,,,,,,,,,,,,,,,,,,,,,,,,,,,,,,,,,,,,,,,,,,,,
,,,,,WIN24_033,20,Female,2024-02-02_13h00.37.123,jersey_experiment_5,2023.2.2,Win32,84.74576271,,,,,,,,,,,,,,,,259.1364,260.9343,260.9344,262.0404,return,0.5025,,80.46875,,,,,,FBP-RB-71.png,0.37,1.2,17,1,0,0,0,16,1,,,,,,,,,,,,,,,,,,,,,,,,,,,,,,,,,,,,,,,,
,,,,,WIN24_033,20,Female,2024-02-02_13h00.37.123,jersey_experiment_5,2023.2.2,Win32,84.74576271,,,,,,,,,,,,,,,,262.0411,263.3345,263.3345,265.0171,return,0.4905,,99.21875,,,,,,FBP-OG-17.png,0.43,1.2,4,0.5,0,1,1,3,1,,,,,,,,,,,,,,,,,,,,,,,,,,,,,,,,,,,,,,,,
,,,,,WIN24_033,20,Female,2024-02-02_13h00.37.123,jersey_experiment_5,2023.2.2,Win32,84.74576271,,,,,,,,,,,,,,,,265.0176,266.817,266.8171,267.864,return,0.5735,,99.21875,,,,,,FBP-YG-17.png,0.43,1.2,34,1,0,2,2,33,1,,,,,,,,,,,,,,,,,,,,,,,,,,,,,,,,,,,,,,,,
,,,,,WIN24_033,20,Female,2024-02-02_13h00.37.123,jersey_experiment_5,2023.2.2,Win32,84.74576271,,,,,,,,,,,,,,,,267.8642,269.1582,269.1582,270.3702,return,0.4951,,99.21875,,,,,,FBP-PT-91.png,0.43,1.2,59,0.5,0,3,3,58,1,,,,,,,,,,,,,,,,,,,,,,,,,,,,,,,,,,,,,,,,
,,,,,WIN24_033,20,Female,2024-02-02_13h00.37.123,jersey_experiment_5,2023.2.2,Win32,84.74576271,,,,,,,,,,,,,,,,270.3707,271.6643,271.6643,273.8409,return,0.5056,,73.4375,,,,,,FBP-PT-71.png,0.35,1.2,46,0.5,0,4,4,45,1,,,,,,,,,,,,,,,,,,,,,,,,,,,,,,,,,,,,,,,,
,,,,,WIN24_033,20,Female,2024-02-02_13h00.37.123,jersey_experiment_5,2023.2.2,Win32,84.74576271,,,,,,,,,,,,,,,,273.8415,275.1349,275.1349,276.8173,return,0.5881,,74.73958333,,,,,,FBP-OG-18.png,0.4,1.2,8,0.5,0,5,5,7,1,,,,,,,,,,,,,,,,,,,,,,,,,,,,,,,,,,,,,,,,
,,,,,WIN24_033,20,Female,2024-02-02_13h00.37.123,jersey_experiment_5,2023.2.2,Win32,84.74576271,,,,,,,,,,,,,,,,276.8176,278.1115,278.1116,279.7939,return,0.4945,,98.30729167,,,,,,FBP-OG-17.png,0.4,1.2,3,0.5,0,6,6,2,1,,,,,,,,,,,,,,,,,,,,,,,,,,,,,,,,,,,,,,,,
,,,,,WIN24_033,20,Female,2024-02-02_13h00.37.123,jersey_experiment_5,2023.2.2,Win32,84.74576271,,,,,,,,,,,,,,,,279.7942,281.0879,281.088,283.6647,return,0.7761,,25.91145833,,,,,,FBP-OG-19.png,0.37,1.2,12,0.5,0,7,7,11,1,,,,,,,,,,,,,,,,,,,,,,,,,,,,,,,,,,,,,,,,
,,,,,WIN24_033,20,Female,2024-02-02_13h00.37.123,jersey_experiment_5,2023.2.2,Win32,84.74576271,,,,,,,,,,,,,,,,283.6653,285.4648,285.4649,287.1824,return,0.7191,,74.609375,,,,,,FBP-RB-91.png,0.4,1.2,28,1,0,8,8,27,1,,,,,,,,,,,,,,,,,,,,,,,,,,,,,,,,,,,,,,,,
,,,,,WIN24_033,20,Female,2024-02-02_13h00.37.123,jersey_experiment_5,2023.2.2,Win32,84.74576271,,,,,,,,,,,,,,,,287.1828,288.9825,288.9825,290.7709,return,0.8263,,74.609375,,,,,,FBP-RB-81.png,0.43,1.2,24,1,0,9,9,23,1,,,,,,,,,,,,,,,,,,,,,,,,,,,,,,,,,,,,,,,,
,,,,,WIN24_033,20,Female,2024-02-02_13h00.37.123,jersey_experiment_5,2023.2.2,Win32,84.74576271,,,,,,,,,,,,,,,,290.7711,292.0651,292.0651,293.8886,return,0.589,,50.13020833,,,,,,FBP-OG-18.png,0.37,1.2,7,0.5,0,10,10,6,1,,,,,,,,,,,,,,,,,,,,,,,,,,,,,,,,,,,,,,,,
,,,,,WIN24_033,20,Female,2024-02-02_13h00.37.123,jersey_experiment_5,2023.2.2,Win32,84.74576271,,,,,,,,,,,,,,,,293.8888,295.6887,295.6887,298.8182,return,0.6119,,99.08854167,,,,,,FBP-RB-81.png,0.45,1.2,25,1,0,11,11,24,1,,,,,,,,,,,,,,,,,,,,,,,,,,,,,,,,,,,,,,,,
,,,,,WIN24_033,20,Female,2024-02-02_13h00.37.123,jersey_experiment_5,2023.2.2,Win32,84.74576271,,,,,,,,,,,,,,,,298.8187,300.1122,300.1122,301.5007,return,0.6279,,99.08854167,,,,,,FBP-PT-71.png,0.45,1.2,50,0.5,0,12,12,49,1,,,,,,,,,,,,,,,,,,,,,,,,,,,,,,,,,,,,,,,,
,,,,,WIN24_033,20,Female,2024-02-02_13h00.37.123,jersey_experiment_5,2023.2.2,Win32,84.74576271,,,,,,,,,,,,,,,,301.501,303.3007,303.3007,305.0184,return,0.5915,,75.52083333,,,,,,FBP-YG-19.png,0.37,1.2,42,1,0,13,13,41,1,,,,,,,,,,,,,,,,,,,,,,,,,,,,,,,,,,,,,,,,
,,,,,WIN24_033,20,Female,2024-02-02_13h00.37.123,jersey_experiment_5,2023.2.2,Win32,84.74576271,,,,,,,,,,,,,,,,305.0186,306.8185,306.8186,308.4421,return,0.5239,,99.08854167,,,,,,FBP-YG-18.png,0.43,1.2,39,1,0,14,14,38,1,,,,,,,,,,,,,,,,,,,,,,,,,,,,,,,,,,,,,,,,
,,,,,WIN24_033,20,Female,2024-02-02_13h00.37.123,jersey_experiment_5,2023.2.2,Win32,84.74576271,,,,,,,,,,,,,,,,308.4428,310.242,310.242,311.7127,return,0.6354,,77.60416667,,,,,,FBP-YG-18.png,0.4,1.2,38,1,0,15,15,37,1,,,,,,,,,,,,,,,,,,,,,,,,,,,,,,,,,,,,,,,,
,,,,,WIN24_033,20,Female,2024-02-02_13h00.37.123,jersey_experiment_5,2023.2.2,Win32,84.74576271,,,,,,,,,,,,,,,,311.7128,313.513,313.513,315.0658,return,0.5684,,47.78645833,,,,,,FBP-RB-91.png,0.35,1.2,26,1,0,16,16,25,1,,,,,,,,,,,,,,,,,,,,,,,,,,,,,,,,,,,,,,,,
,,,,,WIN24_033,20,Female,2024-02-02_13h00.37.123,jersey_experiment_5,2023.2.2,Win32,84.74576271,,,,,,,,,,,,,,,,315.0661,316.8659,316.866,318.2661,return,0.5826,,25.390625,,,,,,FBP-RB-71.png,0.35,1.2,16,1,0,17,17,15,1,,,,,,,,,,,,,,,,,,,,,,,,,,,,,,,,,,,,,,,,
,,,,,WIN24_033,20,Female,2024-02-02_13h00.37.123,jersey_experiment_5,2023.2.2,Win32,84.74576271,,,,,,,,,,,,,,,,318.2664,319.5602,319.5603,321.3249,return,0.568,,74.86979167,,,,,,FBP-OG-18.png,0.43,1.2,9,0.5,0,18,18,8,1,,,,,,,,,,,,,,,,,,,,,,,,,,,,,,,,,,,,,,,,
,,,,,WIN24_033,20,Female,2024-02-02_13h00.37.123,jersey_experiment_5,2023.2.2,Win32,84.74576271,,,,,,,,,,,,,,,,321.325,323.1249,323.1251,325.0425,return,0.5968,,52.99479167,,,,,,FBP-YG-18.png,0.35,1.2,36,1,0,19,19,35,1,,,,,,,,,,,,,,,,,,,,,,,,,,,,,,,,,,,,,,,,
,,,,,WIN24_033,20,Female,2024-02-02_13h00.37.123,jersey_experiment_5,2023.2.2,Win32,84.74576271,,,,,,,,,,,,,,,,325.0426,326.8428,326.8428,328.5839,return,0.5622,,99.47916667,,,,,,FBP-RB-71.png,0.43,1.2,19,1,0,20,20,18,1,,,,,,,,,,,,,,,,,,,,,,,,,,,,,,,,,,,,,,,,
,,,,,WIN24_033,20,Female,2024-02-02_13h00.37.123,jersey_experiment_5,2023.2.2,Win32,84.74576271,,,,,,,,,,,,,,,,328.5843,330.3842,330.3843,331.4665,return,0.6535,,99.47916667,,,,,,FBP-YG-17.png,0.45,1.2,35,1,0,21,21,34,1,,,,,,,,,,,,,,,,,,,,,,,,,,,,,,,,,,,,,,,,
,,,,,WIN24_033,20,Female,2024-02-02_13h00.37.123,jersey_experiment_5,2023.2.2,Win32,84.74576271,,,,,,,,,,,,,,,,331.4669,333.2667,333.2668,334.3018,return,0.5555,,99.47916667,,,,,,FBP-RB-91.png,0.43,1.2,29,1,0,22,22,28,1,,,,,,,,,,,,,,,,,,,,,,,,,,,,,,,,,,,,,,,,
,,,,,WIN24_033,20,Female,2024-02-02_13h00.37.123,jersey_experiment_5,2023.2.2,Win32,84.74576271,,,,,,,,,,,,,,,,334.3022,335.596,335.5961,337.2667,return,0.4709,,99.47916667,,,,,,FBP-OG-19.png,0.45,1.2,15,0.5,0,23,23,14,1,,,,,,,,,,,,,,,,,,,,,,,,,,,,,,,,,,,,,,,,
,,,,,WIN24_033,20,Female,2024-02-02_13h00.37.123,jersey_experiment_5,2023.2.2,Win32,84.74576271,,,,,,,,,,,,,,,,337.2669,339.0667,339.0667,340.9728,return,0.533,,24.86979167,,,,,,FBP-RB-81.png,0.37,1.2,22,1,0,24,24,21,1,,,,,,,,,,,,,,,,,,,,,,,,,,,,,,,,,,,,,,,,
,,,,,WIN24_033,20,Female,2024-02-02_13h00.37.123,jersey_experiment_5,2023.2.2,Win32,84.74576271,,,,,,,,,,,,,,,,340.9732,342.7729,342.7729,344.1256,return,0.5091,,99.47916667,,,,,,FBP-YG-19.png,0.43,1.2,44,1,0,25,25,43,1,,,,,,,,,,,,,,,,,,,,,,,,,,,,,,,,,,,,,,,,
,,,,,WIN24_033,20,Female,2024-02-02_13h00.37.123,jersey_experiment_5,2023.2.2,Win32,84.74576271,,,,,,,,,,,,,,,,344.1259,345.4199,345.4199,346.6553,return,0.1899,,73.828125,,,,,,FBP-PT-71.png,0.4,1.2,48,0.5,0,26,26,47,1,,,,,,,,,,,,,,,,,,,,,,,,,,,,,,,,,,,,,,,,
,,,,,WIN24_033,20,Female,2024-02-02_13h00.37.123,jersey_experiment_5,2023.2.2,Win32,84.74576271,,,,,,,,,,,,,,,,346.6555,347.9495,347.9495,349.2437,return,0.1579,,25.390625,,,,,,FBP-OG-18.png,0.35,1.2,6,0.5,0,27,27,5,1,,,,,,,,,,,,,,,,,,,,,,,,,,,,,,,,,,,,,,,,
,,,,,WIN24_033,20,Female,2024-02-02_13h00.37.123,jersey_experiment_5,2023.2.2,Win32,84.74576271,,,,,,,,,,,,,,,,349.2439,350.5377,350.5377,351.3614,return,0.1318,,32.03125,,,,,,FBP-OG-17.png,0.37,1.2,2,0.5,0,28,28,1,1,,,,,,,,,,,,,,,,,,,,,,,,,,,,,,,,,,,,,,,,
,,,,,WIN24_033,20,Female,2024-02-02_13h00.37.123,jersey_experiment_5,2023.2.2,Win32,84.74576271,,,,,,,,,,,,,,,,351.3616,353.1616,353.1617,354.0322,return,0.1658,,99.86979167,,,,,,FBP-YG-18.png,0.45,1.2,40,1,0,29,29,39,1,,,,,,,,,,,,,,,,,,,,,,,,,,,,,,,,,,,,,,,,
,,,,,WIN24_033,20,Female,2024-02-02_13h00.37.123,jersey_experiment_5,2023.2.2,Win32,84.74576271,,,,,,,,,,,,,,,,354.0327,355.3265,355.3265,356.6911,return,0.1657,,75.91145833,,,,,,FBP-PT-91.png,0.37,1.2,57,0.5,0,30,30,56,1,,,,,,,,,,,,,,,,,,,,,,,,,,,,,,,,,,,,,,,,
,,,,,WIN24_033,20,Female,2024-02-02_13h00.37.123,jersey_experiment_5,2023.2.2,Win32,84.74576271,,,,,,,,,,,,,,,,356.6915,357.9851,357.9851,359.7616,return,0.1176,,50.13020833,,,,,,FBP-OG-17.png,0.35,1.2,1,0.5,0,31,31,0,1,,,,,,,,,,,,,,,,,,,,,,,,,,,,,,,,,,,,,,,,
,,,,,WIN24_033,20,Female,2024-02-02_13h00.37.123,jersey_experiment_5,2023.2.2,Win32,84.74576271,,,,,,,,,,,,,,,,359.7618,361.0557,361.0558,361.7148,return,0.1653,,50,,,,,,FBP-PT-81.png,0.37,1.2,52,0.5,0,32,32,51,1,,,,,,,,,,,,,,,,,,,,,,,,,,,,,,,,,,,,,,,,
,,,,,WIN24_033,20,Female,2024-02-02_13h00.37.123,jersey_experiment_5,2023.2.2,Win32,84.74576271,,,,,,,,,,,,,,,,361.7154,363.0089,363.0091,364.409,return,0.2903,,60.28645833,,,,,,FBP-OG-19.png,0.35,1.2,11,0.5,0,33,33,10,1,,,,,,,,,,,,,,,,,,,,,,,,,,,,,,,,,,,,,,,,
,,,,,WIN24_033,20,Female,2024-02-02_13h00.37.123,jersey_experiment_5,2023.2.2,Win32,84.74576271,,,,,,,,,,,,,,,,364.4093,365.703,365.7031,366.7619,return,0.1246,,51.69270833,,,,,,FBP-PT-91.png,0.35,1.2,56,0.5,0,34,34,55,1,,,,,,,,,,,,,,,,,,,,,,,,,,,,,,,,,,,,,,,,
,,,,,WIN24_033,20,Female,2024-02-02_13h00.37.123,jersey_experiment_5,2023.2.2,Win32,84.74576271,,,,,,,,,,,,,,,,366.7621,368.0561,368.0561,369.1033,return,0.1423,,77.47395833,,,,,,FBP-OG-19.png,0.4,1.2,13,0.5,0,35,35,12,1,,,,,,,,,,,,,,,,,,,,,,,,,,,,,,,,,,,,,,,,
,,,,,WIN24_033,20,Female,2024-02-02_13h00.37.123,jersey_experiment_5,2023.2.2,Win32,84.74576271,,,,,,,,,,,,,,,,369.1038,370.3974,370.3974,372.0797,return,0.1538,,99.34895833,,,,,,FBP-OG-18.png,0.45,1.2,10,0.5,0,36,36,9,1,,,,,,,,,,,,,,,,,,,,,,,,,,,,,,,,,,,,,,,,
,,,,,WIN24_033,20,Female,2024-02-02_13h00.37.123,jersey_experiment_5,2023.2.2,Win32,84.74576271,,,,,,,,,,,,,,,,372.08,373.3739,373.3739,374.1269,return,0.2374,,99.21875,,,,,,FBP-PT-81.png,0.43,1.2,54,0.5,0,37,37,53,1,,,,,,,,,,,,,,,,,,,,,,,,,,,,,,,,,,,,,,,,
,,,,,WIN24_033,20,Female,2024-02-02_13h00.37.123,jersey_experiment_5,2023.2.2,Win32,84.74576271,,,,,,,,,,,,,,,,374.1271,375.9269,375.9269,376.6211,return,0.2484,,99.21875,,,,,,FBP-YG-19.png,0.45,1.2,45,1,0,38,38,44,1,,,,,,,,,,,,,,,,,,,,,,,,,,,,,,,,,,,,,,,,
,,,,,WIN24_033,20,Female,2024-02-02_13h00.37.123,jersey_experiment_5,2023.2.2,Win32,84.74576271,,,,,,,,,,,,,,,,376.6214,377.9154,377.9155,378.9271,return,0.4818,,99.21875,,,,,,FBP-PT-81.png,0.45,1.2,55,0.5,0,39,39,54,1,,,,,,,,,,,,,,,,,,,,,,,,,,,,,,,,,,,,,,,,
,,,,,WIN24_033,20,Female,2024-02-02_13h00.37.123,jersey_experiment_5,2023.2.2,Win32,84.74576271,,,,,,,,,,,,,,,,378.9274,380.2212,380.2212,381.48,return,0.3112,,40.75520833,,,,,,FBP-PT-81.png,0.35,1.2,51,0.5,0,40,40,50,1,,,,,,,,,,,,,,,,,,,,,,,,,,,,,,,,,,,,,,,,
,,,,,WIN24_033,20,Female,2024-02-02_13h00.37.123,jersey_experiment_5,2023.2.2,Win32,84.74576271,,,,,,,,,,,,,,,,381.4803,382.7742,382.7742,383.8683,return,0.1218,,99.609375,,,,,,FBP-OG-17.png,0.45,1.2,5,0.5,0,41,41,4,1,,,,,,,,,,,,,,,,,,,,,,,,,,,,,,,,,,,,,,,,
,,,,,WIN24_033,20,Female,2024-02-02_13h00.37.123,jersey_experiment_5,2023.2.2,Win32,84.74576271,,,,,,,,,,,,,,,,383.8685,385.1628,385.1628,386.1273,return,0.1517,,74.21875,,,,,,FBP-PT-91.png,0.4,1.2,58,0.5,0,42,42,57,1,,,,,,,,,,,,,,,,,,,,,,,,,,,,,,,,,,,,,,,,
,,,,,WIN24_033,20,Female,2024-02-02_13h00.37.123,jersey_experiment_5,2023.2.2,Win32,84.74576271,,,,,,,,,,,,,,,,386.1276,387.422,387.4221,388.3158,return,0.1233,,93.09895833,,,,,,FBP-PT-71.png,0.43,1.2,49,0.5,0,43,43,48,1,,,,,,,,,,,,,,,,,,,,,,,,,,,,,,,,,,,,,,,,
,,,,,WIN24_033,20,Female,2024-02-02_13h00.37.123,jersey_experiment_5,2023.2.2,Win32,84.74576271,,,,,,,,,,,,,,,,388.3161,390.1161,390.1161,391.1512,return,0.1563,,55.98958333,,,,,,FBP-YG-17.png,0.37,1.2,32,1,0,44,44,31,1,,,,,,,,,,,,,,,,,,,,,,,,,,,,,,,,,,,,,,,,
,,,,,WIN24_033,20,Female,2024-02-02_13h00.37.123,jersey_experiment_5,2023.2.2,Win32,84.74576271,,,,,,,,,,,,,,,,391.1514,392.9512,392.9512,393.6924,return,0.157,,69.140625,,,,,,FBP-YG-17.png,0.4,1.2,33,1,0,45,45,32,1,,,,,,,,,,,,,,,,,,,,,,,,,,,,,,,,,,,,,,,,
,,,,,WIN24_033,20,Female,2024-02-02_13h00.37.123,jersey_experiment_5,2023.2.2,Win32,84.74576271,,,,,,,,,,,,,,,,393.6928,395.4925,395.4925,396.2218,return,0.0824,,25.65104167,,,,,,FBP-YG-17.png,0.35,1.2,31,1,0,46,46,30,1,,,,,,,,,,,,,,,,,,,,,,,,,,,,,,,,,,,,,,,,
,,,,,WIN24_033,20,Female,2024-02-02_13h00.37.123,jersey_experiment_5,2023.2.2,Win32,84.74576271,,,,,,,,,,,,,,,,396.222,398.0221,398.0221,399.0102,return,0.1677,,76.04166667,,,,,,FBP-RB-81.png,0.4,1.2,23,1,0,47,47,22,1,,,,,,,,,,,,,,,,,,,,,,,,,,,,,,,,,,,,,,,,
,,,,,WIN24_033,20,Female,2024-02-02_13h00.37.123,jersey_experiment_5,2023.2.2,Win32,84.74576271,,,,,,,,,,,,,,,,399.0104,400.8103,400.8103,401.587,return,0.0945,,99.34895833,,,,,,FBP-RB-71.png,0.45,1.2,20,1,0,48,48,19,1,,,,,,,,,,,,,,,,,,,,,,,,,,,,,,,,,,,,,,,,
,,,,,WIN24_033,20,Female,2024-02-02_13h00.37.123,jersey_experiment_5,2023.2.2,Win32,84.74576271,,,,,,,,,,,,,,,,401.5876,403.3873,403.3873,404.0928,return,0.1434,,74.86979167,,,,,,FBP-RB-71.png,0.4,1.2,18,1,0,49,49,17,1,,,,,,,,,,,,,,,,,,,,,,,,,,,,,,,,,,,,,,,,
,,,,,WIN24_033,20,Female,2024-02-02_13h00.37.123,jersey_experiment_5,2023.2.2,Win32,84.74576271,,,,,,,,,,,,,,,,404.093,405.3868,405.3869,406.6222,return,0.1766,,47.91666667,,,,,,FBP-PT-71.png,0.37,1.2,47,0.5,0,50,50,46,1,,,,,,,,,,,,,,,,,,,,,,,,,,,,,,,,,,,,,,,,
,,,,,WIN24_033,20,Female,2024-02-02_13h00.37.123,jersey_experiment_5,2023.2.2,Win32,84.74576271,,,,,,,,,,,,,,,,406.6226,408.4224,408.4224,409.1519,return,0.1072,,49.34895833,,,,,,FBP-RB-91.png,0.37,1.2,27,1,0,51,51,26,1,,,,,,,,,,,,,,,,,,,,,,,,,,,,,,,,,,,,,,,,
,,,,,WIN24_033,20,Female,2024-02-02_13h00.37.123,jersey_experiment_5,2023.2.2,Win32,84.74576271,,,,,,,,,,,,,,,,409.1524,410.9519,410.9519,411.5519,return,0.1421,,50.13020833,,,,,,FBP-YG-18.png,0.37,1.2,37,1,0,52,52,36,1,,,,,,,,,,,,,,,,,,,,,,,,,,,,,,,,,,,,,,,,
,,,,,WIN24_033,20,Female,2024-02-02_13h00.37.123,jersey_experiment_5,2023.2.2,Win32,84.74576271,,,,,,,,,,,,,,,,411.552,413.3519,413.3519,414.4933,return,0.0977,,99.08854167,,,,,,FBP-RB-91.png,0.45,1.2,30,1,0,53,53,29,1,,,,,,,,,,,,,,,,,,,,,,,,,,,,,,,,,,,,,,,,
,,,,,WIN24_033,20,Female,2024-02-02_13h00.37.123,jersey_experiment_5,2023.2.2,Win32,84.74576271,,,,,,,,,,,,,,,,414.4938,416.2935,416.2936,417.2934,return,0.1213,,75.52083333,,,,,,FBP-RB-81.png,0.35,1.2,21,1,0,54,54,20,1,,,,,,,,,,,,,,,,,,,,,,,,,,,,,,,,,,,,,,,,
,,,,,WIN24_033,20,Female,2024-02-02_13h00.37.123,jersey_experiment_5,2023.2.2,Win32,84.74576271,,,,,,,,,,,,,,,,417.2937,419.0933,419.0933,419.7758,return,0.0947,,75.52083333,,,,,,FBP-YG-19.png,0.4,1.2,43,1,0,55,55,42,1,,,,,,,,,,,,,,,,,,,,,,,,,,,,,,,,,,,,,,,,
,,,,,WIN24_033,20,Female,2024-02-02_13h00.37.123,jersey_experiment_5,2023.2.2,Win32,84.74576271,,,,,,,,,,,,,,,,419.7762,421.0698,421.0698,422.1522,return,0.0909,,81.640625,,,,,,FBP-PT-81.png,0.4,1.2,53,0.5,0,56,56,52,1,,,,,,,,,,,,,,,,,,,,,,,,,,,,,,,,,,,,,,,,
,,,,,WIN24_033,20,Female,2024-02-02_13h00.37.123,jersey_experiment_5,2023.2.2,Win32,84.74576271,,,,,,,,,,,,,,,,422.1525,423.9524,423.9525,424.5288,return,0.059,,74.73958333,,,,,,FBP-YG-19.png,0.35,1.2,41,1,0,57,57,40,1,,,,,,,,,,,,,,,,,,,,,,,,,,,,,,,,,,,,,,,,
,,,,,WIN24_033,20,Female,2024-02-02_13h00.37.123,jersey_experiment_5,2023.2.2,Win32,84.74576271,,,,,,,,,,,,,,,,424.5291,425.8229,425.823,426.7289,return,0.0907,,99.21875,,,,,,FBP-OG-19.png,0.43,1.2,14,0.5,0,58,58,13,1,,,,,,,,,,,,,,,,,,,,,,,,,,,,,,,,,,,,,,,,
,,,,,WIN24_033,20,Female,2024-02-02_13h00.37.123,jersey_experiment_5,2023.2.2,Win32,84.74576271,,,,,,,,,,,,,,,,426.7291,428.0232,428.0233,428.6584,return,0.1153,,99.34895833,,,,,,FBP-PT-91.png,0.45,1.2,60,0.5,0,59,59,59,1,,,,,,,,,,,,,,,,,,,,,,,,,,,,,,,,,,,,,,,,
,,,,,WIN24_033,20,Female,2024-02-02_13h00.37.123,jersey_experiment_5,2023.2.2,Win32,84.74576271,,,,,,,,,,,,,,,,,,,,,,,,,,,,,,,,,,,,,,,428.6591,548.6636,,,,,,,,,,,,,,,,,,,,,,,,,,,,,,,,,,,,,,
,,,,,WIN24_033,20,Female,2024-02-02_13h00.37.123,jersey_experiment_5,2023.2.2,Win32,84.74576271,,,,,,,,,,,,,,,,,,,,,,,,,,,,,,,,,,,,,,,,,548.6638,554.3223,return,5.6418,,,,,,,,,,,,,,,,,,,,,,,,,,,,,,,,,,
,,,,,WIN24_033,20,Female,2024-02-02_13h00.37.123,jersey_experiment_5,2023.2.2,Win32,84.74576271,,,,,,,,,,,,,,,,554.3283,556.1222,556.1222,558.44,return,0.7144,,99.609375,,,,,,FBP-OG-81.png,0.45,1.2,10,1,,,,,,,,,,,,,0,0,0,9,1,,,,,,,,,,,,,,,,,,,,,,,,,,,,
,,,,,WIN24_033,20,Female,2024-02-02_13h00.37.123,jersey_experiment_5,2023.2.2,Win32,84.74576271,,,,,,,,,,,,,,,,558.4405,559.7339,559.7339,560.781,return,0.1186,,91.53645833,,,,,,FBP-YG-91.png,0.43,1.2,44,0.5,,,,,,,,,,,,,0,1,1,43,1,,,,,,,,,,,,,,,,,,,,,,,,,,,,
,,,,,WIN24_033,20,Female,2024-02-02_13h00.37.123,jersey_experiment_5,2023.2.2,Win32,84.74576271,,,,,,,,,,,,,,,,560.7812,562.0753,562.0753,563.0516,return,0.1319,,74.47916667,,,,,,FBP-YG-91.png,0.4,1.2,43,0.5,,,,,,,,,,,,,0,2,2,42,1,,,,,,,,,,,,,,,,,,,,,,,,,,,,
,,,,,WIN24_033,20,Female,2024-02-02_13h00.37.123,jersey_experiment_5,2023.2.2,Win32,84.74576271,,,,,,,,,,,,,,,,563.0519,564.3458,564.3458,566.0753,return,0.1585,,99.21875,,,,,,FBP-RB-17.png,0.45,1.2,20,0.5,,,,,,,,,,,,,0,3,3,19,1,,,,,,,,,,,,,,,,,,,,,,,,,,,,
,,,,,WIN24_033,20,Female,2024-02-02_13h00.37.123,jersey_experiment_5,2023.2.2,Win32,84.74576271,,,,,,,,,,,,,,,,566.0756,567.3697,567.3697,567.9695,return,0.1769,,99.08854167,,,,,,FBP-RB-18.png,0.43,1.2,24,0.5,,,,,,,,,,,,,0,4,4,23,1,,,,,,,,,,,,,,,,,,,,,,,,,,,,
,,,,,WIN24_033,20,Female,2024-02-02_13h00.37.123,jersey_experiment_5,2023.2.2,Win32,84.74576271,,,,,,,,,,,,,,,,567.9698,569.7696,569.7697,570.5697,return,0.1605,,74.34895833,,,,,,FBP-PT-19.png,0.4,1.2,58,1,,,,,,,,,,,,,0,5,5,57,1,,,,,,,,,,,,,,,,,,,,,,,,,,,,
,,,,,WIN24_033,20,Female,2024-02-02_13h00.37.123,jersey_experiment_5,2023.2.2,Win32,84.74576271,,,,,,,,,,,,,,,,570.5699,571.8639,571.8639,573.5226,return,0.1647,,98.95833333,,,,,,FBP-RB-19.png,0.45,1.2,30,0.5,,,,,,,,,,,,,0,6,6,29,1,,,,,,,,,,,,,,,,,,,,,,,,,,,,
,,,,,WIN24_033,20,Female,2024-02-02_13h00.37.123,jersey_experiment_5,2023.2.2,Win32,84.74576271,,,,,,,,,,,,,,,,573.523,575.3228,575.3229,576.3346,return,0.2354,,24.73958333,,,,,,FBP-PT-18.png,0.35,1.2,51,1,,,,,,,,,,,,,0,7,7,50,1,,,,,,,,,,,,,,,,,,,,,,,,,,,,
,,,,,WIN24_033,20,Female,2024-02-02_13h00.37.123,jersey_experiment_5,2023.2.2,Win32,84.74576271,,,,,,,,,,,,,,,,576.3349,578.1345,578.1345,578.9581,return,0.1439,,19.79166667,,,,,,FBP-OG-81.png,0.35,1.2,6,1,,,,,,,,,,,,,0,8,8,5,1,,,,,,,,,,,,,,,,,,,,,,,,,,,,
,,,,,WIN24_033,20,Female,2024-02-02_13h00.37.123,jersey_experiment_5,2023.2.2,Win32,84.74576271,,,,,,,,,,,,,,,,578.9585,580.2523,580.2523,581.0878,return,0.1085,,26.30208333,,,,,,FBP-YG-71.png,0.37,1.2,32,0.5,,,,,,,,,,,,,0,9,9,31,1,,,,,,,,,,,,,,,,,,,,,,,,,,,,
,,,,,WIN24_033,20,Female,2024-02-02_13h00.37.123,jersey_experiment_5,2023.2.2,Win32,84.74576271,,,,,,,,,,,,,,,,581.088,582.888,582.888,583.7113,return,0.1637,,37.63020833,,,,,,FBP-PT-17.png,0.35,1.2,46,1,,,,,,,,,,,,,0,10,10,45,1,,,,,,,,,,,,,,,,,,,,,,,,,,,,
,,,,,WIN24_033,20,Female,2024-02-02_13h00.37.123,jersey_experiment_5,2023.2.2,Win32,84.74576271,,,,,,,,,,,,,,,,583.7115,585.0055,585.0056,585.8997,return,0.1705,,49.08854167,,,,,,FBP-RB-18.png,0.37,1.2,22,0.5,,,,,,,,,,,,,0,11,11,21,1,,,,,,,,,,,,,,,,,,,,,,,,,,,,
,,,,,WIN24_033,20,Female,2024-02-02_13h00.37.123,jersey_experiment_5,2023.2.2,Win32,84.74576271,,,,,,,,,,,,,,,,585.9,587.6998,587.6999,588.394,return,0.1363,,76.04166667,,,,,,FBP-OG-81.png,0.4,1.2,8,1,,,,,,,,,,,,,0,12,12,7,1,,,,,,,,,,,,,,,,,,,,,,,,,,,,
,,,,,WIN24_033,20,Female,2024-02-02_13h00.37.123,jersey_experiment_5,2023.2.2,Win32,84.74576271,,,,,,,,,,,,,,,,588.3942,589.6881,589.6882,591.1351,return,0.1995,,99.73958333,,,,,,FBP-YG-81.png,0.45,1.2,40,0.5,,,,,,,,,,,,,0,13,13,39,1,,,,,,,,,,,,,,,,,,,,,,,,,,,,
,,,,,WIN24_033,20,Female,2024-02-02_13h00.37.123,jersey_experiment_5,2023.2.2,Win32,84.74576271,,,,,,,,,,,,,,,,591.1354,592.9353,592.9353,593.7588,return,0.2016,,99.47916667,,,,,,FBP-PT-19.png,0.43,1.2,59,1,,,,,,,,,,,,,0,14,14,58,1,,,,,,,,,,,,,,,,,,,,,,,,,,,,
,,,,,WIN24_033,20,Female,2024-02-02_13h00.37.123,jersey_experiment_5,2023.2.2,Win32,84.74576271,,,,,,,,,,,,,,,,593.7591,595.5589,595.559,596.2412,return,0.1188,,85.41666667,,,,,,FBP-PT-18.png,0.4,1.2,53,1,,,,,,,,,,,,,0,15,15,52,1,,,,,,,,,,,,,,,,,,,,,,,,,,,,
,,,,,WIN24_033,20,Female,2024-02-02_13h00.37.123,jersey_experiment_5,2023.2.2,Win32,84.74576271,,,,,,,,,,,,,,,,596.2413,597.5353,597.5353,598.5473,return,0.2122,,99.47916667,,,,,,FBP-RB-18.png,0.45,1.2,25,0.5,,,,,,,,,,,,,0,16,16,24,1,,,,,,,,,,,,,,,,,,,,,,,,,,,,
,,,,,WIN24_033,20,Female,2024-02-02_13h00.37.123,jersey_experiment_5,2023.2.2,Win32,84.74576271,,,,,,,,,,,,,,,,598.5479,600.3473,600.3473,601.0062,return,0.202,,99.47916667,,,,,,FBP-OG-91.png,0.45,1.2,15,1,,,,,,,,,,,,,0,17,17,14,1,,,,,,,,,,,,,,,,,,,,,,,,,,,,
,,,,,WIN24_033,20,Female,2024-02-02_13h00.37.123,jersey_experiment_5,2023.2.2,Win32,84.74576271,,,,,,,,,,,,,,,,601.0065,602.806,602.8061,603.6886,return,0.138,,74.34895833,,,,,,FBP-OG-91.png,0.4,1.2,13,1,,,,,,,,,,,,,0,18,18,12,1,,,,,,,,,,,,,,,,,,,,,,,,,,,,
,,,,,WIN24_033,20,Female,2024-02-02_13h00.37.123,jersey_experiment_5,2023.2.2,Win32,84.74576271,,,,,,,,,,,,,,,,603.6888,604.9826,604.9826,606.7003,return,0.1106,,69.40104167,,,,,,FBP-RB-19.png,0.37,1.2,27,0.5,,,,,,,,,,,,,0,19,19,26,1,,,,,,,,,,,,,,,,,,,,,,,,,,,,
,,,,,WIN24_033,20,Female,2024-02-02_13h00.37.123,jersey_experiment_5,2023.2.2,Win32,84.74576271,,,,,,,,,,,,,,,,606.7005,608.5005,608.5005,609.2181,return,0.1154,,43.22916667,,,,,,FBP-OG-81.png,0.37,1.2,7,1,,,,,,,,,,,,,0,20,20,6,1,,,,,,,,,,,,,,,,,,,,,,,,,,,,
,,,,,WIN24_033,20,Female,2024-02-02_13h00.37.123,jersey_experiment_5,2023.2.2,Win32,84.74576271,,,,,,,,,,,,,,,,609.2184,610.5126,610.5126,611.3358,return,0.1384,,49.609375,,,,,,FBP-RB-17.png,0.4,1.2,18,0.5,,,,,,,,,,,,,0,21,21,17,1,,,,,,,,,,,,,,,,,,,,,,,,,,,,
,,,,,WIN24_033,20,Female,2024-02-02_13h00.37.123,jersey_experiment_5,2023.2.2,Win32,84.74576271,,,,,,,,,,,,,,,,611.336,613.1359,613.1359,613.7125,return,0.1655,,49.609375,,,,,,FBP-PT-19.png,0.35,1.2,56,1,,,,,,,,,,,,,0,22,22,55,1,,,,,,,,,,,,,,,,,,,,,,,,,,,,
,,,,,WIN24_033,20,Female,2024-02-02_13h00.37.123,jersey_experiment_5,2023.2.2,Win32,84.74576271,,,,,,,,,,,,,,,,613.7128,615.5125,615.5125,616.089,return,0.173,,49.609375,,,,,,FBP-PT-19.png,0.37,1.2,57,1,,,,,,,,,,,,,0,23,23,56,1,,,,,,,,,,,,,,,,,,,,,,,,,,,,
,,,,,WIN24_033,20,Female,2024-02-02_13h00.37.123,jersey_experiment_5,2023.2.2,Win32,84.74576271,,,,,,,,,,,,,,,,616.0893,617.3832,617.3832,618.2066,return,0.0703,,55.33854167,,,,,,FBP-YG-91.png,0.37,1.2,42,0.5,,,,,,,,,,,,,0,24,24,41,1,,,,,,,,,,,,,,,,,,,,,,,,,,,,
,,,,,WIN24_033,20,Female,2024-02-02_13h00.37.123,jersey_experiment_5,2023.2.2,Win32,84.74576271,,,,,,,,,,,,,,,,618.2069,620.0069,620.0069,620.7127,return,0.0557,,74.21875,,,,,,FBP-PT-17.png,0.4,1.2,48,1,,,,,,,,,,,,,0,25,25,47,1,,,,,,,,,,,,,,,,,,,,,,,,,,,,
,,,,,WIN24_033,20,Female,2024-02-02_13h00.37.123,jersey_experiment_5,2023.2.2,Win32,84.74576271,,,,,,,,,,,,,,,,620.7129,622.5128,622.5128,623.1479,return,0.1466,,49.34895833,,,,,,FBP-OG-71.png,0.35,1.2,1,1,,,,,,,,,,,,,0,26,26,0,1,,,,,,,,,,,,,,,,,,,,,,,,,,,,
,,,,,WIN24_033,20,Female,2024-02-02_13h00.37.123,jersey_experiment_5,2023.2.2,Win32,84.74576271,,,,,,,,,,,,,,,,623.1482,624.9483,624.9483,625.8893,return,0.1413,,99.609375,,,,,,FBP-PT-17.png,0.43,1.2,49,1,,,,,,,,,,,,,0,27,27,48,1,,,,,,,,,,,,,,,,,,,,,,,,,,,,
,,,,,WIN24_033,20,Female,2024-02-02_13h00.37.123,jersey_experiment_5,2023.2.2,Win32,84.74576271,,,,,,,,,,,,,,,,625.8896,627.1835,627.1835,628.1601,return,0.1658,,98.95833333,,,,,,FBP-RB-17.png,0.43,1.2,19,0.5,,,,,,,,,,,,,0,28,28,18,1,,,,,,,,,,,,,,,,,,,,,,,,,,,,
,,,,,WIN24_033,20,Female,2024-02-02_13h00.37.123,jersey_experiment_5,2023.2.2,Win32,84.74576271,,,,,,,,,,,,,,,,628.1605,629.9601,629.9601,630.5719,return,0.1463,,99.34895833,,,,,,FBP-OG-81.png,0.43,1.2,9,1,,,,,,,,,,,,,0,29,29,8,1,,,,,,,,,,,,,,,,,,,,,,,,,,,,
,,,,,WIN24_033,20,Female,2024-02-02_13h00.37.123,jersey_experiment_5,2023.2.2,Win32,84.74576271,,,,,,,,,,,,,,,,630.5722,632.3723,632.3723,632.9603,return,0.1775,,99.34895833,,,,,,FBP-PT-18.png,0.45,1.2,55,1,,,,,,,,,,,,,0,30,30,54,1,,,,,,,,,,,,,,,,,,,,,,,,,,,,
,,,,,WIN24_033,20,Female,2024-02-02_13h00.37.123,jersey_experiment_5,2023.2.2,Win32,84.74576271,,,,,,,,,,,,,,,,632.9606,634.7604,634.7604,636.2074,return,0.0616,,25.390625,,,,,,FBP-OG-91.png,0.35,1.2,11,1,,,,,,,,,,,,,0,31,31,10,1,,,,,,,,,,,,,,,,,,,,,,,,,,,,
,,,,,WIN24_033,20,Female,2024-02-02_13h00.37.123,jersey_experiment_5,2023.2.2,Win32,84.74576271,,,,,,,,,,,,,,,,636.2077,637.5015,637.5016,638.2075,return,0.2014,,25.78125,,,,,,FBP-RB-18.png,0.35,1.2,21,0.5,,,,,,,,,,,,,0,32,32,20,1,,,,,,,,,,,,,,,,,,,,,,,,,,,,
,,,,,WIN24_033,20,Female,2024-02-02_13h00.37.123,jersey_experiment_5,2023.2.2,Win32,84.74576271,,,,,,,,,,,,,,,,638.2077,639.5017,639.5017,640.1369,return,0.1231,,25.65104167,,,,,,FBP-RB-19.png,0.35,1.2,26,0.5,,,,,,,,,,,,,0,33,33,25,1,,,,,,,,,,,,,,,,,,,,,,,,,,,,
,,,,,WIN24_033,20,Female,2024-02-02_13h00.37.123,jersey_experiment_5,2023.2.2,Win32,84.74576271,,,,,,,,,,,,,,,,640.1372,641.937,641.9371,642.7489,return,0.0631,,58.203125,,,,,,FBP-OG-91.png,0.37,1.2,12,1,,,,,,,,,,,,,0,34,34,11,1,,,,,,,,,,,,,,,,,,,,,,,,,,,,
,,,,,WIN24_033,20,Female,2024-02-02_13h00.37.123,jersey_experiment_5,2023.2.2,Win32,84.74576271,,,,,,,,,,,,,,,,642.7492,644.0433,644.0433,644.8076,return,0.0327,,24.609375,,,,,,FBP-YG-91.png,0.35,1.2,41,0.5,,,,,,,,,,,,,0,35,35,40,1,,,,,,,,,,,,,,,,,,,,,,,,,,,,
,,,,,WIN24_033,20,Female,2024-02-02_13h00.37.123,jersey_experiment_5,2023.2.2,Win32,84.74576271,,,,,,,,,,,,,,,,644.8079,646.1018,646.1018,647.6314,return,0.1076,,99.34895833,,,,,,FBP-RB-19.png,0.4,1.2,28,0.5,,,,,,,,,,,,,0,36,36,27,1,,,,,,,,,,,,,,,,,,,,,,,,,,,,
,,,,,WIN24_033,20,Female,2024-02-02_13h00.37.123,jersey_experiment_5,2023.2.2,Win32,84.74576271,,,,,,,,,,,,,,,,647.6316,649.4316,649.4316,650.0433,return,0.0994,,99.21875,,,,,,FBP-OG-71.png,0.43,1.2,4,1,,,,,,,,,,,,,0,37,37,3,1,,,,,,,,,,,,,,,,,,,,,,,,,,,,
,,,,,WIN24_033,20,Female,2024-02-02_13h00.37.123,jersey_experiment_5,2023.2.2,Win32,84.74576271,,,,,,,,,,,,,,,,650.0436,651.3373,651.3374,652.1728,return,0.2274,,99.73958333,,,,,,FBP-RB-19.png,0.43,1.2,29,0.5,,,,,,,,,,,,,0,38,38,28,1,,,,,,,,,,,,,,,,,,,,,,,,,,,,
,,,,,WIN24_033,20,Female,2024-02-02_13h00.37.123,jersey_experiment_5,2023.2.2,Win32,84.74576271,,,,,,,,,,,,,,,,652.1731,653.4669,653.4669,654.267,return,0.124,,81.77083333,,,,,,FBP-YG-71.png,0.4,1.2,33,0.5,,,,,,,,,,,,,0,39,39,32,1,,,,,,,,,,,,,,,,,,,,,,,,,,,,
,,,,,WIN24_033,20,Female,2024-02-02_13h00.37.123,jersey_experiment_5,2023.2.2,Win32,84.74576271,,,,,,,,,,,,,,,,654.2672,656.067,656.067,656.8082,return,0.1856,,98.69791667,,,,,,FBP-PT-18.png,0.43,1.2,54,1,,,,,,,,,,,,,0,40,40,53,1,,,,,,,,,,,,,,,,,,,,,,,,,,,,
,,,,,WIN24_033,20,Female,2024-02-02_13h00.37.123,jersey_experiment_5,2023.2.2,Win32,84.74576271,,,,,,,,,,,,,,,,656.8084,658.1023,658.1023,658.9612,return,0.0823,,65.88541667,,,,,,FBP-RB-17.png,0.37,1.2,17,0.5,,,,,,,,,,,,,0,41,41,16,1,,,,,,,,,,,,,,,,,,,,,,,,,,,,
,,,,,WIN24_033,20,Female,2024-02-02_13h00.37.123,jersey_experiment_5,2023.2.2,Win32,84.74576271,,,,,,,,,,,,,,,,658.9614,660.7613,660.7613,661.3614,return,0.1064,,75.91145833,,,,,,FBP-OG-71.png,0.4,1.2,3,1,,,,,,,,,,,,,0,42,42,2,1,,,,,,,,,,,,,,,,,,,,,,,,,,,,
,,,,,WIN24_033,20,Female,2024-02-02_13h00.37.123,jersey_experiment_5,2023.2.2,Win32,84.74576271,,,,,,,,,,,,,,,,661.362,663.1616,663.1617,664.338,return,0.2712,,98.56770833,,,,,,FBP-OG-91.png,0.43,1.2,14,1,,,,,,,,,,,,,0,43,43,13,1,,,,,,,,,,,,,,,,,,,,,,,,,,,,
,,,,,WIN24_033,20,Female,2024-02-02_13h00.37.123,jersey_experiment_5,2023.2.2,Win32,84.74576271,,,,,,,,,,,,,,,,664.3383,665.632,665.632,666.385,return,0.0586,,86.06770833,,,,,,FBP-RB-18.png,0.4,1.2,23,0.5,,,,,,,,,,,,,0,44,44,22,1,,,,,,,,,,,,,,,,,,,,,,,,,,,,
,,,,,WIN24_033,20,Female,2024-02-02_13h00.37.123,jersey_experiment_5,2023.2.2,Win32,84.74576271,,,,,,,,,,,,,,,,666.3852,667.6792,667.6793,668.9852,return,0.3021,,99.21875,,,,,,FBP-YG-71.png,0.43,1.2,34,0.5,,,,,,,,,,,,,0,45,45,33,1,,,,,,,,,,,,,,,,,,,,,,,,,,,,
,,,,,WIN24_033,20,Female,2024-02-02_13h00.37.123,jersey_experiment_5,2023.2.2,Win32,84.74576271,,,,,,,,,,,,,,,,668.9855,670.2793,670.2793,671.1382,return,0.0672,,73.95833333,,,,,,FBP-YG-81.png,0.37,1.2,37,0.5,,,,,,,,,,,,,0,46,46,36,1,,,,,,,,,,,,,,,,,,,,,,,,,,,,
,,,,,WIN24_033,20,Female,2024-02-02_13h00.37.123,jersey_experiment_5,2023.2.2,Win32,84.74576271,,,,,,,,,,,,,,,,671.1385,672.9385,672.9385,673.7735,return,0.1451,,99.73958333,,,,,,FBP-OG-71.png,0.45,1.2,5,1,,,,,,,,,,,,,0,47,47,4,1,,,,,,,,,,,,,,,,,,,,,,,,,,,,
,,,,,WIN24_033,20,Female,2024-02-02_13h00.37.123,jersey_experiment_5,2023.2.2,Win32,84.74576271,,,,,,,,,,,,,,,,673.7736,675.0677,675.0678,676.3619,return,0.089,,31.77083333,,,,,,FBP-RB-17.png,0.35,1.2,16,0.5,,,,,,,,,,,,,0,48,48,15,1,,,,,,,,,,,,,,,,,,,,,,,,,,,,
,,,,,WIN24_033,20,Female,2024-02-02_13h00.37.123,jersey_experiment_5,2023.2.2,Win32,84.74576271,,,,,,,,,,,,,,,,676.3624,678.162,678.1621,678.809,return,0.1375,,25,,,,,,FBP-OG-71.png,0.37,1.2,2,1,,,,,,,,,,,,,0,49,49,1,1,,,,,,,,,,,,,,,,,,,,,,,,,,,,
,,,,,WIN24_033,20,Female,2024-02-02_13h00.37.123,jersey_experiment_5,2023.2.2,Win32,84.74576271,,,,,,,,,,,,,,,,678.8093,680.6093,680.6094,681.5856,return,0.0824,,89.97395833,,,,,,FBP-PT-19.png,0.45,1.2,60,1,,,,,,,,,,,,,0,50,50,59,1,,,,,,,,,,,,,,,,,,,,,,,,,,,,
,,,,,WIN24_033,20,Female,2024-02-02_13h00.37.123,jersey_experiment_5,2023.2.2,Win32,84.74576271,,,,,,,,,,,,,,,,681.5858,682.8798,682.8798,684.2329,return,0.1374,,99.47916667,,,,,,FBP-YG-81.png,0.43,1.2,39,0.5,,,,,,,,,,,,,0,51,51,38,1,,,,,,,,,,,,,,,,,,,,,,,,,,,,
,,,,,WIN24_033,20,Female,2024-02-02_13h00.37.123,jersey_experiment_5,2023.2.2,Win32,84.74576271,,,,,,,,,,,,,,,,684.2334,686.0329,686.0329,686.7859,return,0.2598,,99.609375,,,,,,FBP-PT-17.png,0.45,1.2,50,1,,,,,,,,,,,,,0,52,52,49,1,,,,,,,,,,,,,,,,,,,,,,,,,,,,
,,,,,WIN24_033,20,Female,2024-02-02_13h00.37.123,jersey_experiment_5,2023.2.2,Win32,84.74576271,,,,,,,,,,,,,,,,686.7861,688.0799,688.0799,689.4212,return,0.1898,,74.86979167,,,,,,FBP-YG-81.png,0.4,1.2,38,0.5,,,,,,,,,,,,,0,53,53,37,1,,,,,,,,,,,,,,,,,,,,,,,,,,,,
,,,,,WIN24_033,20,Female,2024-02-02_13h00.37.123,jersey_experiment_5,2023.2.2,Win32,84.74576271,,,,,,,,,,,,,,,,689.4214,690.7156,690.7156,691.6568,return,0.1616,,98.69791667,,,,,,FBP-YG-91.png,0.45,1.2,45,0.5,,,,,,,,,,,,,0,54,54,44,1,,,,,,,,,,,,,,,,,,,,,,,,,,,,
,,,,,WIN24_033,20,Female,2024-02-02_13h00.37.123,jersey_experiment_5,2023.2.2,Win32,84.74576271,,,,,,,,,,,,,,,,691.6573,692.9508,692.9508,693.6567,return,0.1376,,99.34895833,,,,,,FBP-YG-71.png,0.45,1.2,35,0.5,,,,,,,,,,,,,0,55,55,34,1,,,,,,,,,,,,,,,,,,,,,,,,,,,,
,,,,,WIN24_033,20,Female,2024-02-02_13h00.37.123,jersey_experiment_5,2023.2.2,Win32,84.74576271,,,,,,,,,,,,,,,,693.657,695.4569,695.457,696.3863,return,0.119,,70.57291667,,,,,,FBP-PT-18.png,0.37,1.2,52,1,,,,,,,,,,,,,0,56,56,51,1,,,,,,,,,,,,,,,,,,,,,,,,,,,,
,,,,,WIN24_033,20,Female,2024-02-02_13h00.37.123,jersey_experiment_5,2023.2.2,Win32,84.74576271,,,,,,,,,,,,,,,,696.3865,697.6801,697.6801,698.6685,return,0.0869,,24.21875,,,,,,FBP-YG-81.png,0.35,1.2,36,0.5,,,,,,,,,,,,,0,57,57,35,1,,,,,,,,,,,,,,,,,,,,,,,,,,,,
,,,,,WIN24_033,20,Female,2024-02-02_13h00.37.123,jersey_experiment_5,2023.2.2,Win32,84.74576271,,,,,,,,,,,,,,,,698.6687,700.4687,700.4688,701.151,return,0.1433,,23.828125,,,,,,FBP-PT-17.png,0.37,1.2,47,1,,,,,,,,,,,,,0,58,58,46,1,,,,,,,,,,,,,,,,,,,,,,,,,,,,
,,,,,WIN24_033,20,Female,2024-02-02_13h00.37.123,jersey_experiment_5,2023.2.2,Win32,84.74576271,,,,,,,,,,,,,,,,701.1512,702.4452,702.4453,703.3039,return,0.0677,,16.66666667,,,,,,FBP-YG-71.png,0.35,1.2,31,0.5,,,,,,,,,,,,,0,59,59,30,1,,,,,,,,,,,,,,,,,,,,,,,,,,,,
,,,,,WIN24_033,20,Female,2024-02-02_13h00.37.123,jersey_experiment_5,2023.2.2,Win32,84.74576271,,,,,,,,,,,,,,,,703.3053,705.1041,705.1041,705.8806,return,0.1827,,18.61979167,,,,,,FBP-PT-81.png,0.35,1.2,51,1,,,,,,,,,,,,,,,,,,0,0,0,50,1,,,,,,,,,,,,,,,,,,,,,,,
,,,,,WIN24_033,20,Female,2024-02-02_13h00.37.123,jersey_experiment_5,2023.2.2,Win32,84.74576271,,,,,,,,,,,,,,,,705.881,707.6811,707.6811,708.3043,return,0.0589,,40.234375,,,,,,FBP-PT-91.png,0.37,1.2,57,1,,,,,,,,,,,,,,,,,,0,1,1,56,1,,,,,,,,,,,,,,,,,,,,,,,
,,,,,WIN24_033,20,Female,2024-02-02_13h00.37.123,jersey_experiment_5,2023.2.2,Win32,84.74576271,,,,,,,,,,,,,,,,708.3045,710.1047,710.1047,710.8103,return,0.124,,60.02604167,,,,,,FBP-PT-71.png,0.4,1.2,48,1,,,,,,,,,,,,,,,,,,0,2,2,47,1,,,,,,,,,,,,,,,,,,,,,,,
,,,,,WIN24_033,20,Female,2024-02-02_13h00.37.123,jersey_experiment_5,2023.2.2,Win32,84.74576271,,,,,,,,,,,,,,,,710.8109,712.1046,712.1046,713.5986,return,0.1297,,99.73958333,,,,,,FBP-RB-81.png,0.45,1.2,25,0.5,,,,,,,,,,,,,,,,,,0,3,3,24,1,,,,,,,,,,,,,,,,,,,,,,,
,,,,,WIN24_033,20,Female,2024-02-02_13h00.37.123,jersey_experiment_5,2023.2.2,Win32,84.74576271,,,,,,,,,,,,,,,,713.5988,715.3986,715.3986,716.3635,return,0.1708,,78.77604167,,,,,,FBP-OG-19.png,0.4,1.2,13,1,,,,,,,,,,,,,,,,,,0,4,4,12,1,,,,,,,,,,,,,,,,,,,,,,,
,,,,,WIN24_033,20,Female,2024-02-02_13h00.37.123,jersey_experiment_5,2023.2.2,Win32,84.74576271,,,,,,,,,,,,,,,,716.3638,717.6574,717.6575,718.881,return,0.0941,,25.13020833,,,,,,FBP-YG-18.png,0.37,1.2,37,0.5,,,,,,,,,,,,,,,,,,0,5,5,36,1,,,,,,,,,,,,,,,,,,,,,,,
,,,,,WIN24_033,20,Female,2024-02-02_13h00.37.123,jersey_experiment_5,2023.2.2,Win32,84.74576271,,,,,,,,,,,,,,,,718.8813,720.6814,720.6815,721.4227,return,0.1998,,98.95833333,,,,,,FBP-PT-91.png,0.43,1.2,59,1,,,,,,,,,,,,,,,,,,0,6,6,58,1,,,,,,,,,,,,,,,,,,,,,,,
,,,,,WIN24_033,20,Female,2024-02-02_13h00.37.123,jersey_experiment_5,2023.2.2,Win32,84.74576271,,,,,,,,,,,,,,,,721.423,722.7166,722.7166,723.7401,return,0.111,,98.95833333,,,,,,FBP-YG-19.png,0.45,1.2,45,0.5,,,,,,,,,,,,,,,,,,0,7,7,44,1,,,,,,,,,,,,,,,,,,,,,,,
,,,,,WIN24_033,20,Female,2024-02-02_13h00.37.123,jersey_experiment_5,2023.2.2,Win32,84.74576271,,,,,,,,,,,,,,,,723.7405,725.5404,725.5404,726.5519,return,0.197,,72.91666667,,,,,,FBP-OG-17.png,0.4,1.2,3,1,,,,,,,,,,,,,,,,,,0,8,8,2,1,,,,,,,,,,,,,,,,,,,,,,,
,,,,,WIN24_033,20,Female,2024-02-02_13h00.37.123,jersey_experiment_5,2023.2.2,Win32,84.74576271,,,,,,,,,,,,,,,,726.5522,727.8461,727.8461,728.7168,return,0.0751,,75,,,,,,FBP-YG-17.png,0.4,1.2,33,0.5,,,,,,,,,,,,,,,,,,0,9,9,32,1,,,,,,,,,,,,,,,,,,,,,,,
,,,,,WIN24_033,20,Female,2024-02-02_13h00.37.123,jersey_experiment_5,2023.2.2,Win32,84.74576271,,,,,,,,,,,,,,,,728.7173,730.5169,730.5169,731.0111,return,0.0712,,91.015625,,,,,,FBP-OG-19.png,0.43,1.2,14,1,,,,,,,,,,,,,,,,,,0,10,10,13,1,,,,,,,,,,,,,,,,,,,,,,,
,,,,,WIN24_033,20,Female,2024-02-02_13h00.37.123,jersey_experiment_5,2023.2.2,Win32,84.74576271,,,,,,,,,,,,,,,,731.0114,732.8112,732.8113,733.5052,return,0.2254,,99.21875,,,,,,FBP-OG-19.png,0.45,1.2,15,1,,,,,,,,,,,,,,,,,,0,11,11,14,1,,,,,,,,,,,,,,,,,,,,,,,
,,,,,WIN24_033,20,Female,2024-02-02_13h00.37.123,jersey_experiment_5,2023.2.2,Win32,84.74576271,,,,,,,,,,,,,,,,733.5055,735.3053,735.3054,736.3993,return,0.2486,,72.65625,,,,,,FBP-OG-17.png,0.37,1.2,2,1,,,,,,,,,,,,,,,,,,0,12,12,1,1,,,,,,,,,,,,,,,,,,,,,,,
,,,,,WIN24_033,20,Female,2024-02-02_13h00.37.123,jersey_experiment_5,2023.2.2,Win32,84.74576271,,,,,,,,,,,,,,,,736.3998,737.6937,737.6937,738.6585,return,0.0941,,58.46354167,,,,,,FBP-RB-71.png,0.37,1.2,17,0.5,,,,,,,,,,,,,,,,,,0,13,13,16,1,,,,,,,,,,,,,,,,,,,,,,,
,,,,,WIN24_033,20,Female,2024-02-02_13h00.37.123,jersey_experiment_5,2023.2.2,Win32,84.74576271,,,,,,,,,,,,,,,,738.659,740.4585,740.4586,741.0701,return,0.1091,,88.15104167,,,,,,FBP-PT-91.png,0.4,1.2,58,1,,,,,,,,,,,,,,,,,,0,14,14,57,1,,,,,,,,,,,,,,,,,,,,,,,
,,,,,WIN24_033,20,Female,2024-02-02_13h00.37.123,jersey_experiment_5,2023.2.2,Win32,84.74576271,,,,,,,,,,,,,,,,741.0704,742.3644,742.3645,743.3056,return,0.1461,,98.69791667,,,,,,FBP-YG-18.png,0.45,1.2,40,0.5,,,,,,,,,,,,,,,,,,0,15,15,39,1,,,,,,,,,,,,,,,,,,,,,,,
,,,,,WIN24_033,20,Female,2024-02-02_13h00.37.123,jersey_experiment_5,2023.2.2,Win32,84.74576271,,,,,,,,,,,,,,,,743.3058,745.1056,745.1056,745.8587,return,0.1304,,26.30208333,,,,,,FBP-PT-71.png,0.35,1.2,46,1,,,,,,,,,,,,,,,,,,0,16,16,45,1,,,,,,,,,,,,,,,,,,,,,,,
,,,,,WIN24_033,20,Female,2024-02-02_13h00.37.123,jersey_experiment_5,2023.2.2,Win32,84.74576271,,,,,,,,,,,,,,,,745.8587,747.1536,747.1536,747.9647,return,0.028,,94.27083333,,,,,,FBP-RB-71.png,0.43,1.2,19,0.5,,,,,,,,,,,,,,,,,,0,17,17,18,1,,,,,,,,,,,,,,,,,,,,,,,
,,,,,WIN24_033,20,Female,2024-02-02_13h00.37.123,jersey_experiment_5,2023.2.2,Win32,84.74576271,,,,,,,,,,,,,,,,747.9648,749.7646,749.7646,750.6353,return,0.2536,,98.95833333,,,,,,FBP-OG-17.png,0.45,1.2,5,1,,,,,,,,,,,,,,,,,,0,18,18,4,1,,,,,,,,,,,,,,,,,,,,,,,
,,,,,WIN24_033,20,Female,2024-02-02_13h00.37.123,jersey_experiment_5,2023.2.2,Win32,84.74576271,,,,,,,,,,,,,,,,750.6359,751.9294,751.9294,752.8823,return,0.0939,,75.52083333,,,,,,FBP-YG-18.png,0.4,1.2,38,0.5,,,,,,,,,,,,,,,,,,0,19,19,37,1,,,,,,,,,,,,,,,,,,,,,,,
,,,,,WIN24_033,20,Female,2024-02-02_13h00.37.123,jersey_experiment_5,2023.2.2,Win32,84.74576271,,,,,,,,,,,,,,,,752.8827,754.683,754.683,755.5297,return,0.1956,,99.21875,,,,,,FBP-OG-18.png,0.45,1.2,10,1,,,,,,,,,,,,,,,,,,0,20,20,9,1,,,,,,,,,,,,,,,,,,,,,,,
,,,,,WIN24_033,20,Female,2024-02-02_13h00.37.123,jersey_experiment_5,2023.2.2,Win32,84.74576271,,,,,,,,,,,,,,,,755.5303,756.8237,756.8237,757.565,return,0.1809,,99.21875,,,,,,FBP-YG-18.png,0.43,1.2,39,0.5,,,,,,,,,,,,,,,,,,0,21,21,38,1,,,,,,,,,,,,,,,,,,,,,,,
,,,,,WIN24_033,20,Female,2024-02-02_13h00.37.123,jersey_experiment_5,2023.2.2,Win32,84.74576271,,,,,,,,,,,,,,,,757.5653,758.859,758.859,759.7768,return,0.0618,,25.13020833,,,,,,FBP-YG-19.png,0.35,1.2,41,0.5,,,,,,,,,,,,,,,,,,0,22,22,40,1,,,,,,,,,,,,,,,,,,,,,,,
,,,,,WIN24_033,20,Female,2024-02-02_13h00.37.123,jersey_experiment_5,2023.2.2,Win32,84.74576271,,,,,,,,,,,,,,,,759.777,761.0708,761.0708,761.7768,return,0.059,,32.94270833,,,,,,FBP-YG-18.png,0.35,1.2,36,0.5,,,,,,,,,,,,,,,,,,0,23,23,35,1,,,,,,,,,,,,,,,,,,,,,,,
,,,,,WIN24_033,20,Female,2024-02-02_13h00.37.123,jersey_experiment_5,2023.2.2,Win32,84.74576271,,,,,,,,,,,,,,,,761.777,763.0712,763.0713,764.0828,return,0.0471,,73.828125,,,,,,FBP-RB-91.png,0.4,1.2,28,0.5,,,,,,,,,,,,,,,,,,0,24,24,27,1,,,,,,,,,,,,,,,,,,,,,,,
,,,,,WIN24_033,20,Female,2024-02-02_13h00.37.123,jersey_experiment_5,2023.2.2,Win32,84.74576271,,,,,,,,,,,,,,,,764.083,765.3771,765.3771,766.6007,return,0.3701,,83.85416667,,,,,,FBP-RB-81.png,0.4,1.2,23,0.5,,,,,,,,,,,,,,,,,,0,25,25,22,1,,,,,,,,,,,,,,,,,,,,,,,
,,,,,WIN24_033,20,Female,2024-02-02_13h00.37.123,jersey_experiment_5,2023.2.2,Win32,84.74576271,,,,,,,,,,,,,,,,766.601,768.4008,768.4009,769.4713,return,0.2139,,58.72395833,,,,,,FBP-OG-19.png,0.37,1.2,12,1,,,,,,,,,,,,,,,,,,0,26,26,11,1,,,,,,,,,,,,,,,,,,,,,,,
,,,,,WIN24_033,20,Female,2024-02-02_13h00.37.123,jersey_experiment_5,2023.2.2,Win32,84.74576271,,,,,,,,,,,,,,,,769.4717,770.7654,770.7655,771.5774,return,0.1488,,74.86979167,,,,,,FBP-YG-19.png,0.37,1.2,42,0.5,,,,,,,,,,,,,,,,,,0,27,27,41,1,,,,,,,,,,,,,,,,,,,,,,,
,,,,,WIN24_033,20,Female,2024-02-02_13h00.37.123,jersey_experiment_5,2023.2.2,Win32,84.74576271,,,,,,,,,,,,,,,,771.5779,772.8718,772.8718,774.0127,return,0.1806,,24.73958333,,,,,,FBP-RB-81.png,0.35,1.2,21,0.5,,,,,,,,,,,,,,,,,,0,28,28,20,1,,,,,,,,,,,,,,,,,,,,,,,
,,,,,WIN24_033,20,Female,2024-02-02_13h00.37.123,jersey_experiment_5,2023.2.2,Win32,84.74576271,,,,,,,,,,,,,,,,774.0132,775.8128,775.8128,777.0245,return,0.1981,,73.828125,,,,,,FBP-PT-81.png,0.4,1.2,53,1,,,,,,,,,,,,,,,,,,0,29,29,52,1,,,,,,,,,,,,,,,,,,,,,,,
,,,,,WIN24_033,20,Female,2024-02-02_13h00.37.123,jersey_experiment_5,2023.2.2,Win32,84.74576271,,,,,,,,,,,,,,,,777.0247,778.8246,778.8246,779.5188,return,0.1435,,45.83333333,,,,,,FBP-OG-18.png,0.35,1.2,6,1,,,,,,,,,,,,,,,,,,0,30,30,5,1,,,,,,,,,,,,,,,,,,,,,,,
,,,,,WIN24_033,20,Female,2024-02-02_13h00.37.123,jersey_experiment_5,2023.2.2,Win32,84.74576271,,,,,,,,,,,,,,,,779.519,781.3187,781.3187,782.0483,return,0.093,,90.36458333,,,,,,FBP-OG-17.png,0.43,1.2,4,1,,,,,,,,,,,,,,,,,,0,31,31,3,1,,,,,,,,,,,,,,,,,,,,,,,
,,,,,WIN24_033,20,Female,2024-02-02_13h00.37.123,jersey_experiment_5,2023.2.2,Win32,84.74576271,,,,,,,,,,,,,,,,782.0485,783.3424,783.3425,784.2719,return,0.0136,,74.86979167,,,,,,FBP-RB-91.png,0.37,1.2,27,0.5,,,,,,,,,,,,,,,,,,0,32,32,26,1,,,,,,,,,,,,,,,,,,,,,,,
,,,,,WIN24_033,20,Female,2024-02-02_13h00.37.123,jersey_experiment_5,2023.2.2,Win32,84.74576271,,,,,,,,,,,,,,,,784.2722,785.566,785.566,786.3661,return,0.1446,,73.4375,,,,,,FBP-RB-91.png,0.35,1.2,26,0.5,,,,,,,,,,,,,,,,,,0,33,33,25,1,,,,,,,,,,,,,,,,,,,,,,,
,,,,,WIN24_033,20,Female,2024-02-02_13h00.37.123,jersey_experiment_5,2023.2.2,Win32,84.74576271,,,,,,,,,,,,,,,,786.3666,788.1662,788.1662,788.9898,return,0.2616,,98.95833333,,,,,,FBP-PT-91.png,0.45,1.2,60,1,,,,,,,,,,,,,,,,,,0,34,34,59,1,,,,,,,,,,,,,,,,,,,,,,,
,,,,,WIN24_033,20,Female,2024-02-02_13h00.37.123,jersey_experiment_5,2023.2.2,Win32,84.74576271,,,,,,,,,,,,,,,,788.9902,790.7898,790.7898,791.4722,return,0.038,,76.43229167,,,,,,FBP-OG-19.png,0.35,1.2,11,1,,,,,,,,,,,,,,,,,,0,35,35,10,1,,,,,,,,,,,,,,,,,,,,,,,
,,,,,WIN24_033,20,Female,2024-02-02_13h00.37.123,jersey_experiment_5,2023.2.2,Win32,84.74576271,,,,,,,,,,,,,,,,791.4724,792.7663,792.7664,793.5546,return,0.0569,,99.609375,,,,,,FBP-RB-91.png,0.45,1.2,30,0.5,,,,,,,,,,,,,,,,,,0,36,36,29,1,,,,,,,,,,,,,,,,,,,,,,,
,,,,,WIN24_033,20,Female,2024-02-02_13h00.37.123,jersey_experiment_5,2023.2.2,Win32,84.74576271,,,,,,,,,,,,,,,,793.5547,795.3548,795.3548,796.1077,return,0.1463,,99.609375,,,,,,FBP-OG-18.png,0.43,1.2,9,1,,,,,,,,,,,,,,,,,,0,37,37,8,1,,,,,,,,,,,,,,,,,,,,,,,
,,,,,WIN24_033,20,Female,2024-02-02_13h00.37.123,jersey_experiment_5,2023.2.2,Win32,84.74576271,,,,,,,,,,,,,,,,796.1082,797.9075,797.9077,798.5077,return,0.0527,,94.01041667,,,,,,FBP-OG-18.png,0.4,1.2,8,1,,,,,,,,,,,,,,,,,,0,38,38,7,1,,,,,,,,,,,,,,,,,,,,,,,
,,,,,WIN24_033,20,Female,2024-02-02_13h00.37.123,jersey_experiment_5,2023.2.2,Win32,84.74576271,,,,,,,,,,,,,,,,798.5078,799.8018,799.8019,800.696,return,0.0886,,99.08854167,,,,,,FBP-YG-17.png,0.45,1.2,35,0.5,,,,,,,,,,,,,,,,,,0,39,39,34,1,,,,,,,,,,,,,,,,,,,,,,,
,,,,,WIN24_033,20,Female,2024-02-02_13h00.37.123,jersey_experiment_5,2023.2.2,Win32,84.74576271,,,,,,,,,,,,,,,,800.6962,802.4961,802.4961,803.1314,return,0.1229,,99.08854167,,,,,,FBP-PT-81.png,0.43,1.2,54,1,,,,,,,,,,,,,,,,,,0,40,40,53,1,,,,,,,,,,,,,,,,,,,,,,,
,,,,,WIN24_033,20,Female,2024-02-02_13h00.37.123,jersey_experiment_5,2023.2.2,Win32,84.74576271,,,,,,,,,,,,,,,,803.1321,804.4255,804.4255,806.0021,return,0.1616,,72.78645833,,,,,,FBP-YG-17.png,0.37,1.2,32,0.5,,,,,,,,,,,,,,,,,,0,41,41,31,1,,,,,,,,,,,,,,,,,,,,,,,
,,,,,WIN24_033,20,Female,2024-02-02_13h00.37.123,jersey_experiment_5,2023.2.2,Win32,84.74576271,,,,,,,,,,,,,,,,806.0023,807.2963,807.2963,808.367,return,0.0845,,99.21875,,,,,,FBP-RB-81.png,0.43,1.2,24,0.5,,,,,,,,,,,,,,,,,,0,42,42,23,1,,,,,,,,,,,,,,,,,,,,,,,
,,,,,WIN24_033,20,Female,2024-02-02_13h00.37.123,jersey_experiment_5,2023.2.2,Win32,84.74576271,,,,,,,,,,,,,,,,808.3676,809.6609,809.661,810.3786,return,0.0765,,99.73958333,,,,,,FBP-YG-17.png,0.43,1.2,34,0.5,,,,,,,,,,,,,,,,,,0,43,43,33,1,,,,,,,,,,,,,,,,,,,,,,,
,,,,,WIN24_033,20,Female,2024-02-02_13h00.37.123,jersey_experiment_5,2023.2.2,Win32,84.74576271,,,,,,,,,,,,,,,,810.3792,811.6729,811.673,812.6376,return,0.0706,,25.26041667,,,,,,FBP-RB-71.png,0.35,1.2,16,0.5,,,,,,,,,,,,,,,,,,0,44,44,15,1,,,,,,,,,,,,,,,,,,,,,,,
,,,,,WIN24_033,20,Female,2024-02-02_13h00.37.123,jersey_experiment_5,2023.2.2,Win32,84.74576271,,,,,,,,,,,,,,,,812.6378,813.9318,813.9319,814.8613,return,0.0743,,93.09895833,,,,,,FBP-YG-19.png,0.43,1.2,44,0.5,,,,,,,,,,,,,,,,,,0,45,45,43,1,,,,,,,,,,,,,,,,,,,,,,,
,,,,,WIN24_033,20,Female,2024-02-02_13h00.37.123,jersey_experiment_5,2023.2.2,Win32,84.74576271,,,,,,,,,,,,,,,,814.8616,816.6615,816.6615,817.6026,return,0.2828,,47.13541667,,,,,,FBP-OG-17.png,0.35,1.2,1,1,,,,,,,,,,,,,,,,,,0,46,46,0,1,,,,,,,,,,,,,,,,,,,,,,,
,,,,,WIN24_033,20,Female,2024-02-02_13h00.37.123,jersey_experiment_5,2023.2.2,Win32,84.74576271,,,,,,,,,,,,,,,,817.6029,818.8967,818.8967,819.9204,return,0.0951,,98.95833333,,,,,,FBP-RB-91.png,0.43,1.2,29,0.5,,,,,,,,,,,,,,,,,,0,47,47,28,1,,,,,,,,,,,,,,,,,,,,,,,
,,,,,WIN24_033,20,Female,2024-02-02_13h00.37.123,jersey_experiment_5,2023.2.2,Win32,84.74576271,,,,,,,,,,,,,,,,819.9206,821.2144,821.2144,822.2026,return,0.0768,,97.52604167,,,,,,FBP-YG-19.png,0.4,1.2,43,0.5,,,,,,,,,,,,,,,,,,0,48,48,42,1,,,,,,,,,,,,,,,,,,,,,,,
,,,,,WIN24_033,20,Female,2024-02-02_13h00.37.123,jersey_experiment_5,2023.2.2,Win32,84.74576271,,,,,,,,,,,,,,,,822.2029,823.4968,823.4968,824.65,return,0.0421,,97.52604167,,,,,,FBP-RB-71.png,0.4,1.2,18,0.5,,,,,,,,,,,,,,,,,,0,49,49,17,1,,,,,,,,,,,,,,,,,,,,,,,
,,,,,WIN24_033,20,Female,2024-02-02_13h00.37.123,jersey_experiment_5,2023.2.2,Win32,84.74576271,,,,,,,,,,,,,,,,824.6507,825.944,825.944,827.2146,return,0.0847,,99.34895833,,,,,,FBP-RB-71.png,0.45,1.2,20,0.5,,,,,,,,,,,,,,,,,,0,50,50,19,1,,,,,,,,,,,,,,,,,,,,,,,
,,,,,WIN24_033,20,Female,2024-02-02_13h00.37.123,jersey_experiment_5,2023.2.2,Win32,84.74576271,,,,,,,,,,,,,,,,827.2148,829.0148,829.0148,829.7559,return,0.1552,,50.91145833,,,,,,FBP-OG-18.png,0.37,1.2,7,1,,,,,,,,,,,,,,,,,,0,51,51,6,1,,,,,,,,,,,,,,,,,,,,,,,
,,,,,WIN24_033,20,Female,2024-02-02_13h00.37.123,jersey_experiment_5,2023.2.2,Win32,84.74576271,,,,,,,,,,,,,,,,829.7561,831.5561,831.5561,832.2267,return,0.0938,,99.34895833,,,,,,FBP-PT-81.png,0.45,1.2,55,1,,,,,,,,,,,,,,,,,,0,52,52,54,1,,,,,,,,,,,,,,,,,,,,,,,
,,,,,WIN24_033,20,Female,2024-02-02_13h00.37.123,jersey_experiment_5,2023.2.2,Win32,84.74576271,,,,,,,,,,,,,,,,832.2273,834.0268,834.0268,834.9443,return,0.1419,,99.08854167,,,,,,FBP-PT-71.png,0.45,1.2,50,1,,,,,,,,,,,,,,,,,,0,53,53,49,1,,,,,,,,,,,,,,,,,,,,,,,
,,,,,WIN24_033,20,Female,2024-02-02_13h00.37.123,jersey_experiment_5,2023.2.2,Win32,84.74576271,,,,,,,,,,,,,,,,834.9447,836.2385,836.2385,837.168,return,0.0945,,74.73958333,,,,,,FBP-RB-81.png,0.37,1.2,22,0.5,,,,,,,,,,,,,,,,,,0,54,54,21,1,,,,,,,,,,,,,,,,,,,,,,,
,,,,,WIN24_033,20,Female,2024-02-02_13h00.37.123,jersey_experiment_5,2023.2.2,Win32,84.74576271,,,,,,,,,,,,,,,,837.1684,838.9681,838.9681,839.521,return,0.0788,,85.41666667,,,,,,FBP-PT-71.png,0.43,1.2,49,1,,,,,,,,,,,,,,,,,,0,55,55,48,1,,,,,,,,,,,,,,,,,,,,,,,
,,,,,WIN24_033,20,Female,2024-02-02_13h00.37.123,jersey_experiment_5,2023.2.2,Win32,84.74576271,,,,,,,,,,,,,,,,839.5213,841.3212,841.3212,842.321,return,0.2446,,26.30208333,,,,,,FBP-PT-91.png,0.35,1.2,56,1,,,,,,,,,,,,,,,,,,0,56,56,55,1,,,,,,,,,,,,,,,,,,,,,,,
,,,,,WIN24_033,20,Female,2024-02-02_13h00.37.123,jersey_experiment_5,2023.2.2,Win32,84.74576271,,,,,,,,,,,,,,,,842.3212,843.6153,843.6153,844.8742,return,0.1716,,21.74479167,,,,,,FBP-YG-17.png,0.35,1.2,31,0.5,,,,,,,,,,,,,,,,,,0,57,57,30,1,,,,,,,,,,,,,,,,,,,,,,,
,,,,,WIN24_033,20,Female,2024-02-02_13h00.37.123,jersey_experiment_5,2023.2.2,Win32,84.74576271,,,,,,,,,,,,,,,,844.8748,846.6742,846.6742,847.3096,return,0.2031,,23.828125,,,,,,FBP-PT-71.png,0.37,1.2,47,1,,,,,,,,,,,,,,,,,,0,58,58,46,1,,,,,,,,,,,,,,,,,,,,,,,
,,,,,WIN24_033,20,Female,2024-02-02_13h00.37.123,jersey_experiment_5,2023.2.2,Win32,84.74576271,,,,,,,,,,,,,,,,847.31,849.1097,849.1097,849.8037,return,0.0996,,49.34895833,,,,,,FBP-PT-81.png,0.37,1.2,52,1,,,,,,,,,,,,,,,,,,0,59,59,51,1,,,,,,,,,,,,,,,,,,,,,,,
,,,,,WIN24_033,20,Female,2024-02-02_13h00.37.123,jersey_experiment_5,2023.2.2,Win32,84.74576271,,,,,,,,,,,,,,,,,,,,,,,,,,,,,,,,,,,,,,,,,,,,,,,,,,,,,,,,849.8041,855.3219,return,5.5132,,,,,,,,,,,,,,,,,,,
,,,,,WIN24_033,20,Female,2024-02-02_13h00.37.123,jersey_experiment_5,2023.2.2,Win32,84.74576271,,,,,,,,,,,,,,,,,,,,,,,,,,,,,,,,,,,,,,,,,,,,,,,,,,,,,,,,,,,,,855.3219,862.6983,1,5.1053,return,2.253,,,,,,,,,,,,
,,,,,WIN24_033,20,Female,2024-02-02_13h00.37.123,jersey_experiment_5,2023.2.2,Win32,84.74576271,,,,,,,,,,,,,,,,,,,,,,,,,,,,,,,,,,,,,,,,,,,,,,,,,,,,,,,,,,,,,,,,,,,,862.6985,892.5308,the black players would flash on the screen for a shorter amount of time,right,26.5923,,,,,,
,,,,,WIN24_033,20,Female,2024-02-02_13h00.37.123,jersey_experiment_5,2023.2.2,Win32,84.74576271,,,,,,,,,,,,,,,,,,,,,,,,,,,,,,,,,,,,,,,,,,,,,,,,,,,,,,,,,,,,,,,,,,,,,,,,,,892.5309,898.5942,return,6.0502,