requirements.started,requirements.stopped,key_resp_3.keys,key_resp_3.rt,key_resp_3.duration,Subject ID,Age,Gender,date,expName,psychopyVersion,OS,frameRate,instructions1.started,instructions1.stopped,key_resp.keys,key_resp.rt,key_resp.duration,example.started,example.stopped,enter_2.keys,enter_2.rt,enter_2.duration,instructions2.started,instructions2.stopped,enter_3.keys,enter_3.rt,enter_3.duration,image.started,image.stopped,slider_2.started,slider_2.stopped,next.keys,next.rt,next.duration,slider.response,trial_block_1.thisRepN,trial_block_1.thisTrialN,trial_block_1.thisN,trial_block_1.thisIndex,trial_block_1.ran,Path,Width,Height,Index,Duration,trial_block_2.thisRepN,trial_block_2.thisTrialN,trial_block_2.thisN,trial_block_2.thisIndex,trial_block_2.ran,rest_break.started,rest_break.stopped,end_break.started,end_break.stopped,key_resp_5.keys,key_resp_5.rt,key_resp_5.duration,trial_block_3.thisRepN,trial_block_3.thisTrialN,trial_block_3.thisN,trial_block_3.thisIndex,trial_block_3.ran,trial_block_4.thisRepN,trial_block_4.thisTrialN,trial_block_4.thisN,trial_block_4.thisIndex,trial_block_4.ran,questions_intro.started,questions_intro.stopped,enter_12.keys,enter_12.rt,enter_12.duration,question2.started,question2.stopped,question_doingbest.response,question_doingbest.rt,enter_15.keys,enter_15.rt,enter_15.duration,pattern.started,pattern.stopped,pattern_2.text,enter_17.keys,enter_17.rt,enter_17.duration,thankyou.started,thankyou.stopped,enter_14.keys,enter_14.rt,enter_14.duration
0.0002,5.746,return,5.7408,,WIN24_041,20,Female,2024-02-08_12h31.44.601,jersey_experiment_5,2023.2.2,Win32,84.74576271,,,,,,,,,,,,,,,,,,,,,,,,,,,,,,,,,,,,,,,,,,,,,,,,,,,,,,,,,,,,,,,,,,,,,,,,,,,,,,
,,,,,WIN24_041,20,Female,2024-02-08_12h31.44.601,jersey_experiment_5,2023.2.2,Win32,84.74576271,5.7461,11.4623,return,5.6963,,,,,,,,,,,,,,,,,,,,,,,,,,,,,,,,,,,,,,,,,,,,,,,,,,,,,,,,,,,,,,,,,,,,,,,,,,
,,,,,WIN24_041,20,Female,2024-02-08_12h31.44.601,jersey_experiment_5,2023.2.2,Win32,84.74576271,,,,,,11.4624,14.5917,return,3.0955,,,,,,,,,,,,,,,,,,,,,,,,,,,,,,,,,,,,,,,,,,,,,,,,,,,,,,,,,,,,,,,,,,,,,
,,,,,WIN24_041,20,Female,2024-02-08_12h31.44.601,jersey_experiment_5,2023.2.2,Win32,84.74576271,,,,,,,,,,,14.5918,27.4282,return,12.8266,,,,,,,,,,,,,,,,,,,,,,,,,,,,,,,,,,,,,,,,,,,,,,,,,,,,,,,,,,,,,,,,
,,,,,WIN24_041,20,Female,2024-02-08_12h31.44.601,jersey_experiment_5,2023.2.2,Win32,84.74576271,,,,,,,,,,,,,,,,27.4428,29.24,29.2403,36.4403,return,4.3652,,76.69270833,0,0,0,42,1,FBP-YG-91.png,0.4,1.2,43,1,,,,,,,,,,,,,,,,,,,,,,,,,,,,,,,,,,,,,,,,,,,,,
,,,,,WIN24_041,20,Female,2024-02-08_12h31.44.601,jersey_experiment_5,2023.2.2,Win32,84.74576271,,,,,,,,,,,,,,,,36.4492,38.2516,38.2517,40.9457,return,0.2768,,49.47916667,0,1,1,31,1,FBP-YG-71.png,0.37,1.2,32,1,,,,,,,,,,,,,,,,,,,,,,,,,,,,,,,,,,,,,,,,,,,,,
,,,,,WIN24_041,20,Female,2024-02-08_12h31.44.601,jersey_experiment_5,2023.2.2,Win32,84.74576271,,,,,,,,,,,,,,,,40.9463,42.24,42.2402,43.8634,return,0.1888,,25.52083333,0,2,2,56,1,FBP-PT-19.png,0.37,1.2,57,0.5,,,,,,,,,,,,,,,,,,,,,,,,,,,,,,,,,,,,,,,,,,,,,
,,,,,WIN24_041,20,Female,2024-02-08_12h31.44.601,jersey_experiment_5,2023.2.2,Win32,84.74576271,,,,,,,,,,,,,,,,43.8639,45.1578,45.1578,45.9931,return,0.1654,,25.52083333,0,3,3,52,1,FBP-PT-18.png,0.4,1.2,53,0.5,,,,,,,,,,,,,,,,,,,,,,,,,,,,,,,,,,,,,,,,,,,,,
,,,,,WIN24_041,20,Female,2024-02-08_12h31.44.601,jersey_experiment_5,2023.2.2,Win32,84.74576271,,,,,,,,,,,,,,,,45.9935,47.7933,47.7935,52.052,return,2.4741,,75.26041667,0,4,4,44,1,FBP-YG-91.png,0.45,1.2,45,1,,,,,,,,,,,,,,,,,,,,,,,,,,,,,,,,,,,,,,,,,,,,,
,,,,,WIN24_041,20,Female,2024-02-08_12h31.44.601,jersey_experiment_5,2023.2.2,Win32,84.74576271,,,,,,,,,,,,,,,,52.0525,53.8522,53.8524,55.064,return,0.2358,,75,0,5,5,37,1,FBP-YG-81.png,0.4,1.2,38,1,,,,,,,,,,,,,,,,,,,,,,,,,,,,,,,,,,,,,,,,,,,,,
,,,,,WIN24_041,20,Female,2024-02-08_12h31.44.601,jersey_experiment_5,2023.2.2,Win32,84.74576271,,,,,,,,,,,,,,,,55.0645,56.3581,56.3583,57.4287,return,0.3087,,75,0,6,6,13,1,FBP-OG-91.png,0.43,1.2,14,0.5,,,,,,,,,,,,,,,,,,,,,,,,,,,,,,,,,,,,,,,,,,,,,
,,,,,WIN24_041,20,Female,2024-02-08_12h31.44.601,jersey_experiment_5,2023.2.2,Win32,84.74576271,,,,,,,,,,,,,,,,57.4291,59.2298,59.23,61.9112,return,0.9303,,88.671875,0,7,7,29,1,FBP-RB-19.png,0.45,1.2,30,1,,,,,,,,,,,,,,,,,,,,,,,,,,,,,,,,,,,,,,,,,,,,,
,,,,,WIN24_041,20,Female,2024-02-08_12h31.44.601,jersey_experiment_5,2023.2.2,Win32,84.74576271,,,,,,,,,,,,,,,,61.9116,63.2055,63.2055,65.6877,return,0.2369,,75,0,8,8,8,1,FBP-OG-81.png,0.43,1.2,9,0.5,,,,,,,,,,,,,,,,,,,,,,,,,,,,,,,,,,,,,,,,,,,,,
,,,,,WIN24_041,20,Female,2024-02-08_12h31.44.601,jersey_experiment_5,2023.2.2,Win32,84.74576271,,,,,,,,,,,,,,,,65.6882,67.4878,67.4878,69.1231,return,0.1572,,24.47916667,0,9,9,15,1,FBP-RB-17.png,0.35,1.2,16,1,,,,,,,,,,,,,,,,,,,,,,,,,,,,,,,,,,,,,,,,,,,,,
,,,,,WIN24_041,20,Female,2024-02-08_12h31.44.601,jersey_experiment_5,2023.2.2,Win32,84.74576271,,,,,,,,,,,,,,,,69.1234,70.9245,70.9245,72.2541,return,0.1875,,25,0,10,10,21,1,FBP-RB-18.png,0.37,1.2,22,1,,,,,,,,,,,,,,,,,,,,,,,,,,,,,,,,,,,,,,,,,,,,,
,,,,,WIN24_041,20,Female,2024-02-08_12h31.44.601,jersey_experiment_5,2023.2.2,Win32,84.74576271,,,,,,,,,,,,,,,,72.2542,73.5473,73.5474,76.4175,return,0.9132,,75.78125,0,11,11,53,1,FBP-PT-18.png,0.43,1.2,54,0.5,,,,,,,,,,,,,,,,,,,,,,,,,,,,,,,,,,,,,,,,,,,,,
,,,,,WIN24_041,20,Female,2024-02-08_12h31.44.601,jersey_experiment_5,2023.2.2,Win32,84.74576271,,,,,,,,,,,,,,,,76.4179,78.2175,78.2176,79.2425,return,0.2237,,75.52083333,0,12,12,33,1,FBP-YG-71.png,0.43,1.2,34,1,,,,,,,,,,,,,,,,,,,,,,,,,,,,,,,,,,,,,,,,,,,,,
,,,,,WIN24_041,20,Female,2024-02-08_12h31.44.601,jersey_experiment_5,2023.2.2,Win32,84.74576271,,,,,,,,,,,,,,,,79.2427,81.0414,81.0415,81.6529,return,0.0975,,75.390625,0,13,13,19,1,FBP-RB-17.png,0.45,1.2,20,1,,,,,,,,,,,,,,,,,,,,,,,,,,,,,,,,,,,,,,,,,,,,,
,,,,,WIN24_041,20,Female,2024-02-08_12h31.44.601,jersey_experiment_5,2023.2.2,Win32,84.74576271,,,,,,,,,,,,,,,,81.6531,82.9483,82.9483,84.6075,return,0.0824,,50.13020833,0,14,14,50,1,FBP-PT-18.png,0.35,1.2,51,0.5,,,,,,,,,,,,,,,,,,,,,,,,,,,,,,,,,,,,,,,,,,,,,
,,,,,WIN24_041,20,Female,2024-02-08_12h31.44.601,jersey_experiment_5,2023.2.2,Win32,84.74576271,,,,,,,,,,,,,,,,84.6076,85.9003,85.9003,86.7825,return,0.2922,,73.95833333,0,15,15,49,1,FBP-PT-17.png,0.45,1.2,50,0.5,,,,,,,,,,,,,,,,,,,,,,,,,,,,,,,,,,,,,,,,,,,,,
,,,,,WIN24_041,20,Female,2024-02-08_12h31.44.601,jersey_experiment_5,2023.2.2,Win32,84.74576271,,,,,,,,,,,,,,,,86.7826,88.0771,88.0773,88.8061,return,0.155,,73.95833333,0,16,16,6,1,FBP-OG-81.png,0.37,1.2,7,0.5,,,,,,,,,,,,,,,,,,,,,,,,,,,,,,,,,,,,,,,,,,,,,
,,,,,WIN24_041,20,Female,2024-02-08_12h31.44.601,jersey_experiment_5,2023.2.2,Win32,84.74576271,,,,,,,,,,,,,,,,88.8064,90.1014,90.1014,91.3018,return,0.1178,,75.390625,0,17,17,11,1,FBP-OG-91.png,0.37,1.2,12,0.5,,,,,,,,,,,,,,,,,,,,,,,,,,,,,,,,,,,,,,,,,,,,,
,,,,,WIN24_041,20,Female,2024-02-08_12h31.44.601,jersey_experiment_5,2023.2.2,Win32,84.74576271,,,,,,,,,,,,,,,,91.3019,92.5948,92.5949,93.2783,return,0.1765,,75.390625,0,18,18,2,1,FBP-OG-71.png,0.4,1.2,3,0.5,,,,,,,,,,,,,,,,,,,,,,,,,,,,,,,,,,,,,,,,,,,,,
,,,,,WIN24_041,20,Female,2024-02-08_12h31.44.601,jersey_experiment_5,2023.2.2,Win32,84.74576271,,,,,,,,,,,,,,,,93.2785,95.0773,95.0773,95.6535,return,0.1796,,75.390625,0,19,19,38,1,FBP-YG-81.png,0.43,1.2,39,1,,,,,,,,,,,,,,,,,,,,,,,,,,,,,,,,,,,,,,,,,,,,,
,,,,,WIN24_041,20,Female,2024-02-08_12h31.44.601,jersey_experiment_5,2023.2.2,Win32,84.74576271,,,,,,,,,,,,,,,,95.6538,97.4535,97.4536,99.9361,return,0.2787,,36.45833333,0,20,20,35,1,FBP-YG-81.png,0.35,1.2,36,1,,,,,,,,,,,,,,,,,,,,,,,,,,,,,,,,,,,,,,,,,,,,,
,,,,,WIN24_041,20,Female,2024-02-08_12h31.44.601,jersey_experiment_5,2023.2.2,Win32,84.74576271,,,,,,,,,,,,,,,,99.9365,101.2305,101.2306,103.4302,return,0.3785,,74.08854167,0,21,21,1,1,FBP-OG-71.png,0.37,1.2,2,0.5,,,,,,,,,,,,,,,,,,,,,,,,,,,,,,,,,,,,,,,,,,,,,
,,,,,WIN24_041,20,Female,2024-02-08_12h31.44.601,jersey_experiment_5,2023.2.2,Win32,84.74576271,,,,,,,,,,,,,,,,103.4305,104.7247,104.7248,106.7363,return,0.1728,,90.625,0,22,22,48,1,FBP-PT-17.png,0.43,1.2,49,0.5,,,,,,,,,,,,,,,,,,,,,,,,,,,,,,,,,,,,,,,,,,,,,
,,,,,WIN24_041,20,Female,2024-02-08_12h31.44.601,jersey_experiment_5,2023.2.2,Win32,84.74576271,,,,,,,,,,,,,,,,106.7365,108.0308,108.0309,108.8658,return,0.2188,,91.015625,0,23,23,3,1,FBP-OG-71.png,0.43,1.2,4,0.5,,,,,,,,,,,,,,,,,,,,,,,,,,,,,,,,,,,,,,,,,,,,,
,,,,,WIN24_041,20,Female,2024-02-08_12h31.44.601,jersey_experiment_5,2023.2.2,Win32,84.74576271,,,,,,,,,,,,,,,,108.8662,110.6668,110.6668,111.7011,return,0.1559,,88.93229167,0,24,24,17,1,FBP-RB-17.png,0.4,1.2,18,1,,,,,,,,,,,,,,,,,,,,,,,,,,,,,,,,,,,,,,,,,,,,,
,,,,,WIN24_041,20,Female,2024-02-08_12h31.44.601,jersey_experiment_5,2023.2.2,Win32,84.74576271,,,,,,,,,,,,,,,,111.7013,112.9955,112.9955,113.9365,return,0.2904,,88.93229167,0,25,25,9,1,FBP-OG-81.png,0.45,1.2,10,0.5,,,,,,,,,,,,,,,,,,,,,,,,,,,,,,,,,,,,,,,,,,,,,
,,,,,WIN24_041,20,Female,2024-02-08_12h31.44.601,jersey_experiment_5,2023.2.2,Win32,84.74576271,,,,,,,,,,,,,,,,113.9368,115.7369,115.737,117.7014,return,1.1677,,99.08854167,0,26,26,28,1,FBP-RB-19.png,0.43,1.2,29,1,,,,,,,,,,,,,,,,,,,,,,,,,,,,,,,,,,,,,,,,,,,,,
,,,,,WIN24_041,20,Female,2024-02-08_12h31.44.601,jersey_experiment_5,2023.2.2,Win32,84.74576271,,,,,,,,,,,,,,,,117.7016,119.5029,119.5029,120.9133,return,0.1247,,25.13020833,0,27,27,40,1,FBP-YG-91.png,0.35,1.2,41,1,,,,,,,,,,,,,,,,,,,,,,,,,,,,,,,,,,,,,,,,,,,,,
,,,,,WIN24_041,20,Female,2024-02-08_12h31.44.601,jersey_experiment_5,2023.2.2,Win32,84.74576271,,,,,,,,,,,,,,,,120.9135,122.2076,122.2077,124.2781,return,0.0964,,74.609375,0,28,28,47,1,FBP-PT-17.png,0.4,1.2,48,0.5,,,,,,,,,,,,,,,,,,,,,,,,,,,,,,,,,,,,,,,,,,,,,
,,,,,WIN24_041,20,Female,2024-02-08_12h31.44.601,jersey_experiment_5,2023.2.2,Win32,84.74576271,,,,,,,,,,,,,,,,124.2782,126.0791,126.0791,126.75,return,0.1296,,74.609375,0,29,29,22,1,FBP-RB-18.png,0.4,1.2,23,1,,,,,,,,,,,,,,,,,,,,,,,,,,,,,,,,,,,,,,,,,,,,,
,,,,,WIN24_041,20,Female,2024-02-08_12h31.44.601,jersey_experiment_5,2023.2.2,Win32,84.74576271,,,,,,,,,,,,,,,,126.7502,128.0433,128.0433,128.8666,return,0.218,,74.609375,0,30,30,14,1,FBP-OG-91.png,0.45,1.2,15,0.5,,,,,,,,,,,,,,,,,,,,,,,,,,,,,,,,,,,,,,,,,,,,,
,,,,,WIN24_041,20,Female,2024-02-08_12h31.44.601,jersey_experiment_5,2023.2.2,Win32,84.74576271,,,,,,,,,,,,,,,,128.8671,130.6666,130.6666,132.4316,return,0.5977,,25,0,31,31,41,1,FBP-YG-91.png,0.37,1.2,42,1,,,,,,,,,,,,,,,,,,,,,,,,,,,,,,,,,,,,,,,,,,,,,
,,,,,WIN24_041,20,Female,2024-02-08_12h31.44.601,jersey_experiment_5,2023.2.2,Win32,84.74576271,,,,,,,,,,,,,,,,132.4319,133.7257,133.7257,136.374,return,1.2119,,75,0,32,32,4,1,FBP-OG-71.png,0.45,1.2,5,0.5,,,,,,,,,,,,,,,,,,,,,,,,,,,,,,,,,,,,,,,,,,,,,
,,,,,WIN24_041,20,Female,2024-02-08_12h31.44.601,jersey_experiment_5,2023.2.2,Win32,84.74576271,,,,,,,,,,,,,,,,136.3743,137.6671,137.6671,138.5376,return,0.2131,,74.73958333,0,33,33,12,1,FBP-OG-91.png,0.4,1.2,13,0.5,,,,,,,,,,,,,,,,,,,,,,,,,,,,,,,,,,,,,,,,,,,,,
,,,,,WIN24_041,20,Female,2024-02-08_12h31.44.601,jersey_experiment_5,2023.2.2,Win32,84.74576271,,,,,,,,,,,,,,,,138.538,139.8319,139.832,155.3617,return,0.2074,,74.73958333,0,34,34,10,1,FBP-OG-91.png,0.35,1.2,11,0.5,,,,,,,,,,,,,,,,,,,,,,,,,,,,,,,,,,,,,,,,,,,,,
,,,,,WIN24_041,20,Female,2024-02-08_12h31.44.601,jersey_experiment_5,2023.2.2,Win32,84.74576271,,,,,,,,,,,,,,,,155.3621,157.1629,157.1629,159.657,return,0.247,,99.47916667,0,35,35,24,1,FBP-RB-18.png,0.45,1.2,25,1,,,,,,,,,,,,,,,,,,,,,,,,,,,,,,,,,,,,,,,,,,,,,
,,,,,WIN24_041,20,Female,2024-02-08_12h31.44.601,jersey_experiment_5,2023.2.2,Win32,84.74576271,,,,,,,,,,,,,,,,159.6571,160.9504,160.9505,163.3971,return,0.7917,,24.73958333,0,36,36,0,1,FBP-OG-71.png,0.35,1.2,1,0.5,,,,,,,,,,,,,,,,,,,,,,,,,,,,,,,,,,,,,,,,,,,,,
,,,,,WIN24_041,20,Female,2024-02-08_12h31.44.601,jersey_experiment_5,2023.2.2,Win32,84.74576271,,,,,,,,,,,,,,,,163.3973,165.1984,165.1985,166.3032,return,0.2568,,74.73958333,0,37,37,18,1,FBP-RB-17.png,0.43,1.2,19,1,,,,,,,,,,,,,,,,,,,,,,,,,,,,,,,,,,,,,,,,,,,,,
,,,,,WIN24_041,20,Female,2024-02-08_12h31.44.601,jersey_experiment_5,2023.2.2,Win32,84.74576271,,,,,,,,,,,,,,,,166.3038,168.1032,168.1033,169.5047,return,0.1767,,24.86979167,0,38,38,25,1,FBP-RB-19.png,0.35,1.2,26,1,,,,,,,,,,,,,,,,,,,,,,,,,,,,,,,,,,,,,,,,,,,,,
,,,,,WIN24_041,20,Female,2024-02-08_12h31.44.601,jersey_experiment_5,2023.2.2,Win32,84.74576271,,,,,,,,,,,,,,,,169.5049,170.7977,170.7977,171.5507,return,0.046,,24.86979167,0,39,39,46,1,FBP-PT-17.png,0.37,1.2,47,0.5,,,,,,,,,,,,,,,,,,,,,,,,,,,,,,,,,,,,,,,,,,,,,
,,,,,WIN24_041,20,Female,2024-02-08_12h31.44.601,jersey_experiment_5,2023.2.2,Win32,84.74576271,,,,,,,,,,,,,,,,171.5511,173.3508,173.3509,174.0212,return,0.2026,,24.86979167,0,40,40,20,1,FBP-RB-18.png,0.35,1.2,21,1,,,,,,,,,,,,,,,,,,,,,,,,,,,,,,,,,,,,,,,,,,,,,
,,,,,WIN24_041,20,Female,2024-02-08_12h31.44.601,jersey_experiment_5,2023.2.2,Win32,84.74576271,,,,,,,,,,,,,,,,174.0216,175.8215,175.8215,176.9506,return,0.1073,,24.86979167,0,41,41,16,1,FBP-RB-17.png,0.37,1.2,17,1,,,,,,,,,,,,,,,,,,,,,,,,,,,,,,,,,,,,,,,,,,,,,
,,,,,WIN24_041,20,Female,2024-02-08_12h31.44.601,jersey_experiment_5,2023.2.2,Win32,84.74576271,,,,,,,,,,,,,,,,176.9509,178.7517,178.7517,180.6333,return,0.1418,,49.609375,0,42,42,26,1,FBP-RB-19.png,0.37,1.2,27,1,,,,,,,,,,,,,,,,,,,,,,,,,,,,,,,,,,,,,,,,,,,,,
,,,,,WIN24_041,20,Female,2024-02-08_12h31.44.601,jersey_experiment_5,2023.2.2,Win32,84.74576271,,,,,,,,,,,,,,,,180.6337,181.9277,181.9279,183.704,return,0.2596,,75,0,43,43,59,1,FBP-PT-19.png,0.45,1.2,60,0.5,,,,,,,,,,,,,,,,,,,,,,,,,,,,,,,,,,,,,,,,,,,,,
,,,,,WIN24_041,20,Female,2024-02-08_12h31.44.601,jersey_experiment_5,2023.2.2,Win32,84.74576271,,,,,,,,,,,,,,,,183.7043,184.9983,184.9985,185.7511,return,0.2011,,75,0,44,44,58,1,FBP-PT-19.png,0.43,1.2,59,0.5,,,,,,,,,,,,,,,,,,,,,,,,,,,,,,,,,,,,,,,,,,,,,
,,,,,WIN24_041,20,Female,2024-02-08_12h31.44.601,jersey_experiment_5,2023.2.2,Win32,84.74576271,,,,,,,,,,,,,,,,185.7515,187.5514,187.5514,189.1746,return,0.1894,,74.08854167,0,45,45,27,1,FBP-RB-19.png,0.4,1.2,28,1,,,,,,,,,,,,,,,,,,,,,,,,,,,,,,,,,,,,,,,,,,,,,
,,,,,WIN24_041,20,Female,2024-02-08_12h31.44.601,jersey_experiment_5,2023.2.2,Win32,84.74576271,,,,,,,,,,,,,,,,189.1748,190.9755,190.9756,191.9866,return,0.1113,,74.73958333,0,46,46,23,1,FBP-RB-18.png,0.43,1.2,24,1,,,,,,,,,,,,,,,,,,,,,,,,,,,,,,,,,,,,,,,,,,,,,
,,,,,WIN24_041,20,Female,2024-02-08_12h31.44.601,jersey_experiment_5,2023.2.2,Win32,84.74576271,,,,,,,,,,,,,,,,191.987,193.281,193.2811,193.9996,return,0.2101,,74.73958333,0,47,47,7,1,FBP-OG-81.png,0.4,1.2,8,0.5,,,,,,,,,,,,,,,,,,,,,,,,,,,,,,,,,,,,,,,,,,,,,
,,,,,WIN24_041,20,Female,2024-02-08_12h31.44.601,jersey_experiment_5,2023.2.2,Win32,84.74576271,,,,,,,,,,,,,,,,193.9999,195.2932,195.2933,198.0222,return,1.2021,,95.18229167,0,48,48,54,1,FBP-PT-18.png,0.45,1.2,55,0.5,,,,,,,,,,,,,,,,,,,,,,,,,,,,,,,,,,,,,,,,,,,,,
,,,,,WIN24_041,20,Female,2024-02-08_12h31.44.601,jersey_experiment_5,2023.2.2,Win32,84.74576271,,,,,,,,,,,,,,,,198.0227,199.8238,199.8239,200.5635,return,0.2162,,93.09895833,0,49,49,39,1,FBP-YG-81.png,0.45,1.2,40,1,,,,,,,,,,,,,,,,,,,,,,,,,,,,,,,,,,,,,,,,,,,,,
,,,,,WIN24_041,20,Female,2024-02-08_12h31.44.601,jersey_experiment_5,2023.2.2,Win32,84.74576271,,,,,,,,,,,,,,,,200.564,202.3636,202.3638,203.5518,return,0.3494,,93.09895833,0,50,50,34,1,FBP-YG-71.png,0.45,1.2,35,1,,,,,,,,,,,,,,,,,,,,,,,,,,,,,,,,,,,,,,,,,,,,,
,,,,,WIN24_041,20,Female,2024-02-08_12h31.44.601,jersey_experiment_5,2023.2.2,Win32,84.74576271,,,,,,,,,,,,,,,,203.5522,204.846,204.8462,208.1639,return,2.2983,,38.54166667,0,51,51,51,1,FBP-PT-18.png,0.37,1.2,52,0.5,,,,,,,,,,,,,,,,,,,,,,,,,,,,,,,,,,,,,,,,,,,,,
,,,,,WIN24_041,20,Female,2024-02-08_12h31.44.601,jersey_experiment_5,2023.2.2,Win32,84.74576271,,,,,,,,,,,,,,,,208.1644,209.9641,209.9641,211.0814,return,0.1768,,37.36979167,0,52,52,30,1,FBP-YG-71.png,0.35,1.2,31,1,,,,,,,,,,,,,,,,,,,,,,,,,,,,,,,,,,,,,,,,,,,,,
,,,,,WIN24_041,20,Female,2024-02-08_12h31.44.601,jersey_experiment_5,2023.2.2,Win32,84.74576271,,,,,,,,,,,,,,,,211.0819,212.8817,212.8818,214.8228,return,0.1894,,75,0,53,53,32,1,FBP-YG-71.png,0.4,1.2,33,1,,,,,,,,,,,,,,,,,,,,,,,,,,,,,,,,,,,,,,,,,,,,,
,,,,,WIN24_041,20,Female,2024-02-08_12h31.44.601,jersey_experiment_5,2023.2.2,Win32,84.74576271,,,,,,,,,,,,,,,,214.8232,216.1174,216.1175,219.9288,return,1.4126,,25.13020833,0,54,54,45,1,FBP-PT-17.png,0.35,1.2,46,0.5,,,,,,,,,,,,,,,,,,,,,,,,,,,,,,,,,,,,,,,,,,,,,
,,,,,WIN24_041,20,Female,2024-02-08_12h31.44.601,jersey_experiment_5,2023.2.2,Win32,84.74576271,,,,,,,,,,,,,,,,219.9292,221.7299,221.7299,222.9642,return,0.133,,74.21875,0,55,55,43,1,FBP-YG-91.png,0.43,1.2,44,1,,,,,,,,,,,,,,,,,,,,,,,,,,,,,,,,,,,,,,,,,,,,,
,,,,,WIN24_041,20,Female,2024-02-08_12h31.44.601,jersey_experiment_5,2023.2.2,Win32,84.74576271,,,,,,,,,,,,,,,,222.9646,224.7645,224.7646,225.8114,return,0.2282,,74.86979167,0,56,56,36,1,FBP-YG-81.png,0.37,1.2,37,1,,,,,,,,,,,,,,,,,,,,,,,,,,,,,,,,,,,,,,,,,,,,,
,,,,,WIN24_041,20,Female,2024-02-08_12h31.44.601,jersey_experiment_5,2023.2.2,Win32,84.74576271,,,,,,,,,,,,,,,,225.8118,227.1058,227.1059,227.9526,return,0.2431,,74.86979167,0,57,57,57,1,FBP-PT-19.png,0.4,1.2,58,0.5,,,,,,,,,,,,,,,,,,,,,,,,,,,,,,,,,,,,,,,,,,,,,
,,,,,WIN24_041,20,Female,2024-02-08_12h31.44.601,jersey_experiment_5,2023.2.2,Win32,84.74576271,,,,,,,,,,,,,,,,227.9527,229.2465,229.2466,230.6234,return,0.3499,,74.86979167,0,58,58,5,1,FBP-OG-81.png,0.35,1.2,6,0.5,,,,,,,,,,,,,,,,,,,,,,,,,,,,,,,,,,,,,,,,,,,,,
,,,,,WIN24_041,20,Female,2024-02-08_12h31.44.601,jersey_experiment_5,2023.2.2,Win32,84.74576271,,,,,,,,,,,,,,,,230.6238,231.9178,231.9178,235.1294,return,1.7297,,25.13020833,0,59,59,55,1,FBP-PT-19.png,0.35,1.2,56,0.5,,,,,,,,,,,,,,,,,,,,,,,,,,,,,,,,,,,,,,,,,,,,,
,,,,,WIN24_041,20,Female,2024-02-08_12h31.44.601,jersey_experiment_5,2023.2.2,Win32,84.74576271,,,,,,,,,,,,,,,,235.1354,236.9297,236.9298,245.8239,return,7.6791,,24.86979167,,,,,,FBP-YG-17.png,0.37,1.2,32,1,0,0,0,31,1,,,,,,,,,,,,,,,,,,,,,,,,,,,,,,,,,,,,,,,,
,,,,,WIN24_041,20,Female,2024-02-08_12h31.44.601,jersey_experiment_5,2023.2.2,Win32,84.74576271,,,,,,,,,,,,,,,,245.834,247.6367,247.6367,249.9778,return,0.907,,98.56770833,,,,,,FBP-YG-18.png,0.45,1.2,40,1,0,1,1,39,1,,,,,,,,,,,,,,,,,,,,,,,,,,,,,,,,,,,,,,,,
,,,,,WIN24_041,20,Female,2024-02-08_12h31.44.601,jersey_experiment_5,2023.2.2,Win32,84.74576271,,,,,,,,,,,,,,,,249.9782,251.2714,251.2715,252.9536,return,0.5654,,87.890625,,,,,,FBP-OG-19.png,0.35,1.2,11,0.5,0,2,2,10,1,,,,,,,,,,,,,,,,,,,,,,,,,,,,,,,,,,,,,,,,
,,,,,WIN24_041,20,Female,2024-02-08_12h31.44.601,jersey_experiment_5,2023.2.2,Win32,84.74576271,,,,,,,,,,,,,,,,252.9539,254.2479,254.2481,255.3654,return,0.2376,,89.0625,,,,,,FBP-OG-18.png,0.45,1.2,10,0.5,0,3,3,9,1,,,,,,,,,,,,,,,,,,,,,,,,,,,,,,,,,,,,,,,,
,,,,,WIN24_041,20,Female,2024-02-08_12h31.44.601,jersey_experiment_5,2023.2.2,Win32,84.74576271,,,,,,,,,,,,,,,,255.3658,257.1657,257.1658,258.0832,return,0.2872,,89.71354167,,,,,,FBP-RB-71.png,0.43,1.2,19,1,0,4,4,18,1,,,,,,,,,,,,,,,,,,,,,,,,,,,,,,,,,,,,,,,,
,,,,,WIN24_041,20,Female,2024-02-08_12h31.44.601,jersey_experiment_5,2023.2.2,Win32,84.74576271,,,,,,,,,,,,,,,,258.0836,259.8835,259.8836,260.7539,return,0.2766,,89.71354167,,,,,,FBP-RB-91.png,0.4,1.2,28,1,0,5,5,27,1,,,,,,,,,,,,,,,,,,,,,,,,,,,,,,,,,,,,,,,,
,,,,,WIN24_041,20,Female,2024-02-08_12h31.44.601,jersey_experiment_5,2023.2.2,Win32,84.74576271,,,,,,,,,,,,,,,,260.7544,262.0483,262.0483,262.7892,return,0.1557,,89.71354167,,,,,,FBP-PT-91.png,0.35,1.2,56,0.5,0,6,6,55,1,,,,,,,,,,,,,,,,,,,,,,,,,,,,,,,,,,,,,,,,
,,,,,WIN24_041,20,Female,2024-02-08_12h31.44.601,jersey_experiment_5,2023.2.2,Win32,84.74576271,,,,,,,,,,,,,,,,262.7897,264.5895,264.5895,265.554,return,0.3707,,89.71354167,,,,,,FBP-RB-71.png,0.35,1.2,16,1,0,7,7,15,1,,,,,,,,,,,,,,,,,,,,,,,,,,,,,,,,,,,,,,,,
,,,,,WIN24_041,20,Female,2024-02-08_12h31.44.601,jersey_experiment_5,2023.2.2,Win32,84.74576271,,,,,,,,,,,,,,,,265.5544,266.8484,266.8485,267.9778,return,0.2232,,93.09895833,,,,,,FBP-PT-81.png,0.45,1.2,55,0.5,0,8,8,54,1,,,,,,,,,,,,,,,,,,,,,,,,,,,,,,,,,,,,,,,,
,,,,,WIN24_041,20,Female,2024-02-08_12h31.44.601,jersey_experiment_5,2023.2.2,Win32,84.74576271,,,,,,,,,,,,,,,,267.9783,269.778,269.7781,270.8485,return,0.4196,,93.09895833,,,,,,FBP-YG-19.png,0.37,1.2,42,1,0,9,9,41,1,,,,,,,,,,,,,,,,,,,,,,,,,,,,,,,,,,,,,,,,
,,,,,WIN24_041,20,Female,2024-02-08_12h31.44.601,jersey_experiment_5,2023.2.2,Win32,84.74576271,,,,,,,,,,,,,,,,270.8489,272.1427,272.1428,272.8837,return,0.1572,,93.09895833,,,,,,FBP-PT-71.png,0.4,1.2,48,0.5,0,10,10,47,1,,,,,,,,,,,,,,,,,,,,,,,,,,,,,,,,,,,,,,,,
,,,,,WIN24_041,20,Female,2024-02-08_12h31.44.601,jersey_experiment_5,2023.2.2,Win32,84.74576271,,,,,,,,,,,,,,,,272.8842,274.1782,274.1783,275.2958,return,0.349,,93.09895833,,,,,,FBP-OG-18.png,0.43,1.2,9,0.5,0,11,11,8,1,,,,,,,,,,,,,,,,,,,,,,,,,,,,,,,,,,,,,,,,
,,,,,WIN24_041,20,Female,2024-02-08_12h31.44.601,jersey_experiment_5,2023.2.2,Win32,84.74576271,,,,,,,,,,,,,,,,275.2963,276.5902,276.5903,279.567,return,0.2335,,50,,,,,,FBP-PT-91.png,0.4,1.2,58,0.5,0,12,12,57,1,,,,,,,,,,,,,,,,,,,,,,,,,,,,,,,,,,,,,,,,
,,,,,WIN24_041,20,Female,2024-02-08_12h31.44.601,jersey_experiment_5,2023.2.2,Win32,84.74576271,,,,,,,,,,,,,,,,279.5673,281.3665,281.3667,282.2487,return,0.1774,,50,,,,,,FBP-YG-18.png,0.4,1.2,38,1,0,13,13,37,1,,,,,,,,,,,,,,,,,,,,,,,,,,,,,,,,,,,,,,,,
,,,,,WIN24_041,20,Female,2024-02-08_12h31.44.601,jersey_experiment_5,2023.2.2,Win32,84.74576271,,,,,,,,,,,,,,,,282.2492,284.0491,284.0492,285.1548,return,0.2993,,50,,,,,,FBP-RB-91.png,0.35,1.2,26,1,0,14,14,25,1,,,,,,,,,,,,,,,,,,,,,,,,,,,,,,,,,,,,,,,,
,,,,,WIN24_041,20,Female,2024-02-08_12h31.44.601,jersey_experiment_5,2023.2.2,Win32,84.74576271,,,,,,,,,,,,,,,,285.1552,286.9559,286.956,288.5664,return,0.1424,,24.86979167,,,,,,FBP-RB-71.png,0.37,1.2,17,1,0,15,15,16,1,,,,,,,,,,,,,,,,,,,,,,,,,,,,,,,,,,,,,,,,
,,,,,WIN24_041,20,Female,2024-02-08_12h31.44.601,jersey_experiment_5,2023.2.2,Win32,84.74576271,,,,,,,,,,,,,,,,288.5666,289.861,289.861,290.6137,return,0.0846,,24.86979167,,,,,,FBP-OG-17.png,0.35,1.2,1,0.5,0,16,16,0,1,,,,,,,,,,,,,,,,,,,,,,,,,,,,,,,,,,,,,,,,
,,,,,WIN24_041,20,Female,2024-02-08_12h31.44.601,jersey_experiment_5,2023.2.2,Win32,84.74576271,,,,,,,,,,,,,,,,290.6141,292.414,292.4141,292.991,return,0.1628,,24.86979167,,,,,,FBP-YG-18.png,0.37,1.2,37,1,0,17,17,36,1,,,,,,,,,,,,,,,,,,,,,,,,,,,,,,,,,,,,,,,,
,,,,,WIN24_041,20,Female,2024-02-08_12h31.44.601,jersey_experiment_5,2023.2.2,Win32,84.74576271,,,,,,,,,,,,,,,,292.9914,294.2848,294.2849,296.4492,return,0.1361,,75,,,,,,FBP-OG-19.png,0.45,1.2,15,0.5,0,18,18,14,1,,,,,,,,,,,,,,,,,,,,,,,,,,,,,,,,,,,,,,,,
,,,,,WIN24_041,20,Female,2024-02-08_12h31.44.601,jersey_experiment_5,2023.2.2,Win32,84.74576271,,,,,,,,,,,,,,,,296.4496,298.2497,298.2497,298.9907,return,0.2447,,75,,,,,,FBP-RB-81.png,0.43,1.2,24,1,0,19,19,23,1,,,,,,,,,,,,,,,,,,,,,,,,,,,,,,,,,,,,,,,,
,,,,,WIN24_041,20,Female,2024-02-08_12h31.44.601,jersey_experiment_5,2023.2.2,Win32,84.74576271,,,,,,,,,,,,,,,,298.9912,300.2853,300.2854,302.273,return,0.1364,,24.47916667,,,,,,FBP-OG-18.png,0.35,1.2,6,0.5,0,20,20,5,1,,,,,,,,,,,,,,,,,,,,,,,,,,,,,,,,,,,,,,,,
,,,,,WIN24_041,20,Female,2024-02-08_12h31.44.601,jersey_experiment_5,2023.2.2,Win32,84.74576271,,,,,,,,,,,,,,,,302.2735,303.5674,303.5674,304.3084,return,0.1685,,24.47916667,,,,,,FBP-PT-81.png,0.4,1.2,53,0.5,0,21,21,52,1,,,,,,,,,,,,,,,,,,,,,,,,,,,,,,,,,,,,,,,,
,,,,,WIN24_041,20,Female,2024-02-08_12h31.44.601,jersey_experiment_5,2023.2.2,Win32,84.74576271,,,,,,,,,,,,,,,,304.3088,305.6028,305.6028,307.0496,return,0.0473,,74.47916667,,,,,,FBP-PT-91.png,0.45,1.2,60,0.5,0,22,22,59,1,,,,,,,,,,,,,,,,,,,,,,,,,,,,,,,,,,,,,,,,
,,,,,WIN24_041,20,Female,2024-02-08_12h31.44.601,jersey_experiment_5,2023.2.2,Win32,84.74576271,,,,,,,,,,,,,,,,307.0501,308.8499,308.85,309.4969,return,0.1186,,74.47916667,,,,,,FBP-YG-17.png,0.45,1.2,35,1,0,23,23,34,1,,,,,,,,,,,,,,,,,,,,,,,,,,,,,,,,,,,,,,,,
,,,,,WIN24_041,20,Female,2024-02-08_12h31.44.601,jersey_experiment_5,2023.2.2,Win32,84.74576271,,,,,,,,,,,,,,,,309.4973,310.7912,310.7912,311.4615,return,0.1083,,74.47916667,,,,,,FBP-OG-17.png,0.43,1.2,4,0.5,0,24,24,3,1,,,,,,,,,,,,,,,,,,,,,,,,,,,,,,,,,,,,,,,,
,,,,,WIN24_041,20,Female,2024-02-08_12h31.44.601,jersey_experiment_5,2023.2.2,Win32,84.74576271,,,,,,,,,,,,,,,,311.4621,312.756,312.7561,313.3793,return,0.0988,,74.47916667,,,,,,FBP-PT-91.png,0.37,1.2,57,0.5,0,25,25,56,1,,,,,,,,,,,,,,,,,,,,,,,,,,,,,,,,,,,,,,,,
,,,,,WIN24_041,20,Female,2024-02-08_12h31.44.601,jersey_experiment_5,2023.2.2,Win32,84.74576271,,,,,,,,,,,,,,,,313.3798,315.1795,315.1796,316.3912,return,0.5892,,75.13020833,,,,,,FBP-RB-91.png,0.45,1.2,30,1,0,26,26,29,1,,,,,,,,,,,,,,,,,,,,,,,,,,,,,,,,,,,,,,,,
,,,,,WIN24_041,20,Female,2024-02-08_12h31.44.601,jersey_experiment_5,2023.2.2,Win32,84.74576271,,,,,,,,,,,,,,,,316.3916,317.6857,317.6858,318.4155,return,0.0449,,75.52083333,,,,,,FBP-PT-71.png,0.37,1.2,47,0.5,0,27,27,46,1,,,,,,,,,,,,,,,,,,,,,,,,,,,,,,,,,,,,,,,,
,,,,,WIN24_041,20,Female,2024-02-08_12h31.44.601,jersey_experiment_5,2023.2.2,Win32,84.74576271,,,,,,,,,,,,,,,,318.4159,320.2152,320.2153,320.8149,return,0.2208,,73.69791667,,,,,,FBP-RB-71.png,0.4,1.2,18,1,0,28,28,17,1,,,,,,,,,,,,,,,,,,,,,,,,,,,,,,,,,,,,,,,,
,,,,,WIN24_041,20,Female,2024-02-08_12h31.44.601,jersey_experiment_5,2023.2.2,Win32,84.74576271,,,,,,,,,,,,,,,,320.8154,322.1092,322.1093,323.5562,return,0.0041,,24.47916667,,,,,,FBP-PT-81.png,0.35,1.2,51,0.5,0,29,29,50,1,,,,,,,,,,,,,,,,,,,,,,,,,,,,,,,,,,,,,,,,
,,,,,WIN24_041,20,Female,2024-02-08_12h31.44.601,jersey_experiment_5,2023.2.2,Win32,84.74576271,,,,,,,,,,,,,,,,323.5566,325.3565,325.3565,325.9209,return,0.1484,,24.86979167,,,,,,FBP-YG-17.png,0.35,1.2,31,1,0,30,30,30,1,,,,,,,,,,,,,,,,,,,,,,,,,,,,,,,,,,,,,,,,
,,,,,WIN24_041,20,Female,2024-02-08_12h31.44.601,jersey_experiment_5,2023.2.2,Win32,84.74576271,,,,,,,,,,,,,,,,325.9213,327.2153,327.2153,328.9214,return,0.2368,,97.00520833,,,,,,FBP-OG-17.png,0.45,1.2,5,0.5,0,31,31,4,1,,,,,,,,,,,,,,,,,,,,,,,,,,,,,,,,,,,,,,,,
,,,,,WIN24_041,20,Female,2024-02-08_12h31.44.601,jersey_experiment_5,2023.2.2,Win32,84.74576271,,,,,,,,,,,,,,,,328.9219,330.2156,330.2156,331.4741,return,0.5354,,73.95833333,,,,,,FBP-OG-19.png,0.4,1.2,13,0.5,0,32,32,12,1,,,,,,,,,,,,,,,,,,,,,,,,,,,,,,,,,,,,,,,,
,,,,,WIN24_041,20,Female,2024-02-08_12h31.44.601,jersey_experiment_5,2023.2.2,Win32,84.74576271,,,,,,,,,,,,,,,,331.4745,333.2743,333.2744,333.9683,return,0.1842,,75,,,,,,FBP-YG-17.png,0.43,1.2,34,1,0,33,33,33,1,,,,,,,,,,,,,,,,,,,,,,,,,,,,,,,,,,,,,,,,
,,,,,WIN24_041,20,Female,2024-02-08_12h31.44.601,jersey_experiment_5,2023.2.2,Win32,84.74576271,,,,,,,,,,,,,,,,333.9687,335.7686,335.7687,336.8154,return,0.5967,,75,,,,,,FBP-RB-81.png,0.4,1.2,23,1,0,34,34,22,1,,,,,,,,,,,,,,,,,,,,,,,,,,,,,,,,,,,,,,,,
,,,,,WIN24_041,20,Female,2024-02-08_12h31.44.601,jersey_experiment_5,2023.2.2,Win32,84.74576271,,,,,,,,,,,,,,,,336.8159,338.1098,338.1099,338.8391,return,0.2716,,75,,,,,,FBP-OG-17.png,0.4,1.2,3,0.5,0,35,35,2,1,,,,,,,,,,,,,,,,,,,,,,,,,,,,,,,,,,,,,,,,
,,,,,WIN24_041,20,Female,2024-02-08_12h31.44.601,jersey_experiment_5,2023.2.2,Win32,84.74576271,,,,,,,,,,,,,,,,338.8395,340.6393,340.6393,342.9216,return,1.8239,,24.86979167,,,,,,FBP-RB-81.png,0.35,1.2,21,1,0,36,36,20,1,,,,,,,,,,,,,,,,,,,,,,,,,,,,,,,,,,,,,,,,
,,,,,WIN24_041,20,Female,2024-02-08_12h31.44.601,jersey_experiment_5,2023.2.2,Win32,84.74576271,,,,,,,,,,,,,,,,342.922,344.722,344.7221,345.3217,return,0.071,,24.86979167,,,,,,FBP-YG-19.png,0.4,1.2,43,1,0,37,37,42,1,,,,,,,,,,,,,,,,,,,,,,,,,,,,,,,,,,,,,,,,
,,,,,WIN24_041,20,Female,2024-02-08_12h31.44.601,jersey_experiment_5,2023.2.2,Win32,84.74576271,,,,,,,,,,,,,,,,345.3221,346.616,346.6161,347.863,return,0.4369,,24.86979167,,,,,,FBP-OG-18.png,0.4,1.2,8,0.5,0,38,38,7,1,,,,,,,,,,,,,,,,,,,,,,,,,,,,,,,,,,,,,,,,
,,,,,WIN24_041,20,Female,2024-02-08_12h31.44.601,jersey_experiment_5,2023.2.2,Win32,84.74576271,,,,,,,,,,,,,,,,347.8635,349.1575,349.1576,350.0395,return,0.3068,,24.86979167,,,,,,FBP-PT-71.png,0.43,1.2,49,0.5,0,39,39,48,1,,,,,,,,,,,,,,,,,,,,,,,,,,,,,,,,,,,,,,,,
,,,,,WIN24_041,20,Female,2024-02-08_12h31.44.601,jersey_experiment_5,2023.2.2,Win32,84.74576271,,,,,,,,,,,,,,,,350.0401,351.3341,351.3342,352.1808,return,0.0849,,24.86979167,,,,,,FBP-PT-71.png,0.45,1.2,50,0.5,0,40,40,49,1,,,,,,,,,,,,,,,,,,,,,,,,,,,,,,,,,,,,,,,,
,,,,,WIN24_041,20,Female,2024-02-08_12h31.44.601,jersey_experiment_5,2023.2.2,Win32,84.74576271,,,,,,,,,,,,,,,,352.1813,353.981,353.9811,354.5808,return,0.0974,,24.86979167,,,,,,FBP-YG-17.png,0.4,1.2,33,1,0,41,41,32,1,,,,,,,,,,,,,,,,,,,,,,,,,,,,,,,,,,,,,,,,
,,,,,WIN24_041,20,Female,2024-02-08_12h31.44.601,jersey_experiment_5,2023.2.2,Win32,84.74576271,,,,,,,,,,,,,,,,354.5813,355.8752,355.8752,356.6868,return,0.1387,,24.86979167,,,,,,FBP-OG-17.png,0.37,1.2,2,0.5,0,42,42,1,1,,,,,,,,,,,,,,,,,,,,,,,,,,,,,,,,,,,,,,,,
,,,,,WIN24_041,20,Female,2024-02-08_12h31.44.601,jersey_experiment_5,2023.2.2,Win32,84.74576271,,,,,,,,,,,,,,,,356.6873,358.487,358.4871,359.4872,return,0.0448,,24.86979167,,,,,,FBP-YG-18.png,0.43,1.2,39,1,0,43,43,38,1,,,,,,,,,,,,,,,,,,,,,,,,,,,,,,,,,,,,,,,,
,,,,,WIN24_041,20,Female,2024-02-08_12h31.44.601,jersey_experiment_5,2023.2.2,Win32,84.74576271,,,,,,,,,,,,,,,,359.4876,360.7812,360.7814,362.1459,return,0.1828,,24.86979167,,,,,,FBP-OG-19.png,0.37,1.2,12,0.5,0,44,44,11,1,,,,,,,,,,,,,,,,,,,,,,,,,,,,,,,,,,,,,,,,
,,,,,WIN24_041,20,Female,2024-02-08_12h31.44.601,jersey_experiment_5,2023.2.2,Win32,84.74576271,,,,,,,,,,,,,,,,362.1463,363.9461,363.9462,365.0166,return,0.2128,,24.86979167,,,,,,FBP-YG-19.png,0.35,1.2,41,1,0,45,45,40,1,,,,,,,,,,,,,,,,,,,,,,,,,,,,,,,,,,,,,,,,
,,,,,WIN24_041,20,Female,2024-02-08_12h31.44.601,jersey_experiment_5,2023.2.2,Win32,84.74576271,,,,,,,,,,,,,,,,365.0171,366.311,366.3111,367.2989,return,0.0285,,24.86979167,,,,,,FBP-PT-81.png,0.37,1.2,52,0.5,0,46,46,51,1,,,,,,,,,,,,,,,,,,,,,,,,,,,,,,,,,,,,,,,,
,,,,,WIN24_041,20,Female,2024-02-08_12h31.44.601,jersey_experiment_5,2023.2.2,Win32,84.74576271,,,,,,,,,,,,,,,,367.2994,369.1004,369.1005,369.9349,return,0.0805,,98.69791667,,,,,,FBP-YG-19.png,0.45,1.2,45,1,0,47,47,44,1,,,,,,,,,,,,,,,,,,,,,,,,,,,,,,,,,,,,,,,,
,,,,,WIN24_041,20,Female,2024-02-08_12h31.44.601,jersey_experiment_5,2023.2.2,Win32,84.74576271,,,,,,,,,,,,,,,,369.9353,371.2287,371.2288,373.205,return,0.2852,,25.13020833,,,,,,FBP-OG-18.png,0.37,1.2,7,0.5,0,48,48,6,1,,,,,,,,,,,,,,,,,,,,,,,,,,,,,,,,,,,,,,,,
,,,,,WIN24_041,20,Female,2024-02-08_12h31.44.601,jersey_experiment_5,2023.2.2,Win32,84.74576271,,,,,,,,,,,,,,,,373.2055,375.0054,375.0055,377.9934,return,0.2474,,75,,,,,,FBP-YG-19.png,0.43,1.2,44,1,0,49,49,43,1,,,,,,,,,,,,,,,,,,,,,,,,,,,,,,,,,,,,,,,,
,,,,,WIN24_041,20,Female,2024-02-08_12h31.44.601,jersey_experiment_5,2023.2.2,Win32,84.74576271,,,,,,,,,,,,,,,,377.9939,379.2879,379.2879,404.065,return,23.0554,,75,,,,,,FBP-OG-19.png,0.43,1.2,14,0.5,0,50,50,13,1,,,,,,,,,,,,,,,,,,,,,,,,,,,,,,,,,,,,,,,,
,,,,,WIN24_041,20,Female,2024-02-08_12h31.44.601,jersey_experiment_5,2023.2.2,Win32,84.74576271,,,,,,,,,,,,,,,,404.0747,405.8771,405.8772,411.3476,return,4.7691,,74.609375,,,,,,FBP-RB-91.png,0.37,1.2,27,1,0,51,51,26,1,,,,,,,,,,,,,,,,,,,,,,,,,,,,,,,,,,,,,,,,
,,,,,WIN24_041,20,Female,2024-02-08_12h31.44.601,jersey_experiment_5,2023.2.2,Win32,84.74576271,,,,,,,,,,,,,,,,411.3549,413.1483,413.1483,414.4536,return,0.8616,,74.86979167,,,,,,FBP-RB-81.png,0.37,1.2,22,1,0,52,52,21,1,,,,,,,,,,,,,,,,,,,,,,,,,,,,,,,,,,,,,,,,
,,,,,WIN24_041,20,Female,2024-02-08_12h31.44.601,jersey_experiment_5,2023.2.2,Win32,84.74576271,,,,,,,,,,,,,,,,414.4541,415.7477,415.7477,419.7127,return,1.6428,,74.86979167,,,,,,FBP-PT-81.png,0.43,1.2,54,0.5,0,53,53,53,1,,,,,,,,,,,,,,,,,,,,,,,,,,,,,,,,,,,,,,,,
,,,,,WIN24_041,20,Female,2024-02-08_12h31.44.601,jersey_experiment_5,2023.2.2,Win32,84.74576271,,,,,,,,,,,,,,,,419.7131,421.5129,421.513,454.6787,return,1.0252,,74.86979167,,,,,,FBP-YG-18.png,0.35,1.2,36,1,0,54,54,35,1,,,,,,,,,,,,,,,,,,,,,,,,,,,,,,,,,,,,,,,,
,,,,,WIN24_041,20,Female,2024-02-08_12h31.44.601,jersey_experiment_5,2023.2.2,Win32,84.74576271,,,,,,,,,,,,,,,,454.6791,456.4801,456.4801,458.3376,return,1.2657,,98.4375,,,,,,FBP-RB-91.png,0.43,1.2,29,1,0,55,55,28,1,,,,,,,,,,,,,,,,,,,,,,,,,,,,,,,,,,,,,,,,
,,,,,WIN24_041,20,Female,2024-02-08_12h31.44.601,jersey_experiment_5,2023.2.2,Win32,84.74576271,,,,,,,,,,,,,,,,458.3381,460.1379,460.1379,460.7377,return,0.077,,98.56770833,,,,,,FBP-RB-81.png,0.45,1.2,25,1,0,56,56,24,1,,,,,,,,,,,,,,,,,,,,,,,,,,,,,,,,,,,,,,,,
,,,,,WIN24_041,20,Female,2024-02-08_12h31.44.601,jersey_experiment_5,2023.2.2,Win32,84.74576271,,,,,,,,,,,,,,,,460.7381,462.0321,462.0322,462.7028,return,0.0213,,98.56770833,,,,,,FBP-PT-91.png,0.43,1.2,59,0.5,0,57,57,58,1,,,,,,,,,,,,,,,,,,,,,,,,,,,,,,,,,,,,,,,,
,,,,,WIN24_041,20,Female,2024-02-08_12h31.44.601,jersey_experiment_5,2023.2.2,Win32,84.74576271,,,,,,,,,,,,,,,,462.7032,464.5028,464.5028,465.0555,return,0.1498,,98.56770833,,,,,,FBP-RB-71.png,0.45,1.2,20,1,0,58,58,19,1,,,,,,,,,,,,,,,,,,,,,,,,,,,,,,,,,,,,,,,,
,,,,,WIN24_041,20,Female,2024-02-08_12h31.44.601,jersey_experiment_5,2023.2.2,Win32,84.74576271,,,,,,,,,,,,,,,,465.0559,466.3498,466.3499,469.3857,return,1.6833,,75.13020833,,,,,,FBP-PT-71.png,0.35,1.2,46,0.5,0,59,59,45,1,,,,,,,,,,,,,,,,,,,,,,,,,,,,,,,,,,,,,,,,
,,,,,WIN24_041,20,Female,2024-02-08_12h31.44.601,jersey_experiment_5,2023.2.2,Win32,84.74576271,,,,,,,,,,,,,,,,,,,,,,,,,,,,,,,,,,,,,,,469.3864,589.391,,,,,,,,,,,,,,,,,,,,,,,,,,,,,,,,,,,,,,
,,,,,WIN24_041,20,Female,2024-02-08_12h31.44.601,jersey_experiment_5,2023.2.2,Win32,84.74576271,,,,,,,,,,,,,,,,,,,,,,,,,,,,,,,,,,,,,,,,,589.3914,592.9781,return,3.5748,,,,,,,,,,,,,,,,,,,,,,,,,,,,,,,,,,
,,,,,WIN24_041,20,Female,2024-02-08_12h31.44.601,jersey_experiment_5,2023.2.2,Win32,84.74576271,,,,,,,,,,,,,,,,592.9906,594.2841,594.2842,595.4957,return,0.142,,75.13020833,,,,,,FBP-RB-18.png,0.43,1.2,24,0.5,,,,,,,,,,,,,0,0,0,23,1,,,,,,,,,,,,,,,,,,,,,,,,,,,,
,,,,,WIN24_041,20,Female,2024-02-08_12h31.44.601,jersey_experiment_5,2023.2.2,Win32,84.74576271,,,,,,,,,,,,,,,,595.4965,596.7901,596.7901,597.7311,return,0.5346,,75.13020833,,,,,,FBP-YG-81.png,0.43,1.2,39,0.5,,,,,,,,,,,,,0,1,1,38,1,,,,,,,,,,,,,,,,,,,,,,,,,,,,
,,,,,WIN24_041,20,Female,2024-02-08_12h31.44.601,jersey_experiment_5,2023.2.2,Win32,84.74576271,,,,,,,,,,,,,,,,597.7315,599.5314,599.5314,600.0253,return,0.0358,,75.13020833,,,,,,FBP-OG-81.png,0.45,1.2,10,1,,,,,,,,,,,,,0,2,2,9,1,,,,,,,,,,,,,,,,,,,,,,,,,,,,
,,,,,WIN24_041,20,Female,2024-02-08_12h31.44.601,jersey_experiment_5,2023.2.2,Win32,84.74576271,,,,,,,,,,,,,,,,600.0257,601.3196,601.3197,601.8253,return,0.1481,,75.13020833,,,,,,FBP-YG-71.png,0.45,1.2,35,0.5,,,,,,,,,,,,,0,3,3,34,1,,,,,,,,,,,,,,,,,,,,,,,,,,,,
,,,,,WIN24_041,20,Female,2024-02-08_12h31.44.601,jersey_experiment_5,2023.2.2,Win32,84.74576271,,,,,,,,,,,,,,,,601.8258,603.6256,603.6257,604.1195,return,0.1068,,75.13020833,,,,,,FBP-PT-19.png,0.45,1.2,60,1,,,,,,,,,,,,,0,4,4,59,1,,,,,,,,,,,,,,,,,,,,,,,,,,,,
,,,,,WIN24_041,20,Female,2024-02-08_12h31.44.601,jersey_experiment_5,2023.2.2,Win32,84.74576271,,,,,,,,,,,,,,,,604.12,605.414,605.4142,606.1431,return,0.0796,,75.390625,,,,,,FBP-RB-17.png,0.4,1.2,18,0.5,,,,,,,,,,,,,0,5,5,17,1,,,,,,,,,,,,,,,,,,,,,,,,,,,,
,,,,,WIN24_041,20,Female,2024-02-08_12h31.44.601,jersey_experiment_5,2023.2.2,Win32,84.74576271,,,,,,,,,,,,,,,,606.1436,607.9442,607.9444,609.2257,return,0.0464,,49.47916667,,,,,,FBP-PT-17.png,0.4,1.2,48,1,,,,,,,,,,,,,0,6,6,47,1,,,,,,,,,,,,,,,,,,,,,,,,,,,,
,,,,,WIN24_041,20,Female,2024-02-08_12h31.44.601,jersey_experiment_5,2023.2.2,Win32,84.74576271,,,,,,,,,,,,,,,,609.2261,610.52,610.5201,612.5199,return,1.0123,,24.86979167,,,,,,FBP-RB-18.png,0.35,1.2,21,0.5,,,,,,,,,,,,,0,7,7,20,1,,,,,,,,,,,,,,,,,,,,,,,,,,,,
,,,,,WIN24_041,20,Female,2024-02-08_12h31.44.601,jersey_experiment_5,2023.2.2,Win32,84.74576271,,,,,,,,,,,,,,,,612.5203,614.3199,614.3199,615.32,return,0.0597,,73.30729167,,,,,,FBP-OG-71.png,0.45,1.2,5,1,,,,,,,,,,,,,0,8,8,4,1,,,,,,,,,,,,,,,,,,,,,,,,,,,,
,,,,,WIN24_041,20,Female,2024-02-08_12h31.44.601,jersey_experiment_5,2023.2.2,Win32,84.74576271,,,,,,,,,,,,,,,,615.3205,616.614,616.614,617.6261,return,0.1063,,74.08854167,,,,,,FBP-RB-19.png,0.4,1.2,28,0.5,,,,,,,,,,,,,0,9,9,27,1,,,,,,,,,,,,,,,,,,,,,,,,,,,,
,,,,,WIN24_041,20,Female,2024-02-08_12h31.44.601,jersey_experiment_5,2023.2.2,Win32,84.74576271,,,,,,,,,,,,,,,,617.6265,619.4262,619.4263,620.2613,return,0.3441,,74.08854167,,,,,,FBP-OG-91.png,0.45,1.2,15,1,,,,,,,,,,,,,0,10,10,14,1,,,,,,,,,,,,,,,,,,,,,,,,,,,,
,,,,,WIN24_041,20,Female,2024-02-08_12h31.44.601,jersey_experiment_5,2023.2.2,Win32,84.74576271,,,,,,,,,,,,,,,,620.2617,622.0616,622.0616,622.8262,return,0.1068,,74.08854167,,,,,,FBP-OG-91.png,0.4,1.2,13,1,,,,,,,,,,,,,0,11,11,12,1,,,,,,,,,,,,,,,,,,,,,,,,,,,,
,,,,,WIN24_041,20,Female,2024-02-08_12h31.44.601,jersey_experiment_5,2023.2.2,Win32,84.74576271,,,,,,,,,,,,,,,,622.8267,624.1205,624.1206,624.7673,return,0.1265,,74.21875,,,,,,FBP-YG-91.png,0.45,1.2,45,0.5,,,,,,,,,,,,,0,12,12,44,1,,,,,,,,,,,,,,,,,,,,,,,,,,,,
,,,,,WIN24_041,20,Female,2024-02-08_12h31.44.601,jersey_experiment_5,2023.2.2,Win32,84.74576271,,,,,,,,,,,,,,,,624.7678,626.5678,626.5678,627.1909,return,0.0484,,74.21875,,,,,,FBP-OG-81.png,0.35,1.2,6,1,,,,,,,,,,,,,0,13,13,5,1,,,,,,,,,,,,,,,,,,,,,,,,,,,,
,,,,,WIN24_041,20,Female,2024-02-08_12h31.44.601,jersey_experiment_5,2023.2.2,Win32,84.74576271,,,,,,,,,,,,,,,,627.1914,628.9913,628.9913,629.5205,return,0.2548,,74.21875,,,,,,FBP-OG-71.png,0.37,1.2,2,1,,,,,,,,,,,,,0,14,14,1,1,,,,,,,,,,,,,,,,,,,,,,,,,,,,
,,,,,WIN24_041,20,Female,2024-02-08_12h31.44.601,jersey_experiment_5,2023.2.2,Win32,84.74576271,,,,,,,,,,,,,,,,629.521,631.3208,631.3209,634.8736,return,0.1418,,74.47916667,,,,,,FBP-PT-17.png,0.45,1.2,50,1,,,,,,,,,,,,,0,15,15,49,1,,,,,,,,,,,,,,,,,,,,,,,,,,,,
,,,,,WIN24_041,20,Female,2024-02-08_12h31.44.601,jersey_experiment_5,2023.2.2,Win32,84.74576271,,,,,,,,,,,,,,,,634.8741,636.6741,636.6743,637.2153,return,0.1963,,74.47916667,,,,,,FBP-PT-19.png,0.4,1.2,58,1,,,,,,,,,,,,,0,16,16,57,1,,,,,,,,,,,,,,,,,,,,,,,,,,,,
,,,,,WIN24_041,20,Female,2024-02-08_12h31.44.601,jersey_experiment_5,2023.2.2,Win32,84.74576271,,,,,,,,,,,,,,,,637.2157,639.0152,639.0153,641.3798,return,0.581,,24.73958333,,,,,,FBP-PT-17.png,0.35,1.2,46,1,,,,,,,,,,,,,0,17,17,45,1,,,,,,,,,,,,,,,,,,,,,,,,,,,,
,,,,,WIN24_041,20,Female,2024-02-08_12h31.44.601,jersey_experiment_5,2023.2.2,Win32,84.74576271,,,,,,,,,,,,,,,,641.3801,642.6742,642.6742,644.3565,return,0.051,,75.26041667,,,,,,FBP-RB-18.png,0.4,1.2,23,0.5,,,,,,,,,,,,,0,18,18,22,1,,,,,,,,,,,,,,,,,,,,,,,,,,,,
,,,,,WIN24_041,20,Female,2024-02-08_12h31.44.601,jersey_experiment_5,2023.2.2,Win32,84.74576271,,,,,,,,,,,,,,,,644.357,646.1568,646.1568,646.9446,return,0.3488,,75,,,,,,FBP-PT-19.png,0.37,1.2,57,1,,,,,,,,,,,,,0,19,19,56,1,,,,,,,,,,,,,,,,,,,,,,,,,,,,
,,,,,WIN24_041,20,Female,2024-02-08_12h31.44.601,jersey_experiment_5,2023.2.2,Win32,84.74576271,,,,,,,,,,,,,,,,646.9452,648.2391,648.2392,654.7096,return,0.2263,,74.609375,,,,,,FBP-YG-81.png,0.45,1.2,40,0.5,,,,,,,,,,,,,0,20,20,39,1,,,,,,,,,,,,,,,,,,,,,,,,,,,,
,,,,,WIN24_041,20,Female,2024-02-08_12h31.44.601,jersey_experiment_5,2023.2.2,Win32,84.74576271,,,,,,,,,,,,,,,,654.7101,656.5101,656.5101,657.098,return,0.1298,,74.609375,,,,,,FBP-PT-18.png,0.45,1.2,55,1,,,,,,,,,,,,,0,21,21,54,1,,,,,,,,,,,,,,,,,,,,,,,,,,,,
,,,,,WIN24_041,20,Female,2024-02-08_12h31.44.601,jersey_experiment_5,2023.2.2,Win32,84.74576271,,,,,,,,,,,,,,,,657.0985,658.3924,658.3925,658.9334,return,0.1912,,74.73958333,,,,,,FBP-YG-91.png,0.43,1.2,44,0.5,,,,,,,,,,,,,0,22,22,43,1,,,,,,,,,,,,,,,,,,,,,,,,,,,,
,,,,,WIN24_041,20,Female,2024-02-08_12h31.44.601,jersey_experiment_5,2023.2.2,Win32,84.74576271,,,,,,,,,,,,,,,,658.9338,660.2278,660.2278,661.957,return,0.1326,,24.73958333,,,,,,FBP-YG-91.png,0.35,1.2,41,0.5,,,,,,,,,,,,,0,23,23,40,1,,,,,,,,,,,,,,,,,,,,,,,,,,,,
,,,,,WIN24_041,20,Female,2024-02-08_12h31.44.601,jersey_experiment_5,2023.2.2,Win32,84.74576271,,,,,,,,,,,,,,,,661.9575,663.7573,663.7573,664.2983,return,0.4355,,24.73958333,,,,,,FBP-OG-91.png,0.35,1.2,11,1,,,,,,,,,,,,,0,24,24,10,1,,,,,,,,,,,,,,,,,,,,,,,,,,,,
,,,,,WIN24_041,20,Female,2024-02-08_12h31.44.601,jersey_experiment_5,2023.2.2,Win32,84.74576271,,,,,,,,,,,,,,,,664.2987,665.5927,665.5927,666.2278,return,0.2045,,25,,,,,,FBP-YG-71.png,0.4,1.2,33,0.5,,,,,,,,,,,,,0,25,25,32,1,,,,,,,,,,,,,,,,,,,,,,,,,,,,
,,,,,WIN24_041,20,Female,2024-02-08_12h31.44.601,jersey_experiment_5,2023.2.2,Win32,84.74576271,,,,,,,,,,,,,,,,666.2283,668.0289,668.0289,669.3926,return,0.6196,,74.47916667,,,,,,FBP-PT-17.png,0.43,1.2,49,1,,,,,,,,,,,,,0,26,26,48,1,,,,,,,,,,,,,,,,,,,,,,,,,,,,
,,,,,WIN24_041,20,Female,2024-02-08_12h31.44.601,jersey_experiment_5,2023.2.2,Win32,84.74576271,,,,,,,,,,,,,,,,669.3931,670.6871,670.6871,672.1456,return,0.2772,,25.26041667,,,,,,FBP-RB-19.png,0.35,1.2,26,0.5,,,,,,,,,,,,,0,27,27,25,1,,,,,,,,,,,,,,,,,,,,,,,,,,,,
,,,,,WIN24_041,20,Female,2024-02-08_12h31.44.601,jersey_experiment_5,2023.2.2,Win32,84.74576271,,,,,,,,,,,,,,,,672.146,673.9467,673.9468,675.1222,return,0.1945,,24.86979167,,,,,,FBP-PT-18.png,0.37,1.2,52,1,,,,,,,,,,,,,0,28,28,51,1,,,,,,,,,,,,,,,,,,,,,,,,,,,,
,,,,,WIN24_041,20,Female,2024-02-08_12h31.44.601,jersey_experiment_5,2023.2.2,Win32,84.74576271,,,,,,,,,,,,,,,,675.1227,676.4167,676.4167,678.0401,return,0.2714,,75.65104167,,,,,,FBP-RB-18.png,0.45,1.2,25,0.5,,,,,,,,,,,,,0,29,29,24,1,,,,,,,,,,,,,,,,,,,,,,,,,,,,
,,,,,WIN24_041,20,Female,2024-02-08_12h31.44.601,jersey_experiment_5,2023.2.2,Win32,84.74576271,,,,,,,,,,,,,,,,678.0407,679.8404,679.8404,680.4871,return,0.0599,,75.390625,,,,,,FBP-OG-71.png,0.43,1.2,4,1,,,,,,,,,,,,,0,30,30,3,1,,,,,,,,,,,,,,,,,,,,,,,,,,,,
,,,,,WIN24_041,20,Female,2024-02-08_12h31.44.601,jersey_experiment_5,2023.2.2,Win32,84.74576271,,,,,,,,,,,,,,,,680.4875,682.2874,682.2875,684.4637,return,0.1146,,24.47916667,,,,,,FBP-OG-91.png,0.37,1.2,12,1,,,,,,,,,,,,,0,31,31,11,1,,,,,,,,,,,,,,,,,,,,,,,,,,,,
,,,,,WIN24_041,20,Female,2024-02-08_12h31.44.601,jersey_experiment_5,2023.2.2,Win32,84.74576271,,,,,,,,,,,,,,,,684.4642,686.264,686.264,686.8991,return,0.1464,,24.47916667,,,,,,FBP-PT-17.png,0.37,1.2,47,1,,,,,,,,,,,,,0,32,32,46,1,,,,,,,,,,,,,,,,,,,,,,,,,,,,
,,,,,WIN24_041,20,Female,2024-02-08_12h31.44.601,jersey_experiment_5,2023.2.2,Win32,84.74576271,,,,,,,,,,,,,,,,686.8995,688.6994,688.6995,689.2522,return,0.1572,,24.47916667,,,,,,FBP-PT-18.png,0.4,1.2,53,1,,,,,,,,,,,,,0,33,33,52,1,,,,,,,,,,,,,,,,,,,,,,,,,,,,
,,,,,WIN24_041,20,Female,2024-02-08_12h31.44.601,jersey_experiment_5,2023.2.2,Win32,84.74576271,,,,,,,,,,,,,,,,689.2525,690.5467,690.5467,691.2052,return,0.0855,,24.47916667,,,,,,FBP-RB-17.png,0.37,1.2,17,0.5,,,,,,,,,,,,,0,34,34,16,1,,,,,,,,,,,,,,,,,,,,,,,,,,,,
,,,,,WIN24_041,20,Female,2024-02-08_12h31.44.601,jersey_experiment_5,2023.2.2,Win32,84.74576271,,,,,,,,,,,,,,,,691.2057,693.0054,693.0055,693.6641,return,0.2318,,24.47916667,,,,,,FBP-OG-81.png,0.37,1.2,7,1,,,,,,,,,,,,,0,35,35,6,1,,,,,,,,,,,,,,,,,,,,,,,,,,,,
,,,,,WIN24_041,20,Female,2024-02-08_12h31.44.601,jersey_experiment_5,2023.2.2,Win32,84.74576271,,,,,,,,,,,,,,,,693.6646,694.9584,694.9585,695.5229,return,0.1113,,24.47916667,,,,,,FBP-YG-71.png,0.37,1.2,32,0.5,,,,,,,,,,,,,0,36,36,31,1,,,,,,,,,,,,,,,,,,,,,,,,,,,,
,,,,,WIN24_041,20,Female,2024-02-08_12h31.44.601,jersey_experiment_5,2023.2.2,Win32,84.74576271,,,,,,,,,,,,,,,,695.5234,696.8172,696.8173,699.8879,return,2.091,,74.609375,,,,,,FBP-RB-17.png,0.45,1.2,20,0.5,,,,,,,,,,,,,0,37,37,19,1,,,,,,,,,,,,,,,,,,,,,,,,,,,,
,,,,,WIN24_041,20,Female,2024-02-08_12h31.44.601,jersey_experiment_5,2023.2.2,Win32,84.74576271,,,,,,,,,,,,,,,,699.8886,701.1824,701.1824,701.8173,return,0.0478,,75,,,,,,FBP-YG-91.png,0.37,1.2,42,0.5,,,,,,,,,,,,,0,38,38,41,1,,,,,,,,,,,,,,,,,,,,,,,,,,,,
,,,,,WIN24_041,20,Female,2024-02-08_12h31.44.601,jersey_experiment_5,2023.2.2,Win32,84.74576271,,,,,,,,,,,,,,,,701.8177,703.1119,703.1119,704.241,return,0.4426,,75,,,,,,FBP-YG-71.png,0.43,1.2,34,0.5,,,,,,,,,,,,,0,39,39,33,1,,,,,,,,,,,,,,,,,,,,,,,,,,,,
,,,,,WIN24_041,20,Female,2024-02-08_12h31.44.601,jersey_experiment_5,2023.2.2,Win32,84.74576271,,,,,,,,,,,,,,,,704.2415,705.5353,705.5353,707.5587,return,0.7429,,74.21875,,,,,,FBP-RB-19.png,0.43,1.2,29,0.5,,,,,,,,,,,,,0,40,40,28,1,,,,,,,,,,,,,,,,,,,,,,,,,,,,
,,,,,WIN24_041,20,Female,2024-02-08_12h31.44.601,jersey_experiment_5,2023.2.2,Win32,84.74576271,,,,,,,,,,,,,,,,707.5591,708.8531,708.8532,709.5352,return,0.0206,,74.21875,,,,,,FBP-YG-91.png,0.4,1.2,43,0.5,,,,,,,,,,,,,0,41,41,42,1,,,,,,,,,,,,,,,,,,,,,,,,,,,,
,,,,,WIN24_041,20,Female,2024-02-08_12h31.44.601,jersey_experiment_5,2023.2.2,Win32,84.74576271,,,,,,,,,,,,,,,,709.5357,710.8296,710.8297,712.6295,return,0.1793,,23.828125,,,,,,FBP-YG-81.png,0.35,1.2,36,0.5,,,,,,,,,,,,,0,42,42,35,1,,,,,,,,,,,,,,,,,,,,,,,,,,,,
,,,,,WIN24_041,20,Female,2024-02-08_12h31.44.601,jersey_experiment_5,2023.2.2,Win32,84.74576271,,,,,,,,,,,,,,,,712.6299,714.4308,714.4309,715.3825,return,0.1665,,74.73958333,,,,,,FBP-OG-91.png,0.43,1.2,14,1,,,,,,,,,,,,,0,43,43,13,1,,,,,,,,,,,,,,,,,,,,,,,,,,,,
,,,,,WIN24_041,20,Female,2024-02-08_12h31.44.601,jersey_experiment_5,2023.2.2,Win32,84.74576271,,,,,,,,,,,,,,,,715.3829,716.6769,716.6769,718.0181,return,0.124,,73.56770833,,,,,,FBP-RB-18.png,0.37,1.2,22,0.5,,,,,,,,,,,,,0,44,44,21,1,,,,,,,,,,,,,,,,,,,,,,,,,,,,
,,,,,WIN24_041,20,Female,2024-02-08_12h31.44.601,jersey_experiment_5,2023.2.2,Win32,84.74576271,,,,,,,,,,,,,,,,718.0185,719.3122,719.3123,720.3122,return,0.0948,,75.390625,,,,,,FBP-YG-81.png,0.37,1.2,37,0.5,,,,,,,,,,,,,0,45,45,36,1,,,,,,,,,,,,,,,,,,,,,,,,,,,,
,,,,,WIN24_041,20,Female,2024-02-08_12h31.44.601,jersey_experiment_5,2023.2.2,Win32,84.74576271,,,,,,,,,,,,,,,,720.3127,721.6065,721.6066,722.9829,return,0.5422,,75.26041667,,,,,,FBP-YG-71.png,0.35,1.2,31,0.5,,,,,,,,,,,,,0,46,46,30,1,,,,,,,,,,,,,,,,,,,,,,,,,,,,
,,,,,WIN24_041,20,Female,2024-02-08_12h31.44.601,jersey_experiment_5,2023.2.2,Win32,84.74576271,,,,,,,,,,,,,,,,722.9834,724.7831,724.7832,725.6535,return,0.2027,,75.26041667,,,,,,FBP-OG-81.png,0.4,1.2,8,1,,,,,,,,,,,,,0,47,47,7,1,,,,,,,,,,,,,,,,,,,,,,,,,,,,
,,,,,WIN24_041,20,Female,2024-02-08_12h31.44.601,jersey_experiment_5,2023.2.2,Win32,84.74576271,,,,,,,,,,,,,,,,725.6539,726.9479,726.948,727.9713,return,0.0875,,75.13020833,,,,,,FBP-RB-17.png,0.35,1.2,16,0.5,,,,,,,,,,,,,0,48,48,15,1,,,,,,,,,,,,,,,,,,,,,,,,,,,,
,,,,,WIN24_041,20,Female,2024-02-08_12h31.44.601,jersey_experiment_5,2023.2.2,Win32,84.74576271,,,,,,,,,,,,,,,,727.9718,729.7713,729.7713,730.5831,return,0.213,,75.13020833,,,,,,FBP-PT-18.png,0.43,1.2,54,1,,,,,,,,,,,,,0,49,49,53,1,,,,,,,,,,,,,,,,,,,,,,,,,,,,
,,,,,WIN24_041,20,Female,2024-02-08_12h31.44.601,jersey_experiment_5,2023.2.2,Win32,84.74576271,,,,,,,,,,,,,,,,730.5836,732.3835,732.3835,733.7832,return,0.26,,24.47916667,,,,,,FBP-PT-18.png,0.35,1.2,51,1,,,,,,,,,,,,,0,50,50,50,1,,,,,,,,,,,,,,,,,,,,,,,,,,,,
,,,,,WIN24_041,20,Female,2024-02-08_12h31.44.601,jersey_experiment_5,2023.2.2,Win32,84.74576271,,,,,,,,,,,,,,,,733.7836,735.5843,735.5844,736.7716,return,0.04,,74.73958333,,,,,,FBP-PT-19.png,0.43,1.2,59,1,,,,,,,,,,,,,0,51,51,58,1,,,,,,,,,,,,,,,,,,,,,,,,,,,,
,,,,,WIN24_041,20,Female,2024-02-08_12h31.44.601,jersey_experiment_5,2023.2.2,Win32,84.74576271,,,,,,,,,,,,,,,,736.7721,738.5718,738.5718,739.2314,return,0.1866,,74.73958333,,,,,,FBP-OG-81.png,0.43,1.2,9,1,,,,,,,,,,,,,0,52,52,8,1,,,,,,,,,,,,,,,,,,,,,,,,,,,,
,,,,,WIN24_041,20,Female,2024-02-08_12h31.44.601,jersey_experiment_5,2023.2.2,Win32,84.74576271,,,,,,,,,,,,,,,,739.2316,740.5248,740.5249,741.1365,return,0.0903,,74.73958333,,,,,,FBP-RB-19.png,0.37,1.2,27,0.5,,,,,,,,,,,,,0,53,53,26,1,,,,,,,,,,,,,,,,,,,,,,,,,,,,
,,,,,WIN24_041,20,Female,2024-02-08_12h31.44.601,jersey_experiment_5,2023.2.2,Win32,84.74576271,,,,,,,,,,,,,,,,741.1369,742.9368,742.9369,744.0895,return,0.0598,,74.73958333,,,,,,FBP-OG-71.png,0.4,1.2,3,1,,,,,,,,,,,,,0,54,54,2,1,,,,,,,,,,,,,,,,,,,,,,,,,,,,
,,,,,WIN24_041,20,Female,2024-02-08_12h31.44.601,jersey_experiment_5,2023.2.2,Win32,84.74576271,,,,,,,,,,,,,,,,744.0899,745.8898,745.8899,746.5955,return,0.052,,74.73958333,,,,,,FBP-PT-19.png,0.35,1.2,56,1,,,,,,,,,,,,,0,55,55,55,1,,,,,,,,,,,,,,,,,,,,,,,,,,,,
,,,,,WIN24_041,20,Female,2024-02-08_12h31.44.601,jersey_experiment_5,2023.2.2,Win32,84.74576271,,,,,,,,,,,,,,,,746.5959,747.8901,747.8902,748.5132,return,0.1601,,74.73958333,,,,,,FBP-RB-17.png,0.43,1.2,19,0.5,,,,,,,,,,,,,0,56,56,18,1,,,,,,,,,,,,,,,,,,,,,,,,,,,,
,,,,,WIN24_041,20,Female,2024-02-08_12h31.44.601,jersey_experiment_5,2023.2.2,Win32,84.74576271,,,,,,,,,,,,,,,,748.5136,750.3141,750.3142,751.4781,return,0.1552,,24.86979167,,,,,,FBP-OG-71.png,0.35,1.2,1,1,,,,,,,,,,,,,0,57,57,0,1,,,,,,,,,,,,,,,,,,,,,,,,,,,,
,,,,,WIN24_041,20,Female,2024-02-08_12h31.44.601,jersey_experiment_5,2023.2.2,Win32,84.74576271,,,,,,,,,,,,,,,,751.4785,752.7723,752.7725,754.2311,return,0.1544,,98.95833333,,,,,,FBP-RB-19.png,0.45,1.2,30,0.5,,,,,,,,,,,,,0,58,58,29,1,,,,,,,,,,,,,,,,,,,,,,,,,,,,
,,,,,WIN24_041,20,Female,2024-02-08_12h31.44.601,jersey_experiment_5,2023.2.2,Win32,84.74576271,,,,,,,,,,,,,,,,754.2315,755.5255,755.5255,757.5135,return,0.2363,,75.26041667,,,,,,FBP-YG-81.png,0.4,1.2,38,0.5,,,,,,,,,,,,,0,59,59,37,1,,,,,,,,,,,,,,,,,,,,,,,,,,,,
,,,,,WIN24_041,20,Female,2024-02-08_12h31.44.601,jersey_experiment_5,2023.2.2,Win32,84.74576271,,,,,,,,,,,,,,,,757.5186,759.314,759.314,759.9725,return,0.0511,,75.26041667,,,,,,FBP-OG-18.png,0.37,1.2,7,1,,,,,,,,,,,,,,,,,,0,0,0,6,1,,,,,,,,,,,,,,,,,,,,,,,
,,,,,WIN24_041,20,Female,2024-02-08_12h31.44.601,jersey_experiment_5,2023.2.2,Win32,84.74576271,,,,,,,,,,,,,,,,759.9731,761.7727,761.7727,768.2316,return,4.9894,,25.65104167,,,,,,FBP-OG-17.png,0.35,1.2,1,1,,,,,,,,,,,,,,,,,,0,1,1,0,1,,,,,,,,,,,,,,,,,,,,,,,
,,,,,WIN24_041,20,Female,2024-02-08_12h31.44.601,jersey_experiment_5,2023.2.2,Win32,84.74576271,,,,,,,,,,,,,,,,768.2408,769.5379,769.5379,770.1846,return,0.0595,,26.30208333,,,,,,FBP-YG-17.png,0.43,1.2,34,0.5,,,,,,,,,,,,,,,,,,0,2,2,33,1,,,,,,,,,,,,,,,,,,,,,,,
,,,,,WIN24_041,20,Female,2024-02-08_12h31.44.601,jersey_experiment_5,2023.2.2,Win32,84.74576271,,,,,,,,,,,,,,,,770.1851,771.4802,771.4802,772.9613,return,0.725,,74.21875,,,,,,FBP-RB-71.png,0.45,1.2,20,0.5,,,,,,,,,,,,,,,,,,0,3,3,19,1,,,,,,,,,,,,,,,,,,,,,,,
,,,,,WIN24_041,20,Female,2024-02-08_12h31.44.601,jersey_experiment_5,2023.2.2,Win32,84.74576271,,,,,,,,,,,,,,,,772.9616,774.7623,774.7624,775.9613,return,0.095,,25.13020833,,,,,,FBP-PT-91.png,0.37,1.2,57,1,,,,,,,,,,,,,,,,,,0,4,4,56,1,,,,,,,,,,,,,,,,,,,,,,,
,,,,,WIN24_041,20,Female,2024-02-08_12h31.44.601,jersey_experiment_5,2023.2.2,Win32,84.74576271,,,,,,,,,,,,,,,,775.9617,777.7625,777.7626,778.8555,return,0.1891,,75.13020833,,,,,,FBP-PT-81.png,0.43,1.2,54,1,,,,,,,,,,,,,,,,,,0,5,5,53,1,,,,,,,,,,,,,,,,,,,,,,,
,,,,,WIN24_041,20,Female,2024-02-08_12h31.44.601,jersey_experiment_5,2023.2.2,Win32,84.74576271,,,,,,,,,,,,,,,,778.8559,780.6558,780.6558,781.2556,return,0.1891,,75.13020833,,,,,,FBP-OG-18.png,0.45,1.2,10,1,,,,,,,,,,,,,,,,,,0,6,6,9,1,,,,,,,,,,,,,,,,,,,,,,,
,,,,,WIN24_041,20,Female,2024-02-08_12h31.44.601,jersey_experiment_5,2023.2.2,Win32,84.74576271,,,,,,,,,,,,,,,,781.256,782.55,782.55,784.0086,return,0.0123,,25.13020833,,,,,,FBP-RB-71.png,0.35,1.2,16,0.5,,,,,,,,,,,,,,,,,,0,7,7,15,1,,,,,,,,,,,,,,,,,,,,,,,
,,,,,WIN24_041,20,Female,2024-02-08_12h31.44.601,jersey_experiment_5,2023.2.2,Win32,84.74576271,,,,,,,,,,,,,,,,784.009,785.8089,785.809,786.4088,return,0.1418,,25.13020833,,,,,,FBP-PT-71.png,0.4,1.2,48,1,,,,,,,,,,,,,,,,,,0,8,8,47,1,,,,,,,,,,,,,,,,,,,,,,,
,,,,,WIN24_041,20,Female,2024-02-08_12h31.44.601,jersey_experiment_5,2023.2.2,Win32,84.74576271,,,,,,,,,,,,,,,,786.4092,788.2099,788.21,789.1384,return,0.065,,74.47916667,,,,,,FBP-PT-91.png,0.45,1.2,60,1,,,,,,,,,,,,,,,,,,0,9,9,59,1,,,,,,,,,,,,,,,,,,,,,,,
,,,,,WIN24_041,20,Female,2024-02-08_12h31.44.601,jersey_experiment_5,2023.2.2,Win32,84.74576271,,,,,,,,,,,,,,,,789.1388,790.4327,790.4327,791.7148,return,0.0172,,25.13020833,,,,,,FBP-YG-18.png,0.37,1.2,37,0.5,,,,,,,,,,,,,,,,,,0,10,10,36,1,,,,,,,,,,,,,,,,,,,,,,,
,,,,,WIN24_041,20,Female,2024-02-08_12h31.44.601,jersey_experiment_5,2023.2.2,Win32,84.74576271,,,,,,,,,,,,,,,,791.7152,793.0092,793.0093,793.6796,return,0.1146,,25.13020833,,,,,,FBP-YG-18.png,0.4,1.2,38,0.5,,,,,,,,,,,,,,,,,,0,11,11,37,1,,,,,,,,,,,,,,,,,,,,,,,
,,,,,WIN24_041,20,Female,2024-02-08_12h31.44.601,jersey_experiment_5,2023.2.2,Win32,84.74576271,,,,,,,,,,,,,,,,793.68,794.9741,794.9741,796.0091,return,0.1538,,75.390625,,,,,,FBP-YG-18.png,0.45,1.2,40,0.5,,,,,,,,,,,,,,,,,,0,12,12,39,1,,,,,,,,,,,,,,,,,,,,,,,
,,,,,WIN24_041,20,Female,2024-02-08_12h31.44.601,jersey_experiment_5,2023.2.2,Win32,84.74576271,,,,,,,,,,,,,,,,796.0095,797.3043,797.3043,798.8563,return,0.1301,,25,,,,,,FBP-YG-18.png,0.35,1.2,36,0.5,,,,,,,,,,,,,,,,,,0,13,13,35,1,,,,,,,,,,,,,,,,,,,,,,,
,,,,,WIN24_041,20,Female,2024-02-08_12h31.44.601,jersey_experiment_5,2023.2.2,Win32,84.74576271,,,,,,,,,,,,,,,,798.8568,800.6571,800.6571,802.4682,return,0.7454,,24.73958333,,,,,,FBP-OG-19.png,0.37,1.2,12,1,,,,,,,,,,,,,,,,,,0,14,14,11,1,,,,,,,,,,,,,,,,,,,,,,,
,,,,,WIN24_041,20,Female,2024-02-08_12h31.44.601,jersey_experiment_5,2023.2.2,Win32,84.74576271,,,,,,,,,,,,,,,,802.4686,803.7623,803.7624,804.3389,return,0.1233,,24.73958333,,,,,,FBP-YG-17.png,0.35,1.2,31,0.5,,,,,,,,,,,,,,,,,,0,15,15,30,1,,,,,,,,,,,,,,,,,,,,,,,
,,,,,WIN24_041,20,Female,2024-02-08_12h31.44.601,jersey_experiment_5,2023.2.2,Win32,84.74576271,,,,,,,,,,,,,,,,804.3393,806.14,806.14,807.586,return,0.2299,,75,,,,,,FBP-PT-71.png,0.37,1.2,47,1,,,,,,,,,,,,,,,,,,0,16,16,46,1,,,,,,,,,,,,,,,,,,,,,,,
,,,,,WIN24_041,20,Female,2024-02-08_12h31.44.601,jersey_experiment_5,2023.2.2,Win32,84.74576271,,,,,,,,,,,,,,,,807.5864,809.3863,809.3864,809.9038,return,0.1145,,75,,,,,,FBP-PT-71.png,0.45,1.2,50,1,,,,,,,,,,,,,,,,,,0,17,17,49,1,,,,,,,,,,,,,,,,,,,,,,,
,,,,,WIN24_041,20,Female,2024-02-08_12h31.44.601,jersey_experiment_5,2023.2.2,Win32,84.74576271,,,,,,,,,,,,,,,,809.9043,811.7051,811.7052,813.045,return,0.3563,,25.13020833,,,,,,FBP-PT-71.png,0.35,1.2,46,1,,,,,,,,,,,,,,,,,,0,18,18,45,1,,,,,,,,,,,,,,,,,,,,,,,
,,,,,WIN24_041,20,Female,2024-02-08_12h31.44.601,jersey_experiment_5,2023.2.2,Win32,84.74576271,,,,,,,,,,,,,,,,813.0455,814.3395,814.3396,816.4099,return,0.8231,,24.47916667,,,,,,FBP-RB-91.png,0.37,1.2,27,0.5,,,,,,,,,,,,,,,,,,0,19,19,26,1,,,,,,,,,,,,,,,,,,,,,,,
,,,,,WIN24_041,20,Female,2024-02-08_12h31.44.601,jersey_experiment_5,2023.2.2,Win32,84.74576271,,,,,,,,,,,,,,,,816.4103,817.7042,817.7043,818.7747,return,0.39,,25.26041667,,,,,,FBP-YG-17.png,0.4,1.2,33,0.5,,,,,,,,,,,,,,,,,,0,20,20,32,1,,,,,,,,,,,,,,,,,,,,,,,
,,,,,WIN24_041,20,Female,2024-02-08_12h31.44.601,jersey_experiment_5,2023.2.2,Win32,84.74576271,,,,,,,,,,,,,,,,818.7751,820.5762,820.5762,823.1042,return,1.6436,,74.34895833,,,,,,FBP-OG-19.png,0.43,1.2,14,1,,,,,,,,,,,,,,,,,,0,21,21,13,1,,,,,,,,,,,,,,,,,,,,,,,
,,,,,WIN24_041,20,Female,2024-02-08_12h31.44.601,jersey_experiment_5,2023.2.2,Win32,84.74576271,,,,,,,,,,,,,,,,823.1047,824.9042,824.9043,825.5043,return,0.1965,,75.13020833,,,,,,FBP-PT-91.png,0.43,1.2,59,1,,,,,,,,,,,,,,,,,,0,22,22,58,1,,,,,,,,,,,,,,,,,,,,,,,
,,,,,WIN24_041,20,Female,2024-02-08_12h31.44.601,jersey_experiment_5,2023.2.2,Win32,84.74576271,,,,,,,,,,,,,,,,825.5047,826.7987,826.7989,827.3752,return,0.1625,,75.13020833,,,,,,FBP-RB-81.png,0.4,1.2,23,0.5,,,,,,,,,,,,,,,,,,0,23,23,22,1,,,,,,,,,,,,,,,,,,,,,,,
,,,,,WIN24_041,20,Female,2024-02-08_12h31.44.601,jersey_experiment_5,2023.2.2,Win32,84.74576271,,,,,,,,,,,,,,,,827.3756,828.6695,828.6695,830.0341,return,0.489,,75,,,,,,FBP-RB-81.png,0.37,1.2,22,0.5,,,,,,,,,,,,,,,,,,0,24,24,21,1,,,,,,,,,,,,,,,,,,,,,,,
,,,,,WIN24_041,20,Female,2024-02-08_12h31.44.601,jersey_experiment_5,2023.2.2,Win32,84.74576271,,,,,,,,,,,,,,,,830.0345,831.3279,831.3279,834.0577,return,2.1424,,74.73958333,,,,,,FBP-YG-18.png,0.43,1.2,39,0.5,,,,,,,,,,,,,,,,,,0,25,25,38,1,,,,,,,,,,,,,,,,,,,,,,,
,,,,,WIN24_041,20,Female,2024-02-08_12h31.44.601,jersey_experiment_5,2023.2.2,Win32,84.74576271,,,,,,,,,,,,,,,,834.058,835.352,835.3521,835.7518,return,0.1655,,74.73958333,,,,,,FBP-RB-91.png,0.43,1.2,29,0.5,,,,,,,,,,,,,,,,,,0,26,26,28,1,,,,,,,,,,,,,,,,,,,,,,,
,,,,,WIN24_041,20,Female,2024-02-08_12h31.44.601,jersey_experiment_5,2023.2.2,Win32,84.74576271,,,,,,,,,,,,,,,,835.7522,837.0462,837.0463,837.6578,return,0.1772,,74.609375,,,,,,FBP-RB-71.png,0.37,1.2,17,0.5,,,,,,,,,,,,,,,,,,0,27,27,16,1,,,,,,,,,,,,,,,,,,,,,,,
,,,,,WIN24_041,20,Female,2024-02-08_12h31.44.601,jersey_experiment_5,2023.2.2,Win32,84.74576271,,,,,,,,,,,,,,,,837.6583,839.458,839.4581,840.0343,return,0.171,,74.609375,,,,,,FBP-PT-91.png,0.4,1.2,58,1,,,,,,,,,,,,,,,,,,0,28,28,57,1,,,,,,,,,,,,,,,,,,,,,,,
,,,,,WIN24_041,20,Female,2024-02-08_12h31.44.601,jersey_experiment_5,2023.2.2,Win32,84.74576271,,,,,,,,,,,,,,,,840.0347,841.3286,841.3287,842.0226,return,0.2019,,74.609375,,,,,,FBP-YG-19.png,0.43,1.2,44,0.5,,,,,,,,,,,,,,,,,,0,29,29,43,1,,,,,,,,,,,,,,,,,,,,,,,
,,,,,WIN24_041,20,Female,2024-02-08_12h31.44.601,jersey_experiment_5,2023.2.2,Win32,84.74576271,,,,,,,,,,,,,,,,842.0229,843.8231,843.8232,844.5522,return,0.3068,,74.609375,,,,,,FBP-PT-81.png,0.4,1.2,53,1,,,,,,,,,,,,,,,,,,0,30,30,52,1,,,,,,,,,,,,,,,,,,,,,,,
,,,,,WIN24_041,20,Female,2024-02-08_12h31.44.601,jersey_experiment_5,2023.2.2,Win32,84.74576271,,,,,,,,,,,,,,,,844.5526,845.8465,845.8465,846.4698,return,0.0856,,74.609375,,,,,,FBP-YG-19.png,0.37,1.2,42,0.5,,,,,,,,,,,,,,,,,,0,31,31,41,1,,,,,,,,,,,,,,,,,,,,,,,
,,,,,WIN24_041,20,Female,2024-02-08_12h31.44.601,jersey_experiment_5,2023.2.2,Win32,84.74576271,,,,,,,,,,,,,,,,846.4702,848.2701,848.2702,849.6817,return,0.195,,74.609375,,,,,,FBP-PT-81.png,0.37,1.2,52,1,,,,,,,,,,,,,,,,,,0,32,32,51,1,,,,,,,,,,,,,,,,,,,,,,,
,,,,,WIN24_041,20,Female,2024-02-08_12h31.44.601,jersey_experiment_5,2023.2.2,Win32,84.74576271,,,,,,,,,,,,,,,,849.6821,851.4827,851.4828,852.4583,return,0.2474,,97.78645833,,,,,,FBP-OG-19.png,0.45,1.2,15,1,,,,,,,,,,,,,,,,,,0,33,33,14,1,,,,,,,,,,,,,,,,,,,,,,,
,,,,,WIN24_041,20,Female,2024-02-08_12h31.44.601,jersey_experiment_5,2023.2.2,Win32,84.74576271,,,,,,,,,,,,,,,,852.4587,853.7526,853.7527,860.5056,return,0.1888,,74.73958333,,,,,,FBP-RB-91.png,0.45,1.2,30,0.5,,,,,,,,,,,,,,,,,,0,34,34,29,1,,,,,,,,,,,,,,,,,,,,,,,
,,,,,WIN24_041,20,Female,2024-02-08_12h31.44.601,jersey_experiment_5,2023.2.2,Win32,84.74576271,,,,,,,,,,,,,,,,860.506,861.8001,861.8002,862.5528,return,0.1184,,74.73958333,,,,,,FBP-YG-17.png,0.37,1.2,32,0.5,,,,,,,,,,,,,,,,,,0,35,35,31,1,,,,,,,,,,,,,,,,,,,,,,,
,,,,,WIN24_041,20,Female,2024-02-08_12h31.44.601,jersey_experiment_5,2023.2.2,Win32,84.74576271,,,,,,,,,,,,,,,,862.5532,863.8472,863.8472,864.6941,return,0.2025,,74.73958333,,,,,,FBP-RB-91.png,0.35,1.2,26,0.5,,,,,,,,,,,,,,,,,,0,36,36,25,1,,,,,,,,,,,,,,,,,,,,,,,
,,,,,WIN24_041,20,Female,2024-02-08_12h31.44.601,jersey_experiment_5,2023.2.2,Win32,84.74576271,,,,,,,,,,,,,,,,864.6945,865.9885,865.9886,866.6235,return,0.0677,,74.73958333,,,,,,FBP-YG-19.png,0.35,1.2,41,0.5,,,,,,,,,,,,,,,,,,0,37,37,40,1,,,,,,,,,,,,,,,,,,,,,,,
,,,,,WIN24_041,20,Female,2024-02-08_12h31.44.601,jersey_experiment_5,2023.2.2,Win32,84.74576271,,,,,,,,,,,,,,,,866.6239,867.9179,867.918,868.6001,return,0.1186,,74.73958333,,,,,,FBP-RB-71.png,0.4,1.2,18,0.5,,,,,,,,,,,,,,,,,,0,38,38,17,1,,,,,,,,,,,,,,,,,,,,,,,
,,,,,WIN24_041,20,Female,2024-02-08_12h31.44.601,jersey_experiment_5,2023.2.2,Win32,84.74576271,,,,,,,,,,,,,,,,868.6005,869.8944,869.8945,871.2707,return,0.237,,98.046875,,,,,,FBP-YG-17.png,0.45,1.2,35,0.5,,,,,,,,,,,,,,,,,,0,39,39,34,1,,,,,,,,,,,,,,,,,,,,,,,
,,,,,WIN24_041,20,Female,2024-02-08_12h31.44.601,jersey_experiment_5,2023.2.2,Win32,84.74576271,,,,,,,,,,,,,,,,871.2713,872.5652,872.5653,873.6473,return,0.1739,,97.91666667,,,,,,FBP-RB-81.png,0.43,1.2,24,0.5,,,,,,,,,,,,,,,,,,0,40,40,23,1,,,,,,,,,,,,,,,,,,,,,,,
,,,,,WIN24_041,20,Female,2024-02-08_12h31.44.601,jersey_experiment_5,2023.2.2,Win32,84.74576271,,,,,,,,,,,,,,,,873.6478,875.4476,875.4476,876.0003,return,0.1493,,97.91666667,,,,,,FBP-PT-81.png,0.35,1.2,51,1,,,,,,,,,,,,,,,,,,0,41,41,50,1,,,,,,,,,,,,,,,,,,,,,,,
,,,,,WIN24_041,20,Female,2024-02-08_12h31.44.601,jersey_experiment_5,2023.2.2,Win32,84.74576271,,,,,,,,,,,,,,,,876.0007,877.8007,877.8008,878.3064,return,0.0885,,97.91666667,,,,,,FBP-OG-18.png,0.4,1.2,8,1,,,,,,,,,,,,,,,,,,0,42,42,7,1,,,,,,,,,,,,,,,,,,,,,,,
,,,,,WIN24_041,20,Female,2024-02-08_12h31.44.601,jersey_experiment_5,2023.2.2,Win32,84.74576271,,,,,,,,,,,,,,,,878.3068,880.1067,880.1068,880.9535,return,0.2009,,97.91666667,,,,,,FBP-OG-19.png,0.4,1.2,13,1,,,,,,,,,,,,,,,,,,0,43,43,12,1,,,,,,,,,,,,,,,,,,,,,,,
,,,,,WIN24_041,20,Female,2024-02-08_12h31.44.601,jersey_experiment_5,2023.2.2,Win32,84.74576271,,,,,,,,,,,,,,,,880.954,882.2478,882.2479,885.8718,return,2.0681,,26.30208333,,,,,,FBP-RB-81.png,0.35,1.2,21,0.5,,,,,,,,,,,,,,,,,,0,44,44,20,1,,,,,,,,,,,,,,,,,,,,,,,
,,,,,WIN24_041,20,Female,2024-02-08_12h31.44.601,jersey_experiment_5,2023.2.2,Win32,84.74576271,,,,,,,,,,,,,,,,885.8721,887.6725,887.6726,889.5067,return,0.3243,,75,,,,,,FBP-OG-17.png,0.37,1.2,2,1,,,,,,,,,,,,,,,,,,0,45,45,1,1,,,,,,,,,,,,,,,,,,,,,,,
,,,,,WIN24_041,20,Female,2024-02-08_12h31.44.601,jersey_experiment_5,2023.2.2,Win32,84.74576271,,,,,,,,,,,,,,,,889.5072,891.3072,891.3073,892.0246,return,0.1888,,75,,,,,,FBP-OG-19.png,0.35,1.2,11,1,,,,,,,,,,,,,,,,,,0,46,46,10,1,,,,,,,,,,,,,,,,,,,,,,,
,,,,,WIN24_041,20,Female,2024-02-08_12h31.44.601,jersey_experiment_5,2023.2.2,Win32,84.74576271,,,,,,,,,,,,,,,,892.025,893.8256,893.8257,894.707,return,0.1703,,96.484375,,,,,,FBP-PT-71.png,0.43,1.2,49,1,,,,,,,,,,,,,,,,,,0,47,47,48,1,,,,,,,,,,,,,,,,,,,,,,,
,,,,,WIN24_041,20,Female,2024-02-08_12h31.44.601,jersey_experiment_5,2023.2.2,Win32,84.74576271,,,,,,,,,,,,,,,,894.7073,896.5072,896.5073,897.0246,return,0.1019,,96.484375,,,,,,FBP-OG-18.png,0.43,1.2,9,1,,,,,,,,,,,,,,,,,,0,48,48,8,1,,,,,,,,,,,,,,,,,,,,,,,
,,,,,WIN24_041,20,Female,2024-02-08_12h31.44.601,jersey_experiment_5,2023.2.2,Win32,84.74576271,,,,,,,,,,,,,,,,897.025,898.825,898.8252,899.813,return,0.2624,,96.484375,,,,,,FBP-PT-81.png,0.45,1.2,55,1,,,,,,,,,,,,,,,,,,0,49,49,54,1,,,,,,,,,,,,,,,,,,,,,,,
,,,,,WIN24_041,20,Female,2024-02-08_12h31.44.601,jersey_experiment_5,2023.2.2,Win32,84.74576271,,,,,,,,,,,,,,,,899.8136,901.1074,901.1075,902.0719,return,0.189,,96.484375,,,,,,FBP-YG-19.png,0.45,1.2,45,0.5,,,,,,,,,,,,,,,,,,0,50,50,44,1,,,,,,,,,,,,,,,,,,,,,,,
,,,,,WIN24_041,20,Female,2024-02-08_12h31.44.601,jersey_experiment_5,2023.2.2,Win32,84.74576271,,,,,,,,,,,,,,,,902.0723,903.8721,903.8722,904.6251,return,0.3137,,96.484375,,,,,,FBP-OG-17.png,0.45,1.2,5,1,,,,,,,,,,,,,,,,,,0,51,51,4,1,,,,,,,,,,,,,,,,,,,,,,,
,,,,,WIN24_041,20,Female,2024-02-08_12h31.44.601,jersey_experiment_5,2023.2.2,Win32,84.74576271,,,,,,,,,,,,,,,,904.6254,906.4252,906.4253,907.5075,return,0.2992,,96.484375,,,,,,FBP-PT-91.png,0.35,1.2,56,1,,,,,,,,,,,,,,,,,,0,52,52,55,1,,,,,,,,,,,,,,,,,,,,,,,
,,,,,WIN24_041,20,Female,2024-02-08_12h31.44.601,jersey_experiment_5,2023.2.2,Win32,84.74576271,,,,,,,,,,,,,,,,907.5079,909.3077,909.3077,910.0839,return,0.0751,,96.484375,,,,,,FBP-OG-18.png,0.35,1.2,6,1,,,,,,,,,,,,,,,,,,0,53,53,5,1,,,,,,,,,,,,,,,,,,,,,,,
,,,,,WIN24_041,20,Female,2024-02-08_12h31.44.601,jersey_experiment_5,2023.2.2,Win32,84.74576271,,,,,,,,,,,,,,,,910.0844,911.3789,911.379,911.9782,return,0.1178,,96.484375,,,,,,FBP-RB-71.png,0.43,1.2,19,0.5,,,,,,,,,,,,,,,,,,0,54,54,18,1,,,,,,,,,,,,,,,,,,,,,,,
,,,,,WIN24_041,20,Female,2024-02-08_12h31.44.601,jersey_experiment_5,2023.2.2,Win32,84.74576271,,,,,,,,,,,,,,,,911.9786,913.7785,913.7785,914.7549,return,0.3707,,96.484375,,,,,,FBP-OG-17.png,0.43,1.2,4,1,,,,,,,,,,,,,,,,,,0,55,55,3,1,,,,,,,,,,,,,,,,,,,,,,,
,,,,,WIN24_041,20,Female,2024-02-08_12h31.44.601,jersey_experiment_5,2023.2.2,Win32,84.74576271,,,,,,,,,,,,,,,,914.7553,916.0491,916.0492,916.9785,return,0.4291,,96.484375,,,,,,FBP-RB-81.png,0.45,1.2,25,0.5,,,,,,,,,,,,,,,,,,0,56,56,24,1,,,,,,,,,,,,,,,,,,,,,,,
,,,,,WIN24_041,20,Female,2024-02-08_12h31.44.601,jersey_experiment_5,2023.2.2,Win32,84.74576271,,,,,,,,,,,,,,,,916.9789,918.2728,918.2728,918.8371,return,0.1088,,96.484375,,,,,,FBP-RB-91.png,0.4,1.2,28,0.5,,,,,,,,,,,,,,,,,,0,57,57,27,1,,,,,,,,,,,,,,,,,,,,,,,
,,,,,WIN24_041,20,Female,2024-02-08_12h31.44.601,jersey_experiment_5,2023.2.2,Win32,84.74576271,,,,,,,,,,,,,,,,918.8375,920.1316,920.1316,921.1549,return,0.4996,,96.484375,,,,,,FBP-YG-19.png,0.4,1.2,43,0.5,,,,,,,,,,,,,,,,,,0,58,58,42,1,,,,,,,,,,,,,,,,,,,,,,,
,,,,,WIN24_041,20,Female,2024-02-08_12h31.44.601,jersey_experiment_5,2023.2.2,Win32,84.74576271,,,,,,,,,,,,,,,,921.1553,922.9552,922.9553,924.5316,return,0.0168,,36.06770833,,,,,,FBP-OG-17.png,0.4,1.2,3,1,,,,,,,,,,,,,,,,,,0,59,59,2,1,,,,,,,,,,,,,,,,,,,,,,,
,,,,,WIN24_041,20,Female,2024-02-08_12h31.44.601,jersey_experiment_5,2023.2.2,Win32,84.74576271,,,,,,,,,,,,,,,,,,,,,,,,,,,,,,,,,,,,,,,,,,,,,,,,,,,,,,,,924.5324,928.3086,return,3.7642,,,,,,,,,,,,,,,,,,,
,,,,,WIN24_041,20,Female,2024-02-08_12h31.44.601,jersey_experiment_5,2023.2.2,Win32,84.74576271,,,,,,,,,,,,,,,,,,,,,,,,,,,,,,,,,,,,,,,,,,,,,,,,,,,,,,,,,,,,,928.3089,932.4498,1,3.4022,return,0.7204,,,,,,,,,,,,
,,,,,WIN24_041,20,Female,2024-02-08_12h31.44.601,jersey_experiment_5,2023.2.2,Win32,84.74576271,,,,,,,,,,,,,,,,,,,,,,,,,,,,,,,,,,,,,,,,,,,,,,,,,,,,,,,,,,,,,,,,,,,,932.4501,941.6966,No,right,3.2348,,,,,,
,,,,,WIN24_041,20,Female,2024-02-08_12h31.44.601,jersey_experiment_5,2023.2.2,Win32,84.74576271,,,,,,,,,,,,,,,,,,,,,,,,,,,,,,,,,,,,,,,,,,,,,,,,,,,,,,,,,,,,,,,,,,,,,,,,,,941.6967,945.1091,return,3.4016,