requirements.started,requirements.stopped,key_resp_3.keys,key_resp_3.rt,key_resp_3.duration,Subject ID,Age,Gender,date,expName,psychopyVersion,OS,frameRate,instructions1.started,instructions1.stopped,key_resp.keys,key_resp.rt,key_resp.duration,example.started,example.stopped,enter_2.keys,enter_2.rt,enter_2.duration,instructions2.started,instructions2.stopped,enter_3.keys,enter_3.rt,enter_3.duration,image.started,image.stopped,slider_2.started,slider_2.stopped,next.keys,next.rt,next.duration,slider.response,trial_block_1.thisRepN,trial_block_1.thisTrialN,trial_block_1.thisN,trial_block_1.thisIndex,trial_block_1.ran,Path,Width,Height,Index,Duration,trial_block_2.thisRepN,trial_block_2.thisTrialN,trial_block_2.thisN,trial_block_2.thisIndex,trial_block_2.ran,rest_break.started,rest_break.stopped,end_break.started,end_break.stopped,key_resp_5.keys,key_resp_5.rt,key_resp_5.duration,trial_block_3.thisRepN,trial_block_3.thisTrialN,trial_block_3.thisN,trial_block_3.thisIndex,trial_block_3.ran,trial_block_4.thisRepN,trial_block_4.thisTrialN,trial_block_4.thisN,trial_block_4.thisIndex,trial_block_4.ran,questions_intro.started,questions_intro.stopped,enter_12.keys,enter_12.rt,enter_12.duration,question2.started,question2.stopped,question_doingbest.response,question_doingbest.rt,enter_15.keys,enter_15.rt,enter_15.duration,pattern.started,pattern.stopped,pattern_2.text,enter_17.keys,enter_17.rt,enter_17.duration,thankyou.started,thankyou.stopped,enter_14.keys,enter_14.rt,enter_14.duration
1E-04,42.9841,return,42.9754,,WIN24_061,18,female,2024-02-15_12h28.09.526,jersey_experiment_5,2023.2.2,Win32,85.47008547,,,,,,,,,,,,,,,,,,,,,,,,,,,,,,,,,,,,,,,,,,,,,,,,,,,,,,,,,,,,,,,,,,,,,,,,,,,,,,
,,,,,WIN24_061,18,female,2024-02-15_12h28.09.526,jersey_experiment_5,2023.2.2,Win32,85.47008547,42.9842,44.4428,return,1.4364,,,,,,,,,,,,,,,,,,,,,,,,,,,,,,,,,,,,,,,,,,,,,,,,,,,,,,,,,,,,,,,,,,,,,,,,,,
,,,,,WIN24_061,18,female,2024-02-15_12h28.09.526,jersey_experiment_5,2023.2.2,Win32,85.47008547,,,,,,44.4429,48.2946,return,3.8175,,,,,,,,,,,,,,,,,,,,,,,,,,,,,,,,,,,,,,,,,,,,,,,,,,,,,,,,,,,,,,,,,,,,,
,,,,,WIN24_061,18,female,2024-02-15_12h28.09.526,jersey_experiment_5,2023.2.2,Win32,85.47008547,,,,,,,,,,,48.2947,62.8554,return,14.5469,,,,,,,,,,,,,,,,,,,,,,,,,,,,,,,,,,,,,,,,,,,,,,,,,,,,,,,,,,,,,,,,
,,,,,WIN24_061,18,female,2024-02-15_12h28.09.526,jersey_experiment_5,2023.2.2,Win32,85.47008547,,,,,,,,,,,,,,,,62.8625,64.6552,64.6553,69.0789,return,0.9128,,75.13020833,0,0,0,24,1,FBP-RB-18.png,0.45,1.2,25,1,,,,,,,,,,,,,,,,,,,,,,,,,,,,,,,,,,,,,,,,,,,,,
,,,,,WIN24_061,18,female,2024-02-15_12h28.09.526,jersey_experiment_5,2023.2.2,Win32,85.47008547,,,,,,,,,,,,,,,,69.0793,70.879,70.8791,74.7731,return,1.5355,,23.95833333,0,1,1,20,1,FBP-RB-18.png,0.35,1.2,21,1,,,,,,,,,,,,,,,,,,,,,,,,,,,,,,,,,,,,,,,,,,,,,
,,,,,WIN24_061,18,female,2024-02-15_12h28.09.526,jersey_experiment_5,2023.2.2,Win32,85.47008547,,,,,,,,,,,,,,,,74.7734,76.5731,76.5732,78.2791,return,0.1921,,24.34895833,0,2,2,16,1,FBP-RB-17.png,0.37,1.2,17,1,,,,,,,,,,,,,,,,,,,,,,,,,,,,,,,,,,,,,,,,,,,,,
,,,,,WIN24_061,18,female,2024-02-15_12h28.09.526,jersey_experiment_5,2023.2.2,Win32,85.47008547,,,,,,,,,,,,,,,,78.2794,79.5734,79.5734,81.8323,return,0.4502,,74.73958333,0,3,3,8,1,FBP-OG-81.png,0.43,1.2,9,0.5,,,,,,,,,,,,,,,,,,,,,,,,,,,,,,,,,,,,,,,,,,,,,
,,,,,WIN24_061,18,female,2024-02-15_12h28.09.526,jersey_experiment_5,2023.2.2,Win32,85.47008547,,,,,,,,,,,,,,,,81.8325,83.1265,83.1265,84.5028,return,0.1714,,50,0,4,4,1,1,FBP-OG-71.png,0.37,1.2,2,0.5,,,,,,,,,,,,,,,,,,,,,,,,,,,,,,,,,,,,,,,,,,,,,
,,,,,WIN24_061,18,female,2024-02-15_12h28.09.526,jersey_experiment_5,2023.2.2,Win32,85.47008547,,,,,,,,,,,,,,,,84.5031,86.3032,86.3033,87.6794,return,0.0563,,99.34895833,0,5,5,39,1,FBP-YG-81.png,0.45,1.2,40,1,,,,,,,,,,,,,,,,,,,,,,,,,,,,,,,,,,,,,,,,,,,,,
,,,,,WIN24_061,18,female,2024-02-15_12h28.09.526,jersey_experiment_5,2023.2.2,Win32,85.47008547,,,,,,,,,,,,,,,,87.6797,88.9736,88.9736,91.7267,return,0.165,,50.91145833,0,6,6,50,1,FBP-PT-18.png,0.35,1.2,51,0.5,,,,,,,,,,,,,,,,,,,,,,,,,,,,,,,,,,,,,,,,,,,,,
,,,,,WIN24_061,18,female,2024-02-15_12h28.09.526,jersey_experiment_5,2023.2.2,Win32,85.47008547,,,,,,,,,,,,,,,,91.7269,93.5267,93.5268,95.9504,return,0.1178,,50.390625,0,7,7,25,1,FBP-RB-19.png,0.35,1.2,26,1,,,,,,,,,,,,,,,,,,,,,,,,,,,,,,,,,,,,,,,,,,,,,
,,,,,WIN24_061,18,female,2024-02-15_12h28.09.526,jersey_experiment_5,2023.2.2,Win32,85.47008547,,,,,,,,,,,,,,,,95.9507,97.7506,97.7506,99.0211,return,0.0947,,76.04166667,0,8,8,18,1,FBP-RB-17.png,0.43,1.2,19,1,,,,,,,,,,,,,,,,,,,,,,,,,,,,,,,,,,,,,,,,,,,,,
,,,,,WIN24_061,18,female,2024-02-15_12h28.09.526,jersey_experiment_5,2023.2.2,Win32,85.47008547,,,,,,,,,,,,,,,,99.0213,100.3152,100.3152,103.6919,return,0.3205,,78.90625,0,9,9,47,1,FBP-PT-17.png,0.4,1.2,48,0.5,,,,,,,,,,,,,,,,,,,,,,,,,,,,,,,,,,,,,,,,,,,,,
,,,,,WIN24_061,18,female,2024-02-15_12h28.09.526,jersey_experiment_5,2023.2.2,Win32,85.47008547,,,,,,,,,,,,,,,,103.6922,104.9862,104.9863,106.9392,return,0.2968,,81.11979167,0,10,10,14,1,FBP-OG-91.png,0.45,1.2,15,0.5,,,,,,,,,,,,,,,,,,,,,,,,,,,,,,,,,,,,,,,,,,,,,
,,,,,WIN24_061,18,female,2024-02-15_12h28.09.526,jersey_experiment_5,2023.2.2,Win32,85.47008547,,,,,,,,,,,,,,,,106.9395,108.2333,108.2333,111.4333,return,0.2748,,72.52604167,0,11,11,49,1,FBP-PT-17.png,0.45,1.2,50,0.5,,,,,,,,,,,,,,,,,,,,,,,,,,,,,,,,,,,,,,,,,,,,,
,,,,,WIN24_061,18,female,2024-02-15_12h28.09.526,jersey_experiment_5,2023.2.2,Win32,85.47008547,,,,,,,,,,,,,,,,111.4335,113.2333,113.2333,115.3863,return,0.415,,74.609375,0,12,12,17,1,FBP-RB-17.png,0.4,1.2,18,1,,,,,,,,,,,,,,,,,,,,,,,,,,,,,,,,,,,,,,,,,,,,,
,,,,,WIN24_061,18,female,2024-02-15_12h28.09.526,jersey_experiment_5,2023.2.2,Win32,85.47008547,,,,,,,,,,,,,,,,115.3865,117.1864,117.1865,119.5513,return,0.1898,,59.765625,0,13,13,30,1,FBP-YG-71.png,0.35,1.2,31,1,,,,,,,,,,,,,,,,,,,,,,,,,,,,,,,,,,,,,,,,,,,,,
,,,,,WIN24_061,18,female,2024-02-15_12h28.09.526,jersey_experiment_5,2023.2.2,Win32,85.47008547,,,,,,,,,,,,,,,,119.5515,120.8454,120.8455,121.6454,return,0.132,,59.765625,0,14,14,5,1,FBP-OG-81.png,0.35,1.2,6,0.5,,,,,,,,,,,,,,,,,,,,,,,,,,,,,,,,,,,,,,,,,,,,,
,,,,,WIN24_061,18,female,2024-02-15_12h28.09.526,jersey_experiment_5,2023.2.2,Win32,85.47008547,,,,,,,,,,,,,,,,121.6457,122.9396,122.9396,124.375,return,1.1716,,84.765625,0,15,15,4,1,FBP-OG-71.png,0.45,1.2,5,0.5,,,,,,,,,,,,,,,,,,,,,,,,,,,,,,,,,,,,,,,,,,,,,
,,,,,WIN24_061,18,female,2024-02-15_12h28.09.526,jersey_experiment_5,2023.2.2,Win32,85.47008547,,,,,,,,,,,,,,,,124.3753,126.175,126.175,127.2455,return,0.1087,,95.18229167,0,16,16,29,1,FBP-RB-19.png,0.45,1.2,30,1,,,,,,,,,,,,,,,,,,,,,,,,,,,,,,,,,,,,,,,,,,,,,
,,,,,WIN24_061,18,female,2024-02-15_12h28.09.526,jersey_experiment_5,2023.2.2,Win32,85.47008547,,,,,,,,,,,,,,,,127.2458,128.5399,128.54,129.6928,return,0.0472,,87.23958333,0,17,17,48,1,FBP-PT-17.png,0.43,1.2,49,0.5,,,,,,,,,,,,,,,,,,,,,,,,,,,,,,,,,,,,,,,,,,,,,
,,,,,WIN24_061,18,female,2024-02-15_12h28.09.526,jersey_experiment_5,2023.2.2,Win32,85.47008547,,,,,,,,,,,,,,,,129.6931,131.4927,131.4927,132.14,return,0.4003,,78.64583333,0,18,18,27,1,FBP-RB-19.png,0.4,1.2,28,1,,,,,,,,,,,,,,,,,,,,,,,,,,,,,,,,,,,,,,,,,,,,,
,,,,,WIN24_061,18,female,2024-02-15_12h28.09.526,jersey_experiment_5,2023.2.2,Win32,85.47008547,,,,,,,,,,,,,,,,132.1402,133.4341,133.4341,134.446,return,0.3437,,78.64583333,0,19,19,46,1,FBP-PT-17.png,0.37,1.2,47,0.5,,,,,,,,,,,,,,,,,,,,,,,,,,,,,,,,,,,,,,,,,,,,,
,,,,,WIN24_061,18,female,2024-02-15_12h28.09.526,jersey_experiment_5,2023.2.2,Win32,85.47008547,,,,,,,,,,,,,,,,134.4462,136.2459,136.246,137.4931,return,0.3144,,78.64583333,0,20,20,42,1,FBP-YG-91.png,0.4,1.2,43,1,,,,,,,,,,,,,,,,,,,,,,,,,,,,,,,,,,,,,,,,,,,,,
,,,,,WIN24_061,18,female,2024-02-15_12h28.09.526,jersey_experiment_5,2023.2.2,Win32,85.47008547,,,,,,,,,,,,,,,,137.4933,138.7872,138.7872,139.599,return,0.354,,78.64583333,0,21,21,12,1,FBP-OG-91.png,0.4,1.2,13,0.5,,,,,,,,,,,,,,,,,,,,,,,,,,,,,,,,,,,,,,,,,,,,,
,,,,,WIN24_061,18,female,2024-02-15_12h28.09.526,jersey_experiment_5,2023.2.2,Win32,85.47008547,,,,,,,,,,,,,,,,139.5992,141.3991,141.3991,142.4698,return,0.1701,,78.64583333,0,22,22,34,1,FBP-YG-71.png,0.45,1.2,35,1,,,,,,,,,,,,,,,,,,,,,,,,,,,,,,,,,,,,,,,,,,,,,
,,,,,WIN24_061,18,female,2024-02-15_12h28.09.526,jersey_experiment_5,2023.2.2,Win32,85.47008547,,,,,,,,,,,,,,,,142.47,144.2698,144.2698,145.1288,return,0.2612,,78.64583333,0,23,23,28,1,FBP-RB-19.png,0.43,1.2,29,1,,,,,,,,,,,,,,,,,,,,,,,,,,,,,,,,,,,,,,,,,,,,,
,,,,,WIN24_061,18,female,2024-02-15_12h28.09.526,jersey_experiment_5,2023.2.2,Win32,85.47008547,,,,,,,,,,,,,,,,145.1289,146.4229,146.4229,148.1169,return,0.1379,,74.609375,0,24,24,58,1,FBP-PT-19.png,0.43,1.2,59,0.5,,,,,,,,,,,,,,,,,,,,,,,,,,,,,,,,,,,,,,,,,,,,,
,,,,,WIN24_061,18,female,2024-02-15_12h28.09.526,jersey_experiment_5,2023.2.2,Win32,85.47008547,,,,,,,,,,,,,,,,148.1172,149.4113,149.4113,150.6465,return,0.1338,,34.11458333,0,25,25,55,1,FBP-PT-19.png,0.35,1.2,56,0.5,,,,,,,,,,,,,,,,,,,,,,,,,,,,,,,,,,,,,,,,,,,,,
,,,,,WIN24_061,18,female,2024-02-15_12h28.09.526,jersey_experiment_5,2023.2.2,Win32,85.47008547,,,,,,,,,,,,,,,,150.6467,152.4467,152.4467,153.6466,return,0.108,,25.26041667,0,26,26,15,1,FBP-RB-17.png,0.35,1.2,16,1,,,,,,,,,,,,,,,,,,,,,,,,,,,,,,,,,,,,,,,,,,,,,
,,,,,WIN24_061,18,female,2024-02-15_12h28.09.526,jersey_experiment_5,2023.2.2,Win32,85.47008547,,,,,,,,,,,,,,,,153.6468,154.9409,154.9409,156.5409,return,0.1323,,54.03645833,0,27,27,11,1,FBP-OG-91.png,0.37,1.2,12,0.5,,,,,,,,,,,,,,,,,,,,,,,,,,,,,,,,,,,,,,,,,,,,,
,,,,,WIN24_061,18,female,2024-02-15_12h28.09.526,jersey_experiment_5,2023.2.2,Win32,85.47008547,,,,,,,,,,,,,,,,156.5412,158.3408,158.3408,159.3527,return,0.7341,,60.546875,0,28,28,22,1,FBP-RB-18.png,0.4,1.2,23,1,,,,,,,,,,,,,,,,,,,,,,,,,,,,,,,,,,,,,,,,,,,,,
,,,,,WIN24_061,18,female,2024-02-15_12h28.09.526,jersey_experiment_5,2023.2.2,Win32,85.47008547,,,,,,,,,,,,,,,,159.3529,161.1528,161.1528,163.0705,return,0.8329,,60.9375,0,29,29,36,1,FBP-YG-81.png,0.37,1.2,37,1,,,,,,,,,,,,,,,,,,,,,,,,,,,,,,,,,,,,,,,,,,,,,
,,,,,WIN24_061,18,female,2024-02-15_12h28.09.526,jersey_experiment_5,2023.2.2,Win32,85.47008547,,,,,,,,,,,,,,,,163.0706,164.3646,164.3646,165.6001,return,0.156,,60.9375,0,30,30,7,1,FBP-OG-81.png,0.4,1.2,8,0.5,,,,,,,,,,,,,,,,,,,,,,,,,,,,,,,,,,,,,,,,,,,,,
,,,,,WIN24_061,18,female,2024-02-15_12h28.09.526,jersey_experiment_5,2023.2.2,Win32,85.47008547,,,,,,,,,,,,,,,,165.6003,166.8942,166.8942,168.7765,return,0.1816,,85.546875,0,31,31,54,1,FBP-PT-18.png,0.45,1.2,55,0.5,,,,,,,,,,,,,,,,,,,,,,,,,,,,,,,,,,,,,,,,,,,,,
,,,,,WIN24_061,18,female,2024-02-15_12h28.09.526,jersey_experiment_5,2023.2.2,Win32,85.47008547,,,,,,,,,,,,,,,,168.7768,170.5768,170.5768,172.0473,return,0.1317,,85.41666667,0,32,32,33,1,FBP-YG-71.png,0.43,1.2,34,1,,,,,,,,,,,,,,,,,,,,,,,,,,,,,,,,,,,,,,,,,,,,,
,,,,,WIN24_061,18,female,2024-02-15_12h28.09.526,jersey_experiment_5,2023.2.2,Win32,85.47008547,,,,,,,,,,,,,,,,172.0475,173.8474,173.8474,175.1415,return,0.1729,,74.609375,0,33,33,32,1,FBP-YG-71.png,0.4,1.2,33,1,,,,,,,,,,,,,,,,,,,,,,,,,,,,,,,,,,,,,,,,,,,,,
,,,,,WIN24_061,18,female,2024-02-15_12h28.09.526,jersey_experiment_5,2023.2.2,Win32,85.47008547,,,,,,,,,,,,,,,,175.1417,176.4357,176.4357,177.471,return,0.1648,,74.86979167,0,34,34,53,1,FBP-PT-18.png,0.43,1.2,54,0.5,,,,,,,,,,,,,,,,,,,,,,,,,,,,,,,,,,,,,,,,,,,,,
,,,,,WIN24_061,18,female,2024-02-15_12h28.09.526,jersey_experiment_5,2023.2.2,Win32,85.47008547,,,,,,,,,,,,,,,,177.4712,179.2711,179.2712,181.6947,return,0.9183,,74.86979167,0,35,35,43,1,FBP-YG-91.png,0.43,1.2,44,1,,,,,,,,,,,,,,,,,,,,,,,,,,,,,,,,,,,,,,,,,,,,,
,,,,,WIN24_061,18,female,2024-02-15_12h28.09.526,jersey_experiment_5,2023.2.2,Win32,85.47008547,,,,,,,,,,,,,,,,181.695,183.495,183.495,184.5536,return,0.0748,,33.984375,0,36,36,35,1,FBP-YG-81.png,0.35,1.2,36,1,,,,,,,,,,,,,,,,,,,,,,,,,,,,,,,,,,,,,,,,,,,,,
,,,,,WIN24_061,18,female,2024-02-15_12h28.09.526,jersey_experiment_5,2023.2.2,Win32,85.47008547,,,,,,,,,,,,,,,,184.5539,185.8477,185.8477,186.6478,return,0.0528,,33.984375,0,37,37,45,1,FBP-PT-17.png,0.35,1.2,46,0.5,,,,,,,,,,,,,,,,,,,,,,,,,,,,,,,,,,,,,,,,,,,,,
,,,,,WIN24_061,18,female,2024-02-15_12h28.09.526,jersey_experiment_5,2023.2.2,Win32,85.47008547,,,,,,,,,,,,,,,,186.6481,188.4479,188.4479,189.3655,return,0.1235,,33.85416667,0,38,38,40,1,FBP-YG-91.png,0.35,1.2,41,1,,,,,,,,,,,,,,,,,,,,,,,,,,,,,,,,,,,,,,,,,,,,,
,,,,,WIN24_061,18,female,2024-02-15_12h28.09.526,jersey_experiment_5,2023.2.2,Win32,85.47008547,,,,,,,,,,,,,,,,189.3658,190.6598,190.6598,191.2951,return,0.3204,,33.85416667,0,39,39,51,1,FBP-PT-18.png,0.37,1.2,52,0.5,,,,,,,,,,,,,,,,,,,,,,,,,,,,,,,,,,,,,,,,,,,,,
,,,,,WIN24_061,18,female,2024-02-15_12h28.09.526,jersey_experiment_5,2023.2.2,Win32,85.47008547,,,,,,,,,,,,,,,,191.2954,192.5891,192.5891,194.3892,return,0.2532,,74.86979167,0,40,40,9,1,FBP-OG-81.png,0.45,1.2,10,0.5,,,,,,,,,,,,,,,,,,,,,,,,,,,,,,,,,,,,,,,,,,,,,
,,,,,WIN24_061,18,female,2024-02-15_12h28.09.526,jersey_experiment_5,2023.2.2,Win32,85.47008547,,,,,,,,,,,,,,,,194.3894,195.6834,195.6834,197.0128,return,0.1244,,94.27083333,0,41,41,59,1,FBP-PT-19.png,0.45,1.2,60,0.5,,,,,,,,,,,,,,,,,,,,,,,,,,,,,,,,,,,,,,,,,,,,,
,,,,,WIN24_061,18,female,2024-02-15_12h28.09.526,jersey_experiment_5,2023.2.2,Win32,85.47008547,,,,,,,,,,,,,,,,197.0131,198.307,198.307,199.5659,return,0.1269,,86.97916667,0,42,42,2,1,FBP-OG-71.png,0.4,1.2,3,0.5,,,,,,,,,,,,,,,,,,,,,,,,,,,,,,,,,,,,,,,,,,,,,
,,,,,WIN24_061,18,female,2024-02-15_12h28.09.526,jersey_experiment_5,2023.2.2,Win32,85.47008547,,,,,,,,,,,,,,,,199.5661,200.86,200.8601,202.0249,return,0.1202,,55.46875,0,43,43,10,1,FBP-OG-91.png,0.35,1.2,11,0.5,,,,,,,,,,,,,,,,,,,,,,,,,,,,,,,,,,,,,,,,,,,,,
,,,,,WIN24_061,18,female,2024-02-15_12h28.09.526,jersey_experiment_5,2023.2.2,Win32,85.47008547,,,,,,,,,,,,,,,,202.0251,203.8249,203.825,204.919,return,0.7807,,50,0,44,44,31,1,FBP-YG-71.png,0.37,1.2,32,1,,,,,,,,,,,,,,,,,,,,,,,,,,,,,,,,,,,,,,,,,,,,,
,,,,,WIN24_061,18,female,2024-02-15_12h28.09.526,jersey_experiment_5,2023.2.2,Win32,85.47008547,,,,,,,,,,,,,,,,204.9192,206.7192,206.7192,207.4485,return,0.1085,,67.31770833,0,45,45,37,1,FBP-YG-81.png,0.4,1.2,38,1,,,,,,,,,,,,,,,,,,,,,,,,,,,,,,,,,,,,,,,,,,,,,
,,,,,WIN24_061,18,female,2024-02-15_12h28.09.526,jersey_experiment_5,2023.2.2,Win32,85.47008547,,,,,,,,,,,,,,,,207.4487,209.2487,209.2487,210.1075,return,0.0353,,74.34895833,0,46,46,21,1,FBP-RB-18.png,0.37,1.2,22,1,,,,,,,,,,,,,,,,,,,,,,,,,,,,,,,,,,,,,,,,,,,,,
,,,,,WIN24_061,18,female,2024-02-15_12h28.09.526,jersey_experiment_5,2023.2.2,Win32,85.47008547,,,,,,,,,,,,,,,,210.1077,211.9076,211.9076,213.6724,return,0.2051,,99.86979167,0,47,47,19,1,FBP-RB-17.png,0.45,1.2,20,1,,,,,,,,,,,,,,,,,,,,,,,,,,,,,,,,,,,,,,,,,,,,,
,,,,,WIN24_061,18,female,2024-02-15_12h28.09.526,jersey_experiment_5,2023.2.2,Win32,85.47008547,,,,,,,,,,,,,,,,213.6727,214.9664,214.9665,217.5901,return,1.3725,,52.86458333,0,48,48,56,1,FBP-PT-19.png,0.37,1.2,57,0.5,,,,,,,,,,,,,,,,,,,,,,,,,,,,,,,,,,,,,,,,,,,,,
,,,,,WIN24_061,18,female,2024-02-15_12h28.09.526,jersey_experiment_5,2023.2.2,Win32,85.47008547,,,,,,,,,,,,,,,,217.5904,218.8842,218.8843,220.1903,return,0.2591,,54.55729167,0,49,49,52,1,FBP-PT-18.png,0.4,1.2,53,0.5,,,,,,,,,,,,,,,,,,,,,,,,,,,,,,,,,,,,,,,,,,,,,
,,,,,WIN24_061,18,female,2024-02-15_12h28.09.526,jersey_experiment_5,2023.2.2,Win32,85.47008547,,,,,,,,,,,,,,,,220.1905,221.4844,221.4844,222.4727,return,0.1435,,69.140625,0,50,50,3,1,FBP-OG-71.png,0.43,1.2,4,0.5,,,,,,,,,,,,,,,,,,,,,,,,,,,,,,,,,,,,,,,,,,,,,
,,,,,WIN24_061,18,female,2024-02-15_12h28.09.526,jersey_experiment_5,2023.2.2,Win32,85.47008547,,,,,,,,,,,,,,,,222.473,224.2727,224.2727,225.261,return,0.1882,,50.52083333,0,51,51,26,1,FBP-RB-19.png,0.37,1.2,27,1,,,,,,,,,,,,,,,,,,,,,,,,,,,,,,,,,,,,,,,,,,,,,
,,,,,WIN24_061,18,female,2024-02-15_12h28.09.526,jersey_experiment_5,2023.2.2,Win32,85.47008547,,,,,,,,,,,,,,,,225.2614,227.0613,227.0613,228.4729,return,0.0873,,75,0,52,52,38,1,FBP-YG-81.png,0.43,1.2,39,1,,,,,,,,,,,,,,,,,,,,,,,,,,,,,,,,,,,,,,,,,,,,,
,,,,,WIN24_061,18,female,2024-02-15_12h28.09.526,jersey_experiment_5,2023.2.2,Win32,85.47008547,,,,,,,,,,,,,,,,228.4732,230.2728,230.2729,231.1671,return,0.1178,,74.609375,0,53,53,44,1,FBP-YG-91.png,0.45,1.2,45,1,,,,,,,,,,,,,,,,,,,,,,,,,,,,,,,,,,,,,,,,,,,,,
,,,,,WIN24_061,18,female,2024-02-15_12h28.09.526,jersey_experiment_5,2023.2.2,Win32,85.47008547,,,,,,,,,,,,,,,,231.1673,232.9672,232.9672,233.7084,return,0.1284,,74.609375,0,54,54,23,1,FBP-RB-18.png,0.43,1.2,24,1,,,,,,,,,,,,,,,,,,,,,,,,,,,,,,,,,,,,,,,,,,,,,
,,,,,WIN24_061,18,female,2024-02-15_12h28.09.526,jersey_experiment_5,2023.2.2,Win32,85.47008547,,,,,,,,,,,,,,,,233.7086,235.5084,235.5085,236.8732,return,0.4725,,74.609375,0,55,55,41,1,FBP-YG-91.png,0.37,1.2,42,1,,,,,,,,,,,,,,,,,,,,,,,,,,,,,,,,,,,,,,,,,,,,,
,,,,,WIN24_061,18,female,2024-02-15_12h28.09.526,jersey_experiment_5,2023.2.2,Win32,85.47008547,,,,,,,,,,,,,,,,236.8735,238.1673,238.1674,238.885,return,0.1353,,74.609375,0,56,56,13,1,FBP-OG-91.png,0.43,1.2,14,0.5,,,,,,,,,,,,,,,,,,,,,,,,,,,,,,,,,,,,,,,,,,,,,
,,,,,WIN24_061,18,female,2024-02-15_12h28.09.526,jersey_experiment_5,2023.2.2,Win32,85.47008547,,,,,,,,,,,,,,,,238.8853,240.1792,240.1792,241.8852,return,0.0236,,50.390625,0,57,57,6,1,FBP-OG-81.png,0.37,1.2,7,0.5,,,,,,,,,,,,,,,,,,,,,,,,,,,,,,,,,,,,,,,,,,,,,
,,,,,WIN24_061,18,female,2024-02-15_12h28.09.526,jersey_experiment_5,2023.2.2,Win32,85.47008547,,,,,,,,,,,,,,,,241.8855,243.1793,243.1793,245.5324,return,1.638,,59.89583333,0,58,58,57,1,FBP-PT-19.png,0.4,1.2,58,0.5,,,,,,,,,,,,,,,,,,,,,,,,,,,,,,,,,,,,,,,,,,,,,
,,,,,WIN24_061,18,female,2024-02-15_12h28.09.526,jersey_experiment_5,2023.2.2,Win32,85.47008547,,,,,,,,,,,,,,,,245.5325,246.8264,246.8265,248.0618,return,0.08,,24.47916667,0,59,59,0,1,FBP-OG-71.png,0.35,1.2,1,0.5,,,,,,,,,,,,,,,,,,,,,,,,,,,,,,,,,,,,,,,,,,,,,
,,,,,WIN24_061,18,female,2024-02-15_12h28.09.526,jersey_experiment_5,2023.2.2,Win32,85.47008547,,,,,,,,,,,,,,,,248.0639,249.8621,249.8621,251.1443,return,0.0758,,80.72916667,,,,,,FBP-RB-91.png,0.43,1.2,29,1,0,0,0,28,1,,,,,,,,,,,,,,,,,,,,,,,,,,,,,,,,,,,,,,,,
,,,,,WIN24_061,18,female,2024-02-15_12h28.09.526,jersey_experiment_5,2023.2.2,Win32,85.47008547,,,,,,,,,,,,,,,,251.1445,252.9446,252.9446,254.1091,return,0.118,,25,,,,,,FBP-RB-81.png,0.35,1.2,21,1,0,1,1,20,1,,,,,,,,,,,,,,,,,,,,,,,,,,,,,,,,,,,,,,,,
,,,,,WIN24_061,18,female,2024-02-15_12h28.09.526,jersey_experiment_5,2023.2.2,Win32,85.47008547,,,,,,,,,,,,,,,,254.1093,255.9094,255.9094,256.7092,return,0.1474,,72.52604167,,,,,,FBP-RB-71.png,0.4,1.2,18,1,0,2,2,17,1,,,,,,,,,,,,,,,,,,,,,,,,,,,,,,,,,,,,,,,,
,,,,,WIN24_061,18,female,2024-02-15_12h28.09.526,jersey_experiment_5,2023.2.2,Win32,85.47008547,,,,,,,,,,,,,,,,256.7094,258.0036,258.0036,258.9211,return,0.1107,,94.53125,,,,,,FBP-PT-91.png,0.45,1.2,60,0.5,0,3,3,59,1,,,,,,,,,,,,,,,,,,,,,,,,,,,,,,,,,,,,,,,,
,,,,,WIN24_061,18,female,2024-02-15_12h28.09.526,jersey_experiment_5,2023.2.2,Win32,85.47008547,,,,,,,,,,,,,,,,258.9214,260.2152,260.2153,261.4035,return,0.0962,,97.13541667,,,,,,FBP-OG-19.png,0.4,1.2,13,0.5,0,4,4,12,1,,,,,,,,,,,,,,,,,,,,,,,,,,,,,,,,,,,,,,,,
,,,,,WIN24_061,18,female,2024-02-15_12h28.09.526,jersey_experiment_5,2023.2.2,Win32,85.47008547,,,,,,,,,,,,,,,,261.4037,263.2038,263.2038,263.8389,return,0.0145,,98.30729167,,,,,,FBP-YG-18.png,0.43,1.2,39,1,0,5,5,38,1,,,,,,,,,,,,,,,,,,,,,,,,,,,,,,,,,,,,,,,,
,,,,,WIN24_061,18,female,2024-02-15_12h28.09.526,jersey_experiment_5,2023.2.2,Win32,85.47008547,,,,,,,,,,,,,,,,263.8391,265.1331,265.1331,266.6861,return,0.1554,,33.33333333,,,,,,FBP-PT-71.png,0.35,1.2,46,0.5,0,6,6,45,1,,,,,,,,,,,,,,,,,,,,,,,,,,,,,,,,,,,,,,,,
,,,,,WIN24_061,18,female,2024-02-15_12h28.09.526,jersey_experiment_5,2023.2.2,Win32,85.47008547,,,,,,,,,,,,,,,,266.6864,267.9804,267.9804,269.0627,return,0.1222,,88.80208333,,,,,,FBP-PT-81.png,0.45,1.2,55,0.5,0,7,7,54,1,,,,,,,,,,,,,,,,,,,,,,,,,,,,,,,,,,,,,,,,
,,,,,WIN24_061,18,female,2024-02-15_12h28.09.526,jersey_experiment_5,2023.2.2,Win32,85.47008547,,,,,,,,,,,,,,,,269.0629,270.3569,270.357,271.3684,return,0.0639,,90.10416667,,,,,,FBP-OG-17.png,0.43,1.2,4,0.5,0,8,8,3,1,,,,,,,,,,,,,,,,,,,,,,,,,,,,,,,,,,,,,,,,
,,,,,WIN24_061,18,female,2024-02-15_12h28.09.526,jersey_experiment_5,2023.2.2,Win32,85.47008547,,,,,,,,,,,,,,,,271.3687,273.1686,273.1686,274.5803,return,0.1035,,22.265625,,,,,,FBP-YG-18.png,0.37,1.2,37,1,0,9,9,36,1,,,,,,,,,,,,,,,,,,,,,,,,,,,,,,,,,,,,,,,,
,,,,,WIN24_061,18,female,2024-02-15_12h28.09.526,jersey_experiment_5,2023.2.2,Win32,85.47008547,,,,,,,,,,,,,,,,274.5806,275.8747,275.8747,277.063,return,0.0186,,96.22395833,,,,,,FBP-OG-19.png,0.45,1.2,15,0.5,0,10,10,14,1,,,,,,,,,,,,,,,,,,,,,,,,,,,,,,,,,,,,,,,,
,,,,,WIN24_061,18,female,2024-02-15_12h28.09.526,jersey_experiment_5,2023.2.2,Win32,85.47008547,,,,,,,,,,,,,,,,277.0632,278.8631,278.8631,279.9924,return,0.0383,,94.921875,,,,,,FBP-RB-91.png,0.45,1.2,30,1,0,11,11,29,1,,,,,,,,,,,,,,,,,,,,,,,,,,,,,,,,,,,,,,,,
,,,,,WIN24_061,18,female,2024-02-15_12h28.09.526,jersey_experiment_5,2023.2.2,Win32,85.47008547,,,,,,,,,,,,,,,,279.9926,281.2866,281.2866,282.1806,return,0.0087,,95.44270833,,,,,,FBP-OG-18.png,0.4,1.2,8,0.5,0,12,12,7,1,,,,,,,,,,,,,,,,,,,,,,,,,,,,,,,,,,,,,,,,
,,,,,WIN24_061,18,female,2024-02-15_12h28.09.526,jersey_experiment_5,2023.2.2,Win32,85.47008547,,,,,,,,,,,,,,,,282.1808,283.4749,283.475,284.7574,return,0.0909,,17.05729167,,,,,,FBP-OG-17.png,0.35,1.2,1,0.5,0,13,13,0,1,,,,,,,,,,,,,,,,,,,,,,,,,,,,,,,,,,,,,,,,
,,,,,WIN24_061,18,female,2024-02-15_12h28.09.526,jersey_experiment_5,2023.2.2,Win32,85.47008547,,,,,,,,,,,,,,,,284.7577,286.0516,286.0516,286.8632,return,0.0099,,88.80208333,,,,,,FBP-PT-71.png,0.45,1.2,50,0.5,0,14,14,49,1,,,,,,,,,,,,,,,,,,,,,,,,,,,,,,,,,,,,,,,,
,,,,,WIN24_061,18,female,2024-02-15_12h28.09.526,jersey_experiment_5,2023.2.2,Win32,85.47008547,,,,,,,,,,,,,,,,286.8634,288.6635,288.6635,289.8164,return,0.1818,,22.91666667,,,,,,FBP-RB-71.png,0.35,1.2,16,1,0,15,15,15,1,,,,,,,,,,,,,,,,,,,,,,,,,,,,,,,,,,,,,,,,
,,,,,WIN24_061,18,female,2024-02-15_12h28.09.526,jersey_experiment_5,2023.2.2,Win32,85.47008547,,,,,,,,,,,,,,,,289.8165,291.1106,291.1107,292.1811,return,0.065,,21.875,,,,,,FBP-PT-81.png,0.4,1.2,53,0.5,0,16,16,52,1,,,,,,,,,,,,,,,,,,,,,,,,,,,,,,,,,,,,,,,,
,,,,,WIN24_061,18,female,2024-02-15_12h28.09.526,jersey_experiment_5,2023.2.2,Win32,85.47008547,,,,,,,,,,,,,,,,292.1813,293.9814,293.9814,294.793,return,0.0987,,83.59375,,,,,,FBP-YG-18.png,0.4,1.2,38,1,0,17,17,37,1,,,,,,,,,,,,,,,,,,,,,,,,,,,,,,,,,,,,,,,,
,,,,,WIN24_061,18,female,2024-02-15_12h28.09.526,jersey_experiment_5,2023.2.2,Win32,85.47008547,,,,,,,,,,,,,,,,294.7931,296.0871,296.0871,297.1461,return,0.1779,,87.76041667,,,,,,FBP-PT-91.png,0.37,1.2,57,0.5,0,18,18,56,1,,,,,,,,,,,,,,,,,,,,,,,,,,,,,,,,,,,,,,,,
,,,,,WIN24_061,18,female,2024-02-15_12h28.09.526,jersey_experiment_5,2023.2.2,Win32,85.47008547,,,,,,,,,,,,,,,,297.1463,298.4401,298.4401,300.6638,return,0.0505,,74.47916667,,,,,,FBP-PT-81.png,0.37,1.2,52,0.5,0,19,19,51,1,,,,,,,,,,,,,,,,,,,,,,,,,,,,,,,,,,,,,,,,
,,,,,WIN24_061,18,female,2024-02-15_12h28.09.526,jersey_experiment_5,2023.2.2,Win32,85.47008547,,,,,,,,,,,,,,,,300.6641,302.4638,302.4638,305.5111,return,1.2515,,74.47916667,,,,,,FBP-RB-81.png,0.4,1.2,23,1,0,20,20,22,1,,,,,,,,,,,,,,,,,,,,,,,,,,,,,,,,,,,,,,,,
,,,,,WIN24_061,18,female,2024-02-15_12h28.09.526,jersey_experiment_5,2023.2.2,Win32,85.47008547,,,,,,,,,,,,,,,,305.5112,306.8052,306.8052,349.8303,return,0.6898,,74.609375,,,,,,FBP-PT-81.png,0.35,1.2,51,0.5,0,21,21,50,1,,,,,,,,,,,,,,,,,,,,,,,,,,,,,,,,,,,,,,,,
,,,,,WIN24_061,18,female,2024-02-15_12h28.09.526,jersey_experiment_5,2023.2.2,Win32,85.47008547,,,,,,,,,,,,,,,,349.8305,351.1244,351.1245,352.654,return,0.6918,,86.45833333,,,,,,FBP-PT-71.png,0.4,1.2,48,0.5,0,22,22,47,1,,,,,,,,,,,,,,,,,,,,,,,,,,,,,,,,,,,,,,,,
,,,,,WIN24_061,18,female,2024-02-15_12h28.09.526,jersey_experiment_5,2023.2.2,Win32,85.47008547,,,,,,,,,,,,,,,,352.6541,354.4543,354.4543,355.007,return,0.0708,,92.83854167,,,,,,FBP-YG-17.png,0.43,1.2,34,1,0,23,23,33,1,,,,,,,,,,,,,,,,,,,,,,,,,,,,,,,,,,,,,,,,
,,,,,WIN24_061,18,female,2024-02-15_12h28.09.526,jersey_experiment_5,2023.2.2,Win32,85.47008547,,,,,,,,,,,,,,,,355.0072,356.3011,356.3011,360.0424,return,0.0736,,92.44791667,,,,,,FBP-PT-71.png,0.43,1.2,49,0.5,0,24,24,48,1,,,,,,,,,,,,,,,,,,,,,,,,,,,,,,,,,,,,,,,,
,,,,,WIN24_061,18,female,2024-02-15_12h28.09.526,jersey_experiment_5,2023.2.2,Win32,85.47008547,,,,,,,,,,,,,,,,360.0426,361.8425,361.8426,362.9487,return,0.0774,,80.72916667,,,,,,FBP-RB-91.png,0.4,1.2,28,1,0,25,25,27,1,,,,,,,,,,,,,,,,,,,,,,,,,,,,,,,,,,,,,,,,
,,,,,WIN24_061,18,female,2024-02-15_12h28.09.526,jersey_experiment_5,2023.2.2,Win32,85.47008547,,,,,,,,,,,,,,,,362.9488,364.7485,364.7485,365.4662,return,0.0483,,31.38020833,,,,,,FBP-RB-91.png,0.37,1.2,27,1,0,26,26,26,1,,,,,,,,,,,,,,,,,,,,,,,,,,,,,,,,,,,,,,,,
,,,,,WIN24_061,18,female,2024-02-15_12h28.09.526,jersey_experiment_5,2023.2.2,Win32,85.47008547,,,,,,,,,,,,,,,,365.4664,366.7603,366.7603,367.5839,return,0.1085,,17.05729167,,,,,,FBP-OG-19.png,0.35,1.2,11,0.5,0,27,27,10,1,,,,,,,,,,,,,,,,,,,,,,,,,,,,,,,,,,,,,,,,
,,,,,WIN24_061,18,female,2024-02-15_12h28.09.526,jersey_experiment_5,2023.2.2,Win32,85.47008547,,,,,,,,,,,,,,,,367.5842,368.8783,368.8783,369.8545,return,0.0943,,76.69270833,,,,,,FBP-PT-91.png,0.43,1.2,59,0.5,0,28,28,58,1,,,,,,,,,,,,,,,,,,,,,,,,,,,,,,,,,,,,,,,,
,,,,,WIN24_061,18,female,2024-02-15_12h28.09.526,jersey_experiment_5,2023.2.2,Win32,85.47008547,,,,,,,,,,,,,,,,369.8547,371.6547,371.6548,372.7253,return,0.0413,,37.36979167,,,,,,FBP-YG-17.png,0.35,1.2,31,1,0,29,29,30,1,,,,,,,,,,,,,,,,,,,,,,,,,,,,,,,,,,,,,,,,
,,,,,WIN24_061,18,female,2024-02-15_12h28.09.526,jersey_experiment_5,2023.2.2,Win32,85.47008547,,,,,,,,,,,,,,,,372.7255,374.5255,374.5255,375.7488,return,0.5477,,81.51041667,,,,,,FBP-RB-81.png,0.43,1.2,24,1,0,30,30,23,1,,,,,,,,,,,,,,,,,,,,,,,,,,,,,,,,,,,,,,,,
,,,,,WIN24_061,18,female,2024-02-15_12h28.09.526,jersey_experiment_5,2023.2.2,Win32,85.47008547,,,,,,,,,,,,,,,,375.749,377.549,377.549,378.1019,return,0.0669,,95.18229167,,,,,,FBP-YG-19.png,0.45,1.2,45,1,0,31,31,44,1,,,,,,,,,,,,,,,,,,,,,,,,,,,,,,,,,,,,,,,,
,,,,,WIN24_061,18,female,2024-02-15_12h28.09.526,jersey_experiment_5,2023.2.2,Win32,85.47008547,,,,,,,,,,,,,,,,378.1022,379.3962,379.3962,380.0314,return,0.1089,,95.05208333,,,,,,FBP-OG-17.png,0.45,1.2,5,0.5,0,32,32,4,1,,,,,,,,,,,,,,,,,,,,,,,,,,,,,,,,,,,,,,,,
,,,,,WIN24_061,18,female,2024-02-15_12h28.09.526,jersey_experiment_5,2023.2.2,Win32,85.47008547,,,,,,,,,,,,,,,,380.0316,381.3256,381.3256,381.8668,return,0.0854,,95.05208333,,,,,,FBP-PT-81.png,0.43,1.2,54,0.5,0,33,33,53,1,,,,,,,,,,,,,,,,,,,,,,,,,,,,,,,,,,,,,,,,
,,,,,WIN24_061,18,female,2024-02-15_12h28.09.526,jersey_experiment_5,2023.2.2,Win32,85.47008547,,,,,,,,,,,,,,,,381.867,383.6668,383.6668,384.9846,return,0.603,,95.05208333,,,,,,FBP-RB-71.png,0.45,1.2,20,1,0,34,34,19,1,,,,,,,,,,,,,,,,,,,,,,,,,,,,,,,,,,,,,,,,
,,,,,WIN24_061,18,female,2024-02-15_12h28.09.526,jersey_experiment_5,2023.2.2,Win32,85.47008547,,,,,,,,,,,,,,,,384.9847,386.7848,386.7848,387.6904,return,0.1538,,83.46354167,,,,,,FBP-RB-71.png,0.37,1.2,17,1,0,35,35,16,1,,,,,,,,,,,,,,,,,,,,,,,,,,,,,,,,,,,,,,,,
,,,,,WIN24_061,18,female,2024-02-15_12h28.09.526,jersey_experiment_5,2023.2.2,Win32,85.47008547,,,,,,,,,,,,,,,,387.6907,389.4906,389.4907,390.4789,return,0.0943,,38.671875,,,,,,FBP-YG-17.png,0.37,1.2,32,1,0,36,36,31,1,,,,,,,,,,,,,,,,,,,,,,,,,,,,,,,,,,,,,,,,
,,,,,WIN24_061,18,female,2024-02-15_12h28.09.526,jersey_experiment_5,2023.2.2,Win32,85.47008547,,,,,,,,,,,,,,,,390.479,391.773,391.773,392.9732,return,0.0143,,48.4375,,,,,,FBP-PT-91.png,0.4,1.2,58,0.5,0,37,37,57,1,,,,,,,,,,,,,,,,,,,,,,,,,,,,,,,,,,,,,,,,
,,,,,WIN24_061,18,female,2024-02-15_12h28.09.526,jersey_experiment_5,2023.2.2,Win32,85.47008547,,,,,,,,,,,,,,,,392.9735,394.7731,394.7731,396.326,return,0.4871,,78.77604167,,,,,,FBP-YG-17.png,0.4,1.2,33,1,0,38,38,32,1,,,,,,,,,,,,,,,,,,,,,,,,,,,,,,,,,,,,,,,,
,,,,,WIN24_061,18,female,2024-02-15_12h28.09.526,jersey_experiment_5,2023.2.2,Win32,85.47008547,,,,,,,,,,,,,,,,396.3262,397.6203,397.6203,399.6322,return,0.494,,50.91145833,,,,,,FBP-OG-17.png,0.37,1.2,2,0.5,0,39,39,1,1,,,,,,,,,,,,,,,,,,,,,,,,,,,,,,,,,,,,,,,,
,,,,,WIN24_061,18,female,2024-02-15_12h28.09.526,jersey_experiment_5,2023.2.2,Win32,85.47008547,,,,,,,,,,,,,,,,399.6325,400.9263,400.9263,402.2557,return,0.4941,,25,,,,,,FBP-OG-19.png,0.37,1.2,12,0.5,0,40,40,11,1,,,,,,,,,,,,,,,,,,,,,,,,,,,,,,,,,,,,,,,,
,,,,,WIN24_061,18,female,2024-02-15_12h28.09.526,jersey_experiment_5,2023.2.2,Win32,85.47008547,,,,,,,,,,,,,,,,402.256,403.5499,403.5499,405.0677,return,0.4615,,38.28125,,,,,,FBP-OG-17.png,0.4,1.2,3,0.5,0,41,41,2,1,,,,,,,,,,,,,,,,,,,,,,,,,,,,,,,,,,,,,,,,
,,,,,WIN24_061,18,female,2024-02-15_12h28.09.526,jersey_experiment_5,2023.2.2,Win32,85.47008547,,,,,,,,,,,,,,,,405.0679,406.8677,406.8677,407.9501,return,0.104,,88.54166667,,,,,,FBP-YG-17.png,0.45,1.2,35,1,0,42,42,34,1,,,,,,,,,,,,,,,,,,,,,,,,,,,,,,,,,,,,,,,,
,,,,,WIN24_061,18,female,2024-02-15_12h28.09.526,jersey_experiment_5,2023.2.2,Win32,85.47008547,,,,,,,,,,,,,,,,407.9503,409.2442,409.2443,410.3149,return,0.0242,,88.671875,,,,,,FBP-PT-71.png,0.37,1.2,47,0.5,0,43,43,46,1,,,,,,,,,,,,,,,,,,,,,,,,,,,,,,,,,,,,,,,,
,,,,,WIN24_061,18,female,2024-02-15_12h28.09.526,jersey_experiment_5,2023.2.2,Win32,85.47008547,,,,,,,,,,,,,,,,410.3152,412.1149,412.1149,412.762,return,0.0955,,92.31770833,,,,,,FBP-YG-19.png,0.43,1.2,44,1,0,44,44,43,1,,,,,,,,,,,,,,,,,,,,,,,,,,,,,,,,,,,,,,,,
,,,,,WIN24_061,18,female,2024-02-15_12h28.09.526,jersey_experiment_5,2023.2.2,Win32,85.47008547,,,,,,,,,,,,,,,,412.7623,414.0562,414.0563,415.2563,return,0.0503,,7.291666667,,,,,,FBP-PT-91.png,0.35,1.2,56,0.5,0,45,45,55,1,,,,,,,,,,,,,,,,,,,,,,,,,,,,,,,,,,,,,,,,
,,,,,WIN24_061,18,female,2024-02-15_12h28.09.526,jersey_experiment_5,2023.2.2,Win32,85.47008547,,,,,,,,,,,,,,,,415.2565,417.0562,417.0562,419.3507,return,0.1463,,82.68229167,,,,,,FBP-RB-71.png,0.43,1.2,19,1,0,46,46,18,1,,,,,,,,,,,,,,,,,,,,,,,,,,,,,,,,,,,,,,,,
,,,,,WIN24_061,18,female,2024-02-15_12h28.09.526,jersey_experiment_5,2023.2.2,Win32,85.47008547,,,,,,,,,,,,,,,,419.3508,420.6447,420.6447,422.1389,return,0.0831,,26.04166667,,,,,,FBP-OG-18.png,0.37,1.2,7,0.5,0,47,47,6,1,,,,,,,,,,,,,,,,,,,,,,,,,,,,,,,,,,,,,,,,
,,,,,WIN24_061,18,female,2024-02-15_12h28.09.526,jersey_experiment_5,2023.2.2,Win32,85.47008547,,,,,,,,,,,,,,,,422.139,423.939,423.939,425.0802,return,0.1323,,25.13020833,,,,,,FBP-YG-18.png,0.35,1.2,36,1,0,48,48,35,1,,,,,,,,,,,,,,,,,,,,,,,,,,,,,,,,,,,,,,,,
,,,,,WIN24_061,18,female,2024-02-15_12h28.09.526,jersey_experiment_5,2023.2.2,Win32,85.47008547,,,,,,,,,,,,,,,,425.0803,426.8804,426.8804,428.0096,return,0.1335,,91.53645833,,,,,,FBP-YG-18.png,0.45,1.2,40,1,0,49,49,39,1,,,,,,,,,,,,,,,,,,,,,,,,,,,,,,,,,,,,,,,,
,,,,,WIN24_061,18,female,2024-02-15_12h28.09.526,jersey_experiment_5,2023.2.2,Win32,85.47008547,,,,,,,,,,,,,,,,428.0099,429.3039,429.3039,430.2332,return,0.075,,86.06770833,,,,,,FBP-OG-18.png,0.43,1.2,9,0.5,0,50,50,8,1,,,,,,,,,,,,,,,,,,,,,,,,,,,,,,,,,,,,,,,,
,,,,,WIN24_061,18,female,2024-02-15_12h28.09.526,jersey_experiment_5,2023.2.2,Win32,85.47008547,,,,,,,,,,,,,,,,430.2335,432.0335,432.0335,433.9274,return,0.0163,,37.23958333,,,,,,FBP-RB-81.png,0.37,1.2,22,1,0,51,51,21,1,,,,,,,,,,,,,,,,,,,,,,,,,,,,,,,,,,,,,,,,
,,,,,WIN24_061,18,female,2024-02-15_12h28.09.526,jersey_experiment_5,2023.2.2,Win32,85.47008547,,,,,,,,,,,,,,,,433.9277,435.7276,435.7276,436.3747,return,0.0635,,37.23958333,,,,,,FBP-RB-91.png,0.35,1.2,26,1,0,52,52,25,1,,,,,,,,,,,,,,,,,,,,,,,,,,,,,,,,,,,,,,,,
,,,,,WIN24_061,18,female,2024-02-15_12h28.09.526,jersey_experiment_5,2023.2.2,Win32,85.47008547,,,,,,,,,,,,,,,,436.3749,437.6688,437.6688,438.5512,return,0.0185,,92.31770833,,,,,,FBP-OG-18.png,0.45,1.2,10,0.5,0,53,53,9,1,,,,,,,,,,,,,,,,,,,,,,,,,,,,,,,,,,,,,,,,
,,,,,WIN24_061,18,female,2024-02-15_12h28.09.526,jersey_experiment_5,2023.2.2,Win32,85.47008547,,,,,,,,,,,,,,,,438.5514,439.8455,439.8455,441.1278,return,0.0296,,24.609375,,,,,,FBP-OG-18.png,0.35,1.2,6,0.5,0,54,54,5,1,,,,,,,,,,,,,,,,,,,,,,,,,,,,,,,,,,,,,,,,
,,,,,WIN24_061,18,female,2024-02-15_12h28.09.526,jersey_experiment_5,2023.2.2,Win32,85.47008547,,,,,,,,,,,,,,,,441.1281,442.422,442.422,443.2454,return,0.0329,,50,,,,,,FBP-OG-19.png,0.43,1.2,14,0.5,0,55,55,13,1,,,,,,,,,,,,,,,,,,,,,,,,,,,,,,,,,,,,,,,,
,,,,,WIN24_061,18,female,2024-02-15_12h28.09.526,jersey_experiment_5,2023.2.2,Win32,85.47008547,,,,,,,,,,,,,,,,443.2457,445.0458,445.0458,446.7279,return,0.6037,,63.80208333,,,,,,FBP-YG-19.png,0.35,1.2,41,1,0,56,56,40,1,,,,,,,,,,,,,,,,,,,,,,,,,,,,,,,,,,,,,,,,
,,,,,WIN24_061,18,female,2024-02-15_12h28.09.526,jersey_experiment_5,2023.2.2,Win32,85.47008547,,,,,,,,,,,,,,,,446.7281,448.5281,448.5281,449.4926,return,0.0442,,61.328125,,,,,,FBP-YG-19.png,0.37,1.2,42,1,0,57,57,41,1,,,,,,,,,,,,,,,,,,,,,,,,,,,,,,,,,,,,,,,,
,,,,,WIN24_061,18,female,2024-02-15_12h28.09.526,jersey_experiment_5,2023.2.2,Win32,85.47008547,,,,,,,,,,,,,,,,449.4929,451.2929,451.2929,452.2928,return,0.0204,,79.16666667,,,,,,FBP-RB-81.png,0.45,1.2,25,1,0,58,58,24,1,,,,,,,,,,,,,,,,,,,,,,,,,,,,,,,,,,,,,,,,
,,,,,WIN24_061,18,female,2024-02-15_12h28.09.526,jersey_experiment_5,2023.2.2,Win32,85.47008547,,,,,,,,,,,,,,,,452.293,454.093,454.093,455.3048,return,0.0165,,75,,,,,,FBP-YG-19.png,0.4,1.2,43,1,0,59,59,42,1,,,,,,,,,,,,,,,,,,,,,,,,,,,,,,,,,,,,,,,,
,,,,,WIN24_061,18,female,2024-02-15_12h28.09.526,jersey_experiment_5,2023.2.2,Win32,85.47008547,,,,,,,,,,,,,,,,,,,,,,,,,,,,,,,,,,,,,,,455.3053,575.3096,,,,,,,,,,,,,,,,,,,,,,,,,,,,,,,,,,,,,,
,,,,,WIN24_061,18,female,2024-02-15_12h28.09.526,jersey_experiment_5,2023.2.2,Win32,85.47008547,,,,,,,,,,,,,,,,,,,,,,,,,,,,,,,,,,,,,,,,,575.3097,603.593,return,28.273,,,,,,,,,,,,,,,,,,,,,,,,,,,,,,,,,,
,,,,,WIN24_061,18,female,2024-02-15_12h28.09.526,jersey_experiment_5,2023.2.2,Win32,85.47008547,,,,,,,,,,,,,,,,603.5991,605.3926,605.3926,623.4993,return,1.0594,,49.73958333,,,,,,FBP-PT-19.png,0.37,1.2,57,1,,,,,,,,,,,,,0,0,0,56,1,,,,,,,,,,,,,,,,,,,,,,,,,,,,
,,,,,WIN24_061,18,female,2024-02-15_12h28.09.526,jersey_experiment_5,2023.2.2,Win32,85.47008547,,,,,,,,,,,,,,,,623.4995,624.7934,624.7934,626.2052,return,0.0841,,65.625,,,,,,FBP-RB-19.png,0.4,1.2,28,0.5,,,,,,,,,,,,,0,1,1,27,1,,,,,,,,,,,,,,,,,,,,,,,,,,,,
,,,,,WIN24_061,18,female,2024-02-15_12h28.09.526,jersey_experiment_5,2023.2.2,Win32,85.47008547,,,,,,,,,,,,,,,,626.2055,627.4995,627.4995,629.5112,return,0.9569,,66.14583333,,,,,,FBP-YG-81.png,0.4,1.2,38,0.5,,,,,,,,,,,,,0,2,2,37,1,,,,,,,,,,,,,,,,,,,,,,,,,,,,
,,,,,WIN24_061,18,female,2024-02-15_12h28.09.526,jersey_experiment_5,2023.2.2,Win32,85.47008547,,,,,,,,,,,,,,,,629.5114,630.8054,630.8054,631.9584,return,0.5722,,88.93229167,,,,,,FBP-YG-81.png,0.45,1.2,40,0.5,,,,,,,,,,,,,0,3,3,39,1,,,,,,,,,,,,,,,,,,,,,,,,,,,,
,,,,,WIN24_061,18,female,2024-02-15_12h28.09.526,jersey_experiment_5,2023.2.2,Win32,85.47008547,,,,,,,,,,,,,,,,631.9586,633.2524,633.2524,633.8879,return,0.0471,,86.97916667,,,,,,FBP-RB-17.png,0.43,1.2,19,0.5,,,,,,,,,,,,,0,4,4,18,1,,,,,,,,,,,,,,,,,,,,,,,,,,,,
,,,,,WIN24_061,18,female,2024-02-15_12h28.09.526,jersey_experiment_5,2023.2.2,Win32,85.47008547,,,,,,,,,,,,,,,,633.8881,635.1821,635.1821,636.629,return,0.4912,,37.109375,,,,,,FBP-RB-17.png,0.35,1.2,16,0.5,,,,,,,,,,,,,0,5,5,15,1,,,,,,,,,,,,,,,,,,,,,,,,,,,,
,,,,,WIN24_061,18,female,2024-02-15_12h28.09.526,jersey_experiment_5,2023.2.2,Win32,85.47008547,,,,,,,,,,,,,,,,636.6292,637.9233,637.9233,638.7821,return,0.2685,,72.39583333,,,,,,FBP-YG-71.png,0.43,1.2,34,0.5,,,,,,,,,,,,,0,6,6,33,1,,,,,,,,,,,,,,,,,,,,,,,,,,,,
,,,,,WIN24_061,18,female,2024-02-15_12h28.09.526,jersey_experiment_5,2023.2.2,Win32,85.47008547,,,,,,,,,,,,,,,,638.7823,640.5824,640.5825,641.2527,return,0.0889,,74.34895833,,,,,,FBP-OG-91.png,0.43,1.2,14,1,,,,,,,,,,,,,0,7,7,13,1,,,,,,,,,,,,,,,,,,,,,,,,,,,,
,,,,,WIN24_061,18,female,2024-02-15_12h28.09.526,jersey_experiment_5,2023.2.2,Win32,85.47008547,,,,,,,,,,,,,,,,641.253,642.547,642.547,643.6413,return,0.1108,,26.171875,,,,,,FBP-YG-81.png,0.35,1.2,36,0.5,,,,,,,,,,,,,0,8,8,35,1,,,,,,,,,,,,,,,,,,,,,,,,,,,,
,,,,,WIN24_061,18,female,2024-02-15_12h28.09.526,jersey_experiment_5,2023.2.2,Win32,85.47008547,,,,,,,,,,,,,,,,643.6415,645.4413,645.4413,646.4885,return,0.1911,,41.40625,,,,,,FBP-OG-71.png,0.35,1.2,1,1,,,,,,,,,,,,,0,9,9,0,1,,,,,,,,,,,,,,,,,,,,,,,,,,,,
,,,,,WIN24_061,18,female,2024-02-15_12h28.09.526,jersey_experiment_5,2023.2.2,Win32,85.47008547,,,,,,,,,,,,,,,,646.4887,647.7826,647.7826,650.4885,return,0.0732,,40.10416667,,,,,,FBP-YG-91.png,0.35,1.2,41,0.5,,,,,,,,,,,,,0,10,10,40,1,,,,,,,,,,,,,,,,,,,,,,,,,,,,
,,,,,WIN24_061,18,female,2024-02-15_12h28.09.526,jersey_experiment_5,2023.2.2,Win32,85.47008547,,,,,,,,,,,,,,,,650.4886,652.2885,652.2885,652.8415,return,0.0724,,33.85416667,,,,,,FBP-PT-17.png,0.37,1.2,47,1,,,,,,,,,,,,,0,11,11,46,1,,,,,,,,,,,,,,,,,,,,,,,,,,,,
,,,,,WIN24_061,18,female,2024-02-15_12h28.09.526,jersey_experiment_5,2023.2.2,Win32,85.47008547,,,,,,,,,,,,,,,,652.8418,654.6416,654.6416,655.5003,return,0.0614,,79.94791667,,,,,,FBP-PT-17.png,0.4,1.2,48,1,,,,,,,,,,,,,0,12,12,47,1,,,,,,,,,,,,,,,,,,,,,,,,,,,,
,,,,,WIN24_061,18,female,2024-02-15_12h28.09.526,jersey_experiment_5,2023.2.2,Win32,85.47008547,,,,,,,,,,,,,,,,655.5005,656.7946,656.7946,657.9123,return,0.0292,,48.95833333,,,,,,FBP-RB-19.png,0.35,1.2,26,0.5,,,,,,,,,,,,,0,13,13,25,1,,,,,,,,,,,,,,,,,,,,,,,,,,,,
,,,,,WIN24_061,18,female,2024-02-15_12h28.09.526,jersey_experiment_5,2023.2.2,Win32,85.47008547,,,,,,,,,,,,,,,,657.9125,659.7124,659.7124,661.6538,return,1.1473,,64.32291667,,,,,,FBP-PT-17.png,0.43,1.2,49,1,,,,,,,,,,,,,0,14,14,48,1,,,,,,,,,,,,,,,,,,,,,,,,,,,,
,,,,,WIN24_061,18,female,2024-02-15_12h28.09.526,jersey_experiment_5,2023.2.2,Win32,85.47008547,,,,,,,,,,,,,,,,661.6539,663.4538,663.4539,664.5713,return,0.0493,,60.80729167,,,,,,FBP-OG-71.png,0.4,1.2,3,1,,,,,,,,,,,,,0,15,15,2,1,,,,,,,,,,,,,,,,,,,,,,,,,,,,
,,,,,WIN24_061,18,female,2024-02-15_12h28.09.526,jersey_experiment_5,2023.2.2,Win32,85.47008547,,,,,,,,,,,,,,,,664.5716,665.8655,665.8655,666.8773,return,0.0708,,86.58854167,,,,,,FBP-RB-18.png,0.43,1.2,24,0.5,,,,,,,,,,,,,0,16,16,23,1,,,,,,,,,,,,,,,,,,,,,,,,,,,,
,,,,,WIN24_061,18,female,2024-02-15_12h28.09.526,jersey_experiment_5,2023.2.2,Win32,85.47008547,,,,,,,,,,,,,,,,666.8775,668.6774,668.6775,669.901,return,0.085,,61.45833333,,,,,,FBP-PT-18.png,0.35,1.2,51,1,,,,,,,,,,,,,0,17,17,50,1,,,,,,,,,,,,,,,,,,,,,,,,,,,,
,,,,,WIN24_061,18,female,2024-02-15_12h28.09.526,jersey_experiment_5,2023.2.2,Win32,85.47008547,,,,,,,,,,,,,,,,669.9013,671.1951,671.1952,672.0893,return,0.0398,,98.69791667,,,,,,FBP-YG-71.png,0.45,1.2,35,0.5,,,,,,,,,,,,,0,18,18,34,1,,,,,,,,,,,,,,,,,,,,,,,,,,,,
,,,,,WIN24_061,18,female,2024-02-15_12h28.09.526,jersey_experiment_5,2023.2.2,Win32,85.47008547,,,,,,,,,,,,,,,,672.0895,673.8892,673.8893,675.1483,return,0.4853,,88.93229167,,,,,,FBP-PT-19.png,0.4,1.2,58,1,,,,,,,,,,,,,0,19,19,57,1,,,,,,,,,,,,,,,,,,,,,,,,,,,,
,,,,,WIN24_061,18,female,2024-02-15_12h28.09.526,jersey_experiment_5,2023.2.2,Win32,85.47008547,,,,,,,,,,,,,,,,675.1485,676.4424,676.4425,677.6424,return,0.0477,,73.95833333,,,,,,FBP-YG-71.png,0.37,1.2,32,0.5,,,,,,,,,,,,,0,20,20,31,1,,,,,,,,,,,,,,,,,,,,,,,,,,,,
,,,,,WIN24_061,18,female,2024-02-15_12h28.09.526,jersey_experiment_5,2023.2.2,Win32,85.47008547,,,,,,,,,,,,,,,,677.6426,679.4424,679.4425,680.8543,return,0.4779,,98.95833333,,,,,,FBP-OG-71.png,0.45,1.2,5,1,,,,,,,,,,,,,0,21,21,4,1,,,,,,,,,,,,,,,,,,,,,,,,,,,,
,,,,,WIN24_061,18,female,2024-02-15_12h28.09.526,jersey_experiment_5,2023.2.2,Win32,85.47008547,,,,,,,,,,,,,,,,680.8545,682.6544,682.6544,683.9956,return,0.4382,,62.890625,,,,,,FBP-PT-18.png,0.37,1.2,52,1,,,,,,,,,,,,,0,22,22,51,1,,,,,,,,,,,,,,,,,,,,,,,,,,,,
,,,,,WIN24_061,18,female,2024-02-15_12h28.09.526,jersey_experiment_5,2023.2.2,Win32,85.47008547,,,,,,,,,,,,,,,,683.9959,685.7958,685.7958,687.5134,return,0.4513,,49.86979167,,,,,,FBP-OG-71.png,0.37,1.2,2,1,,,,,,,,,,,,,0,23,23,1,1,,,,,,,,,,,,,,,,,,,,,,,,,,,,
,,,,,WIN24_061,18,female,2024-02-15_12h28.09.526,jersey_experiment_5,2023.2.2,Win32,85.47008547,,,,,,,,,,,,,,,,687.5136,688.8075,688.8075,689.5489,return,0.0147,,88.15104167,,,,,,FBP-YG-91.png,0.43,1.2,44,0.5,,,,,,,,,,,,,0,24,24,43,1,,,,,,,,,,,,,,,,,,,,,,,,,,,,
,,,,,WIN24_061,18,female,2024-02-15_12h28.09.526,jersey_experiment_5,2023.2.2,Win32,85.47008547,,,,,,,,,,,,,,,,689.5491,690.8429,690.843,692.2547,return,0.438,,74.47916667,,,,,,FBP-RB-19.png,0.37,1.2,27,0.5,,,,,,,,,,,,,0,25,25,26,1,,,,,,,,,,,,,,,,,,,,,,,,,,,,
,,,,,WIN24_061,18,female,2024-02-15_12h28.09.526,jersey_experiment_5,2023.2.2,Win32,85.47008547,,,,,,,,,,,,,,,,692.255,693.549,693.549,694.3607,return,0.005,,74.47916667,,,,,,FBP-YG-71.png,0.35,1.2,31,0.5,,,,,,,,,,,,,0,26,26,30,1,,,,,,,,,,,,,,,,,,,,,,,,,,,,
,,,,,WIN24_061,18,female,2024-02-15_12h28.09.526,jersey_experiment_5,2023.2.2,Win32,85.47008547,,,,,,,,,,,,,,,,694.3609,695.6549,695.6549,696.949,return,0.4087,,95.57291667,,,,,,FBP-YG-91.png,0.45,1.2,45,0.5,,,,,,,,,,,,,0,27,27,44,1,,,,,,,,,,,,,,,,,,,,,,,,,,,,
,,,,,WIN24_061,18,female,2024-02-15_12h28.09.526,jersey_experiment_5,2023.2.2,Win32,85.47008547,,,,,,,,,,,,,,,,696.9491,698.7491,698.7492,702.5022,return,0.9016,,64.32291667,,,,,,FBP-OG-81.png,0.37,1.2,7,1,,,,,,,,,,,,,0,28,28,6,1,,,,,,,,,,,,,,,,,,,,,,,,,,,,
,,,,,WIN24_061,18,female,2024-02-15_12h28.09.526,jersey_experiment_5,2023.2.2,Win32,85.47008547,,,,,,,,,,,,,,,,702.5024,703.7963,703.7963,706.5023,return,0.0642,,48.69791667,,,,,,FBP-YG-91.png,0.37,1.2,42,0.5,,,,,,,,,,,,,0,29,29,41,1,,,,,,,,,,,,,,,,,,,,,,,,,,,,
,,,,,WIN24_061,18,female,2024-02-15_12h28.09.526,jersey_experiment_5,2023.2.2,Win32,85.47008547,,,,,,,,,,,,,,,,706.5025,708.3027,708.3027,710.2553,return,0.0845,,33.07291667,,,,,,FBP-OG-81.png,0.35,1.2,6,1,,,,,,,,,,,,,0,30,30,5,1,,,,,,,,,,,,,,,,,,,,,,,,,,,,
,,,,,WIN24_061,18,female,2024-02-15_12h28.09.526,jersey_experiment_5,2023.2.2,Win32,85.47008547,,,,,,,,,,,,,,,,710.2556,711.5496,711.5497,712.1496,return,0.1117,,33.07291667,,,,,,FBP-RB-18.png,0.37,1.2,22,0.5,,,,,,,,,,,,,0,31,31,21,1,,,,,,,,,,,,,,,,,,,,,,,,,,,,
,,,,,WIN24_061,18,female,2024-02-15_12h28.09.526,jersey_experiment_5,2023.2.2,Win32,85.47008547,,,,,,,,,,,,,,,,712.1498,713.9497,713.9497,714.4908,return,0.0708,,40.234375,,,,,,FBP-PT-18.png,0.4,1.2,53,1,,,,,,,,,,,,,0,32,32,52,1,,,,,,,,,,,,,,,,,,,,,,,,,,,,
,,,,,WIN24_061,18,female,2024-02-15_12h28.09.526,jersey_experiment_5,2023.2.2,Win32,85.47008547,,,,,,,,,,,,,,,,714.4911,716.291,716.291,716.9852,return,0.1342,,58.85416667,,,,,,FBP-OG-91.png,0.4,1.2,13,1,,,,,,,,,,,,,0,33,33,12,1,,,,,,,,,,,,,,,,,,,,,,,,,,,,
,,,,,WIN24_061,18,female,2024-02-15_12h28.09.526,jersey_experiment_5,2023.2.2,Win32,85.47008547,,,,,,,,,,,,,,,,716.9855,718.2794,718.2794,719.8675,return,0.5523,,73.4375,,,,,,FBP-YG-71.png,0.4,1.2,33,0.5,,,,,,,,,,,,,0,34,34,32,1,,,,,,,,,,,,,,,,,,,,,,,,,,,,
,,,,,WIN24_061,18,female,2024-02-15_12h28.09.526,jersey_experiment_5,2023.2.2,Win32,85.47008547,,,,,,,,,,,,,,,,719.8677,721.1617,721.1617,723.1971,return,1.2146,,99.609375,,,,,,FBP-RB-17.png,0.45,1.2,20,0.5,,,,,,,,,,,,,0,35,35,19,1,,,,,,,,,,,,,,,,,,,,,,,,,,,,
,,,,,WIN24_061,18,female,2024-02-15_12h28.09.526,jersey_experiment_5,2023.2.2,Win32,85.47008547,,,,,,,,,,,,,,,,723.1973,724.4913,724.4913,725.1737,return,0.0766,,99.609375,,,,,,FBP-YG-81.png,0.43,1.2,39,0.5,,,,,,,,,,,,,0,36,36,38,1,,,,,,,,,,,,,,,,,,,,,,,,,,,,
,,,,,WIN24_061,18,female,2024-02-15_12h28.09.526,jersey_experiment_5,2023.2.2,Win32,85.47008547,,,,,,,,,,,,,,,,725.1739,726.9737,726.9737,728.5266,return,0.5268,,64.19270833,,,,,,FBP-OG-91.png,0.37,1.2,12,1,,,,,,,,,,,,,0,37,37,11,1,,,,,,,,,,,,,,,,,,,,,,,,,,,,
,,,,,WIN24_061,18,female,2024-02-15_12h28.09.526,jersey_experiment_5,2023.2.2,Win32,85.47008547,,,,,,,,,,,,,,,,728.5269,729.8208,729.8208,732.0444,return,1.2381,,73.95833333,,,,,,FBP-RB-19.png,0.43,1.2,29,0.5,,,,,,,,,,,,,0,38,38,28,1,,,,,,,,,,,,,,,,,,,,,,,,,,,,
,,,,,WIN24_061,18,female,2024-02-15_12h28.09.526,jersey_experiment_5,2023.2.2,Win32,85.47008547,,,,,,,,,,,,,,,,732.0446,733.8444,733.8444,734.6798,return,0.1213,,99.08854167,,,,,,FBP-OG-81.png,0.43,1.2,9,1,,,,,,,,,,,,,0,39,39,8,1,,,,,,,,,,,,,,,,,,,,,,,,,,,,
,,,,,WIN24_061,18,female,2024-02-15_12h28.09.526,jersey_experiment_5,2023.2.2,Win32,85.47008547,,,,,,,,,,,,,,,,734.6801,735.974,735.974,737.5623,return,0.0131,,73.17708333,,,,,,FBP-YG-91.png,0.4,1.2,43,0.5,,,,,,,,,,,,,0,40,40,42,1,,,,,,,,,,,,,,,,,,,,,,,,,,,,
,,,,,WIN24_061,18,female,2024-02-15_12h28.09.526,jersey_experiment_5,2023.2.2,Win32,85.47008547,,,,,,,,,,,,,,,,737.5624,739.3625,739.3625,740.1743,return,0.2592,,86.19791667,,,,,,FBP-PT-18.png,0.43,1.2,54,1,,,,,,,,,,,,,0,41,41,53,1,,,,,,,,,,,,,,,,,,,,,,,,,,,,
,,,,,WIN24_061,18,female,2024-02-15_12h28.09.526,jersey_experiment_5,2023.2.2,Win32,85.47008547,,,,,,,,,,,,,,,,740.1744,741.9743,741.9743,742.6683,return,0.0109,,74.609375,,,,,,FBP-OG-81.png,0.4,1.2,8,1,,,,,,,,,,,,,0,42,42,7,1,,,,,,,,,,,,,,,,,,,,,,,,,,,,
,,,,,WIN24_061,18,female,2024-02-15_12h28.09.526,jersey_experiment_5,2023.2.2,Win32,85.47008547,,,,,,,,,,,,,,,,742.6685,744.4685,744.4685,745.3037,return,0.006,,98.17708333,,,,,,FBP-PT-17.png,0.45,1.2,50,1,,,,,,,,,,,,,0,43,43,49,1,,,,,,,,,,,,,,,,,,,,,,,,,,,,
,,,,,WIN24_061,18,female,2024-02-15_12h28.09.526,jersey_experiment_5,2023.2.2,Win32,85.47008547,,,,,,,,,,,,,,,,745.3039,747.104,747.104,748.7744,return,0.4284,,62.76041667,,,,,,FBP-PT-19.png,0.35,1.2,56,1,,,,,,,,,,,,,0,44,44,55,1,,,,,,,,,,,,,,,,,,,,,,,,,,,,
,,,,,WIN24_061,18,female,2024-02-15_12h28.09.526,jersey_experiment_5,2023.2.2,Win32,85.47008547,,,,,,,,,,,,,,,,748.7746,750.5747,750.5747,751.751,return,0.5341,,99.86979167,,,,,,FBP-PT-19.png,0.45,1.2,60,1,,,,,,,,,,,,,0,45,45,59,1,,,,,,,,,,,,,,,,,,,,,,,,,,,,
,,,,,WIN24_061,18,female,2024-02-15_12h28.09.526,jersey_experiment_5,2023.2.2,Win32,85.47008547,,,,,,,,,,,,,,,,751.7513,753.0453,753.0453,754.1981,return,0.1017,,98.4375,,,,,,FBP-RB-18.png,0.45,1.2,25,0.5,,,,,,,,,,,,,0,46,46,24,1,,,,,,,,,,,,,,,,,,,,,,,,,,,,
,,,,,WIN24_061,18,female,2024-02-15_12h28.09.526,jersey_experiment_5,2023.2.2,Win32,85.47008547,,,,,,,,,,,,,,,,754.1984,755.9983,755.9983,757.0218,return,0.0096,,48.046875,,,,,,FBP-PT-17.png,0.35,1.2,46,1,,,,,,,,,,,,,0,47,47,45,1,,,,,,,,,,,,,,,,,,,,,,,,,,,,
,,,,,WIN24_061,18,female,2024-02-15_12h28.09.526,jersey_experiment_5,2023.2.2,Win32,85.47008547,,,,,,,,,,,,,,,,757.0221,758.8221,758.8221,760.4572,return,0.1078,,99.34895833,,,,,,FBP-OG-71.png,0.43,1.2,4,1,,,,,,,,,,,,,0,48,48,3,1,,,,,,,,,,,,,,,,,,,,,,,,,,,,
,,,,,WIN24_061,18,female,2024-02-15_12h28.09.526,jersey_experiment_5,2023.2.2,Win32,85.47008547,,,,,,,,,,,,,,,,760.4574,762.2574,762.2574,762.7986,return,0.0239,,99.609375,,,,,,FBP-PT-19.png,0.43,1.2,59,1,,,,,,,,,,,,,0,49,49,58,1,,,,,,,,,,,,,,,,,,,,,,,,,,,,
,,,,,WIN24_061,18,female,2024-02-15_12h28.09.526,jersey_experiment_5,2023.2.2,Win32,85.47008547,,,,,,,,,,,,,,,,762.7989,764.0927,764.0927,765.2222,return,0.4903,,99.609375,,,,,,FBP-RB-18.png,0.4,1.2,23,0.5,,,,,,,,,,,,,0,50,50,22,1,,,,,,,,,,,,,,,,,,,,,,,,,,,,
,,,,,WIN24_061,18,female,2024-02-15_12h28.09.526,jersey_experiment_5,2023.2.2,Win32,85.47008547,,,,,,,,,,,,,,,,765.2224,766.5163,766.5164,768.3281,return,0.4646,,48.95833333,,,,,,FBP-RB-18.png,0.35,1.2,21,0.5,,,,,,,,,,,,,0,51,51,20,1,,,,,,,,,,,,,,,,,,,,,,,,,,,,
,,,,,WIN24_061,18,female,2024-02-15_12h28.09.526,jersey_experiment_5,2023.2.2,Win32,85.47008547,,,,,,,,,,,,,,,,768.3283,770.1282,770.1283,771.0928,return,0.1122,,99.47916667,,,,,,FBP-PT-18.png,0.45,1.2,55,1,,,,,,,,,,,,,0,52,52,54,1,,,,,,,,,,,,,,,,,,,,,,,,,,,,
,,,,,WIN24_061,18,female,2024-02-15_12h28.09.526,jersey_experiment_5,2023.2.2,Win32,85.47008547,,,,,,,,,,,,,,,,771.0932,772.3872,772.3872,774.2343,return,0.0624,,75.26041667,,,,,,FBP-RB-17.png,0.37,1.2,17,0.5,,,,,,,,,,,,,0,53,53,16,1,,,,,,,,,,,,,,,,,,,,,,,,,,,,
,,,,,WIN24_061,18,female,2024-02-15_12h28.09.526,jersey_experiment_5,2023.2.2,Win32,85.47008547,,,,,,,,,,,,,,,,774.2344,776.0344,776.0344,777.6108,return,0.0499,,99.47916667,,,,,,FBP-OG-81.png,0.45,1.2,10,1,,,,,,,,,,,,,0,54,54,9,1,,,,,,,,,,,,,,,,,,,,,,,,,,,,
,,,,,WIN24_061,18,female,2024-02-15_12h28.09.526,jersey_experiment_5,2023.2.2,Win32,85.47008547,,,,,,,,,,,,,,,,777.611,778.9049,778.9049,779.6579,return,0.1546,,99.34895833,,,,,,FBP-RB-19.png,0.45,1.2,30,0.5,,,,,,,,,,,,,0,55,55,29,1,,,,,,,,,,,,,,,,,,,,,,,,,,,,
,,,,,WIN24_061,18,female,2024-02-15_12h28.09.526,jersey_experiment_5,2023.2.2,Win32,85.47008547,,,,,,,,,,,,,,,,779.6581,781.4582,781.4582,782.9992,return,0.1242,,25.26041667,,,,,,FBP-OG-91.png,0.35,1.2,11,1,,,,,,,,,,,,,0,56,56,10,1,,,,,,,,,,,,,,,,,,,,,,,,,,,,
,,,,,WIN24_061,18,female,2024-02-15_12h28.09.526,jersey_experiment_5,2023.2.2,Win32,85.47008547,,,,,,,,,,,,,,,,782.9993,784.2934,784.2934,785.1288,return,0.0493,,48.17708333,,,,,,FBP-RB-17.png,0.4,1.2,18,0.5,,,,,,,,,,,,,0,57,57,17,1,,,,,,,,,,,,,,,,,,,,,,,,,,,,
,,,,,WIN24_061,18,female,2024-02-15_12h28.09.526,jersey_experiment_5,2023.2.2,Win32,85.47008547,,,,,,,,,,,,,,,,785.129,786.9289,786.9289,787.623,return,0.1692,,92.1875,,,,,,FBP-OG-91.png,0.45,1.2,15,1,,,,,,,,,,,,,0,58,58,14,1,,,,,,,,,,,,,,,,,,,,,,,,,,,,
,,,,,WIN24_061,18,female,2024-02-15_12h28.09.526,jersey_experiment_5,2023.2.2,Win32,85.47008547,,,,,,,,,,,,,,,,787.6233,788.9172,788.9172,891.1915,return,99.9252,,74.609375,,,,,,FBP-YG-81.png,0.37,1.2,37,0.5,,,,,,,,,,,,,0,59,59,36,1,,,,,,,,,,,,,,,,,,,,,,,,,,,,
,,,,,WIN24_061,18,female,2024-02-15_12h28.09.526,jersey_experiment_5,2023.2.2,Win32,85.47008547,,,,,,,,,,,,,,,,891.1981,892.9915,892.9916,895.274,return,0.3311,,98.828125,,,,,,FBP-PT-81.png,0.45,1.2,55,1,,,,,,,,,,,,,,,,,,0,0,0,54,1,,,,,,,,,,,,,,,,,,,,,,,
,,,,,WIN24_061,18,female,2024-02-15_12h28.09.526,jersey_experiment_5,2023.2.2,Win32,85.47008547,,,,,,,,,,,,,,,,895.2743,897.0741,897.0741,898.1328,return,0.0795,,99.21875,,,,,,FBP-PT-81.png,0.43,1.2,54,1,,,,,,,,,,,,,,,,,,0,1,1,53,1,,,,,,,,,,,,,,,,,,,,,,,
,,,,,WIN24_061,18,female,2024-02-15_12h28.09.526,jersey_experiment_5,2023.2.2,Win32,85.47008547,,,,,,,,,,,,,,,,898.133,899.9331,899.9331,900.4624,return,0.1275,,99.08854167,,,,,,FBP-OG-18.png,0.45,1.2,10,1,,,,,,,,,,,,,,,,,,0,2,2,9,1,,,,,,,,,,,,,,,,,,,,,,,
,,,,,WIN24_061,18,female,2024-02-15_12h28.09.526,jersey_experiment_5,2023.2.2,Win32,85.47008547,,,,,,,,,,,,,,,,900.4626,901.7566,901.7566,903.0155,return,0.2537,,75.52083333,,,,,,FBP-YG-19.png,0.4,1.2,43,0.5,,,,,,,,,,,,,,,,,,0,3,3,42,1,,,,,,,,,,,,,,,,,,,,,,,
,,,,,WIN24_061,18,female,2024-02-15_12h28.09.526,jersey_experiment_5,2023.2.2,Win32,85.47008547,,,,,,,,,,,,,,,,903.0158,904.8157,904.8157,905.992,return,0.0764,,99.34895833,,,,,,FBP-OG-17.png,0.45,1.2,5,1,,,,,,,,,,,,,,,,,,0,4,4,4,1,,,,,,,,,,,,,,,,,,,,,,,
,,,,,WIN24_061,18,female,2024-02-15_12h28.09.526,jersey_experiment_5,2023.2.2,Win32,85.47008547,,,,,,,,,,,,,,,,905.9923,907.7924,907.7924,908.5923,return,0.1416,,74.08854167,,,,,,FBP-OG-18.png,0.4,1.2,8,1,,,,,,,,,,,,,,,,,,0,5,5,7,1,,,,,,,,,,,,,,,,,,,,,,,
,,,,,WIN24_061,18,female,2024-02-15_12h28.09.526,jersey_experiment_5,2023.2.2,Win32,85.47008547,,,,,,,,,,,,,,,,908.5925,910.3923,910.3924,911.051,return,0.0826,,64.0625,,,,,,FBP-PT-91.png,0.37,1.2,57,1,,,,,,,,,,,,,,,,,,0,6,6,56,1,,,,,,,,,,,,,,,,,,,,,,,
,,,,,WIN24_061,18,female,2024-02-15_12h28.09.526,jersey_experiment_5,2023.2.2,Win32,85.47008547,,,,,,,,,,,,,,,,911.0512,912.8511,912.8511,913.7689,return,0.1205,,60.67708333,,,,,,FBP-PT-81.png,0.4,1.2,53,1,,,,,,,,,,,,,,,,,,0,7,7,52,1,,,,,,,,,,,,,,,,,,,,,,,
,,,,,WIN24_061,18,female,2024-02-15_12h28.09.526,jersey_experiment_5,2023.2.2,Win32,85.47008547,,,,,,,,,,,,,,,,913.769,915.0631,915.0631,916.2867,return,0.1327,,99.73958333,,,,,,FBP-RB-81.png,0.45,1.2,25,0.5,,,,,,,,,,,,,,,,,,0,8,8,24,1,,,,,,,,,,,,,,,,,,,,,,,
,,,,,WIN24_061,18,female,2024-02-15_12h28.09.526,jersey_experiment_5,2023.2.2,Win32,85.47008547,,,,,,,,,,,,,,,,916.2869,918.0867,918.0867,919.5574,return,0.7358,,24.86979167,,,,,,FBP-PT-91.png,0.35,1.2,56,1,,,,,,,,,,,,,,,,,,0,9,9,55,1,,,,,,,,,,,,,,,,,,,,,,,
,,,,,WIN24_061,18,female,2024-02-15_12h28.09.526,jersey_experiment_5,2023.2.2,Win32,85.47008547,,,,,,,,,,,,,,,,919.5576,921.3573,921.3573,923.4515,return,0.153,,35.41666667,,,,,,FBP-OG-18.png,0.35,1.2,6,1,,,,,,,,,,,,,,,,,,0,10,10,5,1,,,,,,,,,,,,,,,,,,,,,,,
,,,,,WIN24_061,18,female,2024-02-15_12h28.09.526,jersey_experiment_5,2023.2.2,Win32,85.47008547,,,,,,,,,,,,,,,,923.4518,925.2519,925.2519,926.4282,return,0.6119,,49.86979167,,,,,,FBP-OG-19.png,0.37,1.2,12,1,,,,,,,,,,,,,,,,,,0,11,11,11,1,,,,,,,,,,,,,,,,,,,,,,,
,,,,,WIN24_061,18,female,2024-02-15_12h28.09.526,jersey_experiment_5,2023.2.2,Win32,85.47008547,,,,,,,,,,,,,,,,926.4285,927.7223,927.7223,928.64,return,0.2731,,73.046875,,,,,,FBP-YG-19.png,0.43,1.2,44,0.5,,,,,,,,,,,,,,,,,,0,12,12,43,1,,,,,,,,,,,,,,,,,,,,,,,
,,,,,WIN24_061,18,female,2024-02-15_12h28.09.526,jersey_experiment_5,2023.2.2,Win32,85.47008547,,,,,,,,,,,,,,,,928.6401,930.4401,930.4402,931.3224,return,0.1801,,75.65104167,,,,,,FBP-OG-17.png,0.4,1.2,3,1,,,,,,,,,,,,,,,,,,0,13,13,2,1,,,,,,,,,,,,,,,,,,,,,,,
,,,,,WIN24_061,18,female,2024-02-15_12h28.09.526,jersey_experiment_5,2023.2.2,Win32,85.47008547,,,,,,,,,,,,,,,,931.3227,932.6167,932.6167,934.2989,return,0.2237,,25.78125,,,,,,FBP-YG-17.png,0.35,1.2,31,0.5,,,,,,,,,,,,,,,,,,0,14,14,30,1,,,,,,,,,,,,,,,,,,,,,,,
,,,,,WIN24_061,18,female,2024-02-15_12h28.09.526,jersey_experiment_5,2023.2.2,Win32,85.47008547,,,,,,,,,,,,,,,,934.2991,936.0991,936.0991,937.0991,return,0.1296,,26.43229167,,,,,,FBP-OG-17.png,0.37,1.2,2,1,,,,,,,,,,,,,,,,,,0,15,15,1,1,,,,,,,,,,,,,,,,,,,,,,,
,,,,,WIN24_061,18,female,2024-02-15_12h28.09.526,jersey_experiment_5,2023.2.2,Win32,85.47008547,,,,,,,,,,,,,,,,937.0993,938.8994,938.8994,939.7109,return,0.0942,,94.921875,,,,,,FBP-PT-91.png,0.45,1.2,60,1,,,,,,,,,,,,,,,,,,0,16,16,59,1,,,,,,,,,,,,,,,,,,,,,,,
,,,,,WIN24_061,18,female,2024-02-15_12h28.09.526,jersey_experiment_5,2023.2.2,Win32,85.47008547,,,,,,,,,,,,,,,,939.7111,941.0051,941.0051,942.8289,return,0.1559,,25.13020833,,,,,,FBP-RB-81.png,0.37,1.2,22,0.5,,,,,,,,,,,,,,,,,,0,17,17,21,1,,,,,,,,,,,,,,,,,,,,,,,
,,,,,WIN24_061,18,female,2024-02-15_12h28.09.526,jersey_experiment_5,2023.2.2,Win32,85.47008547,,,,,,,,,,,,,,,,942.8291,944.6288,944.6288,945.6761,return,0.2361,,87.890625,,,,,,FBP-OG-19.png,0.4,1.2,13,1,,,,,,,,,,,,,,,,,,0,18,18,12,1,,,,,,,,,,,,,,,,,,,,,,,
,,,,,WIN24_061,18,female,2024-02-15_12h28.09.526,jersey_experiment_5,2023.2.2,Win32,85.47008547,,,,,,,,,,,,,,,,945.6764,946.9701,946.9701,947.9113,return,0.1455,,73.17708333,,,,,,FBP-RB-91.png,0.4,1.2,28,0.5,,,,,,,,,,,,,,,,,,0,19,19,27,1,,,,,,,,,,,,,,,,,,,,,,,
,,,,,WIN24_061,18,female,2024-02-15_12h28.09.526,jersey_experiment_5,2023.2.2,Win32,85.47008547,,,,,,,,,,,,,,,,947.9115,949.2055,949.2055,950.5113,return,0.0703,,38.15104167,,,,,,FBP-YG-18.png,0.35,1.2,36,0.5,,,,,,,,,,,,,,,,,,0,20,20,35,1,,,,,,,,,,,,,,,,,,,,,,,
,,,,,WIN24_061,18,female,2024-02-15_12h28.09.526,jersey_experiment_5,2023.2.2,Win32,85.47008547,,,,,,,,,,,,,,,,950.5116,951.8054,951.8055,952.7585,return,0.0757,,88.93229167,,,,,,FBP-RB-71.png,0.45,1.2,20,0.5,,,,,,,,,,,,,,,,,,0,21,21,19,1,,,,,,,,,,,,,,,,,,,,,,,
,,,,,WIN24_061,18,female,2024-02-15_12h28.09.526,jersey_experiment_5,2023.2.2,Win32,85.47008547,,,,,,,,,,,,,,,,952.7587,954.0526,954.0527,956.0292,return,0.4847,,35.9375,,,,,,FBP-YG-19.png,0.35,1.2,41,0.5,,,,,,,,,,,,,,,,,,0,22,22,40,1,,,,,,,,,,,,,,,,,,,,,,,
,,,,,WIN24_061,18,female,2024-02-15_12h28.09.526,jersey_experiment_5,2023.2.2,Win32,85.47008547,,,,,,,,,,,,,,,,956.0295,957.3235,957.3235,957.9823,return,0.0151,,37.109375,,,,,,FBP-YG-17.png,0.37,1.2,32,0.5,,,,,,,,,,,,,,,,,,0,23,23,31,1,,,,,,,,,,,,,,,,,,,,,,,
,,,,,WIN24_061,18,female,2024-02-15_12h28.09.526,jersey_experiment_5,2023.2.2,Win32,85.47008547,,,,,,,,,,,,,,,,957.9825,959.7824,959.7824,960.3941,return,0.2251,,37.109375,,,,,,FBP-OG-19.png,0.35,1.2,11,1,,,,,,,,,,,,,,,,,,0,24,24,10,1,,,,,,,,,,,,,,,,,,,,,,,
,,,,,WIN24_061,18,female,2024-02-15_12h28.09.526,jersey_experiment_5,2023.2.2,Win32,85.47008547,,,,,,,,,,,,,,,,960.3944,961.6882,961.6882,962.6177,return,0.0253,,89.58333333,,,,,,FBP-RB-81.png,0.43,1.2,24,0.5,,,,,,,,,,,,,,,,,,0,25,25,23,1,,,,,,,,,,,,,,,,,,,,,,,
,,,,,WIN24_061,18,female,2024-02-15_12h28.09.526,jersey_experiment_5,2023.2.2,Win32,85.47008547,,,,,,,,,,,,,,,,962.6178,963.9119,963.9119,964.5825,return,0.1345,,89.453125,,,,,,FBP-RB-71.png,0.37,1.2,17,0.5,,,,,,,,,,,,,,,,,,0,26,26,16,1,,,,,,,,,,,,,,,,,,,,,,,
,,,,,WIN24_061,18,female,2024-02-15_12h28.09.526,jersey_experiment_5,2023.2.2,Win32,85.47008547,,,,,,,,,,,,,,,,964.5827,966.3826,966.3826,967.7355,return,0.2648,,73.17708333,,,,,,FBP-PT-91.png,0.4,1.2,58,1,,,,,,,,,,,,,,,,,,0,27,27,57,1,,,,,,,,,,,,,,,,,,,,,,,
,,,,,WIN24_061,18,female,2024-02-15_12h28.09.526,jersey_experiment_5,2023.2.2,Win32,85.47008547,,,,,,,,,,,,,,,,967.7356,969.0297,969.0297,969.6298,return,0.0378,,74.73958333,,,,,,FBP-YG-18.png,0.4,1.2,38,0.5,,,,,,,,,,,,,,,,,,0,28,28,37,1,,,,,,,,,,,,,,,,,,,,,,,
,,,,,WIN24_061,18,female,2024-02-15_12h28.09.526,jersey_experiment_5,2023.2.2,Win32,85.47008547,,,,,,,,,,,,,,,,969.6299,971.4298,971.4298,972.2181,return,0.1804,,42.44791667,,,,,,FBP-OG-17.png,0.35,1.2,1,1,,,,,,,,,,,,,,,,,,0,29,29,0,1,,,,,,,,,,,,,,,,,,,,,,,
,,,,,WIN24_061,18,female,2024-02-15_12h28.09.526,jersey_experiment_5,2023.2.2,Win32,85.47008547,,,,,,,,,,,,,,,,972.2184,974.0183,974.0183,974.6182,return,0.0955,,34.63541667,,,,,,FBP-PT-71.png,0.35,1.2,46,1,,,,,,,,,,,,,,,,,,0,30,30,45,1,,,,,,,,,,,,,,,,,,,,,,,
,,,,,WIN24_061,18,female,2024-02-15_12h28.09.526,jersey_experiment_5,2023.2.2,Win32,85.47008547,,,,,,,,,,,,,,,,974.6184,975.9123,975.9124,977.1124,return,0.0407,,38.28125,,,,,,FBP-RB-71.png,0.35,1.2,16,0.5,,,,,,,,,,,,,,,,,,0,31,31,15,1,,,,,,,,,,,,,,,,,,,,,,,
,,,,,WIN24_061,18,female,2024-02-15_12h28.09.526,jersey_experiment_5,2023.2.2,Win32,85.47008547,,,,,,,,,,,,,,,,977.1126,978.9124,978.9124,981.43,return,0.196,,38.80208333,,,,,,FBP-PT-71.png,0.4,1.2,48,1,,,,,,,,,,,,,,,,,,0,32,32,47,1,,,,,,,,,,,,,,,,,,,,,,,
,,,,,WIN24_061,18,female,2024-02-15_12h28.09.526,jersey_experiment_5,2023.2.2,Win32,85.47008547,,,,,,,,,,,,,,,,981.4302,982.7243,982.7243,983.6538,return,0.0434,,88.28125,,,,,,FBP-RB-81.png,0.4,1.2,23,0.5,,,,,,,,,,,,,,,,,,0,33,33,22,1,,,,,,,,,,,,,,,,,,,,,,,
,,,,,WIN24_061,18,female,2024-02-15_12h28.09.526,jersey_experiment_5,2023.2.2,Win32,85.47008547,,,,,,,,,,,,,,,,983.654,985.4539,985.454,986.4304,return,0.038,,99.86979167,,,,,,FBP-OG-17.png,0.43,1.2,4,1,,,,,,,,,,,,,,,,,,0,34,34,3,1,,,,,,,,,,,,,,,,,,,,,,,
,,,,,WIN24_061,18,female,2024-02-15_12h28.09.526,jersey_experiment_5,2023.2.2,Win32,85.47008547,,,,,,,,,,,,,,,,986.4306,987.7246,987.7246,988.6304,return,0.0169,,75.52083333,,,,,,FBP-RB-71.png,0.4,1.2,18,0.5,,,,,,,,,,,,,,,,,,0,35,35,17,1,,,,,,,,,,,,,,,,,,,,,,,
,,,,,WIN24_061,18,female,2024-02-15_12h28.09.526,jersey_experiment_5,2023.2.2,Win32,85.47008547,,,,,,,,,,,,,,,,988.6307,990.4308,990.4308,991.3365,return,0.0528,,35.15625,,,,,,FBP-PT-71.png,0.37,1.2,47,1,,,,,,,,,,,,,,,,,,0,36,36,46,1,,,,,,,,,,,,,,,,,,,,,,,
,,,,,WIN24_061,18,female,2024-02-15_12h28.09.526,jersey_experiment_5,2023.2.2,Win32,85.47008547,,,,,,,,,,,,,,,,991.3367,992.6307,992.6307,993.7013,return,0.0437,,87.109375,,,,,,FBP-YG-19.png,0.45,1.2,45,0.5,,,,,,,,,,,,,,,,,,0,37,37,44,1,,,,,,,,,,,,,,,,,,,,,,,
,,,,,WIN24_061,18,female,2024-02-15_12h28.09.526,jersey_experiment_5,2023.2.2,Win32,85.47008547,,,,,,,,,,,,,,,,993.7015,995.5012,995.5012,995.9837,return,0.0709,,89.97395833,,,,,,FBP-PT-91.png,0.43,1.2,59,1,,,,,,,,,,,,,,,,,,0,38,38,58,1,,,,,,,,,,,,,,,,,,,,,,,
,,,,,WIN24_061,18,female,2024-02-15_12h28.09.526,jersey_experiment_5,2023.2.2,Win32,85.47008547,,,,,,,,,,,,,,,,995.9838,997.2779,997.2779,998.6308,return,0.0395,,74.34895833,,,,,,FBP-RB-91.png,0.37,1.2,27,0.5,,,,,,,,,,,,,,,,,,0,39,39,26,1,,,,,,,,,,,,,,,,,,,,,,,
,,,,,WIN24_061,18,female,2024-02-15_12h28.09.526,jersey_experiment_5,2023.2.2,Win32,85.47008547,,,,,,,,,,,,,,,,998.6309,1000.431,1000.431,1002.725,return,1.2419,,66.14583333,,,,,,FBP-PT-81.png,0.35,1.2,51,1,,,,,,,,,,,,,,,,,,0,40,40,50,1,,,,,,,,,,,,,,,,,,,,,,,
,,,,,WIN24_061,18,female,2024-02-15_12h28.09.526,jersey_experiment_5,2023.2.2,Win32,85.47008547,,,,,,,,,,,,,,,,1002.7252,1004.0193,1004.0193,1004.8781,return,0.0005,,97.39583333,,,,,,FBP-RB-91.png,0.43,1.2,29,0.5,,,,,,,,,,,,,,,,,,0,41,41,28,1,,,,,,,,,,,,,,,,,,,,,,,
,,,,,WIN24_061,18,female,2024-02-15_12h28.09.526,jersey_experiment_5,2023.2.2,Win32,85.47008547,,,,,,,,,,,,,,,,1004.8784,1006.6783,1006.6783,1007.737,return,0.0519,,99.34895833,,,,,,FBP-OG-19.png,0.43,1.2,14,1,,,,,,,,,,,,,,,,,,0,42,42,13,1,,,,,,,,,,,,,,,,,,,,,,,
,,,,,WIN24_061,18,female,2024-02-15_12h28.09.526,jersey_experiment_5,2023.2.2,Win32,85.47008547,,,,,,,,,,,,,,,,1007.7373,1009.0313,1009.0313,1010.1254,return,0.0241,,74.21875,,,,,,FBP-YG-19.png,0.37,1.2,42,0.5,,,,,,,,,,,,,,,,,,0,43,43,41,1,,,,,,,,,,,,,,,,,,,,,,,
,,,,,WIN24_061,18,female,2024-02-15_12h28.09.526,jersey_experiment_5,2023.2.2,Win32,85.47008547,,,,,,,,,,,,,,,,1010.1256,1011.9255,1011.9255,1012.6196,return,0.0614,,99.609375,,,,,,FBP-OG-19.png,0.45,1.2,15,1,,,,,,,,,,,,,,,,,,0,44,44,14,1,,,,,,,,,,,,,,,,,,,,,,,
,,,,,WIN24_061,18,female,2024-02-15_12h28.09.526,jersey_experiment_5,2023.2.2,Win32,85.47008547,,,,,,,,,,,,,,,,1012.6199,1013.9137,1013.9138,1014.5843,return,0.123,,99.609375,,,,,,FBP-YG-17.png,0.43,1.2,34,0.5,,,,,,,,,,,,,,,,,,0,45,45,33,1,,,,,,,,,,,,,,,,,,,,,,,
,,,,,WIN24_061,18,female,2024-02-15_12h28.09.526,jersey_experiment_5,2023.2.2,Win32,85.47008547,,,,,,,,,,,,,,,,1014.5846,1016.3845,1016.3845,1016.9491,return,0.1145,,99.609375,,,,,,FBP-PT-71.png,0.45,1.2,50,1,,,,,,,,,,,,,,,,,,0,46,46,49,1,,,,,,,,,,,,,,,,,,,,,,,
,,,,,WIN24_061,18,female,2024-02-15_12h28.09.526,jersey_experiment_5,2023.2.2,Win32,85.47008547,,,,,,,,,,,,,,,,1016.9493,1018.2433,1018.2433,1019.7492,return,0.1947,,73.95833333,,,,,,FBP-RB-81.png,0.35,1.2,21,0.5,,,,,,,,,,,,,,,,,,0,47,47,20,1,,,,,,,,,,,,,,,,,,,,,,,
,,,,,WIN24_061,18,female,2024-02-15_12h28.09.526,jersey_experiment_5,2023.2.2,Win32,85.47008547,,,,,,,,,,,,,,,,1019.7494,1021.0436,1021.0436,1022.0903,return,0.0834,,99.73958333,,,,,,FBP-YG-18.png,0.43,1.2,39,0.5,,,,,,,,,,,,,,,,,,0,48,48,38,1,,,,,,,,,,,,,,,,,,,,,,,
,,,,,WIN24_061,18,female,2024-02-15_12h28.09.526,jersey_experiment_5,2023.2.2,Win32,85.47008547,,,,,,,,,,,,,,,,1022.0905,1023.8906,1023.8906,1024.4905,return,0.154,,99.73958333,,,,,,FBP-PT-71.png,0.43,1.2,49,1,,,,,,,,,,,,,,,,,,0,49,49,48,1,,,,,,,,,,,,,,,,,,,,,,,
,,,,,WIN24_061,18,female,2024-02-15_12h28.09.526,jersey_experiment_5,2023.2.2,Win32,85.47008547,,,,,,,,,,,,,,,,1024.4907,1026.2907,1026.2907,1026.9378,return,0.1312,,99.73958333,,,,,,FBP-OG-18.png,0.43,1.2,9,1,,,,,,,,,,,,,,,,,,0,50,50,8,1,,,,,,,,,,,,,,,,,,,,,,,
,,,,,WIN24_061,18,female,2024-02-15_12h28.09.526,jersey_experiment_5,2023.2.2,Win32,85.47008547,,,,,,,,,,,,,,,,1026.9379,1028.2319,1028.2319,1029.3025,return,0.4192,,99.73958333,,,,,,FBP-RB-91.png,0.45,1.2,30,0.5,,,,,,,,,,,,,,,,,,0,51,51,29,1,,,,,,,,,,,,,,,,,,,,,,,
,,,,,WIN24_061,18,female,2024-02-15_12h28.09.526,jersey_experiment_5,2023.2.2,Win32,85.47008547,,,,,,,,,,,,,,,,1029.3029,1031.1026,1031.1026,1031.9732,return,0.0789,,41.14583333,,,,,,FBP-PT-81.png,0.37,1.2,52,1,,,,,,,,,,,,,,,,,,0,52,52,51,1,,,,,,,,,,,,,,,,,,,,,,,
,,,,,WIN24_061,18,female,2024-02-15_12h28.09.526,jersey_experiment_5,2023.2.2,Win32,85.47008547,,,,,,,,,,,,,,,,1031.9734,1033.2674,1033.2674,1034.7028,return,0.1179,,98.56770833,,,,,,FBP-YG-18.png,0.45,1.2,40,0.5,,,,,,,,,,,,,,,,,,0,53,53,39,1,,,,,,,,,,,,,,,,,,,,,,,
,,,,,WIN24_061,18,female,2024-02-15_12h28.09.526,jersey_experiment_5,2023.2.2,Win32,85.47008547,,,,,,,,,,,,,,,,1034.703,1036.503,1036.503,1037.2557,return,0.0509,,37.76041667,,,,,,FBP-OG-18.png,0.37,1.2,7,1,,,,,,,,,,,,,,,,,,0,54,54,6,1,,,,,,,,,,,,,,,,,,,,,,,
,,,,,WIN24_061,18,female,2024-02-15_12h28.09.526,jersey_experiment_5,2023.2.2,Win32,85.47008547,,,,,,,,,,,,,,,,1037.256,1038.5501,1038.5501,1040.0795,return,0.1794,,99.47916667,,,,,,FBP-YG-17.png,0.45,1.2,35,0.5,,,,,,,,,,,,,,,,,,0,55,55,34,1,,,,,,,,,,,,,,,,,,,,,,,
,,,,,WIN24_061,18,female,2024-02-15_12h28.09.526,jersey_experiment_5,2023.2.2,Win32,85.47008547,,,,,,,,,,,,,,,,1040.0797,1041.3736,1041.3736,1042.8205,return,0.0193,,41.92708333,,,,,,FBP-YG-18.png,0.37,1.2,37,0.5,,,,,,,,,,,,,,,,,,0,56,56,36,1,,,,,,,,,,,,,,,,,,,,,,,
,,,,,WIN24_061,18,female,2024-02-15_12h28.09.526,jersey_experiment_5,2023.2.2,Win32,85.47008547,,,,,,,,,,,,,,,,1042.8207,1044.1148,1044.1148,1045.5736,return,0.1117,,48.95833333,,,,,,FBP-YG-17.png,0.4,1.2,33,0.5,,,,,,,,,,,,,,,,,,0,57,57,32,1,,,,,,,,,,,,,,,,,,,,,,,
,,,,,WIN24_061,18,female,2024-02-15_12h28.09.526,jersey_experiment_5,2023.2.2,Win32,85.47008547,,,,,,,,,,,,,,,,1045.5738,1046.8679,1046.8679,1048.809,return,0.4399,,37.63020833,,,,,,FBP-RB-91.png,0.35,1.2,26,0.5,,,,,,,,,,,,,,,,,,0,58,58,25,1,,,,,,,,,,,,,,,,,,,,,,,
,,,,,WIN24_061,18,female,2024-02-15_12h28.09.526,jersey_experiment_5,2023.2.2,Win32,85.47008547,,,,,,,,,,,,,,,,1048.8093,1050.1034,1050.1034,1051.8326,return,0.4851,,90.75520833,,,,,,FBP-RB-71.png,0.43,1.2,19,0.5,,,,,,,,,,,,,,,,,,0,59,59,18,1,,,,,,,,,,,,,,,,,,,,,,,
,,,,,WIN24_061,18,female,2024-02-15_12h28.09.526,jersey_experiment_5,2023.2.2,Win32,85.47008547,,,,,,,,,,,,,,,,,,,,,,,,,,,,,,,,,,,,,,,,,,,,,,,,,,,,,,,,1051.833,1058.3744,return,6.5346,,,,,,,,,,,,,,,,,,,
,,,,,WIN24_061,18,female,2024-02-15_12h28.09.526,jersey_experiment_5,2023.2.2,Win32,85.47008547,,,,,,,,,,,,,,,,,,,,,,,,,,,,,,,,,,,,,,,,,,,,,,,,,,,,,,,,,,,,,1058.3745,1063.1509,1,4.2417,return,0.517,,,,,,,,,,,,
,,,,,WIN24_061,18,female,2024-02-15_12h28.09.526,jersey_experiment_5,2023.2.2,Win32,85.47008547,,,,,,,,,,,,,,,,,,,,,,,,,,,,,,,,,,,,,,,,,,,,,,,,,,,,,,,,,,,,,,,,,,,,1063.1511,1070.8223,no,right,3.2548,,,,,,
,,,,,WIN24_061,18,female,2024-02-15_12h28.09.526,jersey_experiment_5,2023.2.2,Win32,85.47008547,,,,,,,,,,,,,,,,,,,,,,,,,,,,,,,,,,,,,,,,,,,,,,,,,,,,,,,,,,,,,,,,,,,,,,,,,,1070.8223,1088.7636,return,17.93,