requirements.started,requirements.stopped,key_resp_3.keys,key_resp_3.rt,key_resp_3.duration,Subject ID,Age,Gender,date,expName,psychopyVersion,OS,frameRate,instructions1.started,instructions1.stopped,key_resp.keys,key_resp.rt,key_resp.duration,example.started,example.stopped,enter_2.keys,enter_2.rt,enter_2.duration,instructions2.started,instructions2.stopped,enter_3.keys,enter_3.rt,enter_3.duration,image.started,image.stopped,slider_2.started,slider_2.stopped,next.keys,next.rt,next.duration,slider.response,trial_block_1.thisRepN,trial_block_1.thisTrialN,trial_block_1.thisN,trial_block_1.thisIndex,trial_block_1.ran,Path,Width,Height,Index,Duration,trial_block_2.thisRepN,trial_block_2.thisTrialN,trial_block_2.thisN,trial_block_2.thisIndex,trial_block_2.ran,rest_break.started,rest_break.stopped,end_break.started,end_break.stopped,key_resp_5.keys,key_resp_5.rt,key_resp_5.duration,trial_block_3.thisRepN,trial_block_3.thisTrialN,trial_block_3.thisN,trial_block_3.thisIndex,trial_block_3.ran,trial_block_4.thisRepN,trial_block_4.thisTrialN,trial_block_4.thisN,trial_block_4.thisIndex,trial_block_4.ran,questions_intro.started,questions_intro.stopped,enter_12.keys,enter_12.rt,enter_12.duration,question2.started,question2.stopped,question_doingbest.response,question_doingbest.rt,enter_15.keys,enter_15.rt,enter_15.duration,pattern.started,pattern.stopped,pattern_2.text,enter_17.keys,enter_17.rt,enter_17.duration,thankyou.started,thankyou.stopped,enter_14.keys,enter_14.rt,enter_14.duration
1E-04,19.0001,return,18.9933,,WIN24_055,21,Male,2024-02-12_13h31.07.950,jersey_experiment_5,2023.2.2,Win32,85.47008547,,,,,,,,,,,,,,,,,,,,,,,,,,,,,,,,,,,,,,,,,,,,,,,,,,,,,,,,,,,,,,,,,,,,,,,,,,,,,,
,,,,,WIN24_055,21,Male,2024-02-12_13h31.07.950,jersey_experiment_5,2023.2.2,Win32,85.47008547,19.0002,26.6005,return,7.59,,,,,,,,,,,,,,,,,,,,,,,,,,,,,,,,,,,,,,,,,,,,,,,,,,,,,,,,,,,,,,,,,,,,,,,,,,
,,,,,WIN24_055,21,Male,2024-02-12_13h31.07.950,jersey_experiment_5,2023.2.2,Win32,85.47008547,,,,,,26.6006,31.9769,return,5.3408,,,,,,,,,,,,,,,,,,,,,,,,,,,,,,,,,,,,,,,,,,,,,,,,,,,,,,,,,,,,,,,,,,,,,
,,,,,WIN24_055,21,Male,2024-02-12_13h31.07.950,jersey_experiment_5,2023.2.2,Win32,85.47008547,,,,,,,,,,,31.977,56.9661,return,24.9755,,,,,,,,,,,,,,,,,,,,,,,,,,,,,,,,,,,,,,,,,,,,,,,,,,,,,,,,,,,,,,,,
,,,,,WIN24_055,21,Male,2024-02-12_13h31.07.950,jersey_experiment_5,2023.2.2,Win32,85.47008547,,,,,,,,,,,,,,,,56.9736,58.7662,58.7662,86.3203,return,7.0877,,29.81770833,0,0,0,25,1,FBP-RB-19.png,0.35,1.2,26,1,,,,,,,,,,,,,,,,,,,,,,,,,,,,,,,,,,,,,,,,,,,,,
,,,,,WIN24_055,21,Male,2024-02-12_13h31.07.950,jersey_experiment_5,2023.2.2,Win32,85.47008547,,,,,,,,,,,,,,,,86.3206,87.614,87.6141,92.6379,return,1.1859,,75.13020833,0,1,1,4,1,FBP-OG-71.png,0.45,1.2,5,0.5,,,,,,,,,,,,,,,,,,,,,,,,,,,,,,,,,,,,,,,,,,,,,
,,,,,WIN24_055,21,Male,2024-02-12_13h31.07.950,jersey_experiment_5,2023.2.2,Win32,85.47008547,,,,,,,,,,,,,,,,92.6381,93.9319,93.932,96.6732,return,1.2274,,81.25,0,2,2,8,1,FBP-OG-81.png,0.43,1.2,9,0.5,,,,,,,,,,,,,,,,,,,,,,,,,,,,,,,,,,,,,,,,,,,,,
,,,,,WIN24_055,21,Male,2024-02-12_13h31.07.950,jersey_experiment_5,2023.2.2,Win32,85.47008547,,,,,,,,,,,,,,,,96.6733,97.9674,97.9674,102.4852,return,0.9554,,75.390625,0,3,3,58,1,FBP-PT-19.png,0.43,1.2,59,0.5,,,,,,,,,,,,,,,,,,,,,,,,,,,,,,,,,,,,,,,,,,,,,
,,,,,WIN24_055,21,Male,2024-02-12_13h31.07.950,jersey_experiment_5,2023.2.2,Win32,85.47008547,,,,,,,,,,,,,,,,102.4854,104.2852,104.2852,109.8972,return,0.5884,,24.73958333,0,4,4,31,1,FBP-YG-71.png,0.37,1.2,32,1,,,,,,,,,,,,,,,,,,,,,,,,,,,,,,,,,,,,,,,,,,,,,
,,,,,WIN24_055,21,Male,2024-02-12_13h31.07.950,jersey_experiment_5,2023.2.2,Win32,85.47008547,,,,,,,,,,,,,,,,109.8975,111.6973,111.6973,115.5918,return,0.4621,,25,0,5,5,36,1,FBP-YG-81.png,0.37,1.2,37,1,,,,,,,,,,,,,,,,,,,,,,,,,,,,,,,,,,,,,,,,,,,,,
,,,,,WIN24_055,21,Male,2024-02-12_13h31.07.950,jersey_experiment_5,2023.2.2,Win32,85.47008547,,,,,,,,,,,,,,,,115.5921,116.8857,116.8857,119.1917,return,0.5795,,75.26041667,0,6,6,9,1,FBP-OG-81.png,0.45,1.2,10,0.5,,,,,,,,,,,,,,,,,,,,,,,,,,,,,,,,,,,,,,,,,,,,,
,,,,,WIN24_055,21,Male,2024-02-12_13h31.07.950,jersey_experiment_5,2023.2.2,Win32,85.47008547,,,,,,,,,,,,,,,,119.1918,120.9916,120.9916,122.8035,return,0.333,,75.13020833,0,7,7,34,1,FBP-YG-71.png,0.45,1.2,35,1,,,,,,,,,,,,,,,,,,,,,,,,,,,,,,,,,,,,,,,,,,,,,
,,,,,WIN24_055,21,Male,2024-02-12_13h31.07.950,jersey_experiment_5,2023.2.2,Win32,85.47008547,,,,,,,,,,,,,,,,122.8037,124.6035,124.6036,125.9684,return,0.3578,,74.86979167,0,8,8,18,1,FBP-RB-17.png,0.43,1.2,19,1,,,,,,,,,,,,,,,,,,,,,,,,,,,,,,,,,,,,,,,,,,,,,
,,,,,WIN24_055,21,Male,2024-02-12_13h31.07.950,jersey_experiment_5,2023.2.2,Win32,85.47008547,,,,,,,,,,,,,,,,125.9686,127.7684,127.7684,134.7101,return,0.3873,,49.86979167,0,9,9,22,1,FBP-RB-18.png,0.4,1.2,23,1,,,,,,,,,,,,,,,,,,,,,,,,,,,,,,,,,,,,,,,,,,,,,
,,,,,WIN24_055,21,Male,2024-02-12_13h31.07.950,jersey_experiment_5,2023.2.2,Win32,85.47008547,,,,,,,,,,,,,,,,134.7103,136.004,136.004,138.0512,return,0.3191,,25.26041667,0,10,10,51,1,FBP-PT-18.png,0.37,1.2,52,0.5,,,,,,,,,,,,,,,,,,,,,,,,,,,,,,,,,,,,,,,,,,,,,
,,,,,WIN24_055,21,Male,2024-02-12_13h31.07.950,jersey_experiment_5,2023.2.2,Win32,85.47008547,,,,,,,,,,,,,,,,138.0514,139.8513,139.8513,142.0396,return,0.5647,,24.609375,0,11,11,26,1,FBP-RB-19.png,0.37,1.2,27,1,,,,,,,,,,,,,,,,,,,,,,,,,,,,,,,,,,,,,,,,,,,,,
,,,,,WIN24_055,21,Male,2024-02-12_13h31.07.950,jersey_experiment_5,2023.2.2,Win32,85.47008547,,,,,,,,,,,,,,,,142.0399,143.8398,143.8398,145.9692,return,0.3233,,25,0,12,12,16,1,FBP-RB-17.png,0.37,1.2,17,1,,,,,,,,,,,,,,,,,,,,,,,,,,,,,,,,,,,,,,,,,,,,,
,,,,,WIN24_055,21,Male,2024-02-12_13h31.07.950,jersey_experiment_5,2023.2.2,Win32,85.47008547,,,,,,,,,,,,,,,,145.9693,147.769,147.769,150.2398,return,0.4399,,25.13020833,0,13,13,40,1,FBP-YG-91.png,0.35,1.2,41,1,,,,,,,,,,,,,,,,,,,,,,,,,,,,,,,,,,,,,,,,,,,,,
,,,,,WIN24_055,21,Male,2024-02-12_13h31.07.950,jersey_experiment_5,2023.2.2,Win32,85.47008547,,,,,,,,,,,,,,,,150.2401,152.04,152.04,153.8636,return,0.3535,,74.609375,0,14,14,33,1,FBP-YG-71.png,0.43,1.2,34,1,,,,,,,,,,,,,,,,,,,,,,,,,,,,,,,,,,,,,,,,,,,,,
,,,,,WIN24_055,21,Male,2024-02-12_13h31.07.950,jersey_experiment_5,2023.2.2,Win32,85.47008547,,,,,,,,,,,,,,,,153.8637,155.1576,155.1576,156.7695,return,0.4502,,25.13020833,0,15,15,10,1,FBP-OG-91.png,0.35,1.2,11,0.5,,,,,,,,,,,,,,,,,,,,,,,,,,,,,,,,,,,,,,,,,,,,,
,,,,,WIN24_055,21,Male,2024-02-12_13h31.07.950,jersey_experiment_5,2023.2.2,Win32,85.47008547,,,,,,,,,,,,,,,,156.7697,158.0637,158.0637,159.8166,return,0.2354,,74.73958333,0,16,16,3,1,FBP-OG-71.png,0.43,1.2,4,0.5,,,,,,,,,,,,,,,,,,,,,,,,,,,,,,,,,,,,,,,,,,,,,
,,,,,WIN24_055,21,Male,2024-02-12_13h31.07.950,jersey_experiment_5,2023.2.2,Win32,85.47008547,,,,,,,,,,,,,,,,159.8169,161.1108,161.1108,161.6637,return,0.1601,,74.73958333,0,17,17,54,1,FBP-PT-18.png,0.45,1.2,55,0.5,,,,,,,,,,,,,,,,,,,,,,,,,,,,,,,,,,,,,,,,,,,,,
,,,,,WIN24_055,21,Male,2024-02-12_13h31.07.950,jersey_experiment_5,2023.2.2,Win32,85.47008547,,,,,,,,,,,,,,,,161.664,163.4638,163.4638,165.1343,return,0.936,,74.73958333,0,18,18,29,1,FBP-RB-19.png,0.45,1.2,30,1,,,,,,,,,,,,,,,,,,,,,,,,,,,,,,,,,,,,,,,,,,,,,
,,,,,WIN24_055,21,Male,2024-02-12_13h31.07.950,jersey_experiment_5,2023.2.2,Win32,85.47008547,,,,,,,,,,,,,,,,165.1345,166.4287,166.4287,168.7938,return,0.6737,,24.609375,0,19,19,45,1,FBP-PT-17.png,0.35,1.2,46,0.5,,,,,,,,,,,,,,,,,,,,,,,,,,,,,,,,,,,,,,,,,,,,,
,,,,,WIN24_055,21,Male,2024-02-12_13h31.07.950,jersey_experiment_5,2023.2.2,Win32,85.47008547,,,,,,,,,,,,,,,,168.794,170.0876,170.0876,171.7112,return,0.3351,,49.73958333,0,20,20,1,1,FBP-OG-71.png,0.37,1.2,2,0.5,,,,,,,,,,,,,,,,,,,,,,,,,,,,,,,,,,,,,,,,,,,,,
,,,,,WIN24_055,21,Male,2024-02-12_13h31.07.950,jersey_experiment_5,2023.2.2,Win32,85.47008547,,,,,,,,,,,,,,,,171.7115,173.5115,173.5115,174.8172,return,0.2527,,49.73958333,0,21,21,21,1,FBP-RB-18.png,0.37,1.2,22,1,,,,,,,,,,,,,,,,,,,,,,,,,,,,,,,,,,,,,,,,,,,,,
,,,,,WIN24_055,21,Male,2024-02-12_13h31.07.950,jersey_experiment_5,2023.2.2,Win32,85.47008547,,,,,,,,,,,,,,,,174.8175,176.1113,176.1113,177.5819,return,0.3854,,74.86979167,0,22,22,49,1,FBP-PT-17.png,0.45,1.2,50,0.5,,,,,,,,,,,,,,,,,,,,,,,,,,,,,,,,,,,,,,,,,,,,,
,,,,,WIN24_055,21,Male,2024-02-12_13h31.07.950,jersey_experiment_5,2023.2.2,Win32,85.47008547,,,,,,,,,,,,,,,,177.582,178.8763,178.8763,180.3115,return,0.4327,,75,0,23,23,52,1,FBP-PT-18.png,0.4,1.2,53,0.5,,,,,,,,,,,,,,,,,,,,,,,,,,,,,,,,,,,,,,,,,,,,,
,,,,,WIN24_055,21,Male,2024-02-12_13h31.07.950,jersey_experiment_5,2023.2.2,Win32,85.47008547,,,,,,,,,,,,,,,,180.3117,182.1116,182.1116,183.4648,return,0.283,,75.26041667,0,24,24,17,1,FBP-RB-17.png,0.4,1.2,18,1,,,,,,,,,,,,,,,,,,,,,,,,,,,,,,,,,,,,,,,,,,,,,
,,,,,WIN24_055,21,Male,2024-02-12_13h31.07.950,jersey_experiment_5,2023.2.2,Win32,85.47008547,,,,,,,,,,,,,,,,183.4649,184.7588,184.7588,186.0648,return,0.2399,,50,0,25,25,11,1,FBP-OG-91.png,0.37,1.2,12,0.5,,,,,,,,,,,,,,,,,,,,,,,,,,,,,,,,,,,,,,,,,,,,,
,,,,,WIN24_055,21,Male,2024-02-12_13h31.07.950,jersey_experiment_5,2023.2.2,Win32,85.47008547,,,,,,,,,,,,,,,,186.0651,187.3589,187.3589,188.5944,return,0.2966,,49.73958333,0,26,26,56,1,FBP-PT-19.png,0.37,1.2,57,0.5,,,,,,,,,,,,,,,,,,,,,,,,,,,,,,,,,,,,,,,,,,,,,
,,,,,WIN24_055,21,Male,2024-02-12_13h31.07.950,jersey_experiment_5,2023.2.2,Win32,85.47008547,,,,,,,,,,,,,,,,188.5946,189.8882,189.8883,192.3826,return,0.2906,,24.86979167,0,27,27,50,1,FBP-PT-18.png,0.35,1.2,51,0.5,,,,,,,,,,,,,,,,,,,,,,,,,,,,,,,,,,,,,,,,,,,,,
,,,,,WIN24_055,21,Male,2024-02-12_13h31.07.950,jersey_experiment_5,2023.2.2,Win32,85.47008547,,,,,,,,,,,,,,,,192.3828,194.1828,194.1828,195.3943,return,0.2022,,75.26041667,0,28,28,44,1,FBP-YG-91.png,0.45,1.2,45,1,,,,,,,,,,,,,,,,,,,,,,,,,,,,,,,,,,,,,,,,,,,,,
,,,,,WIN24_055,21,Male,2024-02-12_13h31.07.950,jersey_experiment_5,2023.2.2,Win32,85.47008547,,,,,,,,,,,,,,,,195.3945,197.1947,197.1947,198.7239,return,0.4477,,74.73958333,0,29,29,23,1,FBP-RB-18.png,0.43,1.2,24,1,,,,,,,,,,,,,,,,,,,,,,,,,,,,,,,,,,,,,,,,,,,,,
,,,,,WIN24_055,21,Male,2024-02-12_13h31.07.950,jersey_experiment_5,2023.2.2,Win32,85.47008547,,,,,,,,,,,,,,,,198.7242,200.0181,200.0182,201.9241,return,0.7069,,74.609375,0,30,30,13,1,FBP-OG-91.png,0.43,1.2,14,0.5,,,,,,,,,,,,,,,,,,,,,,,,,,,,,,,,,,,,,,,,,,,,,
,,,,,WIN24_055,21,Male,2024-02-12_13h31.07.950,jersey_experiment_5,2023.2.2,Win32,85.47008547,,,,,,,,,,,,,,,,201.9243,203.7241,203.7241,205.4301,return,0.6583,,75.13020833,0,31,31,43,1,FBP-YG-91.png,0.43,1.2,44,1,,,,,,,,,,,,,,,,,,,,,,,,,,,,,,,,,,,,,,,,,,,,,
,,,,,WIN24_055,21,Male,2024-02-12_13h31.07.950,jersey_experiment_5,2023.2.2,Win32,85.47008547,,,,,,,,,,,,,,,,205.4304,206.7242,206.7242,208.6775,return,0.273,,80.46875,0,32,32,48,1,FBP-PT-17.png,0.43,1.2,49,0.5,,,,,,,,,,,,,,,,,,,,,,,,,,,,,,,,,,,,,,,,,,,,,
,,,,,WIN24_055,21,Male,2024-02-12_13h31.07.950,jersey_experiment_5,2023.2.2,Win32,85.47008547,,,,,,,,,,,,,,,,208.6777,209.9714,209.9715,211.5832,return,0.2054,,74.73958333,0,33,33,12,1,FBP-OG-91.png,0.4,1.2,13,0.5,,,,,,,,,,,,,,,,,,,,,,,,,,,,,,,,,,,,,,,,,,,,,
,,,,,WIN24_055,21,Male,2024-02-12_13h31.07.950,jersey_experiment_5,2023.2.2,Win32,85.47008547,,,,,,,,,,,,,,,,211.5834,213.3833,213.3834,216.7365,return,0.2416,,24.86979167,0,34,34,15,1,FBP-RB-17.png,0.35,1.2,16,1,,,,,,,,,,,,,,,,,,,,,,,,,,,,,,,,,,,,,,,,,,,,,
,,,,,WIN24_055,21,Male,2024-02-12_13h31.07.950,jersey_experiment_5,2023.2.2,Win32,85.47008547,,,,,,,,,,,,,,,,216.7367,218.5364,218.5364,219.7953,return,0.1444,,75,0,35,35,24,1,FBP-RB-18.png,0.45,1.2,25,1,,,,,,,,,,,,,,,,,,,,,,,,,,,,,,,,,,,,,,,,,,,,,
,,,,,WIN24_055,21,Male,2024-02-12_13h31.07.950,jersey_experiment_5,2023.2.2,Win32,85.47008547,,,,,,,,,,,,,,,,219.7955,221.0895,221.0895,222.6073,return,0.3725,,24.609375,0,36,36,0,1,FBP-OG-71.png,0.35,1.2,1,0.5,,,,,,,,,,,,,,,,,,,,,,,,,,,,,,,,,,,,,,,,,,,,,
,,,,,WIN24_055,21,Male,2024-02-12_13h31.07.950,jersey_experiment_5,2023.2.2,Win32,85.47008547,,,,,,,,,,,,,,,,222.6075,223.9014,223.9014,228.1369,return,1.8129,,50,0,37,37,2,1,FBP-OG-71.png,0.4,1.2,3,0.5,,,,,,,,,,,,,,,,,,,,,,,,,,,,,,,,,,,,,,,,,,,,,
,,,,,WIN24_055,21,Male,2024-02-12_13h31.07.950,jersey_experiment_5,2023.2.2,Win32,85.47008547,,,,,,,,,,,,,,,,228.1371,229.9368,229.9368,231.6663,return,0.2045,,50,0,38,38,27,1,FBP-RB-19.png,0.4,1.2,28,1,,,,,,,,,,,,,,,,,,,,,,,,,,,,,,,,,,,,,,,,,,,,,
,,,,,WIN24_055,21,Male,2024-02-12_13h31.07.950,jersey_experiment_5,2023.2.2,Win32,85.47008547,,,,,,,,,,,,,,,,231.6666,233.4664,233.4664,237.102,return,1.8418,,63.80208333,0,39,39,28,1,FBP-RB-19.png,0.43,1.2,29,1,,,,,,,,,,,,,,,,,,,,,,,,,,,,,,,,,,,,,,,,,,,,,
,,,,,WIN24_055,21,Male,2024-02-12_13h31.07.950,jersey_experiment_5,2023.2.2,Win32,85.47008547,,,,,,,,,,,,,,,,237.1023,238.3961,238.3961,240.1021,return,0.2596,,74.86979167,0,40,40,53,1,FBP-PT-18.png,0.43,1.2,54,0.5,,,,,,,,,,,,,,,,,,,,,,,,,,,,,,,,,,,,,,,,,,,,,
,,,,,WIN24_055,21,Male,2024-02-12_13h31.07.950,jersey_experiment_5,2023.2.2,Win32,85.47008547,,,,,,,,,,,,,,,,240.1023,241.902,241.902,244.2903,return,0.1791,,75.26041667,0,41,41,39,1,FBP-YG-81.png,0.45,1.2,40,1,,,,,,,,,,,,,,,,,,,,,,,,,,,,,,,,,,,,,,,,,,,,,
,,,,,WIN24_055,21,Male,2024-02-12_13h31.07.950,jersey_experiment_5,2023.2.2,Win32,85.47008547,,,,,,,,,,,,,,,,244.2905,245.5845,245.5845,248.1023,return,0.2125,,49.86979167,0,42,42,47,1,FBP-PT-17.png,0.4,1.2,48,0.5,,,,,,,,,,,,,,,,,,,,,,,,,,,,,,,,,,,,,,,,,,,,,
,,,,,WIN24_055,21,Male,2024-02-12_13h31.07.950,jersey_experiment_5,2023.2.2,Win32,85.47008547,,,,,,,,,,,,,,,,248.1024,249.9023,249.9023,251.9023,return,0.232,,74.86979167,0,43,43,19,1,FBP-RB-17.png,0.45,1.2,20,1,,,,,,,,,,,,,,,,,,,,,,,,,,,,,,,,,,,,,,,,,,,,,
,,,,,WIN24_055,21,Male,2024-02-12_13h31.07.950,jersey_experiment_5,2023.2.2,Win32,85.47008547,,,,,,,,,,,,,,,,251.9025,253.7025,253.7025,255.1614,return,0.2688,,25,0,44,44,30,1,FBP-YG-71.png,0.35,1.2,31,1,,,,,,,,,,,,,,,,,,,,,,,,,,,,,,,,,,,,,,,,,,,,,
,,,,,WIN24_055,21,Male,2024-02-12_13h31.07.950,jersey_experiment_5,2023.2.2,Win32,85.47008547,,,,,,,,,,,,,,,,255.1616,256.4554,256.4554,258.5144,return,0.2046,,49.73958333,0,45,45,7,1,FBP-OG-81.png,0.4,1.2,8,0.5,,,,,,,,,,,,,,,,,,,,,,,,,,,,,,,,,,,,,,,,,,,,,
,,,,,WIN24_055,21,Male,2024-02-12_13h31.07.950,jersey_experiment_5,2023.2.2,Win32,85.47008547,,,,,,,,,,,,,,,,258.5146,260.3144,260.3144,264.4679,return,0.1892,,49.86979167,0,46,46,37,1,FBP-YG-81.png,0.4,1.2,38,1,,,,,,,,,,,,,,,,,,,,,,,,,,,,,,,,,,,,,,,,,,,,,
,,,,,WIN24_055,21,Male,2024-02-12_13h31.07.950,jersey_experiment_5,2023.2.2,Win32,85.47008547,,,,,,,,,,,,,,,,264.4681,265.7615,265.7616,268.2327,return,0.8613,,75.13020833,0,47,47,59,1,FBP-PT-19.png,0.45,1.2,60,0.5,,,,,,,,,,,,,,,,,,,,,,,,,,,,,,,,,,,,,,,,,,,,,
,,,,,WIN24_055,21,Male,2024-02-12_13h31.07.950,jersey_experiment_5,2023.2.2,Win32,85.47008547,,,,,,,,,,,,,,,,268.2328,269.5267,269.5267,271.715,return,0.2507,,25,0,48,48,46,1,FBP-PT-17.png,0.37,1.2,47,0.5,,,,,,,,,,,,,,,,,,,,,,,,,,,,,,,,,,,,,,,,,,,,,
,,,,,WIN24_055,21,Male,2024-02-12_13h31.07.950,jersey_experiment_5,2023.2.2,Win32,85.47008547,,,,,,,,,,,,,,,,271.7152,273.5148,273.5148,275.7503,return,0.2454,,49.86979167,0,49,49,38,1,FBP-YG-81.png,0.43,1.2,39,1,,,,,,,,,,,,,,,,,,,,,,,,,,,,,,,,,,,,,,,,,,,,,
,,,,,WIN24_055,21,Male,2024-02-12_13h31.07.950,jersey_experiment_5,2023.2.2,Win32,85.47008547,,,,,,,,,,,,,,,,275.7505,277.5504,277.5504,278.6093,return,0.1921,,50,0,50,50,32,1,FBP-YG-71.png,0.4,1.2,33,1,,,,,,,,,,,,,,,,,,,,,,,,,,,,,,,,,,,,,,,,,,,,,
,,,,,WIN24_055,21,Male,2024-02-12_13h31.07.950,jersey_experiment_5,2023.2.2,Win32,85.47008547,,,,,,,,,,,,,,,,278.6095,279.9034,279.9034,281.5504,return,0.2792,,25,0,51,51,55,1,FBP-PT-19.png,0.35,1.2,56,0.5,,,,,,,,,,,,,,,,,,,,,,,,,,,,,,,,,,,,,,,,,,,,,
,,,,,WIN24_055,21,Male,2024-02-12_13h31.07.950,jersey_experiment_5,2023.2.2,Win32,85.47008547,,,,,,,,,,,,,,,,281.5507,282.8447,282.8447,283.8919,return,0.2242,,25.52083333,0,52,52,6,1,FBP-OG-81.png,0.37,1.2,7,0.5,,,,,,,,,,,,,,,,,,,,,,,,,,,,,,,,,,,,,,,,,,,,,
,,,,,WIN24_055,21,Male,2024-02-12_13h31.07.950,jersey_experiment_5,2023.2.2,Win32,85.47008547,,,,,,,,,,,,,,,,283.8921,285.1859,285.186,286.5271,return,0.3231,,25,0,53,53,57,1,FBP-PT-19.png,0.4,1.2,58,0.5,,,,,,,,,,,,,,,,,,,,,,,,,,,,,,,,,,,,,,,,,,,,,
,,,,,WIN24_055,21,Male,2024-02-12_13h31.07.950,jersey_experiment_5,2023.2.2,Win32,85.47008547,,,,,,,,,,,,,,,,286.5273,288.3272,288.3272,289.3978,return,0.1512,,49.73958333,0,54,54,42,1,FBP-YG-91.png,0.4,1.2,43,1,,,,,,,,,,,,,,,,,,,,,,,,,,,,,,,,,,,,,,,,,,,,,
,,,,,WIN24_055,21,Male,2024-02-12_13h31.07.950,jersey_experiment_5,2023.2.2,Win32,85.47008547,,,,,,,,,,,,,,,,289.398,290.692,290.692,292.6099,return,0.299,,75,0,55,55,14,1,FBP-OG-91.png,0.45,1.2,15,0.5,,,,,,,,,,,,,,,,,,,,,,,,,,,,,,,,,,,,,,,,,,,,,
,,,,,WIN24_055,21,Male,2024-02-12_13h31.07.950,jersey_experiment_5,2023.2.2,Win32,85.47008547,,,,,,,,,,,,,,,,292.6102,294.4099,294.41,295.9747,return,0.2365,,24.73958333,0,56,56,35,1,FBP-YG-81.png,0.35,1.2,36,1,,,,,,,,,,,,,,,,,,,,,,,,,,,,,,,,,,,,,,,,,,,,,
,,,,,WIN24_055,21,Male,2024-02-12_13h31.07.950,jersey_experiment_5,2023.2.2,Win32,85.47008547,,,,,,,,,,,,,,,,295.975,297.2687,297.2688,298.9983,return,0.1983,,24.609375,0,57,57,5,1,FBP-OG-81.png,0.35,1.2,6,0.5,,,,,,,,,,,,,,,,,,,,,,,,,,,,,,,,,,,,,,,,,,,,,
,,,,,WIN24_055,21,Male,2024-02-12_13h31.07.950,jersey_experiment_5,2023.2.2,Win32,85.47008547,,,,,,,,,,,,,,,,298.9985,300.7982,300.7983,301.9513,return,0.1934,,25,0,58,58,20,1,FBP-RB-18.png,0.35,1.2,21,1,,,,,,,,,,,,,,,,,,,,,,,,,,,,,,,,,,,,,,,,,,,,,
,,,,,WIN24_055,21,Male,2024-02-12_13h31.07.950,jersey_experiment_5,2023.2.2,Win32,85.47008547,,,,,,,,,,,,,,,,301.9515,303.7512,303.7512,305.7161,return,0.1552,,49.609375,0,59,59,41,1,FBP-YG-91.png,0.37,1.2,42,1,,,,,,,,,,,,,,,,,,,,,,,,,,,,,,,,,,,,,,,,,,,,,
,,,,,WIN24_055,21,Male,2024-02-12_13h31.07.950,jersey_experiment_5,2023.2.2,Win32,85.47008547,,,,,,,,,,,,,,,,305.7182,307.516,307.516,308.5515,return,0.2219,,49.609375,,,,,,FBP-YG-17.png,0.37,1.2,32,1,0,0,0,31,1,,,,,,,,,,,,,,,,,,,,,,,,,,,,,,,,,,,,,,,,
,,,,,WIN24_055,21,Male,2024-02-12_13h31.07.950,jersey_experiment_5,2023.2.2,Win32,85.47008547,,,,,,,,,,,,,,,,308.5519,310.3515,310.3516,311.7988,return,0.2358,,74.86979167,,,,,,FBP-RB-71.png,0.45,1.2,20,1,0,1,1,19,1,,,,,,,,,,,,,,,,,,,,,,,,,,,,,,,,,,,,,,,,
,,,,,WIN24_055,21,Male,2024-02-12_13h31.07.950,jersey_experiment_5,2023.2.2,Win32,85.47008547,,,,,,,,,,,,,,,,311.799,313.0927,313.0928,314.3048,return,0.1355,,49.86979167,,,,,,FBP-OG-18.png,0.37,1.2,7,0.5,0,2,2,6,1,,,,,,,,,,,,,,,,,,,,,,,,,,,,,,,,,,,,,,,,
,,,,,WIN24_055,21,Male,2024-02-12_13h31.07.950,jersey_experiment_5,2023.2.2,Win32,85.47008547,,,,,,,,,,,,,,,,314.305,315.5988,315.5988,316.6458,return,0.1512,,49.86979167,,,,,,FBP-PT-91.png,0.37,1.2,57,0.5,0,3,3,56,1,,,,,,,,,,,,,,,,,,,,,,,,,,,,,,,,,,,,,,,,
,,,,,WIN24_055,21,Male,2024-02-12_13h31.07.950,jersey_experiment_5,2023.2.2,Win32,85.47008547,,,,,,,,,,,,,,,,316.646,317.94,317.94,318.9047,return,0.0559,,49.86979167,,,,,,FBP-PT-81.png,0.35,1.2,51,0.5,0,4,4,50,1,,,,,,,,,,,,,,,,,,,,,,,,,,,,,,,,,,,,,,,,
,,,,,WIN24_055,21,Male,2024-02-12_13h31.07.950,jersey_experiment_5,2023.2.2,Win32,85.47008547,,,,,,,,,,,,,,,,318.9049,320.1989,320.1989,321.3168,return,0.1414,,74.73958333,,,,,,FBP-PT-91.png,0.45,1.2,60,0.5,0,5,5,59,1,,,,,,,,,,,,,,,,,,,,,,,,,,,,,,,,,,,,,,,,
,,,,,WIN24_055,21,Male,2024-02-12_13h31.07.950,jersey_experiment_5,2023.2.2,Win32,85.47008547,,,,,,,,,,,,,,,,321.3171,323.1168,323.1168,324.1284,return,0.2045,,24.86979167,,,,,,FBP-YG-17.png,0.35,1.2,31,1,0,6,6,30,1,,,,,,,,,,,,,,,,,,,,,,,,,,,,,,,,,,,,,,,,
,,,,,WIN24_055,21,Male,2024-02-12_13h31.07.950,jersey_experiment_5,2023.2.2,Win32,85.47008547,,,,,,,,,,,,,,,,324.1287,325.9286,325.9286,327.3172,return,0.2033,,55.59895833,,,,,,FBP-YG-18.png,0.4,1.2,38,1,0,7,7,37,1,,,,,,,,,,,,,,,,,,,,,,,,,,,,,,,,,,,,,,,,
,,,,,WIN24_055,21,Male,2024-02-12_13h31.07.950,jersey_experiment_5,2023.2.2,Win32,85.47008547,,,,,,,,,,,,,,,,327.3174,329.1168,329.1168,330.0228,return,0.1081,,49.86979167,,,,,,FBP-RB-81.png,0.37,1.2,22,1,0,8,8,21,1,,,,,,,,,,,,,,,,,,,,,,,,,,,,,,,,,,,,,,,,
,,,,,WIN24_055,21,Male,2024-02-12_13h31.07.950,jersey_experiment_5,2023.2.2,Win32,85.47008547,,,,,,,,,,,,,,,,330.0231,331.317,331.317,333.9877,return,0.1911,,60.9375,,,,,,FBP-PT-91.png,0.4,1.2,58,0.5,0,9,9,57,1,,,,,,,,,,,,,,,,,,,,,,,,,,,,,,,,,,,,,,,,
,,,,,WIN24_055,21,Male,2024-02-12_13h31.07.950,jersey_experiment_5,2023.2.2,Win32,85.47008547,,,,,,,,,,,,,,,,333.9877,335.2818,335.2818,336.2231,return,0.196,,49.86979167,,,,,,FBP-OG-19.png,0.4,1.2,13,0.5,0,10,10,12,1,,,,,,,,,,,,,,,,,,,,,,,,,,,,,,,,,,,,,,,,
,,,,,WIN24_055,21,Male,2024-02-12_13h31.07.950,jersey_experiment_5,2023.2.2,Win32,85.47008547,,,,,,,,,,,,,,,,336.2233,337.5171,337.5172,338.7058,return,0.1446,,25,,,,,,FBP-PT-91.png,0.35,1.2,56,0.5,0,11,11,55,1,,,,,,,,,,,,,,,,,,,,,,,,,,,,,,,,,,,,,,,,
,,,,,WIN24_055,21,Male,2024-02-12_13h31.07.950,jersey_experiment_5,2023.2.2,Win32,85.47008547,,,,,,,,,,,,,,,,338.706,339.9997,339.9997,341.4588,return,0.2848,,74.34895833,,,,,,FBP-PT-91.png,0.43,1.2,59,0.5,0,12,12,58,1,,,,,,,,,,,,,,,,,,,,,,,,,,,,,,,,,,,,,,,,
,,,,,WIN24_055,21,Male,2024-02-12_13h31.07.950,jersey_experiment_5,2023.2.2,Win32,85.47008547,,,,,,,,,,,,,,,,341.459,343.2587,343.2587,344.1293,return,0.3586,,69.01041667,,,,,,FBP-YG-17.png,0.4,1.2,33,1,0,13,13,32,1,,,,,,,,,,,,,,,,,,,,,,,,,,,,,,,,,,,,,,,,
,,,,,WIN24_055,21,Male,2024-02-12_13h31.07.950,jersey_experiment_5,2023.2.2,Win32,85.47008547,,,,,,,,,,,,,,,,344.1295,345.4233,345.4233,346.4822,return,0.2487,,50.390625,,,,,,FBP-OG-19.png,0.35,1.2,11,0.5,0,14,14,10,1,,,,,,,,,,,,,,,,,,,,,,,,,,,,,,,,,,,,,,,,
,,,,,WIN24_055,21,Male,2024-02-12_13h31.07.950,jersey_experiment_5,2023.2.2,Win32,85.47008547,,,,,,,,,,,,,,,,346.4823,348.2823,348.2823,349.3178,return,0.179,,75,,,,,,FBP-YG-18.png,0.43,1.2,39,1,0,15,15,38,1,,,,,,,,,,,,,,,,,,,,,,,,,,,,,,,,,,,,,,,,
,,,,,WIN24_055,21,Male,2024-02-12_13h31.07.950,jersey_experiment_5,2023.2.2,Win32,85.47008547,,,,,,,,,,,,,,,,349.318,351.1177,351.1177,352.0707,return,0.1415,,74.73958333,,,,,,FBP-RB-91.png,0.43,1.2,29,1,0,16,16,28,1,,,,,,,,,,,,,,,,,,,,,,,,,,,,,,,,,,,,,,,,
,,,,,WIN24_055,21,Male,2024-02-12_13h31.07.950,jersey_experiment_5,2023.2.2,Win32,85.47008547,,,,,,,,,,,,,,,,352.0709,353.8707,353.8707,354.3061,return,0.1202,,49.73958333,,,,,,FBP-RB-71.png,0.35,1.2,16,1,0,17,17,15,1,,,,,,,,,,,,,,,,,,,,,,,,,,,,,,,,,,,,,,,,
,,,,,WIN24_055,21,Male,2024-02-12_13h31.07.950,jersey_experiment_5,2023.2.2,Win32,85.47008547,,,,,,,,,,,,,,,,354.3062,355.6002,355.6002,357.2711,return,1.036,,75.390625,,,,,,FBP-OG-18.png,0.43,1.2,9,0.5,0,18,18,8,1,,,,,,,,,,,,,,,,,,,,,,,,,,,,,,,,,,,,,,,,
,,,,,WIN24_055,21,Male,2024-02-12_13h31.07.950,jersey_experiment_5,2023.2.2,Win32,85.47008547,,,,,,,,,,,,,,,,357.2713,358.565,358.565,359.8239,return,0.134,,74.47916667,,,,,,FBP-OG-19.png,0.45,1.2,15,0.5,0,19,19,14,1,,,,,,,,,,,,,,,,,,,,,,,,,,,,,,,,,,,,,,,,
,,,,,WIN24_055,21,Male,2024-02-12_13h31.07.950,jersey_experiment_5,2023.2.2,Win32,85.47008547,,,,,,,,,,,,,,,,359.824,361.1181,361.1181,362.9771,return,0.1799,,75,,,,,,FBP-PT-71.png,0.43,1.2,49,0.5,0,20,20,48,1,,,,,,,,,,,,,,,,,,,,,,,,,,,,,,,,,,,,,,,,
,,,,,WIN24_055,21,Male,2024-02-12_13h31.07.950,jersey_experiment_5,2023.2.2,Win32,85.47008547,,,,,,,,,,,,,,,,362.9773,364.2712,364.2713,366.2476,return,0.0569,,74.86979167,,,,,,FBP-PT-81.png,0.43,1.2,54,0.5,0,21,21,53,1,,,,,,,,,,,,,,,,,,,,,,,,,,,,,,,,,,,,,,,,
,,,,,WIN24_055,21,Male,2024-02-12_13h31.07.950,jersey_experiment_5,2023.2.2,Win32,85.47008547,,,,,,,,,,,,,,,,366.2478,367.5419,367.5419,368.436,return,0.1539,,49.86979167,,,,,,FBP-PT-81.png,0.4,1.2,53,0.5,0,22,22,52,1,,,,,,,,,,,,,,,,,,,,,,,,,,,,,,,,,,,,,,,,
,,,,,WIN24_055,21,Male,2024-02-12_13h31.07.950,jersey_experiment_5,2023.2.2,Win32,85.47008547,,,,,,,,,,,,,,,,368.4361,370.2361,370.2361,370.7068,return,0.1571,,49.86979167,,,,,,FBP-RB-91.png,0.37,1.2,27,1,0,23,23,26,1,,,,,,,,,,,,,,,,,,,,,,,,,,,,,,,,,,,,,,,,
,,,,,WIN24_055,21,Male,2024-02-12_13h31.07.950,jersey_experiment_5,2023.2.2,Win32,85.47008547,,,,,,,,,,,,,,,,370.707,372.5067,372.5067,373.0714,return,0.2425,,49.86979167,,,,,,FBP-YG-19.png,0.37,1.2,42,1,0,24,24,41,1,,,,,,,,,,,,,,,,,,,,,,,,,,,,,,,,,,,,,,,,
,,,,,WIN24_055,21,Male,2024-02-12_13h31.07.950,jersey_experiment_5,2023.2.2,Win32,85.47008547,,,,,,,,,,,,,,,,373.0716,374.8716,374.8716,375.9422,return,0.2358,,24.47916667,,,,,,FBP-YG-18.png,0.35,1.2,36,1,0,25,25,35,1,,,,,,,,,,,,,,,,,,,,,,,,,,,,,,,,,,,,,,,,
,,,,,WIN24_055,21,Male,2024-02-12_13h31.07.950,jersey_experiment_5,2023.2.2,Win32,85.47008547,,,,,,,,,,,,,,,,375.9425,377.2363,377.2364,378.1659,return,0.1318,,25.52083333,,,,,,FBP-OG-17.png,0.35,1.2,1,0.5,0,26,26,0,1,,,,,,,,,,,,,,,,,,,,,,,,,,,,,,,,,,,,,,,,
,,,,,WIN24_055,21,Male,2024-02-12_13h31.07.950,jersey_experiment_5,2023.2.2,Win32,85.47008547,,,,,,,,,,,,,,,,378.1661,379.9659,379.9659,381.0954,return,0.1752,,24.609375,,,,,,FBP-RB-81.png,0.35,1.2,21,1,0,27,27,20,1,,,,,,,,,,,,,,,,,,,,,,,,,,,,,,,,,,,,,,,,
,,,,,WIN24_055,21,Male,2024-02-12_13h31.07.950,jersey_experiment_5,2023.2.2,Win32,85.47008547,,,,,,,,,,,,,,,,381.0957,382.8953,382.8953,383.8601,return,0.1323,,49.609375,,,,,,FBP-RB-81.png,0.43,1.2,24,1,0,28,28,23,1,,,,,,,,,,,,,,,,,,,,,,,,,,,,,,,,,,,,,,,,
,,,,,WIN24_055,21,Male,2024-02-12_13h31.07.950,jersey_experiment_5,2023.2.2,Win32,85.47008547,,,,,,,,,,,,,,,,383.8603,385.6603,385.6603,387.0719,return,0.1948,,64.97395833,,,,,,FBP-YG-17.png,0.45,1.2,35,1,0,29,29,34,1,,,,,,,,,,,,,,,,,,,,,,,,,,,,,,,,,,,,,,,,
,,,,,WIN24_055,21,Male,2024-02-12_13h31.07.950,jersey_experiment_5,2023.2.2,Win32,85.47008547,,,,,,,,,,,,,,,,387.0721,388.3662,388.3663,390.1429,return,0.161,,68.61979167,,,,,,FBP-OG-18.png,0.45,1.2,10,0.5,0,30,30,9,1,,,,,,,,,,,,,,,,,,,,,,,,,,,,,,,,,,,,,,,,
,,,,,WIN24_055,21,Male,2024-02-12_13h31.07.950,jersey_experiment_5,2023.2.2,Win32,85.47008547,,,,,,,,,,,,,,,,390.1431,391.4368,391.4368,392.3545,return,0.1437,,66.40625,,,,,,FBP-OG-19.png,0.43,1.2,14,0.5,0,31,31,13,1,,,,,,,,,,,,,,,,,,,,,,,,,,,,,,,,,,,,,,,,
,,,,,WIN24_055,21,Male,2024-02-12_13h31.07.950,jersey_experiment_5,2023.2.2,Win32,85.47008547,,,,,,,,,,,,,,,,392.3547,394.1545,394.1546,395.2487,return,0.3472,,50.65104167,,,,,,FBP-YG-19.png,0.4,1.2,43,1,0,32,32,42,1,,,,,,,,,,,,,,,,,,,,,,,,,,,,,,,,,,,,,,,,
,,,,,WIN24_055,21,Male,2024-02-12_13h31.07.950,jersey_experiment_5,2023.2.2,Win32,85.47008547,,,,,,,,,,,,,,,,395.2489,397.0488,397.0488,398.1432,return,0.2414,,74.73958333,,,,,,FBP-RB-81.png,0.45,1.2,25,1,0,33,33,24,1,,,,,,,,,,,,,,,,,,,,,,,,,,,,,,,,,,,,,,,,
,,,,,WIN24_055,21,Male,2024-02-12_13h31.07.950,jersey_experiment_5,2023.2.2,Win32,85.47008547,,,,,,,,,,,,,,,,398.1434,399.437,399.437,400.4137,return,0.1032,,74.73958333,,,,,,FBP-PT-71.png,0.45,1.2,50,0.5,0,34,34,49,1,,,,,,,,,,,,,,,,,,,,,,,,,,,,,,,,,,,,,,,,
,,,,,WIN24_055,21,Male,2024-02-12_13h31.07.950,jersey_experiment_5,2023.2.2,Win32,85.47008547,,,,,,,,,,,,,,,,400.4139,401.7078,401.7078,402.6962,return,0.1746,,25.13020833,,,,,,FBP-PT-71.png,0.37,1.2,47,0.5,0,35,35,46,1,,,,,,,,,,,,,,,,,,,,,,,,,,,,,,,,,,,,,,,,
,,,,,WIN24_055,21,Male,2024-02-12_13h31.07.950,jersey_experiment_5,2023.2.2,Win32,85.47008547,,,,,,,,,,,,,,,,402.6964,403.9904,403.9904,404.7668,return,0.1827,,24.73958333,,,,,,FBP-OG-19.png,0.37,1.2,12,0.5,0,36,36,11,1,,,,,,,,,,,,,,,,,,,,,,,,,,,,,,,,,,,,,,,,
,,,,,WIN24_055,21,Male,2024-02-12_13h31.07.950,jersey_experiment_5,2023.2.2,Win32,85.47008547,,,,,,,,,,,,,,,,404.767,406.061,406.061,407.1905,return,0.2829,,25.52083333,,,,,,FBP-OG-18.png,0.4,1.2,8,0.5,0,37,37,7,1,,,,,,,,,,,,,,,,,,,,,,,,,,,,,,,,,,,,,,,,
,,,,,WIN24_055,21,Male,2024-02-12_13h31.07.950,jersey_experiment_5,2023.2.2,Win32,85.47008547,,,,,,,,,,,,,,,,407.1907,408.4845,408.4845,410.767,return,1.0897,,50,,,,,,FBP-PT-81.png,0.45,1.2,55,0.5,0,38,38,54,1,,,,,,,,,,,,,,,,,,,,,,,,,,,,,,,,,,,,,,,,
,,,,,WIN24_055,21,Male,2024-02-12_13h31.07.950,jersey_experiment_5,2023.2.2,Win32,85.47008547,,,,,,,,,,,,,,,,410.7671,412.0611,412.0611,412.7553,return,0.119,,50,,,,,,FBP-OG-17.png,0.43,1.2,4,0.5,0,39,39,3,1,,,,,,,,,,,,,,,,,,,,,,,,,,,,,,,,,,,,,,,,
,,,,,WIN24_055,21,Male,2024-02-12_13h31.07.950,jersey_experiment_5,2023.2.2,Win32,85.47008547,,,,,,,,,,,,,,,,412.7555,414.5552,414.5552,415.4967,return,0.1652,,25.390625,,,,,,FBP-YG-18.png,0.37,1.2,37,1,0,40,40,36,1,,,,,,,,,,,,,,,,,,,,,,,,,,,,,,,,,,,,,,,,
,,,,,WIN24_055,21,Male,2024-02-12_13h31.07.950,jersey_experiment_5,2023.2.2,Win32,85.47008547,,,,,,,,,,,,,,,,415.4969,417.2966,417.2966,419.4731,return,1.0273,,75,,,,,,FBP-YG-19.png,0.45,1.2,45,1,0,41,41,44,1,,,,,,,,,,,,,,,,,,,,,,,,,,,,,,,,,,,,,,,,
,,,,,WIN24_055,21,Male,2024-02-12_13h31.07.950,jersey_experiment_5,2023.2.2,Win32,85.47008547,,,,,,,,,,,,,,,,419.4733,421.2732,421.2733,423.4144,return,0.0944,,50.13020833,,,,,,FBP-RB-91.png,0.4,1.2,28,1,0,42,42,27,1,,,,,,,,,,,,,,,,,,,,,,,,,,,,,,,,,,,,,,,,
,,,,,WIN24_055,21,Male,2024-02-12_13h31.07.950,jersey_experiment_5,2023.2.2,Win32,85.47008547,,,,,,,,,,,,,,,,423.4147,424.7087,424.7087,425.2499,return,0.12,,50.13020833,,,,,,FBP-OG-17.png,0.4,1.2,3,0.5,0,43,43,2,1,,,,,,,,,,,,,,,,,,,,,,,,,,,,,,,,,,,,,,,,
,,,,,WIN24_055,21,Male,2024-02-12_13h31.07.950,jersey_experiment_5,2023.2.2,Win32,85.47008547,,,,,,,,,,,,,,,,425.25,426.5441,426.5441,427.6972,return,0.2763,,25.52083333,,,,,,FBP-PT-81.png,0.37,1.2,52,0.5,0,44,44,51,1,,,,,,,,,,,,,,,,,,,,,,,,,,,,,,,,,,,,,,,,
,,,,,WIN24_055,21,Male,2024-02-12_13h31.07.950,jersey_experiment_5,2023.2.2,Win32,85.47008547,,,,,,,,,,,,,,,,427.6975,429.4969,429.497,430.9206,return,0.0953,,49.73958333,,,,,,FBP-RB-71.png,0.43,1.2,19,1,0,45,45,18,1,,,,,,,,,,,,,,,,,,,,,,,,,,,,,,,,,,,,,,,,
,,,,,WIN24_055,21,Male,2024-02-12_13h31.07.950,jersey_experiment_5,2023.2.2,Win32,85.47008547,,,,,,,,,,,,,,,,430.9208,432.215,432.2151,433.6503,return,0.3079,,24.609375,,,,,,FBP-PT-71.png,0.35,1.2,46,0.5,0,46,46,45,1,,,,,,,,,,,,,,,,,,,,,,,,,,,,,,,,,,,,,,,,
,,,,,WIN24_055,21,Male,2024-02-12_13h31.07.950,jersey_experiment_5,2023.2.2,Win32,85.47008547,,,,,,,,,,,,,,,,433.6506,434.9443,434.9443,436.2151,return,0.2022,,74.47916667,,,,,,FBP-OG-17.png,0.45,1.2,5,0.5,0,47,47,4,1,,,,,,,,,,,,,,,,,,,,,,,,,,,,,,,,,,,,,,,,
,,,,,WIN24_055,21,Male,2024-02-12_13h31.07.950,jersey_experiment_5,2023.2.2,Win32,85.47008547,,,,,,,,,,,,,,,,436.2154,438.015,438.015,438.815,return,0.0634,,75.13020833,,,,,,FBP-YG-19.png,0.43,1.2,44,1,0,48,48,43,1,,,,,,,,,,,,,,,,,,,,,,,,,,,,,,,,,,,,,,,,
,,,,,WIN24_055,21,Male,2024-02-12_13h31.07.950,jersey_experiment_5,2023.2.2,Win32,85.47008547,,,,,,,,,,,,,,,,438.8152,440.615,440.615,442.5916,return,0.217,,50.26041667,,,,,,FBP-RB-81.png,0.4,1.2,23,1,0,49,49,22,1,,,,,,,,,,,,,,,,,,,,,,,,,,,,,,,,,,,,,,,,
,,,,,WIN24_055,21,Male,2024-02-12_13h31.07.950,jersey_experiment_5,2023.2.2,Win32,85.47008547,,,,,,,,,,,,,,,,442.5918,443.8861,443.8861,444.5211,return,0.0608,,50,,,,,,FBP-OG-17.png,0.37,1.2,2,0.5,0,50,50,1,1,,,,,,,,,,,,,,,,,,,,,,,,,,,,,,,,,,,,,,,,
,,,,,WIN24_055,21,Male,2024-02-12_13h31.07.950,jersey_experiment_5,2023.2.2,Win32,85.47008547,,,,,,,,,,,,,,,,444.5213,446.3211,446.3211,446.7565,return,0.1794,,50,,,,,,FBP-RB-71.png,0.4,1.2,18,1,0,51,51,17,1,,,,,,,,,,,,,,,,,,,,,,,,,,,,,,,,,,,,,,,,
,,,,,WIN24_055,21,Male,2024-02-12_13h31.07.950,jersey_experiment_5,2023.2.2,Win32,85.47008547,,,,,,,,,,,,,,,,446.7567,448.5565,448.5565,449.1447,return,0.1277,,50,,,,,,FBP-YG-19.png,0.35,1.2,41,1,0,52,52,40,1,,,,,,,,,,,,,,,,,,,,,,,,,,,,,,,,,,,,,,,,
,,,,,WIN24_055,21,Male,2024-02-12_13h31.07.950,jersey_experiment_5,2023.2.2,Win32,85.47008547,,,,,,,,,,,,,,,,449.1449,450.439,450.439,451.0625,return,0.1657,,50,,,,,,FBP-PT-71.png,0.4,1.2,48,0.5,0,53,53,47,1,,,,,,,,,,,,,,,,,,,,,,,,,,,,,,,,,,,,,,,,
,,,,,WIN24_055,21,Male,2024-02-12_13h31.07.950,jersey_experiment_5,2023.2.2,Win32,85.47008547,,,,,,,,,,,,,,,,451.0628,452.8624,452.8624,453.7687,return,0.2364,,56.90104167,,,,,,FBP-RB-91.png,0.45,1.2,30,1,0,54,54,29,1,,,,,,,,,,,,,,,,,,,,,,,,,,,,,,,,,,,,,,,,
,,,,,WIN24_055,21,Male,2024-02-12_13h31.07.950,jersey_experiment_5,2023.2.2,Win32,85.47008547,,,,,,,,,,,,,,,,453.769,455.0627,455.0627,456.3687,return,0.3215,,25.390625,,,,,,FBP-OG-18.png,0.35,1.2,6,0.5,0,55,55,5,1,,,,,,,,,,,,,,,,,,,,,,,,,,,,,,,,,,,,,,,,
,,,,,WIN24_055,21,Male,2024-02-12_13h31.07.950,jersey_experiment_5,2023.2.2,Win32,85.47008547,,,,,,,,,,,,,,,,456.3689,458.1687,458.1687,459.2394,return,0.1888,,63.02083333,,,,,,FBP-YG-18.png,0.45,1.2,40,1,0,56,56,39,1,,,,,,,,,,,,,,,,,,,,,,,,,,,,,,,,,,,,,,,,
,,,,,WIN24_055,21,Male,2024-02-12_13h31.07.950,jersey_experiment_5,2023.2.2,Win32,85.47008547,,,,,,,,,,,,,,,,459.2396,461.0394,461.0394,461.863,return,0.3772,,49.34895833,,,,,,FBP-RB-91.png,0.35,1.2,26,1,0,57,57,25,1,,,,,,,,,,,,,,,,,,,,,,,,,,,,,,,,,,,,,,,,
,,,,,WIN24_055,21,Male,2024-02-12_13h31.07.950,jersey_experiment_5,2023.2.2,Win32,85.47008547,,,,,,,,,,,,,,,,461.8633,463.6629,463.6629,464.2159,return,0.2119,,50.13020833,,,,,,FBP-RB-71.png,0.37,1.2,17,1,0,58,58,16,1,,,,,,,,,,,,,,,,,,,,,,,,,,,,,,,,,,,,,,,,
,,,,,WIN24_055,21,Male,2024-02-12_13h31.07.950,jersey_experiment_5,2023.2.2,Win32,85.47008547,,,,,,,,,,,,,,,,464.2162,466.0161,466.0161,467.0868,return,0.124,,74.609375,,,,,,FBP-YG-17.png,0.43,1.2,34,1,0,59,59,33,1,,,,,,,,,,,,,,,,,,,,,,,,,,,,,,,,,,,,,,,,
,,,,,WIN24_055,21,Male,2024-02-12_13h31.07.950,jersey_experiment_5,2023.2.2,Win32,85.47008547,,,,,,,,,,,,,,,,,,,,,,,,,,,,,,,,,,,,,,,467.0871,587.0914,,,,,,,,,,,,,,,,,,,,,,,,,,,,,,,,,,,,,,
,,,,,WIN24_055,21,Male,2024-02-12_13h31.07.950,jersey_experiment_5,2023.2.2,Win32,85.47008547,,,,,,,,,,,,,,,,,,,,,,,,,,,,,,,,,,,,,,,,,587.0914,592.2795,return,5.1754,,,,,,,,,,,,,,,,,,,,,,,,,,,,,,,,,,
,,,,,WIN24_055,21,Male,2024-02-12_13h31.07.950,jersey_experiment_5,2023.2.2,Win32,85.47008547,,,,,,,,,,,,,,,,592.2859,593.5853,593.5853,600.3033,return,0.8402,,59.89583333,,,,,,FBP-RB-19.png,0.45,1.2,30,0.5,,,,,,,,,,,,,0,0,0,29,1,,,,,,,,,,,,,,,,,,,,,,,,,,,,
,,,,,WIN24_055,21,Male,2024-02-12_13h31.07.950,jersey_experiment_5,2023.2.2,Win32,85.47008547,,,,,,,,,,,,,,,,600.3038,602.1035,602.1035,604.4798,return,1.0636,,24.73958333,,,,,,FBP-OG-71.png,0.37,1.2,2,1,,,,,,,,,,,,,0,1,1,1,1,,,,,,,,,,,,,,,,,,,,,,,,,,,,
,,,,,WIN24_055,21,Male,2024-02-12_13h31.07.950,jersey_experiment_5,2023.2.2,Win32,85.47008547,,,,,,,,,,,,,,,,604.4801,606.2801,606.2801,607.6212,return,0.6126,,75,,,,,,FBP-OG-81.png,0.45,1.2,10,1,,,,,,,,,,,,,0,2,2,9,1,,,,,,,,,,,,,,,,,,,,,,,,,,,,
,,,,,WIN24_055,21,Male,2024-02-12_13h31.07.950,jersey_experiment_5,2023.2.2,Win32,85.47008547,,,,,,,,,,,,,,,,607.6213,608.9153,608.9153,612.7272,return,0.6221,,49.34895833,,,,,,FBP-YG-81.png,0.37,1.2,37,0.5,,,,,,,,,,,,,0,3,3,36,1,,,,,,,,,,,,,,,,,,,,,,,,,,,,
,,,,,WIN24_055,21,Male,2024-02-12_13h31.07.950,jersey_experiment_5,2023.2.2,Win32,85.47008547,,,,,,,,,,,,,,,,612.7274,614.5273,614.5274,615.6567,return,0.5549,,62.109375,,,,,,FBP-PT-19.png,0.45,1.2,60,1,,,,,,,,,,,,,0,4,4,59,1,,,,,,,,,,,,,,,,,,,,,,,,,,,,
,,,,,WIN24_055,21,Male,2024-02-12_13h31.07.950,jersey_experiment_5,2023.2.2,Win32,85.47008547,,,,,,,,,,,,,,,,615.6568,616.951,616.951,618.2214,return,0.1716,,63.02083333,,,,,,FBP-YG-71.png,0.43,1.2,34,0.5,,,,,,,,,,,,,0,5,5,33,1,,,,,,,,,,,,,,,,,,,,,,,,,,,,
,,,,,WIN24_055,21,Male,2024-02-12_13h31.07.950,jersey_experiment_5,2023.2.2,Win32,85.47008547,,,,,,,,,,,,,,,,618.2216,620.0217,620.0217,621.3512,return,0.179,,24.73958333,,,,,,FBP-PT-18.png,0.37,1.2,52,1,,,,,,,,,,,,,0,6,6,51,1,,,,,,,,,,,,,,,,,,,,,,,,,,,,
,,,,,WIN24_055,21,Male,2024-02-12_13h31.07.950,jersey_experiment_5,2023.2.2,Win32,85.47008547,,,,,,,,,,,,,,,,621.3514,622.6452,622.6452,623.9865,return,0.1566,,61.71875,,,,,,FBP-YG-71.png,0.4,1.2,33,0.5,,,,,,,,,,,,,0,7,7,32,1,,,,,,,,,,,,,,,,,,,,,,,,,,,,
,,,,,WIN24_055,21,Male,2024-02-12_13h31.07.950,jersey_experiment_5,2023.2.2,Win32,85.47008547,,,,,,,,,,,,,,,,623.9868,625.7866,625.7867,626.8689,return,0.6371,,62.23958333,,,,,,FBP-PT-19.png,0.4,1.2,58,1,,,,,,,,,,,,,0,8,8,57,1,,,,,,,,,,,,,,,,,,,,,,,,,,,,
,,,,,WIN24_055,21,Male,2024-02-12_13h31.07.950,jersey_experiment_5,2023.2.2,Win32,85.47008547,,,,,,,,,,,,,,,,626.869,628.1631,628.1631,629.5749,return,0.5177,,50.26041667,,,,,,FBP-RB-17.png,0.4,1.2,18,0.5,,,,,,,,,,,,,0,9,9,17,1,,,,,,,,,,,,,,,,,,,,,,,,,,,,
,,,,,WIN24_055,21,Male,2024-02-12_13h31.07.950,jersey_experiment_5,2023.2.2,Win32,85.47008547,,,,,,,,,,,,,,,,629.5751,630.869,630.869,631.4219,return,0.0905,,50,,,,,,FBP-RB-19.png,0.43,1.2,29,0.5,,,,,,,,,,,,,0,10,10,28,1,,,,,,,,,,,,,,,,,,,,,,,,,,,,
,,,,,WIN24_055,21,Male,2024-02-12_13h31.07.950,jersey_experiment_5,2023.2.2,Win32,85.47008547,,,,,,,,,,,,,,,,631.4222,632.7162,632.7162,633.8573,return,0.2873,,25.52083333,,,,,,FBP-RB-18.png,0.35,1.2,21,0.5,,,,,,,,,,,,,0,11,11,20,1,,,,,,,,,,,,,,,,,,,,,,,,,,,,
,,,,,WIN24_055,21,Male,2024-02-12_13h31.07.950,jersey_experiment_5,2023.2.2,Win32,85.47008547,,,,,,,,,,,,,,,,633.8576,635.1515,635.1515,635.728,return,0.136,,49.73958333,,,,,,FBP-RB-18.png,0.4,1.2,23,0.5,,,,,,,,,,,,,0,12,12,22,1,,,,,,,,,,,,,,,,,,,,,,,,,,,,
,,,,,WIN24_055,21,Male,2024-02-12_13h31.07.950,jersey_experiment_5,2023.2.2,Win32,85.47008547,,,,,,,,,,,,,,,,635.7282,637.5281,637.5281,637.9988,return,0.0873,,49.73958333,,,,,,FBP-OG-81.png,0.4,1.2,8,1,,,,,,,,,,,,,0,13,13,7,1,,,,,,,,,,,,,,,,,,,,,,,,,,,,
,,,,,WIN24_055,21,Male,2024-02-12_13h31.07.950,jersey_experiment_5,2023.2.2,Win32,85.47008547,,,,,,,,,,,,,,,,637.999,639.799,639.799,640.7517,return,0.4161,,75.13020833,,,,,,FBP-OG-71.png,0.45,1.2,5,1,,,,,,,,,,,,,0,14,14,4,1,,,,,,,,,,,,,,,,,,,,,,,,,,,,
,,,,,WIN24_055,21,Male,2024-02-12_13h31.07.950,jersey_experiment_5,2023.2.2,Win32,85.47008547,,,,,,,,,,,,,,,,640.752,642.0458,642.0458,643.7168,return,0.7545,,74.609375,,,,,,FBP-RB-18.png,0.43,1.2,24,0.5,,,,,,,,,,,,,0,15,15,23,1,,,,,,,,,,,,,,,,,,,,,,,,,,,,
,,,,,WIN24_055,21,Male,2024-02-12_13h31.07.950,jersey_experiment_5,2023.2.2,Win32,85.47008547,,,,,,,,,,,,,,,,643.717,645.0106,645.0107,646.0697,return,0.211,,75,,,,,,FBP-YG-91.png,0.45,1.2,45,0.5,,,,,,,,,,,,,0,16,16,44,1,,,,,,,,,,,,,,,,,,,,,,,,,,,,
,,,,,WIN24_055,21,Male,2024-02-12_13h31.07.950,jersey_experiment_5,2023.2.2,Win32,85.47008547,,,,,,,,,,,,,,,,646.0699,647.8699,647.8699,648.9286,return,0.1822,,75,,,,,,FBP-OG-91.png,0.45,1.2,15,1,,,,,,,,,,,,,0,17,17,14,1,,,,,,,,,,,,,,,,,,,,,,,,,,,,
,,,,,WIN24_055,21,Male,2024-02-12_13h31.07.950,jersey_experiment_5,2023.2.2,Win32,85.47008547,,,,,,,,,,,,,,,,648.9288,650.2227,650.2228,651.4109,return,0.2012,,74.73958333,,,,,,FBP-RB-17.png,0.45,1.2,20,0.5,,,,,,,,,,,,,0,18,18,19,1,,,,,,,,,,,,,,,,,,,,,,,,,,,,
,,,,,WIN24_055,21,Male,2024-02-12_13h31.07.950,jersey_experiment_5,2023.2.2,Win32,85.47008547,,,,,,,,,,,,,,,,651.4112,653.2112,653.2113,654.3289,return,0.2225,,24.47916667,,,,,,FBP-PT-18.png,0.35,1.2,51,1,,,,,,,,,,,,,0,19,19,50,1,,,,,,,,,,,,,,,,,,,,,,,,,,,,
,,,,,WIN24_055,21,Male,2024-02-12_13h31.07.950,jersey_experiment_5,2023.2.2,Win32,85.47008547,,,,,,,,,,,,,,,,654.329,656.129,656.1291,656.9642,return,0.1294,,24.73958333,,,,,,FBP-PT-18.png,0.4,1.2,53,1,,,,,,,,,,,,,0,20,20,52,1,,,,,,,,,,,,,,,,,,,,,,,,,,,,
,,,,,WIN24_055,21,Male,2024-02-12_13h31.07.950,jersey_experiment_5,2023.2.2,Win32,85.47008547,,,,,,,,,,,,,,,,656.9644,658.7641,658.7642,659.3642,return,0.1294,,50,,,,,,FBP-PT-19.png,0.43,1.2,59,1,,,,,,,,,,,,,0,21,21,58,1,,,,,,,,,,,,,,,,,,,,,,,,,,,,
,,,,,WIN24_055,21,Male,2024-02-12_13h31.07.950,jersey_experiment_5,2023.2.2,Win32,85.47008547,,,,,,,,,,,,,,,,659.3644,661.1643,661.1643,661.7172,return,0.2361,,50.26041667,,,,,,FBP-PT-17.png,0.43,1.2,49,1,,,,,,,,,,,,,0,22,22,48,1,,,,,,,,,,,,,,,,,,,,,,,,,,,,
,,,,,WIN24_055,21,Male,2024-02-12_13h31.07.950,jersey_experiment_5,2023.2.2,Win32,85.47008547,,,,,,,,,,,,,,,,661.7175,663.0113,663.0114,666.5764,return,0.2064,,74.47916667,,,,,,FBP-YG-81.png,0.45,1.2,40,0.5,,,,,,,,,,,,,0,23,23,39,1,,,,,,,,,,,,,,,,,,,,,,,,,,,,
,,,,,WIN24_055,21,Male,2024-02-12_13h31.07.950,jersey_experiment_5,2023.2.2,Win32,85.47008547,,,,,,,,,,,,,,,,666.5766,667.8707,667.8707,669.0118,return,0.1672,,25.13020833,,,,,,FBP-YG-71.png,0.37,1.2,32,0.5,,,,,,,,,,,,,0,24,24,31,1,,,,,,,,,,,,,,,,,,,,,,,,,,,,
,,,,,WIN24_055,21,Male,2024-02-12_13h31.07.950,jersey_experiment_5,2023.2.2,Win32,85.47008547,,,,,,,,,,,,,,,,669.0119,670.8115,670.8116,672.1175,return,0.1651,,50.13020833,,,,,,FBP-OG-91.png,0.4,1.2,13,1,,,,,,,,,,,,,0,25,25,12,1,,,,,,,,,,,,,,,,,,,,,,,,,,,,
,,,,,WIN24_055,21,Male,2024-02-12_13h31.07.950,jersey_experiment_5,2023.2.2,Win32,85.47008547,,,,,,,,,,,,,,,,672.1178,673.4117,673.4117,674,return,0.124,,50,,,,,,FBP-YG-91.png,0.4,1.2,43,0.5,,,,,,,,,,,,,0,26,26,42,1,,,,,,,,,,,,,,,,,,,,,,,,,,,,
,,,,,WIN24_055,21,Male,2024-02-12_13h31.07.950,jersey_experiment_5,2023.2.2,Win32,85.47008547,,,,,,,,,,,,,,,,674.0002,675.8001,675.8001,676.3059,return,0.1691,,50,,,,,,FBP-OG-81.png,0.43,1.2,9,1,,,,,,,,,,,,,0,27,27,8,1,,,,,,,,,,,,,,,,,,,,,,,,,,,,
,,,,,WIN24_055,21,Male,2024-02-12_13h31.07.950,jersey_experiment_5,2023.2.2,Win32,85.47008547,,,,,,,,,,,,,,,,676.3062,677.6001,677.6001,678.7179,return,0.1245,,25,,,,,,FBP-YG-81.png,0.35,1.2,36,0.5,,,,,,,,,,,,,0,28,28,35,1,,,,,,,,,,,,,,,,,,,,,,,,,,,,
,,,,,WIN24_055,21,Male,2024-02-12_13h31.07.950,jersey_experiment_5,2023.2.2,Win32,85.47008547,,,,,,,,,,,,,,,,678.7182,680.012,680.0121,681.3297,return,0.4255,,25.65104167,,,,,,FBP-RB-17.png,0.37,1.2,17,0.5,,,,,,,,,,,,,0,29,29,16,1,,,,,,,,,,,,,,,,,,,,,,,,,,,,
,,,,,WIN24_055,21,Male,2024-02-12_13h31.07.950,jersey_experiment_5,2023.2.2,Win32,85.47008547,,,,,,,,,,,,,,,,681.33,682.6239,682.6239,684.0005,return,0.3449,,25.390625,,,,,,FBP-YG-91.png,0.35,1.2,41,0.5,,,,,,,,,,,,,0,30,30,40,1,,,,,,,,,,,,,,,,,,,,,,,,,,,,
,,,,,WIN24_055,21,Male,2024-02-12_13h31.07.950,jersey_experiment_5,2023.2.2,Win32,85.47008547,,,,,,,,,,,,,,,,684.0007,685.2945,685.2945,686.071,return,0.1747,,50.13020833,,,,,,FBP-RB-17.png,0.43,1.2,19,0.5,,,,,,,,,,,,,0,31,31,18,1,,,,,,,,,,,,,,,,,,,,,,,,,,,,
,,,,,WIN24_055,21,Male,2024-02-12_13h31.07.950,jersey_experiment_5,2023.2.2,Win32,85.47008547,,,,,,,,,,,,,,,,686.0712,687.3652,687.3652,688.1181,return,0.4098,,49.609375,,,,,,FBP-YG-81.png,0.4,1.2,38,0.5,,,,,,,,,,,,,0,32,32,37,1,,,,,,,,,,,,,,,,,,,,,,,,,,,,
,,,,,WIN24_055,21,Male,2024-02-12_13h31.07.950,jersey_experiment_5,2023.2.2,Win32,85.47008547,,,,,,,,,,,,,,,,688.1183,689.9183,689.9183,691.4006,return,1.12,,56.640625,,,,,,FBP-OG-71.png,0.43,1.2,4,1,,,,,,,,,,,,,0,33,33,3,1,,,,,,,,,,,,,,,,,,,,,,,,,,,,
,,,,,WIN24_055,21,Male,2024-02-12_13h31.07.950,jersey_experiment_5,2023.2.2,Win32,85.47008547,,,,,,,,,,,,,,,,691.4009,693.2007,693.2007,694.2478,return,0.2032,,63.28125,,,,,,FBP-PT-18.png,0.43,1.2,54,1,,,,,,,,,,,,,0,34,34,53,1,,,,,,,,,,,,,,,,,,,,,,,,,,,,
,,,,,WIN24_055,21,Male,2024-02-12_13h31.07.950,jersey_experiment_5,2023.2.2,Win32,85.47008547,,,,,,,,,,,,,,,,694.2481,696.0478,696.0478,697.1655,return,0.185,,50.13020833,,,,,,FBP-OG-71.png,0.4,1.2,3,1,,,,,,,,,,,,,0,35,35,2,1,,,,,,,,,,,,,,,,,,,,,,,,,,,,
,,,,,WIN24_055,21,Male,2024-02-12_13h31.07.950,jersey_experiment_5,2023.2.2,Win32,85.47008547,,,,,,,,,,,,,,,,697.1658,698.9657,698.9658,699.8952,return,0.1317,,24.86979167,,,,,,FBP-OG-91.png,0.35,1.2,11,1,,,,,,,,,,,,,0,36,36,10,1,,,,,,,,,,,,,,,,,,,,,,,,,,,,
,,,,,WIN24_055,21,Male,2024-02-12_13h31.07.950,jersey_experiment_5,2023.2.2,Win32,85.47008547,,,,,,,,,,,,,,,,699.8953,701.1894,701.1894,702.1422,return,0.159,,24.86979167,,,,,,FBP-YG-71.png,0.35,1.2,31,0.5,,,,,,,,,,,,,0,37,37,30,1,,,,,,,,,,,,,,,,,,,,,,,,,,,,
,,,,,WIN24_055,21,Male,2024-02-12_13h31.07.950,jersey_experiment_5,2023.2.2,Win32,85.47008547,,,,,,,,,,,,,,,,702.1423,703.4364,703.4364,703.9187,return,0.1695,,49.73958333,,,,,,FBP-YG-91.png,0.43,1.2,44,0.5,,,,,,,,,,,,,0,38,38,43,1,,,,,,,,,,,,,,,,,,,,,,,,,,,,
,,,,,WIN24_055,21,Male,2024-02-12_13h31.07.950,jersey_experiment_5,2023.2.2,Win32,85.47008547,,,,,,,,,,,,,,,,703.9189,705.7189,705.7189,706.625,return,0.1678,,25,,,,,,FBP-PT-19.png,0.35,1.2,56,1,,,,,,,,,,,,,0,39,39,55,1,,,,,,,,,,,,,,,,,,,,,,,,,,,,
,,,,,WIN24_055,21,Male,2024-02-12_13h31.07.950,jersey_experiment_5,2023.2.2,Win32,85.47008547,,,,,,,,,,,,,,,,706.6252,707.9191,707.9191,708.978,return,0.1573,,24.73958333,,,,,,FBP-RB-17.png,0.35,1.2,16,0.5,,,,,,,,,,,,,0,40,40,15,1,,,,,,,,,,,,,,,,,,,,,,,,,,,,
,,,,,WIN24_055,21,Male,2024-02-12_13h31.07.950,jersey_experiment_5,2023.2.2,Win32,85.47008547,,,,,,,,,,,,,,,,708.9782,710.2719,710.2719,711.5662,return,0.1943,,24.86979167,,,,,,FBP-RB-19.png,0.37,1.2,27,0.5,,,,,,,,,,,,,0,41,41,26,1,,,,,,,,,,,,,,,,,,,,,,,,,,,,
,,,,,WIN24_055,21,Male,2024-02-12_13h31.07.950,jersey_experiment_5,2023.2.2,Win32,85.47008547,,,,,,,,,,,,,,,,711.5664,712.8604,712.8604,716.8722,return,0.5745,,74.609375,,,,,,FBP-RB-18.png,0.45,1.2,25,0.5,,,,,,,,,,,,,0,42,42,24,1,,,,,,,,,,,,,,,,,,,,,,,,,,,,
,,,,,WIN24_055,21,Male,2024-02-12_13h31.07.950,jersey_experiment_5,2023.2.2,Win32,85.47008547,,,,,,,,,,,,,,,,716.8724,718.6725,718.6725,720.3546,return,0.3897,,49.73958333,,,,,,FBP-OG-71.png,0.35,1.2,1,1,,,,,,,,,,,,,0,43,43,0,1,,,,,,,,,,,,,,,,,,,,,,,,,,,,
,,,,,WIN24_055,21,Male,2024-02-12_13h31.07.950,jersey_experiment_5,2023.2.2,Win32,85.47008547,,,,,,,,,,,,,,,,720.3549,722.1546,722.1546,723.8372,return,0.1972,,75,,,,,,FBP-PT-18.png,0.45,1.2,55,1,,,,,,,,,,,,,0,44,44,54,1,,,,,,,,,,,,,,,,,,,,,,,,,,,,
,,,,,WIN24_055,21,Male,2024-02-12_13h31.07.950,jersey_experiment_5,2023.2.2,Win32,85.47008547,,,,,,,,,,,,,,,,723.8374,725.1313,725.1313,726.1197,return,0.0806,,74.86979167,,,,,,FBP-YG-71.png,0.45,1.2,35,0.5,,,,,,,,,,,,,0,45,45,34,1,,,,,,,,,,,,,,,,,,,,,,,,,,,,
,,,,,WIN24_055,21,Male,2024-02-12_13h31.07.950,jersey_experiment_5,2023.2.2,Win32,85.47008547,,,,,,,,,,,,,,,,726.12,727.4137,727.4137,728.3667,return,0.123,,50.390625,,,,,,FBP-RB-19.png,0.4,1.2,28,0.5,,,,,,,,,,,,,0,46,46,27,1,,,,,,,,,,,,,,,,,,,,,,,,,,,,
,,,,,WIN24_055,21,Male,2024-02-12_13h31.07.950,jersey_experiment_5,2023.2.2,Win32,85.47008547,,,,,,,,,,,,,,,,728.367,730.1669,730.1669,731.1197,return,0.1215,,49.609375,,,,,,FBP-PT-17.png,0.4,1.2,48,1,,,,,,,,,,,,,0,47,47,47,1,,,,,,,,,,,,,,,,,,,,,,,,,,,,
,,,,,WIN24_055,21,Male,2024-02-12_13h31.07.950,jersey_experiment_5,2023.2.2,Win32,85.47008547,,,,,,,,,,,,,,,,731.12,732.92,732.92,733.5552,return,0.1677,,45.18229167,,,,,,FBP-OG-81.png,0.37,1.2,7,1,,,,,,,,,,,,,0,48,48,6,1,,,,,,,,,,,,,,,,,,,,,,,,,,,,
,,,,,WIN24_055,21,Male,2024-02-12_13h31.07.950,jersey_experiment_5,2023.2.2,Win32,85.47008547,,,,,,,,,,,,,,,,733.5554,734.8492,734.8492,736.1905,return,0.149,,64.453125,,,,,,FBP-YG-81.png,0.43,1.2,39,0.5,,,,,,,,,,,,,0,49,49,38,1,,,,,,,,,,,,,,,,,,,,,,,,,,,,
,,,,,WIN24_055,21,Male,2024-02-12_13h31.07.950,jersey_experiment_5,2023.2.2,Win32,85.47008547,,,,,,,,,,,,,,,,736.1907,737.9905,737.9905,739.9673,return,0.2307,,25.13020833,,,,,,FBP-PT-19.png,0.37,1.2,57,1,,,,,,,,,,,,,0,50,50,56,1,,,,,,,,,,,,,,,,,,,,,,,,,,,,
,,,,,WIN24_055,21,Male,2024-02-12_13h31.07.950,jersey_experiment_5,2023.2.2,Win32,85.47008547,,,,,,,,,,,,,,,,739.9675,741.7672,741.7672,743.238,return,0.4485,,25.390625,,,,,,FBP-PT-17.png,0.37,1.2,47,1,,,,,,,,,,,,,0,51,51,46,1,,,,,,,,,,,,,,,,,,,,,,,,,,,,
,,,,,WIN24_055,21,Male,2024-02-12_13h31.07.950,jersey_experiment_5,2023.2.2,Win32,85.47008547,,,,,,,,,,,,,,,,743.2382,745.0377,745.0377,745.838,return,0.2907,,24.08854167,,,,,,FBP-PT-17.png,0.35,1.2,46,1,,,,,,,,,,,,,0,52,52,45,1,,,,,,,,,,,,,,,,,,,,,,,,,,,,
,,,,,WIN24_055,21,Male,2024-02-12_13h31.07.950,jersey_experiment_5,2023.2.2,Win32,85.47008547,,,,,,,,,,,,,,,,745.8382,747.638,747.638,751.6027,return,2.908,,49.86979167,,,,,,FBP-OG-91.png,0.43,1.2,14,1,,,,,,,,,,,,,0,53,53,13,1,,,,,,,,,,,,,,,,,,,,,,,,,,,,
,,,,,WIN24_055,21,Male,2024-02-12_13h31.07.950,jersey_experiment_5,2023.2.2,Win32,85.47008547,,,,,,,,,,,,,,,,751.6071,753.4029,753.4029,754.5676,return,0.2124,,56.11979167,,,,,,FBP-PT-17.png,0.45,1.2,50,1,,,,,,,,,,,,,0,54,54,49,1,,,,,,,,,,,,,,,,,,,,,,,,,,,,
,,,,,WIN24_055,21,Male,2024-02-12_13h31.07.950,jersey_experiment_5,2023.2.2,Win32,85.47008547,,,,,,,,,,,,,,,,754.5678,755.8618,755.8618,756.4854,return,0.1174,,49.86979167,,,,,,FBP-RB-19.png,0.35,1.2,26,0.5,,,,,,,,,,,,,0,55,55,25,1,,,,,,,,,,,,,,,,,,,,,,,,,,,,
,,,,,WIN24_055,21,Male,2024-02-12_13h31.07.950,jersey_experiment_5,2023.2.2,Win32,85.47008547,,,,,,,,,,,,,,,,756.4857,757.7795,757.7796,758.2267,return,0.0859,,49.86979167,,,,,,FBP-RB-18.png,0.37,1.2,22,0.5,,,,,,,,,,,,,0,56,56,21,1,,,,,,,,,,,,,,,,,,,,,,,,,,,,
,,,,,WIN24_055,21,Male,2024-02-12_13h31.07.950,jersey_experiment_5,2023.2.2,Win32,85.47008547,,,,,,,,,,,,,,,,758.227,760.0267,760.0267,760.6148,return,0.1746,,49.86979167,,,,,,FBP-OG-91.png,0.37,1.2,12,1,,,,,,,,,,,,,0,57,57,11,1,,,,,,,,,,,,,,,,,,,,,,,,,,,,
,,,,,WIN24_055,21,Male,2024-02-12_13h31.07.950,jersey_experiment_5,2023.2.2,Win32,85.47008547,,,,,,,,,,,,,,,,760.615,762.415,762.415,764.6622,return,1.516,,41.66666667,,,,,,FBP-OG-81.png,0.35,1.2,6,1,,,,,,,,,,,,,0,58,58,5,1,,,,,,,,,,,,,,,,,,,,,,,,,,,,
,,,,,WIN24_055,21,Male,2024-02-12_13h31.07.950,jersey_experiment_5,2023.2.2,Win32,85.47008547,,,,,,,,,,,,,,,,764.6624,765.9563,765.9563,767.2861,return,0.1667,,44.27083333,,,,,,FBP-YG-91.png,0.37,1.2,42,0.5,,,,,,,,,,,,,0,59,59,41,1,,,,,,,,,,,,,,,,,,,,,,,,,,,,
,,,,,WIN24_055,21,Male,2024-02-12_13h31.07.950,jersey_experiment_5,2023.2.2,Win32,85.47008547,,,,,,,,,,,,,,,,767.2879,769.0858,769.0858,769.6034,return,0.1442,,49.609375,,,,,,FBP-PT-91.png,0.4,1.2,58,1,,,,,,,,,,,,,,,,,,0,0,0,57,1,,,,,,,,,,,,,,,,,,,,,,,
,,,,,WIN24_055,21,Male,2024-02-12_13h31.07.950,jersey_experiment_5,2023.2.2,Win32,85.47008547,,,,,,,,,,,,,,,,769.6037,770.8976,770.8976,771.3917,return,0.1238,,49.609375,,,,,,FBP-YG-18.png,0.37,1.2,37,0.5,,,,,,,,,,,,,,,,,,0,1,1,36,1,,,,,,,,,,,,,,,,,,,,,,,
,,,,,WIN24_055,21,Male,2024-02-12_13h31.07.950,jersey_experiment_5,2023.2.2,Win32,85.47008547,,,,,,,,,,,,,,,,771.3919,773.1919,773.1919,773.6625,return,0.1708,,49.73958333,,,,,,FBP-OG-17.png,0.4,1.2,3,1,,,,,,,,,,,,,,,,,,0,2,2,2,1,,,,,,,,,,,,,,,,,,,,,,,
,,,,,WIN24_055,21,Male,2024-02-12_13h31.07.950,jersey_experiment_5,2023.2.2,Win32,85.47008547,,,,,,,,,,,,,,,,773.6627,775.4626,775.4626,775.9919,return,0.1317,,49.86979167,,,,,,FBP-PT-71.png,0.43,1.2,49,1,,,,,,,,,,,,,,,,,,0,3,3,48,1,,,,,,,,,,,,,,,,,,,,,,,
,,,,,WIN24_055,21,Male,2024-02-12_13h31.07.950,jersey_experiment_5,2023.2.2,Win32,85.47008547,,,,,,,,,,,,,,,,775.9921,777.792,777.792,778.2389,return,0.1484,,49.86979167,,,,,,FBP-OG-18.png,0.35,1.2,6,1,,,,,,,,,,,,,,,,,,0,4,4,5,1,,,,,,,,,,,,,,,,,,,,,,,
,,,,,WIN24_055,21,Male,2024-02-12_13h31.07.950,jersey_experiment_5,2023.2.2,Win32,85.47008547,,,,,,,,,,,,,,,,778.2391,780.0391,780.0392,780.6745,return,0.1567,,49.86979167,,,,,,FBP-PT-81.png,0.45,1.2,55,1,,,,,,,,,,,,,,,,,,0,5,5,54,1,,,,,,,,,,,,,,,,,,,,,,,
,,,,,WIN24_055,21,Male,2024-02-12_13h31.07.950,jersey_experiment_5,2023.2.2,Win32,85.47008547,,,,,,,,,,,,,,,,780.6747,781.9686,781.9687,782.5334,return,0.2486,,49.86979167,,,,,,FBP-YG-18.png,0.45,1.2,40,0.5,,,,,,,,,,,,,,,,,,0,6,6,39,1,,,,,,,,,,,,,,,,,,,,,,,
,,,,,WIN24_055,21,Male,2024-02-12_13h31.07.950,jersey_experiment_5,2023.2.2,Win32,85.47008547,,,,,,,,,,,,,,,,782.5337,784.3334,784.3334,784.9099,return,0.2184,,49.86979167,,,,,,FBP-OG-19.png,0.4,1.2,13,1,,,,,,,,,,,,,,,,,,0,7,7,12,1,,,,,,,,,,,,,,,,,,,,,,,
,,,,,WIN24_055,21,Male,2024-02-12_13h31.07.950,jersey_experiment_5,2023.2.2,Win32,85.47008547,,,,,,,,,,,,,,,,784.9101,786.7099,786.71,787.569,return,0.3228,,45.18229167,,,,,,FBP-PT-81.png,0.37,1.2,52,1,,,,,,,,,,,,,,,,,,0,8,8,51,1,,,,,,,,,,,,,,,,,,,,,,,
,,,,,WIN24_055,21,Male,2024-02-12_13h31.07.950,jersey_experiment_5,2023.2.2,Win32,85.47008547,,,,,,,,,,,,,,,,787.5693,788.863,788.863,790.7221,return,0.18,,55.59895833,,,,,,FBP-RB-71.png,0.43,1.2,19,0.5,,,,,,,,,,,,,,,,,,0,9,9,18,1,,,,,,,,,,,,,,,,,,,,,,,
,,,,,WIN24_055,21,Male,2024-02-12_13h31.07.950,jersey_experiment_5,2023.2.2,Win32,85.47008547,,,,,,,,,,,,,,,,790.7224,792.0161,792.0161,792.7925,return,0.1185,,50.13020833,,,,,,FBP-RB-71.png,0.35,1.2,16,0.5,,,,,,,,,,,,,,,,,,0,10,10,15,1,,,,,,,,,,,,,,,,,,,,,,,
,,,,,WIN24_055,21,Male,2024-02-12_13h31.07.950,jersey_experiment_5,2023.2.2,Win32,85.47008547,,,,,,,,,,,,,,,,792.7927,794.5926,794.5926,796.0868,return,0.602,,74.609375,,,,,,FBP-OG-19.png,0.45,1.2,15,1,,,,,,,,,,,,,,,,,,0,11,11,14,1,,,,,,,,,,,,,,,,,,,,,,,
,,,,,WIN24_055,21,Male,2024-02-12_13h31.07.950,jersey_experiment_5,2023.2.2,Win32,85.47008547,,,,,,,,,,,,,,,,796.087,797.381,797.3811,798.4401,return,0.1328,,74.86979167,,,,,,FBP-YG-18.png,0.43,1.2,39,0.5,,,,,,,,,,,,,,,,,,0,12,12,38,1,,,,,,,,,,,,,,,,,,,,,,,
,,,,,WIN24_055,21,Male,2024-02-12_13h31.07.950,jersey_experiment_5,2023.2.2,Win32,85.47008547,,,,,,,,,,,,,,,,798.4403,799.7342,799.7342,800.5927,return,0.1227,,74.86979167,,,,,,FBP-RB-91.png,0.45,1.2,30,0.5,,,,,,,,,,,,,,,,,,0,13,13,29,1,,,,,,,,,,,,,,,,,,,,,,,
,,,,,WIN24_055,21,Male,2024-02-12_13h31.07.950,jersey_experiment_5,2023.2.2,Win32,85.47008547,,,,,,,,,,,,,,,,800.5928,801.8869,801.8869,802.9342,return,0.0371,,50.26041667,,,,,,FBP-YG-19.png,0.35,1.2,41,0.5,,,,,,,,,,,,,,,,,,0,14,14,40,1,,,,,,,,,,,,,,,,,,,,,,,
,,,,,WIN24_055,21,Male,2024-02-12_13h31.07.950,jersey_experiment_5,2023.2.2,Win32,85.47008547,,,,,,,,,,,,,,,,802.9343,804.7341,804.7342,805.2989,return,0.1546,,65.88541667,,,,,,FBP-PT-81.png,0.43,1.2,54,1,,,,,,,,,,,,,,,,,,0,15,15,53,1,,,,,,,,,,,,,,,,,,,,,,,
,,,,,WIN24_055,21,Male,2024-02-12_13h31.07.950,jersey_experiment_5,2023.2.2,Win32,85.47008547,,,,,,,,,,,,,,,,805.299,807.099,807.099,808.0402,return,0.1318,,50.13020833,,,,,,FBP-PT-81.png,0.35,1.2,51,1,,,,,,,,,,,,,,,,,,0,16,16,50,1,,,,,,,,,,,,,,,,,,,,,,,
,,,,,WIN24_055,21,Male,2024-02-12_13h31.07.950,jersey_experiment_5,2023.2.2,Win32,85.47008547,,,,,,,,,,,,,,,,808.0404,809.3344,809.3344,810.3814,return,0.16,,74.73958333,,,,,,FBP-YG-19.png,0.45,1.2,45,0.5,,,,,,,,,,,,,,,,,,0,17,17,44,1,,,,,,,,,,,,,,,,,,,,,,,
,,,,,WIN24_055,21,Male,2024-02-12_13h31.07.950,jersey_experiment_5,2023.2.2,Win32,85.47008547,,,,,,,,,,,,,,,,810.3817,812.1815,812.1815,812.558,return,0.1242,,50.13020833,,,,,,FBP-OG-18.png,0.37,1.2,7,1,,,,,,,,,,,,,,,,,,0,18,18,6,1,,,,,,,,,,,,,,,,,,,,,,,
,,,,,WIN24_055,21,Male,2024-02-12_13h31.07.950,jersey_experiment_5,2023.2.2,Win32,85.47008547,,,,,,,,,,,,,,,,812.5581,813.8522,813.8522,814.9818,return,0.2118,,74.609375,,,,,,FBP-YG-17.png,0.45,1.2,35,0.5,,,,,,,,,,,,,,,,,,0,19,19,34,1,,,,,,,,,,,,,,,,,,,,,,,
,,,,,WIN24_055,21,Male,2024-02-12_13h31.07.950,jersey_experiment_5,2023.2.2,Win32,85.47008547,,,,,,,,,,,,,,,,814.9819,816.2758,816.2758,817.1229,return,0.3208,,50.26041667,,,,,,FBP-RB-91.png,0.35,1.2,26,0.5,,,,,,,,,,,,,,,,,,0,20,20,25,1,,,,,,,,,,,,,,,,,,,,,,,
,,,,,WIN24_055,21,Male,2024-02-12_13h31.07.950,jersey_experiment_5,2023.2.2,Win32,85.47008547,,,,,,,,,,,,,,,,817.123,818.417,818.417,818.9347,return,0.1644,,49.86979167,,,,,,FBP-RB-71.png,0.37,1.2,17,0.5,,,,,,,,,,,,,,,,,,0,21,21,16,1,,,,,,,,,,,,,,,,,,,,,,,
,,,,,WIN24_055,21,Male,2024-02-12_13h31.07.950,jersey_experiment_5,2023.2.2,Win32,85.47008547,,,,,,,,,,,,,,,,818.9349,820.2289,820.2289,821.1585,return,0.1752,,54.81770833,,,,,,FBP-YG-19.png,0.43,1.2,44,0.5,,,,,,,,,,,,,,,,,,0,22,22,43,1,,,,,,,,,,,,,,,,,,,,,,,
,,,,,WIN24_055,21,Male,2024-02-12_13h31.07.950,jersey_experiment_5,2023.2.2,Win32,85.47008547,,,,,,,,,,,,,,,,821.1586,822.9586,822.9586,824.4879,return,0.6734,,49.73958333,,,,,,FBP-PT-71.png,0.37,1.2,47,1,,,,,,,,,,,,,,,,,,0,23,23,46,1,,,,,,,,,,,,,,,,,,,,,,,
,,,,,WIN24_055,21,Male,2024-02-12_13h31.07.950,jersey_experiment_5,2023.2.2,Win32,85.47008547,,,,,,,,,,,,,,,,824.4881,825.782,825.782,826.8647,return,0.2295,,60.41666667,,,,,,FBP-RB-71.png,0.45,1.2,20,0.5,,,,,,,,,,,,,,,,,,0,24,24,19,1,,,,,,,,,,,,,,,,,,,,,,,
,,,,,WIN24_055,21,Male,2024-02-12_13h31.07.950,jersey_experiment_5,2023.2.2,Win32,85.47008547,,,,,,,,,,,,,,,,826.865,828.6645,828.6645,829.5233,return,0.1886,,63.15104167,,,,,,FBP-OG-19.png,0.43,1.2,14,1,,,,,,,,,,,,,,,,,,0,25,25,13,1,,,,,,,,,,,,,,,,,,,,,,,
,,,,,WIN24_055,21,Male,2024-02-12_13h31.07.950,jersey_experiment_5,2023.2.2,Win32,85.47008547,,,,,,,,,,,,,,,,829.5236,830.8175,830.8175,832.4528,return,0.2362,,50.390625,,,,,,FBP-YG-17.png,0.4,1.2,33,0.5,,,,,,,,,,,,,,,,,,0,26,26,32,1,,,,,,,,,,,,,,,,,,,,,,,
,,,,,WIN24_055,21,Male,2024-02-12_13h31.07.950,jersey_experiment_5,2023.2.2,Win32,85.47008547,,,,,,,,,,,,,,,,832.453,833.7469,833.7469,834.5119,return,0.1461,,49.73958333,,,,,,FBP-YG-19.png,0.4,1.2,43,0.5,,,,,,,,,,,,,,,,,,0,27,27,42,1,,,,,,,,,,,,,,,,,,,,,,,
,,,,,WIN24_055,21,Male,2024-02-12_13h31.07.950,jersey_experiment_5,2023.2.2,Win32,85.47008547,,,,,,,,,,,,,,,,834.5121,836.3119,836.3119,836.9824,return,0.2824,,42.44791667,,,,,,FBP-PT-71.png,0.35,1.2,46,1,,,,,,,,,,,,,,,,,,0,28,28,45,1,,,,,,,,,,,,,,,,,,,,,,,
,,,,,WIN24_055,21,Male,2024-02-12_13h31.07.950,jersey_experiment_5,2023.2.2,Win32,85.47008547,,,,,,,,,,,,,,,,836.9827,838.7824,838.7824,840.4531,return,1.3187,,59.24479167,,,,,,FBP-PT-91.png,0.43,1.2,59,1,,,,,,,,,,,,,,,,,,0,29,29,58,1,,,,,,,,,,,,,,,,,,,,,,,
,,,,,WIN24_055,21,Male,2024-02-12_13h31.07.950,jersey_experiment_5,2023.2.2,Win32,85.47008547,,,,,,,,,,,,,,,,840.4532,841.7473,841.7473,843.8415,return,1.675,,40.625,,,,,,FBP-RB-81.png,0.35,1.2,21,0.5,,,,,,,,,,,,,,,,,,0,30,30,20,1,,,,,,,,,,,,,,,,,,,,,,,
,,,,,WIN24_055,21,Male,2024-02-12_13h31.07.950,jersey_experiment_5,2023.2.2,Win32,85.47008547,,,,,,,,,,,,,,,,843.8417,845.1355,845.1355,846.4534,return,0.777,,35.67708333,,,,,,FBP-YG-18.png,0.35,1.2,36,0.5,,,,,,,,,,,,,,,,,,0,31,31,35,1,,,,,,,,,,,,,,,,,,,,,,,
,,,,,WIN24_055,21,Male,2024-02-12_13h31.07.950,jersey_experiment_5,2023.2.2,Win32,85.47008547,,,,,,,,,,,,,,,,846.4536,848.2533,848.2533,849.2299,return,0.3243,,49.86979167,,,,,,FBP-OG-18.png,0.4,1.2,8,1,,,,,,,,,,,,,,,,,,0,32,32,7,1,,,,,,,,,,,,,,,,,,,,,,,
,,,,,WIN24_055,21,Male,2024-02-12_13h31.07.950,jersey_experiment_5,2023.2.2,Win32,85.47008547,,,,,,,,,,,,,,,,849.23,851.03,851.03,851.63,return,0.1593,,50.13020833,,,,,,FBP-PT-71.png,0.4,1.2,48,1,,,,,,,,,,,,,,,,,,0,33,33,47,1,,,,,,,,,,,,,,,,,,,,,,,
,,,,,WIN24_055,21,Male,2024-02-12_13h31.07.950,jersey_experiment_5,2023.2.2,Win32,85.47008547,,,,,,,,,,,,,,,,851.6302,852.9241,852.9242,853.6182,return,0.1804,,50.13020833,,,,,,FBP-YG-18.png,0.4,1.2,38,0.5,,,,,,,,,,,,,,,,,,0,34,34,37,1,,,,,,,,,,,,,,,,,,,,,,,
,,,,,WIN24_055,21,Male,2024-02-12_13h31.07.950,jersey_experiment_5,2023.2.2,Win32,85.47008547,,,,,,,,,,,,,,,,853.6184,854.9125,854.9125,855.6655,return,0.134,,50.13020833,,,,,,FBP-RB-91.png,0.43,1.2,29,0.5,,,,,,,,,,,,,,,,,,0,35,35,28,1,,,,,,,,,,,,,,,,,,,,,,,
,,,,,WIN24_055,21,Male,2024-02-12_13h31.07.950,jersey_experiment_5,2023.2.2,Win32,85.47008547,,,,,,,,,,,,,,,,855.6657,856.9597,856.9597,857.5714,return,0.1324,,50,,,,,,FBP-YG-17.png,0.37,1.2,32,0.5,,,,,,,,,,,,,,,,,,0,36,36,31,1,,,,,,,,,,,,,,,,,,,,,,,
,,,,,WIN24_055,21,Male,2024-02-12_13h31.07.950,jersey_experiment_5,2023.2.2,Win32,85.47008547,,,,,,,,,,,,,,,,857.5717,859.3714,859.3714,861.7953,return,1.8254,,62.76041667,,,,,,FBP-OG-17.png,0.43,1.2,4,1,,,,,,,,,,,,,,,,,,0,37,37,3,1,,,,,,,,,,,,,,,,,,,,,,,
,,,,,WIN24_055,21,Male,2024-02-12_13h31.07.950,jersey_experiment_5,2023.2.2,Win32,85.47008547,,,,,,,,,,,,,,,,861.7955,863.5951,863.5952,865.2188,return,0.2741,,75.26041667,,,,,,FBP-PT-91.png,0.45,1.2,60,1,,,,,,,,,,,,,,,,,,0,38,38,59,1,,,,,,,,,,,,,,,,,,,,,,,
,,,,,WIN24_055,21,Male,2024-02-12_13h31.07.950,jersey_experiment_5,2023.2.2,Win32,85.47008547,,,,,,,,,,,,,,,,865.2189,866.5129,866.5129,867.4776,return,0.2022,,75,,,,,,FBP-RB-81.png,0.43,1.2,24,0.5,,,,,,,,,,,,,,,,,,0,39,39,23,1,,,,,,,,,,,,,,,,,,,,,,,
,,,,,WIN24_055,21,Male,2024-02-12_13h31.07.950,jersey_experiment_5,2023.2.2,Win32,85.47008547,,,,,,,,,,,,,,,,867.4779,868.7719,868.7719,869.9601,return,0.1415,,50.26041667,,,,,,FBP-RB-81.png,0.4,1.2,23,0.5,,,,,,,,,,,,,,,,,,0,40,40,22,1,,,,,,,,,,,,,,,,,,,,,,,
,,,,,WIN24_055,21,Male,2024-02-12_13h31.07.950,jersey_experiment_5,2023.2.2,Win32,85.47008547,,,,,,,,,,,,,,,,869.9602,871.7603,871.7603,872.8544,return,0.5654,,74.86979167,,,,,,FBP-PT-71.png,0.45,1.2,50,1,,,,,,,,,,,,,,,,,,0,41,41,49,1,,,,,,,,,,,,,,,,,,,,,,,
,,,,,WIN24_055,21,Male,2024-02-12_13h31.07.950,jersey_experiment_5,2023.2.2,Win32,85.47008547,,,,,,,,,,,,,,,,872.8546,874.1485,874.1485,876.2428,return,1.2268,,24.34895833,,,,,,FBP-YG-17.png,0.35,1.2,31,0.5,,,,,,,,,,,,,,,,,,0,42,42,30,1,,,,,,,,,,,,,,,,,,,,,,,
,,,,,WIN24_055,21,Male,2024-02-12_13h31.07.950,jersey_experiment_5,2023.2.2,Win32,85.47008547,,,,,,,,,,,,,,,,876.243,877.5367,877.5367,878.0194,return,0.1425,,49.86979167,,,,,,FBP-RB-71.png,0.4,1.2,18,0.5,,,,,,,,,,,,,,,,,,0,43,43,17,1,,,,,,,,,,,,,,,,,,,,,,,
,,,,,WIN24_055,21,Male,2024-02-12_13h31.07.950,jersey_experiment_5,2023.2.2,Win32,85.47008547,,,,,,,,,,,,,,,,878.0196,879.8192,879.8192,880.8666,return,0.1331,,24.609375,,,,,,FBP-OG-19.png,0.35,1.2,11,1,,,,,,,,,,,,,,,,,,0,44,44,10,1,,,,,,,,,,,,,,,,,,,,,,,
,,,,,WIN24_055,21,Male,2024-02-12_13h31.07.950,jersey_experiment_5,2023.2.2,Win32,85.47008547,,,,,,,,,,,,,,,,880.8668,882.1605,882.1606,883.1724,return,0.1785,,25.13020833,,,,,,FBP-YG-19.png,0.37,1.2,42,0.5,,,,,,,,,,,,,,,,,,0,45,45,41,1,,,,,,,,,,,,,,,,,,,,,,,
,,,,,WIN24_055,21,Male,2024-02-12_13h31.07.950,jersey_experiment_5,2023.2.2,Win32,85.47008547,,,,,,,,,,,,,,,,883.1727,884.4665,884.4666,885.3488,return,0.4817,,49.73958333,,,,,,FBP-RB-91.png,0.4,1.2,28,0.5,,,,,,,,,,,,,,,,,,0,46,46,27,1,,,,,,,,,,,,,,,,,,,,,,,
,,,,,WIN24_055,21,Male,2024-02-12_13h31.07.950,jersey_experiment_5,2023.2.2,Win32,85.47008547,,,,,,,,,,,,,,,,885.349,886.6429,886.6429,889.9372,return,0.2268,,49.86979167,,,,,,FBP-YG-17.png,0.43,1.2,34,0.5,,,,,,,,,,,,,,,,,,0,47,47,33,1,,,,,,,,,,,,,,,,,,,,,,,
,,,,,WIN24_055,21,Male,2024-02-12_13h31.07.950,jersey_experiment_5,2023.2.2,Win32,85.47008547,,,,,,,,,,,,,,,,889.9374,891.7374,891.7374,892.9141,return,0.1201,,25.13020833,,,,,,FBP-OG-17.png,0.35,1.2,1,1,,,,,,,,,,,,,,,,,,0,48,48,0,1,,,,,,,,,,,,,,,,,,,,,,,
,,,,,WIN24_055,21,Male,2024-02-12_13h31.07.950,jersey_experiment_5,2023.2.2,Win32,85.47008547,,,,,,,,,,,,,,,,892.9143,894.7138,894.7138,896.9611,return,1.5934,,50.13020833,,,,,,FBP-OG-18.png,0.43,1.2,9,1,,,,,,,,,,,,,,,,,,0,49,49,8,1,,,,,,,,,,,,,,,,,,,,,,,
,,,,,WIN24_055,21,Male,2024-02-12_13h31.07.950,jersey_experiment_5,2023.2.2,Win32,85.47008547,,,,,,,,,,,,,,,,896.9614,898.7612,898.7612,899.8553,return,0.3482,,25.52083333,,,,,,FBP-PT-91.png,0.35,1.2,56,1,,,,,,,,,,,,,,,,,,0,50,50,55,1,,,,,,,,,,,,,,,,,,,,,,,
,,,,,WIN24_055,21,Male,2024-02-12_13h31.07.950,jersey_experiment_5,2023.2.2,Win32,85.47008547,,,,,,,,,,,,,,,,899.8555,901.6553,901.6553,902.3847,return,0.0995,,49.21875,,,,,,FBP-PT-81.png,0.4,1.2,53,1,,,,,,,,,,,,,,,,,,0,51,51,52,1,,,,,,,,,,,,,,,,,,,,,,,
,,,,,WIN24_055,21,Male,2024-02-12_13h31.07.950,jersey_experiment_5,2023.2.2,Win32,85.47008547,,,,,,,,,,,,,,,,902.3848,904.1849,904.1849,904.6907,return,0.1913,,50.52083333,,,,,,FBP-OG-19.png,0.37,1.2,12,1,,,,,,,,,,,,,,,,,,0,52,52,11,1,,,,,,,,,,,,,,,,,,,,,,,
,,,,,WIN24_055,21,Male,2024-02-12_13h31.07.950,jersey_experiment_5,2023.2.2,Win32,85.47008547,,,,,,,,,,,,,,,,904.691,905.985,905.985,906.6791,return,0.0959,,50,,,,,,FBP-RB-91.png,0.37,1.2,27,0.5,,,,,,,,,,,,,,,,,,0,53,53,26,1,,,,,,,,,,,,,,,,,,,,,,,
,,,,,WIN24_055,21,Male,2024-02-12_13h31.07.950,jersey_experiment_5,2023.2.2,Win32,85.47008547,,,,,,,,,,,,,,,,906.6793,908.4793,908.4793,909.585,return,0.1934,,74.21875,,,,,,FBP-OG-17.png,0.45,1.2,5,1,,,,,,,,,,,,,,,,,,0,54,54,4,1,,,,,,,,,,,,,,,,,,,,,,,
,,,,,WIN24_055,21,Male,2024-02-12_13h31.07.950,jersey_experiment_5,2023.2.2,Win32,85.47008547,,,,,,,,,,,,,,,,909.5852,910.8792,910.8792,911.5854,return,0.1223,,49.73958333,,,,,,FBP-RB-81.png,0.37,1.2,22,0.5,,,,,,,,,,,,,,,,,,0,55,55,21,1,,,,,,,,,,,,,,,,,,,,,,,
,,,,,WIN24_055,21,Male,2024-02-12_13h31.07.950,jersey_experiment_5,2023.2.2,Win32,85.47008547,,,,,,,,,,,,,,,,911.5856,912.8792,912.8792,914.4558,return,0.4238,,75,,,,,,FBP-RB-81.png,0.45,1.2,25,0.5,,,,,,,,,,,,,,,,,,0,56,56,24,1,,,,,,,,,,,,,,,,,,,,,,,
,,,,,WIN24_055,21,Male,2024-02-12_13h31.07.950,jersey_experiment_5,2023.2.2,Win32,85.47008547,,,,,,,,,,,,,,,,914.456,916.2561,916.2561,916.9735,return,0.1596,,50,,,,,,FBP-PT-91.png,0.37,1.2,57,1,,,,,,,,,,,,,,,,,,0,57,57,56,1,,,,,,,,,,,,,,,,,,,,,,,
,,,,,WIN24_055,21,Male,2024-02-12_13h31.07.950,jersey_experiment_5,2023.2.2,Win32,85.47008547,,,,,,,,,,,,,,,,916.9735,918.7736,918.7736,919.5971,return,0.1384,,50,,,,,,FBP-OG-17.png,0.37,1.2,2,1,,,,,,,,,,,,,,,,,,0,58,58,1,1,,,,,,,,,,,,,,,,,,,,,,,
,,,,,WIN24_055,21,Male,2024-02-12_13h31.07.950,jersey_experiment_5,2023.2.2,Win32,85.47008547,,,,,,,,,,,,,,,,919.5974,921.3972,921.3972,923.4797,return,0.4934,,74.86979167,,,,,,FBP-OG-18.png,0.45,1.2,10,1,,,,,,,,,,,,,,,,,,0,59,59,9,1,,,,,,,,,,,,,,,,,,,,,,,
,,,,,WIN24_055,21,Male,2024-02-12_13h31.07.950,jersey_experiment_5,2023.2.2,Win32,85.47008547,,,,,,,,,,,,,,,,,,,,,,,,,,,,,,,,,,,,,,,,,,,,,,,,,,,,,,,,923.4799,928.9741,return,5.4893,,,,,,,,,,,,,,,,,,,
,,,,,WIN24_055,21,Male,2024-02-12_13h31.07.950,jersey_experiment_5,2023.2.2,Win32,85.47008547,,,,,,,,,,,,,,,,,,,,,,,,,,,,,,,,,,,,,,,,,,,,,,,,,,,,,,,,,,,,,928.9741,937.9509,1,7.5703,return,1.3925,,,,,,,,,,,,
,,,,,WIN24_055,21,Male,2024-02-12_13h31.07.950,jersey_experiment_5,2023.2.2,Win32,85.47008547,,,,,,,,,,,,,,,,,,,,,,,,,,,,,,,,,,,,,,,,,,,,,,,,,,,,,,,,,,,,,,,,,,,,937.951,1053.9601,"No idea what the study is about, seemed like it would display a couple of the same category in a row then a normal.",right,106.9689,,,,,,
,,,,,WIN24_055,21,Male,2024-02-12_13h31.07.950,jersey_experiment_5,2023.2.2,Win32,85.47008547,,,,,,,,,,,,,,,,,,,,,,,,,,,,,,,,,,,,,,,,,,,,,,,,,,,,,,,,,,,,,,,,,,,,,,,,,,1053.9602,1057.7905,return,3.8174,