requirements.started,requirements.stopped,key_resp_3.keys,key_resp_3.rt,key_resp_3.duration,Subject ID,Age,Gender,date,expName,psychopyVersion,OS,frameRate,instructions1.started,instructions1.stopped,key_resp.keys,key_resp.rt,key_resp.duration,example.started,example.stopped,enter_2.keys,enter_2.rt,enter_2.duration,instructions2.started,instructions2.stopped,enter_3.keys,enter_3.rt,enter_3.duration,image.started,image.stopped,slider_2.started,slider_2.stopped,next.keys,next.rt,next.duration,slider.response,trial_block_1.thisRepN,trial_block_1.thisTrialN,trial_block_1.thisN,trial_block_1.thisIndex,trial_block_1.ran,Path,Width,Height,Index,Duration,trial_block_2.thisRepN,trial_block_2.thisTrialN,trial_block_2.thisN,trial_block_2.thisIndex,trial_block_2.ran,rest_break.started,rest_break.stopped,end_break.started,end_break.stopped,key_resp_5.keys,key_resp_5.rt,key_resp_5.duration,trial_block_3.thisRepN,trial_block_3.thisTrialN,trial_block_3.thisN,trial_block_3.thisIndex,trial_block_3.ran,trial_block_4.thisRepN,trial_block_4.thisTrialN,trial_block_4.thisN,trial_block_4.thisIndex,trial_block_4.ran,questions_intro.started,questions_intro.stopped,enter_12.keys,enter_12.rt,enter_12.duration,question2.started,question2.stopped,question_doingbest.response,question_doingbest.rt,enter_15.keys,enter_15.rt,enter_15.duration,pattern.started,pattern.stopped,pattern_2.text,enter_17.keys,enter_17.rt,enter_17.duration,thankyou.started,thankyou.stopped,enter_14.keys,enter_14.rt,enter_14.duration
0.0001,22.0715,return,22.0593,,WIN24_051,,Female,2024-02-09_13h59.32.584,jersey_experiment_5,2023.2.2,Win32,85.47008547,,,,,,,,,,,,,,,,,,,,,,,,,,,,,,,,,,,,,,,,,,,,,,,,,,,,,,,,,,,,,,,,,,,,,,,,,,,,,,
,,,,,WIN24_051,,Female,2024-02-09_13h59.32.584,jersey_experiment_5,2023.2.2,Win32,85.47008547,22.0716,36.4366,return,14.3429,,,,,,,,,,,,,,,,,,,,,,,,,,,,,,,,,,,,,,,,,,,,,,,,,,,,,,,,,,,,,,,,,,,,,,,,,,
,,,,,WIN24_051,,Female,2024-02-09_13h59.32.584,jersey_experiment_5,2023.2.2,Win32,85.47008547,,,,,,36.4367,45.1899,return,8.7148,,,,,,,,,,,,,,,,,,,,,,,,,,,,,,,,,,,,,,,,,,,,,,,,,,,,,,,,,,,,,,,,,,,,,
,,,,,WIN24_051,,Female,2024-02-09_13h59.32.584,jersey_experiment_5,2023.2.2,Win32,85.47008547,,,,,,,,,,,45.1899,73.7909,return,28.5958,,,,,,,,,,,,,,,,,,,,,,,,,,,,,,,,,,,,,,,,,,,,,,,,,,,,,,,,,,,,,,,,
,,,,,WIN24_051,,Female,2024-02-09_13h59.32.584,jersey_experiment_5,2023.2.2,Win32,85.47008547,,,,,,,,,,,,,,,,73.7936,75.5908,75.5908,89.3324,return,2.0502,,63.28125,0,0,0,37,1,FBP-YG-81.png,0.4,1.2,38,1,,,,,,,,,,,,,,,,,,,,,,,,,,,,,,,,,,,,,,,,,,,,,
,,,,,WIN24_051,,Female,2024-02-09_13h59.32.584,jersey_experiment_5,2023.2.2,Win32,85.47008547,,,,,,,,,,,,,,,,89.3327,91.1324,91.1325,94.2739,return,0.5329,,87.109375,0,1,1,19,1,FBP-RB-17.png,0.45,1.2,20,1,,,,,,,,,,,,,,,,,,,,,,,,,,,,,,,,,,,,,,,,,,,,,
,,,,,WIN24_051,,Female,2024-02-09_13h59.32.584,jersey_experiment_5,2023.2.2,Win32,85.47008547,,,,,,,,,,,,,,,,94.2741,96.0739,96.0741,100.8976,return,0.3336,,25.390625,0,2,2,30,1,FBP-YG-71.png,0.35,1.2,31,1,,,,,,,,,,,,,,,,,,,,,,,,,,,,,,,,,,,,,,,,,,,,,
,,,,,WIN24_051,,Female,2024-02-09_13h59.32.584,jersey_experiment_5,2023.2.2,Win32,85.47008547,,,,,,,,,,,,,,,,100.8978,102.1917,102.1917,105.3447,return,0.3481,,62.36979167,0,3,3,6,1,FBP-OG-81.png,0.37,1.2,7,0.5,,,,,,,,,,,,,,,,,,,,,,,,,,,,,,,,,,,,,,,,,,,,,
,,,,,WIN24_051,,Female,2024-02-09_13h59.32.584,jersey_experiment_5,2023.2.2,Win32,85.47008547,,,,,,,,,,,,,,,,105.345,106.6389,106.6389,109.286,return,0.2134,,75.26041667,0,4,4,56,1,FBP-PT-19.png,0.37,1.2,57,0.5,,,,,,,,,,,,,,,,,,,,,,,,,,,,,,,,,,,,,,,,,,,,,
,,,,,WIN24_051,,Female,2024-02-09_13h59.32.584,jersey_experiment_5,2023.2.2,Win32,85.47008547,,,,,,,,,,,,,,,,109.2863,111.086,111.086,115.0274,return,2.7197,,70.18229167,0,5,5,26,1,FBP-RB-19.png,0.37,1.2,27,1,,,,,,,,,,,,,,,,,,,,,,,,,,,,,,,,,,,,,,,,,,,,,
,,,,,WIN24_051,,Female,2024-02-09_13h59.32.584,jersey_experiment_5,2023.2.2,Win32,85.47008547,,,,,,,,,,,,,,,,115.0276,116.3215,116.3216,119.157,return,1.1778,,83.85416667,0,6,6,7,1,FBP-OG-81.png,0.4,1.2,8,0.5,,,,,,,,,,,,,,,,,,,,,,,,,,,,,,,,,,,,,,,,,,,,,
,,,,,WIN24_051,,Female,2024-02-09_13h59.32.584,jersey_experiment_5,2023.2.2,Win32,85.47008547,,,,,,,,,,,,,,,,119.1573,120.9569,120.9569,122.1689,return,0.3434,,75.65104167,0,7,7,41,1,FBP-YG-91.png,0.37,1.2,42,1,,,,,,,,,,,,,,,,,,,,,,,,,,,,,,,,,,,,,,,,,,,,,
,,,,,WIN24_051,,Female,2024-02-09_13h59.32.584,jersey_experiment_5,2023.2.2,Win32,85.47008547,,,,,,,,,,,,,,,,122.169,123.9688,123.9688,125.6984,return,0.2053,,63.28125,0,8,8,32,1,FBP-YG-71.png,0.4,1.2,33,1,,,,,,,,,,,,,,,,,,,,,,,,,,,,,,,,,,,,,,,,,,,,,
,,,,,WIN24_051,,Female,2024-02-09_13h59.32.584,jersey_experiment_5,2023.2.2,Win32,85.47008547,,,,,,,,,,,,,,,,125.6986,127.4985,127.4985,129.5454,return,0.1648,,86.19791667,0,9,9,34,1,FBP-YG-71.png,0.45,1.2,35,1,,,,,,,,,,,,,,,,,,,,,,,,,,,,,,,,,,,,,,,,,,,,,
,,,,,WIN24_051,,Female,2024-02-09_13h59.32.584,jersey_experiment_5,2023.2.2,Win32,85.47008547,,,,,,,,,,,,,,,,129.5457,130.8397,130.8397,132.993,return,0.3248,,99.47916667,0,10,10,58,1,FBP-PT-19.png,0.43,1.2,59,0.5,,,,,,,,,,,,,,,,,,,,,,,,,,,,,,,,,,,,,,,,,,,,,
,,,,,WIN24_051,,Female,2024-02-09_13h59.32.584,jersey_experiment_5,2023.2.2,Win32,85.47008547,,,,,,,,,,,,,,,,132.9932,134.2869,134.2869,136.4987,return,0.2151,,99.609375,0,11,11,49,1,FBP-PT-17.png,0.45,1.2,50,0.5,,,,,,,,,,,,,,,,,,,,,,,,,,,,,,,,,,,,,,,,,,,,,
,,,,,WIN24_051,,Female,2024-02-09_13h59.32.584,jersey_experiment_5,2023.2.2,Win32,85.47008547,,,,,,,,,,,,,,,,136.4989,137.7929,137.7929,138.7107,return,0.2502,,99.34895833,0,12,12,53,1,FBP-PT-18.png,0.43,1.2,54,0.5,,,,,,,,,,,,,,,,,,,,,,,,,,,,,,,,,,,,,,,,,,,,,
,,,,,WIN24_051,,Female,2024-02-09_13h59.32.584,jersey_experiment_5,2023.2.2,Win32,85.47008547,,,,,,,,,,,,,,,,138.7109,140.0048,140.0048,140.6872,return,0.1468,,99.34895833,0,13,13,14,1,FBP-OG-91.png,0.45,1.2,15,0.5,,,,,,,,,,,,,,,,,,,,,,,,,,,,,,,,,,,,,,,,,,,,,
,,,,,WIN24_051,,Female,2024-02-09_13h59.32.584,jersey_experiment_5,2023.2.2,Win32,85.47008547,,,,,,,,,,,,,,,,140.6875,142.4872,142.4872,144.1698,return,0.2263,,99.34895833,0,14,14,23,1,FBP-RB-18.png,0.43,1.2,24,1,,,,,,,,,,,,,,,,,,,,,,,,,,,,,,,,,,,,,,,,,,,,,
,,,,,WIN24_051,,Female,2024-02-09_13h59.32.584,jersey_experiment_5,2023.2.2,Win32,85.47008547,,,,,,,,,,,,,,,,144.1699,145.4638,145.4638,148.0052,return,0.683,,74.609375,0,15,15,12,1,FBP-OG-91.png,0.4,1.2,13,0.5,,,,,,,,,,,,,,,,,,,,,,,,,,,,,,,,,,,,,,,,,,,,,
,,,,,WIN24_051,,Female,2024-02-09_13h59.32.584,jersey_experiment_5,2023.2.2,Win32,85.47008547,,,,,,,,,,,,,,,,148.0053,149.8052,149.8052,151.264,return,0.243,,64.58333333,0,16,16,27,1,FBP-RB-19.png,0.4,1.2,28,1,,,,,,,,,,,,,,,,,,,,,,,,,,,,,,,,,,,,,,,,,,,,,
,,,,,WIN24_051,,Female,2024-02-09_13h59.32.584,jersey_experiment_5,2023.2.2,Win32,85.47008547,,,,,,,,,,,,,,,,151.2643,153.0643,153.0643,154.1701,return,0.1883,,74.34895833,0,17,17,33,1,FBP-YG-71.png,0.43,1.2,34,1,,,,,,,,,,,,,,,,,,,,,,,,,,,,,,,,,,,,,,,,,,,,,
,,,,,WIN24_051,,Female,2024-02-09_13h59.32.584,jersey_experiment_5,2023.2.2,Win32,85.47008547,,,,,,,,,,,,,,,,154.1703,155.4642,155.4642,156.4406,return,0.1504,,74.609375,0,18,18,48,1,FBP-PT-17.png,0.43,1.2,49,0.5,,,,,,,,,,,,,,,,,,,,,,,,,,,,,,,,,,,,,,,,,,,,,
,,,,,WIN24_051,,Female,2024-02-09_13h59.32.584,jersey_experiment_5,2023.2.2,Win32,85.47008547,,,,,,,,,,,,,,,,156.4409,157.7347,157.7347,161.088,return,2.0196,,50.390625,0,19,19,50,1,FBP-PT-18.png,0.35,1.2,51,0.5,,,,,,,,,,,,,,,,,,,,,,,,,,,,,,,,,,,,,,,,,,,,,
,,,,,WIN24_051,,Female,2024-02-09_13h59.32.584,jersey_experiment_5,2023.2.2,Win32,85.47008547,,,,,,,,,,,,,,,,161.0882,162.888,162.888,164.2881,return,0.2408,,38.671875,0,20,20,20,1,FBP-RB-18.png,0.35,1.2,21,1,,,,,,,,,,,,,,,,,,,,,,,,,,,,,,,,,,,,,,,,,,,,,
,,,,,WIN24_051,,Female,2024-02-09_13h59.32.584,jersey_experiment_5,2023.2.2,Win32,85.47008547,,,,,,,,,,,,,,,,164.2882,165.5822,165.5822,166.5821,return,0.1515,,50,0,21,21,1,1,FBP-OG-71.png,0.37,1.2,2,0.5,,,,,,,,,,,,,,,,,,,,,,,,,,,,,,,,,,,,,,,,,,,,,
,,,,,WIN24_051,,Female,2024-02-09_13h59.32.584,jersey_experiment_5,2023.2.2,Win32,85.47008547,,,,,,,,,,,,,,,,166.5823,168.3825,168.3825,170.0059,return,0.1175,,79.03645833,0,22,22,18,1,FBP-RB-17.png,0.43,1.2,19,1,,,,,,,,,,,,,,,,,,,,,,,,,,,,,,,,,,,,,,,,,,,,,
,,,,,WIN24_051,,Female,2024-02-09_13h59.32.584,jersey_experiment_5,2023.2.2,Win32,85.47008547,,,,,,,,,,,,,,,,170.0062,171.8058,171.8058,172.8178,return,0.1709,,74.86979167,0,23,23,40,1,FBP-YG-91.png,0.35,1.2,41,1,,,,,,,,,,,,,,,,,,,,,,,,,,,,,,,,,,,,,,,,,,,,,
,,,,,WIN24_051,,Female,2024-02-09_13h59.32.584,jersey_experiment_5,2023.2.2,Win32,85.47008547,,,,,,,,,,,,,,,,172.8179,174.1118,174.1118,178.1591,return,2.8087,,88.671875,0,24,24,13,1,FBP-OG-91.png,0.43,1.2,14,0.5,,,,,,,,,,,,,,,,,,,,,,,,,,,,,,,,,,,,,,,,,,,,,
,,,,,WIN24_051,,Female,2024-02-09_13h59.32.584,jersey_experiment_5,2023.2.2,Win32,85.47008547,,,,,,,,,,,,,,,,178.1594,179.9592,179.9592,180.818,return,0.1706,,88.54166667,0,25,25,43,1,FBP-YG-91.png,0.43,1.2,44,1,,,,,,,,,,,,,,,,,,,,,,,,,,,,,,,,,,,,,,,,,,,,,
,,,,,WIN24_051,,Female,2024-02-09_13h59.32.584,jersey_experiment_5,2023.2.2,Win32,85.47008547,,,,,,,,,,,,,,,,180.8182,182.6182,182.6183,183.8064,return,0.0799,,91.40625,0,26,26,38,1,FBP-YG-81.png,0.43,1.2,39,1,,,,,,,,,,,,,,,,,,,,,,,,,,,,,,,,,,,,,,,,,,,,,
,,,,,WIN24_051,,Female,2024-02-09_13h59.32.584,jersey_experiment_5,2023.2.2,Win32,85.47008547,,,,,,,,,,,,,,,,183.8067,185.6065,185.6065,187.983,return,0.5238,,62.5,0,27,27,22,1,FBP-RB-18.png,0.4,1.2,23,1,,,,,,,,,,,,,,,,,,,,,,,,,,,,,,,,,,,,,,,,,,,,,
,,,,,WIN24_051,,Female,2024-02-09_13h59.32.584,jersey_experiment_5,2023.2.2,Win32,85.47008547,,,,,,,,,,,,,,,,187.9831,189.2772,189.2772,191.1361,return,1.2902,,74.47916667,0,28,28,8,1,FBP-OG-81.png,0.43,1.2,9,0.5,,,,,,,,,,,,,,,,,,,,,,,,,,,,,,,,,,,,,,,,,,,,,
,,,,,WIN24_051,,Female,2024-02-09_13h59.32.584,jersey_experiment_5,2023.2.2,Win32,85.47008547,,,,,,,,,,,,,,,,191.1363,192.4303,192.4303,193.3832,return,0.0239,,84.63541667,0,29,29,9,1,FBP-OG-81.png,0.45,1.2,10,0.5,,,,,,,,,,,,,,,,,,,,,,,,,,,,,,,,,,,,,,,,,,,,,
,,,,,WIN24_051,,Female,2024-02-09_13h59.32.584,jersey_experiment_5,2023.2.2,Win32,85.47008547,,,,,,,,,,,,,,,,193.3835,194.6773,194.6773,196.807,return,0.1176,,43.09895833,0,30,30,51,1,FBP-PT-18.png,0.37,1.2,52,0.5,,,,,,,,,,,,,,,,,,,,,,,,,,,,,,,,,,,,,,,,,,,,,
,,,,,WIN24_051,,Female,2024-02-09_13h59.32.584,jersey_experiment_5,2023.2.2,Win32,85.47008547,,,,,,,,,,,,,,,,196.8072,198.6069,198.6069,200.0541,return,0.2024,,37.890625,0,31,31,21,1,FBP-RB-18.png,0.37,1.2,22,1,,,,,,,,,,,,,,,,,,,,,,,,,,,,,,,,,,,,,,,,,,,,,
,,,,,WIN24_051,,Female,2024-02-09_13h59.32.584,jersey_experiment_5,2023.2.2,Win32,85.47008547,,,,,,,,,,,,,,,,200.0541,201.854,201.854,203.5365,return,0.1368,,37.890625,0,32,32,16,1,FBP-RB-17.png,0.37,1.2,17,1,,,,,,,,,,,,,,,,,,,,,,,,,,,,,,,,,,,,,,,,,,,,,
,,,,,WIN24_051,,Female,2024-02-09_13h59.32.584,jersey_experiment_5,2023.2.2,Win32,85.47008547,,,,,,,,,,,,,,,,203.5367,204.8307,204.8307,206.0895,return,0.2116,,31.640625,0,33,33,57,1,FBP-PT-19.png,0.4,1.2,58,0.5,,,,,,,,,,,,,,,,,,,,,,,,,,,,,,,,,,,,,,,,,,,,,
,,,,,WIN24_051,,Female,2024-02-09_13h59.32.584,jersey_experiment_5,2023.2.2,Win32,85.47008547,,,,,,,,,,,,,,,,206.0897,207.8899,207.8899,208.8074,return,0.2268,,22.91666667,0,34,34,36,1,FBP-YG-81.png,0.37,1.2,37,1,,,,,,,,,,,,,,,,,,,,,,,,,,,,,,,,,,,,,,,,,,,,,
,,,,,WIN24_051,,Female,2024-02-09_13h59.32.584,jersey_experiment_5,2023.2.2,Win32,85.47008547,,,,,,,,,,,,,,,,208.8076,210.6075,210.6076,212.3722,return,0.2014,,75,0,35,35,44,1,FBP-YG-91.png,0.45,1.2,45,1,,,,,,,,,,,,,,,,,,,,,,,,,,,,,,,,,,,,,,,,,,,,,
,,,,,WIN24_051,,Female,2024-02-09_13h59.32.584,jersey_experiment_5,2023.2.2,Win32,85.47008547,,,,,,,,,,,,,,,,212.3724,214.1723,214.1723,215.231,return,0.209,,12.5,0,36,36,15,1,FBP-RB-17.png,0.35,1.2,16,1,,,,,,,,,,,,,,,,,,,,,,,,,,,,,,,,,,,,,,,,,,,,,
,,,,,WIN24_051,,Female,2024-02-09_13h59.32.584,jersey_experiment_5,2023.2.2,Win32,85.47008547,,,,,,,,,,,,,,,,215.2312,216.5252,216.5253,217.8076,return,0.1115,,14.0625,0,37,37,45,1,FBP-PT-17.png,0.35,1.2,46,0.5,,,,,,,,,,,,,,,,,,,,,,,,,,,,,,,,,,,,,,,,,,,,,
,,,,,WIN24_051,,Female,2024-02-09_13h59.32.584,jersey_experiment_5,2023.2.2,Win32,85.47008547,,,,,,,,,,,,,,,,217.8077,219.6078,219.6079,221.4313,return,0.2358,,83.07291667,0,38,38,29,1,FBP-RB-19.png,0.45,1.2,30,1,,,,,,,,,,,,,,,,,,,,,,,,,,,,,,,,,,,,,,,,,,,,,
,,,,,WIN24_051,,Female,2024-02-09_13h59.32.584,jersey_experiment_5,2023.2.2,Win32,85.47008547,,,,,,,,,,,,,,,,221.4316,223.2315,223.2315,224.0784,return,0.1384,,19.140625,0,39,39,25,1,FBP-RB-19.png,0.35,1.2,26,1,,,,,,,,,,,,,,,,,,,,,,,,,,,,,,,,,,,,,,,,,,,,,
,,,,,WIN24_051,,Female,2024-02-09_13h59.32.584,jersey_experiment_5,2023.2.2,Win32,85.47008547,,,,,,,,,,,,,,,,224.0785,225.3726,225.3726,226.1961,return,0.0719,,83.07291667,0,40,40,59,1,FBP-PT-19.png,0.45,1.2,60,0.5,,,,,,,,,,,,,,,,,,,,,,,,,,,,,,,,,,,,,,,,,,,,,
,,,,,WIN24_051,,Female,2024-02-09_13h59.32.584,jersey_experiment_5,2023.2.2,Win32,85.47008547,,,,,,,,,,,,,,,,226.1964,227.9963,227.9964,229.0785,return,0.2129,,90.75520833,0,41,41,39,1,FBP-YG-81.png,0.45,1.2,40,1,,,,,,,,,,,,,,,,,,,,,,,,,,,,,,,,,,,,,,,,,,,,,
,,,,,WIN24_051,,Female,2024-02-09_13h59.32.584,jersey_experiment_5,2023.2.2,Win32,85.47008547,,,,,,,,,,,,,,,,229.0788,230.8787,230.8788,231.9846,return,0.3245,,87.76041667,0,42,42,17,1,FBP-RB-17.png,0.4,1.2,18,1,,,,,,,,,,,,,,,,,,,,,,,,,,,,,,,,,,,,,,,,,,,,,
,,,,,WIN24_051,,Female,2024-02-09_13h59.32.584,jersey_experiment_5,2023.2.2,Win32,85.47008547,,,,,,,,,,,,,,,,231.9849,233.2788,233.2788,234.5024,return,0.1179,,81.25,0,43,43,0,1,FBP-OG-71.png,0.35,1.2,1,0.5,,,,,,,,,,,,,,,,,,,,,,,,,,,,,,,,,,,,,,,,,,,,,
,,,,,WIN24_051,,Female,2024-02-09_13h59.32.584,jersey_experiment_5,2023.2.2,Win32,85.47008547,,,,,,,,,,,,,,,,234.5026,236.3024,236.3024,237.3967,return,0.2036,,77.86458333,0,44,44,42,1,FBP-YG-91.png,0.4,1.2,43,1,,,,,,,,,,,,,,,,,,,,,,,,,,,,,,,,,,,,,,,,,,,,,
,,,,,WIN24_051,,Female,2024-02-09_13h59.32.584,jersey_experiment_5,2023.2.2,Win32,85.47008547,,,,,,,,,,,,,,,,237.3969,239.1966,239.1966,240.7613,return,0.0852,,58.203125,0,45,45,31,1,FBP-YG-71.png,0.37,1.2,32,1,,,,,,,,,,,,,,,,,,,,,,,,,,,,,,,,,,,,,,,,,,,,,
,,,,,WIN24_051,,Female,2024-02-09_13h59.32.584,jersey_experiment_5,2023.2.2,Win32,85.47008547,,,,,,,,,,,,,,,,240.7616,242.5616,242.5616,243.3968,return,0.2029,,74.73958333,0,46,46,28,1,FBP-RB-19.png,0.43,1.2,29,1,,,,,,,,,,,,,,,,,,,,,,,,,,,,,,,,,,,,,,,,,,,,,
,,,,,WIN24_051,,Female,2024-02-09_13h59.32.584,jersey_experiment_5,2023.2.2,Win32,85.47008547,,,,,,,,,,,,,,,,243.3971,244.6909,244.6909,245.3851,return,0.0944,,74.73958333,0,47,47,2,1,FBP-OG-71.png,0.4,1.2,3,0.5,,,,,,,,,,,,,,,,,,,,,,,,,,,,,,,,,,,,,,,,,,,,,
,,,,,WIN24_051,,Female,2024-02-09_13h59.32.584,jersey_experiment_5,2023.2.2,Win32,85.47008547,,,,,,,,,,,,,,,,245.3853,246.6792,246.6792,250.0324,return,0.4753,,29.55729167,0,48,48,5,1,FBP-OG-81.png,0.35,1.2,6,0.5,,,,,,,,,,,,,,,,,,,,,,,,,,,,,,,,,,,,,,,,,,,,,
,,,,,WIN24_051,,Female,2024-02-09_13h59.32.584,jersey_experiment_5,2023.2.2,Win32,85.47008547,,,,,,,,,,,,,,,,250.0326,251.3265,251.3265,252.8325,return,0.1226,,9.505208333,0,49,49,46,1,FBP-PT-17.png,0.37,1.2,47,0.5,,,,,,,,,,,,,,,,,,,,,,,,,,,,,,,,,,,,,,,,,,,,,
,,,,,WIN24_051,,Female,2024-02-09_13h59.32.584,jersey_experiment_5,2023.2.2,Win32,85.47008547,,,,,,,,,,,,,,,,252.8327,254.1266,254.1266,255.8914,return,0.1196,,75,0,50,50,3,1,FBP-OG-71.png,0.43,1.2,4,0.5,,,,,,,,,,,,,,,,,,,,,,,,,,,,,,,,,,,,,,,,,,,,,
,,,,,WIN24_051,,Female,2024-02-09_13h59.32.584,jersey_experiment_5,2023.2.2,Win32,85.47008547,,,,,,,,,,,,,,,,255.8917,257.1855,257.1855,258.3385,return,0.2617,,70.96354167,0,51,51,52,1,FBP-PT-18.png,0.4,1.2,53,0.5,,,,,,,,,,,,,,,,,,,,,,,,,,,,,,,,,,,,,,,,,,,,,
,,,,,WIN24_051,,Female,2024-02-09_13h59.32.584,jersey_experiment_5,2023.2.2,Win32,85.47008547,,,,,,,,,,,,,,,,258.3388,259.6327,259.6327,260.6091,return,0.1476,,82.68229167,0,52,52,54,1,FBP-PT-18.png,0.45,1.2,55,0.5,,,,,,,,,,,,,,,,,,,,,,,,,,,,,,,,,,,,,,,,,,,,,
,,,,,WIN24_051,,Female,2024-02-09_13h59.32.584,jersey_experiment_5,2023.2.2,Win32,85.47008547,,,,,,,,,,,,,,,,260.6094,261.9033,261.9033,263.4446,return,0.2123,,19.01041667,0,53,53,11,1,FBP-OG-91.png,0.37,1.2,12,0.5,,,,,,,,,,,,,,,,,,,,,,,,,,,,,,,,,,,,,,,,,,,,,
,,,,,WIN24_051,,Female,2024-02-09_13h59.32.584,jersey_experiment_5,2023.2.2,Win32,85.47008547,,,,,,,,,,,,,,,,263.4447,264.739,264.739,266.3743,return,0.7313,,5.338541667,0,54,54,10,1,FBP-OG-91.png,0.35,1.2,11,0.5,,,,,,,,,,,,,,,,,,,,,,,,,,,,,,,,,,,,,,,,,,,,,
,,,,,WIN24_051,,Female,2024-02-09_13h59.32.584,jersey_experiment_5,2023.2.2,Win32,85.47008547,,,,,,,,,,,,,,,,266.3745,268.1742,268.1742,269.4451,return,0.1322,,49.08854167,0,55,55,24,1,FBP-RB-18.png,0.45,1.2,25,1,,,,,,,,,,,,,,,,,,,,,,,,,,,,,,,,,,,,,,,,,,,,,
,,,,,WIN24_051,,Female,2024-02-09_13h59.32.584,jersey_experiment_5,2023.2.2,Win32,85.47008547,,,,,,,,,,,,,,,,269.4453,270.739,270.7391,272.292,return,0.2365,,55.72916667,0,56,56,47,1,FBP-PT-17.png,0.4,1.2,48,0.5,,,,,,,,,,,,,,,,,,,,,,,,,,,,,,,,,,,,,,,,,,,,,
,,,,,WIN24_051,,Female,2024-02-09_13h59.32.584,jersey_experiment_5,2023.2.2,Win32,85.47008547,,,,,,,,,,,,,,,,272.2922,273.586,273.5861,275.0099,return,0.1801,,19.40104167,0,57,57,55,1,FBP-PT-19.png,0.35,1.2,56,0.5,,,,,,,,,,,,,,,,,,,,,,,,,,,,,,,,,,,,,,,,,,,,,
,,,,,WIN24_051,,Female,2024-02-09_13h59.32.584,jersey_experiment_5,2023.2.2,Win32,85.47008547,,,,,,,,,,,,,,,,275.0101,276.8098,276.8098,277.6099,return,0.1883,,19.79166667,0,58,58,35,1,FBP-YG-81.png,0.35,1.2,36,1,,,,,,,,,,,,,,,,,,,,,,,,,,,,,,,,,,,,,,,,,,,,,
,,,,,WIN24_051,,Female,2024-02-09_13h59.32.584,jersey_experiment_5,2023.2.2,Win32,85.47008547,,,,,,,,,,,,,,,,277.6101,278.904,278.9041,280.6453,return,0.1412,,69.40104167,0,59,59,4,1,FBP-OG-71.png,0.45,1.2,5,0.5,,,,,,,,,,,,,,,,,,,,,,,,,,,,,,,,,,,,,,,,,,,,,
,,,,,WIN24_051,,Female,2024-02-09_13h59.32.584,jersey_experiment_5,2023.2.2,Win32,85.47008547,,,,,,,,,,,,,,,,280.6476,282.4452,282.4453,283.3747,return,0.1481,,75.13020833,,,,,,FBP-RB-91.png,0.45,1.2,30,1,0,0,0,29,1,,,,,,,,,,,,,,,,,,,,,,,,,,,,,,,,,,,,,,,,
,,,,,WIN24_051,,Female,2024-02-09_13h59.32.584,jersey_experiment_5,2023.2.2,Win32,85.47008547,,,,,,,,,,,,,,,,283.375,285.1749,285.1749,286.1043,return,0.1177,,21.74479167,,,,,,FBP-RB-91.png,0.37,1.2,27,1,0,1,1,26,1,,,,,,,,,,,,,,,,,,,,,,,,,,,,,,,,,,,,,,,,
,,,,,WIN24_051,,Female,2024-02-09_13h59.32.584,jersey_experiment_5,2023.2.2,Win32,85.47008547,,,,,,,,,,,,,,,,286.1045,287.9044,287.9044,288.7514,return,0.1824,,46.35416667,,,,,,FBP-YG-17.png,0.4,1.2,33,1,0,2,2,32,1,,,,,,,,,,,,,,,,,,,,,,,,,,,,,,,,,,,,,,,,
,,,,,WIN24_051,,Female,2024-02-09_13h59.32.584,jersey_experiment_5,2023.2.2,Win32,85.47008547,,,,,,,,,,,,,,,,288.7516,290.0455,290.0456,290.9751,return,0.1478,,39.32291667,,,,,,FBP-PT-71.png,0.4,1.2,48,0.5,0,3,3,47,1,,,,,,,,,,,,,,,,,,,,,,,,,,,,,,,,,,,,,,,,
,,,,,WIN24_051,,Female,2024-02-09_13h59.32.584,jersey_experiment_5,2023.2.2,Win32,85.47008547,,,,,,,,,,,,,,,,290.9753,292.775,292.7751,293.8457,return,0.3909,,83.203125,,,,,,FBP-YG-19.png,0.45,1.2,45,1,0,4,4,44,1,,,,,,,,,,,,,,,,,,,,,,,,,,,,,,,,,,,,,,,,
,,,,,WIN24_051,,Female,2024-02-09_13h59.32.584,jersey_experiment_5,2023.2.2,Win32,85.47008547,,,,,,,,,,,,,,,,293.8459,295.1398,295.1399,295.8223,return,0.0445,,81.38020833,,,,,,FBP-PT-81.png,0.4,1.2,53,0.5,0,5,5,52,1,,,,,,,,,,,,,,,,,,,,,,,,,,,,,,,,,,,,,,,,
,,,,,WIN24_051,,Female,2024-02-09_13h59.32.584,jersey_experiment_5,2023.2.2,Win32,85.47008547,,,,,,,,,,,,,,,,295.8226,297.1164,297.1165,297.7752,return,0.1241,,81.38020833,,,,,,FBP-OG-19.png,0.4,1.2,13,0.5,0,6,6,12,1,,,,,,,,,,,,,,,,,,,,,,,,,,,,,,,,,,,,,,,,
,,,,,WIN24_051,,Female,2024-02-09_13h59.32.584,jersey_experiment_5,2023.2.2,Win32,85.47008547,,,,,,,,,,,,,,,,297.7755,299.5754,299.5754,300.2106,return,0.1553,,88.28125,,,,,,FBP-RB-91.png,0.43,1.2,29,1,0,7,7,28,1,,,,,,,,,,,,,,,,,,,,,,,,,,,,,,,,,,,,,,,,
,,,,,WIN24_051,,Female,2024-02-09_13h59.32.584,jersey_experiment_5,2023.2.2,Win32,85.47008547,,,,,,,,,,,,,,,,300.2109,301.5046,301.5046,302.9636,return,0.5307,,91.14583333,,,,,,FBP-OG-18.png,0.43,1.2,9,0.5,0,8,8,8,1,,,,,,,,,,,,,,,,,,,,,,,,,,,,,,,,,,,,,,,,
,,,,,WIN24_051,,Female,2024-02-09_13h59.32.584,jersey_experiment_5,2023.2.2,Win32,85.47008547,,,,,,,,,,,,,,,,302.9639,304.2577,304.2577,305.6343,return,0.3466,,30.20833333,,,,,,FBP-PT-71.png,0.35,1.2,46,0.5,0,9,9,45,1,,,,,,,,,,,,,,,,,,,,,,,,,,,,,,,,,,,,,,,,
,,,,,WIN24_051,,Female,2024-02-09_13h59.32.584,jersey_experiment_5,2023.2.2,Win32,85.47008547,,,,,,,,,,,,,,,,305.6346,306.9288,306.9288,308.5286,return,0.8187,,28.38541667,,,,,,FBP-PT-91.png,0.37,1.2,57,0.5,0,10,10,56,1,,,,,,,,,,,,,,,,,,,,,,,,,,,,,,,,,,,,,,,,
,,,,,WIN24_051,,Female,2024-02-09_13h59.32.584,jersey_experiment_5,2023.2.2,Win32,85.47008547,,,,,,,,,,,,,,,,308.5289,310.3287,310.3288,311.6346,return,0.6285,,21.09375,,,,,,FBP-YG-19.png,0.35,1.2,41,1,0,11,11,40,1,,,,,,,,,,,,,,,,,,,,,,,,,,,,,,,,,,,,,,,,
,,,,,WIN24_051,,Female,2024-02-09_13h59.32.584,jersey_experiment_5,2023.2.2,Win32,85.47008547,,,,,,,,,,,,,,,,311.6349,312.9288,312.9288,315.1053,return,0.3917,,42.31770833,,,,,,FBP-OG-19.png,0.43,1.2,14,0.5,0,12,12,13,1,,,,,,,,,,,,,,,,,,,,,,,,,,,,,,,,,,,,,,,,
,,,,,WIN24_051,,Female,2024-02-09_13h59.32.584,jersey_experiment_5,2023.2.2,Win32,85.47008547,,,,,,,,,,,,,,,,315.1056,316.9054,316.9054,319.176,return,0.3389,,54.55729167,,,,,,FBP-YG-18.png,0.4,1.2,38,1,0,13,13,37,1,,,,,,,,,,,,,,,,,,,,,,,,,,,,,,,,,,,,,,,,
,,,,,WIN24_051,,Female,2024-02-09_13h59.32.584,jersey_experiment_5,2023.2.2,Win32,85.47008547,,,,,,,,,,,,,,,,319.1762,320.9762,320.9763,322.4231,return,0.3862,,12.36979167,,,,,,FBP-YG-17.png,0.35,1.2,31,1,0,14,14,30,1,,,,,,,,,,,,,,,,,,,,,,,,,,,,,,,,,,,,,,,,
,,,,,WIN24_051,,Female,2024-02-09_13h59.32.584,jersey_experiment_5,2023.2.2,Win32,85.47008547,,,,,,,,,,,,,,,,322.4234,323.7172,323.7173,324.8703,return,0.1282,,21.875,,,,,,FBP-OG-17.png,0.37,1.2,2,0.5,0,15,15,1,1,,,,,,,,,,,,,,,,,,,,,,,,,,,,,,,,,,,,,,,,
,,,,,WIN24_051,,Female,2024-02-09_13h59.32.584,jersey_experiment_5,2023.2.2,Win32,85.47008547,,,,,,,,,,,,,,,,324.8706,326.6705,326.6705,327.6469,return,0.338,,61.84895833,,,,,,FBP-YG-18.png,0.43,1.2,39,1,0,16,16,38,1,,,,,,,,,,,,,,,,,,,,,,,,,,,,,,,,,,,,,,,,
,,,,,WIN24_051,,Female,2024-02-09_13h59.32.584,jersey_experiment_5,2023.2.2,Win32,85.47008547,,,,,,,,,,,,,,,,327.647,328.941,328.9411,329.8234,return,0.0905,,29.81770833,,,,,,FBP-OG-17.png,0.35,1.2,1,0.5,0,17,17,0,1,,,,,,,,,,,,,,,,,,,,,,,,,,,,,,,,,,,,,,,,
,,,,,WIN24_051,,Female,2024-02-09_13h59.32.584,jersey_experiment_5,2023.2.2,Win32,85.47008547,,,,,,,,,,,,,,,,329.8236,331.6236,331.6237,332.3529,return,0.0401,,25.78125,,,,,,FBP-YG-19.png,0.37,1.2,42,1,0,18,18,41,1,,,,,,,,,,,,,,,,,,,,,,,,,,,,,,,,,,,,,,,,
,,,,,WIN24_051,,Female,2024-02-09_13h59.32.584,jersey_experiment_5,2023.2.2,Win32,85.47008547,,,,,,,,,,,,,,,,332.3532,333.647,333.647,334.8001,return,0.1722,,44.01041667,,,,,,FBP-OG-18.png,0.37,1.2,7,0.5,0,19,19,6,1,,,,,,,,,,,,,,,,,,,,,,,,,,,,,,,,,,,,,,,,
,,,,,WIN24_051,,Female,2024-02-09_13h59.32.584,jersey_experiment_5,2023.2.2,Win32,85.47008547,,,,,,,,,,,,,,,,334.8003,336.0942,336.0942,337.5415,return,0.1651,,77.21354167,,,,,,FBP-PT-81.png,0.43,1.2,54,0.5,0,20,20,53,1,,,,,,,,,,,,,,,,,,,,,,,,,,,,,,,,,,,,,,,,
,,,,,WIN24_051,,Female,2024-02-09_13h59.32.584,jersey_experiment_5,2023.2.2,Win32,85.47008547,,,,,,,,,,,,,,,,337.5417,338.8356,338.8357,340.4709,return,0.2686,,29.296875,,,,,,FBP-OG-18.png,0.35,1.2,6,0.5,0,21,21,5,1,,,,,,,,,,,,,,,,,,,,,,,,,,,,,,,,,,,,,,,,
,,,,,WIN24_051,,Female,2024-02-09_13h59.32.584,jersey_experiment_5,2023.2.2,Win32,85.47008547,,,,,,,,,,,,,,,,340.4711,341.765,341.765,343.6945,return,0.0185,,61.45833333,,,,,,FBP-PT-81.png,0.35,1.2,51,0.5,0,22,22,50,1,,,,,,,,,,,,,,,,,,,,,,,,,,,,,,,,,,,,,,,,
,,,,,WIN24_051,,Female,2024-02-09_13h59.32.584,jersey_experiment_5,2023.2.2,Win32,85.47008547,,,,,,,,,,,,,,,,343.6947,344.9887,344.9887,346.9182,return,0.0342,,70.703125,,,,,,FBP-PT-81.png,0.37,1.2,52,0.5,0,23,23,51,1,,,,,,,,,,,,,,,,,,,,,,,,,,,,,,,,,,,,,,,,
,,,,,WIN24_051,,Female,2024-02-09_13h59.32.584,jersey_experiment_5,2023.2.2,Win32,85.47008547,,,,,,,,,,,,,,,,346.9183,348.2123,348.2123,349.1418,return,0.1794,,82.8125,,,,,,FBP-PT-81.png,0.45,1.2,55,0.5,0,24,24,54,1,,,,,,,,,,,,,,,,,,,,,,,,,,,,,,,,,,,,,,,,
,,,,,WIN24_051,,Female,2024-02-09_13h59.32.584,jersey_experiment_5,2023.2.2,Win32,85.47008547,,,,,,,,,,,,,,,,349.142,350.9418,350.9419,352.8007,return,1.0185,,66.796875,,,,,,FBP-RB-71.png,0.4,1.2,18,1,0,25,25,17,1,,,,,,,,,,,,,,,,,,,,,,,,,,,,,,,,,,,,,,,,
,,,,,WIN24_051,,Female,2024-02-09_13h59.32.584,jersey_experiment_5,2023.2.2,Win32,85.47008547,,,,,,,,,,,,,,,,352.8008,354.601,354.6011,356.4244,return,0.339,,61.84895833,,,,,,FBP-YG-19.png,0.4,1.2,43,1,0,26,26,42,1,,,,,,,,,,,,,,,,,,,,,,,,,,,,,,,,,,,,,,,,
,,,,,WIN24_051,,Female,2024-02-09_13h59.32.584,jersey_experiment_5,2023.2.2,Win32,85.47008547,,,,,,,,,,,,,,,,356.4247,358.2246,358.2246,360.2482,return,0.1414,,33.203125,,,,,,FBP-RB-81.png,0.37,1.2,22,1,0,27,27,21,1,,,,,,,,,,,,,,,,,,,,,,,,,,,,,,,,,,,,,,,,
,,,,,WIN24_051,,Female,2024-02-09_13h59.32.584,jersey_experiment_5,2023.2.2,Win32,85.47008547,,,,,,,,,,,,,,,,360.2483,362.0482,362.0482,363.1777,return,0.1504,,67.31770833,,,,,,FBP-RB-81.png,0.4,1.2,23,1,0,28,28,22,1,,,,,,,,,,,,,,,,,,,,,,,,,,,,,,,,,,,,,,,,
,,,,,WIN24_051,,Female,2024-02-09_13h59.32.584,jersey_experiment_5,2023.2.2,Win32,85.47008547,,,,,,,,,,,,,,,,363.1778,364.9781,364.9781,365.7659,return,0.2228,,72.91666667,,,,,,FBP-RB-91.png,0.4,1.2,28,1,0,29,29,27,1,,,,,,,,,,,,,,,,,,,,,,,,,,,,,,,,,,,,,,,,
,,,,,WIN24_051,,Female,2024-02-09_13h59.32.584,jersey_experiment_5,2023.2.2,Win32,85.47008547,,,,,,,,,,,,,,,,365.7661,367.5659,367.5659,368.8249,return,0.1883,,87.23958333,,,,,,FBP-RB-71.png,0.45,1.2,20,1,0,30,30,19,1,,,,,,,,,,,,,,,,,,,,,,,,,,,,,,,,,,,,,,,,
,,,,,WIN24_051,,Female,2024-02-09_13h59.32.584,jersey_experiment_5,2023.2.2,Win32,85.47008547,,,,,,,,,,,,,,,,368.8251,370.119,370.119,372.4839,return,0.0861,,66.015625,,,,,,FBP-OG-18.png,0.4,1.2,8,0.5,0,31,31,7,1,,,,,,,,,,,,,,,,,,,,,,,,,,,,,,,,,,,,,,,,
,,,,,WIN24_051,,Female,2024-02-09_13h59.32.584,jersey_experiment_5,2023.2.2,Win32,85.47008547,,,,,,,,,,,,,,,,372.4841,374.2839,374.2839,375.3782,return,0.1208,,75.78125,,,,,,FBP-RB-81.png,0.43,1.2,24,1,0,32,32,23,1,,,,,,,,,,,,,,,,,,,,,,,,,,,,,,,,,,,,,,,,
,,,,,WIN24_051,,Female,2024-02-09_13h59.32.584,jersey_experiment_5,2023.2.2,Win32,85.47008547,,,,,,,,,,,,,,,,375.3784,376.6723,376.6723,377.3663,return,0.0344,,75.26041667,,,,,,FBP-PT-91.png,0.43,1.2,59,0.5,0,33,33,58,1,,,,,,,,,,,,,,,,,,,,,,,,,,,,,,,,,,,,,,,,
,,,,,WIN24_051,,Female,2024-02-09_13h59.32.584,jersey_experiment_5,2023.2.2,Win32,85.47008547,,,,,,,,,,,,,,,,377.3665,378.6605,378.6606,380.7548,return,0.6495,,88.671875,,,,,,FBP-PT-71.png,0.45,1.2,50,0.5,0,34,34,49,1,,,,,,,,,,,,,,,,,,,,,,,,,,,,,,,,,,,,,,,,
,,,,,WIN24_051,,Female,2024-02-09_13h59.32.584,jersey_experiment_5,2023.2.2,Win32,85.47008547,,,,,,,,,,,,,,,,380.7549,382.5547,382.5548,383.5548,return,0.428,,88.54166667,,,,,,FBP-RB-71.png,0.43,1.2,19,1,0,35,35,18,1,,,,,,,,,,,,,,,,,,,,,,,,,,,,,,,,,,,,,,,,
,,,,,WIN24_051,,Female,2024-02-09_13h59.32.584,jersey_experiment_5,2023.2.2,Win32,85.47008547,,,,,,,,,,,,,,,,383.555,385.355,385.355,387.0492,return,0.1414,,16.27604167,,,,,,FBP-RB-91.png,0.35,1.2,26,1,0,36,36,25,1,,,,,,,,,,,,,,,,,,,,,,,,,,,,,,,,,,,,,,,,
,,,,,WIN24_051,,Female,2024-02-09_13h59.32.584,jersey_experiment_5,2023.2.2,Win32,85.47008547,,,,,,,,,,,,,,,,387.0494,388.3433,388.3433,390.2962,return,0.1177,,76.43229167,,,,,,FBP-PT-71.png,0.43,1.2,49,0.5,0,37,37,48,1,,,,,,,,,,,,,,,,,,,,,,,,,,,,,,,,,,,,,,,,
,,,,,WIN24_051,,Female,2024-02-09_13h59.32.584,jersey_experiment_5,2023.2.2,Win32,85.47008547,,,,,,,,,,,,,,,,390.2964,392.0965,392.0965,392.9903,return,0.0798,,23.046875,,,,,,FBP-RB-81.png,0.35,1.2,21,1,0,38,38,20,1,,,,,,,,,,,,,,,,,,,,,,,,,,,,,,,,,,,,,,,,
,,,,,WIN24_051,,Female,2024-02-09_13h59.32.584,jersey_experiment_5,2023.2.2,Win32,85.47008547,,,,,,,,,,,,,,,,392.9905,394.2846,394.2846,395.6965,return,0.0544,,71.35416667,,,,,,FBP-OG-17.png,0.43,1.2,4,0.5,0,39,39,3,1,,,,,,,,,,,,,,,,,,,,,,,,,,,,,,,,,,,,,,,,
,,,,,WIN24_051,,Female,2024-02-09_13h59.32.584,jersey_experiment_5,2023.2.2,Win32,85.47008547,,,,,,,,,,,,,,,,395.6966,396.9906,396.9906,397.9906,return,0.165,,68.88020833,,,,,,FBP-PT-91.png,0.4,1.2,58,0.5,0,40,40,57,1,,,,,,,,,,,,,,,,,,,,,,,,,,,,,,,,,,,,,,,,
,,,,,WIN24_051,,Female,2024-02-09_13h59.32.584,jersey_experiment_5,2023.2.2,Win32,85.47008547,,,,,,,,,,,,,,,,397.9909,399.2848,399.2848,400.6261,return,0.0977,,36.71875,,,,,,FBP-OG-19.png,0.37,1.2,12,0.5,0,41,41,11,1,,,,,,,,,,,,,,,,,,,,,,,,,,,,,,,,,,,,,,,,
,,,,,WIN24_051,,Female,2024-02-09_13h59.32.584,jersey_experiment_5,2023.2.2,Win32,85.47008547,,,,,,,,,,,,,,,,400.6264,402.426,402.4261,403.5555,return,0.0979,,34.11458333,,,,,,FBP-YG-18.png,0.37,1.2,37,1,0,42,42,36,1,,,,,,,,,,,,,,,,,,,,,,,,,,,,,,,,,,,,,,,,
,,,,,WIN24_051,,Female,2024-02-09_13h59.32.584,jersey_experiment_5,2023.2.2,Win32,85.47008547,,,,,,,,,,,,,,,,403.5558,404.8497,404.8497,405.6732,return,0.0478,,34.375,,,,,,FBP-PT-91.png,0.35,1.2,56,0.5,0,43,43,55,1,,,,,,,,,,,,,,,,,,,,,,,,,,,,,,,,,,,,,,,,
,,,,,WIN24_051,,Female,2024-02-09_13h59.32.584,jersey_experiment_5,2023.2.2,Win32,85.47008547,,,,,,,,,,,,,,,,405.6734,407.4734,407.4734,408.5323,return,0.0949,,60.02604167,,,,,,FBP-RB-71.png,0.35,1.2,16,1,0,44,44,15,1,,,,,,,,,,,,,,,,,,,,,,,,,,,,,,,,,,,,,,,,
,,,,,WIN24_051,,Female,2024-02-09_13h59.32.584,jersey_experiment_5,2023.2.2,Win32,85.47008547,,,,,,,,,,,,,,,,408.5325,410.3324,410.3325,411.1441,return,0.1551,,79.42708333,,,,,,FBP-YG-17.png,0.45,1.2,35,1,0,45,45,34,1,,,,,,,,,,,,,,,,,,,,,,,,,,,,,,,,,,,,,,,,
,,,,,WIN24_051,,Female,2024-02-09_13h59.32.584,jersey_experiment_5,2023.2.2,Win32,85.47008547,,,,,,,,,,,,,,,,411.1443,412.4383,412.4383,413.7441,return,0.1012,,44.53125,,,,,,FBP-OG-19.png,0.35,1.2,11,0.5,0,46,46,10,1,,,,,,,,,,,,,,,,,,,,,,,,,,,,,,,,,,,,,,,,
,,,,,WIN24_051,,Female,2024-02-09_13h59.32.584,jersey_experiment_5,2023.2.2,Win32,85.47008547,,,,,,,,,,,,,,,,413.7443,415.5445,415.5445,417.0382,return,0.4421,,57.8125,,,,,,FBP-RB-71.png,0.37,1.2,17,1,0,47,47,16,1,,,,,,,,,,,,,,,,,,,,,,,,,,,,,,,,,,,,,,,,
,,,,,WIN24_051,,Female,2024-02-09_13h59.32.584,jersey_experiment_5,2023.2.2,Win32,85.47008547,,,,,,,,,,,,,,,,417.0384,418.3326,418.3326,419.6035,return,0.2161,,82.55208333,,,,,,FBP-PT-91.png,0.45,1.2,60,0.5,0,48,48,59,1,,,,,,,,,,,,,,,,,,,,,,,,,,,,,,,,,,,,,,,,
,,,,,WIN24_051,,Female,2024-02-09_13h59.32.584,jersey_experiment_5,2023.2.2,Win32,85.47008547,,,,,,,,,,,,,,,,419.6037,421.4034,421.4034,422.1915,return,0.0877,,57.55208333,,,,,,FBP-YG-17.png,0.37,1.2,32,1,0,49,49,31,1,,,,,,,,,,,,,,,,,,,,,,,,,,,,,,,,,,,,,,,,
,,,,,WIN24_051,,Female,2024-02-09_13h59.32.584,jersey_experiment_5,2023.2.2,Win32,85.47008547,,,,,,,,,,,,,,,,422.1917,423.4857,423.4857,424.4976,return,0.1707,,82.29166667,,,,,,FBP-OG-18.png,0.45,1.2,10,0.5,0,50,50,9,1,,,,,,,,,,,,,,,,,,,,,,,,,,,,,,,,,,,,,,,,
,,,,,WIN24_051,,Female,2024-02-09_13h59.32.584,jersey_experiment_5,2023.2.2,Win32,85.47008547,,,,,,,,,,,,,,,,424.4977,425.7916,425.7916,426.8034,return,0.0979,,69.27083333,,,,,,FBP-OG-17.png,0.4,1.2,3,0.5,0,51,51,2,1,,,,,,,,,,,,,,,,,,,,,,,,,,,,,,,,,,,,,,,,
,,,,,WIN24_051,,Female,2024-02-09_13h59.32.584,jersey_experiment_5,2023.2.2,Win32,85.47008547,,,,,,,,,,,,,,,,426.8035,428.6037,428.6038,429.3447,return,0.1714,,82.421875,,,,,,FBP-YG-18.png,0.45,1.2,40,1,0,52,52,39,1,,,,,,,,,,,,,,,,,,,,,,,,,,,,,,,,,,,,,,,,
,,,,,WIN24_051,,Female,2024-02-09_13h59.32.584,jersey_experiment_5,2023.2.2,Win32,85.47008547,,,,,,,,,,,,,,,,429.3449,430.6389,430.6389,431.5684,return,0.1365,,90.75520833,,,,,,FBP-OG-19.png,0.45,1.2,15,0.5,0,53,53,14,1,,,,,,,,,,,,,,,,,,,,,,,,,,,,,,,,,,,,,,,,
,,,,,WIN24_051,,Female,2024-02-09_13h59.32.584,jersey_experiment_5,2023.2.2,Win32,85.47008547,,,,,,,,,,,,,,,,431.5685,433.3685,433.3685,434.6155,return,0.7059,,88.93229167,,,,,,FBP-YG-17.png,0.43,1.2,34,1,0,54,54,33,1,,,,,,,,,,,,,,,,,,,,,,,,,,,,,,,,,,,,,,,,
,,,,,WIN24_051,,Female,2024-02-09_13h59.32.584,jersey_experiment_5,2023.2.2,Win32,85.47008547,,,,,,,,,,,,,,,,434.6158,435.9096,435.9096,437.4862,return,0.0185,,70.57291667,,,,,,FBP-PT-71.png,0.37,1.2,47,0.5,0,55,55,46,1,,,,,,,,,,,,,,,,,,,,,,,,,,,,,,,,,,,,,,,,
,,,,,WIN24_051,,Female,2024-02-09_13h59.32.584,jersey_experiment_5,2023.2.2,Win32,85.47008547,,,,,,,,,,,,,,,,437.4864,438.7804,438.7804,439.7804,return,0.0241,,70.57291667,,,,,,FBP-OG-17.png,0.45,1.2,5,0.5,0,56,56,4,1,,,,,,,,,,,,,,,,,,,,,,,,,,,,,,,,,,,,,,,,
,,,,,WIN24_051,,Female,2024-02-09_13h59.32.584,jersey_experiment_5,2023.2.2,Win32,85.47008547,,,,,,,,,,,,,,,,439.7805,441.5805,441.5805,442.3571,return,0.1527,,13.671875,,,,,,FBP-YG-18.png,0.35,1.2,36,1,0,57,57,35,1,,,,,,,,,,,,,,,,,,,,,,,,,,,,,,,,,,,,,,,,
,,,,,WIN24_051,,Female,2024-02-09_13h59.32.584,jersey_experiment_5,2023.2.2,Win32,85.47008547,,,,,,,,,,,,,,,,442.3573,444.1571,444.1572,445.2983,return,0.3438,,54.94791667,,,,,,FBP-YG-19.png,0.43,1.2,44,1,0,58,58,43,1,,,,,,,,,,,,,,,,,,,,,,,,,,,,,,,,,,,,,,,,
,,,,,WIN24_051,,Female,2024-02-09_13h59.32.584,jersey_experiment_5,2023.2.2,Win32,85.47008547,,,,,,,,,,,,,,,,445.2985,447.0987,447.0987,448.4159,return,0.4522,,76.5625,,,,,,FBP-RB-81.png,0.45,1.2,25,1,0,59,59,24,1,,,,,,,,,,,,,,,,,,,,,,,,,,,,,,,,,,,,,,,,
,,,,,WIN24_051,,Female,2024-02-09_13h59.32.584,jersey_experiment_5,2023.2.2,Win32,85.47008547,,,,,,,,,,,,,,,,,,,,,,,,,,,,,,,,,,,,,,,448.4163,568.4209,,,,,,,,,,,,,,,,,,,,,,,,,,,,,,,,,,,,,,
,,,,,WIN24_051,,Female,2024-02-09_13h59.32.584,jersey_experiment_5,2023.2.2,Win32,85.47008547,,,,,,,,,,,,,,,,,,,,,,,,,,,,,,,,,,,,,,,,,568.4209,576.0327,return,7.6052,,,,,,,,,,,,,,,,,,,,,,,,,,,,,,,,,,
,,,,,WIN24_051,,Female,2024-02-09_13h59.32.584,jersey_experiment_5,2023.2.2,Win32,85.47008547,,,,,,,,,,,,,,,,576.0388,577.8327,577.8327,581.4444,return,2.529,,60.28645833,,,,,,FBP-OG-91.png,0.43,1.2,14,1,,,,,,,,,,,,,0,0,0,13,1,,,,,,,,,,,,,,,,,,,,,,,,,,,,
,,,,,WIN24_051,,Female,2024-02-09_13h59.32.584,jersey_experiment_5,2023.2.2,Win32,85.47008547,,,,,,,,,,,,,,,,581.4448,583.2445,583.2445,585.5269,return,1.0026,,38.80208333,,,,,,FBP-PT-17.png,0.37,1.2,47,1,,,,,,,,,,,,,0,1,1,46,1,,,,,,,,,,,,,,,,,,,,,,,,,,,,
,,,,,WIN24_051,,Female,2024-02-09_13h59.32.584,jersey_experiment_5,2023.2.2,Win32,85.47008547,,,,,,,,,,,,,,,,585.5272,587.3269,587.3269,588.4212,return,0.4007,,39.0625,,,,,,FBP-OG-71.png,0.37,1.2,2,1,,,,,,,,,,,,,0,2,2,1,1,,,,,,,,,,,,,,,,,,,,,,,,,,,,
,,,,,WIN24_051,,Female,2024-02-09_13h59.32.584,jersey_experiment_5,2023.2.2,Win32,85.47008547,,,,,,,,,,,,,,,,588.4215,590.2214,590.2214,591.1506,return,0.3501,,75.78125,,,,,,FBP-OG-81.png,0.43,1.2,9,1,,,,,,,,,,,,,0,3,3,8,1,,,,,,,,,,,,,,,,,,,,,,,,,,,,
,,,,,WIN24_051,,Female,2024-02-09_13h59.32.584,jersey_experiment_5,2023.2.2,Win32,85.47008547,,,,,,,,,,,,,,,,591.1509,592.4448,592.4449,593.9508,return,0.2789,,75.13020833,,,,,,FBP-RB-18.png,0.4,1.2,23,0.5,,,,,,,,,,,,,0,4,4,22,1,,,,,,,,,,,,,,,,,,,,,,,,,,,,
,,,,,WIN24_051,,Female,2024-02-09_13h59.32.584,jersey_experiment_5,2023.2.2,Win32,85.47008547,,,,,,,,,,,,,,,,593.951,595.7508,595.7508,597.0568,return,0.3102,,39.0625,,,,,,FBP-OG-81.png,0.35,1.2,6,1,,,,,,,,,,,,,0,5,5,5,1,,,,,,,,,,,,,,,,,,,,,,,,,,,,
,,,,,WIN24_051,,Female,2024-02-09_13h59.32.584,jersey_experiment_5,2023.2.2,Win32,85.47008547,,,,,,,,,,,,,,,,597.0571,598.3509,598.351,599.445,return,0.261,,49.08854167,,,,,,FBP-YG-71.png,0.37,1.2,32,0.5,,,,,,,,,,,,,0,6,6,31,1,,,,,,,,,,,,,,,,,,,,,,,,,,,,
,,,,,WIN24_051,,Female,2024-02-09_13h59.32.584,jersey_experiment_5,2023.2.2,Win32,85.47008547,,,,,,,,,,,,,,,,599.4453,601.2451,601.2451,602.5629,return,0.3223,,82.8125,,,,,,FBP-PT-17.png,0.45,1.2,50,1,,,,,,,,,,,,,0,7,7,49,1,,,,,,,,,,,,,,,,,,,,,,,,,,,,
,,,,,WIN24_051,,Female,2024-02-09_13h59.32.584,jersey_experiment_5,2023.2.2,Win32,85.47008547,,,,,,,,,,,,,,,,602.5631,603.857,603.857,606.6924,return,2.1299,,79.03645833,,,,,,FBP-RB-17.png,0.37,1.2,17,0.5,,,,,,,,,,,,,0,8,8,16,1,,,,,,,,,,,,,,,,,,,,,,,,,,,,
,,,,,WIN24_051,,Female,2024-02-09_13h59.32.584,jersey_experiment_5,2023.2.2,Win32,85.47008547,,,,,,,,,,,,,,,,606.6926,607.9865,607.9865,610.5632,return,1.0512,,94.01041667,,,,,,FBP-RB-17.png,0.43,1.2,19,0.5,,,,,,,,,,,,,0,9,9,18,1,,,,,,,,,,,,,,,,,,,,,,,,,,,,
,,,,,WIN24_051,,Female,2024-02-09_13h59.32.584,jersey_experiment_5,2023.2.2,Win32,85.47008547,,,,,,,,,,,,,,,,610.5634,612.3634,612.3634,614.7868,return,1.7548,,42.44791667,,,,,,FBP-PT-19.png,0.37,1.2,57,1,,,,,,,,,,,,,0,10,10,56,1,,,,,,,,,,,,,,,,,,,,,,,,,,,,
,,,,,WIN24_051,,Female,2024-02-09_13h59.32.584,jersey_experiment_5,2023.2.2,Win32,85.47008547,,,,,,,,,,,,,,,,614.787,616.0809,616.0809,618.4574,return,1.2568,,15.625,,,,,,FBP-YG-71.png,0.35,1.2,31,0.5,,,,,,,,,,,,,0,11,11,30,1,,,,,,,,,,,,,,,,,,,,,,,,,,,,
,,,,,WIN24_051,,Female,2024-02-09_13h59.32.584,jersey_experiment_5,2023.2.2,Win32,85.47008547,,,,,,,,,,,,,,,,618.4576,620.2578,620.2578,621.7987,return,0.6591,,73.95833333,,,,,,FBP-PT-17.png,0.43,1.2,49,1,,,,,,,,,,,,,0,12,12,48,1,,,,,,,,,,,,,,,,,,,,,,,,,,,,
,,,,,WIN24_051,,Female,2024-02-09_13h59.32.584,jersey_experiment_5,2023.2.2,Win32,85.47008547,,,,,,,,,,,,,,,,621.7989,623.5987,623.5988,625.7989,return,0.3865,,60.41666667,,,,,,FBP-OG-71.png,0.4,1.2,3,1,,,,,,,,,,,,,0,13,13,2,1,,,,,,,,,,,,,,,,,,,,,,,,,,,,
,,,,,WIN24_051,,Female,2024-02-09_13h59.32.584,jersey_experiment_5,2023.2.2,Win32,85.47008547,,,,,,,,,,,,,,,,625.7992,627.5992,627.5992,628.7991,return,0.1236,,74.73958333,,,,,,FBP-PT-18.png,0.43,1.2,54,1,,,,,,,,,,,,,0,14,14,53,1,,,,,,,,,,,,,,,,,,,,,,,,,,,,
,,,,,WIN24_051,,Female,2024-02-09_13h59.32.584,jersey_experiment_5,2023.2.2,Win32,85.47008547,,,,,,,,,,,,,,,,628.7994,630.0933,630.0933,632.1521,return,0.212,,27.47395833,,,,,,FBP-YG-81.png,0.35,1.2,36,0.5,,,,,,,,,,,,,0,15,15,35,1,,,,,,,,,,,,,,,,,,,,,,,,,,,,
,,,,,WIN24_051,,Female,2024-02-09_13h59.32.584,jersey_experiment_5,2023.2.2,Win32,85.47008547,,,,,,,,,,,,,,,,632.1524,633.4463,633.4463,635.5758,return,0.2729,,95.18229167,,,,,,FBP-RB-17.png,0.45,1.2,20,0.5,,,,,,,,,,,,,0,16,16,19,1,,,,,,,,,,,,,,,,,,,,,,,,,,,,
,,,,,WIN24_051,,Female,2024-02-09_13h59.32.584,jersey_experiment_5,2023.2.2,Win32,85.47008547,,,,,,,,,,,,,,,,635.5761,637.3758,637.3759,638.5525,return,0.2212,,87.109375,,,,,,FBP-OG-91.png,0.45,1.2,15,1,,,,,,,,,,,,,0,17,17,14,1,,,,,,,,,,,,,,,,,,,,,,,,,,,,
,,,,,WIN24_051,,Female,2024-02-09_13h59.32.584,jersey_experiment_5,2023.2.2,Win32,85.47008547,,,,,,,,,,,,,,,,638.5526,639.8465,639.8465,641.9761,return,0.6591,,63.54166667,,,,,,FBP-RB-19.png,0.4,1.2,28,0.5,,,,,,,,,,,,,0,18,18,27,1,,,,,,,,,,,,,,,,,,,,,,,,,,,,
,,,,,WIN24_051,,Female,2024-02-09_13h59.32.584,jersey_experiment_5,2023.2.2,Win32,85.47008547,,,,,,,,,,,,,,,,641.9763,643.2701,643.2702,645.5409,return,0.2235,,22.65625,,,,,,FBP-RB-18.png,0.35,1.2,21,0.5,,,,,,,,,,,,,0,19,19,20,1,,,,,,,,,,,,,,,,,,,,,,,,,,,,
,,,,,WIN24_051,,Female,2024-02-09_13h59.32.584,jersey_experiment_5,2023.2.2,Win32,85.47008547,,,,,,,,,,,,,,,,645.5411,647.341,647.3411,648.2938,return,0.1892,,46.61458333,,,,,,FBP-PT-19.png,0.4,1.2,58,1,,,,,,,,,,,,,0,20,20,57,1,,,,,,,,,,,,,,,,,,,,,,,,,,,,
,,,,,WIN24_051,,Female,2024-02-09_13h59.32.584,jersey_experiment_5,2023.2.2,Win32,85.47008547,,,,,,,,,,,,,,,,648.294,649.588,649.588,653.5532,return,1.2985,,26.43229167,,,,,,FBP-YG-91.png,0.35,1.2,41,0.5,,,,,,,,,,,,,0,21,21,40,1,,,,,,,,,,,,,,,,,,,,,,,,,,,,
,,,,,WIN24_051,,Female,2024-02-09_13h59.32.584,jersey_experiment_5,2023.2.2,Win32,85.47008547,,,,,,,,,,,,,,,,653.5534,655.3531,655.3532,656.7412,return,0.1287,,52.86458333,,,,,,FBP-OG-81.png,0.4,1.2,8,1,,,,,,,,,,,,,0,22,22,7,1,,,,,,,,,,,,,,,,,,,,,,,,,,,,
,,,,,WIN24_051,,Female,2024-02-09_13h59.32.584,jersey_experiment_5,2023.2.2,Win32,85.47008547,,,,,,,,,,,,,,,,656.7415,658.5416,658.5416,659.7179,return,0.3669,,77.08333333,,,,,,FBP-PT-19.png,0.43,1.2,59,1,,,,,,,,,,,,,0,23,23,58,1,,,,,,,,,,,,,,,,,,,,,,,,,,,,
,,,,,WIN24_051,,Female,2024-02-09_13h59.32.584,jersey_experiment_5,2023.2.2,Win32,85.47008547,,,,,,,,,,,,,,,,659.7181,661.012,661.0121,664.2476,return,2.0088,,73.828125,,,,,,FBP-YG-91.png,0.43,1.2,44,0.5,,,,,,,,,,,,,0,24,24,43,1,,,,,,,,,,,,,,,,,,,,,,,,,,,,
,,,,,WIN24_051,,Female,2024-02-09_13h59.32.584,jersey_experiment_5,2023.2.2,Win32,85.47008547,,,,,,,,,,,,,,,,664.2477,665.5415,665.5416,667.871,return,0.314,,24.08854167,,,,,,FBP-YG-91.png,0.37,1.2,42,0.5,,,,,,,,,,,,,0,25,25,41,1,,,,,,,,,,,,,,,,,,,,,,,,,,,,
,,,,,WIN24_051,,Female,2024-02-09_13h59.32.584,jersey_experiment_5,2023.2.2,Win32,85.47008547,,,,,,,,,,,,,,,,667.8713,669.1652,669.1652,673.3301,return,0.6499,,80.20833333,,,,,,FBP-RB-19.png,0.45,1.2,30,0.5,,,,,,,,,,,,,0,26,26,29,1,,,,,,,,,,,,,,,,,,,,,,,,,,,,
,,,,,WIN24_051,,Female,2024-02-09_13h59.32.584,jersey_experiment_5,2023.2.2,Win32,85.47008547,,,,,,,,,,,,,,,,673.3303,675.1303,675.1304,676.389,return,0.5526,,51.171875,,,,,,FBP-PT-18.png,0.4,1.2,53,1,,,,,,,,,,,,,0,27,27,52,1,,,,,,,,,,,,,,,,,,,,,,,,,,,,
,,,,,WIN24_051,,Female,2024-02-09_13h59.32.584,jersey_experiment_5,2023.2.2,Win32,85.47008547,,,,,,,,,,,,,,,,676.3893,678.1892,678.1892,679.9068,return,0.534,,58.46354167,,,,,,FBP-PT-18.png,0.37,1.2,52,1,,,,,,,,,,,,,0,28,28,51,1,,,,,,,,,,,,,,,,,,,,,,,,,,,,
,,,,,WIN24_051,,Female,2024-02-09_13h59.32.584,jersey_experiment_5,2023.2.2,Win32,85.47008547,,,,,,,,,,,,,,,,679.907,681.2011,681.2011,682.5422,return,0.4068,,71.484375,,,,,,FBP-YG-71.png,0.45,1.2,35,0.5,,,,,,,,,,,,,0,29,29,34,1,,,,,,,,,,,,,,,,,,,,,,,,,,,,
,,,,,WIN24_051,,Female,2024-02-09_13h59.32.584,jersey_experiment_5,2023.2.2,Win32,85.47008547,,,,,,,,,,,,,,,,682.5423,684.3422,684.3422,685.1777,return,0.2498,,71.484375,,,,,,FBP-PT-17.png,0.4,1.2,48,1,,,,,,,,,,,,,0,30,30,47,1,,,,,,,,,,,,,,,,,,,,,,,,,,,,
,,,,,WIN24_051,,Female,2024-02-09_13h59.32.584,jersey_experiment_5,2023.2.2,Win32,85.47008547,,,,,,,,,,,,,,,,685.1779,686.9776,686.9776,687.8718,return,0.2663,,71.484375,,,,,,FBP-PT-18.png,0.45,1.2,55,1,,,,,,,,,,,,,0,31,31,54,1,,,,,,,,,,,,,,,,,,,,,,,,,,,,
,,,,,WIN24_051,,Female,2024-02-09_13h59.32.584,jersey_experiment_5,2023.2.2,Win32,85.47008547,,,,,,,,,,,,,,,,687.872,689.1659,689.1659,691.2366,return,0.2004,,25.91145833,,,,,,FBP-YG-71.png,0.4,1.2,33,0.5,,,,,,,,,,,,,0,32,32,32,1,,,,,,,,,,,,,,,,,,,,,,,,,,,,
,,,,,WIN24_051,,Female,2024-02-09_13h59.32.584,jersey_experiment_5,2023.2.2,Win32,85.47008547,,,,,,,,,,,,,,,,691.2368,693.0367,693.0367,693.8133,return,0.2032,,26.04166667,,,,,,FBP-PT-18.png,0.35,1.2,51,1,,,,,,,,,,,,,0,33,33,50,1,,,,,,,,,,,,,,,,,,,,,,,,,,,,
,,,,,WIN24_051,,Female,2024-02-09_13h59.32.584,jersey_experiment_5,2023.2.2,Win32,85.47008547,,,,,,,,,,,,,,,,693.8135,695.1074,695.1075,712.3668,return,0.7704,,37.23958333,,,,,,FBP-RB-19.png,0.43,1.2,29,0.5,,,,,,,,,,,,,0,34,34,28,1,,,,,,,,,,,,,,,,,,,,,,,,,,,,
,,,,,WIN24_051,,Female,2024-02-09_13h59.32.584,jersey_experiment_5,2023.2.2,Win32,85.47008547,,,,,,,,,,,,,,,,712.367,713.6611,713.6612,715.1198,return,0.6664,,24.86979167,,,,,,FBP-RB-19.png,0.37,1.2,27,0.5,,,,,,,,,,,,,0,35,35,26,1,,,,,,,,,,,,,,,,,,,,,,,,,,,,
,,,,,WIN24_051,,Female,2024-02-09_13h59.32.584,jersey_experiment_5,2023.2.2,Win32,85.47008547,,,,,,,,,,,,,,,,715.1201,716.9201,716.9201,717.9434,return,0.3389,,77.734375,,,,,,FBP-OG-71.png,0.45,1.2,5,1,,,,,,,,,,,,,0,36,36,4,1,,,,,,,,,,,,,,,,,,,,,,,,,,,,
,,,,,WIN24_051,,Female,2024-02-09_13h59.32.584,jersey_experiment_5,2023.2.2,Win32,85.47008547,,,,,,,,,,,,,,,,717.9437,719.2376,719.2376,720.4377,return,0.3171,,73.17708333,,,,,,FBP-YG-91.png,0.4,1.2,43,0.5,,,,,,,,,,,,,0,37,37,42,1,,,,,,,,,,,,,,,,,,,,,,,,,,,,
,,,,,WIN24_051,,Female,2024-02-09_13h59.32.584,jersey_experiment_5,2023.2.2,Win32,85.47008547,,,,,,,,,,,,,,,,720.4379,721.7317,721.7318,723.12,return,0.3454,,85.546875,,,,,,FBP-YG-81.png,0.43,1.2,39,0.5,,,,,,,,,,,,,0,38,38,38,1,,,,,,,,,,,,,,,,,,,,,,,,,,,,
,,,,,WIN24_051,,Female,2024-02-09_13h59.32.584,jersey_experiment_5,2023.2.2,Win32,85.47008547,,,,,,,,,,,,,,,,723.1202,724.4143,724.4143,725.9438,return,0.3392,,84.63541667,,,,,,FBP-YG-81.png,0.4,1.2,38,0.5,,,,,,,,,,,,,0,39,39,37,1,,,,,,,,,,,,,,,,,,,,,,,,,,,,
,,,,,WIN24_051,,Female,2024-02-09_13h59.32.584,jersey_experiment_5,2023.2.2,Win32,85.47008547,,,,,,,,,,,,,,,,725.944,727.2379,727.2379,728.5909,return,0.2317,,89.58333333,,,,,,FBP-YG-71.png,0.43,1.2,34,0.5,,,,,,,,,,,,,0,40,40,33,1,,,,,,,,,,,,,,,,,,,,,,,,,,,,
,,,,,WIN24_051,,Female,2024-02-09_13h59.32.584,jersey_experiment_5,2023.2.2,Win32,85.47008547,,,,,,,,,,,,,,,,728.5912,730.3911,730.3911,731.4735,return,0.1469,,26.953125,,,,,,FBP-OG-91.png,0.37,1.2,12,1,,,,,,,,,,,,,0,41,41,11,1,,,,,,,,,,,,,,,,,,,,,,,,,,,,
,,,,,WIN24_051,,Female,2024-02-09_13h59.32.584,jersey_experiment_5,2023.2.2,Win32,85.47008547,,,,,,,,,,,,,,,,731.4737,733.2737,733.2737,734.0499,return,0.0876,,74.609375,,,,,,FBP-PT-19.png,0.45,1.2,60,1,,,,,,,,,,,,,0,42,42,59,1,,,,,,,,,,,,,,,,,,,,,,,,,,,,
,,,,,WIN24_051,,Female,2024-02-09_13h59.32.584,jersey_experiment_5,2023.2.2,Win32,85.47008547,,,,,,,,,,,,,,,,734.0502,735.344,735.3441,736.4502,return,0.2051,,22.65625,,,,,,FBP-RB-17.png,0.35,1.2,16,0.5,,,,,,,,,,,,,0,43,43,15,1,,,,,,,,,,,,,,,,,,,,,,,,,,,,
,,,,,WIN24_051,,Female,2024-02-09_13h59.32.584,jersey_experiment_5,2023.2.2,Win32,85.47008547,,,,,,,,,,,,,,,,736.4505,737.7443,737.7444,739.0149,return,0.1884,,82.8125,,,,,,FBP-YG-81.png,0.45,1.2,40,0.5,,,,,,,,,,,,,0,44,44,39,1,,,,,,,,,,,,,,,,,,,,,,,,,,,,
,,,,,WIN24_051,,Female,2024-02-09_13h59.32.584,jersey_experiment_5,2023.2.2,Win32,85.47008547,,,,,,,,,,,,,,,,739.0152,740.815,740.815,742.0974,return,0.1443,,19.27083333,,,,,,FBP-PT-19.png,0.35,1.2,56,1,,,,,,,,,,,,,0,45,45,55,1,,,,,,,,,,,,,,,,,,,,,,,,,,,,
,,,,,WIN24_051,,Female,2024-02-09_13h59.32.584,jersey_experiment_5,2023.2.2,Win32,85.47008547,,,,,,,,,,,,,,,,742.0977,743.8975,743.8975,744.7914,return,0.1267,,69.79166667,,,,,,FBP-OG-71.png,0.43,1.2,4,1,,,,,,,,,,,,,0,46,46,3,1,,,,,,,,,,,,,,,,,,,,,,,,,,,,
,,,,,WIN24_051,,Female,2024-02-09_13h59.32.584,jersey_experiment_5,2023.2.2,Win32,85.47008547,,,,,,,,,,,,,,,,744.7917,746.5918,746.5918,747.6622,return,0.1361,,32.16145833,,,,,,FBP-PT-17.png,0.35,1.2,46,1,,,,,,,,,,,,,0,47,47,45,1,,,,,,,,,,,,,,,,,,,,,,,,,,,,
,,,,,WIN24_051,,Female,2024-02-09_13h59.32.584,jersey_experiment_5,2023.2.2,Win32,85.47008547,,,,,,,,,,,,,,,,747.6624,748.9564,748.9564,751.2387,return,0.2123,,43.61979167,,,,,,FBP-RB-18.png,0.37,1.2,22,0.5,,,,,,,,,,,,,0,48,48,21,1,,,,,,,,,,,,,,,,,,,,,,,,,,,,
,,,,,WIN24_051,,Female,2024-02-09_13h59.32.584,jersey_experiment_5,2023.2.2,Win32,85.47008547,,,,,,,,,,,,,,,,751.2389,752.533,752.533,754.933,return,0.9903,,76.30208333,,,,,,FBP-RB-17.png,0.4,1.2,18,0.5,,,,,,,,,,,,,0,49,49,17,1,,,,,,,,,,,,,,,,,,,,,,,,,,,,
,,,,,WIN24_051,,Female,2024-02-09_13h59.32.584,jersey_experiment_5,2023.2.2,Win32,85.47008547,,,,,,,,,,,,,,,,754.9332,756.7334,756.7336,757.9097,return,0.2585,,48.4375,,,,,,FBP-OG-81.png,0.37,1.2,7,1,,,,,,,,,,,,,0,50,50,6,1,,,,,,,,,,,,,,,,,,,,,,,,,,,,
,,,,,WIN24_051,,Female,2024-02-09_13h59.32.584,jersey_experiment_5,2023.2.2,Win32,85.47008547,,,,,,,,,,,,,,,,757.9099,759.2038,759.2039,761.2039,return,0.1327,,21.09375,,,,,,FBP-YG-81.png,0.37,1.2,37,0.5,,,,,,,,,,,,,0,51,51,36,1,,,,,,,,,,,,,,,,,,,,,,,,,,,,
,,,,,WIN24_051,,Female,2024-02-09_13h59.32.584,jersey_experiment_5,2023.2.2,Win32,85.47008547,,,,,,,,,,,,,,,,761.2042,763.004,763.004,763.8393,return,0.1702,,55.33854167,,,,,,FBP-OG-91.png,0.4,1.2,13,1,,,,,,,,,,,,,0,52,52,12,1,,,,,,,,,,,,,,,,,,,,,,,,,,,,
,,,,,WIN24_051,,Female,2024-02-09_13h59.32.584,jersey_experiment_5,2023.2.2,Win32,85.47008547,,,,,,,,,,,,,,,,763.8396,765.1334,765.1334,766.1335,return,0.0345,,48.4375,,,,,,FBP-RB-19.png,0.35,1.2,26,0.5,,,,,,,,,,,,,0,53,53,25,1,,,,,,,,,,,,,,,,,,,,,,,,,,,,
,,,,,WIN24_051,,Female,2024-02-09_13h59.32.584,jersey_experiment_5,2023.2.2,Win32,85.47008547,,,,,,,,,,,,,,,,766.1337,767.9336,767.9336,768.7571,return,0.2029,,78.64583333,,,,,,FBP-OG-81.png,0.45,1.2,10,1,,,,,,,,,,,,,0,54,54,9,1,,,,,,,,,,,,,,,,,,,,,,,,,,,,
,,,,,WIN24_051,,Female,2024-02-09_13h59.32.584,jersey_experiment_5,2023.2.2,Win32,85.47008547,,,,,,,,,,,,,,,,768.7575,770.5571,770.5572,773.9219,return,0.1462,,25.52083333,,,,,,FBP-OG-91.png,0.35,1.2,11,1,,,,,,,,,,,,,0,55,55,10,1,,,,,,,,,,,,,,,,,,,,,,,,,,,,
,,,,,WIN24_051,,Female,2024-02-09_13h59.32.584,jersey_experiment_5,2023.2.2,Win32,85.47008547,,,,,,,,,,,,,,,,773.9222,775.2163,775.2164,776.8632,return,0.1819,,77.21354167,,,,,,FBP-YG-91.png,0.45,1.2,45,0.5,,,,,,,,,,,,,0,56,56,44,1,,,,,,,,,,,,,,,,,,,,,,,,,,,,
,,,,,WIN24_051,,Female,2024-02-09_13h59.32.584,jersey_experiment_5,2023.2.2,Win32,85.47008547,,,,,,,,,,,,,,,,776.8634,778.1575,778.1575,779.1692,return,0.0765,,72.52604167,,,,,,FBP-RB-18.png,0.43,1.2,24,0.5,,,,,,,,,,,,,0,57,57,23,1,,,,,,,,,,,,,,,,,,,,,,,,,,,,
,,,,,WIN24_051,,Female,2024-02-09_13h59.32.584,jersey_experiment_5,2023.2.2,Win32,85.47008547,,,,,,,,,,,,,,,,779.1695,780.9695,780.9696,781.5693,return,0.0151,,57.94270833,,,,,,FBP-OG-71.png,0.35,1.2,1,1,,,,,,,,,,,,,0,58,58,0,1,,,,,,,,,,,,,,,,,,,,,,,,,,,,
,,,,,WIN24_051,,Female,2024-02-09_13h59.32.584,jersey_experiment_5,2023.2.2,Win32,85.47008547,,,,,,,,,,,,,,,,781.5695,782.8635,782.8635,784.2752,return,0.498,,79.296875,,,,,,FBP-RB-18.png,0.45,1.2,25,0.5,,,,,,,,,,,,,0,59,59,24,1,,,,,,,,,,,,,,,,,,,,,,,,,,,,
,,,,,WIN24_051,,Female,2024-02-09_13h59.32.584,jersey_experiment_5,2023.2.2,Win32,85.47008547,,,,,,,,,,,,,,,,784.2781,786.0754,786.0754,786.852,return,0.2267,,90.88541667,,,,,,FBP-OG-17.png,0.45,1.2,5,1,,,,,,,,,,,,,,,,,,0,0,0,4,1,,,,,,,,,,,,,,,,,,,,,,,
,,,,,WIN24_051,,Female,2024-02-09_13h59.32.584,jersey_experiment_5,2023.2.2,Win32,85.47008547,,,,,,,,,,,,,,,,786.8524,788.1462,788.1462,789.1579,return,0.0613,,56.640625,,,,,,FBP-RB-71.png,0.35,1.2,16,0.5,,,,,,,,,,,,,,,,,,0,1,1,15,1,,,,,,,,,,,,,,,,,,,,,,,
,,,,,WIN24_051,,Female,2024-02-09_13h59.32.584,jersey_experiment_5,2023.2.2,Win32,85.47008547,,,,,,,,,,,,,,,,789.1581,790.4521,790.4521,791.3461,return,0.1201,,79.6875,,,,,,FBP-YG-19.png,0.45,1.2,45,0.5,,,,,,,,,,,,,,,,,,0,2,2,44,1,,,,,,,,,,,,,,,,,,,,,,,
,,,,,WIN24_051,,Female,2024-02-09_13h59.32.584,jersey_experiment_5,2023.2.2,Win32,85.47008547,,,,,,,,,,,,,,,,791.3463,793.1461,793.1461,793.8404,return,0.0986,,87.36979167,,,,,,FBP-OG-17.png,0.43,1.2,4,1,,,,,,,,,,,,,,,,,,0,3,3,3,1,,,,,,,,,,,,,,,,,,,,,,,
,,,,,WIN24_051,,Female,2024-02-09_13h59.32.584,jersey_experiment_5,2023.2.2,Win32,85.47008547,,,,,,,,,,,,,,,,793.8405,795.6405,795.6405,796.5463,return,0.1438,,62.76041667,,,,,,FBP-OG-18.png,0.35,1.2,6,1,,,,,,,,,,,,,,,,,,0,4,4,5,1,,,,,,,,,,,,,,,,,,,,,,,
,,,,,WIN24_051,,Female,2024-02-09_13h59.32.584,jersey_experiment_5,2023.2.2,Win32,85.47008547,,,,,,,,,,,,,,,,796.5466,797.8405,797.8406,798.7346,return,0.1148,,75.13020833,,,,,,FBP-YG-19.png,0.4,1.2,43,0.5,,,,,,,,,,,,,,,,,,0,5,5,42,1,,,,,,,,,,,,,,,,,,,,,,,
,,,,,WIN24_051,,Female,2024-02-09_13h59.32.584,jersey_experiment_5,2023.2.2,Win32,85.47008547,,,,,,,,,,,,,,,,798.7349,800.5347,800.5347,801.0642,return,0.1178,,83.07291667,,,,,,FBP-PT-71.png,0.45,1.2,50,1,,,,,,,,,,,,,,,,,,0,6,6,49,1,,,,,,,,,,,,,,,,,,,,,,,
,,,,,WIN24_051,,Female,2024-02-09_13h59.32.584,jersey_experiment_5,2023.2.2,Win32,85.47008547,,,,,,,,,,,,,,,,801.0643,802.3582,802.3582,803.9583,return,0.2125,,35.15625,,,,,,FBP-YG-17.png,0.35,1.2,31,0.5,,,,,,,,,,,,,,,,,,0,7,7,30,1,,,,,,,,,,,,,,,,,,,,,,,
,,,,,WIN24_051,,Female,2024-02-09_13h59.32.584,jersey_experiment_5,2023.2.2,Win32,85.47008547,,,,,,,,,,,,,,,,803.9585,805.7585,805.7585,806.488,return,0.1412,,19.140625,,,,,,FBP-OG-17.png,0.37,1.2,2,1,,,,,,,,,,,,,,,,,,0,8,8,1,1,,,,,,,,,,,,,,,,,,,,,,,
,,,,,WIN24_051,,Female,2024-02-09_13h59.32.584,jersey_experiment_5,2023.2.2,Win32,85.47008547,,,,,,,,,,,,,,,,806.4881,807.782,807.782,809.288,return,0.2592,,24.73958333,,,,,,FBP-RB-81.png,0.4,1.2,23,0.5,,,,,,,,,,,,,,,,,,0,9,9,22,1,,,,,,,,,,,,,,,,,,,,,,,
,,,,,WIN24_051,,Female,2024-02-09_13h59.32.584,jersey_experiment_5,2023.2.2,Win32,85.47008547,,,,,,,,,,,,,,,,809.2883,811.0882,811.0882,811.9234,return,0.0742,,58.33333333,,,,,,FBP-PT-91.png,0.45,1.2,60,1,,,,,,,,,,,,,,,,,,0,10,10,59,1,,,,,,,,,,,,,,,,,,,,,,,
,,,,,WIN24_051,,Female,2024-02-09_13h59.32.584,jersey_experiment_5,2023.2.2,Win32,85.47008547,,,,,,,,,,,,,,,,811.9235,813.2175,813.2175,815.7,return,1.1914,,24.73958333,,,,,,FBP-RB-91.png,0.4,1.2,28,0.5,,,,,,,,,,,,,,,,,,0,11,11,27,1,,,,,,,,,,,,,,,,,,,,,,,
,,,,,WIN24_051,,Female,2024-02-09_13h59.32.584,jersey_experiment_5,2023.2.2,Win32,85.47008547,,,,,,,,,,,,,,,,815.7003,817.5,817.5,818.5588,return,0.3941,,25.26041667,,,,,,FBP-PT-71.png,0.37,1.2,47,1,,,,,,,,,,,,,,,,,,0,12,12,46,1,,,,,,,,,,,,,,,,,,,,,,,
,,,,,WIN24_051,,Female,2024-02-09_13h59.32.584,jersey_experiment_5,2023.2.2,Win32,85.47008547,,,,,,,,,,,,,,,,818.559,820.359,820.359,821.3944,return,0.2286,,25.390625,,,,,,FBP-PT-81.png,0.43,1.2,54,1,,,,,,,,,,,,,,,,,,0,13,13,53,1,,,,,,,,,,,,,,,,,,,,,,,
,,,,,WIN24_051,,Female,2024-02-09_13h59.32.584,jersey_experiment_5,2023.2.2,Win32,85.47008547,,,,,,,,,,,,,,,,821.3945,822.6885,822.6885,823.6061,return,0.2024,,29.42708333,,,,,,FBP-YG-19.png,0.37,1.2,42,0.5,,,,,,,,,,,,,,,,,,0,14,14,41,1,,,,,,,,,,,,,,,,,,,,,,,
,,,,,WIN24_051,,Female,2024-02-09_13h59.32.584,jersey_experiment_5,2023.2.2,Win32,85.47008547,,,,,,,,,,,,,,,,823.6063,824.9003,824.9003,826.1004,return,0.1086,,20.83333333,,,,,,FBP-RB-71.png,0.4,1.2,18,0.5,,,,,,,,,,,,,,,,,,0,15,15,17,1,,,,,,,,,,,,,,,,,,,,,,,
,,,,,WIN24_051,,Female,2024-02-09_13h59.32.584,jersey_experiment_5,2023.2.2,Win32,85.47008547,,,,,,,,,,,,,,,,826.1005,827.9005,827.9005,829.1711,return,0.5921,,42.70833333,,,,,,FBP-OG-19.png,0.37,1.2,12,1,,,,,,,,,,,,,,,,,,0,16,16,11,1,,,,,,,,,,,,,,,,,,,,,,,
,,,,,WIN24_051,,Female,2024-02-09_13h59.32.584,jersey_experiment_5,2023.2.2,Win32,85.47008547,,,,,,,,,,,,,,,,829.1714,830.9713,830.9713,832.1829,return,0.1271,,51.953125,,,,,,FBP-PT-81.png,0.37,1.2,52,1,,,,,,,,,,,,,,,,,,0,17,17,51,1,,,,,,,,,,,,,,,,,,,,,,,
,,,,,WIN24_051,,Female,2024-02-09_13h59.32.584,jersey_experiment_5,2023.2.2,Win32,85.47008547,,,,,,,,,,,,,,,,832.183,833.477,833.477,834.8066,return,0.085,,81.38020833,,,,,,FBP-RB-71.png,0.43,1.2,19,0.5,,,,,,,,,,,,,,,,,,0,18,18,18,1,,,,,,,,,,,,,,,,,,,,,,,
,,,,,WIN24_051,,Female,2024-02-09_13h59.32.584,jersey_experiment_5,2023.2.2,Win32,85.47008547,,,,,,,,,,,,,,,,834.8068,836.1008,836.1008,837.6654,return,0.1092,,83.984375,,,,,,FBP-RB-91.png,0.45,1.2,30,0.5,,,,,,,,,,,,,,,,,,0,19,19,29,1,,,,,,,,,,,,,,,,,,,,,,,
,,,,,WIN24_051,,Female,2024-02-09_13h59.32.584,jersey_experiment_5,2023.2.2,Win32,85.47008547,,,,,,,,,,,,,,,,837.6656,838.9595,838.9595,840.3244,return,0.0262,,64.0625,,,,,,FBP-YG-19.png,0.35,1.2,41,0.5,,,,,,,,,,,,,,,,,,0,20,20,40,1,,,,,,,,,,,,,,,,,,,,,,,
,,,,,WIN24_051,,Female,2024-02-09_13h59.32.584,jersey_experiment_5,2023.2.2,Win32,85.47008547,,,,,,,,,,,,,,,,840.3246,841.6186,841.6186,843.0538,return,0.1033,,82.94270833,,,,,,FBP-YG-17.png,0.45,1.2,35,0.5,,,,,,,,,,,,,,,,,,0,21,21,34,1,,,,,,,,,,,,,,,,,,,,,,,
,,,,,WIN24_051,,Female,2024-02-09_13h59.32.584,jersey_experiment_5,2023.2.2,Win32,85.47008547,,,,,,,,,,,,,,,,843.054,844.8541,844.8542,845.9129,return,0.188,,90.234375,,,,,,FBP-OG-19.png,0.45,1.2,15,1,,,,,,,,,,,,,,,,,,0,22,22,14,1,,,,,,,,,,,,,,,,,,,,,,,
,,,,,WIN24_051,,Female,2024-02-09_13h59.32.584,jersey_experiment_5,2023.2.2,Win32,85.47008547,,,,,,,,,,,,,,,,845.9132,847.207,847.207,849.5601,return,0.3444,,49.86979167,,,,,,FBP-YG-17.png,0.37,1.2,32,0.5,,,,,,,,,,,,,,,,,,0,23,23,31,1,,,,,,,,,,,,,,,,,,,,,,,
,,,,,WIN24_051,,Female,2024-02-09_13h59.32.584,jersey_experiment_5,2023.2.2,Win32,85.47008547,,,,,,,,,,,,,,,,849.5604,851.3602,851.3602,852.4072,return,0.0478,,24.08854167,,,,,,FBP-PT-91.png,0.35,1.2,56,1,,,,,,,,,,,,,,,,,,0,24,24,55,1,,,,,,,,,,,,,,,,,,,,,,,
,,,,,WIN24_051,,Female,2024-02-09_13h59.32.584,jersey_experiment_5,2023.2.2,Win32,85.47008547,,,,,,,,,,,,,,,,852.4073,853.7014,853.7014,855.3954,return,0.3682,,77.21354167,,,,,,FBP-YG-18.png,0.45,1.2,40,0.5,,,,,,,,,,,,,,,,,,0,25,25,39,1,,,,,,,,,,,,,,,,,,,,,,,
,,,,,WIN24_051,,Female,2024-02-09_13h59.32.584,jersey_experiment_5,2023.2.2,Win32,85.47008547,,,,,,,,,,,,,,,,855.3957,856.6898,856.6898,857.7369,return,0.1884,,77.86458333,,,,,,FBP-RB-81.png,0.45,1.2,25,0.5,,,,,,,,,,,,,,,,,,0,26,26,24,1,,,,,,,,,,,,,,,,,,,,,,,
,,,,,WIN24_051,,Female,2024-02-09_13h59.32.584,jersey_experiment_5,2023.2.2,Win32,85.47008547,,,,,,,,,,,,,,,,857.737,859.0308,859.0308,860.6428,return,0.1198,,41.92708333,,,,,,FBP-RB-91.png,0.35,1.2,26,0.5,,,,,,,,,,,,,,,,,,0,27,27,25,1,,,,,,,,,,,,,,,,,,,,,,,
,,,,,WIN24_051,,Female,2024-02-09_13h59.32.584,jersey_experiment_5,2023.2.2,Win32,85.47008547,,,,,,,,,,,,,,,,860.643,862.4427,862.4427,863.9135,return,0.118,,60.546875,,,,,,FBP-PT-81.png,0.35,1.2,51,1,,,,,,,,,,,,,,,,,,0,28,28,50,1,,,,,,,,,,,,,,,,,,,,,,,
,,,,,WIN24_051,,Female,2024-02-09_13h59.32.584,jersey_experiment_5,2023.2.2,Win32,85.47008547,,,,,,,,,,,,,,,,863.9138,865.2077,865.2078,866.6075,return,0.1483,,75,,,,,,FBP-RB-81.png,0.35,1.2,21,0.5,,,,,,,,,,,,,,,,,,0,29,29,20,1,,,,,,,,,,,,,,,,,,,,,,,
,,,,,WIN24_051,,Female,2024-02-09_13h59.32.584,jersey_experiment_5,2023.2.2,Win32,85.47008547,,,,,,,,,,,,,,,,866.6078,867.9018,867.9019,870.6432,return,0.2744,,40.625,,,,,,FBP-RB-71.png,0.37,1.2,17,0.5,,,,,,,,,,,,,,,,,,0,30,30,16,1,,,,,,,,,,,,,,,,,,,,,,,
,,,,,WIN24_051,,Female,2024-02-09_13h59.32.584,jersey_experiment_5,2023.2.2,Win32,85.47008547,,,,,,,,,,,,,,,,870.6435,872.4431,872.4431,873.6668,return,0.2396,,73.69791667,,,,,,FBP-OG-18.png,0.45,1.2,10,1,,,,,,,,,,,,,,,,,,0,31,31,9,1,,,,,,,,,,,,,,,,,,,,,,,
,,,,,WIN24_051,,Female,2024-02-09_13h59.32.584,jersey_experiment_5,2023.2.2,Win32,85.47008547,,,,,,,,,,,,,,,,873.6669,875.4668,875.4668,876.9493,return,0.179,,65.75520833,,,,,,FBP-PT-91.png,0.37,1.2,57,1,,,,,,,,,,,,,,,,,,0,32,32,56,1,,,,,,,,,,,,,,,,,,,,,,,
,,,,,WIN24_051,,Female,2024-02-09_13h59.32.584,jersey_experiment_5,2023.2.2,Win32,85.47008547,,,,,,,,,,,,,,,,876.9494,878.2435,878.2435,883.2671,return,2.8275,,74.34895833,,,,,,FBP-RB-81.png,0.43,1.2,24,0.5,,,,,,,,,,,,,,,,,,0,33,33,23,1,,,,,,,,,,,,,,,,,,,,,,,
,,,,,WIN24_051,,Female,2024-02-09_13h59.32.584,jersey_experiment_5,2023.2.2,Win32,85.47008547,,,,,,,,,,,,,,,,883.2673,884.5612,884.5612,886.5849,return,0.1041,,65.75520833,,,,,,FBP-YG-17.png,0.43,1.2,34,0.5,,,,,,,,,,,,,,,,,,0,34,34,33,1,,,,,,,,,,,,,,,,,,,,,,,
,,,,,WIN24_051,,Female,2024-02-09_13h59.32.584,jersey_experiment_5,2023.2.2,Win32,85.47008547,,,,,,,,,,,,,,,,886.585,888.3852,888.3852,889.4791,return,0.1506,,12.76041667,,,,,,FBP-OG-19.png,0.4,1.2,13,1,,,,,,,,,,,,,,,,,,0,35,35,12,1,,,,,,,,,,,,,,,,,,,,,,,
,,,,,WIN24_051,,Female,2024-02-09_13h59.32.584,jersey_experiment_5,2023.2.2,Win32,85.47008547,,,,,,,,,,,,,,,,889.4793,891.2792,891.2792,893.9852,return,1.4767,,33.33333333,,,,,,FBP-OG-19.png,0.43,1.2,14,1,,,,,,,,,,,,,,,,,,0,36,36,13,1,,,,,,,,,,,,,,,,,,,,,,,
,,,,,WIN24_051,,Female,2024-02-09_13h59.32.584,jersey_experiment_5,2023.2.2,Win32,85.47008547,,,,,,,,,,,,,,,,893.9854,895.7852,895.7852,897.8912,return,0.2836,,59.11458333,,,,,,FBP-OG-17.png,0.4,1.2,3,1,,,,,,,,,,,,,,,,,,0,37,37,2,1,,,,,,,,,,,,,,,,,,,,,,,
,,,,,WIN24_051,,Female,2024-02-09_13h59.32.584,jersey_experiment_5,2023.2.2,Win32,85.47008547,,,,,,,,,,,,,,,,897.8915,899.1854,899.1854,901.3031,return,0.3909,,58.85416667,,,,,,FBP-RB-91.png,0.43,1.2,29,0.5,,,,,,,,,,,,,,,,,,0,38,38,28,1,,,,,,,,,,,,,,,,,,,,,,,
,,,,,WIN24_051,,Female,2024-02-09_13h59.32.584,jersey_experiment_5,2023.2.2,Win32,85.47008547,,,,,,,,,,,,,,,,901.3034,903.1031,903.1031,904.3385,return,0.3219,,58.203125,,,,,,FBP-PT-91.png,0.4,1.2,58,1,,,,,,,,,,,,,,,,,,0,39,39,57,1,,,,,,,,,,,,,,,,,,,,,,,
,,,,,WIN24_051,,Female,2024-02-09_13h59.32.584,jersey_experiment_5,2023.2.2,Win32,85.47008547,,,,,,,,,,,,,,,,904.3388,905.6325,905.6325,908.8563,return,2.1088,,24.08854167,,,,,,FBP-RB-81.png,0.37,1.2,22,0.5,,,,,,,,,,,,,,,,,,0,40,40,21,1,,,,,,,,,,,,,,,,,,,,,,,
,,,,,WIN24_051,,Female,2024-02-09_13h59.32.584,jersey_experiment_5,2023.2.2,Win32,85.47008547,,,,,,,,,,,,,,,,908.8565,910.1505,910.1505,912.8328,return,0.1589,,40.88541667,,,,,,FBP-YG-19.png,0.43,1.2,44,0.5,,,,,,,,,,,,,,,,,,0,41,41,43,1,,,,,,,,,,,,,,,,,,,,,,,
,,,,,WIN24_051,,Female,2024-02-09_13h59.32.584,jersey_experiment_5,2023.2.2,Win32,85.47008547,,,,,,,,,,,,,,,,912.833,914.1272,914.1272,927.7157,return,1.401,,39.71354167,,,,,,FBP-YG-18.png,0.4,1.2,38,0.5,,,,,,,,,,,,,,,,,,0,42,42,37,1,,,,,,,,,,,,,,,,,,,,,,,
,,,,,WIN24_051,,Female,2024-02-09_13h59.32.584,jersey_experiment_5,2023.2.2,Win32,85.47008547,,,,,,,,,,,,,,,,927.7161,929.5159,929.516,930.6926,return,0.2497,,74.609375,,,,,,FBP-PT-91.png,0.43,1.2,59,1,,,,,,,,,,,,,,,,,,0,43,43,58,1,,,,,,,,,,,,,,,,,,,,,,,
,,,,,WIN24_051,,Female,2024-02-09_13h59.32.584,jersey_experiment_5,2023.2.2,Win32,85.47008547,,,,,,,,,,,,,,,,930.6928,931.9868,931.9868,933.2808,return,0.1922,,48.046875,,,,,,FBP-YG-18.png,0.37,1.2,37,0.5,,,,,,,,,,,,,,,,,,0,44,44,36,1,,,,,,,,,,,,,,,,,,,,,,,
,,,,,WIN24_051,,Female,2024-02-09_13h59.32.584,jersey_experiment_5,2023.2.2,Win32,85.47008547,,,,,,,,,,,,,,,,933.281,935.0809,935.0809,936.0808,return,0.1355,,16.66666667,,,,,,FBP-OG-18.png,0.37,1.2,7,1,,,,,,,,,,,,,,,,,,0,45,45,6,1,,,,,,,,,,,,,,,,,,,,,,,
,,,,,WIN24_051,,Female,2024-02-09_13h59.32.584,jersey_experiment_5,2023.2.2,Win32,85.47008547,,,,,,,,,,,,,,,,936.081,937.8808,937.8808,939.0809,return,0.2685,,20.18229167,,,,,,FBP-OG-17.png,0.35,1.2,1,1,,,,,,,,,,,,,,,,,,0,46,46,0,1,,,,,,,,,,,,,,,,,,,,,,,
,,,,,WIN24_051,,Female,2024-02-09_13h59.32.584,jersey_experiment_5,2023.2.2,Win32,85.47008547,,,,,,,,,,,,,,,,939.0812,940.3751,940.3751,941.8105,return,0.4282,,20.3125,,,,,,FBP-YG-18.png,0.35,1.2,36,0.5,,,,,,,,,,,,,,,,,,0,47,47,35,1,,,,,,,,,,,,,,,,,,,,,,,
,,,,,WIN24_051,,Female,2024-02-09_13h59.32.584,jersey_experiment_5,2023.2.2,Win32,85.47008547,,,,,,,,,,,,,,,,941.8107,943.1045,943.1045,945.0575,return,0.3208,,34.89583333,,,,,,FBP-RB-91.png,0.37,1.2,27,0.5,,,,,,,,,,,,,,,,,,0,48,48,26,1,,,,,,,,,,,,,,,,,,,,,,,
,,,,,WIN24_051,,Female,2024-02-09_13h59.32.584,jersey_experiment_5,2023.2.2,Win32,85.47008547,,,,,,,,,,,,,,,,945.0576,946.8577,946.8577,949.54,return,0.4149,,55.59895833,,,,,,FBP-PT-71.png,0.4,1.2,48,1,,,,,,,,,,,,,,,,,,0,49,49,47,1,,,,,,,,,,,,,,,,,,,,,,,
,,,,,WIN24_051,,Female,2024-02-09_13h59.32.584,jersey_experiment_5,2023.2.2,Win32,85.47008547,,,,,,,,,,,,,,,,949.5402,950.8343,950.8344,952.2932,return,0.2262,,49.08854167,,,,,,FBP-YG-17.png,0.4,1.2,33,0.5,,,,,,,,,,,,,,,,,,0,50,50,32,1,,,,,,,,,,,,,,,,,,,,,,,
,,,,,WIN24_051,,Female,2024-02-09_13h59.32.584,jersey_experiment_5,2023.2.2,Win32,85.47008547,,,,,,,,,,,,,,,,952.2934,953.5874,953.5874,954.8227,return,0.1416,,75,,,,,,FBP-YG-18.png,0.43,1.2,39,0.5,,,,,,,,,,,,,,,,,,0,51,51,38,1,,,,,,,,,,,,,,,,,,,,,,,
,,,,,WIN24_051,,Female,2024-02-09_13h59.32.584,jersey_experiment_5,2023.2.2,Win32,85.47008547,,,,,,,,,,,,,,,,954.8229,956.6226,956.6226,957.7523,return,0.3208,,83.203125,,,,,,FBP-PT-81.png,0.45,1.2,55,1,,,,,,,,,,,,,,,,,,0,52,52,54,1,,,,,,,,,,,,,,,,,,,,,,,
,,,,,WIN24_051,,Female,2024-02-09_13h59.32.584,jersey_experiment_5,2023.2.2,Win32,85.47008547,,,,,,,,,,,,,,,,957.7525,959.5522,959.5522,962.7289,return,0.174,,82.55208333,,,,,,FBP-PT-71.png,0.43,1.2,49,1,,,,,,,,,,,,,,,,,,0,53,53,48,1,,,,,,,,,,,,,,,,,,,,,,,
,,,,,WIN24_051,,Female,2024-02-09_13h59.32.584,jersey_experiment_5,2023.2.2,Win32,85.47008547,,,,,,,,,,,,,,,,962.729,964.5291,964.5291,965.576,return,0.1648,,51.69270833,,,,,,FBP-OG-19.png,0.35,1.2,11,1,,,,,,,,,,,,,,,,,,0,54,54,10,1,,,,,,,,,,,,,,,,,,,,,,,
,,,,,WIN24_051,,Female,2024-02-09_13h59.32.584,jersey_experiment_5,2023.2.2,Win32,85.47008547,,,,,,,,,,,,,,,,965.5762,967.376,967.376,969.4232,return,0.2875,,33.72395833,,,,,,FBP-OG-18.png,0.4,1.2,8,1,,,,,,,,,,,,,,,,,,0,55,55,7,1,,,,,,,,,,,,,,,,,,,,,,,
,,,,,WIN24_051,,Female,2024-02-09_13h59.32.584,jersey_experiment_5,2023.2.2,Win32,85.47008547,,,,,,,,,,,,,,,,969.4234,971.2233,971.2233,973.0941,return,0.767,,33.72395833,,,,,,FBP-PT-71.png,0.35,1.2,46,1,,,,,,,,,,,,,,,,,,0,56,56,45,1,,,,,,,,,,,,,,,,,,,,,,,
,,,,,WIN24_051,,Female,2024-02-09_13h59.32.584,jersey_experiment_5,2023.2.2,Win32,85.47008547,,,,,,,,,,,,,,,,973.0943,974.8939,974.894,975.7999,return,0.5319,,48.30729167,,,,,,FBP-PT-81.png,0.4,1.2,53,1,,,,,,,,,,,,,,,,,,0,57,57,52,1,,,,,,,,,,,,,,,,,,,,,,,
,,,,,WIN24_051,,Female,2024-02-09_13h59.32.584,jersey_experiment_5,2023.2.2,Win32,85.47008547,,,,,,,,,,,,,,,,975.8002,977.0941,977.0941,978.3999,return,0.1011,,48.17708333,,,,,,FBP-RB-71.png,0.45,1.2,20,0.5,,,,,,,,,,,,,,,,,,0,58,58,19,1,,,,,,,,,,,,,,,,,,,,,,,
,,,,,WIN24_051,,Female,2024-02-09_13h59.32.584,jersey_experiment_5,2023.2.2,Win32,85.47008547,,,,,,,,,,,,,,,,978.4001,980.2002,980.2002,981.0943,return,0.1883,,79.03645833,,,,,,FBP-OG-18.png,0.43,1.2,9,1,,,,,,,,,,,,,,,,,,0,59,59,8,1,,,,,,,,,,,,,,,,,,,,,,,
,,,,,WIN24_051,,Female,2024-02-09_13h59.32.584,jersey_experiment_5,2023.2.2,Win32,85.47008547,,,,,,,,,,,,,,,,,,,,,,,,,,,,,,,,,,,,,,,,,,,,,,,,,,,,,,,,981.0947,999.3658,return,18.2596,,,,,,,,,,,,,,,,,,,
,,,,,WIN24_051,,Female,2024-02-09_13h59.32.584,jersey_experiment_5,2023.2.2,Win32,85.47008547,,,,,,,,,,,,,,,,,,,,,,,,,,,,,,,,,,,,,,,,,,,,,,,,,,,,,,,,,,,,,999.3658,1004.2011,1,3.3173,return,1.4962,,,,,,,,,,,,
,,,,,WIN24_051,,Female,2024-02-09_13h59.32.584,jersey_experiment_5,2023.2.2,Win32,85.47008547,,,,,,,,,,,,,,,,,,,,,,,,,,,,,,,,,,,,,,,,,,,,,,,,,,,,,,,,,,,,,,,,,,,,1004.2013,1221.7316,"The experiment might possibly be about how racial bias may influence our perception of body size based on skin color/race. This may also be about the influence our perception of body size based on the comparison between other ranging body sizes, with respects to skin color/race. Some patterns were that the same body size football player would be demonstrated twice, with the only difference being the skin color of the respective players. ",right,207.238,,,,,,
,,,,,WIN24_051,,Female,2024-02-09_13h59.32.584,jersey_experiment_5,2023.2.2,Win32,85.47008547,,,,,,,,,,,,,,,,,,,,,,,,,,,,,,,,,,,,,,,,,,,,,,,,,,,,,,,,,,,,,,,,,,,,,,,,,,1221.7317,1228.8212,return,7.0781,