requirements.started,requirements.stopped,key_resp_3.keys,key_resp_3.rt,key_resp_3.duration,Subject ID,Age,Gender,date,expName,psychopyVersion,OS,frameRate,instructions1.started,instructions1.stopped,key_resp.keys,key_resp.rt,key_resp.duration,example.started,example.stopped,enter_2.keys,enter_2.rt,enter_2.duration,instructions2.started,instructions2.stopped,enter_3.keys,enter_3.rt,enter_3.duration,image.started,image.stopped,slider_2.started,slider_2.stopped,next.keys,next.rt,next.duration,slider.response,trial_block_1.thisRepN,trial_block_1.thisTrialN,trial_block_1.thisN,trial_block_1.thisIndex,trial_block_1.ran,Path,Width,Height,Index,Duration,trial_block_2.thisRepN,trial_block_2.thisTrialN,trial_block_2.thisN,trial_block_2.thisIndex,trial_block_2.ran,rest_break.started,rest_break.stopped,end_break.started,end_break.stopped,key_resp_5.keys,key_resp_5.rt,key_resp_5.duration,trial_block_3.thisRepN,trial_block_3.thisTrialN,trial_block_3.thisN,trial_block_3.thisIndex,trial_block_3.ran,trial_block_4.thisRepN,trial_block_4.thisTrialN,trial_block_4.thisN,trial_block_4.thisIndex,trial_block_4.ran,questions_intro.started,questions_intro.stopped,enter_12.keys,enter_12.rt,enter_12.duration,question2.started,question2.stopped,question_doingbest.response,question_doingbest.rt,enter_15.keys,enter_15.rt,enter_15.duration,pattern.started,pattern.stopped,pattern_2.text,enter_17.keys,enter_17.rt,enter_17.duration,thankyou.started,thankyou.stopped,enter_14.keys,enter_14.rt,enter_14.duration
0.0002,9.7361,return,9.7309,,WIN24_063,20,Male,2024-02-15_14h32.04.931,jersey_experiment_5,2023.2.2,Win32,84.74576271,,,,,,,,,,,,,,,,,,,,,,,,,,,,,,,,,,,,,,,,,,,,,,,,,,,,,,,,,,,,,,,,,,,,,,,,,,,,,,
,,,,,WIN24_063,20,Male,2024-02-15_14h32.04.931,jersey_experiment_5,2023.2.2,Win32,84.74576271,9.7362,21.1913,return,11.4459,,,,,,,,,,,,,,,,,,,,,,,,,,,,,,,,,,,,,,,,,,,,,,,,,,,,,,,,,,,,,,,,,,,,,,,,,,
,,,,,WIN24_063,20,Male,2024-02-15_14h32.04.931,jersey_experiment_5,2023.2.2,Win32,84.74576271,,,,,,21.1913,27.4819,return,6.2498,,,,,,,,,,,,,,,,,,,,,,,,,,,,,,,,,,,,,,,,,,,,,,,,,,,,,,,,,,,,,,,,,,,,,
,,,,,WIN24_063,20,Male,2024-02-15_14h32.04.931,jersey_experiment_5,2023.2.2,Win32,84.74576271,,,,,,,,,,,27.482,54.3536,return,26.8664,,,,,,,,,,,,,,,,,,,,,,,,,,,,,,,,,,,,,,,,,,,,,,,,,,,,,,,,,,,,,,,,
,,,,,WIN24_063,20,Male,2024-02-15_14h32.04.931,jersey_experiment_5,2023.2.2,Win32,84.74576271,,,,,,,,,,,,,,,,54.3613,56.1533,56.1533,71.0011,return,8.3297,,74.34895833,0,0,0,17,1,FBP-RB-17.png,0.4,1.2,18,1,,,,,,,,,,,,,,,,,,,,,,,,,,,,,,,,,,,,,,,,,,,,,
,,,,,WIN24_063,20,Male,2024-02-15_14h32.04.931,jersey_experiment_5,2023.2.2,Win32,84.74576271,,,,,,,,,,,,,,,,71.0057,72.3068,72.3069,79.9071,return,4.1943,,64.71354167,0,1,1,7,1,FBP-OG-81.png,0.4,1.2,8,0.5,,,,,,,,,,,,,,,,,,,,,,,,,,,,,,,,,,,,,,,,,,,,,
,,,,,WIN24_063,20,Male,2024-02-15_14h32.04.931,jersey_experiment_5,2023.2.2,Win32,84.74576271,,,,,,,,,,,,,,,,79.9113,81.2132,81.2132,88.1075,return,3.931,,49.73958333,0,2,2,52,1,FBP-PT-18.png,0.4,1.2,53,0.5,,,,,,,,,,,,,,,,,,,,,,,,,,,,,,,,,,,,,,,,,,,,,
,,,,,WIN24_063,20,Male,2024-02-15_14h32.04.931,jersey_experiment_5,2023.2.2,Win32,84.74576271,,,,,,,,,,,,,,,,88.1118,89.9076,89.9076,96.3431,return,1.7085,,62.36979167,0,3,3,28,1,FBP-RB-19.png,0.43,1.2,29,1,,,,,,,,,,,,,,,,,,,,,,,,,,,,,,,,,,,,,,,,,,,,,
,,,,,WIN24_063,20,Male,2024-02-15_14h32.04.931,jersey_experiment_5,2023.2.2,Win32,84.74576271,,,,,,,,,,,,,,,,96.3434,97.6372,97.6372,103.0139,return,1.6977,,26.5625,0,4,4,57,1,FBP-PT-19.png,0.4,1.2,58,0.5,,,,,,,,,,,,,,,,,,,,,,,,,,,,,,,,,,,,,,,,,,,,,
,,,,,WIN24_063,20,Male,2024-02-15_14h32.04.931,jersey_experiment_5,2023.2.2,Win32,84.74576271,,,,,,,,,,,,,,,,103.0142,104.814,104.8141,109.4495,return,1.6004,,50.13020833,0,5,5,38,1,FBP-YG-81.png,0.43,1.2,39,1,,,,,,,,,,,,,,,,,,,,,,,,,,,,,,,,,,,,,,,,,,,,,
,,,,,WIN24_063,20,Male,2024-02-15_14h32.04.931,jersey_experiment_5,2023.2.2,Win32,84.74576271,,,,,,,,,,,,,,,,109.4498,110.7436,110.7436,116.0732,return,2.8335,,9.895833333,0,6,6,1,1,FBP-OG-71.png,0.37,1.2,2,0.5,,,,,,,,,,,,,,,,,,,,,,,,,,,,,,,,,,,,,,,,,,,,,
,,,,,WIN24_063,20,Male,2024-02-15_14h32.04.931,jersey_experiment_5,2023.2.2,Win32,84.74576271,,,,,,,,,,,,,,,,116.0734,117.3674,117.3674,124.7205,return,3.8795,,45.05208333,0,7,7,47,1,FBP-PT-17.png,0.4,1.2,48,0.5,,,,,,,,,,,,,,,,,,,,,,,,,,,,,,,,,,,,,,,,,,,,,
,,,,,WIN24_063,20,Male,2024-02-15_14h32.04.931,jersey_experiment_5,2023.2.2,Win32,84.74576271,,,,,,,,,,,,,,,,124.7248,126.5206,126.5207,133.1562,return,2.076,,3.255208333,0,8,8,35,1,FBP-YG-81.png,0.35,1.2,36,1,,,,,,,,,,,,,,,,,,,,,,,,,,,,,,,,,,,,,,,,,,,,,
,,,,,WIN24_063,20,Male,2024-02-15_14h32.04.931,jersey_experiment_5,2023.2.2,Win32,84.74576271,,,,,,,,,,,,,,,,133.1565,134.9563,134.9564,141.1918,return,2.4842,,31.77083333,0,9,9,37,1,FBP-YG-81.png,0.4,1.2,38,1,,,,,,,,,,,,,,,,,,,,,,,,,,,,,,,,,,,,,,,,,,,,,
,,,,,WIN24_063,20,Male,2024-02-15_14h32.04.931,jersey_experiment_5,2023.2.2,Win32,84.74576271,,,,,,,,,,,,,,,,141.192,142.486,142.486,148.1332,return,1.922,,7.03125,0,10,10,50,1,FBP-PT-18.png,0.35,1.2,51,0.5,,,,,,,,,,,,,,,,,,,,,,,,,,,,,,,,,,,,,,,,,,,,,
,,,,,WIN24_063,20,Male,2024-02-15_14h32.04.931,jersey_experiment_5,2023.2.2,Win32,84.74576271,,,,,,,,,,,,,,,,148.1335,149.4274,149.4274,153.9922,return,1.7318,,93.61979167,0,11,11,59,1,FBP-PT-19.png,0.45,1.2,60,0.5,,,,,,,,,,,,,,,,,,,,,,,,,,,,,,,,,,,,,,,,,,,,,
,,,,,WIN24_063,20,Male,2024-02-15_14h32.04.931,jersey_experiment_5,2023.2.2,Win32,84.74576271,,,,,,,,,,,,,,,,153.9925,155.7922,155.7922,160.9925,return,3.0679,,91.27604167,0,12,12,44,1,FBP-YG-91.png,0.45,1.2,45,1,,,,,,,,,,,,,,,,,,,,,,,,,,,,,,,,,,,,,,,,,,,,,
,,,,,WIN24_063,20,Male,2024-02-15_14h32.04.931,jersey_experiment_5,2023.2.2,Win32,84.74576271,,,,,,,,,,,,,,,,160.9967,162.7926,162.7926,170.2519,return,2.6971,,74.34895833,0,13,13,18,1,FBP-RB-17.png,0.43,1.2,19,1,,,,,,,,,,,,,,,,,,,,,,,,,,,,,,,,,,,,,,,,,,,,,
,,,,,WIN24_063,20,Male,2024-02-15_14h32.04.931,jersey_experiment_5,2023.2.2,Win32,84.74576271,,,,,,,,,,,,,,,,170.2521,172.0517,172.0517,176.2519,return,1.7877,,3.645833333,0,14,14,25,1,FBP-RB-19.png,0.35,1.2,26,1,,,,,,,,,,,,,,,,,,,,,,,,,,,,,,,,,,,,,,,,,,,,,
,,,,,WIN24_063,20,Male,2024-02-15_14h32.04.931,jersey_experiment_5,2023.2.2,Win32,84.74576271,,,,,,,,,,,,,,,,176.2522,177.5461,177.5461,184.3464,return,1.3426,,73.828125,0,15,15,9,1,FBP-OG-81.png,0.45,1.2,10,0.5,,,,,,,,,,,,,,,,,,,,,,,,,,,,,,,,,,,,,,,,,,,,,
,,,,,WIN24_063,20,Male,2024-02-15_14h32.04.931,jersey_experiment_5,2023.2.2,Win32,84.74576271,,,,,,,,,,,,,,,,184.3466,185.6405,185.6405,190.0878,return,1.1291,,50.52083333,0,16,16,3,1,FBP-OG-71.png,0.43,1.2,4,0.5,,,,,,,,,,,,,,,,,,,,,,,,,,,,,,,,,,,,,,,,,,,,,
,,,,,WIN24_063,20,Male,2024-02-15_14h32.04.931,jersey_experiment_5,2023.2.2,Win32,84.74576271,,,,,,,,,,,,,,,,190.088,191.3818,191.3818,197.8645,return,2.9521,,22.78645833,0,17,17,11,1,FBP-OG-91.png,0.37,1.2,12,0.5,,,,,,,,,,,,,,,,,,,,,,,,,,,,,,,,,,,,,,,,,,,,,
,,,,,WIN24_063,20,Male,2024-02-15_14h32.04.931,jersey_experiment_5,2023.2.2,Win32,84.74576271,,,,,,,,,,,,,,,,197.8647,199.1586,199.1586,202.7117,return,1.4609,,49.609375,0,18,18,48,1,FBP-PT-17.png,0.43,1.2,49,0.5,,,,,,,,,,,,,,,,,,,,,,,,,,,,,,,,,,,,,,,,,,,,,
,,,,,WIN24_063,20,Male,2024-02-15_14h32.04.931,jersey_experiment_5,2023.2.2,Win32,84.74576271,,,,,,,,,,,,,,,,202.7119,204.5118,204.5118,208.3943,return,1.3667,,59.50520833,0,19,19,33,1,FBP-YG-71.png,0.43,1.2,34,1,,,,,,,,,,,,,,,,,,,,,,,,,,,,,,,,,,,,,,,,,,,,,
,,,,,WIN24_063,20,Male,2024-02-15_14h32.04.931,jersey_experiment_5,2023.2.2,Win32,84.74576271,,,,,,,,,,,,,,,,208.3946,210.1944,210.1944,215.4416,return,1.1374,,22.65625,0,20,20,21,1,FBP-RB-18.png,0.37,1.2,22,1,,,,,,,,,,,,,,,,,,,,,,,,,,,,,,,,,,,,,,,,,,,,,
,,,,,WIN24_063,20,Male,2024-02-15_14h32.04.931,jersey_experiment_5,2023.2.2,Win32,84.74576271,,,,,,,,,,,,,,,,215.4418,217.2418,217.2418,224.5362,return,1.2848,,65.88541667,0,21,21,24,1,FBP-RB-18.png,0.45,1.2,25,1,,,,,,,,,,,,,,,,,,,,,,,,,,,,,,,,,,,,,,,,,,,,,
,,,,,WIN24_063,20,Male,2024-02-15_14h32.04.931,jersey_experiment_5,2023.2.2,Win32,84.74576271,,,,,,,,,,,,,,,,224.5364,225.8302,225.8304,230.1835,return,1.1202,,4.036458333,0,22,22,45,1,FBP-PT-17.png,0.35,1.2,46,0.5,,,,,,,,,,,,,,,,,,,,,,,,,,,,,,,,,,,,,,,,,,,,,
,,,,,WIN24_063,20,Male,2024-02-15_14h32.04.931,jersey_experiment_5,2023.2.2,Win32,84.74576271,,,,,,,,,,,,,,,,230.1837,231.4776,231.4776,235.8659,return,1.4828,,10.28645833,0,23,23,0,1,FBP-OG-71.png,0.35,1.2,1,0.5,,,,,,,,,,,,,,,,,,,,,,,,,,,,,,,,,,,,,,,,,,,,,
,,,,,WIN24_063,20,Male,2024-02-15_14h32.04.931,jersey_experiment_5,2023.2.2,Win32,84.74576271,,,,,,,,,,,,,,,,235.8662,237.666,237.666,242.5132,return,1.4423,,24.34895833,0,24,24,36,1,FBP-YG-81.png,0.37,1.2,37,1,,,,,,,,,,,,,,,,,,,,,,,,,,,,,,,,,,,,,,,,,,,,,
,,,,,WIN24_063,20,Male,2024-02-15_14h32.04.931,jersey_experiment_5,2023.2.2,Win32,84.74576271,,,,,,,,,,,,,,,,242.5134,244.3132,244.3132,249.6077,return,2.4019,,69.40104167,0,25,25,19,1,FBP-RB-17.png,0.45,1.2,20,1,,,,,,,,,,,,,,,,,,,,,,,,,,,,,,,,,,,,,,,,,,,,,
,,,,,WIN24_063,20,Male,2024-02-15_14h32.04.931,jersey_experiment_5,2023.2.2,Win32,84.74576271,,,,,,,,,,,,,,,,249.6079,251.4077,251.4077,255.5962,return,1.6376,,10.9375,0,26,26,30,1,FBP-YG-71.png,0.35,1.2,31,1,,,,,,,,,,,,,,,,,,,,,,,,,,,,,,,,,,,,,,,,,,,,,
,,,,,WIN24_063,20,Male,2024-02-15_14h32.04.931,jersey_experiment_5,2023.2.2,Win32,84.74576271,,,,,,,,,,,,,,,,255.5965,257.3961,257.3962,262.561,return,1.5731,,73.17708333,0,27,27,29,1,FBP-RB-19.png,0.45,1.2,30,1,,,,,,,,,,,,,,,,,,,,,,,,,,,,,,,,,,,,,,,,,,,,,
,,,,,WIN24_063,20,Male,2024-02-15_14h32.04.931,jersey_experiment_5,2023.2.2,Win32,84.74576271,,,,,,,,,,,,,,,,262.5612,264.3611,264.3611,269.0436,return,1.2767,,13.41145833,0,28,28,20,1,FBP-RB-18.png,0.35,1.2,21,1,,,,,,,,,,,,,,,,,,,,,,,,,,,,,,,,,,,,,,,,,,,,,
,,,,,WIN24_063,20,Male,2024-02-15_14h32.04.931,jersey_experiment_5,2023.2.2,Win32,84.74576271,,,,,,,,,,,,,,,,269.0439,270.3378,270.3378,274.2908,return,1.6172,,10.41666667,0,29,29,10,1,FBP-OG-91.png,0.35,1.2,11,0.5,,,,,,,,,,,,,,,,,,,,,,,,,,,,,,,,,,,,,,,,,,,,,
,,,,,WIN24_063,20,Male,2024-02-15_14h32.04.931,jersey_experiment_5,2023.2.2,Win32,84.74576271,,,,,,,,,,,,,,,,274.291,276.0909,276.091,279.5852,return,1.4067,,20.3125,0,30,30,31,1,FBP-YG-71.png,0.37,1.2,32,1,,,,,,,,,,,,,,,,,,,,,,,,,,,,,,,,,,,,,,,,,,,,,
,,,,,WIN24_063,20,Male,2024-02-15_14h32.04.931,jersey_experiment_5,2023.2.2,Win32,84.74576271,,,,,,,,,,,,,,,,279.5854,280.8794,280.8794,284.8089,return,1.2003,,72.52604167,0,31,31,4,1,FBP-OG-71.png,0.45,1.2,5,0.5,,,,,,,,,,,,,,,,,,,,,,,,,,,,,,,,,,,,,,,,,,,,,
,,,,,WIN24_063,20,Male,2024-02-15_14h32.04.931,jersey_experiment_5,2023.2.2,Win32,84.74576271,,,,,,,,,,,,,,,,284.8092,286.609,286.6091,290.021,return,1.3342,,50.52083333,0,32,32,22,1,FBP-RB-18.png,0.4,1.2,23,1,,,,,,,,,,,,,,,,,,,,,,,,,,,,,,,,,,,,,,,,,,,,,
,,,,,WIN24_063,20,Male,2024-02-15_14h32.04.931,jersey_experiment_5,2023.2.2,Win32,84.74576271,,,,,,,,,,,,,,,,290.0211,291.3151,291.3151,295.08,return,1.4592,,25.26041667,0,33,33,56,1,FBP-PT-19.png,0.37,1.2,57,0.5,,,,,,,,,,,,,,,,,,,,,,,,,,,,,,,,,,,,,,,,,,,,,
,,,,,WIN24_063,20,Male,2024-02-15_14h32.04.931,jersey_experiment_5,2023.2.2,Win32,84.74576271,,,,,,,,,,,,,,,,295.0803,296.3742,296.3742,301.4566,return,1.0892,,67.05729167,0,34,34,58,1,FBP-PT-19.png,0.43,1.2,59,0.5,,,,,,,,,,,,,,,,,,,,,,,,,,,,,,,,,,,,,,,,,,,,,
,,,,,WIN24_063,20,Male,2024-02-15_14h32.04.931,jersey_experiment_5,2023.2.2,Win32,84.74576271,,,,,,,,,,,,,,,,301.4568,302.7507,302.7508,305.3627,return,1.2187,,75.65104167,0,35,35,54,1,FBP-PT-18.png,0.45,1.2,55,0.5,,,,,,,,,,,,,,,,,,,,,,,,,,,,,,,,,,,,,,,,,,,,,
,,,,,WIN24_063,20,Male,2024-02-15_14h32.04.931,jersey_experiment_5,2023.2.2,Win32,84.74576271,,,,,,,,,,,,,,,,305.3629,306.6569,306.6569,309.3039,return,1.4842,,75.65104167,0,36,36,49,1,FBP-PT-17.png,0.45,1.2,50,0.5,,,,,,,,,,,,,,,,,,,,,,,,,,,,,,,,,,,,,,,,,,,,,
,,,,,WIN24_063,20,Male,2024-02-15_14h32.04.931,jersey_experiment_5,2023.2.2,Win32,84.74576271,,,,,,,,,,,,,,,,309.3042,311.1041,311.1041,314.9865,return,1.3779,,51.04166667,0,37,37,27,1,FBP-RB-19.png,0.4,1.2,28,1,,,,,,,,,,,,,,,,,,,,,,,,,,,,,,,,,,,,,,,,,,,,,
,,,,,WIN24_063,20,Male,2024-02-15_14h32.04.931,jersey_experiment_5,2023.2.2,Win32,84.74576271,,,,,,,,,,,,,,,,314.9867,316.2807,316.2807,319.8103,return,1.2899,,38.28125,0,38,38,12,1,FBP-OG-91.png,0.4,1.2,13,0.5,,,,,,,,,,,,,,,,,,,,,,,,,,,,,,,,,,,,,,,,,,,,,
,,,,,WIN24_063,20,Male,2024-02-15_14h32.04.931,jersey_experiment_5,2023.2.2,Win32,84.74576271,,,,,,,,,,,,,,,,319.8106,321.6102,321.6102,324.5986,return,1.2499,,53.90625,0,39,39,23,1,FBP-RB-18.png,0.43,1.2,24,1,,,,,,,,,,,,,,,,,,,,,,,,,,,,,,,,,,,,,,,,,,,,,
,,,,,WIN24_063,20,Male,2024-02-15_14h32.04.931,jersey_experiment_5,2023.2.2,Win32,84.74576271,,,,,,,,,,,,,,,,324.5989,325.8927,325.8927,329.9283,return,0.9781,,14.453125,0,40,40,51,1,FBP-PT-18.png,0.37,1.2,52,0.5,,,,,,,,,,,,,,,,,,,,,,,,,,,,,,,,,,,,,,,,,,,,,
,,,,,WIN24_063,20,Male,2024-02-15_14h32.04.931,jersey_experiment_5,2023.2.2,Win32,84.74576271,,,,,,,,,,,,,,,,329.9285,331.2224,331.2225,336.3403,return,1.4979,,51.5625,0,41,41,8,1,FBP-OG-81.png,0.43,1.2,9,0.5,,,,,,,,,,,,,,,,,,,,,,,,,,,,,,,,,,,,,,,,,,,,,
,,,,,WIN24_063,20,Male,2024-02-15_14h32.04.931,jersey_experiment_5,2023.2.2,Win32,84.74576271,,,,,,,,,,,,,,,,336.3405,337.6344,337.6344,340.164,return,1.2273,,51.5625,0,42,42,53,1,FBP-PT-18.png,0.43,1.2,54,0.5,,,,,,,,,,,,,,,,,,,,,,,,,,,,,,,,,,,,,,,,,,,,,
,,,,,WIN24_063,20,Male,2024-02-15_14h32.04.931,jersey_experiment_5,2023.2.2,Win32,84.74576271,,,,,,,,,,,,,,,,340.1642,341.964,341.964,345.3287,return,1.4912,,6.770833333,0,43,43,40,1,FBP-YG-91.png,0.35,1.2,41,1,,,,,,,,,,,,,,,,,,,,,,,,,,,,,,,,,,,,,,,,,,,,,
,,,,,WIN24_063,20,Male,2024-02-15_14h32.04.931,jersey_experiment_5,2023.2.2,Win32,84.74576271,,,,,,,,,,,,,,,,345.329,347.1291,347.1291,352.0232,return,1.0731,,64.58333333,0,44,44,34,1,FBP-YG-71.png,0.45,1.2,35,1,,,,,,,,,,,,,,,,,,,,,,,,,,,,,,,,,,,,,,,,,,,,,
,,,,,WIN24_063,20,Male,2024-02-15_14h32.04.931,jersey_experiment_5,2023.2.2,Win32,84.74576271,,,,,,,,,,,,,,,,352.0235,353.8233,353.8233,357.7058,return,0.965,,36.97916667,0,45,45,32,1,FBP-YG-71.png,0.4,1.2,33,1,,,,,,,,,,,,,,,,,,,,,,,,,,,,,,,,,,,,,,,,,,,,,
,,,,,WIN24_063,20,Male,2024-02-15_14h32.04.931,jersey_experiment_5,2023.2.2,Win32,84.74576271,,,,,,,,,,,,,,,,357.706,359.5059,359.5059,362.6472,return,1.2261,,26.43229167,0,46,46,42,1,FBP-YG-91.png,0.4,1.2,43,1,,,,,,,,,,,,,,,,,,,,,,,,,,,,,,,,,,,,,,,,,,,,,
,,,,,WIN24_063,20,Male,2024-02-15_14h32.04.931,jersey_experiment_5,2023.2.2,Win32,84.74576271,,,,,,,,,,,,,,,,362.6473,364.4473,364.4473,368.3532,return,1.3378,,61.328125,0,47,47,39,1,FBP-YG-81.png,0.45,1.2,40,1,,,,,,,,,,,,,,,,,,,,,,,,,,,,,,,,,,,,,,,,,,,,,
,,,,,WIN24_063,20,Male,2024-02-15_14h32.04.931,jersey_experiment_5,2023.2.2,Win32,84.74576271,,,,,,,,,,,,,,,,368.3535,369.6475,369.6475,377.836,return,1.472,,10.67708333,0,48,48,55,1,FBP-PT-19.png,0.35,1.2,56,0.5,,,,,,,,,,,,,,,,,,,,,,,,,,,,,,,,,,,,,,,,,,,,,
,,,,,WIN24_063,20,Male,2024-02-15_14h32.04.931,jersey_experiment_5,2023.2.2,Win32,84.74576271,,,,,,,,,,,,,,,,377.8363,379.1301,379.1301,381.6595,return,1.0456,,23.828125,0,49,49,46,1,FBP-PT-17.png,0.37,1.2,47,0.5,,,,,,,,,,,,,,,,,,,,,,,,,,,,,,,,,,,,,,,,,,,,,
,,,,,WIN24_063,20,Male,2024-02-15_14h32.04.931,jersey_experiment_5,2023.2.2,Win32,84.74576271,,,,,,,,,,,,,,,,381.6598,382.9538,382.9538,385.3657,return,0.9199,,36.97916667,0,50,50,2,1,FBP-OG-71.png,0.4,1.2,3,0.5,,,,,,,,,,,,,,,,,,,,,,,,,,,,,,,,,,,,,,,,,,,,,
,,,,,WIN24_063,20,Male,2024-02-15_14h32.04.931,jersey_experiment_5,2023.2.2,Win32,84.74576271,,,,,,,,,,,,,,,,385.366,387.1657,387.1657,389.8952,return,1.4013,,24.47916667,0,51,51,16,1,FBP-RB-17.png,0.37,1.2,17,1,,,,,,,,,,,,,,,,,,,,,,,,,,,,,,,,,,,,,,,,,,,,,
,,,,,WIN24_063,20,Male,2024-02-15_14h32.04.931,jersey_experiment_5,2023.2.2,Win32,84.74576271,,,,,,,,,,,,,,,,389.8955,391.1894,391.1894,395.013,return,1.6501,,24.47916667,0,52,52,5,1,FBP-OG-81.png,0.35,1.2,6,0.5,,,,,,,,,,,,,,,,,,,,,,,,,,,,,,,,,,,,,,,,,,,,,
,,,,,WIN24_063,20,Male,2024-02-15_14h32.04.931,jersey_experiment_5,2023.2.2,Win32,84.74576271,,,,,,,,,,,,,,,,395.0133,396.8133,396.8134,400.3426,return,1.0007,,75,0,53,53,43,1,FBP-YG-91.png,0.43,1.2,44,1,,,,,,,,,,,,,,,,,,,,,,,,,,,,,,,,,,,,,,,,,,,,,
,,,,,WIN24_063,20,Male,2024-02-15_14h32.04.931,jersey_experiment_5,2023.2.2,Win32,84.74576271,,,,,,,,,,,,,,,,400.3429,402.1427,402.1428,406.3077,return,1.7454,,26.69270833,0,54,54,15,1,FBP-RB-17.png,0.35,1.2,16,1,,,,,,,,,,,,,,,,,,,,,,,,,,,,,,,,,,,,,,,,,,,,,
,,,,,WIN24_063,20,Male,2024-02-15_14h32.04.931,jersey_experiment_5,2023.2.2,Win32,84.74576271,,,,,,,,,,,,,,,,406.3079,407.6018,407.6018,412.3432,return,1.2257,,75.78125,0,55,55,13,1,FBP-OG-91.png,0.43,1.2,14,0.5,,,,,,,,,,,,,,,,,,,,,,,,,,,,,,,,,,,,,,,,,,,,,
,,,,,WIN24_063,20,Male,2024-02-15_14h32.04.931,jersey_experiment_5,2023.2.2,Win32,84.74576271,,,,,,,,,,,,,,,,412.3434,414.1432,414.1432,419.1317,return,3.309,,29.6875,0,56,56,26,1,FBP-RB-19.png,0.37,1.2,27,1,,,,,,,,,,,,,,,,,,,,,,,,,,,,,,,,,,,,,,,,,,,,,
,,,,,WIN24_063,20,Male,2024-02-15_14h32.04.931,jersey_experiment_5,2023.2.2,Win32,84.74576271,,,,,,,,,,,,,,,,419.132,420.4258,420.4258,424.7083,return,1.0626,,23.828125,0,57,57,6,1,FBP-OG-81.png,0.37,1.2,7,0.5,,,,,,,,,,,,,,,,,,,,,,,,,,,,,,,,,,,,,,,,,,,,,
,,,,,WIN24_063,20,Male,2024-02-15_14h32.04.931,jersey_experiment_5,2023.2.2,Win32,84.74576271,,,,,,,,,,,,,,,,424.7086,426.0026,426.0026,429.8967,return,1.9405,,58.203125,0,58,58,14,1,FBP-OG-91.png,0.45,1.2,15,0.5,,,,,,,,,,,,,,,,,,,,,,,,,,,,,,,,,,,,,,,,,,,,,
,,,,,WIN24_063,20,Male,2024-02-15_14h32.04.931,jersey_experiment_5,2023.2.2,Win32,84.74576271,,,,,,,,,,,,,,,,429.8969,431.6968,431.6968,435.6735,return,1.7194,,27.47395833,0,59,59,41,1,FBP-YG-91.png,0.37,1.2,42,1,,,,,,,,,,,,,,,,,,,,,,,,,,,,,,,,,,,,,,,,,,,,,
,,,,,WIN24_063,20,Male,2024-02-15_14h32.04.931,jersey_experiment_5,2023.2.2,Win32,84.74576271,,,,,,,,,,,,,,,,435.6754,436.9676,436.9676,441.5443,return,2.7543,,75.13020833,,,,,,FBP-PT-81.png,0.43,1.2,54,0.5,0,0,0,53,1,,,,,,,,,,,,,,,,,,,,,,,,,,,,,,,,,,,,,,,,
,,,,,WIN24_063,20,Male,2024-02-15_14h32.04.931,jersey_experiment_5,2023.2.2,Win32,84.74576271,,,,,,,,,,,,,,,,441.5446,442.8386,442.8386,447.0031,return,1.9163,,17.70833333,,,,,,FBP-OG-17.png,0.35,1.2,1,0.5,0,1,1,0,1,,,,,,,,,,,,,,,,,,,,,,,,,,,,,,,,,,,,,,,,
,,,,,WIN24_063,20,Male,2024-02-15_14h32.04.931,jersey_experiment_5,2023.2.2,Win32,84.74576271,,,,,,,,,,,,,,,,447.0034,448.2974,448.2974,452.1211,return,1.6132,,41.015625,,,,,,FBP-OG-18.png,0.4,1.2,8,0.5,0,2,2,7,1,,,,,,,,,,,,,,,,,,,,,,,,,,,,,,,,,,,,,,,,
,,,,,WIN24_063,20,Male,2024-02-15_14h32.04.931,jersey_experiment_5,2023.2.2,Win32,84.74576271,,,,,,,,,,,,,,,,452.1213,453.9211,453.9211,456.2977,return,1.3516,,41.27604167,,,,,,FBP-RB-71.png,0.37,1.2,17,1,0,3,3,16,1,,,,,,,,,,,,,,,,,,,,,,,,,,,,,,,,,,,,,,,,
,,,,,WIN24_063,20,Male,2024-02-15_14h32.04.931,jersey_experiment_5,2023.2.2,Win32,84.74576271,,,,,,,,,,,,,,,,456.2979,457.5918,457.5918,466.2509,return,6.165,,77.734375,,,,,,FBP-PT-81.png,0.45,1.2,55,0.5,0,4,4,54,1,,,,,,,,,,,,,,,,,,,,,,,,,,,,,,,,,,,,,,,,
,,,,,WIN24_063,20,Male,2024-02-15_14h32.04.931,jersey_experiment_5,2023.2.2,Win32,84.74576271,,,,,,,,,,,,,,,,466.2511,468.0511,468.0511,471.3335,return,1.7548,,5.078125,,,,,,FBP-RB-71.png,0.35,1.2,16,1,0,5,5,15,1,,,,,,,,,,,,,,,,,,,,,,,,,,,,,,,,,,,,,,,,
,,,,,WIN24_063,20,Male,2024-02-15_14h32.04.931,jersey_experiment_5,2023.2.2,Win32,84.74576271,,,,,,,,,,,,,,,,471.3337,472.6277,472.6277,476.2513,return,1.5856,,43.61979167,,,,,,FBP-PT-71.png,0.4,1.2,48,0.5,0,6,6,47,1,,,,,,,,,,,,,,,,,,,,,,,,,,,,,,,,,,,,,,,,
,,,,,WIN24_063,20,Male,2024-02-15_14h32.04.931,jersey_experiment_5,2023.2.2,Win32,84.74576271,,,,,,,,,,,,,,,,476.2516,478.0515,478.0515,481.7222,return,1.8026,,51.04166667,,,,,,FBP-RB-91.png,0.43,1.2,29,1,0,7,7,28,1,,,,,,,,,,,,,,,,,,,,,,,,,,,,,,,,,,,,,,,,
,,,,,WIN24_063,20,Male,2024-02-15_14h32.04.931,jersey_experiment_5,2023.2.2,Win32,84.74576271,,,,,,,,,,,,,,,,481.7225,483.5222,483.5222,488.2637,return,2.3665,,22.39583333,,,,,,FBP-YG-19.png,0.35,1.2,41,1,0,8,8,40,1,,,,,,,,,,,,,,,,,,,,,,,,,,,,,,,,,,,,,,,,
,,,,,WIN24_063,20,Male,2024-02-15_14h32.04.931,jersey_experiment_5,2023.2.2,Win32,84.74576271,,,,,,,,,,,,,,,,488.2639,490.0636,490.0636,494.9227,return,2.8006,,66.14583333,,,,,,FBP-YG-19.png,0.45,1.2,45,1,0,9,9,44,1,,,,,,,,,,,,,,,,,,,,,,,,,,,,,,,,,,,,,,,,
,,,,,WIN24_063,20,Male,2024-02-15_14h32.04.931,jersey_experiment_5,2023.2.2,Win32,84.74576271,,,,,,,,,,,,,,,,494.9229,496.7226,496.7226,500.2758,return,2.0764,,43.48958333,,,,,,FBP-YG-17.png,0.4,1.2,33,1,0,10,10,32,1,,,,,,,,,,,,,,,,,,,,,,,,,,,,,,,,,,,,,,,,
,,,,,WIN24_063,20,Male,2024-02-15_14h32.04.931,jersey_experiment_5,2023.2.2,Win32,84.74576271,,,,,,,,,,,,,,,,500.276,502.0759,502.0759,505.1584,return,1.1781,,27.08333333,,,,,,FBP-YG-19.png,0.37,1.2,42,1,0,11,11,41,1,,,,,,,,,,,,,,,,,,,,,,,,,,,,,,,,,,,,,,,,
,,,,,WIN24_063,20,Male,2024-02-15_14h32.04.931,jersey_experiment_5,2023.2.2,Win32,84.74576271,,,,,,,,,,,,,,,,505.1587,506.4525,506.4525,510.3586,return,2.4619,,27.08333333,,,,,,FBP-OG-19.png,0.4,1.2,13,0.5,0,12,12,12,1,,,,,,,,,,,,,,,,,,,,,,,,,,,,,,,,,,,,,,,,
,,,,,WIN24_063,20,Male,2024-02-15_14h32.04.931,jersey_experiment_5,2023.2.2,Win32,84.74576271,,,,,,,,,,,,,,,,510.3588,512.1585,512.1585,516.6411,return,1.1603,,55.33854167,,,,,,FBP-RB-71.png,0.43,1.2,19,1,0,13,13,18,1,,,,,,,,,,,,,,,,,,,,,,,,,,,,,,,,,,,,,,,,
,,,,,WIN24_063,20,Male,2024-02-15_14h32.04.931,jersey_experiment_5,2023.2.2,Win32,84.74576271,,,,,,,,,,,,,,,,516.6413,518.4411,518.4412,524.8532,return,4.0632,,8.854166667,,,,,,FBP-RB-91.png,0.35,1.2,26,1,0,14,14,25,1,,,,,,,,,,,,,,,,,,,,,,,,,,,,,,,,,,,,,,,,
,,,,,WIN24_063,20,Male,2024-02-15_14h32.04.931,jersey_experiment_5,2023.2.2,Win32,84.74576271,,,,,,,,,,,,,,,,524.8534,526.1473,526.1473,531.0887,return,1.4559,,9.114583333,,,,,,FBP-PT-91.png,0.35,1.2,56,0.5,0,15,15,55,1,,,,,,,,,,,,,,,,,,,,,,,,,,,,,,,,,,,,,,,,
,,,,,WIN24_063,20,Male,2024-02-15_14h32.04.931,jersey_experiment_5,2023.2.2,Win32,84.74576271,,,,,,,,,,,,,,,,531.0889,532.3829,532.383,537.8185,return,2.6137,,27.34375,,,,,,FBP-OG-17.png,0.4,1.2,3,0.5,0,16,16,2,1,,,,,,,,,,,,,,,,,,,,,,,,,,,,,,,,,,,,,,,,
,,,,,WIN24_063,20,Male,2024-02-15_14h32.04.931,jersey_experiment_5,2023.2.2,Win32,84.74576271,,,,,,,,,,,,,,,,537.8187,539.6184,539.6184,543.2186,return,1.7248,,8.203125,,,,,,FBP-YG-17.png,0.35,1.2,31,1,0,17,17,30,1,,,,,,,,,,,,,,,,,,,,,,,,,,,,,,,,,,,,,,,,
,,,,,WIN24_063,20,Male,2024-02-15_14h32.04.931,jersey_experiment_5,2023.2.2,Win32,84.74576271,,,,,,,,,,,,,,,,543.2189,544.5127,544.5128,549.7364,return,2.7776,,59.765625,,,,,,FBP-OG-18.png,0.43,1.2,9,0.5,0,18,18,8,1,,,,,,,,,,,,,,,,,,,,,,,,,,,,,,,,,,,,,,,,
,,,,,WIN24_063,20,Male,2024-02-15_14h32.04.931,jersey_experiment_5,2023.2.2,Win32,84.74576271,,,,,,,,,,,,,,,,549.7366,551.5365,551.5366,557.4779,return,3.5199,,44.27083333,,,,,,FBP-RB-81.png,0.4,1.2,23,1,0,19,19,22,1,,,,,,,,,,,,,,,,,,,,,,,,,,,,,,,,,,,,,,,,
,,,,,WIN24_063,20,Male,2024-02-15_14h32.04.931,jersey_experiment_5,2023.2.2,Win32,84.74576271,,,,,,,,,,,,,,,,557.4781,559.278,559.278,563.1957,return,2.1283,,60.80729167,,,,,,FBP-RB-71.png,0.45,1.2,20,1,0,20,20,19,1,,,,,,,,,,,,,,,,,,,,,,,,,,,,,,,,,,,,,,,,
,,,,,WIN24_063,20,Male,2024-02-15_14h32.04.931,jersey_experiment_5,2023.2.2,Win32,84.74576271,,,,,,,,,,,,,,,,563.196,564.4899,564.4899,568.5371,return,1.564,,50.52083333,,,,,,FBP-PT-91.png,0.43,1.2,59,0.5,0,21,21,58,1,,,,,,,,,,,,,,,,,,,,,,,,,,,,,,,,,,,,,,,,
,,,,,WIN24_063,20,Male,2024-02-15_14h32.04.931,jersey_experiment_5,2023.2.2,Win32,84.74576271,,,,,,,,,,,,,,,,568.5374,570.3373,570.3373,572.9137,return,0.9726,,50.52083333,,,,,,FBP-RB-81.png,0.45,1.2,25,1,0,22,22,24,1,,,,,,,,,,,,,,,,,,,,,,,,,,,,,,,,,,,,,,,,
,,,,,WIN24_063,20,Male,2024-02-15_14h32.04.931,jersey_experiment_5,2023.2.2,Win32,84.74576271,,,,,,,,,,,,,,,,572.9141,574.7139,574.7139,577.7022,return,1.555,,8.59375,,,,,,FBP-RB-81.png,0.35,1.2,21,1,0,23,23,20,1,,,,,,,,,,,,,,,,,,,,,,,,,,,,,,,,,,,,,,,,
,,,,,WIN24_063,20,Male,2024-02-15_14h32.04.931,jersey_experiment_5,2023.2.2,Win32,84.74576271,,,,,,,,,,,,,,,,577.7024,578.9964,578.9964,582.1376,return,1.1294,,36.328125,,,,,,FBP-PT-81.png,0.4,1.2,53,0.5,0,24,24,52,1,,,,,,,,,,,,,,,,,,,,,,,,,,,,,,,,,,,,,,,,
,,,,,WIN24_063,20,Male,2024-02-15_14h32.04.931,jersey_experiment_5,2023.2.2,Win32,84.74576271,,,,,,,,,,,,,,,,582.1379,583.9378,583.9378,588.2438,return,1.9573,,56.90104167,,,,,,FBP-YG-19.png,0.43,1.2,44,1,0,25,25,43,1,,,,,,,,,,,,,,,,,,,,,,,,,,,,,,,,,,,,,,,,
,,,,,WIN24_063,20,Male,2024-02-15_14h32.04.931,jersey_experiment_5,2023.2.2,Win32,84.74576271,,,,,,,,,,,,,,,,588.244,589.538,589.5381,593.5733,return,2.1322,,25.91145833,,,,,,FBP-PT-71.png,0.35,1.2,46,0.5,0,26,26,45,1,,,,,,,,,,,,,,,,,,,,,,,,,,,,,,,,,,,,,,,,
,,,,,WIN24_063,20,Male,2024-02-15_14h32.04.931,jersey_experiment_5,2023.2.2,Win32,84.74576271,,,,,,,,,,,,,,,,593.5736,594.8675,594.8675,598.4089,return,2.0471,,50,,,,,,FBP-OG-19.png,0.43,1.2,14,0.5,0,27,27,13,1,,,,,,,,,,,,,,,,,,,,,,,,,,,,,,,,,,,,,,,,
,,,,,WIN24_063,20,Male,2024-02-15_14h32.04.931,jersey_experiment_5,2023.2.2,Win32,84.74576271,,,,,,,,,,,,,,,,598.4091,600.2089,600.209,604.562,return,2.1016,,26.5625,,,,,,FBP-YG-17.png,0.37,1.2,32,1,0,28,28,31,1,,,,,,,,,,,,,,,,,,,,,,,,,,,,,,,,,,,,,,,,
,,,,,WIN24_063,20,Male,2024-02-15_14h32.04.931,jersey_experiment_5,2023.2.2,Win32,84.74576271,,,,,,,,,,,,,,,,604.5665,605.8679,605.868,610.774,return,2.3801,,71.22395833,,,,,,FBP-PT-91.png,0.45,1.2,60,0.5,0,29,29,59,1,,,,,,,,,,,,,,,,,,,,,,,,,,,,,,,,,,,,,,,,
,,,,,WIN24_063,20,Male,2024-02-15_14h32.04.931,jersey_experiment_5,2023.2.2,Win32,84.74576271,,,,,,,,,,,,,,,,610.7789,612.5741,612.5741,620.2097,return,5.7824,,22.91666667,,,,,,FBP-YG-18.png,0.35,1.2,36,1,0,30,30,35,1,,,,,,,,,,,,,,,,,,,,,,,,,,,,,,,,,,,,,,,,
,,,,,WIN24_063,20,Male,2024-02-15_14h32.04.931,jersey_experiment_5,2023.2.2,Win32,84.74576271,,,,,,,,,,,,,,,,620.2099,622.0098,622.0098,625.3157,return,1.3706,,72.13541667,,,,,,FBP-YG-17.png,0.45,1.2,35,1,0,31,31,34,1,,,,,,,,,,,,,,,,,,,,,,,,,,,,,,,,,,,,,,,,
,,,,,WIN24_063,20,Male,2024-02-15_14h32.04.931,jersey_experiment_5,2023.2.2,Win32,84.74576271,,,,,,,,,,,,,,,,625.316,626.61,626.61,629.1395,return,1.1475,,27.99479167,,,,,,FBP-PT-81.png,0.37,1.2,52,0.5,0,32,32,51,1,,,,,,,,,,,,,,,,,,,,,,,,,,,,,,,,,,,,,,,,
,,,,,WIN24_063,20,Male,2024-02-15_14h32.04.931,jersey_experiment_5,2023.2.2,Win32,84.74576271,,,,,,,,,,,,,,,,629.1398,630.9395,630.9395,633.4455,return,0.9098,,48.95833333,,,,,,FBP-YG-17.png,0.43,1.2,34,1,0,33,33,33,1,,,,,,,,,,,,,,,,,,,,,,,,,,,,,,,,,,,,,,,,
,,,,,WIN24_063,20,Male,2024-02-15_14h32.04.931,jersey_experiment_5,2023.2.2,Win32,84.74576271,,,,,,,,,,,,,,,,633.4457,635.2455,635.2455,638.2575,return,1.3366,,26.82291667,,,,,,FBP-RB-81.png,0.37,1.2,22,1,0,34,34,21,1,,,,,,,,,,,,,,,,,,,,,,,,,,,,,,,,,,,,,,,,
,,,,,WIN24_063,20,Male,2024-02-15_14h32.04.931,jersey_experiment_5,2023.2.2,Win32,84.74576271,,,,,,,,,,,,,,,,638.2577,639.5516,639.5516,643.4341,return,1.5866,,26.82291667,,,,,,FBP-PT-91.png,0.4,1.2,58,0.5,0,35,35,57,1,,,,,,,,,,,,,,,,,,,,,,,,,,,,,,,,,,,,,,,,
,,,,,WIN24_063,20,Male,2024-02-15_14h32.04.931,jersey_experiment_5,2023.2.2,Win32,84.74576271,,,,,,,,,,,,,,,,643.4344,645.2341,645.2341,648.5872,return,1.5873,,28.515625,,,,,,FBP-RB-71.png,0.4,1.2,18,1,0,36,36,17,1,,,,,,,,,,,,,,,,,,,,,,,,,,,,,,,,,,,,,,,,
,,,,,WIN24_063,20,Male,2024-02-15_14h32.04.931,jersey_experiment_5,2023.2.2,Win32,84.74576271,,,,,,,,,,,,,,,,648.5875,650.3874,650.3874,654.058,return,2.0858,,50.390625,,,,,,FBP-YG-18.png,0.43,1.2,39,1,0,37,37,38,1,,,,,,,,,,,,,,,,,,,,,,,,,,,,,,,,,,,,,,,,
,,,,,WIN24_063,20,Male,2024-02-15_14h32.04.931,jersey_experiment_5,2023.2.2,Win32,84.74576271,,,,,,,,,,,,,,,,654.0583,655.8581,655.8581,659.0583,return,1.5129,,41.92708333,,,,,,FBP-RB-91.png,0.4,1.2,28,1,0,38,38,27,1,,,,,,,,,,,,,,,,,,,,,,,,,,,,,,,,,,,,,,,,
,,,,,WIN24_063,20,Male,2024-02-15_14h32.04.931,jersey_experiment_5,2023.2.2,Win32,84.74576271,,,,,,,,,,,,,,,,659.0585,660.8583,660.8584,664.6113,return,1.3003,,38.54166667,,,,,,FBP-YG-19.png,0.4,1.2,43,1,0,39,39,42,1,,,,,,,,,,,,,,,,,,,,,,,,,,,,,,,,,,,,,,,,
,,,,,WIN24_063,20,Male,2024-02-15_14h32.04.931,jersey_experiment_5,2023.2.2,Win32,84.74576271,,,,,,,,,,,,,,,,664.6115,665.9055,665.9055,669.7174,return,1.8958,,67.05729167,,,,,,FBP-OG-18.png,0.45,1.2,10,0.5,0,40,40,9,1,,,,,,,,,,,,,,,,,,,,,,,,,,,,,,,,,,,,,,,,
,,,,,WIN24_063,20,Male,2024-02-15_14h32.04.931,jersey_experiment_5,2023.2.2,Win32,84.74576271,,,,,,,,,,,,,,,,669.7177,671.0116,671.0116,674.5646,return,1.427,,7.03125,,,,,,FBP-PT-81.png,0.35,1.2,51,0.5,0,41,41,50,1,,,,,,,,,,,,,,,,,,,,,,,,,,,,,,,,,,,,,,,,
,,,,,WIN24_063,20,Male,2024-02-15_14h32.04.931,jersey_experiment_5,2023.2.2,Win32,84.74576271,,,,,,,,,,,,,,,,674.5649,675.8588,675.8588,680.0355,return,1.6178,,51.171875,,,,,,FBP-OG-17.png,0.43,1.2,4,0.5,0,42,42,3,1,,,,,,,,,,,,,,,,,,,,,,,,,,,,,,,,,,,,,,,,
,,,,,WIN24_063,20,Male,2024-02-15_14h32.04.931,jersey_experiment_5,2023.2.2,Win32,84.74576271,,,,,,,,,,,,,,,,680.0358,681.3297,681.3297,684.8592,return,1.7887,,60.41666667,,,,,,FBP-OG-19.png,0.45,1.2,15,0.5,0,43,43,14,1,,,,,,,,,,,,,,,,,,,,,,,,,,,,,,,,,,,,,,,,
,,,,,WIN24_063,20,Male,2024-02-15_14h32.04.931,jersey_experiment_5,2023.2.2,Win32,84.74576271,,,,,,,,,,,,,,,,684.8594,686.1533,686.1533,689.6124,return,1.4964,,26.5625,,,,,,FBP-OG-19.png,0.37,1.2,12,0.5,0,44,44,11,1,,,,,,,,,,,,,,,,,,,,,,,,,,,,,,,,,,,,,,,,
,,,,,WIN24_063,20,Male,2024-02-15_14h32.04.931,jersey_experiment_5,2023.2.2,Win32,84.74576271,,,,,,,,,,,,,,,,689.6125,691.4123,691.4123,694.283,return,1.4359,,24.34895833,,,,,,FBP-YG-18.png,0.37,1.2,37,1,0,45,45,36,1,,,,,,,,,,,,,,,,,,,,,,,,,,,,,,,,,,,,,,,,
,,,,,WIN24_063,20,Male,2024-02-15_14h32.04.931,jersey_experiment_5,2023.2.2,Win32,84.74576271,,,,,,,,,,,,,,,,694.2832,695.5772,695.5772,699.4127,return,1.5209,,73.17708333,,,,,,FBP-PT-71.png,0.43,1.2,49,0.5,0,46,46,48,1,,,,,,,,,,,,,,,,,,,,,,,,,,,,,,,,,,,,,,,,
,,,,,WIN24_063,20,Male,2024-02-15_14h32.04.931,jersey_experiment_5,2023.2.2,Win32,84.74576271,,,,,,,,,,,,,,,,699.4129,701.2128,701.2128,704.0364,return,1.3114,,72.78645833,,,,,,FBP-RB-81.png,0.43,1.2,24,1,0,47,47,23,1,,,,,,,,,,,,,,,,,,,,,,,,,,,,,,,,,,,,,,,,
,,,,,WIN24_063,20,Male,2024-02-15_14h32.04.931,jersey_experiment_5,2023.2.2,Win32,84.74576271,,,,,,,,,,,,,,,,704.0366,705.8363,705.8363,709.4484,return,2.0851,,79.16666667,,,,,,FBP-YG-18.png,0.45,1.2,40,1,0,48,48,39,1,,,,,,,,,,,,,,,,,,,,,,,,,,,,,,,,,,,,,,,,
,,,,,WIN24_063,20,Male,2024-02-15_14h32.04.931,jersey_experiment_5,2023.2.2,Win32,84.74576271,,,,,,,,,,,,,,,,709.4485,710.7425,710.7425,714.5545,return,1.7659,,17.96875,,,,,,FBP-OG-18.png,0.35,1.2,6,0.5,0,49,49,5,1,,,,,,,,,,,,,,,,,,,,,,,,,,,,,,,,,,,,,,,,
,,,,,WIN24_063,20,Male,2024-02-15_14h32.04.931,jersey_experiment_5,2023.2.2,Win32,84.74576271,,,,,,,,,,,,,,,,714.5547,716.3543,716.3544,719.3663,return,1.5194,,75,,,,,,FBP-RB-91.png,0.45,1.2,30,1,0,50,50,29,1,,,,,,,,,,,,,,,,,,,,,,,,,,,,,,,,,,,,,,,,
,,,,,WIN24_063,20,Male,2024-02-15_14h32.04.931,jersey_experiment_5,2023.2.2,Win32,84.74576271,,,,,,,,,,,,,,,,719.3665,720.6605,720.6605,723.8489,return,1.5055,,75,,,,,,FBP-OG-17.png,0.45,1.2,5,0.5,0,51,51,4,1,,,,,,,,,,,,,,,,,,,,,,,,,,,,,,,,,,,,,,,,
,,,,,WIN24_063,20,Male,2024-02-15_14h32.04.931,jersey_experiment_5,2023.2.2,Win32,84.74576271,,,,,,,,,,,,,,,,723.8491,725.1431,725.1431,728.6962,return,1.4353,,26.82291667,,,,,,FBP-PT-71.png,0.37,1.2,47,0.5,0,52,52,46,1,,,,,,,,,,,,,,,,,,,,,,,,,,,,,,,,,,,,,,,,
,,,,,WIN24_063,20,Male,2024-02-15_14h32.04.931,jersey_experiment_5,2023.2.2,Win32,84.74576271,,,,,,,,,,,,,,,,728.6964,730.4961,730.4961,733.0257,return,1.0888,,25.78125,,,,,,FBP-RB-91.png,0.37,1.2,27,1,0,53,53,26,1,,,,,,,,,,,,,,,,,,,,,,,,,,,,,,,,,,,,,,,,
,,,,,WIN24_063,20,Male,2024-02-15_14h32.04.931,jersey_experiment_5,2023.2.2,Win32,84.74576271,,,,,,,,,,,,,,,,733.0259,734.3199,734.32,736.5788,return,0.8762,,25.78125,,,,,,FBP-OG-17.png,0.37,1.2,2,0.5,0,54,54,1,1,,,,,,,,,,,,,,,,,,,,,,,,,,,,,,,,,,,,,,,,
,,,,,WIN24_063,20,Male,2024-02-15_14h32.04.931,jersey_experiment_5,2023.2.2,Win32,84.74576271,,,,,,,,,,,,,,,,736.579,737.873,737.873,742.1555,return,2.4716,,11.58854167,,,,,,FBP-OG-19.png,0.35,1.2,11,0.5,0,55,55,10,1,,,,,,,,,,,,,,,,,,,,,,,,,,,,,,,,,,,,,,,,
,,,,,WIN24_063,20,Male,2024-02-15_14h32.04.931,jersey_experiment_5,2023.2.2,Win32,84.74576271,,,,,,,,,,,,,,,,742.1557,743.4497,743.4497,746.9203,return,1.6484,,57.16145833,,,,,,FBP-PT-71.png,0.45,1.2,50,0.5,0,56,56,49,1,,,,,,,,,,,,,,,,,,,,,,,,,,,,,,,,,,,,,,,,
,,,,,WIN24_063,20,Male,2024-02-15_14h32.04.931,jersey_experiment_5,2023.2.2,Win32,84.74576271,,,,,,,,,,,,,,,,746.9205,748.7204,748.7204,752.2734,return,2.232,,37.5,,,,,,FBP-YG-18.png,0.4,1.2,38,1,0,57,57,37,1,,,,,,,,,,,,,,,,,,,,,,,,,,,,,,,,,,,,,,,,
,,,,,WIN24_063,20,Male,2024-02-15_14h32.04.931,jersey_experiment_5,2023.2.2,Win32,84.74576271,,,,,,,,,,,,,,,,752.2737,753.5676,753.5676,757.3561,return,1.7884,,29.03645833,,,,,,FBP-OG-18.png,0.37,1.2,7,0.5,0,58,58,6,1,,,,,,,,,,,,,,,,,,,,,,,,,,,,,,,,,,,,,,,,
,,,,,WIN24_063,20,Male,2024-02-15_14h32.04.931,jersey_experiment_5,2023.2.2,Win32,84.74576271,,,,,,,,,,,,,,,,757.3562,758.6502,758.6502,763.8033,return,3.0491,,23.046875,,,,,,FBP-PT-91.png,0.37,1.2,57,0.5,0,59,59,56,1,,,,,,,,,,,,,,,,,,,,,,,,,,,,,,,,,,,,,,,,
,,,,,WIN24_063,20,Male,2024-02-15_14h32.04.931,jersey_experiment_5,2023.2.2,Win32,84.74576271,,,,,,,,,,,,,,,,,,,,,,,,,,,,,,,,,,,,,,,763.8038,883.8082,,,,,,,,,,,,,,,,,,,,,,,,,,,,,,,,,,,,,,
,,,,,WIN24_063,20,Male,2024-02-15_14h32.04.931,jersey_experiment_5,2023.2.2,Win32,84.74576271,,,,,,,,,,,,,,,,,,,,,,,,,,,,,,,,,,,,,,,,,883.8082,891.62,return,7.8048,,,,,,,,,,,,,,,,,,,,,,,,,,,,,,,,,,
,,,,,WIN24_063,20,Male,2024-02-15_14h32.04.931,jersey_experiment_5,2023.2.2,Win32,84.74576271,,,,,,,,,,,,,,,,891.6264,893.4199,893.4199,898.6907,return,1.442,,46.22395833,,,,,,FBP-PT-18.png,0.43,1.2,54,1,,,,,,,,,,,,,0,0,0,53,1,,,,,,,,,,,,,,,,,,,,,,,,,,,,
,,,,,WIN24_063,20,Male,2024-02-15_14h32.04.931,jersey_experiment_5,2023.2.2,Win32,84.74576271,,,,,,,,,,,,,,,,898.6909,899.9848,899.9848,902.4084,return,1.0838,,49.609375,,,,,,FBP-YG-71.png,0.43,1.2,34,0.5,,,,,,,,,,,,,0,1,1,33,1,,,,,,,,,,,,,,,,,,,,,,,,,,,,
,,,,,WIN24_063,20,Male,2024-02-15_14h32.04.931,jersey_experiment_5,2023.2.2,Win32,84.74576271,,,,,,,,,,,,,,,,902.4086,904.2085,904.2086,906.9616,return,1.0888,,7.161458333,,,,,,FBP-PT-19.png,0.35,1.2,56,1,,,,,,,,,,,,,0,2,2,55,1,,,,,,,,,,,,,,,,,,,,,,,,,,,,
,,,,,WIN24_063,20,Male,2024-02-15_14h32.04.931,jersey_experiment_5,2023.2.2,Win32,84.74576271,,,,,,,,,,,,,,,,906.9618,908.7616,908.7616,911.4676,return,1.1397,,71.35416667,,,,,,FBP-PT-18.png,0.45,1.2,55,1,,,,,,,,,,,,,0,3,3,54,1,,,,,,,,,,,,,,,,,,,,,,,,,,,,
,,,,,WIN24_063,20,Male,2024-02-15_14h32.04.931,jersey_experiment_5,2023.2.2,Win32,84.74576271,,,,,,,,,,,,,,,,911.4679,912.7617,912.7617,915.5854,return,0.9834,,39.97395833,,,,,,FBP-RB-19.png,0.4,1.2,28,0.5,,,,,,,,,,,,,0,4,4,27,1,,,,,,,,,,,,,,,,,,,,,,,,,,,,
,,,,,WIN24_063,20,Male,2024-02-15_14h32.04.931,jersey_experiment_5,2023.2.2,Win32,84.74576271,,,,,,,,,,,,,,,,915.5856,917.3855,917.3855,920.115,return,1.0392,,24.609375,,,,,,FBP-PT-18.png,0.37,1.2,52,1,,,,,,,,,,,,,0,5,5,51,1,,,,,,,,,,,,,,,,,,,,,,,,,,,,
,,,,,WIN24_063,20,Male,2024-02-15_14h32.04.931,jersey_experiment_5,2023.2.2,Win32,84.74576271,,,,,,,,,,,,,,,,920.1153,921.4091,921.4091,924.0211,return,1.1557,,72.91666667,,,,,,FBP-RB-18.png,0.45,1.2,25,0.5,,,,,,,,,,,,,0,6,6,24,1,,,,,,,,,,,,,,,,,,,,,,,,,,,,
,,,,,WIN24_063,20,Male,2024-02-15_14h32.04.931,jersey_experiment_5,2023.2.2,Win32,84.74576271,,,,,,,,,,,,,,,,924.0213,925.3153,925.3153,927.9742,return,0.9431,,25.65104167,,,,,,FBP-RB-19.png,0.37,1.2,27,0.5,,,,,,,,,,,,,0,7,7,26,1,,,,,,,,,,,,,,,,,,,,,,,,,,,,
,,,,,WIN24_063,20,Male,2024-02-15_14h32.04.931,jersey_experiment_5,2023.2.2,Win32,84.74576271,,,,,,,,,,,,,,,,927.9744,929.7741,929.7741,932.5625,return,1.6423,,34.89583333,,,,,,FBP-PT-19.png,0.37,1.2,57,1,,,,,,,,,,,,,0,8,8,56,1,,,,,,,,,,,,,,,,,,,,,,,,,,,,
,,,,,WIN24_063,20,Male,2024-02-15_14h32.04.931,jersey_experiment_5,2023.2.2,Win32,84.74576271,,,,,,,,,,,,,,,,932.5628,933.8567,933.8567,937.1156,return,1.1388,,73.69791667,,,,,,FBP-RB-19.png,0.45,1.2,30,0.5,,,,,,,,,,,,,0,9,9,29,1,,,,,,,,,,,,,,,,,,,,,,,,,,,,
,,,,,WIN24_063,20,Male,2024-02-15_14h32.04.931,jersey_experiment_5,2023.2.2,Win32,84.74576271,,,,,,,,,,,,,,,,937.1158,938.9157,938.9158,944.0219,return,3.9218,,43.09895833,,,,,,FBP-PT-19.png,0.4,1.2,58,1,,,,,,,,,,,,,0,10,10,57,1,,,,,,,,,,,,,,,,,,,,,,,,,,,,
,,,,,WIN24_063,20,Male,2024-02-15_14h32.04.931,jersey_experiment_5,2023.2.2,Win32,84.74576271,,,,,,,,,,,,,,,,944.022,945.8218,945.8218,949.516,return,1.893,,8.072916667,,,,,,FBP-PT-17.png,0.35,1.2,46,1,,,,,,,,,,,,,0,11,11,45,1,,,,,,,,,,,,,,,,,,,,,,,,,,,,
,,,,,WIN24_063,20,Male,2024-02-15_14h32.04.931,jersey_experiment_5,2023.2.2,Win32,84.74576271,,,,,,,,,,,,,,,,949.5162,950.8101,950.8101,954.5163,return,1.2275,,43.09895833,,,,,,FBP-RB-17.png,0.4,1.2,18,0.5,,,,,,,,,,,,,0,12,12,17,1,,,,,,,,,,,,,,,,,,,,,,,,,,,,
,,,,,WIN24_063,20,Male,2024-02-15_14h32.04.931,jersey_experiment_5,2023.2.2,Win32,84.74576271,,,,,,,,,,,,,,,,954.5165,956.3163,956.3163,959.6106,return,1.0119,,44.79166667,,,,,,FBP-PT-17.png,0.4,1.2,48,1,,,,,,,,,,,,,0,13,13,47,1,,,,,,,,,,,,,,,,,,,,,,,,,,,,
,,,,,WIN24_063,20,Male,2024-02-15_14h32.04.931,jersey_experiment_5,2023.2.2,Win32,84.74576271,,,,,,,,,,,,,,,,959.6108,960.9047,960.9047,964.9873,return,2.0608,,63.54166667,,,,,,FBP-YG-81.png,0.45,1.2,40,0.5,,,,,,,,,,,,,0,14,14,39,1,,,,,,,,,,,,,,,,,,,,,,,,,,,,
,,,,,WIN24_063,20,Male,2024-02-15_14h32.04.931,jersey_experiment_5,2023.2.2,Win32,84.74576271,,,,,,,,,,,,,,,,964.9875,966.7872,966.7872,971.8934,return,3.1904,,26.5625,,,,,,FBP-OG-91.png,0.37,1.2,12,1,,,,,,,,,,,,,0,15,15,11,1,,,,,,,,,,,,,,,,,,,,,,,,,,,,
,,,,,WIN24_063,20,Male,2024-02-15_14h32.04.931,jersey_experiment_5,2023.2.2,Win32,84.74576271,,,,,,,,,,,,,,,,971.8937,973.1875,973.1875,975.9641,return,1.0455,,50.26041667,,,,,,FBP-YG-91.png,0.43,1.2,44,0.5,,,,,,,,,,,,,0,16,16,43,1,,,,,,,,,,,,,,,,,,,,,,,,,,,,
,,,,,WIN24_063,20,Male,2024-02-15_14h32.04.931,jersey_experiment_5,2023.2.2,Win32,84.74576271,,,,,,,,,,,,,,,,975.9644,977.7642,977.7642,979.9761,return,0.931,,56.38020833,,,,,,FBP-PT-19.png,0.43,1.2,59,1,,,,,,,,,,,,,0,17,17,58,1,,,,,,,,,,,,,,,,,,,,,,,,,,,,
,,,,,WIN24_063,20,Male,2024-02-15_14h32.04.931,jersey_experiment_5,2023.2.2,Win32,84.74576271,,,,,,,,,,,,,,,,979.9763,981.2702,981.2703,985.9058,return,2.7117,,38.02083333,,,,,,FBP-YG-71.png,0.4,1.2,33,0.5,,,,,,,,,,,,,0,18,18,32,1,,,,,,,,,,,,,,,,,,,,,,,,,,,,
,,,,,WIN24_063,20,Male,2024-02-15_14h32.04.931,jersey_experiment_5,2023.2.2,Win32,84.74576271,,,,,,,,,,,,,,,,985.91,987.7058,987.7058,990.3059,return,1.2197,,9.114583333,,,,,,FBP-OG-71.png,0.35,1.2,1,1,,,,,,,,,,,,,0,19,19,0,1,,,,,,,,,,,,,,,,,,,,,,,,,,,,
,,,,,WIN24_063,20,Male,2024-02-15_14h32.04.931,jersey_experiment_5,2023.2.2,Win32,84.74576271,,,,,,,,,,,,,,,,990.3061,991.6,991.6001,994.553,return,1.0124,,33.46354167,,,,,,FBP-YG-81.png,0.4,1.2,38,0.5,,,,,,,,,,,,,0,20,20,37,1,,,,,,,,,,,,,,,,,,,,,,,,,,,,
,,,,,WIN24_063,20,Male,2024-02-15_14h32.04.931,jersey_experiment_5,2023.2.2,Win32,84.74576271,,,,,,,,,,,,,,,,994.5532,995.8472,995.8472,998.1179,return,0.8246,,24.08854167,,,,,,FBP-RB-17.png,0.37,1.2,17,0.5,,,,,,,,,,,,,0,21,21,16,1,,,,,,,,,,,,,,,,,,,,,,,,,,,,
,,,,,WIN24_063,20,Male,2024-02-15_14h32.04.931,jersey_experiment_5,2023.2.2,Win32,84.74576271,,,,,,,,,,,,,,,,998.1182,999.9179,999.9179,1003.5063,return,2.1602,,20.3125,,,,,,FBP-PT-17.png,0.37,1.2,47,1,,,,,,,,,,,,,0,22,22,46,1,,,,,,,,,,,,,,,,,,,,,,,,,,,,
,,,,,WIN24_063,20,Male,2024-02-15_14h32.04.931,jersey_experiment_5,2023.2.2,Win32,84.74576271,,,,,,,,,,,,,,,,1003.5067,1004.8004,1004.8004,1007.4476,return,1.0376,,51.30208333,,,,,,FBP-RB-19.png,0.43,1.2,29,0.5,,,,,,,,,,,,,0,23,23,28,1,,,,,,,,,,,,,,,,,,,,,,,,,,,,
,,,,,WIN24_063,20,Male,2024-02-15_14h32.04.931,jersey_experiment_5,2023.2.2,Win32,84.74576271,,,,,,,,,,,,,,,,1007.4478,1009.2478,1009.2478,1012.4007,return,1.3149,,25.65104167,,,,,,FBP-OG-81.png,0.35,1.2,6,1,,,,,,,,,,,,,0,24,24,5,1,,,,,,,,,,,,,,,,,,,,,,,,,,,,
,,,,,WIN24_063,20,Male,2024-02-15_14h32.04.931,jersey_experiment_5,2023.2.2,Win32,84.74576271,,,,,,,,,,,,,,,,1012.4009,1013.695,1013.695,1017.8834,return,1.2943,,14.32291667,,,,,,FBP-YG-81.png,0.35,1.2,36,0.5,,,,,,,,,,,,,0,25,25,35,1,,,,,,,,,,,,,,,,,,,,,,,,,,,,
,,,,,WIN24_063,20,Male,2024-02-15_14h32.04.931,jersey_experiment_5,2023.2.2,Win32,84.74576271,,,,,,,,,,,,,,,,1017.8837,1019.6833,1019.6833,1023.1307,return,1.5207,,50.65104167,,,,,,FBP-OG-91.png,0.43,1.2,14,1,,,,,,,,,,,,,0,26,26,13,1,,,,,,,,,,,,,,,,,,,,,,,,,,,,
,,,,,WIN24_063,20,Male,2024-02-15_14h32.04.931,jersey_experiment_5,2023.2.2,Win32,84.74576271,,,,,,,,,,,,,,,,1023.1309,1024.9307,1024.9307,1027.0602,return,1.0386,,59.375,,,,,,FBP-OG-81.png,0.43,1.2,9,1,,,,,,,,,,,,,0,27,27,8,1,,,,,,,,,,,,,,,,,,,,,,,,,,,,
,,,,,WIN24_063,20,Male,2024-02-15_14h32.04.931,jersey_experiment_5,2023.2.2,Win32,84.74576271,,,,,,,,,,,,,,,,1027.0605,1028.8601,1028.8602,1031.6721,return,1.4593,,49.34895833,,,,,,FBP-PT-17.png,0.43,1.2,49,1,,,,,,,,,,,,,0,28,28,48,1,,,,,,,,,,,,,,,,,,,,,,,,,,,,
,,,,,WIN24_063,20,Male,2024-02-15_14h32.04.931,jersey_experiment_5,2023.2.2,Win32,84.74576271,,,,,,,,,,,,,,,,1031.6723,1033.472,1033.4721,1036.5781,return,1.7356,,15.88541667,,,,,,FBP-OG-91.png,0.35,1.2,11,1,,,,,,,,,,,,,0,29,29,10,1,,,,,,,,,,,,,,,,,,,,,,,,,,,,
,,,,,WIN24_063,20,Male,2024-02-15_14h32.04.931,jersey_experiment_5,2023.2.2,Win32,84.74576271,,,,,,,,,,,,,,,,1036.5783,1037.8723,1037.8723,1042.0843,return,2.7821,,20.44270833,,,,,,FBP-RB-18.png,0.35,1.2,21,0.5,,,,,,,,,,,,,0,30,30,20,1,,,,,,,,,,,,,,,,,,,,,,,,,,,,
,,,,,WIN24_063,20,Male,2024-02-15_14h32.04.931,jersey_experiment_5,2023.2.2,Win32,84.74576271,,,,,,,,,,,,,,,,1042.0845,1043.8843,1043.8843,1047.4257,return,1.1935,,57.421875,,,,,,FBP-OG-81.png,0.45,1.2,10,1,,,,,,,,,,,,,0,31,31,9,1,,,,,,,,,,,,,,,,,,,,,,,,,,,,
,,,,,WIN24_063,20,Male,2024-02-15_14h32.04.931,jersey_experiment_5,2023.2.2,Win32,84.74576271,,,,,,,,,,,,,,,,1047.4258,1049.2257,1049.2257,1051.9317,return,1.3179,,64.32291667,,,,,,FBP-OG-91.png,0.45,1.2,15,1,,,,,,,,,,,,,0,32,32,14,1,,,,,,,,,,,,,,,,,,,,,,,,,,,,
,,,,,WIN24_063,20,Male,2024-02-15_14h32.04.931,jersey_experiment_5,2023.2.2,Win32,84.74576271,,,,,,,,,,,,,,,,1051.9319,1053.2258,1053.2259,1056.2495,return,1.1637,,63.671875,,,,,,FBP-RB-18.png,0.43,1.2,24,0.5,,,,,,,,,,,,,0,33,33,23,1,,,,,,,,,,,,,,,,,,,,,,,,,,,,
,,,,,WIN24_063,20,Male,2024-02-15_14h32.04.931,jersey_experiment_5,2023.2.2,Win32,84.74576271,,,,,,,,,,,,,,,,1056.2498,1057.5437,1057.5437,1060.7556,return,1.077,,58.46354167,,,,,,FBP-RB-18.png,0.4,1.2,23,0.5,,,,,,,,,,,,,0,34,34,22,1,,,,,,,,,,,,,,,,,,,,,,,,,,,,
,,,,,WIN24_063,20,Male,2024-02-15_14h32.04.931,jersey_experiment_5,2023.2.2,Win32,84.74576271,,,,,,,,,,,,,,,,1060.7558,1062.5556,1062.5556,1067.2735,return,1.4127,,57.55208333,,,,,,FBP-OG-71.png,0.43,1.2,4,1,,,,,,,,,,,,,0,35,35,3,1,,,,,,,,,,,,,,,,,,,,,,,,,,,,
,,,,,WIN24_063,20,Male,2024-02-15_14h32.04.931,jersey_experiment_5,2023.2.2,Win32,84.74576271,,,,,,,,,,,,,,,,1067.2737,1068.5677,1068.5677,1071.5912,return,1.179,,25.26041667,,,,,,FBP-YG-81.png,0.37,1.2,37,0.5,,,,,,,,,,,,,0,36,36,36,1,,,,,,,,,,,,,,,,,,,,,,,,,,,,
,,,,,WIN24_063,20,Male,2024-02-15_14h32.04.931,jersey_experiment_5,2023.2.2,Win32,84.74576271,,,,,,,,,,,,,,,,1071.5914,1073.3913,1073.3913,1075.5443,return,0.8349,,23.046875,,,,,,FBP-OG-71.png,0.37,1.2,2,1,,,,,,,,,,,,,0,37,37,1,1,,,,,,,,,,,,,,,,,,,,,,,,,,,,
,,,,,WIN24_063,20,Male,2024-02-15_14h32.04.931,jersey_experiment_5,2023.2.2,Win32,84.74576271,,,,,,,,,,,,,,,,1075.5445,1077.3444,1077.3444,1081.0269,return,0.9008,,56.77083333,,,,,,FBP-PT-17.png,0.45,1.2,50,1,,,,,,,,,,,,,0,38,38,49,1,,,,,,,,,,,,,,,,,,,,,,,,,,,,
,,,,,WIN24_063,20,Male,2024-02-15_14h32.04.931,jersey_experiment_5,2023.2.2,Win32,84.74576271,,,,,,,,,,,,,,,,1081.0271,1082.3211,1082.3211,1086.6154,return,1.2849,,63.02083333,,,,,,FBP-RB-17.png,0.45,1.2,20,0.5,,,,,,,,,,,,,0,39,39,19,1,,,,,,,,,,,,,,,,,,,,,,,,,,,,
,,,,,WIN24_063,20,Male,2024-02-15_14h32.04.931,jersey_experiment_5,2023.2.2,Win32,84.74576271,,,,,,,,,,,,,,,,1086.6156,1087.9095,1087.9095,1091.2979,return,1.7372,,64.32291667,,,,,,FBP-YG-71.png,0.45,1.2,35,0.5,,,,,,,,,,,,,0,40,40,34,1,,,,,,,,,,,,,,,,,,,,,,,,,,,,
,,,,,WIN24_063,20,Male,2024-02-15_14h32.04.931,jersey_experiment_5,2023.2.2,Win32,84.74576271,,,,,,,,,,,,,,,,1091.2982,1093.0979,1093.0979,1095.4628,return,1.1547,,41.27604167,,,,,,FBP-PT-18.png,0.4,1.2,53,1,,,,,,,,,,,,,0,41,41,52,1,,,,,,,,,,,,,,,,,,,,,,,,,,,,
,,,,,WIN24_063,20,Male,2024-02-15_14h32.04.931,jersey_experiment_5,2023.2.2,Win32,84.74576271,,,,,,,,,,,,,,,,1095.463,1096.7569,1096.7569,1099.5098,return,1.2259,,6.510416667,,,,,,FBP-RB-19.png,0.35,1.2,26,0.5,,,,,,,,,,,,,0,42,42,25,1,,,,,,,,,,,,,,,,,,,,,,,,,,,,
,,,,,WIN24_063,20,Male,2024-02-15_14h32.04.931,jersey_experiment_5,2023.2.2,Win32,84.74576271,,,,,,,,,,,,,,,,1099.51,1101.31,1101.31,1104.0748,return,1.3898,,27.60416667,,,,,,FBP-OG-81.png,0.4,1.2,8,1,,,,,,,,,,,,,0,43,43,7,1,,,,,,,,,,,,,,,,,,,,,,,,,,,,
,,,,,WIN24_063,20,Male,2024-02-15_14h32.04.931,jersey_experiment_5,2023.2.2,Win32,84.74576271,,,,,,,,,,,,,,,,1104.075,1105.369,1105.3691,1108.722,return,1.4898,,12.890625,,,,,,FBP-YG-71.png,0.35,1.2,31,0.5,,,,,,,,,,,,,0,44,44,30,1,,,,,,,,,,,,,,,,,,,,,,,,,,,,
,,,,,WIN24_063,20,Male,2024-02-15_14h32.04.931,jersey_experiment_5,2023.2.2,Win32,84.74576271,,,,,,,,,,,,,,,,1108.7223,1110.5221,1110.5221,1113.9457,return,1.1159,,71.35416667,,,,,,FBP-PT-19.png,0.45,1.2,60,1,,,,,,,,,,,,,0,45,45,59,1,,,,,,,,,,,,,,,,,,,,,,,,,,,,
,,,,,WIN24_063,20,Male,2024-02-15_14h32.04.931,jersey_experiment_5,2023.2.2,Win32,84.74576271,,,,,,,,,,,,,,,,1113.946,1115.2399,1115.24,1119.7225,return,1.905,,26.30208333,,,,,,FBP-YG-71.png,0.37,1.2,32,0.5,,,,,,,,,,,,,0,46,46,31,1,,,,,,,,,,,,,,,,,,,,,,,,,,,,
,,,,,WIN24_063,20,Male,2024-02-15_14h32.04.931,jersey_experiment_5,2023.2.2,Win32,84.74576271,,,,,,,,,,,,,,,,1119.7228,1121.0167,1121.0167,1124.1462,return,0.9373,,19.79166667,,,,,,FBP-YG-91.png,0.37,1.2,42,0.5,,,,,,,,,,,,,0,47,47,41,1,,,,,,,,,,,,,,,,,,,,,,,,,,,,
,,,,,WIN24_063,20,Male,2024-02-15_14h32.04.931,jersey_experiment_5,2023.2.2,Win32,84.74576271,,,,,,,,,,,,,,,,1124.1464,1125.4403,1125.4403,1127.9932,return,1.2712,,19.53125,,,,,,FBP-RB-18.png,0.37,1.2,22,0.5,,,,,,,,,,,,,0,48,48,21,1,,,,,,,,,,,,,,,,,,,,,,,,,,,,
,,,,,WIN24_063,20,Male,2024-02-15_14h32.04.931,jersey_experiment_5,2023.2.2,Win32,84.74576271,,,,,,,,,,,,,,,,1127.9935,1129.2874,1129.2875,1131.9111,return,1.0263,,18.75,,,,,,FBP-RB-17.png,0.35,1.2,16,0.5,,,,,,,,,,,,,0,49,49,15,1,,,,,,,,,,,,,,,,,,,,,,,,,,,,
,,,,,WIN24_063,20,Male,2024-02-15_14h32.04.931,jersey_experiment_5,2023.2.2,Win32,84.74576271,,,,,,,,,,,,,,,,1131.9114,1133.7111,1133.7111,1136.0877,return,1.0606,,36.84895833,,,,,,FBP-OG-91.png,0.4,1.2,13,1,,,,,,,,,,,,,0,50,50,12,1,,,,,,,,,,,,,,,,,,,,,,,,,,,,
,,,,,WIN24_063,20,Male,2024-02-15_14h32.04.931,jersey_experiment_5,2023.2.2,Win32,84.74576271,,,,,,,,,,,,,,,,1136.088,1137.3819,1137.3819,1140.6408,return,1.0889,,69.27083333,,,,,,FBP-RB-17.png,0.43,1.2,19,0.5,,,,,,,,,,,,,0,51,51,18,1,,,,,,,,,,,,,,,,,,,,,,,,,,,,
,,,,,WIN24_063,20,Male,2024-02-15_14h32.04.931,jersey_experiment_5,2023.2.2,Win32,84.74576271,,,,,,,,,,,,,,,,1140.6411,1142.4409,1142.4409,1146.1941,return,2.4198,,37.5,,,,,,FBP-OG-81.png,0.37,1.2,7,1,,,,,,,,,,,,,0,52,52,6,1,,,,,,,,,,,,,,,,,,,,,,,,,,,,
,,,,,WIN24_063,20,Male,2024-02-15_14h32.04.931,jersey_experiment_5,2023.2.2,Win32,84.74576271,,,,,,,,,,,,,,,,1146.1983,1147.994,1147.994,1149.9589,return,0.8616,,39.97395833,,,,,,FBP-OG-71.png,0.4,1.2,3,1,,,,,,,,,,,,,0,53,53,2,1,,,,,,,,,,,,,,,,,,,,,,,,,,,,
,,,,,WIN24_063,20,Male,2024-02-15_14h32.04.931,jersey_experiment_5,2023.2.2,Win32,84.74576271,,,,,,,,,,,,,,,,1149.959,1151.253,1151.253,1154.3943,return,1.2578,,24.47916667,,,,,,FBP-YG-91.png,0.35,1.2,41,0.5,,,,,,,,,,,,,0,54,54,40,1,,,,,,,,,,,,,,,,,,,,,,,,,,,,
,,,,,WIN24_063,20,Male,2024-02-15_14h32.04.931,jersey_experiment_5,2023.2.2,Win32,84.74576271,,,,,,,,,,,,,,,,1154.3946,1155.6884,1155.6884,1159.7239,return,1.7086,,67.1875,,,,,,FBP-YG-91.png,0.45,1.2,45,0.5,,,,,,,,,,,,,0,55,55,44,1,,,,,,,,,,,,,,,,,,,,,,,,,,,,
,,,,,WIN24_063,20,Male,2024-02-15_14h32.04.931,jersey_experiment_5,2023.2.2,Win32,84.74576271,,,,,,,,,,,,,,,,1159.7241,1161.0182,1161.0182,1165.4889,return,1.4324,,41.53645833,,,,,,FBP-YG-91.png,0.4,1.2,43,0.5,,,,,,,,,,,,,0,56,56,42,1,,,,,,,,,,,,,,,,,,,,,,,,,,,,
,,,,,WIN24_063,20,Male,2024-02-15_14h32.04.931,jersey_experiment_5,2023.2.2,Win32,84.74576271,,,,,,,,,,,,,,,,1165.4891,1167.2889,1167.2889,1170.642,return,1.5255,,23.56770833,,,,,,FBP-PT-18.png,0.35,1.2,51,1,,,,,,,,,,,,,0,57,57,50,1,,,,,,,,,,,,,,,,,,,,,,,,,,,,
,,,,,WIN24_063,20,Male,2024-02-15_14h32.04.931,jersey_experiment_5,2023.2.2,Win32,84.74576271,,,,,,,,,,,,,,,,1170.6422,1172.442,1172.442,1176.1834,return,1.1788,,59.375,,,,,,FBP-OG-71.png,0.45,1.2,5,1,,,,,,,,,,,,,0,58,58,4,1,,,,,,,,,,,,,,,,,,,,,,,,,,,,
,,,,,WIN24_063,20,Male,2024-02-15_14h32.04.931,jersey_experiment_5,2023.2.2,Win32,84.74576271,,,,,,,,,,,,,,,,1176.1836,1177.4775,1177.4776,1183.6895,return,4.2697,,66.27604167,,,,,,FBP-YG-81.png,0.43,1.2,39,0.5,,,,,,,,,,,,,0,59,59,38,1,,,,,,,,,,,,,,,,,,,,,,,,,,,,
,,,,,WIN24_063,20,Male,2024-02-15_14h32.04.931,jersey_experiment_5,2023.2.2,Win32,84.74576271,,,,,,,,,,,,,,,,1183.6955,1184.9955,1184.9955,1187.4426,return,0.8895,,49.47916667,,,,,,FBP-RB-91.png,0.43,1.2,29,0.5,,,,,,,,,,,,,,,,,,0,0,0,28,1,,,,,,,,,,,,,,,,,,,,,,,
,,,,,WIN24_063,20,Male,2024-02-15_14h32.04.931,jersey_experiment_5,2023.2.2,Win32,84.74576271,,,,,,,,,,,,,,,,1187.4429,1188.7368,1188.7368,1191.4427,return,1.1011,,40.234375,,,,,,FBP-RB-81.png,0.4,1.2,23,0.5,,,,,,,,,,,,,,,,,,0,1,1,22,1,,,,,,,,,,,,,,,,,,,,,,,
,,,,,WIN24_063,20,Male,2024-02-15_14h32.04.931,jersey_experiment_5,2023.2.2,Win32,84.74576271,,,,,,,,,,,,,,,,1191.443,1192.7369,1192.7369,1195.4194,return,1.012,,50,,,,,,FBP-RB-81.png,0.43,1.2,24,0.5,,,,,,,,,,,,,,,,,,0,2,2,23,1,,,,,,,,,,,,,,,,,,,,,,,
,,,,,WIN24_063,20,Male,2024-02-15_14h32.04.931,jersey_experiment_5,2023.2.2,Win32,84.74576271,,,,,,,,,,,,,,,,1195.4197,1197.2195,1197.2195,1200.6313,return,1.6966,,44.140625,,,,,,FBP-OG-19.png,0.4,1.2,13,1,,,,,,,,,,,,,,,,,,0,3,3,12,1,,,,,,,,,,,,,,,,,,,,,,,
,,,,,WIN24_063,20,Male,2024-02-15_14h32.04.931,jersey_experiment_5,2023.2.2,Win32,84.74576271,,,,,,,,,,,,,,,,1200.6315,1201.9254,1201.9254,1205.1727,return,1.4167,,63.02083333,,,,,,FBP-YG-18.png,0.45,1.2,40,0.5,,,,,,,,,,,,,,,,,,0,4,4,39,1,,,,,,,,,,,,,,,,,,,,,,,
,,,,,WIN24_063,20,Male,2024-02-15_14h32.04.931,jersey_experiment_5,2023.2.2,Win32,84.74576271,,,,,,,,,,,,,,,,1205.1729,1206.9728,1206.9728,1210.42,return,0.9467,,54.81770833,,,,,,FBP-PT-81.png,0.43,1.2,54,1,,,,,,,,,,,,,,,,,,0,5,5,53,1,,,,,,,,,,,,,,,,,,,,,,,
,,,,,WIN24_063,20,Male,2024-02-15_14h32.04.931,jersey_experiment_5,2023.2.2,Win32,84.74576271,,,,,,,,,,,,,,,,1210.4203,1211.7141,1211.7141,1215.3495,return,1.9926,,61.84895833,,,,,,FBP-RB-71.png,0.43,1.2,19,0.5,,,,,,,,,,,,,,,,,,0,6,6,18,1,,,,,,,,,,,,,,,,,,,,,,,
,,,,,WIN24_063,20,Male,2024-02-15_14h32.04.931,jersey_experiment_5,2023.2.2,Win32,84.74576271,,,,,,,,,,,,,,,,1215.3498,1216.6438,1216.6438,1222.2675,return,1.2141,,43.88020833,,,,,,FBP-YG-18.png,0.4,1.2,38,0.5,,,,,,,,,,,,,,,,,,0,7,7,37,1,,,,,,,,,,,,,,,,,,,,,,,
,,,,,WIN24_063,20,Male,2024-02-15_14h32.04.931,jersey_experiment_5,2023.2.2,Win32,84.74576271,,,,,,,,,,,,,,,,1222.2677,1223.5616,1223.5616,1226.4559,return,1.1912,,33.984375,,,,,,FBP-YG-17.png,0.4,1.2,33,0.5,,,,,,,,,,,,,,,,,,0,8,8,32,1,,,,,,,,,,,,,,,,,,,,,,,
,,,,,WIN24_063,20,Male,2024-02-15_14h32.04.931,jersey_experiment_5,2023.2.2,Win32,84.74576271,,,,,,,,,,,,,,,,1226.4561,1227.75,1227.7501,1230.5854,return,1.0117,,25.65104167,,,,,,FBP-YG-18.png,0.35,1.2,36,0.5,,,,,,,,,,,,,,,,,,0,9,9,35,1,,,,,,,,,,,,,,,,,,,,,,,
,,,,,WIN24_063,20,Male,2024-02-15_14h32.04.931,jersey_experiment_5,2023.2.2,Win32,84.74576271,,,,,,,,,,,,,,,,1230.5856,1231.8795,1231.8795,1234.9149,return,1.0523,,50,,,,,,FBP-RB-71.png,0.4,1.2,18,0.5,,,,,,,,,,,,,,,,,,0,10,10,17,1,,,,,,,,,,,,,,,,,,,,,,,
,,,,,WIN24_063,20,Male,2024-02-15_14h32.04.931,jersey_experiment_5,2023.2.2,Win32,84.74576271,,,,,,,,,,,,,,,,1234.9151,1236.2091,1236.2091,1239.4681,return,1.4257,,25.78125,,,,,,FBP-RB-81.png,0.35,1.2,21,0.5,,,,,,,,,,,,,,,,,,0,11,11,20,1,,,,,,,,,,,,,,,,,,,,,,,
,,,,,WIN24_063,20,Male,2024-02-15_14h32.04.931,jersey_experiment_5,2023.2.2,Win32,84.74576271,,,,,,,,,,,,,,,,1239.4683,1241.2681,1241.2682,1246.5624,return,1.2173,,59.24479167,,,,,,FBP-PT-71.png,0.43,1.2,49,1,,,,,,,,,,,,,,,,,,0,12,12,48,1,,,,,,,,,,,,,,,,,,,,,,,
,,,,,WIN24_063,20,Male,2024-02-15_14h32.04.931,jersey_experiment_5,2023.2.2,Win32,84.74576271,,,,,,,,,,,,,,,,1246.5626,1247.8566,1247.8566,1251.1273,return,1.3909,,26.953125,,,,,,FBP-YG-19.png,0.35,1.2,41,0.5,,,,,,,,,,,,,,,,,,0,13,13,40,1,,,,,,,,,,,,,,,,,,,,,,,
,,,,,WIN24_063,20,Male,2024-02-15_14h32.04.931,jersey_experiment_5,2023.2.2,Win32,84.74576271,,,,,,,,,,,,,,,,1251.1275,1252.9274,1252.9274,1255.351,return,1.2849,,26.5625,,,,,,FBP-OG-17.png,0.35,1.2,1,1,,,,,,,,,,,,,,,,,,0,14,14,0,1,,,,,,,,,,,,,,,,,,,,,,,
,,,,,WIN24_063,20,Male,2024-02-15_14h32.04.931,jersey_experiment_5,2023.2.2,Win32,84.74576271,,,,,,,,,,,,,,,,1255.3514,1257.1511,1257.1511,1260.6925,return,1.6739,,79.296875,,,,,,FBP-PT-81.png,0.45,1.2,55,1,,,,,,,,,,,,,,,,,,0,15,15,54,1,,,,,,,,,,,,,,,,,,,,,,,
,,,,,WIN24_063,20,Male,2024-02-15_14h32.04.931,jersey_experiment_5,2023.2.2,Win32,84.74576271,,,,,,,,,,,,,,,,1260.6927,1261.9866,1261.9866,1266.5986,return,2.5425,,27.34375,,,,,,FBP-RB-71.png,0.35,1.2,16,0.5,,,,,,,,,,,,,,,,,,0,16,16,15,1,,,,,,,,,,,,,,,,,,,,,,,
,,,,,WIN24_063,20,Male,2024-02-15_14h32.04.931,jersey_experiment_5,2023.2.2,Win32,84.74576271,,,,,,,,,,,,,,,,1266.5988,1267.8927,1267.8927,1270.634,return,1.0121,,27.99479167,,,,,,FBP-RB-91.png,0.37,1.2,27,0.5,,,,,,,,,,,,,,,,,,0,17,17,26,1,,,,,,,,,,,,,,,,,,,,,,,
,,,,,WIN24_063,20,Male,2024-02-15_14h32.04.931,jersey_experiment_5,2023.2.2,Win32,84.74576271,,,,,,,,,,,,,,,,1270.6342,1272.434,1272.4341,1275.1871,return,1.454,,50.26041667,,,,,,FBP-PT-91.png,0.4,1.2,58,1,,,,,,,,,,,,,,,,,,0,18,18,57,1,,,,,,,,,,,,,,,,,,,,,,,
,,,,,WIN24_063,20,Male,2024-02-15_14h32.04.931,jersey_experiment_5,2023.2.2,Win32,84.74576271,,,,,,,,,,,,,,,,1275.1873,1276.4812,1276.4813,1279.5283,return,1.2115,,73.17708333,,,,,,FBP-YG-18.png,0.43,1.2,39,0.5,,,,,,,,,,,,,,,,,,0,19,19,38,1,,,,,,,,,,,,,,,,,,,,,,,
,,,,,WIN24_063,20,Male,2024-02-15_14h32.04.931,jersey_experiment_5,2023.2.2,Win32,84.74576271,,,,,,,,,,,,,,,,1279.5286,1280.8225,1280.8225,1283.9403,return,1.194,,88.54166667,,,,,,FBP-YG-19.png,0.45,1.2,45,0.5,,,,,,,,,,,,,,,,,,0,20,20,44,1,,,,,,,,,,,,,,,,,,,,,,,
,,,,,WIN24_063,20,Male,2024-02-15_14h32.04.931,jersey_experiment_5,2023.2.2,Win32,84.74576271,,,,,,,,,,,,,,,,1283.9406,1285.7404,1285.7404,1288.6582,return,1.3019,,37.76041667,,,,,,FBP-OG-17.png,0.37,1.2,2,1,,,,,,,,,,,,,,,,,,0,21,21,1,1,,,,,,,,,,,,,,,,,,,,,,,
,,,,,WIN24_063,20,Male,2024-02-15_14h32.04.931,jersey_experiment_5,2023.2.2,Win32,84.74576271,,,,,,,,,,,,,,,,1288.6583,1290.4582,1290.4582,1293.6112,return,1.2369,,63.54166667,,,,,,FBP-OG-18.png,0.45,1.2,10,1,,,,,,,,,,,,,,,,,,0,22,22,9,1,,,,,,,,,,,,,,,,,,,,,,,
,,,,,WIN24_063,20,Male,2024-02-15_14h32.04.931,jersey_experiment_5,2023.2.2,Win32,84.74576271,,,,,,,,,,,,,,,,1293.6114,1295.4113,1295.4113,1298.682,return,1.6942,,42.44791667,,,,,,FBP-PT-81.png,0.37,1.2,52,1,,,,,,,,,,,,,,,,,,0,23,23,51,1,,,,,,,,,,,,,,,,,,,,,,,
,,,,,WIN24_063,20,Male,2024-02-15_14h32.04.931,jersey_experiment_5,2023.2.2,Win32,84.74576271,,,,,,,,,,,,,,,,1298.6823,1300.4821,1300.4822,1303.4351,return,1.436,,59.11458333,,,,,,FBP-OG-17.png,0.43,1.2,4,1,,,,,,,,,,,,,,,,,,0,24,24,3,1,,,,,,,,,,,,,,,,,,,,,,,
,,,,,WIN24_063,20,Male,2024-02-15_14h32.04.931,jersey_experiment_5,2023.2.2,Win32,84.74576271,,,,,,,,,,,,,,,,1303.4354,1305.2354,1305.2354,1308.5883,return,1.3989,,26.04166667,,,,,,FBP-OG-18.png,0.35,1.2,6,1,,,,,,,,,,,,,,,,,,0,25,25,5,1,,,,,,,,,,,,,,,,,,,,,,,
,,,,,WIN24_063,20,Male,2024-02-15_14h32.04.931,jersey_experiment_5,2023.2.2,Win32,84.74576271,,,,,,,,,,,,,,,,1308.5886,1310.3883,1310.3883,1313.6355,return,1.4298,,73.046875,,,,,,FBP-OG-19.png,0.43,1.2,14,1,,,,,,,,,,,,,,,,,,0,26,26,13,1,,,,,,,,,,,,,,,,,,,,,,,
,,,,,WIN24_063,20,Male,2024-02-15_14h32.04.931,jersey_experiment_5,2023.2.2,Win32,84.74576271,,,,,,,,,,,,,,,,1313.6358,1315.4356,1315.4356,1317.7298,return,1.0892,,49.609375,,,,,,FBP-OG-17.png,0.4,1.2,3,1,,,,,,,,,,,,,,,,,,0,27,27,2,1,,,,,,,,,,,,,,,,,,,,,,,
,,,,,WIN24_063,20,Male,2024-02-15_14h32.04.931,jersey_experiment_5,2023.2.2,Win32,84.74576271,,,,,,,,,,,,,,,,1317.73,1319.5298,1319.5298,1321.9535,return,1.0436,,74.47916667,,,,,,FBP-PT-91.png,0.45,1.2,60,1,,,,,,,,,,,,,,,,,,0,28,28,59,1,,,,,,,,,,,,,,,,,,,,,,,
,,,,,WIN24_063,20,Male,2024-02-15_14h32.04.931,jersey_experiment_5,2023.2.2,Win32,84.74576271,,,,,,,,,,,,,,,,1321.9537,1323.2477,1323.2477,1326.3535,return,1.8668,,74.47916667,,,,,,FBP-RB-71.png,0.45,1.2,20,0.5,,,,,,,,,,,,,,,,,,0,29,29,19,1,,,,,,,,,,,,,,,,,,,,,,,
,,,,,WIN24_063,20,Male,2024-02-15_14h32.04.931,jersey_experiment_5,2023.2.2,Win32,84.74576271,,,,,,,,,,,,,,,,1326.3538,1327.6478,1327.6478,1330.9186,return,1.6741,,80.859375,,,,,,FBP-YG-17.png,0.45,1.2,35,0.5,,,,,,,,,,,,,,,,,,0,30,30,34,1,,,,,,,,,,,,,,,,,,,,,,,
,,,,,WIN24_063,20,Male,2024-02-15_14h32.04.931,jersey_experiment_5,2023.2.2,Win32,84.74576271,,,,,,,,,,,,,,,,1330.9188,1332.7187,1332.7187,1335.3539,return,1.2372,,80.72916667,,,,,,FBP-PT-71.png,0.45,1.2,50,1,,,,,,,,,,,,,,,,,,0,31,31,49,1,,,,,,,,,,,,,,,,,,,,,,,
,,,,,WIN24_063,20,Male,2024-02-15_14h32.04.931,jersey_experiment_5,2023.2.2,Win32,84.74576271,,,,,,,,,,,,,,,,1335.3541,1337.1541,1337.1541,1340.3542,return,1.1607,,50.13020833,,,,,,FBP-OG-18.png,0.4,1.2,8,1,,,,,,,,,,,,,,,,,,0,32,32,7,1,,,,,,,,,,,,,,,,,,,,,,,
,,,,,WIN24_063,20,Male,2024-02-15_14h32.04.931,jersey_experiment_5,2023.2.2,Win32,84.74576271,,,,,,,,,,,,,,,,1340.3543,1341.6483,1341.6483,1344.8837,return,1.1236,,26.69270833,,,,,,FBP-YG-18.png,0.37,1.2,37,0.5,,,,,,,,,,,,,,,,,,0,33,33,36,1,,,,,,,,,,,,,,,,,,,,,,,
,,,,,WIN24_063,20,Male,2024-02-15_14h32.04.931,jersey_experiment_5,2023.2.2,Win32,84.74576271,,,,,,,,,,,,,,,,1344.8839,1346.178,1346.178,1349.1075,return,1.3097,,26.82291667,,,,,,FBP-YG-19.png,0.37,1.2,42,0.5,,,,,,,,,,,,,,,,,,0,34,34,41,1,,,,,,,,,,,,,,,,,,,,,,,
,,,,,WIN24_063,20,Male,2024-02-15_14h32.04.931,jersey_experiment_5,2023.2.2,Win32,84.74576271,,,,,,,,,,,,,,,,1349.1077,1350.4016,1350.4016,1353.7194,return,1.3433,,70.44270833,,,,,,FBP-RB-91.png,0.45,1.2,30,0.5,,,,,,,,,,,,,,,,,,0,35,35,29,1,,,,,,,,,,,,,,,,,,,,,,,
,,,,,WIN24_063,20,Male,2024-02-15_14h32.04.931,jersey_experiment_5,2023.2.2,Win32,84.74576271,,,,,,,,,,,,,,,,1353.7197,1355.5195,1355.5195,1358.5079,return,1.2149,,19.66145833,,,,,,FBP-OG-19.png,0.35,1.2,11,1,,,,,,,,,,,,,,,,,,0,36,36,10,1,,,,,,,,,,,,,,,,,,,,,,,
,,,,,WIN24_063,20,Male,2024-02-15_14h32.04.931,jersey_experiment_5,2023.2.2,Win32,84.74576271,,,,,,,,,,,,,,,,1358.5081,1360.3078,1360.3078,1363.4491,return,1.2479,,61.58854167,,,,,,FBP-OG-19.png,0.45,1.2,15,1,,,,,,,,,,,,,,,,,,0,37,37,14,1,,,,,,,,,,,,,,,,,,,,,,,
,,,,,WIN24_063,20,Male,2024-02-15_14h32.04.931,jersey_experiment_5,2023.2.2,Win32,84.74576271,,,,,,,,,,,,,,,,1363.4494,1364.7433,1364.7434,1367.4964,return,1.378,,50.390625,,,,,,FBP-YG-19.png,0.43,1.2,44,0.5,,,,,,,,,,,,,,,,,,0,38,38,43,1,,,,,,,,,,,,,,,,,,,,,,,
,,,,,WIN24_063,20,Male,2024-02-15_14h32.04.931,jersey_experiment_5,2023.2.2,Win32,84.74576271,,,,,,,,,,,,,,,,1367.4967,1369.2965,1369.2965,1372.0024,return,1.1227,,37.76041667,,,,,,FBP-PT-91.png,0.37,1.2,57,1,,,,,,,,,,,,,,,,,,0,39,39,56,1,,,,,,,,,,,,,,,,,,,,,,,
,,,,,WIN24_063,20,Male,2024-02-15_14h32.04.931,jersey_experiment_5,2023.2.2,Win32,84.74576271,,,,,,,,,,,,,,,,1372.0027,1373.8025,1373.8025,1376.5202,return,0.9279,,37.76041667,,,,,,FBP-OG-18.png,0.37,1.2,7,1,,,,,,,,,,,,,,,,,,0,40,40,6,1,,,,,,,,,,,,,,,,,,,,,,,
,,,,,WIN24_063,20,Male,2024-02-15_14h32.04.931,jersey_experiment_5,2023.2.2,Win32,84.74576271,,,,,,,,,,,,,,,,1376.5205,1378.3203,1378.3204,1380.6968,return,1.3074,,50,,,,,,FBP-PT-81.png,0.4,1.2,53,1,,,,,,,,,,,,,,,,,,0,41,41,52,1,,,,,,,,,,,,,,,,,,,,,,,
,,,,,WIN24_063,20,Male,2024-02-15_14h32.04.931,jersey_experiment_5,2023.2.2,Win32,84.74576271,,,,,,,,,,,,,,,,1380.697,1382.4969,1382.497,1385.6501,return,1.1945,,36.84895833,,,,,,FBP-PT-71.png,0.37,1.2,47,1,,,,,,,,,,,,,,,,,,0,42,42,46,1,,,,,,,,,,,,,,,,,,,,,,,
,,,,,WIN24_063,20,Male,2024-02-15_14h32.04.931,jersey_experiment_5,2023.2.2,Win32,84.74576271,,,,,,,,,,,,,,,,1385.6503,1386.9441,1386.9442,1389.7796,return,1.016,,32.421875,,,,,,FBP-RB-71.png,0.37,1.2,17,0.5,,,,,,,,,,,,,,,,,,0,43,43,16,1,,,,,,,,,,,,,,,,,,,,,,,
,,,,,WIN24_063,20,Male,2024-02-15_14h32.04.931,jersey_experiment_5,2023.2.2,Win32,84.74576271,,,,,,,,,,,,,,,,1389.7798,1391.5796,1391.5796,1394.4386,return,1.0737,,63.15104167,,,,,,FBP-PT-91.png,0.43,1.2,59,1,,,,,,,,,,,,,,,,,,0,44,44,58,1,,,,,,,,,,,,,,,,,,,,,,,
,,,,,WIN24_063,20,Male,2024-02-15_14h32.04.931,jersey_experiment_5,2023.2.2,Win32,84.74576271,,,,,,,,,,,,,,,,1394.4389,1395.7327,1395.7327,1399.027,return,1.5009,,41.14583333,,,,,,FBP-YG-17.png,0.37,1.2,32,0.5,,,,,,,,,,,,,,,,,,0,45,45,31,1,,,,,,,,,,,,,,,,,,,,,,,
,,,,,WIN24_063,20,Male,2024-02-15_14h32.04.931,jersey_experiment_5,2023.2.2,Win32,84.74576271,,,,,,,,,,,,,,,,1399.0272,1400.3211,1400.3211,1403.4271,return,1.2758,,80.72916667,,,,,,FBP-RB-81.png,0.45,1.2,25,0.5,,,,,,,,,,,,,,,,,,0,46,46,24,1,,,,,,,,,,,,,,,,,,,,,,,
,,,,,WIN24_063,20,Male,2024-02-15_14h32.04.931,jersey_experiment_5,2023.2.2,Win32,84.74576271,,,,,,,,,,,,,,,,1403.4273,1405.2271,1405.2272,1407.7803,return,1.4153,,81.38020833,,,,,,FBP-OG-17.png,0.45,1.2,5,1,,,,,,,,,,,,,,,,,,0,47,47,4,1,,,,,,,,,,,,,,,,,,,,,,,
,,,,,WIN24_063,20,Male,2024-02-15_14h32.04.931,jersey_experiment_5,2023.2.2,Win32,84.74576271,,,,,,,,,,,,,,,,1407.7805,1409.5802,1409.5803,1412.4864,return,1.6956,,37.5,,,,,,FBP-PT-71.png,0.35,1.2,46,1,,,,,,,,,,,,,,,,,,0,48,48,45,1,,,,,,,,,,,,,,,,,,,,,,,
,,,,,WIN24_063,20,Male,2024-02-15_14h32.04.931,jersey_experiment_5,2023.2.2,Win32,84.74576271,,,,,,,,,,,,,,,,1412.4865,1414.2864,1414.2864,1417.0983,return,1.6142,,41.53645833,,,,,,FBP-OG-19.png,0.37,1.2,12,1,,,,,,,,,,,,,,,,,,0,49,49,11,1,,,,,,,,,,,,,,,,,,,,,,,
,,,,,WIN24_063,20,Male,2024-02-15_14h32.04.931,jersey_experiment_5,2023.2.2,Win32,84.74576271,,,,,,,,,,,,,,,,1417.0984,1418.3924,1418.3924,1424.3691,return,3.4321,,57.68229167,,,,,,FBP-RB-91.png,0.4,1.2,28,0.5,,,,,,,,,,,,,,,,,,0,50,50,27,1,,,,,,,,,,,,,,,,,,,,,,,
,,,,,WIN24_063,20,Male,2024-02-15_14h32.04.931,jersey_experiment_5,2023.2.2,Win32,84.74576271,,,,,,,,,,,,,,,,1424.3693,1426.1691,1426.1692,1429.6516,return,1.5217,,30.72916667,,,,,,FBP-PT-91.png,0.35,1.2,56,1,,,,,,,,,,,,,,,,,,0,51,51,55,1,,,,,,,,,,,,,,,,,,,,,,,
,,,,,WIN24_063,20,Male,2024-02-15_14h32.04.931,jersey_experiment_5,2023.2.2,Win32,84.74576271,,,,,,,,,,,,,,,,1429.6519,1431.4516,1431.4516,1434.3459,return,1.6474,,22.65625,,,,,,FBP-PT-81.png,0.35,1.2,51,1,,,,,,,,,,,,,,,,,,0,52,52,50,1,,,,,,,,,,,,,,,,,,,,,,,
,,,,,WIN24_063,20,Male,2024-02-15_14h32.04.931,jersey_experiment_5,2023.2.2,Win32,84.74576271,,,,,,,,,,,,,,,,1434.3462,1435.6401,1435.6401,1439.5697,return,2.2422,,73.4375,,,,,,FBP-YG-17.png,0.43,1.2,34,0.5,,,,,,,,,,,,,,,,,,0,53,53,33,1,,,,,,,,,,,,,,,,,,,,,,,
,,,,,WIN24_063,20,Male,2024-02-15_14h32.04.931,jersey_experiment_5,2023.2.2,Win32,84.74576271,,,,,,,,,,,,,,,,1439.57,1440.8639,1440.8639,1444.4521,return,1.6056,,31.38020833,,,,,,FBP-RB-81.png,0.37,1.2,22,0.5,,,,,,,,,,,,,,,,,,0,54,54,21,1,,,,,,,,,,,,,,,,,,,,,,,
,,,,,WIN24_063,20,Male,2024-02-15_14h32.04.931,jersey_experiment_5,2023.2.2,Win32,84.74576271,,,,,,,,,,,,,,,,1444.4522,1446.2522,1446.2522,1449.017,return,1.2814,,56.51041667,,,,,,FBP-OG-18.png,0.43,1.2,9,1,,,,,,,,,,,,,,,,,,0,55,55,8,1,,,,,,,,,,,,,,,,,,,,,,,
,,,,,WIN24_063,20,Male,2024-02-15_14h32.04.931,jersey_experiment_5,2023.2.2,Win32,84.74576271,,,,,,,,,,,,,,,,1449.0173,1450.3112,1450.3112,1453.6525,return,1.8501,,27.47395833,,,,,,FBP-RB-91.png,0.35,1.2,26,0.5,,,,,,,,,,,,,,,,,,0,56,56,25,1,,,,,,,,,,,,,,,,,,,,,,,
,,,,,WIN24_063,20,Male,2024-02-15_14h32.04.931,jersey_experiment_5,2023.2.2,Win32,84.74576271,,,,,,,,,,,,,,,,1453.6527,1455.4526,1455.4526,1458.0879,return,1.4352,,49.47916667,,,,,,FBP-PT-71.png,0.4,1.2,48,1,,,,,,,,,,,,,,,,,,0,57,57,47,1,,,,,,,,,,,,,,,,,,,,,,,
,,,,,WIN24_063,20,Male,2024-02-15_14h32.04.931,jersey_experiment_5,2023.2.2,Win32,84.74576271,,,,,,,,,,,,,,,,1458.0882,1459.3822,1459.3822,1464.1471,return,2.995,,29.03645833,,,,,,FBP-YG-17.png,0.35,1.2,31,0.5,,,,,,,,,,,,,,,,,,0,58,58,30,1,,,,,,,,,,,,,,,,,,,,,,,
,,,,,WIN24_063,20,Male,2024-02-15_14h32.04.931,jersey_experiment_5,2023.2.2,Win32,84.74576271,,,,,,,,,,,,,,,,1464.1473,1465.4411,1465.4411,1467.8178,return,0.9754,,42.578125,,,,,,FBP-YG-19.png,0.4,1.2,43,0.5,,,,,,,,,,,,,,,,,,0,59,59,42,1,,,,,,,,,,,,,,,,,,,,,,,
,,,,,WIN24_063,20,Male,2024-02-15_14h32.04.931,jersey_experiment_5,2023.2.2,Win32,84.74576271,,,,,,,,,,,,,,,,,,,,,,,,,,,,,,,,,,,,,,,,,,,,,,,,,,,,,,,,1467.8182,1473.5123,return,5.6816,,,,,,,,,,,,,,,,,,,
,,,,,WIN24_063,20,Male,2024-02-15_14h32.04.931,jersey_experiment_5,2023.2.2,Win32,84.74576271,,,,,,,,,,,,,,,,,,,,,,,,,,,,,,,,,,,,,,,,,,,,,,,,,,,,,,,,,,,,,1473.5124,1481.8419,1,5.2759,return,3.0429,,,,,,,,,,,,
,,,,,WIN24_063,20,Male,2024-02-15_14h32.04.931,jersey_experiment_5,2023.2.2,Win32,84.74576271,,,,,,,,,,,,,,,,,,,,,,,,,,,,,,,,,,,,,,,,,,,,,,,,,,,,,,,,,,,,,,,,,,,,1481.842,1568.6028,"My best guess of what the study is about is seeing if I can detect the size difference between consecutive images. As I kept rating size, my definition of what was neutral kept shifting, and the more I did it the less I rated anything as neutral.",right,78.2976,,,,,,
,,,,,WIN24_063,20,Male,2024-02-15_14h32.04.931,jersey_experiment_5,2023.2.2,Win32,84.74576271,,,,,,,,,,,,,,,,,,,,,,,,,,,,,,,,,,,,,,,,,,,,,,,,,,,,,,,,,,,,,,,,,,,,,,,,,,1568.6028,1572.1393,return,3.5247,