requirements.started,requirements.stopped,key_resp_3.keys,key_resp_3.rt,key_resp_3.duration,Subject ID,Age,Gender,date,expName,psychopyVersion,OS,frameRate,instructions1.started,instructions1.stopped,key_resp.keys,key_resp.rt,key_resp.duration,example.started,example.stopped,enter_2.keys,enter_2.rt,enter_2.duration,instructions2.started,instructions2.stopped,enter_3.keys,enter_3.rt,enter_3.duration,image.started,image.stopped,slider_2.started,slider_2.stopped,next.keys,next.rt,next.duration,slider.response,trial_block_1.thisRepN,trial_block_1.thisTrialN,trial_block_1.thisN,trial_block_1.thisIndex,trial_block_1.ran,Path,Width,Height,Index,Duration,trial_block_2.thisRepN,trial_block_2.thisTrialN,trial_block_2.thisN,trial_block_2.thisIndex,trial_block_2.ran,rest_break.started,rest_break.stopped,end_break.started,end_break.stopped,key_resp_5.keys,key_resp_5.rt,key_resp_5.duration,trial_block_3.thisRepN,trial_block_3.thisTrialN,trial_block_3.thisN,trial_block_3.thisIndex,trial_block_3.ran,trial_block_4.thisRepN,trial_block_4.thisTrialN,trial_block_4.thisN,trial_block_4.thisIndex,trial_block_4.ran,questions_intro.started,questions_intro.stopped,enter_12.keys,enter_12.rt,enter_12.duration,question2.started,question2.stopped,question_doingbest.response,question_doingbest.rt,enter_15.keys,enter_15.rt,enter_15.duration,pattern.started,pattern.stopped,pattern_2.text,enter_17.keys,enter_17.rt,enter_17.duration,thankyou.started,thankyou.stopped,enter_14.keys,enter_14.rt,enter_14.duration
0.0002,7.7514,return,7.738,,WIN24_057,21,Male,2024-02-13_12h43.57.108,jersey_experiment_5,2023.2.2,Win32,84.74576271,,,,,,,,,,,,,,,,,,,,,,,,,,,,,,,,,,,,,,,,,,,,,,,,,,,,,,,,,,,,,,,,,,,,,,,,,,,,,,
,,,,,WIN24_057,21,Male,2024-02-13_12h43.57.108,jersey_experiment_5,2023.2.2,Win32,84.74576271,7.7515,17.599,return,9.8413,,,,,,,,,,,,,,,,,,,,,,,,,,,,,,,,,,,,,,,,,,,,,,,,,,,,,,,,,,,,,,,,,,,,,,,,,,
,,,,,WIN24_057,21,Male,2024-02-13_12h43.57.108,jersey_experiment_5,2023.2.2,Win32,84.74576271,,,,,,17.5991,22.5168,return,4.8824,,,,,,,,,,,,,,,,,,,,,,,,,,,,,,,,,,,,,,,,,,,,,,,,,,,,,,,,,,,,,,,,,,,,,
,,,,,WIN24_057,21,Male,2024-02-13_12h43.57.108,jersey_experiment_5,2023.2.2,Win32,84.74576271,,,,,,,,,,,22.5168,43.1999,return,20.677,,,,,,,,,,,,,,,,,,,,,,,,,,,,,,,,,,,,,,,,,,,,,,,,,,,,,,,,,,,,,,,,
,,,,,WIN24_057,21,Male,2024-02-13_12h43.57.108,jersey_experiment_5,2023.2.2,Win32,84.74576271,,,,,,,,,,,,,,,,43.2068,44.9996,44.9997,54.4707,return,3.5661,,24.73958333,0,0,0,15,1,FBP-RB-17.png,0.35,1.2,16,1,,,,,,,,,,,,,,,,,,,,,,,,,,,,,,,,,,,,,,,,,,,,,
,,,,,WIN24_057,21,Male,2024-02-13_12h43.57.108,jersey_experiment_5,2023.2.2,Win32,84.74576271,,,,,,,,,,,,,,,,54.4748,55.7764,55.7764,59.0121,return,0.6822,,0.390625,0,1,1,5,1,FBP-OG-81.png,0.35,1.2,6,0.5,,,,,,,,,,,,,,,,,,,,,,,,,,,,,,,,,,,,,,,,,,,,,
,,,,,WIN24_057,21,Male,2024-02-13_12h43.57.108,jersey_experiment_5,2023.2.2,Win32,84.74576271,,,,,,,,,,,,,,,,59.0123,60.3061,60.3061,61.8002,return,0.4817,,75.13020833,0,2,2,54,1,FBP-PT-18.png,0.45,1.2,55,0.5,,,,,,,,,,,,,,,,,,,,,,,,,,,,,,,,,,,,,,,,,,,,,
,,,,,WIN24_057,21,Male,2024-02-13_12h43.57.108,jersey_experiment_5,2023.2.2,Win32,84.74576271,,,,,,,,,,,,,,,,61.8003,63.0944,63.0944,64.4003,return,0.2399,,75.13020833,0,3,3,49,1,FBP-PT-17.png,0.45,1.2,50,0.5,,,,,,,,,,,,,,,,,,,,,,,,,,,,,,,,,,,,,,,,,,,,,
,,,,,WIN24_057,21,Male,2024-02-13_12h43.57.108,jersey_experiment_5,2023.2.2,Win32,84.74576271,,,,,,,,,,,,,,,,64.4005,66.2003,66.2003,67.7181,return,0.2821,,24.609375,0,4,4,20,1,FBP-RB-18.png,0.35,1.2,21,1,,,,,,,,,,,,,,,,,,,,,,,,,,,,,,,,,,,,,,,,,,,,,
,,,,,WIN24_057,21,Male,2024-02-13_12h43.57.108,jersey_experiment_5,2023.2.2,Win32,84.74576271,,,,,,,,,,,,,,,,67.7184,69.5183,69.5183,70.3418,return,0.2228,,50.78125,0,5,5,41,1,FBP-YG-91.png,0.37,1.2,42,1,,,,,,,,,,,,,,,,,,,,,,,,,,,,,,,,,,,,,,,,,,,,,
,,,,,WIN24_057,21,Male,2024-02-13_12h43.57.108,jersey_experiment_5,2023.2.2,Win32,84.74576271,,,,,,,,,,,,,,,,70.3419,72.1418,72.1418,74.53,return,0.1929,,24.609375,0,6,6,42,1,FBP-YG-91.png,0.4,1.2,43,1,,,,,,,,,,,,,,,,,,,,,,,,,,,,,,,,,,,,,,,,,,,,,
,,,,,WIN24_057,21,Male,2024-02-13_12h43.57.108,jersey_experiment_5,2023.2.2,Win32,84.74576271,,,,,,,,,,,,,,,,74.5303,75.8244,75.8244,77.4948,return,0.2359,,24.08854167,0,7,7,6,1,FBP-OG-81.png,0.37,1.2,7,0.5,,,,,,,,,,,,,,,,,,,,,,,,,,,,,,,,,,,,,,,,,,,,,
,,,,,WIN24_057,21,Male,2024-02-13_12h43.57.108,jersey_experiment_5,2023.2.2,Win32,84.74576271,,,,,,,,,,,,,,,,77.4951,79.2953,79.2953,81.5185,return,0.2437,,99.73958333,0,8,8,28,1,FBP-RB-19.png,0.43,1.2,29,1,,,,,,,,,,,,,,,,,,,,,,,,,,,,,,,,,,,,,,,,,,,,,
,,,,,WIN24_057,21,Male,2024-02-13_12h43.57.108,jersey_experiment_5,2023.2.2,Win32,84.74576271,,,,,,,,,,,,,,,,81.5188,83.3186,83.3187,86.9774,return,2.1463,,74.73958333,0,9,9,21,1,FBP-RB-18.png,0.37,1.2,22,1,,,,,,,,,,,,,,,,,,,,,,,,,,,,,,,,,,,,,,,,,,,,,
,,,,,WIN24_057,21,Male,2024-02-13_12h43.57.108,jersey_experiment_5,2023.2.2,Win32,84.74576271,,,,,,,,,,,,,,,,86.9776,88.7776,88.7776,90.3897,return,0.3644,,99.86979167,0,10,10,39,1,FBP-YG-81.png,0.45,1.2,40,1,,,,,,,,,,,,,,,,,,,,,,,,,,,,,,,,,,,,,,,,,,,,,
,,,,,WIN24_057,21,Male,2024-02-13_12h43.57.108,jersey_experiment_5,2023.2.2,Win32,84.74576271,,,,,,,,,,,,,,,,90.3899,91.6835,91.6835,93.8484,return,0.7156,,25.78125,0,11,11,10,1,FBP-OG-91.png,0.35,1.2,11,0.5,,,,,,,,,,,,,,,,,,,,,,,,,,,,,,,,,,,,,,,,,,,,,
,,,,,WIN24_057,21,Male,2024-02-13_12h43.57.108,jersey_experiment_5,2023.2.2,Win32,84.74576271,,,,,,,,,,,,,,,,93.8485,95.1427,95.1427,99.7663,return,0.7055,,35.67708333,0,12,12,8,1,FBP-OG-81.png,0.43,1.2,9,0.5,,,,,,,,,,,,,,,,,,,,,,,,,,,,,,,,,,,,,,,,,,,,,
,,,,,WIN24_057,21,Male,2024-02-13_12h43.57.108,jersey_experiment_5,2023.2.2,Win32,84.74576271,,,,,,,,,,,,,,,,99.7665,101.0603,101.0604,102.5664,return,0.2833,,26.69270833,0,13,13,11,1,FBP-OG-91.png,0.37,1.2,12,0.5,,,,,,,,,,,,,,,,,,,,,,,,,,,,,,,,,,,,,,,,,,,,,
,,,,,WIN24_057,21,Male,2024-02-13_12h43.57.108,jersey_experiment_5,2023.2.2,Win32,84.74576271,,,,,,,,,,,,,,,,102.5665,103.8605,103.8605,105.8135,return,0.2719,,45.05208333,0,14,14,50,1,FBP-PT-18.png,0.35,1.2,51,0.5,,,,,,,,,,,,,,,,,,,,,,,,,,,,,,,,,,,,,,,,,,,,,
,,,,,WIN24_057,21,Male,2024-02-13_12h43.57.108,jersey_experiment_5,2023.2.2,Win32,84.74576271,,,,,,,,,,,,,,,,105.8138,107.1077,107.1077,109.496,return,0.3159,,37.23958333,0,15,15,1,1,FBP-OG-71.png,0.37,1.2,2,0.5,,,,,,,,,,,,,,,,,,,,,,,,,,,,,,,,,,,,,,,,,,,,,
,,,,,WIN24_057,21,Male,2024-02-13_12h43.57.108,jersey_experiment_5,2023.2.2,Win32,84.74576271,,,,,,,,,,,,,,,,109.4961,110.7902,110.7902,113.8138,return,0.2486,,36.58854167,0,16,16,47,1,FBP-PT-17.png,0.4,1.2,48,0.5,,,,,,,,,,,,,,,,,,,,,,,,,,,,,,,,,,,,,,,,,,,,,
,,,,,WIN24_057,21,Male,2024-02-13_12h43.57.108,jersey_experiment_5,2023.2.2,Win32,84.74576271,,,,,,,,,,,,,,,,113.814,115.6138,115.6138,117.2726,return,0.2503,,61.06770833,0,17,17,37,1,FBP-YG-81.png,0.4,1.2,38,1,,,,,,,,,,,,,,,,,,,,,,,,,,,,,,,,,,,,,,,,,,,,,
,,,,,WIN24_057,21,Male,2024-02-13_12h43.57.108,jersey_experiment_5,2023.2.2,Win32,84.74576271,,,,,,,,,,,,,,,,117.2729,119.073,119.073,121.0141,return,0.2824,,85.41666667,0,18,18,43,1,FBP-YG-91.png,0.43,1.2,44,1,,,,,,,,,,,,,,,,,,,,,,,,,,,,,,,,,,,,,,,,,,,,,
,,,,,WIN24_057,21,Male,2024-02-13_12h43.57.108,jersey_experiment_5,2023.2.2,Win32,84.74576271,,,,,,,,,,,,,,,,121.0142,122.3081,122.3081,124.0965,return,0.1923,,75,0,19,19,2,1,FBP-OG-71.png,0.4,1.2,3,0.5,,,,,,,,,,,,,,,,,,,,,,,,,,,,,,,,,,,,,,,,,,,,,
,,,,,WIN24_057,21,Male,2024-02-13_12h43.57.108,jersey_experiment_5,2023.2.2,Win32,84.74576271,,,,,,,,,,,,,,,,124.0967,125.3908,125.3908,128.0026,return,0.0867,,71.35416667,0,20,20,52,1,FBP-PT-18.png,0.4,1.2,53,0.5,,,,,,,,,,,,,,,,,,,,,,,,,,,,,,,,,,,,,,,,,,,,,
,,,,,WIN24_057,21,Male,2024-02-13_12h43.57.108,jersey_experiment_5,2023.2.2,Win32,84.74576271,,,,,,,,,,,,,,,,128.0029,129.2968,129.2968,131.6143,return,1.1376,,75.26041667,0,21,21,58,1,FBP-PT-19.png,0.43,1.2,59,0.5,,,,,,,,,,,,,,,,,,,,,,,,,,,,,,,,,,,,,,,,,,,,,
,,,,,WIN24_057,21,Male,2024-02-13_12h43.57.108,jersey_experiment_5,2023.2.2,Win32,84.74576271,,,,,,,,,,,,,,,,131.6145,132.9088,132.9088,134.3675,return,0.3365,,89.0625,0,22,22,4,1,FBP-OG-71.png,0.45,1.2,5,0.5,,,,,,,,,,,,,,,,,,,,,,,,,,,,,,,,,,,,,,,,,,,,,
,,,,,WIN24_057,21,Male,2024-02-13_12h43.57.108,jersey_experiment_5,2023.2.2,Win32,84.74576271,,,,,,,,,,,,,,,,134.3677,135.6617,135.6617,138.1678,return,0.7544,,56.25,0,23,23,55,1,FBP-PT-19.png,0.35,1.2,56,0.5,,,,,,,,,,,,,,,,,,,,,,,,,,,,,,,,,,,,,,,,,,,,,
,,,,,WIN24_057,21,Male,2024-02-13_12h43.57.108,jersey_experiment_5,2023.2.2,Win32,84.74576271,,,,,,,,,,,,,,,,138.168,139.4618,139.4618,141.2854,return,0.4249,,50.13020833,0,24,24,45,1,FBP-PT-17.png,0.35,1.2,46,0.5,,,,,,,,,,,,,,,,,,,,,,,,,,,,,,,,,,,,,,,,,,,,,
,,,,,WIN24_057,21,Male,2024-02-13_12h43.57.108,jersey_experiment_5,2023.2.2,Win32,84.74576271,,,,,,,,,,,,,,,,141.2857,143.0856,143.0856,144.4031,return,0.3314,,49.73958333,0,25,25,31,1,FBP-YG-71.png,0.37,1.2,32,1,,,,,,,,,,,,,,,,,,,,,,,,,,,,,,,,,,,,,,,,,,,,,
,,,,,WIN24_057,21,Male,2024-02-13_12h43.57.108,jersey_experiment_5,2023.2.2,Win32,84.74576271,,,,,,,,,,,,,,,,144.4034,145.6973,145.6973,147.6385,return,0.1517,,36.58854167,0,26,26,56,1,FBP-PT-19.png,0.37,1.2,57,0.5,,,,,,,,,,,,,,,,,,,,,,,,,,,,,,,,,,,,,,,,,,,,,
,,,,,WIN24_057,21,Male,2024-02-13_12h43.57.108,jersey_experiment_5,2023.2.2,Win32,84.74576271,,,,,,,,,,,,,,,,147.6387,149.4386,149.4386,150.8505,return,0.2042,,46.22395833,0,27,27,40,1,FBP-YG-91.png,0.35,1.2,41,1,,,,,,,,,,,,,,,,,,,,,,,,,,,,,,,,,,,,,,,,,,,,,
,,,,,WIN24_057,21,Male,2024-02-13_12h43.57.108,jersey_experiment_5,2023.2.2,Win32,84.74576271,,,,,,,,,,,,,,,,150.8507,152.6504,152.6504,153.7211,return,0.1416,,40.49479167,0,28,28,16,1,FBP-RB-17.png,0.37,1.2,17,1,,,,,,,,,,,,,,,,,,,,,,,,,,,,,,,,,,,,,,,,,,,,,
,,,,,WIN24_057,21,Male,2024-02-13_12h43.57.108,jersey_experiment_5,2023.2.2,Win32,84.74576271,,,,,,,,,,,,,,,,153.7213,155.0153,155.0153,156.4858,return,0.1751,,70.44270833,0,29,29,13,1,FBP-OG-91.png,0.43,1.2,14,0.5,,,,,,,,,,,,,,,,,,,,,,,,,,,,,,,,,,,,,,,,,,,,,
,,,,,WIN24_057,21,Male,2024-02-13_12h43.57.108,jersey_experiment_5,2023.2.2,Win32,84.74576271,,,,,,,,,,,,,,,,156.486,158.2861,158.2861,159.1919,return,0.1278,,92.70833333,0,30,30,34,1,FBP-YG-71.png,0.45,1.2,35,1,,,,,,,,,,,,,,,,,,,,,,,,,,,,,,,,,,,,,,,,,,,,,
,,,,,WIN24_057,21,Male,2024-02-13_12h43.57.108,jersey_experiment_5,2023.2.2,Win32,84.74576271,,,,,,,,,,,,,,,,159.1921,160.9921,160.9921,162.0625,return,0.0659,,74.73958333,0,31,31,22,1,FBP-RB-18.png,0.4,1.2,23,1,,,,,,,,,,,,,,,,,,,,,,,,,,,,,,,,,,,,,,,,,,,,,
,,,,,WIN24_057,21,Male,2024-02-13_12h43.57.108,jersey_experiment_5,2023.2.2,Win32,84.74576271,,,,,,,,,,,,,,,,162.0627,163.8629,163.863,164.8862,return,0.1651,,74.609375,0,32,32,25,1,FBP-RB-19.png,0.35,1.2,26,1,,,,,,,,,,,,,,,,,,,,,,,,,,,,,,,,,,,,,,,,,,,,,
,,,,,WIN24_057,21,Male,2024-02-13_12h43.57.108,jersey_experiment_5,2023.2.2,Win32,84.74576271,,,,,,,,,,,,,,,,164.8865,166.6866,166.6867,167.6628,return,0.206,,75.13020833,0,33,33,24,1,FBP-RB-18.png,0.45,1.2,25,1,,,,,,,,,,,,,,,,,,,,,,,,,,,,,,,,,,,,,,,,,,,,,
,,,,,WIN24_057,21,Male,2024-02-13_12h43.57.108,jersey_experiment_5,2023.2.2,Win32,84.74576271,,,,,,,,,,,,,,,,167.6629,169.4629,169.4629,170.804,return,0.1558,,63.671875,0,34,34,36,1,FBP-YG-81.png,0.37,1.2,37,1,,,,,,,,,,,,,,,,,,,,,,,,,,,,,,,,,,,,,,,,,,,,,
,,,,,WIN24_057,21,Male,2024-02-13_12h43.57.108,jersey_experiment_5,2023.2.2,Win32,84.74576271,,,,,,,,,,,,,,,,170.8043,172.0982,172.0982,174.3689,return,0.1472,,69.66145833,0,35,35,7,1,FBP-OG-81.png,0.4,1.2,8,0.5,,,,,,,,,,,,,,,,,,,,,,,,,,,,,,,,,,,,,,,,,,,,,
,,,,,WIN24_057,21,Male,2024-02-13_12h43.57.108,jersey_experiment_5,2023.2.2,Win32,84.74576271,,,,,,,,,,,,,,,,174.3691,175.663,175.663,177.31,return,0.3382,,31.51041667,0,36,36,51,1,FBP-PT-18.png,0.37,1.2,52,0.5,,,,,,,,,,,,,,,,,,,,,,,,,,,,,,,,,,,,,,,,,,,,,
,,,,,WIN24_057,21,Male,2024-02-13_12h43.57.108,jersey_experiment_5,2023.2.2,Win32,84.74576271,,,,,,,,,,,,,,,,177.3103,179.1104,179.1104,180.0986,return,0.1907,,89.19270833,0,37,37,18,1,FBP-RB-17.png,0.43,1.2,19,1,,,,,,,,,,,,,,,,,,,,,,,,,,,,,,,,,,,,,,,,,,,,,
,,,,,WIN24_057,21,Male,2024-02-13_12h43.57.108,jersey_experiment_5,2023.2.2,Win32,84.74576271,,,,,,,,,,,,,,,,180.0988,181.8986,181.8986,184.5927,return,0.159,,69.921875,0,38,38,26,1,FBP-RB-19.png,0.37,1.2,27,1,,,,,,,,,,,,,,,,,,,,,,,,,,,,,,,,,,,,,,,,,,,,,
,,,,,WIN24_057,21,Male,2024-02-13_12h43.57.108,jersey_experiment_5,2023.2.2,Win32,84.74576271,,,,,,,,,,,,,,,,184.5929,186.3933,186.3933,188.0516,return,0.1113,,79.55729167,0,39,39,32,1,FBP-YG-71.png,0.4,1.2,33,1,,,,,,,,,,,,,,,,,,,,,,,,,,,,,,,,,,,,,,,,,,,,,
,,,,,WIN24_057,21,Male,2024-02-13_12h43.57.108,jersey_experiment_5,2023.2.2,Win32,84.74576271,,,,,,,,,,,,,,,,188.0517,189.3504,189.3504,190.6449,return,0.2019,,99.73958333,0,40,40,9,1,FBP-OG-81.png,0.45,1.2,10,0.5,,,,,,,,,,,,,,,,,,,,,,,,,,,,,,,,,,,,,,,,,,,,,
,,,,,WIN24_057,21,Male,2024-02-13_12h43.57.108,jersey_experiment_5,2023.2.2,Win32,84.74576271,,,,,,,,,,,,,,,,190.645,191.946,191.946,193.0399,return,0.1706,,89.19270833,0,41,41,53,1,FBP-PT-18.png,0.43,1.2,54,0.5,,,,,,,,,,,,,,,,,,,,,,,,,,,,,,,,,,,,,,,,,,,,,
,,,,,WIN24_057,21,Male,2024-02-13_12h43.57.108,jersey_experiment_5,2023.2.2,Win32,84.74576271,,,,,,,,,,,,,,,,193.0401,194.3342,194.3342,195.8756,return,0.2847,,85.41666667,0,42,42,14,1,FBP-OG-91.png,0.45,1.2,15,0.5,,,,,,,,,,,,,,,,,,,,,,,,,,,,,,,,,,,,,,,,,,,,,
,,,,,WIN24_057,21,Male,2024-02-13_12h43.57.108,jersey_experiment_5,2023.2.2,Win32,84.74576271,,,,,,,,,,,,,,,,195.8757,197.6676,197.6676,198.9851,return,0.1179,,98.046875,0,43,43,29,1,FBP-RB-19.png,0.45,1.2,30,1,,,,,,,,,,,,,,,,,,,,,,,,,,,,,,,,,,,,,,,,,,,,,
,,,,,WIN24_057,21,Male,2024-02-13_12h43.57.108,jersey_experiment_5,2023.2.2,Win32,84.74576271,,,,,,,,,,,,,,,,198.9852,200.2874,200.2875,201.5579,return,0.1178,,99.73958333,0,44,44,12,1,FBP-OG-91.png,0.4,1.2,13,0.5,,,,,,,,,,,,,,,,,,,,,,,,,,,,,,,,,,,,,,,,,,,,,
,,,,,WIN24_057,21,Male,2024-02-13_12h43.57.108,jersey_experiment_5,2023.2.2,Win32,84.74576271,,,,,,,,,,,,,,,,201.5582,203.3513,203.3514,204.4575,return,0.1308,,24.86979167,0,45,45,30,1,FBP-YG-71.png,0.35,1.2,31,1,,,,,,,,,,,,,,,,,,,,,,,,,,,,,,,,,,,,,,,,,,,,,
,,,,,WIN24_057,21,Male,2024-02-13_12h43.57.108,jersey_experiment_5,2023.2.2,Win32,84.74576271,,,,,,,,,,,,,,,,204.4577,206.2558,206.2558,207.5867,return,0.1547,,92.96875,0,46,46,44,1,FBP-YG-91.png,0.45,1.2,45,1,,,,,,,,,,,,,,,,,,,,,,,,,,,,,,,,,,,,,,,,,,,,,
,,,,,WIN24_057,21,Male,2024-02-13_12h43.57.108,jersey_experiment_5,2023.2.2,Win32,84.74576271,,,,,,,,,,,,,,,,207.5869,208.8809,208.8809,210.1818,return,0.1544,,94.79166667,0,47,47,48,1,FBP-PT-17.png,0.43,1.2,49,0.5,,,,,,,,,,,,,,,,,,,,,,,,,,,,,,,,,,,,,,,,,,,,,
,,,,,WIN24_057,21,Male,2024-02-13_12h43.57.108,jersey_experiment_5,2023.2.2,Win32,84.74576271,,,,,,,,,,,,,,,,210.182,211.4762,211.4762,214.1284,return,0.8476,,99.609375,0,48,48,59,1,FBP-PT-19.png,0.45,1.2,60,0.5,,,,,,,,,,,,,,,,,,,,,,,,,,,,,,,,,,,,,,,,,,,,,
,,,,,WIN24_057,21,Male,2024-02-13_12h43.57.108,jersey_experiment_5,2023.2.2,Win32,84.74576271,,,,,,,,,,,,,,,,214.1285,215.9265,215.9265,217.9821,return,0.4655,,99.47916667,0,49,49,27,1,FBP-RB-19.png,0.4,1.2,28,1,,,,,,,,,,,,,,,,,,,,,,,,,,,,,,,,,,,,,,,,,,,,,
,,,,,WIN24_057,21,Male,2024-02-13_12h43.57.108,jersey_experiment_5,2023.2.2,Win32,84.74576271,,,,,,,,,,,,,,,,217.9823,219.7752,219.7753,220.8177,return,0.1918,,75,0,50,50,17,1,FBP-RB-17.png,0.4,1.2,18,1,,,,,,,,,,,,,,,,,,,,,,,,,,,,,,,,,,,,,,,,,,,,,
,,,,,WIN24_057,21,Male,2024-02-13_12h43.57.108,jersey_experiment_5,2023.2.2,Win32,84.74576271,,,,,,,,,,,,,,,,220.8178,222.6176,222.6176,224.0529,return,0.0717,,90.234375,0,51,51,38,1,FBP-YG-81.png,0.43,1.2,39,1,,,,,,,,,,,,,,,,,,,,,,,,,,,,,,,,,,,,,,,,,,,,,
,,,,,WIN24_057,21,Male,2024-02-13_12h43.57.108,jersey_experiment_5,2023.2.2,Win32,84.74576271,,,,,,,,,,,,,,,,224.053,225.3472,225.3472,226.4531,return,0.1428,,99.86979167,0,52,52,3,1,FBP-OG-71.png,0.43,1.2,4,0.5,,,,,,,,,,,,,,,,,,,,,,,,,,,,,,,,,,,,,,,,,,,,,
,,,,,WIN24_057,21,Male,2024-02-13_12h43.57.108,jersey_experiment_5,2023.2.2,Win32,84.74576271,,,,,,,,,,,,,,,,226.4533,228.2463,228.2463,229.665,return,0.2158,,99.609375,0,53,53,23,1,FBP-RB-18.png,0.43,1.2,24,1,,,,,,,,,,,,,,,,,,,,,,,,,,,,,,,,,,,,,,,,,,,,,
,,,,,WIN24_057,21,Male,2024-02-13_12h43.57.108,jersey_experiment_5,2023.2.2,Win32,84.74576271,,,,,,,,,,,,,,,,229.6652,230.9591,230.9591,233.6181,return,1.5323,,65.49479167,0,54,54,57,1,FBP-PT-19.png,0.4,1.2,58,0.5,,,,,,,,,,,,,,,,,,,,,,,,,,,,,,,,,,,,,,,,,,,,,
,,,,,WIN24_057,21,Male,2024-02-13_12h43.57.108,jersey_experiment_5,2023.2.2,Win32,84.74576271,,,,,,,,,,,,,,,,233.6183,234.9123,234.9123,236.1996,return,0.1782,,25.26041667,0,55,55,0,1,FBP-OG-71.png,0.35,1.2,1,0.5,,,,,,,,,,,,,,,,,,,,,,,,,,,,,,,,,,,,,,,,,,,,,
,,,,,WIN24_057,21,Male,2024-02-13_12h43.57.108,jersey_experiment_5,2023.2.2,Win32,84.74576271,,,,,,,,,,,,,,,,236.1997,237.998,237.998,239.0063,return,0.1003,,91.66666667,0,56,56,19,1,FBP-RB-17.png,0.45,1.2,20,1,,,,,,,,,,,,,,,,,,,,,,,,,,,,,,,,,,,,,,,,,,,,,
,,,,,WIN24_057,21,Male,2024-02-13_12h43.57.108,jersey_experiment_5,2023.2.2,Win32,84.74576271,,,,,,,,,,,,,,,,239.0065,240.3045,240.3045,241.3396,return,0.1049,,28.125,0,57,57,46,1,FBP-PT-17.png,0.37,1.2,47,0.5,,,,,,,,,,,,,,,,,,,,,,,,,,,,,,,,,,,,,,,,,,,,,
,,,,,WIN24_057,21,Male,2024-02-13_12h43.57.108,jersey_experiment_5,2023.2.2,Win32,84.74576271,,,,,,,,,,,,,,,,241.3398,243.141,243.141,244.089,return,0.1307,,99.34895833,0,58,58,33,1,FBP-YG-71.png,0.43,1.2,34,1,,,,,,,,,,,,,,,,,,,,,,,,,,,,,,,,,,,,,,,,,,,,,
,,,,,WIN24_057,21,Male,2024-02-13_12h43.57.108,jersey_experiment_5,2023.2.2,Win32,84.74576271,,,,,,,,,,,,,,,,244.0893,245.8807,245.8807,247.1362,return,0.0768,,25.65104167,0,59,59,35,1,FBP-YG-81.png,0.35,1.2,36,1,,,,,,,,,,,,,,,,,,,,,,,,,,,,,,,,,,,,,,,,,,,,,
,,,,,WIN24_057,21,Male,2024-02-13_12h43.57.108,jersey_experiment_5,2023.2.2,Win32,84.74576271,,,,,,,,,,,,,,,,247.1387,248.9364,248.9364,249.7633,return,0.1282,,80.859375,,,,,,FBP-YG-18.png,0.43,1.2,39,1,0,0,0,38,1,,,,,,,,,,,,,,,,,,,,,,,,,,,,,,,,,,,,,,,,
,,,,,WIN24_057,21,Male,2024-02-13_12h43.57.108,jersey_experiment_5,2023.2.2,Win32,84.74576271,,,,,,,,,,,,,,,,249.7636,251.565,251.565,252.5774,return,0.226,,37.5,,,,,,FBP-RB-81.png,0.35,1.2,21,1,0,1,1,20,1,,,,,,,,,,,,,,,,,,,,,,,,,,,,,,,,,,,,,,,,
,,,,,WIN24_057,21,Male,2024-02-13_12h43.57.108,jersey_experiment_5,2023.2.2,Win32,84.74576271,,,,,,,,,,,,,,,,252.5776,253.8707,253.8707,255.0893,return,0.2033,,75.65104167,,,,,,FBP-PT-71.png,0.43,1.2,49,0.5,0,2,2,48,1,,,,,,,,,,,,,,,,,,,,,,,,,,,,,,,,,,,,,,,,
,,,,,WIN24_057,21,Male,2024-02-13_12h43.57.108,jersey_experiment_5,2023.2.2,Win32,84.74576271,,,,,,,,,,,,,,,,255.0895,256.3835,256.3836,257.3872,return,0.094,,84.63541667,,,,,,FBP-OG-19.png,0.45,1.2,15,0.5,0,3,3,14,1,,,,,,,,,,,,,,,,,,,,,,,,,,,,,,,,,,,,,,,,
,,,,,WIN24_057,21,Male,2024-02-13_12h43.57.108,jersey_experiment_5,2023.2.2,Win32,84.74576271,,,,,,,,,,,,,,,,257.3873,259.1836,259.1836,260.5013,return,0.1994,,99.34895833,,,,,,FBP-YG-17.png,0.45,1.2,35,1,0,4,4,34,1,,,,,,,,,,,,,,,,,,,,,,,,,,,,,,,,,,,,,,,,
,,,,,WIN24_057,21,Male,2024-02-13_12h43.57.108,jersey_experiment_5,2023.2.2,Win32,84.74576271,,,,,,,,,,,,,,,,260.5015,262.3015,262.3016,264.6075,return,0.1467,,99.47916667,,,,,,FBP-YG-18.png,0.4,1.2,38,1,0,5,5,37,1,,,,,,,,,,,,,,,,,,,,,,,,,,,,,,,,,,,,,,,,
,,,,,WIN24_057,21,Male,2024-02-13_12h43.57.108,jersey_experiment_5,2023.2.2,Win32,84.74576271,,,,,,,,,,,,,,,,264.6076,266.399,266.399,267.3134,return,0.158,,81.77083333,,,,,,FBP-YG-19.png,0.37,1.2,42,1,0,6,6,41,1,,,,,,,,,,,,,,,,,,,,,,,,,,,,,,,,,,,,,,,,
,,,,,WIN24_057,21,Male,2024-02-13_12h43.57.108,jersey_experiment_5,2023.2.2,Win32,84.74576271,,,,,,,,,,,,,,,,267.3136,269.1136,269.1137,270.2899,return,0.6265,,68.359375,,,,,,FBP-RB-81.png,0.37,1.2,22,1,0,7,7,21,1,,,,,,,,,,,,,,,,,,,,,,,,,,,,,,,,,,,,,,,,
,,,,,WIN24_057,21,Male,2024-02-13_12h43.57.108,jersey_experiment_5,2023.2.2,Win32,84.74576271,,,,,,,,,,,,,,,,270.2901,272.0832,272.0832,273.0718,return,0.1418,,49.86979167,,,,,,FBP-YG-18.png,0.35,1.2,36,1,0,8,8,35,1,,,,,,,,,,,,,,,,,,,,,,,,,,,,,,,,,,,,,,,,
,,,,,WIN24_057,21,Male,2024-02-13_12h43.57.108,jersey_experiment_5,2023.2.2,Win32,84.74576271,,,,,,,,,,,,,,,,273.072,274.3725,274.3725,275.3608,return,0.2161,,37.890625,,,,,,FBP-PT-91.png,0.37,1.2,57,0.5,0,9,9,56,1,,,,,,,,,,,,,,,,,,,,,,,,,,,,,,,,,,,,,,,,
,,,,,WIN24_057,21,Male,2024-02-13_12h43.57.108,jersey_experiment_5,2023.2.2,Win32,84.74576271,,,,,,,,,,,,,,,,275.3611,277.1528,277.1528,277.8482,return,0.1415,,64.0625,,,,,,FBP-YG-17.png,0.4,1.2,33,1,0,10,10,32,1,,,,,,,,,,,,,,,,,,,,,,,,,,,,,,,,,,,,,,,,
,,,,,WIN24_057,21,Male,2024-02-13_12h43.57.108,jersey_experiment_5,2023.2.2,Win32,84.74576271,,,,,,,,,,,,,,,,277.8483,279.1527,279.1527,280.2483,return,0.165,,74.86979167,,,,,,FBP-OG-19.png,0.43,1.2,14,0.5,0,11,11,13,1,,,,,,,,,,,,,,,,,,,,,,,,,,,,,,,,,,,,,,,,
,,,,,WIN24_057,21,Male,2024-02-13_12h43.57.108,jersey_experiment_5,2023.2.2,Win32,84.74576271,,,,,,,,,,,,,,,,280.2485,282.0434,282.0434,283.4115,return,0.6589,,90.36458333,,,,,,FBP-RB-71.png,0.45,1.2,20,1,0,12,12,19,1,,,,,,,,,,,,,,,,,,,,,,,,,,,,,,,,,,,,,,,,
,,,,,WIN24_057,21,Male,2024-02-13_12h43.57.108,jersey_experiment_5,2023.2.2,Win32,84.74576271,,,,,,,,,,,,,,,,283.4116,284.7055,284.7055,286.1648,return,0.105,,87.890625,,,,,,FBP-PT-91.png,0.4,1.2,58,0.5,0,13,13,57,1,,,,,,,,,,,,,,,,,,,,,,,,,,,,,,,,,,,,,,,,
,,,,,WIN24_057,21,Male,2024-02-13_12h43.57.108,jersey_experiment_5,2023.2.2,Win32,84.74576271,,,,,,,,,,,,,,,,286.165,287.9611,287.9612,288.8471,return,0.2121,,98.95833333,,,,,,FBP-RB-91.png,0.43,1.2,29,1,0,14,14,28,1,,,,,,,,,,,,,,,,,,,,,,,,,,,,,,,,,,,,,,,,
,,,,,WIN24_057,21,Male,2024-02-13_12h43.57.108,jersey_experiment_5,2023.2.2,Win32,84.74576271,,,,,,,,,,,,,,,,288.8473,290.6485,290.6485,291.5061,return,0.0812,,75.26041667,,,,,,FBP-RB-91.png,0.37,1.2,27,1,0,15,15,26,1,,,,,,,,,,,,,,,,,,,,,,,,,,,,,,,,,,,,,,,,
,,,,,WIN24_057,21,Male,2024-02-13_12h43.57.108,jersey_experiment_5,2023.2.2,Win32,84.74576271,,,,,,,,,,,,,,,,291.5062,293.3073,293.3074,293.9849,return,0.1228,,83.59375,,,,,,FBP-YG-17.png,0.43,1.2,34,1,0,16,16,33,1,,,,,,,,,,,,,,,,,,,,,,,,,,,,,,,,,,,,,,,,
,,,,,WIN24_057,21,Male,2024-02-13_12h43.57.108,jersey_experiment_5,2023.2.2,Win32,84.74576271,,,,,,,,,,,,,,,,293.9851,295.7887,295.7887,296.8792,return,0.4411,,36.71875,,,,,,FBP-YG-17.png,0.35,1.2,31,1,0,17,17,30,1,,,,,,,,,,,,,,,,,,,,,,,,,,,,,,,,,,,,,,,,
,,,,,WIN24_057,21,Male,2024-02-13_12h43.57.108,jersey_experiment_5,2023.2.2,Win32,84.74576271,,,,,,,,,,,,,,,,296.8795,298.6731,298.6731,299.9029,return,0.1004,,43.61979167,,,,,,FBP-YG-17.png,0.37,1.2,32,1,0,18,18,31,1,,,,,,,,,,,,,,,,,,,,,,,,,,,,,,,,,,,,,,,,
,,,,,WIN24_057,21,Male,2024-02-13_12h43.57.108,jersey_experiment_5,2023.2.2,Win32,84.74576271,,,,,,,,,,,,,,,,299.9031,301.2005,301.2006,302.2492,return,0.1546,,41.40625,,,,,,FBP-PT-71.png,0.35,1.2,46,0.5,0,19,19,45,1,,,,,,,,,,,,,,,,,,,,,,,,,,,,,,,,,,,,,,,,
,,,,,WIN24_057,21,Male,2024-02-13_12h43.57.108,jersey_experiment_5,2023.2.2,Win32,84.74576271,,,,,,,,,,,,,,,,302.2494,304.0477,304.0477,305.0442,return,0.3081,,57.421875,,,,,,FBP-YG-19.png,0.4,1.2,43,1,0,20,20,42,1,,,,,,,,,,,,,,,,,,,,,,,,,,,,,,,,,,,,,,,,
,,,,,WIN24_057,21,Male,2024-02-13_12h43.57.108,jersey_experiment_5,2023.2.2,Win32,84.74576271,,,,,,,,,,,,,,,,305.0444,306.3382,306.3382,307.4443,return,0.2478,,68.09895833,,,,,,FBP-PT-91.png,0.45,1.2,60,0.5,0,21,21,59,1,,,,,,,,,,,,,,,,,,,,,,,,,,,,,,,,,,,,,,,,
,,,,,WIN24_057,21,Male,2024-02-13_12h43.57.108,jersey_experiment_5,2023.2.2,Win32,84.74576271,,,,,,,,,,,,,,,,307.4445,309.2441,309.2442,309.7788,return,0.0944,,69.921875,,,,,,FBP-RB-91.png,0.45,1.2,30,1,0,22,22,29,1,,,,,,,,,,,,,,,,,,,,,,,,,,,,,,,,,,,,,,,,
,,,,,WIN24_057,21,Male,2024-02-13_12h43.57.108,jersey_experiment_5,2023.2.2,Win32,84.74576271,,,,,,,,,,,,,,,,309.7789,311.0797,311.0798,312.4373,return,0.0363,,72.91666667,,,,,,FBP-PT-81.png,0.4,1.2,53,0.5,0,23,23,52,1,,,,,,,,,,,,,,,,,,,,,,,,,,,,,,,,,,,,,,,,
,,,,,WIN24_057,21,Male,2024-02-13_12h43.57.108,jersey_experiment_5,2023.2.2,Win32,84.74576271,,,,,,,,,,,,,,,,312.4374,313.742,313.742,314.8011,return,0.0578,,82.68229167,,,,,,FBP-PT-91.png,0.43,1.2,59,0.5,0,24,24,58,1,,,,,,,,,,,,,,,,,,,,,,,,,,,,,,,,,,,,,,,,
,,,,,WIN24_057,21,Male,2024-02-13_12h43.57.108,jersey_experiment_5,2023.2.2,Win32,84.74576271,,,,,,,,,,,,,,,,314.8012,316.0948,316.0948,317.5544,return,0.3535,,73.69791667,,,,,,FBP-OG-17.png,0.37,1.2,2,0.5,0,25,25,1,1,,,,,,,,,,,,,,,,,,,,,,,,,,,,,,,,,,,,,,,,
,,,,,WIN24_057,21,Male,2024-02-13_12h43.57.108,jersey_experiment_5,2023.2.2,Win32,84.74576271,,,,,,,,,,,,,,,,317.5546,318.8611,318.8611,319.774,return,0.113,,70.05208333,,,,,,FBP-OG-19.png,0.4,1.2,13,0.5,0,26,26,12,1,,,,,,,,,,,,,,,,,,,,,,,,,,,,,,,,,,,,,,,,
,,,,,WIN24_057,21,Male,2024-02-13_12h43.57.108,jersey_experiment_5,2023.2.2,Win32,84.74576271,,,,,,,,,,,,,,,,319.7742,321.5674,321.5674,322.5272,return,0.3942,,85.67708333,,,,,,FBP-YG-18.png,0.45,1.2,40,1,0,27,27,39,1,,,,,,,,,,,,,,,,,,,,,,,,,,,,,,,,,,,,,,,,
,,,,,WIN24_057,21,Male,2024-02-13_12h43.57.108,jersey_experiment_5,2023.2.2,Win32,84.74576271,,,,,,,,,,,,,,,,322.5274,323.8212,323.8213,325.0922,return,0.107,,78.125,,,,,,FBP-OG-18.png,0.43,1.2,9,0.5,0,28,28,8,1,,,,,,,,,,,,,,,,,,,,,,,,,,,,,,,,,,,,,,,,
,,,,,WIN24_057,21,Male,2024-02-13_12h43.57.108,jersey_experiment_5,2023.2.2,Win32,84.74576271,,,,,,,,,,,,,,,,325.0924,326.8956,326.8956,328.998,return,0.0594,,74.86979167,,,,,,FBP-RB-81.png,0.4,1.2,23,1,0,29,29,22,1,,,,,,,,,,,,,,,,,,,,,,,,,,,,,,,,,,,,,,,,
,,,,,WIN24_057,21,Male,2024-02-13_12h43.57.108,jersey_experiment_5,2023.2.2,Win32,84.74576271,,,,,,,,,,,,,,,,328.9983,330.7913,330.7913,333.7195,return,0.0946,,53.77604167,,,,,,FBP-YG-19.png,0.35,1.2,41,1,0,30,30,40,1,,,,,,,,,,,,,,,,,,,,,,,,,,,,,,,,,,,,,,,,
,,,,,WIN24_057,21,Male,2024-02-13_12h43.57.108,jersey_experiment_5,2023.2.2,Win32,84.74576271,,,,,,,,,,,,,,,,333.7196,335.5161,335.5161,336.4856,return,0.1779,,50.52083333,,,,,,FBP-RB-71.png,0.4,1.2,18,1,0,31,31,17,1,,,,,,,,,,,,,,,,,,,,,,,,,,,,,,,,,,,,,,,,
,,,,,WIN24_057,21,Male,2024-02-13_12h43.57.108,jersey_experiment_5,2023.2.2,Win32,84.74576271,,,,,,,,,,,,,,,,336.4857,337.7901,337.7901,338.7314,return,0.0578,,49.21875,,,,,,FBP-OG-17.png,0.4,1.2,3,0.5,0,32,32,2,1,,,,,,,,,,,,,,,,,,,,,,,,,,,,,,,,,,,,,,,,
,,,,,WIN24_057,21,Male,2024-02-13_12h43.57.108,jersey_experiment_5,2023.2.2,Win32,84.74576271,,,,,,,,,,,,,,,,338.7315,340.0385,340.0385,340.8857,return,0.0943,,45.18229167,,,,,,FBP-OG-19.png,0.37,1.2,12,0.5,0,33,33,11,1,,,,,,,,,,,,,,,,,,,,,,,,,,,,,,,,,,,,,,,,
,,,,,WIN24_057,21,Male,2024-02-13_12h43.57.108,jersey_experiment_5,2023.2.2,Win32,84.74576271,,,,,,,,,,,,,,,,340.886,342.1903,342.1903,343.2692,return,0.2121,,35.67708333,,,,,,FBP-OG-19.png,0.35,1.2,11,0.5,0,34,34,10,1,,,,,,,,,,,,,,,,,,,,,,,,,,,,,,,,,,,,,,,,
,,,,,WIN24_057,21,Male,2024-02-13_12h43.57.108,jersey_experiment_5,2023.2.2,Win32,84.74576271,,,,,,,,,,,,,,,,343.2694,345.0611,345.0612,346.6612,return,0.1418,,62.63020833,,,,,,FBP-RB-91.png,0.4,1.2,28,1,0,35,35,27,1,,,,,,,,,,,,,,,,,,,,,,,,,,,,,,,,,,,,,,,,
,,,,,WIN24_057,21,Male,2024-02-13_12h43.57.108,jersey_experiment_5,2023.2.2,Win32,84.74576271,,,,,,,,,,,,,,,,346.6613,347.9683,347.9684,348.8156,return,0.0368,,41.27604167,,,,,,FBP-PT-91.png,0.35,1.2,56,0.5,0,36,36,55,1,,,,,,,,,,,,,,,,,,,,,,,,,,,,,,,,,,,,,,,,
,,,,,WIN24_057,21,Male,2024-02-13_12h43.57.108,jersey_experiment_5,2023.2.2,Win32,84.74576271,,,,,,,,,,,,,,,,348.8157,350.1199,350.1199,351.0929,return,0.0958,,50,,,,,,FBP-PT-81.png,0.37,1.2,52,0.5,0,37,37,51,1,,,,,,,,,,,,,,,,,,,,,,,,,,,,,,,,,,,,,,,,
,,,,,WIN24_057,21,Male,2024-02-13_12h43.57.108,jersey_experiment_5,2023.2.2,Win32,84.74576271,,,,,,,,,,,,,,,,351.0931,352.387,352.3871,353.3438,return,0.2124,,57.16145833,,,,,,FBP-PT-71.png,0.4,1.2,48,0.5,0,38,38,47,1,,,,,,,,,,,,,,,,,,,,,,,,,,,,,,,,,,,,,,,,
,,,,,WIN24_057,21,Male,2024-02-13_12h43.57.108,jersey_experiment_5,2023.2.2,Win32,84.74576271,,,,,,,,,,,,,,,,353.344,354.6509,354.6509,356.1333,return,0.8838,,69.79166667,,,,,,FBP-PT-81.png,0.43,1.2,54,0.5,0,39,39,53,1,,,,,,,,,,,,,,,,,,,,,,,,,,,,,,,,,,,,,,,,
,,,,,WIN24_057,21,Male,2024-02-13_12h43.57.108,jersey_experiment_5,2023.2.2,Win32,84.74576271,,,,,,,,,,,,,,,,356.1335,357.4378,357.4379,358.4697,return,0.2016,,58.984375,,,,,,FBP-PT-71.png,0.37,1.2,47,0.5,0,40,40,46,1,,,,,,,,,,,,,,,,,,,,,,,,,,,,,,,,,,,,,,,,
,,,,,WIN24_057,21,Male,2024-02-13_12h43.57.108,jersey_experiment_5,2023.2.2,Win32,84.74576271,,,,,,,,,,,,,,,,358.4698,360.2615,360.2615,361.1992,return,0.1468,,97.265625,,,,,,FBP-RB-81.png,0.45,1.2,25,1,0,41,41,24,1,,,,,,,,,,,,,,,,,,,,,,,,,,,,,,,,,,,,,,,,
,,,,,WIN24_057,21,Male,2024-02-13_12h43.57.108,jersey_experiment_5,2023.2.2,Win32,84.74576271,,,,,,,,,,,,,,,,361.1995,362.4969,362.497,363.4935,return,0.1766,,80.078125,,,,,,FBP-PT-81.png,0.45,1.2,55,0.5,0,42,42,54,1,,,,,,,,,,,,,,,,,,,,,,,,,,,,,,,,,,,,,,,,
,,,,,WIN24_057,21,Male,2024-02-13_12h43.57.108,jersey_experiment_5,2023.2.2,Win32,84.74576271,,,,,,,,,,,,,,,,363.4937,364.7876,364.7876,366.6145,return,0.6459,,66.796875,,,,,,FBP-OG-17.png,0.43,1.2,4,0.5,0,43,43,3,1,,,,,,,,,,,,,,,,,,,,,,,,,,,,,,,,,,,,,,,,
,,,,,WIN24_057,21,Male,2024-02-13_12h43.57.108,jersey_experiment_5,2023.2.2,Win32,84.74576271,,,,,,,,,,,,,,,,366.6146,368.416,368.4161,369.1798,return,0.1183,,91.66666667,,,,,,FBP-RB-81.png,0.43,1.2,24,1,0,44,44,23,1,,,,,,,,,,,,,,,,,,,,,,,,,,,,,,,,,,,,,,,,
,,,,,WIN24_057,21,Male,2024-02-13_12h43.57.108,jersey_experiment_5,2023.2.2,Win32,84.74576271,,,,,,,,,,,,,,,,369.1799,370.9759,370.976,372.3796,return,0.5755,,88.80208333,,,,,,FBP-RB-71.png,0.43,1.2,19,1,0,45,45,18,1,,,,,,,,,,,,,,,,,,,,,,,,,,,,,,,,,,,,,,,,
,,,,,WIN24_057,21,Male,2024-02-13_12h43.57.108,jersey_experiment_5,2023.2.2,Win32,84.74576271,,,,,,,,,,,,,,,,372.3798,373.6868,373.6868,375.4388,return,0.7773,,74.86979167,,,,,,FBP-OG-18.png,0.4,1.2,8,0.5,0,46,46,7,1,,,,,,,,,,,,,,,,,,,,,,,,,,,,,,,,,,,,,,,,
,,,,,WIN24_057,21,Male,2024-02-13_12h43.57.108,jersey_experiment_5,2023.2.2,Win32,84.74576271,,,,,,,,,,,,,,,,375.439,377.24,377.24,379.1881,return,0.2374,,99.86979167,,,,,,FBP-YG-19.png,0.45,1.2,45,1,0,47,47,44,1,,,,,,,,,,,,,,,,,,,,,,,,,,,,,,,,,,,,,,,,
,,,,,WIN24_057,21,Male,2024-02-13_12h43.57.108,jersey_experiment_5,2023.2.2,Win32,84.74576271,,,,,,,,,,,,,,,,379.1883,380.9815,380.9815,381.8622,return,0.1989,,38.41145833,,,,,,FBP-YG-18.png,0.37,1.2,37,1,0,48,48,36,1,,,,,,,,,,,,,,,,,,,,,,,,,,,,,,,,,,,,,,,,
,,,,,WIN24_057,21,Male,2024-02-13_12h43.57.108,jersey_experiment_5,2023.2.2,Win32,84.74576271,,,,,,,,,,,,,,,,381.8623,383.1561,383.1561,384.2387,return,0.0471,,28.90625,,,,,,FBP-OG-18.png,0.37,1.2,7,0.5,0,49,49,6,1,,,,,,,,,,,,,,,,,,,,,,,,,,,,,,,,,,,,,,,,
,,,,,WIN24_057,21,Male,2024-02-13_12h43.57.108,jersey_experiment_5,2023.2.2,Win32,84.74576271,,,,,,,,,,,,,,,,384.2388,386.0403,386.0403,386.7803,return,0.2119,,21.74479167,,,,,,FBP-RB-71.png,0.35,1.2,16,1,0,50,50,15,1,,,,,,,,,,,,,,,,,,,,,,,,,,,,,,,,,,,,,,,,
,,,,,WIN24_057,21,Male,2024-02-13_12h43.57.108,jersey_experiment_5,2023.2.2,Win32,84.74576271,,,,,,,,,,,,,,,,386.7804,388.5815,388.5815,390.1346,return,0.5779,,50.390625,,,,,,FBP-RB-71.png,0.37,1.2,17,1,0,51,51,16,1,,,,,,,,,,,,,,,,,,,,,,,,,,,,,,,,,,,,,,,,
,,,,,WIN24_057,21,Male,2024-02-13_12h43.57.108,jersey_experiment_5,2023.2.2,Win32,84.74576271,,,,,,,,,,,,,,,,390.1347,391.4355,391.4355,392.4508,return,0.3401,,42.83854167,,,,,,FBP-PT-81.png,0.35,1.2,51,0.5,0,52,52,50,1,,,,,,,,,,,,,,,,,,,,,,,,,,,,,,,,,,,,,,,,
,,,,,WIN24_057,21,Male,2024-02-13_12h43.57.108,jersey_experiment_5,2023.2.2,Win32,84.74576271,,,,,,,,,,,,,,,,392.4509,393.7578,393.7578,395.3298,return,0.169,,60.15625,,,,,,FBP-OG-17.png,0.45,1.2,5,0.5,0,53,53,4,1,,,,,,,,,,,,,,,,,,,,,,,,,,,,,,,,,,,,,,,,
,,,,,WIN24_057,21,Male,2024-02-13_12h43.57.108,jersey_experiment_5,2023.2.2,Win32,84.74576271,,,,,,,,,,,,,,,,395.33,397.1337,397.1337,398.2241,return,0.3593,,78.25520833,,,,,,FBP-YG-19.png,0.43,1.2,44,1,0,54,54,43,1,,,,,,,,,,,,,,,,,,,,,,,,,,,,,,,,,,,,,,,,
,,,,,WIN24_057,21,Male,2024-02-13_12h43.57.108,jersey_experiment_5,2023.2.2,Win32,84.74576271,,,,,,,,,,,,,,,,398.2243,399.5228,399.5228,400.8174,return,0.5548,,90.625,,,,,,FBP-OG-18.png,0.45,1.2,10,0.5,0,55,55,9,1,,,,,,,,,,,,,,,,,,,,,,,,,,,,,,,,,,,,,,,,
,,,,,WIN24_057,21,Male,2024-02-13_12h43.57.108,jersey_experiment_5,2023.2.2,Win32,84.74576271,,,,,,,,,,,,,,,,400.8176,402.1114,402.1115,403.989,return,0.1059,,54.81770833,,,,,,FBP-OG-17.png,0.35,1.2,1,0.5,0,56,56,0,1,,,,,,,,,,,,,,,,,,,,,,,,,,,,,,,,,,,,,,,,
,,,,,WIN24_057,21,Male,2024-02-13_12h43.57.108,jersey_experiment_5,2023.2.2,Win32,84.74576271,,,,,,,,,,,,,,,,403.9893,405.7822,405.7823,406.5587,return,0.2018,,31.77083333,,,,,,FBP-RB-91.png,0.35,1.2,26,1,0,57,57,25,1,,,,,,,,,,,,,,,,,,,,,,,,,,,,,,,,,,,,,,,,
,,,,,WIN24_057,21,Male,2024-02-13_12h43.57.108,jersey_experiment_5,2023.2.2,Win32,84.74576271,,,,,,,,,,,,,,,,406.5589,407.8631,407.8631,409.1185,return,0.1125,,81.90104167,,,,,,FBP-PT-71.png,0.45,1.2,50,0.5,0,58,58,49,1,,,,,,,,,,,,,,,,,,,,,,,,,,,,,,,,,,,,,,,,
,,,,,WIN24_057,21,Male,2024-02-13_12h43.57.108,jersey_experiment_5,2023.2.2,Win32,84.74576271,,,,,,,,,,,,,,,,409.1187,410.4127,410.4127,411.5068,return,0.2141,,22.39583333,,,,,,FBP-OG-18.png,0.35,1.2,6,0.5,0,59,59,5,1,,,,,,,,,,,,,,,,,,,,,,,,,,,,,,,,,,,,,,,,
,,,,,WIN24_057,21,Male,2024-02-13_12h43.57.108,jersey_experiment_5,2023.2.2,Win32,84.74576271,,,,,,,,,,,,,,,,,,,,,,,,,,,,,,,,,,,,,,,411.5073,531.515,,,,,,,,,,,,,,,,,,,,,,,,,,,,,,,,,,,,,,
,,,,,WIN24_057,21,Male,2024-02-13_12h43.57.108,jersey_experiment_5,2023.2.2,Win32,84.74576271,,,,,,,,,,,,,,,,,,,,,,,,,,,,,,,,,,,,,,,,,531.5151,542.3944,return,10.8576,,,,,,,,,,,,,,,,,,,,,,,,,,,,,,,,,,
,,,,,WIN24_057,21,Male,2024-02-13_12h43.57.108,jersey_experiment_5,2023.2.2,Win32,84.74576271,,,,,,,,,,,,,,,,542.4007,543.7034,543.7034,547.7876,return,0.3193,,38.80208333,,,,,,FBP-RB-17.png,0.35,1.2,16,0.5,,,,,,,,,,,,,0,0,0,15,1,,,,,,,,,,,,,,,,,,,,,,,,,,,,
,,,,,WIN24_057,21,Male,2024-02-13_12h43.57.108,jersey_experiment_5,2023.2.2,Win32,84.74576271,,,,,,,,,,,,,,,,547.7879,549.0814,549.0815,549.9861,return,0.1177,,79.6875,,,,,,FBP-YG-71.png,0.45,1.2,35,0.5,,,,,,,,,,,,,0,1,1,34,1,,,,,,,,,,,,,,,,,,,,,,,,,,,,
,,,,,WIN24_057,21,Male,2024-02-13_12h43.57.108,jersey_experiment_5,2023.2.2,Win32,84.74576271,,,,,,,,,,,,,,,,549.9862,551.7826,551.7826,552.2452,return,0.1051,,76.04166667,,,,,,FBP-PT-18.png,0.45,1.2,55,1,,,,,,,,,,,,,0,2,2,54,1,,,,,,,,,,,,,,,,,,,,,,,,,,,,
,,,,,WIN24_057,21,Male,2024-02-13_12h43.57.108,jersey_experiment_5,2023.2.2,Win32,84.74576271,,,,,,,,,,,,,,,,552.2453,553.5524,553.5524,554.3288,return,0.0599,,55.078125,,,,,,FBP-RB-19.png,0.4,1.2,28,0.5,,,,,,,,,,,,,0,3,3,27,1,,,,,,,,,,,,,,,,,,,,,,,,,,,,
,,,,,WIN24_057,21,Male,2024-02-13_12h43.57.108,jersey_experiment_5,2023.2.2,Win32,84.74576271,,,,,,,,,,,,,,,,554.3289,555.6229,555.6229,556.2651,return,0.0715,,40.88541667,,,,,,FBP-RB-17.png,0.37,1.2,17,0.5,,,,,,,,,,,,,0,4,4,16,1,,,,,,,,,,,,,,,,,,,,,,,,,,,,
,,,,,WIN24_057,21,Male,2024-02-13_12h43.57.108,jersey_experiment_5,2023.2.2,Win32,84.74576271,,,,,,,,,,,,,,,,556.2653,558.0653,558.0653,558.6588,return,0.0712,,73.30729167,,,,,,FBP-OG-71.png,0.43,1.2,4,1,,,,,,,,,,,,,0,5,5,3,1,,,,,,,,,,,,,,,,,,,,,,,,,,,,
,,,,,WIN24_057,21,Male,2024-02-13_12h43.57.108,jersey_experiment_5,2023.2.2,Win32,84.74576271,,,,,,,,,,,,,,,,558.6589,559.9527,559.9527,560.8333,return,0.1644,,40.625,,,,,,FBP-YG-81.png,0.35,1.2,36,0.5,,,,,,,,,,,,,0,6,6,35,1,,,,,,,,,,,,,,,,,,,,,,,,,,,,
,,,,,WIN24_057,21,Male,2024-02-13_12h43.57.108,jersey_experiment_5,2023.2.2,Win32,84.74576271,,,,,,,,,,,,,,,,560.8334,562.63,562.6301,563.1056,return,0.0945,,33.984375,,,,,,FBP-OG-71.png,0.35,1.2,1,1,,,,,,,,,,,,,0,7,7,0,1,,,,,,,,,,,,,,,,,,,,,,,,,,,,
,,,,,WIN24_057,21,Male,2024-02-13_12h43.57.108,jersey_experiment_5,2023.2.2,Win32,84.74576271,,,,,,,,,,,,,,,,563.1058,564.9007,564.9007,565.3511,return,0.0575,,42.70833333,,,,,,FBP-OG-91.png,0.35,1.2,11,1,,,,,,,,,,,,,0,8,8,10,1,,,,,,,,,,,,,,,,,,,,,,,,,,,,
,,,,,WIN24_057,21,Male,2024-02-13_12h43.57.108,jersey_experiment_5,2023.2.2,Win32,84.74576271,,,,,,,,,,,,,,,,565.3513,566.6451,566.6452,568,return,0.165,,90.10416667,,,,,,FBP-YG-81.png,0.43,1.2,39,0.5,,,,,,,,,,,,,0,9,9,38,1,,,,,,,,,,,,,,,,,,,,,,,,,,,,
,,,,,WIN24_057,21,Male,2024-02-13_12h43.57.108,jersey_experiment_5,2023.2.2,Win32,84.74576271,,,,,,,,,,,,,,,,568.0002,569.7983,569.7984,570.3635,return,0.0815,,73.828125,,,,,,FBP-OG-91.png,0.37,1.2,12,1,,,,,,,,,,,,,0,10,10,11,1,,,,,,,,,,,,,,,,,,,,,,,,,,,,
,,,,,WIN24_057,21,Male,2024-02-13_12h43.57.108,jersey_experiment_5,2023.2.2,Win32,84.74576271,,,,,,,,,,,,,,,,570.3637,571.657,571.6571,572.447,return,0.0708,,71.875,,,,,,FBP-RB-18.png,0.35,1.2,21,0.5,,,,,,,,,,,,,0,11,11,20,1,,,,,,,,,,,,,,,,,,,,,,,,,,,,
,,,,,WIN24_057,21,Male,2024-02-13_12h43.57.108,jersey_experiment_5,2023.2.2,Win32,84.74576271,,,,,,,,,,,,,,,,572.4471,573.7412,573.7412,574.9751,return,0.1281,,53.64583333,,,,,,FBP-YG-91.png,0.37,1.2,42,0.5,,,,,,,,,,,,,0,12,12,41,1,,,,,,,,,,,,,,,,,,,,,,,,,,,,
,,,,,WIN24_057,21,Male,2024-02-13_12h43.57.108,jersey_experiment_5,2023.2.2,Win32,84.74576271,,,,,,,,,,,,,,,,574.9752,576.7717,576.7717,577.2659,return,0.0516,,89.32291667,,,,,,FBP-PT-17.png,0.45,1.2,50,1,,,,,,,,,,,,,0,13,13,49,1,,,,,,,,,,,,,,,,,,,,,,,,,,,,
,,,,,WIN24_057,21,Male,2024-02-13_12h43.57.108,jersey_experiment_5,2023.2.2,Win32,84.74576271,,,,,,,,,,,,,,,,577.2661,578.5649,578.565,579.365,return,0.037,,95.44270833,,,,,,FBP-YG-91.png,0.45,1.2,45,0.5,,,,,,,,,,,,,0,14,14,44,1,,,,,,,,,,,,,,,,,,,,,,,,,,,,
,,,,,WIN24_057,21,Male,2024-02-13_12h43.57.108,jersey_experiment_5,2023.2.2,Win32,84.74576271,,,,,,,,,,,,,,,,579.3652,580.659,580.6591,581.5871,return,0.0816,,91.796875,,,,,,FBP-YG-81.png,0.45,1.2,40,0.5,,,,,,,,,,,,,0,15,15,39,1,,,,,,,,,,,,,,,,,,,,,,,,,,,,
,,,,,WIN24_057,21,Male,2024-02-13_12h43.57.108,jersey_experiment_5,2023.2.2,Win32,84.74576271,,,,,,,,,,,,,,,,581.5872,582.8945,582.8945,583.7484,return,0.0016,,88.80208333,,,,,,FBP-YG-71.png,0.43,1.2,34,0.5,,,,,,,,,,,,,0,16,16,33,1,,,,,,,,,,,,,,,,,,,,,,,,,,,,
,,,,,WIN24_057,21,Male,2024-02-13_12h43.57.108,jersey_experiment_5,2023.2.2,Win32,84.74576271,,,,,,,,,,,,,,,,583.7486,585.0426,585.0427,585.8361,return,0.0607,,88.15104167,,,,,,FBP-RB-18.png,0.45,1.2,25,0.5,,,,,,,,,,,,,0,17,17,24,1,,,,,,,,,,,,,,,,,,,,,,,,,,,,
,,,,,WIN24_057,21,Male,2024-02-13_12h43.57.108,jersey_experiment_5,2023.2.2,Win32,84.74576271,,,,,,,,,,,,,,,,585.8362,587.1302,587.1302,587.8898,return,0.0871,,61.328125,,,,,,FBP-YG-91.png,0.35,1.2,41,0.5,,,,,,,,,,,,,0,18,18,40,1,,,,,,,,,,,,,,,,,,,,,,,,,,,,
,,,,,WIN24_057,21,Male,2024-02-13_12h43.57.108,jersey_experiment_5,2023.2.2,Win32,84.74576271,,,,,,,,,,,,,,,,587.89,589.1875,589.1875,589.8544,return,0.1726,,38.28125,,,,,,FBP-YG-91.png,0.4,1.2,43,0.5,,,,,,,,,,,,,0,19,19,42,1,,,,,,,,,,,,,,,,,,,,,,,,,,,,
,,,,,WIN24_057,21,Male,2024-02-13_12h43.57.108,jersey_experiment_5,2023.2.2,Win32,84.74576271,,,,,,,,,,,,,,,,589.8546,591.1534,591.1534,591.9135,return,0.0239,,58.984375,,,,,,FBP-RB-18.png,0.4,1.2,23,0.5,,,,,,,,,,,,,0,20,20,22,1,,,,,,,,,,,,,,,,,,,,,,,,,,,,
,,,,,WIN24_057,21,Male,2024-02-13_12h43.57.108,jersey_experiment_5,2023.2.2,Win32,84.74576271,,,,,,,,,,,,,,,,591.9138,593.2109,593.2109,594.2127,return,0.1181,,82.8125,,,,,,FBP-RB-17.png,0.45,1.2,20,0.5,,,,,,,,,,,,,0,21,21,19,1,,,,,,,,,,,,,,,,,,,,,,,,,,,,
,,,,,WIN24_057,21,Male,2024-02-13_12h43.57.108,jersey_experiment_5,2023.2.2,Win32,84.74576271,,,,,,,,,,,,,,,,594.2128,595.5067,595.5067,596.4949,return,0.0603,,26.04166667,,,,,,FBP-RB-19.png,0.37,1.2,27,0.5,,,,,,,,,,,,,0,22,22,26,1,,,,,,,,,,,,,,,,,,,,,,,,,,,,
,,,,,WIN24_057,21,Male,2024-02-13_12h43.57.108,jersey_experiment_5,2023.2.2,Win32,84.74576271,,,,,,,,,,,,,,,,596.4951,598.2939,598.2939,599.1411,return,0.2934,,74.609375,,,,,,FBP-OG-71.png,0.45,1.2,5,1,,,,,,,,,,,,,0,23,23,4,1,,,,,,,,,,,,,,,,,,,,,,,,,,,,
,,,,,WIN24_057,21,Male,2024-02-13_12h43.57.108,jersey_experiment_5,2023.2.2,Win32,84.74576271,,,,,,,,,,,,,,,,599.1412,600.9374,600.9375,601.5541,return,0.0004,,25.13020833,,,,,,FBP-OG-81.png,0.35,1.2,6,1,,,,,,,,,,,,,0,24,24,5,1,,,,,,,,,,,,,,,,,,,,,,,,,,,,
,,,,,WIN24_057,21,Male,2024-02-13_12h43.57.108,jersey_experiment_5,2023.2.2,Win32,84.74576271,,,,,,,,,,,,,,,,601.5542,603.3492,603.3492,603.9846,return,0.0754,,22.91666667,,,,,,FBP-OG-71.png,0.37,1.2,2,1,,,,,,,,,,,,,0,25,25,1,1,,,,,,,,,,,,,,,,,,,,,,,,,,,,
,,,,,WIN24_057,21,Male,2024-02-13_12h43.57.108,jersey_experiment_5,2023.2.2,Win32,84.74576271,,,,,,,,,,,,,,,,603.9848,605.7762,605.7763,606.3727,return,0.0122,,53.64583333,,,,,,FBP-PT-19.png,0.43,1.2,59,1,,,,,,,,,,,,,0,26,26,58,1,,,,,,,,,,,,,,,,,,,,,,,,,,,,
,,,,,WIN24_057,21,Male,2024-02-13_12h43.57.108,jersey_experiment_5,2023.2.2,Win32,84.74576271,,,,,,,,,,,,,,,,606.373,607.6719,607.672,608.9763,return,0.0341,,9.765625,,,,,,FBP-RB-19.png,0.35,1.2,26,0.5,,,,,,,,,,,,,0,27,27,25,1,,,,,,,,,,,,,,,,,,,,,,,,,,,,
,,,,,WIN24_057,21,Male,2024-02-13_12h43.57.108,jersey_experiment_5,2023.2.2,Win32,84.74576271,,,,,,,,,,,,,,,,608.9765,610.283,610.283,611.1783,return,0.0005,,8.333333333,,,,,,FBP-YG-81.png,0.37,1.2,37,0.5,,,,,,,,,,,,,0,28,28,36,1,,,,,,,,,,,,,,,,,,,,,,,,,,,,
,,,,,WIN24_057,21,Male,2024-02-13_12h43.57.108,jersey_experiment_5,2023.2.2,Win32,84.74576271,,,,,,,,,,,,,,,,611.1785,612.9765,612.9766,613.3612,return,0.0524,,13.80208333,,,,,,FBP-OG-81.png,0.37,1.2,7,1,,,,,,,,,,,,,0,29,29,6,1,,,,,,,,,,,,,,,,,,,,,,,,,,,,
,,,,,WIN24_057,21,Male,2024-02-13_12h43.57.108,jersey_experiment_5,2023.2.2,Win32,84.74576271,,,,,,,,,,,,,,,,613.3615,615.1548,615.1548,617.0942,return,1.3516,,34.63541667,,,,,,FBP-PT-18.png,0.37,1.2,52,1,,,,,,,,,,,,,0,30,30,51,1,,,,,,,,,,,,,,,,,,,,,,,,,,,,
,,,,,WIN24_057,21,Male,2024-02-13_12h43.57.108,jersey_experiment_5,2023.2.2,Win32,84.74576271,,,,,,,,,,,,,,,,617.0944,618.8909,618.8909,620.3414,return,0.0473,,68.75,,,,,,FBP-PT-17.png,0.43,1.2,49,1,,,,,,,,,,,,,0,31,31,48,1,,,,,,,,,,,,,,,,,,,,,,,,,,,,
,,,,,WIN24_057,21,Male,2024-02-13_12h43.57.108,jersey_experiment_5,2023.2.2,Win32,84.74576271,,,,,,,,,,,,,,,,620.3415,622.138,622.138,622.8254,return,0.118,,61.58854167,,,,,,FBP-OG-91.png,0.4,1.2,13,1,,,,,,,,,,,,,0,32,32,12,1,,,,,,,,,,,,,,,,,,,,,,,,,,,,
,,,,,WIN24_057,21,Male,2024-02-13_12h43.57.108,jersey_experiment_5,2023.2.2,Win32,84.74576271,,,,,,,,,,,,,,,,622.8257,624.6239,624.6239,625.7667,return,0.7298,,34.63541667,,,,,,FBP-PT-19.png,0.37,1.2,57,1,,,,,,,,,,,,,0,33,33,56,1,,,,,,,,,,,,,,,,,,,,,,,,,,,,
,,,,,WIN24_057,21,Male,2024-02-13_12h43.57.108,jersey_experiment_5,2023.2.2,Win32,84.74576271,,,,,,,,,,,,,,,,625.767,627.5619,627.5619,628.1067,return,0.024,,74.73958333,,,,,,FBP-OG-91.png,0.45,1.2,15,1,,,,,,,,,,,,,0,34,34,14,1,,,,,,,,,,,,,,,,,,,,,,,,,,,,
,,,,,WIN24_057,21,Male,2024-02-13_12h43.57.108,jersey_experiment_5,2023.2.2,Win32,84.74576271,,,,,,,,,,,,,,,,628.1068,629.9031,629.9031,630.4795,return,0.0055,,49.73958333,,,,,,FBP-PT-19.png,0.4,1.2,58,1,,,,,,,,,,,,,0,35,35,57,1,,,,,,,,,,,,,,,,,,,,,,,,,,,,
,,,,,WIN24_057,21,Male,2024-02-13_12h43.57.108,jersey_experiment_5,2023.2.2,Win32,84.74576271,,,,,,,,,,,,,,,,630.4797,632.2713,632.2713,632.6561,return,0.0533,,74.609375,,,,,,FBP-PT-19.png,0.45,1.2,60,1,,,,,,,,,,,,,0,36,36,59,1,,,,,,,,,,,,,,,,,,,,,,,,,,,,
,,,,,WIN24_057,21,Male,2024-02-13_12h43.57.108,jersey_experiment_5,2023.2.2,Win32,84.74576271,,,,,,,,,,,,,,,,632.6563,634.4494,634.4494,635.0244,return,0.0341,,72.52604167,,,,,,FBP-OG-81.png,0.43,1.2,9,1,,,,,,,,,,,,,0,37,37,8,1,,,,,,,,,,,,,,,,,,,,,,,,,,,,
,,,,,WIN24_057,21,Male,2024-02-13_12h43.57.108,jersey_experiment_5,2023.2.2,Win32,84.74576271,,,,,,,,,,,,,,,,635.0246,636.8259,636.8259,637.5503,return,0.008,,67.1875,,,,,,FBP-OG-91.png,0.43,1.2,14,1,,,,,,,,,,,,,0,38,38,13,1,,,,,,,,,,,,,,,,,,,,,,,,,,,,
,,,,,WIN24_057,21,Male,2024-02-13_12h43.57.108,jersey_experiment_5,2023.2.2,Win32,84.74576271,,,,,,,,,,,,,,,,637.5505,639.3534,639.3535,639.6834,return,0.1519,,27.60416667,,,,,,FBP-PT-19.png,0.35,1.2,56,1,,,,,,,,,,,,,0,39,39,55,1,,,,,,,,,,,,,,,,,,,,,,,,,,,,
,,,,,WIN24_057,21,Male,2024-02-13_12h43.57.108,jersey_experiment_5,2023.2.2,Win32,84.74576271,,,,,,,,,,,,,,,,639.6836,640.9776,640.9776,642.0363,return,0.4703,,74.609375,,,,,,FBP-YG-81.png,0.4,1.2,38,0.5,,,,,,,,,,,,,0,40,40,37,1,,,,,,,,,,,,,,,,,,,,,,,,,,,,
,,,,,WIN24_057,21,Male,2024-02-13_12h43.57.108,jersey_experiment_5,2023.2.2,Win32,84.74576271,,,,,,,,,,,,,,,,642.0364,643.3435,643.3436,645.1742,return,0.4343,,50.26041667,,,,,,FBP-RB-17.png,0.4,1.2,18,0.5,,,,,,,,,,,,,0,41,41,17,1,,,,,,,,,,,,,,,,,,,,,,,,,,,,
,,,,,WIN24_057,21,Male,2024-02-13_12h43.57.108,jersey_experiment_5,2023.2.2,Win32,84.74576271,,,,,,,,,,,,,,,,645.1743,646.9747,646.9747,647.4574,return,0.1417,,32.29166667,,,,,,FBP-PT-18.png,0.35,1.2,51,1,,,,,,,,,,,,,0,42,42,50,1,,,,,,,,,,,,,,,,,,,,,,,,,,,,
,,,,,WIN24_057,21,Male,2024-02-13_12h43.57.108,jersey_experiment_5,2023.2.2,Win32,84.74576271,,,,,,,,,,,,,,,,647.4576,649.2614,649.2614,649.8127,return,0.0233,,70.57291667,,,,,,FBP-PT-18.png,0.4,1.2,53,1,,,,,,,,,,,,,0,43,43,52,1,,,,,,,,,,,,,,,,,,,,,,,,,,,,
,,,,,WIN24_057,21,Male,2024-02-13_12h43.57.108,jersey_experiment_5,2023.2.2,Win32,84.74576271,,,,,,,,,,,,,,,,649.8129,651.6144,651.6144,652.3863,return,0.1798,,86.328125,,,,,,FBP-OG-81.png,0.45,1.2,10,1,,,,,,,,,,,,,0,44,44,9,1,,,,,,,,,,,,,,,,,,,,,,,,,,,,
,,,,,WIN24_057,21,Male,2024-02-13_12h43.57.108,jersey_experiment_5,2023.2.2,Win32,84.74576271,,,,,,,,,,,,,,,,652.3864,653.6805,653.6805,654.8332,return,0.0389,,72.91666667,,,,,,FBP-RB-17.png,0.43,1.2,19,0.5,,,,,,,,,,,,,0,45,45,18,1,,,,,,,,,,,,,,,,,,,,,,,,,,,,
,,,,,WIN24_057,21,Male,2024-02-13_12h43.57.108,jersey_experiment_5,2023.2.2,Win32,84.74576271,,,,,,,,,,,,,,,,654.8335,656.1277,656.1278,657.7192,return,0.7531,,66.14583333,,,,,,FBP-YG-71.png,0.4,1.2,33,0.5,,,,,,,,,,,,,0,46,46,32,1,,,,,,,,,,,,,,,,,,,,,,,,,,,,
,,,,,WIN24_057,21,Male,2024-02-13_12h43.57.108,jersey_experiment_5,2023.2.2,Win32,84.74576271,,,,,,,,,,,,,,,,657.7194,659.0135,659.0135,659.7195,return,0.0234,,33.46354167,,,,,,FBP-YG-71.png,0.37,1.2,32,0.5,,,,,,,,,,,,,0,47,47,31,1,,,,,,,,,,,,,,,,,,,,,,,,,,,,
,,,,,WIN24_057,21,Male,2024-02-13_12h43.57.108,jersey_experiment_5,2023.2.2,Win32,84.74576271,,,,,,,,,,,,,,,,659.7196,661.0269,661.0269,661.8748,return,0.0235,,33.85416667,,,,,,FBP-YG-71.png,0.35,1.2,31,0.5,,,,,,,,,,,,,0,48,48,30,1,,,,,,,,,,,,,,,,,,,,,,,,,,,,
,,,,,WIN24_057,21,Male,2024-02-13_12h43.57.108,jersey_experiment_5,2023.2.2,Win32,84.74576271,,,,,,,,,,,,,,,,661.875,663.6729,663.6729,664.6136,return,0.3531,,49.609375,,,,,,FBP-OG-81.png,0.4,1.2,8,1,,,,,,,,,,,,,0,49,49,7,1,,,,,,,,,,,,,,,,,,,,,,,,,,,,
,,,,,WIN24_057,21,Male,2024-02-13_12h43.57.108,jersey_experiment_5,2023.2.2,Win32,84.74576271,,,,,,,,,,,,,,,,664.6138,666.4102,666.4103,666.7681,return,0.0234,,69.01041667,,,,,,FBP-PT-17.png,0.4,1.2,48,1,,,,,,,,,,,,,0,50,50,47,1,,,,,,,,,,,,,,,,,,,,,,,,,,,,
,,,,,WIN24_057,21,Male,2024-02-13_12h43.57.108,jersey_experiment_5,2023.2.2,Win32,84.74576271,,,,,,,,,,,,,,,,666.7683,668.5667,668.5667,669.72,return,0.5181,,35.67708333,,,,,,FBP-OG-71.png,0.4,1.2,3,1,,,,,,,,,,,,,0,51,51,2,1,,,,,,,,,,,,,,,,,,,,,,,,,,,,
,,,,,WIN24_057,21,Male,2024-02-13_12h43.57.108,jersey_experiment_5,2023.2.2,Win32,84.74576271,,,,,,,,,,,,,,,,669.7201,671.5163,671.5163,672.3516,return,0.0055,,80.59895833,,,,,,FBP-PT-18.png,0.43,1.2,54,1,,,,,,,,,,,,,0,52,52,53,1,,,,,,,,,,,,,,,,,,,,,,,,,,,,
,,,,,WIN24_057,21,Male,2024-02-13_12h43.57.108,jersey_experiment_5,2023.2.2,Win32,84.74576271,,,,,,,,,,,,,,,,672.3517,673.6457,673.6457,674.4857,return,0.0004,,82.94270833,,,,,,FBP-RB-18.png,0.43,1.2,24,0.5,,,,,,,,,,,,,0,53,53,23,1,,,,,,,,,,,,,,,,,,,,,,,,,,,,
,,,,,WIN24_057,21,Male,2024-02-13_12h43.57.108,jersey_experiment_5,2023.2.2,Win32,84.74576271,,,,,,,,,,,,,,,,674.4858,676.2851,676.2851,678.2274,return,0.1541,,40.75520833,,,,,,FBP-PT-17.png,0.37,1.2,47,1,,,,,,,,,,,,,0,54,54,46,1,,,,,,,,,,,,,,,,,,,,,,,,,,,,
,,,,,WIN24_057,21,Male,2024-02-13_12h43.57.108,jersey_experiment_5,2023.2.2,Win32,84.74576271,,,,,,,,,,,,,,,,678.2276,680.0263,680.0263,680.3791,return,0.024,,45.44270833,,,,,,FBP-PT-17.png,0.35,1.2,46,1,,,,,,,,,,,,,0,55,55,45,1,,,,,,,,,,,,,,,,,,,,,,,,,,,,
,,,,,WIN24_057,21,Male,2024-02-13_12h43.57.108,jersey_experiment_5,2023.2.2,Win32,84.74576271,,,,,,,,,,,,,,,,680.3793,681.6731,681.6731,682.3755,return,0.0004,,99.34895833,,,,,,FBP-RB-19.png,0.45,1.2,30,0.5,,,,,,,,,,,,,0,56,56,29,1,,,,,,,,,,,,,,,,,,,,,,,,,,,,
,,,,,WIN24_057,21,Male,2024-02-13_12h43.57.108,jersey_experiment_5,2023.2.2,Win32,84.74576271,,,,,,,,,,,,,,,,682.3757,683.67,683.67,684.3454,return,0.0366,,65.75520833,,,,,,FBP-RB-18.png,0.37,1.2,22,0.5,,,,,,,,,,,,,0,57,57,21,1,,,,,,,,,,,,,,,,,,,,,,,,,,,,
,,,,,WIN24_057,21,Male,2024-02-13_12h43.57.108,jersey_experiment_5,2023.2.2,Win32,84.74576271,,,,,,,,,,,,,,,,684.3455,685.6388,685.6388,686.4229,return,0.095,,80.72916667,,,,,,FBP-YG-91.png,0.43,1.2,44,0.5,,,,,,,,,,,,,0,58,58,43,1,,,,,,,,,,,,,,,,,,,,,,,,,,,,
,,,,,WIN24_057,21,Male,2024-02-13_12h43.57.108,jersey_experiment_5,2023.2.2,Win32,84.74576271,,,,,,,,,,,,,,,,686.4231,687.7203,687.7203,688.6149,return,0.283,,80.33854167,,,,,,FBP-RB-19.png,0.43,1.2,29,0.5,,,,,,,,,,,,,0,59,59,28,1,,,,,,,,,,,,,,,,,,,,,,,,,,,,
,,,,,WIN24_057,21,Male,2024-02-13_12h43.57.108,jersey_experiment_5,2023.2.2,Win32,84.74576271,,,,,,,,,,,,,,,,688.6168,689.9091,689.9091,690.769,return,0.06,,89.19270833,,,,,,FBP-RB-81.png,0.45,1.2,25,0.5,,,,,,,,,,,,,,,,,,0,0,0,24,1,,,,,,,,,,,,,,,,,,,,,,,
,,,,,WIN24_057,21,Male,2024-02-13_12h43.57.108,jersey_experiment_5,2023.2.2,Win32,84.74576271,,,,,,,,,,,,,,,,690.7692,692.5641,692.5641,693.3341,return,0.296,,90.49479167,,,,,,FBP-PT-71.png,0.43,1.2,49,1,,,,,,,,,,,,,,,,,,0,1,1,48,1,,,,,,,,,,,,,,,,,,,,,,,
,,,,,WIN24_057,21,Male,2024-02-13_12h43.57.108,jersey_experiment_5,2023.2.2,Win32,84.74576271,,,,,,,,,,,,,,,,693.3342,694.6349,694.6349,695.64,return,0.2489,,61.58854167,,,,,,FBP-YG-17.png,0.4,1.2,33,0.5,,,,,,,,,,,,,,,,,,0,2,2,32,1,,,,,,,,,,,,,,,,,,,,,,,
,,,,,WIN24_057,21,Male,2024-02-13_12h43.57.108,jersey_experiment_5,2023.2.2,Win32,84.74576271,,,,,,,,,,,,,,,,695.6403,697.4382,697.4382,699.2468,return,0.0771,,70.3125,,,,,,FBP-PT-81.png,0.4,1.2,53,1,,,,,,,,,,,,,,,,,,0,3,3,52,1,,,,,,,,,,,,,,,,,,,,,,,
,,,,,WIN24_057,21,Male,2024-02-13_12h43.57.108,jersey_experiment_5,2023.2.2,Win32,84.74576271,,,,,,,,,,,,,,,,699.2469,701.0518,701.0519,701.7292,return,0.0627,,52.99479167,,,,,,FBP-PT-91.png,0.4,1.2,58,1,,,,,,,,,,,,,,,,,,0,4,4,57,1,,,,,,,,,,,,,,,,,,,,,,,
,,,,,WIN24_057,21,Male,2024-02-13_12h43.57.108,jersey_experiment_5,2023.2.2,Win32,84.74576271,,,,,,,,,,,,,,,,701.7293,703.0292,703.0292,703.9093,return,0.0813,,86.97916667,,,,,,FBP-RB-91.png,0.43,1.2,29,0.5,,,,,,,,,,,,,,,,,,0,5,5,28,1,,,,,,,,,,,,,,,,,,,,,,,
,,,,,WIN24_057,21,Male,2024-02-13_12h43.57.108,jersey_experiment_5,2023.2.2,Win32,84.74576271,,,,,,,,,,,,,,,,703.9095,705.2033,705.2033,706.6116,return,0.4959,,68.22916667,,,,,,FBP-YG-17.png,0.37,1.2,32,0.5,,,,,,,,,,,,,,,,,,0,6,6,31,1,,,,,,,,,,,,,,,,,,,,,,,
,,,,,WIN24_057,21,Male,2024-02-13_12h43.57.108,jersey_experiment_5,2023.2.2,Win32,84.74576271,,,,,,,,,,,,,,,,706.6118,707.9059,707.9059,708.6587,return,0.0497,,86.06770833,,,,,,FBP-RB-71.png,0.43,1.2,19,0.5,,,,,,,,,,,,,,,,,,0,7,7,18,1,,,,,,,,,,,,,,,,,,,,,,,
,,,,,WIN24_057,21,Male,2024-02-13_12h43.57.108,jersey_experiment_5,2023.2.2,Win32,84.74576271,,,,,,,,,,,,,,,,708.6589,709.9571,709.9571,710.9177,return,0.0598,,96.875,,,,,,FBP-YG-17.png,0.45,1.2,35,0.5,,,,,,,,,,,,,,,,,,0,8,8,34,1,,,,,,,,,,,,,,,,,,,,,,,
,,,,,WIN24_057,21,Male,2024-02-13_12h43.57.108,jersey_experiment_5,2023.2.2,Win32,84.74576271,,,,,,,,,,,,,,,,710.9179,712.2121,712.2121,712.8825,return,0.0381,,78.515625,,,,,,FBP-RB-71.png,0.37,1.2,17,0.5,,,,,,,,,,,,,,,,,,0,9,9,16,1,,,,,,,,,,,,,,,,,,,,,,,
,,,,,WIN24_057,21,Male,2024-02-13_12h43.57.108,jersey_experiment_5,2023.2.2,Win32,84.74576271,,,,,,,,,,,,,,,,712.8827,714.6757,714.6757,715.194,return,0.1417,,33.46354167,,,,,,FBP-OG-19.png,0.35,1.2,11,1,,,,,,,,,,,,,,,,,,0,10,10,10,1,,,,,,,,,,,,,,,,,,,,,,,
,,,,,WIN24_057,21,Male,2024-02-13_12h43.57.108,jersey_experiment_5,2023.2.2,Win32,84.74576271,,,,,,,,,,,,,,,,715.1941,716.4944,716.4944,717.2406,return,0.0004,,36.58854167,,,,,,FBP-YG-19.png,0.37,1.2,42,0.5,,,,,,,,,,,,,,,,,,0,11,11,41,1,,,,,,,,,,,,,,,,,,,,,,,
,,,,,WIN24_057,21,Male,2024-02-13_12h43.57.108,jersey_experiment_5,2023.2.2,Win32,84.74576271,,,,,,,,,,,,,,,,717.2408,718.5415,718.5415,719.5232,return,0.0472,,71.875,,,,,,FBP-RB-91.png,0.45,1.2,30,0.5,,,,,,,,,,,,,,,,,,0,12,12,29,1,,,,,,,,,,,,,,,,,,,,,,,
,,,,,WIN24_057,21,Male,2024-02-13_12h43.57.108,jersey_experiment_5,2023.2.2,Win32,84.74576271,,,,,,,,,,,,,,,,719.5233,720.8171,720.8172,722.1654,return,0.1177,,45.3125,,,,,,FBP-RB-91.png,0.37,1.2,27,0.5,,,,,,,,,,,,,,,,,,0,13,13,26,1,,,,,,,,,,,,,,,,,,,,,,,
,,,,,WIN24_057,21,Male,2024-02-13_12h43.57.108,jersey_experiment_5,2023.2.2,Win32,84.74576271,,,,,,,,,,,,,,,,722.1655,723.9569,723.9569,725.2884,return,0.0843,,49.609375,,,,,,FBP-OG-17.png,0.4,1.2,3,1,,,,,,,,,,,,,,,,,,0,14,14,2,1,,,,,,,,,,,,,,,,,,,,,,,
,,,,,WIN24_057,21,Male,2024-02-13_12h43.57.108,jersey_experiment_5,2023.2.2,Win32,84.74576271,,,,,,,,,,,,,,,,725.2885,726.5825,726.5825,727.5,return,0.0369,,56.25,,,,,,FBP-YG-19.png,0.4,1.2,43,0.5,,,,,,,,,,,,,,,,,,0,15,15,42,1,,,,,,,,,,,,,,,,,,,,,,,
,,,,,WIN24_057,21,Male,2024-02-13_12h43.57.108,jersey_experiment_5,2023.2.2,Win32,84.74576271,,,,,,,,,,,,,,,,727.5001,728.801,728.8011,729.6042,return,0.094,,40.75520833,,,,,,FBP-RB-81.png,0.37,1.2,22,0.5,,,,,,,,,,,,,,,,,,0,16,16,21,1,,,,,,,,,,,,,,,,,,,,,,,
,,,,,WIN24_057,21,Male,2024-02-13_12h43.57.108,jersey_experiment_5,2023.2.2,Win32,84.74576271,,,,,,,,,,,,,,,,729.6043,731.4008,731.4008,731.8531,return,0.0474,,68.09895833,,,,,,FBP-PT-81.png,0.43,1.2,54,1,,,,,,,,,,,,,,,,,,0,17,17,53,1,,,,,,,,,,,,,,,,,,,,,,,
,,,,,WIN24_057,21,Male,2024-02-13_12h43.57.108,jersey_experiment_5,2023.2.2,Win32,84.74576271,,,,,,,,,,,,,,,,731.8533,733.6515,733.6515,734.8178,return,0.4707,,64.32291667,,,,,,FBP-OG-17.png,0.43,1.2,4,1,,,,,,,,,,,,,,,,,,0,18,18,3,1,,,,,,,,,,,,,,,,,,,,,,,
,,,,,WIN24_057,21,Male,2024-02-13_12h43.57.108,jersey_experiment_5,2023.2.2,Win32,84.74576271,,,,,,,,,,,,,,,,734.8179,736.1188,736.1188,736.6598,return,0.0015,,68.09895833,,,,,,FBP-RB-91.png,0.4,1.2,28,0.5,,,,,,,,,,,,,,,,,,0,19,19,27,1,,,,,,,,,,,,,,,,,,,,,,,
,,,,,WIN24_057,21,Male,2024-02-13_12h43.57.108,jersey_experiment_5,2023.2.2,Win32,84.74576271,,,,,,,,,,,,,,,,736.66,737.9542,737.9542,739.3592,return,0.037,,57.94270833,,,,,,FBP-YG-18.png,0.37,1.2,37,0.5,,,,,,,,,,,,,,,,,,0,20,20,36,1,,,,,,,,,,,,,,,,,,,,,,,
,,,,,WIN24_057,21,Male,2024-02-13_12h43.57.108,jersey_experiment_5,2023.2.2,Win32,84.74576271,,,,,,,,,,,,,,,,739.3594,741.1579,741.1579,741.8401,return,0.1887,,70.18229167,,,,,,FBP-OG-19.png,0.43,1.2,14,1,,,,,,,,,,,,,,,,,,0,21,21,13,1,,,,,,,,,,,,,,,,,,,,,,,
,,,,,WIN24_057,21,Male,2024-02-13_12h43.57.108,jersey_experiment_5,2023.2.2,Win32,84.74576271,,,,,,,,,,,,,,,,741.8403,743.6368,743.6368,745.2368,return,0.2948,,44.66145833,,,,,,FBP-PT-81.png,0.37,1.2,52,1,,,,,,,,,,,,,,,,,,0,22,22,51,1,,,,,,,,,,,,,,,,,,,,,,,
,,,,,WIN24_057,21,Male,2024-02-13_12h43.57.108,jersey_experiment_5,2023.2.2,Win32,84.74576271,,,,,,,,,,,,,,,,745.237,746.5307,746.5308,747.5192,return,0.0547,,39.19270833,,,,,,FBP-YG-17.png,0.35,1.2,31,0.5,,,,,,,,,,,,,,,,,,0,23,23,30,1,,,,,,,,,,,,,,,,,,,,,,,
,,,,,WIN24_057,21,Male,2024-02-13_12h43.57.108,jersey_experiment_5,2023.2.2,Win32,84.74576271,,,,,,,,,,,,,,,,747.5194,749.3125,749.3125,749.8253,return,0.0161,,69.921875,,,,,,FBP-OG-17.png,0.45,1.2,5,1,,,,,,,,,,,,,,,,,,0,24,24,4,1,,,,,,,,,,,,,,,,,,,,,,,
,,,,,WIN24_057,21,Male,2024-02-13_12h43.57.108,jersey_experiment_5,2023.2.2,Win32,84.74576271,,,,,,,,,,,,,,,,749.8254,751.6185,751.6185,752.6639,return,0.3164,,53.90625,,,,,,FBP-OG-19.png,0.4,1.2,13,1,,,,,,,,,,,,,,,,,,0,25,25,12,1,,,,,,,,,,,,,,,,,,,,,,,
,,,,,WIN24_057,21,Male,2024-02-13_12h43.57.108,jersey_experiment_5,2023.2.2,Win32,84.74576271,,,,,,,,,,,,,,,,752.664,753.9583,753.9584,754.8057,return,0.0003,,62.36979167,,,,,,FBP-YG-17.png,0.43,1.2,34,0.5,,,,,,,,,,,,,,,,,,0,26,26,33,1,,,,,,,,,,,,,,,,,,,,,,,
,,,,,WIN24_057,21,Male,2024-02-13_12h43.57.108,jersey_experiment_5,2023.2.2,Win32,84.74576271,,,,,,,,,,,,,,,,754.8059,756.6067,756.6068,757.3834,return,0.0839,,69.79166667,,,,,,FBP-PT-71.png,0.4,1.2,48,1,,,,,,,,,,,,,,,,,,0,27,27,47,1,,,,,,,,,,,,,,,,,,,,,,,
,,,,,WIN24_057,21,Male,2024-02-13_12h43.57.108,jersey_experiment_5,2023.2.2,Win32,84.74576271,,,,,,,,,,,,,,,,757.3836,758.6773,758.6773,759.7128,return,0.0474,,71.22395833,,,,,,FBP-RB-71.png,0.4,1.2,18,0.5,,,,,,,,,,,,,,,,,,0,28,28,17,1,,,,,,,,,,,,,,,,,,,,,,,
,,,,,WIN24_057,21,Male,2024-02-13_12h43.57.108,jersey_experiment_5,2023.2.2,Win32,84.74576271,,,,,,,,,,,,,,,,759.713,761.508,761.508,762.8997,return,0.128,,64.97395833,,,,,,FBP-PT-91.png,0.43,1.2,59,1,,,,,,,,,,,,,,,,,,0,29,29,58,1,,,,,,,,,,,,,,,,,,,,,,,
,,,,,WIN24_057,21,Male,2024-02-13_12h43.57.108,jersey_experiment_5,2023.2.2,Win32,84.74576271,,,,,,,,,,,,,,,,762.8999,764.7012,764.7012,765.1954,return,0.0944,,77.734375,,,,,,FBP-OG-19.png,0.45,1.2,15,1,,,,,,,,,,,,,,,,,,0,30,30,14,1,,,,,,,,,,,,,,,,,,,,,,,
,,,,,WIN24_057,21,Male,2024-02-13_12h43.57.108,jersey_experiment_5,2023.2.2,Win32,84.74576271,,,,,,,,,,,,,,,,765.1955,766.5001,766.5001,767.4879,return,0.0232,,41.015625,,,,,,FBP-RB-91.png,0.35,1.2,26,0.5,,,,,,,,,,,,,,,,,,0,31,31,25,1,,,,,,,,,,,,,,,,,,,,,,,
,,,,,WIN24_057,21,Male,2024-02-13_12h43.57.108,jersey_experiment_5,2023.2.2,Win32,84.74576271,,,,,,,,,,,,,,,,767.4881,769.2847,769.2847,770.278,return,0.071,,39.58333333,,,,,,FBP-PT-91.png,0.37,1.2,57,1,,,,,,,,,,,,,,,,,,0,32,32,56,1,,,,,,,,,,,,,,,,,,,,,,,
,,,,,WIN24_057,21,Male,2024-02-13_12h43.57.108,jersey_experiment_5,2023.2.2,Win32,84.74576271,,,,,,,,,,,,,,,,770.2782,772.0766,772.0766,772.9134,return,0.3298,,32.29166667,,,,,,FBP-PT-71.png,0.35,1.2,46,1,,,,,,,,,,,,,,,,,,0,33,33,45,1,,,,,,,,,,,,,,,,,,,,,,,
,,,,,WIN24_057,21,Male,2024-02-13_12h43.57.108,jersey_experiment_5,2023.2.2,Win32,84.74576271,,,,,,,,,,,,,,,,772.9136,774.218,774.218,775.0732,return,0.0995,,68.75,,,,,,FBP-YG-18.png,0.43,1.2,39,0.5,,,,,,,,,,,,,,,,,,0,34,34,38,1,,,,,,,,,,,,,,,,,,,,,,,
,,,,,WIN24_057,21,Male,2024-02-13_12h43.57.108,jersey_experiment_5,2023.2.2,Win32,84.74576271,,,,,,,,,,,,,,,,775.0734,776.8767,776.8767,777.3712,return,0.0474,,41.14583333,,,,,,FBP-OG-17.png,0.37,1.2,2,1,,,,,,,,,,,,,,,,,,0,35,35,1,1,,,,,,,,,,,,,,,,,,,,,,,
,,,,,WIN24_057,21,Male,2024-02-13_12h43.57.108,jersey_experiment_5,2023.2.2,Win32,84.74576271,,,,,,,,,,,,,,,,777.3714,779.1673,779.1673,780.1001,return,0.1045,,49.73958333,,,,,,FBP-OG-19.png,0.37,1.2,12,1,,,,,,,,,,,,,,,,,,0,36,36,11,1,,,,,,,,,,,,,,,,,,,,,,,
,,,,,WIN24_057,21,Male,2024-02-13_12h43.57.108,jersey_experiment_5,2023.2.2,Win32,84.74576271,,,,,,,,,,,,,,,,780.1003,781.3943,781.3943,782.4431,return,0.0709,,67.96875,,,,,,FBP-YG-19.png,0.43,1.2,44,0.5,,,,,,,,,,,,,,,,,,0,37,37,43,1,,,,,,,,,,,,,,,,,,,,,,,
,,,,,WIN24_057,21,Male,2024-02-13_12h43.57.108,jersey_experiment_5,2023.2.2,Win32,84.74576271,,,,,,,,,,,,,,,,782.4432,784.2415,784.2415,785.6195,return,0.1649,,65.36458333,,,,,,FBP-OG-18.png,0.43,1.2,9,1,,,,,,,,,,,,,,,,,,0,38,38,8,1,,,,,,,,,,,,,,,,,,,,,,,
,,,,,WIN24_057,21,Male,2024-02-13_12h43.57.108,jersey_experiment_5,2023.2.2,Win32,84.74576271,,,,,,,,,,,,,,,,785.6197,786.9242,786.9242,787.8149,return,0.0601,,79.6875,,,,,,FBP-RB-71.png,0.45,1.2,20,0.5,,,,,,,,,,,,,,,,,,0,39,39,19,1,,,,,,,,,,,,,,,,,,,,,,,
,,,,,WIN24_057,21,Male,2024-02-13_12h43.57.108,jersey_experiment_5,2023.2.2,Win32,84.74576271,,,,,,,,,,,,,,,,787.8152,789.6196,789.6196,791.3245,return,1.2579,,76.5625,,,,,,FBP-OG-18.png,0.4,1.2,8,1,,,,,,,,,,,,,,,,,,0,40,40,7,1,,,,,,,,,,,,,,,,,,,,,,,
,,,,,WIN24_057,21,Male,2024-02-13_12h43.57.108,jersey_experiment_5,2023.2.2,Win32,84.74576271,,,,,,,,,,,,,,,,791.3246,793.1259,793.1259,794.2895,return,0.2126,,61.06770833,,,,,,FBP-PT-71.png,0.37,1.2,47,1,,,,,,,,,,,,,,,,,,0,41,41,46,1,,,,,,,,,,,,,,,,,,,,,,,
,,,,,WIN24_057,21,Male,2024-02-13_12h43.57.108,jersey_experiment_5,2023.2.2,Win32,84.74576271,,,,,,,,,,,,,,,,794.2898,795.5916,795.5917,796.9851,return,0.1313,,63.93229167,,,,,,FBP-YG-18.png,0.4,1.2,38,0.5,,,,,,,,,,,,,,,,,,0,42,42,37,1,,,,,,,,,,,,,,,,,,,,,,,
,,,,,WIN24_057,21,Male,2024-02-13_12h43.57.108,jersey_experiment_5,2023.2.2,Win32,84.74576271,,,,,,,,,,,,,,,,796.9853,798.2893,798.2894,800.148,return,0.0942,,63.02083333,,,,,,FBP-YG-19.png,0.35,1.2,41,0.5,,,,,,,,,,,,,,,,,,0,43,43,40,1,,,,,,,,,,,,,,,,,,,,,,,
,,,,,WIN24_057,21,Male,2024-02-13_12h43.57.108,jersey_experiment_5,2023.2.2,Win32,84.74576271,,,,,,,,,,,,,,,,800.1481,801.4555,801.4555,802.6626,return,0.0473,,66.14583333,,,,,,FBP-RB-81.png,0.4,1.2,23,0.5,,,,,,,,,,,,,,,,,,0,44,44,22,1,,,,,,,,,,,,,,,,,,,,,,,
,,,,,WIN24_057,21,Male,2024-02-13_12h43.57.108,jersey_experiment_5,2023.2.2,Win32,84.74576271,,,,,,,,,,,,,,,,802.6628,803.96,803.96,804.7269,return,0.1186,,77.60416667,,,,,,FBP-RB-81.png,0.43,1.2,24,0.5,,,,,,,,,,,,,,,,,,0,45,45,23,1,,,,,,,,,,,,,,,,,,,,,,,
,,,,,WIN24_057,21,Male,2024-02-13_12h43.57.108,jersey_experiment_5,2023.2.2,Win32,84.74576271,,,,,,,,,,,,,,,,804.727,806.0274,806.0275,806.7687,return,0.0404,,35.28645833,,,,,,FBP-RB-81.png,0.35,1.2,21,0.5,,,,,,,,,,,,,,,,,,0,46,46,20,1,,,,,,,,,,,,,,,,,,,,,,,
,,,,,WIN24_057,21,Male,2024-02-13_12h43.57.108,jersey_experiment_5,2023.2.2,Win32,84.74576271,,,,,,,,,,,,,,,,806.7689,808.0677,808.0677,808.6325,return,0.0708,,34.375,,,,,,FBP-RB-71.png,0.35,1.2,16,0.5,,,,,,,,,,,,,,,,,,0,47,47,15,1,,,,,,,,,,,,,,,,,,,,,,,
,,,,,WIN24_057,21,Male,2024-02-13_12h43.57.108,jersey_experiment_5,2023.2.2,Win32,84.74576271,,,,,,,,,,,,,,,,808.6326,810.4309,810.4309,811.2155,return,0.0411,,33.59375,,,,,,FBP-PT-81.png,0.35,1.2,51,1,,,,,,,,,,,,,,,,,,0,48,48,50,1,,,,,,,,,,,,,,,,,,,,,,,
,,,,,WIN24_057,21,Male,2024-02-13_12h43.57.108,jersey_experiment_5,2023.2.2,Win32,84.74576271,,,,,,,,,,,,,,,,811.2158,813.0089,813.0089,814.2393,return,0.8665,,55.859375,,,,,,FBP-PT-91.png,0.45,1.2,60,1,,,,,,,,,,,,,,,,,,0,49,49,59,1,,,,,,,,,,,,,,,,,,,,,,,
,,,,,WIN24_057,21,Male,2024-02-13_12h43.57.108,jersey_experiment_5,2023.2.2,Win32,84.74576271,,,,,,,,,,,,,,,,814.2396,815.5367,815.5367,816.1621,return,0.0131,,69.921875,,,,,,FBP-YG-18.png,0.45,1.2,40,0.5,,,,,,,,,,,,,,,,,,0,50,50,39,1,,,,,,,,,,,,,,,,,,,,,,,
,,,,,WIN24_057,21,Male,2024-02-13_12h43.57.108,jersey_experiment_5,2023.2.2,Win32,84.74576271,,,,,,,,,,,,,,,,816.1623,817.4561,817.4561,818.4679,return,0.0705,,64.58333333,,,,,,FBP-YG-18.png,0.35,1.2,36,0.5,,,,,,,,,,,,,,,,,,0,51,51,35,1,,,,,,,,,,,,,,,,,,,,,,,
,,,,,WIN24_057,21,Male,2024-02-13_12h43.57.108,jersey_experiment_5,2023.2.2,Win32,84.74576271,,,,,,,,,,,,,,,,818.4682,820.2665,820.2665,820.774,return,0.1077,,36.45833333,,,,,,FBP-PT-91.png,0.35,1.2,56,1,,,,,,,,,,,,,,,,,,0,52,52,55,1,,,,,,,,,,,,,,,,,,,,,,,
,,,,,WIN24_057,21,Male,2024-02-13_12h43.57.108,jersey_experiment_5,2023.2.2,Win32,84.74576271,,,,,,,,,,,,,,,,820.7742,822.5724,822.5724,823.3621,return,0.4366,,75.390625,,,,,,FBP-OG-18.png,0.45,1.2,10,1,,,,,,,,,,,,,,,,,,0,53,53,9,1,,,,,,,,,,,,,,,,,,,,,,,
,,,,,WIN24_057,21,Male,2024-02-13_12h43.57.108,jersey_experiment_5,2023.2.2,Win32,84.74576271,,,,,,,,,,,,,,,,823.3622,825.1606,825.1607,826.1731,return,0.3168,,73.828125,,,,,,FBP-PT-81.png,0.45,1.2,55,1,,,,,,,,,,,,,,,,,,0,54,54,54,1,,,,,,,,,,,,,,,,,,,,,,,
,,,,,WIN24_057,21,Male,2024-02-13_12h43.57.108,jersey_experiment_5,2023.2.2,Win32,84.74576271,,,,,,,,,,,,,,,,826.1732,827.4751,827.4752,828.4687,return,0.0475,,73.828125,,,,,,FBP-YG-19.png,0.45,1.2,45,0.5,,,,,,,,,,,,,,,,,,0,55,55,44,1,,,,,,,,,,,,,,,,,,,,,,,
,,,,,WIN24_057,21,Male,2024-02-13_12h43.57.108,jersey_experiment_5,2023.2.2,Win32,84.74576271,,,,,,,,,,,,,,,,828.4689,830.2635,830.2635,830.7693,return,0.3114,,44.79166667,,,,,,FBP-OG-17.png,0.35,1.2,1,1,,,,,,,,,,,,,,,,,,0,56,56,0,1,,,,,,,,,,,,,,,,,,,,,,,
,,,,,WIN24_057,21,Male,2024-02-13_12h43.57.108,jersey_experiment_5,2023.2.2,Win32,84.74576271,,,,,,,,,,,,,,,,830.7696,832.573,832.573,833.6787,return,0.0339,,88.80208333,,,,,,FBP-PT-71.png,0.45,1.2,50,1,,,,,,,,,,,,,,,,,,0,57,57,49,1,,,,,,,,,,,,,,,,,,,,,,,
,,,,,WIN24_057,21,Male,2024-02-13_12h43.57.108,jersey_experiment_5,2023.2.2,Win32,84.74576271,,,,,,,,,,,,,,,,833.6788,835.4754,835.4755,835.993,return,0.0471,,42.83854167,,,,,,FBP-OG-18.png,0.35,1.2,6,1,,,,,,,,,,,,,,,,,,0,58,58,5,1,,,,,,,,,,,,,,,,,,,,,,,
,,,,,WIN24_057,21,Male,2024-02-13_12h43.57.108,jersey_experiment_5,2023.2.2,Win32,84.74576271,,,,,,,,,,,,,,,,835.9933,837.7863,837.7863,838.4637,return,0.0538,,35.9375,,,,,,FBP-OG-18.png,0.37,1.2,7,1,,,,,,,,,,,,,,,,,,0,59,59,6,1,,,,,,,,,,,,,,,,,,,,,,,
,,,,,WIN24_057,21,Male,2024-02-13_12h43.57.108,jersey_experiment_5,2023.2.2,Win32,84.74576271,,,,,,,,,,,,,,,,,,,,,,,,,,,,,,,,,,,,,,,,,,,,,,,,,,,,,,,,838.4641,842.1936,return,3.7113,,,,,,,,,,,,,,,,,,,
,,,,,WIN24_057,21,Male,2024-02-13_12h43.57.108,jersey_experiment_5,2023.2.2,Win32,84.74576271,,,,,,,,,,,,,,,,,,,,,,,,,,,,,,,,,,,,,,,,,,,,,,,,,,,,,,,,,,,,,842.1936,846.8458,1,3.8985,return,0.7428,,,,,,,,,,,,
,,,,,WIN24_057,21,Male,2024-02-13_12h43.57.108,jersey_experiment_5,2023.2.2,Win32,84.74576271,,,,,,,,,,,,,,,,,,,,,,,,,,,,,,,,,,,,,,,,,,,,,,,,,,,,,,,,,,,,,,,,,,,,846.846,893.8943,I assume that the study is about the manipulation of color and how it affects the perception of size. There were changes in the jersey colors as well as the players skin tone.,right,41.6051,,,,,,
,,,,,WIN24_057,21,Male,2024-02-13_12h43.57.108,jersey_experiment_5,2023.2.2,Win32,84.74576271,,,,,,,,,,,,,,,,,,,,,,,,,,,,,,,,,,,,,,,,,,,,,,,,,,,,,,,,,,,,,,,,,,,,,,,,,,893.8944,896.9483,return,3.0363,