requirements.started,requirements.stopped,key_resp_3.keys,key_resp_3.rt,key_resp_3.duration,Subject ID,Age,Gender,date,expName,psychopyVersion,OS,frameRate,instructions1.started,instructions1.stopped,key_resp.keys,key_resp.rt,key_resp.duration,example.started,example.stopped,enter_2.keys,enter_2.rt,enter_2.duration,instructions2.started,instructions2.stopped,enter_3.keys,enter_3.rt,enter_3.duration,image.started,image.stopped,slider_2.started,slider_2.stopped,next.keys,next.rt,next.duration,slider.response,trial_block_1.thisRepN,trial_block_1.thisTrialN,trial_block_1.thisN,trial_block_1.thisIndex,trial_block_1.ran,Path,Width,Height,Index,Duration,trial_block_2.thisRepN,trial_block_2.thisTrialN,trial_block_2.thisN,trial_block_2.thisIndex,trial_block_2.ran,rest_break.started,rest_break.stopped,end_break.started,end_break.stopped,key_resp_5.keys,key_resp_5.rt,key_resp_5.duration,trial_block_3.thisRepN,trial_block_3.thisTrialN,trial_block_3.thisN,trial_block_3.thisIndex,trial_block_3.ran,trial_block_4.thisRepN,trial_block_4.thisTrialN,trial_block_4.thisN,trial_block_4.thisIndex,trial_block_4.ran,questions_intro.started,questions_intro.stopped,enter_12.keys,enter_12.rt,enter_12.duration,question2.started,question2.stopped,question_doingbest.response,question_doingbest.rt,enter_15.keys,enter_15.rt,enter_15.duration,pattern.started,pattern.stopped,pattern_2.text,enter_17.keys,enter_17.rt,enter_17.duration,thankyou.started,thankyou.stopped,enter_14.keys,enter_14.rt,enter_14.duration
0.0001,9.5027,return,9.492,,WIN24_028,22,Male ,2024-02-01_13h02.54.381,jersey_experiment_5,2023.2.2,Win32,85.47008547,,,,,,,,,,,,,,,,,,,,,,,,,,,,,,,,,,,,,,,,,,,,,,,,,,,,,,,,,,,,,,,,,,,,,,,,,,,,,,
,,,,,WIN24_028,22,Male ,2024-02-01_13h02.54.381,jersey_experiment_5,2023.2.2,Win32,85.47008547,9.5027,16.029,return,6.509,,,,,,,,,,,,,,,,,,,,,,,,,,,,,,,,,,,,,,,,,,,,,,,,,,,,,,,,,,,,,,,,,,,,,,,,,,
,,,,,WIN24_028,22,Male ,2024-02-01_13h02.54.381,jersey_experiment_5,2023.2.2,Win32,85.47008547,,,,,,16.0291,20.8174,return,4.7487,,,,,,,,,,,,,,,,,,,,,,,,,,,,,,,,,,,,,,,,,,,,,,,,,,,,,,,,,,,,,,,,,,,,,
,,,,,WIN24_028,22,Male ,2024-02-01_13h02.54.381,jersey_experiment_5,2023.2.2,Win32,85.47008547,,,,,,,,,,,20.8175,38.7358,return,17.9073,,,,,,,,,,,,,,,,,,,,,,,,,,,,,,,,,,,,,,,,,,,,,,,,,,,,,,,,,,,,,,,,
,,,,,WIN24_028,22,Male ,2024-02-01_13h02.54.381,jersey_experiment_5,2023.2.2,Win32,85.47008547,,,,,,,,,,,,,,,,38.743,40.5356,40.5356,65.8071,return,9.9067,,69.66145833,0,0,0,18,1,FBP-RB-17.png,0.43,1.2,19,1,,,,,,,,,,,,,,,,,,,,,,,,,,,,,,,,,,,,,,,,,,,,,
,,,,,WIN24_028,22,Male ,2024-02-01_13h02.54.381,jersey_experiment_5,2023.2.2,Win32,85.47008547,,,,,,,,,,,,,,,,65.8116,67.1129,67.1129,78.0193,return,4.3426,,63.02083333,0,1,1,57,1,FBP-PT-19.png,0.4,1.2,58,0.5,,,,,,,,,,,,,,,,,,,,,,,,,,,,,,,,,,,,,,,,,,,,,
,,,,,WIN24_028,22,Male ,2024-02-01_13h02.54.381,jersey_experiment_5,2023.2.2,Win32,85.47008547,,,,,,,,,,,,,,,,78.0194,79.8193,79.8193,86.396,return,0.9214,,61.45833333,0,2,2,15,1,FBP-RB-17.png,0.35,1.2,16,1,,,,,,,,,,,,,,,,,,,,,,,,,,,,,,,,,,,,,,,,,,,,,
,,,,,WIN24_028,22,Male ,2024-02-01_13h02.54.381,jersey_experiment_5,2023.2.2,Win32,85.47008547,,,,,,,,,,,,,,,,86.3963,87.6901,87.6901,94.2433,return,3.0826,,80.20833333,0,3,3,6,1,FBP-OG-81.png,0.37,1.2,7,0.5,,,,,,,,,,,,,,,,,,,,,,,,,,,,,,,,,,,,,,,,,,,,,
,,,,,WIN24_028,22,Male ,2024-02-01_13h02.54.381,jersey_experiment_5,2023.2.2,Win32,85.47008547,,,,,,,,,,,,,,,,94.2435,95.5375,95.5375,98.4436,return,1.1001,,86.97916667,0,4,4,12,1,FBP-OG-91.png,0.4,1.2,13,0.5,,,,,,,,,,,,,,,,,,,,,,,,,,,,,,,,,,,,,,,,,,,,,
,,,,,WIN24_028,22,Male ,2024-02-01_13h02.54.381,jersey_experiment_5,2023.2.2,Win32,85.47008547,,,,,,,,,,,,,,,,98.4437,99.7377,99.7377,103.6319,return,1.8839,,81.77083333,0,5,5,0,1,FBP-OG-71.png,0.35,1.2,1,0.5,,,,,,,,,,,,,,,,,,,,,,,,,,,,,,,,,,,,,,,,,,,,,
,,,,,WIN24_028,22,Male ,2024-02-01_13h02.54.381,jersey_experiment_5,2023.2.2,Win32,85.47008547,,,,,,,,,,,,,,,,103.6321,105.4321,105.4321,109.7381,return,2.537,,87.63020833,0,6,6,32,1,FBP-YG-71.png,0.4,1.2,33,1,,,,,,,,,,,,,,,,,,,,,,,,,,,,,,,,,,,,,,,,,,,,,
,,,,,WIN24_028,22,Male ,2024-02-01_13h02.54.381,jersey_experiment_5,2023.2.2,Win32,85.47008547,,,,,,,,,,,,,,,,109.7383,111.5381,111.5381,115.3736,return,0.6626,,75.52083333,0,7,7,41,1,FBP-YG-91.png,0.37,1.2,42,1,,,,,,,,,,,,,,,,,,,,,,,,,,,,,,,,,,,,,,,,,,,,,
,,,,,WIN24_028,22,Male ,2024-02-01_13h02.54.381,jersey_experiment_5,2023.2.2,Win32,85.47008547,,,,,,,,,,,,,,,,115.3737,116.6676,116.6676,119.962,return,0.5016,,68.75,0,8,8,50,1,FBP-PT-18.png,0.35,1.2,51,0.5,,,,,,,,,,,,,,,,,,,,,,,,,,,,,,,,,,,,,,,,,,,,,
,,,,,WIN24_028,22,Male ,2024-02-01_13h02.54.381,jersey_experiment_5,2023.2.2,Win32,85.47008547,,,,,,,,,,,,,,,,119.9622,121.7623,121.7623,125.5621,return,0.3704,,86.97916667,0,9,9,37,1,FBP-YG-81.png,0.4,1.2,38,1,,,,,,,,,,,,,,,,,,,,,,,,,,,,,,,,,,,,,,,,,,,,,
,,,,,WIN24_028,22,Male ,2024-02-01_13h02.54.381,jersey_experiment_5,2023.2.2,Win32,85.47008547,,,,,,,,,,,,,,,,125.5623,127.3622,127.3622,130.0329,return,0.5046,,80.98958333,0,10,10,31,1,FBP-YG-71.png,0.37,1.2,32,1,,,,,,,,,,,,,,,,,,,,,,,,,,,,,,,,,,,,,,,,,,,,,
,,,,,WIN24_028,22,Male ,2024-02-01_13h02.54.381,jersey_experiment_5,2023.2.2,Win32,85.47008547,,,,,,,,,,,,,,,,130.033,131.3271,131.3271,135.1977,return,1.1213,,100,0,11,11,59,1,FBP-PT-19.png,0.45,1.2,60,0.5,,,,,,,,,,,,,,,,,,,,,,,,,,,,,,,,,,,,,,,,,,,,,
,,,,,WIN24_028,22,Male ,2024-02-01_13h02.54.381,jersey_experiment_5,2023.2.2,Win32,85.47008547,,,,,,,,,,,,,,,,135.1978,136.492,136.492,139.5039,return,1.0365,,91.92708333,0,12,12,52,1,FBP-PT-18.png,0.4,1.2,53,0.5,,,,,,,,,,,,,,,,,,,,,,,,,,,,,,,,,,,,,,,,,,,,,
,,,,,WIN24_028,22,Male ,2024-02-01_13h02.54.381,jersey_experiment_5,2023.2.2,Win32,85.47008547,,,,,,,,,,,,,,,,139.504,141.304,141.304,143.4569,return,0.9316,,88.54166667,0,13,13,28,1,FBP-RB-19.png,0.43,1.2,29,1,,,,,,,,,,,,,,,,,,,,,,,,,,,,,,,,,,,,,,,,,,,,,
,,,,,WIN24_028,22,Male ,2024-02-01_13h02.54.381,jersey_experiment_5,2023.2.2,Win32,85.47008547,,,,,,,,,,,,,,,,143.4571,145.2571,145.2571,148.3865,return,0.3619,,69.01041667,0,14,14,35,1,FBP-YG-81.png,0.35,1.2,36,1,,,,,,,,,,,,,,,,,,,,,,,,,,,,,,,,,,,,,,,,,,,,,
,,,,,WIN24_028,22,Male ,2024-02-01_13h02.54.381,jersey_experiment_5,2023.2.2,Win32,85.47008547,,,,,,,,,,,,,,,,148.3866,149.6806,149.6806,151.4573,return,0.4845,,82.29166667,0,15,15,46,1,FBP-PT-17.png,0.37,1.2,47,0.5,,,,,,,,,,,,,,,,,,,,,,,,,,,,,,,,,,,,,,,,,,,,,
,,,,,WIN24_028,22,Male ,2024-02-01_13h02.54.381,jersey_experiment_5,2023.2.2,Win32,85.47008547,,,,,,,,,,,,,,,,151.4574,152.7514,152.7514,158.5397,return,3.3588,,75.13020833,0,16,16,11,1,FBP-OG-91.png,0.37,1.2,12,0.5,,,,,,,,,,,,,,,,,,,,,,,,,,,,,,,,,,,,,,,,,,,,,
,,,,,WIN24_028,22,Male ,2024-02-01_13h02.54.381,jersey_experiment_5,2023.2.2,Win32,85.47008547,,,,,,,,,,,,,,,,158.5399,160.3398,160.3398,163.4341,return,0.4898,,81.90104167,0,17,17,36,1,FBP-YG-81.png,0.37,1.2,37,1,,,,,,,,,,,,,,,,,,,,,,,,,,,,,,,,,,,,,,,,,,,,,
,,,,,WIN24_028,22,Male ,2024-02-01_13h02.54.381,jersey_experiment_5,2023.2.2,Win32,85.47008547,,,,,,,,,,,,,,,,163.4343,165.2341,165.2342,169.1989,return,1.2239,,81.90104167,0,18,18,26,1,FBP-RB-19.png,0.37,1.2,27,1,,,,,,,,,,,,,,,,,,,,,,,,,,,,,,,,,,,,,,,,,,,,,
,,,,,WIN24_028,22,Male ,2024-02-01_13h02.54.381,jersey_experiment_5,2023.2.2,Win32,85.47008547,,,,,,,,,,,,,,,,169.1991,170.4931,170.4932,172.0462,return,0.4854,,87.109375,0,19,19,2,1,FBP-OG-71.png,0.4,1.2,3,0.5,,,,,,,,,,,,,,,,,,,,,,,,,,,,,,,,,,,,,,,,,,,,,
,,,,,WIN24_028,22,Male ,2024-02-01_13h02.54.381,jersey_experiment_5,2023.2.2,Win32,85.47008547,,,,,,,,,,,,,,,,172.0464,173.3404,173.3404,174.6227,return,0.5535,,93.88020833,0,20,20,13,1,FBP-OG-91.png,0.43,1.2,14,0.5,,,,,,,,,,,,,,,,,,,,,,,,,,,,,,,,,,,,,,,,,,,,,
,,,,,WIN24_028,22,Male ,2024-02-01_13h02.54.381,jersey_experiment_5,2023.2.2,Win32,85.47008547,,,,,,,,,,,,,,,,174.6228,176.423,176.423,178.6345,return,1.394,,61.06770833,0,21,21,25,1,FBP-RB-19.png,0.35,1.2,26,1,,,,,,,,,,,,,,,,,,,,,,,,,,,,,,,,,,,,,,,,,,,,,
,,,,,WIN24_028,22,Male ,2024-02-01_13h02.54.381,jersey_experiment_5,2023.2.2,Win32,85.47008547,,,,,,,,,,,,,,,,178.6348,180.4347,180.4347,182.6113,return,1.0955,,68.61979167,0,22,22,30,1,FBP-YG-71.png,0.35,1.2,31,1,,,,,,,,,,,,,,,,,,,,,,,,,,,,,,,,,,,,,,,,,,,,,
,,,,,WIN24_028,22,Male ,2024-02-01_13h02.54.381,jersey_experiment_5,2023.2.2,Win32,85.47008547,,,,,,,,,,,,,,,,182.6114,184.4114,184.4114,186.1291,return,1.059,,83.85416667,0,23,23,38,1,FBP-YG-81.png,0.43,1.2,39,1,,,,,,,,,,,,,,,,,,,,,,,,,,,,,,,,,,,,,,,,,,,,,
,,,,,WIN24_028,22,Male ,2024-02-01_13h02.54.381,jersey_experiment_5,2023.2.2,Win32,85.47008547,,,,,,,,,,,,,,,,186.1292,187.4232,187.4232,191.3056,return,0.394,,80.59895833,0,24,24,7,1,FBP-OG-81.png,0.4,1.2,8,0.5,,,,,,,,,,,,,,,,,,,,,,,,,,,,,,,,,,,,,,,,,,,,,
,,,,,WIN24_028,22,Male ,2024-02-01_13h02.54.381,jersey_experiment_5,2023.2.2,Win32,85.47008547,,,,,,,,,,,,,,,,191.3058,192.5999,192.5999,195.1764,return,1.2208,,100,0,25,25,49,1,FBP-PT-17.png,0.45,1.2,50,0.5,,,,,,,,,,,,,,,,,,,,,,,,,,,,,,,,,,,,,,,,,,,,,
,,,,,WIN24_028,22,Male ,2024-02-01_13h02.54.381,jersey_experiment_5,2023.2.2,Win32,85.47008547,,,,,,,,,,,,,,,,195.1766,196.4706,196.4706,198.1765,return,0.3869,,96.61458333,0,26,26,58,1,FBP-PT-19.png,0.43,1.2,59,0.5,,,,,,,,,,,,,,,,,,,,,,,,,,,,,,,,,,,,,,,,,,,,,
,,,,,WIN24_028,22,Male ,2024-02-01_13h02.54.381,jersey_experiment_5,2023.2.2,Win32,85.47008547,,,,,,,,,,,,,,,,198.1767,199.9766,199.9767,202.2826,return,0.5229,,100,0,27,27,39,1,FBP-YG-81.png,0.45,1.2,40,1,,,,,,,,,,,,,,,,,,,,,,,,,,,,,,,,,,,,,,,,,,,,,
,,,,,WIN24_028,22,Male ,2024-02-01_13h02.54.381,jersey_experiment_5,2023.2.2,Win32,85.47008547,,,,,,,,,,,,,,,,202.2828,204.0828,204.0828,205.3767,return,0.3062,,95.18229167,0,28,28,42,1,FBP-YG-91.png,0.4,1.2,43,1,,,,,,,,,,,,,,,,,,,,,,,,,,,,,,,,,,,,,,,,,,,,,
,,,,,WIN24_028,22,Male ,2024-02-01_13h02.54.381,jersey_experiment_5,2023.2.2,Win32,85.47008547,,,,,,,,,,,,,,,,205.3769,207.1768,207.1769,208.5298,return,0.4805,,100,0,29,29,19,1,FBP-RB-17.png,0.45,1.2,20,1,,,,,,,,,,,,,,,,,,,,,,,,,,,,,,,,,,,,,,,,,,,,,
,,,,,WIN24_028,22,Male ,2024-02-01_13h02.54.381,jersey_experiment_5,2023.2.2,Win32,85.47008547,,,,,,,,,,,,,,,,208.53,210.3301,210.3301,212.7653,return,0.4043,,75.65104167,0,30,30,27,1,FBP-RB-19.png,0.4,1.2,28,1,,,,,,,,,,,,,,,,,,,,,,,,,,,,,,,,,,,,,,,,,,,,,
,,,,,WIN24_028,22,Male ,2024-02-01_13h02.54.381,jersey_experiment_5,2023.2.2,Win32,85.47008547,,,,,,,,,,,,,,,,212.7654,214.0594,214.0594,218.7302,return,0.4993,,42.05729167,0,31,31,10,1,FBP-OG-91.png,0.35,1.2,11,0.5,,,,,,,,,,,,,,,,,,,,,,,,,,,,,,,,,,,,,,,,,,,,,
,,,,,WIN24_028,22,Male ,2024-02-01_13h02.54.381,jersey_experiment_5,2023.2.2,Win32,85.47008547,,,,,,,,,,,,,,,,218.7304,220.0244,220.0244,222.3304,return,0.9602,,100,0,32,32,54,1,FBP-PT-18.png,0.45,1.2,55,0.5,,,,,,,,,,,,,,,,,,,,,,,,,,,,,,,,,,,,,,,,,,,,,
,,,,,WIN24_028,22,Male ,2024-02-01_13h02.54.381,jersey_experiment_5,2023.2.2,Win32,85.47008547,,,,,,,,,,,,,,,,222.3306,223.6245,223.6246,226.5775,return,1.2237,,40.88541667,0,33,33,51,1,FBP-PT-18.png,0.37,1.2,52,0.5,,,,,,,,,,,,,,,,,,,,,,,,,,,,,,,,,,,,,,,,,,,,,
,,,,,WIN24_028,22,Male ,2024-02-01_13h02.54.381,jersey_experiment_5,2023.2.2,Win32,85.47008547,,,,,,,,,,,,,,,,226.5776,227.8717,227.8717,230.1306,return,0.2819,,77.21354167,0,34,34,53,1,FBP-PT-18.png,0.43,1.2,54,0.5,,,,,,,,,,,,,,,,,,,,,,,,,,,,,,,,,,,,,,,,,,,,,
,,,,,WIN24_028,22,Male ,2024-02-01_13h02.54.381,jersey_experiment_5,2023.2.2,Win32,85.47008547,,,,,,,,,,,,,,,,230.1308,231.9307,231.9307,235.8484,return,0.2915,,95.05208333,0,35,35,43,1,FBP-YG-91.png,0.43,1.2,44,1,,,,,,,,,,,,,,,,,,,,,,,,,,,,,,,,,,,,,,,,,,,,,
,,,,,WIN24_028,22,Male ,2024-02-01_13h02.54.381,jersey_experiment_5,2023.2.2,Win32,85.47008547,,,,,,,,,,,,,,,,235.8486,237.1428,237.1428,239.3073,return,0.6176,,42.96875,0,36,36,55,1,FBP-PT-19.png,0.35,1.2,56,0.5,,,,,,,,,,,,,,,,,,,,,,,,,,,,,,,,,,,,,,,,,,,,,
,,,,,WIN24_028,22,Male ,2024-02-01_13h02.54.381,jersey_experiment_5,2023.2.2,Win32,85.47008547,,,,,,,,,,,,,,,,239.3074,240.6016,240.6016,243.1546,return,0.7196,,74.47916667,0,37,37,47,1,FBP-PT-17.png,0.4,1.2,48,0.5,,,,,,,,,,,,,,,,,,,,,,,,,,,,,,,,,,,,,,,,,,,,,
,,,,,WIN24_028,22,Male ,2024-02-01_13h02.54.381,jersey_experiment_5,2023.2.2,Win32,85.47008547,,,,,,,,,,,,,,,,243.1548,244.9548,244.9548,246.5312,return,0.5993,,50.13020833,0,38,38,20,1,FBP-RB-18.png,0.35,1.2,21,1,,,,,,,,,,,,,,,,,,,,,,,,,,,,,,,,,,,,,,,,,,,,,
,,,,,WIN24_028,22,Male ,2024-02-01_13h02.54.381,jersey_experiment_5,2023.2.2,Win32,85.47008547,,,,,,,,,,,,,,,,246.5314,247.8253,247.8254,249.602,return,0.6016,,74.73958333,0,39,39,48,1,FBP-PT-17.png,0.43,1.2,49,0.5,,,,,,,,,,,,,,,,,,,,,,,,,,,,,,,,,,,,,,,,,,,,,
,,,,,WIN24_028,22,Male ,2024-02-01_13h02.54.381,jersey_experiment_5,2023.2.2,Win32,85.47008547,,,,,,,,,,,,,,,,249.6023,250.8962,250.8962,252.8021,return,0.518,,62.76041667,0,40,40,1,1,FBP-OG-71.png,0.37,1.2,2,0.5,,,,,,,,,,,,,,,,,,,,,,,,,,,,,,,,,,,,,,,,,,,,,
,,,,,WIN24_028,22,Male ,2024-02-01_13h02.54.381,jersey_experiment_5,2023.2.2,Win32,85.47008547,,,,,,,,,,,,,,,,252.8024,254.0962,254.0963,256.1434,return,0.7064,,50.13020833,0,41,41,5,1,FBP-OG-81.png,0.35,1.2,6,0.5,,,,,,,,,,,,,,,,,,,,,,,,,,,,,,,,,,,,,,,,,,,,,
,,,,,WIN24_028,22,Male ,2024-02-01_13h02.54.381,jersey_experiment_5,2023.2.2,Win32,85.47008547,,,,,,,,,,,,,,,,256.1437,257.4375,257.4375,259.3787,return,0.5648,,100,0,42,42,9,1,FBP-OG-81.png,0.45,1.2,10,0.5,,,,,,,,,,,,,,,,,,,,,,,,,,,,,,,,,,,,,,,,,,,,,
,,,,,WIN24_028,22,Male ,2024-02-01_13h02.54.381,jersey_experiment_5,2023.2.2,Win32,85.47008547,,,,,,,,,,,,,,,,259.379,260.6729,260.6729,262.2729,return,0.3632,,88.93229167,0,43,43,8,1,FBP-OG-81.png,0.43,1.2,9,0.5,,,,,,,,,,,,,,,,,,,,,,,,,,,,,,,,,,,,,,,,,,,,,
,,,,,WIN24_028,22,Male ,2024-02-01_13h02.54.381,jersey_experiment_5,2023.2.2,Win32,85.47008547,,,,,,,,,,,,,,,,262.2731,264.0731,264.0731,265.5202,return,0.4585,,96.22395833,0,44,44,24,1,FBP-RB-18.png,0.45,1.2,25,1,,,,,,,,,,,,,,,,,,,,,,,,,,,,,,,,,,,,,,,,,,,,,
,,,,,WIN24_028,22,Male ,2024-02-01_13h02.54.381,jersey_experiment_5,2023.2.2,Win32,85.47008547,,,,,,,,,,,,,,,,265.5204,267.3203,267.3203,270.9205,return,0.4441,,50.52083333,0,45,45,16,1,FBP-RB-17.png,0.37,1.2,17,1,,,,,,,,,,,,,,,,,,,,,,,,,,,,,,,,,,,,,,,,,,,,,
,,,,,WIN24_028,22,Male ,2024-02-01_13h02.54.381,jersey_experiment_5,2023.2.2,Win32,85.47008547,,,,,,,,,,,,,,,,270.9206,272.7204,272.7205,275.6146,return,0.4835,,89.84375,0,46,46,23,1,FBP-RB-18.png,0.43,1.2,24,1,,,,,,,,,,,,,,,,,,,,,,,,,,,,,,,,,,,,,,,,,,,,,
,,,,,WIN24_028,22,Male ,2024-02-01_13h02.54.381,jersey_experiment_5,2023.2.2,Win32,85.47008547,,,,,,,,,,,,,,,,275.6149,277.4149,277.415,278.6971,return,0.5836,,75.13020833,0,47,47,17,1,FBP-RB-17.png,0.4,1.2,18,1,,,,,,,,,,,,,,,,,,,,,,,,,,,,,,,,,,,,,,,,,,,,,
,,,,,WIN24_028,22,Male ,2024-02-01_13h02.54.381,jersey_experiment_5,2023.2.2,Win32,85.47008547,,,,,,,,,,,,,,,,278.6974,279.9912,279.9912,281.2972,return,0.4237,,100,0,48,48,14,1,FBP-OG-91.png,0.45,1.2,15,0.5,,,,,,,,,,,,,,,,,,,,,,,,,,,,,,,,,,,,,,,,,,,,,
,,,,,WIN24_028,22,Male ,2024-02-01_13h02.54.381,jersey_experiment_5,2023.2.2,Win32,85.47008547,,,,,,,,,,,,,,,,281.2974,283.0972,283.0973,284.462,return,0.3426,,88.15104167,0,49,49,44,1,FBP-YG-91.png,0.45,1.2,45,1,,,,,,,,,,,,,,,,,,,,,,,,,,,,,,,,,,,,,,,,,,,,,
,,,,,WIN24_028,22,Male ,2024-02-01_13h02.54.381,jersey_experiment_5,2023.2.2,Win32,85.47008547,,,,,,,,,,,,,,,,284.4622,286.2622,286.2623,287.7091,return,0.3677,,37.63020833,0,50,50,40,1,FBP-YG-91.png,0.35,1.2,41,1,,,,,,,,,,,,,,,,,,,,,,,,,,,,,,,,,,,,,,,,,,,,,
,,,,,WIN24_028,22,Male ,2024-02-01_13h02.54.381,jersey_experiment_5,2023.2.2,Win32,85.47008547,,,,,,,,,,,,,,,,287.7093,289.5094,289.5094,290.8152,return,0.5299,,50,0,51,51,21,1,FBP-RB-18.png,0.37,1.2,22,1,,,,,,,,,,,,,,,,,,,,,,,,,,,,,,,,,,,,,,,,,,,,,
,,,,,WIN24_028,22,Male ,2024-02-01_13h02.54.381,jersey_experiment_5,2023.2.2,Win32,85.47008547,,,,,,,,,,,,,,,,290.8153,292.6155,292.6155,295.9684,return,0.5056,,83.46354167,0,52,52,22,1,FBP-RB-18.png,0.4,1.2,23,1,,,,,,,,,,,,,,,,,,,,,,,,,,,,,,,,,,,,,,,,,,,,,
,,,,,WIN24_028,22,Male ,2024-02-01_13h02.54.381,jersey_experiment_5,2023.2.2,Win32,85.47008547,,,,,,,,,,,,,,,,295.9686,297.2624,297.2624,299.1685,return,0.4818,,38.28125,0,53,53,45,1,FBP-PT-17.png,0.35,1.2,46,0.5,,,,,,,,,,,,,,,,,,,,,,,,,,,,,,,,,,,,,,,,,,,,,
,,,,,WIN24_028,22,Male ,2024-02-01_13h02.54.381,jersey_experiment_5,2023.2.2,Win32,85.47008547,,,,,,,,,,,,,,,,299.1686,300.9689,300.9689,302.4627,return,0.3556,,88.28125,0,54,54,34,1,FBP-YG-71.png,0.45,1.2,35,1,,,,,,,,,,,,,,,,,,,,,,,,,,,,,,,,,,,,,,,,,,,,,
,,,,,WIN24_028,22,Male ,2024-02-01_13h02.54.381,jersey_experiment_5,2023.2.2,Win32,85.47008547,,,,,,,,,,,,,,,,302.4628,304.2627,304.2628,306.3334,return,1.4743,,95.83333333,0,55,55,33,1,FBP-YG-71.png,0.43,1.2,34,1,,,,,,,,,,,,,,,,,,,,,,,,,,,,,,,,,,,,,,,,,,,,,
,,,,,WIN24_028,22,Male ,2024-02-01_13h02.54.381,jersey_experiment_5,2023.2.2,Win32,85.47008547,,,,,,,,,,,,,,,,306.3337,307.6276,307.6276,309.1335,return,0.3683,,88.28125,0,56,56,3,1,FBP-OG-71.png,0.43,1.2,4,0.5,,,,,,,,,,,,,,,,,,,,,,,,,,,,,,,,,,,,,,,,,,,,,
,,,,,WIN24_028,22,Male ,2024-02-01_13h02.54.381,jersey_experiment_5,2023.2.2,Win32,85.47008547,,,,,,,,,,,,,,,,309.1337,310.4277,310.4277,311.6158,return,0.3543,,95.05208333,0,57,57,4,1,FBP-OG-71.png,0.45,1.2,5,0.5,,,,,,,,,,,,,,,,,,,,,,,,,,,,,,,,,,,,,,,,,,,,,
,,,,,WIN24_028,22,Male ,2024-02-01_13h02.54.381,jersey_experiment_5,2023.2.2,Win32,85.47008547,,,,,,,,,,,,,,,,311.616,313.4161,313.4161,314.522,return,0.6167,,95.05208333,0,58,58,29,1,FBP-RB-19.png,0.45,1.2,30,1,,,,,,,,,,,,,,,,,,,,,,,,,,,,,,,,,,,,,,,,,,,,,
,,,,,WIN24_028,22,Male ,2024-02-01_13h02.54.381,jersey_experiment_5,2023.2.2,Win32,85.47008547,,,,,,,,,,,,,,,,314.5221,315.8161,315.8161,318.3925,return,0.4425,,49.86979167,0,59,59,56,1,FBP-PT-19.png,0.37,1.2,57,0.5,,,,,,,,,,,,,,,,,,,,,,,,,,,,,,,,,,,,,,,,,,,,,
,,,,,WIN24_028,22,Male ,2024-02-01_13h02.54.381,jersey_experiment_5,2023.2.2,Win32,85.47008547,,,,,,,,,,,,,,,,318.395,320.1928,320.1928,321.6633,return,0.3312,,88.15104167,,,,,,FBP-RB-91.png,0.45,1.2,30,1,0,0,0,29,1,,,,,,,,,,,,,,,,,,,,,,,,,,,,,,,,,,,,,,,,
,,,,,WIN24_028,22,Male ,2024-02-01_13h02.54.381,jersey_experiment_5,2023.2.2,Win32,85.47008547,,,,,,,,,,,,,,,,321.6635,322.9574,322.9574,325.6282,return,0.3803,,77.99479167,,,,,,FBP-OG-18.png,0.43,1.2,9,0.5,0,1,1,8,1,,,,,,,,,,,,,,,,,,,,,,,,,,,,,,,,,,,,,,,,
,,,,,WIN24_028,22,Male ,2024-02-01_13h02.54.381,jersey_experiment_5,2023.2.2,Win32,85.47008547,,,,,,,,,,,,,,,,325.6284,327.4282,327.4282,330.452,return,0.7664,,31.51041667,,,,,,FBP-RB-81.png,0.35,1.2,21,1,0,2,2,20,1,,,,,,,,,,,,,,,,,,,,,,,,,,,,,,,,,,,,,,,,
,,,,,WIN24_028,22,Male ,2024-02-01_13h02.54.381,jersey_experiment_5,2023.2.2,Win32,85.47008547,,,,,,,,,,,,,,,,330.4522,331.7461,331.7461,334.2167,return,0.4773,,69.40104167,,,,,,FBP-PT-71.png,0.4,1.2,48,0.5,0,3,3,47,1,,,,,,,,,,,,,,,,,,,,,,,,,,,,,,,,,,,,,,,,
,,,,,WIN24_028,22,Male ,2024-02-01_13h02.54.381,jersey_experiment_5,2023.2.2,Win32,85.47008547,,,,,,,,,,,,,,,,334.2169,335.5109,335.511,337.2758,return,0.9927,,84.89583333,,,,,,FBP-OG-19.png,0.43,1.2,14,0.5,0,4,4,13,1,,,,,,,,,,,,,,,,,,,,,,,,,,,,,,,,,,,,,,,,
,,,,,WIN24_028,22,Male ,2024-02-01_13h02.54.381,jersey_experiment_5,2023.2.2,Win32,85.47008547,,,,,,,,,,,,,,,,337.276,338.5699,338.5699,341.3111,return,0.5536,,42.1875,,,,,,FBP-PT-71.png,0.37,1.2,47,0.5,0,5,5,46,1,,,,,,,,,,,,,,,,,,,,,,,,,,,,,,,,,,,,,,,,
,,,,,WIN24_028,22,Male ,2024-02-01_13h02.54.381,jersey_experiment_5,2023.2.2,Win32,85.47008547,,,,,,,,,,,,,,,,341.3113,343.1112,343.1113,344.3936,return,0.4311,,75.26041667,,,,,,FBP-RB-81.png,0.43,1.2,24,1,0,6,6,23,1,,,,,,,,,,,,,,,,,,,,,,,,,,,,,,,,,,,,,,,,
,,,,,WIN24_028,22,Male ,2024-02-01_13h02.54.381,jersey_experiment_5,2023.2.2,Win32,85.47008547,,,,,,,,,,,,,,,,344.3938,345.6877,345.6877,347.0054,return,0.5448,,89.453125,,,,,,FBP-OG-19.png,0.45,1.2,15,0.5,0,7,7,14,1,,,,,,,,,,,,,,,,,,,,,,,,,,,,,,,,,,,,,,,,
,,,,,WIN24_028,22,Male ,2024-02-01_13h02.54.381,jersey_experiment_5,2023.2.2,Win32,85.47008547,,,,,,,,,,,,,,,,347.0056,348.2997,348.2997,352.2056,return,0.5788,,82.16145833,,,,,,FBP-PT-81.png,0.37,1.2,52,0.5,0,8,8,51,1,,,,,,,,,,,,,,,,,,,,,,,,,,,,,,,,,,,,,,,,
,,,,,WIN24_028,22,Male ,2024-02-01_13h02.54.381,jersey_experiment_5,2023.2.2,Win32,85.47008547,,,,,,,,,,,,,,,,352.2058,354.0057,354.0057,356.1941,return,0.3438,,92.96875,,,,,,FBP-YG-18.png,0.43,1.2,39,1,0,9,9,38,1,,,,,,,,,,,,,,,,,,,,,,,,,,,,,,,,,,,,,,,,
,,,,,WIN24_028,22,Male ,2024-02-01_13h02.54.381,jersey_experiment_5,2023.2.2,Win32,85.47008547,,,,,,,,,,,,,,,,356.1943,357.9942,357.9942,361.4059,return,3.2133,,95.96354167,,,,,,FBP-RB-81.png,0.45,1.2,25,1,0,10,10,24,1,,,,,,,,,,,,,,,,,,,,,,,,,,,,,,,,,,,,,,,,
,,,,,WIN24_028,22,Male ,2024-02-01_13h02.54.381,jersey_experiment_5,2023.2.2,Win32,85.47008547,,,,,,,,,,,,,,,,361.4061,362.7002,362.7002,365.2767,return,0.3223,,94.27083333,,,,,,FBP-PT-91.png,0.45,1.2,60,0.5,0,11,11,59,1,,,,,,,,,,,,,,,,,,,,,,,,,,,,,,,,,,,,,,,,
,,,,,WIN24_028,22,Male ,2024-02-01_13h02.54.381,jersey_experiment_5,2023.2.2,Win32,85.47008547,,,,,,,,,,,,,,,,365.2769,366.5708,366.5708,368.3003,return,0.3913,,50.13020833,,,,,,FBP-OG-17.png,0.37,1.2,2,0.5,0,12,12,1,1,,,,,,,,,,,,,,,,,,,,,,,,,,,,,,,,,,,,,,,,
,,,,,WIN24_028,22,Male ,2024-02-01_13h02.54.381,jersey_experiment_5,2023.2.2,Win32,85.47008547,,,,,,,,,,,,,,,,368.3006,369.5945,369.5945,371.6651,return,0.3165,,64.19270833,,,,,,FBP-OG-19.png,0.4,1.2,13,0.5,0,13,13,12,1,,,,,,,,,,,,,,,,,,,,,,,,,,,,,,,,,,,,,,,,
,,,,,WIN24_028,22,Male ,2024-02-01_13h02.54.381,jersey_experiment_5,2023.2.2,Win32,85.47008547,,,,,,,,,,,,,,,,371.6654,373.4655,373.4655,374.4771,return,0.2984,,75,,,,,,FBP-RB-71.png,0.43,1.2,19,1,0,14,14,18,1,,,,,,,,,,,,,,,,,,,,,,,,,,,,,,,,,,,,,,,,
,,,,,WIN24_028,22,Male ,2024-02-01_13h02.54.381,jersey_experiment_5,2023.2.2,Win32,85.47008547,,,,,,,,,,,,,,,,374.4773,376.2771,376.2771,377.5476,return,0.3454,,63.80208333,,,,,,FBP-YG-18.png,0.4,1.2,38,1,0,15,15,37,1,,,,,,,,,,,,,,,,,,,,,,,,,,,,,,,,,,,,,,,,
,,,,,WIN24_028,22,Male ,2024-02-01_13h02.54.381,jersey_experiment_5,2023.2.2,Win32,85.47008547,,,,,,,,,,,,,,,,377.5479,378.8418,378.8418,380.3008,return,0.4042,,75.52083333,,,,,,FBP-OG-17.png,0.43,1.2,4,0.5,0,16,16,3,1,,,,,,,,,,,,,,,,,,,,,,,,,,,,,,,,,,,,,,,,
,,,,,WIN24_028,22,Male ,2024-02-01_13h02.54.381,jersey_experiment_5,2023.2.2,Win32,85.47008547,,,,,,,,,,,,,,,,380.301,382.101,382.101,384.2539,return,1.0622,,31.25,,,,,,FBP-YG-17.png,0.35,1.2,31,1,0,17,17,30,1,,,,,,,,,,,,,,,,,,,,,,,,,,,,,,,,,,,,,,,,
,,,,,WIN24_028,22,Male ,2024-02-01_13h02.54.381,jersey_experiment_5,2023.2.2,Win32,85.47008547,,,,,,,,,,,,,,,,384.2541,385.5481,385.5481,388.7011,return,1.8964,,54.6875,,,,,,FBP-OG-18.png,0.4,1.2,8,0.5,0,18,18,7,1,,,,,,,,,,,,,,,,,,,,,,,,,,,,,,,,,,,,,,,,
,,,,,WIN24_028,22,Male ,2024-02-01_13h02.54.381,jersey_experiment_5,2023.2.2,Win32,85.47008547,,,,,,,,,,,,,,,,388.7013,389.9953,389.9953,392.5248,return,0.4034,,75.26041667,,,,,,FBP-PT-81.png,0.43,1.2,54,0.5,0,19,19,53,1,,,,,,,,,,,,,,,,,,,,,,,,,,,,,,,,,,,,,,,,
,,,,,WIN24_028,22,Male ,2024-02-01_13h02.54.381,jersey_experiment_5,2023.2.2,Win32,85.47008547,,,,,,,,,,,,,,,,392.525,393.819,393.819,398.3602,return,0.7136,,91.66666667,,,,,,FBP-PT-91.png,0.43,1.2,59,0.5,0,20,20,58,1,,,,,,,,,,,,,,,,,,,,,,,,,,,,,,,,,,,,,,,,
,,,,,WIN24_028,22,Male ,2024-02-01_13h02.54.381,jersey_experiment_5,2023.2.2,Win32,85.47008547,,,,,,,,,,,,,,,,398.3604,399.6545,399.6545,402.0898,return,0.5013,,41.015625,,,,,,FBP-PT-91.png,0.37,1.2,57,0.5,0,21,21,56,1,,,,,,,,,,,,,,,,,,,,,,,,,,,,,,,,,,,,,,,,
,,,,,WIN24_028,22,Male ,2024-02-01_13h02.54.381,jersey_experiment_5,2023.2.2,Win32,85.47008547,,,,,,,,,,,,,,,,402.09,403.8899,403.89,407.9842,return,0.3529,,37.23958333,,,,,,FBP-YG-18.png,0.35,1.2,36,1,0,22,22,35,1,,,,,,,,,,,,,,,,,,,,,,,,,,,,,,,,,,,,,,,,
,,,,,WIN24_028,22,Male ,2024-02-01_13h02.54.381,jersey_experiment_5,2023.2.2,Win32,85.47008547,,,,,,,,,,,,,,,,407.9844,409.7842,409.7842,412.9842,return,2.0902,,84.89583333,,,,,,FBP-RB-91.png,0.43,1.2,29,1,0,23,23,28,1,,,,,,,,,,,,,,,,,,,,,,,,,,,,,,,,,,,,,,,,
,,,,,WIN24_028,22,Male ,2024-02-01_13h02.54.381,jersey_experiment_5,2023.2.2,Win32,85.47008547,,,,,,,,,,,,,,,,412.9844,414.2784,414.2784,416.3139,return,0.9602,,100,,,,,,FBP-OG-18.png,0.45,1.2,10,0.5,0,24,24,9,1,,,,,,,,,,,,,,,,,,,,,,,,,,,,,,,,,,,,,,,,
,,,,,WIN24_028,22,Male ,2024-02-01_13h02.54.381,jersey_experiment_5,2023.2.2,Win32,85.47008547,,,,,,,,,,,,,,,,416.3142,417.608,417.6081,418.8905,return,0.3938,,94.27083333,,,,,,FBP-PT-71.png,0.45,1.2,50,0.5,0,25,25,49,1,,,,,,,,,,,,,,,,,,,,,,,,,,,,,,,,,,,,,,,,
,,,,,WIN24_028,22,Male ,2024-02-01_13h02.54.381,jersey_experiment_5,2023.2.2,Win32,85.47008547,,,,,,,,,,,,,,,,418.8906,420.1846,420.1846,421.0081,return,0.3775,,92.96875,,,,,,FBP-PT-81.png,0.45,1.2,55,0.5,0,26,26,54,1,,,,,,,,,,,,,,,,,,,,,,,,,,,,,,,,,,,,,,,,
,,,,,WIN24_028,22,Male ,2024-02-01_13h02.54.381,jersey_experiment_5,2023.2.2,Win32,85.47008547,,,,,,,,,,,,,,,,421.0082,422.3024,422.3024,424.5613,return,0.3167,,74.86979167,,,,,,FBP-OG-17.png,0.4,1.2,3,0.5,0,27,27,2,1,,,,,,,,,,,,,,,,,,,,,,,,,,,,,,,,,,,,,,,,
,,,,,WIN24_028,22,Male ,2024-02-01_13h02.54.381,jersey_experiment_5,2023.2.2,Win32,85.47008547,,,,,,,,,,,,,,,,424.5615,426.3613,426.3613,428.6555,return,0.3782,,81.77083333,,,,,,FBP-YG-19.png,0.4,1.2,43,1,0,28,28,42,1,,,,,,,,,,,,,,,,,,,,,,,,,,,,,,,,,,,,,,,,
,,,,,WIN24_028,22,Male ,2024-02-01_13h02.54.381,jersey_experiment_5,2023.2.2,Win32,85.47008547,,,,,,,,,,,,,,,,428.6557,430.4556,430.4556,434.444,return,3.5821,,83.33333333,,,,,,FBP-YG-17.png,0.43,1.2,34,1,0,29,29,33,1,,,,,,,,,,,,,,,,,,,,,,,,,,,,,,,,,,,,,,,,
,,,,,WIN24_028,22,Male ,2024-02-01_13h02.54.381,jersey_experiment_5,2023.2.2,Win32,85.47008547,,,,,,,,,,,,,,,,434.4441,435.7381,435.7381,437.6793,return,0.3536,,38.02083333,,,,,,FBP-PT-81.png,0.35,1.2,51,0.5,0,30,30,50,1,,,,,,,,,,,,,,,,,,,,,,,,,,,,,,,,,,,,,,,,
,,,,,WIN24_028,22,Male ,2024-02-01_13h02.54.381,jersey_experiment_5,2023.2.2,Win32,85.47008547,,,,,,,,,,,,,,,,437.6795,438.9736,438.9736,441.7737,return,0.3066,,32.03125,,,,,,FBP-OG-18.png,0.35,1.2,6,0.5,0,31,31,5,1,,,,,,,,,,,,,,,,,,,,,,,,,,,,,,,,,,,,,,,,
,,,,,WIN24_028,22,Male ,2024-02-01_13h02.54.381,jersey_experiment_5,2023.2.2,Win32,85.47008547,,,,,,,,,,,,,,,,441.7739,443.5736,443.5737,445.5149,return,0.3711,,46.74479167,,,,,,FBP-RB-71.png,0.37,1.2,17,1,0,32,32,16,1,,,,,,,,,,,,,,,,,,,,,,,,,,,,,,,,,,,,,,,,
,,,,,WIN24_028,22,Male ,2024-02-01_13h02.54.381,jersey_experiment_5,2023.2.2,Win32,85.47008547,,,,,,,,,,,,,,,,445.5152,447.3151,447.3151,448.2915,return,0.3441,,64.84375,,,,,,FBP-RB-81.png,0.4,1.2,23,1,0,33,33,22,1,,,,,,,,,,,,,,,,,,,,,,,,,,,,,,,,,,,,,,,,
,,,,,WIN24_028,22,Male ,2024-02-01_13h02.54.381,jersey_experiment_5,2023.2.2,Win32,85.47008547,,,,,,,,,,,,,,,,448.2917,449.5857,449.5857,451.8917,return,1.2232,,56.11979167,,,,,,FBP-OG-17.png,0.35,1.2,1,0.5,0,34,34,0,1,,,,,,,,,,,,,,,,,,,,,,,,,,,,,,,,,,,,,,,,
,,,,,WIN24_028,22,Male ,2024-02-01_13h02.54.381,jersey_experiment_5,2023.2.2,Win32,85.47008547,,,,,,,,,,,,,,,,451.892,453.6918,453.6918,456.8917,return,0.3448,,74.86979167,,,,,,FBP-RB-91.png,0.4,1.2,28,1,0,35,35,27,1,,,,,,,,,,,,,,,,,,,,,,,,,,,,,,,,,,,,,,,,
,,,,,WIN24_028,22,Male ,2024-02-01_13h02.54.381,jersey_experiment_5,2023.2.2,Win32,85.47008547,,,,,,,,,,,,,,,,456.8919,458.6919,458.6919,459.7742,return,0.378,,80.72916667,,,,,,FBP-YG-17.png,0.4,1.2,33,1,0,36,36,32,1,,,,,,,,,,,,,,,,,,,,,,,,,,,,,,,,,,,,,,,,
,,,,,WIN24_028,22,Male ,2024-02-01_13h02.54.381,jersey_experiment_5,2023.2.2,Win32,85.47008547,,,,,,,,,,,,,,,,459.7745,461.0685,461.0685,464.2215,return,0.3449,,75,,,,,,FBP-PT-91.png,0.4,1.2,58,0.5,0,37,37,57,1,,,,,,,,,,,,,,,,,,,,,,,,,,,,,,,,,,,,,,,,
,,,,,WIN24_028,22,Male ,2024-02-01_13h02.54.381,jersey_experiment_5,2023.2.2,Win32,85.47008547,,,,,,,,,,,,,,,,464.2217,465.5156,465.5156,466.7979,return,0.3658,,81.38020833,,,,,,FBP-PT-81.png,0.4,1.2,53,0.5,0,38,38,52,1,,,,,,,,,,,,,,,,,,,,,,,,,,,,,,,,,,,,,,,,
,,,,,WIN24_028,22,Male ,2024-02-01_13h02.54.381,jersey_experiment_5,2023.2.2,Win32,85.47008547,,,,,,,,,,,,,,,,466.7982,468.5984,468.5984,470.4804,return,0.3539,,42.31770833,,,,,,FBP-RB-71.png,0.35,1.2,16,1,0,39,39,15,1,,,,,,,,,,,,,,,,,,,,,,,,,,,,,,,,,,,,,,,,
,,,,,WIN24_028,22,Male ,2024-02-01_13h02.54.381,jersey_experiment_5,2023.2.2,Win32,85.47008547,,,,,,,,,,,,,,,,470.4806,472.2806,472.2806,473.0336,return,0.3712,,40.625,,,,,,FBP-RB-81.png,0.37,1.2,22,1,0,40,40,21,1,,,,,,,,,,,,,,,,,,,,,,,,,,,,,,,,,,,,,,,,
,,,,,WIN24_028,22,Male ,2024-02-01_13h02.54.381,jersey_experiment_5,2023.2.2,Win32,85.47008547,,,,,,,,,,,,,,,,473.0337,474.8337,474.8337,477.3631,return,0.3406,,76.04166667,,,,,,FBP-YG-19.png,0.43,1.2,44,1,0,41,41,43,1,,,,,,,,,,,,,,,,,,,,,,,,,,,,,,,,,,,,,,,,
,,,,,WIN24_028,22,Male ,2024-02-01_13h02.54.381,jersey_experiment_5,2023.2.2,Win32,85.47008547,,,,,,,,,,,,,,,,477.3633,478.6572,478.6572,482.1398,return,1.3559,,36.71875,,,,,,FBP-PT-91.png,0.35,1.2,56,0.5,0,42,42,55,1,,,,,,,,,,,,,,,,,,,,,,,,,,,,,,,,,,,,,,,,
,,,,,WIN24_028,22,Male ,2024-02-01_13h02.54.381,jersey_experiment_5,2023.2.2,Win32,85.47008547,,,,,,,,,,,,,,,,482.14,483.9399,483.9399,485.634,return,0.2019,,62.36979167,,,,,,FBP-RB-91.png,0.37,1.2,27,1,0,43,43,26,1,,,,,,,,,,,,,,,,,,,,,,,,,,,,,,,,,,,,,,,,
,,,,,WIN24_028,22,Male ,2024-02-01_13h02.54.381,jersey_experiment_5,2023.2.2,Win32,85.47008547,,,,,,,,,,,,,,,,485.6341,487.4342,487.4342,488.0106,return,0.1691,,57.421875,,,,,,FBP-RB-91.png,0.35,1.2,26,1,0,44,44,25,1,,,,,,,,,,,,,,,,,,,,,,,,,,,,,,,,,,,,,,,,
,,,,,WIN24_028,22,Male ,2024-02-01_13h02.54.381,jersey_experiment_5,2023.2.2,Win32,85.47008547,,,,,,,,,,,,,,,,488.0108,489.8108,489.8108,490.7872,return,0.1638,,100,,,,,,FBP-YG-17.png,0.45,1.2,35,1,0,45,45,34,1,,,,,,,,,,,,,,,,,,,,,,,,,,,,,,,,,,,,,,,,
,,,,,WIN24_028,22,Male ,2024-02-01_13h02.54.381,jersey_experiment_5,2023.2.2,Win32,85.47008547,,,,,,,,,,,,,,,,490.7874,492.5872,492.5873,494.046,return,0.5912,,50.13020833,,,,,,FBP-YG-19.png,0.35,1.2,41,1,0,46,46,40,1,,,,,,,,,,,,,,,,,,,,,,,,,,,,,,,,,,,,,,,,
,,,,,WIN24_028,22,Male ,2024-02-01_13h02.54.381,jersey_experiment_5,2023.2.2,Win32,85.47008547,,,,,,,,,,,,,,,,494.0462,495.3402,495.3402,496.2227,return,0.1083,,49.73958333,,,,,,FBP-OG-19.png,0.37,1.2,12,0.5,0,47,47,11,1,,,,,,,,,,,,,,,,,,,,,,,,,,,,,,,,,,,,,,,,
,,,,,WIN24_028,22,Male ,2024-02-01_13h02.54.381,jersey_experiment_5,2023.2.2,Win32,85.47008547,,,,,,,,,,,,,,,,496.2229,498.0227,498.0227,499.5051,return,0.1647,,75.13020833,,,,,,FBP-RB-71.png,0.4,1.2,18,1,0,48,48,17,1,,,,,,,,,,,,,,,,,,,,,,,,,,,,,,,,,,,,,,,,
,,,,,WIN24_028,22,Male ,2024-02-01_13h02.54.381,jersey_experiment_5,2023.2.2,Win32,85.47008547,,,,,,,,,,,,,,,,499.5053,501.3052,501.3052,503.1052,return,1.0119,,66.53645833,,,,,,FBP-YG-19.png,0.37,1.2,42,1,0,49,49,41,1,,,,,,,,,,,,,,,,,,,,,,,,,,,,,,,,,,,,,,,,
,,,,,WIN24_028,22,Male ,2024-02-01_13h02.54.381,jersey_experiment_5,2023.2.2,Win32,85.47008547,,,,,,,,,,,,,,,,503.1054,504.3994,504.3994,508.0349,return,0.1651,,49.609375,,,,,,FBP-PT-71.png,0.35,1.2,46,0.5,0,50,50,45,1,,,,,,,,,,,,,,,,,,,,,,,,,,,,,,,,,,,,,,,,
,,,,,WIN24_028,22,Male ,2024-02-01_13h02.54.381,jersey_experiment_5,2023.2.2,Win32,85.47008547,,,,,,,,,,,,,,,,508.0352,509.3291,509.3291,510.4937,return,0.5309,,61.84895833,,,,,,FBP-OG-18.png,0.37,1.2,7,0.5,0,51,51,6,1,,,,,,,,,,,,,,,,,,,,,,,,,,,,,,,,,,,,,,,,
,,,,,WIN24_028,22,Male ,2024-02-01_13h02.54.381,jersey_experiment_5,2023.2.2,Win32,85.47008547,,,,,,,,,,,,,,,,510.494,512.294,512.294,513.5292,return,0.2765,,82.68229167,,,,,,FBP-YG-19.png,0.45,1.2,45,1,0,52,52,44,1,,,,,,,,,,,,,,,,,,,,,,,,,,,,,,,,,,,,,,,,
,,,,,WIN24_028,22,Male ,2024-02-01_13h02.54.381,jersey_experiment_5,2023.2.2,Win32,85.47008547,,,,,,,,,,,,,,,,513.5294,514.8233,514.8233,516.2115,return,0.1982,,82.8125,,,,,,FBP-PT-71.png,0.43,1.2,49,0.5,0,53,53,48,1,,,,,,,,,,,,,,,,,,,,,,,,,,,,,,,,,,,,,,,,
,,,,,WIN24_028,22,Male ,2024-02-01_13h02.54.381,jersey_experiment_5,2023.2.2,Win32,85.47008547,,,,,,,,,,,,,,,,516.2118,518.0117,518.0118,518.8587,return,0.1358,,66.015625,,,,,,FBP-YG-17.png,0.37,1.2,32,1,0,54,54,31,1,,,,,,,,,,,,,,,,,,,,,,,,,,,,,,,,,,,,,,,,
,,,,,WIN24_028,22,Male ,2024-02-01_13h02.54.381,jersey_experiment_5,2023.2.2,Win32,85.47008547,,,,,,,,,,,,,,,,518.8589,520.6587,520.6588,522.0825,return,0.1176,,79.16666667,,,,,,FBP-YG-18.png,0.45,1.2,40,1,0,55,55,39,1,,,,,,,,,,,,,,,,,,,,,,,,,,,,,,,,,,,,,,,,
,,,,,WIN24_028,22,Male ,2024-02-01_13h02.54.381,jersey_experiment_5,2023.2.2,Win32,85.47008547,,,,,,,,,,,,,,,,522.0827,523.8824,523.8824,525.3531,return,0.1462,,91.92708333,,,,,,FBP-RB-71.png,0.45,1.2,20,1,0,56,56,19,1,,,,,,,,,,,,,,,,,,,,,,,,,,,,,,,,,,,,,,,,
,,,,,WIN24_028,22,Male ,2024-02-01_13h02.54.381,jersey_experiment_5,2023.2.2,Win32,85.47008547,,,,,,,,,,,,,,,,525.3532,526.6473,526.6473,529.2944,return,0.0831,,67.83854167,,,,,,FBP-OG-19.png,0.35,1.2,11,0.5,0,57,57,10,1,,,,,,,,,,,,,,,,,,,,,,,,,,,,,,,,,,,,,,,,
,,,,,WIN24_028,22,Male ,2024-02-01_13h02.54.381,jersey_experiment_5,2023.2.2,Win32,85.47008547,,,,,,,,,,,,,,,,529.2946,530.5885,530.5886,532.1534,return,0.1138,,81.11979167,,,,,,FBP-OG-17.png,0.45,1.2,5,0.5,0,58,58,4,1,,,,,,,,,,,,,,,,,,,,,,,,,,,,,,,,,,,,,,,,
,,,,,WIN24_028,22,Male ,2024-02-01_13h02.54.381,jersey_experiment_5,2023.2.2,Win32,85.47008547,,,,,,,,,,,,,,,,532.1536,533.9533,533.9534,535.6125,return,0.3088,,70.44270833,,,,,,FBP-YG-18.png,0.37,1.2,37,1,0,59,59,36,1,,,,,,,,,,,,,,,,,,,,,,,,,,,,,,,,,,,,,,,,
,,,,,WIN24_028,22,Male ,2024-02-01_13h02.54.381,jersey_experiment_5,2023.2.2,Win32,85.47008547,,,,,,,,,,,,,,,,,,,,,,,,,,,,,,,,,,,,,,,535.6128,655.617,,,,,,,,,,,,,,,,,,,,,,,,,,,,,,,,,,,,,,
,,,,,WIN24_028,22,Male ,2024-02-01_13h02.54.381,jersey_experiment_5,2023.2.2,Win32,85.47008547,,,,,,,,,,,,,,,,,,,,,,,,,,,,,,,,,,,,,,,,,655.6171,657.758,return,2.1323,,,,,,,,,,,,,,,,,,,,,,,,,,,,,,,,,,
,,,,,WIN24_028,22,Male ,2024-02-01_13h02.54.381,jersey_experiment_5,2023.2.2,Win32,85.47008547,,,,,,,,,,,,,,,,657.7643,659.5579,659.558,660.9698,return,0.0789,,37.890625,,,,,,FBP-PT-18.png,0.35,1.2,51,1,,,,,,,,,,,,,0,0,0,50,1,,,,,,,,,,,,,,,,,,,,,,,,,,,,
,,,,,WIN24_028,22,Male ,2024-02-01_13h02.54.381,jersey_experiment_5,2023.2.2,Win32,85.47008547,,,,,,,,,,,,,,,,660.97,662.2639,662.264,664.4758,return,0.1335,,73.30729167,,,,,,FBP-RB-18.png,0.4,1.2,23,0.5,,,,,,,,,,,,,0,1,1,22,1,,,,,,,,,,,,,,,,,,,,,,,,,,,,
,,,,,WIN24_028,22,Male ,2024-02-01_13h02.54.381,jersey_experiment_5,2023.2.2,Win32,85.47008547,,,,,,,,,,,,,,,,664.476,665.7699,665.7699,666.5112,return,0.0706,,82.16145833,,,,,,FBP-YG-81.png,0.43,1.2,39,0.5,,,,,,,,,,,,,0,2,2,38,1,,,,,,,,,,,,,,,,,,,,,,,,,,,,
,,,,,WIN24_028,22,Male ,2024-02-01_13h02.54.381,jersey_experiment_5,2023.2.2,Win32,85.47008547,,,,,,,,,,,,,,,,666.5113,667.8053,667.8053,669.2995,return,0.1649,,36.45833333,,,,,,FBP-RB-19.png,0.35,1.2,26,0.5,,,,,,,,,,,,,0,3,3,25,1,,,,,,,,,,,,,,,,,,,,,,,,,,,,
,,,,,WIN24_028,22,Male ,2024-02-01_13h02.54.381,jersey_experiment_5,2023.2.2,Win32,85.47008547,,,,,,,,,,,,,,,,669.2997,670.5936,670.5936,671.2996,return,0.0943,,75.13020833,,,,,,FBP-RB-18.png,0.45,1.2,25,0.5,,,,,,,,,,,,,0,4,4,24,1,,,,,,,,,,,,,,,,,,,,,,,,,,,,
,,,,,WIN24_028,22,Male ,2024-02-01_13h02.54.381,jersey_experiment_5,2023.2.2,Win32,85.47008547,,,,,,,,,,,,,,,,671.2998,672.5937,672.5937,673.0173,return,0.0783,,74.73958333,,,,,,FBP-RB-19.png,0.43,1.2,29,0.5,,,,,,,,,,,,,0,5,5,28,1,,,,,,,,,,,,,,,,,,,,,,,,,,,,
,,,,,WIN24_028,22,Male ,2024-02-01_13h02.54.381,jersey_experiment_5,2023.2.2,Win32,85.47008547,,,,,,,,,,,,,,,,673.0175,674.3114,674.3114,675.9704,return,0.1078,,50.26041667,,,,,,FBP-YG-71.png,0.35,1.2,31,0.5,,,,,,,,,,,,,0,6,6,30,1,,,,,,,,,,,,,,,,,,,,,,,,,,,,
,,,,,WIN24_028,22,Male ,2024-02-01_13h02.54.381,jersey_experiment_5,2023.2.2,Win32,85.47008547,,,,,,,,,,,,,,,,675.9707,677.2645,677.2645,678.0883,return,0.1147,,74.609375,,,,,,FBP-RB-19.png,0.4,1.2,28,0.5,,,,,,,,,,,,,0,7,7,27,1,,,,,,,,,,,,,,,,,,,,,,,,,,,,
,,,,,WIN24_028,22,Male ,2024-02-01_13h02.54.381,jersey_experiment_5,2023.2.2,Win32,85.47008547,,,,,,,,,,,,,,,,678.0885,679.8881,679.8881,680.4647,return,0.061,,74.73958333,,,,,,FBP-OG-71.png,0.4,1.2,3,1,,,,,,,,,,,,,0,8,8,2,1,,,,,,,,,,,,,,,,,,,,,,,,,,,,
,,,,,WIN24_028,22,Male ,2024-02-01_13h02.54.381,jersey_experiment_5,2023.2.2,Win32,85.47008547,,,,,,,,,,,,,,,,680.4649,682.2647,682.2647,683.8411,return,0.0567,,63.28125,,,,,,FBP-PT-19.png,0.4,1.2,58,1,,,,,,,,,,,,,0,9,9,57,1,,,,,,,,,,,,,,,,,,,,,,,,,,,,
,,,,,WIN24_028,22,Male ,2024-02-01_13h02.54.381,jersey_experiment_5,2023.2.2,Win32,85.47008547,,,,,,,,,,,,,,,,683.8413,685.1354,685.1354,686.1236,return,0.1463,,48.69791667,,,,,,FBP-YG-81.png,0.35,1.2,36,0.5,,,,,,,,,,,,,0,10,10,35,1,,,,,,,,,,,,,,,,,,,,,,,,,,,,
,,,,,WIN24_028,22,Male ,2024-02-01_13h02.54.381,jersey_experiment_5,2023.2.2,Win32,85.47008547,,,,,,,,,,,,,,,,686.1238,687.4178,687.4178,688.6413,return,0.0941,,89.71354167,,,,,,FBP-RB-19.png,0.45,1.2,30,0.5,,,,,,,,,,,,,0,11,11,29,1,,,,,,,,,,,,,,,,,,,,,,,,,,,,
,,,,,WIN24_028,22,Male ,2024-02-01_13h02.54.381,jersey_experiment_5,2023.2.2,Win32,85.47008547,,,,,,,,,,,,,,,,688.6415,690.4416,690.4416,691.8179,return,0.534,,68.09895833,,,,,,FBP-PT-19.png,0.37,1.2,57,1,,,,,,,,,,,,,0,12,12,56,1,,,,,,,,,,,,,,,,,,,,,,,,,,,,
,,,,,WIN24_028,22,Male ,2024-02-01_13h02.54.381,jersey_experiment_5,2023.2.2,Win32,85.47008547,,,,,,,,,,,,,,,,691.818,693.1121,693.1121,694.771,return,0.0715,,50,,,,,,FBP-RB-18.png,0.35,1.2,21,0.5,,,,,,,,,,,,,0,13,13,20,1,,,,,,,,,,,,,,,,,,,,,,,,,,,,
,,,,,WIN24_028,22,Male ,2024-02-01_13h02.54.381,jersey_experiment_5,2023.2.2,Win32,85.47008547,,,,,,,,,,,,,,,,694.7712,696.0651,696.0652,697.8182,return,0.1711,,74.34895833,,,,,,FBP-YG-91.png,0.4,1.2,43,0.5,,,,,,,,,,,,,0,14,14,42,1,,,,,,,,,,,,,,,,,,,,,,,,,,,,
,,,,,WIN24_028,22,Male ,2024-02-01_13h02.54.381,jersey_experiment_5,2023.2.2,Win32,85.47008547,,,,,,,,,,,,,,,,697.8184,699.1123,699.1123,700.1948,return,0.2117,,100,,,,,,FBP-RB-17.png,0.45,1.2,20,0.5,,,,,,,,,,,,,0,15,15,19,1,,,,,,,,,,,,,,,,,,,,,,,,,,,,
,,,,,WIN24_028,22,Male ,2024-02-01_13h02.54.381,jersey_experiment_5,2023.2.2,Win32,85.47008547,,,,,,,,,,,,,,,,700.195,701.995,701.995,703.0418,return,0.1177,,92.578125,,,,,,FBP-PT-17.png,0.45,1.2,50,1,,,,,,,,,,,,,0,16,16,49,1,,,,,,,,,,,,,,,,,,,,,,,,,,,,
,,,,,WIN24_028,22,Male ,2024-02-01_13h02.54.381,jersey_experiment_5,2023.2.2,Win32,85.47008547,,,,,,,,,,,,,,,,703.0421,704.8421,704.8421,706.842,return,0.4992,,42.83854167,,,,,,FBP-OG-71.png,0.35,1.2,1,1,,,,,,,,,,,,,0,17,17,0,1,,,,,,,,,,,,,,,,,,,,,,,,,,,,
,,,,,WIN24_028,22,Male ,2024-02-01_13h02.54.381,jersey_experiment_5,2023.2.2,Win32,85.47008547,,,,,,,,,,,,,,,,706.8422,708.6422,708.6422,709.3244,return,0.0615,,64.32291667,,,,,,FBP-PT-18.png,0.45,1.2,55,1,,,,,,,,,,,,,0,18,18,54,1,,,,,,,,,,,,,,,,,,,,,,,,,,,,
,,,,,WIN24_028,22,Male ,2024-02-01_13h02.54.381,jersey_experiment_5,2023.2.2,Win32,85.47008547,,,,,,,,,,,,,,,,709.3246,711.1247,711.1247,712.1245,return,0.169,,66.015625,,,,,,FBP-OG-91.png,0.4,1.2,13,1,,,,,,,,,,,,,0,19,19,12,1,,,,,,,,,,,,,,,,,,,,,,,,,,,,
,,,,,WIN24_028,22,Male ,2024-02-01_13h02.54.381,jersey_experiment_5,2023.2.2,Win32,85.47008547,,,,,,,,,,,,,,,,712.1248,713.9247,713.9248,714.6541,return,0.0951,,50.52083333,,,,,,FBP-PT-17.png,0.35,1.2,46,1,,,,,,,,,,,,,0,20,20,45,1,,,,,,,,,,,,,,,,,,,,,,,,,,,,
,,,,,WIN24_028,22,Male ,2024-02-01_13h02.54.381,jersey_experiment_5,2023.2.2,Win32,85.47008547,,,,,,,,,,,,,,,,714.6543,715.9483,715.9483,717.3602,return,0.0237,,74.34895833,,,,,,FBP-YG-81.png,0.45,1.2,40,0.5,,,,,,,,,,,,,0,21,21,39,1,,,,,,,,,,,,,,,,,,,,,,,,,,,,
,,,,,WIN24_028,22,Male ,2024-02-01_13h02.54.381,jersey_experiment_5,2023.2.2,Win32,85.47008547,,,,,,,,,,,,,,,,717.3603,718.6543,718.6543,719.56,return,0.0657,,64.19270833,,,,,,FBP-YG-91.png,0.37,1.2,42,0.5,,,,,,,,,,,,,0,22,22,41,1,,,,,,,,,,,,,,,,,,,,,,,,,,,,
,,,,,WIN24_028,22,Male ,2024-02-01_13h02.54.381,jersey_experiment_5,2023.2.2,Win32,85.47008547,,,,,,,,,,,,,,,,719.5603,721.3601,721.3602,722.1603,return,0.0246,,81.25,,,,,,FBP-PT-18.png,0.43,1.2,54,1,,,,,,,,,,,,,0,23,23,53,1,,,,,,,,,,,,,,,,,,,,,,,,,,,,
,,,,,WIN24_028,22,Male ,2024-02-01_13h02.54.381,jersey_experiment_5,2023.2.2,Win32,85.47008547,,,,,,,,,,,,,,,,722.1605,723.9603,723.9603,727.1369,return,1.6,,89.453125,,,,,,FBP-OG-91.png,0.43,1.2,14,1,,,,,,,,,,,,,0,24,24,13,1,,,,,,,,,,,,,,,,,,,,,,,,,,,,
,,,,,WIN24_028,22,Male ,2024-02-01_13h02.54.381,jersey_experiment_5,2023.2.2,Win32,85.47008547,,,,,,,,,,,,,,,,727.1372,728.937,728.9372,731.2312,return,0.2841,,87.23958333,,,,,,FBP-OG-81.png,0.43,1.2,9,1,,,,,,,,,,,,,0,25,25,8,1,,,,,,,,,,,,,,,,,,,,,,,,,,,,
,,,,,WIN24_028,22,Male ,2024-02-01_13h02.54.381,jersey_experiment_5,2023.2.2,Win32,85.47008547,,,,,,,,,,,,,,,,731.2314,733.0313,733.0313,734.1724,return,0.1219,,85.41666667,,,,,,FBP-PT-19.png,0.43,1.2,59,1,,,,,,,,,,,,,0,26,26,58,1,,,,,,,,,,,,,,,,,,,,,,,,,,,,
,,,,,WIN24_028,22,Male ,2024-02-01_13h02.54.381,jersey_experiment_5,2023.2.2,Win32,85.47008547,,,,,,,,,,,,,,,,734.1726,735.9726,735.9727,736.9373,return,0.0764,,90.88541667,,,,,,FBP-OG-81.png,0.45,1.2,10,1,,,,,,,,,,,,,0,27,27,9,1,,,,,,,,,,,,,,,,,,,,,,,,,,,,
,,,,,WIN24_028,22,Male ,2024-02-01_13h02.54.381,jersey_experiment_5,2023.2.2,Win32,85.47008547,,,,,,,,,,,,,,,,736.9375,738.7373,738.7373,741.1844,return,1.8592,,96.61458333,,,,,,FBP-OG-91.png,0.45,1.2,15,1,,,,,,,,,,,,,0,28,28,14,1,,,,,,,,,,,,,,,,,,,,,,,,,,,,
,,,,,WIN24_028,22,Male ,2024-02-01_13h02.54.381,jersey_experiment_5,2023.2.2,Win32,85.47008547,,,,,,,,,,,,,,,,741.1845,742.4786,742.4786,744.0316,return,0.1424,,79.03645833,,,,,,FBP-YG-81.png,0.4,1.2,38,0.5,,,,,,,,,,,,,0,29,29,37,1,,,,,,,,,,,,,,,,,,,,,,,,,,,,
,,,,,WIN24_028,22,Male ,2024-02-01_13h02.54.381,jersey_experiment_5,2023.2.2,Win32,85.47008547,,,,,,,,,,,,,,,,744.0318,745.8318,745.8318,748.1729,return,0.1215,,91.66666667,,,,,,FBP-OG-71.png,0.45,1.2,5,1,,,,,,,,,,,,,0,30,30,4,1,,,,,,,,,,,,,,,,,,,,,,,,,,,,
,,,,,WIN24_028,22,Male ,2024-02-01_13h02.54.381,jersey_experiment_5,2023.2.2,Win32,85.47008547,,,,,,,,,,,,,,,,748.1731,749.4671,749.4671,750.8908,return,0.1118,,88.02083333,,,,,,FBP-RB-18.png,0.43,1.2,24,0.5,,,,,,,,,,,,,0,31,31,23,1,,,,,,,,,,,,,,,,,,,,,,,,,,,,
,,,,,WIN24_028,22,Male ,2024-02-01_13h02.54.381,jersey_experiment_5,2023.2.2,Win32,85.47008547,,,,,,,,,,,,,,,,750.891,752.6907,752.6907,755.2438,return,0.1678,,37.890625,,,,,,FBP-OG-91.png,0.35,1.2,11,1,,,,,,,,,,,,,0,32,32,10,1,,,,,,,,,,,,,,,,,,,,,,,,,,,,
,,,,,WIN24_028,22,Male ,2024-02-01_13h02.54.381,jersey_experiment_5,2023.2.2,Win32,85.47008547,,,,,,,,,,,,,,,,755.2441,756.538,756.538,757.9497,return,0.3069,,37.890625,,,,,,FBP-YG-71.png,0.37,1.2,32,0.5,,,,,,,,,,,,,0,33,33,31,1,,,,,,,,,,,,,,,,,,,,,,,,,,,,
,,,,,WIN24_028,22,Male ,2024-02-01_13h02.54.381,jersey_experiment_5,2023.2.2,Win32,85.47008547,,,,,,,,,,,,,,,,757.9499,759.244,759.244,760.5851,return,0.0196,,49.73958333,,,,,,FBP-RB-17.png,0.4,1.2,18,0.5,,,,,,,,,,,,,0,34,34,17,1,,,,,,,,,,,,,,,,,,,,,,,,,,,,
,,,,,WIN24_028,22,Male ,2024-02-01_13h02.54.381,jersey_experiment_5,2023.2.2,Win32,85.47008547,,,,,,,,,,,,,,,,760.5853,762.3853,762.3854,764.8089,return,0.7003,,73.17708333,,,,,,FBP-PT-19.png,0.45,1.2,60,1,,,,,,,,,,,,,0,35,35,59,1,,,,,,,,,,,,,,,,,,,,,,,,,,,,
,,,,,WIN24_028,22,Male ,2024-02-01_13h02.54.381,jersey_experiment_5,2023.2.2,Win32,85.47008547,,,,,,,,,,,,,,,,764.8091,766.6089,766.6089,767.9619,return,0.1012,,36.58854167,,,,,,FBP-OG-81.png,0.35,1.2,6,1,,,,,,,,,,,,,0,36,36,5,1,,,,,,,,,,,,,,,,,,,,,,,,,,,,
,,,,,WIN24_028,22,Male ,2024-02-01_13h02.54.381,jersey_experiment_5,2023.2.2,Win32,85.47008547,,,,,,,,,,,,,,,,767.9621,769.7621,769.7621,770.8796,return,0.058,,49.86979167,,,,,,FBP-OG-81.png,0.4,1.2,8,1,,,,,,,,,,,,,0,37,37,7,1,,,,,,,,,,,,,,,,,,,,,,,,,,,,
,,,,,WIN24_028,22,Male ,2024-02-01_13h02.54.381,jersey_experiment_5,2023.2.2,Win32,85.47008547,,,,,,,,,,,,,,,,770.8798,772.6798,772.6799,773.1975,return,0.143,,49.86979167,,,,,,FBP-PT-18.png,0.37,1.2,52,1,,,,,,,,,,,,,0,38,38,51,1,,,,,,,,,,,,,,,,,,,,,,,,,,,,
,,,,,WIN24_028,22,Male ,2024-02-01_13h02.54.381,jersey_experiment_5,2023.2.2,Win32,85.47008547,,,,,,,,,,,,,,,,773.1976,774.4916,774.4916,775.2444,return,0.11,,49.86979167,,,,,,FBP-YG-81.png,0.37,1.2,37,0.5,,,,,,,,,,,,,0,39,39,36,1,,,,,,,,,,,,,,,,,,,,,,,,,,,,
,,,,,WIN24_028,22,Male ,2024-02-01_13h02.54.381,jersey_experiment_5,2023.2.2,Win32,85.47008547,,,,,,,,,,,,,,,,775.2448,777.0446,777.0446,777.5388,return,0.0706,,49.86979167,,,,,,FBP-PT-18.png,0.4,1.2,53,1,,,,,,,,,,,,,0,40,40,52,1,,,,,,,,,,,,,,,,,,,,,,,,,,,,
,,,,,WIN24_028,22,Male ,2024-02-01_13h02.54.381,jersey_experiment_5,2023.2.2,Win32,85.47008547,,,,,,,,,,,,,,,,777.5389,778.8328,778.8329,781.1858,return,0.6832,,68.88020833,,,,,,FBP-RB-17.png,0.43,1.2,19,0.5,,,,,,,,,,,,,0,41,41,18,1,,,,,,,,,,,,,,,,,,,,,,,,,,,,
,,,,,WIN24_028,22,Male ,2024-02-01_13h02.54.381,jersey_experiment_5,2023.2.2,Win32,85.47008547,,,,,,,,,,,,,,,,781.1861,782.9862,782.9862,783.7626,return,0.1077,,67.1875,,,,,,FBP-PT-17.png,0.4,1.2,48,1,,,,,,,,,,,,,0,42,42,47,1,,,,,,,,,,,,,,,,,,,,,,,,,,,,
,,,,,WIN24_028,22,Male ,2024-02-01_13h02.54.381,jersey_experiment_5,2023.2.2,Win32,85.47008547,,,,,,,,,,,,,,,,783.7628,785.0567,785.0567,786.7155,return,0.1466,,63.28125,,,,,,FBP-YG-71.png,0.4,1.2,33,0.5,,,,,,,,,,,,,0,43,43,32,1,,,,,,,,,,,,,,,,,,,,,,,,,,,,
,,,,,WIN24_028,22,Male ,2024-02-01_13h02.54.381,jersey_experiment_5,2023.2.2,Win32,85.47008547,,,,,,,,,,,,,,,,786.7158,788.0097,788.0097,789.2921,return,0.1105,,37.36979167,,,,,,FBP-YG-91.png,0.35,1.2,41,0.5,,,,,,,,,,,,,0,44,44,40,1,,,,,,,,,,,,,,,,,,,,,,,,,,,,
,,,,,WIN24_028,22,Male ,2024-02-01_13h02.54.381,jersey_experiment_5,2023.2.2,Win32,85.47008547,,,,,,,,,,,,,,,,789.2923,790.5863,790.5864,791.7863,return,0.1694,,86.71875,,,,,,FBP-YG-71.png,0.45,1.2,35,0.5,,,,,,,,,,,,,0,45,45,34,1,,,,,,,,,,,,,,,,,,,,,,,,,,,,
,,,,,WIN24_028,22,Male ,2024-02-01_13h02.54.381,jersey_experiment_5,2023.2.2,Win32,85.47008547,,,,,,,,,,,,,,,,791.7865,793.5864,793.5864,794.2217,return,0.1442,,85.67708333,,,,,,FBP-PT-17.png,0.43,1.2,49,1,,,,,,,,,,,,,0,46,46,48,1,,,,,,,,,,,,,,,,,,,,,,,,,,,,
,,,,,WIN24_028,22,Male ,2024-02-01_13h02.54.381,jersey_experiment_5,2023.2.2,Win32,85.47008547,,,,,,,,,,,,,,,,794.2219,795.5158,795.5159,796.8925,return,0.1908,,74.21875,,,,,,FBP-RB-18.png,0.37,1.2,22,0.5,,,,,,,,,,,,,0,47,47,21,1,,,,,,,,,,,,,,,,,,,,,,,,,,,,
,,,,,WIN24_028,22,Male ,2024-02-01_13h02.54.381,jersey_experiment_5,2023.2.2,Win32,85.47008547,,,,,,,,,,,,,,,,796.8927,798.6925,798.6925,799.6454,return,0.1435,,71.875,,,,,,FBP-OG-81.png,0.37,1.2,7,1,,,,,,,,,,,,,0,48,48,6,1,,,,,,,,,,,,,,,,,,,,,,,,,,,,
,,,,,WIN24_028,22,Male ,2024-02-01_13h02.54.381,jersey_experiment_5,2023.2.2,Win32,85.47008547,,,,,,,,,,,,,,,,799.6457,800.9396,800.9396,802.1631,return,0.1652,,95.703125,,,,,,FBP-YG-71.png,0.43,1.2,34,0.5,,,,,,,,,,,,,0,49,49,33,1,,,,,,,,,,,,,,,,,,,,,,,,,,,,
,,,,,WIN24_028,22,Male ,2024-02-01_13h02.54.381,jersey_experiment_5,2023.2.2,Win32,85.47008547,,,,,,,,,,,,,,,,802.1634,803.9634,803.9634,804.6337,return,0.0757,,97.13541667,,,,,,FBP-OG-71.png,0.43,1.2,4,1,,,,,,,,,,,,,0,50,50,3,1,,,,,,,,,,,,,,,,,,,,,,,,,,,,
,,,,,WIN24_028,22,Male ,2024-02-01_13h02.54.381,jersey_experiment_5,2023.2.2,Win32,85.47008547,,,,,,,,,,,,,,,,804.6338,805.928,805.928,807.8342,return,1.1011,,100,,,,,,FBP-YG-91.png,0.45,1.2,45,0.5,,,,,,,,,,,,,0,51,51,44,1,,,,,,,,,,,,,,,,,,,,,,,,,,,,
,,,,,WIN24_028,22,Male ,2024-02-01_13h02.54.381,jersey_experiment_5,2023.2.2,Win32,85.47008547,,,,,,,,,,,,,,,,807.8344,809.6339,809.634,811.0576,return,0.0603,,64.19270833,,,,,,FBP-PT-17.png,0.37,1.2,47,1,,,,,,,,,,,,,0,52,52,46,1,,,,,,,,,,,,,,,,,,,,,,,,,,,,
,,,,,WIN24_028,22,Male ,2024-02-01_13h02.54.381,jersey_experiment_5,2023.2.2,Win32,85.47008547,,,,,,,,,,,,,,,,811.0579,812.3518,812.3518,815.3871,return,1.2878,,75.65104167,,,,,,FBP-RB-17.png,0.37,1.2,17,0.5,,,,,,,,,,,,,0,53,53,16,1,,,,,,,,,,,,,,,,,,,,,,,,,,,,
,,,,,WIN24_028,22,Male ,2024-02-01_13h02.54.381,jersey_experiment_5,2023.2.2,Win32,85.47008547,,,,,,,,,,,,,,,,815.3874,817.1872,817.1872,818.3285,return,0.0907,,76.43229167,,,,,,FBP-OG-91.png,0.37,1.2,12,1,,,,,,,,,,,,,0,54,54,11,1,,,,,,,,,,,,,,,,,,,,,,,,,,,,
,,,,,WIN24_028,22,Male ,2024-02-01_13h02.54.381,jersey_experiment_5,2023.2.2,Win32,85.47008547,,,,,,,,,,,,,,,,818.3287,820.1285,820.1285,820.8462,return,0.0478,,50.52083333,,,,,,FBP-PT-19.png,0.35,1.2,56,1,,,,,,,,,,,,,0,55,55,55,1,,,,,,,,,,,,,,,,,,,,,,,,,,,,
,,,,,WIN24_028,22,Male ,2024-02-01_13h02.54.381,jersey_experiment_5,2023.2.2,Win32,85.47008547,,,,,,,,,,,,,,,,820.8464,822.1404,822.1404,823.1052,return,0.0613,,37.109375,,,,,,FBP-RB-17.png,0.35,1.2,16,0.5,,,,,,,,,,,,,0,56,56,15,1,,,,,,,,,,,,,,,,,,,,,,,,,,,,
,,,,,WIN24_028,22,Male ,2024-02-01_13h02.54.381,jersey_experiment_5,2023.2.2,Win32,85.47008547,,,,,,,,,,,,,,,,823.1054,824.9053,824.9053,827.9641,return,1.9343,,63.28125,,,,,,FBP-OG-71.png,0.37,1.2,2,1,,,,,,,,,,,,,0,57,57,1,1,,,,,,,,,,,,,,,,,,,,,,,,,,,,
,,,,,WIN24_028,22,Male ,2024-02-01_13h02.54.381,jersey_experiment_5,2023.2.2,Win32,85.47008547,,,,,,,,,,,,,,,,827.9642,829.2583,829.2583,829.8583,return,0.0845,,63.28125,,,,,,FBP-RB-19.png,0.37,1.2,27,0.5,,,,,,,,,,,,,0,58,58,26,1,,,,,,,,,,,,,,,,,,,,,,,,,,,,
,,,,,WIN24_028,22,Male ,2024-02-01_13h02.54.381,jersey_experiment_5,2023.2.2,Win32,85.47008547,,,,,,,,,,,,,,,,829.8584,831.1524,831.1525,831.9759,return,0.0301,,87.63020833,,,,,,FBP-YG-91.png,0.43,1.2,44,0.5,,,,,,,,,,,,,0,59,59,43,1,,,,,,,,,,,,,,,,,,,,,,,,,,,,
,,,,,WIN24_028,22,Male ,2024-02-01_13h02.54.381,jersey_experiment_5,2023.2.2,Win32,85.47008547,,,,,,,,,,,,,,,,831.9779,833.776,833.7761,834.176,return,0.0575,,87.63020833,,,,,,FBP-PT-91.png,0.4,1.2,58,1,,,,,,,,,,,,,,,,,,0,0,0,57,1,,,,,,,,,,,,,,,,,,,,,,,
,,,,,WIN24_028,22,Male ,2024-02-01_13h02.54.381,jersey_experiment_5,2023.2.2,Win32,85.47008547,,,,,,,,,,,,,,,,834.1762,835.9761,835.9762,837.1291,return,0.0901,,66.27604167,,,,,,FBP-OG-18.png,0.4,1.2,8,1,,,,,,,,,,,,,,,,,,0,1,1,7,1,,,,,,,,,,,,,,,,,,,,,,,
,,,,,WIN24_028,22,Male ,2024-02-01_13h02.54.381,jersey_experiment_5,2023.2.2,Win32,85.47008547,,,,,,,,,,,,,,,,837.1293,838.9292,838.9292,839.7293,return,0.1044,,51.30208333,,,,,,FBP-PT-81.png,0.37,1.2,52,1,,,,,,,,,,,,,,,,,,0,2,2,51,1,,,,,,,,,,,,,,,,,,,,,,,
,,,,,WIN24_028,22,Male ,2024-02-01_13h02.54.381,jersey_experiment_5,2023.2.2,Win32,85.47008547,,,,,,,,,,,,,,,,839.7295,841.0234,841.0234,841.8823,return,0.0749,,75.13020833,,,,,,FBP-YG-19.png,0.45,1.2,45,0.5,,,,,,,,,,,,,,,,,,0,3,3,44,1,,,,,,,,,,,,,,,,,,,,,,,
,,,,,WIN24_028,22,Male ,2024-02-01_13h02.54.381,jersey_experiment_5,2023.2.2,Win32,85.47008547,,,,,,,,,,,,,,,,841.8825,843.6822,843.6822,844.3529,return,0.06,,55.72916667,,,,,,FBP-OG-19.png,0.37,1.2,12,1,,,,,,,,,,,,,,,,,,0,4,4,11,1,,,,,,,,,,,,,,,,,,,,,,,
,,,,,WIN24_028,22,Male ,2024-02-01_13h02.54.381,jersey_experiment_5,2023.2.2,Win32,85.47008547,,,,,,,,,,,,,,,,844.3531,845.6471,845.6472,846.8589,return,0.2174,,64.453125,,,,,,FBP-RB-71.png,0.4,1.2,18,0.5,,,,,,,,,,,,,,,,,,0,5,5,17,1,,,,,,,,,,,,,,,,,,,,,,,
,,,,,WIN24_028,22,Male ,2024-02-01_13h02.54.381,jersey_experiment_5,2023.2.2,Win32,85.47008547,,,,,,,,,,,,,,,,846.8591,848.153,848.153,849.4237,return,0.6834,,54.296875,,,,,,FBP-RB-91.png,0.37,1.2,27,0.5,,,,,,,,,,,,,,,,,,0,6,6,26,1,,,,,,,,,,,,,,,,,,,,,,,
,,,,,WIN24_028,22,Male ,2024-02-01_13h02.54.381,jersey_experiment_5,2023.2.2,Win32,85.47008547,,,,,,,,,,,,,,,,849.4239,850.7177,850.7177,851.8591,return,0.1656,,35.80729167,,,,,,FBP-RB-91.png,0.35,1.2,26,0.5,,,,,,,,,,,,,,,,,,0,7,7,25,1,,,,,,,,,,,,,,,,,,,,,,,
,,,,,WIN24_028,22,Male ,2024-02-01_13h02.54.381,jersey_experiment_5,2023.2.2,Win32,85.47008547,,,,,,,,,,,,,,,,851.8593,853.6593,853.6593,854.4473,return,0.1176,,94.40104167,,,,,,FBP-PT-91.png,0.45,1.2,60,1,,,,,,,,,,,,,,,,,,0,8,8,59,1,,,,,,,,,,,,,,,,,,,,,,,
,,,,,WIN24_028,22,Male ,2024-02-01_13h02.54.381,jersey_experiment_5,2023.2.2,Win32,85.47008547,,,,,,,,,,,,,,,,854.4474,856.2474,856.2474,857.8358,return,0.098,,51.30208333,,,,,,FBP-OG-19.png,0.35,1.2,11,1,,,,,,,,,,,,,,,,,,0,9,9,10,1,,,,,,,,,,,,,,,,,,,,,,,
,,,,,WIN24_028,22,Male ,2024-02-01_13h02.54.381,jersey_experiment_5,2023.2.2,Win32,85.47008547,,,,,,,,,,,,,,,,857.8359,859.6358,859.6358,860.1534,return,0.0403,,66.66666667,,,,,,FBP-OG-19.png,0.43,1.2,14,1,,,,,,,,,,,,,,,,,,0,10,10,13,1,,,,,,,,,,,,,,,,,,,,,,,
,,,,,WIN24_028,22,Male ,2024-02-01_13h02.54.381,jersey_experiment_5,2023.2.2,Win32,85.47008547,,,,,,,,,,,,,,,,860.1537,861.9535,861.9535,863.2831,return,0.0709,,39.19270833,,,,,,FBP-OG-18.png,0.35,1.2,6,1,,,,,,,,,,,,,,,,,,0,11,11,5,1,,,,,,,,,,,,,,,,,,,,,,,
,,,,,WIN24_028,22,Male ,2024-02-01_13h02.54.381,jersey_experiment_5,2023.2.2,Win32,85.47008547,,,,,,,,,,,,,,,,863.2834,865.0832,865.0832,866.1301,return,0.0804,,79.296875,,,,,,FBP-OG-19.png,0.45,1.2,15,1,,,,,,,,,,,,,,,,,,0,12,12,14,1,,,,,,,,,,,,,,,,,,,,,,,
,,,,,WIN24_028,22,Male ,2024-02-01_13h02.54.381,jersey_experiment_5,2023.2.2,Win32,85.47008547,,,,,,,,,,,,,,,,866.1304,867.4243,867.4243,869.2833,return,0.1179,,49.86979167,,,,,,FBP-YG-18.png,0.35,1.2,36,0.5,,,,,,,,,,,,,,,,,,0,13,13,35,1,,,,,,,,,,,,,,,,,,,,,,,
,,,,,WIN24_028,22,Male ,2024-02-01_13h02.54.381,jersey_experiment_5,2023.2.2,Win32,85.47008547,,,,,,,,,,,,,,,,869.2834,871.0835,871.0835,872.3657,return,0.1208,,69.921875,,,,,,FBP-PT-81.png,0.45,1.2,55,1,,,,,,,,,,,,,,,,,,0,14,14,54,1,,,,,,,,,,,,,,,,,,,,,,,
,,,,,WIN24_028,22,Male ,2024-02-01_13h02.54.381,jersey_experiment_5,2023.2.2,Win32,85.47008547,,,,,,,,,,,,,,,,872.366,874.1658,874.1659,875.0716,return,0.1525,,37.109375,,,,,,FBP-PT-91.png,0.35,1.2,56,1,,,,,,,,,,,,,,,,,,0,15,15,55,1,,,,,,,,,,,,,,,,,,,,,,,
,,,,,WIN24_028,22,Male ,2024-02-01_13h02.54.381,jersey_experiment_5,2023.2.2,Win32,85.47008547,,,,,,,,,,,,,,,,875.0718,876.3658,876.3658,877.8717,return,0.2594,,26.43229167,,,,,,FBP-RB-81.png,0.35,1.2,21,0.5,,,,,,,,,,,,,,,,,,0,16,16,20,1,,,,,,,,,,,,,,,,,,,,,,,
,,,,,WIN24_028,22,Male ,2024-02-01_13h02.54.381,jersey_experiment_5,2023.2.2,Win32,85.47008547,,,,,,,,,,,,,,,,877.8719,879.6719,879.6719,882.2013,return,0.1351,,49.08854167,,,,,,FBP-OG-18.png,0.37,1.2,7,1,,,,,,,,,,,,,,,,,,0,17,17,6,1,,,,,,,,,,,,,,,,,,,,,,,
,,,,,WIN24_028,22,Male ,2024-02-01_13h02.54.381,jersey_experiment_5,2023.2.2,Win32,85.47008547,,,,,,,,,,,,,,,,882.2017,883.4955,883.4955,884.5073,return,0.0632,,75,,,,,,FBP-RB-81.png,0.4,1.2,23,0.5,,,,,,,,,,,,,,,,,,0,18,18,22,1,,,,,,,,,,,,,,,,,,,,,,,
,,,,,WIN24_028,22,Male ,2024-02-01_13h02.54.381,jersey_experiment_5,2023.2.2,Win32,85.47008547,,,,,,,,,,,,,,,,884.5074,885.8014,885.8015,887.3074,return,0.0761,,72.78645833,,,,,,FBP-YG-17.png,0.4,1.2,33,0.5,,,,,,,,,,,,,,,,,,0,19,19,32,1,,,,,,,,,,,,,,,,,,,,,,,
,,,,,WIN24_028,22,Male ,2024-02-01_13h02.54.381,jersey_experiment_5,2023.2.2,Win32,85.47008547,,,,,,,,,,,,,,,,887.3075,888.6014,888.6014,890.4252,return,0.6646,,35.546875,,,,,,FBP-YG-17.png,0.37,1.2,32,0.5,,,,,,,,,,,,,,,,,,0,20,20,31,1,,,,,,,,,,,,,,,,,,,,,,,
,,,,,WIN24_028,22,Male ,2024-02-01_13h02.54.381,jersey_experiment_5,2023.2.2,Win32,85.47008547,,,,,,,,,,,,,,,,890.4254,892.2252,892.2252,895.1194,return,0.0583,,75,,,,,,FBP-OG-18.png,0.43,1.2,9,1,,,,,,,,,,,,,,,,,,0,21,21,8,1,,,,,,,,,,,,,,,,,,,,,,,
,,,,,WIN24_028,22,Male ,2024-02-01_13h02.54.381,jersey_experiment_5,2023.2.2,Win32,85.47008547,,,,,,,,,,,,,,,,895.1197,896.9195,896.9195,897.5314,return,0.0277,,73.17708333,,,,,,FBP-PT-71.png,0.43,1.2,49,1,,,,,,,,,,,,,,,,,,0,22,22,48,1,,,,,,,,,,,,,,,,,,,,,,,
,,,,,WIN24_028,22,Male ,2024-02-01_13h02.54.381,jersey_experiment_5,2023.2.2,Win32,85.47008547,,,,,,,,,,,,,,,,897.5315,899.3314,899.3314,899.7902,return,0.0846,,55.59895833,,,,,,FBP-OG-19.png,0.4,1.2,13,1,,,,,,,,,,,,,,,,,,0,23,23,12,1,,,,,,,,,,,,,,,,,,,,,,,
,,,,,WIN24_028,22,Male ,2024-02-01_13h02.54.381,jersey_experiment_5,2023.2.2,Win32,85.47008547,,,,,,,,,,,,,,,,899.7905,901.5904,901.5904,902.9785,return,0.6119,,70.703125,,,,,,FBP-OG-18.png,0.45,1.2,10,1,,,,,,,,,,,,,,,,,,0,24,24,9,1,,,,,,,,,,,,,,,,,,,,,,,
,,,,,WIN24_028,22,Male ,2024-02-01_13h02.54.381,jersey_experiment_5,2023.2.2,Win32,85.47008547,,,,,,,,,,,,,,,,902.9786,904.2728,904.2728,905.308,return,0.0518,,54.81770833,,,,,,FBP-YG-19.png,0.4,1.2,43,0.5,,,,,,,,,,,,,,,,,,0,25,25,42,1,,,,,,,,,,,,,,,,,,,,,,,
,,,,,WIN24_028,22,Male ,2024-02-01_13h02.54.381,jersey_experiment_5,2023.2.2,Win32,85.47008547,,,,,,,,,,,,,,,,905.3082,907.1081,907.1081,908.0023,return,0.4245,,39.97395833,,,,,,FBP-OG-17.png,0.37,1.2,2,1,,,,,,,,,,,,,,,,,,0,26,26,1,1,,,,,,,,,,,,,,,,,,,,,,,
,,,,,WIN24_028,22,Male ,2024-02-01_13h02.54.381,jersey_experiment_5,2023.2.2,Win32,85.47008547,,,,,,,,,,,,,,,,908.0025,909.8023,909.8024,910.4259,return,0.0757,,41.53645833,,,,,,FBP-OG-17.png,0.35,1.2,1,1,,,,,,,,,,,,,,,,,,0,27,27,0,1,,,,,,,,,,,,,,,,,,,,,,,
,,,,,WIN24_028,22,Male ,2024-02-01_13h02.54.381,jersey_experiment_5,2023.2.2,Win32,85.47008547,,,,,,,,,,,,,,,,910.4261,911.7201,911.7201,912.6495,return,0.0775,,63.80208333,,,,,,FBP-YG-17.png,0.45,1.2,35,0.5,,,,,,,,,,,,,,,,,,0,28,28,34,1,,,,,,,,,,,,,,,,,,,,,,,
,,,,,WIN24_028,22,Male ,2024-02-01_13h02.54.381,jersey_experiment_5,2023.2.2,Win32,85.47008547,,,,,,,,,,,,,,,,912.6498,913.9437,913.9437,914.6496,return,0.0646,,63.80208333,,,,,,FBP-YG-17.png,0.43,1.2,34,0.5,,,,,,,,,,,,,,,,,,0,29,29,33,1,,,,,,,,,,,,,,,,,,,,,,,
,,,,,WIN24_028,22,Male ,2024-02-01_13h02.54.381,jersey_experiment_5,2023.2.2,Win32,85.47008547,,,,,,,,,,,,,,,,914.6498,915.9437,915.9437,917.3438,return,0.1547,,83.33333333,,,,,,FBP-RB-71.png,0.43,1.2,19,0.5,,,,,,,,,,,,,,,,,,0,30,30,18,1,,,,,,,,,,,,,,,,,,,,,,,
,,,,,WIN24_028,22,Male ,2024-02-01_13h02.54.381,jersey_experiment_5,2023.2.2,Win32,85.47008547,,,,,,,,,,,,,,,,917.3441,919.1439,919.1439,920.3204,return,0.4474,,72.39583333,,,,,,FBP-OG-17.png,0.4,1.2,3,1,,,,,,,,,,,,,,,,,,0,31,31,2,1,,,,,,,,,,,,,,,,,,,,,,,
,,,,,WIN24_028,22,Male ,2024-02-01_13h02.54.381,jersey_experiment_5,2023.2.2,Win32,85.47008547,,,,,,,,,,,,,,,,920.3206,922.1204,922.1204,923.1793,return,0.1584,,62.76041667,,,,,,FBP-OG-17.png,0.45,1.2,5,1,,,,,,,,,,,,,,,,,,0,32,32,4,1,,,,,,,,,,,,,,,,,,,,,,,
,,,,,WIN24_028,22,Male ,2024-02-01_13h02.54.381,jersey_experiment_5,2023.2.2,Win32,85.47008547,,,,,,,,,,,,,,,,923.1796,924.4735,924.4735,925.5204,return,0.1038,,62.63020833,,,,,,FBP-RB-81.png,0.43,1.2,24,0.5,,,,,,,,,,,,,,,,,,0,33,33,23,1,,,,,,,,,,,,,,,,,,,,,,,
,,,,,WIN24_028,22,Male ,2024-02-01_13h02.54.381,jersey_experiment_5,2023.2.2,Win32,85.47008547,,,,,,,,,,,,,,,,925.5205,927.3208,927.3208,927.7913,return,0.0135,,50.390625,,,,,,FBP-PT-71.png,0.37,1.2,47,1,,,,,,,,,,,,,,,,,,0,34,34,46,1,,,,,,,,,,,,,,,,,,,,,,,
,,,,,WIN24_028,22,Male ,2024-02-01_13h02.54.381,jersey_experiment_5,2023.2.2,Win32,85.47008547,,,,,,,,,,,,,,,,927.7916,929.0854,929.0854,930.1443,return,0.0611,,67.578125,,,,,,FBP-YG-18.png,0.45,1.2,40,0.5,,,,,,,,,,,,,,,,,,0,35,35,39,1,,,,,,,,,,,,,,,,,,,,,,,
,,,,,WIN24_028,22,Male ,2024-02-01_13h02.54.381,jersey_experiment_5,2023.2.2,Win32,85.47008547,,,,,,,,,,,,,,,,930.1444,931.4384,931.4384,933.262,return,0.1075,,74.34895833,,,,,,FBP-RB-71.png,0.45,1.2,20,0.5,,,,,,,,,,,,,,,,,,0,36,36,19,1,,,,,,,,,,,,,,,,,,,,,,,
,,,,,WIN24_028,22,Male ,2024-02-01_13h02.54.381,jersey_experiment_5,2023.2.2,Win32,85.47008547,,,,,,,,,,,,,,,,933.2621,935.0621,935.0621,937.274,return,1.2893,,57.03125,,,,,,FBP-PT-71.png,0.4,1.2,48,1,,,,,,,,,,,,,,,,,,0,37,37,47,1,,,,,,,,,,,,,,,,,,,,,,,
,,,,,WIN24_028,22,Male ,2024-02-01_13h02.54.381,jersey_experiment_5,2023.2.2,Win32,85.47008547,,,,,,,,,,,,,,,,937.2741,938.5682,938.5682,939.4035,return,0.1087,,85.15625,,,,,,FBP-RB-91.png,0.45,1.2,30,0.5,,,,,,,,,,,,,,,,,,0,38,38,29,1,,,,,,,,,,,,,,,,,,,,,,,
,,,,,WIN24_028,22,Male ,2024-02-01_13h02.54.381,jersey_experiment_5,2023.2.2,Win32,85.47008547,,,,,,,,,,,,,,,,939.4036,940.6977,940.6977,942.5566,return,1.0024,,37.890625,,,,,,FBP-RB-71.png,0.35,1.2,16,0.5,,,,,,,,,,,,,,,,,,0,39,39,15,1,,,,,,,,,,,,,,,,,,,,,,,
,,,,,WIN24_028,22,Male ,2024-02-01_13h02.54.381,jersey_experiment_5,2023.2.2,Win32,85.47008547,,,,,,,,,,,,,,,,942.5569,943.8507,943.8507,945.1917,return,0.0659,,40.625,,,,,,FBP-RB-81.png,0.37,1.2,22,0.5,,,,,,,,,,,,,,,,,,0,40,40,21,1,,,,,,,,,,,,,,,,,,,,,,,
,,,,,WIN24_028,22,Male ,2024-02-01_13h02.54.381,jersey_experiment_5,2023.2.2,Win32,85.47008547,,,,,,,,,,,,,,,,945.1919,946.486,946.4861,948.2037,return,0.146,,69.79166667,,,,,,FBP-RB-91.png,0.43,1.2,29,0.5,,,,,,,,,,,,,,,,,,0,41,41,28,1,,,,,,,,,,,,,,,,,,,,,,,
,,,,,WIN24_028,22,Male ,2024-02-01_13h02.54.381,jersey_experiment_5,2023.2.2,Win32,85.47008547,,,,,,,,,,,,,,,,948.2039,950.004,950.004,953.051,return,1.9686,,25,,,,,,FBP-PT-71.png,0.35,1.2,46,1,,,,,,,,,,,,,,,,,,0,42,42,45,1,,,,,,,,,,,,,,,,,,,,,,,
,,,,,WIN24_028,22,Male ,2024-02-01_13h02.54.381,jersey_experiment_5,2023.2.2,Win32,85.47008547,,,,,,,,,,,,,,,,953.0513,954.3452,954.3452,957.0746,return,0.1048,,65.10416667,,,,,,FBP-YG-18.png,0.43,1.2,39,0.5,,,,,,,,,,,,,,,,,,0,43,43,38,1,,,,,,,,,,,,,,,,,,,,,,,
,,,,,WIN24_028,22,Male ,2024-02-01_13h02.54.381,jersey_experiment_5,2023.2.2,Win32,85.47008547,,,,,,,,,,,,,,,,957.0748,958.3688,958.3688,959.9218,return,0.151,,39.0625,,,,,,FBP-YG-19.png,0.37,1.2,42,0.5,,,,,,,,,,,,,,,,,,0,44,44,41,1,,,,,,,,,,,,,,,,,,,,,,,
,,,,,WIN24_028,22,Male ,2024-02-01_13h02.54.381,jersey_experiment_5,2023.2.2,Win32,85.47008547,,,,,,,,,,,,,,,,959.9221,961.7221,961.7221,962.4749,return,0.0751,,64.0625,,,,,,FBP-PT-91.png,0.43,1.2,59,1,,,,,,,,,,,,,,,,,,0,45,45,58,1,,,,,,,,,,,,,,,,,,,,,,,
,,,,,WIN24_028,22,Male ,2024-02-01_13h02.54.381,jersey_experiment_5,2023.2.2,Win32,85.47008547,,,,,,,,,,,,,,,,962.475,963.769,963.769,964.8513,return,0.1402,,74.34895833,,,,,,FBP-RB-81.png,0.45,1.2,25,0.5,,,,,,,,,,,,,,,,,,0,46,46,24,1,,,,,,,,,,,,,,,,,,,,,,,
,,,,,WIN24_028,22,Male ,2024-02-01_13h02.54.381,jersey_experiment_5,2023.2.2,Win32,85.47008547,,,,,,,,,,,,,,,,964.8515,966.6514,966.6515,968.5927,return,0.1083,,58.33333333,,,,,,FBP-PT-81.png,0.4,1.2,53,1,,,,,,,,,,,,,,,,,,0,47,47,52,1,,,,,,,,,,,,,,,,,,,,,,,
,,,,,WIN24_028,22,Male ,2024-02-01_13h02.54.381,jersey_experiment_5,2023.2.2,Win32,85.47008547,,,,,,,,,,,,,,,,968.5929,970.3929,970.3929,970.9222,return,0.0994,,41.796875,,,,,,FBP-PT-81.png,0.35,1.2,51,1,,,,,,,,,,,,,,,,,,0,48,48,50,1,,,,,,,,,,,,,,,,,,,,,,,
,,,,,WIN24_028,22,Male ,2024-02-01_13h02.54.381,jersey_experiment_5,2023.2.2,Win32,85.47008547,,,,,,,,,,,,,,,,970.9225,972.2164,972.2164,973.8517,return,0.532,,54.296875,,,,,,FBP-RB-91.png,0.4,1.2,28,0.5,,,,,,,,,,,,,,,,,,0,49,49,27,1,,,,,,,,,,,,,,,,,,,,,,,
,,,,,WIN24_028,22,Male ,2024-02-01_13h02.54.381,jersey_experiment_5,2023.2.2,Win32,85.47008547,,,,,,,,,,,,,,,,973.8519,975.6519,975.6519,976.5225,return,0.1591,,50.13020833,,,,,,FBP-PT-91.png,0.37,1.2,57,1,,,,,,,,,,,,,,,,,,0,50,50,56,1,,,,,,,,,,,,,,,,,,,,,,,
,,,,,WIN24_028,22,Male ,2024-02-01_13h02.54.381,jersey_experiment_5,2023.2.2,Win32,85.47008547,,,,,,,,,,,,,,,,976.5227,978.3226,978.3226,978.8755,return,0.1447,,63.15104167,,,,,,FBP-OG-17.png,0.43,1.2,4,1,,,,,,,,,,,,,,,,,,0,51,51,3,1,,,,,,,,,,,,,,,,,,,,,,,
,,,,,WIN24_028,22,Male ,2024-02-01_13h02.54.381,jersey_experiment_5,2023.2.2,Win32,85.47008547,,,,,,,,,,,,,,,,978.8757,980.6755,980.6755,981.2285,return,0.2043,,63.02083333,,,,,,FBP-PT-81.png,0.43,1.2,54,1,,,,,,,,,,,,,,,,,,0,52,52,53,1,,,,,,,,,,,,,,,,,,,,,,,
,,,,,WIN24_028,22,Male ,2024-02-01_13h02.54.381,jersey_experiment_5,2023.2.2,Win32,85.47008547,,,,,,,,,,,,,,,,981.2288,982.5226,982.5226,984.9462,return,0.6128,,94.921875,,,,,,FBP-YG-18.png,0.37,1.2,37,0.5,,,,,,,,,,,,,,,,,,0,53,53,36,1,,,,,,,,,,,,,,,,,,,,,,,
,,,,,WIN24_028,22,Male ,2024-02-01_13h02.54.381,jersey_experiment_5,2023.2.2,Win32,85.47008547,,,,,,,,,,,,,,,,984.9465,986.2405,986.2405,987.8171,return,0.1371,,93.61979167,,,,,,FBP-YG-19.png,0.43,1.2,44,0.5,,,,,,,,,,,,,,,,,,0,54,54,43,1,,,,,,,,,,,,,,,,,,,,,,,
,,,,,WIN24_028,22,Male ,2024-02-01_13h02.54.381,jersey_experiment_5,2023.2.2,Win32,85.47008547,,,,,,,,,,,,,,,,987.8173,989.1112,989.1112,990.0995,return,0.024,,50.26041667,,,,,,FBP-YG-19.png,0.35,1.2,41,0.5,,,,,,,,,,,,,,,,,,0,55,55,40,1,,,,,,,,,,,,,,,,,,,,,,,
,,,,,WIN24_028,22,Male ,2024-02-01_13h02.54.381,jersey_experiment_5,2023.2.2,Win32,85.47008547,,,,,,,,,,,,,,,,990.0997,991.8996,991.8996,992.5701,return,0.0655,,76.69270833,,,,,,FBP-PT-71.png,0.45,1.2,50,1,,,,,,,,,,,,,,,,,,0,56,56,49,1,,,,,,,,,,,,,,,,,,,,,,,
,,,,,WIN24_028,22,Male ,2024-02-01_13h02.54.381,jersey_experiment_5,2023.2.2,Win32,85.47008547,,,,,,,,,,,,,,,,992.5703,993.8642,993.8643,994.7937,return,0.041,,36.06770833,,,,,,FBP-YG-17.png,0.35,1.2,31,0.5,,,,,,,,,,,,,,,,,,0,57,57,30,1,,,,,,,,,,,,,,,,,,,,,,,
,,,,,WIN24_028,22,Male ,2024-02-01_13h02.54.381,jersey_experiment_5,2023.2.2,Win32,85.47008547,,,,,,,,,,,,,,,,994.7938,996.0879,996.0879,997.1232,return,0.3157,,36.71875,,,,,,FBP-RB-71.png,0.37,1.2,17,0.5,,,,,,,,,,,,,,,,,,0,58,58,16,1,,,,,,,,,,,,,,,,,,,,,,,
,,,,,WIN24_028,22,Male ,2024-02-01_13h02.54.381,jersey_experiment_5,2023.2.2,Win32,85.47008547,,,,,,,,,,,,,,,,997.1233,998.4174,998.4174,1000.0292,return,0.1329,,64.84375,,,,,,FBP-YG-18.png,0.4,1.2,38,0.5,,,,,,,,,,,,,,,,,,0,59,59,37,1,,,,,,,,,,,,,,,,,,,,,,,
,,,,,WIN24_028,22,Male ,2024-02-01_13h02.54.381,jersey_experiment_5,2023.2.2,Win32,85.47008547,,,,,,,,,,,,,,,,,,,,,,,,,,,,,,,,,,,,,,,,,,,,,,,,,,,,,,,,1000.0295,1003.0176,return,2.9836,,,,,,,,,,,,,,,,,,,
,,,,,WIN24_028,22,Male ,2024-02-01_13h02.54.381,jersey_experiment_5,2023.2.2,Win32,85.47008547,,,,,,,,,,,,,,,,,,,,,,,,,,,,,,,,,,,,,,,,,,,,,,,,,,,,,,,,,,,,,1003.0177,1008.6531,1,4.6619,return,0.9549,,,,,,,,,,,,
,,,,,WIN24_028,22,Male ,2024-02-01_13h02.54.381,jersey_experiment_5,2023.2.2,Win32,85.47008547,,,,,,,,,,,,,,,,,,,,,,,,,,,,,,,,,,,,,,,,,,,,,,,,,,,,,,,,,,,,,,,,,,,,1008.6532,1053.2952,"race, color, number affects perception of relative sizes. Or, anchor effect.",right,39.6392,,,,,,
,,,,,WIN24_028,22,Male ,2024-02-01_13h02.54.381,jersey_experiment_5,2023.2.2,Win32,85.47008547,,,,,,,,,,,,,,,,,,,,,,,,,,,,,,,,,,,,,,,,,,,,,,,,,,,,,,,,,,,,,,,,,,,,,,,,,,1053.2954,1055.4901,return,2.1836,