requirements.started,requirements.stopped,key_resp_3.keys,key_resp_3.rt,key_resp_3.duration,Subject ID,Age,Gender,date,expName,psychopyVersion,OS,frameRate,instructions1.started,instructions1.stopped,key_resp.keys,key_resp.rt,key_resp.duration,example.started,example.stopped,enter_2.keys,enter_2.rt,enter_2.duration,instructions2.started,instructions2.stopped,enter_3.keys,enter_3.rt,enter_3.duration,image.started,image.stopped,slider_2.started,slider_2.stopped,next.keys,next.rt,next.duration,slider.response,trial_block_1.thisRepN,trial_block_1.thisTrialN,trial_block_1.thisN,trial_block_1.thisIndex,trial_block_1.ran,Path,Width,Height,Index,Duration,trial_block_2.thisRepN,trial_block_2.thisTrialN,trial_block_2.thisN,trial_block_2.thisIndex,trial_block_2.ran,rest_break.started,rest_break.stopped,end_break.started,end_break.stopped,key_resp_5.keys,key_resp_5.rt,key_resp_5.duration,trial_block_3.thisRepN,trial_block_3.thisTrialN,trial_block_3.thisN,trial_block_3.thisIndex,trial_block_3.ran,trial_block_4.thisRepN,trial_block_4.thisTrialN,trial_block_4.thisN,trial_block_4.thisIndex,trial_block_4.ran,questions_intro.started,questions_intro.stopped,enter_12.keys,enter_12.rt,enter_12.duration,question2.started,question2.stopped,question_doingbest.response,question_doingbest.rt,enter_15.keys,enter_15.rt,enter_15.duration,pattern.started,pattern.stopped,pattern_2.text,enter_17.keys,enter_17.rt,enter_17.duration,thankyou.started,thankyou.stopped,enter_14.keys,enter_14.rt,enter_14.duration
0.0001,17.2723,return,17.2665,,WIN24_060,18,Female,2024-02-13_14h33.15.116,jersey_experiment_5,2023.2.2,Win32,86.20689655,,,,,,,,,,,,,,,,,,,,,,,,,,,,,,,,,,,,,,,,,,,,,,,,,,,,,,,,,,,,,,,,,,,,,,,,,,,,,,
,,,,,WIN24_060,18,Female,2024-02-13_14h33.15.116,jersey_experiment_5,2023.2.2,Win32,86.20689655,17.2724,28.1078,return,10.8142,,,,,,,,,,,,,,,,,,,,,,,,,,,,,,,,,,,,,,,,,,,,,,,,,,,,,,,,,,,,,,,,,,,,,,,,,,
,,,,,WIN24_060,18,Female,2024-02-13_14h33.15.116,jersey_experiment_5,2023.2.2,Win32,86.20689655,,,,,,28.1079,32.4728,return,4.3311,,,,,,,,,,,,,,,,,,,,,,,,,,,,,,,,,,,,,,,,,,,,,,,,,,,,,,,,,,,,,,,,,,,,,
,,,,,WIN24_060,18,Female,2024-02-13_14h33.15.116,jersey_experiment_5,2023.2.2,Win32,86.20689655,,,,,,,,,,,32.4729,65.8152,return,33.3382,,,,,,,,,,,,,,,,,,,,,,,,,,,,,,,,,,,,,,,,,,,,,,,,,,,,,,,,,,,,,,,,
,,,,,WIN24_060,18,Female,2024-02-13_14h33.15.116,jersey_experiment_5,2023.2.2,Win32,86.20689655,,,,,,,,,,,,,,,,65.8216,67.6148,67.6148,80.1565,return,4.0834,,50,0,0,0,31,1,FBP-YG-71.png,0.37,1.2,32,1,,,,,,,,,,,,,,,,,,,,,,,,,,,,,,,,,,,,,,,,,,,,,
,,,,,WIN24_060,18,Female,2024-02-13_14h33.15.116,jersey_experiment_5,2023.2.2,Win32,86.20689655,,,,,,,,,,,,,,,,80.161,81.4625,81.4625,85.4391,return,1.4728,,75.13020833,0,1,1,47,1,FBP-PT-17.png,0.4,1.2,48,0.5,,,,,,,,,,,,,,,,,,,,,,,,,,,,,,,,,,,,,,,,,,,,,
,,,,,WIN24_060,18,Female,2024-02-13_14h33.15.116,jersey_experiment_5,2023.2.2,Win32,86.20689655,,,,,,,,,,,,,,,,85.4394,87.2391,87.2391,90.5452,return,1.4495,,99.609375,0,2,2,34,1,FBP-YG-71.png,0.45,1.2,35,1,,,,,,,,,,,,,,,,,,,,,,,,,,,,,,,,,,,,,,,,,,,,,
,,,,,WIN24_060,18,Female,2024-02-13_14h33.15.116,jersey_experiment_5,2023.2.2,Win32,86.20689655,,,,,,,,,,,,,,,,90.5454,92.3452,92.3452,94.7924,return,0.7234,,99.47916667,0,3,3,17,1,FBP-RB-17.png,0.4,1.2,18,1,,,,,,,,,,,,,,,,,,,,,,,,,,,,,,,,,,,,,,,,,,,,,
,,,,,WIN24_060,18,Female,2024-02-13_14h33.15.116,jersey_experiment_5,2023.2.2,Win32,86.20689655,,,,,,,,,,,,,,,,94.7926,96.0864,96.0865,101.0867,return,2.7068,,74.34895833,0,4,4,3,1,FBP-OG-71.png,0.43,1.2,4,0.5,,,,,,,,,,,,,,,,,,,,,,,,,,,,,,,,,,,,,,,,,,,,,
,,,,,WIN24_060,18,Female,2024-02-13_14h33.15.116,jersey_experiment_5,2023.2.2,Win32,86.20689655,,,,,,,,,,,,,,,,101.087,102.381,102.381,105.0869,return,0.706,,74.73958333,0,5,5,52,1,FBP-PT-18.png,0.4,1.2,53,0.5,,,,,,,,,,,,,,,,,,,,,,,,,,,,,,,,,,,,,,,,,,,,,
,,,,,WIN24_060,18,Female,2024-02-13_14h33.15.116,jersey_experiment_5,2023.2.2,Win32,86.20689655,,,,,,,,,,,,,,,,105.0871,106.8869,106.8869,109.3576,return,0.7317,,49.47916667,0,6,6,20,1,FBP-RB-18.png,0.35,1.2,21,1,,,,,,,,,,,,,,,,,,,,,,,,,,,,,,,,,,,,,,,,,,,,,
,,,,,WIN24_060,18,Female,2024-02-13_14h33.15.116,jersey_experiment_5,2023.2.2,Win32,86.20689655,,,,,,,,,,,,,,,,109.3578,110.6518,110.6518,114.2518,return,0.686,,49.73958333,0,7,7,7,1,FBP-OG-81.png,0.4,1.2,8,0.5,,,,,,,,,,,,,,,,,,,,,,,,,,,,,,,,,,,,,,,,,,,,,
,,,,,WIN24_060,18,Female,2024-02-13_14h33.15.116,jersey_experiment_5,2023.2.2,Win32,86.20689655,,,,,,,,,,,,,,,,114.252,115.5459,115.5459,118.9109,return,0.7874,,24.86979167,0,8,8,1,1,FBP-OG-71.png,0.37,1.2,2,0.5,,,,,,,,,,,,,,,,,,,,,,,,,,,,,,,,,,,,,,,,,,,,,
,,,,,WIN24_060,18,Female,2024-02-13_14h33.15.116,jersey_experiment_5,2023.2.2,Win32,86.20689655,,,,,,,,,,,,,,,,118.9112,120.711,120.7111,123.4405,return,0.6594,,75,0,9,9,24,1,FBP-RB-18.png,0.45,1.2,25,1,,,,,,,,,,,,,,,,,,,,,,,,,,,,,,,,,,,,,,,,,,,,,
,,,,,WIN24_060,18,Female,2024-02-13_14h33.15.116,jersey_experiment_5,2023.2.2,Win32,86.20689655,,,,,,,,,,,,,,,,123.4407,125.2405,125.2405,127.9465,return,0.6972,,49.73958333,0,10,10,26,1,FBP-RB-19.png,0.37,1.2,27,1,,,,,,,,,,,,,,,,,,,,,,,,,,,,,,,,,,,,,,,,,,,,,
,,,,,WIN24_060,18,Female,2024-02-13_14h33.15.116,jersey_experiment_5,2023.2.2,Win32,86.20689655,,,,,,,,,,,,,,,,127.9467,129.7464,129.7465,131.6643,return,0.6593,,50.390625,0,11,11,27,1,FBP-RB-19.png,0.4,1.2,28,1,,,,,,,,,,,,,,,,,,,,,,,,,,,,,,,,,,,,,,,,,,,,,
,,,,,WIN24_060,18,Female,2024-02-13_14h33.15.116,jersey_experiment_5,2023.2.2,Win32,86.20689655,,,,,,,,,,,,,,,,131.6645,133.4643,133.4644,135.2763,return,0.6601,,50,0,12,12,41,1,FBP-YG-91.png,0.37,1.2,42,1,,,,,,,,,,,,,,,,,,,,,,,,,,,,,,,,,,,,,,,,,,,,,
,,,,,WIN24_060,18,Female,2024-02-13_14h33.15.116,jersey_experiment_5,2023.2.2,Win32,86.20689655,,,,,,,,,,,,,,,,135.2766,137.0763,137.0763,139.4176,return,0.9216,,75.91145833,0,13,13,19,1,FBP-RB-17.png,0.45,1.2,20,1,,,,,,,,,,,,,,,,,,,,,,,,,,,,,,,,,,,,,,,,,,,,,
,,,,,WIN24_060,18,Female,2024-02-13_14h33.15.116,jersey_experiment_5,2023.2.2,Win32,86.20689655,,,,,,,,,,,,,,,,139.4179,141.2175,141.2176,143.9588,return,0.689,,49.47916667,0,14,14,36,1,FBP-YG-81.png,0.37,1.2,37,1,,,,,,,,,,,,,,,,,,,,,,,,,,,,,,,,,,,,,,,,,,,,,
,,,,,WIN24_060,18,Female,2024-02-13_14h33.15.116,jersey_experiment_5,2023.2.2,Win32,86.20689655,,,,,,,,,,,,,,,,143.959,145.7589,145.7589,147.912,return,0.7252,,25.26041667,0,15,15,25,1,FBP-RB-19.png,0.35,1.2,26,1,,,,,,,,,,,,,,,,,,,,,,,,,,,,,,,,,,,,,,,,,,,,,
,,,,,WIN24_060,18,Female,2024-02-13_14h33.15.116,jersey_experiment_5,2023.2.2,Win32,86.20689655,,,,,,,,,,,,,,,,147.9122,149.7121,149.7122,151.7826,return,0.466,,74.86979167,0,16,16,37,1,FBP-YG-81.png,0.4,1.2,38,1,,,,,,,,,,,,,,,,,,,,,,,,,,,,,,,,,,,,,,,,,,,,,
,,,,,WIN24_060,18,Female,2024-02-13_14h33.15.116,jersey_experiment_5,2023.2.2,Win32,86.20689655,,,,,,,,,,,,,,,,151.7828,153.5828,153.5828,154.7475,return,0.3101,,74.609375,0,17,17,22,1,FBP-RB-18.png,0.4,1.2,23,1,,,,,,,,,,,,,,,,,,,,,,,,,,,,,,,,,,,,,,,,,,,,,
,,,,,WIN24_060,18,Female,2024-02-13_14h33.15.116,jersey_experiment_5,2023.2.2,Win32,86.20689655,,,,,,,,,,,,,,,,154.7478,156.0416,156.0417,157.6417,return,0.1802,,24.86979167,0,18,18,50,1,FBP-PT-18.png,0.35,1.2,51,0.5,,,,,,,,,,,,,,,,,,,,,,,,,,,,,,,,,,,,,,,,,,,,,
,,,,,WIN24_060,18,Female,2024-02-13_14h33.15.116,jersey_experiment_5,2023.2.2,Win32,86.20689655,,,,,,,,,,,,,,,,157.6419,158.9359,158.936,160.689,return,0.1878,,99.609375,0,19,19,59,1,FBP-PT-19.png,0.45,1.2,60,0.5,,,,,,,,,,,,,,,,,,,,,,,,,,,,,,,,,,,,,,,,,,,,,
,,,,,WIN24_060,18,Female,2024-02-13_14h33.15.116,jersey_experiment_5,2023.2.2,Win32,86.20689655,,,,,,,,,,,,,,,,160.6893,161.9832,161.9832,162.8773,return,0.2826,,99.34895833,0,20,20,4,1,FBP-OG-71.png,0.45,1.2,5,0.5,,,,,,,,,,,,,,,,,,,,,,,,,,,,,,,,,,,,,,,,,,,,,
,,,,,WIN24_060,18,Female,2024-02-13_14h33.15.116,jersey_experiment_5,2023.2.2,Win32,86.20689655,,,,,,,,,,,,,,,,162.8774,164.6773,164.6775,166.2891,return,0.2025,,24.34895833,0,21,21,40,1,FBP-YG-91.png,0.35,1.2,41,1,,,,,,,,,,,,,,,,,,,,,,,,,,,,,,,,,,,,,,,,,,,,,
,,,,,WIN24_060,18,Female,2024-02-13_14h33.15.116,jersey_experiment_5,2023.2.2,Win32,86.20689655,,,,,,,,,,,,,,,,166.2894,168.0892,168.0892,169.0892,return,0.2488,,75,0,22,22,39,1,FBP-YG-81.png,0.45,1.2,40,1,,,,,,,,,,,,,,,,,,,,,,,,,,,,,,,,,,,,,,,,,,,,,
,,,,,WIN24_060,18,Female,2024-02-13_14h33.15.116,jersey_experiment_5,2023.2.2,Win32,86.20689655,,,,,,,,,,,,,,,,169.0895,170.8893,170.8893,171.5952,return,0.2398,,74.86979167,0,23,23,23,1,FBP-RB-18.png,0.43,1.2,24,1,,,,,,,,,,,,,,,,,,,,,,,,,,,,,,,,,,,,,,,,,,,,,
,,,,,WIN24_060,18,Female,2024-02-13_14h33.15.116,jersey_experiment_5,2023.2.2,Win32,86.20689655,,,,,,,,,,,,,,,,171.5954,173.3954,173.3954,175.4307,return,0.1834,,99.34895833,0,24,24,38,1,FBP-YG-81.png,0.43,1.2,39,1,,,,,,,,,,,,,,,,,,,,,,,,,,,,,,,,,,,,,,,,,,,,,
,,,,,WIN24_060,18,Female,2024-02-13_14h33.15.116,jersey_experiment_5,2023.2.2,Win32,86.20689655,,,,,,,,,,,,,,,,175.4308,176.7248,176.7248,177.9366,return,0.2958,,98.828125,0,25,25,13,1,FBP-OG-91.png,0.43,1.2,14,0.5,,,,,,,,,,,,,,,,,,,,,,,,,,,,,,,,,,,,,,,,,,,,,
,,,,,WIN24_060,18,Female,2024-02-13_14h33.15.116,jersey_experiment_5,2023.2.2,Win32,86.20689655,,,,,,,,,,,,,,,,177.9368,179.7366,179.7367,180.6192,return,0.2046,,99.34895833,0,26,26,43,1,FBP-YG-91.png,0.43,1.2,44,1,,,,,,,,,,,,,,,,,,,,,,,,,,,,,,,,,,,,,,,,,,,,,
,,,,,WIN24_060,18,Female,2024-02-13_14h33.15.116,jersey_experiment_5,2023.2.2,Win32,86.20689655,,,,,,,,,,,,,,,,180.6194,181.9132,181.9132,183.8073,return,0.1886,,0.78125,0,27,27,45,1,FBP-PT-17.png,0.35,1.2,46,0.5,,,,,,,,,,,,,,,,,,,,,,,,,,,,,,,,,,,,,,,,,,,,,
,,,,,WIN24_060,18,Female,2024-02-13_14h33.15.116,jersey_experiment_5,2023.2.2,Win32,86.20689655,,,,,,,,,,,,,,,,183.8075,185.1017,185.1017,186.4311,return,0.1563,,0.520833333,0,28,28,56,1,FBP-PT-19.png,0.37,1.2,57,0.5,,,,,,,,,,,,,,,,,,,,,,,,,,,,,,,,,,,,,,,,,,,,,
,,,,,WIN24_060,18,Female,2024-02-13_14h33.15.116,jersey_experiment_5,2023.2.2,Win32,86.20689655,,,,,,,,,,,,,,,,186.4313,188.2312,188.2312,189.6077,return,0.1612,,99.609375,0,29,29,44,1,FBP-YG-91.png,0.45,1.2,45,1,,,,,,,,,,,,,,,,,,,,,,,,,,,,,,,,,,,,,,,,,,,,,
,,,,,WIN24_060,18,Female,2024-02-13_14h33.15.116,jersey_experiment_5,2023.2.2,Win32,86.20689655,,,,,,,,,,,,,,,,189.608,190.9019,190.9019,192.6076,return,0.2355,,75.13020833,0,30,30,54,1,FBP-PT-18.png,0.45,1.2,55,0.5,,,,,,,,,,,,,,,,,,,,,,,,,,,,,,,,,,,,,,,,,,,,,
,,,,,WIN24_060,18,Female,2024-02-13_14h33.15.116,jersey_experiment_5,2023.2.2,Win32,86.20689655,,,,,,,,,,,,,,,,192.6077,193.9019,193.9019,195.5137,return,0.2058,,24.34895833,0,31,31,6,1,FBP-OG-81.png,0.37,1.2,7,0.5,,,,,,,,,,,,,,,,,,,,,,,,,,,,,,,,,,,,,,,,,,,,,
,,,,,WIN24_060,18,Female,2024-02-13_14h33.15.116,jersey_experiment_5,2023.2.2,Win32,86.20689655,,,,,,,,,,,,,,,,195.5139,196.8079,196.8079,197.8079,return,0.3629,,24.34895833,0,32,32,11,1,FBP-OG-91.png,0.37,1.2,12,0.5,,,,,,,,,,,,,,,,,,,,,,,,,,,,,,,,,,,,,,,,,,,,,
,,,,,WIN24_060,18,Female,2024-02-13_14h33.15.116,jersey_experiment_5,2023.2.2,Win32,86.20689655,,,,,,,,,,,,,,,,197.8082,199.1021,199.1021,200.6904,return,0.2248,,99.08854167,0,33,33,49,1,FBP-PT-17.png,0.45,1.2,50,0.5,,,,,,,,,,,,,,,,,,,,,,,,,,,,,,,,,,,,,,,,,,,,,
,,,,,WIN24_060,18,Female,2024-02-13_14h33.15.116,jersey_experiment_5,2023.2.2,Win32,86.20689655,,,,,,,,,,,,,,,,200.6907,201.9848,201.9848,204.7611,return,0.3339,,0.651041667,0,34,34,55,1,FBP-PT-19.png,0.35,1.2,56,0.5,,,,,,,,,,,,,,,,,,,,,,,,,,,,,,,,,,,,,,,,,,,,,
,,,,,WIN24_060,18,Female,2024-02-13_14h33.15.116,jersey_experiment_5,2023.2.2,Win32,86.20689655,,,,,,,,,,,,,,,,204.7614,206.0553,206.0554,208.7849,return,0.2728,,99.34895833,0,35,35,53,1,FBP-PT-18.png,0.43,1.2,54,0.5,,,,,,,,,,,,,,,,,,,,,,,,,,,,,,,,,,,,,,,,,,,,,
,,,,,WIN24_060,18,Female,2024-02-13_14h33.15.116,jersey_experiment_5,2023.2.2,Win32,86.20689655,,,,,,,,,,,,,,,,208.7851,210.585,210.585,212.0438,return,0.2017,,24.609375,0,36,36,30,1,FBP-YG-71.png,0.35,1.2,31,1,,,,,,,,,,,,,,,,,,,,,,,,,,,,,,,,,,,,,,,,,,,,,
,,,,,WIN24_060,18,Female,2024-02-13_14h33.15.116,jersey_experiment_5,2023.2.2,Win32,86.20689655,,,,,,,,,,,,,,,,212.044,213.8441,213.8441,215.4204,return,0.1566,,75.52083333,0,37,37,28,1,FBP-RB-19.png,0.43,1.2,29,1,,,,,,,,,,,,,,,,,,,,,,,,,,,,,,,,,,,,,,,,,,,,,
,,,,,WIN24_060,18,Female,2024-02-13_14h33.15.116,jersey_experiment_5,2023.2.2,Win32,86.20689655,,,,,,,,,,,,,,,,215.4207,216.7146,216.7147,218.0323,return,0.1316,,25.26041667,0,38,38,51,1,FBP-PT-18.png,0.37,1.2,52,0.5,,,,,,,,,,,,,,,,,,,,,,,,,,,,,,,,,,,,,,,,,,,,,
,,,,,WIN24_060,18,Female,2024-02-13_14h33.15.116,jersey_experiment_5,2023.2.2,Win32,86.20689655,,,,,,,,,,,,,,,,218.0326,219.8323,219.8323,220.9382,return,0.2171,,49.609375,0,39,39,16,1,FBP-RB-17.png,0.37,1.2,17,1,,,,,,,,,,,,,,,,,,,,,,,,,,,,,,,,,,,,,,,,,,,,,
,,,,,WIN24_060,18,Female,2024-02-13_14h33.15.116,jersey_experiment_5,2023.2.2,Win32,86.20689655,,,,,,,,,,,,,,,,220.9384,222.7383,222.7383,223.5148,return,0.1676,,49.73958333,0,40,40,42,1,FBP-YG-91.png,0.4,1.2,43,1,,,,,,,,,,,,,,,,,,,,,,,,,,,,,,,,,,,,,,,,,,,,,
,,,,,WIN24_060,18,Female,2024-02-13_14h33.15.116,jersey_experiment_5,2023.2.2,Win32,86.20689655,,,,,,,,,,,,,,,,223.5151,225.3148,225.3148,226.3031,return,0.199,,23.95833333,0,41,41,15,1,FBP-RB-17.png,0.35,1.2,16,1,,,,,,,,,,,,,,,,,,,,,,,,,,,,,,,,,,,,,,,,,,,,,
,,,,,WIN24_060,18,Female,2024-02-13_14h33.15.116,jersey_experiment_5,2023.2.2,Win32,86.20689655,,,,,,,,,,,,,,,,226.3034,227.5973,227.5973,229.6798,return,0.1644,,99.73958333,0,42,42,9,1,FBP-OG-81.png,0.45,1.2,10,0.5,,,,,,,,,,,,,,,,,,,,,,,,,,,,,,,,,,,,,,,,,,,,,
,,,,,WIN24_060,18,Female,2024-02-13_14h33.15.116,jersey_experiment_5,2023.2.2,Win32,86.20689655,,,,,,,,,,,,,,,,229.68,230.9738,230.9738,231.8798,return,0.3939,,97.91666667,0,43,43,57,1,FBP-PT-19.png,0.4,1.2,58,0.5,,,,,,,,,,,,,,,,,,,,,,,,,,,,,,,,,,,,,,,,,,,,,
,,,,,WIN24_060,18,Female,2024-02-13_14h33.15.116,jersey_experiment_5,2023.2.2,Win32,86.20689655,,,,,,,,,,,,,,,,231.8801,233.1739,233.1739,235.0682,return,0.2031,,50.13020833,0,44,44,0,1,FBP-OG-71.png,0.35,1.2,1,0.5,,,,,,,,,,,,,,,,,,,,,,,,,,,,,,,,,,,,,,,,,,,,,
,,,,,WIN24_060,18,Female,2024-02-13_14h33.15.116,jersey_experiment_5,2023.2.2,Win32,86.20689655,,,,,,,,,,,,,,,,235.0685,236.3624,236.3624,237.586,return,0.1091,,75.26041667,0,45,45,2,1,FBP-OG-71.png,0.4,1.2,3,0.5,,,,,,,,,,,,,,,,,,,,,,,,,,,,,,,,,,,,,,,,,,,,,
,,,,,WIN24_060,18,Female,2024-02-13_14h33.15.116,jersey_experiment_5,2023.2.2,Win32,86.20689655,,,,,,,,,,,,,,,,237.5862,239.386,239.386,240.7036,return,0.1644,,25.13020833,0,46,46,35,1,FBP-YG-81.png,0.35,1.2,36,1,,,,,,,,,,,,,,,,,,,,,,,,,,,,,,,,,,,,,,,,,,,,,
,,,,,WIN24_060,18,Female,2024-02-13_14h33.15.116,jersey_experiment_5,2023.2.2,Win32,86.20689655,,,,,,,,,,,,,,,,240.7038,241.9979,241.9979,244.2685,return,0.1092,,50.52083333,0,47,47,58,1,FBP-PT-19.png,0.43,1.2,59,0.5,,,,,,,,,,,,,,,,,,,,,,,,,,,,,,,,,,,,,,,,,,,,,
,,,,,WIN24_060,18,Female,2024-02-13_14h33.15.116,jersey_experiment_5,2023.2.2,Win32,86.20689655,,,,,,,,,,,,,,,,244.2689,245.5627,245.5627,246.9391,return,0.1798,,99.08854167,0,48,48,14,1,FBP-OG-91.png,0.45,1.2,15,0.5,,,,,,,,,,,,,,,,,,,,,,,,,,,,,,,,,,,,,,,,,,,,,
,,,,,WIN24_060,18,Female,2024-02-13_14h33.15.116,jersey_experiment_5,2023.2.2,Win32,86.20689655,,,,,,,,,,,,,,,,246.9394,248.2334,248.2334,249.8334,return,0.3927,,24.34895833,0,49,49,5,1,FBP-OG-81.png,0.35,1.2,6,0.5,,,,,,,,,,,,,,,,,,,,,,,,,,,,,,,,,,,,,,,,,,,,,
,,,,,WIN24_060,18,Female,2024-02-13_14h33.15.116,jersey_experiment_5,2023.2.2,Win32,86.20689655,,,,,,,,,,,,,,,,249.8336,251.1275,251.1275,254.9513,return,0.1611,,74.47916667,0,50,50,8,1,FBP-OG-81.png,0.43,1.2,9,0.5,,,,,,,,,,,,,,,,,,,,,,,,,,,,,,,,,,,,,,,,,,,,,
,,,,,WIN24_060,18,Female,2024-02-13_14h33.15.116,jersey_experiment_5,2023.2.2,Win32,86.20689655,,,,,,,,,,,,,,,,254.9515,256.2454,256.2454,259.7514,return,1.9259,,99.86979167,0,51,51,48,1,FBP-PT-17.png,0.43,1.2,49,0.5,,,,,,,,,,,,,,,,,,,,,,,,,,,,,,,,,,,,,,,,,,,,,
,,,,,WIN24_060,18,Female,2024-02-13_14h33.15.116,jersey_experiment_5,2023.2.2,Win32,86.20689655,,,,,,,,,,,,,,,,259.7517,261.0455,261.0456,263.634,return,1.4118,,24.47916667,0,52,52,10,1,FBP-OG-91.png,0.35,1.2,11,0.5,,,,,,,,,,,,,,,,,,,,,,,,,,,,,,,,,,,,,,,,,,,,,
,,,,,WIN24_060,18,Female,2024-02-13_14h33.15.116,jersey_experiment_5,2023.2.2,Win32,86.20689655,,,,,,,,,,,,,,,,263.6342,265.434,265.434,266.4458,return,0.1194,,75,0,53,53,21,1,FBP-RB-18.png,0.37,1.2,22,1,,,,,,,,,,,,,,,,,,,,,,,,,,,,,,,,,,,,,,,,,,,,,
,,,,,WIN24_060,18,Female,2024-02-13_14h33.15.116,jersey_experiment_5,2023.2.2,Win32,86.20689655,,,,,,,,,,,,,,,,266.446,268.2459,268.2459,268.9519,return,0.1842,,75,0,54,54,32,1,FBP-YG-71.png,0.4,1.2,33,1,,,,,,,,,,,,,,,,,,,,,,,,,,,,,,,,,,,,,,,,,,,,,
,,,,,WIN24_060,18,Female,2024-02-13_14h33.15.116,jersey_experiment_5,2023.2.2,Win32,86.20689655,,,,,,,,,,,,,,,,268.9521,270.7518,270.7518,271.3989,return,0.1714,,75,0,55,55,18,1,FBP-RB-17.png,0.43,1.2,19,1,,,,,,,,,,,,,,,,,,,,,,,,,,,,,,,,,,,,,,,,,,,,,
,,,,,WIN24_060,18,Female,2024-02-13_14h33.15.116,jersey_experiment_5,2023.2.2,Win32,86.20689655,,,,,,,,,,,,,,,,271.3991,272.6932,272.6932,273.6814,return,0.2259,,75,0,56,56,46,1,FBP-PT-17.png,0.37,1.2,47,0.5,,,,,,,,,,,,,,,,,,,,,,,,,,,,,,,,,,,,,,,,,,,,,
,,,,,WIN24_060,18,Female,2024-02-13_14h33.15.116,jersey_experiment_5,2023.2.2,Win32,86.20689655,,,,,,,,,,,,,,,,273.6816,274.9756,274.9756,275.9638,return,0.2372,,75,0,57,57,12,1,FBP-OG-91.png,0.4,1.2,13,0.5,,,,,,,,,,,,,,,,,,,,,,,,,,,,,,,,,,,,,,,,,,,,,
,,,,,WIN24_060,18,Female,2024-02-13_14h33.15.116,jersey_experiment_5,2023.2.2,Win32,86.20689655,,,,,,,,,,,,,,,,275.9641,277.7639,277.7639,279.7404,return,0.2151,,99.86979167,0,58,58,29,1,FBP-RB-19.png,0.45,1.2,30,1,,,,,,,,,,,,,,,,,,,,,,,,,,,,,,,,,,,,,,,,,,,,,
,,,,,WIN24_060,18,Female,2024-02-13_14h33.15.116,jersey_experiment_5,2023.2.2,Win32,86.20689655,,,,,,,,,,,,,,,,279.7407,281.5405,281.5405,282.2346,return,0.1933,,99.609375,0,59,59,33,1,FBP-YG-71.png,0.43,1.2,34,1,,,,,,,,,,,,,,,,,,,,,,,,,,,,,,,,,,,,,,,,,,,,,
,,,,,WIN24_060,18,Female,2024-02-13_14h33.15.116,jersey_experiment_5,2023.2.2,Win32,86.20689655,,,,,,,,,,,,,,,,282.2366,284.0347,284.0347,284.7523,return,0.3394,,99.47916667,,,,,,FBP-YG-19.png,0.45,1.2,45,1,0,0,0,44,1,,,,,,,,,,,,,,,,,,,,,,,,,,,,,,,,,,,,,,,,
,,,,,WIN24_060,18,Female,2024-02-13_14h33.15.116,jersey_experiment_5,2023.2.2,Win32,86.20689655,,,,,,,,,,,,,,,,284.7526,286.0464,286.0465,286.6701,return,0.3669,,99.47916667,,,,,,FBP-OG-17.png,0.45,1.2,5,0.5,0,1,1,4,1,,,,,,,,,,,,,,,,,,,,,,,,,,,,,,,,,,,,,,,,
,,,,,WIN24_060,18,Female,2024-02-13_14h33.15.116,jersey_experiment_5,2023.2.2,Win32,86.20689655,,,,,,,,,,,,,,,,286.6702,287.9641,287.9641,289.5526,return,0.1179,,49.86979167,,,,,,FBP-PT-81.png,0.37,1.2,52,0.5,0,2,2,51,1,,,,,,,,,,,,,,,,,,,,,,,,,,,,,,,,,,,,,,,,
,,,,,WIN24_060,18,Female,2024-02-13_14h33.15.116,jersey_experiment_5,2023.2.2,Win32,86.20689655,,,,,,,,,,,,,,,,289.5528,290.8466,290.8466,292.0467,return,0.1045,,24.08854167,,,,,,FBP-PT-91.png,0.35,1.2,56,0.5,0,3,3,55,1,,,,,,,,,,,,,,,,,,,,,,,,,,,,,,,,,,,,,,,,
,,,,,WIN24_060,18,Female,2024-02-13_14h33.15.116,jersey_experiment_5,2023.2.2,Win32,86.20689655,,,,,,,,,,,,,,,,292.0469,293.8469,293.8469,295.8824,return,0.2273,,99.47916667,,,,,,FBP-RB-81.png,0.45,1.2,25,1,0,4,4,24,1,,,,,,,,,,,,,,,,,,,,,,,,,,,,,,,,,,,,,,,,
,,,,,WIN24_060,18,Female,2024-02-13_14h33.15.116,jersey_experiment_5,2023.2.2,Win32,86.20689655,,,,,,,,,,,,,,,,295.8825,297.6824,297.6824,298.5881,return,0.1319,,75.13020833,,,,,,FBP-RB-91.png,0.37,1.2,27,1,0,5,5,26,1,,,,,,,,,,,,,,,,,,,,,,,,,,,,,,,,,,,,,,,,
,,,,,WIN24_060,18,Female,2024-02-13_14h33.15.116,jersey_experiment_5,2023.2.2,Win32,86.20689655,,,,,,,,,,,,,,,,298.5884,300.3884,300.3885,301.2941,return,0.1295,,49.21875,,,,,,FBP-YG-17.png,0.37,1.2,32,1,0,6,6,31,1,,,,,,,,,,,,,,,,,,,,,,,,,,,,,,,,,,,,,,,,
,,,,,WIN24_060,18,Female,2024-02-13_14h33.15.116,jersey_experiment_5,2023.2.2,Win32,86.20689655,,,,,,,,,,,,,,,,301.2944,302.5883,302.5884,304.4591,return,1.2872,,24.73958333,,,,,,FBP-PT-71.png,0.37,1.2,47,0.5,0,7,7,46,1,,,,,,,,,,,,,,,,,,,,,,,,,,,,,,,,,,,,,,,,
,,,,,WIN24_060,18,Female,2024-02-13_14h33.15.116,jersey_experiment_5,2023.2.2,Win32,86.20689655,,,,,,,,,,,,,,,,304.4593,305.7533,305.7533,308.0592,return,0.2134,,74.609375,,,,,,FBP-PT-71.png,0.45,1.2,50,0.5,0,8,8,49,1,,,,,,,,,,,,,,,,,,,,,,,,,,,,,,,,,,,,,,,,
,,,,,WIN24_060,18,Female,2024-02-13_14h33.15.116,jersey_experiment_5,2023.2.2,Win32,86.20689655,,,,,,,,,,,,,,,,308.0594,309.3532,309.3533,310.1416,return,0.2002,,74.47916667,,,,,,FBP-OG-19.png,0.4,1.2,13,0.5,0,9,9,12,1,,,,,,,,,,,,,,,,,,,,,,,,,,,,,,,,,,,,,,,,
,,,,,WIN24_060,18,Female,2024-02-13_14h33.15.116,jersey_experiment_5,2023.2.2,Win32,86.20689655,,,,,,,,,,,,,,,,310.1418,311.9416,311.9416,312.6828,return,0.2263,,74.34895833,,,,,,FBP-RB-71.png,0.4,1.2,18,1,0,10,10,17,1,,,,,,,,,,,,,,,,,,,,,,,,,,,,,,,,,,,,,,,,
,,,,,WIN24_060,18,Female,2024-02-13_14h33.15.116,jersey_experiment_5,2023.2.2,Win32,86.20689655,,,,,,,,,,,,,,,,312.683,313.977,313.977,316.0242,return,1.349,,48.828125,,,,,,FBP-PT-71.png,0.4,1.2,48,0.5,0,11,11,47,1,,,,,,,,,,,,,,,,,,,,,,,,,,,,,,,,,,,,,,,,
,,,,,WIN24_060,18,Female,2024-02-13_14h33.15.116,jersey_experiment_5,2023.2.2,Win32,86.20689655,,,,,,,,,,,,,,,,316.0244,317.3181,317.3182,319.8243,return,0.1551,,50,,,,,,FBP-OG-17.png,0.35,1.2,1,0.5,0,12,12,0,1,,,,,,,,,,,,,,,,,,,,,,,,,,,,,,,,,,,,,,,,
,,,,,WIN24_060,18,Female,2024-02-13_14h33.15.116,jersey_experiment_5,2023.2.2,Win32,86.20689655,,,,,,,,,,,,,,,,319.8246,321.1184,321.1185,322.848,return,0.3405,,99.86979167,,,,,,FBP-OG-18.png,0.43,1.2,9,0.5,0,13,13,8,1,,,,,,,,,,,,,,,,,,,,,,,,,,,,,,,,,,,,,,,,
,,,,,WIN24_060,18,Female,2024-02-13_14h33.15.116,jersey_experiment_5,2023.2.2,Win32,86.20689655,,,,,,,,,,,,,,,,322.8482,324.6482,324.6482,325.801,return,0.1459,,74.609375,,,,,,FBP-YG-18.png,0.37,1.2,37,1,0,14,14,36,1,,,,,,,,,,,,,,,,,,,,,,,,,,,,,,,,,,,,,,,,
,,,,,WIN24_060,18,Female,2024-02-13_14h33.15.116,jersey_experiment_5,2023.2.2,Win32,86.20689655,,,,,,,,,,,,,,,,325.8012,327.095,327.0951,328.2951,return,0.1381,,50.13020833,,,,,,FBP-OG-18.png,0.35,1.2,6,0.5,0,15,15,5,1,,,,,,,,,,,,,,,,,,,,,,,,,,,,,,,,,,,,,,,,
,,,,,WIN24_060,18,Female,2024-02-13_14h33.15.116,jersey_experiment_5,2023.2.2,Win32,86.20689655,,,,,,,,,,,,,,,,328.2953,330.0952,330.0952,330.7659,return,0.202,,50,,,,,,FBP-RB-91.png,0.35,1.2,26,1,0,16,16,25,1,,,,,,,,,,,,,,,,,,,,,,,,,,,,,,,,,,,,,,,,
,,,,,WIN24_060,18,Female,2024-02-13_14h33.15.116,jersey_experiment_5,2023.2.2,Win32,86.20689655,,,,,,,,,,,,,,,,330.7661,332.0601,332.0601,332.8012,return,0.1276,,50,,,,,,FBP-PT-81.png,0.35,1.2,51,0.5,0,17,17,50,1,,,,,,,,,,,,,,,,,,,,,,,,,,,,,,,,,,,,,,,,
,,,,,WIN24_060,18,Female,2024-02-13_14h33.15.116,jersey_experiment_5,2023.2.2,Win32,86.20689655,,,,,,,,,,,,,,,,332.8014,334.0953,334.0953,334.7778,return,0.1704,,50,,,,,,FBP-OG-17.png,0.4,1.2,3,0.5,0,18,18,2,1,,,,,,,,,,,,,,,,,,,,,,,,,,,,,,,,,,,,,,,,
,,,,,WIN24_060,18,Female,2024-02-13_14h33.15.116,jersey_experiment_5,2023.2.2,Win32,86.20689655,,,,,,,,,,,,,,,,334.778,336.5778,336.5778,338.1426,return,0.3305,,50,,,,,,FBP-YG-19.png,0.4,1.2,43,1,0,19,19,42,1,,,,,,,,,,,,,,,,,,,,,,,,,,,,,,,,,,,,,,,,
,,,,,WIN24_060,18,Female,2024-02-13_14h33.15.116,jersey_experiment_5,2023.2.2,Win32,86.20689655,,,,,,,,,,,,,,,,338.1428,339.4367,339.4367,341.9193,return,0.1314,,74.86979167,,,,,,FBP-PT-71.png,0.43,1.2,49,0.5,0,20,20,48,1,,,,,,,,,,,,,,,,,,,,,,,,,,,,,,,,,,,,,,,,
,,,,,WIN24_060,18,Female,2024-02-13_14h33.15.116,jersey_experiment_5,2023.2.2,Win32,86.20689655,,,,,,,,,,,,,,,,341.9195,343.2134,343.2134,344.7311,return,0.1083,,99.609375,,,,,,FBP-PT-81.png,0.45,1.2,55,0.5,0,21,21,54,1,,,,,,,,,,,,,,,,,,,,,,,,,,,,,,,,,,,,,,,,
,,,,,WIN24_060,18,Female,2024-02-13_14h33.15.116,jersey_experiment_5,2023.2.2,Win32,86.20689655,,,,,,,,,,,,,,,,344.7313,346.5313,346.5314,347.6607,return,0.0479,,50.13020833,,,,,,FBP-RB-71.png,0.37,1.2,17,1,0,22,22,16,1,,,,,,,,,,,,,,,,,,,,,,,,,,,,,,,,,,,,,,,,
,,,,,WIN24_060,18,Female,2024-02-13_14h33.15.116,jersey_experiment_5,2023.2.2,Win32,86.20689655,,,,,,,,,,,,,,,,347.6609,349.4606,349.4606,350.4607,return,0.1558,,75.13020833,,,,,,FBP-RB-91.png,0.4,1.2,28,1,0,23,23,27,1,,,,,,,,,,,,,,,,,,,,,,,,,,,,,,,,,,,,,,,,
,,,,,WIN24_060,18,Female,2024-02-13_14h33.15.116,jersey_experiment_5,2023.2.2,Win32,86.20689655,,,,,,,,,,,,,,,,350.461,352.2608,352.2608,353.7079,return,0.1193,,49.08854167,,,,,,FBP-YG-17.png,0.4,1.2,33,1,0,24,24,32,1,,,,,,,,,,,,,,,,,,,,,,,,,,,,,,,,,,,,,,,,
,,,,,WIN24_060,18,Female,2024-02-13_14h33.15.116,jersey_experiment_5,2023.2.2,Win32,86.20689655,,,,,,,,,,,,,,,,353.708,355.508,355.5081,356.5082,return,0.2139,,98.828125,,,,,,FBP-YG-18.png,0.45,1.2,40,1,0,25,25,39,1,,,,,,,,,,,,,,,,,,,,,,,,,,,,,,,,,,,,,,,,
,,,,,WIN24_060,18,Female,2024-02-13_14h33.15.116,jersey_experiment_5,2023.2.2,Win32,86.20689655,,,,,,,,,,,,,,,,356.5085,357.8022,357.8022,359.3081,return,0.166,,99.47916667,,,,,,FBP-OG-18.png,0.45,1.2,10,0.5,0,26,26,9,1,,,,,,,,,,,,,,,,,,,,,,,,,,,,,,,,,,,,,,,,
,,,,,WIN24_060,18,Female,2024-02-13_14h33.15.116,jersey_experiment_5,2023.2.2,Win32,86.20689655,,,,,,,,,,,,,,,,359.3085,361.1083,361.1084,362.3436,return,0.1009,,99.21875,,,,,,FBP-YG-17.png,0.45,1.2,35,1,0,27,27,34,1,,,,,,,,,,,,,,,,,,,,,,,,,,,,,,,,,,,,,,,,
,,,,,WIN24_060,18,Female,2024-02-13_14h33.15.116,jersey_experiment_5,2023.2.2,Win32,86.20689655,,,,,,,,,,,,,,,,362.3437,363.6375,363.6376,364.52,return,0.2195,,99.08854167,,,,,,FBP-OG-17.png,0.43,1.2,4,0.5,0,28,28,3,1,,,,,,,,,,,,,,,,,,,,,,,,,,,,,,,,,,,,,,,,
,,,,,WIN24_060,18,Female,2024-02-13_14h33.15.116,jersey_experiment_5,2023.2.2,Win32,86.20689655,,,,,,,,,,,,,,,,364.5202,366.3203,366.3203,367.6966,return,0.1416,,25.78125,,,,,,FBP-RB-81.png,0.35,1.2,21,1,0,29,29,20,1,,,,,,,,,,,,,,,,,,,,,,,,,,,,,,,,,,,,,,,,
,,,,,WIN24_060,18,Female,2024-02-13_14h33.15.116,jersey_experiment_5,2023.2.2,Win32,86.20689655,,,,,,,,,,,,,,,,367.6969,368.9908,368.9908,370.6025,return,0.2991,,24.21875,,,,,,FBP-PT-91.png,0.37,1.2,57,0.5,0,30,30,56,1,,,,,,,,,,,,,,,,,,,,,,,,,,,,,,,,,,,,,,,,
,,,,,WIN24_060,18,Female,2024-02-13_14h33.15.116,jersey_experiment_5,2023.2.2,Win32,86.20689655,,,,,,,,,,,,,,,,370.6029,372.4027,372.4028,411.2631,return,1.285,,11.97916667,,,,,,FBP-YG-19.png,0.35,1.2,41,1,0,31,31,40,1,,,,,,,,,,,,,,,,,,,,,,,,,,,,,,,,,,,,,,,,
,,,,,WIN24_060,18,Female,2024-02-13_14h33.15.116,jersey_experiment_5,2023.2.2,Win32,86.20689655,,,,,,,,,,,,,,,,411.2634,412.5571,412.5572,418.8632,return,0.7057,,49.34895833,,,,,,FBP-OG-18.png,0.4,1.2,8,0.5,0,32,32,7,1,,,,,,,,,,,,,,,,,,,,,,,,,,,,,,,,,,,,,,,,
,,,,,WIN24_060,18,Female,2024-02-13_14h33.15.116,jersey_experiment_5,2023.2.2,Win32,86.20689655,,,,,,,,,,,,,,,,418.8634,420.6632,420.6633,423.6634,return,0.5783,,74.73958333,,,,,,FBP-RB-91.png,0.43,1.2,29,1,0,33,33,28,1,,,,,,,,,,,,,,,,,,,,,,,,,,,,,,,,,,,,,,,,
,,,,,WIN24_060,18,Female,2024-02-13_14h33.15.116,jersey_experiment_5,2023.2.2,Win32,86.20689655,,,,,,,,,,,,,,,,423.6637,424.9576,424.9576,432.9226,return,0.8285,,75.91145833,,,,,,FBP-PT-91.png,0.45,1.2,60,0.5,0,34,34,59,1,,,,,,,,,,,,,,,,,,,,,,,,,,,,,,,,,,,,,,,,
,,,,,WIN24_060,18,Female,2024-02-13_14h33.15.116,jersey_experiment_5,2023.2.2,Win32,86.20689655,,,,,,,,,,,,,,,,432.9227,434.7228,434.7228,435.9932,return,0.3816,,74.609375,,,,,,FBP-YG-19.png,0.43,1.2,44,1,0,35,35,43,1,,,,,,,,,,,,,,,,,,,,,,,,,,,,,,,,,,,,,,,,
,,,,,WIN24_060,18,Female,2024-02-13_14h33.15.116,jersey_experiment_5,2023.2.2,Win32,86.20689655,,,,,,,,,,,,,,,,435.9936,437.7934,437.7934,438.77,return,0.3296,,75.13020833,,,,,,FBP-RB-91.png,0.45,1.2,30,1,0,36,36,29,1,,,,,,,,,,,,,,,,,,,,,,,,,,,,,,,,,,,,,,,,
,,,,,WIN24_060,18,Female,2024-02-13_14h33.15.116,jersey_experiment_5,2023.2.2,Win32,86.20689655,,,,,,,,,,,,,,,,438.7702,440.0641,440.0642,441.511,return,0.1969,,25,,,,,,FBP-PT-71.png,0.35,1.2,46,0.5,0,37,37,45,1,,,,,,,,,,,,,,,,,,,,,,,,,,,,,,,,,,,,,,,,
,,,,,WIN24_060,18,Female,2024-02-13_14h33.15.116,jersey_experiment_5,2023.2.2,Win32,86.20689655,,,,,,,,,,,,,,,,441.5112,442.8052,442.8053,445.0055,return,0.32,,74.34895833,,,,,,FBP-PT-91.png,0.43,1.2,59,0.5,0,38,38,58,1,,,,,,,,,,,,,,,,,,,,,,,,,,,,,,,,,,,,,,,,
,,,,,WIN24_060,18,Female,2024-02-13_14h33.15.116,jersey_experiment_5,2023.2.2,Win32,86.20689655,,,,,,,,,,,,,,,,445.0056,446.8054,446.8054,447.8879,return,0.1885,,0.260416667,,,,,,FBP-YG-17.png,0.35,1.2,31,1,0,39,39,30,1,,,,,,,,,,,,,,,,,,,,,,,,,,,,,,,,,,,,,,,,
,,,,,WIN24_060,18,Female,2024-02-13_14h33.15.116,jersey_experiment_5,2023.2.2,Win32,86.20689655,,,,,,,,,,,,,,,,447.8881,449.182,449.182,450.5115,return,0.1644,,49.08854167,,,,,,FBP-OG-19.png,0.45,1.2,15,0.5,0,40,40,14,1,,,,,,,,,,,,,,,,,,,,,,,,,,,,,,,,,,,,,,,,
,,,,,WIN24_060,18,Female,2024-02-13_14h33.15.116,jersey_experiment_5,2023.2.2,Win32,86.20689655,,,,,,,,,,,,,,,,450.5117,451.8056,451.8057,453.088,return,0.0808,,24.609375,,,,,,FBP-OG-18.png,0.37,1.2,7,0.5,0,41,41,6,1,,,,,,,,,,,,,,,,,,,,,,,,,,,,,,,,,,,,,,,,
,,,,,WIN24_060,18,Female,2024-02-13_14h33.15.116,jersey_experiment_5,2023.2.2,Win32,86.20689655,,,,,,,,,,,,,,,,453.0882,454.8881,454.8882,456.7352,return,0.1745,,49.86979167,,,,,,FBP-YG-18.png,0.43,1.2,39,1,0,42,42,38,1,,,,,,,,,,,,,,,,,,,,,,,,,,,,,,,,,,,,,,,,
,,,,,WIN24_060,18,Female,2024-02-13_14h33.15.116,jersey_experiment_5,2023.2.2,Win32,86.20689655,,,,,,,,,,,,,,,,456.7354,458.5355,458.5355,459.6648,return,0.1656,,25.390625,,,,,,FBP-YG-19.png,0.37,1.2,42,1,0,43,43,41,1,,,,,,,,,,,,,,,,,,,,,,,,,,,,,,,,,,,,,,,,
,,,,,WIN24_060,18,Female,2024-02-13_14h33.15.116,jersey_experiment_5,2023.2.2,Win32,86.20689655,,,,,,,,,,,,,,,,459.665,461.4647,461.4648,462.3119,return,0.2665,,25.91145833,,,,,,FBP-YG-18.png,0.35,1.2,36,1,0,44,44,35,1,,,,,,,,,,,,,,,,,,,,,,,,,,,,,,,,,,,,,,,,
,,,,,WIN24_060,18,Female,2024-02-13_14h33.15.116,jersey_experiment_5,2023.2.2,Win32,86.20689655,,,,,,,,,,,,,,,,462.3122,464.1122,464.1123,465.6297,return,0.1296,,74.86979167,,,,,,FBP-RB-81.png,0.4,1.2,23,1,0,45,45,22,1,,,,,,,,,,,,,,,,,,,,,,,,,,,,,,,,,,,,,,,,
,,,,,WIN24_060,18,Female,2024-02-13_14h33.15.116,jersey_experiment_5,2023.2.2,Win32,86.20689655,,,,,,,,,,,,,,,,465.6298,467.4298,467.4298,468.265,return,0.2654,,73.69791667,,,,,,FBP-YG-18.png,0.4,1.2,38,1,0,46,46,37,1,,,,,,,,,,,,,,,,,,,,,,,,,,,,,,,,,,,,,,,,
,,,,,WIN24_060,18,Female,2024-02-13_14h33.15.116,jersey_experiment_5,2023.2.2,Win32,86.20689655,,,,,,,,,,,,,,,,468.2653,470.0652,470.0652,471.0417,return,0.3642,,73.4375,,,,,,FBP-RB-81.png,0.37,1.2,22,1,0,47,47,21,1,,,,,,,,,,,,,,,,,,,,,,,,,,,,,,,,,,,,,,,,
,,,,,WIN24_060,18,Female,2024-02-13_14h33.15.116,jersey_experiment_5,2023.2.2,Win32,86.20689655,,,,,,,,,,,,,,,,471.0419,472.8419,472.8419,474.1124,return,0.2503,,24.609375,,,,,,FBP-RB-71.png,0.35,1.2,16,1,0,48,48,15,1,,,,,,,,,,,,,,,,,,,,,,,,,,,,,,,,,,,,,,,,
,,,,,WIN24_060,18,Female,2024-02-13_14h33.15.116,jersey_experiment_5,2023.2.2,Win32,86.20689655,,,,,,,,,,,,,,,,474.1126,475.4066,475.4066,476.889,return,0.2394,,74.47916667,,,,,,FBP-OG-19.png,0.43,1.2,14,0.5,0,49,49,13,1,,,,,,,,,,,,,,,,,,,,,,,,,,,,,,,,,,,,,,,,
,,,,,WIN24_060,18,Female,2024-02-13_14h33.15.116,jersey_experiment_5,2023.2.2,Win32,86.20689655,,,,,,,,,,,,,,,,476.8893,478.183,478.1831,479.2186,return,0.3293,,73.4375,,,,,,FBP-PT-91.png,0.4,1.2,58,0.5,0,50,50,57,1,,,,,,,,,,,,,,,,,,,,,,,,,,,,,,,,,,,,,,,,
,,,,,WIN24_060,18,Female,2024-02-13_14h33.15.116,jersey_experiment_5,2023.2.2,Win32,86.20689655,,,,,,,,,,,,,,,,479.2189,481.0186,481.0186,482.2892,return,0.5179,,75,,,,,,FBP-RB-71.png,0.45,1.2,20,1,0,51,51,19,1,,,,,,,,,,,,,,,,,,,,,,,,,,,,,,,,,,,,,,,,
,,,,,WIN24_060,18,Female,2024-02-13_14h33.15.116,jersey_experiment_5,2023.2.2,Win32,86.20689655,,,,,,,,,,,,,,,,482.2894,484.0891,484.0892,484.9245,return,0.2484,,74.609375,,,,,,FBP-YG-17.png,0.43,1.2,34,1,0,52,52,33,1,,,,,,,,,,,,,,,,,,,,,,,,,,,,,,,,,,,,,,,,
,,,,,WIN24_060,18,Female,2024-02-13_14h33.15.116,jersey_experiment_5,2023.2.2,Win32,86.20689655,,,,,,,,,,,,,,,,484.9248,486.2187,486.2187,487.5481,return,0.2738,,74.73958333,,,,,,FBP-PT-81.png,0.4,1.2,53,0.5,0,53,53,52,1,,,,,,,,,,,,,,,,,,,,,,,,,,,,,,,,,,,,,,,,
,,,,,WIN24_060,18,Female,2024-02-13_14h33.15.116,jersey_experiment_5,2023.2.2,Win32,86.20689655,,,,,,,,,,,,,,,,487.5484,489.3482,489.3483,491.0189,return,0.438,,75.13020833,,,,,,FBP-RB-81.png,0.43,1.2,24,1,0,54,54,23,1,,,,,,,,,,,,,,,,,,,,,,,,,,,,,,,,,,,,,,,,
,,,,,WIN24_060,18,Female,2024-02-13_14h33.15.116,jersey_experiment_5,2023.2.2,Win32,86.20689655,,,,,,,,,,,,,,,,491.0191,492.313,492.313,493.2778,return,0.388,,74.86979167,,,,,,FBP-PT-81.png,0.43,1.2,54,0.5,0,55,55,53,1,,,,,,,,,,,,,,,,,,,,,,,,,,,,,,,,,,,,,,,,
,,,,,WIN24_060,18,Female,2024-02-13_14h33.15.116,jersey_experiment_5,2023.2.2,Win32,86.20689655,,,,,,,,,,,,,,,,493.278,494.5719,494.572,496.2896,return,0.1989,,25.13020833,,,,,,FBP-OG-19.png,0.37,1.2,12,0.5,0,56,56,11,1,,,,,,,,,,,,,,,,,,,,,,,,,,,,,,,,,,,,,,,,
,,,,,WIN24_060,18,Female,2024-02-13_14h33.15.116,jersey_experiment_5,2023.2.2,Win32,86.20689655,,,,,,,,,,,,,,,,496.2898,497.5839,497.584,498.9135,return,0.1891,,0.520833333,,,,,,FBP-OG-19.png,0.35,1.2,11,0.5,0,57,57,10,1,,,,,,,,,,,,,,,,,,,,,,,,,,,,,,,,,,,,,,,,
,,,,,WIN24_060,18,Female,2024-02-13_14h33.15.116,jersey_experiment_5,2023.2.2,Win32,86.20689655,,,,,,,,,,,,,,,,498.9137,500.7133,500.7133,502.2549,return,0.1789,,75.26041667,,,,,,FBP-RB-71.png,0.43,1.2,19,1,0,58,58,18,1,,,,,,,,,,,,,,,,,,,,,,,,,,,,,,,,,,,,,,,,
,,,,,WIN24_060,18,Female,2024-02-13_14h33.15.116,jersey_experiment_5,2023.2.2,Win32,86.20689655,,,,,,,,,,,,,,,,502.255,503.5487,503.5488,505.1606,return,0.1719,,25.13020833,,,,,,FBP-OG-17.png,0.37,1.2,2,0.5,0,59,59,1,1,,,,,,,,,,,,,,,,,,,,,,,,,,,,,,,,,,,,,,,,
,,,,,WIN24_060,18,Female,2024-02-13_14h33.15.116,jersey_experiment_5,2023.2.2,Win32,86.20689655,,,,,,,,,,,,,,,,,,,,,,,,,,,,,,,,,,,,,,,505.1609,625.1654,,,,,,,,,,,,,,,,,,,,,,,,,,,,,,,,,,,,,,
,,,,,WIN24_060,18,Female,2024-02-13_14h33.15.116,jersey_experiment_5,2023.2.2,Win32,86.20689655,,,,,,,,,,,,,,,,,,,,,,,,,,,,,,,,,,,,,,,,,625.1654,627.9535,return,2.7763,,,,,,,,,,,,,,,,,,,,,,,,,,,,,,,,,,
,,,,,WIN24_060,18,Female,2024-02-13_14h33.15.116,jersey_experiment_5,2023.2.2,Win32,86.20689655,,,,,,,,,,,,,,,,627.9596,629.2593,629.2593,632.4124,return,0.7895,,50,,,,,,FBP-RB-19.png,0.35,1.2,26,0.5,,,,,,,,,,,,,0,0,0,25,1,,,,,,,,,,,,,,,,,,,,,,,,,,,,
,,,,,WIN24_060,18,Female,2024-02-13_14h33.15.116,jersey_experiment_5,2023.2.2,Win32,86.20689655,,,,,,,,,,,,,,,,632.4127,634.2126,634.2126,635.9184,return,0.2837,,99.47916667,,,,,,FBP-PT-19.png,0.45,1.2,60,1,,,,,,,,,,,,,0,1,1,59,1,,,,,,,,,,,,,,,,,,,,,,,,,,,,
,,,,,WIN24_060,18,Female,2024-02-13_14h33.15.116,jersey_experiment_5,2023.2.2,Win32,86.20689655,,,,,,,,,,,,,,,,635.9186,637.2124,637.2124,638.3655,return,0.3315,,99.34895833,,,,,,FBP-RB-17.png,0.4,1.2,18,0.5,,,,,,,,,,,,,0,2,2,17,1,,,,,,,,,,,,,,,,,,,,,,,,,,,,
,,,,,WIN24_060,18,Female,2024-02-13_14h33.15.116,jersey_experiment_5,2023.2.2,Win32,86.20689655,,,,,,,,,,,,,,,,638.3657,639.6597,639.6597,640.9774,return,0.3528,,99.86979167,,,,,,FBP-YG-91.png,0.43,1.2,44,0.5,,,,,,,,,,,,,0,3,3,43,1,,,,,,,,,,,,,,,,,,,,,,,,,,,,
,,,,,WIN24_060,18,Female,2024-02-13_14h33.15.116,jersey_experiment_5,2023.2.2,Win32,86.20689655,,,,,,,,,,,,,,,,640.9776,642.7777,642.7777,644.1423,return,0.1643,,49.73958333,,,,,,FBP-PT-18.png,0.35,1.2,51,1,,,,,,,,,,,,,0,4,4,50,1,,,,,,,,,,,,,,,,,,,,,,,,,,,,
,,,,,WIN24_060,18,Female,2024-02-13_14h33.15.116,jersey_experiment_5,2023.2.2,Win32,86.20689655,,,,,,,,,,,,,,,,644.1425,645.4364,645.4364,646.2482,return,0.2193,,50.65104167,,,,,,FBP-RB-17.png,0.37,1.2,17,0.5,,,,,,,,,,,,,0,5,5,16,1,,,,,,,,,,,,,,,,,,,,,,,,,,,,
,,,,,WIN24_060,18,Female,2024-02-13_14h33.15.116,jersey_experiment_5,2023.2.2,Win32,86.20689655,,,,,,,,,,,,,,,,646.2484,647.5423,647.5423,648.2718,return,0.1283,,50.78125,,,,,,FBP-YG-91.png,0.37,1.2,42,0.5,,,,,,,,,,,,,0,6,6,41,1,,,,,,,,,,,,,,,,,,,,,,,,,,,,
,,,,,WIN24_060,18,Female,2024-02-13_14h33.15.116,jersey_experiment_5,2023.2.2,Win32,86.20689655,,,,,,,,,,,,,,,,648.272,650.0719,650.0719,651.272,return,0.2176,,99.73958333,,,,,,FBP-PT-17.png,0.45,1.2,50,1,,,,,,,,,,,,,0,7,7,49,1,,,,,,,,,,,,,,,,,,,,,,,,,,,,
,,,,,WIN24_060,18,Female,2024-02-13_14h33.15.116,jersey_experiment_5,2023.2.2,Win32,86.20689655,,,,,,,,,,,,,,,,651.2723,653.0719,653.072,654.3662,return,0.0956,,23.828125,,,,,,FBP-OG-81.png,0.35,1.2,6,1,,,,,,,,,,,,,0,8,8,5,1,,,,,,,,,,,,,,,,,,,,,,,,,,,,
,,,,,WIN24_060,18,Female,2024-02-13_14h33.15.116,jersey_experiment_5,2023.2.2,Win32,86.20689655,,,,,,,,,,,,,,,,654.3664,656.1664,656.1664,657.4015,return,0.1237,,74.86979167,,,,,,FBP-PT-19.png,0.37,1.2,57,1,,,,,,,,,,,,,0,9,9,56,1,,,,,,,,,,,,,,,,,,,,,,,,,,,,
,,,,,WIN24_060,18,Female,2024-02-13_14h33.15.116,jersey_experiment_5,2023.2.2,Win32,86.20689655,,,,,,,,,,,,,,,,657.4017,658.6957,658.6957,659.3781,return,0.1887,,74.34895833,,,,,,FBP-RB-18.png,0.43,1.2,24,0.5,,,,,,,,,,,,,0,10,10,23,1,,,,,,,,,,,,,,,,,,,,,,,,,,,,
,,,,,WIN24_060,18,Female,2024-02-13_14h33.15.116,jersey_experiment_5,2023.2.2,Win32,86.20689655,,,,,,,,,,,,,,,,659.3783,661.1782,661.1783,662.1547,return,0.1794,,74.47916667,,,,,,FBP-OG-71.png,0.4,1.2,3,1,,,,,,,,,,,,,0,11,11,2,1,,,,,,,,,,,,,,,,,,,,,,,,,,,,
,,,,,WIN24_060,18,Female,2024-02-13_14h33.15.116,jersey_experiment_5,2023.2.2,Win32,86.20689655,,,,,,,,,,,,,,,,662.1549,663.4488,663.4488,664.1077,return,0.1314,,74.34895833,,,,,,FBP-RB-19.png,0.4,1.2,28,0.5,,,,,,,,,,,,,0,12,12,27,1,,,,,,,,,,,,,,,,,,,,,,,,,,,,
,,,,,WIN24_060,18,Female,2024-02-13_14h33.15.116,jersey_experiment_5,2023.2.2,Win32,86.20689655,,,,,,,,,,,,,,,,664.1079,665.4018,665.4018,666.0254,return,0.1454,,74.34895833,,,,,,FBP-RB-17.png,0.43,1.2,19,0.5,,,,,,,,,,,,,0,13,13,18,1,,,,,,,,,,,,,,,,,,,,,,,,,,,,
,,,,,WIN24_060,18,Female,2024-02-13_14h33.15.116,jersey_experiment_5,2023.2.2,Win32,86.20689655,,,,,,,,,,,,,,,,666.0256,667.8255,667.8255,668.9197,return,0.067,,49.34895833,,,,,,FBP-PT-19.png,0.35,1.2,56,1,,,,,,,,,,,,,0,14,14,55,1,,,,,,,,,,,,,,,,,,,,,,,,,,,,
,,,,,WIN24_060,18,Female,2024-02-13_14h33.15.116,jersey_experiment_5,2023.2.2,Win32,86.20689655,,,,,,,,,,,,,,,,668.9199,670.7198,670.7198,672.508,return,0.0847,,99.73958333,,,,,,FBP-PT-19.png,0.43,1.2,59,1,,,,,,,,,,,,,0,15,15,58,1,,,,,,,,,,,,,,,,,,,,,,,,,,,,
,,,,,WIN24_060,18,Female,2024-02-13_14h33.15.116,jersey_experiment_5,2023.2.2,Win32,86.20689655,,,,,,,,,,,,,,,,672.5082,673.8021,673.8021,674.461,return,0.1774,,99.609375,,,,,,FBP-YG-71.png,0.43,1.2,34,0.5,,,,,,,,,,,,,0,16,16,33,1,,,,,,,,,,,,,,,,,,,,,,,,,,,,
,,,,,WIN24_060,18,Female,2024-02-13_14h33.15.116,jersey_experiment_5,2023.2.2,Win32,86.20689655,,,,,,,,,,,,,,,,674.4612,676.261,676.261,677.4023,return,0.0994,,73.95833333,,,,,,FBP-OG-91.png,0.35,1.2,11,1,,,,,,,,,,,,,0,17,17,10,1,,,,,,,,,,,,,,,,,,,,,,,,,,,,
,,,,,WIN24_060,18,Female,2024-02-13_14h33.15.116,jersey_experiment_5,2023.2.2,Win32,86.20689655,,,,,,,,,,,,,,,,677.4025,678.6964,678.6964,680.2259,return,0.2119,,49.609375,,,,,,FBP-YG-71.png,0.35,1.2,31,0.5,,,,,,,,,,,,,0,18,18,30,1,,,,,,,,,,,,,,,,,,,,,,,,,,,,
,,,,,WIN24_060,18,Female,2024-02-13_14h33.15.116,jersey_experiment_5,2023.2.2,Win32,86.20689655,,,,,,,,,,,,,,,,680.2261,682.0262,682.0262,682.9555,return,0.0045,,99.34895833,,,,,,FBP-PT-18.png,0.43,1.2,54,1,,,,,,,,,,,,,0,19,19,53,1,,,,,,,,,,,,,,,,,,,,,,,,,,,,
,,,,,WIN24_060,18,Female,2024-02-13_14h33.15.116,jersey_experiment_5,2023.2.2,Win32,86.20689655,,,,,,,,,,,,,,,,682.9556,684.7555,684.7555,686.2967,return,0.148,,75.13020833,,,,,,FBP-PT-17.png,0.37,1.2,47,1,,,,,,,,,,,,,0,20,20,46,1,,,,,,,,,,,,,,,,,,,,,,,,,,,,
,,,,,WIN24_060,18,Female,2024-02-13_14h33.15.116,jersey_experiment_5,2023.2.2,Win32,86.20689655,,,,,,,,,,,,,,,,686.297,687.5908,687.5908,688.2733,return,0.0942,,75.13020833,,,,,,FBP-RB-18.png,0.4,1.2,23,0.5,,,,,,,,,,,,,0,21,21,22,1,,,,,,,,,,,,,,,,,,,,,,,,,,,,
,,,,,WIN24_060,18,Female,2024-02-13_14h33.15.116,jersey_experiment_5,2023.2.2,Win32,86.20689655,,,,,,,,,,,,,,,,688.2735,690.0736,690.0736,691.0263,return,0.1178,,74.73958333,,,,,,FBP-OG-81.png,0.4,1.2,8,1,,,,,,,,,,,,,0,22,22,7,1,,,,,,,,,,,,,,,,,,,,,,,,,,,,
,,,,,WIN24_060,18,Female,2024-02-13_14h33.15.116,jersey_experiment_5,2023.2.2,Win32,86.20689655,,,,,,,,,,,,,,,,691.0265,692.8263,692.8263,693.4733,return,0.165,,75,,,,,,FBP-OG-91.png,0.4,1.2,13,1,,,,,,,,,,,,,0,23,23,12,1,,,,,,,,,,,,,,,,,,,,,,,,,,,,
,,,,,WIN24_060,18,Female,2024-02-13_14h33.15.116,jersey_experiment_5,2023.2.2,Win32,86.20689655,,,,,,,,,,,,,,,,693.4735,695.2735,695.2735,695.897,return,0.101,,75,,,,,,FBP-PT-18.png,0.4,1.2,53,1,,,,,,,,,,,,,0,24,24,52,1,,,,,,,,,,,,,,,,,,,,,,,,,,,,
,,,,,WIN24_060,18,Female,2024-02-13_14h33.15.116,jersey_experiment_5,2023.2.2,Win32,86.20689655,,,,,,,,,,,,,,,,695.8973,697.1912,697.1912,697.8029,return,0.1322,,75,,,,,,FBP-YG-71.png,0.45,1.2,35,0.5,,,,,,,,,,,,,0,25,25,34,1,,,,,,,,,,,,,,,,,,,,,,,,,,,,
,,,,,WIN24_060,18,Female,2024-02-13_14h33.15.116,jersey_experiment_5,2023.2.2,Win32,86.20689655,,,,,,,,,,,,,,,,697.8032,699.6031,699.6031,700.6149,return,0.0912,,50,,,,,,FBP-OG-71.png,0.37,1.2,2,1,,,,,,,,,,,,,0,26,26,1,1,,,,,,,,,,,,,,,,,,,,,,,,,,,,
,,,,,WIN24_060,18,Female,2024-02-13_14h33.15.116,jersey_experiment_5,2023.2.2,Win32,86.20689655,,,,,,,,,,,,,,,,700.6151,702.4149,702.415,703.5444,return,0.0542,,75.13020833,,,,,,FBP-PT-19.png,0.4,1.2,58,1,,,,,,,,,,,,,0,27,27,57,1,,,,,,,,,,,,,,,,,,,,,,,,,,,,
,,,,,WIN24_060,18,Female,2024-02-13_14h33.15.116,jersey_experiment_5,2023.2.2,Win32,86.20689655,,,,,,,,,,,,,,,,703.5446,704.8385,704.8385,705.568,return,0.0942,,75,,,,,,FBP-RB-17.png,0.45,1.2,20,0.5,,,,,,,,,,,,,0,28,28,19,1,,,,,,,,,,,,,,,,,,,,,,,,,,,,
,,,,,WIN24_060,18,Female,2024-02-13_14h33.15.116,jersey_experiment_5,2023.2.2,Win32,86.20689655,,,,,,,,,,,,,,,,705.5682,706.8621,706.8621,708.6388,return,0.1084,,99.47916667,,,,,,FBP-RB-18.png,0.45,1.2,25,0.5,,,,,,,,,,,,,0,29,29,24,1,,,,,,,,,,,,,,,,,,,,,,,,,,,,
,,,,,WIN24_060,18,Female,2024-02-13_14h33.15.116,jersey_experiment_5,2023.2.2,Win32,86.20689655,,,,,,,,,,,,,,,,708.6391,709.9328,709.9329,711.6271,return,0.1213,,49.86979167,,,,,,FBP-YG-91.png,0.35,1.2,41,0.5,,,,,,,,,,,,,0,30,30,40,1,,,,,,,,,,,,,,,,,,,,,,,,,,,,
,,,,,WIN24_060,18,Female,2024-02-13_14h33.15.116,jersey_experiment_5,2023.2.2,Win32,86.20689655,,,,,,,,,,,,,,,,711.6273,712.9212,712.9213,713.9919,return,0.1018,,99.609375,,,,,,FBP-RB-19.png,0.43,1.2,29,0.5,,,,,,,,,,,,,0,31,31,28,1,,,,,,,,,,,,,,,,,,,,,,,,,,,,
,,,,,WIN24_060,18,Female,2024-02-13_14h33.15.116,jersey_experiment_5,2023.2.2,Win32,86.20689655,,,,,,,,,,,,,,,,713.992,715.7922,715.7922,716.839,return,0.1261,,99.34895833,,,,,,FBP-OG-71.png,0.43,1.2,4,1,,,,,,,,,,,,,0,32,32,3,1,,,,,,,,,,,,,,,,,,,,,,,,,,,,
,,,,,WIN24_060,18,Female,2024-02-13_14h33.15.116,jersey_experiment_5,2023.2.2,Win32,86.20689655,,,,,,,,,,,,,,,,716.8392,718.6392,718.6392,719.6627,return,0.1282,,99.34895833,,,,,,FBP-OG-71.png,0.45,1.2,5,1,,,,,,,,,,,,,0,33,33,4,1,,,,,,,,,,,,,,,,,,,,,,,,,,,,
,,,,,WIN24_060,18,Female,2024-02-13_14h33.15.116,jersey_experiment_5,2023.2.2,Win32,86.20689655,,,,,,,,,,,,,,,,719.6629,721.4628,721.4628,724.3688,return,0.0944,,24.86979167,,,,,,FBP-OG-91.png,0.37,1.2,12,1,,,,,,,,,,,,,0,34,34,11,1,,,,,,,,,,,,,,,,,,,,,,,,,,,,
,,,,,WIN24_060,18,Female,2024-02-13_14h33.15.116,jersey_experiment_5,2023.2.2,Win32,86.20689655,,,,,,,,,,,,,,,,724.369,725.6629,725.6629,727.2747,return,0.0971,,99.86979167,,,,,,FBP-YG-81.png,0.45,1.2,40,0.5,,,,,,,,,,,,,0,35,35,39,1,,,,,,,,,,,,,,,,,,,,,,,,,,,,
,,,,,WIN24_060,18,Female,2024-02-13_14h33.15.116,jersey_experiment_5,2023.2.2,Win32,86.20689655,,,,,,,,,,,,,,,,727.275,728.5689,728.5689,729.7455,return,0.1414,,48.95833333,,,,,,FBP-YG-71.png,0.4,1.2,33,0.5,,,,,,,,,,,,,0,36,36,32,1,,,,,,,,,,,,,,,,,,,,,,,,,,,,
,,,,,WIN24_060,18,Female,2024-02-13_14h33.15.116,jersey_experiment_5,2023.2.2,Win32,86.20689655,,,,,,,,,,,,,,,,729.7457,731.5453,731.5454,732.7338,return,0.0233,,24.86979167,,,,,,FBP-OG-81.png,0.37,1.2,7,1,,,,,,,,,,,,,0,37,37,6,1,,,,,,,,,,,,,,,,,,,,,,,,,,,,
,,,,,WIN24_060,18,Female,2024-02-13_14h33.15.116,jersey_experiment_5,2023.2.2,Win32,86.20689655,,,,,,,,,,,,,,,,732.734,734.5338,734.5338,735.3574,return,0.0118,,99.609375,,,,,,FBP-OG-81.png,0.45,1.2,10,1,,,,,,,,,,,,,0,38,38,9,1,,,,,,,,,,,,,,,,,,,,,,,,,,,,
,,,,,WIN24_060,18,Female,2024-02-13_14h33.15.116,jersey_experiment_5,2023.2.2,Win32,86.20689655,,,,,,,,,,,,,,,,735.3576,737.1574,737.1575,738.3222,return,0.4569,,98.30729167,,,,,,FBP-OG-91.png,0.43,1.2,14,1,,,,,,,,,,,,,0,39,39,13,1,,,,,,,,,,,,,,,,,,,,,,,,,,,,
,,,,,WIN24_060,18,Female,2024-02-13_14h33.15.116,jersey_experiment_5,2023.2.2,Win32,86.20689655,,,,,,,,,,,,,,,,738.3224,740.1222,740.1222,741.6164,return,0.1646,,74.21875,,,,,,FBP-PT-17.png,0.43,1.2,49,1,,,,,,,,,,,,,0,40,40,48,1,,,,,,,,,,,,,,,,,,,,,,,,,,,,
,,,,,WIN24_060,18,Female,2024-02-13_14h33.15.116,jersey_experiment_5,2023.2.2,Win32,86.20689655,,,,,,,,,,,,,,,,741.6167,742.9106,742.9106,744.1577,return,0.0589,,99.47916667,,,,,,FBP-YG-91.png,0.45,1.2,45,0.5,,,,,,,,,,,,,0,41,41,44,1,,,,,,,,,,,,,,,,,,,,,,,,,,,,
,,,,,WIN24_060,18,Female,2024-02-13_14h33.15.116,jersey_experiment_5,2023.2.2,Win32,86.20689655,,,,,,,,,,,,,,,,744.1579,745.4518,745.4518,747.0167,return,0.2167,,24.21875,,,,,,FBP-RB-18.png,0.35,1.2,21,0.5,,,,,,,,,,,,,0,42,42,20,1,,,,,,,,,,,,,,,,,,,,,,,,,,,,
,,,,,WIN24_060,18,Female,2024-02-13_14h33.15.116,jersey_experiment_5,2023.2.2,Win32,86.20689655,,,,,,,,,,,,,,,,747.0169,748.8166,748.8166,749.9815,return,0.0707,,75,,,,,,FBP-PT-17.png,0.4,1.2,48,1,,,,,,,,,,,,,0,43,43,47,1,,,,,,,,,,,,,,,,,,,,,,,,,,,,
,,,,,WIN24_060,18,Female,2024-02-13_14h33.15.116,jersey_experiment_5,2023.2.2,Win32,86.20689655,,,,,,,,,,,,,,,,749.9818,751.2756,751.2757,752.0757,return,0.2982,,75,,,,,,FBP-RB-18.png,0.37,1.2,22,0.5,,,,,,,,,,,,,0,44,44,21,1,,,,,,,,,,,,,,,,,,,,,,,,,,,,
,,,,,WIN24_060,18,Female,2024-02-13_14h33.15.116,jersey_experiment_5,2023.2.2,Win32,86.20689655,,,,,,,,,,,,,,,,752.0758,753.3699,753.3699,753.9934,return,0.1807,,74.73958333,,,,,,FBP-YG-71.png,0.37,1.2,32,0.5,,,,,,,,,,,,,0,45,45,31,1,,,,,,,,,,,,,,,,,,,,,,,,,,,,
,,,,,WIN24_060,18,Female,2024-02-13_14h33.15.116,jersey_experiment_5,2023.2.2,Win32,86.20689655,,,,,,,,,,,,,,,,753.9936,755.2875,755.2875,755.8876,return,0.2016,,74.73958333,,,,,,FBP-YG-81.png,0.35,1.2,36,0.5,,,,,,,,,,,,,0,46,46,35,1,,,,,,,,,,,,,,,,,,,,,,,,,,,,
,,,,,WIN24_060,18,Female,2024-02-13_14h33.15.116,jersey_experiment_5,2023.2.2,Win32,86.20689655,,,,,,,,,,,,,,,,755.8878,757.1817,757.1817,758.9112,return,0.0807,,99.08854167,,,,,,FBP-RB-19.png,0.45,1.2,30,0.5,,,,,,,,,,,,,0,47,47,29,1,,,,,,,,,,,,,,,,,,,,,,,,,,,,
,,,,,WIN24_060,18,Female,2024-02-13_14h33.15.116,jersey_experiment_5,2023.2.2,Win32,86.20689655,,,,,,,,,,,,,,,,758.9114,760.2053,760.2053,761.6289,return,0.1558,,75.52083333,,,,,,FBP-RB-19.png,0.37,1.2,27,0.5,,,,,,,,,,,,,0,48,48,26,1,,,,,,,,,,,,,,,,,,,,,,,,,,,,
,,,,,WIN24_060,18,Female,2024-02-13_14h33.15.116,jersey_experiment_5,2023.2.2,Win32,86.20689655,,,,,,,,,,,,,,,,761.6291,762.9231,762.9232,764.9585,return,0.1993,,99.34895833,,,,,,FBP-YG-81.png,0.43,1.2,39,0.5,,,,,,,,,,,,,0,49,49,38,1,,,,,,,,,,,,,,,,,,,,,,,,,,,,
,,,,,WIN24_060,18,Female,2024-02-13_14h33.15.116,jersey_experiment_5,2023.2.2,Win32,86.20689655,,,,,,,,,,,,,,,,764.9586,766.2526,766.2526,767.4056,return,0.4257,,98.69791667,,,,,,FBP-YG-91.png,0.4,1.2,43,0.5,,,,,,,,,,,,,0,50,50,42,1,,,,,,,,,,,,,,,,,,,,,,,,,,,,
,,,,,WIN24_060,18,Female,2024-02-13_14h33.15.116,jersey_experiment_5,2023.2.2,Win32,86.20689655,,,,,,,,,,,,,,,,767.4058,768.6997,768.6997,769.5704,return,0.2926,,98.046875,,,,,,FBP-YG-81.png,0.4,1.2,38,0.5,,,,,,,,,,,,,0,51,51,37,1,,,,,,,,,,,,,,,,,,,,,,,,,,,,
,,,,,WIN24_060,18,Female,2024-02-13_14h33.15.116,jersey_experiment_5,2023.2.2,Win32,86.20689655,,,,,,,,,,,,,,,,769.5706,771.3707,771.3707,772.4648,return,0.1651,,23.69791667,,,,,,FBP-PT-17.png,0.35,1.2,46,1,,,,,,,,,,,,,0,52,52,45,1,,,,,,,,,,,,,,,,,,,,,,,,,,,,
,,,,,WIN24_060,18,Female,2024-02-13_14h33.15.116,jersey_experiment_5,2023.2.2,Win32,86.20689655,,,,,,,,,,,,,,,,772.465,774.2649,774.2649,775.3706,return,0.1111,,75.13020833,,,,,,FBP-OG-81.png,0.43,1.2,9,1,,,,,,,,,,,,,0,53,53,8,1,,,,,,,,,,,,,,,,,,,,,,,,,,,,
,,,,,WIN24_060,18,Female,2024-02-13_14h33.15.116,jersey_experiment_5,2023.2.2,Win32,86.20689655,,,,,,,,,,,,,,,,775.3708,777.1708,777.1708,778.3119,return,0.1371,,99.08854167,,,,,,FBP-OG-91.png,0.45,1.2,15,1,,,,,,,,,,,,,0,54,54,14,1,,,,,,,,,,,,,,,,,,,,,,,,,,,,
,,,,,WIN24_060,18,Female,2024-02-13_14h33.15.116,jersey_experiment_5,2023.2.2,Win32,86.20689655,,,,,,,,,,,,,,,,778.3121,779.6061,779.6061,780.7943,return,0.1703,,73.69791667,,,,,,FBP-YG-81.png,0.37,1.2,37,0.5,,,,,,,,,,,,,0,55,55,36,1,,,,,,,,,,,,,,,,,,,,,,,,,,,,
,,,,,WIN24_060,18,Female,2024-02-13_14h33.15.116,jersey_experiment_5,2023.2.2,Win32,86.20689655,,,,,,,,,,,,,,,,780.7946,782.5946,782.5946,783.5003,return,0.0739,,24.34895833,,,,,,FBP-OG-71.png,0.35,1.2,1,1,,,,,,,,,,,,,0,56,56,0,1,,,,,,,,,,,,,,,,,,,,,,,,,,,,
,,,,,WIN24_060,18,Female,2024-02-13_14h33.15.116,jersey_experiment_5,2023.2.2,Win32,86.20689655,,,,,,,,,,,,,,,,783.5005,784.7945,784.7945,785.8181,return,0.0175,,75.52083333,,,,,,FBP-RB-17.png,0.35,1.2,16,0.5,,,,,,,,,,,,,0,57,57,15,1,,,,,,,,,,,,,,,,,,,,,,,,,,,,
,,,,,WIN24_060,18,Female,2024-02-13_14h33.15.116,jersey_experiment_5,2023.2.2,Win32,86.20689655,,,,,,,,,,,,,,,,785.8183,787.6182,787.6182,788.7006,return,0.0739,,99.21875,,,,,,FBP-PT-18.png,0.45,1.2,55,1,,,,,,,,,,,,,0,58,58,54,1,,,,,,,,,,,,,,,,,,,,,,,,,,,,
,,,,,WIN24_060,18,Female,2024-02-13_14h33.15.116,jersey_experiment_5,2023.2.2,Win32,86.20689655,,,,,,,,,,,,,,,,788.7008,790.5007,790.5007,791.5595,return,0.0534,,24.73958333,,,,,,FBP-PT-18.png,0.37,1.2,52,1,,,,,,,,,,,,,0,59,59,51,1,,,,,,,,,,,,,,,,,,,,,,,,,,,,
,,,,,WIN24_060,18,Female,2024-02-13_14h33.15.116,jersey_experiment_5,2023.2.2,Win32,86.20689655,,,,,,,,,,,,,,,,791.5608,792.8536,792.8536,794.7478,return,0.1924,,75.13020833,,,,,,FBP-YG-18.png,0.43,1.2,39,0.5,,,,,,,,,,,,,,,,,,0,0,0,38,1,,,,,,,,,,,,,,,,,,,,,,,
,,,,,WIN24_060,18,Female,2024-02-13_14h33.15.116,jersey_experiment_5,2023.2.2,Win32,86.20689655,,,,,,,,,,,,,,,,794.7481,796.5479,796.5479,797.3361,return,0.1724,,99.609375,,,,,,FBP-PT-91.png,0.45,1.2,60,1,,,,,,,,,,,,,,,,,,0,1,1,59,1,,,,,,,,,,,,,,,,,,,,,,,
,,,,,WIN24_060,18,Female,2024-02-13_14h33.15.116,jersey_experiment_5,2023.2.2,Win32,86.20689655,,,,,,,,,,,,,,,,797.3364,798.6302,798.6303,799.5598,return,0.053,,75.65104167,,,,,,FBP-RB-71.png,0.37,1.2,17,0.5,,,,,,,,,,,,,,,,,,0,2,2,16,1,,,,,,,,,,,,,,,,,,,,,,,
,,,,,WIN24_060,18,Female,2024-02-13_14h33.15.116,jersey_experiment_5,2023.2.2,Win32,86.20689655,,,,,,,,,,,,,,,,799.56,801.3599,801.3599,802.4069,return,0.0912,,99.08854167,,,,,,FBP-OG-18.png,0.43,1.2,9,1,,,,,,,,,,,,,,,,,,0,3,3,8,1,,,,,,,,,,,,,,,,,,,,,,,
,,,,,WIN24_060,18,Female,2024-02-13_14h33.15.116,jersey_experiment_5,2023.2.2,Win32,86.20689655,,,,,,,,,,,,,,,,802.4071,803.7011,803.7012,804.56,return,0.151,,98.69791667,,,,,,FBP-YG-19.png,0.43,1.2,44,0.5,,,,,,,,,,,,,,,,,,0,4,4,43,1,,,,,,,,,,,,,,,,,,,,,,,
,,,,,WIN24_060,18,Female,2024-02-13_14h33.15.116,jersey_experiment_5,2023.2.2,Win32,86.20689655,,,,,,,,,,,,,,,,804.5601,805.854,805.8541,806.6189,return,0.1676,,98.56770833,,,,,,FBP-YG-19.png,0.45,1.2,45,0.5,,,,,,,,,,,,,,,,,,0,5,5,44,1,,,,,,,,,,,,,,,,,,,,,,,
,,,,,WIN24_060,18,Female,2024-02-13_14h33.15.116,jersey_experiment_5,2023.2.2,Win32,86.20689655,,,,,,,,,,,,,,,,806.6191,808.4188,808.4188,808.9837,return,0.1353,,98.4375,,,,,,FBP-PT-71.png,0.45,1.2,50,1,,,,,,,,,,,,,,,,,,0,6,6,49,1,,,,,,,,,,,,,,,,,,,,,,,
,,,,,WIN24_060,18,Female,2024-02-13_14h33.15.116,jersey_experiment_5,2023.2.2,Win32,86.20689655,,,,,,,,,,,,,,,,808.9838,810.2778,810.2778,811.3601,return,0.0335,,75.26041667,,,,,,FBP-YG-18.png,0.37,1.2,37,0.5,,,,,,,,,,,,,,,,,,0,7,7,36,1,,,,,,,,,,,,,,,,,,,,,,,
,,,,,WIN24_060,18,Female,2024-02-13_14h33.15.116,jersey_experiment_5,2023.2.2,Win32,86.20689655,,,,,,,,,,,,,,,,811.3603,812.6543,812.6543,813.9133,return,0.0512,,24.609375,,,,,,FBP-YG-17.png,0.35,1.2,31,0.5,,,,,,,,,,,,,,,,,,0,8,8,30,1,,,,,,,,,,,,,,,,,,,,,,,
,,,,,WIN24_060,18,Female,2024-02-13_14h33.15.116,jersey_experiment_5,2023.2.2,Win32,86.20689655,,,,,,,,,,,,,,,,813.9135,815.7133,815.7134,816.4781,return,0.0847,,75,,,,,,FBP-PT-71.png,0.4,1.2,48,1,,,,,,,,,,,,,,,,,,0,9,9,47,1,,,,,,,,,,,,,,,,,,,,,,,
,,,,,WIN24_060,18,Female,2024-02-13_14h33.15.116,jersey_experiment_5,2023.2.2,Win32,86.20689655,,,,,,,,,,,,,,,,816.4783,818.2781,818.2782,819.6781,return,0.0614,,49.08854167,,,,,,FBP-OG-17.png,0.35,1.2,1,1,,,,,,,,,,,,,,,,,,0,10,10,0,1,,,,,,,,,,,,,,,,,,,,,,,
,,,,,WIN24_060,18,Female,2024-02-13_14h33.15.116,jersey_experiment_5,2023.2.2,Win32,86.20689655,,,,,,,,,,,,,,,,819.6783,821.4783,821.4783,822.4899,return,0.1233,,99.34895833,,,,,,FBP-PT-71.png,0.43,1.2,49,1,,,,,,,,,,,,,,,,,,0,11,11,48,1,,,,,,,,,,,,,,,,,,,,,,,
,,,,,WIN24_060,18,Female,2024-02-13_14h33.15.116,jersey_experiment_5,2023.2.2,Win32,86.20689655,,,,,,,,,,,,,,,,822.4901,824.2902,824.2902,825.1607,return,0.0424,,99.47916667,,,,,,FBP-PT-81.png,0.45,1.2,55,1,,,,,,,,,,,,,,,,,,0,12,12,54,1,,,,,,,,,,,,,,,,,,,,,,,
,,,,,WIN24_060,18,Female,2024-02-13_14h33.15.116,jersey_experiment_5,2023.2.2,Win32,86.20689655,,,,,,,,,,,,,,,,825.161,826.4549,826.4549,827.2667,return,0.0803,,97.78645833,,,,,,FBP-RB-71.png,0.45,1.2,20,0.5,,,,,,,,,,,,,,,,,,0,13,13,19,1,,,,,,,,,,,,,,,,,,,,,,,
,,,,,WIN24_060,18,Female,2024-02-13_14h33.15.116,jersey_experiment_5,2023.2.2,Win32,86.20689655,,,,,,,,,,,,,,,,827.2668,828.5608,828.5608,829.8315,return,0.065,,24.21875,,,,,,FBP-YG-18.png,0.35,1.2,36,0.5,,,,,,,,,,,,,,,,,,0,14,14,35,1,,,,,,,,,,,,,,,,,,,,,,,
,,,,,WIN24_060,18,Female,2024-02-13_14h33.15.116,jersey_experiment_5,2023.2.2,Win32,86.20689655,,,,,,,,,,,,,,,,829.8317,831.6315,831.6315,832.6315,return,0.1494,,75.13020833,,,,,,FBP-PT-91.png,0.4,1.2,58,1,,,,,,,,,,,,,,,,,,0,15,15,57,1,,,,,,,,,,,,,,,,,,,,,,,
,,,,,WIN24_060,18,Female,2024-02-13_14h33.15.116,jersey_experiment_5,2023.2.2,Win32,86.20689655,,,,,,,,,,,,,,,,832.6317,834.4318,834.4318,836.5142,return,0.2687,,0.78125,,,,,,FBP-OG-19.png,0.35,1.2,11,1,,,,,,,,,,,,,,,,,,0,16,16,10,1,,,,,,,,,,,,,,,,,,,,,,,
,,,,,WIN24_060,18,Female,2024-02-13_14h33.15.116,jersey_experiment_5,2023.2.2,Win32,86.20689655,,,,,,,,,,,,,,,,836.5144,838.3144,838.3144,839.6553,return,0.4671,,49.73958333,,,,,,FBP-OG-17.png,0.43,1.2,4,1,,,,,,,,,,,,,,,,,,0,17,17,3,1,,,,,,,,,,,,,,,,,,,,,,,
,,,,,WIN24_060,18,Female,2024-02-13_14h33.15.116,jersey_experiment_5,2023.2.2,Win32,86.20689655,,,,,,,,,,,,,,,,839.6555,840.9497,840.9497,842.032,return,0.0944,,74.34895833,,,,,,FBP-RB-71.png,0.4,1.2,18,0.5,,,,,,,,,,,,,,,,,,0,18,18,17,1,,,,,,,,,,,,,,,,,,,,,,,
,,,,,WIN24_060,18,Female,2024-02-13_14h33.15.116,jersey_experiment_5,2023.2.2,Win32,86.20689655,,,,,,,,,,,,,,,,842.0323,843.326,843.326,844.5613,return,0.0099,,26.04166667,,,,,,FBP-RB-91.png,0.35,1.2,26,0.5,,,,,,,,,,,,,,,,,,0,19,19,25,1,,,,,,,,,,,,,,,,,,,,,,,
,,,,,WIN24_060,18,Female,2024-02-13_14h33.15.116,jersey_experiment_5,2023.2.2,Win32,86.20689655,,,,,,,,,,,,,,,,844.5615,846.3617,846.3618,847.3615,return,0.0343,,50.13020833,,,,,,FBP-PT-91.png,0.35,1.2,56,1,,,,,,,,,,,,,,,,,,0,20,20,55,1,,,,,,,,,,,,,,,,,,,,,,,
,,,,,WIN24_060,18,Female,2024-02-13_14h33.15.116,jersey_experiment_5,2023.2.2,Win32,86.20689655,,,,,,,,,,,,,,,,847.3618,848.6557,848.6557,850.2678,return,0.2041,,75.26041667,,,,,,FBP-RB-81.png,0.45,1.2,25,0.5,,,,,,,,,,,,,,,,,,0,21,21,24,1,,,,,,,,,,,,,,,,,,,,,,,
,,,,,WIN24_060,18,Female,2024-02-13_14h33.15.116,jersey_experiment_5,2023.2.2,Win32,86.20689655,,,,,,,,,,,,,,,,850.268,852.0677,852.0677,853.55,return,0.1903,,51.171875,,,,,,FBP-OG-17.png,0.37,1.2,2,1,,,,,,,,,,,,,,,,,,0,22,22,1,1,,,,,,,,,,,,,,,,,,,,,,,
,,,,,WIN24_060,18,Female,2024-02-13_14h33.15.116,jersey_experiment_5,2023.2.2,Win32,86.20689655,,,,,,,,,,,,,,,,853.5503,855.3501,855.3501,858.409,return,0.7478,,64.0625,,,,,,FBP-PT-81.png,0.43,1.2,54,1,,,,,,,,,,,,,,,,,,0,23,23,53,1,,,,,,,,,,,,,,,,,,,,,,,
,,,,,WIN24_060,18,Female,2024-02-13_14h33.15.116,jersey_experiment_5,2023.2.2,Win32,86.20689655,,,,,,,,,,,,,,,,858.4092,859.7032,859.7032,862.4091,return,0.1222,,80.078125,,,,,,FBP-YG-19.png,0.37,1.2,42,0.5,,,,,,,,,,,,,,,,,,0,24,24,41,1,,,,,,,,,,,,,,,,,,,,,,,
,,,,,WIN24_060,18,Female,2024-02-13_14h33.15.116,jersey_experiment_5,2023.2.2,Win32,86.20689655,,,,,,,,,,,,,,,,862.4093,864.2092,864.2092,865.6446,return,0.1207,,74.73958333,,,,,,FBP-OG-19.png,0.37,1.2,12,1,,,,,,,,,,,,,,,,,,0,25,25,11,1,,,,,,,,,,,,,,,,,,,,,,,
,,,,,WIN24_060,18,Female,2024-02-13_14h33.15.116,jersey_experiment_5,2023.2.2,Win32,86.20689655,,,,,,,,,,,,,,,,865.6448,867.4446,867.4446,869.0212,return,0.1181,,99.34895833,,,,,,FBP-PT-71.png,0.37,1.2,47,1,,,,,,,,,,,,,,,,,,0,26,26,46,1,,,,,,,,,,,,,,,,,,,,,,,
,,,,,WIN24_060,18,Female,2024-02-13_14h33.15.116,jersey_experiment_5,2023.2.2,Win32,86.20689655,,,,,,,,,,,,,,,,869.0214,870.8212,870.8212,871.7742,return,0.165,,69.01041667,,,,,,FBP-PT-81.png,0.35,1.2,51,1,,,,,,,,,,,,,,,,,,0,27,27,50,1,,,,,,,,,,,,,,,,,,,,,,,
,,,,,WIN24_060,18,Female,2024-02-13_14h33.15.116,jersey_experiment_5,2023.2.2,Win32,86.20689655,,,,,,,,,,,,,,,,871.7743,873.5741,873.5741,874.7507,return,0.2222,,66.796875,,,,,,FBP-PT-81.png,0.4,1.2,53,1,,,,,,,,,,,,,,,,,,0,28,28,52,1,,,,,,,,,,,,,,,,,,,,,,,
,,,,,WIN24_060,18,Female,2024-02-13_14h33.15.116,jersey_experiment_5,2023.2.2,Win32,86.20689655,,,,,,,,,,,,,,,,874.751,876.5508,876.5509,878.4804,return,0.1075,,99.73958333,,,,,,FBP-OG-19.png,0.45,1.2,15,1,,,,,,,,,,,,,,,,,,0,29,29,14,1,,,,,,,,,,,,,,,,,,,,,,,
,,,,,WIN24_060,18,Female,2024-02-13_14h33.15.116,jersey_experiment_5,2023.2.2,Win32,86.20689655,,,,,,,,,,,,,,,,878.4806,880.2806,880.2806,882.2569,return,0.2218,,61.58854167,,,,,,FBP-PT-71.png,0.35,1.2,46,1,,,,,,,,,,,,,,,,,,0,30,30,45,1,,,,,,,,,,,,,,,,,,,,,,,
,,,,,WIN24_060,18,Female,2024-02-13_14h33.15.116,jersey_experiment_5,2023.2.2,Win32,86.20689655,,,,,,,,,,,,,,,,882.2571,883.5511,883.5511,884.6571,return,0.1888,,61.97916667,,,,,,FBP-RB-71.png,0.35,1.2,16,0.5,,,,,,,,,,,,,,,,,,0,31,31,15,1,,,,,,,,,,,,,,,,,,,,,,,
,,,,,WIN24_060,18,Female,2024-02-13_14h33.15.116,jersey_experiment_5,2023.2.2,Win32,86.20689655,,,,,,,,,,,,,,,,884.6572,885.9511,885.9511,887.6924,return,0.2254,,85.02604167,,,,,,FBP-YG-17.png,0.43,1.2,34,0.5,,,,,,,,,,,,,,,,,,0,32,32,33,1,,,,,,,,,,,,,,,,,,,,,,,
,,,,,WIN24_060,18,Female,2024-02-13_14h33.15.116,jersey_experiment_5,2023.2.2,Win32,86.20689655,,,,,,,,,,,,,,,,887.6927,889.4926,889.4927,891.1161,return,0.1427,,87.23958333,,,,,,FBP-OG-19.png,0.43,1.2,14,1,,,,,,,,,,,,,,,,,,0,33,33,13,1,,,,,,,,,,,,,,,,,,,,,,,
,,,,,WIN24_060,18,Female,2024-02-13_14h33.15.116,jersey_experiment_5,2023.2.2,Win32,86.20689655,,,,,,,,,,,,,,,,891.1164,892.4102,892.4102,894.0574,return,0.2632,,88.54166667,,,,,,FBP-RB-91.png,0.37,1.2,27,0.5,,,,,,,,,,,,,,,,,,0,34,34,26,1,,,,,,,,,,,,,,,,,,,,,,,
,,,,,WIN24_060,18,Female,2024-02-13_14h33.15.116,jersey_experiment_5,2023.2.2,Win32,86.20689655,,,,,,,,,,,,,,,,894.0576,895.3514,895.3515,897.1633,return,1.1691,,98.046875,,,,,,FBP-RB-91.png,0.45,1.2,30,0.5,,,,,,,,,,,,,,,,,,0,35,35,29,1,,,,,,,,,,,,,,,,,,,,,,,
,,,,,WIN24_060,18,Female,2024-02-13_14h33.15.116,jersey_experiment_5,2023.2.2,Win32,86.20689655,,,,,,,,,,,,,,,,897.1635,898.9635,898.9635,899.9987,return,0.1656,,89.32291667,,,,,,FBP-PT-81.png,0.37,1.2,52,1,,,,,,,,,,,,,,,,,,0,36,36,51,1,,,,,,,,,,,,,,,,,,,,,,,
,,,,,WIN24_060,18,Female,2024-02-13_14h33.15.116,jersey_experiment_5,2023.2.2,Win32,86.20689655,,,,,,,,,,,,,,,,899.999,901.2929,901.2929,902.7165,return,0.1797,,77.34375,,,,,,FBP-YG-19.png,0.35,1.2,41,0.5,,,,,,,,,,,,,,,,,,0,37,37,40,1,,,,,,,,,,,,,,,,,,,,,,,
,,,,,WIN24_060,18,Female,2024-02-13_14h33.15.116,jersey_experiment_5,2023.2.2,Win32,86.20689655,,,,,,,,,,,,,,,,902.7166,904.0107,904.0107,905.2929,return,0.1065,,75,,,,,,FBP-RB-81.png,0.4,1.2,23,0.5,,,,,,,,,,,,,,,,,,0,38,38,22,1,,,,,,,,,,,,,,,,,,,,,,,
,,,,,WIN24_060,18,Female,2024-02-13_14h33.15.116,jersey_experiment_5,2023.2.2,Win32,86.20689655,,,,,,,,,,,,,,,,905.2932,906.5872,906.5872,907.4344,return,0.1937,,80.72916667,,,,,,FBP-YG-19.png,0.4,1.2,43,0.5,,,,,,,,,,,,,,,,,,0,39,39,42,1,,,,,,,,,,,,,,,,,,,,,,,
,,,,,WIN24_060,18,Female,2024-02-13_14h33.15.116,jersey_experiment_5,2023.2.2,Win32,86.20689655,,,,,,,,,,,,,,,,907.4346,908.7284,908.7284,909.6108,return,0.087,,80.59895833,,,,,,FBP-YG-17.png,0.4,1.2,33,0.5,,,,,,,,,,,,,,,,,,0,40,40,32,1,,,,,,,,,,,,,,,,,,,,,,,
,,,,,WIN24_060,18,Female,2024-02-13_14h33.15.116,jersey_experiment_5,2023.2.2,Win32,86.20689655,,,,,,,,,,,,,,,,909.6111,910.9051,910.9051,911.8228,return,0.3068,,80.59895833,,,,,,FBP-YG-18.png,0.4,1.2,38,0.5,,,,,,,,,,,,,,,,,,0,41,41,37,1,,,,,,,,,,,,,,,,,,,,,,,
,,,,,WIN24_060,18,Female,2024-02-13_14h33.15.116,jersey_experiment_5,2023.2.2,Win32,86.20689655,,,,,,,,,,,,,,,,911.8231,913.1169,913.117,914.1523,return,0.1133,,89.32291667,,,,,,FBP-YG-18.png,0.45,1.2,40,0.5,,,,,,,,,,,,,,,,,,0,42,42,39,1,,,,,,,,,,,,,,,,,,,,,,,
,,,,,WIN24_060,18,Female,2024-02-13_14h33.15.116,jersey_experiment_5,2023.2.2,Win32,86.20689655,,,,,,,,,,,,,,,,914.1526,915.9523,915.9523,916.8818,return,0.1414,,87.109375,,,,,,FBP-OG-19.png,0.4,1.2,13,1,,,,,,,,,,,,,,,,,,0,43,43,12,1,,,,,,,,,,,,,,,,,,,,,,,
,,,,,WIN24_060,18,Female,2024-02-13_14h33.15.116,jersey_experiment_5,2023.2.2,Win32,86.20689655,,,,,,,,,,,,,,,,916.882,918.6818,918.6818,919.3407,return,0.1209,,93.359375,,,,,,FBP-OG-17.png,0.4,1.2,3,1,,,,,,,,,,,,,,,,,,0,44,44,2,1,,,,,,,,,,,,,,,,,,,,,,,
,,,,,WIN24_060,18,Female,2024-02-13_14h33.15.116,jersey_experiment_5,2023.2.2,Win32,86.20689655,,,,,,,,,,,,,,,,919.3409,920.6348,920.6348,921.5762,return,0.1255,,97.13541667,,,,,,FBP-RB-71.png,0.43,1.2,19,0.5,,,,,,,,,,,,,,,,,,0,45,45,18,1,,,,,,,,,,,,,,,,,,,,,,,
,,,,,WIN24_060,18,Female,2024-02-13_14h33.15.116,jersey_experiment_5,2023.2.2,Win32,86.20689655,,,,,,,,,,,,,,,,921.5765,922.8702,922.8702,923.8703,return,0.1545,,97.52604167,,,,,,FBP-YG-17.png,0.45,1.2,35,0.5,,,,,,,,,,,,,,,,,,0,46,46,34,1,,,,,,,,,,,,,,,,,,,,,,,
,,,,,WIN24_060,18,Female,2024-02-13_14h33.15.116,jersey_experiment_5,2023.2.2,Win32,86.20689655,,,,,,,,,,,,,,,,923.8705,925.1644,925.1644,925.9998,return,0.174,,97.52604167,,,,,,FBP-RB-91.png,0.43,1.2,29,0.5,,,,,,,,,,,,,,,,,,0,47,47,28,1,,,,,,,,,,,,,,,,,,,,,,,
,,,,,WIN24_060,18,Female,2024-02-13_14h33.15.116,jersey_experiment_5,2023.2.2,Win32,86.20689655,,,,,,,,,,,,,,,,926,927.2938,927.2938,928.9293,return,0.212,,81.51041667,,,,,,FBP-RB-81.png,0.37,1.2,22,0.5,,,,,,,,,,,,,,,,,,0,48,48,21,1,,,,,,,,,,,,,,,,,,,,,,,
,,,,,WIN24_060,18,Female,2024-02-13_14h33.15.116,jersey_experiment_5,2023.2.2,Win32,86.20689655,,,,,,,,,,,,,,,,928.9295,930.2234,930.2235,931.5647,return,0.0619,,92.1875,,,,,,FBP-RB-91.png,0.4,1.2,28,0.5,,,,,,,,,,,,,,,,,,0,49,49,27,1,,,,,,,,,,,,,,,,,,,,,,,
,,,,,WIN24_060,18,Female,2024-02-13_14h33.15.116,jersey_experiment_5,2023.2.2,Win32,86.20689655,,,,,,,,,,,,,,,,931.565,932.8588,932.8588,933.7413,return,0.1064,,93.48958333,,,,,,FBP-RB-81.png,0.43,1.2,24,0.5,,,,,,,,,,,,,,,,,,0,50,50,23,1,,,,,,,,,,,,,,,,,,,,,,,
,,,,,WIN24_060,18,Female,2024-02-13_14h33.15.116,jersey_experiment_5,2023.2.2,Win32,86.20689655,,,,,,,,,,,,,,,,933.7415,935.0353,935.0353,936.8943,return,0.3641,,86.328125,,,,,,FBP-YG-17.png,0.37,1.2,32,0.5,,,,,,,,,,,,,,,,,,0,51,51,31,1,,,,,,,,,,,,,,,,,,,,,,,
,,,,,WIN24_060,18,Female,2024-02-13_14h33.15.116,jersey_experiment_5,2023.2.2,Win32,86.20689655,,,,,,,,,,,,,,,,936.8945,938.6945,938.6945,939.3531,return,0.0888,,94.40104167,,,,,,FBP-PT-91.png,0.43,1.2,59,1,,,,,,,,,,,,,,,,,,0,52,52,58,1,,,,,,,,,,,,,,,,,,,,,,,
,,,,,WIN24_060,18,Female,2024-02-13_14h33.15.116,jersey_experiment_5,2023.2.2,Win32,86.20689655,,,,,,,,,,,,,,,,939.3533,941.1533,941.1534,942.3298,return,0.1001,,72.13541667,,,,,,FBP-PT-91.png,0.37,1.2,57,1,,,,,,,,,,,,,,,,,,0,53,53,56,1,,,,,,,,,,,,,,,,,,,,,,,
,,,,,WIN24_060,18,Female,2024-02-13_14h33.15.116,jersey_experiment_5,2023.2.2,Win32,86.20689655,,,,,,,,,,,,,,,,942.3299,944.1299,944.1299,945.1532,return,0.0941,,72.91666667,,,,,,FBP-OG-18.png,0.4,1.2,8,1,,,,,,,,,,,,,,,,,,0,54,54,7,1,,,,,,,,,,,,,,,,,,,,,,,
,,,,,WIN24_060,18,Female,2024-02-13_14h33.15.116,jersey_experiment_5,2023.2.2,Win32,86.20689655,,,,,,,,,,,,,,,,945.1534,946.9535,946.9536,948.4124,return,0.0483,,75.78125,,,,,,FBP-OG-17.png,0.45,1.2,5,1,,,,,,,,,,,,,,,,,,0,55,55,4,1,,,,,,,,,,,,,,,,,,,,,,,
,,,,,WIN24_060,18,Female,2024-02-13_14h33.15.116,jersey_experiment_5,2023.2.2,Win32,86.20689655,,,,,,,,,,,,,,,,948.4126,949.7065,949.7065,952.7302,return,0.0762,,49.86979167,,,,,,FBP-RB-81.png,0.35,1.2,21,0.5,,,,,,,,,,,,,,,,,,0,56,56,20,1,,,,,,,,,,,,,,,,,,,,,,,
,,,,,WIN24_060,18,Female,2024-02-13_14h33.15.116,jersey_experiment_5,2023.2.2,Win32,86.20689655,,,,,,,,,,,,,,,,952.7304,954.5302,954.5302,956.2715,return,0.1788,,76.82291667,,,,,,FBP-OG-18.png,0.45,1.2,10,1,,,,,,,,,,,,,,,,,,0,57,57,9,1,,,,,,,,,,,,,,,,,,,,,,,
,,,,,WIN24_060,18,Female,2024-02-13_14h33.15.116,jersey_experiment_5,2023.2.2,Win32,86.20689655,,,,,,,,,,,,,,,,956.2717,958.0714,958.0714,958.7187,return,0.2022,,77.86458333,,,,,,FBP-OG-18.png,0.37,1.2,7,1,,,,,,,,,,,,,,,,,,0,58,58,6,1,,,,,,,,,,,,,,,,,,,,,,,
,,,,,WIN24_060,18,Female,2024-02-13_14h33.15.116,jersey_experiment_5,2023.2.2,Win32,86.20689655,,,,,,,,,,,,,,,,958.7189,960.5186,960.5187,961.6483,return,0.1041,,25.13020833,,,,,,FBP-OG-18.png,0.35,1.2,6,1,,,,,,,,,,,,,,,,,,0,59,59,5,1,,,,,,,,,,,,,,,,,,,,,,,
,,,,,WIN24_060,18,Female,2024-02-13_14h33.15.116,jersey_experiment_5,2023.2.2,Win32,86.20689655,,,,,,,,,,,,,,,,,,,,,,,,,,,,,,,,,,,,,,,,,,,,,,,,,,,,,,,,961.6486,967.8723,return,6.2126,,,,,,,,,,,,,,,,,,,
,,,,,WIN24_060,18,Female,2024-02-13_14h33.15.116,jersey_experiment_5,2023.2.2,Win32,86.20689655,,,,,,,,,,,,,,,,,,,,,,,,,,,,,,,,,,,,,,,,,,,,,,,,,,,,,,,,,,,,,967.8724,973.131,1,4.6822,return,0.5554,,,,,,,,,,,,
,,,,,WIN24_060,18,Female,2024-02-13_14h33.15.116,jersey_experiment_5,2023.2.2,Win32,86.20689655,,,,,,,,,,,,,,,,,,,,,,,,,,,,,,,,,,,,,,,,,,,,,,,,,,,,,,,,,,,,,,,,,,,,973.1312,1054.3508,"No, I don't have any idea of what this is about. I noticed that some of the same characters were displayed twice or even three times in a row to try to make me change my rating.",right,76.8388,,,,,,
,,,,,WIN24_060,18,Female,2024-02-13_14h33.15.116,jersey_experiment_5,2023.2.2,Win32,86.20689655,,,,,,,,,,,,,,,,,,,,,,,,,,,,,,,,,,,,,,,,,,,,,,,,,,,,,,,,,,,,,,,,,,,,,,,,,,1054.3508,1058.7459,return,4.3883,