requirements.started,requirements.stopped,key_resp_3.keys,key_resp_3.rt,key_resp_3.duration,Subject ID,Age,Gender,date,expName,psychopyVersion,OS,frameRate,instructions1.started,instructions1.stopped,key_resp.keys,key_resp.rt,key_resp.duration,example.started,example.stopped,enter_2.keys,enter_2.rt,enter_2.duration,instructions2.started,instructions2.stopped,enter_3.keys,enter_3.rt,enter_3.duration,image.started,image.stopped,slider_2.started,slider_2.stopped,next.keys,next.rt,next.duration,slider.response,trial_block_1.thisRepN,trial_block_1.thisTrialN,trial_block_1.thisN,trial_block_1.thisIndex,trial_block_1.ran,Path,Width,Height,Index,Duration,trial_block_2.thisRepN,trial_block_2.thisTrialN,trial_block_2.thisN,trial_block_2.thisIndex,trial_block_2.ran,rest_break.started,rest_break.stopped,end_break.started,end_break.stopped,key_resp_5.keys,key_resp_5.rt,key_resp_5.duration,trial_block_3.thisRepN,trial_block_3.thisTrialN,trial_block_3.thisN,trial_block_3.thisIndex,trial_block_3.ran,trial_block_4.thisRepN,trial_block_4.thisTrialN,trial_block_4.thisN,trial_block_4.thisIndex,trial_block_4.ran,questions_intro.started,questions_intro.stopped,enter_12.keys,enter_12.rt,enter_12.duration,question2.started,question2.stopped,question_doingbest.response,question_doingbest.rt,enter_15.keys,enter_15.rt,enter_15.duration,pattern.started,pattern.stopped,pattern_2.text,enter_17.keys,enter_17.rt,enter_17.duration,thankyou.started,thankyou.stopped,enter_14.keys,enter_14.rt,enter_14.duration
1E-04,8.3722,return,8.3595,,WIN24_031,19,F,2024-02-02_10h32.24.472,jersey_experiment_5,2023.2.2,Win32,85.47008547,,,,,,,,,,,,,,,,,,,,,,,,,,,,,,,,,,,,,,,,,,,,,,,,,,,,,,,,,,,,,,,,,,,,,,,,,,,,,,
,,,,,WIN24_031,19,F,2024-02-02_10h32.24.472,jersey_experiment_5,2023.2.2,Win32,85.47008547,8.3723,15.6194,return,7.2232,,,,,,,,,,,,,,,,,,,,,,,,,,,,,,,,,,,,,,,,,,,,,,,,,,,,,,,,,,,,,,,,,,,,,,,,,,
,,,,,WIN24_031,19,F,2024-02-02_10h32.24.472,jersey_experiment_5,2023.2.2,Win32,85.47008547,,,,,,15.6194,20.8196,return,5.16,,,,,,,,,,,,,,,,,,,,,,,,,,,,,,,,,,,,,,,,,,,,,,,,,,,,,,,,,,,,,,,,,,,,,
,,,,,WIN24_031,19,F,2024-02-02_10h32.24.472,jersey_experiment_5,2023.2.2,Win32,85.47008547,,,,,,,,,,,20.8196,54.7387,return,33.8968,,,,,,,,,,,,,,,,,,,,,,,,,,,,,,,,,,,,,,,,,,,,,,,,,,,,,,,,,,,,,,,,
,,,,,WIN24_031,19,F,2024-02-02_10h32.24.472,jersey_experiment_5,2023.2.2,Win32,85.47008547,,,,,,,,,,,,,,,,54.7462,56.5383,56.5383,67.633,return,4.062,,53.64583333,0,0,0,44,1,FBP-YG-91.png,0.45,1.2,45,1,,,,,,,,,,,,,,,,,,,,,,,,,,,,,,,,,,,,,,,,,,,,,
,,,,,WIN24_031,19,F,2024-02-02_10h32.24.472,jersey_experiment_5,2023.2.2,Win32,85.47008547,,,,,,,,,,,,,,,,67.6335,69.433,69.433,73.0684,return,0.5225,,49.86979167,0,1,1,24,1,FBP-RB-18.png,0.45,1.2,25,1,,,,,,,,,,,,,,,,,,,,,,,,,,,,,,,,,,,,,,,,,,,,,
,,,,,WIN24_031,19,F,2024-02-02_10h32.24.472,jersey_experiment_5,2023.2.2,Win32,85.47008547,,,,,,,,,,,,,,,,73.0686,74.3626,74.3626,76.3508,return,0.3464,,26.69270833,0,2,2,51,1,FBP-PT-18.png,0.37,1.2,52,0.5,,,,,,,,,,,,,,,,,,,,,,,,,,,,,,,,,,,,,,,,,,,,,
,,,,,WIN24_031,19,F,2024-02-02_10h32.24.472,jersey_experiment_5,2023.2.2,Win32,85.47008547,,,,,,,,,,,,,,,,76.3513,77.645,77.645,79.2334,return,0.2235,,70.57291667,0,3,3,53,1,FBP-PT-18.png,0.43,1.2,54,0.5,,,,,,,,,,,,,,,,,,,,,,,,,,,,,,,,,,,,,,,,,,,,,
,,,,,WIN24_031,19,F,2024-02-02_10h32.24.472,jersey_experiment_5,2023.2.2,Win32,85.47008547,,,,,,,,,,,,,,,,79.2337,81.0336,81.0336,82.7864,return,0.284,,20.44270833,0,4,4,36,1,FBP-YG-81.png,0.37,1.2,37,1,,,,,,,,,,,,,,,,,,,,,,,,,,,,,,,,,,,,,,,,,,,,,
,,,,,WIN24_031,19,F,2024-02-02_10h32.24.472,jersey_experiment_5,2023.2.2,Win32,85.47008547,,,,,,,,,,,,,,,,82.7866,84.0806,84.0806,85.7751,return,0.2993,,15.88541667,0,5,5,50,1,FBP-PT-18.png,0.35,1.2,51,0.5,,,,,,,,,,,,,,,,,,,,,,,,,,,,,,,,,,,,,,,,,,,,,
,,,,,WIN24_031,19,F,2024-02-02_10h32.24.472,jersey_experiment_5,2023.2.2,Win32,85.47008547,,,,,,,,,,,,,,,,85.7756,87.5748,87.5748,89.8461,return,0.9892,,19.79166667,0,6,6,25,1,FBP-RB-19.png,0.35,1.2,26,1,,,,,,,,,,,,,,,,,,,,,,,,,,,,,,,,,,,,,,,,,,,,,
,,,,,WIN24_031,19,F,2024-02-02_10h32.24.472,jersey_experiment_5,2023.2.2,Win32,85.47008547,,,,,,,,,,,,,,,,89.8463,91.1399,91.14,92.8927,return,0.2076,,79.55729167,0,7,7,54,1,FBP-PT-18.png,0.45,1.2,55,0.5,,,,,,,,,,,,,,,,,,,,,,,,,,,,,,,,,,,,,,,,,,,,,
,,,,,WIN24_031,19,F,2024-02-02_10h32.24.472,jersey_experiment_5,2023.2.2,Win32,85.47008547,,,,,,,,,,,,,,,,92.893,94.1868,94.1868,96.54,return,0.1706,,25.390625,0,8,8,5,1,FBP-OG-81.png,0.35,1.2,6,0.5,,,,,,,,,,,,,,,,,,,,,,,,,,,,,,,,,,,,,,,,,,,,,
,,,,,WIN24_031,19,F,2024-02-02_10h32.24.472,jersey_experiment_5,2023.2.2,Win32,85.47008547,,,,,,,,,,,,,,,,96.5402,98.3401,98.3401,99.5165,return,0.2197,,34.765625,0,9,9,26,1,FBP-RB-19.png,0.37,1.2,27,1,,,,,,,,,,,,,,,,,,,,,,,,,,,,,,,,,,,,,,,,,,,,,
,,,,,WIN24_031,19,F,2024-02-02_10h32.24.472,jersey_experiment_5,2023.2.2,Win32,85.47008547,,,,,,,,,,,,,,,,99.5168,100.8106,100.8106,103.4108,return,0.2014,,49.08854167,0,10,10,52,1,FBP-PT-18.png,0.4,1.2,53,0.5,,,,,,,,,,,,,,,,,,,,,,,,,,,,,,,,,,,,,,,,,,,,,
,,,,,WIN24_031,19,F,2024-02-02_10h32.24.472,jersey_experiment_5,2023.2.2,Win32,85.47008547,,,,,,,,,,,,,,,,103.411,104.705,104.705,106.1756,return,0.1695,,57.94270833,0,11,11,12,1,FBP-OG-91.png,0.4,1.2,13,0.5,,,,,,,,,,,,,,,,,,,,,,,,,,,,,,,,,,,,,,,,,,,,,
,,,,,WIN24_031,19,F,2024-02-02_10h32.24.472,jersey_experiment_5,2023.2.2,Win32,85.47008547,,,,,,,,,,,,,,,,106.1759,107.9756,107.9756,111.211,return,2.162,,72.265625,0,12,12,43,1,FBP-YG-91.png,0.43,1.2,44,1,,,,,,,,,,,,,,,,,,,,,,,,,,,,,,,,,,,,,,,,,,,,,
,,,,,WIN24_031,19,F,2024-02-02_10h32.24.472,jersey_experiment_5,2023.2.2,Win32,85.47008547,,,,,,,,,,,,,,,,111.2112,113.0111,113.0111,114.6939,return,0.212,,48.17708333,0,13,13,37,1,FBP-YG-81.png,0.4,1.2,38,1,,,,,,,,,,,,,,,,,,,,,,,,,,,,,,,,,,,,,,,,,,,,,
,,,,,WIN24_031,19,F,2024-02-02_10h32.24.472,jersey_experiment_5,2023.2.2,Win32,85.47008547,,,,,,,,,,,,,,,,114.6944,115.988,115.9881,118.2467,return,0.2473,,25.52083333,0,14,14,6,1,FBP-OG-81.png,0.37,1.2,7,0.5,,,,,,,,,,,,,,,,,,,,,,,,,,,,,,,,,,,,,,,,,,,,,
,,,,,WIN24_031,19,F,2024-02-02_10h32.24.472,jersey_experiment_5,2023.2.2,Win32,85.47008547,,,,,,,,,,,,,,,,118.2469,119.5408,119.5408,120.8114,return,0.315,,15.75520833,0,15,15,45,1,FBP-PT-17.png,0.35,1.2,46,0.5,,,,,,,,,,,,,,,,,,,,,,,,,,,,,,,,,,,,,,,,,,,,,
,,,,,WIN24_031,19,F,2024-02-02_10h32.24.472,jersey_experiment_5,2023.2.2,Win32,85.47008547,,,,,,,,,,,,,,,,120.8116,122.6115,122.6115,124.0706,return,0.2232,,22.00520833,0,16,16,16,1,FBP-RB-17.png,0.37,1.2,17,1,,,,,,,,,,,,,,,,,,,,,,,,,,,,,,,,,,,,,,,,,,,,,
,,,,,WIN24_031,19,F,2024-02-02_10h32.24.472,jersey_experiment_5,2023.2.2,Win32,85.47008547,,,,,,,,,,,,,,,,124.071,125.8708,125.871,127.2469,return,0.217,,95.05208333,0,17,17,29,1,FBP-RB-19.png,0.45,1.2,30,1,,,,,,,,,,,,,,,,,,,,,,,,,,,,,,,,,,,,,,,,,,,,,
,,,,,WIN24_031,19,F,2024-02-02_10h32.24.472,jersey_experiment_5,2023.2.2,Win32,85.47008547,,,,,,,,,,,,,,,,127.2472,128.541,128.5411,129.9885,return,0.2148,,24.34895833,0,18,18,0,1,FBP-OG-71.png,0.35,1.2,1,0.5,,,,,,,,,,,,,,,,,,,,,,,,,,,,,,,,,,,,,,,,,,,,,
,,,,,WIN24_031,19,F,2024-02-02_10h32.24.472,jersey_experiment_5,2023.2.2,Win32,85.47008547,,,,,,,,,,,,,,,,129.9887,131.7884,131.7884,133.012,return,0.1883,,78.90625,0,19,19,18,1,FBP-RB-17.png,0.43,1.2,19,1,,,,,,,,,,,,,,,,,,,,,,,,,,,,,,,,,,,,,,,,,,,,,
,,,,,WIN24_031,19,F,2024-02-02_10h32.24.472,jersey_experiment_5,2023.2.2,Win32,85.47008547,,,,,,,,,,,,,,,,133.0122,134.3061,134.3061,135.4709,return,0.2765,,98.828125,0,20,20,14,1,FBP-OG-91.png,0.45,1.2,15,0.5,,,,,,,,,,,,,,,,,,,,,,,,,,,,,,,,,,,,,,,,,,,,,
,,,,,WIN24_031,19,F,2024-02-02_10h32.24.472,jersey_experiment_5,2023.2.2,Win32,85.47008547,,,,,,,,,,,,,,,,135.4714,136.765,136.765,138.4357,return,0.3763,,47.78645833,0,21,21,2,1,FBP-OG-71.png,0.4,1.2,3,0.5,,,,,,,,,,,,,,,,,,,,,,,,,,,,,,,,,,,,,,,,,,,,,
,,,,,WIN24_031,19,F,2024-02-02_10h32.24.472,jersey_experiment_5,2023.2.2,Win32,85.47008547,,,,,,,,,,,,,,,,138.436,140.2357,140.2358,141.236,return,0.32,,27.734375,0,22,22,30,1,FBP-YG-71.png,0.35,1.2,31,1,,,,,,,,,,,,,,,,,,,,,,,,,,,,,,,,,,,,,,,,,,,,,
,,,,,WIN24_031,19,F,2024-02-02_10h32.24.472,jersey_experiment_5,2023.2.2,Win32,85.47008547,,,,,,,,,,,,,,,,141.2362,143.0359,143.0359,143.9417,return,0.2092,,23.30729167,0,23,23,40,1,FBP-YG-91.png,0.35,1.2,41,1,,,,,,,,,,,,,,,,,,,,,,,,,,,,,,,,,,,,,,,,,,,,,
,,,,,WIN24_031,19,F,2024-02-02_10h32.24.472,jersey_experiment_5,2023.2.2,Win32,85.47008547,,,,,,,,,,,,,,,,143.9419,145.7417,145.7417,147.2124,return,0.2878,,70.05208333,0,24,24,42,1,FBP-YG-91.png,0.4,1.2,43,1,,,,,,,,,,,,,,,,,,,,,,,,,,,,,,,,,,,,,,,,,,,,,
,,,,,WIN24_031,19,F,2024-02-02_10h32.24.472,jersey_experiment_5,2023.2.2,Win32,85.47008547,,,,,,,,,,,,,,,,147.2128,149.0127,149.0127,150.0478,return,0.1927,,86.45833333,0,25,25,34,1,FBP-YG-71.png,0.45,1.2,35,1,,,,,,,,,,,,,,,,,,,,,,,,,,,,,,,,,,,,,,,,,,,,,
,,,,,WIN24_031,19,F,2024-02-02_10h32.24.472,jersey_experiment_5,2023.2.2,Win32,85.47008547,,,,,,,,,,,,,,,,150.048,151.8478,151.8479,153.3306,return,0.1687,,72.39583333,0,26,26,23,1,FBP-RB-18.png,0.43,1.2,24,1,,,,,,,,,,,,,,,,,,,,,,,,,,,,,,,,,,,,,,,,,,,,,
,,,,,WIN24_031,19,F,2024-02-02_10h32.24.472,jersey_experiment_5,2023.2.2,Win32,85.47008547,,,,,,,,,,,,,,,,153.3309,154.6243,154.6244,155.8597,return,0.1416,,78.38541667,0,27,27,13,1,FBP-OG-91.png,0.43,1.2,14,0.5,,,,,,,,,,,,,,,,,,,,,,,,,,,,,,,,,,,,,,,,,,,,,
,,,,,WIN24_031,19,F,2024-02-02_10h32.24.472,jersey_experiment_5,2023.2.2,Win32,85.47008547,,,,,,,,,,,,,,,,155.86,157.6598,157.6599,159.1074,return,0.1191,,74.73958333,0,28,28,38,1,FBP-YG-81.png,0.43,1.2,39,1,,,,,,,,,,,,,,,,,,,,,,,,,,,,,,,,,,,,,,,,,,,,,
,,,,,WIN24_031,19,F,2024-02-02_10h32.24.472,jersey_experiment_5,2023.2.2,Win32,85.47008547,,,,,,,,,,,,,,,,159.1077,160.401,160.4011,161.4835,return,0.2063,,51.04166667,0,29,29,47,1,FBP-PT-17.png,0.4,1.2,48,0.5,,,,,,,,,,,,,,,,,,,,,,,,,,,,,,,,,,,,,,,,,,,,,
,,,,,WIN24_031,19,F,2024-02-02_10h32.24.472,jersey_experiment_5,2023.2.2,Win32,85.47008547,,,,,,,,,,,,,,,,161.4837,163.2836,163.2836,164.766,return,0.1591,,83.07291667,0,30,30,39,1,FBP-YG-81.png,0.45,1.2,40,1,,,,,,,,,,,,,,,,,,,,,,,,,,,,,,,,,,,,,,,,,,,,,
,,,,,WIN24_031,19,F,2024-02-02_10h32.24.472,jersey_experiment_5,2023.2.2,Win32,85.47008547,,,,,,,,,,,,,,,,164.7662,166.0601,166.0601,166.9662,return,0.1892,,90.75520833,0,31,31,59,1,FBP-PT-19.png,0.45,1.2,60,0.5,,,,,,,,,,,,,,,,,,,,,,,,,,,,,,,,,,,,,,,,,,,,,
,,,,,WIN24_031,19,F,2024-02-02_10h32.24.472,jersey_experiment_5,2023.2.2,Win32,85.47008547,,,,,,,,,,,,,,,,166.9667,168.2603,168.2603,170.2368,return,0.1136,,33.33333333,0,32,32,11,1,FBP-OG-91.png,0.37,1.2,12,0.5,,,,,,,,,,,,,,,,,,,,,,,,,,,,,,,,,,,,,,,,,,,,,
,,,,,WIN24_031,19,F,2024-02-02_10h32.24.472,jersey_experiment_5,2023.2.2,Win32,85.47008547,,,,,,,,,,,,,,,,170.237,171.5309,171.531,172.8957,return,0.1341,,49.86979167,0,33,33,7,1,FBP-OG-81.png,0.4,1.2,8,0.5,,,,,,,,,,,,,,,,,,,,,,,,,,,,,,,,,,,,,,,,,,,,,
,,,,,WIN24_031,19,F,2024-02-02_10h32.24.472,jersey_experiment_5,2023.2.2,Win32,85.47008547,,,,,,,,,,,,,,,,172.8959,174.1899,174.19,175.4255,return,0.0967,,28.64583333,0,34,34,56,1,FBP-PT-19.png,0.37,1.2,57,0.5,,,,,,,,,,,,,,,,,,,,,,,,,,,,,,,,,,,,,,,,,,,,,
,,,,,WIN24_031,19,F,2024-02-02_10h32.24.472,jersey_experiment_5,2023.2.2,Win32,85.47008547,,,,,,,,,,,,,,,,175.4259,177.2254,177.2254,177.9079,return,0.1203,,19.53125,0,35,35,15,1,FBP-RB-17.png,0.35,1.2,16,1,,,,,,,,,,,,,,,,,,,,,,,,,,,,,,,,,,,,,,,,,,,,,
,,,,,WIN24_031,19,F,2024-02-02_10h32.24.472,jersey_experiment_5,2023.2.2,Win32,85.47008547,,,,,,,,,,,,,,,,177.9081,179.7078,179.7078,181.4373,return,0.0894,,48.828125,0,36,36,27,1,FBP-RB-19.png,0.4,1.2,28,1,,,,,,,,,,,,,,,,,,,,,,,,,,,,,,,,,,,,,,,,,,,,,
,,,,,WIN24_031,19,F,2024-02-02_10h32.24.472,jersey_experiment_5,2023.2.2,Win32,85.47008547,,,,,,,,,,,,,,,,181.4376,182.7313,182.7313,184.1315,return,0.0947,,89.84375,0,37,37,49,1,FBP-PT-17.png,0.45,1.2,50,0.5,,,,,,,,,,,,,,,,,,,,,,,,,,,,,,,,,,,,,,,,,,,,,
,,,,,WIN24_031,19,F,2024-02-02_10h32.24.472,jersey_experiment_5,2023.2.2,Win32,85.47008547,,,,,,,,,,,,,,,,184.1317,185.9316,185.9319,187.3552,return,0.2679,,49.21875,0,38,38,32,1,FBP-YG-71.png,0.4,1.2,33,1,,,,,,,,,,,,,,,,,,,,,,,,,,,,,,,,,,,,,,,,,,,,,
,,,,,WIN24_031,19,F,2024-02-02_10h32.24.472,jersey_experiment_5,2023.2.2,Win32,85.47008547,,,,,,,,,,,,,,,,187.3554,188.6492,188.6492,193.1673,return,3.1457,,20.96354167,0,39,39,10,1,FBP-OG-91.png,0.35,1.2,11,0.5,,,,,,,,,,,,,,,,,,,,,,,,,,,,,,,,,,,,,,,,,,,,,
,,,,,WIN24_031,19,F,2024-02-02_10h32.24.472,jersey_experiment_5,2023.2.2,Win32,85.47008547,,,,,,,,,,,,,,,,193.1676,194.4614,194.4615,197.685,return,1.4348,,57.03125,0,40,40,48,1,FBP-PT-17.png,0.43,1.2,49,0.5,,,,,,,,,,,,,,,,,,,,,,,,,,,,,,,,,,,,,,,,,,,,,
,,,,,WIN24_031,19,F,2024-02-02_10h32.24.472,jersey_experiment_5,2023.2.2,Win32,85.47008547,,,,,,,,,,,,,,,,197.6851,198.979,198.979,200.2262,return,0.1669,,23.69791667,0,41,41,55,1,FBP-PT-19.png,0.35,1.2,56,0.5,,,,,,,,,,,,,,,,,,,,,,,,,,,,,,,,,,,,,,,,,,,,,
,,,,,WIN24_031,19,F,2024-02-02_10h32.24.472,jersey_experiment_5,2023.2.2,Win32,85.47008547,,,,,,,,,,,,,,,,200.2265,202.027,202.027,204.9439,return,0.1101,,26.171875,0,42,42,20,1,FBP-RB-18.png,0.35,1.2,21,1,,,,,,,,,,,,,,,,,,,,,,,,,,,,,,,,,,,,,,,,,,,,,
,,,,,WIN24_031,19,F,2024-02-02_10h32.24.472,jersey_experiment_5,2023.2.2,Win32,85.47008547,,,,,,,,,,,,,,,,204.9442,206.7441,206.7441,207.8266,return,0.249,,17.05729167,0,43,43,35,1,FBP-YG-81.png,0.35,1.2,36,1,,,,,,,,,,,,,,,,,,,,,,,,,,,,,,,,,,,,,,,,,,,,,
,,,,,WIN24_031,19,F,2024-02-02_10h32.24.472,jersey_experiment_5,2023.2.2,Win32,85.47008547,,,,,,,,,,,,,,,,207.8269,209.1209,209.121,210.4853,return,0.4235,,77.21354167,0,44,44,4,1,FBP-OG-71.png,0.45,1.2,5,0.5,,,,,,,,,,,,,,,,,,,,,,,,,,,,,,,,,,,,,,,,,,,,,
,,,,,WIN24_031,19,F,2024-02-02_10h32.24.472,jersey_experiment_5,2023.2.2,Win32,85.47008547,,,,,,,,,,,,,,,,210.4856,212.2855,212.2855,214.0858,return,1.1176,,40.88541667,0,45,45,21,1,FBP-RB-18.png,0.37,1.2,22,1,,,,,,,,,,,,,,,,,,,,,,,,,,,,,,,,,,,,,,,,,,,,,
,,,,,WIN24_031,19,F,2024-02-02_10h32.24.472,jersey_experiment_5,2023.2.2,Win32,85.47008547,,,,,,,,,,,,,,,,214.0864,215.8858,215.8859,217.0387,return,0.2292,,70.83333333,0,46,46,28,1,FBP-RB-19.png,0.43,1.2,29,1,,,,,,,,,,,,,,,,,,,,,,,,,,,,,,,,,,,,,,,,,,,,,
,,,,,WIN24_031,19,F,2024-02-02_10h32.24.472,jersey_experiment_5,2023.2.2,Win32,85.47008547,,,,,,,,,,,,,,,,217.0389,218.8387,218.8387,220.4034,return,0.2504,,71.61458333,0,47,47,33,1,FBP-YG-71.png,0.43,1.2,34,1,,,,,,,,,,,,,,,,,,,,,,,,,,,,,,,,,,,,,,,,,,,,,
,,,,,WIN24_031,19,F,2024-02-02_10h32.24.472,jersey_experiment_5,2023.2.2,Win32,85.47008547,,,,,,,,,,,,,,,,220.4038,222.2035,222.2036,223.486,return,0.195,,46.74479167,0,48,48,31,1,FBP-YG-71.png,0.37,1.2,32,1,,,,,,,,,,,,,,,,,,,,,,,,,,,,,,,,,,,,,,,,,,,,,
,,,,,WIN24_031,19,F,2024-02-02_10h32.24.472,jersey_experiment_5,2023.2.2,Win32,85.47008547,,,,,,,,,,,,,,,,223.4864,225.2861,225.2862,226.4157,return,0.2043,,25.78125,0,49,49,41,1,FBP-YG-91.png,0.37,1.2,42,1,,,,,,,,,,,,,,,,,,,,,,,,,,,,,,,,,,,,,,,,,,,,,
,,,,,WIN24_031,19,F,2024-02-02_10h32.24.472,jersey_experiment_5,2023.2.2,Win32,85.47008547,,,,,,,,,,,,,,,,226.4162,227.7095,227.7095,229.2039,return,0.1889,,61.06770833,0,50,50,3,1,FBP-OG-71.png,0.43,1.2,4,0.5,,,,,,,,,,,,,,,,,,,,,,,,,,,,,,,,,,,,,,,,,,,,,
,,,,,WIN24_031,19,F,2024-02-02_10h32.24.472,jersey_experiment_5,2023.2.2,Win32,85.47008547,,,,,,,,,,,,,,,,229.2042,230.4979,230.4979,232.6279,return,1.0596,,35.15625,0,51,51,46,1,FBP-PT-17.png,0.37,1.2,47,0.5,,,,,,,,,,,,,,,,,,,,,,,,,,,,,,,,,,,,,,,,,,,,,
,,,,,WIN24_031,19,F,2024-02-02_10h32.24.472,jersey_experiment_5,2023.2.2,Win32,85.47008547,,,,,,,,,,,,,,,,232.6284,234.4279,234.4279,235.4512,return,0.1623,,49.86979167,0,52,52,17,1,FBP-RB-17.png,0.4,1.2,18,1,,,,,,,,,,,,,,,,,,,,,,,,,,,,,,,,,,,,,,,,,,,,,
,,,,,WIN24_031,19,F,2024-02-02_10h32.24.472,jersey_experiment_5,2023.2.2,Win32,85.47008547,,,,,,,,,,,,,,,,235.4514,236.7452,236.7452,238.4041,return,0.1416,,73.828125,0,53,53,9,1,FBP-OG-81.png,0.45,1.2,10,0.5,,,,,,,,,,,,,,,,,,,,,,,,,,,,,,,,,,,,,,,,,,,,,
,,,,,WIN24_031,19,F,2024-02-02_10h32.24.472,jersey_experiment_5,2023.2.2,Win32,85.47008547,,,,,,,,,,,,,,,,238.4048,239.6983,239.6983,240.7688,return,0.13,,93.48958333,0,54,54,58,1,FBP-PT-19.png,0.43,1.2,59,0.5,,,,,,,,,,,,,,,,,,,,,,,,,,,,,,,,,,,,,,,,,,,,,
,,,,,WIN24_031,19,F,2024-02-02_10h32.24.472,jersey_experiment_5,2023.2.2,Win32,85.47008547,,,,,,,,,,,,,,,,240.7692,242.063,242.063,243.4867,return,0.2993,,30.72916667,0,55,55,1,1,FBP-OG-71.png,0.37,1.2,2,0.5,,,,,,,,,,,,,,,,,,,,,,,,,,,,,,,,,,,,,,,,,,,,,
,,,,,WIN24_031,19,F,2024-02-02_10h32.24.472,jersey_experiment_5,2023.2.2,Win32,85.47008547,,,,,,,,,,,,,,,,243.487,245.287,245.287,246.2283,return,0.2125,,80.859375,0,56,56,19,1,FBP-RB-17.png,0.45,1.2,20,1,,,,,,,,,,,,,,,,,,,,,,,,,,,,,,,,,,,,,,,,,,,,,
,,,,,WIN24_031,19,F,2024-02-02_10h32.24.472,jersey_experiment_5,2023.2.2,Win32,85.47008547,,,,,,,,,,,,,,,,246.2289,247.5221,247.5221,248.6516,return,0.1849,,49.08854167,0,57,57,57,1,FBP-PT-19.png,0.4,1.2,58,0.5,,,,,,,,,,,,,,,,,,,,,,,,,,,,,,,,,,,,,,,,,,,,,
,,,,,WIN24_031,19,F,2024-02-02_10h32.24.472,jersey_experiment_5,2023.2.2,Win32,85.47008547,,,,,,,,,,,,,,,,248.6517,250.4515,250.4516,251.228,return,0.1466,,50.13020833,0,58,58,22,1,FBP-RB-18.png,0.4,1.2,23,1,,,,,,,,,,,,,,,,,,,,,,,,,,,,,,,,,,,,,,,,,,,,,
,,,,,WIN24_031,19,F,2024-02-02_10h32.24.472,jersey_experiment_5,2023.2.2,Win32,85.47008547,,,,,,,,,,,,,,,,251.2282,252.5223,252.5223,253.6987,return,0.1545,,65.234375,0,59,59,8,1,FBP-OG-81.png,0.43,1.2,9,0.5,,,,,,,,,,,,,,,,,,,,,,,,,,,,,,,,,,,,,,,,,,,,,
,,,,,WIN24_031,19,F,2024-02-02_10h32.24.472,jersey_experiment_5,2023.2.2,Win32,85.47008547,,,,,,,,,,,,,,,,253.701,255.4988,255.4989,256.4993,return,0.1538,,25.13020833,,,,,,FBP-RB-71.png,0.35,1.2,16,1,0,0,0,15,1,,,,,,,,,,,,,,,,,,,,,,,,,,,,,,,,,,,,,,,,
,,,,,WIN24_031,19,F,2024-02-02_10h32.24.472,jersey_experiment_5,2023.2.2,Win32,85.47008547,,,,,,,,,,,,,,,,256.4997,258.2988,258.299,259.1225,return,0.1077,,13.02083333,,,,,,FBP-YG-18.png,0.35,1.2,36,1,0,1,1,35,1,,,,,,,,,,,,,,,,,,,,,,,,,,,,,,,,,,,,,,,,
,,,,,WIN24_031,19,F,2024-02-02_10h32.24.472,jersey_experiment_5,2023.2.2,Win32,85.47008547,,,,,,,,,,,,,,,,259.1228,260.9231,260.9232,262.7696,return,0.1552,,50.390625,,,,,,FBP-RB-91.png,0.4,1.2,28,1,0,2,2,27,1,,,,,,,,,,,,,,,,,,,,,,,,,,,,,,,,,,,,,,,,
,,,,,WIN24_031,19,F,2024-02-02_10h32.24.472,jersey_experiment_5,2023.2.2,Win32,85.47008547,,,,,,,,,,,,,,,,262.7701,264.0639,264.064,265.8287,return,0.8116,,82.421875,,,,,,FBP-OG-18.png,0.45,1.2,10,0.5,0,3,3,9,1,,,,,,,,,,,,,,,,,,,,,,,,,,,,,,,,,,,,,,,,
,,,,,WIN24_031,19,F,2024-02-02_10h32.24.472,jersey_experiment_5,2023.2.2,Win32,85.47008547,,,,,,,,,,,,,,,,265.8292,267.1229,267.123,268.8523,return,0.5649,,17.578125,,,,,,FBP-OG-19.png,0.37,1.2,12,0.5,0,4,4,11,1,,,,,,,,,,,,,,,,,,,,,,,,,,,,,,,,,,,,,,,,
,,,,,WIN24_031,19,F,2024-02-02_10h32.24.472,jersey_experiment_5,2023.2.2,Win32,85.47008547,,,,,,,,,,,,,,,,268.8527,270.6525,270.6525,272.2053,return,0.1714,,74.47916667,,,,,,FBP-YG-18.png,0.45,1.2,40,1,0,5,5,39,1,,,,,,,,,,,,,,,,,,,,,,,,,,,,,,,,,,,,,,,,
,,,,,WIN24_031,19,F,2024-02-02_10h32.24.472,jersey_experiment_5,2023.2.2,Win32,85.47008547,,,,,,,,,,,,,,,,272.2056,274.0056,274.0056,274.6995,return,0.1032,,81.51041667,,,,,,FBP-YG-17.png,0.43,1.2,34,1,0,6,6,33,1,,,,,,,,,,,,,,,,,,,,,,,,,,,,,,,,,,,,,,,,
,,,,,WIN24_031,19,F,2024-02-02_10h32.24.472,jersey_experiment_5,2023.2.2,Win32,85.47008547,,,,,,,,,,,,,,,,274.6998,275.9937,275.9937,277.9351,return,0.6988,,19.27083333,,,,,,FBP-OG-19.png,0.35,1.2,11,0.5,0,7,7,10,1,,,,,,,,,,,,,,,,,,,,,,,,,,,,,,,,,,,,,,,,
,,,,,WIN24_031,19,F,2024-02-02_10h32.24.472,jersey_experiment_5,2023.2.2,Win32,85.47008547,,,,,,,,,,,,,,,,277.9353,279.7352,279.7352,281.9826,return,1.3479,,17.578125,,,,,,FBP-RB-81.png,0.35,1.2,21,1,0,8,8,20,1,,,,,,,,,,,,,,,,,,,,,,,,,,,,,,,,,,,,,,,,
,,,,,WIN24_031,19,F,2024-02-02_10h32.24.472,jersey_experiment_5,2023.2.2,Win32,85.47008547,,,,,,,,,,,,,,,,281.9832,283.2765,283.2765,284.6764,return,0.1648,,83.72395833,,,,,,FBP-OG-17.png,0.45,1.2,5,0.5,0,9,9,4,1,,,,,,,,,,,,,,,,,,,,,,,,,,,,,,,,,,,,,,,,
,,,,,WIN24_031,19,F,2024-02-02_10h32.24.472,jersey_experiment_5,2023.2.2,Win32,85.47008547,,,,,,,,,,,,,,,,284.6768,285.9705,285.9705,286.7,return,0.0882,,91.14583333,,,,,,FBP-PT-71.png,0.45,1.2,50,0.5,0,10,10,49,1,,,,,,,,,,,,,,,,,,,,,,,,,,,,,,,,,,,,,,,,
,,,,,WIN24_031,19,F,2024-02-02_10h32.24.472,jersey_experiment_5,2023.2.2,Win32,85.47008547,,,,,,,,,,,,,,,,286.7004,288.5002,288.5002,289.3236,return,0.138,,91.27604167,,,,,,FBP-RB-71.png,0.43,1.2,19,1,0,11,11,18,1,,,,,,,,,,,,,,,,,,,,,,,,,,,,,,,,,,,,,,,,
,,,,,WIN24_031,19,F,2024-02-02_10h32.24.472,jersey_experiment_5,2023.2.2,Win32,85.47008547,,,,,,,,,,,,,,,,289.3239,291.1238,291.1238,293.1356,return,0.2747,,32.03125,,,,,,FBP-RB-91.png,0.37,1.2,27,1,0,12,12,26,1,,,,,,,,,,,,,,,,,,,,,,,,,,,,,,,,,,,,,,,,
,,,,,WIN24_031,19,F,2024-02-02_10h32.24.472,jersey_experiment_5,2023.2.2,Win32,85.47008547,,,,,,,,,,,,,,,,293.136,294.9361,294.9361,296.1832,return,0.1297,,49.609375,,,,,,FBP-YG-19.png,0.4,1.2,43,1,0,13,13,42,1,,,,,,,,,,,,,,,,,,,,,,,,,,,,,,,,,,,,,,,,
,,,,,WIN24_031,19,F,2024-02-02_10h32.24.472,jersey_experiment_5,2023.2.2,Win32,85.47008547,,,,,,,,,,,,,,,,296.1836,297.4769,297.4769,298.9007,return,0.1569,,18.09895833,,,,,,FBP-PT-91.png,0.35,1.2,56,0.5,0,14,14,55,1,,,,,,,,,,,,,,,,,,,,,,,,,,,,,,,,,,,,,,,,
,,,,,WIN24_031,19,F,2024-02-02_10h32.24.472,jersey_experiment_5,2023.2.2,Win32,85.47008547,,,,,,,,,,,,,,,,298.9008,300.1946,300.1947,302.9007,return,1.2357,,52.86458333,,,,,,FBP-OG-19.png,0.4,1.2,13,0.5,0,15,15,12,1,,,,,,,,,,,,,,,,,,,,,,,,,,,,,,,,,,,,,,,,
,,,,,WIN24_031,19,F,2024-02-02_10h32.24.472,jersey_experiment_5,2023.2.2,Win32,85.47008547,,,,,,,,,,,,,,,,302.9009,304.1948,304.1948,304.9949,return,0.131,,43.48958333,,,,,,FBP-PT-71.png,0.37,1.2,47,0.5,0,16,16,46,1,,,,,,,,,,,,,,,,,,,,,,,,,,,,,,,,,,,,,,,,
,,,,,WIN24_031,19,F,2024-02-02_10h32.24.472,jersey_experiment_5,2023.2.2,Win32,85.47008547,,,,,,,,,,,,,,,,304.9951,306.7949,306.795,308.6539,return,0.136,,25.26041667,,,,,,FBP-RB-91.png,0.35,1.2,26,1,0,17,17,25,1,,,,,,,,,,,,,,,,,,,,,,,,,,,,,,,,,,,,,,,,
,,,,,WIN24_031,19,F,2024-02-02_10h32.24.472,jersey_experiment_5,2023.2.2,Win32,85.47008547,,,,,,,,,,,,,,,,308.6542,309.9481,309.9481,311.4069,return,0.2758,,60.15625,,,,,,FBP-OG-19.png,0.43,1.2,14,0.5,0,18,18,13,1,,,,,,,,,,,,,,,,,,,,,,,,,,,,,,,,,,,,,,,,
,,,,,WIN24_031,19,F,2024-02-02_10h32.24.472,jersey_experiment_5,2023.2.2,Win32,85.47008547,,,,,,,,,,,,,,,,311.4074,312.7009,312.7009,314.7951,return,0.962,,19.01041667,,,,,,FBP-PT-81.png,0.35,1.2,51,0.5,0,19,19,50,1,,,,,,,,,,,,,,,,,,,,,,,,,,,,,,,,,,,,,,,,
,,,,,WIN24_031,19,F,2024-02-02_10h32.24.472,jersey_experiment_5,2023.2.2,Win32,85.47008547,,,,,,,,,,,,,,,,314.7953,316.5953,316.5953,318.7719,return,0.2828,,70.703125,,,,,,FBP-YG-18.png,0.4,1.2,38,1,0,20,20,37,1,,,,,,,,,,,,,,,,,,,,,,,,,,,,,,,,,,,,,,,,
,,,,,WIN24_031,19,F,2024-02-02_10h32.24.472,jersey_experiment_5,2023.2.2,Win32,85.47008547,,,,,,,,,,,,,,,,318.7727,320.5719,320.5719,321.3014,return,0.2016,,83.59375,,,,,,FBP-RB-81.png,0.43,1.2,24,1,0,21,21,23,1,,,,,,,,,,,,,,,,,,,,,,,,,,,,,,,,,,,,,,,,
,,,,,WIN24_031,19,F,2024-02-02_10h32.24.472,jersey_experiment_5,2023.2.2,Win32,85.47008547,,,,,,,,,,,,,,,,321.3018,322.5954,322.5955,324.4662,return,1.2023,,87.36979167,,,,,,FBP-PT-81.png,0.43,1.2,54,0.5,0,22,22,53,1,,,,,,,,,,,,,,,,,,,,,,,,,,,,,,,,,,,,,,,,
,,,,,WIN24_031,19,F,2024-02-02_10h32.24.472,jersey_experiment_5,2023.2.2,Win32,85.47008547,,,,,,,,,,,,,,,,324.4667,326.2664,326.2664,327.1721,return,0.1272,,92.96875,,,,,,FBP-RB-91.png,0.45,1.2,30,1,0,23,23,29,1,,,,,,,,,,,,,,,,,,,,,,,,,,,,,,,,,,,,,,,,
,,,,,WIN24_031,19,F,2024-02-02_10h32.24.472,jersey_experiment_5,2023.2.2,Win32,85.47008547,,,,,,,,,,,,,,,,327.1723,328.4663,328.4663,329.7957,return,0.2097,,86.06770833,,,,,,FBP-PT-81.png,0.4,1.2,53,0.5,0,24,24,52,1,,,,,,,,,,,,,,,,,,,,,,,,,,,,,,,,,,,,,,,,
,,,,,WIN24_031,19,F,2024-02-02_10h32.24.472,jersey_experiment_5,2023.2.2,Win32,85.47008547,,,,,,,,,,,,,,,,329.7959,331.09,331.0901,332.0783,return,0.1353,,90.75520833,,,,,,FBP-PT-81.png,0.45,1.2,55,0.5,0,25,25,54,1,,,,,,,,,,,,,,,,,,,,,,,,,,,,,,,,,,,,,,,,
,,,,,WIN24_031,19,F,2024-02-02_10h32.24.472,jersey_experiment_5,2023.2.2,Win32,85.47008547,,,,,,,,,,,,,,,,332.0787,333.3724,333.3724,336.3489,return,0.7725,,82.55208333,,,,,,FBP-PT-91.png,0.43,1.2,59,0.5,0,26,26,58,1,,,,,,,,,,,,,,,,,,,,,,,,,,,,,,,,,,,,,,,,
,,,,,WIN24_031,19,F,2024-02-02_10h32.24.472,jersey_experiment_5,2023.2.2,Win32,85.47008547,,,,,,,,,,,,,,,,336.3492,337.6431,337.6431,339.102,return,0.7943,,62.23958333,,,,,,FBP-PT-91.png,0.4,1.2,58,0.5,0,27,27,57,1,,,,,,,,,,,,,,,,,,,,,,,,,,,,,,,,,,,,,,,,
,,,,,WIN24_031,19,F,2024-02-02_10h32.24.472,jersey_experiment_5,2023.2.2,Win32,85.47008547,,,,,,,,,,,,,,,,339.1022,340.3964,340.3966,341.408,return,0.0986,,50.52083333,,,,,,FBP-PT-91.png,0.37,1.2,57,0.5,0,28,28,56,1,,,,,,,,,,,,,,,,,,,,,,,,,,,,,,,,,,,,,,,,
,,,,,WIN24_031,19,F,2024-02-02_10h32.24.472,jersey_experiment_5,2023.2.2,Win32,85.47008547,,,,,,,,,,,,,,,,341.4084,343.2084,343.2085,344.5493,return,0.4939,,30.46875,,,,,,FBP-YG-17.png,0.35,1.2,31,1,0,29,29,30,1,,,,,,,,,,,,,,,,,,,,,,,,,,,,,,,,,,,,,,,,
,,,,,WIN24_031,19,F,2024-02-02_10h32.24.472,jersey_experiment_5,2023.2.2,Win32,85.47008547,,,,,,,,,,,,,,,,344.5496,346.3495,346.3495,347.1023,return,0.1095,,81.51041667,,,,,,FBP-YG-17.png,0.45,1.2,35,1,0,30,30,34,1,,,,,,,,,,,,,,,,,,,,,,,,,,,,,,,,,,,,,,,,
,,,,,WIN24_031,19,F,2024-02-02_10h32.24.472,jersey_experiment_5,2023.2.2,Win32,85.47008547,,,,,,,,,,,,,,,,347.1026,348.3965,348.3965,349.1847,return,0.1657,,81.51041667,,,,,,FBP-OG-17.png,0.43,1.2,4,0.5,0,31,31,3,1,,,,,,,,,,,,,,,,,,,,,,,,,,,,,,,,,,,,,,,,
,,,,,WIN24_031,19,F,2024-02-02_10h32.24.472,jersey_experiment_5,2023.2.2,Win32,85.47008547,,,,,,,,,,,,,,,,349.185,350.4789,350.479,352.1495,return,0.0587,,24.08854167,,,,,,FBP-OG-17.png,0.37,1.2,2,0.5,0,32,32,1,1,,,,,,,,,,,,,,,,,,,,,,,,,,,,,,,,,,,,,,,,
,,,,,WIN24_031,19,F,2024-02-02_10h32.24.472,jersey_experiment_5,2023.2.2,Win32,85.47008547,,,,,,,,,,,,,,,,352.1498,353.4438,353.4438,355.8439,return,0.1298,,70.44270833,,,,,,FBP-OG-17.png,0.4,1.2,3,0.5,0,33,33,2,1,,,,,,,,,,,,,,,,,,,,,,,,,,,,,,,,,,,,,,,,
,,,,,WIN24_031,19,F,2024-02-02_10h32.24.472,jersey_experiment_5,2023.2.2,Win32,85.47008547,,,,,,,,,,,,,,,,355.8442,357.138,357.138,359.0205,return,0.8196,,98.4375,,,,,,FBP-PT-91.png,0.45,1.2,60,0.5,0,34,34,59,1,,,,,,,,,,,,,,,,,,,,,,,,,,,,,,,,,,,,,,,,
,,,,,WIN24_031,19,F,2024-02-02_10h32.24.472,jersey_experiment_5,2023.2.2,Win32,85.47008547,,,,,,,,,,,,,,,,359.0208,360.3146,360.3147,362.8915,return,0.621,,35.02604167,,,,,,FBP-PT-81.png,0.37,1.2,52,0.5,0,35,35,51,1,,,,,,,,,,,,,,,,,,,,,,,,,,,,,,,,,,,,,,,,
,,,,,WIN24_031,19,F,2024-02-02_10h32.24.472,jersey_experiment_5,2023.2.2,Win32,85.47008547,,,,,,,,,,,,,,,,362.8917,364.6914,364.6914,365.7502,return,0.1654,,34.24479167,,,,,,FBP-YG-19.png,0.37,1.2,42,1,0,36,36,41,1,,,,,,,,,,,,,,,,,,,,,,,,,,,,,,,,,,,,,,,,
,,,,,WIN24_031,19,F,2024-02-02_10h32.24.472,jersey_experiment_5,2023.2.2,Win32,85.47008547,,,,,,,,,,,,,,,,365.7504,367.5502,367.5502,369.2209,return,0.968,,60.02604167,,,,,,FBP-YG-17.png,0.4,1.2,33,1,0,37,37,32,1,,,,,,,,,,,,,,,,,,,,,,,,,,,,,,,,,,,,,,,,
,,,,,WIN24_031,19,F,2024-02-02_10h32.24.472,jersey_experiment_5,2023.2.2,Win32,85.47008547,,,,,,,,,,,,,,,,369.2211,371.021,371.021,371.9386,return,0.3076,,86.58854167,,,,,,FBP-RB-81.png,0.45,1.2,25,1,0,38,38,24,1,,,,,,,,,,,,,,,,,,,,,,,,,,,,,,,,,,,,,,,,
,,,,,WIN24_031,19,F,2024-02-02_10h32.24.472,jersey_experiment_5,2023.2.2,Win32,85.47008547,,,,,,,,,,,,,,,,371.939,373.2327,373.2328,374.4682,return,0.1061,,17.05729167,,,,,,FBP-OG-18.png,0.35,1.2,6,0.5,0,39,39,5,1,,,,,,,,,,,,,,,,,,,,,,,,,,,,,,,,,,,,,,,,
,,,,,WIN24_031,19,F,2024-02-02_10h32.24.472,jersey_experiment_5,2023.2.2,Win32,85.47008547,,,,,,,,,,,,,,,,374.4684,376.2683,376.2683,377.2447,return,0.1489,,58.59375,,,,,,FBP-YG-19.png,0.43,1.2,44,1,0,40,40,43,1,,,,,,,,,,,,,,,,,,,,,,,,,,,,,,,,,,,,,,,,
,,,,,WIN24_031,19,F,2024-02-02_10h32.24.472,jersey_experiment_5,2023.2.2,Win32,85.47008547,,,,,,,,,,,,,,,,377.245,379.0446,379.0447,380.0918,return,0.1733,,74.73958333,,,,,,FBP-YG-19.png,0.45,1.2,45,1,0,41,41,44,1,,,,,,,,,,,,,,,,,,,,,,,,,,,,,,,,,,,,,,,,
,,,,,WIN24_031,19,F,2024-02-02_10h32.24.472,jersey_experiment_5,2023.2.2,Win32,85.47008547,,,,,,,,,,,,,,,,380.0921,381.3862,381.3862,382.4683,return,0.1293,,76.69270833,,,,,,FBP-OG-18.png,0.43,1.2,9,0.5,0,42,42,8,1,,,,,,,,,,,,,,,,,,,,,,,,,,,,,,,,,,,,,,,,
,,,,,WIN24_031,19,F,2024-02-02_10h32.24.472,jersey_experiment_5,2023.2.2,Win32,85.47008547,,,,,,,,,,,,,,,,382.4686,383.7625,383.7626,384.998,return,0.0564,,24.73958333,,,,,,FBP-OG-17.png,0.35,1.2,1,0.5,0,43,43,0,1,,,,,,,,,,,,,,,,,,,,,,,,,,,,,,,,,,,,,,,,
,,,,,WIN24_031,19,F,2024-02-02_10h32.24.472,jersey_experiment_5,2023.2.2,Win32,85.47008547,,,,,,,,,,,,,,,,384.9982,386.2923,386.2923,387.2333,return,0.1565,,48.30729167,,,,,,FBP-PT-71.png,0.4,1.2,48,0.5,0,44,44,47,1,,,,,,,,,,,,,,,,,,,,,,,,,,,,,,,,,,,,,,,,
,,,,,WIN24_031,19,F,2024-02-02_10h32.24.472,jersey_experiment_5,2023.2.2,Win32,85.47008547,,,,,,,,,,,,,,,,387.2336,388.5273,388.5273,389.8569,return,0.0623,,53.77604167,,,,,,FBP-OG-18.png,0.4,1.2,8,0.5,0,45,45,7,1,,,,,,,,,,,,,,,,,,,,,,,,,,,,,,,,,,,,,,,,
,,,,,WIN24_031,19,F,2024-02-02_10h32.24.472,jersey_experiment_5,2023.2.2,Win32,85.47008547,,,,,,,,,,,,,,,,389.8573,391.6572,391.6572,393.0571,return,0.1919,,28.25520833,,,,,,FBP-YG-17.png,0.37,1.2,32,1,0,46,46,31,1,,,,,,,,,,,,,,,,,,,,,,,,,,,,,,,,,,,,,,,,
,,,,,WIN24_031,19,F,2024-02-02_10h32.24.472,jersey_experiment_5,2023.2.2,Win32,85.47008547,,,,,,,,,,,,,,,,393.0574,394.8571,394.8572,395.6452,return,0.1481,,74.08854167,,,,,,FBP-RB-71.png,0.45,1.2,20,1,0,47,47,19,1,,,,,,,,,,,,,,,,,,,,,,,,,,,,,,,,,,,,,,,,
,,,,,WIN24_031,19,F,2024-02-02_10h32.24.472,jersey_experiment_5,2023.2.2,Win32,85.47008547,,,,,,,,,,,,,,,,395.6456,397.4455,397.4455,398.222,return,0.2866,,74.34895833,,,,,,FBP-YG-18.png,0.43,1.2,39,1,0,48,48,38,1,,,,,,,,,,,,,,,,,,,,,,,,,,,,,,,,,,,,,,,,
,,,,,WIN24_031,19,F,2024-02-02_10h32.24.472,jersey_experiment_5,2023.2.2,Win32,85.47008547,,,,,,,,,,,,,,,,398.2222,400.0219,400.022,401.6338,return,0.5408,,66.53645833,,,,,,FBP-RB-81.png,0.4,1.2,23,1,0,49,49,22,1,,,,,,,,,,,,,,,,,,,,,,,,,,,,,,,,,,,,,,,,
,,,,,WIN24_031,19,F,2024-02-02_10h32.24.472,jersey_experiment_5,2023.2.2,Win32,85.47008547,,,,,,,,,,,,,,,,401.6341,403.4338,403.4338,404.1162,return,0.1412,,58.07291667,,,,,,FBP-RB-71.png,0.37,1.2,17,1,0,50,50,16,1,,,,,,,,,,,,,,,,,,,,,,,,,,,,,,,,,,,,,,,,
,,,,,WIN24_031,19,F,2024-02-02_10h32.24.472,jersey_experiment_5,2023.2.2,Win32,85.47008547,,,,,,,,,,,,,,,,404.1164,405.9167,405.9168,406.7164,return,0.1138,,28.77604167,,,,,,FBP-YG-19.png,0.35,1.2,41,1,0,51,51,40,1,,,,,,,,,,,,,,,,,,,,,,,,,,,,,,,,,,,,,,,,
,,,,,WIN24_031,19,F,2024-02-02_10h32.24.472,jersey_experiment_5,2023.2.2,Win32,85.47008547,,,,,,,,,,,,,,,,406.7166,408.0106,408.0106,409.0693,return,0.1012,,78.77604167,,,,,,FBP-OG-19.png,0.45,1.2,15,0.5,0,52,52,14,1,,,,,,,,,,,,,,,,,,,,,,,,,,,,,,,,,,,,,,,,
,,,,,WIN24_031,19,F,2024-02-02_10h32.24.472,jersey_experiment_5,2023.2.2,Win32,85.47008547,,,,,,,,,,,,,,,,409.0696,410.3635,410.3636,412.7519,return,1.2283,,22.00520833,,,,,,FBP-PT-71.png,0.35,1.2,46,0.5,0,53,53,45,1,,,,,,,,,,,,,,,,,,,,,,,,,,,,,,,,,,,,,,,,
,,,,,WIN24_031,19,F,2024-02-02_10h32.24.472,jersey_experiment_5,2023.2.2,Win32,85.47008547,,,,,,,,,,,,,,,,412.7522,414.552,414.552,416.4931,return,1.0663,,69.27083333,,,,,,FBP-RB-91.png,0.43,1.2,29,1,0,54,54,28,1,,,,,,,,,,,,,,,,,,,,,,,,,,,,,,,,,,,,,,,,
,,,,,WIN24_031,19,F,2024-02-02_10h32.24.472,jersey_experiment_5,2023.2.2,Win32,85.47008547,,,,,,,,,,,,,,,,416.4934,418.2933,418.2933,419.7874,return,0.1737,,60.546875,,,,,,FBP-RB-71.png,0.4,1.2,18,1,0,55,55,17,1,,,,,,,,,,,,,,,,,,,,,,,,,,,,,,,,,,,,,,,,
,,,,,WIN24_031,19,F,2024-02-02_10h32.24.472,jersey_experiment_5,2023.2.2,Win32,85.47008547,,,,,,,,,,,,,,,,419.7875,421.0816,421.0816,422.3052,return,0.2029,,72.78645833,,,,,,FBP-PT-71.png,0.43,1.2,49,0.5,0,56,56,48,1,,,,,,,,,,,,,,,,,,,,,,,,,,,,,,,,,,,,,,,,
,,,,,WIN24_031,19,F,2024-02-02_10h32.24.472,jersey_experiment_5,2023.2.2,Win32,85.47008547,,,,,,,,,,,,,,,,422.3054,424.1055,424.1055,425.2936,return,0.2191,,38.28125,,,,,,FBP-RB-81.png,0.37,1.2,22,1,0,57,57,21,1,,,,,,,,,,,,,,,,,,,,,,,,,,,,,,,,,,,,,,,,
,,,,,WIN24_031,19,F,2024-02-02_10h32.24.472,jersey_experiment_5,2023.2.2,Win32,85.47008547,,,,,,,,,,,,,,,,425.2939,427.0935,427.0936,428.4118,return,0.3393,,24.609375,,,,,,FBP-YG-18.png,0.37,1.2,37,1,0,58,58,36,1,,,,,,,,,,,,,,,,,,,,,,,,,,,,,,,,,,,,,,,,
,,,,,WIN24_031,19,F,2024-02-02_10h32.24.472,jersey_experiment_5,2023.2.2,Win32,85.47008547,,,,,,,,,,,,,,,,428.4124,429.7054,429.7055,430.6585,return,0.1993,,23.17708333,,,,,,FBP-OG-18.png,0.37,1.2,7,0.5,0,59,59,6,1,,,,,,,,,,,,,,,,,,,,,,,,,,,,,,,,,,,,,,,,
,,,,,WIN24_031,19,F,2024-02-02_10h32.24.472,jersey_experiment_5,2023.2.2,Win32,85.47008547,,,,,,,,,,,,,,,,,,,,,,,,,,,,,,,,,,,,,,,430.6589,550.6644,,,,,,,,,,,,,,,,,,,,,,,,,,,,,,,,,,,,,,
,,,,,WIN24_031,19,F,2024-02-02_10h32.24.472,jersey_experiment_5,2023.2.2,Win32,85.47008547,,,,,,,,,,,,,,,,,,,,,,,,,,,,,,,,,,,,,,,,,550.6647,552.7692,return,2.0918,,,,,,,,,,,,,,,,,,,,,,,,,,,,,,,,,,
,,,,,WIN24_031,19,F,2024-02-02_10h32.24.472,jersey_experiment_5,2023.2.2,Win32,85.47008547,,,,,,,,,,,,,,,,552.7811,554.5807,554.5807,558.4633,return,2.0407,,50.52083333,,,,,,FBP-PT-19.png,0.4,1.2,58,1,,,,,,,,,,,,,0,0,0,57,1,,,,,,,,,,,,,,,,,,,,,,,,,,,,
,,,,,WIN24_031,19,F,2024-02-02_10h32.24.472,jersey_experiment_5,2023.2.2,Win32,85.47008547,,,,,,,,,,,,,,,,558.4636,559.7575,559.7575,561.2987,return,0.5313,,26.30208333,,,,,,FBP-YG-91.png,0.35,1.2,41,0.5,,,,,,,,,,,,,0,1,1,40,1,,,,,,,,,,,,,,,,,,,,,,,,,,,,
,,,,,WIN24_031,19,F,2024-02-02_10h32.24.472,jersey_experiment_5,2023.2.2,Win32,85.47008547,,,,,,,,,,,,,,,,561.2994,563.0989,563.099,563.9107,return,0.2125,,53.515625,,,,,,FBP-PT-17.png,0.4,1.2,48,1,,,,,,,,,,,,,0,2,2,47,1,,,,,,,,,,,,,,,,,,,,,,,,,,,,
,,,,,WIN24_031,19,F,2024-02-02_10h32.24.472,jersey_experiment_5,2023.2.2,Win32,85.47008547,,,,,,,,,,,,,,,,563.9109,565.2047,565.2048,566.3106,return,0.118,,69.40104167,,,,,,FBP-YG-91.png,0.43,1.2,44,0.5,,,,,,,,,,,,,0,3,3,43,1,,,,,,,,,,,,,,,,,,,,,,,,,,,,
,,,,,WIN24_031,19,F,2024-02-02_10h32.24.472,jersey_experiment_5,2023.2.2,Win32,85.47008547,,,,,,,,,,,,,,,,566.3109,567.6048,567.6048,569.1344,return,0.6653,,75.91145833,,,,,,FBP-YG-71.png,0.45,1.2,35,0.5,,,,,,,,,,,,,0,4,4,34,1,,,,,,,,,,,,,,,,,,,,,,,,,,,,
,,,,,WIN24_031,19,F,2024-02-02_10h32.24.472,jersey_experiment_5,2023.2.2,Win32,85.47008547,,,,,,,,,,,,,,,,569.135,570.9345,570.9345,572.1817,return,0.1328,,23.046875,,,,,,FBP-PT-17.png,0.35,1.2,46,1,,,,,,,,,,,,,0,5,5,45,1,,,,,,,,,,,,,,,,,,,,,,,,,,,,
,,,,,WIN24_031,19,F,2024-02-02_10h32.24.472,jersey_experiment_5,2023.2.2,Win32,85.47008547,,,,,,,,,,,,,,,,572.1819,573.4756,573.4756,575.3464,return,0.1907,,16.40625,,,,,,FBP-YG-81.png,0.37,1.2,37,0.5,,,,,,,,,,,,,0,6,6,36,1,,,,,,,,,,,,,,,,,,,,,,,,,,,,
,,,,,WIN24_031,19,F,2024-02-02_10h32.24.472,jersey_experiment_5,2023.2.2,Win32,85.47008547,,,,,,,,,,,,,,,,575.3467,576.6406,576.6406,578.0644,return,0.1689,,41.14583333,,,,,,FBP-RB-19.png,0.4,1.2,28,0.5,,,,,,,,,,,,,0,7,7,27,1,,,,,,,,,,,,,,,,,,,,,,,,,,,,
,,,,,WIN24_031,19,F,2024-02-02_10h32.24.472,jersey_experiment_5,2023.2.2,Win32,85.47008547,,,,,,,,,,,,,,,,578.0646,579.8644,579.8645,580.6407,return,0.2742,,63.80208333,,,,,,FBP-PT-18.png,0.43,1.2,54,1,,,,,,,,,,,,,0,8,8,53,1,,,,,,,,,,,,,,,,,,,,,,,,,,,,
,,,,,WIN24_031,19,F,2024-02-02_10h32.24.472,jersey_experiment_5,2023.2.2,Win32,85.47008547,,,,,,,,,,,,,,,,580.6412,581.9348,581.9348,583.5818,return,0.1245,,33.07291667,,,,,,FBP-RB-18.png,0.37,1.2,22,0.5,,,,,,,,,,,,,0,9,9,21,1,,,,,,,,,,,,,,,,,,,,,,,,,,,,
,,,,,WIN24_031,19,F,2024-02-02_10h32.24.472,jersey_experiment_5,2023.2.2,Win32,85.47008547,,,,,,,,,,,,,,,,583.5821,584.876,584.8761,586.0174,return,0.1799,,27.734375,,,,,,FBP-YG-91.png,0.4,1.2,43,0.5,,,,,,,,,,,,,0,10,10,42,1,,,,,,,,,,,,,,,,,,,,,,,,,,,,
,,,,,WIN24_031,19,F,2024-02-02_10h32.24.472,jersey_experiment_5,2023.2.2,Win32,85.47008547,,,,,,,,,,,,,,,,586.0178,587.3113,587.3113,588.5585,return,0.0883,,67.05729167,,,,,,FBP-RB-17.png,0.43,1.2,19,0.5,,,,,,,,,,,,,0,11,11,18,1,,,,,,,,,,,,,,,,,,,,,,,,,,,,
,,,,,WIN24_031,19,F,2024-02-02_10h32.24.472,jersey_experiment_5,2023.2.2,Win32,85.47008547,,,,,,,,,,,,,,,,588.5588,589.8529,589.8529,590.6409,return,0.0741,,49.86979167,,,,,,FBP-YG-81.png,0.4,1.2,38,0.5,,,,,,,,,,,,,0,12,12,37,1,,,,,,,,,,,,,,,,,,,,,,,,,,,,
,,,,,WIN24_031,19,F,2024-02-02_10h32.24.472,jersey_experiment_5,2023.2.2,Win32,85.47008547,,,,,,,,,,,,,,,,590.6411,591.9352,591.9353,592.8174,return,0.0501,,65.36458333,,,,,,FBP-RB-19.png,0.43,1.2,29,0.5,,,,,,,,,,,,,0,13,13,28,1,,,,,,,,,,,,,,,,,,,,,,,,,,,,
,,,,,WIN24_031,19,F,2024-02-02_10h32.24.472,jersey_experiment_5,2023.2.2,Win32,85.47008547,,,,,,,,,,,,,,,,592.8177,594.1117,594.1117,595.2175,return,0.0712,,25.65104167,,,,,,FBP-RB-19.png,0.35,1.2,26,0.5,,,,,,,,,,,,,0,14,14,25,1,,,,,,,,,,,,,,,,,,,,,,,,,,,,
,,,,,WIN24_031,19,F,2024-02-02_10h32.24.472,jersey_experiment_5,2023.2.2,Win32,85.47008547,,,,,,,,,,,,,,,,595.2178,597.0178,597.0178,597.7123,return,0.1457,,16.92708333,,,,,,FBP-OG-81.png,0.35,1.2,6,1,,,,,,,,,,,,,0,15,15,5,1,,,,,,,,,,,,,,,,,,,,,,,,,,,,
,,,,,WIN24_031,19,F,2024-02-02_10h32.24.472,jersey_experiment_5,2023.2.2,Win32,85.47008547,,,,,,,,,,,,,,,,597.7126,599.5118,599.5118,600.8178,return,0.0851,,36.328125,,,,,,FBP-OG-71.png,0.37,1.2,2,1,,,,,,,,,,,,,0,16,16,1,1,,,,,,,,,,,,,,,,,,,,,,,,,,,,
,,,,,WIN24_031,19,F,2024-02-02_10h32.24.472,jersey_experiment_5,2023.2.2,Win32,85.47008547,,,,,,,,,,,,,,,,600.8181,602.618,602.6181,603.6531,return,0.0802,,66.53645833,,,,,,FBP-OG-81.png,0.43,1.2,9,1,,,,,,,,,,,,,0,17,17,8,1,,,,,,,,,,,,,,,,,,,,,,,,,,,,
,,,,,WIN24_031,19,F,2024-02-02_10h32.24.472,jersey_experiment_5,2023.2.2,Win32,85.47008547,,,,,,,,,,,,,,,,603.6536,605.4534,605.4534,606.4769,return,0.3021,,75.13020833,,,,,,FBP-OG-71.png,0.43,1.2,4,1,,,,,,,,,,,,,0,18,18,3,1,,,,,,,,,,,,,,,,,,,,,,,,,,,,
,,,,,WIN24_031,19,F,2024-02-02_10h32.24.472,jersey_experiment_5,2023.2.2,Win32,85.47008547,,,,,,,,,,,,,,,,606.4772,607.771,607.771,608.5475,return,0.0803,,83.07291667,,,,,,FBP-YG-91.png,0.45,1.2,45,0.5,,,,,,,,,,,,,0,19,19,44,1,,,,,,,,,,,,,,,,,,,,,,,,,,,,
,,,,,WIN24_031,19,F,2024-02-02_10h32.24.472,jersey_experiment_5,2023.2.2,Win32,85.47008547,,,,,,,,,,,,,,,,608.5477,609.8417,609.8417,611.6656,return,0.1562,,23.4375,,,,,,FBP-YG-91.png,0.37,1.2,42,0.5,,,,,,,,,,,,,0,20,20,41,1,,,,,,,,,,,,,,,,,,,,,,,,,,,,
,,,,,WIN24_031,19,F,2024-02-02_10h32.24.472,jersey_experiment_5,2023.2.2,Win32,85.47008547,,,,,,,,,,,,,,,,611.6658,613.4653,613.4653,614.1127,return,0.1569,,17.70833333,,,,,,FBP-PT-19.png,0.37,1.2,57,1,,,,,,,,,,,,,0,21,21,56,1,,,,,,,,,,,,,,,,,,,,,,,,,,,,
,,,,,WIN24_031,19,F,2024-02-02_10h32.24.472,jersey_experiment_5,2023.2.2,Win32,85.47008547,,,,,,,,,,,,,,,,614.113,615.9127,615.9127,617.1714,return,0.0832,,21.74479167,,,,,,FBP-OG-91.png,0.35,1.2,11,1,,,,,,,,,,,,,0,22,22,10,1,,,,,,,,,,,,,,,,,,,,,,,,,,,,
,,,,,WIN24_031,19,F,2024-02-02_10h32.24.472,jersey_experiment_5,2023.2.2,Win32,85.47008547,,,,,,,,,,,,,,,,617.1718,618.9715,618.9715,619.6539,return,0.0708,,63.54166667,,,,,,FBP-OG-91.png,0.43,1.2,14,1,,,,,,,,,,,,,0,23,23,13,1,,,,,,,,,,,,,,,,,,,,,,,,,,,,
,,,,,WIN24_031,19,F,2024-02-02_10h32.24.472,jersey_experiment_5,2023.2.2,Win32,85.47008547,,,,,,,,,,,,,,,,619.6543,621.4541,621.4542,622.9954,return,0.0713,,34.89583333,,,,,,FBP-PT-17.png,0.37,1.2,47,1,,,,,,,,,,,,,0,24,24,46,1,,,,,,,,,,,,,,,,,,,,,,,,,,,,
,,,,,WIN24_031,19,F,2024-02-02_10h32.24.472,jersey_experiment_5,2023.2.2,Win32,85.47008547,,,,,,,,,,,,,,,,622.9959,624.7953,624.7953,625.701,return,0.0944,,36.84895833,,,,,,FBP-OG-81.png,0.37,1.2,7,1,,,,,,,,,,,,,0,25,25,6,1,,,,,,,,,,,,,,,,,,,,,,,,,,,,
,,,,,WIN24_031,19,F,2024-02-02_10h32.24.472,jersey_experiment_5,2023.2.2,Win32,85.47008547,,,,,,,,,,,,,,,,625.7013,626.9952,626.9953,628.0777,return,0.0776,,61.84895833,,,,,,FBP-RB-18.png,0.43,1.2,24,0.5,,,,,,,,,,,,,0,26,26,23,1,,,,,,,,,,,,,,,,,,,,,,,,,,,,
,,,,,WIN24_031,19,F,2024-02-02_10h32.24.472,jersey_experiment_5,2023.2.2,Win32,85.47008547,,,,,,,,,,,,,,,,628.0779,629.3718,629.3719,630.5488,return,0.1057,,28.125,,,,,,FBP-RB-18.png,0.35,1.2,21,0.5,,,,,,,,,,,,,0,27,27,20,1,,,,,,,,,,,,,,,,,,,,,,,,,,,,
,,,,,WIN24_031,19,F,2024-02-02_10h32.24.472,jersey_experiment_5,2023.2.2,Win32,85.47008547,,,,,,,,,,,,,,,,630.5491,631.8425,631.8426,633.8073,return,0.0993,,64.0625,,,,,,FBP-RB-17.png,0.4,1.2,18,0.5,,,,,,,,,,,,,0,28,28,17,1,,,,,,,,,,,,,,,,,,,,,,,,,,,,
,,,,,WIN24_031,19,F,2024-02-02_10h32.24.472,jersey_experiment_5,2023.2.2,Win32,85.47008547,,,,,,,,,,,,,,,,633.8077,635.6075,635.6075,636.6075,return,0.0489,,48.69791667,,,,,,FBP-OG-71.png,0.4,1.2,3,1,,,,,,,,,,,,,0,29,29,2,1,,,,,,,,,,,,,,,,,,,,,,,,,,,,
,,,,,WIN24_031,19,F,2024-02-02_10h32.24.472,jersey_experiment_5,2023.2.2,Win32,85.47008547,,,,,,,,,,,,,,,,636.6077,637.9017,637.9017,639.3253,return,0.0901,,81.25,,,,,,FBP-RB-17.png,0.45,1.2,20,0.5,,,,,,,,,,,,,0,30,30,19,1,,,,,,,,,,,,,,,,,,,,,,,,,,,,
,,,,,WIN24_031,19,F,2024-02-02_10h32.24.472,jersey_experiment_5,2023.2.2,Win32,85.47008547,,,,,,,,,,,,,,,,639.326,640.6193,640.6193,641.8548,return,0.0766,,72.00520833,,,,,,FBP-RB-18.png,0.4,1.2,23,0.5,,,,,,,,,,,,,0,31,31,22,1,,,,,,,,,,,,,,,,,,,,,,,,,,,,
,,,,,WIN24_031,19,F,2024-02-02_10h32.24.472,jersey_experiment_5,2023.2.2,Win32,85.47008547,,,,,,,,,,,,,,,,641.8554,643.655,643.655,644.3254,return,0.0618,,67.31770833,,,,,,FBP-PT-18.png,0.37,1.2,52,1,,,,,,,,,,,,,0,32,32,51,1,,,,,,,,,,,,,,,,,,,,,,,,,,,,
,,,,,WIN24_031,19,F,2024-02-02_10h32.24.472,jersey_experiment_5,2023.2.2,Win32,85.47008547,,,,,,,,,,,,,,,,644.3257,646.1255,646.1256,647.0903,return,0.1198,,24.21875,,,,,,FBP-PT-19.png,0.35,1.2,56,1,,,,,,,,,,,,,0,33,33,55,1,,,,,,,,,,,,,,,,,,,,,,,,,,,,
,,,,,WIN24_031,19,F,2024-02-02_10h32.24.472,jersey_experiment_5,2023.2.2,Win32,85.47008547,,,,,,,,,,,,,,,,647.0906,648.8903,648.8903,649.6551,return,0.1648,,15.625,,,,,,FBP-OG-71.png,0.35,1.2,1,1,,,,,,,,,,,,,0,34,34,0,1,,,,,,,,,,,,,,,,,,,,,,,,,,,,
,,,,,WIN24_031,19,F,2024-02-02_10h32.24.472,jersey_experiment_5,2023.2.2,Win32,85.47008547,,,,,,,,,,,,,,,,649.6554,651.455,651.455,652.373,return,0.0854,,29.296875,,,,,,FBP-OG-91.png,0.37,1.2,12,1,,,,,,,,,,,,,0,35,35,11,1,,,,,,,,,,,,,,,,,,,,,,,,,,,,
,,,,,WIN24_031,19,F,2024-02-02_10h32.24.472,jersey_experiment_5,2023.2.2,Win32,85.47008547,,,,,,,,,,,,,,,,652.3733,653.6678,653.6678,655.0555,return,0.1229,,26.04166667,,,,,,FBP-YG-71.png,0.35,1.2,31,0.5,,,,,,,,,,,,,0,36,36,30,1,,,,,,,,,,,,,,,,,,,,,,,,,,,,
,,,,,WIN24_031,19,F,2024-02-02_10h32.24.472,jersey_experiment_5,2023.2.2,Win32,85.47008547,,,,,,,,,,,,,,,,655.0558,656.8555,656.8555,657.5965,return,0.0047,,73.56770833,,,,,,FBP-PT-19.png,0.45,1.2,60,1,,,,,,,,,,,,,0,37,37,59,1,,,,,,,,,,,,,,,,,,,,,,,,,,,,
,,,,,WIN24_031,19,F,2024-02-02_10h32.24.472,jersey_experiment_5,2023.2.2,Win32,85.47008547,,,,,,,,,,,,,,,,657.5968,659.3966,659.3967,659.9731,return,0.1159,,80.859375,,,,,,FBP-OG-91.png,0.45,1.2,15,1,,,,,,,,,,,,,0,38,38,14,1,,,,,,,,,,,,,,,,,,,,,,,,,,,,
,,,,,WIN24_031,19,F,2024-02-02_10h32.24.472,jersey_experiment_5,2023.2.2,Win32,85.47008547,,,,,,,,,,,,,,,,659.9736,661.2672,661.2672,663.1853,return,0.1566,,27.34375,,,,,,FBP-RB-17.png,0.37,1.2,17,0.5,,,,,,,,,,,,,0,39,39,16,1,,,,,,,,,,,,,,,,,,,,,,,,,,,,
,,,,,WIN24_031,19,F,2024-02-02_10h32.24.472,jersey_experiment_5,2023.2.2,Win32,85.47008547,,,,,,,,,,,,,,,,663.1857,664.4791,664.4791,666.0792,return,0.1466,,19.40104167,,,,,,FBP-RB-17.png,0.35,1.2,16,0.5,,,,,,,,,,,,,0,40,40,15,1,,,,,,,,,,,,,,,,,,,,,,,,,,,,
,,,,,WIN24_031,19,F,2024-02-02_10h32.24.472,jersey_experiment_5,2023.2.2,Win32,85.47008547,,,,,,,,,,,,,,,,666.0795,667.3734,667.3734,668.9618,return,0.144,,70.703125,,,,,,FBP-YG-71.png,0.43,1.2,34,0.5,,,,,,,,,,,,,0,41,41,33,1,,,,,,,,,,,,,,,,,,,,,,,,,,,,
,,,,,WIN24_031,19,F,2024-02-02_10h32.24.472,jersey_experiment_5,2023.2.2,Win32,85.47008547,,,,,,,,,,,,,,,,668.9623,670.762,670.7621,672.6915,return,1.307,,55.46875,,,,,,FBP-PT-18.png,0.4,1.2,53,1,,,,,,,,,,,,,0,42,42,52,1,,,,,,,,,,,,,,,,,,,,,,,,,,,,
,,,,,WIN24_031,19,F,2024-02-02_10h32.24.472,jersey_experiment_5,2023.2.2,Win32,85.47008547,,,,,,,,,,,,,,,,672.6922,673.9852,673.9853,675.0912,return,0.1282,,75.78125,,,,,,FBP-YG-81.png,0.43,1.2,39,0.5,,,,,,,,,,,,,0,43,43,38,1,,,,,,,,,,,,,,,,,,,,,,,,,,,,
,,,,,WIN24_031,19,F,2024-02-02_10h32.24.472,jersey_experiment_5,2023.2.2,Win32,85.47008547,,,,,,,,,,,,,,,,675.0917,676.8914,676.8914,678.2561,return,0.8282,,84.375,,,,,,FBP-PT-18.png,0.45,1.2,55,1,,,,,,,,,,,,,0,44,44,54,1,,,,,,,,,,,,,,,,,,,,,,,,,,,,
,,,,,WIN24_031,19,F,2024-02-02_10h32.24.472,jersey_experiment_5,2023.2.2,Win32,85.47008547,,,,,,,,,,,,,,,,678.2564,680.0566,680.0566,681.4915,return,0.2013,,30.20833333,,,,,,FBP-PT-18.png,0.35,1.2,51,1,,,,,,,,,,,,,0,45,45,50,1,,,,,,,,,,,,,,,,,,,,,,,,,,,,
,,,,,WIN24_031,19,F,2024-02-02_10h32.24.472,jersey_experiment_5,2023.2.2,Win32,85.47008547,,,,,,,,,,,,,,,,681.4919,683.2918,683.2918,684.327,return,0.2593,,73.69791667,,,,,,FBP-OG-71.png,0.45,1.2,5,1,,,,,,,,,,,,,0,46,46,4,1,,,,,,,,,,,,,,,,,,,,,,,,,,,,
,,,,,WIN24_031,19,F,2024-02-02_10h32.24.472,jersey_experiment_5,2023.2.2,Win32,85.47008547,,,,,,,,,,,,,,,,684.3274,685.621,685.621,687.9271,return,0.2709,,41.40625,,,,,,FBP-YG-71.png,0.37,1.2,32,0.5,,,,,,,,,,,,,0,47,47,31,1,,,,,,,,,,,,,,,,,,,,,,,,,,,,
,,,,,WIN24_031,19,F,2024-02-02_10h32.24.472,jersey_experiment_5,2023.2.2,Win32,85.47008547,,,,,,,,,,,,,,,,687.9273,689.727,689.727,690.7742,return,0.1651,,74.08854167,,,,,,FBP-OG-81.png,0.45,1.2,10,1,,,,,,,,,,,,,0,48,48,9,1,,,,,,,,,,,,,,,,,,,,,,,,,,,,
,,,,,WIN24_031,19,F,2024-02-02_10h32.24.472,jersey_experiment_5,2023.2.2,Win32,85.47008547,,,,,,,,,,,,,,,,690.7745,692.0684,692.0684,693.5742,return,0.1615,,80.078125,,,,,,FBP-RB-19.png,0.45,1.2,30,0.5,,,,,,,,,,,,,0,49,49,29,1,,,,,,,,,,,,,,,,,,,,,,,,,,,,
,,,,,WIN24_031,19,F,2024-02-02_10h32.24.472,jersey_experiment_5,2023.2.2,Win32,85.47008547,,,,,,,,,,,,,,,,693.5746,695.3745,695.3745,696.7039,return,0.0634,,84.89583333,,,,,,FBP-PT-17.png,0.45,1.2,50,1,,,,,,,,,,,,,0,50,50,49,1,,,,,,,,,,,,,,,,,,,,,,,,,,,,
,,,,,WIN24_031,19,F,2024-02-02_10h32.24.472,jersey_experiment_5,2023.2.2,Win32,85.47008547,,,,,,,,,,,,,,,,696.7043,697.998,697.998,699.6333,return,0.1531,,55.46875,,,,,,FBP-YG-71.png,0.4,1.2,33,0.5,,,,,,,,,,,,,0,51,51,32,1,,,,,,,,,,,,,,,,,,,,,,,,,,,,
,,,,,WIN24_031,19,F,2024-02-02_10h32.24.472,jersey_experiment_5,2023.2.2,Win32,85.47008547,,,,,,,,,,,,,,,,699.6335,700.9275,700.9275,701.8923,return,0.1511,,71.61458333,,,,,,FBP-YG-81.png,0.45,1.2,40,0.5,,,,,,,,,,,,,0,52,52,39,1,,,,,,,,,,,,,,,,,,,,,,,,,,,,
,,,,,WIN24_031,19,F,2024-02-02_10h32.24.472,jersey_experiment_5,2023.2.2,Win32,85.47008547,,,,,,,,,,,,,,,,701.8925,703.6927,703.6928,705.5159,return,1.1263,,51.43229167,,,,,,FBP-OG-91.png,0.4,1.2,13,1,,,,,,,,,,,,,0,53,53,12,1,,,,,,,,,,,,,,,,,,,,,,,,,,,,
,,,,,WIN24_031,19,F,2024-02-02_10h32.24.472,jersey_experiment_5,2023.2.2,Win32,85.47008547,,,,,,,,,,,,,,,,705.5164,707.3159,707.3159,709.9752,return,0.1881,,68.75,,,,,,FBP-PT-17.png,0.43,1.2,49,1,,,,,,,,,,,,,0,54,54,48,1,,,,,,,,,,,,,,,,,,,,,,,,,,,,
,,,,,WIN24_031,19,F,2024-02-02_10h32.24.472,jersey_experiment_5,2023.2.2,Win32,85.47008547,,,,,,,,,,,,,,,,709.9754,711.269,711.2691,713.5163,return,0.3004,,30.98958333,,,,,,FBP-RB-19.png,0.37,1.2,27,0.5,,,,,,,,,,,,,0,55,55,26,1,,,,,,,,,,,,,,,,,,,,,,,,,,,,
,,,,,WIN24_031,19,F,2024-02-02_10h32.24.472,jersey_experiment_5,2023.2.2,Win32,85.47008547,,,,,,,,,,,,,,,,713.5165,714.8104,714.8104,715.9399,return,0.2125,,25.390625,,,,,,FBP-YG-81.png,0.35,1.2,36,0.5,,,,,,,,,,,,,0,56,56,35,1,,,,,,,,,,,,,,,,,,,,,,,,,,,,
,,,,,WIN24_031,19,F,2024-02-02_10h32.24.472,jersey_experiment_5,2023.2.2,Win32,85.47008547,,,,,,,,,,,,,,,,715.9401,717.7402,717.7402,718.7046,return,0.1187,,49.609375,,,,,,FBP-PT-19.png,0.43,1.2,59,1,,,,,,,,,,,,,0,57,57,58,1,,,,,,,,,,,,,,,,,,,,,,,,,,,,
,,,,,WIN24_031,19,F,2024-02-02_10h32.24.472,jersey_experiment_5,2023.2.2,Win32,85.47008547,,,,,,,,,,,,,,,,718.7049,719.9988,719.9988,721.4577,return,0.3676,,75.13020833,,,,,,FBP-RB-18.png,0.45,1.2,25,0.5,,,,,,,,,,,,,0,58,58,24,1,,,,,,,,,,,,,,,,,,,,,,,,,,,,
,,,,,WIN24_031,19,F,2024-02-02_10h32.24.472,jersey_experiment_5,2023.2.2,Win32,85.47008547,,,,,,,,,,,,,,,,721.458,723.2577,723.2577,724.2697,return,0.1832,,71.09375,,,,,,FBP-OG-81.png,0.4,1.2,8,1,,,,,,,,,,,,,0,59,59,7,1,,,,,,,,,,,,,,,,,,,,,,,,,,,,
,,,,,WIN24_031,19,F,2024-02-02_10h32.24.472,jersey_experiment_5,2023.2.2,Win32,85.47008547,,,,,,,,,,,,,,,,724.2737,725.5755,725.5755,727.7285,return,0.7453,,24.73958333,,,,,,FBP-RB-81.png,0.35,1.2,21,0.5,,,,,,,,,,,,,,,,,,0,0,0,20,1,,,,,,,,,,,,,,,,,,,,,,,
,,,,,WIN24_031,19,F,2024-02-02_10h32.24.472,jersey_experiment_5,2023.2.2,Win32,85.47008547,,,,,,,,,,,,,,,,727.7288,729.0227,729.0227,730.3638,return,0.103,,38.54166667,,,,,,FBP-RB-71.png,0.37,1.2,17,0.5,,,,,,,,,,,,,,,,,,0,1,1,16,1,,,,,,,,,,,,,,,,,,,,,,,
,,,,,WIN24_031,19,F,2024-02-02_10h32.24.472,jersey_experiment_5,2023.2.2,Win32,85.47008547,,,,,,,,,,,,,,,,730.364,731.658,731.658,733.1643,return,0.6201,,81.640625,,,,,,FBP-YG-19.png,0.45,1.2,45,0.5,,,,,,,,,,,,,,,,,,0,2,2,44,1,,,,,,,,,,,,,,,,,,,,,,,
,,,,,WIN24_031,19,F,2024-02-02_10h32.24.472,jersey_experiment_5,2023.2.2,Win32,85.47008547,,,,,,,,,,,,,,,,733.1651,734.9641,734.9642,736.0936,return,0.1131,,66.27604167,,,,,,FBP-OG-17.png,0.4,1.2,3,1,,,,,,,,,,,,,,,,,,0,3,3,2,1,,,,,,,,,,,,,,,,,,,,,,,
,,,,,WIN24_031,19,F,2024-02-02_10h32.24.472,jersey_experiment_5,2023.2.2,Win32,85.47008547,,,,,,,,,,,,,,,,736.0938,737.8938,737.8938,738.8235,return,0.1777,,23.828125,,,,,,FBP-OG-19.png,0.37,1.2,12,1,,,,,,,,,,,,,,,,,,0,4,4,11,1,,,,,,,,,,,,,,,,,,,,,,,
,,,,,WIN24_031,19,F,2024-02-02_10h32.24.472,jersey_experiment_5,2023.2.2,Win32,85.47008547,,,,,,,,,,,,,,,,738.8238,740.1172,740.1172,741.2471,return,0.1236,,46.484375,,,,,,FBP-RB-81.png,0.37,1.2,22,0.5,,,,,,,,,,,,,,,,,,0,5,5,21,1,,,,,,,,,,,,,,,,,,,,,,,
,,,,,WIN24_031,19,F,2024-02-02_10h32.24.472,jersey_experiment_5,2023.2.2,Win32,85.47008547,,,,,,,,,,,,,,,,741.2476,742.5409,742.5409,743.2939,return,0.1246,,57.55208333,,,,,,FBP-RB-81.png,0.4,1.2,23,0.5,,,,,,,,,,,,,,,,,,0,6,6,22,1,,,,,,,,,,,,,,,,,,,,,,,
,,,,,WIN24_031,19,F,2024-02-02_10h32.24.472,jersey_experiment_5,2023.2.2,Win32,85.47008547,,,,,,,,,,,,,,,,743.2941,745.0943,745.0943,747.2351,return,0.6135,,54.94791667,,,,,,FBP-PT-71.png,0.43,1.2,49,1,,,,,,,,,,,,,,,,,,0,7,7,48,1,,,,,,,,,,,,,,,,,,,,,,,
,,,,,WIN24_031,19,F,2024-02-02_10h32.24.472,jersey_experiment_5,2023.2.2,Win32,85.47008547,,,,,,,,,,,,,,,,747.2353,749.0353,749.0353,749.8707,return,0.1592,,49.21875,,,,,,FBP-OG-19.png,0.4,1.2,13,1,,,,,,,,,,,,,,,,,,0,8,8,12,1,,,,,,,,,,,,,,,,,,,,,,,
,,,,,WIN24_031,19,F,2024-02-02_10h32.24.472,jersey_experiment_5,2023.2.2,Win32,85.47008547,,,,,,,,,,,,,,,,749.871,751.6709,751.6709,752.4118,return,0.1266,,67.31770833,,,,,,FBP-PT-71.png,0.45,1.2,50,1,,,,,,,,,,,,,,,,,,0,9,9,49,1,,,,,,,,,,,,,,,,,,,,,,,
,,,,,WIN24_031,19,F,2024-02-02_10h32.24.472,jersey_experiment_5,2023.2.2,Win32,85.47008547,,,,,,,,,,,,,,,,752.4122,754.2122,754.2122,755.2001,return,0.3924,,71.484375,,,,,,FBP-PT-91.png,0.43,1.2,59,1,,,,,,,,,,,,,,,,,,0,10,10,58,1,,,,,,,,,,,,,,,,,,,,,,,
,,,,,WIN24_031,19,F,2024-02-02_10h32.24.472,jersey_experiment_5,2023.2.2,Win32,85.47008547,,,,,,,,,,,,,,,,755.2005,756.4943,756.4943,757.5414,return,0.0475,,28.90625,,,,,,FBP-YG-19.png,0.35,1.2,41,0.5,,,,,,,,,,,,,,,,,,0,11,11,40,1,,,,,,,,,,,,,,,,,,,,,,,
,,,,,WIN24_031,19,F,2024-02-02_10h32.24.472,jersey_experiment_5,2023.2.2,Win32,85.47008547,,,,,,,,,,,,,,,,757.5416,758.8357,758.8357,760.2122,return,0.1056,,73.69791667,,,,,,FBP-RB-91.png,0.45,1.2,30,0.5,,,,,,,,,,,,,,,,,,0,12,12,29,1,,,,,,,,,,,,,,,,,,,,,,,
,,,,,WIN24_031,19,F,2024-02-02_10h32.24.472,jersey_experiment_5,2023.2.2,Win32,85.47008547,,,,,,,,,,,,,,,,760.2128,761.5066,761.5066,762.6476,return,0.3659,,74.47916667,,,,,,FBP-RB-91.png,0.43,1.2,29,0.5,,,,,,,,,,,,,,,,,,0,13,13,28,1,,,,,,,,,,,,,,,,,,,,,,,
,,,,,WIN24_031,19,F,2024-02-02_10h32.24.472,jersey_experiment_5,2023.2.2,Win32,85.47008547,,,,,,,,,,,,,,,,762.6479,764.4476,764.4477,765.3419,return,0.1247,,26.5625,,,,,,FBP-PT-91.png,0.37,1.2,57,1,,,,,,,,,,,,,,,,,,0,14,14,56,1,,,,,,,,,,,,,,,,,,,,,,,
,,,,,WIN24_031,19,F,2024-02-02_10h32.24.472,jersey_experiment_5,2023.2.2,Win32,85.47008547,,,,,,,,,,,,,,,,765.3421,766.6361,766.6362,767.6713,return,0.224,,32.29166667,,,,,,FBP-YG-19.png,0.37,1.2,42,0.5,,,,,,,,,,,,,,,,,,0,15,15,41,1,,,,,,,,,,,,,,,,,,,,,,,
,,,,,WIN24_031,19,F,2024-02-02_10h32.24.472,jersey_experiment_5,2023.2.2,Win32,85.47008547,,,,,,,,,,,,,,,,767.6719,769.4715,769.4715,771.5184,return,0.1208,,35.02604167,,,,,,FBP-PT-71.png,0.37,1.2,47,1,,,,,,,,,,,,,,,,,,0,16,16,46,1,,,,,,,,,,,,,,,,,,,,,,,
,,,,,WIN24_031,19,F,2024-02-02_10h32.24.472,jersey_experiment_5,2023.2.2,Win32,85.47008547,,,,,,,,,,,,,,,,771.5186,773.3188,773.3188,774.2247,return,0.1811,,23.4375,,,,,,FBP-PT-91.png,0.35,1.2,56,1,,,,,,,,,,,,,,,,,,0,17,17,55,1,,,,,,,,,,,,,,,,,,,,,,,
,,,,,WIN24_031,19,F,2024-02-02_10h32.24.472,jersey_experiment_5,2023.2.2,Win32,85.47008547,,,,,,,,,,,,,,,,774.2251,776.0245,776.0245,776.9186,return,0.165,,75.390625,,,,,,FBP-OG-17.png,0.43,1.2,4,1,,,,,,,,,,,,,,,,,,0,18,18,3,1,,,,,,,,,,,,,,,,,,,,,,,
,,,,,WIN24_031,19,F,2024-02-02_10h32.24.472,jersey_experiment_5,2023.2.2,Win32,85.47008547,,,,,,,,,,,,,,,,776.9189,778.7187,778.7187,782.4369,return,2.342,,32.94270833,,,,,,FBP-OG-17.png,0.37,1.2,2,1,,,,,,,,,,,,,,,,,,0,19,19,1,1,,,,,,,,,,,,,,,,,,,,,,,
,,,,,WIN24_031,19,F,2024-02-02_10h32.24.472,jersey_experiment_5,2023.2.2,Win32,85.47008547,,,,,,,,,,,,,,,,782.4374,784.2367,784.2367,785.1072,return,0.1665,,22.39583333,,,,,,FBP-PT-81.png,0.35,1.2,51,1,,,,,,,,,,,,,,,,,,0,20,20,50,1,,,,,,,,,,,,,,,,,,,,,,,
,,,,,WIN24_031,19,F,2024-02-02_10h32.24.472,jersey_experiment_5,2023.2.2,Win32,85.47008547,,,,,,,,,,,,,,,,785.1075,786.4012,786.4013,787.4836,return,0.1505,,73.17708333,,,,,,FBP-YG-17.png,0.45,1.2,35,0.5,,,,,,,,,,,,,,,,,,0,21,21,34,1,,,,,,,,,,,,,,,,,,,,,,,
,,,,,WIN24_031,19,F,2024-02-02_10h32.24.472,jersey_experiment_5,2023.2.2,Win32,85.47008547,,,,,,,,,,,,,,,,787.4839,788.7779,788.7779,789.9427,return,0.1895,,69.66145833,,,,,,FBP-RB-71.png,0.4,1.2,18,0.5,,,,,,,,,,,,,,,,,,0,22,22,17,1,,,,,,,,,,,,,,,,,,,,,,,
,,,,,WIN24_031,19,F,2024-02-02_10h32.24.472,jersey_experiment_5,2023.2.2,Win32,85.47008547,,,,,,,,,,,,,,,,789.9429,791.7428,791.7428,792.3662,return,0.1123,,77.99479167,,,,,,FBP-OG-17.png,0.45,1.2,5,1,,,,,,,,,,,,,,,,,,0,23,23,4,1,,,,,,,,,,,,,,,,,,,,,,,
,,,,,WIN24_031,19,F,2024-02-02_10h32.24.472,jersey_experiment_5,2023.2.2,Win32,85.47008547,,,,,,,,,,,,,,,,792.3667,793.6605,793.6606,794.7076,return,0.3539,,80.46875,,,,,,FBP-YG-19.png,0.43,1.2,44,0.5,,,,,,,,,,,,,,,,,,0,24,24,43,1,,,,,,,,,,,,,,,,,,,,,,,
,,,,,WIN24_031,19,F,2024-02-02_10h32.24.472,jersey_experiment_5,2023.2.2,Win32,85.47008547,,,,,,,,,,,,,,,,794.7081,796.0019,796.0019,797.4607,return,0.1648,,46.22395833,,,,,,FBP-RB-91.png,0.35,1.2,26,0.5,,,,,,,,,,,,,,,,,,0,25,25,25,1,,,,,,,,,,,,,,,,,,,,,,,
,,,,,WIN24_031,19,F,2024-02-02_10h32.24.472,jersey_experiment_5,2023.2.2,Win32,85.47008547,,,,,,,,,,,,,,,,797.461,799.2607,799.2608,800.4371,return,0.5645,,57.29166667,,,,,,FBP-PT-81.png,0.43,1.2,54,1,,,,,,,,,,,,,,,,,,0,26,26,53,1,,,,,,,,,,,,,,,,,,,,,,,
,,,,,WIN24_031,19,F,2024-02-02_10h32.24.472,jersey_experiment_5,2023.2.2,Win32,85.47008547,,,,,,,,,,,,,,,,800.4374,801.7314,801.7314,802.3667,return,0.1589,,57.29166667,,,,,,FBP-YG-18.png,0.43,1.2,39,0.5,,,,,,,,,,,,,,,,,,0,27,27,38,1,,,,,,,,,,,,,,,,,,,,,,,
,,,,,WIN24_031,19,F,2024-02-02_10h32.24.472,jersey_experiment_5,2023.2.2,Win32,85.47008547,,,,,,,,,,,,,,,,802.367,803.6608,803.6608,804.4489,return,0.086,,73.95833333,,,,,,FBP-RB-81.png,0.45,1.2,25,0.5,,,,,,,,,,,,,,,,,,0,28,28,24,1,,,,,,,,,,,,,,,,,,,,,,,
,,,,,WIN24_031,19,F,2024-02-02_10h32.24.472,jersey_experiment_5,2023.2.2,Win32,85.47008547,,,,,,,,,,,,,,,,804.4492,806.2493,806.2493,807.2611,return,0.1375,,30.59895833,,,,,,FBP-OG-17.png,0.35,1.2,1,1,,,,,,,,,,,,,,,,,,0,29,29,0,1,,,,,,,,,,,,,,,,,,,,,,,
,,,,,WIN24_031,19,F,2024-02-02_10h32.24.472,jersey_experiment_5,2023.2.2,Win32,85.47008547,,,,,,,,,,,,,,,,807.2613,808.5555,808.5556,809.8259,return,0.1675,,75.65104167,,,,,,FBP-RB-71.png,0.45,1.2,20,0.5,,,,,,,,,,,,,,,,,,0,30,30,19,1,,,,,,,,,,,,,,,,,,,,,,,
,,,,,WIN24_031,19,F,2024-02-02_10h32.24.472,jersey_experiment_5,2023.2.2,Win32,85.47008547,,,,,,,,,,,,,,,,809.8265,811.626,811.6261,812.7906,return,0.1061,,52.99479167,,,,,,FBP-PT-91.png,0.4,1.2,58,1,,,,,,,,,,,,,,,,,,0,31,31,57,1,,,,,,,,,,,,,,,,,,,,,,,
,,,,,WIN24_031,19,F,2024-02-02_10h32.24.472,jersey_experiment_5,2023.2.2,Win32,85.47008547,,,,,,,,,,,,,,,,812.7909,814.5907,814.5907,815.9671,return,0.1232,,49.86979167,,,,,,FBP-PT-71.png,0.4,1.2,48,1,,,,,,,,,,,,,,,,,,0,32,32,47,1,,,,,,,,,,,,,,,,,,,,,,,
,,,,,WIN24_031,19,F,2024-02-02_10h32.24.472,jersey_experiment_5,2023.2.2,Win32,85.47008547,,,,,,,,,,,,,,,,815.9674,817.7672,817.7672,818.4026,return,0.1292,,36.328125,,,,,,FBP-OG-18.png,0.37,1.2,7,1,,,,,,,,,,,,,,,,,,0,33,33,6,1,,,,,,,,,,,,,,,,,,,,,,,
,,,,,WIN24_031,19,F,2024-02-02_10h32.24.472,jersey_experiment_5,2023.2.2,Win32,85.47008547,,,,,,,,,,,,,,,,818.4027,819.6966,819.6967,821.3909,return,0.8624,,67.96875,,,,,,FBP-RB-71.png,0.43,1.2,19,0.5,,,,,,,,,,,,,,,,,,0,34,34,18,1,,,,,,,,,,,,,,,,,,,,,,,
,,,,,WIN24_031,19,F,2024-02-02_10h32.24.472,jersey_experiment_5,2023.2.2,Win32,85.47008547,,,,,,,,,,,,,,,,821.3911,823.1909,823.1909,824.4499,return,0.6966,,45.83333333,,,,,,FBP-PT-81.png,0.37,1.2,52,1,,,,,,,,,,,,,,,,,,0,35,35,51,1,,,,,,,,,,,,,,,,,,,,,,,
,,,,,WIN24_031,19,F,2024-02-02_10h32.24.472,jersey_experiment_5,2023.2.2,Win32,85.47008547,,,,,,,,,,,,,,,,824.4501,826.2498,826.2498,827.0617,return,0.2348,,54.16666667,,,,,,FBP-OG-19.png,0.45,1.2,15,1,,,,,,,,,,,,,,,,,,0,36,36,14,1,,,,,,,,,,,,,,,,,,,,,,,
,,,,,WIN24_031,19,F,2024-02-02_10h32.24.472,jersey_experiment_5,2023.2.2,Win32,85.47008547,,,,,,,,,,,,,,,,827.0621,828.862,828.862,829.5796,return,0.1742,,61.58854167,,,,,,FBP-PT-81.png,0.45,1.2,55,1,,,,,,,,,,,,,,,,,,0,37,37,54,1,,,,,,,,,,,,,,,,,,,,,,,
,,,,,WIN24_031,19,F,2024-02-02_10h32.24.472,jersey_experiment_5,2023.2.2,Win32,85.47008547,,,,,,,,,,,,,,,,829.5798,830.8735,830.8735,832.1092,return,0.1255,,31.90104167,,,,,,FBP-YG-18.png,0.35,1.2,36,0.5,,,,,,,,,,,,,,,,,,0,38,38,35,1,,,,,,,,,,,,,,,,,,,,,,,
,,,,,WIN24_031,19,F,2024-02-02_10h32.24.472,jersey_experiment_5,2023.2.2,Win32,85.47008547,,,,,,,,,,,,,,,,832.1094,833.4032,833.4032,834.4504,return,0.155,,27.21354167,,,,,,FBP-RB-71.png,0.35,1.2,16,0.5,,,,,,,,,,,,,,,,,,0,39,39,15,1,,,,,,,,,,,,,,,,,,,,,,,
,,,,,WIN24_031,19,F,2024-02-02_10h32.24.472,jersey_experiment_5,2023.2.2,Win32,85.47008547,,,,,,,,,,,,,,,,834.4507,835.7443,835.7443,837.062,return,0.1652,,64.97395833,,,,,,FBP-RB-91.png,0.4,1.2,28,0.5,,,,,,,,,,,,,,,,,,0,40,40,27,1,,,,,,,,,,,,,,,,,,,,,,,
,,,,,WIN24_031,19,F,2024-02-02_10h32.24.472,jersey_experiment_5,2023.2.2,Win32,85.47008547,,,,,,,,,,,,,,,,837.0624,838.3563,838.3563,839.2506,return,0.1205,,77.08333333,,,,,,FBP-YG-17.png,0.43,1.2,34,0.5,,,,,,,,,,,,,,,,,,0,41,41,33,1,,,,,,,,,,,,,,,,,,,,,,,
,,,,,WIN24_031,19,F,2024-02-02_10h32.24.472,jersey_experiment_5,2023.2.2,Win32,85.47008547,,,,,,,,,,,,,,,,839.2512,841.0506,841.0506,842.227,return,0.1326,,57.03125,,,,,,FBP-OG-18.png,0.4,1.2,8,1,,,,,,,,,,,,,,,,,,0,42,42,7,1,,,,,,,,,,,,,,,,,,,,,,,
,,,,,WIN24_031,19,F,2024-02-02_10h32.24.472,jersey_experiment_5,2023.2.2,Win32,85.47008547,,,,,,,,,,,,,,,,842.2273,843.5211,843.5212,844.5919,return,0.146,,38.80208333,,,,,,FBP-YG-17.png,0.37,1.2,32,0.5,,,,,,,,,,,,,,,,,,0,43,43,31,1,,,,,,,,,,,,,,,,,,,,,,,
,,,,,WIN24_031,19,F,2024-02-02_10h32.24.472,jersey_experiment_5,2023.2.2,Win32,85.47008547,,,,,,,,,,,,,,,,844.5921,845.8861,845.8861,846.839,return,0.1415,,61.97916667,,,,,,FBP-RB-81.png,0.43,1.2,24,0.5,,,,,,,,,,,,,,,,,,0,44,44,23,1,,,,,,,,,,,,,,,,,,,,,,,
,,,,,WIN24_031,19,F,2024-02-02_10h32.24.472,jersey_experiment_5,2023.2.2,Win32,85.47008547,,,,,,,,,,,,,,,,846.8393,848.133,848.133,848.933,return,0.0684,,59.11458333,,,,,,FBP-YG-18.png,0.4,1.2,38,0.5,,,,,,,,,,,,,,,,,,0,45,45,37,1,,,,,,,,,,,,,,,,,,,,,,,
,,,,,WIN24_031,19,F,2024-02-02_10h32.24.472,jersey_experiment_5,2023.2.2,Win32,85.47008547,,,,,,,,,,,,,,,,848.9333,850.7332,850.7333,851.357,return,0.1468,,27.86458333,,,,,,FBP-OG-19.png,0.35,1.2,11,1,,,,,,,,,,,,,,,,,,0,46,46,10,1,,,,,,,,,,,,,,,,,,,,,,,
,,,,,WIN24_031,19,F,2024-02-02_10h32.24.472,jersey_experiment_5,2023.2.2,Win32,85.47008547,,,,,,,,,,,,,,,,851.3572,852.6509,852.6509,853.4037,return,0.1383,,51.04166667,,,,,,FBP-YG-17.png,0.4,1.2,33,0.5,,,,,,,,,,,,,,,,,,0,47,47,32,1,,,,,,,,,,,,,,,,,,,,,,,
,,,,,WIN24_031,19,F,2024-02-02_10h32.24.472,jersey_experiment_5,2023.2.2,Win32,85.47008547,,,,,,,,,,,,,,,,853.404,854.6981,854.6981,855.8627,return,0.0473,,32.03125,,,,,,FBP-YG-18.png,0.37,1.2,37,0.5,,,,,,,,,,,,,,,,,,0,48,48,36,1,,,,,,,,,,,,,,,,,,,,,,,
,,,,,WIN24_031,19,F,2024-02-02_10h32.24.472,jersey_experiment_5,2023.2.2,Win32,85.47008547,,,,,,,,,,,,,,,,855.863,857.6631,857.6632,858.3218,return,0.1559,,74.609375,,,,,,FBP-PT-91.png,0.45,1.2,60,1,,,,,,,,,,,,,,,,,,0,49,49,59,1,,,,,,,,,,,,,,,,,,,,,,,
,,,,,WIN24_031,19,F,2024-02-02_10h32.24.472,jersey_experiment_5,2023.2.2,Win32,85.47008547,,,,,,,,,,,,,,,,858.322,860.122,860.1221,860.863,return,0.2292,,77.21354167,,,,,,FBP-OG-18.png,0.45,1.2,10,1,,,,,,,,,,,,,,,,,,0,50,50,9,1,,,,,,,,,,,,,,,,,,,,,,,
,,,,,WIN24_031,19,F,2024-02-02_10h32.24.472,jersey_experiment_5,2023.2.2,Win32,85.47008547,,,,,,,,,,,,,,,,860.8631,862.6631,862.6631,863.4867,return,0.253,,30.20833333,,,,,,FBP-OG-18.png,0.35,1.2,6,1,,,,,,,,,,,,,,,,,,0,51,51,5,1,,,,,,,,,,,,,,,,,,,,,,,
,,,,,WIN24_031,19,F,2024-02-02_10h32.24.472,jersey_experiment_5,2023.2.2,Win32,85.47008547,,,,,,,,,,,,,,,,863.4874,865.287,865.287,866.0633,return,0.1584,,23.95833333,,,,,,FBP-PT-71.png,0.35,1.2,46,1,,,,,,,,,,,,,,,,,,0,52,52,45,1,,,,,,,,,,,,,,,,,,,,,,,
,,,,,WIN24_031,19,F,2024-02-02_10h32.24.472,jersey_experiment_5,2023.2.2,Win32,85.47008547,,,,,,,,,,,,,,,,866.0635,867.8636,867.8636,868.8162,return,0.122,,49.34895833,,,,,,FBP-PT-81.png,0.4,1.2,53,1,,,,,,,,,,,,,,,,,,0,53,53,52,1,,,,,,,,,,,,,,,,,,,,,,,
,,,,,WIN24_031,19,F,2024-02-02_10h32.24.472,jersey_experiment_5,2023.2.2,Win32,85.47008547,,,,,,,,,,,,,,,,868.8164,870.1104,870.1104,870.8516,return,0.1048,,49.609375,,,,,,FBP-RB-91.png,0.37,1.2,27,0.5,,,,,,,,,,,,,,,,,,0,54,54,26,1,,,,,,,,,,,,,,,,,,,,,,,
,,,,,WIN24_031,19,F,2024-02-02_10h32.24.472,jersey_experiment_5,2023.2.2,Win32,85.47008547,,,,,,,,,,,,,,,,870.8518,872.1456,872.1457,873.687,return,0.0706,,46.61458333,,,,,,FBP-YG-19.png,0.4,1.2,43,0.5,,,,,,,,,,,,,,,,,,0,55,55,42,1,,,,,,,,,,,,,,,,,,,,,,,
,,,,,WIN24_031,19,F,2024-02-02_10h32.24.472,jersey_experiment_5,2023.2.2,Win32,85.47008547,,,,,,,,,,,,,,,,873.6876,875.4872,875.4872,876.4283,return,0.0886,,52.08333333,,,,,,FBP-OG-19.png,0.43,1.2,14,1,,,,,,,,,,,,,,,,,,0,56,56,13,1,,,,,,,,,,,,,,,,,,,,,,,
,,,,,WIN24_031,19,F,2024-02-02_10h32.24.472,jersey_experiment_5,2023.2.2,Win32,85.47008547,,,,,,,,,,,,,,,,876.4286,877.7224,877.7224,878.5108,return,0.1239,,27.47395833,,,,,,FBP-YG-17.png,0.35,1.2,31,0.5,,,,,,,,,,,,,,,,,,0,57,57,30,1,,,,,,,,,,,,,,,,,,,,,,,
,,,,,WIN24_031,19,F,2024-02-02_10h32.24.472,jersey_experiment_5,2023.2.2,Win32,85.47008547,,,,,,,,,,,,,,,,878.511,880.3108,880.3108,881.6756,return,0.0802,,47.00520833,,,,,,FBP-OG-18.png,0.43,1.2,9,1,,,,,,,,,,,,,,,,,,0,58,58,8,1,,,,,,,,,,,,,,,,,,,,,,,
,,,,,WIN24_031,19,F,2024-02-02_10h32.24.472,jersey_experiment_5,2023.2.2,Win32,85.47008547,,,,,,,,,,,,,,,,881.6758,882.9697,882.9698,884.1109,return,0.1111,,68.359375,,,,,,FBP-YG-18.png,0.45,1.2,40,0.5,,,,,,,,,,,,,,,,,,0,59,59,39,1,,,,,,,,,,,,,,,,,,,,,,,
,,,,,WIN24_031,19,F,2024-02-02_10h32.24.472,jersey_experiment_5,2023.2.2,Win32,85.47008547,,,,,,,,,,,,,,,,,,,,,,,,,,,,,,,,,,,,,,,,,,,,,,,,,,,,,,,,884.1113,892.1122,return,7.9935,,,,,,,,,,,,,,,,,,,
,,,,,WIN24_031,19,F,2024-02-02_10h32.24.472,jersey_experiment_5,2023.2.2,Win32,85.47008547,,,,,,,,,,,,,,,,,,,,,,,,,,,,,,,,,,,,,,,,,,,,,,,,,,,,,,,,,,,,,892.1124,898.7042,1,3.2989,return,3.2721,,,,,,,,,,,,
,,,,,WIN24_031,19,F,2024-02-02_10h32.24.472,jersey_experiment_5,2023.2.2,Win32,85.47008547,,,,,,,,,,,,,,,,,,,,,,,,,,,,,,,,,,,,,,,,,,,,,,,,,,,,,,,,,,,,,,,,,,,,898.7085,922.6825,if perception changed due to color of clothes or skin,right,11.0356,,,,,,
,,,,,WIN24_031,19,F,2024-02-02_10h32.24.472,jersey_experiment_5,2023.2.2,Win32,85.47008547,,,,,,,,,,,,,,,,,,,,,,,,,,,,,,,,,,,,,,,,,,,,,,,,,,,,,,,,,,,,,,,,,,,,,,,,,,922.6826,925.0217,return,2.3293,