requirements.started,requirements.stopped,key_resp_3.keys,key_resp_3.rt,key_resp_3.duration,Subject ID,Age,Gender,date,expName,psychopyVersion,OS,frameRate,instructions1.started,instructions1.stopped,key_resp.keys,key_resp.rt,key_resp.duration,example.started,example.stopped,enter_2.keys,enter_2.rt,enter_2.duration,instructions2.started,instructions2.stopped,enter_3.keys,enter_3.rt,enter_3.duration,image.started,image.stopped,slider_2.started,slider_2.stopped,next.keys,next.rt,next.duration,slider.response,trial_block_1.thisRepN,trial_block_1.thisTrialN,trial_block_1.thisN,trial_block_1.thisIndex,trial_block_1.ran,Path,Width,Height,Index,Duration,trial_block_2.thisRepN,trial_block_2.thisTrialN,trial_block_2.thisN,trial_block_2.thisIndex,trial_block_2.ran,rest_break.started,rest_break.stopped,end_break.started,end_break.stopped,key_resp_5.keys,key_resp_5.rt,key_resp_5.duration,trial_block_3.thisRepN,trial_block_3.thisTrialN,trial_block_3.thisN,trial_block_3.thisIndex,trial_block_3.ran,trial_block_4.thisRepN,trial_block_4.thisTrialN,trial_block_4.thisN,trial_block_4.thisIndex,trial_block_4.ran,questions_intro.started,questions_intro.stopped,enter_12.keys,enter_12.rt,enter_12.duration,question2.started,question2.stopped,question_doingbest.response,question_doingbest.rt,enter_15.keys,enter_15.rt,enter_15.duration,pattern.started,pattern.stopped,pattern_2.text,enter_17.keys,enter_17.rt,enter_17.duration,thankyou.started,thankyou.stopped,enter_14.keys,enter_14.rt,enter_14.duration
0.0002,14.1741,return,14.163,,WIN24_071,21,F,2024-02-23_14h43.35.257,jersey_experiment_5,2023.2.2,Win32,84.74576271,,,,,,,,,,,,,,,,,,,,,,,,,,,,,,,,,,,,,,,,,,,,,,,,,,,,,,,,,,,,,,,,,,,,,,,,,,,,,,
,,,,,WIN24_071,21,F,2024-02-23_14h43.35.257,jersey_experiment_5,2023.2.2,Win32,84.74576271,14.1742,21.5274,return,7.335,,,,,,,,,,,,,,,,,,,,,,,,,,,,,,,,,,,,,,,,,,,,,,,,,,,,,,,,,,,,,,,,,,,,,,,,,,
,,,,,WIN24_071,21,F,2024-02-23_14h43.35.257,jersey_experiment_5,2023.2.2,Win32,84.74576271,,,,,,21.5276,27.6219,return,6.0569,,,,,,,,,,,,,,,,,,,,,,,,,,,,,,,,,,,,,,,,,,,,,,,,,,,,,,,,,,,,,,,,,,,,,
,,,,,WIN24_071,21,F,2024-02-23_14h43.35.257,jersey_experiment_5,2023.2.2,Win32,84.74576271,,,,,,,,,,,27.622,48.6459,return,21.0168,,,,,,,,,,,,,,,,,,,,,,,,,,,,,,,,,,,,,,,,,,,,,,,,,,,,,,,,,,,,,,,,
,,,,,WIN24_071,21,F,2024-02-23_14h43.35.257,jersey_experiment_5,2023.2.2,Win32,84.74576271,,,,,,,,,,,,,,,,48.6522,50.4456,50.4456,64.4109,return,3.8599,,75,0,0,0,24,1,FBP-RB-18.png,0.45,1.2,25,1,,,,,,,,,,,,,,,,,,,,,,,,,,,,,,,,,,,,,,,,,,,,,
,,,,,WIN24_071,21,F,2024-02-23_14h43.35.257,jersey_experiment_5,2023.2.2,Win32,84.74576271,,,,,,,,,,,,,,,,64.4153,65.7167,65.7168,70.5288,return,2.0239,,68.09895833,0,1,1,47,1,FBP-PT-17.png,0.4,1.2,48,0.5,,,,,,,,,,,,,,,,,,,,,,,,,,,,,,,,,,,,,,,,,,,,,
,,,,,WIN24_071,21,F,2024-02-23_14h43.35.257,jersey_experiment_5,2023.2.2,Win32,84.74576271,,,,,,,,,,,,,,,,70.5291,71.8229,71.8229,75.376,return,1.3911,,68.359375,0,2,2,55,1,FBP-PT-19.png,0.35,1.2,56,0.5,,,,,,,,,,,,,,,,,,,,,,,,,,,,,,,,,,,,,,,,,,,,,
,,,,,WIN24_071,21,F,2024-02-23_14h43.35.257,jersey_experiment_5,2023.2.2,Win32,84.74576271,,,,,,,,,,,,,,,,75.3763,77.176,77.176,79.9644,return,0.9078,,75,0,3,3,43,1,FBP-YG-91.png,0.43,1.2,44,1,,,,,,,,,,,,,,,,,,,,,,,,,,,,,,,,,,,,,,,,,,,,,
,,,,,WIN24_071,21,F,2024-02-23_14h43.35.257,jersey_experiment_5,2023.2.2,Win32,84.74576271,,,,,,,,,,,,,,,,79.9646,81.2587,81.2587,84.1527,return,0.8526,,77.08333333,0,4,4,9,1,FBP-OG-81.png,0.45,1.2,10,0.5,,,,,,,,,,,,,,,,,,,,,,,,,,,,,,,,,,,,,,,,,,,,,
,,,,,WIN24_071,21,F,2024-02-23_14h43.35.257,jersey_experiment_5,2023.2.2,Win32,84.74576271,,,,,,,,,,,,,,,,84.153,85.9528,85.953,88.506,return,0.8282,,75.78125,0,5,5,28,1,FBP-RB-19.png,0.43,1.2,29,1,,,,,,,,,,,,,,,,,,,,,,,,,,,,,,,,,,,,,,,,,,,,,
,,,,,WIN24_071,21,F,2024-02-23_14h43.35.257,jersey_experiment_5,2023.2.2,Win32,84.74576271,,,,,,,,,,,,,,,,88.5062,90.3059,90.3059,92.2944,return,0.8911,,75.78125,0,6,6,16,1,FBP-RB-17.png,0.37,1.2,17,1,,,,,,,,,,,,,,,,,,,,,,,,,,,,,,,,,,,,,,,,,,,,,
,,,,,WIN24_071,21,F,2024-02-23_14h43.35.257,jersey_experiment_5,2023.2.2,Win32,84.74576271,,,,,,,,,,,,,,,,92.295,94.0943,94.0943,97.612,return,1.8493,,75.78125,0,7,7,22,1,FBP-RB-18.png,0.4,1.2,23,1,,,,,,,,,,,,,,,,,,,,,,,,,,,,,,,,,,,,,,,,,,,,,
,,,,,WIN24_071,21,F,2024-02-23_14h43.35.257,jersey_experiment_5,2023.2.2,Win32,84.74576271,,,,,,,,,,,,,,,,97.6123,99.4121,99.4122,106.4947,return,3.5863,,73.046875,0,8,8,32,1,FBP-YG-71.png,0.4,1.2,33,1,,,,,,,,,,,,,,,,,,,,,,,,,,,,,,,,,,,,,,,,,,,,,
,,,,,WIN24_071,21,F,2024-02-23_14h43.35.257,jersey_experiment_5,2023.2.2,Win32,84.74576271,,,,,,,,,,,,,,,,106.495,107.789,107.789,110.6949,return,0.9484,,72.91666667,0,9,9,53,1,FBP-PT-18.png,0.43,1.2,54,0.5,,,,,,,,,,,,,,,,,,,,,,,,,,,,,,,,,,,,,,,,,,,,,
,,,,,WIN24_071,21,F,2024-02-23_14h43.35.257,jersey_experiment_5,2023.2.2,Win32,84.74576271,,,,,,,,,,,,,,,,110.6951,111.9892,111.9892,119.7425,return,5.1413,,49.73958333,0,10,10,10,1,FBP-OG-91.png,0.35,1.2,11,0.5,,,,,,,,,,,,,,,,,,,,,,,,,,,,,,,,,,,,,,,,,,,,,
,,,,,WIN24_071,21,F,2024-02-23_14h43.35.257,jersey_experiment_5,2023.2.2,Win32,84.74576271,,,,,,,,,,,,,,,,119.7429,121.5424,121.5425,123.7189,return,0.8543,,52.47395833,0,11,11,21,1,FBP-RB-18.png,0.37,1.2,22,1,,,,,,,,,,,,,,,,,,,,,,,,,,,,,,,,,,,,,,,,,,,,,
,,,,,WIN24_071,21,F,2024-02-23_14h43.35.257,jersey_experiment_5,2023.2.2,Win32,84.74576271,,,,,,,,,,,,,,,,123.7192,125.0131,125.0131,128.1544,return,0.9335,,72.52604167,0,12,12,52,1,FBP-PT-18.png,0.4,1.2,53,0.5,,,,,,,,,,,,,,,,,,,,,,,,,,,,,,,,,,,,,,,,,,,,,
,,,,,WIN24_071,21,F,2024-02-23_14h43.35.257,jersey_experiment_5,2023.2.2,Win32,84.74576271,,,,,,,,,,,,,,,,128.1547,129.4487,129.4487,131.9192,return,0.7528,,62.23958333,0,13,13,5,1,FBP-OG-81.png,0.35,1.2,6,0.5,,,,,,,,,,,,,,,,,,,,,,,,,,,,,,,,,,,,,,,,,,,,,
,,,,,WIN24_071,21,F,2024-02-23_14h43.35.257,jersey_experiment_5,2023.2.2,Win32,84.74576271,,,,,,,,,,,,,,,,131.9195,133.7194,133.7194,136.3899,return,0.8907,,76.953125,0,14,14,38,1,FBP-YG-81.png,0.43,1.2,39,1,,,,,,,,,,,,,,,,,,,,,,,,,,,,,,,,,,,,,,,,,,,,,
,,,,,WIN24_071,21,F,2024-02-23_14h43.35.257,jersey_experiment_5,2023.2.2,Win32,84.74576271,,,,,,,,,,,,,,,,136.3903,137.6842,137.6842,142.6137,return,2.4088,,53.90625,0,15,15,51,1,FBP-PT-18.png,0.37,1.2,52,0.5,,,,,,,,,,,,,,,,,,,,,,,,,,,,,,,,,,,,,,,,,,,,,
,,,,,WIN24_071,21,F,2024-02-23_14h43.35.257,jersey_experiment_5,2023.2.2,Win32,84.74576271,,,,,,,,,,,,,,,,142.6203,144.4139,144.414,146.2023,return,0.9564,,53.77604167,0,16,16,31,1,FBP-YG-71.png,0.37,1.2,32,1,,,,,,,,,,,,,,,,,,,,,,,,,,,,,,,,,,,,,,,,,,,,,
,,,,,WIN24_071,21,F,2024-02-23_14h43.35.257,jersey_experiment_5,2023.2.2,Win32,84.74576271,,,,,,,,,,,,,,,,146.2029,148.0021,148.0022,150.7671,return,0.6967,,85.80729167,0,17,17,29,1,FBP-RB-19.png,0.45,1.2,30,1,,,,,,,,,,,,,,,,,,,,,,,,,,,,,,,,,,,,,,,,,,,,,
,,,,,WIN24_071,21,F,2024-02-23_14h43.35.257,jersey_experiment_5,2023.2.2,Win32,84.74576271,,,,,,,,,,,,,,,,150.7674,152.567,152.567,155.4143,return,0.7609,,78.90625,0,18,18,42,1,FBP-YG-91.png,0.4,1.2,43,1,,,,,,,,,,,,,,,,,,,,,,,,,,,,,,,,,,,,,,,,,,,,,
,,,,,WIN24_071,21,F,2024-02-23_14h43.35.257,jersey_experiment_5,2023.2.2,Win32,84.74576271,,,,,,,,,,,,,,,,155.4148,156.7083,156.7083,160.2497,return,0.7224,,51.171875,0,19,19,50,1,FBP-PT-18.png,0.35,1.2,51,0.5,,,,,,,,,,,,,,,,,,,,,,,,,,,,,,,,,,,,,,,,,,,,,
,,,,,WIN24_071,21,F,2024-02-23_14h43.35.257,jersey_experiment_5,2023.2.2,Win32,84.74576271,,,,,,,,,,,,,,,,160.2499,161.544,161.544,168.7913,return,5.3699,,72.91666667,0,20,20,7,1,FBP-OG-81.png,0.4,1.2,8,0.5,,,,,,,,,,,,,,,,,,,,,,,,,,,,,,,,,,,,,,,,,,,,,
,,,,,WIN24_071,21,F,2024-02-23_14h43.35.257,jersey_experiment_5,2023.2.2,Win32,84.74576271,,,,,,,,,,,,,,,,168.7958,170.5915,170.5915,173.1796,return,0.9536,,85.67708333,0,21,21,18,1,FBP-RB-17.png,0.43,1.2,19,1,,,,,,,,,,,,,,,,,,,,,,,,,,,,,,,,,,,,,,,,,,,,,
,,,,,WIN24_071,21,F,2024-02-23_14h43.35.257,jersey_experiment_5,2023.2.2,Win32,84.74576271,,,,,,,,,,,,,,,,173.1798,174.9797,174.9797,177.3446,return,0.6717,,88.28125,0,22,22,44,1,FBP-YG-91.png,0.45,1.2,45,1,,,,,,,,,,,,,,,,,,,,,,,,,,,,,,,,,,,,,,,,,,,,,
,,,,,WIN24_071,21,F,2024-02-23_14h43.35.257,jersey_experiment_5,2023.2.2,Win32,84.74576271,,,,,,,,,,,,,,,,177.3452,179.1448,179.1448,184.9684,return,4.2423,,48.56770833,0,23,23,40,1,FBP-YG-91.png,0.35,1.2,41,1,,,,,,,,,,,,,,,,,,,,,,,,,,,,,,,,,,,,,,,,,,,,,
,,,,,WIN24_071,21,F,2024-02-23_14h43.35.257,jersey_experiment_5,2023.2.2,Win32,84.74576271,,,,,,,,,,,,,,,,184.9689,186.2625,186.2625,188.9687,return,0.8291,,76.953125,0,24,24,4,1,FBP-OG-71.png,0.45,1.2,5,0.5,,,,,,,,,,,,,,,,,,,,,,,,,,,,,,,,,,,,,,,,,,,,,
,,,,,WIN24_071,21,F,2024-02-23_14h43.35.257,jersey_experiment_5,2023.2.2,Win32,84.74576271,,,,,,,,,,,,,,,,188.9691,190.2628,190.2628,194.6509,return,2.8483,,28.64583333,0,25,25,0,1,FBP-OG-71.png,0.35,1.2,1,0.5,,,,,,,,,,,,,,,,,,,,,,,,,,,,,,,,,,,,,,,,,,,,,
,,,,,WIN24_071,21,F,2024-02-23_14h43.35.257,jersey_experiment_5,2023.2.2,Win32,84.74576271,,,,,,,,,,,,,,,,194.6553,195.9571,195.9571,198.2158,return,0.7831,,76.69270833,0,26,26,49,1,FBP-PT-17.png,0.45,1.2,50,0.5,,,,,,,,,,,,,,,,,,,,,,,,,,,,,,,,,,,,,,,,,,,,,
,,,,,WIN24_071,21,F,2024-02-23_14h43.35.257,jersey_experiment_5,2023.2.2,Win32,84.74576271,,,,,,,,,,,,,,,,198.2161,200.016,200.0161,205.9338,return,3.8591,,50.26041667,0,27,27,26,1,FBP-RB-19.png,0.37,1.2,27,1,,,,,,,,,,,,,,,,,,,,,,,,,,,,,,,,,,,,,,,,,,,,,
,,,,,WIN24_071,21,F,2024-02-23_14h43.35.257,jersey_experiment_5,2023.2.2,Win32,84.74576271,,,,,,,,,,,,,,,,205.9339,207.7339,207.7339,211.8518,return,2.8846,,84.50520833,0,28,28,39,1,FBP-YG-81.png,0.45,1.2,40,1,,,,,,,,,,,,,,,,,,,,,,,,,,,,,,,,,,,,,,,,,,,,,
,,,,,WIN24_071,21,F,2024-02-23_14h43.35.257,jersey_experiment_5,2023.2.2,Win32,84.74576271,,,,,,,,,,,,,,,,211.8522,213.1457,213.1457,216.44,return,0.818,,64.19270833,0,29,29,56,1,FBP-PT-19.png,0.37,1.2,57,0.5,,,,,,,,,,,,,,,,,,,,,,,,,,,,,,,,,,,,,,,,,,,,,
,,,,,WIN24_071,21,F,2024-02-23_14h43.35.257,jersey_experiment_5,2023.2.2,Win32,84.74576271,,,,,,,,,,,,,,,,216.4403,217.7343,217.7343,221.8169,return,2.465,,85.546875,0,30,30,14,1,FBP-OG-91.png,0.45,1.2,15,0.5,,,,,,,,,,,,,,,,,,,,,,,,,,,,,,,,,,,,,,,,,,,,,
,,,,,WIN24_071,21,F,2024-02-23_14h43.35.257,jersey_experiment_5,2023.2.2,Win32,84.74576271,,,,,,,,,,,,,,,,221.8174,223.1107,223.1108,226.6406,return,1.5624,,38.41145833,0,31,31,1,1,FBP-OG-71.png,0.37,1.2,2,0.5,,,,,,,,,,,,,,,,,,,,,,,,,,,,,,,,,,,,,,,,,,,,,
,,,,,WIN24_071,21,F,2024-02-23_14h43.35.257,jersey_experiment_5,2023.2.2,Win32,84.74576271,,,,,,,,,,,,,,,,226.6408,227.9346,227.9347,230.1229,return,0.2471,,49.86979167,0,32,32,2,1,FBP-OG-71.png,0.4,1.2,3,0.5,,,,,,,,,,,,,,,,,,,,,,,,,,,,,,,,,,,,,,,,,,,,,
,,,,,WIN24_071,21,F,2024-02-23_14h43.35.257,jersey_experiment_5,2023.2.2,Win32,84.74576271,,,,,,,,,,,,,,,,230.1232,231.4171,231.4171,233.7348,return,0.4195,,47.265625,0,33,33,45,1,FBP-PT-17.png,0.35,1.2,46,0.5,,,,,,,,,,,,,,,,,,,,,,,,,,,,,,,,,,,,,,,,,,,,,
,,,,,WIN24_071,21,F,2024-02-23_14h43.35.257,jersey_experiment_5,2023.2.2,Win32,84.74576271,,,,,,,,,,,,,,,,233.735,235.0289,235.0289,236.3113,return,0.1838,,46.09375,0,34,34,11,1,FBP-OG-91.png,0.37,1.2,12,0.5,,,,,,,,,,,,,,,,,,,,,,,,,,,,,,,,,,,,,,,,,,,,,
,,,,,WIN24_071,21,F,2024-02-23_14h43.35.257,jersey_experiment_5,2023.2.2,Win32,84.74576271,,,,,,,,,,,,,,,,236.3117,238.1117,238.1117,240.841,return,1.65,,75.13020833,0,35,35,34,1,FBP-YG-71.png,0.45,1.2,35,1,,,,,,,,,,,,,,,,,,,,,,,,,,,,,,,,,,,,,,,,,,,,,
,,,,,WIN24_071,21,F,2024-02-23_14h43.35.257,jersey_experiment_5,2023.2.2,Win32,84.74576271,,,,,,,,,,,,,,,,240.8413,242.6411,242.6412,244.9116,return,0.7881,,38.41145833,0,36,36,25,1,FBP-RB-19.png,0.35,1.2,26,1,,,,,,,,,,,,,,,,,,,,,,,,,,,,,,,,,,,,,,,,,,,,,
,,,,,WIN24_071,21,F,2024-02-23_14h43.35.257,jersey_experiment_5,2023.2.2,Win32,84.74576271,,,,,,,,,,,,,,,,244.9119,246.2059,246.2059,248.5707,return,0.6246,,64.84375,0,37,37,13,1,FBP-OG-91.png,0.43,1.2,14,0.5,,,,,,,,,,,,,,,,,,,,,,,,,,,,,,,,,,,,,,,,,,,,,
,,,,,WIN24_071,21,F,2024-02-23_14h43.35.257,jersey_experiment_5,2023.2.2,Win32,84.74576271,,,,,,,,,,,,,,,,248.5709,250.3708,250.3708,251.5119,return,0.1006,,67.96875,0,38,38,37,1,FBP-YG-81.png,0.4,1.2,38,1,,,,,,,,,,,,,,,,,,,,,,,,,,,,,,,,,,,,,,,,,,,,,
,,,,,WIN24_071,21,F,2024-02-23_14h43.35.257,jersey_experiment_5,2023.2.2,Win32,84.74576271,,,,,,,,,,,,,,,,251.5122,253.3121,253.3121,256.2886,return,1.3063,,54.03645833,0,39,39,30,1,FBP-YG-71.png,0.35,1.2,31,1,,,,,,,,,,,,,,,,,,,,,,,,,,,,,,,,,,,,,,,,,,,,,
,,,,,WIN24_071,21,F,2024-02-23_14h43.35.257,jersey_experiment_5,2023.2.2,Win32,84.74576271,,,,,,,,,,,,,,,,256.2889,258.0887,258.0887,261.5477,return,1.6154,,77.21354167,0,40,40,23,1,FBP-RB-18.png,0.43,1.2,24,1,,,,,,,,,,,,,,,,,,,,,,,,,,,,,,,,,,,,,,,,,,,,,
,,,,,WIN24_071,21,F,2024-02-23_14h43.35.257,jersey_experiment_5,2023.2.2,Win32,84.74576271,,,,,,,,,,,,,,,,261.5479,262.8417,262.8417,265.5949,return,0.2623,,62.109375,0,41,41,46,1,FBP-PT-17.png,0.37,1.2,47,0.5,,,,,,,,,,,,,,,,,,,,,,,,,,,,,,,,,,,,,,,,,,,,,
,,,,,WIN24_071,21,F,2024-02-23_14h43.35.257,jersey_experiment_5,2023.2.2,Win32,84.74576271,,,,,,,,,,,,,,,,265.5952,266.8889,266.8889,268.6302,return,0.42,,75.13020833,0,42,42,48,1,FBP-PT-17.png,0.43,1.2,49,0.5,,,,,,,,,,,,,,,,,,,,,,,,,,,,,,,,,,,,,,,,,,,,,
,,,,,WIN24_071,21,F,2024-02-23_14h43.35.257,jersey_experiment_5,2023.2.2,Win32,84.74576271,,,,,,,,,,,,,,,,268.6305,269.9245,269.9245,272.6774,return,1.938,,65.625,0,43,43,12,1,FBP-OG-91.png,0.4,1.2,13,0.5,,,,,,,,,,,,,,,,,,,,,,,,,,,,,,,,,,,,,,,,,,,,,
,,,,,WIN24_071,21,F,2024-02-23_14h43.35.257,jersey_experiment_5,2023.2.2,Win32,84.74576271,,,,,,,,,,,,,,,,272.6776,274.4775,274.4775,278.2306,return,1.6547,,54.6875,0,44,44,15,1,FBP-RB-17.png,0.35,1.2,16,1,,,,,,,,,,,,,,,,,,,,,,,,,,,,,,,,,,,,,,,,,,,,,
,,,,,WIN24_071,21,F,2024-02-23_14h43.35.257,jersey_experiment_5,2023.2.2,Win32,84.74576271,,,,,,,,,,,,,,,,278.2308,280.0305,280.0306,282.0425,return,1.4042,,56.38020833,0,45,45,17,1,FBP-RB-17.png,0.4,1.2,18,1,,,,,,,,,,,,,,,,,,,,,,,,,,,,,,,,,,,,,,,,,,,,,
,,,,,WIN24_071,21,F,2024-02-23_14h43.35.257,jersey_experiment_5,2023.2.2,Win32,84.74576271,,,,,,,,,,,,,,,,282.0427,283.3368,283.3369,286.9368,return,1.8151,,72.00520833,0,46,46,58,1,FBP-PT-19.png,0.43,1.2,59,0.5,,,,,,,,,,,,,,,,,,,,,,,,,,,,,,,,,,,,,,,,,,,,,
,,,,,WIN24_071,21,F,2024-02-23_14h43.35.257,jersey_experiment_5,2023.2.2,Win32,84.74576271,,,,,,,,,,,,,,,,286.9371,288.7368,288.7369,292.8547,return,1.1608,,63.80208333,0,47,47,35,1,FBP-YG-81.png,0.35,1.2,36,1,,,,,,,,,,,,,,,,,,,,,,,,,,,,,,,,,,,,,,,,,,,,,
,,,,,WIN24_071,21,F,2024-02-23_14h43.35.257,jersey_experiment_5,2023.2.2,Win32,84.74576271,,,,,,,,,,,,,,,,292.8549,294.6547,294.6548,300.5373,return,3.5702,,71.484375,0,48,48,27,1,FBP-RB-19.png,0.4,1.2,28,1,,,,,,,,,,,,,,,,,,,,,,,,,,,,,,,,,,,,,,,,,,,,,
,,,,,WIN24_071,21,F,2024-02-23_14h43.35.257,jersey_experiment_5,2023.2.2,Win32,84.74576271,,,,,,,,,,,,,,,,300.5376,302.3374,302.3374,305.7727,return,0.1429,,53.77604167,0,49,49,36,1,FBP-YG-81.png,0.37,1.2,37,1,,,,,,,,,,,,,,,,,,,,,,,,,,,,,,,,,,,,,,,,,,,,,
,,,,,WIN24_071,21,F,2024-02-23_14h43.35.257,jersey_experiment_5,2023.2.2,Win32,84.74576271,,,,,,,,,,,,,,,,305.773,307.0669,307.0669,308.9378,return,0.4164,,75.13020833,0,50,50,57,1,FBP-PT-19.png,0.4,1.2,58,0.5,,,,,,,,,,,,,,,,,,,,,,,,,,,,,,,,,,,,,,,,,,,,,
,,,,,WIN24_071,21,F,2024-02-23_14h43.35.257,jersey_experiment_5,2023.2.2,Win32,84.74576271,,,,,,,,,,,,,,,,308.938,310.2316,310.2317,312.1024,return,0.4667,,81.77083333,0,51,51,59,1,FBP-PT-19.png,0.45,1.2,60,0.5,,,,,,,,,,,,,,,,,,,,,,,,,,,,,,,,,,,,,,,,,,,,,
,,,,,WIN24_071,21,F,2024-02-23_14h43.35.257,jersey_experiment_5,2023.2.2,Win32,84.74576271,,,,,,,,,,,,,,,,312.1027,313.9025,313.9026,314.7966,return,0.2837,,83.07291667,0,52,52,33,1,FBP-YG-71.png,0.43,1.2,34,1,,,,,,,,,,,,,,,,,,,,,,,,,,,,,,,,,,,,,,,,,,,,,
,,,,,WIN24_071,21,F,2024-02-23_14h43.35.257,jersey_experiment_5,2023.2.2,Win32,84.74576271,,,,,,,,,,,,,,,,314.7968,316.0909,316.0909,317.0791,return,0.16,,83.984375,0,53,53,3,1,FBP-OG-71.png,0.43,1.2,4,0.5,,,,,,,,,,,,,,,,,,,,,,,,,,,,,,,,,,,,,,,,,,,,,
,,,,,WIN24_071,21,F,2024-02-23_14h43.35.257,jersey_experiment_5,2023.2.2,Win32,84.74576271,,,,,,,,,,,,,,,,317.0794,318.8793,318.8794,324.4558,return,4.5945,,48.828125,0,54,54,20,1,FBP-RB-18.png,0.35,1.2,21,1,,,,,,,,,,,,,,,,,,,,,,,,,,,,,,,,,,,,,,,,,,,,,
,,,,,WIN24_071,21,F,2024-02-23_14h43.35.257,jersey_experiment_5,2023.2.2,Win32,84.74576271,,,,,,,,,,,,,,,,324.4561,325.7499,325.7499,329.6914,return,0.215,,48.56770833,0,55,55,6,1,FBP-OG-81.png,0.37,1.2,7,0.5,,,,,,,,,,,,,,,,,,,,,,,,,,,,,,,,,,,,,,,,,,,,,
,,,,,WIN24_071,21,F,2024-02-23_14h43.35.257,jersey_experiment_5,2023.2.2,Win32,84.74576271,,,,,,,,,,,,,,,,329.6917,330.9855,330.9855,333.3268,return,1.2805,,71.35416667,0,56,56,8,1,FBP-OG-81.png,0.43,1.2,9,0.5,,,,,,,,,,,,,,,,,,,,,,,,,,,,,,,,,,,,,,,,,,,,,
,,,,,WIN24_071,21,F,2024-02-23_14h43.35.257,jersey_experiment_5,2023.2.2,Win32,84.74576271,,,,,,,,,,,,,,,,333.327,334.6208,334.6209,336.3033,return,0.5176,,83.07291667,0,57,57,54,1,FBP-PT-18.png,0.45,1.2,55,0.5,,,,,,,,,,,,,,,,,,,,,,,,,,,,,,,,,,,,,,,,,,,,,
,,,,,WIN24_071,21,F,2024-02-23_14h43.35.257,jersey_experiment_5,2023.2.2,Win32,84.74576271,,,,,,,,,,,,,,,,336.3035,338.1034,338.1034,338.8447,return,0.2015,,83.07291667,0,58,58,19,1,FBP-RB-17.png,0.45,1.2,20,1,,,,,,,,,,,,,,,,,,,,,,,,,,,,,,,,,,,,,,,,,,,,,
,,,,,WIN24_071,21,F,2024-02-23_14h43.35.257,jersey_experiment_5,2023.2.2,Win32,84.74576271,,,,,,,,,,,,,,,,338.8451,340.6447,340.6447,342.2329,return,0.37,,71.74479167,0,59,59,41,1,FBP-YG-91.png,0.37,1.2,42,1,,,,,,,,,,,,,,,,,,,,,,,,,,,,,,,,,,,,,,,,,,,,,
,,,,,WIN24_071,21,F,2024-02-23_14h43.35.257,jersey_experiment_5,2023.2.2,Win32,84.74576271,,,,,,,,,,,,,,,,342.2351,343.5275,343.5276,344.7625,return,0.227,,72.65625,,,,,,FBP-OG-19.png,0.4,1.2,13,0.5,0,0,0,12,1,,,,,,,,,,,,,,,,,,,,,,,,,,,,,,,,,,,,,,,,
,,,,,WIN24_071,21,F,2024-02-23_14h43.35.257,jersey_experiment_5,2023.2.2,Win32,84.74576271,,,,,,,,,,,,,,,,344.7627,346.0566,346.0566,350.6333,return,3.2286,,45.96354167,,,,,,FBP-PT-81.png,0.35,1.2,51,0.5,0,1,1,50,1,,,,,,,,,,,,,,,,,,,,,,,,,,,,,,,,,,,,,,,,
,,,,,WIN24_071,21,F,2024-02-23_14h43.35.257,jersey_experiment_5,2023.2.2,Win32,84.74576271,,,,,,,,,,,,,,,,350.6336,351.9275,351.9275,354.0806,return,0.1414,,49.609375,,,,,,FBP-OG-18.png,0.37,1.2,7,0.5,0,2,2,6,1,,,,,,,,,,,,,,,,,,,,,,,,,,,,,,,,,,,,,,,,
,,,,,WIN24_071,21,F,2024-02-23_14h43.35.257,jersey_experiment_5,2023.2.2,Win32,84.74576271,,,,,,,,,,,,,,,,354.0811,355.8811,355.8812,357.1984,return,0.2121,,68.22916667,,,,,,FBP-YG-19.png,0.43,1.2,44,1,0,3,3,43,1,,,,,,,,,,,,,,,,,,,,,,,,,,,,,,,,,,,,,,,,
,,,,,WIN24_071,21,F,2024-02-23_14h43.35.257,jersey_experiment_5,2023.2.2,Win32,84.74576271,,,,,,,,,,,,,,,,357.1991,358.4924,358.4924,359.4453,return,0.15,,68.48958333,,,,,,FBP-PT-71.png,0.43,1.2,49,0.5,0,4,4,48,1,,,,,,,,,,,,,,,,,,,,,,,,,,,,,,,,,,,,,,,,
,,,,,WIN24_071,21,F,2024-02-23_14h43.35.257,jersey_experiment_5,2023.2.2,Win32,84.74576271,,,,,,,,,,,,,,,,359.4454,361.2454,361.2455,361.9513,return,0.1767,,68.48958333,,,,,,FBP-RB-71.png,0.4,1.2,18,1,0,5,5,17,1,,,,,,,,,,,,,,,,,,,,,,,,,,,,,,,,,,,,,,,,
,,,,,WIN24_071,21,F,2024-02-23_14h43.35.257,jersey_experiment_5,2023.2.2,Win32,84.74576271,,,,,,,,,,,,,,,,361.9515,363.2456,363.2456,365.9631,return,0.2031,,66.14583333,,,,,,FBP-PT-91.png,0.37,1.2,57,0.5,0,6,6,56,1,,,,,,,,,,,,,,,,,,,,,,,,,,,,,,,,,,,,,,,,
,,,,,WIN24_071,21,F,2024-02-23_14h43.35.257,jersey_experiment_5,2023.2.2,Win32,84.74576271,,,,,,,,,,,,,,,,365.9633,367.2578,367.2579,369.1281,return,0.2526,,75.26041667,,,,,,FBP-OG-19.png,0.43,1.2,14,0.5,0,7,7,13,1,,,,,,,,,,,,,,,,,,,,,,,,,,,,,,,,,,,,,,,,
,,,,,WIN24_071,21,F,2024-02-23_14h43.35.257,jersey_experiment_5,2023.2.2,Win32,84.74576271,,,,,,,,,,,,,,,,369.1285,370.4222,370.4222,372.6694,return,1.2805,,78.25520833,,,,,,FBP-OG-17.png,0.43,1.2,4,0.5,0,8,8,3,1,,,,,,,,,,,,,,,,,,,,,,,,,,,,,,,,,,,,,,,,
,,,,,WIN24_071,21,F,2024-02-23_14h43.35.257,jersey_experiment_5,2023.2.2,Win32,84.74576271,,,,,,,,,,,,,,,,372.6696,374.4694,374.4694,375.0933,return,0.127,,78.25520833,,,,,,FBP-YG-18.png,0.43,1.2,39,1,0,9,9,38,1,,,,,,,,,,,,,,,,,,,,,,,,,,,,,,,,,,,,,,,,
,,,,,WIN24_071,21,F,2024-02-23_14h43.35.257,jersey_experiment_5,2023.2.2,Win32,84.74576271,,,,,,,,,,,,,,,,375.0936,376.8931,376.8932,378.3637,return,0.2734,,78.25520833,,,,,,FBP-RB-91.png,0.37,1.2,27,1,0,10,10,26,1,,,,,,,,,,,,,,,,,,,,,,,,,,,,,,,,,,,,,,,,
,,,,,WIN24_071,21,F,2024-02-23_14h43.35.257,jersey_experiment_5,2023.2.2,Win32,84.74576271,,,,,,,,,,,,,,,,378.364,379.6578,379.6579,381.2227,return,0.6643,,78.125,,,,,,FBP-PT-81.png,0.43,1.2,54,0.5,0,11,11,53,1,,,,,,,,,,,,,,,,,,,,,,,,,,,,,,,,,,,,,,,,
,,,,,WIN24_071,21,F,2024-02-23_14h43.35.257,jersey_experiment_5,2023.2.2,Win32,84.74576271,,,,,,,,,,,,,,,,381.223,383.0227,383.0227,385.5171,return,0.1653,,74.86979167,,,,,,FBP-YG-18.png,0.45,1.2,40,1,0,12,12,39,1,,,,,,,,,,,,,,,,,,,,,,,,,,,,,,,,,,,,,,,,
,,,,,WIN24_071,21,F,2024-02-23_14h43.35.257,jersey_experiment_5,2023.2.2,Win32,84.74576271,,,,,,,,,,,,,,,,385.5176,387.3169,387.3169,391.9525,return,3.0271,,58.33333333,,,,,,FBP-RB-91.png,0.35,1.2,26,1,0,13,13,25,1,,,,,,,,,,,,,,,,,,,,,,,,,,,,,,,,,,,,,,,,
,,,,,WIN24_071,21,F,2024-02-23_14h43.35.257,jersey_experiment_5,2023.2.2,Win32,84.74576271,,,,,,,,,,,,,,,,391.9528,393.7528,393.7528,396.1525,return,1.3473,,80.59895833,,,,,,FBP-YG-19.png,0.45,1.2,45,1,0,14,14,44,1,,,,,,,,,,,,,,,,,,,,,,,,,,,,,,,,,,,,,,,,
,,,,,WIN24_071,21,F,2024-02-23_14h43.35.257,jersey_experiment_5,2023.2.2,Win32,84.74576271,,,,,,,,,,,,,,,,396.1528,397.9527,397.9527,400.4115,return,0.5062,,53.25520833,,,,,,FBP-YG-18.png,0.4,1.2,38,1,0,15,15,37,1,,,,,,,,,,,,,,,,,,,,,,,,,,,,,,,,,,,,,,,,
,,,,,WIN24_071,21,F,2024-02-23_14h43.35.257,jersey_experiment_5,2023.2.2,Win32,84.74576271,,,,,,,,,,,,,,,,400.4119,402.2118,402.2118,403.4235,return,0.1647,,57.55208333,,,,,,FBP-YG-19.png,0.37,1.2,42,1,0,16,16,41,1,,,,,,,,,,,,,,,,,,,,,,,,,,,,,,,,,,,,,,,,
,,,,,WIN24_071,21,F,2024-02-23_14h43.35.257,jersey_experiment_5,2023.2.2,Win32,84.74576271,,,,,,,,,,,,,,,,403.4238,405.2238,405.2238,406.5059,return,0.2961,,85.02604167,,,,,,FBP-RB-91.png,0.43,1.2,29,1,0,17,17,28,1,,,,,,,,,,,,,,,,,,,,,,,,,,,,,,,,,,,,,,,,
,,,,,WIN24_071,21,F,2024-02-23_14h43.35.257,jersey_experiment_5,2023.2.2,Win32,84.74576271,,,,,,,,,,,,,,,,406.5061,408.3059,408.306,411.6004,return,0.9647,,65.36458333,,,,,,FBP-YG-17.png,0.4,1.2,33,1,0,18,18,32,1,,,,,,,,,,,,,,,,,,,,,,,,,,,,,,,,,,,,,,,,
,,,,,WIN24_071,21,F,2024-02-23_14h43.35.257,jersey_experiment_5,2023.2.2,Win32,84.74576271,,,,,,,,,,,,,,,,411.6009,412.8944,412.8944,414.4709,return,0.1957,,58.33333333,,,,,,FBP-OG-17.png,0.37,1.2,2,0.5,0,19,19,1,1,,,,,,,,,,,,,,,,,,,,,,,,,,,,,,,,,,,,,,,,
,,,,,WIN24_071,21,F,2024-02-23_14h43.35.257,jersey_experiment_5,2023.2.2,Win32,84.74576271,,,,,,,,,,,,,,,,414.4712,415.7651,415.7651,416.7769,return,0.2619,,58.33333333,,,,,,FBP-OG-18.png,0.35,1.2,6,0.5,0,20,20,5,1,,,,,,,,,,,,,,,,,,,,,,,,,,,,,,,,,,,,,,,,
,,,,,WIN24_071,21,F,2024-02-23_14h43.35.257,jersey_experiment_5,2023.2.2,Win32,84.74576271,,,,,,,,,,,,,,,,416.7771,418.0709,418.071,421.7064,return,1.7335,,75.52083333,,,,,,FBP-OG-18.png,0.45,1.2,10,0.5,0,21,21,9,1,,,,,,,,,,,,,,,,,,,,,,,,,,,,,,,,,,,,,,,,
,,,,,WIN24_071,21,F,2024-02-23_14h43.35.257,jersey_experiment_5,2023.2.2,Win32,84.74576271,,,,,,,,,,,,,,,,421.7067,423.0007,423.0007,425.6007,return,0.2125,,56.51041667,,,,,,FBP-PT-81.png,0.4,1.2,53,0.5,0,22,22,52,1,,,,,,,,,,,,,,,,,,,,,,,,,,,,,,,,,,,,,,,,
,,,,,WIN24_071,21,F,2024-02-23_14h43.35.257,jersey_experiment_5,2023.2.2,Win32,84.74576271,,,,,,,,,,,,,,,,425.6011,426.8949,426.895,429.2245,return,0.1918,,42.96875,,,,,,FBP-PT-91.png,0.35,1.2,56,0.5,0,23,23,55,1,,,,,,,,,,,,,,,,,,,,,,,,,,,,,,,,,,,,,,,,
,,,,,WIN24_071,21,F,2024-02-23_14h43.35.257,jersey_experiment_5,2023.2.2,Win32,84.74576271,,,,,,,,,,,,,,,,429.2247,430.5186,430.5186,435.9425,return,3.679,,62.76041667,,,,,,FBP-PT-91.png,0.43,1.2,59,0.5,0,24,24,58,1,,,,,,,,,,,,,,,,,,,,,,,,,,,,,,,,,,,,,,,,
,,,,,WIN24_071,21,F,2024-02-23_14h43.35.257,jersey_experiment_5,2023.2.2,Win32,84.74576271,,,,,,,,,,,,,,,,435.9502,437.7425,437.7426,441.4014,return,0.9461,,66.92708333,,,,,,FBP-YG-17.png,0.43,1.2,34,1,0,25,25,33,1,,,,,,,,,,,,,,,,,,,,,,,,,,,,,,,,,,,,,,,,
,,,,,WIN24_071,21,F,2024-02-23_14h43.35.257,jersey_experiment_5,2023.2.2,Win32,84.74576271,,,,,,,,,,,,,,,,441.4017,443.2014,443.2014,449.5663,return,0.3384,,52.47395833,,,,,,FBP-RB-91.png,0.4,1.2,28,1,0,26,26,27,1,,,,,,,,,,,,,,,,,,,,,,,,,,,,,,,,,,,,,,,,
,,,,,WIN24_071,21,F,2024-02-23_14h43.35.257,jersey_experiment_5,2023.2.2,Win32,84.74576271,,,,,,,,,,,,,,,,449.5665,451.3664,451.3664,453.696,return,0.1689,,50,,,,,,FBP-YG-17.png,0.37,1.2,32,1,0,27,27,31,1,,,,,,,,,,,,,,,,,,,,,,,,,,,,,,,,,,,,,,,,
,,,,,WIN24_071,21,F,2024-02-23_14h43.35.257,jersey_experiment_5,2023.2.2,Win32,84.74576271,,,,,,,,,,,,,,,,453.6963,455.4959,455.496,457.0372,return,0.213,,53.125,,,,,,FBP-YG-19.png,0.4,1.2,43,1,0,28,28,42,1,,,,,,,,,,,,,,,,,,,,,,,,,,,,,,,,,,,,,,,,
,,,,,WIN24_071,21,F,2024-02-23_14h43.35.257,jersey_experiment_5,2023.2.2,Win32,84.74576271,,,,,,,,,,,,,,,,457.0375,458.3313,458.3315,459.449,return,0.2029,,52.86458333,,,,,,FBP-PT-71.png,0.37,1.2,47,0.5,0,29,29,46,1,,,,,,,,,,,,,,,,,,,,,,,,,,,,,,,,,,,,,,,,
,,,,,WIN24_071,21,F,2024-02-23_14h43.35.257,jersey_experiment_5,2023.2.2,Win32,84.74576271,,,,,,,,,,,,,,,,459.4493,460.7433,460.7433,469.0024,return,1.002,,71.22395833,,,,,,FBP-PT-91.png,0.45,1.2,60,0.5,0,30,30,59,1,,,,,,,,,,,,,,,,,,,,,,,,,,,,,,,,,,,,,,,,
,,,,,WIN24_071,21,F,2024-02-23_14h43.35.257,jersey_experiment_5,2023.2.2,Win32,84.74576271,,,,,,,,,,,,,,,,469.0029,470.2966,470.2966,473.1906,return,1.2878,,45.44270833,,,,,,FBP-OG-19.png,0.35,1.2,11,0.5,0,31,31,10,1,,,,,,,,,,,,,,,,,,,,,,,,,,,,,,,,,,,,,,,,
,,,,,WIN24_071,21,F,2024-02-23_14h43.35.257,jersey_experiment_5,2023.2.2,Win32,84.74576271,,,,,,,,,,,,,,,,473.191,474.4849,474.4849,475.6379,return,0.1021,,41.66666667,,,,,,FBP-OG-17.png,0.35,1.2,1,0.5,0,32,32,0,1,,,,,,,,,,,,,,,,,,,,,,,,,,,,,,,,,,,,,,,,
,,,,,WIN24_071,21,F,2024-02-23_14h43.35.257,jersey_experiment_5,2023.2.2,Win32,84.74576271,,,,,,,,,,,,,,,,475.6381,477.4381,477.4381,479.744,return,0.812,,71.09375,,,,,,FBP-RB-91.png,0.45,1.2,30,1,0,33,33,29,1,,,,,,,,,,,,,,,,,,,,,,,,,,,,,,,,,,,,,,,,
,,,,,WIN24_071,21,F,2024-02-23_14h43.35.257,jersey_experiment_5,2023.2.2,Win32,84.74576271,,,,,,,,,,,,,,,,479.7442,481.544,481.544,483.4382,return,0.6827,,72.00520833,,,,,,FBP-RB-81.png,0.43,1.2,24,1,0,34,34,23,1,,,,,,,,,,,,,,,,,,,,,,,,,,,,,,,,,,,,,,,,
,,,,,WIN24_071,21,F,2024-02-23_14h43.35.257,jersey_experiment_5,2023.2.2,Win32,84.74576271,,,,,,,,,,,,,,,,483.4385,484.7324,484.7325,486.7795,return,0.5084,,54.42708333,,,,,,FBP-OG-17.png,0.4,1.2,3,0.5,0,35,35,2,1,,,,,,,,,,,,,,,,,,,,,,,,,,,,,,,,,,,,,,,,
,,,,,WIN24_071,21,F,2024-02-23_14h43.35.257,jersey_experiment_5,2023.2.2,Win32,84.74576271,,,,,,,,,,,,,,,,486.7798,488.5796,488.5796,491.4386,return,0.7789,,80.98958333,,,,,,FBP-RB-81.png,0.45,1.2,25,1,0,36,36,24,1,,,,,,,,,,,,,,,,,,,,,,,,,,,,,,,,,,,,,,,,
,,,,,WIN24_071,21,F,2024-02-23_14h43.35.257,jersey_experiment_5,2023.2.2,Win32,84.74576271,,,,,,,,,,,,,,,,491.4389,492.7328,492.7329,494.3445,return,0.2269,,81.640625,,,,,,FBP-PT-71.png,0.45,1.2,50,0.5,0,37,37,49,1,,,,,,,,,,,,,,,,,,,,,,,,,,,,,,,,,,,,,,,,
,,,,,WIN24_071,21,F,2024-02-23_14h43.35.257,jersey_experiment_5,2023.2.2,Win32,84.74576271,,,,,,,,,,,,,,,,494.3448,495.6386,495.6386,496.5093,return,0.1776,,81.38020833,,,,,,FBP-OG-19.png,0.45,1.2,15,0.5,0,38,38,14,1,,,,,,,,,,,,,,,,,,,,,,,,,,,,,,,,,,,,,,,,
,,,,,WIN24_071,21,F,2024-02-23_14h43.35.257,jersey_experiment_5,2023.2.2,Win32,84.74576271,,,,,,,,,,,,,,,,496.5095,498.3094,498.3095,499.533,return,0.26,,53.515625,,,,,,FBP-YG-19.png,0.35,1.2,41,1,0,39,39,40,1,,,,,,,,,,,,,,,,,,,,,,,,,,,,,,,,,,,,,,,,
,,,,,WIN24_071,21,F,2024-02-23_14h43.35.257,jersey_experiment_5,2023.2.2,Win32,84.74576271,,,,,,,,,,,,,,,,499.5332,501.3329,501.333,502.2507,return,0.1681,,53.515625,,,,,,FBP-YG-18.png,0.37,1.2,37,1,0,40,40,36,1,,,,,,,,,,,,,,,,,,,,,,,,,,,,,,,,,,,,,,,,
,,,,,WIN24_071,21,F,2024-02-23_14h43.35.257,jersey_experiment_5,2023.2.2,Win32,84.74576271,,,,,,,,,,,,,,,,502.251,503.5448,503.5448,507.1096,return,0.973,,68.61979167,,,,,,FBP-PT-81.png,0.45,1.2,55,0.5,0,41,41,54,1,,,,,,,,,,,,,,,,,,,,,,,,,,,,,,,,,,,,,,,,
,,,,,WIN24_071,21,F,2024-02-23_14h43.35.257,jersey_experiment_5,2023.2.2,Win32,84.74576271,,,,,,,,,,,,,,,,507.1099,508.4038,508.4038,511.4393,return,1.0833,,49.47916667,,,,,,FBP-PT-71.png,0.4,1.2,48,0.5,0,42,42,47,1,,,,,,,,,,,,,,,,,,,,,,,,,,,,,,,,,,,,,,,,
,,,,,WIN24_071,21,F,2024-02-23_14h43.35.257,jersey_experiment_5,2023.2.2,Win32,84.74576271,,,,,,,,,,,,,,,,511.4396,512.7334,512.7335,525.7339,return,11.2562,,70.703125,,,,,,FBP-OG-18.png,0.43,1.2,9,0.5,0,43,43,8,1,,,,,,,,,,,,,,,,,,,,,,,,,,,,,,,,,,,,,,,,
,,,,,WIN24_071,21,F,2024-02-23_14h43.35.257,jersey_experiment_5,2023.2.2,Win32,84.74576271,,,,,,,,,,,,,,,,525.7408,527.0398,527.0398,529.6282,return,0.3519,,81.640625,,,,,,FBP-OG-17.png,0.45,1.2,5,0.5,0,44,44,4,1,,,,,,,,,,,,,,,,,,,,,,,,,,,,,,,,,,,,,,,,
,,,,,WIN24_071,21,F,2024-02-23_14h43.35.257,jersey_experiment_5,2023.2.2,Win32,84.74576271,,,,,,,,,,,,,,,,529.6285,530.9223,530.9223,535.5931,return,0.2018,,45.18229167,,,,,,FBP-OG-19.png,0.37,1.2,12,0.5,0,45,45,11,1,,,,,,,,,,,,,,,,,,,,,,,,,,,,,,,,,,,,,,,,
,,,,,WIN24_071,21,F,2024-02-23_14h43.35.257,jersey_experiment_5,2023.2.2,Win32,84.74576271,,,,,,,,,,,,,,,,535.5934,536.8872,536.8872,538.8168,return,1.1298,,47.91666667,,,,,,FBP-OG-18.png,0.4,1.2,8,0.5,0,46,46,7,1,,,,,,,,,,,,,,,,,,,,,,,,,,,,,,,,,,,,,,,,
,,,,,WIN24_071,21,F,2024-02-23_14h43.35.257,jersey_experiment_5,2023.2.2,Win32,84.74576271,,,,,,,,,,,,,,,,538.8172,540.6169,540.6169,543.0051,return,0.1657,,64.0625,,,,,,FBP-RB-71.png,0.43,1.2,19,1,0,47,47,18,1,,,,,,,,,,,,,,,,,,,,,,,,,,,,,,,,,,,,,,,,
,,,,,WIN24_071,21,F,2024-02-23_14h43.35.257,jersey_experiment_5,2023.2.2,Win32,84.74576271,,,,,,,,,,,,,,,,543.0054,544.2992,544.2992,547.7112,return,1.9622,,50.78125,,,,,,FBP-PT-81.png,0.37,1.2,52,0.5,0,48,48,51,1,,,,,,,,,,,,,,,,,,,,,,,,,,,,,,,,,,,,,,,,
,,,,,WIN24_071,21,F,2024-02-23_14h43.35.257,jersey_experiment_5,2023.2.2,Win32,84.74576271,,,,,,,,,,,,,,,,547.7116,549.0053,549.0054,552.8879,return,0.2738,,32.16145833,,,,,,FBP-PT-71.png,0.35,1.2,46,0.5,0,49,49,45,1,,,,,,,,,,,,,,,,,,,,,,,,,,,,,,,,,,,,,,,,
,,,,,WIN24_071,21,F,2024-02-23_14h43.35.257,jersey_experiment_5,2023.2.2,Win32,84.74576271,,,,,,,,,,,,,,,,552.8882,554.6881,554.6881,555.935,return,0.2824,,30.72916667,,,,,,FBP-RB-71.png,0.35,1.2,16,1,0,50,50,15,1,,,,,,,,,,,,,,,,,,,,,,,,,,,,,,,,,,,,,,,,
,,,,,WIN24_071,21,F,2024-02-23_14h43.35.257,jersey_experiment_5,2023.2.2,Win32,84.74576271,,,,,,,,,,,,,,,,555.9353,557.7353,557.7353,560.4059,return,0.1612,,64.32291667,,,,,,FBP-RB-71.png,0.37,1.2,17,1,0,51,51,16,1,,,,,,,,,,,,,,,,,,,,,,,,,,,,,,,,,,,,,,,,
,,,,,WIN24_071,21,F,2024-02-23_14h43.35.257,jersey_experiment_5,2023.2.2,Win32,84.74576271,,,,,,,,,,,,,,,,560.4064,562.206,562.206,563.8293,return,0.2439,,52.60416667,,,,,,FBP-RB-81.png,0.35,1.2,21,1,0,52,52,20,1,,,,,,,,,,,,,,,,,,,,,,,,,,,,,,,,,,,,,,,,
,,,,,WIN24_071,21,F,2024-02-23_14h43.35.257,jersey_experiment_5,2023.2.2,Win32,84.74576271,,,,,,,,,,,,,,,,563.8295,565.6296,565.6297,567.0178,return,0.075,,72.39583333,,,,,,FBP-RB-81.png,0.4,1.2,23,1,0,53,53,22,1,,,,,,,,,,,,,,,,,,,,,,,,,,,,,,,,,,,,,,,,
,,,,,WIN24_071,21,F,2024-02-23_14h43.35.257,jersey_experiment_5,2023.2.2,Win32,84.74576271,,,,,,,,,,,,,,,,567.0179,568.818,568.818,569.9943,return,0.1538,,89.58333333,,,,,,FBP-RB-71.png,0.45,1.2,20,1,0,54,54,19,1,,,,,,,,,,,,,,,,,,,,,,,,,,,,,,,,,,,,,,,,
,,,,,WIN24_071,21,F,2024-02-23_14h43.35.257,jersey_experiment_5,2023.2.2,Win32,84.74576271,,,,,,,,,,,,,,,,569.9947,571.2886,571.2886,574.0062,return,0.1021,,67.70833333,,,,,,FBP-PT-91.png,0.4,1.2,58,0.5,0,55,55,57,1,,,,,,,,,,,,,,,,,,,,,,,,,,,,,,,,,,,,,,,,
,,,,,WIN24_071,21,F,2024-02-23_14h43.35.257,jersey_experiment_5,2023.2.2,Win32,84.74576271,,,,,,,,,,,,,,,,574.0065,575.8064,575.8065,578.1358,return,0.1242,,70.3125,,,,,,FBP-RB-81.png,0.37,1.2,22,1,0,56,56,21,1,,,,,,,,,,,,,,,,,,,,,,,,,,,,,,,,,,,,,,,,
,,,,,WIN24_071,21,F,2024-02-23_14h43.35.257,jersey_experiment_5,2023.2.2,Win32,84.74576271,,,,,,,,,,,,,,,,578.1361,579.9359,579.936,581.2535,return,0.2179,,87.5,,,,,,FBP-YG-17.png,0.45,1.2,35,1,0,57,57,34,1,,,,,,,,,,,,,,,,,,,,,,,,,,,,,,,,,,,,,,,,
,,,,,WIN24_071,21,F,2024-02-23_14h43.35.257,jersey_experiment_5,2023.2.2,Win32,84.74576271,,,,,,,,,,,,,,,,581.2538,583.0539,583.0539,592.2069,return,1.2324,,54.42708333,,,,,,FBP-YG-18.png,0.35,1.2,36,1,0,58,58,35,1,,,,,,,,,,,,,,,,,,,,,,,,,,,,,,,,,,,,,,,,
,,,,,WIN24_071,21,F,2024-02-23_14h43.35.257,jersey_experiment_5,2023.2.2,Win32,84.74576271,,,,,,,,,,,,,,,,592.2072,594.0073,594.0073,597.2424,return,0.192,,49.34895833,,,,,,FBP-YG-17.png,0.35,1.2,31,1,0,59,59,30,1,,,,,,,,,,,,,,,,,,,,,,,,,,,,,,,,,,,,,,,,
,,,,,WIN24_071,21,F,2024-02-23_14h43.35.257,jersey_experiment_5,2023.2.2,Win32,84.74576271,,,,,,,,,,,,,,,,,,,,,,,,,,,,,,,,,,,,,,,597.2429,717.2476,,,,,,,,,,,,,,,,,,,,,,,,,,,,,,,,,,,,,,
,,,,,WIN24_071,21,F,2024-02-23_14h43.35.257,jersey_experiment_5,2023.2.2,Win32,84.74576271,,,,,,,,,,,,,,,,,,,,,,,,,,,,,,,,,,,,,,,,,717.2478,730.6834,return,13.4222,,,,,,,,,,,,,,,,,,,,,,,,,,,,,,,,,,
,,,,,WIN24_071,21,F,2024-02-23_14h43.35.257,jersey_experiment_5,2023.2.2,Win32,84.74576271,,,,,,,,,,,,,,,,730.6949,731.9886,731.9886,737.0949,return,1.2187,,78.515625,,,,,,FBP-RB-19.png,0.43,1.2,29,0.5,,,,,,,,,,,,,0,0,0,28,1,,,,,,,,,,,,,,,,,,,,,,,,,,,,
,,,,,WIN24_071,21,F,2024-02-23_14h43.35.257,jersey_experiment_5,2023.2.2,Win32,84.74576271,,,,,,,,,,,,,,,,737.0955,738.3889,738.3889,741.4244,return,1.0478,,47.13541667,,,,,,FBP-YG-71.png,0.35,1.2,31,0.5,,,,,,,,,,,,,0,1,1,30,1,,,,,,,,,,,,,,,,,,,,,,,,,,,,
,,,,,WIN24_071,21,F,2024-02-23_14h43.35.257,jersey_experiment_5,2023.2.2,Win32,84.74576271,,,,,,,,,,,,,,,,741.4252,742.7184,742.7184,746.0714,return,1.6887,,78.38541667,,,,,,FBP-RB-17.png,0.45,1.2,20,0.5,,,,,,,,,,,,,0,2,2,19,1,,,,,,,,,,,,,,,,,,,,,,,,,,,,
,,,,,WIN24_071,21,F,2024-02-23_14h43.35.257,jersey_experiment_5,2023.2.2,Win32,84.74576271,,,,,,,,,,,,,,,,746.0716,747.8715,747.8715,749.9891,return,0.8207,,72.91666667,,,,,,FBP-PT-17.png,0.45,1.2,50,1,,,,,,,,,,,,,0,3,3,49,1,,,,,,,,,,,,,,,,,,,,,,,,,,,,
,,,,,WIN24_071,21,F,2024-02-23_14h43.35.257,jersey_experiment_5,2023.2.2,Win32,84.74576271,,,,,,,,,,,,,,,,749.9894,751.7895,751.7896,754.1071,return,0.6849,,74.73958333,,,,,,FBP-PT-18.png,0.43,1.2,54,1,,,,,,,,,,,,,0,4,4,53,1,,,,,,,,,,,,,,,,,,,,,,,,,,,,
,,,,,WIN24_071,21,F,2024-02-23_14h43.35.257,jersey_experiment_5,2023.2.2,Win32,84.74576271,,,,,,,,,,,,,,,,754.1073,755.9071,755.9072,760.0955,return,3.447,,77.47395833,,,,,,FBP-OG-71.png,0.45,1.2,5,1,,,,,,,,,,,,,0,5,5,4,1,,,,,,,,,,,,,,,,,,,,,,,,,,,,
,,,,,WIN24_071,21,F,2024-02-23_14h43.35.257,jersey_experiment_5,2023.2.2,Win32,84.74576271,,,,,,,,,,,,,,,,760.0958,761.8956,761.8956,779.6962,return,1.5534,,52.86458333,,,,,,FBP-OG-91.png,0.37,1.2,12,1,,,,,,,,,,,,,0,6,6,11,1,,,,,,,,,,,,,,,,,,,,,,,,,,,,
,,,,,WIN24_071,21,F,2024-02-23_14h43.35.257,jersey_experiment_5,2023.2.2,Win32,84.74576271,,,,,,,,,,,,,,,,779.6966,780.9904,780.9905,784.5437,return,0.6945,,62.23958333,,,,,,FBP-YG-71.png,0.43,1.2,34,0.5,,,,,,,,,,,,,0,7,7,33,1,,,,,,,,,,,,,,,,,,,,,,,,,,,,
,,,,,WIN24_071,21,F,2024-02-23_14h43.35.257,jersey_experiment_5,2023.2.2,Win32,84.74576271,,,,,,,,,,,,,,,,784.5447,786.3436,786.3436,789.2613,return,0.6856,,50,,,,,,FBP-OG-81.png,0.37,1.2,7,1,,,,,,,,,,,,,0,8,8,6,1,,,,,,,,,,,,,,,,,,,,,,,,,,,,
,,,,,WIN24_071,21,F,2024-02-23_14h43.35.257,jersey_experiment_5,2023.2.2,Win32,84.74576271,,,,,,,,,,,,,,,,789.2615,791.0613,791.0614,795.6264,return,3.863,,48.69791667,,,,,,FBP-OG-71.png,0.37,1.2,2,1,,,,,,,,,,,,,0,9,9,1,1,,,,,,,,,,,,,,,,,,,,,,,,,,,,
,,,,,WIN24_071,21,F,2024-02-23_14h43.35.257,jersey_experiment_5,2023.2.2,Win32,84.74576271,,,,,,,,,,,,,,,,795.627,796.9205,796.9206,800.2381,return,2.1061,,71.61458333,,,,,,FBP-RB-18.png,0.4,1.2,23,0.5,,,,,,,,,,,,,0,10,10,22,1,,,,,,,,,,,,,,,,,,,,,,,,,,,,
,,,,,WIN24_071,21,F,2024-02-23_14h43.35.257,jersey_experiment_5,2023.2.2,Win32,84.74576271,,,,,,,,,,,,,,,,800.2384,802.0384,802.0385,805.9796,return,1.8619,,46.74479167,,,,,,FBP-PT-18.png,0.35,1.2,51,1,,,,,,,,,,,,,0,11,11,50,1,,,,,,,,,,,,,,,,,,,,,,,,,,,,
,,,,,WIN24_071,21,F,2024-02-23_14h43.35.257,jersey_experiment_5,2023.2.2,Win32,84.74576271,,,,,,,,,,,,,,,,805.9798,807.274,807.274,813.8858,return,5.1879,,46.22395833,,,,,,FBP-YG-91.png,0.37,1.2,42,0.5,,,,,,,,,,,,,0,12,12,41,1,,,,,,,,,,,,,,,,,,,,,,,,,,,,
,,,,,WIN24_071,21,F,2024-02-23_14h43.35.257,jersey_experiment_5,2023.2.2,Win32,84.74576271,,,,,,,,,,,,,,,,813.886,815.6859,815.6859,817.1681,return,0.2148,,36.97916667,,,,,,FBP-OG-71.png,0.35,1.2,1,1,,,,,,,,,,,,,0,13,13,0,1,,,,,,,,,,,,,,,,,,,,,,,,,,,,
,,,,,WIN24_071,21,F,2024-02-23_14h43.35.257,jersey_experiment_5,2023.2.2,Win32,84.74576271,,,,,,,,,,,,,,,,817.1684,818.9683,818.9683,821.7331,return,0.1478,,55.33854167,,,,,,FBP-PT-19.png,0.4,1.2,58,1,,,,,,,,,,,,,0,14,14,57,1,,,,,,,,,,,,,,,,,,,,,,,,,,,,
,,,,,WIN24_071,21,F,2024-02-23_14h43.35.257,jersey_experiment_5,2023.2.2,Win32,84.74576271,,,,,,,,,,,,,,,,821.7333,823.5332,823.5332,826.0157,return,1.2483,,80.33854167,,,,,,FBP-OG-91.png,0.45,1.2,15,1,,,,,,,,,,,,,0,15,15,14,1,,,,,,,,,,,,,,,,,,,,,,,,,,,,
,,,,,WIN24_071,21,F,2024-02-23_14h43.35.257,jersey_experiment_5,2023.2.2,Win32,84.74576271,,,,,,,,,,,,,,,,826.016,827.8156,827.8157,829.4982,return,1.204,,79.55729167,,,,,,FBP-PT-17.png,0.43,1.2,49,1,,,,,,,,,,,,,0,16,16,48,1,,,,,,,,,,,,,,,,,,,,,,,,,,,,
,,,,,WIN24_071,21,F,2024-02-23_14h43.35.257,jersey_experiment_5,2023.2.2,Win32,84.74576271,,,,,,,,,,,,,,,,829.4984,830.7922,830.7922,835.2396,return,0.4884,,56.77083333,,,,,,FBP-RB-18.png,0.37,1.2,22,0.5,,,,,,,,,,,,,0,17,17,21,1,,,,,,,,,,,,,,,,,,,,,,,,,,,,
,,,,,WIN24_071,21,F,2024-02-23_14h43.35.257,jersey_experiment_5,2023.2.2,Win32,84.74576271,,,,,,,,,,,,,,,,835.2398,837.0397,837.0397,839.5338,return,0.8003,,71.61458333,,,,,,FBP-OG-71.png,0.43,1.2,4,1,,,,,,,,,,,,,0,18,18,3,1,,,,,,,,,,,,,,,,,,,,,,,,,,,,
,,,,,WIN24_071,21,F,2024-02-23_14h43.35.257,jersey_experiment_5,2023.2.2,Win32,84.74576271,,,,,,,,,,,,,,,,839.5341,841.3338,841.3339,843.6869,return,0.5135,,82.94270833,,,,,,FBP-PT-19.png,0.45,1.2,60,1,,,,,,,,,,,,,0,19,19,59,1,,,,,,,,,,,,,,,,,,,,,,,,,,,,
,,,,,WIN24_071,21,F,2024-02-23_14h43.35.257,jersey_experiment_5,2023.2.2,Win32,84.74576271,,,,,,,,,,,,,,,,843.6872,844.981,844.9811,846.4165,return,0.5889,,82.94270833,,,,,,FBP-YG-81.png,0.45,1.2,40,0.5,,,,,,,,,,,,,0,20,20,39,1,,,,,,,,,,,,,,,,,,,,,,,,,,,,
,,,,,WIN24_071,21,F,2024-02-23_14h43.35.257,jersey_experiment_5,2023.2.2,Win32,84.74576271,,,,,,,,,,,,,,,,846.417,848.2164,848.2164,852.1578,return,0.5391,,74.609375,,,,,,FBP-OG-81.png,0.43,1.2,9,1,,,,,,,,,,,,,0,21,21,8,1,,,,,,,,,,,,,,,,,,,,,,,,,,,,
,,,,,WIN24_071,21,F,2024-02-23_14h43.35.257,jersey_experiment_5,2023.2.2,Win32,84.74576271,,,,,,,,,,,,,,,,852.1581,853.452,853.452,855.1932,return,0.3695,,74.86979167,,,,,,FBP-RB-19.png,0.45,1.2,30,0.5,,,,,,,,,,,,,0,22,22,29,1,,,,,,,,,,,,,,,,,,,,,,,,,,,,
,,,,,WIN24_071,21,F,2024-02-23_14h43.35.257,jersey_experiment_5,2023.2.2,Win32,84.74576271,,,,,,,,,,,,,,,,855.1936,856.9933,856.9934,859.1108,return,0.1954,,57.29166667,,,,,,FBP-PT-18.png,0.4,1.2,53,1,,,,,,,,,,,,,0,23,23,52,1,,,,,,,,,,,,,,,,,,,,,,,,,,,,
,,,,,WIN24_071,21,F,2024-02-23_14h43.35.257,jersey_experiment_5,2023.2.2,Win32,84.74576271,,,,,,,,,,,,,,,,859.1111,860.4052,860.4053,862.264,return,0.0299,,45.96354167,,,,,,FBP-RB-17.png,0.37,1.2,17,0.5,,,,,,,,,,,,,0,24,24,16,1,,,,,,,,,,,,,,,,,,,,,,,,,,,,
,,,,,WIN24_071,21,F,2024-02-23_14h43.35.257,jersey_experiment_5,2023.2.2,Win32,84.74576271,,,,,,,,,,,,,,,,862.2642,864.0641,864.0641,865.3113,return,0.1768,,47.78645833,,,,,,FBP-OG-91.png,0.4,1.2,13,1,,,,,,,,,,,,,0,25,25,12,1,,,,,,,,,,,,,,,,,,,,,,,,,,,,
,,,,,WIN24_071,21,F,2024-02-23_14h43.35.257,jersey_experiment_5,2023.2.2,Win32,84.74576271,,,,,,,,,,,,,,,,865.3116,867.1111,867.1112,869.229,return,1.0128,,56.640625,,,,,,FBP-OG-81.png,0.4,1.2,8,1,,,,,,,,,,,,,0,26,26,7,1,,,,,,,,,,,,,,,,,,,,,,,,,,,,
,,,,,WIN24_071,21,F,2024-02-23_14h43.35.257,jersey_experiment_5,2023.2.2,Win32,84.74576271,,,,,,,,,,,,,,,,869.2292,871.029,871.029,874.7938,return,2.3102,,41.66666667,,,,,,FBP-PT-19.png,0.35,1.2,56,1,,,,,,,,,,,,,0,27,27,55,1,,,,,,,,,,,,,,,,,,,,,,,,,,,,
,,,,,WIN24_071,21,F,2024-02-23_14h43.35.257,jersey_experiment_5,2023.2.2,Win32,84.74576271,,,,,,,,,,,,,,,,874.7941,876.0882,876.0882,879.7823,return,2.6645,,46.74479167,,,,,,FBP-RB-18.png,0.35,1.2,21,0.5,,,,,,,,,,,,,0,28,28,20,1,,,,,,,,,,,,,,,,,,,,,,,,,,,,
,,,,,WIN24_071,21,F,2024-02-23_14h43.35.257,jersey_experiment_5,2023.2.2,Win32,84.74576271,,,,,,,,,,,,,,,,879.7826,881.5824,881.5824,883.1002,return,0.4622,,50.78125,,,,,,FBP-PT-19.png,0.37,1.2,57,1,,,,,,,,,,,,,0,29,29,56,1,,,,,,,,,,,,,,,,,,,,,,,,,,,,
,,,,,WIN24_071,21,F,2024-02-23_14h43.35.257,jersey_experiment_5,2023.2.2,Win32,84.74576271,,,,,,,,,,,,,,,,883.1004,884.3942,884.3943,885.6296,return,0.0335,,47.13541667,,,,,,FBP-YG-81.png,0.35,1.2,36,0.5,,,,,,,,,,,,,0,30,30,35,1,,,,,,,,,,,,,,,,,,,,,,,,,,,,
,,,,,WIN24_071,21,F,2024-02-23_14h43.35.257,jersey_experiment_5,2023.2.2,Win32,84.74576271,,,,,,,,,,,,,,,,885.6299,886.9237,886.9237,887.7826,return,0.2159,,47.13541667,,,,,,FBP-YG-71.png,0.37,1.2,32,0.5,,,,,,,,,,,,,0,31,31,31,1,,,,,,,,,,,,,,,,,,,,,,,,,,,,
,,,,,WIN24_071,21,F,2024-02-23_14h43.35.257,jersey_experiment_5,2023.2.2,Win32,84.74576271,,,,,,,,,,,,,,,,887.7829,889.5828,889.5828,891.9593,return,0.5244,,67.83854167,,,,,,FBP-PT-19.png,0.43,1.2,59,1,,,,,,,,,,,,,0,32,32,58,1,,,,,,,,,,,,,,,,,,,,,,,,,,,,
,,,,,WIN24_071,21,F,2024-02-23_14h43.35.257,jersey_experiment_5,2023.2.2,Win32,84.74576271,,,,,,,,,,,,,,,,891.9596,893.2533,893.2534,895.0651,return,0.2286,,57.94270833,,,,,,FBP-YG-91.png,0.4,1.2,43,0.5,,,,,,,,,,,,,0,33,33,42,1,,,,,,,,,,,,,,,,,,,,,,,,,,,,
,,,,,WIN24_071,21,F,2024-02-23_14h43.35.257,jersey_experiment_5,2023.2.2,Win32,84.74576271,,,,,,,,,,,,,,,,895.0653,896.8653,896.8654,899.289,return,1.4995,,46.74479167,,,,,,FBP-PT-17.png,0.35,1.2,46,1,,,,,,,,,,,,,0,34,34,45,1,,,,,,,,,,,,,,,,,,,,,,,,,,,,
,,,,,WIN24_071,21,F,2024-02-23_14h43.35.257,jersey_experiment_5,2023.2.2,Win32,84.74576271,,,,,,,,,,,,,,,,899.2893,900.5831,900.5831,904.5244,return,1.9192,,64.84375,,,,,,FBP-YG-71.png,0.4,1.2,33,0.5,,,,,,,,,,,,,0,35,35,32,1,,,,,,,,,,,,,,,,,,,,,,,,,,,,
,,,,,WIN24_071,21,F,2024-02-23_14h43.35.257,jersey_experiment_5,2023.2.2,Win32,84.74576271,,,,,,,,,,,,,,,,904.5247,905.8185,905.8185,908.4422,return,1.0277,,77.21354167,,,,,,FBP-RB-18.png,0.43,1.2,24,0.5,,,,,,,,,,,,,0,36,36,23,1,,,,,,,,,,,,,,,,,,,,,,,,,,,,
,,,,,WIN24_071,21,F,2024-02-23_14h43.35.257,jersey_experiment_5,2023.2.2,Win32,84.74576271,,,,,,,,,,,,,,,,908.4424,910.2426,910.2426,911.2894,return,0.2049,,76.171875,,,,,,FBP-PT-18.png,0.45,1.2,55,1,,,,,,,,,,,,,0,37,37,54,1,,,,,,,,,,,,,,,,,,,,,,,,,,,,
,,,,,WIN24_071,21,F,2024-02-23_14h43.35.257,jersey_experiment_5,2023.2.2,Win32,84.74576271,,,,,,,,,,,,,,,,911.2897,913.0895,913.0896,915.6778,return,1.2125,,43.61979167,,,,,,FBP-OG-91.png,0.35,1.2,11,1,,,,,,,,,,,,,0,38,38,10,1,,,,,,,,,,,,,,,,,,,,,,,,,,,,
,,,,,WIN24_071,21,F,2024-02-23_14h43.35.257,jersey_experiment_5,2023.2.2,Win32,84.74576271,,,,,,,,,,,,,,,,915.6781,916.972,916.9721,921.0781,return,2.0293,,65.75520833,,,,,,FBP-RB-19.png,0.4,1.2,28,0.5,,,,,,,,,,,,,0,39,39,27,1,,,,,,,,,,,,,,,,,,,,,,,,,,,,
,,,,,WIN24_071,21,F,2024-02-23_14h43.35.257,jersey_experiment_5,2023.2.2,Win32,84.74576271,,,,,,,,,,,,,,,,921.0784,922.3725,922.3725,925.7723,return,0.1665,,63.93229167,,,,,,FBP-RB-17.png,0.4,1.2,18,0.5,,,,,,,,,,,,,0,40,40,17,1,,,,,,,,,,,,,,,,,,,,,,,,,,,,
,,,,,WIN24_071,21,F,2024-02-23_14h43.35.257,jersey_experiment_5,2023.2.2,Win32,84.74576271,,,,,,,,,,,,,,,,925.7727,927.5724,927.5724,931.4078,return,2.9064,,32.94270833,,,,,,FBP-OG-81.png,0.35,1.2,6,1,,,,,,,,,,,,,0,41,41,5,1,,,,,,,,,,,,,,,,,,,,,,,,,,,,
,,,,,WIN24_071,21,F,2024-02-23_14h43.35.257,jersey_experiment_5,2023.2.2,Win32,84.74576271,,,,,,,,,,,,,,,,931.4082,932.7019,932.702,935.008,return,0.2625,,43.88020833,,,,,,FBP-RB-17.png,0.35,1.2,16,0.5,,,,,,,,,,,,,0,42,42,15,1,,,,,,,,,,,,,,,,,,,,,,,,,,,,
,,,,,WIN24_071,21,F,2024-02-23_14h43.35.257,jersey_experiment_5,2023.2.2,Win32,84.74576271,,,,,,,,,,,,,,,,935.0082,936.302,936.3021,938.5846,return,0.1918,,74.47916667,,,,,,FBP-RB-17.png,0.43,1.2,19,0.5,,,,,,,,,,,,,0,43,43,18,1,,,,,,,,,,,,,,,,,,,,,,,,,,,,
,,,,,WIN24_071,21,F,2024-02-23_14h43.35.257,jersey_experiment_5,2023.2.2,Win32,84.74576271,,,,,,,,,,,,,,,,938.5849,939.8788,939.8788,943.7024,return,0.1722,,49.73958333,,,,,,FBP-YG-91.png,0.35,1.2,41,0.5,,,,,,,,,,,,,0,44,44,40,1,,,,,,,,,,,,,,,,,,,,,,,,,,,,
,,,,,WIN24_071,21,F,2024-02-23_14h43.35.257,jersey_experiment_5,2023.2.2,Win32,84.74576271,,,,,,,,,,,,,,,,943.7027,944.9966,944.9966,946.1026,return,0.1732,,45.96354167,,,,,,FBP-YG-81.png,0.37,1.2,37,0.5,,,,,,,,,,,,,0,45,45,36,1,,,,,,,,,,,,,,,,,,,,,,,,,,,,
,,,,,WIN24_071,21,F,2024-02-23_14h43.35.257,jersey_experiment_5,2023.2.2,Win32,84.74576271,,,,,,,,,,,,,,,,946.1034,947.9028,947.9028,949.4556,return,0.2142,,71.35416667,,,,,,FBP-OG-91.png,0.43,1.2,14,1,,,,,,,,,,,,,0,46,46,13,1,,,,,,,,,,,,,,,,,,,,,,,,,,,,
,,,,,WIN24_071,21,F,2024-02-23_14h43.35.257,jersey_experiment_5,2023.2.2,Win32,84.74576271,,,,,,,,,,,,,,,,949.4557,951.2555,951.2556,954.6675,return,2.106,,63.80208333,,,,,,FBP-PT-17.png,0.37,1.2,47,1,,,,,,,,,,,,,0,47,47,46,1,,,,,,,,,,,,,,,,,,,,,,,,,,,,
,,,,,WIN24_071,21,F,2024-02-23_14h43.35.257,jersey_experiment_5,2023.2.2,Win32,84.74576271,,,,,,,,,,,,,,,,954.6677,955.9616,955.9616,958.1852,return,0.5438,,81.38020833,,,,,,FBP-YG-91.png,0.43,1.2,44,0.5,,,,,,,,,,,,,0,48,48,43,1,,,,,,,,,,,,,,,,,,,,,,,,,,,,
,,,,,WIN24_071,21,F,2024-02-23_14h43.35.257,jersey_experiment_5,2023.2.2,Win32,84.74576271,,,,,,,,,,,,,,,,958.1855,959.9853,959.9853,961.9149,return,0.9312,,81.25,,,,,,FBP-OG-81.png,0.45,1.2,10,1,,,,,,,,,,,,,0,49,49,9,1,,,,,,,,,,,,,,,,,,,,,,,,,,,,
,,,,,WIN24_071,21,F,2024-02-23_14h43.35.257,jersey_experiment_5,2023.2.2,Win32,84.74576271,,,,,,,,,,,,,,,,961.9154,963.2089,963.2089,965.221,return,0.2888,,77.734375,,,,,,FBP-YG-81.png,0.43,1.2,39,0.5,,,,,,,,,,,,,0,50,50,38,1,,,,,,,,,,,,,,,,,,,,,,,,,,,,
,,,,,WIN24_071,21,F,2024-02-23_14h43.35.257,jersey_experiment_5,2023.2.2,Win32,84.74576271,,,,,,,,,,,,,,,,965.2212,966.515,966.515,968.0798,return,0.2683,,86.45833333,,,,,,FBP-YG-71.png,0.45,1.2,35,0.5,,,,,,,,,,,,,0,51,51,34,1,,,,,,,,,,,,,,,,,,,,,,,,,,,,
,,,,,WIN24_071,21,F,2024-02-23_14h43.35.257,jersey_experiment_5,2023.2.2,Win32,84.74576271,,,,,,,,,,,,,,,,968.0802,969.8797,969.8798,972.174,return,0.2001,,66.92708333,,,,,,FBP-OG-71.png,0.4,1.2,3,1,,,,,,,,,,,,,0,52,52,2,1,,,,,,,,,,,,,,,,,,,,,,,,,,,,
,,,,,WIN24_071,21,F,2024-02-23_14h43.35.257,jersey_experiment_5,2023.2.2,Win32,84.74576271,,,,,,,,,,,,,,,,972.1743,973.9741,973.9741,977.1272,return,0.184,,58.33333333,,,,,,FBP-PT-17.png,0.4,1.2,48,1,,,,,,,,,,,,,0,53,53,47,1,,,,,,,,,,,,,,,,,,,,,,,,,,,,
,,,,,WIN24_071,21,F,2024-02-23_14h43.35.257,jersey_experiment_5,2023.2.2,Win32,84.74576271,,,,,,,,,,,,,,,,977.1275,978.4215,978.4215,980.8566,return,0.2013,,69.27083333,,,,,,FBP-RB-19.png,0.37,1.2,27,0.5,,,,,,,,,,,,,0,54,54,26,1,,,,,,,,,,,,,,,,,,,,,,,,,,,,
,,,,,WIN24_071,21,F,2024-02-23_14h43.35.257,jersey_experiment_5,2023.2.2,Win32,84.74576271,,,,,,,,,,,,,,,,980.8569,982.1509,982.151,983.692,return,0.4258,,83.203125,,,,,,FBP-YG-91.png,0.45,1.2,45,0.5,,,,,,,,,,,,,0,55,55,44,1,,,,,,,,,,,,,,,,,,,,,,,,,,,,
,,,,,WIN24_071,21,F,2024-02-23_14h43.35.257,jersey_experiment_5,2023.2.2,Win32,84.74576271,,,,,,,,,,,,,,,,983.6923,984.9862,984.9863,989.3512,return,2.5017,,50.390625,,,,,,FBP-RB-19.png,0.35,1.2,26,0.5,,,,,,,,,,,,,0,56,56,25,1,,,,,,,,,,,,,,,,,,,,,,,,,,,,
,,,,,WIN24_071,21,F,2024-02-23_14h43.35.257,jersey_experiment_5,2023.2.2,Win32,84.74576271,,,,,,,,,,,,,,,,989.3516,991.1513,991.1513,993.9276,return,0.1599,,46.74479167,,,,,,FBP-PT-18.png,0.37,1.2,52,1,,,,,,,,,,,,,0,57,57,51,1,,,,,,,,,,,,,,,,,,,,,,,,,,,,
,,,,,WIN24_071,21,F,2024-02-23_14h43.35.257,jersey_experiment_5,2023.2.2,Win32,84.74576271,,,,,,,,,,,,,,,,993.9279,995.2219,995.2219,997.5631,return,0.5789,,84.63541667,,,,,,FBP-RB-18.png,0.45,1.2,25,0.5,,,,,,,,,,,,,0,58,58,24,1,,,,,,,,,,,,,,,,,,,,,,,,,,,,
,,,,,WIN24_071,21,F,2024-02-23_14h43.35.257,jersey_experiment_5,2023.2.2,Win32,84.74576271,,,,,,,,,,,,,,,,997.5634,998.8573,998.8573,1001.2574,return,1.6872,,65.49479167,,,,,,FBP-YG-81.png,0.4,1.2,38,0.5,,,,,,,,,,,,,0,59,59,37,1,,,,,,,,,,,,,,,,,,,,,,,,,,,,
,,,,,WIN24_071,21,F,2024-02-23_14h43.35.257,jersey_experiment_5,2023.2.2,Win32,84.74576271,,,,,,,,,,,,,,,,1001.2594,1002.5515,1002.5515,1005.8811,return,0.0994,,54.6875,,,,,,FBP-RB-81.png,0.35,1.2,21,0.5,,,,,,,,,,,,,,,,,,0,0,0,20,1,,,,,,,,,,,,,,,,,,,,,,,
,,,,,WIN24_071,21,F,2024-02-23_14h43.35.257,jersey_experiment_5,2023.2.2,Win32,84.74576271,,,,,,,,,,,,,,,,1005.8813,1007.1754,1007.1754,1008.8106,return,0.1684,,81.38020833,,,,,,FBP-YG-19.png,0.45,1.2,45,0.5,,,,,,,,,,,,,,,,,,0,1,1,44,1,,,,,,,,,,,,,,,,,,,,,,,
,,,,,WIN24_071,21,F,2024-02-23_14h43.35.257,jersey_experiment_5,2023.2.2,Win32,84.74576271,,,,,,,,,,,,,,,,1008.8108,1010.6107,1010.6107,1012.1285,return,0.3175,,74.609375,,,,,,FBP-PT-91.png,0.43,1.2,59,1,,,,,,,,,,,,,,,,,,0,2,2,58,1,,,,,,,,,,,,,,,,,,,,,,,
,,,,,WIN24_071,21,F,2024-02-23_14h43.35.257,jersey_experiment_5,2023.2.2,Win32,84.74576271,,,,,,,,,,,,,,,,1012.129,1013.4229,1013.4229,1016.6346,return,1.0739,,59.63541667,,,,,,FBP-YG-18.png,0.37,1.2,37,0.5,,,,,,,,,,,,,,,,,,0,3,3,36,1,,,,,,,,,,,,,,,,,,,,,,,
,,,,,WIN24_071,21,F,2024-02-23_14h43.35.257,jersey_experiment_5,2023.2.2,Win32,84.74576271,,,,,,,,,,,,,,,,1016.6349,1018.4345,1018.4345,1020.4582,return,0.9547,,45.83333333,,,,,,FBP-OG-18.png,0.35,1.2,6,1,,,,,,,,,,,,,,,,,,0,4,4,5,1,,,,,,,,,,,,,,,,,,,,,,,
,,,,,WIN24_071,21,F,2024-02-23_14h43.35.257,jersey_experiment_5,2023.2.2,Win32,84.74576271,,,,,,,,,,,,,,,,1020.4585,1022.2583,1022.2583,1024.7524,return,0.7646,,74.609375,,,,,,FBP-OG-19.png,0.43,1.2,14,1,,,,,,,,,,,,,,,,,,0,5,5,13,1,,,,,,,,,,,,,,,,,,,,,,,
,,,,,WIN24_071,21,F,2024-02-23_14h43.35.257,jersey_experiment_5,2023.2.2,Win32,84.74576271,,,,,,,,,,,,,,,,1024.7526,1026.5524,1026.5524,1027.1761,return,0.1708,,74.86979167,,,,,,FBP-OG-18.png,0.43,1.2,9,1,,,,,,,,,,,,,,,,,,0,6,6,8,1,,,,,,,,,,,,,,,,,,,,,,,
,,,,,WIN24_071,21,F,2024-02-23_14h43.35.257,jersey_experiment_5,2023.2.2,Win32,84.74576271,,,,,,,,,,,,,,,,1027.1763,1028.976,1028.976,1030.3291,return,0.2854,,83.72395833,,,,,,FBP-OG-18.png,0.45,1.2,10,1,,,,,,,,,,,,,,,,,,0,7,7,9,1,,,,,,,,,,,,,,,,,,,,,,,
,,,,,WIN24_071,21,F,2024-02-23_14h43.35.257,jersey_experiment_5,2023.2.2,Win32,84.74576271,,,,,,,,,,,,,,,,1030.3293,1031.6232,1031.6232,1033.9764,return,0.2762,,70.3125,,,,,,FBP-RB-71.png,0.37,1.2,17,0.5,,,,,,,,,,,,,,,,,,0,8,8,16,1,,,,,,,,,,,,,,,,,,,,,,,
,,,,,WIN24_071,21,F,2024-02-23_14h43.35.257,jersey_experiment_5,2023.2.2,Win32,84.74576271,,,,,,,,,,,,,,,,1033.9771,1035.7766,1035.7766,1038.7177,return,0.236,,46.61458333,,,,,,FBP-PT-81.png,0.35,1.2,51,1,,,,,,,,,,,,,,,,,,0,9,9,50,1,,,,,,,,,,,,,,,,,,,,,,,
,,,,,WIN24_071,21,F,2024-02-23_14h43.35.257,jersey_experiment_5,2023.2.2,Win32,84.74576271,,,,,,,,,,,,,,,,1038.718,1040.0118,1040.0118,1044.0003,return,1.103,,51.69270833,,,,,,FBP-RB-91.png,0.35,1.2,26,0.5,,,,,,,,,,,,,,,,,,0,10,10,25,1,,,,,,,,,,,,,,,,,,,,,,,
,,,,,WIN24_071,21,F,2024-02-23_14h43.35.257,jersey_experiment_5,2023.2.2,Win32,84.74576271,,,,,,,,,,,,,,,,1044.0005,1045.8003,1045.8003,1047.8004,return,0.759,,69.79166667,,,,,,FBP-PT-71.png,0.43,1.2,49,1,,,,,,,,,,,,,,,,,,0,11,11,48,1,,,,,,,,,,,,,,,,,,,,,,,
,,,,,WIN24_071,21,F,2024-02-23_14h43.35.257,jersey_experiment_5,2023.2.2,Win32,84.74576271,,,,,,,,,,,,,,,,1047.8006,1049.0944,1049.0944,1051.0475,return,0.2186,,66.015625,,,,,,FBP-YG-19.png,0.43,1.2,44,0.5,,,,,,,,,,,,,,,,,,0,12,12,43,1,,,,,,,,,,,,,,,,,,,,,,,
,,,,,WIN24_071,21,F,2024-02-23_14h43.35.257,jersey_experiment_5,2023.2.2,Win32,84.74576271,,,,,,,,,,,,,,,,1051.0476,1052.3416,1052.3416,1054.5652,return,0.0208,,58.85416667,,,,,,FBP-YG-17.png,0.4,1.2,33,0.5,,,,,,,,,,,,,,,,,,0,13,13,32,1,,,,,,,,,,,,,,,,,,,,,,,
,,,,,WIN24_071,21,F,2024-02-23_14h43.35.257,jersey_experiment_5,2023.2.2,Win32,84.74576271,,,,,,,,,,,,,,,,1054.5654,1056.3655,1056.3655,1058.8596,return,0.2262,,74.73958333,,,,,,FBP-PT-81.png,0.45,1.2,55,1,,,,,,,,,,,,,,,,,,0,14,14,54,1,,,,,,,,,,,,,,,,,,,,,,,
,,,,,WIN24_071,21,F,2024-02-23_14h43.35.257,jersey_experiment_5,2023.2.2,Win32,84.74576271,,,,,,,,,,,,,,,,1058.8598,1060.1537,1060.1537,1061.5187,return,0.2588,,80.33854167,,,,,,FBP-YG-17.png,0.45,1.2,35,0.5,,,,,,,,,,,,,,,,,,0,15,15,34,1,,,,,,,,,,,,,,,,,,,,,,,
,,,,,WIN24_071,21,F,2024-02-23_14h43.35.257,jersey_experiment_5,2023.2.2,Win32,84.74576271,,,,,,,,,,,,,,,,1061.5191,1062.8127,1062.8127,1065.8245,return,0.1178,,50.13020833,,,,,,FBP-RB-91.png,0.37,1.2,27,0.5,,,,,,,,,,,,,,,,,,0,16,16,26,1,,,,,,,,,,,,,,,,,,,,,,,
,,,,,WIN24_071,21,F,2024-02-23_14h43.35.257,jersey_experiment_5,2023.2.2,Win32,84.74576271,,,,,,,,,,,,,,,,1065.8247,1067.1188,1067.1188,1069.0716,return,0.2473,,47.39583333,,,,,,FBP-YG-18.png,0.35,1.2,36,0.5,,,,,,,,,,,,,,,,,,0,17,17,35,1,,,,,,,,,,,,,,,,,,,,,,,
,,,,,WIN24_071,21,F,2024-02-23_14h43.35.257,jersey_experiment_5,2023.2.2,Win32,84.74576271,,,,,,,,,,,,,,,,1069.072,1070.366,1070.366,1072.1896,return,0.0684,,41.40625,,,,,,FBP-YG-17.png,0.35,1.2,31,0.5,,,,,,,,,,,,,,,,,,0,18,18,30,1,,,,,,,,,,,,,,,,,,,,,,,
,,,,,WIN24_071,21,F,2024-02-23_14h43.35.257,jersey_experiment_5,2023.2.2,Win32,84.74576271,,,,,,,,,,,,,,,,1072.1899,1073.4839,1073.4839,1075.872,return,0.2237,,59.765625,,,,,,FBP-RB-81.png,0.4,1.2,23,0.5,,,,,,,,,,,,,,,,,,0,19,19,22,1,,,,,,,,,,,,,,,,,,,,,,,
,,,,,WIN24_071,21,F,2024-02-23_14h43.35.257,jersey_experiment_5,2023.2.2,Win32,84.74576271,,,,,,,,,,,,,,,,1075.8725,1077.6724,1077.6724,1078.7309,return,0.1181,,35.9375,,,,,,FBP-OG-17.png,0.35,1.2,1,1,,,,,,,,,,,,,,,,,,0,20,20,0,1,,,,,,,,,,,,,,,,,,,,,,,
,,,,,WIN24_071,21,F,2024-02-23_14h43.35.257,jersey_experiment_5,2023.2.2,Win32,84.74576271,,,,,,,,,,,,,,,,1078.7311,1080.0251,1080.0251,1085.1664,return,3.483,,64.84375,,,,,,FBP-YG-19.png,0.4,1.2,43,0.5,,,,,,,,,,,,,,,,,,0,21,21,42,1,,,,,,,,,,,,,,,,,,,,,,,
,,,,,WIN24_071,21,F,2024-02-23_14h43.35.257,jersey_experiment_5,2023.2.2,Win32,84.74576271,,,,,,,,,,,,,,,,1085.1668,1086.9666,1086.9667,1088.1548,return,0.0974,,49.86979167,,,,,,FBP-PT-71.png,0.35,1.2,46,1,,,,,,,,,,,,,,,,,,0,22,22,45,1,,,,,,,,,,,,,,,,,,,,,,,
,,,,,WIN24_071,21,F,2024-02-23_14h43.35.257,jersey_experiment_5,2023.2.2,Win32,84.74576271,,,,,,,,,,,,,,,,1088.155,1089.9549,1089.9549,1090.6137,return,0.2206,,49.86979167,,,,,,FBP-OG-19.png,0.37,1.2,12,1,,,,,,,,,,,,,,,,,,0,23,23,11,1,,,,,,,,,,,,,,,,,,,,,,,
,,,,,WIN24_071,21,F,2024-02-23_14h43.35.257,jersey_experiment_5,2023.2.2,Win32,84.74576271,,,,,,,,,,,,,,,,1090.6139,1091.9078,1091.9078,1093.7198,return,0.4421,,77.99479167,,,,,,FBP-RB-71.png,0.45,1.2,20,0.5,,,,,,,,,,,,,,,,,,0,24,24,19,1,,,,,,,,,,,,,,,,,,,,,,,
,,,,,WIN24_071,21,F,2024-02-23_14h43.35.257,jersey_experiment_5,2023.2.2,Win32,84.74576271,,,,,,,,,,,,,,,,1093.7202,1095.5199,1095.52,1096.6375,return,0.2028,,79.6875,,,,,,FBP-OG-17.png,0.45,1.2,5,1,,,,,,,,,,,,,,,,,,0,25,25,4,1,,,,,,,,,,,,,,,,,,,,,,,
,,,,,WIN24_071,21,F,2024-02-23_14h43.35.257,jersey_experiment_5,2023.2.2,Win32,84.74576271,,,,,,,,,,,,,,,,1096.6378,1097.9317,1097.9317,1101.6964,return,0.1417,,50.13020833,,,,,,FBP-RB-71.png,0.35,1.2,16,0.5,,,,,,,,,,,,,,,,,,0,26,26,15,1,,,,,,,,,,,,,,,,,,,,,,,
,,,,,WIN24_071,21,F,2024-02-23_14h43.35.257,jersey_experiment_5,2023.2.2,Win32,84.74576271,,,,,,,,,,,,,,,,1101.6967,1103.4965,1103.4965,1106.7908,return,0.181,,77.34375,,,,,,FBP-OG-19.png,0.45,1.2,15,1,,,,,,,,,,,,,,,,,,0,27,27,14,1,,,,,,,,,,,,,,,,,,,,,,,
,,,,,WIN24_071,21,F,2024-02-23_14h43.35.257,jersey_experiment_5,2023.2.2,Win32,84.74576271,,,,,,,,,,,,,,,,1106.7911,1108.591,1108.591,1112.2381,return,1.765,,58.984375,,,,,,FBP-PT-81.png,0.37,1.2,52,1,,,,,,,,,,,,,,,,,,0,28,28,51,1,,,,,,,,,,,,,,,,,,,,,,,
,,,,,WIN24_071,21,F,2024-02-23_14h43.35.257,jersey_experiment_5,2023.2.2,Win32,84.74576271,,,,,,,,,,,,,,,,1112.2385,1114.0381,1114.0382,1119.003,return,0.2153,,77.99479167,,,,,,FBP-PT-91.png,0.45,1.2,60,1,,,,,,,,,,,,,,,,,,0,29,29,59,1,,,,,,,,,,,,,,,,,,,,,,,
,,,,,WIN24_071,21,F,2024-02-23_14h43.35.257,jersey_experiment_5,2023.2.2,Win32,84.74576271,,,,,,,,,,,,,,,,1119.0033,1120.2971,1120.2972,1123.9326,return,0.4487,,76.82291667,,,,,,FBP-RB-71.png,0.43,1.2,19,0.5,,,,,,,,,,,,,,,,,,0,30,30,18,1,,,,,,,,,,,,,,,,,,,,,,,
,,,,,WIN24_071,21,F,2024-02-23_14h43.35.257,jersey_experiment_5,2023.2.2,Win32,84.74576271,,,,,,,,,,,,,,,,1123.9329,1125.227,1125.227,1127.321,return,0.1916,,66.14583333,,,,,,FBP-YG-18.png,0.4,1.2,38,0.5,,,,,,,,,,,,,,,,,,0,31,31,37,1,,,,,,,,,,,,,,,,,,,,,,,
,,,,,WIN24_071,21,F,2024-02-23_14h43.35.257,jersey_experiment_5,2023.2.2,Win32,84.74576271,,,,,,,,,,,,,,,,1127.3213,1129.1208,1129.1208,1130.6857,return,0.1062,,78.38541667,,,,,,FBP-PT-71.png,0.45,1.2,50,1,,,,,,,,,,,,,,,,,,0,32,32,49,1,,,,,,,,,,,,,,,,,,,,,,,
,,,,,WIN24_071,21,F,2024-02-23_14h43.35.257,jersey_experiment_5,2023.2.2,Win32,84.74576271,,,,,,,,,,,,,,,,1130.686,1132.486,1132.486,1136.2626,return,2.593,,45.96354167,,,,,,FBP-OG-18.png,0.37,1.2,7,1,,,,,,,,,,,,,,,,,,0,33,33,6,1,,,,,,,,,,,,,,,,,,,,,,,
,,,,,WIN24_071,21,F,2024-02-23_14h43.35.257,jersey_experiment_5,2023.2.2,Win32,84.74576271,,,,,,,,,,,,,,,,1136.2628,1138.0626,1138.0626,1139.3684,return,0.0882,,55.078125,,,,,,FBP-PT-91.png,0.4,1.2,58,1,,,,,,,,,,,,,,,,,,0,34,34,57,1,,,,,,,,,,,,,,,,,,,,,,,
,,,,,WIN24_071,21,F,2024-02-23_14h43.35.257,jersey_experiment_5,2023.2.2,Win32,84.74576271,,,,,,,,,,,,,,,,1139.3687,1141.1687,1141.1687,1147.8982,return,0.484,,51.171875,,,,,,FBP-OG-17.png,0.4,1.2,3,1,,,,,,,,,,,,,,,,,,0,35,35,2,1,,,,,,,,,,,,,,,,,,,,,,,
,,,,,WIN24_071,21,F,2024-02-23_14h43.35.257,jersey_experiment_5,2023.2.2,Win32,84.74576271,,,,,,,,,,,,,,,,1147.8984,1149.1924,1149.1924,1150.7806,return,0.0485,,45.83333333,,,,,,FBP-YG-17.png,0.37,1.2,32,0.5,,,,,,,,,,,,,,,,,,0,36,36,31,1,,,,,,,,,,,,,,,,,,,,,,,
,,,,,WIN24_071,21,F,2024-02-23_14h43.35.257,jersey_experiment_5,2023.2.2,Win32,84.74576271,,,,,,,,,,,,,,,,1150.7808,1152.0748,1152.0748,1154.0748,return,0.062,,66.40625,,,,,,FBP-RB-81.png,0.43,1.2,24,0.5,,,,,,,,,,,,,,,,,,0,37,37,23,1,,,,,,,,,,,,,,,,,,,,,,,
,,,,,WIN24_071,21,F,2024-02-23_14h43.35.257,jersey_experiment_5,2023.2.2,Win32,84.74576271,,,,,,,,,,,,,,,,1154.075,1155.3691,1155.3691,1159.3341,return,0.0315,,71.484375,,,,,,FBP-RB-91.png,0.43,1.2,29,0.5,,,,,,,,,,,,,,,,,,0,38,38,28,1,,,,,,,,,,,,,,,,,,,,,,,
,,,,,WIN24_071,21,F,2024-02-23_14h43.35.257,jersey_experiment_5,2023.2.2,Win32,84.74576271,,,,,,,,,,,,,,,,1159.3346,1161.1338,1161.1338,1162.028,return,0.2845,,71.22395833,,,,,,FBP-PT-71.png,0.4,1.2,48,1,,,,,,,,,,,,,,,,,,0,39,39,47,1,,,,,,,,,,,,,,,,,,,,,,,
,,,,,WIN24_071,21,F,2024-02-23_14h43.35.257,jersey_experiment_5,2023.2.2,Win32,84.74576271,,,,,,,,,,,,,,,,1162.0282,1163.3224,1163.3224,1165.1341,return,0.1886,,77.99479167,,,,,,FBP-RB-81.png,0.45,1.2,25,0.5,,,,,,,,,,,,,,,,,,0,40,40,24,1,,,,,,,,,,,,,,,,,,,,,,,
,,,,,WIN24_071,21,F,2024-02-23_14h43.35.257,jersey_experiment_5,2023.2.2,Win32,84.74576271,,,,,,,,,,,,,,,,1165.1344,1166.9341,1166.9341,1170.358,return,0.3376,,54.296875,,,,,,FBP-PT-91.png,0.37,1.2,57,1,,,,,,,,,,,,,,,,,,0,41,41,56,1,,,,,,,,,,,,,,,,,,,,,,,
,,,,,WIN24_071,21,F,2024-02-23_14h43.35.257,jersey_experiment_5,2023.2.2,Win32,84.74576271,,,,,,,,,,,,,,,,1170.3585,1172.1579,1172.1579,1173.4167,return,0.0261,,48.046875,,,,,,FBP-OG-19.png,0.35,1.2,11,1,,,,,,,,,,,,,,,,,,0,42,42,10,1,,,,,,,,,,,,,,,,,,,,,,,
,,,,,WIN24_071,21,F,2024-02-23_14h43.35.257,jersey_experiment_5,2023.2.2,Win32,84.74576271,,,,,,,,,,,,,,,,1173.417,1174.711,1174.711,1176.4051,return,0.2328,,90.625,,,,,,FBP-RB-91.png,0.45,1.2,30,0.5,,,,,,,,,,,,,,,,,,0,43,43,29,1,,,,,,,,,,,,,,,,,,,,,,,
,,,,,WIN24_071,21,F,2024-02-23_14h43.35.257,jersey_experiment_5,2023.2.2,Win32,84.74576271,,,,,,,,,,,,,,,,1176.4054,1177.6992,1177.6992,1180.3464,return,0.4861,,66.66666667,,,,,,FBP-RB-71.png,0.4,1.2,18,0.5,,,,,,,,,,,,,,,,,,0,44,44,17,1,,,,,,,,,,,,,,,,,,,,,,,
,,,,,WIN24_071,21,F,2024-02-23_14h43.35.257,jersey_experiment_5,2023.2.2,Win32,84.74576271,,,,,,,,,,,,,,,,1180.3468,1181.6406,1181.6406,1183.6408,return,0.2289,,78.125,,,,,,FBP-YG-17.png,0.43,1.2,34,0.5,,,,,,,,,,,,,,,,,,0,45,45,33,1,,,,,,,,,,,,,,,,,,,,,,,
,,,,,WIN24_071,21,F,2024-02-23_14h43.35.257,jersey_experiment_5,2023.2.2,Win32,84.74576271,,,,,,,,,,,,,,,,1183.6414,1185.4408,1185.4408,1187.4175,return,0.3226,,66.53645833,,,,,,FBP-OG-18.png,0.4,1.2,8,1,,,,,,,,,,,,,,,,,,0,46,46,7,1,,,,,,,,,,,,,,,,,,,,,,,
,,,,,WIN24_071,21,F,2024-02-23_14h43.35.257,jersey_experiment_5,2023.2.2,Win32,84.74576271,,,,,,,,,,,,,,,,1187.4181,1189.2174,1189.2175,1191.7821,return,0.1965,,57.68229167,,,,,,FBP-OG-19.png,0.4,1.2,13,1,,,,,,,,,,,,,,,,,,0,47,47,12,1,,,,,,,,,,,,,,,,,,,,,,,
,,,,,WIN24_071,21,F,2024-02-23_14h43.35.257,jersey_experiment_5,2023.2.2,Win32,84.74576271,,,,,,,,,,,,,,,,1191.7824,1193.0763,1193.0763,1195.2412,return,0.2285,,78.38541667,,,,,,FBP-YG-18.png,0.43,1.2,39,0.5,,,,,,,,,,,,,,,,,,0,48,48,38,1,,,,,,,,,,,,,,,,,,,,,,,
,,,,,WIN24_071,21,F,2024-02-23_14h43.35.257,jersey_experiment_5,2023.2.2,Win32,84.74576271,,,,,,,,,,,,,,,,1195.2415,1197.0412,1197.0412,1201.9589,return,1.2424,,68.359375,,,,,,FBP-PT-81.png,0.4,1.2,53,1,,,,,,,,,,,,,,,,,,0,49,49,52,1,,,,,,,,,,,,,,,,,,,,,,,
,,,,,WIN24_071,21,F,2024-02-23_14h43.35.257,jersey_experiment_5,2023.2.2,Win32,84.74576271,,,,,,,,,,,,,,,,1201.9592,1203.2531,1203.2531,1207.3828,return,0.8302,,72.39583333,,,,,,FBP-RB-91.png,0.4,1.2,28,0.5,,,,,,,,,,,,,,,,,,0,50,50,27,1,,,,,,,,,,,,,,,,,,,,,,,
,,,,,WIN24_071,21,F,2024-02-23_14h43.35.257,jersey_experiment_5,2023.2.2,Win32,84.74576271,,,,,,,,,,,,,,,,1207.383,1208.6768,1208.6768,1212.7829,return,2.2909,,51.5625,,,,,,FBP-YG-19.png,0.35,1.2,41,0.5,,,,,,,,,,,,,,,,,,0,51,51,40,1,,,,,,,,,,,,,,,,,,,,,,,
,,,,,WIN24_071,21,F,2024-02-23_14h43.35.257,jersey_experiment_5,2023.2.2,Win32,84.74576271,,,,,,,,,,,,,,,,1212.7832,1214.5832,1214.5833,1215.9359,return,0.2587,,55.59895833,,,,,,FBP-OG-17.png,0.37,1.2,2,1,,,,,,,,,,,,,,,,,,0,52,52,1,1,,,,,,,,,,,,,,,,,,,,,,,
,,,,,WIN24_071,21,F,2024-02-23_14h43.35.257,jersey_experiment_5,2023.2.2,Win32,84.74576271,,,,,,,,,,,,,,,,1215.9363,1217.7361,1217.7361,1218.4772,return,0.2362,,55.59895833,,,,,,FBP-PT-71.png,0.37,1.2,47,1,,,,,,,,,,,,,,,,,,0,53,53,46,1,,,,,,,,,,,,,,,,,,,,,,,
,,,,,WIN24_071,21,F,2024-02-23_14h43.35.257,jersey_experiment_5,2023.2.2,Win32,84.74576271,,,,,,,,,,,,,,,,1218.4775,1220.2774,1220.2774,1222.2069,return,0.4595,,55.59895833,,,,,,FBP-PT-91.png,0.35,1.2,56,1,,,,,,,,,,,,,,,,,,0,54,54,55,1,,,,,,,,,,,,,,,,,,,,,,,
,,,,,WIN24_071,21,F,2024-02-23_14h43.35.257,jersey_experiment_5,2023.2.2,Win32,84.74576271,,,,,,,,,,,,,,,,1222.2071,1223.501,1223.5011,1225.5481,return,0.188,,60.02604167,,,,,,FBP-YG-19.png,0.37,1.2,42,0.5,,,,,,,,,,,,,,,,,,0,55,55,41,1,,,,,,,,,,,,,,,,,,,,,,,
,,,,,WIN24_071,21,F,2024-02-23_14h43.35.257,jersey_experiment_5,2023.2.2,Win32,84.74576271,,,,,,,,,,,,,,,,1225.5484,1227.3481,1227.3481,1231.0778,return,0.1728,,78.90625,,,,,,FBP-PT-81.png,0.43,1.2,54,1,,,,,,,,,,,,,,,,,,0,56,56,53,1,,,,,,,,,,,,,,,,,,,,,,,
,,,,,WIN24_071,21,F,2024-02-23_14h43.35.257,jersey_experiment_5,2023.2.2,Win32,84.74576271,,,,,,,,,,,,,,,,1231.0783,1232.372,1232.372,1234.4072,return,1.0188,,83.07291667,,,,,,FBP-YG-18.png,0.45,1.2,40,0.5,,,,,,,,,,,,,,,,,,0,57,57,39,1,,,,,,,,,,,,,,,,,,,,,,,
,,,,,WIN24_071,21,F,2024-02-23_14h43.35.257,jersey_experiment_5,2023.2.2,Win32,84.74576271,,,,,,,,,,,,,,,,1234.4075,1235.7013,1235.7013,1238.878,return,0.1768,,66.27604167,,,,,,FBP-RB-81.png,0.37,1.2,22,0.5,,,,,,,,,,,,,,,,,,0,58,58,21,1,,,,,,,,,,,,,,,,,,,,,,,
,,,,,WIN24_071,21,F,2024-02-23_14h43.35.257,jersey_experiment_5,2023.2.2,Win32,84.74576271,,,,,,,,,,,,,,,,1238.8784,1240.678,1240.678,1243.2311,return,0.2586,,73.4375,,,,,,FBP-OG-17.png,0.43,1.2,4,1,,,,,,,,,,,,,,,,,,0,59,59,3,1,,,,,,,,,,,,,,,,,,,,,,,
,,,,,WIN24_071,21,F,2024-02-23_14h43.35.257,jersey_experiment_5,2023.2.2,Win32,84.74576271,,,,,,,,,,,,,,,,,,,,,,,,,,,,,,,,,,,,,,,,,,,,,,,,,,,,,,,,1243.232,1248.9026,return,5.6642,,,,,,,,,,,,,,,,,,,
,,,,,WIN24_071,21,F,2024-02-23_14h43.35.257,jersey_experiment_5,2023.2.2,Win32,84.74576271,,,,,,,,,,,,,,,,,,,,,,,,,,,,,,,,,,,,,,,,,,,,,,,,,,,,,,,,,,,,,1248.9028,1252.4232,1,2.3244,return,1.1765,,,,,,,,,,,,
,,,,,WIN24_071,21,F,2024-02-23_14h43.35.257,jersey_experiment_5,2023.2.2,Win32,84.74576271,,,,,,,,,,,,,,,,,,,,,,,,,,,,,,,,,,,,,,,,,,,,,,,,,,,,,,,,,,,,,,,,,,,,1252.4233,1353.0875,"Is it that we are determining the effect of the color we wear on how husky we perceive someone as, and if this changes with skin color?",right,94.0747,,,,,,
,,,,,WIN24_071,21,F,2024-02-23_14h43.35.257,jersey_experiment_5,2023.2.2,Win32,84.74576271,,,,,,,,,,,,,,,,,,,,,,,,,,,,,,,,,,,,,,,,,,,,,,,,,,,,,,,,,,,,,,,,,,,,,,,,,,1353.0875,1358.365,return,5.2598,