requirements.started,requirements.stopped,key_resp_3.keys,key_resp_3.rt,key_resp_3.duration,Subject ID,Age,Gender,date,expName,psychopyVersion,OS,frameRate,instructions1.started,instructions1.stopped,key_resp.keys,key_resp.rt,key_resp.duration,example.started,example.stopped,enter_2.keys,enter_2.rt,enter_2.duration,instructions2.started,instructions2.stopped,enter_3.keys,enter_3.rt,enter_3.duration,image.started,image.stopped,slider_2.started,slider_2.stopped,next.keys,next.rt,next.duration,slider.response,trial_block_1.thisRepN,trial_block_1.thisTrialN,trial_block_1.thisN,trial_block_1.thisIndex,trial_block_1.ran,Path,Width,Height,Index,Duration,trial_block_2.thisRepN,trial_block_2.thisTrialN,trial_block_2.thisN,trial_block_2.thisIndex,trial_block_2.ran,rest_break.started,rest_break.stopped,end_break.started,end_break.stopped,key_resp_5.keys,key_resp_5.rt,key_resp_5.duration,trial_block_3.thisRepN,trial_block_3.thisTrialN,trial_block_3.thisN,trial_block_3.thisIndex,trial_block_3.ran,trial_block_4.thisRepN,trial_block_4.thisTrialN,trial_block_4.thisN,trial_block_4.thisIndex,trial_block_4.ran,questions_intro.started,questions_intro.stopped,enter_12.keys,enter_12.rt,enter_12.duration,question2.started,question2.stopped,question_doingbest.response,question_doingbest.rt,enter_15.keys,enter_15.rt,enter_15.duration,pattern.started,pattern.stopped,pattern_2.text,enter_17.keys,enter_17.rt,enter_17.duration,thankyou.started,thankyou.stopped,enter_14.keys,enter_14.rt,enter_14.duration
0.0002,5.7686,return,5.7564,,WIN24_069,21,Male,2024-02-23_11h30.45.089,jersey_experiment_5,2023.2.2,Win32,84.74576271,,,,,,,,,,,,,,,,,,,,,,,,,,,,,,,,,,,,,,,,,,,,,,,,,,,,,,,,,,,,,,,,,,,,,,,,,,,,,,
,,,,,WIN24_069,21,Male,2024-02-23_11h30.45.089,jersey_experiment_5,2023.2.2,Win32,84.74576271,5.7686,11.204,return,5.4169,,,,,,,,,,,,,,,,,,,,,,,,,,,,,,,,,,,,,,,,,,,,,,,,,,,,,,,,,,,,,,,,,,,,,,,,,,
,,,,,WIN24_069,21,Male,2024-02-23_11h30.45.089,jersey_experiment_5,2023.2.2,Win32,84.74576271,,,,,,11.2042,13.5131,return,2.2745,,,,,,,,,,,,,,,,,,,,,,,,,,,,,,,,,,,,,,,,,,,,,,,,,,,,,,,,,,,,,,,,,,,,,
,,,,,WIN24_069,21,Male,2024-02-23_11h30.45.089,jersey_experiment_5,2023.2.2,Win32,84.74576271,,,,,,,,,,,13.5132,22.9456,return,9.4194,,,,,,,,,,,,,,,,,,,,,,,,,,,,,,,,,,,,,,,,,,,,,,,,,,,,,,,,,,,,,,,,
,,,,,WIN24_069,21,Male,2024-02-23_11h30.45.089,jersey_experiment_5,2023.2.2,Win32,84.74576271,,,,,,,,,,,,,,,,22.9529,24.7482,24.7482,33.5105,return,1.3093,,50.26041667,0,0,0,32,1,FBP-YG-71.png,0.4,1.2,33,1,,,,,,,,,,,,,,,,,,,,,,,,,,,,,,,,,,,,,,,,,,,,,
,,,,,WIN24_069,21,Male,2024-02-23_11h30.45.089,jersey_experiment_5,2023.2.2,Win32,84.74576271,,,,,,,,,,,,,,,,33.5109,34.8045,34.8046,38.04,return,0.9658,,74.47916667,0,1,1,52,1,FBP-PT-18.png,0.4,1.2,53,0.5,,,,,,,,,,,,,,,,,,,,,,,,,,,,,,,,,,,,,,,,,,,,,
,,,,,WIN24_069,21,Male,2024-02-23_11h30.45.089,jersey_experiment_5,2023.2.2,Win32,84.74576271,,,,,,,,,,,,,,,,38.0402,39.8401,39.8401,44.0991,return,2.357,,49.86979167,0,2,2,22,1,FBP-RB-18.png,0.4,1.2,23,1,,,,,,,,,,,,,,,,,,,,,,,,,,,,,,,,,,,,,,,,,,,,,
,,,,,WIN24_069,21,Male,2024-02-23_11h30.45.089,jersey_experiment_5,2023.2.2,Win32,84.74576271,,,,,,,,,,,,,,,,44.1033,45.8994,45.8994,53.3346,return,6.4845,,27.47395833,0,3,3,40,1,FBP-YG-91.png,0.35,1.2,41,1,,,,,,,,,,,,,,,,,,,,,,,,,,,,,,,,,,,,,,,,,,,,,
,,,,,WIN24_069,21,Male,2024-02-23_11h30.45.089,jersey_experiment_5,2023.2.2,Win32,84.74576271,,,,,,,,,,,,,,,,53.3349,55.1348,55.1348,57.8171,return,1.5528,,67.05729167,0,4,4,18,1,FBP-RB-17.png,0.43,1.2,19,1,,,,,,,,,,,,,,,,,,,,,,,,,,,,,,,,,,,,,,,,,,,,,
,,,,,WIN24_069,21,Male,2024-02-23_11h30.45.089,jersey_experiment_5,2023.2.2,Win32,84.74576271,,,,,,,,,,,,,,,,57.8175,59.6173,59.6173,61.3233,return,0.6265,,52.734375,0,5,5,31,1,FBP-YG-71.png,0.37,1.2,32,1,,,,,,,,,,,,,,,,,,,,,,,,,,,,,,,,,,,,,,,,,,,,,
,,,,,WIN24_069,21,Male,2024-02-23_11h30.45.089,jersey_experiment_5,2023.2.2,Win32,84.74576271,,,,,,,,,,,,,,,,61.3235,62.6175,62.6175,65.3705,return,1.5192,,57.94270833,0,6,6,57,1,FBP-PT-19.png,0.4,1.2,58,0.5,,,,,,,,,,,,,,,,,,,,,,,,,,,,,,,,,,,,,,,,,,,,,
,,,,,WIN24_069,21,Male,2024-02-23_11h30.45.089,jersey_experiment_5,2023.2.2,Win32,84.74576271,,,,,,,,,,,,,,,,65.3708,66.6645,66.6645,68.7472,return,0.7864,,50.26041667,0,7,7,11,1,FBP-OG-91.png,0.37,1.2,12,0.5,,,,,,,,,,,,,,,,,,,,,,,,,,,,,,,,,,,,,,,,,,,,,
,,,,,WIN24_069,21,Male,2024-02-23_11h30.45.089,jersey_experiment_5,2023.2.2,Win32,84.74576271,,,,,,,,,,,,,,,,68.7477,70.5471,70.5471,72.4413,return,0.8583,,69.27083333,0,8,8,43,1,FBP-YG-91.png,0.43,1.2,44,1,,,,,,,,,,,,,,,,,,,,,,,,,,,,,,,,,,,,,,,,,,,,,
,,,,,WIN24_069,21,Male,2024-02-23_11h30.45.089,jersey_experiment_5,2023.2.2,Win32,84.74576271,,,,,,,,,,,,,,,,72.4419,73.7354,73.7354,76.8531,return,0.686,,38.28125,0,9,9,0,1,FBP-OG-71.png,0.35,1.2,1,0.5,,,,,,,,,,,,,,,,,,,,,,,,,,,,,,,,,,,,,,,,,,,,,
,,,,,WIN24_069,21,Male,2024-02-23_11h30.45.089,jersey_experiment_5,2023.2.2,Win32,84.74576271,,,,,,,,,,,,,,,,76.8533,78.6532,78.6532,81.3006,return,0.7338,,43.48958333,0,10,10,41,1,FBP-YG-91.png,0.37,1.2,42,1,,,,,,,,,,,,,,,,,,,,,,,,,,,,,,,,,,,,,,,,,,,,,
,,,,,WIN24_069,21,Male,2024-02-23_11h30.45.089,jersey_experiment_5,2023.2.2,Win32,84.74576271,,,,,,,,,,,,,,,,81.3011,83.1006,83.1006,85.1123,return,0.7774,,81.51041667,0,11,11,34,1,FBP-YG-71.png,0.45,1.2,35,1,,,,,,,,,,,,,,,,,,,,,,,,,,,,,,,,,,,,,,,,,,,,,
,,,,,WIN24_069,21,Male,2024-02-23_11h30.45.089,jersey_experiment_5,2023.2.2,Win32,84.74576271,,,,,,,,,,,,,,,,85.1125,86.9123,86.9123,90.3713,return,2.4412,,68.61979167,0,12,12,42,1,FBP-YG-91.png,0.4,1.2,43,1,,,,,,,,,,,,,,,,,,,,,,,,,,,,,,,,,,,,,,,,,,,,,
,,,,,WIN24_069,21,Male,2024-02-23_11h30.45.089,jersey_experiment_5,2023.2.2,Win32,84.74576271,,,,,,,,,,,,,,,,90.3715,91.6654,91.6654,93.3361,return,0.6831,,87.76041667,0,13,13,59,1,FBP-PT-19.png,0.45,1.2,60,0.5,,,,,,,,,,,,,,,,,,,,,,,,,,,,,,,,,,,,,,,,,,,,,
,,,,,WIN24_069,21,Male,2024-02-23_11h30.45.089,jersey_experiment_5,2023.2.2,Win32,84.74576271,,,,,,,,,,,,,,,,93.3363,95.1363,95.1364,98.1834,return,2.0137,,56.90104167,0,14,14,16,1,FBP-RB-17.png,0.37,1.2,17,1,,,,,,,,,,,,,,,,,,,,,,,,,,,,,,,,,,,,,,,,,,,,,
,,,,,WIN24_069,21,Male,2024-02-23_11h30.45.089,jersey_experiment_5,2023.2.2,Win32,84.74576271,,,,,,,,,,,,,,,,98.1836,99.9836,99.9836,101.4187,return,0.5414,,74.34895833,0,15,15,23,1,FBP-RB-18.png,0.43,1.2,24,1,,,,,,,,,,,,,,,,,,,,,,,,,,,,,,,,,,,,,,,,,,,,,
,,,,,WIN24_069,21,Male,2024-02-23_11h30.45.089,jersey_experiment_5,2023.2.2,Win32,84.74576271,,,,,,,,,,,,,,,,101.419,102.7128,102.7129,106.5248,return,2.5529,,41.53645833,0,16,16,10,1,FBP-OG-91.png,0.35,1.2,11,0.5,,,,,,,,,,,,,,,,,,,,,,,,,,,,,,,,,,,,,,,,,,,,,
,,,,,WIN24_069,21,Male,2024-02-23_11h30.45.089,jersey_experiment_5,2023.2.2,Win32,84.74576271,,,,,,,,,,,,,,,,106.525,107.819,107.8191,109.7957,return,0.6056,,81.77083333,0,17,17,54,1,FBP-PT-18.png,0.45,1.2,55,0.5,,,,,,,,,,,,,,,,,,,,,,,,,,,,,,,,,,,,,,,,,,,,,
,,,,,WIN24_069,21,Male,2024-02-23_11h30.45.089,jersey_experiment_5,2023.2.2,Win32,84.74576271,,,,,,,,,,,,,,,,109.7959,111.0896,111.0896,112.4427,return,0.577,,63.80208333,0,18,18,46,1,FBP-PT-17.png,0.37,1.2,47,0.5,,,,,,,,,,,,,,,,,,,,,,,,,,,,,,,,,,,,,,,,,,,,,
,,,,,WIN24_069,21,Male,2024-02-23_11h30.45.089,jersey_experiment_5,2023.2.2,Win32,84.74576271,,,,,,,,,,,,,,,,112.4429,114.2426,114.2427,116.1371,return,0.589,,48.69791667,0,19,19,30,1,FBP-YG-71.png,0.35,1.2,31,1,,,,,,,,,,,,,,,,,,,,,,,,,,,,,,,,,,,,,,,,,,,,,
,,,,,WIN24_069,21,Male,2024-02-23_11h30.45.089,jersey_experiment_5,2023.2.2,Win32,84.74576271,,,,,,,,,,,,,,,,116.1377,117.9373,117.9373,119.0782,return,0.65,,59.765625,0,20,20,37,1,FBP-YG-81.png,0.4,1.2,38,1,,,,,,,,,,,,,,,,,,,,,,,,,,,,,,,,,,,,,,,,,,,,,
,,,,,WIN24_069,21,Male,2024-02-23_11h30.45.089,jersey_experiment_5,2023.2.2,Win32,84.74576271,,,,,,,,,,,,,,,,119.0784,120.8783,120.8784,123.643,return,1.835,,35.41666667,0,21,21,15,1,FBP-RB-17.png,0.35,1.2,16,1,,,,,,,,,,,,,,,,,,,,,,,,,,,,,,,,,,,,,,,,,,,,,
,,,,,WIN24_069,21,Male,2024-02-23_11h30.45.089,jersey_experiment_5,2023.2.2,Win32,84.74576271,,,,,,,,,,,,,,,,123.6432,124.9374,124.9374,126.9022,return,0.6024,,65.10416667,0,22,22,12,1,FBP-OG-91.png,0.4,1.2,13,0.5,,,,,,,,,,,,,,,,,,,,,,,,,,,,,,,,,,,,,,,,,,,,,
,,,,,WIN24_069,21,Male,2024-02-23_11h30.45.089,jersey_experiment_5,2023.2.2,Win32,84.74576271,,,,,,,,,,,,,,,,126.9027,128.7021,128.7022,129.9257,return,0.6483,,74.73958333,0,23,23,33,1,FBP-YG-71.png,0.43,1.2,34,1,,,,,,,,,,,,,,,,,,,,,,,,,,,,,,,,,,,,,,,,,,,,,
,,,,,WIN24_069,21,Male,2024-02-23_11h30.45.089,jersey_experiment_5,2023.2.2,Win32,84.74576271,,,,,,,,,,,,,,,,129.9261,131.7259,131.7259,134.1848,return,1.1295,,36.97916667,0,24,24,35,1,FBP-YG-81.png,0.35,1.2,36,1,,,,,,,,,,,,,,,,,,,,,,,,,,,,,,,,,,,,,,,,,,,,,
,,,,,WIN24_069,21,Male,2024-02-23_11h30.45.089,jersey_experiment_5,2023.2.2,Win32,84.74576271,,,,,,,,,,,,,,,,134.185,135.4789,135.479,137.1848,return,0.5706,,66.66666667,0,25,25,58,1,FBP-PT-19.png,0.43,1.2,59,0.5,,,,,,,,,,,,,,,,,,,,,,,,,,,,,,,,,,,,,,,,,,,,,
,,,,,WIN24_069,21,Male,2024-02-23_11h30.45.089,jersey_experiment_5,2023.2.2,Win32,84.74576271,,,,,,,,,,,,,,,,137.185,138.4789,138.4789,141.2673,return,2.0531,,62.76041667,0,26,26,2,1,FBP-OG-71.png,0.4,1.2,3,0.5,,,,,,,,,,,,,,,,,,,,,,,,,,,,,,,,,,,,,,,,,,,,,
,,,,,WIN24_069,21,Male,2024-02-23_11h30.45.089,jersey_experiment_5,2023.2.2,Win32,84.74576271,,,,,,,,,,,,,,,,141.2676,142.5614,142.5614,144.1028,return,0.604,,53.64583333,0,27,27,56,1,FBP-PT-19.png,0.37,1.2,57,0.5,,,,,,,,,,,,,,,,,,,,,,,,,,,,,,,,,,,,,,,,,,,,,
,,,,,WIN24_069,21,Male,2024-02-23_11h30.45.089,jersey_experiment_5,2023.2.2,Win32,84.74576271,,,,,,,,,,,,,,,,144.1031,145.397,145.3971,147.4321,return,0.599,,44.40104167,0,28,28,50,1,FBP-PT-18.png,0.35,1.2,51,0.5,,,,,,,,,,,,,,,,,,,,,,,,,,,,,,,,,,,,,,,,,,,,,
,,,,,WIN24_069,21,Male,2024-02-23_11h30.45.089,jersey_experiment_5,2023.2.2,Win32,84.74576271,,,,,,,,,,,,,,,,147.4323,148.7266,148.7266,150.1854,return,0.6592,,68.61979167,0,29,29,8,1,FBP-OG-81.png,0.43,1.2,9,0.5,,,,,,,,,,,,,,,,,,,,,,,,,,,,,,,,,,,,,,,,,,,,,
,,,,,WIN24_069,21,Male,2024-02-23_11h30.45.089,jersey_experiment_5,2023.2.2,Win32,84.74576271,,,,,,,,,,,,,,,,150.1859,151.4795,151.4795,153.7617,return,0.6429,,75.52083333,0,30,30,53,1,FBP-PT-18.png,0.43,1.2,54,0.5,,,,,,,,,,,,,,,,,,,,,,,,,,,,,,,,,,,,,,,,,,,,,
,,,,,WIN24_069,21,Male,2024-02-23_11h30.45.089,jersey_experiment_5,2023.2.2,Win32,84.74576271,,,,,,,,,,,,,,,,153.762,155.0559,155.056,156.5619,return,0.5838,,85.15625,0,31,31,49,1,FBP-PT-17.png,0.45,1.2,50,0.5,,,,,,,,,,,,,,,,,,,,,,,,,,,,,,,,,,,,,,,,,,,,,
,,,,,WIN24_069,21,Male,2024-02-23_11h30.45.089,jersey_experiment_5,2023.2.2,Win32,84.74576271,,,,,,,,,,,,,,,,156.5621,158.3623,158.3623,159.7033,return,0.6021,,79.94791667,0,32,32,28,1,FBP-RB-19.png,0.43,1.2,29,1,,,,,,,,,,,,,,,,,,,,,,,,,,,,,,,,,,,,,,,,,,,,,
,,,,,WIN24_069,21,Male,2024-02-23_11h30.45.089,jersey_experiment_5,2023.2.2,Win32,84.74576271,,,,,,,,,,,,,,,,159.7035,160.9975,160.9975,162.1622,return,0.6049,,80.46875,0,33,33,13,1,FBP-OG-91.png,0.43,1.2,14,0.5,,,,,,,,,,,,,,,,,,,,,,,,,,,,,,,,,,,,,,,,,,,,,
,,,,,WIN24_069,21,Male,2024-02-23_11h30.45.089,jersey_experiment_5,2023.2.2,Win32,84.74576271,,,,,,,,,,,,,,,,162.1624,163.4563,163.4563,164.9506,return,0.5323,,85.9375,0,34,34,9,1,FBP-OG-81.png,0.45,1.2,10,0.5,,,,,,,,,,,,,,,,,,,,,,,,,,,,,,,,,,,,,,,,,,,,,
,,,,,WIN24_069,21,Male,2024-02-23_11h30.45.089,jersey_experiment_5,2023.2.2,Win32,84.74576271,,,,,,,,,,,,,,,,164.9507,166.2447,166.2448,167.7977,return,0.5213,,61.97916667,0,35,35,1,1,FBP-OG-71.png,0.37,1.2,2,0.5,,,,,,,,,,,,,,,,,,,,,,,,,,,,,,,,,,,,,,,,,,,,,
,,,,,WIN24_069,21,Male,2024-02-23_11h30.45.089,jersey_experiment_5,2023.2.2,Win32,84.74576271,,,,,,,,,,,,,,,,167.7983,169.5978,169.5978,172.139,return,1.3649,,82.421875,0,36,36,44,1,FBP-YG-91.png,0.45,1.2,45,1,,,,,,,,,,,,,,,,,,,,,,,,,,,,,,,,,,,,,,,,,,,,,
,,,,,WIN24_069,21,Male,2024-02-23_11h30.45.089,jersey_experiment_5,2023.2.2,Win32,84.74576271,,,,,,,,,,,,,,,,172.1394,173.9391,173.9391,175.4921,return,0.5203,,73.69791667,0,37,37,17,1,FBP-RB-17.png,0.4,1.2,18,1,,,,,,,,,,,,,,,,,,,,,,,,,,,,,,,,,,,,,,,,,,,,,
,,,,,WIN24_069,21,Male,2024-02-23_11h30.45.089,jersey_experiment_5,2023.2.2,Win32,84.74576271,,,,,,,,,,,,,,,,175.4924,176.7863,176.7863,180.6805,return,0.5747,,46.61458333,0,38,38,45,1,FBP-PT-17.png,0.35,1.2,46,0.5,,,,,,,,,,,,,,,,,,,,,,,,,,,,,,,,,,,,,,,,,,,,,
,,,,,WIN24_069,21,Male,2024-02-23_11h30.45.089,jersey_experiment_5,2023.2.2,Win32,84.74576271,,,,,,,,,,,,,,,,180.6808,181.9751,181.9751,184.1865,return,0.541,,50,0,39,39,51,1,FBP-PT-18.png,0.37,1.2,52,0.5,,,,,,,,,,,,,,,,,,,,,,,,,,,,,,,,,,,,,,,,,,,,,
,,,,,WIN24_069,21,Male,2024-02-23_11h30.45.089,jersey_experiment_5,2023.2.2,Win32,84.74576271,,,,,,,,,,,,,,,,184.1868,185.9868,185.9869,187.622,return,0.6503,,49.73958333,0,40,40,26,1,FBP-RB-19.png,0.37,1.2,27,1,,,,,,,,,,,,,,,,,,,,,,,,,,,,,,,,,,,,,,,,,,,,,
,,,,,WIN24_069,21,Male,2024-02-23_11h30.45.089,jersey_experiment_5,2023.2.2,Win32,84.74576271,,,,,,,,,,,,,,,,187.6227,189.4221,189.4221,190.6809,return,0.5648,,66.66666667,0,41,41,24,1,FBP-RB-18.png,0.45,1.2,25,1,,,,,,,,,,,,,,,,,,,,,,,,,,,,,,,,,,,,,,,,,,,,,
,,,,,WIN24_069,21,Male,2024-02-23_11h30.45.089,jersey_experiment_5,2023.2.2,Win32,84.74576271,,,,,,,,,,,,,,,,190.6812,191.9749,191.975,194.1633,return,1.0532,,68.48958333,0,42,42,7,1,FBP-OG-81.png,0.4,1.2,8,0.5,,,,,,,,,,,,,,,,,,,,,,,,,,,,,,,,,,,,,,,,,,,,,
,,,,,WIN24_069,21,Male,2024-02-23_11h30.45.089,jersey_experiment_5,2023.2.2,Win32,84.74576271,,,,,,,,,,,,,,,,194.1636,195.9636,195.9637,197.4457,return,0.7304,,78.77604167,0,43,43,29,1,FBP-RB-19.png,0.45,1.2,30,1,,,,,,,,,,,,,,,,,,,,,,,,,,,,,,,,,,,,,,,,,,,,,
,,,,,WIN24_069,21,Male,2024-02-23_11h30.45.089,jersey_experiment_5,2023.2.2,Win32,84.74576271,,,,,,,,,,,,,,,,197.4459,198.7402,198.7402,200.4106,return,0.9411,,67.96875,0,44,44,48,1,FBP-PT-17.png,0.43,1.2,49,0.5,,,,,,,,,,,,,,,,,,,,,,,,,,,,,,,,,,,,,,,,,,,,,
,,,,,WIN24_069,21,Male,2024-02-23_11h30.45.089,jersey_experiment_5,2023.2.2,Win32,84.74576271,,,,,,,,,,,,,,,,200.4109,202.2109,202.2109,204.9639,return,1.0643,,57.03125,0,45,45,21,1,FBP-RB-18.png,0.37,1.2,22,1,,,,,,,,,,,,,,,,,,,,,,,,,,,,,,,,,,,,,,,,,,,,,
,,,,,WIN24_069,21,Male,2024-02-23_11h30.45.089,jersey_experiment_5,2023.2.2,Win32,84.74576271,,,,,,,,,,,,,,,,204.9644,206.7639,206.7639,207.8579,return,0.5484,,60.80729167,0,46,46,27,1,FBP-RB-19.png,0.4,1.2,28,1,,,,,,,,,,,,,,,,,,,,,,,,,,,,,,,,,,,,,,,,,,,,,
,,,,,WIN24_069,21,Male,2024-02-23_11h30.45.089,jersey_experiment_5,2023.2.2,Win32,84.74576271,,,,,,,,,,,,,,,,207.8582,209.1521,209.1522,210.8229,return,0.5526,,70.18229167,0,47,47,14,1,FBP-OG-91.png,0.45,1.2,15,0.5,,,,,,,,,,,,,,,,,,,,,,,,,,,,,,,,,,,,,,,,,,,,,
,,,,,WIN24_069,21,Male,2024-02-23_11h30.45.089,jersey_experiment_5,2023.2.2,Win32,84.74576271,,,,,,,,,,,,,,,,210.8236,212.6229,212.6229,214.3405,return,0.5433,,61.19791667,0,48,48,36,1,FBP-YG-81.png,0.37,1.2,37,1,,,,,,,,,,,,,,,,,,,,,,,,,,,,,,,,,,,,,,,,,,,,,
,,,,,WIN24_069,21,Male,2024-02-23_11h30.45.089,jersey_experiment_5,2023.2.2,Win32,84.74576271,,,,,,,,,,,,,,,,214.3407,215.6349,215.6349,217.2112,return,0.5999,,41.66666667,0,49,49,6,1,FBP-OG-81.png,0.37,1.2,7,0.5,,,,,,,,,,,,,,,,,,,,,,,,,,,,,,,,,,,,,,,,,,,,,
,,,,,WIN24_069,21,Male,2024-02-23_11h30.45.089,jersey_experiment_5,2023.2.2,Win32,84.74576271,,,,,,,,,,,,,,,,217.2116,219.0114,219.0114,221.188,return,0.5668,,72.00520833,0,50,50,39,1,FBP-YG-81.png,0.45,1.2,40,1,,,,,,,,,,,,,,,,,,,,,,,,,,,,,,,,,,,,,,,,,,,,,
,,,,,WIN24_069,21,Male,2024-02-23_11h30.45.089,jersey_experiment_5,2023.2.2,Win32,84.74576271,,,,,,,,,,,,,,,,221.1886,222.4819,222.4819,223.9881,return,0.6764,,71.09375,0,51,51,3,1,FBP-OG-71.png,0.43,1.2,4,0.5,,,,,,,,,,,,,,,,,,,,,,,,,,,,,,,,,,,,,,,,,,,,,
,,,,,WIN24_069,21,Male,2024-02-23_11h30.45.089,jersey_experiment_5,2023.2.2,Win32,84.74576271,,,,,,,,,,,,,,,,223.9888,225.2821,225.2822,226.7881,return,0.5463,,63.28125,0,52,52,47,1,FBP-PT-17.png,0.4,1.2,48,0.5,,,,,,,,,,,,,,,,,,,,,,,,,,,,,,,,,,,,,,,,,,,,,
,,,,,WIN24_069,21,Male,2024-02-23_11h30.45.089,jersey_experiment_5,2023.2.2,Win32,84.74576271,,,,,,,,,,,,,,,,226.7885,228.5881,228.5882,229.8471,return,0.4974,,67.05729167,0,53,53,38,1,FBP-YG-81.png,0.43,1.2,39,1,,,,,,,,,,,,,,,,,,,,,,,,,,,,,,,,,,,,,,,,,,,,,
,,,,,WIN24_069,21,Male,2024-02-23_11h30.45.089,jersey_experiment_5,2023.2.2,Win32,84.74576271,,,,,,,,,,,,,,,,229.8473,231.1412,231.1412,232.5765,return,0.5703,,68.88020833,0,54,54,4,1,FBP-OG-71.png,0.45,1.2,5,0.5,,,,,,,,,,,,,,,,,,,,,,,,,,,,,,,,,,,,,,,,,,,,,
,,,,,WIN24_069,21,Male,2024-02-23_11h30.45.089,jersey_experiment_5,2023.2.2,Win32,84.74576271,,,,,,,,,,,,,,,,232.5767,234.3767,234.3768,237.012,return,1.4754,,42.05729167,0,55,55,25,1,FBP-RB-19.png,0.35,1.2,26,1,,,,,,,,,,,,,,,,,,,,,,,,,,,,,,,,,,,,,,,,,,,,,
,,,,,WIN24_069,21,Male,2024-02-23_11h30.45.089,jersey_experiment_5,2023.2.2,Win32,84.74576271,,,,,,,,,,,,,,,,237.0125,238.3063,238.3064,240.377,return,1.2118,,48.56770833,0,56,56,55,1,FBP-PT-19.png,0.35,1.2,56,0.5,,,,,,,,,,,,,,,,,,,,,,,,,,,,,,,,,,,,,,,,,,,,,
,,,,,WIN24_069,21,Male,2024-02-23_11h30.45.089,jersey_experiment_5,2023.2.2,Win32,84.74576271,,,,,,,,,,,,,,,,240.3773,242.1769,242.1769,243.4829,return,0.6708,,71.35416667,0,57,57,19,1,FBP-RB-17.png,0.45,1.2,20,1,,,,,,,,,,,,,,,,,,,,,,,,,,,,,,,,,,,,,,,,,,,,,
,,,,,WIN24_069,21,Male,2024-02-23_11h30.45.089,jersey_experiment_5,2023.2.2,Win32,84.74576271,,,,,,,,,,,,,,,,243.4834,245.2829,245.2829,246.8005,return,0.55,,60.80729167,0,58,58,20,1,FBP-RB-18.png,0.35,1.2,21,1,,,,,,,,,,,,,,,,,,,,,,,,,,,,,,,,,,,,,,,,,,,,,
,,,,,WIN24_069,21,Male,2024-02-23_11h30.45.089,jersey_experiment_5,2023.2.2,Win32,84.74576271,,,,,,,,,,,,,,,,246.8007,248.0947,248.0947,249.636,return,0.6289,,55.33854167,0,59,59,5,1,FBP-OG-81.png,0.35,1.2,6,0.5,,,,,,,,,,,,,,,,,,,,,,,,,,,,,,,,,,,,,,,,,,,,,
,,,,,WIN24_069,21,Male,2024-02-23_11h30.45.089,jersey_experiment_5,2023.2.2,Win32,84.74576271,,,,,,,,,,,,,,,,249.638,250.93,250.9301,252.0713,return,0.5293,,55.59895833,,,,,,FBP-OG-17.png,0.4,1.2,3,0.5,0,0,0,2,1,,,,,,,,,,,,,,,,,,,,,,,,,,,,,,,,,,,,,,,,
,,,,,WIN24_069,21,Male,2024-02-23_11h30.45.089,jersey_experiment_5,2023.2.2,Win32,84.74576271,,,,,,,,,,,,,,,,252.0716,253.8713,253.8714,254.9303,return,0.5128,,56.90104167,,,,,,FBP-RB-71.png,0.37,1.2,17,1,0,1,1,16,1,,,,,,,,,,,,,,,,,,,,,,,,,,,,,,,,,,,,,,,,
,,,,,WIN24_069,21,Male,2024-02-23_11h30.45.089,jersey_experiment_5,2023.2.2,Win32,84.74576271,,,,,,,,,,,,,,,,254.9306,256.2244,256.2244,258.1542,return,0.6011,,64.84375,,,,,,FBP-PT-71.png,0.45,1.2,50,0.5,0,2,2,49,1,,,,,,,,,,,,,,,,,,,,,,,,,,,,,,,,,,,,,,,,
,,,,,WIN24_069,21,Male,2024-02-23_11h30.45.089,jersey_experiment_5,2023.2.2,Win32,84.74576271,,,,,,,,,,,,,,,,258.1547,259.9539,259.954,262.2601,return,1.6759,,45.3125,,,,,,FBP-YG-17.png,0.35,1.2,31,1,0,3,3,30,1,,,,,,,,,,,,,,,,,,,,,,,,,,,,,,,,,,,,,,,,
,,,,,WIN24_069,21,Male,2024-02-23_11h30.45.089,jersey_experiment_5,2023.2.2,Win32,84.74576271,,,,,,,,,,,,,,,,262.2604,264.0602,264.0602,265.3071,return,0.6002,,69.40104167,,,,,,FBP-YG-18.png,0.45,1.2,40,1,0,4,4,39,1,,,,,,,,,,,,,,,,,,,,,,,,,,,,,,,,,,,,,,,,
,,,,,WIN24_069,21,Male,2024-02-23_11h30.45.089,jersey_experiment_5,2023.2.2,Win32,84.74576271,,,,,,,,,,,,,,,,265.3073,267.1073,267.1073,270.7073,return,2.3234,,40.10416667,,,,,,FBP-RB-81.png,0.35,1.2,21,1,0,5,5,20,1,,,,,,,,,,,,,,,,,,,,,,,,,,,,,,,,,,,,,,,,
,,,,,WIN24_069,21,Male,2024-02-23_11h30.45.089,jersey_experiment_5,2023.2.2,Win32,84.74576271,,,,,,,,,,,,,,,,270.7075,272.5073,272.5074,273.7546,return,0.6385,,64.453125,,,,,,FBP-RB-81.png,0.45,1.2,25,1,0,6,6,24,1,,,,,,,,,,,,,,,,,,,,,,,,,,,,,,,,,,,,,,,,
,,,,,WIN24_069,21,Male,2024-02-23_11h30.45.089,jersey_experiment_5,2023.2.2,Win32,84.74576271,,,,,,,,,,,,,,,,273.7548,275.0486,275.0488,276.7781,return,0.6117,,35.67708333,,,,,,FBP-PT-91.png,0.37,1.2,57,0.5,0,7,7,56,1,,,,,,,,,,,,,,,,,,,,,,,,,,,,,,,,,,,,,,,,
,,,,,WIN24_069,21,Male,2024-02-23_11h30.45.089,jersey_experiment_5,2023.2.2,Win32,84.74576271,,,,,,,,,,,,,,,,276.7783,278.5783,278.5783,279.7785,return,0.5954,,66.14583333,,,,,,FBP-YG-19.png,0.45,1.2,45,1,0,8,8,44,1,,,,,,,,,,,,,,,,,,,,,,,,,,,,,,,,,,,,,,,,
,,,,,WIN24_069,21,Male,2024-02-23_11h30.45.089,jersey_experiment_5,2023.2.2,Win32,84.74576271,,,,,,,,,,,,,,,,279.779,281.0724,281.0724,282.3078,return,0.5468,,58.72395833,,,,,,FBP-PT-71.png,0.4,1.2,48,0.5,0,9,9,47,1,,,,,,,,,,,,,,,,,,,,,,,,,,,,,,,,,,,,,,,,
,,,,,WIN24_069,21,Male,2024-02-23_11h30.45.089,jersey_experiment_5,2023.2.2,Win32,84.74576271,,,,,,,,,,,,,,,,282.308,283.6018,283.6018,285.6728,return,1.2597,,64.453125,,,,,,FBP-OG-18.png,0.43,1.2,9,0.5,0,10,10,8,1,,,,,,,,,,,,,,,,,,,,,,,,,,,,,,,,,,,,,,,,
,,,,,WIN24_069,21,Male,2024-02-23_11h30.45.089,jersey_experiment_5,2023.2.2,Win32,84.74576271,,,,,,,,,,,,,,,,285.6733,286.9666,286.9667,288.2256,return,0.5255,,55.078125,,,,,,FBP-OG-18.png,0.4,1.2,8,0.5,0,11,11,7,1,,,,,,,,,,,,,,,,,,,,,,,,,,,,,,,,,,,,,,,,
,,,,,WIN24_069,21,Male,2024-02-23_11h30.45.089,jersey_experiment_5,2023.2.2,Win32,84.74576271,,,,,,,,,,,,,,,,288.226,289.5198,289.5198,290.7315,return,0.5293,,55.33854167,,,,,,FBP-PT-91.png,0.4,1.2,58,0.5,0,12,12,57,1,,,,,,,,,,,,,,,,,,,,,,,,,,,,,,,,,,,,,,,,
,,,,,WIN24_069,21,Male,2024-02-23_11h30.45.089,jersey_experiment_5,2023.2.2,Win32,84.74576271,,,,,,,,,,,,,,,,290.7319,292.5316,292.5317,294.3787,return,0.5177,,64.19270833,,,,,,FBP-RB-91.png,0.45,1.2,30,1,0,13,13,29,1,,,,,,,,,,,,,,,,,,,,,,,,,,,,,,,,,,,,,,,,
,,,,,WIN24_069,21,Male,2024-02-23_11h30.45.089,jersey_experiment_5,2023.2.2,Win32,84.74576271,,,,,,,,,,,,,,,,294.3789,296.179,296.179,298.0378,return,1.3805,,56.51041667,,,,,,FBP-RB-91.png,0.37,1.2,27,1,0,14,14,26,1,,,,,,,,,,,,,,,,,,,,,,,,,,,,,,,,,,,,,,,,
,,,,,WIN24_069,21,Male,2024-02-23_11h30.45.089,jersey_experiment_5,2023.2.2,Win32,84.74576271,,,,,,,,,,,,,,,,298.038,299.3319,299.332,300.5791,return,0.4745,,44.66145833,,,,,,FBP-OG-17.png,0.35,1.2,1,0.5,0,15,15,0,1,,,,,,,,,,,,,,,,,,,,,,,,,,,,,,,,,,,,,,,,
,,,,,WIN24_069,21,Male,2024-02-23_11h30.45.089,jersey_experiment_5,2023.2.2,Win32,84.74576271,,,,,,,,,,,,,,,,300.5793,302.379,302.3791,303.4027,return,0.518,,44.53125,,,,,,FBP-RB-71.png,0.35,1.2,16,1,0,16,16,15,1,,,,,,,,,,,,,,,,,,,,,,,,,,,,,,,,,,,,,,,,
,,,,,WIN24_069,21,Male,2024-02-23_11h30.45.089,jersey_experiment_5,2023.2.2,Win32,84.74576271,,,,,,,,,,,,,,,,303.4029,304.6969,304.6969,306.0496,return,0.5018,,42.31770833,,,,,,FBP-PT-71.png,0.37,1.2,47,0.5,0,17,17,46,1,,,,,,,,,,,,,,,,,,,,,,,,,,,,,,,,,,,,,,,,
,,,,,WIN24_069,21,Male,2024-02-23_11h30.45.089,jersey_experiment_5,2023.2.2,Win32,84.74576271,,,,,,,,,,,,,,,,306.0499,307.85,307.85,309.8501,return,0.5649,,42.1875,,,,,,FBP-YG-18.png,0.35,1.2,36,1,0,18,18,35,1,,,,,,,,,,,,,,,,,,,,,,,,,,,,,,,,,,,,,,,,
,,,,,WIN24_069,21,Male,2024-02-23_11h30.45.089,jersey_experiment_5,2023.2.2,Win32,84.74576271,,,,,,,,,,,,,,,,309.8505,311.1441,311.1441,314.7559,return,0.8997,,47.39583333,,,,,,FBP-OG-18.png,0.35,1.2,6,0.5,0,19,19,5,1,,,,,,,,,,,,,,,,,,,,,,,,,,,,,,,,,,,,,,,,
,,,,,WIN24_069,21,Male,2024-02-23_11h30.45.089,jersey_experiment_5,2023.2.2,Win32,84.74576271,,,,,,,,,,,,,,,,314.756,316.0502,316.0503,317.5682,return,0.6099,,62.63020833,,,,,,FBP-PT-81.png,0.43,1.2,54,0.5,0,20,20,53,1,,,,,,,,,,,,,,,,,,,,,,,,,,,,,,,,,,,,,,,,
,,,,,WIN24_069,21,Male,2024-02-23_11h30.45.089,jersey_experiment_5,2023.2.2,Win32,84.74576271,,,,,,,,,,,,,,,,317.5684,319.3679,319.3679,322.5797,return,2.2286,,48.17708333,,,,,,FBP-RB-91.png,0.35,1.2,26,1,0,21,21,25,1,,,,,,,,,,,,,,,,,,,,,,,,,,,,,,,,,,,,,,,,
,,,,,WIN24_069,21,Male,2024-02-23_11h30.45.089,jersey_experiment_5,2023.2.2,Win32,84.74576271,,,,,,,,,,,,,,,,322.5799,323.874,323.8741,325.6976,return,0.9254,,65.625,,,,,,FBP-OG-18.png,0.45,1.2,10,0.5,0,22,22,9,1,,,,,,,,,,,,,,,,,,,,,,,,,,,,,,,,,,,,,,,,
,,,,,WIN24_069,21,Male,2024-02-23_11h30.45.089,jersey_experiment_5,2023.2.2,Win32,84.74576271,,,,,,,,,,,,,,,,325.6979,327.4979,327.4979,329.8154,return,1.5432,,60.80729167,,,,,,FBP-YG-17.png,0.4,1.2,33,1,0,23,23,32,1,,,,,,,,,,,,,,,,,,,,,,,,,,,,,,,,,,,,,,,,
,,,,,WIN24_069,21,Male,2024-02-23_11h30.45.089,jersey_experiment_5,2023.2.2,Win32,84.74576271,,,,,,,,,,,,,,,,329.8156,331.1095,331.1095,333.2508,return,1.3595,,57.55208333,,,,,,FBP-OG-19.png,0.4,1.2,13,0.5,0,24,24,12,1,,,,,,,,,,,,,,,,,,,,,,,,,,,,,,,,,,,,,,,,
,,,,,WIN24_069,21,Male,2024-02-23_11h30.45.089,jersey_experiment_5,2023.2.2,Win32,84.74576271,,,,,,,,,,,,,,,,333.2511,335.051,335.051,336.3921,return,0.8145,,66.40625,,,,,,FBP-YG-17.png,0.43,1.2,34,1,0,25,25,33,1,,,,,,,,,,,,,,,,,,,,,,,,,,,,,,,,,,,,,,,,
,,,,,WIN24_069,21,Male,2024-02-23_11h30.45.089,jersey_experiment_5,2023.2.2,Win32,84.74576271,,,,,,,,,,,,,,,,336.3924,338.1922,338.1922,339.5452,return,0.8384,,66.92708333,,,,,,FBP-YG-19.png,0.43,1.2,44,1,0,26,26,43,1,,,,,,,,,,,,,,,,,,,,,,,,,,,,,,,,,,,,,,,,
,,,,,WIN24_069,21,Male,2024-02-23_11h30.45.089,jersey_experiment_5,2023.2.2,Win32,84.74576271,,,,,,,,,,,,,,,,339.5454,341.3454,341.3454,344.2278,return,2.2646,,72.00520833,,,,,,FBP-RB-91.png,0.43,1.2,29,1,0,27,27,28,1,,,,,,,,,,,,,,,,,,,,,,,,,,,,,,,,,,,,,,,,
,,,,,WIN24_069,21,Male,2024-02-23_11h30.45.089,jersey_experiment_5,2023.2.2,Win32,84.74576271,,,,,,,,,,,,,,,,344.2286,345.5219,345.5219,347.3929,return,0.809,,44.27083333,,,,,,FBP-OG-19.png,0.35,1.2,11,0.5,0,28,28,10,1,,,,,,,,,,,,,,,,,,,,,,,,,,,,,,,,,,,,,,,,
,,,,,WIN24_069,21,Male,2024-02-23_11h30.45.089,jersey_experiment_5,2023.2.2,Win32,84.74576271,,,,,,,,,,,,,,,,347.3936,348.6867,348.6867,350.3575,return,0.8515,,63.54166667,,,,,,FBP-OG-19.png,0.45,1.2,15,0.5,0,29,29,14,1,,,,,,,,,,,,,,,,,,,,,,,,,,,,,,,,,,,,,,,,
,,,,,WIN24_069,21,Male,2024-02-23_11h30.45.089,jersey_experiment_5,2023.2.2,Win32,84.74576271,,,,,,,,,,,,,,,,350.358,351.6514,351.6514,353.4515,return,0.917,,52.47395833,,,,,,FBP-PT-91.png,0.35,1.2,56,0.5,0,30,30,55,1,,,,,,,,,,,,,,,,,,,,,,,,,,,,,,,,,,,,,,,,
,,,,,WIN24_069,21,Male,2024-02-23_11h30.45.089,jersey_experiment_5,2023.2.2,Win32,84.74576271,,,,,,,,,,,,,,,,353.4518,354.746,354.746,356.0988,return,0.7127,,58.72395833,,,,,,FBP-OG-19.png,0.43,1.2,14,0.5,0,31,31,13,1,,,,,,,,,,,,,,,,,,,,,,,,,,,,,,,,,,,,,,,,
,,,,,WIN24_069,21,Male,2024-02-23_11h30.45.089,jersey_experiment_5,2023.2.2,Win32,84.74576271,,,,,,,,,,,,,,,,356.099,357.393,357.393,358.6635,return,0.6608,,57.8125,,,,,,FBP-PT-71.png,0.43,1.2,49,0.5,0,32,32,48,1,,,,,,,,,,,,,,,,,,,,,,,,,,,,,,,,,,,,,,,,
,,,,,WIN24_069,21,Male,2024-02-23_11h30.45.089,jersey_experiment_5,2023.2.2,Win32,84.74576271,,,,,,,,,,,,,,,,358.6641,360.4635,360.4636,363.499,return,2.2003,,57.03125,,,,,,FBP-RB-71.png,0.43,1.2,19,1,0,33,33,18,1,,,,,,,,,,,,,,,,,,,,,,,,,,,,,,,,,,,,,,,,
,,,,,WIN24_069,21,Male,2024-02-23_11h30.45.089,jersey_experiment_5,2023.2.2,Win32,84.74576271,,,,,,,,,,,,,,,,363.4993,365.299,365.2991,368.358,return,1.8615,,47.00520833,,,,,,FBP-RB-81.png,0.37,1.2,22,1,0,34,34,21,1,,,,,,,,,,,,,,,,,,,,,,,,,,,,,,,,,,,,,,,,
,,,,,WIN24_069,21,Male,2024-02-23_11h30.45.089,jersey_experiment_5,2023.2.2,Win32,84.74576271,,,,,,,,,,,,,,,,368.3582,370.158,370.158,372.017,return,0.8911,,47.00520833,,,,,,FBP-YG-17.png,0.37,1.2,32,1,0,35,35,31,1,,,,,,,,,,,,,,,,,,,,,,,,,,,,,,,,,,,,,,,,
,,,,,WIN24_069,21,Male,2024-02-23_11h30.45.089,jersey_experiment_5,2023.2.2,Win32,84.74576271,,,,,,,,,,,,,,,,372.0172,373.3111,373.3112,375.2053,return,0.6628,,59.89583333,,,,,,FBP-PT-91.png,0.45,1.2,60,0.5,0,36,36,59,1,,,,,,,,,,,,,,,,,,,,,,,,,,,,,,,,,,,,,,,,
,,,,,WIN24_069,21,Male,2024-02-23_11h30.45.089,jersey_experiment_5,2023.2.2,Win32,84.74576271,,,,,,,,,,,,,,,,375.2055,377.0054,377.0054,378.2995,return,0.6473,,59.89583333,,,,,,FBP-RB-81.png,0.4,1.2,23,1,0,37,37,22,1,,,,,,,,,,,,,,,,,,,,,,,,,,,,,,,,,,,,,,,,
,,,,,WIN24_069,21,Male,2024-02-23_11h30.45.089,jersey_experiment_5,2023.2.2,Win32,84.74576271,,,,,,,,,,,,,,,,378.2998,379.5938,379.5938,381.6056,return,0.7564,,69.53125,,,,,,FBP-OG-17.png,0.45,1.2,5,0.5,0,38,38,4,1,,,,,,,,,,,,,,,,,,,,,,,,,,,,,,,,,,,,,,,,
,,,,,WIN24_069,21,Male,2024-02-23_11h30.45.089,jersey_experiment_5,2023.2.2,Win32,84.74576271,,,,,,,,,,,,,,,,381.6062,383.4056,383.4056,385.2528,return,0.7102,,69.53125,,,,,,FBP-RB-81.png,0.43,1.2,24,1,0,39,39,23,1,,,,,,,,,,,,,,,,,,,,,,,,,,,,,,,,,,,,,,,,
,,,,,WIN24_069,21,Male,2024-02-23_11h30.45.089,jersey_experiment_5,2023.2.2,Win32,84.74576271,,,,,,,,,,,,,,,,385.253,387.0527,387.0527,388.594,return,0.6186,,62.76041667,,,,,,FBP-YG-18.png,0.4,1.2,38,1,0,40,40,37,1,,,,,,,,,,,,,,,,,,,,,,,,,,,,,,,,,,,,,,,,
,,,,,WIN24_069,21,Male,2024-02-23_11h30.45.089,jersey_experiment_5,2023.2.2,Win32,84.74576271,,,,,,,,,,,,,,,,388.5942,389.8886,389.8887,391.7941,return,0.666,,62.76041667,,,,,,FBP-OG-17.png,0.43,1.2,4,0.5,0,41,41,3,1,,,,,,,,,,,,,,,,,,,,,,,,,,,,,,,,,,,,,,,,
,,,,,WIN24_069,21,Male,2024-02-23_11h30.45.089,jersey_experiment_5,2023.2.2,Win32,84.74576271,,,,,,,,,,,,,,,,391.7944,393.5945,393.5945,395.8767,return,0.628,,58.984375,,,,,,FBP-RB-71.png,0.4,1.2,18,1,0,42,42,17,1,,,,,,,,,,,,,,,,,,,,,,,,,,,,,,,,,,,,,,,,
,,,,,WIN24_069,21,Male,2024-02-23_11h30.45.089,jersey_experiment_5,2023.2.2,Win32,84.74576271,,,,,,,,,,,,,,,,395.8769,397.1707,397.1707,399.9591,return,1.9553,,50.13020833,,,,,,FBP-OG-17.png,0.37,1.2,2,0.5,0,43,43,1,1,,,,,,,,,,,,,,,,,,,,,,,,,,,,,,,,,,,,,,,,
,,,,,WIN24_069,21,Male,2024-02-23_11h30.45.089,jersey_experiment_5,2023.2.2,Win32,84.74576271,,,,,,,,,,,,,,,,399.9597,401.7596,401.7596,403.2534,return,0.6278,,58.33333333,,,,,,FBP-YG-19.png,0.4,1.2,43,1,0,44,44,42,1,,,,,,,,,,,,,,,,,,,,,,,,,,,,,,,,,,,,,,,,
,,,,,WIN24_069,21,Male,2024-02-23_11h30.45.089,jersey_experiment_5,2023.2.2,Win32,84.74576271,,,,,,,,,,,,,,,,403.2537,404.5475,404.5475,405.9594,return,0.6842,,44.66145833,,,,,,FBP-OG-18.png,0.37,1.2,7,0.5,0,45,45,6,1,,,,,,,,,,,,,,,,,,,,,,,,,,,,,,,,,,,,,,,,
,,,,,WIN24_069,21,Male,2024-02-23_11h30.45.089,jersey_experiment_5,2023.2.2,Win32,84.74576271,,,,,,,,,,,,,,,,405.9597,407.2537,407.2537,408.8419,return,0.6355,,53.25520833,,,,,,FBP-PT-81.png,0.4,1.2,53,0.5,0,46,46,52,1,,,,,,,,,,,,,,,,,,,,,,,,,,,,,,,,,,,,,,,,
,,,,,WIN24_069,21,Male,2024-02-23_11h30.45.089,jersey_experiment_5,2023.2.2,Win32,84.74576271,,,,,,,,,,,,,,,,408.8426,410.136,410.1361,411.2538,return,0.5915,,53.25520833,,,,,,FBP-OG-19.png,0.37,1.2,12,0.5,0,47,47,11,1,,,,,,,,,,,,,,,,,,,,,,,,,,,,,,,,,,,,,,,,
,,,,,WIN24_069,21,Male,2024-02-23_11h30.45.089,jersey_experiment_5,2023.2.2,Win32,84.74576271,,,,,,,,,,,,,,,,411.2545,413.0539,413.0539,415.5717,return,0.5706,,61.58854167,,,,,,FBP-YG-18.png,0.43,1.2,39,1,0,48,48,38,1,,,,,,,,,,,,,,,,,,,,,,,,,,,,,,,,,,,,,,,,
,,,,,WIN24_069,21,Male,2024-02-23_11h30.45.089,jersey_experiment_5,2023.2.2,Win32,84.74576271,,,,,,,,,,,,,,,,415.5723,416.8657,416.8658,420.8424,return,3.1654,,72.39583333,,,,,,FBP-PT-81.png,0.45,1.2,55,0.5,0,49,49,54,1,,,,,,,,,,,,,,,,,,,,,,,,,,,,,,,,,,,,,,,,
,,,,,WIN24_069,21,Male,2024-02-23_11h30.45.089,jersey_experiment_5,2023.2.2,Win32,84.74576271,,,,,,,,,,,,,,,,420.8429,422.1364,422.1365,424.113,return,0.5964,,65.625,,,,,,FBP-PT-81.png,0.37,1.2,52,0.5,0,50,50,51,1,,,,,,,,,,,,,,,,,,,,,,,,,,,,,,,,,,,,,,,,
,,,,,WIN24_069,21,Male,2024-02-23_11h30.45.089,jersey_experiment_5,2023.2.2,Win32,84.74576271,,,,,,,,,,,,,,,,424.1133,425.4071,425.4071,426.5837,return,0.7192,,63.671875,,,,,,FBP-PT-71.png,0.35,1.2,46,0.5,0,51,51,45,1,,,,,,,,,,,,,,,,,,,,,,,,,,,,,,,,,,,,,,,,
,,,,,WIN24_069,21,Male,2024-02-23_11h30.45.089,jersey_experiment_5,2023.2.2,Win32,84.74576271,,,,,,,,,,,,,,,,426.584,428.3837,428.3837,429.8779,return,0.8858,,60.67708333,,,,,,FBP-YG-17.png,0.45,1.2,35,1,0,52,52,34,1,,,,,,,,,,,,,,,,,,,,,,,,,,,,,,,,,,,,,,,,
,,,,,WIN24_069,21,Male,2024-02-23_11h30.45.089,jersey_experiment_5,2023.2.2,Win32,84.74576271,,,,,,,,,,,,,,,,429.8783,431.6782,431.6782,434.7956,return,2.2819,,48.046875,,,,,,FBP-YG-19.png,0.37,1.2,42,1,0,53,53,41,1,,,,,,,,,,,,,,,,,,,,,,,,,,,,,,,,,,,,,,,,
,,,,,WIN24_069,21,Male,2024-02-23_11h30.45.089,jersey_experiment_5,2023.2.2,Win32,84.74576271,,,,,,,,,,,,,,,,434.7959,436.5958,436.5958,437.7489,return,0.6282,,74.73958333,,,,,,FBP-RB-71.png,0.45,1.2,20,1,0,54,54,19,1,,,,,,,,,,,,,,,,,,,,,,,,,,,,,,,,,,,,,,,,
,,,,,WIN24_069,21,Male,2024-02-23_11h30.45.089,jersey_experiment_5,2023.2.2,Win32,84.74576271,,,,,,,,,,,,,,,,437.7495,439.0428,439.0428,442.9607,return,2.9734,,54.55729167,,,,,,FBP-PT-81.png,0.35,1.2,51,0.5,0,55,55,50,1,,,,,,,,,,,,,,,,,,,,,,,,,,,,,,,,,,,,,,,,
,,,,,WIN24_069,21,Male,2024-02-23_11h30.45.089,jersey_experiment_5,2023.2.2,Win32,84.74576271,,,,,,,,,,,,,,,,442.961,444.761,444.761,448.5611,return,3.2558,,47.91666667,,,,,,FBP-RB-91.png,0.4,1.2,28,1,0,56,56,27,1,,,,,,,,,,,,,,,,,,,,,,,,,,,,,,,,,,,,,,,,
,,,,,WIN24_069,21,Male,2024-02-23_11h30.45.089,jersey_experiment_5,2023.2.2,Win32,84.74576271,,,,,,,,,,,,,,,,448.5617,449.8552,449.8553,451.3965,return,0.6521,,61.58854167,,,,,,FBP-PT-91.png,0.43,1.2,59,0.5,0,57,57,58,1,,,,,,,,,,,,,,,,,,,,,,,,,,,,,,,,,,,,,,,,
,,,,,WIN24_069,21,Male,2024-02-23_11h30.45.089,jersey_experiment_5,2023.2.2,Win32,84.74576271,,,,,,,,,,,,,,,,451.3973,453.1965,453.1965,455.173,return,1.1808,,49.73958333,,,,,,FBP-YG-19.png,0.35,1.2,41,1,0,58,58,40,1,,,,,,,,,,,,,,,,,,,,,,,,,,,,,,,,,,,,,,,,
,,,,,WIN24_069,21,Male,2024-02-23_11h30.45.089,jersey_experiment_5,2023.2.2,Win32,84.74576271,,,,,,,,,,,,,,,,455.1733,456.9735,456.9735,458.0554,return,0.578,,56.77083333,,,,,,FBP-YG-18.png,0.37,1.2,37,1,0,59,59,36,1,,,,,,,,,,,,,,,,,,,,,,,,,,,,,,,,,,,,,,,,
,,,,,WIN24_069,21,Male,2024-02-23_11h30.45.089,jersey_experiment_5,2023.2.2,Win32,84.74576271,,,,,,,,,,,,,,,,,,,,,,,,,,,,,,,,,,,,,,,458.0561,578.0602,,,,,,,,,,,,,,,,,,,,,,,,,,,,,,,,,,,,,,
,,,,,WIN24_069,21,Male,2024-02-23_11h30.45.089,jersey_experiment_5,2023.2.2,Win32,84.74576271,,,,,,,,,,,,,,,,,,,,,,,,,,,,,,,,,,,,,,,,,578.0603,578.4247,return,0.3519,,,,,,,,,,,,,,,,,,,,,,,,,,,,,,,,,,
,,,,,WIN24_069,21,Male,2024-02-23_11h30.45.089,jersey_experiment_5,2023.2.2,Win32,84.74576271,,,,,,,,,,,,,,,,578.431,579.7305,579.7305,582.1659,return,0.5893,,52.60416667,,,,,,FBP-YG-71.png,0.4,1.2,33,0.5,,,,,,,,,,,,,0,0,0,32,1,,,,,,,,,,,,,,,,,,,,,,,,,,,,
,,,,,WIN24_069,21,Male,2024-02-23_11h30.45.089,jersey_experiment_5,2023.2.2,Win32,84.74576271,,,,,,,,,,,,,,,,582.1663,583.46,583.46,585.0956,return,0.5778,,47.91666667,,,,,,FBP-YG-81.png,0.37,1.2,37,0.5,,,,,,,,,,,,,0,1,1,36,1,,,,,,,,,,,,,,,,,,,,,,,,,,,,
,,,,,WIN24_069,21,Male,2024-02-23_11h30.45.089,jersey_experiment_5,2023.2.2,Win32,84.74576271,,,,,,,,,,,,,,,,585.0961,586.8956,586.8956,588.2015,return,0.5417,,66.14583333,,,,,,FBP-OG-91.png,0.43,1.2,14,1,,,,,,,,,,,,,0,2,2,13,1,,,,,,,,,,,,,,,,,,,,,,,,,,,,
,,,,,WIN24_069,21,Male,2024-02-23_11h30.45.089,jersey_experiment_5,2023.2.2,Win32,84.74576271,,,,,,,,,,,,,,,,588.202,589.4955,589.4956,590.6719,return,0.6093,,66.66666667,,,,,,FBP-YG-91.png,0.37,1.2,42,0.5,,,,,,,,,,,,,0,3,3,41,1,,,,,,,,,,,,,,,,,,,,,,,,,,,,
,,,,,WIN24_069,21,Male,2024-02-23_11h30.45.089,jersey_experiment_5,2023.2.2,Win32,84.74576271,,,,,,,,,,,,,,,,590.6722,592.4722,592.4722,594.6957,return,0.5042,,52.34375,,,,,,FBP-OG-71.png,0.35,1.2,1,1,,,,,,,,,,,,,0,4,4,0,1,,,,,,,,,,,,,,,,,,,,,,,,,,,,
,,,,,WIN24_069,21,Male,2024-02-23_11h30.45.089,jersey_experiment_5,2023.2.2,Win32,84.74576271,,,,,,,,,,,,,,,,594.696,595.9899,595.9899,597.2253,return,0.5767,,65.36458333,,,,,,FBP-RB-19.png,0.43,1.2,29,0.5,,,,,,,,,,,,,0,5,5,28,1,,,,,,,,,,,,,,,,,,,,,,,,,,,,
,,,,,WIN24_069,21,Male,2024-02-23_11h30.45.089,jersey_experiment_5,2023.2.2,Win32,84.74576271,,,,,,,,,,,,,,,,597.2255,598.5194,598.5195,599.9784,return,0.5906,,59.24479167,,,,,,FBP-YG-91.png,0.45,1.2,45,0.5,,,,,,,,,,,,,0,6,6,44,1,,,,,,,,,,,,,,,,,,,,,,,,,,,,
,,,,,WIN24_069,21,Male,2024-02-23_11h30.45.089,jersey_experiment_5,2023.2.2,Win32,84.74576271,,,,,,,,,,,,,,,,599.9786,601.2725,601.2726,602.8959,return,0.5622,,56.640625,,,,,,FBP-RB-18.png,0.4,1.2,23,0.5,,,,,,,,,,,,,0,7,7,22,1,,,,,,,,,,,,,,,,,,,,,,,,,,,,
,,,,,WIN24_069,21,Male,2024-02-23_11h30.45.089,jersey_experiment_5,2023.2.2,Win32,84.74576271,,,,,,,,,,,,,,,,602.8962,604.1902,604.1903,605.8257,return,0.4896,,49.73958333,,,,,,FBP-YG-81.png,0.35,1.2,36,0.5,,,,,,,,,,,,,0,8,8,35,1,,,,,,,,,,,,,,,,,,,,,,,,,,,,
,,,,,WIN24_069,21,Male,2024-02-23_11h30.45.089,jersey_experiment_5,2023.2.2,Win32,84.74576271,,,,,,,,,,,,,,,,605.8261,607.6258,607.6258,609.0727,return,0.6203,,53.90625,,,,,,FBP-PT-19.png,0.4,1.2,58,1,,,,,,,,,,,,,0,9,9,57,1,,,,,,,,,,,,,,,,,,,,,,,,,,,,
,,,,,WIN24_069,21,Male,2024-02-23_11h30.45.089,jersey_experiment_5,2023.2.2,Win32,84.74576271,,,,,,,,,,,,,,,,609.0731,610.8728,610.8728,612.0022,return,0.5452,,71.61458333,,,,,,FBP-OG-71.png,0.45,1.2,5,1,,,,,,,,,,,,,0,10,10,4,1,,,,,,,,,,,,,,,,,,,,,,,,,,,,
,,,,,WIN24_069,21,Male,2024-02-23_11h30.45.089,jersey_experiment_5,2023.2.2,Win32,84.74576271,,,,,,,,,,,,,,,,612.0025,613.2965,613.2965,614.5319,return,0.5464,,68.359375,,,,,,FBP-RB-17.png,0.4,1.2,18,0.5,,,,,,,,,,,,,0,11,11,17,1,,,,,,,,,,,,,,,,,,,,,,,,,,,,
,,,,,WIN24_069,21,Male,2024-02-23_11h30.45.089,jersey_experiment_5,2023.2.2,Win32,84.74576271,,,,,,,,,,,,,,,,614.5324,616.3319,616.3319,617.3201,return,0.6248,,68.48958333,,,,,,FBP-OG-71.png,0.4,1.2,3,1,,,,,,,,,,,,,0,12,12,2,1,,,,,,,,,,,,,,,,,,,,,,,,,,,,
,,,,,WIN24_069,21,Male,2024-02-23_11h30.45.089,jersey_experiment_5,2023.2.2,Win32,84.74576271,,,,,,,,,,,,,,,,617.3205,619.1202,619.1203,620.2144,return,0.5329,,61.06770833,,,,,,FBP-OG-71.png,0.37,1.2,2,1,,,,,,,,,,,,,0,13,13,1,1,,,,,,,,,,,,,,,,,,,,,,,,,,,,
,,,,,WIN24_069,21,Male,2024-02-23_11h30.45.089,jersey_experiment_5,2023.2.2,Win32,84.74576271,,,,,,,,,,,,,,,,620.2148,622.0144,622.0144,622.9793,return,0.5597,,58.46354167,,,,,,FBP-PT-17.png,0.37,1.2,47,1,,,,,,,,,,,,,0,14,14,46,1,,,,,,,,,,,,,,,,,,,,,,,,,,,,
,,,,,WIN24_069,21,Male,2024-02-23_11h30.45.089,jersey_experiment_5,2023.2.2,Win32,84.74576271,,,,,,,,,,,,,,,,622.98,624.2735,624.2735,625.8264,return,0.5008,,45.703125,,,,,,FBP-RB-17.png,0.35,1.2,16,0.5,,,,,,,,,,,,,0,15,15,15,1,,,,,,,,,,,,,,,,,,,,,,,,,,,,
,,,,,WIN24_069,21,Male,2024-02-23_11h30.45.089,jersey_experiment_5,2023.2.2,Win32,84.74576271,,,,,,,,,,,,,,,,625.8267,627.1206,627.1206,628.4499,return,0.5721,,73.95833333,,,,,,FBP-YG-81.png,0.45,1.2,40,0.5,,,,,,,,,,,,,0,16,16,39,1,,,,,,,,,,,,,,,,,,,,,,,,,,,,
,,,,,WIN24_069,21,Male,2024-02-23_11h30.45.089,jersey_experiment_5,2023.2.2,Win32,84.74576271,,,,,,,,,,,,,,,,628.4502,630.2501,630.2501,631.4032,return,0.5663,,77.86458333,,,,,,FBP-PT-18.png,0.45,1.2,55,1,,,,,,,,,,,,,0,17,17,54,1,,,,,,,,,,,,,,,,,,,,,,,,,,,,
,,,,,WIN24_069,21,Male,2024-02-23_11h30.45.089,jersey_experiment_5,2023.2.2,Win32,84.74576271,,,,,,,,,,,,,,,,631.4037,632.6971,632.6971,634.0974,return,0.5731,,69.40104167,,,,,,FBP-RB-19.png,0.37,1.2,27,0.5,,,,,,,,,,,,,0,18,18,26,1,,,,,,,,,,,,,,,,,,,,,,,,,,,,
,,,,,WIN24_069,21,Male,2024-02-23_11h30.45.089,jersey_experiment_5,2023.2.2,Win32,84.74576271,,,,,,,,,,,,,,,,634.0978,635.8973,635.8973,638.2149,return,1.4848,,74.21875,,,,,,FBP-OG-81.png,0.45,1.2,10,1,,,,,,,,,,,,,0,19,19,9,1,,,,,,,,,,,,,,,,,,,,,,,,,,,,
,,,,,WIN24_069,21,Male,2024-02-23_11h30.45.089,jersey_experiment_5,2023.2.2,Win32,84.74576271,,,,,,,,,,,,,,,,638.2153,640.015,640.015,641.2033,return,0.5235,,55.859375,,,,,,FBP-OG-91.png,0.37,1.2,12,1,,,,,,,,,,,,,0,20,20,11,1,,,,,,,,,,,,,,,,,,,,,,,,,,,,
,,,,,WIN24_069,21,Male,2024-02-23_11h30.45.089,jersey_experiment_5,2023.2.2,Win32,84.74576271,,,,,,,,,,,,,,,,641.2037,643.0034,643.0034,643.9564,return,0.5111,,52.47395833,,,,,,FBP-PT-19.png,0.35,1.2,56,1,,,,,,,,,,,,,0,21,21,55,1,,,,,,,,,,,,,,,,,,,,,,,,,,,,
,,,,,WIN24_069,21,Male,2024-02-23_11h30.45.089,jersey_experiment_5,2023.2.2,Win32,84.74576271,,,,,,,,,,,,,,,,643.9566,645.7565,645.7565,647.6272,return,1.3775,,60.546875,,,,,,FBP-OG-81.png,0.43,1.2,9,1,,,,,,,,,,,,,0,22,22,8,1,,,,,,,,,,,,,,,,,,,,,,,,,,,,
,,,,,WIN24_069,21,Male,2024-02-23_11h30.45.089,jersey_experiment_5,2023.2.2,Win32,84.74576271,,,,,,,,,,,,,,,,647.6279,649.4272,649.4272,650.3095,return,0.5297,,69.40104167,,,,,,FBP-PT-17.png,0.45,1.2,50,1,,,,,,,,,,,,,0,23,23,49,1,,,,,,,,,,,,,,,,,,,,,,,,,,,,
,,,,,WIN24_069,21,Male,2024-02-23_11h30.45.089,jersey_experiment_5,2023.2.2,Win32,84.74576271,,,,,,,,,,,,,,,,650.3098,652.1096,652.1096,654.5214,return,1.694,,59.11458333,,,,,,FBP-PT-18.png,0.37,1.2,52,1,,,,,,,,,,,,,0,24,24,51,1,,,,,,,,,,,,,,,,,,,,,,,,,,,,
,,,,,WIN24_069,21,Male,2024-02-23_11h30.45.089,jersey_experiment_5,2023.2.2,Win32,84.74576271,,,,,,,,,,,,,,,,654.5216,656.3218,656.3219,657.451,return,0.5562,,58.203125,,,,,,FBP-PT-18.png,0.35,1.2,51,1,,,,,,,,,,,,,0,25,25,50,1,,,,,,,,,,,,,,,,,,,,,,,,,,,,
,,,,,WIN24_069,21,Male,2024-02-23_11h30.45.089,jersey_experiment_5,2023.2.2,Win32,84.74576271,,,,,,,,,,,,,,,,657.4513,659.2513,659.2513,660.4042,return,0.6292,,59.63541667,,,,,,FBP-PT-17.png,0.4,1.2,48,1,,,,,,,,,,,,,0,26,26,47,1,,,,,,,,,,,,,,,,,,,,,,,,,,,,
,,,,,WIN24_069,21,Male,2024-02-23_11h30.45.089,jersey_experiment_5,2023.2.2,Win32,84.74576271,,,,,,,,,,,,,,,,660.4049,662.2042,662.2042,663.3218,return,0.5765,,59.63541667,,,,,,FBP-OG-81.png,0.37,1.2,7,1,,,,,,,,,,,,,0,27,27,6,1,,,,,,,,,,,,,,,,,,,,,,,,,,,,
,,,,,WIN24_069,21,Male,2024-02-23_11h30.45.089,jersey_experiment_5,2023.2.2,Win32,84.74576271,,,,,,,,,,,,,,,,663.3221,664.616,664.616,665.8513,return,0.6708,,63.54166667,,,,,,FBP-YG-81.png,0.4,1.2,38,0.5,,,,,,,,,,,,,0,28,28,37,1,,,,,,,,,,,,,,,,,,,,,,,,,,,,
,,,,,WIN24_069,21,Male,2024-02-23_11h30.45.089,jersey_experiment_5,2023.2.2,Win32,84.74576271,,,,,,,,,,,,,,,,665.8517,667.6514,667.6515,668.8161,return,0.5153,,66.40625,,,,,,FBP-PT-17.png,0.43,1.2,49,1,,,,,,,,,,,,,0,29,29,48,1,,,,,,,,,,,,,,,,,,,,,,,,,,,,
,,,,,WIN24_069,21,Male,2024-02-23_11h30.45.089,jersey_experiment_5,2023.2.2,Win32,84.74576271,,,,,,,,,,,,,,,,668.8163,670.1105,670.1106,671.2751,return,0.5181,,60.67708333,,,,,,FBP-YG-71.png,0.35,1.2,31,0.5,,,,,,,,,,,,,0,30,30,30,1,,,,,,,,,,,,,,,,,,,,,,,,,,,,
,,,,,WIN24_069,21,Male,2024-02-23_11h30.45.089,jersey_experiment_5,2023.2.2,Win32,84.74576271,,,,,,,,,,,,,,,,671.2754,672.5692,672.5692,674.3694,return,1.1617,,70.18229167,,,,,,FBP-YG-71.png,0.43,1.2,34,0.5,,,,,,,,,,,,,0,31,31,33,1,,,,,,,,,,,,,,,,,,,,,,,,,,,,
,,,,,WIN24_069,21,Male,2024-02-23_11h30.45.089,jersey_experiment_5,2023.2.2,Win32,84.74576271,,,,,,,,,,,,,,,,674.3701,676.1695,676.1695,677.1694,return,0.5965,,65.234375,,,,,,FBP-PT-19.png,0.37,1.2,57,1,,,,,,,,,,,,,0,32,32,56,1,,,,,,,,,,,,,,,,,,,,,,,,,,,,
,,,,,WIN24_069,21,Male,2024-02-23_11h30.45.089,jersey_experiment_5,2023.2.2,Win32,84.74576271,,,,,,,,,,,,,,,,677.1696,678.4636,678.4636,679.64,return,0.5393,,49.73958333,,,,,,FBP-RB-17.png,0.37,1.2,17,0.5,,,,,,,,,,,,,0,33,33,16,1,,,,,,,,,,,,,,,,,,,,,,,,,,,,
,,,,,WIN24_069,21,Male,2024-02-23_11h30.45.089,jersey_experiment_5,2023.2.2,Win32,84.74576271,,,,,,,,,,,,,,,,679.6403,681.4402,681.4402,685.8285,return,3.8051,,56.11979167,,,,,,FBP-OG-71.png,0.43,1.2,4,1,,,,,,,,,,,,,0,34,34,3,1,,,,,,,,,,,,,,,,,,,,,,,,,,,,
,,,,,WIN24_069,21,Male,2024-02-23_11h30.45.089,jersey_experiment_5,2023.2.2,Win32,84.74576271,,,,,,,,,,,,,,,,685.8288,687.1226,687.1226,688.3698,return,0.6162,,68.09895833,,,,,,FBP-RB-18.png,0.43,1.2,24,0.5,,,,,,,,,,,,,0,35,35,23,1,,,,,,,,,,,,,,,,,,,,,,,,,,,,
,,,,,WIN24_069,21,Male,2024-02-23_11h30.45.089,jersey_experiment_5,2023.2.2,Win32,84.74576271,,,,,,,,,,,,,,,,688.3701,690.1698,690.1698,691.1228,return,0.5241,,39.97395833,,,,,,FBP-OG-81.png,0.35,1.2,6,1,,,,,,,,,,,,,0,36,36,5,1,,,,,,,,,,,,,,,,,,,,,,,,,,,,
,,,,,WIN24_069,21,Male,2024-02-23_11h30.45.089,jersey_experiment_5,2023.2.2,Win32,84.74576271,,,,,,,,,,,,,,,,691.1231,692.923,692.923,694.2169,return,0.7628,,75.13020833,,,,,,FBP-OG-91.png,0.45,1.2,15,1,,,,,,,,,,,,,0,37,37,14,1,,,,,,,,,,,,,,,,,,,,,,,,,,,,
,,,,,WIN24_069,21,Male,2024-02-23_11h30.45.089,jersey_experiment_5,2023.2.2,Win32,84.74576271,,,,,,,,,,,,,,,,694.2171,695.5113,695.5113,698.088,return,1.013,,52.21354167,,,,,,FBP-YG-91.png,0.35,1.2,41,0.5,,,,,,,,,,,,,0,38,38,40,1,,,,,,,,,,,,,,,,,,,,,,,,,,,,
,,,,,WIN24_069,21,Male,2024-02-23_11h30.45.089,jersey_experiment_5,2023.2.2,Win32,84.74576271,,,,,,,,,,,,,,,,698.0885,699.888,699.888,701.0291,return,0.6513,,64.84375,,,,,,FBP-PT-18.png,0.43,1.2,54,1,,,,,,,,,,,,,0,39,39,53,1,,,,,,,,,,,,,,,,,,,,,,,,,,,,
,,,,,WIN24_069,21,Male,2024-02-23_11h30.45.089,jersey_experiment_5,2023.2.2,Win32,84.74576271,,,,,,,,,,,,,,,,701.0293,702.3232,702.3232,703.5585,return,0.6263,,78.25520833,,,,,,FBP-YG-71.png,0.45,1.2,35,0.5,,,,,,,,,,,,,0,40,40,34,1,,,,,,,,,,,,,,,,,,,,,,,,,,,,
,,,,,WIN24_069,21,Male,2024-02-23_11h30.45.089,jersey_experiment_5,2023.2.2,Win32,84.74576271,,,,,,,,,,,,,,,,703.5589,704.8526,704.8527,706.3587,return,0.7909,,76.30208333,,,,,,FBP-RB-19.png,0.45,1.2,30,0.5,,,,,,,,,,,,,0,41,41,29,1,,,,,,,,,,,,,,,,,,,,,,,,,,,,
,,,,,WIN24_069,21,Male,2024-02-23_11h30.45.089,jersey_experiment_5,2023.2.2,Win32,84.74576271,,,,,,,,,,,,,,,,706.359,707.6536,707.6536,708.947,return,0.6175,,63.93229167,,,,,,FBP-RB-18.png,0.37,1.2,22,0.5,,,,,,,,,,,,,0,42,42,21,1,,,,,,,,,,,,,,,,,,,,,,,,,,,,
,,,,,WIN24_069,21,Male,2024-02-23_11h30.45.089,jersey_experiment_5,2023.2.2,Win32,84.74576271,,,,,,,,,,,,,,,,708.9476,710.2412,710.2412,714.5003,return,3.7699,,55.72916667,,,,,,FBP-YG-91.png,0.4,1.2,43,0.5,,,,,,,,,,,,,0,43,43,42,1,,,,,,,,,,,,,,,,,,,,,,,,,,,,
,,,,,WIN24_069,21,Male,2024-02-23_11h30.45.089,jersey_experiment_5,2023.2.2,Win32,84.74576271,,,,,,,,,,,,,,,,714.501,716.3003,716.3004,717.5945,return,0.6848,,52.34375,,,,,,FBP-OG-91.png,0.4,1.2,13,1,,,,,,,,,,,,,0,44,44,12,1,,,,,,,,,,,,,,,,,,,,,,,,,,,,
,,,,,WIN24_069,21,Male,2024-02-23_11h30.45.089,jersey_experiment_5,2023.2.2,Win32,84.74576271,,,,,,,,,,,,,,,,717.5947,718.8885,718.8886,722.0065,return,2.3894,,37.36979167,,,,,,FBP-RB-19.png,0.35,1.2,26,0.5,,,,,,,,,,,,,0,45,45,25,1,,,,,,,,,,,,,,,,,,,,,,,,,,,,
,,,,,WIN24_069,21,Male,2024-02-23_11h30.45.089,jersey_experiment_5,2023.2.2,Win32,84.74576271,,,,,,,,,,,,,,,,722.0071,723.8068,723.8068,727.1126,return,2.6833,,50.26041667,,,,,,FBP-OG-81.png,0.4,1.2,8,1,,,,,,,,,,,,,0,46,46,7,1,,,,,,,,,,,,,,,,,,,,,,,,,,,,
,,,,,WIN24_069,21,Male,2024-02-23_11h30.45.089,jersey_experiment_5,2023.2.2,Win32,84.74576271,,,,,,,,,,,,,,,,727.113,728.9127,728.9128,729.9595,return,0.6599,,58.85416667,,,,,,FBP-PT-19.png,0.43,1.2,59,1,,,,,,,,,,,,,0,47,47,58,1,,,,,,,,,,,,,,,,,,,,,,,,,,,,
,,,,,WIN24_069,21,Male,2024-02-23_11h30.45.089,jersey_experiment_5,2023.2.2,Win32,84.74576271,,,,,,,,,,,,,,,,729.9599,731.7596,731.7596,732.7951,return,0.6484,,59.24479167,,,,,,FBP-PT-18.png,0.4,1.2,53,1,,,,,,,,,,,,,0,48,48,52,1,,,,,,,,,,,,,,,,,,,,,,,,,,,,
,,,,,WIN24_069,21,Male,2024-02-23_11h30.45.089,jersey_experiment_5,2023.2.2,Win32,84.74576271,,,,,,,,,,,,,,,,732.7955,734.0892,734.0892,735.2186,return,0.536,,59.24479167,,,,,,FBP-RB-18.png,0.45,1.2,25,0.5,,,,,,,,,,,,,0,49,49,24,1,,,,,,,,,,,,,,,,,,,,,,,,,,,,
,,,,,WIN24_069,21,Male,2024-02-23_11h30.45.089,jersey_experiment_5,2023.2.2,Win32,84.74576271,,,,,,,,,,,,,,,,735.2188,736.5128,736.5128,738.3246,return,0.6044,,41.66666667,,,,,,FBP-RB-18.png,0.35,1.2,21,0.5,,,,,,,,,,,,,0,50,50,20,1,,,,,,,,,,,,,,,,,,,,,,,,,,,,
,,,,,WIN24_069,21,Male,2024-02-23_11h30.45.089,jersey_experiment_5,2023.2.2,Win32,84.74576271,,,,,,,,,,,,,,,,738.3248,740.1247,740.1247,741.0659,return,0.5883,,41.66666667,,,,,,FBP-OG-91.png,0.35,1.2,11,1,,,,,,,,,,,,,0,51,51,10,1,,,,,,,,,,,,,,,,,,,,,,,,,,,,
,,,,,WIN24_069,21,Male,2024-02-23_11h30.45.089,jersey_experiment_5,2023.2.2,Win32,84.74576271,,,,,,,,,,,,,,,,741.0661,742.3599,742.3599,744.2777,return,0.5332,,51.5625,,,,,,FBP-RB-19.png,0.4,1.2,28,0.5,,,,,,,,,,,,,0,52,52,27,1,,,,,,,,,,,,,,,,,,,,,,,,,,,,
,,,,,WIN24_069,21,Male,2024-02-23_11h30.45.089,jersey_experiment_5,2023.2.2,Win32,84.74576271,,,,,,,,,,,,,,,,744.2781,745.5719,745.5719,746.9132,return,0.408,,63.02083333,,,,,,FBP-RB-17.png,0.45,1.2,20,0.5,,,,,,,,,,,,,0,53,53,19,1,,,,,,,,,,,,,,,,,,,,,,,,,,,,
,,,,,WIN24_069,21,Male,2024-02-23_11h30.45.089,jersey_experiment_5,2023.2.2,Win32,84.74576271,,,,,,,,,,,,,,,,746.9136,748.2074,748.2075,749.3845,return,0.2008,,55.20833333,,,,,,FBP-YG-71.png,0.37,1.2,32,0.5,,,,,,,,,,,,,0,54,54,31,1,,,,,,,,,,,,,,,,,,,,,,,,,,,,
,,,,,WIN24_069,21,Male,2024-02-23_11h30.45.089,jersey_experiment_5,2023.2.2,Win32,84.74576271,,,,,,,,,,,,,,,,749.3848,750.678,750.678,753.7369,return,0.1386,,62.109375,,,,,,FBP-YG-81.png,0.43,1.2,39,0.5,,,,,,,,,,,,,0,55,55,38,1,,,,,,,,,,,,,,,,,,,,,,,,,,,,
,,,,,WIN24_069,21,Male,2024-02-23_11h30.45.089,jersey_experiment_5,2023.2.2,Win32,84.74576271,,,,,,,,,,,,,,,,753.7372,755.031,755.031,757.1253,return,0.6152,,66.40625,,,,,,FBP-YG-91.png,0.43,1.2,44,0.5,,,,,,,,,,,,,0,56,56,43,1,,,,,,,,,,,,,,,,,,,,,,,,,,,,
,,,,,WIN24_069,21,Male,2024-02-23_11h30.45.089,jersey_experiment_5,2023.2.2,Win32,84.74576271,,,,,,,,,,,,,,,,757.1257,758.4194,758.4194,759.584,return,0.5734,,72.65625,,,,,,FBP-RB-17.png,0.43,1.2,19,0.5,,,,,,,,,,,,,0,57,57,18,1,,,,,,,,,,,,,,,,,,,,,,,,,,,,
,,,,,WIN24_069,21,Male,2024-02-23_11h30.45.089,jersey_experiment_5,2023.2.2,Win32,84.74576271,,,,,,,,,,,,,,,,759.5844,761.3842,761.3842,763.1138,return,0.9654,,45.96354167,,,,,,FBP-PT-17.png,0.35,1.2,46,1,,,,,,,,,,,,,0,58,58,45,1,,,,,,,,,,,,,,,,,,,,,,,,,,,,
,,,,,WIN24_069,21,Male,2024-02-23_11h30.45.089,jersey_experiment_5,2023.2.2,Win32,84.74576271,,,,,,,,,,,,,,,,763.1143,764.9138,764.9139,765.5608,return,0.1654,,65.234375,,,,,,FBP-PT-19.png,0.45,1.2,60,1,,,,,,,,,,,,,0,59,59,59,1,,,,,,,,,,,,,,,,,,,,,,,,,,,,
,,,,,WIN24_069,21,Male,2024-02-23_11h30.45.089,jersey_experiment_5,2023.2.2,Win32,84.74576271,,,,,,,,,,,,,,,,765.5623,766.8551,766.8551,767.6081,return,0.0831,,67.96875,,,,,,FBP-YG-19.png,0.45,1.2,45,0.5,,,,,,,,,,,,,,,,,,0,0,0,44,1,,,,,,,,,,,,,,,,,,,,,,,
,,,,,WIN24_069,21,Male,2024-02-23_11h30.45.089,jersey_experiment_5,2023.2.2,Win32,84.74576271,,,,,,,,,,,,,,,,767.6088,768.9021,768.9021,769.514,return,0.1037,,67.1875,,,,,,FBP-YG-17.png,0.43,1.2,34,0.5,,,,,,,,,,,,,,,,,,0,1,1,33,1,,,,,,,,,,,,,,,,,,,,,,,
,,,,,WIN24_069,21,Male,2024-02-23_11h30.45.089,jersey_experiment_5,2023.2.2,Win32,84.74576271,,,,,,,,,,,,,,,,769.5142,770.808,770.8081,772.4086,return,0.8607,,44.921875,,,,,,FBP-YG-19.png,0.35,1.2,41,0.5,,,,,,,,,,,,,,,,,,0,2,2,40,1,,,,,,,,,,,,,,,,,,,,,,,
,,,,,WIN24_069,21,Male,2024-02-23_11h30.45.089,jersey_experiment_5,2023.2.2,Win32,84.74576271,,,,,,,,,,,,,,,,772.4092,773.7024,773.7025,774.5026,return,0.1796,,38.54166667,,,,,,FBP-RB-91.png,0.37,1.2,27,0.5,,,,,,,,,,,,,,,,,,0,3,3,26,1,,,,,,,,,,,,,,,,,,,,,,,
,,,,,WIN24_069,21,Male,2024-02-23_11h30.45.089,jersey_experiment_5,2023.2.2,Win32,84.74576271,,,,,,,,,,,,,,,,774.5029,776.3024,776.3025,777.1378,return,0.1368,,48.69791667,,,,,,FBP-PT-81.png,0.4,1.2,53,1,,,,,,,,,,,,,,,,,,0,4,4,52,1,,,,,,,,,,,,,,,,,,,,,,,
,,,,,WIN24_069,21,Male,2024-02-23_11h30.45.089,jersey_experiment_5,2023.2.2,Win32,84.74576271,,,,,,,,,,,,,,,,777.138,778.432,778.4321,779.2084,return,0.1648,,64.58333333,,,,,,FBP-YG-18.png,0.45,1.2,40,0.5,,,,,,,,,,,,,,,,,,0,5,5,39,1,,,,,,,,,,,,,,,,,,,,,,,
,,,,,WIN24_069,21,Male,2024-02-23_11h30.45.089,jersey_experiment_5,2023.2.2,Win32,84.74576271,,,,,,,,,,,,,,,,779.2086,780.5027,780.5028,781.3968,return,0.2043,,63.41145833,,,,,,FBP-YG-18.png,0.35,1.2,36,0.5,,,,,,,,,,,,,,,,,,0,6,6,35,1,,,,,,,,,,,,,,,,,,,,,,,
,,,,,WIN24_069,21,Male,2024-02-23_11h30.45.089,jersey_experiment_5,2023.2.2,Win32,84.74576271,,,,,,,,,,,,,,,,781.3971,783.1971,783.1972,784.3264,return,0.2509,,37.5,,,,,,FBP-PT-81.png,0.35,1.2,51,1,,,,,,,,,,,,,,,,,,0,7,7,50,1,,,,,,,,,,,,,,,,,,,,,,,
,,,,,WIN24_069,21,Male,2024-02-23_11h30.45.089,jersey_experiment_5,2023.2.2,Win32,84.74576271,,,,,,,,,,,,,,,,784.3267,786.1265,786.1266,786.8322,return,0.1969,,38.54166667,,,,,,FBP-PT-91.png,0.37,1.2,57,1,,,,,,,,,,,,,,,,,,0,8,8,56,1,,,,,,,,,,,,,,,,,,,,,,,
,,,,,WIN24_069,21,Male,2024-02-23_11h30.45.089,jersey_experiment_5,2023.2.2,Win32,84.74576271,,,,,,,,,,,,,,,,786.8326,788.1265,788.1265,789.6913,return,0.1658,,44.40104167,,,,,,FBP-YG-17.png,0.37,1.2,32,0.5,,,,,,,,,,,,,,,,,,0,9,9,31,1,,,,,,,,,,,,,,,,,,,,,,,
,,,,,WIN24_069,21,Male,2024-02-23_11h30.45.089,jersey_experiment_5,2023.2.2,Win32,84.74576271,,,,,,,,,,,,,,,,789.6915,790.9856,790.9856,792.0914,return,0.3658,,65.234375,,,,,,FBP-RB-81.png,0.45,1.2,25,0.5,,,,,,,,,,,,,,,,,,0,10,10,24,1,,,,,,,,,,,,,,,,,,,,,,,
,,,,,WIN24_069,21,Male,2024-02-23_11h30.45.089,jersey_experiment_5,2023.2.2,Win32,84.74576271,,,,,,,,,,,,,,,,792.0918,793.8913,793.8913,794.5031,return,0.1902,,70.83333333,,,,,,FBP-OG-19.png,0.45,1.2,15,1,,,,,,,,,,,,,,,,,,0,11,11,14,1,,,,,,,,,,,,,,,,,,,,,,,
,,,,,WIN24_069,21,Male,2024-02-23_11h30.45.089,jersey_experiment_5,2023.2.2,Win32,84.74576271,,,,,,,,,,,,,,,,794.5034,796.3031,796.3031,797.6916,return,0.8945,,54.6875,,,,,,FBP-OG-18.png,0.35,1.2,6,1,,,,,,,,,,,,,,,,,,0,12,12,5,1,,,,,,,,,,,,,,,,,,,,,,,
,,,,,WIN24_069,21,Male,2024-02-23_11h30.45.089,jersey_experiment_5,2023.2.2,Win32,84.74576271,,,,,,,,,,,,,,,,797.6918,799.4915,799.4915,800.1033,return,0.1525,,50.26041667,,,,,,FBP-OG-17.png,0.35,1.2,1,1,,,,,,,,,,,,,,,,,,0,13,13,0,1,,,,,,,,,,,,,,,,,,,,,,,
,,,,,WIN24_069,21,Male,2024-02-23_11h30.45.089,jersey_experiment_5,2023.2.2,Win32,84.74576271,,,,,,,,,,,,,,,,800.1036,801.3978,801.3979,802.5036,return,0.1521,,66.53645833,,,,,,FBP-RB-71.png,0.45,1.2,20,0.5,,,,,,,,,,,,,,,,,,0,14,14,19,1,,,,,,,,,,,,,,,,,,,,,,,
,,,,,WIN24_069,21,Male,2024-02-23_11h30.45.089,jersey_experiment_5,2023.2.2,Win32,84.74576271,,,,,,,,,,,,,,,,802.5038,804.3036,804.3036,806.833,return,0.1372,,66.40625,,,,,,FBP-OG-19.png,0.4,1.2,13,1,,,,,,,,,,,,,,,,,,0,15,15,12,1,,,,,,,,,,,,,,,,,,,,,,,
,,,,,WIN24_069,21,Male,2024-02-23_11h30.45.089,jersey_experiment_5,2023.2.2,Win32,84.74576271,,,,,,,,,,,,,,,,806.8335,808.6331,808.6332,809.6332,return,0.1374,,69.53125,,,,,,FBP-PT-91.png,0.45,1.2,60,1,,,,,,,,,,,,,,,,,,0,16,16,59,1,,,,,,,,,,,,,,,,,,,,,,,
,,,,,WIN24_069,21,Male,2024-02-23_11h30.45.089,jersey_experiment_5,2023.2.2,Win32,84.74576271,,,,,,,,,,,,,,,,809.6338,811.4332,811.4333,812.8213,return,0.7326,,59.24479167,,,,,,FBP-OG-19.png,0.43,1.2,14,1,,,,,,,,,,,,,,,,,,0,17,17,13,1,,,,,,,,,,,,,,,,,,,,,,,
,,,,,WIN24_069,21,Male,2024-02-23_11h30.45.089,jersey_experiment_5,2023.2.2,Win32,84.74576271,,,,,,,,,,,,,,,,812.8216,814.6216,814.6217,815.7862,return,0.2096,,46.484375,,,,,,FBP-PT-71.png,0.35,1.2,46,1,,,,,,,,,,,,,,,,,,0,18,18,45,1,,,,,,,,,,,,,,,,,,,,,,,
,,,,,WIN24_069,21,Male,2024-02-23_11h30.45.089,jersey_experiment_5,2023.2.2,Win32,84.74576271,,,,,,,,,,,,,,,,815.7865,817.0806,817.0806,817.9747,return,0.1314,,55.72916667,,,,,,FBP-YG-19.png,0.43,1.2,44,0.5,,,,,,,,,,,,,,,,,,0,19,19,43,1,,,,,,,,,,,,,,,,,,,,,,,
,,,,,WIN24_069,21,Male,2024-02-23_11h30.45.089,jersey_experiment_5,2023.2.2,Win32,84.74576271,,,,,,,,,,,,,,,,817.9751,819.7746,819.7746,822.3276,return,1.105,,45.703125,,,,,,FBP-OG-18.png,0.4,1.2,8,1,,,,,,,,,,,,,,,,,,0,20,20,7,1,,,,,,,,,,,,,,,,,,,,,,,
,,,,,WIN24_069,21,Male,2024-02-23_11h30.45.089,jersey_experiment_5,2023.2.2,Win32,84.74576271,,,,,,,,,,,,,,,,822.328,824.1281,824.1281,825.716,return,0.0525,,45.703125,,,,,,FBP-OG-19.png,0.37,1.2,12,1,,,,,,,,,,,,,,,,,,0,21,21,11,1,,,,,,,,,,,,,,,,,,,,,,,
,,,,,WIN24_069,21,Male,2024-02-23_11h30.45.089,jersey_experiment_5,2023.2.2,Win32,84.74576271,,,,,,,,,,,,,,,,825.7162,827.5162,827.5163,827.9046,return,0.0319,,45.83333333,,,,,,FBP-OG-19.png,0.35,1.2,11,1,,,,,,,,,,,,,,,,,,0,22,22,10,1,,,,,,,,,,,,,,,,,,,,,,,
,,,,,WIN24_069,21,Male,2024-02-23_11h30.45.089,jersey_experiment_5,2023.2.2,Win32,84.74576271,,,,,,,,,,,,,,,,827.9049,829.7044,829.7044,832.4223,return,0.1212,,50.13020833,,,,,,FBP-PT-91.png,0.43,1.2,59,1,,,,,,,,,,,,,,,,,,0,23,23,58,1,,,,,,,,,,,,,,,,,,,,,,,
,,,,,WIN24_069,21,Male,2024-02-23_11h30.45.089,jersey_experiment_5,2023.2.2,Win32,84.74576271,,,,,,,,,,,,,,,,832.4226,834.2224,834.2224,835.0459,return,0.0269,,50.390625,,,,,,FBP-OG-17.png,0.4,1.2,3,1,,,,,,,,,,,,,,,,,,0,24,24,2,1,,,,,,,,,,,,,,,,,,,,,,,
,,,,,WIN24_069,21,Male,2024-02-23_11h30.45.089,jersey_experiment_5,2023.2.2,Win32,84.74576271,,,,,,,,,,,,,,,,835.0465,836.846,836.846,838.0225,return,0.1086,,53.90625,,,,,,FBP-PT-71.png,0.4,1.2,48,1,,,,,,,,,,,,,,,,,,0,25,25,47,1,,,,,,,,,,,,,,,,,,,,,,,
,,,,,WIN24_069,21,Male,2024-02-23_11h30.45.089,jersey_experiment_5,2023.2.2,Win32,84.74576271,,,,,,,,,,,,,,,,838.0227,839.3165,839.3166,840.0695,return,0.1452,,60.546875,,,,,,FBP-RB-71.png,0.43,1.2,19,0.5,,,,,,,,,,,,,,,,,,0,26,26,18,1,,,,,,,,,,,,,,,,,,,,,,,
,,,,,WIN24_069,21,Male,2024-02-23_11h30.45.089,jersey_experiment_5,2023.2.2,Win32,84.74576271,,,,,,,,,,,,,,,,840.0699,841.8699,841.87,842.3756,return,0.0956,,57.55208333,,,,,,FBP-OG-18.png,0.37,1.2,7,1,,,,,,,,,,,,,,,,,,0,27,27,6,1,,,,,,,,,,,,,,,,,,,,,,,
,,,,,WIN24_069,21,Male,2024-02-23_11h30.45.089,jersey_experiment_5,2023.2.2,Win32,84.74576271,,,,,,,,,,,,,,,,842.3763,843.6696,843.6696,844.658,return,0.1252,,66.40625,,,,,,FBP-RB-91.png,0.43,1.2,29,0.5,,,,,,,,,,,,,,,,,,0,28,28,28,1,,,,,,,,,,,,,,,,,,,,,,,
,,,,,WIN24_069,21,Male,2024-02-23_11h30.45.089,jersey_experiment_5,2023.2.2,Win32,84.74576271,,,,,,,,,,,,,,,,844.6582,845.952,845.9521,847.3522,return,0.7776,,63.54166667,,,,,,FBP-RB-71.png,0.37,1.2,17,0.5,,,,,,,,,,,,,,,,,,0,29,29,16,1,,,,,,,,,,,,,,,,,,,,,,,
,,,,,WIN24_069,21,Male,2024-02-23_11h30.45.089,jersey_experiment_5,2023.2.2,Win32,84.74576271,,,,,,,,,,,,,,,,847.3527,848.6467,848.6468,849.4346,return,0.1412,,45.703125,,,,,,FBP-RB-81.png,0.35,1.2,21,0.5,,,,,,,,,,,,,,,,,,0,30,30,20,1,,,,,,,,,,,,,,,,,,,,,,,
,,,,,WIN24_069,21,Male,2024-02-23_11h30.45.089,jersey_experiment_5,2023.2.2,Win32,84.74576271,,,,,,,,,,,,,,,,849.4349,851.2346,851.2346,852.2935,return,0.0855,,45.57291667,,,,,,FBP-PT-91.png,0.35,1.2,56,1,,,,,,,,,,,,,,,,,,0,31,31,55,1,,,,,,,,,,,,,,,,,,,,,,,
,,,,,WIN24_069,21,Male,2024-02-23_11h30.45.089,jersey_experiment_5,2023.2.2,Win32,84.74576271,,,,,,,,,,,,,,,,852.2939,853.5877,853.5877,854.7877,return,0.1234,,41.66666667,,,,,,FBP-RB-91.png,0.35,1.2,26,0.5,,,,,,,,,,,,,,,,,,0,32,32,25,1,,,,,,,,,,,,,,,,,,,,,,,
,,,,,WIN24_069,21,Male,2024-02-23_11h30.45.089,jersey_experiment_5,2023.2.2,Win32,84.74576271,,,,,,,,,,,,,,,,854.7879,856.082,856.0821,858.529,return,1.667,,54.03645833,,,,,,FBP-RB-91.png,0.4,1.2,28,0.5,,,,,,,,,,,,,,,,,,0,33,33,27,1,,,,,,,,,,,,,,,,,,,,,,,
,,,,,WIN24_069,21,Male,2024-02-23_11h30.45.089,jersey_experiment_5,2023.2.2,Win32,84.74576271,,,,,,,,,,,,,,,,858.5293,859.8231,859.8231,860.5645,return,0.0758,,62.76041667,,,,,,FBP-YG-19.png,0.4,1.2,43,0.5,,,,,,,,,,,,,,,,,,0,34,34,42,1,,,,,,,,,,,,,,,,,,,,,,,
,,,,,WIN24_069,21,Male,2024-02-23_11h30.45.089,jersey_experiment_5,2023.2.2,Win32,84.74576271,,,,,,,,,,,,,,,,860.5647,861.8585,861.8585,862.8705,return,0.0853,,73.56770833,,,,,,FBP-RB-71.png,0.4,1.2,18,0.5,,,,,,,,,,,,,,,,,,0,35,35,17,1,,,,,,,,,,,,,,,,,,,,,,,
,,,,,WIN24_069,21,Male,2024-02-23_11h30.45.089,jersey_experiment_5,2023.2.2,Win32,84.74576271,,,,,,,,,,,,,,,,862.8707,864.1645,864.1646,865.4116,return,0.7589,,75.65104167,,,,,,FBP-RB-81.png,0.43,1.2,24,0.5,,,,,,,,,,,,,,,,,,0,36,36,23,1,,,,,,,,,,,,,,,,,,,,,,,
,,,,,WIN24_069,21,Male,2024-02-23_11h30.45.089,jersey_experiment_5,2023.2.2,Win32,84.74576271,,,,,,,,,,,,,,,,865.4118,866.706,866.706,867.9883,return,0.6406,,49.73958333,,,,,,FBP-YG-19.png,0.37,1.2,42,0.5,,,,,,,,,,,,,,,,,,0,37,37,41,1,,,,,,,,,,,,,,,,,,,,,,,
,,,,,WIN24_069,21,Male,2024-02-23_11h30.45.089,jersey_experiment_5,2023.2.2,Win32,84.74576271,,,,,,,,,,,,,,,,867.9888,869.7884,869.7884,871.3649,return,0.8633,,62.36979167,,,,,,FBP-OG-18.png,0.45,1.2,10,1,,,,,,,,,,,,,,,,,,0,38,38,9,1,,,,,,,,,,,,,,,,,,,,,,,
,,,,,WIN24_069,21,Male,2024-02-23_11h30.45.089,jersey_experiment_5,2023.2.2,Win32,84.74576271,,,,,,,,,,,,,,,,871.3651,873.1651,873.1651,873.8942,return,0.144,,64.84375,,,,,,FBP-OG-17.png,0.43,1.2,4,1,,,,,,,,,,,,,,,,,,0,39,39,3,1,,,,,,,,,,,,,,,,,,,,,,,
,,,,,WIN24_069,21,Male,2024-02-23_11h30.45.089,jersey_experiment_5,2023.2.2,Win32,84.74576271,,,,,,,,,,,,,,,,873.8945,875.1884,875.1885,875.6826,return,0.1006,,64.84375,,,,,,FBP-YG-18.png,0.43,1.2,39,0.5,,,,,,,,,,,,,,,,,,0,40,40,38,1,,,,,,,,,,,,,,,,,,,,,,,
,,,,,WIN24_069,21,Male,2024-02-23_11h30.45.089,jersey_experiment_5,2023.2.2,Win32,84.74576271,,,,,,,,,,,,,,,,875.6828,876.9768,876.9768,878.4594,return,0.7419,,44.53125,,,,,,FBP-YG-18.png,0.37,1.2,37,0.5,,,,,,,,,,,,,,,,,,0,41,41,36,1,,,,,,,,,,,,,,,,,,,,,,,
,,,,,WIN24_069,21,Male,2024-02-23_11h30.45.089,jersey_experiment_5,2023.2.2,Win32,84.74576271,,,,,,,,,,,,,,,,878.4595,880.2594,880.2594,880.8239,return,0.1308,,57.421875,,,,,,FBP-PT-91.png,0.4,1.2,58,1,,,,,,,,,,,,,,,,,,0,42,42,57,1,,,,,,,,,,,,,,,,,,,,,,,
,,,,,WIN24_069,21,Male,2024-02-23_11h30.45.089,jersey_experiment_5,2023.2.2,Win32,84.74576271,,,,,,,,,,,,,,,,880.824,882.6242,882.6242,883.7066,return,0.6355,,69.921875,,,,,,FBP-PT-81.png,0.43,1.2,54,1,,,,,,,,,,,,,,,,,,0,43,43,53,1,,,,,,,,,,,,,,,,,,,,,,,
,,,,,WIN24_069,21,Male,2024-02-23_11h30.45.089,jersey_experiment_5,2023.2.2,Win32,84.74576271,,,,,,,,,,,,,,,,883.7071,885.5065,885.5066,886.4712,return,0.1899,,71.09375,,,,,,FBP-PT-81.png,0.45,1.2,55,1,,,,,,,,,,,,,,,,,,0,44,44,54,1,,,,,,,,,,,,,,,,,,,,,,,
,,,,,WIN24_069,21,Male,2024-02-23_11h30.45.089,jersey_experiment_5,2023.2.2,Win32,84.74576271,,,,,,,,,,,,,,,,886.4715,888.2715,888.2715,889.7656,return,0.9452,,49.21875,,,,,,FBP-PT-81.png,0.37,1.2,52,1,,,,,,,,,,,,,,,,,,0,45,45,51,1,,,,,,,,,,,,,,,,,,,,,,,
,,,,,WIN24_069,21,Male,2024-02-23_11h30.45.089,jersey_experiment_5,2023.2.2,Win32,84.74576271,,,,,,,,,,,,,,,,889.7662,891.5655,891.5655,892.0481,return,0.0421,,62.63020833,,,,,,FBP-PT-71.png,0.43,1.2,49,1,,,,,,,,,,,,,,,,,,0,46,46,48,1,,,,,,,,,,,,,,,,,,,,,,,
,,,,,WIN24_069,21,Male,2024-02-23_11h30.45.089,jersey_experiment_5,2023.2.2,Win32,84.74576271,,,,,,,,,,,,,,,,892.0484,893.848,893.8481,894.801,return,0.043,,61.06770833,,,,,,FBP-OG-17.png,0.45,1.2,5,1,,,,,,,,,,,,,,,,,,0,47,47,4,1,,,,,,,,,,,,,,,,,,,,,,,
,,,,,WIN24_069,21,Male,2024-02-23_11h30.45.089,jersey_experiment_5,2023.2.2,Win32,84.74576271,,,,,,,,,,,,,,,,894.8016,896.095,896.095,896.8716,return,0.0957,,51.30208333,,,,,,FBP-YG-17.png,0.4,1.2,33,0.5,,,,,,,,,,,,,,,,,,0,48,48,32,1,,,,,,,,,,,,,,,,,,,,,,,
,,,,,WIN24_069,21,Male,2024-02-23_11h30.45.089,jersey_experiment_5,2023.2.2,Win32,84.74576271,,,,,,,,,,,,,,,,896.872,898.1659,898.166,899.6485,return,0.0673,,46.61458333,,,,,,FBP-RB-71.png,0.35,1.2,16,0.5,,,,,,,,,,,,,,,,,,0,49,49,15,1,,,,,,,,,,,,,,,,,,,,,,,
,,,,,WIN24_069,21,Male,2024-02-23_11h30.45.089,jersey_experiment_5,2023.2.2,Win32,84.74576271,,,,,,,,,,,,,,,,899.6491,900.9423,900.9423,903.5778,return,0.1764,,50.26041667,,,,,,FBP-YG-17.png,0.45,1.2,35,0.5,,,,,,,,,,,,,,,,,,0,50,50,34,1,,,,,,,,,,,,,,,,,,,,,,,
,,,,,WIN24_069,21,Male,2024-02-23_11h30.45.089,jersey_experiment_5,2023.2.2,Win32,84.74576271,,,,,,,,,,,,,,,,903.578,905.3778,905.3778,905.8602,return,0.0614,,60.67708333,,,,,,FBP-PT-71.png,0.45,1.2,50,1,,,,,,,,,,,,,,,,,,0,51,51,49,1,,,,,,,,,,,,,,,,,,,,,,,
,,,,,WIN24_069,21,Male,2024-02-23_11h30.45.089,jersey_experiment_5,2023.2.2,Win32,84.74576271,,,,,,,,,,,,,,,,905.8604,907.1543,907.1543,908.5661,return,0.1208,,54.94791667,,,,,,FBP-YG-18.png,0.4,1.2,38,0.5,,,,,,,,,,,,,,,,,,0,52,52,37,1,,,,,,,,,,,,,,,,,,,,,,,
,,,,,WIN24_069,21,Male,2024-02-23_11h30.45.089,jersey_experiment_5,2023.2.2,Win32,84.74576271,,,,,,,,,,,,,,,,908.5663,910.3665,910.3665,911.3192,return,0.0961,,57.16145833,,,,,,FBP-PT-71.png,0.37,1.2,47,1,,,,,,,,,,,,,,,,,,0,53,53,46,1,,,,,,,,,,,,,,,,,,,,,,,
,,,,,WIN24_069,21,Male,2024-02-23_11h30.45.089,jersey_experiment_5,2023.2.2,Win32,84.74576271,,,,,,,,,,,,,,,,911.3194,913.1197,913.1198,913.931,return,0.1884,,71.74479167,,,,,,FBP-OG-18.png,0.43,1.2,9,1,,,,,,,,,,,,,,,,,,0,54,54,8,1,,,,,,,,,,,,,,,,,,,,,,,
,,,,,WIN24_069,21,Male,2024-02-23_11h30.45.089,jersey_experiment_5,2023.2.2,Win32,84.74576271,,,,,,,,,,,,,,,,913.9314,915.2252,915.2252,916.1782,return,0.3107,,62.23958333,,,,,,FBP-RB-81.png,0.37,1.2,22,0.5,,,,,,,,,,,,,,,,,,0,55,55,21,1,,,,,,,,,,,,,,,,,,,,,,,
,,,,,WIN24_069,21,Male,2024-02-23_11h30.45.089,jersey_experiment_5,2023.2.2,Win32,84.74576271,,,,,,,,,,,,,,,,916.1785,917.4726,917.4726,919.2842,return,0.8984,,49.08854167,,,,,,FBP-YG-17.png,0.35,1.2,31,0.5,,,,,,,,,,,,,,,,,,0,56,56,30,1,,,,,,,,,,,,,,,,,,,,,,,
,,,,,WIN24_069,21,Male,2024-02-23_11h30.45.089,jersey_experiment_5,2023.2.2,Win32,84.74576271,,,,,,,,,,,,,,,,919.2845,920.5785,920.5785,922.2961,return,0.6357,,64.453125,,,,,,FBP-RB-91.png,0.45,1.2,30,0.5,,,,,,,,,,,,,,,,,,0,57,57,29,1,,,,,,,,,,,,,,,,,,,,,,,
,,,,,WIN24_069,21,Male,2024-02-23_11h30.45.089,jersey_experiment_5,2023.2.2,Win32,84.74576271,,,,,,,,,,,,,,,,922.2963,923.5903,923.5903,924.9666,return,0.3084,,53.38541667,,,,,,FBP-RB-81.png,0.4,1.2,23,0.5,,,,,,,,,,,,,,,,,,0,58,58,22,1,,,,,,,,,,,,,,,,,,,,,,,
,,,,,WIN24_069,21,Male,2024-02-23_11h30.45.089,jersey_experiment_5,2023.2.2,Win32,84.74576271,,,,,,,,,,,,,,,,924.9669,926.7669,926.7669,927.4138,return,0.0505,,52.86458333,,,,,,FBP-OG-17.png,0.37,1.2,2,1,,,,,,,,,,,,,,,,,,0,59,59,1,1,,,,,,,,,,,,,,,,,,,,,,,
,,,,,WIN24_069,21,Male,2024-02-23_11h30.45.089,jersey_experiment_5,2023.2.2,Win32,84.74576271,,,,,,,,,,,,,,,,,,,,,,,,,,,,,,,,,,,,,,,,,,,,,,,,,,,,,,,,927.4143,931.6851,return,4.2629,,,,,,,,,,,,,,,,,,,
,,,,,WIN24_069,21,Male,2024-02-23_11h30.45.089,jersey_experiment_5,2023.2.2,Win32,84.74576271,,,,,,,,,,,,,,,,,,,,,,,,,,,,,,,,,,,,,,,,,,,,,,,,,,,,,,,,,,,,,931.6854,935.3322,1,3.0534,return,0.569,,,,,,,,,,,,
,,,,,WIN24_069,21,Male,2024-02-23_11h30.45.089,jersey_experiment_5,2023.2.2,Win32,84.74576271,,,,,,,,,,,,,,,,,,,,,,,,,,,,,,,,,,,,,,,,,,,,,,,,,,,,,,,,,,,,,,,,,,,,935.3326,996.2487,"Not really, but I wondered if it has to do with which dimensions and features (height/width/colors of clothing/etc.) lead to different ratings.",right,55.1392,,,,,,
,,,,,WIN24_069,21,Male,2024-02-23_11h30.45.089,jersey_experiment_5,2023.2.2,Win32,84.74576271,,,,,,,,,,,,,,,,,,,,,,,,,,,,,,,,,,,,,,,,,,,,,,,,,,,,,,,,,,,,,,,,,,,,,,,,,,996.2488,997.9462,return,1.6856,