requirements.started,requirements.stopped,key_resp_3.keys,key_resp_3.rt,key_resp_3.duration,Subject ID,Age,Gender,date,expName,psychopyVersion,OS,frameRate,instructions1.started,instructions1.stopped,key_resp.keys,key_resp.rt,key_resp.duration,example.started,example.stopped,enter_2.keys,enter_2.rt,enter_2.duration,instructions2.started,instructions2.stopped,enter_3.keys,enter_3.rt,enter_3.duration,image.started,image.stopped,slider_2.started,slider_2.stopped,next.keys,next.rt,next.duration,slider.response,trial_block_1.thisRepN,trial_block_1.thisTrialN,trial_block_1.thisN,trial_block_1.thisIndex,trial_block_1.ran,Path,Width,Height,Index,Duration,trial_block_2.thisRepN,trial_block_2.thisTrialN,trial_block_2.thisN,trial_block_2.thisIndex,trial_block_2.ran,rest_break.started,rest_break.stopped,end_break.started,end_break.stopped,key_resp_5.keys,key_resp_5.rt,key_resp_5.duration,trial_block_3.thisRepN,trial_block_3.thisTrialN,trial_block_3.thisN,trial_block_3.thisIndex,trial_block_3.ran,trial_block_4.thisRepN,trial_block_4.thisTrialN,trial_block_4.thisN,trial_block_4.thisIndex,trial_block_4.ran,questions_intro.started,questions_intro.stopped,enter_12.keys,enter_12.rt,enter_12.duration,question2.started,question2.stopped,question_doingbest.response,question_doingbest.rt,enter_15.keys,enter_15.rt,enter_15.duration,pattern.started,pattern.stopped,pattern_2.text,enter_17.keys,enter_17.rt,enter_17.duration,thankyou.started,thankyou.stopped,enter_14.keys,enter_14.rt,enter_14.duration
0.0002,15.6532,return,15.6491,,WIN24_053,20,Female,2024-02-09_16h03.18.149,jersey_experiment_5,2023.2.2,Win32,85.47008547,,,,,,,,,,,,,,,,,,,,,,,,,,,,,,,,,,,,,,,,,,,,,,,,,,,,,,,,,,,,,,,,,,,,,,,,,,,,,,
,,,,,WIN24_053,20,Female,2024-02-09_16h03.18.149,jersey_experiment_5,2023.2.2,Win32,85.47008547,15.6534,22.1278,return,6.4595,,,,,,,,,,,,,,,,,,,,,,,,,,,,,,,,,,,,,,,,,,,,,,,,,,,,,,,,,,,,,,,,,,,,,,,,,,
,,,,,WIN24_053,20,Female,2024-02-09_16h03.18.149,jersey_experiment_5,2023.2.2,Win32,85.47008547,,,,,,22.1279,25.9986,return,3.8322,,,,,,,,,,,,,,,,,,,,,,,,,,,,,,,,,,,,,,,,,,,,,,,,,,,,,,,,,,,,,,,,,,,,,
,,,,,WIN24_053,20,Female,2024-02-09_16h03.18.149,jersey_experiment_5,2023.2.2,Win32,85.47008547,,,,,,,,,,,25.9987,42.6229,return,16.6136,,,,,,,,,,,,,,,,,,,,,,,,,,,,,,,,,,,,,,,,,,,,,,,,,,,,,,,,,,,,,,,,
,,,,,WIN24_053,20,Female,2024-02-09_16h03.18.149,jersey_experiment_5,2023.2.2,Win32,85.47008547,,,,,,,,,,,,,,,,42.6304,44.4229,44.423,59.6586,return,2.9486,,58.203125,0,0,0,31,1,FBP-YG-71.png,0.37,1.2,32,1,,,,,,,,,,,,,,,,,,,,,,,,,,,,,,,,,,,,,,,,,,,,,
,,,,,WIN24_053,20,Female,2024-02-09_16h03.18.149,jersey_experiment_5,2023.2.2,Win32,85.47008547,,,,,,,,,,,,,,,,59.6591,60.9526,60.9526,66.4586,return,2.9251,,57.03125,0,1,1,1,1,FBP-OG-71.png,0.37,1.2,2,0.5,,,,,,,,,,,,,,,,,,,,,,,,,,,,,,,,,,,,,,,,,,,,,
,,,,,WIN24_053,20,Female,2024-02-09_16h03.18.149,jersey_experiment_5,2023.2.2,Win32,85.47008547,,,,,,,,,,,,,,,,66.4588,68.2588,68.2588,74.4824,return,4.48,,91.27604167,0,2,2,23,1,FBP-RB-18.png,0.43,1.2,24,1,,,,,,,,,,,,,,,,,,,,,,,,,,,,,,,,,,,,,,,,,,,,,
,,,,,WIN24_053,20,Female,2024-02-09_16h03.18.149,jersey_experiment_5,2023.2.2,Win32,85.47008547,,,,,,,,,,,,,,,,74.4868,76.2827,76.2827,78.8945,return,1.1544,,80.72916667,0,3,3,17,1,FBP-RB-17.png,0.4,1.2,18,1,,,,,,,,,,,,,,,,,,,,,,,,,,,,,,,,,,,,,,,,,,,,,
,,,,,WIN24_053,20,Female,2024-02-09_16h03.18.149,jersey_experiment_5,2023.2.2,Win32,85.47008547,,,,,,,,,,,,,,,,78.8948,80.1887,80.1887,84.0005,return,0.8145,,25.390625,0,4,4,55,1,FBP-PT-19.png,0.35,1.2,56,0.5,,,,,,,,,,,,,,,,,,,,,,,,,,,,,,,,,,,,,,,,,,,,,
,,,,,WIN24_053,20,Female,2024-02-09_16h03.18.149,jersey_experiment_5,2023.2.2,Win32,85.47008547,,,,,,,,,,,,,,,,84.0007,85.8005,85.8005,88.3536,return,0.9085,,95.44270833,0,5,5,34,1,FBP-YG-71.png,0.45,1.2,35,1,,,,,,,,,,,,,,,,,,,,,,,,,,,,,,,,,,,,,,,,,,,,,
,,,,,WIN24_053,20,Female,2024-02-09_16h03.18.149,jersey_experiment_5,2023.2.2,Win32,85.47008547,,,,,,,,,,,,,,,,88.3539,89.6477,89.6477,91.4597,return,1.0117,,96.74479167,0,6,6,59,1,FBP-PT-19.png,0.45,1.2,60,0.5,,,,,,,,,,,,,,,,,,,,,,,,,,,,,,,,,,,,,,,,,,,,,
,,,,,WIN24_053,20,Female,2024-02-09_16h03.18.149,jersey_experiment_5,2023.2.2,Win32,85.47008547,,,,,,,,,,,,,,,,91.4599,93.2598,93.2598,96.3186,return,1.274,,93.359375,0,7,7,39,1,FBP-YG-81.png,0.45,1.2,40,1,,,,,,,,,,,,,,,,,,,,,,,,,,,,,,,,,,,,,,,,,,,,,
,,,,,WIN24_053,20,Female,2024-02-09_16h03.18.149,jersey_experiment_5,2023.2.2,Win32,85.47008547,,,,,,,,,,,,,,,,96.3188,97.6127,97.6127,100.8952,return,1.4125,,38.80208333,0,8,8,51,1,FBP-PT-18.png,0.37,1.2,52,0.5,,,,,,,,,,,,,,,,,,,,,,,,,,,,,,,,,,,,,,,,,,,,,
,,,,,WIN24_053,20,Female,2024-02-09_16h03.18.149,jersey_experiment_5,2023.2.2,Win32,85.47008547,,,,,,,,,,,,,,,,100.8954,102.1894,102.1895,105.1659,return,0.9774,,75.52083333,0,9,9,9,1,FBP-OG-81.png,0.45,1.2,10,0.5,,,,,,,,,,,,,,,,,,,,,,,,,,,,,,,,,,,,,,,,,,,,,
,,,,,WIN24_053,20,Female,2024-02-09_16h03.18.149,jersey_experiment_5,2023.2.2,Win32,85.47008547,,,,,,,,,,,,,,,,105.1662,106.966,106.966,108.8602,return,0.9328,,81.77083333,0,10,10,43,1,FBP-YG-91.png,0.43,1.2,44,1,,,,,,,,,,,,,,,,,,,,,,,,,,,,,,,,,,,,,,,,,,,,,
,,,,,WIN24_053,20,Female,2024-02-09_16h03.18.149,jersey_experiment_5,2023.2.2,Win32,85.47008547,,,,,,,,,,,,,,,,108.8604,110.6601,110.6602,113.2249,return,1.0092,,24.609375,0,11,11,30,1,FBP-YG-71.png,0.35,1.2,31,1,,,,,,,,,,,,,,,,,,,,,,,,,,,,,,,,,,,,,,,,,,,,,
,,,,,WIN24_053,20,Female,2024-02-09_16h03.18.149,jersey_experiment_5,2023.2.2,Win32,85.47008547,,,,,,,,,,,,,,,,113.2251,114.5193,114.5193,118.1546,return,0.793,,49.47916667,0,12,12,47,1,FBP-PT-17.png,0.4,1.2,48,0.5,,,,,,,,,,,,,,,,,,,,,,,,,,,,,,,,,,,,,,,,,,,,,
,,,,,WIN24_053,20,Female,2024-02-09_16h03.18.149,jersey_experiment_5,2023.2.2,Win32,85.47008547,,,,,,,,,,,,,,,,118.1548,119.4487,119.4487,121.9549,return,1.2943,,42.1875,0,13,13,6,1,FBP-OG-81.png,0.37,1.2,7,0.5,,,,,,,,,,,,,,,,,,,,,,,,,,,,,,,,,,,,,,,,,,,,,
,,,,,WIN24_053,20,Female,2024-02-09_16h03.18.149,jersey_experiment_5,2023.2.2,Win32,85.47008547,,,,,,,,,,,,,,,,121.9552,123.7549,123.7549,126.1314,return,1.1862,,26.82291667,0,14,14,26,1,FBP-RB-19.png,0.37,1.2,27,1,,,,,,,,,,,,,,,,,,,,,,,,,,,,,,,,,,,,,,,,,,,,,
,,,,,WIN24_053,20,Female,2024-02-09_16h03.18.149,jersey_experiment_5,2023.2.2,Win32,85.47008547,,,,,,,,,,,,,,,,126.1317,127.4255,127.4256,130.308,return,1.4028,,24.21875,0,15,15,10,1,FBP-OG-91.png,0.35,1.2,11,0.5,,,,,,,,,,,,,,,,,,,,,,,,,,,,,,,,,,,,,,,,,,,,,
,,,,,WIN24_053,20,Female,2024-02-09_16h03.18.149,jersey_experiment_5,2023.2.2,Win32,85.47008547,,,,,,,,,,,,,,,,130.3083,131.6022,131.6022,135.1553,return,1.0736,,75.13020833,0,16,16,49,1,FBP-PT-17.png,0.45,1.2,50,0.5,,,,,,,,,,,,,,,,,,,,,,,,,,,,,,,,,,,,,,,,,,,,,
,,,,,WIN24_053,20,Female,2024-02-09_16h03.18.149,jersey_experiment_5,2023.2.2,Win32,85.47008547,,,,,,,,,,,,,,,,135.1555,136.9553,136.9553,139.5201,return,1.1313,,87.109375,0,17,17,18,1,FBP-RB-17.png,0.43,1.2,19,1,,,,,,,,,,,,,,,,,,,,,,,,,,,,,,,,,,,,,,,,,,,,,
,,,,,WIN24_053,20,Female,2024-02-09_16h03.18.149,jersey_experiment_5,2023.2.2,Win32,85.47008547,,,,,,,,,,,,,,,,139.5203,140.8142,140.8143,143.6498,return,1.0498,,90.49479167,0,18,18,53,1,FBP-PT-18.png,0.43,1.2,54,0.5,,,,,,,,,,,,,,,,,,,,,,,,,,,,,,,,,,,,,,,,,,,,,
,,,,,WIN24_053,20,Female,2024-02-09_16h03.18.149,jersey_experiment_5,2023.2.2,Win32,85.47008547,,,,,,,,,,,,,,,,143.65,145.4496,145.4496,148.6028,return,0.8637,,100,0,19,19,19,1,FBP-RB-17.png,0.45,1.2,20,1,,,,,,,,,,,,,,,,,,,,,,,,,,,,,,,,,,,,,,,,,,,,,
,,,,,WIN24_053,20,Female,2024-02-09_16h03.18.149,jersey_experiment_5,2023.2.2,Win32,85.47008547,,,,,,,,,,,,,,,,148.603,150.4029,150.403,153.003,return,1.0659,,96.35416667,0,20,20,28,1,FBP-RB-19.png,0.43,1.2,29,1,,,,,,,,,,,,,,,,,,,,,,,,,,,,,,,,,,,,,,,,,,,,,
,,,,,WIN24_053,20,Female,2024-02-09_16h03.18.149,jersey_experiment_5,2023.2.2,Win32,85.47008547,,,,,,,,,,,,,,,,153.0032,154.8029,154.803,158.2385,return,1.0739,,24.609375,0,21,21,15,1,FBP-RB-17.png,0.35,1.2,16,1,,,,,,,,,,,,,,,,,,,,,,,,,,,,,,,,,,,,,,,,,,,,,
,,,,,WIN24_053,20,Female,2024-02-09_16h03.18.149,jersey_experiment_5,2023.2.2,Win32,85.47008547,,,,,,,,,,,,,,,,158.2387,160.0384,160.0384,163.0033,return,0.9573,,24.34895833,0,22,22,21,1,FBP-RB-18.png,0.37,1.2,22,1,,,,,,,,,,,,,,,,,,,,,,,,,,,,,,,,,,,,,,,,,,,,,
,,,,,WIN24_053,20,Female,2024-02-09_16h03.18.149,jersey_experiment_5,2023.2.2,Win32,85.47008547,,,,,,,,,,,,,,,,163.0035,164.2975,164.2975,167.3564,return,1.1678,,12.109375,0,23,23,45,1,FBP-PT-17.png,0.35,1.2,46,0.5,,,,,,,,,,,,,,,,,,,,,,,,,,,,,,,,,,,,,,,,,,,,,
,,,,,WIN24_053,20,Female,2024-02-09_16h03.18.149,jersey_experiment_5,2023.2.2,Win32,85.47008547,,,,,,,,,,,,,,,,167.3566,168.6506,168.6506,171.6154,return,0.8826,,98.95833333,0,24,24,48,1,FBP-PT-17.png,0.43,1.2,49,0.5,,,,,,,,,,,,,,,,,,,,,,,,,,,,,,,,,,,,,,,,,,,,,
,,,,,WIN24_053,20,Female,2024-02-09_16h03.18.149,jersey_experiment_5,2023.2.2,Win32,85.47008547,,,,,,,,,,,,,,,,171.6156,173.4156,173.4156,176.0274,return,1.5339,,98.56770833,0,25,25,24,1,FBP-RB-18.png,0.45,1.2,25,1,,,,,,,,,,,,,,,,,,,,,,,,,,,,,,,,,,,,,,,,,,,,,
,,,,,WIN24_053,20,Female,2024-02-09_16h03.18.149,jersey_experiment_5,2023.2.2,Win32,85.47008547,,,,,,,,,,,,,,,,176.0276,177.8274,177.8274,180.1098,return,0.8748,,49.73958333,0,26,26,20,1,FBP-RB-18.png,0.35,1.2,21,1,,,,,,,,,,,,,,,,,,,,,,,,,,,,,,,,,,,,,,,,,,,,,
,,,,,WIN24_053,20,Female,2024-02-09_16h03.18.149,jersey_experiment_5,2023.2.2,Win32,85.47008547,,,,,,,,,,,,,,,,180.11,181.404,181.404,184.8042,return,1.248,,59.11458333,0,27,27,46,1,FBP-PT-17.png,0.37,1.2,47,0.5,,,,,,,,,,,,,,,,,,,,,,,,,,,,,,,,,,,,,,,,,,,,,
,,,,,WIN24_053,20,Female,2024-02-09_16h03.18.149,jersey_experiment_5,2023.2.2,Win32,85.47008547,,,,,,,,,,,,,,,,184.8044,186.0983,186.0983,189.4043,return,1.394,,25.13020833,0,28,28,0,1,FBP-OG-71.png,0.35,1.2,1,0.5,,,,,,,,,,,,,,,,,,,,,,,,,,,,,,,,,,,,,,,,,,,,,
,,,,,WIN24_053,20,Female,2024-02-09_16h03.18.149,jersey_experiment_5,2023.2.2,Win32,85.47008547,,,,,,,,,,,,,,,,189.4044,191.2045,191.2045,193.5927,return,0.913,,99.08854167,0,29,29,29,1,FBP-RB-19.png,0.45,1.2,30,1,,,,,,,,,,,,,,,,,,,,,,,,,,,,,,,,,,,,,,,,,,,,,
,,,,,WIN24_053,20,Female,2024-02-09_16h03.18.149,jersey_experiment_5,2023.2.2,Win32,85.47008547,,,,,,,,,,,,,,,,193.593,194.8868,194.8868,197.3458,return,1.1915,,98.828125,0,30,30,3,1,FBP-OG-71.png,0.43,1.2,4,0.5,,,,,,,,,,,,,,,,,,,,,,,,,,,,,,,,,,,,,,,,,,,,,
,,,,,WIN24_053,20,Female,2024-02-09_16h03.18.149,jersey_experiment_5,2023.2.2,Win32,85.47008547,,,,,,,,,,,,,,,,197.3459,199.1458,199.1458,201.8752,return,0.8708,,50.13020833,0,31,31,35,1,FBP-YG-81.png,0.35,1.2,36,1,,,,,,,,,,,,,,,,,,,,,,,,,,,,,,,,,,,,,,,,,,,,,
,,,,,WIN24_053,20,Female,2024-02-09_16h03.18.149,jersey_experiment_5,2023.2.2,Win32,85.47008547,,,,,,,,,,,,,,,,201.8755,203.6755,203.6755,205.7461,return,0.8143,,73.4375,0,32,32,41,1,FBP-YG-91.png,0.37,1.2,42,1,,,,,,,,,,,,,,,,,,,,,,,,,,,,,,,,,,,,,,,,,,,,,
,,,,,WIN24_053,20,Female,2024-02-09_16h03.18.149,jersey_experiment_5,2023.2.2,Win32,85.47008547,,,,,,,,,,,,,,,,205.7463,207.5461,207.5461,210.1463,return,0.7913,,98.95833333,0,33,33,33,1,FBP-YG-71.png,0.43,1.2,34,1,,,,,,,,,,,,,,,,,,,,,,,,,,,,,,,,,,,,,,,,,,,,,
,,,,,WIN24_053,20,Female,2024-02-09_16h03.18.149,jersey_experiment_5,2023.2.2,Win32,85.47008547,,,,,,,,,,,,,,,,210.1464,211.9463,211.9463,215.1464,return,0.7369,,50.26041667,0,34,34,25,1,FBP-RB-19.png,0.35,1.2,26,1,,,,,,,,,,,,,,,,,,,,,,,,,,,,,,,,,,,,,,,,,,,,,
,,,,,WIN24_053,20,Female,2024-02-09_16h03.18.149,jersey_experiment_5,2023.2.2,Win32,85.47008547,,,,,,,,,,,,,,,,215.1467,216.9467,216.9467,218.7936,return,0.7943,,74.86979167,0,35,35,42,1,FBP-YG-91.png,0.4,1.2,43,1,,,,,,,,,,,,,,,,,,,,,,,,,,,,,,,,,,,,,,,,,,,,,
,,,,,WIN24_053,20,Female,2024-02-09_16h03.18.149,jersey_experiment_5,2023.2.2,Win32,85.47008547,,,,,,,,,,,,,,,,218.7936,220.0877,220.0877,223.4173,return,1.4324,,98.30729167,0,36,36,13,1,FBP-OG-91.png,0.43,1.2,14,0.5,,,,,,,,,,,,,,,,,,,,,,,,,,,,,,,,,,,,,,,,,,,,,
,,,,,WIN24_053,20,Female,2024-02-09_16h03.18.149,jersey_experiment_5,2023.2.2,Win32,85.47008547,,,,,,,,,,,,,,,,223.4175,224.7115,224.7115,227.441,return,0.7768,,75,0,37,37,7,1,FBP-OG-81.png,0.4,1.2,8,0.5,,,,,,,,,,,,,,,,,,,,,,,,,,,,,,,,,,,,,,,,,,,,,
,,,,,WIN24_053,20,Female,2024-02-09_16h03.18.149,jersey_experiment_5,2023.2.2,Win32,85.47008547,,,,,,,,,,,,,,,,227.4412,228.7351,228.7352,230.8294,return,0.8962,,98.17708333,0,38,38,54,1,FBP-PT-18.png,0.45,1.2,55,0.5,,,,,,,,,,,,,,,,,,,,,,,,,,,,,,,,,,,,,,,,,,,,,
,,,,,WIN24_053,20,Female,2024-02-09_16h03.18.149,jersey_experiment_5,2023.2.2,Win32,85.47008547,,,,,,,,,,,,,,,,230.8295,232.1235,232.1235,233.9235,return,0.809,,99.21875,0,39,39,4,1,FBP-OG-71.png,0.45,1.2,5,0.5,,,,,,,,,,,,,,,,,,,,,,,,,,,,,,,,,,,,,,,,,,,,,
,,,,,WIN24_053,20,Female,2024-02-09_16h03.18.149,jersey_experiment_5,2023.2.2,Win32,85.47008547,,,,,,,,,,,,,,,,233.9237,235.7237,235.7237,239.3003,return,2.0476,,53.64583333,0,40,40,16,1,FBP-RB-17.png,0.37,1.2,17,1,,,,,,,,,,,,,,,,,,,,,,,,,,,,,,,,,,,,,,,,,,,,,
,,,,,WIN24_053,20,Female,2024-02-09_16h03.18.149,jersey_experiment_5,2023.2.2,Win32,85.47008547,,,,,,,,,,,,,,,,239.3005,240.5946,240.5946,242.6886,return,0.7914,,74.08854167,0,41,41,58,1,FBP-PT-19.png,0.43,1.2,59,0.5,,,,,,,,,,,,,,,,,,,,,,,,,,,,,,,,,,,,,,,,,,,,,
,,,,,WIN24_053,20,Female,2024-02-09_16h03.18.149,jersey_experiment_5,2023.2.2,Win32,85.47008547,,,,,,,,,,,,,,,,242.6889,243.9827,243.9828,246.1946,return,0.8946,,72.65625,0,42,42,2,1,FBP-OG-71.png,0.4,1.2,3,0.5,,,,,,,,,,,,,,,,,,,,,,,,,,,,,,,,,,,,,,,,,,,,,
,,,,,WIN24_053,20,Female,2024-02-09_16h03.18.149,jersey_experiment_5,2023.2.2,Win32,85.47008547,,,,,,,,,,,,,,,,246.1949,247.4887,247.4888,249.8064,return,1.0717,,49.609375,0,43,43,11,1,FBP-OG-91.png,0.37,1.2,12,0.5,,,,,,,,,,,,,,,,,,,,,,,,,,,,,,,,,,,,,,,,,,,,,
,,,,,WIN24_053,20,Female,2024-02-09_16h03.18.149,jersey_experiment_5,2023.2.2,Win32,85.47008547,,,,,,,,,,,,,,,,249.8067,251.1006,251.1006,253.3595,return,0.8824,,73.828125,0,44,44,57,1,FBP-PT-19.png,0.4,1.2,58,0.5,,,,,,,,,,,,,,,,,,,,,,,,,,,,,,,,,,,,,,,,,,,,,
,,,,,WIN24_053,20,Female,2024-02-09_16h03.18.149,jersey_experiment_5,2023.2.2,Win32,85.47008547,,,,,,,,,,,,,,,,253.3597,255.1596,255.1596,258.2656,return,0.82,,66.14583333,0,45,45,27,1,FBP-RB-19.png,0.4,1.2,28,1,,,,,,,,,,,,,,,,,,,,,,,,,,,,,,,,,,,,,,,,,,,,,
,,,,,WIN24_053,20,Female,2024-02-09_16h03.18.149,jersey_experiment_5,2023.2.2,Win32,85.47008547,,,,,,,,,,,,,,,,258.2659,259.5597,259.5598,261.8539,return,0.663,,100,0,46,46,14,1,FBP-OG-91.png,0.45,1.2,15,0.5,,,,,,,,,,,,,,,,,,,,,,,,,,,,,,,,,,,,,,,,,,,,,
,,,,,WIN24_053,20,Female,2024-02-09_16h03.18.149,jersey_experiment_5,2023.2.2,Win32,85.47008547,,,,,,,,,,,,,,,,261.8542,263.6541,263.6541,265.6188,return,0.8241,,99.73958333,0,47,47,38,1,FBP-YG-81.png,0.43,1.2,39,1,,,,,,,,,,,,,,,,,,,,,,,,,,,,,,,,,,,,,,,,,,,,,
,,,,,WIN24_053,20,Female,2024-02-09_16h03.18.149,jersey_experiment_5,2023.2.2,Win32,85.47008547,,,,,,,,,,,,,,,,265.619,266.9129,266.913,269.1483,return,0.9231,,24.86979167,0,48,48,50,1,FBP-PT-18.png,0.35,1.2,51,0.5,,,,,,,,,,,,,,,,,,,,,,,,,,,,,,,,,,,,,,,,,,,,,
,,,,,WIN24_053,20,Female,2024-02-09_16h03.18.149,jersey_experiment_5,2023.2.2,Win32,85.47008547,,,,,,,,,,,,,,,,269.1486,270.4425,270.4425,272.8309,return,0.956,,4.817708333,0,49,49,5,1,FBP-OG-81.png,0.35,1.2,6,0.5,,,,,,,,,,,,,,,,,,,,,,,,,,,,,,,,,,,,,,,,,,,,,
,,,,,WIN24_053,20,Female,2024-02-09_16h03.18.149,jersey_experiment_5,2023.2.2,Win32,85.47008547,,,,,,,,,,,,,,,,272.8311,274.1251,274.1251,276.3485,return,0.7348,,57.421875,0,50,50,52,1,FBP-PT-18.png,0.4,1.2,53,0.5,,,,,,,,,,,,,,,,,,,,,,,,,,,,,,,,,,,,,,,,,,,,,
,,,,,WIN24_053,20,Female,2024-02-09_16h03.18.149,jersey_experiment_5,2023.2.2,Win32,85.47008547,,,,,,,,,,,,,,,,276.3487,277.6427,277.6427,279.7369,return,0.9266,,75.13020833,0,51,51,12,1,FBP-OG-91.png,0.4,1.2,13,0.5,,,,,,,,,,,,,,,,,,,,,,,,,,,,,,,,,,,,,,,,,,,,,
,,,,,WIN24_053,20,Female,2024-02-09_16h03.18.149,jersey_experiment_5,2023.2.2,Win32,85.47008547,,,,,,,,,,,,,,,,279.7372,281.537,281.537,284.137,return,0.7146,,50,0,52,52,36,1,FBP-YG-81.png,0.37,1.2,37,1,,,,,,,,,,,,,,,,,,,,,,,,,,,,,,,,,,,,,,,,,,,,,
,,,,,WIN24_053,20,Female,2024-02-09_16h03.18.149,jersey_experiment_5,2023.2.2,Win32,85.47008547,,,,,,,,,,,,,,,,284.1373,285.4311,285.4312,287.3726,return,0.8267,,74.86979167,0,53,53,8,1,FBP-OG-81.png,0.43,1.2,9,0.5,,,,,,,,,,,,,,,,,,,,,,,,,,,,,,,,,,,,,,,,,,,,,
,,,,,WIN24_053,20,Female,2024-02-09_16h03.18.149,jersey_experiment_5,2023.2.2,Win32,85.47008547,,,,,,,,,,,,,,,,287.3728,289.1725,289.1726,291.2787,return,0.7547,,75.78125,0,54,54,37,1,FBP-YG-81.png,0.4,1.2,38,1,,,,,,,,,,,,,,,,,,,,,,,,,,,,,,,,,,,,,,,,,,,,,
,,,,,WIN24_053,20,Female,2024-02-09_16h03.18.149,jersey_experiment_5,2023.2.2,Win32,85.47008547,,,,,,,,,,,,,,,,291.2788,292.5726,292.5726,295.1376,return,0.7675,,60.15625,0,55,55,56,1,FBP-PT-19.png,0.37,1.2,57,0.5,,,,,,,,,,,,,,,,,,,,,,,,,,,,,,,,,,,,,,,,,,,,,
,,,,,WIN24_053,20,Female,2024-02-09_16h03.18.149,jersey_experiment_5,2023.2.2,Win32,85.47008547,,,,,,,,,,,,,,,,295.1378,296.9375,296.9376,298.9729,return,0.8028,,99.609375,0,56,56,44,1,FBP-YG-91.png,0.45,1.2,45,1,,,,,,,,,,,,,,,,,,,,,,,,,,,,,,,,,,,,,,,,,,,,,
,,,,,WIN24_053,20,Female,2024-02-09_16h03.18.149,jersey_experiment_5,2023.2.2,Win32,85.47008547,,,,,,,,,,,,,,,,298.9731,300.773,300.773,302.8791,return,0.73,,74.21875,0,57,57,22,1,FBP-RB-18.png,0.4,1.2,23,1,,,,,,,,,,,,,,,,,,,,,,,,,,,,,,,,,,,,,,,,,,,,,
,,,,,WIN24_053,20,Female,2024-02-09_16h03.18.149,jersey_experiment_5,2023.2.2,Win32,85.47008547,,,,,,,,,,,,,,,,302.8793,304.679,304.679,307.6438,return,0.712,,97.39583333,0,58,58,32,1,FBP-YG-71.png,0.4,1.2,33,1,,,,,,,,,,,,,,,,,,,,,,,,,,,,,,,,,,,,,,,,,,,,,
,,,,,WIN24_053,20,Female,2024-02-09_16h03.18.149,jersey_experiment_5,2023.2.2,Win32,85.47008547,,,,,,,,,,,,,,,,307.644,309.4441,309.4442,311.4205,return,0.7326,,25.52083333,0,59,59,40,1,FBP-YG-91.png,0.35,1.2,41,1,,,,,,,,,,,,,,,,,,,,,,,,,,,,,,,,,,,,,,,,,,,,,
,,,,,WIN24_053,20,Female,2024-02-09_16h03.18.149,jersey_experiment_5,2023.2.2,Win32,85.47008547,,,,,,,,,,,,,,,,311.4226,313.2205,313.2205,315.6912,return,0.8301,,26.5625,,,,,,FBP-RB-81.png,0.37,1.2,22,1,0,0,0,21,1,,,,,,,,,,,,,,,,,,,,,,,,,,,,,,,,,,,,,,,,
,,,,,WIN24_053,20,Female,2024-02-09_16h03.18.149,jersey_experiment_5,2023.2.2,Win32,85.47008547,,,,,,,,,,,,,,,,315.6916,316.9853,316.9853,319.4561,return,0.8581,,98.4375,,,,,,FBP-OG-18.png,0.45,1.2,10,0.5,0,1,1,9,1,,,,,,,,,,,,,,,,,,,,,,,,,,,,,,,,,,,,,,,,
,,,,,WIN24_053,20,Female,2024-02-09_16h03.18.149,jersey_experiment_5,2023.2.2,Win32,85.47008547,,,,,,,,,,,,,,,,319.4564,320.7501,320.7501,323.7857,return,0.8079,,49.47916667,,,,,,FBP-PT-81.png,0.35,1.2,51,0.5,0,2,2,50,1,,,,,,,,,,,,,,,,,,,,,,,,,,,,,,,,,,,,,,,,
,,,,,WIN24_053,20,Female,2024-02-09_16h03.18.149,jersey_experiment_5,2023.2.2,Win32,85.47008547,,,,,,,,,,,,,,,,323.7858,325.5858,325.5858,327.6915,return,0.8766,,98.95833333,,,,,,FBP-RB-71.png,0.45,1.2,20,1,0,3,3,19,1,,,,,,,,,,,,,,,,,,,,,,,,,,,,,,,,,,,,,,,,
,,,,,WIN24_053,20,Female,2024-02-09_16h03.18.149,jersey_experiment_5,2023.2.2,Win32,85.47008547,,,,,,,,,,,,,,,,327.6917,328.9856,328.9857,331.2917,return,0.7453,,87.5,,,,,,FBP-OG-19.png,0.4,1.2,13,0.5,0,4,4,12,1,,,,,,,,,,,,,,,,,,,,,,,,,,,,,,,,,,,,,,,,
,,,,,WIN24_053,20,Female,2024-02-09_16h03.18.149,jersey_experiment_5,2023.2.2,Win32,85.47008547,,,,,,,,,,,,,,,,331.292,332.5859,332.5859,334.4801,return,0.8233,,98.30729167,,,,,,FBP-PT-91.png,0.45,1.2,60,0.5,0,5,5,59,1,,,,,,,,,,,,,,,,,,,,,,,,,,,,,,,,,,,,,,,,
,,,,,WIN24_053,20,Female,2024-02-09_16h03.18.149,jersey_experiment_5,2023.2.2,Win32,85.47008547,,,,,,,,,,,,,,,,334.4804,335.7743,335.7743,337.9156,return,0.8651,,80.72916667,,,,,,FBP-PT-81.png,0.4,1.2,53,0.5,0,6,6,52,1,,,,,,,,,,,,,,,,,,,,,,,,,,,,,,,,,,,,,,,,
,,,,,WIN24_053,20,Female,2024-02-09_16h03.18.149,jersey_experiment_5,2023.2.2,Win32,85.47008547,,,,,,,,,,,,,,,,337.9157,339.2097,339.2097,341.0215,return,0.7455,,35.9375,,,,,,FBP-PT-91.png,0.35,1.2,56,0.5,0,7,7,55,1,,,,,,,,,,,,,,,,,,,,,,,,,,,,,,,,,,,,,,,,
,,,,,WIN24_053,20,Female,2024-02-09_16h03.18.149,jersey_experiment_5,2023.2.2,Win32,85.47008547,,,,,,,,,,,,,,,,341.0217,342.8216,342.8216,344.4099,return,0.7494,,36.58854167,,,,,,FBP-RB-71.png,0.37,1.2,17,1,0,8,8,16,1,,,,,,,,,,,,,,,,,,,,,,,,,,,,,,,,,,,,,,,,
,,,,,WIN24_053,20,Female,2024-02-09_16h03.18.149,jersey_experiment_5,2023.2.2,Win32,85.47008547,,,,,,,,,,,,,,,,344.4102,345.7041,345.7041,348.2335,return,0.9023,,49.86979167,,,,,,FBP-OG-18.png,0.4,1.2,8,0.5,0,9,9,7,1,,,,,,,,,,,,,,,,,,,,,,,,,,,,,,,,,,,,,,,,
,,,,,WIN24_053,20,Female,2024-02-09_16h03.18.149,jersey_experiment_5,2023.2.2,Win32,85.47008547,,,,,,,,,,,,,,,,348.2338,349.5277,349.5277,352.0573,return,0.7736,,50.26041667,,,,,,FBP-PT-71.png,0.37,1.2,47,0.5,0,10,10,46,1,,,,,,,,,,,,,,,,,,,,,,,,,,,,,,,,,,,,,,,,
,,,,,WIN24_053,20,Female,2024-02-09_16h03.18.149,jersey_experiment_5,2023.2.2,Win32,85.47008547,,,,,,,,,,,,,,,,352.0575,353.8573,353.8573,356.1867,return,1.5602,,50.390625,,,,,,FBP-YG-19.png,0.4,1.2,43,1,0,11,11,42,1,,,,,,,,,,,,,,,,,,,,,,,,,,,,,,,,,,,,,,,,
,,,,,WIN24_053,20,Female,2024-02-09_16h03.18.149,jersey_experiment_5,2023.2.2,Win32,85.47008547,,,,,,,,,,,,,,,,356.1869,357.4809,357.4809,359.681,return,1.0497,,92.578125,,,,,,FBP-PT-71.png,0.45,1.2,50,0.5,0,12,12,49,1,,,,,,,,,,,,,,,,,,,,,,,,,,,,,,,,,,,,,,,,
,,,,,WIN24_053,20,Female,2024-02-09_16h03.18.149,jersey_experiment_5,2023.2.2,Win32,85.47008547,,,,,,,,,,,,,,,,359.6812,361.4812,361.4812,363.8693,return,0.7789,,67.31770833,,,,,,FBP-YG-19.png,0.37,1.2,42,1,0,13,13,41,1,,,,,,,,,,,,,,,,,,,,,,,,,,,,,,,,,,,,,,,,
,,,,,WIN24_053,20,Female,2024-02-09_16h03.18.149,jersey_experiment_5,2023.2.2,Win32,85.47008547,,,,,,,,,,,,,,,,363.8696,365.6694,365.6695,367.4695,return,0.8163,,95.703125,,,,,,FBP-YG-19.png,0.43,1.2,44,1,0,14,14,43,1,,,,,,,,,,,,,,,,,,,,,,,,,,,,,,,,,,,,,,,,
,,,,,WIN24_053,20,Female,2024-02-09_16h03.18.149,jersey_experiment_5,2023.2.2,Win32,85.47008547,,,,,,,,,,,,,,,,367.4697,368.7637,368.7637,370.9049,return,0.7736,,50,,,,,,FBP-OG-19.png,0.37,1.2,12,0.5,0,15,15,11,1,,,,,,,,,,,,,,,,,,,,,,,,,,,,,,,,,,,,,,,,
,,,,,WIN24_053,20,Female,2024-02-09_16h03.18.149,jersey_experiment_5,2023.2.2,Win32,85.47008547,,,,,,,,,,,,,,,,370.9051,372.705,372.705,374.6698,return,0.9669,,74.86979167,,,,,,FBP-YG-17.png,0.4,1.2,33,1,0,16,16,32,1,,,,,,,,,,,,,,,,,,,,,,,,,,,,,,,,,,,,,,,,
,,,,,WIN24_053,20,Female,2024-02-09_16h03.18.149,jersey_experiment_5,2023.2.2,Win32,85.47008547,,,,,,,,,,,,,,,,374.6701,375.9639,375.964,377.9052,return,0.8474,,99.34895833,,,,,,FBP-PT-71.png,0.43,1.2,49,0.5,0,17,17,48,1,,,,,,,,,,,,,,,,,,,,,,,,,,,,,,,,,,,,,,,,
,,,,,WIN24_053,20,Female,2024-02-09_16h03.18.149,jersey_experiment_5,2023.2.2,Win32,85.47008547,,,,,,,,,,,,,,,,377.9054,379.1993,379.1993,382.3288,return,0.6676,,64.71354167,,,,,,FBP-OG-18.png,0.37,1.2,7,0.5,0,18,18,6,1,,,,,,,,,,,,,,,,,,,,,,,,,,,,,,,,,,,,,,,,
,,,,,WIN24_053,20,Female,2024-02-09_16h03.18.149,jersey_experiment_5,2023.2.2,Win32,85.47008547,,,,,,,,,,,,,,,,382.3289,383.623,383.623,386.4585,return,1.7698,,75.26041667,,,,,,FBP-PT-91.png,0.43,1.2,59,0.5,0,19,19,58,1,,,,,,,,,,,,,,,,,,,,,,,,,,,,,,,,,,,,,,,,
,,,,,WIN24_053,20,Female,2024-02-09_16h03.18.149,jersey_experiment_5,2023.2.2,Win32,85.47008547,,,,,,,,,,,,,,,,386.4588,388.2585,388.2585,389.988,return,0.7202,,24.73958333,,,,,,FBP-YG-19.png,0.35,1.2,41,1,0,20,20,40,1,,,,,,,,,,,,,,,,,,,,,,,,,,,,,,,,,,,,,,,,
,,,,,WIN24_053,20,Female,2024-02-09_16h03.18.149,jersey_experiment_5,2023.2.2,Win32,85.47008547,,,,,,,,,,,,,,,,389.9881,391.2822,391.2822,392.6822,return,0.7472,,24.73958333,,,,,,FBP-OG-17.png,0.35,1.2,1,0.5,0,21,21,0,1,,,,,,,,,,,,,,,,,,,,,,,,,,,,,,,,,,,,,,,,
,,,,,WIN24_053,20,Female,2024-02-09_16h03.18.149,jersey_experiment_5,2023.2.2,Win32,85.47008547,,,,,,,,,,,,,,,,392.6825,394.4823,394.4823,396.2117,return,0.7532,,33.07291667,,,,,,FBP-RB-81.png,0.35,1.2,21,1,0,22,22,20,1,,,,,,,,,,,,,,,,,,,,,,,,,,,,,,,,,,,,,,,,
,,,,,WIN24_053,20,Female,2024-02-09_16h03.18.149,jersey_experiment_5,2023.2.2,Win32,85.47008547,,,,,,,,,,,,,,,,396.212,397.5059,397.5059,400.4471,return,0.8118,,77.08333333,,,,,,FBP-OG-17.png,0.45,1.2,5,0.5,0,23,23,4,1,,,,,,,,,,,,,,,,,,,,,,,,,,,,,,,,,,,,,,,,
,,,,,WIN24_053,20,Female,2024-02-09_16h03.18.149,jersey_experiment_5,2023.2.2,Win32,85.47008547,,,,,,,,,,,,,,,,400.4473,401.7413,401.7413,404.4004,return,0.7073,,99.73958333,,,,,,FBP-OG-19.png,0.45,1.2,15,0.5,0,24,24,14,1,,,,,,,,,,,,,,,,,,,,,,,,,,,,,,,,,,,,,,,,
,,,,,WIN24_053,20,Female,2024-02-09_16h03.18.149,jersey_experiment_5,2023.2.2,Win32,85.47008547,,,,,,,,,,,,,,,,404.4005,406.2004,406.2004,408.2004,return,0.6328,,91.015625,,,,,,FBP-RB-71.png,0.43,1.2,19,1,0,25,25,18,1,,,,,,,,,,,,,,,,,,,,,,,,,,,,,,,,,,,,,,,,
,,,,,WIN24_053,20,Female,2024-02-09_16h03.18.149,jersey_experiment_5,2023.2.2,Win32,85.47008547,,,,,,,,,,,,,,,,408.2006,409.4945,409.4946,411.3887,return,0.6027,,48.95833333,,,,,,FBP-OG-17.png,0.37,1.2,2,0.5,0,26,26,1,1,,,,,,,,,,,,,,,,,,,,,,,,,,,,,,,,,,,,,,,,
,,,,,WIN24_053,20,Female,2024-02-09_16h03.18.149,jersey_experiment_5,2023.2.2,Win32,85.47008547,,,,,,,,,,,,,,,,411.3889,412.6829,412.6829,414.883,return,0.9183,,24.609375,,,,,,FBP-OG-18.png,0.35,1.2,6,0.5,0,27,27,5,1,,,,,,,,,,,,,,,,,,,,,,,,,,,,,,,,,,,,,,,,
,,,,,WIN24_053,20,Female,2024-02-09_16h03.18.149,jersey_experiment_5,2023.2.2,Win32,85.47008547,,,,,,,,,,,,,,,,414.8832,416.1771,416.1771,418.7301,return,0.6429,,60.28645833,,,,,,FBP-PT-71.png,0.4,1.2,48,0.5,0,28,28,47,1,,,,,,,,,,,,,,,,,,,,,,,,,,,,,,,,,,,,,,,,
,,,,,WIN24_053,20,Female,2024-02-09_16h03.18.149,jersey_experiment_5,2023.2.2,Win32,85.47008547,,,,,,,,,,,,,,,,418.7303,420.5303,420.5303,422.1538,return,0.667,,63.28125,,,,,,FBP-RB-91.png,0.37,1.2,27,1,0,29,29,26,1,,,,,,,,,,,,,,,,,,,,,,,,,,,,,,,,,,,,,,,,
,,,,,WIN24_053,20,Female,2024-02-09_16h03.18.149,jersey_experiment_5,2023.2.2,Win32,85.47008547,,,,,,,,,,,,,,,,422.1539,423.4481,423.4481,425.5775,return,0.9261,,93.75,,,,,,FBP-PT-81.png,0.43,1.2,54,0.5,0,30,30,53,1,,,,,,,,,,,,,,,,,,,,,,,,,,,,,,,,,,,,,,,,
,,,,,WIN24_053,20,Female,2024-02-09_16h03.18.149,jersey_experiment_5,2023.2.2,Win32,85.47008547,,,,,,,,,,,,,,,,425.5778,427.3776,427.3776,431.507,return,0.6119,,57.55208333,,,,,,FBP-RB-91.png,0.35,1.2,26,1,0,31,31,25,1,,,,,,,,,,,,,,,,,,,,,,,,,,,,,,,,,,,,,,,,
,,,,,WIN24_053,20,Female,2024-02-09_16h03.18.149,jersey_experiment_5,2023.2.2,Win32,85.47008547,,,,,,,,,,,,,,,,431.5073,432.8013,432.8013,434.7308,return,0.8306,,49.73958333,,,,,,FBP-OG-19.png,0.35,1.2,11,0.5,0,32,32,10,1,,,,,,,,,,,,,,,,,,,,,,,,,,,,,,,,,,,,,,,,
,,,,,WIN24_053,20,Female,2024-02-09_16h03.18.149,jersey_experiment_5,2023.2.2,Win32,85.47008547,,,,,,,,,,,,,,,,434.731,436.5308,436.5308,438.8839,return,0.7672,,74.47916667,,,,,,FBP-RB-71.png,0.4,1.2,18,1,0,33,33,17,1,,,,,,,,,,,,,,,,,,,,,,,,,,,,,,,,,,,,,,,,
,,,,,WIN24_053,20,Female,2024-02-09_16h03.18.149,jersey_experiment_5,2023.2.2,Win32,85.47008547,,,,,,,,,,,,,,,,438.8841,440.6839,440.684,442.4604,return,0.6759,,49.47916667,,,,,,FBP-YG-18.png,0.37,1.2,37,1,0,34,34,36,1,,,,,,,,,,,,,,,,,,,,,,,,,,,,,,,,,,,,,,,,
,,,,,WIN24_053,20,Female,2024-02-09_16h03.18.149,jersey_experiment_5,2023.2.2,Win32,85.47008547,,,,,,,,,,,,,,,,442.4606,444.2605,444.2605,446.0136,return,0.6842,,99.73958333,,,,,,FBP-RB-91.png,0.45,1.2,30,1,0,35,35,29,1,,,,,,,,,,,,,,,,,,,,,,,,,,,,,,,,,,,,,,,,
,,,,,WIN24_053,20,Female,2024-02-09_16h03.18.149,jersey_experiment_5,2023.2.2,Win32,85.47008547,,,,,,,,,,,,,,,,446.0138,447.8135,447.8136,449.8724,return,0.8706,,99.73958333,,,,,,FBP-YG-18.png,0.45,1.2,40,1,0,36,36,39,1,,,,,,,,,,,,,,,,,,,,,,,,,,,,,,,,,,,,,,,,
,,,,,WIN24_053,20,Female,2024-02-09_16h03.18.149,jersey_experiment_5,2023.2.2,Win32,85.47008547,,,,,,,,,,,,,,,,449.8726,451.6726,451.6726,454.7079,return,1.6239,,23.30729167,,,,,,FBP-YG-17.png,0.35,1.2,31,1,0,37,37,30,1,,,,,,,,,,,,,,,,,,,,,,,,,,,,,,,,,,,,,,,,
,,,,,WIN24_053,20,Female,2024-02-09_16h03.18.149,jersey_experiment_5,2023.2.2,Win32,85.47008547,,,,,,,,,,,,,,,,454.7082,456.5079,456.5079,458.4257,return,0.6994,,75.390625,,,,,,FBP-YG-19.png,0.45,1.2,45,1,0,38,38,44,1,,,,,,,,,,,,,,,,,,,,,,,,,,,,,,,,,,,,,,,,
,,,,,WIN24_053,20,Female,2024-02-09_16h03.18.149,jersey_experiment_5,2023.2.2,Win32,85.47008547,,,,,,,,,,,,,,,,458.426,459.7199,459.7199,462.6376,return,0.7101,,72.52604167,,,,,,FBP-OG-19.png,0.43,1.2,14,0.5,0,39,39,13,1,,,,,,,,,,,,,,,,,,,,,,,,,,,,,,,,,,,,,,,,
,,,,,WIN24_053,20,Female,2024-02-09_16h03.18.149,jersey_experiment_5,2023.2.2,Win32,85.47008547,,,,,,,,,,,,,,,,462.6378,464.4378,464.4378,467.4378,return,0.7188,,61.45833333,,,,,,FBP-YG-18.png,0.4,1.2,38,1,0,40,40,37,1,,,,,,,,,,,,,,,,,,,,,,,,,,,,,,,,,,,,,,,,
,,,,,WIN24_053,20,Female,2024-02-09_16h03.18.149,jersey_experiment_5,2023.2.2,Win32,85.47008547,,,,,,,,,,,,,,,,467.438,468.7319,468.7319,471.6026,return,1.1387,,95.703125,,,,,,FBP-OG-18.png,0.43,1.2,9,0.5,0,41,41,8,1,,,,,,,,,,,,,,,,,,,,,,,,,,,,,,,,,,,,,,,,
,,,,,WIN24_053,20,Female,2024-02-09_16h03.18.149,jersey_experiment_5,2023.2.2,Win32,85.47008547,,,,,,,,,,,,,,,,471.6028,472.8968,472.8968,475.5323,return,0.8522,,99.86979167,,,,,,FBP-OG-17.png,0.43,1.2,4,0.5,0,42,42,3,1,,,,,,,,,,,,,,,,,,,,,,,,,,,,,,,,,,,,,,,,
,,,,,WIN24_053,20,Female,2024-02-09_16h03.18.149,jersey_experiment_5,2023.2.2,Win32,85.47008547,,,,,,,,,,,,,,,,475.5325,476.8264,476.8264,480.0265,return,1.0989,,5.859375,,,,,,FBP-PT-71.png,0.35,1.2,46,0.5,0,43,43,45,1,,,,,,,,,,,,,,,,,,,,,,,,,,,,,,,,,,,,,,,,
,,,,,WIN24_053,20,Female,2024-02-09_16h03.18.149,jersey_experiment_5,2023.2.2,Win32,85.47008547,,,,,,,,,,,,,,,,480.0267,481.8266,481.8266,483.3795,return,0.8144,,5.859375,,,,,,FBP-RB-71.png,0.35,1.2,16,1,0,44,44,15,1,,,,,,,,,,,,,,,,,,,,,,,,,,,,,,,,,,,,,,,,
,,,,,WIN24_053,20,Female,2024-02-09_16h03.18.149,jersey_experiment_5,2023.2.2,Win32,85.47008547,,,,,,,,,,,,,,,,483.3799,485.1795,485.1795,487.6738,return,0.7462,,70.3125,,,,,,FBP-RB-91.png,0.4,1.2,28,1,0,45,45,27,1,,,,,,,,,,,,,,,,,,,,,,,,,,,,,,,,,,,,,,,,
,,,,,WIN24_053,20,Female,2024-02-09_16h03.18.149,jersey_experiment_5,2023.2.2,Win32,85.47008547,,,,,,,,,,,,,,,,487.6741,489.4739,489.474,491.4859,return,0.743,,96.35416667,,,,,,FBP-YG-17.png,0.43,1.2,34,1,0,46,46,33,1,,,,,,,,,,,,,,,,,,,,,,,,,,,,,,,,,,,,,,,,
,,,,,WIN24_053,20,Female,2024-02-09_16h03.18.149,jersey_experiment_5,2023.2.2,Win32,85.47008547,,,,,,,,,,,,,,,,491.4863,493.2859,493.2859,496.733,return,0.781,,87.109375,,,,,,FBP-YG-18.png,0.43,1.2,39,1,0,47,47,38,1,,,,,,,,,,,,,,,,,,,,,,,,,,,,,,,,,,,,,,,,
,,,,,WIN24_053,20,Female,2024-02-09_16h03.18.149,jersey_experiment_5,2023.2.2,Win32,85.47008547,,,,,,,,,,,,,,,,496.7332,498.0272,498.0272,501.1685,return,0.8699,,49.21875,,,,,,FBP-PT-81.png,0.37,1.2,52,0.5,0,48,48,51,1,,,,,,,,,,,,,,,,,,,,,,,,,,,,,,,,,,,,,,,,
,,,,,WIN24_053,20,Female,2024-02-09_16h03.18.149,jersey_experiment_5,2023.2.2,Win32,85.47008547,,,,,,,,,,,,,,,,501.1688,502.9685,502.9685,505.745,return,0.6592,,58.59375,,,,,,FBP-RB-81.png,0.4,1.2,23,1,0,49,49,22,1,,,,,,,,,,,,,,,,,,,,,,,,,,,,,,,,,,,,,,,,
,,,,,WIN24_053,20,Female,2024-02-09_16h03.18.149,jersey_experiment_5,2023.2.2,Win32,85.47008547,,,,,,,,,,,,,,,,505.7453,507.0392,507.0392,509.0863,return,0.5775,,74.609375,,,,,,FBP-PT-91.png,0.4,1.2,58,0.5,0,50,50,57,1,,,,,,,,,,,,,,,,,,,,,,,,,,,,,,,,,,,,,,,,
,,,,,WIN24_053,20,Female,2024-02-09_16h03.18.149,jersey_experiment_5,2023.2.2,Win32,85.47008547,,,,,,,,,,,,,,,,509.0865,510.8864,510.8864,513.2511,return,0.9178,,97.52604167,,,,,,FBP-RB-91.png,0.43,1.2,29,1,0,51,51,28,1,,,,,,,,,,,,,,,,,,,,,,,,,,,,,,,,,,,,,,,,
,,,,,WIN24_053,20,Female,2024-02-09_16h03.18.149,jersey_experiment_5,2023.2.2,Win32,85.47008547,,,,,,,,,,,,,,,,513.2513,515.0512,515.0512,517.0514,return,0.771,,96.484375,,,,,,FBP-RB-81.png,0.43,1.2,24,1,0,52,52,23,1,,,,,,,,,,,,,,,,,,,,,,,,,,,,,,,,,,,,,,,,
,,,,,WIN24_053,20,Female,2024-02-09_16h03.18.149,jersey_experiment_5,2023.2.2,Win32,85.47008547,,,,,,,,,,,,,,,,517.0517,518.8513,518.8513,520.8162,return,0.7896,,48.69791667,,,,,,FBP-YG-17.png,0.37,1.2,32,1,0,53,53,31,1,,,,,,,,,,,,,,,,,,,,,,,,,,,,,,,,,,,,,,,,
,,,,,WIN24_053,20,Female,2024-02-09_16h03.18.149,jersey_experiment_5,2023.2.2,Win32,85.47008547,,,,,,,,,,,,,,,,520.8165,522.1104,522.1104,524.6517,return,0.5916,,48.69791667,,,,,,FBP-PT-91.png,0.37,1.2,57,0.5,0,54,54,56,1,,,,,,,,,,,,,,,,,,,,,,,,,,,,,,,,,,,,,,,,
,,,,,WIN24_053,20,Female,2024-02-09_16h03.18.149,jersey_experiment_5,2023.2.2,Win32,85.47008547,,,,,,,,,,,,,,,,524.652,526.4517,526.4517,528.4282,return,0.6735,,89.32291667,,,,,,FBP-YG-17.png,0.45,1.2,35,1,0,55,55,34,1,,,,,,,,,,,,,,,,,,,,,,,,,,,,,,,,,,,,,,,,
,,,,,WIN24_053,20,Female,2024-02-09_16h03.18.149,jersey_experiment_5,2023.2.2,Win32,85.47008547,,,,,,,,,,,,,,,,528.4285,530.2283,530.2283,533.0872,return,0.9761,,100,,,,,,FBP-RB-81.png,0.45,1.2,25,1,0,56,56,24,1,,,,,,,,,,,,,,,,,,,,,,,,,,,,,,,,,,,,,,,,
,,,,,WIN24_053,20,Female,2024-02-09_16h03.18.149,jersey_experiment_5,2023.2.2,Win32,85.47008547,,,,,,,,,,,,,,,,533.0875,534.3813,534.3814,536.9461,return,0.7766,,94.140625,,,,,,FBP-PT-81.png,0.45,1.2,55,0.5,0,57,57,54,1,,,,,,,,,,,,,,,,,,,,,,,,,,,,,,,,,,,,,,,,
,,,,,WIN24_053,20,Female,2024-02-09_16h03.18.149,jersey_experiment_5,2023.2.2,Win32,85.47008547,,,,,,,,,,,,,,,,536.9464,538.2403,538.2403,540.9464,return,0.8235,,76.171875,,,,,,FBP-OG-17.png,0.4,1.2,3,0.5,0,58,58,2,1,,,,,,,,,,,,,,,,,,,,,,,,,,,,,,,,,,,,,,,,
,,,,,WIN24_053,20,Female,2024-02-09_16h03.18.149,jersey_experiment_5,2023.2.2,Win32,85.47008547,,,,,,,,,,,,,,,,540.9466,542.7465,542.7465,546.6524,return,0.6525,,0.520833333,,,,,,FBP-YG-18.png,0.35,1.2,36,1,0,59,59,35,1,,,,,,,,,,,,,,,,,,,,,,,,,,,,,,,,,,,,,,,,
,,,,,WIN24_053,20,Female,2024-02-09_16h03.18.149,jersey_experiment_5,2023.2.2,Win32,85.47008547,,,,,,,,,,,,,,,,,,,,,,,,,,,,,,,,,,,,,,,546.653,666.6572,,,,,,,,,,,,,,,,,,,,,,,,,,,,,,,,,,,,,,
,,,,,WIN24_053,20,Female,2024-02-09_16h03.18.149,jersey_experiment_5,2023.2.2,Win32,85.47008547,,,,,,,,,,,,,,,,,,,,,,,,,,,,,,,,,,,,,,,,,666.6573,669.6452,return,2.9785,,,,,,,,,,,,,,,,,,,,,,,,,,,,,,,,,,
,,,,,WIN24_053,20,Female,2024-02-09_16h03.18.149,jersey_experiment_5,2023.2.2,Win32,85.47008547,,,,,,,,,,,,,,,,669.6515,670.951,670.951,675.4217,return,2.9919,,0.651041667,,,,,,FBP-RB-17.png,0.35,1.2,16,0.5,,,,,,,,,,,,,0,0,0,15,1,,,,,,,,,,,,,,,,,,,,,,,,,,,,
,,,,,WIN24_053,20,Female,2024-02-09_16h03.18.149,jersey_experiment_5,2023.2.2,Win32,85.47008547,,,,,,,,,,,,,,,,675.4262,676.7277,676.7278,679.2454,return,0.8483,,39.32291667,,,,,,FBP-RB-17.png,0.37,1.2,17,0.5,,,,,,,,,,,,,0,1,1,16,1,,,,,,,,,,,,,,,,,,,,,,,,,,,,
,,,,,WIN24_053,20,Female,2024-02-09_16h03.18.149,jersey_experiment_5,2023.2.2,Win32,85.47008547,,,,,,,,,,,,,,,,679.2455,680.5396,680.5396,682.4573,return,0.5964,,75,,,,,,FBP-YG-71.png,0.43,1.2,34,0.5,,,,,,,,,,,,,0,2,2,33,1,,,,,,,,,,,,,,,,,,,,,,,,,,,,
,,,,,WIN24_053,20,Female,2024-02-09_16h03.18.149,jersey_experiment_5,2023.2.2,Win32,85.47008547,,,,,,,,,,,,,,,,682.4574,684.2574,684.2574,686.928,return,1.4134,,49.21875,,,,,,FBP-PT-18.png,0.35,1.2,51,1,,,,,,,,,,,,,0,3,3,50,1,,,,,,,,,,,,,,,,,,,,,,,,,,,,
,,,,,WIN24_053,20,Female,2024-02-09_16h03.18.149,jersey_experiment_5,2023.2.2,Win32,85.47008547,,,,,,,,,,,,,,,,686.9283,688.7282,688.7282,691.1281,return,0.7363,,76.171875,,,,,,FBP-OG-71.png,0.4,1.2,3,1,,,,,,,,,,,,,0,4,4,2,1,,,,,,,,,,,,,,,,,,,,,,,,,,,,
,,,,,WIN24_053,20,Female,2024-02-09_16h03.18.149,jersey_experiment_5,2023.2.2,Win32,85.47008547,,,,,,,,,,,,,,,,691.1282,692.9282,692.9282,694.5402,return,0.8267,,75.65104167,,,,,,FBP-PT-17.png,0.4,1.2,48,1,,,,,,,,,,,,,0,5,5,47,1,,,,,,,,,,,,,,,,,,,,,,,,,,,,
,,,,,WIN24_053,20,Female,2024-02-09_16h03.18.149,jersey_experiment_5,2023.2.2,Win32,85.47008547,,,,,,,,,,,,,,,,694.5404,695.8343,695.8343,698.0814,return,0.659,,48.95833333,,,,,,FBP-YG-81.png,0.35,1.2,36,0.5,,,,,,,,,,,,,0,6,6,35,1,,,,,,,,,,,,,,,,,,,,,,,,,,,,
,,,,,WIN24_053,20,Female,2024-02-09_16h03.18.149,jersey_experiment_5,2023.2.2,Win32,85.47008547,,,,,,,,,,,,,,,,698.0815,699.8815,699.8816,701.4816,return,0.6306,,24.34895833,,,,,,FBP-OG-71.png,0.37,1.2,2,1,,,,,,,,,,,,,0,7,7,1,1,,,,,,,,,,,,,,,,,,,,,,,,,,,,
,,,,,WIN24_053,20,Female,2024-02-09_16h03.18.149,jersey_experiment_5,2023.2.2,Win32,85.47008547,,,,,,,,,,,,,,,,701.4818,703.2815,703.2815,705.0698,return,0.8601,,75,,,,,,FBP-OG-91.png,0.4,1.2,13,1,,,,,,,,,,,,,0,8,8,12,1,,,,,,,,,,,,,,,,,,,,,,,,,,,,
,,,,,WIN24_053,20,Female,2024-02-09_16h03.18.149,jersey_experiment_5,2023.2.2,Win32,85.47008547,,,,,,,,,,,,,,,,705.0699,706.3641,706.3641,708.4583,return,0.6518,,99.73958333,,,,,,FBP-RB-18.png,0.45,1.2,25,0.5,,,,,,,,,,,,,0,9,9,24,1,,,,,,,,,,,,,,,,,,,,,,,,,,,,
,,,,,WIN24_053,20,Female,2024-02-09_16h03.18.149,jersey_experiment_5,2023.2.2,Win32,85.47008547,,,,,,,,,,,,,,,,708.4585,709.7523,709.7524,712.8114,return,1.2531,,75.390625,,,,,,FBP-RB-19.png,0.4,1.2,28,0.5,,,,,,,,,,,,,0,10,10,27,1,,,,,,,,,,,,,,,,,,,,,,,,,,,,
,,,,,WIN24_053,20,Female,2024-02-09_16h03.18.149,jersey_experiment_5,2023.2.2,Win32,85.47008547,,,,,,,,,,,,,,,,712.8116,714.6113,714.6114,715.7761,return,0.6365,,75.390625,,,,,,FBP-OG-81.png,0.4,1.2,8,1,,,,,,,,,,,,,0,11,11,7,1,,,,,,,,,,,,,,,,,,,,,,,,,,,,
,,,,,WIN24_053,20,Female,2024-02-09_16h03.18.149,jersey_experiment_5,2023.2.2,Win32,85.47008547,,,,,,,,,,,,,,,,715.7764,717.5763,717.5764,719.5762,return,0.6324,,48.4375,,,,,,FBP-PT-17.png,0.37,1.2,47,1,,,,,,,,,,,,,0,12,12,46,1,,,,,,,,,,,,,,,,,,,,,,,,,,,,
,,,,,WIN24_053,20,Female,2024-02-09_16h03.18.149,jersey_experiment_5,2023.2.2,Win32,85.47008547,,,,,,,,,,,,,,,,719.5765,720.8705,720.8705,723.8352,return,0.686,,36.45833333,,,,,,FBP-YG-81.png,0.37,1.2,37,0.5,,,,,,,,,,,,,0,13,13,36,1,,,,,,,,,,,,,,,,,,,,,,,,,,,,
,,,,,WIN24_053,20,Female,2024-02-09_16h03.18.149,jersey_experiment_5,2023.2.2,Win32,85.47008547,,,,,,,,,,,,,,,,723.8355,725.6353,725.6353,727.1176,return,0.6011,,24.47916667,,,,,,FBP-OG-81.png,0.37,1.2,7,1,,,,,,,,,,,,,0,14,14,6,1,,,,,,,,,,,,,,,,,,,,,,,,,,,,
,,,,,WIN24_053,20,Female,2024-02-09_16h03.18.149,jersey_experiment_5,2023.2.2,Win32,85.47008547,,,,,,,,,,,,,,,,727.1179,728.9181,728.9181,730.7766,return,0.7124,,99.609375,,,,,,FBP-OG-71.png,0.45,1.2,5,1,,,,,,,,,,,,,0,15,15,4,1,,,,,,,,,,,,,,,,,,,,,,,,,,,,
,,,,,WIN24_053,20,Female,2024-02-09_16h03.18.149,jersey_experiment_5,2023.2.2,Win32,85.47008547,,,,,,,,,,,,,,,,730.7768,732.0709,732.0709,733.9533,return,0.6494,,49.08854167,,,,,,FBP-YG-71.png,0.37,1.2,32,0.5,,,,,,,,,,,,,0,16,16,31,1,,,,,,,,,,,,,,,,,,,,,,,,,,,,
,,,,,WIN24_053,20,Female,2024-02-09_16h03.18.149,jersey_experiment_5,2023.2.2,Win32,85.47008547,,,,,,,,,,,,,,,,733.9536,735.7533,735.7533,737.4593,return,0.7207,,85.80729167,,,,,,FBP-OG-81.png,0.43,1.2,9,1,,,,,,,,,,,,,0,17,17,8,1,,,,,,,,,,,,,,,,,,,,,,,,,,,,
,,,,,WIN24_053,20,Female,2024-02-09_16h03.18.149,jersey_experiment_5,2023.2.2,Win32,85.47008547,,,,,,,,,,,,,,,,737.4595,739.2593,739.2593,741.0711,return,0.6375,,32.8125,,,,,,FBP-OG-91.png,0.35,1.2,11,1,,,,,,,,,,,,,0,18,18,10,1,,,,,,,,,,,,,,,,,,,,,,,,,,,,
,,,,,WIN24_053,20,Female,2024-02-09_16h03.18.149,jersey_experiment_5,2023.2.2,Win32,85.47008547,,,,,,,,,,,,,,,,741.0715,742.8713,742.8713,745.0831,return,0.7241,,98.30729167,,,,,,FBP-PT-18.png,0.43,1.2,54,1,,,,,,,,,,,,,0,19,19,53,1,,,,,,,,,,,,,,,,,,,,,,,,,,,,
,,,,,WIN24_053,20,Female,2024-02-09_16h03.18.149,jersey_experiment_5,2023.2.2,Win32,85.47008547,,,,,,,,,,,,,,,,745.0834,746.3773,746.3773,748.0125,return,0.6023,,75.26041667,,,,,,FBP-RB-19.png,0.37,1.2,27,0.5,,,,,,,,,,,,,0,20,20,26,1,,,,,,,,,,,,,,,,,,,,,,,,,,,,
,,,,,WIN24_053,20,Female,2024-02-09_16h03.18.149,jersey_experiment_5,2023.2.2,Win32,85.47008547,,,,,,,,,,,,,,,,748.0128,749.3067,749.3067,751.1304,return,0.8893,,99.21875,,,,,,FBP-YG-81.png,0.45,1.2,40,0.5,,,,,,,,,,,,,0,21,21,39,1,,,,,,,,,,,,,,,,,,,,,,,,,,,,
,,,,,WIN24_053,20,Female,2024-02-09_16h03.18.149,jersey_experiment_5,2023.2.2,Win32,85.47008547,,,,,,,,,,,,,,,,751.1307,752.9304,752.9304,755.1071,return,0.8615,,26.30208333,,,,,,FBP-OG-81.png,0.35,1.2,6,1,,,,,,,,,,,,,0,22,22,5,1,,,,,,,,,,,,,,,,,,,,,,,,,,,,
,,,,,WIN24_053,20,Female,2024-02-09_16h03.18.149,jersey_experiment_5,2023.2.2,Win32,85.47008547,,,,,,,,,,,,,,,,755.1072,756.4013,756.4013,759.0835,return,0.7939,,44.921875,,,,,,FBP-RB-18.png,0.37,1.2,22,0.5,,,,,,,,,,,,,0,23,23,21,1,,,,,,,,,,,,,,,,,,,,,,,,,,,,
,,,,,WIN24_053,20,Female,2024-02-09_16h03.18.149,jersey_experiment_5,2023.2.2,Win32,85.47008547,,,,,,,,,,,,,,,,759.0837,760.3778,760.3778,762.4131,return,0.7667,,94.27083333,,,,,,FBP-RB-18.png,0.43,1.2,24,0.5,,,,,,,,,,,,,0,24,24,23,1,,,,,,,,,,,,,,,,,,,,,,,,,,,,
,,,,,WIN24_053,20,Female,2024-02-09_16h03.18.149,jersey_experiment_5,2023.2.2,Win32,85.47008547,,,,,,,,,,,,,,,,762.4133,764.2134,764.2134,766.4016,return,0.8614,,99.21875,,,,,,FBP-PT-18.png,0.45,1.2,55,1,,,,,,,,,,,,,0,25,25,54,1,,,,,,,,,,,,,,,,,,,,,,,,,,,,
,,,,,WIN24_053,20,Female,2024-02-09_16h03.18.149,jersey_experiment_5,2023.2.2,Win32,85.47008547,,,,,,,,,,,,,,,,766.4018,767.6957,767.6957,769.3075,return,0.8625,,99.21875,,,,,,FBP-RB-19.png,0.45,1.2,30,0.5,,,,,,,,,,,,,0,26,26,29,1,,,,,,,,,,,,,,,,,,,,,,,,,,,,
,,,,,WIN24_053,20,Female,2024-02-09_16h03.18.149,jersey_experiment_5,2023.2.2,Win32,85.47008547,,,,,,,,,,,,,,,,769.3077,770.6016,770.6016,772.1782,return,0.5977,,75.26041667,,,,,,FBP-YG-81.png,0.4,1.2,38,0.5,,,,,,,,,,,,,0,27,27,37,1,,,,,,,,,,,,,,,,,,,,,,,,,,,,
,,,,,WIN24_053,20,Female,2024-02-09_16h03.18.149,jersey_experiment_5,2023.2.2,Win32,85.47008547,,,,,,,,,,,,,,,,772.1784,773.4723,773.4723,775.496,return,0.6918,,74.34895833,,,,,,FBP-RB-17.png,0.4,1.2,18,0.5,,,,,,,,,,,,,0,28,28,17,1,,,,,,,,,,,,,,,,,,,,,,,,,,,,
,,,,,WIN24_053,20,Female,2024-02-09_16h03.18.149,jersey_experiment_5,2023.2.2,Win32,85.47008547,,,,,,,,,,,,,,,,775.4962,777.296,777.296,778.8492,return,0.8827,,49.08854167,,,,,,FBP-OG-91.png,0.37,1.2,12,1,,,,,,,,,,,,,0,29,29,11,1,,,,,,,,,,,,,,,,,,,,,,,,,,,,
,,,,,WIN24_053,20,Female,2024-02-09_16h03.18.149,jersey_experiment_5,2023.2.2,Win32,85.47008547,,,,,,,,,,,,,,,,778.8494,780.6492,780.6492,782.5903,return,0.6499,,90.49479167,,,,,,FBP-PT-17.png,0.43,1.2,49,1,,,,,,,,,,,,,0,30,30,48,1,,,,,,,,,,,,,,,,,,,,,,,,,,,,
,,,,,WIN24_053,20,Female,2024-02-09_16h03.18.149,jersey_experiment_5,2023.2.2,Win32,85.47008547,,,,,,,,,,,,,,,,782.5906,784.3903,784.3903,785.9198,return,0.6698,,99.86979167,,,,,,FBP-PT-17.png,0.45,1.2,50,1,,,,,,,,,,,,,0,31,31,49,1,,,,,,,,,,,,,,,,,,,,,,,,,,,,
,,,,,WIN24_053,20,Female,2024-02-09_16h03.18.149,jersey_experiment_5,2023.2.2,Win32,85.47008547,,,,,,,,,,,,,,,,785.92,787.7199,787.7199,789.4022,return,0.7363,,74.86979167,,,,,,FBP-PT-19.png,0.37,1.2,57,1,,,,,,,,,,,,,0,32,32,56,1,,,,,,,,,,,,,,,,,,,,,,,,,,,,
,,,,,WIN24_053,20,Female,2024-02-09_16h03.18.149,jersey_experiment_5,2023.2.2,Win32,85.47008547,,,,,,,,,,,,,,,,789.4025,791.2026,791.2026,793.2143,return,0.8832,,99.21875,,,,,,FBP-OG-81.png,0.45,1.2,10,1,,,,,,,,,,,,,0,33,33,9,1,,,,,,,,,,,,,,,,,,,,,,,,,,,,
,,,,,WIN24_053,20,Female,2024-02-09_16h03.18.149,jersey_experiment_5,2023.2.2,Win32,85.47008547,,,,,,,,,,,,,,,,793.2146,795.0144,795.0144,796.4732,return,0.7257,,92.1875,,,,,,FBP-PT-19.png,0.43,1.2,59,1,,,,,,,,,,,,,0,34,34,58,1,,,,,,,,,,,,,,,,,,,,,,,,,,,,
,,,,,WIN24_053,20,Female,2024-02-09_16h03.18.149,jersey_experiment_5,2023.2.2,Win32,85.47008547,,,,,,,,,,,,,,,,796.4734,798.2732,798.2732,799.8262,return,0.7294,,75.13020833,,,,,,FBP-PT-19.png,0.35,1.2,56,1,,,,,,,,,,,,,0,35,35,55,1,,,,,,,,,,,,,,,,,,,,,,,,,,,,
,,,,,WIN24_053,20,Female,2024-02-09_16h03.18.149,jersey_experiment_5,2023.2.2,Win32,85.47008547,,,,,,,,,,,,,,,,799.8264,801.1203,801.1203,802.9792,return,0.7863,,98.95833333,,,,,,FBP-RB-17.png,0.43,1.2,19,0.5,,,,,,,,,,,,,0,36,36,18,1,,,,,,,,,,,,,,,,,,,,,,,,,,,,
,,,,,WIN24_053,20,Female,2024-02-09_16h03.18.149,jersey_experiment_5,2023.2.2,Win32,85.47008547,,,,,,,,,,,,,,,,802.9794,804.2734,804.2734,807.1794,return,1.2646,,38.671875,,,,,,FBP-YG-91.png,0.35,1.2,41,0.5,,,,,,,,,,,,,0,37,37,40,1,,,,,,,,,,,,,,,,,,,,,,,,,,,,
,,,,,WIN24_053,20,Female,2024-02-09_16h03.18.149,jersey_experiment_5,2023.2.2,Win32,85.47008547,,,,,,,,,,,,,,,,807.1798,808.9796,808.9796,810.6971,return,0.8175,,81.38020833,,,,,,FBP-OG-71.png,0.43,1.2,4,1,,,,,,,,,,,,,0,38,38,3,1,,,,,,,,,,,,,,,,,,,,,,,,,,,,
,,,,,WIN24_053,20,Female,2024-02-09_16h03.18.149,jersey_experiment_5,2023.2.2,Win32,85.47008547,,,,,,,,,,,,,,,,810.6972,811.9913,811.9913,814.5681,return,0.7979,,33.59375,,,,,,FBP-RB-18.png,0.35,1.2,21,0.5,,,,,,,,,,,,,0,39,39,20,1,,,,,,,,,,,,,,,,,,,,,,,,,,,,
,,,,,WIN24_053,20,Female,2024-02-09_16h03.18.149,jersey_experiment_5,2023.2.2,Win32,85.47008547,,,,,,,,,,,,,,,,814.5682,816.368,816.368,818.2739,return,0.6688,,85.15625,,,,,,FBP-PT-19.png,0.45,1.2,60,1,,,,,,,,,,,,,0,40,40,59,1,,,,,,,,,,,,,,,,,,,,,,,,,,,,
,,,,,WIN24_053,20,Female,2024-02-09_16h03.18.149,jersey_experiment_5,2023.2.2,Win32,85.47008547,,,,,,,,,,,,,,,,818.2741,819.5681,819.5682,821.2506,return,0.8001,,99.34895833,,,,,,FBP-RB-17.png,0.45,1.2,20,0.5,,,,,,,,,,,,,0,41,41,19,1,,,,,,,,,,,,,,,,,,,,,,,,,,,,
,,,,,WIN24_053,20,Female,2024-02-09_16h03.18.149,jersey_experiment_5,2023.2.2,Win32,85.47008547,,,,,,,,,,,,,,,,821.2509,823.0506,823.0506,824.1918,return,0.6024,,99.73958333,,,,,,FBP-OG-91.png,0.45,1.2,15,1,,,,,,,,,,,,,0,42,42,14,1,,,,,,,,,,,,,,,,,,,,,,,,,,,,
,,,,,WIN24_053,20,Female,2024-02-09_16h03.18.149,jersey_experiment_5,2023.2.2,Win32,85.47008547,,,,,,,,,,,,,,,,824.192,825.9919,825.9919,828.2391,return,0.6501,,77.99479167,,,,,,FBP-PT-18.png,0.4,1.2,53,1,,,,,,,,,,,,,0,43,43,52,1,,,,,,,,,,,,,,,,,,,,,,,,,,,,
,,,,,WIN24_053,20,Female,2024-02-09_16h03.18.149,jersey_experiment_5,2023.2.2,Win32,85.47008547,,,,,,,,,,,,,,,,828.2393,830.039,830.0391,831.6744,return,0.8995,,29.6875,,,,,,FBP-PT-17.png,0.35,1.2,46,1,,,,,,,,,,,,,0,44,44,45,1,,,,,,,,,,,,,,,,,,,,,,,,,,,,
,,,,,WIN24_053,20,Female,2024-02-09_16h03.18.149,jersey_experiment_5,2023.2.2,Win32,85.47008547,,,,,,,,,,,,,,,,831.6747,832.9687,832.9687,834.5923,return,0.5554,,74.34895833,,,,,,FBP-YG-91.png,0.45,1.2,45,0.5,,,,,,,,,,,,,0,45,45,44,1,,,,,,,,,,,,,,,,,,,,,,,,,,,,
,,,,,WIN24_053,20,Female,2024-02-09_16h03.18.149,jersey_experiment_5,2023.2.2,Win32,85.47008547,,,,,,,,,,,,,,,,834.5926,836.3923,836.3923,839.1452,return,0.7229,,50.13020833,,,,,,FBP-PT-18.png,0.37,1.2,52,1,,,,,,,,,,,,,0,46,46,51,1,,,,,,,,,,,,,,,,,,,,,,,,,,,,
,,,,,WIN24_053,20,Female,2024-02-09_16h03.18.149,jersey_experiment_5,2023.2.2,Win32,85.47008547,,,,,,,,,,,,,,,,839.1455,840.4395,840.4395,842.063,return,0.6846,,75,,,,,,FBP-YG-91.png,0.43,1.2,44,0.5,,,,,,,,,,,,,0,47,47,43,1,,,,,,,,,,,,,,,,,,,,,,,,,,,,
,,,,,WIN24_053,20,Female,2024-02-09_16h03.18.149,jersey_experiment_5,2023.2.2,Win32,85.47008547,,,,,,,,,,,,,,,,842.0632,843.3571,843.3571,845.1808,return,0.5909,,50.78125,,,,,,FBP-YG-91.png,0.37,1.2,42,0.5,,,,,,,,,,,,,0,48,48,41,1,,,,,,,,,,,,,,,,,,,,,,,,,,,,
,,,,,WIN24_053,20,Female,2024-02-09_16h03.18.149,jersey_experiment_5,2023.2.2,Win32,85.47008547,,,,,,,,,,,,,,,,845.181,846.475,846.475,848.2161,return,0.6892,,53.38541667,,,,,,FBP-RB-18.png,0.4,1.2,23,0.5,,,,,,,,,,,,,0,49,49,22,1,,,,,,,,,,,,,,,,,,,,,,,,,,,,
,,,,,WIN24_053,20,Female,2024-02-09_16h03.18.149,jersey_experiment_5,2023.2.2,Win32,85.47008547,,,,,,,,,,,,,,,,848.2164,849.5103,849.5103,851.4869,return,0.7437,,25.13020833,,,,,,FBP-RB-19.png,0.35,1.2,26,0.5,,,,,,,,,,,,,0,50,50,25,1,,,,,,,,,,,,,,,,,,,,,,,,,,,,
,,,,,WIN24_053,20,Female,2024-02-09_16h03.18.149,jersey_experiment_5,2023.2.2,Win32,85.47008547,,,,,,,,,,,,,,,,851.487,852.7811,852.7811,854.9224,return,0.7716,,1.041666667,,,,,,FBP-YG-71.png,0.35,1.2,31,0.5,,,,,,,,,,,,,0,51,51,30,1,,,,,,,,,,,,,,,,,,,,,,,,,,,,
,,,,,WIN24_053,20,Female,2024-02-09_16h03.18.149,jersey_experiment_5,2023.2.2,Win32,85.47008547,,,,,,,,,,,,,,,,854.9226,856.2165,856.2165,858.099,return,0.6357,,96.61458333,,,,,,FBP-YG-81.png,0.43,1.2,39,0.5,,,,,,,,,,,,,0,52,52,38,1,,,,,,,,,,,,,,,,,,,,,,,,,,,,
,,,,,WIN24_053,20,Female,2024-02-09_16h03.18.149,jersey_experiment_5,2023.2.2,Win32,85.47008547,,,,,,,,,,,,,,,,858.0992,859.8991,859.8992,861.5696,return,0.7626,,75.13020833,,,,,,FBP-PT-19.png,0.4,1.2,58,1,,,,,,,,,,,,,0,53,53,57,1,,,,,,,,,,,,,,,,,,,,,,,,,,,,
,,,,,WIN24_053,20,Female,2024-02-09_16h03.18.149,jersey_experiment_5,2023.2.2,Win32,85.47008547,,,,,,,,,,,,,,,,861.5698,862.8636,862.8637,865.6287,return,0.8259,,79.81770833,,,,,,FBP-RB-19.png,0.43,1.2,29,0.5,,,,,,,,,,,,,0,54,54,28,1,,,,,,,,,,,,,,,,,,,,,,,,,,,,
,,,,,WIN24_053,20,Female,2024-02-09_16h03.18.149,jersey_experiment_5,2023.2.2,Win32,85.47008547,,,,,,,,,,,,,,,,865.6288,866.9228,866.9229,869.2287,return,0.7553,,73.95833333,,,,,,FBP-YG-71.png,0.4,1.2,33,0.5,,,,,,,,,,,,,0,55,55,32,1,,,,,,,,,,,,,,,,,,,,,,,,,,,,
,,,,,WIN24_053,20,Female,2024-02-09_16h03.18.149,jersey_experiment_5,2023.2.2,Win32,85.47008547,,,,,,,,,,,,,,,,869.2291,870.5229,870.5229,872.3464,return,0.6752,,73.17708333,,,,,,FBP-YG-91.png,0.4,1.2,43,0.5,,,,,,,,,,,,,0,56,56,42,1,,,,,,,,,,,,,,,,,,,,,,,,,,,,
,,,,,WIN24_053,20,Female,2024-02-09_16h03.18.149,jersey_experiment_5,2023.2.2,Win32,85.47008547,,,,,,,,,,,,,,,,872.3467,874.1467,874.1467,875.5466,return,0.5712,,99.86979167,,,,,,FBP-OG-91.png,0.43,1.2,14,1,,,,,,,,,,,,,0,57,57,13,1,,,,,,,,,,,,,,,,,,,,,,,,,,,,
,,,,,WIN24_053,20,Female,2024-02-09_16h03.18.149,jersey_experiment_5,2023.2.2,Win32,85.47008547,,,,,,,,,,,,,,,,875.5467,876.8408,876.8408,879.4056,return,0.827,,99.86979167,,,,,,FBP-YG-71.png,0.45,1.2,35,0.5,,,,,,,,,,,,,0,58,58,34,1,,,,,,,,,,,,,,,,,,,,,,,,,,,,
,,,,,WIN24_053,20,Female,2024-02-09_16h03.18.149,jersey_experiment_5,2023.2.2,Win32,85.47008547,,,,,,,,,,,,,,,,879.4058,881.2058,881.2058,882.4878,return,0.5597,,25,,,,,,FBP-OG-71.png,0.35,1.2,1,1,,,,,,,,,,,,,0,59,59,0,1,,,,,,,,,,,,,,,,,,,,,,,,,,,,
,,,,,WIN24_053,20,Female,2024-02-09_16h03.18.149,jersey_experiment_5,2023.2.2,Win32,85.47008547,,,,,,,,,,,,,,,,882.491,883.794,883.7941,885.9469,return,0.759,,33.59375,,,,,,FBP-YG-17.png,0.35,1.2,31,0.5,,,,,,,,,,,,,,,,,,0,0,0,30,1,,,,,,,,,,,,,,,,,,,,,,,
,,,,,WIN24_053,20,Female,2024-02-09_16h03.18.149,jersey_experiment_5,2023.2.2,Win32,85.47008547,,,,,,,,,,,,,,,,885.9475,887.2411,887.2411,889.1236,return,0.7768,,72.65625,,,,,,FBP-RB-91.png,0.43,1.2,29,0.5,,,,,,,,,,,,,,,,,,0,1,1,28,1,,,,,,,,,,,,,,,,,,,,,,,
,,,,,WIN24_053,20,Female,2024-02-09_16h03.18.149,jersey_experiment_5,2023.2.2,Win32,85.47008547,,,,,,,,,,,,,,,,889.1239,890.9237,890.9237,892.4649,return,0.6826,,49.34895833,,,,,,FBP-PT-81.png,0.37,1.2,52,1,,,,,,,,,,,,,,,,,,0,2,2,51,1,,,,,,,,,,,,,,,,,,,,,,,
,,,,,WIN24_053,20,Female,2024-02-09_16h03.18.149,jersey_experiment_5,2023.2.2,Win32,85.47008547,,,,,,,,,,,,,,,,892.465,893.7589,893.7591,895.712,return,0.7069,,85.80729167,,,,,,FBP-RB-81.png,0.43,1.2,24,0.5,,,,,,,,,,,,,,,,,,0,3,3,23,1,,,,,,,,,,,,,,,,,,,,,,,
,,,,,WIN24_053,20,Female,2024-02-09_16h03.18.149,jersey_experiment_5,2023.2.2,Win32,85.47008547,,,,,,,,,,,,,,,,895.7122,897.5122,897.5122,899.8181,return,1.3462,,49.34895833,,,,,,FBP-PT-81.png,0.35,1.2,51,1,,,,,,,,,,,,,,,,,,0,4,4,50,1,,,,,,,,,,,,,,,,,,,,,,,
,,,,,WIN24_053,20,Female,2024-02-09_16h03.18.149,jersey_experiment_5,2023.2.2,Win32,85.47008547,,,,,,,,,,,,,,,,899.8182,901.1123,901.1123,903.1711,return,0.6214,,87.5,,,,,,FBP-YG-18.png,0.43,1.2,39,0.5,,,,,,,,,,,,,,,,,,0,5,5,38,1,,,,,,,,,,,,,,,,,,,,,,,
,,,,,WIN24_053,20,Female,2024-02-09_16h03.18.149,jersey_experiment_5,2023.2.2,Win32,85.47008547,,,,,,,,,,,,,,,,903.1712,904.4653,904.4653,906.1479,return,0.7272,,100,,,,,,FBP-RB-71.png,0.45,1.2,20,0.5,,,,,,,,,,,,,,,,,,0,6,6,19,1,,,,,,,,,,,,,,,,,,,,,,,
,,,,,WIN24_053,20,Female,2024-02-09_16h03.18.149,jersey_experiment_5,2023.2.2,Win32,85.47008547,,,,,,,,,,,,,,,,906.1482,907.442,907.442,908.9243,return,0.5434,,88.41145833,,,,,,FBP-RB-81.png,0.4,1.2,23,0.5,,,,,,,,,,,,,,,,,,0,7,7,22,1,,,,,,,,,,,,,,,,,,,,,,,
,,,,,WIN24_053,20,Female,2024-02-09_16h03.18.149,jersey_experiment_5,2023.2.2,Win32,85.47008547,,,,,,,,,,,,,,,,908.9246,910.2185,910.2185,912.1125,return,0.6829,,56.25,,,,,,FBP-YG-18.png,0.37,1.2,37,0.5,,,,,,,,,,,,,,,,,,0,8,8,36,1,,,,,,,,,,,,,,,,,,,,,,,
,,,,,WIN24_053,20,Female,2024-02-09_16h03.18.149,jersey_experiment_5,2023.2.2,Win32,85.47008547,,,,,,,,,,,,,,,,912.1127,913.4067,913.4067,914.795,return,0.5472,,37.63020833,,,,,,FBP-RB-91.png,0.35,1.2,26,0.5,,,,,,,,,,,,,,,,,,0,9,9,25,1,,,,,,,,,,,,,,,,,,,,,,,
,,,,,WIN24_053,20,Female,2024-02-09_16h03.18.149,jersey_experiment_5,2023.2.2,Win32,85.47008547,,,,,,,,,,,,,,,,914.7952,916.0892,916.0892,917.9835,return,0.6591,,46.74479167,,,,,,FBP-YG-17.png,0.4,1.2,33,0.5,,,,,,,,,,,,,,,,,,0,10,10,32,1,,,,,,,,,,,,,,,,,,,,,,,
,,,,,WIN24_053,20,Female,2024-02-09_16h03.18.149,jersey_experiment_5,2023.2.2,Win32,85.47008547,,,,,,,,,,,,,,,,917.9836,919.7835,919.7835,922.0425,return,1.3242,,91.015625,,,,,,FBP-OG-17.png,0.45,1.2,5,1,,,,,,,,,,,,,,,,,,0,11,11,4,1,,,,,,,,,,,,,,,,,,,,,,,
,,,,,WIN24_053,20,Female,2024-02-09_16h03.18.149,jersey_experiment_5,2023.2.2,Win32,85.47008547,,,,,,,,,,,,,,,,922.0426,923.3365,923.3365,925.113,return,0.7114,,24.86979167,,,,,,FBP-YG-19.png,0.35,1.2,41,0.5,,,,,,,,,,,,,,,,,,0,12,12,40,1,,,,,,,,,,,,,,,,,,,,,,,
,,,,,WIN24_053,20,Female,2024-02-09_16h03.18.149,jersey_experiment_5,2023.2.2,Win32,85.47008547,,,,,,,,,,,,,,,,925.1133,926.4073,926.4073,928.3367,return,0.7058,,49.73958333,,,,,,FBP-RB-91.png,0.4,1.2,28,0.5,,,,,,,,,,,,,,,,,,0,13,13,27,1,,,,,,,,,,,,,,,,,,,,,,,
,,,,,WIN24_053,20,Female,2024-02-09_16h03.18.149,jersey_experiment_5,2023.2.2,Win32,85.47008547,,,,,,,,,,,,,,,,928.337,929.6309,929.6309,931.1369,return,0.7437,,48.4375,,,,,,FBP-RB-91.png,0.37,1.2,27,0.5,,,,,,,,,,,,,,,,,,0,14,14,26,1,,,,,,,,,,,,,,,,,,,,,,,
,,,,,WIN24_053,20,Female,2024-02-09_16h03.18.149,jersey_experiment_5,2023.2.2,Win32,85.47008547,,,,,,,,,,,,,,,,931.1372,932.9368,932.9368,934.9605,return,0.6358,,65.234375,,,,,,FBP-PT-91.png,0.4,1.2,58,1,,,,,,,,,,,,,,,,,,0,15,15,57,1,,,,,,,,,,,,,,,,,,,,,,,
,,,,,WIN24_053,20,Female,2024-02-09_16h03.18.149,jersey_experiment_5,2023.2.2,Win32,85.47008547,,,,,,,,,,,,,,,,934.9608,936.2546,936.2547,937.9842,return,0.5791,,88.671875,,,,,,FBP-YG-18.png,0.45,1.2,40,0.5,,,,,,,,,,,,,,,,,,0,16,16,39,1,,,,,,,,,,,,,,,,,,,,,,,
,,,,,WIN24_053,20,Female,2024-02-09_16h03.18.149,jersey_experiment_5,2023.2.2,Win32,85.47008547,,,,,,,,,,,,,,,,937.9844,939.2784,939.2784,941.2784,return,0.8006,,79.6875,,,,,,FBP-YG-18.png,0.4,1.2,38,0.5,,,,,,,,,,,,,,,,,,0,17,17,37,1,,,,,,,,,,,,,,,,,,,,,,,
,,,,,WIN24_053,20,Female,2024-02-09_16h03.18.149,jersey_experiment_5,2023.2.2,Win32,85.47008547,,,,,,,,,,,,,,,,941.2786,943.0785,943.0785,944.9138,return,0.8095,,99.47916667,,,,,,FBP-PT-91.png,0.45,1.2,60,1,,,,,,,,,,,,,,,,,,0,18,18,59,1,,,,,,,,,,,,,,,,,,,,,,,
,,,,,WIN24_053,20,Female,2024-02-09_16h03.18.149,jersey_experiment_5,2023.2.2,Win32,85.47008547,,,,,,,,,,,,,,,,944.9139,946.7141,946.7141,949.1846,return,1.2625,,78.125,,,,,,FBP-OG-19.png,0.37,1.2,12,1,,,,,,,,,,,,,,,,,,0,19,19,11,1,,,,,,,,,,,,,,,,,,,,,,,
,,,,,WIN24_053,20,Female,2024-02-09_16h03.18.149,jersey_experiment_5,2023.2.2,Win32,85.47008547,,,,,,,,,,,,,,,,949.1848,950.9846,950.9847,952.4788,return,0.6731,,63.41145833,,,,,,FBP-OG-18.png,0.4,1.2,8,1,,,,,,,,,,,,,,,,,,0,20,20,7,1,,,,,,,,,,,,,,,,,,,,,,,
,,,,,WIN24_053,20,Female,2024-02-09_16h03.18.149,jersey_experiment_5,2023.2.2,Win32,85.47008547,,,,,,,,,,,,,,,,952.4791,953.773,953.773,955.3612,return,0.7061,,63.41145833,,,,,,FBP-YG-19.png,0.37,1.2,42,0.5,,,,,,,,,,,,,,,,,,0,21,21,41,1,,,,,,,,,,,,,,,,,,,,,,,
,,,,,WIN24_053,20,Female,2024-02-09_16h03.18.149,jersey_experiment_5,2023.2.2,Win32,85.47008547,,,,,,,,,,,,,,,,955.3615,957.1615,957.1615,958.4319,return,0.7057,,86.58854167,,,,,,FBP-PT-81.png,0.43,1.2,54,1,,,,,,,,,,,,,,,,,,0,22,22,53,1,,,,,,,,,,,,,,,,,,,,,,,
,,,,,WIN24_053,20,Female,2024-02-09_16h03.18.149,jersey_experiment_5,2023.2.2,Win32,85.47008547,,,,,,,,,,,,,,,,958.4322,960.2319,960.2319,961.9026,return,0.6943,,60.80729167,,,,,,FBP-OG-18.png,0.37,1.2,7,1,,,,,,,,,,,,,,,,,,0,23,23,6,1,,,,,,,,,,,,,,,,,,,,,,,
,,,,,WIN24_053,20,Female,2024-02-09_16h03.18.149,jersey_experiment_5,2023.2.2,Win32,85.47008547,,,,,,,,,,,,,,,,961.9028,963.7028,963.7028,965.3145,return,0.7625,,45.96354167,,,,,,FBP-PT-91.png,0.35,1.2,56,1,,,,,,,,,,,,,,,,,,0,24,24,55,1,,,,,,,,,,,,,,,,,,,,,,,
,,,,,WIN24_053,20,Female,2024-02-09_16h03.18.149,jersey_experiment_5,2023.2.2,Win32,85.47008547,,,,,,,,,,,,,,,,965.3147,967.1146,967.1146,968.8794,return,0.7535,,83.33333333,,,,,,FBP-OG-17.png,0.43,1.2,4,1,,,,,,,,,,,,,,,,,,0,25,25,3,1,,,,,,,,,,,,,,,,,,,,,,,
,,,,,WIN24_053,20,Female,2024-02-09_16h03.18.149,jersey_experiment_5,2023.2.2,Win32,85.47008547,,,,,,,,,,,,,,,,968.8796,970.1736,970.1736,971.5383,return,0.6265,,79.42708333,,,,,,FBP-YG-19.png,0.43,1.2,44,0.5,,,,,,,,,,,,,,,,,,0,26,26,43,1,,,,,,,,,,,,,,,,,,,,,,,
,,,,,WIN24_053,20,Female,2024-02-09_16h03.18.149,jersey_experiment_5,2023.2.2,Win32,85.47008547,,,,,,,,,,,,,,,,971.5385,972.8326,972.8326,975.3268,return,0.8005,,99.08854167,,,,,,FBP-YG-19.png,0.45,1.2,45,0.5,,,,,,,,,,,,,,,,,,0,27,27,44,1,,,,,,,,,,,,,,,,,,,,,,,
,,,,,WIN24_053,20,Female,2024-02-09_16h03.18.149,jersey_experiment_5,2023.2.2,Win32,85.47008547,,,,,,,,,,,,,,,,975.3269,977.1269,977.1269,978.8444,return,0.6872,,35.41666667,,,,,,FBP-OG-18.png,0.35,1.2,6,1,,,,,,,,,,,,,,,,,,0,28,28,5,1,,,,,,,,,,,,,,,,,,,,,,,
,,,,,WIN24_053,20,Female,2024-02-09_16h03.18.149,jersey_experiment_5,2023.2.2,Win32,85.47008547,,,,,,,,,,,,,,,,978.8447,980.6447,980.6447,983.4797,return,1.7836,,97.78645833,,,,,,FBP-PT-81.png,0.45,1.2,55,1,,,,,,,,,,,,,,,,,,0,29,29,54,1,,,,,,,,,,,,,,,,,,,,,,,
,,,,,WIN24_053,20,Female,2024-02-09_16h03.18.149,jersey_experiment_5,2023.2.2,Win32,85.47008547,,,,,,,,,,,,,,,,983.48,984.774,984.774,986.9742,return,0.8239,,83.984375,,,,,,FBP-RB-71.png,0.43,1.2,19,0.5,,,,,,,,,,,,,,,,,,0,30,30,18,1,,,,,,,,,,,,,,,,,,,,,,,
,,,,,WIN24_053,20,Female,2024-02-09_16h03.18.149,jersey_experiment_5,2023.2.2,Win32,85.47008547,,,,,,,,,,,,,,,,986.9745,988.7741,988.7742,990.6801,return,1.0678,,98.30729167,,,,,,FBP-OG-19.png,0.45,1.2,15,1,,,,,,,,,,,,,,,,,,0,31,31,14,1,,,,,,,,,,,,,,,,,,,,,,,
,,,,,WIN24_053,20,Female,2024-02-09_16h03.18.149,jersey_experiment_5,2023.2.2,Win32,85.47008547,,,,,,,,,,,,,,,,990.6803,992.4802,992.4802,994.4803,return,0.6969,,74.86979167,,,,,,FBP-PT-91.png,0.43,1.2,59,1,,,,,,,,,,,,,,,,,,0,32,32,58,1,,,,,,,,,,,,,,,,,,,,,,,
,,,,,WIN24_053,20,Female,2024-02-09_16h03.18.149,jersey_experiment_5,2023.2.2,Win32,85.47008547,,,,,,,,,,,,,,,,994.4806,996.2803,996.2803,997.7392,return,0.6973,,73.4375,,,,,,FBP-OG-19.png,0.4,1.2,13,1,,,,,,,,,,,,,,,,,,0,33,33,12,1,,,,,,,,,,,,,,,,,,,,,,,
,,,,,WIN24_053,20,Female,2024-02-09_16h03.18.149,jersey_experiment_5,2023.2.2,Win32,85.47008547,,,,,,,,,,,,,,,,997.7394,999.5393,999.5394,1001.4806,return,0.6771,,48.4375,,,,,,FBP-PT-81.png,0.4,1.2,53,1,,,,,,,,,,,,,,,,,,0,34,34,52,1,,,,,,,,,,,,,,,,,,,,,,,
,,,,,WIN24_053,20,Female,2024-02-09_16h03.18.149,jersey_experiment_5,2023.2.2,Win32,85.47008547,,,,,,,,,,,,,,,,1001.4808,1003.2807,1003.2807,1005.1631,return,1.2977,,29.296875,,,,,,FBP-OG-19.png,0.35,1.2,11,1,,,,,,,,,,,,,,,,,,0,35,35,10,1,,,,,,,,,,,,,,,,,,,,,,,
,,,,,WIN24_053,20,Female,2024-02-09_16h03.18.149,jersey_experiment_5,2023.2.2,Win32,85.47008547,,,,,,,,,,,,,,,,1005.1633,1006.4572,1006.4572,1008.1867,return,0.6277,,47.78645833,,,,,,FBP-YG-19.png,0.4,1.2,43,0.5,,,,,,,,,,,,,,,,,,0,36,36,42,1,,,,,,,,,,,,,,,,,,,,,,,
,,,,,WIN24_053,20,Female,2024-02-09_16h03.18.149,jersey_experiment_5,2023.2.2,Win32,85.47008547,,,,,,,,,,,,,,,,1008.1869,1009.4808,1009.4808,1011.3868,return,0.6983,,66.14583333,,,,,,FBP-RB-71.png,0.37,1.2,17,0.5,,,,,,,,,,,,,,,,,,0,37,37,16,1,,,,,,,,,,,,,,,,,,,,,,,
,,,,,WIN24_053,20,Female,2024-02-09_16h03.18.149,jersey_experiment_5,2023.2.2,Win32,85.47008547,,,,,,,,,,,,,,,,1011.387,1013.187,1013.187,1014.9869,return,0.7451,,56.640625,,,,,,FBP-PT-71.png,0.37,1.2,47,1,,,,,,,,,,,,,,,,,,0,38,38,46,1,,,,,,,,,,,,,,,,,,,,,,,
,,,,,WIN24_053,20,Female,2024-02-09_16h03.18.149,jersey_experiment_5,2023.2.2,Win32,85.47008547,,,,,,,,,,,,,,,,1014.987,1016.281,1016.281,1018.1047,return,0.7735,,85.67708333,,,,,,FBP-YG-17.png,0.45,1.2,35,0.5,,,,,,,,,,,,,,,,,,0,39,39,34,1,,,,,,,,,,,,,,,,,,,,,,,
,,,,,WIN24_053,20,Female,2024-02-09_16h03.18.149,jersey_experiment_5,2023.2.2,Win32,85.47008547,,,,,,,,,,,,,,,,1018.1049,1019.3989,1019.3989,1020.8459,return,0.7418,,85.67708333,,,,,,FBP-YG-17.png,0.37,1.2,32,0.5,,,,,,,,,,,,,,,,,,0,40,40,31,1,,,,,,,,,,,,,,,,,,,,,,,
,,,,,WIN24_053,20,Female,2024-02-09_16h03.18.149,jersey_experiment_5,2023.2.2,Win32,85.47008547,,,,,,,,,,,,,,,,1020.8462,1022.14,1022.1401,1024.105,return,0.6646,,54.296875,,,,,,FBP-RB-81.png,0.35,1.2,21,0.5,,,,,,,,,,,,,,,,,,0,41,41,20,1,,,,,,,,,,,,,,,,,,,,,,,
,,,,,WIN24_053,20,Female,2024-02-09_16h03.18.149,jersey_experiment_5,2023.2.2,Win32,85.47008547,,,,,,,,,,,,,,,,1024.1052,1025.9049,1025.9049,1027.9168,return,0.7217,,44.66145833,,,,,,FBP-OG-17.png,0.35,1.2,1,1,,,,,,,,,,,,,,,,,,0,42,42,0,1,,,,,,,,,,,,,,,,,,,,,,,
,,,,,WIN24_053,20,Female,2024-02-09_16h03.18.149,jersey_experiment_5,2023.2.2,Win32,85.47008547,,,,,,,,,,,,,,,,1027.9171,1029.7169,1029.7169,1031.4229,return,0.6594,,97.00520833,,,,,,FBP-PT-71.png,0.45,1.2,50,1,,,,,,,,,,,,,,,,,,0,43,43,49,1,,,,,,,,,,,,,,,,,,,,,,,
,,,,,WIN24_053,20,Female,2024-02-09_16h03.18.149,jersey_experiment_5,2023.2.2,Win32,85.47008547,,,,,,,,,,,,,,,,1031.4231,1033.2228,1033.2229,1035.1053,return,0.8328,,99.86979167,,,,,,FBP-OG-19.png,0.43,1.2,14,1,,,,,,,,,,,,,,,,,,0,44,44,13,1,,,,,,,,,,,,,,,,,,,,,,,
,,,,,WIN24_053,20,Female,2024-02-09_16h03.18.149,jersey_experiment_5,2023.2.2,Win32,85.47008547,,,,,,,,,,,,,,,,1035.1055,1036.3995,1036.3995,1037.7406,return,0.7339,,99.609375,,,,,,FBP-RB-81.png,0.45,1.2,25,0.5,,,,,,,,,,,,,,,,,,0,45,45,24,1,,,,,,,,,,,,,,,,,,,,,,,
,,,,,WIN24_053,20,Female,2024-02-09_16h03.18.149,jersey_experiment_5,2023.2.2,Win32,85.47008547,,,,,,,,,,,,,,,,1037.741,1039.0348,1039.0348,1040.5526,return,0.891,,99.609375,,,,,,FBP-RB-91.png,0.45,1.2,30,0.5,,,,,,,,,,,,,,,,,,0,46,46,29,1,,,,,,,,,,,,,,,,,,,,,,,
,,,,,WIN24_053,20,Female,2024-02-09_16h03.18.149,jersey_experiment_5,2023.2.2,Win32,85.47008547,,,,,,,,,,,,,,,,1040.5529,1041.8468,1041.8468,1044.4586,return,1.8398,,74.86979167,,,,,,FBP-RB-71.png,0.4,1.2,18,0.5,,,,,,,,,,,,,,,,,,0,47,47,17,1,,,,,,,,,,,,,,,,,,,,,,,
,,,,,WIN24_053,20,Female,2024-02-09_16h03.18.149,jersey_experiment_5,2023.2.2,Win32,85.47008547,,,,,,,,,,,,,,,,1044.4589,1046.2586,1046.2586,1048.0587,return,0.677,,89.19270833,,,,,,FBP-OG-18.png,0.43,1.2,9,1,,,,,,,,,,,,,,,,,,0,48,48,8,1,,,,,,,,,,,,,,,,,,,,,,,
,,,,,WIN24_053,20,Female,2024-02-09_16h03.18.149,jersey_experiment_5,2023.2.2,Win32,85.47008547,,,,,,,,,,,,,,,,1048.059,1049.3529,1049.353,1051.6353,return,0.7204,,44.921875,,,,,,FBP-RB-71.png,0.35,1.2,16,0.5,,,,,,,,,,,,,,,,,,0,49,49,15,1,,,,,,,,,,,,,,,,,,,,,,,
,,,,,WIN24_053,20,Female,2024-02-09_16h03.18.149,jersey_experiment_5,2023.2.2,Win32,85.47008547,,,,,,,,,,,,,,,,1051.6356,1053.4355,1053.4355,1055.1294,return,1.0053,,35.546875,,,,,,FBP-PT-91.png,0.37,1.2,57,1,,,,,,,,,,,,,,,,,,0,50,50,56,1,,,,,,,,,,,,,,,,,,,,,,,
,,,,,WIN24_053,20,Female,2024-02-09_16h03.18.149,jersey_experiment_5,2023.2.2,Win32,85.47008547,,,,,,,,,,,,,,,,1055.1297,1056.4236,1056.4236,1059.0591,return,0.5974,,0.130208333,,,,,,FBP-YG-18.png,0.35,1.2,36,0.5,,,,,,,,,,,,,,,,,,0,51,51,35,1,,,,,,,,,,,,,,,,,,,,,,,
,,,,,WIN24_053,20,Female,2024-02-09_16h03.18.149,jersey_experiment_5,2023.2.2,Win32,85.47008547,,,,,,,,,,,,,,,,1059.0593,1060.8592,1060.8592,1063.024,return,0.8707,,51.69270833,,,,,,FBP-OG-17.png,0.4,1.2,3,1,,,,,,,,,,,,,,,,,,0,52,52,2,1,,,,,,,,,,,,,,,,,,,,,,,
,,,,,WIN24_053,20,Female,2024-02-09_16h03.18.149,jersey_experiment_5,2023.2.2,Win32,85.47008547,,,,,,,,,,,,,,,,1063.0242,1064.824,1064.824,1066.2829,return,0.6275,,96.22395833,,,,,,FBP-PT-71.png,0.43,1.2,49,1,,,,,,,,,,,,,,,,,,0,53,53,48,1,,,,,,,,,,,,,,,,,,,,,,,
,,,,,WIN24_053,20,Female,2024-02-09_16h03.18.149,jersey_experiment_5,2023.2.2,Win32,85.47008547,,,,,,,,,,,,,,,,1066.2831,1067.577,1067.577,1069.1535,return,0.6824,,73.56770833,,,,,,FBP-RB-81.png,0.37,1.2,22,0.5,,,,,,,,,,,,,,,,,,0,54,54,21,1,,,,,,,,,,,,,,,,,,,,,,,
,,,,,WIN24_053,20,Female,2024-02-09_16h03.18.149,jersey_experiment_5,2023.2.2,Win32,85.47008547,,,,,,,,,,,,,,,,1069.1537,1070.4477,1070.4477,1072.8832,return,0.791,,99.86979167,,,,,,FBP-YG-17.png,0.43,1.2,34,0.5,,,,,,,,,,,,,,,,,,0,55,55,33,1,,,,,,,,,,,,,,,,,,,,,,,
,,,,,WIN24_053,20,Female,2024-02-09_16h03.18.149,jersey_experiment_5,2023.2.2,Win32,85.47008547,,,,,,,,,,,,,,,,1072.8834,1074.6832,1074.6832,1076.895,return,0.6934,,31.90104167,,,,,,FBP-OG-17.png,0.37,1.2,2,1,,,,,,,,,,,,,,,,,,0,56,56,1,1,,,,,,,,,,,,,,,,,,,,,,,
,,,,,WIN24_053,20,Female,2024-02-09_16h03.18.149,jersey_experiment_5,2023.2.2,Win32,85.47008547,,,,,,,,,,,,,,,,1076.8952,1078.6951,1078.6951,1080.648,return,0.7734,,99.47916667,,,,,,FBP-OG-18.png,0.45,1.2,10,1,,,,,,,,,,,,,,,,,,0,57,57,9,1,,,,,,,,,,,,,,,,,,,,,,,
,,,,,WIN24_053,20,Female,2024-02-09_16h03.18.149,jersey_experiment_5,2023.2.2,Win32,85.47008547,,,,,,,,,,,,,,,,1080.6482,1082.4483,1082.4483,1084.0247,return,0.738,,73.828125,,,,,,FBP-PT-71.png,0.4,1.2,48,1,,,,,,,,,,,,,,,,,,0,58,58,47,1,,,,,,,,,,,,,,,,,,,,,,,
,,,,,WIN24_053,20,Female,2024-02-09_16h03.18.149,jersey_experiment_5,2023.2.2,Win32,85.47008547,,,,,,,,,,,,,,,,1084.025,1085.8249,1085.8249,1087.6013,return,0.6824,,39.97395833,,,,,,FBP-PT-71.png,0.35,1.2,46,1,,,,,,,,,,,,,,,,,,0,59,59,45,1,,,,,,,,,,,,,,,,,,,,,,,
,,,,,WIN24_053,20,Female,2024-02-09_16h03.18.149,jersey_experiment_5,2023.2.2,Win32,85.47008547,,,,,,,,,,,,,,,,,,,,,,,,,,,,,,,,,,,,,,,,,,,,,,,,,,,,,,,,1087.6017,1093.884,return,6.2728,,,,,,,,,,,,,,,,,,,
,,,,,WIN24_053,20,Female,2024-02-09_16h03.18.149,jersey_experiment_5,2023.2.2,Win32,85.47008547,,,,,,,,,,,,,,,,,,,,,,,,,,,,,,,,,,,,,,,,,,,,,,,,,,,,,,,,,,,,,1093.8841,1099.4372,1,3.4148,return,2.1212,,,,,,,,,,,,
,,,,,WIN24_053,20,Female,2024-02-09_16h03.18.149,jersey_experiment_5,2023.2.2,Win32,85.47008547,,,,,,,,,,,,,,,,,,,,,,,,,,,,,,,,,,,,,,,,,,,,,,,,,,,,,,,,,,,,,,,,,,,,1099.4374,1151.1381,it could relate to the ways we perceive the size of the colors on the jerseys. I also noticed that some of the sizes seemed to repeat a couple of times with different jersey colors.,right,44.1673,,,,,,
,,,,,WIN24_053,20,Female,2024-02-09_16h03.18.149,jersey_experiment_5,2023.2.2,Win32,85.47008547,,,,,,,,,,,,,,,,,,,,,,,,,,,,,,,,,,,,,,,,,,,,,,,,,,,,,,,,,,,,,,,,,,,,,,,,,,1151.1382,1156.3688,return,5.2189,