requirements.started,requirements.stopped,key_resp_3.keys,key_resp_3.rt,key_resp_3.duration,Subject ID,Age,Gender,date,expName,psychopyVersion,OS,frameRate,instructions1.started,instructions1.stopped,key_resp.keys,key_resp.rt,key_resp.duration,example.started,example.stopped,enter_2.keys,enter_2.rt,enter_2.duration,instructions2.started,instructions2.stopped,enter_3.keys,enter_3.rt,enter_3.duration,image.started,image.stopped,slider_2.started,slider_2.stopped,next.keys,next.rt,next.duration,slider.response,trial_block_1.thisRepN,trial_block_1.thisTrialN,trial_block_1.thisN,trial_block_1.thisIndex,trial_block_1.ran,Path,Width,Height,Index,Duration,trial_block_2.thisRepN,trial_block_2.thisTrialN,trial_block_2.thisN,trial_block_2.thisIndex,trial_block_2.ran,rest_break.started,rest_break.stopped,end_break.started,end_break.stopped,key_resp_5.keys,key_resp_5.rt,key_resp_5.duration,trial_block_3.thisRepN,trial_block_3.thisTrialN,trial_block_3.thisN,trial_block_3.thisIndex,trial_block_3.ran,trial_block_4.thisRepN,trial_block_4.thisTrialN,trial_block_4.thisN,trial_block_4.thisIndex,trial_block_4.ran,questions_intro.started,questions_intro.stopped,enter_12.keys,enter_12.rt,enter_12.duration,question2.started,question2.stopped,question_doingbest.response,question_doingbest.rt,enter_15.keys,enter_15.rt,enter_15.duration,pattern.started,pattern.stopped,pattern_2.text,enter_17.keys,enter_17.rt,enter_17.duration,thankyou.started,thankyou.stopped,enter_14.keys,enter_14.rt,enter_14.duration
0,8.1247,return,8.1199,,WIN24_050,20,Female,2024-02-09_13h35.54.357,jersey_experiment_5,2023.2.2,Win32,84.74576271,,,,,,,,,,,,,,,,,,,,,,,,,,,,,,,,,,,,,,,,,,,,,,,,,,,,,,,,,,,,,,,,,,,,,,,,,,,,,,
,,,,,WIN24_050,20,Female,2024-02-09_13h35.54.357,jersey_experiment_5,2023.2.2,Win32,84.74576271,8.1248,18.6,return,10.4622,,,,,,,,,,,,,,,,,,,,,,,,,,,,,,,,,,,,,,,,,,,,,,,,,,,,,,,,,,,,,,,,,,,,,,,,,,
,,,,,WIN24_050,20,Female,2024-02-09_13h35.54.357,jersey_experiment_5,2023.2.2,Win32,84.74576271,,,,,,18.6001,24.5677,return,5.9335,,,,,,,,,,,,,,,,,,,,,,,,,,,,,,,,,,,,,,,,,,,,,,,,,,,,,,,,,,,,,,,,,,,,,
,,,,,WIN24_050,20,Female,2024-02-09_13h35.54.357,jersey_experiment_5,2023.2.2,Win32,84.74576271,,,,,,,,,,,24.5678,46.2951,return,21.7105,,,,,,,,,,,,,,,,,,,,,,,,,,,,,,,,,,,,,,,,,,,,,,,,,,,,,,,,,,,,,,,,
,,,,,WIN24_050,20,Female,2024-02-09_13h35.54.357,jersey_experiment_5,2023.2.2,Win32,84.74576271,,,,,,,,,,,,,,,,46.3023,48.0978,48.0979,61.3662,return,2.3947,,50,0,0,0,40,1,FBP-YG-91.png,0.35,1.2,41,1,,,,,,,,,,,,,,,,,,,,,,,,,,,,,,,,,,,,,,,,,,,,,
,,,,,WIN24_050,20,Female,2024-02-09_13h35.54.357,jersey_experiment_5,2023.2.2,Win32,84.74576271,,,,,,,,,,,,,,,,61.3666,63.1659,63.166,66.6955,return,1.3696,,75.52083333,0,1,1,34,1,FBP-YG-71.png,0.45,1.2,35,1,,,,,,,,,,,,,,,,,,,,,,,,,,,,,,,,,,,,,,,,,,,,,
,,,,,WIN24_050,20,Female,2024-02-09_13h35.54.357,jersey_experiment_5,2023.2.2,Win32,84.74576271,,,,,,,,,,,,,,,,66.6957,68.4956,68.4957,71.1428,return,0.9333,,50.65104167,0,2,2,30,1,FBP-YG-71.png,0.35,1.2,31,1,,,,,,,,,,,,,,,,,,,,,,,,,,,,,,,,,,,,,,,,,,,,,
,,,,,WIN24_050,20,Female,2024-02-09_13h35.54.357,jersey_experiment_5,2023.2.2,Win32,84.74576271,,,,,,,,,,,,,,,,71.1431,72.4369,72.4369,77.2253,return,1.2618,,99.21875,0,3,3,49,1,FBP-PT-17.png,0.45,1.2,50,0.5,,,,,,,,,,,,,,,,,,,,,,,,,,,,,,,,,,,,,,,,,,,,,
,,,,,WIN24_050,20,Female,2024-02-09_13h35.54.357,jersey_experiment_5,2023.2.2,Win32,84.74576271,,,,,,,,,,,,,,,,77.2255,79.0253,79.0253,81.3196,return,1.0519,,74.34895833,0,4,4,18,1,FBP-RB-17.png,0.43,1.2,19,1,,,,,,,,,,,,,,,,,,,,,,,,,,,,,,,,,,,,,,,,,,,,,
,,,,,WIN24_050,20,Female,2024-02-09_13h35.54.357,jersey_experiment_5,2023.2.2,Win32,84.74576271,,,,,,,,,,,,,,,,81.3199,83.1195,83.1195,84.3078,return,0.3498,,25.65104167,0,5,5,41,1,FBP-YG-91.png,0.37,1.2,42,1,,,,,,,,,,,,,,,,,,,,,,,,,,,,,,,,,,,,,,,,,,,,,
,,,,,WIN24_050,20,Female,2024-02-09_13h35.54.357,jersey_experiment_5,2023.2.2,Win32,84.74576271,,,,,,,,,,,,,,,,84.3081,85.6022,85.6023,87.4492,return,0.756,,48.95833333,0,6,6,57,1,FBP-PT-19.png,0.4,1.2,58,0.5,,,,,,,,,,,,,,,,,,,,,,,,,,,,,,,,,,,,,,,,,,,,,
,,,,,WIN24_050,20,Female,2024-02-09_13h35.54.357,jersey_experiment_5,2023.2.2,Win32,84.74576271,,,,,,,,,,,,,,,,87.4493,88.7433,88.7433,91.0141,return,0.286,,49.08854167,0,7,7,52,1,FBP-PT-18.png,0.4,1.2,53,0.5,,,,,,,,,,,,,,,,,,,,,,,,,,,,,,,,,,,,,,,,,,,,,
,,,,,WIN24_050,20,Female,2024-02-09_13h35.54.357,jersey_experiment_5,2023.2.2,Win32,84.74576271,,,,,,,,,,,,,,,,91.0143,92.3082,92.3083,93.1435,return,0.2402,,49.08854167,0,8,8,50,1,FBP-PT-18.png,0.35,1.2,51,0.5,,,,,,,,,,,,,,,,,,,,,,,,,,,,,,,,,,,,,,,,,,,,,
,,,,,WIN24_050,20,Female,2024-02-09_13h35.54.357,jersey_experiment_5,2023.2.2,Win32,84.74576271,,,,,,,,,,,,,,,,93.1437,94.4376,94.4377,95.3554,return,0.2924,,49.08854167,0,9,9,10,1,FBP-OG-91.png,0.35,1.2,11,0.5,,,,,,,,,,,,,,,,,,,,,,,,,,,,,,,,,,,,,,,,,,,,,
,,,,,WIN24_050,20,Female,2024-02-09_13h35.54.357,jersey_experiment_5,2023.2.2,Win32,84.74576271,,,,,,,,,,,,,,,,95.3556,96.6494,96.6494,97.4848,return,0.2264,,49.08854167,0,10,10,0,1,FBP-OG-71.png,0.35,1.2,1,0.5,,,,,,,,,,,,,,,,,,,,,,,,,,,,,,,,,,,,,,,,,,,,,
,,,,,WIN24_050,20,Female,2024-02-09_13h35.54.357,jersey_experiment_5,2023.2.2,Win32,84.74576271,,,,,,,,,,,,,,,,97.4851,98.7791,98.7791,101.6379,return,1.3947,,74.609375,0,11,11,2,1,FBP-OG-71.png,0.4,1.2,3,0.5,,,,,,,,,,,,,,,,,,,,,,,,,,,,,,,,,,,,,,,,,,,,,
,,,,,WIN24_050,20,Female,2024-02-09_13h35.54.357,jersey_experiment_5,2023.2.2,Win32,84.74576271,,,,,,,,,,,,,,,,101.6382,102.9321,102.9321,104.2379,return,0.3438,,91.40625,0,12,12,3,1,FBP-OG-71.png,0.43,1.2,4,0.5,,,,,,,,,,,,,,,,,,,,,,,,,,,,,,,,,,,,,,,,,,,,,
,,,,,WIN24_050,20,Female,2024-02-09_13h35.54.357,jersey_experiment_5,2023.2.2,Win32,84.74576271,,,,,,,,,,,,,,,,104.2382,105.5324,105.5324,106.7558,return,0.2888,,34.11458333,0,13,13,55,1,FBP-PT-19.png,0.35,1.2,56,0.5,,,,,,,,,,,,,,,,,,,,,,,,,,,,,,,,,,,,,,,,,,,,,
,,,,,WIN24_050,20,Female,2024-02-09_13h35.54.357,jersey_experiment_5,2023.2.2,Win32,84.74576271,,,,,,,,,,,,,,,,106.756,108.05,108.05,109.6618,return,0.2121,,85.67708333,0,14,14,9,1,FBP-OG-81.png,0.45,1.2,10,0.5,,,,,,,,,,,,,,,,,,,,,,,,,,,,,,,,,,,,,,,,,,,,,
,,,,,WIN24_050,20,Female,2024-02-09_13h35.54.357,jersey_experiment_5,2023.2.2,Win32,84.74576271,,,,,,,,,,,,,,,,109.662,110.956,110.9561,111.9911,return,0.1562,,98.56770833,0,15,15,53,1,FBP-PT-18.png,0.43,1.2,54,0.5,,,,,,,,,,,,,,,,,,,,,,,,,,,,,,,,,,,,,,,,,,,,,
,,,,,WIN24_050,20,Female,2024-02-09_13h35.54.357,jersey_experiment_5,2023.2.2,Win32,84.74576271,,,,,,,,,,,,,,,,111.9913,113.7913,113.7914,115.9443,return,0.9542,,33.46354167,0,16,16,20,1,FBP-RB-18.png,0.35,1.2,21,1,,,,,,,,,,,,,,,,,,,,,,,,,,,,,,,,,,,,,,,,,,,,,
,,,,,WIN24_050,20,Female,2024-02-09_13h35.54.357,jersey_experiment_5,2023.2.2,Win32,84.74576271,,,,,,,,,,,,,,,,115.9446,117.7445,117.7445,118.6857,return,0.0613,,50,0,17,17,26,1,FBP-RB-19.png,0.37,1.2,27,1,,,,,,,,,,,,,,,,,,,,,,,,,,,,,,,,,,,,,,,,,,,,,
,,,,,WIN24_050,20,Female,2024-02-09_13h35.54.357,jersey_experiment_5,2023.2.2,Win32,84.74576271,,,,,,,,,,,,,,,,118.686,119.9798,119.9798,121.5092,return,0.0754,,99.609375,0,18,18,4,1,FBP-OG-71.png,0.45,1.2,5,0.5,,,,,,,,,,,,,,,,,,,,,,,,,,,,,,,,,,,,,,,,,,,,,
,,,,,WIN24_050,20,Female,2024-02-09_13h35.54.357,jersey_experiment_5,2023.2.2,Win32,84.74576271,,,,,,,,,,,,,,,,121.5095,123.3093,123.3093,124.4622,return,0.3624,,30.59895833,0,19,19,21,1,FBP-RB-18.png,0.37,1.2,22,1,,,,,,,,,,,,,,,,,,,,,,,,,,,,,,,,,,,,,,,,,,,,,
,,,,,WIN24_050,20,Female,2024-02-09_13h35.54.357,jersey_experiment_5,2023.2.2,Win32,84.74576271,,,,,,,,,,,,,,,,124.4624,125.7563,125.7563,128.8035,return,0.124,,56.38020833,0,20,20,47,1,FBP-PT-17.png,0.4,1.2,48,0.5,,,,,,,,,,,,,,,,,,,,,,,,,,,,,,,,,,,,,,,,,,,,,
,,,,,WIN24_050,20,Female,2024-02-09_13h35.54.357,jersey_experiment_5,2023.2.2,Win32,84.74576271,,,,,,,,,,,,,,,,128.8038,130.0978,130.0979,131.2273,return,0.2019,,75.390625,0,21,21,8,1,FBP-OG-81.png,0.43,1.2,9,0.5,,,,,,,,,,,,,,,,,,,,,,,,,,,,,,,,,,,,,,,,,,,,,
,,,,,WIN24_050,20,Female,2024-02-09_13h35.54.357,jersey_experiment_5,2023.2.2,Win32,84.74576271,,,,,,,,,,,,,,,,131.2276,133.0272,133.0272,134.2156,return,0.3225,,89.58333333,0,22,22,28,1,FBP-RB-19.png,0.43,1.2,29,1,,,,,,,,,,,,,,,,,,,,,,,,,,,,,,,,,,,,,,,,,,,,,
,,,,,WIN24_050,20,Female,2024-02-09_13h35.54.357,jersey_experiment_5,2023.2.2,Win32,84.74576271,,,,,,,,,,,,,,,,134.2159,136.0157,136.0158,137.1567,return,0.193,,90.88541667,0,23,23,24,1,FBP-RB-18.png,0.45,1.2,25,1,,,,,,,,,,,,,,,,,,,,,,,,,,,,,,,,,,,,,,,,,,,,,
,,,,,WIN24_050,20,Female,2024-02-09_13h35.54.357,jersey_experiment_5,2023.2.2,Win32,84.74576271,,,,,,,,,,,,,,,,137.157,138.9569,138.9569,140.1218,return,0.3676,,91.40625,0,24,24,37,1,FBP-YG-81.png,0.4,1.2,38,1,,,,,,,,,,,,,,,,,,,,,,,,,,,,,,,,,,,,,,,,,,,,,
,,,,,WIN24_050,20,Female,2024-02-09_13h35.54.357,jersey_experiment_5,2023.2.2,Win32,84.74576271,,,,,,,,,,,,,,,,140.122,141.4161,141.4161,142.7336,return,0.038,,24.609375,0,25,25,46,1,FBP-PT-17.png,0.37,1.2,47,0.5,,,,,,,,,,,,,,,,,,,,,,,,,,,,,,,,,,,,,,,,,,,,,
,,,,,WIN24_050,20,Female,2024-02-09_13h35.54.357,jersey_experiment_5,2023.2.2,Win32,84.74576271,,,,,,,,,,,,,,,,142.7338,144.0277,144.0278,144.7571,return,0.0188,,24.609375,0,26,26,45,1,FBP-PT-17.png,0.35,1.2,46,0.5,,,,,,,,,,,,,,,,,,,,,,,,,,,,,,,,,,,,,,,,,,,,,
,,,,,WIN24_050,20,Female,2024-02-09_13h35.54.357,jersey_experiment_5,2023.2.2,Win32,84.74576271,,,,,,,,,,,,,,,,144.7573,146.0515,146.0515,147.0867,return,0.0473,,50,0,27,27,48,1,FBP-PT-17.png,0.43,1.2,49,0.5,,,,,,,,,,,,,,,,,,,,,,,,,,,,,,,,,,,,,,,,,,,,,
,,,,,WIN24_050,20,Female,2024-02-09_13h35.54.357,jersey_experiment_5,2023.2.2,Win32,84.74576271,,,,,,,,,,,,,,,,147.087,148.3807,148.3807,149.6396,return,0.0375,,75.390625,0,28,28,13,1,FBP-OG-91.png,0.43,1.2,14,0.5,,,,,,,,,,,,,,,,,,,,,,,,,,,,,,,,,,,,,,,,,,,,,
,,,,,WIN24_050,20,Female,2024-02-09_13h35.54.357,jersey_experiment_5,2023.2.2,Win32,84.74576271,,,,,,,,,,,,,,,,149.6398,150.934,150.934,152.7457,return,0.9066,,63.93229167,0,29,29,7,1,FBP-OG-81.png,0.4,1.2,8,0.5,,,,,,,,,,,,,,,,,,,,,,,,,,,,,,,,,,,,,,,,,,,,,
,,,,,WIN24_050,20,Female,2024-02-09_13h35.54.357,jersey_experiment_5,2023.2.2,Win32,84.74576271,,,,,,,,,,,,,,,,152.7459,154.5457,154.5457,156.1575,return,0.1276,,68.75,0,30,30,38,1,FBP-YG-81.png,0.43,1.2,39,1,,,,,,,,,,,,,,,,,,,,,,,,,,,,,,,,,,,,,,,,,,,,,
,,,,,WIN24_050,20,Female,2024-02-09_13h35.54.357,jersey_experiment_5,2023.2.2,Win32,84.74576271,,,,,,,,,,,,,,,,156.1577,157.9577,157.9578,158.9105,return,0.1883,,48.828125,0,31,31,16,1,FBP-RB-17.png,0.37,1.2,17,1,,,,,,,,,,,,,,,,,,,,,,,,,,,,,,,,,,,,,,,,,,,,,
,,,,,WIN24_050,20,Female,2024-02-09_13h35.54.357,jersey_experiment_5,2023.2.2,Win32,84.74576271,,,,,,,,,,,,,,,,158.9106,160.2047,160.2047,161.358,return,0.0942,,83.59375,0,32,32,54,1,FBP-PT-18.png,0.45,1.2,55,0.5,,,,,,,,,,,,,,,,,,,,,,,,,,,,,,,,,,,,,,,,,,,,,
,,,,,WIN24_050,20,Female,2024-02-09_13h35.54.357,jersey_experiment_5,2023.2.2,Win32,84.74576271,,,,,,,,,,,,,,,,161.3581,163.1579,163.1579,165.6991,return,1.0189,,66.796875,0,33,33,23,1,FBP-RB-18.png,0.43,1.2,24,1,,,,,,,,,,,,,,,,,,,,,,,,,,,,,,,,,,,,,,,,,,,,,
,,,,,WIN24_050,20,Female,2024-02-09_13h35.54.357,jersey_experiment_5,2023.2.2,Win32,84.74576271,,,,,,,,,,,,,,,,165.6994,166.9936,166.9936,167.8756,return,0.1029,,25,0,34,34,51,1,FBP-PT-18.png,0.37,1.2,52,0.5,,,,,,,,,,,,,,,,,,,,,,,,,,,,,,,,,,,,,,,,,,,,,
,,,,,WIN24_050,20,Female,2024-02-09_13h35.54.357,jersey_experiment_5,2023.2.2,Win32,84.74576271,,,,,,,,,,,,,,,,167.8757,169.6758,169.6758,170.7582,return,0.0511,,49.86979167,0,35,35,31,1,FBP-YG-71.png,0.37,1.2,32,1,,,,,,,,,,,,,,,,,,,,,,,,,,,,,,,,,,,,,,,,,,,,,
,,,,,WIN24_050,20,Female,2024-02-09_13h35.54.357,jersey_experiment_5,2023.2.2,Win32,84.74576271,,,,,,,,,,,,,,,,170.7584,172.5582,172.5582,174.6641,return,1.2017,,66.015625,0,36,36,43,1,FBP-YG-91.png,0.43,1.2,44,1,,,,,,,,,,,,,,,,,,,,,,,,,,,,,,,,,,,,,,,,,,,,,
,,,,,WIN24_050,20,Female,2024-02-09_13h35.54.357,jersey_experiment_5,2023.2.2,Win32,84.74576271,,,,,,,,,,,,,,,,174.6643,176.4642,176.4642,177.6053,return,0.1217,,50.26041667,0,37,37,42,1,FBP-YG-91.png,0.4,1.2,43,1,,,,,,,,,,,,,,,,,,,,,,,,,,,,,,,,,,,,,,,,,,,,,
,,,,,WIN24_050,20,Female,2024-02-09_13h35.54.357,jersey_experiment_5,2023.2.2,Win32,84.74576271,,,,,,,,,,,,,,,,177.6056,179.4056,179.4056,181.4056,return,0.1748,,49.21875,0,38,38,27,1,FBP-RB-19.png,0.4,1.2,28,1,,,,,,,,,,,,,,,,,,,,,,,,,,,,,,,,,,,,,,,,,,,,,
,,,,,WIN24_050,20,Female,2024-02-09_13h35.54.357,jersey_experiment_5,2023.2.2,Win32,84.74576271,,,,,,,,,,,,,,,,181.4058,182.6996,182.6997,183.6057,return,0.1598,,35.67708333,0,39,39,6,1,FBP-OG-81.png,0.37,1.2,7,0.5,,,,,,,,,,,,,,,,,,,,,,,,,,,,,,,,,,,,,,,,,,,,,
,,,,,WIN24_050,20,Female,2024-02-09_13h35.54.357,jersey_experiment_5,2023.2.2,Win32,84.74576271,,,,,,,,,,,,,,,,183.606,185.4056,185.4057,186.5236,return,0.1413,,13.80208333,0,40,40,35,1,FBP-YG-81.png,0.35,1.2,36,1,,,,,,,,,,,,,,,,,,,,,,,,,,,,,,,,,,,,,,,,,,,,,
,,,,,WIN24_050,20,Female,2024-02-09_13h35.54.357,jersey_experiment_5,2023.2.2,Win32,84.74576271,,,,,,,,,,,,,,,,186.5238,187.8177,187.8177,189.1823,return,0.5892,,6.119791667,0,41,41,5,1,FBP-OG-81.png,0.35,1.2,6,0.5,,,,,,,,,,,,,,,,,,,,,,,,,,,,,,,,,,,,,,,,,,,,,
,,,,,WIN24_050,20,Female,2024-02-09_13h35.54.357,jersey_experiment_5,2023.2.2,Win32,84.74576271,,,,,,,,,,,,,,,,189.1824,190.9823,190.9824,191.9471,return,0.0575,,5.338541667,0,42,42,15,1,FBP-RB-17.png,0.35,1.2,16,1,,,,,,,,,,,,,,,,,,,,,,,,,,,,,,,,,,,,,,,,,,,,,
,,,,,WIN24_050,20,Female,2024-02-09_13h35.54.357,jersey_experiment_5,2023.2.2,Win32,84.74576271,,,,,,,,,,,,,,,,191.9473,193.7472,193.7472,196.2296,return,0.1579,,75.13020833,0,43,43,44,1,FBP-YG-91.png,0.45,1.2,45,1,,,,,,,,,,,,,,,,,,,,,,,,,,,,,,,,,,,,,,,,,,,,,
,,,,,WIN24_050,20,Female,2024-02-09_13h35.54.357,jersey_experiment_5,2023.2.2,Win32,84.74576271,,,,,,,,,,,,,,,,196.2299,197.5238,197.5238,198.6297,return,0.1715,,50.390625,0,44,44,12,1,FBP-OG-91.png,0.4,1.2,13,0.5,,,,,,,,,,,,,,,,,,,,,,,,,,,,,,,,,,,,,,,,,,,,,
,,,,,WIN24_050,20,Female,2024-02-09_13h35.54.357,jersey_experiment_5,2023.2.2,Win32,84.74576271,,,,,,,,,,,,,,,,198.6299,199.9238,199.9239,201.2299,return,0.3444,,87.890625,0,45,45,58,1,FBP-PT-19.png,0.43,1.2,59,0.5,,,,,,,,,,,,,,,,,,,,,,,,,,,,,,,,,,,,,,,,,,,,,
,,,,,WIN24_050,20,Female,2024-02-09_13h35.54.357,jersey_experiment_5,2023.2.2,Win32,84.74576271,,,,,,,,,,,,,,,,201.23,203.0298,203.0298,204.2063,return,0.1654,,57.55208333,0,46,46,32,1,FBP-YG-71.png,0.4,1.2,33,1,,,,,,,,,,,,,,,,,,,,,,,,,,,,,,,,,,,,,,,,,,,,,
,,,,,WIN24_050,20,Female,2024-02-09_13h35.54.357,jersey_experiment_5,2023.2.2,Win32,84.74576271,,,,,,,,,,,,,,,,204.2065,205.5005,205.5005,209.8066,return,3.3032,,44.40104167,0,47,47,1,1,FBP-OG-71.png,0.37,1.2,2,0.5,,,,,,,,,,,,,,,,,,,,,,,,,,,,,,,,,,,,,,,,,,,,,
,,,,,WIN24_050,20,Female,2024-02-09_13h35.54.357,jersey_experiment_5,2023.2.2,Win32,84.74576271,,,,,,,,,,,,,,,,209.8068,211.1007,211.1008,212.3244,return,0.5964,,29.94791667,0,48,48,56,1,FBP-PT-19.png,0.37,1.2,57,0.5,,,,,,,,,,,,,,,,,,,,,,,,,,,,,,,,,,,,,,,,,,,,,
,,,,,WIN24_050,20,Female,2024-02-09_13h35.54.357,jersey_experiment_5,2023.2.2,Win32,84.74576271,,,,,,,,,,,,,,,,212.3246,214.1245,214.1246,215.4186,return,0.7446,,21.875,0,49,49,25,1,FBP-RB-19.png,0.35,1.2,26,1,,,,,,,,,,,,,,,,,,,,,,,,,,,,,,,,,,,,,,,,,,,,,
,,,,,WIN24_050,20,Female,2024-02-09_13h35.54.357,jersey_experiment_5,2023.2.2,Win32,84.74576271,,,,,,,,,,,,,,,,215.4188,217.2187,217.2187,218.3481,return,0.2827,,55.46875,0,50,50,22,1,FBP-RB-18.png,0.4,1.2,23,1,,,,,,,,,,,,,,,,,,,,,,,,,,,,,,,,,,,,,,,,,,,,,
,,,,,WIN24_050,20,Female,2024-02-09_13h35.54.357,jersey_experiment_5,2023.2.2,Win32,84.74576271,,,,,,,,,,,,,,,,218.3483,220.1483,220.1484,220.9364,return,0.0839,,40.234375,0,51,51,36,1,FBP-YG-81.png,0.37,1.2,37,1,,,,,,,,,,,,,,,,,,,,,,,,,,,,,,,,,,,,,,,,,,,,,
,,,,,WIN24_050,20,Female,2024-02-09_13h35.54.357,jersey_experiment_5,2023.2.2,Win32,84.74576271,,,,,,,,,,,,,,,,220.9366,222.2305,222.2305,223.3952,return,0.2651,,75.65104167,0,52,52,14,1,FBP-OG-91.png,0.45,1.2,15,0.5,,,,,,,,,,,,,,,,,,,,,,,,,,,,,,,,,,,,,,,,,,,,,
,,,,,WIN24_050,20,Female,2024-02-09_13h35.54.357,jersey_experiment_5,2023.2.2,Win32,84.74576271,,,,,,,,,,,,,,,,223.3955,224.6895,224.6895,226.3131,return,0.0715,,74.609375,0,53,53,59,1,FBP-PT-19.png,0.45,1.2,60,0.5,,,,,,,,,,,,,,,,,,,,,,,,,,,,,,,,,,,,,,,,,,,,,
,,,,,WIN24_050,20,Female,2024-02-09_13h35.54.357,jersey_experiment_5,2023.2.2,Win32,84.74576271,,,,,,,,,,,,,,,,226.3133,228.1131,228.1131,229.278,return,0.2501,,83.984375,0,54,54,29,1,FBP-RB-19.png,0.45,1.2,30,1,,,,,,,,,,,,,,,,,,,,,,,,,,,,,,,,,,,,,,,,,,,,,
,,,,,WIN24_050,20,Female,2024-02-09_13h35.54.357,jersey_experiment_5,2023.2.2,Win32,84.74576271,,,,,,,,,,,,,,,,229.2783,230.572,230.572,232.6308,return,0.0525,,24.86979167,0,55,55,11,1,FBP-OG-91.png,0.37,1.2,12,0.5,,,,,,,,,,,,,,,,,,,,,,,,,,,,,,,,,,,,,,,,,,,,,
,,,,,WIN24_050,20,Female,2024-02-09_13h35.54.357,jersey_experiment_5,2023.2.2,Win32,84.74576271,,,,,,,,,,,,,,,,232.6312,234.4311,234.4311,235.6546,return,0.1206,,53.25520833,0,56,56,17,1,FBP-RB-17.png,0.4,1.2,18,1,,,,,,,,,,,,,,,,,,,,,,,,,,,,,,,,,,,,,,,,,,,,,
,,,,,WIN24_050,20,Female,2024-02-09_13h35.54.357,jersey_experiment_5,2023.2.2,Win32,84.74576271,,,,,,,,,,,,,,,,235.6549,237.4548,237.4548,238.6194,return,0.0374,,69.53125,0,57,57,33,1,FBP-YG-71.png,0.43,1.2,34,1,,,,,,,,,,,,,,,,,,,,,,,,,,,,,,,,,,,,,,,,,,,,,
,,,,,WIN24_050,20,Female,2024-02-09_13h35.54.357,jersey_experiment_5,2023.2.2,Win32,84.74576271,,,,,,,,,,,,,,,,238.6197,240.4194,240.4195,241.5725,return,0.6198,,80.98958333,0,58,58,39,1,FBP-YG-81.png,0.45,1.2,40,1,,,,,,,,,,,,,,,,,,,,,,,,,,,,,,,,,,,,,,,,,,,,,
,,,,,WIN24_050,20,Female,2024-02-09_13h35.54.357,jersey_experiment_5,2023.2.2,Win32,84.74576271,,,,,,,,,,,,,,,,241.5726,243.3726,243.3726,244.0902,return,0.1525,,89.0625,0,59,59,19,1,FBP-RB-17.png,0.45,1.2,20,1,,,,,,,,,,,,,,,,,,,,,,,,,,,,,,,,,,,,,,,,,,,,,
,,,,,WIN24_050,20,Female,2024-02-09_13h35.54.357,jersey_experiment_5,2023.2.2,Win32,84.74576271,,,,,,,,,,,,,,,,244.0922,245.8905,245.8905,246.5962,return,0.1846,,90.88541667,,,,,,FBP-RB-91.png,0.45,1.2,30,1,0,0,0,29,1,,,,,,,,,,,,,,,,,,,,,,,,,,,,,,,,,,,,,,,,
,,,,,WIN24_050,20,Female,2024-02-09_13h35.54.357,jersey_experiment_5,2023.2.2,Win32,84.74576271,,,,,,,,,,,,,,,,246.5966,248.3963,248.3963,249.3492,return,0.0425,,36.97916667,,,,,,FBP-RB-91.png,0.4,1.2,28,1,0,1,1,27,1,,,,,,,,,,,,,,,,,,,,,,,,,,,,,,,,,,,,,,,,
,,,,,WIN24_050,20,Female,2024-02-09_13h35.54.357,jersey_experiment_5,2023.2.2,Win32,84.74576271,,,,,,,,,,,,,,,,249.3495,251.1491,251.1491,252.1375,return,0.1765,,2.734375,,,,,,FBP-YG-17.png,0.35,1.2,31,1,0,2,2,30,1,,,,,,,,,,,,,,,,,,,,,,,,,,,,,,,,,,,,,,,,
,,,,,WIN24_050,20,Female,2024-02-09_13h35.54.357,jersey_experiment_5,2023.2.2,Win32,84.74576271,,,,,,,,,,,,,,,,252.1378,253.4317,253.4317,254.7494,return,0.127,,59.24479167,,,,,,FBP-PT-81.png,0.45,1.2,55,0.5,0,3,3,54,1,,,,,,,,,,,,,,,,,,,,,,,,,,,,,,,,,,,,,,,,
,,,,,WIN24_050,20,Female,2024-02-09_13h35.54.357,jersey_experiment_5,2023.2.2,Win32,84.74576271,,,,,,,,,,,,,,,,254.7498,256.5497,256.5497,257.6436,return,0.0476,,49.609375,,,,,,FBP-YG-17.png,0.4,1.2,33,1,0,4,4,32,1,,,,,,,,,,,,,,,,,,,,,,,,,,,,,,,,,,,,,,,,
,,,,,WIN24_050,20,Female,2024-02-09_13h35.54.357,jersey_experiment_5,2023.2.2,Win32,84.74576271,,,,,,,,,,,,,,,,257.6437,258.9377,258.9377,259.9967,return,0.0567,,67.578125,,,,,,FBP-OG-18.png,0.45,1.2,10,0.5,0,5,5,9,1,,,,,,,,,,,,,,,,,,,,,,,,,,,,,,,,,,,,,,,,
,,,,,WIN24_050,20,Female,2024-02-09_13h35.54.357,jersey_experiment_5,2023.2.2,Win32,84.74576271,,,,,,,,,,,,,,,,259.9969,261.797,261.7971,263.079,return,0.3339,,29.6875,,,,,,FBP-YG-17.png,0.37,1.2,32,1,0,6,6,31,1,,,,,,,,,,,,,,,,,,,,,,,,,,,,,,,,,,,,,,,,
,,,,,WIN24_050,20,Female,2024-02-09_13h35.54.357,jersey_experiment_5,2023.2.2,Win32,84.74576271,,,,,,,,,,,,,,,,263.0792,264.3734,264.3734,265.738,return,0.6614,,75.13020833,,,,,,FBP-OG-19.png,0.45,1.2,15,0.5,0,7,7,14,1,,,,,,,,,,,,,,,,,,,,,,,,,,,,,,,,,,,,,,,,
,,,,,WIN24_050,20,Female,2024-02-09_13h35.54.357,jersey_experiment_5,2023.2.2,Win32,84.74576271,,,,,,,,,,,,,,,,265.7383,267.032,267.032,267.9498,return,0.1887,,85.41666667,,,,,,FBP-PT-91.png,0.45,1.2,60,0.5,0,8,8,59,1,,,,,,,,,,,,,,,,,,,,,,,,,,,,,,,,,,,,,,,,
,,,,,WIN24_050,20,Female,2024-02-09_13h35.54.357,jersey_experiment_5,2023.2.2,Win32,84.74576271,,,,,,,,,,,,,,,,267.9499,269.75,269.75,270.4558,return,0.0633,,82.421875,,,,,,FBP-YG-18.png,0.43,1.2,39,1,0,9,9,38,1,,,,,,,,,,,,,,,,,,,,,,,,,,,,,,,,,,,,,,,,
,,,,,WIN24_050,20,Female,2024-02-09_13h35.54.357,jersey_experiment_5,2023.2.2,Win32,84.74576271,,,,,,,,,,,,,,,,270.4559,272.256,272.256,273.5148,return,0.509,,2.994791667,,,,,,FBP-RB-91.png,0.35,1.2,26,1,0,10,10,25,1,,,,,,,,,,,,,,,,,,,,,,,,,,,,,,,,,,,,,,,,
,,,,,WIN24_050,20,Female,2024-02-09_13h35.54.357,jersey_experiment_5,2023.2.2,Win32,84.74576271,,,,,,,,,,,,,,,,273.5151,274.8092,274.8092,276.5854,return,0.2241,,0.390625,,,,,,FBP-PT-81.png,0.35,1.2,51,0.5,0,11,11,50,1,,,,,,,,,,,,,,,,,,,,,,,,,,,,,,,,,,,,,,,,
,,,,,WIN24_050,20,Female,2024-02-09_13h35.54.357,jersey_experiment_5,2023.2.2,Win32,84.74576271,,,,,,,,,,,,,,,,276.5856,278.3857,278.3858,279.6444,return,0.4709,,69.66145833,,,,,,FBP-YG-17.png,0.45,1.2,35,1,0,12,12,34,1,,,,,,,,,,,,,,,,,,,,,,,,,,,,,,,,,,,,,,,,
,,,,,WIN24_050,20,Female,2024-02-09_13h35.54.357,jersey_experiment_5,2023.2.2,Win32,84.74576271,,,,,,,,,,,,,,,,279.6447,280.9385,280.9385,282.5386,return,0.0338,,27.60416667,,,,,,FBP-PT-81.png,0.37,1.2,52,0.5,0,13,13,51,1,,,,,,,,,,,,,,,,,,,,,,,,,,,,,,,,,,,,,,,,
,,,,,WIN24_050,20,Female,2024-02-09_13h35.54.357,jersey_experiment_5,2023.2.2,Win32,84.74576271,,,,,,,,,,,,,,,,282.5388,284.3388,284.3388,285.2916,return,0.0335,,24.47916667,,,,,,FBP-YG-19.png,0.37,1.2,42,1,0,14,14,41,1,,,,,,,,,,,,,,,,,,,,,,,,,,,,,,,,,,,,,,,,
,,,,,WIN24_050,20,Female,2024-02-09_13h35.54.357,jersey_experiment_5,2023.2.2,Win32,84.74576271,,,,,,,,,,,,,,,,285.2917,286.5858,286.5858,287.3978,return,0.0275,,61.45833333,,,,,,FBP-PT-91.png,0.43,1.2,59,0.5,0,15,15,58,1,,,,,,,,,,,,,,,,,,,,,,,,,,,,,,,,,,,,,,,,
,,,,,WIN24_050,20,Female,2024-02-09_13h35.54.357,jersey_experiment_5,2023.2.2,Win32,84.74576271,,,,,,,,,,,,,,,,287.398,289.1977,289.1977,289.7977,return,0.0419,,50,,,,,,FBP-YG-19.png,0.4,1.2,43,1,0,16,16,42,1,,,,,,,,,,,,,,,,,,,,,,,,,,,,,,,,,,,,,,,,
,,,,,WIN24_050,20,Female,2024-02-09_13h35.54.357,jersey_experiment_5,2023.2.2,Win32,84.74576271,,,,,,,,,,,,,,,,289.798,291.598,291.598,292.9508,return,0.1686,,25,,,,,,FBP-YG-19.png,0.35,1.2,41,1,0,17,17,40,1,,,,,,,,,,,,,,,,,,,,,,,,,,,,,,,,,,,,,,,,
,,,,,WIN24_050,20,Female,2024-02-09_13h35.54.357,jersey_experiment_5,2023.2.2,Win32,84.74576271,,,,,,,,,,,,,,,,292.951,294.245,294.245,295.0449,return,0.0192,,19.01041667,,,,,,FBP-OG-18.png,0.35,1.2,6,0.5,0,18,18,5,1,,,,,,,,,,,,,,,,,,,,,,,,,,,,,,,,,,,,,,,,
,,,,,WIN24_050,20,Female,2024-02-09_13h35.54.357,jersey_experiment_5,2023.2.2,Win32,84.74576271,,,,,,,,,,,,,,,,295.0451,296.8449,296.845,298.3629,return,0.071,,80.46875,,,,,,FBP-RB-71.png,0.45,1.2,20,1,0,19,19,19,1,,,,,,,,,,,,,,,,,,,,,,,,,,,,,,,,,,,,,,,,
,,,,,WIN24_050,20,Female,2024-02-09_13h35.54.357,jersey_experiment_5,2023.2.2,Win32,84.74576271,,,,,,,,,,,,,,,,298.3631,299.657,299.657,301.0805,return,0.4839,,41.27604167,,,,,,FBP-PT-91.png,0.4,1.2,58,0.5,0,20,20,57,1,,,,,,,,,,,,,,,,,,,,,,,,,,,,,,,,,,,,,,,,
,,,,,WIN24_050,20,Female,2024-02-09_13h35.54.357,jersey_experiment_5,2023.2.2,Win32,84.74576271,,,,,,,,,,,,,,,,301.0808,302.3745,302.3745,305.8689,return,1.2141,,62.23958333,,,,,,FBP-PT-71.png,0.43,1.2,49,0.5,0,21,21,48,1,,,,,,,,,,,,,,,,,,,,,,,,,,,,,,,,,,,,,,,,
,,,,,WIN24_050,20,Female,2024-02-09_13h35.54.357,jersey_experiment_5,2023.2.2,Win32,84.74576271,,,,,,,,,,,,,,,,305.8691,307.6689,307.669,308.822,return,0.0771,,54.81770833,,,,,,FBP-RB-71.png,0.4,1.2,18,1,0,22,22,17,1,,,,,,,,,,,,,,,,,,,,,,,,,,,,,,,,,,,,,,,,
,,,,,WIN24_050,20,Female,2024-02-09_13h35.54.357,jersey_experiment_5,2023.2.2,Win32,84.74576271,,,,,,,,,,,,,,,,308.8222,310.6221,310.6221,311.3396,return,0.071,,36.97916667,,,,,,FBP-RB-81.png,0.35,1.2,21,1,0,23,23,20,1,,,,,,,,,,,,,,,,,,,,,,,,,,,,,,,,,,,,,,,,
,,,,,WIN24_050,20,Female,2024-02-09_13h35.54.357,jersey_experiment_5,2023.2.2,Win32,84.74576271,,,,,,,,,,,,,,,,311.3399,312.6338,312.6338,313.5281,return,0.0511,,28.64583333,,,,,,FBP-PT-71.png,0.35,1.2,46,0.5,0,24,24,45,1,,,,,,,,,,,,,,,,,,,,,,,,,,,,,,,,,,,,,,,,
,,,,,WIN24_050,20,Female,2024-02-09_13h35.54.357,jersey_experiment_5,2023.2.2,Win32,84.74576271,,,,,,,,,,,,,,,,313.5282,315.3283,315.3283,316.4927,return,0.0717,,71.09375,,,,,,FBP-YG-19.png,0.45,1.2,45,1,0,25,25,44,1,,,,,,,,,,,,,,,,,,,,,,,,,,,,,,,,,,,,,,,,
,,,,,WIN24_050,20,Female,2024-02-09_13h35.54.357,jersey_experiment_5,2023.2.2,Win32,84.74576271,,,,,,,,,,,,,,,,316.4929,318.2928,318.2928,319.74,return,0.4567,,67.44791667,,,,,,FBP-YG-17.png,0.43,1.2,34,1,0,26,26,33,1,,,,,,,,,,,,,,,,,,,,,,,,,,,,,,,,,,,,,,,,
,,,,,WIN24_050,20,Female,2024-02-09_13h35.54.357,jersey_experiment_5,2023.2.2,Win32,84.74576271,,,,,,,,,,,,,,,,319.7402,321.5401,321.5401,322.4695,return,0.1099,,25,,,,,,FBP-RB-71.png,0.35,1.2,16,1,0,27,27,15,1,,,,,,,,,,,,,,,,,,,,,,,,,,,,,,,,,,,,,,,,
,,,,,WIN24_050,20,Female,2024-02-09_13h35.54.357,jersey_experiment_5,2023.2.2,Win32,84.74576271,,,,,,,,,,,,,,,,322.4697,323.7637,323.7637,324.4461,return,0.0477,,19.01041667,,,,,,FBP-OG-19.png,0.35,1.2,11,0.5,0,28,28,10,1,,,,,,,,,,,,,,,,,,,,,,,,,,,,,,,,,,,,,,,,
,,,,,WIN24_050,20,Female,2024-02-09_13h35.54.357,jersey_experiment_5,2023.2.2,Win32,84.74576271,,,,,,,,,,,,,,,,324.4463,325.7402,325.7402,327.6109,return,0.0608,,71.09375,,,,,,FBP-OG-19.png,0.43,1.2,14,0.5,0,29,29,13,1,,,,,,,,,,,,,,,,,,,,,,,,,,,,,,,,,,,,,,,,
,,,,,WIN24_050,20,Female,2024-02-09_13h35.54.357,jersey_experiment_5,2023.2.2,Win32,84.74576271,,,,,,,,,,,,,,,,327.6112,329.411,329.411,330.3168,return,0.0709,,74.73958333,,,,,,FBP-RB-81.png,0.43,1.2,24,1,0,30,30,23,1,,,,,,,,,,,,,,,,,,,,,,,,,,,,,,,,,,,,,,,,
,,,,,WIN24_050,20,Female,2024-02-09_13h35.54.357,jersey_experiment_5,2023.2.2,Win32,84.74576271,,,,,,,,,,,,,,,,330.317,332.1168,332.1168,332.6345,return,0.0814,,74.73958333,,,,,,FBP-RB-71.png,0.43,1.2,19,1,0,31,31,18,1,,,,,,,,,,,,,,,,,,,,,,,,,,,,,,,,,,,,,,,,
,,,,,WIN24_050,20,Female,2024-02-09_13h35.54.357,jersey_experiment_5,2023.2.2,Win32,84.74576271,,,,,,,,,,,,,,,,332.6347,333.9286,333.9286,335.2935,return,0.6695,,74.73958333,,,,,,FBP-OG-17.png,0.4,1.2,3,0.5,0,32,32,2,1,,,,,,,,,,,,,,,,,,,,,,,,,,,,,,,,,,,,,,,,
,,,,,WIN24_050,20,Female,2024-02-09_13h35.54.357,jersey_experiment_5,2023.2.2,Win32,84.74576271,,,,,,,,,,,,,,,,335.2936,336.5876,336.5877,337.3172,return,0.2279,,74.73958333,,,,,,FBP-OG-18.png,0.43,1.2,9,0.5,0,33,33,8,1,,,,,,,,,,,,,,,,,,,,,,,,,,,,,,,,,,,,,,,,
,,,,,WIN24_050,20,Female,2024-02-09_13h35.54.357,jersey_experiment_5,2023.2.2,Win32,84.74576271,,,,,,,,,,,,,,,,337.3173,339.1172,339.1173,341.2231,return,0.1323,,54.42708333,,,,,,FBP-YG-18.png,0.37,1.2,37,1,0,34,34,36,1,,,,,,,,,,,,,,,,,,,,,,,,,,,,,,,,,,,,,,,,
,,,,,WIN24_050,20,Female,2024-02-09_13h35.54.357,jersey_experiment_5,2023.2.2,Win32,84.74576271,,,,,,,,,,,,,,,,341.2233,342.5172,342.5172,344.3761,return,0.6717,,79.6875,,,,,,FBP-PT-71.png,0.4,1.2,48,0.5,0,35,35,47,1,,,,,,,,,,,,,,,,,,,,,,,,,,,,,,,,,,,,,,,,
,,,,,WIN24_050,20,Female,2024-02-09_13h35.54.357,jersey_experiment_5,2023.2.2,Win32,84.74576271,,,,,,,,,,,,,,,,344.3763,345.6704,345.6704,346.9058,return,0.226,,35.28645833,,,,,,FBP-PT-91.png,0.37,1.2,57,0.5,0,36,36,56,1,,,,,,,,,,,,,,,,,,,,,,,,,,,,,,,,,,,,,,,,
,,,,,WIN24_050,20,Female,2024-02-09_13h35.54.357,jersey_experiment_5,2023.2.2,Win32,84.74576271,,,,,,,,,,,,,,,,346.906,348.7057,348.7058,350.1529,return,0.1323,,50.13020833,,,,,,FBP-YG-18.png,0.4,1.2,38,1,0,37,37,37,1,,,,,,,,,,,,,,,,,,,,,,,,,,,,,,,,,,,,,,,,
,,,,,WIN24_050,20,Female,2024-02-09_13h35.54.357,jersey_experiment_5,2023.2.2,Win32,84.74576271,,,,,,,,,,,,,,,,350.1531,351.953,351.953,353.1766,return,0.0978,,77.21354167,,,,,,FBP-YG-19.png,0.43,1.2,44,1,0,38,38,43,1,,,,,,,,,,,,,,,,,,,,,,,,,,,,,,,,,,,,,,,,
,,,,,WIN24_050,20,Female,2024-02-09_13h35.54.357,jersey_experiment_5,2023.2.2,Win32,84.74576271,,,,,,,,,,,,,,,,353.1769,354.9765,354.9765,356.0236,return,0.155,,25.52083333,,,,,,FBP-YG-18.png,0.35,1.2,36,1,0,39,39,35,1,,,,,,,,,,,,,,,,,,,,,,,,,,,,,,,,,,,,,,,,
,,,,,WIN24_050,20,Female,2024-02-09_13h35.54.357,jersey_experiment_5,2023.2.2,Win32,84.74576271,,,,,,,,,,,,,,,,356.0238,357.3178,357.3178,358.3649,return,0.1891,,58.33333333,,,,,,FBP-PT-81.png,0.4,1.2,53,0.5,0,40,40,52,1,,,,,,,,,,,,,,,,,,,,,,,,,,,,,,,,,,,,,,,,
,,,,,WIN24_050,20,Female,2024-02-09_13h35.54.357,jersey_experiment_5,2023.2.2,Win32,84.74576271,,,,,,,,,,,,,,,,358.3652,360.165,360.165,360.6945,return,0.0647,,58.46354167,,,,,,FBP-RB-81.png,0.37,1.2,22,1,0,41,41,21,1,,,,,,,,,,,,,,,,,,,,,,,,,,,,,,,,,,,,,,,,
,,,,,WIN24_050,20,Female,2024-02-09_13h35.54.357,jersey_experiment_5,2023.2.2,Win32,84.74576271,,,,,,,,,,,,,,,,360.6947,361.9885,361.9886,364.0711,return,1.3701,,33.984375,,,,,,FBP-OG-17.png,0.35,1.2,1,0.5,0,42,42,0,1,,,,,,,,,,,,,,,,,,,,,,,,,,,,,,,,,,,,,,,,
,,,,,WIN24_050,20,Female,2024-02-09_13h35.54.357,jersey_experiment_5,2023.2.2,Win32,84.74576271,,,,,,,,,,,,,,,,364.0713,365.3651,365.3651,366.8594,return,0.0851,,49.86979167,,,,,,FBP-OG-17.png,0.37,1.2,2,0.5,0,43,43,1,1,,,,,,,,,,,,,,,,,,,,,,,,,,,,,,,,,,,,,,,,
,,,,,WIN24_050,20,Female,2024-02-09_13h35.54.357,jersey_experiment_5,2023.2.2,Win32,84.74576271,,,,,,,,,,,,,,,,366.8597,368.6593,368.6593,370.2125,return,0.1255,,74.08854167,,,,,,FBP-RB-81.png,0.45,1.2,25,1,0,44,44,24,1,,,,,,,,,,,,,,,,,,,,,,,,,,,,,,,,,,,,,,,,
,,,,,WIN24_050,20,Female,2024-02-09_13h35.54.357,jersey_experiment_5,2023.2.2,Win32,84.74576271,,,,,,,,,,,,,,,,370.2127,372.0126,372.0127,373.0008,return,0.0714,,49.86979167,,,,,,FBP-RB-91.png,0.37,1.2,27,1,0,45,45,26,1,,,,,,,,,,,,,,,,,,,,,,,,,,,,,,,,,,,,,,,,
,,,,,WIN24_050,20,Female,2024-02-09_13h35.54.357,jersey_experiment_5,2023.2.2,Win32,84.74576271,,,,,,,,,,,,,,,,373.0011,374.8007,374.8008,376.8363,return,0.1141,,71.74479167,,,,,,FBP-RB-91.png,0.43,1.2,29,1,0,46,46,28,1,,,,,,,,,,,,,,,,,,,,,,,,,,,,,,,,,,,,,,,,
,,,,,WIN24_050,20,Female,2024-02-09_13h35.54.357,jersey_experiment_5,2023.2.2,Win32,84.74576271,,,,,,,,,,,,,,,,376.8364,378.1302,378.1303,379.1189,return,0.1638,,36.58854167,,,,,,FBP-OG-18.png,0.37,1.2,7,0.5,0,47,47,6,1,,,,,,,,,,,,,,,,,,,,,,,,,,,,,,,,,,,,,,,,
,,,,,WIN24_050,20,Female,2024-02-09_13h35.54.357,jersey_experiment_5,2023.2.2,Win32,84.74576271,,,,,,,,,,,,,,,,379.1191,380.4128,380.4128,381.8834,return,0.0712,,49.34895833,,,,,,FBP-OG-18.png,0.4,1.2,8,0.5,0,48,48,7,1,,,,,,,,,,,,,,,,,,,,,,,,,,,,,,,,,,,,,,,,
,,,,,WIN24_050,20,Female,2024-02-09_13h35.54.357,jersey_experiment_5,2023.2.2,Win32,84.74576271,,,,,,,,,,,,,,,,381.8837,383.6837,383.6837,384.5894,return,0.2121,,59.63541667,,,,,,FBP-RB-81.png,0.4,1.2,23,1,0,49,49,22,1,,,,,,,,,,,,,,,,,,,,,,,,,,,,,,,,,,,,,,,,
,,,,,WIN24_050,20,Female,2024-02-09_13h35.54.357,jersey_experiment_5,2023.2.2,Win32,84.74576271,,,,,,,,,,,,,,,,384.5897,385.8836,385.8836,386.4131,return,0.1085,,59.24479167,,,,,,FBP-OG-19.png,0.4,1.2,13,0.5,0,50,50,12,1,,,,,,,,,,,,,,,,,,,,,,,,,,,,,,,,,,,,,,,,
,,,,,WIN24_050,20,Female,2024-02-09_13h35.54.357,jersey_experiment_5,2023.2.2,Win32,84.74576271,,,,,,,,,,,,,,,,386.4134,387.7072,387.7072,388.8247,return,0.0739,,70.57291667,,,,,,FBP-OG-17.png,0.43,1.2,4,0.5,0,51,51,3,1,,,,,,,,,,,,,,,,,,,,,,,,,,,,,,,,,,,,,,,,
,,,,,WIN24_050,20,Female,2024-02-09_13h35.54.357,jersey_experiment_5,2023.2.2,Win32,84.74576271,,,,,,,,,,,,,,,,388.8249,390.1189,390.1189,391.1897,return,0.0274,,74.73958333,,,,,,FBP-PT-81.png,0.43,1.2,54,0.5,0,52,52,53,1,,,,,,,,,,,,,,,,,,,,,,,,,,,,,,,,,,,,,,,,
,,,,,WIN24_050,20,Female,2024-02-09_13h35.54.357,jersey_experiment_5,2023.2.2,Win32,84.74576271,,,,,,,,,,,,,,,,391.19,392.4839,392.4839,393.8018,return,0.1086,,32.55208333,,,,,,FBP-PT-91.png,0.35,1.2,56,0.5,0,53,53,55,1,,,,,,,,,,,,,,,,,,,,,,,,,,,,,,,,,,,,,,,,
,,,,,WIN24_050,20,Female,2024-02-09_13h35.54.357,jersey_experiment_5,2023.2.2,Win32,84.74576271,,,,,,,,,,,,,,,,393.8019,395.0957,395.0958,395.8369,return,0.0805,,33.72395833,,,,,,FBP-OG-19.png,0.37,1.2,12,0.5,0,54,54,11,1,,,,,,,,,,,,,,,,,,,,,,,,,,,,,,,,,,,,,,,,
,,,,,WIN24_050,20,Female,2024-02-09_13h35.54.357,jersey_experiment_5,2023.2.2,Win32,84.74576271,,,,,,,,,,,,,,,,395.8372,397.6373,397.6373,399.6724,return,0.0745,,74.73958333,,,,,,FBP-YG-18.png,0.45,1.2,40,1,0,55,55,39,1,,,,,,,,,,,,,,,,,,,,,,,,,,,,,,,,,,,,,,,,
,,,,,WIN24_050,20,Female,2024-02-09_13h35.54.357,jersey_experiment_5,2023.2.2,Win32,84.74576271,,,,,,,,,,,,,,,,399.6726,401.4724,401.4724,402.296,return,0.0485,,44.66145833,,,,,,FBP-RB-71.png,0.37,1.2,17,1,0,56,56,16,1,,,,,,,,,,,,,,,,,,,,,,,,,,,,,,,,,,,,,,,,
,,,,,WIN24_050,20,Female,2024-02-09_13h35.54.357,jersey_experiment_5,2023.2.2,Win32,84.74576271,,,,,,,,,,,,,,,,402.2962,403.5903,403.5903,406.3784,return,1.8136,,44.53125,,,,,,FBP-PT-71.png,0.37,1.2,47,0.5,0,57,57,46,1,,,,,,,,,,,,,,,,,,,,,,,,,,,,,,,,,,,,,,,,
,,,,,WIN24_050,20,Female,2024-02-09_13h35.54.357,jersey_experiment_5,2023.2.2,Win32,84.74576271,,,,,,,,,,,,,,,,406.3785,407.6726,407.6726,409.5315,return,0.7629,,80.20833333,,,,,,FBP-OG-17.png,0.45,1.2,5,0.5,0,58,58,4,1,,,,,,,,,,,,,,,,,,,,,,,,,,,,,,,,,,,,,,,,
,,,,,WIN24_050,20,Female,2024-02-09_13h35.54.357,jersey_experiment_5,2023.2.2,Win32,84.74576271,,,,,,,,,,,,,,,,409.5317,410.8258,410.8258,411.9435,return,0.0965,,87.5,,,,,,FBP-PT-71.png,0.45,1.2,50,0.5,0,59,59,49,1,,,,,,,,,,,,,,,,,,,,,,,,,,,,,,,,,,,,,,,,
,,,,,WIN24_050,20,Female,2024-02-09_13h35.54.357,jersey_experiment_5,2023.2.2,Win32,84.74576271,,,,,,,,,,,,,,,,,,,,,,,,,,,,,,,,,,,,,,,411.9439,531.9481,,,,,,,,,,,,,,,,,,,,,,,,,,,,,,,,,,,,,,
,,,,,WIN24_050,20,Female,2024-02-09_13h35.54.357,jersey_experiment_5,2023.2.2,Win32,84.74576271,,,,,,,,,,,,,,,,,,,,,,,,,,,,,,,,,,,,,,,,,531.9481,535.0303,return,3.075,,,,,,,,,,,,,,,,,,,,,,,,,,,,,,,,,,
,,,,,WIN24_050,20,Female,2024-02-09_13h35.54.357,jersey_experiment_5,2023.2.2,Win32,84.74576271,,,,,,,,,,,,,,,,535.0367,536.3362,536.3362,543.4305,return,0.85,,75.390625,,,,,,FBP-RB-18.png,0.43,1.2,24,0.5,,,,,,,,,,,,,0,0,0,23,1,,,,,,,,,,,,,,,,,,,,,,,,,,,,
,,,,,WIN24_050,20,Female,2024-02-09_13h35.54.357,jersey_experiment_5,2023.2.2,Win32,84.74576271,,,,,,,,,,,,,,,,543.4309,545.2306,545.2307,546.1952,return,0.0649,,59.89583333,,,,,,FBP-OG-91.png,0.4,1.2,13,1,,,,,,,,,,,,,0,1,1,12,1,,,,,,,,,,,,,,,,,,,,,,,,,,,,
,,,,,WIN24_050,20,Female,2024-02-09_13h35.54.357,jersey_experiment_5,2023.2.2,Win32,84.74576271,,,,,,,,,,,,,,,,546.1955,547.9954,547.9954,548.9013,return,0.1481,,74.86979167,,,,,,FBP-PT-17.png,0.45,1.2,50,1,,,,,,,,,,,,,0,2,2,49,1,,,,,,,,,,,,,,,,,,,,,,,,,,,,
,,,,,WIN24_050,20,Female,2024-02-09_13h35.54.357,jersey_experiment_5,2023.2.2,Win32,84.74576271,,,,,,,,,,,,,,,,548.9015,550.7013,550.7013,551.3012,return,0.1099,,74.73958333,,,,,,FBP-OG-71.png,0.43,1.2,4,1,,,,,,,,,,,,,0,3,3,3,1,,,,,,,,,,,,,,,,,,,,,,,,,,,,
,,,,,WIN24_050,20,Female,2024-02-09_13h35.54.357,jersey_experiment_5,2023.2.2,Win32,84.74576271,,,,,,,,,,,,,,,,551.3015,553.1016,553.1016,553.8545,return,0.0847,,79.296875,,,,,,FBP-OG-71.png,0.45,1.2,5,1,,,,,,,,,,,,,0,4,4,4,1,,,,,,,,,,,,,,,,,,,,,,,,,,,,
,,,,,WIN24_050,20,Female,2024-02-09_13h35.54.357,jersey_experiment_5,2023.2.2,Win32,84.74576271,,,,,,,,,,,,,,,,553.8548,555.6544,555.6544,556.2545,return,0.094,,80.33854167,,,,,,FBP-PT-18.png,0.45,1.2,55,1,,,,,,,,,,,,,0,5,5,54,1,,,,,,,,,,,,,,,,,,,,,,,,,,,,
,,,,,WIN24_050,20,Female,2024-02-09_13h35.54.357,jersey_experiment_5,2023.2.2,Win32,84.74576271,,,,,,,,,,,,,,,,556.2547,557.5486,557.5487,558.4781,return,0.0472,,80.33854167,,,,,,FBP-YG-81.png,0.43,1.2,39,0.5,,,,,,,,,,,,,0,6,6,38,1,,,,,,,,,,,,,,,,,,,,,,,,,,,,
,,,,,WIN24_050,20,Female,2024-02-09_13h35.54.357,jersey_experiment_5,2023.2.2,Win32,84.74576271,,,,,,,,,,,,,,,,558.4784,560.2782,560.2782,561.2545,return,0.0526,,38.93229167,,,,,,FBP-PT-18.png,0.37,1.2,52,1,,,,,,,,,,,,,0,7,7,51,1,,,,,,,,,,,,,,,,,,,,,,,,,,,,
,,,,,WIN24_050,20,Female,2024-02-09_13h35.54.357,jersey_experiment_5,2023.2.2,Win32,84.74576271,,,,,,,,,,,,,,,,561.2547,563.0548,563.0548,563.7371,return,0.0147,,31.38020833,,,,,,FBP-PT-19.png,0.37,1.2,57,1,,,,,,,,,,,,,0,8,8,56,1,,,,,,,,,,,,,,,,,,,,,,,,,,,,
,,,,,WIN24_050,20,Female,2024-02-09_13h35.54.357,jersey_experiment_5,2023.2.2,Win32,84.74576271,,,,,,,,,,,,,,,,563.7373,565.5372,565.5372,566.2195,return,0.0331,,25,,,,,,FBP-OG-81.png,0.35,1.2,6,1,,,,,,,,,,,,,0,9,9,5,1,,,,,,,,,,,,,,,,,,,,,,,,,,,,
,,,,,WIN24_050,20,Female,2024-02-09_13h35.54.357,jersey_experiment_5,2023.2.2,Win32,84.74576271,,,,,,,,,,,,,,,,566.2198,567.5136,567.5136,568.2431,return,0.0795,,33.33333333,,,,,,FBP-YG-91.png,0.37,1.2,42,0.5,,,,,,,,,,,,,0,10,10,41,1,,,,,,,,,,,,,,,,,,,,,,,,,,,,
,,,,,WIN24_050,20,Female,2024-02-09_13h35.54.357,jersey_experiment_5,2023.2.2,Win32,84.74576271,,,,,,,,,,,,,,,,568.2434,570.0434,570.0435,570.5962,return,0.0169,,46.484375,,,,,,FBP-OG-81.png,0.37,1.2,7,1,,,,,,,,,,,,,0,11,11,6,1,,,,,,,,,,,,,,,,,,,,,,,,,,,,
,,,,,WIN24_050,20,Female,2024-02-09_13h35.54.357,jersey_experiment_5,2023.2.2,Win32,84.74576271,,,,,,,,,,,,,,,,570.5964,572.3962,572.3962,572.9373,return,0.0476,,35.546875,,,,,,FBP-PT-17.png,0.35,1.2,46,1,,,,,,,,,,,,,0,12,12,45,1,,,,,,,,,,,,,,,,,,,,,,,,,,,,
,,,,,WIN24_050,20,Female,2024-02-09_13h35.54.357,jersey_experiment_5,2023.2.2,Win32,84.74576271,,,,,,,,,,,,,,,,572.9377,574.2316,574.2317,575.7023,return,0.0381,,68.88020833,,,,,,FBP-RB-17.png,0.43,1.2,19,0.5,,,,,,,,,,,,,0,13,13,18,1,,,,,,,,,,,,,,,,,,,,,,,,,,,,
,,,,,WIN24_050,20,Female,2024-02-09_13h35.54.357,jersey_experiment_5,2023.2.2,Win32,84.74576271,,,,,,,,,,,,,,,,575.7025,576.9964,576.9965,577.867,return,0.0337,,75.91145833,,,,,,FBP-YG-81.png,0.45,1.2,40,0.5,,,,,,,,,,,,,0,14,14,39,1,,,,,,,,,,,,,,,,,,,,,,,,,,,,
,,,,,WIN24_050,20,Female,2024-02-09_13h35.54.357,jersey_experiment_5,2023.2.2,Win32,84.74576271,,,,,,,,,,,,,,,,577.8672,579.1612,579.1612,579.7259,return,0.0562,,76.30208333,,,,,,FBP-YG-91.png,0.45,1.2,45,0.5,,,,,,,,,,,,,0,15,15,44,1,,,,,,,,,,,,,,,,,,,,,,,,,,,,
,,,,,WIN24_050,20,Female,2024-02-09_13h35.54.357,jersey_experiment_5,2023.2.2,Win32,84.74576271,,,,,,,,,,,,,,,,579.7262,581.0201,581.0201,582.7497,return,1.3321,,70.44270833,,,,,,FBP-YG-71.png,0.43,1.2,34,0.5,,,,,,,,,,,,,0,16,16,33,1,,,,,,,,,,,,,,,,,,,,,,,,,,,,
,,,,,WIN24_050,20,Female,2024-02-09_13h35.54.357,jersey_experiment_5,2023.2.2,Win32,84.74576271,,,,,,,,,,,,,,,,582.7499,584.5496,584.5497,585.1262,return,0.1355,,70.96354167,,,,,,FBP-OG-91.png,0.45,1.2,15,1,,,,,,,,,,,,,0,17,17,14,1,,,,,,,,,,,,,,,,,,,,,,,,,,,,
,,,,,WIN24_050,20,Female,2024-02-09_13h35.54.357,jersey_experiment_5,2023.2.2,Win32,84.74576271,,,,,,,,,,,,,,,,585.1264,586.4203,586.4203,587.3262,return,0.0568,,54.94791667,,,,,,FBP-YG-71.png,0.4,1.2,33,0.5,,,,,,,,,,,,,0,18,18,32,1,,,,,,,,,,,,,,,,,,,,,,,,,,,,
,,,,,WIN24_050,20,Female,2024-02-09_13h35.54.357,jersey_experiment_5,2023.2.2,Win32,84.74576271,,,,,,,,,,,,,,,,587.3264,588.6204,588.6204,591.8323,return,0.8482,,52.60416667,,,,,,FBP-RB-17.png,0.4,1.2,18,0.5,,,,,,,,,,,,,0,19,19,17,1,,,,,,,,,,,,,,,,,,,,,,,,,,,,
,,,,,WIN24_050,20,Female,2024-02-09_13h35.54.357,jersey_experiment_5,2023.2.2,Win32,84.74576271,,,,,,,,,,,,,,,,591.8326,593.6324,593.6324,594.3148,return,0.1047,,79.81770833,,,,,,FBP-PT-18.png,0.43,1.2,54,1,,,,,,,,,,,,,0,20,20,53,1,,,,,,,,,,,,,,,,,,,,,,,,,,,,
,,,,,WIN24_050,20,Female,2024-02-09_13h35.54.357,jersey_experiment_5,2023.2.2,Win32,84.74576271,,,,,,,,,,,,,,,,594.3149,595.6088,595.6089,596.1854,return,0.0003,,79.81770833,,,,,,FBP-RB-17.png,0.45,1.2,20,0.5,,,,,,,,,,,,,0,21,21,19,1,,,,,,,,,,,,,,,,,,,,,,,,,,,,
,,,,,WIN24_050,20,Female,2024-02-09_13h35.54.357,jersey_experiment_5,2023.2.2,Win32,84.74576271,,,,,,,,,,,,,,,,596.1857,597.9854,597.9854,598.9736,return,0.0096,,31.38020833,,,,,,FBP-OG-91.png,0.35,1.2,11,1,,,,,,,,,,,,,0,22,22,10,1,,,,,,,,,,,,,,,,,,,,,,,,,,,,
,,,,,WIN24_050,20,Female,2024-02-09_13h35.54.357,jersey_experiment_5,2023.2.2,Win32,84.74576271,,,,,,,,,,,,,,,,598.9739,600.2678,600.2679,601.0913,return,0.0882,,50.26041667,,,,,,FBP-YG-91.png,0.4,1.2,43,0.5,,,,,,,,,,,,,0,23,23,42,1,,,,,,,,,,,,,,,,,,,,,,,,,,,,
,,,,,WIN24_050,20,Female,2024-02-09_13h35.54.357,jersey_experiment_5,2023.2.2,Win32,84.74576271,,,,,,,,,,,,,,,,601.0916,602.3855,602.3855,603.0914,return,0.0177,,44.140625,,,,,,FBP-YG-71.png,0.37,1.2,32,0.5,,,,,,,,,,,,,0,24,24,31,1,,,,,,,,,,,,,,,,,,,,,,,,,,,,
,,,,,WIN24_050,20,Female,2024-02-09_13h35.54.357,jersey_experiment_5,2023.2.2,Win32,84.74576271,,,,,,,,,,,,,,,,603.0916,604.3857,604.3857,605.0327,return,0.0005,,34.24479167,,,,,,FBP-RB-17.png,0.35,1.2,16,0.5,,,,,,,,,,,,,0,25,25,15,1,,,,,,,,,,,,,,,,,,,,,,,,,,,,
,,,,,WIN24_050,20,Female,2024-02-09_13h35.54.357,jersey_experiment_5,2023.2.2,Win32,84.74576271,,,,,,,,,,,,,,,,605.033,606.8329,606.8329,608.0093,return,0.0734,,78.25520833,,,,,,FBP-OG-81.png,0.45,1.2,10,1,,,,,,,,,,,,,0,26,26,9,1,,,,,,,,,,,,,,,,,,,,,,,,,,,,
,,,,,WIN24_050,20,Female,2024-02-09_13h35.54.357,jersey_experiment_5,2023.2.2,Win32,84.74576271,,,,,,,,,,,,,,,,608.0095,609.8094,609.8094,610.8683,return,0.0522,,75.390625,,,,,,FBP-PT-19.png,0.43,1.2,59,1,,,,,,,,,,,,,0,27,27,58,1,,,,,,,,,,,,,,,,,,,,,,,,,,,,
,,,,,WIN24_050,20,Female,2024-02-09_13h35.54.357,jersey_experiment_5,2023.2.2,Win32,84.74576271,,,,,,,,,,,,,,,,610.8686,612.6683,612.6683,613.7155,return,0.3733,,60.546875,,,,,,FBP-OG-81.png,0.4,1.2,8,1,,,,,,,,,,,,,0,28,28,7,1,,,,,,,,,,,,,,,,,,,,,,,,,,,,
,,,,,WIN24_050,20,Female,2024-02-09_13h35.54.357,jersey_experiment_5,2023.2.2,Win32,84.74576271,,,,,,,,,,,,,,,,613.7157,615.0098,615.0098,615.7979,return,0.0769,,59.50520833,,,,,,FBP-RB-18.png,0.4,1.2,23,0.5,,,,,,,,,,,,,0,29,29,22,1,,,,,,,,,,,,,,,,,,,,,,,,,,,,
,,,,,WIN24_050,20,Female,2024-02-09_13h35.54.357,jersey_experiment_5,2023.2.2,Win32,84.74576271,,,,,,,,,,,,,,,,615.7981,617.5982,617.5982,619.2686,return,1.0636,,68.09895833,,,,,,FBP-OG-91.png,0.43,1.2,14,1,,,,,,,,,,,,,0,30,30,13,1,,,,,,,,,,,,,,,,,,,,,,,,,,,,
,,,,,WIN24_050,20,Female,2024-02-09_13h35.54.357,jersey_experiment_5,2023.2.2,Win32,84.74576271,,,,,,,,,,,,,,,,619.2688,620.5628,620.5628,621.2568,return,0.0269,,81.25,,,,,,FBP-RB-18.png,0.45,1.2,25,0.5,,,,,,,,,,,,,0,31,31,24,1,,,,,,,,,,,,,,,,,,,,,,,,,,,,
,,,,,WIN24_050,20,Female,2024-02-09_13h35.54.357,jersey_experiment_5,2023.2.2,Win32,84.74576271,,,,,,,,,,,,,,,,621.2571,622.5511,622.5511,623.1746,return,0.0498,,42.1875,,,,,,FBP-YG-91.png,0.35,1.2,41,0.5,,,,,,,,,,,,,0,32,32,40,1,,,,,,,,,,,,,,,,,,,,,,,,,,,,
,,,,,WIN24_050,20,Female,2024-02-09_13h35.54.357,jersey_experiment_5,2023.2.2,Win32,84.74576271,,,,,,,,,,,,,,,,623.1748,624.4688,624.4688,625.6453,return,0.0234,,65.49479167,,,,,,FBP-RB-19.png,0.43,1.2,29,0.5,,,,,,,,,,,,,0,33,33,28,1,,,,,,,,,,,,,,,,,,,,,,,,,,,,
,,,,,WIN24_050,20,Female,2024-02-09_13h35.54.357,jersey_experiment_5,2023.2.2,Win32,84.74576271,,,,,,,,,,,,,,,,625.6455,627.4453,627.4454,629.0454,return,0.2887,,33.33333333,,,,,,FBP-OG-71.png,0.37,1.2,2,1,,,,,,,,,,,,,0,34,34,1,1,,,,,,,,,,,,,,,,,,,,,,,,,,,,
,,,,,WIN24_050,20,Female,2024-02-09_13h35.54.357,jersey_experiment_5,2023.2.2,Win32,84.74576271,,,,,,,,,,,,,,,,629.0456,630.3395,630.3395,630.8219,return,0.0512,,33.46354167,,,,,,FBP-YG-81.png,0.35,1.2,36,0.5,,,,,,,,,,,,,0,35,35,35,1,,,,,,,,,,,,,,,,,,,,,,,,,,,,
,,,,,WIN24_050,20,Female,2024-02-09_13h35.54.357,jersey_experiment_5,2023.2.2,Win32,84.74576271,,,,,,,,,,,,,,,,630.8222,632.622,632.6221,633.5865,return,0.0655,,63.02083333,,,,,,FBP-OG-71.png,0.4,1.2,3,1,,,,,,,,,,,,,0,36,36,2,1,,,,,,,,,,,,,,,,,,,,,,,,,,,,
,,,,,WIN24_050,20,Female,2024-02-09_13h35.54.357,jersey_experiment_5,2023.2.2,Win32,84.74576271,,,,,,,,,,,,,,,,633.5868,634.8808,634.8808,635.7398,return,0.0858,,30.859375,,,,,,FBP-YG-71.png,0.35,1.2,31,0.5,,,,,,,,,,,,,0,37,37,30,1,,,,,,,,,,,,,,,,,,,,,,,,,,,,
,,,,,WIN24_050,20,Female,2024-02-09_13h35.54.357,jersey_experiment_5,2023.2.2,Win32,84.74576271,,,,,,,,,,,,,,,,635.7401,637.0342,637.0342,637.6457,return,0.0236,,86.58854167,,,,,,FBP-YG-71.png,0.45,1.2,35,0.5,,,,,,,,,,,,,0,38,38,34,1,,,,,,,,,,,,,,,,,,,,,,,,,,,,
,,,,,WIN24_050,20,Female,2024-02-09_13h35.54.357,jersey_experiment_5,2023.2.2,Win32,84.74576271,,,,,,,,,,,,,,,,637.6459,639.4457,639.4458,640.5987,return,0.1795,,53.515625,,,,,,FBP-PT-17.png,0.37,1.2,47,1,,,,,,,,,,,,,0,39,39,46,1,,,,,,,,,,,,,,,,,,,,,,,,,,,,
,,,,,WIN24_050,20,Female,2024-02-09_13h35.54.357,jersey_experiment_5,2023.2.2,Win32,84.74576271,,,,,,,,,,,,,,,,640.5989,641.8929,641.8929,643.0459,return,0.1706,,79.6875,,,,,,FBP-RB-19.png,0.45,1.2,30,0.5,,,,,,,,,,,,,0,40,40,29,1,,,,,,,,,,,,,,,,,,,,,,,,,,,,
,,,,,WIN24_050,20,Female,2024-02-09_13h35.54.357,jersey_experiment_5,2023.2.2,Win32,84.74576271,,,,,,,,,,,,,,,,643.046,644.3399,644.34,645.1284,return,0.0152,,68.48958333,,,,,,FBP-YG-91.png,0.43,1.2,44,0.5,,,,,,,,,,,,,0,41,41,43,1,,,,,,,,,,,,,,,,,,,,,,,,,,,,
,,,,,WIN24_050,20,Female,2024-02-09_13h35.54.357,jersey_experiment_5,2023.2.2,Win32,84.74576271,,,,,,,,,,,,,,,,645.1286,646.9283,646.9284,650.0932,return,1.9304,,79.03645833,,,,,,FBP-PT-17.png,0.43,1.2,49,1,,,,,,,,,,,,,0,42,42,48,1,,,,,,,,,,,,,,,,,,,,,,,,,,,,
,,,,,WIN24_050,20,Female,2024-02-09_13h35.54.357,jersey_experiment_5,2023.2.2,Win32,84.74576271,,,,,,,,,,,,,,,,650.0935,651.3874,651.3874,652.2816,return,0.1319,,33.59375,,,,,,FBP-RB-19.png,0.35,1.2,26,0.5,,,,,,,,,,,,,0,43,43,25,1,,,,,,,,,,,,,,,,,,,,,,,,,,,,
,,,,,WIN24_050,20,Female,2024-02-09_13h35.54.357,jersey_experiment_5,2023.2.2,Win32,84.74576271,,,,,,,,,,,,,,,,652.2818,654.0816,654.0816,654.6347,return,0.0456,,24.08854167,,,,,,FBP-PT-19.png,0.35,1.2,56,1,,,,,,,,,,,,,0,44,44,55,1,,,,,,,,,,,,,,,,,,,,,,,,,,,,
,,,,,WIN24_050,20,Female,2024-02-09_13h35.54.357,jersey_experiment_5,2023.2.2,Win32,84.74576271,,,,,,,,,,,,,,,,654.6348,656.4346,656.4346,658.7171,return,0.0946,,58.46354167,,,,,,FBP-PT-19.png,0.4,1.2,58,1,,,,,,,,,,,,,0,45,45,57,1,,,,,,,,,,,,,,,,,,,,,,,,,,,,
,,,,,WIN24_050,20,Female,2024-02-09_13h35.54.357,jersey_experiment_5,2023.2.2,Win32,84.74576271,,,,,,,,,,,,,,,,658.7174,660.0112,660.0112,661.0465,return,0.5466,,57.16145833,,,,,,FBP-RB-19.png,0.4,1.2,28,0.5,,,,,,,,,,,,,0,46,46,27,1,,,,,,,,,,,,,,,,,,,,,,,,,,,,
,,,,,WIN24_050,20,Female,2024-02-09_13h35.54.357,jersey_experiment_5,2023.2.2,Win32,84.74576271,,,,,,,,,,,,,,,,661.0468,662.3407,662.3407,663.4819,return,0.5791,,44.66145833,,,,,,FBP-RB-18.png,0.37,1.2,22,0.5,,,,,,,,,,,,,0,47,47,21,1,,,,,,,,,,,,,,,,,,,,,,,,,,,,
,,,,,WIN24_050,20,Female,2024-02-09_13h35.54.357,jersey_experiment_5,2023.2.2,Win32,84.74576271,,,,,,,,,,,,,,,,663.4821,665.282,665.282,666.0115,return,0.0476,,55.72916667,,,,,,FBP-PT-18.png,0.4,1.2,53,1,,,,,,,,,,,,,0,48,48,52,1,,,,,,,,,,,,,,,,,,,,,,,,,,,,
,,,,,WIN24_050,20,Female,2024-02-09_13h35.54.357,jersey_experiment_5,2023.2.2,Win32,84.74576271,,,,,,,,,,,,,,,,666.0117,667.3055,667.3056,668.8233,return,0.4963,,44.27083333,,,,,,FBP-RB-19.png,0.37,1.2,27,0.5,,,,,,,,,,,,,0,49,49,26,1,,,,,,,,,,,,,,,,,,,,,,,,,,,,
,,,,,WIN24_050,20,Female,2024-02-09_13h35.54.357,jersey_experiment_5,2023.2.2,Win32,84.74576271,,,,,,,,,,,,,,,,668.8234,670.1175,670.1175,670.9412,return,0.2735,,51.171875,,,,,,FBP-YG-81.png,0.4,1.2,38,0.5,,,,,,,,,,,,,0,50,50,37,1,,,,,,,,,,,,,,,,,,,,,,,,,,,,
,,,,,WIN24_050,20,Female,2024-02-09_13h35.54.357,jersey_experiment_5,2023.2.2,Win32,84.74576271,,,,,,,,,,,,,,,,670.9414,672.7412,672.7412,674.2471,return,0.5223,,69.53125,,,,,,FBP-OG-81.png,0.43,1.2,9,1,,,,,,,,,,,,,0,51,51,8,1,,,,,,,,,,,,,,,,,,,,,,,,,,,,
,,,,,WIN24_050,20,Female,2024-02-09_13h35.54.357,jersey_experiment_5,2023.2.2,Win32,84.74576271,,,,,,,,,,,,,,,,674.2474,676.0472,676.0472,676.7413,return,0.2275,,77.86458333,,,,,,FBP-PT-19.png,0.45,1.2,60,1,,,,,,,,,,,,,0,52,52,59,1,,,,,,,,,,,,,,,,,,,,,,,,,,,,
,,,,,WIN24_050,20,Female,2024-02-09_13h35.54.357,jersey_experiment_5,2023.2.2,Win32,84.74576271,,,,,,,,,,,,,,,,676.7416,678.5413,678.5414,680.0708,return,0.1438,,43.09895833,,,,,,FBP-OG-91.png,0.37,1.2,12,1,,,,,,,,,,,,,0,53,53,11,1,,,,,,,,,,,,,,,,,,,,,,,,,,,,
,,,,,WIN24_050,20,Female,2024-02-09_13h35.54.357,jersey_experiment_5,2023.2.2,Win32,84.74576271,,,,,,,,,,,,,,,,680.071,681.3649,681.365,682.0709,return,0.0638,,45.44270833,,,,,,FBP-RB-17.png,0.37,1.2,17,0.5,,,,,,,,,,,,,0,54,54,16,1,,,,,,,,,,,,,,,,,,,,,,,,,,,,
,,,,,WIN24_050,20,Female,2024-02-09_13h35.54.357,jersey_experiment_5,2023.2.2,Win32,84.74576271,,,,,,,,,,,,,,,,682.071,683.8707,683.8708,685.0004,return,0.1541,,50.390625,,,,,,FBP-PT-17.png,0.4,1.2,48,1,,,,,,,,,,,,,0,55,55,47,1,,,,,,,,,,,,,,,,,,,,,,,,,,,,
,,,,,WIN24_050,20,Female,2024-02-09_13h35.54.357,jersey_experiment_5,2023.2.2,Win32,84.74576271,,,,,,,,,,,,,,,,685.0006,686.8005,686.8005,687.7063,return,0.2842,,31.640625,,,,,,FBP-PT-18.png,0.35,1.2,51,1,,,,,,,,,,,,,0,56,56,50,1,,,,,,,,,,,,,,,,,,,,,,,,,,,,
,,,,,WIN24_050,20,Female,2024-02-09_13h35.54.357,jersey_experiment_5,2023.2.2,Win32,84.74576271,,,,,,,,,,,,,,,,687.7066,689.0004,689.0005,690.7184,return,1.1388,,39.453125,,,,,,FBP-YG-81.png,0.37,1.2,37,0.5,,,,,,,,,,,,,0,57,57,36,1,,,,,,,,,,,,,,,,,,,,,,,,,,,,
,,,,,WIN24_050,20,Female,2024-02-09_13h35.54.357,jersey_experiment_5,2023.2.2,Win32,84.74576271,,,,,,,,,,,,,,,,690.7186,692.5183,692.5183,693.1182,return,0.0468,,24.609375,,,,,,FBP-OG-71.png,0.35,1.2,1,1,,,,,,,,,,,,,0,58,58,0,1,,,,,,,,,,,,,,,,,,,,,,,,,,,,
,,,,,WIN24_050,20,Female,2024-02-09_13h35.54.357,jersey_experiment_5,2023.2.2,Win32,84.74576271,,,,,,,,,,,,,,,,693.1184,694.4124,694.4124,694.8595,return,0.0004,,24.73958333,,,,,,FBP-RB-18.png,0.35,1.2,21,0.5,,,,,,,,,,,,,0,59,59,20,1,,,,,,,,,,,,,,,,,,,,,,,,,,,,
,,,,,WIN24_050,20,Female,2024-02-09_13h35.54.357,jersey_experiment_5,2023.2.2,Win32,84.74576271,,,,,,,,,,,,,,,,694.8611,696.6598,696.6598,697.2125,return,0.1181,,18.48958333,,,,,,FBP-PT-91.png,0.35,1.2,56,1,,,,,,,,,,,,,,,,,,0,0,0,55,1,,,,,,,,,,,,,,,,,,,,,,,
,,,,,WIN24_050,20,Female,2024-02-09_13h35.54.357,jersey_experiment_5,2023.2.2,Win32,84.74576271,,,,,,,,,,,,,,,,697.2129,698.5069,698.5069,699.7657,return,0.2625,,65.88541667,,,,,,FBP-RB-91.png,0.43,1.2,29,0.5,,,,,,,,,,,,,,,,,,0,1,1,28,1,,,,,,,,,,,,,,,,,,,,,,,
,,,,,WIN24_050,20,Female,2024-02-09_13h35.54.357,jersey_experiment_5,2023.2.2,Win32,84.74576271,,,,,,,,,,,,,,,,699.766,701.5657,701.5657,702.8362,return,0.7453,,70.96354167,,,,,,FBP-PT-91.png,0.43,1.2,59,1,,,,,,,,,,,,,,,,,,0,2,2,58,1,,,,,,,,,,,,,,,,,,,,,,,
,,,,,WIN24_050,20,Female,2024-02-09_13h35.54.357,jersey_experiment_5,2023.2.2,Win32,84.74576271,,,,,,,,,,,,,,,,702.8365,704.6365,704.6366,705.6718,return,0.1099,,83.59375,,,,,,FBP-OG-18.png,0.45,1.2,10,1,,,,,,,,,,,,,,,,,,0,3,3,9,1,,,,,,,,,,,,,,,,,,,,,,,
,,,,,WIN24_050,20,Female,2024-02-09_13h35.54.357,jersey_experiment_5,2023.2.2,Win32,84.74576271,,,,,,,,,,,,,,,,705.672,707.4718,707.4718,708.2483,return,0.0036,,83.203125,,,,,,FBP-OG-17.png,0.43,1.2,4,1,,,,,,,,,,,,,,,,,,0,4,4,3,1,,,,,,,,,,,,,,,,,,,,,,,
,,,,,WIN24_050,20,Female,2024-02-09_13h35.54.357,jersey_experiment_5,2023.2.2,Win32,84.74576271,,,,,,,,,,,,,,,,708.2485,709.5423,709.5423,711.4367,return,0.6969,,97.65625,,,,,,FBP-RB-91.png,0.45,1.2,30,0.5,,,,,,,,,,,,,,,,,,0,5,5,29,1,,,,,,,,,,,,,,,,,,,,,,,
,,,,,WIN24_050,20,Female,2024-02-09_13h35.54.357,jersey_experiment_5,2023.2.2,Win32,84.74576271,,,,,,,,,,,,,,,,711.4369,712.7309,712.7309,713.6248,return,0.0008,,83.46354167,,,,,,FBP-RB-81.png,0.43,1.2,24,0.5,,,,,,,,,,,,,,,,,,0,6,6,23,1,,,,,,,,,,,,,,,,,,,,,,,
,,,,,WIN24_050,20,Female,2024-02-09_13h35.54.357,jersey_experiment_5,2023.2.2,Win32,84.74576271,,,,,,,,,,,,,,,,713.625,715.425,715.4251,716.1193,return,0.04,,58.984375,,,,,,FBP-PT-91.png,0.4,1.2,58,1,,,,,,,,,,,,,,,,,,0,7,7,57,1,,,,,,,,,,,,,,,,,,,,,,,
,,,,,WIN24_050,20,Female,2024-02-09_13h35.54.357,jersey_experiment_5,2023.2.2,Win32,84.74576271,,,,,,,,,,,,,,,,716.1194,717.4133,717.4133,719.4369,return,0.6731,,57.55208333,,,,,,FBP-RB-71.png,0.4,1.2,18,0.5,,,,,,,,,,,,,,,,,,0,8,8,17,1,,,,,,,,,,,,,,,,,,,,,,,
,,,,,WIN24_050,20,Female,2024-02-09_13h35.54.357,jersey_experiment_5,2023.2.2,Win32,84.74576271,,,,,,,,,,,,,,,,719.4371,720.731,720.731,721.9546,return,0.0541,,79.296875,,,,,,FBP-YG-19.png,0.43,1.2,44,0.5,,,,,,,,,,,,,,,,,,0,9,9,43,1,,,,,,,,,,,,,,,,,,,,,,,
,,,,,WIN24_050,20,Female,2024-02-09_13h35.54.357,jersey_experiment_5,2023.2.2,Win32,84.74576271,,,,,,,,,,,,,,,,721.9548,723.7548,723.7548,724.1901,return,0.0004,,78.90625,,,,,,FBP-PT-81.png,0.45,1.2,55,1,,,,,,,,,,,,,,,,,,0,10,10,54,1,,,,,,,,,,,,,,,,,,,,,,,
,,,,,WIN24_050,20,Female,2024-02-09_13h35.54.357,jersey_experiment_5,2023.2.2,Win32,84.74576271,,,,,,,,,,,,,,,,724.1903,725.4845,725.4845,726.2489,return,0.0264,,29.296875,,,,,,FBP-YG-18.png,0.35,1.2,36,0.5,,,,,,,,,,,,,,,,,,0,11,11,35,1,,,,,,,,,,,,,,,,,,,,,,,
,,,,,WIN24_050,20,Female,2024-02-09_13h35.54.357,jersey_experiment_5,2023.2.2,Win32,84.74576271,,,,,,,,,,,,,,,,726.2492,728.0492,728.0492,729.096,return,0.0746,,75.13020833,,,,,,FBP-OG-18.png,0.43,1.2,9,1,,,,,,,,,,,,,,,,,,0,12,12,8,1,,,,,,,,,,,,,,,,,,,,,,,
,,,,,WIN24_050,20,Female,2024-02-09_13h35.54.357,jersey_experiment_5,2023.2.2,Win32,84.74576271,,,,,,,,,,,,,,,,729.0962,730.3902,730.3902,731.2373,return,0.0392,,37.890625,,,,,,FBP-YG-17.png,0.37,1.2,32,0.5,,,,,,,,,,,,,,,,,,0,13,13,31,1,,,,,,,,,,,,,,,,,,,,,,,
,,,,,WIN24_050,20,Female,2024-02-09_13h35.54.357,jersey_experiment_5,2023.2.2,Win32,84.74576271,,,,,,,,,,,,,,,,731.2375,732.5315,732.5315,733.4611,return,0.0655,,69.79166667,,,,,,FBP-YG-17.png,0.43,1.2,34,0.5,,,,,,,,,,,,,,,,,,0,14,14,33,1,,,,,,,,,,,,,,,,,,,,,,,
,,,,,WIN24_050,20,Female,2024-02-09_13h35.54.357,jersey_experiment_5,2023.2.2,Win32,84.74576271,,,,,,,,,,,,,,,,733.4614,734.7552,734.7552,735.661,return,0.0801,,76.953125,,,,,,FBP-RB-71.png,0.45,1.2,20,0.5,,,,,,,,,,,,,,,,,,0,15,15,19,1,,,,,,,,,,,,,,,,,,,,,,,
,,,,,WIN24_050,20,Female,2024-02-09_13h35.54.357,jersey_experiment_5,2023.2.2,Win32,84.74576271,,,,,,,,,,,,,,,,735.6613,736.9551,736.9552,740.5319,return,2.3471,,33.07291667,,,,,,FBP-RB-91.png,0.37,1.2,27,0.5,,,,,,,,,,,,,,,,,,0,16,16,26,1,,,,,,,,,,,,,,,,,,,,,,,
,,,,,WIN24_050,20,Female,2024-02-09_13h35.54.357,jersey_experiment_5,2023.2.2,Win32,84.74576271,,,,,,,,,,,,,,,,740.5321,742.3318,742.3318,746.9556,return,1.0121,,33.59375,,,,,,FBP-OG-18.png,0.37,1.2,7,1,,,,,,,,,,,,,,,,,,0,17,17,6,1,,,,,,,,,,,,,,,,,,,,,,,
,,,,,WIN24_050,20,Female,2024-02-09_13h35.54.357,jersey_experiment_5,2023.2.2,Win32,84.74576271,,,,,,,,,,,,,,,,746.9558,748.2496,748.2497,749.0968,return,0.0972,,23.56770833,,,,,,FBP-YG-19.png,0.35,1.2,41,0.5,,,,,,,,,,,,,,,,,,0,18,18,40,1,,,,,,,,,,,,,,,,,,,,,,,
,,,,,WIN24_050,20,Female,2024-02-09_13h35.54.357,jersey_experiment_5,2023.2.2,Win32,84.74576271,,,,,,,,,,,,,,,,749.097,750.3909,750.3909,751.1087,return,0.0284,,20.18229167,,,,,,FBP-RB-81.png,0.35,1.2,21,0.5,,,,,,,,,,,,,,,,,,0,19,19,20,1,,,,,,,,,,,,,,,,,,,,,,,
,,,,,WIN24_050,20,Female,2024-02-09_13h35.54.357,jersey_experiment_5,2023.2.2,Win32,84.74576271,,,,,,,,,,,,,,,,751.1089,752.9088,752.9088,753.8969,return,0.0497,,29.296875,,,,,,FBP-OG-19.png,0.37,1.2,12,1,,,,,,,,,,,,,,,,,,0,20,20,11,1,,,,,,,,,,,,,,,,,,,,,,,
,,,,,WIN24_050,20,Female,2024-02-09_13h35.54.357,jersey_experiment_5,2023.2.2,Win32,84.74576271,,,,,,,,,,,,,,,,753.8972,755.1912,755.1912,756.603,return,0.363,,84.63541667,,,,,,FBP-YG-17.png,0.45,1.2,35,0.5,,,,,,,,,,,,,,,,,,0,21,21,34,1,,,,,,,,,,,,,,,,,,,,,,,
,,,,,WIN24_050,20,Female,2024-02-09_13h35.54.357,jersey_experiment_5,2023.2.2,Win32,84.74576271,,,,,,,,,,,,,,,,756.6032,758.4033,758.4033,759.4971,return,0.3087,,40.88541667,,,,,,FBP-OG-17.png,0.35,1.2,1,1,,,,,,,,,,,,,,,,,,0,22,22,0,1,,,,,,,,,,,,,,,,,,,,,,,
,,,,,WIN24_050,20,Female,2024-02-09_13h35.54.357,jersey_experiment_5,2023.2.2,Win32,84.74576271,,,,,,,,,,,,,,,,759.4973,760.7913,760.7913,762.0268,return,0.438,,69.66145833,,,,,,FBP-YG-18.png,0.43,1.2,39,0.5,,,,,,,,,,,,,,,,,,0,23,23,38,1,,,,,,,,,,,,,,,,,,,,,,,
,,,,,WIN24_050,20,Female,2024-02-09_13h35.54.357,jersey_experiment_5,2023.2.2,Win32,84.74576271,,,,,,,,,,,,,,,,762.027,763.8267,763.8267,765.1562,return,0.1705,,73.95833333,,,,,,FBP-OG-19.png,0.43,1.2,14,1,,,,,,,,,,,,,,,,,,0,24,24,13,1,,,,,,,,,,,,,,,,,,,,,,,
,,,,,WIN24_050,20,Female,2024-02-09_13h35.54.357,jersey_experiment_5,2023.2.2,Win32,84.74576271,,,,,,,,,,,,,,,,765.1564,766.4504,766.4504,767.4504,return,0.0249,,44.40104167,,,,,,FBP-RB-81.png,0.37,1.2,22,0.5,,,,,,,,,,,,,,,,,,0,25,25,21,1,,,,,,,,,,,,,,,,,,,,,,,
,,,,,WIN24_050,20,Female,2024-02-09_13h35.54.357,jersey_experiment_5,2023.2.2,Win32,84.74576271,,,,,,,,,,,,,,,,767.4506,769.2505,769.2505,770.2153,return,0.0402,,50,,,,,,FBP-OG-19.png,0.4,1.2,13,1,,,,,,,,,,,,,,,,,,0,26,26,12,1,,,,,,,,,,,,,,,,,,,,,,,
,,,,,WIN24_050,20,Female,2024-02-09_13h35.54.357,jersey_experiment_5,2023.2.2,Win32,84.74576271,,,,,,,,,,,,,,,,770.2155,771.5094,771.5095,772.286,return,0.038,,40.75520833,,,,,,FBP-YG-18.png,0.37,1.2,37,0.5,,,,,,,,,,,,,,,,,,0,27,27,36,1,,,,,,,,,,,,,,,,,,,,,,,
,,,,,WIN24_050,20,Female,2024-02-09_13h35.54.357,jersey_experiment_5,2023.2.2,Win32,84.74576271,,,,,,,,,,,,,,,,772.2861,774.0859,774.0859,774.8271,return,0.1085,,91.27604167,,,,,,FBP-PT-71.png,0.45,1.2,50,1,,,,,,,,,,,,,,,,,,0,28,28,49,1,,,,,,,,,,,,,,,,,,,,,,,
,,,,,WIN24_050,20,Female,2024-02-09_13h35.54.357,jersey_experiment_5,2023.2.2,Win32,84.74576271,,,,,,,,,,,,,,,,774.8274,776.1214,776.1215,777.5333,return,0.0719,,43.48958333,,,,,,FBP-RB-71.png,0.37,1.2,17,0.5,,,,,,,,,,,,,,,,,,0,29,29,16,1,,,,,,,,,,,,,,,,,,,,,,,
,,,,,WIN24_050,20,Female,2024-02-09_13h35.54.357,jersey_experiment_5,2023.2.2,Win32,84.74576271,,,,,,,,,,,,,,,,777.5335,779.3333,779.3333,780.3333,return,0.1414,,49.08854167,,,,,,FBP-OG-17.png,0.4,1.2,3,1,,,,,,,,,,,,,,,,,,0,30,30,2,1,,,,,,,,,,,,,,,,,,,,,,,
,,,,,WIN24_050,20,Female,2024-02-09_13h35.54.357,jersey_experiment_5,2023.2.2,Win32,84.74576271,,,,,,,,,,,,,,,,780.3335,782.1332,782.1332,783.0039,return,0.0322,,58.07291667,,,,,,FBP-PT-81.png,0.4,1.2,53,1,,,,,,,,,,,,,,,,,,0,31,31,52,1,,,,,,,,,,,,,,,,,,,,,,,
,,,,,WIN24_050,20,Female,2024-02-09_13h35.54.357,jersey_experiment_5,2023.2.2,Win32,84.74576271,,,,,,,,,,,,,,,,783.0041,784.2979,784.298,785.3334,return,0.1804,,69.27083333,,,,,,FBP-RB-71.png,0.43,1.2,19,0.5,,,,,,,,,,,,,,,,,,0,32,32,18,1,,,,,,,,,,,,,,,,,,,,,,,
,,,,,WIN24_050,20,Female,2024-02-09_13h35.54.357,jersey_experiment_5,2023.2.2,Win32,84.74576271,,,,,,,,,,,,,,,,785.3337,787.1336,787.1336,787.757,return,0.2119,,68.75,,,,,,FBP-PT-71.png,0.43,1.2,49,1,,,,,,,,,,,,,,,,,,0,33,33,48,1,,,,,,,,,,,,,,,,,,,,,,,
,,,,,WIN24_050,20,Female,2024-02-09_13h35.54.357,jersey_experiment_5,2023.2.2,Win32,84.74576271,,,,,,,,,,,,,,,,787.7572,789.5572,789.5572,790.169,return,0.1415,,68.48958333,,,,,,FBP-PT-71.png,0.4,1.2,48,1,,,,,,,,,,,,,,,,,,0,34,34,47,1,,,,,,,,,,,,,,,,,,,,,,,
,,,,,WIN24_050,20,Female,2024-02-09_13h35.54.357,jersey_experiment_5,2023.2.2,Win32,84.74576271,,,,,,,,,,,,,,,,790.1691,791.4631,791.4631,793.2514,return,0.1001,,49.34895833,,,,,,FBP-RB-91.png,0.35,1.2,26,0.5,,,,,,,,,,,,,,,,,,0,35,35,25,1,,,,,,,,,,,,,,,,,,,,,,,
,,,,,WIN24_050,20,Female,2024-02-09_13h35.54.357,jersey_experiment_5,2023.2.2,Win32,84.74576271,,,,,,,,,,,,,,,,793.2517,795.0514,795.0514,795.5809,return,0.0617,,49.21875,,,,,,FBP-PT-91.png,0.37,1.2,57,1,,,,,,,,,,,,,,,,,,0,36,36,56,1,,,,,,,,,,,,,,,,,,,,,,,
,,,,,WIN24_050,20,Female,2024-02-09_13h35.54.357,jersey_experiment_5,2023.2.2,Win32,84.74576271,,,,,,,,,,,,,,,,795.5811,797.3808,797.3808,801.6282,return,2.7672,,74.86979167,,,,,,FBP-OG-17.png,0.45,1.2,5,1,,,,,,,,,,,,,,,,,,0,37,37,4,1,,,,,,,,,,,,,,,,,,,,,,,
,,,,,WIN24_050,20,Female,2024-02-09_13h35.54.357,jersey_experiment_5,2023.2.2,Win32,84.74576271,,,,,,,,,,,,,,,,801.6284,802.9224,802.9224,804.7459,return,0.0818,,58.07291667,,,,,,FBP-YG-18.png,0.4,1.2,38,0.5,,,,,,,,,,,,,,,,,,0,38,38,37,1,,,,,,,,,,,,,,,,,,,,,,,
,,,,,WIN24_050,20,Female,2024-02-09_13h35.54.357,jersey_experiment_5,2023.2.2,Win32,84.74576271,,,,,,,,,,,,,,,,804.7461,806.546,806.546,807.5108,return,0.1673,,44.53125,,,,,,FBP-PT-81.png,0.37,1.2,52,1,,,,,,,,,,,,,,,,,,0,39,39,51,1,,,,,,,,,,,,,,,,,,,,,,,
,,,,,WIN24_050,20,Female,2024-02-09_13h35.54.357,jersey_experiment_5,2023.2.2,Win32,84.74576271,,,,,,,,,,,,,,,,807.511,808.8049,808.8049,809.605,return,0.0983,,30.59895833,,,,,,FBP-RB-71.png,0.35,1.2,16,0.5,,,,,,,,,,,,,,,,,,0,40,40,15,1,,,,,,,,,,,,,,,,,,,,,,,
,,,,,WIN24_050,20,Female,2024-02-09_13h35.54.357,jersey_experiment_5,2023.2.2,Win32,84.74576271,,,,,,,,,,,,,,,,809.6052,810.8991,810.8991,811.8168,return,0.1183,,83.59375,,,,,,FBP-RB-81.png,0.45,1.2,25,0.5,,,,,,,,,,,,,,,,,,0,41,41,24,1,,,,,,,,,,,,,,,,,,,,,,,
,,,,,WIN24_050,20,Female,2024-02-09_13h35.54.357,jersey_experiment_5,2023.2.2,Win32,84.74576271,,,,,,,,,,,,,,,,811.817,813.6168,813.6168,815.1932,return,0.0114,,69.27083333,,,,,,FBP-PT-81.png,0.43,1.2,54,1,,,,,,,,,,,,,,,,,,0,42,42,53,1,,,,,,,,,,,,,,,,,,,,,,,
,,,,,WIN24_050,20,Female,2024-02-09_13h35.54.357,jersey_experiment_5,2023.2.2,Win32,84.74576271,,,,,,,,,,,,,,,,815.1934,816.9936,816.9936,818.4523,return,0.287,,29.81770833,,,,,,FBP-OG-18.png,0.35,1.2,6,1,,,,,,,,,,,,,,,,,,0,43,43,5,1,,,,,,,,,,,,,,,,,,,,,,,
,,,,,WIN24_050,20,Female,2024-02-09_13h35.54.357,jersey_experiment_5,2023.2.2,Win32,84.74576271,,,,,,,,,,,,,,,,818.4525,819.7464,819.7465,823.6289,return,0.1413,,41.40625,,,,,,FBP-YG-17.png,0.35,1.2,31,0.5,,,,,,,,,,,,,,,,,,0,44,44,30,1,,,,,,,,,,,,,,,,,,,,,,,
,,,,,WIN24_050,20,Female,2024-02-09_13h35.54.357,jersey_experiment_5,2023.2.2,Win32,84.74576271,,,,,,,,,,,,,,,,823.6292,825.429,825.429,827.9468,return,1.8453,,75.52083333,,,,,,FBP-OG-19.png,0.45,1.2,15,1,,,,,,,,,,,,,,,,,,0,45,45,14,1,,,,,,,,,,,,,,,,,,,,,,,
,,,,,WIN24_050,20,Female,2024-02-09_13h35.54.357,jersey_experiment_5,2023.2.2,Win32,84.74576271,,,,,,,,,,,,,,,,827.947,829.2409,829.241,830.3588,return,0.1905,,74.609375,,,,,,FBP-RB-91.png,0.4,1.2,28,0.5,,,,,,,,,,,,,,,,,,0,46,46,27,1,,,,,,,,,,,,,,,,,,,,,,,
,,,,,WIN24_050,20,Female,2024-02-09_13h35.54.357,jersey_experiment_5,2023.2.2,Win32,84.74576271,,,,,,,,,,,,,,,,830.359,832.1587,832.1587,833.1469,return,0.0479,,44.01041667,,,,,,FBP-PT-71.png,0.35,1.2,46,1,,,,,,,,,,,,,,,,,,0,47,47,45,1,,,,,,,,,,,,,,,,,,,,,,,
,,,,,WIN24_050,20,Female,2024-02-09_13h35.54.357,jersey_experiment_5,2023.2.2,Win32,84.74576271,,,,,,,,,,,,,,,,833.147,834.4411,834.4411,836.9471,return,1.6204,,56.90104167,,,,,,FBP-RB-81.png,0.4,1.2,23,0.5,,,,,,,,,,,,,,,,,,0,48,48,22,1,,,,,,,,,,,,,,,,,,,,,,,
,,,,,WIN24_050,20,Female,2024-02-09_13h35.54.357,jersey_experiment_5,2023.2.2,Win32,84.74576271,,,,,,,,,,,,,,,,836.9473,838.2413,838.2413,838.8764,return,0.0856,,56.90104167,,,,,,FBP-YG-19.png,0.37,1.2,42,0.5,,,,,,,,,,,,,,,,,,0,49,49,41,1,,,,,,,,,,,,,,,,,,,,,,,
,,,,,WIN24_050,20,Female,2024-02-09_13h35.54.357,jersey_experiment_5,2023.2.2,Win32,84.74576271,,,,,,,,,,,,,,,,838.8768,840.1707,840.1707,841.3239,return,0.1325,,80.72916667,,,,,,FBP-YG-19.png,0.45,1.2,45,0.5,,,,,,,,,,,,,,,,,,0,50,50,44,1,,,,,,,,,,,,,,,,,,,,,,,
,,,,,WIN24_050,20,Female,2024-02-09_13h35.54.357,jersey_experiment_5,2023.2.2,Win32,84.74576271,,,,,,,,,,,,,,,,841.3241,842.6177,842.6177,844.3002,return,0.5978,,67.44791667,,,,,,FBP-YG-19.png,0.4,1.2,43,0.5,,,,,,,,,,,,,,,,,,0,51,51,42,1,,,,,,,,,,,,,,,,,,,,,,,
,,,,,WIN24_050,20,Female,2024-02-09_13h35.54.357,jersey_experiment_5,2023.2.2,Win32,84.74576271,,,,,,,,,,,,,,,,844.3003,846.1004,846.1004,847.3357,return,0.7803,,37.63020833,,,,,,FBP-OG-19.png,0.35,1.2,11,1,,,,,,,,,,,,,,,,,,0,52,52,10,1,,,,,,,,,,,,,,,,,,,,,,,
,,,,,WIN24_050,20,Female,2024-02-09_13h35.54.357,jersey_experiment_5,2023.2.2,Win32,84.74576271,,,,,,,,,,,,,,,,847.3359,849.1358,849.1358,850.4417,return,0.2609,,36.97916667,,,,,,FBP-PT-81.png,0.35,1.2,51,1,,,,,,,,,,,,,,,,,,0,53,53,50,1,,,,,,,,,,,,,,,,,,,,,,,
,,,,,WIN24_050,20,Female,2024-02-09_13h35.54.357,jersey_experiment_5,2023.2.2,Win32,84.74576271,,,,,,,,,,,,,,,,850.4418,851.7358,851.7358,854.1947,return,1.7708,,63.80208333,,,,,,FBP-YG-17.png,0.4,1.2,33,0.5,,,,,,,,,,,,,,,,,,0,54,54,32,1,,,,,,,,,,,,,,,,,,,,,,,
,,,,,WIN24_050,20,Female,2024-02-09_13h35.54.357,jersey_experiment_5,2023.2.2,Win32,84.74576271,,,,,,,,,,,,,,,,854.1948,855.4889,855.4889,857.7831,return,1.5107,,79.03645833,,,,,,FBP-YG-18.png,0.45,1.2,40,0.5,,,,,,,,,,,,,,,,,,0,55,55,39,1,,,,,,,,,,,,,,,,,,,,,,,
,,,,,WIN24_050,20,Female,2024-02-09_13h35.54.357,jersey_experiment_5,2023.2.2,Win32,84.74576271,,,,,,,,,,,,,,,,857.7833,859.5832,859.5832,860.6657,return,0.1412,,55.98958333,,,,,,FBP-OG-17.png,0.37,1.2,2,1,,,,,,,,,,,,,,,,,,0,56,56,1,1,,,,,,,,,,,,,,,,,,,,,,,
,,,,,WIN24_050,20,Female,2024-02-09_13h35.54.357,jersey_experiment_5,2023.2.2,Win32,84.74576271,,,,,,,,,,,,,,,,860.6659,862.4656,862.4656,863.4657,return,0.3064,,63.02083333,,,,,,FBP-OG-18.png,0.4,1.2,8,1,,,,,,,,,,,,,,,,,,0,57,57,7,1,,,,,,,,,,,,,,,,,,,,,,,
,,,,,WIN24_050,20,Female,2024-02-09_13h35.54.357,jersey_experiment_5,2023.2.2,Win32,84.74576271,,,,,,,,,,,,,,,,863.4659,865.2657,865.2657,867.5011,return,0.118,,47.52604167,,,,,,FBP-PT-71.png,0.37,1.2,47,1,,,,,,,,,,,,,,,,,,0,58,58,46,1,,,,,,,,,,,,,,,,,,,,,,,
,,,,,WIN24_050,20,Female,2024-02-09_13h35.54.357,jersey_experiment_5,2023.2.2,Win32,84.74576271,,,,,,,,,,,,,,,,867.5014,869.3013,869.3013,871.2894,return,1.0701,,85.28645833,,,,,,FBP-PT-91.png,0.45,1.2,60,1,,,,,,,,,,,,,,,,,,0,59,59,59,1,,,,,,,,,,,,,,,,,,,,,,,
,,,,,WIN24_050,20,Female,2024-02-09_13h35.54.357,jersey_experiment_5,2023.2.2,Win32,84.74576271,,,,,,,,,,,,,,,,,,,,,,,,,,,,,,,,,,,,,,,,,,,,,,,,,,,,,,,,871.2899,876.0899,return,4.787,,,,,,,,,,,,,,,,,,,
,,,,,WIN24_050,20,Female,2024-02-09_13h35.54.357,jersey_experiment_5,2023.2.2,Win32,84.74576271,,,,,,,,,,,,,,,,,,,,,,,,,,,,,,,,,,,,,,,,,,,,,,,,,,,,,,,,,,,,,876.0899,881.9605,1,3.2355,return,2.6123,,,,,,,,,,,,
,,,,,WIN24_050,20,Female,2024-02-09_13h35.54.357,jersey_experiment_5,2023.2.2,Win32,84.74576271,,,,,,,,,,,,,,,,,,,,,,,,,,,,,,,,,,,,,,,,,,,,,,,,,,,,,,,,,,,,,,,,,,,,881.9606,893.2736,race,right,6.8555,,,,,,
,,,,,WIN24_050,20,Female,2024-02-09_13h35.54.357,jersey_experiment_5,2023.2.2,Win32,84.74576271,,,,,,,,,,,,,,,,,,,,,,,,,,,,,,,,,,,,,,,,,,,,,,,,,,,,,,,,,,,,,,,,,,,,,,,,,,893.2737,894.6785,return,1.3968,