requirements.started,requirements.stopped,key_resp_3.keys,key_resp_3.rt,key_resp_3.duration,Subject ID,Age,Gender,date,expName,psychopyVersion,OS,frameRate,instructions1.started,instructions1.stopped,key_resp.keys,key_resp.rt,key_resp.duration,example.started,example.stopped,enter_2.keys,enter_2.rt,enter_2.duration,instructions2.started,instructions2.stopped,enter_3.keys,enter_3.rt,enter_3.duration,image.started,image.stopped,slider_2.started,slider_2.stopped,next.keys,next.rt,next.duration,slider.response,trial_block_1.thisRepN,trial_block_1.thisTrialN,trial_block_1.thisN,trial_block_1.thisIndex,trial_block_1.ran,Path,Width,Height,Index,Duration,trial_block_2.thisRepN,trial_block_2.thisTrialN,trial_block_2.thisN,trial_block_2.thisIndex,trial_block_2.ran,rest_break.started,rest_break.stopped,end_break.started,end_break.stopped,key_resp_5.keys,key_resp_5.rt,key_resp_5.duration,trial_block_3.thisRepN,trial_block_3.thisTrialN,trial_block_3.thisN,trial_block_3.thisIndex,trial_block_3.ran,trial_block_4.thisRepN,trial_block_4.thisTrialN,trial_block_4.thisN,trial_block_4.thisIndex,trial_block_4.ran,questions_intro.started,questions_intro.stopped,enter_12.keys,enter_12.rt,enter_12.duration,question2.started,question2.stopped,question_doingbest.response,question_doingbest.rt,enter_15.keys,enter_15.rt,enter_15.duration,pattern.started,pattern.stopped,pattern_2.text,enter_17.keys,enter_17.rt,enter_17.duration,thankyou.started,thankyou.stopped,enter_14.keys,enter_14.rt,enter_14.duration
0.0001,18.8209,return,18.8162,,WIN24_013,20,Female,2024-01-29_15h05.54.173,jersey_experiment_5,2023.2.2,Win32,85.47008547,,,,,,,,,,,,,,,,,,,,,,,,,,,,,,,,,,,,,,,,,,,,,,,,,,,,,,,,,,,,,,,,,,,,,,,,,,,,,,
,,,,,WIN24_013,20,Female,2024-01-29_15h05.54.173,jersey_experiment_5,2023.2.2,Win32,85.47008547,18.8211,27.9707,return,9.1437,,,,,,,,,,,,,,,,,,,,,,,,,,,,,,,,,,,,,,,,,,,,,,,,,,,,,,,,,,,,,,,,,,,,,,,,,,
,,,,,WIN24_013,20,Female,2024-01-29_15h05.54.173,jersey_experiment_5,2023.2.2,Win32,85.47008547,,,,,,27.9708,31.8999,return,3.8965,,,,,,,,,,,,,,,,,,,,,,,,,,,,,,,,,,,,,,,,,,,,,,,,,,,,,,,,,,,,,,,,,,,,,
,,,,,WIN24_013,20,Female,2024-01-29_15h05.54.173,jersey_experiment_5,2023.2.2,Win32,85.47008547,,,,,,,,,,,31.9001,64.0189,return,32.1102,,,,,,,,,,,,,,,,,,,,,,,,,,,,,,,,,,,,,,,,,,,,,,,,,,,,,,,,,,,,,,,,
,,,,,WIN24_013,20,Female,2024-01-29_15h05.54.173,jersey_experiment_5,2023.2.2,Win32,85.47008547,,,,,,,,,,,,,,,,64.0258,65.823,65.8231,79.384,return,2.3174,,72.00520833,0,0,0,19,1,FBP-RB-17.png,0.45,1.2,20,1,,,,,,,,,,,,,,,,,,,,,,,,,,,,,,,,,,,,,,,,,,,,,
,,,,,WIN24_013,20,Female,2024-01-29_15h05.54.173,jersey_experiment_5,2023.2.2,Win32,85.47008547,,,,,,,,,,,,,,,,79.3844,81.1783,81.1783,84.2706,return,0.9274,,74.47916667,0,1,1,34,1,FBP-YG-71.png,0.45,1.2,35,1,,,,,,,,,,,,,,,,,,,,,,,,,,,,,,,,,,,,,,,,,,,,,
,,,,,WIN24_013,20,Female,2024-01-29_15h05.54.173,jersey_experiment_5,2023.2.2,Win32,85.47008547,,,,,,,,,,,,,,,,84.2708,85.5647,85.5647,88.6375,return,0.815,,24.34895833,0,2,2,47,1,FBP-PT-17.png,0.4,1.2,48,0.5,,,,,,,,,,,,,,,,,,,,,,,,,,,,,,,,,,,,,,,,,,,,,
,,,,,WIN24_013,20,Female,2024-01-29_15h05.54.173,jersey_experiment_5,2023.2.2,Win32,85.47008547,,,,,,,,,,,,,,,,88.6377,90.4314,90.4314,91.7138,return,0.5469,,24.34895833,0,3,3,17,1,FBP-RB-17.png,0.4,1.2,18,1,,,,,,,,,,,,,,,,,,,,,,,,,,,,,,,,,,,,,,,,,,,,,
,,,,,WIN24_013,20,Female,2024-01-29_15h05.54.173,jersey_experiment_5,2023.2.2,Win32,85.47008547,,,,,,,,,,,,,,,,91.714,93.5139,93.5139,96.4828,return,0.541,,77.60416667,0,4,4,33,1,FBP-YG-71.png,0.43,1.2,34,1,,,,,,,,,,,,,,,,,,,,,,,,,,,,,,,,,,,,,,,,,,,,,
,,,,,WIN24_013,20,Female,2024-01-29_15h05.54.173,jersey_experiment_5,2023.2.2,Win32,85.47008547,,,,,,,,,,,,,,,,96.4829,97.7906,97.7906,99.8115,return,0.6012,,85.9375,0,5,5,49,1,FBP-PT-17.png,0.45,1.2,50,0.5,,,,,,,,,,,,,,,,,,,,,,,,,,,,,,,,,,,,,,,,,,,,,
,,,,,WIN24_013,20,Female,2024-01-29_15h05.54.173,jersey_experiment_5,2023.2.2,Win32,85.47008547,,,,,,,,,,,,,,,,99.8117,101.6083,101.6083,104.2028,return,0.6393,,12.76041667,0,6,6,20,1,FBP-RB-18.png,0.35,1.2,21,1,,,,,,,,,,,,,,,,,,,,,,,,,,,,,,,,,,,,,,,,,,,,,
,,,,,WIN24_013,20,Female,2024-01-29_15h05.54.173,jersey_experiment_5,2023.2.2,Win32,85.47008547,,,,,,,,,,,,,,,,104.203,105.5065,105.5065,107.585,return,0.501,,85.41666667,0,7,7,53,1,FBP-PT-18.png,0.43,1.2,54,0.5,,,,,,,,,,,,,,,,,,,,,,,,,,,,,,,,,,,,,,,,,,,,,
,,,,,WIN24_013,20,Female,2024-01-29_15h05.54.173,jersey_experiment_5,2023.2.2,Win32,85.47008547,,,,,,,,,,,,,,,,107.5851,109.3773,109.3773,110.5774,return,0.6021,,85.41666667,0,8,8,23,1,FBP-RB-18.png,0.43,1.2,24,1,,,,,,,,,,,,,,,,,,,,,,,,,,,,,,,,,,,,,,,,,,,,,
,,,,,WIN24_013,20,Female,2024-01-29_15h05.54.173,jersey_experiment_5,2023.2.2,Win32,85.47008547,,,,,,,,,,,,,,,,110.5776,112.3772,112.3773,114.1775,return,0.6687,,72.13541667,0,9,9,22,1,FBP-RB-18.png,0.4,1.2,23,1,,,,,,,,,,,,,,,,,,,,,,,,,,,,,,,,,,,,,,,,,,,,,
,,,,,WIN24_013,20,Female,2024-01-29_15h05.54.173,jersey_experiment_5,2023.2.2,Win32,85.47008547,,,,,,,,,,,,,,,,114.1777,115.4833,115.4833,117.2129,return,0.6472,,83.85416667,0,10,10,8,1,FBP-OG-81.png,0.43,1.2,9,0.5,,,,,,,,,,,,,,,,,,,,,,,,,,,,,,,,,,,,,,,,,,,,,
,,,,,WIN24_013,20,Female,2024-01-29_15h05.54.173,jersey_experiment_5,2023.2.2,Win32,85.47008547,,,,,,,,,,,,,,,,117.2132,118.5146,118.5146,120.2325,return,0.5097,,90.625,0,11,11,48,1,FBP-PT-17.png,0.43,1.2,49,0.5,,,,,,,,,,,,,,,,,,,,,,,,,,,,,,,,,,,,,,,,,,,,,
,,,,,WIN24_013,20,Female,2024-01-29_15h05.54.173,jersey_experiment_5,2023.2.2,Win32,85.47008547,,,,,,,,,,,,,,,,120.2327,121.5266,121.5267,123.5073,return,0.5629,,19.01041667,0,12,12,45,1,FBP-PT-17.png,0.35,1.2,46,0.5,,,,,,,,,,,,,,,,,,,,,,,,,,,,,,,,,,,,,,,,,,,,,
,,,,,WIN24_013,20,Female,2024-01-29_15h05.54.173,jersey_experiment_5,2023.2.2,Win32,85.47008547,,,,,,,,,,,,,,,,123.5075,124.8091,124.8091,127.3545,return,0.5766,,34.765625,0,13,13,51,1,FBP-PT-18.png,0.37,1.2,52,0.5,,,,,,,,,,,,,,,,,,,,,,,,,,,,,,,,,,,,,,,,,,,,,
,,,,,WIN24_013,20,Female,2024-01-29_15h05.54.173,jersey_experiment_5,2023.2.2,Win32,85.47008547,,,,,,,,,,,,,,,,127.3546,129.1504,129.1504,130.8604,return,0.5764,,15.36458333,0,14,14,16,1,FBP-RB-17.png,0.37,1.2,17,1,,,,,,,,,,,,,,,,,,,,,,,,,,,,,,,,,,,,,,,,,,,,,
,,,,,WIN24_013,20,Female,2024-01-29_15h05.54.173,jersey_experiment_5,2023.2.2,Win32,85.47008547,,,,,,,,,,,,,,,,130.8606,132.1622,132.1622,134.2744,return,0.6254,,96.09375,0,15,15,9,1,FBP-OG-81.png,0.45,1.2,10,0.5,,,,,,,,,,,,,,,,,,,,,,,,,,,,,,,,,,,,,,,,,,,,,
,,,,,WIN24_013,20,Female,2024-01-29_15h05.54.173,jersey_experiment_5,2023.2.2,Win32,85.47008547,,,,,,,,,,,,,,,,134.2745,135.5742,135.5742,136.873,return,0.4947,,95.83333333,0,16,16,58,1,FBP-PT-19.png,0.43,1.2,59,0.5,,,,,,,,,,,,,,,,,,,,,,,,,,,,,,,,,,,,,,,,,,,,,
,,,,,WIN24_013,20,Female,2024-01-29_15h05.54.173,jersey_experiment_5,2023.2.2,Win32,85.47008547,,,,,,,,,,,,,,,,136.8731,138.6683,138.6683,139.9315,return,0.6353,,95.83333333,0,17,17,38,1,FBP-YG-81.png,0.43,1.2,39,1,,,,,,,,,,,,,,,,,,,,,,,,,,,,,,,,,,,,,,,,,,,,,
,,,,,WIN24_013,20,Female,2024-01-29_15h05.54.173,jersey_experiment_5,2023.2.2,Win32,85.47008547,,,,,,,,,,,,,,,,139.9316,141.7274,141.7274,144.7315,return,0.8355,,99.73958333,0,18,18,29,1,FBP-RB-19.png,0.45,1.2,30,1,,,,,,,,,,,,,,,,,,,,,,,,,,,,,,,,,,,,,,,,,,,,,
,,,,,WIN24_013,20,Female,2024-01-29_15h05.54.173,jersey_experiment_5,2023.2.2,Win32,85.47008547,,,,,,,,,,,,,,,,144.7317,146.5276,146.5276,148.6099,return,0.6274,,25,0,19,19,42,1,FBP-YG-91.png,0.4,1.2,43,1,,,,,,,,,,,,,,,,,,,,,,,,,,,,,,,,,,,,,,,,,,,,,
,,,,,WIN24_013,20,Female,2024-01-29_15h05.54.173,jersey_experiment_5,2023.2.2,Win32,85.47008547,,,,,,,,,,,,,,,,148.6102,150.4101,150.4101,151.9084,return,0.5885,,6.25,0,20,20,40,1,FBP-YG-91.png,0.35,1.2,41,1,,,,,,,,,,,,,,,,,,,,,,,,,,,,,,,,,,,,,,,,,,,,,
,,,,,WIN24_013,20,Female,2024-01-29_15h05.54.173,jersey_experiment_5,2023.2.2,Win32,85.47008547,,,,,,,,,,,,,,,,151.9084,153.21,153.21,154.5576,return,0.6142,,6.510416667,0,21,21,5,1,FBP-OG-81.png,0.35,1.2,6,0.5,,,,,,,,,,,,,,,,,,,,,,,,,,,,,,,,,,,,,,,,,,,,,
,,,,,WIN24_013,20,Female,2024-01-29_15h05.54.173,jersey_experiment_5,2023.2.2,Win32,85.47008547,,,,,,,,,,,,,,,,154.5578,156.3514,156.3515,158.1632,return,0.5809,,73.95833333,0,22,22,32,1,FBP-YG-71.png,0.4,1.2,33,1,,,,,,,,,,,,,,,,,,,,,,,,,,,,,,,,,,,,,,,,,,,,,
,,,,,WIN24_013,20,Female,2024-01-29_15h05.54.173,jersey_experiment_5,2023.2.2,Win32,85.47008547,,,,,,,,,,,,,,,,158.1634,159.9571,159.9572,162.1868,return,0.5671,,50.26041667,0,23,23,27,1,FBP-RB-19.png,0.4,1.2,28,1,,,,,,,,,,,,,,,,,,,,,,,,,,,,,,,,,,,,,,,,,,,,,
,,,,,WIN24_013,20,Female,2024-01-29_15h05.54.173,jersey_experiment_5,2023.2.2,Win32,85.47008547,,,,,,,,,,,,,,,,162.187,163.9931,163.9931,165.5208,return,0.5767,,30.33854167,0,24,24,21,1,FBP-RB-18.png,0.37,1.2,22,1,,,,,,,,,,,,,,,,,,,,,,,,,,,,,,,,,,,,,,,,,,,,,
,,,,,WIN24_013,20,Female,2024-01-29_15h05.54.173,jersey_experiment_5,2023.2.2,Win32,85.47008547,,,,,,,,,,,,,,,,165.5209,167.3208,167.3208,168.7092,return,0.5665,,94.79166667,0,25,25,24,1,FBP-RB-18.png,0.45,1.2,25,1,,,,,,,,,,,,,,,,,,,,,,,,,,,,,,,,,,,,,,,,,,,,,
,,,,,WIN24_013,20,Female,2024-01-29_15h05.54.173,jersey_experiment_5,2023.2.2,Win32,85.47008547,,,,,,,,,,,,,,,,168.7094,170.0148,170.0148,172.6858,return,0.5886,,21.35416667,0,26,26,55,1,FBP-PT-19.png,0.35,1.2,56,0.5,,,,,,,,,,,,,,,,,,,,,,,,,,,,,,,,,,,,,,,,,,,,,
,,,,,WIN24_013,20,Female,2024-01-29_15h05.54.173,jersey_experiment_5,2023.2.2,Win32,85.47008547,,,,,,,,,,,,,,,,172.686,174.4818,174.4818,177.9437,return,0.9283,,99.47916667,0,27,27,43,1,FBP-YG-91.png,0.43,1.2,44,1,,,,,,,,,,,,,,,,,,,,,,,,,,,,,,,,,,,,,,,,,,,,,
,,,,,WIN24_013,20,Female,2024-01-29_15h05.54.173,jersey_experiment_5,2023.2.2,Win32,85.47008547,,,,,,,,,,,,,,,,177.9438,179.2463,179.2464,181.0624,return,0.7178,,99.47916667,0,28,28,59,1,FBP-PT-19.png,0.45,1.2,60,0.5,,,,,,,,,,,,,,,,,,,,,,,,,,,,,,,,,,,,,,,,,,,,,
,,,,,WIN24_013,20,Female,2024-01-29_15h05.54.173,jersey_experiment_5,2023.2.2,Win32,85.47008547,,,,,,,,,,,,,,,,181.0626,182.8582,182.8583,184.129,return,0.6909,,99.47916667,0,29,29,39,1,FBP-YG-81.png,0.45,1.2,40,1,,,,,,,,,,,,,,,,,,,,,,,,,,,,,,,,,,,,,,,,,,,,,
,,,,,WIN24_013,20,Female,2024-01-29_15h05.54.173,jersey_experiment_5,2023.2.2,Win32,85.47008547,,,,,,,,,,,,,,,,184.1292,185.929,185.929,187.6274,return,0.6366,,90.10416667,0,30,30,18,1,FBP-RB-17.png,0.43,1.2,19,1,,,,,,,,,,,,,,,,,,,,,,,,,,,,,,,,,,,,,,,,,,,,,
,,,,,WIN24_013,20,Female,2024-01-29_15h05.54.173,jersey_experiment_5,2023.2.2,Win32,85.47008547,,,,,,,,,,,,,,,,187.6275,189.4292,189.4293,191.098,return,0.5766,,32.03125,0,31,31,31,1,FBP-YG-71.png,0.37,1.2,32,1,,,,,,,,,,,,,,,,,,,,,,,,,,,,,,,,,,,,,,,,,,,,,
,,,,,WIN24_013,20,Female,2024-01-29_15h05.54.173,jersey_experiment_5,2023.2.2,Win32,85.47008547,,,,,,,,,,,,,,,,191.0982,192.8984,192.8984,193.941,return,0.5671,,8.463541667,0,32,32,30,1,FBP-YG-71.png,0.35,1.2,31,1,,,,,,,,,,,,,,,,,,,,,,,,,,,,,,,,,,,,,,,,,,,,,
,,,,,WIN24_013,20,Female,2024-01-29_15h05.54.173,jersey_experiment_5,2023.2.2,Win32,85.47008547,,,,,,,,,,,,,,,,193.9413,195.7454,195.7455,196.7826,return,0.5666,,4.947916667,0,33,33,15,1,FBP-RB-17.png,0.35,1.2,16,1,,,,,,,,,,,,,,,,,,,,,,,,,,,,,,,,,,,,,,,,,,,,,
,,,,,WIN24_013,20,Female,2024-01-29_15h05.54.173,jersey_experiment_5,2023.2.2,Win32,85.47008547,,,,,,,,,,,,,,,,196.7827,198.0824,198.0824,199.8043,return,0.5746,,62.5,0,34,34,2,1,FBP-OG-71.png,0.4,1.2,3,0.5,,,,,,,,,,,,,,,,,,,,,,,,,,,,,,,,,,,,,,,,,,,,,
,,,,,WIN24_013,20,Female,2024-01-29_15h05.54.173,jersey_experiment_5,2023.2.2,Win32,85.47008547,,,,,,,,,,,,,,,,199.8044,201.1059,201.106,202.4825,return,0.5936,,45.703125,0,35,35,6,1,FBP-OG-81.png,0.37,1.2,7,0.5,,,,,,,,,,,,,,,,,,,,,,,,,,,,,,,,,,,,,,,,,,,,,
,,,,,WIN24_013,20,Female,2024-01-29_15h05.54.173,jersey_experiment_5,2023.2.2,Win32,85.47008547,,,,,,,,,,,,,,,,202.4827,204.2866,204.2866,205.4398,return,0.6354,,32.68229167,0,36,36,36,1,FBP-YG-81.png,0.37,1.2,37,1,,,,,,,,,,,,,,,,,,,,,,,,,,,,,,,,,,,,,,,,,,,,,
,,,,,WIN24_013,20,Female,2024-01-29_15h05.54.173,jersey_experiment_5,2023.2.2,Win32,85.47008547,,,,,,,,,,,,,,,,205.4399,206.7342,206.7343,209.1062,return,0.5936,,65.49479167,0,37,37,57,1,FBP-PT-19.png,0.4,1.2,58,0.5,,,,,,,,,,,,,,,,,,,,,,,,,,,,,,,,,,,,,,,,,,,,,
,,,,,WIN24_013,20,Female,2024-01-29_15h05.54.173,jersey_experiment_5,2023.2.2,Win32,85.47008547,,,,,,,,,,,,,,,,209.1063,210.4037,210.4038,211.8751,return,0.5297,,91.53645833,0,38,38,4,1,FBP-OG-71.png,0.45,1.2,5,0.5,,,,,,,,,,,,,,,,,,,,,,,,,,,,,,,,,,,,,,,,,,,,,
,,,,,WIN24_013,20,Female,2024-01-29_15h05.54.173,jersey_experiment_5,2023.2.2,Win32,85.47008547,,,,,,,,,,,,,,,,211.8753,213.6752,213.6752,215.0982,return,0.672,,34.50520833,0,39,39,25,1,FBP-RB-19.png,0.35,1.2,26,1,,,,,,,,,,,,,,,,,,,,,,,,,,,,,,,,,,,,,,,,,,,,,
,,,,,WIN24_013,20,Female,2024-01-29_15h05.54.173,jersey_experiment_5,2023.2.2,Win32,85.47008547,,,,,,,,,,,,,,,,215.0982,216.8992,216.8992,218.0832,return,0.6027,,94.79166667,0,40,40,44,1,FBP-YG-91.png,0.45,1.2,45,1,,,,,,,,,,,,,,,,,,,,,,,,,,,,,,,,,,,,,,,,,,,,,
,,,,,WIN24_013,20,Female,2024-01-29_15h05.54.173,jersey_experiment_5,2023.2.2,Win32,85.47008547,,,,,,,,,,,,,,,,218.0834,219.3817,219.3817,220.8833,return,0.5222,,70.83333333,0,41,41,7,1,FBP-OG-81.png,0.4,1.2,8,0.5,,,,,,,,,,,,,,,,,,,,,,,,,,,,,,,,,,,,,,,,,,,,,
,,,,,WIN24_013,20,Female,2024-01-29_15h05.54.173,jersey_experiment_5,2023.2.2,Win32,85.47008547,,,,,,,,,,,,,,,,220.8834,222.1775,222.1775,223.3327,return,0.4927,,84.11458333,0,42,42,12,1,FBP-OG-91.png,0.4,1.2,13,0.5,,,,,,,,,,,,,,,,,,,,,,,,,,,,,,,,,,,,,,,,,,,,,
,,,,,WIN24_013,20,Female,2024-01-29_15h05.54.173,jersey_experiment_5,2023.2.2,Win32,85.47008547,,,,,,,,,,,,,,,,223.3329,224.631,224.631,226.5187,return,1.0595,,64.453125,0,43,43,46,1,FBP-PT-17.png,0.37,1.2,47,0.5,,,,,,,,,,,,,,,,,,,,,,,,,,,,,,,,,,,,,,,,,,,,,
,,,,,WIN24_013,20,Female,2024-01-29_15h05.54.173,jersey_experiment_5,2023.2.2,Win32,85.47008547,,,,,,,,,,,,,,,,226.5189,227.8128,227.8129,229.507,return,0.5676,,73.17708333,0,44,44,52,1,FBP-PT-18.png,0.4,1.2,53,0.5,,,,,,,,,,,,,,,,,,,,,,,,,,,,,,,,,,,,,,,,,,,,,
,,,,,WIN24_013,20,Female,2024-01-29_15h05.54.173,jersey_experiment_5,2023.2.2,Win32,85.47008547,,,,,,,,,,,,,,,,229.5072,231.3132,231.3132,232.4407,return,0.6237,,24.08854167,0,45,45,26,1,FBP-RB-19.png,0.37,1.2,27,1,,,,,,,,,,,,,,,,,,,,,,,,,,,,,,,,,,,,,,,,,,,,,
,,,,,WIN24_013,20,Female,2024-01-29_15h05.54.173,jersey_experiment_5,2023.2.2,Win32,85.47008547,,,,,,,,,,,,,,,,232.4409,233.7469,233.747,235.3309,return,0.4753,,94.53125,0,46,46,54,1,FBP-PT-18.png,0.45,1.2,55,0.5,,,,,,,,,,,,,,,,,,,,,,,,,,,,,,,,,,,,,,,,,,,,,
,,,,,WIN24_013,20,Female,2024-01-29_15h05.54.173,jersey_experiment_5,2023.2.2,Win32,85.47008547,,,,,,,,,,,,,,,,235.3311,236.6249,236.6249,238.2182,return,0.493,,59.375,0,47,47,1,1,FBP-OG-71.png,0.37,1.2,2,0.5,,,,,,,,,,,,,,,,,,,,,,,,,,,,,,,,,,,,,,,,,,,,,
,,,,,WIN24_013,20,Female,2024-01-29_15h05.54.173,jersey_experiment_5,2023.2.2,Win32,85.47008547,,,,,,,,,,,,,,,,238.2184,239.5192,239.5192,241.1233,return,0.506,,26.30208333,0,48,48,50,1,FBP-PT-18.png,0.35,1.2,51,0.5,,,,,,,,,,,,,,,,,,,,,,,,,,,,,,,,,,,,,,,,,,,,,
,,,,,WIN24_013,20,Female,2024-01-29_15h05.54.173,jersey_experiment_5,2023.2.2,Win32,85.47008547,,,,,,,,,,,,,,,,241.1235,242.9195,242.9197,244.3824,return,0.5665,,90.88541667,0,49,49,28,1,FBP-RB-19.png,0.43,1.2,29,1,,,,,,,,,,,,,,,,,,,,,,,,,,,,,,,,,,,,,,,,,,,,,
,,,,,WIN24_013,20,Female,2024-01-29_15h05.54.173,jersey_experiment_5,2023.2.2,Win32,85.47008547,,,,,,,,,,,,,,,,244.3825,245.6881,245.6882,246.9022,return,0.5197,,97.265625,0,50,50,14,1,FBP-OG-91.png,0.45,1.2,15,0.5,,,,,,,,,,,,,,,,,,,,,,,,,,,,,,,,,,,,,,,,,,,,,
,,,,,WIN24_013,20,Female,2024-01-29_15h05.54.173,jersey_experiment_5,2023.2.2,Win32,85.47008547,,,,,,,,,,,,,,,,246.9024,248.7004,248.7004,250.1829,return,0.5179,,50.26041667,0,51,51,41,1,FBP-YG-91.png,0.37,1.2,42,1,,,,,,,,,,,,,,,,,,,,,,,,,,,,,,,,,,,,,,,,,,,,,
,,,,,WIN24_013,20,Female,2024-01-29_15h05.54.173,jersey_experiment_5,2023.2.2,Win32,85.47008547,,,,,,,,,,,,,,,,250.1829,251.4844,251.4844,252.8168,return,0.505,,42.31770833,0,52,52,0,1,FBP-OG-71.png,0.35,1.2,1,0.5,,,,,,,,,,,,,,,,,,,,,,,,,,,,,,,,,,,,,,,,,,,,,
,,,,,WIN24_013,20,Female,2024-01-29_15h05.54.173,jersey_experiment_5,2023.2.2,Win32,85.47008547,,,,,,,,,,,,,,,,252.817,254.1226,254.1227,255.7944,return,0.7548,,89.84375,0,53,53,13,1,FBP-OG-91.png,0.43,1.2,14,0.5,,,,,,,,,,,,,,,,,,,,,,,,,,,,,,,,,,,,,,,,,,,,,
,,,,,WIN24_013,20,Female,2024-01-29_15h05.54.173,jersey_experiment_5,2023.2.2,Win32,85.47008547,,,,,,,,,,,,,,,,255.7946,257.0963,257.0964,258.311,return,0.5399,,97.78645833,0,54,54,3,1,FBP-OG-71.png,0.43,1.2,4,0.5,,,,,,,,,,,,,,,,,,,,,,,,,,,,,,,,,,,,,,,,,,,,,
,,,,,WIN24_013,20,Female,2024-01-29_15h05.54.173,jersey_experiment_5,2023.2.2,Win32,85.47008547,,,,,,,,,,,,,,,,258.3111,259.6023,259.6023,262.03,return,0.6452,,30.078125,0,55,55,11,1,FBP-OG-91.png,0.37,1.2,12,0.5,,,,,,,,,,,,,,,,,,,,,,,,,,,,,,,,,,,,,,,,,,,,,
,,,,,WIN24_013,20,Female,2024-01-29_15h05.54.173,jersey_experiment_5,2023.2.2,Win32,85.47008547,,,,,,,,,,,,,,,,262.0302,263.3319,263.3319,265.0731,return,0.7008,,30.20833333,0,56,56,10,1,FBP-OG-91.png,0.35,1.2,11,0.5,,,,,,,,,,,,,,,,,,,,,,,,,,,,,,,,,,,,,,,,,,,,,
,,,,,WIN24_013,20,Female,2024-01-29_15h05.54.173,jersey_experiment_5,2023.2.2,Win32,85.47008547,,,,,,,,,,,,,,,,265.0733,266.3713,266.3713,267.3713,return,0.5059,,30.20833333,0,57,57,56,1,FBP-PT-19.png,0.37,1.2,57,0.5,,,,,,,,,,,,,,,,,,,,,,,,,,,,,,,,,,,,,,,,,,,,,
,,,,,WIN24_013,20,Female,2024-01-29_15h05.54.173,jersey_experiment_5,2023.2.2,Win32,85.47008547,,,,,,,,,,,,,,,,267.3714,269.1672,269.1672,272.195,return,0.8587,,30.20833333,0,58,58,35,1,FBP-YG-81.png,0.35,1.2,36,1,,,,,,,,,,,,,,,,,,,,,,,,,,,,,,,,,,,,,,,,,,,,,
,,,,,WIN24_013,20,Female,2024-01-29_15h05.54.173,jersey_experiment_5,2023.2.2,Win32,85.47008547,,,,,,,,,,,,,,,,272.1951,273.9951,273.9951,275.5718,return,0.6592,,93.09895833,0,59,59,37,1,FBP-YG-81.png,0.4,1.2,38,1,,,,,,,,,,,,,,,,,,,,,,,,,,,,,,,,,,,,,,,,,,,,,
,,,,,WIN24_013,20,Female,2024-01-29_15h05.54.173,jersey_experiment_5,2023.2.2,Win32,85.47008547,,,,,,,,,,,,,,,,275.5738,277.3738,277.3738,279.9119,return,0.5874,,30.98958333,,,,,,FBP-YG-19.png,0.4,1.2,43,1,0,0,0,42,1,,,,,,,,,,,,,,,,,,,,,,,,,,,,,,,,,,,,,,,,
,,,,,WIN24_013,20,Female,2024-01-29_15h05.54.173,jersey_experiment_5,2023.2.2,Win32,85.47008547,,,,,,,,,,,,,,,,279.9123,281.709,281.7091,296.3606,return,0.5624,,48.30729167,,,,,,FBP-YG-17.png,0.45,1.2,35,1,0,1,1,34,1,,,,,,,,,,,,,,,,,,,,,,,,,,,,,,,,,,,,,,,,
,,,,,WIN24_013,20,Female,2024-01-29_15h05.54.173,jersey_experiment_5,2023.2.2,Win32,85.47008547,,,,,,,,,,,,,,,,296.3608,297.6624,297.6625,299.4626,return,0.4722,,48.30729167,,,,,,FBP-PT-91.png,0.4,1.2,58,0.5,0,2,2,57,1,,,,,,,,,,,,,,,,,,,,,,,,,,,,,,,,,,,,,,,,
,,,,,WIN24_013,20,Female,2024-01-29_15h05.54.173,jersey_experiment_5,2023.2.2,Win32,85.47008547,,,,,,,,,,,,,,,,299.4628,301.2667,301.2667,302.651,return,0.6376,,22.78645833,,,,,,FBP-RB-91.png,0.35,1.2,26,1,0,3,3,25,1,,,,,,,,,,,,,,,,,,,,,,,,,,,,,,,,,,,,,,,,
,,,,,WIN24_013,20,Female,2024-01-29_15h05.54.173,jersey_experiment_5,2023.2.2,Win32,85.47008547,,,,,,,,,,,,,,,,302.6512,303.949,303.949,305.9216,return,0.7453,,93.88020833,,,,,,FBP-PT-81.png,0.43,1.2,54,0.5,0,4,4,53,1,,,,,,,,,,,,,,,,,,,,,,,,,,,,,,,,,,,,,,,,
,,,,,WIN24_013,20,Female,2024-01-29_15h05.54.173,jersey_experiment_5,2023.2.2,Win32,85.47008547,,,,,,,,,,,,,,,,305.9218,307.2157,307.2158,309.2222,return,0.6142,,98.828125,,,,,,FBP-PT-91.png,0.45,1.2,60,0.5,0,5,5,59,1,,,,,,,,,,,,,,,,,,,,,,,,,,,,,,,,,,,,,,,,
,,,,,WIN24_013,20,Female,2024-01-29_15h05.54.173,jersey_experiment_5,2023.2.2,Win32,85.47008547,,,,,,,,,,,,,,,,309.2223,311.0159,311.0159,312.0866,return,0.5637,,98.828125,,,,,,FBP-YG-18.png,0.43,1.2,39,1,0,6,6,38,1,,,,,,,,,,,,,,,,,,,,,,,,,,,,,,,,,,,,,,,,
,,,,,WIN24_013,20,Female,2024-01-29_15h05.54.173,jersey_experiment_5,2023.2.2,Win32,85.47008547,,,,,,,,,,,,,,,,312.0868,313.881,313.881,316.0224,return,1.4731,,100,,,,,,FBP-RB-81.png,0.45,1.2,25,1,0,7,7,24,1,,,,,,,,,,,,,,,,,,,,,,,,,,,,,,,,,,,,,,,,
,,,,,WIN24_013,20,Female,2024-01-29_15h05.54.173,jersey_experiment_5,2023.2.2,Win32,85.47008547,,,,,,,,,,,,,,,,316.0226,317.8207,317.8207,319.3339,return,0.5077,,49.47916667,,,,,,FBP-YG-17.png,0.37,1.2,32,1,0,8,8,31,1,,,,,,,,,,,,,,,,,,,,,,,,,,,,,,,,,,,,,,,,
,,,,,WIN24_013,20,Female,2024-01-29_15h05.54.173,jersey_experiment_5,2023.2.2,Win32,85.47008547,,,,,,,,,,,,,,,,319.3341,320.6311,320.6311,322.15,return,0.4941,,47.39583333,,,,,,FBP-OG-18.png,0.35,1.2,6,0.5,0,9,9,5,1,,,,,,,,,,,,,,,,,,,,,,,,,,,,,,,,,,,,,,,,
,,,,,WIN24_013,20,Female,2024-01-29_15h05.54.173,jersey_experiment_5,2023.2.2,Win32,85.47008547,,,,,,,,,,,,,,,,322.1501,323.9481,323.9481,325.1726,return,0.5305,,79.42708333,,,,,,FBP-YG-17.png,0.43,1.2,34,1,0,10,10,33,1,,,,,,,,,,,,,,,,,,,,,,,,,,,,,,,,,,,,,,,,
,,,,,WIN24_013,20,Female,2024-01-29_15h05.54.173,jersey_experiment_5,2023.2.2,Win32,85.47008547,,,,,,,,,,,,,,,,325.1727,326.9734,326.9734,328.8048,return,0.5556,,50.390625,,,,,,FBP-RB-81.png,0.4,1.2,23,1,0,11,11,22,1,,,,,,,,,,,,,,,,,,,,,,,,,,,,,,,,,,,,,,,,
,,,,,WIN24_013,20,Female,2024-01-29_15h05.54.173,jersey_experiment_5,2023.2.2,Win32,85.47008547,,,,,,,,,,,,,,,,328.805,330.5976,330.5976,331.8308,return,0.504,,89.84375,,,,,,FBP-RB-91.png,0.43,1.2,29,1,0,12,12,28,1,,,,,,,,,,,,,,,,,,,,,,,,,,,,,,,,,,,,,,,,
,,,,,WIN24_013,20,Female,2024-01-29_15h05.54.173,jersey_experiment_5,2023.2.2,Win32,85.47008547,,,,,,,,,,,,,,,,331.831,333.6328,333.6328,335.2521,return,0.5073,,71.74479167,,,,,,FBP-RB-91.png,0.4,1.2,28,1,0,13,13,27,1,,,,,,,,,,,,,,,,,,,,,,,,,,,,,,,,,,,,,,,,
,,,,,WIN24_013,20,Female,2024-01-29_15h05.54.173,jersey_experiment_5,2023.2.2,Win32,85.47008547,,,,,,,,,,,,,,,,335.2522,336.5463,336.5464,337.9034,return,0.5877,,92.96875,,,,,,FBP-OG-19.png,0.45,1.2,15,0.5,0,14,14,14,1,,,,,,,,,,,,,,,,,,,,,,,,,,,,,,,,,,,,,,,,
,,,,,WIN24_013,20,Female,2024-01-29_15h05.54.173,jersey_experiment_5,2023.2.2,Win32,85.47008547,,,,,,,,,,,,,,,,337.9035,339.1962,339.1962,340.1624,return,0.4826,,97.65625,,,,,,FBP-OG-19.png,0.43,1.2,14,0.5,0,15,15,13,1,,,,,,,,,,,,,,,,,,,,,,,,,,,,,,,,,,,,,,,,
,,,,,WIN24_013,20,Female,2024-01-29_15h05.54.173,jersey_experiment_5,2023.2.2,Win32,85.47008547,,,,,,,,,,,,,,,,340.1626,341.9625,341.9625,343.5389,return,0.5853,,50.78125,,,,,,FBP-RB-71.png,0.37,1.2,17,1,0,16,16,16,1,,,,,,,,,,,,,,,,,,,,,,,,,,,,,,,,,,,,,,,,
,,,,,WIN24_013,20,Female,2024-01-29_15h05.54.173,jersey_experiment_5,2023.2.2,Win32,85.47008547,,,,,,,,,,,,,,,,343.5391,344.8467,344.8467,346.1743,return,0.4944,,63.671875,,,,,,FBP-PT-81.png,0.4,1.2,53,0.5,0,17,17,52,1,,,,,,,,,,,,,,,,,,,,,,,,,,,,,,,,,,,,,,,,
,,,,,WIN24_013,20,Female,2024-01-29_15h05.54.173,jersey_experiment_5,2023.2.2,Win32,85.47008547,,,,,,,,,,,,,,,,346.1744,347.4683,347.4683,348.5394,return,0.4712,,88.671875,,,,,,FBP-PT-71.png,0.45,1.2,50,0.5,0,18,18,49,1,,,,,,,,,,,,,,,,,,,,,,,,,,,,,,,,,,,,,,,,
,,,,,WIN24_013,20,Female,2024-01-29_15h05.54.173,jersey_experiment_5,2023.2.2,Win32,85.47008547,,,,,,,,,,,,,,,,348.5395,349.8409,349.8409,350.7703,return,0.4289,,88.671875,,,,,,FBP-PT-91.png,0.43,1.2,59,0.5,0,19,19,58,1,,,,,,,,,,,,,,,,,,,,,,,,,,,,,,,,,,,,,,,,
,,,,,WIN24_013,20,Female,2024-01-29_15h05.54.173,jersey_experiment_5,2023.2.2,Win32,85.47008547,,,,,,,,,,,,,,,,350.7705,352.5705,352.5705,353.761,return,0.4827,,88.671875,,,,,,FBP-RB-71.png,0.43,1.2,19,1,0,20,20,18,1,,,,,,,,,,,,,,,,,,,,,,,,,,,,,,,,,,,,,,,,
,,,,,WIN24_013,20,Female,2024-01-29_15h05.54.173,jersey_experiment_5,2023.2.2,Win32,85.47008547,,,,,,,,,,,,,,,,353.7611,355.0528,355.0528,356.6453,return,0.4704,,59.63541667,,,,,,FBP-OG-19.png,0.37,1.2,12,0.5,0,21,21,11,1,,,,,,,,,,,,,,,,,,,,,,,,,,,,,,,,,,,,,,,,
,,,,,WIN24_013,20,Female,2024-01-29_15h05.54.173,jersey_experiment_5,2023.2.2,Win32,85.47008547,,,,,,,,,,,,,,,,356.6455,357.947,357.947,359.3001,return,0.4488,,84.63541667,,,,,,FBP-PT-71.png,0.43,1.2,49,0.5,0,22,22,48,1,,,,,,,,,,,,,,,,,,,,,,,,,,,,,,,,,,,,,,,,
,,,,,WIN24_013,20,Female,2024-01-29_15h05.54.173,jersey_experiment_5,2023.2.2,Win32,85.47008547,,,,,,,,,,,,,,,,359.3003,361.0945,361.0945,362.2883,return,0.4426,,36.06770833,,,,,,FBP-YG-19.png,0.37,1.2,42,1,0,23,23,41,1,,,,,,,,,,,,,,,,,,,,,,,,,,,,,,,,,,,,,,,,
,,,,,WIN24_013,20,Female,2024-01-29_15h05.54.173,jersey_experiment_5,2023.2.2,Win32,85.47008547,,,,,,,,,,,,,,,,362.2885,363.6004,363.6004,364.7401,return,0.4574,,13.80208333,,,,,,FBP-OG-19.png,0.35,1.2,11,0.5,0,24,24,10,1,,,,,,,,,,,,,,,,,,,,,,,,,,,,,,,,,,,,,,,,
,,,,,WIN24_013,20,Female,2024-01-29_15h05.54.173,jersey_experiment_5,2023.2.2,Win32,85.47008547,,,,,,,,,,,,,,,,364.7402,366.0415,366.0416,367.7944,return,0.5578,,5.859375,,,,,,FBP-PT-71.png,0.35,1.2,46,0.5,0,25,25,45,1,,,,,,,,,,,,,,,,,,,,,,,,,,,,,,,,,,,,,,,,
,,,,,WIN24_013,20,Female,2024-01-29_15h05.54.173,jersey_experiment_5,2023.2.2,Win32,85.47008547,,,,,,,,,,,,,,,,367.7947,369.5946,369.5946,370.6888,return,0.4912,,6.380208333,,,,,,FBP-RB-81.png,0.35,1.2,21,1,0,26,26,20,1,,,,,,,,,,,,,,,,,,,,,,,,,,,,,,,,,,,,,,,,
,,,,,WIN24_013,20,Female,2024-01-29_15h05.54.173,jersey_experiment_5,2023.2.2,Win32,85.47008547,,,,,,,,,,,,,,,,370.689,372.4888,372.4888,373.6065,return,0.6834,,6.380208333,,,,,,FBP-RB-81.png,0.37,1.2,22,1,0,27,27,21,1,,,,,,,,,,,,,,,,,,,,,,,,,,,,,,,,,,,,,,,,
,,,,,WIN24_013,20,Female,2024-01-29_15h05.54.173,jersey_experiment_5,2023.2.2,Win32,85.47008547,,,,,,,,,,,,,,,,373.6067,374.9046,374.9046,375.9243,return,0.4484,,6.380208333,,,,,,FBP-OG-18.png,0.37,1.2,7,0.5,0,28,28,6,1,,,,,,,,,,,,,,,,,,,,,,,,,,,,,,,,,,,,,,,,
,,,,,WIN24_013,20,Female,2024-01-29_15h05.54.173,jersey_experiment_5,2023.2.2,Win32,85.47008547,,,,,,,,,,,,,,,,375.9245,377.2227,377.2227,379.3048,return,0.553,,82.421875,,,,,,FBP-OG-19.png,0.4,1.2,13,0.5,0,29,29,12,1,,,,,,,,,,,,,,,,,,,,,,,,,,,,,,,,,,,,,,,,
,,,,,WIN24_013,20,Female,2024-01-29_15h05.54.173,jersey_experiment_5,2023.2.2,Win32,85.47008547,,,,,,,,,,,,,,,,379.305,381.1032,381.1032,382.3306,return,0.4979,,98.69791667,,,,,,FBP-RB-91.png,0.45,1.2,30,1,0,30,30,29,1,,,,,,,,,,,,,,,,,,,,,,,,,,,,,,,,,,,,,,,,
,,,,,WIN24_013,20,Female,2024-01-29_15h05.54.173,jersey_experiment_5,2023.2.2,Win32,85.47008547,,,,,,,,,,,,,,,,382.3307,383.6304,383.6304,384.9303,return,0.4606,,87.76041667,,,,,,FBP-OG-18.png,0.43,1.2,9,0.5,0,31,31,8,1,,,,,,,,,,,,,,,,,,,,,,,,,,,,,,,,,,,,,,,,
,,,,,WIN24_013,20,Female,2024-01-29_15h05.54.173,jersey_experiment_5,2023.2.2,Win32,85.47008547,,,,,,,,,,,,,,,,384.9305,386.2344,386.2345,394.5294,return,0.5179,,76.82291667,,,,,,FBP-PT-91.png,0.37,1.2,57,0.5,0,32,32,56,1,,,,,,,,,,,,,,,,,,,,,,,,,,,,,,,,,,,,,,,,
,,,,,WIN24_013,20,Female,2024-01-29_15h05.54.173,jersey_experiment_5,2023.2.2,Win32,85.47008547,,,,,,,,,,,,,,,,394.5296,396.329,396.329,397.5409,return,0.5648,,22.91666667,,,,,,FBP-RB-71.png,0.35,1.2,16,1,0,33,33,15,1,,,,,,,,,,,,,,,,,,,,,,,,,,,,,,,,,,,,,,,,
,,,,,WIN24_013,20,Female,2024-01-29_15h05.54.173,jersey_experiment_5,2023.2.2,Win32,85.47008547,,,,,,,,,,,,,,,,397.541,399.3413,399.3413,400.3312,return,0.4493,,83.07291667,,,,,,FBP-YG-17.png,0.4,1.2,33,1,0,34,34,32,1,,,,,,,,,,,,,,,,,,,,,,,,,,,,,,,,,,,,,,,,
,,,,,WIN24_013,20,Female,2024-01-29_15h05.54.173,jersey_experiment_5,2023.2.2,Win32,85.47008547,,,,,,,,,,,,,,,,400.3314,402.1292,402.1292,403.5885,return,0.5184,,72.13541667,,,,,,FBP-RB-71.png,0.4,1.2,18,1,0,35,35,17,1,,,,,,,,,,,,,,,,,,,,,,,,,,,,,,,,,,,,,,,,
,,,,,WIN24_013,20,Female,2024-01-29_15h05.54.173,jersey_experiment_5,2023.2.2,Win32,85.47008547,,,,,,,,,,,,,,,,403.5887,405.3884,405.3885,406.4119,return,0.4822,,32.68229167,,,,,,FBP-RB-91.png,0.37,1.2,27,1,0,36,36,26,1,,,,,,,,,,,,,,,,,,,,,,,,,,,,,,,,,,,,,,,,
,,,,,WIN24_013,20,Female,2024-01-29_15h05.54.173,jersey_experiment_5,2023.2.2,Win32,85.47008547,,,,,,,,,,,,,,,,406.4121,407.7135,407.7135,409.0023,return,0.4863,,26.30208333,,,,,,FBP-OG-17.png,0.35,1.2,1,0.5,0,37,37,0,1,,,,,,,,,,,,,,,,,,,,,,,,,,,,,,,,,,,,,,,,
,,,,,WIN24_013,20,Female,2024-01-29_15h05.54.173,jersey_experiment_5,2023.2.2,Win32,85.47008547,,,,,,,,,,,,,,,,409.0024,410.302,410.302,411.614,return,0.4846,,22.65625,,,,,,FBP-PT-71.png,0.37,1.2,47,0.5,0,38,38,46,1,,,,,,,,,,,,,,,,,,,,,,,,,,,,,,,,,,,,,,,,
,,,,,WIN24_013,20,Female,2024-01-29_15h05.54.173,jersey_experiment_5,2023.2.2,Win32,85.47008547,,,,,,,,,,,,,,,,411.6142,412.9179,412.918,414.1199,return,0.4963,,21.484375,,,,,,FBP-PT-91.png,0.35,1.2,56,0.5,0,39,39,55,1,,,,,,,,,,,,,,,,,,,,,,,,,,,,,,,,,,,,,,,,
,,,,,WIN24_013,20,Female,2024-01-29_15h05.54.173,jersey_experiment_5,2023.2.2,Win32,85.47008547,,,,,,,,,,,,,,,,414.1201,415.9179,415.9179,417.0786,return,0.4715,,17.83854167,,,,,,FBP-YG-18.png,0.35,1.2,36,1,0,40,40,35,1,,,,,,,,,,,,,,,,,,,,,,,,,,,,,,,,,,,,,,,,
,,,,,WIN24_013,20,Female,2024-01-29_15h05.54.173,jersey_experiment_5,2023.2.2,Win32,85.47008547,,,,,,,,,,,,,,,,417.0789,418.8729,418.8729,420.0006,return,0.5428,,89.19270833,,,,,,FBP-RB-71.png,0.45,1.2,20,1,0,41,41,19,1,,,,,,,,,,,,,,,,,,,,,,,,,,,,,,,,,,,,,,,,
,,,,,WIN24_013,20,Female,2024-01-29_15h05.54.173,jersey_experiment_5,2023.2.2,Win32,85.47008547,,,,,,,,,,,,,,,,420.0008,421.3064,421.3064,422.5418,return,0.5062,,89.84375,,,,,,FBP-PT-81.png,0.45,1.2,55,0.5,0,42,42,54,1,,,,,,,,,,,,,,,,,,,,,,,,,,,,,,,,,,,,,,,,
,,,,,WIN24_013,20,Female,2024-01-29_15h05.54.173,jersey_experiment_5,2023.2.2,Win32,85.47008547,,,,,,,,,,,,,,,,422.542,424.3421,424.3421,425.5261,return,0.4858,,48.828125,,,,,,FBP-YG-18.png,0.37,1.2,37,1,0,43,43,36,1,,,,,,,,,,,,,,,,,,,,,,,,,,,,,,,,,,,,,,,,
,,,,,WIN24_013,20,Female,2024-01-29_15h05.54.173,jersey_experiment_5,2023.2.2,Win32,85.47008547,,,,,,,,,,,,,,,,425.5263,426.8203,426.8203,428.1323,return,0.4591,,76.5625,,,,,,FBP-OG-18.png,0.45,1.2,10,0.5,0,44,44,9,1,,,,,,,,,,,,,,,,,,,,,,,,,,,,,,,,,,,,,,,,
,,,,,WIN24_013,20,Female,2024-01-29_15h05.54.173,jersey_experiment_5,2023.2.2,Win32,85.47008547,,,,,,,,,,,,,,,,428.1325,429.9305,429.9305,431.4438,return,0.4976,,31.77083333,,,,,,FBP-YG-19.png,0.35,1.2,41,1,0,45,45,40,1,,,,,,,,,,,,,,,,,,,,,,,,,,,,,,,,,,,,,,,,
,,,,,WIN24_013,20,Female,2024-01-29_15h05.54.173,jersey_experiment_5,2023.2.2,Win32,85.47008547,,,,,,,,,,,,,,,,431.4441,433.2383,433.2383,434.2087,return,0.4538,,79.94791667,,,,,,FBP-YG-18.png,0.4,1.2,38,1,0,46,46,37,1,,,,,,,,,,,,,,,,,,,,,,,,,,,,,,,,,,,,,,,,
,,,,,WIN24_013,20,Female,2024-01-29_15h05.54.173,jersey_experiment_5,2023.2.2,Win32,85.47008547,,,,,,,,,,,,,,,,434.2089,435.5029,435.5029,437.0247,return,0.4822,,41.40625,,,,,,FBP-OG-17.png,0.37,1.2,2,0.5,0,47,47,1,1,,,,,,,,,,,,,,,,,,,,,,,,,,,,,,,,,,,,,,,,
,,,,,WIN24_013,20,Female,2024-01-29_15h05.54.173,jersey_experiment_5,2023.2.2,Win32,85.47008547,,,,,,,,,,,,,,,,437.0249,438.8228,438.8228,440.2443,return,0.6857,,91.27604167,,,,,,FBP-RB-81.png,0.43,1.2,24,1,0,48,48,23,1,,,,,,,,,,,,,,,,,,,,,,,,,,,,,,,,,,,,,,,,
,,,,,WIN24_013,20,Female,2024-01-29_15h05.54.173,jersey_experiment_5,2023.2.2,Win32,85.47008547,,,,,,,,,,,,,,,,440.2446,441.5384,441.5384,445.9544,return,1.5044,,52.734375,,,,,,FBP-OG-17.png,0.45,1.2,5,0.5,0,49,49,4,1,,,,,,,,,,,,,,,,,,,,,,,,,,,,,,,,,,,,,,,,
,,,,,WIN24_013,20,Female,2024-01-29_15h05.54.173,jersey_experiment_5,2023.2.2,Win32,85.47008547,,,,,,,,,,,,,,,,445.9546,447.2486,447.2486,448.3651,return,0.5166,,46.35416667,,,,,,FBP-PT-81.png,0.37,1.2,52,0.5,0,50,50,51,1,,,,,,,,,,,,,,,,,,,,,,,,,,,,,,,,,,,,,,,,
,,,,,WIN24_013,20,Female,2024-01-29_15h05.54.173,jersey_experiment_5,2023.2.2,Win32,85.47008547,,,,,,,,,,,,,,,,448.3652,449.6605,449.6605,450.8256,return,0.4966,,62.23958333,,,,,,FBP-PT-71.png,0.4,1.2,48,0.5,0,51,51,47,1,,,,,,,,,,,,,,,,,,,,,,,,,,,,,,,,,,,,,,,,
,,,,,WIN24_013,20,Female,2024-01-29_15h05.54.173,jersey_experiment_5,2023.2.2,Win32,85.47008547,,,,,,,,,,,,,,,,450.8257,452.6252,452.6252,453.7624,return,0.723,,49.609375,,,,,,FBP-YG-17.png,0.35,1.2,31,1,0,52,52,30,1,,,,,,,,,,,,,,,,,,,,,,,,,,,,,,,,,,,,,,,,
,,,,,WIN24_013,20,Female,2024-01-29_15h05.54.173,jersey_experiment_5,2023.2.2,Win32,85.47008547,,,,,,,,,,,,,,,,453.7626,455.0605,455.0606,456.3743,return,0.4347,,40.75520833,,,,,,FBP-PT-81.png,0.35,1.2,51,0.5,0,53,53,50,1,,,,,,,,,,,,,,,,,,,,,,,,,,,,,,,,,,,,,,,,
,,,,,WIN24_013,20,Female,2024-01-29_15h05.54.173,jersey_experiment_5,2023.2.2,Win32,85.47008547,,,,,,,,,,,,,,,,456.3744,457.6706,457.6706,459.4963,return,1.118,,89.71354167,,,,,,FBP-OG-17.png,0.43,1.2,4,0.5,0,54,54,3,1,,,,,,,,,,,,,,,,,,,,,,,,,,,,,,,,,,,,,,,,
,,,,,WIN24_013,20,Female,2024-01-29_15h05.54.173,jersey_experiment_5,2023.2.2,Win32,85.47008547,,,,,,,,,,,,,,,,459.4965,460.7902,460.7902,461.9788,return,0.5181,,94.40104167,,,,,,FBP-OG-17.png,0.4,1.2,3,0.5,0,55,55,2,1,,,,,,,,,,,,,,,,,,,,,,,,,,,,,,,,,,,,,,,,
,,,,,WIN24_013,20,Female,2024-01-29_15h05.54.173,jersey_experiment_5,2023.2.2,Win32,85.47008547,,,,,,,,,,,,,,,,461.9789,463.2835,463.2835,464.7908,return,0.5184,,80.859375,,,,,,FBP-OG-18.png,0.4,1.2,8,0.5,0,56,56,7,1,,,,,,,,,,,,,,,,,,,,,,,,,,,,,,,,,,,,,,,,
,,,,,WIN24_013,20,Female,2024-01-29_15h05.54.173,jersey_experiment_5,2023.2.2,Win32,85.47008547,,,,,,,,,,,,,,,,464.7911,466.5885,466.5885,467.5691,return,0.4492,,98.4375,,,,,,FBP-YG-19.png,0.43,1.2,44,1,0,57,57,43,1,,,,,,,,,,,,,,,,,,,,,,,,,,,,,,,,,,,,,,,,
,,,,,WIN24_013,20,Female,2024-01-29_15h05.54.173,jersey_experiment_5,2023.2.2,Win32,85.47008547,,,,,,,,,,,,,,,,467.5691,469.363,469.363,470.3339,return,0.565,,98.4375,,,,,,FBP-YG-18.png,0.45,1.2,40,1,0,58,58,39,1,,,,,,,,,,,,,,,,,,,,,,,,,,,,,,,,,,,,,,,,
,,,,,WIN24_013,20,Female,2024-01-29_15h05.54.173,jersey_experiment_5,2023.2.2,Win32,85.47008547,,,,,,,,,,,,,,,,470.3341,472.1277,472.1277,474.0614,return,0.565,,100,,,,,,FBP-YG-19.png,0.45,1.2,45,1,0,59,59,44,1,,,,,,,,,,,,,,,,,,,,,,,,,,,,,,,,,,,,,,,,
,,,,,WIN24_013,20,Female,2024-01-29_15h05.54.173,jersey_experiment_5,2023.2.2,Win32,85.47008547,,,,,,,,,,,,,,,,,,,,,,,,,,,,,,,,,,,,,,,474.0616,594.062,,,,,,,,,,,,,,,,,,,,,,,,,,,,,,,,,,,,,,
,,,,,WIN24_013,20,Female,2024-01-29_15h05.54.173,jersey_experiment_5,2023.2.2,Win32,85.47008547,,,,,,,,,,,,,,,,,,,,,,,,,,,,,,,,,,,,,,,,,594.0621,598.7208,return,4.6424,,,,,,,,,,,,,,,,,,,,,,,,,,,,,,,,,,
,,,,,WIN24_013,20,Female,2024-01-29_15h05.54.173,jersey_experiment_5,2023.2.2,Win32,85.47008547,,,,,,,,,,,,,,,,598.7271,600.0306,600.0306,603.4063,return,0.9989,,25.78125,,,,,,FBP-RB-19.png,0.35,1.2,26,0.5,,,,,,,,,,,,,0,0,0,25,1,,,,,,,,,,,,,,,,,,,,,,,,,,,,
,,,,,WIN24_013,20,Female,2024-01-29_15h05.54.173,jersey_experiment_5,2023.2.2,Win32,85.47008547,,,,,,,,,,,,,,,,603.4066,605.2077,605.2077,607.2195,return,0.6471,,91.015625,,,,,,FBP-OG-71.png,0.45,1.2,5,1,,,,,,,,,,,,,0,1,1,4,1,,,,,,,,,,,,,,,,,,,,,,,,,,,,
,,,,,WIN24_013,20,Female,2024-01-29_15h05.54.173,jersey_experiment_5,2023.2.2,Win32,85.47008547,,,,,,,,,,,,,,,,607.2197,609.0194,609.0195,610.0684,return,0.4963,,91.14583333,,,,,,FBP-PT-19.png,0.45,1.2,60,1,,,,,,,,,,,,,0,2,2,59,1,,,,,,,,,,,,,,,,,,,,,,,,,,,,
,,,,,WIN24_013,20,Female,2024-01-29_15h05.54.173,jersey_experiment_5,2023.2.2,Win32,85.47008547,,,,,,,,,,,,,,,,610.0686,611.8645,611.8645,613.6548,return,0.6603,,19.79166667,,,,,,FBP-PT-17.png,0.35,1.2,46,1,,,,,,,,,,,,,0,3,3,45,1,,,,,,,,,,,,,,,,,,,,,,,,,,,,
,,,,,WIN24_013,20,Female,2024-01-29_15h05.54.173,jersey_experiment_5,2023.2.2,Win32,85.47008547,,,,,,,,,,,,,,,,613.655,614.9598,614.9598,616.4666,return,0.6356,,72.78645833,,,,,,FBP-YG-71.png,0.43,1.2,34,0.5,,,,,,,,,,,,,0,4,4,33,1,,,,,,,,,,,,,,,,,,,,,,,,,,,,
,,,,,WIN24_013,20,Female,2024-01-29_15h05.54.173,jersey_experiment_5,2023.2.2,Win32,85.47008547,,,,,,,,,,,,,,,,616.4668,618.2669,618.2669,619.3982,return,0.6376,,32.16145833,,,,,,FBP-OG-91.png,0.37,1.2,12,1,,,,,,,,,,,,,0,5,5,11,1,,,,,,,,,,,,,,,,,,,,,,,,,,,,
,,,,,WIN24_013,20,Female,2024-01-29_15h05.54.173,jersey_experiment_5,2023.2.2,Win32,85.47008547,,,,,,,,,,,,,,,,619.3983,621.1961,621.1962,622.3493,return,0.6336,,77.47395833,,,,,,FBP-OG-71.png,0.43,1.2,4,1,,,,,,,,,,,,,0,6,6,3,1,,,,,,,,,,,,,,,,,,,,,,,,,,,,
,,,,,WIN24_013,20,Female,2024-01-29_15h05.54.173,jersey_experiment_5,2023.2.2,Win32,85.47008547,,,,,,,,,,,,,,,,622.3494,623.655,623.655,625.6433,return,0.6237,,18.48958333,,,,,,FBP-YG-91.png,0.35,1.2,41,0.5,,,,,,,,,,,,,0,7,7,40,1,,,,,,,,,,,,,,,,,,,,,,,,,,,,
,,,,,WIN24_013,20,Female,2024-01-29_15h05.54.173,jersey_experiment_5,2023.2.2,Win32,85.47008547,,,,,,,,,,,,,,,,625.6435,627.4392,627.4392,629.078,return,0.7424,,22.52604167,,,,,,FBP-PT-18.png,0.37,1.2,52,1,,,,,,,,,,,,,0,8,8,51,1,,,,,,,,,,,,,,,,,,,,,,,,,,,,
,,,,,WIN24_013,20,Female,2024-01-29_15h05.54.173,jersey_experiment_5,2023.2.2,Win32,85.47008547,,,,,,,,,,,,,,,,629.0781,630.3806,630.3806,632.0396,return,0.5747,,86.45833333,,,,,,FBP-YG-91.png,0.43,1.2,44,0.5,,,,,,,,,,,,,0,9,9,43,1,,,,,,,,,,,,,,,,,,,,,,,,,,,,
,,,,,WIN24_013,20,Female,2024-01-29_15h05.54.173,jersey_experiment_5,2023.2.2,Win32,85.47008547,,,,,,,,,,,,,,,,632.0398,633.8318,633.8318,635.5282,return,0.6608,,25.52083333,,,,,,FBP-OG-91.png,0.35,1.2,11,1,,,,,,,,,,,,,0,10,10,10,1,,,,,,,,,,,,,,,,,,,,,,,,,,,,
,,,,,WIN24_013,20,Female,2024-01-29_15h05.54.173,jersey_experiment_5,2023.2.2,Win32,85.47008547,,,,,,,,,,,,,,,,635.5283,636.82,636.82,638.0103,return,0.5787,,20.83333333,,,,,,FBP-YG-71.png,0.35,1.2,31,0.5,,,,,,,,,,,,,0,11,11,30,1,,,,,,,,,,,,,,,,,,,,,,,,,,,,
,,,,,WIN24_013,20,Female,2024-01-29_15h05.54.173,jersey_experiment_5,2023.2.2,Win32,85.47008547,,,,,,,,,,,,,,,,638.0105,639.8087,639.8088,641.0319,return,0.5862,,95.57291667,,,,,,FBP-PT-17.png,0.45,1.2,50,1,,,,,,,,,,,,,0,12,12,49,1,,,,,,,,,,,,,,,,,,,,,,,,,,,,
,,,,,WIN24_013,20,Female,2024-01-29_15h05.54.173,jersey_experiment_5,2023.2.2,Win32,85.47008547,,,,,,,,,,,,,,,,641.0321,642.8342,642.8342,644.3503,return,0.5649,,49.34895833,,,,,,FBP-OG-81.png,0.37,1.2,7,1,,,,,,,,,,,,,0,13,13,6,1,,,,,,,,,,,,,,,,,,,,,,,,,,,,
,,,,,WIN24_013,20,Female,2024-01-29_15h05.54.173,jersey_experiment_5,2023.2.2,Win32,85.47008547,,,,,,,,,,,,,,,,644.3504,645.6577,645.6578,646.9739,return,0.5063,,93.09895833,,,,,,FBP-YG-81.png,0.45,1.2,40,0.5,,,,,,,,,,,,,0,14,14,39,1,,,,,,,,,,,,,,,,,,,,,,,,,,,,
,,,,,WIN24_013,20,Female,2024-01-29_15h05.54.173,jersey_experiment_5,2023.2.2,Win32,85.47008547,,,,,,,,,,,,,,,,646.9741,648.2696,648.2696,649.2325,return,0.4961,,93.09895833,,,,,,FBP-RB-19.png,0.43,1.2,29,0.5,,,,,,,,,,,,,0,15,15,28,1,,,,,,,,,,,,,,,,,,,,,,,,,,,,
,,,,,WIN24_013,20,Female,2024-01-29_15h05.54.173,jersey_experiment_5,2023.2.2,Win32,85.47008547,,,,,,,,,,,,,,,,649.2327,650.5343,650.5343,651.4638,return,0.5645,,93.09895833,,,,,,FBP-YG-81.png,0.43,1.2,39,0.5,,,,,,,,,,,,,0,16,16,38,1,,,,,,,,,,,,,,,,,,,,,,,,,,,,
,,,,,WIN24_013,20,Female,2024-01-29_15h05.54.173,jersey_experiment_5,2023.2.2,Win32,85.47008547,,,,,,,,,,,,,,,,651.464,653.2564,653.2564,655.562,return,0.6687,,8.984375,,,,,,FBP-OG-71.png,0.35,1.2,1,1,,,,,,,,,,,,,0,17,17,0,1,,,,,,,,,,,,,,,,,,,,,,,,,,,,
,,,,,WIN24_013,20,Female,2024-01-29_15h05.54.173,jersey_experiment_5,2023.2.2,Win32,85.47008547,,,,,,,,,,,,,,,,655.5622,657.3625,657.3625,658.6758,return,0.5684,,51.04166667,,,,,,FBP-PT-18.png,0.4,1.2,53,1,,,,,,,,,,,,,0,18,18,52,1,,,,,,,,,,,,,,,,,,,,,,,,,,,,
,,,,,WIN24_013,20,Female,2024-01-29_15h05.54.173,jersey_experiment_5,2023.2.2,Win32,85.47008547,,,,,,,,,,,,,,,,658.676,659.9698,659.9699,661.2918,return,0.5412,,30.859375,,,,,,FBP-RB-17.png,0.35,1.2,16,0.5,,,,,,,,,,,,,0,19,19,15,1,,,,,,,,,,,,,,,,,,,,,,,,,,,,
,,,,,WIN24_013,20,Female,2024-01-29_15h05.54.173,jersey_experiment_5,2023.2.2,Win32,85.47008547,,,,,,,,,,,,,,,,661.292,662.586,662.586,663.8095,return,0.5063,,79.03645833,,,,,,FBP-YG-91.png,0.45,1.2,45,0.5,,,,,,,,,,,,,0,20,20,44,1,,,,,,,,,,,,,,,,,,,,,,,,,,,,
,,,,,WIN24_013,20,Female,2024-01-29_15h05.54.173,jersey_experiment_5,2023.2.2,Win32,85.47008547,,,,,,,,,,,,,,,,663.8096,665.1154,665.1155,666.9154,return,0.4837,,23.046875,,,,,,FBP-YG-81.png,0.35,1.2,36,0.5,,,,,,,,,,,,,0,21,21,35,1,,,,,,,,,,,,,,,,,,,,,,,,,,,,
,,,,,WIN24_013,20,Female,2024-01-29_15h05.54.173,jersey_experiment_5,2023.2.2,Win32,85.47008547,,,,,,,,,,,,,,,,666.9155,668.7143,668.7143,670.5937,return,0.5587,,54.16666667,,,,,,FBP-PT-17.png,0.4,1.2,48,1,,,,,,,,,,,,,0,22,22,47,1,,,,,,,,,,,,,,,,,,,,,,,,,,,,
,,,,,WIN24_013,20,Female,2024-01-29_15h05.54.173,jersey_experiment_5,2023.2.2,Win32,85.47008547,,,,,,,,,,,,,,,,670.594,671.892,671.892,672.9939,return,0.4758,,54.16666667,,,,,,FBP-RB-19.png,0.4,1.2,28,0.5,,,,,,,,,,,,,0,23,23,27,1,,,,,,,,,,,,,,,,,,,,,,,,,,,,
,,,,,WIN24_013,20,Female,2024-01-29_15h05.54.173,jersey_experiment_5,2023.2.2,Win32,85.47008547,,,,,,,,,,,,,,,,672.9942,674.292,674.292,675.8826,return,0.5314,,72.39583333,,,,,,FBP-YG-71.png,0.45,1.2,35,0.5,,,,,,,,,,,,,0,24,24,34,1,,,,,,,,,,,,,,,,,,,,,,,,,,,,
,,,,,WIN24_013,20,Female,2024-01-29_15h05.54.173,jersey_experiment_5,2023.2.2,Win32,85.47008547,,,,,,,,,,,,,,,,675.8827,677.1863,677.1863,678.2475,return,0.5452,,63.15104167,,,,,,FBP-RB-18.png,0.4,1.2,23,0.5,,,,,,,,,,,,,0,25,25,22,1,,,,,,,,,,,,,,,,,,,,,,,,,,,,
,,,,,WIN24_013,20,Female,2024-01-29_15h05.54.173,jersey_experiment_5,2023.2.2,Win32,85.47008547,,,,,,,,,,,,,,,,678.2477,679.5511,679.5511,680.8003,return,0.4591,,38.80208333,,,,,,FBP-RB-19.png,0.37,1.2,27,0.5,,,,,,,,,,,,,0,26,26,26,1,,,,,,,,,,,,,,,,,,,,,,,,,,,,
,,,,,WIN24_013,20,Female,2024-01-29_15h05.54.173,jersey_experiment_5,2023.2.2,Win32,85.47008547,,,,,,,,,,,,,,,,680.8006,682.5983,682.5983,683.5238,return,0.531,,91.27604167,,,,,,FBP-PT-18.png,0.45,1.2,55,1,,,,,,,,,,,,,0,27,27,54,1,,,,,,,,,,,,,,,,,,,,,,,,,,,,
,,,,,WIN24_013,20,Female,2024-01-29_15h05.54.173,jersey_experiment_5,2023.2.2,Win32,85.47008547,,,,,,,,,,,,,,,,683.524,684.818,684.818,686.728,return,0.7296,,24.86979167,,,,,,FBP-YG-91.png,0.37,1.2,42,0.5,,,,,,,,,,,,,0,28,28,41,1,,,,,,,,,,,,,,,,,,,,,,,,,,,,
,,,,,WIN24_013,20,Female,2024-01-29_15h05.54.173,jersey_experiment_5,2023.2.2,Win32,85.47008547,,,,,,,,,,,,,,,,686.7282,688.0222,688.0222,689.5044,return,0.5411,,89.84375,,,,,,FBP-RB-17.png,0.43,1.2,19,0.5,,,,,,,,,,,,,0,29,29,18,1,,,,,,,,,,,,,,,,,,,,,,,,,,,,
,,,,,WIN24_013,20,Female,2024-01-29_15h05.54.173,jersey_experiment_5,2023.2.2,Win32,85.47008547,,,,,,,,,,,,,,,,689.5046,690.8102,690.8103,692.3852,return,0.5745,,24.08854167,,,,,,FBP-RB-18.png,0.35,1.2,21,0.5,,,,,,,,,,,,,0,30,30,20,1,,,,,,,,,,,,,,,,,,,,,,,,,,,,
,,,,,WIN24_013,20,Female,2024-01-29_15h05.54.173,jersey_experiment_5,2023.2.2,Win32,85.47008547,,,,,,,,,,,,,,,,692.3853,694.1776,694.1777,695.2184,return,0.4885,,85.546875,,,,,,FBP-PT-17.png,0.43,1.2,49,1,,,,,,,,,,,,,0,31,31,48,1,,,,,,,,,,,,,,,,,,,,,,,,,,,,
,,,,,WIN24_013,20,Female,2024-01-29_15h05.54.173,jersey_experiment_5,2023.2.2,Win32,85.47008547,,,,,,,,,,,,,,,,695.2186,696.5124,696.5125,698.0678,return,0.5178,,60.15625,,,,,,FBP-RB-17.png,0.4,1.2,18,0.5,,,,,,,,,,,,,0,32,32,17,1,,,,,,,,,,,,,,,,,,,,,,,,,,,,
,,,,,WIN24_013,20,Female,2024-01-29_15h05.54.173,jersey_experiment_5,2023.2.2,Win32,85.47008547,,,,,,,,,,,,,,,,698.068,699.3619,699.3619,701.2571,return,0.5054,,27.21354167,,,,,,FBP-YG-71.png,0.37,1.2,32,0.5,,,,,,,,,,,,,0,33,33,31,1,,,,,,,,,,,,,,,,,,,,,,,,,,,,
,,,,,WIN24_013,20,Female,2024-01-29_15h05.54.173,jersey_experiment_5,2023.2.2,Win32,85.47008547,,,,,,,,,,,,,,,,701.2573,703.0546,703.0546,704.7404,return,0.5315,,10.02604167,,,,,,FBP-OG-81.png,0.35,1.2,6,1,,,,,,,,,,,,,0,34,34,5,1,,,,,,,,,,,,,,,,,,,,,,,,,,,,
,,,,,WIN24_013,20,Female,2024-01-29_15h05.54.173,jersey_experiment_5,2023.2.2,Win32,85.47008547,,,,,,,,,,,,,,,,704.7406,706.0462,706.0462,707.9058,return,0.5634,,88.93229167,,,,,,FBP-RB-18.png,0.43,1.2,24,0.5,,,,,,,,,,,,,0,35,35,23,1,,,,,,,,,,,,,,,,,,,,,,,,,,,,
,,,,,WIN24_013,20,Female,2024-01-29_15h05.54.173,jersey_experiment_5,2023.2.2,Win32,85.47008547,,,,,,,,,,,,,,,,707.906,709.2109,709.2109,710.2818,return,0.5057,,95.57291667,,,,,,FBP-RB-17.png,0.45,1.2,20,0.5,,,,,,,,,,,,,0,36,36,19,1,,,,,,,,,,,,,,,,,,,,,,,,,,,,
,,,,,WIN24_013,20,Female,2024-01-29_15h05.54.173,jersey_experiment_5,2023.2.2,Win32,85.47008547,,,,,,,,,,,,,,,,710.2819,712.0817,712.0817,713.1036,return,0.5158,,62.109375,,,,,,FBP-OG-91.png,0.4,1.2,13,1,,,,,,,,,,,,,0,37,37,12,1,,,,,,,,,,,,,,,,,,,,,,,,,,,,
,,,,,WIN24_013,20,Female,2024-01-29_15h05.54.173,jersey_experiment_5,2023.2.2,Win32,85.47008547,,,,,,,,,,,,,,,,713.1037,714.3994,714.3995,715.2585,return,0.484,,62.109375,,,,,,FBP-YG-71.png,0.4,1.2,33,0.5,,,,,,,,,,,,,0,38,38,32,1,,,,,,,,,,,,,,,,,,,,,,,,,,,,
,,,,,WIN24_013,20,Female,2024-01-29_15h05.54.173,jersey_experiment_5,2023.2.2,Win32,85.47008547,,,,,,,,,,,,,,,,715.2586,716.5642,716.5642,717.8351,return,0.5178,,29.6875,,,,,,FBP-RB-17.png,0.37,1.2,17,0.5,,,,,,,,,,,,,0,39,39,16,1,,,,,,,,,,,,,,,,,,,,,,,,,,,,
,,,,,WIN24_013,20,Female,2024-01-29_15h05.54.173,jersey_experiment_5,2023.2.2,Win32,85.47008547,,,,,,,,,,,,,,,,717.8352,719.1413,719.1413,720.7194,return,0.5097,,82.03125,,,,,,FBP-RB-18.png,0.45,1.2,25,0.5,,,,,,,,,,,,,0,40,40,24,1,,,,,,,,,,,,,,,,,,,,,,,,,,,,
,,,,,WIN24_013,20,Female,2024-01-29_15h05.54.173,jersey_experiment_5,2023.2.2,Win32,85.47008547,,,,,,,,,,,,,,,,720.7195,722.5174,722.5174,723.7768,return,0.6372,,2.34375,,,,,,FBP-PT-19.png,0.35,1.2,56,1,,,,,,,,,,,,,0,41,41,55,1,,,,,,,,,,,,,,,,,,,,,,,,,,,,
,,,,,WIN24_013,20,Female,2024-01-29_15h05.54.173,jersey_experiment_5,2023.2.2,Win32,85.47008547,,,,,,,,,,,,,,,,723.777,725.5785,725.5785,726.7252,return,0.5415,,75.390625,,,,,,FBP-OG-81.png,0.43,1.2,9,1,,,,,,,,,,,,,0,42,42,8,1,,,,,,,,,,,,,,,,,,,,,,,,,,,,
,,,,,WIN24_013,20,Female,2024-01-29_15h05.54.173,jersey_experiment_5,2023.2.2,Win32,85.47008547,,,,,,,,,,,,,,,,726.7255,728.5198,728.5198,729.5532,return,0.5886,,15.625,,,,,,FBP-PT-18.png,0.35,1.2,51,1,,,,,,,,,,,,,0,43,43,50,1,,,,,,,,,,,,,,,,,,,,,,,,,,,,
,,,,,WIN24_013,20,Female,2024-01-29_15h05.54.173,jersey_experiment_5,2023.2.2,Win32,85.47008547,,,,,,,,,,,,,,,,729.5533,731.3518,731.3518,732.7061,return,0.5531,,89.58333333,,,,,,FBP-OG-81.png,0.45,1.2,10,1,,,,,,,,,,,,,0,44,44,9,1,,,,,,,,,,,,,,,,,,,,,,,,,,,,
,,,,,WIN24_013,20,Female,2024-01-29_15h05.54.173,jersey_experiment_5,2023.2.2,Win32,85.47008547,,,,,,,,,,,,,,,,732.7062,734.5065,734.5065,735.6377,return,0.555,,89.84375,,,,,,FBP-PT-19.png,0.43,1.2,59,1,,,,,,,,,,,,,0,45,45,58,1,,,,,,,,,,,,,,,,,,,,,,,,,,,,
,,,,,WIN24_013,20,Female,2024-01-29_15h05.54.173,jersey_experiment_5,2023.2.2,Win32,85.47008547,,,,,,,,,,,,,,,,735.6379,737.4356,737.4356,738.3879,return,0.4917,,93.48958333,,,,,,FBP-PT-18.png,0.43,1.2,54,1,,,,,,,,,,,,,0,46,46,53,1,,,,,,,,,,,,,,,,,,,,,,,,,,,,
,,,,,WIN24_013,20,Female,2024-01-29_15h05.54.173,jersey_experiment_5,2023.2.2,Win32,85.47008547,,,,,,,,,,,,,,,,738.3881,740.1888,740.1888,741.2359,return,0.7041,,82.29166667,,,,,,FBP-OG-71.png,0.4,1.2,3,1,,,,,,,,,,,,,0,47,47,2,1,,,,,,,,,,,,,,,,,,,,,,,,,,,,
,,,,,WIN24_013,20,Female,2024-01-29_15h05.54.173,jersey_experiment_5,2023.2.2,Win32,85.47008547,,,,,,,,,,,,,,,,741.2361,743.0379,743.0379,744.3771,return,0.5649,,19.40104167,,,,,,FBP-OG-71.png,0.37,1.2,2,1,,,,,,,,,,,,,0,48,48,1,1,,,,,,,,,,,,,,,,,,,,,,,,,,,,
,,,,,WIN24_013,20,Female,2024-01-29_15h05.54.173,jersey_experiment_5,2023.2.2,Win32,85.47008547,,,,,,,,,,,,,,,,744.3773,745.6826,745.6827,747.3965,return,0.567,,74.73958333,,,,,,FBP-YG-81.png,0.4,1.2,38,0.5,,,,,,,,,,,,,0,49,49,37,1,,,,,,,,,,,,,,,,,,,,,,,,,,,,
,,,,,WIN24_013,20,Female,2024-01-29_15h05.54.173,jersey_experiment_5,2023.2.2,Win32,85.47008547,,,,,,,,,,,,,,,,747.3968,748.6948,748.6948,750.2715,return,0.4939,,34.765625,,,,,,FBP-YG-81.png,0.37,1.2,37,0.5,,,,,,,,,,,,,0,50,50,36,1,,,,,,,,,,,,,,,,,,,,,,,,,,,,
,,,,,WIN24_013,20,Female,2024-01-29_15h05.54.173,jersey_experiment_5,2023.2.2,Win32,85.47008547,,,,,,,,,,,,,,,,750.2717,752.0702,752.0703,753.0557,return,0.4899,,82.421875,,,,,,FBP-OG-91.png,0.45,1.2,15,1,,,,,,,,,,,,,0,51,51,14,1,,,,,,,,,,,,,,,,,,,,,,,,,,,,
,,,,,WIN24_013,20,Female,2024-01-29_15h05.54.173,jersey_experiment_5,2023.2.2,Win32,85.47008547,,,,,,,,,,,,,,,,753.0559,754.3497,754.3498,755.4952,return,0.5296,,89.97395833,,,,,,FBP-RB-19.png,0.45,1.2,30,0.5,,,,,,,,,,,,,0,52,52,29,1,,,,,,,,,,,,,,,,,,,,,,,,,,,,
,,,,,WIN24_013,20,Female,2024-01-29_15h05.54.173,jersey_experiment_5,2023.2.2,Win32,85.47008547,,,,,,,,,,,,,,,,755.4953,757.2954,757.2954,758.3777,return,0.5767,,49.86979167,,,,,,FBP-OG-81.png,0.4,1.2,8,1,,,,,,,,,,,,,0,53,53,7,1,,,,,,,,,,,,,,,,,,,,,,,,,,,,
,,,,,WIN24_013,20,Female,2024-01-29_15h05.54.173,jersey_experiment_5,2023.2.2,Win32,85.47008547,,,,,,,,,,,,,,,,758.3778,759.6817,759.6817,761.2033,return,0.5431,,16.14583333,,,,,,FBP-RB-18.png,0.37,1.2,22,0.5,,,,,,,,,,,,,0,54,54,21,1,,,,,,,,,,,,,,,,,,,,,,,,,,,,
,,,,,WIN24_013,20,Female,2024-01-29_15h05.54.173,jersey_experiment_5,2023.2.2,Win32,85.47008547,,,,,,,,,,,,,,,,761.2035,762.9971,762.9971,764.2015,return,0.5042,,13.80208333,,,,,,FBP-PT-19.png,0.37,1.2,57,1,,,,,,,,,,,,,0,55,55,56,1,,,,,,,,,,,,,,,,,,,,,,,,,,,,
,,,,,WIN24_013,20,Female,2024-01-29_15h05.54.173,jersey_experiment_5,2023.2.2,Win32,85.47008547,,,,,,,,,,,,,,,,764.2015,766.0034,766.0034,767.2209,return,0.602,,74.21875,,,,,,FBP-OG-91.png,0.43,1.2,14,1,,,,,,,,,,,,,0,56,56,13,1,,,,,,,,,,,,,,,,,,,,,,,,,,,,
,,,,,WIN24_013,20,Female,2024-01-29_15h05.54.173,jersey_experiment_5,2023.2.2,Win32,85.47008547,,,,,,,,,,,,,,,,767.2213,769.0133,769.0133,770.4252,return,0.565,,50.78125,,,,,,FBP-PT-19.png,0.4,1.2,58,1,,,,,,,,,,,,,0,57,57,57,1,,,,,,,,,,,,,,,,,,,,,,,,,,,,
,,,,,WIN24_013,20,Female,2024-01-29_15h05.54.173,jersey_experiment_5,2023.2.2,Win32,85.47008547,,,,,,,,,,,,,,,,770.4253,771.7192,771.7192,772.9976,return,0.5317,,58.984375,,,,,,FBP-YG-91.png,0.4,1.2,43,0.5,,,,,,,,,,,,,0,58,58,42,1,,,,,,,,,,,,,,,,,,,,,,,,,,,,
,,,,,WIN24_013,20,Female,2024-01-29_15h05.54.173,jersey_experiment_5,2023.2.2,Win32,85.47008547,,,,,,,,,,,,,,,,772.9979,774.8015,774.8015,776.9665,return,1.6597,,36.84895833,,,,,,FBP-PT-17.png,0.37,1.2,47,1,,,,,,,,,,,,,0,59,59,46,1,,,,,,,,,,,,,,,,,,,,,,,,,,,,
,,,,,WIN24_013,20,Female,2024-01-29_15h05.54.173,jersey_experiment_5,2023.2.2,Win32,85.47008547,,,,,,,,,,,,,,,,776.9687,778.7666,778.7666,779.7335,return,0.5214,,77.99479167,,,,,,FBP-OG-17.png,0.43,1.2,4,1,,,,,,,,,,,,,,,,,,0,0,0,3,1,,,,,,,,,,,,,,,,,,,,,,,
,,,,,WIN24_013,20,Female,2024-01-29_15h05.54.173,jersey_experiment_5,2023.2.2,Win32,85.47008547,,,,,,,,,,,,,,,,779.7338,781.5293,781.5293,782.6921,return,0.554,,54.81770833,,,,,,FBP-PT-71.png,0.4,1.2,48,1,,,,,,,,,,,,,,,,,,0,1,1,47,1,,,,,,,,,,,,,,,,,,,,,,,
,,,,,WIN24_013,20,Female,2024-01-29_15h05.54.173,jersey_experiment_5,2023.2.2,Win32,85.47008547,,,,,,,,,,,,,,,,782.6923,783.9863,783.9863,786.4022,return,0.9902,,57.421875,,,,,,FBP-RB-81.png,0.4,1.2,23,0.5,,,,,,,,,,,,,,,,,,0,2,2,22,1,,,,,,,,,,,,,,,,,,,,,,,
,,,,,WIN24_013,20,Female,2024-01-29_15h05.54.173,jersey_experiment_5,2023.2.2,Win32,85.47008547,,,,,,,,,,,,,,,,786.4023,787.708,787.708,788.9865,return,0.4964,,43.09895833,,,,,,FBP-YG-17.png,0.37,1.2,32,0.5,,,,,,,,,,,,,,,,,,0,3,3,31,1,,,,,,,,,,,,,,,,,,,,,,,
,,,,,WIN24_013,20,Female,2024-01-29_15h05.54.173,jersey_experiment_5,2023.2.2,Win32,85.47008547,,,,,,,,,,,,,,,,788.9866,790.2851,790.2851,791.7221,return,0.5431,,74.34895833,,,,,,FBP-YG-19.png,0.43,1.2,44,0.5,,,,,,,,,,,,,,,,,,0,4,4,43,1,,,,,,,,,,,,,,,,,,,,,,,
,,,,,WIN24_013,20,Female,2024-01-29_15h05.54.173,jersey_experiment_5,2023.2.2,Win32,85.47008547,,,,,,,,,,,,,,,,791.7222,793.0144,793.0144,794.8382,return,0.5395,,19.921875,,,,,,FBP-RB-91.png,0.35,1.2,26,0.5,,,,,,,,,,,,,,,,,,0,5,5,25,1,,,,,,,,,,,,,,,,,,,,,,,
,,,,,WIN24_013,20,Female,2024-01-29_15h05.54.173,jersey_experiment_5,2023.2.2,Win32,85.47008547,,,,,,,,,,,,,,,,794.8383,796.6376,796.6376,797.8967,return,0.6473,,86.71875,,,,,,FBP-PT-71.png,0.45,1.2,50,1,,,,,,,,,,,,,,,,,,0,6,6,49,1,,,,,,,,,,,,,,,,,,,,,,,
,,,,,WIN24_013,20,Female,2024-01-29_15h05.54.173,jersey_experiment_5,2023.2.2,Win32,85.47008547,,,,,,,,,,,,,,,,797.8968,799.6968,799.6968,800.8381,return,0.5529,,88.02083333,,,,,,FBP-PT-81.png,0.45,1.2,55,1,,,,,,,,,,,,,,,,,,0,7,7,54,1,,,,,,,,,,,,,,,,,,,,,,,
,,,,,WIN24_013,20,Female,2024-01-29_15h05.54.173,jersey_experiment_5,2023.2.2,Win32,85.47008547,,,,,,,,,,,,,,,,800.8382,802.6338,802.6339,803.6341,return,0.5932,,93.09895833,,,,,,FBP-OG-17.png,0.45,1.2,5,1,,,,,,,,,,,,,,,,,,0,8,8,4,1,,,,,,,,,,,,,,,,,,,,,,,
,,,,,WIN24_013,20,Female,2024-01-29_15h05.54.173,jersey_experiment_5,2023.2.2,Win32,85.47008547,,,,,,,,,,,,,,,,803.6343,805.4265,805.4265,806.6963,return,0.6917,,25.78125,,,,,,FBP-PT-81.png,0.4,1.2,53,1,,,,,,,,,,,,,,,,,,0,9,9,52,1,,,,,,,,,,,,,,,,,,,,,,,
,,,,,WIN24_013,20,Female,2024-01-29_15h05.54.173,jersey_experiment_5,2023.2.2,Win32,85.47008547,,,,,,,,,,,,,,,,806.6965,807.9913,807.9914,809.4107,return,0.5349,,2.083333333,,,,,,FBP-YG-18.png,0.35,1.2,36,0.5,,,,,,,,,,,,,,,,,,0,10,10,35,1,,,,,,,,,,,,,,,,,,,,,,,
,,,,,WIN24_013,20,Female,2024-01-29_15h05.54.173,jersey_experiment_5,2023.2.2,Win32,85.47008547,,,,,,,,,,,,,,,,809.411,810.7093,810.7093,812.1165,return,0.542,,95.3125,,,,,,FBP-YG-17.png,0.45,1.2,35,0.5,,,,,,,,,,,,,,,,,,0,11,11,34,1,,,,,,,,,,,,,,,,,,,,,,,
,,,,,WIN24_013,20,Female,2024-01-29_15h05.54.173,jersey_experiment_5,2023.2.2,Win32,85.47008547,,,,,,,,,,,,,,,,812.1167,813.9112,813.9112,814.9639,return,0.5446,,22.265625,,,,,,FBP-PT-81.png,0.37,1.2,52,1,,,,,,,,,,,,,,,,,,0,12,12,51,1,,,,,,,,,,,,,,,,,,,,,,,
,,,,,WIN24_013,20,Female,2024-01-29_15h05.54.173,jersey_experiment_5,2023.2.2,Win32,85.47008547,,,,,,,,,,,,,,,,814.9641,816.2622,816.2622,817.4933,return,0.5431,,5.859375,,,,,,FBP-YG-19.png,0.35,1.2,41,0.5,,,,,,,,,,,,,,,,,,0,13,13,40,1,,,,,,,,,,,,,,,,,,,,,,,
,,,,,WIN24_013,20,Female,2024-01-29_15h05.54.173,jersey_experiment_5,2023.2.2,Win32,85.47008547,,,,,,,,,,,,,,,,817.4936,819.2858,819.2858,856.9771,return,0.5582,,1.822916667,,,,,,FBP-PT-81.png,0.35,1.2,51,1,,,,,,,,,,,,,,,,,,0,14,14,50,1,,,,,,,,,,,,,,,,,,,,,,,
,,,,,WIN24_013,20,Female,2024-01-29_15h05.54.173,jersey_experiment_5,2023.2.2,Win32,85.47008547,,,,,,,,,,,,,,,,856.9773,858.7778,858.7778,864.448,return,0.7718,,78.25520833,,,,,,FBP-PT-91.png,0.43,1.2,59,1,,,,,,,,,,,,,,,,,,0,15,15,58,1,,,,,,,,,,,,,,,,,,,,,,,
,,,,,WIN24_013,20,Female,2024-01-29_15h05.54.173,jersey_experiment_5,2023.2.2,Win32,85.47008547,,,,,,,,,,,,,,,,864.4482,865.7482,865.7482,866.9658,return,0.4952,,91.40625,,,,,,FBP-YG-18.png,0.45,1.2,40,0.5,,,,,,,,,,,,,,,,,,0,16,16,39,1,,,,,,,,,,,,,,,,,,,,,,,
,,,,,WIN24_013,20,Female,2024-01-29_15h05.54.173,jersey_experiment_5,2023.2.2,Win32,85.47008547,,,,,,,,,,,,,,,,866.966,868.7585,868.7585,870.4053,return,1.0238,,56.25,,,,,,FBP-OG-18.png,0.4,1.2,8,1,,,,,,,,,,,,,,,,,,0,17,17,7,1,,,,,,,,,,,,,,,,,,,,,,,
,,,,,WIN24_013,20,Female,2024-01-29_15h05.54.173,jersey_experiment_5,2023.2.2,Win32,85.47008547,,,,,,,,,,,,,,,,870.4055,872.2073,872.2073,873.3701,return,0.4825,,28.90625,,,,,,FBP-PT-91.png,0.37,1.2,57,1,,,,,,,,,,,,,,,,,,0,18,18,56,1,,,,,,,,,,,,,,,,,,,,,,,
,,,,,WIN24_013,20,Female,2024-01-29_15h05.54.173,jersey_experiment_5,2023.2.2,Win32,85.47008547,,,,,,,,,,,,,,,,873.3703,874.6631,874.6631,876.051,return,0.4222,,86.328125,,,,,,FBP-RB-71.png,0.45,1.2,20,0.5,,,,,,,,,,,,,,,,,,0,19,19,19,1,,,,,,,,,,,,,,,,,,,,,,,
,,,,,WIN24_013,20,Female,2024-01-29_15h05.54.173,jersey_experiment_5,2023.2.2,Win32,85.47008547,,,,,,,,,,,,,,,,876.0511,877.3467,877.3468,878.3703,return,0.504,,94.79166667,,,,,,FBP-YG-19.png,0.45,1.2,45,0.5,,,,,,,,,,,,,,,,,,0,20,20,44,1,,,,,,,,,,,,,,,,,,,,,,,
,,,,,WIN24_013,20,Female,2024-01-29_15h05.54.173,jersey_experiment_5,2023.2.2,Win32,85.47008547,,,,,,,,,,,,,,,,878.3704,880.1692,880.1692,881.3002,return,0.5415,,25.390625,,,,,,FBP-OG-17.png,0.37,1.2,2,1,,,,,,,,,,,,,,,,,,0,21,21,1,1,,,,,,,,,,,,,,,,,,,,,,,
,,,,,WIN24_013,20,Female,2024-01-29_15h05.54.173,jersey_experiment_5,2023.2.2,Win32,85.47008547,,,,,,,,,,,,,,,,881.3004,883.0999,883.0999,884.1823,return,0.5416,,73.4375,,,,,,FBP-PT-71.png,0.43,1.2,49,1,,,,,,,,,,,,,,,,,,0,22,22,48,1,,,,,,,,,,,,,,,,,,,,,,,
,,,,,WIN24_013,20,Female,2024-01-29_15h05.54.173,jersey_experiment_5,2023.2.2,Win32,85.47008547,,,,,,,,,,,,,,,,884.1824,885.9782,885.9782,887.4181,return,0.6105,,82.16145833,,,,,,FBP-OG-18.png,0.45,1.2,10,1,,,,,,,,,,,,,,,,,,0,23,23,9,1,,,,,,,,,,,,,,,,,,,,,,,
,,,,,WIN24_013,20,Female,2024-01-29_15h05.54.173,jersey_experiment_5,2023.2.2,Win32,85.47008547,,,,,,,,,,,,,,,,887.4183,889.2196,889.2197,890.4295,return,0.5181,,12.23958333,,,,,,FBP-OG-17.png,0.35,1.2,1,1,,,,,,,,,,,,,,,,,,0,24,24,0,1,,,,,,,,,,,,,,,,,,,,,,,
,,,,,WIN24_013,20,Female,2024-01-29_15h05.54.173,jersey_experiment_5,2023.2.2,Win32,85.47008547,,,,,,,,,,,,,,,,890.4297,892.2283,892.2283,893.2649,return,0.5063,,4.296875,,,,,,FBP-PT-91.png,0.35,1.2,56,1,,,,,,,,,,,,,,,,,,0,25,25,55,1,,,,,,,,,,,,,,,,,,,,,,,
,,,,,WIN24_013,20,Female,2024-01-29_15h05.54.173,jersey_experiment_5,2023.2.2,Win32,85.47008547,,,,,,,,,,,,,,,,893.265,894.5589,894.5589,895.7713,return,0.5536,,3.255208333,,,,,,FBP-YG-17.png,0.35,1.2,31,0.5,,,,,,,,,,,,,,,,,,0,26,26,30,1,,,,,,,,,,,,,,,,,,,,,,,
,,,,,WIN24_013,20,Female,2024-01-29_15h05.54.173,jersey_experiment_5,2023.2.2,Win32,85.47008547,,,,,,,,,,,,,,,,895.7715,897.5709,897.5709,898.4493,return,0.4884,,0.130208333,,,,,,FBP-PT-71.png,0.35,1.2,46,1,,,,,,,,,,,,,,,,,,0,27,27,45,1,,,,,,,,,,,,,,,,,,,,,,,
,,,,,WIN24_013,20,Female,2024-01-29_15h05.54.173,jersey_experiment_5,2023.2.2,Win32,85.47008547,,,,,,,,,,,,,,,,898.4494,899.7477,899.7477,901.9007,return,1.1412,,64.58333333,,,,,,FBP-RB-71.png,0.43,1.2,19,0.5,,,,,,,,,,,,,,,,,,0,28,28,18,1,,,,,,,,,,,,,,,,,,,,,,,
,,,,,WIN24_013,20,Female,2024-01-29_15h05.54.173,jersey_experiment_5,2023.2.2,Win32,85.47008547,,,,,,,,,,,,,,,,901.9008,903.7007,903.7007,904.7852,return,0.5808,,30.078125,,,,,,FBP-OG-18.png,0.35,1.2,6,1,,,,,,,,,,,,,,,,,,0,29,29,5,1,,,,,,,,,,,,,,,,,,,,,,,
,,,,,WIN24_013,20,Female,2024-01-29_15h05.54.173,jersey_experiment_5,2023.2.2,Win32,85.47008547,,,,,,,,,,,,,,,,904.7853,906.5789,906.5789,907.4772,return,0.4944,,29.94791667,,,,,,FBP-OG-19.png,0.37,1.2,12,1,,,,,,,,,,,,,,,,,,0,30,30,11,1,,,,,,,,,,,,,,,,,,,,,,,
,,,,,WIN24_013,20,Female,2024-01-29_15h05.54.173,jersey_experiment_5,2023.2.2,Win32,85.47008547,,,,,,,,,,,,,,,,907.4774,908.7831,908.7831,910.1008,return,0.4953,,25.26041667,,,,,,FBP-RB-71.png,0.35,1.2,16,0.5,,,,,,,,,,,,,,,,,,0,31,31,15,1,,,,,,,,,,,,,,,,,,,,,,,
,,,,,WIN24_013,20,Female,2024-01-29_15h05.54.173,jersey_experiment_5,2023.2.2,Win32,85.47008547,,,,,,,,,,,,,,,,910.1009,911.9029,911.9029,913.1719,return,0.4948,,67.44791667,,,,,,FBP-PT-91.png,0.4,1.2,58,1,,,,,,,,,,,,,,,,,,0,32,32,57,1,,,,,,,,,,,,,,,,,,,,,,,
,,,,,WIN24_013,20,Female,2024-01-29_15h05.54.173,jersey_experiment_5,2023.2.2,Win32,85.47008547,,,,,,,,,,,,,,,,913.1721,914.9718,914.9718,915.8618,return,0.5075,,83.46354167,,,,,,FBP-OG-19.png,0.45,1.2,15,1,,,,,,,,,,,,,,,,,,0,33,33,14,1,,,,,,,,,,,,,,,,,,,,,,,
,,,,,WIN24_013,20,Female,2024-01-29_15h05.54.173,jersey_experiment_5,2023.2.2,Win32,85.47008547,,,,,,,,,,,,,,,,915.862,917.6544,917.6544,919.2876,return,0.526,,17.44791667,,,,,,FBP-OG-19.png,0.35,1.2,11,1,,,,,,,,,,,,,,,,,,0,34,34,10,1,,,,,,,,,,,,,,,,,,,,,,,
,,,,,WIN24_013,20,Female,2024-01-29_15h05.54.173,jersey_experiment_5,2023.2.2,Win32,85.47008547,,,,,,,,,,,,,,,,919.2878,921.0799,921.0799,922.1366,return,0.5394,,79.6875,,,,,,FBP-OG-19.png,0.43,1.2,14,1,,,,,,,,,,,,,,,,,,0,35,35,13,1,,,,,,,,,,,,,,,,,,,,,,,
,,,,,WIN24_013,20,Female,2024-01-29_15h05.54.173,jersey_experiment_5,2023.2.2,Win32,85.47008547,,,,,,,,,,,,,,,,922.1368,923.9386,923.9386,925.0307,return,0.4355,,39.84375,,,,,,FBP-OG-18.png,0.37,1.2,7,1,,,,,,,,,,,,,,,,,,0,36,36,6,1,,,,,,,,,,,,,,,,,,,,,,,
,,,,,WIN24_013,20,Female,2024-01-29_15h05.54.173,jersey_experiment_5,2023.2.2,Win32,85.47008547,,,,,,,,,,,,,,,,925.0309,926.3327,926.3327,927.7327,return,0.4848,,78.125,,,,,,FBP-RB-81.png,0.43,1.2,24,0.5,,,,,,,,,,,,,,,,,,0,37,37,23,1,,,,,,,,,,,,,,,,,,,,,,,
,,,,,WIN24_013,20,Female,2024-01-29_15h05.54.173,jersey_experiment_5,2023.2.2,Win32,85.47008547,,,,,,,,,,,,,,,,927.7329,929.0268,929.0269,930.6448,return,0.5199,,61.97916667,,,,,,FBP-YG-17.png,0.4,1.2,33,0.5,,,,,,,,,,,,,,,,,,0,38,38,32,1,,,,,,,,,,,,,,,,,,,,,,,
,,,,,WIN24_013,20,Female,2024-01-29_15h05.54.173,jersey_experiment_5,2023.2.2,Win32,85.47008547,,,,,,,,,,,,,,,,930.645,931.9487,931.9487,933.6193,return,0.5413,,49.47916667,,,,,,FBP-RB-91.png,0.4,1.2,28,0.5,,,,,,,,,,,,,,,,,,0,39,39,27,1,,,,,,,,,,,,,,,,,,,,,,,
,,,,,WIN24_013,20,Female,2024-01-29_15h05.54.173,jersey_experiment_5,2023.2.2,Win32,85.47008547,,,,,,,,,,,,,,,,933.6194,934.9268,934.9268,936.0506,return,0.4753,,35.9375,,,,,,FBP-RB-71.png,0.37,1.2,17,0.5,,,,,,,,,,,,,,,,,,0,40,40,16,1,,,,,,,,,,,,,,,,,,,,,,,
,,,,,WIN24_013,20,Female,2024-01-29_15h05.54.173,jersey_experiment_5,2023.2.2,Win32,85.47008547,,,,,,,,,,,,,,,,936.0509,937.843,937.843,938.8652,return,0.5648,,77.99479167,,,,,,FBP-OG-18.png,0.43,1.2,9,1,,,,,,,,,,,,,,,,,,0,41,41,8,1,,,,,,,,,,,,,,,,,,,,,,,
,,,,,WIN24_013,20,Female,2024-01-29_15h05.54.173,jersey_experiment_5,2023.2.2,Win32,85.47008547,,,,,,,,,,,,,,,,938.8653,940.6649,940.6649,941.8687,return,0.5217,,33.984375,,,,,,FBP-PT-71.png,0.37,1.2,47,1,,,,,,,,,,,,,,,,,,0,42,42,46,1,,,,,,,,,,,,,,,,,,,,,,,
,,,,,WIN24_013,20,Female,2024-01-29_15h05.54.173,jersey_experiment_5,2023.2.2,Win32,85.47008547,,,,,,,,,,,,,,,,941.8689,943.1686,943.1686,944.1864,return,0.5076,,33.984375,,,,,,FBP-RB-91.png,0.37,1.2,27,0.5,,,,,,,,,,,,,,,,,,0,43,43,26,1,,,,,,,,,,,,,,,,,,,,,,,
,,,,,WIN24_013,20,Female,2024-01-29_15h05.54.173,jersey_experiment_5,2023.2.2,Win32,85.47008547,,,,,,,,,,,,,,,,944.1865,945.9803,945.9803,947.4745,return,0.5321,,63.41145833,,,,,,FBP-PT-81.png,0.43,1.2,54,1,,,,,,,,,,,,,,,,,,0,44,44,53,1,,,,,,,,,,,,,,,,,,,,,,,
,,,,,WIN24_013,20,Female,2024-01-29_15h05.54.173,jersey_experiment_5,2023.2.2,Win32,85.47008547,,,,,,,,,,,,,,,,947.4746,948.7687,948.7688,950.1004,return,0.4707,,28.77604167,,,,,,FBP-RB-81.png,0.35,1.2,21,0.5,,,,,,,,,,,,,,,,,,0,45,45,20,1,,,,,,,,,,,,,,,,,,,,,,,
,,,,,WIN24_013,20,Female,2024-01-29_15h05.54.173,jersey_experiment_5,2023.2.2,Win32,85.47008547,,,,,,,,,,,,,,,,950.1005,951.9028,951.9028,953.338,return,0.5182,,49.47916667,,,,,,FBP-OG-17.png,0.4,1.2,3,1,,,,,,,,,,,,,,,,,,0,46,46,2,1,,,,,,,,,,,,,,,,,,,,,,,
,,,,,WIN24_013,20,Female,2024-01-29_15h05.54.173,jersey_experiment_5,2023.2.2,Win32,85.47008547,,,,,,,,,,,,,,,,953.3382,954.6436,954.6436,955.7725,return,0.4819,,39.84375,,,,,,FBP-YG-19.png,0.37,1.2,42,0.5,,,,,,,,,,,,,,,,,,0,47,47,41,1,,,,,,,,,,,,,,,,,,,,,,,
,,,,,WIN24_013,20,Female,2024-01-29_15h05.54.173,jersey_experiment_5,2023.2.2,Win32,85.47008547,,,,,,,,,,,,,,,,955.7727,957.0671,957.0671,958.6749,return,0.5197,,52.86458333,,,,,,FBP-RB-71.png,0.4,1.2,18,0.5,,,,,,,,,,,,,,,,,,0,48,48,17,1,,,,,,,,,,,,,,,,,,,,,,,
,,,,,WIN24_013,20,Female,2024-01-29_15h05.54.173,jersey_experiment_5,2023.2.2,Win32,85.47008547,,,,,,,,,,,,,,,,958.6752,959.9731,959.9731,961.4321,return,0.5296,,79.6875,,,,,,FBP-RB-91.png,0.43,1.2,29,0.5,,,,,,,,,,,,,,,,,,0,49,49,28,1,,,,,,,,,,,,,,,,,,,,,,,
,,,,,WIN24_013,20,Female,2024-01-29_15h05.54.173,jersey_experiment_5,2023.2.2,Win32,85.47008547,,,,,,,,,,,,,,,,961.4322,962.7398,962.7398,964.5811,return,0.555,,50.13020833,,,,,,FBP-YG-19.png,0.4,1.2,43,0.5,,,,,,,,,,,,,,,,,,0,50,50,42,1,,,,,,,,,,,,,,,,,,,,,,,
,,,,,WIN24_013,20,Female,2024-01-29_15h05.54.173,jersey_experiment_5,2023.2.2,Win32,85.47008547,,,,,,,,,,,,,,,,964.5813,966.3735,966.3735,967.3459,return,0.4972,,79.55729167,,,,,,FBP-PT-91.png,0.45,1.2,60,1,,,,,,,,,,,,,,,,,,0,51,51,59,1,,,,,,,,,,,,,,,,,,,,,,,
,,,,,WIN24_013,20,Female,2024-01-29_15h05.54.173,jersey_experiment_5,2023.2.2,Win32,85.47008547,,,,,,,,,,,,,,,,967.3461,968.6445,968.6445,970.1135,return,0.5047,,39.32291667,,,,,,FBP-YG-18.png,0.37,1.2,37,0.5,,,,,,,,,,,,,,,,,,0,52,52,36,1,,,,,,,,,,,,,,,,,,,,,,,
,,,,,WIN24_013,20,Female,2024-01-29_15h05.54.173,jersey_experiment_5,2023.2.2,Win32,85.47008547,,,,,,,,,,,,,,,,970.1137,971.4223,971.4223,972.7739,return,0.4955,,88.671875,,,,,,FBP-RB-91.png,0.45,1.2,30,0.5,,,,,,,,,,,,,,,,,,0,53,53,29,1,,,,,,,,,,,,,,,,,,,,,,,
,,,,,WIN24_013,20,Female,2024-01-29_15h05.54.173,jersey_experiment_5,2023.2.2,Win32,85.47008547,,,,,,,,,,,,,,,,972.774,974.0816,974.0816,975.8918,return,0.5887,,49.73958333,,,,,,FBP-YG-18.png,0.4,1.2,38,0.5,,,,,,,,,,,,,,,,,,0,54,54,37,1,,,,,,,,,,,,,,,,,,,,,,,
,,,,,WIN24_013,20,Female,2024-01-29_15h05.54.173,jersey_experiment_5,2023.2.2,Win32,85.47008547,,,,,,,,,,,,,,,,975.8919,977.1855,977.1855,978.7289,return,0.5666,,94.40104167,,,,,,FBP-YG-18.png,0.43,1.2,39,0.5,,,,,,,,,,,,,,,,,,0,55,55,38,1,,,,,,,,,,,,,,,,,,,,,,,
,,,,,WIN24_013,20,Female,2024-01-29_15h05.54.173,jersey_experiment_5,2023.2.2,Win32,85.47008547,,,,,,,,,,,,,,,,978.729,980.527,980.527,981.7273,return,0.5413,,49.47916667,,,,,,FBP-OG-19.png,0.4,1.2,13,1,,,,,,,,,,,,,,,,,,0,56,56,12,1,,,,,,,,,,,,,,,,,,,,,,,
,,,,,WIN24_013,20,Female,2024-01-29_15h05.54.173,jersey_experiment_5,2023.2.2,Win32,85.47008547,,,,,,,,,,,,,,,,981.7275,983.0202,983.0202,984.3152,return,0.5058,,70.18229167,,,,,,FBP-YG-17.png,0.43,1.2,34,0.5,,,,,,,,,,,,,,,,,,0,57,57,33,1,,,,,,,,,,,,,,,,,,,,,,,
,,,,,WIN24_013,20,Female,2024-01-29_15h05.54.173,jersey_experiment_5,2023.2.2,Win32,85.47008547,,,,,,,,,,,,,,,,984.3154,985.6216,985.6216,986.939,return,0.518,,29.55729167,,,,,,FBP-RB-81.png,0.37,1.2,22,0.5,,,,,,,,,,,,,,,,,,0,58,58,21,1,,,,,,,,,,,,,,,,,,,,,,,
,,,,,WIN24_013,20,Female,2024-01-29_15h05.54.173,jersey_experiment_5,2023.2.2,Win32,85.47008547,,,,,,,,,,,,,,,,986.9391,988.2449,988.2449,989.5585,return,0.5428,,73.828125,,,,,,FBP-RB-81.png,0.45,1.2,25,0.5,,,,,,,,,,,,,,,,,,0,59,59,24,1,,,,,,,,,,,,,,,,,,,,,,,
,,,,,WIN24_013,20,Female,2024-01-29_15h05.54.173,jersey_experiment_5,2023.2.2,Win32,85.47008547,,,,,,,,,,,,,,,,,,,,,,,,,,,,,,,,,,,,,,,,,,,,,,,,,,,,,,,,989.559,997.1259,return,7.5491,,,,,,,,,,,,,,,,,,,
,,,,,WIN24_013,20,Female,2024-01-29_15h05.54.173,jersey_experiment_5,2023.2.2,Win32,85.47008547,,,,,,,,,,,,,,,,,,,,,,,,,,,,,,,,,,,,,,,,,,,,,,,,,,,,,,,,,,,,,997.126,1003.6947,1,5.4367,return,1.1077,,,,,,,,,,,,
,,,,,WIN24_013,20,Female,2024-01-29_15h05.54.173,jersey_experiment_5,2023.2.2,Win32,85.47008547,,,,,,,,,,,,,,,,,,,,,,,,,,,,,,,,,,,,,,,,,,,,,,,,,,,,,,,,,,,,,,,,,,,,1003.6947,1082.8726,"The study might be about the possible effects of skin color and clothing color on size perception. I recognized that sometimes the same sized figure would appear directly after a figure, just with a different skin color or clothing color.",right,68.57,,,,,,
,,,,,WIN24_013,20,Female,2024-01-29_15h05.54.173,jersey_experiment_5,2023.2.2,Win32,85.47008547,,,,,,,,,,,,,,,,,,,,,,,,,,,,,,,,,,,,,,,,,,,,,,,,,,,,,,,,,,,,,,,,,,,,,,,,,,1082.8728,1086.1621,return,3.2758,