requirements.started,requirements.stopped,key_resp_3.keys,key_resp_3.rt,key_resp_3.duration,Subject ID,Age,Gender,date,expName,psychopyVersion,OS,frameRate,instructions1.started,instructions1.stopped,key_resp.keys,key_resp.rt,key_resp.duration,example.started,example.stopped,enter_2.keys,enter_2.rt,enter_2.duration,instructions2.started,instructions2.stopped,enter_3.keys,enter_3.rt,enter_3.duration,image.started,image.stopped,slider_2.started,slider_2.stopped,next.keys,next.rt,next.duration,slider.response,trial_block_1.thisRepN,trial_block_1.thisTrialN,trial_block_1.thisN,trial_block_1.thisIndex,trial_block_1.ran,Path,Width,Height,Index,Duration,trial_block_2.thisRepN,trial_block_2.thisTrialN,trial_block_2.thisN,trial_block_2.thisIndex,trial_block_2.ran,rest_break.started,rest_break.stopped,end_break.started,end_break.stopped,key_resp_5.keys,key_resp_5.rt,key_resp_5.duration,trial_block_3.thisRepN,trial_block_3.thisTrialN,trial_block_3.thisN,trial_block_3.thisIndex,trial_block_3.ran,trial_block_4.thisRepN,trial_block_4.thisTrialN,trial_block_4.thisN,trial_block_4.thisIndex,trial_block_4.ran,questions_intro.started,questions_intro.stopped,enter_12.keys,enter_12.rt,enter_12.duration,question2.started,question2.stopped,question_doingbest.response,question_doingbest.rt,enter_15.keys,enter_15.rt,enter_15.duration,pattern.started,pattern.stopped,pattern_2.text,enter_17.keys,enter_17.rt,enter_17.duration,thankyou.started,thankyou.stopped,enter_14.keys,enter_14.rt,enter_14.duration
0.0002,15.4034,return,15.3942,,WIN24_048,19,female,2024-02-09_12h26.29.146,jersey_experiment_5,2023.2.2,Win32,84.74576271,,,,,,,,,,,,,,,,,,,,,,,,,,,,,,,,,,,,,,,,,,,,,,,,,,,,,,,,,,,,,,,,,,,,,,,,,,,,,,
,,,,,WIN24_048,19,female,2024-02-09_12h26.29.146,jersey_experiment_5,2023.2.2,Win32,84.74576271,15.4035,24.7839,return,9.3711,,,,,,,,,,,,,,,,,,,,,,,,,,,,,,,,,,,,,,,,,,,,,,,,,,,,,,,,,,,,,,,,,,,,,,,,,,
,,,,,WIN24_048,19,female,2024-02-09_12h26.29.146,jersey_experiment_5,2023.2.2,Win32,84.74576271,,,,,,24.784,28.9135,return,4.0919,,,,,,,,,,,,,,,,,,,,,,,,,,,,,,,,,,,,,,,,,,,,,,,,,,,,,,,,,,,,,,,,,,,,,
,,,,,WIN24_048,19,female,2024-02-09_12h26.29.146,jersey_experiment_5,2023.2.2,Win32,84.74576271,,,,,,,,,,,28.9136,53.6236,return,24.6938,,,,,,,,,,,,,,,,,,,,,,,,,,,,,,,,,,,,,,,,,,,,,,,,,,,,,,,,,,,,,,,,
,,,,,WIN24_048,19,female,2024-02-09_12h26.29.146,jersey_experiment_5,2023.2.2,Win32,84.74576271,,,,,,,,,,,,,,,,53.6308,54.9309,54.9309,70.033,return,6.1236,,49.47916667,0,0,0,46,1,FBP-PT-17.png,0.37,1.2,47,0.5,,,,,,,,,,,,,,,,,,,,,,,,,,,,,,,,,,,,,,,,,,,,,
,,,,,WIN24_048,19,female,2024-02-09_12h26.29.146,jersey_experiment_5,2023.2.2,Win32,84.74576271,,,,,,,,,,,,,,,,70.0409,71.3382,71.3382,74.1265,return,0.8401,,74.86979167,0,1,1,58,1,FBP-PT-19.png,0.43,1.2,59,0.5,,,,,,,,,,,,,,,,,,,,,,,,,,,,,,,,,,,,,,,,,,,,,
,,,,,WIN24_048,19,female,2024-02-09_12h26.29.146,jersey_experiment_5,2023.2.2,Win32,84.74576271,,,,,,,,,,,,,,,,74.1267,75.9266,75.9266,79.0796,return,1.3083,,99.08854167,0,2,2,44,1,FBP-YG-91.png,0.45,1.2,45,1,,,,,,,,,,,,,,,,,,,,,,,,,,,,,,,,,,,,,,,,,,,,,
,,,,,WIN24_048,19,female,2024-02-09_12h26.29.146,jersey_experiment_5,2023.2.2,Win32,84.74576271,,,,,,,,,,,,,,,,79.0799,80.3738,80.3739,82.5741,return,0.2526,,25.13020833,0,3,3,51,1,FBP-PT-18.png,0.37,1.2,52,0.5,,,,,,,,,,,,,,,,,,,,,,,,,,,,,,,,,,,,,,,,,,,,,
,,,,,WIN24_048,19,female,2024-02-09_12h26.29.146,jersey_experiment_5,2023.2.2,Win32,84.74576271,,,,,,,,,,,,,,,,82.5742,83.868,83.868,85.5976,return,0.6082,,0.651041667,0,4,4,5,1,FBP-OG-81.png,0.35,1.2,6,0.5,,,,,,,,,,,,,,,,,,,,,,,,,,,,,,,,,,,,,,,,,,,,,
,,,,,WIN24_048,19,female,2024-02-09_12h26.29.146,jersey_experiment_5,2023.2.2,Win32,84.74576271,,,,,,,,,,,,,,,,85.5976,86.8917,86.8917,88.2096,return,0.2609,,0.78125,0,5,5,1,1,FBP-OG-71.png,0.37,1.2,2,0.5,,,,,,,,,,,,,,,,,,,,,,,,,,,,,,,,,,,,,,,,,,,,,
,,,,,WIN24_048,19,female,2024-02-09_12h26.29.146,jersey_experiment_5,2023.2.2,Win32,84.74576271,,,,,,,,,,,,,,,,88.2098,89.5035,89.5036,90.9272,return,0.5955,,24.86979167,0,6,6,52,1,FBP-PT-18.png,0.4,1.2,53,0.5,,,,,,,,,,,,,,,,,,,,,,,,,,,,,,,,,,,,,,,,,,,,,
,,,,,WIN24_048,19,female,2024-02-09_12h26.29.146,jersey_experiment_5,2023.2.2,Win32,84.74576271,,,,,,,,,,,,,,,,90.9275,92.7271,92.7272,96.2214,return,0.7238,,99.21875,0,7,7,19,1,FBP-RB-17.png,0.45,1.2,20,1,,,,,,,,,,,,,,,,,,,,,,,,,,,,,,,,,,,,,,,,,,,,,
,,,,,WIN24_048,19,female,2024-02-09_12h26.29.146,jersey_experiment_5,2023.2.2,Win32,84.74576271,,,,,,,,,,,,,,,,96.2216,98.0216,98.0216,100.551,return,0.4237,,49.86979167,0,8,8,20,1,FBP-RB-18.png,0.35,1.2,21,1,,,,,,,,,,,,,,,,,,,,,,,,,,,,,,,,,,,,,,,,,,,,,
,,,,,WIN24_048,19,female,2024-02-09_12h26.29.146,jersey_experiment_5,2023.2.2,Win32,84.74576271,,,,,,,,,,,,,,,,100.5511,102.3513,102.3513,104.9277,return,1.9357,,74.86979167,0,9,9,30,1,FBP-YG-71.png,0.35,1.2,31,1,,,,,,,,,,,,,,,,,,,,,,,,,,,,,,,,,,,,,,,,,,,,,
,,,,,WIN24_048,19,female,2024-02-09_12h26.29.146,jersey_experiment_5,2023.2.2,Win32,84.74576271,,,,,,,,,,,,,,,,104.9279,106.2217,106.2217,108.6219,return,0.5961,,99.47916667,0,10,10,8,1,FBP-OG-81.png,0.43,1.2,9,0.5,,,,,,,,,,,,,,,,,,,,,,,,,,,,,,,,,,,,,,,,,,,,,
,,,,,WIN24_048,19,female,2024-02-09_12h26.29.146,jersey_experiment_5,2023.2.2,Win32,84.74576271,,,,,,,,,,,,,,,,108.622,110.422,110.4221,112.4928,return,0.2423,,90.88541667,0,11,11,27,1,FBP-RB-19.png,0.4,1.2,28,1,,,,,,,,,,,,,,,,,,,,,,,,,,,,,,,,,,,,,,,,,,,,,
,,,,,WIN24_048,19,female,2024-02-09_12h26.29.146,jersey_experiment_5,2023.2.2,Win32,84.74576271,,,,,,,,,,,,,,,,112.493,113.7869,113.7869,115.1986,return,0.1698,,85.67708333,0,12,12,47,1,FBP-PT-17.png,0.4,1.2,48,0.5,,,,,,,,,,,,,,,,,,,,,,,,,,,,,,,,,,,,,,,,,,,,,
,,,,,WIN24_048,19,female,2024-02-09_12h26.29.146,jersey_experiment_5,2023.2.2,Win32,84.74576271,,,,,,,,,,,,,,,,115.1989,116.4928,116.4929,118.9751,return,0.2184,,74.34895833,0,13,13,10,1,FBP-OG-91.png,0.35,1.2,11,0.5,,,,,,,,,,,,,,,,,,,,,,,,,,,,,,,,,,,,,,,,,,,,,
,,,,,WIN24_048,19,female,2024-02-09_12h26.29.146,jersey_experiment_5,2023.2.2,Win32,84.74576271,,,,,,,,,,,,,,,,118.9754,120.7755,120.7755,121.5988,return,0.1835,,99.609375,0,14,14,28,1,FBP-RB-19.png,0.43,1.2,29,1,,,,,,,,,,,,,,,,,,,,,,,,,,,,,,,,,,,,,,,,,,,,,
,,,,,WIN24_048,19,female,2024-02-09_12h26.29.146,jersey_experiment_5,2023.2.2,Win32,84.74576271,,,,,,,,,,,,,,,,121.5991,123.399,123.399,124.9754,return,0.1947,,75.13020833,0,15,15,42,1,FBP-YG-91.png,0.4,1.2,43,1,,,,,,,,,,,,,,,,,,,,,,,,,,,,,,,,,,,,,,,,,,,,,
,,,,,WIN24_048,19,female,2024-02-09_12h26.29.146,jersey_experiment_5,2023.2.2,Win32,84.74576271,,,,,,,,,,,,,,,,124.9756,126.2695,126.2695,128.6109,return,0.1655,,74.47916667,0,16,16,12,1,FBP-OG-91.png,0.4,1.2,13,0.5,,,,,,,,,,,,,,,,,,,,,,,,,,,,,,,,,,,,,,,,,,,,,
,,,,,WIN24_048,19,female,2024-02-09_12h26.29.146,jersey_experiment_5,2023.2.2,Win32,84.74576271,,,,,,,,,,,,,,,,128.6112,129.905,129.9051,131.5874,return,0.2239,,98.69791667,0,17,17,3,1,FBP-OG-71.png,0.43,1.2,4,0.5,,,,,,,,,,,,,,,,,,,,,,,,,,,,,,,,,,,,,,,,,,,,,
,,,,,WIN24_048,19,female,2024-02-09_12h26.29.146,jersey_experiment_5,2023.2.2,Win32,84.74576271,,,,,,,,,,,,,,,,131.5877,132.8816,132.8816,134.0345,return,0.0975,,99.34895833,0,18,18,9,1,FBP-OG-81.png,0.45,1.2,10,0.5,,,,,,,,,,,,,,,,,,,,,,,,,,,,,,,,,,,,,,,,,,,,,
,,,,,WIN24_048,19,female,2024-02-09_12h26.29.146,jersey_experiment_5,2023.2.2,Win32,84.74576271,,,,,,,,,,,,,,,,134.0348,135.3287,135.3287,136.8935,return,0.1464,,74.609375,0,19,19,2,1,FBP-OG-71.png,0.4,1.2,3,0.5,,,,,,,,,,,,,,,,,,,,,,,,,,,,,,,,,,,,,,,,,,,,,
,,,,,WIN24_048,19,female,2024-02-09_12h26.29.146,jersey_experiment_5,2023.2.2,Win32,84.74576271,,,,,,,,,,,,,,,,136.8938,138.1878,138.1878,139.9877,return,0.1434,,74.73958333,0,20,20,7,1,FBP-OG-81.png,0.4,1.2,8,0.5,,,,,,,,,,,,,,,,,,,,,,,,,,,,,,,,,,,,,,,,,,,,,
,,,,,WIN24_048,19,female,2024-02-09_12h26.29.146,jersey_experiment_5,2023.2.2,Win32,84.74576271,,,,,,,,,,,,,,,,139.9879,141.2819,141.2819,143.0585,return,0.1797,,24.47916667,0,21,21,0,1,FBP-OG-71.png,0.35,1.2,1,0.5,,,,,,,,,,,,,,,,,,,,,,,,,,,,,,,,,,,,,,,,,,,,,
,,,,,WIN24_048,19,female,2024-02-09_12h26.29.146,jersey_experiment_5,2023.2.2,Win32,84.74576271,,,,,,,,,,,,,,,,143.0588,144.8584,144.8584,147.1174,return,0.7145,,24.609375,0,22,22,26,1,FBP-RB-19.png,0.37,1.2,27,1,,,,,,,,,,,,,,,,,,,,,,,,,,,,,,,,,,,,,,,,,,,,,
,,,,,WIN24_048,19,female,2024-02-09_12h26.29.146,jersey_experiment_5,2023.2.2,Win32,84.74576271,,,,,,,,,,,,,,,,147.1176,148.9176,148.9176,150.2704,return,0.2052,,6.901041667,0,23,23,15,1,FBP-RB-17.png,0.35,1.2,16,1,,,,,,,,,,,,,,,,,,,,,,,,,,,,,,,,,,,,,,,,,,,,,
,,,,,WIN24_048,19,female,2024-02-09_12h26.29.146,jersey_experiment_5,2023.2.2,Win32,84.74576271,,,,,,,,,,,,,,,,150.2706,151.5645,151.5646,152.3883,return,0.1193,,11.19791667,0,24,24,50,1,FBP-PT-18.png,0.35,1.2,51,0.5,,,,,,,,,,,,,,,,,,,,,,,,,,,,,,,,,,,,,,,,,,,,,
,,,,,WIN24_048,19,female,2024-02-09_12h26.29.146,jersey_experiment_5,2023.2.2,Win32,84.74576271,,,,,,,,,,,,,,,,152.3885,154.1883,154.1883,155.4235,return,0.3925,,24.73958333,0,25,25,41,1,FBP-YG-91.png,0.37,1.2,42,1,,,,,,,,,,,,,,,,,,,,,,,,,,,,,,,,,,,,,,,,,,,,,
,,,,,WIN24_048,19,female,2024-02-09_12h26.29.146,jersey_experiment_5,2023.2.2,Win32,84.74576271,,,,,,,,,,,,,,,,155.4238,157.2239,157.2239,159.365,return,0.1654,,97.91666667,0,26,26,29,1,FBP-RB-19.png,0.45,1.2,30,1,,,,,,,,,,,,,,,,,,,,,,,,,,,,,,,,,,,,,,,,,,,,,
,,,,,WIN24_048,19,female,2024-02-09_12h26.29.146,jersey_experiment_5,2023.2.2,Win32,84.74576271,,,,,,,,,,,,,,,,159.3651,161.1651,161.1652,162.8356,return,0.4586,,49.86979167,0,27,27,35,1,FBP-YG-81.png,0.35,1.2,36,1,,,,,,,,,,,,,,,,,,,,,,,,,,,,,,,,,,,,,,,,,,,,,
,,,,,WIN24_048,19,female,2024-02-09_12h26.29.146,jersey_experiment_5,2023.2.2,Win32,84.74576271,,,,,,,,,,,,,,,,162.8358,164.6359,164.636,165.9417,return,0.2826,,97.78645833,0,28,28,23,1,FBP-RB-18.png,0.43,1.2,24,1,,,,,,,,,,,,,,,,,,,,,,,,,,,,,,,,,,,,,,,,,,,,,
,,,,,WIN24_048,19,female,2024-02-09_12h26.29.146,jersey_experiment_5,2023.2.2,Win32,84.74576271,,,,,,,,,,,,,,,,165.9419,167.2357,167.2357,168.4357,return,0.1433,,99.34895833,0,29,29,4,1,FBP-OG-71.png,0.45,1.2,5,0.5,,,,,,,,,,,,,,,,,,,,,,,,,,,,,,,,,,,,,,,,,,,,,
,,,,,WIN24_048,19,female,2024-02-09_12h26.29.146,jersey_experiment_5,2023.2.2,Win32,84.74576271,,,,,,,,,,,,,,,,168.436,170.2361,170.2362,171.0477,return,0.1648,,49.21875,0,30,30,31,1,FBP-YG-71.png,0.37,1.2,32,1,,,,,,,,,,,,,,,,,,,,,,,,,,,,,,,,,,,,,,,,,,,,,
,,,,,WIN24_048,19,female,2024-02-09_12h26.29.146,jersey_experiment_5,2023.2.2,Win32,84.74576271,,,,,,,,,,,,,,,,171.0478,172.848,172.848,173.7301,return,0.0743,,98.828125,0,31,31,18,1,FBP-RB-17.png,0.43,1.2,19,1,,,,,,,,,,,,,,,,,,,,,,,,,,,,,,,,,,,,,,,,,,,,,
,,,,,WIN24_048,19,female,2024-02-09_12h26.29.146,jersey_experiment_5,2023.2.2,Win32,84.74576271,,,,,,,,,,,,,,,,173.7303,175.5304,175.5304,176.5303,return,0.074,,98.30729167,0,32,32,43,1,FBP-YG-91.png,0.43,1.2,44,1,,,,,,,,,,,,,,,,,,,,,,,,,,,,,,,,,,,,,,,,,,,,,
,,,,,WIN24_048,19,female,2024-02-09_12h26.29.146,jersey_experiment_5,2023.2.2,Win32,84.74576271,,,,,,,,,,,,,,,,176.5306,178.3302,178.3303,179.2011,return,0.191,,99.47916667,0,33,33,34,1,FBP-YG-71.png,0.45,1.2,35,1,,,,,,,,,,,,,,,,,,,,,,,,,,,,,,,,,,,,,,,,,,,,,
,,,,,WIN24_048,19,female,2024-02-09_12h26.29.146,jersey_experiment_5,2023.2.2,Win32,84.74576271,,,,,,,,,,,,,,,,179.2014,180.4951,180.4951,181.9541,return,0.1333,,25.26041667,0,34,34,56,1,FBP-PT-19.png,0.37,1.2,57,0.5,,,,,,,,,,,,,,,,,,,,,,,,,,,,,,,,,,,,,,,,,,,,,
,,,,,WIN24_048,19,female,2024-02-09_12h26.29.146,jersey_experiment_5,2023.2.2,Win32,84.74576271,,,,,,,,,,,,,,,,181.9544,183.7541,183.7541,185.9073,return,0.0946,,25,0,35,35,16,1,FBP-RB-17.png,0.37,1.2,17,1,,,,,,,,,,,,,,,,,,,,,,,,,,,,,,,,,,,,,,,,,,,,,
,,,,,WIN24_048,19,female,2024-02-09_12h26.29.146,jersey_experiment_5,2023.2.2,Win32,84.74576271,,,,,,,,,,,,,,,,185.9074,187.7072,187.7072,189.013,return,0.3063,,74.47916667,0,36,36,32,1,FBP-YG-71.png,0.4,1.2,33,1,,,,,,,,,,,,,,,,,,,,,,,,,,,,,,,,,,,,,,,,,,,,,
,,,,,WIN24_048,19,female,2024-02-09_12h26.29.146,jersey_experiment_5,2023.2.2,Win32,84.74576271,,,,,,,,,,,,,,,,189.0133,190.8132,190.8132,191.9427,return,0.2918,,99.21875,0,37,37,39,1,FBP-YG-81.png,0.45,1.2,40,1,,,,,,,,,,,,,,,,,,,,,,,,,,,,,,,,,,,,,,,,,,,,,
,,,,,WIN24_048,19,female,2024-02-09_12h26.29.146,jersey_experiment_5,2023.2.2,Win32,84.74576271,,,,,,,,,,,,,,,,191.9429,193.7427,193.7427,196.1663,return,0.038,,49.08854167,0,38,38,36,1,FBP-YG-81.png,0.37,1.2,37,1,,,,,,,,,,,,,,,,,,,,,,,,,,,,,,,,,,,,,,,,,,,,,
,,,,,WIN24_048,19,female,2024-02-09_12h26.29.146,jersey_experiment_5,2023.2.2,Win32,84.74576271,,,,,,,,,,,,,,,,196.1665,197.9664,197.9665,198.7663,return,0.0166,,74.73958333,0,39,39,37,1,FBP-YG-81.png,0.4,1.2,38,1,,,,,,,,,,,,,,,,,,,,,,,,,,,,,,,,,,,,,,,,,,,,,
,,,,,WIN24_048,19,female,2024-02-09_12h26.29.146,jersey_experiment_5,2023.2.2,Win32,84.74576271,,,,,,,,,,,,,,,,198.7665,200.0604,200.0604,201.7782,return,0.0603,,48.56770833,0,40,40,11,1,FBP-OG-91.png,0.37,1.2,12,0.5,,,,,,,,,,,,,,,,,,,,,,,,,,,,,,,,,,,,,,,,,,,,,
,,,,,WIN24_048,19,female,2024-02-09_12h26.29.146,jersey_experiment_5,2023.2.2,Win32,84.74576271,,,,,,,,,,,,,,,,201.7784,203.0723,203.0723,204.3081,return,0.0237,,98.95833333,0,41,41,54,1,FBP-PT-18.png,0.45,1.2,55,0.5,,,,,,,,,,,,,,,,,,,,,,,,,,,,,,,,,,,,,,,,,,,,,
,,,,,WIN24_048,19,female,2024-02-09_12h26.29.146,jersey_experiment_5,2023.2.2,Win32,84.74576271,,,,,,,,,,,,,,,,204.3083,206.1079,206.108,209.0257,return,1.5198,,78.515625,0,42,42,21,1,FBP-RB-18.png,0.37,1.2,22,1,,,,,,,,,,,,,,,,,,,,,,,,,,,,,,,,,,,,,,,,,,,,,
,,,,,WIN24_048,19,female,2024-02-09_12h26.29.146,jersey_experiment_5,2023.2.2,Win32,84.74576271,,,,,,,,,,,,,,,,209.0259,210.3198,210.3198,211.3197,return,0.0142,,98.56770833,0,43,43,49,1,FBP-PT-17.png,0.45,1.2,50,0.5,,,,,,,,,,,,,,,,,,,,,,,,,,,,,,,,,,,,,,,,,,,,,
,,,,,WIN24_048,19,female,2024-02-09_12h26.29.146,jersey_experiment_5,2023.2.2,Win32,84.74576271,,,,,,,,,,,,,,,,211.3199,212.6141,212.6141,214.3905,return,0.1974,,22.78645833,0,44,44,45,1,FBP-PT-17.png,0.35,1.2,46,0.5,,,,,,,,,,,,,,,,,,,,,,,,,,,,,,,,,,,,,,,,,,,,,
,,,,,WIN24_048,19,female,2024-02-09_12h26.29.146,jersey_experiment_5,2023.2.2,Win32,84.74576271,,,,,,,,,,,,,,,,214.3908,216.1906,216.1906,218.2613,return,0.1094,,50.78125,0,45,45,17,1,FBP-RB-17.png,0.4,1.2,18,1,,,,,,,,,,,,,,,,,,,,,,,,,,,,,,,,,,,,,,,,,,,,,
,,,,,WIN24_048,19,female,2024-02-09_12h26.29.146,jersey_experiment_5,2023.2.2,Win32,84.74576271,,,,,,,,,,,,,,,,218.2615,220.0612,220.0612,221.5907,return,0.094,,65.49479167,0,46,46,22,1,FBP-RB-18.png,0.4,1.2,23,1,,,,,,,,,,,,,,,,,,,,,,,,,,,,,,,,,,,,,,,,,,,,,
,,,,,WIN24_048,19,female,2024-02-09_12h26.29.146,jersey_experiment_5,2023.2.2,Win32,84.74576271,,,,,,,,,,,,,,,,221.591,222.8849,222.8849,224.6731,return,0.2868,,98.828125,0,47,47,53,1,FBP-PT-18.png,0.43,1.2,54,0.5,,,,,,,,,,,,,,,,,,,,,,,,,,,,,,,,,,,,,,,,,,,,,
,,,,,WIN24_048,19,female,2024-02-09_12h26.29.146,jersey_experiment_5,2023.2.2,Win32,84.74576271,,,,,,,,,,,,,,,,224.6733,225.9673,225.9673,228.0379,return,0.551,,20.703125,0,48,48,6,1,FBP-OG-81.png,0.37,1.2,7,0.5,,,,,,,,,,,,,,,,,,,,,,,,,,,,,,,,,,,,,,,,,,,,,
,,,,,WIN24_048,19,female,2024-02-09_12h26.29.146,jersey_experiment_5,2023.2.2,Win32,84.74576271,,,,,,,,,,,,,,,,228.0381,229.3322,229.3322,230.7089,return,0.1088,,3.776041667,0,49,49,55,1,FBP-PT-19.png,0.35,1.2,56,0.5,,,,,,,,,,,,,,,,,,,,,,,,,,,,,,,,,,,,,,,,,,,,,
,,,,,WIN24_048,19,female,2024-02-09_12h26.29.146,jersey_experiment_5,2023.2.2,Win32,84.74576271,,,,,,,,,,,,,,,,230.7091,232.0028,232.0029,233.4618,return,0.0378,,48.56770833,0,50,50,57,1,FBP-PT-19.png,0.4,1.2,58,0.5,,,,,,,,,,,,,,,,,,,,,,,,,,,,,,,,,,,,,,,,,,,,,
,,,,,WIN24_048,19,female,2024-02-09_12h26.29.146,jersey_experiment_5,2023.2.2,Win32,84.74576271,,,,,,,,,,,,,,,,233.4619,235.2618,235.2619,237.3913,return,0.0979,,79.03645833,0,51,51,33,1,FBP-YG-71.png,0.43,1.2,34,1,,,,,,,,,,,,,,,,,,,,,,,,,,,,,,,,,,,,,,,,,,,,,
,,,,,WIN24_048,19,female,2024-02-09_12h26.29.146,jersey_experiment_5,2023.2.2,Win32,84.74576271,,,,,,,,,,,,,,,,237.3916,238.6854,238.6854,239.6031,return,0.0614,,96.09375,0,52,52,48,1,FBP-PT-17.png,0.43,1.2,49,0.5,,,,,,,,,,,,,,,,,,,,,,,,,,,,,,,,,,,,,,,,,,,,,
,,,,,WIN24_048,19,female,2024-02-09_12h26.29.146,jersey_experiment_5,2023.2.2,Win32,84.74576271,,,,,,,,,,,,,,,,239.6033,241.4034,241.4034,242.9444,return,0.3555,,3.90625,0,53,53,40,1,FBP-YG-91.png,0.35,1.2,41,1,,,,,,,,,,,,,,,,,,,,,,,,,,,,,,,,,,,,,,,,,,,,,
,,,,,WIN24_048,19,female,2024-02-09_12h26.29.146,jersey_experiment_5,2023.2.2,Win32,84.74576271,,,,,,,,,,,,,,,,242.9447,244.2388,244.2388,245.874,return,0.177,,77.86458333,0,54,54,13,1,FBP-OG-91.png,0.43,1.2,14,0.5,,,,,,,,,,,,,,,,,,,,,,,,,,,,,,,,,,,,,,,,,,,,,
,,,,,WIN24_048,19,female,2024-02-09_12h26.29.146,jersey_experiment_5,2023.2.2,Win32,84.74576271,,,,,,,,,,,,,,,,245.8741,247.1681,247.1682,247.9916,return,0.1038,,98.4375,0,55,55,59,1,FBP-PT-19.png,0.45,1.2,60,0.5,,,,,,,,,,,,,,,,,,,,,,,,,,,,,,,,,,,,,,,,,,,,,
,,,,,WIN24_048,19,female,2024-02-09_12h26.29.146,jersey_experiment_5,2023.2.2,Win32,84.74576271,,,,,,,,,,,,,,,,247.9917,249.7919,249.7919,250.4624,return,0.1016,,1.822916667,0,56,56,25,1,FBP-RB-19.png,0.35,1.2,26,1,,,,,,,,,,,,,,,,,,,,,,,,,,,,,,,,,,,,,,,,,,,,,
,,,,,WIN24_048,19,female,2024-02-09_12h26.29.146,jersey_experiment_5,2023.2.2,Win32,84.74576271,,,,,,,,,,,,,,,,250.4625,252.2626,252.2626,253.0625,return,0.1183,,77.99479167,0,57,57,24,1,FBP-RB-18.png,0.45,1.2,25,1,,,,,,,,,,,,,,,,,,,,,,,,,,,,,,,,,,,,,,,,,,,,,
,,,,,WIN24_048,19,female,2024-02-09_12h26.29.146,jersey_experiment_5,2023.2.2,Win32,84.74576271,,,,,,,,,,,,,,,,253.0628,254.8626,254.8626,255.5331,return,0.0774,,94.01041667,0,58,58,38,1,FBP-YG-81.png,0.43,1.2,39,1,,,,,,,,,,,,,,,,,,,,,,,,,,,,,,,,,,,,,,,,,,,,,
,,,,,WIN24_048,19,female,2024-02-09_12h26.29.146,jersey_experiment_5,2023.2.2,Win32,84.74576271,,,,,,,,,,,,,,,,255.5334,256.8273,256.8274,257.6509,return,0.0478,,98.4375,0,59,59,14,1,FBP-OG-91.png,0.45,1.2,15,0.5,,,,,,,,,,,,,,,,,,,,,,,,,,,,,,,,,,,,,,,,,,,,,
,,,,,WIN24_048,19,female,2024-02-09_12h26.29.146,jersey_experiment_5,2023.2.2,Win32,84.74576271,,,,,,,,,,,,,,,,257.653,259.4509,259.4509,260.4862,return,0.3155,,99.21875,,,,,,FBP-YG-17.png,0.45,1.2,35,1,0,0,0,34,1,,,,,,,,,,,,,,,,,,,,,,,,,,,,,,,,,,,,,,,,
,,,,,WIN24_048,19,female,2024-02-09_12h26.29.146,jersey_experiment_5,2023.2.2,Win32,84.74576271,,,,,,,,,,,,,,,,260.4866,262.2866,262.2866,263.2039,return,0.2589,,73.046875,,,,,,FBP-RB-81.png,0.4,1.2,23,1,0,1,1,22,1,,,,,,,,,,,,,,,,,,,,,,,,,,,,,,,,,,,,,,,,
,,,,,WIN24_048,19,female,2024-02-09_12h26.29.146,jersey_experiment_5,2023.2.2,Win32,84.74576271,,,,,,,,,,,,,,,,263.2042,264.4981,264.4982,265.3333,return,0.2123,,71.35416667,,,,,,FBP-OG-18.png,0.45,1.2,10,0.5,0,2,2,9,1,,,,,,,,,,,,,,,,,,,,,,,,,,,,,,,,,,,,,,,,
,,,,,WIN24_048,19,female,2024-02-09_12h26.29.146,jersey_experiment_5,2023.2.2,Win32,84.74576271,,,,,,,,,,,,,,,,265.3337,266.6276,266.6277,267.4158,return,0.0465,,83.203125,,,,,,FBP-OG-19.png,0.45,1.2,15,0.5,0,3,3,14,1,,,,,,,,,,,,,,,,,,,,,,,,,,,,,,,,,,,,,,,,
,,,,,WIN24_048,19,female,2024-02-09_12h26.29.146,jersey_experiment_5,2023.2.2,Win32,84.74576271,,,,,,,,,,,,,,,,267.416,269.216,269.216,269.9806,return,0.1386,,64.19270833,,,,,,FBP-YG-19.png,0.4,1.2,43,1,0,4,4,42,1,,,,,,,,,,,,,,,,,,,,,,,,,,,,,,,,,,,,,,,,
,,,,,WIN24_048,19,female,2024-02-09_12h26.29.146,jersey_experiment_5,2023.2.2,Win32,84.74576271,,,,,,,,,,,,,,,,269.981,271.2749,271.2749,273.1338,return,0.0671,,46.35416667,,,,,,FBP-PT-91.png,0.37,1.2,57,0.5,0,5,5,56,1,,,,,,,,,,,,,,,,,,,,,,,,,,,,,,,,,,,,,,,,
,,,,,WIN24_048,19,female,2024-02-09_12h26.29.146,jersey_experiment_5,2023.2.2,Win32,84.74576271,,,,,,,,,,,,,,,,273.1341,274.9339,274.9339,276.0988,return,0.0717,,27.34375,,,,,,FBP-YG-17.png,0.37,1.2,32,1,0,6,6,31,1,,,,,,,,,,,,,,,,,,,,,,,,,,,,,,,,,,,,,,,,
,,,,,WIN24_048,19,female,2024-02-09_12h26.29.146,jersey_experiment_5,2023.2.2,Win32,84.74576271,,,,,,,,,,,,,,,,276.099,277.8986,277.8986,278.4399,return,0.0943,,23.95833333,,,,,,FBP-RB-81.png,0.37,1.2,22,1,0,7,7,21,1,,,,,,,,,,,,,,,,,,,,,,,,,,,,,,,,,,,,,,,,
,,,,,WIN24_048,19,female,2024-02-09_12h26.29.146,jersey_experiment_5,2023.2.2,Win32,84.74576271,,,,,,,,,,,,,,,,278.4401,279.7341,279.7341,280.4987,return,0.0255,,50,,,,,,FBP-PT-91.png,0.4,1.2,58,0.5,0,8,8,57,1,,,,,,,,,,,,,,,,,,,,,,,,,,,,,,,,,,,,,,,,
,,,,,WIN24_048,19,female,2024-02-09_12h26.29.146,jersey_experiment_5,2023.2.2,Win32,84.74576271,,,,,,,,,,,,,,,,280.4989,282.2989,282.299,283.0753,return,0.2,,23.56770833,,,,,,FBP-YG-17.png,0.35,1.2,31,1,0,9,9,30,1,,,,,,,,,,,,,,,,,,,,,,,,,,,,,,,,,,,,,,,,
,,,,,WIN24_048,19,female,2024-02-09_12h26.29.146,jersey_experiment_5,2023.2.2,Win32,84.74576271,,,,,,,,,,,,,,,,283.0754,284.8753,284.8754,285.7344,return,0.0476,,72.78645833,,,,,,FBP-YG-18.png,0.45,1.2,40,1,0,10,10,39,1,,,,,,,,,,,,,,,,,,,,,,,,,,,,,,,,,,,,,,,,
,,,,,WIN24_048,19,female,2024-02-09_12h26.29.146,jersey_experiment_5,2023.2.2,Win32,84.74576271,,,,,,,,,,,,,,,,285.7345,287.0283,287.0283,287.911,return,0.1184,,24.609375,,,,,,FBP-OG-19.png,0.37,1.2,12,0.5,0,11,11,11,1,,,,,,,,,,,,,,,,,,,,,,,,,,,,,,,,,,,,,,,,
,,,,,WIN24_048,19,female,2024-02-09_12h26.29.146,jersey_experiment_5,2023.2.2,Win32,84.74576271,,,,,,,,,,,,,,,,287.9112,289.7108,289.7108,290.5462,return,0.0251,,73.4375,,,,,,FBP-RB-81.png,0.43,1.2,24,1,0,12,12,23,1,,,,,,,,,,,,,,,,,,,,,,,,,,,,,,,,,,,,,,,,
,,,,,WIN24_048,19,female,2024-02-09_12h26.29.146,jersey_experiment_5,2023.2.2,Win32,84.74576271,,,,,,,,,,,,,,,,290.5465,291.8405,291.8405,292.8169,return,0.1557,,24.47916667,,,,,,FBP-OG-18.png,0.37,1.2,7,0.5,0,13,13,6,1,,,,,,,,,,,,,,,,,,,,,,,,,,,,,,,,,,,,,,,,
,,,,,WIN24_048,19,female,2024-02-09_12h26.29.146,jersey_experiment_5,2023.2.2,Win32,84.74576271,,,,,,,,,,,,,,,,292.817,294.617,294.617,295.2639,return,0.0294,,24.73958333,,,,,,FBP-RB-91.png,0.35,1.2,26,1,0,14,14,25,1,,,,,,,,,,,,,,,,,,,,,,,,,,,,,,,,,,,,,,,,
,,,,,WIN24_048,19,female,2024-02-09_12h26.29.146,jersey_experiment_5,2023.2.2,Win32,84.74576271,,,,,,,,,,,,,,,,295.2641,296.558,296.558,297.311,return,0.1244,,22.52604167,,,,,,FBP-PT-71.png,0.37,1.2,47,0.5,0,15,15,46,1,,,,,,,,,,,,,,,,,,,,,,,,,,,,,,,,,,,,,,,,
,,,,,WIN24_048,19,female,2024-02-09_12h26.29.146,jersey_experiment_5,2023.2.2,Win32,84.74576271,,,,,,,,,,,,,,,,297.3113,298.6054,298.6054,299.3817,return,0.0097,,3.385416667,,,,,,FBP-PT-91.png,0.35,1.2,56,0.5,0,16,16,55,1,,,,,,,,,,,,,,,,,,,,,,,,,,,,,,,,,,,,,,,,
,,,,,WIN24_048,19,female,2024-02-09_12h26.29.146,jersey_experiment_5,2023.2.2,Win32,84.74576271,,,,,,,,,,,,,,,,299.3818,300.6761,300.6761,303.1347,return,0.8189,,50.65104167,,,,,,FBP-PT-71.png,0.4,1.2,48,0.5,0,17,17,47,1,,,,,,,,,,,,,,,,,,,,,,,,,,,,,,,,,,,,,,,,
,,,,,WIN24_048,19,female,2024-02-09_12h26.29.146,jersey_experiment_5,2023.2.2,Win32,84.74576271,,,,,,,,,,,,,,,,303.135,304.9349,304.9349,307.4056,return,0.2762,,64.84375,,,,,,FBP-YG-18.png,0.4,1.2,38,1,0,18,18,37,1,,,,,,,,,,,,,,,,,,,,,,,,,,,,,,,,,,,,,,,,
,,,,,WIN24_048,19,female,2024-02-09_12h26.29.146,jersey_experiment_5,2023.2.2,Win32,84.74576271,,,,,,,,,,,,,,,,307.4058,308.6998,308.6999,309.9822,return,0.1701,,94.66145833,,,,,,FBP-PT-91.png,0.45,1.2,60,0.5,0,19,19,59,1,,,,,,,,,,,,,,,,,,,,,,,,,,,,,,,,,,,,,,,,
,,,,,WIN24_048,19,female,2024-02-09_12h26.29.146,jersey_experiment_5,2023.2.2,Win32,84.74576271,,,,,,,,,,,,,,,,309.9824,311.2762,311.2763,316.9589,return,1.2164,,96.35416667,,,,,,FBP-PT-81.png,0.45,1.2,55,0.5,0,20,20,54,1,,,,,,,,,,,,,,,,,,,,,,,,,,,,,,,,,,,,,,,,
,,,,,WIN24_048,19,female,2024-02-09_12h26.29.146,jersey_experiment_5,2023.2.2,Win32,84.74576271,,,,,,,,,,,,,,,,316.959,318.2529,318.253,322.6296,return,0.7059,,4.817708333,,,,,,FBP-OG-17.png,0.35,1.2,1,0.5,0,21,21,0,1,,,,,,,,,,,,,,,,,,,,,,,,,,,,,,,,,,,,,,,,
,,,,,WIN24_048,19,female,2024-02-09_12h26.29.146,jersey_experiment_5,2023.2.2,Win32,84.74576271,,,,,,,,,,,,,,,,322.6298,323.9238,323.9238,325.4297,return,0.6353,,7.552083333,,,,,,FBP-OG-18.png,0.35,1.2,6,0.5,0,22,22,5,1,,,,,,,,,,,,,,,,,,,,,,,,,,,,,,,,,,,,,,,,
,,,,,WIN24_048,19,female,2024-02-09_12h26.29.146,jersey_experiment_5,2023.2.2,Win32,84.74576271,,,,,,,,,,,,,,,,325.4298,327.2298,327.2299,330.5947,return,0.942,,77.60416667,,,,,,FBP-YG-17.png,0.43,1.2,34,1,0,23,23,33,1,,,,,,,,,,,,,,,,,,,,,,,,,,,,,,,,,,,,,,,,
,,,,,WIN24_048,19,female,2024-02-09_12h26.29.146,jersey_experiment_5,2023.2.2,Win32,84.74576271,,,,,,,,,,,,,,,,330.5949,331.8889,331.8889,335.5006,return,0.7009,,88.41145833,,,,,,FBP-PT-81.png,0.43,1.2,54,0.5,0,24,24,53,1,,,,,,,,,,,,,,,,,,,,,,,,,,,,,,,,,,,,,,,,
,,,,,WIN24_048,19,female,2024-02-09_12h26.29.146,jersey_experiment_5,2023.2.2,Win32,84.74576271,,,,,,,,,,,,,,,,335.5007,336.7948,336.7948,339.3479,return,0.729,,76.69270833,,,,,,FBP-OG-19.png,0.4,1.2,13,0.5,0,25,25,12,1,,,,,,,,,,,,,,,,,,,,,,,,,,,,,,,,,,,,,,,,
,,,,,WIN24_048,19,female,2024-02-09_12h26.29.146,jersey_experiment_5,2023.2.2,Win32,84.74576271,,,,,,,,,,,,,,,,339.3482,340.6421,340.6422,346.5011,return,4.5088,,76.5625,,,,,,FBP-OG-19.png,0.43,1.2,14,0.5,0,26,26,13,1,,,,,,,,,,,,,,,,,,,,,,,,,,,,,,,,,,,,,,,,
,,,,,WIN24_048,19,female,2024-02-09_12h26.29.146,jersey_experiment_5,2023.2.2,Win32,84.74576271,,,,,,,,,,,,,,,,346.5056,347.807,347.8071,350.1601,return,0.6408,,75,,,,,,FBP-OG-17.png,0.4,1.2,3,0.5,0,27,27,2,1,,,,,,,,,,,,,,,,,,,,,,,,,,,,,,,,,,,,,,,,
,,,,,WIN24_048,19,female,2024-02-09_12h26.29.146,jersey_experiment_5,2023.2.2,Win32,84.74576271,,,,,,,,,,,,,,,,350.1604,351.9601,351.9601,354.019,return,1.0231,,96.35416667,,,,,,FBP-RB-71.png,0.45,1.2,20,1,0,28,28,19,1,,,,,,,,,,,,,,,,,,,,,,,,,,,,,,,,,,,,,,,,
,,,,,WIN24_048,19,female,2024-02-09_12h26.29.146,jersey_experiment_5,2023.2.2,Win32,84.74576271,,,,,,,,,,,,,,,,354.0193,355.8191,355.8191,357.4427,return,0.7206,,99.34895833,,,,,,FBP-RB-91.png,0.43,1.2,29,1,0,29,29,28,1,,,,,,,,,,,,,,,,,,,,,,,,,,,,,,,,,,,,,,,,
,,,,,WIN24_048,19,female,2024-02-09_12h26.29.146,jersey_experiment_5,2023.2.2,Win32,84.74576271,,,,,,,,,,,,,,,,357.443,359.2427,359.2427,360.8311,return,0.7243,,83.59375,,,,,,FBP-YG-19.png,0.43,1.2,44,1,0,30,30,43,1,,,,,,,,,,,,,,,,,,,,,,,,,,,,,,,,,,,,,,,,
,,,,,WIN24_048,19,female,2024-02-09_12h26.29.146,jersey_experiment_5,2023.2.2,Win32,84.74576271,,,,,,,,,,,,,,,,360.8312,362.6311,362.6311,363.7488,return,0.7298,,83.59375,,,,,,FBP-RB-71.png,0.4,1.2,18,1,0,31,31,17,1,,,,,,,,,,,,,,,,,,,,,,,,,,,,,,,,,,,,,,,,
,,,,,WIN24_048,19,female,2024-02-09_12h26.29.146,jersey_experiment_5,2023.2.2,Win32,84.74576271,,,,,,,,,,,,,,,,363.7491,365.0429,365.043,367.2784,return,0.7251,,16.66666667,,,,,,FBP-OG-19.png,0.35,1.2,11,0.5,0,32,32,10,1,,,,,,,,,,,,,,,,,,,,,,,,,,,,,,,,,,,,,,,,
,,,,,WIN24_048,19,female,2024-02-09_12h26.29.146,jersey_experiment_5,2023.2.2,Win32,84.74576271,,,,,,,,,,,,,,,,367.2786,368.5725,368.5725,370.7843,return,0.5912,,48.56770833,,,,,,FBP-OG-18.png,0.4,1.2,8,0.5,0,33,33,7,1,,,,,,,,,,,,,,,,,,,,,,,,,,,,,,,,,,,,,,,,
,,,,,WIN24_048,19,female,2024-02-09_12h26.29.146,jersey_experiment_5,2023.2.2,Win32,84.74576271,,,,,,,,,,,,,,,,370.7846,372.5843,372.5844,374.3257,return,0.621,,24.34895833,,,,,,FBP-RB-81.png,0.35,1.2,21,1,0,34,34,20,1,,,,,,,,,,,,,,,,,,,,,,,,,,,,,,,,,,,,,,,,
,,,,,WIN24_048,19,female,2024-02-09_12h26.29.146,jersey_experiment_5,2023.2.2,Win32,84.74576271,,,,,,,,,,,,,,,,374.3258,375.6198,375.6198,378.2435,return,0.8617,,80.20833333,,,,,,FBP-OG-17.png,0.45,1.2,5,0.5,0,35,35,4,1,,,,,,,,,,,,,,,,,,,,,,,,,,,,,,,,,,,,,,,,
,,,,,WIN24_048,19,female,2024-02-09_12h26.29.146,jersey_experiment_5,2023.2.2,Win32,84.74576271,,,,,,,,,,,,,,,,378.2436,380.0435,380.0435,381.5848,return,0.6145,,25.91145833,,,,,,FBP-YG-19.png,0.35,1.2,41,1,0,36,36,40,1,,,,,,,,,,,,,,,,,,,,,,,,,,,,,,,,,,,,,,,,
,,,,,WIN24_048,19,female,2024-02-09_12h26.29.146,jersey_experiment_5,2023.2.2,Win32,84.74576271,,,,,,,,,,,,,,,,381.585,383.3849,383.3849,384.5731,return,0.6321,,48.17708333,,,,,,FBP-YG-18.png,0.37,1.2,37,1,0,37,37,36,1,,,,,,,,,,,,,,,,,,,,,,,,,,,,,,,,,,,,,,,,
,,,,,WIN24_048,19,female,2024-02-09_12h26.29.146,jersey_experiment_5,2023.2.2,Win32,84.74576271,,,,,,,,,,,,,,,,384.5733,385.8674,385.8674,387.3262,return,0.678,,78.515625,,,,,,FBP-PT-71.png,0.43,1.2,49,0.5,0,38,38,48,1,,,,,,,,,,,,,,,,,,,,,,,,,,,,,,,,,,,,,,,,
,,,,,WIN24_048,19,female,2024-02-09_12h26.29.146,jersey_experiment_5,2023.2.2,Win32,84.74576271,,,,,,,,,,,,,,,,387.3265,388.6203,388.6203,390.6204,return,0.595,,47.78645833,,,,,,FBP-PT-81.png,0.35,1.2,51,0.5,0,39,39,50,1,,,,,,,,,,,,,,,,,,,,,,,,,,,,,,,,,,,,,,,,
,,,,,WIN24_048,19,female,2024-02-09_12h26.29.146,jersey_experiment_5,2023.2.2,Win32,84.74576271,,,,,,,,,,,,,,,,390.6207,392.4204,392.4204,394.5146,return,1.2833,,96.61458333,,,,,,FBP-RB-81.png,0.45,1.2,25,1,0,40,40,24,1,,,,,,,,,,,,,,,,,,,,,,,,,,,,,,,,,,,,,,,,
,,,,,WIN24_048,19,female,2024-02-09_12h26.29.146,jersey_experiment_5,2023.2.2,Win32,84.74576271,,,,,,,,,,,,,,,,394.5149,396.3146,396.3146,397.6206,return,0.5753,,96.22395833,,,,,,FBP-YG-17.png,0.4,1.2,33,1,0,41,41,32,1,,,,,,,,,,,,,,,,,,,,,,,,,,,,,,,,,,,,,,,,
,,,,,WIN24_048,19,female,2024-02-09_12h26.29.146,jersey_experiment_5,2023.2.2,Win32,84.74576271,,,,,,,,,,,,,,,,397.6208,398.9147,398.9147,400.209,return,0.5696,,96.22395833,,,,,,FBP-PT-71.png,0.45,1.2,50,0.5,0,42,42,49,1,,,,,,,,,,,,,,,,,,,,,,,,,,,,,,,,,,,,,,,,
,,,,,WIN24_048,19,female,2024-02-09_12h26.29.146,jersey_experiment_5,2023.2.2,Win32,84.74576271,,,,,,,,,,,,,,,,400.2091,402.0093,402.0093,403.2444,return,0.6071,,48.95833333,,,,,,FBP-RB-71.png,0.35,1.2,16,1,0,43,43,15,1,,,,,,,,,,,,,,,,,,,,,,,,,,,,,,,,,,,,,,,,
,,,,,WIN24_048,19,female,2024-02-09_12h26.29.146,jersey_experiment_5,2023.2.2,Win32,84.74576271,,,,,,,,,,,,,,,,403.2446,404.5385,404.5385,406.2562,return,0.5466,,73.4375,,,,,,FBP-OG-17.png,0.43,1.2,4,0.5,0,44,44,3,1,,,,,,,,,,,,,,,,,,,,,,,,,,,,,,,,,,,,,,,,
,,,,,WIN24_048,19,female,2024-02-09_12h26.29.146,jersey_experiment_5,2023.2.2,Win32,84.74576271,,,,,,,,,,,,,,,,406.2564,407.5503,407.5503,409.8211,return,1.7381,,79.03645833,,,,,,FBP-PT-91.png,0.43,1.2,59,0.5,0,45,45,58,1,,,,,,,,,,,,,,,,,,,,,,,,,,,,,,,,,,,,,,,,
,,,,,WIN24_048,19,female,2024-02-09_12h26.29.146,jersey_experiment_5,2023.2.2,Win32,84.74576271,,,,,,,,,,,,,,,,409.8213,411.6211,411.6211,413.1034,return,0.5945,,96.74479167,,,,,,FBP-YG-19.png,0.45,1.2,45,1,0,46,46,44,1,,,,,,,,,,,,,,,,,,,,,,,,,,,,,,,,,,,,,,,,
,,,,,WIN24_048,19,female,2024-02-09_12h26.29.146,jersey_experiment_5,2023.2.2,Win32,84.74576271,,,,,,,,,,,,,,,,413.1035,414.3977,414.3977,416.0447,return,0.6207,,91.66666667,,,,,,FBP-OG-18.png,0.43,1.2,9,0.5,0,47,47,8,1,,,,,,,,,,,,,,,,,,,,,,,,,,,,,,,,,,,,,,,,
,,,,,WIN24_048,19,female,2024-02-09_12h26.29.146,jersey_experiment_5,2023.2.2,Win32,84.74576271,,,,,,,,,,,,,,,,416.0449,417.8451,417.8451,418.7743,return,0.5411,,97.00520833,,,,,,FBP-RB-91.png,0.45,1.2,30,1,0,48,48,29,1,,,,,,,,,,,,,,,,,,,,,,,,,,,,,,,,,,,,,,,,
,,,,,WIN24_048,19,female,2024-02-09_12h26.29.146,jersey_experiment_5,2023.2.2,Win32,84.74576271,,,,,,,,,,,,,,,,418.7746,420.5744,420.5744,422.0214,return,0.5034,,73.828125,,,,,,FBP-YG-18.png,0.43,1.2,39,1,0,49,49,38,1,,,,,,,,,,,,,,,,,,,,,,,,,,,,,,,,,,,,,,,,
,,,,,WIN24_048,19,female,2024-02-09_12h26.29.146,jersey_experiment_5,2023.2.2,Win32,84.74576271,,,,,,,,,,,,,,,,422.0217,423.3157,423.3157,424.7274,return,0.5507,,49.08854167,,,,,,FBP-OG-17.png,0.37,1.2,2,0.5,0,50,50,1,1,,,,,,,,,,,,,,,,,,,,,,,,,,,,,,,,,,,,,,,,
,,,,,WIN24_048,19,female,2024-02-09_12h26.29.146,jersey_experiment_5,2023.2.2,Win32,84.74576271,,,,,,,,,,,,,,,,424.7276,426.0217,426.0217,427.704,return,0.5644,,57.8125,,,,,,FBP-PT-81.png,0.4,1.2,53,0.5,0,51,51,52,1,,,,,,,,,,,,,,,,,,,,,,,,,,,,,,,,,,,,,,,,
,,,,,WIN24_048,19,female,2024-02-09_12h26.29.146,jersey_experiment_5,2023.2.2,Win32,84.74576271,,,,,,,,,,,,,,,,427.7041,429.5041,429.5041,430.5159,return,0.6375,,73.95833333,,,,,,FBP-RB-71.png,0.43,1.2,19,1,0,52,52,18,1,,,,,,,,,,,,,,,,,,,,,,,,,,,,,,,,,,,,,,,,
,,,,,WIN24_048,19,female,2024-02-09_12h26.29.146,jersey_experiment_5,2023.2.2,Win32,84.74576271,,,,,,,,,,,,,,,,430.5161,432.3161,432.3162,435.3515,return,2.4717,,24.21875,,,,,,FBP-YG-18.png,0.35,1.2,36,1,0,53,53,35,1,,,,,,,,,,,,,,,,,,,,,,,,,,,,,,,,,,,,,,,,
,,,,,WIN24_048,19,female,2024-02-09_12h26.29.146,jersey_experiment_5,2023.2.2,Win32,84.74576271,,,,,,,,,,,,,,,,435.3516,437.1515,437.1516,438.5987,return,0.6116,,48.95833333,,,,,,FBP-RB-91.png,0.4,1.2,28,1,0,54,54,27,1,,,,,,,,,,,,,,,,,,,,,,,,,,,,,,,,,,,,,,,,
,,,,,WIN24_048,19,female,2024-02-09_12h26.29.146,jersey_experiment_5,2023.2.2,Win32,84.74576271,,,,,,,,,,,,,,,,438.5989,439.8927,439.8927,441.234,return,0.5801,,24.21875,,,,,,FBP-PT-71.png,0.35,1.2,46,0.5,0,55,55,45,1,,,,,,,,,,,,,,,,,,,,,,,,,,,,,,,,,,,,,,,,
,,,,,WIN24_048,19,female,2024-02-09_12h26.29.146,jersey_experiment_5,2023.2.2,Win32,84.74576271,,,,,,,,,,,,,,,,441.2342,442.5282,442.5282,443.8459,return,0.6966,,24.21875,,,,,,FBP-PT-81.png,0.37,1.2,52,0.5,0,56,56,51,1,,,,,,,,,,,,,,,,,,,,,,,,,,,,,,,,,,,,,,,,
,,,,,WIN24_048,19,female,2024-02-09_12h26.29.146,jersey_experiment_5,2023.2.2,Win32,84.74576271,,,,,,,,,,,,,,,,443.8461,445.6458,445.6458,448.7988,return,1.6772,,24.47916667,,,,,,FBP-RB-71.png,0.37,1.2,17,1,0,57,57,16,1,,,,,,,,,,,,,,,,,,,,,,,,,,,,,,,,,,,,,,,,
,,,,,WIN24_048,19,female,2024-02-09_12h26.29.146,jersey_experiment_5,2023.2.2,Win32,84.74576271,,,,,,,,,,,,,,,,448.799,450.599,450.599,451.6696,return,0.6353,,24.47916667,,,,,,FBP-RB-91.png,0.37,1.2,27,1,0,58,58,26,1,,,,,,,,,,,,,,,,,,,,,,,,,,,,,,,,,,,,,,,,
,,,,,WIN24_048,19,female,2024-02-09_12h26.29.146,jersey_experiment_5,2023.2.2,Win32,84.74576271,,,,,,,,,,,,,,,,451.6698,453.4699,453.4699,455.0697,return,0.6168,,24.86979167,,,,,,FBP-YG-19.png,0.37,1.2,42,1,0,59,59,41,1,,,,,,,,,,,,,,,,,,,,,,,,,,,,,,,,,,,,,,,,
,,,,,WIN24_048,19,female,2024-02-09_12h26.29.146,jersey_experiment_5,2023.2.2,Win32,84.74576271,,,,,,,,,,,,,,,,,,,,,,,,,,,,,,,,,,,,,,,455.0701,575.0745,,,,,,,,,,,,,,,,,,,,,,,,,,,,,,,,,,,,,,
,,,,,WIN24_048,19,female,2024-02-09_12h26.29.146,jersey_experiment_5,2023.2.2,Win32,84.74576271,,,,,,,,,,,,,,,,,,,,,,,,,,,,,,,,,,,,,,,,,575.0746,578.2273,return,3.1418,,,,,,,,,,,,,,,,,,,,,,,,,,,,,,,,,,
,,,,,WIN24_048,19,female,2024-02-09_12h26.29.146,jersey_experiment_5,2023.2.2,Win32,84.74576271,,,,,,,,,,,,,,,,578.2339,579.5331,579.5331,582.0037,return,1.2251,,25.91145833,,,,,,FBP-RB-17.png,0.37,1.2,17,0.5,,,,,,,,,,,,,0,0,0,16,1,,,,,,,,,,,,,,,,,,,,,,,,,,,,
,,,,,WIN24_048,19,female,2024-02-09_12h26.29.146,jersey_experiment_5,2023.2.2,Win32,84.74576271,,,,,,,,,,,,,,,,582.0041,583.8039,583.8039,585.1567,return,0.0478,,48.69791667,,,,,,FBP-PT-19.png,0.37,1.2,57,1,,,,,,,,,,,,,0,1,1,56,1,,,,,,,,,,,,,,,,,,,,,,,,,,,,
,,,,,WIN24_048,19,female,2024-02-09_12h26.29.146,jersey_experiment_5,2023.2.2,Win32,84.74576271,,,,,,,,,,,,,,,,585.1568,586.4509,586.4509,587.8863,return,0.3461,,27.21354167,,,,,,FBP-RB-17.png,0.35,1.2,16,0.5,,,,,,,,,,,,,0,2,2,15,1,,,,,,,,,,,,,,,,,,,,,,,,,,,,
,,,,,WIN24_048,19,female,2024-02-09_12h26.29.146,jersey_experiment_5,2023.2.2,Win32,84.74576271,,,,,,,,,,,,,,,,587.8866,589.1805,589.1805,590.757,return,1.1063,,33.59375,,,,,,FBP-YG-81.png,0.35,1.2,36,0.5,,,,,,,,,,,,,0,3,3,35,1,,,,,,,,,,,,,,,,,,,,,,,,,,,,
,,,,,WIN24_048,19,female,2024-02-09_12h26.29.146,jersey_experiment_5,2023.2.2,Win32,84.74576271,,,,,,,,,,,,,,,,590.7571,592.0512,592.0512,594.2278,return,0.1414,,77.08333333,,,,,,FBP-YG-71.png,0.45,1.2,35,0.5,,,,,,,,,,,,,0,4,4,34,1,,,,,,,,,,,,,,,,,,,,,,,,,,,,
,,,,,WIN24_048,19,female,2024-02-09_12h26.29.146,jersey_experiment_5,2023.2.2,Win32,84.74576271,,,,,,,,,,,,,,,,594.228,596.0277,596.0278,597.1101,return,0.5981,,77.08333333,,,,,,FBP-PT-17.png,0.43,1.2,49,1,,,,,,,,,,,,,0,5,5,48,1,,,,,,,,,,,,,,,,,,,,,,,,,,,,
,,,,,WIN24_048,19,female,2024-02-09_12h26.29.146,jersey_experiment_5,2023.2.2,Win32,84.74576271,,,,,,,,,,,,,,,,597.1103,598.4043,598.4043,599.9338,return,0.1961,,23.56770833,,,,,,FBP-RB-19.png,0.35,1.2,26,0.5,,,,,,,,,,,,,0,6,6,25,1,,,,,,,,,,,,,,,,,,,,,,,,,,,,
,,,,,WIN24_048,19,female,2024-02-09_12h26.29.146,jersey_experiment_5,2023.2.2,Win32,84.74576271,,,,,,,,,,,,,,,,599.934,601.228,601.228,603.0869,return,0.1712,,83.07291667,,,,,,FBP-RB-19.png,0.45,1.2,30,0.5,,,,,,,,,,,,,0,7,7,29,1,,,,,,,,,,,,,,,,,,,,,,,,,,,,
,,,,,WIN24_048,19,female,2024-02-09_12h26.29.146,jersey_experiment_5,2023.2.2,Win32,84.74576271,,,,,,,,,,,,,,,,603.087,604.381,604.381,605.687,return,0.2352,,49.34895833,,,,,,FBP-YG-91.png,0.37,1.2,42,0.5,,,,,,,,,,,,,0,8,8,41,1,,,,,,,,,,,,,,,,,,,,,,,,,,,,
,,,,,WIN24_048,19,female,2024-02-09_12h26.29.146,jersey_experiment_5,2023.2.2,Win32,84.74576271,,,,,,,,,,,,,,,,605.6872,606.9811,606.9812,608.1459,return,0.1919,,77.60416667,,,,,,FBP-RB-17.png,0.4,1.2,18,0.5,,,,,,,,,,,,,0,9,9,17,1,,,,,,,,,,,,,,,,,,,,,,,,,,,,
,,,,,WIN24_048,19,female,2024-02-09_12h26.29.146,jersey_experiment_5,2023.2.2,Win32,84.74576271,,,,,,,,,,,,,,,,608.146,609.44,609.44,610.4872,return,0.1883,,50.65104167,,,,,,FBP-YG-91.png,0.35,1.2,41,0.5,,,,,,,,,,,,,0,10,10,40,1,,,,,,,,,,,,,,,,,,,,,,,,,,,,
,,,,,WIN24_048,19,female,2024-02-09_12h26.29.146,jersey_experiment_5,2023.2.2,Win32,84.74576271,,,,,,,,,,,,,,,,610.4874,611.7814,611.7814,613.5813,return,0.1118,,78.125,,,,,,FBP-YG-71.png,0.4,1.2,33,0.5,,,,,,,,,,,,,0,11,11,32,1,,,,,,,,,,,,,,,,,,,,,,,,,,,,
,,,,,WIN24_048,19,female,2024-02-09_12h26.29.146,jersey_experiment_5,2023.2.2,Win32,84.74576271,,,,,,,,,,,,,,,,613.5815,615.3816,615.3816,616.0168,return,0.1108,,98.56770833,,,,,,FBP-OG-81.png,0.45,1.2,10,1,,,,,,,,,,,,,0,12,12,9,1,,,,,,,,,,,,,,,,,,,,,,,,,,,,
,,,,,WIN24_048,19,female,2024-02-09_12h26.29.146,jersey_experiment_5,2023.2.2,Win32,84.74576271,,,,,,,,,,,,,,,,616.0171,617.311,617.311,619.264,return,0.3703,,50.26041667,,,,,,FBP-YG-81.png,0.37,1.2,37,0.5,,,,,,,,,,,,,0,13,13,36,1,,,,,,,,,,,,,,,,,,,,,,,,,,,,
,,,,,WIN24_048,19,female,2024-02-09_12h26.29.146,jersey_experiment_5,2023.2.2,Win32,84.74576271,,,,,,,,,,,,,,,,619.2641,620.5581,620.5581,621.617,return,0.2045,,74.08854167,,,,,,FBP-YG-71.png,0.43,1.2,34,0.5,,,,,,,,,,,,,0,14,14,33,1,,,,,,,,,,,,,,,,,,,,,,,,,,,,
,,,,,WIN24_048,19,female,2024-02-09_12h26.29.146,jersey_experiment_5,2023.2.2,Win32,84.74576271,,,,,,,,,,,,,,,,621.6172,622.911,622.911,623.7583,return,0.0755,,99.21875,,,,,,FBP-RB-17.png,0.45,1.2,20,0.5,,,,,,,,,,,,,0,15,15,19,1,,,,,,,,,,,,,,,,,,,,,,,,,,,,
,,,,,WIN24_048,19,female,2024-02-09_12h26.29.146,jersey_experiment_5,2023.2.2,Win32,84.74576271,,,,,,,,,,,,,,,,623.7585,625.5583,625.5584,626.4994,return,0.0351,,98.30729167,,,,,,FBP-OG-71.png,0.45,1.2,5,1,,,,,,,,,,,,,0,16,16,4,1,,,,,,,,,,,,,,,,,,,,,,,,,,,,
,,,,,WIN24_048,19,female,2024-02-09_12h26.29.146,jersey_experiment_5,2023.2.2,Win32,84.74576271,,,,,,,,,,,,,,,,626.4997,627.7936,627.7936,628.8525,return,0.0103,,51.171875,,,,,,FBP-RB-18.png,0.37,1.2,22,0.5,,,,,,,,,,,,,0,17,17,21,1,,,,,,,,,,,,,,,,,,,,,,,,,,,,
,,,,,WIN24_048,19,female,2024-02-09_12h26.29.146,jersey_experiment_5,2023.2.2,Win32,84.74576271,,,,,,,,,,,,,,,,628.8527,630.1467,630.1468,631.229,return,0.1119,,74.86979167,,,,,,FBP-RB-18.png,0.43,1.2,24,0.5,,,,,,,,,,,,,0,18,18,23,1,,,,,,,,,,,,,,,,,,,,,,,,,,,,
,,,,,WIN24_048,19,female,2024-02-09_12h26.29.146,jersey_experiment_5,2023.2.2,Win32,84.74576271,,,,,,,,,,,,,,,,631.2292,632.5232,632.5232,633.088,return,0.1233,,74.86979167,,,,,,FBP-YG-81.png,0.4,1.2,38,0.5,,,,,,,,,,,,,0,19,19,37,1,,,,,,,,,,,,,,,,,,,,,,,,,,,,
,,,,,WIN24_048,19,female,2024-02-09_12h26.29.146,jersey_experiment_5,2023.2.2,Win32,84.74576271,,,,,,,,,,,,,,,,633.0882,634.3822,634.3822,635.1115,return,0.0238,,97.65625,,,,,,FBP-RB-17.png,0.43,1.2,19,0.5,,,,,,,,,,,,,0,20,20,18,1,,,,,,,,,,,,,,,,,,,,,,,,,,,,
,,,,,WIN24_048,19,female,2024-02-09_12h26.29.146,jersey_experiment_5,2023.2.2,Win32,84.74576271,,,,,,,,,,,,,,,,635.1118,636.4056,636.4057,637.1586,return,0.0475,,74.73958333,,,,,,FBP-YG-91.png,0.4,1.2,43,0.5,,,,,,,,,,,,,0,21,21,42,1,,,,,,,,,,,,,,,,,,,,,,,,,,,,
,,,,,WIN24_048,19,female,2024-02-09_12h26.29.146,jersey_experiment_5,2023.2.2,Win32,84.74576271,,,,,,,,,,,,,,,,637.1589,638.9589,638.959,639.4058,return,0.0665,,74.73958333,,,,,,FBP-PT-18.png,0.4,1.2,53,1,,,,,,,,,,,,,0,22,22,52,1,,,,,,,,,,,,,,,,,,,,,,,,,,,,
,,,,,WIN24_048,19,female,2024-02-09_12h26.29.146,jersey_experiment_5,2023.2.2,Win32,84.74576271,,,,,,,,,,,,,,,,639.4061,640.7001,640.7001,641.8883,return,0.0521,,97.78645833,,,,,,FBP-YG-81.png,0.43,1.2,39,0.5,,,,,,,,,,,,,0,23,23,38,1,,,,,,,,,,,,,,,,,,,,,,,,,,,,
,,,,,WIN24_048,19,female,2024-02-09_12h26.29.146,jersey_experiment_5,2023.2.2,Win32,84.74576271,,,,,,,,,,,,,,,,641.8885,643.1824,643.1825,643.959,return,0.0474,,98.30729167,,,,,,FBP-YG-91.png,0.43,1.2,44,0.5,,,,,,,,,,,,,0,24,24,43,1,,,,,,,,,,,,,,,,,,,,,,,,,,,,
,,,,,WIN24_048,19,female,2024-02-09_12h26.29.146,jersey_experiment_5,2023.2.2,Win32,84.74576271,,,,,,,,,,,,,,,,643.9592,645.7589,645.759,646.2534,return,0.0672,,98.30729167,,,,,,FBP-OG-81.png,0.43,1.2,9,1,,,,,,,,,,,,,0,25,25,8,1,,,,,,,,,,,,,,,,,,,,,,,,,,,,
,,,,,WIN24_048,19,female,2024-02-09_12h26.29.146,jersey_experiment_5,2023.2.2,Win32,84.74576271,,,,,,,,,,,,,,,,646.2535,648.0533,648.0533,648.9003,return,0.0583,,48.56770833,,,,,,FBP-OG-91.png,0.37,1.2,12,1,,,,,,,,,,,,,0,26,26,11,1,,,,,,,,,,,,,,,,,,,,,,,,,,,,
,,,,,WIN24_048,19,female,2024-02-09_12h26.29.146,jersey_experiment_5,2023.2.2,Win32,84.74576271,,,,,,,,,,,,,,,,648.9005,650.7003,650.7004,651.3357,return,0.1553,,49.08854167,,,,,,FBP-OG-91.png,0.4,1.2,13,1,,,,,,,,,,,,,0,27,27,12,1,,,,,,,,,,,,,,,,,,,,,,,,,,,,
,,,,,WIN24_048,19,female,2024-02-09_12h26.29.146,jersey_experiment_5,2023.2.2,Win32,84.74576271,,,,,,,,,,,,,,,,651.336,653.1358,653.1358,653.8535,return,0.0902,,23.828125,,,,,,FBP-OG-81.png,0.35,1.2,6,1,,,,,,,,,,,,,0,28,28,5,1,,,,,,,,,,,,,,,,,,,,,,,,,,,,
,,,,,WIN24_048,19,female,2024-02-09_12h26.29.146,jersey_experiment_5,2023.2.2,Win32,84.74576271,,,,,,,,,,,,,,,,653.8537,655.6534,655.6534,656.3241,return,0.1318,,25.52083333,,,,,,FBP-OG-71.png,0.37,1.2,2,1,,,,,,,,,,,,,0,29,29,1,1,,,,,,,,,,,,,,,,,,,,,,,,,,,,
,,,,,WIN24_048,19,female,2024-02-09_12h26.29.146,jersey_experiment_5,2023.2.2,Win32,84.74576271,,,,,,,,,,,,,,,,656.3243,658.1242,658.1242,658.9948,return,0.1063,,73.4375,,,,,,FBP-PT-19.png,0.43,1.2,59,1,,,,,,,,,,,,,0,30,30,58,1,,,,,,,,,,,,,,,,,,,,,,,,,,,,
,,,,,WIN24_048,19,female,2024-02-09_12h26.29.146,jersey_experiment_5,2023.2.2,Win32,84.74576271,,,,,,,,,,,,,,,,658.995,660.7948,660.7949,661.4065,return,0.1456,,74.21875,,,,,,FBP-PT-18.png,0.43,1.2,54,1,,,,,,,,,,,,,0,31,31,53,1,,,,,,,,,,,,,,,,,,,,,,,,,,,,
,,,,,WIN24_048,19,female,2024-02-09_12h26.29.146,jersey_experiment_5,2023.2.2,Win32,84.74576271,,,,,,,,,,,,,,,,661.4068,663.2067,663.2067,664.148,return,0.1194,,3.385416667,,,,,,FBP-OG-71.png,0.35,1.2,1,1,,,,,,,,,,,,,0,32,32,0,1,,,,,,,,,,,,,,,,,,,,,,,,,,,,
,,,,,WIN24_048,19,female,2024-02-09_12h26.29.146,jersey_experiment_5,2023.2.2,Win32,84.74576271,,,,,,,,,,,,,,,,664.148,665.4421,665.4422,668.548,return,0.0579,,76.171875,,,,,,FBP-YG-81.png,0.45,1.2,40,0.5,,,,,,,,,,,,,0,33,33,39,1,,,,,,,,,,,,,,,,,,,,,,,,,,,,
,,,,,WIN24_048,19,female,2024-02-09_12h26.29.146,jersey_experiment_5,2023.2.2,Win32,84.74576271,,,,,,,,,,,,,,,,668.5483,669.8422,669.8422,670.8188,return,0.0619,,26.171875,,,,,,FBP-YG-71.png,0.37,1.2,32,0.5,,,,,,,,,,,,,0,34,34,31,1,,,,,,,,,,,,,,,,,,,,,,,,,,,,
,,,,,WIN24_048,19,female,2024-02-09_12h26.29.146,jersey_experiment_5,2023.2.2,Win32,84.74576271,,,,,,,,,,,,,,,,670.819,672.113,672.113,673.2659,return,0.0622,,78.90625,,,,,,FBP-RB-19.png,0.43,1.2,29,0.5,,,,,,,,,,,,,0,35,35,28,1,,,,,,,,,,,,,,,,,,,,,,,,,,,,
,,,,,WIN24_048,19,female,2024-02-09_12h26.29.146,jersey_experiment_5,2023.2.2,Win32,84.74576271,,,,,,,,,,,,,,,,673.2662,675.066,675.066,676.0191,return,0.0617,,22.39583333,,,,,,FBP-PT-17.png,0.35,1.2,46,1,,,,,,,,,,,,,0,36,36,45,1,,,,,,,,,,,,,,,,,,,,,,,,,,,,
,,,,,WIN24_048,19,female,2024-02-09_12h26.29.146,jersey_experiment_5,2023.2.2,Win32,84.74576271,,,,,,,,,,,,,,,,676.0193,677.819,677.819,679.0074,return,0.0415,,78.515625,,,,,,FBP-OG-71.png,0.43,1.2,4,1,,,,,,,,,,,,,0,37,37,3,1,,,,,,,,,,,,,,,,,,,,,,,,,,,,
,,,,,WIN24_048,19,female,2024-02-09_12h26.29.146,jersey_experiment_5,2023.2.2,Win32,84.74576271,,,,,,,,,,,,,,,,679.0076,680.8075,680.8075,682.0544,return,0.0326,,48.95833333,,,,,,FBP-PT-17.png,0.37,1.2,47,1,,,,,,,,,,,,,0,38,38,46,1,,,,,,,,,,,,,,,,,,,,,,,,,,,,
,,,,,WIN24_048,19,female,2024-02-09_12h26.29.146,jersey_experiment_5,2023.2.2,Win32,84.74576271,,,,,,,,,,,,,,,,682.0547,683.8545,683.8546,684.4193,return,0.1318,,49.86979167,,,,,,FBP-OG-81.png,0.37,1.2,7,1,,,,,,,,,,,,,0,39,39,6,1,,,,,,,,,,,,,,,,,,,,,,,,,,,,
,,,,,WIN24_048,19,female,2024-02-09_12h26.29.146,jersey_experiment_5,2023.2.2,Win32,84.74576271,,,,,,,,,,,,,,,,684.4194,686.2193,686.2193,686.9959,return,0.0722,,23.30729167,,,,,,FBP-OG-91.png,0.35,1.2,11,1,,,,,,,,,,,,,0,40,40,10,1,,,,,,,,,,,,,,,,,,,,,,,,,,,,
,,,,,WIN24_048,19,female,2024-02-09_12h26.29.146,jersey_experiment_5,2023.2.2,Win32,84.74576271,,,,,,,,,,,,,,,,686.9961,688.7959,688.7959,689.3017,return,0.08,,23.4375,,,,,,FBP-PT-18.png,0.35,1.2,51,1,,,,,,,,,,,,,0,41,41,50,1,,,,,,,,,,,,,,,,,,,,,,,,,,,,
,,,,,WIN24_048,19,female,2024-02-09_12h26.29.146,jersey_experiment_5,2023.2.2,Win32,84.74576271,,,,,,,,,,,,,,,,689.3019,690.5959,690.5959,691.1491,return,0.1004,,23.4375,,,,,,FBP-RB-19.png,0.37,1.2,27,0.5,,,,,,,,,,,,,0,42,42,26,1,,,,,,,,,,,,,,,,,,,,,,,,,,,,
,,,,,WIN24_048,19,female,2024-02-09_12h26.29.146,jersey_experiment_5,2023.2.2,Win32,84.74576271,,,,,,,,,,,,,,,,691.1492,692.9489,692.9489,693.5256,return,0.1882,,23.4375,,,,,,FBP-PT-19.png,0.35,1.2,56,1,,,,,,,,,,,,,0,43,43,55,1,,,,,,,,,,,,,,,,,,,,,,,,,,,,
,,,,,WIN24_048,19,female,2024-02-09_12h26.29.146,jersey_experiment_5,2023.2.2,Win32,84.74576271,,,,,,,,,,,,,,,,693.5257,695.3255,695.3255,697.4785,return,0.7908,,98.828125,,,,,,FBP-PT-17.png,0.45,1.2,50,1,,,,,,,,,,,,,0,44,44,49,1,,,,,,,,,,,,,,,,,,,,,,,,,,,,
,,,,,WIN24_048,19,female,2024-02-09_12h26.29.146,jersey_experiment_5,2023.2.2,Win32,84.74576271,,,,,,,,,,,,,,,,697.4788,699.2786,699.2786,699.9256,return,0.1418,,98.69791667,,,,,,FBP-OG-91.png,0.43,1.2,14,1,,,,,,,,,,,,,0,45,45,13,1,,,,,,,,,,,,,,,,,,,,,,,,,,,,
,,,,,WIN24_048,19,female,2024-02-09_12h26.29.146,jersey_experiment_5,2023.2.2,Win32,84.74576271,,,,,,,,,,,,,,,,699.9259,701.7257,701.7257,702.1963,return,0.0569,,99.08854167,,,,,,FBP-PT-19.png,0.45,1.2,60,1,,,,,,,,,,,,,0,46,46,59,1,,,,,,,,,,,,,,,,,,,,,,,,,,,,
,,,,,WIN24_048,19,female,2024-02-09_12h26.29.146,jersey_experiment_5,2023.2.2,Win32,84.74576271,,,,,,,,,,,,,,,,702.1966,703.4904,703.4904,704.5259,return,0.0169,,88.54166667,,,,,,FBP-RB-19.png,0.4,1.2,28,0.5,,,,,,,,,,,,,0,47,47,27,1,,,,,,,,,,,,,,,,,,,,,,,,,,,,
,,,,,WIN24_048,19,female,2024-02-09_12h26.29.146,jersey_experiment_5,2023.2.2,Win32,84.74576271,,,,,,,,,,,,,,,,704.5261,706.326,706.326,706.879,return,0.0397,,98.56770833,,,,,,FBP-OG-91.png,0.45,1.2,15,1,,,,,,,,,,,,,0,48,48,14,1,,,,,,,,,,,,,,,,,,,,,,,,,,,,
,,,,,WIN24_048,19,female,2024-02-09_12h26.29.146,jersey_experiment_5,2023.2.2,Win32,84.74576271,,,,,,,,,,,,,,,,706.8791,708.173,708.173,709.4086,return,0.0501,,22.91666667,,,,,,FBP-YG-71.png,0.35,1.2,31,0.5,,,,,,,,,,,,,0,49,49,30,1,,,,,,,,,,,,,,,,,,,,,,,,,,,,
,,,,,WIN24_048,19,female,2024-02-09_12h26.29.146,jersey_experiment_5,2023.2.2,Win32,84.74576271,,,,,,,,,,,,,,,,709.4088,711.2083,711.2083,711.7966,return,0.024,,98.56770833,,,,,,FBP-PT-18.png,0.45,1.2,55,1,,,,,,,,,,,,,0,50,50,54,1,,,,,,,,,,,,,,,,,,,,,,,,,,,,
,,,,,WIN24_048,19,female,2024-02-09_12h26.29.146,jersey_experiment_5,2023.2.2,Win32,84.74576271,,,,,,,,,,,,,,,,711.7968,713.5969,713.5969,714.0556,return,0.0566,,74.47916667,,,,,,FBP-OG-81.png,0.4,1.2,8,1,,,,,,,,,,,,,0,51,51,7,1,,,,,,,,,,,,,,,,,,,,,,,,,,,,
,,,,,WIN24_048,19,female,2024-02-09_12h26.29.146,jersey_experiment_5,2023.2.2,Win32,84.74576271,,,,,,,,,,,,,,,,714.0559,715.8557,715.8557,716.3498,return,0.1229,,74.47916667,,,,,,FBP-PT-17.png,0.4,1.2,48,1,,,,,,,,,,,,,0,52,52,47,1,,,,,,,,,,,,,,,,,,,,,,,,,,,,
,,,,,WIN24_048,19,female,2024-02-09_12h26.29.146,jersey_experiment_5,2023.2.2,Win32,84.74576271,,,,,,,,,,,,,,,,716.3499,717.644,717.644,718.2558,return,0.1445,,74.47916667,,,,,,FBP-RB-18.png,0.4,1.2,23,0.5,,,,,,,,,,,,,0,53,53,22,1,,,,,,,,,,,,,,,,,,,,,,,,,,,,
,,,,,WIN24_048,19,female,2024-02-09_12h26.29.146,jersey_experiment_5,2023.2.2,Win32,84.74576271,,,,,,,,,,,,,,,,718.2561,719.5499,719.5499,720.9971,return,0.0332,,25.390625,,,,,,FBP-RB-18.png,0.35,1.2,21,0.5,,,,,,,,,,,,,0,54,54,20,1,,,,,,,,,,,,,,,,,,,,,,,,,,,,
,,,,,WIN24_048,19,female,2024-02-09_12h26.29.146,jersey_experiment_5,2023.2.2,Win32,84.74576271,,,,,,,,,,,,,,,,720.9973,722.7971,722.7971,724.5266,return,0.0633,,74.34895833,,,,,,FBP-PT-19.png,0.4,1.2,58,1,,,,,,,,,,,,,0,55,55,57,1,,,,,,,,,,,,,,,,,,,,,,,,,,,,
,,,,,WIN24_048,19,female,2024-02-09_12h26.29.146,jersey_experiment_5,2023.2.2,Win32,84.74576271,,,,,,,,,,,,,,,,724.5267,725.8207,725.8207,727.2796,return,0.4293,,97.00520833,,,,,,FBP-RB-18.png,0.45,1.2,25,0.5,,,,,,,,,,,,,0,56,56,24,1,,,,,,,,,,,,,,,,,,,,,,,,,,,,
,,,,,WIN24_048,19,female,2024-02-09_12h26.29.146,jersey_experiment_5,2023.2.2,Win32,84.74576271,,,,,,,,,,,,,,,,727.2798,729.0798,729.0798,730.0797,return,0.0292,,76.43229167,,,,,,FBP-OG-71.png,0.4,1.2,3,1,,,,,,,,,,,,,0,57,57,2,1,,,,,,,,,,,,,,,,,,,,,,,,,,,,
,,,,,WIN24_048,19,female,2024-02-09_12h26.29.146,jersey_experiment_5,2023.2.2,Win32,84.74576271,,,,,,,,,,,,,,,,730.08,731.88,731.88,732.4681,return,0.0142,,48.95833333,,,,,,FBP-PT-18.png,0.37,1.2,52,1,,,,,,,,,,,,,0,58,58,51,1,,,,,,,,,,,,,,,,,,,,,,,,,,,,
,,,,,WIN24_048,19,female,2024-02-09_12h26.29.146,jersey_experiment_5,2023.2.2,Win32,84.74576271,,,,,,,,,,,,,,,,732.4682,733.7622,733.7623,734.974,return,0.0868,,80.33854167,,,,,,FBP-YG-91.png,0.45,1.2,45,0.5,,,,,,,,,,,,,0,59,59,44,1,,,,,,,,,,,,,,,,,,,,,,,,,,,,
,,,,,WIN24_048,19,female,2024-02-09_12h26.29.146,jersey_experiment_5,2023.2.2,Win32,84.74576271,,,,,,,,,,,,,,,,734.9758,736.2682,736.2682,737.2329,return,0.0045,,28.515625,,,,,,FBP-YG-17.png,0.35,1.2,31,0.5,,,,,,,,,,,,,,,,,,0,0,0,30,1,,,,,,,,,,,,,,,,,,,,,,,
,,,,,WIN24_048,19,female,2024-02-09_12h26.29.146,jersey_experiment_5,2023.2.2,Win32,84.74576271,,,,,,,,,,,,,,,,737.2333,739.0331,739.0331,740.0683,return,0.0711,,97.91666667,,,,,,FBP-OG-17.png,0.45,1.2,5,1,,,,,,,,,,,,,,,,,,0,1,1,4,1,,,,,,,,,,,,,,,,,,,,,,,
,,,,,WIN24_048,19,female,2024-02-09_12h26.29.146,jersey_experiment_5,2023.2.2,Win32,84.74576271,,,,,,,,,,,,,,,,740.0686,741.3625,741.3625,741.8919,return,0.1046,,97.13541667,,,,,,FBP-YG-17.png,0.45,1.2,35,0.5,,,,,,,,,,,,,,,,,,0,2,2,34,1,,,,,,,,,,,,,,,,,,,,,,,
,,,,,WIN24_048,19,female,2024-02-09_12h26.29.146,jersey_experiment_5,2023.2.2,Win32,84.74576271,,,,,,,,,,,,,,,,741.8921,743.1861,743.1861,743.6921,return,0.0684,,97.13541667,,,,,,FBP-YG-18.png,0.45,1.2,40,0.5,,,,,,,,,,,,,,,,,,0,3,3,39,1,,,,,,,,,,,,,,,,,,,,,,,
,,,,,WIN24_048,19,female,2024-02-09_12h26.29.146,jersey_experiment_5,2023.2.2,Win32,84.74576271,,,,,,,,,,,,,,,,743.6923,745.492,745.492,747.1863,return,0.0121,,6.510416667,,,,,,FBP-OG-19.png,0.35,1.2,11,1,,,,,,,,,,,,,,,,,,0,4,4,10,1,,,,,,,,,,,,,,,,,,,,,,,
,,,,,WIN24_048,19,female,2024-02-09_12h26.29.146,jersey_experiment_5,2023.2.2,Win32,84.74576271,,,,,,,,,,,,,,,,747.1866,748.9865,748.9865,750.304,return,0.0497,,6.770833333,,,,,,FBP-OG-17.png,0.37,1.2,2,1,,,,,,,,,,,,,,,,,,0,5,5,1,1,,,,,,,,,,,,,,,,,,,,,,,
,,,,,WIN24_048,19,female,2024-02-09_12h26.29.146,jersey_experiment_5,2023.2.2,Win32,84.74576271,,,,,,,,,,,,,,,,750.3042,751.5983,751.5983,752.8217,return,0.0942,,75.78125,,,,,,FBP-YG-19.png,0.4,1.2,43,0.5,,,,,,,,,,,,,,,,,,0,6,6,42,1,,,,,,,,,,,,,,,,,,,,,,,
,,,,,WIN24_048,19,female,2024-02-09_12h26.29.146,jersey_experiment_5,2023.2.2,Win32,84.74576271,,,,,,,,,,,,,,,,752.8219,754.1158,754.1159,755.1042,return,0.017,,48.30729167,,,,,,FBP-YG-18.png,0.35,1.2,36,0.5,,,,,,,,,,,,,,,,,,0,7,7,35,1,,,,,,,,,,,,,,,,,,,,,,,
,,,,,WIN24_048,19,female,2024-02-09_12h26.29.146,jersey_experiment_5,2023.2.2,Win32,84.74576271,,,,,,,,,,,,,,,,755.1044,756.3984,756.3984,757.6337,return,0.3803,,54.94791667,,,,,,FBP-YG-19.png,0.37,1.2,42,0.5,,,,,,,,,,,,,,,,,,0,8,8,41,1,,,,,,,,,,,,,,,,,,,,,,,
,,,,,WIN24_048,19,female,2024-02-09_12h26.29.146,jersey_experiment_5,2023.2.2,Win32,84.74576271,,,,,,,,,,,,,,,,757.6338,759.4337,759.4337,759.869,return,0.0647,,51.953125,,,,,,FBP-PT-81.png,0.35,1.2,51,1,,,,,,,,,,,,,,,,,,0,9,9,50,1,,,,,,,,,,,,,,,,,,,,,,,
,,,,,WIN24_048,19,female,2024-02-09_12h26.29.146,jersey_experiment_5,2023.2.2,Win32,84.74576271,,,,,,,,,,,,,,,,759.8691,761.1631,761.1631,761.975,return,0.0147,,75.26041667,,,,,,FBP-RB-71.png,0.4,1.2,18,0.5,,,,,,,,,,,,,,,,,,0,10,10,17,1,,,,,,,,,,,,,,,,,,,,,,,
,,,,,WIN24_048,19,female,2024-02-09_12h26.29.146,jersey_experiment_5,2023.2.2,Win32,84.74576271,,,,,,,,,,,,,,,,761.9752,763.7751,763.7752,764.7161,return,0.0796,,98.046875,,,,,,FBP-PT-81.png,0.45,1.2,55,1,,,,,,,,,,,,,,,,,,0,11,11,54,1,,,,,,,,,,,,,,,,,,,,,,,
,,,,,WIN24_048,19,female,2024-02-09_12h26.29.146,jersey_experiment_5,2023.2.2,Win32,84.74576271,,,,,,,,,,,,,,,,764.7162,766.5165,766.5165,767.6694,return,0.0378,,27.734375,,,,,,FBP-OG-17.png,0.35,1.2,1,1,,,,,,,,,,,,,,,,,,0,12,12,0,1,,,,,,,,,,,,,,,,,,,,,,,
,,,,,WIN24_048,19,female,2024-02-09_12h26.29.146,jersey_experiment_5,2023.2.2,Win32,84.74576271,,,,,,,,,,,,,,,,767.6696,769.4694,769.4694,769.952,return,0.0741,,25.78125,,,,,,FBP-OG-18.png,0.35,1.2,6,1,,,,,,,,,,,,,,,,,,0,13,13,5,1,,,,,,,,,,,,,,,,,,,,,,,
,,,,,WIN24_048,19,female,2024-02-09_12h26.29.146,jersey_experiment_5,2023.2.2,Win32,84.74576271,,,,,,,,,,,,,,,,769.9523,771.7519,771.7519,772.387,return,0.0256,,76.04166667,,,,,,FBP-OG-18.png,0.45,1.2,10,1,,,,,,,,,,,,,,,,,,0,14,14,9,1,,,,,,,,,,,,,,,,,,,,,,,
,,,,,WIN24_048,19,female,2024-02-09_12h26.29.146,jersey_experiment_5,2023.2.2,Win32,84.74576271,,,,,,,,,,,,,,,,772.3871,774.1873,774.1873,775.0225,return,0.1008,,51.171875,,,,,,FBP-OG-19.png,0.4,1.2,13,1,,,,,,,,,,,,,,,,,,0,15,15,12,1,,,,,,,,,,,,,,,,,,,,,,,
,,,,,WIN24_048,19,female,2024-02-09_12h26.29.146,jersey_experiment_5,2023.2.2,Win32,84.74576271,,,,,,,,,,,,,,,,775.0227,776.3166,776.3166,777.0226,return,0.0389,,51.30208333,,,,,,FBP-YG-17.png,0.37,1.2,32,0.5,,,,,,,,,,,,,,,,,,0,16,16,31,1,,,,,,,,,,,,,,,,,,,,,,,
,,,,,WIN24_048,19,female,2024-02-09_12h26.29.146,jersey_experiment_5,2023.2.2,Win32,84.74576271,,,,,,,,,,,,,,,,777.0228,778.3167,778.3167,779.7639,return,0.7199,,74.34895833,,,,,,FBP-YG-17.png,0.4,1.2,33,0.5,,,,,,,,,,,,,,,,,,0,17,17,32,1,,,,,,,,,,,,,,,,,,,,,,,
,,,,,WIN24_048,19,female,2024-02-09_12h26.29.146,jersey_experiment_5,2023.2.2,Win32,84.74576271,,,,,,,,,,,,,,,,779.7642,781.5639,781.564,782.1992,return,0.0003,,98.56770833,,,,,,FBP-PT-91.png,0.45,1.2,60,1,,,,,,,,,,,,,,,,,,0,18,18,59,1,,,,,,,,,,,,,,,,,,,,,,,
,,,,,WIN24_048,19,female,2024-02-09_12h26.29.146,jersey_experiment_5,2023.2.2,Win32,84.74576271,,,,,,,,,,,,,,,,782.1994,783.4935,783.4935,784.4347,return,0.0263,,49.34895833,,,,,,FBP-YG-19.png,0.35,1.2,41,0.5,,,,,,,,,,,,,,,,,,0,19,19,40,1,,,,,,,,,,,,,,,,,,,,,,,
,,,,,WIN24_048,19,female,2024-02-09_12h26.29.146,jersey_experiment_5,2023.2.2,Win32,84.74576271,,,,,,,,,,,,,,,,784.4348,786.2347,786.2348,786.823,return,0.1559,,49.34895833,,,,,,FBP-OG-19.png,0.37,1.2,12,1,,,,,,,,,,,,,,,,,,0,20,20,11,1,,,,,,,,,,,,,,,,,,,,,,,
,,,,,WIN24_048,19,female,2024-02-09_12h26.29.146,jersey_experiment_5,2023.2.2,Win32,84.74576271,,,,,,,,,,,,,,,,786.8231,788.623,788.623,789.1525,return,0.0874,,49.34895833,,,,,,FBP-PT-81.png,0.4,1.2,53,1,,,,,,,,,,,,,,,,,,0,21,21,52,1,,,,,,,,,,,,,,,,,,,,,,,
,,,,,WIN24_048,19,female,2024-02-09_12h26.29.146,jersey_experiment_5,2023.2.2,Win32,84.74576271,,,,,,,,,,,,,,,,789.1527,790.4467,790.4467,791.4701,return,0.0404,,49.609375,,,,,,FBP-YG-19.png,0.43,1.2,44,0.5,,,,,,,,,,,,,,,,,,0,22,22,43,1,,,,,,,,,,,,,,,,,,,,,,,
,,,,,WIN24_048,19,female,2024-02-09_12h26.29.146,jersey_experiment_5,2023.2.2,Win32,84.74576271,,,,,,,,,,,,,,,,791.4704,792.7644,792.7644,794.0941,return,0.8051,,28.125,,,,,,FBP-RB-91.png,0.35,1.2,26,0.5,,,,,,,,,,,,,,,,,,0,23,23,25,1,,,,,,,,,,,,,,,,,,,,,,,
,,,,,WIN24_048,19,female,2024-02-09_12h26.29.146,jersey_experiment_5,2023.2.2,Win32,84.74576271,,,,,,,,,,,,,,,,794.0942,795.388,795.388,796.1174,return,0.0144,,48.4375,,,,,,FBP-RB-91.png,0.4,1.2,28,0.5,,,,,,,,,,,,,,,,,,0,24,24,27,1,,,,,,,,,,,,,,,,,,,,,,,
,,,,,WIN24_048,19,female,2024-02-09_12h26.29.146,jersey_experiment_5,2023.2.2,Win32,84.74576271,,,,,,,,,,,,,,,,796.1176,797.4118,797.4118,800.2587,return,0.0859,,72.52604167,,,,,,FBP-RB-81.png,0.37,1.2,22,0.5,,,,,,,,,,,,,,,,,,0,25,25,21,1,,,,,,,,,,,,,,,,,,,,,,,
,,,,,WIN24_048,19,female,2024-02-09_12h26.29.146,jersey_experiment_5,2023.2.2,Win32,84.74576271,,,,,,,,,,,,,,,,800.2589,802.0587,802.0587,803.4588,return,0.0472,,48.95833333,,,,,,FBP-PT-71.png,0.4,1.2,48,1,,,,,,,,,,,,,,,,,,0,26,26,47,1,,,,,,,,,,,,,,,,,,,,,,,
,,,,,WIN24_048,19,female,2024-02-09_12h26.29.146,jersey_experiment_5,2023.2.2,Win32,84.74576271,,,,,,,,,,,,,,,,803.459,805.2589,805.2589,807.106,return,0.1797,,81.77083333,,,,,,FBP-OG-19.png,0.43,1.2,14,1,,,,,,,,,,,,,,,,,,0,27,27,13,1,,,,,,,,,,,,,,,,,,,,,,,
,,,,,WIN24_048,19,female,2024-02-09_12h26.29.146,jersey_experiment_5,2023.2.2,Win32,84.74576271,,,,,,,,,,,,,,,,807.1064,808.4001,808.4001,809.1649,return,0.0412,,96.875,,,,,,FBP-YG-18.png,0.43,1.2,39,0.5,,,,,,,,,,,,,,,,,,0,28,28,38,1,,,,,,,,,,,,,,,,,,,,,,,
,,,,,WIN24_048,19,female,2024-02-09_12h26.29.146,jersey_experiment_5,2023.2.2,Win32,84.74576271,,,,,,,,,,,,,,,,809.165,810.4592,810.4592,811.3295,return,0.0269,,25.390625,,,,,,FBP-RB-81.png,0.35,1.2,21,0.5,,,,,,,,,,,,,,,,,,0,29,29,20,1,,,,,,,,,,,,,,,,,,,,,,,
,,,,,WIN24_048,19,female,2024-02-09_12h26.29.146,jersey_experiment_5,2023.2.2,Win32,84.74576271,,,,,,,,,,,,,,,,811.3297,812.6239,812.6239,813.7886,return,0.1379,,48.69791667,,,,,,FBP-RB-71.png,0.37,1.2,17,0.5,,,,,,,,,,,,,,,,,,0,30,30,16,1,,,,,,,,,,,,,,,,,,,,,,,
,,,,,WIN24_048,19,female,2024-02-09_12h26.29.146,jersey_experiment_5,2023.2.2,Win32,84.74576271,,,,,,,,,,,,,,,,813.7888,815.5886,815.5887,816.4712,return,0.0387,,74.86979167,,,,,,FBP-PT-91.png,0.43,1.2,59,1,,,,,,,,,,,,,,,,,,0,31,31,58,1,,,,,,,,,,,,,,,,,,,,,,,
,,,,,WIN24_048,19,female,2024-02-09_12h26.29.146,jersey_experiment_5,2023.2.2,Win32,84.74576271,,,,,,,,,,,,,,,,816.4713,818.2711,818.2711,819.0712,return,0.3355,,74.86979167,,,,,,FBP-PT-91.png,0.4,1.2,58,1,,,,,,,,,,,,,,,,,,0,32,32,57,1,,,,,,,,,,,,,,,,,,,,,,,
,,,,,WIN24_048,19,female,2024-02-09_12h26.29.146,jersey_experiment_5,2023.2.2,Win32,84.74576271,,,,,,,,,,,,,,,,819.0715,820.3652,820.3652,821.2948,return,0.0653,,98.69791667,,,,,,FBP-YG-19.png,0.45,1.2,45,0.5,,,,,,,,,,,,,,,,,,0,33,33,44,1,,,,,,,,,,,,,,,,,,,,,,,
,,,,,WIN24_048,19,female,2024-02-09_12h26.29.146,jersey_experiment_5,2023.2.2,Win32,84.74576271,,,,,,,,,,,,,,,,821.295,822.589,822.589,823.4242,return,0.0517,,98.17708333,,,,,,FBP-YG-18.png,0.4,1.2,38,0.5,,,,,,,,,,,,,,,,,,0,34,34,37,1,,,,,,,,,,,,,,,,,,,,,,,
,,,,,WIN24_048,19,female,2024-02-09_12h26.29.146,jersey_experiment_5,2023.2.2,Win32,84.74576271,,,,,,,,,,,,,,,,823.4245,825.2245,825.2245,827.7421,return,0.6305,,53.25520833,,,,,,FBP-OG-18.png,0.37,1.2,7,1,,,,,,,,,,,,,,,,,,0,35,35,6,1,,,,,,,,,,,,,,,,,,,,,,,
,,,,,WIN24_048,19,female,2024-02-09_12h26.29.146,jersey_experiment_5,2023.2.2,Win32,84.74576271,,,,,,,,,,,,,,,,827.7423,829.0362,829.0363,829.6362,return,0.0807,,51.69270833,,,,,,FBP-RB-81.png,0.4,1.2,23,0.5,,,,,,,,,,,,,,,,,,0,36,36,22,1,,,,,,,,,,,,,,,,,,,,,,,
,,,,,WIN24_048,19,female,2024-02-09_12h26.29.146,jersey_experiment_5,2023.2.2,Win32,84.74576271,,,,,,,,,,,,,,,,829.6365,831.4364,831.4364,832.1304,return,0.0827,,74.86979167,,,,,,FBP-OG-17.png,0.43,1.2,4,1,,,,,,,,,,,,,,,,,,0,37,37,3,1,,,,,,,,,,,,,,,,,,,,,,,
,,,,,WIN24_048,19,female,2024-02-09_12h26.29.146,jersey_experiment_5,2023.2.2,Win32,84.74576271,,,,,,,,,,,,,,,,832.1305,833.4245,833.4245,833.9069,return,0.0475,,73.56770833,,,,,,FBP-YG-17.png,0.43,1.2,34,0.5,,,,,,,,,,,,,,,,,,0,38,38,33,1,,,,,,,,,,,,,,,,,,,,,,,
,,,,,WIN24_048,19,female,2024-02-09_12h26.29.146,jersey_experiment_5,2023.2.2,Win32,84.74576271,,,,,,,,,,,,,,,,833.9071,835.7072,835.7072,836.5658,return,0.0004,,23.046875,,,,,,FBP-PT-91.png,0.37,1.2,57,1,,,,,,,,,,,,,,,,,,0,39,39,56,1,,,,,,,,,,,,,,,,,,,,,,,
,,,,,WIN24_048,19,female,2024-02-09_12h26.29.146,jersey_experiment_5,2023.2.2,Win32,84.74576271,,,,,,,,,,,,,,,,836.566,837.8603,837.8603,838.8953,return,0.0879,,97.78645833,,,,,,FBP-RB-71.png,0.45,1.2,20,0.5,,,,,,,,,,,,,,,,,,0,40,40,19,1,,,,,,,,,,,,,,,,,,,,,,,
,,,,,WIN24_048,19,female,2024-02-09_12h26.29.146,jersey_experiment_5,2023.2.2,Win32,84.74576271,,,,,,,,,,,,,,,,838.8955,840.6955,840.6955,841.6367,return,0.1183,,98.4375,,,,,,FBP-OG-19.png,0.45,1.2,15,1,,,,,,,,,,,,,,,,,,0,41,41,14,1,,,,,,,,,,,,,,,,,,,,,,,
,,,,,WIN24_048,19,female,2024-02-09_12h26.29.146,jersey_experiment_5,2023.2.2,Win32,84.74576271,,,,,,,,,,,,,,,,841.6369,843.4368,843.4368,844.0601,return,0.1267,,98.4375,,,,,,FBP-OG-18.png,0.43,1.2,9,1,,,,,,,,,,,,,,,,,,0,42,42,8,1,,,,,,,,,,,,,,,,,,,,,,,
,,,,,WIN24_048,19,female,2024-02-09_12h26.29.146,jersey_experiment_5,2023.2.2,Win32,84.74576271,,,,,,,,,,,,,,,,844.0604,845.8604,845.8604,852.9195,return,3.8966,,98.30729167,,,,,,FBP-PT-71.png,0.45,1.2,50,1,,,,,,,,,,,,,,,,,,0,43,43,49,1,,,,,,,,,,,,,,,,,,,,,,,
,,,,,WIN24_048,19,female,2024-02-09_12h26.29.146,jersey_experiment_5,2023.2.2,Win32,84.74576271,,,,,,,,,,,,,,,,852.9239,854.2253,854.2253,856.143,return,0.3238,,3.125,,,,,,FBP-RB-71.png,0.35,1.2,16,0.5,,,,,,,,,,,,,,,,,,0,44,44,15,1,,,,,,,,,,,,,,,,,,,,,,,
,,,,,WIN24_048,19,female,2024-02-09_12h26.29.146,jersey_experiment_5,2023.2.2,Win32,84.74576271,,,,,,,,,,,,,,,,856.1433,857.4374,857.4374,859.1551,return,0.1878,,72.265625,,,,,,FBP-RB-91.png,0.43,1.2,29,0.5,,,,,,,,,,,,,,,,,,0,45,45,28,1,,,,,,,,,,,,,,,,,,,,,,,
,,,,,WIN24_048,19,female,2024-02-09_12h26.29.146,jersey_experiment_5,2023.2.2,Win32,84.74576271,,,,,,,,,,,,,,,,859.1551,860.4492,860.4492,861.6022,return,0.1796,,99.08854167,,,,,,FBP-RB-91.png,0.45,1.2,30,0.5,,,,,,,,,,,,,,,,,,0,46,46,29,1,,,,,,,,,,,,,,,,,,,,,,,
,,,,,WIN24_048,19,female,2024-02-09_12h26.29.146,jersey_experiment_5,2023.2.2,Win32,84.74576271,,,,,,,,,,,,,,,,861.6024,863.4022,863.4022,864.3669,return,0.11,,23.828125,,,,,,FBP-PT-91.png,0.35,1.2,56,1,,,,,,,,,,,,,,,,,,0,47,47,55,1,,,,,,,,,,,,,,,,,,,,,,,
,,,,,WIN24_048,19,female,2024-02-09_12h26.29.146,jersey_experiment_5,2023.2.2,Win32,84.74576271,,,,,,,,,,,,,,,,864.3671,865.661,865.661,866.814,return,0.0542,,73.69791667,,,,,,FBP-RB-71.png,0.43,1.2,19,0.5,,,,,,,,,,,,,,,,,,0,48,48,18,1,,,,,,,,,,,,,,,,,,,,,,,
,,,,,WIN24_048,19,female,2024-02-09_12h26.29.146,jersey_experiment_5,2023.2.2,Win32,84.74576271,,,,,,,,,,,,,,,,866.8142,868.6143,868.6144,869.3435,return,0.1679,,49.86979167,,,,,,FBP-PT-81.png,0.37,1.2,52,1,,,,,,,,,,,,,,,,,,0,49,49,51,1,,,,,,,,,,,,,,,,,,,,,,,
,,,,,WIN24_048,19,female,2024-02-09_12h26.29.146,jersey_experiment_5,2023.2.2,Win32,84.74576271,,,,,,,,,,,,,,,,869.3437,871.1438,871.1438,871.8613,return,0.1557,,75.78125,,,,,,FBP-PT-81.png,0.43,1.2,54,1,,,,,,,,,,,,,,,,,,0,50,50,53,1,,,,,,,,,,,,,,,,,,,,,,,
,,,,,WIN24_048,19,female,2024-02-09_12h26.29.146,jersey_experiment_5,2023.2.2,Win32,84.74576271,,,,,,,,,,,,,,,,871.8615,873.1555,873.1555,873.8144,return,0.1315,,75.26041667,,,,,,FBP-RB-91.png,0.37,1.2,27,0.5,,,,,,,,,,,,,,,,,,0,51,51,26,1,,,,,,,,,,,,,,,,,,,,,,,
,,,,,WIN24_048,19,female,2024-02-09_12h26.29.146,jersey_experiment_5,2023.2.2,Win32,84.74576271,,,,,,,,,,,,,,,,873.8146,875.6144,875.6144,878.0969,return,0.0631,,74.21875,,,,,,FBP-PT-71.png,0.37,1.2,47,1,,,,,,,,,,,,,,,,,,0,52,52,46,1,,,,,,,,,,,,,,,,,,,,,,,
,,,,,WIN24_048,19,female,2024-02-09_12h26.29.146,jersey_experiment_5,2023.2.2,Win32,84.74576271,,,,,,,,,,,,,,,,878.0971,879.897,879.897,881.0616,return,0.0937,,78.77604167,,,,,,FBP-OG-17.png,0.4,1.2,3,1,,,,,,,,,,,,,,,,,,0,53,53,2,1,,,,,,,,,,,,,,,,,,,,,,,
,,,,,WIN24_048,19,female,2024-02-09_12h26.29.146,jersey_experiment_5,2023.2.2,Win32,84.74576271,,,,,,,,,,,,,,,,881.0618,882.3558,882.3558,883.2853,return,0.0472,,98.046875,,,,,,FBP-RB-81.png,0.45,1.2,25,0.5,,,,,,,,,,,,,,,,,,0,54,54,24,1,,,,,,,,,,,,,,,,,,,,,,,
,,,,,WIN24_048,19,female,2024-02-09_12h26.29.146,jersey_experiment_5,2023.2.2,Win32,84.74576271,,,,,,,,,,,,,,,,883.2854,885.0855,885.0856,885.6147,return,0.0769,,98.4375,,,,,,FBP-PT-71.png,0.43,1.2,49,1,,,,,,,,,,,,,,,,,,0,55,55,48,1,,,,,,,,,,,,,,,,,,,,,,,
,,,,,WIN24_048,19,female,2024-02-09_12h26.29.146,jersey_experiment_5,2023.2.2,Win32,84.74576271,,,,,,,,,,,,,,,,885.615,886.9088,886.9088,887.6031,return,0.1316,,98.17708333,,,,,,FBP-RB-81.png,0.43,1.2,24,0.5,,,,,,,,,,,,,,,,,,0,56,56,23,1,,,,,,,,,,,,,,,,,,,,,,,
,,,,,WIN24_048,19,female,2024-02-09_12h26.29.146,jersey_experiment_5,2023.2.2,Win32,84.74576271,,,,,,,,,,,,,,,,887.6034,888.8975,888.8975,890.1325,return,0.2596,,48.30729167,,,,,,FBP-YG-18.png,0.37,1.2,37,0.5,,,,,,,,,,,,,,,,,,0,57,57,36,1,,,,,,,,,,,,,,,,,,,,,,,
,,,,,WIN24_048,19,female,2024-02-09_12h26.29.146,jersey_experiment_5,2023.2.2,Win32,84.74576271,,,,,,,,,,,,,,,,890.1327,891.9325,891.9325,892.815,return,0.2177,,48.56770833,,,,,,FBP-OG-18.png,0.4,1.2,8,1,,,,,,,,,,,,,,,,,,0,58,58,7,1,,,,,,,,,,,,,,,,,,,,,,,
,,,,,WIN24_048,19,female,2024-02-09_12h26.29.146,jersey_experiment_5,2023.2.2,Win32,84.74576271,,,,,,,,,,,,,,,,892.8152,894.6152,894.6153,895.4269,return,0.1202,,25,,,,,,FBP-PT-71.png,0.35,1.2,46,1,,,,,,,,,,,,,,,,,,0,59,59,45,1,,,,,,,,,,,,,,,,,,,,,,,
,,,,,WIN24_048,19,female,2024-02-09_12h26.29.146,jersey_experiment_5,2023.2.2,Win32,84.74576271,,,,,,,,,,,,,,,,,,,,,,,,,,,,,,,,,,,,,,,,,,,,,,,,,,,,,,,,895.4273,903.9804,return,8.5479,,,,,,,,,,,,,,,,,,,
,,,,,WIN24_048,19,female,2024-02-09_12h26.29.146,jersey_experiment_5,2023.2.2,Win32,84.74576271,,,,,,,,,,,,,,,,,,,,,,,,,,,,,,,,,,,,,,,,,,,,,,,,,,,,,,,,,,,,,903.9804,909.9687,1,4.0189,return,1.9568,,,,,,,,,,,,
,,,,,WIN24_048,19,female,2024-02-09_12h26.29.146,jersey_experiment_5,2023.2.2,Win32,84.74576271,,,,,,,,,,,,,,,,,,,,,,,,,,,,,,,,,,,,,,,,,,,,,,,,,,,,,,,,,,,,,,,,,,,,909.9689,978.1999,I think the study is about my perception to body size based on the color of the players.,right,62.402,,,,,,
,,,,,WIN24_048,19,female,2024-02-09_12h26.29.146,jersey_experiment_5,2023.2.2,Win32,84.74576271,,,,,,,,,,,,,,,,,,,,,,,,,,,,,,,,,,,,,,,,,,,,,,,,,,,,,,,,,,,,,,,,,,,,,,,,,,978.2,986.8658,return,8.6554,