requirements.started,requirements.stopped,key_resp_3.keys,key_resp_3.rt,key_resp_3.duration,Subject ID,Age,Gender,date,expName,psychopyVersion,OS,frameRate,instructions1.started,instructions1.stopped,key_resp.keys,key_resp.rt,key_resp.duration,example.started,example.stopped,enter_2.keys,enter_2.rt,enter_2.duration,instructions2.started,instructions2.stopped,enter_3.keys,enter_3.rt,enter_3.duration,image.started,image.stopped,slider_2.started,slider_2.stopped,next.keys,next.rt,next.duration,slider.response,trial_block_1.thisRepN,trial_block_1.thisTrialN,trial_block_1.thisN,trial_block_1.thisIndex,trial_block_1.ran,Path,Width,Height,Index,Duration,trial_block_2.thisRepN,trial_block_2.thisTrialN,trial_block_2.thisN,trial_block_2.thisIndex,trial_block_2.ran,rest_break.started,rest_break.stopped,end_break.started,end_break.stopped,key_resp_5.keys,key_resp_5.rt,key_resp_5.duration,trial_block_3.thisRepN,trial_block_3.thisTrialN,trial_block_3.thisN,trial_block_3.thisIndex,trial_block_3.ran,trial_block_4.thisRepN,trial_block_4.thisTrialN,trial_block_4.thisN,trial_block_4.thisIndex,trial_block_4.ran,questions_intro.started,questions_intro.stopped,enter_12.keys,enter_12.rt,enter_12.duration,question2.started,question2.stopped,question_doingbest.response,question_doingbest.rt,enter_15.keys,enter_15.rt,enter_15.duration,pattern.started,pattern.stopped,pattern_2.text,enter_17.keys,enter_17.rt,enter_17.duration,thankyou.started,thankyou.stopped,enter_14.keys,enter_14.rt,enter_14.duration
0.0001,13.6975,return,13.694,,WIN24_025,19,Female,2024-01-31_15h01.10.972,jersey_experiment_5,2023.2.2,Win32,84.74576271,,,,,,,,,,,,,,,,,,,,,,,,,,,,,,,,,,,,,,,,,,,,,,,,,,,,,,,,,,,,,,,,,,,,,,,,,,,,,,
,,,,,WIN24_025,19,Female,2024-01-31_15h01.10.972,jersey_experiment_5,2023.2.2,Win32,84.74576271,13.6977,40.1409,return,26.4281,,,,,,,,,,,,,,,,,,,,,,,,,,,,,,,,,,,,,,,,,,,,,,,,,,,,,,,,,,,,,,,,,,,,,,,,,,
,,,,,WIN24_025,19,Female,2024-01-31_15h01.10.972,jersey_experiment_5,2023.2.2,Win32,84.74576271,,,,,,40.1411,59.2359,return,19.0541,,,,,,,,,,,,,,,,,,,,,,,,,,,,,,,,,,,,,,,,,,,,,,,,,,,,,,,,,,,,,,,,,,,,,
,,,,,WIN24_025,19,Female,2024-01-31_15h01.10.972,jersey_experiment_5,2023.2.2,Win32,84.74576271,,,,,,,,,,,59.236,86.6519,return,27.3995,,,,,,,,,,,,,,,,,,,,,,,,,,,,,,,,,,,,,,,,,,,,,,,,,,,,,,,,,,,,,,,,
,,,,,WIN24_025,19,Female,2024-01-31_15h01.10.972,jersey_experiment_5,2023.2.2,Win32,84.74576271,,,,,,,,,,,,,,,,86.6585,87.9543,87.9543,124.8262,return,14.6289,,35.41666667,0,0,0,59,1,FBP-PT-19.png,0.45,1.2,60,0.5,,,,,,,,,,,,,,,,,,,,,,,,,,,,,,,,,,,,,,,,,,,,,
,,,,,WIN24_025,19,Female,2024-01-31_15h01.10.972,jersey_experiment_5,2023.2.2,Win32,84.74576271,,,,,,,,,,,,,,,,124.8264,126.1203,126.1203,131.3831,return,0.7537,,75.26041667,0,1,1,12,1,FBP-OG-91.png,0.4,1.2,13,0.5,,,,,,,,,,,,,,,,,,,,,,,,,,,,,,,,,,,,,,,,,,,,,
,,,,,WIN24_025,19,Female,2024-01-31_15h01.10.972,jersey_experiment_5,2023.2.2,Win32,84.74576271,,,,,,,,,,,,,,,,131.3833,132.6853,132.6853,140.3137,return,2.1545,,24.73958333,0,2,2,56,1,FBP-PT-19.png,0.37,1.2,57,0.5,,,,,,,,,,,,,,,,,,,,,,,,,,,,,,,,,,,,,,,,,,,,,
,,,,,WIN24_025,19,Female,2024-01-31_15h01.10.972,jersey_experiment_5,2023.2.2,Win32,84.74576271,,,,,,,,,,,,,,,,140.3139,141.6181,141.6181,147.0067,return,0.6693,,75.13020833,0,3,3,0,1,FBP-OG-71.png,0.35,1.2,1,0.5,,,,,,,,,,,,,,,,,,,,,,,,,,,,,,,,,,,,,,,,,,,,,
,,,,,WIN24_025,19,Female,2024-01-31_15h01.10.972,jersey_experiment_5,2023.2.2,Win32,84.74576271,,,,,,,,,,,,,,,,147.0068,148.8082,148.8083,157.1383,return,2.871,,25,0,4,4,27,1,FBP-RB-19.png,0.4,1.2,28,1,,,,,,,,,,,,,,,,,,,,,,,,,,,,,,,,,,,,,,,,,,,,,
,,,,,WIN24_025,19,Female,2024-01-31_15h01.10.972,jersey_experiment_5,2023.2.2,Win32,84.74576271,,,,,,,,,,,,,,,,157.1384,158.9333,158.9333,162.3724,return,1.1876,,75.13020833,0,5,5,22,1,FBP-RB-18.png,0.4,1.2,23,1,,,,,,,,,,,,,,,,,,,,,,,,,,,,,,,,,,,,,,,,,,,,,
,,,,,WIN24_025,19,Female,2024-01-31_15h01.10.972,jersey_experiment_5,2023.2.2,Win32,84.74576271,,,,,,,,,,,,,,,,162.3726,163.6661,163.6661,166.8159,return,0.4137,,74.86979167,0,6,6,3,1,FBP-OG-71.png,0.43,1.2,4,0.5,,,,,,,,,,,,,,,,,,,,,,,,,,,,,,,,,,,,,,,,,,,,,
,,,,,WIN24_025,19,Female,2024-01-31_15h01.10.972,jersey_experiment_5,2023.2.2,Win32,84.74576271,,,,,,,,,,,,,,,,166.8161,168.1101,168.1101,173.9809,return,2.5919,,75,0,7,7,4,1,FBP-OG-71.png,0.45,1.2,5,0.5,,,,,,,,,,,,,,,,,,,,,,,,,,,,,,,,,,,,,,,,,,,,,
,,,,,WIN24_025,19,Female,2024-01-31_15h01.10.972,jersey_experiment_5,2023.2.2,Win32,84.74576271,,,,,,,,,,,,,,,,173.9811,175.7844,175.7844,177.628,return,0.532,,24.34895833,0,8,8,32,1,FBP-YG-71.png,0.4,1.2,33,1,,,,,,,,,,,,,,,,,,,,,,,,,,,,,,,,,,,,,,,,,,,,,
,,,,,WIN24_025,19,Female,2024-01-31_15h01.10.972,jersey_experiment_5,2023.2.2,Win32,84.74576271,,,,,,,,,,,,,,,,177.6282,178.9222,178.9222,180.9928,return,0.3295,,24.86979167,0,9,9,47,1,FBP-PT-17.png,0.4,1.2,48,0.5,,,,,,,,,,,,,,,,,,,,,,,,,,,,,,,,,,,,,,,,,,,,,
,,,,,WIN24_025,19,Female,2024-01-31_15h01.10.972,jersey_experiment_5,2023.2.2,Win32,84.74576271,,,,,,,,,,,,,,,,180.993,182.786,182.786,186.3227,return,2.2252,,92.70833333,0,10,10,19,1,FBP-RB-17.png,0.45,1.2,20,1,,,,,,,,,,,,,,,,,,,,,,,,,,,,,,,,,,,,,,,,,,,,,
,,,,,WIN24_025,19,Female,2024-01-31_15h01.10.972,jersey_experiment_5,2023.2.2,Win32,84.74576271,,,,,,,,,,,,,,,,186.3228,188.1226,188.1226,190.2688,return,0.1546,,74.86979167,0,11,11,24,1,FBP-RB-18.png,0.45,1.2,25,1,,,,,,,,,,,,,,,,,,,,,,,,,,,,,,,,,,,,,,,,,,,,,
,,,,,WIN24_025,19,Female,2024-01-31_15h01.10.972,jersey_experiment_5,2023.2.2,Win32,84.74576271,,,,,,,,,,,,,,,,190.269,192.0639,192.0639,193.3141,return,0.1648,,24.86979167,0,12,12,26,1,FBP-RB-19.png,0.37,1.2,27,1,,,,,,,,,,,,,,,,,,,,,,,,,,,,,,,,,,,,,,,,,,,,,
,,,,,WIN24_025,19,Female,2024-01-31_15h01.10.972,jersey_experiment_5,2023.2.2,Win32,84.74576271,,,,,,,,,,,,,,,,193.3142,195.111,195.1111,196.74,return,0.4241,,23.69791667,0,13,13,35,1,FBP-YG-81.png,0.35,1.2,36,1,,,,,,,,,,,,,,,,,,,,,,,,,,,,,,,,,,,,,,,,,,,,,
,,,,,WIN24_025,19,Female,2024-01-31_15h01.10.972,jersey_experiment_5,2023.2.2,Win32,84.74576271,,,,,,,,,,,,,,,,196.7401,198.5346,198.5346,200.6563,return,0.2596,,24.86979167,0,14,14,40,1,FBP-YG-91.png,0.35,1.2,41,1,,,,,,,,,,,,,,,,,,,,,,,,,,,,,,,,,,,,,,,,,,,,,
,,,,,WIN24_025,19,Female,2024-01-31_15h01.10.972,jersey_experiment_5,2023.2.2,Win32,84.74576271,,,,,,,,,,,,,,,,200.6565,202.4573,202.4573,204.8338,return,0.7294,,76.04166667,0,15,15,44,1,FBP-YG-91.png,0.45,1.2,45,1,,,,,,,,,,,,,,,,,,,,,,,,,,,,,,,,,,,,,,,,,,,,,
,,,,,WIN24_025,19,Female,2024-01-31_15h01.10.972,jersey_experiment_5,2023.2.2,Win32,84.74576271,,,,,,,,,,,,,,,,204.834,206.6291,206.6291,208.9389,return,0.1758,,49.609375,0,16,16,37,1,FBP-YG-81.png,0.4,1.2,38,1,,,,,,,,,,,,,,,,,,,,,,,,,,,,,,,,,,,,,,,,,,,,,
,,,,,WIN24_025,19,Female,2024-01-31_15h01.10.972,jersey_experiment_5,2023.2.2,Win32,84.74576271,,,,,,,,,,,,,,,,208.9391,210.2326,210.2326,213.2578,return,1.2606,,14.97395833,0,17,17,6,1,FBP-OG-81.png,0.37,1.2,7,0.5,,,,,,,,,,,,,,,,,,,,,,,,,,,,,,,,,,,,,,,,,,,,,
,,,,,WIN24_025,19,Female,2024-01-31_15h01.10.972,jersey_experiment_5,2023.2.2,Win32,84.74576271,,,,,,,,,,,,,,,,213.2579,215.0529,215.053,217.3858,return,0.4474,,70.96354167,0,18,18,39,1,FBP-YG-81.png,0.45,1.2,40,1,,,,,,,,,,,,,,,,,,,,,,,,,,,,,,,,,,,,,,,,,,,,,
,,,,,WIN24_025,19,Female,2024-01-31_15h01.10.972,jersey_experiment_5,2023.2.2,Win32,84.74576271,,,,,,,,,,,,,,,,217.386,218.6882,218.6882,220.0348,return,0.1419,,49.86979167,0,19,19,7,1,FBP-OG-81.png,0.4,1.2,8,0.5,,,,,,,,,,,,,,,,,,,,,,,,,,,,,,,,,,,,,,,,,,,,,
,,,,,WIN24_025,19,Female,2024-01-31_15h01.10.972,jersey_experiment_5,2023.2.2,Win32,84.74576271,,,,,,,,,,,,,,,,220.0351,221.3389,221.3389,222.465,return,0.2827,,49.86979167,0,20,20,45,1,FBP-PT-17.png,0.35,1.2,46,0.5,,,,,,,,,,,,,,,,,,,,,,,,,,,,,,,,,,,,,,,,,,,,,
,,,,,WIN24_025,19,Female,2024-01-31_15h01.10.972,jersey_experiment_5,2023.2.2,Win32,84.74576271,,,,,,,,,,,,,,,,222.4652,224.2567,224.2567,226.2063,return,1.0497,,26.04166667,0,21,21,15,1,FBP-RB-17.png,0.35,1.2,16,1,,,,,,,,,,,,,,,,,,,,,,,,,,,,,,,,,,,,,,,,,,,,,
,,,,,WIN24_025,19,Female,2024-01-31_15h01.10.972,jersey_experiment_5,2023.2.2,Win32,84.74576271,,,,,,,,,,,,,,,,226.2065,227.5005,227.5005,229.2451,return,0.4943,,74.73958333,0,22,22,58,1,FBP-PT-19.png,0.43,1.2,59,0.5,,,,,,,,,,,,,,,,,,,,,,,,,,,,,,,,,,,,,,,,,,,,,
,,,,,WIN24_025,19,Female,2024-01-31_15h01.10.972,jersey_experiment_5,2023.2.2,Win32,84.74576271,,,,,,,,,,,,,,,,229.2452,231.0416,231.0417,235.1008,return,1.8039,,48.95833333,0,23,23,21,1,FBP-RB-18.png,0.37,1.2,22,1,,,,,,,,,,,,,,,,,,,,,,,,,,,,,,,,,,,,,,,,,,,,,
,,,,,WIN24_025,19,Female,2024-01-31_15h01.10.972,jersey_experiment_5,2023.2.2,Win32,84.74576271,,,,,,,,,,,,,,,,235.101,236.3982,236.3982,238.7283,return,0.8946,,76.82291667,0,24,24,14,1,FBP-OG-91.png,0.45,1.2,15,0.5,,,,,,,,,,,,,,,,,,,,,,,,,,,,,,,,,,,,,,,,,,,,,
,,,,,WIN24_025,19,Female,2024-01-31_15h01.10.972,jersey_experiment_5,2023.2.2,Win32,84.74576271,,,,,,,,,,,,,,,,238.7284,240.5244,240.5244,242.9129,return,0.1416,,24.73958333,0,25,25,36,1,FBP-YG-81.png,0.37,1.2,37,1,,,,,,,,,,,,,,,,,,,,,,,,,,,,,,,,,,,,,,,,,,,,,
,,,,,WIN24_025,19,Female,2024-01-31_15h01.10.972,jersey_experiment_5,2023.2.2,Win32,84.74576271,,,,,,,,,,,,,,,,242.9132,244.717,244.717,246.1716,return,0.1562,,35.80729167,0,26,26,17,1,FBP-RB-17.png,0.4,1.2,18,1,,,,,,,,,,,,,,,,,,,,,,,,,,,,,,,,,,,,,,,,,,,,,
,,,,,WIN24_025,19,Female,2024-01-31_15h01.10.972,jersey_experiment_5,2023.2.2,Win32,84.74576271,,,,,,,,,,,,,,,,246.1718,247.9717,247.9717,249.2695,return,0.2591,,25.26041667,0,27,27,20,1,FBP-RB-18.png,0.35,1.2,21,1,,,,,,,,,,,,,,,,,,,,,,,,,,,,,,,,,,,,,,,,,,,,,
,,,,,WIN24_025,19,Female,2024-01-31_15h01.10.972,jersey_experiment_5,2023.2.2,Win32,84.74576271,,,,,,,,,,,,,,,,249.2697,250.5718,250.5718,253.1047,return,1.446,,80.46875,0,28,28,9,1,FBP-OG-81.png,0.45,1.2,10,0.5,,,,,,,,,,,,,,,,,,,,,,,,,,,,,,,,,,,,,,,,,,,,,
,,,,,WIN24_025,19,Female,2024-01-31_15h01.10.972,jersey_experiment_5,2023.2.2,Win32,84.74576271,,,,,,,,,,,,,,,,253.1049,254.9015,254.9016,256.1873,return,0.4707,,99.08854167,0,29,29,29,1,FBP-RB-19.png,0.45,1.2,30,1,,,,,,,,,,,,,,,,,,,,,,,,,,,,,,,,,,,,,,,,,,,,,
,,,,,WIN24_025,19,Female,2024-01-31_15h01.10.972,jersey_experiment_5,2023.2.2,Win32,84.74576271,,,,,,,,,,,,,,,,256.1874,257.4897,257.4897,261.3136,return,1.2605,,63.15104167,0,30,30,52,1,FBP-PT-18.png,0.4,1.2,53,0.5,,,,,,,,,,,,,,,,,,,,,,,,,,,,,,,,,,,,,,,,,,,,,
,,,,,WIN24_025,19,Female,2024-01-31_15h01.10.972,jersey_experiment_5,2023.2.2,Win32,84.74576271,,,,,,,,,,,,,,,,261.3137,263.1135,263.1135,264.6245,return,0.1077,,74.73958333,0,31,31,38,1,FBP-YG-81.png,0.43,1.2,39,1,,,,,,,,,,,,,,,,,,,,,,,,,,,,,,,,,,,,,,,,,,,,,
,,,,,WIN24_025,19,Female,2024-01-31_15h01.10.972,jersey_experiment_5,2023.2.2,Win32,84.74576271,,,,,,,,,,,,,,,,264.6246,265.9254,265.9254,267.5019,return,0.0714,,49.73958333,0,32,32,8,1,FBP-OG-81.png,0.43,1.2,9,0.5,,,,,,,,,,,,,,,,,,,,,,,,,,,,,,,,,,,,,,,,,,,,,
,,,,,WIN24_025,19,Female,2024-01-31_15h01.10.972,jersey_experiment_5,2023.2.2,Win32,84.74576271,,,,,,,,,,,,,,,,267.5022,269.3018,269.3019,270.9067,return,0.1884,,70.18229167,0,33,33,43,1,FBP-YG-91.png,0.43,1.2,44,1,,,,,,,,,,,,,,,,,,,,,,,,,,,,,,,,,,,,,,,,,,,,,
,,,,,WIN24_025,19,Female,2024-01-31_15h01.10.972,jersey_experiment_5,2023.2.2,Win32,84.74576271,,,,,,,,,,,,,,,,270.9068,272.7052,272.7052,273.9962,return,0.2145,,26.04166667,0,34,34,16,1,FBP-RB-17.png,0.37,1.2,17,1,,,,,,,,,,,,,,,,,,,,,,,,,,,,,,,,,,,,,,,,,,,,,
,,,,,WIN24_025,19,Female,2024-01-31_15h01.10.972,jersey_experiment_5,2023.2.2,Win32,84.74576271,,,,,,,,,,,,,,,,273.9964,275.2904,275.2904,276.7139,return,0.0535,,22.78645833,0,35,35,1,1,FBP-OG-71.png,0.37,1.2,2,0.5,,,,,,,,,,,,,,,,,,,,,,,,,,,,,,,,,,,,,,,,,,,,,
,,,,,WIN24_025,19,Female,2024-01-31_15h01.10.972,jersey_experiment_5,2023.2.2,Win32,84.74576271,,,,,,,,,,,,,,,,276.7141,278.0081,278.0082,279.2316,return,0.1284,,13.93229167,0,36,36,10,1,FBP-OG-91.png,0.35,1.2,11,0.5,,,,,,,,,,,,,,,,,,,,,,,,,,,,,,,,,,,,,,,,,,,,,
,,,,,WIN24_025,19,Female,2024-01-31_15h01.10.972,jersey_experiment_5,2023.2.2,Win32,84.74576271,,,,,,,,,,,,,,,,279.2318,281.0351,281.0351,283.0013,return,1.0483,,74.73958333,0,37,37,28,1,FBP-RB-19.png,0.43,1.2,29,1,,,,,,,,,,,,,,,,,,,,,,,,,,,,,,,,,,,,,,,,,,,,,
,,,,,WIN24_025,19,Female,2024-01-31_15h01.10.972,jersey_experiment_5,2023.2.2,Win32,84.74576271,,,,,,,,,,,,,,,,283.0014,284.7998,284.7998,285.8727,return,0.2963,,82.8125,0,38,38,34,1,FBP-YG-71.png,0.45,1.2,35,1,,,,,,,,,,,,,,,,,,,,,,,,,,,,,,,,,,,,,,,,,,,,,
,,,,,WIN24_025,19,Female,2024-01-31_15h01.10.972,jersey_experiment_5,2023.2.2,Win32,84.74576271,,,,,,,,,,,,,,,,285.8729,287.1732,287.1733,288.4083,return,0.0313,,49.08854167,0,39,39,51,1,FBP-PT-18.png,0.37,1.2,52,0.5,,,,,,,,,,,,,,,,,,,,,,,,,,,,,,,,,,,,,,,,,,,,,
,,,,,WIN24_025,19,Female,2024-01-31_15h01.10.972,jersey_experiment_5,2023.2.2,Win32,84.74576271,,,,,,,,,,,,,,,,288.4086,289.7075,289.7075,291.3548,return,0.118,,75.26041667,0,40,40,13,1,FBP-OG-91.png,0.43,1.2,14,0.5,,,,,,,,,,,,,,,,,,,,,,,,,,,,,,,,,,,,,,,,,,,,,
,,,,,WIN24_025,19,Female,2024-01-31_15h01.10.972,jersey_experiment_5,2023.2.2,Win32,84.74576271,,,,,,,,,,,,,,,,291.3549,292.6488,292.6488,294.397,return,0.0856,,49.47916667,0,41,41,11,1,FBP-OG-91.png,0.37,1.2,12,0.5,,,,,,,,,,,,,,,,,,,,,,,,,,,,,,,,,,,,,,,,,,,,,
,,,,,WIN24_025,19,Female,2024-01-31_15h01.10.972,jersey_experiment_5,2023.2.2,Win32,84.74576271,,,,,,,,,,,,,,,,294.3971,295.6912,295.6912,296.7066,return,0.071,,24.86979167,0,42,42,55,1,FBP-PT-19.png,0.35,1.2,56,0.5,,,,,,,,,,,,,,,,,,,,,,,,,,,,,,,,,,,,,,,,,,,,,
,,,,,WIN24_025,19,Female,2024-01-31_15h01.10.972,jersey_experiment_5,2023.2.2,Win32,84.74576271,,,,,,,,,,,,,,,,296.7067,298.5029,298.5029,299.2912,return,0.1919,,24.86979167,0,43,43,25,1,FBP-RB-19.png,0.35,1.2,26,1,,,,,,,,,,,,,,,,,,,,,,,,,,,,,,,,,,,,,,,,,,,,,
,,,,,WIN24_025,19,Female,2024-01-31_15h01.10.972,jersey_experiment_5,2023.2.2,Win32,84.74576271,,,,,,,,,,,,,,,,299.2914,301.0827,301.0827,302.4947,return,0.1283,,63.41145833,0,44,44,42,1,FBP-YG-91.png,0.4,1.2,43,1,,,,,,,,,,,,,,,,,,,,,,,,,,,,,,,,,,,,,,,,,,,,,
,,,,,WIN24_025,19,Female,2024-01-31_15h01.10.972,jersey_experiment_5,2023.2.2,Win32,84.74576271,,,,,,,,,,,,,,,,302.4948,304.2962,304.2962,305.656,return,0.0653,,74.86979167,0,45,45,18,1,FBP-RB-17.png,0.43,1.2,19,1,,,,,,,,,,,,,,,,,,,,,,,,,,,,,,,,,,,,,,,,,,,,,
,,,,,WIN24_025,19,Female,2024-01-31_15h01.10.972,jersey_experiment_5,2023.2.2,Win32,84.74576271,,,,,,,,,,,,,,,,305.6563,306.9548,306.9548,307.8563,return,0.1648,,74.86979167,0,46,46,48,1,FBP-PT-17.png,0.43,1.2,49,0.5,,,,,,,,,,,,,,,,,,,,,,,,,,,,,,,,,,,,,,,,,,,,,
,,,,,WIN24_025,19,Female,2024-01-31_15h01.10.972,jersey_experiment_5,2023.2.2,Win32,84.74576271,,,,,,,,,,,,,,,,307.8564,309.1505,309.1505,311.3269,return,0.0825,,62.36979167,0,47,47,2,1,FBP-OG-71.png,0.4,1.2,3,0.5,,,,,,,,,,,,,,,,,,,,,,,,,,,,,,,,,,,,,,,,,,,,,
,,,,,WIN24_025,19,Female,2024-01-31_15h01.10.972,jersey_experiment_5,2023.2.2,Win32,84.74576271,,,,,,,,,,,,,,,,311.3271,313.1304,313.1304,314.2212,return,0.0732,,50.13020833,0,48,48,30,1,FBP-YG-71.png,0.35,1.2,31,1,,,,,,,,,,,,,,,,,,,,,,,,,,,,,,,,,,,,,,,,,,,,,
,,,,,WIN24_025,19,Female,2024-01-31_15h01.10.972,jersey_experiment_5,2023.2.2,Win32,84.74576271,,,,,,,,,,,,,,,,314.2214,315.5153,315.5153,316.88,return,0.0578,,24.21875,0,49,49,46,1,FBP-PT-17.png,0.37,1.2,47,0.5,,,,,,,,,,,,,,,,,,,,,,,,,,,,,,,,,,,,,,,,,,,,,
,,,,,WIN24_025,19,Female,2024-01-31_15h01.10.972,jersey_experiment_5,2023.2.2,Win32,84.74576271,,,,,,,,,,,,,,,,316.8802,318.6802,318.6802,319.9676,return,0.1077,,74.73958333,0,50,50,33,1,FBP-YG-71.png,0.43,1.2,34,1,,,,,,,,,,,,,,,,,,,,,,,,,,,,,,,,,,,,,,,,,,,,,
,,,,,WIN24_025,19,Female,2024-01-31_15h01.10.972,jersey_experiment_5,2023.2.2,Win32,84.74576271,,,,,,,,,,,,,,,,319.9678,321.2685,321.2685,322.492,return,0.0968,,25,0,51,51,50,1,FBP-PT-18.png,0.35,1.2,51,0.5,,,,,,,,,,,,,,,,,,,,,,,,,,,,,,,,,,,,,,,,,,,,,
,,,,,WIN24_025,19,Female,2024-01-31_15h01.10.972,jersey_experiment_5,2023.2.2,Win32,84.74576271,,,,,,,,,,,,,,,,322.4923,323.7896,323.7896,325.3896,return,0.188,,99.47916667,0,52,52,54,1,FBP-PT-18.png,0.45,1.2,55,0.5,,,,,,,,,,,,,,,,,,,,,,,,,,,,,,,,,,,,,,,,,,,,,
,,,,,WIN24_025,19,Female,2024-01-31_15h01.10.972,jersey_experiment_5,2023.2.2,Win32,84.74576271,,,,,,,,,,,,,,,,325.3898,326.6921,326.6922,327.9864,return,0.0812,,25.26041667,0,53,53,5,1,FBP-OG-81.png,0.35,1.2,6,0.5,,,,,,,,,,,,,,,,,,,,,,,,,,,,,,,,,,,,,,,,,,,,,
,,,,,WIN24_025,19,Female,2024-01-31_15h01.10.972,jersey_experiment_5,2023.2.2,Win32,84.74576271,,,,,,,,,,,,,,,,327.9866,329.2806,329.2806,330.3982,return,0.1544,,75.390625,0,54,54,49,1,FBP-PT-17.png,0.45,1.2,50,0.5,,,,,,,,,,,,,,,,,,,,,,,,,,,,,,,,,,,,,,,,,,,,,
,,,,,WIN24_025,19,Female,2024-01-31_15h01.10.972,jersey_experiment_5,2023.2.2,Win32,84.74576271,,,,,,,,,,,,,,,,330.3984,331.6961,331.6961,333.0688,return,0.0975,,74.609375,0,55,55,57,1,FBP-PT-19.png,0.4,1.2,58,0.5,,,,,,,,,,,,,,,,,,,,,,,,,,,,,,,,,,,,,,,,,,,,,
,,,,,WIN24_025,19,Female,2024-01-31_15h01.10.972,jersey_experiment_5,2023.2.2,Win32,84.74576271,,,,,,,,,,,,,,,,333.0689,334.8622,334.8623,336.1396,return,0.2282,,24.34895833,0,56,56,41,1,FBP-YG-91.png,0.37,1.2,42,1,,,,,,,,,,,,,,,,,,,,,,,,,,,,,,,,,,,,,,,,,,,,,
,,,,,WIN24_025,19,Female,2024-01-31_15h01.10.972,jersey_experiment_5,2023.2.2,Win32,84.74576271,,,,,,,,,,,,,,,,336.1399,337.9443,337.9443,339.0104,return,0.1072,,75,0,57,57,23,1,FBP-RB-18.png,0.43,1.2,24,1,,,,,,,,,,,,,,,,,,,,,,,,,,,,,,,,,,,,,,,,,,,,,
,,,,,WIN24_025,19,Female,2024-01-31_15h01.10.972,jersey_experiment_5,2023.2.2,Win32,84.74576271,,,,,,,,,,,,,,,,339.0107,340.3079,340.3079,343.6928,return,1.3562,,75.26041667,0,58,58,53,1,FBP-PT-18.png,0.43,1.2,54,0.5,,,,,,,,,,,,,,,,,,,,,,,,,,,,,,,,,,,,,,,,,,,,,
,,,,,WIN24_025,19,Female,2024-01-31_15h01.10.972,jersey_experiment_5,2023.2.2,Win32,84.74576271,,,,,,,,,,,,,,,,343.6931,345.4928,345.4928,346.6378,return,0.0476,,24.73958333,0,59,59,31,1,FBP-YG-71.png,0.37,1.2,32,1,,,,,,,,,,,,,,,,,,,,,,,,,,,,,,,,,,,,,,,,,,,,,
,,,,,WIN24_025,19,Female,2024-01-31_15h01.10.972,jersey_experiment_5,2023.2.2,Win32,84.74576271,,,,,,,,,,,,,,,,346.6399,348.4343,348.4343,350.6376,return,0.9752,,79.81770833,,,,,,FBP-RB-81.png,0.45,1.2,25,1,0,0,0,24,1,,,,,,,,,,,,,,,,,,,,,,,,,,,,,,,,,,,,,,,,
,,,,,WIN24_025,19,Female,2024-01-31_15h01.10.972,jersey_experiment_5,2023.2.2,Win32,84.74576271,,,,,,,,,,,,,,,,350.6378,351.9322,351.9322,353.6813,return,0.152,,75.26041667,,,,,,FBP-OG-19.png,0.43,1.2,14,0.5,0,1,1,13,1,,,,,,,,,,,,,,,,,,,,,,,,,,,,,,,,,,,,,,,,
,,,,,WIN24_025,19,Female,2024-01-31_15h01.10.972,jersey_experiment_5,2023.2.2,Win32,84.74576271,,,,,,,,,,,,,,,,353.6814,354.9755,354.9756,356.1439,return,0.0239,,50.13020833,,,,,,FBP-OG-17.png,0.4,1.2,3,0.5,0,2,2,2,1,,,,,,,,,,,,,,,,,,,,,,,,,,,,,,,,,,,,,,,,
,,,,,WIN24_025,19,Female,2024-01-31_15h01.10.972,jersey_experiment_5,2023.2.2,Win32,84.74576271,,,,,,,,,,,,,,,,356.1441,357.4462,357.4462,358.732,return,0.2929,,85.28645833,,,,,,FBP-OG-18.png,0.45,1.2,10,0.5,0,3,3,9,1,,,,,,,,,,,,,,,,,,,,,,,,,,,,,,,,,,,,,,,,
,,,,,WIN24_025,19,Female,2024-01-31_15h01.10.972,jersey_experiment_5,2023.2.2,Win32,84.74576271,,,,,,,,,,,,,,,,358.7322,360.5287,360.5287,362.4268,return,1.1405,,49.73958333,,,,,,FBP-RB-91.png,0.4,1.2,28,1,0,4,4,27,1,,,,,,,,,,,,,,,,,,,,,,,,,,,,,,,,,,,,,,,,
,,,,,WIN24_025,19,Female,2024-01-31_15h01.10.972,jersey_experiment_5,2023.2.2,Win32,84.74576271,,,,,,,,,,,,,,,,362.427,364.223,364.223,365.4584,return,0.0472,,24.21875,,,,,,FBP-YG-18.png,0.35,1.2,36,1,0,5,5,35,1,,,,,,,,,,,,,,,,,,,,,,,,,,,,,,,,,,,,,,,,
,,,,,WIN24_025,19,Female,2024-01-31_15h01.10.972,jersey_experiment_5,2023.2.2,Win32,84.74576271,,,,,,,,,,,,,,,,365.4585,367.2584,367.2584,370.8166,return,2.4139,,24.73958333,,,,,,FBP-YG-19.png,0.37,1.2,42,1,0,6,6,41,1,,,,,,,,,,,,,,,,,,,,,,,,,,,,,,,,,,,,,,,,
,,,,,WIN24_025,19,Female,2024-01-31_15h01.10.972,jersey_experiment_5,2023.2.2,Win32,84.74576271,,,,,,,,,,,,,,,,370.8208,372.1205,372.1205,374.0978,return,0.1288,,49.47916667,,,,,,FBP-OG-17.png,0.43,1.2,4,0.5,0,7,7,3,1,,,,,,,,,,,,,,,,,,,,,,,,,,,,,,,,,,,,,,,,
,,,,,WIN24_025,19,Female,2024-01-31_15h01.10.972,jersey_experiment_5,2023.2.2,Win32,84.74576271,,,,,,,,,,,,,,,,374.0979,375.3999,375.3999,377.3443,return,0.7635,,36.71875,,,,,,FBP-PT-71.png,0.37,1.2,47,0.5,0,8,8,46,1,,,,,,,,,,,,,,,,,,,,,,,,,,,,,,,,,,,,,,,,
,,,,,WIN24_025,19,Female,2024-01-31_15h01.10.972,jersey_experiment_5,2023.2.2,Win32,84.74576271,,,,,,,,,,,,,,,,377.3445,378.647,378.647,379.8824,return,0.1354,,75.390625,,,,,,FBP-PT-71.png,0.45,1.2,50,0.5,0,9,9,49,1,,,,,,,,,,,,,,,,,,,,,,,,,,,,,,,,,,,,,,,,
,,,,,WIN24_025,19,Female,2024-01-31_15h01.10.972,jersey_experiment_5,2023.2.2,Win32,84.74576271,,,,,,,,,,,,,,,,379.8826,381.1765,381.1766,382.4472,return,0.2826,,74.34895833,,,,,,FBP-OG-18.png,0.43,1.2,9,0.5,0,10,10,8,1,,,,,,,,,,,,,,,,,,,,,,,,,,,,,,,,,,,,,,,,
,,,,,WIN24_025,19,Female,2024-01-31_15h01.10.972,jersey_experiment_5,2023.2.2,Win32,84.74576271,,,,,,,,,,,,,,,,382.4474,384.2519,384.2519,385.1697,return,0.2489,,76.04166667,,,,,,FBP-RB-81.png,0.43,1.2,24,1,0,11,11,23,1,,,,,,,,,,,,,,,,,,,,,,,,,,,,,,,,,,,,,,,,
,,,,,WIN24_025,19,Female,2024-01-31_15h01.10.972,jersey_experiment_5,2023.2.2,Win32,84.74576271,,,,,,,,,,,,,,,,385.1699,386.4639,386.4639,387.4002,return,0.2904,,76.04166667,,,,,,FBP-OG-18.png,0.37,1.2,7,0.5,0,12,12,6,1,,,,,,,,,,,,,,,,,,,,,,,,,,,,,,,,,,,,,,,,
,,,,,WIN24_025,19,Female,2024-01-31_15h01.10.972,jersey_experiment_5,2023.2.2,Win32,84.74576271,,,,,,,,,,,,,,,,387.4005,389.2004,389.2004,390.1924,return,0.0947,,86.328125,,,,,,FBP-YG-18.png,0.45,1.2,40,1,0,13,13,39,1,,,,,,,,,,,,,,,,,,,,,,,,,,,,,,,,,,,,,,,,
,,,,,WIN24_025,19,Female,2024-01-31_15h01.10.972,jersey_experiment_5,2023.2.2,Win32,84.74576271,,,,,,,,,,,,,,,,390.1925,391.9937,391.9937,394.4275,return,1.4356,,49.21875,,,,,,FBP-RB-71.png,0.4,1.2,18,1,0,14,14,17,1,,,,,,,,,,,,,,,,,,,,,,,,,,,,,,,,,,,,,,,,
,,,,,WIN24_025,19,Female,2024-01-31_15h01.10.972,jersey_experiment_5,2023.2.2,Win32,84.74576271,,,,,,,,,,,,,,,,394.4278,396.229,396.229,397.3064,return,0.0631,,77.34375,,,,,,FBP-YG-17.png,0.45,1.2,35,1,0,15,15,34,1,,,,,,,,,,,,,,,,,,,,,,,,,,,,,,,,,,,,,,,,
,,,,,WIN24_025,19,Female,2024-01-31_15h01.10.972,jersey_experiment_5,2023.2.2,Win32,84.74576271,,,,,,,,,,,,,,,,397.3066,399.0996,399.0996,400.0949,return,0.2015,,50.26041667,,,,,,FBP-YG-19.png,0.4,1.2,43,1,0,16,16,42,1,,,,,,,,,,,,,,,,,,,,,,,,,,,,,,,,,,,,,,,,
,,,,,WIN24_025,19,Female,2024-01-31_15h01.10.972,jersey_experiment_5,2023.2.2,Win32,84.74576271,,,,,,,,,,,,,,,,400.0951,401.3921,401.3921,403.5773,return,0.1465,,41.27604167,,,,,,FBP-PT-91.png,0.43,1.2,59,0.5,0,17,17,58,1,,,,,,,,,,,,,,,,,,,,,,,,,,,,,,,,,,,,,,,,
,,,,,WIN24_025,19,Female,2024-01-31_15h01.10.972,jersey_experiment_5,2023.2.2,Win32,84.74576271,,,,,,,,,,,,,,,,403.5775,404.8714,404.8714,406.3539,return,0.3664,,22.78645833,,,,,,FBP-PT-81.png,0.37,1.2,52,0.5,0,18,18,51,1,,,,,,,,,,,,,,,,,,,,,,,,,,,,,,,,,,,,,,,,
,,,,,WIN24_025,19,Female,2024-01-31_15h01.10.972,jersey_experiment_5,2023.2.2,Win32,84.74576271,,,,,,,,,,,,,,,,406.3542,407.6481,407.6481,408.9068,return,0.2038,,22.13541667,,,,,,FBP-PT-81.png,0.35,1.2,51,0.5,0,19,19,50,1,,,,,,,,,,,,,,,,,,,,,,,,,,,,,,,,,,,,,,,,
,,,,,WIN24_025,19,Female,2024-01-31_15h01.10.972,jersey_experiment_5,2023.2.2,Win32,84.74576271,,,,,,,,,,,,,,,,408.907,410.7104,410.7105,411.7221,return,0.1281,,76.82291667,,,,,,FBP-RB-71.png,0.43,1.2,19,1,0,20,20,18,1,,,,,,,,,,,,,,,,,,,,,,,,,,,,,,,,,,,,,,,,
,,,,,WIN24_025,19,Female,2024-01-31_15h01.10.972,jersey_experiment_5,2023.2.2,Win32,84.74576271,,,,,,,,,,,,,,,,411.7223,413.0297,413.0297,414.2717,return,0.2001,,9.114583333,,,,,,FBP-OG-17.png,0.35,1.2,1,0.5,0,21,21,0,1,,,,,,,,,,,,,,,,,,,,,,,,,,,,,,,,,,,,,,,,
,,,,,WIN24_025,19,Female,2024-01-31_15h01.10.972,jersey_experiment_5,2023.2.2,Win32,84.74576271,,,,,,,,,,,,,,,,414.2719,415.5706,415.5706,416.8752,return,0.2354,,15.234375,,,,,,FBP-PT-71.png,0.35,1.2,46,0.5,0,22,22,45,1,,,,,,,,,,,,,,,,,,,,,,,,,,,,,,,,,,,,,,,,
,,,,,WIN24_025,19,Female,2024-01-31_15h01.10.972,jersey_experiment_5,2023.2.2,Win32,84.74576271,,,,,,,,,,,,,,,,416.8754,418.1692,418.1693,420.4603,return,0.2259,,40.625,,,,,,FBP-PT-91.png,0.4,1.2,58,0.5,0,23,23,57,1,,,,,,,,,,,,,,,,,,,,,,,,,,,,,,,,,,,,,,,,
,,,,,WIN24_025,19,Female,2024-01-31_15h01.10.972,jersey_experiment_5,2023.2.2,Win32,84.74576271,,,,,,,,,,,,,,,,420.4604,421.7591,421.7591,423.0013,return,0.3465,,23.828125,,,,,,FBP-OG-19.png,0.35,1.2,11,0.5,0,24,24,10,1,,,,,,,,,,,,,,,,,,,,,,,,,,,,,,,,,,,,,,,,
,,,,,WIN24_025,19,Female,2024-01-31_15h01.10.972,jersey_experiment_5,2023.2.2,Win32,84.74576271,,,,,,,,,,,,,,,,423.0015,424.2957,424.2957,425.5716,return,0.1415,,73.4375,,,,,,FBP-PT-71.png,0.43,1.2,49,0.5,0,25,25,48,1,,,,,,,,,,,,,,,,,,,,,,,,,,,,,,,,,,,,,,,,
,,,,,WIN24_025,19,Female,2024-01-31_15h01.10.972,jersey_experiment_5,2023.2.2,Win32,84.74576271,,,,,,,,,,,,,,,,425.5718,426.8722,426.8722,428.4994,return,0.0342,,48.95833333,,,,,,FBP-OG-18.png,0.35,1.2,6,0.5,0,26,26,5,1,,,,,,,,,,,,,,,,,,,,,,,,,,,,,,,,,,,,,,,,
,,,,,WIN24_025,19,Female,2024-01-31_15h01.10.972,jersey_experiment_5,2023.2.2,Win32,84.74576271,,,,,,,,,,,,,,,,428.4995,429.8018,429.8018,430.8135,return,0.1305,,75.52083333,,,,,,FBP-OG-19.png,0.4,1.2,13,0.5,0,27,27,12,1,,,,,,,,,,,,,,,,,,,,,,,,,,,,,,,,,,,,,,,,
,,,,,WIN24_025,19,Female,2024-01-31_15h01.10.972,jersey_experiment_5,2023.2.2,Win32,84.74576271,,,,,,,,,,,,,,,,430.8136,432.617,432.617,433.5952,return,0.2018,,26.43229167,,,,,,FBP-RB-81.png,0.35,1.2,21,1,0,28,28,20,1,,,,,,,,,,,,,,,,,,,,,,,,,,,,,,,,,,,,,,,,
,,,,,WIN24_025,19,Female,2024-01-31_15h01.10.972,jersey_experiment_5,2023.2.2,Win32,84.74576271,,,,,,,,,,,,,,,,433.5954,435.3934,435.3934,436.2541,return,0.1312,,24.34895833,,,,,,FBP-RB-71.png,0.35,1.2,16,1,0,29,29,15,1,,,,,,,,,,,,,,,,,,,,,,,,,,,,,,,,,,,,,,,,
,,,,,WIN24_025,19,Female,2024-01-31_15h01.10.972,jersey_experiment_5,2023.2.2,Win32,84.74576271,,,,,,,,,,,,,,,,436.2542,437.555,437.5551,438.8257,return,0.1933,,74.86979167,,,,,,FBP-PT-81.png,0.43,1.2,54,0.5,0,30,30,53,1,,,,,,,,,,,,,,,,,,,,,,,,,,,,,,,,,,,,,,,,
,,,,,WIN24_025,19,Female,2024-01-31_15h01.10.972,jersey_experiment_5,2023.2.2,Win32,84.74576271,,,,,,,,,,,,,,,,438.8259,440.6175,440.6175,442.618,return,0.0006,,50,,,,,,FBP-RB-81.png,0.37,1.2,22,1,0,31,31,21,1,,,,,,,,,,,,,,,,,,,,,,,,,,,,,,,,,,,,,,,,
,,,,,WIN24_025,19,Female,2024-01-31_15h01.10.972,jersey_experiment_5,2023.2.2,Win32,84.74576271,,,,,,,,,,,,,,,,442.6181,443.9199,443.9199,445.8646,return,0.4576,,98.56770833,,,,,,FBP-PT-91.png,0.45,1.2,60,0.5,0,32,32,59,1,,,,,,,,,,,,,,,,,,,,,,,,,,,,,,,,,,,,,,,,
,,,,,WIN24_025,19,Female,2024-01-31_15h01.10.972,jersey_experiment_5,2023.2.2,Win32,84.74576271,,,,,,,,,,,,,,,,445.8648,447.172,447.172,449.7711,return,0.2933,,50,,,,,,FBP-PT-91.png,0.37,1.2,57,0.5,0,33,33,56,1,,,,,,,,,,,,,,,,,,,,,,,,,,,,,,,,,,,,,,,,
,,,,,WIN24_025,19,Female,2024-01-31_15h01.10.972,jersey_experiment_5,2023.2.2,Win32,84.74576271,,,,,,,,,,,,,,,,449.7712,451.5672,451.5673,452.685,return,0.1193,,75.390625,,,,,,FBP-RB-81.png,0.4,1.2,23,1,0,34,34,22,1,,,,,,,,,,,,,,,,,,,,,,,,,,,,,,,,,,,,,,,,
,,,,,WIN24_025,19,Female,2024-01-31_15h01.10.972,jersey_experiment_5,2023.2.2,Win32,84.74576271,,,,,,,,,,,,,,,,452.6852,453.9822,453.9822,455.29,return,0.1883,,98.046875,,,,,,FBP-OG-19.png,0.45,1.2,15,0.5,0,35,35,14,1,,,,,,,,,,,,,,,,,,,,,,,,,,,,,,,,,,,,,,,,
,,,,,WIN24_025,19,Female,2024-01-31_15h01.10.972,jersey_experiment_5,2023.2.2,Win32,84.74576271,,,,,,,,,,,,,,,,455.2902,456.5841,456.5841,457.5356,return,0.0811,,49.47916667,,,,,,FBP-PT-71.png,0.4,1.2,48,0.5,0,36,36,47,1,,,,,,,,,,,,,,,,,,,,,,,,,,,,,,,,,,,,,,,,
,,,,,WIN24_025,19,Female,2024-01-31_15h01.10.972,jersey_experiment_5,2023.2.2,Win32,84.74576271,,,,,,,,,,,,,,,,457.5358,458.8295,458.8295,459.7088,return,0.074,,82.16145833,,,,,,FBP-PT-81.png,0.45,1.2,55,0.5,0,37,37,54,1,,,,,,,,,,,,,,,,,,,,,,,,,,,,,,,,,,,,,,,,
,,,,,WIN24_025,19,Female,2024-01-31_15h01.10.972,jersey_experiment_5,2023.2.2,Win32,84.74576271,,,,,,,,,,,,,,,,459.709,461.0029,461.0029,462.1137,return,0.2252,,98.30729167,,,,,,FBP-OG-17.png,0.45,1.2,5,0.5,0,38,38,4,1,,,,,,,,,,,,,,,,,,,,,,,,,,,,,,,,,,,,,,,,
,,,,,WIN24_025,19,Female,2024-01-31_15h01.10.972,jersey_experiment_5,2023.2.2,Win32,84.74576271,,,,,,,,,,,,,,,,462.1139,463.909,463.909,465.7612,return,0.2018,,85.41666667,,,,,,FBP-YG-18.png,0.43,1.2,39,1,0,39,39,38,1,,,,,,,,,,,,,,,,,,,,,,,,,,,,,,,,,,,,,,,,
,,,,,WIN24_025,19,Female,2024-01-31_15h01.10.972,jersey_experiment_5,2023.2.2,Win32,84.74576271,,,,,,,,,,,,,,,,465.7614,467.5595,467.5595,468.8738,return,0.0991,,24.86979167,,,,,,FBP-RB-91.png,0.37,1.2,27,1,0,40,40,26,1,,,,,,,,,,,,,,,,,,,,,,,,,,,,,,,,,,,,,,,,
,,,,,WIN24_025,19,Female,2024-01-31_15h01.10.972,jersey_experiment_5,2023.2.2,Win32,84.74576271,,,,,,,,,,,,,,,,468.8739,470.1679,470.168,471.1728,return,0.1546,,25.390625,,,,,,FBP-PT-91.png,0.35,1.2,56,0.5,0,41,41,55,1,,,,,,,,,,,,,,,,,,,,,,,,,,,,,,,,,,,,,,,,
,,,,,WIN24_025,19,Female,2024-01-31_15h01.10.972,jersey_experiment_5,2023.2.2,Win32,84.74576271,,,,,,,,,,,,,,,,471.173,472.9681,472.9681,474.0976,return,0.118,,50.390625,,,,,,FBP-YG-18.png,0.37,1.2,37,1,0,42,42,36,1,,,,,,,,,,,,,,,,,,,,,,,,,,,,,,,,,,,,,,,,
,,,,,WIN24_025,19,Female,2024-01-31_15h01.10.972,jersey_experiment_5,2023.2.2,Win32,84.74576271,,,,,,,,,,,,,,,,474.0977,475.9023,475.9023,476.7211,return,0.212,,50,,,,,,FBP-YG-17.png,0.35,1.2,31,1,0,43,43,30,1,,,,,,,,,,,,,,,,,,,,,,,,,,,,,,,,,,,,,,,,
,,,,,WIN24_025,19,Female,2024-01-31_15h01.10.972,jersey_experiment_5,2023.2.2,Win32,84.74576271,,,,,,,,,,,,,,,,476.7213,478.0152,478.0152,479.9733,return,0.1312,,31.640625,,,,,,FBP-OG-19.png,0.37,1.2,12,0.5,0,44,44,11,1,,,,,,,,,,,,,,,,,,,,,,,,,,,,,,,,,,,,,,,,
,,,,,WIN24_025,19,Female,2024-01-31_15h01.10.972,jersey_experiment_5,2023.2.2,Win32,84.74576271,,,,,,,,,,,,,,,,479.9735,481.7716,481.7716,482.6506,return,0.0992,,83.59375,,,,,,FBP-YG-19.png,0.45,1.2,45,1,0,45,45,44,1,,,,,,,,,,,,,,,,,,,,,,,,,,,,,,,,,,,,,,,,
,,,,,WIN24_025,19,Female,2024-01-31_15h01.10.972,jersey_experiment_5,2023.2.2,Win32,84.74576271,,,,,,,,,,,,,,,,482.6508,484.4438,484.4438,485.4661,return,0.212,,75.26041667,,,,,,FBP-YG-19.png,0.43,1.2,44,1,0,46,46,43,1,,,,,,,,,,,,,,,,,,,,,,,,,,,,,,,,,,,,,,,,
,,,,,WIN24_025,19,Female,2024-01-31_15h01.10.972,jersey_experiment_5,2023.2.2,Win32,84.74576271,,,,,,,,,,,,,,,,485.4662,486.7686,486.7686,487.9367,return,0.2224,,25,,,,,,FBP-OG-17.png,0.37,1.2,2,0.5,0,47,47,1,1,,,,,,,,,,,,,,,,,,,,,,,,,,,,,,,,,,,,,,,,
,,,,,WIN24_025,19,Female,2024-01-31_15h01.10.972,jersey_experiment_5,2023.2.2,Win32,84.74576271,,,,,,,,,,,,,,,,487.9369,489.7333,489.7333,490.7736,return,0.1077,,49.86979167,,,,,,FBP-YG-17.png,0.4,1.2,33,1,0,48,48,32,1,,,,,,,,,,,,,,,,,,,,,,,,,,,,,,,,,,,,,,,,
,,,,,WIN24_025,19,Female,2024-01-31_15h01.10.972,jersey_experiment_5,2023.2.2,Win32,84.74576271,,,,,,,,,,,,,,,,490.7738,492.5688,492.5688,493.4982,return,0.0765,,66.66666667,,,,,,FBP-YG-17.png,0.43,1.2,34,1,0,49,49,33,1,,,,,,,,,,,,,,,,,,,,,,,,,,,,,,,,,,,,,,,,
,,,,,WIN24_025,19,Female,2024-01-31_15h01.10.972,jersey_experiment_5,2023.2.2,Win32,84.74576271,,,,,,,,,,,,,,,,493.4984,495.3019,495.3019,497.4565,return,0.8606,,25.13020833,,,,,,FBP-YG-19.png,0.35,1.2,41,1,0,50,50,40,1,,,,,,,,,,,,,,,,,,,,,,,,,,,,,,,,,,,,,,,,
,,,,,WIN24_025,19,Female,2024-01-31_15h01.10.972,jersey_experiment_5,2023.2.2,Win32,84.74576271,,,,,,,,,,,,,,,,497.4566,499.2546,499.2546,501.0902,return,0.1285,,50,,,,,,FBP-YG-17.png,0.37,1.2,32,1,0,51,51,31,1,,,,,,,,,,,,,,,,,,,,,,,,,,,,,,,,,,,,,,,,
,,,,,WIN24_025,19,Female,2024-01-31_15h01.10.972,jersey_experiment_5,2023.2.2,Win32,84.74576271,,,,,,,,,,,,,,,,501.0903,502.8914,502.8915,503.7386,return,0.2956,,80.46875,,,,,,FBP-RB-91.png,0.45,1.2,30,1,0,52,52,29,1,,,,,,,,,,,,,,,,,,,,,,,,,,,,,,,,,,,,,,,,
,,,,,WIN24_025,19,Female,2024-01-31_15h01.10.972,jersey_experiment_5,2023.2.2,Win32,84.74576271,,,,,,,,,,,,,,,,503.7389,505.5372,505.5373,506.5104,return,0.0726,,49.34895833,,,,,,FBP-RB-71.png,0.37,1.2,17,1,0,53,53,16,1,,,,,,,,,,,,,,,,,,,,,,,,,,,,,,,,,,,,,,,,
,,,,,WIN24_025,19,Female,2024-01-31_15h01.10.972,jersey_experiment_5,2023.2.2,Win32,84.74576271,,,,,,,,,,,,,,,,506.5106,508.3135,508.3136,509.8903,return,0.188,,50.52083333,,,,,,FBP-YG-18.png,0.4,1.2,38,1,0,54,54,37,1,,,,,,,,,,,,,,,,,,,,,,,,,,,,,,,,,,,,,,,,
,,,,,WIN24_025,19,Female,2024-01-31_15h01.10.972,jersey_experiment_5,2023.2.2,Win32,84.74576271,,,,,,,,,,,,,,,,509.8905,511.1843,511.1843,512.4082,return,0.0946,,74.609375,,,,,,FBP-PT-81.png,0.4,1.2,53,0.5,0,55,55,52,1,,,,,,,,,,,,,,,,,,,,,,,,,,,,,,,,,,,,,,,,
,,,,,WIN24_025,19,Female,2024-01-31_15h01.10.972,jersey_experiment_5,2023.2.2,Win32,84.74576271,,,,,,,,,,,,,,,,512.4084,514.2094,514.2095,515.7107,return,0.2841,,24.609375,,,,,,FBP-RB-91.png,0.35,1.2,26,1,0,56,56,25,1,,,,,,,,,,,,,,,,,,,,,,,,,,,,,,,,,,,,,,,,
,,,,,WIN24_025,19,Female,2024-01-31_15h01.10.972,jersey_experiment_5,2023.2.2,Win32,84.74576271,,,,,,,,,,,,,,,,515.7109,517.5037,517.5037,519.758,return,0.6712,,75.26041667,,,,,,FBP-RB-71.png,0.45,1.2,20,1,0,57,57,19,1,,,,,,,,,,,,,,,,,,,,,,,,,,,,,,,,,,,,,,,,
,,,,,WIN24_025,19,Female,2024-01-31_15h01.10.972,jersey_experiment_5,2023.2.2,Win32,84.74576271,,,,,,,,,,,,,,,,519.7581,521.5614,521.5614,522.4324,return,0.236,,75.26041667,,,,,,FBP-RB-91.png,0.43,1.2,29,1,0,58,58,28,1,,,,,,,,,,,,,,,,,,,,,,,,,,,,,,,,,,,,,,,,
,,,,,WIN24_025,19,Female,2024-01-31_15h01.10.972,jersey_experiment_5,2023.2.2,Win32,84.74576271,,,,,,,,,,,,,,,,522.4325,523.7261,523.7261,524.9394,return,0.2355,,75.26041667,,,,,,FBP-OG-18.png,0.4,1.2,8,0.5,0,59,59,7,1,,,,,,,,,,,,,,,,,,,,,,,,,,,,,,,,,,,,,,,,
,,,,,WIN24_025,19,Female,2024-01-31_15h01.10.972,jersey_experiment_5,2023.2.2,Win32,84.74576271,,,,,,,,,,,,,,,,,,,,,,,,,,,,,,,,,,,,,,,524.9397,644.9541,,,,,,,,,,,,,,,,,,,,,,,,,,,,,,,,,,,,,,
,,,,,WIN24_025,19,Female,2024-01-31_15h01.10.972,jersey_experiment_5,2023.2.2,Win32,84.74576271,,,,,,,,,,,,,,,,,,,,,,,,,,,,,,,,,,,,,,,,,644.9542,647.6029,return,2.6356,,,,,,,,,,,,,,,,,,,,,,,,,,,,,,,,,,
,,,,,WIN24_025,19,Female,2024-01-31_15h01.10.972,jersey_experiment_5,2023.2.2,Win32,84.74576271,,,,,,,,,,,,,,,,647.609,649.4012,649.4012,653.5662,return,2.3402,,74.73958333,,,,,,FBP-PT-19.png,0.45,1.2,60,1,,,,,,,,,,,,,0,0,0,59,1,,,,,,,,,,,,,,,,,,,,,,,,,,,,
,,,,,WIN24_025,19,Female,2024-01-31_15h01.10.972,jersey_experiment_5,2023.2.2,Win32,84.74576271,,,,,,,,,,,,,,,,653.5663,655.3628,655.3628,656.5863,return,0.0998,,74.609375,,,,,,FBP-OG-71.png,0.43,1.2,4,1,,,,,,,,,,,,,0,1,1,3,1,,,,,,,,,,,,,,,,,,,,,,,,,,,,
,,,,,WIN24_025,19,Female,2024-01-31_15h01.10.972,jersey_experiment_5,2023.2.2,Win32,84.74576271,,,,,,,,,,,,,,,,656.5866,658.3901,658.3901,659.4017,return,0.1755,,48.56770833,,,,,,FBP-PT-17.png,0.37,1.2,47,1,,,,,,,,,,,,,0,2,2,46,1,,,,,,,,,,,,,,,,,,,,,,,,,,,,
,,,,,WIN24_025,19,Female,2024-01-31_15h01.10.972,jersey_experiment_5,2023.2.2,Win32,84.74576271,,,,,,,,,,,,,,,,659.4019,660.6957,660.6957,662.0607,return,0.3403,,50.52083333,,,,,,FBP-RB-19.png,0.4,1.2,28,0.5,,,,,,,,,,,,,0,3,3,27,1,,,,,,,,,,,,,,,,,,,,,,,,,,,,
,,,,,WIN24_025,19,Female,2024-01-31_15h01.10.972,jersey_experiment_5,2023.2.2,Win32,84.74576271,,,,,,,,,,,,,,,,662.0609,663.3544,663.3545,664.2808,return,0.0545,,49.73958333,,,,,,FBP-YG-81.png,0.37,1.2,37,0.5,,,,,,,,,,,,,0,4,4,36,1,,,,,,,,,,,,,,,,,,,,,,,,,,,,
,,,,,WIN24_025,19,Female,2024-01-31_15h01.10.972,jersey_experiment_5,2023.2.2,Win32,84.74576271,,,,,,,,,,,,,,,,664.281,666.0741,666.0741,667.5278,return,0.1254,,65.49479167,,,,,,FBP-PT-19.png,0.4,1.2,58,1,,,,,,,,,,,,,0,5,5,57,1,,,,,,,,,,,,,,,,,,,,,,,,,,,,
,,,,,WIN24_025,19,Female,2024-01-31_15h01.10.972,jersey_experiment_5,2023.2.2,Win32,84.74576271,,,,,,,,,,,,,,,,667.5281,668.822,668.822,670.2256,return,0.1282,,25.13020833,,,,,,FBP-RB-17.png,0.35,1.2,16,0.5,,,,,,,,,,,,,0,6,6,15,1,,,,,,,,,,,,,,,,,,,,,,,,,,,,
,,,,,WIN24_025,19,Female,2024-01-31_15h01.10.972,jersey_experiment_5,2023.2.2,Win32,84.74576271,,,,,,,,,,,,,,,,670.2258,671.5193,671.5194,672.8744,return,0.0239,,50.13020833,,,,,,FBP-YG-91.png,0.4,1.2,43,0.5,,,,,,,,,,,,,0,7,7,42,1,,,,,,,,,,,,,,,,,,,,,,,,,,,,
,,,,,WIN24_025,19,Female,2024-01-31_15h01.10.972,jersey_experiment_5,2023.2.2,Win32,84.74576271,,,,,,,,,,,,,,,,672.8746,674.6725,674.6725,676.7871,return,1.2941,,74.47916667,,,,,,FBP-PT-19.png,0.43,1.2,59,1,,,,,,,,,,,,,0,8,8,58,1,,,,,,,,,,,,,,,,,,,,,,,,,,,,
,,,,,WIN24_025,19,Female,2024-01-31_15h01.10.972,jersey_experiment_5,2023.2.2,Win32,84.74576271,,,,,,,,,,,,,,,,676.7873,678.0849,678.0849,679.0225,return,0.0842,,83.33333333,,,,,,FBP-RB-19.png,0.45,1.2,30,0.5,,,,,,,,,,,,,0,9,9,29,1,,,,,,,,,,,,,,,,,,,,,,,,,,,,
,,,,,WIN24_025,19,Female,2024-01-31_15h01.10.972,jersey_experiment_5,2023.2.2,Win32,84.74576271,,,,,,,,,,,,,,,,679.0226,680.8225,680.8225,681.8496,return,0.0711,,49.86979167,,,,,,FBP-OG-91.png,0.37,1.2,12,1,,,,,,,,,,,,,0,10,10,11,1,,,,,,,,,,,,,,,,,,,,,,,,,,,,
,,,,,WIN24_025,19,Female,2024-01-31_15h01.10.972,jersey_experiment_5,2023.2.2,Win32,84.74576271,,,,,,,,,,,,,,,,681.8498,683.1437,683.1437,684.3285,return,0.1591,,50.13020833,,,,,,FBP-RB-18.png,0.37,1.2,22,0.5,,,,,,,,,,,,,0,11,11,21,1,,,,,,,,,,,,,,,,,,,,,,,,,,,,
,,,,,WIN24_025,19,Female,2024-01-31_15h01.10.972,jersey_experiment_5,2023.2.2,Win32,84.74576271,,,,,,,,,,,,,,,,684.3288,686.1286,686.1286,686.9689,return,0.1414,,49.34895833,,,,,,FBP-OG-81.png,0.4,1.2,8,1,,,,,,,,,,,,,0,12,12,7,1,,,,,,,,,,,,,,,,,,,,,,,,,,,,
,,,,,WIN24_025,19,Female,2024-01-31_15h01.10.972,jersey_experiment_5,2023.2.2,Win32,84.74576271,,,,,,,,,,,,,,,,686.9692,688.7673,688.7673,689.9993,return,0.1051,,25.390625,,,,,,FBP-PT-18.png,0.35,1.2,51,1,,,,,,,,,,,,,0,13,13,50,1,,,,,,,,,,,,,,,,,,,,,,,,,,,,
,,,,,WIN24_025,19,Female,2024-01-31_15h01.10.972,jersey_experiment_5,2023.2.2,Win32,84.74576271,,,,,,,,,,,,,,,,689.9996,691.2935,691.2935,692.7208,return,0.2697,,75.26041667,,,,,,FBP-YG-81.png,0.45,1.2,40,0.5,,,,,,,,,,,,,0,14,14,39,1,,,,,,,,,,,,,,,,,,,,,,,,,,,,
,,,,,WIN24_025,19,Female,2024-01-31_15h01.10.972,jersey_experiment_5,2023.2.2,Win32,84.74576271,,,,,,,,,,,,,,,,692.7209,694.0229,694.023,695.1204,return,0.2355,,74.86979167,,,,,,FBP-YG-91.png,0.45,1.2,45,0.5,,,,,,,,,,,,,0,15,15,44,1,,,,,,,,,,,,,,,,,,,,,,,,,,,,
,,,,,WIN24_025,19,Female,2024-01-31_15h01.10.972,jersey_experiment_5,2023.2.2,Win32,84.74576271,,,,,,,,,,,,,,,,695.1207,696.4231,696.4231,698.1878,return,0.1689,,25.52083333,,,,,,FBP-RB-18.png,0.35,1.2,21,0.5,,,,,,,,,,,,,0,16,16,20,1,,,,,,,,,,,,,,,,,,,,,,,,,,,,
,,,,,WIN24_025,19,Female,2024-01-31_15h01.10.972,jersey_experiment_5,2023.2.2,Win32,84.74576271,,,,,,,,,,,,,,,,698.188,699.9879,699.9879,701.1442,return,0.034,,50.390625,,,,,,FBP-OG-71.png,0.4,1.2,3,1,,,,,,,,,,,,,0,17,17,2,1,,,,,,,,,,,,,,,,,,,,,,,,,,,,
,,,,,WIN24_025,19,Female,2024-01-31_15h01.10.972,jersey_experiment_5,2023.2.2,Win32,84.74576271,,,,,,,,,,,,,,,,701.1444,702.4468,702.4468,703.7057,return,0.193,,73.56770833,,,,,,FBP-RB-17.png,0.43,1.2,19,0.5,,,,,,,,,,,,,0,18,18,18,1,,,,,,,,,,,,,,,,,,,,,,,,,,,,
,,,,,WIN24_025,19,Female,2024-01-31_15h01.10.972,jersey_experiment_5,2023.2.2,Win32,84.74576271,,,,,,,,,,,,,,,,703.7059,705.5058,705.5058,707.6049,return,0.2484,,50,,,,,,FBP-OG-71.png,0.37,1.2,2,1,,,,,,,,,,,,,0,19,19,1,1,,,,,,,,,,,,,,,,,,,,,,,,,,,,
,,,,,WIN24_025,19,Female,2024-01-31_15h01.10.972,jersey_experiment_5,2023.2.2,Win32,84.74576271,,,,,,,,,,,,,,,,707.6051,709.4,709.4,710.4825,return,0.037,,74.47916667,,,,,,FBP-OG-71.png,0.45,1.2,5,1,,,,,,,,,,,,,0,20,20,4,1,,,,,,,,,,,,,,,,,,,,,,,,,,,,
,,,,,WIN24_025,19,Female,2024-01-31_15h01.10.972,jersey_experiment_5,2023.2.2,Win32,84.74576271,,,,,,,,,,,,,,,,710.4826,711.7766,711.7767,713.1178,return,0.1091,,23.828125,,,,,,FBP-YG-71.png,0.37,1.2,32,0.5,,,,,,,,,,,,,0,21,21,31,1,,,,,,,,,,,,,,,,,,,,,,,,,,,,
,,,,,WIN24_025,19,Female,2024-01-31_15h01.10.972,jersey_experiment_5,2023.2.2,Win32,84.74576271,,,,,,,,,,,,,,,,713.1179,714.9097,714.9097,715.7532,return,0.1126,,75.13020833,,,,,,FBP-PT-18.png,0.45,1.2,55,1,,,,,,,,,,,,,0,22,22,54,1,,,,,,,,,,,,,,,,,,,,,,,,,,,,
,,,,,WIN24_025,19,Female,2024-01-31_15h01.10.972,jersey_experiment_5,2023.2.2,Win32,84.74576271,,,,,,,,,,,,,,,,715.7534,717.5449,717.5449,719.3099,return,0.9756,,50.13020833,,,,,,FBP-OG-91.png,0.35,1.2,11,1,,,,,,,,,,,,,0,23,23,10,1,,,,,,,,,,,,,,,,,,,,,,,,,,,,
,,,,,WIN24_025,19,Female,2024-01-31_15h01.10.972,jersey_experiment_5,2023.2.2,Win32,84.74576271,,,,,,,,,,,,,,,,719.3101,720.6164,720.6164,721.8828,return,0.1097,,23.56770833,,,,,,FBP-YG-91.png,0.35,1.2,41,0.5,,,,,,,,,,,,,0,24,24,40,1,,,,,,,,,,,,,,,,,,,,,,,,,,,,
,,,,,WIN24_025,19,Female,2024-01-31_15h01.10.972,jersey_experiment_5,2023.2.2,Win32,84.74576271,,,,,,,,,,,,,,,,721.883,723.177,723.177,724.3349,return,0.1885,,75.65104167,,,,,,FBP-RB-19.png,0.43,1.2,29,0.5,,,,,,,,,,,,,0,25,25,28,1,,,,,,,,,,,,,,,,,,,,,,,,,,,,
,,,,,WIN24_025,19,Female,2024-01-31_15h01.10.972,jersey_experiment_5,2023.2.2,Win32,84.74576271,,,,,,,,,,,,,,,,724.3351,726.1333,726.1334,727.2291,return,0.2121,,89.97395833,,,,,,FBP-OG-91.png,0.43,1.2,14,1,,,,,,,,,,,,,0,26,26,13,1,,,,,,,,,,,,,,,,,,,,,,,,,,,,
,,,,,WIN24_025,19,Female,2024-01-31_15h01.10.972,jersey_experiment_5,2023.2.2,Win32,84.74576271,,,,,,,,,,,,,,,,727.2293,728.5302,728.5302,730.0293,return,0.1644,,86.19791667,,,,,,FBP-RB-17.png,0.45,1.2,20,0.5,,,,,,,,,,,,,0,27,27,19,1,,,,,,,,,,,,,,,,,,,,,,,,,,,,
,,,,,WIN24_025,19,Female,2024-01-31_15h01.10.972,jersey_experiment_5,2023.2.2,Win32,84.74576271,,,,,,,,,,,,,,,,730.0295,731.8277,731.8277,733.0478,return,0.148,,49.73958333,,,,,,FBP-OG-81.png,0.35,1.2,6,1,,,,,,,,,,,,,0,28,28,5,1,,,,,,,,,,,,,,,,,,,,,,,,,,,,
,,,,,WIN24_025,19,Female,2024-01-31_15h01.10.972,jersey_experiment_5,2023.2.2,Win32,84.74576271,,,,,,,,,,,,,,,,733.048,734.3454,734.3454,735.1694,return,0.1184,,49.73958333,,,,,,FBP-YG-81.png,0.4,1.2,38,0.5,,,,,,,,,,,,,0,29,29,37,1,,,,,,,,,,,,,,,,,,,,,,,,,,,,
,,,,,WIN24_025,19,Female,2024-01-31_15h01.10.972,jersey_experiment_5,2023.2.2,Win32,84.74576271,,,,,,,,,,,,,,,,735.1697,736.4633,736.4633,737.6396,return,0.1986,,75.13020833,,,,,,FBP-YG-91.png,0.43,1.2,44,0.5,,,,,,,,,,,,,0,30,30,43,1,,,,,,,,,,,,,,,,,,,,,,,,,,,,
,,,,,WIN24_025,19,Female,2024-01-31_15h01.10.972,jersey_experiment_5,2023.2.2,Win32,84.74576271,,,,,,,,,,,,,,,,737.6398,739.4364,739.4365,740.2751,return,0.105,,74.86979167,,,,,,FBP-PT-17.png,0.43,1.2,49,1,,,,,,,,,,,,,0,31,31,48,1,,,,,,,,,,,,,,,,,,,,,,,,,,,,
,,,,,WIN24_025,19,Female,2024-01-31_15h01.10.972,jersey_experiment_5,2023.2.2,Win32,84.74576271,,,,,,,,,,,,,,,,740.2753,741.5776,741.5776,743.4045,return,0.0105,,61.45833333,,,,,,FBP-YG-71.png,0.4,1.2,33,0.5,,,,,,,,,,,,,0,32,32,32,1,,,,,,,,,,,,,,,,,,,,,,,,,,,,
,,,,,WIN24_025,19,Female,2024-01-31_15h01.10.972,jersey_experiment_5,2023.2.2,Win32,84.74576271,,,,,,,,,,,,,,,,743.4046,745.2062,745.2062,746.1543,return,0.1455,,50.13020833,,,,,,FBP-PT-18.png,0.37,1.2,52,1,,,,,,,,,,,,,0,33,33,51,1,,,,,,,,,,,,,,,,,,,,,,,,,,,,
,,,,,WIN24_025,19,Female,2024-01-31_15h01.10.972,jersey_experiment_5,2023.2.2,Win32,84.74576271,,,,,,,,,,,,,,,,746.1546,747.4485,747.4485,748.6367,return,0.4268,,49.86979167,,,,,,FBP-RB-17.png,0.37,1.2,17,0.5,,,,,,,,,,,,,0,34,34,16,1,,,,,,,,,,,,,,,,,,,,,,,,,,,,
,,,,,WIN24_025,19,Female,2024-01-31_15h01.10.972,jersey_experiment_5,2023.2.2,Win32,84.74576271,,,,,,,,,,,,,,,,748.6368,750.4296,750.4296,751.378,return,0.1887,,74.86979167,,,,,,FBP-OG-91.png,0.45,1.2,15,1,,,,,,,,,,,,,0,35,35,14,1,,,,,,,,,,,,,,,,,,,,,,,,,,,,
,,,,,WIN24_025,19,Female,2024-01-31_15h01.10.972,jersey_experiment_5,2023.2.2,Win32,84.74576271,,,,,,,,,,,,,,,,751.3784,752.6722,752.6722,753.8722,return,0.1414,,49.73958333,,,,,,FBP-RB-18.png,0.43,1.2,24,0.5,,,,,,,,,,,,,0,36,36,23,1,,,,,,,,,,,,,,,,,,,,,,,,,,,,
,,,,,WIN24_025,19,Female,2024-01-31_15h01.10.972,jersey_experiment_5,2023.2.2,Win32,84.74576271,,,,,,,,,,,,,,,,753.8724,755.6722,755.6722,757.0723,return,0.1886,,75.390625,,,,,,FBP-OG-81.png,0.43,1.2,9,1,,,,,,,,,,,,,0,37,37,8,1,,,,,,,,,,,,,,,,,,,,,,,,,,,,
,,,,,WIN24_025,19,Female,2024-01-31_15h01.10.972,jersey_experiment_5,2023.2.2,Win32,84.74576271,,,,,,,,,,,,,,,,757.0725,758.8641,758.8641,760.0173,return,0.236,,49.86979167,,,,,,FBP-OG-91.png,0.4,1.2,13,1,,,,,,,,,,,,,0,38,38,12,1,,,,,,,,,,,,,,,,,,,,,,,,,,,,
,,,,,WIN24_025,19,Female,2024-01-31_15h01.10.972,jersey_experiment_5,2023.2.2,Win32,84.74576271,,,,,,,,,,,,,,,,760.0175,761.311,761.311,762.3313,return,0.1326,,25.78125,,,,,,FBP-YG-71.png,0.35,1.2,31,0.5,,,,,,,,,,,,,0,39,39,30,1,,,,,,,,,,,,,,,,,,,,,,,,,,,,
,,,,,WIN24_025,19,Female,2024-01-31_15h01.10.972,jersey_experiment_5,2023.2.2,Win32,84.74576271,,,,,,,,,,,,,,,,762.3315,764.1243,764.1243,765.066,return,0.0373,,33.85416667,,,,,,FBP-PT-19.png,0.37,1.2,57,1,,,,,,,,,,,,,0,40,40,56,1,,,,,,,,,,,,,,,,,,,,,,,,,,,,
,,,,,WIN24_025,19,Female,2024-01-31_15h01.10.972,jersey_experiment_5,2023.2.2,Win32,84.74576271,,,,,,,,,,,,,,,,765.0662,766.3667,766.3668,767.3903,return,0.1059,,23.30729167,,,,,,FBP-YG-91.png,0.37,1.2,42,0.5,,,,,,,,,,,,,0,41,41,41,1,,,,,,,,,,,,,,,,,,,,,,,,,,,,
,,,,,WIN24_025,19,Female,2024-01-31_15h01.10.972,jersey_experiment_5,2023.2.2,Win32,84.74576271,,,,,,,,,,,,,,,,767.3903,769.184,769.184,770.0305,return,0.2355,,75.52083333,,,,,,FBP-OG-81.png,0.45,1.2,10,1,,,,,,,,,,,,,0,42,42,9,1,,,,,,,,,,,,,,,,,,,,,,,,,,,,
,,,,,WIN24_025,19,Female,2024-01-31_15h01.10.972,jersey_experiment_5,2023.2.2,Win32,84.74576271,,,,,,,,,,,,,,,,770.0307,771.8258,771.8258,773.9469,return,0.1519,,20.83333333,,,,,,FBP-OG-71.png,0.35,1.2,1,1,,,,,,,,,,,,,0,43,43,0,1,,,,,,,,,,,,,,,,,,,,,,,,,,,,
,,,,,WIN24_025,19,Female,2024-01-31_15h01.10.972,jersey_experiment_5,2023.2.2,Win32,84.74576271,,,,,,,,,,,,,,,,773.9471,775.254,775.254,776.2846,return,0.1548,,9.505208333,,,,,,FBP-RB-19.png,0.35,1.2,26,0.5,,,,,,,,,,,,,0,44,44,25,1,,,,,,,,,,,,,,,,,,,,,,,,,,,,
,,,,,WIN24_025,19,Female,2024-01-31_15h01.10.972,jersey_experiment_5,2023.2.2,Win32,84.74576271,,,,,,,,,,,,,,,,776.2848,777.5841,777.5842,779.4496,return,0.0885,,68.09895833,,,,,,FBP-YG-71.png,0.43,1.2,34,0.5,,,,,,,,,,,,,0,45,45,33,1,,,,,,,,,,,,,,,,,,,,,,,,,,,,
,,,,,WIN24_025,19,Female,2024-01-31_15h01.10.972,jersey_experiment_5,2023.2.2,Win32,84.74576271,,,,,,,,,,,,,,,,779.4497,780.7469,780.747,781.673,return,0.1348,,74.73958333,,,,,,FBP-YG-81.png,0.43,1.2,39,0.5,,,,,,,,,,,,,0,46,46,38,1,,,,,,,,,,,,,,,,,,,,,,,,,,,,
,,,,,WIN24_025,19,Female,2024-01-31_15h01.10.972,jersey_experiment_5,2023.2.2,Win32,84.74576271,,,,,,,,,,,,,,,,781.6733,783.4661,783.4661,784.559,return,0.165,,74.86979167,,,,,,FBP-PT-17.png,0.4,1.2,48,1,,,,,,,,,,,,,0,47,47,47,1,,,,,,,,,,,,,,,,,,,,,,,,,,,,
,,,,,WIN24_025,19,Female,2024-01-31_15h01.10.972,jersey_experiment_5,2023.2.2,Win32,84.74576271,,,,,,,,,,,,,,,,784.5592,785.8615,785.8615,786.6734,return,0.0237,,48.95833333,,,,,,FBP-RB-18.png,0.4,1.2,23,0.5,,,,,,,,,,,,,0,48,48,22,1,,,,,,,,,,,,,,,,,,,,,,,,,,,,
,,,,,WIN24_025,19,Female,2024-01-31_15h01.10.972,jersey_experiment_5,2023.2.2,Win32,84.74576271,,,,,,,,,,,,,,,,786.6736,788.4779,788.4779,789.2078,return,0.084,,74.609375,,,,,,FBP-PT-17.png,0.45,1.2,50,1,,,,,,,,,,,,,0,49,49,49,1,,,,,,,,,,,,,,,,,,,,,,,,,,,,
,,,,,WIN24_025,19,Female,2024-01-31_15h01.10.972,jersey_experiment_5,2023.2.2,Win32,84.74576271,,,,,,,,,,,,,,,,789.208,790.5014,790.5014,791.514,return,0.0838,,92.83854167,,,,,,FBP-YG-71.png,0.45,1.2,35,0.5,,,,,,,,,,,,,0,50,50,34,1,,,,,,,,,,,,,,,,,,,,,,,,,,,,
,,,,,WIN24_025,19,Female,2024-01-31_15h01.10.972,jersey_experiment_5,2023.2.2,Win32,84.74576271,,,,,,,,,,,,,,,,791.5141,793.3121,793.3121,794.1722,return,0.0234,,96.484375,,,,,,FBP-PT-18.png,0.43,1.2,54,1,,,,,,,,,,,,,0,51,51,53,1,,,,,,,,,,,,,,,,,,,,,,,,,,,,
,,,,,WIN24_025,19,Female,2024-01-31_15h01.10.972,jersey_experiment_5,2023.2.2,Win32,84.74576271,,,,,,,,,,,,,,,,794.1724,795.9713,795.9714,796.9256,return,0.1545,,50,,,,,,FBP-PT-19.png,0.35,1.2,56,1,,,,,,,,,,,,,0,52,52,55,1,,,,,,,,,,,,,,,,,,,,,,,,,,,,
,,,,,WIN24_025,19,Female,2024-01-31_15h01.10.972,jersey_experiment_5,2023.2.2,Win32,84.74576271,,,,,,,,,,,,,,,,796.9259,798.724,798.724,800.0551,return,0.0942,,24.86979167,,,,,,FBP-OG-81.png,0.37,1.2,7,1,,,,,,,,,,,,,0,53,53,6,1,,,,,,,,,,,,,,,,,,,,,,,,,,,,
,,,,,WIN24_025,19,Female,2024-01-31_15h01.10.972,jersey_experiment_5,2023.2.2,Win32,84.74576271,,,,,,,,,,,,,,,,800.0553,801.3563,801.3563,802.4318,return,0.1416,,50.52083333,,,,,,FBP-RB-17.png,0.4,1.2,18,0.5,,,,,,,,,,,,,0,54,54,17,1,,,,,,,,,,,,,,,,,,,,,,,,,,,,
,,,,,WIN24_025,19,Female,2024-01-31_15h01.10.972,jersey_experiment_5,2023.2.2,Win32,84.74576271,,,,,,,,,,,,,,,,802.432,804.227,804.227,805.074,return,0.0943,,50.52083333,,,,,,FBP-PT-17.png,0.35,1.2,46,1,,,,,,,,,,,,,0,55,55,45,1,,,,,,,,,,,,,,,,,,,,,,,,,,,,
,,,,,WIN24_025,19,Female,2024-01-31_15h01.10.972,jersey_experiment_5,2023.2.2,Win32,84.74576271,,,,,,,,,,,,,,,,805.0742,806.3715,806.3715,807.656,return,0.1654,,75.91145833,,,,,,FBP-RB-18.png,0.45,1.2,25,0.5,,,,,,,,,,,,,0,56,56,24,1,,,,,,,,,,,,,,,,,,,,,,,,,,,,
,,,,,WIN24_025,19,Female,2024-01-31_15h01.10.972,jersey_experiment_5,2023.2.2,Win32,84.74576271,,,,,,,,,,,,,,,,807.6561,808.96,808.96,810.0555,return,0.1179,,49.34895833,,,,,,FBP-RB-19.png,0.37,1.2,27,0.5,,,,,,,,,,,,,0,57,57,26,1,,,,,,,,,,,,,,,,,,,,,,,,,,,,
,,,,,WIN24_025,19,Female,2024-01-31_15h01.10.972,jersey_experiment_5,2023.2.2,Win32,84.74576271,,,,,,,,,,,,,,,,810.0558,811.8539,811.8539,812.7382,return,0.0709,,74.73958333,,,,,,FBP-PT-18.png,0.4,1.2,53,1,,,,,,,,,,,,,0,58,58,52,1,,,,,,,,,,,,,,,,,,,,,,,,,,,,
,,,,,WIN24_025,19,Female,2024-01-31_15h01.10.972,jersey_experiment_5,2023.2.2,Win32,84.74576271,,,,,,,,,,,,,,,,812.7383,814.0391,814.0391,815.3568,return,0.1429,,24.73958333,,,,,,FBP-YG-81.png,0.35,1.2,36,0.5,,,,,,,,,,,,,0,59,59,35,1,,,,,,,,,,,,,,,,,,,,,,,,,,,,
,,,,,WIN24_025,19,Female,2024-01-31_15h01.10.972,jersey_experiment_5,2023.2.2,Win32,84.74576271,,,,,,,,,,,,,,,,815.3586,817.1567,817.1567,817.8439,return,0.2016,,24.73958333,,,,,,FBP-OG-19.png,0.35,1.2,11,1,,,,,,,,,,,,,,,,,,0,0,0,10,1,,,,,,,,,,,,,,,,,,,,,,,
,,,,,WIN24_025,19,Female,2024-01-31_15h01.10.972,jersey_experiment_5,2023.2.2,Win32,84.74576271,,,,,,,,,,,,,,,,817.8441,819.1487,819.1487,820.6982,return,0.1823,,49.08854167,,,,,,FBP-YG-18.png,0.4,1.2,38,0.5,,,,,,,,,,,,,,,,,,0,1,1,37,1,,,,,,,,,,,,,,,,,,,,,,,
,,,,,WIN24_025,19,Female,2024-01-31_15h01.10.972,jersey_experiment_5,2023.2.2,Win32,84.74576271,,,,,,,,,,,,,,,,820.6983,821.9923,821.9923,822.9263,return,0.0604,,74.86979167,,,,,,FBP-YG-17.png,0.45,1.2,35,0.5,,,,,,,,,,,,,,,,,,0,2,2,34,1,,,,,,,,,,,,,,,,,,,,,,,
,,,,,WIN24_025,19,Female,2024-01-31_15h01.10.972,jersey_experiment_5,2023.2.2,Win32,84.74576271,,,,,,,,,,,,,,,,822.9265,824.2308,824.2308,825.3841,return,0.1284,,99.73958333,,,,,,FBP-YG-19.png,0.45,1.2,45,0.5,,,,,,,,,,,,,,,,,,0,3,3,44,1,,,,,,,,,,,,,,,,,,,,,,,
,,,,,WIN24_025,19,Female,2024-01-31_15h01.10.972,jersey_experiment_5,2023.2.2,Win32,84.74576271,,,,,,,,,,,,,,,,825.3842,826.6779,826.6779,827.985,return,0.107,,48.95833333,,,,,,FBP-YG-18.png,0.37,1.2,37,0.5,,,,,,,,,,,,,,,,,,0,4,4,36,1,,,,,,,,,,,,,,,,,,,,,,,
,,,,,WIN24_025,19,Female,2024-01-31_15h01.10.972,jersey_experiment_5,2023.2.2,Win32,84.74576271,,,,,,,,,,,,,,,,827.9852,829.2867,829.2867,830.4198,return,0.1651,,25.26041667,,,,,,FBP-RB-91.png,0.35,1.2,26,0.5,,,,,,,,,,,,,,,,,,0,5,5,25,1,,,,,,,,,,,,,,,,,,,,,,,
,,,,,WIN24_025,19,Female,2024-01-31_15h01.10.972,jersey_experiment_5,2023.2.2,Win32,84.74576271,,,,,,,,,,,,,,,,830.42,832.2161,832.2161,833.0044,return,0.1326,,24.34895833,,,,,,FBP-PT-81.png,0.35,1.2,51,1,,,,,,,,,,,,,,,,,,0,6,6,50,1,,,,,,,,,,,,,,,,,,,,,,,
,,,,,WIN24_025,19,Female,2024-01-31_15h01.10.972,jersey_experiment_5,2023.2.2,Win32,84.74576271,,,,,,,,,,,,,,,,833.0045,834.3019,834.3019,835.5928,return,0.0292,,75.13020833,,,,,,FBP-RB-71.png,0.43,1.2,19,0.5,,,,,,,,,,,,,,,,,,0,7,7,18,1,,,,,,,,,,,,,,,,,,,,,,,
,,,,,WIN24_025,19,Female,2024-01-31_15h01.10.972,jersey_experiment_5,2023.2.2,Win32,84.74576271,,,,,,,,,,,,,,,,835.5929,837.3978,837.3978,838.2213,return,0.1649,,50.26041667,,,,,,FBP-PT-81.png,0.37,1.2,52,1,,,,,,,,,,,,,,,,,,0,8,8,51,1,,,,,,,,,,,,,,,,,,,,,,,
,,,,,WIN24_025,19,Female,2024-01-31_15h01.10.972,jersey_experiment_5,2023.2.2,Win32,84.74576271,,,,,,,,,,,,,,,,838.2214,840.0199,840.0199,840.6633,return,0.0658,,49.47916667,,,,,,FBP-OG-17.png,0.37,1.2,2,1,,,,,,,,,,,,,,,,,,0,9,9,1,1,,,,,,,,,,,,,,,,,,,,,,,
,,,,,WIN24_025,19,Female,2024-01-31_15h01.10.972,jersey_experiment_5,2023.2.2,Win32,84.74576271,,,,,,,,,,,,,,,,840.6636,841.9577,841.9577,843.1341,return,0.0591,,76.04166667,,,,,,FBP-RB-71.png,0.45,1.2,20,0.5,,,,,,,,,,,,,,,,,,0,10,10,19,1,,,,,,,,,,,,,,,,,,,,,,,
,,,,,WIN24_025,19,Female,2024-01-31_15h01.10.972,jersey_experiment_5,2023.2.2,Win32,84.74576271,,,,,,,,,,,,,,,,843.1343,844.9343,844.9343,845.9814,return,0.0358,,49.47916667,,,,,,FBP-OG-17.png,0.4,1.2,3,1,,,,,,,,,,,,,,,,,,0,11,11,2,1,,,,,,,,,,,,,,,,,,,,,,,
,,,,,WIN24_025,19,Female,2024-01-31_15h01.10.972,jersey_experiment_5,2023.2.2,Win32,84.74576271,,,,,,,,,,,,,,,,845.9815,847.2755,847.2755,848.252,return,0.0492,,74.21875,,,,,,FBP-YG-19.png,0.4,1.2,43,0.5,,,,,,,,,,,,,,,,,,0,12,12,42,1,,,,,,,,,,,,,,,,,,,,,,,
,,,,,WIN24_025,19,Female,2024-01-31_15h01.10.972,jersey_experiment_5,2023.2.2,Win32,84.74576271,,,,,,,,,,,,,,,,848.2522,850.0435,850.0435,851.0639,return,0.0184,,70.3125,,,,,,FBP-OG-19.png,0.43,1.2,14,1,,,,,,,,,,,,,,,,,,0,13,13,13,1,,,,,,,,,,,,,,,,,,,,,,,
,,,,,WIN24_025,19,Female,2024-01-31_15h01.10.972,jersey_experiment_5,2023.2.2,Win32,84.74576271,,,,,,,,,,,,,,,,851.064,852.3627,852.3627,853.4168,return,0.0173,,49.47916667,,,,,,FBP-RB-81.png,0.4,1.2,23,0.5,,,,,,,,,,,,,,,,,,0,14,14,22,1,,,,,,,,,,,,,,,,,,,,,,,
,,,,,WIN24_025,19,Female,2024-01-31_15h01.10.972,jersey_experiment_5,2023.2.2,Win32,84.74576271,,,,,,,,,,,,,,,,853.417,854.7109,854.7109,855.4523,return,0.167,,49.34895833,,,,,,FBP-RB-71.png,0.37,1.2,17,0.5,,,,,,,,,,,,,,,,,,0,15,15,16,1,,,,,,,,,,,,,,,,,,,,,,,
,,,,,WIN24_025,19,Female,2024-01-31_15h01.10.972,jersey_experiment_5,2023.2.2,Win32,84.74576271,,,,,,,,,,,,,,,,855.4525,857.2523,857.2523,858.3737,return,0.1985,,26.30208333,,,,,,FBP-PT-71.png,0.35,1.2,46,1,,,,,,,,,,,,,,,,,,0,16,16,45,1,,,,,,,,,,,,,,,,,,,,,,,
,,,,,WIN24_025,19,Female,2024-01-31_15h01.10.972,jersey_experiment_5,2023.2.2,Win32,84.74576271,,,,,,,,,,,,,,,,858.3739,859.6759,859.6759,861.009,return,0.2121,,24.47916667,,,,,,FBP-YG-17.png,0.35,1.2,31,0.5,,,,,,,,,,,,,,,,,,0,17,17,30,1,,,,,,,,,,,,,,,,,,,,,,,
,,,,,WIN24_025,19,Female,2024-01-31_15h01.10.972,jersey_experiment_5,2023.2.2,Win32,84.74576271,,,,,,,,,,,,,,,,861.0091,862.8102,862.8102,864.2225,return,0.8239,,49.86979167,,,,,,FBP-PT-71.png,0.37,1.2,47,1,,,,,,,,,,,,,,,,,,0,18,18,46,1,,,,,,,,,,,,,,,,,,,,,,,
,,,,,WIN24_025,19,Female,2024-01-31_15h01.10.972,jersey_experiment_5,2023.2.2,Win32,84.74576271,,,,,,,,,,,,,,,,864.2226,865.5232,865.5232,866.9286,return,0.2256,,79.6875,,,,,,FBP-RB-81.png,0.45,1.2,25,0.5,,,,,,,,,,,,,,,,,,0,19,19,24,1,,,,,,,,,,,,,,,,,,,,,,,
,,,,,WIN24_025,19,Female,2024-01-31_15h01.10.972,jersey_experiment_5,2023.2.2,Win32,84.74576271,,,,,,,,,,,,,,,,866.9289,868.7266,868.7266,869.4697,return,0.2018,,49.86979167,,,,,,FBP-OG-19.png,0.37,1.2,12,1,,,,,,,,,,,,,,,,,,0,20,20,11,1,,,,,,,,,,,,,,,,,,,,,,,
,,,,,WIN24_025,19,Female,2024-01-31_15h01.10.972,jersey_experiment_5,2023.2.2,Win32,84.74576271,,,,,,,,,,,,,,,,869.4698,871.2678,871.2678,872.1705,return,0.0524,,74.47916667,,,,,,FBP-OG-17.png,0.43,1.2,4,1,,,,,,,,,,,,,,,,,,0,21,21,3,1,,,,,,,,,,,,,,,,,,,,,,,
,,,,,WIN24_025,19,Female,2024-01-31_15h01.10.972,jersey_experiment_5,2023.2.2,Win32,84.74576271,,,,,,,,,,,,,,,,872.1707,873.4646,873.4646,876.4178,return,1.6368,,50.13020833,,,,,,FBP-RB-81.png,0.35,1.2,21,0.5,,,,,,,,,,,,,,,,,,0,22,22,20,1,,,,,,,,,,,,,,,,,,,,,,,
,,,,,WIN24_025,19,Female,2024-01-31_15h01.10.972,jersey_experiment_5,2023.2.2,Win32,84.74576271,,,,,,,,,,,,,,,,876.418,877.7119,877.7119,878.3944,return,0.0748,,50,,,,,,FBP-YG-17.png,0.37,1.2,32,0.5,,,,,,,,,,,,,,,,,,0,23,23,31,1,,,,,,,,,,,,,,,,,,,,,,,
,,,,,WIN24_025,19,Female,2024-01-31_15h01.10.972,jersey_experiment_5,2023.2.2,Win32,84.74576271,,,,,,,,,,,,,,,,878.3946,880.1996,880.1996,881.117,return,0.165,,75.91145833,,,,,,FBP-OG-18.png,0.45,1.2,10,1,,,,,,,,,,,,,,,,,,0,24,24,9,1,,,,,,,,,,,,,,,,,,,,,,,
,,,,,WIN24_025,19,Female,2024-01-31_15h01.10.972,jersey_experiment_5,2023.2.2,Win32,84.74576271,,,,,,,,,,,,,,,,881.1172,882.9121,882.9121,885.0801,return,0.1988,,88.54166667,,,,,,FBP-PT-71.png,0.45,1.2,50,1,,,,,,,,,,,,,,,,,,0,25,25,49,1,,,,,,,,,,,,,,,,,,,,,,,
,,,,,WIN24_025,19,Female,2024-01-31_15h01.10.972,jersey_experiment_5,2023.2.2,Win32,84.74576271,,,,,,,,,,,,,,,,885.0803,886.8816,886.8817,887.8936,return,0.1885,,84.24479167,,,,,,FBP-PT-91.png,0.45,1.2,60,1,,,,,,,,,,,,,,,,,,0,26,26,59,1,,,,,,,,,,,,,,,,,,,,,,,
,,,,,WIN24_025,19,Female,2024-01-31_15h01.10.972,jersey_experiment_5,2023.2.2,Win32,84.74576271,,,,,,,,,,,,,,,,887.8939,889.1947,889.1947,890.4219,return,0.0579,,23.69791667,,,,,,FBP-YG-18.png,0.35,1.2,36,0.5,,,,,,,,,,,,,,,,,,0,27,27,35,1,,,,,,,,,,,,,,,,,,,,,,,
,,,,,WIN24_025,19,Female,2024-01-31_15h01.10.972,jersey_experiment_5,2023.2.2,Win32,84.74576271,,,,,,,,,,,,,,,,890.4221,891.7155,891.7155,893.689,return,0.0056,,24.86979167,,,,,,FBP-RB-71.png,0.35,1.2,16,0.5,,,,,,,,,,,,,,,,,,0,28,28,15,1,,,,,,,,,,,,,,,,,,,,,,,
,,,,,WIN24_025,19,Female,2024-01-31_15h01.10.972,jersey_experiment_5,2023.2.2,Win32,84.74576271,,,,,,,,,,,,,,,,893.6891,895.4805,895.4805,896.4349,return,0.0235,,49.21875,,,,,,FBP-OG-19.png,0.4,1.2,13,1,,,,,,,,,,,,,,,,,,0,29,29,12,1,,,,,,,,,,,,,,,,,,,,,,,
,,,,,WIN24_025,19,Female,2024-01-31_15h01.10.972,jersey_experiment_5,2023.2.2,Win32,84.74576271,,,,,,,,,,,,,,,,896.435,898.2303,898.2304,899.7834,return,0.1718,,60.15625,,,,,,FBP-PT-91.png,0.4,1.2,58,1,,,,,,,,,,,,,,,,,,0,30,30,57,1,,,,,,,,,,,,,,,,,,,,,,,
,,,,,WIN24_025,19,Female,2024-01-31_15h01.10.972,jersey_experiment_5,2023.2.2,Win32,84.74576271,,,,,,,,,,,,,,,,899.7836,901.0775,901.0775,902.6658,return,0.4637,,61.06770833,,,,,,FBP-YG-17.png,0.4,1.2,33,0.5,,,,,,,,,,,,,,,,,,0,31,31,32,1,,,,,,,,,,,,,,,,,,,,,,,
,,,,,WIN24_025,19,Female,2024-01-31_15h01.10.972,jersey_experiment_5,2023.2.2,Win32,84.74576271,,,,,,,,,,,,,,,,902.6659,903.9599,903.9599,905.1991,return,0.1651,,74.34895833,,,,,,FBP-RB-91.png,0.45,1.2,30,0.5,,,,,,,,,,,,,,,,,,0,32,32,29,1,,,,,,,,,,,,,,,,,,,,,,,
,,,,,WIN24_025,19,Female,2024-01-31_15h01.10.972,jersey_experiment_5,2023.2.2,Win32,84.74576271,,,,,,,,,,,,,,,,905.1992,906.9953,906.9953,908.7178,return,0.1414,,50.26041667,,,,,,FBP-PT-91.png,0.37,1.2,57,1,,,,,,,,,,,,,,,,,,0,33,33,56,1,,,,,,,,,,,,,,,,,,,,,,,
,,,,,WIN24_025,19,Female,2024-01-31_15h01.10.972,jersey_experiment_5,2023.2.2,Win32,84.74576271,,,,,,,,,,,,,,,,908.7179,910.019,910.019,911.5954,return,0.6146,,50.13020833,,,,,,FBP-RB-91.png,0.4,1.2,28,0.5,,,,,,,,,,,,,,,,,,0,34,34,27,1,,,,,,,,,,,,,,,,,,,,,,,
,,,,,WIN24_025,19,Female,2024-01-31_15h01.10.972,jersey_experiment_5,2023.2.2,Win32,84.74576271,,,,,,,,,,,,,,,,911.5955,912.8896,912.8896,914.1402,return,0.2826,,75.91145833,,,,,,FBP-YG-18.png,0.45,1.2,40,0.5,,,,,,,,,,,,,,,,,,0,35,35,39,1,,,,,,,,,,,,,,,,,,,,,,,
,,,,,WIN24_025,19,Female,2024-01-31_15h01.10.972,jersey_experiment_5,2023.2.2,Win32,84.74576271,,,,,,,,,,,,,,,,914.1403,915.4426,915.4427,916.4778,return,0.0017,,48.95833333,,,,,,FBP-RB-91.png,0.37,1.2,27,0.5,,,,,,,,,,,,,,,,,,0,36,36,26,1,,,,,,,,,,,,,,,,,,,,,,,
,,,,,WIN24_025,19,Female,2024-01-31_15h01.10.972,jersey_experiment_5,2023.2.2,Win32,84.74576271,,,,,,,,,,,,,,,,916.478,918.2709,918.2709,919.0344,return,0.1283,,50,,,,,,FBP-PT-91.png,0.35,1.2,56,1,,,,,,,,,,,,,,,,,,0,37,37,55,1,,,,,,,,,,,,,,,,,,,,,,,
,,,,,WIN24_025,19,Female,2024-01-31_15h01.10.972,jersey_experiment_5,2023.2.2,Win32,84.74576271,,,,,,,,,,,,,,,,919.0345,920.337,920.337,921.3252,return,0.0732,,24.609375,,,,,,FBP-RB-81.png,0.37,1.2,22,0.5,,,,,,,,,,,,,,,,,,0,38,38,21,1,,,,,,,,,,,,,,,,,,,,,,,
,,,,,WIN24_025,19,Female,2024-01-31_15h01.10.972,jersey_experiment_5,2023.2.2,Win32,84.74576271,,,,,,,,,,,,,,,,921.3254,922.6194,922.6195,923.7842,return,0.0298,,39.19270833,,,,,,FBP-YG-19.png,0.35,1.2,41,0.5,,,,,,,,,,,,,,,,,,0,39,39,40,1,,,,,,,,,,,,,,,,,,,,,,,
,,,,,WIN24_025,19,Female,2024-01-31_15h01.10.972,jersey_experiment_5,2023.2.2,Win32,84.74576271,,,,,,,,,,,,,,,,923.7845,925.5842,925.5842,926.3756,return,0.0339,,49.609375,,,,,,FBP-OG-18.png,0.37,1.2,7,1,,,,,,,,,,,,,,,,,,0,40,40,6,1,,,,,,,,,,,,,,,,,,,,,,,
,,,,,WIN24_025,19,Female,2024-01-31_15h01.10.972,jersey_experiment_5,2023.2.2,Win32,84.74576271,,,,,,,,,,,,,,,,926.3758,928.1773,928.1773,929.1491,return,0.0954,,75.390625,,,,,,FBP-OG-17.png,0.45,1.2,5,1,,,,,,,,,,,,,,,,,,0,41,41,4,1,,,,,,,,,,,,,,,,,,,,,,,
,,,,,WIN24_025,19,Female,2024-01-31_15h01.10.972,jersey_experiment_5,2023.2.2,Win32,84.74576271,,,,,,,,,,,,,,,,929.1492,930.4433,930.4433,931.2834,return,0.0605,,75.26041667,,,,,,FBP-YG-19.png,0.43,1.2,44,0.5,,,,,,,,,,,,,,,,,,0,42,42,43,1,,,,,,,,,,,,,,,,,,,,,,,
,,,,,WIN24_025,19,Female,2024-01-31_15h01.10.972,jersey_experiment_5,2023.2.2,Win32,84.74576271,,,,,,,,,,,,,,,,931.2837,933.0786,933.0786,933.66,return,0.1409,,75.26041667,,,,,,FBP-PT-81.png,0.43,1.2,54,1,,,,,,,,,,,,,,,,,,0,43,43,53,1,,,,,,,,,,,,,,,,,,,,,,,
,,,,,WIN24_025,19,Female,2024-01-31_15h01.10.972,jersey_experiment_5,2023.2.2,Win32,84.74576271,,,,,,,,,,,,,,,,933.6602,935.4552,935.4552,936.0364,return,0.1547,,75.26041667,,,,,,FBP-OG-19.png,0.45,1.2,15,1,,,,,,,,,,,,,,,,,,0,44,44,14,1,,,,,,,,,,,,,,,,,,,,,,,
,,,,,WIN24_025,19,Female,2024-01-31_15h01.10.972,jersey_experiment_5,2023.2.2,Win32,84.74576271,,,,,,,,,,,,,,,,936.0366,937.3303,937.3304,938.3428,return,0.118,,75.26041667,,,,,,FBP-YG-18.png,0.43,1.2,39,0.5,,,,,,,,,,,,,,,,,,0,45,45,38,1,,,,,,,,,,,,,,,,,,,,,,,
,,,,,WIN24_025,19,Female,2024-01-31_15h01.10.972,jersey_experiment_5,2023.2.2,Win32,84.74576271,,,,,,,,,,,,,,,,938.343,939.6435,939.6435,940.6671,return,0.0517,,24.21875,,,,,,FBP-YG-19.png,0.37,1.2,42,0.5,,,,,,,,,,,,,,,,,,0,46,46,41,1,,,,,,,,,,,,,,,,,,,,,,,
,,,,,WIN24_025,19,Female,2024-01-31_15h01.10.972,jersey_experiment_5,2023.2.2,Win32,84.74576271,,,,,,,,,,,,,,,,940.6673,941.966,941.966,943.1378,return,0.118,,50.26041667,,,,,,FBP-RB-91.png,0.43,1.2,29,0.5,,,,,,,,,,,,,,,,,,0,47,47,28,1,,,,,,,,,,,,,,,,,,,,,,,
,,,,,WIN24_025,19,Female,2024-01-31_15h01.10.972,jersey_experiment_5,2023.2.2,Win32,84.74576271,,,,,,,,,,,,,,,,943.1379,944.9379,944.9379,945.9297,return,0.1992,,50.13020833,,,,,,FBP-PT-71.png,0.43,1.2,49,1,,,,,,,,,,,,,,,,,,0,48,48,48,1,,,,,,,,,,,,,,,,,,,,,,,
,,,,,WIN24_025,19,Female,2024-01-31_15h01.10.972,jersey_experiment_5,2023.2.2,Win32,84.74576271,,,,,,,,,,,,,,,,945.9298,947.7309,947.7309,948.5415,return,0.1754,,50.13020833,,,,,,FBP-OG-18.png,0.43,1.2,9,1,,,,,,,,,,,,,,,,,,0,49,49,8,1,,,,,,,,,,,,,,,,,,,,,,,
,,,,,WIN24_025,19,Female,2024-01-31_15h01.10.972,jersey_experiment_5,2023.2.2,Win32,84.74576271,,,,,,,,,,,,,,,,948.5415,950.338,950.338,950.9884,return,0.1516,,50.13020833,,,,,,FBP-PT-71.png,0.4,1.2,48,1,,,,,,,,,,,,,,,,,,0,50,50,47,1,,,,,,,,,,,,,,,,,,,,,,,
,,,,,WIN24_025,19,Female,2024-01-31_15h01.10.972,jersey_experiment_5,2023.2.2,Win32,84.74576271,,,,,,,,,,,,,,,,950.9886,952.7898,952.7899,953.5852,return,0.1176,,49.47916667,,,,,,FBP-OG-18.png,0.4,1.2,8,1,,,,,,,,,,,,,,,,,,0,51,51,7,1,,,,,,,,,,,,,,,,,,,,,,,
,,,,,WIN24_025,19,Female,2024-01-31_15h01.10.972,jersey_experiment_5,2023.2.2,Win32,84.74576271,,,,,,,,,,,,,,,,953.5854,954.8794,954.8794,955.8593,return,0.1282,,49.47916667,,,,,,FBP-RB-71.png,0.4,1.2,18,0.5,,,,,,,,,,,,,,,,,,0,52,52,17,1,,,,,,,,,,,,,,,,,,,,,,,
,,,,,WIN24_025,19,Female,2024-01-31_15h01.10.972,jersey_experiment_5,2023.2.2,Win32,84.74576271,,,,,,,,,,,,,,,,955.8594,957.1536,957.1536,958.061,return,0.1785,,74.21875,,,,,,FBP-YG-17.png,0.43,1.2,34,0.5,,,,,,,,,,,,,,,,,,0,53,53,33,1,,,,,,,,,,,,,,,,,,,,,,,
,,,,,WIN24_025,19,Female,2024-01-31_15h01.10.972,jersey_experiment_5,2023.2.2,Win32,84.74576271,,,,,,,,,,,,,,,,958.0611,959.8593,959.8593,961.0361,return,0.0579,,64.0625,,,,,,FBP-PT-81.png,0.4,1.2,53,1,,,,,,,,,,,,,,,,,,0,54,54,52,1,,,,,,,,,,,,,,,,,,,,,,,
,,,,,WIN24_025,19,Female,2024-01-31_15h01.10.972,jersey_experiment_5,2023.2.2,Win32,84.74576271,,,,,,,,,,,,,,,,961.0362,962.8372,962.8372,963.6914,return,0.1676,,26.30208333,,,,,,FBP-OG-18.png,0.35,1.2,6,1,,,,,,,,,,,,,,,,,,0,55,55,5,1,,,,,,,,,,,,,,,,,,,,,,,
,,,,,WIN24_025,19,Female,2024-01-31_15h01.10.972,jersey_experiment_5,2023.2.2,Win32,84.74576271,,,,,,,,,,,,,,,,963.6916,965.4963,965.4964,966.2829,return,0.2586,,27.34375,,,,,,FBP-OG-17.png,0.35,1.2,1,1,,,,,,,,,,,,,,,,,,0,56,56,0,1,,,,,,,,,,,,,,,,,,,,,,,
,,,,,WIN24_025,19,Female,2024-01-31_15h01.10.972,jersey_experiment_5,2023.2.2,Win32,84.74576271,,,,,,,,,,,,,,,,966.283,968.0849,968.0849,969.0261,return,0.1313,,77.86458333,,,,,,FBP-PT-81.png,0.45,1.2,55,1,,,,,,,,,,,,,,,,,,0,57,57,54,1,,,,,,,,,,,,,,,,,,,,,,,
,,,,,WIN24_025,19,Female,2024-01-31_15h01.10.972,jersey_experiment_5,2023.2.2,Win32,84.74576271,,,,,,,,,,,,,,,,969.0262,970.3198,970.3198,971.402,return,0.1411,,77.34375,,,,,,FBP-RB-81.png,0.43,1.2,24,0.5,,,,,,,,,,,,,,,,,,0,58,58,23,1,,,,,,,,,,,,,,,,,,,,,,,
,,,,,WIN24_025,19,Female,2024-01-31_15h01.10.972,jersey_experiment_5,2023.2.2,Win32,84.74576271,,,,,,,,,,,,,,,,971.4022,973.2008,973.2008,974.0145,return,0.1783,,83.46354167,,,,,,FBP-PT-91.png,0.43,1.2,59,1,,,,,,,,,,,,,,,,,,0,59,59,58,1,,,,,,,,,,,,,,,,,,,,,,,
,,,,,WIN24_025,19,Female,2024-01-31_15h01.10.972,jersey_experiment_5,2023.2.2,Win32,84.74576271,,,,,,,,,,,,,,,,,,,,,,,,,,,,,,,,,,,,,,,,,,,,,,,,,,,,,,,,974.0148,979.5042,return,5.4722,,,,,,,,,,,,,,,,,,,
,,,,,WIN24_025,19,Female,2024-01-31_15h01.10.972,jersey_experiment_5,2023.2.2,Win32,84.74576271,,,,,,,,,,,,,,,,,,,,,,,,,,,,,,,,,,,,,,,,,,,,,,,,,,,,,,,,,,,,,979.5043,985.9512,1,4.7519,return,1.6704,,,,,,,,,,,,
,,,,,WIN24_025,19,Female,2024-01-31_15h01.10.972,jersey_experiment_5,2023.2.2,Win32,84.74576271,,,,,,,,,,,,,,,,,,,,,,,,,,,,,,,,,,,,,,,,,,,,,,,,,,,,,,,,,,,,,,,,,,,,985.9514,1059.2456,I dont know what the study is about but i believe that the more husky football players were held on screen for a bit longer than the slender football players.,right,66.2142,,,,,,
,,,,,WIN24_025,19,Female,2024-01-31_15h01.10.972,jersey_experiment_5,2023.2.2,Win32,84.74576271,,,,,,,,,,,,,,,,,,,,,,,,,,,,,,,,,,,,,,,,,,,,,,,,,,,,,,,,,,,,,,,,,,,,,,,,,,1059.2457,1063.8717,return,4.6115,