requirements.started,requirements.stopped,key_resp_3.keys,key_resp_3.rt,key_resp_3.duration,Subject ID,Age,Gender,date,expName,psychopyVersion,OS,frameRate,instructions1.started,instructions1.stopped,key_resp.keys,key_resp.rt,key_resp.duration,example.started,example.stopped,enter_2.keys,enter_2.rt,enter_2.duration,instructions2.started,instructions2.stopped,enter_3.keys,enter_3.rt,enter_3.duration,image.started,image.stopped,slider_2.started,slider_2.stopped,next.keys,next.rt,next.duration,slider.response,trial_block_1.thisRepN,trial_block_1.thisTrialN,trial_block_1.thisN,trial_block_1.thisIndex,trial_block_1.ran,Path,Width,Height,Index,Duration,trial_block_2.thisRepN,trial_block_2.thisTrialN,trial_block_2.thisN,trial_block_2.thisIndex,trial_block_2.ran,rest_break.started,rest_break.stopped,end_break.started,end_break.stopped,key_resp_5.keys,key_resp_5.rt,key_resp_5.duration,trial_block_3.thisRepN,trial_block_3.thisTrialN,trial_block_3.thisN,trial_block_3.thisIndex,trial_block_3.ran,trial_block_4.thisRepN,trial_block_4.thisTrialN,trial_block_4.thisN,trial_block_4.thisIndex,trial_block_4.ran,questions_intro.started,questions_intro.stopped,enter_12.keys,enter_12.rt,enter_12.duration,question2.started,question2.stopped,question_doingbest.response,question_doingbest.rt,enter_15.keys,enter_15.rt,enter_15.duration,pattern.started,pattern.stopped,pattern_2.text,enter_17.keys,enter_17.rt,enter_17.duration,thankyou.started,thankyou.stopped,enter_14.keys,enter_14.rt,enter_14.duration
0.0002,31.3932,return,31.3803,,WIN24_006,18,Female,2024-01-26_14h31.36.515,jersey_experiment_5,2023.2.2,Win32,85.47008547,,,,,,,,,,,,,,,,,,,,,,,,,,,,,,,,,,,,,,,,,,,,,,,,,,,,,,,,,,,,,,,,,,,,,,,,,,,,,,
,,,,,WIN24_006,18,Female,2024-01-26_14h31.36.515,jersey_experiment_5,2023.2.2,Win32,85.47008547,31.3933,38.3215,return,6.9179,,,,,,,,,,,,,,,,,,,,,,,,,,,,,,,,,,,,,,,,,,,,,,,,,,,,,,,,,,,,,,,,,,,,,,,,,,
,,,,,WIN24_006,18,Female,2024-01-26_14h31.36.515,jersey_experiment_5,2023.2.2,Win32,85.47008547,,,,,,38.3216,44.7542,return,6.3951,,,,,,,,,,,,,,,,,,,,,,,,,,,,,,,,,,,,,,,,,,,,,,,,,,,,,,,,,,,,,,,,,,,,,
,,,,,WIN24_006,18,Female,2024-01-26_14h31.36.515,jersey_experiment_5,2023.2.2,Win32,85.47008547,,,,,,,,,,,44.7544,66.1222,return,21.3636,,,,,,,,,,,,,,,,,,,,,,,,,,,,,,,,,,,,,,,,,,,,,,,,,,,,,,,,,,,,,,,,
,,,,,WIN24_006,18,Female,2024-01-26_14h31.36.515,jersey_experiment_5,2023.2.2,Win32,85.47008547,,,,,,,,,,,,,,,,66.1291,67.9311,67.9313,84.1473,return,1.8358,,24.86979167,0,0,0,41,1,FBP-YG-91.png,0.37,1.2,42,1,,,,,,,,,,,,,,,,,,,,,,,,,,,,,,,,,,,,,,,,,,,,,
,,,,,WIN24_006,18,Female,2024-01-26_14h31.36.515,jersey_experiment_5,2023.2.2,Win32,85.47008547,,,,,,,,,,,,,,,,84.1476,85.4413,85.4413,89.6494,return,1.7552,,74.86979167,0,1,1,3,1,FBP-OG-71.png,0.43,1.2,4,0.5,,,,,,,,,,,,,,,,,,,,,,,,,,,,,,,,,,,,,,,,,,,,,
,,,,,WIN24_006,18,Female,2024-01-26_14h31.36.515,jersey_experiment_5,2023.2.2,Win32,85.47008547,,,,,,,,,,,,,,,,89.6496,91.4419,91.4419,93.5346,return,0.6118,,74.86979167,0,2,2,37,1,FBP-YG-81.png,0.4,1.2,38,1,,,,,,,,,,,,,,,,,,,,,,,,,,,,,,,,,,,,,,,,,,,,,
,,,,,WIN24_006,18,Female,2024-01-26_14h31.36.515,jersey_experiment_5,2023.2.2,Win32,85.47008547,,,,,,,,,,,,,,,,93.5348,94.8379,94.838,99.5127,return,1.4589,,25.26041667,0,3,3,5,1,FBP-OG-81.png,0.35,1.2,6,0.5,,,,,,,,,,,,,,,,,,,,,,,,,,,,,,,,,,,,,,,,,,,,,
,,,,,WIN24_006,18,Female,2024-01-26_14h31.36.515,jersey_experiment_5,2023.2.2,Win32,85.47008547,,,,,,,,,,,,,,,,99.5129,100.8144,100.8144,106.25,return,2.1258,,24.86979167,0,4,4,1,1,FBP-OG-71.png,0.37,1.2,2,0.5,,,,,,,,,,,,,,,,,,,,,,,,,,,,,,,,,,,,,,,,,,,,,
,,,,,WIN24_006,18,Female,2024-01-26_14h31.36.515,jersey_experiment_5,2023.2.2,Win32,85.47008547,,,,,,,,,,,,,,,,106.2502,108.0501,108.0501,111.6643,return,2.0796,,74.609375,0,5,5,23,1,FBP-RB-18.png,0.43,1.2,24,1,,,,,,,,,,,,,,,,,,,,,,,,,,,,,,,,,,,,,,,,,,,,,
,,,,,WIN24_006,18,Female,2024-01-26_14h31.36.515,jersey_experiment_5,2023.2.2,Win32,85.47008547,,,,,,,,,,,,,,,,111.6644,112.9589,112.959,120.6506,return,1.5001,,50,0,6,6,56,1,FBP-PT-19.png,0.37,1.2,57,0.5,,,,,,,,,,,,,,,,,,,,,,,,,,,,,,,,,,,,,,,,,,,,,
,,,,,WIN24_006,18,Female,2024-01-26_14h31.36.515,jersey_experiment_5,2023.2.2,Win32,85.47008547,,,,,,,,,,,,,,,,120.6508,121.9489,121.9489,124.4624,return,0.7796,,75,0,7,7,12,1,FBP-OG-91.png,0.4,1.2,13,0.5,,,,,,,,,,,,,,,,,,,,,,,,,,,,,,,,,,,,,,,,,,,,,
,,,,,WIN24_006,18,Female,2024-01-26_14h31.36.515,jersey_experiment_5,2023.2.2,Win32,85.47008547,,,,,,,,,,,,,,,,124.4626,126.2677,126.2677,130.2669,return,0.718,,74.34895833,0,8,8,22,1,FBP-RB-18.png,0.4,1.2,23,1,,,,,,,,,,,,,,,,,,,,,,,,,,,,,,,,,,,,,,,,,,,,,
,,,,,WIN24_006,18,Female,2024-01-26_14h31.36.515,jersey_experiment_5,2023.2.2,Win32,85.47008547,,,,,,,,,,,,,,,,130.267,132.0665,132.0665,134.148,return,1.0331,,99.34895833,0,9,9,28,1,FBP-RB-19.png,0.43,1.2,29,1,,,,,,,,,,,,,,,,,,,,,,,,,,,,,,,,,,,,,,,,,,,,,
,,,,,WIN24_006,18,Female,2024-01-26_14h31.36.515,jersey_experiment_5,2023.2.2,Win32,85.47008547,,,,,,,,,,,,,,,,134.1482,135.4429,135.4429,137.5844,return,0.8015,,99.34895833,0,10,10,9,1,FBP-OG-81.png,0.45,1.2,10,0.5,,,,,,,,,,,,,,,,,,,,,,,,,,,,,,,,,,,,,,,,,,,,,
,,,,,WIN24_006,18,Female,2024-01-26_14h31.36.515,jersey_experiment_5,2023.2.2,Win32,85.47008547,,,,,,,,,,,,,,,,137.5846,138.8871,138.8872,150.7736,return,4.8358,,0.520833333,0,11,11,45,1,FBP-PT-17.png,0.35,1.2,46,0.5,,,,,,,,,,,,,,,,,,,,,,,,,,,,,,,,,,,,,,,,,,,,,
,,,,,WIN24_006,18,Female,2024-01-26_14h31.36.515,jersey_experiment_5,2023.2.2,Win32,85.47008547,,,,,,,,,,,,,,,,150.7737,152.5693,152.5694,154.6518,return,0.6619,,74.609375,0,12,12,34,1,FBP-YG-71.png,0.45,1.2,35,1,,,,,,,,,,,,,,,,,,,,,,,,,,,,,,,,,,,,,,,,,,,,,
,,,,,WIN24_006,18,Female,2024-01-26_14h31.36.515,jersey_experiment_5,2023.2.2,Win32,85.47008547,,,,,,,,,,,,,,,,154.652,156.4518,156.4519,158.6049,return,0.6609,,50,0,13,13,17,1,FBP-RB-17.png,0.4,1.2,18,1,,,,,,,,,,,,,,,,,,,,,,,,,,,,,,,,,,,,,,,,,,,,,
,,,,,WIN24_006,18,Female,2024-01-26_14h31.36.515,jersey_experiment_5,2023.2.2,Win32,85.47008547,,,,,,,,,,,,,,,,158.6051,160.4049,160.4049,164.3816,return,0.7923,,49.609375,0,14,14,21,1,FBP-RB-18.png,0.37,1.2,22,1,,,,,,,,,,,,,,,,,,,,,,,,,,,,,,,,,,,,,,,,,,,,,
,,,,,WIN24_006,18,Female,2024-01-26_14h31.36.515,jersey_experiment_5,2023.2.2,Win32,85.47008547,,,,,,,,,,,,,,,,164.3818,166.1733,166.1733,168.68,return,0.8119,,99.73958333,0,15,15,19,1,FBP-RB-17.png,0.45,1.2,20,1,,,,,,,,,,,,,,,,,,,,,,,,,,,,,,,,,,,,,,,,,,,,,
,,,,,WIN24_006,18,Female,2024-01-26_14h31.36.515,jersey_experiment_5,2023.2.2,Win32,85.47008547,,,,,,,,,,,,,,,,168.6802,170.4807,170.4807,172.5111,return,0.7306,,0.390625,0,16,16,25,1,FBP-RB-19.png,0.35,1.2,26,1,,,,,,,,,,,,,,,,,,,,,,,,,,,,,,,,,,,,,,,,,,,,,
,,,,,WIN24_006,18,Female,2024-01-26_14h31.36.515,jersey_experiment_5,2023.2.2,Win32,85.47008547,,,,,,,,,,,,,,,,172.5114,174.3112,174.3113,178.1966,return,0.7871,,49.609375,0,17,17,27,1,FBP-RB-19.png,0.4,1.2,28,1,,,,,,,,,,,,,,,,,,,,,,,,,,,,,,,,,,,,,,,,,,,,,
,,,,,WIN24_006,18,Female,2024-01-26_14h31.36.515,jersey_experiment_5,2023.2.2,Win32,85.47008547,,,,,,,,,,,,,,,,178.1968,179.4998,179.4998,184.0764,return,0.7584,,99.73958333,0,18,18,4,1,FBP-OG-71.png,0.45,1.2,5,0.5,,,,,,,,,,,,,,,,,,,,,,,,,,,,,,,,,,,,,,,,,,,,,
,,,,,WIN24_006,18,Female,2024-01-26_14h31.36.515,jersey_experiment_5,2023.2.2,Win32,85.47008547,,,,,,,,,,,,,,,,184.0766,185.8806,185.8807,190.9237,return,1.0286,,75.52083333,0,19,19,16,1,FBP-RB-17.png,0.37,1.2,17,1,,,,,,,,,,,,,,,,,,,,,,,,,,,,,,,,,,,,,,,,,,,,,
,,,,,WIN24_006,18,Female,2024-01-26_14h31.36.515,jersey_experiment_5,2023.2.2,Win32,85.47008547,,,,,,,,,,,,,,,,190.9239,192.7285,192.7285,195.6442,return,1.1031,,24.73958333,0,20,20,20,1,FBP-RB-18.png,0.35,1.2,21,1,,,,,,,,,,,,,,,,,,,,,,,,,,,,,,,,,,,,,,,,,,,,,
,,,,,WIN24_006,18,Female,2024-01-26_14h31.36.515,jersey_experiment_5,2023.2.2,Win32,85.47008547,,,,,,,,,,,,,,,,195.6444,196.9516,196.9516,198.8677,return,0.7527,,0.390625,0,21,21,0,1,FBP-OG-71.png,0.35,1.2,1,0.5,,,,,,,,,,,,,,,,,,,,,,,,,,,,,,,,,,,,,,,,,,,,,
,,,,,WIN24_006,18,Female,2024-01-26_14h31.36.515,jersey_experiment_5,2023.2.2,Win32,85.47008547,,,,,,,,,,,,,,,,198.8678,200.1631,200.1632,203.4182,return,0.8046,,99.73958333,0,22,22,59,1,FBP-PT-19.png,0.45,1.2,60,0.5,,,,,,,,,,,,,,,,,,,,,,,,,,,,,,,,,,,,,,,,,,,,,
,,,,,WIN24_006,18,Female,2024-01-26_14h31.36.515,jersey_experiment_5,2023.2.2,Win32,85.47008547,,,,,,,,,,,,,,,,203.4184,205.2114,205.2114,206.8354,return,0.6734,,74.47916667,0,23,23,33,1,FBP-YG-71.png,0.43,1.2,34,1,,,,,,,,,,,,,,,,,,,,,,,,,,,,,,,,,,,,,,,,,,,,,
,,,,,WIN24_006,18,Female,2024-01-26_14h31.36.515,jersey_experiment_5,2023.2.2,Win32,85.47008547,,,,,,,,,,,,,,,,206.8355,208.6376,208.6376,209.9739,return,0.612,,74.47916667,0,24,24,24,1,FBP-RB-18.png,0.45,1.2,25,1,,,,,,,,,,,,,,,,,,,,,,,,,,,,,,,,,,,,,,,,,,,,,
,,,,,WIN24_006,18,Female,2024-01-26_14h31.36.515,jersey_experiment_5,2023.2.2,Win32,85.47008547,,,,,,,,,,,,,,,,209.974,211.7753,211.7753,213.101,return,0.5881,,74.47916667,0,25,25,18,1,FBP-RB-17.png,0.43,1.2,19,1,,,,,,,,,,,,,,,,,,,,,,,,,,,,,,,,,,,,,,,,,,,,,
,,,,,WIN24_006,18,Female,2024-01-26_14h31.36.515,jersey_experiment_5,2023.2.2,Win32,85.47008547,,,,,,,,,,,,,,,,213.1012,214.3952,214.3952,216.621,return,0.6688,,25.390625,0,26,26,46,1,FBP-PT-17.png,0.37,1.2,47,0.5,,,,,,,,,,,,,,,,,,,,,,,,,,,,,,,,,,,,,,,,,,,,,
,,,,,WIN24_006,18,Female,2024-01-26_14h31.36.515,jersey_experiment_5,2023.2.2,Win32,85.47008547,,,,,,,,,,,,,,,,216.6211,218.4188,218.4188,223.1404,return,0.955,,0.911458333,0,27,27,40,1,FBP-YG-91.png,0.35,1.2,41,1,,,,,,,,,,,,,,,,,,,,,,,,,,,,,,,,,,,,,,,,,,,,,
,,,,,WIN24_006,18,Female,2024-01-26_14h31.36.515,jersey_experiment_5,2023.2.2,Win32,85.47008547,,,,,,,,,,,,,,,,223.1406,224.9413,224.9413,229.2781,return,3.05,,50.13020833,0,28,28,31,1,FBP-YG-71.png,0.37,1.2,32,1,,,,,,,,,,,,,,,,,,,,,,,,,,,,,,,,,,,,,,,,,,,,,
,,,,,WIN24_006,18,Female,2024-01-26_14h31.36.515,jersey_experiment_5,2023.2.2,Win32,85.47008547,,,,,,,,,,,,,,,,229.2783,230.5721,230.5721,232.3132,return,0.738,,75.26041667,0,29,29,2,1,FBP-OG-71.png,0.4,1.2,3,0.5,,,,,,,,,,,,,,,,,,,,,,,,,,,,,,,,,,,,,,,,,,,,,
,,,,,WIN24_006,18,Female,2024-01-26_14h31.36.515,jersey_experiment_5,2023.2.2,Win32,85.47008547,,,,,,,,,,,,,,,,232.3134,233.6117,233.6117,235.4217,return,0.7168,,99.86979167,0,30,30,8,1,FBP-OG-81.png,0.43,1.2,9,0.5,,,,,,,,,,,,,,,,,,,,,,,,,,,,,,,,,,,,,,,,,,,,,
,,,,,WIN24_006,18,Female,2024-01-26_14h31.36.515,jersey_experiment_5,2023.2.2,Win32,85.47008547,,,,,,,,,,,,,,,,235.4219,236.7172,236.7172,238.1607,return,0.7109,,98.69791667,0,31,31,7,1,FBP-OG-81.png,0.4,1.2,8,0.5,,,,,,,,,,,,,,,,,,,,,,,,,,,,,,,,,,,,,,,,,,,,,
,,,,,WIN24_006,18,Female,2024-01-26_14h31.36.515,jersey_experiment_5,2023.2.2,Win32,85.47008547,,,,,,,,,,,,,,,,238.1609,239.963,239.963,242.367,return,0.6611,,74.86979167,0,32,32,30,1,FBP-YG-71.png,0.35,1.2,31,1,,,,,,,,,,,,,,,,,,,,,,,,,,,,,,,,,,,,,,,,,,,,,
,,,,,WIN24_006,18,Female,2024-01-26_14h31.36.515,jersey_experiment_5,2023.2.2,Win32,85.47008547,,,,,,,,,,,,,,,,242.3672,243.6668,243.6668,245.1887,return,0.6374,,74.86979167,0,33,33,11,1,FBP-OG-91.png,0.37,1.2,12,0.5,,,,,,,,,,,,,,,,,,,,,,,,,,,,,,,,,,,,,,,,,,,,,
,,,,,WIN24_006,18,Female,2024-01-26_14h31.36.515,jersey_experiment_5,2023.2.2,Win32,85.47008547,,,,,,,,,,,,,,,,245.1889,246.4813,246.4813,248.7182,return,0.5886,,74.86979167,0,34,34,51,1,FBP-PT-18.png,0.37,1.2,52,0.5,,,,,,,,,,,,,,,,,,,,,,,,,,,,,,,,,,,,,,,,,,,,,
,,,,,WIN24_006,18,Female,2024-01-26_14h31.36.515,jersey_experiment_5,2023.2.2,Win32,85.47008547,,,,,,,,,,,,,,,,248.7183,250.0119,250.0119,252.2728,return,0.684,,49.08854167,0,35,35,10,1,FBP-OG-91.png,0.35,1.2,11,0.5,,,,,,,,,,,,,,,,,,,,,,,,,,,,,,,,,,,,,,,,,,,,,
,,,,,WIN24_006,18,Female,2024-01-26_14h31.36.515,jersey_experiment_5,2023.2.2,Win32,85.47008547,,,,,,,,,,,,,,,,252.273,254.0734,254.0734,255.9067,return,0.5897,,99.21875,0,36,36,32,1,FBP-YG-71.png,0.4,1.2,33,1,,,,,,,,,,,,,,,,,,,,,,,,,,,,,,,,,,,,,,,,,,,,,
,,,,,WIN24_006,18,Female,2024-01-26_14h31.36.515,jersey_experiment_5,2023.2.2,Win32,85.47008547,,,,,,,,,,,,,,,,255.9069,257.2008,257.2008,260.0595,return,0.6486,,49.609375,0,37,37,55,1,FBP-PT-19.png,0.35,1.2,56,0.5,,,,,,,,,,,,,,,,,,,,,,,,,,,,,,,,,,,,,,,,,,,,,
,,,,,WIN24_006,18,Female,2024-01-26_14h31.36.515,jersey_experiment_5,2023.2.2,Win32,85.47008547,,,,,,,,,,,,,,,,260.0596,261.8579,261.8579,263.9773,return,0.6248,,99.73958333,0,38,38,38,1,FBP-YG-81.png,0.43,1.2,39,1,,,,,,,,,,,,,,,,,,,,,,,,,,,,,,,,,,,,,,,,,,,,,
,,,,,WIN24_006,18,Female,2024-01-26_14h31.36.515,jersey_experiment_5,2023.2.2,Win32,85.47008547,,,,,,,,,,,,,,,,263.9774,265.7762,265.7762,267.8597,return,0.9415,,49.34895833,0,39,39,26,1,FBP-RB-19.png,0.37,1.2,27,1,,,,,,,,,,,,,,,,,,,,,,,,,,,,,,,,,,,,,,,,,,,,,
,,,,,WIN24_006,18,Female,2024-01-26_14h31.36.515,jersey_experiment_5,2023.2.2,Win32,85.47008547,,,,,,,,,,,,,,,,267.8599,269.1642,269.1642,271.4941,return,0.6949,,99.34895833,0,40,40,14,1,FBP-OG-91.png,0.45,1.2,15,0.5,,,,,,,,,,,,,,,,,,,,,,,,,,,,,,,,,,,,,,,,,,,,,
,,,,,WIN24_006,18,Female,2024-01-26_14h31.36.515,jersey_experiment_5,2023.2.2,Win32,85.47008547,,,,,,,,,,,,,,,,271.4944,272.8027,272.8027,284.1428,return,10.6844,,83.07291667,0,41,41,13,1,FBP-OG-91.png,0.43,1.2,14,0.5,,,,,,,,,,,,,,,,,,,,,,,,,,,,,,,,,,,,,,,,,,,,,
,,,,,WIN24_006,18,Female,2024-01-26_14h31.36.515,jersey_experiment_5,2023.2.2,Win32,85.47008547,,,,,,,,,,,,,,,,284.1429,285.4385,285.4385,287.786,return,0.6537,,99.47916667,0,42,42,48,1,FBP-PT-17.png,0.43,1.2,49,0.5,,,,,,,,,,,,,,,,,,,,,,,,,,,,,,,,,,,,,,,,,,,,,
,,,,,WIN24_006,18,Female,2024-01-26_14h31.36.515,jersey_experiment_5,2023.2.2,Win32,85.47008547,,,,,,,,,,,,,,,,287.7862,289.5861,289.5861,293.9981,return,0.7335,,83.59375,0,43,43,43,1,FBP-YG-91.png,0.43,1.2,44,1,,,,,,,,,,,,,,,,,,,,,,,,,,,,,,,,,,,,,,,,,,,,,
,,,,,WIN24_006,18,Female,2024-01-26_14h31.36.515,jersey_experiment_5,2023.2.2,Win32,85.47008547,,,,,,,,,,,,,,,,293.9983,295.2946,295.2946,297.977,return,0.7279,,99.34895833,0,44,44,54,1,FBP-PT-18.png,0.45,1.2,55,0.5,,,,,,,,,,,,,,,,,,,,,,,,,,,,,,,,,,,,,,,,,,,,,
,,,,,WIN24_006,18,Female,2024-01-26_14h31.36.515,jersey_experiment_5,2023.2.2,Win32,85.47008547,,,,,,,,,,,,,,,,297.9771,299.2688,299.2688,301.5774,return,0.5882,,99.34895833,0,45,45,53,1,FBP-PT-18.png,0.43,1.2,54,0.5,,,,,,,,,,,,,,,,,,,,,,,,,,,,,,,,,,,,,,,,,,,,,
,,,,,WIN24_006,18,Female,2024-01-26_14h31.36.515,jersey_experiment_5,2023.2.2,Win32,85.47008547,,,,,,,,,,,,,,,,301.5775,303.3786,303.3786,304.9085,return,0.6475,,99.609375,0,46,46,39,1,FBP-YG-81.png,0.45,1.2,40,1,,,,,,,,,,,,,,,,,,,,,,,,,,,,,,,,,,,,,,,,,,,,,
,,,,,WIN24_006,18,Female,2024-01-26_14h31.36.515,jersey_experiment_5,2023.2.2,Win32,85.47008547,,,,,,,,,,,,,,,,304.9087,306.2132,306.2132,310.099,return,0.9082,,77.99479167,0,47,47,49,1,FBP-PT-17.png,0.45,1.2,50,0.5,,,,,,,,,,,,,,,,,,,,,,,,,,,,,,,,,,,,,,,,,,,,,
,,,,,WIN24_006,18,Female,2024-01-26_14h31.36.515,jersey_experiment_5,2023.2.2,Win32,85.47008547,,,,,,,,,,,,,,,,310.0991,311.3986,311.3986,314.4127,return,0.6944,,47.13541667,0,48,48,47,1,FBP-PT-17.png,0.4,1.2,48,0.5,,,,,,,,,,,,,,,,,,,,,,,,,,,,,,,,,,,,,,,,,,,,,
,,,,,WIN24_006,18,Female,2024-01-26_14h31.36.515,jersey_experiment_5,2023.2.2,Win32,85.47008547,,,,,,,,,,,,,,,,314.4129,315.7047,315.7047,318.944,return,0.7071,,0.651041667,0,49,49,6,1,FBP-OG-81.png,0.37,1.2,7,0.5,,,,,,,,,,,,,,,,,,,,,,,,,,,,,,,,,,,,,,,,,,,,,
,,,,,WIN24_006,18,Female,2024-01-26_14h31.36.515,jersey_experiment_5,2023.2.2,Win32,85.47008547,,,,,,,,,,,,,,,,318.9442,320.2389,320.2389,325.7918,return,0.7895,,19.921875,0,50,50,57,1,FBP-PT-19.png,0.4,1.2,58,0.5,,,,,,,,,,,,,,,,,,,,,,,,,,,,,,,,,,,,,,,,,,,,,
,,,,,WIN24_006,18,Female,2024-01-26_14h31.36.515,jersey_experiment_5,2023.2.2,Win32,85.47008547,,,,,,,,,,,,,,,,325.7919,327.5902,327.5903,330.2381,return,0.7527,,95.44270833,0,51,51,29,1,FBP-RB-19.png,0.45,1.2,30,1,,,,,,,,,,,,,,,,,,,,,,,,,,,,,,,,,,,,,,,,,,,,,
,,,,,WIN24_006,18,Female,2024-01-26_14h31.36.515,jersey_experiment_5,2023.2.2,Win32,85.47008547,,,,,,,,,,,,,,,,330.2383,332.0376,332.0376,333.823,return,0.6011,,49.73958333,0,52,52,36,1,FBP-YG-81.png,0.37,1.2,37,1,,,,,,,,,,,,,,,,,,,,,,,,,,,,,,,,,,,,,,,,,,,,,
,,,,,WIN24_006,18,Female,2024-01-26_14h31.36.515,jersey_experiment_5,2023.2.2,Win32,85.47008547,,,,,,,,,,,,,,,,333.8232,335.6251,335.6252,338.8937,return,0.5774,,50.13020833,0,53,53,15,1,FBP-RB-17.png,0.35,1.2,16,1,,,,,,,,,,,,,,,,,,,,,,,,,,,,,,,,,,,,,,,,,,,,,
,,,,,WIN24_006,18,Female,2024-01-26_14h31.36.515,jersey_experiment_5,2023.2.2,Win32,85.47008547,,,,,,,,,,,,,,,,338.894,340.6857,340.6857,345.2504,return,2.7385,,71.22395833,0,54,54,42,1,FBP-YG-91.png,0.4,1.2,43,1,,,,,,,,,,,,,,,,,,,,,,,,,,,,,,,,,,,,,,,,,,,,,
,,,,,WIN24_006,18,Female,2024-01-26_14h31.36.515,jersey_experiment_5,2023.2.2,Win32,85.47008547,,,,,,,,,,,,,,,,345.2505,346.555,346.555,348.3294,return,0.6322,,25,0,55,55,50,1,FBP-PT-18.png,0.35,1.2,51,0.5,,,,,,,,,,,,,,,,,,,,,,,,,,,,,,,,,,,,,,,,,,,,,
,,,,,WIN24_006,18,Female,2024-01-26_14h31.36.515,jersey_experiment_5,2023.2.2,Win32,85.47008547,,,,,,,,,,,,,,,,348.3296,350.1319,350.1319,351.4627,return,0.6117,,75,0,56,56,44,1,FBP-YG-91.png,0.45,1.2,45,1,,,,,,,,,,,,,,,,,,,,,,,,,,,,,,,,,,,,,,,,,,,,,
,,,,,WIN24_006,18,Female,2024-01-26_14h31.36.515,jersey_experiment_5,2023.2.2,Win32,85.47008547,,,,,,,,,,,,,,,,351.4629,353.2626,353.2627,355.6145,return,0.856,,48.30729167,0,57,57,35,1,FBP-YG-81.png,0.35,1.2,36,1,,,,,,,,,,,,,,,,,,,,,,,,,,,,,,,,,,,,,,,,,,,,,
,,,,,WIN24_006,18,Female,2024-01-26_14h31.36.515,jersey_experiment_5,2023.2.2,Win32,85.47008547,,,,,,,,,,,,,,,,355.6147,356.9061,356.9061,362.3298,return,2.4185,,98.046875,0,58,58,58,1,FBP-PT-19.png,0.43,1.2,59,0.5,,,,,,,,,,,,,,,,,,,,,,,,,,,,,,,,,,,,,,,,,,,,,
,,,,,WIN24_006,18,Female,2024-01-26_14h31.36.515,jersey_experiment_5,2023.2.2,Win32,85.47008547,,,,,,,,,,,,,,,,362.3301,363.6274,363.6274,365.581,return,0.588,,74.47916667,0,59,59,52,1,FBP-PT-18.png,0.4,1.2,53,0.5,,,,,,,,,,,,,,,,,,,,,,,,,,,,,,,,,,,,,,,,,,,,,
,,,,,WIN24_006,18,Female,2024-01-26_14h31.36.515,jersey_experiment_5,2023.2.2,Win32,85.47008547,,,,,,,,,,,,,,,,365.583,367.3771,367.3771,368.5536,return,0.7577,,74.47916667,,,,,,FBP-RB-71.png,0.4,1.2,18,1,0,0,0,17,1,,,,,,,,,,,,,,,,,,,,,,,,,,,,,,,,,,,,,,,,
,,,,,WIN24_006,18,Female,2024-01-26_14h31.36.515,jersey_experiment_5,2023.2.2,Win32,85.47008547,,,,,,,,,,,,,,,,368.5538,369.8477,369.8477,371.5934,return,0.5771,,49.08854167,,,,,,FBP-OG-17.png,0.35,1.2,1,0.5,0,1,1,0,1,,,,,,,,,,,,,,,,,,,,,,,,,,,,,,,,,,,,,,,,
,,,,,WIN24_006,18,Female,2024-01-26_14h31.36.515,jersey_experiment_5,2023.2.2,Win32,85.47008547,,,,,,,,,,,,,,,,371.5936,372.8971,372.8971,375.2873,return,0.6338,,28.125,,,,,,FBP-PT-91.png,0.35,1.2,56,0.5,0,2,2,55,1,,,,,,,,,,,,,,,,,,,,,,,,,,,,,,,,,,,,,,,,
,,,,,WIN24_006,18,Female,2024-01-26_14h31.36.515,jersey_experiment_5,2023.2.2,Win32,85.47008547,,,,,,,,,,,,,,,,375.2875,376.5826,376.5826,378.6363,return,0.7352,,67.578125,,,,,,FBP-PT-81.png,0.4,1.2,53,0.5,0,3,3,52,1,,,,,,,,,,,,,,,,,,,,,,,,,,,,,,,,,,,,,,,,
,,,,,WIN24_006,18,Female,2024-01-26_14h31.36.515,jersey_experiment_5,2023.2.2,Win32,85.47008547,,,,,,,,,,,,,,,,378.6365,380.4364,380.4364,381.7541,return,0.5944,,75.26041667,,,,,,FBP-YG-18.png,0.37,1.2,37,1,0,4,4,36,1,,,,,,,,,,,,,,,,,,,,,,,,,,,,,,,,,,,,,,,,
,,,,,WIN24_006,18,Female,2024-01-26_14h31.36.515,jersey_experiment_5,2023.2.2,Win32,85.47008547,,,,,,,,,,,,,,,,381.7543,383.559,383.559,384.8071,return,0.5921,,74.86979167,,,,,,FBP-YG-17.png,0.35,1.2,31,1,0,5,5,30,1,,,,,,,,,,,,,,,,,,,,,,,,,,,,,,,,,,,,,,,,
,,,,,WIN24_006,18,Female,2024-01-26_14h31.36.515,jersey_experiment_5,2023.2.2,Win32,85.47008547,,,,,,,,,,,,,,,,384.8072,386.0991,386.0991,387.8395,return,0.6094,,99.34895833,,,,,,FBP-OG-18.png,0.43,1.2,9,0.5,0,6,6,8,1,,,,,,,,,,,,,,,,,,,,,,,,,,,,,,,,,,,,,,,,
,,,,,WIN24_006,18,Female,2024-01-26_14h31.36.515,jersey_experiment_5,2023.2.2,Win32,85.47008547,,,,,,,,,,,,,,,,387.8397,389.1353,389.1353,390.9117,return,0.6355,,93.22916667,,,,,,FBP-OG-18.png,0.37,1.2,7,0.5,0,7,7,6,1,,,,,,,,,,,,,,,,,,,,,,,,,,,,,,,,,,,,,,,,
,,,,,WIN24_006,18,Female,2024-01-26_14h31.36.515,jersey_experiment_5,2023.2.2,Win32,85.47008547,,,,,,,,,,,,,,,,390.9119,392.7074,392.7074,393.9587,return,0.5547,,99.08854167,,,,,,FBP-YG-17.png,0.45,1.2,35,1,0,8,8,34,1,,,,,,,,,,,,,,,,,,,,,,,,,,,,,,,,,,,,,,,,
,,,,,WIN24_006,18,Female,2024-01-26_14h31.36.515,jersey_experiment_5,2023.2.2,Win32,85.47008547,,,,,,,,,,,,,,,,393.9589,395.7546,395.7547,397.3466,return,0.5999,,98.69791667,,,,,,FBP-YG-18.png,0.4,1.2,38,1,0,9,9,37,1,,,,,,,,,,,,,,,,,,,,,,,,,,,,,,,,,,,,,,,,
,,,,,WIN24_006,18,Female,2024-01-26_14h31.36.515,jersey_experiment_5,2023.2.2,Win32,85.47008547,,,,,,,,,,,,,,,,397.3468,399.149,399.149,400.2841,return,0.6163,,99.47916667,,,,,,FBP-YG-17.png,0.43,1.2,34,1,0,10,10,33,1,,,,,,,,,,,,,,,,,,,,,,,,,,,,,,,,,,,,,,,,
,,,,,WIN24_006,18,Female,2024-01-26_14h31.36.515,jersey_experiment_5,2023.2.2,Win32,85.47008547,,,,,,,,,,,,,,,,400.2844,402.0863,402.0863,403.355,return,0.5704,,99.47916667,,,,,,FBP-RB-71.png,0.37,1.2,17,1,0,11,11,16,1,,,,,,,,,,,,,,,,,,,,,,,,,,,,,,,,,,,,,,,,
,,,,,WIN24_006,18,Female,2024-01-26_14h31.36.515,jersey_experiment_5,2023.2.2,Win32,85.47008547,,,,,,,,,,,,,,,,403.3551,404.6531,404.6531,405.8844,return,0.5816,,99.47916667,,,,,,FBP-PT-91.png,0.4,1.2,58,0.5,0,12,12,57,1,,,,,,,,,,,,,,,,,,,,,,,,,,,,,,,,,,,,,,,,
,,,,,WIN24_006,18,Female,2024-01-26_14h31.36.515,jersey_experiment_5,2023.2.2,Win32,85.47008547,,,,,,,,,,,,,,,,405.8846,407.6767,407.6767,409.0845,return,0.6171,,99.47916667,,,,,,FBP-RB-81.png,0.45,1.2,25,1,0,13,13,24,1,,,,,,,,,,,,,,,,,,,,,,,,,,,,,,,,,,,,,,,,
,,,,,WIN24_006,18,Female,2024-01-26_14h31.36.515,jersey_experiment_5,2023.2.2,Win32,85.47008547,,,,,,,,,,,,,,,,409.0848,410.8769,410.8769,412.1082,return,0.6274,,99.47916667,,,,,,FBP-YG-19.png,0.45,1.2,45,1,0,14,14,44,1,,,,,,,,,,,,,,,,,,,,,,,,,,,,,,,,,,,,,,,,
,,,,,WIN24_006,18,Female,2024-01-26_14h31.36.515,jersey_experiment_5,2023.2.2,Win32,85.47008547,,,,,,,,,,,,,,,,412.1084,413.4023,413.4023,414.6302,return,0.6346,,99.47916667,,,,,,FBP-PT-81.png,0.43,1.2,54,0.5,0,15,15,53,1,,,,,,,,,,,,,,,,,,,,,,,,,,,,,,,,,,,,,,,,
,,,,,WIN24_006,18,Female,2024-01-26_14h31.36.515,jersey_experiment_5,2023.2.2,Win32,85.47008547,,,,,,,,,,,,,,,,414.6303,416.4308,416.4309,418.2986,return,0.7753,,83.85416667,,,,,,FBP-RB-81.png,0.37,1.2,22,1,0,16,16,21,1,,,,,,,,,,,,,,,,,,,,,,,,,,,,,,,,,,,,,,,,
,,,,,WIN24_006,18,Female,2024-01-26_14h31.36.515,jersey_experiment_5,2023.2.2,Win32,85.47008547,,,,,,,,,,,,,,,,418.2988,419.5908,419.5908,422.591,return,1.3539,,32.421875,,,,,,FBP-PT-81.png,0.35,1.2,51,0.5,0,17,17,50,1,,,,,,,,,,,,,,,,,,,,,,,,,,,,,,,,,,,,,,,,
,,,,,WIN24_006,18,Female,2024-01-26_14h31.36.515,jersey_experiment_5,2023.2.2,Win32,85.47008547,,,,,,,,,,,,,,,,422.5912,424.3938,424.3938,427.2617,return,0.6147,,41.14583333,,,,,,FBP-RB-71.png,0.35,1.2,16,1,0,18,18,15,1,,,,,,,,,,,,,,,,,,,,,,,,,,,,,,,,,,,,,,,,
,,,,,WIN24_006,18,Female,2024-01-26_14h31.36.515,jersey_experiment_5,2023.2.2,Win32,85.47008547,,,,,,,,,,,,,,,,427.2619,429.0651,429.0651,430.5845,return,0.5424,,99.47916667,,,,,,FBP-YG-18.png,0.43,1.2,39,1,0,19,19,38,1,,,,,,,,,,,,,,,,,,,,,,,,,,,,,,,,,,,,,,,,
,,,,,WIN24_006,18,Female,2024-01-26_14h31.36.515,jersey_experiment_5,2023.2.2,Win32,85.47008547,,,,,,,,,,,,,,,,430.5847,432.3832,432.3832,433.4322,return,0.602,,99.47916667,,,,,,FBP-RB-91.png,0.43,1.2,29,1,0,20,20,28,1,,,,,,,,,,,,,,,,,,,,,,,,,,,,,,,,,,,,,,,,
,,,,,WIN24_006,18,Female,2024-01-26_14h31.36.515,jersey_experiment_5,2023.2.2,Win32,85.47008547,,,,,,,,,,,,,,,,433.4324,434.7245,434.7245,435.9835,return,0.5847,,99.47916667,,,,,,FBP-PT-71.png,0.45,1.2,50,0.5,0,21,21,49,1,,,,,,,,,,,,,,,,,,,,,,,,,,,,,,,,,,,,,,,,
,,,,,WIN24_006,18,Female,2024-01-26_14h31.36.515,jersey_experiment_5,2023.2.2,Win32,85.47008547,,,,,,,,,,,,,,,,435.9836,437.7797,437.7797,439.9957,return,0.5067,,99.34895833,,,,,,FBP-YG-17.png,0.37,1.2,32,1,0,22,22,31,1,,,,,,,,,,,,,,,,,,,,,,,,,,,,,,,,,,,,,,,,
,,,,,WIN24_006,18,Female,2024-01-26_14h31.36.515,jersey_experiment_5,2023.2.2,Win32,85.47008547,,,,,,,,,,,,,,,,439.9958,441.3017,441.3017,442.3443,return,0.5119,,99.47916667,,,,,,FBP-PT-71.png,0.43,1.2,49,0.5,0,23,23,48,1,,,,,,,,,,,,,,,,,,,,,,,,,,,,,,,,,,,,,,,,
,,,,,WIN24_006,18,Female,2024-01-26_14h31.36.515,jersey_experiment_5,2023.2.2,Win32,85.47008547,,,,,,,,,,,,,,,,442.3445,443.6427,443.6427,444.7721,return,0.5649,,99.47916667,,,,,,FBP-OG-19.png,0.4,1.2,13,0.5,0,24,24,12,1,,,,,,,,,,,,,,,,,,,,,,,,,,,,,,,,,,,,,,,,
,,,,,WIN24_006,18,Female,2024-01-26_14h31.36.515,jersey_experiment_5,2023.2.2,Win32,85.47008547,,,,,,,,,,,,,,,,444.7722,446.5681,446.5681,448.5135,return,0.6356,,15.88541667,,,,,,FBP-RB-91.png,0.35,1.2,26,1,0,25,25,25,1,,,,,,,,,,,,,,,,,,,,,,,,,,,,,,,,,,,,,,,,
,,,,,WIN24_006,18,Female,2024-01-26_14h31.36.515,jersey_experiment_5,2023.2.2,Win32,85.47008547,,,,,,,,,,,,,,,,448.5137,450.3135,450.3135,454.0625,return,2.7782,,81.77083333,,,,,,FBP-RB-81.png,0.4,1.2,23,1,0,26,26,22,1,,,,,,,,,,,,,,,,,,,,,,,,,,,,,,,,,,,,,,,,
,,,,,WIN24_006,18,Female,2024-01-26_14h31.36.515,jersey_experiment_5,2023.2.2,Win32,85.47008547,,,,,,,,,,,,,,,,454.0627,455.8667,455.8667,459.9256,return,0.6234,,55.72916667,,,,,,FBP-YG-19.png,0.37,1.2,42,1,0,27,27,41,1,,,,,,,,,,,,,,,,,,,,,,,,,,,,,,,,,,,,,,,,
,,,,,WIN24_006,18,Female,2024-01-26_14h31.36.515,jersey_experiment_5,2023.2.2,Win32,85.47008547,,,,,,,,,,,,,,,,459.9258,461.2203,461.2204,463.5865,return,0.5212,,82.421875,,,,,,FBP-OG-17.png,0.43,1.2,4,0.5,0,28,28,3,1,,,,,,,,,,,,,,,,,,,,,,,,,,,,,,,,,,,,,,,,
,,,,,WIN24_006,18,Female,2024-01-26_14h31.36.515,jersey_experiment_5,2023.2.2,Win32,85.47008547,,,,,,,,,,,,,,,,463.5867,464.8792,464.8793,468.5146,return,2.5873,,69.66145833,,,,,,FBP-OG-19.png,0.37,1.2,12,0.5,0,29,29,11,1,,,,,,,,,,,,,,,,,,,,,,,,,,,,,,,,,,,,,,,,
,,,,,WIN24_006,18,Female,2024-01-26_14h31.36.515,jersey_experiment_5,2023.2.2,Win32,85.47008547,,,,,,,,,,,,,,,,468.5147,470.3145,470.3146,471.9748,return,0.5313,,85.546875,,,,,,FBP-YG-17.png,0.4,1.2,33,1,0,30,30,32,1,,,,,,,,,,,,,,,,,,,,,,,,,,,,,,,,,,,,,,,,
,,,,,WIN24_006,18,Female,2024-01-26_14h31.36.515,jersey_experiment_5,2023.2.2,Win32,85.47008547,,,,,,,,,,,,,,,,471.9749,473.7692,473.7692,475.078,return,0.5875,,99.86979167,,,,,,FBP-RB-71.png,0.43,1.2,19,1,0,31,31,18,1,,,,,,,,,,,,,,,,,,,,,,,,,,,,,,,,,,,,,,,,
,,,,,WIN24_006,18,Female,2024-01-26_14h31.36.515,jersey_experiment_5,2023.2.2,Win32,85.47008547,,,,,,,,,,,,,,,,475.0782,476.8753,476.8753,479.3266,return,0.6591,,99.34895833,,,,,,FBP-YG-19.png,0.4,1.2,43,1,0,32,32,42,1,,,,,,,,,,,,,,,,,,,,,,,,,,,,,,,,,,,,,,,,
,,,,,WIN24_006,18,Female,2024-01-26_14h31.36.515,jersey_experiment_5,2023.2.2,Win32,85.47008547,,,,,,,,,,,,,,,,479.3267,480.6283,480.6284,481.8195,return,0.5992,,99.34895833,,,,,,FBP-OG-18.png,0.4,1.2,8,0.5,0,33,33,7,1,,,,,,,,,,,,,,,,,,,,,,,,,,,,,,,,,,,,,,,,
,,,,,WIN24_006,18,Female,2024-01-26_14h31.36.515,jersey_experiment_5,2023.2.2,Win32,85.47008547,,,,,,,,,,,,,,,,481.8197,483.1265,483.1266,484.3343,return,0.6018,,99.34895833,,,,,,FBP-OG-18.png,0.45,1.2,10,0.5,0,34,34,9,1,,,,,,,,,,,,,,,,,,,,,,,,,,,,,,,,,,,,,,,,
,,,,,WIN24_006,18,Female,2024-01-26_14h31.36.515,jersey_experiment_5,2023.2.2,Win32,85.47008547,,,,,,,,,,,,,,,,484.3345,486.1398,486.1398,487.8442,return,1.0949,,99.34895833,,,,,,FBP-YG-18.png,0.45,1.2,40,1,0,35,35,39,1,,,,,,,,,,,,,,,,,,,,,,,,,,,,,,,,,,,,,,,,
,,,,,WIN24_006,18,Female,2024-01-26_14h31.36.515,jersey_experiment_5,2023.2.2,Win32,85.47008547,,,,,,,,,,,,,,,,487.8445,489.1462,489.1463,491.925,return,1.247,,32.16145833,,,,,,FBP-OG-17.png,0.37,1.2,2,0.5,0,36,36,1,1,,,,,,,,,,,,,,,,,,,,,,,,,,,,,,,,,,,,,,,,
,,,,,WIN24_006,18,Female,2024-01-26_14h31.36.515,jersey_experiment_5,2023.2.2,Win32,85.47008547,,,,,,,,,,,,,,,,491.9251,493.2169,493.2169,496.2877,return,0.6829,,97.13541667,,,,,,FBP-PT-91.png,0.43,1.2,59,0.5,0,37,37,58,1,,,,,,,,,,,,,,,,,,,,,,,,,,,,,,,,,,,,,,,,
,,,,,WIN24_006,18,Female,2024-01-26_14h31.36.515,jersey_experiment_5,2023.2.2,Win32,85.47008547,,,,,,,,,,,,,,,,496.288,497.5817,497.5818,500.7256,return,1.6103,,37.63020833,,,,,,FBP-PT-81.png,0.37,1.2,52,0.5,0,38,38,51,1,,,,,,,,,,,,,,,,,,,,,,,,,,,,,,,,,,,,,,,,
,,,,,WIN24_006,18,Female,2024-01-26_14h31.36.515,jersey_experiment_5,2023.2.2,Win32,85.47008547,,,,,,,,,,,,,,,,500.7257,502.0215,502.0215,504.5624,return,0.6839,,98.17708333,,,,,,FBP-PT-81.png,0.45,1.2,55,0.5,0,39,39,54,1,,,,,,,,,,,,,,,,,,,,,,,,,,,,,,,,,,,,,,,,
,,,,,WIN24_006,18,Female,2024-01-26_14h31.36.515,jersey_experiment_5,2023.2.2,Win32,85.47008547,,,,,,,,,,,,,,,,504.5626,506.3586,506.3586,507.7409,return,0.6962,,99.73958333,,,,,,FBP-YG-19.png,0.43,1.2,44,1,0,40,40,43,1,,,,,,,,,,,,,,,,,,,,,,,,,,,,,,,,,,,,,,,,
,,,,,WIN24_006,18,Female,2024-01-26_14h31.36.515,jersey_experiment_5,2023.2.2,Win32,85.47008547,,,,,,,,,,,,,,,,507.741,509.0452,509.0452,513.6412,return,2.3969,,1.171875,,,,,,FBP-OG-19.png,0.35,1.2,11,0.5,0,41,41,10,1,,,,,,,,,,,,,,,,,,,,,,,,,,,,,,,,,,,,,,,,
,,,,,WIN24_006,18,Female,2024-01-26_14h31.36.515,jersey_experiment_5,2023.2.2,Win32,85.47008547,,,,,,,,,,,,,,,,513.6414,515.4344,515.4344,520.2554,return,0.5276,,4.557291667,,,,,,FBP-YG-18.png,0.35,1.2,36,1,0,42,42,35,1,,,,,,,,,,,,,,,,,,,,,,,,,,,,,,,,,,,,,,,,
,,,,,WIN24_006,18,Female,2024-01-26_14h31.36.515,jersey_experiment_5,2023.2.2,Win32,85.47008547,,,,,,,,,,,,,,,,520.2556,522.057,522.057,523.8236,return,0.6252,,99.08854167,,,,,,FBP-RB-91.png,0.45,1.2,30,1,0,43,43,29,1,,,,,,,,,,,,,,,,,,,,,,,,,,,,,,,,,,,,,,,,
,,,,,WIN24_006,18,Female,2024-01-26_14h31.36.515,jersey_experiment_5,2023.2.2,Win32,85.47008547,,,,,,,,,,,,,,,,523.8238,525.1164,525.1164,526.4886,return,0.6174,,98.95833333,,,,,,FBP-OG-19.png,0.43,1.2,14,0.5,0,44,44,13,1,,,,,,,,,,,,,,,,,,,,,,,,,,,,,,,,,,,,,,,,
,,,,,WIN24_006,18,Female,2024-01-26_14h31.36.515,jersey_experiment_5,2023.2.2,Win32,85.47008547,,,,,,,,,,,,,,,,526.4888,528.2914,528.2915,530.3882,return,0.588,,50.390625,,,,,,FBP-RB-81.png,0.35,1.2,21,1,0,45,45,20,1,,,,,,,,,,,,,,,,,,,,,,,,,,,,,,,,,,,,,,,,
,,,,,WIN24_006,18,Female,2024-01-26_14h31.36.515,jersey_experiment_5,2023.2.2,Win32,85.47008547,,,,,,,,,,,,,,,,530.3883,531.6913,531.6913,533.7739,return,1.4348,,53.515625,,,,,,FBP-PT-91.png,0.37,1.2,57,0.5,0,46,46,56,1,,,,,,,,,,,,,,,,,,,,,,,,,,,,,,,,,,,,,,,,
,,,,,WIN24_006,18,Female,2024-01-26_14h31.36.515,jersey_experiment_5,2023.2.2,Win32,85.47008547,,,,,,,,,,,,,,,,533.7741,535.0655,535.0655,536.3636,return,0.6251,,76.43229167,,,,,,FBP-OG-19.png,0.45,1.2,15,0.5,0,47,47,14,1,,,,,,,,,,,,,,,,,,,,,,,,,,,,,,,,,,,,,,,,
,,,,,WIN24_006,18,Female,2024-01-26_14h31.36.515,jersey_experiment_5,2023.2.2,Win32,85.47008547,,,,,,,,,,,,,,,,536.3638,538.1597,538.1597,539.7287,return,0.5648,,49.86979167,,,,,,FBP-YG-19.png,0.35,1.2,41,1,0,48,48,40,1,,,,,,,,,,,,,,,,,,,,,,,,,,,,,,,,,,,,,,,,
,,,,,WIN24_006,18,Female,2024-01-26_14h31.36.515,jersey_experiment_5,2023.2.2,Win32,85.47008547,,,,,,,,,,,,,,,,539.7289,541.0304,541.0304,543.1512,return,0.974,,99.08854167,,,,,,FBP-OG-17.png,0.45,1.2,5,0.5,0,49,49,4,1,,,,,,,,,,,,,,,,,,,,,,,,,,,,,,,,,,,,,,,,
,,,,,WIN24_006,18,Female,2024-01-26_14h31.36.515,jersey_experiment_5,2023.2.2,Win32,85.47008547,,,,,,,,,,,,,,,,543.1514,544.9483,544.9483,546.035,return,0.671,,99.08854167,,,,,,FBP-RB-71.png,0.45,1.2,20,1,0,50,50,19,1,,,,,,,,,,,,,,,,,,,,,,,,,,,,,,,,,,,,,,,,
,,,,,WIN24_006,18,Female,2024-01-26_14h31.36.515,jersey_experiment_5,2023.2.2,Win32,85.47008547,,,,,,,,,,,,,,,,546.0352,547.8333,547.8334,549.9162,return,0.6459,,45.05208333,,,,,,FBP-RB-91.png,0.37,1.2,27,1,0,51,51,26,1,,,,,,,,,,,,,,,,,,,,,,,,,,,,,,,,,,,,,,,,
,,,,,WIN24_006,18,Female,2024-01-26_14h31.36.515,jersey_experiment_5,2023.2.2,Win32,85.47008547,,,,,,,,,,,,,,,,549.9164,551.2228,551.2229,555.9525,return,3.4094,,50.91145833,,,,,,FBP-PT-71.png,0.4,1.2,48,0.5,0,52,52,47,1,,,,,,,,,,,,,,,,,,,,,,,,,,,,,,,,,,,,,,,,
,,,,,WIN24_006,18,Female,2024-01-26_14h31.36.515,jersey_experiment_5,2023.2.2,Win32,85.47008547,,,,,,,,,,,,,,,,555.9526,557.2569,557.257,559.3882,return,0.6122,,0.130208333,,,,,,FBP-PT-71.png,0.37,1.2,47,0.5,0,53,53,46,1,,,,,,,,,,,,,,,,,,,,,,,,,,,,,,,,,,,,,,,,
,,,,,WIN24_006,18,Female,2024-01-26_14h31.36.515,jersey_experiment_5,2023.2.2,Win32,85.47008547,,,,,,,,,,,,,,,,559.3884,561.1883,561.1883,564.5635,return,2.2362,,70.83333333,,,,,,FBP-RB-91.png,0.4,1.2,28,1,0,54,54,27,1,,,,,,,,,,,,,,,,,,,,,,,,,,,,,,,,,,,,,,,,
,,,,,WIN24_006,18,Female,2024-01-26_14h31.36.515,jersey_experiment_5,2023.2.2,Win32,85.47008547,,,,,,,,,,,,,,,,564.5637,565.8573,565.8573,568.9651,return,1.774,,45.703125,,,,,,FBP-PT-71.png,0.35,1.2,46,0.5,0,55,55,45,1,,,,,,,,,,,,,,,,,,,,,,,,,,,,,,,,,,,,,,,,
,,,,,WIN24_006,18,Female,2024-01-26_14h31.36.515,jersey_experiment_5,2023.2.2,Win32,85.47008547,,,,,,,,,,,,,,,,568.9653,570.2588,570.2588,577.5535,return,3.9766,,54.42708333,,,,,,FBP-OG-17.png,0.4,1.2,3,0.5,0,56,56,2,1,,,,,,,,,,,,,,,,,,,,,,,,,,,,,,,,,,,,,,,,
,,,,,WIN24_006,18,Female,2024-01-26_14h31.36.515,jersey_experiment_5,2023.2.2,Win32,85.47008547,,,,,,,,,,,,,,,,577.5536,578.8469,578.847,580.9287,return,0.6944,,2.213541667,,,,,,FBP-OG-18.png,0.35,1.2,6,0.5,0,57,57,5,1,,,,,,,,,,,,,,,,,,,,,,,,,,,,,,,,,,,,,,,,
,,,,,WIN24_006,18,Female,2024-01-26_14h31.36.515,jersey_experiment_5,2023.2.2,Win32,85.47008547,,,,,,,,,,,,,,,,580.9289,582.731,582.731,585.8363,return,2.0011,,90.10416667,,,,,,FBP-RB-81.png,0.43,1.2,24,1,0,58,58,23,1,,,,,,,,,,,,,,,,,,,,,,,,,,,,,,,,,,,,,,,,
,,,,,WIN24_006,18,Female,2024-01-26_14h31.36.515,jersey_experiment_5,2023.2.2,Win32,85.47008547,,,,,,,,,,,,,,,,585.8365,587.1404,587.1404,588.6113,return,0.587,,99.73958333,,,,,,FBP-PT-91.png,0.45,1.2,60,0.5,0,59,59,59,1,,,,,,,,,,,,,,,,,,,,,,,,,,,,,,,,,,,,,,,,
,,,,,WIN24_006,18,Female,2024-01-26_14h31.36.515,jersey_experiment_5,2023.2.2,Win32,85.47008547,,,,,,,,,,,,,,,,,,,,,,,,,,,,,,,,,,,,,,,588.6116,708.6134,,,,,,,,,,,,,,,,,,,,,,,,,,,,,,,,,,,,,,
,,,,,WIN24_006,18,Female,2024-01-26_14h31.36.515,jersey_experiment_5,2023.2.2,Win32,85.47008547,,,,,,,,,,,,,,,,,,,,,,,,,,,,,,,,,,,,,,,,,708.6134,711.2249,return,2.5951,,,,,,,,,,,,,,,,,,,,,,,,,,,,,,,,,,
,,,,,WIN24_006,18,Female,2024-01-26_14h31.36.515,jersey_experiment_5,2023.2.2,Win32,85.47008547,,,,,,,,,,,,,,,,711.2311,713.0249,713.0249,715.5778,return,0.6298,,48.95833333,,,,,,FBP-PT-19.png,0.37,1.2,57,1,,,,,,,,,,,,,0,0,0,56,1,,,,,,,,,,,,,,,,,,,,,,,,,,,,
,,,,,WIN24_006,18,Female,2024-01-26_14h31.36.515,jersey_experiment_5,2023.2.2,Win32,85.47008547,,,,,,,,,,,,,,,,715.5783,717.3808,717.3809,718.6398,return,0.565,,75.13020833,,,,,,FBP-PT-17.png,0.43,1.2,49,1,,,,,,,,,,,,,0,1,1,48,1,,,,,,,,,,,,,,,,,,,,,,,,,,,,
,,,,,WIN24_006,18,Female,2024-01-26_14h31.36.515,jersey_experiment_5,2023.2.2,Win32,85.47008547,,,,,,,,,,,,,,,,718.6399,719.9311,719.9311,722.0175,return,0.4692,,75.13020833,,,,,,FBP-RB-19.png,0.43,1.2,29,0.5,,,,,,,,,,,,,0,2,2,28,1,,,,,,,,,,,,,,,,,,,,,,,,,,,,
,,,,,WIN24_006,18,Female,2024-01-26_14h31.36.515,jersey_experiment_5,2023.2.2,Win32,85.47008547,,,,,,,,,,,,,,,,722.0177,723.3194,723.3195,724.8513,return,0.5744,,24.609375,,,,,,FBP-YG-71.png,0.35,1.2,31,0.5,,,,,,,,,,,,,0,3,3,30,1,,,,,,,,,,,,,,,,,,,,,,,,,,,,
,,,,,WIN24_006,18,Female,2024-01-26_14h31.36.515,jersey_experiment_5,2023.2.2,Win32,85.47008547,,,,,,,,,,,,,,,,724.8516,726.1468,726.1469,727.2136,return,0.5199,,24.47916667,,,,,,FBP-YG-91.png,0.35,1.2,41,0.5,,,,,,,,,,,,,0,4,4,40,1,,,,,,,,,,,,,,,,,,,,,,,,,,,,
,,,,,WIN24_006,18,Female,2024-01-26_14h31.36.515,jersey_experiment_5,2023.2.2,Win32,85.47008547,,,,,,,,,,,,,,,,727.2139,728.5128,728.5128,731.6998,return,0.5058,,88.02083333,,,,,,FBP-YG-71.png,0.43,1.2,34,0.5,,,,,,,,,,,,,0,5,5,33,1,,,,,,,,,,,,,,,,,,,,,,,,,,,,
,,,,,WIN24_006,18,Female,2024-01-26_14h31.36.515,jersey_experiment_5,2023.2.2,Win32,85.47008547,,,,,,,,,,,,,,,,731.7,732.9943,732.9944,735.1668,return,1.5311,,81.11979167,,,,,,FBP-YG-81.png,0.4,1.2,38,0.5,,,,,,,,,,,,,0,6,6,37,1,,,,,,,,,,,,,,,,,,,,,,,,,,,,
,,,,,WIN24_006,18,Female,2024-01-26_14h31.36.515,jersey_experiment_5,2023.2.2,Win32,85.47008547,,,,,,,,,,,,,,,,735.1671,736.9718,736.9718,739.0301,return,0.5781,,48.046875,,,,,,FBP-OG-81.png,0.35,1.2,6,1,,,,,,,,,,,,,0,7,7,5,1,,,,,,,,,,,,,,,,,,,,,,,,,,,,
,,,,,WIN24_006,18,Female,2024-01-26_14h31.36.515,jersey_experiment_5,2023.2.2,Win32,85.47008547,,,,,,,,,,,,,,,,739.0303,740.3341,740.3341,741.9472,return,0.5188,,99.609375,,,,,,FBP-RB-19.png,0.45,1.2,30,0.5,,,,,,,,,,,,,0,8,8,29,1,,,,,,,,,,,,,,,,,,,,,,,,,,,,
,,,,,WIN24_006,18,Female,2024-01-26_14h31.36.515,jersey_experiment_5,2023.2.2,Win32,85.47008547,,,,,,,,,,,,,,,,741.9474,743.2519,743.2519,744.9554,return,0.8282,,72.78645833,,,,,,FBP-YG-71.png,0.4,1.2,33,0.5,,,,,,,,,,,,,0,9,9,32,1,,,,,,,,,,,,,,,,,,,,,,,,,,,,
,,,,,WIN24_006,18,Female,2024-01-26_14h31.36.515,jersey_experiment_5,2023.2.2,Win32,85.47008547,,,,,,,,,,,,,,,,744.9557,746.7592,746.7592,747.9958,return,0.6619,,78.64583333,,,,,,FBP-OG-91.png,0.4,1.2,13,1,,,,,,,,,,,,,0,10,10,12,1,,,,,,,,,,,,,,,,,,,,,,,,,,,,
,,,,,WIN24_006,18,Female,2024-01-26_14h31.36.515,jersey_experiment_5,2023.2.2,Win32,85.47008547,,,,,,,,,,,,,,,,747.9959,749.301,749.301,751.1204,return,0.6365,,97.65625,,,,,,FBP-RB-17.png,0.43,1.2,19,0.5,,,,,,,,,,,,,0,11,11,18,1,,,,,,,,,,,,,,,,,,,,,,,,,,,,
,,,,,WIN24_006,18,Female,2024-01-26_14h31.36.515,jersey_experiment_5,2023.2.2,Win32,85.47008547,,,,,,,,,,,,,,,,751.1206,752.9135,752.9135,754.2879,return,0.5636,,62.63020833,,,,,,FBP-OG-81.png,0.4,1.2,8,1,,,,,,,,,,,,,0,12,12,7,1,,,,,,,,,,,,,,,,,,,,,,,,,,,,
,,,,,WIN24_006,18,Female,2024-01-26_14h31.36.515,jersey_experiment_5,2023.2.2,Win32,85.47008547,,,,,,,,,,,,,,,,754.2881,755.5836,755.5836,757.4521,return,0.6563,,26.953125,,,,,,FBP-YG-71.png,0.37,1.2,32,0.5,,,,,,,,,,,,,0,13,13,31,1,,,,,,,,,,,,,,,,,,,,,,,,,,,,
,,,,,WIN24_006,18,Female,2024-01-26_14h31.36.515,jersey_experiment_5,2023.2.2,Win32,85.47008547,,,,,,,,,,,,,,,,757.4522,759.253,759.253,761.1679,return,0.6377,,99.08854167,,,,,,FBP-OG-71.png,0.45,1.2,5,1,,,,,,,,,,,,,0,14,14,4,1,,,,,,,,,,,,,,,,,,,,,,,,,,,,
,,,,,WIN24_006,18,Female,2024-01-26_14h31.36.515,jersey_experiment_5,2023.2.2,Win32,85.47008547,,,,,,,,,,,,,,,,761.1681,762.9708,762.9708,764.3134,return,0.599,,98.828125,,,,,,FBP-PT-17.png,0.45,1.2,50,1,,,,,,,,,,,,,0,15,15,49,1,,,,,,,,,,,,,,,,,,,,,,,,,,,,
,,,,,WIN24_006,18,Female,2024-01-26_14h31.36.515,jersey_experiment_5,2023.2.2,Win32,85.47008547,,,,,,,,,,,,,,,,764.3135,765.6171,765.6171,767.3958,return,0.624,,24.08854167,,,,,,FBP-YG-81.png,0.37,1.2,37,0.5,,,,,,,,,,,,,0,16,16,36,1,,,,,,,,,,,,,,,,,,,,,,,,,,,,
,,,,,WIN24_006,18,Female,2024-01-26_14h31.36.515,jersey_experiment_5,2023.2.2,Win32,85.47008547,,,,,,,,,,,,,,,,767.396,769.1938,769.1938,771.819,return,0.5521,,49.609375,,,,,,FBP-PT-17.png,0.4,1.2,48,1,,,,,,,,,,,,,0,17,17,47,1,,,,,,,,,,,,,,,,,,,,,,,,,,,,
,,,,,WIN24_006,18,Female,2024-01-26_14h31.36.515,jersey_experiment_5,2023.2.2,Win32,85.47008547,,,,,,,,,,,,,,,,771.8192,773.619,773.619,777.7963,return,2.4377,,14.58333333,,,,,,FBP-OG-71.png,0.37,1.2,2,1,,,,,,,,,,,,,0,18,18,1,1,,,,,,,,,,,,,,,,,,,,,,,,,,,,
,,,,,WIN24_006,18,Female,2024-01-26_14h31.36.515,jersey_experiment_5,2023.2.2,Win32,85.47008547,,,,,,,,,,,,,,,,777.7964,779.592,779.592,781.9954,return,0.5303,,0.651041667,,,,,,FBP-PT-18.png,0.35,1.2,51,1,,,,,,,,,,,,,0,19,19,50,1,,,,,,,,,,,,,,,,,,,,,,,,,,,,
,,,,,WIN24_006,18,Female,2024-01-26_14h31.36.515,jersey_experiment_5,2023.2.2,Win32,85.47008547,,,,,,,,,,,,,,,,781.9956,783.7921,783.7921,785.5496,return,0.6344,,75.26041667,,,,,,FBP-OG-81.png,0.45,1.2,10,1,,,,,,,,,,,,,0,20,20,9,1,,,,,,,,,,,,,,,,,,,,,,,,,,,,
,,,,,WIN24_006,18,Female,2024-01-26_14h31.36.515,jersey_experiment_5,2023.2.2,Win32,85.47008547,,,,,,,,,,,,,,,,785.5497,786.8551,786.8551,790.3494,return,2.4122,,98.046875,,,,,,FBP-RB-18.png,0.45,1.2,25,0.5,,,,,,,,,,,,,0,21,21,24,1,,,,,,,,,,,,,,,,,,,,,,,,,,,,
,,,,,WIN24_006,18,Female,2024-01-26_14h31.36.515,jersey_experiment_5,2023.2.2,Win32,85.47008547,,,,,,,,,,,,,,,,790.3496,791.6427,791.6428,794.6043,return,0.6875,,13.54166667,,,,,,FBP-RB-17.png,0.35,1.2,16,0.5,,,,,,,,,,,,,0,22,22,15,1,,,,,,,,,,,,,,,,,,,,,,,,,,,,
,,,,,WIN24_006,18,Female,2024-01-26_14h31.36.515,jersey_experiment_5,2023.2.2,Win32,85.47008547,,,,,,,,,,,,,,,,794.6044,796.4065,796.4065,798.2985,return,0.6661,,24.609375,,,,,,FBP-PT-17.png,0.37,1.2,47,1,,,,,,,,,,,,,0,23,23,46,1,,,,,,,,,,,,,,,,,,,,,,,,,,,,
,,,,,WIN24_006,18,Female,2024-01-26_14h31.36.515,jersey_experiment_5,2023.2.2,Win32,85.47008547,,,,,,,,,,,,,,,,798.2988,800.101,800.101,804.219,return,2.6927,,75,,,,,,FBP-OG-91.png,0.45,1.2,15,1,,,,,,,,,,,,,0,24,24,14,1,,,,,,,,,,,,,,,,,,,,,,,,,,,,
,,,,,WIN24_006,18,Female,2024-01-26_14h31.36.515,jersey_experiment_5,2023.2.2,Win32,85.47008547,,,,,,,,,,,,,,,,804.2192,805.5106,805.5106,806.8711,return,0.568,,74.21875,,,,,,FBP-RB-17.png,0.45,1.2,20,0.5,,,,,,,,,,,,,0,25,25,19,1,,,,,,,,,,,,,,,,,,,,,,,,,,,,
,,,,,WIN24_006,18,Female,2024-01-26_14h31.36.515,jersey_experiment_5,2023.2.2,Win32,85.47008547,,,,,,,,,,,,,,,,806.8713,808.6659,808.6659,809.5736,return,0.5192,,74.21875,,,,,,FBP-PT-18.png,0.43,1.2,54,1,,,,,,,,,,,,,0,26,26,53,1,,,,,,,,,,,,,,,,,,,,,,,,,,,,
,,,,,WIN24_006,18,Female,2024-01-26_14h31.36.515,jersey_experiment_5,2023.2.2,Win32,85.47008547,,,,,,,,,,,,,,,,809.5737,811.3761,811.3761,813.8212,return,1.3065,,24.609375,,,,,,FBP-PT-18.png,0.37,1.2,52,1,,,,,,,,,,,,,0,27,27,51,1,,,,,,,,,,,,,,,,,,,,,,,,,,,,
,,,,,WIN24_006,18,Female,2024-01-26_14h31.36.515,jersey_experiment_5,2023.2.2,Win32,85.47008547,,,,,,,,,,,,,,,,813.8214,815.1265,815.1265,817.067,return,0.5297,,73.95833333,,,,,,FBP-YG-81.png,0.45,1.2,40,0.5,,,,,,,,,,,,,0,28,28,39,1,,,,,,,,,,,,,,,,,,,,,,,,,,,,
,,,,,WIN24_006,18,Female,2024-01-26_14h31.36.515,jersey_experiment_5,2023.2.2,Win32,85.47008547,,,,,,,,,,,,,,,,817.0671,818.8641,818.8641,820.6691,return,0.6385,,24.34895833,,,,,,FBP-OG-81.png,0.37,1.2,7,1,,,,,,,,,,,,,0,29,29,6,1,,,,,,,,,,,,,,,,,,,,,,,,,,,,
,,,,,WIN24_006,18,Female,2024-01-26_14h31.36.515,jersey_experiment_5,2023.2.2,Win32,85.47008547,,,,,,,,,,,,,,,,820.6693,822.4647,822.4648,825.4921,return,0.5882,,58.59375,,,,,,FBP-PT-19.png,0.4,1.2,58,1,,,,,,,,,,,,,0,30,30,57,1,,,,,,,,,,,,,,,,,,,,,,,,,,,,
,,,,,WIN24_006,18,Female,2024-01-26_14h31.36.515,jersey_experiment_5,2023.2.2,Win32,85.47008547,,,,,,,,,,,,,,,,825.4922,826.7852,826.7852,828.9157,return,0.599,,1.171875,,,,,,FBP-YG-81.png,0.35,1.2,36,0.5,,,,,,,,,,,,,0,31,31,35,1,,,,,,,,,,,,,,,,,,,,,,,,,,,,
,,,,,WIN24_006,18,Female,2024-01-26_14h31.36.515,jersey_experiment_5,2023.2.2,Win32,85.47008547,,,,,,,,,,,,,,,,828.9158,830.2215,830.2215,831.7627,return,0.5177,,74.86979167,,,,,,FBP-YG-81.png,0.43,1.2,39,0.5,,,,,,,,,,,,,0,32,32,38,1,,,,,,,,,,,,,,,,,,,,,,,,,,,,
,,,,,WIN24_006,18,Female,2024-01-26_14h31.36.515,jersey_experiment_5,2023.2.2,Win32,85.47008547,,,,,,,,,,,,,,,,831.7628,833.0551,833.0551,834.786,return,0.6234,,99.08854167,,,,,,FBP-RB-18.png,0.43,1.2,24,0.5,,,,,,,,,,,,,0,33,33,23,1,,,,,,,,,,,,,,,,,,,,,,,,,,,,
,,,,,WIN24_006,18,Female,2024-01-26_14h31.36.515,jersey_experiment_5,2023.2.2,Win32,85.47008547,,,,,,,,,,,,,,,,834.7862,836.0882,836.0883,837.1001,return,0.5412,,99.08854167,,,,,,FBP-RB-17.png,0.4,1.2,18,0.5,,,,,,,,,,,,,0,34,34,17,1,,,,,,,,,,,,,,,,,,,,,,,,,,,,
,,,,,WIN24_006,18,Female,2024-01-26_14h31.36.515,jersey_experiment_5,2023.2.2,Win32,85.47008547,,,,,,,,,,,,,,,,837.1003,838.8921,838.8921,839.9392,return,0.6355,,99.08854167,,,,,,FBP-OG-91.png,0.37,1.2,12,1,,,,,,,,,,,,,0,35,35,11,1,,,,,,,,,,,,,,,,,,,,,,,,,,,,
,,,,,WIN24_006,18,Female,2024-01-26_14h31.36.515,jersey_experiment_5,2023.2.2,Win32,85.47008547,,,,,,,,,,,,,,,,839.9394,841.2337,841.2337,845.3986,return,3.7431,,23.828125,,,,,,FBP-RB-17.png,0.37,1.2,17,0.5,,,,,,,,,,,,,0,36,36,16,1,,,,,,,,,,,,,,,,,,,,,,,,,,,,
,,,,,WIN24_006,18,Female,2024-01-26_14h31.36.515,jersey_experiment_5,2023.2.2,Win32,85.47008547,,,,,,,,,,,,,,,,845.3988,847.1968,847.1968,849.0591,return,0.6607,,65.75520833,,,,,,FBP-PT-18.png,0.4,1.2,53,1,,,,,,,,,,,,,0,37,37,52,1,,,,,,,,,,,,,,,,,,,,,,,,,,,,
,,,,,WIN24_006,18,Female,2024-01-26_14h31.36.515,jersey_experiment_5,2023.2.2,Win32,85.47008547,,,,,,,,,,,,,,,,849.0593,850.858,850.8581,852.6534,return,1.2747,,28.515625,,,,,,FBP-OG-91.png,0.35,1.2,11,1,,,,,,,,,,,,,0,38,38,10,1,,,,,,,,,,,,,,,,,,,,,,,,,,,,
,,,,,WIN24_006,18,Female,2024-01-26_14h31.36.515,jersey_experiment_5,2023.2.2,Win32,85.47008547,,,,,,,,,,,,,,,,852.6536,853.9476,853.9477,858.4302,return,0.5801,,75.390625,,,,,,FBP-YG-91.png,0.37,1.2,42,0.5,,,,,,,,,,,,,0,39,39,41,1,,,,,,,,,,,,,,,,,,,,,,,,,,,,
,,,,,WIN24_006,18,Female,2024-01-26_14h31.36.515,jersey_experiment_5,2023.2.2,Win32,85.47008547,,,,,,,,,,,,,,,,858.4304,859.7281,859.7281,861.2801,return,0.5282,,74.86979167,,,,,,FBP-RB-19.png,0.4,1.2,28,0.5,,,,,,,,,,,,,0,40,40,27,1,,,,,,,,,,,,,,,,,,,,,,,,,,,,
,,,,,WIN24_006,18,Female,2024-01-26_14h31.36.515,jersey_experiment_5,2023.2.2,Win32,85.47008547,,,,,,,,,,,,,,,,861.2804,862.5737,862.5737,864.0224,return,0.5178,,89.19270833,,,,,,FBP-YG-91.png,0.43,1.2,44,0.5,,,,,,,,,,,,,0,41,41,43,1,,,,,,,,,,,,,,,,,,,,,,,,,,,,
,,,,,WIN24_006,18,Female,2024-01-26_14h31.36.515,jersey_experiment_5,2023.2.2,Win32,85.47008547,,,,,,,,,,,,,,,,864.0226,865.3266,865.3266,867.8817,return,0.5297,,50,,,,,,FBP-RB-19.png,0.35,1.2,26,0.5,,,,,,,,,,,,,0,42,42,25,1,,,,,,,,,,,,,,,,,,,,,,,,,,,,
,,,,,WIN24_006,18,Female,2024-01-26_14h31.36.515,jersey_experiment_5,2023.2.2,Win32,85.47008547,,,,,,,,,,,,,,,,867.8819,869.1757,869.1757,870.8895,return,0.5243,,85.9375,,,,,,FBP-YG-71.png,0.45,1.2,35,0.5,,,,,,,,,,,,,0,43,43,34,1,,,,,,,,,,,,,,,,,,,,,,,,,,,,
,,,,,WIN24_006,18,Female,2024-01-26_14h31.36.515,jersey_experiment_5,2023.2.2,Win32,85.47008547,,,,,,,,,,,,,,,,870.8897,872.6825,872.6825,874.1365,return,0.5837,,14.84375,,,,,,FBP-PT-19.png,0.35,1.2,56,1,,,,,,,,,,,,,0,44,44,55,1,,,,,,,,,,,,,,,,,,,,,,,,,,,,
,,,,,WIN24_006,18,Female,2024-01-26_14h31.36.515,jersey_experiment_5,2023.2.2,Win32,85.47008547,,,,,,,,,,,,,,,,874.1367,875.941,875.941,877.388,return,0.5298,,74.08854167,,,,,,FBP-OG-71.png,0.43,1.2,4,1,,,,,,,,,,,,,0,45,45,3,1,,,,,,,,,,,,,,,,,,,,,,,,,,,,
,,,,,WIN24_006,18,Female,2024-01-26_14h31.36.515,jersey_experiment_5,2023.2.2,Win32,85.47008547,,,,,,,,,,,,,,,,877.3881,878.6942,878.6942,879.8192,return,0.5342,,74.34895833,,,,,,FBP-RB-18.png,0.4,1.2,23,0.5,,,,,,,,,,,,,0,46,46,22,1,,,,,,,,,,,,,,,,,,,,,,,,,,,,
,,,,,WIN24_006,18,Female,2024-01-26_14h31.36.515,jersey_experiment_5,2023.2.2,Win32,85.47008547,,,,,,,,,,,,,,,,879.8196,881.6124,881.6124,883.1487,return,0.5578,,98.95833333,,,,,,FBP-PT-18.png,0.45,1.2,55,1,,,,,,,,,,,,,0,47,47,54,1,,,,,,,,,,,,,,,,,,,,,,,,,,,,
,,,,,WIN24_006,18,Female,2024-01-26_14h31.36.515,jersey_experiment_5,2023.2.2,Win32,85.47008547,,,,,,,,,,,,,,,,883.149,884.4452,884.4453,900.0121,return,1.0476,,1.432291667,,,,,,FBP-RB-18.png,0.35,1.2,21,0.5,,,,,,,,,,,,,0,48,48,20,1,,,,,,,,,,,,,,,,,,,,,,,,,,,,
,,,,,WIN24_006,18,Female,2024-01-26_14h31.36.515,jersey_experiment_5,2023.2.2,Win32,85.47008547,,,,,,,,,,,,,,,,900.0122,901.8082,901.8082,903.342,return,0.6244,,1.432291667,,,,,,FBP-OG-71.png,0.35,1.2,1,1,,,,,,,,,,,,,0,49,49,0,1,,,,,,,,,,,,,,,,,,,,,,,,,,,,
,,,,,WIN24_006,18,Female,2024-01-26_14h31.36.515,jersey_experiment_5,2023.2.2,Win32,85.47008547,,,,,,,,,,,,,,,,903.3421,905.1419,905.1419,906.4113,return,0.6361,,76.30208333,,,,,,FBP-PT-19.png,0.43,1.2,59,1,,,,,,,,,,,,,0,50,50,58,1,,,,,,,,,,,,,,,,,,,,,,,,,,,,
,,,,,WIN24_006,18,Female,2024-01-26_14h31.36.515,jersey_experiment_5,2023.2.2,Win32,85.47008547,,,,,,,,,,,,,,,,906.4116,907.7144,907.7144,909.5903,return,0.566,,48.828125,,,,,,FBP-RB-18.png,0.37,1.2,22,0.5,,,,,,,,,,,,,0,51,51,21,1,,,,,,,,,,,,,,,,,,,,,,,,,,,,
,,,,,WIN24_006,18,Female,2024-01-26_14h31.36.515,jersey_experiment_5,2023.2.2,Win32,85.47008547,,,,,,,,,,,,,,,,909.5905,911.3851,911.3851,912.8675,return,0.5654,,76.5625,,,,,,FBP-OG-91.png,0.43,1.2,14,1,,,,,,,,,,,,,0,52,52,13,1,,,,,,,,,,,,,,,,,,,,,,,,,,,,
,,,,,WIN24_006,18,Female,2024-01-26_14h31.36.515,jersey_experiment_5,2023.2.2,Win32,85.47008547,,,,,,,,,,,,,,,,912.8677,914.6613,914.6613,915.9645,return,0.5276,,98.69791667,,,,,,FBP-PT-19.png,0.45,1.2,60,1,,,,,,,,,,,,,0,53,53,59,1,,,,,,,,,,,,,,,,,,,,,,,,,,,,
,,,,,WIN24_006,18,Female,2024-01-26_14h31.36.515,jersey_experiment_5,2023.2.2,Win32,85.47008547,,,,,,,,,,,,,,,,915.9647,917.7644,917.7644,919.1625,return,0.5745,,23.95833333,,,,,,FBP-PT-17.png,0.35,1.2,46,1,,,,,,,,,,,,,0,54,54,45,1,,,,,,,,,,,,,,,,,,,,,,,,,,,,
,,,,,WIN24_006,18,Female,2024-01-26_14h31.36.515,jersey_experiment_5,2023.2.2,Win32,85.47008547,,,,,,,,,,,,,,,,919.1627,920.9655,920.9655,923.6797,return,0.5319,,76.04166667,,,,,,FBP-OG-81.png,0.43,1.2,9,1,,,,,,,,,,,,,0,55,55,8,1,,,,,,,,,,,,,,,,,,,,,,,,,,,,
,,,,,WIN24_006,18,Female,2024-01-26_14h31.36.515,jersey_experiment_5,2023.2.2,Win32,85.47008547,,,,,,,,,,,,,,,,923.6799,925.4818,925.4819,927.0353,return,0.7633,,75.13020833,,,,,,FBP-OG-71.png,0.4,1.2,3,1,,,,,,,,,,,,,0,56,56,2,1,,,,,,,,,,,,,,,,,,,,,,,,,,,,
,,,,,WIN24_006,18,Female,2024-01-26_14h31.36.515,jersey_experiment_5,2023.2.2,Win32,85.47008547,,,,,,,,,,,,,,,,927.0355,928.3268,928.3268,929.8014,return,0.5882,,99.609375,,,,,,FBP-YG-91.png,0.45,1.2,45,0.5,,,,,,,,,,,,,0,57,57,44,1,,,,,,,,,,,,,,,,,,,,,,,,,,,,
,,,,,WIN24_006,18,Female,2024-01-26_14h31.36.515,jersey_experiment_5,2023.2.2,Win32,85.47008547,,,,,,,,,,,,,,,,929.8015,931.1057,931.1057,933.2032,return,0.5784,,85.41666667,,,,,,FBP-YG-91.png,0.4,1.2,43,0.5,,,,,,,,,,,,,0,58,58,42,1,,,,,,,,,,,,,,,,,,,,,,,,,,,,
,,,,,WIN24_006,18,Female,2024-01-26_14h31.36.515,jersey_experiment_5,2023.2.2,Win32,85.47008547,,,,,,,,,,,,,,,,933.2034,934.4947,934.4947,936.296,return,0.5648,,25.390625,,,,,,FBP-RB-19.png,0.37,1.2,27,0.5,,,,,,,,,,,,,0,59,59,26,1,,,,,,,,,,,,,,,,,,,,,,,,,,,,
,,,,,WIN24_006,18,Female,2024-01-26_14h31.36.515,jersey_experiment_5,2023.2.2,Win32,85.47008547,,,,,,,,,,,,,,,,936.2978,938.0988,938.0988,939.9193,return,0.5663,,74.86979167,,,,,,FBP-OG-19.png,0.45,1.2,15,1,,,,,,,,,,,,,,,,,,0,0,0,14,1,,,,,,,,,,,,,,,,,,,,,,,
,,,,,WIN24_006,18,Female,2024-01-26_14h31.36.515,jersey_experiment_5,2023.2.2,Win32,85.47008547,,,,,,,,,,,,,,,,939.9197,941.7196,941.7196,944.6687,return,0.6729,,78.125,,,,,,FBP-PT-81.png,0.43,1.2,54,1,,,,,,,,,,,,,,,,,,0,1,1,53,1,,,,,,,,,,,,,,,,,,,,,,,
,,,,,WIN24_006,18,Female,2024-01-26_14h31.36.515,jersey_experiment_5,2023.2.2,Win32,85.47008547,,,,,,,,,,,,,,,,944.6688,946.4613,946.4613,948.2042,return,0.5566,,61.84895833,,,,,,FBP-OG-19.png,0.4,1.2,13,1,,,,,,,,,,,,,,,,,,0,2,2,12,1,,,,,,,,,,,,,,,,,,,,,,,
,,,,,WIN24_006,18,Female,2024-01-26_14h31.36.515,jersey_experiment_5,2023.2.2,Win32,85.47008547,,,,,,,,,,,,,,,,948.2043,949.504,949.504,951.0806,return,0.5011,,13.54166667,,,,,,FBP-YG-19.png,0.37,1.2,42,0.5,,,,,,,,,,,,,,,,,,0,3,3,41,1,,,,,,,,,,,,,,,,,,,,,,,
,,,,,WIN24_006,18,Female,2024-01-26_14h31.36.515,jersey_experiment_5,2023.2.2,Win32,85.47008547,,,,,,,,,,,,,,,,951.0807,952.3748,952.3748,954.1396,return,0.5222,,33.46354167,,,,,,FBP-YG-18.png,0.4,1.2,38,0.5,,,,,,,,,,,,,,,,,,0,4,4,37,1,,,,,,,,,,,,,,,,,,,,,,,
,,,,,WIN24_006,18,Female,2024-01-26_14h31.36.515,jersey_experiment_5,2023.2.2,Win32,85.47008547,,,,,,,,,,,,,,,,954.1397,955.9322,955.9322,957.2102,return,0.5585,,81.90104167,,,,,,FBP-PT-71.png,0.45,1.2,50,1,,,,,,,,,,,,,,,,,,0,5,5,49,1,,,,,,,,,,,,,,,,,,,,,,,
,,,,,WIN24_006,18,Female,2024-01-26_14h31.36.515,jersey_experiment_5,2023.2.2,Win32,85.47008547,,,,,,,,,,,,,,,,957.2105,958.5043,958.5043,960.5205,return,0.5905,,24.47916667,,,,,,FBP-YG-18.png,0.35,1.2,36,0.5,,,,,,,,,,,,,,,,,,0,6,6,35,1,,,,,,,,,,,,,,,,,,,,,,,
,,,,,WIN24_006,18,Female,2024-01-26_14h31.36.515,jersey_experiment_5,2023.2.2,Win32,85.47008547,,,,,,,,,,,,,,,,960.5206,962.3203,962.3203,965.2105,return,0.476,,49.86979167,,,,,,FBP-PT-71.png,0.43,1.2,49,1,,,,,,,,,,,,,,,,,,0,7,7,48,1,,,,,,,,,,,,,,,,,,,,,,,
,,,,,WIN24_006,18,Female,2024-01-26_14h31.36.515,jersey_experiment_5,2023.2.2,Win32,85.47008547,,,,,,,,,,,,,,,,965.2106,967.003,967.003,967.979,return,0.5174,,77.47395833,,,,,,FBP-PT-91.png,0.43,1.2,59,1,,,,,,,,,,,,,,,,,,0,8,8,58,1,,,,,,,,,,,,,,,,,,,,,,,
,,,,,WIN24_006,18,Female,2024-01-26_14h31.36.515,jersey_experiment_5,2023.2.2,Win32,85.47008547,,,,,,,,,,,,,,,,967.9792,969.7803,969.7803,970.8108,return,0.5817,,89.58333333,,,,,,FBP-PT-81.png,0.45,1.2,55,1,,,,,,,,,,,,,,,,,,0,9,9,54,1,,,,,,,,,,,,,,,,,,,,,,,
,,,,,WIN24_006,18,Female,2024-01-26_14h31.36.515,jersey_experiment_5,2023.2.2,Win32,85.47008547,,,,,,,,,,,,,,,,970.811,972.6035,972.6035,973.9311,return,0.5985,,21.484375,,,,,,FBP-OG-19.png,0.37,1.2,12,1,,,,,,,,,,,,,,,,,,0,10,10,11,1,,,,,,,,,,,,,,,,,,,,,,,
,,,,,WIN24_006,18,Female,2024-01-26_14h31.36.515,jersey_experiment_5,2023.2.2,Win32,85.47008547,,,,,,,,,,,,,,,,973.9312,975.2287,975.2287,978.6856,return,0.4713,,67.31770833,,,,,,FBP-YG-18.png,0.45,1.2,40,0.5,,,,,,,,,,,,,,,,,,0,11,11,39,1,,,,,,,,,,,,,,,,,,,,,,,
,,,,,WIN24_006,18,Female,2024-01-26_14h31.36.515,jersey_experiment_5,2023.2.2,Win32,85.47008547,,,,,,,,,,,,,,,,978.6857,980.4844,980.4844,986.0112,return,0.6047,,1.953125,,,,,,FBP-PT-71.png,0.35,1.2,46,1,,,,,,,,,,,,,,,,,,0,12,12,45,1,,,,,,,,,,,,,,,,,,,,,,,
,,,,,WIN24_006,18,Female,2024-01-26_14h31.36.515,jersey_experiment_5,2023.2.2,Win32,85.47008547,,,,,,,,,,,,,,,,986.0113,987.8112,987.8112,989.482,return,0.5488,,49.08854167,,,,,,FBP-PT-81.png,0.4,1.2,53,1,,,,,,,,,,,,,,,,,,0,13,13,52,1,,,,,,,,,,,,,,,,,,,,,,,
,,,,,WIN24_006,18,Female,2024-01-26_14h31.36.515,jersey_experiment_5,2023.2.2,Win32,85.47008547,,,,,,,,,,,,,,,,989.4823,990.7787,990.7787,992.3079,return,0.5991,,76.04166667,,,,,,FBP-YG-17.png,0.43,1.2,34,0.5,,,,,,,,,,,,,,,,,,0,14,14,33,1,,,,,,,,,,,,,,,,,,,,,,,
,,,,,WIN24_006,18,Female,2024-01-26_14h31.36.515,jersey_experiment_5,2023.2.2,Win32,85.47008547,,,,,,,,,,,,,,,,992.3079,994.1097,994.1098,995.2979,return,0.6017,,99.47916667,,,,,,FBP-PT-91.png,0.45,1.2,60,1,,,,,,,,,,,,,,,,,,0,15,15,59,1,,,,,,,,,,,,,,,,,,,,,,,
,,,,,WIN24_006,18,Female,2024-01-26_14h31.36.515,jersey_experiment_5,2023.2.2,Win32,85.47008547,,,,,,,,,,,,,,,,995.298,997.0979,997.0979,998.1438,return,0.5638,,99.34895833,,,,,,FBP-OG-17.png,0.43,1.2,4,1,,,,,,,,,,,,,,,,,,0,16,16,3,1,,,,,,,,,,,,,,,,,,,,,,,
,,,,,WIN24_006,18,Female,2024-01-26_14h31.36.515,jersey_experiment_5,2023.2.2,Win32,85.47008547,,,,,,,,,,,,,,,,998.144,999.9463,999.9463,1001.1804,return,0.6117,,23.046875,,,,,,FBP-OG-17.png,0.35,1.2,1,1,,,,,,,,,,,,,,,,,,0,17,17,0,1,,,,,,,,,,,,,,,,,,,,,,,
,,,,,WIN24_006,18,Female,2024-01-26_14h31.36.515,jersey_experiment_5,2023.2.2,Win32,85.47008547,,,,,,,,,,,,,,,,1001.1806,1002.486,1002.486,1004.4511,return,0.5888,,0.911458333,,,,,,FBP-RB-71.png,0.37,1.2,17,0.5,,,,,,,,,,,,,,,,,,0,18,18,16,1,,,,,,,,,,,,,,,,,,,,,,,
,,,,,WIN24_006,18,Female,2024-01-26_14h31.36.515,jersey_experiment_5,2023.2.2,Win32,85.47008547,,,,,,,,,,,,,,,,1004.4513,1006.2504,1006.2504,1007.709,return,0.5418,,24.86979167,,,,,,FBP-PT-81.png,0.37,1.2,52,1,,,,,,,,,,,,,,,,,,0,19,19,51,1,,,,,,,,,,,,,,,,,,,,,,,
,,,,,WIN24_006,18,Female,2024-01-26_14h31.36.515,jersey_experiment_5,2023.2.2,Win32,85.47008547,,,,,,,,,,,,,,,,1007.7091,1009.0037,1009.0037,1012.0515,return,0.5196,,24.86979167,,,,,,FBP-RB-81.png,0.37,1.2,22,0.5,,,,,,,,,,,,,,,,,,0,20,20,21,1,,,,,,,,,,,,,,,,,,,,,,,
,,,,,WIN24_006,18,Female,2024-01-26_14h31.36.515,jersey_experiment_5,2023.2.2,Win32,85.47008547,,,,,,,,,,,,,,,,1012.0516,1013.8513,1013.8514,1015.6165,return,0.6103,,48.828125,,,,,,FBP-OG-17.png,0.4,1.2,3,1,,,,,,,,,,,,,,,,,,0,21,21,2,1,,,,,,,,,,,,,,,,,,,,,,,
,,,,,WIN24_006,18,Female,2024-01-26_14h31.36.515,jersey_experiment_5,2023.2.2,Win32,85.47008547,,,,,,,,,,,,,,,,1015.6167,1017.417,1017.417,1019.9712,return,1.7796,,98.828125,,,,,,FBP-OG-18.png,0.45,1.2,10,1,,,,,,,,,,,,,,,,,,0,22,22,9,1,,,,,,,,,,,,,,,,,,,,,,,
,,,,,WIN24_006,18,Female,2024-01-26_14h31.36.515,jersey_experiment_5,2023.2.2,Win32,85.47008547,,,,,,,,,,,,,,,,1019.9713,1021.264,1021.264,1023.5226,return,0.5773,,74.86979167,,,,,,FBP-RB-91.png,0.4,1.2,28,0.5,,,,,,,,,,,,,,,,,,0,23,23,27,1,,,,,,,,,,,,,,,,,,,,,,,
,,,,,WIN24_006,18,Female,2024-01-26_14h31.36.515,jersey_experiment_5,2023.2.2,Win32,85.47008547,,,,,,,,,,,,,,,,1023.5227,1024.8285,1024.8285,1028.6364,return,3.3684,,83.72395833,,,,,,FBP-YG-18.png,0.43,1.2,39,0.5,,,,,,,,,,,,,,,,,,0,24,24,38,1,,,,,,,,,,,,,,,,,,,,,,,
,,,,,WIN24_006,18,Female,2024-01-26_14h31.36.515,jersey_experiment_5,2023.2.2,Win32,85.47008547,,,,,,,,,,,,,,,,1028.6366,1030.4298,1030.4298,1033.1924,return,1.9045,,41.27604167,,,,,,FBP-PT-71.png,0.37,1.2,47,1,,,,,,,,,,,,,,,,,,0,25,25,46,1,,,,,,,,,,,,,,,,,,,,,,,
,,,,,WIN24_006,18,Female,2024-01-26_14h31.36.515,jersey_experiment_5,2023.2.2,Win32,85.47008547,,,,,,,,,,,,,,,,1033.1926,1034.9895,1034.9895,1036.4629,return,0.5397,,50.26041667,,,,,,FBP-OG-18.png,0.4,1.2,8,1,,,,,,,,,,,,,,,,,,0,26,26,7,1,,,,,,,,,,,,,,,,,,,,,,,
,,,,,WIN24_006,18,Female,2024-01-26_14h31.36.515,jersey_experiment_5,2023.2.2,Win32,85.47008547,,,,,,,,,,,,,,,,1036.4632,1037.7685,1037.7685,1039.1778,return,0.5487,,19.921875,,,,,,FBP-RB-91.png,0.35,1.2,26,0.5,,,,,,,,,,,,,,,,,,0,27,27,25,1,,,,,,,,,,,,,,,,,,,,,,,
,,,,,WIN24_006,18,Female,2024-01-26_14h31.36.515,jersey_experiment_5,2023.2.2,Win32,85.47008547,,,,,,,,,,,,,,,,1039.1781,1040.4749,1040.4749,1042.4014,return,0.7199,,78.38541667,,,,,,FBP-RB-71.png,0.4,1.2,18,0.5,,,,,,,,,,,,,,,,,,0,28,28,17,1,,,,,,,,,,,,,,,,,,,,,,,
,,,,,WIN24_006,18,Female,2024-01-26_14h31.36.515,jersey_experiment_5,2023.2.2,Win32,85.47008547,,,,,,,,,,,,,,,,1042.4017,1043.6976,1043.6976,1045.4841,return,0.5581,,24.47916667,,,,,,FBP-RB-81.png,0.35,1.2,21,0.5,,,,,,,,,,,,,,,,,,0,29,29,20,1,,,,,,,,,,,,,,,,,,,,,,,
,,,,,WIN24_006,18,Female,2024-01-26_14h31.36.515,jersey_experiment_5,2023.2.2,Win32,85.47008547,,,,,,,,,,,,,,,,1045.4843,1047.2758,1047.2758,1049.3838,return,0.5312,,1.692708333,,,,,,FBP-OG-19.png,0.35,1.2,11,1,,,,,,,,,,,,,,,,,,0,30,30,10,1,,,,,,,,,,,,,,,,,,,,,,,
,,,,,WIN24_006,18,Female,2024-01-26_14h31.36.515,jersey_experiment_5,2023.2.2,Win32,85.47008547,,,,,,,,,,,,,,,,1049.3839,1051.1811,1051.1811,1053.5784,return,0.5598,,50.13020833,,,,,,FBP-PT-91.png,0.4,1.2,58,1,,,,,,,,,,,,,,,,,,0,31,31,57,1,,,,,,,,,,,,,,,,,,,,,,,
,,,,,WIN24_006,18,Female,2024-01-26_14h31.36.515,jersey_experiment_5,2023.2.2,Win32,85.47008547,,,,,,,,,,,,,,,,1053.5787,1054.8763,1054.8763,1056.8885,return,0.5294,,98.30729167,,,,,,FBP-YG-17.png,0.45,1.2,35,0.5,,,,,,,,,,,,,,,,,,0,32,32,34,1,,,,,,,,,,,,,,,,,,,,,,,
,,,,,WIN24_006,18,Female,2024-01-26_14h31.36.515,jersey_experiment_5,2023.2.2,Win32,85.47008547,,,,,,,,,,,,,,,,1056.8885,1058.6872,1058.6872,1060.0139,return,0.6255,,26.04166667,,,,,,FBP-PT-81.png,0.35,1.2,51,1,,,,,,,,,,,,,,,,,,0,33,33,50,1,,,,,,,,,,,,,,,,,,,,,,,
,,,,,WIN24_006,18,Female,2024-01-26_14h31.36.515,jersey_experiment_5,2023.2.2,Win32,85.47008547,,,,,,,,,,,,,,,,1060.0141,1061.3107,1061.3107,1062.8259,return,0.5484,,0.78125,,,,,,FBP-YG-19.png,0.35,1.2,41,0.5,,,,,,,,,,,,,,,,,,0,34,34,40,1,,,,,,,,,,,,,,,,,,,,,,,
,,,,,WIN24_006,18,Female,2024-01-26_14h31.36.515,jersey_experiment_5,2023.2.2,Win32,85.47008547,,,,,,,,,,,,,,,,1062.8262,1064.1241,1064.1241,1065.8965,return,0.572,,99.609375,,,,,,FBP-RB-91.png,0.45,1.2,30,0.5,,,,,,,,,,,,,,,,,,0,35,35,29,1,,,,,,,,,,,,,,,,,,,,,,,
,,,,,WIN24_006,18,Female,2024-01-26_14h31.36.515,jersey_experiment_5,2023.2.2,Win32,85.47008547,,,,,,,,,,,,,,,,1065.8966,1067.703,1067.703,1069.1357,return,0.4837,,14.84375,,,,,,FBP-PT-91.png,0.35,1.2,56,1,,,,,,,,,,,,,,,,,,0,36,36,55,1,,,,,,,,,,,,,,,,,,,,,,,
,,,,,WIN24_006,18,Female,2024-01-26_14h31.36.515,jersey_experiment_5,2023.2.2,Win32,85.47008547,,,,,,,,,,,,,,,,1069.1358,1070.4403,1070.4403,1072.1121,return,0.7187,,32.03125,,,,,,FBP-RB-71.png,0.35,1.2,16,0.5,,,,,,,,,,,,,,,,,,0,37,37,15,1,,,,,,,,,,,,,,,,,,,,,,,
,,,,,WIN24_006,18,Female,2024-01-26_14h31.36.515,jersey_experiment_5,2023.2.2,Win32,85.47008547,,,,,,,,,,,,,,,,1072.1123,1073.4165,1073.4165,1075.2772,return,0.5654,,51.953125,,,,,,FBP-YG-18.png,0.37,1.2,37,0.5,,,,,,,,,,,,,,,,,,0,38,38,36,1,,,,,,,,,,,,,,,,,,,,,,,
,,,,,WIN24_006,18,Female,2024-01-26_14h31.36.515,jersey_experiment_5,2023.2.2,Win32,85.47008547,,,,,,,,,,,,,,,,1075.2774,1076.57,1076.57,1078.394,return,0.6109,,98.4375,,,,,,FBP-RB-81.png,0.45,1.2,25,0.5,,,,,,,,,,,,,,,,,,0,39,39,24,1,,,,,,,,,,,,,,,,,,,,,,,
,,,,,WIN24_006,18,Female,2024-01-26_14h31.36.515,jersey_experiment_5,2023.2.2,Win32,85.47008547,,,,,,,,,,,,,,,,1078.3943,1080.1953,1080.1953,1081.709,return,0.5695,,94.27083333,,,,,,FBP-PT-71.png,0.4,1.2,48,1,,,,,,,,,,,,,,,,,,0,40,40,47,1,,,,,,,,,,,,,,,,,,,,,,,
,,,,,WIN24_006,18,Female,2024-01-26_14h31.36.515,jersey_experiment_5,2023.2.2,Win32,85.47008547,,,,,,,,,,,,,,,,1081.7092,1083.003,1083.003,1084.5834,return,0.6013,,97.52604167,,,,,,FBP-RB-71.png,0.45,1.2,20,0.5,,,,,,,,,,,,,,,,,,0,41,41,19,1,,,,,,,,,,,,,,,,,,,,,,,
,,,,,WIN24_006,18,Female,2024-01-26_14h31.36.515,jersey_experiment_5,2023.2.2,Win32,85.47008547,,,,,,,,,,,,,,,,1084.5836,1085.8896,1085.8896,1087.0676,return,0.5666,,97.52604167,,,,,,FBP-YG-19.png,0.45,1.2,45,0.5,,,,,,,,,,,,,,,,,,0,42,42,44,1,,,,,,,,,,,,,,,,,,,,,,,
,,,,,WIN24_006,18,Female,2024-01-26_14h31.36.515,jersey_experiment_5,2023.2.2,Win32,85.47008547,,,,,,,,,,,,,,,,1087.0678,1088.8621,1088.8621,1089.8503,return,0.6052,,97.52604167,,,,,,FBP-OG-18.png,0.43,1.2,9,1,,,,,,,,,,,,,,,,,,0,43,43,8,1,,,,,,,,,,,,,,,,,,,,,,,
,,,,,WIN24_006,18,Female,2024-01-26_14h31.36.515,jersey_experiment_5,2023.2.2,Win32,85.47008547,,,,,,,,,,,,,,,,1089.8506,1091.1445,1091.1445,1092.3367,return,0.5295,,97.52604167,,,,,,FBP-YG-19.png,0.43,1.2,44,0.5,,,,,,,,,,,,,,,,,,0,44,44,43,1,,,,,,,,,,,,,,,,,,,,,,,
,,,,,WIN24_006,18,Female,2024-01-26_14h31.36.515,jersey_experiment_5,2023.2.2,Win32,85.47008547,,,,,,,,,,,,,,,,1092.3369,1093.6312,1093.6312,1094.6386,return,0.554,,97.52604167,,,,,,FBP-RB-81.png,0.4,1.2,23,0.5,,,,,,,,,,,,,,,,,,0,45,45,22,1,,,,,,,,,,,,,,,,,,,,,,,
,,,,,WIN24_006,18,Female,2024-01-26_14h31.36.515,jersey_experiment_5,2023.2.2,Win32,85.47008547,,,,,,,,,,,,,,,,1094.6388,1096.4429,1096.4429,1098.9968,return,1.0498,,40.625,,,,,,FBP-PT-91.png,0.37,1.2,57,1,,,,,,,,,,,,,,,,,,0,46,46,56,1,,,,,,,,,,,,,,,,,,,,,,,
,,,,,WIN24_006,18,Female,2024-01-26_14h31.36.515,jersey_experiment_5,2023.2.2,Win32,85.47008547,,,,,,,,,,,,,,,,1098.997,1100.7963,1100.7963,1101.9476,return,0.4926,,36.84895833,,,,,,FBP-OG-18.png,0.37,1.2,7,1,,,,,,,,,,,,,,,,,,0,47,47,6,1,,,,,,,,,,,,,,,,,,,,,,,
,,,,,WIN24_006,18,Female,2024-01-26_14h31.36.515,jersey_experiment_5,2023.2.2,Win32,85.47008547,,,,,,,,,,,,,,,,1101.9477,1103.7452,1103.7452,1105.192,return,0.6061,,81.77083333,,,,,,FBP-OG-19.png,0.43,1.2,14,1,,,,,,,,,,,,,,,,,,0,48,48,13,1,,,,,,,,,,,,,,,,,,,,,,,
,,,,,WIN24_006,18,Female,2024-01-26_14h31.36.515,jersey_experiment_5,2023.2.2,Win32,85.47008547,,,,,,,,,,,,,,,,1105.1923,1106.4899,1106.4899,1110.2067,return,0.5185,,49.609375,,,,,,FBP-YG-17.png,0.37,1.2,32,0.5,,,,,,,,,,,,,,,,,,0,49,49,31,1,,,,,,,,,,,,,,,,,,,,,,,
,,,,,WIN24_006,18,Female,2024-01-26_14h31.36.515,jersey_experiment_5,2023.2.2,Win32,85.47008547,,,,,,,,,,,,,,,,1110.207,1112.0088,1112.0088,1113.1744,return,0.4842,,15.234375,,,,,,FBP-OG-18.png,0.35,1.2,6,1,,,,,,,,,,,,,,,,,,0,50,50,5,1,,,,,,,,,,,,,,,,,,,,,,,
,,,,,WIN24_006,18,Female,2024-01-26_14h31.36.515,jersey_experiment_5,2023.2.2,Win32,85.47008547,,,,,,,,,,,,,,,,1113.1746,1114.9755,1114.9755,1115.9807,return,0.5222,,11.58854167,,,,,,FBP-OG-17.png,0.37,1.2,2,1,,,,,,,,,,,,,,,,,,0,51,51,1,1,,,,,,,,,,,,,,,,,,,,,,,
,,,,,WIN24_006,18,Female,2024-01-26_14h31.36.515,jersey_experiment_5,2023.2.2,Win32,85.47008547,,,,,,,,,,,,,,,,1115.9808,1117.7737,1117.7737,1119.151,return,0.5542,,78.25520833,,,,,,FBP-OG-17.png,0.45,1.2,5,1,,,,,,,,,,,,,,,,,,0,52,52,4,1,,,,,,,,,,,,,,,,,,,,,,,
,,,,,WIN24_006,18,Female,2024-01-26_14h31.36.515,jersey_experiment_5,2023.2.2,Win32,85.47008547,,,,,,,,,,,,,,,,1119.1513,1120.4553,1120.4553,1124.3969,return,0.5532,,6.901041667,,,,,,FBP-YG-17.png,0.35,1.2,31,0.5,,,,,,,,,,,,,,,,,,0,53,53,30,1,,,,,,,,,,,,,,,,,,,,,,,
,,,,,WIN24_006,18,Female,2024-01-26_14h31.36.515,jersey_experiment_5,2023.2.2,Win32,85.47008547,,,,,,,,,,,,,,,,1124.397,1125.6917,1125.6917,1129.0694,return,0.5331,,86.45833333,,,,,,FBP-YG-17.png,0.4,1.2,33,0.5,,,,,,,,,,,,,,,,,,0,54,54,32,1,,,,,,,,,,,,,,,,,,,,,,,
,,,,,WIN24_006,18,Female,2024-01-26_14h31.36.515,jersey_experiment_5,2023.2.2,Win32,85.47008547,,,,,,,,,,,,,,,,1129.0695,1130.3614,1130.3614,1131.7579,return,0.7087,,86.97916667,,,,,,FBP-YG-19.png,0.4,1.2,43,0.5,,,,,,,,,,,,,,,,,,0,55,55,42,1,,,,,,,,,,,,,,,,,,,,,,,
,,,,,WIN24_006,18,Female,2024-01-26_14h31.36.515,jersey_experiment_5,2023.2.2,Win32,85.47008547,,,,,,,,,,,,,,,,1131.7581,1133.0575,1133.0575,1134.0795,return,0.5312,,86.97916667,,,,,,FBP-RB-81.png,0.43,1.2,24,0.5,,,,,,,,,,,,,,,,,,0,56,56,23,1,,,,,,,,,,,,,,,,,,,,,,,
,,,,,WIN24_006,18,Female,2024-01-26_14h31.36.515,jersey_experiment_5,2023.2.2,Win32,85.47008547,,,,,,,,,,,,,,,,1134.0796,1135.3719,1135.3719,1136.4285,return,0.5095,,86.71875,,,,,,FBP-RB-71.png,0.43,1.2,19,0.5,,,,,,,,,,,,,,,,,,0,57,57,18,1,,,,,,,,,,,,,,,,,,,,,,,
,,,,,WIN24_006,18,Female,2024-01-26_14h31.36.515,jersey_experiment_5,2023.2.2,Win32,85.47008547,,,,,,,,,,,,,,,,1136.4288,1137.7249,1137.7249,1146.5859,return,5.9532,,27.34375,,,,,,FBP-RB-91.png,0.37,1.2,27,0.5,,,,,,,,,,,,,,,,,,0,58,58,26,1,,,,,,,,,,,,,,,,,,,,,,,
,,,,,WIN24_006,18,Female,2024-01-26_14h31.36.515,jersey_experiment_5,2023.2.2,Win32,85.47008547,,,,,,,,,,,,,,,,1146.586,1147.88,1147.88,1150.2055,return,0.5667,,97.00520833,,,,,,FBP-RB-91.png,0.43,1.2,29,0.5,,,,,,,,,,,,,,,,,,0,59,59,28,1,,,,,,,,,,,,,,,,,,,,,,,
,,,,,WIN24_006,18,Female,2024-01-26_14h31.36.515,jersey_experiment_5,2023.2.2,Win32,85.47008547,,,,,,,,,,,,,,,,,,,,,,,,,,,,,,,,,,,,,,,,,,,,,,,,,,,,,,,,1150.2059,1163.1394,return,12.918,,,,,,,,,,,,,,,,,,,
,,,,,WIN24_006,18,Female,2024-01-26_14h31.36.515,jersey_experiment_5,2023.2.2,Win32,85.47008547,,,,,,,,,,,,,,,,,,,,,,,,,,,,,,,,,,,,,,,,,,,,,,,,,,,,,,,,,,,,,1163.1394,1169.4651,1,4.7236,return,1.5831,,,,,,,,,,,,
,,,,,WIN24_006,18,Female,2024-01-26_14h31.36.515,jersey_experiment_5,2023.2.2,Win32,85.47008547,,,,,,,,,,,,,,,,,,,,,,,,,,,,,,,,,,,,,,,,,,,,,,,,,,,,,,,,,,,,,,,,,,,,1169.4653,1233.0533,"I believe the study has to do with color perception. Especially since the same body in different colors would appear, and yet som of the figures looked leaner than others.",right,58.3807,,,,,,
,,,,,WIN24_006,18,Female,2024-01-26_14h31.36.515,jersey_experiment_5,2023.2.2,Win32,85.47008547,,,,,,,,,,,,,,,,,,,,,,,,,,,,,,,,,,,,,,,,,,,,,,,,,,,,,,,,,,,,,,,,,,,,,,,,,,1233.0534,1238.9528,return,5.8933,