requirements.started,requirements.stopped,key_resp_3.keys,key_resp_3.rt,key_resp_3.duration,Subject ID,Age,Gender,date,expName,psychopyVersion,OS,frameRate,instructions1.started,instructions1.stopped,key_resp.keys,key_resp.rt,key_resp.duration,example.started,example.stopped,enter_2.keys,enter_2.rt,enter_2.duration,instructions2.started,instructions2.stopped,enter_3.keys,enter_3.rt,enter_3.duration,image.started,image.stopped,slider_2.started,slider_2.stopped,next.keys,next.rt,next.duration,slider.response,trial_block_1.thisRepN,trial_block_1.thisTrialN,trial_block_1.thisN,trial_block_1.thisIndex,trial_block_1.ran,Path,Width,Height,Index,Duration,trial_block_2.thisRepN,trial_block_2.thisTrialN,trial_block_2.thisN,trial_block_2.thisIndex,trial_block_2.ran,rest_break.started,rest_break.stopped,end_break.started,end_break.stopped,key_resp_5.keys,key_resp_5.rt,key_resp_5.duration,trial_block_3.thisRepN,trial_block_3.thisTrialN,trial_block_3.thisN,trial_block_3.thisIndex,trial_block_3.ran,trial_block_4.thisRepN,trial_block_4.thisTrialN,trial_block_4.thisN,trial_block_4.thisIndex,trial_block_4.ran,questions_intro.started,questions_intro.stopped,enter_12.keys,enter_12.rt,enter_12.duration,question2.started,question2.stopped,question_doingbest.response,question_doingbest.rt,enter_15.keys,enter_15.rt,enter_15.duration,pattern.started,pattern.stopped,pattern_2.text,enter_17.keys,enter_17.rt,enter_17.duration,thankyou.started,thankyou.stopped,enter_14.keys,enter_14.rt,enter_14.duration
0,7.1927,return,7.181,,WIN24_030,18,Female,2024-02-01_15h02.15.143,jersey_experiment_5,2023.2.2,Win32,85.47008547,,,,,,,,,,,,,,,,,,,,,,,,,,,,,,,,,,,,,,,,,,,,,,,,,,,,,,,,,,,,,,,,,,,,,,,,,,,,,,
,,,,,WIN24_030,18,Female,2024-02-01_15h02.15.143,jersey_experiment_5,2023.2.2,Win32,85.47008547,7.1928,13.899,return,6.6825,,,,,,,,,,,,,,,,,,,,,,,,,,,,,,,,,,,,,,,,,,,,,,,,,,,,,,,,,,,,,,,,,,,,,,,,,,
,,,,,WIN24_030,18,Female,2024-02-01_15h02.15.143,jersey_experiment_5,2023.2.2,Win32,85.47008547,,,,,,13.8991,18.7463,return,4.8056,,,,,,,,,,,,,,,,,,,,,,,,,,,,,,,,,,,,,,,,,,,,,,,,,,,,,,,,,,,,,,,,,,,,,
,,,,,WIN24_030,18,Female,2024-02-01_15h02.15.143,jersey_experiment_5,2023.2.2,Win32,85.47008547,,,,,,,,,,,18.7465,30.0997,return,11.3446,,,,,,,,,,,,,,,,,,,,,,,,,,,,,,,,,,,,,,,,,,,,,,,,,,,,,,,,,,,,,,,,
,,,,,WIN24_030,18,Female,2024-02-01_15h02.15.143,jersey_experiment_5,2023.2.2,Win32,85.47008547,,,,,,,,,,,,,,,,30.1062,31.4052,31.4052,56.8534,return,7.4146,,24.73958333,0,0,0,5,1,FBP-OG-81.png,0.35,1.2,6,0.5,,,,,,,,,,,,,,,,,,,,,,,,,,,,,,,,,,,,,,,,,,,,,
,,,,,WIN24_030,18,Female,2024-02-01_15h02.15.143,jersey_experiment_5,2023.2.2,Win32,85.47008547,,,,,,,,,,,,,,,,56.8581,58.6533,58.6533,63.6653,return,1.0062,,95.44270833,0,1,1,33,1,FBP-YG-71.png,0.43,1.2,34,1,,,,,,,,,,,,,,,,,,,,,,,,,,,,,,,,,,,,,,,,,,,,,
,,,,,WIN24_030,18,Female,2024-02-01_15h02.15.143,jersey_experiment_5,2023.2.2,Win32,85.47008547,,,,,,,,,,,,,,,,63.6655,65.4654,65.4654,69.5714,return,2.1098,,87.5,0,2,2,44,1,FBP-YG-91.png,0.45,1.2,45,1,,,,,,,,,,,,,,,,,,,,,,,,,,,,,,,,,,,,,,,,,,,,,
,,,,,WIN24_030,18,Female,2024-02-01_15h02.15.143,jersey_experiment_5,2023.2.2,Win32,85.47008547,,,,,,,,,,,,,,,,69.5718,70.8656,70.8656,73.7129,return,0.5975,,76.69270833,0,3,3,14,1,FBP-OG-91.png,0.45,1.2,15,0.5,,,,,,,,,,,,,,,,,,,,,,,,,,,,,,,,,,,,,,,,,,,,,
,,,,,WIN24_030,18,Female,2024-02-01_15h02.15.143,jersey_experiment_5,2023.2.2,Win32,85.47008547,,,,,,,,,,,,,,,,73.7131,75.5129,75.5129,78.8542,return,0.5906,,11.06770833,0,4,4,21,1,FBP-RB-18.png,0.37,1.2,22,1,,,,,,,,,,,,,,,,,,,,,,,,,,,,,,,,,,,,,,,,,,,,,
,,,,,WIN24_030,18,Female,2024-02-01_15h02.15.143,jersey_experiment_5,2023.2.2,Win32,85.47008547,,,,,,,,,,,,,,,,78.8544,80.6543,80.6543,83.4191,return,1.5525,,21.74479167,0,5,5,27,1,FBP-RB-19.png,0.4,1.2,28,1,,,,,,,,,,,,,,,,,,,,,,,,,,,,,,,,,,,,,,,,,,,,,
,,,,,WIN24_030,18,Female,2024-02-01_15h02.15.143,jersey_experiment_5,2023.2.2,Win32,85.47008547,,,,,,,,,,,,,,,,83.4193,84.7132,84.7133,89.5722,return,1.4173,,33.33333333,0,6,6,8,1,FBP-OG-81.png,0.43,1.2,9,0.5,,,,,,,,,,,,,,,,,,,,,,,,,,,,,,,,,,,,,,,,,,,,,
,,,,,WIN24_030,18,Female,2024-02-01_15h02.15.143,jersey_experiment_5,2023.2.2,Win32,85.47008547,,,,,,,,,,,,,,,,89.5724,90.8664,90.8664,93.8782,return,1.3306,,2.213541667,0,7,7,50,1,FBP-PT-18.png,0.35,1.2,51,0.5,,,,,,,,,,,,,,,,,,,,,,,,,,,,,,,,,,,,,,,,,,,,,
,,,,,WIN24_030,18,Female,2024-02-01_15h02.15.143,jersey_experiment_5,2023.2.2,Win32,85.47008547,,,,,,,,,,,,,,,,93.8785,95.1724,95.1724,97.596,return,0.5887,,19.79166667,0,8,8,46,1,FBP-PT-17.png,0.37,1.2,47,0.5,,,,,,,,,,,,,,,,,,,,,,,,,,,,,,,,,,,,,,,,,,,,,
,,,,,WIN24_030,18,Female,2024-02-01_15h02.15.143,jersey_experiment_5,2023.2.2,Win32,85.47008547,,,,,,,,,,,,,,,,97.5963,98.8902,98.8902,101.7608,return,0.6911,,77.734375,0,9,9,58,1,FBP-PT-19.png,0.43,1.2,59,0.5,,,,,,,,,,,,,,,,,,,,,,,,,,,,,,,,,,,,,,,,,,,,,
,,,,,WIN24_030,18,Female,2024-02-01_15h02.15.143,jersey_experiment_5,2023.2.2,Win32,85.47008547,,,,,,,,,,,,,,,,101.761,103.055,103.055,105.867,return,0.7531,,75,0,10,10,57,1,FBP-PT-19.png,0.4,1.2,58,0.5,,,,,,,,,,,,,,,,,,,,,,,,,,,,,,,,,,,,,,,,,,,,,
,,,,,WIN24_030,18,Female,2024-02-01_15h02.15.143,jersey_experiment_5,2023.2.2,Win32,85.47008547,,,,,,,,,,,,,,,,105.8672,107.6671,107.6671,109.667,return,0.5808,,57.29166667,0,11,11,42,1,FBP-YG-91.png,0.4,1.2,43,1,,,,,,,,,,,,,,,,,,,,,,,,,,,,,,,,,,,,,,,,,,,,,
,,,,,WIN24_030,18,Female,2024-02-01_15h02.15.143,jersey_experiment_5,2023.2.2,Win32,85.47008547,,,,,,,,,,,,,,,,109.6672,111.4674,111.4674,114.6909,return,1.4635,,94.40104167,0,12,12,38,1,FBP-YG-81.png,0.43,1.2,39,1,,,,,,,,,,,,,,,,,,,,,,,,,,,,,,,,,,,,,,,,,,,,,
,,,,,WIN24_030,18,Female,2024-02-01_15h02.15.143,jersey_experiment_5,2023.2.2,Win32,85.47008547,,,,,,,,,,,,,,,,114.6911,115.985,115.985,118.8909,return,1.153,,31.11979167,0,13,13,51,1,FBP-PT-18.png,0.37,1.2,52,0.5,,,,,,,,,,,,,,,,,,,,,,,,,,,,,,,,,,,,,,,,,,,,,
,,,,,WIN24_030,18,Female,2024-02-01_15h02.15.143,jersey_experiment_5,2023.2.2,Win32,85.47008547,,,,,,,,,,,,,,,,118.8911,120.6912,120.6912,122.5383,return,0.5986,,92.70833333,0,14,14,43,1,FBP-YG-91.png,0.43,1.2,44,1,,,,,,,,,,,,,,,,,,,,,,,,,,,,,,,,,,,,,,,,,,,,,
,,,,,WIN24_030,18,Female,2024-02-01_15h02.15.143,jersey_experiment_5,2023.2.2,Win32,85.47008547,,,,,,,,,,,,,,,,122.5385,123.8324,123.8324,127.4794,return,1.2825,,92.44791667,0,15,15,12,1,FBP-OG-91.png,0.4,1.2,13,0.5,,,,,,,,,,,,,,,,,,,,,,,,,,,,,,,,,,,,,,,,,,,,,
,,,,,WIN24_030,18,Female,2024-02-01_15h02.15.143,jersey_experiment_5,2023.2.2,Win32,85.47008547,,,,,,,,,,,,,,,,127.4797,128.7738,128.7738,130.7385,return,0.6779,,99.73958333,0,16,16,49,1,FBP-PT-17.png,0.45,1.2,50,0.5,,,,,,,,,,,,,,,,,,,,,,,,,,,,,,,,,,,,,,,,,,,,,
,,,,,WIN24_030,18,Female,2024-02-01_15h02.15.143,jersey_experiment_5,2023.2.2,Win32,85.47008547,,,,,,,,,,,,,,,,130.7386,132.5385,132.5385,134.7622,return,0.885,,33.33333333,0,17,17,16,1,FBP-RB-17.png,0.37,1.2,17,1,,,,,,,,,,,,,,,,,,,,,,,,,,,,,,,,,,,,,,,,,,,,,
,,,,,WIN24_030,18,Female,2024-02-01_15h02.15.143,jersey_experiment_5,2023.2.2,Win32,85.47008547,,,,,,,,,,,,,,,,134.7624,136.0563,136.0564,138.0917,return,0.528,,88.28125,0,18,18,13,1,FBP-OG-91.png,0.43,1.2,14,0.5,,,,,,,,,,,,,,,,,,,,,,,,,,,,,,,,,,,,,,,,,,,,,
,,,,,WIN24_030,18,Female,2024-02-01_15h02.15.143,jersey_experiment_5,2023.2.2,Win32,85.47008547,,,,,,,,,,,,,,,,138.0919,139.3858,139.3859,141.1271,return,0.7182,,98.4375,0,19,19,9,1,FBP-OG-81.png,0.45,1.2,10,0.5,,,,,,,,,,,,,,,,,,,,,,,,,,,,,,,,,,,,,,,,,,,,,
,,,,,WIN24_030,18,Female,2024-02-01_15h02.15.143,jersey_experiment_5,2023.2.2,Win32,85.47008547,,,,,,,,,,,,,,,,141.1273,142.4212,142.4212,144.1038,return,0.7294,,96.875,0,20,20,4,1,FBP-OG-71.png,0.45,1.2,5,0.5,,,,,,,,,,,,,,,,,,,,,,,,,,,,,,,,,,,,,,,,,,,,,
,,,,,WIN24_030,18,Female,2024-02-01_15h02.15.143,jersey_experiment_5,2023.2.2,Win32,85.47008547,,,,,,,,,,,,,,,,144.104,145.398,145.398,147.0804,return,0.3781,,15.88541667,0,21,21,45,1,FBP-PT-17.png,0.35,1.2,46,0.5,,,,,,,,,,,,,,,,,,,,,,,,,,,,,,,,,,,,,,,,,,,,,
,,,,,WIN24_030,18,Female,2024-02-01_15h02.15.143,jersey_experiment_5,2023.2.2,Win32,85.47008547,,,,,,,,,,,,,,,,147.0807,148.8805,148.8806,150.1157,return,0.3686,,19.27083333,0,22,22,26,1,FBP-RB-19.png,0.37,1.2,27,1,,,,,,,,,,,,,,,,,,,,,,,,,,,,,,,,,,,,,,,,,,,,,
,,,,,WIN24_030,18,Female,2024-02-01_15h02.15.143,jersey_experiment_5,2023.2.2,Win32,85.47008547,,,,,,,,,,,,,,,,150.1159,151.9159,151.916,153.7394,return,0.6121,,89.58333333,0,23,23,18,1,FBP-RB-17.png,0.43,1.2,19,1,,,,,,,,,,,,,,,,,,,,,,,,,,,,,,,,,,,,,,,,,,,,,
,,,,,WIN24_030,18,Female,2024-02-01_15h02.15.143,jersey_experiment_5,2023.2.2,Win32,85.47008547,,,,,,,,,,,,,,,,153.7396,155.5396,155.5396,157.457,return,0.4654,,98.17708333,0,24,24,39,1,FBP-YG-81.png,0.45,1.2,40,1,,,,,,,,,,,,,,,,,,,,,,,,,,,,,,,,,,,,,,,,,,,,,
,,,,,WIN24_030,18,Female,2024-02-01_15h02.15.143,jersey_experiment_5,2023.2.2,Win32,85.47008547,,,,,,,,,,,,,,,,157.4573,158.7513,158.7513,160.5633,return,0.6753,,19.01041667,0,25,25,10,1,FBP-OG-91.png,0.35,1.2,11,0.5,,,,,,,,,,,,,,,,,,,,,,,,,,,,,,,,,,,,,,,,,,,,,
,,,,,WIN24_030,18,Female,2024-02-01_15h02.15.143,jersey_experiment_5,2023.2.2,Win32,85.47008547,,,,,,,,,,,,,,,,160.5635,162.3632,162.3633,164.4103,return,0.5786,,90.625,0,26,26,28,1,FBP-RB-19.png,0.43,1.2,29,1,,,,,,,,,,,,,,,,,,,,,,,,,,,,,,,,,,,,,,,,,,,,,
,,,,,WIN24_030,18,Female,2024-02-01_15h02.15.143,jersey_experiment_5,2023.2.2,Win32,85.47008547,,,,,,,,,,,,,,,,164.4107,165.7045,165.7045,167.2224,return,0.4506,,39.32291667,0,27,27,52,1,FBP-PT-18.png,0.4,1.2,53,0.5,,,,,,,,,,,,,,,,,,,,,,,,,,,,,,,,,,,,,,,,,,,,,
,,,,,WIN24_030,18,Female,2024-02-01_15h02.15.143,jersey_experiment_5,2023.2.2,Win32,85.47008547,,,,,,,,,,,,,,,,167.2227,169.0223,169.0223,170.2106,return,0.4645,,96.22395833,0,28,28,34,1,FBP-YG-71.png,0.45,1.2,35,1,,,,,,,,,,,,,,,,,,,,,,,,,,,,,,,,,,,,,,,,,,,,,
,,,,,WIN24_030,18,Female,2024-02-01_15h02.15.143,jersey_experiment_5,2023.2.2,Win32,85.47008547,,,,,,,,,,,,,,,,170.2108,172.0109,172.0109,175.1873,return,0.6535,,28.64583333,0,29,29,15,1,FBP-RB-17.png,0.35,1.2,16,1,,,,,,,,,,,,,,,,,,,,,,,,,,,,,,,,,,,,,,,,,,,,,
,,,,,WIN24_030,18,Female,2024-02-01_15h02.15.143,jersey_experiment_5,2023.2.2,Win32,85.47008547,,,,,,,,,,,,,,,,175.1876,176.9874,176.9874,178.2579,return,0.4645,,86.45833333,0,30,30,23,1,FBP-RB-18.png,0.43,1.2,24,1,,,,,,,,,,,,,,,,,,,,,,,,,,,,,,,,,,,,,,,,,,,,,
,,,,,WIN24_030,18,Female,2024-02-01_15h02.15.143,jersey_experiment_5,2023.2.2,Win32,85.47008547,,,,,,,,,,,,,,,,178.2582,180.0581,180.0581,181.3875,return,0.4571,,98.4375,0,31,31,24,1,FBP-RB-18.png,0.45,1.2,25,1,,,,,,,,,,,,,,,,,,,,,,,,,,,,,,,,,,,,,,,,,,,,,
,,,,,WIN24_030,18,Female,2024-02-01_15h02.15.143,jersey_experiment_5,2023.2.2,Win32,85.47008547,,,,,,,,,,,,,,,,181.3876,183.1876,183.1876,184.7051,return,0.4188,,10.02604167,0,32,32,40,1,FBP-YG-91.png,0.35,1.2,41,1,,,,,,,,,,,,,,,,,,,,,,,,,,,,,,,,,,,,,,,,,,,,,
,,,,,WIN24_030,18,Female,2024-02-01_15h02.15.143,jersey_experiment_5,2023.2.2,Win32,85.47008547,,,,,,,,,,,,,,,,184.7054,185.9995,185.9995,187.6231,return,0.5299,,7.942708333,0,33,33,55,1,FBP-PT-19.png,0.35,1.2,56,0.5,,,,,,,,,,,,,,,,,,,,,,,,,,,,,,,,,,,,,,,,,,,,,
,,,,,WIN24_030,18,Female,2024-02-01_15h02.15.143,jersey_experiment_5,2023.2.2,Win32,85.47008547,,,,,,,,,,,,,,,,187.6234,188.9171,188.9172,191.7879,return,0.4473,,46.22395833,0,34,34,3,1,FBP-OG-71.png,0.43,1.2,4,0.5,,,,,,,,,,,,,,,,,,,,,,,,,,,,,,,,,,,,,,,,,,,,,
,,,,,WIN24_030,18,Female,2024-02-01_15h02.15.143,jersey_experiment_5,2023.2.2,Win32,85.47008547,,,,,,,,,,,,,,,,191.7881,193.5881,193.5882,196.129,return,0.6322,,85.9375,0,35,35,29,1,FBP-RB-19.png,0.45,1.2,30,1,,,,,,,,,,,,,,,,,,,,,,,,,,,,,,,,,,,,,,,,,,,,,
,,,,,WIN24_030,18,Female,2024-02-01_15h02.15.143,jersey_experiment_5,2023.2.2,Win32,85.47008547,,,,,,,,,,,,,,,,196.1293,197.9292,197.9292,199.7175,return,0.5083,,66.92708333,0,36,36,37,1,FBP-YG-81.png,0.4,1.2,38,1,,,,,,,,,,,,,,,,,,,,,,,,,,,,,,,,,,,,,,,,,,,,,
,,,,,WIN24_030,18,Female,2024-02-01_15h02.15.143,jersey_experiment_5,2023.2.2,Win32,85.47008547,,,,,,,,,,,,,,,,199.7178,201.5176,201.5176,203.5883,return,0.4277,,58.33333333,0,37,37,36,1,FBP-YG-81.png,0.37,1.2,37,1,,,,,,,,,,,,,,,,,,,,,,,,,,,,,,,,,,,,,,,,,,,,,
,,,,,WIN24_030,18,Female,2024-02-01_15h02.15.143,jersey_experiment_5,2023.2.2,Win32,85.47008547,,,,,,,,,,,,,,,,203.5886,204.8824,204.8824,206.2355,return,0.4946,,58.33333333,0,38,38,6,1,FBP-OG-81.png,0.37,1.2,7,0.5,,,,,,,,,,,,,,,,,,,,,,,,,,,,,,,,,,,,,,,,,,,,,
,,,,,WIN24_030,18,Female,2024-02-01_15h02.15.143,jersey_experiment_5,2023.2.2,Win32,85.47008547,,,,,,,,,,,,,,,,206.2358,207.5295,207.5296,209.2355,return,0.3105,,95.57291667,0,39,39,59,1,FBP-PT-19.png,0.45,1.2,60,0.5,,,,,,,,,,,,,,,,,,,,,,,,,,,,,,,,,,,,,,,,,,,,,
,,,,,WIN24_030,18,Female,2024-02-01_15h02.15.143,jersey_experiment_5,2023.2.2,Win32,85.47008547,,,,,,,,,,,,,,,,209.2359,211.0356,211.0356,213.0122,return,0.3585,,43.48958333,0,40,40,30,1,FBP-YG-71.png,0.35,1.2,31,1,,,,,,,,,,,,,,,,,,,,,,,,,,,,,,,,,,,,,,,,,,,,,
,,,,,WIN24_030,18,Female,2024-02-01_15h02.15.143,jersey_experiment_5,2023.2.2,Win32,85.47008547,,,,,,,,,,,,,,,,213.0123,214.8122,214.8122,215.9533,return,0.3848,,39.19270833,0,41,41,25,1,FBP-RB-19.png,0.35,1.2,26,1,,,,,,,,,,,,,,,,,,,,,,,,,,,,,,,,,,,,,,,,,,,,,
,,,,,WIN24_030,18,Female,2024-02-01_15h02.15.143,jersey_experiment_5,2023.2.2,Win32,85.47008547,,,,,,,,,,,,,,,,215.9535,217.7535,217.7536,219.0948,return,0.4246,,71.09375,0,42,42,32,1,FBP-YG-71.png,0.4,1.2,33,1,,,,,,,,,,,,,,,,,,,,,,,,,,,,,,,,,,,,,,,,,,,,,
,,,,,WIN24_030,18,Female,2024-02-01_15h02.15.143,jersey_experiment_5,2023.2.2,Win32,85.47008547,,,,,,,,,,,,,,,,219.095,220.389,220.389,221.9067,return,0.3234,,97.52604167,0,43,43,54,1,FBP-PT-18.png,0.45,1.2,55,0.5,,,,,,,,,,,,,,,,,,,,,,,,,,,,,,,,,,,,,,,,,,,,,
,,,,,WIN24_030,18,Female,2024-02-01_15h02.15.143,jersey_experiment_5,2023.2.2,Win32,85.47008547,,,,,,,,,,,,,,,,221.9069,223.7068,223.7068,225.1421,return,0.2839,,75.65104167,0,44,44,41,1,FBP-YG-91.png,0.37,1.2,42,1,,,,,,,,,,,,,,,,,,,,,,,,,,,,,,,,,,,,,,,,,,,,,
,,,,,WIN24_030,18,Female,2024-02-01_15h02.15.143,jersey_experiment_5,2023.2.2,Win32,85.47008547,,,,,,,,,,,,,,,,225.1424,226.9421,226.9421,228.9072,return,0.4708,,24.73958333,0,45,45,35,1,FBP-YG-81.png,0.35,1.2,36,1,,,,,,,,,,,,,,,,,,,,,,,,,,,,,,,,,,,,,,,,,,,,,
,,,,,WIN24_030,18,Female,2024-02-01_15h02.15.143,jersey_experiment_5,2023.2.2,Win32,85.47008547,,,,,,,,,,,,,,,,228.9074,230.2009,230.201,231.507,return,0.2653,,25.26041667,0,46,46,0,1,FBP-OG-71.png,0.35,1.2,1,0.5,,,,,,,,,,,,,,,,,,,,,,,,,,,,,,,,,,,,,,,,,,,,,
,,,,,WIN24_030,18,Female,2024-02-01_15h02.15.143,jersey_experiment_5,2023.2.2,Win32,85.47008547,,,,,,,,,,,,,,,,231.5073,232.8012,232.8012,234.3424,return,0.4255,,74.73958333,0,47,47,53,1,FBP-PT-18.png,0.43,1.2,54,0.5,,,,,,,,,,,,,,,,,,,,,,,,,,,,,,,,,,,,,,,,,,,,,
,,,,,WIN24_030,18,Female,2024-02-01_15h02.15.143,jersey_experiment_5,2023.2.2,Win32,85.47008547,,,,,,,,,,,,,,,,234.3427,235.6365,235.6365,237.2838,return,0.3708,,71.74479167,0,48,48,2,1,FBP-OG-71.png,0.4,1.2,3,0.5,,,,,,,,,,,,,,,,,,,,,,,,,,,,,,,,,,,,,,,,,,,,,
,,,,,WIN24_030,18,Female,2024-02-01_15h02.15.143,jersey_experiment_5,2023.2.2,Win32,85.47008547,,,,,,,,,,,,,,,,237.284,238.5778,238.5779,239.9544,return,0.3937,,29.03645833,0,49,49,1,1,FBP-OG-71.png,0.37,1.2,2,0.5,,,,,,,,,,,,,,,,,,,,,,,,,,,,,,,,,,,,,,,,,,,,,
,,,,,WIN24_030,18,Female,2024-02-01_15h02.15.143,jersey_experiment_5,2023.2.2,Win32,85.47008547,,,,,,,,,,,,,,,,239.9546,241.7546,241.7547,243.0488,return,0.4477,,27.734375,0,50,50,20,1,FBP-RB-18.png,0.35,1.2,21,1,,,,,,,,,,,,,,,,,,,,,,,,,,,,,,,,,,,,,,,,,,,,,
,,,,,WIN24_030,18,Female,2024-02-01_15h02.15.143,jersey_experiment_5,2023.2.2,Win32,85.47008547,,,,,,,,,,,,,,,,243.049,244.8487,244.8487,246.2605,return,0.4383,,64.97395833,0,51,51,22,1,FBP-RB-18.png,0.4,1.2,23,1,,,,,,,,,,,,,,,,,,,,,,,,,,,,,,,,,,,,,,,,,,,,,
,,,,,WIN24_030,18,Female,2024-02-01_15h02.15.143,jersey_experiment_5,2023.2.2,Win32,85.47008547,,,,,,,,,,,,,,,,246.2607,247.5547,247.5547,248.7077,return,0.4159,,64.97395833,0,52,52,47,1,FBP-PT-17.png,0.4,1.2,48,0.5,,,,,,,,,,,,,,,,,,,,,,,,,,,,,,,,,,,,,,,,,,,,,
,,,,,WIN24_030,18,Female,2024-02-01_15h02.15.143,jersey_experiment_5,2023.2.2,Win32,85.47008547,,,,,,,,,,,,,,,,248.7078,250.0018,250.0018,251.2724,return,0.3776,,69.921875,0,53,53,7,1,FBP-OG-81.png,0.4,1.2,8,0.5,,,,,,,,,,,,,,,,,,,,,,,,,,,,,,,,,,,,,,,,,,,,,
,,,,,WIN24_030,18,Female,2024-02-01_15h02.15.143,jersey_experiment_5,2023.2.2,Win32,85.47008547,,,,,,,,,,,,,,,,251.2726,252.5666,252.5666,254.0373,return,0.6852,,69.921875,0,54,54,11,1,FBP-OG-91.png,0.37,1.2,12,0.5,,,,,,,,,,,,,,,,,,,,,,,,,,,,,,,,,,,,,,,,,,,,,
,,,,,WIN24_030,18,Female,2024-02-01_15h02.15.143,jersey_experiment_5,2023.2.2,Win32,85.47008547,,,,,,,,,,,,,,,,254.0375,255.3314,255.3314,256.9197,return,0.4258,,30.59895833,0,55,55,56,1,FBP-PT-19.png,0.37,1.2,57,0.5,,,,,,,,,,,,,,,,,,,,,,,,,,,,,,,,,,,,,,,,,,,,,
,,,,,WIN24_030,18,Female,2024-02-01_15h02.15.143,jersey_experiment_5,2023.2.2,Win32,85.47008547,,,,,,,,,,,,,,,,256.9199,258.72,258.72,260.1198,return,0.2842,,67.96875,0,56,56,17,1,FBP-RB-17.png,0.4,1.2,18,1,,,,,,,,,,,,,,,,,,,,,,,,,,,,,,,,,,,,,,,,,,,,,
,,,,,WIN24_030,18,Female,2024-02-01_15h02.15.143,jersey_experiment_5,2023.2.2,Win32,85.47008547,,,,,,,,,,,,,,,,260.12,261.9201,261.9201,263.3083,return,0.3202,,97.78645833,0,57,57,19,1,FBP-RB-17.png,0.45,1.2,20,1,,,,,,,,,,,,,,,,,,,,,,,,,,,,,,,,,,,,,,,,,,,,,
,,,,,WIN24_030,18,Female,2024-02-01_15h02.15.143,jersey_experiment_5,2023.2.2,Win32,85.47008547,,,,,,,,,,,,,,,,263.3085,264.6024,264.6024,265.9789,return,0.3535,,98.56770833,0,58,58,48,1,FBP-PT-17.png,0.43,1.2,49,0.5,,,,,,,,,,,,,,,,,,,,,,,,,,,,,,,,,,,,,,,,,,,,,
,,,,,WIN24_030,18,Female,2024-02-01_15h02.15.143,jersey_experiment_5,2023.2.2,Win32,85.47008547,,,,,,,,,,,,,,,,265.9793,267.7789,267.7789,269.3201,return,0.2839,,67.44791667,0,59,59,31,1,FBP-YG-71.png,0.37,1.2,32,1,,,,,,,,,,,,,,,,,,,,,,,,,,,,,,,,,,,,,,,,,,,,,
,,,,,WIN24_030,18,Female,2024-02-01_15h02.15.143,jersey_experiment_5,2023.2.2,Win32,85.47008547,,,,,,,,,,,,,,,,269.3219,271.1204,271.1204,272.1556,return,0.3669,,96.875,,,,,,FBP-RB-71.png,0.45,1.2,20,1,0,0,0,19,1,,,,,,,,,,,,,,,,,,,,,,,,,,,,,,,,,,,,,,,,
,,,,,WIN24_030,18,Female,2024-02-01_15h02.15.143,jersey_experiment_5,2023.2.2,Win32,85.47008547,,,,,,,,,,,,,,,,272.1558,273.4497,273.4498,274.8851,return,0.3225,,28.38541667,,,,,,FBP-PT-91.png,0.35,1.2,56,0.5,0,1,1,55,1,,,,,,,,,,,,,,,,,,,,,,,,,,,,,,,,,,,,,,,,
,,,,,WIN24_030,18,Female,2024-02-01_15h02.15.143,jersey_experiment_5,2023.2.2,Win32,85.47008547,,,,,,,,,,,,,,,,274.8853,276.1793,276.1793,277.4028,return,0.306,,25,,,,,,FBP-OG-19.png,0.35,1.2,11,0.5,0,2,2,10,1,,,,,,,,,,,,,,,,,,,,,,,,,,,,,,,,,,,,,,,,
,,,,,WIN24_030,18,Female,2024-02-01_15h02.15.143,jersey_experiment_5,2023.2.2,Win32,85.47008547,,,,,,,,,,,,,,,,277.4031,278.697,278.697,280.0854,return,0.2519,,78.38541667,,,,,,FBP-OG-19.png,0.43,1.2,14,0.5,0,3,3,13,1,,,,,,,,,,,,,,,,,,,,,,,,,,,,,,,,,,,,,,,,
,,,,,WIN24_030,18,Female,2024-02-01_15h02.15.143,jersey_experiment_5,2023.2.2,Win32,85.47008547,,,,,,,,,,,,,,,,280.0855,281.8853,281.8853,285.8151,return,0.356,,66.66666667,,,,,,FBP-YG-17.png,0.35,1.2,31,1,0,4,4,30,1,,,,,,,,,,,,,,,,,,,,,,,,,,,,,,,,,,,,,,,,
,,,,,WIN24_030,18,Female,2024-02-01_15h02.15.143,jersey_experiment_5,2023.2.2,Win32,85.47008547,,,,,,,,,,,,,,,,285.8153,287.615,287.615,288.6738,return,0.3357,,98.69791667,,,,,,FBP-YG-19.png,0.43,1.2,44,1,0,5,5,43,1,,,,,,,,,,,,,,,,,,,,,,,,,,,,,,,,,,,,,,,,
,,,,,WIN24_030,18,Female,2024-02-01_15h02.15.143,jersey_experiment_5,2023.2.2,Win32,85.47008547,,,,,,,,,,,,,,,,288.674,289.9682,289.9682,291.3798,return,0.2402,,23.56770833,,,,,,FBP-OG-17.png,0.35,1.2,1,0.5,0,6,6,0,1,,,,,,,,,,,,,,,,,,,,,,,,,,,,,,,,,,,,,,,,
,,,,,WIN24_030,18,Female,2024-02-01_15h02.15.143,jersey_experiment_5,2023.2.2,Win32,85.47008547,,,,,,,,,,,,,,,,291.3801,293.1798,293.1798,294.2741,return,0.218,,99.73958333,,,,,,FBP-YG-18.png,0.45,1.2,40,1,0,7,7,39,1,,,,,,,,,,,,,,,,,,,,,,,,,,,,,,,,,,,,,,,,
,,,,,WIN24_030,18,Female,2024-02-01_15h02.15.143,jersey_experiment_5,2023.2.2,Win32,85.47008547,,,,,,,,,,,,,,,,294.2743,296.074,296.074,297.2741,return,0.2826,,73.17708333,,,,,,FBP-YG-17.png,0.4,1.2,33,1,0,8,8,32,1,,,,,,,,,,,,,,,,,,,,,,,,,,,,,,,,,,,,,,,,
,,,,,WIN24_030,18,Female,2024-02-01_15h02.15.143,jersey_experiment_5,2023.2.2,Win32,85.47008547,,,,,,,,,,,,,,,,297.2743,298.5682,298.5682,300.2743,return,0.2311,,10.28645833,,,,,,FBP-PT-71.png,0.35,1.2,46,0.5,0,9,9,45,1,,,,,,,,,,,,,,,,,,,,,,,,,,,,,,,,,,,,,,,,
,,,,,WIN24_030,18,Female,2024-02-01_15h02.15.143,jersey_experiment_5,2023.2.2,Win32,85.47008547,,,,,,,,,,,,,,,,300.2745,302.0743,302.0743,303.0509,return,0.4004,,9.635416667,,,,,,FBP-RB-81.png,0.35,1.2,21,1,0,10,10,20,1,,,,,,,,,,,,,,,,,,,,,,,,,,,,,,,,,,,,,,,,
,,,,,WIN24_030,18,Female,2024-02-01_15h02.15.143,jersey_experiment_5,2023.2.2,Win32,85.47008547,,,,,,,,,,,,,,,,303.0512,304.345,304.345,306.0863,return,0.227,,91.015625,,,,,,FBP-OG-19.png,0.45,1.2,15,0.5,0,11,11,14,1,,,,,,,,,,,,,,,,,,,,,,,,,,,,,,,,,,,,,,,,
,,,,,WIN24_030,18,Female,2024-02-01_15h02.15.143,jersey_experiment_5,2023.2.2,Win32,85.47008547,,,,,,,,,,,,,,,,306.0866,307.8864,307.8864,308.7453,return,0.2727,,98.046875,,,,,,FBP-RB-91.png,0.45,1.2,30,1,0,12,12,29,1,,,,,,,,,,,,,,,,,,,,,,,,,,,,,,,,,,,,,,,,
,,,,,WIN24_030,18,Female,2024-02-01_15h02.15.143,jersey_experiment_5,2023.2.2,Win32,85.47008547,,,,,,,,,,,,,,,,308.7454,310.0393,310.0394,311.2983,return,0.3371,,99.08854167,,,,,,FBP-OG-17.png,0.45,1.2,5,0.5,0,13,13,4,1,,,,,,,,,,,,,,,,,,,,,,,,,,,,,,,,,,,,,,,,
,,,,,WIN24_030,18,Female,2024-02-01_15h02.15.143,jersey_experiment_5,2023.2.2,Win32,85.47008547,,,,,,,,,,,,,,,,311.2985,313.0985,313.0985,314.0983,return,0.2063,,71.22395833,,,,,,FBP-RB-71.png,0.4,1.2,18,1,0,14,14,17,1,,,,,,,,,,,,,,,,,,,,,,,,,,,,,,,,,,,,,,,,
,,,,,WIN24_030,18,Female,2024-02-01_15h02.15.143,jersey_experiment_5,2023.2.2,Win32,85.47008547,,,,,,,,,,,,,,,,314.0985,315.3925,315.3925,316.6514,return,0.1891,,81.25,,,,,,FBP-OG-18.png,0.43,1.2,9,0.5,0,15,15,8,1,,,,,,,,,,,,,,,,,,,,,,,,,,,,,,,,,,,,,,,,
,,,,,WIN24_030,18,Female,2024-02-01_15h02.15.143,jersey_experiment_5,2023.2.2,Win32,85.47008547,,,,,,,,,,,,,,,,316.6515,317.9456,317.9456,319.2868,return,0.3075,,20.83333333,,,,,,FBP-PT-81.png,0.35,1.2,51,0.5,0,16,16,50,1,,,,,,,,,,,,,,,,,,,,,,,,,,,,,,,,,,,,,,,,
,,,,,WIN24_030,18,Female,2024-02-01_15h02.15.143,jersey_experiment_5,2023.2.2,Win32,85.47008547,,,,,,,,,,,,,,,,319.287,320.5809,320.5809,322.028,return,0.3161,,70.18229167,,,,,,FBP-OG-17.png,0.43,1.2,4,0.5,0,17,17,3,1,,,,,,,,,,,,,,,,,,,,,,,,,,,,,,,,,,,,,,,,
,,,,,WIN24_030,18,Female,2024-02-01_15h02.15.143,jersey_experiment_5,2023.2.2,Win32,85.47008547,,,,,,,,,,,,,,,,322.0281,323.322,323.322,324.8752,return,0.2691,,62.890625,,,,,,FBP-PT-81.png,0.4,1.2,53,0.5,0,18,18,52,1,,,,,,,,,,,,,,,,,,,,,,,,,,,,,,,,,,,,,,,,
,,,,,WIN24_030,18,Female,2024-02-01_15h02.15.143,jersey_experiment_5,2023.2.2,Win32,85.47008547,,,,,,,,,,,,,,,,324.8754,326.1693,326.1694,327.7693,return,0.2929,,53.77604167,,,,,,FBP-PT-91.png,0.4,1.2,58,0.5,0,19,19,57,1,,,,,,,,,,,,,,,,,,,,,,,,,,,,,,,,,,,,,,,,
,,,,,WIN24_030,18,Female,2024-02-01_15h02.15.143,jersey_experiment_5,2023.2.2,Win32,85.47008547,,,,,,,,,,,,,,,,327.7696,329.0636,329.0636,330.6521,return,0.4005,,32.55208333,,,,,,FBP-PT-81.png,0.37,1.2,52,0.5,0,20,20,51,1,,,,,,,,,,,,,,,,,,,,,,,,,,,,,,,,,,,,,,,,
,,,,,WIN24_030,18,Female,2024-02-01_15h02.15.143,jersey_experiment_5,2023.2.2,Win32,85.47008547,,,,,,,,,,,,,,,,330.6523,331.946,331.946,333.1696,return,0.3968,,29.16666667,,,,,,FBP-PT-91.png,0.37,1.2,57,0.5,0,21,21,56,1,,,,,,,,,,,,,,,,,,,,,,,,,,,,,,,,,,,,,,,,
,,,,,WIN24_030,18,Female,2024-02-01_15h02.15.143,jersey_experiment_5,2023.2.2,Win32,85.47008547,,,,,,,,,,,,,,,,333.1698,334.9696,334.9696,336.7463,return,0.3909,,74.34895833,,,,,,FBP-YG-17.png,0.45,1.2,35,1,0,22,22,34,1,,,,,,,,,,,,,,,,,,,,,,,,,,,,,,,,,,,,,,,,
,,,,,WIN24_030,18,Female,2024-02-01_15h02.15.143,jersey_experiment_5,2023.2.2,Win32,85.47008547,,,,,,,,,,,,,,,,336.7464,338.5465,338.5465,339.5699,return,0.4069,,80.59895833,,,,,,FBP-YG-18.png,0.43,1.2,39,1,0,23,23,38,1,,,,,,,,,,,,,,,,,,,,,,,,,,,,,,,,,,,,,,,,
,,,,,WIN24_030,18,Female,2024-02-01_15h02.15.143,jersey_experiment_5,2023.2.2,Win32,85.47008547,,,,,,,,,,,,,,,,339.5701,341.37,341.37,342.5818,return,0.2512,,28.38541667,,,,,,FBP-YG-19.png,0.35,1.2,41,1,0,24,24,40,1,,,,,,,,,,,,,,,,,,,,,,,,,,,,,,,,,,,,,,,,
,,,,,WIN24_030,18,Female,2024-02-01_15h02.15.143,jersey_experiment_5,2023.2.2,Win32,85.47008547,,,,,,,,,,,,,,,,342.5821,343.876,343.876,345.2407,return,0.3301,,6.640625,,,,,,FBP-OG-18.png,0.35,1.2,6,0.5,0,25,25,5,1,,,,,,,,,,,,,,,,,,,,,,,,,,,,,,,,,,,,,,,,
,,,,,WIN24_030,18,Female,2024-02-01_15h02.15.143,jersey_experiment_5,2023.2.2,Win32,85.47008547,,,,,,,,,,,,,,,,345.2409,347.0407,347.0407,348.5349,return,0.307,,23.56770833,,,,,,FBP-RB-91.png,0.4,1.2,28,1,0,26,26,27,1,,,,,,,,,,,,,,,,,,,,,,,,,,,,,,,,,,,,,,,,
,,,,,WIN24_030,18,Female,2024-02-01_15h02.15.143,jersey_experiment_5,2023.2.2,Win32,85.47008547,,,,,,,,,,,,,,,,348.5352,349.8291,349.8291,352.2998,return,0.2962,,44.27083333,,,,,,FBP-PT-91.png,0.43,1.2,59,0.5,0,27,27,58,1,,,,,,,,,,,,,,,,,,,,,,,,,,,,,,,,,,,,,,,,
,,,,,WIN24_030,18,Female,2024-02-01_15h02.15.143,jersey_experiment_5,2023.2.2,Win32,85.47008547,,,,,,,,,,,,,,,,352.2999,353.5939,353.5939,354.9704,return,0.3167,,74.609375,,,,,,FBP-PT-81.png,0.45,1.2,55,0.5,0,28,28,54,1,,,,,,,,,,,,,,,,,,,,,,,,,,,,,,,,,,,,,,,,
,,,,,WIN24_030,18,Female,2024-02-01_15h02.15.143,jersey_experiment_5,2023.2.2,Win32,85.47008547,,,,,,,,,,,,,,,,354.9707,356.7707,356.7708,357.9705,return,0.3952,,74.73958333,,,,,,FBP-YG-17.png,0.43,1.2,34,1,0,29,29,33,1,,,,,,,,,,,,,,,,,,,,,,,,,,,,,,,,,,,,,,,,
,,,,,WIN24_030,18,Female,2024-02-01_15h02.15.143,jersey_experiment_5,2023.2.2,Win32,85.47008547,,,,,,,,,,,,,,,,357.9708,359.2646,359.2646,360.7471,return,0.3523,,77.734375,,,,,,FBP-PT-91.png,0.45,1.2,60,0.5,0,30,30,59,1,,,,,,,,,,,,,,,,,,,,,,,,,,,,,,,,,,,,,,,,
,,,,,WIN24_030,18,Female,2024-02-01_15h02.15.143,jersey_experiment_5,2023.2.2,Win32,85.47008547,,,,,,,,,,,,,,,,360.7474,362.5471,362.5472,363.9473,return,0.2598,,71.22395833,,,,,,FBP-YG-18.png,0.4,1.2,38,1,0,31,31,37,1,,,,,,,,,,,,,,,,,,,,,,,,,,,,,,,,,,,,,,,,
,,,,,WIN24_030,18,Female,2024-02-01_15h02.15.143,jersey_experiment_5,2023.2.2,Win32,85.47008547,,,,,,,,,,,,,,,,363.9475,365.2415,365.2415,366.6767,return,0.3462,,27.08333333,,,,,,FBP-PT-71.png,0.37,1.2,47,0.5,0,32,32,46,1,,,,,,,,,,,,,,,,,,,,,,,,,,,,,,,,,,,,,,,,
,,,,,WIN24_030,18,Female,2024-02-01_15h02.15.143,jersey_experiment_5,2023.2.2,Win32,85.47008547,,,,,,,,,,,,,,,,366.6769,367.971,367.971,369.3357,return,0.2593,,16.796875,,,,,,FBP-OG-17.png,0.37,1.2,2,0.5,0,33,33,1,1,,,,,,,,,,,,,,,,,,,,,,,,,,,,,,,,,,,,,,,,
,,,,,WIN24_030,18,Female,2024-02-01_15h02.15.143,jersey_experiment_5,2023.2.2,Win32,85.47008547,,,,,,,,,,,,,,,,369.336,371.1355,371.1356,371.9476,return,0.2502,,16.796875,,,,,,FBP-RB-71.png,0.37,1.2,17,1,0,34,34,16,1,,,,,,,,,,,,,,,,,,,,,,,,,,,,,,,,,,,,,,,,
,,,,,WIN24_030,18,Female,2024-02-01_15h02.15.143,jersey_experiment_5,2023.2.2,Win32,85.47008547,,,,,,,,,,,,,,,,371.9478,373.2418,373.2418,375.4182,return,0.2928,,92.96875,,,,,,FBP-PT-71.png,0.43,1.2,49,0.5,0,35,35,48,1,,,,,,,,,,,,,,,,,,,,,,,,,,,,,,,,,,,,,,,,
,,,,,WIN24_030,18,Female,2024-02-01_15h02.15.143,jersey_experiment_5,2023.2.2,Win32,85.47008547,,,,,,,,,,,,,,,,375.4185,377.2184,377.2184,378.4536,return,0.4607,,91.796875,,,,,,FBP-RB-81.png,0.43,1.2,24,1,0,36,36,23,1,,,,,,,,,,,,,,,,,,,,,,,,,,,,,,,,,,,,,,,,
,,,,,WIN24_030,18,Female,2024-02-01_15h02.15.143,jersey_experiment_5,2023.2.2,Win32,85.47008547,,,,,,,,,,,,,,,,378.4539,380.2538,380.2538,382.5361,return,0.2031,,28.125,,,,,,FBP-YG-17.png,0.37,1.2,32,1,0,37,37,31,1,,,,,,,,,,,,,,,,,,,,,,,,,,,,,,,,,,,,,,,,
,,,,,WIN24_030,18,Female,2024-02-01_15h02.15.143,jersey_experiment_5,2023.2.2,Win32,85.47008547,,,,,,,,,,,,,,,,382.5364,384.3361,384.3361,385.5127,return,0.3648,,35.28645833,,,,,,FBP-YG-18.png,0.35,1.2,36,1,0,38,38,35,1,,,,,,,,,,,,,,,,,,,,,,,,,,,,,,,,,,,,,,,,
,,,,,WIN24_030,18,Female,2024-02-01_15h02.15.143,jersey_experiment_5,2023.2.2,Win32,85.47008547,,,,,,,,,,,,,,,,385.5129,387.3128,387.3129,388.3717,return,0.2769,,36.328125,,,,,,FBP-RB-91.png,0.37,1.2,27,1,0,39,39,26,1,,,,,,,,,,,,,,,,,,,,,,,,,,,,,,,,,,,,,,,,
,,,,,WIN24_030,18,Female,2024-02-01_15h02.15.143,jersey_experiment_5,2023.2.2,Win32,85.47008547,,,,,,,,,,,,,,,,388.372,389.6658,389.6658,391.8189,return,0.2118,,47.00520833,,,,,,FBP-OG-18.png,0.45,1.2,10,0.5,0,40,40,9,1,,,,,,,,,,,,,,,,,,,,,,,,,,,,,,,,,,,,,,,,
,,,,,WIN24_030,18,Female,2024-02-01_15h02.15.143,jersey_experiment_5,2023.2.2,Win32,85.47008547,,,,,,,,,,,,,,,,391.819,393.1129,393.113,394.1366,return,0.259,,47.00520833,,,,,,FBP-OG-19.png,0.37,1.2,12,0.5,0,41,41,11,1,,,,,,,,,,,,,,,,,,,,,,,,,,,,,,,,,,,,,,,,
,,,,,WIN24_030,18,Female,2024-02-01_15h02.15.143,jersey_experiment_5,2023.2.2,Win32,85.47008547,,,,,,,,,,,,,,,,394.1369,395.9367,395.9367,397.0661,return,0.2452,,36.71875,,,,,,FBP-RB-91.png,0.35,1.2,26,1,0,42,42,25,1,,,,,,,,,,,,,,,,,,,,,,,,,,,,,,,,,,,,,,,,
,,,,,WIN24_030,18,Female,2024-02-01_15h02.15.143,jersey_experiment_5,2023.2.2,Win32,85.47008547,,,,,,,,,,,,,,,,397.0662,398.8663,398.8663,399.8309,return,0.3207,,36.58854167,,,,,,FBP-RB-81.png,0.37,1.2,22,1,0,43,43,21,1,,,,,,,,,,,,,,,,,,,,,,,,,,,,,,,,,,,,,,,,
,,,,,WIN24_030,18,Female,2024-02-01_15h02.15.143,jersey_experiment_5,2023.2.2,Win32,85.47008547,,,,,,,,,,,,,,,,399.8312,401.631,401.631,402.9018,return,0.3435,,39.71354167,,,,,,FBP-YG-18.png,0.37,1.2,37,1,0,44,44,36,1,,,,,,,,,,,,,,,,,,,,,,,,,,,,,,,,,,,,,,,,
,,,,,WIN24_030,18,Female,2024-02-01_15h02.15.143,jersey_experiment_5,2023.2.2,Win32,85.47008547,,,,,,,,,,,,,,,,402.902,404.7018,404.7018,405.9959,return,0.3072,,41.27604167,,,,,,FBP-RB-71.png,0.35,1.2,16,1,0,45,45,15,1,,,,,,,,,,,,,,,,,,,,,,,,,,,,,,,,,,,,,,,,
,,,,,WIN24_030,18,Female,2024-02-01_15h02.15.143,jersey_experiment_5,2023.2.2,Win32,85.47008547,,,,,,,,,,,,,,,,405.9962,407.2901,407.2901,410.2666,return,0.3632,,45.703125,,,,,,FBP-OG-17.png,0.4,1.2,3,0.5,0,46,46,2,1,,,,,,,,,,,,,,,,,,,,,,,,,,,,,,,,,,,,,,,,
,,,,,WIN24_030,18,Female,2024-02-01_15h02.15.143,jersey_experiment_5,2023.2.2,Win32,85.47008547,,,,,,,,,,,,,,,,410.2668,412.0669,412.067,414.1021,return,0.8039,,97.00520833,,,,,,FBP-YG-19.png,0.45,1.2,45,1,0,47,47,44,1,,,,,,,,,,,,,,,,,,,,,,,,,,,,,,,,,,,,,,,,
,,,,,WIN24_030,18,Female,2024-02-01_15h02.15.143,jersey_experiment_5,2023.2.2,Win32,85.47008547,,,,,,,,,,,,,,,,414.1023,415.3962,415.3962,416.8551,return,0.5779,,95.44270833,,,,,,FBP-PT-81.png,0.43,1.2,54,0.5,0,48,48,53,1,,,,,,,,,,,,,,,,,,,,,,,,,,,,,,,,,,,,,,,,
,,,,,WIN24_030,18,Female,2024-02-01_15h02.15.143,jersey_experiment_5,2023.2.2,Win32,85.47008547,,,,,,,,,,,,,,,,416.8552,418.6551,418.6551,419.7376,return,0.165,,81.90104167,,,,,,FBP-RB-81.png,0.4,1.2,23,1,0,49,49,22,1,,,,,,,,,,,,,,,,,,,,,,,,,,,,,,,,,,,,,,,,
,,,,,WIN24_030,18,Female,2024-02-01_15h02.15.143,jersey_experiment_5,2023.2.2,Win32,85.47008547,,,,,,,,,,,,,,,,419.7377,421.5376,421.5376,422.6905,return,0.4542,,81.51041667,,,,,,FBP-YG-19.png,0.37,1.2,42,1,0,50,50,41,1,,,,,,,,,,,,,,,,,,,,,,,,,,,,,,,,,,,,,,,,
,,,,,WIN24_030,18,Female,2024-02-01_15h02.15.143,jersey_experiment_5,2023.2.2,Win32,85.47008547,,,,,,,,,,,,,,,,422.6908,423.9848,423.9848,425.4672,return,0.2587,,80.078125,,,,,,FBP-OG-18.png,0.4,1.2,8,0.5,0,51,51,7,1,,,,,,,,,,,,,,,,,,,,,,,,,,,,,,,,,,,,,,,,
,,,,,WIN24_030,18,Female,2024-02-01_15h02.15.143,jersey_experiment_5,2023.2.2,Win32,85.47008547,,,,,,,,,,,,,,,,425.4674,427.2674,427.2674,428.2791,return,0.3205,,99.609375,,,,,,FBP-RB-81.png,0.45,1.2,25,1,0,52,52,24,1,,,,,,,,,,,,,,,,,,,,,,,,,,,,,,,,,,,,,,,,
,,,,,WIN24_030,18,Female,2024-02-01_15h02.15.143,jersey_experiment_5,2023.2.2,Win32,85.47008547,,,,,,,,,,,,,,,,428.2794,429.5733,429.5733,431.3498,return,0.4984,,99.34895833,,,,,,FBP-PT-71.png,0.45,1.2,50,0.5,0,53,53,49,1,,,,,,,,,,,,,,,,,,,,,,,,,,,,,,,,,,,,,,,,
,,,,,WIN24_030,18,Female,2024-02-01_15h02.15.143,jersey_experiment_5,2023.2.2,Win32,85.47008547,,,,,,,,,,,,,,,,431.3499,432.6439,432.6439,434.0911,return,0.2119,,73.95833333,,,,,,FBP-OG-19.png,0.4,1.2,13,0.5,0,54,54,12,1,,,,,,,,,,,,,,,,,,,,,,,,,,,,,,,,,,,,,,,,
,,,,,WIN24_030,18,Female,2024-02-01_15h02.15.143,jersey_experiment_5,2023.2.2,Win32,85.47008547,,,,,,,,,,,,,,,,434.0913,435.891,435.8911,436.7266,return,0.2845,,73.95833333,,,,,,FBP-RB-71.png,0.43,1.2,19,1,0,55,55,18,1,,,,,,,,,,,,,,,,,,,,,,,,,,,,,,,,,,,,,,,,
,,,,,WIN24_030,18,Female,2024-02-01_15h02.15.143,jersey_experiment_5,2023.2.2,Win32,85.47008547,,,,,,,,,,,,,,,,436.727,438.0206,438.0206,440.2325,return,0.2122,,81.90104167,,,,,,FBP-OG-18.png,0.37,1.2,7,0.5,0,56,56,6,1,,,,,,,,,,,,,,,,,,,,,,,,,,,,,,,,,,,,,,,,
,,,,,WIN24_030,18,Female,2024-02-01_15h02.15.143,jersey_experiment_5,2023.2.2,Win32,85.47008547,,,,,,,,,,,,,,,,440.2327,441.5267,441.5267,442.6443,return,0.2274,,82.03125,,,,,,FBP-PT-71.png,0.4,1.2,48,0.5,0,57,57,47,1,,,,,,,,,,,,,,,,,,,,,,,,,,,,,,,,,,,,,,,,
,,,,,WIN24_030,18,Female,2024-02-01_15h02.15.143,jersey_experiment_5,2023.2.2,Win32,85.47008547,,,,,,,,,,,,,,,,442.6446,444.4444,444.4444,445.5855,return,0.1733,,95.83333333,,,,,,FBP-RB-91.png,0.43,1.2,29,1,0,58,58,28,1,,,,,,,,,,,,,,,,,,,,,,,,,,,,,,,,,,,,,,,,
,,,,,WIN24_030,18,Female,2024-02-01_15h02.15.143,jersey_experiment_5,2023.2.2,Win32,85.47008547,,,,,,,,,,,,,,,,445.5858,447.3859,447.3859,448.6681,return,0.212,,72.00520833,,,,,,FBP-YG-19.png,0.4,1.2,43,1,0,59,59,42,1,,,,,,,,,,,,,,,,,,,,,,,,,,,,,,,,,,,,,,,,
,,,,,WIN24_030,18,Female,2024-02-01_15h02.15.143,jersey_experiment_5,2023.2.2,Win32,85.47008547,,,,,,,,,,,,,,,,,,,,,,,,,,,,,,,,,,,,,,,448.6684,568.6729,,,,,,,,,,,,,,,,,,,,,,,,,,,,,,,,,,,,,,
,,,,,WIN24_030,18,Female,2024-02-01_15h02.15.143,jersey_experiment_5,2023.2.2,Win32,85.47008547,,,,,,,,,,,,,,,,,,,,,,,,,,,,,,,,,,,,,,,,,568.673,575.7084,return,7.0211,,,,,,,,,,,,,,,,,,,,,,,,,,,,,,,,,,
,,,,,WIN24_030,18,Female,2024-02-01_15h02.15.143,jersey_experiment_5,2023.2.2,Win32,85.47008547,,,,,,,,,,,,,,,,575.7148,577.0141,577.0142,583.1791,return,0.3056,,34.89583333,,,,,,FBP-YG-91.png,0.4,1.2,43,0.5,,,,,,,,,,,,,0,0,0,42,1,,,,,,,,,,,,,,,,,,,,,,,,,,,,
,,,,,WIN24_030,18,Female,2024-02-01_15h02.15.143,jersey_experiment_5,2023.2.2,Win32,85.47008547,,,,,,,,,,,,,,,,583.1794,584.979,584.979,586.0378,return,0.4749,,24.21875,,,,,,FBP-PT-17.png,0.35,1.2,46,1,,,,,,,,,,,,,0,1,1,45,1,,,,,,,,,,,,,,,,,,,,,,,,,,,,
,,,,,WIN24_030,18,Female,2024-02-01_15h02.15.143,jersey_experiment_5,2023.2.2,Win32,85.47008547,,,,,,,,,,,,,,,,586.0381,587.3321,587.3321,588.3322,return,0.2592,,71.09375,,,,,,FBP-YG-81.png,0.4,1.2,38,0.5,,,,,,,,,,,,,0,2,2,37,1,,,,,,,,,,,,,,,,,,,,,,,,,,,,
,,,,,WIN24_030,18,Female,2024-02-01_15h02.15.143,jersey_experiment_5,2023.2.2,Win32,85.47008547,,,,,,,,,,,,,,,,588.3324,589.6263,589.6263,590.7911,return,0.2383,,69.921875,,,,,,FBP-RB-19.png,0.37,1.2,27,0.5,,,,,,,,,,,,,0,3,3,26,1,,,,,,,,,,,,,,,,,,,,,,,,,,,,
,,,,,WIN24_030,18,Female,2024-02-01_15h02.15.143,jersey_experiment_5,2023.2.2,Win32,85.47008547,,,,,,,,,,,,,,,,590.7913,592.5912,592.5912,593.4618,return,0.2517,,70.18229167,,,,,,FBP-PT-17.png,0.4,1.2,48,1,,,,,,,,,,,,,0,4,4,47,1,,,,,,,,,,,,,,,,,,,,,,,,,,,,
,,,,,WIN24_030,18,Female,2024-02-01_15h02.15.143,jersey_experiment_5,2023.2.2,Win32,85.47008547,,,,,,,,,,,,,,,,593.462,595.2619,595.2619,596.5324,return,0.2752,,98.30729167,,,,,,FBP-PT-19.png,0.45,1.2,60,1,,,,,,,,,,,,,0,5,5,59,1,,,,,,,,,,,,,,,,,,,,,,,,,,,,
,,,,,WIN24_030,18,Female,2024-02-01_15h02.15.143,jersey_experiment_5,2023.2.2,Win32,85.47008547,,,,,,,,,,,,,,,,596.5325,597.8267,597.8267,599.0621,return,0.2141,,75.52083333,,,,,,FBP-YG-91.png,0.37,1.2,42,0.5,,,,,,,,,,,,,0,6,6,41,1,,,,,,,,,,,,,,,,,,,,,,,,,,,,
,,,,,WIN24_030,18,Female,2024-02-01_15h02.15.143,jersey_experiment_5,2023.2.2,Win32,85.47008547,,,,,,,,,,,,,,,,599.0623,600.8621,600.8621,602.1208,return,0.2586,,96.22395833,,,,,,FBP-PT-19.png,0.43,1.2,59,1,,,,,,,,,,,,,0,7,7,58,1,,,,,,,,,,,,,,,,,,,,,,,,,,,,
,,,,,WIN24_030,18,Female,2024-02-01_15h02.15.143,jersey_experiment_5,2023.2.2,Win32,85.47008547,,,,,,,,,,,,,,,,602.1209,603.4152,603.4152,604.6151,return,0.2133,,28.64583333,,,,,,FBP-RB-17.png,0.35,1.2,16,0.5,,,,,,,,,,,,,0,8,8,15,1,,,,,,,,,,,,,,,,,,,,,,,,,,,,
,,,,,WIN24_030,18,Female,2024-02-01_15h02.15.143,jersey_experiment_5,2023.2.2,Win32,85.47008547,,,,,,,,,,,,,,,,604.6153,606.4151,606.4151,607.1094,return,0.1913,,28.77604167,,,,,,FBP-OG-91.png,0.37,1.2,12,1,,,,,,,,,,,,,0,9,9,11,1,,,,,,,,,,,,,,,,,,,,,,,,,,,,
,,,,,WIN24_030,18,Female,2024-02-01_15h02.15.143,jersey_experiment_5,2023.2.2,Win32,85.47008547,,,,,,,,,,,,,,,,607.1096,608.9093,608.9093,609.5447,return,0.129,,28.77604167,,,,,,FBP-PT-18.png,0.37,1.2,52,1,,,,,,,,,,,,,0,10,10,51,1,,,,,,,,,,,,,,,,,,,,,,,,,,,,
,,,,,WIN24_030,18,Female,2024-02-01_15h02.15.143,jersey_experiment_5,2023.2.2,Win32,85.47008547,,,,,,,,,,,,,,,,609.545,611.3448,611.3448,612.1565,return,0.2454,,28.77604167,,,,,,FBP-PT-19.png,0.37,1.2,57,1,,,,,,,,,,,,,0,11,11,56,1,,,,,,,,,,,,,,,,,,,,,,,,,,,,
,,,,,WIN24_030,18,Female,2024-02-01_15h02.15.143,jersey_experiment_5,2023.2.2,Win32,85.47008547,,,,,,,,,,,,,,,,612.1568,613.9566,613.9567,615.2509,return,0.0662,,54.03645833,,,,,,FBP-OG-81.png,0.4,1.2,8,1,,,,,,,,,,,,,0,12,12,7,1,,,,,,,,,,,,,,,,,,,,,,,,,,,,
,,,,,WIN24_030,18,Female,2024-02-01_15h02.15.143,jersey_experiment_5,2023.2.2,Win32,85.47008547,,,,,,,,,,,,,,,,615.2511,616.545,616.5451,617.8038,return,0.151,,97.78645833,,,,,,FBP-YG-81.png,0.45,1.2,40,0.5,,,,,,,,,,,,,0,13,13,39,1,,,,,,,,,,,,,,,,,,,,,,,,,,,,
,,,,,WIN24_030,18,Female,2024-02-01_15h02.15.143,jersey_experiment_5,2023.2.2,Win32,85.47008547,,,,,,,,,,,,,,,,617.804,619.604,619.6041,620.4981,return,0.0905,,72.13541667,,,,,,FBP-PT-18.png,0.4,1.2,53,1,,,,,,,,,,,,,0,14,14,52,1,,,,,,,,,,,,,,,,,,,,,,,,,,,,
,,,,,WIN24_030,18,Female,2024-02-01_15h02.15.143,jersey_experiment_5,2023.2.2,Win32,85.47008547,,,,,,,,,,,,,,,,620.4984,622.2981,622.2981,623.0629,return,0.2736,,71.875,,,,,,FBP-PT-19.png,0.4,1.2,58,1,,,,,,,,,,,,,0,15,15,57,1,,,,,,,,,,,,,,,,,,,,,,,,,,,,
,,,,,WIN24_030,18,Female,2024-02-01_15h02.15.143,jersey_experiment_5,2023.2.2,Win32,85.47008547,,,,,,,,,,,,,,,,623.063,624.8628,624.8628,626.4042,return,0.168,,34.375,,,,,,FBP-OG-81.png,0.37,1.2,7,1,,,,,,,,,,,,,0,16,16,6,1,,,,,,,,,,,,,,,,,,,,,,,,,,,,
,,,,,WIN24_030,18,Female,2024-02-01_15h02.15.143,jersey_experiment_5,2023.2.2,Win32,85.47008547,,,,,,,,,,,,,,,,626.4045,627.6985,627.6985,628.7454,return,0.2595,,64.84375,,,,,,FBP-RB-18.png,0.4,1.2,23,0.5,,,,,,,,,,,,,0,17,17,22,1,,,,,,,,,,,,,,,,,,,,,,,,,,,,
,,,,,WIN24_030,18,Female,2024-02-01_15h02.15.143,jersey_experiment_5,2023.2.2,Win32,85.47008547,,,,,,,,,,,,,,,,628.7457,630.5455,630.5455,631.7221,return,0.2027,,86.84895833,,,,,,FBP-OG-91.png,0.43,1.2,14,1,,,,,,,,,,,,,0,18,18,13,1,,,,,,,,,,,,,,,,,,,,,,,,,,,,
,,,,,WIN24_030,18,Female,2024-02-01_15h02.15.143,jersey_experiment_5,2023.2.2,Win32,85.47008547,,,,,,,,,,,,,,,,631.7223,633.0162,633.0162,634.0868,return,0.2015,,85.80729167,,,,,,FBP-RB-18.png,0.37,1.2,22,0.5,,,,,,,,,,,,,0,19,19,21,1,,,,,,,,,,,,,,,,,,,,,,,,,,,,
,,,,,WIN24_030,18,Female,2024-02-01_15h02.15.143,jersey_experiment_5,2023.2.2,Win32,85.47008547,,,,,,,,,,,,,,,,634.087,635.3809,635.3809,636.6045,return,0.1648,,32.29166667,,,,,,FBP-RB-17.png,0.37,1.2,17,0.5,,,,,,,,,,,,,0,20,20,16,1,,,,,,,,,,,,,,,,,,,,,,,,,,,,
,,,,,WIN24_030,18,Female,2024-02-01_15h02.15.143,jersey_experiment_5,2023.2.2,Win32,85.47008547,,,,,,,,,,,,,,,,636.6047,638.4046,638.4046,639.4751,return,0.2424,,98.046875,,,,,,FBP-OG-81.png,0.45,1.2,10,1,,,,,,,,,,,,,0,21,21,9,1,,,,,,,,,,,,,,,,,,,,,,,,,,,,
,,,,,WIN24_030,18,Female,2024-02-01_15h02.15.143,jersey_experiment_5,2023.2.2,Win32,85.47008547,,,,,,,,,,,,,,,,639.4754,640.7693,640.7693,641.6871,return,0.1776,,98.046875,,,,,,FBP-YG-81.png,0.43,1.2,39,0.5,,,,,,,,,,,,,0,22,22,38,1,,,,,,,,,,,,,,,,,,,,,,,,,,,,
,,,,,WIN24_030,18,Female,2024-02-01_15h02.15.143,jersey_experiment_5,2023.2.2,Win32,85.47008547,,,,,,,,,,,,,,,,641.6873,642.9813,642.9813,643.9694,return,0.197,,89.71354167,,,,,,FBP-RB-19.png,0.4,1.2,28,0.5,,,,,,,,,,,,,0,23,23,27,1,,,,,,,,,,,,,,,,,,,,,,,,,,,,
,,,,,WIN24_030,18,Female,2024-02-01_15h02.15.143,jersey_experiment_5,2023.2.2,Win32,85.47008547,,,,,,,,,,,,,,,,643.9695,645.2637,645.2637,646.299,return,0.1882,,98.4375,,,,,,FBP-YG-91.png,0.45,1.2,45,0.5,,,,,,,,,,,,,0,24,24,44,1,,,,,,,,,,,,,,,,,,,,,,,,,,,,
,,,,,WIN24_030,18,Female,2024-02-01_15h02.15.143,jersey_experiment_5,2023.2.2,Win32,85.47008547,,,,,,,,,,,,,,,,646.2992,648.0992,648.0992,648.9814,return,0.2506,,98.30729167,,,,,,FBP-PT-17.png,0.43,1.2,49,1,,,,,,,,,,,,,0,25,25,48,1,,,,,,,,,,,,,,,,,,,,,,,,,,,,
,,,,,WIN24_030,18,Female,2024-02-01_15h02.15.143,jersey_experiment_5,2023.2.2,Win32,85.47008547,,,,,,,,,,,,,,,,648.9817,650.7818,650.7818,651.6875,return,0.2009,,85.546875,,,,,,FBP-OG-81.png,0.43,1.2,9,1,,,,,,,,,,,,,0,26,26,8,1,,,,,,,,,,,,,,,,,,,,,,,,,,,,
,,,,,WIN24_030,18,Female,2024-02-01_15h02.15.143,jersey_experiment_5,2023.2.2,Win32,85.47008547,,,,,,,,,,,,,,,,651.6876,653.4877,653.4877,654.3464,return,0.1414,,30.859375,,,,,,FBP-OG-71.png,0.35,1.2,1,1,,,,,,,,,,,,,0,27,27,0,1,,,,,,,,,,,,,,,,,,,,,,,,,,,,
,,,,,WIN24_030,18,Female,2024-02-01_15h02.15.143,jersey_experiment_5,2023.2.2,Win32,85.47008547,,,,,,,,,,,,,,,,654.3465,655.6405,655.6405,656.5346,return,0.2155,,30.859375,,,,,,FBP-RB-18.png,0.35,1.2,21,0.5,,,,,,,,,,,,,0,28,28,20,1,,,,,,,,,,,,,,,,,,,,,,,,,,,,
,,,,,WIN24_030,18,Female,2024-02-01_15h02.15.143,jersey_experiment_5,2023.2.2,Win32,85.47008547,,,,,,,,,,,,,,,,656.5348,658.335,658.335,659.4995,return,0.0941,,94.921875,,,,,,FBP-PT-18.png,0.45,1.2,55,1,,,,,,,,,,,,,0,29,29,54,1,,,,,,,,,,,,,,,,,,,,,,,,,,,,
,,,,,WIN24_030,18,Female,2024-02-01_15h02.15.143,jersey_experiment_5,2023.2.2,Win32,85.47008547,,,,,,,,,,,,,,,,659.4997,660.7936,660.7937,661.6878,return,0.2002,,94.40104167,,,,,,FBP-YG-71.png,0.43,1.2,34,0.5,,,,,,,,,,,,,0,30,30,33,1,,,,,,,,,,,,,,,,,,,,,,,,,,,,
,,,,,WIN24_030,18,Female,2024-02-01_15h02.15.143,jersey_experiment_5,2023.2.2,Win32,85.47008547,,,,,,,,,,,,,,,,661.6879,663.488,663.4881,664.6526,return,0.2924,,75.13020833,,,,,,FBP-OG-71.png,0.4,1.2,3,1,,,,,,,,,,,,,0,31,31,2,1,,,,,,,,,,,,,,,,,,,,,,,,,,,,
,,,,,WIN24_030,18,Female,2024-02-01_15h02.15.143,jersey_experiment_5,2023.2.2,Win32,85.47008547,,,,,,,,,,,,,,,,664.6528,666.4527,666.4528,667.3233,return,0.1878,,96.74479167,,,,,,FBP-PT-18.png,0.43,1.2,54,1,,,,,,,,,,,,,0,32,32,53,1,,,,,,,,,,,,,,,,,,,,,,,,,,,,
,,,,,WIN24_030,18,Female,2024-02-01_15h02.15.143,jersey_experiment_5,2023.2.2,Win32,85.47008547,,,,,,,,,,,,,,,,667.3235,668.6176,668.6176,669.8293,return,0.2638,,28.38541667,,,,,,FBP-YG-71.png,0.37,1.2,32,0.5,,,,,,,,,,,,,0,33,33,31,1,,,,,,,,,,,,,,,,,,,,,,,,,,,,
,,,,,WIN24_030,18,Female,2024-02-01_15h02.15.143,jersey_experiment_5,2023.2.2,Win32,85.47008547,,,,,,,,,,,,,,,,669.8295,671.1233,671.1234,672.3941,return,0.2825,,94.921875,,,,,,FBP-RB-19.png,0.43,1.2,29,0.5,,,,,,,,,,,,,0,34,34,28,1,,,,,,,,,,,,,,,,,,,,,,,,,,,,
,,,,,WIN24_030,18,Female,2024-02-01_15h02.15.143,jersey_experiment_5,2023.2.2,Win32,85.47008547,,,,,,,,,,,,,,,,672.3943,673.6883,673.6883,674.7236,return,0.2047,,99.609375,,,,,,FBP-RB-19.png,0.45,1.2,30,0.5,,,,,,,,,,,,,0,35,35,29,1,,,,,,,,,,,,,,,,,,,,,,,,,,,,
,,,,,WIN24_030,18,Female,2024-02-01_15h02.15.143,jersey_experiment_5,2023.2.2,Win32,85.47008547,,,,,,,,,,,,,,,,674.7238,676.0178,676.0178,677.0296,return,0.2035,,99.47916667,,,,,,FBP-RB-18.png,0.43,1.2,24,0.5,,,,,,,,,,,,,0,36,36,23,1,,,,,,,,,,,,,,,,,,,,,,,,,,,,
,,,,,WIN24_030,18,Female,2024-02-01_15h02.15.143,jersey_experiment_5,2023.2.2,Win32,85.47008547,,,,,,,,,,,,,,,,677.0298,678.8298,678.8298,679.8767,return,0.1941,,26.82291667,,,,,,FBP-PT-17.png,0.37,1.2,47,1,,,,,,,,,,,,,0,37,37,46,1,,,,,,,,,,,,,,,,,,,,,,,,,,,,
,,,,,WIN24_030,18,Female,2024-02-01_15h02.15.143,jersey_experiment_5,2023.2.2,Win32,85.47008547,,,,,,,,,,,,,,,,679.8769,681.6769,681.6769,682.5475,return,0.24,,5.989583333,,,,,,FBP-OG-91.png,0.35,1.2,11,1,,,,,,,,,,,,,0,38,38,10,1,,,,,,,,,,,,,,,,,,,,,,,,,,,,
,,,,,WIN24_030,18,Female,2024-02-01_15h02.15.143,jersey_experiment_5,2023.2.2,Win32,85.47008547,,,,,,,,,,,,,,,,682.5477,683.8416,683.8416,684.7594,return,0.1323,,1.5625,,,,,,FBP-RB-19.png,0.35,1.2,26,0.5,,,,,,,,,,,,,0,39,39,25,1,,,,,,,,,,,,,,,,,,,,,,,,,,,,
,,,,,WIN24_030,18,Female,2024-02-01_15h02.15.143,jersey_experiment_5,2023.2.2,Win32,85.47008547,,,,,,,,,,,,,,,,684.7596,686.0535,686.0535,687.1474,return,0.2689,,3.90625,,,,,,FBP-YG-81.png,0.37,1.2,37,0.5,,,,,,,,,,,,,0,40,40,36,1,,,,,,,,,,,,,,,,,,,,,,,,,,,,
,,,,,WIN24_030,18,Female,2024-02-01_15h02.15.143,jersey_experiment_5,2023.2.2,Win32,85.47008547,,,,,,,,,,,,,,,,687.1477,688.9478,688.9479,690.2299,return,0.2865,,70.57291667,,,,,,FBP-OG-91.png,0.4,1.2,13,1,,,,,,,,,,,,,0,41,41,12,1,,,,,,,,,,,,,,,,,,,,,,,,,,,,
,,,,,WIN24_030,18,Female,2024-02-01_15h02.15.143,jersey_experiment_5,2023.2.2,Win32,85.47008547,,,,,,,,,,,,,,,,690.2301,691.5243,691.5243,692.6419,return,0.1376,,22.00520833,,,,,,FBP-YG-81.png,0.35,1.2,36,0.5,,,,,,,,,,,,,0,42,42,35,1,,,,,,,,,,,,,,,,,,,,,,,,,,,,
,,,,,WIN24_030,18,Female,2024-02-01_15h02.15.143,jersey_experiment_5,2023.2.2,Win32,85.47008547,,,,,,,,,,,,,,,,692.6422,693.9361,693.9361,695.5127,return,0.2824,,77.08333333,,,,,,FBP-YG-71.png,0.4,1.2,33,0.5,,,,,,,,,,,,,0,43,43,32,1,,,,,,,,,,,,,,,,,,,,,,,,,,,,
,,,,,WIN24_030,18,Female,2024-02-01_15h02.15.143,jersey_experiment_5,2023.2.2,Win32,85.47008547,,,,,,,,,,,,,,,,695.513,696.8069,696.8069,698.0186,return,0.2764,,25.91145833,,,,,,FBP-YG-91.png,0.35,1.2,41,0.5,,,,,,,,,,,,,0,44,44,40,1,,,,,,,,,,,,,,,,,,,,,,,,,,,,
,,,,,WIN24_030,18,Female,2024-02-01_15h02.15.143,jersey_experiment_5,2023.2.2,Win32,85.47008547,,,,,,,,,,,,,,,,698.0189,699.3128,699.3128,700.6776,return,0.2635,,99.34895833,,,,,,FBP-RB-18.png,0.45,1.2,25,0.5,,,,,,,,,,,,,0,45,45,24,1,,,,,,,,,,,,,,,,,,,,,,,,,,,,
,,,,,WIN24_030,18,Female,2024-02-01_15h02.15.143,jersey_experiment_5,2023.2.2,Win32,85.47008547,,,,,,,,,,,,,,,,700.6777,701.9717,701.9717,703.0658,return,0.2592,,79.94791667,,,,,,FBP-RB-17.png,0.4,1.2,18,0.5,,,,,,,,,,,,,0,46,46,17,1,,,,,,,,,,,,,,,,,,,,,,,,,,,,
,,,,,WIN24_030,18,Female,2024-02-01_15h02.15.143,jersey_experiment_5,2023.2.2,Win32,85.47008547,,,,,,,,,,,,,,,,703.066,704.8659,704.8659,705.6543,return,0.251,,89.97395833,,,,,,FBP-OG-71.png,0.43,1.2,4,1,,,,,,,,,,,,,0,47,47,3,1,,,,,,,,,,,,,,,,,,,,,,,,,,,,
,,,,,WIN24_030,18,Female,2024-02-01_15h02.15.143,jersey_experiment_5,2023.2.2,Win32,85.47008547,,,,,,,,,,,,,,,,705.6546,707.4542,707.4542,709.0778,return,0.4278,,27.21354167,,,,,,FBP-OG-71.png,0.37,1.2,2,1,,,,,,,,,,,,,0,48,48,1,1,,,,,,,,,,,,,,,,,,,,,,,,,,,,
,,,,,WIN24_030,18,Female,2024-02-01_15h02.15.143,jersey_experiment_5,2023.2.2,Win32,85.47008547,,,,,,,,,,,,,,,,709.0781,710.8779,710.8779,712.0661,return,0.3946,,21.61458333,,,,,,FBP-PT-19.png,0.35,1.2,56,1,,,,,,,,,,,,,0,49,49,55,1,,,,,,,,,,,,,,,,,,,,,,,,,,,,
,,,,,WIN24_030,18,Female,2024-02-01_15h02.15.143,jersey_experiment_5,2023.2.2,Win32,85.47008547,,,,,,,,,,,,,,,,712.0663,713.8663,713.8663,714.9016,return,0.2519,,95.3125,,,,,,FBP-PT-17.png,0.45,1.2,50,1,,,,,,,,,,,,,0,50,50,49,1,,,,,,,,,,,,,,,,,,,,,,,,,,,,
,,,,,WIN24_030,18,Female,2024-02-01_15h02.15.143,jersey_experiment_5,2023.2.2,Win32,85.47008547,,,,,,,,,,,,,,,,714.9018,716.7015,716.7016,717.6429,return,0.2823,,29.55729167,,,,,,FBP-OG-81.png,0.35,1.2,6,1,,,,,,,,,,,,,0,51,51,5,1,,,,,,,,,,,,,,,,,,,,,,,,,,,,
,,,,,WIN24_030,18,Female,2024-02-01_15h02.15.143,jersey_experiment_5,2023.2.2,Win32,85.47008547,,,,,,,,,,,,,,,,717.6431,719.443,719.443,720.643,return,0.4427,,96.22395833,,,,,,FBP-OG-91.png,0.45,1.2,15,1,,,,,,,,,,,,,0,52,52,14,1,,,,,,,,,,,,,,,,,,,,,,,,,,,,
,,,,,WIN24_030,18,Female,2024-02-01_15h02.15.143,jersey_experiment_5,2023.2.2,Win32,85.47008547,,,,,,,,,,,,,,,,720.6432,721.9371,721.9371,723.0313,return,0.3891,,96.35416667,,,,,,FBP-YG-71.png,0.45,1.2,35,0.5,,,,,,,,,,,,,0,53,53,34,1,,,,,,,,,,,,,,,,,,,,,,,,,,,,
,,,,,WIN24_030,18,Female,2024-02-01_15h02.15.143,jersey_experiment_5,2023.2.2,Win32,85.47008547,,,,,,,,,,,,,,,,723.0314,724.8314,724.8314,725.8197,return,0.3067,,92.44791667,,,,,,FBP-OG-71.png,0.45,1.2,5,1,,,,,,,,,,,,,0,54,54,4,1,,,,,,,,,,,,,,,,,,,,,,,,,,,,
,,,,,WIN24_030,18,Female,2024-02-01_15h02.15.143,jersey_experiment_5,2023.2.2,Win32,85.47008547,,,,,,,,,,,,,,,,725.8199,727.1138,727.1138,728.7256,return,0.3208,,97.65625,,,,,,FBP-RB-17.png,0.45,1.2,20,0.5,,,,,,,,,,,,,0,55,55,19,1,,,,,,,,,,,,,,,,,,,,,,,,,,,,
,,,,,WIN24_030,18,Female,2024-02-01_15h02.15.143,jersey_experiment_5,2023.2.2,Win32,85.47008547,,,,,,,,,,,,,,,,728.7259,730.0198,730.0198,731.8434,return,1.0871,,98.046875,,,,,,FBP-RB-17.png,0.43,1.2,19,0.5,,,,,,,,,,,,,0,56,56,18,1,,,,,,,,,,,,,,,,,,,,,,,,,,,,
,,,,,WIN24_030,18,Female,2024-02-01_15h02.15.143,jersey_experiment_5,2023.2.2,Win32,85.47008547,,,,,,,,,,,,,,,,731.8436,733.6436,733.6436,734.9729,return,0.2485,,20.96354167,,,,,,FBP-PT-18.png,0.35,1.2,51,1,,,,,,,,,,,,,0,57,57,50,1,,,,,,,,,,,,,,,,,,,,,,,,,,,,
,,,,,WIN24_030,18,Female,2024-02-01_15h02.15.143,jersey_experiment_5,2023.2.2,Win32,85.47008547,,,,,,,,,,,,,,,,734.9732,736.2673,736.2673,737.4201,return,0.3199,,18.22916667,,,,,,FBP-YG-71.png,0.35,1.2,31,0.5,,,,,,,,,,,,,0,58,58,30,1,,,,,,,,,,,,,,,,,,,,,,,,,,,,
,,,,,WIN24_030,18,Female,2024-02-01_15h02.15.143,jersey_experiment_5,2023.2.2,Win32,85.47008547,,,,,,,,,,,,,,,,737.4205,738.7143,738.7143,739.9261,return,0.2256,,81.25,,,,,,FBP-YG-91.png,0.43,1.2,44,0.5,,,,,,,,,,,,,0,59,59,43,1,,,,,,,,,,,,,,,,,,,,,,,,,,,,
,,,,,WIN24_030,18,Female,2024-02-01_15h02.15.143,jersey_experiment_5,2023.2.2,Win32,85.47008547,,,,,,,,,,,,,,,,739.9273,741.2203,741.2203,742.2791,return,0.2015,,21.22395833,,,,,,FBP-YG-17.png,0.35,1.2,31,0.5,,,,,,,,,,,,,,,,,,0,0,0,30,1,,,,,,,,,,,,,,,,,,,,,,,
,,,,,WIN24_030,18,Female,2024-02-01_15h02.15.143,jersey_experiment_5,2023.2.2,Win32,85.47008547,,,,,,,,,,,,,,,,742.2793,744.0792,744.0792,745.0321,return,0.2471,,21.22395833,,,,,,FBP-OG-19.png,0.37,1.2,12,1,,,,,,,,,,,,,,,,,,0,1,1,11,1,,,,,,,,,,,,,,,,,,,,,,,
,,,,,WIN24_030,18,Female,2024-02-01_15h02.15.143,jersey_experiment_5,2023.2.2,Win32,85.47008547,,,,,,,,,,,,,,,,745.0323,746.8324,746.8324,747.8793,return,0.2246,,73.30729167,,,,,,FBP-OG-17.png,0.45,1.2,5,1,,,,,,,,,,,,,,,,,,0,2,2,4,1,,,,,,,,,,,,,,,,,,,,,,,
,,,,,WIN24_030,18,Female,2024-02-01_15h02.15.143,jersey_experiment_5,2023.2.2,Win32,85.47008547,,,,,,,,,,,,,,,,747.8795,749.1735,749.1735,750.4675,return,0.2416,,95.44270833,,,,,,FBP-RB-81.png,0.43,1.2,24,0.5,,,,,,,,,,,,,,,,,,0,3,3,23,1,,,,,,,,,,,,,,,,,,,,,,,
,,,,,WIN24_030,18,Female,2024-02-01_15h02.15.143,jersey_experiment_5,2023.2.2,Win32,85.47008547,,,,,,,,,,,,,,,,750.4677,751.7618,751.7618,752.9617,return,0.1593,,27.47395833,,,,,,FBP-YG-17.png,0.37,1.2,32,0.5,,,,,,,,,,,,,,,,,,0,4,4,31,1,,,,,,,,,,,,,,,,,,,,,,,
,,,,,WIN24_030,18,Female,2024-02-01_15h02.15.143,jersey_experiment_5,2023.2.2,Win32,85.47008547,,,,,,,,,,,,,,,,752.9619,754.2559,754.2559,755.2677,return,0.2183,,32.03125,,,,,,FBP-RB-81.png,0.37,1.2,22,0.5,,,,,,,,,,,,,,,,,,0,5,5,21,1,,,,,,,,,,,,,,,,,,,,,,,
,,,,,WIN24_030,18,Female,2024-02-01_15h02.15.143,jersey_experiment_5,2023.2.2,Win32,85.47008547,,,,,,,,,,,,,,,,755.2678,757.0679,757.0679,757.9266,return,0.3334,,32.03125,,,,,,FBP-OG-17.png,0.37,1.2,2,1,,,,,,,,,,,,,,,,,,0,6,6,1,1,,,,,,,,,,,,,,,,,,,,,,,
,,,,,WIN24_030,18,Female,2024-02-01_15h02.15.143,jersey_experiment_5,2023.2.2,Win32,85.47008547,,,,,,,,,,,,,,,,757.9268,759.727,759.7271,760.9857,return,0.3532,,85.67708333,,,,,,FBP-OG-19.png,0.43,1.2,14,1,,,,,,,,,,,,,,,,,,0,7,7,13,1,,,,,,,,,,,,,,,,,,,,,,,
,,,,,WIN24_030,18,Female,2024-02-01_15h02.15.143,jersey_experiment_5,2023.2.2,Win32,85.47008547,,,,,,,,,,,,,,,,760.9859,762.786,762.786,763.6446,return,0.2354,,27.734375,,,,,,FBP-OG-18.png,0.37,1.2,7,1,,,,,,,,,,,,,,,,,,0,8,8,6,1,,,,,,,,,,,,,,,,,,,,,,,
,,,,,WIN24_030,18,Female,2024-02-01_15h02.15.143,jersey_experiment_5,2023.2.2,Win32,85.47008547,,,,,,,,,,,,,,,,763.6448,765.4448,765.4449,766.6092,return,0.2203,,65.49479167,,,,,,FBP-OG-18.png,0.4,1.2,8,1,,,,,,,,,,,,,,,,,,0,9,9,7,1,,,,,,,,,,,,,,,,,,,,,,,
,,,,,WIN24_030,18,Female,2024-02-01_15h02.15.143,jersey_experiment_5,2023.2.2,Win32,85.47008547,,,,,,,,,,,,,,,,766.6094,767.9035,767.9035,769.186,return,0.2888,,27.21354167,,,,,,FBP-RB-71.png,0.35,1.2,16,0.5,,,,,,,,,,,,,,,,,,0,10,10,15,1,,,,,,,,,,,,,,,,,,,,,,,
,,,,,WIN24_030,18,Female,2024-02-01_15h02.15.143,jersey_experiment_5,2023.2.2,Win32,85.47008547,,,,,,,,,,,,,,,,769.1861,770.9861,770.9862,771.9743,return,0.263,,91.27604167,,,,,,FBP-PT-81.png,0.43,1.2,54,1,,,,,,,,,,,,,,,,,,0,11,11,53,1,,,,,,,,,,,,,,,,,,,,,,,
,,,,,WIN24_030,18,Female,2024-02-01_15h02.15.143,jersey_experiment_5,2023.2.2,Win32,85.47008547,,,,,,,,,,,,,,,,771.9745,773.7745,773.7745,774.6332,return,0.2363,,28.38541667,,,,,,FBP-PT-91.png,0.37,1.2,57,1,,,,,,,,,,,,,,,,,,0,12,12,56,1,,,,,,,,,,,,,,,,,,,,,,,
,,,,,WIN24_030,18,Female,2024-02-01_15h02.15.143,jersey_experiment_5,2023.2.2,Win32,85.47008547,,,,,,,,,,,,,,,,774.6334,776.4334,776.4334,777.4688,return,0.1787,,95.05208333,,,,,,FBP-PT-91.png,0.45,1.2,60,1,,,,,,,,,,,,,,,,,,0,13,13,59,1,,,,,,,,,,,,,,,,,,,,,,,
,,,,,WIN24_030,18,Female,2024-02-01_15h02.15.143,jersey_experiment_5,2023.2.2,Win32,85.47008547,,,,,,,,,,,,,,,,777.469,778.763,778.763,780.0217,return,0.2726,,28.25520833,,,,,,FBP-YG-18.png,0.35,1.2,36,0.5,,,,,,,,,,,,,,,,,,0,14,14,35,1,,,,,,,,,,,,,,,,,,,,,,,
,,,,,WIN24_030,18,Female,2024-02-01_15h02.15.143,jersey_experiment_5,2023.2.2,Win32,85.47008547,,,,,,,,,,,,,,,,780.0219,781.3158,781.3158,782.8924,return,0.2923,,90.75520833,,,,,,FBP-YG-19.png,0.43,1.2,44,0.5,,,,,,,,,,,,,,,,,,0,15,15,43,1,,,,,,,,,,,,,,,,,,,,,,,
,,,,,WIN24_030,18,Female,2024-02-01_15h02.15.143,jersey_experiment_5,2023.2.2,Win32,85.47008547,,,,,,,,,,,,,,,,782.8925,784.6926,784.6927,785.716,return,0.3698,,96.484375,,,,,,FBP-PT-71.png,0.45,1.2,50,1,,,,,,,,,,,,,,,,,,0,16,16,49,1,,,,,,,,,,,,,,,,,,,,,,,
,,,,,WIN24_030,18,Female,2024-02-01_15h02.15.143,jersey_experiment_5,2023.2.2,Win32,85.47008547,,,,,,,,,,,,,,,,785.7162,787.0101,787.0102,788.1632,return,0.3369,,94.40104167,,,,,,FBP-YG-17.png,0.43,1.2,34,0.5,,,,,,,,,,,,,,,,,,0,17,17,33,1,,,,,,,,,,,,,,,,,,,,,,,
,,,,,WIN24_030,18,Female,2024-02-01_15h02.15.143,jersey_experiment_5,2023.2.2,Win32,85.47008547,,,,,,,,,,,,,,,,788.1634,789.4574,789.4574,791.4103,return,1.2178,,98.95833333,,,,,,FBP-RB-81.png,0.45,1.2,25,0.5,,,,,,,,,,,,,,,,,,0,18,18,24,1,,,,,,,,,,,,,,,,,,,,,,,
,,,,,WIN24_030,18,Female,2024-02-01_15h02.15.143,jersey_experiment_5,2023.2.2,Win32,85.47008547,,,,,,,,,,,,,,,,791.4106,792.7046,792.7046,794.3634,return,0.3201,,89.0625,,,,,,FBP-YG-18.png,0.43,1.2,39,0.5,,,,,,,,,,,,,,,,,,0,19,19,38,1,,,,,,,,,,,,,,,,,,,,,,,
,,,,,WIN24_030,18,Female,2024-02-01_15h02.15.143,jersey_experiment_5,2023.2.2,Win32,85.47008547,,,,,,,,,,,,,,,,794.3636,795.6576,795.6577,796.9635,return,0.2989,,27.60416667,,,,,,FBP-RB-71.png,0.37,1.2,17,0.5,,,,,,,,,,,,,,,,,,0,20,20,16,1,,,,,,,,,,,,,,,,,,,,,,,
,,,,,WIN24_030,18,Female,2024-02-01_15h02.15.143,jersey_experiment_5,2023.2.2,Win32,85.47008547,,,,,,,,,,,,,,,,796.9637,798.2576,798.2577,799.6695,return,0.1697,,97.265625,,,,,,FBP-RB-91.png,0.43,1.2,29,0.5,,,,,,,,,,,,,,,,,,0,21,21,28,1,,,,,,,,,,,,,,,,,,,,,,,
,,,,,WIN24_030,18,Female,2024-02-01_15h02.15.143,jersey_experiment_5,2023.2.2,Win32,85.47008547,,,,,,,,,,,,,,,,799.6698,801.4696,801.4697,802.9403,return,0.2353,,67.05729167,,,,,,FBP-PT-81.png,0.4,1.2,53,1,,,,,,,,,,,,,,,,,,0,22,22,52,1,,,,,,,,,,,,,,,,,,,,,,,
,,,,,WIN24_030,18,Female,2024-02-01_15h02.15.143,jersey_experiment_5,2023.2.2,Win32,85.47008547,,,,,,,,,,,,,,,,802.9404,804.2343,804.2344,805.7873,return,0.2353,,96.22395833,,,,,,FBP-YG-18.png,0.45,1.2,40,0.5,,,,,,,,,,,,,,,,,,0,23,23,39,1,,,,,,,,,,,,,,,,,,,,,,,
,,,,,WIN24_030,18,Female,2024-02-01_15h02.15.143,jersey_experiment_5,2023.2.2,Win32,85.47008547,,,,,,,,,,,,,,,,805.7875,807.5875,807.5875,808.6816,return,0.2123,,69.27083333,,,,,,FBP-OG-17.png,0.4,1.2,3,1,,,,,,,,,,,,,,,,,,0,24,24,2,1,,,,,,,,,,,,,,,,,,,,,,,
,,,,,WIN24_030,18,Female,2024-02-01_15h02.15.143,jersey_experiment_5,2023.2.2,Win32,85.47008547,,,,,,,,,,,,,,,,808.6819,809.9759,809.9759,811.1641,return,0.2726,,25.13020833,,,,,,FBP-YG-19.png,0.35,1.2,41,0.5,,,,,,,,,,,,,,,,,,0,25,25,40,1,,,,,,,,,,,,,,,,,,,,,,,
,,,,,WIN24_030,18,Female,2024-02-01_15h02.15.143,jersey_experiment_5,2023.2.2,Win32,85.47008547,,,,,,,,,,,,,,,,811.1643,812.9641,812.9641,814.0113,return,0.2493,,22.52604167,,,,,,FBP-PT-91.png,0.35,1.2,56,1,,,,,,,,,,,,,,,,,,0,26,26,55,1,,,,,,,,,,,,,,,,,,,,,,,
,,,,,WIN24_030,18,Female,2024-02-01_15h02.15.143,jersey_experiment_5,2023.2.2,Win32,85.47008547,,,,,,,,,,,,,,,,814.0115,815.3055,815.3055,816.5996,return,0.2495,,98.56770833,,,,,,FBP-RB-91.png,0.45,1.2,30,0.5,,,,,,,,,,,,,,,,,,0,27,27,29,1,,,,,,,,,,,,,,,,,,,,,,,
,,,,,WIN24_030,18,Female,2024-02-01_15h02.15.143,jersey_experiment_5,2023.2.2,Win32,85.47008547,,,,,,,,,,,,,,,,816.5998,818.3996,818.3996,819.3997,return,0.226,,66.53645833,,,,,,FBP-PT-71.png,0.37,1.2,47,1,,,,,,,,,,,,,,,,,,0,28,28,46,1,,,,,,,,,,,,,,,,,,,,,,,
,,,,,WIN24_030,18,Female,2024-02-01_15h02.15.143,jersey_experiment_5,2023.2.2,Win32,85.47008547,,,,,,,,,,,,,,,,819.3999,820.6938,820.6939,821.8939,return,0.473,,66.53645833,,,,,,FBP-YG-18.png,0.37,1.2,37,0.5,,,,,,,,,,,,,,,,,,0,29,29,36,1,,,,,,,,,,,,,,,,,,,,,,,
,,,,,WIN24_030,18,Female,2024-02-01_15h02.15.143,jersey_experiment_5,2023.2.2,Win32,85.47008547,,,,,,,,,,,,,,,,821.8942,823.1882,823.1882,824.4352,return,0.2175,,66.796875,,,,,,FBP-YG-19.png,0.4,1.2,43,0.5,,,,,,,,,,,,,,,,,,0,30,30,42,1,,,,,,,,,,,,,,,,,,,,,,,
,,,,,WIN24_030,18,Female,2024-02-01_15h02.15.143,jersey_experiment_5,2023.2.2,Win32,85.47008547,,,,,,,,,,,,,,,,824.4355,825.7294,825.7294,827.0472,return,0.355,,94.53125,,,,,,FBP-YG-17.png,0.45,1.2,35,0.5,,,,,,,,,,,,,,,,,,0,31,31,34,1,,,,,,,,,,,,,,,,,,,,,,,
,,,,,WIN24_030,18,Female,2024-02-01_15h02.15.143,jersey_experiment_5,2023.2.2,Win32,85.47008547,,,,,,,,,,,,,,,,827.0474,828.8471,828.8471,829.8824,return,0.3298,,94.140625,,,,,,FBP-OG-19.png,0.45,1.2,15,1,,,,,,,,,,,,,,,,,,0,32,32,14,1,,,,,,,,,,,,,,,,,,,,,,,
,,,,,WIN24_030,18,Female,2024-02-01_15h02.15.143,jersey_experiment_5,2023.2.2,Win32,85.47008547,,,,,,,,,,,,,,,,829.8825,831.6825,831.6825,833.259,return,0.2248,,75,,,,,,FBP-PT-71.png,0.4,1.2,48,1,,,,,,,,,,,,,,,,,,0,33,33,47,1,,,,,,,,,,,,,,,,,,,,,,,
,,,,,WIN24_030,18,Female,2024-02-01_15h02.15.143,jersey_experiment_5,2023.2.2,Win32,85.47008547,,,,,,,,,,,,,,,,833.2592,834.5531,834.5532,835.9768,return,0.4348,,65.49479167,,,,,,FBP-RB-91.png,0.37,1.2,27,0.5,,,,,,,,,,,,,,,,,,0,34,34,26,1,,,,,,,,,,,,,,,,,,,,,,,
,,,,,WIN24_030,18,Female,2024-02-01_15h02.15.143,jersey_experiment_5,2023.2.2,Win32,85.47008547,,,,,,,,,,,,,,,,835.977,837.7767,837.7768,838.9534,return,0.2826,,21.74479167,,,,,,FBP-OG-17.png,0.35,1.2,1,1,,,,,,,,,,,,,,,,,,0,35,35,0,1,,,,,,,,,,,,,,,,,,,,,,,
,,,,,WIN24_030,18,Female,2024-02-01_15h02.15.143,jersey_experiment_5,2023.2.2,Win32,85.47008547,,,,,,,,,,,,,,,,838.9536,840.7536,840.7536,842.0122,return,0.2591,,59.24479167,,,,,,FBP-OG-18.png,0.43,1.2,9,1,,,,,,,,,,,,,,,,,,0,36,36,8,1,,,,,,,,,,,,,,,,,,,,,,,
,,,,,WIN24_030,18,Female,2024-02-01_15h02.15.143,jersey_experiment_5,2023.2.2,Win32,85.47008547,,,,,,,,,,,,,,,,842.0125,843.8123,843.8123,844.7418,return,0.228,,39.58333333,,,,,,FBP-PT-81.png,0.35,1.2,51,1,,,,,,,,,,,,,,,,,,0,37,37,50,1,,,,,,,,,,,,,,,,,,,,,,,
,,,,,WIN24_030,18,Female,2024-02-01_15h02.15.143,jersey_experiment_5,2023.2.2,Win32,85.47008547,,,,,,,,,,,,,,,,844.742,846.5418,846.5418,847.9535,return,0.2908,,61.328125,,,,,,FBP-PT-71.png,0.43,1.2,49,1,,,,,,,,,,,,,,,,,,0,38,38,48,1,,,,,,,,,,,,,,,,,,,,,,,
,,,,,WIN24_030,18,Female,2024-02-01_15h02.15.143,jersey_experiment_5,2023.2.2,Win32,85.47008547,,,,,,,,,,,,,,,,847.9538,849.7538,849.7538,850.7536,return,0.2909,,28.77604167,,,,,,FBP-OG-18.png,0.35,1.2,6,1,,,,,,,,,,,,,,,,,,0,39,39,5,1,,,,,,,,,,,,,,,,,,,,,,,
,,,,,WIN24_030,18,Female,2024-02-01_15h02.15.143,jersey_experiment_5,2023.2.2,Win32,85.47008547,,,,,,,,,,,,,,,,850.7538,852.0479,852.048,853.095,return,0.2366,,20.96354167,,,,,,FBP-RB-81.png,0.35,1.2,21,0.5,,,,,,,,,,,,,,,,,,0,40,40,20,1,,,,,,,,,,,,,,,,,,,,,,,
,,,,,WIN24_030,18,Female,2024-02-01_15h02.15.143,jersey_experiment_5,2023.2.2,Win32,85.47008547,,,,,,,,,,,,,,,,853.0953,854.895,854.895,856.3775,return,0.2597,,70.703125,,,,,,FBP-OG-18.png,0.45,1.2,10,1,,,,,,,,,,,,,,,,,,0,41,41,9,1,,,,,,,,,,,,,,,,,,,,,,,
,,,,,WIN24_030,18,Female,2024-02-01_15h02.15.143,jersey_experiment_5,2023.2.2,Win32,85.47008547,,,,,,,,,,,,,,,,856.3777,857.6717,857.6717,858.6835,return,0.2587,,96.484375,,,,,,FBP-YG-19.png,0.45,1.2,45,0.5,,,,,,,,,,,,,,,,,,0,42,42,44,1,,,,,,,,,,,,,,,,,,,,,,,
,,,,,WIN24_030,18,Female,2024-02-01_15h02.15.143,jersey_experiment_5,2023.2.2,Win32,85.47008547,,,,,,,,,,,,,,,,858.6837,859.9776,859.9776,860.9541,return,0.2022,,63.93229167,,,,,,FBP-RB-81.png,0.4,1.2,23,0.5,,,,,,,,,,,,,,,,,,0,43,43,22,1,,,,,,,,,,,,,,,,,,,,,,,
,,,,,WIN24_030,18,Female,2024-02-01_15h02.15.143,jersey_experiment_5,2023.2.2,Win32,85.47008547,,,,,,,,,,,,,,,,860.9543,862.7542,862.7542,864.4131,return,0.5186,,40.88541667,,,,,,FBP-OG-19.png,0.35,1.2,11,1,,,,,,,,,,,,,,,,,,0,44,44,10,1,,,,,,,,,,,,,,,,,,,,,,,
,,,,,WIN24_030,18,Female,2024-02-01_15h02.15.143,jersey_experiment_5,2023.2.2,Win32,85.47008547,,,,,,,,,,,,,,,,864.4134,865.7073,865.7073,867.2839,return,0.2399,,73.56770833,,,,,,FBP-RB-91.png,0.4,1.2,28,0.5,,,,,,,,,,,,,,,,,,0,45,45,27,1,,,,,,,,,,,,,,,,,,,,,,,
,,,,,WIN24_030,18,Female,2024-02-01_15h02.15.143,jersey_experiment_5,2023.2.2,Win32,85.47008547,,,,,,,,,,,,,,,,867.2841,868.578,868.578,869.5545,return,0.2061,,95.18229167,,,,,,FBP-RB-71.png,0.45,1.2,20,0.5,,,,,,,,,,,,,,,,,,0,46,46,19,1,,,,,,,,,,,,,,,,,,,,,,,
,,,,,WIN24_030,18,Female,2024-02-01_15h02.15.143,jersey_experiment_5,2023.2.2,Win32,85.47008547,,,,,,,,,,,,,,,,869.5546,870.8486,870.8486,871.9428,return,0.1802,,65.625,,,,,,FBP-YG-19.png,0.37,1.2,42,0.5,,,,,,,,,,,,,,,,,,0,47,47,41,1,,,,,,,,,,,,,,,,,,,,,,,
,,,,,WIN24_030,18,Female,2024-02-01_15h02.15.143,jersey_experiment_5,2023.2.2,Win32,85.47008547,,,,,,,,,,,,,,,,871.9431,873.2372,873.2372,874.7313,return,0.2591,,74.609375,,,,,,FBP-YG-17.png,0.4,1.2,33,0.5,,,,,,,,,,,,,,,,,,0,48,48,32,1,,,,,,,,,,,,,,,,,,,,,,,
,,,,,WIN24_030,18,Female,2024-02-01_15h02.15.143,jersey_experiment_5,2023.2.2,Win32,85.47008547,,,,,,,,,,,,,,,,874.7314,876.5312,876.5313,877.3194,return,0.2479,,75.26041667,,,,,,FBP-OG-17.png,0.43,1.2,4,1,,,,,,,,,,,,,,,,,,0,49,49,3,1,,,,,,,,,,,,,,,,,,,,,,,
,,,,,WIN24_030,18,Female,2024-02-01_15h02.15.143,jersey_experiment_5,2023.2.2,Win32,85.47008547,,,,,,,,,,,,,,,,877.3197,879.1198,879.1198,879.9783,return,0.2355,,37.63020833,,,,,,FBP-PT-71.png,0.35,1.2,46,1,,,,,,,,,,,,,,,,,,0,50,50,45,1,,,,,,,,,,,,,,,,,,,,,,,
,,,,,WIN24_030,18,Female,2024-02-01_15h02.15.143,jersey_experiment_5,2023.2.2,Win32,85.47008547,,,,,,,,,,,,,,,,879.9784,881.7785,881.7785,883.8608,return,1.1681,,98.30729167,,,,,,FBP-PT-81.png,0.45,1.2,55,1,,,,,,,,,,,,,,,,,,0,51,51,54,1,,,,,,,,,,,,,,,,,,,,,,,
,,,,,WIN24_030,18,Female,2024-02-01_15h02.15.143,jersey_experiment_5,2023.2.2,Win32,85.47008547,,,,,,,,,,,,,,,,883.8611,885.661,885.661,886.6139,return,0.2025,,98.30729167,,,,,,FBP-PT-91.png,0.43,1.2,59,1,,,,,,,,,,,,,,,,,,0,52,52,58,1,,,,,,,,,,,,,,,,,,,,,,,
,,,,,WIN24_030,18,Female,2024-02-01_15h02.15.143,jersey_experiment_5,2023.2.2,Win32,85.47008547,,,,,,,,,,,,,,,,886.6141,887.9082,887.9082,889.0023,return,0.259,,73.56770833,,,,,,FBP-YG-18.png,0.4,1.2,38,0.5,,,,,,,,,,,,,,,,,,0,53,53,37,1,,,,,,,,,,,,,,,,,,,,,,,
,,,,,WIN24_030,18,Female,2024-02-01_15h02.15.143,jersey_experiment_5,2023.2.2,Win32,85.47008547,,,,,,,,,,,,,,,,889.0024,890.2965,890.2965,891.3199,return,0.1907,,98.828125,,,,,,FBP-RB-71.png,0.43,1.2,19,0.5,,,,,,,,,,,,,,,,,,0,54,54,18,1,,,,,,,,,,,,,,,,,,,,,,,
,,,,,WIN24_030,18,Female,2024-02-01_15h02.15.143,jersey_experiment_5,2023.2.2,Win32,85.47008547,,,,,,,,,,,,,,,,891.3202,893.1202,893.1203,894.3437,return,0.1887,,62.63020833,,,,,,FBP-PT-81.png,0.37,1.2,52,1,,,,,,,,,,,,,,,,,,0,55,55,51,1,,,,,,,,,,,,,,,,,,,,,,,
,,,,,WIN24_030,18,Female,2024-02-01_15h02.15.143,jersey_experiment_5,2023.2.2,Win32,85.47008547,,,,,,,,,,,,,,,,894.3439,895.6378,895.6378,896.5791,return,0.325,,62.63020833,,,,,,FBP-RB-91.png,0.35,1.2,26,0.5,,,,,,,,,,,,,,,,,,0,56,56,25,1,,,,,,,,,,,,,,,,,,,,,,,
,,,,,WIN24_030,18,Female,2024-02-01_15h02.15.143,jersey_experiment_5,2023.2.2,Win32,85.47008547,,,,,,,,,,,,,,,,896.5793,898.3791,898.3791,899.6851,return,0.2289,,76.04166667,,,,,,FBP-PT-91.png,0.4,1.2,58,1,,,,,,,,,,,,,,,,,,0,57,57,57,1,,,,,,,,,,,,,,,,,,,,,,,
,,,,,WIN24_030,18,Female,2024-02-01_15h02.15.143,jersey_experiment_5,2023.2.2,Win32,85.47008547,,,,,,,,,,,,,,,,899.6853,900.9792,900.9792,902.7439,return,0.955,,63.93229167,,,,,,FBP-RB-71.png,0.4,1.2,18,0.5,,,,,,,,,,,,,,,,,,0,58,58,17,1,,,,,,,,,,,,,,,,,,,,,,,
,,,,,WIN24_030,18,Female,2024-02-01_15h02.15.143,jersey_experiment_5,2023.2.2,Win32,85.47008547,,,,,,,,,,,,,,,,902.7442,904.544,904.5441,905.5087,return,0.392,,65.36458333,,,,,,FBP-OG-19.png,0.4,1.2,13,1,,,,,,,,,,,,,,,,,,0,59,59,12,1,,,,,,,,,,,,,,,,,,,,,,,
,,,,,WIN24_030,18,Female,2024-02-01_15h02.15.143,jersey_experiment_5,2023.2.2,Win32,85.47008547,,,,,,,,,,,,,,,,,,,,,,,,,,,,,,,,,,,,,,,,,,,,,,,,,,,,,,,,905.5092,909.4621,return,3.9428,,,,,,,,,,,,,,,,,,,
,,,,,WIN24_030,18,Female,2024-02-01_15h02.15.143,jersey_experiment_5,2023.2.2,Win32,85.47008547,,,,,,,,,,,,,,,,,,,,,,,,,,,,,,,,,,,,,,,,,,,,,,,,,,,,,,,,,,,,,909.4622,914.5208,1,4.2355,return,0.8012,,,,,,,,,,,,
,,,,,WIN24_030,18,Female,2024-02-01_15h02.15.143,jersey_experiment_5,2023.2.2,Win32,85.47008547,,,,,,,,,,,,,,,,,,,,,,,,,,,,,,,,,,,,,,,,,,,,,,,,,,,,,,,,,,,,,,,,,,,,914.5209,937.9501,Not really,right,8.4703,,,,,,
,,,,,WIN24_030,18,Female,2024-02-01_15h02.15.143,jersey_experiment_5,2023.2.2,Win32,85.47008547,,,,,,,,,,,,,,,,,,,,,,,,,,,,,,,,,,,,,,,,,,,,,,,,,,,,,,,,,,,,,,,,,,,,,,,,,,937.9502,942.4751,return,4.512,