requirements.started,requirements.stopped,key_resp_3.keys,key_resp_3.rt,key_resp_3.duration,Subject ID,Age,Gender,date,expName,psychopyVersion,OS,frameRate,instructions1.started,instructions1.stopped,key_resp.keys,key_resp.rt,key_resp.duration,example.started,example.stopped,enter_2.keys,enter_2.rt,enter_2.duration,instructions2.started,instructions2.stopped,enter_3.keys,enter_3.rt,enter_3.duration,image.started,image.stopped,slider_2.started,slider_2.stopped,next.keys,next.rt,next.duration,slider.response,trial_block_1.thisRepN,trial_block_1.thisTrialN,trial_block_1.thisN,trial_block_1.thisIndex,trial_block_1.ran,Path,Width,Height,Index,Duration,trial_block_2.thisRepN,trial_block_2.thisTrialN,trial_block_2.thisN,trial_block_2.thisIndex,trial_block_2.ran,rest_break.started,rest_break.stopped,end_break.started,end_break.stopped,key_resp_5.keys,key_resp_5.rt,key_resp_5.duration,trial_block_3.thisRepN,trial_block_3.thisTrialN,trial_block_3.thisN,trial_block_3.thisIndex,trial_block_3.ran,trial_block_4.thisRepN,trial_block_4.thisTrialN,trial_block_4.thisN,trial_block_4.thisIndex,trial_block_4.ran,questions_intro.started,questions_intro.stopped,enter_12.keys,enter_12.rt,enter_12.duration,question2.started,question2.stopped,question_doingbest.response,question_doingbest.rt,enter_15.keys,enter_15.rt,enter_15.duration,pattern.started,pattern.stopped,pattern_2.text,enter_17.keys,enter_17.rt,enter_17.duration,thankyou.started,thankyou.stopped,enter_14.keys,enter_14.rt,enter_14.duration
0.0001,14.648,return,14.6406,,WIN24_004,19,female,2024-01-25_13h04.42.269,jersey_experiment_5,2023.2.2,Win32,84.74576271,,,,,,,,,,,,,,,,,,,,,,,,,,,,,,,,,,,,,,,,,,,,,,,,,,,,,,,,,,,,,,,,,,,,,,,,,,,,,,
,,,,,WIN24_004,19,female,2024-01-25_13h04.42.269,jersey_experiment_5,2023.2.2,Win32,84.74576271,14.6482,23.2837,return,8.6189,,,,,,,,,,,,,,,,,,,,,,,,,,,,,,,,,,,,,,,,,,,,,,,,,,,,,,,,,,,,,,,,,,,,,,,,,,
,,,,,WIN24_004,19,female,2024-01-25_13h04.42.269,jersey_experiment_5,2023.2.2,Win32,84.74576271,,,,,,23.2838,31.8652,return,8.5475,,,,,,,,,,,,,,,,,,,,,,,,,,,,,,,,,,,,,,,,,,,,,,,,,,,,,,,,,,,,,,,,,,,,,
,,,,,WIN24_004,19,female,2024-01-25_13h04.42.269,jersey_experiment_5,2023.2.2,Win32,84.74576271,,,,,,,,,,,31.8653,71.8299,return,39.9545,,,,,,,,,,,,,,,,,,,,,,,,,,,,,,,,,,,,,,,,,,,,,,,,,,,,,,,,,,,,,,,,
,,,,,WIN24_004,19,female,2024-01-25_13h04.42.269,jersey_experiment_5,2023.2.2,Win32,84.74576271,,,,,,,,,,,,,,,,71.8367,73.6302,73.6303,102.5213,return,4.7321,,25.13020833,0,0,0,20,1,FBP-RB-18.png,0.35,1.2,21,1,,,,,,,,,,,,,,,,,,,,,,,,,,,,,,,,,,,,,,,,,,,,,
,,,,,WIN24_004,19,female,2024-01-25_13h04.42.269,jersey_experiment_5,2023.2.2,Win32,84.74576271,,,,,,,,,,,,,,,,102.527,103.8272,103.8272,108.8036,return,2.314,,79.296875,0,1,1,4,1,FBP-OG-71.png,0.45,1.2,5,0.5,,,,,,,,,,,,,,,,,,,,,,,,,,,,,,,,,,,,,,,,,,,,,
,,,,,WIN24_004,19,female,2024-01-25_13h04.42.269,jersey_experiment_5,2023.2.2,Win32,84.74576271,,,,,,,,,,,,,,,,108.8039,110.6039,110.604,115.804,return,3.2134,,50.52083333,0,2,2,31,1,FBP-YG-71.png,0.37,1.2,32,1,,,,,,,,,,,,,,,,,,,,,,,,,,,,,,,,,,,,,,,,,,,,,
,,,,,WIN24_004,19,female,2024-01-25_13h04.42.269,jersey_experiment_5,2023.2.2,Win32,84.74576271,,,,,,,,,,,,,,,,115.8044,117.6041,117.6041,122.1691,return,2.0366,,100,0,3,3,34,1,FBP-YG-71.png,0.45,1.2,35,1,,,,,,,,,,,,,,,,,,,,,,,,,,,,,,,,,,,,,,,,,,,,,
,,,,,WIN24_004,19,female,2024-01-25_13h04.42.269,jersey_experiment_5,2023.2.2,Win32,84.74576271,,,,,,,,,,,,,,,,122.1692,123.4632,123.4632,128.6163,return,2.7565,,87.5,0,4,4,49,1,FBP-PT-17.png,0.45,1.2,50,0.5,,,,,,,,,,,,,,,,,,,,,,,,,,,,,,,,,,,,,,,,,,,,,
,,,,,WIN24_004,19,female,2024-01-25_13h04.42.269,jersey_experiment_5,2023.2.2,Win32,84.74576271,,,,,,,,,,,,,,,,128.6165,130.4164,130.4164,134.3459,return,1.8596,,62.109375,0,5,5,17,1,FBP-RB-17.png,0.4,1.2,18,1,,,,,,,,,,,,,,,,,,,,,,,,,,,,,,,,,,,,,,,,,,,,,
,,,,,WIN24_004,19,female,2024-01-25_13h04.42.269,jersey_experiment_5,2023.2.2,Win32,84.74576271,,,,,,,,,,,,,,,,134.3461,136.1459,136.1459,138.7107,return,0.9697,,75.13020833,0,6,6,33,1,FBP-YG-71.png,0.43,1.2,34,1,,,,,,,,,,,,,,,,,,,,,,,,,,,,,,,,,,,,,,,,,,,,,
,,,,,WIN24_004,19,female,2024-01-25_13h04.42.269,jersey_experiment_5,2023.2.2,Win32,84.74576271,,,,,,,,,,,,,,,,138.711,140.0049,140.0049,143.4756,return,1.2203,,25.390625,0,7,7,6,1,FBP-OG-81.png,0.37,1.2,7,0.5,,,,,,,,,,,,,,,,,,,,,,,,,,,,,,,,,,,,,,,,,,,,,
,,,,,WIN24_004,19,female,2024-01-25_13h04.42.269,jersey_experiment_5,2023.2.2,Win32,84.74576271,,,,,,,,,,,,,,,,143.4758,145.2757,145.2757,147.4053,return,1.012,,8.723958333,0,8,8,35,1,FBP-YG-81.png,0.35,1.2,36,1,,,,,,,,,,,,,,,,,,,,,,,,,,,,,,,,,,,,,,,,,,,,,
,,,,,WIN24_004,19,female,2024-01-25_13h04.42.269,jersey_experiment_5,2023.2.2,Win32,84.74576271,,,,,,,,,,,,,,,,147.4054,148.6994,148.6994,151.9583,return,1.1693,,75,0,9,9,2,1,FBP-OG-71.png,0.4,1.2,3,0.5,,,,,,,,,,,,,,,,,,,,,,,,,,,,,,,,,,,,,,,,,,,,,
,,,,,WIN24_004,19,female,2024-01-25_13h04.42.269,jersey_experiment_5,2023.2.2,Win32,84.74576271,,,,,,,,,,,,,,,,151.9585,153.2524,153.2524,155.5113,return,0.6163,,79.42708333,0,10,10,53,1,FBP-PT-18.png,0.43,1.2,54,0.5,,,,,,,,,,,,,,,,,,,,,,,,,,,,,,,,,,,,,,,,,,,,,
,,,,,WIN24_004,19,female,2024-01-25_13h04.42.269,jersey_experiment_5,2023.2.2,Win32,84.74576271,,,,,,,,,,,,,,,,155.5116,156.8055,156.8055,160.4056,return,0.5579,,100,0,11,11,14,1,FBP-OG-91.png,0.45,1.2,15,0.5,,,,,,,,,,,,,,,,,,,,,,,,,,,,,,,,,,,,,,,,,,,,,
,,,,,WIN24_004,19,female,2024-01-25_13h04.42.269,jersey_experiment_5,2023.2.2,Win32,84.74576271,,,,,,,,,,,,,,,,160.4058,162.2058,162.2059,164.6058,return,0.6267,,25,0,12,12,16,1,FBP-RB-17.png,0.37,1.2,17,1,,,,,,,,,,,,,,,,,,,,,,,,,,,,,,,,,,,,,,,,,,,,,
,,,,,WIN24_004,19,female,2024-01-25_13h04.42.269,jersey_experiment_5,2023.2.2,Win32,84.74576271,,,,,,,,,,,,,,,,164.606,166.4058,166.4059,182.2536,return,2.9785,,0.520833333,0,13,13,25,1,FBP-RB-19.png,0.35,1.2,26,1,,,,,,,,,,,,,,,,,,,,,,,,,,,,,,,,,,,,,,,,,,,,,
,,,,,WIN24_004,19,female,2024-01-25_13h04.42.269,jersey_experiment_5,2023.2.2,Win32,84.74576271,,,,,,,,,,,,,,,,182.2538,184.0536,184.0536,187.1243,return,1.7372,,52.734375,0,14,14,27,1,FBP-RB-19.png,0.4,1.2,28,1,,,,,,,,,,,,,,,,,,,,,,,,,,,,,,,,,,,,,,,,,,,,,
,,,,,WIN24_004,19,female,2024-01-25_13h04.42.269,jersey_experiment_5,2023.2.2,Win32,84.74576271,,,,,,,,,,,,,,,,187.1246,188.4187,188.4188,190.4068,return,0.7215,,52.08333333,0,15,15,12,1,FBP-OG-91.png,0.4,1.2,13,0.5,,,,,,,,,,,,,,,,,,,,,,,,,,,,,,,,,,,,,,,,,,,,,
,,,,,WIN24_004,19,female,2024-01-25_13h04.42.269,jersey_experiment_5,2023.2.2,Win32,84.74576271,,,,,,,,,,,,,,,,190.407,192.2069,192.207,194.6775,return,0.9229,,75.13020833,0,16,16,37,1,FBP-YG-81.png,0.4,1.2,38,1,,,,,,,,,,,,,,,,,,,,,,,,,,,,,,,,,,,,,,,,,,,,,
,,,,,WIN24_004,19,female,2024-01-25_13h04.42.269,jersey_experiment_5,2023.2.2,Win32,84.74576271,,,,,,,,,,,,,,,,194.6777,195.9717,195.9717,198.7717,return,0.7966,,25.13020833,0,17,17,56,1,FBP-PT-19.png,0.37,1.2,57,0.5,,,,,,,,,,,,,,,,,,,,,,,,,,,,,,,,,,,,,,,,,,,,,
,,,,,WIN24_004,19,female,2024-01-25_13h04.42.269,jersey_experiment_5,2023.2.2,Win32,84.74576271,,,,,,,,,,,,,,,,198.7718,200.5719,200.5719,203.0307,return,0.7696,,99.34895833,0,18,18,18,1,FBP-RB-17.png,0.43,1.2,19,1,,,,,,,,,,,,,,,,,,,,,,,,,,,,,,,,,,,,,,,,,,,,,
,,,,,WIN24_004,19,female,2024-01-25_13h04.42.269,jersey_experiment_5,2023.2.2,Win32,84.74576271,,,,,,,,,,,,,,,,203.031,204.3249,204.3249,206.3132,return,0.5912,,99.34895833,0,19,19,8,1,FBP-OG-81.png,0.43,1.2,9,0.5,,,,,,,,,,,,,,,,,,,,,,,,,,,,,,,,,,,,,,,,,,,,,
,,,,,WIN24_004,19,female,2024-01-25_13h04.42.269,jersey_experiment_5,2023.2.2,Win32,84.74576271,,,,,,,,,,,,,,,,206.3135,207.6072,207.6072,209.8662,return,0.7312,,87.36979167,0,20,20,13,1,FBP-OG-91.png,0.43,1.2,14,0.5,,,,,,,,,,,,,,,,,,,,,,,,,,,,,,,,,,,,,,,,,,,,,
,,,,,WIN24_004,19,female,2024-01-25_13h04.42.269,jersey_experiment_5,2023.2.2,Win32,84.74576271,,,,,,,,,,,,,,,,209.8665,211.1604,211.1604,213.6192,return,0.6559,,0.130208333,0,21,21,10,1,FBP-OG-91.png,0.35,1.2,11,0.5,,,,,,,,,,,,,,,,,,,,,,,,,,,,,,,,,,,,,,,,,,,,,
,,,,,WIN24_004,19,female,2024-01-25_13h04.42.269,jersey_experiment_5,2023.2.2,Win32,84.74576271,,,,,,,,,,,,,,,,213.6195,215.4194,215.4194,217.1489,return,0.6138,,3.125,0,22,22,26,1,FBP-RB-19.png,0.37,1.2,27,1,,,,,,,,,,,,,,,,,,,,,,,,,,,,,,,,,,,,,,,,,,,,,
,,,,,WIN24_004,19,female,2024-01-25_13h04.42.269,jersey_experiment_5,2023.2.2,Win32,84.74576271,,,,,,,,,,,,,,,,217.1492,218.9488,218.9489,221.8313,return,0.6279,,25.13020833,0,23,23,36,1,FBP-YG-81.png,0.37,1.2,37,1,,,,,,,,,,,,,,,,,,,,,,,,,,,,,,,,,,,,,,,,,,,,,
,,,,,WIN24_004,19,female,2024-01-25_13h04.42.269,jersey_experiment_5,2023.2.2,Win32,84.74576271,,,,,,,,,,,,,,,,221.8315,223.6314,223.6315,225.4786,return,0.6292,,50,0,24,24,22,1,FBP-RB-18.png,0.4,1.2,23,1,,,,,,,,,,,,,,,,,,,,,,,,,,,,,,,,,,,,,,,,,,,,,
,,,,,WIN24_004,19,female,2024-01-25_13h04.42.269,jersey_experiment_5,2023.2.2,Win32,84.74576271,,,,,,,,,,,,,,,,225.4788,227.2787,227.2787,228.6199,return,0.5515,,96.35416667,0,25,25,44,1,FBP-YG-91.png,0.45,1.2,45,1,,,,,,,,,,,,,,,,,,,,,,,,,,,,,,,,,,,,,,,,,,,,,
,,,,,WIN24_004,19,female,2024-01-25_13h04.42.269,jersey_experiment_5,2023.2.2,Win32,84.74576271,,,,,,,,,,,,,,,,228.6201,230.4201,230.4202,232.5023,return,0.6645,,41.53645833,0,26,26,21,1,FBP-RB-18.png,0.37,1.2,22,1,,,,,,,,,,,,,,,,,,,,,,,,,,,,,,,,,,,,,,,,,,,,,
,,,,,WIN24_004,19,female,2024-01-25_13h04.42.269,jersey_experiment_5,2023.2.2,Win32,84.74576271,,,,,,,,,,,,,,,,232.5026,233.7965,233.7965,234.9729,return,0.6356,,41.53645833,0,27,27,52,1,FBP-PT-18.png,0.4,1.2,53,0.5,,,,,,,,,,,,,,,,,,,,,,,,,,,,,,,,,,,,,,,,,,,,,
,,,,,WIN24_004,19,female,2024-01-25_13h04.42.269,jersey_experiment_5,2023.2.2,Win32,84.74576271,,,,,,,,,,,,,,,,234.9732,236.2672,236.2672,238.4202,return,0.6184,,24.34895833,0,28,28,1,1,FBP-OG-71.png,0.37,1.2,2,0.5,,,,,,,,,,,,,,,,,,,,,,,,,,,,,,,,,,,,,,,,,,,,,
,,,,,WIN24_004,19,female,2024-01-25_13h04.42.269,jersey_experiment_5,2023.2.2,Win32,84.74576271,,,,,,,,,,,,,,,,238.4205,239.7144,239.7144,242.9027,return,1.9815,,17.96875,0,29,29,45,1,FBP-PT-17.png,0.35,1.2,46,0.5,,,,,,,,,,,,,,,,,,,,,,,,,,,,,,,,,,,,,,,,,,,,,
,,,,,WIN24_004,19,female,2024-01-25_13h04.42.269,jersey_experiment_5,2023.2.2,Win32,84.74576271,,,,,,,,,,,,,,,,242.9029,244.703,244.703,247.15,return,0.6843,,99.86979167,0,30,30,19,1,FBP-RB-17.png,0.45,1.2,20,1,,,,,,,,,,,,,,,,,,,,,,,,,,,,,,,,,,,,,,,,,,,,,
,,,,,WIN24_004,19,female,2024-01-25_13h04.42.269,jersey_experiment_5,2023.2.2,Win32,84.74576271,,,,,,,,,,,,,,,,247.1502,248.4441,248.4442,254.2443,return,1.5475,,49.86979167,0,31,31,7,1,FBP-OG-81.png,0.4,1.2,8,0.5,,,,,,,,,,,,,,,,,,,,,,,,,,,,,,,,,,,,,,,,,,,,,
,,,,,WIN24_004,19,female,2024-01-25_13h04.42.269,jersey_experiment_5,2023.2.2,Win32,84.74576271,,,,,,,,,,,,,,,,254.2445,256.0443,256.0444,259.0916,return,1.9613,,74.609375,0,32,32,23,1,FBP-RB-18.png,0.43,1.2,24,1,,,,,,,,,,,,,,,,,,,,,,,,,,,,,,,,,,,,,,,,,,,,,
,,,,,WIN24_004,19,female,2024-01-25_13h04.42.269,jersey_experiment_5,2023.2.2,Win32,84.74576271,,,,,,,,,,,,,,,,259.0918,260.3857,260.3857,264.7506,return,2.094,,99.21875,0,33,33,59,1,FBP-PT-19.png,0.45,1.2,60,0.5,,,,,,,,,,,,,,,,,,,,,,,,,,,,,,,,,,,,,,,,,,,,,
,,,,,WIN24_004,19,female,2024-01-25_13h04.42.269,jersey_experiment_5,2023.2.2,Win32,84.74576271,,,,,,,,,,,,,,,,264.7507,266.5505,266.5506,267.9272,return,0.6151,,99.21875,0,34,34,39,1,FBP-YG-81.png,0.45,1.2,40,1,,,,,,,,,,,,,,,,,,,,,,,,,,,,,,,,,,,,,,,,,,,,,
,,,,,WIN24_004,19,female,2024-01-25_13h04.42.269,jersey_experiment_5,2023.2.2,Win32,84.74576271,,,,,,,,,,,,,,,,267.9274,269.7272,269.7272,271.3861,return,0.6256,,99.34895833,0,35,35,32,1,FBP-YG-71.png,0.4,1.2,33,1,,,,,,,,,,,,,,,,,,,,,,,,,,,,,,,,,,,,,,,,,,,,,
,,,,,WIN24_004,19,female,2024-01-25_13h04.42.269,jersey_experiment_5,2023.2.2,Win32,84.74576271,,,,,,,,,,,,,,,,271.3864,272.6803,272.6803,274.7389,return,0.5734,,79.94791667,0,36,36,3,1,FBP-OG-71.png,0.43,1.2,4,0.5,,,,,,,,,,,,,,,,,,,,,,,,,,,,,,,,,,,,,,,,,,,,,
,,,,,WIN24_004,19,female,2024-01-25_13h04.42.269,jersey_experiment_5,2023.2.2,Win32,84.74576271,,,,,,,,,,,,,,,,274.7391,276.5393,276.5393,278.1864,return,0.7199,,99.73958333,0,37,37,29,1,FBP-RB-19.png,0.45,1.2,30,1,,,,,,,,,,,,,,,,,,,,,,,,,,,,,,,,,,,,,,,,,,,,,
,,,,,WIN24_004,19,female,2024-01-25_13h04.42.269,jersey_experiment_5,2023.2.2,Win32,84.74576271,,,,,,,,,,,,,,,,278.1866,279.4805,279.4805,281.3981,return,0.6503,,0.130208333,0,38,38,55,1,FBP-PT-19.png,0.35,1.2,56,0.5,,,,,,,,,,,,,,,,,,,,,,,,,,,,,,,,,,,,,,,,,,,,,
,,,,,WIN24_004,19,female,2024-01-25_13h04.42.269,jersey_experiment_5,2023.2.2,Win32,84.74576271,,,,,,,,,,,,,,,,281.3983,283.1985,283.1985,285.3984,return,0.6176,,76.30208333,0,39,39,24,1,FBP-RB-18.png,0.45,1.2,25,1,,,,,,,,,,,,,,,,,,,,,,,,,,,,,,,,,,,,,,,,,,,,,
,,,,,WIN24_004,19,female,2024-01-25_13h04.42.269,jersey_experiment_5,2023.2.2,Win32,84.74576271,,,,,,,,,,,,,,,,285.3986,286.6927,286.6927,288.5043,return,0.5918,,45.57291667,0,40,40,47,1,FBP-PT-17.png,0.4,1.2,48,0.5,,,,,,,,,,,,,,,,,,,,,,,,,,,,,,,,,,,,,,,,,,,,,
,,,,,WIN24_004,19,female,2024-01-25_13h04.42.269,jersey_experiment_5,2023.2.2,Win32,84.74576271,,,,,,,,,,,,,,,,288.5046,290.3044,290.3045,295.0338,return,0.6363,,49.34895833,0,41,41,43,1,FBP-YG-91.png,0.43,1.2,44,1,,,,,,,,,,,,,,,,,,,,,,,,,,,,,,,,,,,,,,,,,,,,,
,,,,,WIN24_004,19,female,2024-01-25_13h04.42.269,jersey_experiment_5,2023.2.2,Win32,84.74576271,,,,,,,,,,,,,,,,295.034,296.8341,296.8341,299.1282,return,0.6141,,0.651041667,0,42,42,30,1,FBP-YG-71.png,0.35,1.2,31,1,,,,,,,,,,,,,,,,,,,,,,,,,,,,,,,,,,,,,,,,,,,,,
,,,,,WIN24_004,19,female,2024-01-25_13h04.42.269,jersey_experiment_5,2023.2.2,Win32,84.74576271,,,,,,,,,,,,,,,,299.1284,300.4223,300.4223,301.5754,return,0.628,,0.651041667,0,43,43,51,1,FBP-PT-18.png,0.37,1.2,52,0.5,,,,,,,,,,,,,,,,,,,,,,,,,,,,,,,,,,,,,,,,,,,,,
,,,,,WIN24_004,19,female,2024-01-25_13h04.42.269,jersey_experiment_5,2023.2.2,Win32,84.74576271,,,,,,,,,,,,,,,,301.5757,302.8696,302.8696,304.9048,return,0.5544,,75.13020833,0,44,44,54,1,FBP-PT-18.png,0.45,1.2,55,0.5,,,,,,,,,,,,,,,,,,,,,,,,,,,,,,,,,,,,,,,,,,,,,
,,,,,WIN24_004,19,female,2024-01-25_13h04.42.269,jersey_experiment_5,2023.2.2,Win32,84.74576271,,,,,,,,,,,,,,,,304.905,306.1991,306.1991,308.6345,return,0.5647,,49.47916667,0,45,45,48,1,FBP-PT-17.png,0.43,1.2,49,0.5,,,,,,,,,,,,,,,,,,,,,,,,,,,,,,,,,,,,,,,,,,,,,
,,,,,WIN24_004,19,female,2024-01-25_13h04.42.269,jersey_experiment_5,2023.2.2,Win32,84.74576271,,,,,,,,,,,,,,,,308.6347,310.4345,310.4345,312.3758,return,0.6138,,24.73958333,0,46,46,42,1,FBP-YG-91.png,0.4,1.2,43,1,,,,,,,,,,,,,,,,,,,,,,,,,,,,,,,,,,,,,,,,,,,,,
,,,,,WIN24_004,19,female,2024-01-25_13h04.42.269,jersey_experiment_5,2023.2.2,Win32,84.74576271,,,,,,,,,,,,,,,,312.376,313.6699,313.67,316.1878,return,0.5886,,74.86979167,0,47,47,58,1,FBP-PT-19.png,0.43,1.2,59,0.5,,,,,,,,,,,,,,,,,,,,,,,,,,,,,,,,,,,,,,,,,,,,,
,,,,,WIN24_004,19,female,2024-01-25_13h04.42.269,jersey_experiment_5,2023.2.2,Win32,84.74576271,,,,,,,,,,,,,,,,316.188,317.4819,317.4819,320.635,return,0.5316,,25,0,48,48,5,1,FBP-OG-81.png,0.35,1.2,6,0.5,,,,,,,,,,,,,,,,,,,,,,,,,,,,,,,,,,,,,,,,,,,,,
,,,,,WIN24_004,19,female,2024-01-25_13h04.42.269,jersey_experiment_5,2023.2.2,Win32,84.74576271,,,,,,,,,,,,,,,,320.6352,322.435,322.435,324.1056,return,0.6009,,74.86979167,0,49,49,38,1,FBP-YG-81.png,0.43,1.2,39,1,,,,,,,,,,,,,,,,,,,,,,,,,,,,,,,,,,,,,,,,,,,,,
,,,,,WIN24_004,19,female,2024-01-25_13h04.42.269,jersey_experiment_5,2023.2.2,Win32,84.74576271,,,,,,,,,,,,,,,,324.1058,325.3997,325.3997,327.3176,return,0.6064,,24.73958333,0,50,50,46,1,FBP-PT-17.png,0.37,1.2,47,0.5,,,,,,,,,,,,,,,,,,,,,,,,,,,,,,,,,,,,,,,,,,,,,
,,,,,WIN24_004,19,female,2024-01-25_13h04.42.269,jersey_experiment_5,2023.2.2,Win32,84.74576271,,,,,,,,,,,,,,,,327.3179,328.6118,328.6118,331.2588,return,0.6597,,89.97395833,0,51,51,9,1,FBP-OG-81.png,0.45,1.2,10,0.5,,,,,,,,,,,,,,,,,,,,,,,,,,,,,,,,,,,,,,,,,,,,,
,,,,,WIN24_004,19,female,2024-01-25_13h04.42.269,jersey_experiment_5,2023.2.2,Win32,84.74576271,,,,,,,,,,,,,,,,331.259,332.5529,332.5529,334.3295,return,0.6129,,0.260416667,0,52,52,50,1,FBP-PT-18.png,0.35,1.2,51,0.5,,,,,,,,,,,,,,,,,,,,,,,,,,,,,,,,,,,,,,,,,,,,,
,,,,,WIN24_004,19,female,2024-01-25_13h04.42.269,jersey_experiment_5,2023.2.2,Win32,84.74576271,,,,,,,,,,,,,,,,334.3298,335.6237,335.6237,338.4591,return,1.6479,,11.45833333,0,53,53,11,1,FBP-OG-91.png,0.37,1.2,12,0.5,,,,,,,,,,,,,,,,,,,,,,,,,,,,,,,,,,,,,,,,,,,,,
,,,,,WIN24_004,19,female,2024-01-25_13h04.42.269,jersey_experiment_5,2023.2.2,Win32,84.74576271,,,,,,,,,,,,,,,,338.4592,340.2595,340.2595,341.9299,return,0.5783,,74.47916667,0,54,54,28,1,FBP-RB-19.png,0.43,1.2,29,1,,,,,,,,,,,,,,,,,,,,,,,,,,,,,,,,,,,,,,,,,,,,,
,,,,,WIN24_004,19,female,2024-01-25_13h04.42.269,jersey_experiment_5,2023.2.2,Win32,84.74576271,,,,,,,,,,,,,,,,341.9301,343.7298,343.7298,345.3181,return,0.6292,,25,0,55,55,15,1,FBP-RB-17.png,0.35,1.2,16,1,,,,,,,,,,,,,,,,,,,,,,,,,,,,,,,,,,,,,,,,,,,,,
,,,,,WIN24_004,19,female,2024-01-25_13h04.42.269,jersey_experiment_5,2023.2.2,Win32,84.74576271,,,,,,,,,,,,,,,,345.3184,346.6124,346.6124,348.3417,return,0.5564,,50,0,56,56,57,1,FBP-PT-19.png,0.4,1.2,58,0.5,,,,,,,,,,,,,,,,,,,,,,,,,,,,,,,,,,,,,,,,,,,,,
,,,,,WIN24_004,19,female,2024-01-25_13h04.42.269,jersey_experiment_5,2023.2.2,Win32,84.74576271,,,,,,,,,,,,,,,,348.3419,350.1419,350.1419,351.1654,return,0.6119,,50,0,57,57,41,1,FBP-YG-91.png,0.37,1.2,42,1,,,,,,,,,,,,,,,,,,,,,,,,,,,,,,,,,,,,,,,,,,,,,
,,,,,WIN24_004,19,female,2024-01-25_13h04.42.269,jersey_experiment_5,2023.2.2,Win32,84.74576271,,,,,,,,,,,,,,,,351.1656,352.9656,352.9656,355.0362,return,0.8002,,24.609375,0,58,58,40,1,FBP-YG-91.png,0.35,1.2,41,1,,,,,,,,,,,,,,,,,,,,,,,,,,,,,,,,,,,,,,,,,,,,,
,,,,,WIN24_004,19,female,2024-01-25_13h04.42.269,jersey_experiment_5,2023.2.2,Win32,84.74576271,,,,,,,,,,,,,,,,355.0364,356.3304,356.3304,358.3422,return,0.6509,,0.520833333,0,59,59,0,1,FBP-OG-71.png,0.35,1.2,1,0.5,,,,,,,,,,,,,,,,,,,,,,,,,,,,,,,,,,,,,,,,,,,,,
,,,,,WIN24_004,19,female,2024-01-25_13h04.42.269,jersey_experiment_5,2023.2.2,Win32,84.74576271,,,,,,,,,,,,,,,,358.344,359.6363,359.6363,361.7423,return,1.5439,,24.73958333,,,,,,FBP-OG-18.png,0.37,1.2,7,0.5,0,0,0,6,1,,,,,,,,,,,,,,,,,,,,,,,,,,,,,,,,,,,,,,,,
,,,,,WIN24_004,19,female,2024-01-25_13h04.42.269,jersey_experiment_5,2023.2.2,Win32,84.74576271,,,,,,,,,,,,,,,,361.7426,363.5423,363.5423,364.7777,return,0.5889,,24.73958333,,,,,,FBP-YG-17.png,0.35,1.2,31,1,0,1,1,30,1,,,,,,,,,,,,,,,,,,,,,,,,,,,,,,,,,,,,,,,,
,,,,,WIN24_004,19,female,2024-01-25_13h04.42.269,jersey_experiment_5,2023.2.2,Win32,84.74576271,,,,,,,,,,,,,,,,364.7779,366.0718,366.0719,367.8484,return,0.5765,,75.13020833,,,,,,FBP-OG-18.png,0.43,1.2,9,0.5,0,2,2,8,1,,,,,,,,,,,,,,,,,,,,,,,,,,,,,,,,,,,,,,,,
,,,,,WIN24_004,19,female,2024-01-25_13h04.42.269,jersey_experiment_5,2023.2.2,Win32,84.74576271,,,,,,,,,,,,,,,,367.8485,369.6485,369.6485,370.6014,return,0.7085,,75.13020833,,,,,,FBP-YG-19.png,0.4,1.2,43,1,0,3,3,42,1,,,,,,,,,,,,,,,,,,,,,,,,,,,,,,,,,,,,,,,,
,,,,,WIN24_004,19,female,2024-01-25_13h04.42.269,jersey_experiment_5,2023.2.2,Win32,84.74576271,,,,,,,,,,,,,,,,370.6015,371.8956,371.8956,373.6721,return,0.5907,,99.86979167,,,,,,FBP-PT-81.png,0.45,1.2,55,0.5,0,4,4,54,1,,,,,,,,,,,,,,,,,,,,,,,,,,,,,,,,,,,,,,,,
,,,,,WIN24_004,19,female,2024-01-25_13h04.42.269,jersey_experiment_5,2023.2.2,Win32,84.74576271,,,,,,,,,,,,,,,,373.6723,374.9663,374.9664,376.1663,return,0.6524,,99.86979167,,,,,,FBP-OG-18.png,0.45,1.2,10,0.5,0,5,5,9,1,,,,,,,,,,,,,,,,,,,,,,,,,,,,,,,,,,,,,,,,
,,,,,WIN24_004,19,female,2024-01-25_13h04.42.269,jersey_experiment_5,2023.2.2,Win32,84.74576271,,,,,,,,,,,,,,,,376.1666,377.4605,377.4605,379.2135,return,0.5647,,74.86979167,,,,,,FBP-OG-18.png,0.4,1.2,8,0.5,0,6,6,7,1,,,,,,,,,,,,,,,,,,,,,,,,,,,,,,,,,,,,,,,,
,,,,,WIN24_004,19,female,2024-01-25_13h04.42.269,jersey_experiment_5,2023.2.2,Win32,84.74576271,,,,,,,,,,,,,,,,379.2137,381.0136,381.0136,384.2842,return,1.1193,,48.046875,,,,,,FBP-RB-71.png,0.37,1.2,17,1,0,7,7,16,1,,,,,,,,,,,,,,,,,,,,,,,,,,,,,,,,,,,,,,,,
,,,,,WIN24_004,19,female,2024-01-25_13h04.42.269,jersey_experiment_5,2023.2.2,Win32,84.74576271,,,,,,,,,,,,,,,,384.2846,385.5784,385.5785,387.7197,return,0.5571,,74.86979167,,,,,,FBP-PT-71.png,0.4,1.2,48,0.5,0,8,8,47,1,,,,,,,,,,,,,,,,,,,,,,,,,,,,,,,,,,,,,,,,
,,,,,WIN24_004,19,female,2024-01-25_13h04.42.269,jersey_experiment_5,2023.2.2,Win32,84.74576271,,,,,,,,,,,,,,,,387.7199,389.0139,389.0139,390.4609,return,0.527,,99.609375,,,,,,FBP-PT-71.png,0.43,1.2,49,0.5,0,9,9,48,1,,,,,,,,,,,,,,,,,,,,,,,,,,,,,,,,,,,,,,,,
,,,,,WIN24_004,19,female,2024-01-25_13h04.42.269,jersey_experiment_5,2023.2.2,Win32,84.74576271,,,,,,,,,,,,,,,,390.461,391.7551,391.7551,393.1903,return,0.6033,,24.34895833,,,,,,FBP-OG-18.png,0.35,1.2,6,0.5,0,10,10,5,1,,,,,,,,,,,,,,,,,,,,,,,,,,,,,,,,,,,,,,,,
,,,,,WIN24_004,19,female,2024-01-25_13h04.42.269,jersey_experiment_5,2023.2.2,Win32,84.74576271,,,,,,,,,,,,,,,,393.1906,394.9907,394.9907,396.3788,return,0.5786,,87.63020833,,,,,,FBP-RB-71.png,0.43,1.2,19,1,0,11,11,18,1,,,,,,,,,,,,,,,,,,,,,,,,,,,,,,,,,,,,,,,,
,,,,,WIN24_004,19,female,2024-01-25_13h04.42.269,jersey_experiment_5,2023.2.2,Win32,84.74576271,,,,,,,,,,,,,,,,396.379,397.673,397.673,399.5906,return,0.5569,,50,,,,,,FBP-OG-17.png,0.37,1.2,2,0.5,0,12,12,1,1,,,,,,,,,,,,,,,,,,,,,,,,,,,,,,,,,,,,,,,,
,,,,,WIN24_004,19,female,2024-01-25_13h04.42.269,jersey_experiment_5,2023.2.2,Win32,84.74576271,,,,,,,,,,,,,,,,399.5907,401.3909,401.3909,402.7321,return,0.7199,,23.95833333,,,,,,FBP-YG-19.png,0.35,1.2,41,1,0,13,13,40,1,,,,,,,,,,,,,,,,,,,,,,,,,,,,,,,,,,,,,,,,
,,,,,WIN24_004,19,female,2024-01-25_13h04.42.269,jersey_experiment_5,2023.2.2,Win32,84.74576271,,,,,,,,,,,,,,,,402.7323,404.5322,404.5322,406.1675,return,0.5914,,93.88020833,,,,,,FBP-YG-18.png,0.45,1.2,40,1,0,14,14,39,1,,,,,,,,,,,,,,,,,,,,,,,,,,,,,,,,,,,,,,,,
,,,,,WIN24_004,19,female,2024-01-25_13h04.42.269,jersey_experiment_5,2023.2.2,Win32,84.74576271,,,,,,,,,,,,,,,,406.1676,407.9675,407.9675,411.6028,return,2.8913,,93.48958333,,,,,,FBP-YG-18.png,0.43,1.2,39,1,0,15,15,38,1,,,,,,,,,,,,,,,,,,,,,,,,,,,,,,,,,,,,,,,,
,,,,,WIN24_004,19,female,2024-01-25_13h04.42.269,jersey_experiment_5,2023.2.2,Win32,84.74576271,,,,,,,,,,,,,,,,411.6029,413.4028,413.4028,415.4383,return,0.5638,,24.86979167,,,,,,FBP-YG-19.png,0.37,1.2,42,1,0,16,16,41,1,,,,,,,,,,,,,,,,,,,,,,,,,,,,,,,,,,,,,,,,
,,,,,WIN24_004,19,female,2024-01-25_13h04.42.269,jersey_experiment_5,2023.2.2,Win32,84.74576271,,,,,,,,,,,,,,,,415.4386,417.2385,417.2385,418.6855,return,0.5188,,49.86979167,,,,,,FBP-RB-81.png,0.37,1.2,22,1,0,17,17,21,1,,,,,,,,,,,,,,,,,,,,,,,,,,,,,,,,,,,,,,,,
,,,,,WIN24_004,19,female,2024-01-25_13h04.42.269,jersey_experiment_5,2023.2.2,Win32,84.74576271,,,,,,,,,,,,,,,,418.6857,419.9797,419.9798,422.8032,return,1.019,,49.86979167,,,,,,FBP-PT-71.png,0.37,1.2,47,0.5,0,18,18,46,1,,,,,,,,,,,,,,,,,,,,,,,,,,,,,,,,,,,,,,,,
,,,,,WIN24_004,19,female,2024-01-25_13h04.42.269,jersey_experiment_5,2023.2.2,Win32,84.74576271,,,,,,,,,,,,,,,,422.8035,424.0975,424.0976,426.3329,return,0.6107,,61.328125,,,,,,FBP-PT-81.png,0.37,1.2,52,0.5,0,19,19,51,1,,,,,,,,,,,,,,,,,,,,,,,,,,,,,,,,,,,,,,,,
,,,,,WIN24_004,19,female,2024-01-25_13h04.42.269,jersey_experiment_5,2023.2.2,Win32,84.74576271,,,,,,,,,,,,,,,,426.333,427.6271,427.6271,431.5801,return,0.7199,,36.71875,,,,,,FBP-OG-19.png,0.35,1.2,11,0.5,0,20,20,10,1,,,,,,,,,,,,,,,,,,,,,,,,,,,,,,,,,,,,,,,,
,,,,,WIN24_004,19,female,2024-01-25_13h04.42.269,jersey_experiment_5,2023.2.2,Win32,84.74576271,,,,,,,,,,,,,,,,431.5804,433.3801,433.3801,435.8626,return,0.5687,,74.73958333,,,,,,FBP-RB-71.png,0.4,1.2,18,1,0,21,21,17,1,,,,,,,,,,,,,,,,,,,,,,,,,,,,,,,,,,,,,,,,
,,,,,WIN24_004,19,female,2024-01-25_13h04.42.269,jersey_experiment_5,2023.2.2,Win32,84.74576271,,,,,,,,,,,,,,,,435.8628,437.1567,437.1567,439.6509,return,0.6177,,99.08854167,,,,,,FBP-PT-81.png,0.43,1.2,54,0.5,0,22,22,53,1,,,,,,,,,,,,,,,,,,,,,,,,,,,,,,,,,,,,,,,,
,,,,,WIN24_004,19,female,2024-01-25_13h04.42.269,jersey_experiment_5,2023.2.2,Win32,84.74576271,,,,,,,,,,,,,,,,439.6511,440.9452,440.9452,442.3569,return,0.6642,,99.609375,,,,,,FBP-OG-17.png,0.45,1.2,5,0.5,0,23,23,4,1,,,,,,,,,,,,,,,,,,,,,,,,,,,,,,,,,,,,,,,,
,,,,,WIN24_004,19,female,2024-01-25_13h04.42.269,jersey_experiment_5,2023.2.2,Win32,84.74576271,,,,,,,,,,,,,,,,442.3572,443.651,443.651,444.7336,return,0.5644,,99.73958333,,,,,,FBP-PT-91.png,0.43,1.2,59,0.5,0,24,24,58,1,,,,,,,,,,,,,,,,,,,,,,,,,,,,,,,,,,,,,,,,
,,,,,WIN24_004,19,female,2024-01-25_13h04.42.269,jersey_experiment_5,2023.2.2,Win32,84.74576271,,,,,,,,,,,,,,,,444.7338,446.5337,446.5337,448.4512,return,0.5614,,75,,,,,,FBP-YG-17.png,0.37,1.2,32,1,0,25,25,31,1,,,,,,,,,,,,,,,,,,,,,,,,,,,,,,,,,,,,,,,,
,,,,,WIN24_004,19,female,2024-01-25_13h04.42.269,jersey_experiment_5,2023.2.2,Win32,84.74576271,,,,,,,,,,,,,,,,448.4514,450.2514,450.2514,452.1102,return,1.2107,,100,,,,,,FBP-YG-17.png,0.43,1.2,34,1,0,26,26,33,1,,,,,,,,,,,,,,,,,,,,,,,,,,,,,,,,,,,,,,,,
,,,,,WIN24_004,19,female,2024-01-25_13h04.42.269,jersey_experiment_5,2023.2.2,Win32,84.74576271,,,,,,,,,,,,,,,,452.1103,453.4044,453.4044,455.4749,return,1.0768,,97.00520833,,,,,,FBP-OG-17.png,0.43,1.2,4,0.5,0,27,27,3,1,,,,,,,,,,,,,,,,,,,,,,,,,,,,,,,,,,,,,,,,
,,,,,WIN24_004,19,female,2024-01-25_13h04.42.269,jersey_experiment_5,2023.2.2,Win32,84.74576271,,,,,,,,,,,,,,,,455.4751,456.769,456.7691,458.1693,return,0.5424,,74.86979167,,,,,,FBP-PT-91.png,0.4,1.2,58,0.5,0,28,28,57,1,,,,,,,,,,,,,,,,,,,,,,,,,,,,,,,,,,,,,,,,
,,,,,WIN24_004,19,female,2024-01-25_13h04.42.269,jersey_experiment_5,2023.2.2,Win32,84.74576271,,,,,,,,,,,,,,,,458.1694,459.4634,459.4634,461.4282,return,0.5586,,24.47916667,,,,,,FBP-OG-17.png,0.35,1.2,1,0.5,0,29,29,0,1,,,,,,,,,,,,,,,,,,,,,,,,,,,,,,,,,,,,,,,,
,,,,,WIN24_004,19,female,2024-01-25_13h04.42.269,jersey_experiment_5,2023.2.2,Win32,84.74576271,,,,,,,,,,,,,,,,461.4284,462.7223,462.7223,463.7812,return,0.6995,,24.47916667,,,,,,FBP-PT-81.png,0.35,1.2,51,0.5,0,30,30,50,1,,,,,,,,,,,,,,,,,,,,,,,,,,,,,,,,,,,,,,,,
,,,,,WIN24_004,19,female,2024-01-25_13h04.42.269,jersey_experiment_5,2023.2.2,Win32,84.74576271,,,,,,,,,,,,,,,,463.7814,465.5815,465.5815,467.6284,return,0.6129,,88.93229167,,,,,,FBP-RB-91.png,0.45,1.2,30,1,0,31,31,29,1,,,,,,,,,,,,,,,,,,,,,,,,,,,,,,,,,,,,,,,,
,,,,,WIN24_004,19,female,2024-01-25_13h04.42.269,jersey_experiment_5,2023.2.2,Win32,84.74576271,,,,,,,,,,,,,,,,467.6287,469.4285,469.4286,470.4521,return,0.57,,99.47916667,,,,,,FBP-YG-19.png,0.45,1.2,45,1,0,32,32,44,1,,,,,,,,,,,,,,,,,,,,,,,,,,,,,,,,,,,,,,,,
,,,,,WIN24_004,19,female,2024-01-25_13h04.42.269,jersey_experiment_5,2023.2.2,Win32,84.74576271,,,,,,,,,,,,,,,,470.4522,472.2522,472.2522,473.8756,return,0.5963,,75,,,,,,FBP-RB-81.png,0.4,1.2,23,1,0,33,33,22,1,,,,,,,,,,,,,,,,,,,,,,,,,,,,,,,,,,,,,,,,
,,,,,WIN24_004,19,female,2024-01-25_13h04.42.269,jersey_experiment_5,2023.2.2,Win32,84.74576271,,,,,,,,,,,,,,,,473.8759,475.676,475.676,477.3346,return,1.0735,,75.91145833,,,,,,FBP-RB-91.png,0.4,1.2,28,1,0,34,34,27,1,,,,,,,,,,,,,,,,,,,,,,,,,,,,,,,,,,,,,,,,
,,,,,WIN24_004,19,female,2024-01-25_13h04.42.269,jersey_experiment_5,2023.2.2,Win32,84.74576271,,,,,,,,,,,,,,,,477.3348,479.1347,479.1347,481.0643,return,0.5799,,99.47916667,,,,,,FBP-RB-91.png,0.43,1.2,29,1,0,35,35,28,1,,,,,,,,,,,,,,,,,,,,,,,,,,,,,,,,,,,,,,,,
,,,,,WIN24_004,19,female,2024-01-25_13h04.42.269,jersey_experiment_5,2023.2.2,Win32,84.74576271,,,,,,,,,,,,,,,,481.0646,482.3585,482.3585,484.7231,return,0.4885,,49.609375,,,,,,FBP-OG-19.png,0.37,1.2,12,0.5,0,36,36,11,1,,,,,,,,,,,,,,,,,,,,,,,,,,,,,,,,,,,,,,,,
,,,,,WIN24_004,19,female,2024-01-25_13h04.42.269,jersey_experiment_5,2023.2.2,Win32,84.74576271,,,,,,,,,,,,,,,,484.7233,486.5233,486.5234,488.2762,return,0.6771,,25.26041667,,,,,,FBP-YG-18.png,0.35,1.2,36,1,0,37,37,35,1,,,,,,,,,,,,,,,,,,,,,,,,,,,,,,,,,,,,,,,,
,,,,,WIN24_004,19,female,2024-01-25_13h04.42.269,jersey_experiment_5,2023.2.2,Win32,84.74576271,,,,,,,,,,,,,,,,488.2765,490.0763,490.0763,491.641,return,0.6005,,99.21875,,,,,,FBP-RB-81.png,0.45,1.2,25,1,0,38,38,24,1,,,,,,,,,,,,,,,,,,,,,,,,,,,,,,,,,,,,,,,,
,,,,,WIN24_004,19,female,2024-01-25_13h04.42.269,jersey_experiment_5,2023.2.2,Win32,84.74576271,,,,,,,,,,,,,,,,491.6413,493.441,493.4411,494.3117,return,0.5335,,99.21875,,,,,,FBP-YG-19.png,0.43,1.2,44,1,0,39,39,43,1,,,,,,,,,,,,,,,,,,,,,,,,,,,,,,,,,,,,,,,,
,,,,,WIN24_004,19,female,2024-01-25_13h04.42.269,jersey_experiment_5,2023.2.2,Win32,84.74576271,,,,,,,,,,,,,,,,494.3119,496.1118,496.1118,496.947,return,0.5008,,99.21875,,,,,,FBP-RB-71.png,0.45,1.2,20,1,0,40,40,19,1,,,,,,,,,,,,,,,,,,,,,,,,,,,,,,,,,,,,,,,,
,,,,,WIN24_004,19,female,2024-01-25_13h04.42.269,jersey_experiment_5,2023.2.2,Win32,84.74576271,,,,,,,,,,,,,,,,496.9472,498.2413,498.2413,501.0531,return,0.4704,,49.73958333,,,,,,FBP-OG-19.png,0.4,1.2,13,0.5,0,41,41,12,1,,,,,,,,,,,,,,,,,,,,,,,,,,,,,,,,,,,,,,,,
,,,,,WIN24_004,19,female,2024-01-25_13h04.42.269,jersey_experiment_5,2023.2.2,Win32,84.74576271,,,,,,,,,,,,,,,,501.0533,502.3473,502.3473,503.8179,return,0.4848,,74.86979167,,,,,,FBP-PT-91.png,0.37,1.2,57,0.5,0,42,42,56,1,,,,,,,,,,,,,,,,,,,,,,,,,,,,,,,,,,,,,,,,
,,,,,WIN24_004,19,female,2024-01-25_13h04.42.269,jersey_experiment_5,2023.2.2,Win32,84.74576271,,,,,,,,,,,,,,,,503.8183,505.6181,505.6181,507.8298,return,0.8057,,75.390625,,,,,,FBP-YG-18.png,0.4,1.2,38,1,0,43,43,37,1,,,,,,,,,,,,,,,,,,,,,,,,,,,,,,,,,,,,,,,,
,,,,,WIN24_004,19,female,2024-01-25_13h04.42.269,jersey_experiment_5,2023.2.2,Win32,84.74576271,,,,,,,,,,,,,,,,507.8301,509.124,509.124,510.7594,return,0.661,,75,,,,,,FBP-OG-17.png,0.4,1.2,3,0.5,0,44,44,2,1,,,,,,,,,,,,,,,,,,,,,,,,,,,,,,,,,,,,,,,,
,,,,,WIN24_004,19,female,2024-01-25_13h04.42.269,jersey_experiment_5,2023.2.2,Win32,84.74576271,,,,,,,,,,,,,,,,510.7595,512.5593,512.5593,520.5832,return,0.7431,,50.65104167,,,,,,FBP-RB-71.png,0.35,1.2,16,1,0,45,45,15,1,,,,,,,,,,,,,,,,,,,,,,,,,,,,,,,,,,,,,,,,
,,,,,WIN24_004,19,female,2024-01-25_13h04.42.269,jersey_experiment_5,2023.2.2,Win32,84.74576271,,,,,,,,,,,,,,,,520.5835,522.3834,522.3834,524.9716,return,1.1907,,100,,,,,,FBP-YG-17.png,0.45,1.2,35,1,0,46,46,34,1,,,,,,,,,,,,,,,,,,,,,,,,,,,,,,,,,,,,,,,,
,,,,,WIN24_004,19,female,2024-01-25_13h04.42.269,jersey_experiment_5,2023.2.2,Win32,84.74576271,,,,,,,,,,,,,,,,524.972,526.7717,526.7717,529.7013,return,0.9121,,74.47916667,,,,,,FBP-YG-17.png,0.4,1.2,33,1,0,47,47,32,1,,,,,,,,,,,,,,,,,,,,,,,,,,,,,,,,,,,,,,,,
,,,,,WIN24_004,19,female,2024-01-25_13h04.42.269,jersey_experiment_5,2023.2.2,Win32,84.74576271,,,,,,,,,,,,,,,,529.7014,530.9954,530.9954,533.5484,return,0.5885,,99.34895833,,,,,,FBP-OG-19.png,0.45,1.2,15,0.5,0,48,48,14,1,,,,,,,,,,,,,,,,,,,,,,,,,,,,,,,,,,,,,,,,
,,,,,WIN24_004,19,female,2024-01-25_13h04.42.269,jersey_experiment_5,2023.2.2,Win32,84.74576271,,,,,,,,,,,,,,,,533.5485,535.3485,535.3485,537.1014,return,0.5415,,74.47916667,,,,,,FBP-YG-18.png,0.37,1.2,37,1,0,49,49,36,1,,,,,,,,,,,,,,,,,,,,,,,,,,,,,,,,,,,,,,,,
,,,,,WIN24_004,19,female,2024-01-25_13h04.42.269,jersey_experiment_5,2023.2.2,Win32,84.74576271,,,,,,,,,,,,,,,,537.1016,538.3957,538.3957,540.3015,return,0.551,,99.609375,,,,,,FBP-OG-19.png,0.43,1.2,14,0.5,0,50,50,13,1,,,,,,,,,,,,,,,,,,,,,,,,,,,,,,,,,,,,,,,,
,,,,,WIN24_004,19,female,2024-01-25_13h04.42.269,jersey_experiment_5,2023.2.2,Win32,84.74576271,,,,,,,,,,,,,,,,540.3017,542.1017,542.1017,544.3958,return,0.5986,,24.73958333,,,,,,FBP-RB-81.png,0.35,1.2,21,1,0,51,51,20,1,,,,,,,,,,,,,,,,,,,,,,,,,,,,,,,,,,,,,,,,
,,,,,WIN24_004,19,female,2024-01-25_13h04.42.269,jersey_experiment_5,2023.2.2,Win32,84.74576271,,,,,,,,,,,,,,,,544.396,545.6902,545.6902,547.5253,return,0.571,,25,,,,,,FBP-PT-91.png,0.35,1.2,56,0.5,0,52,52,55,1,,,,,,,,,,,,,,,,,,,,,,,,,,,,,,,,,,,,,,,,
,,,,,WIN24_004,19,female,2024-01-25_13h04.42.269,jersey_experiment_5,2023.2.2,Win32,84.74576271,,,,,,,,,,,,,,,,547.5256,548.8195,548.8196,550.4667,return,0.5736,,91.40625,,,,,,FBP-PT-91.png,0.45,1.2,60,0.5,0,53,53,59,1,,,,,,,,,,,,,,,,,,,,,,,,,,,,,,,,,,,,,,,,
,,,,,WIN24_004,19,female,2024-01-25_13h04.42.269,jersey_experiment_5,2023.2.2,Win32,84.74576271,,,,,,,,,,,,,,,,550.4669,551.7607,551.7607,553.4198,return,0.7664,,99.21875,,,,,,FBP-PT-71.png,0.45,1.2,50,0.5,0,54,54,49,1,,,,,,,,,,,,,,,,,,,,,,,,,,,,,,,,,,,,,,,,
,,,,,WIN24_004,19,female,2024-01-25_13h04.42.269,jersey_experiment_5,2023.2.2,Win32,84.74576271,,,,,,,,,,,,,,,,553.42,554.7139,554.7139,557.3964,return,0.5944,,50,,,,,,FBP-PT-81.png,0.4,1.2,53,0.5,0,55,55,52,1,,,,,,,,,,,,,,,,,,,,,,,,,,,,,,,,,,,,,,,,
,,,,,WIN24_004,19,female,2024-01-25_13h04.42.269,jersey_experiment_5,2023.2.2,Win32,84.74576271,,,,,,,,,,,,,,,,557.3966,559.1964,559.1965,560.6788,return,0.6167,,75,,,,,,FBP-RB-81.png,0.43,1.2,24,1,0,56,56,23,1,,,,,,,,,,,,,,,,,,,,,,,,,,,,,,,,,,,,,,,,
,,,,,WIN24_004,19,female,2024-01-25_13h04.42.269,jersey_experiment_5,2023.2.2,Win32,84.74576271,,,,,,,,,,,,,,,,560.679,561.9727,561.9728,563.5495,return,0.5421,,24.609375,,,,,,FBP-PT-71.png,0.35,1.2,46,0.5,0,57,57,45,1,,,,,,,,,,,,,,,,,,,,,,,,,,,,,,,,,,,,,,,,
,,,,,WIN24_004,19,female,2024-01-25_13h04.42.269,jersey_experiment_5,2023.2.2,Win32,84.74576271,,,,,,,,,,,,,,,,563.5497,565.3496,565.3496,568.4437,return,2.6454,,49.73958333,,,,,,FBP-RB-91.png,0.37,1.2,27,1,0,58,58,26,1,,,,,,,,,,,,,,,,,,,,,,,,,,,,,,,,,,,,,,,,
,,,,,WIN24_004,19,female,2024-01-25_13h04.42.269,jersey_experiment_5,2023.2.2,Win32,84.74576271,,,,,,,,,,,,,,,,568.444,570.244,570.244,571.7263,return,0.5897,,24.609375,,,,,,FBP-RB-91.png,0.35,1.2,26,1,0,59,59,25,1,,,,,,,,,,,,,,,,,,,,,,,,,,,,,,,,,,,,,,,,
,,,,,WIN24_004,19,female,2024-01-25_13h04.42.269,jersey_experiment_5,2023.2.2,Win32,84.74576271,,,,,,,,,,,,,,,,,,,,,,,,,,,,,,,,,,,,,,,571.7266,691.7309,,,,,,,,,,,,,,,,,,,,,,,,,,,,,,,,,,,,,,
,,,,,WIN24_004,19,female,2024-01-25_13h04.42.269,jersey_experiment_5,2023.2.2,Win32,84.74576271,,,,,,,,,,,,,,,,,,,,,,,,,,,,,,,,,,,,,,,,,691.7311,696.2132,return,4.4766,,,,,,,,,,,,,,,,,,,,,,,,,,,,,,,,,,
,,,,,WIN24_004,19,female,2024-01-25_13h04.42.269,jersey_experiment_5,2023.2.2,Win32,84.74576271,,,,,,,,,,,,,,,,696.2195,698.0132,698.0132,704.9309,return,1.7141,,50,,,,,,FBP-OG-71.png,0.37,1.2,2,1,,,,,,,,,,,,,0,0,0,1,1,,,,,,,,,,,,,,,,,,,,,,,,,,,,
,,,,,WIN24_004,19,female,2024-01-25_13h04.42.269,jersey_experiment_5,2023.2.2,Win32,84.74576271,,,,,,,,,,,,,,,,704.9313,706.2251,706.2251,708.8605,return,0.8003,,50,,,,,,FBP-YG-91.png,0.35,1.2,41,0.5,,,,,,,,,,,,,0,1,1,40,1,,,,,,,,,,,,,,,,,,,,,,,,,,,,
,,,,,WIN24_004,19,female,2024-01-25_13h04.42.269,jersey_experiment_5,2023.2.2,Win32,84.74576271,,,,,,,,,,,,,,,,708.8608,710.6607,710.6607,712.2843,return,0.6225,,24.609375,,,,,,FBP-OG-91.png,0.35,1.2,11,1,,,,,,,,,,,,,0,2,2,10,1,,,,,,,,,,,,,,,,,,,,,,,,,,,,
,,,,,WIN24_004,19,female,2024-01-25_13h04.42.269,jersey_experiment_5,2023.2.2,Win32,84.74576271,,,,,,,,,,,,,,,,712.2844,713.5783,713.5783,715.6608,return,0.6722,,74.21875,,,,,,FBP-RB-19.png,0.4,1.2,28,0.5,,,,,,,,,,,,,0,3,3,27,1,,,,,,,,,,,,,,,,,,,,,,,,,,,,
,,,,,WIN24_004,19,female,2024-01-25_13h04.42.269,jersey_experiment_5,2023.2.2,Win32,84.74576271,,,,,,,,,,,,,,,,715.661,716.955,716.955,719.3081,return,0.611,,76.171875,,,,,,FBP-YG-91.png,0.43,1.2,44,0.5,,,,,,,,,,,,,0,4,4,43,1,,,,,,,,,,,,,,,,,,,,,,,,,,,,
,,,,,WIN24_004,19,female,2024-01-25_13h04.42.269,jersey_experiment_5,2023.2.2,Win32,84.74576271,,,,,,,,,,,,,,,,719.3083,720.6023,720.6023,725.8495,return,3.8026,,49.73958333,,,,,,FBP-YG-71.png,0.37,1.2,32,0.5,,,,,,,,,,,,,0,5,5,31,1,,,,,,,,,,,,,,,,,,,,,,,,,,,,
,,,,,WIN24_004,19,female,2024-01-25_13h04.42.269,jersey_experiment_5,2023.2.2,Win32,84.74576271,,,,,,,,,,,,,,,,725.8497,727.1436,727.1436,730.4848,return,0.7339,,61.06770833,,,,,,FBP-RB-17.png,0.4,1.2,18,0.5,,,,,,,,,,,,,0,6,6,17,1,,,,,,,,,,,,,,,,,,,,,,,,,,,,
,,,,,WIN24_004,19,female,2024-01-25_13h04.42.269,jersey_experiment_5,2023.2.2,Win32,84.74576271,,,,,,,,,,,,,,,,730.4851,732.285,732.285,733.2025,return,0.0897,,99.73958333,,,,,,FBP-PT-18.png,0.45,1.2,55,1,,,,,,,,,,,,,0,7,7,54,1,,,,,,,,,,,,,,,,,,,,,,,,,,,,
,,,,,WIN24_004,19,female,2024-01-25_13h04.42.269,jersey_experiment_5,2023.2.2,Win32,84.74576271,,,,,,,,,,,,,,,,733.2026,735.0028,735.0029,736.3321,return,0.058,,74.609375,,,,,,FBP-OG-71.png,0.4,1.2,3,1,,,,,,,,,,,,,0,8,8,2,1,,,,,,,,,,,,,,,,,,,,,,,,,,,,
,,,,,WIN24_004,19,female,2024-01-25_13h04.42.269,jersey_experiment_5,2023.2.2,Win32,84.74576271,,,,,,,,,,,,,,,,736.3324,738.1323,738.1323,739.497,return,0.0948,,49.21875,,,,,,FBP-OG-91.png,0.4,1.2,13,1,,,,,,,,,,,,,0,9,9,12,1,,,,,,,,,,,,,,,,,,,,,,,,,,,,
,,,,,WIN24_004,19,female,2024-01-25_13h04.42.269,jersey_experiment_5,2023.2.2,Win32,84.74576271,,,,,,,,,,,,,,,,739.4972,740.7911,740.7912,744.2029,return,0.5311,,74.73958333,,,,,,FBP-YG-91.png,0.4,1.2,43,0.5,,,,,,,,,,,,,0,10,10,42,1,,,,,,,,,,,,,,,,,,,,,,,,,,,,
,,,,,WIN24_004,19,female,2024-01-25_13h04.42.269,jersey_experiment_5,2023.2.2,Win32,84.74576271,,,,,,,,,,,,,,,,744.2032,745.4972,745.4972,746.9208,return,0.0026,,25.13020833,,,,,,FBP-RB-17.png,0.35,1.2,16,0.5,,,,,,,,,,,,,0,11,11,15,1,,,,,,,,,,,,,,,,,,,,,,,,,,,,
,,,,,WIN24_004,19,female,2024-01-25_13h04.42.269,jersey_experiment_5,2023.2.2,Win32,84.74576271,,,,,,,,,,,,,,,,746.9209,748.721,748.721,749.7327,return,0.1458,,99.34895833,,,,,,FBP-PT-19.png,0.43,1.2,59,1,,,,,,,,,,,,,0,12,12,58,1,,,,,,,,,,,,,,,,,,,,,,,,,,,,
,,,,,WIN24_004,19,female,2024-01-25_13h04.42.269,jersey_experiment_5,2023.2.2,Win32,84.74576271,,,,,,,,,,,,,,,,749.733,751.5326,751.5326,755.4976,return,0.0475,,49.86979167,,,,,,FBP-OG-81.png,0.35,1.2,6,1,,,,,,,,,,,,,0,13,13,5,1,,,,,,,,,,,,,,,,,,,,,,,,,,,,
,,,,,WIN24_004,19,female,2024-01-25_13h04.42.269,jersey_experiment_5,2023.2.2,Win32,84.74576271,,,,,,,,,,,,,,,,755.4978,756.7917,756.7917,760.4742,return,0.2126,,49.86979167,,,,,,FBP-RB-18.png,0.37,1.2,22,0.5,,,,,,,,,,,,,0,14,14,21,1,,,,,,,,,,,,,,,,,,,,,,,,,,,,
,,,,,WIN24_004,19,female,2024-01-25_13h04.42.269,jersey_experiment_5,2023.2.2,Win32,84.74576271,,,,,,,,,,,,,,,,760.4744,761.7683,761.7684,762.9684,return,0.0358,,99.08854167,,,,,,FBP-YG-81.png,0.43,1.2,39,0.5,,,,,,,,,,,,,0,15,15,38,1,,,,,,,,,,,,,,,,,,,,,,,,,,,,
,,,,,WIN24_004,19,female,2024-01-25_13h04.42.269,jersey_experiment_5,2023.2.2,Win32,84.74576271,,,,,,,,,,,,,,,,762.9686,764.2625,764.2625,765.3803,return,0.0661,,99.34895833,,,,,,FBP-YG-71.png,0.43,1.2,34,0.5,,,,,,,,,,,,,0,16,16,33,1,,,,,,,,,,,,,,,,,,,,,,,,,,,,
,,,,,WIN24_004,19,female,2024-01-25_13h04.42.269,jersey_experiment_5,2023.2.2,Win32,84.74576271,,,,,,,,,,,,,,,,765.3805,767.1804,767.1804,768.0862,return,0.0745,,71.35416667,,,,,,FBP-PT-17.png,0.4,1.2,48,1,,,,,,,,,,,,,0,17,17,47,1,,,,,,,,,,,,,,,,,,,,,,,,,,,,
,,,,,WIN24_004,19,female,2024-01-25_13h04.42.269,jersey_experiment_5,2023.2.2,Win32,84.74576271,,,,,,,,,,,,,,,,768.0865,769.3806,769.3806,770.4863,return,0.0039,,25.13020833,,,,,,FBP-YG-71.png,0.35,1.2,31,0.5,,,,,,,,,,,,,0,18,18,30,1,,,,,,,,,,,,,,,,,,,,,,,,,,,,
,,,,,WIN24_004,19,female,2024-01-25_13h04.42.269,jersey_experiment_5,2023.2.2,Win32,84.74576271,,,,,,,,,,,,,,,,770.4865,772.2864,772.2864,773.2275,return,0.0705,,74.47916667,,,,,,FBP-OG-91.png,0.43,1.2,14,1,,,,,,,,,,,,,0,19,19,13,1,,,,,,,,,,,,,,,,,,,,,,,,,,,,
,,,,,WIN24_004,19,female,2024-01-25_13h04.42.269,jersey_experiment_5,2023.2.2,Win32,84.74576271,,,,,,,,,,,,,,,,773.2277,774.5217,774.5217,775.5805,return,0.0334,,24.21875,,,,,,FBP-RB-19.png,0.35,1.2,26,0.5,,,,,,,,,,,,,0,20,20,25,1,,,,,,,,,,,,,,,,,,,,,,,,,,,,
,,,,,WIN24_004,19,female,2024-01-25_13h04.42.269,jersey_experiment_5,2023.2.2,Win32,84.74576271,,,,,,,,,,,,,,,,775.5806,777.3808,777.3808,779.2278,return,0.7636,,0,,,,,,FBP-OG-71.png,0.35,1.2,1,1,,,,,,,,,,,,,0,21,21,0,1,,,,,,,,,,,,,,,,,,,,,,,,,,,,
,,,,,WIN24_004,19,female,2024-01-25_13h04.42.269,jersey_experiment_5,2023.2.2,Win32,84.74576271,,,,,,,,,,,,,,,,779.228,781.028,781.028,781.8279,return,0.0898,,90.88541667,,,,,,FBP-PT-18.png,0.4,1.2,53,1,,,,,,,,,,,,,0,22,22,52,1,,,,,,,,,,,,,,,,,,,,,,,,,,,,
,,,,,WIN24_004,19,female,2024-01-25_13h04.42.269,jersey_experiment_5,2023.2.2,Win32,84.74576271,,,,,,,,,,,,,,,,781.8282,783.1221,783.1221,784.4984,return,0.0893,,75.65104167,,,,,,FBP-RB-17.png,0.37,1.2,17,0.5,,,,,,,,,,,,,0,23,23,16,1,,,,,,,,,,,,,,,,,,,,,,,,,,,,
,,,,,WIN24_004,19,female,2024-01-25_13h04.42.269,jersey_experiment_5,2023.2.2,Win32,84.74576271,,,,,,,,,,,,,,,,784.4986,785.7927,785.7927,787.4046,return,0.1184,,98.828125,,,,,,FBP-RB-19.png,0.45,1.2,30,0.5,,,,,,,,,,,,,0,24,24,29,1,,,,,,,,,,,,,,,,,,,,,,,,,,,,
,,,,,WIN24_004,19,female,2024-01-25_13h04.42.269,jersey_experiment_5,2023.2.2,Win32,84.74576271,,,,,,,,,,,,,,,,787.4048,788.6988,788.6988,789.8282,return,0.1364,,99.73958333,,,,,,FBP-RB-18.png,0.45,1.2,25,0.5,,,,,,,,,,,,,0,25,25,24,1,,,,,,,,,,,,,,,,,,,,,,,,,,,,
,,,,,WIN24_004,19,female,2024-01-25_13h04.42.269,jersey_experiment_5,2023.2.2,Win32,84.74576271,,,,,,,,,,,,,,,,789.8285,791.1224,791.1225,792.087,return,0.1571,,99.34895833,,,,,,FBP-YG-71.png,0.45,1.2,35,0.5,,,,,,,,,,,,,0,26,26,34,1,,,,,,,,,,,,,,,,,,,,,,,,,,,,
,,,,,WIN24_004,19,female,2024-01-25_13h04.42.269,jersey_experiment_5,2023.2.2,Win32,84.74576271,,,,,,,,,,,,,,,,792.0872,793.8871,793.8871,794.8988,return,0.1355,,99.86979167,,,,,,FBP-OG-71.png,0.43,1.2,4,1,,,,,,,,,,,,,0,27,27,3,1,,,,,,,,,,,,,,,,,,,,,,,,,,,,
,,,,,WIN24_004,19,female,2024-01-25_13h04.42.269,jersey_experiment_5,2023.2.2,Win32,84.74576271,,,,,,,,,,,,,,,,794.8991,796.1931,796.1932,797.2284,return,0.0581,,75.26041667,,,,,,FBP-RB-19.png,0.37,1.2,27,0.5,,,,,,,,,,,,,0,28,28,26,1,,,,,,,,,,,,,,,,,,,,,,,,,,,,
,,,,,WIN24_004,19,female,2024-01-25_13h04.42.269,jersey_experiment_5,2023.2.2,Win32,84.74576271,,,,,,,,,,,,,,,,797.2286,798.5226,798.5226,800.0285,return,0.1515,,25.91145833,,,,,,FBP-YG-81.png,0.35,1.2,36,0.5,,,,,,,,,,,,,0,29,29,35,1,,,,,,,,,,,,,,,,,,,,,,,,,,,,
,,,,,WIN24_004,19,female,2024-01-25_13h04.42.269,jersey_experiment_5,2023.2.2,Win32,84.74576271,,,,,,,,,,,,,,,,800.0287,801.3228,801.3228,802.5816,return,0.1351,,99.609375,,,,,,FBP-YG-91.png,0.45,1.2,45,0.5,,,,,,,,,,,,,0,30,30,44,1,,,,,,,,,,,,,,,,,,,,,,,,,,,,
,,,,,WIN24_004,19,female,2024-01-25_13h04.42.269,jersey_experiment_5,2023.2.2,Win32,84.74576271,,,,,,,,,,,,,,,,802.5819,803.8758,803.8758,804.4523,return,0.1715,,99.47916667,,,,,,FBP-YG-81.png,0.45,1.2,40,0.5,,,,,,,,,,,,,0,31,31,39,1,,,,,,,,,,,,,,,,,,,,,,,,,,,,
,,,,,WIN24_004,19,female,2024-01-25_13h04.42.269,jersey_experiment_5,2023.2.2,Win32,84.74576271,,,,,,,,,,,,,,,,804.4524,806.2525,806.2525,807.3347,return,0.0492,,71.74479167,,,,,,FBP-PT-19.png,0.4,1.2,58,1,,,,,,,,,,,,,0,32,32,57,1,,,,,,,,,,,,,,,,,,,,,,,,,,,,
,,,,,WIN24_004,19,female,2024-01-25_13h04.42.269,jersey_experiment_5,2023.2.2,Win32,84.74576271,,,,,,,,,,,,,,,,807.3349,808.6289,808.6289,810.6995,return,0.0946,,75,,,,,,FBP-RB-18.png,0.43,1.2,24,0.5,,,,,,,,,,,,,0,33,33,23,1,,,,,,,,,,,,,,,,,,,,,,,,,,,,
,,,,,WIN24_004,19,female,2024-01-25_13h04.42.269,jersey_experiment_5,2023.2.2,Win32,84.74576271,,,,,,,,,,,,,,,,810.6998,812.4997,812.4997,813.6289,return,0.1273,,29.55729167,,,,,,FBP-OG-81.png,0.37,1.2,7,1,,,,,,,,,,,,,0,34,34,6,1,,,,,,,,,,,,,,,,,,,,,,,,,,,,
,,,,,WIN24_004,19,female,2024-01-25_13h04.42.269,jersey_experiment_5,2023.2.2,Win32,84.74576271,,,,,,,,,,,,,,,,813.6291,815.4292,815.4293,816.5351,return,0.0866,,24.47916667,,,,,,FBP-PT-17.png,0.35,1.2,46,1,,,,,,,,,,,,,0,35,35,45,1,,,,,,,,,,,,,,,,,,,,,,,,,,,,
,,,,,WIN24_004,19,female,2024-01-25_13h04.42.269,jersey_experiment_5,2023.2.2,Win32,84.74576271,,,,,,,,,,,,,,,,816.5353,818.3351,818.3351,819.7467,return,0.1116,,49.86979167,,,,,,FBP-OG-91.png,0.37,1.2,12,1,,,,,,,,,,,,,0,36,36,11,1,,,,,,,,,,,,,,,,,,,,,,,,,,,,
,,,,,WIN24_004,19,female,2024-01-25_13h04.42.269,jersey_experiment_5,2023.2.2,Win32,84.74576271,,,,,,,,,,,,,,,,819.747,821.5469,821.5469,822.1351,return,0.1337,,49.86979167,,,,,,FBP-PT-18.png,0.37,1.2,52,1,,,,,,,,,,,,,0,37,37,51,1,,,,,,,,,,,,,,,,,,,,,,,,,,,,
,,,,,WIN24_004,19,female,2024-01-25_13h04.42.269,jersey_experiment_5,2023.2.2,Win32,84.74576271,,,,,,,,,,,,,,,,822.1353,823.4294,823.4294,824.5353,return,0.0963,,74.86979167,,,,,,FBP-YG-71.png,0.4,1.2,33,0.5,,,,,,,,,,,,,0,38,38,32,1,,,,,,,,,,,,,,,,,,,,,,,,,,,,
,,,,,WIN24_004,19,female,2024-01-25_13h04.42.269,jersey_experiment_5,2023.2.2,Win32,84.74576271,,,,,,,,,,,,,,,,824.5355,826.3354,826.3354,827.1236,return,0.1134,,98.95833333,,,,,,FBP-OG-71.png,0.45,1.2,5,1,,,,,,,,,,,,,0,39,39,4,1,,,,,,,,,,,,,,,,,,,,,,,,,,,,
,,,,,WIN24_004,19,female,2024-01-25_13h04.42.269,jersey_experiment_5,2023.2.2,Win32,84.74576271,,,,,,,,,,,,,,,,827.1239,828.9236,828.9236,829.4296,return,0.1114,,98.95833333,,,,,,FBP-PT-19.png,0.45,1.2,60,1,,,,,,,,,,,,,0,40,40,59,1,,,,,,,,,,,,,,,,,,,,,,,,,,,,
,,,,,WIN24_004,19,female,2024-01-25_13h04.42.269,jersey_experiment_5,2023.2.2,Win32,84.74576271,,,,,,,,,,,,,,,,829.4298,830.7237,830.7238,831.3708,return,0.0816,,98.95833333,,,,,,FBP-RB-17.png,0.45,1.2,20,0.5,,,,,,,,,,,,,0,41,41,19,1,,,,,,,,,,,,,,,,,,,,,,,,,,,,
,,,,,WIN24_004,19,female,2024-01-25_13h04.42.269,jersey_experiment_5,2023.2.2,Win32,84.74576271,,,,,,,,,,,,,,,,831.371,833.171,833.171,833.8769,return,0.0887,,83.59375,,,,,,FBP-OG-81.png,0.43,1.2,9,1,,,,,,,,,,,,,0,42,42,8,1,,,,,,,,,,,,,,,,,,,,,,,,,,,,
,,,,,WIN24_004,19,female,2024-01-25_13h04.42.269,jersey_experiment_5,2023.2.2,Win32,84.74576271,,,,,,,,,,,,,,,,833.877,835.6769,835.6769,838.1945,return,0.2531,,88.02083333,,,,,,FBP-PT-18.png,0.43,1.2,54,1,,,,,,,,,,,,,0,43,43,53,1,,,,,,,,,,,,,,,,,,,,,,,,,,,,
,,,,,WIN24_004,19,female,2024-01-25_13h04.42.269,jersey_experiment_5,2023.2.2,Win32,84.74576271,,,,,,,,,,,,,,,,838.1947,839.4887,839.4887,842.1829,return,0.0727,,49.34895833,,,,,,FBP-YG-91.png,0.37,1.2,42,0.5,,,,,,,,,,,,,0,44,44,41,1,,,,,,,,,,,,,,,,,,,,,,,,,,,,
,,,,,WIN24_004,19,female,2024-01-25_13h04.42.269,jersey_experiment_5,2023.2.2,Win32,84.74576271,,,,,,,,,,,,,,,,842.1831,843.9831,843.9831,844.7242,return,0.0656,,99.34895833,,,,,,FBP-OG-91.png,0.45,1.2,15,1,,,,,,,,,,,,,0,45,45,14,1,,,,,,,,,,,,,,,,,,,,,,,,,,,,
,,,,,WIN24_004,19,female,2024-01-25_13h04.42.269,jersey_experiment_5,2023.2.2,Win32,84.74576271,,,,,,,,,,,,,,,,844.7245,846.5243,846.5244,847.6183,return,0.0439,,50.13020833,,,,,,FBP-PT-19.png,0.37,1.2,57,1,,,,,,,,,,,,,0,46,46,56,1,,,,,,,,,,,,,,,,,,,,,,,,,,,,
,,,,,WIN24_004,19,female,2024-01-25_13h04.42.269,jersey_experiment_5,2023.2.2,Win32,84.74576271,,,,,,,,,,,,,,,,847.6187,849.4185,849.4185,850.4892,return,0.1314,,99.34895833,,,,,,FBP-PT-17.png,0.43,1.2,49,1,,,,,,,,,,,,,0,47,47,48,1,,,,,,,,,,,,,,,,,,,,,,,,,,,,
,,,,,WIN24_004,19,female,2024-01-25_13h04.42.269,jersey_experiment_5,2023.2.2,Win32,84.74576271,,,,,,,,,,,,,,,,850.4894,851.7833,851.7833,853.3246,return,0.0003,,74.609375,,,,,,FBP-YG-81.png,0.4,1.2,38,0.5,,,,,,,,,,,,,0,48,48,37,1,,,,,,,,,,,,,,,,,,,,,,,,,,,,
,,,,,WIN24_004,19,female,2024-01-25_13h04.42.269,jersey_experiment_5,2023.2.2,Win32,84.74576271,,,,,,,,,,,,,,,,853.3248,854.6187,854.6187,855.6776,return,0.0711,,25.13020833,,,,,,FBP-RB-18.png,0.35,1.2,21,0.5,,,,,,,,,,,,,0,49,49,20,1,,,,,,,,,,,,,,,,,,,,,,,,,,,,
,,,,,WIN24_004,19,female,2024-01-25_13h04.42.269,jersey_experiment_5,2023.2.2,Win32,84.74576271,,,,,,,,,,,,,,,,855.6778,856.9719,856.9719,858.6423,return,0.0662,,50.65104167,,,,,,FBP-RB-18.png,0.4,1.2,23,0.5,,,,,,,,,,,,,0,50,50,22,1,,,,,,,,,,,,,,,,,,,,,,,,,,,,
,,,,,WIN24_004,19,female,2024-01-25_13h04.42.269,jersey_experiment_5,2023.2.2,Win32,84.74576271,,,,,,,,,,,,,,,,858.6425,860.4425,860.4425,864.0663,return,0.9623,,50.52083333,,,,,,FBP-PT-17.png,0.37,1.2,47,1,,,,,,,,,,,,,0,51,51,46,1,,,,,,,,,,,,,,,,,,,,,,,,,,,,
,,,,,WIN24_004,19,female,2024-01-25_13h04.42.269,jersey_experiment_5,2023.2.2,Win32,84.74576271,,,,,,,,,,,,,,,,864.0665,865.8661,865.8662,866.878,return,0.1173,,50.52083333,,,,,,FBP-OG-81.png,0.4,1.2,8,1,,,,,,,,,,,,,0,52,52,7,1,,,,,,,,,,,,,,,,,,,,,,,,,,,,
,,,,,WIN24_004,19,female,2024-01-25_13h04.42.269,jersey_experiment_5,2023.2.2,Win32,84.74576271,,,,,,,,,,,,,,,,866.8782,868.1721,868.1722,869.4311,return,0.0863,,26.171875,,,,,,FBP-YG-81.png,0.37,1.2,37,0.5,,,,,,,,,,,,,0,53,53,36,1,,,,,,,,,,,,,,,,,,,,,,,,,,,,
,,,,,WIN24_004,19,female,2024-01-25_13h04.42.269,jersey_experiment_5,2023.2.2,Win32,84.74576271,,,,,,,,,,,,,,,,869.4313,870.7253,870.7253,871.6075,return,0.0273,,75.52083333,,,,,,FBP-RB-19.png,0.43,1.2,29,0.5,,,,,,,,,,,,,0,54,54,28,1,,,,,,,,,,,,,,,,,,,,,,,,,,,,
,,,,,WIN24_004,19,female,2024-01-25_13h04.42.269,jersey_experiment_5,2023.2.2,Win32,84.74576271,,,,,,,,,,,,,,,,871.6078,872.9016,872.9016,873.6077,return,0.0603,,74.86979167,,,,,,FBP-RB-17.png,0.43,1.2,19,0.5,,,,,,,,,,,,,0,55,55,18,1,,,,,,,,,,,,,,,,,,,,,,,,,,,,
,,,,,WIN24_004,19,female,2024-01-25_13h04.42.269,jersey_experiment_5,2023.2.2,Win32,84.74576271,,,,,,,,,,,,,,,,873.6078,875.4078,875.4078,876.6666,return,0.1984,,25.91145833,,,,,,FBP-PT-18.png,0.35,1.2,51,1,,,,,,,,,,,,,0,56,56,50,1,,,,,,,,,,,,,,,,,,,,,,,,,,,,
,,,,,WIN24_004,19,female,2024-01-25_13h04.42.269,jersey_experiment_5,2023.2.2,Win32,84.74576271,,,,,,,,,,,,,,,,876.6669,878.4668,878.4669,879.2078,return,0.1552,,25.390625,,,,,,FBP-PT-19.png,0.35,1.2,56,1,,,,,,,,,,,,,0,57,57,55,1,,,,,,,,,,,,,,,,,,,,,,,,,,,,
,,,,,WIN24_004,19,female,2024-01-25_13h04.42.269,jersey_experiment_5,2023.2.2,Win32,84.74576271,,,,,,,,,,,,,,,,879.2081,881.0082,881.0082,881.9255,return,0.1207,,99.73958333,,,,,,FBP-PT-17.png,0.45,1.2,50,1,,,,,,,,,,,,,0,58,58,49,1,,,,,,,,,,,,,,,,,,,,,,,,,,,,
,,,,,WIN24_004,19,female,2024-01-25_13h04.42.269,jersey_experiment_5,2023.2.2,Win32,84.74576271,,,,,,,,,,,,,,,,881.9256,883.7256,883.7257,884.3728,return,0.0889,,99.609375,,,,,,FBP-OG-81.png,0.45,1.2,10,1,,,,,,,,,,,,,0,59,59,9,1,,,,,,,,,,,,,,,,,,,,,,,,,,,,
,,,,,WIN24_004,19,female,2024-01-25_13h04.42.269,jersey_experiment_5,2023.2.2,Win32,84.74576271,,,,,,,,,,,,,,,,884.3745,885.6669,885.6669,886.1846,return,0.1184,,99.609375,,,,,,FBP-YG-18.png,0.45,1.2,40,0.5,,,,,,,,,,,,,,,,,,0,0,0,39,1,,,,,,,,,,,,,,,,,,,,,,,
,,,,,WIN24_004,19,female,2024-01-25_13h04.42.269,jersey_experiment_5,2023.2.2,Win32,84.74576271,,,,,,,,,,,,,,,,886.1849,887.4788,887.4788,889.7849,return,0.2025,,1.953125,,,,,,FBP-YG-19.png,0.35,1.2,41,0.5,,,,,,,,,,,,,,,,,,0,1,1,40,1,,,,,,,,,,,,,,,,,,,,,,,
,,,,,WIN24_004,19,female,2024-01-25_13h04.42.269,jersey_experiment_5,2023.2.2,Win32,84.74576271,,,,,,,,,,,,,,,,889.7851,891.5847,891.5848,892.6671,return,0.1737,,76.171875,,,,,,FBP-OG-19.png,0.4,1.2,13,1,,,,,,,,,,,,,,,,,,0,2,2,12,1,,,,,,,,,,,,,,,,,,,,,,,
,,,,,WIN24_004,19,female,2024-01-25_13h04.42.269,jersey_experiment_5,2023.2.2,Win32,84.74576271,,,,,,,,,,,,,,,,892.6674,894.4674,894.4674,895.3025,return,0.1329,,25,,,,,,FBP-PT-71.png,0.35,1.2,46,1,,,,,,,,,,,,,,,,,,0,3,3,45,1,,,,,,,,,,,,,,,,,,,,,,,
,,,,,WIN24_004,19,female,2024-01-25_13h04.42.269,jersey_experiment_5,2023.2.2,Win32,84.74576271,,,,,,,,,,,,,,,,895.3026,896.5966,896.5966,897.1967,return,0.1412,,25,,,,,,FBP-RB-81.png,0.35,1.2,21,0.5,,,,,,,,,,,,,,,,,,0,4,4,20,1,,,,,,,,,,,,,,,,,,,,,,,
,,,,,WIN24_004,19,female,2024-01-25_13h04.42.269,jersey_experiment_5,2023.2.2,Win32,84.74576271,,,,,,,,,,,,,,,,897.197,898.9968,898.9969,900.7968,return,0.07,,74.47916667,,,,,,FBP-OG-19.png,0.43,1.2,14,1,,,,,,,,,,,,,,,,,,0,5,5,13,1,,,,,,,,,,,,,,,,,,,,,,,
,,,,,WIN24_004,19,female,2024-01-25_13h04.42.269,jersey_experiment_5,2023.2.2,Win32,84.74576271,,,,,,,,,,,,,,,,900.797,902.5969,902.5969,903.4675,return,0.0707,,98.95833333,,,,,,FBP-OG-19.png,0.45,1.2,15,1,,,,,,,,,,,,,,,,,,0,6,6,14,1,,,,,,,,,,,,,,,,,,,,,,,
,,,,,WIN24_004,19,female,2024-01-25_13h04.42.269,jersey_experiment_5,2023.2.2,Win32,84.74576271,,,,,,,,,,,,,,,,903.4677,904.7616,904.7617,905.5146,return,0.175,,99.34895833,,,,,,FBP-RB-91.png,0.45,1.2,30,0.5,,,,,,,,,,,,,,,,,,0,7,7,29,1,,,,,,,,,,,,,,,,,,,,,,,
,,,,,WIN24_004,19,female,2024-01-25_13h04.42.269,jersey_experiment_5,2023.2.2,Win32,84.74576271,,,,,,,,,,,,,,,,905.5149,906.8088,906.8088,908.3736,return,0.1219,,74.73958333,,,,,,FBP-RB-81.png,0.4,1.2,23,0.5,,,,,,,,,,,,,,,,,,0,8,8,22,1,,,,,,,,,,,,,,,,,,,,,,,
,,,,,WIN24_004,19,female,2024-01-25_13h04.42.269,jersey_experiment_5,2023.2.2,Win32,84.74576271,,,,,,,,,,,,,,,,908.3739,909.6678,909.6678,911.4442,return,0.0879,,49.73958333,,,,,,FBP-YG-19.png,0.37,1.2,42,0.5,,,,,,,,,,,,,,,,,,0,9,9,41,1,,,,,,,,,,,,,,,,,,,,,,,
,,,,,WIN24_004,19,female,2024-01-25_13h04.42.269,jersey_experiment_5,2023.2.2,Win32,84.74576271,,,,,,,,,,,,,,,,911.4445,913.2446,913.2446,914.809,return,0.12,,99.73958333,,,,,,FBP-PT-81.png,0.45,1.2,55,1,,,,,,,,,,,,,,,,,,0,10,10,54,1,,,,,,,,,,,,,,,,,,,,,,,
,,,,,WIN24_004,19,female,2024-01-25_13h04.42.269,jersey_experiment_5,2023.2.2,Win32,84.74576271,,,,,,,,,,,,,,,,914.8093,916.1031,916.1032,917.4328,return,0.0611,,24.86979167,,,,,,FBP-YG-17.png,0.35,1.2,31,0.5,,,,,,,,,,,,,,,,,,0,11,11,30,1,,,,,,,,,,,,,,,,,,,,,,,
,,,,,WIN24_004,19,female,2024-01-25_13h04.42.269,jersey_experiment_5,2023.2.2,Win32,84.74576271,,,,,,,,,,,,,,,,917.4329,918.7269,918.7269,919.8799,return,0.1325,,74.86979167,,,,,,FBP-YG-19.png,0.4,1.2,43,0.5,,,,,,,,,,,,,,,,,,0,12,12,42,1,,,,,,,,,,,,,,,,,,,,,,,
,,,,,WIN24_004,19,female,2024-01-25_13h04.42.269,jersey_experiment_5,2023.2.2,Win32,84.74576271,,,,,,,,,,,,,,,,919.8802,921.6799,921.6799,922.2211,return,0.1047,,74.86979167,,,,,,FBP-OG-18.png,0.4,1.2,8,1,,,,,,,,,,,,,,,,,,0,13,13,7,1,,,,,,,,,,,,,,,,,,,,,,,
,,,,,WIN24_004,19,female,2024-01-25_13h04.42.269,jersey_experiment_5,2023.2.2,Win32,84.74576271,,,,,,,,,,,,,,,,922.2212,923.5153,923.5153,924.8683,return,0.1,,24.73958333,,,,,,FBP-YG-17.png,0.37,1.2,32,0.5,,,,,,,,,,,,,,,,,,0,14,14,31,1,,,,,,,,,,,,,,,,,,,,,,,
,,,,,WIN24_004,19,female,2024-01-25_13h04.42.269,jersey_experiment_5,2023.2.2,Win32,84.74576271,,,,,,,,,,,,,,,,924.8685,926.6684,926.6685,927.4801,return,0.0719,,76.04166667,,,,,,FBP-PT-91.png,0.4,1.2,58,1,,,,,,,,,,,,,,,,,,0,15,15,57,1,,,,,,,,,,,,,,,,,,,,,,,
,,,,,WIN24_004,19,female,2024-01-25_13h04.42.269,jersey_experiment_5,2023.2.2,Win32,84.74576271,,,,,,,,,,,,,,,,927.4803,928.7743,928.7743,929.4213,return,0.0573,,74.86979167,,,,,,FBP-RB-91.png,0.4,1.2,28,0.5,,,,,,,,,,,,,,,,,,0,16,16,27,1,,,,,,,,,,,,,,,,,,,,,,,
,,,,,WIN24_004,19,female,2024-01-25_13h04.42.269,jersey_experiment_5,2023.2.2,Win32,84.74576271,,,,,,,,,,,,,,,,929.4216,931.2216,931.2216,932.1861,return,0.0603,,49.73958333,,,,,,FBP-PT-71.png,0.37,1.2,47,1,,,,,,,,,,,,,,,,,,0,17,17,46,1,,,,,,,,,,,,,,,,,,,,,,,
,,,,,WIN24_004,19,female,2024-01-25_13h04.42.269,jersey_experiment_5,2023.2.2,Win32,84.74576271,,,,,,,,,,,,,,,,932.1864,933.9862,933.9862,935.1628,return,0.0573,,50,,,,,,FBP-OG-19.png,0.37,1.2,12,1,,,,,,,,,,,,,,,,,,0,18,18,11,1,,,,,,,,,,,,,,,,,,,,,,,
,,,,,WIN24_004,19,female,2024-01-25_13h04.42.269,jersey_experiment_5,2023.2.2,Win32,84.74576271,,,,,,,,,,,,,,,,935.1629,936.4571,936.4571,937.3628,return,0.2179,,75.52083333,,,,,,FBP-YG-17.png,0.43,1.2,34,0.5,,,,,,,,,,,,,,,,,,0,19,19,33,1,,,,,,,,,,,,,,,,,,,,,,,
,,,,,WIN24_004,19,female,2024-01-25_13h04.42.269,jersey_experiment_5,2023.2.2,Win32,84.74576271,,,,,,,,,,,,,,,,937.363,939.1629,939.1629,940.116,return,0.1941,,49.34895833,,,,,,FBP-PT-81.png,0.37,1.2,52,1,,,,,,,,,,,,,,,,,,0,20,20,51,1,,,,,,,,,,,,,,,,,,,,,,,
,,,,,WIN24_004,19,female,2024-01-25_13h04.42.269,jersey_experiment_5,2023.2.2,Win32,84.74576271,,,,,,,,,,,,,,,,940.1162,941.4102,941.4102,943.2101,return,0.1186,,50.390625,,,,,,FBP-RB-81.png,0.37,1.2,22,0.5,,,,,,,,,,,,,,,,,,0,21,21,21,1,,,,,,,,,,,,,,,,,,,,,,,
,,,,,WIN24_004,19,female,2024-01-25_13h04.42.269,jersey_experiment_5,2023.2.2,Win32,84.74576271,,,,,,,,,,,,,,,,943.2104,945.0102,945.0102,945.8455,return,0.1232,,75.52083333,,,,,,FBP-PT-91.png,0.43,1.2,59,1,,,,,,,,,,,,,,,,,,0,22,22,58,1,,,,,,,,,,,,,,,,,,,,,,,
,,,,,WIN24_004,19,female,2024-01-25_13h04.42.269,jersey_experiment_5,2023.2.2,Win32,84.74576271,,,,,,,,,,,,,,,,945.8457,947.6458,947.6458,948.9986,return,0.1324,,74.609375,,,,,,FBP-PT-81.png,0.4,1.2,53,1,,,,,,,,,,,,,,,,,,0,23,23,52,1,,,,,,,,,,,,,,,,,,,,,,,
,,,,,WIN24_004,19,female,2024-01-25_13h04.42.269,jersey_experiment_5,2023.2.2,Win32,84.74576271,,,,,,,,,,,,,,,,948.9987,950.2926,950.2927,951.2223,return,0.0872,,49.86979167,,,,,,FBP-YG-18.png,0.35,1.2,36,0.5,,,,,,,,,,,,,,,,,,0,24,24,35,1,,,,,,,,,,,,,,,,,,,,,,,
,,,,,WIN24_004,19,female,2024-01-25_13h04.42.269,jersey_experiment_5,2023.2.2,Win32,84.74576271,,,,,,,,,,,,,,,,951.2225,952.5165,952.5165,953.4693,return,0.1047,,75,,,,,,FBP-YG-17.png,0.4,1.2,33,0.5,,,,,,,,,,,,,,,,,,0,25,25,32,1,,,,,,,,,,,,,,,,,,,,,,,
,,,,,WIN24_004,19,female,2024-01-25_13h04.42.269,jersey_experiment_5,2023.2.2,Win32,84.74576271,,,,,,,,,,,,,,,,953.4695,955.2695,955.2696,956.2104,return,0.0911,,50.390625,,,,,,FBP-PT-91.png,0.35,1.2,56,1,,,,,,,,,,,,,,,,,,0,26,26,55,1,,,,,,,,,,,,,,,,,,,,,,,
,,,,,WIN24_004,19,female,2024-01-25_13h04.42.269,jersey_experiment_5,2023.2.2,Win32,84.74576271,,,,,,,,,,,,,,,,956.2106,957.5046,957.5046,958.4577,return,0.1052,,49.86979167,,,,,,FBP-RB-71.png,0.35,1.2,16,0.5,,,,,,,,,,,,,,,,,,0,27,27,15,1,,,,,,,,,,,,,,,,,,,,,,,
,,,,,WIN24_004,19,female,2024-01-25_13h04.42.269,jersey_experiment_5,2023.2.2,Win32,84.74576271,,,,,,,,,,,,,,,,958.4579,960.2578,960.2578,961.0931,return,0.0766,,49.73958333,,,,,,FBP-PT-91.png,0.37,1.2,57,1,,,,,,,,,,,,,,,,,,0,28,28,56,1,,,,,,,,,,,,,,,,,,,,,,,
,,,,,WIN24_004,19,female,2024-01-25_13h04.42.269,jersey_experiment_5,2023.2.2,Win32,84.74576271,,,,,,,,,,,,,,,,961.0933,962.8932,962.8932,963.752,return,0.2855,,49.73958333,,,,,,FBP-OG-19.png,0.35,1.2,11,1,,,,,,,,,,,,,,,,,,0,29,29,10,1,,,,,,,,,,,,,,,,,,,,,,,
,,,,,WIN24_004,19,female,2024-01-25_13h04.42.269,jersey_experiment_5,2023.2.2,Win32,84.74576271,,,,,,,,,,,,,,,,963.7521,965.5523,965.5523,967.0462,return,0.0519,,99.34895833,,,,,,FBP-OG-18.png,0.45,1.2,10,1,,,,,,,,,,,,,,,,,,0,30,30,9,1,,,,,,,,,,,,,,,,,,,,,,,
,,,,,WIN24_004,19,female,2024-01-25_13h04.42.269,jersey_experiment_5,2023.2.2,Win32,84.74576271,,,,,,,,,,,,,,,,967.0465,968.3404,968.3404,968.8934,return,0.1416,,99.34895833,,,,,,FBP-YG-17.png,0.45,1.2,35,0.5,,,,,,,,,,,,,,,,,,0,31,31,34,1,,,,,,,,,,,,,,,,,,,,,,,
,,,,,WIN24_004,19,female,2024-01-25_13h04.42.269,jersey_experiment_5,2023.2.2,Win32,84.74576271,,,,,,,,,,,,,,,,968.8936,970.6934,970.6934,973.3523,return,1.2028,,63.15104167,,,,,,FBP-OG-17.png,0.35,1.2,1,1,,,,,,,,,,,,,,,,,,0,32,32,0,1,,,,,,,,,,,,,,,,,,,,,,,
,,,,,WIN24_004,19,female,2024-01-25_13h04.42.269,jersey_experiment_5,2023.2.2,Win32,84.74576271,,,,,,,,,,,,,,,,973.3524,975.1526,975.1526,975.8935,return,0.076,,99.34895833,,,,,,FBP-PT-71.png,0.45,1.2,50,1,,,,,,,,,,,,,,,,,,0,33,33,49,1,,,,,,,,,,,,,,,,,,,,,,,
,,,,,WIN24_004,19,female,2024-01-25_13h04.42.269,jersey_experiment_5,2023.2.2,Win32,84.74576271,,,,,,,,,,,,,,,,975.8937,977.6938,977.6939,981.1174,return,1.7649,,36.97916667,,,,,,FBP-PT-81.png,0.35,1.2,51,1,,,,,,,,,,,,,,,,,,0,34,34,50,1,,,,,,,,,,,,,,,,,,,,,,,
,,,,,WIN24_004,19,female,2024-01-25_13h04.42.269,jersey_experiment_5,2023.2.2,Win32,84.74576271,,,,,,,,,,,,,,,,981.1176,982.9175,982.9175,983.9293,return,0.1314,,75,,,,,,FBP-PT-71.png,0.4,1.2,48,1,,,,,,,,,,,,,,,,,,0,35,35,47,1,,,,,,,,,,,,,,,,,,,,,,,
,,,,,WIN24_004,19,female,2024-01-25_13h04.42.269,jersey_experiment_5,2023.2.2,Win32,84.74576271,,,,,,,,,,,,,,,,983.9294,985.2234,985.2234,987.494,return,1.2383,,50.26041667,,,,,,FBP-YG-18.png,0.37,1.2,37,0.5,,,,,,,,,,,,,,,,,,0,36,36,36,1,,,,,,,,,,,,,,,,,,,,,,,
,,,,,WIN24_004,19,female,2024-01-25_13h04.42.269,jersey_experiment_5,2023.2.2,Win32,84.74576271,,,,,,,,,,,,,,,,987.4942,989.2942,989.2942,990.9883,return,0.1192,,49.73958333,,,,,,FBP-OG-18.png,0.35,1.2,6,1,,,,,,,,,,,,,,,,,,0,37,37,5,1,,,,,,,,,,,,,,,,,,,,,,,
,,,,,WIN24_004,19,female,2024-01-25_13h04.42.269,jersey_experiment_5,2023.2.2,Win32,84.74576271,,,,,,,,,,,,,,,,990.9885,992.2826,992.2826,995.212,return,0.7394,,99.08854167,,,,,,FBP-RB-71.png,0.45,1.2,20,0.5,,,,,,,,,,,,,,,,,,0,38,38,19,1,,,,,,,,,,,,,,,,,,,,,,,
,,,,,WIN24_004,19,female,2024-01-25_13h04.42.269,jersey_experiment_5,2023.2.2,Win32,84.74576271,,,,,,,,,,,,,,,,995.2121,997.0122,997.0123,998.0355,return,0.0883,,98.69791667,,,,,,FBP-OG-18.png,0.43,1.2,9,1,,,,,,,,,,,,,,,,,,0,39,39,8,1,,,,,,,,,,,,,,,,,,,,,,,
,,,,,WIN24_004,19,female,2024-01-25_13h04.42.269,jersey_experiment_5,2023.2.2,Win32,84.74576271,,,,,,,,,,,,,,,,998.0358,999.3298,999.3298,1000.9063,return,0.1044,,75.13020833,,,,,,FBP-RB-71.png,0.37,1.2,17,0.5,,,,,,,,,,,,,,,,,,0,40,40,16,1,,,,,,,,,,,,,,,,,,,,,,,
,,,,,WIN24_004,19,female,2024-01-25_13h04.42.269,jersey_experiment_5,2023.2.2,Win32,84.74576271,,,,,,,,,,,,,,,,1000.9065,1002.2004,1002.2004,1002.8122,return,0.165,,75,,,,,,FBP-YG-18.png,0.43,1.2,39,0.5,,,,,,,,,,,,,,,,,,0,41,41,38,1,,,,,,,,,,,,,,,,,,,,,,,
,,,,,WIN24_004,19,female,2024-01-25_13h04.42.269,jersey_experiment_5,2023.2.2,Win32,84.74576271,,,,,,,,,,,,,,,,1002.8125,1004.1064,1004.1064,1004.8593,return,0.0946,,75,,,,,,FBP-RB-71.png,0.4,1.2,18,0.5,,,,,,,,,,,,,,,,,,0,42,42,17,1,,,,,,,,,,,,,,,,,,,,,,,
,,,,,WIN24_004,19,female,2024-01-25_13h04.42.269,jersey_experiment_5,2023.2.2,Win32,84.74576271,,,,,,,,,,,,,,,,1004.8596,1006.1535,1006.1535,1007.5418,return,0.0382,,49.73958333,,,,,,FBP-RB-91.png,0.35,1.2,26,0.5,,,,,,,,,,,,,,,,,,0,43,43,25,1,,,,,,,,,,,,,,,,,,,,,,,
,,,,,WIN24_004,19,female,2024-01-25_13h04.42.269,jersey_experiment_5,2023.2.2,Win32,84.74576271,,,,,,,,,,,,,,,,1007.542,1009.3419,1009.3419,1011.1655,return,0.0945,,99.34895833,,,,,,FBP-OG-17.png,0.45,1.2,5,1,,,,,,,,,,,,,,,,,,0,44,44,4,1,,,,,,,,,,,,,,,,,,,,,,,
,,,,,WIN24_004,19,female,2024-01-25_13h04.42.269,jersey_experiment_5,2023.2.2,Win32,84.74576271,,,,,,,,,,,,,,,,1011.1656,1012.9655,1012.9656,1013.7185,return,0.1679,,100,,,,,,FBP-OG-17.png,0.43,1.2,4,1,,,,,,,,,,,,,,,,,,0,45,45,3,1,,,,,,,,,,,,,,,,,,,,,,,
,,,,,WIN24_004,19,female,2024-01-25_13h04.42.269,jersey_experiment_5,2023.2.2,Win32,84.74576271,,,,,,,,,,,,,,,,1013.7188,1015.0128,1015.0128,1016.0245,return,0.1319,,99.609375,,,,,,FBP-YG-19.png,0.43,1.2,44,0.5,,,,,,,,,,,,,,,,,,0,46,46,43,1,,,,,,,,,,,,,,,,,,,,,,,
,,,,,WIN24_004,19,female,2024-01-25_13h04.42.269,jersey_experiment_5,2023.2.2,Win32,84.74576271,,,,,,,,,,,,,,,,1016.0248,1017.8246,1017.8246,1019.6833,return,0.7468,,49.34895833,,,,,,FBP-OG-18.png,0.37,1.2,7,1,,,,,,,,,,,,,,,,,,0,47,47,6,1,,,,,,,,,,,,,,,,,,,,,,,
,,,,,WIN24_004,19,female,2024-01-25_13h04.42.269,jersey_experiment_5,2023.2.2,Win32,84.74576271,,,,,,,,,,,,,,,,1019.6836,1021.4835,1021.4835,1022.2365,return,0.1654,,50,,,,,,FBP-OG-17.png,0.37,1.2,2,1,,,,,,,,,,,,,,,,,,0,48,48,1,1,,,,,,,,,,,,,,,,,,,,,,,
,,,,,WIN24_004,19,female,2024-01-25_13h04.42.269,jersey_experiment_5,2023.2.2,Win32,84.74576271,,,,,,,,,,,,,,,,1022.2366,1024.0366,1024.0366,1025.3895,return,0.1423,,75.390625,,,,,,FBP-OG-17.png,0.4,1.2,3,1,,,,,,,,,,,,,,,,,,0,49,49,2,1,,,,,,,,,,,,,,,,,,,,,,,
,,,,,WIN24_004,19,female,2024-01-25_13h04.42.269,jersey_experiment_5,2023.2.2,Win32,84.74576271,,,,,,,,,,,,,,,,1025.3898,1027.1896,1027.1896,1028.5896,return,0.3288,,74.73958333,,,,,,FBP-PT-81.png,0.43,1.2,54,1,,,,,,,,,,,,,,,,,,0,50,50,53,1,,,,,,,,,,,,,,,,,,,,,,,
,,,,,WIN24_004,19,female,2024-01-25_13h04.42.269,jersey_experiment_5,2023.2.2,Win32,84.74576271,,,,,,,,,,,,,,,,1028.5899,1030.3896,1030.3896,1030.8838,return,0.1718,,74.609375,,,,,,FBP-PT-71.png,0.43,1.2,49,1,,,,,,,,,,,,,,,,,,0,51,51,48,1,,,,,,,,,,,,,,,,,,,,,,,
,,,,,WIN24_004,19,female,2024-01-25_13h04.42.269,jersey_experiment_5,2023.2.2,Win32,84.74576271,,,,,,,,,,,,,,,,1030.884,1032.178,1032.178,1032.9192,return,0.1439,,74.609375,,,,,,FBP-YG-18.png,0.4,1.2,38,0.5,,,,,,,,,,,,,,,,,,0,52,52,37,1,,,,,,,,,,,,,,,,,,,,,,,
,,,,,WIN24_004,19,female,2024-01-25_13h04.42.269,jersey_experiment_5,2023.2.2,Win32,84.74576271,,,,,,,,,,,,,,,,1032.9194,1034.2134,1034.2135,1035.837,return,0.0843,,88.93229167,,,,,,FBP-RB-71.png,0.43,1.2,19,0.5,,,,,,,,,,,,,,,,,,0,53,53,18,1,,,,,,,,,,,,,,,,,,,,,,,
,,,,,WIN24_004,19,female,2024-01-25_13h04.42.269,jersey_experiment_5,2023.2.2,Win32,84.74576271,,,,,,,,,,,,,,,,1035.8372,1037.1311,1037.1311,1038.3077,return,0.0769,,99.86979167,,,,,,FBP-RB-91.png,0.43,1.2,29,0.5,,,,,,,,,,,,,,,,,,0,54,54,28,1,,,,,,,,,,,,,,,,,,,,,,,
,,,,,WIN24_004,19,female,2024-01-25_13h04.42.269,jersey_experiment_5,2023.2.2,Win32,84.74576271,,,,,,,,,,,,,,,,1038.3078,1040.1076,1040.1076,1040.6371,return,0.0709,,99.34895833,,,,,,FBP-PT-91.png,0.45,1.2,60,1,,,,,,,,,,,,,,,,,,0,55,55,59,1,,,,,,,,,,,,,,,,,,,,,,,
,,,,,WIN24_004,19,female,2024-01-25_13h04.42.269,jersey_experiment_5,2023.2.2,Win32,84.74576271,,,,,,,,,,,,,,,,1040.6373,1041.9314,1041.9314,1042.4725,return,0.1789,,99.34895833,,,,,,FBP-RB-81.png,0.45,1.2,25,0.5,,,,,,,,,,,,,,,,,,0,56,56,24,1,,,,,,,,,,,,,,,,,,,,,,,
,,,,,WIN24_004,19,female,2024-01-25_13h04.42.269,jersey_experiment_5,2023.2.2,Win32,84.74576271,,,,,,,,,,,,,,,,1042.4727,1043.7667,1043.7667,1044.2843,return,0.0702,,99.34895833,,,,,,FBP-RB-81.png,0.43,1.2,24,0.5,,,,,,,,,,,,,,,,,,0,57,57,23,1,,,,,,,,,,,,,,,,,,,,,,,
,,,,,WIN24_004,19,female,2024-01-25_13h04.42.269,jersey_experiment_5,2023.2.2,Win32,84.74576271,,,,,,,,,,,,,,,,1044.2846,1045.5785,1045.5786,1047.8491,return,0.0959,,39.97395833,,,,,,FBP-RB-91.png,0.37,1.2,27,0.5,,,,,,,,,,,,,,,,,,0,58,58,26,1,,,,,,,,,,,,,,,,,,,,,,,
,,,,,WIN24_004,19,female,2024-01-25_13h04.42.269,jersey_experiment_5,2023.2.2,Win32,84.74576271,,,,,,,,,,,,,,,,1047.8493,1049.1433,1049.1433,1050.3081,return,0.0424,,75,,,,,,FBP-YG-19.png,0.45,1.2,45,0.5,,,,,,,,,,,,,,,,,,0,59,59,44,1,,,,,,,,,,,,,,,,,,,,,,,
,,,,,WIN24_004,19,female,2024-01-25_13h04.42.269,jersey_experiment_5,2023.2.2,Win32,84.74576271,,,,,,,,,,,,,,,,,,,,,,,,,,,,,,,,,,,,,,,,,,,,,,,,,,,,,,,,1050.3085,1059.4147,return,9.099,,,,,,,,,,,,,,,,,,,
,,,,,WIN24_004,19,female,2024-01-25_13h04.42.269,jersey_experiment_5,2023.2.2,Win32,84.74576271,,,,,,,,,,,,,,,,,,,,,,,,,,,,,,,,,,,,,,,,,,,,,,,,,,,,,,,,,,,,,1059.4147,1068.9558,1,8.3984,return,1.1159,,,,,,,,,,,,
,,,,,WIN24_004,19,female,2024-01-25_13h04.42.269,jersey_experiment_5,2023.2.2,Win32,84.74576271,,,,,,,,,,,,,,,,,,,,,,,,,,,,,,,,,,,,,,,,,,,,,,,,,,,,,,,,,,,,,,,,,,,,1068.956,1096.4797,repeatition and sizes,right,20.8845,,,,,,
,,,,,WIN24_004,19,female,2024-01-25_13h04.42.269,jersey_experiment_5,2023.2.2,Win32,84.74576271,,,,,,,,,,,,,,,,,,,,,,,,,,,,,,,,,,,,,,,,,,,,,,,,,,,,,,,,,,,,,,,,,,,,,,,,,,1096.4798,1100.8748,return,4.3846,