requirements.started,requirements.stopped,key_resp_3.keys,key_resp_3.rt,key_resp_3.duration,Subject ID,Age,Gender,date,expName,psychopyVersion,OS,frameRate,instructions1.started,instructions1.stopped,key_resp.keys,key_resp.rt,key_resp.duration,example.started,example.stopped,enter_2.keys,enter_2.rt,enter_2.duration,instructions2.started,instructions2.stopped,enter_3.keys,enter_3.rt,enter_3.duration,image.started,image.stopped,slider_2.started,slider_2.stopped,next.keys,next.rt,next.duration,slider.response,trial_block_1.thisRepN,trial_block_1.thisTrialN,trial_block_1.thisN,trial_block_1.thisIndex,trial_block_1.ran,Path,Width,Height,Index,Duration,trial_block_2.thisRepN,trial_block_2.thisTrialN,trial_block_2.thisN,trial_block_2.thisIndex,trial_block_2.ran,rest_break.started,rest_break.stopped,end_break.started,end_break.stopped,key_resp_5.keys,key_resp_5.rt,key_resp_5.duration,trial_block_3.thisRepN,trial_block_3.thisTrialN,trial_block_3.thisN,trial_block_3.thisIndex,trial_block_3.ran,trial_block_4.thisRepN,trial_block_4.thisTrialN,trial_block_4.thisN,trial_block_4.thisIndex,trial_block_4.ran,questions_intro.started,questions_intro.stopped,enter_12.keys,enter_12.rt,enter_12.duration,question2.started,question2.stopped,question_doingbest.response,question_doingbest.rt,enter_15.keys,enter_15.rt,enter_15.duration,pattern.started,pattern.stopped,pattern_2.text,enter_17.keys,enter_17.rt,enter_17.duration,thankyou.started,thankyou.stopped,enter_14.keys,enter_14.rt,enter_14.duration
1E-04,14.2251,return,14.2208,,WIN24_032,21,Female,2024-02-02_12h32.05.648,jersey_experiment_5,2023.2.2,Win32,84.03361345,,,,,,,,,,,,,,,,,,,,,,,,,,,,,,,,,,,,,,,,,,,,,,,,,,,,,,,,,,,,,,,,,,,,,,,,,,,,,,
,,,,,WIN24_032,21,Female,2024-02-02_12h32.05.648,jersey_experiment_5,2023.2.2,Win32,84.03361345,14.2252,22.3784,return,8.1297,,,,,,,,,,,,,,,,,,,,,,,,,,,,,,,,,,,,,,,,,,,,,,,,,,,,,,,,,,,,,,,,,,,,,,,,,,
,,,,,WIN24_032,21,Female,2024-02-02_12h32.05.648,jersey_experiment_5,2023.2.2,Win32,84.03361345,,,,,,22.3786,26.099,return,3.6873,,,,,,,,,,,,,,,,,,,,,,,,,,,,,,,,,,,,,,,,,,,,,,,,,,,,,,,,,,,,,,,,,,,,,
,,,,,WIN24_032,21,Female,2024-02-02_12h32.05.648,jersey_experiment_5,2023.2.2,Win32,84.03361345,,,,,,,,,,,26.0991,47.8617,return,21.7456,,,,,,,,,,,,,,,,,,,,,,,,,,,,,,,,,,,,,,,,,,,,,,,,,,,,,,,,,,,,,,,,
,,,,,WIN24_032,21,Female,2024-02-02_12h32.05.648,jersey_experiment_5,2023.2.2,Win32,84.03361345,,,,,,,,,,,,,,,,47.8693,49.6644,49.6645,74.5449,return,8.5143,,74.73958333,0,0,0,23,1,FBP-RB-18.png,0.43,1.2,24,1,,,,,,,,,,,,,,,,,,,,,,,,,,,,,,,,,,,,,,,,,,,,,
,,,,,WIN24_032,21,Female,2024-02-02_12h32.05.648,jersey_experiment_5,2023.2.2,Win32,84.03361345,,,,,,,,,,,,,,,,74.5523,75.8506,75.8506,79.3448,return,1.5144,,74.73958333,0,1,1,47,1,FBP-PT-17.png,0.4,1.2,48,0.5,,,,,,,,,,,,,,,,,,,,,,,,,,,,,,,,,,,,,,,,,,,,,
,,,,,WIN24_032,21,Female,2024-02-02_12h32.05.648,jersey_experiment_5,2023.2.2,Win32,84.03361345,,,,,,,,,,,,,,,,79.3451,80.6391,80.6392,84.004,return,1.1231,,63.54166667,0,2,2,6,1,FBP-OG-81.png,0.37,1.2,7,0.5,,,,,,,,,,,,,,,,,,,,,,,,,,,,,,,,,,,,,,,,,,,,,
,,,,,WIN24_032,21,Female,2024-02-02_12h32.05.648,jersey_experiment_5,2023.2.2,Win32,84.03361345,,,,,,,,,,,,,,,,84.0043,85.298,85.2981,93.4983,return,3.3061,,63.02083333,0,3,3,5,1,FBP-OG-81.png,0.35,1.2,6,0.5,,,,,,,,,,,,,,,,,,,,,,,,,,,,,,,,,,,,,,,,,,,,,
,,,,,WIN24_032,21,Female,2024-02-02_12h32.05.648,jersey_experiment_5,2023.2.2,Win32,84.03361345,,,,,,,,,,,,,,,,93.4987,95.2985,95.2985,98.4279,return,1.5408,,90.36458333,0,4,4,33,1,FBP-YG-71.png,0.43,1.2,34,1,,,,,,,,,,,,,,,,,,,,,,,,,,,,,,,,,,,,,,,,,,,,,
,,,,,WIN24_032,21,Female,2024-02-02_12h32.05.648,jersey_experiment_5,2023.2.2,Win32,84.03361345,,,,,,,,,,,,,,,,98.4282,99.7222,99.7222,102.8164,return,0.7947,,75.26041667,0,5,5,7,1,FBP-OG-81.png,0.4,1.2,8,0.5,,,,,,,,,,,,,,,,,,,,,,,,,,,,,,,,,,,,,,,,,,,,,
,,,,,WIN24_032,21,Female,2024-02-02_12h32.05.648,jersey_experiment_5,2023.2.2,Win32,84.03361345,,,,,,,,,,,,,,,,102.8165,104.1104,104.1105,111.8992,return,5.8681,,98.4375,0,6,6,48,1,FBP-PT-17.png,0.43,1.2,49,0.5,,,,,,,,,,,,,,,,,,,,,,,,,,,,,,,,,,,,,,,,,,,,,
,,,,,WIN24_032,21,Female,2024-02-02_12h32.05.648,jersey_experiment_5,2023.2.2,Win32,84.03361345,,,,,,,,,,,,,,,,111.8995,113.1932,113.1932,115.3463,return,0.854,,99.609375,0,7,7,9,1,FBP-OG-81.png,0.45,1.2,10,0.5,,,,,,,,,,,,,,,,,,,,,,,,,,,,,,,,,,,,,,,,,,,,,
,,,,,WIN24_032,21,Female,2024-02-02_12h32.05.648,jersey_experiment_5,2023.2.2,Win32,84.03361345,,,,,,,,,,,,,,,,115.3466,116.6405,116.6406,120.0995,return,0.7234,,92.05729167,0,8,8,14,1,FBP-OG-91.png,0.45,1.2,15,0.5,,,,,,,,,,,,,,,,,,,,,,,,,,,,,,,,,,,,,,,,,,,,,
,,,,,WIN24_032,21,Female,2024-02-02_12h32.05.648,jersey_experiment_5,2023.2.2,Win32,84.03361345,,,,,,,,,,,,,,,,120.0998,121.8994,121.8995,125.5115,return,0.9086,,25.13020833,0,9,9,25,1,FBP-RB-19.png,0.35,1.2,26,1,,,,,,,,,,,,,,,,,,,,,,,,,,,,,,,,,,,,,,,,,,,,,
,,,,,WIN24_032,21,Female,2024-02-02_12h32.05.648,jersey_experiment_5,2023.2.2,Win32,84.03361345,,,,,,,,,,,,,,,,125.5117,127.3114,127.3114,129.5468,return,0.812,,18.359375,0,10,10,20,1,FBP-RB-18.png,0.35,1.2,21,1,,,,,,,,,,,,,,,,,,,,,,,,,,,,,,,,,,,,,,,,,,,,,
,,,,,WIN24_032,21,Female,2024-02-02_12h32.05.648,jersey_experiment_5,2023.2.2,Win32,84.03361345,,,,,,,,,,,,,,,,129.5471,131.3469,131.3469,134.4175,return,0.9729,,77.60416667,0,11,11,38,1,FBP-YG-81.png,0.43,1.2,39,1,,,,,,,,,,,,,,,,,,,,,,,,,,,,,,,,,,,,,,,,,,,,,
,,,,,WIN24_032,21,Female,2024-02-02_12h32.05.648,jersey_experiment_5,2023.2.2,Win32,84.03361345,,,,,,,,,,,,,,,,134.4178,135.7116,135.7117,140.0648,return,1.4914,,77.60416667,0,12,12,12,1,FBP-OG-91.png,0.4,1.2,13,0.5,,,,,,,,,,,,,,,,,,,,,,,,,,,,,,,,,,,,,,,,,,,,,
,,,,,WIN24_032,21,Female,2024-02-02_12h32.05.648,jersey_experiment_5,2023.2.2,Win32,84.03361345,,,,,,,,,,,,,,,,140.0652,141.3591,141.3592,149.2181,return,6.1106,,64.58333333,0,13,13,52,1,FBP-PT-18.png,0.4,1.2,53,0.5,,,,,,,,,,,,,,,,,,,,,,,,,,,,,,,,,,,,,,,,,,,,,
,,,,,WIN24_032,21,Female,2024-02-02_12h32.05.648,jersey_experiment_5,2023.2.2,Win32,84.03361345,,,,,,,,,,,,,,,,149.2184,150.5123,150.5123,153.3948,return,0.9947,,49.08854167,0,14,14,55,1,FBP-PT-19.png,0.35,1.2,56,0.5,,,,,,,,,,,,,,,,,,,,,,,,,,,,,,,,,,,,,,,,,,,,,
,,,,,WIN24_032,21,Female,2024-02-02_12h32.05.648,jersey_experiment_5,2023.2.2,Win32,84.03361345,,,,,,,,,,,,,,,,153.395,155.1948,155.1948,158.595,return,1.4418,,95.18229167,0,15,15,43,1,FBP-YG-91.png,0.43,1.2,44,1,,,,,,,,,,,,,,,,,,,,,,,,,,,,,,,,,,,,,,,,,,,,,
,,,,,WIN24_032,21,Female,2024-02-02_12h32.05.648,jersey_experiment_5,2023.2.2,Win32,84.03361345,,,,,,,,,,,,,,,,158.5954,160.3952,160.3953,163.9246,return,1.1811,,95.57291667,0,16,16,29,1,FBP-RB-19.png,0.45,1.2,30,1,,,,,,,,,,,,,,,,,,,,,,,,,,,,,,,,,,,,,,,,,,,,,
,,,,,WIN24_032,21,Female,2024-02-02_12h32.05.648,jersey_experiment_5,2023.2.2,Win32,84.03361345,,,,,,,,,,,,,,,,163.925,165.2187,165.2187,167.8659,return,0.7769,,75,0,17,17,2,1,FBP-OG-71.png,0.4,1.2,3,0.5,,,,,,,,,,,,,,,,,,,,,,,,,,,,,,,,,,,,,,,,,,,,,
,,,,,WIN24_032,21,Female,2024-02-02_12h32.05.648,jersey_experiment_5,2023.2.2,Win32,84.03361345,,,,,,,,,,,,,,,,167.8662,169.1601,169.1601,173.2897,return,0.9395,,76.5625,0,18,18,57,1,FBP-PT-19.png,0.4,1.2,58,0.5,,,,,,,,,,,,,,,,,,,,,,,,,,,,,,,,,,,,,,,,,,,,,
,,,,,WIN24_032,21,Female,2024-02-02_12h32.05.648,jersey_experiment_5,2023.2.2,Win32,84.03361345,,,,,,,,,,,,,,,,173.2899,175.0896,175.0897,183.9372,return,1.0084,,74.86979167,0,19,19,35,1,FBP-YG-81.png,0.35,1.2,36,1,,,,,,,,,,,,,,,,,,,,,,,,,,,,,,,,,,,,,,,,,,,,,
,,,,,WIN24_032,21,Female,2024-02-02_12h32.05.648,jersey_experiment_5,2023.2.2,Win32,84.03361345,,,,,,,,,,,,,,,,183.9377,185.2312,185.2313,187.6078,return,0.8257,,98.828125,0,20,20,49,1,FBP-PT-17.png,0.45,1.2,50,0.5,,,,,,,,,,,,,,,,,,,,,,,,,,,,,,,,,,,,,,,,,,,,,
,,,,,WIN24_032,21,Female,2024-02-02_12h32.05.648,jersey_experiment_5,2023.2.2,Win32,84.03361345,,,,,,,,,,,,,,,,187.6082,189.4081,189.4081,192.1847,return,0.9072,,74.34895833,0,21,21,41,1,FBP-YG-91.png,0.37,1.2,42,1,,,,,,,,,,,,,,,,,,,,,,,,,,,,,,,,,,,,,,,,,,,,,
,,,,,WIN24_032,21,Female,2024-02-02_12h32.05.648,jersey_experiment_5,2023.2.2,Win32,84.03361345,,,,,,,,,,,,,,,,192.1852,193.4788,193.4788,200.2438,return,4.5478,,49.47916667,0,22,22,0,1,FBP-OG-71.png,0.35,1.2,1,0.5,,,,,,,,,,,,,,,,,,,,,,,,,,,,,,,,,,,,,,,,,,,,,
,,,,,WIN24_032,21,Female,2024-02-02_12h32.05.648,jersey_experiment_5,2023.2.2,Win32,84.03361345,,,,,,,,,,,,,,,,200.2506,202.0438,202.0438,204.585,return,0.8255,,64.58333333,0,23,23,22,1,FBP-RB-18.png,0.4,1.2,23,1,,,,,,,,,,,,,,,,,,,,,,,,,,,,,,,,,,,,,,,,,,,,,
,,,,,WIN24_032,21,Female,2024-02-02_12h32.05.648,jersey_experiment_5,2023.2.2,Win32,84.03361345,,,,,,,,,,,,,,,,204.5853,206.3849,206.3849,211.2206,return,2.1939,,72.91666667,0,24,24,37,1,FBP-YG-81.png,0.4,1.2,38,1,,,,,,,,,,,,,,,,,,,,,,,,,,,,,,,,,,,,,,,,,,,,,
,,,,,WIN24_032,21,Female,2024-02-02_12h32.05.648,jersey_experiment_5,2023.2.2,Win32,84.03361345,,,,,,,,,,,,,,,,211.2208,213.0206,213.0206,215.5267,return,1.1072,,89.453125,0,25,25,44,1,FBP-YG-91.png,0.45,1.2,45,1,,,,,,,,,,,,,,,,,,,,,,,,,,,,,,,,,,,,,,,,,,,,,
,,,,,WIN24_032,21,Female,2024-02-02_12h32.05.648,jersey_experiment_5,2023.2.2,Win32,84.03361345,,,,,,,,,,,,,,,,215.5271,217.3266,217.3266,219.468,return,0.9663,,94.53125,0,26,26,19,1,FBP-RB-17.png,0.45,1.2,20,1,,,,,,,,,,,,,,,,,,,,,,,,,,,,,,,,,,,,,,,,,,,,,
,,,,,WIN24_032,21,Female,2024-02-02_12h32.05.648,jersey_experiment_5,2023.2.2,Win32,84.03361345,,,,,,,,,,,,,,,,219.4684,220.7621,220.7621,224.2681,return,0.7652,,49.47916667,0,27,27,45,1,FBP-PT-17.png,0.35,1.2,46,0.5,,,,,,,,,,,,,,,,,,,,,,,,,,,,,,,,,,,,,,,,,,,,,
,,,,,WIN24_032,21,Female,2024-02-02_12h32.05.648,jersey_experiment_5,2023.2.2,Win32,84.03361345,,,,,,,,,,,,,,,,224.2686,225.5621,225.5622,234.0919,return,3.3641,,90.234375,0,28,28,53,1,FBP-PT-18.png,0.43,1.2,54,0.5,,,,,,,,,,,,,,,,,,,,,,,,,,,,,,,,,,,,,,,,,,,,,
,,,,,WIN24_032,21,Female,2024-02-02_12h32.05.648,jersey_experiment_5,2023.2.2,Win32,84.03361345,,,,,,,,,,,,,,,,234.0921,235.8921,235.8921,243.1748,return,4.5208,,89.453125,0,29,29,32,1,FBP-YG-71.png,0.4,1.2,33,1,,,,,,,,,,,,,,,,,,,,,,,,,,,,,,,,,,,,,,,,,,,,,
,,,,,WIN24_032,21,Female,2024-02-02_12h32.05.648,jersey_experiment_5,2023.2.2,Win32,84.03361345,,,,,,,,,,,,,,,,243.1815,244.4806,244.4806,246.9866,return,0.9075,,96.35416667,0,30,30,54,1,FBP-PT-18.png,0.45,1.2,55,0.5,,,,,,,,,,,,,,,,,,,,,,,,,,,,,,,,,,,,,,,,,,,,,
,,,,,WIN24_032,21,Female,2024-02-02_12h32.05.648,jersey_experiment_5,2023.2.2,Win32,84.03361345,,,,,,,,,,,,,,,,246.987,248.2807,248.2807,251.4339,return,0.8688,,50.390625,0,31,31,10,1,FBP-OG-91.png,0.35,1.2,11,0.5,,,,,,,,,,,,,,,,,,,,,,,,,,,,,,,,,,,,,,,,,,,,,
,,,,,WIN24_032,21,Female,2024-02-02_12h32.05.648,jersey_experiment_5,2023.2.2,Win32,84.03361345,,,,,,,,,,,,,,,,251.4344,252.7281,252.7282,256.0694,return,0.8282,,99.34895833,0,32,32,59,1,FBP-PT-19.png,0.45,1.2,60,0.5,,,,,,,,,,,,,,,,,,,,,,,,,,,,,,,,,,,,,,,,,,,,,
,,,,,WIN24_032,21,Female,2024-02-02_12h32.05.648,jersey_experiment_5,2023.2.2,Win32,84.03361345,,,,,,,,,,,,,,,,256.07,257.8694,257.8695,261.9637,return,0.7765,,75,0,33,33,28,1,FBP-RB-19.png,0.43,1.2,29,1,,,,,,,,,,,,,,,,,,,,,,,,,,,,,,,,,,,,,,,,,,,,,
,,,,,WIN24_032,21,Female,2024-02-02_12h32.05.648,jersey_experiment_5,2023.2.2,Win32,84.03361345,,,,,,,,,,,,,,,,261.9639,263.7637,263.7637,267.2228,return,0.8025,,58.203125,0,34,34,36,1,FBP-YG-81.png,0.37,1.2,37,1,,,,,,,,,,,,,,,,,,,,,,,,,,,,,,,,,,,,,,,,,,,,,
,,,,,WIN24_032,21,Female,2024-02-02_12h32.05.648,jersey_experiment_5,2023.2.2,Win32,84.03361345,,,,,,,,,,,,,,,,267.2232,268.5171,268.5172,273.5643,return,3.2953,,74.34895833,0,35,35,58,1,FBP-PT-19.png,0.43,1.2,59,0.5,,,,,,,,,,,,,,,,,,,,,,,,,,,,,,,,,,,,,,,,,,,,,
,,,,,WIN24_032,21,Female,2024-02-02_12h32.05.648,jersey_experiment_5,2023.2.2,Win32,84.03361345,,,,,,,,,,,,,,,,273.5727,275.3643,275.3643,278.5996,return,0.8609,,89.97395833,0,36,36,24,1,FBP-RB-18.png,0.45,1.2,25,1,,,,,,,,,,,,,,,,,,,,,,,,,,,,,,,,,,,,,,,,,,,,,
,,,,,WIN24_032,21,Female,2024-02-02_12h32.05.648,jersey_experiment_5,2023.2.2,Win32,84.03361345,,,,,,,,,,,,,,,,278.5999,279.8937,279.8937,282.9998,return,0.8256,,49.86979167,0,37,37,11,1,FBP-OG-91.png,0.37,1.2,12,0.5,,,,,,,,,,,,,,,,,,,,,,,,,,,,,,,,,,,,,,,,,,,,,
,,,,,WIN24_032,21,Female,2024-02-02_12h32.05.648,jersey_experiment_5,2023.2.2,Win32,84.03361345,,,,,,,,,,,,,,,,283,284.7997,284.7998,287.4353,return,0.7884,,24.34895833,0,38,38,15,1,FBP-RB-17.png,0.35,1.2,16,1,,,,,,,,,,,,,,,,,,,,,,,,,,,,,,,,,,,,,,,,,,,,,
,,,,,WIN24_032,21,Female,2024-02-02_12h32.05.648,jersey_experiment_5,2023.2.2,Win32,84.03361345,,,,,,,,,,,,,,,,287.4358,289.2352,289.2352,293,return,0.9076,,24.34895833,0,39,39,27,1,FBP-RB-19.png,0.4,1.2,28,1,,,,,,,,,,,,,,,,,,,,,,,,,,,,,,,,,,,,,,,,,,,,,
,,,,,WIN24_032,21,Female,2024-02-02_12h32.05.648,jersey_experiment_5,2023.2.2,Win32,84.03361345,,,,,,,,,,,,,,,,293.0003,294.8002,294.8002,298.7062,return,0.8311,,75,0,40,40,39,1,FBP-YG-81.png,0.45,1.2,40,1,,,,,,,,,,,,,,,,,,,,,,,,,,,,,,,,,,,,,,,,,,,,,
,,,,,WIN24_032,21,Female,2024-02-02_12h32.05.648,jersey_experiment_5,2023.2.2,Win32,84.03361345,,,,,,,,,,,,,,,,298.7066,300.0003,300.0003,306.7067,return,0.7015,,49.86979167,0,41,41,1,1,FBP-OG-71.png,0.37,1.2,2,0.5,,,,,,,,,,,,,,,,,,,,,,,,,,,,,,,,,,,,,,,,,,,,,
,,,,,WIN24_032,21,Female,2024-02-02_12h32.05.648,jersey_experiment_5,2023.2.2,Win32,84.03361345,,,,,,,,,,,,,,,,306.7072,308.5067,308.5067,311.448,return,0.9075,,73.95833333,0,42,42,42,1,FBP-YG-91.png,0.4,1.2,43,1,,,,,,,,,,,,,,,,,,,,,,,,,,,,,,,,,,,,,,,,,,,,,
,,,,,WIN24_032,21,Female,2024-02-02_12h32.05.648,jersey_experiment_5,2023.2.2,Win32,84.03361345,,,,,,,,,,,,,,,,311.4486,312.7421,312.7422,315.4127,return,0.7583,,87.5,0,43,43,8,1,FBP-OG-81.png,0.43,1.2,9,0.5,,,,,,,,,,,,,,,,,,,,,,,,,,,,,,,,,,,,,,,,,,,,,
,,,,,WIN24_032,21,Female,2024-02-02_12h32.05.648,jersey_experiment_5,2023.2.2,Win32,84.03361345,,,,,,,,,,,,,,,,315.4129,316.7068,316.7068,319.0128,return,0.8051,,74.609375,0,44,44,46,1,FBP-PT-17.png,0.37,1.2,47,0.5,,,,,,,,,,,,,,,,,,,,,,,,,,,,,,,,,,,,,,,,,,,,,
,,,,,WIN24_032,21,Female,2024-02-02_12h32.05.648,jersey_experiment_5,2023.2.2,Win32,84.03361345,,,,,,,,,,,,,,,,319.0131,320.307,320.307,324.4838,return,1.6741,,96.09375,0,45,45,13,1,FBP-OG-91.png,0.43,1.2,14,0.5,,,,,,,,,,,,,,,,,,,,,,,,,,,,,,,,,,,,,,,,,,,,,
,,,,,WIN24_032,21,Female,2024-02-02_12h32.05.648,jersey_experiment_5,2023.2.2,Win32,84.03361345,,,,,,,,,,,,,,,,324.4843,326.2839,326.2841,330.037,return,0.6996,,49.47916667,0,46,46,21,1,FBP-RB-18.png,0.37,1.2,22,1,,,,,,,,,,,,,,,,,,,,,,,,,,,,,,,,,,,,,,,,,,,,,
,,,,,WIN24_032,21,Female,2024-02-02_12h32.05.648,jersey_experiment_5,2023.2.2,Win32,84.03361345,,,,,,,,,,,,,,,,330.0375,331.331,331.331,334.0486,return,0.8555,,69.66145833,0,47,47,56,1,FBP-PT-19.png,0.37,1.2,57,0.5,,,,,,,,,,,,,,,,,,,,,,,,,,,,,,,,,,,,,,,,,,,,,
,,,,,WIN24_032,21,Female,2024-02-02_12h32.05.648,jersey_experiment_5,2023.2.2,Win32,84.03361345,,,,,,,,,,,,,,,,334.0489,335.8488,335.8488,338.8842,return,0.8997,,92.96875,0,48,48,34,1,FBP-YG-71.png,0.45,1.2,35,1,,,,,,,,,,,,,,,,,,,,,,,,,,,,,,,,,,,,,,,,,,,,,
,,,,,WIN24_032,21,Female,2024-02-02_12h32.05.648,jersey_experiment_5,2023.2.2,Win32,84.03361345,,,,,,,,,,,,,,,,338.8844,340.6845,340.6846,346.8256,return,1.8238,,74.609375,0,49,49,31,1,FBP-YG-71.png,0.37,1.2,32,1,,,,,,,,,,,,,,,,,,,,,,,,,,,,,,,,,,,,,,,,,,,,,
,,,,,WIN24_032,21,Female,2024-02-02_12h32.05.648,jersey_experiment_5,2023.2.2,Win32,84.03361345,,,,,,,,,,,,,,,,346.8259,348.1201,348.1202,350.7788,return,0.753,,50,0,50,50,50,1,FBP-PT-18.png,0.35,1.2,51,0.5,,,,,,,,,,,,,,,,,,,,,,,,,,,,,,,,,,,,,,,,,,,,,
,,,,,WIN24_032,21,Female,2024-02-02_12h32.05.648,jersey_experiment_5,2023.2.2,Win32,84.03361345,,,,,,,,,,,,,,,,350.7793,352.0729,352.073,354.6731,return,0.6788,,99.21875,0,51,51,4,1,FBP-OG-71.png,0.45,1.2,5,0.5,,,,,,,,,,,,,,,,,,,,,,,,,,,,,,,,,,,,,,,,,,,,,
,,,,,WIN24_032,21,Female,2024-02-02_12h32.05.648,jersey_experiment_5,2023.2.2,Win32,84.03361345,,,,,,,,,,,,,,,,354.6735,356.4732,356.4732,358.8966,return,0.7267,,74.47916667,0,52,52,17,1,FBP-RB-17.png,0.4,1.2,18,1,,,,,,,,,,,,,,,,,,,,,,,,,,,,,,,,,,,,,,,,,,,,,
,,,,,WIN24_032,21,Female,2024-02-02_12h32.05.648,jersey_experiment_5,2023.2.2,Win32,84.03361345,,,,,,,,,,,,,,,,358.8968,360.1909,360.1909,366.0852,return,2.2047,,87.63020833,0,53,53,3,1,FBP-OG-71.png,0.43,1.2,4,0.5,,,,,,,,,,,,,,,,,,,,,,,,,,,,,,,,,,,,,,,,,,,,,
,,,,,WIN24_032,21,Female,2024-02-02_12h32.05.648,jersey_experiment_5,2023.2.2,Win32,84.03361345,,,,,,,,,,,,,,,,366.0854,367.8854,367.8854,376.3208,return,3.2796,,45.44270833,0,54,54,40,1,FBP-YG-91.png,0.35,1.2,41,1,,,,,,,,,,,,,,,,,,,,,,,,,,,,,,,,,,,,,,,,,,,,,
,,,,,WIN24_032,21,Female,2024-02-02_12h32.05.648,jersey_experiment_5,2023.2.2,Win32,84.03361345,,,,,,,,,,,,,,,,376.3212,377.6151,377.6151,382.7448,return,0.7299,,48.95833333,0,55,55,51,1,FBP-PT-18.png,0.37,1.2,52,0.5,,,,,,,,,,,,,,,,,,,,,,,,,,,,,,,,,,,,,,,,,,,,,
,,,,,WIN24_032,21,Female,2024-02-02_12h32.05.648,jersey_experiment_5,2023.2.2,Win32,84.03361345,,,,,,,,,,,,,,,,382.7453,384.5447,384.5448,389.0511,return,1.5154,,49.47916667,0,56,56,26,1,FBP-RB-19.png,0.37,1.2,27,1,,,,,,,,,,,,,,,,,,,,,,,,,,,,,,,,,,,,,,,,,,,,,
,,,,,WIN24_032,21,Female,2024-02-02_12h32.05.648,jersey_experiment_5,2023.2.2,Win32,84.03361345,,,,,,,,,,,,,,,,389.0516,390.8508,390.8509,397.6867,return,2.1797,,49.34895833,0,57,57,16,1,FBP-RB-17.png,0.37,1.2,17,1,,,,,,,,,,,,,,,,,,,,,,,,,,,,,,,,,,,,,,,,,,,,,
,,,,,WIN24_032,21,Female,2024-02-02_12h32.05.648,jersey_experiment_5,2023.2.2,Win32,84.03361345,,,,,,,,,,,,,,,,397.6874,399.4866,399.4866,406.4985,return,4.9252,,75.390625,0,58,58,18,1,FBP-RB-17.png,0.43,1.2,19,1,,,,,,,,,,,,,,,,,,,,,,,,,,,,,,,,,,,,,,,,,,,,,
,,,,,WIN24_032,21,Female,2024-02-02_12h32.05.648,jersey_experiment_5,2023.2.2,Win32,84.03361345,,,,,,,,,,,,,,,,406.503,408.2986,408.2986,410.5693,return,0.6596,,50.26041667,0,59,59,30,1,FBP-YG-71.png,0.35,1.2,31,1,,,,,,,,,,,,,,,,,,,,,,,,,,,,,,,,,,,,,,,,,,,,,
,,,,,WIN24_032,21,Female,2024-02-02_12h32.05.648,jersey_experiment_5,2023.2.2,Win32,84.03361345,,,,,,,,,,,,,,,,410.5721,411.8635,411.8635,413.9696,return,0.5498,,74.47916667,,,,,,FBP-OG-19.png,0.4,1.2,13,0.5,0,0,0,12,1,,,,,,,,,,,,,,,,,,,,,,,,,,,,,,,,,,,,,,,,
,,,,,WIN24_032,21,Female,2024-02-02_12h32.05.648,jersey_experiment_5,2023.2.2,Win32,84.03361345,,,,,,,,,,,,,,,,413.9703,415.2636,415.2636,416.5813,return,0.5789,,74.47916667,,,,,,FBP-PT-71.png,0.37,1.2,47,0.5,0,1,1,46,1,,,,,,,,,,,,,,,,,,,,,,,,,,,,,,,,,,,,,,,,
,,,,,WIN24_032,21,Female,2024-02-02_12h32.05.648,jersey_experiment_5,2023.2.2,Win32,84.03361345,,,,,,,,,,,,,,,,416.5815,417.8755,417.8755,421.4759,return,1.1232,,24.34895833,,,,,,FBP-OG-17.png,0.35,1.2,1,0.5,0,2,2,0,1,,,,,,,,,,,,,,,,,,,,,,,,,,,,,,,,,,,,,,,,
,,,,,WIN24_032,21,Female,2024-02-02_12h32.05.648,jersey_experiment_5,2023.2.2,Win32,84.03361345,,,,,,,,,,,,,,,,421.476,422.77,422.77,426.77,return,1.8673,,74.21875,,,,,,FBP-PT-81.png,0.4,1.2,53,0.5,0,3,3,52,1,,,,,,,,,,,,,,,,,,,,,,,,,,,,,,,,,,,,,,,,
,,,,,WIN24_032,21,Female,2024-02-02_12h32.05.648,jersey_experiment_5,2023.2.2,Win32,84.03361345,,,,,,,,,,,,,,,,426.7706,428.064,428.0641,430.3704,return,0.6899,,97.13541667,,,,,,FBP-PT-81.png,0.43,1.2,54,0.5,0,4,4,53,1,,,,,,,,,,,,,,,,,,,,,,,,,,,,,,,,,,,,,,,,
,,,,,WIN24_032,21,Female,2024-02-02_12h32.05.648,jersey_experiment_5,2023.2.2,Win32,84.03361345,,,,,,,,,,,,,,,,430.3709,432.17,432.1701,439.1116,return,2.9563,,50,,,,,,FBP-RB-91.png,0.37,1.2,27,1,0,5,5,26,1,,,,,,,,,,,,,,,,,,,,,,,,,,,,,,,,,,,,,,,,
,,,,,WIN24_032,21,Female,2024-02-02_12h32.05.648,jersey_experiment_5,2023.2.2,Win32,84.03361345,,,,,,,,,,,,,,,,439.1159,440.9117,440.9117,446.1708,return,2.9912,,49.47916667,,,,,,FBP-YG-18.png,0.37,1.2,37,1,0,6,6,36,1,,,,,,,,,,,,,,,,,,,,,,,,,,,,,,,,,,,,,,,,
,,,,,WIN24_032,21,Female,2024-02-02_12h32.05.648,jersey_experiment_5,2023.2.2,Win32,84.03361345,,,,,,,,,,,,,,,,446.1711,447.9707,447.9707,452.8649,return,3.1258,,50.13020833,,,,,,FBP-RB-81.png,0.37,1.2,22,1,0,7,7,21,1,,,,,,,,,,,,,,,,,,,,,,,,,,,,,,,,,,,,,,,,
,,,,,WIN24_032,21,Female,2024-02-02_12h32.05.648,jersey_experiment_5,2023.2.2,Win32,84.03361345,,,,,,,,,,,,,,,,452.8652,454.1591,454.1592,456.8534,return,0.6044,,94.40104167,,,,,,FBP-OG-19.png,0.45,1.2,15,0.5,0,8,8,14,1,,,,,,,,,,,,,,,,,,,,,,,,,,,,,,,,,,,,,,,,
,,,,,WIN24_032,21,Female,2024-02-02_12h32.05.648,jersey_experiment_5,2023.2.2,Win32,84.03361345,,,,,,,,,,,,,,,,456.8538,458.1475,458.1475,460.2418,return,0.6433,,95.44270833,,,,,,FBP-OG-18.png,0.45,1.2,10,0.5,0,9,9,9,1,,,,,,,,,,,,,,,,,,,,,,,,,,,,,,,,,,,,,,,,
,,,,,WIN24_032,21,Female,2024-02-02_12h32.05.648,jersey_experiment_5,2023.2.2,Win32,84.03361345,,,,,,,,,,,,,,,,460.2421,462.0419,462.042,465.795,return,0.7482,,96.61458333,,,,,,FBP-RB-91.png,0.43,1.2,29,1,0,10,10,28,1,,,,,,,,,,,,,,,,,,,,,,,,,,,,,,,,,,,,,,,,
,,,,,WIN24_032,21,Female,2024-02-02_12h32.05.648,jersey_experiment_5,2023.2.2,Win32,84.03361345,,,,,,,,,,,,,,,,465.7954,467.0892,467.0893,470.8893,return,0.7535,,40.234375,,,,,,FBP-PT-81.png,0.35,1.2,51,0.5,0,11,11,50,1,,,,,,,,,,,,,,,,,,,,,,,,,,,,,,,,,,,,,,,,
,,,,,WIN24_032,21,Female,2024-02-02_12h32.05.648,jersey_experiment_5,2023.2.2,Win32,84.03361345,,,,,,,,,,,,,,,,470.8896,472.1837,472.1838,475.066,return,0.9776,,73.69791667,,,,,,FBP-OG-19.png,0.43,1.2,14,0.5,0,12,12,13,1,,,,,,,,,,,,,,,,,,,,,,,,,,,,,,,,,,,,,,,,
,,,,,WIN24_032,21,Female,2024-02-02_12h32.05.648,jersey_experiment_5,2023.2.2,Win32,84.03361345,,,,,,,,,,,,,,,,475.0662,476.3599,476.3599,478.9483,return,0.8283,,50.65104167,,,,,,FBP-OG-17.png,0.37,1.2,2,0.5,0,13,13,1,1,,,,,,,,,,,,,,,,,,,,,,,,,,,,,,,,,,,,,,,,
,,,,,WIN24_032,21,Female,2024-02-02_12h32.05.648,jersey_experiment_5,2023.2.2,Win32,84.03361345,,,,,,,,,,,,,,,,478.9487,480.2425,480.2425,484.984,return,0.8144,,59.24479167,,,,,,FBP-OG-19.png,0.37,1.2,12,0.5,0,14,14,11,1,,,,,,,,,,,,,,,,,,,,,,,,,,,,,,,,,,,,,,,,
,,,,,WIN24_032,21,Female,2024-02-02_12h32.05.648,jersey_experiment_5,2023.2.2,Win32,84.03361345,,,,,,,,,,,,,,,,484.9846,486.278,486.278,493.7371,return,5.601,,34.24479167,,,,,,FBP-PT-91.png,0.35,1.2,56,0.5,0,15,15,55,1,,,,,,,,,,,,,,,,,,,,,,,,,,,,,,,,,,,,,,,,
,,,,,WIN24_032,21,Female,2024-02-02_12h32.05.648,jersey_experiment_5,2023.2.2,Win32,84.03361345,,,,,,,,,,,,,,,,493.7374,495.5373,495.5373,498.0668,return,0.8191,,96.22395833,,,,,,FBP-RB-81.png,0.45,1.2,25,1,0,16,16,24,1,,,,,,,,,,,,,,,,,,,,,,,,,,,,,,,,,,,,,,,,
,,,,,WIN24_032,21,Female,2024-02-02_12h32.05.648,jersey_experiment_5,2023.2.2,Win32,84.03361345,,,,,,,,,,,,,,,,498.067,499.8668,499.8669,502.5375,return,1.1627,,96.875,,,,,,FBP-RB-81.png,0.4,1.2,23,1,0,17,17,22,1,,,,,,,,,,,,,,,,,,,,,,,,,,,,,,,,,,,,,,,,
,,,,,WIN24_032,21,Female,2024-02-02_12h32.05.648,jersey_experiment_5,2023.2.2,Win32,84.03361345,,,,,,,,,,,,,,,,502.5377,504.3376,504.3376,509.1377,return,3.2548,,61.71875,,,,,,FBP-YG-18.png,0.35,1.2,36,1,0,18,18,35,1,,,,,,,,,,,,,,,,,,,,,,,,,,,,,,,,,,,,,,,,
,,,,,WIN24_032,21,Female,2024-02-02_12h32.05.648,jersey_experiment_5,2023.2.2,Win32,84.03361345,,,,,,,,,,,,,,,,509.138,510.4319,510.4319,516.2675,return,1.7768,,87.23958333,,,,,,FBP-PT-71.png,0.4,1.2,48,0.5,0,19,19,47,1,,,,,,,,,,,,,,,,,,,,,,,,,,,,,,,,,,,,,,,,
,,,,,WIN24_032,21,Female,2024-02-02_12h32.05.648,jersey_experiment_5,2023.2.2,Win32,84.03361345,,,,,,,,,,,,,,,,516.2679,517.5616,517.5617,522.0441,return,0.7156,,50.390625,,,,,,FBP-OG-19.png,0.35,1.2,11,0.5,0,20,20,10,1,,,,,,,,,,,,,,,,,,,,,,,,,,,,,,,,,,,,,,,,
,,,,,WIN24_032,21,Female,2024-02-02_12h32.05.648,jersey_experiment_5,2023.2.2,Win32,84.03361345,,,,,,,,,,,,,,,,522.0445,523.8441,523.8442,526.0914,return,0.8824,,49.86979167,,,,,,FBP-RB-91.png,0.35,1.2,26,1,0,21,21,25,1,,,,,,,,,,,,,,,,,,,,,,,,,,,,,,,,,,,,,,,,
,,,,,WIN24_032,21,Female,2024-02-02_12h32.05.648,jersey_experiment_5,2023.2.2,Win32,84.03361345,,,,,,,,,,,,,,,,526.0918,527.3857,527.3857,530.9387,return,0.7535,,67.578125,,,,,,FBP-PT-81.png,0.37,1.2,52,0.5,0,22,22,51,1,,,,,,,,,,,,,,,,,,,,,,,,,,,,,,,,,,,,,,,,
,,,,,WIN24_032,21,Female,2024-02-02_12h32.05.648,jersey_experiment_5,2023.2.2,Win32,84.03361345,,,,,,,,,,,,,,,,530.9391,532.2327,532.2327,537.2682,return,2.5705,,88.93229167,,,,,,FBP-PT-91.png,0.4,1.2,58,0.5,0,23,23,57,1,,,,,,,,,,,,,,,,,,,,,,,,,,,,,,,,,,,,,,,,
,,,,,WIN24_032,21,Female,2024-02-02_12h32.05.648,jersey_experiment_5,2023.2.2,Win32,84.03361345,,,,,,,,,,,,,,,,537.2685,538.5624,538.5624,542.9037,return,2.7074,,93.75,,,,,,FBP-OG-17.png,0.43,1.2,4,0.5,0,24,24,3,1,,,,,,,,,,,,,,,,,,,,,,,,,,,,,,,,,,,,,,,,
,,,,,WIN24_032,21,Female,2024-02-02_12h32.05.648,jersey_experiment_5,2023.2.2,Win32,84.03361345,,,,,,,,,,,,,,,,542.9041,544.1979,544.198,547.0332,return,0.9653,,50.52083333,,,,,,FBP-OG-18.png,0.37,1.2,7,0.5,0,25,25,6,1,,,,,,,,,,,,,,,,,,,,,,,,,,,,,,,,,,,,,,,,
,,,,,WIN24_032,21,Female,2024-02-02_12h32.05.648,jersey_experiment_5,2023.2.2,Win32,84.03361345,,,,,,,,,,,,,,,,547.0335,548.3276,548.3277,554.7278,return,4.6381,,74.47916667,,,,,,FBP-PT-81.png,0.45,1.2,55,0.5,0,26,26,54,1,,,,,,,,,,,,,,,,,,,,,,,,,,,,,,,,,,,,,,,,
,,,,,WIN24_032,21,Female,2024-02-02_12h32.05.648,jersey_experiment_5,2023.2.2,Win32,84.03361345,,,,,,,,,,,,,,,,554.736,556.5278,556.5278,560.4104,return,2.0952,,92.31770833,,,,,,FBP-YG-18.png,0.45,1.2,40,1,0,27,27,39,1,,,,,,,,,,,,,,,,,,,,,,,,,,,,,,,,,,,,,,,,
,,,,,WIN24_032,21,Female,2024-02-02_12h32.05.648,jersey_experiment_5,2023.2.2,Win32,84.03361345,,,,,,,,,,,,,,,,560.4109,561.7045,561.7045,564.787,return,1.1598,,97.78645833,,,,,,FBP-PT-71.png,0.45,1.2,50,0.5,0,28,28,49,1,,,,,,,,,,,,,,,,,,,,,,,,,,,,,,,,,,,,,,,,
,,,,,WIN24_032,21,Female,2024-02-02_12h32.05.648,jersey_experiment_5,2023.2.2,Win32,84.03361345,,,,,,,,,,,,,,,,564.7878,566.587,566.587,569.5401,return,0.8531,,97.78645833,,,,,,FBP-RB-71.png,0.4,1.2,18,1,0,29,29,17,1,,,,,,,,,,,,,,,,,,,,,,,,,,,,,,,,,,,,,,,,
,,,,,WIN24_032,21,Female,2024-02-02_12h32.05.648,jersey_experiment_5,2023.2.2,Win32,84.03361345,,,,,,,,,,,,,,,,569.5403,571.3401,571.3402,579.7402,return,5.9522,,74.34895833,,,,,,FBP-YG-17.png,0.4,1.2,33,1,0,30,30,32,1,,,,,,,,,,,,,,,,,,,,,,,,,,,,,,,,,,,,,,,,
,,,,,WIN24_032,21,Female,2024-02-02_12h32.05.648,jersey_experiment_5,2023.2.2,Win32,84.03361345,,,,,,,,,,,,,,,,579.7447,581.5408,581.5409,585.8937,return,1.6746,,74.73958333,,,,,,FBP-YG-19.png,0.45,1.2,45,1,0,31,31,44,1,,,,,,,,,,,,,,,,,,,,,,,,,,,,,,,,,,,,,,,,
,,,,,WIN24_032,21,Female,2024-02-02_12h32.05.648,jersey_experiment_5,2023.2.2,Win32,84.03361345,,,,,,,,,,,,,,,,585.8939,587.6936,587.6937,589.3174,return,0.6046,,74.73958333,,,,,,FBP-YG-17.png,0.43,1.2,34,1,0,32,32,33,1,,,,,,,,,,,,,,,,,,,,,,,,,,,,,,,,,,,,,,,,
,,,,,WIN24_032,21,Female,2024-02-02_12h32.05.648,jersey_experiment_5,2023.2.2,Win32,84.03361345,,,,,,,,,,,,,,,,589.318,590.6114,590.6115,595.6705,return,0.5917,,74.73958333,,,,,,FBP-OG-18.png,0.4,1.2,8,0.5,0,33,33,7,1,,,,,,,,,,,,,,,,,,,,,,,,,,,,,,,,,,,,,,,,
,,,,,WIN24_032,21,Female,2024-02-02_12h32.05.648,jersey_experiment_5,2023.2.2,Win32,84.03361345,,,,,,,,,,,,,,,,595.6709,596.9645,596.9646,600.5883,return,1.2002,,96.09375,,,,,,FBP-OG-18.png,0.43,1.2,9,0.5,0,34,34,8,1,,,,,,,,,,,,,,,,,,,,,,,,,,,,,,,,,,,,,,,,
,,,,,WIN24_032,21,Female,2024-02-02_12h32.05.648,jersey_experiment_5,2023.2.2,Win32,84.03361345,,,,,,,,,,,,,,,,600.5885,602.3887,602.3888,610.5888,return,0.8022,,75.26041667,,,,,,FBP-RB-71.png,0.37,1.2,17,1,0,35,35,16,1,,,,,,,,,,,,,,,,,,,,,,,,,,,,,,,,,,,,,,,,
,,,,,WIN24_032,21,Female,2024-02-02_12h32.05.648,jersey_experiment_5,2023.2.2,Win32,84.03361345,,,,,,,,,,,,,,,,610.5892,612.3889,612.3889,615.0125,return,1.3472,,94.40104167,,,,,,FBP-RB-71.png,0.43,1.2,19,1,0,36,36,18,1,,,,,,,,,,,,,,,,,,,,,,,,,,,,,,,,,,,,,,,,
,,,,,WIN24_032,21,Female,2024-02-02_12h32.05.648,jersey_experiment_5,2023.2.2,Win32,84.03361345,,,,,,,,,,,,,,,,615.013,616.8125,616.8125,620.0361,return,0.7706,,61.97916667,,,,,,FBP-YG-18.png,0.4,1.2,38,1,0,37,37,37,1,,,,,,,,,,,,,,,,,,,,,,,,,,,,,,,,,,,,,,,,
,,,,,WIN24_032,21,Female,2024-02-02_12h32.05.648,jersey_experiment_5,2023.2.2,Win32,84.03361345,,,,,,,,,,,,,,,,620.0365,621.3302,621.3303,623.8951,return,0.8232,,50.13020833,,,,,,FBP-PT-71.png,0.35,1.2,46,0.5,0,38,38,45,1,,,,,,,,,,,,,,,,,,,,,,,,,,,,,,,,,,,,,,,,
,,,,,WIN24_032,21,Female,2024-02-02_12h32.05.648,jersey_experiment_5,2023.2.2,Win32,84.03361345,,,,,,,,,,,,,,,,623.8954,625.6951,625.6952,628.4017,return,0.9501,,84.24479167,,,,,,FBP-YG-17.png,0.45,1.2,35,1,0,39,39,34,1,,,,,,,,,,,,,,,,,,,,,,,,,,,,,,,,,,,,,,,,
,,,,,WIN24_032,21,Female,2024-02-02_12h32.05.648,jersey_experiment_5,2023.2.2,Win32,84.03361345,,,,,,,,,,,,,,,,628.4022,630.2011,630.2011,633.2601,return,0.7999,,32.16145833,,,,,,FBP-YG-19.png,0.35,1.2,41,1,0,40,40,40,1,,,,,,,,,,,,,,,,,,,,,,,,,,,,,,,,,,,,,,,,
,,,,,WIN24_032,21,Female,2024-02-02_12h32.05.648,jersey_experiment_5,2023.2.2,Win32,84.03361345,,,,,,,,,,,,,,,,633.2605,634.5543,634.5544,640.1075,return,1.636,,88.28125,,,,,,FBP-PT-91.png,0.43,1.2,59,0.5,0,41,41,58,1,,,,,,,,,,,,,,,,,,,,,,,,,,,,,,,,,,,,,,,,
,,,,,WIN24_032,21,Female,2024-02-02_12h32.05.648,jersey_experiment_5,2023.2.2,Win32,84.03361345,,,,,,,,,,,,,,,,640.1079,641.9075,641.9075,646.1194,return,2.6242,,62.76041667,,,,,,FBP-YG-19.png,0.37,1.2,42,1,0,42,42,41,1,,,,,,,,,,,,,,,,,,,,,,,,,,,,,,,,,,,,,,,,
,,,,,WIN24_032,21,Female,2024-02-02_12h32.05.648,jersey_experiment_5,2023.2.2,Win32,84.03361345,,,,,,,,,,,,,,,,646.1255,647.9196,647.9196,653.1433,return,3.6149,,82.55208333,,,,,,FBP-RB-81.png,0.43,1.2,24,1,0,43,43,23,1,,,,,,,,,,,,,,,,,,,,,,,,,,,,,,,,,,,,,,,,
,,,,,WIN24_032,21,Female,2024-02-02_12h32.05.648,jersey_experiment_5,2023.2.2,Win32,84.03361345,,,,,,,,,,,,,,,,653.1435,654.4374,654.4374,657.9316,return,0.9646,,39.19270833,,,,,,FBP-OG-18.png,0.35,1.2,6,0.5,0,44,44,5,1,,,,,,,,,,,,,,,,,,,,,,,,,,,,,,,,,,,,,,,,
,,,,,WIN24_032,21,Female,2024-02-02_12h32.05.648,jersey_experiment_5,2023.2.2,Win32,84.03361345,,,,,,,,,,,,,,,,657.9319,659.2258,659.2258,664.2496,return,0.7303,,50.390625,,,,,,FBP-PT-91.png,0.37,1.2,57,0.5,0,45,45,56,1,,,,,,,,,,,,,,,,,,,,,,,,,,,,,,,,,,,,,,,,
,,,,,WIN24_032,21,Female,2024-02-02_12h32.05.648,jersey_experiment_5,2023.2.2,Win32,84.03361345,,,,,,,,,,,,,,,,664.2498,666.0495,666.0495,670.6263,return,2.7113,,94.27083333,,,,,,FBP-RB-71.png,0.45,1.2,20,1,0,46,46,19,1,,,,,,,,,,,,,,,,,,,,,,,,,,,,,,,,,,,,,,,,
,,,,,WIN24_032,21,Female,2024-02-02_12h32.05.648,jersey_experiment_5,2023.2.2,Win32,84.03361345,,,,,,,,,,,,,,,,670.6264,672.4266,672.4266,677.0264,return,2.361,,30.33854167,,,,,,FBP-RB-71.png,0.35,1.2,16,1,0,47,47,15,1,,,,,,,,,,,,,,,,,,,,,,,,,,,,,,,,,,,,,,,,
,,,,,WIN24_032,21,Female,2024-02-02_12h32.05.648,jersey_experiment_5,2023.2.2,Win32,84.03361345,,,,,,,,,,,,,,,,677.0268,678.3208,678.3209,686.2974,return,3.3183,,77.99479167,,,,,,FBP-PT-91.png,0.45,1.2,60,0.5,0,48,48,59,1,,,,,,,,,,,,,,,,,,,,,,,,,,,,,,,,,,,,,,,,
,,,,,WIN24_032,21,Female,2024-02-02_12h32.05.648,jersey_experiment_5,2023.2.2,Win32,84.03361345,,,,,,,,,,,,,,,,686.2977,687.5917,687.5917,690.2622,return,0.9097,,97.91666667,,,,,,FBP-OG-17.png,0.45,1.2,5,0.5,0,49,49,4,1,,,,,,,,,,,,,,,,,,,,,,,,,,,,,,,,,,,,,,,,
,,,,,WIN24_032,21,Female,2024-02-02_12h32.05.648,jersey_experiment_5,2023.2.2,Win32,84.03361345,,,,,,,,,,,,,,,,690.2625,692.0624,692.0624,700.3215,return,6.6674,,88.54166667,,,,,,FBP-RB-81.png,0.35,1.2,21,1,0,50,50,20,1,,,,,,,,,,,,,,,,,,,,,,,,,,,,,,,,,,,,,,,,
,,,,,WIN24_032,21,Female,2024-02-02_12h32.05.648,jersey_experiment_5,2023.2.2,Win32,84.03361345,,,,,,,,,,,,,,,,700.322,702.1215,702.1215,705.8746,return,1.9715,,61.45833333,,,,,,FBP-YG-17.png,0.37,1.2,32,1,0,51,51,31,1,,,,,,,,,,,,,,,,,,,,,,,,,,,,,,,,,,,,,,,,
,,,,,WIN24_032,21,Female,2024-02-02_12h32.05.648,jersey_experiment_5,2023.2.2,Win32,84.03361345,,,,,,,,,,,,,,,,705.8748,707.6747,707.6748,711.4749,return,0.7013,,60.02604167,,,,,,FBP-YG-17.png,0.35,1.2,31,1,0,52,52,30,1,,,,,,,,,,,,,,,,,,,,,,,,,,,,,,,,,,,,,,,,
,,,,,WIN24_032,21,Female,2024-02-02_12h32.05.648,jersey_experiment_5,2023.2.2,Win32,84.03361345,,,,,,,,,,,,,,,,711.475,713.2748,713.2748,716.2163,return,0.8473,,75,,,,,,FBP-RB-91.png,0.45,1.2,30,1,0,53,53,29,1,,,,,,,,,,,,,,,,,,,,,,,,,,,,,,,,,,,,,,,,
,,,,,WIN24_032,21,Female,2024-02-02_12h32.05.648,jersey_experiment_5,2023.2.2,Win32,84.03361345,,,,,,,,,,,,,,,,716.2165,718.0163,718.0164,721.3931,return,0.9616,,75.78125,,,,,,FBP-RB-91.png,0.4,1.2,28,1,0,54,54,27,1,,,,,,,,,,,,,,,,,,,,,,,,,,,,,,,,,,,,,,,,
,,,,,WIN24_032,21,Female,2024-02-02_12h32.05.648,jersey_experiment_5,2023.2.2,Win32,84.03361345,,,,,,,,,,,,,,,,721.3934,722.687,722.687,727.9461,return,0.6672,,75,,,,,,FBP-OG-17.png,0.4,1.2,3,0.5,0,55,55,2,1,,,,,,,,,,,,,,,,,,,,,,,,,,,,,,,,,,,,,,,,
,,,,,WIN24_032,21,Female,2024-02-02_12h32.05.648,jersey_experiment_5,2023.2.2,Win32,84.03361345,,,,,,,,,,,,,,,,727.9464,729.7461,729.7462,732.2756,return,0.853,,89.84375,,,,,,FBP-YG-18.png,0.43,1.2,39,1,0,56,56,38,1,,,,,,,,,,,,,,,,,,,,,,,,,,,,,,,,,,,,,,,,
,,,,,WIN24_032,21,Female,2024-02-02_12h32.05.648,jersey_experiment_5,2023.2.2,Win32,84.03361345,,,,,,,,,,,,,,,,732.2758,734.0756,734.0757,737.5465,return,0.8229,,83.59375,,,,,,FBP-YG-19.png,0.43,1.2,44,1,0,57,57,43,1,,,,,,,,,,,,,,,,,,,,,,,,,,,,,,,,,,,,,,,,
,,,,,WIN24_032,21,Female,2024-02-02_12h32.05.648,jersey_experiment_5,2023.2.2,Win32,84.03361345,,,,,,,,,,,,,,,,737.5467,739.3464,739.3465,742.2292,return,0.7347,,61.97916667,,,,,,FBP-YG-19.png,0.4,1.2,43,1,0,58,58,42,1,,,,,,,,,,,,,,,,,,,,,,,,,,,,,,,,,,,,,,,,
,,,,,WIN24_032,21,Female,2024-02-02_12h32.05.648,jersey_experiment_5,2023.2.2,Win32,84.03361345,,,,,,,,,,,,,,,,742.2297,743.5231,743.5231,747.9703,return,0.961,,78.64583333,,,,,,FBP-PT-71.png,0.43,1.2,49,0.5,0,59,59,48,1,,,,,,,,,,,,,,,,,,,,,,,,,,,,,,,,,,,,,,,,
,,,,,WIN24_032,21,Female,2024-02-02_12h32.05.648,jersey_experiment_5,2023.2.2,Win32,84.03361345,,,,,,,,,,,,,,,,,,,,,,,,,,,,,,,,,,,,,,,747.9709,867.9758,,,,,,,,,,,,,,,,,,,,,,,,,,,,,,,,,,,,,,
,,,,,WIN24_032,21,Female,2024-02-02_12h32.05.648,jersey_experiment_5,2023.2.2,Win32,84.03361345,,,,,,,,,,,,,,,,,,,,,,,,,,,,,,,,,,,,,,,,,867.9759,881.1292,return,13.1399,,,,,,,,,,,,,,,,,,,,,,,,,,,,,,,,,,
,,,,,WIN24_032,21,Female,2024-02-02_12h32.05.648,jersey_experiment_5,2023.2.2,Win32,84.03361345,,,,,,,,,,,,,,,,881.1396,882.9403,882.9403,887.106,return,0.7623,,92.44791667,,,,,,FBP-PT-18.png,0.45,1.2,55,1,,,,,,,,,,,,,0,0,0,54,1,,,,,,,,,,,,,,,,,,,,,,,,,,,,
,,,,,WIN24_032,21,Female,2024-02-02_12h32.05.648,jersey_experiment_5,2023.2.2,Win32,84.03361345,,,,,,,,,,,,,,,,887.1066,888.9052,888.9052,894.329,return,3.1656,,74.21875,,,,,,FBP-OG-71.png,0.43,1.2,4,1,,,,,,,,,,,,,0,1,1,3,1,,,,,,,,,,,,,,,,,,,,,,,,,,,,
,,,,,WIN24_032,21,Female,2024-02-02_12h32.05.648,jersey_experiment_5,2023.2.2,Win32,84.03361345,,,,,,,,,,,,,,,,894.3293,896.1289,896.129,898.7762,return,1.2494,,61.71875,,,,,,FBP-PT-19.png,0.4,1.2,58,1,,,,,,,,,,,,,0,2,2,57,1,,,,,,,,,,,,,,,,,,,,,,,,,,,,
,,,,,WIN24_032,21,Female,2024-02-02_12h32.05.648,jersey_experiment_5,2023.2.2,Win32,84.03361345,,,,,,,,,,,,,,,,898.7771,900.0703,900.0703,904.5057,return,2.2711,,84.89583333,,,,,,FBP-RB-19.png,0.45,1.2,30,0.5,,,,,,,,,,,,,0,3,3,29,1,,,,,,,,,,,,,,,,,,,,,,,,,,,,
,,,,,WIN24_032,21,Female,2024-02-02_12h32.05.648,jersey_experiment_5,2023.2.2,Win32,84.03361345,,,,,,,,,,,,,,,,904.5059,906.3058,906.3059,908.9882,return,0.8943,,29.42708333,,,,,,FBP-PT-19.png,0.37,1.2,57,1,,,,,,,,,,,,,0,4,4,56,1,,,,,,,,,,,,,,,,,,,,,,,,,,,,
,,,,,WIN24_032,21,Female,2024-02-02_12h32.05.648,jersey_experiment_5,2023.2.2,Win32,84.03361345,,,,,,,,,,,,,,,,908.9885,910.2824,910.2824,913.1766,return,0.6957,,74.86979167,,,,,,FBP-RB-19.png,0.43,1.2,29,0.5,,,,,,,,,,,,,0,5,5,28,1,,,,,,,,,,,,,,,,,,,,,,,,,,,,
,,,,,WIN24_032,21,Female,2024-02-02_12h32.05.648,jersey_experiment_5,2023.2.2,Win32,84.03361345,,,,,,,,,,,,,,,,913.177,914.4708,914.4709,918.071,return,1.0381,,50,,,,,,FBP-YG-91.png,0.37,1.2,42,0.5,,,,,,,,,,,,,0,6,6,41,1,,,,,,,,,,,,,,,,,,,,,,,,,,,,
,,,,,WIN24_032,21,Female,2024-02-02_12h32.05.648,jersey_experiment_5,2023.2.2,Win32,84.03361345,,,,,,,,,,,,,,,,918.0713,919.8712,919.8712,924.7066,return,1.1251,,86.71875,,,,,,FBP-OG-81.png,0.45,1.2,10,1,,,,,,,,,,,,,0,7,7,9,1,,,,,,,,,,,,,,,,,,,,,,,,,,,,
,,,,,WIN24_032,21,Female,2024-02-02_12h32.05.648,jersey_experiment_5,2023.2.2,Win32,84.03361345,,,,,,,,,,,,,,,,924.7075,926.0006,926.0006,940.0835,return,11.6306,,37.5,,,,,,FBP-YG-71.png,0.37,1.2,32,0.5,,,,,,,,,,,,,0,8,8,31,1,,,,,,,,,,,,,,,,,,,,,,,,,,,,
,,,,,WIN24_032,21,Female,2024-02-02_12h32.05.648,jersey_experiment_5,2023.2.2,Win32,84.03361345,,,,,,,,,,,,,,,,940.0839,941.8838,941.8838,950.5075,return,0.8378,,74.34895833,,,,,,FBP-PT-17.png,0.45,1.2,50,1,,,,,,,,,,,,,0,9,9,49,1,,,,,,,,,,,,,,,,,,,,,,,,,,,,
,,,,,WIN24_032,21,Female,2024-02-02_12h32.05.648,jersey_experiment_5,2023.2.2,Win32,84.03361345,,,,,,,,,,,,,,,,950.5078,952.3076,952.3076,957.1901,return,2.6515,,68.61979167,,,,,,FBP-OG-81.png,0.43,1.2,9,1,,,,,,,,,,,,,0,10,10,8,1,,,,,,,,,,,,,,,,,,,,,,,,,,,,
,,,,,WIN24_032,21,Female,2024-02-02_12h32.05.648,jersey_experiment_5,2023.2.2,Win32,84.03361345,,,,,,,,,,,,,,,,957.1904,958.4842,958.4843,961.5433,return,0.7089,,25.13020833,,,,,,FBP-RB-19.png,0.35,1.2,26,0.5,,,,,,,,,,,,,0,11,11,25,1,,,,,,,,,,,,,,,,,,,,,,,,,,,,
,,,,,WIN24_032,21,Female,2024-02-02_12h32.05.648,jersey_experiment_5,2023.2.2,Win32,84.03361345,,,,,,,,,,,,,,,,961.544,963.3436,963.3436,970.2023,return,3.4239,,74.47916667,,,,,,FBP-PT-19.png,0.43,1.2,59,1,,,,,,,,,,,,,0,12,12,58,1,,,,,,,,,,,,,,,,,,,,,,,,,,,,
,,,,,WIN24_032,21,Female,2024-02-02_12h32.05.648,jersey_experiment_5,2023.2.2,Win32,84.03361345,,,,,,,,,,,,,,,,970.2066,971.5083,971.5083,974.7909,return,0.8273,,49.34895833,,,,,,FBP-RB-17.png,0.35,1.2,16,0.5,,,,,,,,,,,,,0,13,13,15,1,,,,,,,,,,,,,,,,,,,,,,,,,,,,
,,,,,WIN24_032,21,Female,2024-02-02_12h32.05.648,jersey_experiment_5,2023.2.2,Win32,84.03361345,,,,,,,,,,,,,,,,974.7912,976.0848,976.085,980.4851,return,1.9702,,48.95833333,,,,,,FBP-RB-19.png,0.37,1.2,27,0.5,,,,,,,,,,,,,0,14,14,26,1,,,,,,,,,,,,,,,,,,,,,,,,,,,,
,,,,,WIN24_032,21,Female,2024-02-02_12h32.05.648,jersey_experiment_5,2023.2.2,Win32,84.03361345,,,,,,,,,,,,,,,,980.4854,981.7795,981.7795,988.4502,return,2.3257,,48.4375,,,,,,FBP-YG-81.png,0.37,1.2,37,0.5,,,,,,,,,,,,,0,15,15,36,1,,,,,,,,,,,,,,,,,,,,,,,,,,,,
,,,,,WIN24_032,21,Female,2024-02-02_12h32.05.648,jersey_experiment_5,2023.2.2,Win32,84.03361345,,,,,,,,,,,,,,,,988.4505,989.7445,989.7445,993.2268,return,1.2592,,57.55208333,,,,,,FBP-RB-18.png,0.4,1.2,23,0.5,,,,,,,,,,,,,0,16,16,22,1,,,,,,,,,,,,,,,,,,,,,,,,,,,,
,,,,,WIN24_032,21,Female,2024-02-02_12h32.05.648,jersey_experiment_5,2023.2.2,Win32,84.03361345,,,,,,,,,,,,,,,,993.2277,994.5208,994.5208,997.0505,return,0.7645,,74.609375,,,,,,FBP-RB-17.png,0.43,1.2,19,0.5,,,,,,,,,,,,,0,17,17,18,1,,,,,,,,,,,,,,,,,,,,,,,,,,,,
,,,,,WIN24_032,21,Female,2024-02-02_12h32.05.648,jersey_experiment_5,2023.2.2,Win32,84.03361345,,,,,,,,,,,,,,,,997.0509,998.3446,998.3446,1001.6389,return,1.1209,,69.140625,,,,,,FBP-RB-17.png,0.4,1.2,18,0.5,,,,,,,,,,,,,0,18,18,17,1,,,,,,,,,,,,,,,,,,,,,,,,,,,,
,,,,,WIN24_032,21,Female,2024-02-02_12h32.05.648,jersey_experiment_5,2023.2.2,Win32,84.03361345,,,,,,,,,,,,,,,,1001.6393,1002.9331,1002.9331,1005.4626,return,0.7784,,86.58854167,,,,,,FBP-YG-91.png,0.45,1.2,45,0.5,,,,,,,,,,,,,0,19,19,44,1,,,,,,,,,,,,,,,,,,,,,,,,,,,,
,,,,,WIN24_032,21,Female,2024-02-02_12h32.05.648,jersey_experiment_5,2023.2.2,Win32,84.03361345,,,,,,,,,,,,,,,,1005.4631,1007.2627,1007.2628,1010.2626,return,0.9323,,50.13020833,,,,,,FBP-OG-81.png,0.37,1.2,7,1,,,,,,,,,,,,,0,20,20,6,1,,,,,,,,,,,,,,,,,,,,,,,,,,,,
,,,,,WIN24_032,21,Female,2024-02-02_12h32.05.648,jersey_experiment_5,2023.2.2,Win32,84.03361345,,,,,,,,,,,,,,,,1010.2628,1012.0628,1012.0629,1014.2157,return,0.7086,,49.86979167,,,,,,FBP-OG-91.png,0.37,1.2,12,1,,,,,,,,,,,,,0,21,21,11,1,,,,,,,,,,,,,,,,,,,,,,,,,,,,
,,,,,WIN24_032,21,Female,2024-02-02_12h32.05.648,jersey_experiment_5,2023.2.2,Win32,84.03361345,,,,,,,,,,,,,,,,1014.216,1015.51,1015.51,1018.7102,return,0.7079,,50.26041667,,,,,,FBP-RB-17.png,0.37,1.2,17,0.5,,,,,,,,,,,,,0,22,22,16,1,,,,,,,,,,,,,,,,,,,,,,,,,,,,
,,,,,WIN24_032,21,Female,2024-02-02_12h32.05.648,jersey_experiment_5,2023.2.2,Win32,84.03361345,,,,,,,,,,,,,,,,1018.7104,1020.0043,1020.0044,1022.9454,return,0.6679,,49.73958333,,,,,,FBP-YG-91.png,0.35,1.2,41,0.5,,,,,,,,,,,,,0,23,23,40,1,,,,,,,,,,,,,,,,,,,,,,,,,,,,
,,,,,WIN24_032,21,Female,2024-02-02_12h32.05.648,jersey_experiment_5,2023.2.2,Win32,84.03361345,,,,,,,,,,,,,,,,1022.9458,1024.2397,1024.2397,1028.6045,return,0.7058,,80.33854167,,,,,,FBP-YG-91.png,0.43,1.2,44,0.5,,,,,,,,,,,,,0,24,24,43,1,,,,,,,,,,,,,,,,,,,,,,,,,,,,
,,,,,WIN24_032,21,Female,2024-02-02_12h32.05.648,jersey_experiment_5,2023.2.2,Win32,84.03361345,,,,,,,,,,,,,,,,1028.6048,1029.8987,1029.8988,1034.4402,return,0.8258,,39.453125,,,,,,FBP-RB-18.png,0.35,1.2,21,0.5,,,,,,,,,,,,,0,25,25,20,1,,,,,,,,,,,,,,,,,,,,,,,,,,,,
,,,,,WIN24_032,21,Female,2024-02-02_12h32.05.648,jersey_experiment_5,2023.2.2,Win32,84.03361345,,,,,,,,,,,,,,,,1034.4407,1036.2402,1036.2403,1041.2051,return,0.7462,,49.73958333,,,,,,FBP-OG-71.png,0.37,1.2,2,1,,,,,,,,,,,,,0,26,26,1,1,,,,,,,,,,,,,,,,,,,,,,,,,,,,
,,,,,WIN24_032,21,Female,2024-02-02_12h32.05.648,jersey_experiment_5,2023.2.2,Win32,84.03361345,,,,,,,,,,,,,,,,1041.2057,1043.0051,1043.0051,1048.6995,return,0.7177,,87.890625,,,,,,FBP-PT-19.png,0.45,1.2,60,1,,,,,,,,,,,,,0,27,27,59,1,,,,,,,,,,,,,,,,,,,,,,,,,,,,
,,,,,WIN24_032,21,Female,2024-02-02_12h32.05.648,jersey_experiment_5,2023.2.2,Win32,84.03361345,,,,,,,,,,,,,,,,1048.6999,1050.4995,1050.4996,1054.7467,return,2.612,,59.24479167,,,,,,FBP-OG-91.png,0.35,1.2,11,1,,,,,,,,,,,,,0,28,28,10,1,,,,,,,,,,,,,,,,,,,,,,,,,,,,
,,,,,WIN24_032,21,Female,2024-02-02_12h32.05.648,jersey_experiment_5,2023.2.2,Win32,84.03361345,,,,,,,,,,,,,,,,1054.747,1056.5467,1056.5468,1059.9117,return,0.9093,,82.68229167,,,,,,FBP-PT-17.png,0.43,1.2,49,1,,,,,,,,,,,,,0,29,29,48,1,,,,,,,,,,,,,,,,,,,,,,,,,,,,
,,,,,WIN24_032,21,Female,2024-02-02_12h32.05.648,jersey_experiment_5,2023.2.2,Win32,84.03361345,,,,,,,,,,,,,,,,1059.9122,1061.2057,1061.2058,1067.5121,return,2.8499,,61.58854167,,,,,,FBP-RB-18.png,0.37,1.2,22,0.5,,,,,,,,,,,,,0,30,30,21,1,,,,,,,,,,,,,,,,,,,,,,,,,,,,
,,,,,WIN24_032,21,Female,2024-02-02_12h32.05.648,jersey_experiment_5,2023.2.2,Win32,84.03361345,,,,,,,,,,,,,,,,1067.5126,1068.8061,1068.8061,1071.8767,return,0.7588,,83.203125,,,,,,FBP-YG-81.png,0.45,1.2,40,0.5,,,,,,,,,,,,,0,31,31,39,1,,,,,,,,,,,,,,,,,,,,,,,,,,,,
,,,,,WIN24_032,21,Female,2024-02-02_12h32.05.648,jersey_experiment_5,2023.2.2,Win32,84.03361345,,,,,,,,,,,,,,,,1071.8772,1073.677,1073.677,1075.9711,return,0.9251,,93.61979167,,,,,,FBP-OG-71.png,0.45,1.2,5,1,,,,,,,,,,,,,0,32,32,4,1,,,,,,,,,,,,,,,,,,,,,,,,,,,,
,,,,,WIN24_032,21,Female,2024-02-02_12h32.05.648,jersey_experiment_5,2023.2.2,Win32,84.03361345,,,,,,,,,,,,,,,,1075.9714,1077.7712,1077.7713,1080.4067,return,0.8151,,88.54166667,,,,,,FBP-OG-91.png,0.45,1.2,15,1,,,,,,,,,,,,,0,33,33,14,1,,,,,,,,,,,,,,,,,,,,,,,,,,,,
,,,,,WIN24_032,21,Female,2024-02-02_12h32.05.648,jersey_experiment_5,2023.2.2,Win32,84.03361345,,,,,,,,,,,,,,,,1080.4069,1081.7008,1081.7008,1085.9952,return,2.7308,,68.09895833,,,,,,FBP-YG-71.png,0.43,1.2,34,0.5,,,,,,,,,,,,,0,34,34,33,1,,,,,,,,,,,,,,,,,,,,,,,,,,,,
,,,,,WIN24_032,21,Female,2024-02-02_12h32.05.648,jersey_experiment_5,2023.2.2,Win32,84.03361345,,,,,,,,,,,,,,,,1085.9956,1087.7951,1087.7951,1100.1838,return,4.439,,43.88020833,,,,,,FBP-OG-71.png,0.35,1.2,1,1,,,,,,,,,,,,,0,35,35,0,1,,,,,,,,,,,,,,,,,,,,,,,,,,,,
,,,,,WIN24_032,21,Female,2024-02-02_12h32.05.648,jersey_experiment_5,2023.2.2,Win32,84.03361345,,,,,,,,,,,,,,,,1100.1841,1101.4782,1101.4782,1103.8662,return,0.7533,,50,,,,,,FBP-YG-91.png,0.4,1.2,43,0.5,,,,,,,,,,,,,0,36,36,42,1,,,,,,,,,,,,,,,,,,,,,,,,,,,,
,,,,,WIN24_032,21,Female,2024-02-02_12h32.05.648,jersey_experiment_5,2023.2.2,Win32,84.03361345,,,,,,,,,,,,,,,,1103.8665,1105.6664,1105.6665,1110.4666,return,1.3733,,89.453125,,,,,,FBP-OG-91.png,0.43,1.2,14,1,,,,,,,,,,,,,0,37,37,13,1,,,,,,,,,,,,,,,,,,,,,,,,,,,,
,,,,,WIN24_032,21,Female,2024-02-02_12h32.05.648,jersey_experiment_5,2023.2.2,Win32,84.03361345,,,,,,,,,,,,,,,,1110.4671,1111.7607,1111.7608,1113.8195,return,1.1143,,86.97916667,,,,,,FBP-RB-18.png,0.45,1.2,25,0.5,,,,,,,,,,,,,0,38,38,24,1,,,,,,,,,,,,,,,,,,,,,,,,,,,,
,,,,,WIN24_032,21,Female,2024-02-02_12h32.05.648,jersey_experiment_5,2023.2.2,Win32,84.03361345,,,,,,,,,,,,,,,,1113.8198,1115.6196,1115.6197,1119.4787,return,1.2041,,74.609375,,,,,,FBP-PT-17.png,0.4,1.2,48,1,,,,,,,,,,,,,0,39,39,47,1,,,,,,,,,,,,,,,,,,,,,,,,,,,,
,,,,,WIN24_032,21,Female,2024-02-02_12h32.05.648,jersey_experiment_5,2023.2.2,Win32,84.03361345,,,,,,,,,,,,,,,,1119.4791,1121.2787,1121.2787,1123.714,return,1.1021,,62.890625,,,,,,FBP-OG-81.png,0.4,1.2,8,1,,,,,,,,,,,,,0,40,40,7,1,,,,,,,,,,,,,,,,,,,,,,,,,,,,
,,,,,WIN24_032,21,Female,2024-02-02_12h32.05.648,jersey_experiment_5,2023.2.2,Win32,84.03361345,,,,,,,,,,,,,,,,1123.7144,1125.0083,1125.0084,1128.9849,return,0.7312,,29.94791667,,,,,,FBP-YG-81.png,0.35,1.2,36,0.5,,,,,,,,,,,,,0,41,41,35,1,,,,,,,,,,,,,,,,,,,,,,,,,,,,
,,,,,WIN24_032,21,Female,2024-02-02_12h32.05.648,jersey_experiment_5,2023.2.2,Win32,84.03361345,,,,,,,,,,,,,,,,1128.9852,1130.279,1130.279,1133.9147,return,1.3189,,51.171875,,,,,,FBP-YG-71.png,0.4,1.2,33,0.5,,,,,,,,,,,,,0,42,42,32,1,,,,,,,,,,,,,,,,,,,,,,,,,,,,
,,,,,WIN24_032,21,Female,2024-02-02_12h32.05.648,jersey_experiment_5,2023.2.2,Win32,84.03361345,,,,,,,,,,,,,,,,1133.9154,1135.7146,1135.7146,1143.5266,return,5.4742,,51.69270833,,,,,,FBP-PT-17.png,0.35,1.2,46,1,,,,,,,,,,,,,0,43,43,45,1,,,,,,,,,,,,,,,,,,,,,,,,,,,,
,,,,,WIN24_032,21,Female,2024-02-02_12h32.05.648,jersey_experiment_5,2023.2.2,Win32,84.03361345,,,,,,,,,,,,,,,,1143.5269,1144.8207,1144.8207,1149.3858,return,0.7419,,69.66145833,,,,,,FBP-YG-81.png,0.4,1.2,38,0.5,,,,,,,,,,,,,0,44,44,37,1,,,,,,,,,,,,,,,,,,,,,,,,,,,,
,,,,,WIN24_032,21,Female,2024-02-02_12h32.05.648,jersey_experiment_5,2023.2.2,Win32,84.03361345,,,,,,,,,,,,,,,,1149.3863,1150.6797,1150.6798,1152.821,return,0.7672,,75.13020833,,,,,,FBP-RB-18.png,0.43,1.2,24,0.5,,,,,,,,,,,,,0,45,45,23,1,,,,,,,,,,,,,,,,,,,,,,,,,,,,
,,,,,WIN24_032,21,Female,2024-02-02_12h32.05.648,jersey_experiment_5,2023.2.2,Win32,84.03361345,,,,,,,,,,,,,,,,1152.8212,1154.6213,1154.6214,1156.5389,return,0.7646,,75.13020833,,,,,,FBP-OG-71.png,0.4,1.2,3,1,,,,,,,,,,,,,0,46,46,2,1,,,,,,,,,,,,,,,,,,,,,,,,,,,,
,,,,,WIN24_032,21,Female,2024-02-02_12h32.05.648,jersey_experiment_5,2023.2.2,Win32,84.03361345,,,,,,,,,,,,,,,,1156.5393,1157.8332,1157.8332,1161.8334,return,0.661,,62.109375,,,,,,FBP-RB-19.png,0.4,1.2,28,0.5,,,,,,,,,,,,,0,47,47,27,1,,,,,,,,,,,,,,,,,,,,,,,,,,,,
,,,,,WIN24_032,21,Female,2024-02-02_12h32.05.648,jersey_experiment_5,2023.2.2,Win32,84.03361345,,,,,,,,,,,,,,,,1161.8341,1163.6331,1163.6331,1169.6922,return,3.1767,,43.09895833,,,,,,FBP-PT-18.png,0.37,1.2,52,1,,,,,,,,,,,,,0,48,48,51,1,,,,,,,,,,,,,,,,,,,,,,,,,,,,
,,,,,WIN24_032,21,Female,2024-02-02_12h32.05.648,jersey_experiment_5,2023.2.2,Win32,84.03361345,,,,,,,,,,,,,,,,1169.698,1171.4924,1171.4924,1174.3277,return,1.7526,,66.92708333,,,,,,FBP-PT-18.png,0.4,1.2,53,1,,,,,,,,,,,,,0,49,49,52,1,,,,,,,,,,,,,,,,,,,,,,,,,,,,
,,,,,WIN24_032,21,Female,2024-02-02_12h32.05.648,jersey_experiment_5,2023.2.2,Win32,84.03361345,,,,,,,,,,,,,,,,1174.328,1176.1277,1176.1278,1180.6456,return,2.6402,,50,,,,,,FBP-PT-19.png,0.35,1.2,56,1,,,,,,,,,,,,,0,50,50,55,1,,,,,,,,,,,,,,,,,,,,,,,,,,,,
,,,,,WIN24_032,21,Female,2024-02-02_12h32.05.648,jersey_experiment_5,2023.2.2,Win32,84.03361345,,,,,,,,,,,,,,,,1180.6459,1182.4461,1182.4462,1184.3635,return,0.6942,,49.609375,,,,,,FBP-PT-18.png,0.35,1.2,51,1,,,,,,,,,,,,,0,51,51,50,1,,,,,,,,,,,,,,,,,,,,,,,,,,,,
,,,,,WIN24_032,21,Female,2024-02-02_12h32.05.648,jersey_experiment_5,2023.2.2,Win32,84.03361345,,,,,,,,,,,,,,,,1184.364,1185.6578,1185.6578,1188.4814,return,0.7033,,75,,,,,,FBP-RB-17.png,0.45,1.2,20,0.5,,,,,,,,,,,,,0,52,52,19,1,,,,,,,,,,,,,,,,,,,,,,,,,,,,
,,,,,WIN24_032,21,Female,2024-02-02_12h32.05.648,jersey_experiment_5,2023.2.2,Win32,84.03361345,,,,,,,,,,,,,,,,1188.4817,1190.2812,1190.2813,1192.4578,return,0.7652,,49.86979167,,,,,,FBP-PT-17.png,0.37,1.2,47,1,,,,,,,,,,,,,0,53,53,46,1,,,,,,,,,,,,,,,,,,,,,,,,,,,,
,,,,,WIN24_032,21,Female,2024-02-02_12h32.05.648,jersey_experiment_5,2023.2.2,Win32,84.03361345,,,,,,,,,,,,,,,,1192.4581,1194.2581,1194.2581,1197.6111,return,0.9211,,36.06770833,,,,,,FBP-OG-81.png,0.35,1.2,6,1,,,,,,,,,,,,,0,54,54,5,1,,,,,,,,,,,,,,,,,,,,,,,,,,,,
,,,,,WIN24_032,21,Female,2024-02-02_12h32.05.648,jersey_experiment_5,2023.2.2,Win32,84.03361345,,,,,,,,,,,,,,,,1197.6113,1198.9052,1198.9052,1201.6816,return,0.7619,,74.47916667,,,,,,FBP-YG-71.png,0.45,1.2,35,0.5,,,,,,,,,,,,,0,55,55,34,1,,,,,,,,,,,,,,,,,,,,,,,,,,,,
,,,,,WIN24_032,21,Female,2024-02-02_12h32.05.648,jersey_experiment_5,2023.2.2,Win32,84.03361345,,,,,,,,,,,,,,,,1201.682,1202.9759,1202.9759,1204.9878,return,0.7173,,49.609375,,,,,,FBP-YG-71.png,0.35,1.2,31,0.5,,,,,,,,,,,,,0,56,56,30,1,,,,,,,,,,,,,,,,,,,,,,,,,,,,
,,,,,WIN24_032,21,Female,2024-02-02_12h32.05.648,jersey_experiment_5,2023.2.2,Win32,84.03361345,,,,,,,,,,,,,,,,1204.9882,1206.788,1206.788,1209.435,return,0.7641,,66.92708333,,,,,,FBP-OG-91.png,0.4,1.2,13,1,,,,,,,,,,,,,0,57,57,12,1,,,,,,,,,,,,,,,,,,,,,,,,,,,,
,,,,,WIN24_032,21,Female,2024-02-02_12h32.05.648,jersey_experiment_5,2023.2.2,Win32,84.03361345,,,,,,,,,,,,,,,,1209.4352,1210.7293,1210.7293,1213.894,return,0.6984,,81.11979167,,,,,,FBP-YG-81.png,0.43,1.2,39,0.5,,,,,,,,,,,,,0,58,58,38,1,,,,,,,,,,,,,,,,,,,,,,,,,,,,
,,,,,WIN24_032,21,Female,2024-02-02_12h32.05.648,jersey_experiment_5,2023.2.2,Win32,84.03361345,,,,,,,,,,,,,,,,1213.8943,1215.6942,1215.6942,1223.6826,return,3.2059,,74.73958333,,,,,,FBP-PT-18.png,0.43,1.2,54,1,,,,,,,,,,,,,0,59,59,53,1,,,,,,,,,,,,,,,,,,,,,,,,,,,,
,,,,,WIN24_032,21,Female,2024-02-02_12h32.05.648,jersey_experiment_5,2023.2.2,Win32,84.03361345,,,,,,,,,,,,,,,,1223.6857,1224.9885,1224.9885,1228.4829,return,1.29,,49.73958333,,,,,,FBP-RB-91.png,0.37,1.2,27,0.5,,,,,,,,,,,,,,,,,,0,0,0,26,1,,,,,,,,,,,,,,,,,,,,,,,
,,,,,WIN24_032,21,Female,2024-02-02_12h32.05.648,jersey_experiment_5,2023.2.2,Win32,84.03361345,,,,,,,,,,,,,,,,1228.4831,1230.2828,1230.2828,1232.2477,return,0.8483,,63.41145833,,,,,,FBP-OG-18.png,0.4,1.2,8,1,,,,,,,,,,,,,,,,,,0,1,1,7,1,,,,,,,,,,,,,,,,,,,,,,,
,,,,,WIN24_032,21,Female,2024-02-02_12h32.05.648,jersey_experiment_5,2023.2.2,Win32,84.03361345,,,,,,,,,,,,,,,,1232.2479,1233.5416,1233.5417,1235.589,return,0.758,,74.86979167,,,,,,FBP-YG-17.png,0.45,1.2,35,0.5,,,,,,,,,,,,,,,,,,0,2,2,34,1,,,,,,,,,,,,,,,,,,,,,,,
,,,,,WIN24_032,21,Female,2024-02-02_12h32.05.648,jersey_experiment_5,2023.2.2,Win32,84.03361345,,,,,,,,,,,,,,,,1235.5894,1236.8831,1236.8831,1240.1068,return,1.1178,,81.25,,,,,,FBP-YG-18.png,0.43,1.2,39,0.5,,,,,,,,,,,,,,,,,,0,3,3,38,1,,,,,,,,,,,,,,,,,,,,,,,
,,,,,WIN24_032,21,Female,2024-02-02_12h32.05.648,jersey_experiment_5,2023.2.2,Win32,84.03361345,,,,,,,,,,,,,,,,1240.107,1241.9068,1241.9069,1244.2598,return,0.7949,,23.4375,,,,,,FBP-OG-18.png,0.35,1.2,6,1,,,,,,,,,,,,,,,,,,0,4,4,5,1,,,,,,,,,,,,,,,,,,,,,,,
,,,,,WIN24_032,21,Female,2024-02-02_12h32.05.648,jersey_experiment_5,2023.2.2,Win32,84.03361345,,,,,,,,,,,,,,,,1244.26,1245.5539,1245.5539,1248.3424,return,0.9449,,21.875,,,,,,FBP-YG-18.png,0.35,1.2,36,0.5,,,,,,,,,,,,,,,,,,0,5,5,35,1,,,,,,,,,,,,,,,,,,,,,,,
,,,,,WIN24_032,21,Female,2024-02-02_12h32.05.648,jersey_experiment_5,2023.2.2,Win32,84.03361345,,,,,,,,,,,,,,,,1248.3428,1250.1425,1250.1425,1255.978,return,4.3905,,70.57291667,,,,,,FBP-OG-17.png,0.43,1.2,4,1,,,,,,,,,,,,,,,,,,0,6,6,3,1,,,,,,,,,,,,,,,,,,,,,,,
,,,,,WIN24_032,21,Female,2024-02-02_12h32.05.648,jersey_experiment_5,2023.2.2,Win32,84.03361345,,,,,,,,,,,,,,,,1255.9782,1257.2721,1257.2721,1262.9664,return,0.7666,,80.46875,,,,,,FBP-RB-71.png,0.43,1.2,19,0.5,,,,,,,,,,,,,,,,,,0,7,7,18,1,,,,,,,,,,,,,,,,,,,,,,,
,,,,,WIN24_032,21,Female,2024-02-02_12h32.05.648,jersey_experiment_5,2023.2.2,Win32,84.03361345,,,,,,,,,,,,,,,,1262.9666,1264.7667,1264.7667,1267.7314,return,0.9715,,88.54166667,,,,,,FBP-PT-91.png,0.43,1.2,59,1,,,,,,,,,,,,,,,,,,0,8,8,58,1,,,,,,,,,,,,,,,,,,,,,,,
,,,,,WIN24_032,21,Female,2024-02-02_12h32.05.648,jersey_experiment_5,2023.2.2,Win32,84.03361345,,,,,,,,,,,,,,,,1267.7323,1269.0255,1269.0256,1272.1314,return,0.9462,,60.28645833,,,,,,FBP-YG-17.png,0.4,1.2,33,0.5,,,,,,,,,,,,,,,,,,0,9,9,32,1,,,,,,,,,,,,,,,,,,,,,,,
,,,,,WIN24_032,21,Female,2024-02-02_12h32.05.648,jersey_experiment_5,2023.2.2,Win32,84.03361345,,,,,,,,,,,,,,,,1272.1317,1273.4257,1273.4257,1275.4257,return,0.7377,,62.63020833,,,,,,FBP-RB-81.png,0.4,1.2,23,0.5,,,,,,,,,,,,,,,,,,0,10,10,22,1,,,,,,,,,,,,,,,,,,,,,,,
,,,,,WIN24_032,21,Female,2024-02-02_12h32.05.648,jersey_experiment_5,2023.2.2,Win32,84.03361345,,,,,,,,,,,,,,,,1275.4261,1277.2257,1277.2258,1280.8025,return,1.3134,,61.71875,,,,,,FBP-PT-91.png,0.4,1.2,58,1,,,,,,,,,,,,,,,,,,0,11,11,57,1,,,,,,,,,,,,,,,,,,,,,,,
,,,,,WIN24_032,21,Female,2024-02-02_12h32.05.648,jersey_experiment_5,2023.2.2,Win32,84.03361345,,,,,,,,,,,,,,,,1280.803,1282.6025,1282.6025,1284.5201,return,0.7082,,50,,,,,,FBP-OG-19.png,0.37,1.2,12,1,,,,,,,,,,,,,,,,,,0,12,12,11,1,,,,,,,,,,,,,,,,,,,,,,,
,,,,,WIN24_032,21,Female,2024-02-02_12h32.05.648,jersey_experiment_5,2023.2.2,Win32,84.03361345,,,,,,,,,,,,,,,,1284.5204,1285.8143,1285.8143,1289.238,return,0.8747,,76.82291667,,,,,,FBP-YG-17.png,0.43,1.2,34,0.5,,,,,,,,,,,,,,,,,,0,13,13,33,1,,,,,,,,,,,,,,,,,,,,,,,
,,,,,WIN24_032,21,Female,2024-02-02_12h32.05.648,jersey_experiment_5,2023.2.2,Win32,84.03361345,,,,,,,,,,,,,,,,1289.2384,1290.5322,1290.5322,1296.9795,return,5.0664,,74.609375,,,,,,FBP-RB-91.png,0.43,1.2,29,0.5,,,,,,,,,,,,,,,,,,0,14,14,28,1,,,,,,,,,,,,,,,,,,,,,,,
,,,,,WIN24_032,21,Female,2024-02-02_12h32.05.648,jersey_experiment_5,2023.2.2,Win32,84.03361345,,,,,,,,,,,,,,,,1296.9799,1298.7795,1298.7795,1300.956,return,0.7409,,75.13020833,,,,,,FBP-OG-18.png,0.43,1.2,9,1,,,,,,,,,,,,,,,,,,0,15,15,8,1,,,,,,,,,,,,,,,,,,,,,,,
,,,,,WIN24_032,21,Female,2024-02-02_12h32.05.648,jersey_experiment_5,2023.2.2,Win32,84.03361345,,,,,,,,,,,,,,,,1300.9563,1302.7561,1302.7562,1306.9565,return,2.8958,,82.421875,,,,,,FBP-PT-91.png,0.45,1.2,60,1,,,,,,,,,,,,,,,,,,0,16,16,59,1,,,,,,,,,,,,,,,,,,,,,,,
,,,,,WIN24_032,21,Female,2024-02-02_12h32.05.648,jersey_experiment_5,2023.2.2,Win32,84.03361345,,,,,,,,,,,,,,,,1306.9569,1308.7563,1308.7564,1310.8508,return,0.7965,,49.73958333,,,,,,FBP-PT-71.png,0.37,1.2,47,1,,,,,,,,,,,,,,,,,,0,17,17,46,1,,,,,,,,,,,,,,,,,,,,,,,
,,,,,WIN24_032,21,Female,2024-02-02_12h32.05.648,jersey_experiment_5,2023.2.2,Win32,84.03361345,,,,,,,,,,,,,,,,1310.8513,1312.6507,1312.6508,1317.0274,return,2.1715,,75,,,,,,FBP-OG-19.png,0.45,1.2,15,1,,,,,,,,,,,,,,,,,,0,18,18,14,1,,,,,,,,,,,,,,,,,,,,,,,
,,,,,WIN24_032,21,Female,2024-02-02_12h32.05.648,jersey_experiment_5,2023.2.2,Win32,84.03361345,,,,,,,,,,,,,,,,1317.0279,1318.3213,1318.3214,1324.3454,return,4.2962,,24.47916667,,,,,,FBP-RB-91.png,0.35,1.2,26,0.5,,,,,,,,,,,,,,,,,,0,19,19,25,1,,,,,,,,,,,,,,,,,,,,,,,
,,,,,WIN24_032,21,Female,2024-02-02_12h32.05.648,jersey_experiment_5,2023.2.2,Win32,84.03361345,,,,,,,,,,,,,,,,1324.3459,1326.1452,1326.1453,1333.5457,return,0.6851,,74.609375,,,,,,FBP-PT-81.png,0.45,1.2,55,1,,,,,,,,,,,,,,,,,,0,20,20,54,1,,,,,,,,,,,,,,,,,,,,,,,
,,,,,WIN24_032,21,Female,2024-02-02_12h32.05.648,jersey_experiment_5,2023.2.2,Win32,84.03361345,,,,,,,,,,,,,,,,1333.5458,1335.3456,1335.3457,1337.9929,return,0.8489,,25.26041667,,,,,,FBP-OG-17.png,0.35,1.2,1,1,,,,,,,,,,,,,,,,,,0,21,21,0,1,,,,,,,,,,,,,,,,,,,,,,,
,,,,,WIN24_032,21,Female,2024-02-02_12h32.05.648,jersey_experiment_5,2023.2.2,Win32,84.03361345,,,,,,,,,,,,,,,,1337.9935,1339.7928,1339.7928,1343.6753,return,0.6944,,49.86979167,,,,,,FBP-OG-19.png,0.43,1.2,14,1,,,,,,,,,,,,,,,,,,0,22,22,13,1,,,,,,,,,,,,,,,,,,,,,,,
,,,,,WIN24_032,21,Female,2024-02-02_12h32.05.648,jersey_experiment_5,2023.2.2,Win32,84.03361345,,,,,,,,,,,,,,,,1343.6756,1344.9697,1344.9697,1348.4285,return,0.7061,,49.609375,,,,,,FBP-YG-19.png,0.4,1.2,43,0.5,,,,,,,,,,,,,,,,,,0,23,23,42,1,,,,,,,,,,,,,,,,,,,,,,,
,,,,,WIN24_032,21,Female,2024-02-02_12h32.05.648,jersey_experiment_5,2023.2.2,Win32,84.03361345,,,,,,,,,,,,,,,,1348.4289,1349.7227,1349.7227,1352.3935,return,0.6598,,74.86979167,,,,,,FBP-YG-18.png,0.45,1.2,40,0.5,,,,,,,,,,,,,,,,,,0,24,24,39,1,,,,,,,,,,,,,,,,,,,,,,,
,,,,,WIN24_032,21,Female,2024-02-02_12h32.05.648,jersey_experiment_5,2023.2.2,Win32,84.03361345,,,,,,,,,,,,,,,,1352.3943,1353.6875,1353.6875,1358.3229,return,3.2077,,82.03125,,,,,,FBP-RB-81.png,0.45,1.2,25,0.5,,,,,,,,,,,,,,,,,,0,25,25,24,1,,,,,,,,,,,,,,,,,,,,,,,
,,,,,WIN24_032,21,Female,2024-02-02_12h32.05.648,jersey_experiment_5,2023.2.2,Win32,84.03361345,,,,,,,,,,,,,,,,1358.3232,1360.1233,1360.1233,1362.4762,return,0.8007,,74.73958333,,,,,,FBP-OG-17.png,0.45,1.2,5,1,,,,,,,,,,,,,,,,,,0,26,26,4,1,,,,,,,,,,,,,,,,,,,,,,,
,,,,,WIN24_032,21,Female,2024-02-02_12h32.05.648,jersey_experiment_5,2023.2.2,Win32,84.03361345,,,,,,,,,,,,,,,,1362.4767,1363.7704,1363.7705,1366.4882,return,0.8353,,67.96875,,,,,,FBP-RB-91.png,0.4,1.2,28,0.5,,,,,,,,,,,,,,,,,,0,27,27,27,1,,,,,,,,,,,,,,,,,,,,,,,
,,,,,WIN24_032,21,Female,2024-02-02_12h32.05.648,jersey_experiment_5,2023.2.2,Win32,84.03361345,,,,,,,,,,,,,,,,1366.4885,1367.7822,1367.7823,1373.8767,return,2.4867,,24.08854167,,,,,,FBP-RB-81.png,0.35,1.2,21,0.5,,,,,,,,,,,,,,,,,,0,28,28,20,1,,,,,,,,,,,,,,,,,,,,,,,
,,,,,WIN24_032,21,Female,2024-02-02_12h32.05.648,jersey_experiment_5,2023.2.2,Win32,84.03361345,,,,,,,,,,,,,,,,1373.8772,1375.1708,1375.1708,1378.3943,return,0.9416,,74.21875,,,,,,FBP-YG-19.png,0.45,1.2,45,0.5,,,,,,,,,,,,,,,,,,0,29,29,44,1,,,,,,,,,,,,,,,,,,,,,,,
,,,,,WIN24_032,21,Female,2024-02-02_12h32.05.648,jersey_experiment_5,2023.2.2,Win32,84.03361345,,,,,,,,,,,,,,,,1378.3946,1380.1944,1380.1944,1391.6891,return,9.1898,,24.34895833,,,,,,FBP-PT-71.png,0.35,1.2,46,1,,,,,,,,,,,,,,,,,,0,30,30,45,1,,,,,,,,,,,,,,,,,,,,,,,
,,,,,WIN24_032,21,Female,2024-02-02_12h32.05.648,jersey_experiment_5,2023.2.2,Win32,84.03361345,,,,,,,,,,,,,,,,1391.6897,1392.9831,1392.9831,1397.7009,return,0.8409,,37.5,,,,,,FBP-RB-81.png,0.37,1.2,22,0.5,,,,,,,,,,,,,,,,,,0,31,31,21,1,,,,,,,,,,,,,,,,,,,,,,,
,,,,,WIN24_032,21,Female,2024-02-02_12h32.05.648,jersey_experiment_5,2023.2.2,Win32,84.03361345,,,,,,,,,,,,,,,,1397.7012,1398.9951,1398.9952,1401.8777,return,0.7223,,35.80729167,,,,,,FBP-RB-71.png,0.35,1.2,16,0.5,,,,,,,,,,,,,,,,,,0,32,32,15,1,,,,,,,,,,,,,,,,,,,,,,,
,,,,,WIN24_032,21,Female,2024-02-02_12h32.05.648,jersey_experiment_5,2023.2.2,Win32,84.03361345,,,,,,,,,,,,,,,,1401.8779,1403.1717,1403.1717,1406.8662,return,0.6671,,49.73958333,,,,,,FBP-RB-71.png,0.37,1.2,17,0.5,,,,,,,,,,,,,,,,,,0,33,33,16,1,,,,,,,,,,,,,,,,,,,,,,,
,,,,,WIN24_032,21,Female,2024-02-02_12h32.05.648,jersey_experiment_5,2023.2.2,Win32,84.03361345,,,,,,,,,,,,,,,,1406.8668,1408.6663,1408.6663,1410.3955,return,0.7883,,74.47916667,,,,,,FBP-OG-18.png,0.45,1.2,10,1,,,,,,,,,,,,,,,,,,0,34,34,9,1,,,,,,,,,,,,,,,,,,,,,,,
,,,,,WIN24_032,21,Female,2024-02-02_12h32.05.648,jersey_experiment_5,2023.2.2,Win32,84.03361345,,,,,,,,,,,,,,,,1410.3959,1411.6898,1411.6898,1415.4899,return,0.6446,,62.36979167,,,,,,FBP-YG-18.png,0.37,1.2,37,0.5,,,,,,,,,,,,,,,,,,0,35,35,36,1,,,,,,,,,,,,,,,,,,,,,,,
,,,,,WIN24_032,21,Female,2024-02-02_12h32.05.648,jersey_experiment_5,2023.2.2,Win32,84.03361345,,,,,,,,,,,,,,,,1415.4903,1417.2899,1417.2899,1423.4431,return,2.7484,,63.28125,,,,,,FBP-PT-91.png,0.37,1.2,57,1,,,,,,,,,,,,,,,,,,0,36,36,56,1,,,,,,,,,,,,,,,,,,,,,,,
,,,,,WIN24_032,21,Female,2024-02-02_12h32.05.648,jersey_experiment_5,2023.2.2,Win32,84.03361345,,,,,,,,,,,,,,,,1423.4434,1425.2435,1425.2435,1427.7021,return,0.6517,,49.73958333,,,,,,FBP-PT-81.png,0.35,1.2,51,1,,,,,,,,,,,,,,,,,,0,37,37,50,1,,,,,,,,,,,,,,,,,,,,,,,
,,,,,WIN24_032,21,Female,2024-02-02_12h32.05.648,jersey_experiment_5,2023.2.2,Win32,84.03361345,,,,,,,,,,,,,,,,1427.7026,1429.5022,1429.5022,1431.3494,return,0.7111,,63.28125,,,,,,FBP-OG-17.png,0.37,1.2,2,1,,,,,,,,,,,,,,,,,,0,38,38,1,1,,,,,,,,,,,,,,,,,,,,,,,
,,,,,WIN24_032,21,Female,2024-02-02_12h32.05.648,jersey_experiment_5,2023.2.2,Win32,84.03361345,,,,,,,,,,,,,,,,1431.3499,1433.1495,1433.1495,1436.5378,return,1.8248,,79.03645833,,,,,,FBP-PT-81.png,0.43,1.2,54,1,,,,,,,,,,,,,,,,,,0,39,39,53,1,,,,,,,,,,,,,,,,,,,,,,,
,,,,,WIN24_032,21,Female,2024-02-02_12h32.05.648,jersey_experiment_5,2023.2.2,Win32,84.03361345,,,,,,,,,,,,,,,,1436.5381,1437.8319,1437.8319,1445.5145,return,3.0821,,82.421875,,,,,,FBP-YG-18.png,0.4,1.2,38,0.5,,,,,,,,,,,,,,,,,,0,40,40,37,1,,,,,,,,,,,,,,,,,,,,,,,
,,,,,WIN24_032,21,Female,2024-02-02_12h32.05.648,jersey_experiment_5,2023.2.2,Win32,84.03361345,,,,,,,,,,,,,,,,1445.5149,1447.3145,1447.3146,1449.6089,return,0.7081,,67.05729167,,,,,,FBP-PT-81.png,0.4,1.2,53,1,,,,,,,,,,,,,,,,,,0,41,41,52,1,,,,,,,,,,,,,,,,,,,,,,,
,,,,,WIN24_032,21,Female,2024-02-02_12h32.05.648,jersey_experiment_5,2023.2.2,Win32,84.03361345,,,,,,,,,,,,,,,,1449.6095,1451.409,1451.409,1453.256,return,0.9203,,75.26041667,,,,,,FBP-PT-71.png,0.45,1.2,50,1,,,,,,,,,,,,,,,,,,0,42,42,49,1,,,,,,,,,,,,,,,,,,,,,,,
,,,,,WIN24_032,21,Female,2024-02-02_12h32.05.648,jersey_experiment_5,2023.2.2,Win32,84.03361345,,,,,,,,,,,,,,,,1453.2564,1455.0561,1455.0561,1456.6325,return,0.7904,,75.52083333,,,,,,FBP-PT-71.png,0.43,1.2,49,1,,,,,,,,,,,,,,,,,,0,43,43,48,1,,,,,,,,,,,,,,,,,,,,,,,
,,,,,WIN24_032,21,Female,2024-02-02_12h32.05.648,jersey_experiment_5,2023.2.2,Win32,84.03361345,,,,,,,,,,,,,,,,1456.6327,1457.9267,1457.9267,1463.0801,return,0.7418,,85.15625,,,,,,FBP-RB-71.png,0.45,1.2,20,0.5,,,,,,,,,,,,,,,,,,0,44,44,19,1,,,,,,,,,,,,,,,,,,,,,,,
,,,,,WIN24_032,21,Female,2024-02-02_12h32.05.648,jersey_experiment_5,2023.2.2,Win32,84.03361345,,,,,,,,,,,,,,,,1463.0808,1464.8802,1464.8803,1469.0332,return,2.0255,,43.88020833,,,,,,FBP-OG-18.png,0.37,1.2,7,1,,,,,,,,,,,,,,,,,,0,45,45,6,1,,,,,,,,,,,,,,,,,,,,,,,
,,,,,WIN24_032,21,Female,2024-02-02_12h32.05.648,jersey_experiment_5,2023.2.2,Win32,84.03361345,,,,,,,,,,,,,,,,1469.0335,1470.8332,1470.8332,1473.6216,return,1.0054,,24.34895833,,,,,,FBP-OG-19.png,0.35,1.2,11,1,,,,,,,,,,,,,,,,,,0,46,46,10,1,,,,,,,,,,,,,,,,,,,,,,,
,,,,,WIN24_032,21,Female,2024-02-02_12h32.05.648,jersey_experiment_5,2023.2.2,Win32,84.03361345,,,,,,,,,,,,,,,,1473.622,1474.9157,1474.9158,1482.0689,return,0.7705,,49.47916667,,,,,,FBP-RB-71.png,0.4,1.2,18,0.5,,,,,,,,,,,,,,,,,,0,47,47,17,1,,,,,,,,,,,,,,,,,,,,,,,
,,,,,WIN24_032,21,Female,2024-02-02_12h32.05.648,jersey_experiment_5,2023.2.2,Win32,84.03361345,,,,,,,,,,,,,,,,1482.0692,1483.8689,1483.8689,1492.8103,return,3.0587,,50,,,,,,FBP-PT-71.png,0.4,1.2,48,1,,,,,,,,,,,,,,,,,,0,48,48,47,1,,,,,,,,,,,,,,,,,,,,,,,
,,,,,WIN24_032,21,Female,2024-02-02_12h32.05.648,jersey_experiment_5,2023.2.2,Win32,84.03361345,,,,,,,,,,,,,,,,1492.8105,1494.1046,1494.1046,1496.7164,return,0.6826,,74.73958333,,,,,,FBP-RB-91.png,0.45,1.2,30,0.5,,,,,,,,,,,,,,,,,,0,49,49,29,1,,,,,,,,,,,,,,,,,,,,,,,
,,,,,WIN24_032,21,Female,2024-02-02_12h32.05.648,jersey_experiment_5,2023.2.2,Win32,84.03361345,,,,,,,,,,,,,,,,1496.7167,1498.0106,1498.0107,1501.9872,return,0.69,,40.10416667,,,,,,FBP-YG-17.png,0.37,1.2,32,0.5,,,,,,,,,,,,,,,,,,0,50,50,31,1,,,,,,,,,,,,,,,,,,,,,,,
,,,,,WIN24_032,21,Female,2024-02-02_12h32.05.648,jersey_experiment_5,2023.2.2,Win32,84.03361345,,,,,,,,,,,,,,,,1501.9874,1503.2816,1503.2816,1508.4583,return,2.3192,,32.29166667,,,,,,FBP-YG-19.png,0.37,1.2,42,0.5,,,,,,,,,,,,,,,,,,0,51,51,41,1,,,,,,,,,,,,,,,,,,,,,,,
,,,,,WIN24_032,21,Female,2024-02-02_12h32.05.648,jersey_experiment_5,2023.2.2,Win32,84.03361345,,,,,,,,,,,,,,,,1508.4591,1509.7522,1509.7522,1512.9053,return,1.2486,,31.90104167,,,,,,FBP-YG-19.png,0.35,1.2,41,0.5,,,,,,,,,,,,,,,,,,0,52,52,40,1,,,,,,,,,,,,,,,,,,,,,,,
,,,,,WIN24_032,21,Female,2024-02-02_12h32.05.648,jersey_experiment_5,2023.2.2,Win32,84.03361345,,,,,,,,,,,,,,,,1512.9055,1514.1994,1514.1994,1518.1996,return,1.9562,,30.59895833,,,,,,FBP-YG-17.png,0.35,1.2,31,0.5,,,,,,,,,,,,,,,,,,0,53,53,30,1,,,,,,,,,,,,,,,,,,,,,,,
,,,,,WIN24_032,21,Female,2024-02-02_12h32.05.648,jersey_experiment_5,2023.2.2,Win32,84.03361345,,,,,,,,,,,,,,,,1518.1998,1519.9998,1519.9998,1522.2,return,0.6856,,74.86979167,,,,,,FBP-OG-19.png,0.4,1.2,13,1,,,,,,,,,,,,,,,,,,0,54,54,12,1,,,,,,,,,,,,,,,,,,,,,,,
,,,,,WIN24_032,21,Female,2024-02-02_12h32.05.648,jersey_experiment_5,2023.2.2,Win32,84.03361345,,,,,,,,,,,,,,,,1522.2005,1523.494,1523.494,1526.0118,return,0.7186,,78.515625,,,,,,FBP-YG-19.png,0.43,1.2,44,0.5,,,,,,,,,,,,,,,,,,0,55,55,43,1,,,,,,,,,,,,,,,,,,,,,,,
,,,,,WIN24_032,21,Female,2024-02-02_12h32.05.648,jersey_experiment_5,2023.2.2,Win32,84.03361345,,,,,,,,,,,,,,,,1526.0123,1527.8117,1527.8117,1530.6118,return,1.3921,,62.23958333,,,,,,FBP-OG-17.png,0.4,1.2,3,1,,,,,,,,,,,,,,,,,,0,56,56,2,1,,,,,,,,,,,,,,,,,,,,,,,
,,,,,WIN24_032,21,Female,2024-02-02_12h32.05.648,jersey_experiment_5,2023.2.2,Win32,84.03361345,,,,,,,,,,,,,,,,1530.612,1532.4122,1532.4122,1534.7062,return,0.6906,,35.9375,,,,,,FBP-PT-81.png,0.37,1.2,52,1,,,,,,,,,,,,,,,,,,0,57,57,51,1,,,,,,,,,,,,,,,,,,,,,,,
,,,,,WIN24_032,21,Female,2024-02-02_12h32.05.648,jersey_experiment_5,2023.2.2,Win32,84.03361345,,,,,,,,,,,,,,,,1534.7068,1536.5063,1536.5063,1539.0121,return,0.7712,,25.91145833,,,,,,FBP-PT-91.png,0.35,1.2,56,1,,,,,,,,,,,,,,,,,,0,58,58,55,1,,,,,,,,,,,,,,,,,,,,,,,
,,,,,WIN24_032,21,Female,2024-02-02_12h32.05.648,jersey_experiment_5,2023.2.2,Win32,84.03361345,,,,,,,,,,,,,,,,1539.0125,1540.3064,1540.3064,1544.3065,return,0.7024,,74.609375,,,,,,FBP-RB-81.png,0.43,1.2,24,0.5,,,,,,,,,,,,,,,,,,0,59,59,23,1,,,,,,,,,,,,,,,,,,,,,,,
,,,,,WIN24_032,21,Female,2024-02-02_12h32.05.648,jersey_experiment_5,2023.2.2,Win32,84.03361345,,,,,,,,,,,,,,,,,,,,,,,,,,,,,,,,,,,,,,,,,,,,,,,,,,,,,,,,1544.3069,1552.566,return,8.2511,,,,,,,,,,,,,,,,,,,
,,,,,WIN24_032,21,Female,2024-02-02_12h32.05.648,jersey_experiment_5,2023.2.2,Win32,84.03361345,,,,,,,,,,,,,,,,,,,,,,,,,,,,,,,,,,,,,,,,,,,,,,,,,,,,,,,,,,,,,1552.5661,1574.7436,1,20.7595,return,1.4028,,,,,,,,,,,,
,,,,,WIN24_032,21,Female,2024-02-02_12h32.05.648,jersey_experiment_5,2023.2.2,Win32,84.03361345,,,,,,,,,,,,,,,,,,,,,,,,,,,,,,,,,,,,,,,,,,,,,,,,,,,,,,,,,,,,,,,,,,,,1574.7438,1615.1157,bias towards black vs white bodies,right,34.1632,,,,,,
,,,,,WIN24_032,21,Female,2024-02-02_12h32.05.648,jersey_experiment_5,2023.2.2,Win32,84.03361345,,,,,,,,,,,,,,,,,,,,,,,,,,,,,,,,,,,,,,,,,,,,,,,,,,,,,,,,,,,,,,,,,,,,,,,,,,1615.1158,1622.781,return,7.6526,