requirements.started,requirements.stopped,key_resp_3.keys,key_resp_3.rt,key_resp_3.duration,Subject ID,Age,Gender,date,expName,psychopyVersion,OS,frameRate,instructions1.started,instructions1.stopped,key_resp.keys,key_resp.rt,key_resp.duration,example.started,example.stopped,enter_2.keys,enter_2.rt,enter_2.duration,instructions2.started,instructions2.stopped,enter_3.keys,enter_3.rt,enter_3.duration,image.started,image.stopped,slider_2.started,slider_2.stopped,next.keys,next.rt,next.duration,slider.response,trial_block_1.thisRepN,trial_block_1.thisTrialN,trial_block_1.thisN,trial_block_1.thisIndex,trial_block_1.ran,Path,Width,Height,Index,Duration,trial_block_2.thisRepN,trial_block_2.thisTrialN,trial_block_2.thisN,trial_block_2.thisIndex,trial_block_2.ran,rest_break.started,rest_break.stopped,end_break.started,end_break.stopped,key_resp_5.keys,key_resp_5.rt,key_resp_5.duration,trial_block_3.thisRepN,trial_block_3.thisTrialN,trial_block_3.thisN,trial_block_3.thisIndex,trial_block_3.ran,trial_block_4.thisRepN,trial_block_4.thisTrialN,trial_block_4.thisN,trial_block_4.thisIndex,trial_block_4.ran,questions_intro.started,questions_intro.stopped,enter_12.keys,enter_12.rt,enter_12.duration,question2.started,question2.stopped,question_doingbest.response,question_doingbest.rt,enter_15.keys,enter_15.rt,enter_15.duration,pattern.started,pattern.stopped,pattern_2.text,enter_17.keys,enter_17.rt,enter_17.duration,thankyou.started,thankyou.stopped,enter_14.keys,enter_14.rt,enter_14.duration
1E-04,35.5713,return,35.5596,,WIN24_013,20,Female,2024-01-29_16h28.59.532,jersey_experiment_5,2023.2.2,Win32,84.74576271,,,,,,,,,,,,,,,,,,,,,,,,,,,,,,,,,,,,,,,,,,,,,,,,,,,,,,,,,,,,,,,,,,,,,,,,,,,,,,
,,,,,WIN24_013,20,Female,2024-01-29_16h28.59.532,jersey_experiment_5,2023.2.2,Win32,84.74576271,35.5714,64.8783,return,29.2998,,,,,,,,,,,,,,,,,,,,,,,,,,,,,,,,,,,,,,,,,,,,,,,,,,,,,,,,,,,,,,,,,,,,,,,,,,
,,,,,WIN24_013,20,Female,2024-01-29_16h28.59.532,jersey_experiment_5,2023.2.2,Win32,84.74576271,,,,,,64.8783,77.8555,return,12.9433,,,,,,,,,,,,,,,,,,,,,,,,,,,,,,,,,,,,,,,,,,,,,,,,,,,,,,,,,,,,,,,,,,,,,
,,,,,WIN24_013,20,Female,2024-01-29_16h28.59.532,jersey_experiment_5,2023.2.2,Win32,84.74576271,,,,,,,,,,,77.8555,109.1311,return,31.2697,,,,,,,,,,,,,,,,,,,,,,,,,,,,,,,,,,,,,,,,,,,,,,,,,,,,,,,,,,,,,,,,
,,,,,WIN24_013,20,Female,2024-01-29_16h28.59.532,jersey_experiment_5,2023.2.2,Win32,84.74576271,,,,,,,,,,,,,,,,109.1378,110.943,110.9431,148.3755,return,14.1415,,74.47916667,0,0,0,38,1,FBP-YG-81.png,0.43,1.2,39,1,,,,,,,,,,,,,,,,,,,,,,,,,,,,,,,,,,,,,,,,,,,,,
,,,,,WIN24_013,20,Female,2024-01-29_16h28.59.532,jersey_experiment_5,2023.2.2,Win32,84.74576271,,,,,,,,,,,,,,,,148.3758,150.1754,150.1754,156.4032,return,2.2944,,50.13020833,0,1,1,27,1,FBP-RB-19.png,0.4,1.2,28,1,,,,,,,,,,,,,,,,,,,,,,,,,,,,,,,,,,,,,,,,,,,,,
,,,,,WIN24_013,20,Female,2024-01-29_16h28.59.532,jersey_experiment_5,2023.2.2,Win32,84.74576271,,,,,,,,,,,,,,,,156.4034,157.7049,157.7049,166.67,return,2.0659,,61.84895833,0,2,2,13,1,FBP-OG-91.png,0.43,1.2,14,0.5,,,,,,,,,,,,,,,,,,,,,,,,,,,,,,,,,,,,,,,,,,,,,
,,,,,WIN24_013,20,Female,2024-01-29_16h28.59.532,jersey_experiment_5,2023.2.2,Win32,84.74576271,,,,,,,,,,,,,,,,166.6702,168.47,168.47,172.4378,return,1.2929,,25.13020833,0,3,3,15,1,FBP-RB-17.png,0.35,1.2,16,1,,,,,,,,,,,,,,,,,,,,,,,,,,,,,,,,,,,,,,,,,,,,,
,,,,,WIN24_013,20,Female,2024-01-29_16h28.59.532,jersey_experiment_5,2023.2.2,Win32,84.74576271,,,,,,,,,,,,,,,,172.4379,174.2349,174.2349,178.6587,return,1.895,,83.203125,0,4,4,29,1,FBP-RB-19.png,0.45,1.2,30,1,,,,,,,,,,,,,,,,,,,,,,,,,,,,,,,,,,,,,,,,,,,,,
,,,,,WIN24_013,20,Female,2024-01-29_16h28.59.532,jersey_experiment_5,2023.2.2,Win32,84.74576271,,,,,,,,,,,,,,,,178.6588,180.4648,180.4648,183.6942,return,1.0032,,82.55208333,0,5,5,18,1,FBP-RB-17.png,0.43,1.2,19,1,,,,,,,,,,,,,,,,,,,,,,,,,,,,,,,,,,,,,,,,,,,,,
,,,,,WIN24_013,20,Female,2024-01-29_16h28.59.532,jersey_experiment_5,2023.2.2,Win32,84.74576271,,,,,,,,,,,,,,,,183.6943,184.9884,184.9884,191.3416,return,2.2513,,85.15625,0,6,6,57,1,FBP-PT-19.png,0.4,1.2,58,0.5,,,,,,,,,,,,,,,,,,,,,,,,,,,,,,,,,,,,,,,,,,,,,
,,,,,WIN24_013,20,Female,2024-01-29_16h28.59.532,jersey_experiment_5,2023.2.2,Win32,84.74576271,,,,,,,,,,,,,,,,191.3417,192.6357,192.6357,196.9181,return,1.1276,,38.15104167,0,7,7,11,1,FBP-OG-91.png,0.37,1.2,12,0.5,,,,,,,,,,,,,,,,,,,,,,,,,,,,,,,,,,,,,,,,,,,,,
,,,,,WIN24_013,20,Female,2024-01-29_16h28.59.532,jersey_experiment_5,2023.2.2,Win32,84.74576271,,,,,,,,,,,,,,,,196.9183,198.7181,198.7181,208.3228,return,4.4708,,92.578125,0,8,8,39,1,FBP-YG-81.png,0.45,1.2,40,1,,,,,,,,,,,,,,,,,,,,,,,,,,,,,,,,,,,,,,,,,,,,,
,,,,,WIN24_013,20,Female,2024-01-29_16h28.59.532,jersey_experiment_5,2023.2.2,Win32,84.74576271,,,,,,,,,,,,,,,,208.323,210.1227,210.1228,214.4837,return,1.5178,,24.47916667,0,9,9,40,1,FBP-YG-91.png,0.35,1.2,41,1,,,,,,,,,,,,,,,,,,,,,,,,,,,,,,,,,,,,,,,,,,,,,
,,,,,WIN24_013,20,Female,2024-01-29_16h28.59.532,jersey_experiment_5,2023.2.2,Win32,84.74576271,,,,,,,,,,,,,,,,214.4838,216.2837,216.2837,221.025,return,0.6855,,24.47916667,0,10,10,21,1,FBP-RB-18.png,0.37,1.2,22,1,,,,,,,,,,,,,,,,,,,,,,,,,,,,,,,,,,,,,,,,,,,,,
,,,,,WIN24_013,20,Female,2024-01-29_16h28.59.532,jersey_experiment_5,2023.2.2,Win32,84.74576271,,,,,,,,,,,,,,,,221.0251,222.8292,222.8292,226.0057,return,2.0137,,24.47916667,0,11,11,20,1,FBP-RB-18.png,0.35,1.2,21,1,,,,,,,,,,,,,,,,,,,,,,,,,,,,,,,,,,,,,,,,,,,,,
,,,,,WIN24_013,20,Female,2024-01-29_16h28.59.532,jersey_experiment_5,2023.2.2,Win32,84.74576271,,,,,,,,,,,,,,,,226.0058,227.8017,227.8017,233.2136,return,2.1493,,96.09375,0,12,12,19,1,FBP-RB-17.png,0.45,1.2,20,1,,,,,,,,,,,,,,,,,,,,,,,,,,,,,,,,,,,,,,,,,,,,,
,,,,,WIN24_013,20,Female,2024-01-29_16h28.59.532,jersey_experiment_5,2023.2.2,Win32,84.74576271,,,,,,,,,,,,,,,,233.2139,235.0138,235.0138,240.0611,return,1.2416,,23.95833333,0,13,13,35,1,FBP-YG-81.png,0.35,1.2,36,1,,,,,,,,,,,,,,,,,,,,,,,,,,,,,,,,,,,,,,,,,,,,,
,,,,,WIN24_013,20,Female,2024-01-29_16h28.59.532,jersey_experiment_5,2023.2.2,Win32,84.74576271,,,,,,,,,,,,,,,,240.0613,241.8611,241.8611,245.3081,return,1.5367,,99.47916667,0,14,14,24,1,FBP-RB-18.png,0.45,1.2,25,1,,,,,,,,,,,,,,,,,,,,,,,,,,,,,,,,,,,,,,,,,,,,,
,,,,,WIN24_013,20,Female,2024-01-29_16h28.59.532,jersey_experiment_5,2023.2.2,Win32,84.74576271,,,,,,,,,,,,,,,,245.3084,246.6022,246.6022,255.038,return,1.041,,62.5,0,15,15,6,1,FBP-OG-81.png,0.37,1.2,7,0.5,,,,,,,,,,,,,,,,,,,,,,,,,,,,,,,,,,,,,,,,,,,,,
,,,,,WIN24_013,20,Female,2024-01-29_16h28.59.532,jersey_experiment_5,2023.2.2,Win32,84.74576271,,,,,,,,,,,,,,,,255.0383,256.842,256.842,264.6736,return,3.2845,,99.21875,0,16,16,22,1,FBP-RB-18.png,0.4,1.2,23,1,,,,,,,,,,,,,,,,,,,,,,,,,,,,,,,,,,,,,,,,,,,,,
,,,,,WIN24_013,20,Female,2024-01-29_16h28.59.532,jersey_experiment_5,2023.2.2,Win32,84.74576271,,,,,,,,,,,,,,,,264.6778,266.4737,266.4737,269.0799,return,1.1552,,99.08854167,0,17,17,44,1,FBP-YG-91.png,0.45,1.2,45,1,,,,,,,,,,,,,,,,,,,,,,,,,,,,,,,,,,,,,,,,,,,,,
,,,,,WIN24_013,20,Female,2024-01-29_16h28.59.532,jersey_experiment_5,2023.2.2,Win32,84.74576271,,,,,,,,,,,,,,,,269.0801,270.3798,270.3798,277.1212,return,0.9318,,24.86979167,0,18,18,14,1,FBP-OG-91.png,0.45,1.2,15,0.5,,,,,,,,,,,,,,,,,,,,,,,,,,,,,,,,,,,,,,,,,,,,,
,,,,,WIN24_013,20,Female,2024-01-29_16h28.59.532,jersey_experiment_5,2023.2.2,Win32,84.74576271,,,,,,,,,,,,,,,,277.1213,278.4154,278.4154,281.639,return,0.8218,,99.21875,0,19,19,3,1,FBP-OG-71.png,0.43,1.2,4,0.5,,,,,,,,,,,,,,,,,,,,,,,,,,,,,,,,,,,,,,,,,,,,,
,,,,,WIN24_013,20,Female,2024-01-29_16h28.59.532,jersey_experiment_5,2023.2.2,Win32,84.74576271,,,,,,,,,,,,,,,,281.6392,283.4413,283.4413,286.149,return,0.6353,,74.34895833,0,20,20,32,1,FBP-YG-71.png,0.4,1.2,33,1,,,,,,,,,,,,,,,,,,,,,,,,,,,,,,,,,,,,,,,,,,,,,
,,,,,WIN24_013,20,Female,2024-01-29_16h28.59.532,jersey_experiment_5,2023.2.2,Win32,84.74576271,,,,,,,,,,,,,,,,286.1491,287.451,287.451,290.0083,return,0.6236,,25.13020833,0,21,21,46,1,FBP-PT-17.png,0.37,1.2,47,0.5,,,,,,,,,,,,,,,,,,,,,,,,,,,,,,,,,,,,,,,,,,,,,
,,,,,WIN24_013,20,Female,2024-01-29_16h28.59.532,jersey_experiment_5,2023.2.2,Win32,84.74576271,,,,,,,,,,,,,,,,290.0084,291.31,291.31,300.1807,return,1.7885,,0.130208333,0,22,22,45,1,FBP-PT-17.png,0.35,1.2,46,0.5,,,,,,,,,,,,,,,,,,,,,,,,,,,,,,,,,,,,,,,,,,,,,
,,,,,WIN24_013,20,Female,2024-01-29_16h28.59.532,jersey_experiment_5,2023.2.2,Win32,84.74576271,,,,,,,,,,,,,,,,300.1809,301.4751,301.4751,305.3615,return,1.0943,,0.260416667,0,23,23,55,1,FBP-PT-19.png,0.35,1.2,56,0.5,,,,,,,,,,,,,,,,,,,,,,,,,,,,,,,,,,,,,,,,,,,,,
,,,,,WIN24_013,20,Female,2024-01-29_16h28.59.532,jersey_experiment_5,2023.2.2,Win32,84.74576271,,,,,,,,,,,,,,,,305.3617,306.6633,306.6633,328.1528,return,0.9201,,0.130208333,0,24,24,7,1,FBP-OG-81.png,0.4,1.2,8,0.5,,,,,,,,,,,,,,,,,,,,,,,,,,,,,,,,,,,,,,,,,,,,,
,,,,,WIN24_013,20,Female,2024-01-29_16h28.59.532,jersey_experiment_5,2023.2.2,Win32,84.74576271,,,,,,,,,,,,,,,,328.1529,329.4526,329.4526,333.4998,return,1.0448,,99.609375,0,25,25,59,1,FBP-PT-19.png,0.45,1.2,60,0.5,,,,,,,,,,,,,,,,,,,,,,,,,,,,,,,,,,,,,,,,,,,,,
,,,,,WIN24_013,20,Female,2024-01-29_16h28.59.532,jersey_experiment_5,2023.2.2,Win32,84.74576271,,,,,,,,,,,,,,,,333.5,334.794,334.794,336.6528,return,0.9243,,99.609375,0,26,26,4,1,FBP-OG-71.png,0.45,1.2,5,0.5,,,,,,,,,,,,,,,,,,,,,,,,,,,,,,,,,,,,,,,,,,,,,
,,,,,WIN24_013,20,Female,2024-01-29_16h28.59.532,jersey_experiment_5,2023.2.2,Win32,84.74576271,,,,,,,,,,,,,,,,336.653,338.4528,338.4529,342.5983,return,1.6238,,75.13020833,0,27,27,16,1,FBP-RB-17.png,0.37,1.2,17,1,,,,,,,,,,,,,,,,,,,,,,,,,,,,,,,,,,,,,,,,,,,,,
,,,,,WIN24_013,20,Female,2024-01-29_16h28.59.532,jersey_experiment_5,2023.2.2,Win32,84.74576271,,,,,,,,,,,,,,,,342.5985,344.3942,344.3942,348.1944,return,0.8957,,89.19270833,0,28,28,37,1,FBP-YG-81.png,0.4,1.2,38,1,,,,,,,,,,,,,,,,,,,,,,,,,,,,,,,,,,,,,,,,,,,,,
,,,,,WIN24_013,20,Female,2024-01-29_16h28.59.532,jersey_experiment_5,2023.2.2,Win32,84.74576271,,,,,,,,,,,,,,,,348.1946,349.9945,349.9946,352.5828,return,1.0328,,75.13020833,0,29,29,41,1,FBP-YG-91.png,0.37,1.2,42,1,,,,,,,,,,,,,,,,,,,,,,,,,,,,,,,,,,,,,,,,,,,,,
,,,,,WIN24_013,20,Female,2024-01-29_16h28.59.532,jersey_experiment_5,2023.2.2,Win32,84.74576271,,,,,,,,,,,,,,,,352.583,353.8769,353.8769,357.2208,return,0.8575,,99.609375,0,30,30,8,1,FBP-OG-81.png,0.43,1.2,9,0.5,,,,,,,,,,,,,,,,,,,,,,,,,,,,,,,,,,,,,,,,,,,,,
,,,,,WIN24_013,20,Female,2024-01-29_16h28.59.532,jersey_experiment_5,2023.2.2,Win32,84.74576271,,,,,,,,,,,,,,,,357.221,358.5281,358.5282,361.6302,return,1.0175,,75.26041667,0,31,31,12,1,FBP-OG-91.png,0.4,1.2,13,0.5,,,,,,,,,,,,,,,,,,,,,,,,,,,,,,,,,,,,,,,,,,,,,
,,,,,WIN24_013,20,Female,2024-01-29_16h28.59.532,jersey_experiment_5,2023.2.2,Win32,84.74576271,,,,,,,,,,,,,,,,361.6304,363.4302,363.4302,365.5756,return,0.8571,,99.34895833,0,32,32,43,1,FBP-YG-91.png,0.43,1.2,44,1,,,,,,,,,,,,,,,,,,,,,,,,,,,,,,,,,,,,,,,,,,,,,
,,,,,WIN24_013,20,Female,2024-01-29_16h28.59.532,jersey_experiment_5,2023.2.2,Win32,84.74576271,,,,,,,,,,,,,,,,365.5757,366.8711,366.8711,369.9169,return,0.9041,,75.65104167,0,33,33,53,1,FBP-PT-18.png,0.43,1.2,54,0.5,,,,,,,,,,,,,,,,,,,,,,,,,,,,,,,,,,,,,,,,,,,,,
,,,,,WIN24_013,20,Female,2024-01-29_16h28.59.532,jersey_experiment_5,2023.2.2,Win32,84.74576271,,,,,,,,,,,,,,,,369.9171,371.2188,371.2188,373.0305,return,0.7435,,99.86979167,0,34,34,58,1,FBP-PT-19.png,0.43,1.2,59,0.5,,,,,,,,,,,,,,,,,,,,,,,,,,,,,,,,,,,,,,,,,,,,,
,,,,,WIN24_013,20,Female,2024-01-29_16h28.59.532,jersey_experiment_5,2023.2.2,Win32,84.74576271,,,,,,,,,,,,,,,,373.0308,374.8307,374.8307,408.9891,return,1.259,,75.65104167,0,35,35,42,1,FBP-YG-91.png,0.4,1.2,43,1,,,,,,,,,,,,,,,,,,,,,,,,,,,,,,,,,,,,,,,,,,,,,
,,,,,WIN24_013,20,Female,2024-01-29_16h28.59.532,jersey_experiment_5,2023.2.2,Win32,84.74576271,,,,,,,,,,,,,,,,408.9892,410.2931,410.2931,412.9891,return,0.6356,,25,0,36,36,1,1,FBP-OG-71.png,0.37,1.2,2,0.5,,,,,,,,,,,,,,,,,,,,,,,,,,,,,,,,,,,,,,,,,,,,,
,,,,,WIN24_013,20,Female,2024-01-29_16h28.59.532,jersey_experiment_5,2023.2.2,Win32,84.74576271,,,,,,,,,,,,,,,,412.9893,414.297,414.297,416.662,return,0.6729,,75.26041667,0,37,37,2,1,FBP-OG-71.png,0.4,1.2,3,0.5,,,,,,,,,,,,,,,,,,,,,,,,,,,,,,,,,,,,,,,,,,,,,
,,,,,WIN24_013,20,Female,2024-01-29_16h28.59.532,jersey_experiment_5,2023.2.2,Win32,84.74576271,,,,,,,,,,,,,,,,416.6622,417.9538,417.9538,420.1894,return,0.8336,,99.21875,0,38,38,49,1,FBP-PT-17.png,0.45,1.2,50,0.5,,,,,,,,,,,,,,,,,,,,,,,,,,,,,,,,,,,,,,,,,,,,,
,,,,,WIN24_013,20,Female,2024-01-29_16h28.59.532,jersey_experiment_5,2023.2.2,Win32,84.74576271,,,,,,,,,,,,,,,,420.1895,421.9853,421.9853,424.2603,return,0.707,,99.73958333,0,39,39,34,1,FBP-YG-71.png,0.45,1.2,35,1,,,,,,,,,,,,,,,,,,,,,,,,,,,,,,,,,,,,,,,,,,,,,
,,,,,WIN24_013,20,Female,2024-01-29_16h28.59.532,jersey_experiment_5,2023.2.2,Win32,84.74576271,,,,,,,,,,,,,,,,424.2604,426.059,426.0591,430.6679,return,0.2293,,75.26041667,0,40,40,17,1,FBP-RB-17.png,0.4,1.2,18,1,,,,,,,,,,,,,,,,,,,,,,,,,,,,,,,,,,,,,,,,,,,,,
,,,,,WIN24_013,20,Female,2024-01-29_16h28.59.532,jersey_experiment_5,2023.2.2,Win32,84.74576271,,,,,,,,,,,,,,,,430.6681,432.472,432.472,433.296,return,0.2686,,75.26041667,0,41,41,33,1,FBP-YG-71.png,0.43,1.2,34,1,,,,,,,,,,,,,,,,,,,,,,,,,,,,,,,,,,,,,,,,,,,,,
,,,,,WIN24_013,20,Female,2024-01-29_16h28.59.532,jersey_experiment_5,2023.2.2,Win32,84.74576271,,,,,,,,,,,,,,,,433.2962,435.0917,435.0917,437.542,return,0.7283,,25.26041667,0,42,42,26,1,FBP-RB-19.png,0.37,1.2,27,1,,,,,,,,,,,,,,,,,,,,,,,,,,,,,,,,,,,,,,,,,,,,,
,,,,,WIN24_013,20,Female,2024-01-29_16h28.59.532,jersey_experiment_5,2023.2.2,Win32,84.74576271,,,,,,,,,,,,,,,,437.5421,439.3391,439.3391,440.2375,return,0.2593,,49.08854167,0,43,43,31,1,FBP-YG-71.png,0.37,1.2,32,1,,,,,,,,,,,,,,,,,,,,,,,,,,,,,,,,,,,,,,,,,,,,,
,,,,,WIN24_013,20,Female,2024-01-29_16h28.59.532,jersey_experiment_5,2023.2.2,Win32,84.74576271,,,,,,,,,,,,,,,,440.2376,441.5391,441.5391,442.9314,return,0.6099,,49.08854167,0,44,44,56,1,FBP-PT-19.png,0.37,1.2,57,0.5,,,,,,,,,,,,,,,,,,,,,,,,,,,,,,,,,,,,,,,,,,,,,
,,,,,WIN24_013,20,Female,2024-01-29_16h28.59.532,jersey_experiment_5,2023.2.2,Win32,84.74576271,,,,,,,,,,,,,,,,442.9316,444.2331,444.2331,446.7689,return,0.2974,,99.86979167,0,45,45,54,1,FBP-PT-18.png,0.45,1.2,55,0.5,,,,,,,,,,,,,,,,,,,,,,,,,,,,,,,,,,,,,,,,,,,,,
,,,,,WIN24_013,20,Female,2024-01-29_16h28.59.532,jersey_experiment_5,2023.2.2,Win32,84.74576271,,,,,,,,,,,,,,,,446.7691,448.0726,448.0727,449.7436,return,0.341,,99.47916667,0,46,46,52,1,FBP-PT-18.png,0.4,1.2,53,0.5,,,,,,,,,,,,,,,,,,,,,,,,,,,,,,,,,,,,,,,,,,,,,
,,,,,WIN24_013,20,Female,2024-01-29_16h28.59.532,jersey_experiment_5,2023.2.2,Win32,84.74576271,,,,,,,,,,,,,,,,449.7437,451.039,451.0391,452.8122,return,0.2588,,49.73958333,0,47,47,10,1,FBP-OG-91.png,0.35,1.2,11,0.5,,,,,,,,,,,,,,,,,,,,,,,,,,,,,,,,,,,,,,,,,,,,,
,,,,,WIN24_013,20,Female,2024-01-29_16h28.59.532,jersey_experiment_5,2023.2.2,Win32,84.74576271,,,,,,,,,,,,,,,,452.8124,454.6099,454.6099,458.3749,return,3.1037,,66.40625,0,48,48,25,1,FBP-RB-19.png,0.35,1.2,26,1,,,,,,,,,,,,,,,,,,,,,,,,,,,,,,,,,,,,,,,,,,,,,
,,,,,WIN24_013,20,Female,2024-01-29_16h28.59.532,jersey_experiment_5,2023.2.2,Win32,84.74576271,,,,,,,,,,,,,,,,458.3752,460.175,460.175,461.4221,return,0.3699,,49.609375,0,49,49,30,1,FBP-YG-71.png,0.35,1.2,31,1,,,,,,,,,,,,,,,,,,,,,,,,,,,,,,,,,,,,,,,,,,,,,
,,,,,WIN24_013,20,Female,2024-01-29_16h28.59.532,jersey_experiment_5,2023.2.2,Win32,84.74576271,,,,,,,,,,,,,,,,461.4222,463.2144,463.2144,464.344,return,0.2963,,99.47916667,0,50,50,28,1,FBP-RB-19.png,0.43,1.2,29,1,,,,,,,,,,,,,,,,,,,,,,,,,,,,,,,,,,,,,,,,,,,,,
,,,,,WIN24_013,20,Female,2024-01-29_16h28.59.532,jersey_experiment_5,2023.2.2,Win32,84.74576271,,,,,,,,,,,,,,,,464.3442,465.6378,465.6378,467.2616,return,0.2351,,24.47916667,0,51,51,50,1,FBP-PT-18.png,0.35,1.2,51,0.5,,,,,,,,,,,,,,,,,,,,,,,,,,,,,,,,,,,,,,,,,,,,,
,,,,,WIN24_013,20,Female,2024-01-29_16h28.59.532,jersey_experiment_5,2023.2.2,Win32,84.74576271,,,,,,,,,,,,,,,,467.2617,468.5558,468.5558,471.2257,return,0.3051,,99.609375,0,52,52,9,1,FBP-OG-81.png,0.45,1.2,10,0.5,,,,,,,,,,,,,,,,,,,,,,,,,,,,,,,,,,,,,,,,,,,,,
,,,,,WIN24_013,20,Female,2024-01-29_16h28.59.532,jersey_experiment_5,2023.2.2,Win32,84.74576271,,,,,,,,,,,,,,,,471.2258,473.0225,473.0226,481.0271,return,0.2569,,75,0,53,53,36,1,FBP-YG-81.png,0.37,1.2,37,1,,,,,,,,,,,,,,,,,,,,,,,,,,,,,,,,,,,,,,,,,,,,,
,,,,,WIN24_013,20,Female,2024-01-29_16h28.59.532,jersey_experiment_5,2023.2.2,Win32,84.74576271,,,,,,,,,,,,,,,,481.0272,482.3286,482.3287,483.5523,return,0.2028,,50.65104167,0,54,54,51,1,FBP-PT-18.png,0.37,1.2,52,0.5,,,,,,,,,,,,,,,,,,,,,,,,,,,,,,,,,,,,,,,,,,,,,
,,,,,WIN24_013,20,Female,2024-01-29_16h28.59.532,jersey_experiment_5,2023.2.2,Win32,84.74576271,,,,,,,,,,,,,,,,483.5526,485.3449,485.345,486.6036,return,0.2234,,99.21875,0,55,55,23,1,FBP-RB-18.png,0.43,1.2,24,1,,,,,,,,,,,,,,,,,,,,,,,,,,,,,,,,,,,,,,,,,,,,,
,,,,,WIN24_013,20,Female,2024-01-29_16h28.59.532,jersey_experiment_5,2023.2.2,Win32,84.74576271,,,,,,,,,,,,,,,,486.6038,487.9092,487.9093,491.9706,return,0.8257,,75.52083333,0,56,56,0,1,FBP-OG-71.png,0.35,1.2,1,0.5,,,,,,,,,,,,,,,,,,,,,,,,,,,,,,,,,,,,,,,,,,,,,
,,,,,WIN24_013,20,Female,2024-01-29_16h28.59.532,jersey_experiment_5,2023.2.2,Win32,84.74576271,,,,,,,,,,,,,,,,491.9707,493.2703,493.2704,501.2823,return,0.2347,,75.13020833,0,57,57,5,1,FBP-OG-81.png,0.35,1.2,6,0.5,,,,,,,,,,,,,,,,,,,,,,,,,,,,,,,,,,,,,,,,,,,,,
,,,,,WIN24_013,20,Female,2024-01-29_16h28.59.532,jersey_experiment_5,2023.2.2,Win32,84.74576271,,,,,,,,,,,,,,,,501.2825,502.5805,502.5805,504.1572,return,0.353,,99.73958333,0,58,58,48,1,FBP-PT-17.png,0.43,1.2,49,0.5,,,,,,,,,,,,,,,,,,,,,,,,,,,,,,,,,,,,,,,,,,,,,
,,,,,WIN24_013,20,Female,2024-01-29_16h28.59.532,jersey_experiment_5,2023.2.2,Win32,84.74576271,,,,,,,,,,,,,,,,504.1573,505.4648,505.4649,506.5296,return,0.286,,99.609375,0,59,59,47,1,FBP-PT-17.png,0.4,1.2,48,0.5,,,,,,,,,,,,,,,,,,,,,,,,,,,,,,,,,,,,,,,,,,,,,
,,,,,WIN24_013,20,Female,2024-01-29_16h28.59.532,jersey_experiment_5,2023.2.2,Win32,84.74576271,,,,,,,,,,,,,,,,506.5318,508.3297,508.3297,509.8379,return,0.1399,,75,,,,,,FBP-RB-71.png,0.37,1.2,17,1,0,0,0,16,1,,,,,,,,,,,,,,,,,,,,,,,,,,,,,,,,,,,,,,,,
,,,,,WIN24_013,20,Female,2024-01-29_16h28.59.532,jersey_experiment_5,2023.2.2,Win32,84.74576271,,,,,,,,,,,,,,,,509.8382,511.1299,511.1299,513.0398,return,0.2942,,24.86979167,,,,,,FBP-OG-17.png,0.35,1.2,1,0.5,0,1,1,0,1,,,,,,,,,,,,,,,,,,,,,,,,,,,,,,,,,,,,,,,,
,,,,,WIN24_013,20,Female,2024-01-29_16h28.59.532,jersey_experiment_5,2023.2.2,Win32,84.74576271,,,,,,,,,,,,,,,,513.04,514.3333,514.3333,515.9929,return,0.3532,,25.13020833,,,,,,FBP-PT-71.png,0.37,1.2,47,0.5,0,2,2,46,1,,,,,,,,,,,,,,,,,,,,,,,,,,,,,,,,,,,,,,,,
,,,,,WIN24_013,20,Female,2024-01-29_16h28.59.532,jersey_experiment_5,2023.2.2,Win32,84.74576271,,,,,,,,,,,,,,,,515.993,517.7889,517.7889,519.7458,return,0.5767,,23.69791667,,,,,,FBP-RB-81.png,0.37,1.2,22,1,0,3,3,21,1,,,,,,,,,,,,,,,,,,,,,,,,,,,,,,,,,,,,,,,,
,,,,,WIN24_013,20,Female,2024-01-29_16h28.59.532,jersey_experiment_5,2023.2.2,Win32,84.74576271,,,,,,,,,,,,,,,,519.746,521.5461,521.5461,523.0659,return,0.3447,,0.390625,,,,,,FBP-YG-19.png,0.35,1.2,41,1,0,4,4,40,1,,,,,,,,,,,,,,,,,,,,,,,,,,,,,,,,,,,,,,,,
,,,,,WIN24_013,20,Female,2024-01-29_16h28.59.532,jersey_experiment_5,2023.2.2,Win32,84.74576271,,,,,,,,,,,,,,,,523.0659,524.3656,524.3656,526.1579,return,0.2351,,99.73958333,,,,,,FBP-OG-19.png,0.43,1.2,14,0.5,0,5,5,13,1,,,,,,,,,,,,,,,,,,,,,,,,,,,,,,,,,,,,,,,,
,,,,,WIN24_013,20,Female,2024-01-29_16h28.59.532,jersey_experiment_5,2023.2.2,Win32,84.74576271,,,,,,,,,,,,,,,,526.1581,527.4659,527.4659,529.0739,return,0.2101,,99.86979167,,,,,,FBP-PT-91.png,0.45,1.2,60,0.5,0,6,6,59,1,,,,,,,,,,,,,,,,,,,,,,,,,,,,,,,,,,,,,,,,
,,,,,WIN24_013,20,Female,2024-01-29_16h28.59.532,jersey_experiment_5,2023.2.2,Win32,84.74576271,,,,,,,,,,,,,,,,529.0741,530.8759,530.8759,532.4192,return,0.2354,,25.26041667,,,,,,FBP-YG-18.png,0.35,1.2,36,1,0,7,7,35,1,,,,,,,,,,,,,,,,,,,,,,,,,,,,,,,,,,,,,,,,
,,,,,WIN24_013,20,Female,2024-01-29_16h28.59.532,jersey_experiment_5,2023.2.2,Win32,84.74576271,,,,,,,,,,,,,,,,532.4193,533.711,533.711,539.8054,return,4.7041,,25.65104167,,,,,,FBP-PT-81.png,0.35,1.2,51,0.5,0,8,8,50,1,,,,,,,,,,,,,,,,,,,,,,,,,,,,,,,,,,,,,,,,
,,,,,WIN24_013,20,Female,2024-01-29_16h28.59.532,jersey_experiment_5,2023.2.2,Win32,84.74576271,,,,,,,,,,,,,,,,539.8096,541.1113,541.1113,543.4251,return,0.2034,,99.47916667,,,,,,FBP-PT-81.png,0.43,1.2,54,0.5,0,9,9,53,1,,,,,,,,,,,,,,,,,,,,,,,,,,,,,,,,,,,,,,,,
,,,,,WIN24_013,20,Female,2024-01-29_16h28.59.532,jersey_experiment_5,2023.2.2,Win32,84.74576271,,,,,,,,,,,,,,,,543.4254,544.7195,544.7195,546.4165,return,0.2576,,99.21875,,,,,,FBP-PT-91.png,0.4,1.2,58,0.5,0,10,10,57,1,,,,,,,,,,,,,,,,,,,,,,,,,,,,,,,,,,,,,,,,
,,,,,WIN24_013,20,Female,2024-01-29_16h28.59.532,jersey_experiment_5,2023.2.2,Win32,84.74576271,,,,,,,,,,,,,,,,546.4166,547.7116,547.7117,548.8372,return,0.2348,,99.47916667,,,,,,FBP-OG-17.png,0.43,1.2,4,0.5,0,11,11,3,1,,,,,,,,,,,,,,,,,,,,,,,,,,,,,,,,,,,,,,,,
,,,,,WIN24_013,20,Female,2024-01-29_16h28.59.532,jersey_experiment_5,2023.2.2,Win32,84.74576271,,,,,,,,,,,,,,,,548.8374,550.1373,550.1373,551.7805,return,0.3042,,74.21875,,,,,,FBP-PT-91.png,0.37,1.2,57,0.5,0,12,12,56,1,,,,,,,,,,,,,,,,,,,,,,,,,,,,,,,,,,,,,,,,
,,,,,WIN24_013,20,Female,2024-01-29_16h28.59.532,jersey_experiment_5,2023.2.2,Win32,84.74576271,,,,,,,,,,,,,,,,551.7806,553.5808,553.5808,555.3475,return,0.271,,75.26041667,,,,,,FBP-YG-19.png,0.4,1.2,43,1,0,13,13,42,1,,,,,,,,,,,,,,,,,,,,,,,,,,,,,,,,,,,,,,,,
,,,,,WIN24_013,20,Female,2024-01-29_16h28.59.532,jersey_experiment_5,2023.2.2,Win32,84.74576271,,,,,,,,,,,,,,,,555.3476,556.655,556.655,558.3106,return,0.1635,,49.609375,,,,,,FBP-OG-19.png,0.4,1.2,13,0.5,0,14,14,12,1,,,,,,,,,,,,,,,,,,,,,,,,,,,,,,,,,,,,,,,,
,,,,,WIN24_013,20,Female,2024-01-29_16h28.59.532,jersey_experiment_5,2023.2.2,Win32,84.74576271,,,,,,,,,,,,,,,,558.3107,560.108,560.108,562.8416,return,0.8491,,38.41145833,,,,,,FBP-RB-91.png,0.37,1.2,27,1,0,15,15,26,1,,,,,,,,,,,,,,,,,,,,,,,,,,,,,,,,,,,,,,,,
,,,,,WIN24_013,20,Female,2024-01-29_16h28.59.532,jersey_experiment_5,2023.2.2,Win32,84.74576271,,,,,,,,,,,,,,,,562.8418,564.6416,564.6416,565.5907,return,0.3669,,38.671875,,,,,,FBP-RB-91.png,0.4,1.2,28,1,0,16,16,27,1,,,,,,,,,,,,,,,,,,,,,,,,,,,,,,,,,,,,,,,,
,,,,,WIN24_013,20,Female,2024-01-29_16h28.59.532,jersey_experiment_5,2023.2.2,Win32,84.74576271,,,,,,,,,,,,,,,,565.5909,567.3829,567.3829,569.473,return,0.3315,,99.86979167,,,,,,FBP-RB-91.png,0.45,1.2,30,1,0,17,17,29,1,,,,,,,,,,,,,,,,,,,,,,,,,,,,,,,,,,,,,,,,
,,,,,WIN24_013,20,Female,2024-01-29_16h28.59.532,jersey_experiment_5,2023.2.2,Win32,84.74576271,,,,,,,,,,,,,,,,569.4733,571.277,571.277,578.6305,return,0.1177,,75.52083333,,,,,,FBP-YG-18.png,0.37,1.2,37,1,0,18,18,36,1,,,,,,,,,,,,,,,,,,,,,,,,,,,,,,,,,,,,,,,,
,,,,,WIN24_013,20,Female,2024-01-29_16h28.59.532,jersey_experiment_5,2023.2.2,Win32,84.74576271,,,,,,,,,,,,,,,,578.6306,579.9324,579.9324,581.2499,return,0.2013,,74.08854167,,,,,,FBP-PT-71.png,0.4,1.2,48,0.5,0,19,19,47,1,,,,,,,,,,,,,,,,,,,,,,,,,,,,,,,,,,,,,,,,
,,,,,WIN24_013,20,Female,2024-01-29_16h28.59.532,jersey_experiment_5,2023.2.2,Win32,84.74576271,,,,,,,,,,,,,,,,581.25,582.5442,582.5442,584.0149,return,0.2512,,75.65104167,,,,,,FBP-PT-81.png,0.4,1.2,53,0.5,0,20,20,52,1,,,,,,,,,,,,,,,,,,,,,,,,,,,,,,,,,,,,,,,,
,,,,,WIN24_013,20,Female,2024-01-29_16h28.59.532,jersey_experiment_5,2023.2.2,Win32,84.74576271,,,,,,,,,,,,,,,,584.015,585.807,585.807,586.6798,return,0.2943,,98.828125,,,,,,FBP-YG-17.png,0.43,1.2,34,1,0,21,21,33,1,,,,,,,,,,,,,,,,,,,,,,,,,,,,,,,,,,,,,,,,
,,,,,WIN24_013,20,Female,2024-01-29_16h28.59.532,jersey_experiment_5,2023.2.2,Win32,84.74576271,,,,,,,,,,,,,,,,586.68,587.9719,587.9719,589.4076,return,0.1867,,25.390625,,,,,,FBP-PT-71.png,0.35,1.2,46,0.5,0,22,22,45,1,,,,,,,,,,,,,,,,,,,,,,,,,,,,,,,,,,,,,,,,
,,,,,WIN24_013,20,Female,2024-01-29_16h28.59.532,jersey_experiment_5,2023.2.2,Win32,84.74576271,,,,,,,,,,,,,,,,589.4077,591.2095,591.2095,594.2902,return,0.2219,,75.26041667,,,,,,FBP-RB-91.png,0.43,1.2,29,1,0,23,23,28,1,,,,,,,,,,,,,,,,,,,,,,,,,,,,,,,,,,,,,,,,
,,,,,WIN24_013,20,Female,2024-01-29_16h28.59.532,jersey_experiment_5,2023.2.2,Win32,84.74576271,,,,,,,,,,,,,,,,594.2903,596.092,596.092,597.0389,return,0.1806,,99.34895833,,,,,,FBP-RB-81.png,0.43,1.2,24,1,0,24,24,23,1,,,,,,,,,,,,,,,,,,,,,,,,,,,,,,,,,,,,,,,,
,,,,,WIN24_013,20,Female,2024-01-29_16h28.59.532,jersey_experiment_5,2023.2.2,Win32,84.74576271,,,,,,,,,,,,,,,,597.039,598.8333,598.8333,599.9729,return,0.2595,,24.73958333,,,,,,FBP-RB-81.png,0.35,1.2,21,1,0,25,25,20,1,,,,,,,,,,,,,,,,,,,,,,,,,,,,,,,,,,,,,,,,
,,,,,WIN24_013,20,Female,2024-01-29_16h28.59.532,jersey_experiment_5,2023.2.2,Win32,84.74576271,,,,,,,,,,,,,,,,599.9731,601.7685,601.7685,606.5847,return,0.1751,,49.08854167,,,,,,FBP-RB-71.png,0.43,1.2,19,1,0,26,26,18,1,,,,,,,,,,,,,,,,,,,,,,,,,,,,,,,,,,,,,,,,
,,,,,WIN24_013,20,Female,2024-01-29_16h28.59.532,jersey_experiment_5,2023.2.2,Win32,84.74576271,,,,,,,,,,,,,,,,606.5849,608.3805,608.3805,610.5569,return,1.1472,,61.06770833,,,,,,FBP-RB-71.png,0.4,1.2,18,1,0,27,27,17,1,,,,,,,,,,,,,,,,,,,,,,,,,,,,,,,,,,,,,,,,
,,,,,WIN24_013,20,Female,2024-01-29_16h28.59.532,jersey_experiment_5,2023.2.2,Win32,84.74576271,,,,,,,,,,,,,,,,610.5571,611.8511,611.8511,613.2865,return,0.3179,,25.26041667,,,,,,FBP-OG-18.png,0.37,1.2,7,0.5,0,28,28,6,1,,,,,,,,,,,,,,,,,,,,,,,,,,,,,,,,,,,,,,,,
,,,,,WIN24_013,20,Female,2024-01-29_16h28.59.532,jersey_experiment_5,2023.2.2,Win32,84.74576271,,,,,,,,,,,,,,,,613.2866,614.5807,614.5807,617.71,return,2.1325,,25.52083333,,,,,,FBP-OG-18.png,0.4,1.2,8,0.5,0,29,29,7,1,,,,,,,,,,,,,,,,,,,,,,,,,,,,,,,,,,,,,,,,
,,,,,WIN24_013,20,Female,2024-01-29_16h28.59.532,jersey_experiment_5,2023.2.2,Win32,84.74576271,,,,,,,,,,,,,,,,617.7101,619.0043,619.0043,620.6397,return,0.1577,,99.73958333,,,,,,FBP-OG-18.png,0.45,1.2,10,0.5,0,30,30,9,1,,,,,,,,,,,,,,,,,,,,,,,,,,,,,,,,,,,,,,,,
,,,,,WIN24_013,20,Female,2024-01-29_16h28.59.532,jersey_experiment_5,2023.2.2,Win32,84.74576271,,,,,,,,,,,,,,,,620.6399,621.9337,621.9338,623.3455,return,0.6467,,99.86979167,,,,,,FBP-OG-17.png,0.4,1.2,3,0.5,0,31,31,2,1,,,,,,,,,,,,,,,,,,,,,,,,,,,,,,,,,,,,,,,,
,,,,,WIN24_013,20,Female,2024-01-29_16h28.59.532,jersey_experiment_5,2023.2.2,Win32,84.74576271,,,,,,,,,,,,,,,,623.3457,625.137,625.137,626.1028,return,0.2709,,99.34895833,,,,,,FBP-YG-18.png,0.43,1.2,39,1,0,32,32,38,1,,,,,,,,,,,,,,,,,,,,,,,,,,,,,,,,,,,,,,,,
,,,,,WIN24_013,20,Female,2024-01-29_16h28.59.532,jersey_experiment_5,2023.2.2,Win32,84.74576271,,,,,,,,,,,,,,,,626.1029,627.9031,627.9031,631.3022,return,2.0935,,74.73958333,,,,,,FBP-YG-17.png,0.37,1.2,32,1,0,33,33,31,1,,,,,,,,,,,,,,,,,,,,,,,,,,,,,,,,,,,,,,,,
,,,,,WIN24_013,20,Female,2024-01-29_16h28.59.532,jersey_experiment_5,2023.2.2,Win32,84.74576271,,,,,,,,,,,,,,,,631.3024,632.6049,632.6049,633.7735,return,0.2454,,75.13020833,,,,,,FBP-OG-17.png,0.37,1.2,2,0.5,0,34,34,1,1,,,,,,,,,,,,,,,,,,,,,,,,,,,,,,,,,,,,,,,,
,,,,,WIN24_013,20,Female,2024-01-29_16h28.59.532,jersey_experiment_5,2023.2.2,Win32,84.74576271,,,,,,,,,,,,,,,,633.7737,635.5758,635.5758,637.6638,return,0.7328,,98.95833333,,,,,,FBP-RB-71.png,0.45,1.2,20,1,0,35,35,19,1,,,,,,,,,,,,,,,,,,,,,,,,,,,,,,,,,,,,,,,,
,,,,,WIN24_013,20,Female,2024-01-29_16h28.59.532,jersey_experiment_5,2023.2.2,Win32,84.74576271,,,,,,,,,,,,,,,,637.6641,638.958,638.958,651.0409,return,7.4277,,99.21875,,,,,,FBP-OG-17.png,0.45,1.2,5,0.5,0,36,36,4,1,,,,,,,,,,,,,,,,,,,,,,,,,,,,,,,,,,,,,,,,
,,,,,WIN24_013,20,Female,2024-01-29_16h28.59.532,jersey_experiment_5,2023.2.2,Win32,84.74576271,,,,,,,,,,,,,,,,651.0455,652.3468,652.3468,654.5585,return,0.24,,99.609375,,,,,,FBP-PT-81.png,0.45,1.2,55,0.5,0,37,37,54,1,,,,,,,,,,,,,,,,,,,,,,,,,,,,,,,,,,,,,,,,
,,,,,WIN24_013,20,Female,2024-01-29_16h28.59.532,jersey_experiment_5,2023.2.2,Win32,84.74576271,,,,,,,,,,,,,,,,654.5585,656.3512,656.3512,657.3586,return,0.393,,99.86979167,,,,,,FBP-YG-19.png,0.45,1.2,45,1,0,38,38,44,1,,,,,,,,,,,,,,,,,,,,,,,,,,,,,,,,,,,,,,,,
,,,,,WIN24_013,20,Female,2024-01-29_16h28.59.532,jersey_experiment_5,2023.2.2,Win32,84.74576271,,,,,,,,,,,,,,,,657.3588,658.6572,658.6572,660.4177,return,0.4017,,99.86979167,,,,,,FBP-PT-91.png,0.43,1.2,59,0.5,0,39,39,58,1,,,,,,,,,,,,,,,,,,,,,,,,,,,,,,,,,,,,,,,,
,,,,,WIN24_013,20,Female,2024-01-29_16h28.59.532,jersey_experiment_5,2023.2.2,Win32,84.74576271,,,,,,,,,,,,,,,,660.4179,661.7118,661.7118,662.5738,return,0.3052,,99.47916667,,,,,,FBP-PT-71.png,0.43,1.2,49,0.5,0,40,40,48,1,,,,,,,,,,,,,,,,,,,,,,,,,,,,,,,,,,,,,,,,
,,,,,WIN24_013,20,Female,2024-01-29_16h28.59.532,jersey_experiment_5,2023.2.2,Win32,84.74576271,,,,,,,,,,,,,,,,662.5739,663.8787,663.8787,665.6336,return,0.4374,,25.390625,,,,,,FBP-OG-19.png,0.35,1.2,11,0.5,0,41,41,10,1,,,,,,,,,,,,,,,,,,,,,,,,,,,,,,,,,,,,,,,,
,,,,,WIN24_013,20,Female,2024-01-29_16h28.59.532,jersey_experiment_5,2023.2.2,Win32,84.74576271,,,,,,,,,,,,,,,,665.6338,667.4357,667.4357,669.6241,return,0.2231,,24.609375,,,,,,FBP-YG-19.png,0.37,1.2,42,1,0,42,42,41,1,,,,,,,,,,,,,,,,,,,,,,,,,,,,,,,,,,,,,,,,
,,,,,WIN24_013,20,Female,2024-01-29_16h28.59.532,jersey_experiment_5,2023.2.2,Win32,84.74576271,,,,,,,,,,,,,,,,669.6242,671.422,671.422,680.625,return,1.0851,,24.47916667,,,,,,FBP-YG-17.png,0.35,1.2,31,1,0,43,43,30,1,,,,,,,,,,,,,,,,,,,,,,,,,,,,,,,,,,,,,,,,
,,,,,WIN24_013,20,Female,2024-01-29_16h28.59.532,jersey_experiment_5,2023.2.2,Win32,84.74576271,,,,,,,,,,,,,,,,680.6251,682.4225,682.4225,684.4451,return,0.964,,74.86979167,,,,,,FBP-YG-18.png,0.4,1.2,38,1,0,44,44,37,1,,,,,,,,,,,,,,,,,,,,,,,,,,,,,,,,,,,,,,,,
,,,,,WIN24_013,20,Female,2024-01-29_16h28.59.532,jersey_experiment_5,2023.2.2,Win32,84.74576271,,,,,,,,,,,,,,,,684.4453,686.2421,686.2421,689.501,return,0.1458,,63.28125,,,,,,FBP-RB-81.png,0.4,1.2,23,1,0,45,45,22,1,,,,,,,,,,,,,,,,,,,,,,,,,,,,,,,,,,,,,,,,
,,,,,WIN24_013,20,Female,2024-01-29_16h28.59.532,jersey_experiment_5,2023.2.2,Win32,84.74576271,,,,,,,,,,,,,,,,689.5012,690.7952,690.7953,691.8231,return,0.2355,,61.97916667,,,,,,FBP-PT-81.png,0.37,1.2,52,0.5,0,46,46,51,1,,,,,,,,,,,,,,,,,,,,,,,,,,,,,,,,,,,,,,,,
,,,,,WIN24_013,20,Female,2024-01-29_16h28.59.532,jersey_experiment_5,2023.2.2,Win32,84.74576271,,,,,,,,,,,,,,,,691.8232,693.1247,693.1248,695.586,return,0.2451,,23.69791667,,,,,,FBP-OG-18.png,0.35,1.2,6,0.5,0,47,47,5,1,,,,,,,,,,,,,,,,,,,,,,,,,,,,,,,,,,,,,,,,
,,,,,WIN24_013,20,Female,2024-01-29_16h28.59.532,jersey_experiment_5,2023.2.2,Win32,84.74576271,,,,,,,,,,,,,,,,695.586,696.8779,696.8779,698.9528,return,0.2947,,99.08854167,,,,,,FBP-OG-19.png,0.45,1.2,15,0.5,0,48,48,14,1,,,,,,,,,,,,,,,,,,,,,,,,,,,,,,,,,,,,,,,,
,,,,,WIN24_013,20,Female,2024-01-29_16h28.59.532,jersey_experiment_5,2023.2.2,Win32,84.74576271,,,,,,,,,,,,,,,,698.953,700.7485,700.7486,701.9547,return,0.2142,,99.34895833,,,,,,FBP-YG-18.png,0.45,1.2,40,1,0,49,49,39,1,,,,,,,,,,,,,,,,,,,,,,,,,,,,,,,,,,,,,,,,
,,,,,WIN24_013,20,Female,2024-01-29_16h28.59.532,jersey_experiment_5,2023.2.2,Win32,84.74576271,,,,,,,,,,,,,,,,701.9549,703.7485,703.7485,704.5528,return,0.2563,,99.34895833,,,,,,FBP-YG-17.png,0.45,1.2,35,1,0,50,50,34,1,,,,,,,,,,,,,,,,,,,,,,,,,,,,,,,,,,,,,,,,
,,,,,WIN24_013,20,Female,2024-01-29_16h28.59.532,jersey_experiment_5,2023.2.2,Win32,84.74576271,,,,,,,,,,,,,,,,704.5529,706.3549,706.3549,709.9647,return,0.5155,,48.69791667,,,,,,FBP-RB-91.png,0.35,1.2,26,1,0,51,51,25,1,,,,,,,,,,,,,,,,,,,,,,,,,,,,,,,,,,,,,,,,
,,,,,WIN24_013,20,Female,2024-01-29_16h28.59.532,jersey_experiment_5,2023.2.2,Win32,84.74576271,,,,,,,,,,,,,,,,709.9648,711.7667,711.7667,713.2196,return,0.2115,,74.08854167,,,,,,FBP-RB-81.png,0.45,1.2,25,1,0,52,52,24,1,,,,,,,,,,,,,,,,,,,,,,,,,,,,,,,,,,,,,,,,
,,,,,WIN24_013,20,Female,2024-01-29_16h28.59.532,jersey_experiment_5,2023.2.2,Win32,84.74576271,,,,,,,,,,,,,,,,713.2198,714.5136,714.5136,718.3729,return,1.8449,,99.73958333,,,,,,FBP-PT-71.png,0.45,1.2,50,0.5,0,53,53,49,1,,,,,,,,,,,,,,,,,,,,,,,,,,,,,,,,,,,,,,,,
,,,,,WIN24_013,20,Female,2024-01-29_16h28.59.532,jersey_experiment_5,2023.2.2,Win32,84.74576271,,,,,,,,,,,,,,,,718.3731,720.165,720.165,721.1202,return,0.2612,,99.609375,,,,,,FBP-YG-19.png,0.43,1.2,44,1,0,54,54,43,1,,,,,,,,,,,,,,,,,,,,,,,,,,,,,,,,,,,,,,,,
,,,,,WIN24_013,20,Female,2024-01-29_16h28.59.532,jersey_experiment_5,2023.2.2,Win32,84.74576271,,,,,,,,,,,,,,,,721.1204,722.9141,722.9141,725.9682,return,1.5927,,99.73958333,,,,,,FBP-YG-17.png,0.4,1.2,33,1,0,55,55,32,1,,,,,,,,,,,,,,,,,,,,,,,,,,,,,,,,,,,,,,,,
,,,,,WIN24_013,20,Female,2024-01-29_16h28.59.532,jersey_experiment_5,2023.2.2,Win32,84.74576271,,,,,,,,,,,,,,,,725.9684,727.2671,727.2671,729.8554,return,0.4175,,74.47916667,,,,,,FBP-OG-19.png,0.37,1.2,12,0.5,0,56,56,11,1,,,,,,,,,,,,,,,,,,,,,,,,,,,,,,,,,,,,,,,,
,,,,,WIN24_013,20,Female,2024-01-29_16h28.59.532,jersey_experiment_5,2023.2.2,Win32,84.74576271,,,,,,,,,,,,,,,,729.8557,731.1535,731.1535,733.8556,return,0.1803,,99.73958333,,,,,,FBP-OG-18.png,0.43,1.2,9,0.5,0,57,57,8,1,,,,,,,,,,,,,,,,,,,,,,,,,,,,,,,,,,,,,,,,
,,,,,WIN24_013,20,Female,2024-01-29_16h28.59.532,jersey_experiment_5,2023.2.2,Win32,84.74576271,,,,,,,,,,,,,,,,733.8558,735.1538,735.1538,741.4677,return,4.7139,,49.86979167,,,,,,FBP-PT-91.png,0.35,1.2,56,0.5,0,58,58,55,1,,,,,,,,,,,,,,,,,,,,,,,,,,,,,,,,,,,,,,,,
,,,,,WIN24_013,20,Female,2024-01-29_16h28.59.532,jersey_experiment_5,2023.2.2,Win32,84.74576271,,,,,,,,,,,,,,,,741.4678,743.2677,743.2678,746.7854,return,1.0723,,36.58854167,,,,,,FBP-RB-71.png,0.35,1.2,16,1,0,59,59,15,1,,,,,,,,,,,,,,,,,,,,,,,,,,,,,,,,,,,,,,,,
,,,,,WIN24_013,20,Female,2024-01-29_16h28.59.532,jersey_experiment_5,2023.2.2,Win32,84.74576271,,,,,,,,,,,,,,,,,,,,,,,,,,,,,,,,,,,,,,,746.7856,866.7924,,,,,,,,,,,,,,,,,,,,,,,,,,,,,,,,,,,,,,
,,,,,WIN24_013,20,Female,2024-01-29_16h28.59.532,jersey_experiment_5,2023.2.2,Win32,84.74576271,,,,,,,,,,,,,,,,,,,,,,,,,,,,,,,,,,,,,,,,,866.7925,888.4775,return,21.6716,,,,,,,,,,,,,,,,,,,,,,,,,,,,,,,,,,
,,,,,WIN24_013,20,Female,2024-01-29_16h28.59.532,jersey_experiment_5,2023.2.2,Win32,84.74576271,,,,,,,,,,,,,,,,888.4836,890.2793,890.2793,893.9713,return,1.3391,,99.47916667,,,,,,FBP-OG-71.png,0.45,1.2,5,1,,,,,,,,,,,,,0,0,0,4,1,,,,,,,,,,,,,,,,,,,,,,,,,,,,
,,,,,WIN24_013,20,Female,2024-01-29_16h28.59.532,jersey_experiment_5,2023.2.2,Win32,84.74576271,,,,,,,,,,,,,,,,893.9716,895.7714,895.7714,901.1323,return,0.6791,,50,,,,,,FBP-PT-18.png,0.37,1.2,52,1,,,,,,,,,,,,,0,1,1,51,1,,,,,,,,,,,,,,,,,,,,,,,,,,,,
,,,,,WIN24_013,20,Female,2024-01-29_16h28.59.532,jersey_experiment_5,2023.2.2,Win32,84.74576271,,,,,,,,,,,,,,,,901.1326,902.9244,902.9244,907.4737,return,2.813,,75.13020833,,,,,,FBP-PT-19.png,0.4,1.2,58,1,,,,,,,,,,,,,0,2,2,57,1,,,,,,,,,,,,,,,,,,,,,,,,,,,,
,,,,,WIN24_013,20,Female,2024-01-29_16h28.59.532,jersey_experiment_5,2023.2.2,Win32,84.74576271,,,,,,,,,,,,,,,,907.474,909.2659,909.266,910.8688,return,0.2263,,49.73958333,,,,,,FBP-OG-81.png,0.37,1.2,7,1,,,,,,,,,,,,,0,3,3,6,1,,,,,,,,,,,,,,,,,,,,,,,,,,,,
,,,,,WIN24_013,20,Female,2024-01-29_16h28.59.532,jersey_experiment_5,2023.2.2,Win32,84.74576271,,,,,,,,,,,,,,,,910.8689,912.168,912.168,913.7958,return,0.3871,,99.86979167,,,,,,FBP-YG-91.png,0.43,1.2,44,0.5,,,,,,,,,,,,,0,4,4,43,1,,,,,,,,,,,,,,,,,,,,,,,,,,,,
,,,,,WIN24_013,20,Female,2024-01-29_16h28.59.532,jersey_experiment_5,2023.2.2,Win32,84.74576271,,,,,,,,,,,,,,,,913.7959,915.1016,915.1016,916.2034,return,0.2899,,99.86979167,,,,,,FBP-YG-81.png,0.45,1.2,40,0.5,,,,,,,,,,,,,0,5,5,39,1,,,,,,,,,,,,,,,,,,,,,,,,,,,,
,,,,,WIN24_013,20,Female,2024-01-29_16h28.59.532,jersey_experiment_5,2023.2.2,Win32,84.74576271,,,,,,,,,,,,,,,,916.2036,917.9958,917.9958,920.3606,return,0.5747,,24.73958333,,,,,,FBP-PT-18.png,0.35,1.2,51,1,,,,,,,,,,,,,0,6,6,50,1,,,,,,,,,,,,,,,,,,,,,,,,,,,,
,,,,,WIN24_013,20,Female,2024-01-29_16h28.59.532,jersey_experiment_5,2023.2.2,Win32,84.74576271,,,,,,,,,,,,,,,,920.3607,921.6624,921.6625,923.549,return,0.2709,,73.69791667,,,,,,FBP-RB-18.png,0.4,1.2,23,0.5,,,,,,,,,,,,,0,7,7,22,1,,,,,,,,,,,,,,,,,,,,,,,,,,,,
,,,,,WIN24_013,20,Female,2024-01-29_16h28.59.532,jersey_experiment_5,2023.2.2,Win32,84.74576271,,,,,,,,,,,,,,,,923.5491,924.8548,924.8548,926.6038,return,0.2444,,49.47916667,,,,,,FBP-YG-71.png,0.35,1.2,31,0.5,,,,,,,,,,,,,0,8,8,30,1,,,,,,,,,,,,,,,,,,,,,,,,,,,,
,,,,,WIN24_013,20,Female,2024-01-29_16h28.59.532,jersey_experiment_5,2023.2.2,Win32,84.74576271,,,,,,,,,,,,,,,,926.604,927.898,927.898,932.4924,return,2.9548,,88.02083333,,,,,,FBP-YG-81.png,0.4,1.2,38,0.5,,,,,,,,,,,,,0,9,9,37,1,,,,,,,,,,,,,,,,,,,,,,,,,,,,
,,,,,WIN24_013,20,Female,2024-01-29_16h28.59.532,jersey_experiment_5,2023.2.2,Win32,84.74576271,,,,,,,,,,,,,,,,932.4926,934.2905,934.2906,935.5965,return,0.2473,,99.34895833,,,,,,FBP-PT-18.png,0.43,1.2,54,1,,,,,,,,,,,,,0,10,10,53,1,,,,,,,,,,,,,,,,,,,,,,,,,,,,
,,,,,WIN24_013,20,Female,2024-01-29_16h28.59.532,jersey_experiment_5,2023.2.2,Win32,84.74576271,,,,,,,,,,,,,,,,935.5967,937.3926,937.3926,938.6396,return,0.2171,,99.86979167,,,,,,FBP-OG-71.png,0.43,1.2,4,1,,,,,,,,,,,,,0,11,11,3,1,,,,,,,,,,,,,,,,,,,,,,,,,,,,
,,,,,WIN24_013,20,Female,2024-01-29_16h28.59.532,jersey_experiment_5,2023.2.2,Win32,84.74576271,,,,,,,,,,,,,,,,938.6397,940.4319,940.4319,941.2555,return,0.3294,,99.609375,,,,,,FBP-OG-81.png,0.45,1.2,10,1,,,,,,,,,,,,,0,12,12,9,1,,,,,,,,,,,,,,,,,,,,,,,,,,,,
,,,,,WIN24_013,20,Female,2024-01-29_16h28.59.532,jersey_experiment_5,2023.2.2,Win32,84.74576271,,,,,,,,,,,,,,,,941.2557,943.0557,943.0558,944.1399,return,0.3529,,99.47916667,,,,,,FBP-PT-17.png,0.43,1.2,49,1,,,,,,,,,,,,,0,13,13,48,1,,,,,,,,,,,,,,,,,,,,,,,,,,,,
,,,,,WIN24_013,20,Female,2024-01-29_16h28.59.532,jersey_experiment_5,2023.2.2,Win32,84.74576271,,,,,,,,,,,,,,,,944.1401,945.4399,945.4399,949.5617,return,0.459,,74.86979167,,,,,,FBP-YG-81.png,0.43,1.2,39,0.5,,,,,,,,,,,,,0,14,14,38,1,,,,,,,,,,,,,,,,,,,,,,,,,,,,
,,,,,WIN24_013,20,Female,2024-01-29_16h28.59.532,jersey_experiment_5,2023.2.2,Win32,84.74576271,,,,,,,,,,,,,,,,949.5618,951.3577,951.3577,957.5036,return,0.283,,50.13020833,,,,,,FBP-OG-71.png,0.35,1.2,1,1,,,,,,,,,,,,,0,15,15,0,1,,,,,,,,,,,,,,,,,,,,,,,,,,,,
,,,,,WIN24_013,20,Female,2024-01-29_16h28.59.532,jersey_experiment_5,2023.2.2,Win32,84.74576271,,,,,,,,,,,,,,,,957.5037,959.3035,959.3035,960.3268,return,0.412,,75.13020833,,,,,,FBP-PT-18.png,0.4,1.2,53,1,,,,,,,,,,,,,0,16,16,52,1,,,,,,,,,,,,,,,,,,,,,,,,,,,,
,,,,,WIN24_013,20,Female,2024-01-29_16h28.59.532,jersey_experiment_5,2023.2.2,Win32,84.74576271,,,,,,,,,,,,,,,,960.327,962.1269,962.1269,963.6212,return,0.1985,,24.609375,,,,,,FBP-PT-17.png,0.37,1.2,47,1,,,,,,,,,,,,,0,17,17,46,1,,,,,,,,,,,,,,,,,,,,,,,,,,,,
,,,,,WIN24_013,20,Female,2024-01-29_16h28.59.532,jersey_experiment_5,2023.2.2,Win32,84.74576271,,,,,,,,,,,,,,,,963.6214,964.9267,964.9268,966.478,return,0.1394,,74.609375,,,,,,FBP-RB-19.png,0.45,1.2,30,0.5,,,,,,,,,,,,,0,18,18,29,1,,,,,,,,,,,,,,,,,,,,,,,,,,,,
,,,,,WIN24_013,20,Female,2024-01-29_16h28.59.532,jersey_experiment_5,2023.2.2,Win32,84.74576271,,,,,,,,,,,,,,,,966.4782,967.77,967.77,970.8331,return,1.8472,,89.84375,,,,,,FBP-YG-71.png,0.43,1.2,34,0.5,,,,,,,,,,,,,0,19,19,33,1,,,,,,,,,,,,,,,,,,,,,,,,,,,,
,,,,,WIN24_013,20,Female,2024-01-29_16h28.59.532,jersey_experiment_5,2023.2.2,Win32,84.74576271,,,,,,,,,,,,,,,,970.8333,972.6346,972.6347,973.892,return,0.2351,,88.80208333,,,,,,FBP-OG-81.png,0.43,1.2,9,1,,,,,,,,,,,,,0,20,20,8,1,,,,,,,,,,,,,,,,,,,,,,,,,,,,
,,,,,WIN24_013,20,Female,2024-01-29_16h28.59.532,jersey_experiment_5,2023.2.2,Win32,84.74576271,,,,,,,,,,,,,,,,973.8922,975.1999,975.1999,981.3728,return,1.552,,49.609375,,,,,,FBP-YG-91.png,0.37,1.2,42,0.5,,,,,,,,,,,,,0,21,21,41,1,,,,,,,,,,,,,,,,,,,,,,,,,,,,
,,,,,WIN24_013,20,Female,2024-01-29_16h28.59.532,jersey_experiment_5,2023.2.2,Win32,84.74576271,,,,,,,,,,,,,,,,981.3729,982.6687,982.6687,984.0004,return,0.1296,,23.828125,,,,,,FBP-YG-81.png,0.35,1.2,36,0.5,,,,,,,,,,,,,0,22,22,35,1,,,,,,,,,,,,,,,,,,,,,,,,,,,,
,,,,,WIN24_013,20,Female,2024-01-29_16h28.59.532,jersey_experiment_5,2023.2.2,Win32,84.74576271,,,,,,,,,,,,,,,,984.0006,985.7985,985.7985,986.9118,return,0.1561,,74.34895833,,,,,,FBP-OG-91.png,0.43,1.2,14,1,,,,,,,,,,,,,0,23,23,13,1,,,,,,,,,,,,,,,,,,,,,,,,,,,,
,,,,,WIN24_013,20,Female,2024-01-29_16h28.59.532,jersey_experiment_5,2023.2.2,Win32,84.74576271,,,,,,,,,,,,,,,,986.912,988.2061,988.2061,990.1121,return,0.1911,,74.609375,,,,,,FBP-RB-17.png,0.4,1.2,18,0.5,,,,,,,,,,,,,0,24,24,17,1,,,,,,,,,,,,,,,,,,,,,,,,,,,,
,,,,,WIN24_013,20,Female,2024-01-29_16h28.59.532,jersey_experiment_5,2023.2.2,Win32,84.74576271,,,,,,,,,,,,,,,,990.1123,991.9045,991.9045,993.1356,return,0.1574,,25.26041667,,,,,,FBP-OG-71.png,0.37,1.2,2,1,,,,,,,,,,,,,0,25,25,1,1,,,,,,,,,,,,,,,,,,,,,,,,,,,,
,,,,,WIN24_013,20,Female,2024-01-29_16h28.59.532,jersey_experiment_5,2023.2.2,Win32,84.74576271,,,,,,,,,,,,,,,,993.1359,994.4337,994.4337,998.3007,return,2.936,,74.08854167,,,,,,FBP-RB-18.png,0.45,1.2,25,0.5,,,,,,,,,,,,,0,26,26,24,1,,,,,,,,,,,,,,,,,,,,,,,,,,,,
,,,,,WIN24_013,20,Female,2024-01-29_16h28.59.532,jersey_experiment_5,2023.2.2,Win32,84.74576271,,,,,,,,,,,,,,,,998.3009,1000.1068,1000.1069,1002.4572,return,0.2466,,10.546875,,,,,,FBP-OG-81.png,0.35,1.2,6,1,,,,,,,,,,,,,0,27,27,5,1,,,,,,,,,,,,,,,,,,,,,,,,,,,,
,,,,,WIN24_013,20,Female,2024-01-29_16h28.59.532,jersey_experiment_5,2023.2.2,Win32,84.74576271,,,,,,,,,,,,,,,,1002.4573,1003.7518,1003.7518,1005.0599,return,0.155,,75.26041667,,,,,,FBP-RB-17.png,0.45,1.2,20,0.5,,,,,,,,,,,,,0,28,28,19,1,,,,,,,,,,,,,,,,,,,,,,,,,,,,
,,,,,WIN24_013,20,Female,2024-01-29_16h28.59.532,jersey_experiment_5,2023.2.2,Win32,84.74576271,,,,,,,,,,,,,,,,1005.0601,1006.8537,1006.8537,1007.6365,return,0.2238,,75.26041667,,,,,,FBP-PT-19.png,0.43,1.2,59,1,,,,,,,,,,,,,0,29,29,58,1,,,,,,,,,,,,,,,,,,,,,,,,,,,,
,,,,,WIN24_013,20,Female,2024-01-29_16h28.59.532,jersey_experiment_5,2023.2.2,Win32,84.74576271,,,,,,,,,,,,,,,,1007.6366,1008.9285,1008.9285,1010.7364,return,0.4024,,49.34895833,,,,,,FBP-RB-17.png,0.37,1.2,17,0.5,,,,,,,,,,,,,0,30,30,16,1,,,,,,,,,,,,,,,,,,,,,,,,,,,,
,,,,,WIN24_013,20,Female,2024-01-29_16h28.59.532,jersey_experiment_5,2023.2.2,Win32,84.74576271,,,,,,,,,,,,,,,,1010.7367,1012.5404,1012.5404,1014.2249,return,0.1902,,99.73958333,,,,,,FBP-PT-17.png,0.45,1.2,50,1,,,,,,,,,,,,,0,31,31,49,1,,,,,,,,,,,,,,,,,,,,,,,,,,,,
,,,,,WIN24_013,20,Female,2024-01-29_16h28.59.532,jersey_experiment_5,2023.2.2,Win32,84.74576271,,,,,,,,,,,,,,,,1014.2251,1016.0228,1016.0228,1017.9523,return,0.0943,,49.21875,,,,,,FBP-OG-81.png,0.4,1.2,8,1,,,,,,,,,,,,,0,32,32,7,1,,,,,,,,,,,,,,,,,,,,,,,,,,,,
,,,,,WIN24_013,20,Female,2024-01-29_16h28.59.532,jersey_experiment_5,2023.2.2,Win32,84.74576271,,,,,,,,,,,,,,,,1017.9525,1019.7509,1019.7509,1020.8308,return,0.2515,,74.34895833,,,,,,FBP-OG-91.png,0.45,1.2,15,1,,,,,,,,,,,,,0,33,33,14,1,,,,,,,,,,,,,,,,,,,,,,,,,,,,
,,,,,WIN24_013,20,Female,2024-01-29_16h28.59.532,jersey_experiment_5,2023.2.2,Win32,84.74576271,,,,,,,,,,,,,,,,1020.831,1022.1249,1022.125,1039.3727,return,1.2787,,50.26041667,,,,,,FBP-YG-91.png,0.35,1.2,41,0.5,,,,,,,,,,,,,0,34,34,40,1,,,,,,,,,,,,,,,,,,,,,,,,,,,,
,,,,,WIN24_013,20,Female,2024-01-29_16h28.59.532,jersey_experiment_5,2023.2.2,Win32,84.74576271,,,,,,,,,,,,,,,,1039.373,1041.1727,1041.1728,1049.0597,return,1.0359,,48.95833333,,,,,,FBP-PT-19.png,0.37,1.2,57,1,,,,,,,,,,,,,0,35,35,56,1,,,,,,,,,,,,,,,,,,,,,,,,,,,,
,,,,,WIN24_013,20,Female,2024-01-29_16h28.59.532,jersey_experiment_5,2023.2.2,Win32,84.74576271,,,,,,,,,,,,,,,,1049.0599,1050.8591,1050.8591,1054.1731,return,0.9564,,74.73958333,,,,,,FBP-OG-71.png,0.4,1.2,3,1,,,,,,,,,,,,,0,36,36,2,1,,,,,,,,,,,,,,,,,,,,,,,,,,,,
,,,,,WIN24_013,20,Female,2024-01-29_16h28.59.532,jersey_experiment_5,2023.2.2,Win32,84.74576271,,,,,,,,,,,,,,,,1054.1734,1055.9654,1055.9654,1057.6735,return,0.3785,,75.390625,,,,,,FBP-PT-18.png,0.45,1.2,55,1,,,,,,,,,,,,,0,37,37,54,1,,,,,,,,,,,,,,,,,,,,,,,,,,,,
,,,,,WIN24_013,20,Female,2024-01-29_16h28.59.532,jersey_experiment_5,2023.2.2,Win32,84.74576271,,,,,,,,,,,,,,,,1057.6737,1059.4714,1059.4714,1060.2602,return,0.1888,,74.47916667,,,,,,FBP-OG-91.png,0.4,1.2,13,1,,,,,,,,,,,,,0,38,38,12,1,,,,,,,,,,,,,,,,,,,,,,,,,,,,
,,,,,WIN24_013,20,Female,2024-01-29_16h28.59.532,jersey_experiment_5,2023.2.2,Win32,84.74576271,,,,,,,,,,,,,,,,1060.2604,1061.5657,1061.5657,1062.6676,return,0.1601,,24.86979167,,,,,,FBP-RB-19.png,0.35,1.2,26,0.5,,,,,,,,,,,,,0,39,39,25,1,,,,,,,,,,,,,,,,,,,,,,,,,,,,
,,,,,WIN24_013,20,Female,2024-01-29_16h28.59.532,jersey_experiment_5,2023.2.2,Win32,84.74576271,,,,,,,,,,,,,,,,1062.6678,1063.9616,1063.9616,1065.0677,return,0.2073,,25.78125,,,,,,FBP-YG-81.png,0.37,1.2,37,0.5,,,,,,,,,,,,,0,40,40,36,1,,,,,,,,,,,,,,,,,,,,,,,,,,,,
,,,,,WIN24_013,20,Female,2024-01-29_16h28.59.532,jersey_experiment_5,2023.2.2,Win32,84.74576271,,,,,,,,,,,,,,,,1065.0679,1066.3618,1066.3619,1067.8485,return,0.1906,,0.390625,,,,,,FBP-RB-18.png,0.35,1.2,21,0.5,,,,,,,,,,,,,0,41,41,20,1,,,,,,,,,,,,,,,,,,,,,,,,,,,,
,,,,,WIN24_013,20,Female,2024-01-29_16h28.59.532,jersey_experiment_5,2023.2.2,Win32,84.74576271,,,,,,,,,,,,,,,,1067.8487,1069.1445,1069.1445,1070.6955,return,0.2235,,99.73958333,,,,,,FBP-YG-91.png,0.45,1.2,45,0.5,,,,,,,,,,,,,0,42,42,44,1,,,,,,,,,,,,,,,,,,,,,,,,,,,,
,,,,,WIN24_013,20,Female,2024-01-29_16h28.59.532,jersey_experiment_5,2023.2.2,Win32,84.74576271,,,,,,,,,,,,,,,,1070.6957,1072.4955,1072.4955,1073.1427,return,0.2472,,99.73958333,,,,,,FBP-PT-17.png,0.4,1.2,48,1,,,,,,,,,,,,,0,43,43,47,1,,,,,,,,,,,,,,,,,,,,,,,,,,,,
,,,,,WIN24_013,20,Female,2024-01-29_16h28.59.532,jersey_experiment_5,2023.2.2,Win32,84.74576271,,,,,,,,,,,,,,,,1073.1428,1074.9427,1074.9427,1076.5562,return,0.2391,,48.95833333,,,,,,FBP-OG-91.png,0.35,1.2,11,1,,,,,,,,,,,,,0,44,44,10,1,,,,,,,,,,,,,,,,,,,,,,,,,,,,
,,,,,WIN24_013,20,Female,2024-01-29_16h28.59.532,jersey_experiment_5,2023.2.2,Win32,84.74576271,,,,,,,,,,,,,,,,1076.5564,1078.3546,1078.3546,1079.6329,return,0.094,,24.86979167,,,,,,FBP-PT-19.png,0.35,1.2,56,1,,,,,,,,,,,,,0,45,45,55,1,,,,,,,,,,,,,,,,,,,,,,,,,,,,
,,,,,WIN24_013,20,Female,2024-01-29_16h28.59.532,jersey_experiment_5,2023.2.2,Win32,84.74576271,,,,,,,,,,,,,,,,1079.6331,1080.9312,1080.9312,1082.6095,return,0.6346,,74.86979167,,,,,,FBP-RB-18.png,0.43,1.2,24,0.5,,,,,,,,,,,,,0,46,46,23,1,,,,,,,,,,,,,,,,,,,,,,,,,,,,
,,,,,WIN24_013,20,Female,2024-01-29_16h28.59.532,jersey_experiment_5,2023.2.2,Win32,84.74576271,,,,,,,,,,,,,,,,1082.6097,1083.9035,1083.9035,1085.426,return,0.2243,,99.73958333,,,,,,FBP-YG-71.png,0.45,1.2,35,0.5,,,,,,,,,,,,,0,47,47,34,1,,,,,,,,,,,,,,,,,,,,,,,,,,,,
,,,,,WIN24_013,20,Female,2024-01-29_16h28.59.532,jersey_experiment_5,2023.2.2,Win32,84.74576271,,,,,,,,,,,,,,,,1085.4261,1087.2214,1087.2214,1088.0613,return,0.2005,,99.47916667,,,,,,FBP-PT-19.png,0.45,1.2,60,1,,,,,,,,,,,,,0,48,48,59,1,,,,,,,,,,,,,,,,,,,,,,,,,,,,
,,,,,WIN24_013,20,Female,2024-01-29_16h28.59.532,jersey_experiment_5,2023.2.2,Win32,84.74576271,,,,,,,,,,,,,,,,1088.0613,1089.3536,1089.3536,1091.951,return,0.249,,61.58854167,,,,,,FBP-YG-91.png,0.4,1.2,43,0.5,,,,,,,,,,,,,0,49,49,42,1,,,,,,,,,,,,,,,,,,,,,,,,,,,,
,,,,,WIN24_013,20,Female,2024-01-29_16h28.59.532,jersey_experiment_5,2023.2.2,Win32,84.74576271,,,,,,,,,,,,,,,,1091.9513,1093.7455,1093.7455,1096.0633,return,0.2119,,49.73958333,,,,,,FBP-OG-91.png,0.37,1.2,12,1,,,,,,,,,,,,,0,50,50,11,1,,,,,,,,,,,,,,,,,,,,,,,,,,,,
,,,,,WIN24_013,20,Female,2024-01-29_16h28.59.532,jersey_experiment_5,2023.2.2,Win32,84.74576271,,,,,,,,,,,,,,,,1096.0635,1097.3554,1097.3555,1098.8483,return,0.1498,,50.26041667,,,,,,FBP-RB-19.png,0.37,1.2,27,0.5,,,,,,,,,,,,,0,51,51,26,1,,,,,,,,,,,,,,,,,,,,,,,,,,,,
,,,,,WIN24_013,20,Female,2024-01-29_16h28.59.532,jersey_experiment_5,2023.2.2,Win32,84.74576271,,,,,,,,,,,,,,,,1098.8486,1100.1554,1100.1554,1101.9676,return,0.6139,,75.91145833,,,,,,FBP-YG-71.png,0.4,1.2,33,0.5,,,,,,,,,,,,,0,52,52,32,1,,,,,,,,,,,,,,,,,,,,,,,,,,,,
,,,,,WIN24_013,20,Female,2024-01-29_16h28.59.532,jersey_experiment_5,2023.2.2,Win32,84.74576271,,,,,,,,,,,,,,,,1101.9677,1103.2733,1103.2733,1104.3792,return,0.3184,,75.390625,,,,,,FBP-RB-19.png,0.43,1.2,29,0.5,,,,,,,,,,,,,0,53,53,28,1,,,,,,,,,,,,,,,,,,,,,,,,,,,,
,,,,,WIN24_013,20,Female,2024-01-29_16h28.59.532,jersey_experiment_5,2023.2.2,Win32,84.74576271,,,,,,,,,,,,,,,,1104.3793,1105.6732,1105.6732,1106.834,return,0.4721,,74.73958333,,,,,,FBP-RB-19.png,0.4,1.2,28,0.5,,,,,,,,,,,,,0,54,54,27,1,,,,,,,,,,,,,,,,,,,,,,,,,,,,
,,,,,WIN24_013,20,Female,2024-01-29_16h28.59.532,jersey_experiment_5,2023.2.2,Win32,84.74576271,,,,,,,,,,,,,,,,1106.8341,1108.1321,1108.1321,1113.9913,return,3.918,,49.86979167,,,,,,FBP-YG-71.png,0.37,1.2,32,0.5,,,,,,,,,,,,,0,55,55,31,1,,,,,,,,,,,,,,,,,,,,,,,,,,,,
,,,,,WIN24_013,20,Female,2024-01-29_16h28.59.532,jersey_experiment_5,2023.2.2,Win32,84.74576271,,,,,,,,,,,,,,,,1113.9955,1115.7895,1115.7895,1117.0137,return,0.3147,,25.65104167,,,,,,FBP-PT-17.png,0.35,1.2,46,1,,,,,,,,,,,,,0,56,56,45,1,,,,,,,,,,,,,,,,,,,,,,,,,,,,
,,,,,WIN24_013,20,Female,2024-01-29_16h28.59.532,jersey_experiment_5,2023.2.2,Win32,84.74576271,,,,,,,,,,,,,,,,1117.0139,1118.3208,1118.3208,1120.2386,return,0.2726,,24.73958333,,,,,,FBP-RB-17.png,0.35,1.2,16,0.5,,,,,,,,,,,,,0,57,57,15,1,,,,,,,,,,,,,,,,,,,,,,,,,,,,
,,,,,WIN24_013,20,Female,2024-01-29_16h28.59.532,jersey_experiment_5,2023.2.2,Win32,84.74576271,,,,,,,,,,,,,,,,1120.2386,1121.5405,1121.5405,1129.6134,return,0.2924,,74.609375,,,,,,FBP-RB-18.png,0.37,1.2,22,0.5,,,,,,,,,,,,,0,58,58,21,1,,,,,,,,,,,,,,,,,,,,,,,,,,,,
,,,,,WIN24_013,20,Female,2024-01-29_16h28.59.532,jersey_experiment_5,2023.2.2,Win32,84.74576271,,,,,,,,,,,,,,,,1129.6136,1130.9055,1130.9056,1132.5289,return,0.2005,,75.390625,,,,,,FBP-RB-17.png,0.43,1.2,19,0.5,,,,,,,,,,,,,0,59,59,18,1,,,,,,,,,,,,,,,,,,,,,,,,,,,,
,,,,,WIN24_013,20,Female,2024-01-29_16h28.59.532,jersey_experiment_5,2023.2.2,Win32,84.74576271,,,,,,,,,,,,,,,,1132.5308,1133.8233,1133.8233,1135.6939,return,0.4282,,49.73958333,,,,,,FBP-YG-18.png,0.35,1.2,36,0.5,,,,,,,,,,,,,,,,,,0,0,0,35,1,,,,,,,,,,,,,,,,,,,,,,,
,,,,,WIN24_013,20,Female,2024-01-29_16h28.59.532,jersey_experiment_5,2023.2.2,Win32,84.74576271,,,,,,,,,,,,,,,,1135.6942,1136.9881,1136.9881,1139.188,return,0.2003,,99.86979167,,,,,,FBP-RB-71.png,0.45,1.2,20,0.5,,,,,,,,,,,,,,,,,,0,1,1,19,1,,,,,,,,,,,,,,,,,,,,,,,
,,,,,WIN24_013,20,Female,2024-01-29_16h28.59.532,jersey_experiment_5,2023.2.2,Win32,84.74576271,,,,,,,,,,,,,,,,1139.188,1140.4821,1140.4821,1142.1765,return,0.2385,,74.73958333,,,,,,FBP-RB-81.png,0.37,1.2,22,0.5,,,,,,,,,,,,,,,,,,0,2,2,21,1,,,,,,,,,,,,,,,,,,,,,,,
,,,,,WIN24_013,20,Female,2024-01-29_16h28.59.532,jersey_experiment_5,2023.2.2,Win32,84.74576271,,,,,,,,,,,,,,,,1142.1766,1143.983,1143.983,1147.6119,return,1.1716,,74.609375,,,,,,FBP-PT-81.png,0.4,1.2,53,1,,,,,,,,,,,,,,,,,,0,3,3,52,1,,,,,,,,,,,,,,,,,,,,,,,
,,,,,WIN24_013,20,Female,2024-01-29_16h28.59.532,jersey_experiment_5,2023.2.2,Win32,84.74576271,,,,,,,,,,,,,,,,1147.612,1148.9062,1148.9062,1150.0944,return,0.2046,,75.52083333,,,,,,FBP-YG-17.png,0.37,1.2,32,0.5,,,,,,,,,,,,,,,,,,0,4,4,31,1,,,,,,,,,,,,,,,,,,,,,,,
,,,,,WIN24_013,20,Female,2024-01-29_16h28.59.532,jersey_experiment_5,2023.2.2,Win32,84.74576271,,,,,,,,,,,,,,,,1150.0946,1151.8869,1151.8869,1153.2618,return,0.6319,,25.91145833,,,,,,FBP-OG-17.png,0.37,1.2,2,1,,,,,,,,,,,,,,,,,,0,5,5,1,1,,,,,,,,,,,,,,,,,,,,,,,
,,,,,WIN24_013,20,Female,2024-01-29_16h28.59.532,jersey_experiment_5,2023.2.2,Win32,84.74576271,,,,,,,,,,,,,,,,1153.262,1154.569,1154.5691,1156.518,return,0.1761,,74.73958333,,,,,,FBP-RB-91.png,0.43,1.2,29,0.5,,,,,,,,,,,,,,,,,,0,6,6,28,1,,,,,,,,,,,,,,,,,,,,,,,
,,,,,WIN24_013,20,Female,2024-01-29_16h28.59.532,jersey_experiment_5,2023.2.2,Win32,84.74576271,,,,,,,,,,,,,,,,1156.5181,1158.3107,1158.3107,1160.1417,return,0.5226,,25.78125,,,,,,FBP-PT-71.png,0.37,1.2,47,1,,,,,,,,,,,,,,,,,,0,7,7,46,1,,,,,,,,,,,,,,,,,,,,,,,
,,,,,WIN24_013,20,Female,2024-01-29_16h28.59.532,jersey_experiment_5,2023.2.2,Win32,84.74576271,,,,,,,,,,,,,,,,1160.142,1161.9494,1161.9494,1163.758,return,0.2356,,74.08854167,,,,,,FBP-PT-71.png,0.4,1.2,48,1,,,,,,,,,,,,,,,,,,0,8,8,47,1,,,,,,,,,,,,,,,,,,,,,,,
,,,,,WIN24_013,20,Female,2024-01-29_16h28.59.532,jersey_experiment_5,2023.2.2,Win32,84.74576271,,,,,,,,,,,,,,,,1163.7582,1165.0596,1165.0597,1166.2519,return,0.2354,,75.13020833,,,,,,FBP-RB-71.png,0.43,1.2,19,0.5,,,,,,,,,,,,,,,,,,0,9,9,18,1,,,,,,,,,,,,,,,,,,,,,,,
,,,,,WIN24_013,20,Female,2024-01-29_16h28.59.532,jersey_experiment_5,2023.2.2,Win32,84.74576271,,,,,,,,,,,,,,,,1166.2521,1168.0522,1168.0522,1169.2644,return,0.2125,,99.609375,,,,,,FBP-OG-19.png,0.45,1.2,15,1,,,,,,,,,,,,,,,,,,0,10,10,14,1,,,,,,,,,,,,,,,,,,,,,,,
,,,,,WIN24_013,20,Female,2024-01-29_16h28.59.532,jersey_experiment_5,2023.2.2,Win32,84.74576271,,,,,,,,,,,,,,,,1169.2645,1170.5582,1170.5582,1171.7422,return,0.1342,,74.34895833,,,,,,FBP-YG-18.png,0.4,1.2,38,0.5,,,,,,,,,,,,,,,,,,0,11,11,37,1,,,,,,,,,,,,,,,,,,,,,,,
,,,,,WIN24_013,20,Female,2024-01-29_16h28.59.532,jersey_experiment_5,2023.2.2,Win32,84.74576271,,,,,,,,,,,,,,,,1171.7424,1173.5423,1173.5423,1174.3659,return,0.2423,,75,,,,,,FBP-OG-17.png,0.4,1.2,3,1,,,,,,,,,,,,,,,,,,0,12,12,2,1,,,,,,,,,,,,,,,,,,,,,,,
,,,,,WIN24_013,20,Female,2024-01-29_16h28.59.532,jersey_experiment_5,2023.2.2,Win32,84.74576271,,,,,,,,,,,,,,,,1174.366,1176.1584,1176.1585,1177.6601,return,0.1578,,25.65104167,,,,,,FBP-PT-81.png,0.35,1.2,51,1,,,,,,,,,,,,,,,,,,0,13,13,50,1,,,,,,,,,,,,,,,,,,,,,,,
,,,,,WIN24_013,20,Female,2024-01-29_16h28.59.532,jersey_experiment_5,2023.2.2,Win32,84.74576271,,,,,,,,,,,,,,,,1177.6604,1178.9543,1178.9543,1179.7308,return,0.1764,,24.609375,,,,,,FBP-RB-91.png,0.4,1.2,28,0.5,,,,,,,,,,,,,,,,,,0,14,14,27,1,,,,,,,,,,,,,,,,,,,,,,,
,,,,,WIN24_013,20,Female,2024-01-29_16h28.59.532,jersey_experiment_5,2023.2.2,Win32,84.74576271,,,,,,,,,,,,,,,,1179.731,1181.5237,1181.5237,1183.3351,return,0.2121,,74.609375,,,,,,FBP-OG-19.png,0.43,1.2,14,1,,,,,,,,,,,,,,,,,,0,15,15,13,1,,,,,,,,,,,,,,,,,,,,,,,
,,,,,WIN24_013,20,Female,2024-01-29_16h28.59.532,jersey_experiment_5,2023.2.2,Win32,84.74576271,,,,,,,,,,,,,,,,1183.3353,1185.1353,1185.1353,1187.778,return,1.7419,,37.36979167,,,,,,FBP-PT-71.png,0.35,1.2,46,1,,,,,,,,,,,,,,,,,,0,16,16,45,1,,,,,,,,,,,,,,,,,,,,,,,
,,,,,WIN24_013,20,Female,2024-01-29_16h28.59.532,jersey_experiment_5,2023.2.2,Win32,84.74576271,,,,,,,,,,,,,,,,1187.7782,1189.0723,1189.0723,1190.2058,return,0.2237,,39.84375,,,,,,FBP-YG-19.png,0.37,1.2,42,0.5,,,,,,,,,,,,,,,,,,0,17,17,41,1,,,,,,,,,,,,,,,,,,,,,,,
,,,,,WIN24_013,20,Female,2024-01-29_16h28.59.532,jersey_experiment_5,2023.2.2,Win32,84.74576271,,,,,,,,,,,,,,,,1190.2059,1191.5075,1191.5075,1193.0295,return,0.2237,,73.69791667,,,,,,FBP-YG-17.png,0.43,1.2,34,0.5,,,,,,,,,,,,,,,,,,0,18,18,33,1,,,,,,,,,,,,,,,,,,,,,,,
,,,,,WIN24_013,20,Female,2024-01-29_16h28.59.532,jersey_experiment_5,2023.2.2,Win32,84.74576271,,,,,,,,,,,,,,,,1193.0296,1194.8253,1194.8253,1195.8371,return,0.1235,,75.13020833,,,,,,FBP-PT-91.png,0.4,1.2,58,1,,,,,,,,,,,,,,,,,,0,19,19,57,1,,,,,,,,,,,,,,,,,,,,,,,
,,,,,WIN24_013,20,Female,2024-01-29_16h28.59.532,jersey_experiment_5,2023.2.2,Win32,84.74576271,,,,,,,,,,,,,,,,1195.8372,1197.6294,1197.6295,1198.4179,return,0.3042,,75.13020833,,,,,,FBP-OG-18.png,0.4,1.2,8,1,,,,,,,,,,,,,,,,,,0,20,20,7,1,,,,,,,,,,,,,,,,,,,,,,,
,,,,,WIN24_013,20,Female,2024-01-29_16h28.59.532,jersey_experiment_5,2023.2.2,Win32,84.74576271,,,,,,,,,,,,,,,,1198.4181,1200.2198,1200.2198,1202.6375,return,0.6055,,99.609375,,,,,,FBP-PT-91.png,0.43,1.2,59,1,,,,,,,,,,,,,,,,,,0,21,21,58,1,,,,,,,,,,,,,,,,,,,,,,,
,,,,,WIN24_013,20,Female,2024-01-29_16h28.59.532,jersey_experiment_5,2023.2.2,Win32,84.74576271,,,,,,,,,,,,,,,,1202.6376,1203.9315,1203.9315,1205.3148,return,0.8733,,99.47916667,,,,,,FBP-RB-81.png,0.43,1.2,24,0.5,,,,,,,,,,,,,,,,,,0,22,22,23,1,,,,,,,,,,,,,,,,,,,,,,,
,,,,,WIN24_013,20,Female,2024-01-29_16h28.59.532,jersey_experiment_5,2023.2.2,Win32,84.74576271,,,,,,,,,,,,,,,,1205.3149,1207.1127,1207.1127,1209.0142,return,0.765,,24.08854167,,,,,,FBP-OG-18.png,0.37,1.2,7,1,,,,,,,,,,,,,,,,,,0,23,23,6,1,,,,,,,,,,,,,,,,,,,,,,,
,,,,,WIN24_013,20,Female,2024-01-29_16h28.59.532,jersey_experiment_5,2023.2.2,Win32,84.74576271,,,,,,,,,,,,,,,,1209.0144,1210.8065,1210.8065,1211.5672,return,0.0861,,24.86979167,,,,,,FBP-PT-81.png,0.37,1.2,52,1,,,,,,,,,,,,,,,,,,0,24,24,51,1,,,,,,,,,,,,,,,,,,,,,,,
,,,,,WIN24_013,20,Female,2024-01-29_16h28.59.532,jersey_experiment_5,2023.2.2,Win32,84.74576271,,,,,,,,,,,,,,,,1211.5674,1212.8615,1212.8615,1213.8637,return,0.1296,,74.47916667,,,,,,FBP-YG-18.png,0.45,1.2,40,0.5,,,,,,,,,,,,,,,,,,0,25,25,39,1,,,,,,,,,,,,,,,,,,,,,,,
,,,,,WIN24_013,20,Female,2024-01-29_16h28.59.532,jersey_experiment_5,2023.2.2,Win32,84.74576271,,,,,,,,,,,,,,,,1213.8639,1215.1556,1215.1556,1217.1813,return,0.7157,,99.73958333,,,,,,FBP-RB-81.png,0.45,1.2,25,0.5,,,,,,,,,,,,,,,,,,0,26,26,24,1,,,,,,,,,,,,,,,,,,,,,,,
,,,,,WIN24_013,20,Female,2024-01-29_16h28.59.532,jersey_experiment_5,2023.2.2,Win32,84.74576271,,,,,,,,,,,,,,,,1217.1815,1218.4771,1218.4771,1219.8895,return,0.3181,,25.65104167,,,,,,FBP-RB-71.png,0.35,1.2,16,0.5,,,,,,,,,,,,,,,,,,0,27,27,15,1,,,,,,,,,,,,,,,,,,,,,,,
,,,,,WIN24_013,20,Female,2024-01-29_16h28.59.532,jersey_experiment_5,2023.2.2,Win32,84.74576271,,,,,,,,,,,,,,,,1219.8896,1221.1909,1221.1909,1222.9323,return,0.5883,,73.4375,,,,,,FBP-RB-81.png,0.4,1.2,23,0.5,,,,,,,,,,,,,,,,,,0,28,28,22,1,,,,,,,,,,,,,,,,,,,,,,,
,,,,,WIN24_013,20,Female,2024-01-29_16h28.59.532,jersey_experiment_5,2023.2.2,Win32,84.74576271,,,,,,,,,,,,,,,,1222.9326,1224.2304,1224.2304,1226.003,return,0.1152,,50.13020833,,,,,,FBP-YG-18.png,0.37,1.2,37,0.5,,,,,,,,,,,,,,,,,,0,29,29,36,1,,,,,,,,,,,,,,,,,,,,,,,
,,,,,WIN24_013,20,Female,2024-01-29_16h28.59.532,jersey_experiment_5,2023.2.2,Win32,84.74576271,,,,,,,,,,,,,,,,1226.0032,1227.7957,1227.7957,1228.7796,return,0.2655,,74.73958333,,,,,,FBP-PT-81.png,0.43,1.2,54,1,,,,,,,,,,,,,,,,,,0,30,30,53,1,,,,,,,,,,,,,,,,,,,,,,,
,,,,,WIN24_013,20,Female,2024-01-29_16h28.59.532,jersey_experiment_5,2023.2.2,Win32,84.74576271,,,,,,,,,,,,,,,,1228.7797,1230.5819,1230.582,1233.5233,return,1.2338,,75.13020833,,,,,,FBP-PT-91.png,0.45,1.2,60,1,,,,,,,,,,,,,,,,,,0,31,31,59,1,,,,,,,,,,,,,,,,,,,,,,,
,,,,,WIN24_013,20,Female,2024-01-29_16h28.59.532,jersey_experiment_5,2023.2.2,Win32,84.74576271,,,,,,,,,,,,,,,,1233.5234,1235.3149,1235.3149,1257.1101,return,7.1295,,50.78125,,,,,,FBP-PT-91.png,0.35,1.2,56,1,,,,,,,,,,,,,,,,,,0,32,32,55,1,,,,,,,,,,,,,,,,,,,,,,,
,,,,,WIN24_013,20,Female,2024-01-29_16h28.59.532,jersey_experiment_5,2023.2.2,Win32,84.74576271,,,,,,,,,,,,,,,,1257.1143,1258.9144,1258.9144,1260.1752,return,0.414,,24.21875,,,,,,FBP-OG-19.png,0.35,1.2,11,1,,,,,,,,,,,,,,,,,,0,33,33,10,1,,,,,,,,,,,,,,,,,,,,,,,
,,,,,WIN24_013,20,Female,2024-01-29_16h28.59.532,jersey_experiment_5,2023.2.2,Win32,84.74576271,,,,,,,,,,,,,,,,1260.1754,1261.4672,1261.4672,1263.2045,return,0.7861,,24.609375,,,,,,FBP-YG-17.png,0.35,1.2,31,0.5,,,,,,,,,,,,,,,,,,0,34,34,30,1,,,,,,,,,,,,,,,,,,,,,,,
,,,,,WIN24_013,20,Female,2024-01-29_16h28.59.532,jersey_experiment_5,2023.2.2,Win32,84.74576271,,,,,,,,,,,,,,,,1263.2048,1264.9985,1264.9985,1265.9574,return,0.212,,74.21875,,,,,,FBP-OG-18.png,0.43,1.2,9,1,,,,,,,,,,,,,,,,,,0,35,35,8,1,,,,,,,,,,,,,,,,,,,,,,,
,,,,,WIN24_013,20,Female,2024-01-29_16h28.59.532,jersey_experiment_5,2023.2.2,Win32,84.74576271,,,,,,,,,,,,,,,,1265.9575,1267.2517,1267.2517,1271.5694,return,0.5193,,0.390625,,,,,,FBP-RB-81.png,0.35,1.2,21,0.5,,,,,,,,,,,,,,,,,,0,36,36,20,1,,,,,,,,,,,,,,,,,,,,,,,
,,,,,WIN24_013,20,Female,2024-01-29_16h28.59.532,jersey_experiment_5,2023.2.2,Win32,84.74576271,,,,,,,,,,,,,,,,1271.5695,1272.8636,1272.8636,1275.2563,return,1.1788,,99.47916667,,,,,,FBP-RB-91.png,0.45,1.2,30,0.5,,,,,,,,,,,,,,,,,,0,37,37,29,1,,,,,,,,,,,,,,,,,,,,,,,
,,,,,WIN24_013,20,Female,2024-01-29_16h28.59.532,jersey_experiment_5,2023.2.2,Win32,84.74576271,,,,,,,,,,,,,,,,1275.2565,1276.5619,1276.5619,1277.3815,return,0.121,,99.86979167,,,,,,FBP-YG-17.png,0.45,1.2,35,0.5,,,,,,,,,,,,,,,,,,0,38,38,34,1,,,,,,,,,,,,,,,,,,,,,,,
,,,,,WIN24_013,20,Female,2024-01-29_16h28.59.532,jersey_experiment_5,2023.2.2,Win32,84.74576271,,,,,,,,,,,,,,,,1277.3817,1279.1815,1279.1815,1280.1462,return,0.1562,,24.34895833,,,,,,FBP-PT-91.png,0.37,1.2,57,1,,,,,,,,,,,,,,,,,,0,39,39,56,1,,,,,,,,,,,,,,,,,,,,,,,
,,,,,WIN24_013,20,Female,2024-01-29_16h28.59.532,jersey_experiment_5,2023.2.2,Win32,84.74576271,,,,,,,,,,,,,,,,1280.1464,1281.9462,1281.9462,1282.8638,return,0.2834,,73.828125,,,,,,FBP-PT-81.png,0.45,1.2,55,1,,,,,,,,,,,,,,,,,,0,40,40,54,1,,,,,,,,,,,,,,,,,,,,,,,
,,,,,WIN24_013,20,Female,2024-01-29_16h28.59.532,jersey_experiment_5,2023.2.2,Win32,84.74576271,,,,,,,,,,,,,,,,1282.864,1284.162,1284.162,1285.374,return,0.3061,,26.171875,,,,,,FBP-RB-91.png,0.35,1.2,26,0.5,,,,,,,,,,,,,,,,,,0,41,41,25,1,,,,,,,,,,,,,,,,,,,,,,,
,,,,,WIN24_013,20,Female,2024-01-29_16h28.59.532,jersey_experiment_5,2023.2.2,Win32,84.74576271,,,,,,,,,,,,,,,,1285.3741,1287.176,1287.1761,1288.3346,return,0.2511,,23.69791667,,,,,,FBP-OG-18.png,0.35,1.2,6,1,,,,,,,,,,,,,,,,,,0,42,42,5,1,,,,,,,,,,,,,,,,,,,,,,,
,,,,,WIN24_013,20,Female,2024-01-29_16h28.59.532,jersey_experiment_5,2023.2.2,Win32,84.74576271,,,,,,,,,,,,,,,,1288.3349,1289.633,1289.633,1290.8289,return,0.2176,,49.21875,,,,,,FBP-YG-17.png,0.4,1.2,33,0.5,,,,,,,,,,,,,,,,,,0,43,43,32,1,,,,,,,,,,,,,,,,,,,,,,,
,,,,,WIN24_013,20,Female,2024-01-29_16h28.59.532,jersey_experiment_5,2023.2.2,Win32,84.74576271,,,,,,,,,,,,,,,,1290.8291,1292.6215,1292.6215,1293.6448,return,0.2119,,75.13020833,,,,,,FBP-OG-17.png,0.45,1.2,5,1,,,,,,,,,,,,,,,,,,0,44,44,4,1,,,,,,,,,,,,,,,,,,,,,,,
,,,,,WIN24_013,20,Female,2024-01-29_16h28.59.532,jersey_experiment_5,2023.2.2,Win32,84.74576271,,,,,,,,,,,,,,,,1293.6449,1294.9507,1294.9507,1295.6997,return,0.2137,,74.08854167,,,,,,FBP-YG-18.png,0.43,1.2,39,0.5,,,,,,,,,,,,,,,,,,0,45,45,38,1,,,,,,,,,,,,,,,,,,,,,,,
,,,,,WIN24_013,20,Female,2024-01-29_16h28.59.532,jersey_experiment_5,2023.2.2,Win32,84.74576271,,,,,,,,,,,,,,,,1295.6999,1297.4925,1297.4925,1300.0175,return,1.6959,,50,,,,,,FBP-OG-17.png,0.35,1.2,1,1,,,,,,,,,,,,,,,,,,0,46,46,0,1,,,,,,,,,,,,,,,,,,,,,,,
,,,,,WIN24_013,20,Female,2024-01-29_16h28.59.532,jersey_experiment_5,2023.2.2,Win32,84.74576271,,,,,,,,,,,,,,,,1300.0177,1301.3115,1301.3115,1302.4099,return,0.2237,,75.78125,,,,,,FBP-YG-19.png,0.43,1.2,44,0.5,,,,,,,,,,,,,,,,,,0,47,47,43,1,,,,,,,,,,,,,,,,,,,,,,,
,,,,,WIN24_013,20,Female,2024-01-29_16h28.59.532,jersey_experiment_5,2023.2.2,Win32,84.74576271,,,,,,,,,,,,,,,,1302.4099,1304.212,1304.2121,1305.0082,return,0.2219,,74.47916667,,,,,,FBP-PT-71.png,0.45,1.2,50,1,,,,,,,,,,,,,,,,,,0,48,48,49,1,,,,,,,,,,,,,,,,,,,,,,,
,,,,,WIN24_013,20,Female,2024-01-29_16h28.59.532,jersey_experiment_5,2023.2.2,Win32,84.74576271,,,,,,,,,,,,,,,,1305.0084,1306.306,1306.3061,1307.4454,return,0.1532,,25,,,,,,FBP-YG-19.png,0.35,1.2,41,0.5,,,,,,,,,,,,,,,,,,0,49,49,40,1,,,,,,,,,,,,,,,,,,,,,,,
,,,,,WIN24_013,20,Female,2024-01-29_16h28.59.532,jersey_experiment_5,2023.2.2,Win32,84.74576271,,,,,,,,,,,,,,,,1307.4456,1309.2414,1309.2414,1309.9707,return,0.1531,,75,,,,,,FBP-PT-71.png,0.43,1.2,49,1,,,,,,,,,,,,,,,,,,0,50,50,48,1,,,,,,,,,,,,,,,,,,,,,,,
,,,,,WIN24_013,20,Female,2024-01-29_16h28.59.532,jersey_experiment_5,2023.2.2,Win32,84.74576271,,,,,,,,,,,,,,,,1309.9708,1311.2711,1311.2711,1312.7709,return,0.129,,25.13020833,,,,,,FBP-RB-71.png,0.37,1.2,17,0.5,,,,,,,,,,,,,,,,,,0,51,51,16,1,,,,,,,,,,,,,,,,,,,,,,,
,,,,,WIN24_013,20,Female,2024-01-29_16h28.59.532,jersey_experiment_5,2023.2.2,Win32,84.74576271,,,,,,,,,,,,,,,,1312.7711,1314.065,1314.065,1315.5829,return,0.4647,,25.26041667,,,,,,FBP-RB-91.png,0.37,1.2,27,0.5,,,,,,,,,,,,,,,,,,0,52,52,26,1,,,,,,,,,,,,,,,,,,,,,,,
,,,,,WIN24_013,20,Female,2024-01-29_16h28.59.532,jersey_experiment_5,2023.2.2,Win32,84.74576271,,,,,,,,,,,,,,,,1315.5829,1316.8809,1316.8809,1318.4345,return,0.3437,,75.390625,,,,,,FBP-RB-71.png,0.4,1.2,18,0.5,,,,,,,,,,,,,,,,,,0,53,53,17,1,,,,,,,,,,,,,,,,,,,,,,,
,,,,,WIN24_013,20,Female,2024-01-29_16h28.59.532,jersey_experiment_5,2023.2.2,Win32,84.74576271,,,,,,,,,,,,,,,,1318.4346,1319.7359,1319.7359,1320.6341,return,0.2121,,75.390625,,,,,,FBP-YG-19.png,0.4,1.2,43,0.5,,,,,,,,,,,,,,,,,,0,54,54,42,1,,,,,,,,,,,,,,,,,,,,,,,
,,,,,WIN24_013,20,Female,2024-01-29_16h28.59.532,jersey_experiment_5,2023.2.2,Win32,84.74576271,,,,,,,,,,,,,,,,1320.6342,1322.4339,1322.4339,1323.5359,return,0.1802,,75.26041667,,,,,,FBP-OG-19.png,0.4,1.2,13,1,,,,,,,,,,,,,,,,,,0,55,55,12,1,,,,,,,,,,,,,,,,,,,,,,,
,,,,,WIN24_013,20,Female,2024-01-29_16h28.59.532,jersey_experiment_5,2023.2.2,Win32,84.74576271,,,,,,,,,,,,,,,,1323.5361,1325.3281,1325.3281,1326.0598,return,0.2236,,74.21875,,,,,,FBP-OG-17.png,0.43,1.2,4,1,,,,,,,,,,,,,,,,,,0,56,56,3,1,,,,,,,,,,,,,,,,,,,,,,,
,,,,,WIN24_013,20,Female,2024-01-29_16h28.59.532,jersey_experiment_5,2023.2.2,Win32,84.74576271,,,,,,,,,,,,,,,,1326.0599,1327.8538,1327.8538,1328.7877,return,0.1183,,74.73958333,,,,,,FBP-OG-19.png,0.37,1.2,12,1,,,,,,,,,,,,,,,,,,0,57,57,11,1,,,,,,,,,,,,,,,,,,,,,,,
,,,,,WIN24_013,20,Female,2024-01-29_16h28.59.532,jersey_experiment_5,2023.2.2,Win32,84.74576271,,,,,,,,,,,,,,,,1328.7878,1330.0831,1330.0832,1331.0229,return,0.1414,,75,,,,,,FBP-YG-19.png,0.45,1.2,45,0.5,,,,,,,,,,,,,,,,,,0,58,58,44,1,,,,,,,,,,,,,,,,,,,,,,,
,,,,,WIN24_013,20,Female,2024-01-29_16h28.59.532,jersey_experiment_5,2023.2.2,Win32,84.74576271,,,,,,,,,,,,,,,,1331.023,1332.8226,1332.8226,1333.5011,return,0.1938,,75,,,,,,FBP-OG-18.png,0.45,1.2,10,1,,,,,,,,,,,,,,,,,,0,59,59,9,1,,,,,,,,,,,,,,,,,,,,,,,
,,,,,WIN24_013,20,Female,2024-01-29_16h28.59.532,jersey_experiment_5,2023.2.2,Win32,84.74576271,,,,,,,,,,,,,,,,,,,,,,,,,,,,,,,,,,,,,,,,,,,,,,,,,,,,,,,,1333.5015,1343.4547,return,9.9341,,,,,,,,,,,,,,,,,,,
,,,,,WIN24_013,20,Female,2024-01-29_16h28.59.532,jersey_experiment_5,2023.2.2,Win32,84.74576271,,,,,,,,,,,,,,,,,,,,,,,,,,,,,,,,,,,,,,,,,,,,,,,,,,,,,,,,,,,,,1343.4548,1350.3176,1,4.5761,return,2.2705,,,,,,,,,,,,
,,,,,WIN24_013,20,Female,2024-01-29_16h28.59.532,jersey_experiment_5,2023.2.2,Win32,84.74576271,,,,,,,,,,,,,,,,,,,,,,,,,,,,,,,,,,,,,,,,,,,,,,,,,,,,,,,,,,,,,,,,,,,,1350.3177,1562.1558,"My best guess is that the study intended to capture my psychological perception of football players according to size and color preference, through my rating. I did recognize a pattern of most football players being about the same size, the only differing feature was their skin color after a few minutes into the study. ",right,192.2909,,,,,,
,,,,,WIN24_013,20,Female,2024-01-29_16h28.59.532,jersey_experiment_5,2023.2.2,Win32,84.74576271,,,,,,,,,,,,,,,,,,,,,,,,,,,,,,,,,,,,,,,,,,,,,,,,,,,,,,,,,,,,,,,,,,,,,,,,,,1562.1558,1583.9969,return,21.837,