requirements.started,requirements.stopped,key_resp_3.keys,key_resp_3.rt,key_resp_3.duration,Subject ID,Age,Gender,date,expName,psychopyVersion,OS,frameRate,instructions1.started,instructions1.stopped,key_resp.keys,key_resp.rt,key_resp.duration,example.started,example.stopped,enter_2.keys,enter_2.rt,enter_2.duration,instructions2.started,instructions2.stopped,enter_3.keys,enter_3.rt,enter_3.duration,image.started,image.stopped,slider_2.started,slider_2.stopped,next.keys,next.rt,next.duration,slider.response,trial_block_1.thisRepN,trial_block_1.thisTrialN,trial_block_1.thisN,trial_block_1.thisIndex,trial_block_1.ran,Path,Width,Height,Index,Duration,trial_block_2.thisRepN,trial_block_2.thisTrialN,trial_block_2.thisN,trial_block_2.thisIndex,trial_block_2.ran,rest_break.started,rest_break.stopped,end_break.started,end_break.stopped,key_resp_5.keys,key_resp_5.rt,key_resp_5.duration,trial_block_3.thisRepN,trial_block_3.thisTrialN,trial_block_3.thisN,trial_block_3.thisIndex,trial_block_3.ran,trial_block_4.thisRepN,trial_block_4.thisTrialN,trial_block_4.thisN,trial_block_4.thisIndex,trial_block_4.ran,questions_intro.started,questions_intro.stopped,enter_12.keys,enter_12.rt,enter_12.duration,question2.started,question2.stopped,question_doingbest.response,question_doingbest.rt,enter_15.keys,enter_15.rt,enter_15.duration,pattern.started,pattern.stopped,pattern_2.text,enter_17.keys,enter_17.rt,enter_17.duration,thankyou.started,thankyou.stopped,enter_14.keys,enter_14.rt,enter_14.duration
0.0001,8.8515,return,8.8443,,WIN24_056,19,Female,2024-02-12_15h32.20.910,jersey_experiment_5,2023.2.2,Win32,85.47008547,,,,,,,,,,,,,,,,,,,,,,,,,,,,,,,,,,,,,,,,,,,,,,,,,,,,,,,,,,,,,,,,,,,,,,,,,,,,,,
,,,,,WIN24_056,19,Female,2024-02-12_15h32.20.910,jersey_experiment_5,2023.2.2,Win32,85.47008547,8.8517,17.193,return,8.331,,,,,,,,,,,,,,,,,,,,,,,,,,,,,,,,,,,,,,,,,,,,,,,,,,,,,,,,,,,,,,,,,,,,,,,,,,
,,,,,WIN24_056,19,Female,2024-02-12_15h32.20.910,jersey_experiment_5,2023.2.2,Win32,85.47008547,,,,,,17.1931,23.5581,return,6.3409,,,,,,,,,,,,,,,,,,,,,,,,,,,,,,,,,,,,,,,,,,,,,,,,,,,,,,,,,,,,,,,,,,,,,
,,,,,WIN24_056,19,Female,2024-02-12_15h32.20.910,jersey_experiment_5,2023.2.2,Win32,85.47008547,,,,,,,,,,,23.5582,52.9475,return,29.3843,,,,,,,,,,,,,,,,,,,,,,,,,,,,,,,,,,,,,,,,,,,,,,,,,,,,,,,,,,,,,,,,
,,,,,WIN24_056,19,Female,2024-02-12_15h32.20.910,jersey_experiment_5,2023.2.2,Win32,85.47008547,,,,,,,,,,,,,,,,52.9545,54.2534,54.2535,69.9951,return,3.2943,,74.86979167,0,0,0,4,1,FBP-OG-71.png,0.45,1.2,5,0.5,,,,,,,,,,,,,,,,,,,,,,,,,,,,,,,,,,,,,,,,,,,,,
,,,,,WIN24_056,19,Female,2024-02-12_15h32.20.910,jersey_experiment_5,2023.2.2,Win32,85.47008547,,,,,,,,,,,,,,,,69.9954,71.7949,71.795,75.0303,return,1.6859,,74.47916667,0,1,1,23,1,FBP-RB-18.png,0.43,1.2,24,1,,,,,,,,,,,,,,,,,,,,,,,,,,,,,,,,,,,,,,,,,,,,,
,,,,,WIN24_056,19,Female,2024-02-12_15h32.20.910,jersey_experiment_5,2023.2.2,Win32,85.47008547,,,,,,,,,,,,,,,,75.0305,76.8305,76.8305,80.2775,return,1.851,,28.77604167,0,2,2,30,1,FBP-YG-71.png,0.35,1.2,31,1,,,,,,,,,,,,,,,,,,,,,,,,,,,,,,,,,,,,,,,,,,,,,
,,,,,WIN24_056,19,Female,2024-02-12_15h32.20.910,jersey_experiment_5,2023.2.2,Win32,85.47008547,,,,,,,,,,,,,,,,80.2779,81.5717,81.5718,86.5483,return,3.6895,,35.9375,0,3,3,51,1,FBP-PT-18.png,0.37,1.2,52,0.5,,,,,,,,,,,,,,,,,,,,,,,,,,,,,,,,,,,,,,,,,,,,,
,,,,,WIN24_056,19,Female,2024-02-12_15h32.20.910,jersey_experiment_5,2023.2.2,Win32,85.47008547,,,,,,,,,,,,,,,,86.5486,88.3484,88.3485,92.5369,return,3.0618,,44.40104167,0,4,4,22,1,FBP-RB-18.png,0.4,1.2,23,1,,,,,,,,,,,,,,,,,,,,,,,,,,,,,,,,,,,,,,,,,,,,,
,,,,,WIN24_056,19,Female,2024-02-12_15h32.20.910,jersey_experiment_5,2023.2.2,Win32,85.47008547,,,,,,,,,,,,,,,,92.5371,94.337,94.337,99.302,return,3.8997,,62.5,0,5,5,42,1,FBP-YG-91.png,0.4,1.2,43,1,,,,,,,,,,,,,,,,,,,,,,,,,,,,,,,,,,,,,,,,,,,,,
,,,,,WIN24_056,19,Female,2024-02-12_15h32.20.910,jersey_experiment_5,2023.2.2,Win32,85.47008547,,,,,,,,,,,,,,,,99.3022,101.1019,101.1019,102.8665,return,0.6206,,75,0,6,6,33,1,FBP-YG-71.png,0.43,1.2,34,1,,,,,,,,,,,,,,,,,,,,,,,,,,,,,,,,,,,,,,,,,,,,,
,,,,,WIN24_056,19,Female,2024-02-12_15h32.20.910,jersey_experiment_5,2023.2.2,Win32,85.47008547,,,,,,,,,,,,,,,,102.8667,104.1607,104.1608,105.9491,return,0.5045,,25.78125,0,7,7,55,1,FBP-PT-19.png,0.35,1.2,56,0.5,,,,,,,,,,,,,,,,,,,,,,,,,,,,,,,,,,,,,,,,,,,,,
,,,,,WIN24_056,19,Female,2024-02-12_15h32.20.910,jersey_experiment_5,2023.2.2,Win32,85.47008547,,,,,,,,,,,,,,,,105.9493,107.2432,107.2432,109.3493,return,1.1,,42.578125,0,8,8,52,1,FBP-PT-18.png,0.4,1.2,53,0.5,,,,,,,,,,,,,,,,,,,,,,,,,,,,,,,,,,,,,,,,,,,,,
,,,,,WIN24_056,19,Female,2024-02-12_15h32.20.910,jersey_experiment_5,2023.2.2,Win32,85.47008547,,,,,,,,,,,,,,,,109.3493,111.1492,111.1492,112.8553,return,0.5804,,40.10416667,0,9,9,21,1,FBP-RB-18.png,0.37,1.2,22,1,,,,,,,,,,,,,,,,,,,,,,,,,,,,,,,,,,,,,,,,,,,,,
,,,,,WIN24_056,19,Female,2024-02-12_15h32.20.910,jersey_experiment_5,2023.2.2,Win32,85.47008547,,,,,,,,,,,,,,,,112.8555,114.1494,114.1495,115.7024,return,0.5577,,76.171875,0,10,10,48,1,FBP-PT-17.png,0.43,1.2,49,0.5,,,,,,,,,,,,,,,,,,,,,,,,,,,,,,,,,,,,,,,,,,,,,
,,,,,WIN24_056,19,Female,2024-02-12_15h32.20.910,jersey_experiment_5,2023.2.2,Win32,85.47008547,,,,,,,,,,,,,,,,115.7026,117.5024,117.5025,118.5141,return,0.4894,,80.859375,0,11,11,18,1,FBP-RB-17.png,0.43,1.2,19,1,,,,,,,,,,,,,,,,,,,,,,,,,,,,,,,,,,,,,,,,,,,,,
,,,,,WIN24_056,19,Female,2024-02-12_15h32.20.910,jersey_experiment_5,2023.2.2,Win32,85.47008547,,,,,,,,,,,,,,,,118.5143,119.8083,119.8083,121.2908,return,0.4576,,27.08333333,0,12,12,0,1,FBP-OG-71.png,0.35,1.2,1,0.5,,,,,,,,,,,,,,,,,,,,,,,,,,,,,,,,,,,,,,,,,,,,,
,,,,,WIN24_056,19,Female,2024-02-12_15h32.20.910,jersey_experiment_5,2023.2.2,Win32,85.47008547,,,,,,,,,,,,,,,,121.291,122.585,122.585,124.0086,return,0.4239,,64.19270833,0,13,13,7,1,FBP-OG-81.png,0.4,1.2,8,0.5,,,,,,,,,,,,,,,,,,,,,,,,,,,,,,,,,,,,,,,,,,,,,
,,,,,WIN24_056,19,Female,2024-02-12_15h32.20.910,jersey_experiment_5,2023.2.2,Win32,85.47008547,,,,,,,,,,,,,,,,124.0087,125.3027,125.3027,126.4203,return,0.4779,,70.83333333,0,14,14,47,1,FBP-PT-17.png,0.4,1.2,48,0.5,,,,,,,,,,,,,,,,,,,,,,,,,,,,,,,,,,,,,,,,,,,,,
,,,,,WIN24_056,19,Female,2024-02-12_15h32.20.910,jersey_experiment_5,2023.2.2,Win32,85.47008547,,,,,,,,,,,,,,,,126.4205,128.2207,128.2207,129.1147,return,0.4618,,86.71875,0,15,15,44,1,FBP-YG-91.png,0.45,1.2,45,1,,,,,,,,,,,,,,,,,,,,,,,,,,,,,,,,,,,,,,,,,,,,,
,,,,,WIN24_056,19,Female,2024-02-12_15h32.20.910,jersey_experiment_5,2023.2.2,Win32,85.47008547,,,,,,,,,,,,,,,,129.1149,130.4088,130.4088,131.6912,return,0.4798,,25.390625,0,16,16,6,1,FBP-OG-81.png,0.37,1.2,7,0.5,,,,,,,,,,,,,,,,,,,,,,,,,,,,,,,,,,,,,,,,,,,,,
,,,,,WIN24_056,19,Female,2024-02-12_15h32.20.910,jersey_experiment_5,2023.2.2,Win32,85.47008547,,,,,,,,,,,,,,,,131.6913,133.4913,133.4913,134.7384,return,0.4677,,86.19791667,0,17,17,38,1,FBP-YG-81.png,0.43,1.2,39,1,,,,,,,,,,,,,,,,,,,,,,,,,,,,,,,,,,,,,,,,,,,,,
,,,,,WIN24_056,19,Female,2024-02-12_15h32.20.910,jersey_experiment_5,2023.2.2,Win32,85.47008547,,,,,,,,,,,,,,,,134.7386,136.5385,136.5385,137.6444,return,0.4098,,88.28125,0,18,18,24,1,FBP-RB-18.png,0.45,1.2,25,1,,,,,,,,,,,,,,,,,,,,,,,,,,,,,,,,,,,,,,,,,,,,,
,,,,,WIN24_056,19,Female,2024-02-12_15h32.20.910,jersey_experiment_5,2023.2.2,Win32,85.47008547,,,,,,,,,,,,,,,,137.6445,138.9384,138.9384,139.8915,return,0.4296,,88.28125,0,19,19,13,1,FBP-OG-91.png,0.43,1.2,14,0.5,,,,,,,,,,,,,,,,,,,,,,,,,,,,,,,,,,,,,,,,,,,,,
,,,,,WIN24_056,19,Female,2024-02-12_15h32.20.910,jersey_experiment_5,2023.2.2,Win32,85.47008547,,,,,,,,,,,,,,,,139.8917,141.1856,141.1857,142.421,return,0.4163,,29.81770833,0,20,20,1,1,FBP-OG-71.png,0.37,1.2,2,0.5,,,,,,,,,,,,,,,,,,,,,,,,,,,,,,,,,,,,,,,,,,,,,
,,,,,WIN24_056,19,Female,2024-02-12_15h32.20.910,jersey_experiment_5,2023.2.2,Win32,85.47008547,,,,,,,,,,,,,,,,142.4212,144.221,144.2211,145.5623,return,0.4371,,90.234375,0,21,21,29,1,FBP-RB-19.png,0.45,1.2,30,1,,,,,,,,,,,,,,,,,,,,,,,,,,,,,,,,,,,,,,,,,,,,,
,,,,,WIN24_056,19,Female,2024-02-12_15h32.20.910,jersey_experiment_5,2023.2.2,Win32,85.47008547,,,,,,,,,,,,,,,,145.5626,147.3624,147.3624,149.2096,return,0.9085,,43.09895833,0,22,22,20,1,FBP-RB-18.png,0.35,1.2,21,1,,,,,,,,,,,,,,,,,,,,,,,,,,,,,,,,,,,,,,,,,,,,,
,,,,,WIN24_056,19,Female,2024-02-12_15h32.20.910,jersey_experiment_5,2023.2.2,Win32,85.47008547,,,,,,,,,,,,,,,,149.2098,150.5037,150.5037,152.0214,return,0.4629,,88.671875,0,23,23,14,1,FBP-OG-91.png,0.45,1.2,15,0.5,,,,,,,,,,,,,,,,,,,,,,,,,,,,,,,,,,,,,,,,,,,,,
,,,,,WIN24_056,19,Female,2024-02-12_15h32.20.910,jersey_experiment_5,2023.2.2,Win32,85.47008547,,,,,,,,,,,,,,,,152.0214,153.8214,153.8215,155.0332,return,0.4024,,26.5625,0,24,24,15,1,FBP-RB-17.png,0.35,1.2,16,1,,,,,,,,,,,,,,,,,,,,,,,,,,,,,,,,,,,,,,,,,,,,,
,,,,,WIN24_056,19,Female,2024-02-12_15h32.20.910,jersey_experiment_5,2023.2.2,Win32,85.47008547,,,,,,,,,,,,,,,,155.0334,156.8335,156.8335,159.6216,return,2.1467,,50,0,25,25,26,1,FBP-RB-19.png,0.37,1.2,27,1,,,,,,,,,,,,,,,,,,,,,,,,,,,,,,,,,,,,,,,,,,,,,
,,,,,WIN24_056,19,Female,2024-02-12_15h32.20.910,jersey_experiment_5,2023.2.2,Win32,85.47008547,,,,,,,,,,,,,,,,159.6218,160.9157,160.9157,161.7627,return,0.4557,,50,0,26,26,57,1,FBP-PT-19.png,0.4,1.2,58,0.5,,,,,,,,,,,,,,,,,,,,,,,,,,,,,,,,,,,,,,,,,,,,,
,,,,,WIN24_056,19,Female,2024-02-12_15h32.20.910,jersey_experiment_5,2023.2.2,Win32,85.47008547,,,,,,,,,,,,,,,,161.7629,163.0569,163.0569,165.0454,return,0.569,,70.57291667,0,27,27,9,1,FBP-OG-81.png,0.45,1.2,10,0.5,,,,,,,,,,,,,,,,,,,,,,,,,,,,,,,,,,,,,,,,,,,,,
,,,,,WIN24_056,19,Female,2024-02-12_15h32.20.910,jersey_experiment_5,2023.2.2,Win32,85.47008547,,,,,,,,,,,,,,,,165.0456,166.8454,166.8454,168.116,return,0.4403,,31.38020833,0,28,28,25,1,FBP-RB-19.png,0.35,1.2,26,1,,,,,,,,,,,,,,,,,,,,,,,,,,,,,,,,,,,,,,,,,,,,,
,,,,,WIN24_056,19,Female,2024-02-12_15h32.20.910,jersey_experiment_5,2023.2.2,Win32,85.47008547,,,,,,,,,,,,,,,,168.1162,169.4101,169.4101,170.7397,return,0.6079,,31.38020833,0,29,29,10,1,FBP-OG-91.png,0.35,1.2,11,0.5,,,,,,,,,,,,,,,,,,,,,,,,,,,,,,,,,,,,,,,,,,,,,
,,,,,WIN24_056,19,Female,2024-02-12_15h32.20.910,jersey_experiment_5,2023.2.2,Win32,85.47008547,,,,,,,,,,,,,,,,170.7399,172.0338,172.0338,173.5163,return,0.4842,,58.46354167,0,30,30,53,1,FBP-PT-18.png,0.43,1.2,54,0.5,,,,,,,,,,,,,,,,,,,,,,,,,,,,,,,,,,,,,,,,,,,,,
,,,,,WIN24_056,19,Female,2024-02-12_15h32.20.910,jersey_experiment_5,2023.2.2,Win32,85.47008547,,,,,,,,,,,,,,,,173.5165,174.8104,174.8104,175.7397,return,0.4336,,58.46354167,0,31,31,45,1,FBP-PT-17.png,0.35,1.2,46,0.5,,,,,,,,,,,,,,,,,,,,,,,,,,,,,,,,,,,,,,,,,,,,,
,,,,,WIN24_056,19,Female,2024-02-12_15h32.20.910,jersey_experiment_5,2023.2.2,Win32,85.47008547,,,,,,,,,,,,,,,,175.7399,177.034,177.034,179.3518,return,1.874,,66.27604167,0,32,32,12,1,FBP-OG-91.png,0.4,1.2,13,0.5,,,,,,,,,,,,,,,,,,,,,,,,,,,,,,,,,,,,,,,,,,,,,
,,,,,WIN24_056,19,Female,2024-02-12_15h32.20.910,jersey_experiment_5,2023.2.2,Win32,85.47008547,,,,,,,,,,,,,,,,179.3519,181.1518,181.1518,181.9636,return,0.4618,,78.25520833,0,33,33,37,1,FBP-YG-81.png,0.4,1.2,38,1,,,,,,,,,,,,,,,,,,,,,,,,,,,,,,,,,,,,,,,,,,,,,
,,,,,WIN24_056,19,Female,2024-02-12_15h32.20.910,jersey_experiment_5,2023.2.2,Win32,85.47008547,,,,,,,,,,,,,,,,181.9639,183.2576,183.2577,184.4108,return,0.4483,,55.72916667,0,34,34,11,1,FBP-OG-91.png,0.37,1.2,12,0.5,,,,,,,,,,,,,,,,,,,,,,,,,,,,,,,,,,,,,,,,,,,,,
,,,,,WIN24_056,19,Female,2024-02-12_15h32.20.910,jersey_experiment_5,2023.2.2,Win32,85.47008547,,,,,,,,,,,,,,,,184.4109,186.2107,186.2108,186.9049,return,0.4609,,79.296875,0,35,35,43,1,FBP-YG-91.png,0.43,1.2,44,1,,,,,,,,,,,,,,,,,,,,,,,,,,,,,,,,,,,,,,,,,,,,,
,,,,,WIN24_056,19,Female,2024-02-12_15h32.20.910,jersey_experiment_5,2023.2.2,Win32,85.47008547,,,,,,,,,,,,,,,,186.9051,188.1991,188.1991,189.6697,return,0.9569,,46.09375,0,36,36,5,1,FBP-OG-81.png,0.35,1.2,6,0.5,,,,,,,,,,,,,,,,,,,,,,,,,,,,,,,,,,,,,,,,,,,,,
,,,,,WIN24_056,19,Female,2024-02-12_15h32.20.910,jersey_experiment_5,2023.2.2,Win32,85.47008547,,,,,,,,,,,,,,,,189.6699,191.47,191.4701,192.2581,return,0.4427,,28.515625,0,37,37,35,1,FBP-YG-81.png,0.35,1.2,36,1,,,,,,,,,,,,,,,,,,,,,,,,,,,,,,,,,,,,,,,,,,,,,
,,,,,WIN24_056,19,Female,2024-02-12_15h32.20.910,jersey_experiment_5,2023.2.2,Win32,85.47008547,,,,,,,,,,,,,,,,192.2583,193.5522,193.5522,194.4229,return,0.4378,,28.515625,0,38,38,46,1,FBP-PT-17.png,0.37,1.2,47,0.5,,,,,,,,,,,,,,,,,,,,,,,,,,,,,,,,,,,,,,,,,,,,,
,,,,,WIN24_056,19,Female,2024-02-12_15h32.20.910,jersey_experiment_5,2023.2.2,Win32,85.47008547,,,,,,,,,,,,,,,,194.4231,196.2232,196.2233,197.2935,return,0.4801,,68.88020833,0,39,39,34,1,FBP-YG-71.png,0.45,1.2,35,1,,,,,,,,,,,,,,,,,,,,,,,,,,,,,,,,,,,,,,,,,,,,,
,,,,,WIN24_056,19,Female,2024-02-12_15h32.20.910,jersey_experiment_5,2023.2.2,Win32,85.47008547,,,,,,,,,,,,,,,,197.2937,199.0936,199.0936,200.3643,return,0.5184,,78.125,0,40,40,31,1,FBP-YG-71.png,0.37,1.2,32,1,,,,,,,,,,,,,,,,,,,,,,,,,,,,,,,,,,,,,,,,,,,,,
,,,,,WIN24_056,19,Female,2024-02-12_15h32.20.910,jersey_experiment_5,2023.2.2,Win32,85.47008547,,,,,,,,,,,,,,,,200.3644,201.6585,201.6585,202.9056,return,0.5169,,88.54166667,0,41,41,58,1,FBP-PT-19.png,0.43,1.2,59,0.5,,,,,,,,,,,,,,,,,,,,,,,,,,,,,,,,,,,,,,,,,,,,,
,,,,,WIN24_056,19,Female,2024-02-12_15h32.20.910,jersey_experiment_5,2023.2.2,Win32,85.47008547,,,,,,,,,,,,,,,,202.9058,204.1997,204.1997,205.2586,return,0.4479,,71.875,0,42,42,56,1,FBP-PT-19.png,0.37,1.2,57,0.5,,,,,,,,,,,,,,,,,,,,,,,,,,,,,,,,,,,,,,,,,,,,,
,,,,,WIN24_056,19,Female,2024-02-12_15h32.20.910,jersey_experiment_5,2023.2.2,Win32,85.47008547,,,,,,,,,,,,,,,,205.2588,207.0585,207.0585,208.7762,return,1.2263,,75.65104167,0,43,43,17,1,FBP-RB-17.png,0.4,1.2,18,1,,,,,,,,,,,,,,,,,,,,,,,,,,,,,,,,,,,,,,,,,,,,,
,,,,,WIN24_056,19,Female,2024-02-12_15h32.20.910,jersey_experiment_5,2023.2.2,Win32,85.47008547,,,,,,,,,,,,,,,,208.7764,210.0704,210.0704,211.2117,return,0.6115,,77.734375,0,44,44,2,1,FBP-OG-71.png,0.4,1.2,3,0.5,,,,,,,,,,,,,,,,,,,,,,,,,,,,,,,,,,,,,,,,,,,,,
,,,,,WIN24_056,19,Female,2024-02-12_15h32.20.910,jersey_experiment_5,2023.2.2,Win32,85.47008547,,,,,,,,,,,,,,,,211.2119,212.5059,212.5059,213.5882,return,0.4895,,79.296875,0,45,45,8,1,FBP-OG-81.png,0.43,1.2,9,0.5,,,,,,,,,,,,,,,,,,,,,,,,,,,,,,,,,,,,,,,,,,,,,
,,,,,WIN24_056,19,Female,2024-02-12_15h32.20.910,jersey_experiment_5,2023.2.2,Win32,85.47008547,,,,,,,,,,,,,,,,213.5885,215.3884,215.3885,216.153,return,0.5087,,86.58854167,0,46,46,39,1,FBP-YG-81.png,0.45,1.2,40,1,,,,,,,,,,,,,,,,,,,,,,,,,,,,,,,,,,,,,,,,,,,,,
,,,,,WIN24_056,19,Female,2024-02-12_15h32.20.910,jersey_experiment_5,2023.2.2,Win32,85.47008547,,,,,,,,,,,,,,,,216.1533,217.9532,217.9532,219.0944,return,0.4164,,31.640625,0,47,47,40,1,FBP-YG-91.png,0.35,1.2,41,1,,,,,,,,,,,,,,,,,,,,,,,,,,,,,,,,,,,,,,,,,,,,,
,,,,,WIN24_056,19,Female,2024-02-12_15h32.20.910,jersey_experiment_5,2023.2.2,Win32,85.47008547,,,,,,,,,,,,,,,,219.0946,220.8944,220.8944,221.6826,return,0.4677,,31.640625,0,48,48,36,1,FBP-YG-81.png,0.37,1.2,37,1,,,,,,,,,,,,,,,,,,,,,,,,,,,,,,,,,,,,,,,,,,,,,
,,,,,WIN24_056,19,Female,2024-02-12_15h32.20.910,jersey_experiment_5,2023.2.2,Win32,85.47008547,,,,,,,,,,,,,,,,221.6828,222.9767,222.9767,224.2592,return,0.4644,,61.06770833,0,49,49,3,1,FBP-OG-71.png,0.43,1.2,4,0.5,,,,,,,,,,,,,,,,,,,,,,,,,,,,,,,,,,,,,,,,,,,,,
,,,,,WIN24_056,19,Female,2024-02-12_15h32.20.910,jersey_experiment_5,2023.2.2,Win32,85.47008547,,,,,,,,,,,,,,,,224.2595,226.0593,226.0593,227.1417,return,0.4648,,54.94791667,0,50,50,27,1,FBP-RB-19.png,0.4,1.2,28,1,,,,,,,,,,,,,,,,,,,,,,,,,,,,,,,,,,,,,,,,,,,,,
,,,,,WIN24_056,19,Female,2024-02-12_15h32.20.910,jersey_experiment_5,2023.2.2,Win32,85.47008547,,,,,,,,,,,,,,,,227.142,228.9417,228.9417,229.9653,return,0.4611,,83.07291667,0,51,51,19,1,FBP-RB-17.png,0.45,1.2,20,1,,,,,,,,,,,,,,,,,,,,,,,,,,,,,,,,,,,,,,,,,,,,,
,,,,,WIN24_056,19,Female,2024-02-12_15h32.20.910,jersey_experiment_5,2023.2.2,Win32,85.47008547,,,,,,,,,,,,,,,,229.9656,231.7653,231.7653,233.2243,return,1.0008,,79.03645833,0,52,52,41,1,FBP-YG-91.png,0.37,1.2,42,1,,,,,,,,,,,,,,,,,,,,,,,,,,,,,,,,,,,,,,,,,,,,,
,,,,,WIN24_056,19,Female,2024-02-12_15h32.20.910,jersey_experiment_5,2023.2.2,Win32,85.47008547,,,,,,,,,,,,,,,,233.2244,234.5184,234.5185,236.0714,return,0.4834,,91.015625,0,53,53,59,1,FBP-PT-19.png,0.45,1.2,60,0.5,,,,,,,,,,,,,,,,,,,,,,,,,,,,,,,,,,,,,,,,,,,,,
,,,,,WIN24_056,19,Female,2024-02-12_15h32.20.910,jersey_experiment_5,2023.2.2,Win32,85.47008547,,,,,,,,,,,,,,,,236.0716,237.3655,237.3656,238.2597,return,0.4544,,93.75,0,54,54,54,1,FBP-PT-18.png,0.45,1.2,55,0.5,,,,,,,,,,,,,,,,,,,,,,,,,,,,,,,,,,,,,,,,,,,,,
,,,,,WIN24_056,19,Female,2024-02-12_15h32.20.910,jersey_experiment_5,2023.2.2,Win32,85.47008547,,,,,,,,,,,,,,,,238.2599,240.06,240.06,241.1068,return,0.5125,,68.75,0,55,55,16,1,FBP-RB-17.png,0.37,1.2,17,1,,,,,,,,,,,,,,,,,,,,,,,,,,,,,,,,,,,,,,,,,,,,,
,,,,,WIN24_056,19,Female,2024-02-12_15h32.20.910,jersey_experiment_5,2023.2.2,Win32,85.47008547,,,,,,,,,,,,,,,,241.107,242.9069,242.907,243.9774,return,0.4817,,55.59895833,0,56,56,32,1,FBP-YG-71.png,0.4,1.2,33,1,,,,,,,,,,,,,,,,,,,,,,,,,,,,,,,,,,,,,,,,,,,,,
,,,,,WIN24_056,19,Female,2024-02-12_15h32.20.910,jersey_experiment_5,2023.2.2,Win32,85.47008547,,,,,,,,,,,,,,,,243.9779,245.2717,245.2717,246.5659,return,0.4757,,27.86458333,0,57,57,50,1,FBP-PT-18.png,0.35,1.2,51,0.5,,,,,,,,,,,,,,,,,,,,,,,,,,,,,,,,,,,,,,,,,,,,,
,,,,,WIN24_056,19,Female,2024-02-12_15h32.20.910,jersey_experiment_5,2023.2.2,Win32,85.47008547,,,,,,,,,,,,,,,,246.5661,248.3662,248.3662,249.3543,return,0.4715,,65.36458333,0,58,58,28,1,FBP-RB-19.png,0.43,1.2,29,1,,,,,,,,,,,,,,,,,,,,,,,,,,,,,,,,,,,,,,,,,,,,,
,,,,,WIN24_056,19,Female,2024-02-12_15h32.20.910,jersey_experiment_5,2023.2.2,Win32,85.47008547,,,,,,,,,,,,,,,,249.3545,250.6484,250.6484,252.072,return,0.8031,,87.890625,0,59,59,49,1,FBP-PT-17.png,0.45,1.2,50,0.5,,,,,,,,,,,,,,,,,,,,,,,,,,,,,,,,,,,,,,,,,,,,,
,,,,,WIN24_056,19,Female,2024-02-12_15h32.20.910,jersey_experiment_5,2023.2.2,Win32,85.47008547,,,,,,,,,,,,,,,,252.0738,253.3661,253.3661,254.2368,return,0.4335,,90.75520833,,,,,,FBP-PT-81.png,0.43,1.2,54,0.5,0,0,0,53,1,,,,,,,,,,,,,,,,,,,,,,,,,,,,,,,,,,,,,,,,
,,,,,WIN24_056,19,Female,2024-02-12_15h32.20.910,jersey_experiment_5,2023.2.2,Win32,85.47008547,,,,,,,,,,,,,,,,254.2371,255.5309,255.5309,256.4839,return,0.3958,,94.27083333,,,,,,FBP-OG-17.png,0.43,1.2,4,0.5,0,1,1,3,1,,,,,,,,,,,,,,,,,,,,,,,,,,,,,,,,,,,,,,,,
,,,,,WIN24_056,19,Female,2024-02-12_15h32.20.910,jersey_experiment_5,2023.2.2,Win32,85.47008547,,,,,,,,,,,,,,,,256.4842,258.2839,258.2839,259.8605,return,0.9575,,76.69270833,,,,,,FBP-RB-91.png,0.4,1.2,28,1,0,2,2,27,1,,,,,,,,,,,,,,,,,,,,,,,,,,,,,,,,,,,,,,,,
,,,,,WIN24_056,19,Female,2024-02-12_15h32.20.910,jersey_experiment_5,2023.2.2,Win32,85.47008547,,,,,,,,,,,,,,,,259.8607,261.1549,261.1549,262.3782,return,0.4341,,31.51041667,,,,,,FBP-PT-81.png,0.35,1.2,51,0.5,0,3,3,50,1,,,,,,,,,,,,,,,,,,,,,,,,,,,,,,,,,,,,,,,,
,,,,,WIN24_056,19,Female,2024-02-12_15h32.20.910,jersey_experiment_5,2023.2.2,Win32,85.47008547,,,,,,,,,,,,,,,,262.3784,263.6723,263.6724,264.9548,return,0.448,,74.34895833,,,,,,FBP-OG-18.png,0.43,1.2,9,0.5,0,4,4,8,1,,,,,,,,,,,,,,,,,,,,,,,,,,,,,,,,,,,,,,,,
,,,,,WIN24_056,19,Female,2024-02-12_15h32.20.910,jersey_experiment_5,2023.2.2,Win32,85.47008547,,,,,,,,,,,,,,,,264.9551,266.249,266.2491,268.1783,return,1.4659,,69.27083333,,,,,,FBP-PT-91.png,0.4,1.2,58,0.5,0,5,5,57,1,,,,,,,,,,,,,,,,,,,,,,,,,,,,,,,,,,,,,,,,
,,,,,WIN24_056,19,Female,2024-02-12_15h32.20.910,jersey_experiment_5,2023.2.2,Win32,85.47008547,,,,,,,,,,,,,,,,268.1786,269.4726,269.4726,270.6372,return,0.4712,,33.203125,,,,,,FBP-PT-71.png,0.35,1.2,46,0.5,0,6,6,45,1,,,,,,,,,,,,,,,,,,,,,,,,,,,,,,,,,,,,,,,,
,,,,,WIN24_056,19,Female,2024-02-12_15h32.20.910,jersey_experiment_5,2023.2.2,Win32,85.47008547,,,,,,,,,,,,,,,,270.6374,272.4378,272.4378,273.5316,return,0.4811,,35.546875,,,,,,FBP-RB-91.png,0.37,1.2,27,1,0,7,7,26,1,,,,,,,,,,,,,,,,,,,,,,,,,,,,,,,,,,,,,,,,
,,,,,WIN24_056,19,Female,2024-02-12_15h32.20.910,jersey_experiment_5,2023.2.2,Win32,85.47008547,,,,,,,,,,,,,,,,273.5317,275.3318,275.3318,277.1081,return,1.5465,,23.56770833,,,,,,FBP-YG-19.png,0.35,1.2,41,1,0,8,8,40,1,,,,,,,,,,,,,,,,,,,,,,,,,,,,,,,,,,,,,,,,
,,,,,WIN24_056,19,Female,2024-02-12_15h32.20.910,jersey_experiment_5,2023.2.2,Win32,85.47008547,,,,,,,,,,,,,,,,277.1083,278.9085,278.9085,279.9789,return,0.4336,,93.359375,,,,,,FBP-RB-71.png,0.45,1.2,20,1,0,9,9,19,1,,,,,,,,,,,,,,,,,,,,,,,,,,,,,,,,,,,,,,,,
,,,,,WIN24_056,19,Female,2024-02-12_15h32.20.910,jersey_experiment_5,2023.2.2,Win32,85.47008547,,,,,,,,,,,,,,,,279.9792,281.7791,281.7792,284.8732,return,2.3638,,25.65104167,,,,,,FBP-RB-71.png,0.35,1.2,16,1,0,10,10,15,1,,,,,,,,,,,,,,,,,,,,,,,,,,,,,,,,,,,,,,,,
,,,,,WIN24_056,19,Female,2024-02-12_15h32.20.910,jersey_experiment_5,2023.2.2,Win32,85.47008547,,,,,,,,,,,,,,,,284.8734,286.6735,286.6736,287.6261,return,0.5279,,10.9375,,,,,,FBP-YG-18.png,0.35,1.2,36,1,0,11,11,35,1,,,,,,,,,,,,,,,,,,,,,,,,,,,,,,,,,,,,,,,,
,,,,,WIN24_056,19,Female,2024-02-12_15h32.20.910,jersey_experiment_5,2023.2.2,Win32,85.47008547,,,,,,,,,,,,,,,,287.6263,288.9203,288.9204,290.744,return,0.5094,,46.484375,,,,,,FBP-OG-18.png,0.4,1.2,8,0.5,0,12,12,7,1,,,,,,,,,,,,,,,,,,,,,,,,,,,,,,,,,,,,,,,,
,,,,,WIN24_056,19,Female,2024-02-12_15h32.20.910,jersey_experiment_5,2023.2.2,Win32,85.47008547,,,,,,,,,,,,,,,,290.7443,292.5441,292.5441,293.497,return,0.4954,,93.22916667,,,,,,FBP-YG-18.png,0.45,1.2,40,1,0,13,13,39,1,,,,,,,,,,,,,,,,,,,,,,,,,,,,,,,,,,,,,,,,
,,,,,WIN24_056,19,Female,2024-02-12_15h32.20.910,jersey_experiment_5,2023.2.2,Win32,85.47008547,,,,,,,,,,,,,,,,293.4972,294.7911,294.7911,296.1559,return,0.4946,,10.67708333,,,,,,FBP-OG-17.png,0.35,1.2,1,0.5,0,14,14,0,1,,,,,,,,,,,,,,,,,,,,,,,,,,,,,,,,,,,,,,,,
,,,,,WIN24_056,19,Female,2024-02-12_15h32.20.910,jersey_experiment_5,2023.2.2,Win32,85.47008547,,,,,,,,,,,,,,,,296.1562,297.4501,297.4501,299.8971,return,1.5762,,19.79166667,,,,,,FBP-OG-17.png,0.4,1.2,3,0.5,0,15,15,2,1,,,,,,,,,,,,,,,,,,,,,,,,,,,,,,,,,,,,,,,,
,,,,,WIN24_056,19,Female,2024-02-12_15h32.20.910,jersey_experiment_5,2023.2.2,Win32,85.47008547,,,,,,,,,,,,,,,,299.8973,301.6973,301.6973,303.0149,return,0.6956,,9.114583333,,,,,,FBP-RB-81.png,0.35,1.2,21,1,0,16,16,20,1,,,,,,,,,,,,,,,,,,,,,,,,,,,,,,,,,,,,,,,,
,,,,,WIN24_056,19,Female,2024-02-12_15h32.20.910,jersey_experiment_5,2023.2.2,Win32,85.47008547,,,,,,,,,,,,,,,,303.0151,304.3092,304.3092,305.5327,return,0.5085,,20.57291667,,,,,,FBP-PT-81.png,0.4,1.2,53,0.5,0,17,17,52,1,,,,,,,,,,,,,,,,,,,,,,,,,,,,,,,,,,,,,,,,
,,,,,WIN24_056,19,Female,2024-02-12_15h32.20.910,jersey_experiment_5,2023.2.2,Win32,85.47008547,,,,,,,,,,,,,,,,305.5329,306.8269,306.8269,309.5564,return,0.6639,,41.796875,,,,,,FBP-OG-18.png,0.45,1.2,10,0.5,0,18,18,9,1,,,,,,,,,,,,,,,,,,,,,,,,,,,,,,,,,,,,,,,,
,,,,,WIN24_056,19,Female,2024-02-12_15h32.20.910,jersey_experiment_5,2023.2.2,Win32,85.47008547,,,,,,,,,,,,,,,,309.5566,310.8506,310.8506,312.4387,return,0.6492,,89.32291667,,,,,,FBP-PT-71.png,0.45,1.2,50,0.5,0,19,19,49,1,,,,,,,,,,,,,,,,,,,,,,,,,,,,,,,,,,,,,,,,
,,,,,WIN24_056,19,Female,2024-02-12_15h32.20.910,jersey_experiment_5,2023.2.2,Win32,85.47008547,,,,,,,,,,,,,,,,312.4389,313.733,313.733,315.38,return,0.5953,,58.33333333,,,,,,FBP-OG-19.png,0.35,1.2,11,0.5,0,20,20,10,1,,,,,,,,,,,,,,,,,,,,,,,,,,,,,,,,,,,,,,,,
,,,,,WIN24_056,19,Female,2024-02-12_15h32.20.910,jersey_experiment_5,2023.2.2,Win32,85.47008547,,,,,,,,,,,,,,,,315.3802,316.6743,316.6743,318.8272,return,0.9082,,54.6875,,,,,,FBP-PT-91.png,0.35,1.2,56,0.5,0,21,21,55,1,,,,,,,,,,,,,,,,,,,,,,,,,,,,,,,,,,,,,,,,
,,,,,WIN24_056,19,Female,2024-02-12_15h32.20.910,jersey_experiment_5,2023.2.2,Win32,85.47008547,,,,,,,,,,,,,,,,318.8275,320.1214,320.1214,322.7805,return,1.2614,,65.75520833,,,,,,FBP-PT-91.png,0.37,1.2,57,0.5,0,22,22,56,1,,,,,,,,,,,,,,,,,,,,,,,,,,,,,,,,,,,,,,,,
,,,,,WIN24_056,19,Female,2024-02-12_15h32.20.910,jersey_experiment_5,2023.2.2,Win32,85.47008547,,,,,,,,,,,,,,,,322.7807,324.0745,324.0746,325.6747,return,0.7296,,65.75520833,,,,,,FBP-PT-71.png,0.43,1.2,49,0.5,0,23,23,48,1,,,,,,,,,,,,,,,,,,,,,,,,,,,,,,,,,,,,,,,,
,,,,,WIN24_056,19,Female,2024-02-12_15h32.20.910,jersey_experiment_5,2023.2.2,Win32,85.47008547,,,,,,,,,,,,,,,,325.6749,327.4746,327.4746,328.5806,return,0.5713,,74.86979167,,,,,,FBP-YG-17.png,0.37,1.2,32,1,0,24,24,31,1,,,,,,,,,,,,,,,,,,,,,,,,,,,,,,,,,,,,,,,,
,,,,,WIN24_056,19,Female,2024-02-12_15h32.20.910,jersey_experiment_5,2023.2.2,Win32,85.47008547,,,,,,,,,,,,,,,,328.5808,329.8746,329.8746,331.0513,return,0.5178,,74.86979167,,,,,,FBP-PT-81.png,0.37,1.2,52,0.5,0,25,25,51,1,,,,,,,,,,,,,,,,,,,,,,,,,,,,,,,,,,,,,,,,
,,,,,WIN24_056,19,Female,2024-02-12_15h32.20.910,jersey_experiment_5,2023.2.2,Win32,85.47008547,,,,,,,,,,,,,,,,331.0515,332.8513,332.8513,334.322,return,0.5034,,97.39583333,,,,,,FBP-YG-17.png,0.43,1.2,34,1,0,26,26,33,1,,,,,,,,,,,,,,,,,,,,,,,,,,,,,,,,,,,,,,,,
,,,,,WIN24_056,19,Female,2024-02-12_15h32.20.910,jersey_experiment_5,2023.2.2,Win32,85.47008547,,,,,,,,,,,,,,,,334.3222,335.616,335.616,337.0044,return,0.4802,,13.02083333,,,,,,FBP-PT-71.png,0.37,1.2,47,0.5,0,27,27,46,1,,,,,,,,,,,,,,,,,,,,,,,,,,,,,,,,,,,,,,,,
,,,,,WIN24_056,19,Female,2024-02-12_15h32.20.910,jersey_experiment_5,2023.2.2,Win32,85.47008547,,,,,,,,,,,,,,,,337.0046,338.8045,338.8045,339.9811,return,0.5078,,84.24479167,,,,,,FBP-RB-81.png,0.4,1.2,23,1,0,28,28,22,1,,,,,,,,,,,,,,,,,,,,,,,,,,,,,,,,,,,,,,,,
,,,,,WIN24_056,19,Female,2024-02-12_15h32.20.910,jersey_experiment_5,2023.2.2,Win32,85.47008547,,,,,,,,,,,,,,,,339.9813,341.7812,341.7813,343.4987,return,0.4575,,99.21875,,,,,,FBP-RB-81.png,0.45,1.2,25,1,0,29,29,24,1,,,,,,,,,,,,,,,,,,,,,,,,,,,,,,,,,,,,,,,,
,,,,,WIN24_056,19,Female,2024-02-12_15h32.20.910,jersey_experiment_5,2023.2.2,Win32,85.47008547,,,,,,,,,,,,,,,,343.4989,345.2988,345.2989,346.6755,return,0.9961,,89.84375,,,,,,FBP-RB-91.png,0.43,1.2,29,1,0,30,30,28,1,,,,,,,,,,,,,,,,,,,,,,,,,,,,,,,,,,,,,,,,
,,,,,WIN24_056,19,Female,2024-02-12_15h32.20.910,jersey_experiment_5,2023.2.2,Win32,85.47008547,,,,,,,,,,,,,,,,346.6757,348.4755,348.4755,349.6755,return,0.5176,,92.31770833,,,,,,FBP-YG-17.png,0.4,1.2,33,1,0,31,31,32,1,,,,,,,,,,,,,,,,,,,,,,,,,,,,,,,,,,,,,,,,
,,,,,WIN24_056,19,Female,2024-02-12_15h32.20.910,jersey_experiment_5,2023.2.2,Win32,85.47008547,,,,,,,,,,,,,,,,349.6757,351.4755,351.4756,352.3461,return,0.5052,,86.58854167,,,,,,FBP-YG-19.png,0.4,1.2,43,1,0,32,32,42,1,,,,,,,,,,,,,,,,,,,,,,,,,,,,,,,,,,,,,,,,
,,,,,WIN24_056,19,Female,2024-02-12_15h32.20.910,jersey_experiment_5,2023.2.2,Win32,85.47008547,,,,,,,,,,,,,,,,352.3463,354.1464,354.1464,355.0757,return,0.4645,,31.77083333,,,,,,FBP-YG-17.png,0.35,1.2,31,1,0,33,33,30,1,,,,,,,,,,,,,,,,,,,,,,,,,,,,,,,,,,,,,,,,
,,,,,WIN24_056,19,Female,2024-02-12_15h32.20.910,jersey_experiment_5,2023.2.2,Win32,85.47008547,,,,,,,,,,,,,,,,355.0759,356.3697,356.3698,358.6994,return,0.8564,,34.11458333,,,,,,FBP-OG-17.png,0.37,1.2,2,0.5,0,34,34,1,1,,,,,,,,,,,,,,,,,,,,,,,,,,,,,,,,,,,,,,,,
,,,,,WIN24_056,19,Female,2024-02-12_15h32.20.910,jersey_experiment_5,2023.2.2,Win32,85.47008547,,,,,,,,,,,,,,,,358.6996,360.4996,360.4996,361.676,return,0.4614,,93.359375,,,,,,FBP-YG-19.png,0.43,1.2,44,1,0,35,35,43,1,,,,,,,,,,,,,,,,,,,,,,,,,,,,,,,,,,,,,,,,
,,,,,WIN24_056,19,Female,2024-02-12_15h32.20.910,jersey_experiment_5,2023.2.2,Win32,85.47008547,,,,,,,,,,,,,,,,361.6762,363.476,363.476,364.476,return,0.6832,,95.96354167,,,,,,FBP-RB-91.png,0.45,1.2,30,1,0,36,36,29,1,,,,,,,,,,,,,,,,,,,,,,,,,,,,,,,,,,,,,,,,
,,,,,WIN24_056,19,Female,2024-02-12_15h32.20.910,jersey_experiment_5,2023.2.2,Win32,85.47008547,,,,,,,,,,,,,,,,364.4763,365.7702,365.7702,367.0643,return,0.5088,,79.55729167,,,,,,FBP-OG-19.png,0.4,1.2,13,0.5,0,37,37,12,1,,,,,,,,,,,,,,,,,,,,,,,,,,,,,,,,,,,,,,,,
,,,,,WIN24_056,19,Female,2024-02-12_15h32.20.910,jersey_experiment_5,2023.2.2,Win32,85.47008547,,,,,,,,,,,,,,,,367.0645,368.8643,368.8643,369.8762,return,0.5715,,81.77083333,,,,,,FBP-YG-18.png,0.43,1.2,39,1,0,38,38,38,1,,,,,,,,,,,,,,,,,,,,,,,,,,,,,,,,,,,,,,,,
,,,,,WIN24_056,19,Female,2024-02-12_15h32.20.910,jersey_experiment_5,2023.2.2,Win32,85.47008547,,,,,,,,,,,,,,,,369.8765,371.1704,371.1704,372.1822,return,0.4755,,50.13020833,,,,,,FBP-OG-19.png,0.37,1.2,12,0.5,0,39,39,11,1,,,,,,,,,,,,,,,,,,,,,,,,,,,,,,,,,,,,,,,,
,,,,,WIN24_056,19,Female,2024-02-12_15h32.20.910,jersey_experiment_5,2023.2.2,Win32,85.47008547,,,,,,,,,,,,,,,,372.1825,373.4763,373.4763,374.6293,return,0.486,,68.88020833,,,,,,FBP-PT-91.png,0.45,1.2,60,0.5,0,40,40,59,1,,,,,,,,,,,,,,,,,,,,,,,,,,,,,,,,,,,,,,,,
,,,,,WIN24_056,19,Female,2024-02-12_15h32.20.910,jersey_experiment_5,2023.2.2,Win32,85.47008547,,,,,,,,,,,,,,,,374.6295,376.4297,376.4297,377.6061,return,0.8032,,52.08333333,,,,,,FBP-RB-81.png,0.37,1.2,22,1,0,41,41,21,1,,,,,,,,,,,,,,,,,,,,,,,,,,,,,,,,,,,,,,,,
,,,,,WIN24_056,19,Female,2024-02-12_15h32.20.910,jersey_experiment_5,2023.2.2,Win32,85.47008547,,,,,,,,,,,,,,,,377.6064,379.4061,379.4061,380.2531,return,0.48,,46.74479167,,,,,,FBP-YG-19.png,0.37,1.2,42,1,0,42,42,41,1,,,,,,,,,,,,,,,,,,,,,,,,,,,,,,,,,,,,,,,,
,,,,,WIN24_056,19,Female,2024-02-12_15h32.20.910,jersey_experiment_5,2023.2.2,Win32,85.47008547,,,,,,,,,,,,,,,,380.2533,382.0531,382.0531,383.3237,return,0.4709,,44.921875,,,,,,FBP-YG-18.png,0.37,1.2,37,1,0,43,43,36,1,,,,,,,,,,,,,,,,,,,,,,,,,,,,,,,,,,,,,,,,
,,,,,WIN24_056,19,Female,2024-02-12_15h32.20.910,jersey_experiment_5,2023.2.2,Win32,85.47008547,,,,,,,,,,,,,,,,383.324,385.1237,385.1237,387.1945,return,1.6813,,54.296875,,,,,,FBP-RB-71.png,0.4,1.2,18,1,0,44,44,17,1,,,,,,,,,,,,,,,,,,,,,,,,,,,,,,,,,,,,,,,,
,,,,,WIN24_056,19,Female,2024-02-12_15h32.20.910,jersey_experiment_5,2023.2.2,Win32,85.47008547,,,,,,,,,,,,,,,,387.1947,388.4886,388.4886,389.8652,return,0.7294,,89.453125,,,,,,FBP-PT-81.png,0.45,1.2,55,0.5,0,45,45,54,1,,,,,,,,,,,,,,,,,,,,,,,,,,,,,,,,,,,,,,,,
,,,,,WIN24_056,19,Female,2024-02-12_15h32.20.910,jersey_experiment_5,2023.2.2,Win32,85.47008547,,,,,,,,,,,,,,,,389.8654,391.6651,391.6652,392.6535,return,0.5029,,95.96354167,,,,,,FBP-RB-81.png,0.43,1.2,24,1,0,46,46,23,1,,,,,,,,,,,,,,,,,,,,,,,,,,,,,,,,,,,,,,,,
,,,,,WIN24_056,19,Female,2024-02-12_15h32.20.910,jersey_experiment_5,2023.2.2,Win32,85.47008547,,,,,,,,,,,,,,,,392.6537,393.9476,393.9476,395.5476,return,0.7626,,34.63541667,,,,,,FBP-OG-18.png,0.37,1.2,7,0.5,0,47,47,6,1,,,,,,,,,,,,,,,,,,,,,,,,,,,,,,,,,,,,,,,,
,,,,,WIN24_056,19,Female,2024-02-12_15h32.20.910,jersey_experiment_5,2023.2.2,Win32,85.47008547,,,,,,,,,,,,,,,,395.5479,396.842,396.842,399.0537,return,1.3413,,64.58333333,,,,,,FBP-OG-19.png,0.43,1.2,14,0.5,0,48,48,13,1,,,,,,,,,,,,,,,,,,,,,,,,,,,,,,,,,,,,,,,,
,,,,,WIN24_056,19,Female,2024-02-12_15h32.20.910,jersey_experiment_5,2023.2.2,Win32,85.47008547,,,,,,,,,,,,,,,,399.0539,400.3478,400.3479,401.3007,return,0.4746,,71.875,,,,,,FBP-PT-91.png,0.43,1.2,59,0.5,0,49,49,58,1,,,,,,,,,,,,,,,,,,,,,,,,,,,,,,,,,,,,,,,,
,,,,,WIN24_056,19,Female,2024-02-12_15h32.20.910,jersey_experiment_5,2023.2.2,Win32,85.47008547,,,,,,,,,,,,,,,,401.301,402.595,402.595,403.7715,return,0.4376,,26.82291667,,,,,,FBP-OG-18.png,0.35,1.2,6,0.5,0,50,50,5,1,,,,,,,,,,,,,,,,,,,,,,,,,,,,,,,,,,,,,,,,
,,,,,WIN24_056,19,Female,2024-02-12_15h32.20.910,jersey_experiment_5,2023.2.2,Win32,85.47008547,,,,,,,,,,,,,,,,403.7716,405.0659,405.0659,406.4776,return,0.4835,,98.046875,,,,,,FBP-OG-17.png,0.45,1.2,5,0.5,0,51,51,4,1,,,,,,,,,,,,,,,,,,,,,,,,,,,,,,,,,,,,,,,,
,,,,,WIN24_056,19,Female,2024-02-12_15h32.20.910,jersey_experiment_5,2023.2.2,Win32,85.47008547,,,,,,,,,,,,,,,,406.4778,408.2775,408.2776,409.1482,return,0.4331,,33.85416667,,,,,,FBP-RB-91.png,0.35,1.2,26,1,0,52,52,25,1,,,,,,,,,,,,,,,,,,,,,,,,,,,,,,,,,,,,,,,,
,,,,,WIN24_056,19,Female,2024-02-12_15h32.20.910,jersey_experiment_5,2023.2.2,Win32,85.47008547,,,,,,,,,,,,,,,,409.1484,410.9486,410.9486,412.4658,return,0.9504,,56.25,,,,,,FBP-RB-71.png,0.37,1.2,17,1,0,53,53,16,1,,,,,,,,,,,,,,,,,,,,,,,,,,,,,,,,,,,,,,,,
,,,,,WIN24_056,19,Female,2024-02-12_15h32.20.910,jersey_experiment_5,2023.2.2,Win32,85.47008547,,,,,,,,,,,,,,,,412.4661,413.7601,413.7601,415.219,return,0.4641,,95.3125,,,,,,FBP-OG-19.png,0.45,1.2,15,0.5,0,54,54,14,1,,,,,,,,,,,,,,,,,,,,,,,,,,,,,,,,,,,,,,,,
,,,,,WIN24_056,19,Female,2024-02-12_15h32.20.910,jersey_experiment_5,2023.2.2,Win32,85.47008547,,,,,,,,,,,,,,,,415.2192,417.0193,417.0193,418.6192,return,0.4854,,98.69791667,,,,,,FBP-YG-19.png,0.45,1.2,45,1,0,55,55,44,1,,,,,,,,,,,,,,,,,,,,,,,,,,,,,,,,,,,,,,,,
,,,,,WIN24_056,19,Female,2024-02-12_15h32.20.910,jersey_experiment_5,2023.2.2,Win32,85.47008547,,,,,,,,,,,,,,,,418.6194,420.4192,420.4192,421.384,return,0.4265,,92.31770833,,,,,,FBP-RB-71.png,0.43,1.2,19,1,0,56,56,18,1,,,,,,,,,,,,,,,,,,,,,,,,,,,,,,,,,,,,,,,,
,,,,,WIN24_056,19,Female,2024-02-12_15h32.20.910,jersey_experiment_5,2023.2.2,Win32,85.47008547,,,,,,,,,,,,,,,,421.3841,423.1841,423.1841,423.9723,return,0.5577,,74.86979167,,,,,,FBP-YG-18.png,0.4,1.2,38,1,0,57,57,37,1,,,,,,,,,,,,,,,,,,,,,,,,,,,,,,,,,,,,,,,,
,,,,,WIN24_056,19,Female,2024-02-12_15h32.20.910,jersey_experiment_5,2023.2.2,Win32,85.47008547,,,,,,,,,,,,,,,,423.9724,425.2664,425.2664,426.4429,return,0.4711,,54.6875,,,,,,FBP-PT-71.png,0.4,1.2,48,0.5,0,58,58,47,1,,,,,,,,,,,,,,,,,,,,,,,,,,,,,,,,,,,,,,,,
,,,,,WIN24_056,19,Female,2024-02-12_15h32.20.910,jersey_experiment_5,2023.2.2,Win32,85.47008547,,,,,,,,,,,,,,,,426.4432,428.243,428.2431,430.9961,return,2.099,,65.36458333,,,,,,FBP-YG-17.png,0.45,1.2,35,1,0,59,59,34,1,,,,,,,,,,,,,,,,,,,,,,,,,,,,,,,,,,,,,,,,
,,,,,WIN24_056,19,Female,2024-02-12_15h32.20.910,jersey_experiment_5,2023.2.2,Win32,85.47008547,,,,,,,,,,,,,,,,,,,,,,,,,,,,,,,,,,,,,,,430.9965,551.0007,,,,,,,,,,,,,,,,,,,,,,,,,,,,,,,,,,,,,,
,,,,,WIN24_056,19,Female,2024-02-12_15h32.20.910,jersey_experiment_5,2023.2.2,Win32,85.47008547,,,,,,,,,,,,,,,,,,,,,,,,,,,,,,,,,,,,,,,,,551.0007,553.5417,return,2.5339,,,,,,,,,,,,,,,,,,,,,,,,,,,,,,,,,,
,,,,,WIN24_056,19,Female,2024-02-12_15h32.20.910,jersey_experiment_5,2023.2.2,Win32,85.47008547,,,,,,,,,,,,,,,,553.5481,554.8475,554.8475,557.5887,return,1.721,,22.91666667,,,,,,FBP-RB-19.png,0.35,1.2,26,0.5,,,,,,,,,,,,,0,0,0,25,1,,,,,,,,,,,,,,,,,,,,,,,,,,,,
,,,,,WIN24_056,19,Female,2024-02-12_15h32.20.910,jersey_experiment_5,2023.2.2,Win32,85.47008547,,,,,,,,,,,,,,,,557.5892,558.883,558.883,560.036,return,0.5131,,23.56770833,,,,,,FBP-YG-71.png,0.35,1.2,31,0.5,,,,,,,,,,,,,0,1,1,30,1,,,,,,,,,,,,,,,,,,,,,,,,,,,,
,,,,,WIN24_056,19,Female,2024-02-12_15h32.20.910,jersey_experiment_5,2023.2.2,Win32,85.47008547,,,,,,,,,,,,,,,,560.0363,561.836,561.8361,562.6949,return,0.5334,,63.671875,,,,,,FBP-OG-81.png,0.43,1.2,9,1,,,,,,,,,,,,,0,2,2,8,1,,,,,,,,,,,,,,,,,,,,,,,,,,,,
,,,,,WIN24_056,19,Female,2024-02-12_15h32.20.910,jersey_experiment_5,2023.2.2,Win32,85.47008547,,,,,,,,,,,,,,,,562.6952,563.989,563.989,565.2597,return,0.6362,,70.703125,,,,,,FBP-YG-71.png,0.45,1.2,35,0.5,,,,,,,,,,,,,0,3,3,34,1,,,,,,,,,,,,,,,,,,,,,,,,,,,,
,,,,,WIN24_056,19,Female,2024-02-12_15h32.20.910,jersey_experiment_5,2023.2.2,Win32,85.47008547,,,,,,,,,,,,,,,,565.2598,567.0596,567.0596,567.9421,return,0.5204,,70.703125,,,,,,FBP-PT-18.png,0.45,1.2,55,1,,,,,,,,,,,,,0,4,4,54,1,,,,,,,,,,,,,,,,,,,,,,,,,,,,
,,,,,WIN24_056,19,Female,2024-02-12_15h32.20.910,jersey_experiment_5,2023.2.2,Win32,85.47008547,,,,,,,,,,,,,,,,567.9424,569.7424,569.7424,570.9304,return,0.5481,,52.34375,,,,,,FBP-PT-18.png,0.37,1.2,52,1,,,,,,,,,,,,,0,5,5,51,1,,,,,,,,,,,,,,,,,,,,,,,,,,,,
,,,,,WIN24_056,19,Female,2024-02-12_15h32.20.910,jersey_experiment_5,2023.2.2,Win32,85.47008547,,,,,,,,,,,,,,,,570.9306,572.2247,572.2247,573.3658,return,0.4523,,40.625,,,,,,FBP-YG-81.png,0.37,1.2,37,0.5,,,,,,,,,,,,,0,6,6,36,1,,,,,,,,,,,,,,,,,,,,,,,,,,,,
,,,,,WIN24_056,19,Female,2024-02-12_15h32.20.910,jersey_experiment_5,2023.2.2,Win32,85.47008547,,,,,,,,,,,,,,,,573.366,575.166,575.166,576.0601,return,0.5088,,46.35416667,,,,,,FBP-OG-91.png,0.37,1.2,12,1,,,,,,,,,,,,,0,7,7,11,1,,,,,,,,,,,,,,,,,,,,,,,,,,,,
,,,,,WIN24_056,19,Female,2024-02-12_15h32.20.910,jersey_experiment_5,2023.2.2,Win32,85.47008547,,,,,,,,,,,,,,,,576.0604,577.3542,577.3543,579.272,return,0.5309,,67.96875,,,,,,FBP-RB-17.png,0.4,1.2,18,0.5,,,,,,,,,,,,,0,8,8,17,1,,,,,,,,,,,,,,,,,,,,,,,,,,,,
,,,,,WIN24_056,19,Female,2024-02-12_15h32.20.910,jersey_experiment_5,2023.2.2,Win32,85.47008547,,,,,,,,,,,,,,,,579.2721,581.0721,581.0721,582.0839,return,0.4896,,31.640625,,,,,,FBP-PT-19.png,0.35,1.2,56,1,,,,,,,,,,,,,0,9,9,55,1,,,,,,,,,,,,,,,,,,,,,,,,,,,,
,,,,,WIN24_056,19,Female,2024-02-12_15h32.20.910,jersey_experiment_5,2023.2.2,Win32,85.47008547,,,,,,,,,,,,,,,,582.0841,583.8839,583.8839,584.9663,return,0.4989,,36.19791667,,,,,,FBP-OG-71.png,0.37,1.2,2,1,,,,,,,,,,,,,0,10,10,1,1,,,,,,,,,,,,,,,,,,,,,,,,,,,,
,,,,,WIN24_056,19,Female,2024-02-12_15h32.20.910,jersey_experiment_5,2023.2.2,Win32,85.47008547,,,,,,,,,,,,,,,,584.9664,586.2604,586.2604,587.5546,return,0.5125,,68.48958333,,,,,,FBP-RB-17.png,0.35,1.2,16,0.5,,,,,,,,,,,,,0,11,11,15,1,,,,,,,,,,,,,,,,,,,,,,,,,,,,
,,,,,WIN24_056,19,Female,2024-02-12_15h32.20.910,jersey_experiment_5,2023.2.2,Win32,85.47008547,,,,,,,,,,,,,,,,587.5548,588.8488,588.8488,590.1075,return,0.461,,54.03645833,,,,,,FBP-RB-18.png,0.37,1.2,22,0.5,,,,,,,,,,,,,0,12,12,21,1,,,,,,,,,,,,,,,,,,,,,,,,,,,,
,,,,,WIN24_056,19,Female,2024-02-12_15h32.20.910,jersey_experiment_5,2023.2.2,Win32,85.47008547,,,,,,,,,,,,,,,,590.1077,591.4018,591.4018,592.3076,return,0.4641,,81.25,,,,,,FBP-RB-19.png,0.43,1.2,29,0.5,,,,,,,,,,,,,0,13,13,28,1,,,,,,,,,,,,,,,,,,,,,,,,,,,,
,,,,,WIN24_056,19,Female,2024-02-12_15h32.20.910,jersey_experiment_5,2023.2.2,Win32,85.47008547,,,,,,,,,,,,,,,,592.3077,593.6019,593.602,594.4254,return,0.4719,,66.796875,,,,,,FBP-YG-91.png,0.37,1.2,42,0.5,,,,,,,,,,,,,0,14,14,41,1,,,,,,,,,,,,,,,,,,,,,,,,,,,,
,,,,,WIN24_056,19,Female,2024-02-12_15h32.20.910,jersey_experiment_5,2023.2.2,Win32,85.47008547,,,,,,,,,,,,,,,,594.4257,595.7195,595.7195,597.8137,return,1.0501,,79.55729167,,,,,,FBP-RB-17.png,0.45,1.2,20,0.5,,,,,,,,,,,,,0,15,15,19,1,,,,,,,,,,,,,,,,,,,,,,,,,,,,
,,,,,WIN24_056,19,Female,2024-02-12_15h32.20.910,jersey_experiment_5,2023.2.2,Win32,85.47008547,,,,,,,,,,,,,,,,597.814,599.6138,599.6138,600.8844,return,0.4761,,59.375,,,,,,FBP-OG-91.png,0.43,1.2,14,1,,,,,,,,,,,,,0,16,16,13,1,,,,,,,,,,,,,,,,,,,,,,,,,,,,
,,,,,WIN24_056,19,Female,2024-02-12_15h32.20.910,jersey_experiment_5,2023.2.2,Win32,85.47008547,,,,,,,,,,,,,,,,600.8846,602.1787,602.1787,603.426,return,0.4919,,29.81770833,,,,,,FBP-RB-18.png,0.4,1.2,23,0.5,,,,,,,,,,,,,0,17,17,22,1,,,,,,,,,,,,,,,,,,,,,,,,,,,,
,,,,,WIN24_056,19,Female,2024-02-12_15h32.20.910,jersey_experiment_5,2023.2.2,Win32,85.47008547,,,,,,,,,,,,,,,,603.4262,604.7199,604.7199,606.7317,return,0.918,,76.5625,,,,,,FBP-YG-81.png,0.43,1.2,39,0.5,,,,,,,,,,,,,0,18,18,38,1,,,,,,,,,,,,,,,,,,,,,,,,,,,,
,,,,,WIN24_056,19,Female,2024-02-12_15h32.20.910,jersey_experiment_5,2023.2.2,Win32,85.47008547,,,,,,,,,,,,,,,,606.7319,608.5319,608.5319,609.9318,return,0.4565,,59.63541667,,,,,,FBP-PT-19.png,0.4,1.2,58,1,,,,,,,,,,,,,0,19,19,57,1,,,,,,,,,,,,,,,,,,,,,,,,,,,,
,,,,,WIN24_056,19,Female,2024-02-12_15h32.20.910,jersey_experiment_5,2023.2.2,Win32,85.47008547,,,,,,,,,,,,,,,,609.932,611.7322,611.7322,612.4731,return,0.4724,,32.29166667,,,,,,FBP-OG-91.png,0.35,1.2,11,1,,,,,,,,,,,,,0,20,20,10,1,,,,,,,,,,,,,,,,,,,,,,,,,,,,
,,,,,WIN24_056,19,Female,2024-02-12_15h32.20.910,jersey_experiment_5,2023.2.2,Win32,85.47008547,,,,,,,,,,,,,,,,612.4734,613.7674,613.7674,614.9087,return,0.4846,,87.5,,,,,,FBP-YG-91.png,0.43,1.2,44,0.5,,,,,,,,,,,,,0,21,21,43,1,,,,,,,,,,,,,,,,,,,,,,,,,,,,
,,,,,WIN24_056,19,Female,2024-02-12_15h32.20.910,jersey_experiment_5,2023.2.2,Win32,85.47008547,,,,,,,,,,,,,,,,614.9088,616.7085,616.7085,617.9439,return,0.4237,,75.65104167,,,,,,FBP-PT-17.png,0.4,1.2,48,1,,,,,,,,,,,,,0,22,22,47,1,,,,,,,,,,,,,,,,,,,,,,,,,,,,
,,,,,WIN24_056,19,Female,2024-02-12_15h32.20.910,jersey_experiment_5,2023.2.2,Win32,85.47008547,,,,,,,,,,,,,,,,617.9441,619.238,619.238,620.8853,return,0.7937,,90.234375,,,,,,FBP-YG-71.png,0.4,1.2,33,0.5,,,,,,,,,,,,,0,23,23,32,1,,,,,,,,,,,,,,,,,,,,,,,,,,,,
,,,,,WIN24_056,19,Female,2024-02-12_15h32.20.910,jersey_experiment_5,2023.2.2,Win32,85.47008547,,,,,,,,,,,,,,,,620.8855,622.1797,622.1797,623.1323,return,0.4708,,88.41145833,,,,,,FBP-RB-17.png,0.43,1.2,19,0.5,,,,,,,,,,,,,0,24,24,18,1,,,,,,,,,,,,,,,,,,,,,,,,,,,,
,,,,,WIN24_056,19,Female,2024-02-12_15h32.20.910,jersey_experiment_5,2023.2.2,Win32,85.47008547,,,,,,,,,,,,,,,,623.1326,624.9324,624.9325,626.2031,return,0.4852,,93.09895833,,,,,,FBP-OG-91.png,0.45,1.2,15,1,,,,,,,,,,,,,0,25,25,14,1,,,,,,,,,,,,,,,,,,,,,,,,,,,,
,,,,,WIN24_056,19,Female,2024-02-12_15h32.20.910,jersey_experiment_5,2023.2.2,Win32,85.47008547,,,,,,,,,,,,,,,,626.2035,627.4973,627.4974,628.6502,return,0.4606,,54.03645833,,,,,,FBP-YG-91.png,0.4,1.2,43,0.5,,,,,,,,,,,,,0,26,26,42,1,,,,,,,,,,,,,,,,,,,,,,,,,,,,
,,,,,WIN24_056,19,Female,2024-02-12_15h32.20.910,jersey_experiment_5,2023.2.2,Win32,85.47008547,,,,,,,,,,,,,,,,628.6504,630.4502,630.4502,631.4268,return,0.4436,,38.02083333,,,,,,FBP-PT-19.png,0.37,1.2,57,1,,,,,,,,,,,,,0,27,27,56,1,,,,,,,,,,,,,,,,,,,,,,,,,,,,
,,,,,WIN24_056,19,Female,2024-02-12_15h32.20.910,jersey_experiment_5,2023.2.2,Win32,85.47008547,,,,,,,,,,,,,,,,631.427,632.721,632.721,633.827,return,0.4533,,26.5625,,,,,,FBP-YG-81.png,0.35,1.2,36,0.5,,,,,,,,,,,,,0,28,28,35,1,,,,,,,,,,,,,,,,,,,,,,,,,,,,
,,,,,WIN24_056,19,Female,2024-02-12_15h32.20.910,jersey_experiment_5,2023.2.2,Win32,85.47008547,,,,,,,,,,,,,,,,633.8271,635.121,635.121,636.0386,return,0.4255,,19.79166667,,,,,,FBP-YG-71.png,0.37,1.2,32,0.5,,,,,,,,,,,,,0,29,29,31,1,,,,,,,,,,,,,,,,,,,,,,,,,,,,
,,,,,WIN24_056,19,Female,2024-02-12_15h32.20.910,jersey_experiment_5,2023.2.2,Win32,85.47008547,,,,,,,,,,,,,,,,636.0388,637.8388,637.8388,638.78,return,0.4235,,68.75,,,,,,FBP-OG-81.png,0.45,1.2,10,1,,,,,,,,,,,,,0,30,30,9,1,,,,,,,,,,,,,,,,,,,,,,,,,,,,
,,,,,WIN24_056,19,Female,2024-02-12_15h32.20.910,jersey_experiment_5,2023.2.2,Win32,85.47008547,,,,,,,,,,,,,,,,638.7801,640.5803,640.5803,641.2976,return,0.574,,91.14583333,,,,,,FBP-PT-19.png,0.43,1.2,59,1,,,,,,,,,,,,,0,31,31,58,1,,,,,,,,,,,,,,,,,,,,,,,,,,,,
,,,,,WIN24_056,19,Female,2024-02-12_15h32.20.910,jersey_experiment_5,2023.2.2,Win32,85.47008547,,,,,,,,,,,,,,,,641.2978,642.5919,642.592,644.1683,return,0.4261,,97.265625,,,,,,FBP-YG-71.png,0.43,1.2,34,0.5,,,,,,,,,,,,,0,32,32,33,1,,,,,,,,,,,,,,,,,,,,,,,,,,,,
,,,,,WIN24_056,19,Female,2024-02-12_15h32.20.910,jersey_experiment_5,2023.2.2,Win32,85.47008547,,,,,,,,,,,,,,,,644.1686,645.4629,645.4629,648.1803,return,2.2158,,99.47916667,,,,,,FBP-RB-19.png,0.45,1.2,30,0.5,,,,,,,,,,,,,0,33,33,29,1,,,,,,,,,,,,,,,,,,,,,,,,,,,,
,,,,,WIN24_056,19,Female,2024-02-12_15h32.20.910,jersey_experiment_5,2023.2.2,Win32,85.47008547,,,,,,,,,,,,,,,,648.1806,649.9805,649.9805,651.1567,return,0.4764,,25.78125,,,,,,FBP-PT-17.png,0.37,1.2,47,1,,,,,,,,,,,,,0,34,34,46,1,,,,,,,,,,,,,,,,,,,,,,,,,,,,
,,,,,WIN24_056,19,Female,2024-02-12_15h32.20.910,jersey_experiment_5,2023.2.2,Win32,85.47008547,,,,,,,,,,,,,,,,651.157,652.9569,652.957,655.0276,return,0.7251,,45.57291667,,,,,,FBP-OG-71.png,0.4,1.2,3,1,,,,,,,,,,,,,0,35,35,2,1,,,,,,,,,,,,,,,,,,,,,,,,,,,,
,,,,,WIN24_056,19,Female,2024-02-12_15h32.20.910,jersey_experiment_5,2023.2.2,Win32,85.47008547,,,,,,,,,,,,,,,,655.0279,656.8279,656.8279,657.6866,return,0.4728,,60.9375,,,,,,FBP-PT-17.png,0.43,1.2,49,1,,,,,,,,,,,,,0,36,36,48,1,,,,,,,,,,,,,,,,,,,,,,,,,,,,
,,,,,WIN24_056,19,Female,2024-02-12_15h32.20.910,jersey_experiment_5,2023.2.2,Win32,85.47008547,,,,,,,,,,,,,,,,657.6868,659.4866,659.4866,660.2749,return,0.4765,,61.71875,,,,,,FBP-OG-71.png,0.43,1.2,4,1,,,,,,,,,,,,,0,37,37,3,1,,,,,,,,,,,,,,,,,,,,,,,,,,,,
,,,,,WIN24_056,19,Female,2024-02-12_15h32.20.910,jersey_experiment_5,2023.2.2,Win32,85.47008547,,,,,,,,,,,,,,,,660.2751,661.5693,661.5693,662.8397,return,0.556,,32.16145833,,,,,,FBP-YG-91.png,0.35,1.2,41,0.5,,,,,,,,,,,,,0,38,38,40,1,,,,,,,,,,,,,,,,,,,,,,,,,,,,
,,,,,WIN24_056,19,Female,2024-02-12_15h32.20.910,jersey_experiment_5,2023.2.2,Win32,85.47008547,,,,,,,,,,,,,,,,662.84,664.1341,664.1341,664.9691,return,0.4576,,42.1875,,,,,,FBP-RB-17.png,0.37,1.2,17,0.5,,,,,,,,,,,,,0,39,39,16,1,,,,,,,,,,,,,,,,,,,,,,,,,,,,
,,,,,WIN24_056,19,Female,2024-02-12_15h32.20.910,jersey_experiment_5,2023.2.2,Win32,85.47008547,,,,,,,,,,,,,,,,664.9693,666.7695,666.7695,667.4751,return,0.4898,,56.51041667,,,,,,FBP-PT-18.png,0.43,1.2,54,1,,,,,,,,,,,,,0,40,40,53,1,,,,,,,,,,,,,,,,,,,,,,,,,,,,
,,,,,WIN24_056,19,Female,2024-02-12_15h32.20.910,jersey_experiment_5,2023.2.2,Win32,85.47008547,,,,,,,,,,,,,,,,667.4753,668.7694,668.7695,669.8164,return,0.4826,,48.4375,,,,,,FBP-YG-81.png,0.4,1.2,38,0.5,,,,,,,,,,,,,0,41,41,37,1,,,,,,,,,,,,,,,,,,,,,,,,,,,,
,,,,,WIN24_056,19,Female,2024-02-12_15h32.20.910,jersey_experiment_5,2023.2.2,Win32,85.47008547,,,,,,,,,,,,,,,,669.8165,671.6167,671.6167,672.3811,return,0.4707,,29.81770833,,,,,,FBP-PT-17.png,0.35,1.2,46,1,,,,,,,,,,,,,0,42,42,45,1,,,,,,,,,,,,,,,,,,,,,,,,,,,,
,,,,,WIN24_056,19,Female,2024-02-12_15h32.20.910,jersey_experiment_5,2023.2.2,Win32,85.47008547,,,,,,,,,,,,,,,,672.3812,674.1812,674.1813,675.3342,return,0.4734,,50.390625,,,,,,FBP-OG-91.png,0.4,1.2,13,1,,,,,,,,,,,,,0,43,43,12,1,,,,,,,,,,,,,,,,,,,,,,,,,,,,
,,,,,WIN24_056,19,Female,2024-02-12_15h32.20.910,jersey_experiment_5,2023.2.2,Win32,85.47008547,,,,,,,,,,,,,,,,675.3343,677.1342,677.1342,678.2049,return,0.4236,,38.80208333,,,,,,FBP-OG-81.png,0.35,1.2,6,1,,,,,,,,,,,,,0,44,44,5,1,,,,,,,,,,,,,,,,,,,,,,,,,,,,
,,,,,WIN24_056,19,Female,2024-02-12_15h32.20.910,jersey_experiment_5,2023.2.2,Win32,85.47008547,,,,,,,,,,,,,,,,678.2051,680.0049,680.005,681.2991,return,0.525,,67.1875,,,,,,FBP-OG-71.png,0.45,1.2,5,1,,,,,,,,,,,,,0,45,45,4,1,,,,,,,,,,,,,,,,,,,,,,,,,,,,
,,,,,WIN24_056,19,Female,2024-02-12_15h32.20.910,jersey_experiment_5,2023.2.2,Win32,85.47008547,,,,,,,,,,,,,,,,681.2994,683.0992,683.0992,683.8993,return,0.579,,56.11979167,,,,,,FBP-OG-81.png,0.37,1.2,7,1,,,,,,,,,,,,,0,46,46,6,1,,,,,,,,,,,,,,,,,,,,,,,,,,,,
,,,,,WIN24_056,19,Female,2024-02-12_15h32.20.910,jersey_experiment_5,2023.2.2,Win32,85.47008547,,,,,,,,,,,,,,,,683.8995,685.6994,685.6995,686.7464,return,0.4937,,89.71354167,,,,,,FBP-PT-19.png,0.45,1.2,60,1,,,,,,,,,,,,,0,47,47,59,1,,,,,,,,,,,,,,,,,,,,,,,,,,,,
,,,,,WIN24_056,19,Female,2024-02-12_15h32.20.910,jersey_experiment_5,2023.2.2,Win32,85.47008547,,,,,,,,,,,,,,,,686.7467,688.0406,688.0406,689.1583,return,0.5224,,95.44270833,,,,,,FBP-YG-91.png,0.45,1.2,45,0.5,,,,,,,,,,,,,0,48,48,44,1,,,,,,,,,,,,,,,,,,,,,,,,,,,,
,,,,,WIN24_056,19,Female,2024-02-12_15h32.20.910,jersey_experiment_5,2023.2.2,Win32,85.47008547,,,,,,,,,,,,,,,,689.1585,690.9586,690.9586,691.9113,return,0.4507,,25.390625,,,,,,FBP-OG-71.png,0.35,1.2,1,1,,,,,,,,,,,,,0,49,49,0,1,,,,,,,,,,,,,,,,,,,,,,,,,,,,
,,,,,WIN24_056,19,Female,2024-02-12_15h32.20.910,jersey_experiment_5,2023.2.2,Win32,85.47008547,,,,,,,,,,,,,,,,691.9115,693.7114,693.7114,695.1938,return,0.4472,,14.19270833,,,,,,FBP-PT-18.png,0.35,1.2,51,1,,,,,,,,,,,,,0,50,50,50,1,,,,,,,,,,,,,,,,,,,,,,,,,,,,
,,,,,WIN24_056,19,Female,2024-02-12_15h32.20.910,jersey_experiment_5,2023.2.2,Win32,85.47008547,,,,,,,,,,,,,,,,695.194,696.9938,696.9938,698.1938,return,0.8426,,21.74479167,,,,,,FBP-OG-81.png,0.4,1.2,8,1,,,,,,,,,,,,,0,51,51,7,1,,,,,,,,,,,,,,,,,,,,,,,,,,,,
,,,,,WIN24_056,19,Female,2024-02-12_15h32.20.910,jersey_experiment_5,2023.2.2,Win32,85.47008547,,,,,,,,,,,,,,,,698.194,699.488,699.488,700.4997,return,0.4402,,25.52083333,,,,,,FBP-RB-18.png,0.35,1.2,21,0.5,,,,,,,,,,,,,0,52,52,20,1,,,,,,,,,,,,,,,,,,,,,,,,,,,,
,,,,,WIN24_056,19,Female,2024-02-12_15h32.20.910,jersey_experiment_5,2023.2.2,Win32,85.47008547,,,,,,,,,,,,,,,,700.4999,701.794,701.794,703.4294,return,0.6146,,81.90104167,,,,,,FBP-RB-19.png,0.4,1.2,28,0.5,,,,,,,,,,,,,0,53,53,27,1,,,,,,,,,,,,,,,,,,,,,,,,,,,,
,,,,,WIN24_056,19,Female,2024-02-12_15h32.20.910,jersey_experiment_5,2023.2.2,Win32,85.47008547,,,,,,,,,,,,,,,,703.4296,704.7238,704.7238,705.6765,return,0.4711,,90.75520833,,,,,,FBP-YG-81.png,0.45,1.2,40,0.5,,,,,,,,,,,,,0,54,54,39,1,,,,,,,,,,,,,,,,,,,,,,,,,,,,
,,,,,WIN24_056,19,Female,2024-02-12_15h32.20.910,jersey_experiment_5,2023.2.2,Win32,85.47008547,,,,,,,,,,,,,,,,705.6767,707.4766,707.4766,708.8531,return,0.8764,,97.52604167,,,,,,FBP-PT-17.png,0.45,1.2,50,1,,,,,,,,,,,,,0,55,55,49,1,,,,,,,,,,,,,,,,,,,,,,,,,,,,
,,,,,WIN24_056,19,Female,2024-02-12_15h32.20.910,jersey_experiment_5,2023.2.2,Win32,85.47008547,,,,,,,,,,,,,,,,708.8533,710.1473,710.1473,711.559,return,0.4745,,99.73958333,,,,,,FBP-RB-18.png,0.45,1.2,25,0.5,,,,,,,,,,,,,0,56,56,24,1,,,,,,,,,,,,,,,,,,,,,,,,,,,,
,,,,,WIN24_056,19,Female,2024-02-12_15h32.20.910,jersey_experiment_5,2023.2.2,Win32,85.47008547,,,,,,,,,,,,,,,,711.5593,712.8532,712.8532,714.0062,return,0.7435,,91.53645833,,,,,,FBP-RB-18.png,0.43,1.2,24,0.5,,,,,,,,,,,,,0,57,57,23,1,,,,,,,,,,,,,,,,,,,,,,,,,,,,
,,,,,WIN24_056,19,Female,2024-02-12_15h32.20.910,jersey_experiment_5,2023.2.2,Win32,85.47008547,,,,,,,,,,,,,,,,714.0063,715.8063,715.8063,716.724,return,0.4892,,72.00520833,,,,,,FBP-PT-18.png,0.4,1.2,53,1,,,,,,,,,,,,,0,58,58,52,1,,,,,,,,,,,,,,,,,,,,,,,,,,,,
,,,,,WIN24_056,19,Female,2024-02-12_15h32.20.910,jersey_experiment_5,2023.2.2,Win32,85.47008547,,,,,,,,,,,,,,,,716.7241,718.0181,718.0181,719.2418,return,0.5088,,62.890625,,,,,,FBP-RB-19.png,0.37,1.2,27,0.5,,,,,,,,,,,,,0,59,59,26,1,,,,,,,,,,,,,,,,,,,,,,,,,,,,
,,,,,WIN24_056,19,Female,2024-02-12_15h32.20.910,jersey_experiment_5,2023.2.2,Win32,85.47008547,,,,,,,,,,,,,,,,719.2433,721.0417,721.0417,721.8301,return,0.4637,,54.03645833,,,,,,FBP-OG-19.png,0.4,1.2,13,1,,,,,,,,,,,,,,,,,,0,0,0,12,1,,,,,,,,,,,,,,,,,,,,,,,
,,,,,WIN24_056,19,Female,2024-02-12_15h32.20.910,jersey_experiment_5,2023.2.2,Win32,85.47008547,,,,,,,,,,,,,,,,721.8304,723.6301,723.6301,724.4183,return,0.5233,,36.328125,,,,,,FBP-OG-19.png,0.35,1.2,11,1,,,,,,,,,,,,,,,,,,0,1,1,10,1,,,,,,,,,,,,,,,,,,,,,,,
,,,,,WIN24_056,19,Female,2024-02-12_15h32.20.910,jersey_experiment_5,2023.2.2,Win32,85.47008547,,,,,,,,,,,,,,,,724.4185,726.2184,726.2184,727.3714,return,0.6918,,43.22916667,,,,,,FBP-PT-71.png,0.37,1.2,47,1,,,,,,,,,,,,,,,,,,0,2,2,46,1,,,,,,,,,,,,,,,,,,,,,,,
,,,,,WIN24_056,19,Female,2024-02-12_15h32.20.910,jersey_experiment_5,2023.2.2,Win32,85.47008547,,,,,,,,,,,,,,,,727.3716,729.1717,729.1717,729.9481,return,0.496,,72.265625,,,,,,FBP-PT-91.png,0.45,1.2,60,1,,,,,,,,,,,,,,,,,,0,3,3,59,1,,,,,,,,,,,,,,,,,,,,,,,
,,,,,WIN24_056,19,Female,2024-02-12_15h32.20.910,jersey_experiment_5,2023.2.2,Win32,85.47008547,,,,,,,,,,,,,,,,729.9483,731.7485,731.7485,732.854,return,0.4991,,64.97395833,,,,,,FBP-PT-71.png,0.4,1.2,48,1,,,,,,,,,,,,,,,,,,0,4,4,47,1,,,,,,,,,,,,,,,,,,,,,,,
,,,,,WIN24_056,19,Female,2024-02-12_15h32.20.910,jersey_experiment_5,2023.2.2,Win32,85.47008547,,,,,,,,,,,,,,,,732.8541,734.148,734.148,735.7953,return,0.8637,,50.52083333,,,,,,FBP-YG-19.png,0.37,1.2,42,0.5,,,,,,,,,,,,,,,,,,0,5,5,41,1,,,,,,,,,,,,,,,,,,,,,,,
,,,,,WIN24_056,19,Female,2024-02-12_15h32.20.910,jersey_experiment_5,2023.2.2,Win32,85.47008547,,,,,,,,,,,,,,,,735.7954,737.0894,737.0894,739.2189,return,1.714,,51.43229167,,,,,,FBP-RB-81.png,0.37,1.2,22,0.5,,,,,,,,,,,,,,,,,,0,6,6,21,1,,,,,,,,,,,,,,,,,,,,,,,
,,,,,WIN24_056,19,Female,2024-02-12_15h32.20.910,jersey_experiment_5,2023.2.2,Win32,85.47008547,,,,,,,,,,,,,,,,739.2191,740.5131,740.5131,742.066,return,0.4675,,97.13541667,,,,,,FBP-YG-17.png,0.43,1.2,34,0.5,,,,,,,,,,,,,,,,,,0,7,7,33,1,,,,,,,,,,,,,,,,,,,,,,,
,,,,,WIN24_056,19,Female,2024-02-12_15h32.20.910,jersey_experiment_5,2023.2.2,Win32,85.47008547,,,,,,,,,,,,,,,,742.0662,743.8662,743.8663,745.2427,return,0.5426,,97.78645833,,,,,,FBP-PT-71.png,0.43,1.2,49,1,,,,,,,,,,,,,,,,,,0,8,8,48,1,,,,,,,,,,,,,,,,,,,,,,,
,,,,,WIN24_056,19,Female,2024-02-12_15h32.20.910,jersey_experiment_5,2023.2.2,Win32,85.47008547,,,,,,,,,,,,,,,,745.2429,746.5368,746.5368,748.231,return,0.5565,,99.86979167,,,,,,FBP-RB-91.png,0.45,1.2,30,0.5,,,,,,,,,,,,,,,,,,0,9,9,29,1,,,,,,,,,,,,,,,,,,,,,,,
,,,,,WIN24_056,19,Female,2024-02-12_15h32.20.910,jersey_experiment_5,2023.2.2,Win32,85.47008547,,,,,,,,,,,,,,,,748.2312,750.0311,750.0312,751.1134,return,0.4347,,5.208333333,,,,,,FBP-PT-81.png,0.35,1.2,51,1,,,,,,,,,,,,,,,,,,0,10,10,50,1,,,,,,,,,,,,,,,,,,,,,,,
,,,,,WIN24_056,19,Female,2024-02-12_15h32.20.910,jersey_experiment_5,2023.2.2,Win32,85.47008547,,,,,,,,,,,,,,,,751.1136,752.4077,752.4077,753.8312,return,0.7683,,63.28125,,,,,,FBP-RB-81.png,0.43,1.2,24,0.5,,,,,,,,,,,,,,,,,,0,11,11,23,1,,,,,,,,,,,,,,,,,,,,,,,
,,,,,WIN24_056,19,Female,2024-02-12_15h32.20.910,jersey_experiment_5,2023.2.2,Win32,85.47008547,,,,,,,,,,,,,,,,753.8314,755.1254,755.1254,756.4666,return,0.8532,,78.25520833,,,,,,FBP-YG-18.png,0.43,1.2,39,0.5,,,,,,,,,,,,,,,,,,0,12,12,38,1,,,,,,,,,,,,,,,,,,,,,,,
,,,,,WIN24_056,19,Female,2024-02-12_15h32.20.910,jersey_experiment_5,2023.2.2,Win32,85.47008547,,,,,,,,,,,,,,,,756.4668,757.7606,757.7607,758.8667,return,0.4436,,87.36979167,,,,,,FBP-RB-71.png,0.45,1.2,20,0.5,,,,,,,,,,,,,,,,,,0,13,13,19,1,,,,,,,,,,,,,,,,,,,,,,,
,,,,,WIN24_056,19,Female,2024-02-12_15h32.20.910,jersey_experiment_5,2023.2.2,Win32,85.47008547,,,,,,,,,,,,,,,,758.8669,760.6666,760.6667,763.349,return,2.1093,,75.390625,,,,,,FBP-PT-81.png,0.43,1.2,54,1,,,,,,,,,,,,,,,,,,0,14,14,53,1,,,,,,,,,,,,,,,,,,,,,,,
,,,,,WIN24_056,19,Female,2024-02-12_15h32.20.910,jersey_experiment_5,2023.2.2,Win32,85.47008547,,,,,,,,,,,,,,,,763.3492,764.6433,764.6433,766.5847,return,1.1289,,25.52083333,,,,,,FBP-YG-17.png,0.35,1.2,31,0.5,,,,,,,,,,,,,,,,,,0,15,15,30,1,,,,,,,,,,,,,,,,,,,,,,,
,,,,,WIN24_056,19,Female,2024-02-12_15h32.20.910,jersey_experiment_5,2023.2.2,Win32,85.47008547,,,,,,,,,,,,,,,,766.5849,768.3846,768.3847,769.9729,return,0.6996,,39.453125,,,,,,FBP-PT-81.png,0.4,1.2,53,1,,,,,,,,,,,,,,,,,,0,16,16,52,1,,,,,,,,,,,,,,,,,,,,,,,
,,,,,WIN24_056,19,Female,2024-02-12_15h32.20.910,jersey_experiment_5,2023.2.2,Win32,85.47008547,,,,,,,,,,,,,,,,769.9732,771.2671,771.2672,773.4671,return,1.233,,22.39583333,,,,,,FBP-YG-18.png,0.35,1.2,36,0.5,,,,,,,,,,,,,,,,,,0,17,17,35,1,,,,,,,,,,,,,,,,,,,,,,,
,,,,,WIN24_056,19,Female,2024-02-12_15h32.20.910,jersey_experiment_5,2023.2.2,Win32,85.47008547,,,,,,,,,,,,,,,,773.4673,774.7612,774.7613,776.2673,return,0.4336,,39.58333333,,,,,,FBP-YG-18.png,0.37,1.2,37,0.5,,,,,,,,,,,,,,,,,,0,18,18,36,1,,,,,,,,,,,,,,,,,,,,,,,
,,,,,WIN24_056,19,Female,2024-02-12_15h32.20.910,jersey_experiment_5,2023.2.2,Win32,85.47008547,,,,,,,,,,,,,,,,776.2676,777.5614,777.5614,778.6909,return,0.4407,,49.47916667,,,,,,FBP-YG-19.png,0.4,1.2,43,0.5,,,,,,,,,,,,,,,,,,0,19,19,42,1,,,,,,,,,,,,,,,,,,,,,,,
,,,,,WIN24_056,19,Female,2024-02-12_15h32.20.910,jersey_experiment_5,2023.2.2,Win32,85.47008547,,,,,,,,,,,,,,,,778.6909,780.4909,780.4909,781.5145,return,0.4571,,39.453125,,,,,,FBP-PT-91.png,0.35,1.2,56,1,,,,,,,,,,,,,,,,,,0,20,20,55,1,,,,,,,,,,,,,,,,,,,,,,,
,,,,,WIN24_056,19,Female,2024-02-12_15h32.20.910,jersey_experiment_5,2023.2.2,Win32,85.47008547,,,,,,,,,,,,,,,,781.5146,782.8086,782.8086,783.9146,return,0.4572,,64.453125,,,,,,FBP-RB-91.png,0.37,1.2,27,0.5,,,,,,,,,,,,,,,,,,0,21,21,26,1,,,,,,,,,,,,,,,,,,,,,,,
,,,,,WIN24_056,19,Female,2024-02-12_15h32.20.910,jersey_experiment_5,2023.2.2,Win32,85.47008547,,,,,,,,,,,,,,,,783.9148,785.2088,785.2088,786.3617,return,0.4343,,35.67708333,,,,,,FBP-RB-71.png,0.37,1.2,17,0.5,,,,,,,,,,,,,,,,,,0,22,22,16,1,,,,,,,,,,,,,,,,,,,,,,,
,,,,,WIN24_056,19,Female,2024-02-12_15h32.20.910,jersey_experiment_5,2023.2.2,Win32,85.47008547,,,,,,,,,,,,,,,,786.3619,787.6561,787.6561,788.6324,return,0.4481,,79.81770833,,,,,,FBP-RB-91.png,0.4,1.2,28,0.5,,,,,,,,,,,,,,,,,,0,23,23,27,1,,,,,,,,,,,,,,,,,,,,,,,
,,,,,WIN24_056,19,Female,2024-02-12_15h32.20.910,jersey_experiment_5,2023.2.2,Win32,85.47008547,,,,,,,,,,,,,,,,788.6327,790.4325,790.4325,791.2207,return,0.4267,,88.02083333,,,,,,FBP-OG-17.png,0.43,1.2,4,1,,,,,,,,,,,,,,,,,,0,24,24,3,1,,,,,,,,,,,,,,,,,,,,,,,
,,,,,WIN24_056,19,Female,2024-02-12_15h32.20.910,jersey_experiment_5,2023.2.2,Win32,85.47008547,,,,,,,,,,,,,,,,791.2209,792.5149,792.5149,793.609,return,0.4489,,63.15104167,,,,,,FBP-RB-81.png,0.35,1.2,21,0.5,,,,,,,,,,,,,,,,,,0,25,25,20,1,,,,,,,,,,,,,,,,,,,,,,,
,,,,,WIN24_056,19,Female,2024-02-12_15h32.20.910,jersey_experiment_5,2023.2.2,Win32,85.47008547,,,,,,,,,,,,,,,,793.6092,794.9032,794.9033,795.9738,return,0.6751,,72.265625,,,,,,FBP-YG-18.png,0.4,1.2,38,0.5,,,,,,,,,,,,,,,,,,0,26,26,37,1,,,,,,,,,,,,,,,,,,,,,,,
,,,,,WIN24_056,19,Female,2024-02-12_15h32.20.910,jersey_experiment_5,2023.2.2,Win32,85.47008547,,,,,,,,,,,,,,,,795.9739,797.7739,797.7739,798.6916,return,0.4069,,55.20833333,,,,,,FBP-PT-81.png,0.37,1.2,52,1,,,,,,,,,,,,,,,,,,0,27,27,51,1,,,,,,,,,,,,,,,,,,,,,,,
,,,,,WIN24_056,19,Female,2024-02-12_15h32.20.910,jersey_experiment_5,2023.2.2,Win32,85.47008547,,,,,,,,,,,,,,,,798.6919,800.4918,800.4918,801.5269,return,0.496,,98.69791667,,,,,,FBP-OG-18.png,0.45,1.2,10,1,,,,,,,,,,,,,,,,,,0,28,28,9,1,,,,,,,,,,,,,,,,,,,,,,,
,,,,,WIN24_056,19,Female,2024-02-12_15h32.20.910,jersey_experiment_5,2023.2.2,Win32,85.47008547,,,,,,,,,,,,,,,,801.5271,803.3271,803.3271,804.3388,return,0.441,,85.15625,,,,,,FBP-OG-19.png,0.43,1.2,14,1,,,,,,,,,,,,,,,,,,0,29,29,13,1,,,,,,,,,,,,,,,,,,,,,,,
,,,,,WIN24_056,19,Female,2024-02-12_15h32.20.910,jersey_experiment_5,2023.2.2,Win32,85.47008547,,,,,,,,,,,,,,,,804.339,805.633,805.633,806.7859,return,0.3941,,91.53645833,,,,,,FBP-RB-71.png,0.4,1.2,18,0.5,,,,,,,,,,,,,,,,,,0,30,30,17,1,,,,,,,,,,,,,,,,,,,,,,,
,,,,,WIN24_056,19,Female,2024-02-12_15h32.20.910,jersey_experiment_5,2023.2.2,Win32,85.47008547,,,,,,,,,,,,,,,,806.7861,808.5861,808.5862,809.4802,return,0.4954,,74.73958333,,,,,,FBP-OG-18.png,0.4,1.2,8,1,,,,,,,,,,,,,,,,,,0,31,31,7,1,,,,,,,,,,,,,,,,,,,,,,,
,,,,,WIN24_056,19,Female,2024-02-12_15h32.20.910,jersey_experiment_5,2023.2.2,Win32,85.47008547,,,,,,,,,,,,,,,,809.4805,810.7745,810.7745,812.1509,return,0.8506,,92.83854167,,,,,,FBP-RB-91.png,0.43,1.2,29,0.5,,,,,,,,,,,,,,,,,,0,32,32,28,1,,,,,,,,,,,,,,,,,,,,,,,
,,,,,WIN24_056,19,Female,2024-02-12_15h32.20.910,jersey_experiment_5,2023.2.2,Win32,85.47008547,,,,,,,,,,,,,,,,812.1511,813.445,813.445,814.3392,return,0.4547,,97.52604167,,,,,,FBP-YG-17.png,0.45,1.2,35,0.5,,,,,,,,,,,,,,,,,,0,33,33,34,1,,,,,,,,,,,,,,,,,,,,,,,
,,,,,WIN24_056,19,Female,2024-02-12_15h32.20.910,jersey_experiment_5,2023.2.2,Win32,85.47008547,,,,,,,,,,,,,,,,814.3395,816.1393,816.1393,816.904,return,0.601,,83.984375,,,,,,FBP-OG-17.png,0.37,1.2,2,1,,,,,,,,,,,,,,,,,,0,34,34,1,1,,,,,,,,,,,,,,,,,,,,,,,
,,,,,WIN24_056,19,Female,2024-02-12_15h32.20.910,jersey_experiment_5,2023.2.2,Win32,85.47008547,,,,,,,,,,,,,,,,816.9042,818.7042,818.7042,819.5159,return,0.5178,,70.83333333,,,,,,FBP-OG-17.png,0.35,1.2,1,1,,,,,,,,,,,,,,,,,,0,35,35,0,1,,,,,,,,,,,,,,,,,,,,,,,
,,,,,WIN24_056,19,Female,2024-02-12_15h32.20.910,jersey_experiment_5,2023.2.2,Win32,85.47008547,,,,,,,,,,,,,,,,819.5161,821.3162,821.3162,822.3278,return,0.4384,,91.53645833,,,,,,FBP-PT-91.png,0.43,1.2,59,1,,,,,,,,,,,,,,,,,,0,36,36,58,1,,,,,,,,,,,,,,,,,,,,,,,
,,,,,WIN24_056,19,Female,2024-02-12_15h32.20.910,jersey_experiment_5,2023.2.2,Win32,85.47008547,,,,,,,,,,,,,,,,822.328,824.1276,824.1277,825.2571,return,0.5287,,96.35416667,,,,,,FBP-OG-19.png,0.45,1.2,15,1,,,,,,,,,,,,,,,,,,0,37,37,14,1,,,,,,,,,,,,,,,,,,,,,,,
,,,,,WIN24_056,19,Female,2024-02-12_15h32.20.910,jersey_experiment_5,2023.2.2,Win32,85.47008547,,,,,,,,,,,,,,,,825.2574,826.5514,826.5515,828.6455,return,0.65,,72.91666667,,,,,,FBP-YG-17.png,0.4,1.2,33,0.5,,,,,,,,,,,,,,,,,,0,38,38,32,1,,,,,,,,,,,,,,,,,,,,,,,
,,,,,WIN24_056,19,Female,2024-02-12_15h32.20.910,jersey_experiment_5,2023.2.2,Win32,85.47008547,,,,,,,,,,,,,,,,828.6457,829.94,829.94,831.2104,return,0.3399,,93.88020833,,,,,,FBP-RB-71.png,0.43,1.2,19,0.5,,,,,,,,,,,,,,,,,,0,39,39,18,1,,,,,,,,,,,,,,,,,,,,,,,
,,,,,WIN24_056,19,Female,2024-02-12_15h32.20.910,jersey_experiment_5,2023.2.2,Win32,85.47008547,,,,,,,,,,,,,,,,831.2106,832.5046,832.5046,833.8928,return,0.4766,,98.4375,,,,,,FBP-YG-19.png,0.45,1.2,45,0.5,,,,,,,,,,,,,,,,,,0,40,40,44,1,,,,,,,,,,,,,,,,,,,,,,,
,,,,,WIN24_056,19,Female,2024-02-12_15h32.20.910,jersey_experiment_5,2023.2.2,Win32,85.47008547,,,,,,,,,,,,,,,,833.8931,835.6932,835.6932,837.0813,return,0.7775,,40.625,,,,,,FBP-OG-18.png,0.35,1.2,6,1,,,,,,,,,,,,,,,,,,0,41,41,5,1,,,,,,,,,,,,,,,,,,,,,,,
,,,,,WIN24_056,19,Female,2024-02-12_15h32.20.910,jersey_experiment_5,2023.2.2,Win32,85.47008547,,,,,,,,,,,,,,,,837.0815,838.8813,838.8813,839.7402,return,0.5176,,55.078125,,,,,,FBP-PT-91.png,0.4,1.2,58,1,,,,,,,,,,,,,,,,,,0,42,42,57,1,,,,,,,,,,,,,,,,,,,,,,,
,,,,,WIN24_056,19,Female,2024-02-12_15h32.20.910,jersey_experiment_5,2023.2.2,Win32,85.47008547,,,,,,,,,,,,,,,,839.7404,841.5402,841.5402,842.3166,return,0.4236,,28.515625,,,,,,FBP-OG-19.png,0.37,1.2,12,1,,,,,,,,,,,,,,,,,,0,43,43,11,1,,,,,,,,,,,,,,,,,,,,,,,
,,,,,WIN24_056,19,Female,2024-02-12_15h32.20.910,jersey_experiment_5,2023.2.2,Win32,85.47008547,,,,,,,,,,,,,,,,842.3169,844.117,844.1171,844.8932,return,0.4235,,82.03125,,,,,,FBP-OG-17.png,0.45,1.2,5,1,,,,,,,,,,,,,,,,,,0,44,44,4,1,,,,,,,,,,,,,,,,,,,,,,,
,,,,,WIN24_056,19,Female,2024-02-12_15h32.20.910,jersey_experiment_5,2023.2.2,Win32,85.47008547,,,,,,,,,,,,,,,,844.8935,846.6934,846.6934,847.458,return,0.4299,,92.83854167,,,,,,FBP-OG-18.png,0.43,1.2,9,1,,,,,,,,,,,,,,,,,,0,45,45,8,1,,,,,,,,,,,,,,,,,,,,,,,
,,,,,WIN24_056,19,Female,2024-02-12_15h32.20.910,jersey_experiment_5,2023.2.2,Win32,85.47008547,,,,,,,,,,,,,,,,847.4581,848.7523,848.7523,849.67,return,0.3559,,99.73958333,,,,,,FBP-RB-81.png,0.45,1.2,25,0.5,,,,,,,,,,,,,,,,,,0,46,46,24,1,,,,,,,,,,,,,,,,,,,,,,,
,,,,,WIN24_056,19,Female,2024-02-12_15h32.20.910,jersey_experiment_5,2023.2.2,Win32,85.47008547,,,,,,,,,,,,,,,,849.6702,851.47,851.47,852.4582,return,0.5276,,52.60416667,,,,,,FBP-OG-18.png,0.37,1.2,7,1,,,,,,,,,,,,,,,,,,0,47,47,6,1,,,,,,,,,,,,,,,,,,,,,,,
,,,,,WIN24_056,19,Female,2024-02-12_15h32.20.910,jersey_experiment_5,2023.2.2,Win32,85.47008547,,,,,,,,,,,,,,,,852.4584,853.7523,853.7523,855.5406,return,0.6413,,53.64583333,,,,,,FBP-YG-19.png,0.35,1.2,41,0.5,,,,,,,,,,,,,,,,,,0,48,48,40,1,,,,,,,,,,,,,,,,,,,,,,,
,,,,,WIN24_056,19,Female,2024-02-12_15h32.20.910,jersey_experiment_5,2023.2.2,Win32,85.47008547,,,,,,,,,,,,,,,,855.5408,857.3408,857.3408,858.5409,return,0.6492,,78.77604167,,,,,,FBP-PT-71.png,0.45,1.2,50,1,,,,,,,,,,,,,,,,,,0,49,49,49,1,,,,,,,,,,,,,,,,,,,,,,,
,,,,,WIN24_056,19,Female,2024-02-12_15h32.20.910,jersey_experiment_5,2023.2.2,Win32,85.47008547,,,,,,,,,,,,,,,,858.5411,860.3409,860.3409,862.482,return,1.524,,82.03125,,,,,,FBP-PT-81.png,0.45,1.2,55,1,,,,,,,,,,,,,,,,,,0,50,50,54,1,,,,,,,,,,,,,,,,,,,,,,,
,,,,,WIN24_056,19,Female,2024-02-12_15h32.20.910,jersey_experiment_5,2023.2.2,Win32,85.47008547,,,,,,,,,,,,,,,,862.4823,864.2823,864.2823,866.1176,return,0.6846,,60.41666667,,,,,,FBP-OG-17.png,0.4,1.2,3,1,,,,,,,,,,,,,,,,,,0,51,51,2,1,,,,,,,,,,,,,,,,,,,,,,,
,,,,,WIN24_056,19,Female,2024-02-12_15h32.20.910,jersey_experiment_5,2023.2.2,Win32,85.47008547,,,,,,,,,,,,,,,,866.1177,867.4117,867.4118,868.3295,return,0.4142,,79.55729167,,,,,,FBP-YG-18.png,0.45,1.2,40,0.5,,,,,,,,,,,,,,,,,,0,52,52,39,1,,,,,,,,,,,,,,,,,,,,,,,
,,,,,WIN24_056,19,Female,2024-02-12_15h32.20.910,jersey_experiment_5,2023.2.2,Win32,85.47008547,,,,,,,,,,,,,,,,868.3297,869.6236,869.6237,871.0119,return,0.5927,,74.86979167,,,,,,FBP-RB-81.png,0.4,1.2,23,0.5,,,,,,,,,,,,,,,,,,0,53,53,22,1,,,,,,,,,,,,,,,,,,,,,,,
,,,,,WIN24_056,19,Female,2024-02-12_15h32.20.910,jersey_experiment_5,2023.2.2,Win32,85.47008547,,,,,,,,,,,,,,,,871.012,872.306,872.306,873.9414,return,0.7206,,38.41145833,,,,,,FBP-RB-71.png,0.35,1.2,16,0.5,,,,,,,,,,,,,,,,,,0,54,54,15,1,,,,,,,,,,,,,,,,,,,,,,,
,,,,,WIN24_056,19,Female,2024-02-12_15h32.20.910,jersey_experiment_5,2023.2.2,Win32,85.47008547,,,,,,,,,,,,,,,,873.9416,875.7414,875.7415,876.918,return,0.4403,,33.07291667,,,,,,FBP-PT-91.png,0.37,1.2,57,1,,,,,,,,,,,,,,,,,,0,55,55,56,1,,,,,,,,,,,,,,,,,,,,,,,
,,,,,WIN24_056,19,Female,2024-02-12_15h32.20.910,jersey_experiment_5,2023.2.2,Win32,85.47008547,,,,,,,,,,,,,,,,876.9182,878.718,878.718,879.7651,return,0.6391,,28.77604167,,,,,,FBP-PT-71.png,0.35,1.2,46,1,,,,,,,,,,,,,,,,,,0,56,56,45,1,,,,,,,,,,,,,,,,,,,,,,,
,,,,,WIN24_056,19,Female,2024-02-12_15h32.20.910,jersey_experiment_5,2023.2.2,Win32,85.47008547,,,,,,,,,,,,,,,,879.7652,881.0593,881.0593,883.0946,return,1.2276,,54.81770833,,,,,,FBP-YG-19.png,0.43,1.2,44,0.5,,,,,,,,,,,,,,,,,,0,57,57,43,1,,,,,,,,,,,,,,,,,,,,,,,
,,,,,WIN24_056,19,Female,2024-02-12_15h32.20.910,jersey_experiment_5,2023.2.2,Win32,85.47008547,,,,,,,,,,,,,,,,883.0947,884.3888,884.3888,886.1889,return,1.0957,,23.4375,,,,,,FBP-RB-91.png,0.35,1.2,26,0.5,,,,,,,,,,,,,,,,,,0,58,58,25,1,,,,,,,,,,,,,,,,,,,,,,,
,,,,,WIN24_056,19,Female,2024-02-12_15h32.20.910,jersey_experiment_5,2023.2.2,Win32,85.47008547,,,,,,,,,,,,,,,,886.1892,887.483,887.483,888.9066,return,0.9978,,42.1875,,,,,,FBP-YG-17.png,0.37,1.2,32,0.5,,,,,,,,,,,,,,,,,,0,59,59,31,1,,,,,,,,,,,,,,,,,,,,,,,
,,,,,WIN24_056,19,Female,2024-02-12_15h32.20.910,jersey_experiment_5,2023.2.2,Win32,85.47008547,,,,,,,,,,,,,,,,,,,,,,,,,,,,,,,,,,,,,,,,,,,,,,,,,,,,,,,,888.9069,894.6601,return,5.7452,,,,,,,,,,,,,,,,,,,
,,,,,WIN24_056,19,Female,2024-02-12_15h32.20.910,jersey_experiment_5,2023.2.2,Win32,85.47008547,,,,,,,,,,,,,,,,,,,,,,,,,,,,,,,,,,,,,,,,,,,,,,,,,,,,,,,,,,,,,894.6603,898.3894,1,2.7417,return,0.9695,,,,,,,,,,,,
,,,,,WIN24_056,19,Female,2024-02-12_15h32.20.910,jersey_experiment_5,2023.2.2,Win32,85.47008547,,,,,,,,,,,,,,,,,,,,,,,,,,,,,,,,,,,,,,,,,,,,,,,,,,,,,,,,,,,,,,,,,,,,898.3896,937.9488,"skin color, height/body proportions?",right,32.356,,,,,,
,,,,,WIN24_056,19,Female,2024-02-12_15h32.20.910,jersey_experiment_5,2023.2.2,Win32,85.47008547,,,,,,,,,,,,,,,,,,,,,,,,,,,,,,,,,,,,,,,,,,,,,,,,,,,,,,,,,,,,,,,,,,,,,,,,,,937.9489,941.4498,return,3.4882,