requirements.started,requirements.stopped,key_resp_3.keys,key_resp_3.rt,key_resp_3.duration,Subject ID,Age,Gender,date,expName,psychopyVersion,OS,frameRate,instructions1.started,instructions1.stopped,key_resp.keys,key_resp.rt,key_resp.duration,example.started,example.stopped,enter_2.keys,enter_2.rt,enter_2.duration,instructions2.started,instructions2.stopped,enter_3.keys,enter_3.rt,enter_3.duration,image.started,image.stopped,slider_2.started,slider_2.stopped,next.keys,next.rt,next.duration,slider.response,trial_block_1.thisRepN,trial_block_1.thisTrialN,trial_block_1.thisN,trial_block_1.thisIndex,trial_block_1.ran,Path,Width,Height,Index,Duration,trial_block_2.thisRepN,trial_block_2.thisTrialN,trial_block_2.thisN,trial_block_2.thisIndex,trial_block_2.ran,rest_break.started,rest_break.stopped,end_break.started,end_break.stopped,key_resp_5.keys,key_resp_5.rt,key_resp_5.duration,trial_block_3.thisRepN,trial_block_3.thisTrialN,trial_block_3.thisN,trial_block_3.thisIndex,trial_block_3.ran,trial_block_4.thisRepN,trial_block_4.thisTrialN,trial_block_4.thisN,trial_block_4.thisIndex,trial_block_4.ran,questions_intro.started,questions_intro.stopped,enter_12.keys,enter_12.rt,enter_12.duration,question2.started,question2.stopped,question_doingbest.response,question_doingbest.rt,enter_15.keys,enter_15.rt,enter_15.duration,pattern.started,pattern.stopped,pattern_2.text,enter_17.keys,enter_17.rt,enter_17.duration,thankyou.started,thankyou.stopped,enter_14.keys,enter_14.rt,enter_14.duration
9.99999E-05,21.8606,return,21.8471,,SPR24_011,19,Male,2024-04-08_10h58.17.254,jersey_experiment_5_v0,2023.2.2,Win32,85.47008547,,,,,,,,,,,,,,,,,,,,,,,,,,,,,,,,,,,,,,,,,,,,,,,,,,,,,,,,,,,,,,,,,,,,,,,,,,,,,,
,,,,,SPR24_011,19,Male,2024-04-08_10h58.17.254,jersey_experiment_5_v0,2023.2.2,Win32,85.47008547,21.8606,29.4535,return,7.5767,,,,,,,,,,,,,,,,,,,,,,,,,,,,,,,,,,,,,,,,,,,,,,,,,,,,,,,,,,,,,,,,,,,,,,,,,,
,,,,,SPR24_011,19,Male,2024-04-08_10h58.17.254,jersey_experiment_5_v0,2023.2.2,Win32,85.47008547,,,,,,29.4535,34.7081,return,5.2198,,,,,,,,,,,,,,,,,,,,,,,,,,,,,,,,,,,,,,,,,,,,,,,,,,,,,,,,,,,,,,,,,,,,,
,,,,,SPR24_011,19,Male,2024-04-08_10h58.17.254,jersey_experiment_5_v0,2023.2.2,Win32,85.47008547,,,,,,,,,,,34.7081,55.4264,return,20.7051,,,,,,,,,,,,,,,,,,,,,,,,,,,,,,,,,,,,,,,,,,,,,,,,,,,,,,,,,,,,,,,,
,,,,,SPR24_011,19,Male,2024-04-08_10h58.17.254,jersey_experiment_5_v0,2023.2.2,Win32,85.47008547,,,,,,,,,,,,,,,,55.4327,56.4849,56.4849,61.791,return,1.9299,,57.55208333,0,0,0,48,1,FBP-PT-17.png,0.43,1.2,49,0.25,,,,,,,,,,,,,,,,,,,,,,,,,,,,,,,,,,,,,,,,,,,,,
,,,,,SPR24_011,19,Male,2024-04-08_10h58.17.254,jersey_experiment_5_v0,2023.2.2,Win32,85.47008547,,,,,,,,,,,,,,,,61.7914,62.8381,62.8382,65.4029,return,0.5475,,33.984375,0,1,1,56,1,FBP-PT-19.png,0.37,1.2,57,0.25,,,,,,,,,,,,,,,,,,,,,,,,,,,,,,,,,,,,,,,,,,,,,
,,,,,SPR24_011,19,Male,2024-04-08_10h58.17.254,jersey_experiment_5_v0,2023.2.2,Win32,85.47008547,,,,,,,,,,,,,,,,65.4031,66.45,66.45,68.3207,return,0.551,,87.109375,0,2,2,18,1,FBP-YG-17.png,0.43,1.2,19,0.25,,,,,,,,,,,,,,,,,,,,,,,,,,,,,,,,,,,,,,,,,,,,,
,,,,,SPR24_011,19,Male,2024-04-08_10h58.17.254,jersey_experiment_5_v0,2023.2.2,Win32,85.47008547,,,,,,,,,,,,,,,,68.3209,69.3678,69.3678,71.5326,return,1.0144,,84.765625,0,3,3,58,1,FBP-PT-19.png,0.43,1.2,59,0.25,,,,,,,,,,,,,,,,,,,,,,,,,,,,,,,,,,,,,,,,,,,,,
,,,,,SPR24_011,19,Male,2024-04-08_10h58.17.254,jersey_experiment_5_v0,2023.2.2,Win32,85.47008547,,,,,,,,,,,,,,,,71.5329,72.5796,72.5796,75.2268,return,0.6637,,26.5625,0,4,4,45,1,FBP-PT-17.png,0.35,1.2,46,0.25,,,,,,,,,,,,,,,,,,,,,,,,,,,,,,,,,,,,,,,,,,,,,
,,,,,SPR24_011,19,Male,2024-04-08_10h58.17.254,jersey_experiment_5_v0,2023.2.2,Win32,85.47008547,,,,,,,,,,,,,,,,75.227,76.2739,76.2739,78.4151,return,0.5669,,34.89583333,0,5,5,27,1,FBP-YG-19.png,0.4,1.2,28,0.25,,,,,,,,,,,,,,,,,,,,,,,,,,,,,,,,,,,,,,,,,,,,,
,,,,,SPR24_011,19,Male,2024-04-08_10h58.17.254,jersey_experiment_5_v0,2023.2.2,Win32,85.47008547,,,,,,,,,,,,,,,,78.4154,79.7093,79.7093,81.7447,return,0.6362,,69.40104167,0,6,6,44,1,FBP-RB-19.png,0.45,1.2,45,0.5,,,,,,,,,,,,,,,,,,,,,,,,,,,,,,,,,,,,,,,,,,,,,
,,,,,SPR24_011,19,Male,2024-04-08_10h58.17.254,jersey_experiment_5_v0,2023.2.2,Win32,85.47008547,,,,,,,,,,,,,,,,81.7449,82.7917,82.7918,85.5447,return,0.5126,,46.484375,0,7,7,52,1,FBP-PT-18.png,0.4,1.2,53,0.25,,,,,,,,,,,,,,,,,,,,,,,,,,,,,,,,,,,,,,,,,,,,,
,,,,,SPR24_011,19,Male,2024-04-08_10h58.17.254,jersey_experiment_5_v0,2023.2.2,Win32,85.47008547,,,,,,,,,,,,,,,,85.545,86.5918,86.5918,88.2979,return,0.549,,86.58854167,0,8,8,29,1,FBP-YG-19.png,0.45,1.2,30,0.25,,,,,,,,,,,,,,,,,,,,,,,,,,,,,,,,,,,,,,,,,,,,,
,,,,,SPR24_011,19,Male,2024-04-08_10h58.17.254,jersey_experiment_5_v0,2023.2.2,Win32,85.47008547,,,,,,,,,,,,,,,,88.2981,89.3452,89.3452,91.5686,return,0.5659,,44.140625,0,9,9,50,1,FBP-PT-18.png,0.35,1.2,51,0.25,,,,,,,,,,,,,,,,,,,,,,,,,,,,,,,,,,,,,,,,,,,,,
,,,,,SPR24_011,19,Male,2024-04-08_10h58.17.254,jersey_experiment_5_v0,2023.2.2,Win32,85.47008547,,,,,,,,,,,,,,,,91.5688,92.8627,92.8627,94.7688,return,0.4479,,41.53645833,0,10,10,0,1,FBP-OG-71.png,0.35,1.2,1,0.5,,,,,,,,,,,,,,,,,,,,,,,,,,,,,,,,,,,,,,,,,,,,,
,,,,,SPR24_011,19,Male,2024-04-08_10h58.17.254,jersey_experiment_5_v0,2023.2.2,Win32,85.47008547,,,,,,,,,,,,,,,,94.7689,95.8158,95.8158,97.6629,return,0.5065,,54.94791667,0,11,11,51,1,FBP-PT-18.png,0.37,1.2,52,0.25,,,,,,,,,,,,,,,,,,,,,,,,,,,,,,,,,,,,,,,,,,,,,
,,,,,SPR24_011,19,Male,2024-04-08_10h58.17.254,jersey_experiment_5_v0,2023.2.2,Win32,85.47008547,,,,,,,,,,,,,,,,97.6632,98.957,98.957,100.8278,return,0.5923,,58.203125,0,12,12,31,1,FBP-RB-17.png,0.37,1.2,32,0.5,,,,,,,,,,,,,,,,,,,,,,,,,,,,,,,,,,,,,,,,,,,,,
,,,,,SPR24_011,19,Male,2024-04-08_10h58.17.254,jersey_experiment_5_v0,2023.2.2,Win32,85.47008547,,,,,,,,,,,,,,,,100.828,101.8749,101.8749,103.5219,return,0.5647,,67.70833333,0,13,13,22,1,FBP-YG-18.png,0.4,1.2,23,0.25,,,,,,,,,,,,,,,,,,,,,,,,,,,,,,,,,,,,,,,,,,,,,
,,,,,SPR24_011,19,Male,2024-04-08_10h58.17.254,jersey_experiment_5_v0,2023.2.2,Win32,85.47008547,,,,,,,,,,,,,,,,103.5221,104.816,104.8162,106.1221,return,0.5472,,64.453125,0,14,14,1,1,FBP-OG-71.png,0.37,1.2,2,0.5,,,,,,,,,,,,,,,,,,,,,,,,,,,,,,,,,,,,,,,,,,,,,
,,,,,SPR24_011,19,Male,2024-04-08_10h58.17.254,jersey_experiment_5_v0,2023.2.2,Win32,85.47008547,,,,,,,,,,,,,,,,106.1223,107.1692,107.1692,108.6986,return,0.5246,,57.16145833,0,15,15,25,1,FBP-YG-19.png,0.35,1.2,26,0.25,,,,,,,,,,,,,,,,,,,,,,,,,,,,,,,,,,,,,,,,,,,,,
,,,,,SPR24_011,19,Male,2024-04-08_10h58.17.254,jersey_experiment_5_v0,2023.2.2,Win32,85.47008547,,,,,,,,,,,,,,,,108.6989,109.7458,109.7458,111.5693,return,0.5416,,92.83854167,0,16,16,19,1,FBP-YG-17.png,0.45,1.2,20,0.25,,,,,,,,,,,,,,,,,,,,,,,,,,,,,,,,,,,,,,,,,,,,,
,,,,,SPR24_011,19,Male,2024-04-08_10h58.17.254,jersey_experiment_5_v0,2023.2.2,Win32,85.47008547,,,,,,,,,,,,,,,,111.5695,112.8635,112.8635,114.4989,return,0.5421,,80.078125,0,17,17,11,1,FBP-OG-91.png,0.37,1.2,12,0.5,,,,,,,,,,,,,,,,,,,,,,,,,,,,,,,,,,,,,,,,,,,,,
,,,,,SPR24_011,19,Male,2024-04-08_10h58.17.254,jersey_experiment_5_v0,2023.2.2,Win32,85.47008547,,,,,,,,,,,,,,,,114.4991,115.793,115.7931,117.2519,return,0.5876,,94.79166667,0,18,18,14,1,FBP-OG-91.png,0.45,1.2,15,0.5,,,,,,,,,,,,,,,,,,,,,,,,,,,,,,,,,,,,,,,,,,,,,
,,,,,SPR24_011,19,Male,2024-04-08_10h58.17.254,jersey_experiment_5_v0,2023.2.2,Win32,85.47008547,,,,,,,,,,,,,,,,117.2521,118.299,118.299,120.1461,return,0.518,,80.859375,0,19,19,16,1,FBP-YG-17.png,0.37,1.2,17,0.25,,,,,,,,,,,,,,,,,,,,,,,,,,,,,,,,,,,,,,,,,,,,,
,,,,,SPR24_011,19,Male,2024-04-08_10h58.17.254,jersey_experiment_5_v0,2023.2.2,Win32,85.47008547,,,,,,,,,,,,,,,,120.1464,121.4404,121.4404,122.9227,return,0.5128,,64.19270833,0,20,20,35,1,FBP-RB-18.png,0.35,1.2,36,0.5,,,,,,,,,,,,,,,,,,,,,,,,,,,,,,,,,,,,,,,,,,,,,
,,,,,SPR24_011,19,Male,2024-04-08_10h58.17.254,jersey_experiment_5_v0,2023.2.2,Win32,85.47008547,,,,,,,,,,,,,,,,122.923,123.9698,123.9698,125.4876,return,0.5188,,57.68229167,0,21,21,21,1,FBP-YG-18.png,0.37,1.2,22,0.25,,,,,,,,,,,,,,,,,,,,,,,,,,,,,,,,,,,,,,,,,,,,,
,,,,,SPR24_011,19,Male,2024-04-08_10h58.17.254,jersey_experiment_5_v0,2023.2.2,Win32,85.47008547,,,,,,,,,,,,,,,,125.4878,126.7817,126.7818,128.217,return,0.5145,,72.39583333,0,22,22,3,1,FBP-OG-71.png,0.43,1.2,4,0.5,,,,,,,,,,,,,,,,,,,,,,,,,,,,,,,,,,,,,,,,,,,,,
,,,,,SPR24_011,19,Male,2024-04-08_10h58.17.254,jersey_experiment_5_v0,2023.2.2,Win32,85.47008547,,,,,,,,,,,,,,,,128.2172,129.2642,129.2642,130.7464,return,0.5013,,75.65104167,0,23,23,57,1,FBP-PT-19.png,0.4,1.2,58,0.25,,,,,,,,,,,,,,,,,,,,,,,,,,,,,,,,,,,,,,,,,,,,,
,,,,,SPR24_011,19,Male,2024-04-08_10h58.17.254,jersey_experiment_5_v0,2023.2.2,Win32,85.47008547,,,,,,,,,,,,,,,,130.7467,132.0407,132.0407,135.535,return,2.0953,,85.41666667,0,24,24,42,1,FBP-RB-19.png,0.4,1.2,43,0.5,,,,,,,,,,,,,,,,,,,,,,,,,,,,,,,,,,,,,,,,,,,,,
,,,,,SPR24_011,19,Male,2024-04-08_10h58.17.254,jersey_experiment_5_v0,2023.2.2,Win32,85.47008547,,,,,,,,,,,,,,,,135.5353,136.582,136.5821,137.7704,return,0.4757,,79.55729167,0,25,25,17,1,FBP-YG-17.png,0.4,1.2,18,0.25,,,,,,,,,,,,,,,,,,,,,,,,,,,,,,,,,,,,,,,,,,,,,
,,,,,SPR24_011,19,Male,2024-04-08_10h58.17.254,jersey_experiment_5_v0,2023.2.2,Win32,85.47008547,,,,,,,,,,,,,,,,137.7706,138.8175,138.8175,140.1939,return,0.5083,,66.14583333,0,26,26,20,1,FBP-YG-18.png,0.35,1.2,21,0.25,,,,,,,,,,,,,,,,,,,,,,,,,,,,,,,,,,,,,,,,,,,,,
,,,,,SPR24_011,19,Male,2024-04-08_10h58.17.254,jersey_experiment_5_v0,2023.2.2,Win32,85.47008547,,,,,,,,,,,,,,,,140.1942,141.4881,141.4882,142.794,return,0.5255,,89.19270833,0,27,27,8,1,FBP-OG-81.png,0.43,1.2,9,0.5,,,,,,,,,,,,,,,,,,,,,,,,,,,,,,,,,,,,,,,,,,,,,
,,,,,SPR24_011,19,Male,2024-04-08_10h58.17.254,jersey_experiment_5_v0,2023.2.2,Win32,85.47008547,,,,,,,,,,,,,,,,142.7942,144.0882,144.0882,147.759,return,2.4032,,73.4375,0,28,28,37,1,FBP-RB-18.png,0.4,1.2,38,0.5,,,,,,,,,,,,,,,,,,,,,,,,,,,,,,,,,,,,,,,,,,,,,
,,,,,SPR24_011,19,Male,2024-04-08_10h58.17.254,jersey_experiment_5_v0,2023.2.2,Win32,85.47008547,,,,,,,,,,,,,,,,147.7591,148.8061,148.8062,150.9473,return,0.4937,,56.640625,0,29,29,55,1,FBP-PT-19.png,0.35,1.2,56,0.25,,,,,,,,,,,,,,,,,,,,,,,,,,,,,,,,,,,,,,,,,,,,,
,,,,,SPR24_011,19,Male,2024-04-08_10h58.17.254,jersey_experiment_5_v0,2023.2.2,Win32,85.47008547,,,,,,,,,,,,,,,,150.9473,152.2415,152.2415,154.2649,return,0.6325,,91.92708333,0,30,30,13,1,FBP-OG-91.png,0.43,1.2,14,0.5,,,,,,,,,,,,,,,,,,,,,,,,,,,,,,,,,,,,,,,,,,,,,
,,,,,SPR24_011,19,Male,2024-04-08_10h58.17.254,jersey_experiment_5_v0,2023.2.2,Win32,85.47008547,,,,,,,,,,,,,,,,154.2652,155.3121,155.3121,158.2418,return,1.7784,,30.59895833,0,31,31,15,1,FBP-YG-17.png,0.35,1.2,16,0.25,,,,,,,,,,,,,,,,,,,,,,,,,,,,,,,,,,,,,,,,,,,,,
,,,,,SPR24_011,19,Male,2024-04-08_10h58.17.254,jersey_experiment_5_v0,2023.2.2,Win32,85.47008547,,,,,,,,,,,,,,,,158.242,159.2887,159.2888,162.2419,return,0.5666,,92.83854167,0,32,32,24,1,FBP-YG-18.png,0.45,1.2,25,0.25,,,,,,,,,,,,,,,,,,,,,,,,,,,,,,,,,,,,,,,,,,,,,
,,,,,SPR24_011,19,Male,2024-04-08_10h58.17.254,jersey_experiment_5_v0,2023.2.2,Win32,85.47008547,,,,,,,,,,,,,,,,162.2422,163.2888,163.2889,165.5713,return,0.6696,,98.828125,0,33,33,49,1,FBP-PT-17.png,0.45,1.2,50,0.25,,,,,,,,,,,,,,,,,,,,,,,,,,,,,,,,,,,,,,,,,,,,,
,,,,,SPR24_011,19,Male,2024-04-08_10h58.17.254,jersey_experiment_5_v0,2023.2.2,Win32,85.47008547,,,,,,,,,,,,,,,,165.5716,166.8658,166.8658,169.3244,return,1.1228,,79.16666667,0,34,34,43,1,FBP-RB-19.png,0.43,1.2,44,0.5,,,,,,,,,,,,,,,,,,,,,,,,,,,,,,,,,,,,,,,,,,,,,
,,,,,SPR24_011,19,Male,2024-04-08_10h58.17.254,jersey_experiment_5_v0,2023.2.2,Win32,85.47008547,,,,,,,,,,,,,,,,169.3246,170.6186,170.6188,171.5011,return,0.0989,,88.41145833,0,35,35,34,1,FBP-RB-17.png,0.45,1.2,35,0.5,,,,,,,,,,,,,,,,,,,,,,,,,,,,,,,,,,,,,,,,,,,,,
,,,,,SPR24_011,19,Male,2024-04-08_10h58.17.254,jersey_experiment_5_v0,2023.2.2,Win32,85.47008547,,,,,,,,,,,,,,,,171.5014,172.7952,172.7952,173.7718,return,0.0414,,93.88020833,0,36,36,4,1,FBP-OG-71.png,0.45,1.2,5,0.5,,,,,,,,,,,,,,,,,,,,,,,,,,,,,,,,,,,,,,,,,,,,,
,,,,,SPR24_011,19,Male,2024-04-08_10h58.17.254,jersey_experiment_5_v0,2023.2.2,Win32,85.47008547,,,,,,,,,,,,,,,,173.772,175.0657,175.0658,177.3602,return,0.034,,49.86979167,0,37,37,7,1,FBP-OG-81.png,0.4,1.2,8,0.5,,,,,,,,,,,,,,,,,,,,,,,,,,,,,,,,,,,,,,,,,,,,,
,,,,,SPR24_011,19,Male,2024-04-08_10h58.17.254,jersey_experiment_5_v0,2023.2.2,Win32,85.47008547,,,,,,,,,,,,,,,,177.3604,178.6542,178.6542,180.0191,return,0.058,,45.44270833,0,38,38,36,1,FBP-RB-18.png,0.37,1.2,37,0.5,,,,,,,,,,,,,,,,,,,,,,,,,,,,,,,,,,,,,,,,,,,,,
,,,,,SPR24_011,19,Male,2024-04-08_10h58.17.254,jersey_experiment_5_v0,2023.2.2,Win32,85.47008547,,,,,,,,,,,,,,,,180.0193,181.3132,181.3133,182.5721,return,0.0746,,24.34895833,0,39,39,5,1,FBP-OG-81.png,0.35,1.2,6,0.5,,,,,,,,,,,,,,,,,,,,,,,,,,,,,,,,,,,,,,,,,,,,,
,,,,,SPR24_011,19,Male,2024-04-08_10h58.17.254,jersey_experiment_5_v0,2023.2.2,Win32,85.47008547,,,,,,,,,,,,,,,,182.5723,183.8662,183.8663,185.0429,return,0.0715,,15.234375,0,40,40,30,1,FBP-RB-17.png,0.35,1.2,31,0.5,,,,,,,,,,,,,,,,,,,,,,,,,,,,,,,,,,,,,,,,,,,,,
,,,,,SPR24_011,19,Male,2024-04-08_10h58.17.254,jersey_experiment_5_v0,2023.2.2,Win32,85.47008547,,,,,,,,,,,,,,,,185.0432,186.3369,186.3369,187.5016,return,0.1546,,55.20833333,0,41,41,38,1,FBP-RB-18.png,0.43,1.2,39,0.5,,,,,,,,,,,,,,,,,,,,,,,,,,,,,,,,,,,,,,,,,,,,,
,,,,,SPR24_011,19,Male,2024-04-08_10h58.17.254,jersey_experiment_5_v0,2023.2.2,Win32,85.47008547,,,,,,,,,,,,,,,,187.5018,188.7958,188.7958,190.0783,return,0.0722,,81.640625,0,42,42,9,1,FBP-OG-81.png,0.45,1.2,10,0.5,,,,,,,,,,,,,,,,,,,,,,,,,,,,,,,,,,,,,,,,,,,,,
,,,,,SPR24_011,19,Male,2024-04-08_10h58.17.254,jersey_experiment_5_v0,2023.2.2,Win32,85.47008547,,,,,,,,,,,,,,,,190.0785,191.1252,191.1253,192.937,return,0.0316,,61.84895833,0,43,43,53,1,FBP-PT-18.png,0.43,1.2,54,0.25,,,,,,,,,,,,,,,,,,,,,,,,,,,,,,,,,,,,,,,,,,,,,
,,,,,SPR24_011,19,Male,2024-04-08_10h58.17.254,jersey_experiment_5_v0,2023.2.2,Win32,85.47008547,,,,,,,,,,,,,,,,192.937,194.2313,194.2313,195.2665,return,0.0236,,48.95833333,0,44,44,2,1,FBP-OG-71.png,0.4,1.2,3,0.5,,,,,,,,,,,,,,,,,,,,,,,,,,,,,,,,,,,,,,,,,,,,,
,,,,,SPR24_011,19,Male,2024-04-08_10h58.17.254,jersey_experiment_5_v0,2023.2.2,Win32,85.47008547,,,,,,,,,,,,,,,,195.2667,196.5607,196.5608,197.3372,return,0.065,,60.02604167,0,45,45,33,1,FBP-RB-17.png,0.43,1.2,34,0.5,,,,,,,,,,,,,,,,,,,,,,,,,,,,,,,,,,,,,,,,,,,,,
,,,,,SPR24_011,19,Male,2024-04-08_10h58.17.254,jersey_experiment_5_v0,2023.2.2,Win32,85.47008547,,,,,,,,,,,,,,,,197.3374,198.6314,198.6315,199.2786,return,0.0705,,60.15625,0,46,46,32,1,FBP-RB-17.png,0.4,1.2,33,0.5,,,,,,,,,,,,,,,,,,,,,,,,,,,,,,,,,,,,,,,,,,,,,
,,,,,SPR24_011,19,Male,2024-04-08_10h58.17.254,jersey_experiment_5_v0,2023.2.2,Win32,85.47008547,,,,,,,,,,,,,,,,199.2788,200.3257,200.3257,201.1141,return,0.0773,,66.796875,0,47,47,23,1,FBP-YG-18.png,0.43,1.2,24,0.25,,,,,,,,,,,,,,,,,,,,,,,,,,,,,,,,,,,,,,,,,,,,,
,,,,,SPR24_011,19,Male,2024-04-08_10h58.17.254,jersey_experiment_5_v0,2023.2.2,Win32,85.47008547,,,,,,,,,,,,,,,,201.1144,202.408,202.408,203.114,return,0.0535,,68.75,0,48,48,39,1,FBP-RB-18.png,0.45,1.2,40,0.5,,,,,,,,,,,,,,,,,,,,,,,,,,,,,,,,,,,,,,,,,,,,,
,,,,,SPR24_011,19,Male,2024-04-08_10h58.17.254,jersey_experiment_5_v0,2023.2.2,Win32,85.47008547,,,,,,,,,,,,,,,,203.1142,204.161,204.161,206.2083,return,0.8592,,36.97916667,0,49,49,46,1,FBP-PT-17.png,0.37,1.2,47,0.25,,,,,,,,,,,,,,,,,,,,,,,,,,,,,,,,,,,,,,,,,,,,,
,,,,,SPR24_011,19,Male,2024-04-08_10h58.17.254,jersey_experiment_5_v0,2023.2.2,Win32,85.47008547,,,,,,,,,,,,,,,,206.2086,207.5024,207.5024,208.7025,return,0.1768,,18.359375,0,50,50,40,1,FBP-RB-19.png,0.35,1.2,41,0.5,,,,,,,,,,,,,,,,,,,,,,,,,,,,,,,,,,,,,,,,,,,,,
,,,,,SPR24_011,19,Male,2024-04-08_10h58.17.254,jersey_experiment_5_v0,2023.2.2,Win32,85.47008547,,,,,,,,,,,,,,,,208.7028,209.9964,209.9964,211.2437,return,0.6744,,29.81770833,0,51,51,41,1,FBP-RB-19.png,0.37,1.2,42,0.5,,,,,,,,,,,,,,,,,,,,,,,,,,,,,,,,,,,,,,,,,,,,,
,,,,,SPR24_011,19,Male,2024-04-08_10h58.17.254,jersey_experiment_5_v0,2023.2.2,Win32,85.47008547,,,,,,,,,,,,,,,,211.2439,212.2908,212.2909,214.0202,return,0.1177,,51.43229167,0,52,52,28,1,FBP-YG-19.png,0.43,1.2,29,0.25,,,,,,,,,,,,,,,,,,,,,,,,,,,,,,,,,,,,,,,,,,,,,
,,,,,SPR24_011,19,Male,2024-04-08_10h58.17.254,jersey_experiment_5_v0,2023.2.2,Win32,85.47008547,,,,,,,,,,,,,,,,214.0204,215.3144,215.3144,216.3145,return,0.0533,,46.35416667,0,53,53,12,1,FBP-OG-91.png,0.4,1.2,13,0.5,,,,,,,,,,,,,,,,,,,,,,,,,,,,,,,,,,,,,,,,,,,,,
,,,,,SPR24_011,19,Male,2024-04-08_10h58.17.254,jersey_experiment_5_v0,2023.2.2,Win32,85.47008547,,,,,,,,,,,,,,,,216.3147,217.6086,217.6086,218.7028,return,0.0735,,31.25,0,54,54,10,1,FBP-OG-91.png,0.35,1.2,11,0.5,,,,,,,,,,,,,,,,,,,,,,,,,,,,,,,,,,,,,,,,,,,,,
,,,,,SPR24_011,19,Male,2024-04-08_10h58.17.254,jersey_experiment_5_v0,2023.2.2,Win32,85.47008547,,,,,,,,,,,,,,,,218.703,219.7499,219.75,221.1969,return,0.1695,,38.28125,0,55,55,47,1,FBP-PT-17.png,0.4,1.2,48,0.25,,,,,,,,,,,,,,,,,,,,,,,,,,,,,,,,,,,,,,,,,,,,,
,,,,,SPR24_011,19,Male,2024-04-08_10h58.17.254,jersey_experiment_5_v0,2023.2.2,Win32,85.47008547,,,,,,,,,,,,,,,,221.1971,222.2442,222.2442,224.0325,return,0.0603,,17.70833333,0,56,56,26,1,FBP-YG-19.png,0.37,1.2,27,0.25,,,,,,,,,,,,,,,,,,,,,,,,,,,,,,,,,,,,,,,,,,,,,
,,,,,SPR24_011,19,Male,2024-04-08_10h58.17.254,jersey_experiment_5_v0,2023.2.2,Win32,85.47008547,,,,,,,,,,,,,,,,224.0327,225.0794,225.0794,227.809,return,0.033,,71.09375,0,57,57,54,1,FBP-PT-18.png,0.45,1.2,55,0.25,,,,,,,,,,,,,,,,,,,,,,,,,,,,,,,,,,,,,,,,,,,,,
,,,,,SPR24_011,19,Male,2024-04-08_10h58.17.254,jersey_experiment_5_v0,2023.2.2,Win32,85.47008547,,,,,,,,,,,,,,,,227.8093,229.1031,229.1032,229.9856,return,0.0617,,48.4375,0,58,58,6,1,FBP-OG-81.png,0.37,1.2,7,0.5,,,,,,,,,,,,,,,,,,,,,,,,,,,,,,,,,,,,,,,,,,,,,
,,,,,SPR24_011,19,Male,2024-04-08_10h58.17.254,jersey_experiment_5_v0,2023.2.2,Win32,85.47008547,,,,,,,,,,,,,,,,229.9858,231.0325,231.0325,231.9974,return,0.0839,,70.96354167,0,59,59,59,1,FBP-PT-19.png,0.45,1.2,60,0.25,,,,,,,,,,,,,,,,,,,,,,,,,,,,,,,,,,,,,,,,,,,,,
,,,,,SPR24_011,19,Male,2024-04-08_10h58.17.254,jersey_experiment_5_v0,2023.2.2,Win32,85.47008547,,,,,,,,,,,,,,,,231.9992,233.0447,233.0448,235.9504,return,0.0267,,51.171875,,,,,,FBP-YG-81.png,0.4,1.2,23,0.25,0,0,0,22,1,,,,,,,,,,,,,,,,,,,,,,,,,,,,,,,,,,,,,,,,
,,,,,SPR24_011,19,Male,2024-04-08_10h58.17.254,jersey_experiment_5_v0,2023.2.2,Win32,85.47008547,,,,,,,,,,,,,,,,235.9506,237.2447,237.2447,238.1859,return,0.0888,,59.50520833,,,,,,FBP-OG-19.png,0.45,1.2,15,0.5,0,1,1,14,1,,,,,,,,,,,,,,,,,,,,,,,,,,,,,,,,,,,,,,,,
,,,,,SPR24_011,19,Male,2024-04-08_10h58.17.254,jersey_experiment_5_v0,2023.2.2,Win32,85.47008547,,,,,,,,,,,,,,,,238.1861,239.233,239.2331,240.5743,return,0.049,,9.375,,,,,,FBP-YG-81.png,0.35,1.2,21,0.25,0,2,2,20,1,,,,,,,,,,,,,,,,,,,,,,,,,,,,,,,,,,,,,,,,
,,,,,SPR24_011,19,Male,2024-04-08_10h58.17.254,jersey_experiment_5_v0,2023.2.2,Win32,85.47008547,,,,,,,,,,,,,,,,240.5745,241.8684,241.8685,242.8449,return,0.108,,67.578125,,,,,,FBP-RB-91.png,0.45,1.2,45,0.5,0,3,3,44,1,,,,,,,,,,,,,,,,,,,,,,,,,,,,,,,,,,,,,,,,
,,,,,SPR24_011,19,Male,2024-04-08_10h58.17.254,jersey_experiment_5_v0,2023.2.2,Win32,85.47008547,,,,,,,,,,,,,,,,242.8452,243.892,243.892,245.3861,return,0.5254,,61.45833333,,,,,,FBP-YG-71.png,0.43,1.2,19,0.25,0,4,4,18,1,,,,,,,,,,,,,,,,,,,,,,,,,,,,,,,,,,,,,,,,
,,,,,SPR24_011,19,Male,2024-04-08_10h58.17.254,jersey_experiment_5_v0,2023.2.2,Win32,85.47008547,,,,,,,,,,,,,,,,245.3864,246.6803,246.6804,247.7628,return,0.0816,,7.682291667,,,,,,FBP-RB-71.png,0.35,1.2,31,0.5,0,5,5,30,1,,,,,,,,,,,,,,,,,,,,,,,,,,,,,,,,,,,,,,,,
,,,,,SPR24_011,19,Male,2024-04-08_10h58.17.254,jersey_experiment_5_v0,2023.2.2,Win32,85.47008547,,,,,,,,,,,,,,,,247.7629,249.0568,249.0569,250.1158,return,0.1284,,34.50520833,,,,,,FBP-RB-91.png,0.4,1.2,43,0.5,0,6,6,42,1,,,,,,,,,,,,,,,,,,,,,,,,,,,,,,,,,,,,,,,,
,,,,,SPR24_011,19,Male,2024-04-08_10h58.17.254,jersey_experiment_5_v0,2023.2.2,Win32,85.47008547,,,,,,,,,,,,,,,,250.1159,251.41,251.41,252.3511,return,0.1069,,43.75,,,,,,FBP-OG-17.png,0.4,1.2,3,0.5,0,7,7,2,1,,,,,,,,,,,,,,,,,,,,,,,,,,,,,,,,,,,,,,,,
,,,,,SPR24_011,19,Male,2024-04-08_10h58.17.254,jersey_experiment_5_v0,2023.2.2,Win32,85.47008547,,,,,,,,,,,,,,,,252.3513,253.6453,253.6453,255.2571,return,0.1718,,76.953125,,,,,,FBP-RB-81.png,0.45,1.2,40,0.5,0,8,8,39,1,,,,,,,,,,,,,,,,,,,,,,,,,,,,,,,,,,,,,,,,
,,,,,SPR24_011,19,Male,2024-04-08_10h58.17.254,jersey_experiment_5_v0,2023.2.2,Win32,85.47008547,,,,,,,,,,,,,,,,255.2574,256.3042,256.3042,257.4338,return,0.1112,,79.6875,,,,,,FBP-YG-91.png,0.45,1.2,30,0.25,0,9,9,29,1,,,,,,,,,,,,,,,,,,,,,,,,,,,,,,,,,,,,,,,,
,,,,,SPR24_011,19,Male,2024-04-08_10h58.17.254,jersey_experiment_5_v0,2023.2.2,Win32,85.47008547,,,,,,,,,,,,,,,,257.434,258.4808,258.4809,259.8221,return,0.0964,,35.80729167,,,,,,FBP-YG-81.png,0.37,1.2,22,0.25,0,10,10,21,1,,,,,,,,,,,,,,,,,,,,,,,,,,,,,,,,,,,,,,,,
,,,,,SPR24_011,19,Male,2024-04-08_10h58.17.254,jersey_experiment_5_v0,2023.2.2,Win32,85.47008547,,,,,,,,,,,,,,,,259.8224,261.116,261.1161,261.8691,return,0.0738,,38.93229167,,,,,,FBP-RB-71.png,0.37,1.2,32,0.5,0,11,11,31,1,,,,,,,,,,,,,,,,,,,,,,,,,,,,,,,,,,,,,,,,
,,,,,SPR24_011,19,Male,2024-04-08_10h58.17.254,jersey_experiment_5_v0,2023.2.2,Win32,85.47008547,,,,,,,,,,,,,,,,261.8693,263.1633,263.1634,263.8693,return,0.0869,,33.984375,,,,,,FBP-RB-81.png,0.35,1.2,36,0.5,0,12,12,35,1,,,,,,,,,,,,,,,,,,,,,,,,,,,,,,,,,,,,,,,,
,,,,,SPR24_011,19,Male,2024-04-08_10h58.17.254,jersey_experiment_5_v0,2023.2.2,Win32,85.47008547,,,,,,,,,,,,,,,,263.8695,264.9163,264.9163,266.8929,return,0.1093,,78.25520833,,,,,,FBP-PT-81.png,0.43,1.2,54,0.25,0,13,13,53,1,,,,,,,,,,,,,,,,,,,,,,,,,,,,,,,,,,,,,,,,
,,,,,SPR24_011,19,Male,2024-04-08_10h58.17.254,jersey_experiment_5_v0,2023.2.2,Win32,85.47008547,,,,,,,,,,,,,,,,266.8932,268.187,268.1871,271.7049,return,0.0679,,60.15625,,,,,,FBP-OG-18.png,0.4,1.2,8,0.5,0,14,14,7,1,,,,,,,,,,,,,,,,,,,,,,,,,,,,,,,,,,,,,,,,
,,,,,SPR24_011,19,Male,2024-04-08_10h58.17.254,jersey_experiment_5_v0,2023.2.2,Win32,85.47008547,,,,,,,,,,,,,,,,271.705,272.7518,272.7518,274.1872,return,0.1005,,79.81770833,,,,,,FBP-PT-81.png,0.45,1.2,55,0.25,0,15,15,54,1,,,,,,,,,,,,,,,,,,,,,,,,,,,,,,,,,,,,,,,,
,,,,,SPR24_011,19,Male,2024-04-08_10h58.17.254,jersey_experiment_5_v0,2023.2.2,Win32,85.47008547,,,,,,,,,,,,,,,,274.1874,275.2344,275.2344,276.3521,return,0.0955,,45.05208333,,,,,,FBP-PT-81.png,0.37,1.2,52,0.25,0,16,16,51,1,,,,,,,,,,,,,,,,,,,,,,,,,,,,,,,,,,,,,,,,
,,,,,SPR24_011,19,Male,2024-04-08_10h58.17.254,jersey_experiment_5_v0,2023.2.2,Win32,85.47008547,,,,,,,,,,,,,,,,276.3523,277.3992,277.3992,278.3992,return,0.0827,,39.58333333,,,,,,FBP-PT-71.png,0.35,1.2,46,0.25,0,17,17,45,1,,,,,,,,,,,,,,,,,,,,,,,,,,,,,,,,,,,,,,,,
,,,,,SPR24_011,19,Male,2024-04-08_10h58.17.254,jersey_experiment_5_v0,2023.2.2,Win32,85.47008547,,,,,,,,,,,,,,,,278.3995,279.6932,279.6933,281.3404,return,0.0758,,55.859375,,,,,,FBP-OG-19.png,0.43,1.2,14,0.5,0,18,18,13,1,,,,,,,,,,,,,,,,,,,,,,,,,,,,,,,,,,,,,,,,
,,,,,SPR24_011,19,Male,2024-04-08_10h58.17.254,jersey_experiment_5_v0,2023.2.2,Win32,85.47008547,,,,,,,,,,,,,,,,281.3407,282.6345,282.6346,283.5641,return,0.1222,,65.10416667,,,,,,FBP-OG-18.png,0.43,1.2,9,0.5,0,19,19,8,1,,,,,,,,,,,,,,,,,,,,,,,,,,,,,,,,,,,,,,,,
,,,,,SPR24_011,19,Male,2024-04-08_10h58.17.254,jersey_experiment_5_v0,2023.2.2,Win32,85.47008547,,,,,,,,,,,,,,,,283.5644,284.6111,284.6111,285.4111,return,0.1178,,71.09375,,,,,,FBP-PT-71.png,0.45,1.2,50,0.25,0,20,20,49,1,,,,,,,,,,,,,,,,,,,,,,,,,,,,,,,,,,,,,,,,
,,,,,SPR24_011,19,Male,2024-04-08_10h58.17.254,jersey_experiment_5_v0,2023.2.2,Win32,85.47008547,,,,,,,,,,,,,,,,285.4114,286.7053,286.7053,288.4465,return,0.0737,,47.78645833,,,,,,FBP-RB-81.png,0.37,1.2,37,0.5,0,21,21,36,1,,,,,,,,,,,,,,,,,,,,,,,,,,,,,,,,,,,,,,,,
,,,,,SPR24_011,19,Male,2024-04-08_10h58.17.254,jersey_experiment_5_v0,2023.2.2,Win32,85.47008547,,,,,,,,,,,,,,,,288.4468,289.7407,289.7407,290.8467,return,0.0606,,31.25,,,,,,FBP-RB-91.png,0.35,1.2,41,0.5,0,22,22,40,1,,,,,,,,,,,,,,,,,,,,,,,,,,,,,,,,,,,,,,,,
,,,,,SPR24_011,19,Male,2024-04-08_10h58.17.254,jersey_experiment_5_v0,2023.2.2,Win32,85.47008547,,,,,,,,,,,,,,,,290.8469,292.1408,292.1408,292.9762,return,0.0843,,33.33333333,,,,,,FBP-OG-18.png,0.35,1.2,6,0.5,0,23,23,5,1,,,,,,,,,,,,,,,,,,,,,,,,,,,,,,,,,,,,,,,,
,,,,,SPR24_011,19,Male,2024-04-08_10h58.17.254,jersey_experiment_5_v0,2023.2.2,Win32,85.47008547,,,,,,,,,,,,,,,,292.9765,294.2704,294.2704,296.0352,return,0.4008,,71.35416667,,,,,,FBP-RB-81.png,0.43,1.2,39,0.5,0,24,24,38,1,,,,,,,,,,,,,,,,,,,,,,,,,,,,,,,,,,,,,,,,
,,,,,SPR24_011,19,Male,2024-04-08_10h58.17.254,jersey_experiment_5_v0,2023.2.2,Win32,85.47008547,,,,,,,,,,,,,,,,296.0354,297.3295,297.3295,298.494,return,0.1083,,76.30208333,,,,,,FBP-RB-71.png,0.45,1.2,35,0.5,0,25,25,34,1,,,,,,,,,,,,,,,,,,,,,,,,,,,,,,,,,,,,,,,,
,,,,,SPR24_011,19,Male,2024-04-08_10h58.17.254,jersey_experiment_5_v0,2023.2.2,Win32,85.47008547,,,,,,,,,,,,,,,,298.4943,299.5411,299.5412,300.4354,return,0.0932,,69.79166667,,,,,,FBP-PT-91.png,0.4,1.2,58,0.25,0,26,26,57,1,,,,,,,,,,,,,,,,,,,,,,,,,,,,,,,,,,,,,,,,
,,,,,SPR24_011,19,Male,2024-04-08_10h58.17.254,jersey_experiment_5_v0,2023.2.2,Win32,85.47008547,,,,,,,,,,,,,,,,300.4356,301.4824,301.4825,302.8001,return,0.106,,65.88541667,,,,,,FBP-YG-71.png,0.37,1.2,17,0.25,0,27,27,16,1,,,,,,,,,,,,,,,,,,,,,,,,,,,,,,,,,,,,,,,,
,,,,,SPR24_011,19,Male,2024-04-08_10h58.17.254,jersey_experiment_5_v0,2023.2.2,Win32,85.47008547,,,,,,,,,,,,,,,,302.8004,304.0942,304.0942,305.4119,return,0.071,,68.09895833,,,,,,FBP-RB-71.png,0.43,1.2,34,0.5,0,28,28,33,1,,,,,,,,,,,,,,,,,,,,,,,,,,,,,,,,,,,,,,,,
,,,,,SPR24_011,19,Male,2024-04-08_10h58.17.254,jersey_experiment_5_v0,2023.2.2,Win32,85.47008547,,,,,,,,,,,,,,,,305.4122,306.4591,306.4591,307.6473,return,0.0261,,63.28125,,,,,,FBP-PT-71.png,0.4,1.2,48,0.25,0,29,29,47,1,,,,,,,,,,,,,,,,,,,,,,,,,,,,,,,,,,,,,,,,
,,,,,SPR24_011,19,Male,2024-04-08_10h58.17.254,jersey_experiment_5_v0,2023.2.2,Win32,85.47008547,,,,,,,,,,,,,,,,307.6475,308.9415,308.9415,310.224,return,0.4244,,39.71354167,,,,,,FBP-OG-17.png,0.35,1.2,1,0.5,0,30,30,0,1,,,,,,,,,,,,,,,,,,,,,,,,,,,,,,,,,,,,,,,,
,,,,,SPR24_011,19,Male,2024-04-08_10h58.17.254,jersey_experiment_5_v0,2023.2.2,Win32,85.47008547,,,,,,,,,,,,,,,,310.2242,311.2709,311.2709,312.1299,return,0.0608,,29.16666667,,,,,,FBP-YG-71.png,0.35,1.2,16,0.25,0,31,31,15,1,,,,,,,,,,,,,,,,,,,,,,,,,,,,,,,,,,,,,,,,
,,,,,SPR24_011,19,Male,2024-04-08_10h58.17.254,jersey_experiment_5_v0,2023.2.2,Win32,85.47008547,,,,,,,,,,,,,,,,312.1301,313.1769,313.1769,314.7653,return,0.0398,,68.61979167,,,,,,FBP-YG-91.png,0.43,1.2,29,0.25,0,32,32,28,1,,,,,,,,,,,,,,,,,,,,,,,,,,,,,,,,,,,,,,,,
,,,,,SPR24_011,19,Male,2024-04-08_10h58.17.254,jersey_experiment_5_v0,2023.2.2,Win32,85.47008547,,,,,,,,,,,,,,,,314.7656,315.8123,315.8123,316.5771,return,0.0368,,65.49479167,,,,,,FBP-YG-91.png,0.4,1.2,28,0.25,0,33,33,27,1,,,,,,,,,,,,,,,,,,,,,,,,,,,,,,,,,,,,,,,,
,,,,,SPR24_011,19,Male,2024-04-08_10h58.17.254,jersey_experiment_5_v0,2023.2.2,Win32,85.47008547,,,,,,,,,,,,,,,,316.5773,317.624,317.624,318.9536,return,0.101,,47.78645833,,,,,,FBP-PT-81.png,0.35,1.2,51,0.25,0,34,34,50,1,,,,,,,,,,,,,,,,,,,,,,,,,,,,,,,,,,,,,,,,
,,,,,SPR24_011,19,Male,2024-04-08_10h58.17.254,jersey_experiment_5_v0,2023.2.2,Win32,85.47008547,,,,,,,,,,,,,,,,318.9538,320.0007,320.0007,321.0359,return,0.0529,,42.83854167,,,,,,FBP-YG-91.png,0.35,1.2,26,0.25,0,35,35,25,1,,,,,,,,,,,,,,,,,,,,,,,,,,,,,,,,,,,,,,,,
,,,,,SPR24_011,19,Male,2024-04-08_10h58.17.254,jersey_experiment_5_v0,2023.2.2,Win32,85.47008547,,,,,,,,,,,,,,,,321.0364,322.3301,322.3302,323.2833,return,0.1413,,59.24479167,,,,,,FBP-OG-18.png,0.37,1.2,7,0.5,0,36,36,6,1,,,,,,,,,,,,,,,,,,,,,,,,,,,,,,,,,,,,,,,,
,,,,,SPR24_011,19,Male,2024-04-08_10h58.17.254,jersey_experiment_5_v0,2023.2.2,Win32,85.47008547,,,,,,,,,,,,,,,,323.2836,324.3303,324.3303,325.2127,return,0.1112,,73.828125,,,,,,FBP-YG-71.png,0.45,1.2,20,0.25,0,37,37,19,1,,,,,,,,,,,,,,,,,,,,,,,,,,,,,,,,,,,,,,,,
,,,,,SPR24_011,19,Male,2024-04-08_10h58.17.254,jersey_experiment_5_v0,2023.2.2,Win32,85.47008547,,,,,,,,,,,,,,,,325.213,326.5069,326.5069,327.6951,return,0.0499,,79.81770833,,,,,,FBP-RB-71.png,0.4,1.2,33,0.5,0,38,38,32,1,,,,,,,,,,,,,,,,,,,,,,,,,,,,,,,,,,,,,,,,
,,,,,SPR24_011,19,Male,2024-04-08_10h58.17.254,jersey_experiment_5_v0,2023.2.2,Win32,85.47008547,,,,,,,,,,,,,,,,327.6954,328.9892,328.9892,330.5306,return,0.0707,,40.36458333,,,,,,FBP-OG-17.png,0.37,1.2,2,0.5,0,39,39,1,1,,,,,,,,,,,,,,,,,,,,,,,,,,,,,,,,,,,,,,,,
,,,,,SPR24_011,19,Male,2024-04-08_10h58.17.254,jersey_experiment_5_v0,2023.2.2,Win32,85.47008547,,,,,,,,,,,,,,,,330.5309,331.8247,331.8248,334.5424,return,1.2506,,50,,,,,,FBP-OG-19.png,0.37,1.2,12,0.5,0,40,40,11,1,,,,,,,,,,,,,,,,,,,,,,,,,,,,,,,,,,,,,,,,
,,,,,SPR24_011,19,Male,2024-04-08_10h58.17.254,jersey_experiment_5_v0,2023.2.2,Win32,85.47008547,,,,,,,,,,,,,,,,334.5427,335.8364,335.8365,336.7778,return,0.4889,,61.45833333,,,,,,FBP-RB-91.png,0.43,1.2,44,0.5,0,41,41,43,1,,,,,,,,,,,,,,,,,,,,,,,,,,,,,,,,,,,,,,,,
,,,,,SPR24_011,19,Male,2024-04-08_10h58.17.254,jersey_experiment_5_v0,2023.2.2,Win32,85.47008547,,,,,,,,,,,,,,,,336.778,337.8249,337.825,339.8367,return,0.7344,,78.515625,,,,,,FBP-YG-81.png,0.43,1.2,24,0.25,0,42,42,23,1,,,,,,,,,,,,,,,,,,,,,,,,,,,,,,,,,,,,,,,,
,,,,,SPR24_011,19,Male,2024-04-08_10h58.17.254,jersey_experiment_5_v0,2023.2.2,Win32,85.47008547,,,,,,,,,,,,,,,,339.8369,341.1309,341.1309,343.084,return,0.675,,62.36979167,,,,,,FBP-OG-19.png,0.4,1.2,13,0.5,0,43,43,12,1,,,,,,,,,,,,,,,,,,,,,,,,,,,,,,,,,,,,,,,,
,,,,,SPR24_011,19,Male,2024-04-08_10h58.17.254,jersey_experiment_5_v0,2023.2.2,Win32,85.47008547,,,,,,,,,,,,,,,,343.0842,344.1311,344.1311,345.4251,return,0.1889,,35.02604167,,,,,,FBP-PT-91.png,0.37,1.2,57,0.25,0,44,44,56,1,,,,,,,,,,,,,,,,,,,,,,,,,,,,,,,,,,,,,,,,
,,,,,SPR24_011,19,Male,2024-04-08_10h58.17.254,jersey_experiment_5_v0,2023.2.2,Win32,85.47008547,,,,,,,,,,,,,,,,345.4253,346.4722,346.4723,347.8019,return,0.1468,,71.61458333,,,,,,FBP-PT-91.png,0.45,1.2,60,0.25,0,45,45,59,1,,,,,,,,,,,,,,,,,,,,,,,,,,,,,,,,,,,,,,,,
,,,,,SPR24_011,19,Male,2024-04-08_10h58.17.254,jersey_experiment_5_v0,2023.2.2,Win32,85.47008547,,,,,,,,,,,,,,,,347.802,348.8489,348.8489,349.7313,return,0.061,,67.578125,,,,,,FBP-PT-71.png,0.43,1.2,49,0.25,0,46,46,48,1,,,,,,,,,,,,,,,,,,,,,,,,,,,,,,,,,,,,,,,,
,,,,,SPR24_011,19,Male,2024-04-08_10h58.17.254,jersey_experiment_5_v0,2023.2.2,Win32,85.47008547,,,,,,,,,,,,,,,,349.7315,351.0254,351.0255,352.4019,return,0.9045,,78.515625,,,,,,FBP-OG-17.png,0.45,1.2,5,0.5,0,47,47,4,1,,,,,,,,,,,,,,,,,,,,,,,,,,,,,,,,,,,,,,,,
,,,,,SPR24_011,19,Male,2024-04-08_10h58.17.254,jersey_experiment_5_v0,2023.2.2,Win32,85.47008547,,,,,,,,,,,,,,,,352.4022,353.449,353.4491,354.8962,return,0.1194,,62.76041667,,,,,,FBP-YG-71.png,0.4,1.2,18,0.25,0,48,48,17,1,,,,,,,,,,,,,,,,,,,,,,,,,,,,,,,,,,,,,,,,
,,,,,SPR24_011,19,Male,2024-04-08_10h58.17.254,jersey_experiment_5_v0,2023.2.2,Win32,85.47008547,,,,,,,,,,,,,,,,354.8964,356.1903,356.1904,356.9551,return,0.1225,,73.56770833,,,,,,FBP-OG-18.png,0.45,1.2,10,0.5,0,49,49,9,1,,,,,,,,,,,,,,,,,,,,,,,,,,,,,,,,,,,,,,,,
,,,,,SPR24_011,19,Male,2024-04-08_10h58.17.254,jersey_experiment_5_v0,2023.2.2,Win32,85.47008547,,,,,,,,,,,,,,,,356.9553,358.2494,358.2495,359.8023,return,0.0433,,23.828125,,,,,,FBP-OG-19.png,0.35,1.2,11,0.5,0,50,50,10,1,,,,,,,,,,,,,,,,,,,,,,,,,,,,,,,,,,,,,,,,
,,,,,SPR24_011,19,Male,2024-04-08_10h58.17.254,jersey_experiment_5_v0,2023.2.2,Win32,85.47008547,,,,,,,,,,,,,,,,359.8025,360.8493,360.8494,362.8144,return,0.0728,,7.03125,,,,,,FBP-PT-91.png,0.35,1.2,56,0.25,0,51,51,55,1,,,,,,,,,,,,,,,,,,,,,,,,,,,,,,,,,,,,,,,,
,,,,,SPR24_011,19,Male,2024-04-08_10h58.17.254,jersey_experiment_5_v0,2023.2.2,Win32,85.47008547,,,,,,,,,,,,,,,,362.8146,364.1082,364.1083,365.826,return,0.1076,,74.08854167,,,,,,FBP-OG-17.png,0.43,1.2,4,0.5,0,52,52,3,1,,,,,,,,,,,,,,,,,,,,,,,,,,,,,,,,,,,,,,,,
,,,,,SPR24_011,19,Male,2024-04-08_10h58.17.254,jersey_experiment_5_v0,2023.2.2,Win32,85.47008547,,,,,,,,,,,,,,,,365.8263,366.8731,366.8731,368.6026,return,0.0663,,30.078125,,,,,,FBP-YG-91.png,0.37,1.2,27,0.25,0,53,53,26,1,,,,,,,,,,,,,,,,,,,,,,,,,,,,,,,,,,,,,,,,
,,,,,SPR24_011,19,Male,2024-04-08_10h58.17.254,jersey_experiment_5_v0,2023.2.2,Win32,85.47008547,,,,,,,,,,,,,,,,368.6028,369.8968,369.8968,372.2028,return,1.0644,,87.36979167,,,,,,FBP-RB-81.png,0.4,1.2,38,0.5,0,54,54,37,1,,,,,,,,,,,,,,,,,,,,,,,,,,,,,,,,,,,,,,,,
,,,,,SPR24_011,19,Male,2024-04-08_10h58.17.254,jersey_experiment_5_v0,2023.2.2,Win32,85.47008547,,,,,,,,,,,,,,,,372.203,373.2498,373.2498,375.0735,return,0.1088,,75.78125,,,,,,FBP-PT-81.png,0.4,1.2,53,0.25,0,55,55,52,1,,,,,,,,,,,,,,,,,,,,,,,,,,,,,,,,,,,,,,,,
,,,,,SPR24_011,19,Male,2024-04-08_10h58.17.254,jersey_experiment_5_v0,2023.2.2,Win32,85.47008547,,,,,,,,,,,,,,,,375.0736,376.3676,376.3676,378.1089,return,0.4036,,44.66145833,,,,,,FBP-RB-91.png,0.37,1.2,42,0.5,0,56,56,41,1,,,,,,,,,,,,,,,,,,,,,,,,,,,,,,,,,,,,,,,,
,,,,,SPR24_011,19,Male,2024-04-08_10h58.17.254,jersey_experiment_5_v0,2023.2.2,Win32,85.47008547,,,,,,,,,,,,,,,,378.109,379.1559,379.1559,380.3794,return,0.1005,,90.234375,,,,,,FBP-YG-81.png,0.45,1.2,25,0.25,0,57,57,24,1,,,,,,,,,,,,,,,,,,,,,,,,,,,,,,,,,,,,,,,,
,,,,,SPR24_011,19,Male,2024-04-08_10h58.17.254,jersey_experiment_5_v0,2023.2.2,Win32,85.47008547,,,,,,,,,,,,,,,,380.3797,381.4265,381.4266,382.4265,return,0.0645,,78.77604167,,,,,,FBP-PT-91.png,0.43,1.2,59,0.25,0,58,58,58,1,,,,,,,,,,,,,,,,,,,,,,,,,,,,,,,,,,,,,,,,
,,,,,SPR24_011,19,Male,2024-04-08_10h58.17.254,jersey_experiment_5_v0,2023.2.2,Win32,85.47008547,,,,,,,,,,,,,,,,382.4267,383.4737,383.4737,385.4739,return,0.0837,,46.09375,,,,,,FBP-PT-71.png,0.37,1.2,47,0.25,0,59,59,46,1,,,,,,,,,,,,,,,,,,,,,,,,,,,,,,,,,,,,,,,,
,,,,,SPR24_011,19,Male,2024-04-08_10h58.17.254,jersey_experiment_5_v0,2023.2.2,Win32,85.47008547,,,,,,,,,,,,,,,,,,,,,,,,,,,,,,,,,,,,,,,385.4742,505.4669,,,,,,,,,,,,,,,,,,,,,,,,,,,,,,,,,,,,,,
,,,,,SPR24_011,19,Male,2024-04-08_10h58.17.254,jersey_experiment_5_v0,2023.2.2,Win32,85.47008547,,,,,,,,,,,,,,,,,,,,,,,,,,,,,,,,,,,,,,,,,505.4671,510.373,return,4.8928,,,,,,,,,,,,,,,,,,,,,,,,,,,,,,,,,,
,,,,,SPR24_011,19,Male,2024-04-08_10h58.17.254,jersey_experiment_5_v0,2023.2.2,Win32,85.47008547,,,,,,,,,,,,,,,,510.3788,511.4316,511.4316,512.8787,return,0.5446,,70.57291667,,,,,,FBP-RB-18.png,0.45,1.2,40,0.25,,,,,,,,,,,,,0,0,0,39,1,,,,,,,,,,,,,,,,,,,,,,,,,,,,
,,,,,SPR24_011,19,Male,2024-04-08_10h58.17.254,jersey_experiment_5_v0,2023.2.2,Win32,85.47008547,,,,,,,,,,,,,,,,512.8789,514.1728,514.1729,515.9847,return,1.0232,,26.04166667,,,,,,FBP-YG-17.png,0.35,1.2,16,0.5,,,,,,,,,,,,,0,1,1,15,1,,,,,,,,,,,,,,,,,,,,,,,,,,,,
,,,,,SPR24_011,19,Male,2024-04-08_10h58.17.254,jersey_experiment_5_v0,2023.2.2,Win32,85.47008547,,,,,,,,,,,,,,,,515.9849,517.2787,517.2788,518.4907,return,0.1234,,57.94270833,,,,,,FBP-YG-17.png,0.4,1.2,18,0.5,,,,,,,,,,,,,0,2,2,17,1,,,,,,,,,,,,,,,,,,,,,,,,,,,,
,,,,,SPR24_011,19,Male,2024-04-08_10h58.17.254,jersey_experiment_5_v0,2023.2.2,Win32,85.47008547,,,,,,,,,,,,,,,,518.4909,519.7847,519.7847,521.7965,return,1.3751,,71.09375,,,,,,FBP-YG-18.png,0.43,1.2,24,0.5,,,,,,,,,,,,,0,3,3,23,1,,,,,,,,,,,,,,,,,,,,,,,,,,,,
,,,,,SPR24_011,19,Male,2024-04-08_10h58.17.254,jersey_experiment_5_v0,2023.2.2,Win32,85.47008547,,,,,,,,,,,,,,,,521.7968,522.8437,522.8437,524.0674,return,0.3902,,81.51041667,,,,,,FBP-RB-18.png,0.43,1.2,39,0.25,,,,,,,,,,,,,0,4,4,38,1,,,,,,,,,,,,,,,,,,,,,,,,,,,,
,,,,,SPR24_011,19,Male,2024-04-08_10h58.17.254,jersey_experiment_5_v0,2023.2.2,Win32,85.47008547,,,,,,,,,,,,,,,,524.0676,525.1143,525.1144,526.1732,return,0.3811,,87.5,,,,,,FBP-RB-19.png,0.45,1.2,45,0.25,,,,,,,,,,,,,0,5,5,44,1,,,,,,,,,,,,,,,,,,,,,,,,,,,,
,,,,,SPR24_011,19,Male,2024-04-08_10h58.17.254,jersey_experiment_5_v0,2023.2.2,Win32,85.47008547,,,,,,,,,,,,,,,,526.1733,527.4674,527.4674,528.4439,return,0.0735,,54.16666667,,,,,,FBP-YG-19.png,0.37,1.2,27,0.5,,,,,,,,,,,,,0,6,6,26,1,,,,,,,,,,,,,,,,,,,,,,,,,,,,
,,,,,SPR24_011,19,Male,2024-04-08_10h58.17.254,jersey_experiment_5_v0,2023.2.2,Win32,85.47008547,,,,,,,,,,,,,,,,528.4441,529.7381,529.7381,530.5616,return,0.0613,,44.01041667,,,,,,FBP-PT-18.png,0.35,1.2,51,0.5,,,,,,,,,,,,,0,7,7,50,1,,,,,,,,,,,,,,,,,,,,,,,,,,,,
,,,,,SPR24_011,19,Male,2024-04-08_10h58.17.254,jersey_experiment_5_v0,2023.2.2,Win32,85.47008547,,,,,,,,,,,,,,,,530.5619,531.6086,531.6087,532.8206,return,0.0242,,44.79166667,,,,,,FBP-RB-19.png,0.37,1.2,42,0.25,,,,,,,,,,,,,0,8,8,41,1,,,,,,,,,,,,,,,,,,,,,,,,,,,,
,,,,,SPR24_011,19,Male,2024-04-08_10h58.17.254,jersey_experiment_5_v0,2023.2.2,Win32,85.47008547,,,,,,,,,,,,,,,,532.8209,534.1147,534.1147,535.9502,return,1.1318,,65.36458333,,,,,,FBP-YG-19.png,0.43,1.2,29,0.5,,,,,,,,,,,,,0,9,9,28,1,,,,,,,,,,,,,,,,,,,,,,,,,,,,
,,,,,SPR24_011,19,Male,2024-04-08_10h58.17.254,jersey_experiment_5_v0,2023.2.2,Win32,85.47008547,,,,,,,,,,,,,,,,535.9504,537.2442,537.2442,538.0913,return,0.0756,,74.21875,,,,,,FBP-PT-17.png,0.43,1.2,49,0.5,,,,,,,,,,,,,0,10,10,48,1,,,,,,,,,,,,,,,,,,,,,,,,,,,,
,,,,,SPR24_011,19,Male,2024-04-08_10h58.17.254,jersey_experiment_5_v0,2023.2.2,Win32,85.47008547,,,,,,,,,,,,,,,,538.0916,539.1384,539.1384,540.3974,return,0.1811,,69.53125,,,,,,FBP-OG-91.png,0.4,1.2,13,0.25,,,,,,,,,,,,,0,11,11,12,1,,,,,,,,,,,,,,,,,,,,,,,,,,,,
,,,,,SPR24_011,19,Male,2024-04-08_10h58.17.254,jersey_experiment_5_v0,2023.2.2,Win32,85.47008547,,,,,,,,,,,,,,,,540.3977,541.6915,541.6915,542.5151,return,0.1186,,82.94270833,,,,,,FBP-PT-18.png,0.45,1.2,55,0.5,,,,,,,,,,,,,0,12,12,54,1,,,,,,,,,,,,,,,,,,,,,,,,,,,,
,,,,,SPR24_011,19,Male,2024-04-08_10h58.17.254,jersey_experiment_5_v0,2023.2.2,Win32,85.47008547,,,,,,,,,,,,,,,,542.5153,543.562,543.5621,544.7858,return,0.118,,34.89583333,,,,,,FBP-OG-91.png,0.35,1.2,11,0.25,,,,,,,,,,,,,0,13,13,10,1,,,,,,,,,,,,,,,,,,,,,,,,,,,,
,,,,,SPR24_011,19,Male,2024-04-08_10h58.17.254,jersey_experiment_5_v0,2023.2.2,Win32,85.47008547,,,,,,,,,,,,,,,,544.786,545.8328,545.8328,546.9387,return,0.113,,20.96354167,,,,,,FBP-RB-19.png,0.35,1.2,41,0.25,,,,,,,,,,,,,0,14,14,40,1,,,,,,,,,,,,,,,,,,,,,,,,,,,,
,,,,,SPR24_011,19,Male,2024-04-08_10h58.17.254,jersey_experiment_5_v0,2023.2.2,Win32,85.47008547,,,,,,,,,,,,,,,,546.939,547.9858,547.9858,549.0683,return,0.0765,,7.421875,,,,,,FBP-OG-81.png,0.35,1.2,6,0.25,,,,,,,,,,,,,0,15,15,5,1,,,,,,,,,,,,,,,,,,,,,,,,,,,,
,,,,,SPR24_011,19,Male,2024-04-08_10h58.17.254,jersey_experiment_5_v0,2023.2.2,Win32,85.47008547,,,,,,,,,,,,,,,,549.0686,550.1153,550.1153,551.7625,return,0.4234,,71.74479167,,,,,,FBP-RB-19.png,0.4,1.2,43,0.25,,,,,,,,,,,,,0,16,16,42,1,,,,,,,,,,,,,,,,,,,,,,,,,,,,
,,,,,SPR24_011,19,Male,2024-04-08_10h58.17.254,jersey_experiment_5_v0,2023.2.2,Win32,85.47008547,,,,,,,,,,,,,,,,551.7627,553.0566,553.0566,553.833,return,0.0913,,64.71354167,,,,,,FBP-YG-18.png,0.45,1.2,25,0.5,,,,,,,,,,,,,0,17,17,24,1,,,,,,,,,,,,,,,,,,,,,,,,,,,,
,,,,,SPR24_011,19,Male,2024-04-08_10h58.17.254,jersey_experiment_5_v0,2023.2.2,Win32,85.47008547,,,,,,,,,,,,,,,,553.8331,555.1273,555.1273,555.9625,return,0.0396,,80.20833333,,,,,,FBP-PT-19.png,0.43,1.2,59,0.5,,,,,,,,,,,,,0,18,18,58,1,,,,,,,,,,,,,,,,,,,,,,,,,,,,
,,,,,SPR24_011,19,Male,2024-04-08_10h58.17.254,jersey_experiment_5_v0,2023.2.2,Win32,85.47008547,,,,,,,,,,,,,,,,555.9627,557.2566,557.2568,558.1628,return,0.0691,,31.640625,,,,,,FBP-PT-17.png,0.35,1.2,46,0.5,,,,,,,,,,,,,0,19,19,45,1,,,,,,,,,,,,,,,,,,,,,,,,,,,,
,,,,,SPR24_011,19,Male,2024-04-08_10h58.17.254,jersey_experiment_5_v0,2023.2.2,Win32,85.47008547,,,,,,,,,,,,,,,,558.163,559.4568,559.4569,560.6099,return,0.0724,,81.51041667,,,,,,FBP-YG-19.png,0.45,1.2,30,0.5,,,,,,,,,,,,,0,20,20,29,1,,,,,,,,,,,,,,,,,,,,,,,,,,,,
,,,,,SPR24_011,19,Male,2024-04-08_10h58.17.254,jersey_experiment_5_v0,2023.2.2,Win32,85.47008547,,,,,,,,,,,,,,,,560.61,561.6569,561.657,562.7982,return,0.0725,,55.078125,,,,,,FBP-RB-18.png,0.4,1.2,38,0.25,,,,,,,,,,,,,0,21,21,37,1,,,,,,,,,,,,,,,,,,,,,,,,,,,,
,,,,,SPR24_011,19,Male,2024-04-08_10h58.17.254,jersey_experiment_5_v0,2023.2.2,Win32,85.47008547,,,,,,,,,,,,,,,,562.7984,564.0923,564.0924,564.9277,return,0.0493,,35.80729167,,,,,,FBP-PT-18.png,0.37,1.2,52,0.5,,,,,,,,,,,,,0,22,22,51,1,,,,,,,,,,,,,,,,,,,,,,,,,,,,
,,,,,SPR24_011,19,Male,2024-04-08_10h58.17.254,jersey_experiment_5_v0,2023.2.2,Win32,85.47008547,,,,,,,,,,,,,,,,564.9278,566.2217,566.2218,567.163,return,0.0642,,21.875,,,,,,FBP-YG-19.png,0.35,1.2,26,0.5,,,,,,,,,,,,,0,23,23,25,1,,,,,,,,,,,,,,,,,,,,,,,,,,,,
,,,,,SPR24_011,19,Male,2024-04-08_10h58.17.254,jersey_experiment_5_v0,2023.2.2,Win32,85.47008547,,,,,,,,,,,,,,,,567.1632,568.2102,568.2103,569.7632,return,0.048,,29.55729167,,,,,,FBP-OG-71.png,0.35,1.2,1,0.25,,,,,,,,,,,,,0,24,24,0,1,,,,,,,,,,,,,,,,,,,,,,,,,,,,
,,,,,SPR24_011,19,Male,2024-04-08_10h58.17.254,jersey_experiment_5_v0,2023.2.2,Win32,85.47008547,,,,,,,,,,,,,,,,569.7635,570.8102,570.8102,571.6809,return,0.1056,,34.24479167,,,,,,FBP-RB-18.png,0.37,1.2,37,0.25,,,,,,,,,,,,,0,25,25,36,1,,,,,,,,,,,,,,,,,,,,,,,,,,,,
,,,,,SPR24_011,19,Male,2024-04-08_10h58.17.254,jersey_experiment_5_v0,2023.2.2,Win32,85.47008547,,,,,,,,,,,,,,,,571.6811,572.7278,572.7279,574.0455,return,0.0497,,73.95833333,,,,,,FBP-OG-71.png,0.45,1.2,5,0.25,,,,,,,,,,,,,0,26,26,4,1,,,,,,,,,,,,,,,,,,,,,,,,,,,,
,,,,,SPR24_011,19,Male,2024-04-08_10h58.17.254,jersey_experiment_5_v0,2023.2.2,Win32,85.47008547,,,,,,,,,,,,,,,,574.0458,575.0926,575.0927,576.1868,return,0.0659,,57.55208333,,,,,,FBP-RB-17.png,0.4,1.2,33,0.25,,,,,,,,,,,,,0,27,27,32,1,,,,,,,,,,,,,,,,,,,,,,,,,,,,
,,,,,SPR24_011,19,Male,2024-04-08_10h58.17.254,jersey_experiment_5_v0,2023.2.2,Win32,85.47008547,,,,,,,,,,,,,,,,576.1871,577.2339,577.234,578.4811,return,0.0479,,41.53645833,,,,,,FBP-RB-17.png,0.35,1.2,31,0.25,,,,,,,,,,,,,0,28,28,30,1,,,,,,,,,,,,,,,,,,,,,,,,,,,,
,,,,,SPR24_011,19,Male,2024-04-08_10h58.17.254,jersey_experiment_5_v0,2023.2.2,Win32,85.47008547,,,,,,,,,,,,,,,,578.4813,579.7751,579.7752,580.94,return,0.1456,,41.27604167,,,,,,FBP-PT-17.png,0.37,1.2,47,0.5,,,,,,,,,,,,,0,29,29,46,1,,,,,,,,,,,,,,,,,,,,,,,,,,,,
,,,,,SPR24_011,19,Male,2024-04-08_10h58.17.254,jersey_experiment_5_v0,2023.2.2,Win32,85.47008547,,,,,,,,,,,,,,,,580.9402,581.9871,581.9871,582.9637,return,0.084,,61.71875,,,,,,FBP-OG-81.png,0.4,1.2,8,0.25,,,,,,,,,,,,,0,30,30,7,1,,,,,,,,,,,,,,,,,,,,,,,,,,,,
,,,,,SPR24_011,19,Male,2024-04-08_10h58.17.254,jersey_experiment_5_v0,2023.2.2,Win32,85.47008547,,,,,,,,,,,,,,,,582.9639,584.0107,584.0107,584.9167,return,0.0705,,71.22395833,,,,,,FBP-RB-17.png,0.43,1.2,34,0.25,,,,,,,,,,,,,0,31,31,33,1,,,,,,,,,,,,,,,,,,,,,,,,,,,,
,,,,,SPR24_011,19,Male,2024-04-08_10h58.17.254,jersey_experiment_5_v0,2023.2.2,Win32,85.47008547,,,,,,,,,,,,,,,,584.9169,585.9637,585.9637,586.8814,return,0.0946,,77.21354167,,,,,,FBP-RB-19.png,0.43,1.2,44,0.25,,,,,,,,,,,,,0,32,32,43,1,,,,,,,,,,,,,,,,,,,,,,,,,,,,
,,,,,SPR24_011,19,Male,2024-04-08_10h58.17.254,jersey_experiment_5_v0,2023.2.2,Win32,85.47008547,,,,,,,,,,,,,,,,586.8816,587.9285,587.9286,589.0815,return,0.3969,,93.09895833,,,,,,FBP-RB-17.png,0.45,1.2,35,0.25,,,,,,,,,,,,,0,33,33,34,1,,,,,,,,,,,,,,,,,,,,,,,,,,,,
,,,,,SPR24_011,19,Male,2024-04-08_10h58.17.254,jersey_experiment_5_v0,2023.2.2,Win32,85.47008547,,,,,,,,,,,,,,,,589.0817,590.1286,590.1286,590.9286,return,0.105,,86.328125,,,,,,FBP-OG-91.png,0.43,1.2,14,0.25,,,,,,,,,,,,,0,34,34,13,1,,,,,,,,,,,,,,,,,,,,,,,,,,,,
,,,,,SPR24_011,19,Male,2024-04-08_10h58.17.254,jersey_experiment_5_v0,2023.2.2,Win32,85.47008547,,,,,,,,,,,,,,,,590.9288,591.9757,591.9758,593.5874,return,0.034,,56.640625,,,,,,FBP-RB-17.png,0.37,1.2,32,0.25,,,,,,,,,,,,,0,35,35,31,1,,,,,,,,,,,,,,,,,,,,,,,,,,,,
,,,,,SPR24_011,19,Male,2024-04-08_10h58.17.254,jersey_experiment_5_v0,2023.2.2,Win32,85.47008547,,,,,,,,,,,,,,,,593.5877,594.8817,594.8817,595.9524,return,0.0603,,27.99479167,,,,,,FBP-YG-18.png,0.35,1.2,21,0.5,,,,,,,,,,,,,0,36,36,20,1,,,,,,,,,,,,,,,,,,,,,,,,,,,,
,,,,,SPR24_011,19,Male,2024-04-08_10h58.17.254,jersey_experiment_5_v0,2023.2.2,Win32,85.47008547,,,,,,,,,,,,,,,,595.9526,597.2467,597.2467,597.9405,return,0.0708,,69.27083333,,,,,,FBP-PT-17.png,0.45,1.2,50,0.5,,,,,,,,,,,,,0,37,37,49,1,,,,,,,,,,,,,,,,,,,,,,,,,,,,
,,,,,SPR24_011,19,Male,2024-04-08_10h58.17.254,jersey_experiment_5_v0,2023.2.2,Win32,85.47008547,,,,,,,,,,,,,,,,597.9408,599.2347,599.2347,600.3526,return,0.0948,,49.73958333,,,,,,FBP-YG-18.png,0.4,1.2,23,0.5,,,,,,,,,,,,,0,38,38,22,1,,,,,,,,,,,,,,,,,,,,,,,,,,,,
,,,,,SPR24_011,19,Male,2024-04-08_10h58.17.254,jersey_experiment_5_v0,2023.2.2,Win32,85.47008547,,,,,,,,,,,,,,,,600.3529,601.6467,601.6467,602.329,return,0.0782,,63.41145833,,,,,,FBP-PT-18.png,0.43,1.2,54,0.5,,,,,,,,,,,,,0,39,39,53,1,,,,,,,,,,,,,,,,,,,,,,,,,,,,
,,,,,SPR24_011,19,Male,2024-04-08_10h58.17.254,jersey_experiment_5_v0,2023.2.2,Win32,85.47008547,,,,,,,,,,,,,,,,602.3293,603.6232,603.6232,604.4115,return,0.0536,,39.0625,,,,,,FBP-PT-19.png,0.37,1.2,57,0.5,,,,,,,,,,,,,0,40,40,56,1,,,,,,,,,,,,,,,,,,,,,,,,,,,,
,,,,,SPR24_011,19,Male,2024-04-08_10h58.17.254,jersey_experiment_5_v0,2023.2.2,Win32,85.47008547,,,,,,,,,,,,,,,,604.4117,605.7056,605.7057,606.5409,return,0.0505,,57.68229167,,,,,,FBP-YG-19.png,0.4,1.2,28,0.5,,,,,,,,,,,,,0,41,41,27,1,,,,,,,,,,,,,,,,,,,,,,,,,,,,
,,,,,SPR24_011,19,Male,2024-04-08_10h58.17.254,jersey_experiment_5_v0,2023.2.2,Win32,85.47008547,,,,,,,,,,,,,,,,606.5412,607.8351,607.8351,608.3645,return,0.0992,,66.796875,,,,,,FBP-YG-17.png,0.43,1.2,19,0.5,,,,,,,,,,,,,0,42,42,18,1,,,,,,,,,,,,,,,,,,,,,,,,,,,,
,,,,,SPR24_011,19,Male,2024-04-08_10h58.17.254,jersey_experiment_5_v0,2023.2.2,Win32,85.47008547,,,,,,,,,,,,,,,,608.3648,609.4116,609.4117,610.3292,return,0.0309,,53.64583333,,,,,,FBP-OG-71.png,0.37,1.2,2,0.25,,,,,,,,,,,,,0,43,43,1,1,,,,,,,,,,,,,,,,,,,,,,,,,,,,
,,,,,SPR24_011,19,Male,2024-04-08_10h58.17.254,jersey_experiment_5_v0,2023.2.2,Win32,85.47008547,,,,,,,,,,,,,,,,610.3295,611.3764,611.3764,611.9293,return,0.0438,,62.63020833,,,,,,FBP-OG-81.png,0.43,1.2,9,0.25,,,,,,,,,,,,,0,44,44,8,1,,,,,,,,,,,,,,,,,,,,,,,,,,,,
,,,,,SPR24_011,19,Male,2024-04-08_10h58.17.254,jersey_experiment_5_v0,2023.2.2,Win32,85.47008547,,,,,,,,,,,,,,,,611.9295,612.9763,612.9764,613.9883,return,0.0236,,35.28645833,,,,,,FBP-RB-18.png,0.35,1.2,36,0.25,,,,,,,,,,,,,0,45,45,35,1,,,,,,,,,,,,,,,,,,,,,,,,,,,,
,,,,,SPR24_011,19,Male,2024-04-08_10h58.17.254,jersey_experiment_5_v0,2023.2.2,Win32,85.47008547,,,,,,,,,,,,,,,,613.9885,615.2825,615.2825,615.8355,return,0.0282,,71.35416667,,,,,,FBP-PT-19.png,0.45,1.2,60,0.5,,,,,,,,,,,,,0,46,46,59,1,,,,,,,,,,,,,,,,,,,,,,,,,,,,
,,,,,SPR24_011,19,Male,2024-04-08_10h58.17.254,jersey_experiment_5_v0,2023.2.2,Win32,85.47008547,,,,,,,,,,,,,,,,615.8356,617.1296,617.1297,617.8708,return,0.0741,,80.59895833,,,,,,FBP-YG-17.png,0.45,1.2,20,0.5,,,,,,,,,,,,,0,47,47,19,1,,,,,,,,,,,,,,,,,,,,,,,,,,,,
,,,,,SPR24_011,19,Male,2024-04-08_10h58.17.254,jersey_experiment_5_v0,2023.2.2,Win32,85.47008547,,,,,,,,,,,,,,,,617.8709,619.165,619.165,620.2122,return,0.0838,,58.72395833,,,,,,FBP-PT-19.png,0.4,1.2,58,0.5,,,,,,,,,,,,,0,48,48,57,1,,,,,,,,,,,,,,,,,,,,,,,,,,,,
,,,,,SPR24_011,19,Male,2024-04-08_10h58.17.254,jersey_experiment_5_v0,2023.2.2,Win32,85.47008547,,,,,,,,,,,,,,,,620.2123,621.259,621.2591,622.0592,return,0.0644,,39.58333333,,,,,,FBP-OG-81.png,0.37,1.2,7,0.25,,,,,,,,,,,,,0,49,49,6,1,,,,,,,,,,,,,,,,,,,,,,,,,,,,
,,,,,SPR24_011,19,Male,2024-04-08_10h58.17.254,jersey_experiment_5_v0,2023.2.2,Win32,85.47008547,,,,,,,,,,,,,,,,622.0594,623.1062,623.1062,624.1298,return,0.1277,,55.859375,,,,,,FBP-OG-71.png,0.4,1.2,3,0.25,,,,,,,,,,,,,0,50,50,2,1,,,,,,,,,,,,,,,,,,,,,,,,,,,,
,,,,,SPR24_011,19,Male,2024-04-08_10h58.17.254,jersey_experiment_5_v0,2023.2.2,Win32,85.47008547,,,,,,,,,,,,,,,,624.1299,625.424,625.424,625.9771,return,0.0541,,36.71875,,,,,,FBP-YG-18.png,0.37,1.2,22,0.5,,,,,,,,,,,,,0,51,51,21,1,,,,,,,,,,,,,,,,,,,,,,,,,,,,
,,,,,SPR24_011,19,Male,2024-04-08_10h58.17.254,jersey_experiment_5_v0,2023.2.2,Win32,85.47008547,,,,,,,,,,,,,,,,625.9773,627.2712,627.2712,628.0947,return,0.0482,,27.08333333,,,,,,FBP-PT-18.png,0.4,1.2,53,0.5,,,,,,,,,,,,,0,52,52,52,1,,,,,,,,,,,,,,,,,,,,,,,,,,,,
,,,,,SPR24_011,19,Male,2024-04-08_10h58.17.254,jersey_experiment_5_v0,2023.2.2,Win32,85.47008547,,,,,,,,,,,,,,,,628.095,629.1418,629.1418,630.1419,return,0.0497,,35.15625,,,,,,FBP-OG-91.png,0.37,1.2,12,0.25,,,,,,,,,,,,,0,53,53,11,1,,,,,,,,,,,,,,,,,,,,,,,,,,,,
,,,,,SPR24_011,19,Male,2024-04-08_10h58.17.254,jersey_experiment_5_v0,2023.2.2,Win32,85.47008547,,,,,,,,,,,,,,,,630.1421,631.1889,631.1889,631.9772,return,0.1249,,62.109375,,,,,,FBP-OG-71.png,0.43,1.2,4,0.25,,,,,,,,,,,,,0,54,54,3,1,,,,,,,,,,,,,,,,,,,,,,,,,,,,
,,,,,SPR24_011,19,Male,2024-04-08_10h58.17.254,jersey_experiment_5_v0,2023.2.2,Win32,85.47008547,,,,,,,,,,,,,,,,631.9774,633.2714,633.2715,634.142,return,0.0493,,34.11458333,,,,,,FBP-YG-17.png,0.37,1.2,17,0.5,,,,,,,,,,,,,0,55,55,16,1,,,,,,,,,,,,,,,,,,,,,,,,,,,,
,,,,,SPR24_011,19,Male,2024-04-08_10h58.17.254,jersey_experiment_5_v0,2023.2.2,Win32,85.47008547,,,,,,,,,,,,,,,,634.1423,635.4362,635.4363,636.2833,return,0.1828,,27.86458333,,,,,,FBP-PT-19.png,0.35,1.2,56,0.5,,,,,,,,,,,,,0,56,56,55,1,,,,,,,,,,,,,,,,,,,,,,,,,,,,
,,,,,SPR24_011,19,Male,2024-04-08_10h58.17.254,jersey_experiment_5_v0,2023.2.2,Win32,85.47008547,,,,,,,,,,,,,,,,636.2836,637.5775,637.5775,639.0834,return,0.0744,,45.18229167,,,,,,FBP-PT-17.png,0.4,1.2,48,0.5,,,,,,,,,,,,,0,57,57,47,1,,,,,,,,,,,,,,,,,,,,,,,,,,,,
,,,,,SPR24_011,19,Male,2024-04-08_10h58.17.254,jersey_experiment_5_v0,2023.2.2,Win32,85.47008547,,,,,,,,,,,,,,,,639.0837,640.1304,640.1304,641.0364,return,0.0738,,69.140625,,,,,,FBP-OG-81.png,0.45,1.2,10,0.25,,,,,,,,,,,,,0,58,58,9,1,,,,,,,,,,,,,,,,,,,,,,,,,,,,
,,,,,SPR24_011,19,Male,2024-04-08_10h58.17.254,jersey_experiment_5_v0,2023.2.2,Win32,85.47008547,,,,,,,,,,,,,,,,641.0366,642.0835,642.0835,643.1308,return,0.3592,,84.765625,,,,,,FBP-OG-91.png,0.45,1.2,15,0.25,,,,,,,,,,,,,0,59,59,14,1,,,,,,,,,,,,,,,,,,,,,,,,,,,,
,,,,,SPR24_011,19,Male,2024-04-08_10h58.17.254,jersey_experiment_5_v0,2023.2.2,Win32,85.47008547,,,,,,,,,,,,,,,,643.1321,644.4249,644.4249,645.6836,return,0.1042,,62.76041667,,,,,,FBP-PT-91.png,0.4,1.2,58,0.5,,,,,,,,,,,,,,,,,,0,0,0,57,1,,,,,,,,,,,,,,,,,,,,,,,
,,,,,SPR24_011,19,Male,2024-04-08_10h58.17.254,jersey_experiment_5_v0,2023.2.2,Win32,85.47008547,,,,,,,,,,,,,,,,645.6839,646.9777,646.9778,647.7896,return,0.1336,,39.0625,,,,,,FBP-PT-71.png,0.35,1.2,46,0.5,,,,,,,,,,,,,,,,,,0,1,1,45,1,,,,,,,,,,,,,,,,,,,,,,,
,,,,,SPR24_011,19,Male,2024-04-08_10h58.17.254,jersey_experiment_5_v0,2023.2.2,Win32,85.47008547,,,,,,,,,,,,,,,,647.7898,649.0837,649.0837,650.0603,return,0.0149,,49.08854167,,,,,,FBP-PT-81.png,0.43,1.2,54,0.5,,,,,,,,,,,,,,,,,,0,2,2,53,1,,,,,,,,,,,,,,,,,,,,,,,
,,,,,SPR24_011,19,Male,2024-04-08_10h58.17.254,jersey_experiment_5_v0,2023.2.2,Win32,85.47008547,,,,,,,,,,,,,,,,650.0604,651.1073,651.1074,652.0603,return,0.1235,,60.02604167,,,,,,FBP-RB-71.png,0.43,1.2,34,0.25,,,,,,,,,,,,,,,,,,0,3,3,33,1,,,,,,,,,,,,,,,,,,,,,,,
,,,,,SPR24_011,19,Male,2024-04-08_10h58.17.254,jersey_experiment_5_v0,2023.2.2,Win32,85.47008547,,,,,,,,,,,,,,,,652.0605,653.3545,653.3545,654.9076,return,0.9008,,25.91145833,,,,,,FBP-YG-71.png,0.35,1.2,16,0.5,,,,,,,,,,,,,,,,,,0,4,4,15,1,,,,,,,,,,,,,,,,,,,,,,,
,,,,,SPR24_011,19,Male,2024-04-08_10h58.17.254,jersey_experiment_5_v0,2023.2.2,Win32,85.47008547,,,,,,,,,,,,,,,,654.9078,655.9547,655.9547,657.0723,return,0.0723,,37.23958333,,,,,,FBP-RB-71.png,0.4,1.2,33,0.25,,,,,,,,,,,,,,,,,,0,5,5,32,1,,,,,,,,,,,,,,,,,,,,,,,
,,,,,SPR24_011,19,Male,2024-04-08_10h58.17.254,jersey_experiment_5_v0,2023.2.2,Win32,85.47008547,,,,,,,,,,,,,,,,657.0724,658.1194,658.1195,659.1783,return,0.1007,,43.22916667,,,,,,FBP-RB-91.png,0.4,1.2,43,0.25,,,,,,,,,,,,,,,,,,0,6,6,42,1,,,,,,,,,,,,,,,,,,,,,,,
,,,,,SPR24_011,19,Male,2024-04-08_10h58.17.254,jersey_experiment_5_v0,2023.2.2,Win32,85.47008547,,,,,,,,,,,,,,,,659.1785,660.2253,660.2253,660.9903,return,0.0952,,64.84375,,,,,,FBP-OG-19.png,0.45,1.2,15,0.25,,,,,,,,,,,,,,,,,,0,7,7,14,1,,,,,,,,,,,,,,,,,,,,,,,
,,,,,SPR24_011,19,Male,2024-04-08_10h58.17.254,jersey_experiment_5_v0,2023.2.2,Win32,85.47008547,,,,,,,,,,,,,,,,660.9905,662.0372,662.0373,663.2254,return,0.0908,,51.69270833,,,,,,FBP-RB-81.png,0.43,1.2,39,0.25,,,,,,,,,,,,,,,,,,0,8,8,38,1,,,,,,,,,,,,,,,,,,,,,,,
,,,,,SPR24_011,19,Male,2024-04-08_10h58.17.254,jersey_experiment_5_v0,2023.2.2,Win32,85.47008547,,,,,,,,,,,,,,,,663.2256,664.2725,664.2726,665.8725,return,0.072,,25,,,,,,FBP-RB-71.png,0.37,1.2,32,0.25,,,,,,,,,,,,,,,,,,0,9,9,31,1,,,,,,,,,,,,,,,,,,,,,,,
,,,,,SPR24_011,19,Male,2024-04-08_10h58.17.254,jersey_experiment_5_v0,2023.2.2,Win32,85.47008547,,,,,,,,,,,,,,,,665.8727,667.1667,667.1667,668.0608,return,0.0758,,45.3125,,,,,,FBP-PT-81.png,0.4,1.2,53,0.5,,,,,,,,,,,,,,,,,,0,10,10,52,1,,,,,,,,,,,,,,,,,,,,,,,
,,,,,SPR24_011,19,Male,2024-04-08_10h58.17.254,jersey_experiment_5_v0,2023.2.2,Win32,85.47008547,,,,,,,,,,,,,,,,668.061,669.355,669.355,669.9552,return,0.1083,,36.84895833,,,,,,FBP-YG-91.png,0.4,1.2,28,0.5,,,,,,,,,,,,,,,,,,0,11,11,27,1,,,,,,,,,,,,,,,,,,,,,,,
,,,,,SPR24_011,19,Male,2024-04-08_10h58.17.254,jersey_experiment_5_v0,2023.2.2,Win32,85.47008547,,,,,,,,,,,,,,,,669.9554,671.2491,671.2492,672.5082,return,0.1467,,54.42708333,,,,,,FBP-YG-81.png,0.45,1.2,25,0.5,,,,,,,,,,,,,,,,,,0,12,12,24,1,,,,,,,,,,,,,,,,,,,,,,,
,,,,,SPR24_011,19,Male,2024-04-08_10h58.17.254,jersey_experiment_5_v0,2023.2.2,Win32,85.47008547,,,,,,,,,,,,,,,,672.5085,673.8021,673.8022,674.6847,return,0.1111,,43.88020833,,,,,,FBP-PT-71.png,0.37,1.2,47,0.5,,,,,,,,,,,,,,,,,,0,13,13,46,1,,,,,,,,,,,,,,,,,,,,,,,
,,,,,SPR24_011,19,Male,2024-04-08_10h58.17.254,jersey_experiment_5_v0,2023.2.2,Win32,85.47008547,,,,,,,,,,,,,,,,674.685,675.7318,675.7318,677.9672,return,0.5672,,24.73958333,,,,,,FBP-RB-91.png,0.35,1.2,41,0.25,,,,,,,,,,,,,,,,,,0,14,14,40,1,,,,,,,,,,,,,,,,,,,,,,,
,,,,,SPR24_011,19,Male,2024-04-08_10h58.17.254,jersey_experiment_5_v0,2023.2.2,Win32,85.47008547,,,,,,,,,,,,,,,,677.9674,679.0144,679.0144,680.7555,return,0.0467,,19.40104167,,,,,,FBP-RB-91.png,0.37,1.2,42,0.25,,,,,,,,,,,,,,,,,,0,15,15,41,1,,,,,,,,,,,,,,,,,,,,,,,
,,,,,SPR24_011,19,Male,2024-04-08_10h58.17.254,jersey_experiment_5_v0,2023.2.2,Win32,85.47008547,,,,,,,,,,,,,,,,680.7558,682.0497,682.0498,683.3439,return,0.7295,,70.703125,,,,,,FBP-PT-71.png,0.45,1.2,50,0.5,,,,,,,,,,,,,,,,,,0,16,16,49,1,,,,,,,,,,,,,,,,,,,,,,,
,,,,,SPR24_011,19,Male,2024-04-08_10h58.17.254,jersey_experiment_5_v0,2023.2.2,Win32,85.47008547,,,,,,,,,,,,,,,,683.3441,684.3908,684.3908,685.4851,return,0.0505,,78.77604167,,,,,,FBP-OG-17.png,0.45,1.2,5,0.25,,,,,,,,,,,,,,,,,,0,17,17,4,1,,,,,,,,,,,,,,,,,,,,,,,
,,,,,SPR24_011,19,Male,2024-04-08_10h58.17.254,jersey_experiment_5_v0,2023.2.2,Win32,85.47008547,,,,,,,,,,,,,,,,685.4854,686.5322,686.5323,687.5677,return,0.0836,,19.79166667,,,,,,FBP-OG-17.png,0.35,1.2,1,0.25,,,,,,,,,,,,,,,,,,0,18,18,0,1,,,,,,,,,,,,,,,,,,,,,,,
,,,,,SPR24_011,19,Male,2024-04-08_10h58.17.254,jersey_experiment_5_v0,2023.2.2,Win32,85.47008547,,,,,,,,,,,,,,,,687.5679,688.6147,688.6148,690.6264,return,0.5887,,50.65104167,,,,,,FBP-OG-18.png,0.4,1.2,8,0.25,,,,,,,,,,,,,,,,,,0,19,19,7,1,,,,,,,,,,,,,,,,,,,,,,,
,,,,,SPR24_011,19,Male,2024-04-08_10h58.17.254,jersey_experiment_5_v0,2023.2.2,Win32,85.47008547,,,,,,,,,,,,,,,,690.6267,691.9206,691.9207,692.4619,return,0.0746,,59.375,,,,,,FBP-PT-91.png,0.43,1.2,59,0.5,,,,,,,,,,,,,,,,,,0,20,20,58,1,,,,,,,,,,,,,,,,,,,,,,,
,,,,,SPR24_011,19,Male,2024-04-08_10h58.17.254,jersey_experiment_5_v0,2023.2.2,Win32,85.47008547,,,,,,,,,,,,,,,,692.4621,693.756,693.756,694.5446,return,0.0948,,22.13541667,,,,,,FBP-PT-81.png,0.37,1.2,52,0.5,,,,,,,,,,,,,,,,,,0,21,21,51,1,,,,,,,,,,,,,,,,,,,,,,,
,,,,,SPR24_011,19,Male,2024-04-08_10h58.17.254,jersey_experiment_5_v0,2023.2.2,Win32,85.47008547,,,,,,,,,,,,,,,,694.5448,695.5914,695.5915,696.5797,return,0.0475,,8.854166667,,,,,,FBP-OG-18.png,0.37,1.2,7,0.25,,,,,,,,,,,,,,,,,,0,22,22,6,1,,,,,,,,,,,,,,,,,,,,,,,
,,,,,SPR24_011,19,Male,2024-04-08_10h58.17.254,jersey_experiment_5_v0,2023.2.2,Win32,85.47008547,,,,,,,,,,,,,,,,696.5799,697.8738,697.8739,699.8504,return,0.9355,,77.734375,,,,,,FBP-YG-91.png,0.45,1.2,30,0.5,,,,,,,,,,,,,,,,,,0,23,23,29,1,,,,,,,,,,,,,,,,,,,,,,,
,,,,,SPR24_011,19,Male,2024-04-08_10h58.17.254,jersey_experiment_5_v0,2023.2.2,Win32,85.47008547,,,,,,,,,,,,,,,,699.8505,701.1447,701.1447,701.8857,return,0.0719,,37.76041667,,,,,,FBP-YG-81.png,0.35,1.2,21,0.5,,,,,,,,,,,,,,,,,,0,24,24,20,1,,,,,,,,,,,,,,,,,,,,,,,
,,,,,SPR24_011,19,Male,2024-04-08_10h58.17.254,jersey_experiment_5_v0,2023.2.2,Win32,85.47008547,,,,,,,,,,,,,,,,701.8859,703.1801,703.1801,704.1916,return,0.0846,,61.19791667,,,,,,FBP-PT-81.png,0.45,1.2,55,0.5,,,,,,,,,,,,,,,,,,0,25,25,54,1,,,,,,,,,,,,,,,,,,,,,,,
,,,,,SPR24_011,19,Male,2024-04-08_10h58.17.254,jersey_experiment_5_v0,2023.2.2,Win32,85.47008547,,,,,,,,,,,,,,,,704.1919,705.4859,705.4859,706.8978,return,0.0608,,70.57291667,,,,,,FBP-YG-71.png,0.43,1.2,19,0.5,,,,,,,,,,,,,,,,,,0,26,26,18,1,,,,,,,,,,,,,,,,,,,,,,,
,,,,,SPR24_011,19,Male,2024-04-08_10h58.17.254,jersey_experiment_5_v0,2023.2.2,Win32,85.47008547,,,,,,,,,,,,,,,,706.8981,708.1919,708.1919,708.7212,return,0.0578,,65.88541667,,,,,,FBP-YG-81.png,0.43,1.2,24,0.5,,,,,,,,,,,,,,,,,,0,27,27,23,1,,,,,,,,,,,,,,,,,,,,,,,
,,,,,SPR24_011,19,Male,2024-04-08_10h58.17.254,jersey_experiment_5_v0,2023.2.2,Win32,85.47008547,,,,,,,,,,,,,,,,708.7215,710.0155,710.0155,710.6861,return,0.1096,,38.80208333,,,,,,FBP-PT-81.png,0.35,1.2,51,0.5,,,,,,,,,,,,,,,,,,0,28,28,50,1,,,,,,,,,,,,,,,,,,,,,,,
,,,,,SPR24_011,19,Male,2024-04-08_10h58.17.254,jersey_experiment_5_v0,2023.2.2,Win32,85.47008547,,,,,,,,,,,,,,,,710.6864,711.7331,711.7332,712.4979,return,0.0614,,28.25520833,,,,,,FBP-RB-81.png,0.35,1.2,36,0.25,,,,,,,,,,,,,,,,,,0,29,29,35,1,,,,,,,,,,,,,,,,,,,,,,,
,,,,,SPR24_011,19,Male,2024-04-08_10h58.17.254,jersey_experiment_5_v0,2023.2.2,Win32,85.47008547,,,,,,,,,,,,,,,,712.4982,713.5448,713.5449,714.7569,return,0.5173,,71.61458333,,,,,,FBP-OG-18.png,0.45,1.2,10,0.25,,,,,,,,,,,,,,,,,,0,30,30,9,1,,,,,,,,,,,,,,,,,,,,,,,
,,,,,SPR24_011,19,Male,2024-04-08_10h58.17.254,jersey_experiment_5_v0,2023.2.2,Win32,85.47008547,,,,,,,,,,,,,,,,714.757,716.0509,716.051,717.3216,return,0.054,,48.95833333,,,,,,FBP-PT-71.png,0.4,1.2,48,0.5,,,,,,,,,,,,,,,,,,0,31,31,47,1,,,,,,,,,,,,,,,,,,,,,,,
,,,,,SPR24_011,19,Male,2024-04-08_10h58.17.254,jersey_experiment_5_v0,2023.2.2,Win32,85.47008547,,,,,,,,,,,,,,,,717.3218,718.3686,718.3687,719.1807,return,0.0508,,29.16666667,,,,,,FBP-OG-17.png,0.37,1.2,2,0.25,,,,,,,,,,,,,,,,,,0,32,32,1,1,,,,,,,,,,,,,,,,,,,,,,,
,,,,,SPR24_011,19,Male,2024-04-08_10h58.17.254,jersey_experiment_5_v0,2023.2.2,Win32,85.47008547,,,,,,,,,,,,,,,,719.1809,720.2276,720.2276,721.3217,return,0.373,,79.55729167,,,,,,FBP-RB-81.png,0.45,1.2,40,0.25,,,,,,,,,,,,,,,,,,0,33,33,39,1,,,,,,,,,,,,,,,,,,,,,,,
,,,,,SPR24_011,19,Male,2024-04-08_10h58.17.254,jersey_experiment_5_v0,2023.2.2,Win32,85.47008547,,,,,,,,,,,,,,,,721.322,722.3688,722.3688,723.0982,return,0.1111,,68.48958333,,,,,,FBP-OG-19.png,0.4,1.2,13,0.25,,,,,,,,,,,,,,,,,,0,34,34,12,1,,,,,,,,,,,,,,,,,,,,,,,
,,,,,SPR24_011,19,Male,2024-04-08_10h58.17.254,jersey_experiment_5_v0,2023.2.2,Win32,85.47008547,,,,,,,,,,,,,,,,723.0983,724.3925,724.3925,725.5456,return,0.4322,,33.72395833,,,,,,FBP-YG-91.png,0.37,1.2,27,0.5,,,,,,,,,,,,,,,,,,0,35,35,26,1,,,,,,,,,,,,,,,,,,,,,,,
,,,,,SPR24_011,19,Male,2024-04-08_10h58.17.254,jersey_experiment_5_v0,2023.2.2,Win32,85.47008547,,,,,,,,,,,,,,,,725.5459,726.5927,726.5928,727.9339,return,0.0255,,49.609375,,,,,,FBP-RB-81.png,0.4,1.2,38,0.25,,,,,,,,,,,,,,,,,,0,36,36,37,1,,,,,,,,,,,,,,,,,,,,,,,
,,,,,SPR24_011,19,Male,2024-04-08_10h58.17.254,jersey_experiment_5_v0,2023.2.2,Win32,85.47008547,,,,,,,,,,,,,,,,727.9341,729.2279,729.2279,730.1221,return,0.0536,,33.07291667,,,,,,FBP-YG-71.png,0.37,1.2,17,0.5,,,,,,,,,,,,,,,,,,0,37,37,16,1,,,,,,,,,,,,,,,,,,,,,,,
,,,,,SPR24_011,19,Male,2024-04-08_10h58.17.254,jersey_experiment_5_v0,2023.2.2,Win32,85.47008547,,,,,,,,,,,,,,,,730.1224,731.1692,731.1692,732.2869,return,0.0617,,75.91145833,,,,,,FBP-RB-71.png,0.45,1.2,35,0.25,,,,,,,,,,,,,,,,,,0,38,38,34,1,,,,,,,,,,,,,,,,,,,,,,,
,,,,,SPR24_011,19,Male,2024-04-08_10h58.17.254,jersey_experiment_5_v0,2023.2.2,Win32,85.47008547,,,,,,,,,,,,,,,,732.2872,733.334,733.334,734.5928,return,0.0606,,49.34895833,,,,,,FBP-OG-19.png,0.37,1.2,12,0.25,,,,,,,,,,,,,,,,,,0,39,39,11,1,,,,,,,,,,,,,,,,,,,,,,,
,,,,,SPR24_011,19,Male,2024-04-08_10h58.17.254,jersey_experiment_5_v0,2023.2.2,Win32,85.47008547,,,,,,,,,,,,,,,,734.5931,735.64,735.64,736.7693,return,0.3871,,72.39583333,,,,,,FBP-OG-18.png,0.43,1.2,9,0.25,,,,,,,,,,,,,,,,,,0,40,40,8,1,,,,,,,,,,,,,,,,,,,,,,,
,,,,,SPR24_011,19,Male,2024-04-08_10h58.17.254,jersey_experiment_5_v0,2023.2.2,Win32,85.47008547,,,,,,,,,,,,,,,,736.7695,738.0637,738.0637,738.9578,return,0.0744,,41.40625,,,,,,FBP-YG-91.png,0.35,1.2,26,0.5,,,,,,,,,,,,,,,,,,0,41,41,25,1,,,,,,,,,,,,,,,,,,,,,,,
,,,,,SPR24_011,19,Male,2024-04-08_10h58.17.254,jersey_experiment_5_v0,2023.2.2,Win32,85.47008547,,,,,,,,,,,,,,,,738.958,740.2519,740.2519,741.0283,return,0.0943,,58.85416667,,,,,,FBP-YG-81.png,0.4,1.2,23,0.5,,,,,,,,,,,,,,,,,,0,42,42,22,1,,,,,,,,,,,,,,,,,,,,,,,
,,,,,SPR24_011,19,Male,2024-04-08_10h58.17.254,jersey_experiment_5_v0,2023.2.2,Win32,85.47008547,,,,,,,,,,,,,,,,741.0285,742.3227,742.3228,742.9108,return,0.0835,,83.72395833,,,,,,FBP-YG-71.png,0.45,1.2,20,0.5,,,,,,,,,,,,,,,,,,0,43,43,19,1,,,,,,,,,,,,,,,,,,,,,,,
,,,,,SPR24_011,19,Male,2024-04-08_10h58.17.254,jersey_experiment_5_v0,2023.2.2,Win32,85.47008547,,,,,,,,,,,,,,,,742.9111,743.958,743.9581,744.8991,return,0.0847,,66.40625,,,,,,FBP-OG-17.png,0.4,1.2,3,0.25,,,,,,,,,,,,,,,,,,0,44,44,2,1,,,,,,,,,,,,,,,,,,,,,,,
,,,,,SPR24_011,19,Male,2024-04-08_10h58.17.254,jersey_experiment_5_v0,2023.2.2,Win32,85.47008547,,,,,,,,,,,,,,,,744.8993,746.1933,746.1933,748.9229,return,0.066,,63.80208333,,,,,,FBP-PT-91.png,0.37,1.2,57,0.5,,,,,,,,,,,,,,,,,,0,45,45,56,1,,,,,,,,,,,,,,,,,,,,,,,
,,,,,SPR24_011,19,Male,2024-04-08_10h58.17.254,jersey_experiment_5_v0,2023.2.2,Win32,85.47008547,,,,,,,,,,,,,,,,748.923,750.217,750.217,750.7464,return,0.054,,70.57291667,,,,,,FBP-YG-91.png,0.43,1.2,29,0.5,,,,,,,,,,,,,,,,,,0,46,46,28,1,,,,,,,,,,,,,,,,,,,,,,,
,,,,,SPR24_011,19,Male,2024-04-08_10h58.17.254,jersey_experiment_5_v0,2023.2.2,Win32,85.47008547,,,,,,,,,,,,,,,,750.7465,751.7935,751.7935,752.9229,return,0.0661,,26.69270833,,,,,,FBP-OG-18.png,0.35,1.2,6,0.25,,,,,,,,,,,,,,,,,,0,47,47,5,1,,,,,,,,,,,,,,,,,,,,,,,
,,,,,SPR24_011,19,Male,2024-04-08_10h58.17.254,jersey_experiment_5_v0,2023.2.2,Win32,85.47008547,,,,,,,,,,,,,,,,752.9231,753.97,753.97,754.8996,return,0.1075,,69.01041667,,,,,,FBP-RB-71.png,0.35,1.2,31,0.25,,,,,,,,,,,,,,,,,,0,48,48,30,1,,,,,,,,,,,,,,,,,,,,,,,
,,,,,SPR24_011,19,Male,2024-04-08_10h58.17.254,jersey_experiment_5_v0,2023.2.2,Win32,85.47008547,,,,,,,,,,,,,,,,754.8998,755.9465,755.9465,758.7349,return,0.072,,65.88541667,,,,,,FBP-RB-81.png,0.37,1.2,37,0.25,,,,,,,,,,,,,,,,,,0,49,49,36,1,,,,,,,,,,,,,,,,,,,,,,,
,,,,,SPR24_011,19,Male,2024-04-08_10h58.17.254,jersey_experiment_5_v0,2023.2.2,Win32,85.47008547,,,,,,,,,,,,,,,,758.7352,759.7819,759.7821,761.2173,return,0.0711,,85.67708333,,,,,,FBP-OG-19.png,0.43,1.2,14,0.25,,,,,,,,,,,,,,,,,,0,50,50,13,1,,,,,,,,,,,,,,,,,,,,,,,
,,,,,SPR24_011,19,Male,2024-04-08_10h58.17.254,jersey_experiment_5_v0,2023.2.2,Win32,85.47008547,,,,,,,,,,,,,,,,761.2175,762.5115,762.5116,763.5236,return,0.0712,,18.61979167,,,,,,FBP-PT-91.png,0.35,1.2,56,0.5,,,,,,,,,,,,,,,,,,0,51,51,55,1,,,,,,,,,,,,,,,,,,,,,,,
,,,,,SPR24_011,19,Male,2024-04-08_10h58.17.254,jersey_experiment_5_v0,2023.2.2,Win32,85.47008547,,,,,,,,,,,,,,,,763.5237,764.5704,764.5704,765.6765,return,0.0984,,72.52604167,,,,,,FBP-OG-17.png,0.43,1.2,4,0.25,,,,,,,,,,,,,,,,,,0,52,52,3,1,,,,,,,,,,,,,,,,,,,,,,,
,,,,,SPR24_011,19,Male,2024-04-08_10h58.17.254,jersey_experiment_5_v0,2023.2.2,Win32,85.47008547,,,,,,,,,,,,,,,,765.6766,766.9706,766.9706,768.0764,return,0.0877,,79.81770833,,,,,,FBP-PT-91.png,0.45,1.2,60,0.5,,,,,,,,,,,,,,,,,,0,53,53,59,1,,,,,,,,,,,,,,,,,,,,,,,
,,,,,SPR24_011,19,Male,2024-04-08_10h58.17.254,jersey_experiment_5_v0,2023.2.2,Win32,85.47008547,,,,,,,,,,,,,,,,768.0766,769.3706,769.3707,769.8058,return,0.051,,64.58333333,,,,,,FBP-PT-71.png,0.43,1.2,49,0.5,,,,,,,,,,,,,,,,,,0,54,54,48,1,,,,,,,,,,,,,,,,,,,,,,,
,,,,,SPR24_011,19,Male,2024-04-08_10h58.17.254,jersey_experiment_5_v0,2023.2.2,Win32,85.47008547,,,,,,,,,,,,,,,,769.8061,770.853,770.853,772.4647,return,0.6126,,89.84375,,,,,,FBP-RB-91.png,0.45,1.2,45,0.25,,,,,,,,,,,,,,,,,,0,55,55,44,1,,,,,,,,,,,,,,,,,,,,,,,
,,,,,SPR24_011,19,Male,2024-04-08_10h58.17.254,jersey_experiment_5_v0,2023.2.2,Win32,85.47008547,,,,,,,,,,,,,,,,772.465,773.5119,773.5119,774.6179,return,0.161,,78.90625,,,,,,FBP-RB-91.png,0.43,1.2,44,0.25,,,,,,,,,,,,,,,,,,0,56,56,43,1,,,,,,,,,,,,,,,,,,,,,,,
,,,,,SPR24_011,19,Male,2024-04-08_10h58.17.254,jersey_experiment_5_v0,2023.2.2,Win32,85.47008547,,,,,,,,,,,,,,,,774.6181,775.9121,775.9121,776.7708,return,0.0342,,42.96875,,,,,,FBP-YG-81.png,0.37,1.2,22,0.5,,,,,,,,,,,,,,,,,,0,57,57,21,1,,,,,,,,,,,,,,,,,,,,,,,
,,,,,SPR24_011,19,Male,2024-04-08_10h58.17.254,jersey_experiment_5_v0,2023.2.2,Win32,85.47008547,,,,,,,,,,,,,,,,776.771,778.065,778.065,778.8298,return,0.0727,,51.171875,,,,,,FBP-YG-71.png,0.4,1.2,18,0.5,,,,,,,,,,,,,,,,,,0,58,58,17,1,,,,,,,,,,,,,,,,,,,,,,,
,,,,,SPR24_011,19,Male,2024-04-08_10h58.17.254,jersey_experiment_5_v0,2023.2.2,Win32,85.47008547,,,,,,,,,,,,,,,,778.83,779.8769,779.8769,781.0888,return,0.1554,,40.88541667,,,,,,FBP-OG-19.png,0.35,1.2,11,0.25,,,,,,,,,,,,,,,,,,0,59,59,10,1,,,,,,,,,,,,,,,,,,,,,,,
,,,,,SPR24_011,19,Male,2024-04-08_10h58.17.254,jersey_experiment_5_v0,2023.2.2,Win32,85.47008547,,,,,,,,,,,,,,,,,,,,,,,,,,,,,,,,,,,,,,,,,,,,,,,,,,,,,,,,781.0891,785.7951,return,4.6948,,,,,,,,,,,,,,,,,,,
,,,,,SPR24_011,19,Male,2024-04-08_10h58.17.254,jersey_experiment_5_v0,2023.2.2,Win32,85.47008547,,,,,,,,,,,,,,,,,,,,,,,,,,,,,,,,,,,,,,,,,,,,,,,,,,,,,,,,,,,,,785.7951,789.9834,1,3.7537,return,0.4142,,,,,,,,,,,,
,,,,,SPR24_011,19,Male,2024-04-08_10h58.17.254,jersey_experiment_5_v0,2023.2.2,Win32,85.47008547,,,,,,,,,,,,,,,,,,,,,,,,,,,,,,,,,,,,,,,,,,,,,,,,,,,,,,,,,,,,,,,,,,,,789.9836,917.5584,"I have two theories. The first one is on racial bias with the theory being placed on the assumption that we subconsciously associate strong characteristics with African Americans do to longstanding cycles of prejudice and historic representation in the media. My other theory is that it tests if we associate particular colors or numbers with ""big"" or ""not big"" with colors with red and orange leaning more towards big while yellow and green lean more towards small.",right,124.4758,,,,,,
,,,,,SPR24_011,19,Male,2024-04-08_10h58.17.254,jersey_experiment_5_v0,2023.2.2,Win32,85.47008547,,,,,,,,,,,,,,,,,,,,,,,,,,,,,,,,,,,,,,,,,,,,,,,,,,,,,,,,,,,,,,,,,,,,,,,,,,917.5585,920.1058,return,2.5426,