requirements.started,requirements.stopped,key_resp_3.keys,key_resp_3.rt,key_resp_3.duration,Subject ID,Age,Gender,date,expName,psychopyVersion,OS,frameRate,instructions1.started,instructions1.stopped,key_resp.keys,key_resp.rt,key_resp.duration,example.started,example.stopped,enter_2.keys,enter_2.rt,enter_2.duration,instructions2.started,instructions2.stopped,enter_3.keys,enter_3.rt,enter_3.duration,image.started,image.stopped,slider_2.started,slider_2.stopped,next.keys,next.rt,next.duration,slider.response,trial_block_1.thisRepN,trial_block_1.thisTrialN,trial_block_1.thisN,trial_block_1.thisIndex,trial_block_1.ran,Path,Width,Height,Index,Duration,trial_block_2.thisRepN,trial_block_2.thisTrialN,trial_block_2.thisN,trial_block_2.thisIndex,trial_block_2.ran,rest_break.started,rest_break.stopped,end_break.started,end_break.stopped,key_resp_5.keys,key_resp_5.rt,key_resp_5.duration,trial_block_3.thisRepN,trial_block_3.thisTrialN,trial_block_3.thisN,trial_block_3.thisIndex,trial_block_3.ran,trial_block_4.thisRepN,trial_block_4.thisTrialN,trial_block_4.thisN,trial_block_4.thisIndex,trial_block_4.ran,questions_intro.started,questions_intro.stopped,enter_12.keys,enter_12.rt,enter_12.duration,question2.started,question2.stopped,question_doingbest.response,question_doingbest.rt,enter_15.keys,enter_15.rt,enter_15.duration,pattern.started,pattern.stopped,pattern_2.text,enter_17.keys,enter_17.rt,enter_17.duration,thankyou.started,thankyou.stopped,enter_14.keys,enter_14.rt,enter_14.duration
1E-04,12.6628,return,12.6579,,SPR24_057,21,Male,2024-04-17_10h03.40.422,jersey_experiment_5_v0,2023.2.2,Win32,86.95652174,,,,,,,,,,,,,,,,,,,,,,,,,,,,,,,,,,,,,,,,,,,,,,,,,,,,,,,,,,,,,,,,,,,,,,,,,,,,,,
,,,,,SPR24_057,21,Male,2024-04-17_10h03.40.422,jersey_experiment_5_v0,2023.2.2,Win32,86.95652174,12.663,21.8776,return,9.2002,,,,,,,,,,,,,,,,,,,,,,,,,,,,,,,,,,,,,,,,,,,,,,,,,,,,,,,,,,,,,,,,,,,,,,,,,,
,,,,,SPR24_057,21,Male,2024-04-17_10h03.40.422,jersey_experiment_5_v0,2023.2.2,Win32,86.95652174,,,,,,21.8777,27.8307,return,5.9109,,,,,,,,,,,,,,,,,,,,,,,,,,,,,,,,,,,,,,,,,,,,,,,,,,,,,,,,,,,,,,,,,,,,,
,,,,,SPR24_057,21,Male,2024-04-17_10h03.40.422,jersey_experiment_5_v0,2023.2.2,Win32,86.95652174,,,,,,,,,,,27.8308,47.6667,return,19.8248,,,,,,,,,,,,,,,,,,,,,,,,,,,,,,,,,,,,,,,,,,,,,,,,,,,,,,,,,,,,,,,,
,,,,,SPR24_057,21,Male,2024-04-17_10h03.40.422,jersey_experiment_5_v0,2023.2.2,Win32,86.95652174,,,,,,,,,,,,,,,,47.674,48.7254,48.7255,62.7968,return,11.7274,,24.86979167,0,0,0,46,1,FBP-PT-17.png,0.37,1.2,47,0.25,,,,,,,,,,,,,,,,,,,,,,,,,,,,,,,,,,,,,,,,,,,,,
,,,,,SPR24_057,21,Male,2024-04-17_10h03.40.422,jersey_experiment_5_v0,2023.2.2,Win32,86.95652174,,,,,,,,,,,,,,,,62.8014,63.8435,63.8436,71.4791,return,4.5418,,74.34895833,0,1,1,58,1,FBP-PT-19.png,0.43,1.2,59,0.25,,,,,,,,,,,,,,,,,,,,,,,,,,,,,,,,,,,,,,,,,,,,,
,,,,,SPR24_057,21,Male,2024-04-17_10h03.40.422,jersey_experiment_5_v0,2023.2.2,Win32,86.95652174,,,,,,,,,,,,,,,,71.4835,72.5263,72.5263,76.0676,return,2.0016,,74.21875,0,2,2,18,1,FBP-YG-17.png,0.43,1.2,19,0.25,,,,,,,,,,,,,,,,,,,,,,,,,,,,,,,,,,,,,,,,,,,,,
,,,,,SPR24_057,21,Male,2024-04-17_10h03.40.422,jersey_experiment_5_v0,2023.2.2,Win32,86.95652174,,,,,,,,,,,,,,,,76.0679,77.1147,77.1147,80.35,return,1.4899,,24.73958333,0,3,3,25,1,FBP-YG-19.png,0.35,1.2,26,0.25,,,,,,,,,,,,,,,,,,,,,,,,,,,,,,,,,,,,,,,,,,,,,
,,,,,SPR24_057,21,Male,2024-04-17_10h03.40.422,jersey_experiment_5_v0,2023.2.2,Win32,86.95652174,,,,,,,,,,,,,,,,80.3502,81.6441,81.6441,87.4445,return,1.9202,,50.13020833,0,4,4,5,1,FBP-OG-81.png,0.35,1.2,6,0.5,,,,,,,,,,,,,,,,,,,,,,,,,,,,,,,,,,,,,,,,,,,,,
,,,,,SPR24_057,21,Male,2024-04-17_10h03.40.422,jersey_experiment_5_v0,2023.2.2,Win32,86.95652174,,,,,,,,,,,,,,,,87.4447,88.7386,88.7386,92.6092,return,1.6986,,49.73958333,0,5,5,35,1,FBP-RB-18.png,0.35,1.2,36,0.5,,,,,,,,,,,,,,,,,,,,,,,,,,,,,,,,,,,,,,,,,,,,,
,,,,,SPR24_057,21,Male,2024-04-17_10h03.40.422,jersey_experiment_5_v0,2023.2.2,Win32,86.95652174,,,,,,,,,,,,,,,,92.6095,93.9035,93.9035,97.3743,return,1.8546,,99.47916667,0,6,6,13,1,FBP-OG-91.png,0.43,1.2,14,0.5,,,,,,,,,,,,,,,,,,,,,,,,,,,,,,,,,,,,,,,,,,,,,
,,,,,SPR24_057,21,Male,2024-04-17_10h03.40.422,jersey_experiment_5_v0,2023.2.2,Win32,86.95652174,,,,,,,,,,,,,,,,97.3744,98.4212,98.4212,103.4099,return,1.6981,,74.73958333,0,7,7,48,1,FBP-PT-17.png,0.43,1.2,49,0.25,,,,,,,,,,,,,,,,,,,,,,,,,,,,,,,,,,,,,,,,,,,,,
,,,,,SPR24_057,21,Male,2024-04-17_10h03.40.422,jersey_experiment_5_v0,2023.2.2,Win32,86.95652174,,,,,,,,,,,,,,,,103.4101,104.7038,104.7039,107.2805,return,1.1793,,75.13020833,0,8,8,42,1,FBP-RB-19.png,0.4,1.2,43,0.5,,,,,,,,,,,,,,,,,,,,,,,,,,,,,,,,,,,,,,,,,,,,,
,,,,,SPR24_057,21,Male,2024-04-17_10h03.40.422,jersey_experiment_5_v0,2023.2.2,Win32,86.95652174,,,,,,,,,,,,,,,,107.2806,108.3274,108.3274,112.7512,return,1.1218,,50.13020833,0,9,9,56,1,FBP-PT-19.png,0.37,1.2,57,0.25,,,,,,,,,,,,,,,,,,,,,,,,,,,,,,,,,,,,,,,,,,,,,
,,,,,SPR24_057,21,Male,2024-04-17_10h03.40.422,jersey_experiment_5_v0,2023.2.2,Win32,86.95652174,,,,,,,,,,,,,,,,112.7514,114.0453,114.0454,116.3987,return,0.9015,,99.609375,0,10,10,38,1,FBP-RB-18.png,0.43,1.2,39,0.5,,,,,,,,,,,,,,,,,,,,,,,,,,,,,,,,,,,,,,,,,,,,,
,,,,,SPR24_057,21,Male,2024-04-17_10h03.40.422,jersey_experiment_5_v0,2023.2.2,Win32,86.95652174,,,,,,,,,,,,,,,,116.3989,117.6925,117.6926,120.7515,return,1.3475,,74.73958333,0,11,11,1,1,FBP-OG-71.png,0.37,1.2,2,0.5,,,,,,,,,,,,,,,,,,,,,,,,,,,,,,,,,,,,,,,,,,,,,
,,,,,SPR24_057,21,Male,2024-04-17_10h03.40.422,jersey_experiment_5_v0,2023.2.2,Win32,86.95652174,,,,,,,,,,,,,,,,120.7518,122.0457,122.0458,126.5165,return,0.7306,,50,0,12,12,11,1,FBP-OG-91.png,0.37,1.2,12,0.5,,,,,,,,,,,,,,,,,,,,,,,,,,,,,,,,,,,,,,,,,,,,,
,,,,,SPR24_057,21,Male,2024-04-17_10h03.40.422,jersey_experiment_5_v0,2023.2.2,Win32,86.95652174,,,,,,,,,,,,,,,,126.5167,127.8106,127.8106,130.0697,return,0.8944,,99.73958333,0,13,13,44,1,FBP-RB-19.png,0.45,1.2,45,0.5,,,,,,,,,,,,,,,,,,,,,,,,,,,,,,,,,,,,,,,,,,,,,
,,,,,SPR24_057,21,Male,2024-04-17_10h03.40.422,jersey_experiment_5_v0,2023.2.2,Win32,86.95652174,,,,,,,,,,,,,,,,130.0699,131.3636,131.3636,133.4226,return,0.4517,,99.86979167,0,14,14,39,1,FBP-RB-18.png,0.45,1.2,40,0.5,,,,,,,,,,,,,,,,,,,,,,,,,,,,,,,,,,,,,,,,,,,,,
,,,,,SPR24_057,21,Male,2024-04-17_10h03.40.422,jersey_experiment_5_v0,2023.2.2,Win32,86.95652174,,,,,,,,,,,,,,,,133.4228,134.7168,134.7168,137.1521,return,0.5796,,99.73958333,0,15,15,8,1,FBP-OG-81.png,0.43,1.2,9,0.5,,,,,,,,,,,,,,,,,,,,,,,,,,,,,,,,,,,,,,,,,,,,,
,,,,,SPR24_057,21,Male,2024-04-17_10h03.40.422,jersey_experiment_5_v0,2023.2.2,Win32,86.95652174,,,,,,,,,,,,,,,,137.1523,138.1992,138.1992,141.5169,return,1.1969,,75,0,16,16,52,1,FBP-PT-18.png,0.4,1.2,53,0.25,,,,,,,,,,,,,,,,,,,,,,,,,,,,,,,,,,,,,,,,,,,,,
,,,,,SPR24_057,21,Male,2024-04-17_10h03.40.422,jersey_experiment_5_v0,2023.2.2,Win32,86.95652174,,,,,,,,,,,,,,,,141.5171,142.5642,142.5643,145.8231,return,1.5947,,24.47916667,0,17,17,16,1,FBP-YG-17.png,0.37,1.2,17,0.25,,,,,,,,,,,,,,,,,,,,,,,,,,,,,,,,,,,,,,,,,,,,,
,,,,,SPR24_057,21,Male,2024-04-17_10h03.40.422,jersey_experiment_5_v0,2023.2.2,Win32,86.95652174,,,,,,,,,,,,,,,,145.8234,147.1172,147.1173,149.9644,return,1.1124,,74.86979167,0,18,18,2,1,FBP-OG-71.png,0.4,1.2,3,0.5,,,,,,,,,,,,,,,,,,,,,,,,,,,,,,,,,,,,,,,,,,,,,
,,,,,SPR24_057,21,Male,2024-04-17_10h03.40.422,jersey_experiment_5_v0,2023.2.2,Win32,86.95652174,,,,,,,,,,,,,,,,149.9646,151.2585,151.2585,154.0824,return,0.7311,,25,0,19,19,10,1,FBP-OG-91.png,0.35,1.2,11,0.5,,,,,,,,,,,,,,,,,,,,,,,,,,,,,,,,,,,,,,,,,,,,,
,,,,,SPR24_057,21,Male,2024-04-17_10h03.40.422,jersey_experiment_5_v0,2023.2.2,Win32,86.95652174,,,,,,,,,,,,,,,,154.0825,155.1294,155.1294,158.3529,return,1.3932,,74.609375,0,20,20,53,1,FBP-PT-18.png,0.43,1.2,54,0.25,,,,,,,,,,,,,,,,,,,,,,,,,,,,,,,,,,,,,,,,,,,,,
,,,,,SPR24_057,21,Male,2024-04-17_10h03.40.422,jersey_experiment_5_v0,2023.2.2,Win32,86.95652174,,,,,,,,,,,,,,,,158.3531,159.6471,159.6471,161.6236,return,0.9412,,74.609375,0,21,21,12,1,FBP-OG-91.png,0.4,1.2,13,0.5,,,,,,,,,,,,,,,,,,,,,,,,,,,,,,,,,,,,,,,,,,,,,
,,,,,SPR24_057,21,Male,2024-04-17_10h03.40.422,jersey_experiment_5_v0,2023.2.2,Win32,86.95652174,,,,,,,,,,,,,,,,161.6238,162.9178,162.9178,165.6711,return,0.9644,,99.609375,0,22,22,3,1,FBP-OG-71.png,0.43,1.2,4,0.5,,,,,,,,,,,,,,,,,,,,,,,,,,,,,,,,,,,,,,,,,,,,,
,,,,,SPR24_057,21,Male,2024-04-17_10h03.40.422,jersey_experiment_5_v0,2023.2.2,Win32,86.95652174,,,,,,,,,,,,,,,,165.6712,166.965,166.965,171.6711,return,0.8469,,99.73958333,0,23,23,40,1,FBP-RB-19.png,0.35,1.2,41,0.5,,,,,,,,,,,,,,,,,,,,,,,,,,,,,,,,,,,,,,,,,,,,,
,,,,,SPR24_057,21,Male,2024-04-17_10h03.40.422,jersey_experiment_5_v0,2023.2.2,Win32,86.95652174,,,,,,,,,,,,,,,,171.6713,172.7183,172.7183,176.1772,return,1.0135,,99.86979167,0,24,24,47,1,FBP-PT-17.png,0.4,1.2,48,0.25,,,,,,,,,,,,,,,,,,,,,,,,,,,,,,,,,,,,,,,,,,,,,
,,,,,SPR24_057,21,Male,2024-04-17_10h03.40.422,jersey_experiment_5_v0,2023.2.2,Win32,86.95652174,,,,,,,,,,,,,,,,176.1774,177.2243,177.2243,180.695,return,0.7909,,99.86979167,0,25,25,57,1,FBP-PT-19.png,0.4,1.2,58,0.25,,,,,,,,,,,,,,,,,,,,,,,,,,,,,,,,,,,,,,,,,,,,,
,,,,,SPR24_057,21,Male,2024-04-17_10h03.40.422,jersey_experiment_5_v0,2023.2.2,Win32,86.95652174,,,,,,,,,,,,,,,,180.6952,181.7421,181.7421,184.8481,return,1.1921,,74.609375,0,26,26,21,1,FBP-YG-18.png,0.37,1.2,22,0.25,,,,,,,,,,,,,,,,,,,,,,,,,,,,,,,,,,,,,,,,,,,,,
,,,,,SPR24_057,21,Male,2024-04-17_10h03.40.422,jersey_experiment_5_v0,2023.2.2,Win32,86.95652174,,,,,,,,,,,,,,,,184.8484,186.1422,186.1422,192.8484,return,2.2736,,49.73958333,0,27,27,30,1,FBP-RB-17.png,0.35,1.2,31,0.5,,,,,,,,,,,,,,,,,,,,,,,,,,,,,,,,,,,,,,,,,,,,,
,,,,,SPR24_057,21,Male,2024-04-17_10h03.40.422,jersey_experiment_5_v0,2023.2.2,Win32,86.95652174,,,,,,,,,,,,,,,,192.8544,194.1543,194.1543,199.7192,return,2.5891,,49.73958333,0,28,28,6,1,FBP-OG-81.png,0.37,1.2,7,0.5,,,,,,,,,,,,,,,,,,,,,,,,,,,,,,,,,,,,,,,,,,,,,
,,,,,SPR24_057,21,Male,2024-04-17_10h03.40.422,jersey_experiment_5_v0,2023.2.2,Win32,86.95652174,,,,,,,,,,,,,,,,199.7194,201.0133,201.0134,203.4605,return,1.0927,,99.47916667,0,29,29,34,1,FBP-RB-17.png,0.45,1.2,35,0.5,,,,,,,,,,,,,,,,,,,,,,,,,,,,,,,,,,,,,,,,,,,,,
,,,,,SPR24_057,21,Male,2024-04-17_10h03.40.422,jersey_experiment_5_v0,2023.2.2,Win32,86.95652174,,,,,,,,,,,,,,,,203.4607,204.5076,204.5077,207.7667,return,0.7389,,74.86979167,0,30,30,15,1,FBP-YG-17.png,0.35,1.2,16,0.25,,,,,,,,,,,,,,,,,,,,,,,,,,,,,,,,,,,,,,,,,,,,,
,,,,,SPR24_057,21,Male,2024-04-17_10h03.40.422,jersey_experiment_5_v0,2023.2.2,Win32,86.95652174,,,,,,,,,,,,,,,,207.7668,208.8138,208.8138,211.8137,return,1.3979,,74.609375,0,31,31,27,1,FBP-YG-19.png,0.4,1.2,28,0.25,,,,,,,,,,,,,,,,,,,,,,,,,,,,,,,,,,,,,,,,,,,,,
,,,,,SPR24_057,21,Male,2024-04-17_10h03.40.422,jersey_experiment_5_v0,2023.2.2,Win32,86.95652174,,,,,,,,,,,,,,,,211.814,213.1079,213.1079,215.214,return,1.0876,,74.609375,0,32,32,36,1,FBP-RB-18.png,0.37,1.2,37,0.5,,,,,,,,,,,,,,,,,,,,,,,,,,,,,,,,,,,,,,,,,,,,,
,,,,,SPR24_057,21,Male,2024-04-17_10h03.40.422,jersey_experiment_5_v0,2023.2.2,Win32,86.95652174,,,,,,,,,,,,,,,,215.2141,216.261,216.261,218.4846,return,0.7761,,99.86979167,0,33,33,54,1,FBP-PT-18.png,0.45,1.2,55,0.25,,,,,,,,,,,,,,,,,,,,,,,,,,,,,,,,,,,,,,,,,,,,,
,,,,,SPR24_057,21,Male,2024-04-17_10h03.40.422,jersey_experiment_5_v0,2023.2.2,Win32,86.95652174,,,,,,,,,,,,,,,,218.4848,219.5316,219.5317,222.2142,return,0.6823,,75,0,34,34,22,1,FBP-YG-18.png,0.4,1.2,23,0.25,,,,,,,,,,,,,,,,,,,,,,,,,,,,,,,,,,,,,,,,,,,,,
,,,,,SPR24_057,21,Male,2024-04-17_10h03.40.422,jersey_experiment_5_v0,2023.2.2,Win32,86.95652174,,,,,,,,,,,,,,,,222.2143,223.2613,223.2614,225.3437,return,0.5472,,99.73958333,0,35,35,19,1,FBP-YG-17.png,0.45,1.2,20,0.25,,,,,,,,,,,,,,,,,,,,,,,,,,,,,,,,,,,,,,,,,,,,,
,,,,,SPR24_057,21,Male,2024-04-17_10h03.40.422,jersey_experiment_5_v0,2023.2.2,Win32,86.95652174,,,,,,,,,,,,,,,,225.3439,226.6378,226.6378,228.7556,return,0.5902,,25,0,36,36,0,1,FBP-OG-71.png,0.35,1.2,1,0.5,,,,,,,,,,,,,,,,,,,,,,,,,,,,,,,,,,,,,,,,,,,,,
,,,,,SPR24_057,21,Male,2024-04-17_10h03.40.422,jersey_experiment_5_v0,2023.2.2,Win32,86.95652174,,,,,,,,,,,,,,,,228.7557,230.0497,230.0498,233.1911,return,0.6968,,75.13020833,0,37,37,31,1,FBP-RB-17.png,0.37,1.2,32,0.5,,,,,,,,,,,,,,,,,,,,,,,,,,,,,,,,,,,,,,,,,,,,,
,,,,,SPR24_057,21,Male,2024-04-17_10h03.40.422,jersey_experiment_5_v0,2023.2.2,Win32,86.95652174,,,,,,,,,,,,,,,,233.1912,234.238,234.2381,237.3089,return,1.4794,,74.47916667,0,38,38,17,1,FBP-YG-17.png,0.4,1.2,18,0.25,,,,,,,,,,,,,,,,,,,,,,,,,,,,,,,,,,,,,,,,,,,,,
,,,,,SPR24_057,21,Male,2024-04-17_10h03.40.422,jersey_experiment_5_v0,2023.2.2,Win32,86.95652174,,,,,,,,,,,,,,,,237.309,238.3558,238.3559,240.8972,return,0.8753,,24.86979167,0,39,39,45,1,FBP-PT-17.png,0.35,1.2,46,0.25,,,,,,,,,,,,,,,,,,,,,,,,,,,,,,,,,,,,,,,,,,,,,
,,,,,SPR24_057,21,Male,2024-04-17_10h03.40.422,jersey_experiment_5_v0,2023.2.2,Win32,86.95652174,,,,,,,,,,,,,,,,240.8975,242.1914,242.1914,247.0151,return,3.0686,,49.86979167,0,40,40,41,1,FBP-RB-19.png,0.37,1.2,42,0.5,,,,,,,,,,,,,,,,,,,,,,,,,,,,,,,,,,,,,,,,,,,,,
,,,,,SPR24_057,21,Male,2024-04-17_10h03.40.422,jersey_experiment_5_v0,2023.2.2,Win32,86.95652174,,,,,,,,,,,,,,,,247.0197,248.0622,248.0622,252.0976,return,1.1427,,99.86979167,0,41,41,59,1,FBP-PT-19.png,0.45,1.2,60,0.25,,,,,,,,,,,,,,,,,,,,,,,,,,,,,,,,,,,,,,,,,,,,,
,,,,,SPR24_057,21,Male,2024-04-17_10h03.40.422,jersey_experiment_5_v0,2023.2.2,Win32,86.95652174,,,,,,,,,,,,,,,,252.0978,253.3917,253.3918,255.5213,return,0.9899,,99.73958333,0,42,42,33,1,FBP-RB-17.png,0.43,1.2,34,0.5,,,,,,,,,,,,,,,,,,,,,,,,,,,,,,,,,,,,,,,,,,,,,
,,,,,SPR24_057,21,Male,2024-04-17_10h03.40.422,jersey_experiment_5_v0,2023.2.2,Win32,86.95652174,,,,,,,,,,,,,,,,255.5215,256.8154,256.8155,259.1331,return,0.6294,,75,0,43,43,7,1,FBP-OG-81.png,0.4,1.2,8,0.5,,,,,,,,,,,,,,,,,,,,,,,,,,,,,,,,,,,,,,,,,,,,,
,,,,,SPR24_057,21,Male,2024-04-17_10h03.40.422,jersey_experiment_5_v0,2023.2.2,Win32,86.95652174,,,,,,,,,,,,,,,,259.1333,260.1803,260.1803,269.6043,return,0.952,,0,0,44,44,20,1,FBP-YG-18.png,0.35,1.2,21,0.25,,,,,,,,,,,,,,,,,,,,,,,,,,,,,,,,,,,,,,,,,,,,,
,,,,,SPR24_057,21,Male,2024-04-17_10h03.40.422,jersey_experiment_5_v0,2023.2.2,Win32,86.95652174,,,,,,,,,,,,,,,,269.6045,270.6513,270.6513,272.9455,return,0.5925,,99.609375,0,45,45,28,1,FBP-YG-19.png,0.43,1.2,29,0.25,,,,,,,,,,,,,,,,,,,,,,,,,,,,,,,,,,,,,,,,,,,,,
,,,,,SPR24_057,21,Male,2024-04-17_10h03.40.422,jersey_experiment_5_v0,2023.2.2,Win32,86.95652174,,,,,,,,,,,,,,,,272.9456,273.9927,273.9927,275.8281,return,0.5557,,99.47916667,0,46,46,24,1,FBP-YG-18.png,0.45,1.2,25,0.25,,,,,,,,,,,,,,,,,,,,,,,,,,,,,,,,,,,,,,,,,,,,,
,,,,,SPR24_057,21,Male,2024-04-17_10h03.40.422,jersey_experiment_5_v0,2023.2.2,Win32,86.95652174,,,,,,,,,,,,,,,,275.8283,277.122,277.122,279.6163,return,0.6523,,74.86979167,0,47,47,37,1,FBP-RB-18.png,0.4,1.2,38,0.5,,,,,,,,,,,,,,,,,,,,,,,,,,,,,,,,,,,,,,,,,,,,,
,,,,,SPR24_057,21,Male,2024-04-17_10h03.40.422,jersey_experiment_5_v0,2023.2.2,Win32,86.95652174,,,,,,,,,,,,,,,,279.6165,280.6633,280.6633,282.9811,return,0.6262,,99.609375,0,48,48,29,1,FBP-YG-19.png,0.45,1.2,30,0.25,,,,,,,,,,,,,,,,,,,,,,,,,,,,,,,,,,,,,,,,,,,,,
,,,,,SPR24_057,21,Male,2024-04-17_10h03.40.422,jersey_experiment_5_v0,2023.2.2,Win32,86.95652174,,,,,,,,,,,,,,,,282.9812,284.0284,284.0284,289.1225,return,2.5801,,24.86979167,0,49,49,51,1,FBP-PT-18.png,0.37,1.2,52,0.25,,,,,,,,,,,,,,,,,,,,,,,,,,,,,,,,,,,,,,,,,,,,,
,,,,,SPR24_057,21,Male,2024-04-17_10h03.40.422,jersey_experiment_5_v0,2023.2.2,Win32,86.95652174,,,,,,,,,,,,,,,,289.1228,290.4168,290.4168,295.5229,return,1.7324,,74.73958333,0,50,50,32,1,FBP-RB-17.png,0.4,1.2,33,0.5,,,,,,,,,,,,,,,,,,,,,,,,,,,,,,,,,,,,,,,,,,,,,
,,,,,SPR24_057,21,Male,2024-04-17_10h03.40.422,jersey_experiment_5_v0,2023.2.2,Win32,86.95652174,,,,,,,,,,,,,,,,295.523,296.5698,296.5698,299.3818,return,1.2381,,74.47916667,0,51,51,26,1,FBP-YG-19.png,0.37,1.2,27,0.25,,,,,,,,,,,,,,,,,,,,,,,,,,,,,,,,,,,,,,,,,,,,,
,,,,,SPR24_057,21,Male,2024-04-17_10h03.40.422,jersey_experiment_5_v0,2023.2.2,Win32,86.95652174,,,,,,,,,,,,,,,,299.382,300.676,300.676,302.8524,return,1.0366,,99.34895833,0,52,52,14,1,FBP-OG-91.png,0.45,1.2,15,0.5,,,,,,,,,,,,,,,,,,,,,,,,,,,,,,,,,,,,,,,,,,,,,
,,,,,SPR24_057,21,Male,2024-04-17_10h03.40.422,jersey_experiment_5_v0,2023.2.2,Win32,86.95652174,,,,,,,,,,,,,,,,302.8526,303.8998,303.8999,309.8056,return,1.6669,,49.73958333,0,53,53,55,1,FBP-PT-19.png,0.35,1.2,56,0.25,,,,,,,,,,,,,,,,,,,,,,,,,,,,,,,,,,,,,,,,,,,,,
,,,,,SPR24_057,21,Male,2024-04-17_10h03.40.422,jersey_experiment_5_v0,2023.2.2,Win32,86.95652174,,,,,,,,,,,,,,,,309.8058,310.8528,310.8528,314.147,return,0.638,,99.47916667,0,54,54,49,1,FBP-PT-17.png,0.45,1.2,50,0.25,,,,,,,,,,,,,,,,,,,,,,,,,,,,,,,,,,,,,,,,,,,,,
,,,,,SPR24_057,21,Male,2024-04-17_10h03.40.422,jersey_experiment_5_v0,2023.2.2,Win32,86.95652174,,,,,,,,,,,,,,,,314.1472,315.4412,315.4412,316.9471,return,0.5907,,99.47916667,0,55,55,4,1,FBP-OG-71.png,0.45,1.2,5,0.5,,,,,,,,,,,,,,,,,,,,,,,,,,,,,,,,,,,,,,,,,,,,,
,,,,,SPR24_057,21,Male,2024-04-17_10h03.40.422,jersey_experiment_5_v0,2023.2.2,Win32,86.95652174,,,,,,,,,,,,,,,,316.9472,318.2413,318.2413,319.8532,return,0.5717,,99.47916667,0,56,56,9,1,FBP-OG-81.png,0.45,1.2,10,0.5,,,,,,,,,,,,,,,,,,,,,,,,,,,,,,,,,,,,,,,,,,,,,
,,,,,SPR24_057,21,Male,2024-04-17_10h03.40.422,jersey_experiment_5_v0,2023.2.2,Win32,86.95652174,,,,,,,,,,,,,,,,319.8533,320.9002,320.9002,324.9474,return,0.6845,,0.130208333,0,57,57,50,1,FBP-PT-18.png,0.35,1.2,51,0.25,,,,,,,,,,,,,,,,,,,,,,,,,,,,,,,,,,,,,,,,,,,,,
,,,,,SPR24_057,21,Male,2024-04-17_10h03.40.422,jersey_experiment_5_v0,2023.2.2,Win32,86.95652174,,,,,,,,,,,,,,,,324.9477,325.9945,325.9946,328.4768,return,0.5027,,99.73958333,0,58,58,23,1,FBP-YG-18.png,0.43,1.2,24,0.25,,,,,,,,,,,,,,,,,,,,,,,,,,,,,,,,,,,,,,,,,,,,,
,,,,,SPR24_057,21,Male,2024-04-17_10h03.40.422,jersey_experiment_5_v0,2023.2.2,Win32,86.95652174,,,,,,,,,,,,,,,,328.477,329.7711,329.7711,331.5593,return,0.8711,,99.73958333,0,59,59,43,1,FBP-RB-19.png,0.43,1.2,44,0.5,,,,,,,,,,,,,,,,,,,,,,,,,,,,,,,,,,,,,,,,,,,,,
,,,,,SPR24_057,21,Male,2024-04-17_10h03.40.422,jersey_experiment_5_v0,2023.2.2,Win32,86.95652174,,,,,,,,,,,,,,,,331.5614,332.8536,332.8536,334.4654,return,0.604,,99.609375,,,,,,FBP-RB-71.png,0.45,1.2,35,0.5,0,0,0,34,1,,,,,,,,,,,,,,,,,,,,,,,,,,,,,,,,,,,,,,,,
,,,,,SPR24_057,21,Male,2024-04-17_10h03.40.422,jersey_experiment_5_v0,2023.2.2,Win32,86.95652174,,,,,,,,,,,,,,,,334.4657,335.5125,335.5125,337.2185,return,0.9324,,99.609375,,,,,,FBP-PT-81.png,0.43,1.2,54,0.25,0,1,1,53,1,,,,,,,,,,,,,,,,,,,,,,,,,,,,,,,,,,,,,,,,
,,,,,SPR24_057,21,Male,2024-04-17_10h03.40.422,jersey_experiment_5_v0,2023.2.2,Win32,86.95652174,,,,,,,,,,,,,,,,337.2187,338.2655,338.2655,339.8891,return,0.8279,,99.609375,,,,,,FBP-PT-71.png,0.45,1.2,50,0.25,0,2,2,49,1,,,,,,,,,,,,,,,,,,,,,,,,,,,,,,,,,,,,,,,,
,,,,,SPR24_057,21,Male,2024-04-17_10h03.40.422,jersey_experiment_5_v0,2023.2.2,Win32,86.95652174,,,,,,,,,,,,,,,,339.8893,340.9363,340.9363,343.7598,return,0.8269,,25.13020833,,,,,,FBP-PT-81.png,0.35,1.2,51,0.25,0,3,3,50,1,,,,,,,,,,,,,,,,,,,,,,,,,,,,,,,,,,,,,,,,
,,,,,SPR24_057,21,Male,2024-04-17_10h03.40.422,jersey_experiment_5_v0,2023.2.2,Win32,86.95652174,,,,,,,,,,,,,,,,343.7602,345.0541,345.0541,347.2306,return,0.5718,,75,,,,,,FBP-RB-81.png,0.4,1.2,38,0.5,0,4,4,37,1,,,,,,,,,,,,,,,,,,,,,,,,,,,,,,,,,,,,,,,,
,,,,,SPR24_057,21,Male,2024-04-17_10h03.40.422,jersey_experiment_5_v0,2023.2.2,Win32,86.95652174,,,,,,,,,,,,,,,,347.2308,348.5247,348.5248,351.3131,return,0.5814,,99.609375,,,,,,FBP-OG-18.png,0.45,1.2,10,0.5,0,5,5,9,1,,,,,,,,,,,,,,,,,,,,,,,,,,,,,,,,,,,,,,,,
,,,,,SPR24_057,21,Male,2024-04-17_10h03.40.422,jersey_experiment_5_v0,2023.2.2,Win32,86.95652174,,,,,,,,,,,,,,,,351.3133,352.3601,352.3602,356.7485,return,1.5975,,49.609375,,,,,,FBP-YG-81.png,0.35,1.2,21,0.25,0,6,6,20,1,,,,,,,,,,,,,,,,,,,,,,,,,,,,,,,,,,,,,,,,
,,,,,SPR24_057,21,Male,2024-04-17_10h03.40.422,jersey_experiment_5_v0,2023.2.2,Win32,86.95652174,,,,,,,,,,,,,,,,356.7488,357.7957,357.7957,360.0664,return,0.603,,74.609375,,,,,,FBP-PT-81.png,0.4,1.2,53,0.25,0,7,7,52,1,,,,,,,,,,,,,,,,,,,,,,,,,,,,,,,,,,,,,,,,
,,,,,SPR24_057,21,Male,2024-04-17_10h03.40.422,jersey_experiment_5_v0,2023.2.2,Win32,86.95652174,,,,,,,,,,,,,,,,360.0666,361.1134,361.1135,362.5606,return,0.2051,,99.609375,,,,,,FBP-YG-71.png,0.45,1.2,20,0.25,0,8,8,19,1,,,,,,,,,,,,,,,,,,,,,,,,,,,,,,,,,,,,,,,,
,,,,,SPR24_057,21,Male,2024-04-17_10h03.40.422,jersey_experiment_5_v0,2023.2.2,Win32,86.95652174,,,,,,,,,,,,,,,,362.5608,363.6075,363.6076,365.1019,return,0.5004,,99.86979167,,,,,,FBP-PT-81.png,0.45,1.2,55,0.25,0,9,9,54,1,,,,,,,,,,,,,,,,,,,,,,,,,,,,,,,,,,,,,,,,
,,,,,SPR24_057,21,Male,2024-04-17_10h03.40.422,jersey_experiment_5_v0,2023.2.2,Win32,86.95652174,,,,,,,,,,,,,,,,365.1021,366.1488,366.1488,367.4901,return,0.4128,,99.86979167,,,,,,FBP-YG-81.png,0.4,1.2,23,0.25,0,10,10,22,1,,,,,,,,,,,,,,,,,,,,,,,,,,,,,,,,,,,,,,,,
,,,,,SPR24_057,21,Male,2024-04-17_10h03.40.422,jersey_experiment_5_v0,2023.2.2,Win32,86.95652174,,,,,,,,,,,,,,,,367.4904,368.5373,368.5373,375.9729,return,0.885,,74.609375,,,,,,FBP-PT-91.png,0.35,1.2,56,0.25,0,11,11,55,1,,,,,,,,,,,,,,,,,,,,,,,,,,,,,,,,,,,,,,,,
,,,,,SPR24_057,21,Male,2024-04-17_10h03.40.422,jersey_experiment_5_v0,2023.2.2,Win32,86.95652174,,,,,,,,,,,,,,,,375.9731,377.2671,377.2671,378.9729,return,0.7145,,74.609375,,,,,,FBP-OG-18.png,0.4,1.2,8,0.5,0,12,12,7,1,,,,,,,,,,,,,,,,,,,,,,,,,,,,,,,,,,,,,,,,
,,,,,SPR24_057,21,Male,2024-04-17_10h03.40.422,jersey_experiment_5_v0,2023.2.2,Win32,86.95652174,,,,,,,,,,,,,,,,378.9732,380.2671,380.2671,382.5143,return,0.6975,,74.609375,,,,,,FBP-RB-71.png,0.37,1.2,32,0.5,0,13,13,31,1,,,,,,,,,,,,,,,,,,,,,,,,,,,,,,,,,,,,,,,,
,,,,,SPR24_057,21,Male,2024-04-17_10h03.40.422,jersey_experiment_5_v0,2023.2.2,Win32,86.95652174,,,,,,,,,,,,,,,,382.5144,383.8085,383.8086,385.6673,return,0.885,,74.609375,,,,,,FBP-OG-19.png,0.4,1.2,13,0.5,0,14,14,12,1,,,,,,,,,,,,,,,,,,,,,,,,,,,,,,,,,,,,,,,,
,,,,,SPR24_057,21,Male,2024-04-17_10h03.40.422,jersey_experiment_5_v0,2023.2.2,Win32,86.95652174,,,,,,,,,,,,,,,,385.6676,386.9616,386.9616,388.9733,return,0.8082,,74.609375,,,,,,FBP-OG-18.png,0.35,1.2,6,0.5,0,15,15,5,1,,,,,,,,,,,,,,,,,,,,,,,,,,,,,,,,,,,,,,,,
,,,,,SPR24_057,21,Male,2024-04-17_10h03.40.422,jersey_experiment_5_v0,2023.2.2,Win32,86.95652174,,,,,,,,,,,,,,,,388.9736,390.2675,390.2675,392.1029,return,0.6919,,74.609375,,,,,,FBP-OG-18.png,0.37,1.2,7,0.5,0,16,16,6,1,,,,,,,,,,,,,,,,,,,,,,,,,,,,,,,,,,,,,,,,
,,,,,SPR24_057,21,Male,2024-04-17_10h03.40.422,jersey_experiment_5_v0,2023.2.2,Win32,86.95652174,,,,,,,,,,,,,,,,392.1032,393.3971,393.3971,395.4088,return,0.9433,,74.609375,,,,,,FBP-RB-81.png,0.37,1.2,37,0.5,0,17,17,36,1,,,,,,,,,,,,,,,,,,,,,,,,,,,,,,,,,,,,,,,,
,,,,,SPR24_057,21,Male,2024-04-17_10h03.40.422,jersey_experiment_5_v0,2023.2.2,Win32,86.95652174,,,,,,,,,,,,,,,,395.409,396.4559,396.4559,398.6208,return,0.7001,,99.609375,,,,,,FBP-PT-91.png,0.45,1.2,60,0.25,0,18,18,59,1,,,,,,,,,,,,,,,,,,,,,,,,,,,,,,,,,,,,,,,,
,,,,,SPR24_057,21,Male,2024-04-17_10h03.40.422,jersey_experiment_5_v0,2023.2.2,Win32,86.95652174,,,,,,,,,,,,,,,,398.621,399.6679,399.6679,403.3739,return,0.5958,,74.609375,,,,,,FBP-PT-71.png,0.37,1.2,47,0.25,0,19,19,46,1,,,,,,,,,,,,,,,,,,,,,,,,,,,,,,,,,,,,,,,,
,,,,,SPR24_057,21,Male,2024-04-17_10h03.40.422,jersey_experiment_5_v0,2023.2.2,Win32,86.95652174,,,,,,,,,,,,,,,,403.3742,404.6679,404.668,406.8681,return,0.4602,,99.609375,,,,,,FBP-OG-19.png,0.43,1.2,14,0.5,0,20,20,13,1,,,,,,,,,,,,,,,,,,,,,,,,,,,,,,,,,,,,,,,,
,,,,,SPR24_057,21,Male,2024-04-17_10h03.40.422,jersey_experiment_5_v0,2023.2.2,Win32,86.95652174,,,,,,,,,,,,,,,,406.8684,407.9152,407.9153,410.1976,return,0.7763,,75.26041667,,,,,,FBP-YG-81.png,0.37,1.2,22,0.25,0,21,21,21,1,,,,,,,,,,,,,,,,,,,,,,,,,,,,,,,,,,,,,,,,
,,,,,SPR24_057,21,Male,2024-04-17_10h03.40.422,jersey_experiment_5_v0,2023.2.2,Win32,86.95652174,,,,,,,,,,,,,,,,410.1978,411.2448,411.2449,412.9976,return,0.5037,,74.73958333,,,,,,FBP-YG-71.png,0.37,1.2,17,0.25,0,22,22,16,1,,,,,,,,,,,,,,,,,,,,,,,,,,,,,,,,,,,,,,,,
,,,,,SPR24_057,21,Male,2024-04-17_10h03.40.422,jersey_experiment_5_v0,2023.2.2,Win32,86.95652174,,,,,,,,,,,,,,,,412.9977,414.0449,414.0449,417.3156,return,0.5316,,99.73958333,,,,,,FBP-YG-91.png,0.45,1.2,30,0.25,0,23,23,29,1,,,,,,,,,,,,,,,,,,,,,,,,,,,,,,,,,,,,,,,,
,,,,,SPR24_057,21,Male,2024-04-17_10h03.40.422,jersey_experiment_5_v0,2023.2.2,Win32,86.95652174,,,,,,,,,,,,,,,,417.3158,418.3627,418.3627,421.4685,return,0.4559,,75,,,,,,FBP-PT-91.png,0.4,1.2,58,0.25,0,24,24,57,1,,,,,,,,,,,,,,,,,,,,,,,,,,,,,,,,,,,,,,,,
,,,,,SPR24_057,21,Male,2024-04-17_10h03.40.422,jersey_experiment_5_v0,2023.2.2,Win32,86.95652174,,,,,,,,,,,,,,,,421.4687,422.7628,422.7628,424.4806,return,0.7208,,75,,,,,,FBP-OG-17.png,0.37,1.2,2,0.5,0,25,25,1,1,,,,,,,,,,,,,,,,,,,,,,,,,,,,,,,,,,,,,,,,
,,,,,SPR24_057,21,Male,2024-04-17_10h03.40.422,jersey_experiment_5_v0,2023.2.2,Win32,86.95652174,,,,,,,,,,,,,,,,424.4809,425.7746,425.7746,427.6335,return,0.5316,,99.47916667,,,,,,FBP-RB-81.png,0.43,1.2,39,0.5,0,26,26,38,1,,,,,,,,,,,,,,,,,,,,,,,,,,,,,,,,,,,,,,,,
,,,,,SPR24_057,21,Male,2024-04-17_10h03.40.422,jersey_experiment_5_v0,2023.2.2,Win32,86.95652174,,,,,,,,,,,,,,,,427.6337,428.6807,428.6807,431.1396,return,0.4019,,75.26041667,,,,,,FBP-YG-71.png,0.35,1.2,16,0.25,0,27,27,15,1,,,,,,,,,,,,,,,,,,,,,,,,,,,,,,,,,,,,,,,,
,,,,,SPR24_057,21,Male,2024-04-17_10h03.40.422,jersey_experiment_5_v0,2023.2.2,Win32,86.95652174,,,,,,,,,,,,,,,,431.1398,432.1868,432.1868,434.269,return,0.7243,,75.26041667,,,,,,FBP-YG-91.png,0.35,1.2,26,0.25,0,28,28,25,1,,,,,,,,,,,,,,,,,,,,,,,,,,,,,,,,,,,,,,,,
,,,,,SPR24_057,21,Male,2024-04-17_10h03.40.422,jersey_experiment_5_v0,2023.2.2,Win32,86.95652174,,,,,,,,,,,,,,,,434.2692,435.3164,435.3164,437.0692,return,0.559,,75,,,,,,FBP-PT-81.png,0.37,1.2,52,0.25,0,29,29,51,1,,,,,,,,,,,,,,,,,,,,,,,,,,,,,,,,,,,,,,,,
,,,,,SPR24_057,21,Male,2024-04-17_10h03.40.422,jersey_experiment_5_v0,2023.2.2,Win32,86.95652174,,,,,,,,,,,,,,,,437.0694,438.1164,438.1164,439.5047,return,0.5344,,75,,,,,,FBP-YG-91.png,0.37,1.2,27,0.25,0,30,30,26,1,,,,,,,,,,,,,,,,,,,,,,,,,,,,,,,,,,,,,,,,
,,,,,SPR24_057,21,Male,2024-04-17_10h03.40.422,jersey_experiment_5_v0,2023.2.2,Win32,86.95652174,,,,,,,,,,,,,,,,439.5049,440.7988,440.7989,442.7048,return,0.6142,,75,,,,,,FBP-RB-71.png,0.35,1.2,31,0.5,0,31,31,30,1,,,,,,,,,,,,,,,,,,,,,,,,,,,,,,,,,,,,,,,,
,,,,,SPR24_057,21,Male,2024-04-17_10h03.40.422,jersey_experiment_5_v0,2023.2.2,Win32,86.95652174,,,,,,,,,,,,,,,,442.705,443.9988,443.9988,445.846,return,0.5264,,99.73958333,,,,,,FBP-OG-18.png,0.43,1.2,9,0.5,0,32,32,8,1,,,,,,,,,,,,,,,,,,,,,,,,,,,,,,,,,,,,,,,,
,,,,,SPR24_057,21,Male,2024-04-17_10h03.40.422,jersey_experiment_5_v0,2023.2.2,Win32,86.95652174,,,,,,,,,,,,,,,,445.8461,447.1401,447.1401,448.8933,return,0.5847,,99.73958333,,,,,,FBP-OG-17.png,0.43,1.2,4,0.5,0,33,33,3,1,,,,,,,,,,,,,,,,,,,,,,,,,,,,,,,,,,,,,,,,
,,,,,SPR24_057,21,Male,2024-04-17_10h03.40.422,jersey_experiment_5_v0,2023.2.2,Win32,86.95652174,,,,,,,,,,,,,,,,448.8935,450.1874,450.1874,451.3169,return,0.3054,,99.86979167,,,,,,FBP-RB-91.png,0.45,1.2,45,0.5,0,34,34,44,1,,,,,,,,,,,,,,,,,,,,,,,,,,,,,,,,,,,,,,,,
,,,,,SPR24_057,21,Male,2024-04-17_10h03.40.422,jersey_experiment_5_v0,2023.2.2,Win32,86.95652174,,,,,,,,,,,,,,,,451.3171,452.3638,452.3638,453.5522,return,0.4735,,99.86979167,,,,,,FBP-YG-71.png,0.43,1.2,19,0.25,0,35,35,18,1,,,,,,,,,,,,,,,,,,,,,,,,,,,,,,,,,,,,,,,,
,,,,,SPR24_057,21,Male,2024-04-17_10h03.40.422,jersey_experiment_5_v0,2023.2.2,Win32,86.95652174,,,,,,,,,,,,,,,,453.5525,454.8464,454.8465,456.9641,return,0.4612,,75.13020833,,,,,,FBP-OG-17.png,0.35,1.2,1,0.5,0,36,36,0,1,,,,,,,,,,,,,,,,,,,,,,,,,,,,,,,,,,,,,,,,
,,,,,SPR24_057,21,Male,2024-04-17_10h03.40.422,jersey_experiment_5_v0,2023.2.2,Win32,86.95652174,,,,,,,,,,,,,,,,456.9643,458.2583,458.2584,460.3055,return,0.8488,,75.13020833,,,,,,FBP-RB-91.png,0.4,1.2,43,0.5,0,37,37,42,1,,,,,,,,,,,,,,,,,,,,,,,,,,,,,,,,,,,,,,,,
,,,,,SPR24_057,21,Male,2024-04-17_10h03.40.422,jersey_experiment_5_v0,2023.2.2,Win32,86.95652174,,,,,,,,,,,,,,,,460.3057,461.5994,461.5994,465.1998,return,0.2532,,75,,,,,,FBP-RB-91.png,0.43,1.2,44,0.5,0,38,38,43,1,,,,,,,,,,,,,,,,,,,,,,,,,,,,,,,,,,,,,,,,
,,,,,SPR24_057,21,Male,2024-04-17_10h03.40.422,jersey_experiment_5_v0,2023.2.2,Win32,86.95652174,,,,,,,,,,,,,,,,465.2,466.2468,466.2468,467.9529,return,0.379,,74.86979167,,,,,,FBP-PT-91.png,0.43,1.2,59,0.25,0,39,39,58,1,,,,,,,,,,,,,,,,,,,,,,,,,,,,,,,,,,,,,,,,
,,,,,SPR24_057,21,Male,2024-04-17_10h03.40.422,jersey_experiment_5_v0,2023.2.2,Win32,86.95652174,,,,,,,,,,,,,,,,467.9531,469.247,469.247,472.1294,return,1.3784,,74.86979167,,,,,,FBP-OG-17.png,0.4,1.2,3,0.5,0,40,40,2,1,,,,,,,,,,,,,,,,,,,,,,,,,,,,,,,,,,,,,,,,
,,,,,SPR24_057,21,Male,2024-04-17_10h03.40.422,jersey_experiment_5_v0,2023.2.2,Win32,86.95652174,,,,,,,,,,,,,,,,472.1295,473.1765,473.1765,475.3765,return,0.7345,,99.47916667,,,,,,FBP-YG-81.png,0.45,1.2,25,0.25,0,41,41,24,1,,,,,,,,,,,,,,,,,,,,,,,,,,,,,,,,,,,,,,,,
,,,,,SPR24_057,21,Male,2024-04-17_10h03.40.422,jersey_experiment_5_v0,2023.2.2,Win32,86.95652174,,,,,,,,,,,,,,,,475.3766,476.6707,476.6707,478.8472,return,0.3711,,74.86979167,,,,,,FBP-RB-91.png,0.35,1.2,41,0.5,0,42,42,40,1,,,,,,,,,,,,,,,,,,,,,,,,,,,,,,,,,,,,,,,,
,,,,,SPR24_057,21,Male,2024-04-17_10h03.40.422,jersey_experiment_5_v0,2023.2.2,Win32,86.95652174,,,,,,,,,,,,,,,,478.8474,479.8943,479.8944,484.2709,return,2.6655,,49.86979167,,,,,,FBP-PT-71.png,0.35,1.2,46,0.25,0,43,43,45,1,,,,,,,,,,,,,,,,,,,,,,,,,,,,,,,,,,,,,,,,
,,,,,SPR24_057,21,Male,2024-04-17_10h03.40.422,jersey_experiment_5_v0,2023.2.2,Win32,86.95652174,,,,,,,,,,,,,,,,484.2711,485.318,485.318,487.6828,return,0.732,,75.13020833,,,,,,FBP-YG-81.png,0.43,1.2,24,0.25,0,44,44,23,1,,,,,,,,,,,,,,,,,,,,,,,,,,,,,,,,,,,,,,,,
,,,,,SPR24_057,21,Male,2024-04-17_10h03.40.422,jersey_experiment_5_v0,2023.2.2,Win32,86.95652174,,,,,,,,,,,,,,,,487.6831,488.977,488.977,491.6949,return,0.6774,,75.13020833,,,,,,FBP-RB-81.png,0.35,1.2,36,0.5,0,45,45,35,1,,,,,,,,,,,,,,,,,,,,,,,,,,,,,,,,,,,,,,,,
,,,,,SPR24_057,21,Male,2024-04-17_10h03.40.422,jersey_experiment_5_v0,2023.2.2,Win32,86.95652174,,,,,,,,,,,,,,,,491.695,492.7418,492.7418,494.5184,return,0.5892,,75.13020833,,,,,,FBP-PT-71.png,0.4,1.2,48,0.25,0,46,46,47,1,,,,,,,,,,,,,,,,,,,,,,,,,,,,,,,,,,,,,,,,
,,,,,SPR24_057,21,Male,2024-04-17_10h03.40.422,jersey_experiment_5_v0,2023.2.2,Win32,86.95652174,,,,,,,,,,,,,,,,494.5187,495.5655,495.5655,497.542,return,0.48,,99.609375,,,,,,FBP-YG-91.png,0.43,1.2,29,0.25,0,47,47,28,1,,,,,,,,,,,,,,,,,,,,,,,,,,,,,,,,,,,,,,,,
,,,,,SPR24_057,21,Male,2024-04-17_10h03.40.422,jersey_experiment_5_v0,2023.2.2,Win32,86.95652174,,,,,,,,,,,,,,,,497.5422,498.8363,498.8363,501.1657,return,0.6198,,99.73958333,,,,,,FBP-OG-19.png,0.45,1.2,15,0.5,0,48,48,14,1,,,,,,,,,,,,,,,,,,,,,,,,,,,,,,,,,,,,,,,,
,,,,,SPR24_057,21,Male,2024-04-17_10h03.40.422,jersey_experiment_5_v0,2023.2.2,Win32,86.95652174,,,,,,,,,,,,,,,,501.1659,502.4599,502.46,504.0833,return,0.3312,,25,,,,,,FBP-OG-19.png,0.35,1.2,11,0.5,0,49,49,10,1,,,,,,,,,,,,,,,,,,,,,,,,,,,,,,,,,,,,,,,,
,,,,,SPR24_057,21,Male,2024-04-17_10h03.40.422,jersey_experiment_5_v0,2023.2.2,Win32,86.95652174,,,,,,,,,,,,,,,,504.0835,505.1306,505.1306,509.7191,return,0.6735,,24.47916667,,,,,,FBP-YG-91.png,0.4,1.2,28,0.25,0,50,50,27,1,,,,,,,,,,,,,,,,,,,,,,,,,,,,,,,,,,,,,,,,
,,,,,SPR24_057,21,Male,2024-04-17_10h03.40.422,jersey_experiment_5_v0,2023.2.2,Win32,86.95652174,,,,,,,,,,,,,,,,509.7192,511.0132,511.0132,512.8956,return,0.4978,,74.86979167,,,,,,FBP-OG-17.png,0.45,1.2,5,0.5,0,51,51,4,1,,,,,,,,,,,,,,,,,,,,,,,,,,,,,,,,,,,,,,,,
,,,,,SPR24_057,21,Male,2024-04-17_10h03.40.422,jersey_experiment_5_v0,2023.2.2,Win32,86.95652174,,,,,,,,,,,,,,,,512.8959,514.1898,514.1899,516.0603,return,0.4418,,24.86979167,,,,,,FBP-RB-91.png,0.37,1.2,42,0.5,0,52,52,41,1,,,,,,,,,,,,,,,,,,,,,,,,,,,,,,,,,,,,,,,,
,,,,,SPR24_057,21,Male,2024-04-17_10h03.40.422,jersey_experiment_5_v0,2023.2.2,Win32,86.95652174,,,,,,,,,,,,,,,,516.0605,517.1075,517.1076,518.7546,return,0.6126,,24.86979167,,,,,,FBP-PT-91.png,0.37,1.2,57,0.25,0,53,53,56,1,,,,,,,,,,,,,,,,,,,,,,,,,,,,,,,,,,,,,,,,
,,,,,SPR24_057,21,Male,2024-04-17_10h03.40.422,jersey_experiment_5_v0,2023.2.2,Win32,86.95652174,,,,,,,,,,,,,,,,518.7547,520.0487,520.0487,521.5548,return,0.4718,,74.86979167,,,,,,FBP-RB-71.png,0.43,1.2,34,0.5,0,54,54,33,1,,,,,,,,,,,,,,,,,,,,,,,,,,,,,,,,,,,,,,,,
,,,,,SPR24_057,21,Male,2024-04-17_10h03.40.422,jersey_experiment_5_v0,2023.2.2,Win32,86.95652174,,,,,,,,,,,,,,,,521.5549,522.8489,522.8489,525.3782,return,0.5205,,74.609375,,,,,,FBP-OG-19.png,0.37,1.2,12,0.5,0,55,55,11,1,,,,,,,,,,,,,,,,,,,,,,,,,,,,,,,,,,,,,,,,
,,,,,SPR24_057,21,Male,2024-04-17_10h03.40.422,jersey_experiment_5_v0,2023.2.2,Win32,86.95652174,,,,,,,,,,,,,,,,525.3785,526.6726,526.6726,529.0139,return,1.4119,,74.609375,,,,,,FBP-RB-71.png,0.4,1.2,33,0.5,0,56,56,32,1,,,,,,,,,,,,,,,,,,,,,,,,,,,,,,,,,,,,,,,,
,,,,,SPR24_057,21,Male,2024-04-17_10h03.40.422,jersey_experiment_5_v0,2023.2.2,Win32,86.95652174,,,,,,,,,,,,,,,,529.0142,530.061,530.061,531.9552,return,0.273,,99.86979167,,,,,,FBP-PT-71.png,0.43,1.2,49,0.25,0,57,57,48,1,,,,,,,,,,,,,,,,,,,,,,,,,,,,,,,,,,,,,,,,
,,,,,SPR24_057,21,Male,2024-04-17_10h03.40.422,jersey_experiment_5_v0,2023.2.2,Win32,86.95652174,,,,,,,,,,,,,,,,531.9554,533.2492,533.2493,535.1435,return,0.5411,,99.73958333,,,,,,FBP-RB-81.png,0.45,1.2,40,0.5,0,58,58,39,1,,,,,,,,,,,,,,,,,,,,,,,,,,,,,,,,,,,,,,,,
,,,,,SPR24_057,21,Male,2024-04-17_10h03.40.422,jersey_experiment_5_v0,2023.2.2,Win32,86.95652174,,,,,,,,,,,,,,,,535.1437,536.1907,536.1908,538.1082,return,0.5975,,99.86979167,,,,,,FBP-YG-71.png,0.4,1.2,18,0.25,0,59,59,17,1,,,,,,,,,,,,,,,,,,,,,,,,,,,,,,,,,,,,,,,,
,,,,,SPR24_057,21,Male,2024-04-17_10h03.40.422,jersey_experiment_5_v0,2023.2.2,Win32,86.95652174,,,,,,,,,,,,,,,,,,,,,,,,,,,,,,,,,,,,,,,538.1087,658.1014,,,,,,,,,,,,,,,,,,,,,,,,,,,,,,,,,,,,,,
,,,,,SPR24_057,21,Male,2024-04-17_10h03.40.422,jersey_experiment_5_v0,2023.2.2,Win32,86.95652174,,,,,,,,,,,,,,,,,,,,,,,,,,,,,,,,,,,,,,,,,658.1014,661.4895,return,3.3771,,,,,,,,,,,,,,,,,,,,,,,,,,,,,,,,,,
,,,,,SPR24_057,21,Male,2024-04-17_10h03.40.422,jersey_experiment_5_v0,2023.2.2,Win32,86.95652174,,,,,,,,,,,,,,,,661.4956,662.5483,662.5483,665.6543,return,0.5555,,74.73958333,,,,,,FBP-OG-71.png,0.43,1.2,4,0.25,,,,,,,,,,,,,0,0,0,3,1,,,,,,,,,,,,,,,,,,,,,,,,,,,,
,,,,,SPR24_057,21,Male,2024-04-17_10h03.40.422,jersey_experiment_5_v0,2023.2.2,Win32,86.95652174,,,,,,,,,,,,,,,,665.6547,666.9483,666.9483,668.772,return,0.2934,,24.47916667,,,,,,FBP-YG-19.png,0.37,1.2,27,0.5,,,,,,,,,,,,,0,1,1,26,1,,,,,,,,,,,,,,,,,,,,,,,,,,,,
,,,,,SPR24_057,21,Male,2024-04-17_10h03.40.422,jersey_experiment_5_v0,2023.2.2,Win32,86.95652174,,,,,,,,,,,,,,,,668.7721,669.8192,669.8192,670.8662,return,0.3653,,24.73958333,,,,,,FBP-RB-19.png,0.35,1.2,41,0.25,,,,,,,,,,,,,0,2,2,40,1,,,,,,,,,,,,,,,,,,,,,,,,,,,,
,,,,,SPR24_057,21,Male,2024-04-17_10h03.40.422,jersey_experiment_5_v0,2023.2.2,Win32,86.95652174,,,,,,,,,,,,,,,,670.8663,672.1605,672.1605,673.7604,return,0.2958,,99.34895833,,,,,,FBP-PT-19.png,0.45,1.2,60,0.5,,,,,,,,,,,,,0,3,3,59,1,,,,,,,,,,,,,,,,,,,,,,,,,,,,
,,,,,SPR24_057,21,Male,2024-04-17_10h03.40.422,jersey_experiment_5_v0,2023.2.2,Win32,86.95652174,,,,,,,,,,,,,,,,673.7605,675.0545,675.0545,677.8547,return,0.4163,,75.26041667,,,,,,FBP-YG-17.png,0.43,1.2,19,0.5,,,,,,,,,,,,,0,4,4,18,1,,,,,,,,,,,,,,,,,,,,,,,,,,,,
,,,,,SPR24_057,21,Male,2024-04-17_10h03.40.422,jersey_experiment_5_v0,2023.2.2,Win32,86.95652174,,,,,,,,,,,,,,,,677.8549,678.9018,678.9019,679.8782,return,0.2118,,75.26041667,,,,,,FBP-OG-71.png,0.37,1.2,2,0.25,,,,,,,,,,,,,0,5,5,1,1,,,,,,,,,,,,,,,,,,,,,,,,,,,,
,,,,,SPR24_057,21,Male,2024-04-17_10h03.40.422,jersey_experiment_5_v0,2023.2.2,Win32,86.95652174,,,,,,,,,,,,,,,,679.8784,681.1724,681.1724,682.5725,return,0.2419,,74.73958333,,,,,,FBP-YG-17.png,0.35,1.2,16,0.5,,,,,,,,,,,,,0,6,6,15,1,,,,,,,,,,,,,,,,,,,,,,,,,,,,
,,,,,SPR24_057,21,Male,2024-04-17_10h03.40.422,jersey_experiment_5_v0,2023.2.2,Win32,86.95652174,,,,,,,,,,,,,,,,682.5726,683.6195,683.6195,685.1725,return,0.5281,,74.73958333,,,,,,FBP-RB-17.png,0.37,1.2,32,0.25,,,,,,,,,,,,,0,7,7,31,1,,,,,,,,,,,,,,,,,,,,,,,,,,,,
,,,,,SPR24_057,21,Male,2024-04-17_10h03.40.422,jersey_experiment_5_v0,2023.2.2,Win32,86.95652174,,,,,,,,,,,,,,,,685.1728,686.2196,686.2197,687.4903,return,0.5327,,74.73958333,,,,,,FBP-RB-18.png,0.37,1.2,37,0.25,,,,,,,,,,,,,0,8,8,36,1,,,,,,,,,,,,,,,,,,,,,,,,,,,,
,,,,,SPR24_057,21,Male,2024-04-17_10h03.40.422,jersey_experiment_5_v0,2023.2.2,Win32,86.95652174,,,,,,,,,,,,,,,,687.4906,688.7845,688.7845,690.5139,return,0.4739,,74.73958333,,,,,,FBP-PT-17.png,0.4,1.2,48,0.5,,,,,,,,,,,,,0,9,9,47,1,,,,,,,,,,,,,,,,,,,,,,,,,,,,
,,,,,SPR24_057,21,Male,2024-04-17_10h03.40.422,jersey_experiment_5_v0,2023.2.2,Win32,86.95652174,,,,,,,,,,,,,,,,690.5142,691.8081,691.8081,692.8201,return,0.3643,,74.73958333,,,,,,FBP-YG-18.png,0.37,1.2,22,0.5,,,,,,,,,,,,,0,10,10,21,1,,,,,,,,,,,,,,,,,,,,,,,,,,,,
,,,,,SPR24_057,21,Male,2024-04-17_10h03.40.422,jersey_experiment_5_v0,2023.2.2,Win32,86.95652174,,,,,,,,,,,,,,,,692.8202,694.1141,694.1141,695.1729,return,0.3628,,74.73958333,,,,,,FBP-PT-17.png,0.37,1.2,47,0.5,,,,,,,,,,,,,0,11,11,46,1,,,,,,,,,,,,,,,,,,,,,,,,,,,,
,,,,,SPR24_057,21,Male,2024-04-17_10h03.40.422,jersey_experiment_5_v0,2023.2.2,Win32,86.95652174,,,,,,,,,,,,,,,,695.1731,696.2202,696.2202,697.4318,return,0.4941,,74.73958333,,,,,,FBP-RB-18.png,0.35,1.2,36,0.25,,,,,,,,,,,,,0,12,12,35,1,,,,,,,,,,,,,,,,,,,,,,,,,,,,
,,,,,SPR24_057,21,Male,2024-04-17_10h03.40.422,jersey_experiment_5_v0,2023.2.2,Win32,86.95652174,,,,,,,,,,,,,,,,697.432,698.726,698.726,701.1731,return,0.4945,,99.86979167,,,,,,FBP-PT-18.png,0.43,1.2,54,0.5,,,,,,,,,,,,,0,13,13,53,1,,,,,,,,,,,,,,,,,,,,,,,,,,,,
,,,,,SPR24_057,21,Male,2024-04-17_10h03.40.422,jersey_experiment_5_v0,2023.2.2,Win32,86.95652174,,,,,,,,,,,,,,,,701.1733,702.2203,702.2203,703.6557,return,0.2735,,99.86979167,,,,,,FBP-RB-17.png,0.45,1.2,35,0.25,,,,,,,,,,,,,0,14,14,34,1,,,,,,,,,,,,,,,,,,,,,,,,,,,,
,,,,,SPR24_057,21,Male,2024-04-17_10h03.40.422,jersey_experiment_5_v0,2023.2.2,Win32,86.95652174,,,,,,,,,,,,,,,,703.6559,704.7027,704.7027,707.8911,return,0.3203,,99.73958333,,,,,,FBP-OG-81.png,0.4,1.2,8,0.25,,,,,,,,,,,,,0,15,15,7,1,,,,,,,,,,,,,,,,,,,,,,,,,,,,
,,,,,SPR24_057,21,Male,2024-04-17_10h03.40.422,jersey_experiment_5_v0,2023.2.2,Win32,86.95652174,,,,,,,,,,,,,,,,707.8913,709.1853,709.1853,711.703,return,0.2586,,74.86979167,,,,,,FBP-YG-17.png,0.4,1.2,18,0.5,,,,,,,,,,,,,0,16,16,17,1,,,,,,,,,,,,,,,,,,,,,,,,,,,,
,,,,,SPR24_057,21,Male,2024-04-17_10h03.40.422,jersey_experiment_5_v0,2023.2.2,Win32,86.95652174,,,,,,,,,,,,,,,,711.7033,712.75,712.7501,714.256,return,0.4995,,74.86979167,,,,,,FBP-OG-81.png,0.35,1.2,6,0.25,,,,,,,,,,,,,0,17,17,5,1,,,,,,,,,,,,,,,,,,,,,,,,,,,,
,,,,,SPR24_057,21,Male,2024-04-17_10h03.40.422,jersey_experiment_5_v0,2023.2.2,Win32,86.95652174,,,,,,,,,,,,,,,,714.2562,715.5501,715.5501,716.962,return,0.5546,,74.86979167,,,,,,FBP-YG-18.png,0.35,1.2,21,0.5,,,,,,,,,,,,,0,18,18,20,1,,,,,,,,,,,,,,,,,,,,,,,,,,,,
,,,,,SPR24_057,21,Male,2024-04-17_10h03.40.422,jersey_experiment_5_v0,2023.2.2,Win32,86.95652174,,,,,,,,,,,,,,,,716.9623,718.2562,718.2562,721.1739,return,0.3384,,99.86979167,,,,,,FBP-PT-17.png,0.45,1.2,50,0.5,,,,,,,,,,,,,0,19,19,49,1,,,,,,,,,,,,,,,,,,,,,,,,,,,,
,,,,,SPR24_057,21,Male,2024-04-17_10h03.40.422,jersey_experiment_5_v0,2023.2.2,Win32,86.95652174,,,,,,,,,,,,,,,,721.1741,722.221,722.221,725.174,return,0.1979,,99.86979167,,,,,,FBP-RB-17.png,0.4,1.2,33,0.25,,,,,,,,,,,,,0,20,20,32,1,,,,,,,,,,,,,,,,,,,,,,,,,,,,
,,,,,SPR24_057,21,Male,2024-04-17_10h03.40.422,jersey_experiment_5_v0,2023.2.2,Win32,86.95652174,,,,,,,,,,,,,,,,725.1742,726.4682,726.4682,728.2212,return,0.2177,,99.609375,,,,,,FBP-PT-19.png,0.43,1.2,59,0.5,,,,,,,,,,,,,0,21,21,58,1,,,,,,,,,,,,,,,,,,,,,,,,,,,,
,,,,,SPR24_057,21,Male,2024-04-17_10h03.40.422,jersey_experiment_5_v0,2023.2.2,Win32,86.95652174,,,,,,,,,,,,,,,,728.2214,729.5154,729.5154,731.1862,return,0.1798,,74.86979167,,,,,,FBP-PT-18.png,0.37,1.2,52,0.5,,,,,,,,,,,,,0,22,22,51,1,,,,,,,,,,,,,,,,,,,,,,,,,,,,
,,,,,SPR24_057,21,Male,2024-04-17_10h03.40.422,jersey_experiment_5_v0,2023.2.2,Win32,86.95652174,,,,,,,,,,,,,,,,731.1864,732.4803,732.4803,733.4684,return,0.3975,,74.86979167,,,,,,FBP-YG-19.png,0.35,1.2,26,0.5,,,,,,,,,,,,,0,23,23,25,1,,,,,,,,,,,,,,,,,,,,,,,,,,,,
,,,,,SPR24_057,21,Male,2024-04-17_10h03.40.422,jersey_experiment_5_v0,2023.2.2,Win32,86.95652174,,,,,,,,,,,,,,,,733.4687,734.5156,734.5156,735.4451,return,0.2365,,74.86979167,,,,,,FBP-RB-19.png,0.37,1.2,42,0.25,,,,,,,,,,,,,0,24,24,41,1,,,,,,,,,,,,,,,,,,,,,,,,,,,,
,,,,,SPR24_057,21,Male,2024-04-17_10h03.40.422,jersey_experiment_5_v0,2023.2.2,Win32,86.95652174,,,,,,,,,,,,,,,,735.4453,736.4921,736.4922,740.0335,return,1.1217,,24.86979167,,,,,,FBP-OG-71.png,0.35,1.2,1,0.25,,,,,,,,,,,,,0,25,25,0,1,,,,,,,,,,,,,,,,,,,,,,,,,,,,
,,,,,SPR24_057,21,Male,2024-04-17_10h03.40.422,jersey_experiment_5_v0,2023.2.2,Win32,86.95652174,,,,,,,,,,,,,,,,740.0336,741.0805,741.0805,742.4689,return,0.283,,75.13020833,,,,,,FBP-RB-19.png,0.4,1.2,43,0.25,,,,,,,,,,,,,0,26,26,42,1,,,,,,,,,,,,,,,,,,,,,,,,,,,,
,,,,,SPR24_057,21,Male,2024-04-17_10h03.40.422,jersey_experiment_5_v0,2023.2.2,Win32,86.95652174,,,,,,,,,,,,,,,,742.469,743.7629,743.7629,745.2454,return,0.3142,,75,,,,,,FBP-YG-18.png,0.4,1.2,23,0.5,,,,,,,,,,,,,0,27,27,22,1,,,,,,,,,,,,,,,,,,,,,,,,,,,,
,,,,,SPR24_057,21,Male,2024-04-17_10h03.40.422,jersey_experiment_5_v0,2023.2.2,Win32,86.95652174,,,,,,,,,,,,,,,,745.2456,746.5395,746.5395,747.9397,return,0.2828,,99.609375,,,,,,FBP-YG-19.png,0.45,1.2,30,0.5,,,,,,,,,,,,,0,28,28,29,1,,,,,,,,,,,,,,,,,,,,,,,,,,,,
,,,,,SPR24_057,21,Male,2024-04-17_10h03.40.422,jersey_experiment_5_v0,2023.2.2,Win32,86.95652174,,,,,,,,,,,,,,,,747.9398,748.9867,748.9868,750.1984,return,0.2729,,99.73958333,,,,,,FBP-RB-19.png,0.45,1.2,45,0.25,,,,,,,,,,,,,0,29,29,44,1,,,,,,,,,,,,,,,,,,,,,,,,,,,,
,,,,,SPR24_057,21,Male,2024-04-17_10h03.40.422,jersey_experiment_5_v0,2023.2.2,Win32,86.95652174,,,,,,,,,,,,,,,,750.1986,751.4927,751.4928,752.3399,return,0.2119,,99.609375,,,,,,FBP-YG-19.png,0.43,1.2,29,0.5,,,,,,,,,,,,,0,30,30,28,1,,,,,,,,,,,,,,,,,,,,,,,,,,,,
,,,,,SPR24_057,21,Male,2024-04-17_10h03.40.422,jersey_experiment_5_v0,2023.2.2,Win32,86.95652174,,,,,,,,,,,,,,,,752.3402,753.6343,753.6343,755.4694,return,0.1848,,74.73958333,,,,,,FBP-PT-18.png,0.4,1.2,53,0.5,,,,,,,,,,,,,0,31,31,52,1,,,,,,,,,,,,,,,,,,,,,,,,,,,,
,,,,,SPR24_057,21,Male,2024-04-17_10h03.40.422,jersey_experiment_5_v0,2023.2.2,Win32,86.95652174,,,,,,,,,,,,,,,,755.4696,756.7635,756.7635,758.1282,return,0.1674,,99.609375,,,,,,FBP-PT-18.png,0.45,1.2,55,0.5,,,,,,,,,,,,,0,32,32,54,1,,,,,,,,,,,,,,,,,,,,,,,,,,,,
,,,,,SPR24_057,21,Male,2024-04-17_10h03.40.422,jersey_experiment_5_v0,2023.2.2,Win32,86.95652174,,,,,,,,,,,,,,,,758.1284,759.1753,759.1754,760.9402,return,0.2307,,75.13020833,,,,,,FBP-OG-71.png,0.4,1.2,3,0.25,,,,,,,,,,,,,0,33,33,2,1,,,,,,,,,,,,,,,,,,,,,,,,,,,,
,,,,,SPR24_057,21,Male,2024-04-17_10h03.40.422,jersey_experiment_5_v0,2023.2.2,Win32,86.95652174,,,,,,,,,,,,,,,,760.9405,762.2341,762.2342,763.1049,return,0.1791,,75.13020833,,,,,,FBP-YG-19.png,0.4,1.2,28,0.5,,,,,,,,,,,,,0,34,34,27,1,,,,,,,,,,,,,,,,,,,,,,,,,,,,
,,,,,SPR24_057,21,Male,2024-04-17_10h03.40.422,jersey_experiment_5_v0,2023.2.2,Win32,86.95652174,,,,,,,,,,,,,,,,763.105,764.399,764.399,765.3638,return,0.3783,,74.86979167,,,,,,FBP-YG-18.png,0.45,1.2,25,0.5,,,,,,,,,,,,,0,35,35,24,1,,,,,,,,,,,,,,,,,,,,,,,,,,,,
,,,,,SPR24_057,21,Male,2024-04-17_10h03.40.422,jersey_experiment_5_v0,2023.2.2,Win32,86.95652174,,,,,,,,,,,,,,,,765.364,766.4109,766.411,767.4228,return,0.4187,,74.86979167,,,,,,FBP-OG-91.png,0.43,1.2,14,0.25,,,,,,,,,,,,,0,36,36,13,1,,,,,,,,,,,,,,,,,,,,,,,,,,,,
,,,,,SPR24_057,21,Male,2024-04-17_10h03.40.422,jersey_experiment_5_v0,2023.2.2,Win32,86.95652174,,,,,,,,,,,,,,,,767.4231,768.7169,768.7169,770.0817,return,0.0618,,25,,,,,,FBP-PT-17.png,0.35,1.2,46,0.5,,,,,,,,,,,,,0,37,37,45,1,,,,,,,,,,,,,,,,,,,,,,,,,,,,
,,,,,SPR24_057,21,Male,2024-04-17_10h03.40.422,jersey_experiment_5_v0,2023.2.2,Win32,86.95652174,,,,,,,,,,,,,,,,770.0819,771.1288,771.1288,772.5641,return,0.1899,,25.13020833,,,,,,FBP-RB-17.png,0.35,1.2,31,0.25,,,,,,,,,,,,,0,38,38,30,1,,,,,,,,,,,,,,,,,,,,,,,,,,,,
,,,,,SPR24_057,21,Male,2024-04-17_10h03.40.422,jersey_experiment_5_v0,2023.2.2,Win32,86.95652174,,,,,,,,,,,,,,,,772.5642,773.6112,773.6113,775.1523,return,0.1797,,74.86979167,,,,,,FBP-OG-81.png,0.45,1.2,10,0.25,,,,,,,,,,,,,0,39,39,9,1,,,,,,,,,,,,,,,,,,,,,,,,,,,,
,,,,,SPR24_057,21,Male,2024-04-17_10h03.40.422,jersey_experiment_5_v0,2023.2.2,Win32,86.95652174,,,,,,,,,,,,,,,,775.1525,776.1995,776.1995,777.1407,return,0.1421,,74.86979167,,,,,,FBP-OG-81.png,0.37,1.2,7,0.25,,,,,,,,,,,,,0,40,40,6,1,,,,,,,,,,,,,,,,,,,,,,,,,,,,
,,,,,SPR24_057,21,Male,2024-04-17_10h03.40.422,jersey_experiment_5_v0,2023.2.2,Win32,86.95652174,,,,,,,,,,,,,,,,777.1409,778.1878,778.1879,780.1643,return,0.3635,,74.73958333,,,,,,FBP-OG-91.png,0.35,1.2,11,0.25,,,,,,,,,,,,,0,41,41,10,1,,,,,,,,,,,,,,,,,,,,,,,,,,,,
,,,,,SPR24_057,21,Male,2024-04-17_10h03.40.422,jersey_experiment_5_v0,2023.2.2,Win32,86.95652174,,,,,,,,,,,,,,,,780.1645,781.4584,781.4584,782.3879,return,0.3908,,74.73958333,,,,,,FBP-PT-19.png,0.4,1.2,58,0.5,,,,,,,,,,,,,0,42,42,57,1,,,,,,,,,,,,,,,,,,,,,,,,,,,,
,,,,,SPR24_057,21,Male,2024-04-17_10h03.40.422,jersey_experiment_5_v0,2023.2.2,Win32,86.95652174,,,,,,,,,,,,,,,,782.3881,783.6822,783.6822,786.2233,return,0.1826,,50.26041667,,,,,,FBP-YG-17.png,0.37,1.2,17,0.5,,,,,,,,,,,,,0,43,43,16,1,,,,,,,,,,,,,,,,,,,,,,,,,,,,
,,,,,SPR24_057,21,Male,2024-04-17_10h03.40.422,jersey_experiment_5_v0,2023.2.2,Win32,86.95652174,,,,,,,,,,,,,,,,786.2236,787.2705,787.2706,788.9765,return,0.2145,,99.86979167,,,,,,FBP-RB-18.png,0.45,1.2,40,0.25,,,,,,,,,,,,,0,44,44,39,1,,,,,,,,,,,,,,,,,,,,,,,,,,,,
,,,,,SPR24_057,21,Male,2024-04-17_10h03.40.422,jersey_experiment_5_v0,2023.2.2,Win32,86.95652174,,,,,,,,,,,,,,,,788.9767,790.0235,790.0236,791.3766,return,0.0492,,74.86979167,,,,,,FBP-OG-91.png,0.4,1.2,13,0.25,,,,,,,,,,,,,0,45,45,12,1,,,,,,,,,,,,,,,,,,,,,,,,,,,,
,,,,,SPR24_057,21,Male,2024-04-17_10h03.40.422,jersey_experiment_5_v0,2023.2.2,Win32,86.95652174,,,,,,,,,,,,,,,,791.3768,792.4236,792.4237,793.953,return,0.1923,,99.21875,,,,,,FBP-RB-19.png,0.43,1.2,44,0.25,,,,,,,,,,,,,0,46,46,43,1,,,,,,,,,,,,,,,,,,,,,,,,,,,,
,,,,,SPR24_057,21,Male,2024-04-17_10h03.40.422,jersey_experiment_5_v0,2023.2.2,Win32,86.95652174,,,,,,,,,,,,,,,,793.9531,795.0002,795.0003,796.4826,return,0.3307,,74.47916667,,,,,,FBP-OG-91.png,0.37,1.2,12,0.25,,,,,,,,,,,,,0,47,47,11,1,,,,,,,,,,,,,,,,,,,,,,,,,,,,
,,,,,SPR24_057,21,Male,2024-04-17_10h03.40.422,jersey_experiment_5_v0,2023.2.2,Win32,86.95652174,,,,,,,,,,,,,,,,796.4828,797.5299,797.5299,799.071,return,0.1933,,99.73958333,,,,,,FBP-RB-17.png,0.43,1.2,34,0.25,,,,,,,,,,,,,0,48,48,33,1,,,,,,,,,,,,,,,,,,,,,,,,,,,,
,,,,,SPR24_057,21,Male,2024-04-17_10h03.40.422,jersey_experiment_5_v0,2023.2.2,Win32,86.95652174,,,,,,,,,,,,,,,,799.0713,800.1179,800.118,800.918,return,0.1981,,99.73958333,,,,,,FBP-OG-71.png,0.45,1.2,5,0.25,,,,,,,,,,,,,0,49,49,4,1,,,,,,,,,,,,,,,,,,,,,,,,,,,,
,,,,,SPR24_057,21,Male,2024-04-17_10h03.40.422,jersey_experiment_5_v0,2023.2.2,Win32,86.95652174,,,,,,,,,,,,,,,,800.9181,801.9651,801.9652,802.8123,return,0.1389,,99.73958333,,,,,,FBP-OG-91.png,0.45,1.2,15,0.25,,,,,,,,,,,,,0,50,50,14,1,,,,,,,,,,,,,,,,,,,,,,,,,,,,
,,,,,SPR24_057,21,Male,2024-04-17_10h03.40.422,jersey_experiment_5_v0,2023.2.2,Win32,86.95652174,,,,,,,,,,,,,,,,802.8125,804.1063,804.1063,806.5419,return,0.7233,,74.47916667,,,,,,FBP-PT-18.png,0.35,1.2,51,0.5,,,,,,,,,,,,,0,51,51,50,1,,,,,,,,,,,,,,,,,,,,,,,,,,,,
,,,,,SPR24_057,21,Male,2024-04-17_10h03.40.422,jersey_experiment_5_v0,2023.2.2,Win32,86.95652174,,,,,,,,,,,,,,,,806.5421,807.5889,807.5889,811.2714,return,0.4095,,99.609375,,,,,,FBP-RB-18.png,0.43,1.2,39,0.25,,,,,,,,,,,,,0,52,52,38,1,,,,,,,,,,,,,,,,,,,,,,,,,,,,
,,,,,SPR24_057,21,Male,2024-04-17_10h03.40.422,jersey_experiment_5_v0,2023.2.2,Win32,86.95652174,,,,,,,,,,,,,,,,811.2716,812.5655,812.5655,813.8715,return,0.4265,,99.47916667,,,,,,FBP-YG-18.png,0.43,1.2,24,0.5,,,,,,,,,,,,,0,53,53,23,1,,,,,,,,,,,,,,,,,,,,,,,,,,,,
,,,,,SPR24_057,21,Male,2024-04-17_10h03.40.422,jersey_experiment_5_v0,2023.2.2,Win32,86.95652174,,,,,,,,,,,,,,,,813.8717,815.1657,815.1657,816.5186,return,0.1883,,74.609375,,,,,,FBP-PT-19.png,0.35,1.2,56,0.5,,,,,,,,,,,,,0,54,54,55,1,,,,,,,,,,,,,,,,,,,,,,,,,,,,
,,,,,SPR24_057,21,Male,2024-04-17_10h03.40.422,jersey_experiment_5_v0,2023.2.2,Win32,86.95652174,,,,,,,,,,,,,,,,816.5189,817.5657,817.5657,821.1662,return,0.2169,,75.13020833,,,,,,FBP-OG-81.png,0.43,1.2,9,0.25,,,,,,,,,,,,,0,55,55,8,1,,,,,,,,,,,,,,,,,,,,,,,,,,,,
,,,,,SPR24_057,21,Male,2024-04-17_10h03.40.422,jersey_experiment_5_v0,2023.2.2,Win32,86.95652174,,,,,,,,,,,,,,,,821.1663,822.2129,822.213,823.5895,return,0.6345,,75.13020833,,,,,,FBP-RB-18.png,0.4,1.2,38,0.25,,,,,,,,,,,,,0,56,56,37,1,,,,,,,,,,,,,,,,,,,,,,,,,,,,
,,,,,SPR24_057,21,Male,2024-04-17_10h03.40.422,jersey_experiment_5_v0,2023.2.2,Win32,86.95652174,,,,,,,,,,,,,,,,823.5897,824.8837,824.8838,826.166,return,0.2682,,99.34895833,,,,,,FBP-YG-17.png,0.45,1.2,20,0.5,,,,,,,,,,,,,0,57,57,19,1,,,,,,,,,,,,,,,,,,,,,,,,,,,,
,,,,,SPR24_057,21,Male,2024-04-17_10h03.40.422,jersey_experiment_5_v0,2023.2.2,Win32,86.95652174,,,,,,,,,,,,,,,,826.1662,827.4602,827.4602,828.5897,return,0.243,,99.47916667,,,,,,FBP-PT-17.png,0.43,1.2,49,0.5,,,,,,,,,,,,,0,58,58,48,1,,,,,,,,,,,,,,,,,,,,,,,,,,,,
,,,,,SPR24_057,21,Male,2024-04-17_10h03.40.422,jersey_experiment_5_v0,2023.2.2,Win32,86.95652174,,,,,,,,,,,,,,,,828.5898,829.8838,829.8838,835.8724,return,3.6973,,99.47916667,,,,,,FBP-PT-19.png,0.37,1.2,57,0.5,,,,,,,,,,,,,0,59,59,56,1,,,,,,,,,,,,,,,,,,,,,,,,,,,,
,,,,,SPR24_057,21,Male,2024-04-17_10h03.40.422,jersey_experiment_5_v0,2023.2.2,Win32,86.95652174,,,,,,,,,,,,,,,,835.874,836.9194,836.9194,839.8372,return,0.0414,,74.86979167,,,,,,FBP-OG-19.png,0.4,1.2,13,0.25,,,,,,,,,,,,,,,,,,0,0,0,12,1,,,,,,,,,,,,,,,,,,,,,,,
,,,,,SPR24_057,21,Male,2024-04-17_10h03.40.422,jersey_experiment_5_v0,2023.2.2,Win32,86.95652174,,,,,,,,,,,,,,,,839.8376,840.8843,840.8844,843.8726,return,0.1205,,24.73958333,,,,,,FBP-RB-81.png,0.37,1.2,37,0.25,,,,,,,,,,,,,,,,,,0,1,1,36,1,,,,,,,,,,,,,,,,,,,,,,,
,,,,,SPR24_057,21,Male,2024-04-17_10h03.40.422,jersey_experiment_5_v0,2023.2.2,Win32,86.95652174,,,,,,,,,,,,,,,,843.8728,844.9197,844.9197,846.4961,return,0.264,,25,,,,,,FBP-RB-81.png,0.35,1.2,36,0.25,,,,,,,,,,,,,,,,,,0,2,2,35,1,,,,,,,,,,,,,,,,,,,,,,,
,,,,,SPR24_057,21,Male,2024-04-17_10h03.40.422,jersey_experiment_5_v0,2023.2.2,Win32,86.95652174,,,,,,,,,,,,,,,,846.4964,847.5434,847.5434,849.3788,return,0.1649,,74.86979167,,,,,,FBP-OG-19.png,0.45,1.2,15,0.25,,,,,,,,,,,,,,,,,,0,3,3,14,1,,,,,,,,,,,,,,,,,,,,,,,
,,,,,SPR24_057,21,Male,2024-04-17_10h03.40.422,jersey_experiment_5_v0,2023.2.2,Win32,86.95652174,,,,,,,,,,,,,,,,849.379,850.4258,850.4258,852.0494,return,0.6631,,75.26041667,,,,,,FBP-RB-91.png,0.37,1.2,42,0.25,,,,,,,,,,,,,,,,,,0,4,4,41,1,,,,,,,,,,,,,,,,,,,,,,,
,,,,,SPR24_057,21,Male,2024-04-17_10h03.40.422,jersey_experiment_5_v0,2023.2.2,Win32,86.95652174,,,,,,,,,,,,,,,,852.0496,853.0965,853.0965,855.2848,return,0.3296,,75.26041667,,,,,,FBP-RB-71.png,0.35,1.2,31,0.25,,,,,,,,,,,,,,,,,,0,5,5,30,1,,,,,,,,,,,,,,,,,,,,,,,
,,,,,SPR24_057,21,Male,2024-04-17_10h03.40.422,jersey_experiment_5_v0,2023.2.2,Win32,86.95652174,,,,,,,,,,,,,,,,855.285,856.579,856.5791,857.8144,return,0.2912,,75,,,,,,FBP-PT-81.png,0.35,1.2,51,0.5,,,,,,,,,,,,,,,,,,0,6,6,50,1,,,,,,,,,,,,,,,,,,,,,,,
,,,,,SPR24_057,21,Male,2024-04-17_10h03.40.422,jersey_experiment_5_v0,2023.2.2,Win32,86.95652174,,,,,,,,,,,,,,,,857.8144,859.1084,859.1084,860.2378,return,0.2194,,99.73958333,,,,,,FBP-PT-91.png,0.45,1.2,60,0.5,,,,,,,,,,,,,,,,,,0,7,7,59,1,,,,,,,,,,,,,,,,,,,,,,,
,,,,,SPR24_057,21,Male,2024-04-17_10h03.40.422,jersey_experiment_5_v0,2023.2.2,Win32,86.95652174,,,,,,,,,,,,,,,,860.2381,861.5321,861.5322,863.438,return,0.2765,,99.73958333,,,,,,FBP-PT-71.png,0.45,1.2,50,0.5,,,,,,,,,,,,,,,,,,0,8,8,49,1,,,,,,,,,,,,,,,,,,,,,,,
,,,,,SPR24_057,21,Male,2024-04-17_10h03.40.422,jersey_experiment_5_v0,2023.2.2,Win32,86.95652174,,,,,,,,,,,,,,,,863.4382,864.4852,864.4853,866.0147,return,0.0517,,25,,,,,,FBP-OG-18.png,0.35,1.2,6,0.25,,,,,,,,,,,,,,,,,,0,9,9,5,1,,,,,,,,,,,,,,,,,,,,,,,
,,,,,SPR24_057,21,Male,2024-04-17_10h03.40.422,jersey_experiment_5_v0,2023.2.2,Win32,86.95652174,,,,,,,,,,,,,,,,866.0148,867.309,867.309,868.3559,return,0.3071,,99.21875,,,,,,FBP-YG-91.png,0.45,1.2,30,0.5,,,,,,,,,,,,,,,,,,0,10,10,29,1,,,,,,,,,,,,,,,,,,,,,,,
,,,,,SPR24_057,21,Male,2024-04-17_10h03.40.422,jersey_experiment_5_v0,2023.2.2,Win32,86.95652174,,,,,,,,,,,,,,,,868.356,869.403,869.403,871.2031,return,0.2378,,99.73958333,,,,,,FBP-OG-17.png,0.45,1.2,5,0.25,,,,,,,,,,,,,,,,,,0,11,11,4,1,,,,,,,,,,,,,,,,,,,,,,,
,,,,,SPR24_057,21,Male,2024-04-17_10h03.40.422,jersey_experiment_5_v0,2023.2.2,Win32,86.95652174,,,,,,,,,,,,,,,,871.2033,872.4971,872.4972,873.6621,return,0.0761,,74.86979167,,,,,,FBP-YG-81.png,0.37,1.2,22,0.5,,,,,,,,,,,,,,,,,,0,12,12,21,1,,,,,,,,,,,,,,,,,,,,,,,
,,,,,SPR24_057,21,Male,2024-04-17_10h03.40.422,jersey_experiment_5_v0,2023.2.2,Win32,86.95652174,,,,,,,,,,,,,,,,873.6623,874.709,874.709,876.6856,return,0.2057,,99.47916667,,,,,,FBP-RB-81.png,0.45,1.2,40,0.25,,,,,,,,,,,,,,,,,,0,13,13,39,1,,,,,,,,,,,,,,,,,,,,,,,
,,,,,SPR24_057,21,Male,2024-04-17_10h03.40.422,jersey_experiment_5_v0,2023.2.2,Win32,86.95652174,,,,,,,,,,,,,,,,876.6858,877.9797,877.9797,879.5916,return,0.3071,,74.609375,,,,,,FBP-YG-81.png,0.4,1.2,23,0.5,,,,,,,,,,,,,,,,,,0,14,14,22,1,,,,,,,,,,,,,,,,,,,,,,,
,,,,,SPR24_057,21,Male,2024-04-17_10h03.40.422,jersey_experiment_5_v0,2023.2.2,Win32,86.95652174,,,,,,,,,,,,,,,,879.5918,880.8859,880.8859,882.227,return,0.1791,,74.73958333,,,,,,FBP-YG-91.png,0.4,1.2,28,0.5,,,,,,,,,,,,,,,,,,0,15,15,27,1,,,,,,,,,,,,,,,,,,,,,,,
,,,,,SPR24_057,21,Male,2024-04-17_10h03.40.422,jersey_experiment_5_v0,2023.2.2,Win32,86.95652174,,,,,,,,,,,,,,,,882.2272,883.274,883.274,885.0624,return,0.2918,,99.47916667,,,,,,FBP-RB-71.png,0.45,1.2,35,0.25,,,,,,,,,,,,,,,,,,0,16,16,34,1,,,,,,,,,,,,,,,,,,,,,,,
,,,,,SPR24_057,21,Male,2024-04-17_10h03.40.422,jersey_experiment_5_v0,2023.2.2,Win32,86.95652174,,,,,,,,,,,,,,,,885.0626,886.3565,886.3565,887.933,return,0.2674,,25.390625,,,,,,FBP-YG-81.png,0.35,1.2,21,0.5,,,,,,,,,,,,,,,,,,0,17,17,20,1,,,,,,,,,,,,,,,,,,,,,,,
,,,,,SPR24_057,21,Male,2024-04-17_10h03.40.422,jersey_experiment_5_v0,2023.2.2,Win32,86.95652174,,,,,,,,,,,,,,,,887.9332,888.9801,888.9802,891.3332,return,0.2117,,0.260416667,,,,,,FBP-RB-91.png,0.35,1.2,41,0.25,,,,,,,,,,,,,,,,,,0,18,18,40,1,,,,,,,,,,,,,,,,,,,,,,,
,,,,,SPR24_057,21,Male,2024-04-17_10h03.40.422,jersey_experiment_5_v0,2023.2.2,Win32,86.95652174,,,,,,,,,,,,,,,,891.3334,892.6274,892.6274,893.9687,return,0.2285,,25,,,,,,FBP-PT-71.png,0.35,1.2,46,0.5,,,,,,,,,,,,,,,,,,0,19,19,45,1,,,,,,,,,,,,,,,,,,,,,,,
,,,,,SPR24_057,21,Male,2024-04-17_10h03.40.422,jersey_experiment_5_v0,2023.2.2,Win32,86.95652174,,,,,,,,,,,,,,,,893.969,895.263,895.263,896.5452,return,0.2254,,75,,,,,,FBP-PT-91.png,0.43,1.2,59,0.5,,,,,,,,,,,,,,,,,,0,20,20,58,1,,,,,,,,,,,,,,,,,,,,,,,
,,,,,SPR24_057,21,Male,2024-04-17_10h03.40.422,jersey_experiment_5_v0,2023.2.2,Win32,86.95652174,,,,,,,,,,,,,,,,896.5453,897.8393,897.8394,899.4864,return,0.2047,,74.609375,,,,,,FBP-YG-71.png,0.35,1.2,16,0.5,,,,,,,,,,,,,,,,,,0,21,21,15,1,,,,,,,,,,,,,,,,,,,,,,,
,,,,,SPR24_057,21,Male,2024-04-17_10h03.40.422,jersey_experiment_5_v0,2023.2.2,Win32,86.95652174,,,,,,,,,,,,,,,,899.4866,900.5336,900.5336,903.51,return,0.2351,,49.86979167,,,,,,FBP-OG-19.png,0.37,1.2,12,0.25,,,,,,,,,,,,,,,,,,0,22,22,11,1,,,,,,,,,,,,,,,,,,,,,,,
,,,,,SPR24_057,21,Male,2024-04-17_10h03.40.422,jersey_experiment_5_v0,2023.2.2,Win32,86.95652174,,,,,,,,,,,,,,,,903.5102,904.5572,904.5572,907.2514,return,0.388,,74.73958333,,,,,,FBP-RB-81.png,0.4,1.2,38,0.25,,,,,,,,,,,,,,,,,,0,23,23,37,1,,,,,,,,,,,,,,,,,,,,,,,
,,,,,SPR24_057,21,Male,2024-04-17_10h03.40.422,jersey_experiment_5_v0,2023.2.2,Win32,86.95652174,,,,,,,,,,,,,,,,907.2516,908.5456,908.5456,910.0163,return,0.2056,,99.47916667,,,,,,FBP-YG-91.png,0.43,1.2,29,0.5,,,,,,,,,,,,,,,,,,0,24,24,28,1,,,,,,,,,,,,,,,,,,,,,,,
,,,,,SPR24_057,21,Male,2024-04-17_10h03.40.422,jersey_experiment_5_v0,2023.2.2,Win32,86.95652174,,,,,,,,,,,,,,,,910.0165,911.0633,911.0633,913.3105,return,0.1929,,75,,,,,,FBP-RB-71.png,0.37,1.2,32,0.25,,,,,,,,,,,,,,,,,,0,25,25,31,1,,,,,,,,,,,,,,,,,,,,,,,
,,,,,SPR24_057,21,Male,2024-04-17_10h03.40.422,jersey_experiment_5_v0,2023.2.2,Win32,86.95652174,,,,,,,,,,,,,,,,913.3107,914.3575,914.3576,915.9105,return,0.1879,,75,,,,,,FBP-OG-17.png,0.4,1.2,3,0.25,,,,,,,,,,,,,,,,,,0,26,26,2,1,,,,,,,,,,,,,,,,,,,,,,,
,,,,,SPR24_057,21,Male,2024-04-17_10h03.40.422,jersey_experiment_5_v0,2023.2.2,Win32,86.95652174,,,,,,,,,,,,,,,,915.9107,916.9577,916.9577,918.5108,return,0.1833,,99.86979167,,,,,,FBP-RB-71.png,0.4,1.2,33,0.25,,,,,,,,,,,,,,,,,,0,27,27,32,1,,,,,,,,,,,,,,,,,,,,,,,
,,,,,SPR24_057,21,Male,2024-04-17_10h03.40.422,jersey_experiment_5_v0,2023.2.2,Win32,86.95652174,,,,,,,,,,,,,,,,918.511,919.8049,919.8049,921.3344,return,0.0841,,74.86979167,,,,,,FBP-YG-91.png,0.37,1.2,27,0.5,,,,,,,,,,,,,,,,,,0,28,28,26,1,,,,,,,,,,,,,,,,,,,,,,,
,,,,,SPR24_057,21,Male,2024-04-17_10h03.40.422,jersey_experiment_5_v0,2023.2.2,Win32,86.95652174,,,,,,,,,,,,,,,,921.3346,922.3814,922.3814,924.0521,return,0.0824,,24.86979167,,,,,,FBP-OG-18.png,0.37,1.2,7,0.25,,,,,,,,,,,,,,,,,,0,29,29,6,1,,,,,,,,,,,,,,,,,,,,,,,
,,,,,SPR24_057,21,Male,2024-04-17_10h03.40.422,jersey_experiment_5_v0,2023.2.2,Win32,86.95652174,,,,,,,,,,,,,,,,924.0522,925.3461,925.3461,927.4286,return,0.1323,,74.86979167,,,,,,FBP-PT-91.png,0.37,1.2,57,0.5,,,,,,,,,,,,,,,,,,0,30,30,56,1,,,,,,,,,,,,,,,,,,,,,,,
,,,,,SPR24_057,21,Male,2024-04-17_10h03.40.422,jersey_experiment_5_v0,2023.2.2,Win32,86.95652174,,,,,,,,,,,,,,,,927.4288,928.7229,928.7229,930.1582,return,0.2872,,99.609375,,,,,,FBP-YG-81.png,0.45,1.2,25,0.5,,,,,,,,,,,,,,,,,,0,31,31,24,1,,,,,,,,,,,,,,,,,,,,,,,
,,,,,SPR24_057,21,Male,2024-04-17_10h03.40.422,jersey_experiment_5_v0,2023.2.2,Win32,86.95652174,,,,,,,,,,,,,,,,930.1584,931.2054,931.2054,932.3818,return,0.1353,,99.73958333,,,,,,FBP-OG-19.png,0.43,1.2,14,0.25,,,,,,,,,,,,,,,,,,0,32,32,13,1,,,,,,,,,,,,,,,,,,,,,,,
,,,,,SPR24_057,21,Male,2024-04-17_10h03.40.422,jersey_experiment_5_v0,2023.2.2,Win32,86.95652174,,,,,,,,,,,,,,,,932.3821,933.6759,933.676,935.0524,return,0.2424,,75.26041667,,,,,,FBP-PT-71.png,0.4,1.2,48,0.5,,,,,,,,,,,,,,,,,,0,33,33,47,1,,,,,,,,,,,,,,,,,,,,,,,
,,,,,SPR24_057,21,Male,2024-04-17_10h03.40.422,jersey_experiment_5_v0,2023.2.2,Win32,86.95652174,,,,,,,,,,,,,,,,935.0526,936.0995,936.0995,937.2291,return,0.0412,,99.73958333,,,,,,FBP-RB-81.png,0.43,1.2,39,0.25,,,,,,,,,,,,,,,,,,0,34,34,38,1,,,,,,,,,,,,,,,,,,,,,,,
,,,,,SPR24_057,21,Male,2024-04-17_10h03.40.422,jersey_experiment_5_v0,2023.2.2,Win32,86.95652174,,,,,,,,,,,,,,,,937.2293,938.5232,938.5232,939.5231,return,0.1884,,99.86979167,,,,,,FBP-YG-71.png,0.45,1.2,20,0.5,,,,,,,,,,,,,,,,,,0,35,35,19,1,,,,,,,,,,,,,,,,,,,,,,,
,,,,,SPR24_057,21,Male,2024-04-17_10h03.40.422,jersey_experiment_5_v0,2023.2.2,Win32,86.95652174,,,,,,,,,,,,,,,,939.5233,940.5703,940.5704,941.9585,return,0.1882,,25,,,,,,FBP-OG-19.png,0.35,1.2,11,0.25,,,,,,,,,,,,,,,,,,0,36,36,10,1,,,,,,,,,,,,,,,,,,,,,,,
,,,,,SPR24_057,21,Male,2024-04-17_10h03.40.422,jersey_experiment_5_v0,2023.2.2,Win32,86.95652174,,,,,,,,,,,,,,,,941.9587,943.0056,943.0057,944.3235,return,0.2729,,24.86979167,,,,,,FBP-OG-17.png,0.35,1.2,1,0.25,,,,,,,,,,,,,,,,,,0,37,37,0,1,,,,,,,,,,,,,,,,,,,,,,,
,,,,,SPR24_057,21,Male,2024-04-17_10h03.40.422,jersey_experiment_5_v0,2023.2.2,Win32,86.95652174,,,,,,,,,,,,,,,,944.3237,945.6175,945.6176,947.747,return,0.2005,,99.609375,,,,,,FBP-PT-81.png,0.45,1.2,55,0.5,,,,,,,,,,,,,,,,,,0,38,38,54,1,,,,,,,,,,,,,,,,,,,,,,,
,,,,,SPR24_057,21,Male,2024-04-17_10h03.40.422,jersey_experiment_5_v0,2023.2.2,Win32,86.95652174,,,,,,,,,,,,,,,,947.7472,948.7942,948.7942,950.2883,return,0.5698,,99.47916667,,,,,,FBP-OG-18.png,0.45,1.2,10,0.25,,,,,,,,,,,,,,,,,,0,39,39,9,1,,,,,,,,,,,,,,,,,,,,,,,
,,,,,SPR24_057,21,Male,2024-04-17_10h03.40.422,jersey_experiment_5_v0,2023.2.2,Win32,86.95652174,,,,,,,,,,,,,,,,950.2886,951.5825,951.5825,953.3827,return,0.3667,,99.73958333,,,,,,FBP-PT-71.png,0.43,1.2,49,0.5,,,,,,,,,,,,,,,,,,0,40,40,48,1,,,,,,,,,,,,,,,,,,,,,,,
,,,,,SPR24_057,21,Male,2024-04-17_10h03.40.422,jersey_experiment_5_v0,2023.2.2,Win32,86.95652174,,,,,,,,,,,,,,,,953.3829,954.6769,954.6769,956.2769,return,0.3906,,24.86979167,,,,,,FBP-YG-91.png,0.35,1.2,26,0.5,,,,,,,,,,,,,,,,,,0,41,41,25,1,,,,,,,,,,,,,,,,,,,,,,,
,,,,,SPR24_057,21,Male,2024-04-17_10h03.40.422,jersey_experiment_5_v0,2023.2.2,Win32,86.95652174,,,,,,,,,,,,,,,,956.277,957.3238,957.3238,959.2298,return,0.1723,,74.73958333,,,,,,FBP-OG-18.png,0.43,1.2,9,0.25,,,,,,,,,,,,,,,,,,0,42,42,8,1,,,,,,,,,,,,,,,,,,,,,,,
,,,,,SPR24_057,21,Male,2024-04-17_10h03.40.422,jersey_experiment_5_v0,2023.2.2,Win32,86.95652174,,,,,,,,,,,,,,,,959.23,960.524,960.5241,961.9711,return,0.1647,,24.86979167,,,,,,FBP-PT-91.png,0.35,1.2,56,0.5,,,,,,,,,,,,,,,,,,0,43,43,55,1,,,,,,,,,,,,,,,,,,,,,,,
,,,,,SPR24_057,21,Male,2024-04-17_10h03.40.422,jersey_experiment_5_v0,2023.2.2,Win32,86.95652174,,,,,,,,,,,,,,,,961.9714,963.0182,963.0182,964.4654,return,0.2278,,74.609375,,,,,,FBP-RB-91.png,0.43,1.2,44,0.25,,,,,,,,,,,,,,,,,,0,44,44,43,1,,,,,,,,,,,,,,,,,,,,,,,
,,,,,SPR24_057,21,Male,2024-04-17_10h03.40.422,jersey_experiment_5_v0,2023.2.2,Win32,86.95652174,,,,,,,,,,,,,,,,964.4656,965.5124,965.5124,966.7007,return,0.1147,,99.609375,,,,,,FBP-OG-17.png,0.43,1.2,4,0.25,,,,,,,,,,,,,,,,,,0,45,45,3,1,,,,,,,,,,,,,,,,,,,,,,,
,,,,,SPR24_057,21,Male,2024-04-17_10h03.40.422,jersey_experiment_5_v0,2023.2.2,Win32,86.95652174,,,,,,,,,,,,,,,,966.7009,967.9949,967.9949,969.442,return,0.3563,,99.73958333,,,,,,FBP-PT-91.png,0.4,1.2,58,0.5,,,,,,,,,,,,,,,,,,0,46,46,57,1,,,,,,,,,,,,,,,,,,,,,,,
,,,,,SPR24_057,21,Male,2024-04-17_10h03.40.422,jersey_experiment_5_v0,2023.2.2,Win32,86.95652174,,,,,,,,,,,,,,,,969.4422,970.7361,970.7361,972.1244,return,0.1973,,75.13020833,,,,,,FBP-YG-71.png,0.37,1.2,17,0.5,,,,,,,,,,,,,,,,,,0,47,47,16,1,,,,,,,,,,,,,,,,,,,,,,,
,,,,,SPR24_057,21,Male,2024-04-17_10h03.40.422,jersey_experiment_5_v0,2023.2.2,Win32,86.95652174,,,,,,,,,,,,,,,,972.1246,973.1716,973.1716,974.5598,return,0.1918,,99.609375,,,,,,FBP-RB-71.png,0.43,1.2,34,0.25,,,,,,,,,,,,,,,,,,0,48,48,33,1,,,,,,,,,,,,,,,,,,,,,,,
,,,,,SPR24_057,21,Male,2024-04-17_10h03.40.422,jersey_experiment_5_v0,2023.2.2,Win32,86.95652174,,,,,,,,,,,,,,,,974.5599,975.6069,975.607,976.8658,return,0.3921,,99.47916667,,,,,,FBP-OG-18.png,0.4,1.2,8,0.25,,,,,,,,,,,,,,,,,,0,49,49,7,1,,,,,,,,,,,,,,,,,,,,,,,
,,,,,SPR24_057,21,Male,2024-04-17_10h03.40.422,jersey_experiment_5_v0,2023.2.2,Win32,86.95652174,,,,,,,,,,,,,,,,976.8661,977.9128,977.9128,979.8071,return,0.1682,,75,,,,,,FBP-OG-17.png,0.37,1.2,2,0.25,,,,,,,,,,,,,,,,,,0,50,50,1,1,,,,,,,,,,,,,,,,,,,,,,,
,,,,,SPR24_057,21,Male,2024-04-17_10h03.40.422,jersey_experiment_5_v0,2023.2.2,Win32,86.95652174,,,,,,,,,,,,,,,,979.8072,981.1012,981.1013,983.0896,return,0.9807,,100,,,,,,FBP-YG-81.png,0.43,1.2,24,0.5,,,,,,,,,,,,,,,,,,0,51,51,23,1,,,,,,,,,,,,,,,,,,,,,,,
,,,,,SPR24_057,21,Male,2024-04-17_10h03.40.422,jersey_experiment_5_v0,2023.2.2,Win32,86.95652174,,,,,,,,,,,,,,,,983.0897,984.3838,984.3838,986.3484,return,0.2415,,75,,,,,,FBP-PT-71.png,0.37,1.2,47,0.5,,,,,,,,,,,,,,,,,,0,52,52,46,1,,,,,,,,,,,,,,,,,,,,,,,
,,,,,SPR24_057,21,Male,2024-04-17_10h03.40.422,jersey_experiment_5_v0,2023.2.2,Win32,86.95652174,,,,,,,,,,,,,,,,986.3486,987.6427,987.6428,989.8545,return,1.2663,,99.73958333,,,,,,FBP-PT-81.png,0.43,1.2,54,0.5,,,,,,,,,,,,,,,,,,0,53,53,53,1,,,,,,,,,,,,,,,,,,,,,,,
,,,,,SPR24_057,21,Male,2024-04-17_10h03.40.422,jersey_experiment_5_v0,2023.2.2,Win32,86.95652174,,,,,,,,,,,,,,,,989.8547,990.9015,990.9015,992.2076,return,0.0742,,74.609375,,,,,,FBP-RB-91.png,0.4,1.2,43,0.25,,,,,,,,,,,,,,,,,,0,54,54,42,1,,,,,,,,,,,,,,,,,,,,,,,
,,,,,SPR24_057,21,Male,2024-04-17_10h03.40.422,jersey_experiment_5_v0,2023.2.2,Win32,86.95652174,,,,,,,,,,,,,,,,992.2078,993.5019,993.5019,994.7841,return,0.2502,,99.34895833,,,,,,FBP-YG-71.png,0.43,1.2,19,0.5,,,,,,,,,,,,,,,,,,0,55,55,18,1,,,,,,,,,,,,,,,,,,,,,,,
,,,,,SPR24_057,21,Male,2024-04-17_10h03.40.422,jersey_experiment_5_v0,2023.2.2,Win32,86.95652174,,,,,,,,,,,,,,,,994.7843,995.8312,995.8312,996.7489,return,0.1952,,99.609375,,,,,,FBP-RB-91.png,0.45,1.2,45,0.25,,,,,,,,,,,,,,,,,,0,56,56,44,1,,,,,,,,,,,,,,,,,,,,,,,
,,,,,SPR24_057,21,Male,2024-04-17_10h03.40.422,jersey_experiment_5_v0,2023.2.2,Win32,86.95652174,,,,,,,,,,,,,,,,996.7492,998.0431,998.0431,998.9018,return,0.2356,,99.609375,,,,,,FBP-YG-71.png,0.4,1.2,18,0.5,,,,,,,,,,,,,,,,,,0,57,57,17,1,,,,,,,,,,,,,,,,,,,,,,,
,,,,,SPR24_057,21,Male,2024-04-17_10h03.40.422,jersey_experiment_5_v0,2023.2.2,Win32,86.95652174,,,,,,,,,,,,,,,,998.902,1000.1961,1000.1961,1001.2549,return,0.3392,,99.47916667,,,,,,FBP-PT-81.png,0.4,1.2,53,0.5,,,,,,,,,,,,,,,,,,0,58,58,52,1,,,,,,,,,,,,,,,,,,,,,,,
,,,,,SPR24_057,21,Male,2024-04-17_10h03.40.422,jersey_experiment_5_v0,2023.2.2,Win32,86.95652174,,,,,,,,,,,,,,,,1001.2552,1002.549,1002.549,1005.1375,return,0.249,,74.73958333,,,,,,FBP-PT-81.png,0.37,1.2,52,0.5,,,,,,,,,,,,,,,,,,0,59,59,51,1,,,,,,,,,,,,,,,,,,,,,,,
,,,,,SPR24_057,21,Male,2024-04-17_10h03.40.422,jersey_experiment_5_v0,2023.2.2,Win32,86.95652174,,,,,,,,,,,,,,,,,,,,,,,,,,,,,,,,,,,,,,,,,,,,,,,,,,,,,,,,1005.1378,1011.6321,return,6.4857,,,,,,,,,,,,,,,,,,,
,,,,,SPR24_057,21,Male,2024-04-17_10h03.40.422,jersey_experiment_5_v0,2023.2.2,Win32,86.95652174,,,,,,,,,,,,,,,,,,,,,,,,,,,,,,,,,,,,,,,,,,,,,,,,,,,,,,,,,,,,,1011.6321,1019.7618,1,4.8953,return,3.2152,,,,,,,,,,,,
,,,,,SPR24_057,21,Male,2024-04-17_10h03.40.422,jersey_experiment_5_v0,2023.2.2,Win32,86.95652174,,,,,,,,,,,,,,,,,,,,,,,,,,,,,,,,,,,,,,,,,,,,,,,,,,,,,,,,,,,,,,,,,,,,1019.7619,1143.0772,I think the study might have to deal with taking quick glances and how quick glances have an affect on perception. I think one pattern in the experiment was that they would alternate the skin color of the football players while keeping the same slender or husky look to try to alter our perceptions.,right,114.5832,,,,,,
,,,,,SPR24_057,21,Male,2024-04-17_10h03.40.422,jersey_experiment_5_v0,2023.2.2,Win32,86.95652174,,,,,,,,,,,,,,,,,,,,,,,,,,,,,,,,,,,,,,,,,,,,,,,,,,,,,,,,,,,,,,,,,,,,,,,,,,1143.0773,1146.7078,return,3.6196,