requirements.started,requirements.stopped,key_resp_3.keys,key_resp_3.rt,key_resp_3.duration,Subject ID,Age,Gender,date,expName,psychopyVersion,OS,frameRate,instructions1.started,instructions1.stopped,key_resp.keys,key_resp.rt,key_resp.duration,example.started,example.stopped,enter_2.keys,enter_2.rt,enter_2.duration,instructions2.started,instructions2.stopped,enter_3.keys,enter_3.rt,enter_3.duration,image.started,image.stopped,slider_2.started,slider_2.stopped,next.keys,next.rt,next.duration,slider.response,trial_block_1.thisRepN,trial_block_1.thisTrialN,trial_block_1.thisN,trial_block_1.thisIndex,trial_block_1.ran,Path,Width,Height,Index,Duration,trial_block_2.thisRepN,trial_block_2.thisTrialN,trial_block_2.thisN,trial_block_2.thisIndex,trial_block_2.ran,rest_break.started,rest_break.stopped,end_break.started,end_break.stopped,key_resp_5.keys,key_resp_5.rt,key_resp_5.duration,trial_block_3.thisRepN,trial_block_3.thisTrialN,trial_block_3.thisN,trial_block_3.thisIndex,trial_block_3.ran,trial_block_4.thisRepN,trial_block_4.thisTrialN,trial_block_4.thisN,trial_block_4.thisIndex,trial_block_4.ran,questions_intro.started,questions_intro.stopped,enter_12.keys,enter_12.rt,enter_12.duration,question2.started,question2.stopped,question_doingbest.response,question_doingbest.rt,enter_15.keys,enter_15.rt,enter_15.duration,pattern.started,pattern.stopped,pattern_2.text,enter_17.keys,enter_17.rt,enter_17.duration,thankyou.started,thankyou.stopped,enter_14.keys,enter_14.rt,enter_14.duration
0.0002,3.8998,return,3.8948,,SPR24_016,23,M,2024-04-08_15h24.32.365,jersey_experiment_5_v0,2023.2.2,Win32,84.74576271,,,,,,,,,,,,,,,,,,,,,,,,,,,,,,,,,,,,,,,,,,,,,,,,,,,,,,,,,,,,,,,,,,,,,,,,,,,,,,
,,,,,SPR24_016,23,M,2024-04-08_15h24.32.365,jersey_experiment_5_v0,2023.2.2,Win32,84.74576271,3.8999,12.7298,return,8.815,,,,,,,,,,,,,,,,,,,,,,,,,,,,,,,,,,,,,,,,,,,,,,,,,,,,,,,,,,,,,,,,,,,,,,,,,,
,,,,,SPR24_016,23,M,2024-04-08_15h24.32.365,jersey_experiment_5_v0,2023.2.2,Win32,84.74576271,,,,,,12.7299,22.4243,return,9.6548,,,,,,,,,,,,,,,,,,,,,,,,,,,,,,,,,,,,,,,,,,,,,,,,,,,,,,,,,,,,,,,,,,,,,
,,,,,SPR24_016,23,M,2024-04-08_15h24.32.365,jersey_experiment_5_v0,2023.2.2,Win32,84.74576271,,,,,,,,,,,22.4244,34.6482,return,12.2152,,,,,,,,,,,,,,,,,,,,,,,,,,,,,,,,,,,,,,,,,,,,,,,,,,,,,,,,,,,,,,,,
,,,,,SPR24_016,23,M,2024-04-08_15h24.32.365,jersey_experiment_5_v0,2023.2.2,Win32,84.74576271,,,,,,,,,,,,,,,,34.6555,35.954,35.9541,47.2252,return,4.2746,,51.69270833,0,0,0,41,1,FBP-RB-19.png,0.37,1.2,42,0.5,,,,,,,,,,,,,,,,,,,,,,,,,,,,,,,,,,,,,,,,,,,,,
,,,,,SPR24_016,23,M,2024-04-08_15h24.32.365,jersey_experiment_5_v0,2023.2.2,Win32,84.74576271,,,,,,,,,,,,,,,,47.2255,48.2719,48.272,55.8604,return,3.1032,,74.73958333,0,1,1,48,1,FBP-PT-17.png,0.43,1.2,49,0.25,,,,,,,,,,,,,,,,,,,,,,,,,,,,,,,,,,,,,,,,,,,,,
,,,,,SPR24_016,23,M,2024-04-08_15h24.32.365,jersey_experiment_5_v0,2023.2.2,Win32,84.74576271,,,,,,,,,,,,,,,,55.8608,57.1546,57.1547,67.8963,return,8.2026,,75.390625,0,2,2,44,1,FBP-RB-19.png,0.45,1.2,45,0.5,,,,,,,,,,,,,,,,,,,,,,,,,,,,,,,,,,,,,,,,,,,,,
,,,,,SPR24_016,23,M,2024-04-08_15h24.32.365,jersey_experiment_5_v0,2023.2.2,Win32,84.74576271,,,,,,,,,,,,,,,,67.9007,69.2023,69.2023,72.8612,return,1.3883,,59.63541667,0,3,3,37,1,FBP-RB-18.png,0.4,1.2,38,0.5,,,,,,,,,,,,,,,,,,,,,,,,,,,,,,,,,,,,,,,,,,,,,
,,,,,SPR24_016,23,M,2024-04-08_15h24.32.365,jersey_experiment_5_v0,2023.2.2,Win32,84.74576271,,,,,,,,,,,,,,,,72.8614,74.1552,74.1553,76.9908,return,0.7291,,83.203125,0,4,4,39,1,FBP-RB-18.png,0.45,1.2,40,0.5,,,,,,,,,,,,,,,,,,,,,,,,,,,,,,,,,,,,,,,,,,,,,
,,,,,SPR24_016,23,M,2024-04-08_15h24.32.365,jersey_experiment_5_v0,2023.2.2,Win32,84.74576271,,,,,,,,,,,,,,,,76.991,78.2849,78.2851,84.9086,return,1.93,,61.84895833,0,5,5,7,1,FBP-OG-81.png,0.4,1.2,8,0.5,,,,,,,,,,,,,,,,,,,,,,,,,,,,,,,,,,,,,,,,,,,,,
,,,,,SPR24_016,23,M,2024-04-08_15h24.32.365,jersey_experiment_5_v0,2023.2.2,Win32,84.74576271,,,,,,,,,,,,,,,,84.9088,85.9558,85.9559,88.8146,return,0.6345,,45.18229167,0,6,6,45,1,FBP-PT-17.png,0.35,1.2,46,0.25,,,,,,,,,,,,,,,,,,,,,,,,,,,,,,,,,,,,,,,,,,,,,
,,,,,SPR24_016,23,M,2024-04-08_15h24.32.365,jersey_experiment_5_v0,2023.2.2,Win32,84.74576271,,,,,,,,,,,,,,,,88.8149,89.8617,89.8618,93.9326,return,0.6958,,48.56770833,0,7,7,15,1,FBP-YG-17.png,0.35,1.2,16,0.25,,,,,,,,,,,,,,,,,,,,,,,,,,,,,,,,,,,,,,,,,,,,,
,,,,,SPR24_016,23,M,2024-04-08_15h24.32.365,jersey_experiment_5_v0,2023.2.2,Win32,84.74576271,,,,,,,,,,,,,,,,93.9327,95.2267,95.2267,98.8386,return,0.7596,,63.28125,0,8,8,2,1,FBP-OG-71.png,0.4,1.2,3,0.5,,,,,,,,,,,,,,,,,,,,,,,,,,,,,,,,,,,,,,,,,,,,,
,,,,,SPR24_016,23,M,2024-04-08_15h24.32.365,jersey_experiment_5_v0,2023.2.2,Win32,84.74576271,,,,,,,,,,,,,,,,98.8387,100.1328,100.1328,102.027,return,0.6589,,78.38541667,0,9,9,9,1,FBP-OG-81.png,0.45,1.2,10,0.5,,,,,,,,,,,,,,,,,,,,,,,,,,,,,,,,,,,,,,,,,,,,,
,,,,,SPR24_016,23,M,2024-04-08_15h24.32.365,jersey_experiment_5_v0,2023.2.2,Win32,84.74576271,,,,,,,,,,,,,,,,102.0272,103.0741,103.0741,107.2272,return,0.2269,,68.09895833,0,10,10,52,1,FBP-PT-18.png,0.4,1.2,53,0.25,,,,,,,,,,,,,,,,,,,,,,,,,,,,,,,,,,,,,,,,,,,,,
,,,,,SPR24_016,23,M,2024-04-08_15h24.32.365,jersey_experiment_5_v0,2023.2.2,Win32,84.74576271,,,,,,,,,,,,,,,,107.2274,108.2742,108.2742,110.6038,return,0.4014,,92.31770833,0,11,11,49,1,FBP-PT-17.png,0.45,1.2,50,0.25,,,,,,,,,,,,,,,,,,,,,,,,,,,,,,,,,,,,,,,,,,,,,
,,,,,SPR24_016,23,M,2024-04-08_15h24.32.365,jersey_experiment_5_v0,2023.2.2,Win32,84.74576271,,,,,,,,,,,,,,,,110.6039,111.6508,111.6508,113.8862,return,0.4938,,95.05208333,0,12,12,23,1,FBP-YG-18.png,0.43,1.2,24,0.25,,,,,,,,,,,,,,,,,,,,,,,,,,,,,,,,,,,,,,,,,,,,,
,,,,,SPR24_016,23,M,2024-04-08_15h24.32.365,jersey_experiment_5_v0,2023.2.2,Win32,84.74576271,,,,,,,,,,,,,,,,113.8864,114.9332,114.9332,116.5217,return,0.2601,,99.47916667,0,13,13,28,1,FBP-YG-19.png,0.43,1.2,29,0.25,,,,,,,,,,,,,,,,,,,,,,,,,,,,,,,,,,,,,,,,,,,,,
,,,,,SPR24_016,23,M,2024-04-08_15h24.32.365,jersey_experiment_5_v0,2023.2.2,Win32,84.74576271,,,,,,,,,,,,,,,,116.5219,117.5687,117.5687,118.5688,return,0.0869,,99.47916667,0,14,14,18,1,FBP-YG-17.png,0.43,1.2,19,0.25,,,,,,,,,,,,,,,,,,,,,,,,,,,,,,,,,,,,,,,,,,,,,
,,,,,SPR24_016,23,M,2024-04-08_15h24.32.365,jersey_experiment_5_v0,2023.2.2,Win32,84.74576271,,,,,,,,,,,,,,,,118.569,119.8629,119.8629,122.9807,return,0.4556,,35.80729167,0,15,15,40,1,FBP-RB-19.png,0.35,1.2,41,0.5,,,,,,,,,,,,,,,,,,,,,,,,,,,,,,,,,,,,,,,,,,,,,
,,,,,SPR24_016,23,M,2024-04-08_15h24.32.365,jersey_experiment_5_v0,2023.2.2,Win32,84.74576271,,,,,,,,,,,,,,,,122.9809,124.2747,124.2749,126.8867,return,0.3216,,30.078125,0,16,16,35,1,FBP-RB-18.png,0.35,1.2,36,0.5,,,,,,,,,,,,,,,,,,,,,,,,,,,,,,,,,,,,,,,,,,,,,
,,,,,SPR24_016,23,M,2024-04-08_15h24.32.365,jersey_experiment_5_v0,2023.2.2,Win32,84.74576271,,,,,,,,,,,,,,,,126.8869,127.9338,127.9339,130.6986,return,0.332,,64.58333333,0,17,17,17,1,FBP-YG-17.png,0.4,1.2,18,0.25,,,,,,,,,,,,,,,,,,,,,,,,,,,,,,,,,,,,,,,,,,,,,
,,,,,SPR24_016,23,M,2024-04-08_15h24.32.365,jersey_experiment_5_v0,2023.2.2,Win32,84.74576271,,,,,,,,,,,,,,,,130.6987,131.9927,131.9927,136.2516,return,2.0251,,68.88020833,0,18,18,42,1,FBP-RB-19.png,0.4,1.2,43,0.5,,,,,,,,,,,,,,,,,,,,,,,,,,,,,,,,,,,,,,,,,,,,,
,,,,,SPR24_016,23,M,2024-04-08_15h24.32.365,jersey_experiment_5_v0,2023.2.2,Win32,84.74576271,,,,,,,,,,,,,,,,136.2517,137.2988,137.2988,139.946,return,0.3657,,42.70833333,0,19,19,55,1,FBP-PT-19.png,0.35,1.2,56,0.25,,,,,,,,,,,,,,,,,,,,,,,,,,,,,,,,,,,,,,,,,,,,,
,,,,,SPR24_016,23,M,2024-04-08_15h24.32.365,jersey_experiment_5_v0,2023.2.2,Win32,84.74576271,,,,,,,,,,,,,,,,139.9462,140.9933,140.9933,144.358,return,0.1235,,68.61979167,0,20,20,47,1,FBP-PT-17.png,0.4,1.2,48,0.25,,,,,,,,,,,,,,,,,,,,,,,,,,,,,,,,,,,,,,,,,,,,,
,,,,,SPR24_016,23,M,2024-04-08_15h24.32.365,jersey_experiment_5_v0,2023.2.2,Win32,84.74576271,,,,,,,,,,,,,,,,144.3582,145.6521,145.6521,147.4287,return,0.4173,,59.765625,0,21,21,11,1,FBP-OG-91.png,0.37,1.2,12,0.5,,,,,,,,,,,,,,,,,,,,,,,,,,,,,,,,,,,,,,,,,,,,,
,,,,,SPR24_016,23,M,2024-04-08_15h24.32.365,jersey_experiment_5_v0,2023.2.2,Win32,84.74576271,,,,,,,,,,,,,,,,147.4289,148.4757,148.4759,150.1817,return,0.2898,,92.31770833,0,22,22,58,1,FBP-PT-19.png,0.43,1.2,59,0.25,,,,,,,,,,,,,,,,,,,,,,,,,,,,,,,,,,,,,,,,,,,,,
,,,,,SPR24_016,23,M,2024-04-08_15h24.32.365,jersey_experiment_5_v0,2023.2.2,Win32,84.74576271,,,,,,,,,,,,,,,,150.1819,151.4759,151.4759,152.7935,return,0.3894,,99.08854167,0,23,23,8,1,FBP-OG-81.png,0.43,1.2,9,0.5,,,,,,,,,,,,,,,,,,,,,,,,,,,,,,,,,,,,,,,,,,,,,
,,,,,SPR24_016,23,M,2024-04-08_15h24.32.365,jersey_experiment_5_v0,2023.2.2,Win32,84.74576271,,,,,,,,,,,,,,,,152.7938,153.8406,153.8407,155.2524,return,0.171,,87.23958333,0,24,24,57,1,FBP-PT-19.png,0.4,1.2,58,0.25,,,,,,,,,,,,,,,,,,,,,,,,,,,,,,,,,,,,,,,,,,,,,
,,,,,SPR24_016,23,M,2024-04-08_15h24.32.365,jersey_experiment_5_v0,2023.2.2,Win32,84.74576271,,,,,,,,,,,,,,,,155.2526,156.2995,156.2995,157.7349,return,0.2746,,96.484375,0,25,25,24,1,FBP-YG-18.png,0.45,1.2,25,0.25,,,,,,,,,,,,,,,,,,,,,,,,,,,,,,,,,,,,,,,,,,,,,
,,,,,SPR24_016,23,M,2024-04-08_15h24.32.365,jersey_experiment_5_v0,2023.2.2,Win32,84.74576271,,,,,,,,,,,,,,,,157.7351,158.7819,158.782,162.8763,return,1.2711,,85.9375,0,26,26,20,1,FBP-YG-18.png,0.35,1.2,21,0.25,,,,,,,,,,,,,,,,,,,,,,,,,,,,,,,,,,,,,,,,,,,,,
,,,,,SPR24_016,23,M,2024-04-08_15h24.32.365,jersey_experiment_5_v0,2023.2.2,Win32,84.74576271,,,,,,,,,,,,,,,,162.8765,164.1704,164.1704,166.0766,return,0.4147,,99.34895833,0,27,27,43,1,FBP-RB-19.png,0.43,1.2,44,0.5,,,,,,,,,,,,,,,,,,,,,,,,,,,,,,,,,,,,,,,,,,,,,
,,,,,SPR24_016,23,M,2024-04-08_15h24.32.365,jersey_experiment_5_v0,2023.2.2,Win32,84.74576271,,,,,,,,,,,,,,,,166.0768,167.3706,167.3707,169.5356,return,0.156,,57.03125,0,28,28,0,1,FBP-OG-71.png,0.35,1.2,1,0.5,,,,,,,,,,,,,,,,,,,,,,,,,,,,,,,,,,,,,,,,,,,,,
,,,,,SPR24_016,23,M,2024-04-08_15h24.32.365,jersey_experiment_5_v0,2023.2.2,Win32,84.74576271,,,,,,,,,,,,,,,,169.5357,170.8295,170.8295,173.4766,return,1.4911,,70.18229167,0,29,29,6,1,FBP-OG-81.png,0.37,1.2,7,0.5,,,,,,,,,,,,,,,,,,,,,,,,,,,,,,,,,,,,,,,,,,,,,
,,,,,SPR24_016,23,M,2024-04-08_15h24.32.365,jersey_experiment_5_v0,2023.2.2,Win32,84.74576271,,,,,,,,,,,,,,,,173.4768,174.5239,174.524,176.2533,return,0.2823,,58.07291667,0,30,30,46,1,FBP-PT-17.png,0.37,1.2,47,0.25,,,,,,,,,,,,,,,,,,,,,,,,,,,,,,,,,,,,,,,,,,,,,
,,,,,SPR24_016,23,M,2024-04-08_15h24.32.365,jersey_experiment_5_v0,2023.2.2,Win32,84.74576271,,,,,,,,,,,,,,,,176.2535,177.3004,177.3004,180.3475,return,1.8607,,61.328125,0,31,31,25,1,FBP-YG-19.png,0.35,1.2,26,0.25,,,,,,,,,,,,,,,,,,,,,,,,,,,,,,,,,,,,,,,,,,,,,
,,,,,SPR24_016,23,M,2024-04-08_15h24.32.365,jersey_experiment_5_v0,2023.2.2,Win32,84.74576271,,,,,,,,,,,,,,,,180.3477,181.6417,181.6417,182.6771,return,0.1964,,50.52083333,0,32,32,31,1,FBP-RB-17.png,0.37,1.2,32,0.5,,,,,,,,,,,,,,,,,,,,,,,,,,,,,,,,,,,,,,,,,,,,,
,,,,,SPR24_016,23,M,2024-04-08_15h24.32.365,jersey_experiment_5_v0,2023.2.2,Win32,84.74576271,,,,,,,,,,,,,,,,182.6773,183.7241,183.7242,185.6302,return,0.3906,,87.890625,0,33,33,53,1,FBP-PT-18.png,0.43,1.2,54,0.25,,,,,,,,,,,,,,,,,,,,,,,,,,,,,,,,,,,,,,,,,,,,,
,,,,,SPR24_016,23,M,2024-04-08_15h24.32.365,jersey_experiment_5_v0,2023.2.2,Win32,84.74576271,,,,,,,,,,,,,,,,185.6304,186.9243,186.9244,188.2065,return,0.2447,,99.08854167,0,34,34,14,1,FBP-OG-91.png,0.45,1.2,15,0.5,,,,,,,,,,,,,,,,,,,,,,,,,,,,,,,,,,,,,,,,,,,,,
,,,,,SPR24_016,23,M,2024-04-08_15h24.32.365,jersey_experiment_5_v0,2023.2.2,Win32,84.74576271,,,,,,,,,,,,,,,,188.2066,189.2538,189.2538,191.3831,return,0.1946,,99.47916667,0,35,35,59,1,FBP-PT-19.png,0.45,1.2,60,0.25,,,,,,,,,,,,,,,,,,,,,,,,,,,,,,,,,,,,,,,,,,,,,
,,,,,SPR24_016,23,M,2024-04-08_15h24.32.365,jersey_experiment_5_v0,2023.2.2,Win32,84.74576271,,,,,,,,,,,,,,,,191.3834,192.6773,192.6773,194.5716,return,0.1885,,68.359375,0,36,36,36,1,FBP-RB-18.png,0.37,1.2,37,0.5,,,,,,,,,,,,,,,,,,,,,,,,,,,,,,,,,,,,,,,,,,,,,
,,,,,SPR24_016,23,M,2024-04-08_15h24.32.365,jersey_experiment_5_v0,2023.2.2,Win32,84.74576271,,,,,,,,,,,,,,,,194.5719,195.6186,195.6187,197.3364,return,0.5561,,68.61979167,0,37,37,16,1,FBP-YG-17.png,0.37,1.2,17,0.25,,,,,,,,,,,,,,,,,,,,,,,,,,,,,,,,,,,,,,,,,,,,,
,,,,,SPR24_016,23,M,2024-04-08_15h24.32.365,jersey_experiment_5_v0,2023.2.2,Win32,84.74576271,,,,,,,,,,,,,,,,197.3366,198.6305,198.6305,200.4542,return,0.4517,,99.34895833,0,38,38,4,1,FBP-OG-71.png,0.45,1.2,5,0.5,,,,,,,,,,,,,,,,,,,,,,,,,,,,,,,,,,,,,,,,,,,,,
,,,,,SPR24_016,23,M,2024-04-08_15h24.32.365,jersey_experiment_5_v0,2023.2.2,Win32,84.74576271,,,,,,,,,,,,,,,,200.4544,201.7483,201.7484,204.7602,return,1.6875,,75.78125,0,39,39,30,1,FBP-RB-17.png,0.35,1.2,31,0.5,,,,,,,,,,,,,,,,,,,,,,,,,,,,,,,,,,,,,,,,,,,,,
,,,,,SPR24_016,23,M,2024-04-08_15h24.32.365,jersey_experiment_5_v0,2023.2.2,Win32,84.74576271,,,,,,,,,,,,,,,,204.7605,205.8073,205.8073,208.5251,return,0.0617,,90.75520833,0,40,40,22,1,FBP-YG-18.png,0.4,1.2,23,0.25,,,,,,,,,,,,,,,,,,,,,,,,,,,,,,,,,,,,,,,,,,,,,
,,,,,SPR24_016,23,M,2024-04-08_15h24.32.365,jersey_experiment_5_v0,2023.2.2,Win32,84.74576271,,,,,,,,,,,,,,,,208.5254,209.8193,209.8193,210.9368,return,0.1784,,99.08854167,0,41,41,34,1,FBP-RB-17.png,0.45,1.2,35,0.5,,,,,,,,,,,,,,,,,,,,,,,,,,,,,,,,,,,,,,,,,,,,,
,,,,,SPR24_016,23,M,2024-04-08_15h24.32.365,jersey_experiment_5_v0,2023.2.2,Win32,84.74576271,,,,,,,,,,,,,,,,210.937,212.231,212.231,214.2311,return,0.0765,,65.75520833,0,42,42,1,1,FBP-OG-71.png,0.37,1.2,2,0.5,,,,,,,,,,,,,,,,,,,,,,,,,,,,,,,,,,,,,,,,,,,,,
,,,,,SPR24_016,23,M,2024-04-08_15h24.32.365,jersey_experiment_5_v0,2023.2.2,Win32,84.74576271,,,,,,,,,,,,,,,,214.2313,215.2783,215.2783,217.4548,return,0.2211,,94.27083333,0,43,43,29,1,FBP-YG-19.png,0.45,1.2,30,0.25,,,,,,,,,,,,,,,,,,,,,,,,,,,,,,,,,,,,,,,,,,,,,
,,,,,SPR24_016,23,M,2024-04-08_15h24.32.365,jersey_experiment_5_v0,2023.2.2,Win32,84.74576271,,,,,,,,,,,,,,,,217.4549,218.7491,218.7492,219.7843,return,0.2492,,99.86979167,0,44,44,3,1,FBP-OG-71.png,0.43,1.2,4,0.5,,,,,,,,,,,,,,,,,,,,,,,,,,,,,,,,,,,,,,,,,,,,,
,,,,,SPR24_016,23,M,2024-04-08_15h24.32.365,jersey_experiment_5_v0,2023.2.2,Win32,84.74576271,,,,,,,,,,,,,,,,219.7845,220.8314,220.8314,223.0668,return,0.2125,,59.89583333,0,45,45,56,1,FBP-PT-19.png,0.37,1.2,57,0.25,,,,,,,,,,,,,,,,,,,,,,,,,,,,,,,,,,,,,,,,,,,,,
,,,,,SPR24_016,23,M,2024-04-08_15h24.32.365,jersey_experiment_5_v0,2023.2.2,Win32,84.74576271,,,,,,,,,,,,,,,,223.0671,224.361,224.361,226.0551,return,0.1921,,67.31770833,0,46,46,12,1,FBP-OG-91.png,0.4,1.2,13,0.5,,,,,,,,,,,,,,,,,,,,,,,,,,,,,,,,,,,,,,,,,,,,,
,,,,,SPR24_016,23,M,2024-04-08_15h24.32.365,jersey_experiment_5_v0,2023.2.2,Win32,84.74576271,,,,,,,,,,,,,,,,226.0554,227.1022,227.1022,229.5258,return,0.1109,,86.06770833,0,47,47,54,1,FBP-PT-18.png,0.45,1.2,55,0.25,,,,,,,,,,,,,,,,,,,,,,,,,,,,,,,,,,,,,,,,,,,,,
,,,,,SPR24_016,23,M,2024-04-08_15h24.32.365,jersey_experiment_5_v0,2023.2.2,Win32,84.74576271,,,,,,,,,,,,,,,,229.526,230.5729,230.573,232.3024,return,0.3295,,58.46354167,0,48,48,51,1,FBP-PT-18.png,0.37,1.2,52,0.25,,,,,,,,,,,,,,,,,,,,,,,,,,,,,,,,,,,,,,,,,,,,,
,,,,,SPR24_016,23,M,2024-04-08_15h24.32.365,jersey_experiment_5_v0,2023.2.2,Win32,84.74576271,,,,,,,,,,,,,,,,232.3025,233.3496,233.3496,235.7026,return,0.089,,61.328125,0,49,49,26,1,FBP-YG-19.png,0.37,1.2,27,0.25,,,,,,,,,,,,,,,,,,,,,,,,,,,,,,,,,,,,,,,,,,,,,
,,,,,SPR24_016,23,M,2024-04-08_15h24.32.365,jersey_experiment_5_v0,2023.2.2,Win32,84.74576271,,,,,,,,,,,,,,,,235.7028,236.9967,236.9967,238.3967,return,0.1035,,49.73958333,0,50,50,5,1,FBP-OG-81.png,0.35,1.2,6,0.5,,,,,,,,,,,,,,,,,,,,,,,,,,,,,,,,,,,,,,,,,,,,,
,,,,,SPR24_016,23,M,2024-04-08_15h24.32.365,jersey_experiment_5_v0,2023.2.2,Win32,84.74576271,,,,,,,,,,,,,,,,238.397,239.6909,239.6909,241.0203,return,0.0617,,68.09895833,0,51,51,13,1,FBP-OG-91.png,0.43,1.2,14,0.5,,,,,,,,,,,,,,,,,,,,,,,,,,,,,,,,,,,,,,,,,,,,,
,,,,,SPR24_016,23,M,2024-04-08_15h24.32.365,jersey_experiment_5_v0,2023.2.2,Win32,84.74576271,,,,,,,,,,,,,,,,241.0205,242.0675,242.0675,245.0323,return,0.4847,,64.71354167,0,52,52,27,1,FBP-YG-19.png,0.4,1.2,28,0.25,,,,,,,,,,,,,,,,,,,,,,,,,,,,,,,,,,,,,,,,,,,,,
,,,,,SPR24_016,23,M,2024-04-08_15h24.32.365,jersey_experiment_5_v0,2023.2.2,Win32,84.74576271,,,,,,,,,,,,,,,,245.0325,246.3264,246.3264,250.1031,return,1.5236,,50.78125,0,53,53,10,1,FBP-OG-91.png,0.35,1.2,11,0.5,,,,,,,,,,,,,,,,,,,,,,,,,,,,,,,,,,,,,,,,,,,,,
,,,,,SPR24_016,23,M,2024-04-08_15h24.32.365,jersey_experiment_5_v0,2023.2.2,Win32,84.74576271,,,,,,,,,,,,,,,,250.1033,251.3973,251.3973,252.8093,return,0.0865,,79.296875,0,54,54,38,1,FBP-RB-18.png,0.43,1.2,39,0.5,,,,,,,,,,,,,,,,,,,,,,,,,,,,,,,,,,,,,,,,,,,,,
,,,,,SPR24_016,23,M,2024-04-08_15h24.32.365,jersey_experiment_5_v0,2023.2.2,Win32,84.74576271,,,,,,,,,,,,,,,,252.8095,253.8561,253.8561,255.7034,return,0.1217,,53.64583333,0,55,55,50,1,FBP-PT-18.png,0.35,1.2,51,0.25,,,,,,,,,,,,,,,,,,,,,,,,,,,,,,,,,,,,,,,,,,,,,
,,,,,SPR24_016,23,M,2024-04-08_15h24.32.365,jersey_experiment_5_v0,2023.2.2,Win32,84.74576271,,,,,,,,,,,,,,,,255.7036,256.7503,256.7504,258.6211,return,0.2113,,92.83854167,0,56,56,19,1,FBP-YG-17.png,0.45,1.2,20,0.25,,,,,,,,,,,,,,,,,,,,,,,,,,,,,,,,,,,,,,,,,,,,,
,,,,,SPR24_016,23,M,2024-04-08_15h24.32.365,jersey_experiment_5_v0,2023.2.2,Win32,84.74576271,,,,,,,,,,,,,,,,258.6212,259.9153,259.9153,261.3977,return,0.3722,,98.046875,0,57,57,33,1,FBP-RB-17.png,0.43,1.2,34,0.5,,,,,,,,,,,,,,,,,,,,,,,,,,,,,,,,,,,,,,,,,,,,,
,,,,,SPR24_016,23,M,2024-04-08_15h24.32.365,jersey_experiment_5_v0,2023.2.2,Win32,84.74576271,,,,,,,,,,,,,,,,261.3979,262.4446,262.4447,264.186,return,0.0836,,77.21354167,0,58,58,21,1,FBP-YG-18.png,0.37,1.2,22,0.25,,,,,,,,,,,,,,,,,,,,,,,,,,,,,,,,,,,,,,,,,,,,,
,,,,,SPR24_016,23,M,2024-04-08_15h24.32.365,jersey_experiment_5_v0,2023.2.2,Win32,84.74576271,,,,,,,,,,,,,,,,264.1863,265.4801,265.4802,267.198,return,0.0329,,83.46354167,0,59,59,32,1,FBP-RB-17.png,0.4,1.2,33,0.5,,,,,,,,,,,,,,,,,,,,,,,,,,,,,,,,,,,,,,,,,,,,,
,,,,,SPR24_016,23,M,2024-04-08_15h24.32.365,jersey_experiment_5_v0,2023.2.2,Win32,84.74576271,,,,,,,,,,,,,,,,267.2001,268.4919,268.4919,269.8217,return,0.1085,,66.015625,,,,,,FBP-OG-19.png,0.37,1.2,12,0.5,0,0,0,11,1,,,,,,,,,,,,,,,,,,,,,,,,,,,,,,,,,,,,,,,,
,,,,,SPR24_016,23,M,2024-04-08_15h24.32.365,jersey_experiment_5_v0,2023.2.2,Win32,84.74576271,,,,,,,,,,,,,,,,269.822,271.1157,271.1157,272.598,return,0.1697,,86.58854167,,,,,,FBP-OG-19.png,0.43,1.2,14,0.5,0,1,1,13,1,,,,,,,,,,,,,,,,,,,,,,,,,,,,,,,,,,,,,,,,
,,,,,SPR24_016,23,M,2024-04-08_15h24.32.365,jersey_experiment_5_v0,2023.2.2,Win32,84.74576271,,,,,,,,,,,,,,,,272.5984,273.6452,273.6452,275.6923,return,0.6454,,98.56770833,,,,,,FBP-YG-71.png,0.45,1.2,20,0.25,0,2,2,19,1,,,,,,,,,,,,,,,,,,,,,,,,,,,,,,,,,,,,,,,,
,,,,,SPR24_016,23,M,2024-04-08_15h24.32.365,jersey_experiment_5_v0,2023.2.2,Win32,84.74576271,,,,,,,,,,,,,,,,275.6924,276.7395,276.7395,278.2453,return,0.0996,,83.59375,,,,,,FBP-PT-91.png,0.45,1.2,60,0.25,0,3,3,59,1,,,,,,,,,,,,,,,,,,,,,,,,,,,,,,,,,,,,,,,,
,,,,,SPR24_016,23,M,2024-04-08_15h24.32.365,jersey_experiment_5_v0,2023.2.2,Win32,84.74576271,,,,,,,,,,,,,,,,278.2455,279.2924,279.2926,280.9984,return,0.1463,,60.15625,,,,,,FBP-YG-71.png,0.35,1.2,16,0.25,0,4,4,15,1,,,,,,,,,,,,,,,,,,,,,,,,,,,,,,,,,,,,,,,,
,,,,,SPR24_016,23,M,2024-04-08_15h24.32.365,jersey_experiment_5_v0,2023.2.2,Win32,84.74576271,,,,,,,,,,,,,,,,280.9986,282.2926,282.2926,283.775,return,0.2257,,77.21354167,,,,,,FBP-OG-17.png,0.43,1.2,4,0.5,0,5,5,3,1,,,,,,,,,,,,,,,,,,,,,,,,,,,,,,,,,,,,,,,,
,,,,,SPR24_016,23,M,2024-04-08_15h24.32.365,jersey_experiment_5_v0,2023.2.2,Win32,84.74576271,,,,,,,,,,,,,,,,283.7751,284.822,284.822,286.1396,return,0.2134,,96.35416667,,,,,,FBP-YG-91.png,0.45,1.2,30,0.25,0,6,6,29,1,,,,,,,,,,,,,,,,,,,,,,,,,,,,,,,,,,,,,,,,
,,,,,SPR24_016,23,M,2024-04-08_15h24.32.365,jersey_experiment_5_v0,2023.2.2,Win32,84.74576271,,,,,,,,,,,,,,,,286.1398,287.4337,287.4338,288.3515,return,0.3384,,96.35416667,,,,,,FBP-RB-91.png,0.43,1.2,44,0.5,0,7,7,43,1,,,,,,,,,,,,,,,,,,,,,,,,,,,,,,,,,,,,,,,,
,,,,,SPR24_016,23,M,2024-04-08_15h24.32.365,jersey_experiment_5_v0,2023.2.2,Win32,84.74576271,,,,,,,,,,,,,,,,288.3518,289.3987,289.3988,291.0459,return,0.2171,,90.10416667,,,,,,FBP-PT-71.png,0.43,1.2,49,0.25,0,8,8,48,1,,,,,,,,,,,,,,,,,,,,,,,,,,,,,,,,,,,,,,,,
,,,,,SPR24_016,23,M,2024-04-08_15h24.32.365,jersey_experiment_5_v0,2023.2.2,Win32,84.74576271,,,,,,,,,,,,,,,,291.0461,292.0929,292.0929,293.8225,return,0.1169,,48.046875,,,,,,FBP-PT-71.png,0.4,1.2,48,0.25,0,9,9,47,1,,,,,,,,,,,,,,,,,,,,,,,,,,,,,,,,,,,,,,,,
,,,,,SPR24_016,23,M,2024-04-08_15h24.32.365,jersey_experiment_5_v0,2023.2.2,Win32,84.74576271,,,,,,,,,,,,,,,,293.8226,295.1166,295.1166,297.2225,return,0.1245,,89.32291667,,,,,,FBP-OG-17.png,0.45,1.2,5,0.5,0,10,10,4,1,,,,,,,,,,,,,,,,,,,,,,,,,,,,,,,,,,,,,,,,
,,,,,SPR24_016,23,M,2024-04-08_15h24.32.365,jersey_experiment_5_v0,2023.2.2,Win32,84.74576271,,,,,,,,,,,,,,,,297.2227,298.2697,298.2697,299.5167,return,0.1073,,95.83333333,,,,,,FBP-YG-91.png,0.43,1.2,29,0.25,0,11,11,28,1,,,,,,,,,,,,,,,,,,,,,,,,,,,,,,,,,,,,,,,,
,,,,,SPR24_016,23,M,2024-04-08_15h24.32.365,jersey_experiment_5_v0,2023.2.2,Win32,84.74576271,,,,,,,,,,,,,,,,299.517,300.8109,300.8109,302.2228,return,0.0943,,58.984375,,,,,,FBP-RB-71.png,0.4,1.2,33,0.5,0,12,12,32,1,,,,,,,,,,,,,,,,,,,,,,,,,,,,,,,,,,,,,,,,
,,,,,SPR24_016,23,M,2024-04-08_15h24.32.365,jersey_experiment_5_v0,2023.2.2,Win32,84.74576271,,,,,,,,,,,,,,,,302.223,303.5169,303.5169,304.5641,return,0.0801,,98.30729167,,,,,,FBP-RB-91.png,0.45,1.2,45,0.5,0,13,13,44,1,,,,,,,,,,,,,,,,,,,,,,,,,,,,,,,,,,,,,,,,
,,,,,SPR24_016,23,M,2024-04-08_15h24.32.365,jersey_experiment_5_v0,2023.2.2,Win32,84.74576271,,,,,,,,,,,,,,,,304.5643,305.6111,305.6111,309.1995,return,1.3415,,33.07291667,,,,,,FBP-PT-81.png,0.37,1.2,52,0.25,0,14,14,51,1,,,,,,,,,,,,,,,,,,,,,,,,,,,,,,,,,,,,,,,,
,,,,,SPR24_016,23,M,2024-04-08_15h24.32.365,jersey_experiment_5_v0,2023.2.2,Win32,84.74576271,,,,,,,,,,,,,,,,309.1997,310.2466,310.2466,311.176,return,0.0147,,30.72916667,,,,,,FBP-PT-71.png,0.37,1.2,47,0.25,0,15,15,46,1,,,,,,,,,,,,,,,,,,,,,,,,,,,,,,,,,,,,,,,,
,,,,,SPR24_016,23,M,2024-04-08_15h24.32.365,jersey_experiment_5_v0,2023.2.2,Win32,84.74576271,,,,,,,,,,,,,,,,311.1763,312.223,312.2231,313.7055,return,0.1895,,28.125,,,,,,FBP-PT-91.png,0.37,1.2,57,0.25,0,16,16,56,1,,,,,,,,,,,,,,,,,,,,,,,,,,,,,,,,,,,,,,,,
,,,,,SPR24_016,23,M,2024-04-08_15h24.32.365,jersey_experiment_5_v0,2023.2.2,Win32,84.74576271,,,,,,,,,,,,,,,,313.7056,314.7525,314.7526,317.6232,return,0.0858,,50,,,,,,FBP-YG-71.png,0.4,1.2,18,0.25,0,17,17,17,1,,,,,,,,,,,,,,,,,,,,,,,,,,,,,,,,,,,,,,,,
,,,,,SPR24_016,23,M,2024-04-08_15h24.32.365,jersey_experiment_5_v0,2023.2.2,Win32,84.74576271,,,,,,,,,,,,,,,,317.6234,318.6705,318.6705,320.0115,return,0.1319,,19.40104167,,,,,,FBP-PT-91.png,0.35,1.2,56,0.25,0,18,18,55,1,,,,,,,,,,,,,,,,,,,,,,,,,,,,,,,,,,,,,,,,
,,,,,SPR24_016,23,M,2024-04-08_15h24.32.365,jersey_experiment_5_v0,2023.2.2,Win32,84.74576271,,,,,,,,,,,,,,,,320.0119,321.0587,321.0587,322.3293,return,0.1077,,27.08333333,,,,,,FBP-YG-91.png,0.37,1.2,27,0.25,0,19,19,26,1,,,,,,,,,,,,,,,,,,,,,,,,,,,,,,,,,,,,,,,,
,,,,,SPR24_016,23,M,2024-04-08_15h24.32.365,jersey_experiment_5_v0,2023.2.2,Win32,84.74576271,,,,,,,,,,,,,,,,322.3295,323.3764,323.3765,324.6237,return,0.0937,,12.109375,,,,,,FBP-PT-81.png,0.35,1.2,51,0.25,0,20,20,50,1,,,,,,,,,,,,,,,,,,,,,,,,,,,,,,,,,,,,,,,,
,,,,,SPR24_016,23,M,2024-04-08_15h24.32.365,jersey_experiment_5_v0,2023.2.2,Win32,84.74576271,,,,,,,,,,,,,,,,324.6238,325.9179,325.9181,326.918,return,0.2196,,17.1875,,,,,,FBP-OG-19.png,0.35,1.2,11,0.5,0,21,21,10,1,,,,,,,,,,,,,,,,,,,,,,,,,,,,,,,,,,,,,,,,
,,,,,SPR24_016,23,M,2024-04-08_15h24.32.365,jersey_experiment_5_v0,2023.2.2,Win32,84.74576271,,,,,,,,,,,,,,,,326.9182,327.9649,327.9649,330.4708,return,0.1343,,69.27083333,,,,,,FBP-PT-71.png,0.45,1.2,50,0.25,0,22,22,49,1,,,,,,,,,,,,,,,,,,,,,,,,,,,,,,,,,,,,,,,,
,,,,,SPR24_016,23,M,2024-04-08_15h24.32.365,jersey_experiment_5_v0,2023.2.2,Win32,84.74576271,,,,,,,,,,,,,,,,330.471,331.765,331.765,333.3416,return,0.1511,,79.42708333,,,,,,FBP-RB-81.png,0.4,1.2,38,0.5,0,23,23,37,1,,,,,,,,,,,,,,,,,,,,,,,,,,,,,,,,,,,,,,,,
,,,,,SPR24_016,23,M,2024-04-08_15h24.32.365,jersey_experiment_5_v0,2023.2.2,Win32,84.74576271,,,,,,,,,,,,,,,,333.3419,334.3886,334.3886,338.4711,return,0.2039,,82.03125,,,,,,FBP-PT-81.png,0.4,1.2,53,0.25,0,24,24,52,1,,,,,,,,,,,,,,,,,,,,,,,,,,,,,,,,,,,,,,,,
,,,,,SPR24_016,23,M,2024-04-08_15h24.32.365,jersey_experiment_5_v0,2023.2.2,Win32,84.74576271,,,,,,,,,,,,,,,,338.4713,339.5183,339.5183,342.0713,return,0.1943,,23.69791667,,,,,,FBP-YG-71.png,0.37,1.2,17,0.25,0,25,25,16,1,,,,,,,,,,,,,,,,,,,,,,,,,,,,,,,,,,,,,,,,
,,,,,SPR24_016,23,M,2024-04-08_15h24.32.365,jersey_experiment_5_v0,2023.2.2,Win32,84.74576271,,,,,,,,,,,,,,,,342.0715,343.3654,343.3654,345.3656,return,0.1488,,71.35416667,,,,,,FBP-OG-19.png,0.45,1.2,15,0.5,0,26,26,14,1,,,,,,,,,,,,,,,,,,,,,,,,,,,,,,,,,,,,,,,,
,,,,,SPR24_016,23,M,2024-04-08_15h24.32.365,jersey_experiment_5_v0,2023.2.2,Win32,84.74576271,,,,,,,,,,,,,,,,345.3658,346.6596,346.6597,347.7421,return,0.0329,,73.828125,,,,,,FBP-OG-18.png,0.4,1.2,8,0.5,0,27,27,7,1,,,,,,,,,,,,,,,,,,,,,,,,,,,,,,,,,,,,,,,,
,,,,,SPR24_016,23,M,2024-04-08_15h24.32.365,jersey_experiment_5_v0,2023.2.2,Win32,84.74576271,,,,,,,,,,,,,,,,347.7423,349.0361,349.0361,350.3659,return,0.1644,,79.55729167,,,,,,FBP-RB-91.png,0.4,1.2,43,0.5,0,28,28,42,1,,,,,,,,,,,,,,,,,,,,,,,,,,,,,,,,,,,,,,,,
,,,,,SPR24_016,23,M,2024-04-08_15h24.32.365,jersey_experiment_5_v0,2023.2.2,Win32,84.74576271,,,,,,,,,,,,,,,,350.3661,351.4128,351.4128,352.2835,return,0.0351,,94.53125,,,,,,FBP-YG-81.png,0.45,1.2,25,0.25,0,29,29,24,1,,,,,,,,,,,,,,,,,,,,,,,,,,,,,,,,,,,,,,,,
,,,,,SPR24_016,23,M,2024-04-08_15h24.32.365,jersey_experiment_5_v0,2023.2.2,Win32,84.74576271,,,,,,,,,,,,,,,,352.2837,353.5776,353.5777,354.8249,return,0.0515,,56.38020833,,,,,,FBP-OG-18.png,0.37,1.2,7,0.5,0,30,30,6,1,,,,,,,,,,,,,,,,,,,,,,,,,,,,,,,,,,,,,,,,
,,,,,SPR24_016,23,M,2024-04-08_15h24.32.365,jersey_experiment_5_v0,2023.2.2,Win32,84.74576271,,,,,,,,,,,,,,,,354.8251,356.1189,356.1189,357.166,return,0.1648,,71.35416667,,,,,,FBP-OG-17.png,0.4,1.2,3,0.5,0,31,31,2,1,,,,,,,,,,,,,,,,,,,,,,,,,,,,,,,,,,,,,,,,
,,,,,SPR24_016,23,M,2024-04-08_15h24.32.365,jersey_experiment_5_v0,2023.2.2,Win32,84.74576271,,,,,,,,,,,,,,,,357.1663,358.4601,358.4601,359.9307,return,0.0965,,44.40104167,,,,,,FBP-RB-91.png,0.35,1.2,41,0.5,0,32,32,40,1,,,,,,,,,,,,,,,,,,,,,,,,,,,,,,,,,,,,,,,,
,,,,,SPR24_016,23,M,2024-04-08_15h24.32.365,jersey_experiment_5_v0,2023.2.2,Win32,84.74576271,,,,,,,,,,,,,,,,359.9309,361.225,361.225,362.1426,return,0.0329,,26.82291667,,,,,,FBP-OG-17.png,0.35,1.2,1,0.5,0,33,33,0,1,,,,,,,,,,,,,,,,,,,,,,,,,,,,,,,,,,,,,,,,
,,,,,SPR24_016,23,M,2024-04-08_15h24.32.365,jersey_experiment_5_v0,2023.2.2,Win32,84.74576271,,,,,,,,,,,,,,,,362.1428,363.1897,363.1897,364.6602,return,0.0656,,87.63020833,,,,,,FBP-YG-71.png,0.43,1.2,19,0.25,0,34,34,18,1,,,,,,,,,,,,,,,,,,,,,,,,,,,,,,,,,,,,,,,,
,,,,,SPR24_016,23,M,2024-04-08_15h24.32.365,jersey_experiment_5_v0,2023.2.2,Win32,84.74576271,,,,,,,,,,,,,,,,364.6603,365.7075,365.7075,367.2957,return,0.1882,,87.23958333,,,,,,FBP-PT-81.png,0.43,1.2,54,0.25,0,35,35,53,1,,,,,,,,,,,,,,,,,,,,,,,,,,,,,,,,,,,,,,,,
,,,,,SPR24_016,23,M,2024-04-08_15h24.32.365,jersey_experiment_5_v0,2023.2.2,Win32,84.74576271,,,,,,,,,,,,,,,,367.296,368.3429,368.3429,369.8604,return,0.0792,,92.44791667,,,,,,FBP-YG-81.png,0.43,1.2,24,0.25,0,36,36,23,1,,,,,,,,,,,,,,,,,,,,,,,,,,,,,,,,,,,,,,,,
,,,,,SPR24_016,23,M,2024-04-08_15h24.32.365,jersey_experiment_5_v0,2023.2.2,Win32,84.74576271,,,,,,,,,,,,,,,,369.8606,371.1548,371.1548,372.5079,return,0.0699,,44.79166667,,,,,,FBP-RB-91.png,0.37,1.2,42,0.5,0,37,37,41,1,,,,,,,,,,,,,,,,,,,,,,,,,,,,,,,,,,,,,,,,
,,,,,SPR24_016,23,M,2024-04-08_15h24.32.365,jersey_experiment_5_v0,2023.2.2,Win32,84.74576271,,,,,,,,,,,,,,,,372.508,373.5548,373.5548,374.5666,return,0.0393,,31.640625,,,,,,FBP-YG-91.png,0.35,1.2,26,0.25,0,38,38,25,1,,,,,,,,,,,,,,,,,,,,,,,,,,,,,,,,,,,,,,,,
,,,,,SPR24_016,23,M,2024-04-08_15h24.32.365,jersey_experiment_5_v0,2023.2.2,Win32,84.74576271,,,,,,,,,,,,,,,,374.5668,375.8607,375.8607,378.3197,return,0.5416,,48.69791667,,,,,,FBP-RB-71.png,0.37,1.2,32,0.5,0,39,39,31,1,,,,,,,,,,,,,,,,,,,,,,,,,,,,,,,,,,,,,,,,
,,,,,SPR24_016,23,M,2024-04-08_15h24.32.365,jersey_experiment_5_v0,2023.2.2,Win32,84.74576271,,,,,,,,,,,,,,,,378.3199,379.3668,379.3669,380.7197,return,0.4701,,52.60416667,,,,,,FBP-YG-81.png,0.37,1.2,22,0.25,0,40,40,21,1,,,,,,,,,,,,,,,,,,,,,,,,,,,,,,,,,,,,,,,,
,,,,,SPR24_016,23,M,2024-04-08_15h24.32.365,jersey_experiment_5_v0,2023.2.2,Win32,84.74576271,,,,,,,,,,,,,,,,380.72,382.0139,382.0139,382.8845,return,0.0438,,54.42708333,,,,,,FBP-RB-81.png,0.37,1.2,37,0.5,0,41,41,36,1,,,,,,,,,,,,,,,,,,,,,,,,,,,,,,,,,,,,,,,,
,,,,,SPR24_016,23,M,2024-04-08_15h24.32.365,jersey_experiment_5_v0,2023.2.2,Win32,84.74576271,,,,,,,,,,,,,,,,382.8848,384.1787,384.1788,385.014,return,0.0163,,42.70833333,,,,,,FBP-OG-17.png,0.37,1.2,2,0.5,0,42,42,1,1,,,,,,,,,,,,,,,,,,,,,,,,,,,,,,,,,,,,,,,,
,,,,,SPR24_016,23,M,2024-04-08_15h24.32.365,jersey_experiment_5_v0,2023.2.2,Win32,84.74576271,,,,,,,,,,,,,,,,385.0142,386.0612,386.0613,387.7083,return,0.0377,,79.42708333,,,,,,FBP-PT-81.png,0.45,1.2,55,0.25,0,43,43,54,1,,,,,,,,,,,,,,,,,,,,,,,,,,,,,,,,,,,,,,,,
,,,,,SPR24_016,23,M,2024-04-08_15h24.32.365,jersey_experiment_5_v0,2023.2.2,Win32,84.74576271,,,,,,,,,,,,,,,,387.7085,389.0026,389.0026,391.8026,return,0.4853,,73.56770833,,,,,,FBP-OG-19.png,0.4,1.2,13,0.5,0,44,44,12,1,,,,,,,,,,,,,,,,,,,,,,,,,,,,,,,,,,,,,,,,
,,,,,SPR24_016,23,M,2024-04-08_15h24.32.365,jersey_experiment_5_v0,2023.2.2,Win32,84.74576271,,,,,,,,,,,,,,,,391.8028,393.0968,393.0968,393.8381,return,0.0092,,95.05208333,,,,,,FBP-OG-18.png,0.45,1.2,10,0.5,0,45,45,9,1,,,,,,,,,,,,,,,,,,,,,,,,,,,,,,,,,,,,,,,,
,,,,,SPR24_016,23,M,2024-04-08_15h24.32.365,jersey_experiment_5_v0,2023.2.2,Win32,84.74576271,,,,,,,,,,,,,,,,393.8382,395.1321,395.1321,396.2498,return,0.3773,,99.86979167,,,,,,FBP-RB-71.png,0.45,1.2,35,0.5,0,46,46,34,1,,,,,,,,,,,,,,,,,,,,,,,,,,,,,,,,,,,,,,,,
,,,,,SPR24_016,23,M,2024-04-08_15h24.32.365,jersey_experiment_5_v0,2023.2.2,Win32,84.74576271,,,,,,,,,,,,,,,,396.2501,397.2968,397.2969,399.3322,return,0.0209,,25.91145833,,,,,,FBP-YG-81.png,0.35,1.2,21,0.25,0,47,47,20,1,,,,,,,,,,,,,,,,,,,,,,,,,,,,,,,,,,,,,,,,
,,,,,SPR24_016,23,M,2024-04-08_15h24.32.365,jersey_experiment_5_v0,2023.2.2,Win32,84.74576271,,,,,,,,,,,,,,,,399.3324,400.6264,400.6264,401.9088,return,0.2048,,53.25520833,,,,,,FBP-RB-81.png,0.43,1.2,39,0.5,0,48,48,38,1,,,,,,,,,,,,,,,,,,,,,,,,,,,,,,,,,,,,,,,,
,,,,,SPR24_016,23,M,2024-04-08_15h24.32.365,jersey_experiment_5_v0,2023.2.2,Win32,84.74576271,,,,,,,,,,,,,,,,401.909,403.2029,403.2029,404.3914,return,0.0509,,33.203125,,,,,,FBP-RB-81.png,0.35,1.2,36,0.5,0,49,49,35,1,,,,,,,,,,,,,,,,,,,,,,,,,,,,,,,,,,,,,,,,
,,,,,SPR24_016,23,M,2024-04-08_15h24.32.365,jersey_experiment_5_v0,2023.2.2,Win32,84.74576271,,,,,,,,,,,,,,,,404.3916,405.6855,405.6855,406.7797,return,0.0491,,74.609375,,,,,,FBP-RB-71.png,0.43,1.2,34,0.5,0,50,50,33,1,,,,,,,,,,,,,,,,,,,,,,,,,,,,,,,,,,,,,,,,
,,,,,SPR24_016,23,M,2024-04-08_15h24.32.365,jersey_experiment_5_v0,2023.2.2,Win32,84.74576271,,,,,,,,,,,,,,,,406.7798,408.0737,408.0738,409.0151,return,0.3357,,76.5625,,,,,,FBP-OG-18.png,0.43,1.2,9,0.5,0,51,51,8,1,,,,,,,,,,,,,,,,,,,,,,,,,,,,,,,,,,,,,,,,
,,,,,SPR24_016,23,M,2024-04-08_15h24.32.365,jersey_experiment_5_v0,2023.2.2,Win32,84.74576271,,,,,,,,,,,,,,,,409.0153,410.062,410.062,410.7327,return,0.0574,,79.296875,,,,,,FBP-PT-91.png,0.4,1.2,58,0.25,0,52,52,57,1,,,,,,,,,,,,,,,,,,,,,,,,,,,,,,,,,,,,,,,,
,,,,,SPR24_016,23,M,2024-04-08_15h24.32.365,jersey_experiment_5_v0,2023.2.2,Win32,84.74576271,,,,,,,,,,,,,,,,410.7328,412.0268,412.0269,413.6152,return,0.4148,,10.41666667,,,,,,FBP-OG-18.png,0.35,1.2,6,0.5,0,53,53,5,1,,,,,,,,,,,,,,,,,,,,,,,,,,,,,,,,,,,,,,,,
,,,,,SPR24_016,23,M,2024-04-08_15h24.32.365,jersey_experiment_5_v0,2023.2.2,Win32,84.74576271,,,,,,,,,,,,,,,,413.6155,414.6623,414.6623,416.7799,return,0.0586,,48.4375,,,,,,FBP-YG-91.png,0.4,1.2,28,0.25,0,54,54,27,1,,,,,,,,,,,,,,,,,,,,,,,,,,,,,,,,,,,,,,,,
,,,,,SPR24_016,23,M,2024-04-08_15h24.32.365,jersey_experiment_5_v0,2023.2.2,Win32,84.74576271,,,,,,,,,,,,,,,,416.78,418.074,418.074,419.8507,return,0.3769,,96.09375,,,,,,FBP-RB-81.png,0.45,1.2,40,0.5,0,55,55,39,1,,,,,,,,,,,,,,,,,,,,,,,,,,,,,,,,,,,,,,,,
,,,,,SPR24_016,23,M,2024-04-08_15h24.32.365,jersey_experiment_5_v0,2023.2.2,Win32,84.74576271,,,,,,,,,,,,,,,,419.8509,420.8978,420.8978,424.1802,return,0.0676,,43.88020833,,,,,,FBP-PT-71.png,0.35,1.2,46,0.25,0,56,56,45,1,,,,,,,,,,,,,,,,,,,,,,,,,,,,,,,,,,,,,,,,
,,,,,SPR24_016,23,M,2024-04-08_15h24.32.365,jersey_experiment_5_v0,2023.2.2,Win32,84.74576271,,,,,,,,,,,,,,,,424.1805,425.4744,425.4744,427.2746,return,0.0494,,32.421875,,,,,,FBP-RB-71.png,0.35,1.2,31,0.5,0,57,57,30,1,,,,,,,,,,,,,,,,,,,,,,,,,,,,,,,,,,,,,,,,
,,,,,SPR24_016,23,M,2024-04-08_15h24.32.365,jersey_experiment_5_v0,2023.2.2,Win32,84.74576271,,,,,,,,,,,,,,,,427.2748,428.3217,428.3217,430.5805,return,0.0914,,69.53125,,,,,,FBP-PT-91.png,0.43,1.2,59,0.25,0,58,58,58,1,,,,,,,,,,,,,,,,,,,,,,,,,,,,,,,,,,,,,,,,
,,,,,SPR24_016,23,M,2024-04-08_15h24.32.365,jersey_experiment_5_v0,2023.2.2,Win32,84.74576271,,,,,,,,,,,,,,,,430.5809,431.6274,431.6275,435.0395,return,0.5271,,62.109375,,,,,,FBP-YG-81.png,0.4,1.2,23,0.25,0,59,59,22,1,,,,,,,,,,,,,,,,,,,,,,,,,,,,,,,,,,,,,,,,
,,,,,SPR24_016,23,M,2024-04-08_15h24.32.365,jersey_experiment_5_v0,2023.2.2,Win32,84.74576271,,,,,,,,,,,,,,,,,,,,,,,,,,,,,,,,,,,,,,,435.0398,555.0325,,,,,,,,,,,,,,,,,,,,,,,,,,,,,,,,,,,,,,
,,,,,SPR24_016,23,M,2024-04-08_15h24.32.365,jersey_experiment_5_v0,2023.2.2,Win32,84.74576271,,,,,,,,,,,,,,,,,,,,,,,,,,,,,,,,,,,,,,,,,555.0325,558.8559,return,3.8158,,,,,,,,,,,,,,,,,,,,,,,,,,,,,,,,,,
,,,,,SPR24_016,23,M,2024-04-08_15h24.32.365,jersey_experiment_5_v0,2023.2.2,Win32,84.74576271,,,,,,,,,,,,,,,,558.8626,559.9148,559.9148,564.0796,return,1.9165,,36.45833333,,,,,,FBP-OG-81.png,0.37,1.2,7,0.25,,,,,,,,,,,,,0,0,0,6,1,,,,,,,,,,,,,,,,,,,,,,,,,,,,
,,,,,SPR24_016,23,M,2024-04-08_15h24.32.365,jersey_experiment_5_v0,2023.2.2,Win32,84.74576271,,,,,,,,,,,,,,,,564.08,565.1268,565.1268,566.6798,return,0.0742,,60.546875,,,,,,FBP-OG-91.png,0.4,1.2,13,0.25,,,,,,,,,,,,,0,1,1,12,1,,,,,,,,,,,,,,,,,,,,,,,,,,,,
,,,,,SPR24_016,23,M,2024-04-08_15h24.32.365,jersey_experiment_5_v0,2023.2.2,Win32,84.74576271,,,,,,,,,,,,,,,,566.6801,567.9739,567.974,569.5975,return,0.4613,,63.02083333,,,,,,FBP-YG-17.png,0.4,1.2,18,0.5,,,,,,,,,,,,,0,2,2,17,1,,,,,,,,,,,,,,,,,,,,,,,,,,,,
,,,,,SPR24_016,23,M,2024-04-08_15h24.32.365,jersey_experiment_5_v0,2023.2.2,Win32,84.74576271,,,,,,,,,,,,,,,,569.5977,570.8916,570.8916,572.068,return,0.0209,,89.97395833,,,,,,FBP-PT-19.png,0.45,1.2,60,0.5,,,,,,,,,,,,,0,3,3,59,1,,,,,,,,,,,,,,,,,,,,,,,,,,,,
,,,,,SPR24_016,23,M,2024-04-08_15h24.32.365,jersey_experiment_5_v0,2023.2.2,Win32,84.74576271,,,,,,,,,,,,,,,,572.0682,573.1153,573.1153,575.7977,return,0.0547,,61.328125,,,,,,FBP-RB-17.png,0.4,1.2,33,0.25,,,,,,,,,,,,,0,4,4,32,1,,,,,,,,,,,,,,,,,,,,,,,,,,,,
,,,,,SPR24_016,23,M,2024-04-08_15h24.32.365,jersey_experiment_5_v0,2023.2.2,Win32,84.74576271,,,,,,,,,,,,,,,,575.798,576.8449,576.8449,579.3273,return,0.1179,,85.02604167,,,,,,FBP-OG-71.png,0.45,1.2,5,0.25,,,,,,,,,,,,,0,5,5,4,1,,,,,,,,,,,,,,,,,,,,,,,,,,,,
,,,,,SPR24_016,23,M,2024-04-08_15h24.32.365,jersey_experiment_5_v0,2023.2.2,Win32,84.74576271,,,,,,,,,,,,,,,,579.3274,580.6214,580.6214,581.5156,return,0.0017,,88.15104167,,,,,,FBP-PT-18.png,0.45,1.2,55,0.5,,,,,,,,,,,,,0,6,6,54,1,,,,,,,,,,,,,,,,,,,,,,,,,,,,
,,,,,SPR24_016,23,M,2024-04-08_15h24.32.365,jersey_experiment_5_v0,2023.2.2,Win32,84.74576271,,,,,,,,,,,,,,,,581.5157,582.8097,582.8097,585.657,return,0.0279,,78.64583333,,,,,,FBP-YG-18.png,0.43,1.2,24,0.5,,,,,,,,,,,,,0,7,7,23,1,,,,,,,,,,,,,,,,,,,,,,,,,,,,
,,,,,SPR24_016,23,M,2024-04-08_15h24.32.365,jersey_experiment_5_v0,2023.2.2,Win32,84.74576271,,,,,,,,,,,,,,,,585.6572,586.7039,586.704,587.9748,return,0.0187,,33.203125,,,,,,FBP-OG-81.png,0.35,1.2,6,0.25,,,,,,,,,,,,,0,8,8,5,1,,,,,,,,,,,,,,,,,,,,,,,,,,,,
,,,,,SPR24_016,23,M,2024-04-08_15h24.32.365,jersey_experiment_5_v0,2023.2.2,Win32,84.74576271,,,,,,,,,,,,,,,,587.9749,589.2689,589.2689,590.1512,return,0.0535,,15.75520833,,,,,,FBP-PT-18.png,0.35,1.2,51,0.5,,,,,,,,,,,,,0,9,9,50,1,,,,,,,,,,,,,,,,,,,,,,,,,,,,
,,,,,SPR24_016,23,M,2024-04-08_15h24.32.365,jersey_experiment_5_v0,2023.2.2,Win32,84.74576271,,,,,,,,,,,,,,,,590.1514,591.1983,591.1984,593.4338,return,0.0493,,64.0625,,,,,,FBP-OG-81.png,0.43,1.2,9,0.25,,,,,,,,,,,,,0,10,10,8,1,,,,,,,,,,,,,,,,,,,,,,,,,,,,
,,,,,SPR24_016,23,M,2024-04-08_15h24.32.365,jersey_experiment_5_v0,2023.2.2,Win32,84.74576271,,,,,,,,,,,,,,,,593.434,594.4806,594.4806,596.9398,return,1.5048,,56.11979167,,,,,,FBP-OG-71.png,0.4,1.2,3,0.25,,,,,,,,,,,,,0,11,11,2,1,,,,,,,,,,,,,,,,,,,,,,,,,,,,
,,,,,SPR24_016,23,M,2024-04-08_15h24.32.365,jersey_experiment_5_v0,2023.2.2,Win32,84.74576271,,,,,,,,,,,,,,,,596.9401,597.9869,597.9869,599.5752,return,0.3709,,70.18229167,,,,,,FBP-RB-18.png,0.4,1.2,38,0.25,,,,,,,,,,,,,0,12,12,37,1,,,,,,,,,,,,,,,,,,,,,,,,,,,,
,,,,,SPR24_016,23,M,2024-04-08_15h24.32.365,jersey_experiment_5_v0,2023.2.2,Win32,84.74576271,,,,,,,,,,,,,,,,599.5755,600.622,600.6221,601.1634,return,0.011,,71.09375,,,,,,FBP-RB-19.png,0.4,1.2,43,0.25,,,,,,,,,,,,,0,13,13,42,1,,,,,,,,,,,,,,,,,,,,,,,,,,,,
,,,,,SPR24_016,23,M,2024-04-08_15h24.32.365,jersey_experiment_5_v0,2023.2.2,Win32,84.74576271,,,,,,,,,,,,,,,,601.1637,602.2105,602.2106,603.6105,return,0.0262,,65.88541667,,,,,,FBP-OG-81.png,0.4,1.2,8,0.25,,,,,,,,,,,,,0,14,14,7,1,,,,,,,,,,,,,,,,,,,,,,,,,,,,
,,,,,SPR24_016,23,M,2024-04-08_15h24.32.365,jersey_experiment_5_v0,2023.2.2,Win32,84.74576271,,,,,,,,,,,,,,,,603.6106,604.6576,604.6576,605.693,return,0.0379,,86.06770833,,,,,,FBP-RB-18.png,0.45,1.2,40,0.25,,,,,,,,,,,,,0,15,15,39,1,,,,,,,,,,,,,,,,,,,,,,,,,,,,
,,,,,SPR24_016,23,M,2024-04-08_15h24.32.365,jersey_experiment_5_v0,2023.2.2,Win32,84.74576271,,,,,,,,,,,,,,,,605.6931,606.9872,606.9872,608.1167,return,0.0439,,37.36979167,,,,,,FBP-PT-17.png,0.35,1.2,46,0.5,,,,,,,,,,,,,0,16,16,45,1,,,,,,,,,,,,,,,,,,,,,,,,,,,,
,,,,,SPR24_016,23,M,2024-04-08_15h24.32.365,jersey_experiment_5_v0,2023.2.2,Win32,84.74576271,,,,,,,,,,,,,,,,608.117,609.1636,609.1637,610.6814,return,0.1562,,97.39583333,,,,,,FBP-RB-19.png,0.45,1.2,45,0.25,,,,,,,,,,,,,0,17,17,44,1,,,,,,,,,,,,,,,,,,,,,,,,,,,,
,,,,,SPR24_016,23,M,2024-04-08_15h24.32.365,jersey_experiment_5_v0,2023.2.2,Win32,84.74576271,,,,,,,,,,,,,,,,610.6816,611.7285,611.7286,612.9874,return,0.0384,,63.80208333,,,,,,FBP-RB-18.png,0.37,1.2,37,0.25,,,,,,,,,,,,,0,18,18,36,1,,,,,,,,,,,,,,,,,,,,,,,,,,,,
,,,,,SPR24_016,23,M,2024-04-08_15h24.32.365,jersey_experiment_5_v0,2023.2.2,Win32,84.74576271,,,,,,,,,,,,,,,,612.9876,614.2816,614.2816,616.4227,return,0.5452,,74.08854167,,,,,,FBP-YG-17.png,0.43,1.2,19,0.5,,,,,,,,,,,,,0,19,19,18,1,,,,,,,,,,,,,,,,,,,,,,,,,,,,
,,,,,SPR24_016,23,M,2024-04-08_15h24.32.365,jersey_experiment_5_v0,2023.2.2,Win32,84.74576271,,,,,,,,,,,,,,,,616.4229,617.717,617.717,619.023,return,0.3865,,67.1875,,,,,,FBP-PT-18.png,0.4,1.2,53,0.5,,,,,,,,,,,,,0,20,20,52,1,,,,,,,,,,,,,,,,,,,,,,,,,,,,
,,,,,SPR24_016,23,M,2024-04-08_15h24.32.365,jersey_experiment_5_v0,2023.2.2,Win32,84.74576271,,,,,,,,,,,,,,,,619.0233,620.3169,620.3169,621.1288,return,0.0166,,90.10416667,,,,,,FBP-YG-18.png,0.45,1.2,25,0.5,,,,,,,,,,,,,0,21,21,24,1,,,,,,,,,,,,,,,,,,,,,,,,,,,,
,,,,,SPR24_016,23,M,2024-04-08_15h24.32.365,jersey_experiment_5_v0,2023.2.2,Win32,84.74576271,,,,,,,,,,,,,,,,621.1291,622.1758,622.1759,624.4584,return,0.4829,,50.390625,,,,,,FBP-RB-19.png,0.37,1.2,42,0.25,,,,,,,,,,,,,0,22,22,41,1,,,,,,,,,,,,,,,,,,,,,,,,,,,,
,,,,,SPR24_016,23,M,2024-04-08_15h24.32.365,jersey_experiment_5_v0,2023.2.2,Win32,84.74576271,,,,,,,,,,,,,,,,624.4586,625.7525,625.7525,626.7999,return,0.047,,39.58333333,,,,,,FBP-PT-18.png,0.37,1.2,52,0.5,,,,,,,,,,,,,0,23,23,51,1,,,,,,,,,,,,,,,,,,,,,,,,,,,,
,,,,,SPR24_016,23,M,2024-04-08_15h24.32.365,jersey_experiment_5_v0,2023.2.2,Win32,84.74576271,,,,,,,,,,,,,,,,626.8001,627.8466,627.8467,628.6351,return,0.0005,,63.02083333,,,,,,FBP-RB-19.png,0.43,1.2,44,0.25,,,,,,,,,,,,,0,24,24,43,1,,,,,,,,,,,,,,,,,,,,,,,,,,,,
,,,,,SPR24_016,23,M,2024-04-08_15h24.32.365,jersey_experiment_5_v0,2023.2.2,Win32,84.74576271,,,,,,,,,,,,,,,,628.6353,629.9292,629.9292,632.8115,return,0.6463,,43.75,,,,,,FBP-YG-18.png,0.35,1.2,21,0.5,,,,,,,,,,,,,0,25,25,20,1,,,,,,,,,,,,,,,,,,,,,,,,,,,,
,,,,,SPR24_016,23,M,2024-04-08_15h24.32.365,jersey_experiment_5_v0,2023.2.2,Win32,84.74576271,,,,,,,,,,,,,,,,632.8118,633.8588,633.8589,634.8705,return,0.0422,,35.9375,,,,,,FBP-OG-71.png,0.37,1.2,2,0.25,,,,,,,,,,,,,0,26,26,1,1,,,,,,,,,,,,,,,,,,,,,,,,,,,,
,,,,,SPR24_016,23,M,2024-04-08_15h24.32.365,jersey_experiment_5_v0,2023.2.2,Win32,84.74576271,,,,,,,,,,,,,,,,634.8708,635.9176,635.9176,637.5767,return,0.0635,,24.86979167,,,,,,FBP-RB-19.png,0.35,1.2,41,0.25,,,,,,,,,,,,,0,27,27,40,1,,,,,,,,,,,,,,,,,,,,,,,,,,,,
,,,,,SPR24_016,23,M,2024-04-08_15h24.32.365,jersey_experiment_5_v0,2023.2.2,Win32,84.74576271,,,,,,,,,,,,,,,,637.5769,638.6235,638.6236,639.8355,return,0.038,,18.48958333,,,,,,FBP-OG-71.png,0.35,1.2,1,0.25,,,,,,,,,,,,,0,28,28,0,1,,,,,,,,,,,,,,,,,,,,,,,,,,,,
,,,,,SPR24_016,23,M,2024-04-08_15h24.32.365,jersey_experiment_5_v0,2023.2.2,Win32,84.74576271,,,,,,,,,,,,,,,,639.8356,641.1297,641.1297,643.0003,return,0.0287,,51.43229167,,,,,,FBP-YG-18.png,0.4,1.2,23,0.5,,,,,,,,,,,,,0,29,29,22,1,,,,,,,,,,,,,,,,,,,,,,,,,,,,
,,,,,SPR24_016,23,M,2024-04-08_15h24.32.365,jersey_experiment_5_v0,2023.2.2,Win32,84.74576271,,,,,,,,,,,,,,,,643.0004,644.2944,644.2944,645.4709,return,0.0094,,73.4375,,,,,,FBP-PT-17.png,0.45,1.2,50,0.5,,,,,,,,,,,,,0,30,30,49,1,,,,,,,,,,,,,,,,,,,,,,,,,,,,
,,,,,SPR24_016,23,M,2024-04-08_15h24.32.365,jersey_experiment_5_v0,2023.2.2,Win32,84.74576271,,,,,,,,,,,,,,,,645.4711,646.7651,646.7651,647.7532,return,0.0515,,61.58854167,,,,,,FBP-YG-18.png,0.37,1.2,22,0.5,,,,,,,,,,,,,0,31,31,21,1,,,,,,,,,,,,,,,,,,,,,,,,,,,,
,,,,,SPR24_016,23,M,2024-04-08_15h24.32.365,jersey_experiment_5_v0,2023.2.2,Win32,84.74576271,,,,,,,,,,,,,,,,647.7534,649.0475,649.0475,649.93,return,0.0486,,50,,,,,,FBP-YG-17.png,0.35,1.2,16,0.5,,,,,,,,,,,,,0,32,32,15,1,,,,,,,,,,,,,,,,,,,,,,,,,,,,
,,,,,SPR24_016,23,M,2024-04-08_15h24.32.365,jersey_experiment_5_v0,2023.2.2,Win32,84.74576271,,,,,,,,,,,,,,,,649.9303,651.2242,651.2242,652.1417,return,0.0703,,80.59895833,,,,,,FBP-YG-19.png,0.45,1.2,30,0.5,,,,,,,,,,,,,0,33,33,29,1,,,,,,,,,,,,,,,,,,,,,,,,,,,,
,,,,,SPR24_016,23,M,2024-04-08_15h24.32.365,jersey_experiment_5_v0,2023.2.2,Win32,84.74576271,,,,,,,,,,,,,,,,652.1419,653.1887,653.1888,654.6359,return,0.0614,,90.625,,,,,,FBP-OG-81.png,0.45,1.2,10,0.25,,,,,,,,,,,,,0,34,34,9,1,,,,,,,,,,,,,,,,,,,,,,,,,,,,
,,,,,SPR24_016,23,M,2024-04-08_15h24.32.365,jersey_experiment_5_v0,2023.2.2,Win32,84.74576271,,,,,,,,,,,,,,,,654.6361,655.683,655.683,657.6597,return,0.0109,,51.30208333,,,,,,FBP-OG-91.png,0.37,1.2,12,0.25,,,,,,,,,,,,,0,35,35,11,1,,,,,,,,,,,,,,,,,,,,,,,,,,,,
,,,,,SPR24_016,23,M,2024-04-08_15h24.32.365,jersey_experiment_5_v0,2023.2.2,Win32,84.74576271,,,,,,,,,,,,,,,,657.6599,658.9537,658.9538,662.2128,return,0.0542,,49.86979167,,,,,,FBP-PT-19.png,0.4,1.2,58,0.5,,,,,,,,,,,,,0,36,36,57,1,,,,,,,,,,,,,,,,,,,,,,,,,,,,
,,,,,SPR24_016,23,M,2024-04-08_15h24.32.365,jersey_experiment_5_v0,2023.2.2,Win32,84.74576271,,,,,,,,,,,,,,,,662.213,663.5069,663.507,664.507,return,0.0114,,37.5,,,,,,FBP-YG-19.png,0.37,1.2,27,0.5,,,,,,,,,,,,,0,37,37,26,1,,,,,,,,,,,,,,,,,,,,,,,,,,,,
,,,,,SPR24_016,23,M,2024-04-08_15h24.32.365,jersey_experiment_5_v0,2023.2.2,Win32,84.74576271,,,,,,,,,,,,,,,,664.5073,665.8012,665.8012,667.2954,return,0.0004,,50.26041667,,,,,,FBP-YG-19.png,0.4,1.2,28,0.5,,,,,,,,,,,,,0,38,38,27,1,,,,,,,,,,,,,,,,,,,,,,,,,,,,
,,,,,SPR24_016,23,M,2024-04-08_15h24.32.365,jersey_experiment_5_v0,2023.2.2,Win32,84.74576271,,,,,,,,,,,,,,,,667.2955,668.5895,668.5895,670.166,return,0.5226,,61.328125,,,,,,FBP-YG-19.png,0.43,1.2,29,0.5,,,,,,,,,,,,,0,39,39,28,1,,,,,,,,,,,,,,,,,,,,,,,,,,,,
,,,,,SPR24_016,23,M,2024-04-08_15h24.32.365,jersey_experiment_5_v0,2023.2.2,Win32,84.74576271,,,,,,,,,,,,,,,,670.1661,671.4601,671.4602,673.0957,return,0.0527,,74.34895833,,,,,,FBP-PT-17.png,0.43,1.2,49,0.5,,,,,,,,,,,,,0,40,40,48,1,,,,,,,,,,,,,,,,,,,,,,,,,,,,
,,,,,SPR24_016,23,M,2024-04-08_15h24.32.365,jersey_experiment_5_v0,2023.2.2,Win32,84.74576271,,,,,,,,,,,,,,,,673.0959,674.3896,674.3896,675.6603,return,0.0008,,74.609375,,,,,,FBP-PT-17.png,0.4,1.2,48,0.5,,,,,,,,,,,,,0,41,41,47,1,,,,,,,,,,,,,,,,,,,,,,,,,,,,
,,,,,SPR24_016,23,M,2024-04-08_15h24.32.365,jersey_experiment_5_v0,2023.2.2,Win32,84.74576271,,,,,,,,,,,,,,,,675.6604,676.9545,676.9545,677.7898,return,0.0143,,87.76041667,,,,,,FBP-YG-17.png,0.45,1.2,20,0.5,,,,,,,,,,,,,0,42,42,19,1,,,,,,,,,,,,,,,,,,,,,,,,,,,,
,,,,,SPR24_016,23,M,2024-04-08_15h24.32.365,jersey_experiment_5_v0,2023.2.2,Win32,84.74576271,,,,,,,,,,,,,,,,677.7901,678.8368,678.8368,679.884,return,0.0375,,87.36979167,,,,,,FBP-RB-18.png,0.43,1.2,39,0.25,,,,,,,,,,,,,0,43,43,38,1,,,,,,,,,,,,,,,,,,,,,,,,,,,,
,,,,,SPR24_016,23,M,2024-04-08_15h24.32.365,jersey_experiment_5_v0,2023.2.2,Win32,84.74576271,,,,,,,,,,,,,,,,679.8842,680.931,680.931,682.9194,return,0.0742,,99.34895833,,,,,,FBP-RB-17.png,0.45,1.2,35,0.25,,,,,,,,,,,,,0,44,44,34,1,,,,,,,,,,,,,,,,,,,,,,,,,,,,
,,,,,SPR24_016,23,M,2024-04-08_15h24.32.365,jersey_experiment_5_v0,2023.2.2,Win32,84.74576271,,,,,,,,,,,,,,,,682.9196,683.9666,683.9666,686.0136,return,0.08,,99.34895833,,,,,,FBP-OG-91.png,0.45,1.2,15,0.25,,,,,,,,,,,,,0,45,45,14,1,,,,,,,,,,,,,,,,,,,,,,,,,,,,
,,,,,SPR24_016,23,M,2024-04-08_15h24.32.365,jersey_experiment_5_v0,2023.2.2,Win32,84.74576271,,,,,,,,,,,,,,,,686.0138,687.0607,687.0607,689.5784,return,0.0857,,73.69791667,,,,,,FBP-RB-17.png,0.43,1.2,34,0.25,,,,,,,,,,,,,0,46,46,33,1,,,,,,,,,,,,,,,,,,,,,,,,,,,,
,,,,,SPR24_016,23,M,2024-04-08_15h24.32.365,jersey_experiment_5_v0,2023.2.2,Win32,84.74576271,,,,,,,,,,,,,,,,689.5786,690.8726,690.8727,692.2846,return,0.038,,26.953125,,,,,,FBP-PT-17.png,0.37,1.2,47,0.5,,,,,,,,,,,,,0,47,47,46,1,,,,,,,,,,,,,,,,,,,,,,,,,,,,
,,,,,SPR24_016,23,M,2024-04-08_15h24.32.365,jersey_experiment_5_v0,2023.2.2,Win32,84.74576271,,,,,,,,,,,,,,,,692.2848,693.3315,693.3316,694.3316,return,0.0144,,11.19791667,,,,,,FBP-RB-17.png,0.35,1.2,31,0.25,,,,,,,,,,,,,0,48,48,30,1,,,,,,,,,,,,,,,,,,,,,,,,,,,,
,,,,,SPR24_016,23,M,2024-04-08_15h24.32.365,jersey_experiment_5_v0,2023.2.2,Win32,84.74576271,,,,,,,,,,,,,,,,694.3318,695.6258,695.6258,697.3434,return,0.6733,,24.08854167,,,,,,FBP-YG-17.png,0.37,1.2,17,0.5,,,,,,,,,,,,,0,49,49,16,1,,,,,,,,,,,,,,,,,,,,,,,,,,,,
,,,,,SPR24_016,23,M,2024-04-08_15h24.32.365,jersey_experiment_5_v0,2023.2.2,Win32,84.74576271,,,,,,,,,,,,,,,,697.3437,698.3905,698.3906,699.767,return,0.0184,,1.041666667,,,,,,FBP-OG-91.png,0.35,1.2,11,0.25,,,,,,,,,,,,,0,50,50,10,1,,,,,,,,,,,,,,,,,,,,,,,,,,,,
,,,,,SPR24_016,23,M,2024-04-08_15h24.32.365,jersey_experiment_5_v0,2023.2.2,Win32,84.74576271,,,,,,,,,,,,,,,,699.7673,700.8142,700.8142,702.0613,return,0.0235,,6.119791667,,,,,,FBP-RB-17.png,0.37,1.2,32,0.25,,,,,,,,,,,,,0,51,51,31,1,,,,,,,,,,,,,,,,,,,,,,,,,,,,
,,,,,SPR24_016,23,M,2024-04-08_15h24.32.365,jersey_experiment_5_v0,2023.2.2,Win32,84.74576271,,,,,,,,,,,,,,,,702.0615,703.3554,703.3554,705.6144,return,0.0947,,48.95833333,,,,,,FBP-PT-19.png,0.43,1.2,59,0.5,,,,,,,,,,,,,0,52,52,58,1,,,,,,,,,,,,,,,,,,,,,,,,,,,,
,,,,,SPR24_016,23,M,2024-04-08_15h24.32.365,jersey_experiment_5_v0,2023.2.2,Win32,84.74576271,,,,,,,,,,,,,,,,705.6146,706.6615,706.6615,707.8616,return,0.1944,,25.26041667,,,,,,FBP-RB-18.png,0.35,1.2,36,0.25,,,,,,,,,,,,,0,53,53,35,1,,,,,,,,,,,,,,,,,,,,,,,,,,,,
,,,,,SPR24_016,23,M,2024-04-08_15h24.32.365,jersey_experiment_5_v0,2023.2.2,Win32,84.74576271,,,,,,,,,,,,,,,,707.8618,708.9085,708.9086,710.3677,return,0.0474,,49.47916667,,,,,,FBP-OG-91.png,0.43,1.2,14,0.25,,,,,,,,,,,,,0,54,54,13,1,,,,,,,,,,,,,,,,,,,,,,,,,,,,
,,,,,SPR24_016,23,M,2024-04-08_15h24.32.365,jersey_experiment_5_v0,2023.2.2,Win32,84.74576271,,,,,,,,,,,,,,,,710.3677,711.4146,711.4146,713.6146,return,0.0336,,51.69270833,,,,,,FBP-OG-71.png,0.43,1.2,4,0.25,,,,,,,,,,,,,0,55,55,3,1,,,,,,,,,,,,,,,,,,,,,,,,,,,,
,,,,,SPR24_016,23,M,2024-04-08_15h24.32.365,jersey_experiment_5_v0,2023.2.2,Win32,84.74576271,,,,,,,,,,,,,,,,713.6148,714.9088,714.9088,715.9794,return,0.0617,,43.09895833,,,,,,FBP-PT-19.png,0.37,1.2,57,0.5,,,,,,,,,,,,,0,56,56,56,1,,,,,,,,,,,,,,,,,,,,,,,,,,,,
,,,,,SPR24_016,23,M,2024-04-08_15h24.32.365,jersey_experiment_5_v0,2023.2.2,Win32,84.74576271,,,,,,,,,,,,,,,,715.9797,717.2737,717.2737,718.6034,return,0.0821,,24.21875,,,,,,FBP-YG-19.png,0.35,1.2,26,0.5,,,,,,,,,,,,,0,57,57,25,1,,,,,,,,,,,,,,,,,,,,,,,,,,,,
,,,,,SPR24_016,23,M,2024-04-08_15h24.32.365,jersey_experiment_5_v0,2023.2.2,Win32,84.74576271,,,,,,,,,,,,,,,,718.6036,719.8972,719.8973,721.3562,return,0.0105,,48.95833333,,,,,,FBP-PT-18.png,0.43,1.2,54,0.5,,,,,,,,,,,,,0,58,58,53,1,,,,,,,,,,,,,,,,,,,,,,,,,,,,
,,,,,SPR24_016,23,M,2024-04-08_15h24.32.365,jersey_experiment_5_v0,2023.2.2,Win32,84.74576271,,,,,,,,,,,,,,,,721.3564,722.6502,722.6502,723.9445,return,0.0049,,17.96875,,,,,,FBP-PT-19.png,0.35,1.2,56,0.5,,,,,,,,,,,,,0,59,59,55,1,,,,,,,,,,,,,,,,,,,,,,,,,,,,
,,,,,SPR24_016,23,M,2024-04-08_15h24.32.365,jersey_experiment_5_v0,2023.2.2,Win32,84.74576271,,,,,,,,,,,,,,,,723.946,725.2386,725.2386,726.0388,return,0.0165,,16.92708333,,,,,,FBP-PT-81.png,0.35,1.2,51,0.5,,,,,,,,,,,,,,,,,,0,0,0,50,1,,,,,,,,,,,,,,,,,,,,,,,
,,,,,SPR24_016,23,M,2024-04-08_15h24.32.365,jersey_experiment_5_v0,2023.2.2,Win32,84.74576271,,,,,,,,,,,,,,,,726.0391,727.0857,727.0858,728.8859,return,0.0175,,99.609375,,,,,,FBP-RB-91.png,0.45,1.2,45,0.25,,,,,,,,,,,,,,,,,,0,1,1,44,1,,,,,,,,,,,,,,,,,,,,,,,
,,,,,SPR24_016,23,M,2024-04-08_15h24.32.365,jersey_experiment_5_v0,2023.2.2,Win32,84.74576271,,,,,,,,,,,,,,,,728.8861,729.9329,729.933,731.6625,return,0.386,,75.78125,,,,,,FBP-OG-18.png,0.43,1.2,9,0.25,,,,,,,,,,,,,,,,,,0,2,2,8,1,,,,,,,,,,,,,,,,,,,,,,,
,,,,,SPR24_016,23,M,2024-04-08_15h24.32.365,jersey_experiment_5_v0,2023.2.2,Win32,84.74576271,,,,,,,,,,,,,,,,731.6626,732.7094,732.7095,735.239,return,0.769,,64.32291667,,,,,,FBP-OG-17.png,0.37,1.2,2,0.25,,,,,,,,,,,,,,,,,,0,3,3,1,1,,,,,,,,,,,,,,,,,,,,,,,
,,,,,SPR24_016,23,M,2024-04-08_15h24.32.365,jersey_experiment_5_v0,2023.2.2,Win32,84.74576271,,,,,,,,,,,,,,,,735.2391,736.533,736.5331,738.2862,return,0.3212,,70.3125,,,,,,FBP-YG-71.png,0.37,1.2,17,0.5,,,,,,,,,,,,,,,,,,0,4,4,16,1,,,,,,,,,,,,,,,,,,,,,,,
,,,,,SPR24_016,23,M,2024-04-08_15h24.32.365,jersey_experiment_5_v0,2023.2.2,Win32,84.74576271,,,,,,,,,,,,,,,,738.2864,739.5804,739.5804,740.7334,return,0.0616,,90.88541667,,,,,,FBP-YG-81.png,0.43,1.2,24,0.5,,,,,,,,,,,,,,,,,,0,5,5,23,1,,,,,,,,,,,,,,,,,,,,,,,
,,,,,SPR24_016,23,M,2024-04-08_15h24.32.365,jersey_experiment_5_v0,2023.2.2,Win32,84.74576271,,,,,,,,,,,,,,,,740.7337,742.0274,742.0275,743.9334,return,0.0614,,44.53125,,,,,,FBP-PT-91.png,0.35,1.2,56,0.5,,,,,,,,,,,,,,,,,,0,6,6,55,1,,,,,,,,,,,,,,,,,,,,,,,
,,,,,SPR24_016,23,M,2024-04-08_15h24.32.365,jersey_experiment_5_v0,2023.2.2,Win32,84.74576271,,,,,,,,,,,,,,,,743.9337,744.9805,744.9805,745.9923,return,0.0143,,74.08854167,,,,,,FBP-OG-19.png,0.45,1.2,15,0.25,,,,,,,,,,,,,,,,,,0,7,7,14,1,,,,,,,,,,,,,,,,,,,,,,,
,,,,,SPR24_016,23,M,2024-04-08_15h24.32.365,jersey_experiment_5_v0,2023.2.2,Win32,84.74576271,,,,,,,,,,,,,,,,745.9925,747.2865,747.2865,748.3101,return,0.0662,,61.84895833,,,,,,FBP-PT-71.png,0.4,1.2,48,0.5,,,,,,,,,,,,,,,,,,0,8,8,47,1,,,,,,,,,,,,,,,,,,,,,,,
,,,,,SPR24_016,23,M,2024-04-08_15h24.32.365,jersey_experiment_5_v0,2023.2.2,Win32,84.74576271,,,,,,,,,,,,,,,,748.3102,749.6043,749.6044,751.2044,return,0.8062,,88.93229167,,,,,,FBP-YG-81.png,0.45,1.2,25,0.5,,,,,,,,,,,,,,,,,,0,9,9,24,1,,,,,,,,,,,,,,,,,,,,,,,
,,,,,SPR24_016,23,M,2024-04-08_15h24.32.365,jersey_experiment_5_v0,2023.2.2,Win32,84.74576271,,,,,,,,,,,,,,,,751.2046,752.2514,752.2514,754.0398,return,0.0152,,92.578125,,,,,,FBP-RB-71.png,0.45,1.2,35,0.25,,,,,,,,,,,,,,,,,,0,10,10,34,1,,,,,,,,,,,,,,,,,,,,,,,
,,,,,SPR24_016,23,M,2024-04-08_15h24.32.365,jersey_experiment_5_v0,2023.2.2,Win32,84.74576271,,,,,,,,,,,,,,,,754.0399,755.3339,755.334,756.4633,return,0.0096,,32.55208333,,,,,,FBP-YG-91.png,0.35,1.2,26,0.5,,,,,,,,,,,,,,,,,,0,11,11,25,1,,,,,,,,,,,,,,,,,,,,,,,
,,,,,SPR24_016,23,M,2024-04-08_15h24.32.365,jersey_experiment_5_v0,2023.2.2,Win32,84.74576271,,,,,,,,,,,,,,,,756.4634,757.7575,757.7575,759.4987,return,0.6239,,63.80208333,,,,,,FBP-YG-91.png,0.43,1.2,29,0.5,,,,,,,,,,,,,,,,,,0,12,12,28,1,,,,,,,,,,,,,,,,,,,,,,,
,,,,,SPR24_016,23,M,2024-04-08_15h24.32.365,jersey_experiment_5_v0,2023.2.2,Win32,84.74576271,,,,,,,,,,,,,,,,759.4989,760.7928,760.7929,762.0871,return,0.0396,,40.36458333,,,,,,FBP-YG-91.png,0.37,1.2,27,0.5,,,,,,,,,,,,,,,,,,0,13,13,26,1,,,,,,,,,,,,,,,,,,,,,,,
,,,,,SPR24_016,23,M,2024-04-08_15h24.32.365,jersey_experiment_5_v0,2023.2.2,Win32,84.74576271,,,,,,,,,,,,,,,,762.0874,763.1344,763.1345,764.5227,return,0.0147,,66.015625,,,,,,FBP-OG-19.png,0.43,1.2,14,0.25,,,,,,,,,,,,,,,,,,0,14,14,13,1,,,,,,,,,,,,,,,,,,,,,,,
,,,,,SPR24_016,23,M,2024-04-08_15h24.32.365,jersey_experiment_5_v0,2023.2.2,Win32,84.74576271,,,,,,,,,,,,,,,,764.5229,765.8168,765.8169,766.6049,return,0.01,,84.50520833,,,,,,FBP-PT-91.png,0.45,1.2,60,0.5,,,,,,,,,,,,,,,,,,0,15,15,59,1,,,,,,,,,,,,,,,,,,,,,,,
,,,,,SPR24_016,23,M,2024-04-08_15h24.32.365,jersey_experiment_5_v0,2023.2.2,Win32,84.74576271,,,,,,,,,,,,,,,,766.6051,767.8991,767.8991,769.2401,return,0.0288,,33.85416667,,,,,,FBP-PT-71.png,0.35,1.2,46,0.5,,,,,,,,,,,,,,,,,,0,16,16,45,1,,,,,,,,,,,,,,,,,,,,,,,
,,,,,SPR24_016,23,M,2024-04-08_15h24.32.365,jersey_experiment_5_v0,2023.2.2,Win32,84.74576271,,,,,,,,,,,,,,,,769.2404,770.2873,770.2873,771.3699,return,0.0014,,37.36979167,,,,,,FBP-RB-81.png,0.37,1.2,37,0.25,,,,,,,,,,,,,,,,,,0,17,17,36,1,,,,,,,,,,,,,,,,,,,,,,,
,,,,,SPR24_016,23,M,2024-04-08_15h24.32.365,jersey_experiment_5_v0,2023.2.2,Win32,84.74576271,,,,,,,,,,,,,,,,771.37,772.4168,772.4169,775.3112,return,0.4469,,64.71354167,,,,,,FBP-OG-17.png,0.43,1.2,4,0.25,,,,,,,,,,,,,,,,,,0,18,18,3,1,,,,,,,,,,,,,,,,,,,,,,,
,,,,,SPR24_016,23,M,2024-04-08_15h24.32.365,jersey_experiment_5_v0,2023.2.2,Win32,84.74576271,,,,,,,,,,,,,,,,775.3114,776.6051,776.6052,778.076,return,0.0137,,73.95833333,,,,,,FBP-YG-81.png,0.4,1.2,23,0.5,,,,,,,,,,,,,,,,,,0,19,19,22,1,,,,,,,,,,,,,,,,,,,,,,,
,,,,,SPR24_016,23,M,2024-04-08_15h24.32.365,jersey_experiment_5_v0,2023.2.2,Win32,84.74576271,,,,,,,,,,,,,,,,778.0761,779.1229,779.123,782.4524,return,0.0303,,25.91145833,,,,,,FBP-RB-91.png,0.35,1.2,41,0.25,,,,,,,,,,,,,,,,,,0,20,20,40,1,,,,,,,,,,,,,,,,,,,,,,,
,,,,,SPR24_016,23,M,2024-04-08_15h24.32.365,jersey_experiment_5_v0,2023.2.2,Win32,84.74576271,,,,,,,,,,,,,,,,782.4526,783.7467,783.7467,785.7704,return,0.1326,,75,,,,,,FBP-PT-81.png,0.45,1.2,55,0.5,,,,,,,,,,,,,,,,,,0,21,21,54,1,,,,,,,,,,,,,,,,,,,,,,,
,,,,,SPR24_016,23,M,2024-04-08_15h24.32.365,jersey_experiment_5_v0,2023.2.2,Win32,84.74576271,,,,,,,,,,,,,,,,785.7706,787.0645,787.0646,789.5353,return,0.062,,39.84375,,,,,,FBP-YG-71.png,0.35,1.2,16,0.5,,,,,,,,,,,,,,,,,,0,22,22,15,1,,,,,,,,,,,,,,,,,,,,,,,
,,,,,SPR24_016,23,M,2024-04-08_15h24.32.365,jersey_experiment_5_v0,2023.2.2,Win32,84.74576271,,,,,,,,,,,,,,,,789.5355,790.5823,790.5823,791.9824,return,0.0623,,74.34895833,,,,,,FBP-OG-18.png,0.45,1.2,10,0.25,,,,,,,,,,,,,,,,,,0,23,23,9,1,,,,,,,,,,,,,,,,,,,,,,,
,,,,,SPR24_016,23,M,2024-04-08_15h24.32.365,jersey_experiment_5_v0,2023.2.2,Win32,84.74576271,,,,,,,,,,,,,,,,791.9825,793.2766,793.2767,794.3589,return,0.0182,,62.5,,,,,,FBP-PT-81.png,0.4,1.2,53,0.5,,,,,,,,,,,,,,,,,,0,24,24,52,1,,,,,,,,,,,,,,,,,,,,,,,
,,,,,SPR24_016,23,M,2024-04-08_15h24.32.365,jersey_experiment_5_v0,2023.2.2,Win32,84.74576271,,,,,,,,,,,,,,,,794.3591,795.6531,795.6531,797.1828,return,0.062,,37.5,,,,,,FBP-YG-81.png,0.35,1.2,21,0.5,,,,,,,,,,,,,,,,,,0,25,25,20,1,,,,,,,,,,,,,,,,,,,,,,,
,,,,,SPR24_016,23,M,2024-04-08_15h24.32.365,jersey_experiment_5_v0,2023.2.2,Win32,84.74576271,,,,,,,,,,,,,,,,797.183,798.4767,798.4767,799.2297,return,0.0241,,49.86979167,,,,,,FBP-YG-91.png,0.4,1.2,28,0.5,,,,,,,,,,,,,,,,,,0,26,26,27,1,,,,,,,,,,,,,,,,,,,,,,,
,,,,,SPR24_016,23,M,2024-04-08_15h24.32.365,jersey_experiment_5_v0,2023.2.2,Win32,84.74576271,,,,,,,,,,,,,,,,799.23,800.2767,800.2767,801.6298,return,0.0612,,40.10416667,,,,,,FBP-RB-91.png,0.37,1.2,42,0.25,,,,,,,,,,,,,,,,,,0,27,27,41,1,,,,,,,,,,,,,,,,,,,,,,,
,,,,,SPR24_016,23,M,2024-04-08_15h24.32.365,jersey_experiment_5_v0,2023.2.2,Win32,84.74576271,,,,,,,,,,,,,,,,801.63,802.9241,802.9242,804.1357,return,0.0859,,64.84375,,,,,,FBP-PT-71.png,0.43,1.2,49,0.5,,,,,,,,,,,,,,,,,,0,28,28,48,1,,,,,,,,,,,,,,,,,,,,,,,
,,,,,SPR24_016,23,M,2024-04-08_15h24.32.365,jersey_experiment_5_v0,2023.2.2,Win32,84.74576271,,,,,,,,,,,,,,,,804.1359,805.1828,805.1828,807.0064,return,0.047,,41.015625,,,,,,FBP-OG-17.png,0.35,1.2,1,0.25,,,,,,,,,,,,,,,,,,0,29,29,0,1,,,,,,,,,,,,,,,,,,,,,,,
,,,,,SPR24_016,23,M,2024-04-08_15h24.32.365,jersey_experiment_5_v0,2023.2.2,Win32,84.74576271,,,,,,,,,,,,,,,,807.0067,808.3005,808.3005,809.23,return,0.0004,,49.21875,,,,,,FBP-YG-71.png,0.4,1.2,18,0.5,,,,,,,,,,,,,,,,,,0,30,30,17,1,,,,,,,,,,,,,,,,,,,,,,,
,,,,,SPR24_016,23,M,2024-04-08_15h24.32.365,jersey_experiment_5_v0,2023.2.2,Win32,84.74576271,,,,,,,,,,,,,,,,809.2304,810.5241,810.5242,811.2889,return,0.3811,,49.21875,,,,,,FBP-PT-71.png,0.37,1.2,47,0.5,,,,,,,,,,,,,,,,,,0,31,31,46,1,,,,,,,,,,,,,,,,,,,,,,,
,,,,,SPR24_016,23,M,2024-04-08_15h24.32.365,jersey_experiment_5_v0,2023.2.2,Win32,84.74576271,,,,,,,,,,,,,,,,811.2891,812.5831,812.5831,813.1597,return,0.027,,43.88020833,,,,,,FBP-PT-81.png,0.37,1.2,52,0.5,,,,,,,,,,,,,,,,,,0,32,32,51,1,,,,,,,,,,,,,,,,,,,,,,,
,,,,,SPR24_016,23,M,2024-04-08_15h24.32.365,jersey_experiment_5_v0,2023.2.2,Win32,84.74576271,,,,,,,,,,,,,,,,813.1599,814.4537,814.4537,815.4655,return,0.0486,,40.625,,,,,,FBP-YG-81.png,0.37,1.2,22,0.5,,,,,,,,,,,,,,,,,,0,33,33,21,1,,,,,,,,,,,,,,,,,,,,,,,
,,,,,SPR24_016,23,M,2024-04-08_15h24.32.365,jersey_experiment_5_v0,2023.2.2,Win32,84.74576271,,,,,,,,,,,,,,,,815.4657,816.5126,816.5126,817.8186,return,0.3065,,60.9375,,,,,,FBP-OG-17.png,0.45,1.2,5,0.25,,,,,,,,,,,,,,,,,,0,34,34,4,1,,,,,,,,,,,,,,,,,,,,,,,
,,,,,SPR24_016,23,M,2024-04-08_15h24.32.365,jersey_experiment_5_v0,2023.2.2,Win32,84.74576271,,,,,,,,,,,,,,,,817.8188,819.1129,819.1129,820.3011,return,0.0239,,81.38020833,,,,,,FBP-YG-91.png,0.45,1.2,30,0.5,,,,,,,,,,,,,,,,,,0,35,35,29,1,,,,,,,,,,,,,,,,,,,,,,,
,,,,,SPR24_016,23,M,2024-04-08_15h24.32.365,jersey_experiment_5_v0,2023.2.2,Win32,84.74576271,,,,,,,,,,,,,,,,820.3013,821.3482,821.3482,822.7012,return,0.0238,,51.82291667,,,,,,FBP-OG-18.png,0.37,1.2,7,0.25,,,,,,,,,,,,,,,,,,0,36,36,6,1,,,,,,,,,,,,,,,,,,,,,,,
,,,,,SPR24_016,23,M,2024-04-08_15h24.32.365,jersey_experiment_5_v0,2023.2.2,Win32,84.74576271,,,,,,,,,,,,,,,,822.7014,823.9952,823.9953,825.0541,return,0.0565,,88.80208333,,,,,,FBP-YG-71.png,0.45,1.2,20,0.5,,,,,,,,,,,,,,,,,,0,37,37,19,1,,,,,,,,,,,,,,,,,,,,,,,
,,,,,SPR24_016,23,M,2024-04-08_15h24.32.365,jersey_experiment_5_v0,2023.2.2,Win32,84.74576271,,,,,,,,,,,,,,,,825.0543,826.1012,826.1013,828.6308,return,0.0404,,75.78125,,,,,,FBP-OG-19.png,0.4,1.2,13,0.25,,,,,,,,,,,,,,,,,,0,38,38,12,1,,,,,,,,,,,,,,,,,,,,,,,
,,,,,SPR24_016,23,M,2024-04-08_15h24.32.365,jersey_experiment_5_v0,2023.2.2,Win32,84.74576271,,,,,,,,,,,,,,,,828.631,829.6779,829.6779,830.6309,return,0.0156,,76.04166667,,,,,,FBP-RB-71.png,0.43,1.2,34,0.25,,,,,,,,,,,,,,,,,,0,39,39,33,1,,,,,,,,,,,,,,,,,,,,,,,
,,,,,SPR24_016,23,M,2024-04-08_15h24.32.365,jersey_experiment_5_v0,2023.2.2,Win32,84.74576271,,,,,,,,,,,,,,,,830.6311,831.9249,831.925,832.6664,return,0.0621,,79.55729167,,,,,,FBP-PT-91.png,0.43,1.2,59,0.5,,,,,,,,,,,,,,,,,,0,40,40,58,1,,,,,,,,,,,,,,,,,,,,,,,
,,,,,SPR24_016,23,M,2024-04-08_15h24.32.365,jersey_experiment_5_v0,2023.2.2,Win32,84.74576271,,,,,,,,,,,,,,,,832.6667,833.7132,833.7132,834.784,return,0.1556,,82.55208333,,,,,,FBP-RB-81.png,0.45,1.2,40,0.25,,,,,,,,,,,,,,,,,,0,41,41,39,1,,,,,,,,,,,,,,,,,,,,,,,
,,,,,SPR24_016,23,M,2024-04-08_15h24.32.365,jersey_experiment_5_v0,2023.2.2,Win32,84.74576271,,,,,,,,,,,,,,,,834.7842,835.831,835.831,836.7959,return,0.0251,,74.73958333,,,,,,FBP-RB-71.png,0.37,1.2,32,0.25,,,,,,,,,,,,,,,,,,0,42,42,31,1,,,,,,,,,,,,,,,,,,,,,,,
,,,,,SPR24_016,23,M,2024-04-08_15h24.32.365,jersey_experiment_5_v0,2023.2.2,Win32,84.74576271,,,,,,,,,,,,,,,,836.796,838.0899,838.0899,839.9136,return,0.0723,,77.86458333,,,,,,FBP-YG-71.png,0.43,1.2,19,0.5,,,,,,,,,,,,,,,,,,0,43,43,18,1,,,,,,,,,,,,,,,,,,,,,,,
,,,,,SPR24_016,23,M,2024-04-08_15h24.32.365,jersey_experiment_5_v0,2023.2.2,Win32,84.74576271,,,,,,,,,,,,,,,,839.9138,840.9606,840.9607,842.9842,return,0.0521,,79.296875,,,,,,FBP-RB-91.png,0.43,1.2,44,0.25,,,,,,,,,,,,,,,,,,0,44,44,43,1,,,,,,,,,,,,,,,,,,,,,,,
,,,,,SPR24_016,23,M,2024-04-08_15h24.32.365,jersey_experiment_5_v0,2023.2.2,Win32,84.74576271,,,,,,,,,,,,,,,,842.9845,844.0313,844.0314,845.4548,return,0.0326,,90.10416667,,,,,,FBP-RB-81.png,0.43,1.2,39,0.25,,,,,,,,,,,,,,,,,,0,45,45,38,1,,,,,,,,,,,,,,,,,,,,,,,
,,,,,SPR24_016,23,M,2024-04-08_15h24.32.365,jersey_experiment_5_v0,2023.2.2,Win32,84.74576271,,,,,,,,,,,,,,,,845.455,846.5021,846.5021,848.1844,return,0.6493,,82.94270833,,,,,,FBP-OG-17.png,0.4,1.2,3,0.25,,,,,,,,,,,,,,,,,,0,46,46,2,1,,,,,,,,,,,,,,,,,,,,,,,
,,,,,SPR24_016,23,M,2024-04-08_15h24.32.365,jersey_experiment_5_v0,2023.2.2,Win32,84.74576271,,,,,,,,,,,,,,,,848.1846,849.4785,849.4785,850.5374,return,0.037,,75.26041667,,,,,,FBP-PT-91.png,0.4,1.2,58,0.5,,,,,,,,,,,,,,,,,,0,47,47,57,1,,,,,,,,,,,,,,,,,,,,,,,
,,,,,SPR24_016,23,M,2024-04-08_15h24.32.365,jersey_experiment_5_v0,2023.2.2,Win32,84.74576271,,,,,,,,,,,,,,,,850.5376,851.5846,851.5846,853.0788,return,0.0541,,50.52083333,,,,,,FBP-OG-18.png,0.35,1.2,6,0.25,,,,,,,,,,,,,,,,,,0,48,48,5,1,,,,,,,,,,,,,,,,,,,,,,,
,,,,,SPR24_016,23,M,2024-04-08_15h24.32.365,jersey_experiment_5_v0,2023.2.2,Win32,84.74576271,,,,,,,,,,,,,,,,853.0789,854.1259,854.1259,856.9377,return,0.051,,64.0625,,,,,,FBP-RB-91.png,0.4,1.2,43,0.25,,,,,,,,,,,,,,,,,,0,49,49,42,1,,,,,,,,,,,,,,,,,,,,,,,
,,,,,SPR24_016,23,M,2024-04-08_15h24.32.365,jersey_experiment_5_v0,2023.2.2,Win32,84.74576271,,,,,,,,,,,,,,,,856.9379,858.2318,858.2319,859.9259,return,0.0073,,75.26041667,,,,,,FBP-PT-81.png,0.43,1.2,54,0.5,,,,,,,,,,,,,,,,,,0,50,50,53,1,,,,,,,,,,,,,,,,,,,,,,,
,,,,,SPR24_016,23,M,2024-04-08_15h24.32.365,jersey_experiment_5_v0,2023.2.2,Win32,84.74576271,,,,,,,,,,,,,,,,859.9261,860.9732,860.9732,862.8791,return,0.0384,,76.171875,,,,,,FBP-RB-81.png,0.4,1.2,38,0.25,,,,,,,,,,,,,,,,,,0,51,51,37,1,,,,,,,,,,,,,,,,,,,,,,,
,,,,,SPR24_016,23,M,2024-04-08_15h24.32.365,jersey_experiment_5_v0,2023.2.2,Win32,84.74576271,,,,,,,,,,,,,,,,862.8794,863.9263,863.9263,865.4557,return,0.212,,51.43229167,,,,,,FBP-OG-19.png,0.37,1.2,12,0.25,,,,,,,,,,,,,,,,,,0,52,52,11,1,,,,,,,,,,,,,,,,,,,,,,,
,,,,,SPR24_016,23,M,2024-04-08_15h24.32.365,jersey_experiment_5_v0,2023.2.2,Win32,84.74576271,,,,,,,,,,,,,,,,865.4558,866.7498,866.7498,868.3147,return,0.1558,,74.609375,,,,,,FBP-PT-71.png,0.45,1.2,50,0.5,,,,,,,,,,,,,,,,,,0,53,53,49,1,,,,,,,,,,,,,,,,,,,,,,,
,,,,,SPR24_016,23,M,2024-04-08_15h24.32.365,jersey_experiment_5_v0,2023.2.2,Win32,84.74576271,,,,,,,,,,,,,,,,868.315,869.3616,869.3616,871.5266,return,0.1247,,50.26041667,,,,,,FBP-OG-18.png,0.4,1.2,8,0.25,,,,,,,,,,,,,,,,,,0,54,54,7,1,,,,,,,,,,,,,,,,,,,,,,,
,,,,,SPR24_016,23,M,2024-04-08_15h24.32.365,jersey_experiment_5_v0,2023.2.2,Win32,84.74576271,,,,,,,,,,,,,,,,871.5269,872.5736,872.5737,873.7032,return,0.0892,,38.28125,,,,,,FBP-RB-81.png,0.35,1.2,36,0.25,,,,,,,,,,,,,,,,,,0,55,55,35,1,,,,,,,,,,,,,,,,,,,,,,,
,,,,,SPR24_016,23,M,2024-04-08_15h24.32.365,jersey_experiment_5_v0,2023.2.2,Win32,84.74576271,,,,,,,,,,,,,,,,873.7034,874.9973,874.9973,876.762,return,0.0391,,44.66145833,,,,,,FBP-PT-91.png,0.37,1.2,57,0.5,,,,,,,,,,,,,,,,,,0,56,56,56,1,,,,,,,,,,,,,,,,,,,,,,,
,,,,,SPR24_016,23,M,2024-04-08_15h24.32.365,jersey_experiment_5_v0,2023.2.2,Win32,84.74576271,,,,,,,,,,,,,,,,876.7621,877.8091,877.8091,879.868,return,0.0709,,37.76041667,,,,,,FBP-RB-71.png,0.35,1.2,31,0.25,,,,,,,,,,,,,,,,,,0,57,57,30,1,,,,,,,,,,,,,,,,,,,,,,,
,,,,,SPR24_016,23,M,2024-04-08_15h24.32.365,jersey_experiment_5_v0,2023.2.2,Win32,84.74576271,,,,,,,,,,,,,,,,879.8682,880.9151,880.9151,881.9033,return,0.0475,,49.73958333,,,,,,FBP-RB-71.png,0.4,1.2,33,0.25,,,,,,,,,,,,,,,,,,0,58,58,32,1,,,,,,,,,,,,,,,,,,,,,,,
,,,,,SPR24_016,23,M,2024-04-08_15h24.32.365,jersey_experiment_5_v0,2023.2.2,Win32,84.74576271,,,,,,,,,,,,,,,,881.9035,882.9505,882.9506,885.174,return,0.172,,38.15104167,,,,,,FBP-OG-19.png,0.35,1.2,11,0.25,,,,,,,,,,,,,,,,,,0,59,59,10,1,,,,,,,,,,,,,,,,,,,,,,,
,,,,,SPR24_016,23,M,2024-04-08_15h24.32.365,jersey_experiment_5_v0,2023.2.2,Win32,84.74576271,,,,,,,,,,,,,,,,,,,,,,,,,,,,,,,,,,,,,,,,,,,,,,,,,,,,,,,,885.1744,887.3745,return,2.1882,,,,,,,,,,,,,,,,,,,
,,,,,SPR24_016,23,M,2024-04-08_15h24.32.365,jersey_experiment_5_v0,2023.2.2,Win32,84.74576271,,,,,,,,,,,,,,,,,,,,,,,,,,,,,,,,,,,,,,,,,,,,,,,,,,,,,,,,,,,,,887.3746,890.4569,1,2.3457,return,0.7219,,,,,,,,,,,,
,,,,,SPR24_016,23,M,2024-04-08_15h24.32.365,jersey_experiment_5_v0,2023.2.2,Win32,84.74576271,,,,,,,,,,,,,,,,,,,,,,,,,,,,,,,,,,,,,,,,,,,,,,,,,,,,,,,,,,,,,,,,,,,,890.457,947.1228,Does color contrast matter in perceiving differences in size? Or perhaps the addition of a break in the middle affecting the primers in our mind when we compare the size against,right,52.7549,,,,,,
,,,,,SPR24_016,23,M,2024-04-08_15h24.32.365,jersey_experiment_5_v0,2023.2.2,Win32,84.74576271,,,,,,,,,,,,,,,,,,,,,,,,,,,,,,,,,,,,,,,,,,,,,,,,,,,,,,,,,,,,,,,,,,,,,,,,,,947.1229,957.2596,return,10.1256,