requirements.started,requirements.stopped,key_resp_3.keys,key_resp_3.rt,key_resp_3.duration,Subject ID,Age,Gender,date,expName,psychopyVersion,OS,frameRate,instructions1.started,instructions1.stopped,key_resp.keys,key_resp.rt,key_resp.duration,example.started,example.stopped,enter_2.keys,enter_2.rt,enter_2.duration,instructions2.started,instructions2.stopped,enter_3.keys,enter_3.rt,enter_3.duration,image.started,image.stopped,slider_2.started,slider_2.stopped,next.keys,next.rt,next.duration,slider.response,trial_block_1.thisRepN,trial_block_1.thisTrialN,trial_block_1.thisN,trial_block_1.thisIndex,trial_block_1.ran,Path,Width,Height,Index,Duration,trial_block_2.thisRepN,trial_block_2.thisTrialN,trial_block_2.thisN,trial_block_2.thisIndex,trial_block_2.ran,rest_break.started,rest_break.stopped,end_break.started,end_break.stopped,key_resp_5.keys,key_resp_5.rt,key_resp_5.duration,trial_block_3.thisRepN,trial_block_3.thisTrialN,trial_block_3.thisN,trial_block_3.thisIndex,trial_block_3.ran,trial_block_4.thisRepN,trial_block_4.thisTrialN,trial_block_4.thisN,trial_block_4.thisIndex,trial_block_4.ran,questions_intro.started,questions_intro.stopped,enter_12.keys,enter_12.rt,enter_12.duration,question2.started,question2.stopped,question_doingbest.response,question_doingbest.rt,enter_15.keys,enter_15.rt,enter_15.duration,pattern.started,pattern.stopped,pattern_2.text,enter_17.keys,enter_17.rt,enter_17.duration,thankyou.started,thankyou.stopped,enter_14.keys,enter_14.rt,enter_14.duration
9.99999E-05,11.1286,return,11.1223,,SPR24_018,19,Male,2024-04-09_13h56.22.932,jersey_experiment_5_v0,2023.2.2,Win32,85.47008547,,,,,,,,,,,,,,,,,,,,,,,,,,,,,,,,,,,,,,,,,,,,,,,,,,,,,,,,,,,,,,,,,,,,,,,,,,,,,,
,,,,,SPR24_018,19,Male,2024-04-09_13h56.22.932,jersey_experiment_5_v0,2023.2.2,Win32,85.47008547,11.1288,19.364,return,8.2192,,,,,,,,,,,,,,,,,,,,,,,,,,,,,,,,,,,,,,,,,,,,,,,,,,,,,,,,,,,,,,,,,,,,,,,,,,
,,,,,SPR24_018,19,Male,2024-04-09_13h56.22.932,jersey_experiment_5_v0,2023.2.2,Win32,85.47008547,,,,,,19.3641,22.4512,return,3.0526,,,,,,,,,,,,,,,,,,,,,,,,,,,,,,,,,,,,,,,,,,,,,,,,,,,,,,,,,,,,,,,,,,,,,
,,,,,SPR24_018,19,Male,2024-04-09_13h56.22.932,jersey_experiment_5_v0,2023.2.2,Win32,85.47008547,,,,,,,,,,,22.4513,41.7413,return,19.2713,,,,,,,,,,,,,,,,,,,,,,,,,,,,,,,,,,,,,,,,,,,,,,,,,,,,,,,,,,,,,,,,
,,,,,SPR24_018,19,Male,2024-04-09_13h56.22.932,jersey_experiment_5_v0,2023.2.2,Win32,85.47008547,,,,,,,,,,,,,,,,41.7486,42.8045,42.8046,53.0829,return,6.1656,,67.83854167,0,0,0,58,1,FBP-PT-19.png,0.43,1.2,59,0.25,,,,,,,,,,,,,,,,,,,,,,,,,,,,,,,,,,,,,,,,,,,,,
,,,,,SPR24_018,19,Male,2024-04-09_13h56.22.932,jersey_experiment_5_v0,2023.2.2,Win32,85.47008547,,,,,,,,,,,,,,,,53.0872,54.1297,54.1298,59.5419,return,2.0644,,63.41145833,0,1,1,54,1,FBP-PT-18.png,0.45,1.2,55,0.25,,,,,,,,,,,,,,,,,,,,,,,,,,,,,,,,,,,,,,,,,,,,,
,,,,,SPR24_018,19,Male,2024-04-09_13h56.22.932,jersey_experiment_5_v0,2023.2.2,Win32,85.47008547,,,,,,,,,,,,,,,,59.5422,60.8359,60.8359,65.0831,return,1.3047,,42.1875,0,2,2,7,1,FBP-OG-81.png,0.4,1.2,8,0.5,,,,,,,,,,,,,,,,,,,,,,,,,,,,,,,,,,,,,,,,,,,,,
,,,,,SPR24_018,19,Male,2024-04-09_13h56.22.932,jersey_experiment_5_v0,2023.2.2,Win32,85.47008547,,,,,,,,,,,,,,,,65.0833,66.3772,66.3773,73.9776,return,3.6255,,72.265625,0,3,3,34,1,FBP-RB-17.png,0.45,1.2,35,0.5,,,,,,,,,,,,,,,,,,,,,,,,,,,,,,,,,,,,,,,,,,,,,
,,,,,SPR24_018,19,Male,2024-04-09_13h56.22.932,jersey_experiment_5_v0,2023.2.2,Win32,85.47008547,,,,,,,,,,,,,,,,73.982,75.2835,75.2835,79.766,return,1.4408,,72.52604167,0,4,4,43,1,FBP-RB-19.png,0.43,1.2,44,0.5,,,,,,,,,,,,,,,,,,,,,,,,,,,,,,,,,,,,,,,,,,,,,
,,,,,SPR24_018,19,Male,2024-04-09_13h56.22.932,jersey_experiment_5_v0,2023.2.2,Win32,85.47008547,,,,,,,,,,,,,,,,79.7663,80.8131,80.8132,86.3428,return,3.3108,,36.19791667,0,5,5,21,1,FBP-YG-18.png,0.37,1.2,22,0.25,,,,,,,,,,,,,,,,,,,,,,,,,,,,,,,,,,,,,,,,,,,,,
,,,,,SPR24_018,19,Male,2024-04-09_13h56.22.932,jersey_experiment_5_v0,2023.2.2,Win32,85.47008547,,,,,,,,,,,,,,,,86.343,87.6368,87.6369,91.0369,return,1.7412,,27.734375,0,6,6,36,1,FBP-RB-18.png,0.37,1.2,37,0.5,,,,,,,,,,,,,,,,,,,,,,,,,,,,,,,,,,,,,,,,,,,,,
,,,,,SPR24_018,19,Male,2024-04-09_13h56.22.932,jersey_experiment_5_v0,2023.2.2,Win32,85.47008547,,,,,,,,,,,,,,,,91.0371,92.3311,92.3311,96.7547,return,2.1138,,75.78125,0,7,7,44,1,FBP-RB-19.png,0.45,1.2,45,0.5,,,,,,,,,,,,,,,,,,,,,,,,,,,,,,,,,,,,,,,,,,,,,
,,,,,SPR24_018,19,Male,2024-04-09_13h56.22.932,jersey_experiment_5_v0,2023.2.2,Win32,85.47008547,,,,,,,,,,,,,,,,96.7549,98.0489,98.049,101.6139,return,1.6942,,75.78125,0,8,8,3,1,FBP-OG-71.png,0.43,1.2,4,0.5,,,,,,,,,,,,,,,,,,,,,,,,,,,,,,,,,,,,,,,,,,,,,
,,,,,SPR24_018,19,Male,2024-04-09_13h56.22.932,jersey_experiment_5_v0,2023.2.2,Win32,85.47008547,,,,,,,,,,,,,,,,101.6141,102.661,102.661,106.3082,return,1.2175,,24.34895833,0,9,9,51,1,FBP-PT-18.png,0.37,1.2,52,0.25,,,,,,,,,,,,,,,,,,,,,,,,,,,,,,,,,,,,,,,,,,,,,
,,,,,SPR24_018,19,Male,2024-04-09_13h56.22.932,jersey_experiment_5_v0,2023.2.2,Win32,85.47008547,,,,,,,,,,,,,,,,106.3084,107.3553,107.3553,110.8378,return,1.2176,,25,0,10,10,16,1,FBP-YG-17.png,0.37,1.2,17,0.25,,,,,,,,,,,,,,,,,,,,,,,,,,,,,,,,,,,,,,,,,,,,,
,,,,,SPR24_018,19,Male,2024-04-09_13h56.22.932,jersey_experiment_5_v0,2023.2.2,Win32,85.47008547,,,,,,,,,,,,,,,,110.838,112.1318,112.1318,116.3909,return,1.3342,,25,0,11,11,5,1,FBP-OG-81.png,0.35,1.2,6,0.5,,,,,,,,,,,,,,,,,,,,,,,,,,,,,,,,,,,,,,,,,,,,,
,,,,,SPR24_018,19,Male,2024-04-09_13h56.22.932,jersey_experiment_5_v0,2023.2.2,Win32,85.47008547,,,,,,,,,,,,,,,,116.3912,117.4379,117.438,120.7557,return,0.8185,,22.52604167,0,12,12,25,1,FBP-YG-19.png,0.35,1.2,26,0.25,,,,,,,,,,,,,,,,,,,,,,,,,,,,,,,,,,,,,,,,,,,,,
,,,,,SPR24_018,19,Male,2024-04-09_13h56.22.932,jersey_experiment_5_v0,2023.2.2,Win32,85.47008547,,,,,,,,,,,,,,,,120.7558,121.8028,121.8028,124.1676,return,0.813,,14.97395833,0,13,13,55,1,FBP-PT-19.png,0.35,1.2,56,0.25,,,,,,,,,,,,,,,,,,,,,,,,,,,,,,,,,,,,,,,,,,,,,
,,,,,SPR24_018,19,Male,2024-04-09_13h56.22.932,jersey_experiment_5_v0,2023.2.2,Win32,85.47008547,,,,,,,,,,,,,,,,124.1678,125.2147,125.2147,129.3325,return,2.325,,77.08333333,0,14,14,24,1,FBP-YG-18.png,0.45,1.2,25,0.25,,,,,,,,,,,,,,,,,,,,,,,,,,,,,,,,,,,,,,,,,,,,,
,,,,,SPR24_018,19,Male,2024-04-09_13h56.22.932,jersey_experiment_5_v0,2023.2.2,Win32,85.47008547,,,,,,,,,,,,,,,,129.3328,130.3796,130.3797,133.3327,return,1.1483,,95.05208333,0,15,15,59,1,FBP-PT-19.png,0.45,1.2,60,0.25,,,,,,,,,,,,,,,,,,,,,,,,,,,,,,,,,,,,,,,,,,,,,
,,,,,SPR24_018,19,Male,2024-04-09_13h56.22.932,jersey_experiment_5_v0,2023.2.2,Win32,85.47008547,,,,,,,,,,,,,,,,133.3329,134.6268,134.6269,137.9093,return,1.3006,,16.66666667,0,16,16,10,1,FBP-OG-91.png,0.35,1.2,11,0.5,,,,,,,,,,,,,,,,,,,,,,,,,,,,,,,,,,,,,,,,,,,,,
,,,,,SPR24_018,19,Male,2024-04-09_13h56.22.932,jersey_experiment_5_v0,2023.2.2,Win32,85.47008547,,,,,,,,,,,,,,,,137.9096,138.9564,138.9564,142.5801,return,1.5353,,93.359375,0,17,17,49,1,FBP-PT-17.png,0.45,1.2,50,0.25,,,,,,,,,,,,,,,,,,,,,,,,,,,,,,,,,,,,,,,,,,,,,
,,,,,SPR24_018,19,Male,2024-04-09_13h56.22.932,jersey_experiment_5_v0,2023.2.2,Win32,85.47008547,,,,,,,,,,,,,,,,142.5803,143.6271,143.6271,147.1332,return,1.1063,,92.578125,0,18,18,18,1,FBP-YG-17.png,0.43,1.2,19,0.25,,,,,,,,,,,,,,,,,,,,,,,,,,,,,,,,,,,,,,,,,,,,,
,,,,,SPR24_018,19,Male,2024-04-09_13h56.22.932,jersey_experiment_5_v0,2023.2.2,Win32,85.47008547,,,,,,,,,,,,,,,,147.1334,148.4273,148.4273,152.1806,return,1.3133,,74.34895833,0,19,19,32,1,FBP-RB-17.png,0.4,1.2,33,0.5,,,,,,,,,,,,,,,,,,,,,,,,,,,,,,,,,,,,,,,,,,,,,
,,,,,SPR24_018,19,Male,2024-04-09_13h56.22.932,jersey_experiment_5_v0,2023.2.2,Win32,85.47008547,,,,,,,,,,,,,,,,152.1808,153.2274,153.2275,156.3335,return,1.1297,,32.8125,0,20,20,15,1,FBP-YG-17.png,0.35,1.2,16,0.25,,,,,,,,,,,,,,,,,,,,,,,,,,,,,,,,,,,,,,,,,,,,,
,,,,,SPR24_018,19,Male,2024-04-09_13h56.22.932,jersey_experiment_5_v0,2023.2.2,Win32,85.47008547,,,,,,,,,,,,,,,,156.3338,157.3806,157.3806,160.4513,return,1.2889,,66.66666667,0,21,21,53,1,FBP-PT-18.png,0.43,1.2,54,0.25,,,,,,,,,,,,,,,,,,,,,,,,,,,,,,,,,,,,,,,,,,,,,
,,,,,SPR24_018,19,Male,2024-04-09_13h56.22.932,jersey_experiment_5_v0,2023.2.2,Win32,85.47008547,,,,,,,,,,,,,,,,160.4515,161.7454,161.7455,164.8514,return,1.3729,,76.5625,0,22,22,33,1,FBP-RB-17.png,0.43,1.2,34,0.5,,,,,,,,,,,,,,,,,,,,,,,,,,,,,,,,,,,,,,,,,,,,,
,,,,,SPR24_018,19,Male,2024-04-09_13h56.22.932,jersey_experiment_5_v0,2023.2.2,Win32,85.47008547,,,,,,,,,,,,,,,,164.8517,165.8985,165.8985,169.3104,return,1.4247,,25.52083333,0,23,23,45,1,FBP-PT-17.png,0.35,1.2,46,0.25,,,,,,,,,,,,,,,,,,,,,,,,,,,,,,,,,,,,,,,,,,,,,
,,,,,SPR24_018,19,Male,2024-04-09_13h56.22.932,jersey_experiment_5_v0,2023.2.2,Win32,85.47008547,,,,,,,,,,,,,,,,169.3106,170.6046,170.6046,173.5814,return,1.3415,,24.86979167,0,24,24,41,1,FBP-RB-19.png,0.37,1.2,42,0.5,,,,,,,,,,,,,,,,,,,,,,,,,,,,,,,,,,,,,,,,,,,,,
,,,,,SPR24_018,19,Male,2024-04-09_13h56.22.932,jersey_experiment_5_v0,2023.2.2,Win32,85.47008547,,,,,,,,,,,,,,,,173.5815,174.8752,174.8753,178.4989,return,0.8896,,31.38020833,0,25,25,11,1,FBP-OG-91.png,0.37,1.2,12,0.5,,,,,,,,,,,,,,,,,,,,,,,,,,,,,,,,,,,,,,,,,,,,,
,,,,,SPR24_018,19,Male,2024-04-09_13h56.22.932,jersey_experiment_5_v0,2023.2.2,Win32,85.47008547,,,,,,,,,,,,,,,,178.4991,179.5461,179.5462,183.0756,return,1.1256,,73.046875,0,26,26,23,1,FBP-YG-18.png,0.43,1.2,24,0.25,,,,,,,,,,,,,,,,,,,,,,,,,,,,,,,,,,,,,,,,,,,,,
,,,,,SPR24_018,19,Male,2024-04-09_13h56.22.932,jersey_experiment_5_v0,2023.2.2,Win32,85.47008547,,,,,,,,,,,,,,,,183.0759,184.3698,184.3698,186.3817,return,0.7767,,84.89583333,0,27,27,38,1,FBP-RB-18.png,0.43,1.2,39,0.5,,,,,,,,,,,,,,,,,,,,,,,,,,,,,,,,,,,,,,,,,,,,,
,,,,,SPR24_018,19,Male,2024-04-09_13h56.22.932,jersey_experiment_5_v0,2023.2.2,Win32,85.47008547,,,,,,,,,,,,,,,,186.3819,187.4286,187.4286,189.8524,return,0.8374,,94.66145833,0,28,28,19,1,FBP-YG-17.png,0.45,1.2,20,0.25,,,,,,,,,,,,,,,,,,,,,,,,,,,,,,,,,,,,,,,,,,,,,
,,,,,SPR24_018,19,Male,2024-04-09_13h56.22.932,jersey_experiment_5_v0,2023.2.2,Win32,85.47008547,,,,,,,,,,,,,,,,189.8527,190.8995,190.8995,195.2761,return,1.6004,,25,0,29,29,20,1,FBP-YG-18.png,0.35,1.2,21,0.25,,,,,,,,,,,,,,,,,,,,,,,,,,,,,,,,,,,,,,,,,,,,,
,,,,,SPR24_018,19,Male,2024-04-09_13h56.22.932,jersey_experiment_5_v0,2023.2.2,Win32,85.47008547,,,,,,,,,,,,,,,,195.2764,196.5702,196.5702,198.8997,return,0.9833,,18.48958333,0,30,30,40,1,FBP-RB-19.png,0.35,1.2,41,0.5,,,,,,,,,,,,,,,,,,,,,,,,,,,,,,,,,,,,,,,,,,,,,
,,,,,SPR24_018,19,Male,2024-04-09_13h56.22.932,jersey_experiment_5_v0,2023.2.2,Win32,85.47008547,,,,,,,,,,,,,,,,198.9,200.1939,200.194,202.9235,return,0.7295,,99.34895833,0,31,31,14,1,FBP-OG-91.png,0.45,1.2,15,0.5,,,,,,,,,,,,,,,,,,,,,,,,,,,,,,,,,,,,,,,,,,,,,
,,,,,SPR24_018,19,Male,2024-04-09_13h56.22.932,jersey_experiment_5_v0,2023.2.2,Win32,85.47008547,,,,,,,,,,,,,,,,202.9237,203.9705,203.9706,205.9942,return,0.555,,85.41666667,0,32,32,17,1,FBP-YG-17.png,0.4,1.2,18,0.25,,,,,,,,,,,,,,,,,,,,,,,,,,,,,,,,,,,,,,,,,,,,,
,,,,,SPR24_018,19,Male,2024-04-09_13h56.22.932,jersey_experiment_5_v0,2023.2.2,Win32,85.47008547,,,,,,,,,,,,,,,,205.9944,207.041,207.0411,209.6884,return,0.509,,81.11979167,0,33,33,48,1,FBP-PT-17.png,0.43,1.2,49,0.25,,,,,,,,,,,,,,,,,,,,,,,,,,,,,,,,,,,,,,,,,,,,,
,,,,,SPR24_018,19,Male,2024-04-09_13h56.22.932,jersey_experiment_5_v0,2023.2.2,Win32,85.47008547,,,,,,,,,,,,,,,,209.6886,210.9826,210.9827,212.453,return,0.5337,,72.78645833,0,34,34,12,1,FBP-OG-91.png,0.4,1.2,13,0.5,,,,,,,,,,,,,,,,,,,,,,,,,,,,,,,,,,,,,,,,,,,,,
,,,,,SPR24_018,19,Male,2024-04-09_13h56.22.932,jersey_experiment_5_v0,2023.2.2,Win32,85.47008547,,,,,,,,,,,,,,,,212.4533,213.7474,213.7474,215.9122,return,0.7899,,77.34375,0,35,35,8,1,FBP-OG-81.png,0.43,1.2,9,0.5,,,,,,,,,,,,,,,,,,,,,,,,,,,,,,,,,,,,,,,,,,,,,
,,,,,SPR24_018,19,Male,2024-04-09_13h56.22.932,jersey_experiment_5_v0,2023.2.2,Win32,85.47008547,,,,,,,,,,,,,,,,215.9125,217.2062,217.2063,219.783,return,0.5208,,72.265625,0,36,36,13,1,FBP-OG-91.png,0.43,1.2,14,0.5,,,,,,,,,,,,,,,,,,,,,,,,,,,,,,,,,,,,,,,,,,,,,
,,,,,SPR24_018,19,Male,2024-04-09_13h56.22.932,jersey_experiment_5_v0,2023.2.2,Win32,85.47008547,,,,,,,,,,,,,,,,219.7831,221.0771,221.0771,224.3712,return,0.7599,,50.65104167,0,37,37,6,1,FBP-OG-81.png,0.37,1.2,7,0.5,,,,,,,,,,,,,,,,,,,,,,,,,,,,,,,,,,,,,,,,,,,,,
,,,,,SPR24_018,19,Male,2024-04-09_13h56.22.932,jersey_experiment_5_v0,2023.2.2,Win32,85.47008547,,,,,,,,,,,,,,,,224.3714,225.6655,225.6655,227.9124,return,0.4737,,93.48958333,0,38,38,39,1,FBP-RB-18.png,0.45,1.2,40,0.5,,,,,,,,,,,,,,,,,,,,,,,,,,,,,,,,,,,,,,,,,,,,,
,,,,,SPR24_018,19,Male,2024-04-09_13h56.22.932,jersey_experiment_5_v0,2023.2.2,Win32,85.47008547,,,,,,,,,,,,,,,,227.9127,229.2067,229.2067,231.3244,return,0.6223,,28.90625,0,39,39,35,1,FBP-RB-18.png,0.35,1.2,36,0.5,,,,,,,,,,,,,,,,,,,,,,,,,,,,,,,,,,,,,,,,,,,,,
,,,,,SPR24_018,19,Male,2024-04-09_13h56.22.932,jersey_experiment_5_v0,2023.2.2,Win32,85.47008547,,,,,,,,,,,,,,,,231.3246,232.6186,232.6186,234.4187,return,0.6429,,12.5,0,40,40,0,1,FBP-OG-71.png,0.35,1.2,1,0.5,,,,,,,,,,,,,,,,,,,,,,,,,,,,,,,,,,,,,,,,,,,,,
,,,,,SPR24_018,19,Male,2024-04-09_13h56.22.932,jersey_experiment_5_v0,2023.2.2,Win32,85.47008547,,,,,,,,,,,,,,,,234.4189,235.7129,235.713,238.5012,return,0.6182,,44.921875,0,41,41,1,1,FBP-OG-71.png,0.37,1.2,2,0.5,,,,,,,,,,,,,,,,,,,,,,,,,,,,,,,,,,,,,,,,,,,,,
,,,,,SPR24_018,19,Male,2024-04-09_13h56.22.932,jersey_experiment_5_v0,2023.2.2,Win32,85.47008547,,,,,,,,,,,,,,,,238.5015,239.7954,239.7954,241.6072,return,0.4516,,63.28125,0,42,42,42,1,FBP-RB-19.png,0.4,1.2,43,0.5,,,,,,,,,,,,,,,,,,,,,,,,,,,,,,,,,,,,,,,,,,,,,
,,,,,SPR24_018,19,Male,2024-04-09_13h56.22.932,jersey_experiment_5_v0,2023.2.2,Win32,85.47008547,,,,,,,,,,,,,,,,241.6075,242.9014,242.9014,244.9486,return,0.4173,,72.78645833,0,43,43,37,1,FBP-RB-18.png,0.4,1.2,38,0.5,,,,,,,,,,,,,,,,,,,,,,,,,,,,,,,,,,,,,,,,,,,,,
,,,,,SPR24_018,19,Male,2024-04-09_13h56.22.932,jersey_experiment_5_v0,2023.2.2,Win32,85.47008547,,,,,,,,,,,,,,,,244.9488,246.2426,246.2426,249.6192,return,1.8184,,58.07291667,0,44,44,31,1,FBP-RB-17.png,0.37,1.2,32,0.5,,,,,,,,,,,,,,,,,,,,,,,,,,,,,,,,,,,,,,,,,,,,,
,,,,,SPR24_018,19,Male,2024-04-09_13h56.22.932,jersey_experiment_5_v0,2023.2.2,Win32,85.47008547,,,,,,,,,,,,,,,,249.6194,250.6663,250.6664,255.3959,return,0.4551,,64.97395833,0,45,45,52,1,FBP-PT-18.png,0.4,1.2,53,0.25,,,,,,,,,,,,,,,,,,,,,,,,,,,,,,,,,,,,,,,,,,,,,
,,,,,SPR24_018,19,Male,2024-04-09_13h56.22.932,jersey_experiment_5_v0,2023.2.2,Win32,85.47008547,,,,,,,,,,,,,,,,255.3962,256.4431,256.4431,259.0196,return,0.4812,,49.73958333,0,46,46,26,1,FBP-YG-19.png,0.37,1.2,27,0.25,,,,,,,,,,,,,,,,,,,,,,,,,,,,,,,,,,,,,,,,,,,,,
,,,,,SPR24_018,19,Male,2024-04-09_13h56.22.932,jersey_experiment_5_v0,2023.2.2,Win32,85.47008547,,,,,,,,,,,,,,,,259.0199,260.3137,260.3137,261.7374,return,0.532,,75.26041667,0,47,47,9,1,FBP-OG-81.png,0.45,1.2,10,0.5,,,,,,,,,,,,,,,,,,,,,,,,,,,,,,,,,,,,,,,,,,,,,
,,,,,SPR24_018,19,Male,2024-04-09_13h56.22.932,jersey_experiment_5_v0,2023.2.2,Win32,85.47008547,,,,,,,,,,,,,,,,261.7376,262.7844,262.7845,263.9964,return,0.4241,,83.85416667,0,48,48,28,1,FBP-YG-19.png,0.43,1.2,29,0.25,,,,,,,,,,,,,,,,,,,,,,,,,,,,,,,,,,,,,,,,,,,,,
,,,,,SPR24_018,19,Male,2024-04-09_13h56.22.932,jersey_experiment_5_v0,2023.2.2,Win32,85.47008547,,,,,,,,,,,,,,,,263.9966,265.2906,265.2906,267.3024,return,0.4287,,31.640625,0,49,49,30,1,FBP-RB-17.png,0.35,1.2,31,0.5,,,,,,,,,,,,,,,,,,,,,,,,,,,,,,,,,,,,,,,,,,,,,
,,,,,SPR24_018,19,Male,2024-04-09_13h56.22.932,jersey_experiment_5_v0,2023.2.2,Win32,85.47008547,,,,,,,,,,,,,,,,267.3027,268.5964,268.5964,270.5966,return,0.4883,,74.73958333,0,50,50,4,1,FBP-OG-71.png,0.45,1.2,5,0.5,,,,,,,,,,,,,,,,,,,,,,,,,,,,,,,,,,,,,,,,,,,,,
,,,,,SPR24_018,19,Male,2024-04-09_13h56.22.932,jersey_experiment_5_v0,2023.2.2,Win32,85.47008547,,,,,,,,,,,,,,,,270.5969,271.6438,271.6438,273.3849,return,0.4486,,71.875,0,51,51,47,1,FBP-PT-17.png,0.4,1.2,48,0.25,,,,,,,,,,,,,,,,,,,,,,,,,,,,,,,,,,,,,,,,,,,,,
,,,,,SPR24_018,19,Male,2024-04-09_13h56.22.932,jersey_experiment_5_v0,2023.2.2,Win32,85.47008547,,,,,,,,,,,,,,,,273.3851,274.432,274.4321,275.9613,return,0.4259,,84.89583333,0,52,52,29,1,FBP-YG-19.png,0.45,1.2,30,0.25,,,,,,,,,,,,,,,,,,,,,,,,,,,,,,,,,,,,,,,,,,,,,
,,,,,SPR24_018,19,Male,2024-04-09_13h56.22.932,jersey_experiment_5_v0,2023.2.2,Win32,85.47008547,,,,,,,,,,,,,,,,275.9615,277.0086,277.0086,278.7615,return,0.4823,,75.78125,0,53,53,27,1,FBP-YG-19.png,0.4,1.2,28,0.25,,,,,,,,,,,,,,,,,,,,,,,,,,,,,,,,,,,,,,,,,,,,,
,,,,,SPR24_018,19,Male,2024-04-09_13h56.22.932,jersey_experiment_5_v0,2023.2.2,Win32,85.47008547,,,,,,,,,,,,,,,,278.7616,280.0556,280.0556,281.8909,return,0.5732,,75.26041667,0,54,54,2,1,FBP-OG-71.png,0.4,1.2,3,0.5,,,,,,,,,,,,,,,,,,,,,,,,,,,,,,,,,,,,,,,,,,,,,
,,,,,SPR24_018,19,Male,2024-04-09_13h56.22.932,jersey_experiment_5_v0,2023.2.2,Win32,85.47008547,,,,,,,,,,,,,,,,281.891,282.9382,282.9382,285.3383,return,0.9088,,41.66666667,0,55,55,46,1,FBP-PT-17.png,0.37,1.2,47,0.25,,,,,,,,,,,,,,,,,,,,,,,,,,,,,,,,,,,,,,,,,,,,,
,,,,,SPR24_018,19,Male,2024-04-09_13h56.22.932,jersey_experiment_5_v0,2023.2.2,Win32,85.47008547,,,,,,,,,,,,,,,,285.3385,286.3853,286.3853,288.2678,return,0.4709,,64.19270833,0,56,56,57,1,FBP-PT-19.png,0.4,1.2,58,0.25,,,,,,,,,,,,,,,,,,,,,,,,,,,,,,,,,,,,,,,,,,,,,
,,,,,SPR24_018,19,Male,2024-04-09_13h56.22.932,jersey_experiment_5_v0,2023.2.2,Win32,85.47008547,,,,,,,,,,,,,,,,288.2679,289.3149,289.315,291.0443,return,0.4883,,30.20833333,0,57,57,56,1,FBP-PT-19.png,0.37,1.2,57,0.25,,,,,,,,,,,,,,,,,,,,,,,,,,,,,,,,,,,,,,,,,,,,,
,,,,,SPR24_018,19,Male,2024-04-09_13h56.22.932,jersey_experiment_5_v0,2023.2.2,Win32,85.47008547,,,,,,,,,,,,,,,,291.0445,292.0914,292.0914,294.0209,return,0.5461,,19.66145833,0,58,58,50,1,FBP-PT-18.png,0.35,1.2,51,0.25,,,,,,,,,,,,,,,,,,,,,,,,,,,,,,,,,,,,,,,,,,,,,
,,,,,SPR24_018,19,Male,2024-04-09_13h56.22.932,jersey_experiment_5_v0,2023.2.2,Win32,85.47008547,,,,,,,,,,,,,,,,294.0211,295.0681,295.0682,297.468,return,0.5408,,61.84895833,0,59,59,22,1,FBP-YG-18.png,0.4,1.2,23,0.25,,,,,,,,,,,,,,,,,,,,,,,,,,,,,,,,,,,,,,,,,,,,,
,,,,,SPR24_018,19,Male,2024-04-09_13h56.22.932,jersey_experiment_5_v0,2023.2.2,Win32,85.47008547,,,,,,,,,,,,,,,,297.4702,298.7622,298.7622,303.8919,return,0.4654,,52.08333333,,,,,,FBP-OG-19.png,0.37,1.2,12,0.5,0,0,0,11,1,,,,,,,,,,,,,,,,,,,,,,,,,,,,,,,,,,,,,,,,
,,,,,SPR24_018,19,Male,2024-04-09_13h56.22.932,jersey_experiment_5_v0,2023.2.2,Win32,85.47008547,,,,,,,,,,,,,,,,303.8923,304.939,304.939,306.5978,return,0.4767,,91.92708333,,,,,,FBP-PT-81.png,0.43,1.2,54,0.25,0,1,1,53,1,,,,,,,,,,,,,,,,,,,,,,,,,,,,,,,,,,,,,,,,
,,,,,SPR24_018,19,Male,2024-04-09_13h56.22.932,jersey_experiment_5_v0,2023.2.2,Win32,85.47008547,,,,,,,,,,,,,,,,306.598,307.6449,307.645,308.9629,return,0.5149,,96.61458333,,,,,,FBP-PT-81.png,0.45,1.2,55,0.25,0,2,2,54,1,,,,,,,,,,,,,,,,,,,,,,,,,,,,,,,,,,,,,,,,
,,,,,SPR24_018,19,Male,2024-04-09_13h56.22.932,jersey_experiment_5_v0,2023.2.2,Win32,85.47008547,,,,,,,,,,,,,,,,308.963,310.2568,310.2568,311.5627,return,0.4353,,88.02083333,,,,,,FBP-RB-91.png,0.43,1.2,44,0.5,0,3,3,43,1,,,,,,,,,,,,,,,,,,,,,,,,,,,,,,,,,,,,,,,,
,,,,,SPR24_018,19,Male,2024-04-09_13h56.22.932,jersey_experiment_5_v0,2023.2.2,Win32,85.47008547,,,,,,,,,,,,,,,,311.5629,312.6099,312.6099,316.8689,return,2.6071,,38.02083333,,,,,,FBP-YG-91.png,0.35,1.2,26,0.25,0,4,4,25,1,,,,,,,,,,,,,,,,,,,,,,,,,,,,,,,,,,,,,,,,
,,,,,SPR24_018,19,Male,2024-04-09_13h56.22.932,jersey_experiment_5_v0,2023.2.2,Win32,85.47008547,,,,,,,,,,,,,,,,316.8692,318.163,318.1632,320.9629,return,0.5251,,41.015625,,,,,,FBP-RB-71.png,0.37,1.2,32,0.5,0,5,5,31,1,,,,,,,,,,,,,,,,,,,,,,,,,,,,,,,,,,,,,,,,
,,,,,SPR24_018,19,Male,2024-04-09_13h56.22.932,jersey_experiment_5_v0,2023.2.2,Win32,85.47008547,,,,,,,,,,,,,,,,320.9632,322.2573,322.2573,324.1985,return,0.9466,,24.21875,,,,,,FBP-OG-17.png,0.35,1.2,1,0.5,0,6,6,0,1,,,,,,,,,,,,,,,,,,,,,,,,,,,,,,,,,,,,,,,,
,,,,,SPR24_018,19,Male,2024-04-09_13h56.22.932,jersey_experiment_5_v0,2023.2.2,Win32,85.47008547,,,,,,,,,,,,,,,,324.1987,325.4925,325.4926,328.7868,return,0.3854,,50,,,,,,FBP-RB-81.png,0.35,1.2,36,0.5,0,7,7,35,1,,,,,,,,,,,,,,,,,,,,,,,,,,,,,,,,,,,,,,,,
,,,,,SPR24_018,19,Male,2024-04-09_13h56.22.932,jersey_experiment_5_v0,2023.2.2,Win32,85.47008547,,,,,,,,,,,,,,,,328.7871,329.834,329.834,331.1281,return,0.4248,,49.609375,,,,,,FBP-PT-91.png,0.37,1.2,57,0.25,0,8,8,56,1,,,,,,,,,,,,,,,,,,,,,,,,,,,,,,,,,,,,,,,,
,,,,,SPR24_018,19,Male,2024-04-09_13h56.22.932,jersey_experiment_5_v0,2023.2.2,Win32,85.47008547,,,,,,,,,,,,,,,,331.1283,332.1752,332.1752,333.4342,return,0.531,,49.609375,,,,,,FBP-PT-81.png,0.35,1.2,51,0.25,0,9,9,50,1,,,,,,,,,,,,,,,,,,,,,,,,,,,,,,,,,,,,,,,,
,,,,,SPR24_018,19,Male,2024-04-09_13h56.22.932,jersey_experiment_5_v0,2023.2.2,Win32,85.47008547,,,,,,,,,,,,,,,,333.4344,334.4812,334.4813,336.74,return,0.5123,,51.04166667,,,,,,FBP-YG-91.png,0.37,1.2,27,0.25,0,10,10,26,1,,,,,,,,,,,,,,,,,,,,,,,,,,,,,,,,,,,,,,,,
,,,,,SPR24_018,19,Male,2024-04-09_13h56.22.932,jersey_experiment_5_v0,2023.2.2,Win32,85.47008547,,,,,,,,,,,,,,,,336.7402,338.0343,338.0344,339.4345,return,0.484,,67.96875,,,,,,FBP-OG-19.png,0.4,1.2,13,0.5,0,11,11,12,1,,,,,,,,,,,,,,,,,,,,,,,,,,,,,,,,,,,,,,,,
,,,,,SPR24_018,19,Male,2024-04-09_13h56.22.932,jersey_experiment_5_v0,2023.2.2,Win32,85.47008547,,,,,,,,,,,,,,,,339.4347,340.7286,340.7286,342.3169,return,0.5649,,58.59375,,,,,,FBP-OG-19.png,0.35,1.2,11,0.5,0,12,12,10,1,,,,,,,,,,,,,,,,,,,,,,,,,,,,,,,,,,,,,,,,
,,,,,SPR24_018,19,Male,2024-04-09_13h56.22.932,jersey_experiment_5_v0,2023.2.2,Win32,85.47008547,,,,,,,,,,,,,,,,342.3171,343.611,343.611,345.4346,return,0.4708,,77.08333333,,,,,,FBP-OG-17.png,0.43,1.2,4,0.5,0,13,13,3,1,,,,,,,,,,,,,,,,,,,,,,,,,,,,,,,,,,,,,,,,
,,,,,SPR24_018,19,Male,2024-04-09_13h56.22.932,jersey_experiment_5_v0,2023.2.2,Win32,85.47008547,,,,,,,,,,,,,,,,345.4347,346.4817,346.4817,347.9759,return,0.4866,,82.8125,,,,,,FBP-YG-91.png,0.4,1.2,28,0.25,0,14,14,27,1,,,,,,,,,,,,,,,,,,,,,,,,,,,,,,,,,,,,,,,,
,,,,,SPR24_018,19,Male,2024-04-09_13h56.22.932,jersey_experiment_5_v0,2023.2.2,Win32,85.47008547,,,,,,,,,,,,,,,,347.9761,349.0229,349.0229,350.5523,return,0.4504,,82.55208333,,,,,,FBP-PT-71.png,0.43,1.2,49,0.25,0,15,15,48,1,,,,,,,,,,,,,,,,,,,,,,,,,,,,,,,,,,,,,,,,
,,,,,SPR24_018,19,Male,2024-04-09_13h56.22.932,jersey_experiment_5_v0,2023.2.2,Win32,85.47008547,,,,,,,,,,,,,,,,350.5525,351.5995,351.5995,355.529,return,0.4145,,79.6875,,,,,,FBP-YG-71.png,0.4,1.2,18,0.25,0,16,16,17,1,,,,,,,,,,,,,,,,,,,,,,,,,,,,,,,,,,,,,,,,
,,,,,SPR24_018,19,Male,2024-04-09_13h56.22.932,jersey_experiment_5_v0,2023.2.2,Win32,85.47008547,,,,,,,,,,,,,,,,355.5293,356.8233,356.8233,359.5762,return,1.2963,,74.47916667,,,,,,FBP-RB-81.png,0.4,1.2,38,0.5,0,17,17,37,1,,,,,,,,,,,,,,,,,,,,,,,,,,,,,,,,,,,,,,,,
,,,,,SPR24_018,19,Male,2024-04-09_13h56.22.932,jersey_experiment_5_v0,2023.2.2,Win32,85.47008547,,,,,,,,,,,,,,,,359.5764,360.8705,360.8705,363.0941,return,0.3915,,51.5625,,,,,,FBP-OG-18.png,0.37,1.2,7,0.5,0,18,18,6,1,,,,,,,,,,,,,,,,,,,,,,,,,,,,,,,,,,,,,,,,
,,,,,SPR24_018,19,Male,2024-04-09_13h56.22.932,jersey_experiment_5_v0,2023.2.2,Win32,85.47008547,,,,,,,,,,,,,,,,363.0942,364.3882,364.3882,366.8354,return,0.4193,,87.63020833,,,,,,FBP-RB-81.png,0.45,1.2,40,0.5,0,19,19,39,1,,,,,,,,,,,,,,,,,,,,,,,,,,,,,,,,,,,,,,,,
,,,,,SPR24_018,19,Male,2024-04-09_13h56.22.932,jersey_experiment_5_v0,2023.2.2,Win32,85.47008547,,,,,,,,,,,,,,,,366.8356,367.8825,367.8825,370.0119,return,0.4342,,99.21875,,,,,,FBP-PT-71.png,0.45,1.2,50,0.25,0,20,20,49,1,,,,,,,,,,,,,,,,,,,,,,,,,,,,,,,,,,,,,,,,
,,,,,SPR24_018,19,Male,2024-04-09_13h56.22.932,jersey_experiment_5_v0,2023.2.2,Win32,85.47008547,,,,,,,,,,,,,,,,370.0121,371.306,371.3061,373.0591,return,0.4441,,13.93229167,,,,,,FBP-RB-91.png,0.35,1.2,41,0.5,0,21,21,40,1,,,,,,,,,,,,,,,,,,,,,,,,,,,,,,,,,,,,,,,,
,,,,,SPR24_018,19,Male,2024-04-09_13h56.22.932,jersey_experiment_5_v0,2023.2.2,Win32,85.47008547,,,,,,,,,,,,,,,,373.0593,374.1062,374.1063,377.6123,return,1.8118,,48.95833333,,,,,,FBP-PT-91.png,0.4,1.2,58,0.25,0,22,22,57,1,,,,,,,,,,,,,,,,,,,,,,,,,,,,,,,,,,,,,,,,
,,,,,SPR24_018,19,Male,2024-04-09_13h56.22.932,jersey_experiment_5_v0,2023.2.2,Win32,85.47008547,,,,,,,,,,,,,,,,377.6125,378.9064,378.9064,380.6125,return,0.4898,,57.16145833,,,,,,FBP-RB-91.png,0.4,1.2,43,0.5,0,23,23,42,1,,,,,,,,,,,,,,,,,,,,,,,,,,,,,,,,,,,,,,,,
,,,,,SPR24_018,19,Male,2024-04-09_13h56.22.932,jersey_experiment_5_v0,2023.2.2,Win32,85.47008547,,,,,,,,,,,,,,,,380.6127,381.6594,381.6595,383.8006,return,0.8268,,50,,,,,,FBP-PT-71.png,0.37,1.2,47,0.25,0,24,24,46,1,,,,,,,,,,,,,,,,,,,,,,,,,,,,,,,,,,,,,,,,
,,,,,SPR24_018,19,Male,2024-04-09_13h56.22.932,jersey_experiment_5_v0,2023.2.2,Win32,85.47008547,,,,,,,,,,,,,,,,383.8008,385.0948,385.0948,387.0597,return,0.7124,,62.890625,,,,,,FBP-OG-17.png,0.4,1.2,3,0.5,0,25,25,2,1,,,,,,,,,,,,,,,,,,,,,,,,,,,,,,,,,,,,,,,,
,,,,,SPR24_018,19,Male,2024-04-09_13h56.22.932,jersey_experiment_5_v0,2023.2.2,Win32,85.47008547,,,,,,,,,,,,,,,,387.0599,388.1067,388.1067,389.8834,return,0.4005,,37.109375,,,,,,FBP-YG-81.png,0.35,1.2,21,0.25,0,26,26,20,1,,,,,,,,,,,,,,,,,,,,,,,,,,,,,,,,,,,,,,,,
,,,,,SPR24_018,19,Male,2024-04-09_13h56.22.932,jersey_experiment_5_v0,2023.2.2,Win32,85.47008547,,,,,,,,,,,,,,,,389.8836,391.1774,391.1775,393.1069,return,0.4078,,55.46875,,,,,,FBP-OG-18.png,0.4,1.2,8,0.5,0,27,27,7,1,,,,,,,,,,,,,,,,,,,,,,,,,,,,,,,,,,,,,,,,
,,,,,SPR24_018,19,Male,2024-04-09_13h56.22.932,jersey_experiment_5_v0,2023.2.2,Win32,85.47008547,,,,,,,,,,,,,,,,393.1072,394.154,394.1541,396.0128,return,0.4569,,88.54166667,,,,,,FBP-PT-91.png,0.45,1.2,60,0.25,0,28,28,59,1,,,,,,,,,,,,,,,,,,,,,,,,,,,,,,,,,,,,,,,,
,,,,,SPR24_018,19,Male,2024-04-09_13h56.22.932,jersey_experiment_5_v0,2023.2.2,Win32,85.47008547,,,,,,,,,,,,,,,,396.013,397.3071,397.3071,398.813,return,0.4234,,79.42708333,,,,,,FBP-RB-71.png,0.43,1.2,34,0.5,0,29,29,33,1,,,,,,,,,,,,,,,,,,,,,,,,,,,,,,,,,,,,,,,,
,,,,,SPR24_018,19,Male,2024-04-09_13h56.22.932,jersey_experiment_5_v0,2023.2.2,Win32,85.47008547,,,,,,,,,,,,,,,,398.8132,400.1072,400.1072,401.8484,return,0.4975,,39.58333333,,,,,,FBP-OG-17.png,0.37,1.2,2,0.5,0,30,30,1,1,,,,,,,,,,,,,,,,,,,,,,,,,,,,,,,,,,,,,,,,
,,,,,SPR24_018,19,Male,2024-04-09_13h56.22.932,jersey_experiment_5_v0,2023.2.2,Win32,85.47008547,,,,,,,,,,,,,,,,401.8487,403.1426,403.1426,404.7074,return,0.4536,,86.97916667,,,,,,FBP-OG-19.png,0.45,1.2,15,0.5,0,31,31,14,1,,,,,,,,,,,,,,,,,,,,,,,,,,,,,,,,,,,,,,,,
,,,,,SPR24_018,19,Male,2024-04-09_13h56.22.932,jersey_experiment_5_v0,2023.2.2,Win32,85.47008547,,,,,,,,,,,,,,,,404.7076,406.0015,406.0016,408.0133,return,0.645,,58.59375,,,,,,FBP-RB-81.png,0.37,1.2,37,0.5,0,32,32,36,1,,,,,,,,,,,,,,,,,,,,,,,,,,,,,,,,,,,,,,,,
,,,,,SPR24_018,19,Male,2024-04-09_13h56.22.932,jersey_experiment_5_v0,2023.2.2,Win32,85.47008547,,,,,,,,,,,,,,,,408.0134,409.3076,409.3077,411.9665,return,0.8473,,34.89583333,,,,,,FBP-RB-91.png,0.37,1.2,42,0.5,0,33,33,41,1,,,,,,,,,,,,,,,,,,,,,,,,,,,,,,,,,,,,,,,,
,,,,,SPR24_018,19,Male,2024-04-09_13h56.22.932,jersey_experiment_5_v0,2023.2.2,Win32,85.47008547,,,,,,,,,,,,,,,,411.9667,413.2607,413.2607,415.4489,return,0.4736,,21.35416667,,,,,,FBP-RB-71.png,0.35,1.2,31,0.5,0,34,34,30,1,,,,,,,,,,,,,,,,,,,,,,,,,,,,,,,,,,,,,,,,
,,,,,SPR24_018,19,Male,2024-04-09_13h56.22.932,jersey_experiment_5_v0,2023.2.2,Win32,85.47008547,,,,,,,,,,,,,,,,415.4491,416.7431,416.7432,419.2608,return,0.692,,84.375,,,,,,FBP-RB-81.png,0.43,1.2,39,0.5,0,35,35,38,1,,,,,,,,,,,,,,,,,,,,,,,,,,,,,,,,,,,,,,,,
,,,,,SPR24_018,19,Male,2024-04-09_13h56.22.932,jersey_experiment_5_v0,2023.2.2,Win32,85.47008547,,,,,,,,,,,,,,,,419.261,420.3082,420.3082,422.6492,return,0.4262,,22.91666667,,,,,,FBP-PT-81.png,0.37,1.2,52,0.25,0,36,36,51,1,,,,,,,,,,,,,,,,,,,,,,,,,,,,,,,,,,,,,,,,
,,,,,SPR24_018,19,Male,2024-04-09_13h56.22.932,jersey_experiment_5_v0,2023.2.2,Win32,85.47008547,,,,,,,,,,,,,,,,422.6493,423.6962,423.6963,425.5906,return,0.4159,,94.79166667,,,,,,FBP-YG-81.png,0.45,1.2,25,0.25,0,37,37,24,1,,,,,,,,,,,,,,,,,,,,,,,,,,,,,,,,,,,,,,,,
,,,,,SPR24_018,19,Male,2024-04-09_13h56.22.932,jersey_experiment_5_v0,2023.2.2,Win32,85.47008547,,,,,,,,,,,,,,,,425.5908,426.8848,426.8848,428.2023,return,0.4111,,72.13541667,,,,,,FBP-OG-19.png,0.43,1.2,14,0.5,0,38,38,13,1,,,,,,,,,,,,,,,,,,,,,,,,,,,,,,,,,,,,,,,,
,,,,,SPR24_018,19,Male,2024-04-09_13h56.22.932,jersey_experiment_5_v0,2023.2.2,Win32,85.47008547,,,,,,,,,,,,,,,,428.2025,429.2494,429.2495,431.1437,return,0.3913,,10.02604167,,,,,,FBP-PT-71.png,0.35,1.2,46,0.25,0,39,39,45,1,,,,,,,,,,,,,,,,,,,,,,,,,,,,,,,,,,,,,,,,
,,,,,SPR24_018,19,Male,2024-04-09_13h56.22.932,jersey_experiment_5_v0,2023.2.2,Win32,85.47008547,,,,,,,,,,,,,,,,431.1439,432.4377,432.4377,434.5203,return,0.4157,,71.61458333,,,,,,FBP-OG-18.png,0.43,1.2,9,0.5,0,40,40,8,1,,,,,,,,,,,,,,,,,,,,,,,,,,,,,,,,,,,,,,,,
,,,,,SPR24_018,19,Male,2024-04-09_13h56.22.932,jersey_experiment_5_v0,2023.2.2,Win32,85.47008547,,,,,,,,,,,,,,,,434.5204,435.5673,435.5674,438.9087,return,0.9173,,49.47916667,,,,,,FBP-YG-81.png,0.37,1.2,22,0.25,0,41,41,21,1,,,,,,,,,,,,,,,,,,,,,,,,,,,,,,,,,,,,,,,,
,,,,,SPR24_018,19,Male,2024-04-09_13h56.22.932,jersey_experiment_5_v0,2023.2.2,Win32,85.47008547,,,,,,,,,,,,,,,,438.9089,439.9558,439.9558,441.4852,return,0.4611,,55.98958333,,,,,,FBP-PT-81.png,0.4,1.2,53,0.25,0,42,42,52,1,,,,,,,,,,,,,,,,,,,,,,,,,,,,,,,,,,,,,,,,
,,,,,SPR24_018,19,Male,2024-04-09_13h56.22.932,jersey_experiment_5_v0,2023.2.2,Win32,85.47008547,,,,,,,,,,,,,,,,441.4854,442.5323,442.5323,443.8029,return,0.4821,,74.34895833,,,,,,FBP-YG-91.png,0.45,1.2,30,0.25,0,43,43,29,1,,,,,,,,,,,,,,,,,,,,,,,,,,,,,,,,,,,,,,,,
,,,,,SPR24_018,19,Male,2024-04-09_13h56.22.932,jersey_experiment_5_v0,2023.2.2,Win32,85.47008547,,,,,,,,,,,,,,,,443.8031,445.0971,445.0971,445.956,return,0.4066,,85.02604167,,,,,,FBP-RB-71.png,0.45,1.2,35,0.5,0,44,44,34,1,,,,,,,,,,,,,,,,,,,,,,,,,,,,,,,,,,,,,,,,
,,,,,SPR24_018,19,Male,2024-04-09_13h56.22.932,jersey_experiment_5_v0,2023.2.2,Win32,85.47008547,,,,,,,,,,,,,,,,445.9562,447.2501,447.2502,448.8854,return,0.4627,,43.75,,,,,,FBP-OG-18.png,0.35,1.2,6,0.5,0,45,45,5,1,,,,,,,,,,,,,,,,,,,,,,,,,,,,,,,,,,,,,,,,
,,,,,SPR24_018,19,Male,2024-04-09_13h56.22.932,jersey_experiment_5_v0,2023.2.2,Win32,85.47008547,,,,,,,,,,,,,,,,448.8857,449.9326,449.9326,452.0739,return,0.4384,,49.34895833,,,,,,FBP-PT-71.png,0.4,1.2,48,0.25,0,46,46,47,1,,,,,,,,,,,,,,,,,,,,,,,,,,,,,,,,,,,,,,,,
,,,,,SPR24_018,19,Male,2024-04-09_13h56.22.932,jersey_experiment_5_v0,2023.2.2,Win32,85.47008547,,,,,,,,,,,,,,,,452.0742,453.1208,453.1208,455.3681,return,0.4025,,94.79166667,,,,,,FBP-YG-71.png,0.45,1.2,20,0.25,0,47,47,19,1,,,,,,,,,,,,,,,,,,,,,,,,,,,,,,,,,,,,,,,,
,,,,,SPR24_018,19,Male,2024-04-09_13h56.22.932,jersey_experiment_5_v0,2023.2.2,Win32,85.47008547,,,,,,,,,,,,,,,,455.3683,456.4152,456.4153,457.7564,return,0.457,,74.34895833,,,,,,FBP-YG-71.png,0.43,1.2,19,0.25,0,48,48,18,1,,,,,,,,,,,,,,,,,,,,,,,,,,,,,,,,,,,,,,,,
,,,,,SPR24_018,19,Male,2024-04-09_13h56.22.932,jersey_experiment_5_v0,2023.2.2,Win32,85.47008547,,,,,,,,,,,,,,,,457.7566,458.8035,458.8035,460.2859,return,0.485,,73.69791667,,,,,,FBP-YG-81.png,0.4,1.2,23,0.25,0,49,49,22,1,,,,,,,,,,,,,,,,,,,,,,,,,,,,,,,,,,,,,,,,
,,,,,SPR24_018,19,Male,2024-04-09_13h56.22.932,jersey_experiment_5_v0,2023.2.2,Win32,85.47008547,,,,,,,,,,,,,,,,460.2862,461.5801,461.5801,463.4154,return,0.4498,,75.78125,,,,,,FBP-OG-18.png,0.45,1.2,10,0.5,0,50,50,9,1,,,,,,,,,,,,,,,,,,,,,,,,,,,,,,,,,,,,,,,,
,,,,,SPR24_018,19,Male,2024-04-09_13h56.22.932,jersey_experiment_5_v0,2023.2.2,Win32,85.47008547,,,,,,,,,,,,,,,,463.4156,464.7096,464.7096,466.4744,return,0.613,,87.5,,,,,,FBP-RB-91.png,0.45,1.2,45,0.5,0,51,51,44,1,,,,,,,,,,,,,,,,,,,,,,,,,,,,,,,,,,,,,,,,
,,,,,SPR24_018,19,Male,2024-04-09_13h56.22.932,jersey_experiment_5_v0,2023.2.2,Win32,85.47008547,,,,,,,,,,,,,,,,466.4746,467.7686,467.7686,469.4863,return,0.4229,,65.88541667,,,,,,FBP-RB-71.png,0.4,1.2,33,0.5,0,52,52,32,1,,,,,,,,,,,,,,,,,,,,,,,,,,,,,,,,,,,,,,,,
,,,,,SPR24_018,19,Male,2024-04-09_13h56.22.932,jersey_experiment_5_v0,2023.2.2,Win32,85.47008547,,,,,,,,,,,,,,,,469.4865,470.7805,470.7805,472.1099,return,0.5173,,78.64583333,,,,,,FBP-OG-17.png,0.45,1.2,5,0.5,0,53,53,4,1,,,,,,,,,,,,,,,,,,,,,,,,,,,,,,,,,,,,,,,,
,,,,,SPR24_018,19,Male,2024-04-09_13h56.22.932,jersey_experiment_5_v0,2023.2.2,Win32,85.47008547,,,,,,,,,,,,,,,,472.1101,473.157,473.157,475.3572,return,0.5047,,74.609375,,,,,,FBP-YG-81.png,0.43,1.2,24,0.25,0,54,54,23,1,,,,,,,,,,,,,,,,,,,,,,,,,,,,,,,,,,,,,,,,
,,,,,SPR24_018,19,Male,2024-04-09_13h56.22.932,jersey_experiment_5_v0,2023.2.2,Win32,85.47008547,,,,,,,,,,,,,,,,475.3574,476.4042,476.4042,477.769,return,0.5554,,74.609375,,,,,,FBP-YG-91.png,0.43,1.2,29,0.25,0,55,55,28,1,,,,,,,,,,,,,,,,,,,,,,,,,,,,,,,,,,,,,,,,
,,,,,SPR24_018,19,Male,2024-04-09_13h56.22.932,jersey_experiment_5_v0,2023.2.2,Win32,85.47008547,,,,,,,,,,,,,,,,477.7692,478.8159,478.8159,481.2513,return,0.4204,,7.8125,,,,,,FBP-PT-91.png,0.35,1.2,56,0.25,0,56,56,55,1,,,,,,,,,,,,,,,,,,,,,,,,,,,,,,,,,,,,,,,,
,,,,,SPR24_018,19,Male,2024-04-09_13h56.22.932,jersey_experiment_5_v0,2023.2.2,Win32,85.47008547,,,,,,,,,,,,,,,,481.2515,482.2985,482.2985,484.6513,return,0.7161,,71.09375,,,,,,FBP-PT-91.png,0.43,1.2,59,0.25,0,57,57,58,1,,,,,,,,,,,,,,,,,,,,,,,,,,,,,,,,,,,,,,,,
,,,,,SPR24_018,19,Male,2024-04-09_13h56.22.932,jersey_experiment_5_v0,2023.2.2,Win32,85.47008547,,,,,,,,,,,,,,,,484.6515,485.6986,485.6988,488.7341,return,0.6015,,6.901041667,,,,,,FBP-YG-71.png,0.35,1.2,16,0.25,0,58,58,15,1,,,,,,,,,,,,,,,,,,,,,,,,,,,,,,,,,,,,,,,,
,,,,,SPR24_018,19,Male,2024-04-09_13h56.22.932,jersey_experiment_5_v0,2023.2.2,Win32,85.47008547,,,,,,,,,,,,,,,,488.7343,489.7811,489.7811,491.8165,return,1.555,,6.901041667,,,,,,FBP-YG-71.png,0.37,1.2,17,0.25,0,59,59,16,1,,,,,,,,,,,,,,,,,,,,,,,,,,,,,,,,,,,,,,,,
,,,,,SPR24_018,19,Male,2024-04-09_13h56.22.932,jersey_experiment_5_v0,2023.2.2,Win32,85.47008547,,,,,,,,,,,,,,,,,,,,,,,,,,,,,,,,,,,,,,,491.8169,611.8095,,,,,,,,,,,,,,,,,,,,,,,,,,,,,,,,,,,,,,
,,,,,SPR24_018,19,Male,2024-04-09_13h56.22.932,jersey_experiment_5_v0,2023.2.2,Win32,85.47008547,,,,,,,,,,,,,,,,,,,,,,,,,,,,,,,,,,,,,,,,,611.8096,614.4565,return,2.6376,,,,,,,,,,,,,,,,,,,,,,,,,,,,,,,,,,
,,,,,SPR24_018,19,Male,2024-04-09_13h56.22.932,jersey_experiment_5_v0,2023.2.2,Win32,85.47008547,,,,,,,,,,,,,,,,614.4627,615.5153,615.5153,617.4446,return,0.3955,,72.00520833,,,,,,FBP-RB-17.png,0.43,1.2,34,0.25,,,,,,,,,,,,,0,0,0,33,1,,,,,,,,,,,,,,,,,,,,,,,,,,,,
,,,,,SPR24_018,19,Male,2024-04-09_13h56.22.932,jersey_experiment_5_v0,2023.2.2,Win32,85.47008547,,,,,,,,,,,,,,,,617.445,618.4919,618.4919,619.7861,return,0.3785,,78.77604167,,,,,,FBP-OG-81.png,0.45,1.2,10,0.25,,,,,,,,,,,,,0,1,1,9,1,,,,,,,,,,,,,,,,,,,,,,,,,,,,
,,,,,SPR24_018,19,Male,2024-04-09_13h56.22.932,jersey_experiment_5_v0,2023.2.2,Win32,85.47008547,,,,,,,,,,,,,,,,619.7864,620.8331,620.8331,622.4096,return,0.5783,,73.69791667,,,,,,FBP-OG-71.png,0.43,1.2,4,0.25,,,,,,,,,,,,,0,2,2,3,1,,,,,,,,,,,,,,,,,,,,,,,,,,,,
,,,,,SPR24_018,19,Male,2024-04-09_13h56.22.932,jersey_experiment_5_v0,2023.2.2,Win32,85.47008547,,,,,,,,,,,,,,,,622.4099,623.4566,623.4567,626.5981,return,1.7825,,45.96354167,,,,,,FBP-OG-91.png,0.35,1.2,11,0.25,,,,,,,,,,,,,0,3,3,10,1,,,,,,,,,,,,,,,,,,,,,,,,,,,,
,,,,,SPR24_018,19,Male,2024-04-09_13h56.22.932,jersey_experiment_5_v0,2023.2.2,Win32,85.47008547,,,,,,,,,,,,,,,,626.5984,627.645,627.6451,629.1745,return,0.4616,,76.04166667,,,,,,FBP-OG-71.png,0.45,1.2,5,0.25,,,,,,,,,,,,,0,4,4,4,1,,,,,,,,,,,,,,,,,,,,,,,,,,,,
,,,,,SPR24_018,19,Male,2024-04-09_13h56.22.932,jersey_experiment_5_v0,2023.2.2,Win32,85.47008547,,,,,,,,,,,,,,,,629.1747,630.4686,630.4687,631.4923,return,0.443,,79.81770833,,,,,,FBP-YG-19.png,0.45,1.2,30,0.5,,,,,,,,,,,,,0,5,5,29,1,,,,,,,,,,,,,,,,,,,,,,,,,,,,
,,,,,SPR24_018,19,Male,2024-04-09_13h56.22.932,jersey_experiment_5_v0,2023.2.2,Win32,85.47008547,,,,,,,,,,,,,,,,631.4926,632.7865,632.7865,634.3394,return,0.5944,,74.609375,,,,,,FBP-PT-18.png,0.43,1.2,54,0.5,,,,,,,,,,,,,0,6,6,53,1,,,,,,,,,,,,,,,,,,,,,,,,,,,,
,,,,,SPR24_018,19,Male,2024-04-09_13h56.22.932,jersey_experiment_5_v0,2023.2.2,Win32,85.47008547,,,,,,,,,,,,,,,,634.3397,635.3865,635.3866,637.9278,return,0.7204,,23.4375,,,,,,FBP-RB-17.png,0.4,1.2,33,0.25,,,,,,,,,,,,,0,7,7,32,1,,,,,,,,,,,,,,,,,,,,,,,,,,,,
,,,,,SPR24_018,19,Male,2024-04-09_13h56.22.932,jersey_experiment_5_v0,2023.2.2,Win32,85.47008547,,,,,,,,,,,,,,,,637.928,638.975,638.975,640.4455,return,0.3536,,22.265625,,,,,,FBP-OG-81.png,0.37,1.2,7,0.25,,,,,,,,,,,,,0,8,8,6,1,,,,,,,,,,,,,,,,,,,,,,,,,,,,
,,,,,SPR24_018,19,Male,2024-04-09_13h56.22.932,jersey_experiment_5_v0,2023.2.2,Win32,85.47008547,,,,,,,,,,,,,,,,640.4457,641.7397,641.7397,643.0693,return,0.4235,,62.76041667,,,,,,FBP-YG-17.png,0.4,1.2,18,0.5,,,,,,,,,,,,,0,9,9,17,1,,,,,,,,,,,,,,,,,,,,,,,,,,,,
,,,,,SPR24_018,19,Male,2024-04-09_13h56.22.932,jersey_experiment_5_v0,2023.2.2,Win32,85.47008547,,,,,,,,,,,,,,,,643.0696,644.3633,644.3633,645.4459,return,0.4509,,73.56770833,,,,,,FBP-YG-17.png,0.45,1.2,20,0.5,,,,,,,,,,,,,0,10,10,19,1,,,,,,,,,,,,,,,,,,,,,,,,,,,,
,,,,,SPR24_018,19,Male,2024-04-09_13h56.22.932,jersey_experiment_5_v0,2023.2.2,Win32,85.47008547,,,,,,,,,,,,,,,,645.4461,646.4928,646.4928,647.5635,return,0.4952,,74.21875,,,,,,FBP-RB-19.png,0.45,1.2,45,0.25,,,,,,,,,,,,,0,11,11,44,1,,,,,,,,,,,,,,,,,,,,,,,,,,,,
,,,,,SPR24_018,19,Male,2024-04-09_13h56.22.932,jersey_experiment_5_v0,2023.2.2,Win32,85.47008547,,,,,,,,,,,,,,,,647.5637,648.6105,648.6106,650.2225,return,0.4369,,24.47916667,,,,,,FBP-OG-91.png,0.4,1.2,13,0.25,,,,,,,,,,,,,0,12,12,12,1,,,,,,,,,,,,,,,,,,,,,,,,,,,,
,,,,,SPR24_018,19,Male,2024-04-09_13h56.22.932,jersey_experiment_5_v0,2023.2.2,Win32,85.47008547,,,,,,,,,,,,,,,,650.2227,651.5166,651.5166,652.8461,return,0.4579,,65.88541667,,,,,,FBP-YG-19.png,0.43,1.2,29,0.5,,,,,,,,,,,,,0,13,13,28,1,,,,,,,,,,,,,,,,,,,,,,,,,,,,
,,,,,SPR24_018,19,Male,2024-04-09_13h56.22.932,jersey_experiment_5_v0,2023.2.2,Win32,85.47008547,,,,,,,,,,,,,,,,652.8463,653.893,653.893,655.8344,return,0.4488,,74.21875,,,,,,FBP-OG-81.png,0.43,1.2,9,0.25,,,,,,,,,,,,,0,14,14,8,1,,,,,,,,,,,,,,,,,,,,,,,,,,,,
,,,,,SPR24_018,19,Male,2024-04-09_13h56.22.932,jersey_experiment_5_v0,2023.2.2,Win32,85.47008547,,,,,,,,,,,,,,,,655.8346,656.8815,656.8815,658.0581,return,0.5079,,80.59895833,,,,,,FBP-RB-18.png,0.45,1.2,40,0.25,,,,,,,,,,,,,0,15,15,39,1,,,,,,,,,,,,,,,,,,,,,,,,,,,,
,,,,,SPR24_018,19,Male,2024-04-09_13h56.22.932,jersey_experiment_5_v0,2023.2.2,Win32,85.47008547,,,,,,,,,,,,,,,,658.0583,659.105,659.1051,660.1403,return,0.4565,,81.77083333,,,,,,FBP-OG-91.png,0.45,1.2,15,0.25,,,,,,,,,,,,,0,16,16,14,1,,,,,,,,,,,,,,,,,,,,,,,,,,,,
,,,,,SPR24_018,19,Male,2024-04-09_13h56.22.932,jersey_experiment_5_v0,2023.2.2,Win32,85.47008547,,,,,,,,,,,,,,,,660.1405,661.4345,661.4346,663.0465,return,0.4502,,25.52083333,,,,,,FBP-YG-17.png,0.37,1.2,17,0.5,,,,,,,,,,,,,0,17,17,16,1,,,,,,,,,,,,,,,,,,,,,,,,,,,,
,,,,,SPR24_018,19,Male,2024-04-09_13h56.22.932,jersey_experiment_5_v0,2023.2.2,Win32,85.47008547,,,,,,,,,,,,,,,,663.0467,664.3406,664.3406,665.47,return,0.5637,,24.34895833,,,,,,FBP-YG-19.png,0.4,1.2,28,0.5,,,,,,,,,,,,,0,18,18,27,1,,,,,,,,,,,,,,,,,,,,,,,,,,,,
,,,,,SPR24_018,19,Male,2024-04-09_13h56.22.932,jersey_experiment_5_v0,2023.2.2,Win32,85.47008547,,,,,,,,,,,,,,,,665.4703,666.7642,666.7643,668.4585,return,0.4454,,71.875,,,,,,FBP-YG-18.png,0.43,1.2,24,0.5,,,,,,,,,,,,,0,19,19,23,1,,,,,,,,,,,,,,,,,,,,,,,,,,,,
,,,,,SPR24_018,19,Male,2024-04-09_13h56.22.932,jersey_experiment_5_v0,2023.2.2,Win32,85.47008547,,,,,,,,,,,,,,,,668.4587,669.7525,669.7526,671.2115,return,0.4147,,6.380208333,,,,,,FBP-PT-19.png,0.35,1.2,56,0.5,,,,,,,,,,,,,0,20,20,55,1,,,,,,,,,,,,,,,,,,,,,,,,,,,,
,,,,,SPR24_018,19,Male,2024-04-09_13h56.22.932,jersey_experiment_5_v0,2023.2.2,Win32,85.47008547,,,,,,,,,,,,,,,,671.2117,672.5054,672.5055,674.035,return,0.5383,,75.91145833,,,,,,FBP-PT-19.png,0.43,1.2,59,0.5,,,,,,,,,,,,,0,21,21,58,1,,,,,,,,,,,,,,,,,,,,,,,,,,,,
,,,,,SPR24_018,19,Male,2024-04-09_13h56.22.932,jersey_experiment_5_v0,2023.2.2,Win32,85.47008547,,,,,,,,,,,,,,,,674.0352,675.0822,675.0822,678.153,return,2.0488,,16.40625,,,,,,FBP-RB-19.png,0.35,1.2,41,0.25,,,,,,,,,,,,,0,22,22,40,1,,,,,,,,,,,,,,,,,,,,,,,,,,,,
,,,,,SPR24_018,19,Male,2024-04-09_13h56.22.932,jersey_experiment_5_v0,2023.2.2,Win32,85.47008547,,,,,,,,,,,,,,,,678.1531,679.1998,679.1999,682.5883,return,0.73,,50.65104167,,,,,,FBP-RB-18.png,0.4,1.2,38,0.25,,,,,,,,,,,,,0,23,23,37,1,,,,,,,,,,,,,,,,,,,,,,,,,,,,
,,,,,SPR24_018,19,Male,2024-04-09_13h56.22.932,jersey_experiment_5_v0,2023.2.2,Win32,85.47008547,,,,,,,,,,,,,,,,682.5886,683.6352,683.6354,685.6591,return,1.0016,,87.109375,,,,,,FBP-RB-17.png,0.45,1.2,35,0.25,,,,,,,,,,,,,0,24,24,34,1,,,,,,,,,,,,,,,,,,,,,,,,,,,,
,,,,,SPR24_018,19,Male,2024-04-09_13h56.22.932,jersey_experiment_5_v0,2023.2.2,Win32,85.47008547,,,,,,,,,,,,,,,,685.6594,686.7061,686.7061,691.3182,return,3.8985,,49.609375,,,,,,FBP-OG-81.png,0.4,1.2,8,0.25,,,,,,,,,,,,,0,25,25,7,1,,,,,,,,,,,,,,,,,,,,,,,,,,,,
,,,,,SPR24_018,19,Male,2024-04-09_13h56.22.932,jersey_experiment_5_v0,2023.2.2,Win32,85.47008547,,,,,,,,,,,,,,,,691.3183,692.3653,692.3653,693.8123,return,0.4314,,23.4375,,,,,,FBP-RB-18.png,0.35,1.2,36,0.25,,,,,,,,,,,,,0,26,26,35,1,,,,,,,,,,,,,,,,,,,,,,,,,,,,
,,,,,SPR24_018,19,Male,2024-04-09_13h56.22.932,jersey_experiment_5_v0,2023.2.2,Win32,85.47008547,,,,,,,,,,,,,,,,693.8125,694.8594,694.8594,696.3889,return,0.4422,,76.69270833,,,,,,FBP-RB-19.png,0.43,1.2,44,0.25,,,,,,,,,,,,,0,27,27,43,1,,,,,,,,,,,,,,,,,,,,,,,,,,,,
,,,,,SPR24_018,19,Male,2024-04-09_13h56.22.932,jersey_experiment_5_v0,2023.2.2,Win32,85.47008547,,,,,,,,,,,,,,,,696.3891,697.6831,697.6832,698.9536,return,0.4241,,21.22395833,,,,,,FBP-YG-18.png,0.35,1.2,21,0.5,,,,,,,,,,,,,0,28,28,20,1,,,,,,,,,,,,,,,,,,,,,,,,,,,,
,,,,,SPR24_018,19,Male,2024-04-09_13h56.22.932,jersey_experiment_5_v0,2023.2.2,Win32,85.47008547,,,,,,,,,,,,,,,,698.9539,700.2478,700.2478,702.4831,return,1.1132,,60.15625,,,,,,FBP-YG-19.png,0.37,1.2,27,0.5,,,,,,,,,,,,,0,29,29,26,1,,,,,,,,,,,,,,,,,,,,,,,,,,,,
,,,,,SPR24_018,19,Male,2024-04-09_13h56.22.932,jersey_experiment_5_v0,2023.2.2,Win32,85.47008547,,,,,,,,,,,,,,,,702.4834,703.7775,703.7776,705.3186,return,0.4157,,79.16666667,,,,,,FBP-YG-18.png,0.45,1.2,25,0.5,,,,,,,,,,,,,0,30,30,24,1,,,,,,,,,,,,,,,,,,,,,,,,,,,,
,,,,,SPR24_018,19,Male,2024-04-09_13h56.22.932,jersey_experiment_5_v0,2023.2.2,Win32,85.47008547,,,,,,,,,,,,,,,,705.3189,706.3655,706.3656,709.0482,return,0.4023,,69.40104167,,,,,,FBP-RB-19.png,0.4,1.2,43,0.25,,,,,,,,,,,,,0,31,31,42,1,,,,,,,,,,,,,,,,,,,,,,,,,,,,
,,,,,SPR24_018,19,Male,2024-04-09_13h56.22.932,jersey_experiment_5_v0,2023.2.2,Win32,85.47008547,,,,,,,,,,,,,,,,709.0484,710.3422,710.3423,713.6367,return,2.1942,,87.23958333,,,,,,FBP-PT-17.png,0.45,1.2,50,0.5,,,,,,,,,,,,,0,32,32,49,1,,,,,,,,,,,,,,,,,,,,,,,,,,,,
,,,,,SPR24_018,19,Male,2024-04-09_13h56.22.932,jersey_experiment_5_v0,2023.2.2,Win32,85.47008547,,,,,,,,,,,,,,,,713.6369,714.9306,714.9307,718.6365,return,0.4565,,44.921875,,,,,,FBP-PT-17.png,0.37,1.2,47,0.5,,,,,,,,,,,,,0,33,33,46,1,,,,,,,,,,,,,,,,,,,,,,,,,,,,
,,,,,SPR24_018,19,Male,2024-04-09_13h56.22.932,jersey_experiment_5_v0,2023.2.2,Win32,85.47008547,,,,,,,,,,,,,,,,718.6367,719.6838,719.6838,721.0015,return,0.4012,,60.28645833,,,,,,FBP-RB-18.png,0.43,1.2,39,0.25,,,,,,,,,,,,,0,34,34,38,1,,,,,,,,,,,,,,,,,,,,,,,,,,,,
,,,,,SPR24_018,19,Male,2024-04-09_13h56.22.932,jersey_experiment_5_v0,2023.2.2,Win32,85.47008547,,,,,,,,,,,,,,,,721.0019,722.2957,722.2957,724.731,return,1.0361,,49.73958333,,,,,,FBP-PT-19.png,0.37,1.2,57,0.5,,,,,,,,,,,,,0,35,35,56,1,,,,,,,,,,,,,,,,,,,,,,,,,,,,
,,,,,SPR24_018,19,Male,2024-04-09_13h56.22.932,jersey_experiment_5_v0,2023.2.2,Win32,85.47008547,,,,,,,,,,,,,,,,724.7313,726.0253,726.0254,728.5193,return,1.002,,38.80208333,,,,,,FBP-PT-17.png,0.35,1.2,46,0.5,,,,,,,,,,,,,0,36,36,45,1,,,,,,,,,,,,,,,,,,,,,,,,,,,,
,,,,,SPR24_018,19,Male,2024-04-09_13h56.22.932,jersey_experiment_5_v0,2023.2.2,Win32,85.47008547,,,,,,,,,,,,,,,,728.5194,729.8135,729.8136,731.4137,return,0.4405,,32.55208333,,,,,,FBP-PT-18.png,0.35,1.2,51,0.5,,,,,,,,,,,,,0,37,37,50,1,,,,,,,,,,,,,,,,,,,,,,,,,,,,
,,,,,SPR24_018,19,Male,2024-04-09_13h56.22.932,jersey_experiment_5_v0,2023.2.2,Win32,85.47008547,,,,,,,,,,,,,,,,731.4139,732.7078,732.7078,733.7197,return,0.5561,,32.68229167,,,,,,FBP-PT-18.png,0.37,1.2,52,0.5,,,,,,,,,,,,,0,38,38,51,1,,,,,,,,,,,,,,,,,,,,,,,,,,,,
,,,,,SPR24_018,19,Male,2024-04-09_13h56.22.932,jersey_experiment_5_v0,2023.2.2,Win32,85.47008547,,,,,,,,,,,,,,,,733.7199,734.7667,734.7668,736.5197,return,0.4279,,32.03125,,,,,,FBP-RB-17.png,0.35,1.2,31,0.25,,,,,,,,,,,,,0,39,39,30,1,,,,,,,,,,,,,,,,,,,,,,,,,,,,
,,,,,SPR24_018,19,Male,2024-04-09_13h56.22.932,jersey_experiment_5_v0,2023.2.2,Win32,85.47008547,,,,,,,,,,,,,,,,736.5199,737.8138,737.8138,739.0139,return,0.3696,,60.28645833,,,,,,FBP-YG-17.png,0.43,1.2,19,0.5,,,,,,,,,,,,,0,40,40,18,1,,,,,,,,,,,,,,,,,,,,,,,,,,,,
,,,,,SPR24_018,19,Male,2024-04-09_13h56.22.932,jersey_experiment_5_v0,2023.2.2,Win32,85.47008547,,,,,,,,,,,,,,,,739.0141,740.3081,740.3082,742.5082,return,0.3668,,47.13541667,,,,,,FBP-YG-19.png,0.35,1.2,26,0.5,,,,,,,,,,,,,0,41,41,25,1,,,,,,,,,,,,,,,,,,,,,,,,,,,,
,,,,,SPR24_018,19,Male,2024-04-09_13h56.22.932,jersey_experiment_5_v0,2023.2.2,Win32,85.47008547,,,,,,,,,,,,,,,,742.5085,743.5553,743.5553,744.7788,return,0.3772,,46.61458333,,,,,,FBP-OG-81.png,0.35,1.2,6,0.25,,,,,,,,,,,,,0,42,42,5,1,,,,,,,,,,,,,,,,,,,,,,,,,,,,
,,,,,SPR24_018,19,Male,2024-04-09_13h56.22.932,jersey_experiment_5_v0,2023.2.2,Win32,85.47008547,,,,,,,,,,,,,,,,744.7791,746.073,746.073,747.8967,return,0.7684,,75.390625,,,,,,FBP-PT-17.png,0.43,1.2,49,0.5,,,,,,,,,,,,,0,43,43,48,1,,,,,,,,,,,,,,,,,,,,,,,,,,,,
,,,,,SPR24_018,19,Male,2024-04-09_13h56.22.932,jersey_experiment_5_v0,2023.2.2,Win32,85.47008547,,,,,,,,,,,,,,,,747.897,749.1907,749.1908,749.9437,return,0.4727,,75.26041667,,,,,,FBP-PT-17.png,0.4,1.2,48,0.5,,,,,,,,,,,,,0,44,44,47,1,,,,,,,,,,,,,,,,,,,,,,,,,,,,
,,,,,SPR24_018,19,Male,2024-04-09_13h56.22.932,jersey_experiment_5_v0,2023.2.2,Win32,85.47008547,,,,,,,,,,,,,,,,749.9439,750.9908,750.9908,752.6027,return,0.414,,75.26041667,,,,,,FBP-OG-71.png,0.4,1.2,3,0.25,,,,,,,,,,,,,0,45,45,2,1,,,,,,,,,,,,,,,,,,,,,,,,,,,,
,,,,,SPR24_018,19,Male,2024-04-09_13h56.22.932,jersey_experiment_5_v0,2023.2.2,Win32,85.47008547,,,,,,,,,,,,,,,,752.6029,753.8969,753.8969,756.6145,return,0.6981,,28.90625,,,,,,FBP-YG-17.png,0.35,1.2,16,0.5,,,,,,,,,,,,,0,46,46,15,1,,,,,,,,,,,,,,,,,,,,,,,,,,,,
,,,,,SPR24_018,19,Male,2024-04-09_13h56.22.932,jersey_experiment_5_v0,2023.2.2,Win32,85.47008547,,,,,,,,,,,,,,,,756.6148,757.6617,757.6618,759.4853,return,0.4,,57.29166667,,,,,,FBP-OG-91.png,0.43,1.2,14,0.25,,,,,,,,,,,,,0,47,47,13,1,,,,,,,,,,,,,,,,,,,,,,,,,,,,
,,,,,SPR24_018,19,Male,2024-04-09_13h56.22.932,jersey_experiment_5_v0,2023.2.2,Win32,85.47008547,,,,,,,,,,,,,,,,759.4854,760.5324,760.5325,763.1091,return,0.5483,,54.6875,,,,,,FBP-RB-19.png,0.37,1.2,42,0.25,,,,,,,,,,,,,0,48,48,41,1,,,,,,,,,,,,,,,,,,,,,,,,,,,,
,,,,,SPR24_018,19,Male,2024-04-09_13h56.22.932,jersey_experiment_5_v0,2023.2.2,Win32,85.47008547,,,,,,,,,,,,,,,,763.1092,764.156,764.156,766.3914,return,0.4254,,50,,,,,,FBP-RB-18.png,0.37,1.2,37,0.25,,,,,,,,,,,,,0,49,49,36,1,,,,,,,,,,,,,,,,,,,,,,,,,,,,
,,,,,SPR24_018,19,Male,2024-04-09_13h56.22.932,jersey_experiment_5_v0,2023.2.2,Win32,85.47008547,,,,,,,,,,,,,,,,766.3917,767.4386,767.4386,769.4386,return,0.9649,,55.59895833,,,,,,FBP-OG-91.png,0.37,1.2,12,0.25,,,,,,,,,,,,,0,50,50,11,1,,,,,,,,,,,,,,,,,,,,,,,,,,,,
,,,,,SPR24_018,19,Male,2024-04-09_13h56.22.932,jersey_experiment_5_v0,2023.2.2,Win32,85.47008547,,,,,,,,,,,,,,,,769.4388,770.733,770.7331,772.1563,return,0.4378,,80.72916667,,,,,,FBP-PT-19.png,0.45,1.2,60,0.5,,,,,,,,,,,,,0,51,51,59,1,,,,,,,,,,,,,,,,,,,,,,,,,,,,
,,,,,SPR24_018,19,Male,2024-04-09_13h56.22.932,jersey_experiment_5_v0,2023.2.2,Win32,85.47008547,,,,,,,,,,,,,,,,772.1567,773.2034,773.2034,775.933,return,1.3178,,75.390625,,,,,,FBP-RB-17.png,0.37,1.2,32,0.25,,,,,,,,,,,,,0,52,52,31,1,,,,,,,,,,,,,,,,,,,,,,,,,,,,
,,,,,SPR24_018,19,Male,2024-04-09_13h56.22.932,jersey_experiment_5_v0,2023.2.2,Win32,85.47008547,,,,,,,,,,,,,,,,775.9332,776.98,776.98,778.533,return,0.429,,57.03125,,,,,,FBP-OG-71.png,0.37,1.2,2,0.25,,,,,,,,,,,,,0,53,53,1,1,,,,,,,,,,,,,,,,,,,,,,,,,,,,
,,,,,SPR24_018,19,Male,2024-04-09_13h56.22.932,jersey_experiment_5_v0,2023.2.2,Win32,85.47008547,,,,,,,,,,,,,,,,778.5331,779.5801,779.5801,782.0391,return,0.3699,,56.640625,,,,,,FBP-OG-71.png,0.35,1.2,1,0.25,,,,,,,,,,,,,0,54,54,0,1,,,,,,,,,,,,,,,,,,,,,,,,,,,,
,,,,,SPR24_018,19,Male,2024-04-09_13h56.22.932,jersey_experiment_5_v0,2023.2.2,Win32,85.47008547,,,,,,,,,,,,,,,,782.0394,783.3333,783.3333,785.1568,return,0.76,,69.921875,,,,,,FBP-PT-19.png,0.4,1.2,58,0.5,,,,,,,,,,,,,0,55,55,57,1,,,,,,,,,,,,,,,,,,,,,,,,,,,,
,,,,,SPR24_018,19,Male,2024-04-09_13h56.22.932,jersey_experiment_5_v0,2023.2.2,Win32,85.47008547,,,,,,,,,,,,,,,,785.157,786.4509,786.4509,789.4629,return,0.4618,,69.79166667,,,,,,FBP-PT-18.png,0.4,1.2,53,0.5,,,,,,,,,,,,,0,56,56,52,1,,,,,,,,,,,,,,,,,,,,,,,,,,,,
,,,,,SPR24_018,19,Male,2024-04-09_13h56.22.932,jersey_experiment_5_v0,2023.2.2,Win32,85.47008547,,,,,,,,,,,,,,,,789.4631,790.7569,790.757,792.2865,return,0.5284,,72.78645833,,,,,,FBP-YG-18.png,0.4,1.2,23,0.5,,,,,,,,,,,,,0,57,57,22,1,,,,,,,,,,,,,,,,,,,,,,,,,,,,
,,,,,SPR24_018,19,Male,2024-04-09_13h56.22.932,jersey_experiment_5_v0,2023.2.2,Win32,85.47008547,,,,,,,,,,,,,,,,792.2867,793.5807,793.5807,794.7454,return,0.8848,,72.52604167,,,,,,FBP-YG-18.png,0.37,1.2,22,0.5,,,,,,,,,,,,,0,58,58,21,1,,,,,,,,,,,,,,,,,,,,,,,,,,,,
,,,,,SPR24_018,19,Male,2024-04-09_13h56.22.932,jersey_experiment_5_v0,2023.2.2,Win32,85.47008547,,,,,,,,,,,,,,,,794.7456,796.0396,796.0397,797.8986,return,1.3309,,82.55208333,,,,,,FBP-PT-18.png,0.45,1.2,55,0.5,,,,,,,,,,,,,0,59,59,54,1,,,,,,,,,,,,,,,,,,,,,,,,,,,,
,,,,,SPR24_018,19,Male,2024-04-09_13h56.22.932,jersey_experiment_5_v0,2023.2.2,Win32,85.47008547,,,,,,,,,,,,,,,,797.9005,798.9455,798.9455,800.6633,return,0.6166,,82.55208333,,,,,,FBP-RB-91.png,0.43,1.2,44,0.25,,,,,,,,,,,,,,,,,,0,0,0,43,1,,,,,,,,,,,,,,,,,,,,,,,
,,,,,SPR24_018,19,Male,2024-04-09_13h56.22.932,jersey_experiment_5_v0,2023.2.2,Win32,85.47008547,,,,,,,,,,,,,,,,800.6636,801.9574,801.9575,803.6046,return,0.4309,,88.93229167,,,,,,FBP-YG-91.png,0.45,1.2,30,0.5,,,,,,,,,,,,,,,,,,0,1,1,29,1,,,,,,,,,,,,,,,,,,,,,,,
,,,,,SPR24_018,19,Male,2024-04-09_13h56.22.932,jersey_experiment_5_v0,2023.2.2,Win32,85.47008547,,,,,,,,,,,,,,,,803.6047,804.8987,804.8987,806.4282,return,0.5284,,84.11458333,,,,,,FBP-PT-91.png,0.4,1.2,58,0.5,,,,,,,,,,,,,,,,,,0,2,2,57,1,,,,,,,,,,,,,,,,,,,,,,,
,,,,,SPR24_018,19,Male,2024-04-09_13h56.22.932,jersey_experiment_5_v0,2023.2.2,Win32,85.47008547,,,,,,,,,,,,,,,,806.4283,807.7224,807.7225,809.146,return,0.8008,,89.71354167,,,,,,FBP-YG-81.png,0.45,1.2,25,0.5,,,,,,,,,,,,,,,,,,0,3,3,24,1,,,,,,,,,,,,,,,,,,,,,,,
,,,,,SPR24_018,19,Male,2024-04-09_13h56.22.932,jersey_experiment_5_v0,2023.2.2,Win32,85.47008547,,,,,,,,,,,,,,,,809.1463,810.4401,810.4401,812.652,return,1.2467,,89.32291667,,,,,,FBP-YG-81.png,0.43,1.2,24,0.5,,,,,,,,,,,,,,,,,,0,4,4,23,1,,,,,,,,,,,,,,,,,,,,,,,
,,,,,SPR24_018,19,Male,2024-04-09_13h56.22.932,jersey_experiment_5_v0,2023.2.2,Win32,85.47008547,,,,,,,,,,,,,,,,812.6521,813.699,813.6991,816.4285,return,0.4098,,77.86458333,,,,,,FBP-OG-17.png,0.45,1.2,5,0.25,,,,,,,,,,,,,,,,,,0,5,5,4,1,,,,,,,,,,,,,,,,,,,,,,,
,,,,,SPR24_018,19,Male,2024-04-09_13h56.22.932,jersey_experiment_5_v0,2023.2.2,Win32,85.47008547,,,,,,,,,,,,,,,,816.4288,817.7227,817.7228,818.6169,return,0.4267,,80.46875,,,,,,FBP-YG-71.png,0.45,1.2,20,0.5,,,,,,,,,,,,,,,,,,0,6,6,19,1,,,,,,,,,,,,,,,,,,,,,,,
,,,,,SPR24_018,19,Male,2024-04-09_13h56.22.932,jersey_experiment_5_v0,2023.2.2,Win32,85.47008547,,,,,,,,,,,,,,,,818.6171,819.9111,819.9111,822.7112,return,1.9906,,35.9375,,,,,,FBP-YG-81.png,0.35,1.2,21,0.5,,,,,,,,,,,,,,,,,,0,7,7,20,1,,,,,,,,,,,,,,,,,,,,,,,
,,,,,SPR24_018,19,Male,2024-04-09_13h56.22.932,jersey_experiment_5_v0,2023.2.2,Win32,85.47008547,,,,,,,,,,,,,,,,822.7113,824.0053,824.0053,825.3819,return,0.4512,,6.640625,,,,,,FBP-YG-71.png,0.35,1.2,16,0.5,,,,,,,,,,,,,,,,,,0,8,8,15,1,,,,,,,,,,,,,,,,,,,,,,,
,,,,,SPR24_018,19,Male,2024-04-09_13h56.22.932,jersey_experiment_5_v0,2023.2.2,Win32,85.47008547,,,,,,,,,,,,,,,,825.3822,826.429,826.429,828.3585,return,0.335,,22.52604167,,,,,,FBP-RB-71.png,0.35,1.2,31,0.25,,,,,,,,,,,,,,,,,,0,9,9,30,1,,,,,,,,,,,,,,,,,,,,,,,
,,,,,SPR24_018,19,Male,2024-04-09_13h56.22.932,jersey_experiment_5_v0,2023.2.2,Win32,85.47008547,,,,,,,,,,,,,,,,828.3587,829.6525,829.6525,830.935,return,0.4034,,58.07291667,,,,,,FBP-PT-91.png,0.43,1.2,59,0.5,,,,,,,,,,,,,,,,,,0,10,10,58,1,,,,,,,,,,,,,,,,,,,,,,,
,,,,,SPR24_018,19,Male,2024-04-09_13h56.22.932,jersey_experiment_5_v0,2023.2.2,Win32,85.47008547,,,,,,,,,,,,,,,,830.9352,832.2292,832.2292,833.4999,return,0.4602,,42.44791667,,,,,,FBP-YG-91.png,0.37,1.2,27,0.5,,,,,,,,,,,,,,,,,,0,11,11,26,1,,,,,,,,,,,,,,,,,,,,,,,
,,,,,SPR24_018,19,Male,2024-04-09_13h56.22.932,jersey_experiment_5_v0,2023.2.2,Win32,85.47008547,,,,,,,,,,,,,,,,833.5001,834.5468,834.5469,835.6882,return,0.4246,,36.97916667,,,,,,FBP-OG-18.png,0.35,1.2,6,0.25,,,,,,,,,,,,,,,,,,0,12,12,5,1,,,,,,,,,,,,,,,,,,,,,,,
,,,,,SPR24_018,19,Male,2024-04-09_13h56.22.932,jersey_experiment_5_v0,2023.2.2,Win32,85.47008547,,,,,,,,,,,,,,,,835.6884,836.7352,836.7352,838.3942,return,0.3907,,52.34375,,,,,,FBP-OG-19.png,0.4,1.2,13,0.25,,,,,,,,,,,,,,,,,,0,13,13,12,1,,,,,,,,,,,,,,,,,,,,,,,
,,,,,SPR24_018,19,Male,2024-04-09_13h56.22.932,jersey_experiment_5_v0,2023.2.2,Win32,85.47008547,,,,,,,,,,,,,,,,838.3944,839.4411,839.4412,841.7706,return,1.5542,,76.69270833,,,,,,FBP-RB-71.png,0.45,1.2,35,0.25,,,,,,,,,,,,,,,,,,0,14,14,34,1,,,,,,,,,,,,,,,,,,,,,,,
,,,,,SPR24_018,19,Male,2024-04-09_13h56.22.932,jersey_experiment_5_v0,2023.2.2,Win32,85.47008547,,,,,,,,,,,,,,,,841.7708,843.0651,843.0651,844.2296,return,0.5221,,76.171875,,,,,,FBP-PT-81.png,0.43,1.2,54,0.5,,,,,,,,,,,,,,,,,,0,15,15,53,1,,,,,,,,,,,,,,,,,,,,,,,
,,,,,SPR24_018,19,Male,2024-04-09_13h56.22.932,jersey_experiment_5_v0,2023.2.2,Win32,85.47008547,,,,,,,,,,,,,,,,844.2299,845.2768,845.2768,846.8887,return,0.5563,,69.140625,,,,,,FBP-RB-81.png,0.37,1.2,37,0.25,,,,,,,,,,,,,,,,,,0,16,16,36,1,,,,,,,,,,,,,,,,,,,,,,,
,,,,,SPR24_018,19,Male,2024-04-09_13h56.22.932,jersey_experiment_5_v0,2023.2.2,Win32,85.47008547,,,,,,,,,,,,,,,,846.8889,847.9356,847.9357,849.4652,return,0.4602,,53.90625,,,,,,FBP-OG-17.png,0.35,1.2,1,0.25,,,,,,,,,,,,,,,,,,0,17,17,0,1,,,,,,,,,,,,,,,,,,,,,,,
,,,,,SPR24_018,19,Male,2024-04-09_13h56.22.932,jersey_experiment_5_v0,2023.2.2,Win32,85.47008547,,,,,,,,,,,,,,,,849.4653,850.5122,850.5122,852.1475,return,0.5123,,70.57291667,,,,,,FBP-OG-18.png,0.43,1.2,9,0.25,,,,,,,,,,,,,,,,,,0,18,18,8,1,,,,,,,,,,,,,,,,,,,,,,,
,,,,,SPR24_018,19,Male,2024-04-09_13h56.22.932,jersey_experiment_5_v0,2023.2.2,Win32,85.47008547,,,,,,,,,,,,,,,,852.1478,853.1948,853.1948,854.7594,return,0.4517,,76.82291667,,,,,,FBP-RB-81.png,0.43,1.2,39,0.25,,,,,,,,,,,,,,,,,,0,19,19,38,1,,,,,,,,,,,,,,,,,,,,,,,
,,,,,SPR24_018,19,Male,2024-04-09_13h56.22.932,jersey_experiment_5_v0,2023.2.2,Win32,85.47008547,,,,,,,,,,,,,,,,854.7596,856.0536,856.0536,857.1008,return,0.4709,,60.28645833,,,,,,FBP-YG-71.png,0.37,1.2,17,0.5,,,,,,,,,,,,,,,,,,0,20,20,16,1,,,,,,,,,,,,,,,,,,,,,,,
,,,,,SPR24_018,19,Male,2024-04-09_13h56.22.932,jersey_experiment_5_v0,2023.2.2,Win32,85.47008547,,,,,,,,,,,,,,,,857.101,858.3949,858.3949,859.4656,return,0.4026,,50,,,,,,FBP-YG-71.png,0.4,1.2,18,0.5,,,,,,,,,,,,,,,,,,0,21,21,17,1,,,,,,,,,,,,,,,,,,,,,,,
,,,,,SPR24_018,19,Male,2024-04-09_13h56.22.932,jersey_experiment_5_v0,2023.2.2,Win32,85.47008547,,,,,,,,,,,,,,,,859.4657,860.7596,860.7597,861.9596,return,0.4987,,41.27604167,,,,,,FBP-YG-91.png,0.35,1.2,26,0.5,,,,,,,,,,,,,,,,,,0,22,22,25,1,,,,,,,,,,,,,,,,,,,,,,,
,,,,,SPR24_018,19,Male,2024-04-09_13h56.22.932,jersey_experiment_5_v0,2023.2.2,Win32,85.47008547,,,,,,,,,,,,,,,,861.9598,863.2539,863.2539,864.1716,return,0.4573,,41.27604167,,,,,,FBP-PT-81.png,0.37,1.2,52,0.5,,,,,,,,,,,,,,,,,,0,23,23,51,1,,,,,,,,,,,,,,,,,,,,,,,
,,,,,SPR24_018,19,Male,2024-04-09_13h56.22.932,jersey_experiment_5_v0,2023.2.2,Win32,85.47008547,,,,,,,,,,,,,,,,864.1718,865.2186,865.2186,866.8541,return,0.4765,,76.953125,,,,,,FBP-OG-19.png,0.43,1.2,14,0.25,,,,,,,,,,,,,,,,,,0,24,24,13,1,,,,,,,,,,,,,,,,,,,,,,,
,,,,,SPR24_018,19,Male,2024-04-09_13h56.22.932,jersey_experiment_5_v0,2023.2.2,Win32,85.47008547,,,,,,,,,,,,,,,,866.8543,868.1482,868.1482,869.0191,return,0.4722,,84.63541667,,,,,,FBP-PT-81.png,0.45,1.2,55,0.5,,,,,,,,,,,,,,,,,,0,25,25,54,1,,,,,,,,,,,,,,,,,,,,,,,
,,,,,SPR24_018,19,Male,2024-04-09_13h56.22.932,jersey_experiment_5_v0,2023.2.2,Win32,85.47008547,,,,,,,,,,,,,,,,869.0193,870.313,870.313,871.6306,return,0.4104,,72.39583333,,,,,,FBP-YG-81.png,0.4,1.2,23,0.5,,,,,,,,,,,,,,,,,,0,26,26,22,1,,,,,,,,,,,,,,,,,,,,,,,
,,,,,SPR24_018,19,Male,2024-04-09_13h56.22.932,jersey_experiment_5_v0,2023.2.2,Win32,85.47008547,,,,,,,,,,,,,,,,871.6308,872.6778,872.6779,874.419,return,0.4442,,73.69791667,,,,,,FBP-OG-17.png,0.4,1.2,3,0.25,,,,,,,,,,,,,,,,,,0,27,27,2,1,,,,,,,,,,,,,,,,,,,,,,,
,,,,,SPR24_018,19,Male,2024-04-09_13h56.22.932,jersey_experiment_5_v0,2023.2.2,Win32,85.47008547,,,,,,,,,,,,,,,,874.4192,875.7133,875.7133,878.184,return,1.6956,,47.39583333,,,,,,FBP-PT-91.png,0.35,1.2,56,0.5,,,,,,,,,,,,,,,,,,0,28,28,55,1,,,,,,,,,,,,,,,,,,,,,,,
,,,,,SPR24_018,19,Male,2024-04-09_13h56.22.932,jersey_experiment_5_v0,2023.2.2,Win32,85.47008547,,,,,,,,,,,,,,,,878.1842,879.2309,879.2309,880.631,return,0.4504,,79.296875,,,,,,FBP-RB-81.png,0.45,1.2,40,0.25,,,,,,,,,,,,,,,,,,0,29,29,39,1,,,,,,,,,,,,,,,,,,,,,,,
,,,,,SPR24_018,19,Male,2024-04-09_13h56.22.932,jersey_experiment_5_v0,2023.2.2,Win32,85.47008547,,,,,,,,,,,,,,,,880.6312,881.6779,881.678,882.9371,return,0.4486,,79.42708333,,,,,,FBP-RB-91.png,0.4,1.2,43,0.25,,,,,,,,,,,,,,,,,,0,30,30,42,1,,,,,,,,,,,,,,,,,,,,,,,
,,,,,SPR24_018,19,Male,2024-04-09_13h56.22.932,jersey_experiment_5_v0,2023.2.2,Win32,85.47008547,,,,,,,,,,,,,,,,882.9373,883.984,883.9841,885.1018,return,0.5413,,79.42708333,,,,,,FBP-OG-19.png,0.45,1.2,15,0.25,,,,,,,,,,,,,,,,,,0,31,31,14,1,,,,,,,,,,,,,,,,,,,,,,,
,,,,,SPR24_018,19,Male,2024-04-09_13h56.22.932,jersey_experiment_5_v0,2023.2.2,Win32,85.47008547,,,,,,,,,,,,,,,,885.102,886.1488,886.1488,887.5724,return,0.3823,,73.17708333,,,,,,FBP-RB-71.png,0.43,1.2,34,0.25,,,,,,,,,,,,,,,,,,0,32,32,33,1,,,,,,,,,,,,,,,,,,,,,,,
,,,,,SPR24_018,19,Male,2024-04-09_13h56.22.932,jersey_experiment_5_v0,2023.2.2,Win32,85.47008547,,,,,,,,,,,,,,,,887.5726,888.6195,888.6195,889.8784,return,0.7571,,73.17708333,,,,,,FBP-OG-18.png,0.4,1.2,8,0.25,,,,,,,,,,,,,,,,,,0,33,33,7,1,,,,,,,,,,,,,,,,,,,,,,,
,,,,,SPR24_018,19,Male,2024-04-09_13h56.22.932,jersey_experiment_5_v0,2023.2.2,Win32,85.47008547,,,,,,,,,,,,,,,,889.8786,890.9254,890.9255,892.5845,return,0.5092,,82.03125,,,,,,FBP-RB-91.png,0.45,1.2,45,0.25,,,,,,,,,,,,,,,,,,0,34,34,44,1,,,,,,,,,,,,,,,,,,,,,,,
,,,,,SPR24_018,19,Male,2024-04-09_13h56.22.932,jersey_experiment_5_v0,2023.2.2,Win32,85.47008547,,,,,,,,,,,,,,,,892.5847,893.6315,893.6315,895.7963,return,0.9487,,19.921875,,,,,,FBP-RB-81.png,0.35,1.2,36,0.25,,,,,,,,,,,,,,,,,,0,35,35,35,1,,,,,,,,,,,,,,,,,,,,,,,
,,,,,SPR24_018,19,Male,2024-04-09_13h56.22.932,jersey_experiment_5_v0,2023.2.2,Win32,85.47008547,,,,,,,,,,,,,,,,895.7964,897.0905,897.0906,898.0789,return,0.6355,,20.57291667,,,,,,FBP-PT-81.png,0.35,1.2,51,0.5,,,,,,,,,,,,,,,,,,0,36,36,50,1,,,,,,,,,,,,,,,,,,,,,,,
,,,,,SPR24_018,19,Male,2024-04-09_13h56.22.932,jersey_experiment_5_v0,2023.2.2,Win32,85.47008547,,,,,,,,,,,,,,,,898.0791,899.3729,899.3729,900.4907,return,0.3207,,77.08333333,,,,,,FBP-PT-91.png,0.45,1.2,60,0.5,,,,,,,,,,,,,,,,,,0,37,37,59,1,,,,,,,,,,,,,,,,,,,,,,,
,,,,,SPR24_018,19,Male,2024-04-09_13h56.22.932,jersey_experiment_5_v0,2023.2.2,Win32,85.47008547,,,,,,,,,,,,,,,,900.491,901.7848,901.7848,903.5496,return,0.1089,,46.74479167,,,,,,FBP-PT-91.png,0.37,1.2,57,0.5,,,,,,,,,,,,,,,,,,0,38,38,56,1,,,,,,,,,,,,,,,,,,,,,,,
,,,,,SPR24_018,19,Male,2024-04-09_13h56.22.932,jersey_experiment_5_v0,2023.2.2,Win32,85.47008547,,,,,,,,,,,,,,,,903.5498,904.5965,904.5966,905.4789,return,0.0741,,59.375,,,,,,FBP-RB-81.png,0.4,1.2,38,0.25,,,,,,,,,,,,,,,,,,0,39,39,37,1,,,,,,,,,,,,,,,,,,,,,,,
,,,,,SPR24_018,19,Male,2024-04-09_13h56.22.932,jersey_experiment_5_v0,2023.2.2,Win32,85.47008547,,,,,,,,,,,,,,,,905.4792,906.7732,906.7732,907.1261,return,0.0411,,59.375,,,,,,FBP-PT-71.png,0.4,1.2,48,0.5,,,,,,,,,,,,,,,,,,0,40,40,47,1,,,,,,,,,,,,,,,,,,,,,,,
,,,,,SPR24_018,19,Male,2024-04-09_13h56.22.932,jersey_experiment_5_v0,2023.2.2,Win32,85.47008547,,,,,,,,,,,,,,,,907.1263,908.1732,908.1732,909.1733,return,0.0653,,50.91145833,,,,,,FBP-OG-17.png,0.37,1.2,2,0.25,,,,,,,,,,,,,,,,,,0,41,41,1,1,,,,,,,,,,,,,,,,,,,,,,,
,,,,,SPR24_018,19,Male,2024-04-09_13h56.22.932,jersey_experiment_5_v0,2023.2.2,Win32,85.47008547,,,,,,,,,,,,,,,,909.1736,910.2204,910.2204,911.5145,return,0.0248,,51.04166667,,,,,,FBP-RB-71.png,0.37,1.2,32,0.25,,,,,,,,,,,,,,,,,,0,42,42,31,1,,,,,,,,,,,,,,,,,,,,,,,
,,,,,SPR24_018,19,Male,2024-04-09_13h56.22.932,jersey_experiment_5_v0,2023.2.2,Win32,85.47008547,,,,,,,,,,,,,,,,911.5146,912.8086,912.8086,913.3499,return,0.1943,,49.86979167,,,,,,FBP-PT-71.png,0.37,1.2,47,0.5,,,,,,,,,,,,,,,,,,0,43,43,46,1,,,,,,,,,,,,,,,,,,,,,,,
,,,,,SPR24_018,19,Male,2024-04-09_13h56.22.932,jersey_experiment_5_v0,2023.2.2,Win32,85.47008547,,,,,,,,,,,,,,,,913.3502,914.397,914.3971,915.491,return,0.0888,,79.6875,,,,,,FBP-OG-17.png,0.43,1.2,4,0.25,,,,,,,,,,,,,,,,,,0,44,44,3,1,,,,,,,,,,,,,,,,,,,,,,,
,,,,,SPR24_018,19,Male,2024-04-09_13h56.22.932,jersey_experiment_5_v0,2023.2.2,Win32,85.47008547,,,,,,,,,,,,,,,,915.4911,916.5382,916.5382,918.4088,return,0.7796,,69.27083333,,,,,,FBP-OG-19.png,0.37,1.2,12,0.25,,,,,,,,,,,,,,,,,,0,45,45,11,1,,,,,,,,,,,,,,,,,,,,,,,
,,,,,SPR24_018,19,Male,2024-04-09_13h56.22.932,jersey_experiment_5_v0,2023.2.2,Win32,85.47008547,,,,,,,,,,,,,,,,918.4091,919.456,919.4561,921.0443,return,0.4415,,49.21875,,,,,,FBP-OG-19.png,0.35,1.2,11,0.25,,,,,,,,,,,,,,,,,,0,46,46,10,1,,,,,,,,,,,,,,,,,,,,,,,
,,,,,SPR24_018,19,Male,2024-04-09_13h56.22.932,jersey_experiment_5_v0,2023.2.2,Win32,85.47008547,,,,,,,,,,,,,,,,921.0446,922.3384,922.3385,922.9856,return,0.048,,76.5625,,,,,,FBP-PT-71.png,0.45,1.2,50,0.5,,,,,,,,,,,,,,,,,,0,47,47,49,1,,,,,,,,,,,,,,,,,,,,,,,
,,,,,SPR24_018,19,Male,2024-04-09_13h56.22.932,jersey_experiment_5_v0,2023.2.2,Win32,85.47008547,,,,,,,,,,,,,,,,922.9858,924.0326,924.0326,925.115,return,0.1181,,73.56770833,,,,,,FBP-OG-18.png,0.37,1.2,7,0.25,,,,,,,,,,,,,,,,,,0,48,48,6,1,,,,,,,,,,,,,,,,,,,,,,,
,,,,,SPR24_018,19,Male,2024-04-09_13h56.22.932,jersey_experiment_5_v0,2023.2.2,Win32,85.47008547,,,,,,,,,,,,,,,,925.1152,926.4091,926.4092,927.6211,return,0.0423,,46.74479167,,,,,,FBP-PT-71.png,0.35,1.2,46,0.5,,,,,,,,,,,,,,,,,,0,49,49,45,1,,,,,,,,,,,,,,,,,,,,,,,
,,,,,SPR24_018,19,Male,2024-04-09_13h56.22.932,jersey_experiment_5_v0,2023.2.2,Win32,85.47008547,,,,,,,,,,,,,,,,927.6212,928.6682,928.6682,929.6917,return,0.0138,,81.25,,,,,,FBP-RB-71.png,0.4,1.2,33,0.25,,,,,,,,,,,,,,,,,,0,50,50,32,1,,,,,,,,,,,,,,,,,,,,,,,
,,,,,SPR24_018,19,Male,2024-04-09_13h56.22.932,jersey_experiment_5_v0,2023.2.2,Win32,85.47008547,,,,,,,,,,,,,,,,929.6919,930.9858,930.9859,931.5624,return,0.0249,,90.49479167,,,,,,FBP-YG-91.png,0.43,1.2,29,0.5,,,,,,,,,,,,,,,,,,0,51,51,28,1,,,,,,,,,,,,,,,,,,,,,,,
,,,,,SPR24_018,19,Male,2024-04-09_13h56.22.932,jersey_experiment_5_v0,2023.2.2,Win32,85.47008547,,,,,,,,,,,,,,,,931.5625,932.6094,932.6094,933.3507,return,0.0291,,96.61458333,,,,,,FBP-OG-18.png,0.45,1.2,10,0.25,,,,,,,,,,,,,,,,,,0,52,52,9,1,,,,,,,,,,,,,,,,,,,,,,,
,,,,,SPR24_018,19,Male,2024-04-09_13h56.22.932,jersey_experiment_5_v0,2023.2.2,Win32,85.47008547,,,,,,,,,,,,,,,,933.3508,934.6446,934.6446,935.3509,return,0.0285,,68.22916667,,,,,,FBP-PT-81.png,0.4,1.2,53,0.5,,,,,,,,,,,,,,,,,,0,53,53,52,1,,,,,,,,,,,,,,,,,,,,,,,
,,,,,SPR24_018,19,Male,2024-04-09_13h56.22.932,jersey_experiment_5_v0,2023.2.2,Win32,85.47008547,,,,,,,,,,,,,,,,935.3511,936.3978,936.3978,937.2921,return,0.1646,,45.3125,,,,,,FBP-RB-91.png,0.35,1.2,41,0.25,,,,,,,,,,,,,,,,,,0,54,54,40,1,,,,,,,,,,,,,,,,,,,,,,,
,,,,,SPR24_018,19,Male,2024-04-09_13h56.22.932,jersey_experiment_5_v0,2023.2.2,Win32,85.47008547,,,,,,,,,,,,,,,,937.2924,938.5861,938.5862,939.092,return,0.018,,58.07291667,,,,,,FBP-YG-91.png,0.4,1.2,28,0.5,,,,,,,,,,,,,,,,,,0,55,55,27,1,,,,,,,,,,,,,,,,,,,,,,,
,,,,,SPR24_018,19,Male,2024-04-09_13h56.22.932,jersey_experiment_5_v0,2023.2.2,Win32,85.47008547,,,,,,,,,,,,,,,,939.0922,940.3862,940.3862,940.8451,return,0.0621,,70.44270833,,,,,,FBP-PT-71.png,0.43,1.2,49,0.5,,,,,,,,,,,,,,,,,,0,56,56,48,1,,,,,,,,,,,,,,,,,,,,,,,
,,,,,SPR24_018,19,Male,2024-04-09_13h56.22.932,jersey_experiment_5_v0,2023.2.2,Win32,85.47008547,,,,,,,,,,,,,,,,940.8453,941.892,941.8921,942.739,return,0.0087,,63.02083333,,,,,,FBP-RB-91.png,0.37,1.2,42,0.25,,,,,,,,,,,,,,,,,,0,57,57,41,1,,,,,,,,,,,,,,,,,,,,,,,
,,,,,SPR24_018,19,Male,2024-04-09_13h56.22.932,jersey_experiment_5_v0,2023.2.2,Win32,85.47008547,,,,,,,,,,,,,,,,942.7393,944.0335,944.0335,944.4924,return,0.0239,,63.02083333,,,,,,FBP-YG-81.png,0.37,1.2,22,0.5,,,,,,,,,,,,,,,,,,0,58,58,21,1,,,,,,,,,,,,,,,,,,,,,,,
,,,,,SPR24_018,19,Male,2024-04-09_13h56.22.932,jersey_experiment_5_v0,2023.2.2,Win32,85.47008547,,,,,,,,,,,,,,,,944.4926,945.7864,945.7865,946.5865,return,0.0851,,78.515625,,,,,,FBP-YG-71.png,0.43,1.2,19,0.5,,,,,,,,,,,,,,,,,,0,59,59,18,1,,,,,,,,,,,,,,,,,,,,,,,
,,,,,SPR24_018,19,Male,2024-04-09_13h56.22.932,jersey_experiment_5_v0,2023.2.2,Win32,85.47008547,,,,,,,,,,,,,,,,,,,,,,,,,,,,,,,,,,,,,,,,,,,,,,,,,,,,,,,,946.587,953.8461,return,7.2527,,,,,,,,,,,,,,,,,,,
,,,,,SPR24_018,19,Male,2024-04-09_13h56.22.932,jersey_experiment_5_v0,2023.2.2,Win32,85.47008547,,,,,,,,,,,,,,,,,,,,,,,,,,,,,,,,,,,,,,,,,,,,,,,,,,,,,,,,,,,,,953.8462,958.7165,1,3.5395,return,1.3035,,,,,,,,,,,,
,,,,,SPR24_018,19,Male,2024-04-09_13h56.22.932,jersey_experiment_5_v0,2023.2.2,Win32,85.47008547,,,,,,,,,,,,,,,,,,,,,,,,,,,,,,,,,,,,,,,,,,,,,,,,,,,,,,,,,,,,,,,,,,,,958.7166,1030.9668,"I noticed that the football players who were displayed were either non-white vs white presenting, so I was wondering if the study may have been measuring some kind of racial bias in terms of size perception.",right,62.8551,,,,,,
,,,,,SPR24_018,19,Male,2024-04-09_13h56.22.932,jersey_experiment_5_v0,2023.2.2,Win32,85.47008547,,,,,,,,,,,,,,,,,,,,,,,,,,,,,,,,,,,,,,,,,,,,,,,,,,,,,,,,,,,,,,,,,,,,,,,,,,1030.9669,1035.19,return,4.2059,