requirements.started,requirements.stopped,key_resp_3.keys,key_resp_3.rt,key_resp_3.duration,Subject ID,Age,Gender,date,expName,psychopyVersion,OS,frameRate,instructions1.started,instructions1.stopped,key_resp.keys,key_resp.rt,key_resp.duration,example.started,example.stopped,enter_2.keys,enter_2.rt,enter_2.duration,instructions2.started,instructions2.stopped,enter_3.keys,enter_3.rt,enter_3.duration,image.started,image.stopped,slider_2.started,slider_2.stopped,next.keys,next.rt,next.duration,slider.response,trial_block_1.thisRepN,trial_block_1.thisTrialN,trial_block_1.thisN,trial_block_1.thisIndex,trial_block_1.ran,Path,Width,Height,Index,Duration,trial_block_2.thisRepN,trial_block_2.thisTrialN,trial_block_2.thisN,trial_block_2.thisIndex,trial_block_2.ran,rest_break.started,rest_break.stopped,end_break.started,end_break.stopped,key_resp_5.keys,key_resp_5.rt,key_resp_5.duration,trial_block_3.thisRepN,trial_block_3.thisTrialN,trial_block_3.thisN,trial_block_3.thisIndex,trial_block_3.ran,trial_block_4.thisRepN,trial_block_4.thisTrialN,trial_block_4.thisN,trial_block_4.thisIndex,trial_block_4.ran,questions_intro.started,questions_intro.stopped,enter_12.keys,enter_12.rt,enter_12.duration,question2.started,question2.stopped,question_doingbest.response,question_doingbest.rt,enter_15.keys,enter_15.rt,enter_15.duration,pattern.started,pattern.stopped,pattern_2.text,enter_17.keys,enter_17.rt,enter_17.duration,thankyou.started,thankyou.stopped,enter_14.keys,enter_14.rt,enter_14.duration
0.0002,10.3457,return,10.3405,,SPR24_069,19,female,2024-04-18_17h03.54.566,jersey_experiment_5_v0,2023.2.2,Win32,85.47008547,,,,,,,,,,,,,,,,,,,,,,,,,,,,,,,,,,,,,,,,,,,,,,,,,,,,,,,,,,,,,,,,,,,,,,,,,,,,,,
,,,,,SPR24_069,19,female,2024-04-18_17h03.54.566,jersey_experiment_5_v0,2023.2.2,Win32,85.47008547,10.3458,10.4122,return,0.056,,,,,,,,,,,,,,,,,,,,,,,,,,,,,,,,,,,,,,,,,,,,,,,,,,,,,,,,,,,,,,,,,,,,,,,,,,
,,,,,SPR24_069,19,female,2024-04-18_17h03.54.566,jersey_experiment_5_v0,2023.2.2,Win32,85.47008547,,,,,,10.4123,15.9302,return,5.4921,,,,,,,,,,,,,,,,,,,,,,,,,,,,,,,,,,,,,,,,,,,,,,,,,,,,,,,,,,,,,,,,,,,,,
,,,,,SPR24_069,19,female,2024-04-18_17h03.54.566,jersey_experiment_5_v0,2023.2.2,Win32,85.47008547,,,,,,,,,,,15.9302,40.9076,return,24.9656,,,,,,,,,,,,,,,,,,,,,,,,,,,,,,,,,,,,,,,,,,,,,,,,,,,,,,,,,,,,,,,,
,,,,,SPR24_069,19,female,2024-04-18_17h03.54.566,jersey_experiment_5_v0,2023.2.2,Win32,85.47008547,,,,,,,,,,,,,,,,40.9146,42.2132,42.2133,49.543,return,4.3584,,99.73958333,0,0,0,37,1,FBP-RB-18.png,0.4,1.2,38,0.5,,,,,,,,,,,,,,,,,,,,,,,,,,,,,,,,,,,,,,,,,,,,,
,,,,,SPR24_069,19,female,2024-04-18_17h03.54.566,jersey_experiment_5_v0,2023.2.2,Win32,85.47008547,,,,,,,,,,,,,,,,49.5433,50.5899,50.59,54.2489,return,1.9463,,99.73958333,0,1,1,24,1,FBP-YG-18.png,0.45,1.2,25,0.25,,,,,,,,,,,,,,,,,,,,,,,,,,,,,,,,,,,,,,,,,,,,,
,,,,,SPR24_069,19,female,2024-04-18_17h03.54.566,jersey_experiment_5_v0,2023.2.2,Win32,85.47008547,,,,,,,,,,,,,,,,54.2492,55.2959,55.296,57.2138,return,0.1887,,51.30208333,0,2,2,51,1,FBP-PT-18.png,0.37,1.2,52,0.25,,,,,,,,,,,,,,,,,,,,,,,,,,,,,,,,,,,,,,,,,,,,,
,,,,,SPR24_069,19,female,2024-04-18_17h03.54.566,jersey_experiment_5_v0,2023.2.2,Win32,85.47008547,,,,,,,,,,,,,,,,57.214,58.5078,58.5079,59.802,return,0.3315,,50.52083333,0,3,3,10,1,FBP-OG-91.png,0.35,1.2,11,0.5,,,,,,,,,,,,,,,,,,,,,,,,,,,,,,,,,,,,,,,,,,,,,
,,,,,SPR24_069,19,female,2024-04-18_17h03.54.566,jersey_experiment_5_v0,2023.2.2,Win32,85.47008547,,,,,,,,,,,,,,,,59.8022,60.8491,60.8491,61.6374,return,0.1147,,50.52083333,0,4,4,57,1,FBP-PT-19.png,0.4,1.2,58,0.25,,,,,,,,,,,,,,,,,,,,,,,,,,,,,,,,,,,,,,,,,,,,,
,,,,,SPR24_069,19,female,2024-04-18_17h03.54.566,jersey_experiment_5_v0,2023.2.2,Win32,85.47008547,,,,,,,,,,,,,,,,61.6376,62.6843,62.6844,64.5668,return,0.2761,,62.63020833,0,5,5,26,1,FBP-YG-19.png,0.37,1.2,27,0.25,,,,,,,,,,,,,,,,,,,,,,,,,,,,,,,,,,,,,,,,,,,,,
,,,,,SPR24_069,19,female,2024-04-18_17h03.54.566,jersey_experiment_5_v0,2023.2.2,Win32,85.47008547,,,,,,,,,,,,,,,,64.567,65.861,65.8611,67.4023,return,0.1568,,50.13020833,0,6,6,5,1,FBP-OG-81.png,0.35,1.2,6,0.5,,,,,,,,,,,,,,,,,,,,,,,,,,,,,,,,,,,,,,,,,,,,,
,,,,,SPR24_069,19,female,2024-04-18_17h03.54.566,jersey_experiment_5_v0,2023.2.2,Win32,85.47008547,,,,,,,,,,,,,,,,67.4026,68.4492,68.4492,69.4026,return,0.1659,,50,0,7,7,15,1,FBP-YG-17.png,0.35,1.2,16,0.25,,,,,,,,,,,,,,,,,,,,,,,,,,,,,,,,,,,,,,,,,,,,,
,,,,,SPR24_069,19,female,2024-04-18_17h03.54.566,jersey_experiment_5_v0,2023.2.2,Win32,85.47008547,,,,,,,,,,,,,,,,69.4029,70.6965,70.6965,74.3789,return,0.6486,,98.4375,0,8,8,44,1,FBP-RB-19.png,0.45,1.2,45,0.5,,,,,,,,,,,,,,,,,,,,,,,,,,,,,,,,,,,,,,,,,,,,,
,,,,,SPR24_069,19,female,2024-04-18_17h03.54.566,jersey_experiment_5_v0,2023.2.2,Win32,85.47008547,,,,,,,,,,,,,,,,74.3791,75.4263,75.4263,76.838,return,0.2554,,68.359375,0,9,9,21,1,FBP-YG-18.png,0.37,1.2,22,0.25,,,,,,,,,,,,,,,,,,,,,,,,,,,,,,,,,,,,,,,,,,,,,
,,,,,SPR24_069,19,female,2024-04-18_17h03.54.566,jersey_experiment_5_v0,2023.2.2,Win32,85.47008547,,,,,,,,,,,,,,,,76.8382,78.1323,78.1323,82.0146,return,1.6611,,99.86979167,0,10,10,4,1,FBP-OG-71.png,0.45,1.2,5,0.5,,,,,,,,,,,,,,,,,,,,,,,,,,,,,,,,,,,,,,,,,,,,,
,,,,,SPR24_069,19,female,2024-04-18_17h03.54.566,jersey_experiment_5_v0,2023.2.2,Win32,85.47008547,,,,,,,,,,,,,,,,82.0148,83.0616,83.0617,84.3206,return,0.2731,,83.85416667,0,11,11,17,1,FBP-YG-17.png,0.4,1.2,18,0.25,,,,,,,,,,,,,,,,,,,,,,,,,,,,,,,,,,,,,,,,,,,,,
,,,,,SPR24_069,19,female,2024-04-18_17h03.54.566,jersey_experiment_5_v0,2023.2.2,Win32,85.47008547,,,,,,,,,,,,,,,,84.3207,85.6146,85.6147,87.3441,return,0.1883,,67.31770833,0,12,12,13,1,FBP-OG-91.png,0.43,1.2,14,0.5,,,,,,,,,,,,,,,,,,,,,,,,,,,,,,,,,,,,,,,,,,,,,
,,,,,SPR24_069,19,female,2024-04-18_17h03.54.566,jersey_experiment_5_v0,2023.2.2,Win32,85.47008547,,,,,,,,,,,,,,,,87.3443,88.6383,88.6383,91.5089,return,1.1956,,70.44270833,0,13,13,12,1,FBP-OG-91.png,0.4,1.2,13,0.5,,,,,,,,,,,,,,,,,,,,,,,,,,,,,,,,,,,,,,,,,,,,,
,,,,,SPR24_069,19,female,2024-04-18_17h03.54.566,jersey_experiment_5_v0,2023.2.2,Win32,85.47008547,,,,,,,,,,,,,,,,91.5091,92.5561,92.5561,94.6033,return,0.6592,,98.30729167,0,14,14,49,1,FBP-PT-17.png,0.45,1.2,50,0.25,,,,,,,,,,,,,,,,,,,,,,,,,,,,,,,,,,,,,,,,,,,,,
,,,,,SPR24_069,19,female,2024-04-18_17h03.54.566,jersey_experiment_5_v0,2023.2.2,Win32,85.47008547,,,,,,,,,,,,,,,,94.6035,95.8975,95.8975,97.1327,return,0.1048,,99.08854167,0,15,15,43,1,FBP-RB-19.png,0.43,1.2,44,0.5,,,,,,,,,,,,,,,,,,,,,,,,,,,,,,,,,,,,,,,,,,,,,
,,,,,SPR24_069,19,female,2024-04-18_17h03.54.566,jersey_experiment_5_v0,2023.2.2,Win32,85.47008547,,,,,,,,,,,,,,,,97.1329,98.1798,98.1799,100.0859,return,0.2185,,35.02604167,0,16,16,50,1,FBP-PT-18.png,0.35,1.2,51,0.25,,,,,,,,,,,,,,,,,,,,,,,,,,,,,,,,,,,,,,,,,,,,,
,,,,,SPR24_069,19,female,2024-04-18_17h03.54.566,jersey_experiment_5_v0,2023.2.2,Win32,85.47008547,,,,,,,,,,,,,,,,100.0861,101.38,101.38,102.2388,return,0.0943,,50,0,17,17,7,1,FBP-OG-81.png,0.4,1.2,8,0.5,,,,,,,,,,,,,,,,,,,,,,,,,,,,,,,,,,,,,,,,,,,,,
,,,,,SPR24_069,19,female,2024-04-18_17h03.54.566,jersey_experiment_5_v0,2023.2.2,Win32,85.47008547,,,,,,,,,,,,,,,,102.2389,103.2858,103.2859,106.2859,return,1.9767,,60.546875,0,18,18,52,1,FBP-PT-18.png,0.4,1.2,53,0.25,,,,,,,,,,,,,,,,,,,,,,,,,,,,,,,,,,,,,,,,,,,,,
,,,,,SPR24_069,19,female,2024-04-18_17h03.54.566,jersey_experiment_5_v0,2023.2.2,Win32,85.47008547,,,,,,,,,,,,,,,,106.2861,107.5801,107.5801,109.3919,return,0.9752,,50.390625,0,19,19,0,1,FBP-OG-71.png,0.35,1.2,1,0.5,,,,,,,,,,,,,,,,,,,,,,,,,,,,,,,,,,,,,,,,,,,,,
,,,,,SPR24_069,19,female,2024-04-18_17h03.54.566,jersey_experiment_5_v0,2023.2.2,Win32,85.47008547,,,,,,,,,,,,,,,,109.392,110.4391,110.4391,112.2861,return,0.4238,,99.609375,0,20,20,59,1,FBP-PT-19.png,0.45,1.2,60,0.25,,,,,,,,,,,,,,,,,,,,,,,,,,,,,,,,,,,,,,,,,,,,,
,,,,,SPR24_069,19,female,2024-04-18_17h03.54.566,jersey_experiment_5_v0,2023.2.2,Win32,85.47008547,,,,,,,,,,,,,,,,112.2863,113.5803,113.5803,114.2158,return,0.1473,,99.21875,0,21,21,9,1,FBP-OG-81.png,0.45,1.2,10,0.5,,,,,,,,,,,,,,,,,,,,,,,,,,,,,,,,,,,,,,,,,,,,,
,,,,,SPR24_069,19,female,2024-04-18_17h03.54.566,jersey_experiment_5_v0,2023.2.2,Win32,85.47008547,,,,,,,,,,,,,,,,114.2159,115.2628,115.2629,116.9215,return,0.1074,,99.609375,0,22,22,58,1,FBP-PT-19.png,0.43,1.2,59,0.25,,,,,,,,,,,,,,,,,,,,,,,,,,,,,,,,,,,,,,,,,,,,,
,,,,,SPR24_069,19,female,2024-04-18_17h03.54.566,jersey_experiment_5_v0,2023.2.2,Win32,85.47008547,,,,,,,,,,,,,,,,116.9217,118.2157,118.2157,119.3216,return,0.273,,99.21875,0,23,23,8,1,FBP-OG-81.png,0.43,1.2,9,0.5,,,,,,,,,,,,,,,,,,,,,,,,,,,,,,,,,,,,,,,,,,,,,
,,,,,SPR24_069,19,female,2024-04-18_17h03.54.566,jersey_experiment_5_v0,2023.2.2,Win32,85.47008547,,,,,,,,,,,,,,,,119.3219,120.3688,120.3689,122.216,return,1.159,,90.36458333,0,24,24,28,1,FBP-YG-19.png,0.43,1.2,29,0.25,,,,,,,,,,,,,,,,,,,,,,,,,,,,,,,,,,,,,,,,,,,,,
,,,,,SPR24_069,19,female,2024-04-18_17h03.54.566,jersey_experiment_5_v0,2023.2.2,Win32,85.47008547,,,,,,,,,,,,,,,,122.2162,123.263,123.2631,125.0515,return,0.1411,,85.9375,0,25,25,47,1,FBP-PT-17.png,0.4,1.2,48,0.25,,,,,,,,,,,,,,,,,,,,,,,,,,,,,,,,,,,,,,,,,,,,,
,,,,,SPR24_069,19,female,2024-04-18_17h03.54.566,jersey_experiment_5_v0,2023.2.2,Win32,85.47008547,,,,,,,,,,,,,,,,125.0517,126.0983,126.0983,129.1104,return,2.3472,,74.21875,0,26,26,16,1,FBP-YG-17.png,0.37,1.2,17,0.25,,,,,,,,,,,,,,,,,,,,,,,,,,,,,,,,,,,,,,,,,,,,,
,,,,,SPR24_069,19,female,2024-04-18_17h03.54.566,jersey_experiment_5_v0,2023.2.2,Win32,85.47008547,,,,,,,,,,,,,,,,129.1105,130.1575,130.1575,132.9223,return,0.2157,,45.83333333,0,27,27,46,1,FBP-PT-17.png,0.37,1.2,47,0.25,,,,,,,,,,,,,,,,,,,,,,,,,,,,,,,,,,,,,,,,,,,,,
,,,,,SPR24_069,19,female,2024-04-18_17h03.54.566,jersey_experiment_5_v0,2023.2.2,Win32,85.47008547,,,,,,,,,,,,,,,,132.9224,133.9693,133.9693,137.0048,return,0.1794,,98.56770833,0,28,28,29,1,FBP-YG-19.png,0.45,1.2,30,0.25,,,,,,,,,,,,,,,,,,,,,,,,,,,,,,,,,,,,,,,,,,,,,
,,,,,SPR24_069,19,female,2024-04-18_17h03.54.566,jersey_experiment_5_v0,2023.2.2,Win32,85.47008547,,,,,,,,,,,,,,,,137.005,138.2989,138.299,139.8165,return,0.123,,92.44791667,0,29,29,33,1,FBP-RB-17.png,0.43,1.2,34,0.5,,,,,,,,,,,,,,,,,,,,,,,,,,,,,,,,,,,,,,,,,,,,,
,,,,,SPR24_069,19,female,2024-04-18_17h03.54.566,jersey_experiment_5_v0,2023.2.2,Win32,85.47008547,,,,,,,,,,,,,,,,139.8168,141.1107,141.1108,142.1814,return,0.0673,,99.609375,0,30,30,34,1,FBP-RB-17.png,0.45,1.2,35,0.5,,,,,,,,,,,,,,,,,,,,,,,,,,,,,,,,,,,,,,,,,,,,,
,,,,,SPR24_069,19,female,2024-04-18_17h03.54.566,jersey_experiment_5_v0,2023.2.2,Win32,85.47008547,,,,,,,,,,,,,,,,142.1816,143.4757,143.4757,144.0756,return,0.1294,,99.609375,0,31,31,38,1,FBP-RB-18.png,0.43,1.2,39,0.5,,,,,,,,,,,,,,,,,,,,,,,,,,,,,,,,,,,,,,,,,,,,,
,,,,,SPR24_069,19,female,2024-04-18_17h03.54.566,jersey_experiment_5_v0,2023.2.2,Win32,85.47008547,,,,,,,,,,,,,,,,144.0757,145.3698,145.3698,147.264,return,0.2125,,24.08854167,0,32,32,40,1,FBP-RB-19.png,0.35,1.2,41,0.5,,,,,,,,,,,,,,,,,,,,,,,,,,,,,,,,,,,,,,,,,,,,,
,,,,,SPR24_069,19,female,2024-04-18_17h03.54.566,jersey_experiment_5_v0,2023.2.2,Win32,85.47008547,,,,,,,,,,,,,,,,147.2643,148.5581,148.5581,150.4404,return,0.0977,,34.89583333,0,33,33,11,1,FBP-OG-91.png,0.37,1.2,12,0.5,,,,,,,,,,,,,,,,,,,,,,,,,,,,,,,,,,,,,,,,,,,,,
,,,,,SPR24_069,19,female,2024-04-18_17h03.54.566,jersey_experiment_5_v0,2023.2.2,Win32,85.47008547,,,,,,,,,,,,,,,,150.4407,151.4877,151.4877,154.5112,return,1.5668,,88.02083333,0,34,34,48,1,FBP-PT-17.png,0.43,1.2,49,0.25,,,,,,,,,,,,,,,,,,,,,,,,,,,,,,,,,,,,,,,,,,,,,
,,,,,SPR24_069,19,female,2024-04-18_17h03.54.566,jersey_experiment_5_v0,2023.2.2,Win32,85.47008547,,,,,,,,,,,,,,,,154.5114,155.5583,155.5583,157.1584,return,0.4167,,88.02083333,0,35,35,27,1,FBP-YG-19.png,0.4,1.2,28,0.25,,,,,,,,,,,,,,,,,,,,,,,,,,,,,,,,,,,,,,,,,,,,,
,,,,,SPR24_069,19,female,2024-04-18_17h03.54.566,jersey_experiment_5_v0,2023.2.2,Win32,85.47008547,,,,,,,,,,,,,,,,157.1587,158.4527,158.4527,159.5584,return,0.1253,,98.95833333,0,36,36,39,1,FBP-RB-18.png,0.45,1.2,40,0.5,,,,,,,,,,,,,,,,,,,,,,,,,,,,,,,,,,,,,,,,,,,,,
,,,,,SPR24_069,19,female,2024-04-18_17h03.54.566,jersey_experiment_5_v0,2023.2.2,Win32,85.47008547,,,,,,,,,,,,,,,,159.5586,160.6056,160.6056,161.8174,return,0.2024,,98.4375,0,37,37,22,1,FBP-YG-18.png,0.4,1.2,23,0.25,,,,,,,,,,,,,,,,,,,,,,,,,,,,,,,,,,,,,,,,,,,,,
,,,,,SPR24_069,19,female,2024-04-18_17h03.54.566,jersey_experiment_5_v0,2023.2.2,Win32,85.47008547,,,,,,,,,,,,,,,,161.8176,163.1115,163.1115,165.6292,return,0.2828,,26.171875,0,38,38,1,1,FBP-OG-71.png,0.37,1.2,2,0.5,,,,,,,,,,,,,,,,,,,,,,,,,,,,,,,,,,,,,,,,,,,,,
,,,,,SPR24_069,19,female,2024-04-18_17h03.54.566,jersey_experiment_5_v0,2023.2.2,Win32,85.47008547,,,,,,,,,,,,,,,,165.6295,166.9233,166.9234,167.8883,return,0.2912,,26.30208333,0,39,39,30,1,FBP-RB-17.png,0.35,1.2,31,0.5,,,,,,,,,,,,,,,,,,,,,,,,,,,,,,,,,,,,,,,,,,,,,
,,,,,SPR24_069,19,female,2024-04-18_17h03.54.566,jersey_experiment_5_v0,2023.2.2,Win32,85.47008547,,,,,,,,,,,,,,,,167.8884,169.1824,169.1825,170.9118,return,0.1324,,50.26041667,0,40,40,41,1,FBP-RB-19.png,0.37,1.2,42,0.5,,,,,,,,,,,,,,,,,,,,,,,,,,,,,,,,,,,,,,,,,,,,,
,,,,,SPR24_069,19,female,2024-04-18_17h03.54.566,jersey_experiment_5_v0,2023.2.2,Win32,85.47008547,,,,,,,,,,,,,,,,170.912,172.2061,172.2061,173.1943,return,0.18,,25.91145833,0,41,41,6,1,FBP-OG-81.png,0.37,1.2,7,0.5,,,,,,,,,,,,,,,,,,,,,,,,,,,,,,,,,,,,,,,,,,,,,
,,,,,SPR24_069,19,female,2024-04-18_17h03.54.566,jersey_experiment_5_v0,2023.2.2,Win32,85.47008547,,,,,,,,,,,,,,,,173.1945,174.2413,174.2413,175.1825,return,0.3868,,25.91145833,0,42,42,20,1,FBP-YG-18.png,0.35,1.2,21,0.25,,,,,,,,,,,,,,,,,,,,,,,,,,,,,,,,,,,,,,,,,,,,,
,,,,,SPR24_069,19,female,2024-04-18_17h03.54.566,jersey_experiment_5_v0,2023.2.2,Win32,85.47008547,,,,,,,,,,,,,,,,175.1828,176.4767,176.4767,177.7122,return,0.1889,,14.453125,0,43,43,35,1,FBP-RB-18.png,0.35,1.2,36,0.5,,,,,,,,,,,,,,,,,,,,,,,,,,,,,,,,,,,,,,,,,,,,,
,,,,,SPR24_069,19,female,2024-04-18_17h03.54.566,jersey_experiment_5_v0,2023.2.2,Win32,85.47008547,,,,,,,,,,,,,,,,177.7124,178.7592,178.7593,180.3592,return,0.1713,,73.56770833,0,44,44,56,1,FBP-PT-19.png,0.37,1.2,57,0.25,,,,,,,,,,,,,,,,,,,,,,,,,,,,,,,,,,,,,,,,,,,,,
,,,,,SPR24_069,19,female,2024-04-18_17h03.54.566,jersey_experiment_5_v0,2023.2.2,Win32,85.47008547,,,,,,,,,,,,,,,,180.3594,181.6534,181.6535,183.877,return,0.1954,,98.69791667,0,45,45,14,1,FBP-OG-91.png,0.45,1.2,15,0.5,,,,,,,,,,,,,,,,,,,,,,,,,,,,,,,,,,,,,,,,,,,,,
,,,,,SPR24_069,19,female,2024-04-18_17h03.54.566,jersey_experiment_5_v0,2023.2.2,Win32,85.47008547,,,,,,,,,,,,,,,,183.8772,184.924,184.924,186.2536,return,0.1413,,75.52083333,0,46,46,23,1,FBP-YG-18.png,0.43,1.2,24,0.25,,,,,,,,,,,,,,,,,,,,,,,,,,,,,,,,,,,,,,,,,,,,,
,,,,,SPR24_069,19,female,2024-04-18_17h03.54.566,jersey_experiment_5_v0,2023.2.2,Win32,85.47008547,,,,,,,,,,,,,,,,186.2539,187.5477,187.5478,188.7831,return,0.118,,37.5,0,47,47,31,1,FBP-RB-17.png,0.37,1.2,32,0.5,,,,,,,,,,,,,,,,,,,,,,,,,,,,,,,,,,,,,,,,,,,,,
,,,,,SPR24_069,19,female,2024-04-18_17h03.54.566,jersey_experiment_5_v0,2023.2.2,Win32,85.47008547,,,,,,,,,,,,,,,,188.7833,190.0772,190.0773,191.9597,return,0.1235,,38.93229167,0,48,48,36,1,FBP-RB-18.png,0.37,1.2,37,0.5,,,,,,,,,,,,,,,,,,,,,,,,,,,,,,,,,,,,,,,,,,,,,
,,,,,SPR24_069,19,female,2024-04-18_17h03.54.566,jersey_experiment_5_v0,2023.2.2,Win32,85.47008547,,,,,,,,,,,,,,,,191.96,193.0068,193.0068,194.5008,return,0.3382,,98.046875,0,49,49,54,1,FBP-PT-18.png,0.45,1.2,55,0.25,,,,,,,,,,,,,,,,,,,,,,,,,,,,,,,,,,,,,,,,,,,,,
,,,,,SPR24_069,19,female,2024-04-18_17h03.54.566,jersey_experiment_5_v0,2023.2.2,Win32,85.47008547,,,,,,,,,,,,,,,,194.5011,195.5483,195.5483,197.1483,return,0.156,,74.609375,0,50,50,53,1,FBP-PT-18.png,0.43,1.2,54,0.25,,,,,,,,,,,,,,,,,,,,,,,,,,,,,,,,,,,,,,,,,,,,,
,,,,,SPR24_069,19,female,2024-04-18_17h03.54.566,jersey_experiment_5_v0,2023.2.2,Win32,85.47008547,,,,,,,,,,,,,,,,197.1485,198.1953,198.1953,202.5836,return,3.3591,,20.83333333,0,51,51,55,1,FBP-PT-19.png,0.35,1.2,56,0.25,,,,,,,,,,,,,,,,,,,,,,,,,,,,,,,,,,,,,,,,,,,,,
,,,,,SPR24_069,19,female,2024-04-18_17h03.54.566,jersey_experiment_5_v0,2023.2.2,Win32,85.47008547,,,,,,,,,,,,,,,,202.584,203.8777,203.8778,205.2307,return,0.3159,,99.73958333,0,52,52,3,1,FBP-OG-71.png,0.43,1.2,4,0.5,,,,,,,,,,,,,,,,,,,,,,,,,,,,,,,,,,,,,,,,,,,,,
,,,,,SPR24_069,19,female,2024-04-18_17h03.54.566,jersey_experiment_5_v0,2023.2.2,Win32,85.47008547,,,,,,,,,,,,,,,,205.231,206.2778,206.2779,209.2897,return,0.8629,,75,0,53,53,18,1,FBP-YG-17.png,0.43,1.2,19,0.25,,,,,,,,,,,,,,,,,,,,,,,,,,,,,,,,,,,,,,,,,,,,,
,,,,,SPR24_069,19,female,2024-04-18_17h03.54.566,jersey_experiment_5_v0,2023.2.2,Win32,85.47008547,,,,,,,,,,,,,,,,209.2899,210.5838,210.5838,211.1839,return,0.2212,,75,0,54,54,2,1,FBP-OG-71.png,0.4,1.2,3,0.5,,,,,,,,,,,,,,,,,,,,,,,,,,,,,,,,,,,,,,,,,,,,,
,,,,,SPR24_069,19,female,2024-04-18_17h03.54.566,jersey_experiment_5_v0,2023.2.2,Win32,85.47008547,,,,,,,,,,,,,,,,211.184,212.478,212.478,214.3017,return,0.179,,80.46875,0,55,55,32,1,FBP-RB-17.png,0.4,1.2,33,0.5,,,,,,,,,,,,,,,,,,,,,,,,,,,,,,,,,,,,,,,,,,,,,
,,,,,SPR24_069,19,female,2024-04-18_17h03.54.566,jersey_experiment_5_v0,2023.2.2,Win32,85.47008547,,,,,,,,,,,,,,,,214.3018,215.5959,215.5959,218.7841,return,1.4917,,84.24479167,0,56,56,42,1,FBP-RB-19.png,0.4,1.2,43,0.5,,,,,,,,,,,,,,,,,,,,,,,,,,,,,,,,,,,,,,,,,,,,,
,,,,,SPR24_069,19,female,2024-04-18_17h03.54.566,jersey_experiment_5_v0,2023.2.2,Win32,85.47008547,,,,,,,,,,,,,,,,218.7843,219.8313,219.8313,221.3726,return,0.3774,,98.828125,0,57,57,19,1,FBP-YG-17.png,0.45,1.2,20,0.25,,,,,,,,,,,,,,,,,,,,,,,,,,,,,,,,,,,,,,,,,,,,,
,,,,,SPR24_069,19,female,2024-04-18_17h03.54.566,jersey_experiment_5_v0,2023.2.2,Win32,85.47008547,,,,,,,,,,,,,,,,221.3727,222.4196,222.4196,224.4313,return,0.2826,,9.635416667,0,58,58,45,1,FBP-PT-17.png,0.35,1.2,46,0.25,,,,,,,,,,,,,,,,,,,,,,,,,,,,,,,,,,,,,,,,,,,,,
,,,,,SPR24_069,19,female,2024-04-18_17h03.54.566,jersey_experiment_5_v0,2023.2.2,Win32,85.47008547,,,,,,,,,,,,,,,,224.4315,225.4786,225.4787,228.6552,return,1.4961,,37.36979167,0,59,59,25,1,FBP-YG-19.png,0.35,1.2,26,0.25,,,,,,,,,,,,,,,,,,,,,,,,,,,,,,,,,,,,,,,,,,,,,
,,,,,SPR24_069,19,female,2024-04-18_17h03.54.566,jersey_experiment_5_v0,2023.2.2,Win32,85.47008547,,,,,,,,,,,,,,,,228.6573,229.7022,229.7022,232.2199,return,0.2228,,98.828125,,,,,,FBP-PT-91.png,0.45,1.2,60,0.25,0,0,0,59,1,,,,,,,,,,,,,,,,,,,,,,,,,,,,,,,,,,,,,,,,
,,,,,SPR24_069,19,female,2024-04-18_17h03.54.566,jersey_experiment_5_v0,2023.2.2,Win32,85.47008547,,,,,,,,,,,,,,,,232.2205,233.5142,233.5142,235.7023,return,0.1719,,78.77604167,,,,,,FBP-OG-17.png,0.4,1.2,3,0.5,0,1,1,2,1,,,,,,,,,,,,,,,,,,,,,,,,,,,,,,,,,,,,,,,,
,,,,,SPR24_069,19,female,2024-04-18_17h03.54.566,jersey_experiment_5_v0,2023.2.2,Win32,85.47008547,,,,,,,,,,,,,,,,235.7027,236.9965,236.9966,238.4319,return,0.2824,,49.609375,,,,,,FBP-OG-18.png,0.37,1.2,7,0.5,0,2,2,6,1,,,,,,,,,,,,,,,,,,,,,,,,,,,,,,,,,,,,,,,,
,,,,,SPR24_069,19,female,2024-04-18_17h03.54.566,jersey_experiment_5_v0,2023.2.2,Win32,85.47008547,,,,,,,,,,,,,,,,238.4321,239.726,239.7261,241.4556,return,0.1885,,72.13541667,,,,,,FBP-OG-18.png,0.43,1.2,9,0.5,0,3,3,8,1,,,,,,,,,,,,,,,,,,,,,,,,,,,,,,,,,,,,,,,,
,,,,,SPR24_069,19,female,2024-04-18_17h03.54.566,jersey_experiment_5_v0,2023.2.2,Win32,85.47008547,,,,,,,,,,,,,,,,241.4558,242.7496,242.7497,243.8202,return,0.2224,,84.765625,,,,,,FBP-RB-81.png,0.45,1.2,40,0.5,0,4,4,39,1,,,,,,,,,,,,,,,,,,,,,,,,,,,,,,,,,,,,,,,,
,,,,,SPR24_069,19,female,2024-04-18_17h03.54.566,jersey_experiment_5_v0,2023.2.2,Win32,85.47008547,,,,,,,,,,,,,,,,243.8205,244.8674,244.8674,247.7263,return,2.1984,,49.609375,,,,,,FBP-PT-71.png,0.4,1.2,48,0.25,0,5,5,47,1,,,,,,,,,,,,,,,,,,,,,,,,,,,,,,,,,,,,,,,,
,,,,,SPR24_069,19,female,2024-04-18_17h03.54.566,jersey_experiment_5_v0,2023.2.2,Win32,85.47008547,,,,,,,,,,,,,,,,247.7264,249.0206,249.0206,252.7972,return,1.0021,,90.234375,,,,,,FBP-OG-18.png,0.45,1.2,10,0.5,0,6,6,9,1,,,,,,,,,,,,,,,,,,,,,,,,,,,,,,,,,,,,,,,,
,,,,,SPR24_069,19,female,2024-04-18_17h03.54.566,jersey_experiment_5_v0,2023.2.2,Win32,85.47008547,,,,,,,,,,,,,,,,252.7974,254.0914,254.0914,254.9385,return,0.1795,,89.58333333,,,,,,FBP-OG-17.png,0.43,1.2,4,0.5,0,7,7,3,1,,,,,,,,,,,,,,,,,,,,,,,,,,,,,,,,,,,,,,,,
,,,,,SPR24_069,19,female,2024-04-18_17h03.54.566,jersey_experiment_5_v0,2023.2.2,Win32,85.47008547,,,,,,,,,,,,,,,,254.9387,255.9854,255.9855,257.5739,return,0.1466,,34.375,,,,,,FBP-YG-91.png,0.35,1.2,26,0.25,0,8,8,25,1,,,,,,,,,,,,,,,,,,,,,,,,,,,,,,,,,,,,,,,,
,,,,,SPR24_069,19,female,2024-04-18_17h03.54.566,jersey_experiment_5_v0,2023.2.2,Win32,85.47008547,,,,,,,,,,,,,,,,257.5741,258.8681,258.8681,260.0092,return,0.1785,,25.13020833,,,,,,FBP-RB-91.png,0.35,1.2,41,0.5,0,9,9,40,1,,,,,,,,,,,,,,,,,,,,,,,,,,,,,,,,,,,,,,,,
,,,,,SPR24_069,19,female,2024-04-18_17h03.54.566,jersey_experiment_5_v0,2023.2.2,Win32,85.47008547,,,,,,,,,,,,,,,,260.0095,261.3032,261.3033,263.3269,return,0.2923,,50.26041667,,,,,,FBP-RB-71.png,0.4,1.2,33,0.5,0,10,10,32,1,,,,,,,,,,,,,,,,,,,,,,,,,,,,,,,,,,,,,,,,
,,,,,SPR24_069,19,female,2024-04-18_17h03.54.566,jersey_experiment_5_v0,2023.2.2,Win32,85.47008547,,,,,,,,,,,,,,,,263.3273,264.3741,264.3742,266.2212,return,0.3627,,73.046875,,,,,,FBP-YG-71.png,0.4,1.2,18,0.25,0,11,11,17,1,,,,,,,,,,,,,,,,,,,,,,,,,,,,,,,,,,,,,,,,
,,,,,SPR24_069,19,female,2024-04-18_17h03.54.566,jersey_experiment_5_v0,2023.2.2,Win32,85.47008547,,,,,,,,,,,,,,,,266.2214,267.2682,267.2682,268.5389,return,0.1658,,91.015625,,,,,,FBP-YG-81.png,0.45,1.2,25,0.25,0,12,12,24,1,,,,,,,,,,,,,,,,,,,,,,,,,,,,,,,,,,,,,,,,
,,,,,SPR24_069,19,female,2024-04-18_17h03.54.566,jersey_experiment_5_v0,2023.2.2,Win32,85.47008547,,,,,,,,,,,,,,,,268.5391,269.8332,269.8332,272.0097,return,0.296,,93.61979167,,,,,,FBP-RB-81.png,0.43,1.2,39,0.5,0,13,13,38,1,,,,,,,,,,,,,,,,,,,,,,,,,,,,,,,,,,,,,,,,
,,,,,SPR24_069,19,female,2024-04-18_17h03.54.566,jersey_experiment_5_v0,2023.2.2,Win32,85.47008547,,,,,,,,,,,,,,,,272.0099,273.0567,273.0567,276.5863,return,0.0959,,59.765625,,,,,,FBP-PT-81.png,0.45,1.2,55,0.25,0,14,14,54,1,,,,,,,,,,,,,,,,,,,,,,,,,,,,,,,,,,,,,,,,
,,,,,SPR24_069,19,female,2024-04-18_17h03.54.566,jersey_experiment_5_v0,2023.2.2,Win32,85.47008547,,,,,,,,,,,,,,,,276.5865,277.6333,277.6333,278.998,return,0.2196,,28.77604167,,,,,,FBP-YG-71.png,0.35,1.2,16,0.25,0,15,15,15,1,,,,,,,,,,,,,,,,,,,,,,,,,,,,,,,,,,,,,,,,
,,,,,SPR24_069,19,female,2024-04-18_17h03.54.566,jersey_experiment_5_v0,2023.2.2,Win32,85.47008547,,,,,,,,,,,,,,,,278.9981,280.0453,280.0454,281.9512,return,0.2129,,97.265625,,,,,,FBP-PT-71.png,0.43,1.2,49,0.25,0,16,16,48,1,,,,,,,,,,,,,,,,,,,,,,,,,,,,,,,,,,,,,,,,
,,,,,SPR24_069,19,female,2024-04-18_17h03.54.566,jersey_experiment_5_v0,2023.2.2,Win32,85.47008547,,,,,,,,,,,,,,,,281.9514,282.9982,282.9983,283.8689,return,0.1887,,96.35416667,,,,,,FBP-YG-71.png,0.43,1.2,19,0.25,0,17,17,18,1,,,,,,,,,,,,,,,,,,,,,,,,,,,,,,,,,,,,,,,,
,,,,,SPR24_069,19,female,2024-04-18_17h03.54.566,jersey_experiment_5_v0,2023.2.2,Win32,85.47008547,,,,,,,,,,,,,,,,283.8691,285.163,285.1631,288.1277,return,1.812,,2.34375,,,,,,FBP-OG-17.png,0.35,1.2,1,0.5,0,18,18,0,1,,,,,,,,,,,,,,,,,,,,,,,,,,,,,,,,,,,,,,,,
,,,,,SPR24_069,19,female,2024-04-18_17h03.54.566,jersey_experiment_5_v0,2023.2.2,Win32,85.47008547,,,,,,,,,,,,,,,,288.128,289.175,289.175,291.3515,return,0.8297,,97.91666667,,,,,,FBP-PT-71.png,0.45,1.2,50,0.25,0,19,19,49,1,,,,,,,,,,,,,,,,,,,,,,,,,,,,,,,,,,,,,,,,
,,,,,SPR24_069,19,female,2024-04-18_17h03.54.566,jersey_experiment_5_v0,2023.2.2,Win32,85.47008547,,,,,,,,,,,,,,,,291.3516,292.6456,292.6456,294.1515,return,0.1471,,26.82291667,,,,,,FBP-OG-19.png,0.4,1.2,13,0.5,0,20,20,12,1,,,,,,,,,,,,,,,,,,,,,,,,,,,,,,,,,,,,,,,,
,,,,,SPR24_069,19,female,2024-04-18_17h03.54.566,jersey_experiment_5_v0,2023.2.2,Win32,85.47008547,,,,,,,,,,,,,,,,294.1518,295.4456,295.4456,299.9989,return,2.3908,,80.98958333,,,,,,FBP-RB-71.png,0.45,1.2,35,0.5,0,21,21,34,1,,,,,,,,,,,,,,,,,,,,,,,,,,,,,,,,,,,,,,,,
,,,,,SPR24_069,19,female,2024-04-18_17h03.54.566,jersey_experiment_5_v0,2023.2.2,Win32,85.47008547,,,,,,,,,,,,,,,,299.9992,301.2929,301.2929,303.0225,return,0.0939,,49.47916667,,,,,,FBP-RB-81.png,0.37,1.2,37,0.5,0,22,22,36,1,,,,,,,,,,,,,,,,,,,,,,,,,,,,,,,,,,,,,,,,
,,,,,SPR24_069,19,female,2024-04-18_17h03.54.566,jersey_experiment_5_v0,2023.2.2,Win32,85.47008547,,,,,,,,,,,,,,,,303.0226,304.0696,304.0697,305.9519,return,0.1552,,95.18229167,,,,,,FBP-YG-81.png,0.37,1.2,22,0.25,0,23,23,21,1,,,,,,,,,,,,,,,,,,,,,,,,,,,,,,,,,,,,,,,,
,,,,,SPR24_069,19,female,2024-04-18_17h03.54.566,jersey_experiment_5_v0,2023.2.2,Win32,85.47008547,,,,,,,,,,,,,,,,305.9522,306.9991,306.9991,309.2464,return,0.2256,,49.73958333,,,,,,FBP-YG-71.png,0.37,1.2,17,0.25,0,24,24,16,1,,,,,,,,,,,,,,,,,,,,,,,,,,,,,,,,,,,,,,,,
,,,,,SPR24_069,19,female,2024-04-18_17h03.54.566,jersey_experiment_5_v0,2023.2.2,Win32,85.47008547,,,,,,,,,,,,,,,,309.2465,310.5405,310.5405,313.7054,return,0.9219,,30.859375,,,,,,FBP-OG-19.png,0.37,1.2,12,0.5,0,25,25,11,1,,,,,,,,,,,,,,,,,,,,,,,,,,,,,,,,,,,,,,,,
,,,,,SPR24_069,19,female,2024-04-18_17h03.54.566,jersey_experiment_5_v0,2023.2.2,Win32,85.47008547,,,,,,,,,,,,,,,,313.7056,314.7523,314.7523,316.376,return,0.121,,26.82291667,,,,,,FBP-PT-91.png,0.35,1.2,56,0.25,0,26,26,55,1,,,,,,,,,,,,,,,,,,,,,,,,,,,,,,,,,,,,,,,,
,,,,,SPR24_069,19,female,2024-04-18_17h03.54.566,jersey_experiment_5_v0,2023.2.2,Win32,85.47008547,,,,,,,,,,,,,,,,316.3762,317.6703,317.6703,318.7996,return,0.0951,,86.58854167,,,,,,FBP-RB-91.png,0.43,1.2,44,0.5,0,27,27,43,1,,,,,,,,,,,,,,,,,,,,,,,,,,,,,,,,,,,,,,,,
,,,,,SPR24_069,19,female,2024-04-18_17h03.54.566,jersey_experiment_5_v0,2023.2.2,Win32,85.47008547,,,,,,,,,,,,,,,,318.7998,320.094,320.094,321.1995,return,0.118,,30.98958333,,,,,,FBP-OG-18.png,0.35,1.2,6,0.5,0,28,28,5,1,,,,,,,,,,,,,,,,,,,,,,,,,,,,,,,,,,,,,,,,
,,,,,SPR24_069,19,female,2024-04-18_17h03.54.566,jersey_experiment_5_v0,2023.2.2,Win32,85.47008547,,,,,,,,,,,,,,,,321.1997,322.4938,322.4938,324.3408,return,1.2793,,49.08854167,,,,,,FBP-RB-81.png,0.35,1.2,36,0.5,0,29,29,35,1,,,,,,,,,,,,,,,,,,,,,,,,,,,,,,,,,,,,,,,,
,,,,,SPR24_069,19,female,2024-04-18_17h03.54.566,jersey_experiment_5_v0,2023.2.2,Win32,85.47008547,,,,,,,,,,,,,,,,324.3409,325.388,325.388,328.494,return,0.1555,,57.94270833,,,,,,FBP-PT-71.png,0.37,1.2,47,0.25,0,30,30,46,1,,,,,,,,,,,,,,,,,,,,,,,,,,,,,,,,,,,,,,,,
,,,,,SPR24_069,19,female,2024-04-18_17h03.54.566,jersey_experiment_5_v0,2023.2.2,Win32,85.47008547,,,,,,,,,,,,,,,,328.4943,329.541,329.541,331.2707,return,0.146,,80.59895833,,,,,,FBP-YG-81.png,0.4,1.2,23,0.25,0,31,31,22,1,,,,,,,,,,,,,,,,,,,,,,,,,,,,,,,,,,,,,,,,
,,,,,SPR24_069,19,female,2024-04-18_17h03.54.566,jersey_experiment_5_v0,2023.2.2,Win32,85.47008547,,,,,,,,,,,,,,,,331.271,332.3178,332.3178,334.0943,return,0.1879,,99.47916667,,,,,,FBP-PT-91.png,0.4,1.2,58,0.25,0,32,32,57,1,,,,,,,,,,,,,,,,,,,,,,,,,,,,,,,,,,,,,,,,
,,,,,SPR24_069,19,female,2024-04-18_17h03.54.566,jersey_experiment_5_v0,2023.2.2,Win32,85.47008547,,,,,,,,,,,,,,,,334.0945,335.1412,335.1413,337.212,return,0.99,,85.28645833,,,,,,FBP-PT-81.png,0.43,1.2,54,0.25,0,33,33,53,1,,,,,,,,,,,,,,,,,,,,,,,,,,,,,,,,,,,,,,,,
,,,,,SPR24_069,19,female,2024-04-18_17h03.54.566,jersey_experiment_5_v0,2023.2.2,Win32,85.47008547,,,,,,,,,,,,,,,,337.2122,338.259,338.259,340.1887,return,0.1788,,99.609375,,,,,,FBP-YG-71.png,0.45,1.2,20,0.25,0,34,34,19,1,,,,,,,,,,,,,,,,,,,,,,,,,,,,,,,,,,,,,,,,
,,,,,SPR24_069,19,female,2024-04-18_17h03.54.566,jersey_experiment_5_v0,2023.2.2,Win32,85.47008547,,,,,,,,,,,,,,,,340.1888,341.483,341.483,342.671,return,0.2115,,32.16145833,,,,,,FBP-OG-17.png,0.37,1.2,2,0.5,0,35,35,1,1,,,,,,,,,,,,,,,,,,,,,,,,,,,,,,,,,,,,,,,,
,,,,,SPR24_069,19,female,2024-04-18_17h03.54.566,jersey_experiment_5_v0,2023.2.2,Win32,85.47008547,,,,,,,,,,,,,,,,342.6711,343.7181,343.7181,345.024,return,0.1884,,84.11458333,,,,,,FBP-YG-91.png,0.43,1.2,29,0.25,0,36,36,28,1,,,,,,,,,,,,,,,,,,,,,,,,,,,,,,,,,,,,,,,,
,,,,,SPR24_069,19,female,2024-04-18_17h03.54.566,jersey_experiment_5_v0,2023.2.2,Win32,85.47008547,,,,,,,,,,,,,,,,345.0242,346.3181,346.3181,348.2241,return,0.2926,,95.703125,,,,,,FBP-RB-91.png,0.4,1.2,43,0.5,0,37,37,42,1,,,,,,,,,,,,,,,,,,,,,,,,,,,,,,,,,,,,,,,,
,,,,,SPR24_069,19,female,2024-04-18_17h03.54.566,jersey_experiment_5_v0,2023.2.2,Win32,85.47008547,,,,,,,,,,,,,,,,348.2243,349.5184,349.5184,350.5655,return,0.1141,,75.13020833,,,,,,FBP-RB-91.png,0.37,1.2,42,0.5,0,38,38,41,1,,,,,,,,,,,,,,,,,,,,,,,,,,,,,,,,,,,,,,,,
,,,,,SPR24_069,19,female,2024-04-18_17h03.54.566,jersey_experiment_5_v0,2023.2.2,Win32,85.47008547,,,,,,,,,,,,,,,,350.5656,351.6125,351.6125,353.0949,return,0.1715,,86.45833333,,,,,,FBP-YG-91.png,0.45,1.2,30,0.25,0,39,39,29,1,,,,,,,,,,,,,,,,,,,,,,,,,,,,,,,,,,,,,,,,
,,,,,SPR24_069,19,female,2024-04-18_17h03.54.566,jersey_experiment_5_v0,2023.2.2,Win32,85.47008547,,,,,,,,,,,,,,,,353.0951,354.389,354.389,356.0243,return,0.1678,,48.046875,,,,,,FBP-RB-71.png,0.37,1.2,32,0.5,0,40,40,31,1,,,,,,,,,,,,,,,,,,,,,,,,,,,,,,,,,,,,,,,,
,,,,,SPR24_069,19,female,2024-04-18_17h03.54.566,jersey_experiment_5_v0,2023.2.2,Win32,85.47008547,,,,,,,,,,,,,,,,356.0245,357.3187,357.3187,359.9186,return,0.094,,75.13020833,,,,,,FBP-RB-71.png,0.43,1.2,34,0.5,0,41,41,33,1,,,,,,,,,,,,,,,,,,,,,,,,,,,,,,,,,,,,,,,,
,,,,,SPR24_069,19,female,2024-04-18_17h03.54.566,jersey_experiment_5_v0,2023.2.2,Win32,85.47008547,,,,,,,,,,,,,,,,359.9188,361.2129,361.2129,362.3776,return,0.1566,,88.02083333,,,,,,FBP-RB-91.png,0.45,1.2,45,0.5,0,42,42,44,1,,,,,,,,,,,,,,,,,,,,,,,,,,,,,,,,,,,,,,,,
,,,,,SPR24_069,19,female,2024-04-18_17h03.54.566,jersey_experiment_5_v0,2023.2.2,Win32,85.47008547,,,,,,,,,,,,,,,,362.3779,363.4246,363.4246,365.8482,return,0.3684,,51.30208333,,,,,,FBP-PT-81.png,0.4,1.2,53,0.25,0,43,43,52,1,,,,,,,,,,,,,,,,,,,,,,,,,,,,,,,,,,,,,,,,
,,,,,SPR24_069,19,female,2024-04-18_17h03.54.566,jersey_experiment_5_v0,2023.2.2,Win32,85.47008547,,,,,,,,,,,,,,,,365.8483,366.8954,366.8955,369.166,return,1.0214,,30.59895833,,,,,,FBP-PT-71.png,0.35,1.2,46,0.25,0,44,44,45,1,,,,,,,,,,,,,,,,,,,,,,,,,,,,,,,,,,,,,,,,
,,,,,SPR24_069,19,female,2024-04-18_17h03.54.566,jersey_experiment_5_v0,2023.2.2,Win32,85.47008547,,,,,,,,,,,,,,,,369.1662,370.213,370.2131,373.6367,return,1.1246,,36.06770833,,,,,,FBP-PT-91.png,0.37,1.2,57,0.25,0,45,45,56,1,,,,,,,,,,,,,,,,,,,,,,,,,,,,,,,,,,,,,,,,
,,,,,SPR24_069,19,female,2024-04-18_17h03.54.566,jersey_experiment_5_v0,2023.2.2,Win32,85.47008547,,,,,,,,,,,,,,,,373.637,374.6839,374.684,377.1898,return,0.1589,,25.52083333,,,,,,FBP-PT-81.png,0.35,1.2,51,0.25,0,46,46,50,1,,,,,,,,,,,,,,,,,,,,,,,,,,,,,,,,,,,,,,,,
,,,,,SPR24_069,19,female,2024-04-18_17h03.54.566,jersey_experiment_5_v0,2023.2.2,Win32,85.47008547,,,,,,,,,,,,,,,,377.19,378.237,378.2371,379.637,return,0.1733,,25.91145833,,,,,,FBP-YG-91.png,0.37,1.2,27,0.25,0,47,47,26,1,,,,,,,,,,,,,,,,,,,,,,,,,,,,,,,,,,,,,,,,
,,,,,SPR24_069,19,female,2024-04-18_17h03.54.566,jersey_experiment_5_v0,2023.2.2,Win32,85.47008547,,,,,,,,,,,,,,,,379.6372,380.6841,380.6842,383.2136,return,0.1647,,84.50520833,,,,,,FBP-YG-81.png,0.43,1.2,24,0.25,0,48,48,23,1,,,,,,,,,,,,,,,,,,,,,,,,,,,,,,,,,,,,,,,,
,,,,,SPR24_069,19,female,2024-04-18_17h03.54.566,jersey_experiment_5_v0,2023.2.2,Win32,85.47008547,,,,,,,,,,,,,,,,383.2139,384.5076,384.5077,386.0255,return,0.1571,,99.73958333,,,,,,FBP-OG-19.png,0.45,1.2,15,0.5,0,49,49,14,1,,,,,,,,,,,,,,,,,,,,,,,,,,,,,,,,,,,,,,,,
,,,,,SPR24_069,19,female,2024-04-18_17h03.54.566,jersey_experiment_5_v0,2023.2.2,Win32,85.47008547,,,,,,,,,,,,,,,,386.0256,387.3196,387.3196,389.0373,return,0.1648,,92.70833333,,,,,,FBP-OG-18.png,0.4,1.2,8,0.5,0,50,50,7,1,,,,,,,,,,,,,,,,,,,,,,,,,,,,,,,,,,,,,,,,
,,,,,SPR24_069,19,female,2024-04-18_17h03.54.566,jersey_experiment_5_v0,2023.2.2,Win32,85.47008547,,,,,,,,,,,,,,,,389.0376,390.0844,390.0844,391.2139,return,0.2681,,92.578125,,,,,,FBP-YG-91.png,0.4,1.2,28,0.25,0,51,51,27,1,,,,,,,,,,,,,,,,,,,,,,,,,,,,,,,,,,,,,,,,
,,,,,SPR24_069,19,female,2024-04-18_17h03.54.566,jersey_experiment_5_v0,2023.2.2,Win32,85.47008547,,,,,,,,,,,,,,,,391.2142,392.2611,392.2611,393.0963,return,0.2277,,92.578125,,,,,,FBP-PT-91.png,0.43,1.2,59,0.25,0,52,52,58,1,,,,,,,,,,,,,,,,,,,,,,,,,,,,,,,,,,,,,,,,
,,,,,SPR24_069,19,female,2024-04-18_17h03.54.566,jersey_experiment_5_v0,2023.2.2,Win32,85.47008547,,,,,,,,,,,,,,,,393.0964,394.1436,394.1436,395.8964,return,0.3211,,85.546875,,,,,,FBP-PT-81.png,0.37,1.2,52,0.25,0,53,53,51,1,,,,,,,,,,,,,,,,,,,,,,,,,,,,,,,,,,,,,,,,
,,,,,SPR24_069,19,female,2024-04-18_17h03.54.566,jersey_experiment_5_v0,2023.2.2,Win32,85.47008547,,,,,,,,,,,,,,,,395.8967,397.1905,397.1905,398.379,return,0.3298,,98.69791667,,,,,,FBP-OG-17.png,0.45,1.2,5,0.5,0,54,54,4,1,,,,,,,,,,,,,,,,,,,,,,,,,,,,,,,,,,,,,,,,
,,,,,SPR24_069,19,female,2024-04-18_17h03.54.566,jersey_experiment_5_v0,2023.2.2,Win32,85.47008547,,,,,,,,,,,,,,,,398.3792,399.673,399.6731,401.626,return,0.0387,,74.21875,,,,,,FBP-RB-81.png,0.4,1.2,38,0.5,0,55,55,37,1,,,,,,,,,,,,,,,,,,,,,,,,,,,,,,,,,,,,,,,,
,,,,,SPR24_069,19,female,2024-04-18_17h03.54.566,jersey_experiment_5_v0,2023.2.2,Win32,85.47008547,,,,,,,,,,,,,,,,401.6262,402.9202,402.9202,404.6027,return,0.1675,,27.734375,,,,,,FBP-RB-71.png,0.35,1.2,31,0.5,0,56,56,30,1,,,,,,,,,,,,,,,,,,,,,,,,,,,,,,,,,,,,,,,,
,,,,,SPR24_069,19,female,2024-04-18_17h03.54.566,jersey_experiment_5_v0,2023.2.2,Win32,85.47008547,,,,,,,,,,,,,,,,404.6029,405.8968,405.8969,406.5674,return,0.1685,,27.734375,,,,,,FBP-OG-19.png,0.35,1.2,11,0.5,0,57,57,10,1,,,,,,,,,,,,,,,,,,,,,,,,,,,,,,,,,,,,,,,,
,,,,,SPR24_069,19,female,2024-04-18_17h03.54.566,jersey_experiment_5_v0,2023.2.2,Win32,85.47008547,,,,,,,,,,,,,,,,406.5677,407.6144,407.6145,408.4615,return,0.0471,,27.734375,,,,,,FBP-YG-81.png,0.35,1.2,21,0.25,0,58,58,20,1,,,,,,,,,,,,,,,,,,,,,,,,,,,,,,,,,,,,,,,,
,,,,,SPR24_069,19,female,2024-04-18_17h03.54.566,jersey_experiment_5_v0,2023.2.2,Win32,85.47008547,,,,,,,,,,,,,,,,408.4617,409.7557,409.7557,411.3322,return,0.0197,,74.86979167,,,,,,FBP-OG-19.png,0.43,1.2,14,0.5,0,59,59,13,1,,,,,,,,,,,,,,,,,,,,,,,,,,,,,,,,,,,,,,,,
,,,,,SPR24_069,19,female,2024-04-18_17h03.54.566,jersey_experiment_5_v0,2023.2.2,Win32,85.47008547,,,,,,,,,,,,,,,,,,,,,,,,,,,,,,,,,,,,,,,411.3325,531.325,,,,,,,,,,,,,,,,,,,,,,,,,,,,,,,,,,,,,,
,,,,,SPR24_069,19,female,2024-04-18_17h03.54.566,jersey_experiment_5_v0,2023.2.2,Win32,85.47008547,,,,,,,,,,,,,,,,,,,,,,,,,,,,,,,,,,,,,,,,,531.325,543.5608,return,12.2283,,,,,,,,,,,,,,,,,,,,,,,,,,,,,,,,,,
,,,,,SPR24_069,19,female,2024-04-18_17h03.54.566,jersey_experiment_5_v0,2023.2.2,Win32,85.47008547,,,,,,,,,,,,,,,,543.5671,544.8665,544.8665,547.7018,return,0.8897,,43.09895833,,,,,,FBP-YG-19.png,0.4,1.2,28,0.5,,,,,,,,,,,,,0,0,0,27,1,,,,,,,,,,,,,,,,,,,,,,,,,,,,
,,,,,SPR24_069,19,female,2024-04-18_17h03.54.566,jersey_experiment_5_v0,2023.2.2,Win32,85.47008547,,,,,,,,,,,,,,,,547.7022,548.9961,548.9961,551.0548,return,0.457,,95.3125,,,,,,FBP-PT-17.png,0.45,1.2,50,0.5,,,,,,,,,,,,,0,1,1,49,1,,,,,,,,,,,,,,,,,,,,,,,,,,,,
,,,,,SPR24_069,19,female,2024-04-18_17h03.54.566,jersey_experiment_5_v0,2023.2.2,Win32,85.47008547,,,,,,,,,,,,,,,,551.055,552.349,552.3491,554.6314,return,0.1469,,49.47916667,,,,,,FBP-YG-17.png,0.37,1.2,17,0.5,,,,,,,,,,,,,0,2,2,16,1,,,,,,,,,,,,,,,,,,,,,,,,,,,,
,,,,,SPR24_069,19,female,2024-04-18_17h03.54.566,jersey_experiment_5_v0,2023.2.2,Win32,85.47008547,,,,,,,,,,,,,,,,554.6318,555.6786,555.6786,557.055,return,0.2124,,39.0625,,,,,,FBP-OG-81.png,0.35,1.2,6,0.25,,,,,,,,,,,,,0,3,3,5,1,,,,,,,,,,,,,,,,,,,,,,,,,,,,
,,,,,SPR24_069,19,female,2024-04-18_17h03.54.566,jersey_experiment_5_v0,2023.2.2,Win32,85.47008547,,,,,,,,,,,,,,,,557.0552,558.3493,558.3493,559.4552,return,0.3392,,38.54166667,,,,,,FBP-PT-19.png,0.35,1.2,56,0.5,,,,,,,,,,,,,0,4,4,55,1,,,,,,,,,,,,,,,,,,,,,,,,,,,,
,,,,,SPR24_069,19,female,2024-04-18_17h03.54.566,jersey_experiment_5_v0,2023.2.2,Win32,85.47008547,,,,,,,,,,,,,,,,559.4553,560.5022,560.5022,562.9964,return,0.1146,,98.4375,,,,,,FBP-RB-17.png,0.43,1.2,34,0.25,,,,,,,,,,,,,0,5,5,33,1,,,,,,,,,,,,,,,,,,,,,,,,,,,,
,,,,,SPR24_069,19,female,2024-04-18_17h03.54.566,jersey_experiment_5_v0,2023.2.2,Win32,85.47008547,,,,,,,,,,,,,,,,562.9966,564.2907,564.2908,564.8907,return,0.2002,,97.265625,,,,,,FBP-PT-18.png,0.45,1.2,55,0.5,,,,,,,,,,,,,0,6,6,54,1,,,,,,,,,,,,,,,,,,,,,,,,,,,,
,,,,,SPR24_069,19,female,2024-04-18_17h03.54.566,jersey_experiment_5_v0,2023.2.2,Win32,85.47008547,,,,,,,,,,,,,,,,564.8909,566.185,566.185,566.7496,return,0.2591,,97.265625,,,,,,FBP-YG-19.png,0.43,1.2,29,0.5,,,,,,,,,,,,,0,7,7,28,1,,,,,,,,,,,,,,,,,,,,,,,,,,,,
,,,,,SPR24_069,19,female,2024-04-18_17h03.54.566,jersey_experiment_5_v0,2023.2.2,Win32,85.47008547,,,,,,,,,,,,,,,,566.7498,567.7967,567.7967,569.7497,return,0.6639,,74.73958333,,,,,,FBP-RB-19.png,0.4,1.2,43,0.25,,,,,,,,,,,,,0,8,8,42,1,,,,,,,,,,,,,,,,,,,,,,,,,,,,
,,,,,SPR24_069,19,female,2024-04-18_17h03.54.566,jersey_experiment_5_v0,2023.2.2,Win32,85.47008547,,,,,,,,,,,,,,,,569.75,570.7967,570.7968,572.4557,return,1.1333,,68.359375,,,,,,FBP-RB-18.png,0.37,1.2,37,0.25,,,,,,,,,,,,,0,9,9,36,1,,,,,,,,,,,,,,,,,,,,,,,,,,,,
,,,,,SPR24_069,19,female,2024-04-18_17h03.54.566,jersey_experiment_5_v0,2023.2.2,Win32,85.47008547,,,,,,,,,,,,,,,,572.4559,573.7498,573.7499,575.797,return,0.1949,,39.0625,,,,,,FBP-YG-18.png,0.35,1.2,21,0.5,,,,,,,,,,,,,0,10,10,20,1,,,,,,,,,,,,,,,,,,,,,,,,,,,,
,,,,,SPR24_069,19,female,2024-04-18_17h03.54.566,jersey_experiment_5_v0,2023.2.2,Win32,85.47008547,,,,,,,,,,,,,,,,575.7972,577.0911,577.0911,578.5735,return,0.2029,,92.70833333,,,,,,FBP-YG-18.png,0.45,1.2,25,0.5,,,,,,,,,,,,,0,11,11,24,1,,,,,,,,,,,,,,,,,,,,,,,,,,,,
,,,,,SPR24_069,19,female,2024-04-18_17h03.54.566,jersey_experiment_5_v0,2023.2.2,Win32,85.47008547,,,,,,,,,,,,,,,,578.5737,579.6207,579.6207,582.4914,return,1.3292,,49.21875,,,,,,FBP-OG-91.png,0.37,1.2,12,0.25,,,,,,,,,,,,,0,12,12,11,1,,,,,,,,,,,,,,,,,,,,,,,,,,,,
,,,,,SPR24_069,19,female,2024-04-18_17h03.54.566,jersey_experiment_5_v0,2023.2.2,Win32,85.47008547,,,,,,,,,,,,,,,,582.4917,583.7855,583.7855,586.3268,return,1.9217,,67.44791667,,,,,,FBP-PT-18.png,0.4,1.2,53,0.5,,,,,,,,,,,,,0,13,13,52,1,,,,,,,,,,,,,,,,,,,,,,,,,,,,
,,,,,SPR24_069,19,female,2024-04-18_17h03.54.566,jersey_experiment_5_v0,2023.2.2,Win32,85.47008547,,,,,,,,,,,,,,,,586.3269,587.3739,587.374,589.0798,return,0.688,,91.14583333,,,,,,FBP-OG-91.png,0.45,1.2,15,0.25,,,,,,,,,,,,,0,14,14,14,1,,,,,,,,,,,,,,,,,,,,,,,,,,,,
,,,,,SPR24_069,19,female,2024-04-18_17h03.54.566,jersey_experiment_5_v0,2023.2.2,Win32,85.47008547,,,,,,,,,,,,,,,,589.08,590.374,590.374,591.6563,return,0.1671,,99.21875,,,,,,FBP-PT-19.png,0.45,1.2,60,0.5,,,,,,,,,,,,,0,15,15,59,1,,,,,,,,,,,,,,,,,,,,,,,,,,,,
,,,,,SPR24_069,19,female,2024-04-18_17h03.54.566,jersey_experiment_5_v0,2023.2.2,Win32,85.47008547,,,,,,,,,,,,,,,,591.6566,592.7034,592.7034,593.68,return,0.3776,,98.30729167,,,,,,FBP-RB-17.png,0.45,1.2,35,0.25,,,,,,,,,,,,,0,16,16,34,1,,,,,,,,,,,,,,,,,,,,,,,,,,,,
,,,,,SPR24_069,19,female,2024-04-18_17h03.54.566,jersey_experiment_5_v0,2023.2.2,Win32,85.47008547,,,,,,,,,,,,,,,,593.6802,594.9741,594.9742,596.233,return,0.0984,,33.984375,,,,,,FBP-YG-19.png,0.35,1.2,26,0.5,,,,,,,,,,,,,0,17,17,25,1,,,,,,,,,,,,,,,,,,,,,,,,,,,,
,,,,,SPR24_069,19,female,2024-04-18_17h03.54.566,jersey_experiment_5_v0,2023.2.2,Win32,85.47008547,,,,,,,,,,,,,,,,596.2332,597.5271,597.5271,598.0094,return,0.2139,,34.11458333,,,,,,FBP-YG-19.png,0.37,1.2,27,0.5,,,,,,,,,,,,,0,18,18,26,1,,,,,,,,,,,,,,,,,,,,,,,,,,,,
,,,,,SPR24_069,19,female,2024-04-18_17h03.54.566,jersey_experiment_5_v0,2023.2.2,Win32,85.47008547,,,,,,,,,,,,,,,,598.0096,599.3037,599.3038,601.7391,return,2.0022,,16.40625,,,,,,FBP-YG-17.png,0.35,1.2,16,0.5,,,,,,,,,,,,,0,19,19,15,1,,,,,,,,,,,,,,,,,,,,,,,,,,,,
,,,,,SPR24_069,19,female,2024-04-18_17h03.54.566,jersey_experiment_5_v0,2023.2.2,Win32,85.47008547,,,,,,,,,,,,,,,,601.7392,602.7863,602.7863,604.2686,return,0.0845,,90.625,,,,,,FBP-OG-71.png,0.45,1.2,5,0.25,,,,,,,,,,,,,0,20,20,4,1,,,,,,,,,,,,,,,,,,,,,,,,,,,,
,,,,,SPR24_069,19,female,2024-04-18_17h03.54.566,jersey_experiment_5_v0,2023.2.2,Win32,85.47008547,,,,,,,,,,,,,,,,604.2688,605.3157,605.3157,607.9276,return,1.0878,,49.609375,,,,,,FBP-OG-81.png,0.43,1.2,9,0.25,,,,,,,,,,,,,0,21,21,8,1,,,,,,,,,,,,,,,,,,,,,,,,,,,,
,,,,,SPR24_069,19,female,2024-04-18_17h03.54.566,jersey_experiment_5_v0,2023.2.2,Win32,85.47008547,,,,,,,,,,,,,,,,607.9278,608.9747,608.9747,612.4572,return,0.0958,,3.125,,,,,,FBP-OG-91.png,0.35,1.2,11,0.25,,,,,,,,,,,,,0,22,22,10,1,,,,,,,,,,,,,,,,,,,,,,,,,,,,
,,,,,SPR24_069,19,female,2024-04-18_17h03.54.566,jersey_experiment_5_v0,2023.2.2,Win32,85.47008547,,,,,,,,,,,,,,,,612.4573,613.7514,613.7515,616.1278,return,0.7281,,50.52083333,,,,,,FBP-PT-19.png,0.4,1.2,58,0.5,,,,,,,,,,,,,0,23,23,57,1,,,,,,,,,,,,,,,,,,,,,,,,,,,,
,,,,,SPR24_069,19,female,2024-04-18_17h03.54.566,jersey_experiment_5_v0,2023.2.2,Win32,85.47008547,,,,,,,,,,,,,,,,616.128,617.422,617.422,618.6456,return,0.2638,,97.00520833,,,,,,FBP-YG-17.png,0.45,1.2,20,0.5,,,,,,,,,,,,,0,24,24,19,1,,,,,,,,,,,,,,,,,,,,,,,,,,,,
,,,,,SPR24_069,19,female,2024-04-18_17h03.54.566,jersey_experiment_5_v0,2023.2.2,Win32,85.47008547,,,,,,,,,,,,,,,,618.6458,619.9397,619.9397,622.2928,return,0.9,,11.328125,,,,,,FBP-PT-17.png,0.35,1.2,46,0.5,,,,,,,,,,,,,0,25,25,45,1,,,,,,,,,,,,,,,,,,,,,,,,,,,,
,,,,,SPR24_069,19,female,2024-04-18_17h03.54.566,jersey_experiment_5_v0,2023.2.2,Win32,85.47008547,,,,,,,,,,,,,,,,622.293,623.3398,623.3398,625.0223,return,0.2734,,94.921875,,,,,,FBP-RB-18.png,0.43,1.2,39,0.25,,,,,,,,,,,,,0,26,26,38,1,,,,,,,,,,,,,,,,,,,,,,,,,,,,
,,,,,SPR24_069,19,female,2024-04-18_17h03.54.566,jersey_experiment_5_v0,2023.2.2,Win32,85.47008547,,,,,,,,,,,,,,,,625.0224,626.3165,626.3165,626.987,return,0.1067,,96.35416667,,,,,,FBP-PT-17.png,0.43,1.2,49,0.5,,,,,,,,,,,,,0,27,27,48,1,,,,,,,,,,,,,,,,,,,,,,,,,,,,
,,,,,SPR24_069,19,female,2024-04-18_17h03.54.566,jersey_experiment_5_v0,2023.2.2,Win32,85.47008547,,,,,,,,,,,,,,,,626.9871,628.2812,628.2813,629.5636,return,0.2594,,68.48958333,,,,,,FBP-YG-18.png,0.4,1.2,23,0.5,,,,,,,,,,,,,0,28,28,22,1,,,,,,,,,,,,,,,,,,,,,,,,,,,,
,,,,,SPR24_069,19,female,2024-04-18_17h03.54.566,jersey_experiment_5_v0,2023.2.2,Win32,85.47008547,,,,,,,,,,,,,,,,629.5638,630.6106,630.6106,635.5639,return,3.8497,,89.19270833,,,,,,FBP-OG-81.png,0.4,1.2,8,0.25,,,,,,,,,,,,,0,29,29,7,1,,,,,,,,,,,,,,,,,,,,,,,,,,,,
,,,,,SPR24_069,19,female,2024-04-18_17h03.54.566,jersey_experiment_5_v0,2023.2.2,Win32,85.47008547,,,,,,,,,,,,,,,,635.5642,636.858,636.858,638.1169,return,0.1831,,31.77083333,,,,,,FBP-PT-19.png,0.37,1.2,57,0.5,,,,,,,,,,,,,0,30,30,56,1,,,,,,,,,,,,,,,,,,,,,,,,,,,,
,,,,,SPR24_069,19,female,2024-04-18_17h03.54.566,jersey_experiment_5_v0,2023.2.2,Win32,85.47008547,,,,,,,,,,,,,,,,638.1171,639.1639,639.1639,641.2699,return,0.5585,,97.39583333,,,,,,FBP-OG-81.png,0.45,1.2,10,0.25,,,,,,,,,,,,,0,31,31,9,1,,,,,,,,,,,,,,,,,,,,,,,,,,,,
,,,,,SPR24_069,19,female,2024-04-18_17h03.54.566,jersey_experiment_5_v0,2023.2.2,Win32,85.47008547,,,,,,,,,,,,,,,,641.27,642.3168,642.3169,644.4584,return,0.0857,,48.95833333,,,,,,FBP-OG-91.png,0.4,1.2,13,0.25,,,,,,,,,,,,,0,32,32,12,1,,,,,,,,,,,,,,,,,,,,,,,,,,,,
,,,,,SPR24_069,19,female,2024-04-18_17h03.54.566,jersey_experiment_5_v0,2023.2.2,Win32,85.47008547,,,,,,,,,,,,,,,,644.4586,645.5053,645.5053,649.5408,return,2.7731,,34.24479167,,,,,,FBP-RB-18.png,0.35,1.2,36,0.25,,,,,,,,,,,,,0,33,33,35,1,,,,,,,,,,,,,,,,,,,,,,,,,,,,
,,,,,SPR24_069,19,female,2024-04-18_17h03.54.566,jersey_experiment_5_v0,2023.2.2,Win32,85.47008547,,,,,,,,,,,,,,,,649.541,650.5878,650.5878,652.5879,return,0.5279,,13.54166667,,,,,,FBP-RB-17.png,0.35,1.2,31,0.25,,,,,,,,,,,,,0,34,34,30,1,,,,,,,,,,,,,,,,,,,,,,,,,,,,
,,,,,SPR24_069,19,female,2024-04-18_17h03.54.566,jersey_experiment_5_v0,2023.2.2,Win32,85.47008547,,,,,,,,,,,,,,,,652.588,653.6351,653.6351,655.9291,return,0.6391,,92.578125,,,,,,FBP-RB-18.png,0.45,1.2,40,0.25,,,,,,,,,,,,,0,35,35,39,1,,,,,,,,,,,,,,,,,,,,,,,,,,,,
,,,,,SPR24_069,19,female,2024-04-18_17h03.54.566,jersey_experiment_5_v0,2023.2.2,Win32,85.47008547,,,,,,,,,,,,,,,,655.9293,657.2234,657.2234,658.3647,return,0.1642,,83.46354167,,,,,,FBP-PT-17.png,0.4,1.2,48,0.5,,,,,,,,,,,,,0,36,36,47,1,,,,,,,,,,,,,,,,,,,,,,,,,,,,
,,,,,SPR24_069,19,female,2024-04-18_17h03.54.566,jersey_experiment_5_v0,2023.2.2,Win32,85.47008547,,,,,,,,,,,,,,,,658.3649,659.4116,659.4117,662.3177,return,0.8849,,27.734375,,,,,,FBP-RB-19.png,0.37,1.2,42,0.25,,,,,,,,,,,,,0,37,37,41,1,,,,,,,,,,,,,,,,,,,,,,,,,,,,
,,,,,SPR24_069,19,female,2024-04-18_17h03.54.566,jersey_experiment_5_v0,2023.2.2,Win32,85.47008547,,,,,,,,,,,,,,,,662.318,663.6119,663.6119,664.6354,return,0.0346,,91.14583333,,,,,,FBP-YG-18.png,0.43,1.2,24,0.5,,,,,,,,,,,,,0,38,38,23,1,,,,,,,,,,,,,,,,,,,,,,,,,,,,
,,,,,SPR24_069,19,female,2024-04-18_17h03.54.566,jersey_experiment_5_v0,2023.2.2,Win32,85.47008547,,,,,,,,,,,,,,,,664.6357,665.9297,665.9297,666.3649,return,0.0613,,91.14583333,,,,,,FBP-PT-19.png,0.43,1.2,59,0.5,,,,,,,,,,,,,0,39,39,58,1,,,,,,,,,,,,,,,,,,,,,,,,,,,,
,,,,,SPR24_069,19,female,2024-04-18_17h03.54.566,jersey_experiment_5_v0,2023.2.2,Win32,85.47008547,,,,,,,,,,,,,,,,666.3651,667.4118,667.4118,668.4943,return,0.0565,,97.265625,,,,,,FBP-OG-71.png,0.43,1.2,4,0.25,,,,,,,,,,,,,0,40,40,3,1,,,,,,,,,,,,,,,,,,,,,,,,,,,,
,,,,,SPR24_069,19,female,2024-04-18_17h03.54.566,jersey_experiment_5_v0,2023.2.2,Win32,85.47008547,,,,,,,,,,,,,,,,668.4945,669.7885,669.7885,673.1181,return,0.2965,,98.56770833,,,,,,FBP-PT-18.png,0.43,1.2,54,0.5,,,,,,,,,,,,,0,41,41,53,1,,,,,,,,,,,,,,,,,,,,,,,,,,,,
,,,,,SPR24_069,19,female,2024-04-18_17h03.54.566,jersey_experiment_5_v0,2023.2.2,Win32,85.47008547,,,,,,,,,,,,,,,,673.1184,674.1652,674.1652,674.8476,return,0.1175,,98.56770833,,,,,,FBP-OG-91.png,0.43,1.2,14,0.25,,,,,,,,,,,,,0,42,42,13,1,,,,,,,,,,,,,,,,,,,,,,,,,,,,
,,,,,SPR24_069,19,female,2024-04-18_17h03.54.566,jersey_experiment_5_v0,2023.2.2,Win32,85.47008547,,,,,,,,,,,,,,,,674.8477,675.8947,675.8948,678.8242,return,1.1344,,5.859375,,,,,,FBP-OG-81.png,0.37,1.2,7,0.25,,,,,,,,,,,,,0,43,43,6,1,,,,,,,,,,,,,,,,,,,,,,,,,,,,
,,,,,SPR24_069,19,female,2024-04-18_17h03.54.566,jersey_experiment_5_v0,2023.2.2,Win32,85.47008547,,,,,,,,,,,,,,,,678.8243,679.8714,679.8714,682.3303,return,0.2853,,68.09895833,,,,,,FBP-RB-17.png,0.37,1.2,32,0.25,,,,,,,,,,,,,0,44,44,31,1,,,,,,,,,,,,,,,,,,,,,,,,,,,,
,,,,,SPR24_069,19,female,2024-04-18_17h03.54.566,jersey_experiment_5_v0,2023.2.2,Win32,85.47008547,,,,,,,,,,,,,,,,682.3307,683.6243,683.6243,685.4127,return,0.1729,,98.56770833,,,,,,FBP-YG-19.png,0.45,1.2,30,0.5,,,,,,,,,,,,,0,45,45,29,1,,,,,,,,,,,,,,,,,,,,,,,,,,,,
,,,,,SPR24_069,19,female,2024-04-18_17h03.54.566,jersey_experiment_5_v0,2023.2.2,Win32,85.47008547,,,,,,,,,,,,,,,,685.413,686.4598,686.4598,688.8951,return,1.4825,,98.4375,,,,,,FBP-RB-19.png,0.43,1.2,44,0.25,,,,,,,,,,,,,0,46,46,43,1,,,,,,,,,,,,,,,,,,,,,,,,,,,,
,,,,,SPR24_069,19,female,2024-04-18_17h03.54.566,jersey_experiment_5_v0,2023.2.2,Win32,85.47008547,,,,,,,,,,,,,,,,688.8954,689.9422,689.9422,691.3894,return,0.0568,,30.078125,,,,,,FBP-OG-71.png,0.4,1.2,3,0.25,,,,,,,,,,,,,0,47,47,2,1,,,,,,,,,,,,,,,,,,,,,,,,,,,,
,,,,,SPR24_069,19,female,2024-04-18_17h03.54.566,jersey_experiment_5_v0,2023.2.2,Win32,85.47008547,,,,,,,,,,,,,,,,691.3895,692.4363,692.4364,693.7072,return,0.0701,,13.54166667,,,,,,FBP-OG-71.png,0.37,1.2,2,0.25,,,,,,,,,,,,,0,48,48,1,1,,,,,,,,,,,,,,,,,,,,,,,,,,,,
,,,,,SPR24_069,19,female,2024-04-18_17h03.54.566,jersey_experiment_5_v0,2023.2.2,Win32,85.47008547,,,,,,,,,,,,,,,,693.7074,694.7541,694.7541,696.6365,return,0.1888,,99.609375,,,,,,FBP-RB-19.png,0.45,1.2,45,0.25,,,,,,,,,,,,,0,49,49,44,1,,,,,,,,,,,,,,,,,,,,,,,,,,,,
,,,,,SPR24_069,19,female,2024-04-18_17h03.54.566,jersey_experiment_5_v0,2023.2.2,Win32,85.47008547,,,,,,,,,,,,,,,,696.6367,697.9306,697.9307,699.2367,return,0.1706,,25.91145833,,,,,,FBP-PT-18.png,0.35,1.2,51,0.5,,,,,,,,,,,,,0,50,50,50,1,,,,,,,,,,,,,,,,,,,,,,,,,,,,
,,,,,SPR24_069,19,female,2024-04-18_17h03.54.566,jersey_experiment_5_v0,2023.2.2,Win32,85.47008547,,,,,,,,,,,,,,,,699.2368,700.2837,700.2837,701.7073,return,0.7769,,17.96875,,,,,,FBP-OG-71.png,0.35,1.2,1,0.25,,,,,,,,,,,,,0,51,51,0,1,,,,,,,,,,,,,,,,,,,,,,,,,,,,
,,,,,SPR24_069,19,female,2024-04-18_17h03.54.566,jersey_experiment_5_v0,2023.2.2,Win32,85.47008547,,,,,,,,,,,,,,,,701.7075,703.0015,703.0015,703.5897,return,0.1233,,17.96875,,,,,,FBP-PT-17.png,0.37,1.2,47,0.5,,,,,,,,,,,,,0,52,52,46,1,,,,,,,,,,,,,,,,,,,,,,,,,,,,
,,,,,SPR24_069,19,female,2024-04-18_17h03.54.566,jersey_experiment_5_v0,2023.2.2,Win32,85.47008547,,,,,,,,,,,,,,,,703.5899,704.6369,704.6369,706.2369,return,0.1884,,81.11979167,,,,,,FBP-RB-18.png,0.4,1.2,38,0.25,,,,,,,,,,,,,0,53,53,37,1,,,,,,,,,,,,,,,,,,,,,,,,,,,,
,,,,,SPR24_069,19,female,2024-04-18_17h03.54.566,jersey_experiment_5_v0,2023.2.2,Win32,85.47008547,,,,,,,,,,,,,,,,706.2371,707.531,707.531,708.6957,return,0.2993,,32.68229167,,,,,,FBP-PT-18.png,0.37,1.2,52,0.5,,,,,,,,,,,,,0,54,54,51,1,,,,,,,,,,,,,,,,,,,,,,,,,,,,
,,,,,SPR24_069,19,female,2024-04-18_17h03.54.566,jersey_experiment_5_v0,2023.2.2,Win32,85.47008547,,,,,,,,,,,,,,,,708.6959,709.7429,709.7429,711.0137,return,0.1252,,82.03125,,,,,,FBP-RB-17.png,0.4,1.2,33,0.25,,,,,,,,,,,,,0,55,55,32,1,,,,,,,,,,,,,,,,,,,,,,,,,,,,
,,,,,SPR24_069,19,female,2024-04-18_17h03.54.566,jersey_experiment_5_v0,2023.2.2,Win32,85.47008547,,,,,,,,,,,,,,,,711.0138,712.3077,712.3077,713.2372,return,0.0291,,90.75520833,,,,,,FBP-YG-17.png,0.43,1.2,19,0.5,,,,,,,,,,,,,0,56,56,18,1,,,,,,,,,,,,,,,,,,,,,,,,,,,,
,,,,,SPR24_069,19,female,2024-04-18_17h03.54.566,jersey_experiment_5_v0,2023.2.2,Win32,85.47008547,,,,,,,,,,,,,,,,713.2374,714.5314,714.5315,714.8842,return,0.0913,,90.75520833,,,,,,FBP-YG-17.png,0.4,1.2,18,0.5,,,,,,,,,,,,,0,57,57,17,1,,,,,,,,,,,,,,,,,,,,,,,,,,,,
,,,,,SPR24_069,19,female,2024-04-18_17h03.54.566,jersey_experiment_5_v0,2023.2.2,Win32,85.47008547,,,,,,,,,,,,,,,,714.8844,715.9314,715.9314,717.2843,return,0.2319,,29.03645833,,,,,,FBP-RB-19.png,0.35,1.2,41,0.25,,,,,,,,,,,,,0,58,58,40,1,,,,,,,,,,,,,,,,,,,,,,,,,,,,
,,,,,SPR24_069,19,female,2024-04-18_17h03.54.566,jersey_experiment_5_v0,2023.2.2,Win32,85.47008547,,,,,,,,,,,,,,,,717.2846,718.5785,718.5786,719.5668,return,0.0707,,49.609375,,,,,,FBP-YG-18.png,0.37,1.2,22,0.5,,,,,,,,,,,,,0,59,59,21,1,,,,,,,,,,,,,,,,,,,,,,,,,,,,
,,,,,SPR24_069,19,female,2024-04-18_17h03.54.566,jersey_experiment_5_v0,2023.2.2,Win32,85.47008547,,,,,,,,,,,,,,,,719.5689,720.6139,720.6139,722.7079,return,0.2206,,23.046875,,,,,,FBP-OG-19.png,0.37,1.2,12,0.25,,,,,,,,,,,,,,,,,,0,0,0,11,1,,,,,,,,,,,,,,,,,,,,,,,
,,,,,SPR24_069,19,female,2024-04-18_17h03.54.566,jersey_experiment_5_v0,2023.2.2,Win32,85.47008547,,,,,,,,,,,,,,,,722.7084,724.0023,724.0023,725.3082,return,0.0847,,5.859375,,,,,,FBP-PT-71.png,0.35,1.2,46,0.5,,,,,,,,,,,,,,,,,,0,1,1,45,1,,,,,,,,,,,,,,,,,,,,,,,
,,,,,SPR24_069,19,female,2024-04-18_17h03.54.566,jersey_experiment_5_v0,2023.2.2,Win32,85.47008547,,,,,,,,,,,,,,,,725.3084,726.3552,726.3552,727.9082,return,0.0895,,96.35416667,,,,,,FBP-RB-81.png,0.45,1.2,40,0.25,,,,,,,,,,,,,,,,,,0,2,2,39,1,,,,,,,,,,,,,,,,,,,,,,,
,,,,,SPR24_069,19,female,2024-04-18_17h03.54.566,jersey_experiment_5_v0,2023.2.2,Win32,85.47008547,,,,,,,,,,,,,,,,727.9083,728.9554,728.9554,730.9555,return,0.8009,,13.671875,,,,,,FBP-OG-18.png,0.35,1.2,6,0.25,,,,,,,,,,,,,,,,,,0,3,3,5,1,,,,,,,,,,,,,,,,,,,,,,,
,,,,,SPR24_069,19,female,2024-04-18_17h03.54.566,jersey_experiment_5_v0,2023.2.2,Win32,85.47008547,,,,,,,,,,,,,,,,730.9557,732.0025,732.0025,733.8378,return,0.1412,,94.921875,,,,,,FBP-RB-81.png,0.43,1.2,39,0.25,,,,,,,,,,,,,,,,,,0,4,4,38,1,,,,,,,,,,,,,,,,,,,,,,,
,,,,,SPR24_069,19,female,2024-04-18_17h03.54.566,jersey_experiment_5_v0,2023.2.2,Win32,85.47008547,,,,,,,,,,,,,,,,733.8381,734.885,734.885,738.8383,return,2.5701,,79.296875,,,,,,FBP-RB-91.png,0.4,1.2,43,0.25,,,,,,,,,,,,,,,,,,0,5,5,42,1,,,,,,,,,,,,,,,,,,,,,,,
,,,,,SPR24_069,19,female,2024-04-18_17h03.54.566,jersey_experiment_5_v0,2023.2.2,Win32,85.47008547,,,,,,,,,,,,,,,,738.8385,739.885,739.885,741.097,return,0.1095,,29.16666667,,,,,,FBP-OG-19.png,0.35,1.2,11,0.25,,,,,,,,,,,,,,,,,,0,6,6,10,1,,,,,,,,,,,,,,,,,,,,,,,
,,,,,SPR24_069,19,female,2024-04-18_17h03.54.566,jersey_experiment_5_v0,2023.2.2,Win32,85.47008547,,,,,,,,,,,,,,,,741.0973,742.3912,742.3912,743.9441,return,0.2147,,23.4375,,,,,,FBP-PT-81.png,0.37,1.2,52,0.5,,,,,,,,,,,,,,,,,,0,7,7,51,1,,,,,,,,,,,,,,,,,,,,,,,
,,,,,SPR24_069,19,female,2024-04-18_17h03.54.566,jersey_experiment_5_v0,2023.2.2,Win32,85.47008547,,,,,,,,,,,,,,,,743.9444,745.2383,745.2384,746.3443,return,0.2285,,96.09375,,,,,,FBP-YG-81.png,0.43,1.2,24,0.5,,,,,,,,,,,,,,,,,,0,8,8,23,1,,,,,,,,,,,,,,,,,,,,,,,
,,,,,SPR24_069,19,female,2024-04-18_17h03.54.566,jersey_experiment_5_v0,2023.2.2,Win32,85.47008547,,,,,,,,,,,,,,,,746.3445,747.6384,747.6384,750.756,return,2.1123,,87.109375,,,,,,FBP-PT-81.png,0.4,1.2,53,0.5,,,,,,,,,,,,,,,,,,0,9,9,52,1,,,,,,,,,,,,,,,,,,,,,,,
,,,,,SPR24_069,19,female,2024-04-18_17h03.54.566,jersey_experiment_5_v0,2023.2.2,Win32,85.47008547,,,,,,,,,,,,,,,,750.7562,752.0502,752.0502,756.1094,return,2.4373,,74.47916667,,,,,,FBP-YG-91.png,0.4,1.2,28,0.5,,,,,,,,,,,,,,,,,,0,10,10,27,1,,,,,,,,,,,,,,,,,,,,,,,
,,,,,SPR24_069,19,female,2024-04-18_17h03.54.566,jersey_experiment_5_v0,2023.2.2,Win32,85.47008547,,,,,,,,,,,,,,,,756.1096,757.4034,757.4035,759.1447,return,0.2044,,98.4375,,,,,,FBP-PT-71.png,0.45,1.2,50,0.5,,,,,,,,,,,,,,,,,,0,11,11,49,1,,,,,,,,,,,,,,,,,,,,,,,
,,,,,SPR24_069,19,female,2024-04-18_17h03.54.566,jersey_experiment_5_v0,2023.2.2,Win32,85.47008547,,,,,,,,,,,,,,,,759.1449,760.4388,760.4389,763.2271,return,0.2137,,26.30208333,,,,,,FBP-PT-81.png,0.35,1.2,51,0.5,,,,,,,,,,,,,,,,,,0,12,12,50,1,,,,,,,,,,,,,,,,,,,,,,,
,,,,,SPR24_069,19,female,2024-04-18_17h03.54.566,jersey_experiment_5_v0,2023.2.2,Win32,85.47008547,,,,,,,,,,,,,,,,763.2273,764.5212,764.5213,765.8038,return,0.2118,,96.875,,,,,,FBP-YG-91.png,0.37,1.2,27,0.5,,,,,,,,,,,,,,,,,,0,13,13,26,1,,,,,,,,,,,,,,,,,,,,,,,
,,,,,SPR24_069,19,female,2024-04-18_17h03.54.566,jersey_experiment_5_v0,2023.2.2,Win32,85.47008547,,,,,,,,,,,,,,,,765.804,766.8509,766.8509,770.6511,return,1.1301,,36.84895833,,,,,,FBP-OG-17.png,0.35,1.2,1,0.25,,,,,,,,,,,,,,,,,,0,14,14,0,1,,,,,,,,,,,,,,,,,,,,,,,
,,,,,SPR24_069,19,female,2024-04-18_17h03.54.566,jersey_experiment_5_v0,2023.2.2,Win32,85.47008547,,,,,,,,,,,,,,,,770.6512,771.698,771.698,773.5804,return,0.1651,,28.25520833,,,,,,FBP-OG-17.png,0.4,1.2,3,0.25,,,,,,,,,,,,,,,,,,0,15,15,2,1,,,,,,,,,,,,,,,,,,,,,,,
,,,,,SPR24_069,19,female,2024-04-18_17h03.54.566,jersey_experiment_5_v0,2023.2.2,Win32,85.47008547,,,,,,,,,,,,,,,,773.5807,774.6277,774.6277,776.0396,return,0.1688,,96.09375,,,,,,FBP-RB-71.png,0.43,1.2,34,0.25,,,,,,,,,,,,,,,,,,0,16,16,33,1,,,,,,,,,,,,,,,,,,,,,,,
,,,,,SPR24_069,19,female,2024-04-18_17h03.54.566,jersey_experiment_5_v0,2023.2.2,Win32,85.47008547,,,,,,,,,,,,,,,,776.0398,777.0865,777.0865,778.1102,return,0.2352,,90.234375,,,,,,FBP-RB-91.png,0.43,1.2,44,0.25,,,,,,,,,,,,,,,,,,0,17,17,43,1,,,,,,,,,,,,,,,,,,,,,,,
,,,,,SPR24_069,19,female,2024-04-18_17h03.54.566,jersey_experiment_5_v0,2023.2.2,Win32,85.47008547,,,,,,,,,,,,,,,,778.1104,779.1571,779.1571,780.6631,return,0.6741,,97.52604167,,,,,,FBP-OG-19.png,0.45,1.2,15,0.25,,,,,,,,,,,,,,,,,,0,18,18,14,1,,,,,,,,,,,,,,,,,,,,,,,
,,,,,SPR24_069,19,female,2024-04-18_17h03.54.566,jersey_experiment_5_v0,2023.2.2,Win32,85.47008547,,,,,,,,,,,,,,,,780.6633,781.9572,781.9573,783.3573,return,0.4135,,26.953125,,,,,,FBP-PT-91.png,0.35,1.2,56,0.5,,,,,,,,,,,,,,,,,,0,19,19,55,1,,,,,,,,,,,,,,,,,,,,,,,
,,,,,SPR24_069,19,female,2024-04-18_17h03.54.566,jersey_experiment_5_v0,2023.2.2,Win32,85.47008547,,,,,,,,,,,,,,,,783.3575,784.6515,784.6516,786.1574,return,1.049,,50.13020833,,,,,,FBP-PT-91.png,0.4,1.2,58,0.5,,,,,,,,,,,,,,,,,,0,20,20,57,1,,,,,,,,,,,,,,,,,,,,,,,
,,,,,SPR24_069,19,female,2024-04-18_17h03.54.566,jersey_experiment_5_v0,2023.2.2,Win32,85.47008547,,,,,,,,,,,,,,,,786.1577,787.2045,787.2045,788.7457,return,0.674,,70.44270833,,,,,,FBP-OG-17.png,0.45,1.2,5,0.25,,,,,,,,,,,,,,,,,,0,21,21,4,1,,,,,,,,,,,,,,,,,,,,,,,
,,,,,SPR24_069,19,female,2024-04-18_17h03.54.566,jersey_experiment_5_v0,2023.2.2,Win32,85.47008547,,,,,,,,,,,,,,,,788.7459,789.7928,789.7929,791.6871,return,0.4977,,88.41145833,,,,,,FBP-RB-71.png,0.45,1.2,35,0.25,,,,,,,,,,,,,,,,,,0,22,22,34,1,,,,,,,,,,,,,,,,,,,,,,,
,,,,,SPR24_069,19,female,2024-04-18_17h03.54.566,jersey_experiment_5_v0,2023.2.2,Win32,85.47008547,,,,,,,,,,,,,,,,791.6873,792.7341,792.7341,795.452,return,1.637,,48.69791667,,,,,,FBP-OG-19.png,0.4,1.2,13,0.25,,,,,,,,,,,,,,,,,,0,23,23,12,1,,,,,,,,,,,,,,,,,,,,,,,
,,,,,SPR24_069,19,female,2024-04-18_17h03.54.566,jersey_experiment_5_v0,2023.2.2,Win32,85.47008547,,,,,,,,,,,,,,,,795.4522,796.7462,796.7463,798.3461,return,0.1322,,35.02604167,,,,,,FBP-YG-81.png,0.35,1.2,21,0.5,,,,,,,,,,,,,,,,,,0,24,24,20,1,,,,,,,,,,,,,,,,,,,,,,,
,,,,,SPR24_069,19,female,2024-04-18_17h03.54.566,jersey_experiment_5_v0,2023.2.2,Win32,85.47008547,,,,,,,,,,,,,,,,798.3463,799.6403,799.6403,801.511,return,0.9944,,80.46875,,,,,,FBP-YG-91.png,0.45,1.2,30,0.5,,,,,,,,,,,,,,,,,,0,25,25,29,1,,,,,,,,,,,,,,,,,,,,,,,
,,,,,SPR24_069,19,female,2024-04-18_17h03.54.566,jersey_experiment_5_v0,2023.2.2,Win32,85.47008547,,,,,,,,,,,,,,,,801.5112,802.8051,802.8051,805.8288,return,0.2647,,51.43229167,,,,,,FBP-YG-71.png,0.4,1.2,18,0.5,,,,,,,,,,,,,,,,,,0,26,26,17,1,,,,,,,,,,,,,,,,,,,,,,,
,,,,,SPR24_069,19,female,2024-04-18_17h03.54.566,jersey_experiment_5_v0,2023.2.2,Win32,85.47008547,,,,,,,,,,,,,,,,805.8289,807.1229,807.123,808.617,return,0.4036,,28.515625,,,,,,FBP-YG-71.png,0.37,1.2,17,0.5,,,,,,,,,,,,,,,,,,0,27,27,16,1,,,,,,,,,,,,,,,,,,,,,,,
,,,,,SPR24_069,19,female,2024-04-18_17h03.54.566,jersey_experiment_5_v0,2023.2.2,Win32,85.47008547,,,,,,,,,,,,,,,,808.6172,809.9111,809.9111,811.2524,return,0.3003,,92.96875,,,,,,FBP-YG-91.png,0.43,1.2,29,0.5,,,,,,,,,,,,,,,,,,0,28,28,28,1,,,,,,,,,,,,,,,,,,,,,,,
,,,,,SPR24_069,19,female,2024-04-18_17h03.54.566,jersey_experiment_5_v0,2023.2.2,Win32,85.47008547,,,,,,,,,,,,,,,,811.2529,812.5465,812.5465,813.6055,return,0.6194,,91.53645833,,,,,,FBP-PT-81.png,0.45,1.2,55,0.5,,,,,,,,,,,,,,,,,,0,29,29,54,1,,,,,,,,,,,,,,,,,,,,,,,
,,,,,SPR24_069,19,female,2024-04-18_17h03.54.566,jersey_experiment_5_v0,2023.2.2,Win32,85.47008547,,,,,,,,,,,,,,,,813.6057,814.6526,814.6527,817.582,return,1.0118,,33.33333333,,,,,,FBP-OG-17.png,0.37,1.2,2,0.25,,,,,,,,,,,,,,,,,,0,30,30,1,1,,,,,,,,,,,,,,,,,,,,,,,
,,,,,SPR24_069,19,female,2024-04-18_17h03.54.566,jersey_experiment_5_v0,2023.2.2,Win32,85.47008547,,,,,,,,,,,,,,,,817.5822,818.6291,818.6292,822.6645,return,2.5314,,44.01041667,,,,,,FBP-RB-81.png,0.37,1.2,37,0.25,,,,,,,,,,,,,,,,,,0,31,31,36,1,,,,,,,,,,,,,,,,,,,,,,,
,,,,,SPR24_069,19,female,2024-04-18_17h03.54.566,jersey_experiment_5_v0,2023.2.2,Win32,85.47008547,,,,,,,,,,,,,,,,822.6647,823.7118,823.7118,825.4297,return,0.3722,,93.48958333,,,,,,FBP-RB-91.png,0.45,1.2,45,0.25,,,,,,,,,,,,,,,,,,0,32,32,44,1,,,,,,,,,,,,,,,,,,,,,,,
,,,,,SPR24_069,19,female,2024-04-18_17h03.54.566,jersey_experiment_5_v0,2023.2.2,Win32,85.47008547,,,,,,,,,,,,,,,,825.4299,826.4766,826.4766,827.9942,return,0.8941,,90.36458333,,,,,,FBP-OG-18.png,0.45,1.2,10,0.25,,,,,,,,,,,,,,,,,,0,33,33,9,1,,,,,,,,,,,,,,,,,,,,,,,
,,,,,SPR24_069,19,female,2024-04-18_17h03.54.566,jersey_experiment_5_v0,2023.2.2,Win32,85.47008547,,,,,,,,,,,,,,,,827.9944,829.2884,829.2884,830.4884,return,0.0958,,48.56770833,,,,,,FBP-PT-81.png,0.43,1.2,54,0.5,,,,,,,,,,,,,,,,,,0,34,34,53,1,,,,,,,,,,,,,,,,,,,,,,,
,,,,,SPR24_069,19,female,2024-04-18_17h03.54.566,jersey_experiment_5_v0,2023.2.2,Win32,85.47008547,,,,,,,,,,,,,,,,830.4887,831.5355,831.5355,832.712,return,0.4517,,48.56770833,,,,,,FBP-RB-71.png,0.35,1.2,31,0.25,,,,,,,,,,,,,,,,,,0,35,35,30,1,,,,,,,,,,,,,,,,,,,,,,,
,,,,,SPR24_069,19,female,2024-04-18_17h03.54.566,jersey_experiment_5_v0,2023.2.2,Win32,85.47008547,,,,,,,,,,,,,,,,832.7122,834.0062,834.0063,836.9593,return,1.5666,,42.96875,,,,,,FBP-PT-91.png,0.37,1.2,57,0.5,,,,,,,,,,,,,,,,,,0,36,36,56,1,,,,,,,,,,,,,,,,,,,,,,,
,,,,,SPR24_069,19,female,2024-04-18_17h03.54.566,jersey_experiment_5_v0,2023.2.2,Win32,85.47008547,,,,,,,,,,,,,,,,836.9594,838.2534,838.2534,840.277,return,0.8297,,92.578125,,,,,,FBP-YG-81.png,0.45,1.2,25,0.5,,,,,,,,,,,,,,,,,,0,37,37,24,1,,,,,,,,,,,,,,,,,,,,,,,
,,,,,SPR24_069,19,female,2024-04-18_17h03.54.566,jersey_experiment_5_v0,2023.2.2,Win32,85.47008547,,,,,,,,,,,,,,,,840.2772,841.5712,841.5712,842.724,return,0.7735,,91.796875,,,,,,FBP-YG-71.png,0.43,1.2,19,0.5,,,,,,,,,,,,,,,,,,0,38,38,18,1,,,,,,,,,,,,,,,,,,,,,,,
,,,,,SPR24_069,19,female,2024-04-18_17h03.54.566,jersey_experiment_5_v0,2023.2.2,Win32,85.47008547,,,,,,,,,,,,,,,,842.7243,844.0184,844.0184,846.0065,return,1.1457,,27.86458333,,,,,,FBP-PT-71.png,0.4,1.2,48,0.5,,,,,,,,,,,,,,,,,,0,39,39,47,1,,,,,,,,,,,,,,,,,,,,,,,
,,,,,SPR24_069,19,female,2024-04-18_17h03.54.566,jersey_experiment_5_v0,2023.2.2,Win32,85.47008547,,,,,,,,,,,,,,,,846.0068,847.0538,847.0538,848.795,return,1.1297,,27.99479167,,,,,,FBP-OG-18.png,0.4,1.2,8,0.25,,,,,,,,,,,,,,,,,,0,40,40,7,1,,,,,,,,,,,,,,,,,,,,,,,
,,,,,SPR24_069,19,female,2024-04-18_17h03.54.566,jersey_experiment_5_v0,2023.2.2,Win32,85.47008547,,,,,,,,,,,,,,,,848.7951,850.0891,850.0891,852.3011,return,1.285,,21.484375,,,,,,FBP-YG-91.png,0.35,1.2,26,0.5,,,,,,,,,,,,,,,,,,0,41,41,25,1,,,,,,,,,,,,,,,,,,,,,,,
,,,,,SPR24_069,19,female,2024-04-18_17h03.54.566,jersey_experiment_5_v0,2023.2.2,Win32,85.47008547,,,,,,,,,,,,,,,,852.3014,853.5952,853.5952,855.9245,return,0.6416,,49.609375,,,,,,FBP-YG-71.png,0.35,1.2,16,0.5,,,,,,,,,,,,,,,,,,0,42,42,15,1,,,,,,,,,,,,,,,,,,,,,,,
,,,,,SPR24_069,19,female,2024-04-18_17h03.54.566,jersey_experiment_5_v0,2023.2.2,Win32,85.47008547,,,,,,,,,,,,,,,,855.9247,857.2189,857.2189,859.6778,return,1.8353,,43.22916667,,,,,,FBP-PT-71.png,0.37,1.2,47,0.5,,,,,,,,,,,,,,,,,,0,43,43,46,1,,,,,,,,,,,,,,,,,,,,,,,
,,,,,SPR24_069,19,female,2024-04-18_17h03.54.566,jersey_experiment_5_v0,2023.2.2,Win32,85.47008547,,,,,,,,,,,,,,,,859.6781,860.7248,860.7248,862.1483,return,0.2066,,77.99479167,,,,,,FBP-OG-19.png,0.43,1.2,14,0.25,,,,,,,,,,,,,,,,,,0,44,44,13,1,,,,,,,,,,,,,,,,,,,,,,,
,,,,,SPR24_069,19,female,2024-04-18_17h03.54.566,jersey_experiment_5_v0,2023.2.2,Win32,85.47008547,,,,,,,,,,,,,,,,862.1484,863.4425,863.4425,864.5721,return,0.2224,,82.421875,,,,,,FBP-PT-91.png,0.43,1.2,59,0.5,,,,,,,,,,,,,,,,,,0,45,45,58,1,,,,,,,,,,,,,,,,,,,,,,,
,,,,,SPR24_069,19,female,2024-04-18_17h03.54.566,jersey_experiment_5_v0,2023.2.2,Win32,85.47008547,,,,,,,,,,,,,,,,864.5723,865.6192,865.6192,867.8309,return,0.2394,,44.921875,,,,,,FBP-RB-91.png,0.35,1.2,41,0.25,,,,,,,,,,,,,,,,,,0,46,46,40,1,,,,,,,,,,,,,,,,,,,,,,,
,,,,,SPR24_069,19,female,2024-04-18_17h03.54.566,jersey_experiment_5_v0,2023.2.2,Win32,85.47008547,,,,,,,,,,,,,,,,867.8311,869.1252,869.1252,873.5724,return,0.242,,65.75520833,,,,,,FBP-YG-81.png,0.37,1.2,22,0.5,,,,,,,,,,,,,,,,,,0,47,47,21,1,,,,,,,,,,,,,,,,,,,,,,,
,,,,,SPR24_069,19,female,2024-04-18_17h03.54.566,jersey_experiment_5_v0,2023.2.2,Win32,85.47008547,,,,,,,,,,,,,,,,873.5726,874.6195,874.6195,876.9019,return,1.3012,,84.89583333,,,,,,FBP-OG-17.png,0.43,1.2,4,0.25,,,,,,,,,,,,,,,,,,0,48,48,3,1,,,,,,,,,,,,,,,,,,,,,,,
,,,,,SPR24_069,19,female,2024-04-18_17h03.54.566,jersey_experiment_5_v0,2023.2.2,Win32,85.47008547,,,,,,,,,,,,,,,,876.9022,877.949,877.949,880.7136,return,1.189,,50.390625,,,,,,FBP-RB-91.png,0.37,1.2,42,0.25,,,,,,,,,,,,,,,,,,0,49,49,41,1,,,,,,,,,,,,,,,,,,,,,,,
,,,,,SPR24_069,19,female,2024-04-18_17h03.54.566,jersey_experiment_5_v0,2023.2.2,Win32,85.47008547,,,,,,,,,,,,,,,,880.7137,882.008,882.008,884.0904,return,1.2141,,95.3125,,,,,,FBP-PT-91.png,0.45,1.2,60,0.5,,,,,,,,,,,,,,,,,,0,50,50,59,1,,,,,,,,,,,,,,,,,,,,,,,
,,,,,SPR24_069,19,female,2024-04-18_17h03.54.566,jersey_experiment_5_v0,2023.2.2,Win32,85.47008547,,,,,,,,,,,,,,,,884.0906,885.3846,885.3846,886.7493,return,0.6591,,97.91666667,,,,,,FBP-YG-71.png,0.45,1.2,20,0.5,,,,,,,,,,,,,,,,,,0,51,51,19,1,,,,,,,,,,,,,,,,,,,,,,,
,,,,,SPR24_069,19,female,2024-04-18_17h03.54.566,jersey_experiment_5_v0,2023.2.2,Win32,85.47008547,,,,,,,,,,,,,,,,886.7494,888.0434,888.0434,889.7494,return,0.5017,,71.74479167,,,,,,FBP-YG-81.png,0.4,1.2,23,0.5,,,,,,,,,,,,,,,,,,0,52,52,22,1,,,,,,,,,,,,,,,,,,,,,,,
,,,,,SPR24_069,19,female,2024-04-18_17h03.54.566,jersey_experiment_5_v0,2023.2.2,Win32,85.47008547,,,,,,,,,,,,,,,,889.7496,890.7965,890.7965,892.4907,return,0.5186,,26.82291667,,,,,,FBP-OG-18.png,0.37,1.2,7,0.25,,,,,,,,,,,,,,,,,,0,53,53,6,1,,,,,,,,,,,,,,,,,,,,,,,
,,,,,SPR24_069,19,female,2024-04-18_17h03.54.566,jersey_experiment_5_v0,2023.2.2,Win32,85.47008547,,,,,,,,,,,,,,,,892.491,893.5375,893.5375,894.4554,return,0.2645,,26.82291667,,,,,,FBP-OG-18.png,0.43,1.2,9,0.25,,,,,,,,,,,,,,,,,,0,54,54,8,1,,,,,,,,,,,,,,,,,,,,,,,
,,,,,SPR24_069,19,female,2024-04-18_17h03.54.566,jersey_experiment_5_v0,2023.2.2,Win32,85.47008547,,,,,,,,,,,,,,,,894.4556,895.5025,895.5025,897.0435,return,0.0897,,16.796875,,,,,,FBP-RB-71.png,0.37,1.2,32,0.25,,,,,,,,,,,,,,,,,,0,55,55,31,1,,,,,,,,,,,,,,,,,,,,,,,
,,,,,SPR24_069,19,female,2024-04-18_17h03.54.566,jersey_experiment_5_v0,2023.2.2,Win32,85.47008547,,,,,,,,,,,,,,,,897.0437,898.3379,898.3379,900.1025,return,0.1811,,98.828125,,,,,,FBP-PT-71.png,0.43,1.2,49,0.5,,,,,,,,,,,,,,,,,,0,56,56,48,1,,,,,,,,,,,,,,,,,,,,,,,
,,,,,SPR24_069,19,female,2024-04-18_17h03.54.566,jersey_experiment_5_v0,2023.2.2,Win32,85.47008547,,,,,,,,,,,,,,,,900.1028,901.1498,901.1499,902.3029,return,0.0709,,29.81770833,,,,,,FBP-RB-81.png,0.35,1.2,36,0.25,,,,,,,,,,,,,,,,,,0,57,57,35,1,,,,,,,,,,,,,,,,,,,,,,,
,,,,,SPR24_069,19,female,2024-04-18_17h03.54.566,jersey_experiment_5_v0,2023.2.2,Win32,85.47008547,,,,,,,,,,,,,,,,902.3031,903.3497,903.3498,904.6323,return,0.3926,,72.39583333,,,,,,FBP-RB-71.png,0.4,1.2,33,0.25,,,,,,,,,,,,,,,,,,0,58,58,32,1,,,,,,,,,,,,,,,,,,,,,,,
,,,,,SPR24_069,19,female,2024-04-18_17h03.54.566,jersey_experiment_5_v0,2023.2.2,Win32,85.47008547,,,,,,,,,,,,,,,,904.6326,905.6792,905.6793,907.2559,return,0.6266,,92.44791667,,,,,,FBP-RB-81.png,0.4,1.2,38,0.25,,,,,,,,,,,,,,,,,,0,59,59,37,1,,,,,,,,,,,,,,,,,,,,,,,
,,,,,SPR24_069,19,female,2024-04-18_17h03.54.566,jersey_experiment_5_v0,2023.2.2,Win32,85.47008547,,,,,,,,,,,,,,,,,,,,,,,,,,,,,,,,,,,,,,,,,,,,,,,,,,,,,,,,907.2562,911.3503,return,4.0867,,,,,,,,,,,,,,,,,,,
,,,,,SPR24_069,19,female,2024-04-18_17h03.54.566,jersey_experiment_5_v0,2023.2.2,Win32,85.47008547,,,,,,,,,,,,,,,,,,,,,,,,,,,,,,,,,,,,,,,,,,,,,,,,,,,,,,,,,,,,,911.3505,914.9739,1,2.393,return,1.2086,,,,,,,,,,,,
,,,,,SPR24_069,19,female,2024-04-18_17h03.54.566,jersey_experiment_5_v0,2023.2.2,Win32,85.47008547,,,,,,,,,,,,,,,,,,,,,,,,,,,,,,,,,,,,,,,,,,,,,,,,,,,,,,,,,,,,,,,,,,,,914.9741,1073.5021,I recognize that the figures alternated from a white and black male wearing different colored football attire. It appeared to me that sometimes the same figure was displayed twice. I therefore think that this might be related to interpretation of figures/colors.,right,154.2295,,,,,,
,,,,,SPR24_069,19,female,2024-04-18_17h03.54.566,jersey_experiment_5_v0,2023.2.2,Win32,85.47008547,,,,,,,,,,,,,,,,,,,,,,,,,,,,,,,,,,,,,,,,,,,,,,,,,,,,,,,,,,,,,,,,,,,,,,,,,,1073.5021,1078.3799,return,4.8659,