requirements.started,requirements.stopped,key_resp_3.keys,key_resp_3.rt,key_resp_3.duration,Subject ID,Age,Gender,date,expName,psychopyVersion,OS,frameRate,instructions1.started,instructions1.stopped,key_resp.keys,key_resp.rt,key_resp.duration,example.started,example.stopped,enter_2.keys,enter_2.rt,enter_2.duration,instructions2.started,instructions2.stopped,enter_3.keys,enter_3.rt,enter_3.duration,image.started,image.stopped,slider_2.started,slider_2.stopped,next.keys,next.rt,next.duration,slider.response,trial_block_1.thisRepN,trial_block_1.thisTrialN,trial_block_1.thisN,trial_block_1.thisIndex,trial_block_1.ran,Path,Width,Height,Index,Duration,trial_block_2.thisRepN,trial_block_2.thisTrialN,trial_block_2.thisN,trial_block_2.thisIndex,trial_block_2.ran,rest_break.started,rest_break.stopped,end_break.started,end_break.stopped,key_resp_5.keys,key_resp_5.rt,key_resp_5.duration,trial_block_3.thisRepN,trial_block_3.thisTrialN,trial_block_3.thisN,trial_block_3.thisIndex,trial_block_3.ran,trial_block_4.thisRepN,trial_block_4.thisTrialN,trial_block_4.thisN,trial_block_4.thisIndex,trial_block_4.ran,questions_intro.started,questions_intro.stopped,enter_12.keys,enter_12.rt,enter_12.duration,question2.started,question2.stopped,question_doingbest.response,question_doingbest.rt,enter_15.keys,enter_15.rt,enter_15.duration,pattern.started,pattern.stopped,pattern_2.text,enter_17.keys,enter_17.rt,enter_17.duration,thankyou.started,thankyou.stopped,enter_14.keys,enter_14.rt,enter_14.duration
1E-04,20.8876,return,20.8826,,SPR24_093,19,Female,2024-04-25_13h57.36.599,jersey_experiment_5_v0,2023.2.2,Win32,59.88023952,,,,,,,,,,,,,,,,,,,,,,,,,,,,,,,,,,,,,,,,,,,,,,,,,,,,,,,,,,,,,,,,,,,,,,,,,,,,,,
,,,,,SPR24_093,19,Female,2024-04-25_13h57.36.599,jersey_experiment_5_v0,2023.2.2,Win32,59.88023952,20.8877,33.0703,return,12.1675,,,,,,,,,,,,,,,,,,,,,,,,,,,,,,,,,,,,,,,,,,,,,,,,,,,,,,,,,,,,,,,,,,,,,,,,,,
,,,,,SPR24_093,19,Female,2024-04-25_13h57.36.599,jersey_experiment_5_v0,2023.2.2,Win32,59.88023952,,,,,,33.0703,40.4315,return,7.3178,,,,,,,,,,,,,,,,,,,,,,,,,,,,,,,,,,,,,,,,,,,,,,,,,,,,,,,,,,,,,,,,,,,,,
,,,,,SPR24_093,19,Female,2024-04-25_13h57.36.599,jersey_experiment_5_v0,2023.2.2,Win32,59.88023952,,,,,,,,,,,40.4316,89.2116,return,48.7706,,,,,,,,,,,,,,,,,,,,,,,,,,,,,,,,,,,,,,,,,,,,,,,,,,,,,,,,,,,,,,,,
,,,,,SPR24_093,19,Female,2024-04-25_13h57.36.599,jersey_experiment_5_v0,2023.2.2,Win32,59.88023952,,,,,,,,,,,,,,,,89.2181,90.5112,90.5112,101.3773,return,1.7522,,24.73958333,0,0,0,8,1,FBP-OG-81.png,0.43,1.2,9,0.5,,,,,,,,,,,,,,,,,,,,,,,,,,,,,,,,,,,,,,,,,,,,,
,,,,,SPR24_093,19,Female,2024-04-25_13h57.36.599,jersey_experiment_5_v0,2023.2.2,Win32,59.88023952,,,,,,,,,,,,,,,,101.3775,102.4271,102.4271,108.36,return,3.576,,24.86979167,0,1,1,51,1,FBP-PT-18.png,0.37,1.2,52,0.25,,,,,,,,,,,,,,,,,,,,,,,,,,,,,,,,,,,,,,,,,,,,,
,,,,,SPR24_093,19,Female,2024-04-25_13h57.36.599,jersey_experiment_5_v0,2023.2.2,Win32,59.88023952,,,,,,,,,,,,,,,,108.3645,109.6598,109.6599,113.0597,return,1.5473,,24.73958333,0,2,2,31,1,FBP-RB-17.png,0.37,1.2,32,0.5,,,,,,,,,,,,,,,,,,,,,,,,,,,,,,,,,,,,,,,,,,,,,
,,,,,SPR24_093,19,Female,2024-04-25_13h57.36.599,jersey_experiment_5_v0,2023.2.2,Win32,59.88023952,,,,,,,,,,,,,,,,113.0601,114.1096,114.1096,117.2927,return,0.8872,,74.609375,0,3,3,17,1,FBP-YG-17.png,0.4,1.2,18,0.25,,,,,,,,,,,,,,,,,,,,,,,,,,,,,,,,,,,,,,,,,,,,,
,,,,,SPR24_093,19,Female,2024-04-25_13h57.36.599,jersey_experiment_5_v0,2023.2.2,Win32,59.88023952,,,,,,,,,,,,,,,,117.2929,118.3426,118.3426,120.9924,return,0.8196,,99.86979167,0,4,4,54,1,FBP-PT-18.png,0.45,1.2,55,0.25,,,,,,,,,,,,,,,,,,,,,,,,,,,,,,,,,,,,,,,,,,,,,
,,,,,SPR24_093,19,Female,2024-04-25_13h57.36.599,jersey_experiment_5_v0,2023.2.2,Win32,59.88023952,,,,,,,,,,,,,,,,120.9927,122.0422,122.0424,124.7921,return,0.8445,,51.171875,0,5,5,27,1,FBP-YG-19.png,0.4,1.2,28,0.25,,,,,,,,,,,,,,,,,,,,,,,,,,,,,,,,,,,,,,,,,,,,,
,,,,,SPR24_093,19,Female,2024-04-25_13h57.36.599,jersey_experiment_5_v0,2023.2.2,Win32,59.88023952,,,,,,,,,,,,,,,,124.7923,126.0922,126.0922,128.592,return,0.7177,,48.56770833,0,6,6,36,1,FBP-RB-18.png,0.37,1.2,37,0.5,,,,,,,,,,,,,,,,,,,,,,,,,,,,,,,,,,,,,,,,,,,,,
,,,,,SPR24_093,19,Female,2024-04-25_13h57.36.599,jersey_experiment_5_v0,2023.2.2,Win32,59.88023952,,,,,,,,,,,,,,,,128.5921,129.8918,129.8918,132.2252,return,0.6003,,73.4375,0,7,7,38,1,FBP-RB-18.png,0.43,1.2,39,0.5,,,,,,,,,,,,,,,,,,,,,,,,,,,,,,,,,,,,,,,,,,,,,
,,,,,SPR24_093,19,Female,2024-04-25_13h57.36.599,jersey_experiment_5_v0,2023.2.2,Win32,59.88023952,,,,,,,,,,,,,,,,132.2253,133.5249,133.5249,137.3248,return,2.0877,,99.609375,0,8,8,43,1,FBP-RB-19.png,0.43,1.2,44,0.5,,,,,,,,,,,,,,,,,,,,,,,,,,,,,,,,,,,,,,,,,,,,,
,,,,,SPR24_093,19,Female,2024-04-25_13h57.36.599,jersey_experiment_5_v0,2023.2.2,Win32,59.88023952,,,,,,,,,,,,,,,,137.325,138.3746,138.3746,142.3076,return,2.6143,,100,0,9,9,49,1,FBP-PT-17.png,0.45,1.2,50,0.25,,,,,,,,,,,,,,,,,,,,,,,,,,,,,,,,,,,,,,,,,,,,,
,,,,,SPR24_093,19,Female,2024-04-25_13h57.36.599,jersey_experiment_5_v0,2023.2.2,Win32,59.88023952,,,,,,,,,,,,,,,,142.3078,143.6076,143.6077,146.0241,return,0.6751,,48.17708333,0,10,10,2,1,FBP-OG-71.png,0.4,1.2,3,0.5,,,,,,,,,,,,,,,,,,,,,,,,,,,,,,,,,,,,,,,,,,,,,
,,,,,SPR24_093,19,Female,2024-04-25_13h57.36.599,jersey_experiment_5_v0,2023.2.2,Win32,59.88023952,,,,,,,,,,,,,,,,146.0243,147.324,147.324,151.0405,return,2.1667,,100,0,11,11,44,1,FBP-RB-19.png,0.45,1.2,45,0.5,,,,,,,,,,,,,,,,,,,,,,,,,,,,,,,,,,,,,,,,,,,,,
,,,,,SPR24_093,19,Female,2024-04-25_13h57.36.599,jersey_experiment_5_v0,2023.2.2,Win32,59.88023952,,,,,,,,,,,,,,,,151.0407,152.0903,152.0904,154.1402,return,0.5874,,74.73958333,0,12,12,52,1,FBP-PT-18.png,0.4,1.2,53,0.25,,,,,,,,,,,,,,,,,,,,,,,,,,,,,,,,,,,,,,,,,,,,,
,,,,,SPR24_093,19,Female,2024-04-25_13h57.36.599,jersey_experiment_5_v0,2023.2.2,Win32,59.88023952,,,,,,,,,,,,,,,,154.1404,155.44,155.44,157.3733,return,0.6715,,99.08854167,0,13,13,9,1,FBP-OG-81.png,0.45,1.2,10,0.5,,,,,,,,,,,,,,,,,,,,,,,,,,,,,,,,,,,,,,,,,,,,,
,,,,,SPR24_093,19,Female,2024-04-25_13h57.36.599,jersey_experiment_5_v0,2023.2.2,Win32,59.88023952,,,,,,,,,,,,,,,,157.3736,158.6732,158.6732,161.073,return,1.3164,,99.21875,0,14,14,12,1,FBP-OG-91.png,0.4,1.2,13,0.5,,,,,,,,,,,,,,,,,,,,,,,,,,,,,,,,,,,,,,,,,,,,,
,,,,,SPR24_093,19,Female,2024-04-25_13h57.36.599,jersey_experiment_5_v0,2023.2.2,Win32,59.88023952,,,,,,,,,,,,,,,,161.0733,162.1229,162.1229,163.8898,return,0.7016,,99.21875,0,15,15,28,1,FBP-YG-19.png,0.43,1.2,29,0.25,,,,,,,,,,,,,,,,,,,,,,,,,,,,,,,,,,,,,,,,,,,,,
,,,,,SPR24_093,19,Female,2024-04-25_13h57.36.599,jersey_experiment_5_v0,2023.2.2,Win32,59.88023952,,,,,,,,,,,,,,,,163.89,165.1894,165.1894,168.0725,return,0.6917,,49.609375,0,16,16,40,1,FBP-RB-19.png,0.35,1.2,41,0.5,,,,,,,,,,,,,,,,,,,,,,,,,,,,,,,,,,,,,,,,,,,,,
,,,,,SPR24_093,19,Female,2024-04-25_13h57.36.599,jersey_experiment_5_v0,2023.2.2,Win32,59.88023952,,,,,,,,,,,,,,,,168.0728,169.1226,169.1226,170.8891,return,0.5566,,50.52083333,0,17,17,26,1,FBP-YG-19.png,0.37,1.2,27,0.25,,,,,,,,,,,,,,,,,,,,,,,,,,,,,,,,,,,,,,,,,,,,,
,,,,,SPR24_093,19,Female,2024-04-25_13h57.36.599,jersey_experiment_5_v0,2023.2.2,Win32,59.88023952,,,,,,,,,,,,,,,,170.8894,172.1888,172.1888,174.9221,return,0.6093,,74.86979167,0,18,18,41,1,FBP-RB-19.png,0.37,1.2,42,0.5,,,,,,,,,,,,,,,,,,,,,,,,,,,,,,,,,,,,,,,,,,,,,
,,,,,SPR24_093,19,Female,2024-04-25_13h57.36.599,jersey_experiment_5_v0,2023.2.2,Win32,59.88023952,,,,,,,,,,,,,,,,174.9223,176.222,176.222,179.2884,return,0.6608,,99.73958333,0,19,19,7,1,FBP-OG-81.png,0.4,1.2,8,0.5,,,,,,,,,,,,,,,,,,,,,,,,,,,,,,,,,,,,,,,,,,,,,
,,,,,SPR24_093,19,Female,2024-04-25_13h57.36.599,jersey_experiment_5_v0,2023.2.2,Win32,59.88023952,,,,,,,,,,,,,,,,179.2886,180.3386,180.3386,184.0381,return,1.5777,,99.609375,0,20,20,24,1,FBP-YG-18.png,0.45,1.2,25,0.25,,,,,,,,,,,,,,,,,,,,,,,,,,,,,,,,,,,,,,,,,,,,,
,,,,,SPR24_093,19,Female,2024-04-25_13h57.36.599,jersey_experiment_5_v0,2023.2.2,Win32,59.88023952,,,,,,,,,,,,,,,,184.0382,185.0881,185.0882,190.721,return,1.983,,99.47916667,0,21,21,18,1,FBP-YG-17.png,0.43,1.2,19,0.25,,,,,,,,,,,,,,,,,,,,,,,,,,,,,,,,,,,,,,,,,,,,,
,,,,,SPR24_093,19,Female,2024-04-25_13h57.36.599,jersey_experiment_5_v0,2023.2.2,Win32,59.88023952,,,,,,,,,,,,,,,,190.7212,192.0209,192.021,194.6042,return,0.6882,,25,0,22,22,30,1,FBP-RB-17.png,0.35,1.2,31,0.5,,,,,,,,,,,,,,,,,,,,,,,,,,,,,,,,,,,,,,,,,,,,,
,,,,,SPR24_093,19,Female,2024-04-25_13h57.36.599,jersey_experiment_5_v0,2023.2.2,Win32,59.88023952,,,,,,,,,,,,,,,,194.6045,195.9041,195.9042,198.1372,return,0.6411,,74.86979167,0,23,23,4,1,FBP-OG-71.png,0.45,1.2,5,0.5,,,,,,,,,,,,,,,,,,,,,,,,,,,,,,,,,,,,,,,,,,,,,
,,,,,SPR24_093,19,Female,2024-04-25_13h57.36.599,jersey_experiment_5_v0,2023.2.2,Win32,59.88023952,,,,,,,,,,,,,,,,198.1374,199.187,199.187,201.2204,return,0.6006,,75.26041667,0,24,24,22,1,FBP-YG-18.png,0.4,1.2,23,0.25,,,,,,,,,,,,,,,,,,,,,,,,,,,,,,,,,,,,,,,,,,,,,
,,,,,SPR24_093,19,Female,2024-04-25_13h57.36.599,jersey_experiment_5_v0,2023.2.2,Win32,59.88023952,,,,,,,,,,,,,,,,201.2205,202.2702,202.2703,204.7535,return,0.6835,,99.86979167,0,25,25,19,1,FBP-YG-17.png,0.45,1.2,20,0.25,,,,,,,,,,,,,,,,,,,,,,,,,,,,,,,,,,,,,,,,,,,,,
,,,,,SPR24_093,19,Female,2024-04-25_13h57.36.599,jersey_experiment_5_v0,2023.2.2,Win32,59.88023952,,,,,,,,,,,,,,,,204.7537,205.8033,205.8033,207.6201,return,0.5664,,99.47916667,0,26,26,57,1,FBP-PT-19.png,0.4,1.2,58,0.25,,,,,,,,,,,,,,,,,,,,,,,,,,,,,,,,,,,,,,,,,,,,,
,,,,,SPR24_093,19,Female,2024-04-25_13h57.36.599,jersey_experiment_5_v0,2023.2.2,Win32,59.88023952,,,,,,,,,,,,,,,,207.6203,208.9199,208.92,210.5198,return,0.5397,,99.47916667,0,27,27,14,1,FBP-OG-91.png,0.45,1.2,15,0.5,,,,,,,,,,,,,,,,,,,,,,,,,,,,,,,,,,,,,,,,,,,,,
,,,,,SPR24_093,19,Female,2024-04-25_13h57.36.599,jersey_experiment_5_v0,2023.2.2,Win32,59.88023952,,,,,,,,,,,,,,,,210.5199,211.5697,211.5697,214.7027,return,0.836,,75.390625,0,28,28,15,1,FBP-YG-17.png,0.35,1.2,16,0.25,,,,,,,,,,,,,,,,,,,,,,,,,,,,,,,,,,,,,,,,,,,,,
,,,,,SPR24_093,19,Female,2024-04-25_13h57.36.599,jersey_experiment_5_v0,2023.2.2,Win32,59.88023952,,,,,,,,,,,,,,,,214.7029,216.0027,216.0027,220.5023,return,0.244,,75.91145833,0,29,29,1,1,FBP-OG-71.png,0.37,1.2,2,0.5,,,,,,,,,,,,,,,,,,,,,,,,,,,,,,,,,,,,,,,,,,,,,
,,,,,SPR24_093,19,Female,2024-04-25_13h57.36.599,jersey_experiment_5_v0,2023.2.2,Win32,59.88023952,,,,,,,,,,,,,,,,220.5025,221.5524,221.5525,224.2022,return,0.424,,99.73958333,0,30,30,29,1,FBP-YG-19.png,0.45,1.2,30,0.25,,,,,,,,,,,,,,,,,,,,,,,,,,,,,,,,,,,,,,,,,,,,,
,,,,,SPR24_093,19,Female,2024-04-25_13h57.36.599,jersey_experiment_5_v0,2023.2.2,Win32,59.88023952,,,,,,,,,,,,,,,,224.2024,225.252,225.252,226.2188,return,0.373,,98.95833333,0,31,31,23,1,FBP-YG-18.png,0.43,1.2,24,0.25,,,,,,,,,,,,,,,,,,,,,,,,,,,,,,,,,,,,,,,,,,,,,
,,,,,SPR24_093,19,Female,2024-04-25_13h57.36.599,jersey_experiment_5_v0,2023.2.2,Win32,59.88023952,,,,,,,,,,,,,,,,226.2189,227.5186,227.5186,228.1684,return,0.1746,,98.95833333,0,32,32,3,1,FBP-OG-71.png,0.43,1.2,4,0.5,,,,,,,,,,,,,,,,,,,,,,,,,,,,,,,,,,,,,,,,,,,,,
,,,,,SPR24_093,19,Female,2024-04-25_13h57.36.599,jersey_experiment_5_v0,2023.2.2,Win32,59.88023952,,,,,,,,,,,,,,,,228.1687,229.2186,229.2186,231.3851,return,0.2089,,26.43229167,0,33,33,55,1,FBP-PT-19.png,0.35,1.2,56,0.25,,,,,,,,,,,,,,,,,,,,,,,,,,,,,,,,,,,,,,,,,,,,,
,,,,,SPR24_093,19,Female,2024-04-25_13h57.36.599,jersey_experiment_5_v0,2023.2.2,Win32,59.88023952,,,,,,,,,,,,,,,,231.3854,232.4349,232.435,234.8179,return,0.2011,,99.86979167,0,34,34,59,1,FBP-PT-19.png,0.45,1.2,60,0.25,,,,,,,,,,,,,,,,,,,,,,,,,,,,,,,,,,,,,,,,,,,,,
,,,,,SPR24_093,19,Female,2024-04-25_13h57.36.599,jersey_experiment_5_v0,2023.2.2,Win32,59.88023952,,,,,,,,,,,,,,,,234.8181,235.868,235.8681,237.8514,return,0.1726,,25.78125,0,35,35,50,1,FBP-PT-18.png,0.35,1.2,51,0.25,,,,,,,,,,,,,,,,,,,,,,,,,,,,,,,,,,,,,,,,,,,,,
,,,,,SPR24_093,19,Female,2024-04-25_13h57.36.599,jersey_experiment_5_v0,2023.2.2,Win32,59.88023952,,,,,,,,,,,,,,,,237.8517,239.1511,239.1512,240.5844,return,0.1597,,74.609375,0,36,36,37,1,FBP-RB-18.png,0.4,1.2,38,0.5,,,,,,,,,,,,,,,,,,,,,,,,,,,,,,,,,,,,,,,,,,,,,
,,,,,SPR24_093,19,Female,2024-04-25_13h57.36.599,jersey_experiment_5_v0,2023.2.2,Win32,59.88023952,,,,,,,,,,,,,,,,240.5846,241.8843,241.8844,243.7175,return,0.2011,,75.13020833,0,37,37,6,1,FBP-OG-81.png,0.37,1.2,7,0.5,,,,,,,,,,,,,,,,,,,,,,,,,,,,,,,,,,,,,,,,,,,,,
,,,,,SPR24_093,19,Female,2024-04-25_13h57.36.599,jersey_experiment_5_v0,2023.2.2,Win32,59.88023952,,,,,,,,,,,,,,,,243.7177,245.0174,245.0175,246.7673,return,0.7183,,27.734375,0,38,38,35,1,FBP-RB-18.png,0.35,1.2,36,0.5,,,,,,,,,,,,,,,,,,,,,,,,,,,,,,,,,,,,,,,,,,,,,
,,,,,SPR24_093,19,Female,2024-04-25_13h57.36.599,jersey_experiment_5_v0,2023.2.2,Win32,59.88023952,,,,,,,,,,,,,,,,246.7676,247.8172,247.8172,249.5671,return,0.2527,,99.08854167,0,39,39,48,1,FBP-PT-17.png,0.43,1.2,49,0.25,,,,,,,,,,,,,,,,,,,,,,,,,,,,,,,,,,,,,,,,,,,,,
,,,,,SPR24_093,19,Female,2024-04-25_13h57.36.599,jersey_experiment_5_v0,2023.2.2,Win32,59.88023952,,,,,,,,,,,,,,,,249.5673,250.867,250.8671,252.7336,return,0.1533,,76.04166667,0,40,40,32,1,FBP-RB-17.png,0.4,1.2,33,0.5,,,,,,,,,,,,,,,,,,,,,,,,,,,,,,,,,,,,,,,,,,,,,
,,,,,SPR24_093,19,Female,2024-04-25_13h57.36.599,jersey_experiment_5_v0,2023.2.2,Win32,59.88023952,,,,,,,,,,,,,,,,252.7337,253.7834,253.7835,254.9667,return,0.1609,,75.13020833,0,41,41,47,1,FBP-PT-17.png,0.4,1.2,48,0.25,,,,,,,,,,,,,,,,,,,,,,,,,,,,,,,,,,,,,,,,,,,,,
,,,,,SPR24_093,19,Female,2024-04-25_13h57.36.599,jersey_experiment_5_v0,2023.2.2,Win32,59.88023952,,,,,,,,,,,,,,,,254.967,256.2665,256.2666,257.6667,return,0.3681,,23.56770833,0,42,42,0,1,FBP-OG-71.png,0.35,1.2,1,0.5,,,,,,,,,,,,,,,,,,,,,,,,,,,,,,,,,,,,,,,,,,,,,
,,,,,SPR24_093,19,Female,2024-04-25_13h57.36.599,jersey_experiment_5_v0,2023.2.2,Win32,59.88023952,,,,,,,,,,,,,,,,257.6669,258.7164,258.7164,260.1161,return,0.3838,,26.69270833,0,43,43,16,1,FBP-YG-17.png,0.37,1.2,17,0.25,,,,,,,,,,,,,,,,,,,,,,,,,,,,,,,,,,,,,,,,,,,,,
,,,,,SPR24_093,19,Female,2024-04-25_13h57.36.599,jersey_experiment_5_v0,2023.2.2,Win32,59.88023952,,,,,,,,,,,,,,,,260.1163,261.1663,261.1663,263.8328,return,1.642,,24.609375,0,44,44,25,1,FBP-YG-19.png,0.35,1.2,26,0.25,,,,,,,,,,,,,,,,,,,,,,,,,,,,,,,,,,,,,,,,,,,,,
,,,,,SPR24_093,19,Female,2024-04-25_13h57.36.599,jersey_experiment_5_v0,2023.2.2,Win32,59.88023952,,,,,,,,,,,,,,,,263.833,265.1331,265.1331,267.2826,return,0.2025,,51.5625,0,45,45,42,1,FBP-RB-19.png,0.4,1.2,43,0.5,,,,,,,,,,,,,,,,,,,,,,,,,,,,,,,,,,,,,,,,,,,,,
,,,,,SPR24_093,19,Female,2024-04-25_13h57.36.599,jersey_experiment_5_v0,2023.2.2,Win32,59.88023952,,,,,,,,,,,,,,,,267.2827,268.5824,268.5825,269.9491,return,0.2865,,97.91666667,0,46,46,13,1,FBP-OG-91.png,0.43,1.2,14,0.5,,,,,,,,,,,,,,,,,,,,,,,,,,,,,,,,,,,,,,,,,,,,,
,,,,,SPR24_093,19,Female,2024-04-25_13h57.36.599,jersey_experiment_5_v0,2023.2.2,Win32,59.88023952,,,,,,,,,,,,,,,,269.9492,271.2488,271.2489,272.6989,return,0.2893,,26.953125,0,47,47,11,1,FBP-OG-91.png,0.37,1.2,12,0.5,,,,,,,,,,,,,,,,,,,,,,,,,,,,,,,,,,,,,,,,,,,,,
,,,,,SPR24_093,19,Female,2024-04-25_13h57.36.599,jersey_experiment_5_v0,2023.2.2,Win32,59.88023952,,,,,,,,,,,,,,,,272.6992,273.9988,273.9988,275.3491,return,0.2507,,99.73958333,0,48,48,39,1,FBP-RB-18.png,0.45,1.2,40,0.5,,,,,,,,,,,,,,,,,,,,,,,,,,,,,,,,,,,,,,,,,,,,,
,,,,,SPR24_093,19,Female,2024-04-25_13h57.36.599,jersey_experiment_5_v0,2023.2.2,Win32,59.88023952,,,,,,,,,,,,,,,,275.3494,276.6485,276.6485,278.5152,return,0.3192,,73.30729167,0,49,49,5,1,FBP-OG-81.png,0.35,1.2,6,0.5,,,,,,,,,,,,,,,,,,,,,,,,,,,,,,,,,,,,,,,,,,,,,
,,,,,SPR24_093,19,Female,2024-04-25_13h57.36.599,jersey_experiment_5_v0,2023.2.2,Win32,59.88023952,,,,,,,,,,,,,,,,278.5155,279.565,279.565,281.1149,return,0.223,,98.828125,0,50,50,58,1,FBP-PT-19.png,0.43,1.2,59,0.25,,,,,,,,,,,,,,,,,,,,,,,,,,,,,,,,,,,,,,,,,,,,,
,,,,,SPR24_093,19,Female,2024-04-25_13h57.36.599,jersey_experiment_5_v0,2023.2.2,Win32,59.88023952,,,,,,,,,,,,,,,,281.1151,282.1648,282.165,283.6979,return,0.2997,,75.13020833,0,51,51,46,1,FBP-PT-17.png,0.37,1.2,47,0.25,,,,,,,,,,,,,,,,,,,,,,,,,,,,,,,,,,,,,,,,,,,,,
,,,,,SPR24_093,19,Female,2024-04-25_13h57.36.599,jersey_experiment_5_v0,2023.2.2,Win32,59.88023952,,,,,,,,,,,,,,,,283.6982,284.9978,284.9978,286.048,return,0.1844,,50,0,52,52,10,1,FBP-OG-91.png,0.35,1.2,11,0.5,,,,,,,,,,,,,,,,,,,,,,,,,,,,,,,,,,,,,,,,,,,,,
,,,,,SPR24_093,19,Female,2024-04-25_13h57.36.599,jersey_experiment_5_v0,2023.2.2,Win32,59.88023952,,,,,,,,,,,,,,,,286.0481,287.348,287.3481,288.2644,return,0.1914,,98.30729167,0,53,53,34,1,FBP-RB-17.png,0.45,1.2,35,0.5,,,,,,,,,,,,,,,,,,,,,,,,,,,,,,,,,,,,,,,,,,,,,
,,,,,SPR24_093,19,Female,2024-04-25_13h57.36.599,jersey_experiment_5_v0,2023.2.2,Win32,59.88023952,,,,,,,,,,,,,,,,288.2647,289.3144,289.3144,291.4643,return,0.3087,,73.69791667,0,54,54,21,1,FBP-YG-18.png,0.37,1.2,22,0.25,,,,,,,,,,,,,,,,,,,,,,,,,,,,,,,,,,,,,,,,,,,,,
,,,,,SPR24_093,19,Female,2024-04-25_13h57.36.599,jersey_experiment_5_v0,2023.2.2,Win32,59.88023952,,,,,,,,,,,,,,,,291.4646,292.5142,292.5142,293.6974,return,0.1664,,73.30729167,0,55,55,45,1,FBP-PT-17.png,0.35,1.2,46,0.25,,,,,,,,,,,,,,,,,,,,,,,,,,,,,,,,,,,,,,,,,,,,,
,,,,,SPR24_093,19,Female,2024-04-25_13h57.36.599,jersey_experiment_5_v0,2023.2.2,Win32,59.88023952,,,,,,,,,,,,,,,,293.6977,294.7473,294.7473,296.4473,return,0.7181,,97.78645833,0,56,56,56,1,FBP-PT-19.png,0.37,1.2,57,0.25,,,,,,,,,,,,,,,,,,,,,,,,,,,,,,,,,,,,,,,,,,,,,
,,,,,SPR24_093,19,Female,2024-04-25_13h57.36.599,jersey_experiment_5_v0,2023.2.2,Win32,59.88023952,,,,,,,,,,,,,,,,296.4475,297.7471,297.7471,298.7804,return,0.2045,,98.69791667,0,57,57,33,1,FBP-RB-17.png,0.43,1.2,34,0.5,,,,,,,,,,,,,,,,,,,,,,,,,,,,,,,,,,,,,,,,,,,,,
,,,,,SPR24_093,19,Female,2024-04-25_13h57.36.599,jersey_experiment_5_v0,2023.2.2,Win32,59.88023952,,,,,,,,,,,,,,,,298.7806,299.8302,299.8303,301.2468,return,0.6181,,98.69791667,0,58,58,20,1,FBP-YG-18.png,0.35,1.2,21,0.25,,,,,,,,,,,,,,,,,,,,,,,,,,,,,,,,,,,,,,,,,,,,,
,,,,,SPR24_093,19,Female,2024-04-25_13h57.36.599,jersey_experiment_5_v0,2023.2.2,Win32,59.88023952,,,,,,,,,,,,,,,,301.2471,302.2968,302.2969,303.13,return,0.2231,,98.56770833,0,59,59,53,1,FBP-PT-18.png,0.43,1.2,54,0.25,,,,,,,,,,,,,,,,,,,,,,,,,,,,,,,,,,,,,,,,,,,,,
,,,,,SPR24_093,19,Female,2024-04-25_13h57.36.599,jersey_experiment_5_v0,2023.2.2,Win32,59.88023952,,,,,,,,,,,,,,,,303.1315,304.4301,304.4301,305.4137,return,0.4949,,98.56770833,,,,,,FBP-RB-91.png,0.45,1.2,45,0.5,0,0,0,44,1,,,,,,,,,,,,,,,,,,,,,,,,,,,,,,,,,,,,,,,,
,,,,,SPR24_093,19,Female,2024-04-25_13h57.36.599,jersey_experiment_5_v0,2023.2.2,Win32,59.88023952,,,,,,,,,,,,,,,,305.414,306.7132,306.7133,307.8298,return,0.1287,,75,,,,,,FBP-RB-71.png,0.35,1.2,31,0.5,0,1,1,30,1,,,,,,,,,,,,,,,,,,,,,,,,,,,,,,,,,,,,,,,,
,,,,,SPR24_093,19,Female,2024-04-25_13h57.36.599,jersey_experiment_5_v0,2023.2.2,Win32,59.88023952,,,,,,,,,,,,,,,,307.8301,308.8798,308.8798,310.8297,return,0.3025,,98.95833333,,,,,,FBP-PT-71.png,0.35,1.2,46,0.25,0,2,2,45,1,,,,,,,,,,,,,,,,,,,,,,,,,,,,,,,,,,,,,,,,
,,,,,SPR24_093,19,Female,2024-04-25_13h57.36.599,jersey_experiment_5_v0,2023.2.2,Win32,59.88023952,,,,,,,,,,,,,,,,310.8299,312.1294,312.1295,313.4797,return,0.2093,,99.47916667,,,,,,FBP-RB-71.png,0.45,1.2,35,0.5,0,3,3,34,1,,,,,,,,,,,,,,,,,,,,,,,,,,,,,,,,,,,,,,,,
,,,,,SPR24_093,19,Female,2024-04-25_13h57.36.599,jersey_experiment_5_v0,2023.2.2,Win32,59.88023952,,,,,,,,,,,,,,,,313.4799,314.5293,314.5293,315.2126,return,0.1708,,99.47916667,,,,,,FBP-YG-81.png,0.43,1.2,24,0.25,0,4,4,23,1,,,,,,,,,,,,,,,,,,,,,,,,,,,,,,,,,,,,,,,,
,,,,,SPR24_093,19,Female,2024-04-25_13h57.36.599,jersey_experiment_5_v0,2023.2.2,Win32,59.88023952,,,,,,,,,,,,,,,,315.2128,316.5126,316.5127,318.4457,return,0.1886,,73.828125,,,,,,FBP-RB-81.png,0.35,1.2,36,0.5,0,5,5,35,1,,,,,,,,,,,,,,,,,,,,,,,,,,,,,,,,,,,,,,,,
,,,,,SPR24_093,19,Female,2024-04-25_13h57.36.599,jersey_experiment_5_v0,2023.2.2,Win32,59.88023952,,,,,,,,,,,,,,,,318.446,319.4957,319.4957,320.8123,return,0.1712,,98.95833333,,,,,,FBP-PT-91.png,0.37,1.2,57,0.25,0,6,6,56,1,,,,,,,,,,,,,,,,,,,,,,,,,,,,,,,,,,,,,,,,
,,,,,SPR24_093,19,Female,2024-04-25_13h57.36.599,jersey_experiment_5_v0,2023.2.2,Win32,59.88023952,,,,,,,,,,,,,,,,320.8124,321.8621,321.8621,322.6453,return,0.2844,,98.56770833,,,,,,FBP-PT-91.png,0.4,1.2,58,0.25,0,7,7,57,1,,,,,,,,,,,,,,,,,,,,,,,,,,,,,,,,,,,,,,,,
,,,,,SPR24_093,19,Female,2024-04-25_13h57.36.599,jersey_experiment_5_v0,2023.2.2,Win32,59.88023952,,,,,,,,,,,,,,,,322.6456,323.9453,323.9453,324.5119,return,0.1673,,98.56770833,,,,,,FBP-RB-91.png,0.4,1.2,43,0.5,0,8,8,42,1,,,,,,,,,,,,,,,,,,,,,,,,,,,,,,,,,,,,,,,,
,,,,,SPR24_093,19,Female,2024-04-25_13h57.36.599,jersey_experiment_5_v0,2023.2.2,Win32,59.88023952,,,,,,,,,,,,,,,,324.5121,325.8118,325.8119,326.4618,return,0.2051,,98.56770833,,,,,,FBP-RB-71.png,0.43,1.2,34,0.5,0,9,9,33,1,,,,,,,,,,,,,,,,,,,,,,,,,,,,,,,,,,,,,,,,
,,,,,SPR24_093,19,Female,2024-04-25_13h57.36.599,jersey_experiment_5_v0,2023.2.2,Win32,59.88023952,,,,,,,,,,,,,,,,326.462,327.5117,327.5117,328.7783,return,0.0399,,74.73958333,,,,,,FBP-PT-81.png,0.35,1.2,51,0.25,0,10,10,50,1,,,,,,,,,,,,,,,,,,,,,,,,,,,,,,,,,,,,,,,,
,,,,,SPR24_093,19,Female,2024-04-25_13h57.36.599,jersey_experiment_5_v0,2023.2.2,Win32,59.88023952,,,,,,,,,,,,,,,,328.7786,329.8282,329.8283,330.9115,return,0.1182,,99.609375,,,,,,FBP-PT-71.png,0.37,1.2,47,0.25,0,11,11,46,1,,,,,,,,,,,,,,,,,,,,,,,,,,,,,,,,,,,,,,,,
,,,,,SPR24_093,19,Female,2024-04-25_13h57.36.599,jersey_experiment_5_v0,2023.2.2,Win32,59.88023952,,,,,,,,,,,,,,,,330.9117,332.2117,332.2117,333.1281,return,0.0918,,73.95833333,,,,,,FBP-RB-91.png,0.35,1.2,41,0.5,0,12,12,40,1,,,,,,,,,,,,,,,,,,,,,,,,,,,,,,,,,,,,,,,,
,,,,,SPR24_093,19,Female,2024-04-25_13h57.36.599,jersey_experiment_5_v0,2023.2.2,Win32,59.88023952,,,,,,,,,,,,,,,,333.1284,334.1781,334.1781,335.4444,return,0.0846,,98.4375,,,,,,FBP-YG-91.png,0.37,1.2,27,0.25,0,13,13,26,1,,,,,,,,,,,,,,,,,,,,,,,,,,,,,,,,,,,,,,,,
,,,,,SPR24_093,19,Female,2024-04-25_13h57.36.599,jersey_experiment_5_v0,2023.2.2,Win32,59.88023952,,,,,,,,,,,,,,,,335.4448,336.4946,336.4946,337.8112,return,0.0856,,98.69791667,,,,,,FBP-PT-81.png,0.43,1.2,54,0.25,0,14,14,53,1,,,,,,,,,,,,,,,,,,,,,,,,,,,,,,,,,,,,,,,,
,,,,,SPR24_093,19,Female,2024-04-25_13h57.36.599,jersey_experiment_5_v0,2023.2.2,Win32,59.88023952,,,,,,,,,,,,,,,,337.8114,338.861,338.8611,339.5443,return,0.1915,,98.69791667,,,,,,FBP-PT-71.png,0.43,1.2,49,0.25,0,15,15,48,1,,,,,,,,,,,,,,,,,,,,,,,,,,,,,,,,,,,,,,,,
,,,,,SPR24_093,19,Female,2024-04-25_13h57.36.599,jersey_experiment_5_v0,2023.2.2,Win32,59.88023952,,,,,,,,,,,,,,,,339.5446,340.8442,340.8442,341.4774,return,0.1124,,98.69791667,,,,,,FBP-OG-18.png,0.4,1.2,8,0.5,0,16,16,7,1,,,,,,,,,,,,,,,,,,,,,,,,,,,,,,,,,,,,,,,,
,,,,,SPR24_093,19,Female,2024-04-25_13h57.36.599,jersey_experiment_5_v0,2023.2.2,Win32,59.88023952,,,,,,,,,,,,,,,,341.4777,342.5273,342.5274,343.4773,return,0.0495,,72.78645833,,,,,,FBP-YG-71.png,0.37,1.2,17,0.25,0,17,17,16,1,,,,,,,,,,,,,,,,,,,,,,,,,,,,,,,,,,,,,,,,
,,,,,SPR24_093,19,Female,2024-04-25_13h57.36.599,jersey_experiment_5_v0,2023.2.2,Win32,59.88023952,,,,,,,,,,,,,,,,343.4776,344.7772,344.7773,345.8107,return,0.1159,,98.56770833,,,,,,FBP-RB-81.png,0.43,1.2,39,0.5,0,18,18,38,1,,,,,,,,,,,,,,,,,,,,,,,,,,,,,,,,,,,,,,,,
,,,,,SPR24_093,19,Female,2024-04-25_13h57.36.599,jersey_experiment_5_v0,2023.2.2,Win32,59.88023952,,,,,,,,,,,,,,,,345.8109,347.1104,347.1104,348.0437,return,0.0053,,73.828125,,,,,,FBP-OG-19.png,0.35,1.2,11,0.5,0,19,19,10,1,,,,,,,,,,,,,,,,,,,,,,,,,,,,,,,,,,,,,,,,
,,,,,SPR24_093,19,Female,2024-04-25_13h57.36.599,jersey_experiment_5_v0,2023.2.2,Win32,59.88023952,,,,,,,,,,,,,,,,348.044,349.0937,349.0937,350.3603,return,0.1245,,97.78645833,,,,,,FBP-PT-71.png,0.45,1.2,50,0.25,0,20,20,49,1,,,,,,,,,,,,,,,,,,,,,,,,,,,,,,,,,,,,,,,,
,,,,,SPR24_093,19,Female,2024-04-25_13h57.36.599,jersey_experiment_5_v0,2023.2.2,Win32,59.88023952,,,,,,,,,,,,,,,,350.3604,351.6605,351.6605,352.8267,return,0.1222,,46.875,,,,,,FBP-OG-17.png,0.37,1.2,2,0.5,0,21,21,1,1,,,,,,,,,,,,,,,,,,,,,,,,,,,,,,,,,,,,,,,,
,,,,,SPR24_093,19,Female,2024-04-25_13h57.36.599,jersey_experiment_5_v0,2023.2.2,Win32,59.88023952,,,,,,,,,,,,,,,,352.8268,354.1267,354.1267,355.5434,return,0.0763,,53.77604167,,,,,,FBP-RB-71.png,0.37,1.2,32,0.5,0,22,22,31,1,,,,,,,,,,,,,,,,,,,,,,,,,,,,,,,,,,,,,,,,
,,,,,SPR24_093,19,Female,2024-04-25_13h57.36.599,jersey_experiment_5_v0,2023.2.2,Win32,59.88023952,,,,,,,,,,,,,,,,355.5437,356.8431,356.8431,357.9929,return,0.1414,,98.828125,,,,,,FBP-RB-81.png,0.45,1.2,40,0.5,0,23,23,39,1,,,,,,,,,,,,,,,,,,,,,,,,,,,,,,,,,,,,,,,,
,,,,,SPR24_093,19,Female,2024-04-25_13h57.36.599,jersey_experiment_5_v0,2023.2.2,Win32,59.88023952,,,,,,,,,,,,,,,,357.9931,359.293,359.2931,360.493,return,0.1897,,97.78645833,,,,,,FBP-OG-19.png,0.43,1.2,14,0.5,0,24,24,13,1,,,,,,,,,,,,,,,,,,,,,,,,,,,,,,,,,,,,,,,,
,,,,,SPR24_093,19,Female,2024-04-25_13h57.36.599,jersey_experiment_5_v0,2023.2.2,Win32,59.88023952,,,,,,,,,,,,,,,,360.4932,361.7927,361.7927,362.8926,return,0.1871,,98.17708333,,,,,,FBP-RB-81.png,0.4,1.2,38,0.5,0,25,25,37,1,,,,,,,,,,,,,,,,,,,,,,,,,,,,,,,,,,,,,,,,
,,,,,SPR24_093,19,Female,2024-04-25_13h57.36.599,jersey_experiment_5_v0,2023.2.2,Win32,59.88023952,,,,,,,,,,,,,,,,362.8927,364.1927,364.1928,364.726,return,0.2278,,98.17708333,,,,,,FBP-OG-18.png,0.45,1.2,10,0.5,0,26,26,9,1,,,,,,,,,,,,,,,,,,,,,,,,,,,,,,,,,,,,,,,,
,,,,,SPR24_093,19,Female,2024-04-25_13h57.36.599,jersey_experiment_5_v0,2023.2.2,Win32,59.88023952,,,,,,,,,,,,,,,,364.7262,365.7758,365.7759,367.3425,return,0.0357,,49.73958333,,,,,,FBP-PT-91.png,0.35,1.2,56,0.25,0,27,27,55,1,,,,,,,,,,,,,,,,,,,,,,,,,,,,,,,,,,,,,,,,
,,,,,SPR24_093,19,Female,2024-04-25_13h57.36.599,jersey_experiment_5_v0,2023.2.2,Win32,59.88023952,,,,,,,,,,,,,,,,367.3427,368.3923,368.3923,369.3256,return,0.0388,,74.34895833,,,,,,FBP-PT-71.png,0.4,1.2,48,0.25,0,28,28,47,1,,,,,,,,,,,,,,,,,,,,,,,,,,,,,,,,,,,,,,,,
,,,,,SPR24_093,19,Female,2024-04-25_13h57.36.599,jersey_experiment_5_v0,2023.2.2,Win32,59.88023952,,,,,,,,,,,,,,,,369.3259,370.3755,370.3756,371.7755,return,0.2172,,99.86979167,,,,,,FBP-PT-81.png,0.45,1.2,55,0.25,0,29,29,54,1,,,,,,,,,,,,,,,,,,,,,,,,,,,,,,,,,,,,,,,,
,,,,,SPR24_093,19,Female,2024-04-25_13h57.36.599,jersey_experiment_5_v0,2023.2.2,Win32,59.88023952,,,,,,,,,,,,,,,,371.7757,372.8255,372.8255,373.7585,return,0.302,,98.56770833,,,,,,FBP-PT-91.png,0.45,1.2,60,0.25,0,30,30,59,1,,,,,,,,,,,,,,,,,,,,,,,,,,,,,,,,,,,,,,,,
,,,,,SPR24_093,19,Female,2024-04-25_13h57.36.599,jersey_experiment_5_v0,2023.2.2,Win32,59.88023952,,,,,,,,,,,,,,,,373.7587,374.8085,374.8085,375.542,return,0.1826,,98.69791667,,,,,,FBP-YG-71.png,0.45,1.2,20,0.25,0,31,31,19,1,,,,,,,,,,,,,,,,,,,,,,,,,,,,,,,,,,,,,,,,
,,,,,SPR24_093,19,Female,2024-04-25_13h57.36.599,jersey_experiment_5_v0,2023.2.2,Win32,59.88023952,,,,,,,,,,,,,,,,375.5422,376.5918,376.5918,378.2085,return,0.5839,,99.609375,,,,,,FBP-YG-81.png,0.35,1.2,21,0.25,0,32,32,20,1,,,,,,,,,,,,,,,,,,,,,,,,,,,,,,,,,,,,,,,,
,,,,,SPR24_093,19,Female,2024-04-25_13h57.36.599,jersey_experiment_5_v0,2023.2.2,Win32,59.88023952,,,,,,,,,,,,,,,,378.2087,379.2584,379.2584,380.7916,return,0.1268,,97.91666667,,,,,,FBP-PT-81.png,0.4,1.2,53,0.25,0,33,33,52,1,,,,,,,,,,,,,,,,,,,,,,,,,,,,,,,,,,,,,,,,
,,,,,SPR24_093,19,Female,2024-04-25_13h57.36.599,jersey_experiment_5_v0,2023.2.2,Win32,59.88023952,,,,,,,,,,,,,,,,380.7917,382.0916,382.0917,383.6414,return,0.1075,,74.34895833,,,,,,FBP-RB-91.png,0.37,1.2,42,0.5,0,34,34,41,1,,,,,,,,,,,,,,,,,,,,,,,,,,,,,,,,,,,,,,,,
,,,,,SPR24_093,19,Female,2024-04-25_13h57.36.599,jersey_experiment_5_v0,2023.2.2,Win32,59.88023952,,,,,,,,,,,,,,,,383.6416,384.9411,384.9411,387.1745,return,0.9777,,98.828125,,,,,,FBP-OG-17.png,0.45,1.2,5,0.5,0,35,35,4,1,,,,,,,,,,,,,,,,,,,,,,,,,,,,,,,,,,,,,,,,
,,,,,SPR24_093,19,Female,2024-04-25_13h57.36.599,jersey_experiment_5_v0,2023.2.2,Win32,59.88023952,,,,,,,,,,,,,,,,387.1748,388.4744,388.4745,389.691,return,0.1901,,98.95833333,,,,,,FBP-RB-91.png,0.43,1.2,44,0.5,0,36,36,43,1,,,,,,,,,,,,,,,,,,,,,,,,,,,,,,,,,,,,,,,,
,,,,,SPR24_093,19,Female,2024-04-25_13h57.36.599,jersey_experiment_5_v0,2023.2.2,Win32,59.88023952,,,,,,,,,,,,,,,,389.6911,390.7408,390.7409,391.3574,return,0.0195,,98.95833333,,,,,,FBP-YG-71.png,0.4,1.2,18,0.25,0,37,37,17,1,,,,,,,,,,,,,,,,,,,,,,,,,,,,,,,,,,,,,,,,
,,,,,SPR24_093,19,Female,2024-04-25_13h57.36.599,jersey_experiment_5_v0,2023.2.2,Win32,59.88023952,,,,,,,,,,,,,,,,391.3576,392.6575,392.6575,393.474,return,0.0838,,98.95833333,,,,,,FBP-OG-19.png,0.45,1.2,15,0.5,0,38,38,14,1,,,,,,,,,,,,,,,,,,,,,,,,,,,,,,,,,,,,,,,,
,,,,,SPR24_093,19,Female,2024-04-25_13h57.36.599,jersey_experiment_5_v0,2023.2.2,Win32,59.88023952,,,,,,,,,,,,,,,,393.4743,394.5241,394.5242,396.7905,return,1.1932,,99.73958333,,,,,,FBP-YG-91.png,0.45,1.2,30,0.25,0,39,39,29,1,,,,,,,,,,,,,,,,,,,,,,,,,,,,,,,,,,,,,,,,
,,,,,SPR24_093,19,Female,2024-04-25_13h57.36.599,jersey_experiment_5_v0,2023.2.2,Win32,59.88023952,,,,,,,,,,,,,,,,396.7908,398.0902,398.0902,399.2069,return,0.0933,,23.95833333,,,,,,FBP-OG-18.png,0.35,1.2,6,0.5,0,40,40,5,1,,,,,,,,,,,,,,,,,,,,,,,,,,,,,,,,,,,,,,,,
,,,,,SPR24_093,19,Female,2024-04-25_13h57.36.599,jersey_experiment_5_v0,2023.2.2,Win32,59.88023952,,,,,,,,,,,,,,,,399.2071,400.257,400.257,400.7901,return,0.0615,,24.21875,,,,,,FBP-YG-71.png,0.35,1.2,16,0.25,0,41,41,15,1,,,,,,,,,,,,,,,,,,,,,,,,,,,,,,,,,,,,,,,,
,,,,,SPR24_093,19,Female,2024-04-25_13h57.36.599,jersey_experiment_5_v0,2023.2.2,Win32,59.88023952,,,,,,,,,,,,,,,,400.7904,402.09,402.09,403.0233,return,0.0351,,50.390625,,,,,,FBP-OG-19.png,0.37,1.2,12,0.5,0,42,42,11,1,,,,,,,,,,,,,,,,,,,,,,,,,,,,,,,,,,,,,,,,
,,,,,SPR24_093,19,Female,2024-04-25_13h57.36.599,jersey_experiment_5_v0,2023.2.2,Win32,59.88023952,,,,,,,,,,,,,,,,403.0235,404.3232,404.3233,406.0565,return,0.1085,,99.08854167,,,,,,FBP-OG-18.png,0.43,1.2,9,0.5,0,43,43,8,1,,,,,,,,,,,,,,,,,,,,,,,,,,,,,,,,,,,,,,,,
,,,,,SPR24_093,19,Female,2024-04-25_13h57.36.599,jersey_experiment_5_v0,2023.2.2,Win32,59.88023952,,,,,,,,,,,,,,,,406.0566,407.3568,407.3568,408.3896,return,0.1277,,96.875,,,,,,FBP-RB-71.png,0.4,1.2,33,0.5,0,44,44,32,1,,,,,,,,,,,,,,,,,,,,,,,,,,,,,,,,,,,,,,,,
,,,,,SPR24_093,19,Female,2024-04-25_13h57.36.599,jersey_experiment_5_v0,2023.2.2,Win32,59.88023952,,,,,,,,,,,,,,,,408.3898,409.4395,409.4395,410.5229,return,0.0227,,74.34895833,,,,,,FBP-YG-91.png,0.35,1.2,26,0.25,0,45,45,25,1,,,,,,,,,,,,,,,,,,,,,,,,,,,,,,,,,,,,,,,,
,,,,,SPR24_093,19,Female,2024-04-25_13h57.36.599,jersey_experiment_5_v0,2023.2.2,Win32,59.88023952,,,,,,,,,,,,,,,,410.5231,411.5728,411.5729,412.6395,return,0.0867,,98.95833333,,,,,,FBP-YG-91.png,0.43,1.2,29,0.25,0,46,46,28,1,,,,,,,,,,,,,,,,,,,,,,,,,,,,,,,,,,,,,,,,
,,,,,SPR24_093,19,Female,2024-04-25_13h57.36.599,jersey_experiment_5_v0,2023.2.2,Win32,59.88023952,,,,,,,,,,,,,,,,412.6397,413.6892,413.6892,415.0558,return,0.1674,,49.609375,,,,,,FBP-YG-81.png,0.37,1.2,22,0.25,0,47,47,21,1,,,,,,,,,,,,,,,,,,,,,,,,,,,,,,,,,,,,,,,,
,,,,,SPR24_093,19,Female,2024-04-25_13h57.36.599,jersey_experiment_5_v0,2023.2.2,Win32,59.88023952,,,,,,,,,,,,,,,,415.056,416.3557,416.3557,417.1724,return,0.0651,,49.86979167,,,,,,FBP-OG-17.png,0.35,1.2,1,0.5,0,48,48,0,1,,,,,,,,,,,,,,,,,,,,,,,,,,,,,,,,,,,,,,,,
,,,,,SPR24_093,19,Female,2024-04-25_13h57.36.599,jersey_experiment_5_v0,2023.2.2,Win32,59.88023952,,,,,,,,,,,,,,,,417.1726,418.2222,418.2223,419.4889,return,0.1336,,98.4375,,,,,,FBP-YG-81.png,0.45,1.2,25,0.25,0,49,49,24,1,,,,,,,,,,,,,,,,,,,,,,,,,,,,,,,,,,,,,,,,
,,,,,SPR24_093,19,Female,2024-04-25_13h57.36.599,jersey_experiment_5_v0,2023.2.2,Win32,59.88023952,,,,,,,,,,,,,,,,419.4892,420.7889,420.7889,421.6722,return,0.0945,,75.78125,,,,,,FBP-RB-81.png,0.37,1.2,37,0.5,0,50,50,36,1,,,,,,,,,,,,,,,,,,,,,,,,,,,,,,,,,,,,,,,,
,,,,,SPR24_093,19,Female,2024-04-25_13h57.36.599,jersey_experiment_5_v0,2023.2.2,Win32,59.88023952,,,,,,,,,,,,,,,,421.6724,422.7221,422.7221,423.7886,return,0.1875,,99.21875,,,,,,FBP-YG-71.png,0.43,1.2,19,0.25,0,51,51,18,1,,,,,,,,,,,,,,,,,,,,,,,,,,,,,,,,,,,,,,,,
,,,,,SPR24_093,19,Female,2024-04-25_13h57.36.599,jersey_experiment_5_v0,2023.2.2,Win32,59.88023952,,,,,,,,,,,,,,,,423.7889,425.0886,425.0886,425.7551,return,0.2066,,99.21875,,,,,,FBP-OG-19.png,0.4,1.2,13,0.5,0,52,52,12,1,,,,,,,,,,,,,,,,,,,,,,,,,,,,,,,,,,,,,,,,
,,,,,SPR24_093,19,Female,2024-04-25_13h57.36.599,jersey_experiment_5_v0,2023.2.2,Win32,59.88023952,,,,,,,,,,,,,,,,425.7553,426.805,426.805,427.4718,return,0.1015,,99.21875,,,,,,FBP-YG-81.png,0.4,1.2,23,0.25,0,53,53,22,1,,,,,,,,,,,,,,,,,,,,,,,,,,,,,,,,,,,,,,,,
,,,,,SPR24_093,19,Female,2024-04-25_13h57.36.599,jersey_experiment_5_v0,2023.2.2,Win32,59.88023952,,,,,,,,,,,,,,,,427.472,428.5215,428.5216,429.2882,return,0.1926,,99.21875,,,,,,FBP-PT-91.png,0.43,1.2,59,0.25,0,54,54,58,1,,,,,,,,,,,,,,,,,,,,,,,,,,,,,,,,,,,,,,,,
,,,,,SPR24_093,19,Female,2024-04-25_13h57.36.599,jersey_experiment_5_v0,2023.2.2,Win32,59.88023952,,,,,,,,,,,,,,,,429.2884,430.5885,430.5885,433.488,return,2.3675,,98.30729167,,,,,,FBP-OG-18.png,0.37,1.2,7,0.5,0,55,55,6,1,,,,,,,,,,,,,,,,,,,,,,,,,,,,,,,,,,,,,,,,
,,,,,SPR24_093,19,Female,2024-04-25_13h57.36.599,jersey_experiment_5_v0,2023.2.2,Win32,59.88023952,,,,,,,,,,,,,,,,433.4882,434.5378,434.5378,435.4378,return,0.0536,,76.171875,,,,,,FBP-YG-91.png,0.4,1.2,28,0.25,0,56,56,27,1,,,,,,,,,,,,,,,,,,,,,,,,,,,,,,,,,,,,,,,,
,,,,,SPR24_093,19,Female,2024-04-25_13h57.36.599,jersey_experiment_5_v0,2023.2.2,Win32,59.88023952,,,,,,,,,,,,,,,,435.438,436.4875,436.4876,436.9879,return,0.0904,,76.171875,,,,,,FBP-PT-81.png,0.37,1.2,52,0.25,0,57,57,51,1,,,,,,,,,,,,,,,,,,,,,,,,,,,,,,,,,,,,,,,,
,,,,,SPR24_093,19,Female,2024-04-25_13h57.36.599,jersey_experiment_5_v0,2023.2.2,Win32,59.88023952,,,,,,,,,,,,,,,,436.9881,438.2877,438.2877,438.9042,return,0.1105,,76.171875,,,,,,FBP-OG-17.png,0.43,1.2,4,0.5,0,58,58,3,1,,,,,,,,,,,,,,,,,,,,,,,,,,,,,,,,,,,,,,,,
,,,,,SPR24_093,19,Female,2024-04-25_13h57.36.599,jersey_experiment_5_v0,2023.2.2,Win32,59.88023952,,,,,,,,,,,,,,,,438.9044,440.2041,440.2042,440.9708,return,0.1747,,76.171875,,,,,,FBP-OG-17.png,0.4,1.2,3,0.5,0,59,59,2,1,,,,,,,,,,,,,,,,,,,,,,,,,,,,,,,,,,,,,,,,
,,,,,SPR24_093,19,Female,2024-04-25_13h57.36.599,jersey_experiment_5_v0,2023.2.2,Win32,59.88023952,,,,,,,,,,,,,,,,,,,,,,,,,,,,,,,,,,,,,,,440.9712,560.9632,,,,,,,,,,,,,,,,,,,,,,,,,,,,,,,,,,,,,,
,,,,,SPR24_093,19,Female,2024-04-25_13h57.36.599,jersey_experiment_5_v0,2023.2.2,Win32,59.88023952,,,,,,,,,,,,,,,,,,,,,,,,,,,,,,,,,,,,,,,,,560.9633,564.6458,return,3.6767,,,,,,,,,,,,,,,,,,,,,,,,,,,,,,,,,,
,,,,,SPR24_093,19,Female,2024-04-25_13h57.36.599,jersey_experiment_5_v0,2023.2.2,Win32,59.88023952,,,,,,,,,,,,,,,,564.6515,565.6957,565.6957,568.3122,return,1.4083,,48.95833333,,,,,,FBP-RB-18.png,0.4,1.2,38,0.25,,,,,,,,,,,,,0,0,0,37,1,,,,,,,,,,,,,,,,,,,,,,,,,,,,
,,,,,SPR24_093,19,Female,2024-04-25_13h57.36.599,jersey_experiment_5_v0,2023.2.2,Win32,59.88023952,,,,,,,,,,,,,,,,568.3124,569.6124,569.6124,570.4785,return,0.0517,,26.69270833,,,,,,FBP-YG-17.png,0.35,1.2,16,0.5,,,,,,,,,,,,,0,1,1,15,1,,,,,,,,,,,,,,,,,,,,,,,,,,,,
,,,,,SPR24_093,19,Female,2024-04-25_13h57.36.599,jersey_experiment_5_v0,2023.2.2,Win32,59.88023952,,,,,,,,,,,,,,,,570.4788,571.5286,571.5286,573.7451,return,0.1854,,75,,,,,,FBP-OG-71.png,0.43,1.2,4,0.25,,,,,,,,,,,,,0,2,2,3,1,,,,,,,,,,,,,,,,,,,,,,,,,,,,
,,,,,SPR24_093,19,Female,2024-04-25_13h57.36.599,jersey_experiment_5_v0,2023.2.2,Win32,59.88023952,,,,,,,,,,,,,,,,573.7454,574.7951,574.7951,575.8615,return,0.0783,,51.5625,,,,,,FBP-OG-91.png,0.37,1.2,12,0.25,,,,,,,,,,,,,0,3,3,11,1,,,,,,,,,,,,,,,,,,,,,,,,,,,,
,,,,,SPR24_093,19,Female,2024-04-25_13h57.36.599,jersey_experiment_5_v0,2023.2.2,Win32,59.88023952,,,,,,,,,,,,,,,,575.8618,576.9116,576.9117,577.7781,return,0.067,,74.47916667,,,,,,FBP-RB-18.png,0.45,1.2,40,0.25,,,,,,,,,,,,,0,4,4,39,1,,,,,,,,,,,,,,,,,,,,,,,,,,,,
,,,,,SPR24_093,19,Female,2024-04-25_13h57.36.599,jersey_experiment_5_v0,2023.2.2,Win32,59.88023952,,,,,,,,,,,,,,,,577.7783,579.0782,579.0782,579.7614,return,0.0496,,50,,,,,,FBP-PT-17.png,0.35,1.2,46,0.5,,,,,,,,,,,,,0,5,5,45,1,,,,,,,,,,,,,,,,,,,,,,,,,,,,
,,,,,SPR24_093,19,Female,2024-04-25_13h57.36.599,jersey_experiment_5_v0,2023.2.2,Win32,59.88023952,,,,,,,,,,,,,,,,579.7616,581.0612,581.0613,581.928,return,0.0416,,98.046875,,,,,,FBP-PT-19.png,0.43,1.2,59,0.5,,,,,,,,,,,,,0,6,6,58,1,,,,,,,,,,,,,,,,,,,,,,,,,,,,
,,,,,SPR24_093,19,Female,2024-04-25_13h57.36.599,jersey_experiment_5_v0,2023.2.2,Win32,59.88023952,,,,,,,,,,,,,,,,581.9282,583.2277,583.2277,583.7777,return,0.0692,,99.21875,,,,,,FBP-YG-17.png,0.45,1.2,20,0.5,,,,,,,,,,,,,0,7,7,19,1,,,,,,,,,,,,,,,,,,,,,,,,,,,,
,,,,,SPR24_093,19,Female,2024-04-25_13h57.36.599,jersey_experiment_5_v0,2023.2.2,Win32,59.88023952,,,,,,,,,,,,,,,,583.778,584.8277,584.8278,585.7112,return,0.0174,,75.13020833,,,,,,FBP-OG-71.png,0.37,1.2,2,0.25,,,,,,,,,,,,,0,8,8,1,1,,,,,,,,,,,,,,,,,,,,,,,,,,,,
,,,,,SPR24_093,19,Female,2024-04-25_13h57.36.599,jersey_experiment_5_v0,2023.2.2,Win32,59.88023952,,,,,,,,,,,,,,,,585.7115,587.011,587.011,587.5941,return,0.0731,,75.13020833,,,,,,FBP-YG-19.png,0.4,1.2,28,0.5,,,,,,,,,,,,,0,9,9,27,1,,,,,,,,,,,,,,,,,,,,,,,,,,,,
,,,,,SPR24_093,19,Female,2024-04-25_13h57.36.599,jersey_experiment_5_v0,2023.2.2,Win32,59.88023952,,,,,,,,,,,,,,,,587.5944,588.894,588.8941,589.8772,return,0.1272,,53.25520833,,,,,,FBP-YG-18.png,0.35,1.2,21,0.5,,,,,,,,,,,,,0,10,10,20,1,,,,,,,,,,,,,,,,,,,,,,,,,,,,
,,,,,SPR24_093,19,Female,2024-04-25_13h57.36.599,jersey_experiment_5_v0,2023.2.2,Win32,59.88023952,,,,,,,,,,,,,,,,589.8775,590.9273,590.9274,592.1105,return,0.1015,,97.265625,,,,,,FBP-OG-91.png,0.43,1.2,14,0.25,,,,,,,,,,,,,0,11,11,13,1,,,,,,,,,,,,,,,,,,,,,,,,,,,,
,,,,,SPR24_093,19,Female,2024-04-25_13h57.36.599,jersey_experiment_5_v0,2023.2.2,Win32,59.88023952,,,,,,,,,,,,,,,,592.1108,593.1604,593.1604,594.0104,return,0.0398,,75.390625,,,,,,FBP-RB-17.png,0.37,1.2,32,0.25,,,,,,,,,,,,,0,12,12,31,1,,,,,,,,,,,,,,,,,,,,,,,,,,,,
,,,,,SPR24_093,19,Female,2024-04-25_13h57.36.599,jersey_experiment_5_v0,2023.2.2,Win32,59.88023952,,,,,,,,,,,,,,,,594.0107,595.3104,595.3105,596.2435,return,0.1311,,98.30729167,,,,,,FBP-PT-19.png,0.4,1.2,58,0.5,,,,,,,,,,,,,0,13,13,57,1,,,,,,,,,,,,,,,,,,,,,,,,,,,,
,,,,,SPR24_093,19,Female,2024-04-25_13h57.36.599,jersey_experiment_5_v0,2023.2.2,Win32,59.88023952,,,,,,,,,,,,,,,,596.2438,597.5436,597.5437,598.6768,return,0.6299,,73.30729167,,,,,,FBP-YG-19.png,0.35,1.2,26,0.5,,,,,,,,,,,,,0,14,14,25,1,,,,,,,,,,,,,,,,,,,,,,,,,,,,
,,,,,SPR24_093,19,Female,2024-04-25_13h57.36.599,jersey_experiment_5_v0,2023.2.2,Win32,59.88023952,,,,,,,,,,,,,,,,598.6771,599.9768,599.9768,601.2931,return,0.1534,,99.73958333,,,,,,FBP-YG-19.png,0.43,1.2,29,0.5,,,,,,,,,,,,,0,15,15,28,1,,,,,,,,,,,,,,,,,,,,,,,,,,,,
,,,,,SPR24_093,19,Female,2024-04-25_13h57.36.599,jersey_experiment_5_v0,2023.2.2,Win32,59.88023952,,,,,,,,,,,,,,,,601.2934,602.343,602.3431,602.9931,return,0.1508,,99.73958333,,,,,,FBP-OG-71.png,0.45,1.2,5,0.25,,,,,,,,,,,,,0,16,16,4,1,,,,,,,,,,,,,,,,,,,,,,,,,,,,
,,,,,SPR24_093,19,Female,2024-04-25_13h57.36.599,jersey_experiment_5_v0,2023.2.2,Win32,59.88023952,,,,,,,,,,,,,,,,602.9934,604.0429,604.043,604.7763,return,0.1754,,99.73958333,,,,,,FBP-RB-19.png,0.45,1.2,45,0.25,,,,,,,,,,,,,0,17,17,44,1,,,,,,,,,,,,,,,,,,,,,,,,,,,,
,,,,,SPR24_093,19,Female,2024-04-25_13h57.36.599,jersey_experiment_5_v0,2023.2.2,Win32,59.88023952,,,,,,,,,,,,,,,,604.7765,605.8263,605.8264,606.7761,return,0.1607,,99.73958333,,,,,,FBP-RB-18.png,0.43,1.2,39,0.25,,,,,,,,,,,,,0,18,18,38,1,,,,,,,,,,,,,,,,,,,,,,,,,,,,
,,,,,SPR24_093,19,Female,2024-04-25_13h57.36.599,jersey_experiment_5_v0,2023.2.2,Win32,59.88023952,,,,,,,,,,,,,,,,606.7763,608.0762,608.0762,609.093,return,0.1029,,24.47916667,,,,,,FBP-PT-19.png,0.35,1.2,56,0.5,,,,,,,,,,,,,0,19,19,55,1,,,,,,,,,,,,,,,,,,,,,,,,,,,,
,,,,,SPR24_093,19,Female,2024-04-25_13h57.36.599,jersey_experiment_5_v0,2023.2.2,Win32,59.88023952,,,,,,,,,,,,,,,,609.0932,610.3925,610.3925,612.2092,return,0.0993,,73.828125,,,,,,FBP-YG-18.png,0.37,1.2,22,0.5,,,,,,,,,,,,,0,20,20,21,1,,,,,,,,,,,,,,,,,,,,,,,,,,,,
,,,,,SPR24_093,19,Female,2024-04-25_13h57.36.599,jersey_experiment_5_v0,2023.2.2,Win32,59.88023952,,,,,,,,,,,,,,,,612.2093,613.2592,613.2592,615.3756,return,1.2337,,53.90625,,,,,,FBP-RB-18.png,0.35,1.2,36,0.25,,,,,,,,,,,,,0,21,21,35,1,,,,,,,,,,,,,,,,,,,,,,,,,,,,
,,,,,SPR24_093,19,Female,2024-04-25_13h57.36.599,jersey_experiment_5_v0,2023.2.2,Win32,59.88023952,,,,,,,,,,,,,,,,615.3758,616.4255,616.4255,617.1755,return,0.1599,,53.90625,,,,,,FBP-OG-91.png,0.4,1.2,13,0.25,,,,,,,,,,,,,0,22,22,12,1,,,,,,,,,,,,,,,,,,,,,,,,,,,,
,,,,,SPR24_093,19,Female,2024-04-25_13h57.36.599,jersey_experiment_5_v0,2023.2.2,Win32,59.88023952,,,,,,,,,,,,,,,,617.1757,618.2256,618.2257,619.5253,return,0.18,,25.78125,,,,,,FBP-RB-17.png,0.35,1.2,31,0.25,,,,,,,,,,,,,0,23,23,30,1,,,,,,,,,,,,,,,,,,,,,,,,,,,,
,,,,,SPR24_093,19,Female,2024-04-25_13h57.36.599,jersey_experiment_5_v0,2023.2.2,Win32,59.88023952,,,,,,,,,,,,,,,,619.5258,620.8253,620.8254,621.9084,return,0.1,,98.828125,,,,,,FBP-PT-17.png,0.43,1.2,49,0.5,,,,,,,,,,,,,0,24,24,48,1,,,,,,,,,,,,,,,,,,,,,,,,,,,,
,,,,,SPR24_093,19,Female,2024-04-25_13h57.36.599,jersey_experiment_5_v0,2023.2.2,Win32,59.88023952,,,,,,,,,,,,,,,,621.9086,622.9585,622.9586,624.1249,return,0.0863,,75.390625,,,,,,FBP-RB-19.png,0.37,1.2,42,0.25,,,,,,,,,,,,,0,25,25,41,1,,,,,,,,,,,,,,,,,,,,,,,,,,,,
,,,,,SPR24_093,19,Female,2024-04-25_13h57.36.599,jersey_experiment_5_v0,2023.2.2,Win32,59.88023952,,,,,,,,,,,,,,,,624.1252,625.425,625.425,626.6249,return,0.1025,,50.390625,,,,,,FBP-PT-18.png,0.35,1.2,51,0.5,,,,,,,,,,,,,0,26,26,50,1,,,,,,,,,,,,,,,,,,,,,,,,,,,,
,,,,,SPR24_093,19,Female,2024-04-25_13h57.36.599,jersey_experiment_5_v0,2023.2.2,Win32,59.88023952,,,,,,,,,,,,,,,,626.6251,627.9249,627.9249,629.0914,return,0.5476,,49.47916667,,,,,,FBP-YG-19.png,0.37,1.2,27,0.5,,,,,,,,,,,,,0,27,27,26,1,,,,,,,,,,,,,,,,,,,,,,,,,,,,
,,,,,SPR24_093,19,Female,2024-04-25_13h57.36.599,jersey_experiment_5_v0,2023.2.2,Win32,59.88023952,,,,,,,,,,,,,,,,629.0917,630.3914,630.3914,631.4745,return,0.0821,,99.609375,,,,,,FBP-PT-19.png,0.45,1.2,60,0.5,,,,,,,,,,,,,0,28,28,59,1,,,,,,,,,,,,,,,,,,,,,,,,,,,,
,,,,,SPR24_093,19,Female,2024-04-25_13h57.36.599,jersey_experiment_5_v0,2023.2.2,Win32,59.88023952,,,,,,,,,,,,,,,,631.4748,632.7746,632.7747,633.9409,return,0.0455,,50.65104167,,,,,,FBP-PT-18.png,0.37,1.2,52,0.5,,,,,,,,,,,,,0,29,29,51,1,,,,,,,,,,,,,,,,,,,,,,,,,,,,
,,,,,SPR24_093,19,Female,2024-04-25_13h57.36.599,jersey_experiment_5_v0,2023.2.2,Win32,59.88023952,,,,,,,,,,,,,,,,633.9411,635.2409,635.241,636.2577,return,0.15,,75.65104167,,,,,,FBP-YG-17.png,0.4,1.2,18,0.5,,,,,,,,,,,,,0,30,30,17,1,,,,,,,,,,,,,,,,,,,,,,,,,,,,
,,,,,SPR24_093,19,Female,2024-04-25_13h57.36.599,jersey_experiment_5_v0,2023.2.2,Win32,59.88023952,,,,,,,,,,,,,,,,636.2579,637.5576,637.5576,638.4574,return,0.1239,,51.82291667,,,,,,FBP-PT-19.png,0.37,1.2,57,0.5,,,,,,,,,,,,,0,31,31,56,1,,,,,,,,,,,,,,,,,,,,,,,,,,,,
,,,,,SPR24_093,19,Female,2024-04-25_13h57.36.599,jersey_experiment_5_v0,2023.2.2,Win32,59.88023952,,,,,,,,,,,,,,,,638.4576,639.7572,639.7572,641.0073,return,0.0354,,74.47916667,,,,,,FBP-YG-18.png,0.4,1.2,23,0.5,,,,,,,,,,,,,0,32,32,22,1,,,,,,,,,,,,,,,,,,,,,,,,,,,,
,,,,,SPR24_093,19,Female,2024-04-25_13h57.36.599,jersey_experiment_5_v0,2023.2.2,Win32,59.88023952,,,,,,,,,,,,,,,,641.0075,642.3074,642.3075,643.557,return,0.1105,,73.4375,,,,,,FBP-YG-17.png,0.37,1.2,17,0.5,,,,,,,,,,,,,0,33,33,16,1,,,,,,,,,,,,,,,,,,,,,,,,,,,,
,,,,,SPR24_093,19,Female,2024-04-25_13h57.36.599,jersey_experiment_5_v0,2023.2.2,Win32,59.88023952,,,,,,,,,,,,,,,,643.5573,644.607,644.607,645.9235,return,0.1508,,99.609375,,,,,,FBP-RB-17.png,0.45,1.2,35,0.25,,,,,,,,,,,,,0,34,34,34,1,,,,,,,,,,,,,,,,,,,,,,,,,,,,
,,,,,SPR24_093,19,Female,2024-04-25_13h57.36.599,jersey_experiment_5_v0,2023.2.2,Win32,59.88023952,,,,,,,,,,,,,,,,645.9237,646.9735,646.9736,647.5566,return,0.1121,,99.21875,,,,,,FBP-OG-91.png,0.45,1.2,15,0.25,,,,,,,,,,,,,0,35,35,14,1,,,,,,,,,,,,,,,,,,,,,,,,,,,,
,,,,,SPR24_093,19,Female,2024-04-25_13h57.36.599,jersey_experiment_5_v0,2023.2.2,Win32,59.88023952,,,,,,,,,,,,,,,,647.557,648.6066,648.6066,649.3066,return,0.2548,,99.21875,,,,,,FBP-RB-19.png,0.43,1.2,44,0.25,,,,,,,,,,,,,0,36,36,43,1,,,,,,,,,,,,,,,,,,,,,,,,,,,,
,,,,,SPR24_093,19,Female,2024-04-25_13h57.36.599,jersey_experiment_5_v0,2023.2.2,Win32,59.88023952,,,,,,,,,,,,,,,,649.3069,650.3567,650.3567,653.4065,return,0.2374,,71.74479167,,,,,,FBP-OG-81.png,0.45,1.2,10,0.25,,,,,,,,,,,,,0,37,37,9,1,,,,,,,,,,,,,,,,,,,,,,,,,,,,
,,,,,SPR24_093,19,Female,2024-04-25_13h57.36.599,jersey_experiment_5_v0,2023.2.2,Win32,59.88023952,,,,,,,,,,,,,,,,653.4067,654.4564,654.4564,656.3562,return,0.0665,,48.56770833,,,,,,FBP-RB-19.png,0.35,1.2,41,0.25,,,,,,,,,,,,,0,38,38,40,1,,,,,,,,,,,,,,,,,,,,,,,,,,,,
,,,,,SPR24_093,19,Female,2024-04-25_13h57.36.599,jersey_experiment_5_v0,2023.2.2,Win32,59.88023952,,,,,,,,,,,,,,,,656.3565,657.406,657.4061,657.9562,return,0.0849,,48.56770833,,,,,,FBP-RB-18.png,0.37,1.2,37,0.25,,,,,,,,,,,,,0,39,39,36,1,,,,,,,,,,,,,,,,,,,,,,,,,,,,
,,,,,SPR24_093,19,Female,2024-04-25_13h57.36.599,jersey_experiment_5_v0,2023.2.2,Win32,59.88023952,,,,,,,,,,,,,,,,657.9564,659.006,659.006,659.9393,return,0.0173,,74.47916667,,,,,,FBP-OG-81.png,0.4,1.2,8,0.25,,,,,,,,,,,,,0,40,40,7,1,,,,,,,,,,,,,,,,,,,,,,,,,,,,
,,,,,SPR24_093,19,Female,2024-04-25_13h57.36.599,jersey_experiment_5_v0,2023.2.2,Win32,59.88023952,,,,,,,,,,,,,,,,659.9394,660.9891,660.9892,662.0224,return,0.0094,,52.21354167,,,,,,FBP-OG-81.png,0.37,1.2,7,0.25,,,,,,,,,,,,,0,41,41,6,1,,,,,,,,,,,,,,,,,,,,,,,,,,,,
,,,,,SPR24_093,19,Female,2024-04-25_13h57.36.599,jersey_experiment_5_v0,2023.2.2,Win32,59.88023952,,,,,,,,,,,,,,,,662.0226,663.3223,663.3223,664.3391,return,0.0502,,99.34895833,,,,,,FBP-YG-18.png,0.43,1.2,24,0.5,,,,,,,,,,,,,0,42,42,23,1,,,,,,,,,,,,,,,,,,,,,,,,,,,,
,,,,,SPR24_093,19,Female,2024-04-25_13h57.36.599,jersey_experiment_5_v0,2023.2.2,Win32,59.88023952,,,,,,,,,,,,,,,,664.3392,665.3888,665.3889,666.7888,return,0.0005,,50.390625,,,,,,FBP-OG-81.png,0.35,1.2,6,0.25,,,,,,,,,,,,,0,43,43,5,1,,,,,,,,,,,,,,,,,,,,,,,,,,,,
,,,,,SPR24_093,19,Female,2024-04-25_13h57.36.599,jersey_experiment_5_v0,2023.2.2,Win32,59.88023952,,,,,,,,,,,,,,,,666.7892,668.0886,668.0886,669.2552,return,0.1258,,97.91666667,,,,,,FBP-YG-19.png,0.45,1.2,30,0.5,,,,,,,,,,,,,0,44,44,29,1,,,,,,,,,,,,,,,,,,,,,,,,,,,,
,,,,,SPR24_093,19,Female,2024-04-25_13h57.36.599,jersey_experiment_5_v0,2023.2.2,Win32,59.88023952,,,,,,,,,,,,,,,,669.2555,670.5552,670.5552,671.7218,return,0.14,,98.828125,,,,,,FBP-PT-18.png,0.4,1.2,53,0.5,,,,,,,,,,,,,0,45,45,52,1,,,,,,,,,,,,,,,,,,,,,,,,,,,,
,,,,,SPR24_093,19,Female,2024-04-25_13h57.36.599,jersey_experiment_5_v0,2023.2.2,Win32,59.88023952,,,,,,,,,,,,,,,,671.7221,673.0217,673.0217,673.7717,return,0.1706,,98.69791667,,,,,,FBP-PT-17.png,0.4,1.2,48,0.5,,,,,,,,,,,,,0,46,46,47,1,,,,,,,,,,,,,,,,,,,,,,,,,,,,
,,,,,SPR24_093,19,Female,2024-04-25_13h57.36.599,jersey_experiment_5_v0,2023.2.2,Win32,59.88023952,,,,,,,,,,,,,,,,673.7719,674.8215,674.8215,675.688,return,0.0748,,74.609375,,,,,,FBP-RB-17.png,0.4,1.2,33,0.25,,,,,,,,,,,,,0,47,47,32,1,,,,,,,,,,,,,,,,,,,,,,,,,,,,
,,,,,SPR24_093,19,Female,2024-04-25_13h57.36.599,jersey_experiment_5_v0,2023.2.2,Win32,59.88023952,,,,,,,,,,,,,,,,675.6882,676.738,676.738,677.7714,return,0.172,,46.484375,,,,,,FBP-OG-71.png,0.35,1.2,1,0.25,,,,,,,,,,,,,0,48,48,0,1,,,,,,,,,,,,,,,,,,,,,,,,,,,,
,,,,,SPR24_093,19,Female,2024-04-25_13h57.36.599,jersey_experiment_5_v0,2023.2.2,Win32,59.88023952,,,,,,,,,,,,,,,,677.7715,679.0716,679.0716,680.9047,return,0.175,,99.86979167,,,,,,FBP-PT-18.png,0.43,1.2,54,0.5,,,,,,,,,,,,,0,49,49,53,1,,,,,,,,,,,,,,,,,,,,,,,,,,,,
,,,,,SPR24_093,19,Female,2024-04-25_13h57.36.599,jersey_experiment_5_v0,2023.2.2,Win32,59.88023952,,,,,,,,,,,,,,,,680.9049,682.2045,682.2045,682.9044,return,0.2088,,97.265625,,,,,,FBP-YG-17.png,0.43,1.2,19,0.5,,,,,,,,,,,,,0,50,50,18,1,,,,,,,,,,,,,,,,,,,,,,,,,,,,
,,,,,SPR24_093,19,Female,2024-04-25_13h57.36.599,jersey_experiment_5_v0,2023.2.2,Win32,59.88023952,,,,,,,,,,,,,,,,682.9047,684.2044,684.2044,684.621,return,0.1533,,97.265625,,,,,,FBP-YG-18.png,0.45,1.2,25,0.5,,,,,,,,,,,,,0,51,51,24,1,,,,,,,,,,,,,,,,,,,,,,,,,,,,
,,,,,SPR24_093,19,Female,2024-04-25_13h57.36.599,jersey_experiment_5_v0,2023.2.2,Win32,59.88023952,,,,,,,,,,,,,,,,684.6211,685.6708,685.6709,686.5374,return,0.1567,,98.95833333,,,,,,FBP-RB-19.png,0.4,1.2,43,0.25,,,,,,,,,,,,,0,52,52,42,1,,,,,,,,,,,,,,,,,,,,,,,,,,,,
,,,,,SPR24_093,19,Female,2024-04-25_13h57.36.599,jersey_experiment_5_v0,2023.2.2,Win32,59.88023952,,,,,,,,,,,,,,,,686.5376,687.8374,687.8374,689.2209,return,0.2314,,99.609375,,,,,,FBP-PT-18.png,0.45,1.2,55,0.5,,,,,,,,,,,,,0,53,53,54,1,,,,,,,,,,,,,,,,,,,,,,,,,,,,
,,,,,SPR24_093,19,Female,2024-04-25_13h57.36.599,jersey_experiment_5_v0,2023.2.2,Win32,59.88023952,,,,,,,,,,,,,,,,689.2213,690.2706,690.2706,691.1372,return,0.1667,,99.34895833,,,,,,FBP-OG-81.png,0.43,1.2,9,0.25,,,,,,,,,,,,,0,54,54,8,1,,,,,,,,,,,,,,,,,,,,,,,,,,,,
,,,,,SPR24_093,19,Female,2024-04-25_13h57.36.599,jersey_experiment_5_v0,2023.2.2,Win32,59.88023952,,,,,,,,,,,,,,,,691.1375,692.4372,692.4373,693.5038,return,0.067,,47.78645833,,,,,,FBP-PT-17.png,0.37,1.2,47,0.5,,,,,,,,,,,,,0,55,55,46,1,,,,,,,,,,,,,,,,,,,,,,,,,,,,
,,,,,SPR24_093,19,Female,2024-04-25_13h57.36.599,jersey_experiment_5_v0,2023.2.2,Win32,59.88023952,,,,,,,,,,,,,,,,693.504,694.5535,694.5535,695.6203,return,0.1167,,74.86979167,,,,,,FBP-RB-17.png,0.43,1.2,34,0.25,,,,,,,,,,,,,0,56,56,33,1,,,,,,,,,,,,,,,,,,,,,,,,,,,,
,,,,,SPR24_093,19,Female,2024-04-25_13h57.36.599,jersey_experiment_5_v0,2023.2.2,Win32,59.88023952,,,,,,,,,,,,,,,,695.6206,696.6702,696.6702,697.4868,return,0.0701,,48.046875,,,,,,FBP-OG-91.png,0.35,1.2,11,0.25,,,,,,,,,,,,,0,57,57,10,1,,,,,,,,,,,,,,,,,,,,,,,,,,,,
,,,,,SPR24_093,19,Female,2024-04-25_13h57.36.599,jersey_experiment_5_v0,2023.2.2,Win32,59.88023952,,,,,,,,,,,,,,,,697.4871,698.5367,698.5367,699.5867,return,0.0856,,74.73958333,,,,,,FBP-OG-71.png,0.4,1.2,3,0.25,,,,,,,,,,,,,0,58,58,2,1,,,,,,,,,,,,,,,,,,,,,,,,,,,,
,,,,,SPR24_093,19,Female,2024-04-25_13h57.36.599,jersey_experiment_5_v0,2023.2.2,Win32,59.88023952,,,,,,,,,,,,,,,,699.5868,700.8865,700.8866,701.853,return,0.1384,,98.56770833,,,,,,FBP-PT-17.png,0.45,1.2,50,0.5,,,,,,,,,,,,,0,59,59,49,1,,,,,,,,,,,,,,,,,,,,,,,,,,,,
,,,,,SPR24_093,19,Female,2024-04-25_13h57.36.599,jersey_experiment_5_v0,2023.2.2,Win32,59.88023952,,,,,,,,,,,,,,,,701.8548,703.1532,703.1532,704.0529,return,0.0446,,24.08854167,,,,,,FBP-YG-71.png,0.35,1.2,16,0.5,,,,,,,,,,,,,,,,,,0,0,0,15,1,,,,,,,,,,,,,,,,,,,,,,,
,,,,,SPR24_093,19,Female,2024-04-25_13h57.36.599,jersey_experiment_5_v0,2023.2.2,Win32,59.88023952,,,,,,,,,,,,,,,,704.0531,705.3531,705.3532,706.3027,return,0.1013,,74.609375,,,,,,FBP-PT-91.png,0.45,1.2,60,0.5,,,,,,,,,,,,,,,,,,0,1,1,59,1,,,,,,,,,,,,,,,,,,,,,,,
,,,,,SPR24_093,19,Female,2024-04-25_13h57.36.599,jersey_experiment_5_v0,2023.2.2,Win32,59.88023952,,,,,,,,,,,,,,,,706.3029,707.3528,707.3529,708.0027,return,0.0833,,74.21875,,,,,,FBP-OG-19.png,0.4,1.2,13,0.25,,,,,,,,,,,,,,,,,,0,2,2,12,1,,,,,,,,,,,,,,,,,,,,,,,
,,,,,SPR24_093,19,Female,2024-04-25_13h57.36.599,jersey_experiment_5_v0,2023.2.2,Win32,59.88023952,,,,,,,,,,,,,,,,708.0029,709.3026,709.3026,709.9859,return,0.0987,,98.046875,,,,,,FBP-PT-91.png,0.43,1.2,59,0.5,,,,,,,,,,,,,,,,,,0,3,3,58,1,,,,,,,,,,,,,,,,,,,,,,,
,,,,,SPR24_093,19,Female,2024-04-25_13h57.36.599,jersey_experiment_5_v0,2023.2.2,Win32,59.88023952,,,,,,,,,,,,,,,,709.9862,711.0357,711.0358,711.9692,return,0.0997,,99.73958333,,,,,,FBP-OG-19.png,0.43,1.2,14,0.25,,,,,,,,,,,,,,,,,,0,4,4,13,1,,,,,,,,,,,,,,,,,,,,,,,
,,,,,SPR24_093,19,Female,2024-04-25_13h57.36.599,jersey_experiment_5_v0,2023.2.2,Win32,59.88023952,,,,,,,,,,,,,,,,711.9694,713.2692,713.2692,714.1023,return,0.0937,,51.5625,,,,,,FBP-PT-71.png,0.35,1.2,46,0.5,,,,,,,,,,,,,,,,,,0,5,5,45,1,,,,,,,,,,,,,,,,,,,,,,,
,,,,,SPR24_093,19,Female,2024-04-25_13h57.36.599,jersey_experiment_5_v0,2023.2.2,Win32,59.88023952,,,,,,,,,,,,,,,,714.1026,715.4023,715.4023,716.4689,return,0.0665,,27.734375,,,,,,FBP-PT-91.png,0.35,1.2,56,0.5,,,,,,,,,,,,,,,,,,0,6,6,55,1,,,,,,,,,,,,,,,,,,,,,,,
,,,,,SPR24_093,19,Female,2024-04-25_13h57.36.599,jersey_experiment_5_v0,2023.2.2,Win32,59.88023952,,,,,,,,,,,,,,,,716.4691,717.5189,717.5189,718.7187,return,0.0522,,98.30729167,,,,,,FBP-RB-71.png,0.45,1.2,35,0.25,,,,,,,,,,,,,,,,,,0,7,7,34,1,,,,,,,,,,,,,,,,,,,,,,,
,,,,,SPR24_093,19,Female,2024-04-25_13h57.36.599,jersey_experiment_5_v0,2023.2.2,Win32,59.88023952,,,,,,,,,,,,,,,,718.7189,719.7686,719.7686,720.2852,return,0.0369,,97.91666667,,,,,,FBP-RB-91.png,0.43,1.2,44,0.25,,,,,,,,,,,,,,,,,,0,8,8,43,1,,,,,,,,,,,,,,,,,,,,,,,
,,,,,SPR24_093,19,Female,2024-04-25_13h57.36.599,jersey_experiment_5_v0,2023.2.2,Win32,59.88023952,,,,,,,,,,,,,,,,720.2854,721.5851,721.5851,722.0351,return,0.2001,,97.91666667,,,,,,FBP-PT-81.png,0.43,1.2,54,0.5,,,,,,,,,,,,,,,,,,0,9,9,53,1,,,,,,,,,,,,,,,,,,,,,,,
,,,,,SPR24_093,19,Female,2024-04-25_13h57.36.599,jersey_experiment_5_v0,2023.2.2,Win32,59.88023952,,,,,,,,,,,,,,,,722.0352,723.0849,723.0849,723.5684,return,0.0337,,97.91666667,,,,,,FBP-RB-91.png,0.45,1.2,45,0.25,,,,,,,,,,,,,,,,,,0,10,10,44,1,,,,,,,,,,,,,,,,,,,,,,,
,,,,,SPR24_093,19,Female,2024-04-25_13h57.36.599,jersey_experiment_5_v0,2023.2.2,Win32,59.88023952,,,,,,,,,,,,,,,,723.5686,724.6184,724.6184,726.0848,return,0.0451,,27.86458333,,,,,,FBP-OG-19.png,0.35,1.2,11,0.25,,,,,,,,,,,,,,,,,,0,11,11,10,1,,,,,,,,,,,,,,,,,,,,,,,
,,,,,SPR24_093,19,Female,2024-04-25_13h57.36.599,jersey_experiment_5_v0,2023.2.2,Win32,59.88023952,,,,,,,,,,,,,,,,726.0849,727.1346,727.1347,727.9846,return,0.1015,,23.69791667,,,,,,FBP-OG-18.png,0.35,1.2,6,0.25,,,,,,,,,,,,,,,,,,0,12,12,5,1,,,,,,,,,,,,,,,,,,,,,,,
,,,,,SPR24_093,19,Female,2024-04-25_13h57.36.599,jersey_experiment_5_v0,2023.2.2,Win32,59.88023952,,,,,,,,,,,,,,,,727.9848,729.0345,729.0345,731.201,return,0.1517,,99.73958333,,,,,,FBP-OG-17.png,0.43,1.2,4,0.25,,,,,,,,,,,,,,,,,,0,13,13,3,1,,,,,,,,,,,,,,,,,,,,,,,
,,,,,SPR24_093,19,Female,2024-04-25_13h57.36.599,jersey_experiment_5_v0,2023.2.2,Win32,59.88023952,,,,,,,,,,,,,,,,731.2013,732.2511,732.2511,733.9343,return,0.4519,,26.04166667,,,,,,FBP-OG-19.png,0.37,1.2,12,0.25,,,,,,,,,,,,,,,,,,0,14,14,11,1,,,,,,,,,,,,,,,,,,,,,,,
,,,,,SPR24_093,19,Female,2024-04-25_13h57.36.599,jersey_experiment_5_v0,2023.2.2,Win32,59.88023952,,,,,,,,,,,,,,,,733.9345,735.2342,735.2343,736.9674,return,0.7417,,74.609375,,,,,,FBP-PT-71.png,0.43,1.2,49,0.5,,,,,,,,,,,,,,,,,,0,15,15,48,1,,,,,,,,,,,,,,,,,,,,,,,
,,,,,SPR24_093,19,Female,2024-04-25_13h57.36.599,jersey_experiment_5_v0,2023.2.2,Win32,59.88023952,,,,,,,,,,,,,,,,736.9676,738.0172,738.0172,738.7671,return,0.1838,,74.609375,,,,,,FBP-OG-18.png,0.37,1.2,7,0.25,,,,,,,,,,,,,,,,,,0,16,16,6,1,,,,,,,,,,,,,,,,,,,,,,,
,,,,,SPR24_093,19,Female,2024-04-25_13h57.36.599,jersey_experiment_5_v0,2023.2.2,Win32,59.88023952,,,,,,,,,,,,,,,,738.7672,739.8172,739.8173,741.8339,return,0.2733,,98.56770833,,,,,,FBP-RB-81.png,0.4,1.2,38,0.25,,,,,,,,,,,,,,,,,,0,17,17,37,1,,,,,,,,,,,,,,,,,,,,,,,
,,,,,SPR24_093,19,Female,2024-04-25_13h57.36.599,jersey_experiment_5_v0,2023.2.2,Win32,59.88023952,,,,,,,,,,,,,,,,741.8342,742.8836,742.8836,746.7666,return,2.3014,,98.95833333,,,,,,FBP-RB-71.png,0.43,1.2,34,0.25,,,,,,,,,,,,,,,,,,0,18,18,33,1,,,,,,,,,,,,,,,,,,,,,,,
,,,,,SPR24_093,19,Female,2024-04-25_13h57.36.599,jersey_experiment_5_v0,2023.2.2,Win32,59.88023952,,,,,,,,,,,,,,,,746.7668,748.0666,748.0666,752.2663,return,1.0562,,77.21354167,,,,,,FBP-YG-71.png,0.4,1.2,18,0.5,,,,,,,,,,,,,,,,,,0,19,19,17,1,,,,,,,,,,,,,,,,,,,,,,,
,,,,,SPR24_093,19,Female,2024-04-25_13h57.36.599,jersey_experiment_5_v0,2023.2.2,Win32,59.88023952,,,,,,,,,,,,,,,,752.2665,753.3161,753.3162,757.3328,return,1.0828,,0.390625,,,,,,FBP-RB-81.png,0.35,1.2,36,0.25,,,,,,,,,,,,,,,,,,0,20,20,35,1,,,,,,,,,,,,,,,,,,,,,,,
,,,,,SPR24_093,19,Female,2024-04-25_13h57.36.599,jersey_experiment_5_v0,2023.2.2,Win32,59.88023952,,,,,,,,,,,,,,,,757.3329,758.6326,758.6327,760.6158,return,0.7916,,24.34895833,,,,,,FBP-PT-81.png,0.35,1.2,51,0.5,,,,,,,,,,,,,,,,,,0,21,21,50,1,,,,,,,,,,,,,,,,,,,,,,,
,,,,,SPR24_093,19,Female,2024-04-25_13h57.36.599,jersey_experiment_5_v0,2023.2.2,Win32,59.88023952,,,,,,,,,,,,,,,,760.616,761.6658,761.6658,763.199,return,0.5846,,99.08854167,,,,,,FBP-OG-18.png,0.45,1.2,10,0.25,,,,,,,,,,,,,,,,,,0,22,22,9,1,,,,,,,,,,,,,,,,,,,,,,,
,,,,,SPR24_093,19,Female,2024-04-25_13h57.36.599,jersey_experiment_5_v0,2023.2.2,Win32,59.88023952,,,,,,,,,,,,,,,,763.1992,764.4989,764.4989,766.882,return,0.5338,,98.828125,,,,,,FBP-PT-71.png,0.45,1.2,50,0.5,,,,,,,,,,,,,,,,,,0,23,23,49,1,,,,,,,,,,,,,,,,,,,,,,,
,,,,,SPR24_093,19,Female,2024-04-25_13h57.36.599,jersey_experiment_5_v0,2023.2.2,Win32,59.88023952,,,,,,,,,,,,,,,,766.8823,767.9322,767.9322,769.7319,return,0.483,,50.78125,,,,,,FBP-OG-17.png,0.4,1.2,3,0.25,,,,,,,,,,,,,,,,,,0,24,24,2,1,,,,,,,,,,,,,,,,,,,,,,,
,,,,,SPR24_093,19,Female,2024-04-25_13h57.36.599,jersey_experiment_5_v0,2023.2.2,Win32,59.88023952,,,,,,,,,,,,,,,,769.732,771.0317,771.0317,772.9484,return,1.2481,,52.34375,,,,,,FBP-PT-81.png,0.4,1.2,53,0.5,,,,,,,,,,,,,,,,,,0,25,25,52,1,,,,,,,,,,,,,,,,,,,,,,,
,,,,,SPR24_093,19,Female,2024-04-25_13h57.36.599,jersey_experiment_5_v0,2023.2.2,Win32,59.88023952,,,,,,,,,,,,,,,,772.9485,774.2482,774.2482,776.1814,return,0.7104,,23.56770833,,,,,,FBP-YG-81.png,0.35,1.2,21,0.5,,,,,,,,,,,,,,,,,,0,26,26,20,1,,,,,,,,,,,,,,,,,,,,,,,
,,,,,SPR24_093,19,Female,2024-04-25_13h57.36.599,jersey_experiment_5_v0,2023.2.2,Win32,59.88023952,,,,,,,,,,,,,,,,776.1817,777.2314,777.2315,779.3478,return,1.1676,,49.34895833,,,,,,FBP-RB-71.png,0.4,1.2,33,0.25,,,,,,,,,,,,,,,,,,0,27,27,32,1,,,,,,,,,,,,,,,,,,,,,,,
,,,,,SPR24_093,19,Female,2024-04-25_13h57.36.599,jersey_experiment_5_v0,2023.2.2,Win32,59.88023952,,,,,,,,,,,,,,,,779.3481,780.3979,780.3979,782.3143,return,0.6746,,49.34895833,,,,,,FBP-RB-71.png,0.35,1.2,31,0.25,,,,,,,,,,,,,,,,,,0,28,28,30,1,,,,,,,,,,,,,,,,,,,,,,,
,,,,,SPR24_093,19,Female,2024-04-25_13h57.36.599,jersey_experiment_5_v0,2023.2.2,Win32,59.88023952,,,,,,,,,,,,,,,,782.3145,783.6141,783.6142,786.5807,return,1.4124,,74.86979167,,,,,,FBP-YG-81.png,0.45,1.2,25,0.5,,,,,,,,,,,,,,,,,,0,29,29,24,1,,,,,,,,,,,,,,,,,,,,,,,
,,,,,SPR24_093,19,Female,2024-04-25_13h57.36.599,jersey_experiment_5_v0,2023.2.2,Win32,59.88023952,,,,,,,,,,,,,,,,786.5809,787.6308,787.6309,790.3804,return,0.9197,,75.65104167,,,,,,FBP-RB-91.png,0.4,1.2,43,0.25,,,,,,,,,,,,,,,,,,0,30,30,42,1,,,,,,,,,,,,,,,,,,,,,,,
,,,,,SPR24_093,19,Female,2024-04-25_13h57.36.599,jersey_experiment_5_v0,2023.2.2,Win32,59.88023952,,,,,,,,,,,,,,,,790.3806,791.6804,791.6805,794.6968,return,1.8428,,24.21875,,,,,,FBP-PT-71.png,0.37,1.2,47,0.5,,,,,,,,,,,,,,,,,,0,31,31,46,1,,,,,,,,,,,,,,,,,,,,,,,
,,,,,SPR24_093,19,Female,2024-04-25_13h57.36.599,jersey_experiment_5_v0,2023.2.2,Win32,59.88023952,,,,,,,,,,,,,,,,794.6971,795.7467,795.7467,797.2634,return,0.4495,,24.73958333,,,,,,FBP-RB-71.png,0.37,1.2,32,0.25,,,,,,,,,,,,,,,,,,0,32,32,31,1,,,,,,,,,,,,,,,,,,,,,,,
,,,,,SPR24_093,19,Female,2024-04-25_13h57.36.599,jersey_experiment_5_v0,2023.2.2,Win32,59.88023952,,,,,,,,,,,,,,,,797.2637,798.3132,798.3133,799.7298,return,0.45,,49.21875,,,,,,FBP-RB-91.png,0.37,1.2,42,0.25,,,,,,,,,,,,,,,,,,0,33,33,41,1,,,,,,,,,,,,,,,,,,,,,,,
,,,,,SPR24_093,19,Female,2024-04-25_13h57.36.599,jersey_experiment_5_v0,2023.2.2,Win32,59.88023952,,,,,,,,,,,,,,,,799.73,801.0297,801.0298,802.613,return,0.4642,,49.21875,,,,,,FBP-YG-91.png,0.37,1.2,27,0.5,,,,,,,,,,,,,,,,,,0,34,34,26,1,,,,,,,,,,,,,,,,,,,,,,,
,,,,,SPR24_093,19,Female,2024-04-25_13h57.36.599,jersey_experiment_5_v0,2023.2.2,Win32,59.88023952,,,,,,,,,,,,,,,,802.6132,803.913,803.913,805.6127,return,0.5038,,26.171875,,,,,,FBP-YG-91.png,0.35,1.2,26,0.5,,,,,,,,,,,,,,,,,,0,35,35,25,1,,,,,,,,,,,,,,,,,,,,,,,
,,,,,SPR24_093,19,Female,2024-04-25_13h57.36.599,jersey_experiment_5_v0,2023.2.2,Win32,59.88023952,,,,,,,,,,,,,,,,805.6129,806.6627,806.6627,808.4293,return,0.653,,73.95833333,,,,,,FBP-OG-18.png,0.43,1.2,9,0.25,,,,,,,,,,,,,,,,,,0,36,36,8,1,,,,,,,,,,,,,,,,,,,,,,,
,,,,,SPR24_093,19,Female,2024-04-25_13h57.36.599,jersey_experiment_5_v0,2023.2.2,Win32,59.88023952,,,,,,,,,,,,,,,,808.4295,809.7291,809.7292,810.9125,return,0.4342,,74.73958333,,,,,,FBP-YG-81.png,0.43,1.2,24,0.5,,,,,,,,,,,,,,,,,,0,37,37,23,1,,,,,,,,,,,,,,,,,,,,,,,
,,,,,SPR24_093,19,Female,2024-04-25_13h57.36.599,jersey_experiment_5_v0,2023.2.2,Win32,59.88023952,,,,,,,,,,,,,,,,810.9127,812.2122,812.2122,814.2289,return,1.3503,,50.91145833,,,,,,FBP-YG-91.png,0.4,1.2,28,0.5,,,,,,,,,,,,,,,,,,0,38,38,27,1,,,,,,,,,,,,,,,,,,,,,,,
,,,,,SPR24_093,19,Female,2024-04-25_13h57.36.599,jersey_experiment_5_v0,2023.2.2,Win32,59.88023952,,,,,,,,,,,,,,,,814.2291,815.5287,815.5287,816.462,return,0.3543,,50.390625,,,,,,FBP-YG-81.png,0.4,1.2,23,0.5,,,,,,,,,,,,,,,,,,0,39,39,22,1,,,,,,,,,,,,,,,,,,,,,,,
,,,,,SPR24_093,19,Female,2024-04-25_13h57.36.599,jersey_experiment_5_v0,2023.2.2,Win32,59.88023952,,,,,,,,,,,,,,,,816.4622,817.5119,817.512,819.1119,return,0.675,,74.34895833,,,,,,FBP-RB-81.png,0.43,1.2,39,0.25,,,,,,,,,,,,,,,,,,0,40,40,38,1,,,,,,,,,,,,,,,,,,,,,,,
,,,,,SPR24_093,19,Female,2024-04-25_13h57.36.599,jersey_experiment_5_v0,2023.2.2,Win32,59.88023952,,,,,,,,,,,,,,,,819.1121,820.1619,820.1619,822.2283,return,0.4791,,99.73958333,,,,,,FBP-OG-19.png,0.45,1.2,15,0.25,,,,,,,,,,,,,,,,,,0,41,41,14,1,,,,,,,,,,,,,,,,,,,,,,,
,,,,,SPR24_093,19,Female,2024-04-25_13h57.36.599,jersey_experiment_5_v0,2023.2.2,Win32,59.88023952,,,,,,,,,,,,,,,,822.2285,823.2782,823.2782,826.128,return,0.5167,,49.609375,,,,,,FBP-OG-18.png,0.4,1.2,8,0.25,,,,,,,,,,,,,,,,,,0,42,42,7,1,,,,,,,,,,,,,,,,,,,,,,,
,,,,,SPR24_093,19,Female,2024-04-25_13h57.36.599,jersey_experiment_5_v0,2023.2.2,Win32,59.88023952,,,,,,,,,,,,,,,,826.1282,827.428,827.428,829.5778,return,1.4567,,75.78125,,,,,,FBP-YG-91.png,0.45,1.2,30,0.5,,,,,,,,,,,,,,,,,,0,43,43,29,1,,,,,,,,,,,,,,,,,,,,,,,
,,,,,SPR24_093,19,Female,2024-04-25_13h57.36.599,jersey_experiment_5_v0,2023.2.2,Win32,59.88023952,,,,,,,,,,,,,,,,829.5781,830.8779,830.8779,832.2609,return,0.0465,,73.30729167,,,,,,FBP-PT-91.png,0.4,1.2,58,0.5,,,,,,,,,,,,,,,,,,0,44,44,57,1,,,,,,,,,,,,,,,,,,,,,,,
,,,,,SPR24_093,19,Female,2024-04-25_13h57.36.599,jersey_experiment_5_v0,2023.2.2,Win32,59.88023952,,,,,,,,,,,,,,,,832.2611,833.5607,833.5608,834.4609,return,0.0219,,99.34895833,,,,,,FBP-YG-91.png,0.43,1.2,29,0.5,,,,,,,,,,,,,,,,,,0,45,45,28,1,,,,,,,,,,,,,,,,,,,,,,,
,,,,,SPR24_093,19,Female,2024-04-25_13h57.36.599,jersey_experiment_5_v0,2023.2.2,Win32,59.88023952,,,,,,,,,,,,,,,,834.4611,835.7607,835.7608,836.4273,return,0.054,,73.4375,,,,,,FBP-PT-91.png,0.37,1.2,57,0.5,,,,,,,,,,,,,,,,,,0,46,46,56,1,,,,,,,,,,,,,,,,,,,,,,,
,,,,,SPR24_093,19,Female,2024-04-25_13h57.36.599,jersey_experiment_5_v0,2023.2.2,Win32,59.88023952,,,,,,,,,,,,,,,,836.4275,837.7274,837.7274,838.2606,return,0.2822,,73.4375,,,,,,FBP-PT-81.png,0.37,1.2,52,0.5,,,,,,,,,,,,,,,,,,0,47,47,51,1,,,,,,,,,,,,,,,,,,,,,,,
,,,,,SPR24_093,19,Female,2024-04-25_13h57.36.599,jersey_experiment_5_v0,2023.2.2,Win32,59.88023952,,,,,,,,,,,,,,,,838.2608,839.5606,839.5606,841.1604,return,0.8576,,48.95833333,,,,,,FBP-YG-71.png,0.37,1.2,17,0.5,,,,,,,,,,,,,,,,,,0,48,48,16,1,,,,,,,,,,,,,,,,,,,,,,,
,,,,,SPR24_093,19,Female,2024-04-25_13h57.36.599,jersey_experiment_5_v0,2023.2.2,Win32,59.88023952,,,,,,,,,,,,,,,,841.1606,842.2103,842.2103,843.7267,return,0.0342,,99.73958333,,,,,,FBP-RB-81.png,0.45,1.2,40,0.25,,,,,,,,,,,,,,,,,,0,49,49,39,1,,,,,,,,,,,,,,,,,,,,,,,
,,,,,SPR24_093,19,Female,2024-04-25_13h57.36.599,jersey_experiment_5_v0,2023.2.2,Win32,59.88023952,,,,,,,,,,,,,,,,843.7269,844.7767,844.7768,845.3099,return,0.0686,,99.609375,,,,,,FBP-OG-17.png,0.45,1.2,5,0.25,,,,,,,,,,,,,,,,,,0,50,50,4,1,,,,,,,,,,,,,,,,,,,,,,,
,,,,,SPR24_093,19,Female,2024-04-25_13h57.36.599,jersey_experiment_5_v0,2023.2.2,Win32,59.88023952,,,,,,,,,,,,,,,,845.3101,846.3599,846.3599,847.3432,return,0.0527,,72.265625,,,,,,FBP-OG-17.png,0.37,1.2,2,0.25,,,,,,,,,,,,,,,,,,0,51,51,1,1,,,,,,,,,,,,,,,,,,,,,,,
,,,,,SPR24_093,19,Female,2024-04-25_13h57.36.599,jersey_experiment_5_v0,2023.2.2,Win32,59.88023952,,,,,,,,,,,,,,,,847.3435,848.3932,848.3932,849.2263,return,0.2409,,72.265625,,,,,,FBP-RB-81.png,0.37,1.2,37,0.25,,,,,,,,,,,,,,,,,,0,52,52,36,1,,,,,,,,,,,,,,,,,,,,,,,
,,,,,SPR24_093,19,Female,2024-04-25_13h57.36.599,jersey_experiment_5_v0,2023.2.2,Win32,59.88023952,,,,,,,,,,,,,,,,849.2265,850.2764,850.2765,851.0929,return,0.1124,,72.265625,,,,,,FBP-OG-17.png,0.35,1.2,1,0.25,,,,,,,,,,,,,,,,,,0,53,53,0,1,,,,,,,,,,,,,,,,,,,,,,,
,,,,,SPR24_093,19,Female,2024-04-25_13h57.36.599,jersey_experiment_5_v0,2023.2.2,Win32,59.88023952,,,,,,,,,,,,,,,,851.0932,852.393,852.3931,852.8596,return,0.0539,,72.265625,,,,,,FBP-PT-71.png,0.4,1.2,48,0.5,,,,,,,,,,,,,,,,,,0,54,54,47,1,,,,,,,,,,,,,,,,,,,,,,,
,,,,,SPR24_093,19,Female,2024-04-25_13h57.36.599,jersey_experiment_5_v0,2023.2.2,Win32,59.88023952,,,,,,,,,,,,,,,,852.8599,854.1595,854.1595,855.0761,return,0.117,,98.56770833,,,,,,FBP-YG-71.png,0.45,1.2,20,0.5,,,,,,,,,,,,,,,,,,0,55,55,19,1,,,,,,,,,,,,,,,,,,,,,,,
,,,,,SPR24_093,19,Female,2024-04-25_13h57.36.599,jersey_experiment_5_v0,2023.2.2,Win32,59.88023952,,,,,,,,,,,,,,,,855.0764,856.376,856.376,857.0925,return,0.2501,,98.56770833,,,,,,FBP-YG-71.png,0.43,1.2,19,0.5,,,,,,,,,,,,,,,,,,0,56,56,18,1,,,,,,,,,,,,,,,,,,,,,,,
,,,,,SPR24_093,19,Female,2024-04-25_13h57.36.599,jersey_experiment_5_v0,2023.2.2,Win32,59.88023952,,,,,,,,,,,,,,,,857.0928,858.1424,858.1424,859.6425,return,0.173,,22.52604167,,,,,,FBP-RB-91.png,0.35,1.2,41,0.25,,,,,,,,,,,,,,,,,,0,57,57,40,1,,,,,,,,,,,,,,,,,,,,,,,
,,,,,SPR24_093,19,Female,2024-04-25_13h57.36.599,jersey_experiment_5_v0,2023.2.2,Win32,59.88023952,,,,,,,,,,,,,,,,859.6427,860.9423,860.9423,862.6256,return,0.0521,,49.08854167,,,,,,FBP-YG-81.png,0.37,1.2,22,0.5,,,,,,,,,,,,,,,,,,0,58,58,21,1,,,,,,,,,,,,,,,,,,,,,,,
,,,,,SPR24_093,19,Female,2024-04-25_13h57.36.599,jersey_experiment_5_v0,2023.2.2,Win32,59.88023952,,,,,,,,,,,,,,,,862.6257,863.9254,863.9254,865.0253,return,0.1672,,98.69791667,,,,,,FBP-PT-81.png,0.45,1.2,55,0.5,,,,,,,,,,,,,,,,,,0,59,59,54,1,,,,,,,,,,,,,,,,,,,,,,,
,,,,,SPR24_093,19,Female,2024-04-25_13h57.36.599,jersey_experiment_5_v0,2023.2.2,Win32,59.88023952,,,,,,,,,,,,,,,,,,,,,,,,,,,,,,,,,,,,,,,,,,,,,,,,,,,,,,,,865.0257,874.4418,return,9.4081,,,,,,,,,,,,,,,,,,,
,,,,,SPR24_093,19,Female,2024-04-25_13h57.36.599,jersey_experiment_5_v0,2023.2.2,Win32,59.88023952,,,,,,,,,,,,,,,,,,,,,,,,,,,,,,,,,,,,,,,,,,,,,,,,,,,,,,,,,,,,,874.442,882.5742,1,6.0215,return,2.0848,,,,,,,,,,,,
,,,,,SPR24_093,19,Female,2024-04-25_13h57.36.599,jersey_experiment_5_v0,2023.2.2,Win32,59.88023952,,,,,,,,,,,,,,,,,,,,,,,,,,,,,,,,,,,,,,,,,,,,,,,,,,,,,,,,,,,,,,,,,,,,882.5744,1051.5363,I can assume that this study is to test how well I can guess if the football player is slender or husky based on a short time frame. I did notice with the player i felt were very husky their images seemed to be on screen for a longer amount of time than the others. ,right,155.7302,,,,,,
,,,,,SPR24_093,19,Female,2024-04-25_13h57.36.599,jersey_experiment_5_v0,2023.2.2,Win32,59.88023952,,,,,,,,,,,,,,,,,,,,,,,,,,,,,,,,,,,,,,,,,,,,,,,,,,,,,,,,,,,,,,,,,,,,,,,,,,1051.5364,1056.8126,return,5.2635,