requirements.started,requirements.stopped,key_resp_3.keys,key_resp_3.rt,key_resp_3.duration,Subject ID,Age,Gender,date,expName,psychopyVersion,OS,frameRate,instructions1.started,instructions1.stopped,key_resp.keys,key_resp.rt,key_resp.duration,example.started,example.stopped,enter_2.keys,enter_2.rt,enter_2.duration,instructions2.started,instructions2.stopped,enter_3.keys,enter_3.rt,enter_3.duration,image.started,image.stopped,slider_2.started,slider_2.stopped,next.keys,next.rt,next.duration,slider.response,trial_block_1.thisRepN,trial_block_1.thisTrialN,trial_block_1.thisN,trial_block_1.thisIndex,trial_block_1.ran,Path,Width,Height,Index,Duration,trial_block_2.thisRepN,trial_block_2.thisTrialN,trial_block_2.thisN,trial_block_2.thisIndex,trial_block_2.ran,rest_break.started,rest_break.stopped,end_break.started,end_break.stopped,key_resp_5.keys,key_resp_5.rt,key_resp_5.duration,trial_block_3.thisRepN,trial_block_3.thisTrialN,trial_block_3.thisN,trial_block_3.thisIndex,trial_block_3.ran,trial_block_4.thisRepN,trial_block_4.thisTrialN,trial_block_4.thisN,trial_block_4.thisIndex,trial_block_4.ran,questions_intro.started,questions_intro.stopped,enter_12.keys,enter_12.rt,enter_12.duration,question2.started,question2.stopped,question_doingbest.response,question_doingbest.rt,enter_15.keys,enter_15.rt,enter_15.duration,pattern.started,pattern.stopped,pattern_2.text,enter_17.keys,enter_17.rt,enter_17.duration,thankyou.started,thankyou.stopped,enter_14.keys,enter_14.rt,enter_14.duration
0.0002,16.8479,return,16.8428,,SPR24_083,21,Female,2024-04-23_17h02.36.442,jersey_experiment_5_v0,2023.2.2,Win32,84.74576271,,,,,,,,,,,,,,,,,,,,,,,,,,,,,,,,,,,,,,,,,,,,,,,,,,,,,,,,,,,,,,,,,,,,,,,,,,,,,,
,,,,,SPR24_083,21,Female,2024-04-23_17h02.36.442,jersey_experiment_5_v0,2023.2.2,Win32,84.74576271,16.8479,70.3175,return,53.4625,,,,,,,,,,,,,,,,,,,,,,,,,,,,,,,,,,,,,,,,,,,,,,,,,,,,,,,,,,,,,,,,,,,,,,,,,,
,,,,,SPR24_083,21,Female,2024-04-23_17h02.36.442,jersey_experiment_5_v0,2023.2.2,Win32,84.74576271,,,,,,70.3175,77.3296,return,6.9774,,,,,,,,,,,,,,,,,,,,,,,,,,,,,,,,,,,,,,,,,,,,,,,,,,,,,,,,,,,,,,,,,,,,,
,,,,,SPR24_083,21,Female,2024-04-23_17h02.36.442,jersey_experiment_5_v0,2023.2.2,Win32,84.74576271,,,,,,,,,,,77.3297,127.9312,return,50.5963,,,,,,,,,,,,,,,,,,,,,,,,,,,,,,,,,,,,,,,,,,,,,,,,,,,,,,,,,,,,,,,,
,,,,,SPR24_083,21,Female,2024-04-23_17h02.36.442,jersey_experiment_5_v0,2023.2.2,Win32,84.74576271,,,,,,,,,,,,,,,,127.9382,129.2368,129.237,151.4261,return,5.0134,,49.73958333,0,0,0,2,1,FBP-OG-71.png,0.4,1.2,3,0.5,,,,,,,,,,,,,,,,,,,,,,,,,,,,,,,,,,,,,,,,,,,,,
,,,,,SPR24_083,21,Female,2024-04-23_17h02.36.442,jersey_experiment_5_v0,2023.2.2,Win32,84.74576271,,,,,,,,,,,,,,,,151.4306,152.473,152.473,156.3083,return,1.4251,,25.26041667,0,1,1,55,1,FBP-PT-19.png,0.35,1.2,56,0.25,,,,,,,,,,,,,,,,,,,,,,,,,,,,,,,,,,,,,,,,,,,,,
,,,,,SPR24_083,21,Female,2024-04-23_17h02.36.442,jersey_experiment_5_v0,2023.2.2,Win32,84.74576271,,,,,,,,,,,,,,,,156.3086,157.3554,157.3555,161.3556,return,1.3258,,74.609375,0,2,2,28,1,FBP-YG-19.png,0.43,1.2,29,0.25,,,,,,,,,,,,,,,,,,,,,,,,,,,,,,,,,,,,,,,,,,,,,
,,,,,SPR24_083,21,Female,2024-04-23_17h02.36.442,jersey_experiment_5_v0,2023.2.2,Win32,84.74576271,,,,,,,,,,,,,,,,161.3558,162.4027,162.4028,166.544,return,1.1773,,74.73958333,0,3,3,18,1,FBP-YG-17.png,0.43,1.2,19,0.25,,,,,,,,,,,,,,,,,,,,,,,,,,,,,,,,,,,,,,,,,,,,,
,,,,,SPR24_083,21,Female,2024-04-23_17h02.36.442,jersey_experiment_5_v0,2023.2.2,Win32,84.74576271,,,,,,,,,,,,,,,,166.5442,167.8382,167.8382,171.3442,return,1.0501,,25.13020833,0,4,4,0,1,FBP-OG-71.png,0.35,1.2,1,0.5,,,,,,,,,,,,,,,,,,,,,,,,,,,,,,,,,,,,,,,,,,,,,
,,,,,SPR24_083,21,Female,2024-04-23_17h02.36.442,jersey_experiment_5_v0,2023.2.2,Win32,84.74576271,,,,,,,,,,,,,,,,171.3445,172.3913,172.3913,175.6266,return,1.6439,,25.26041667,0,5,5,16,1,FBP-YG-17.png,0.37,1.2,17,0.25,,,,,,,,,,,,,,,,,,,,,,,,,,,,,,,,,,,,,,,,,,,,,
,,,,,SPR24_083,21,Female,2024-04-23_17h02.36.442,jersey_experiment_5_v0,2023.2.2,Win32,84.74576271,,,,,,,,,,,,,,,,175.6268,176.9207,176.9208,180.8504,return,2.0602,,74.34895833,0,6,6,3,1,FBP-OG-71.png,0.43,1.2,4,0.5,,,,,,,,,,,,,,,,,,,,,,,,,,,,,,,,,,,,,,,,,,,,,
,,,,,SPR24_083,21,Female,2024-04-23_17h02.36.442,jersey_experiment_5_v0,2023.2.2,Win32,84.74576271,,,,,,,,,,,,,,,,180.8506,182.1445,182.1445,187.0742,return,1.6826,,74.86979167,0,7,7,34,1,FBP-RB-17.png,0.45,1.2,35,0.5,,,,,,,,,,,,,,,,,,,,,,,,,,,,,,,,,,,,,,,,,,,,,
,,,,,SPR24_083,21,Female,2024-04-23_17h02.36.442,jersey_experiment_5_v0,2023.2.2,Win32,84.74576271,,,,,,,,,,,,,,,,187.0744,188.1212,188.1212,191.9331,return,2.6395,,74.86979167,0,8,8,29,1,FBP-YG-19.png,0.45,1.2,30,0.25,,,,,,,,,,,,,,,,,,,,,,,,,,,,,,,,,,,,,,,,,,,,,
,,,,,SPR24_083,21,Female,2024-04-23_17h02.36.442,jersey_experiment_5_v0,2023.2.2,Win32,84.74576271,,,,,,,,,,,,,,,,191.9376,193.239,193.239,196.9333,return,1.7415,,25.65104167,0,9,9,41,1,FBP-RB-19.png,0.37,1.2,42,0.5,,,,,,,,,,,,,,,,,,,,,,,,,,,,,,,,,,,,,,,,,,,,,
,,,,,SPR24_083,21,Female,2024-04-23_17h02.36.442,jersey_experiment_5_v0,2023.2.2,Win32,84.74576271,,,,,,,,,,,,,,,,196.9336,198.2272,198.2273,201.6981,return,1.4254,,50.13020833,0,10,10,42,1,FBP-RB-19.png,0.4,1.2,43,0.5,,,,,,,,,,,,,,,,,,,,,,,,,,,,,,,,,,,,,,,,,,,,,
,,,,,SPR24_083,21,Female,2024-04-23_17h02.36.442,jersey_experiment_5_v0,2023.2.2,Win32,84.74576271,,,,,,,,,,,,,,,,201.6984,202.7453,202.7453,206.8276,return,1.418,,74.73958333,0,11,11,19,1,FBP-YG-17.png,0.45,1.2,20,0.25,,,,,,,,,,,,,,,,,,,,,,,,,,,,,,,,,,,,,,,,,,,,,
,,,,,SPR24_083,21,Female,2024-04-23_17h02.36.442,jersey_experiment_5_v0,2023.2.2,Win32,84.74576271,,,,,,,,,,,,,,,,206.8278,207.8747,207.8748,211.0514,return,1.3492,,49.73958333,0,12,12,17,1,FBP-YG-17.png,0.4,1.2,18,0.25,,,,,,,,,,,,,,,,,,,,,,,,,,,,,,,,,,,,,,,,,,,,,
,,,,,SPR24_083,21,Female,2024-04-23_17h02.36.442,jersey_experiment_5_v0,2023.2.2,Win32,84.74576271,,,,,,,,,,,,,,,,211.0516,212.0984,212.0985,214.4163,return,1.1794,,49.34895833,0,13,13,27,1,FBP-YG-19.png,0.4,1.2,28,0.25,,,,,,,,,,,,,,,,,,,,,,,,,,,,,,,,,,,,,,,,,,,,,
,,,,,SPR24_083,21,Female,2024-04-23_17h02.36.442,jersey_experiment_5_v0,2023.2.2,Win32,84.74576271,,,,,,,,,,,,,,,,214.4165,215.4632,215.4632,218.7812,return,1.5581,,74.609375,0,14,14,59,1,FBP-PT-19.png,0.45,1.2,60,0.25,,,,,,,,,,,,,,,,,,,,,,,,,,,,,,,,,,,,,,,,,,,,,
,,,,,SPR24_083,21,Female,2024-04-23_17h02.36.442,jersey_experiment_5_v0,2023.2.2,Win32,84.74576271,,,,,,,,,,,,,,,,218.7815,220.0752,220.0753,222.8519,return,1.2846,,74.609375,0,15,15,14,1,FBP-OG-91.png,0.45,1.2,15,0.5,,,,,,,,,,,,,,,,,,,,,,,,,,,,,,,,,,,,,,,,,,,,,
,,,,,SPR24_083,21,Female,2024-04-23_17h02.36.442,jersey_experiment_5_v0,2023.2.2,Win32,84.74576271,,,,,,,,,,,,,,,,222.8522,223.8989,223.8989,227.3932,return,1.6,,49.73958333,0,16,16,47,1,FBP-PT-17.png,0.4,1.2,48,0.25,,,,,,,,,,,,,,,,,,,,,,,,,,,,,,,,,,,,,,,,,,,,,
,,,,,SPR24_083,21,Female,2024-04-23_17h02.36.442,jersey_experiment_5_v0,2023.2.2,Win32,84.74576271,,,,,,,,,,,,,,,,227.3935,228.4402,228.4403,236.4289,return,5.2046,,21.22395833,0,17,17,15,1,FBP-YG-17.png,0.35,1.2,16,0.25,,,,,,,,,,,,,,,,,,,,,,,,,,,,,,,,,,,,,,,,,,,,,
,,,,,SPR24_083,21,Female,2024-04-23_17h02.36.442,jersey_experiment_5_v0,2023.2.2,Win32,84.74576271,,,,,,,,,,,,,,,,236.4291,237.4758,237.4758,243.0409,return,3.2481,,76.953125,0,18,18,49,1,FBP-PT-17.png,0.45,1.2,50,0.25,,,,,,,,,,,,,,,,,,,,,,,,,,,,,,,,,,,,,,,,,,,,,
,,,,,SPR24_083,21,Female,2024-04-23_17h02.36.442,jersey_experiment_5_v0,2023.2.2,Win32,84.74576271,,,,,,,,,,,,,,,,243.041,244.3348,244.3349,248.8764,return,2.5464,,19.27083333,0,19,19,6,1,FBP-OG-81.png,0.37,1.2,7,0.5,,,,,,,,,,,,,,,,,,,,,,,,,,,,,,,,,,,,,,,,,,,,,
,,,,,SPR24_083,21,Female,2024-04-23_17h02.36.442,jersey_experiment_5_v0,2023.2.2,Win32,84.74576271,,,,,,,,,,,,,,,,248.8766,250.1704,250.1705,256.8176,return,3.7286,,20.18229167,0,20,20,1,1,FBP-OG-71.png,0.37,1.2,2,0.5,,,,,,,,,,,,,,,,,,,,,,,,,,,,,,,,,,,,,,,,,,,,,
,,,,,SPR24_083,21,Female,2024-04-23_17h02.36.442,jersey_experiment_5_v0,2023.2.2,Win32,84.74576271,,,,,,,,,,,,,,,,256.8179,257.8648,257.8648,261.0885,return,1.5911,,16.27604167,0,21,21,20,1,FBP-YG-18.png,0.35,1.2,21,0.25,,,,,,,,,,,,,,,,,,,,,,,,,,,,,,,,,,,,,,,,,,,,,
,,,,,SPR24_083,21,Female,2024-04-23_17h02.36.442,jersey_experiment_5_v0,2023.2.2,Win32,84.74576271,,,,,,,,,,,,,,,,261.0887,262.3825,262.3826,269.4064,return,5.0171,,49.86979167,0,22,22,37,1,FBP-RB-18.png,0.4,1.2,38,0.5,,,,,,,,,,,,,,,,,,,,,,,,,,,,,,,,,,,,,,,,,,,,,
,,,,,SPR24_083,21,Female,2024-04-23_17h02.36.442,jersey_experiment_5_v0,2023.2.2,Win32,84.74576271,,,,,,,,,,,,,,,,269.4066,270.7006,270.7006,275.2654,return,1.2593,,13.80208333,0,23,23,10,1,FBP-OG-91.png,0.35,1.2,11,0.5,,,,,,,,,,,,,,,,,,,,,,,,,,,,,,,,,,,,,,,,,,,,,
,,,,,SPR24_083,21,Female,2024-04-23_17h02.36.442,jersey_experiment_5_v0,2023.2.2,Win32,84.74576271,,,,,,,,,,,,,,,,275.2656,276.3125,276.3125,280.2185,return,1.7959,,15.10416667,0,24,24,46,1,FBP-PT-17.png,0.37,1.2,47,0.25,,,,,,,,,,,,,,,,,,,,,,,,,,,,,,,,,,,,,,,,,,,,,
,,,,,SPR24_083,21,Female,2024-04-23_17h02.36.442,jersey_experiment_5_v0,2023.2.2,Win32,84.74576271,,,,,,,,,,,,,,,,280.2187,281.2656,281.2657,284.748,return,1.5233,,74.86979167,0,25,25,58,1,FBP-PT-19.png,0.43,1.2,59,0.25,,,,,,,,,,,,,,,,,,,,,,,,,,,,,,,,,,,,,,,,,,,,,
,,,,,SPR24_083,21,Female,2024-04-23_17h02.36.442,jersey_experiment_5_v0,2023.2.2,Win32,84.74576271,,,,,,,,,,,,,,,,284.7483,285.7952,285.7953,288.513,return,1.3539,,74.86979167,0,26,26,48,1,FBP-PT-17.png,0.43,1.2,49,0.25,,,,,,,,,,,,,,,,,,,,,,,,,,,,,,,,,,,,,,,,,,,,,
,,,,,SPR24_083,21,Female,2024-04-23_17h02.36.442,jersey_experiment_5_v0,2023.2.2,Win32,84.74576271,,,,,,,,,,,,,,,,288.5131,289.807,289.8071,294.0779,return,1.2512,,56.11979167,0,27,27,7,1,FBP-OG-81.png,0.4,1.2,8,0.5,,,,,,,,,,,,,,,,,,,,,,,,,,,,,,,,,,,,,,,,,,,,,
,,,,,SPR24_083,21,Female,2024-04-23_17h02.36.442,jersey_experiment_5_v0,2023.2.2,Win32,84.74576271,,,,,,,,,,,,,,,,294.0782,295.125,295.125,298.2781,return,2.0706,,56.11979167,0,28,28,52,1,FBP-PT-18.png,0.4,1.2,53,0.25,,,,,,,,,,,,,,,,,,,,,,,,,,,,,,,,,,,,,,,,,,,,,
,,,,,SPR24_083,21,Female,2024-04-23_17h02.36.442,jersey_experiment_5_v0,2023.2.2,Win32,84.74576271,,,,,,,,,,,,,,,,298.2783,299.3251,299.3251,303.9018,return,2.429,,57.421875,0,29,29,23,1,FBP-YG-18.png,0.43,1.2,24,0.25,,,,,,,,,,,,,,,,,,,,,,,,,,,,,,,,,,,,,,,,,,,,,
,,,,,SPR24_083,21,Female,2024-04-23_17h02.36.442,jersey_experiment_5_v0,2023.2.2,Win32,84.74576271,,,,,,,,,,,,,,,,303.9062,304.9488,304.9489,309.2314,return,1.1789,,53.90625,0,30,30,57,1,FBP-PT-19.png,0.4,1.2,58,0.25,,,,,,,,,,,,,,,,,,,,,,,,,,,,,,,,,,,,,,,,,,,,,
,,,,,SPR24_083,21,Female,2024-04-23_17h02.36.442,jersey_experiment_5_v0,2023.2.2,Win32,84.74576271,,,,,,,,,,,,,,,,309.2316,310.5255,310.5255,314.4786,return,1.3106,,22.39583333,0,31,31,30,1,FBP-RB-17.png,0.35,1.2,31,0.5,,,,,,,,,,,,,,,,,,,,,,,,,,,,,,,,,,,,,,,,,,,,,
,,,,,SPR24_083,21,Female,2024-04-23_17h02.36.442,jersey_experiment_5_v0,2023.2.2,Win32,84.74576271,,,,,,,,,,,,,,,,314.4789,315.7727,315.7728,319.8436,return,1.5664,,70.96354167,0,32,32,43,1,FBP-RB-19.png,0.43,1.2,44,0.5,,,,,,,,,,,,,,,,,,,,,,,,,,,,,,,,,,,,,,,,,,,,,
,,,,,SPR24_083,21,Female,2024-04-23_17h02.36.442,jersey_experiment_5_v0,2023.2.2,Win32,84.74576271,,,,,,,,,,,,,,,,319.8438,320.8905,320.8906,323.7612,return,0.8489,,49.86979167,0,33,33,51,1,FBP-PT-18.png,0.37,1.2,52,0.25,,,,,,,,,,,,,,,,,,,,,,,,,,,,,,,,,,,,,,,,,,,,,
,,,,,SPR24_083,21,Female,2024-04-23_17h02.36.442,jersey_experiment_5_v0,2023.2.2,Win32,84.74576271,,,,,,,,,,,,,,,,323.7614,324.8083,324.8084,330.3732,return,3.1633,,76.5625,0,34,34,24,1,FBP-YG-18.png,0.45,1.2,25,0.25,,,,,,,,,,,,,,,,,,,,,,,,,,,,,,,,,,,,,,,,,,,,,
,,,,,SPR24_083,21,Female,2024-04-23_17h02.36.442,jersey_experiment_5_v0,2023.2.2,Win32,84.74576271,,,,,,,,,,,,,,,,330.3734,331.6674,331.6674,334.1734,return,0.9452,,74.86979167,0,35,35,44,1,FBP-RB-19.png,0.45,1.2,45,0.5,,,,,,,,,,,,,,,,,,,,,,,,,,,,,,,,,,,,,,,,,,,,,
,,,,,SPR24_083,21,Female,2024-04-23_17h02.36.442,jersey_experiment_5_v0,2023.2.2,Win32,84.74576271,,,,,,,,,,,,,,,,334.1737,335.4676,335.4676,338.0442,return,1.4999,,73.95833333,0,36,36,4,1,FBP-OG-71.png,0.45,1.2,5,0.5,,,,,,,,,,,,,,,,,,,,,,,,,,,,,,,,,,,,,,,,,,,,,
,,,,,SPR24_083,21,Female,2024-04-23_17h02.36.442,jersey_experiment_5_v0,2023.2.2,Win32,84.74576271,,,,,,,,,,,,,,,,338.0444,339.3382,339.3383,345.1738,return,2.9987,,69.27083333,0,37,37,32,1,FBP-RB-17.png,0.4,1.2,33,0.5,,,,,,,,,,,,,,,,,,,,,,,,,,,,,,,,,,,,,,,,,,,,,
,,,,,SPR24_083,21,Female,2024-04-23_17h02.36.442,jersey_experiment_5_v0,2023.2.2,Win32,84.74576271,,,,,,,,,,,,,,,,345.174,346.2208,346.2209,350.7389,return,2.2953,,21.74479167,0,38,38,21,1,FBP-YG-18.png,0.37,1.2,22,0.25,,,,,,,,,,,,,,,,,,,,,,,,,,,,,,,,,,,,,,,,,,,,,
,,,,,SPR24_083,21,Female,2024-04-23_17h02.36.442,jersey_experiment_5_v0,2023.2.2,Win32,84.74576271,,,,,,,,,,,,,,,,350.7391,351.7858,351.7858,356.8919,return,2.465,,13.02083333,0,39,39,45,1,FBP-PT-17.png,0.35,1.2,46,0.25,,,,,,,,,,,,,,,,,,,,,,,,,,,,,,,,,,,,,,,,,,,,,
,,,,,SPR24_083,21,Female,2024-04-23_17h02.36.442,jersey_experiment_5_v0,2023.2.2,Win32,84.74576271,,,,,,,,,,,,,,,,356.8922,358.186,358.186,364.3979,return,4.4997,,61.328125,0,40,40,33,1,FBP-RB-17.png,0.43,1.2,34,0.5,,,,,,,,,,,,,,,,,,,,,,,,,,,,,,,,,,,,,,,,,,,,,
,,,,,SPR24_083,21,Female,2024-04-23_17h02.36.442,jersey_experiment_5_v0,2023.2.2,Win32,84.74576271,,,,,,,,,,,,,,,,364.3981,365.4451,365.4451,368.9394,return,1.8898,,43.48958333,0,41,41,56,1,FBP-PT-19.png,0.37,1.2,57,0.25,,,,,,,,,,,,,,,,,,,,,,,,,,,,,,,,,,,,,,,,,,,,,
,,,,,SPR24_083,21,Female,2024-04-23_17h02.36.442,jersey_experiment_5_v0,2023.2.2,Win32,84.74576271,,,,,,,,,,,,,,,,368.9396,370.2334,370.2334,373.1159,return,1.3367,,57.16145833,0,42,42,38,1,FBP-RB-18.png,0.43,1.2,39,0.5,,,,,,,,,,,,,,,,,,,,,,,,,,,,,,,,,,,,,,,,,,,,,
,,,,,SPR24_083,21,Female,2024-04-23_17h02.36.442,jersey_experiment_5_v0,2023.2.2,Win32,84.74576271,,,,,,,,,,,,,,,,373.116,374.4101,374.4101,381.1633,return,5.5834,,61.71875,0,43,43,13,1,FBP-OG-91.png,0.43,1.2,14,0.5,,,,,,,,,,,,,,,,,,,,,,,,,,,,,,,,,,,,,,,,,,,,,
,,,,,SPR24_083,21,Female,2024-04-23_17h02.36.442,jersey_experiment_5_v0,2023.2.2,Win32,84.74576271,,,,,,,,,,,,,,,,381.1635,382.2103,382.2104,385.9165,return,1.6994,,12.63020833,0,44,44,25,1,FBP-YG-19.png,0.35,1.2,26,0.25,,,,,,,,,,,,,,,,,,,,,,,,,,,,,,,,,,,,,,,,,,,,,
,,,,,SPR24_083,21,Female,2024-04-23_17h02.36.442,jersey_experiment_5_v0,2023.2.2,Win32,84.74576271,,,,,,,,,,,,,,,,385.9166,387.2105,387.2106,390.1871,return,0.8411,,53.515625,0,45,45,12,1,FBP-OG-91.png,0.4,1.2,13,0.5,,,,,,,,,,,,,,,,,,,,,,,,,,,,,,,,,,,,,,,,,,,,,
,,,,,SPR24_083,21,Female,2024-04-23_17h02.36.442,jersey_experiment_5_v0,2023.2.2,Win32,84.74576271,,,,,,,,,,,,,,,,390.1874,391.2341,391.2341,398.8933,return,5.6393,,55.33854167,0,46,46,22,1,FBP-YG-18.png,0.4,1.2,23,0.25,,,,,,,,,,,,,,,,,,,,,,,,,,,,,,,,,,,,,,,,,,,,,
,,,,,SPR24_083,21,Female,2024-04-23_17h02.36.442,jersey_experiment_5_v0,2023.2.2,Win32,84.74576271,,,,,,,,,,,,,,,,398.8935,400.1873,400.1873,405.6818,return,2.2592,,25,0,47,47,36,1,FBP-RB-18.png,0.37,1.2,37,0.5,,,,,,,,,,,,,,,,,,,,,,,,,,,,,,,,,,,,,,,,,,,,,
,,,,,SPR24_083,21,Female,2024-04-23_17h02.36.442,jersey_experiment_5_v0,2023.2.2,Win32,84.74576271,,,,,,,,,,,,,,,,405.682,406.976,406.976,409.7407,return,1.0516,,24.73958333,0,48,48,31,1,FBP-RB-17.png,0.37,1.2,32,0.5,,,,,,,,,,,,,,,,,,,,,,,,,,,,,,,,,,,,,,,,,,,,,
,,,,,SPR24_083,21,Female,2024-04-23_17h02.36.442,jersey_experiment_5_v0,2023.2.2,Win32,84.74576271,,,,,,,,,,,,,,,,409.741,411.0347,411.0348,416.0586,return,3.0319,,73.95833333,0,49,49,39,1,FBP-RB-18.png,0.45,1.2,40,0.5,,,,,,,,,,,,,,,,,,,,,,,,,,,,,,,,,,,,,,,,,,,,,
,,,,,SPR24_083,21,Female,2024-04-23_17h02.36.442,jersey_experiment_5_v0,2023.2.2,Win32,84.74576271,,,,,,,,,,,,,,,,416.0588,417.3527,417.3528,421.8235,return,1.8977,,27.21354167,0,50,50,35,1,FBP-RB-18.png,0.35,1.2,36,0.5,,,,,,,,,,,,,,,,,,,,,,,,,,,,,,,,,,,,,,,,,,,,,
,,,,,SPR24_083,21,Female,2024-04-23_17h02.36.442,jersey_experiment_5_v0,2023.2.2,Win32,84.74576271,,,,,,,,,,,,,,,,421.8238,423.1176,423.1176,429.2827,return,2.626,,27.21354167,0,51,51,11,1,FBP-OG-91.png,0.37,1.2,12,0.5,,,,,,,,,,,,,,,,,,,,,,,,,,,,,,,,,,,,,,,,,,,,,
,,,,,SPR24_083,21,Female,2024-04-23_17h02.36.442,jersey_experiment_5_v0,2023.2.2,Win32,84.74576271,,,,,,,,,,,,,,,,429.2829,430.3296,430.3296,434.4122,return,2.7479,,20.96354167,0,52,52,50,1,FBP-PT-18.png,0.35,1.2,51,0.25,,,,,,,,,,,,,,,,,,,,,,,,,,,,,,,,,,,,,,,,,,,,,
,,,,,SPR24_083,21,Female,2024-04-23_17h02.36.442,jersey_experiment_5_v0,2023.2.2,Win32,84.74576271,,,,,,,,,,,,,,,,434.4125,435.7064,435.7064,441.2361,return,4.3193,,22.65625,0,53,53,40,1,FBP-RB-19.png,0.35,1.2,41,0.5,,,,,,,,,,,,,,,,,,,,,,,,,,,,,,,,,,,,,,,,,,,,,
,,,,,SPR24_083,21,Female,2024-04-23_17h02.36.442,jersey_experiment_5_v0,2023.2.2,Win32,84.74576271,,,,,,,,,,,,,,,,441.2363,442.283,442.283,445.7303,return,0.8699,,49.86979167,0,54,54,26,1,FBP-YG-19.png,0.37,1.2,27,0.25,,,,,,,,,,,,,,,,,,,,,,,,,,,,,,,,,,,,,,,,,,,,,
,,,,,SPR24_083,21,Female,2024-04-23_17h02.36.442,jersey_experiment_5_v0,2023.2.2,Win32,84.74576271,,,,,,,,,,,,,,,,445.7306,447.0244,447.0244,449.2952,return,0.9313,,48.30729167,0,55,55,5,1,FBP-OG-81.png,0.35,1.2,6,0.5,,,,,,,,,,,,,,,,,,,,,,,,,,,,,,,,,,,,,,,,,,,,,
,,,,,SPR24_083,21,Female,2024-04-23_17h02.36.442,jersey_experiment_5_v0,2023.2.2,Win32,84.74576271,,,,,,,,,,,,,,,,449.2954,450.5892,450.5892,453.0365,return,0.7697,,75.13020833,0,56,56,9,1,FBP-OG-81.png,0.45,1.2,10,0.5,,,,,,,,,,,,,,,,,,,,,,,,,,,,,,,,,,,,,,,,,,,,,
,,,,,SPR24_083,21,Female,2024-04-23_17h02.36.442,jersey_experiment_5_v0,2023.2.2,Win32,84.74576271,,,,,,,,,,,,,,,,453.0368,454.0836,454.0836,457.5306,return,2.1355,,75.52083333,0,57,57,53,1,FBP-PT-18.png,0.43,1.2,54,0.25,,,,,,,,,,,,,,,,,,,,,,,,,,,,,,,,,,,,,,,,,,,,,
,,,,,SPR24_083,21,Female,2024-04-23_17h02.36.442,jersey_experiment_5_v0,2023.2.2,Win32,84.74576271,,,,,,,,,,,,,,,,457.5308,458.5777,458.5777,462.4955,return,3.1092,,76.04166667,0,58,58,54,1,FBP-PT-18.png,0.45,1.2,55,0.25,,,,,,,,,,,,,,,,,,,,,,,,,,,,,,,,,,,,,,,,,,,,,
,,,,,SPR24_083,21,Female,2024-04-23_17h02.36.442,jersey_experiment_5_v0,2023.2.2,Win32,84.74576271,,,,,,,,,,,,,,,,462.4957,463.7896,463.7897,468.4606,return,1.0536,,66.015625,0,59,59,8,1,FBP-OG-81.png,0.43,1.2,9,0.5,,,,,,,,,,,,,,,,,,,,,,,,,,,,,,,,,,,,,,,,,,,,,
,,,,,SPR24_083,21,Female,2024-04-23_17h02.36.442,jersey_experiment_5_v0,2023.2.2,Win32,84.74576271,,,,,,,,,,,,,,,,468.4627,469.5075,469.5076,472.59,return,0.7914,,68.09895833,,,,,,FBP-YG-71.png,0.43,1.2,19,0.25,0,0,0,18,1,,,,,,,,,,,,,,,,,,,,,,,,,,,,,,,,,,,,,,,,
,,,,,SPR24_083,21,Female,2024-04-23_17h02.36.442,jersey_experiment_5_v0,2023.2.2,Win32,84.74576271,,,,,,,,,,,,,,,,472.5903,473.6371,473.6372,477.4607,return,2.0095,,61.84895833,,,,,,FBP-PT-91.png,0.4,1.2,58,0.25,0,1,1,57,1,,,,,,,,,,,,,,,,,,,,,,,,,,,,,,,,,,,,,,,,
,,,,,SPR24_083,21,Female,2024-04-23_17h02.36.442,jersey_experiment_5_v0,2023.2.2,Win32,84.74576271,,,,,,,,,,,,,,,,477.461,478.7549,478.7549,488.4964,return,8.8265,,67.70833333,,,,,,FBP-RB-71.png,0.45,1.2,35,0.5,0,2,2,34,1,,,,,,,,,,,,,,,,,,,,,,,,,,,,,,,,,,,,,,,,
,,,,,SPR24_083,21,Female,2024-04-23_17h02.36.442,jersey_experiment_5_v0,2023.2.2,Win32,84.74576271,,,,,,,,,,,,,,,,488.5009,489.8024,489.8024,492.4612,return,0.9215,,63.80208333,,,,,,FBP-RB-81.png,0.43,1.2,39,0.5,0,3,3,38,1,,,,,,,,,,,,,,,,,,,,,,,,,,,,,,,,,,,,,,,,
,,,,,SPR24_083,21,Female,2024-04-23_17h02.36.442,jersey_experiment_5_v0,2023.2.2,Win32,84.74576271,,,,,,,,,,,,,,,,492.4614,493.7555,493.7555,501.4264,return,5.7546,,34.24479167,,,,,,FBP-RB-71.png,0.37,1.2,32,0.5,0,4,4,31,1,,,,,,,,,,,,,,,,,,,,,,,,,,,,,,,,,,,,,,,,
,,,,,SPR24_083,21,Female,2024-04-23_17h02.36.442,jersey_experiment_5_v0,2023.2.2,Win32,84.74576271,,,,,,,,,,,,,,,,501.4267,502.7206,502.7206,505.5559,return,0.8707,,62.63020833,,,,,,FBP-OG-18.png,0.45,1.2,10,0.5,0,5,5,9,1,,,,,,,,,,,,,,,,,,,,,,,,,,,,,,,,,,,,,,,,
,,,,,SPR24_083,21,Female,2024-04-23_17h02.36.442,jersey_experiment_5_v0,2023.2.2,Win32,84.74576271,,,,,,,,,,,,,,,,505.5561,506.603,506.6031,509.8737,return,0.8137,,12.76041667,,,,,,FBP-PT-91.png,0.35,1.2,56,0.25,0,6,6,55,1,,,,,,,,,,,,,,,,,,,,,,,,,,,,,,,,,,,,,,,,
,,,,,SPR24_083,21,Female,2024-04-23_17h02.36.442,jersey_experiment_5_v0,2023.2.2,Win32,84.74576271,,,,,,,,,,,,,,,,509.8739,511.1678,511.1678,513.1798,return,0.8541,,5.338541667,,,,,,FBP-OG-19.png,0.35,1.2,11,0.5,0,7,7,10,1,,,,,,,,,,,,,,,,,,,,,,,,,,,,,,,,,,,,,,,,
,,,,,SPR24_083,21,Female,2024-04-23_17h02.36.442,jersey_experiment_5_v0,2023.2.2,Win32,84.74576271,,,,,,,,,,,,,,,,513.18,514.4738,514.4738,517.7445,return,0.7079,,66.66666667,,,,,,FBP-RB-91.png,0.45,1.2,45,0.5,0,8,8,44,1,,,,,,,,,,,,,,,,,,,,,,,,,,,,,,,,,,,,,,,,
,,,,,SPR24_083,21,Female,2024-04-23_17h02.36.442,jersey_experiment_5_v0,2023.2.2,Win32,84.74576271,,,,,,,,,,,,,,,,517.7447,519.0387,519.0387,522.1448,return,1.6258,,28.125,,,,,,FBP-RB-91.png,0.37,1.2,42,0.5,0,9,9,41,1,,,,,,,,,,,,,,,,,,,,,,,,,,,,,,,,,,,,,,,,
,,,,,SPR24_083,21,Female,2024-04-23_17h02.36.442,jersey_experiment_5_v0,2023.2.2,Win32,84.74576271,,,,,,,,,,,,,,,,522.145,523.4389,523.4389,524.9096,return,0.7701,,28.25520833,,,,,,FBP-RB-81.png,0.4,1.2,38,0.5,0,10,10,37,1,,,,,,,,,,,,,,,,,,,,,,,,,,,,,,,,,,,,,,,,
,,,,,SPR24_083,21,Female,2024-04-23_17h02.36.442,jersey_experiment_5_v0,2023.2.2,Win32,84.74576271,,,,,,,,,,,,,,,,524.9098,526.2038,526.2038,531.1804,return,2.6282,,52.99479167,,,,,,FBP-RB-71.png,0.43,1.2,34,0.5,0,11,11,33,1,,,,,,,,,,,,,,,,,,,,,,,,,,,,,,,,,,,,,,,,
,,,,,SPR24_083,21,Female,2024-04-23_17h02.36.442,jersey_experiment_5_v0,2023.2.2,Win32,84.74576271,,,,,,,,,,,,,,,,531.1806,532.4744,532.4745,534.1569,return,0.7473,,53.25520833,,,,,,FBP-OG-17.png,0.45,1.2,5,0.5,0,12,12,4,1,,,,,,,,,,,,,,,,,,,,,,,,,,,,,,,,,,,,,,,,
,,,,,SPR24_083,21,Female,2024-04-23_17h02.36.442,jersey_experiment_5_v0,2023.2.2,Win32,84.74576271,,,,,,,,,,,,,,,,534.1571,535.4511,535.4511,540.1925,return,2.7651,,47.265625,,,,,,FBP-OG-17.png,0.4,1.2,3,0.5,0,13,13,2,1,,,,,,,,,,,,,,,,,,,,,,,,,,,,,,,,,,,,,,,,
,,,,,SPR24_083,21,Female,2024-04-23_17h02.36.442,jersey_experiment_5_v0,2023.2.2,Win32,84.74576271,,,,,,,,,,,,,,,,540.1927,541.4866,541.4867,543.969,return,0.8852,,55.72916667,,,,,,FBP-OG-18.png,0.43,1.2,9,0.5,0,14,14,8,1,,,,,,,,,,,,,,,,,,,,,,,,,,,,,,,,,,,,,,,,
,,,,,SPR24_083,21,Female,2024-04-23_17h02.36.442,jersey_experiment_5_v0,2023.2.2,Win32,84.74576271,,,,,,,,,,,,,,,,543.9693,545.2631,545.2632,548.8986,return,1.4828,,45.05208333,,,,,,FBP-OG-19.png,0.4,1.2,13,0.5,0,15,15,12,1,,,,,,,,,,,,,,,,,,,,,,,,,,,,,,,,,,,,,,,,
,,,,,SPR24_083,21,Female,2024-04-23_17h02.36.442,jersey_experiment_5_v0,2023.2.2,Win32,84.74576271,,,,,,,,,,,,,,,,548.8988,549.9457,549.9457,557.5813,return,4.476,,57.94270833,,,,,,FBP-YG-81.png,0.43,1.2,24,0.25,0,16,16,23,1,,,,,,,,,,,,,,,,,,,,,,,,,,,,,,,,,,,,,,,,
,,,,,SPR24_083,21,Female,2024-04-23_17h02.36.442,jersey_experiment_5_v0,2023.2.2,Win32,84.74576271,,,,,,,,,,,,,,,,557.5815,558.6283,558.6284,561.2638,return,0.8951,,18.88020833,,,,,,FBP-PT-81.png,0.37,1.2,52,0.25,0,17,17,51,1,,,,,,,,,,,,,,,,,,,,,,,,,,,,,,,,,,,,,,,,
,,,,,SPR24_083,21,Female,2024-04-23_17h02.36.442,jersey_experiment_5_v0,2023.2.2,Win32,84.74576271,,,,,,,,,,,,,,,,561.264,562.5578,562.5578,564.6991,return,0.8662,,19.66145833,,,,,,FBP-RB-81.png,0.37,1.2,37,0.5,0,18,18,36,1,,,,,,,,,,,,,,,,,,,,,,,,,,,,,,,,,,,,,,,,
,,,,,SPR24_083,21,Female,2024-04-23_17h02.36.442,jersey_experiment_5_v0,2023.2.2,Win32,84.74576271,,,,,,,,,,,,,,,,564.6994,565.7462,565.7463,568.1229,return,0.7374,,21.61458333,,,,,,FBP-YG-71.png,0.37,1.2,17,0.25,0,19,19,16,1,,,,,,,,,,,,,,,,,,,,,,,,,,,,,,,,,,,,,,,,
,,,,,SPR24_083,21,Female,2024-04-23_17h02.36.442,jersey_experiment_5_v0,2023.2.2,Win32,84.74576271,,,,,,,,,,,,,,,,568.1231,569.4169,569.4169,571.8523,return,0.6867,,15.75520833,,,,,,FBP-OG-18.png,0.35,1.2,6,0.5,0,20,20,5,1,,,,,,,,,,,,,,,,,,,,,,,,,,,,,,,,,,,,,,,,
,,,,,SPR24_083,21,Female,2024-04-23_17h02.36.442,jersey_experiment_5_v0,2023.2.2,Win32,84.74576271,,,,,,,,,,,,,,,,571.8526,572.8994,572.8995,581.0057,return,0.8507,,13.15104167,,,,,,FBP-PT-91.png,0.37,1.2,57,0.25,0,21,21,56,1,,,,,,,,,,,,,,,,,,,,,,,,,,,,,,,,,,,,,,,,
,,,,,SPR24_083,21,Female,2024-04-23_17h02.36.442,jersey_experiment_5_v0,2023.2.2,Win32,84.74576271,,,,,,,,,,,,,,,,581.0058,582.0527,582.0528,585.4764,return,0.6826,,49.86979167,,,,,,FBP-PT-81.png,0.4,1.2,53,0.25,0,22,22,52,1,,,,,,,,,,,,,,,,,,,,,,,,,,,,,,,,,,,,,,,,
,,,,,SPR24_083,21,Female,2024-04-23_17h02.36.442,jersey_experiment_5_v0,2023.2.2,Win32,84.74576271,,,,,,,,,,,,,,,,585.4766,586.7705,586.7706,589.5353,return,0.7897,,75,,,,,,FBP-OG-19.png,0.45,1.2,15,0.5,0,23,23,14,1,,,,,,,,,,,,,,,,,,,,,,,,,,,,,,,,,,,,,,,,
,,,,,SPR24_083,21,Female,2024-04-23_17h02.36.442,jersey_experiment_5_v0,2023.2.2,Win32,84.74576271,,,,,,,,,,,,,,,,589.5354,590.5824,590.5825,594.3003,return,0.7712,,49.73958333,,,,,,FBP-YG-81.png,0.37,1.2,22,0.25,0,24,24,21,1,,,,,,,,,,,,,,,,,,,,,,,,,,,,,,,,,,,,,,,,
,,,,,SPR24_083,21,Female,2024-04-23_17h02.36.442,jersey_experiment_5_v0,2023.2.2,Win32,84.74576271,,,,,,,,,,,,,,,,594.3004,595.5944,595.5945,599.0769,return,0.7432,,74.86979167,,,,,,FBP-RB-91.png,0.43,1.2,44,0.5,0,25,25,43,1,,,,,,,,,,,,,,,,,,,,,,,,,,,,,,,,,,,,,,,,
,,,,,SPR24_083,21,Female,2024-04-23_17h02.36.442,jersey_experiment_5_v0,2023.2.2,Win32,84.74576271,,,,,,,,,,,,,,,,599.0773,600.1239,600.1239,602.3005,return,0.8748,,79.42708333,,,,,,FBP-YG-71.png,0.45,1.2,20,0.25,0,26,26,19,1,,,,,,,,,,,,,,,,,,,,,,,,,,,,,,,,,,,,,,,,
,,,,,SPR24_083,21,Female,2024-04-23_17h02.36.442,jersey_experiment_5_v0,2023.2.2,Win32,84.74576271,,,,,,,,,,,,,,,,602.3008,603.3475,603.3475,604.7357,return,0.6853,,79.55729167,,,,,,FBP-PT-81.png,0.45,1.2,55,0.25,0,27,27,54,1,,,,,,,,,,,,,,,,,,,,,,,,,,,,,,,,,,,,,,,,
,,,,,SPR24_083,21,Female,2024-04-23_17h02.36.442,jersey_experiment_5_v0,2023.2.2,Win32,84.74576271,,,,,,,,,,,,,,,,604.7359,605.783,605.7831,610.0654,return,2,,45.3125,,,,,,FBP-YG-91.png,0.37,1.2,27,0.25,0,28,28,26,1,,,,,,,,,,,,,,,,,,,,,,,,,,,,,,,,,,,,,,,,
,,,,,SPR24_083,21,Female,2024-04-23_17h02.36.442,jersey_experiment_5_v0,2023.2.2,Win32,84.74576271,,,,,,,,,,,,,,,,610.0656,611.1125,611.1125,614.6892,return,0.8248,,58.46354167,,,,,,FBP-PT-81.png,0.43,1.2,54,0.25,0,29,29,53,1,,,,,,,,,,,,,,,,,,,,,,,,,,,,,,,,,,,,,,,,
,,,,,SPR24_083,21,Female,2024-04-23_17h02.36.442,jersey_experiment_5_v0,2023.2.2,Win32,84.74576271,,,,,,,,,,,,,,,,614.6894,615.7363,615.7363,617.9481,return,0.5357,,74.73958333,,,,,,FBP-PT-91.png,0.45,1.2,60,0.25,0,30,30,59,1,,,,,,,,,,,,,,,,,,,,,,,,,,,,,,,,,,,,,,,,
,,,,,SPR24_083,21,Female,2024-04-23_17h02.36.442,jersey_experiment_5_v0,2023.2.2,Win32,84.74576271,,,,,,,,,,,,,,,,617.9482,618.9951,618.9952,621.0541,return,0.5907,,74.86979167,,,,,,FBP-PT-71.png,0.45,1.2,50,0.25,0,31,31,49,1,,,,,,,,,,,,,,,,,,,,,,,,,,,,,,,,,,,,,,,,
,,,,,SPR24_083,21,Female,2024-04-23_17h02.36.442,jersey_experiment_5_v0,2023.2.2,Win32,84.74576271,,,,,,,,,,,,,,,,621.0543,622.1011,622.1011,627.3014,return,2.1179,,37.63020833,,,,,,FBP-YG-81.png,0.35,1.2,21,0.25,0,32,32,20,1,,,,,,,,,,,,,,,,,,,,,,,,,,,,,,,,,,,,,,,,
,,,,,SPR24_083,21,Female,2024-04-23_17h02.36.442,jersey_experiment_5_v0,2023.2.2,Win32,84.74576271,,,,,,,,,,,,,,,,627.3016,628.3485,628.3485,632.219,return,2.1818,,71.35416667,,,,,,FBP-YG-81.png,0.45,1.2,25,0.25,0,33,33,24,1,,,,,,,,,,,,,,,,,,,,,,,,,,,,,,,,,,,,,,,,
,,,,,SPR24_083,21,Female,2024-04-23_17h02.36.442,jersey_experiment_5_v0,2023.2.2,Win32,84.74576271,,,,,,,,,,,,,,,,632.2193,633.2664,633.2664,637.6899,return,1.3616,,41.66666667,,,,,,FBP-YG-91.png,0.35,1.2,26,0.25,0,34,34,25,1,,,,,,,,,,,,,,,,,,,,,,,,,,,,,,,,,,,,,,,,
,,,,,SPR24_083,21,Female,2024-04-23_17h02.36.442,jersey_experiment_5_v0,2023.2.2,Win32,84.74576271,,,,,,,,,,,,,,,,637.6902,638.9842,638.9842,642.6667,return,0.6903,,51.171875,,,,,,FBP-RB-71.png,0.4,1.2,33,0.5,0,35,35,32,1,,,,,,,,,,,,,,,,,,,,,,,,,,,,,,,,,,,,,,,,
,,,,,SPR24_083,21,Female,2024-04-23_17h02.36.442,jersey_experiment_5_v0,2023.2.2,Win32,84.74576271,,,,,,,,,,,,,,,,642.6669,643.9608,643.9609,646.5726,return,0.6981,,24.86979167,,,,,,FBP-OG-17.png,0.35,1.2,1,0.5,0,36,36,0,1,,,,,,,,,,,,,,,,,,,,,,,,,,,,,,,,,,,,,,,,
,,,,,SPR24_083,21,Female,2024-04-23_17h02.36.442,jersey_experiment_5_v0,2023.2.2,Win32,84.74576271,,,,,,,,,,,,,,,,646.5728,647.8667,647.8667,649.1963,return,0.6531,,24.86979167,,,,,,FBP-OG-19.png,0.37,1.2,12,0.5,0,37,37,11,1,,,,,,,,,,,,,,,,,,,,,,,,,,,,,,,,,,,,,,,,
,,,,,SPR24_083,21,Female,2024-04-23_17h02.36.442,jersey_experiment_5_v0,2023.2.2,Win32,84.74576271,,,,,,,,,,,,,,,,649.1965,650.4904,650.4904,655.1847,return,1.7764,,52.47395833,,,,,,FBP-OG-19.png,0.43,1.2,14,0.5,0,38,38,13,1,,,,,,,,,,,,,,,,,,,,,,,,,,,,,,,,,,,,,,,,
,,,,,SPR24_083,21,Female,2024-04-23_17h02.36.442,jersey_experiment_5_v0,2023.2.2,Win32,84.74576271,,,,,,,,,,,,,,,,655.1848,656.2318,656.2318,660.9377,return,2.2647,,49.73958333,,,,,,FBP-YG-81.png,0.4,1.2,23,0.25,0,39,39,22,1,,,,,,,,,,,,,,,,,,,,,,,,,,,,,,,,,,,,,,,,
,,,,,SPR24_083,21,Female,2024-04-23_17h02.36.442,jersey_experiment_5_v0,2023.2.2,Win32,84.74576271,,,,,,,,,,,,,,,,660.9379,661.9849,661.9849,664.3969,return,1.4296,,49.86979167,,,,,,FBP-YG-71.png,0.4,1.2,18,0.25,0,40,40,17,1,,,,,,,,,,,,,,,,,,,,,,,,,,,,,,,,,,,,,,,,
,,,,,SPR24_083,21,Female,2024-04-23_17h02.36.442,jersey_experiment_5_v0,2023.2.2,Win32,84.74576271,,,,,,,,,,,,,,,,664.3971,665.691,665.691,669.3734,return,1.004,,43.22916667,,,,,,FBP-RB-91.png,0.35,1.2,41,0.5,0,41,41,40,1,,,,,,,,,,,,,,,,,,,,,,,,,,,,,,,,,,,,,,,,
,,,,,SPR24_083,21,Female,2024-04-23_17h02.36.442,jersey_experiment_5_v0,2023.2.2,Win32,84.74576271,,,,,,,,,,,,,,,,669.3737,670.6676,670.6677,675.7385,return,0.9378,,31.38020833,,,,,,FBP-RB-81.png,0.35,1.2,36,0.5,0,42,42,35,1,,,,,,,,,,,,,,,,,,,,,,,,,,,,,,,,,,,,,,,,
,,,,,SPR24_083,21,Female,2024-04-23_17h02.36.442,jersey_experiment_5_v0,2023.2.2,Win32,84.74576271,,,,,,,,,,,,,,,,675.7386,676.7853,676.7853,679.1973,return,0.6757,,75.13020833,,,,,,FBP-YG-91.png,0.45,1.2,30,0.25,0,43,43,29,1,,,,,,,,,,,,,,,,,,,,,,,,,,,,,,,,,,,,,,,,
,,,,,SPR24_083,21,Female,2024-04-23_17h02.36.442,jersey_experiment_5_v0,2023.2.2,Win32,84.74576271,,,,,,,,,,,,,,,,679.1975,680.2443,680.2443,686.127,return,0.6728,,63.41145833,,,,,,FBP-YG-91.png,0.4,1.2,28,0.25,0,44,44,27,1,,,,,,,,,,,,,,,,,,,,,,,,,,,,,,,,,,,,,,,,
,,,,,SPR24_083,21,Female,2024-04-23_17h02.36.442,jersey_experiment_5_v0,2023.2.2,Win32,84.74576271,,,,,,,,,,,,,,,,686.1273,687.421,687.4211,692.4801,return,3.2022,,49.73958333,,,,,,FBP-OG-18.png,0.4,1.2,8,0.5,0,45,45,7,1,,,,,,,,,,,,,,,,,,,,,,,,,,,,,,,,,,,,,,,,
,,,,,SPR24_083,21,Female,2024-04-23_17h02.36.442,jersey_experiment_5_v0,2023.2.2,Win32,84.74576271,,,,,,,,,,,,,,,,692.4846,693.5271,693.5271,696.2567,return,0.9184,,74.86979167,,,,,,FBP-PT-91.png,0.43,1.2,59,0.25,0,46,46,58,1,,,,,,,,,,,,,,,,,,,,,,,,,,,,,,,,,,,,,,,,
,,,,,SPR24_083,21,Female,2024-04-23_17h02.36.442,jersey_experiment_5_v0,2023.2.2,Win32,84.74576271,,,,,,,,,,,,,,,,696.2569,697.3037,697.3037,700.6569,return,0.7998,,60.67708333,,,,,,FBP-PT-71.png,0.4,1.2,48,0.25,0,47,47,47,1,,,,,,,,,,,,,,,,,,,,,,,,,,,,,,,,,,,,,,,,
,,,,,SPR24_083,21,Female,2024-04-23_17h02.36.442,jersey_experiment_5_v0,2023.2.2,Win32,84.74576271,,,,,,,,,,,,,,,,700.6571,701.7039,701.7039,705.7865,return,1.5493,,42.31770833,,,,,,FBP-PT-81.png,0.35,1.2,51,0.25,0,48,48,50,1,,,,,,,,,,,,,,,,,,,,,,,,,,,,,,,,,,,,,,,,
,,,,,SPR24_083,21,Female,2024-04-23_17h02.36.442,jersey_experiment_5_v0,2023.2.2,Win32,84.74576271,,,,,,,,,,,,,,,,705.7866,706.8335,706.8335,712.069,return,4.2835,,40.10416667,,,,,,FBP-YG-71.png,0.35,1.2,16,0.25,0,49,49,15,1,,,,,,,,,,,,,,,,,,,,,,,,,,,,,,,,,,,,,,,,
,,,,,SPR24_083,21,Female,2024-04-23_17h02.36.442,jersey_experiment_5_v0,2023.2.2,Win32,84.74576271,,,,,,,,,,,,,,,,712.0693,713.3632,713.3632,715.3868,return,0.7117,,63.54166667,,,,,,FBP-OG-17.png,0.43,1.2,4,0.5,0,50,50,3,1,,,,,,,,,,,,,,,,,,,,,,,,,,,,,,,,,,,,,,,,
,,,,,SPR24_083,21,Female,2024-04-23_17h02.36.442,jersey_experiment_5_v0,2023.2.2,Win32,84.74576271,,,,,,,,,,,,,,,,715.387,716.4339,716.4339,719.5634,return,0.6989,,63.54166667,,,,,,FBP-PT-71.png,0.43,1.2,49,0.25,0,51,51,48,1,,,,,,,,,,,,,,,,,,,,,,,,,,,,,,,,,,,,,,,,
,,,,,SPR24_083,21,Female,2024-04-23_17h02.36.442,jersey_experiment_5_v0,2023.2.2,Win32,84.74576271,,,,,,,,,,,,,,,,719.5637,720.8575,720.8575,726.1284,return,1.7533,,38.54166667,,,,,,FBP-OG-18.png,0.37,1.2,7,0.5,0,52,52,6,1,,,,,,,,,,,,,,,,,,,,,,,,,,,,,,,,,,,,,,,,
,,,,,SPR24_083,21,Female,2024-04-23_17h02.36.442,jersey_experiment_5_v0,2023.2.2,Win32,84.74576271,,,,,,,,,,,,,,,,726.1287,727.1754,727.1755,729.9403,return,0.7528,,24.73958333,,,,,,FBP-PT-71.png,0.35,1.2,46,0.25,0,53,53,45,1,,,,,,,,,,,,,,,,,,,,,,,,,,,,,,,,,,,,,,,,
,,,,,SPR24_083,21,Female,2024-04-23_17h02.36.442,jersey_experiment_5_v0,2023.2.2,Win32,84.74576271,,,,,,,,,,,,,,,,729.9405,730.9874,730.9874,733.4228,return,0.6258,,29.6875,,,,,,FBP-PT-71.png,0.37,1.2,47,0.25,0,54,54,46,1,,,,,,,,,,,,,,,,,,,,,,,,,,,,,,,,,,,,,,,,
,,,,,SPR24_083,21,Female,2024-04-23_17h02.36.442,jersey_experiment_5_v0,2023.2.2,Win32,84.74576271,,,,,,,,,,,,,,,,733.4231,734.7169,734.7169,739.023,return,1.1797,,46.35416667,,,,,,FBP-OG-17.png,0.37,1.2,2,0.5,0,55,55,1,1,,,,,,,,,,,,,,,,,,,,,,,,,,,,,,,,,,,,,,,,
,,,,,SPR24_083,21,Female,2024-04-23_17h02.36.442,jersey_experiment_5_v0,2023.2.2,Win32,84.74576271,,,,,,,,,,,,,,,,739.0232,740.317,740.317,743.7055,return,2.009,,57.16145833,,,,,,FBP-RB-91.png,0.4,1.2,43,0.5,0,56,56,42,1,,,,,,,,,,,,,,,,,,,,,,,,,,,,,,,,,,,,,,,,
,,,,,SPR24_083,21,Female,2024-04-23_17h02.36.442,jersey_experiment_5_v0,2023.2.2,Win32,84.74576271,,,,,,,,,,,,,,,,743.7058,744.9994,744.9995,750.941,return,4.5821,,25.26041667,,,,,,FBP-RB-71.png,0.35,1.2,31,0.5,0,57,57,30,1,,,,,,,,,,,,,,,,,,,,,,,,,,,,,,,,,,,,,,,,
,,,,,SPR24_083,21,Female,2024-04-23_17h02.36.442,jersey_experiment_5_v0,2023.2.2,Win32,84.74576271,,,,,,,,,,,,,,,,750.9412,751.9881,751.9881,756.6119,return,0.6735,,74.73958333,,,,,,FBP-YG-91.png,0.43,1.2,29,0.25,0,58,58,28,1,,,,,,,,,,,,,,,,,,,,,,,,,,,,,,,,,,,,,,,,
,,,,,SPR24_083,21,Female,2024-04-23_17h02.36.442,jersey_experiment_5_v0,2023.2.2,Win32,84.74576271,,,,,,,,,,,,,,,,756.6121,757.9061,757.9061,759.3649,return,0.7435,,74.73958333,,,,,,FBP-RB-81.png,0.45,1.2,40,0.5,0,59,59,39,1,,,,,,,,,,,,,,,,,,,,,,,,,,,,,,,,,,,,,,,,
,,,,,SPR24_083,21,Female,2024-04-23_17h02.36.442,jersey_experiment_5_v0,2023.2.2,Win32,84.74576271,,,,,,,,,,,,,,,,,,,,,,,,,,,,,,,,,,,,,,,759.3653,879.3576,,,,,,,,,,,,,,,,,,,,,,,,,,,,,,,,,,,,,,
,,,,,SPR24_083,21,Female,2024-04-23_17h02.36.442,jersey_experiment_5_v0,2023.2.2,Win32,84.74576271,,,,,,,,,,,,,,,,,,,,,,,,,,,,,,,,,,,,,,,,,879.3578,890.8522,return,11.4831,,,,,,,,,,,,,,,,,,,,,,,,,,,,,,,,,,
,,,,,SPR24_083,21,Female,2024-04-23_17h02.36.442,jersey_experiment_5_v0,2023.2.2,Win32,84.74576271,,,,,,,,,,,,,,,,890.8584,892.1577,892.1577,895.652,return,1.1672,,24.86979167,,,,,,FBP-YG-18.png,0.35,1.2,21,0.5,,,,,,,,,,,,,0,0,0,20,1,,,,,,,,,,,,,,,,,,,,,,,,,,,,
,,,,,SPR24_083,21,Female,2024-04-23_17h02.36.442,jersey_experiment_5_v0,2023.2.2,Win32,84.74576271,,,,,,,,,,,,,,,,895.6524,896.6989,896.699,900.6286,return,2.8341,,29.6875,,,,,,FBP-OG-81.png,0.35,1.2,6,0.25,,,,,,,,,,,,,0,1,1,5,1,,,,,,,,,,,,,,,,,,,,,,,,,,,,
,,,,,SPR24_083,21,Female,2024-04-23_17h02.36.442,jersey_experiment_5_v0,2023.2.2,Win32,84.74576271,,,,,,,,,,,,,,,,900.6288,901.9228,901.9228,903.4994,return,0.6656,,29.81770833,,,,,,FBP-YG-19.png,0.35,1.2,26,0.5,,,,,,,,,,,,,0,2,2,25,1,,,,,,,,,,,,,,,,,,,,,,,,,,,,
,,,,,SPR24_083,21,Female,2024-04-23_17h02.36.442,jersey_experiment_5_v0,2023.2.2,Win32,84.74576271,,,,,,,,,,,,,,,,903.4996,904.7934,904.7934,909.123,return,3.2007,,49.86979167,,,,,,FBP-YG-17.png,0.37,1.2,17,0.5,,,,,,,,,,,,,0,3,3,16,1,,,,,,,,,,,,,,,,,,,,,,,,,,,,
,,,,,SPR24_083,21,Female,2024-04-23_17h02.36.442,jersey_experiment_5_v0,2023.2.2,Win32,84.74576271,,,,,,,,,,,,,,,,909.1232,910.4172,910.4172,915.4763,return,3.342,,75.52083333,,,,,,FBP-PT-18.png,0.45,1.2,55,0.5,,,,,,,,,,,,,0,4,4,54,1,,,,,,,,,,,,,,,,,,,,,,,,,,,,
,,,,,SPR24_083,21,Female,2024-04-23_17h02.36.442,jersey_experiment_5_v0,2023.2.2,Win32,84.74576271,,,,,,,,,,,,,,,,915.4765,916.7703,916.7703,918.1704,return,0.7721,,75.52083333,,,,,,FBP-YG-17.png,0.45,1.2,20,0.5,,,,,,,,,,,,,0,5,5,19,1,,,,,,,,,,,,,,,,,,,,,,,,,,,,
,,,,,SPR24_083,21,Female,2024-04-23_17h02.36.442,jersey_experiment_5_v0,2023.2.2,Win32,84.74576271,,,,,,,,,,,,,,,,918.1706,919.2175,919.2175,922.1707,return,0.6883,,63.41145833,,,,,,FBP-OG-71.png,0.43,1.2,4,0.25,,,,,,,,,,,,,0,6,6,3,1,,,,,,,,,,,,,,,,,,,,,,,,,,,,
,,,,,SPR24_083,21,Female,2024-04-23_17h02.36.442,jersey_experiment_5_v0,2023.2.2,Win32,84.74576271,,,,,,,,,,,,,,,,922.1709,923.2176,923.2176,926.3002,return,0.5574,,65.36458333,,,,,,FBP-OG-91.png,0.43,1.2,14,0.25,,,,,,,,,,,,,0,7,7,13,1,,,,,,,,,,,,,,,,,,,,,,,,,,,,
,,,,,SPR24_083,21,Female,2024-04-23_17h02.36.442,jersey_experiment_5_v0,2023.2.2,Win32,84.74576271,,,,,,,,,,,,,,,,926.3004,927.5943,927.5943,930.3946,return,0.6193,,42.44791667,,,,,,FBP-PT-19.png,0.37,1.2,57,0.5,,,,,,,,,,,,,0,8,8,56,1,,,,,,,,,,,,,,,,,,,,,,,,,,,,
,,,,,SPR24_083,21,Female,2024-04-23_17h02.36.442,jersey_experiment_5_v0,2023.2.2,Win32,84.74576271,,,,,,,,,,,,,,,,930.3947,931.4414,931.4414,933.9945,return,0.6428,,74.86979167,,,,,,FBP-OG-91.png,0.45,1.2,15,0.25,,,,,,,,,,,,,0,9,9,14,1,,,,,,,,,,,,,,,,,,,,,,,,,,,,
,,,,,SPR24_083,21,Female,2024-04-23_17h02.36.442,jersey_experiment_5_v0,2023.2.2,Win32,84.74576271,,,,,,,,,,,,,,,,933.9948,935.2886,935.2886,937.9005,return,1.5686,,74.86979167,,,,,,FBP-YG-18.png,0.43,1.2,24,0.5,,,,,,,,,,,,,0,10,10,23,1,,,,,,,,,,,,,,,,,,,,,,,,,,,,
,,,,,SPR24_083,21,Female,2024-04-23_17h02.36.442,jersey_experiment_5_v0,2023.2.2,Win32,84.74576271,,,,,,,,,,,,,,,,937.9007,938.9474,938.9475,941.7949,return,0.8472,,14.453125,,,,,,FBP-RB-17.png,0.35,1.2,31,0.25,,,,,,,,,,,,,0,11,11,30,1,,,,,,,,,,,,,,,,,,,,,,,,,,,,
,,,,,SPR24_083,21,Female,2024-04-23_17h02.36.442,jersey_experiment_5_v0,2023.2.2,Win32,84.74576271,,,,,,,,,,,,,,,,941.7952,942.8417,942.8417,947.3008,return,2.1412,,35.80729167,,,,,,FBP-OG-81.png,0.37,1.2,7,0.25,,,,,,,,,,,,,0,12,12,6,1,,,,,,,,,,,,,,,,,,,,,,,,,,,,
,,,,,SPR24_083,21,Female,2024-04-23_17h02.36.442,jersey_experiment_5_v0,2023.2.2,Win32,84.74576271,,,,,,,,,,,,,,,,947.3011,948.348,948.3481,951.5011,return,0.7212,,70.57291667,,,,,,FBP-OG-81.png,0.45,1.2,10,0.25,,,,,,,,,,,,,0,13,13,9,1,,,,,,,,,,,,,,,,,,,,,,,,,,,,
,,,,,SPR24_083,21,Female,2024-04-23_17h02.36.442,jersey_experiment_5_v0,2023.2.2,Win32,84.74576271,,,,,,,,,,,,,,,,951.5013,952.795,952.7951,955.5717,return,0.6355,,61.71875,,,,,,FBP-PT-19.png,0.4,1.2,58,0.5,,,,,,,,,,,,,0,14,14,57,1,,,,,,,,,,,,,,,,,,,,,,,,,,,,
,,,,,SPR24_083,21,Female,2024-04-23_17h02.36.442,jersey_experiment_5_v0,2023.2.2,Win32,84.74576271,,,,,,,,,,,,,,,,955.5719,956.6189,956.6189,958.2425,return,0.6491,,61.71875,,,,,,FBP-RB-18.png,0.4,1.2,38,0.25,,,,,,,,,,,,,0,15,15,37,1,,,,,,,,,,,,,,,,,,,,,,,,,,,,
,,,,,SPR24_083,21,Female,2024-04-23_17h02.36.442,jersey_experiment_5_v0,2023.2.2,Win32,84.74576271,,,,,,,,,,,,,,,,958.2427,959.5365,959.5366,963.5485,return,2.147,,45.57291667,,,,,,FBP-YG-18.png,0.37,1.2,22,0.5,,,,,,,,,,,,,0,16,16,21,1,,,,,,,,,,,,,,,,,,,,,,,,,,,,
,,,,,SPR24_083,21,Female,2024-04-23_17h02.36.442,jersey_experiment_5_v0,2023.2.2,Win32,84.74576271,,,,,,,,,,,,,,,,963.5487,964.8425,964.8426,967.3132,return,1.4461,,64.71354167,,,,,,FBP-PT-18.png,0.43,1.2,54,0.5,,,,,,,,,,,,,0,17,17,53,1,,,,,,,,,,,,,,,,,,,,,,,,,,,,
,,,,,SPR24_083,21,Female,2024-04-23_17h02.36.442,jersey_experiment_5_v0,2023.2.2,Win32,84.74576271,,,,,,,,,,,,,,,,967.3135,968.6073,968.6073,971.584,return,1.3785,,67.83854167,,,,,,FBP-YG-19.png,0.45,1.2,30,0.5,,,,,,,,,,,,,0,18,18,29,1,,,,,,,,,,,,,,,,,,,,,,,,,,,,
,,,,,SPR24_083,21,Female,2024-04-23_17h02.36.442,jersey_experiment_5_v0,2023.2.2,Win32,84.74576271,,,,,,,,,,,,,,,,971.5843,972.6312,972.6313,974.5607,return,0.5999,,49.86979167,,,,,,FBP-OG-91.png,0.4,1.2,13,0.25,,,,,,,,,,,,,0,19,19,12,1,,,,,,,,,,,,,,,,,,,,,,,,,,,,
,,,,,SPR24_083,21,Female,2024-04-23_17h02.36.442,jersey_experiment_5_v0,2023.2.2,Win32,84.74576271,,,,,,,,,,,,,,,,974.5609,975.6077,975.6077,977.3255,return,0.581,,55.33854167,,,,,,FBP-RB-19.png,0.43,1.2,44,0.25,,,,,,,,,,,,,0,20,20,43,1,,,,,,,,,,,,,,,,,,,,,,,,,,,,
,,,,,SPR24_083,21,Female,2024-04-23_17h02.36.442,jersey_experiment_5_v0,2023.2.2,Win32,84.74576271,,,,,,,,,,,,,,,,977.3257,978.3724,978.3724,982.5373,return,0.6533,,30.98958333,,,,,,FBP-RB-17.png,0.37,1.2,32,0.25,,,,,,,,,,,,,0,21,21,31,1,,,,,,,,,,,,,,,,,,,,,,,,,,,,
,,,,,SPR24_083,21,Female,2024-04-23_17h02.36.442,jersey_experiment_5_v0,2023.2.2,Win32,84.74576271,,,,,,,,,,,,,,,,982.5374,983.5844,983.5844,984.9374,return,0.6906,,30.98958333,,,,,,FBP-RB-19.png,0.4,1.2,43,0.25,,,,,,,,,,,,,0,22,22,42,1,,,,,,,,,,,,,,,,,,,,,,,,,,,,
,,,,,SPR24_083,21,Female,2024-04-23_17h02.36.442,jersey_experiment_5_v0,2023.2.2,Win32,84.74576271,,,,,,,,,,,,,,,,984.9377,985.9845,985.9846,990.4319,return,1.4592,,64.71354167,,,,,,FBP-RB-17.png,0.45,1.2,35,0.25,,,,,,,,,,,,,0,23,23,34,1,,,,,,,,,,,,,,,,,,,,,,,,,,,,
,,,,,SPR24_083,21,Female,2024-04-23_17h02.36.442,jersey_experiment_5_v0,2023.2.2,Win32,84.74576271,,,,,,,,,,,,,,,,990.4321,991.4789,991.479,995.6908,return,2.9954,,55.859375,,,,,,FBP-OG-81.png,0.43,1.2,9,0.25,,,,,,,,,,,,,0,24,24,8,1,,,,,,,,,,,,,,,,,,,,,,,,,,,,
,,,,,SPR24_083,21,Female,2024-04-23_17h02.36.442,jersey_experiment_5_v0,2023.2.2,Win32,84.74576271,,,,,,,,,,,,,,,,995.6911,996.7378,996.7379,999.5498,return,0.7191,,54.296875,,,,,,FBP-OG-81.png,0.4,1.2,8,0.25,,,,,,,,,,,,,0,25,25,7,1,,,,,,,,,,,,,,,,,,,,,,,,,,,,
,,,,,SPR24_083,21,Female,2024-04-23_17h02.36.442,jersey_experiment_5_v0,2023.2.2,Win32,84.74576271,,,,,,,,,,,,,,,,999.55,1000.8438,1000.8439,1004.4675,return,2.0341,,13.671875,,,,,,FBP-PT-19.png,0.35,1.2,56,0.5,,,,,,,,,,,,,0,26,26,55,1,,,,,,,,,,,,,,,,,,,,,,,,,,,,
,,,,,SPR24_083,21,Female,2024-04-23_17h02.36.442,jersey_experiment_5_v0,2023.2.2,Win32,84.74576271,,,,,,,,,,,,,,,,1004.4677,1005.5147,1005.5147,1009.962,return,2.3825,,25,,,,,,FBP-RB-18.png,0.37,1.2,37,0.25,,,,,,,,,,,,,0,27,27,36,1,,,,,,,,,,,,,,,,,,,,,,,,,,,,
,,,,,SPR24_083,21,Female,2024-04-23_17h02.36.442,jersey_experiment_5_v0,2023.2.2,Win32,84.74576271,,,,,,,,,,,,,,,,1009.9622,1011.0089,1011.0089,1012.5383,return,0.8412,,25,,,,,,FBP-RB-18.png,0.35,1.2,36,0.25,,,,,,,,,,,,,0,28,28,35,1,,,,,,,,,,,,,,,,,,,,,,,,,,,,
,,,,,SPR24_083,21,Female,2024-04-23_17h02.36.442,jersey_experiment_5_v0,2023.2.2,Win32,84.74576271,,,,,,,,,,,,,,,,1012.5386,1013.8326,1013.8326,1016.1268,return,0.6263,,49.609375,,,,,,FBP-YG-18.png,0.4,1.2,23,0.5,,,,,,,,,,,,,0,29,29,22,1,,,,,,,,,,,,,,,,,,,,,,,,,,,,
,,,,,SPR24_083,21,Female,2024-04-23_17h02.36.442,jersey_experiment_5_v0,2023.2.2,Win32,84.74576271,,,,,,,,,,,,,,,,1016.127,1017.1739,1017.1739,1018.9858,return,0.6777,,50,,,,,,FBP-RB-19.png,0.37,1.2,42,0.25,,,,,,,,,,,,,0,30,30,41,1,,,,,,,,,,,,,,,,,,,,,,,,,,,,
,,,,,SPR24_083,21,Female,2024-04-23_17h02.36.442,jersey_experiment_5_v0,2023.2.2,Win32,84.74576271,,,,,,,,,,,,,,,,1018.986,1020.2799,1020.2799,1022.233,return,0.6443,,55.98958333,,,,,,FBP-YG-17.png,0.4,1.2,18,0.5,,,,,,,,,,,,,0,31,31,17,1,,,,,,,,,,,,,,,,,,,,,,,,,,,,
,,,,,SPR24_083,21,Female,2024-04-23_17h02.36.442,jersey_experiment_5_v0,2023.2.2,Win32,84.74576271,,,,,,,,,,,,,,,,1022.2332,1023.2801,1023.2801,1024.5271,return,0.5564,,55.98958333,,,,,,FBP-OG-71.png,0.4,1.2,3,0.25,,,,,,,,,,,,,0,32,32,2,1,,,,,,,,,,,,,,,,,,,,,,,,,,,,
,,,,,SPR24_083,21,Female,2024-04-23_17h02.36.442,jersey_experiment_5_v0,2023.2.2,Win32,84.74576271,,,,,,,,,,,,,,,,1024.5273,1025.8212,1025.8213,1028.4448,return,0.8521,,74.73958333,,,,,,FBP-PT-17.png,0.45,1.2,50,0.5,,,,,,,,,,,,,0,33,33,49,1,,,,,,,,,,,,,,,,,,,,,,,,,,,,
,,,,,SPR24_083,21,Female,2024-04-23_17h02.36.442,jersey_experiment_5_v0,2023.2.2,Win32,84.74576271,,,,,,,,,,,,,,,,1028.445,1029.739,1029.739,1031.9392,return,0.7905,,74.73958333,,,,,,FBP-PT-17.png,0.4,1.2,48,0.5,,,,,,,,,,,,,0,34,34,47,1,,,,,,,,,,,,,,,,,,,,,,,,,,,,
,,,,,SPR24_083,21,Female,2024-04-23_17h02.36.442,jersey_experiment_5_v0,2023.2.2,Win32,84.74576271,,,,,,,,,,,,,,,,1031.9395,1032.9861,1032.9862,1034.445,return,0.6024,,74.73958333,,,,,,FBP-RB-17.png,0.43,1.2,34,0.25,,,,,,,,,,,,,0,35,35,33,1,,,,,,,,,,,,,,,,,,,,,,,,,,,,
,,,,,SPR24_083,21,Female,2024-04-23_17h02.36.442,jersey_experiment_5_v0,2023.2.2,Win32,84.74576271,,,,,,,,,,,,,,,,1034.4452,1035.7391,1035.7391,1038.01,return,0.5939,,50,,,,,,FBP-PT-18.png,0.4,1.2,53,0.5,,,,,,,,,,,,,0,36,36,52,1,,,,,,,,,,,,,,,,,,,,,,,,,,,,
,,,,,SPR24_083,21,Female,2024-04-23_17h02.36.442,jersey_experiment_5_v0,2023.2.2,Win32,84.74576271,,,,,,,,,,,,,,,,1038.0103,1039.3041,1039.3041,1046.1279,return,3.4596,,65.36458333,,,,,,FBP-PT-19.png,0.43,1.2,59,0.5,,,,,,,,,,,,,0,37,37,58,1,,,,,,,,,,,,,,,,,,,,,,,,,,,,
,,,,,SPR24_083,21,Female,2024-04-23_17h02.36.442,jersey_experiment_5_v0,2023.2.2,Win32,84.74576271,,,,,,,,,,,,,,,,1046.1282,1047.1749,1047.1749,1049.1868,return,0.6589,,21.35416667,,,,,,FBP-OG-91.png,0.35,1.2,11,0.25,,,,,,,,,,,,,0,38,38,10,1,,,,,,,,,,,,,,,,,,,,,,,,,,,,
,,,,,SPR24_083,21,Female,2024-04-23_17h02.36.442,jersey_experiment_5_v0,2023.2.2,Win32,84.74576271,,,,,,,,,,,,,,,,1049.187,1050.481,1050.481,1052.1163,return,0.7167,,13.41145833,,,,,,FBP-PT-18.png,0.35,1.2,51,0.5,,,,,,,,,,,,,0,39,39,50,1,,,,,,,,,,,,,,,,,,,,,,,,,,,,
,,,,,SPR24_083,21,Female,2024-04-23_17h02.36.442,jersey_experiment_5_v0,2023.2.2,Win32,84.74576271,,,,,,,,,,,,,,,,1052.1165,1053.1634,1053.1634,1055.9518,return,0.5668,,66.27604167,,,,,,FBP-RB-18.png,0.45,1.2,40,0.25,,,,,,,,,,,,,0,40,40,39,1,,,,,,,,,,,,,,,,,,,,,,,,,,,,
,,,,,SPR24_083,21,Female,2024-04-23_17h02.36.442,jersey_experiment_5_v0,2023.2.2,Win32,84.74576271,,,,,,,,,,,,,,,,1055.9521,1056.9988,1056.9989,1060.9284,return,3.1526,,75,,,,,,FBP-OG-71.png,0.45,1.2,5,0.25,,,,,,,,,,,,,0,41,41,4,1,,,,,,,,,,,,,,,,,,,,,,,,,,,,
,,,,,SPR24_083,21,Female,2024-04-23_17h02.36.442,jersey_experiment_5_v0,2023.2.2,Win32,84.74576271,,,,,,,,,,,,,,,,1060.9287,1062.2226,1062.2226,1064.3402,return,0.5413,,10.9375,,,,,,FBP-PT-17.png,0.35,1.2,46,0.5,,,,,,,,,,,,,0,42,42,45,1,,,,,,,,,,,,,,,,,,,,,,,,,,,,
,,,,,SPR24_083,21,Female,2024-04-23_17h02.36.442,jersey_experiment_5_v0,2023.2.2,Win32,84.74576271,,,,,,,,,,,,,,,,1064.3405,1065.3874,1065.3874,1071.0815,return,3.3125,,29.16666667,,,,,,FBP-OG-91.png,0.37,1.2,12,0.25,,,,,,,,,,,,,0,43,43,11,1,,,,,,,,,,,,,,,,,,,,,,,,,,,,
,,,,,SPR24_083,21,Female,2024-04-23_17h02.36.442,jersey_experiment_5_v0,2023.2.2,Win32,84.74576271,,,,,,,,,,,,,,,,1071.0817,1072.3758,1072.3759,1075.3642,return,1.9873,,50.26041667,,,,,,FBP-YG-17.png,0.43,1.2,19,0.5,,,,,,,,,,,,,0,44,44,18,1,,,,,,,,,,,,,,,,,,,,,,,,,,,,
,,,,,SPR24_083,21,Female,2024-04-23_17h02.36.442,jersey_experiment_5_v0,2023.2.2,Win32,84.74576271,,,,,,,,,,,,,,,,1075.3644,1076.6583,1076.6583,1079.7056,return,2.1479,,66.40625,,,,,,FBP-YG-18.png,0.45,1.2,25,0.5,,,,,,,,,,,,,0,45,45,24,1,,,,,,,,,,,,,,,,,,,,,,,,,,,,
,,,,,SPR24_083,21,Female,2024-04-23_17h02.36.442,jersey_experiment_5_v0,2023.2.2,Win32,84.74576271,,,,,,,,,,,,,,,,1079.7059,1080.7525,1080.7526,1087.5529,return,3.0835,,63.41145833,,,,,,FBP-RB-17.png,0.4,1.2,33,0.25,,,,,,,,,,,,,0,46,46,32,1,,,,,,,,,,,,,,,,,,,,,,,,,,,,
,,,,,SPR24_083,21,Female,2024-04-23_17h02.36.442,jersey_experiment_5_v0,2023.2.2,Win32,84.74576271,,,,,,,,,,,,,,,,1087.5531,1088.5999,1088.5999,1092.1766,return,0.754,,75,,,,,,FBP-RB-19.png,0.45,1.2,45,0.25,,,,,,,,,,,,,0,47,47,44,1,,,,,,,,,,,,,,,,,,,,,,,,,,,,
,,,,,SPR24_083,21,Female,2024-04-23_17h02.36.442,jersey_experiment_5_v0,2023.2.2,Win32,84.74576271,,,,,,,,,,,,,,,,1092.1768,1093.4707,1093.4708,1095.212,return,0.6157,,69.40104167,,,,,,FBP-PT-19.png,0.45,1.2,60,0.5,,,,,,,,,,,,,0,48,48,59,1,,,,,,,,,,,,,,,,,,,,,,,,,,,,
,,,,,SPR24_083,21,Female,2024-04-23_17h02.36.442,jersey_experiment_5_v0,2023.2.2,Win32,84.74576271,,,,,,,,,,,,,,,,1095.2122,1096.5061,1096.5061,1099.9532,return,0.575,,49.73958333,,,,,,FBP-YG-19.png,0.37,1.2,27,0.5,,,,,,,,,,,,,0,49,49,26,1,,,,,,,,,,,,,,,,,,,,,,,,,,,,
,,,,,SPR24_083,21,Female,2024-04-23_17h02.36.442,jersey_experiment_5_v0,2023.2.2,Win32,84.74576271,,,,,,,,,,,,,,,,1099.9535,1101.2474,1101.2474,1104.1771,return,0.7662,,24.86979167,,,,,,FBP-PT-18.png,0.37,1.2,52,0.5,,,,,,,,,,,,,0,50,50,51,1,,,,,,,,,,,,,,,,,,,,,,,,,,,,
,,,,,SPR24_083,21,Female,2024-04-23_17h02.36.442,jersey_experiment_5_v0,2023.2.2,Win32,84.74576271,,,,,,,,,,,,,,,,1104.1773,1105.2241,1105.2241,1109.2831,return,0.6595,,27.60416667,,,,,,FBP-OG-71.png,0.35,1.2,1,0.25,,,,,,,,,,,,,0,51,51,0,1,,,,,,,,,,,,,,,,,,,,,,,,,,,,
,,,,,SPR24_083,21,Female,2024-04-23_17h02.36.442,jersey_experiment_5_v0,2023.2.2,Win32,84.74576271,,,,,,,,,,,,,,,,1109.2833,1110.3301,1110.3301,1112.7537,return,0.5885,,24.73958333,,,,,,FBP-RB-19.png,0.35,1.2,41,0.25,,,,,,,,,,,,,0,52,52,40,1,,,,,,,,,,,,,,,,,,,,,,,,,,,,
,,,,,SPR24_083,21,Female,2024-04-23_17h02.36.442,jersey_experiment_5_v0,2023.2.2,Win32,84.74576271,,,,,,,,,,,,,,,,1112.7539,1114.0477,1114.0478,1120.3188,return,2.1088,,53.25520833,,,,,,FBP-YG-17.png,0.35,1.2,16,0.5,,,,,,,,,,,,,0,53,53,15,1,,,,,,,,,,,,,,,,,,,,,,,,,,,,
,,,,,SPR24_083,21,Female,2024-04-23_17h02.36.442,jersey_experiment_5_v0,2023.2.2,Win32,84.74576271,,,,,,,,,,,,,,,,1120.319,1121.6127,1121.6129,1124.46,return,0.6151,,30.98958333,,,,,,FBP-PT-17.png,0.37,1.2,47,0.5,,,,,,,,,,,,,0,54,54,46,1,,,,,,,,,,,,,,,,,,,,,,,,,,,,
,,,,,SPR24_083,21,Female,2024-04-23_17h02.36.442,jersey_experiment_5_v0,2023.2.2,Win32,84.74576271,,,,,,,,,,,,,,,,1124.4603,1125.5069,1125.507,1127.9544,return,0.5884,,70.05208333,,,,,,FBP-RB-18.png,0.43,1.2,39,0.25,,,,,,,,,,,,,0,55,55,38,1,,,,,,,,,,,,,,,,,,,,,,,,,,,,
,,,,,SPR24_083,21,Female,2024-04-23_17h02.36.442,jersey_experiment_5_v0,2023.2.2,Win32,84.74576271,,,,,,,,,,,,,,,,1127.9546,1129.2483,1129.2484,1132.1309,return,0.5553,,70.05208333,,,,,,FBP-PT-17.png,0.43,1.2,49,0.5,,,,,,,,,,,,,0,56,56,48,1,,,,,,,,,,,,,,,,,,,,,,,,,,,,
,,,,,SPR24_083,21,Female,2024-04-23_17h02.36.442,jersey_experiment_5_v0,2023.2.2,Win32,84.74576271,,,,,,,,,,,,,,,,1132.1311,1133.425,1133.425,1138.8017,return,4.2117,,64.58333333,,,,,,FBP-YG-19.png,0.4,1.2,28,0.5,,,,,,,,,,,,,0,57,57,27,1,,,,,,,,,,,,,,,,,,,,,,,,,,,,
,,,,,SPR24_083,21,Female,2024-04-23_17h02.36.442,jersey_experiment_5_v0,2023.2.2,Win32,84.74576271,,,,,,,,,,,,,,,,1138.8019,1139.8488,1139.8488,1142.7783,return,0.6188,,43.359375,,,,,,FBP-OG-71.png,0.37,1.2,2,0.25,,,,,,,,,,,,,0,58,58,1,1,,,,,,,,,,,,,,,,,,,,,,,,,,,,
,,,,,SPR24_083,21,Female,2024-04-23_17h02.36.442,jersey_experiment_5_v0,2023.2.2,Win32,84.74576271,,,,,,,,,,,,,,,,1142.7786,1144.0725,1144.0725,1146.8491,return,1.3418,,54.03645833,,,,,,FBP-YG-19.png,0.43,1.2,29,0.5,,,,,,,,,,,,,0,59,59,28,1,,,,,,,,,,,,,,,,,,,,,,,,,,,,
,,,,,SPR24_083,21,Female,2024-04-23_17h02.36.442,jersey_experiment_5_v0,2023.2.2,Win32,84.74576271,,,,,,,,,,,,,,,,1146.8511,1148.1431,1148.1431,1156.4493,return,5.2473,,63.15104167,,,,,,FBP-YG-71.png,0.4,1.2,18,0.5,,,,,,,,,,,,,,,,,,0,0,0,17,1,,,,,,,,,,,,,,,,,,,,,,,
,,,,,SPR24_083,21,Female,2024-04-23_17h02.36.442,jersey_experiment_5_v0,2023.2.2,Win32,84.74576271,,,,,,,,,,,,,,,,1156.4498,1157.4964,1157.4964,1161.2496,return,1.2237,,24.86979167,,,,,,FBP-RB-71.png,0.35,1.2,31,0.25,,,,,,,,,,,,,,,,,,0,1,1,30,1,,,,,,,,,,,,,,,,,,,,,,,
,,,,,SPR24_083,21,Female,2024-04-23_17h02.36.442,jersey_experiment_5_v0,2023.2.2,Win32,84.74576271,,,,,,,,,,,,,,,,1161.2498,1162.5436,1162.5437,1164.1437,return,0.5663,,24.86979167,,,,,,FBP-YG-81.png,0.35,1.2,21,0.5,,,,,,,,,,,,,,,,,,0,2,2,20,1,,,,,,,,,,,,,,,,,,,,,,,
,,,,,SPR24_083,21,Female,2024-04-23_17h02.36.442,jersey_experiment_5_v0,2023.2.2,Win32,84.74576271,,,,,,,,,,,,,,,,1164.1438,1165.4379,1165.4379,1167.2616,return,0.5443,,29.94791667,,,,,,FBP-YG-91.png,0.37,1.2,27,0.5,,,,,,,,,,,,,,,,,,0,3,3,26,1,,,,,,,,,,,,,,,,,,,,,,,
,,,,,SPR24_083,21,Female,2024-04-23_17h02.36.442,jersey_experiment_5_v0,2023.2.2,Win32,84.74576271,,,,,,,,,,,,,,,,1167.2618,1168.3086,1168.3086,1170.9087,return,0.5447,,55.078125,,,,,,FBP-RB-71.png,0.4,1.2,33,0.25,,,,,,,,,,,,,,,,,,0,4,4,32,1,,,,,,,,,,,,,,,,,,,,,,,
,,,,,SPR24_083,21,Female,2024-04-23_17h02.36.442,jersey_experiment_5_v0,2023.2.2,Win32,84.74576271,,,,,,,,,,,,,,,,1170.9089,1171.9559,1171.9559,1174.8971,return,0.7394,,31.25,,,,,,FBP-RB-81.png,0.35,1.2,36,0.25,,,,,,,,,,,,,,,,,,0,5,5,35,1,,,,,,,,,,,,,,,,,,,,,,,
,,,,,SPR24_083,21,Female,2024-04-23_17h02.36.442,jersey_experiment_5_v0,2023.2.2,Win32,84.74576271,,,,,,,,,,,,,,,,1174.8973,1176.1913,1176.1913,1178.7325,return,0.6502,,49.86979167,,,,,,FBP-YG-71.png,0.37,1.2,17,0.5,,,,,,,,,,,,,,,,,,0,6,6,16,1,,,,,,,,,,,,,,,,,,,,,,,
,,,,,SPR24_083,21,Female,2024-04-23_17h02.36.442,jersey_experiment_5_v0,2023.2.2,Win32,84.74576271,,,,,,,,,,,,,,,,1178.7328,1179.7797,1179.7797,1182.2386,return,0.5536,,65.75520833,,,,,,FBP-RB-71.png,0.43,1.2,34,0.25,,,,,,,,,,,,,,,,,,0,7,7,33,1,,,,,,,,,,,,,,,,,,,,,,,
,,,,,SPR24_083,21,Female,2024-04-23_17h02.36.442,jersey_experiment_5_v0,2023.2.2,Win32,84.74576271,,,,,,,,,,,,,,,,1182.2388,1183.5326,1183.5327,1185.1562,return,0.5416,,66.14583333,,,,,,FBP-YG-81.png,0.43,1.2,24,0.5,,,,,,,,,,,,,,,,,,0,8,8,23,1,,,,,,,,,,,,,,,,,,,,,,,
,,,,,SPR24_083,21,Female,2024-04-23_17h02.36.442,jersey_experiment_5_v0,2023.2.2,Win32,84.74576271,,,,,,,,,,,,,,,,1185.1564,1186.2034,1186.2034,1188.4505,return,0.8573,,66.14583333,,,,,,FBP-RB-81.png,0.4,1.2,38,0.25,,,,,,,,,,,,,,,,,,0,9,9,37,1,,,,,,,,,,,,,,,,,,,,,,,
,,,,,SPR24_083,21,Female,2024-04-23_17h02.36.442,jersey_experiment_5_v0,2023.2.2,Win32,84.74576271,,,,,,,,,,,,,,,,1188.4507,1189.4977,1189.4977,1193.8389,return,0.6379,,74.86979167,,,,,,FBP-RB-91.png,0.45,1.2,45,0.25,,,,,,,,,,,,,,,,,,0,10,10,44,1,,,,,,,,,,,,,,,,,,,,,,,
,,,,,SPR24_083,21,Female,2024-04-23_17h02.36.442,jersey_experiment_5_v0,2023.2.2,Win32,84.74576271,,,,,,,,,,,,,,,,1193.8392,1195.133,1195.133,1198.2508,return,0.6172,,63.15104167,,,,,,FBP-YG-81.png,0.4,1.2,23,0.5,,,,,,,,,,,,,,,,,,0,11,11,22,1,,,,,,,,,,,,,,,,,,,,,,,
,,,,,SPR24_083,21,Female,2024-04-23_17h02.36.442,jersey_experiment_5_v0,2023.2.2,Win32,84.74576271,,,,,,,,,,,,,,,,1198.251,1199.2978,1199.2979,1202.651,return,0.5463,,32.68229167,,,,,,FBP-OG-19.png,0.37,1.2,12,0.25,,,,,,,,,,,,,,,,,,0,12,12,11,1,,,,,,,,,,,,,,,,,,,,,,,
,,,,,SPR24_083,21,Female,2024-04-23_17h02.36.442,jersey_experiment_5_v0,2023.2.2,Win32,84.74576271,,,,,,,,,,,,,,,,1202.6511,1203.698,1203.698,1210.2042,return,1.2267,,64.0625,,,,,,FBP-RB-91.png,0.43,1.2,44,0.25,,,,,,,,,,,,,,,,,,0,13,13,43,1,,,,,,,,,,,,,,,,,,,,,,,
,,,,,SPR24_083,21,Female,2024-04-23_17h02.36.442,jersey_experiment_5_v0,2023.2.2,Win32,84.74576271,,,,,,,,,,,,,,,,1210.2044,1211.4985,1211.4985,1213.2162,return,0.5556,,18.75,,,,,,FBP-PT-81.png,0.35,1.2,51,0.5,,,,,,,,,,,,,,,,,,0,14,14,50,1,,,,,,,,,,,,,,,,,,,,,,,
,,,,,SPR24_083,21,Female,2024-04-23_17h02.36.442,jersey_experiment_5_v0,2023.2.2,Win32,84.74576271,,,,,,,,,,,,,,,,1213.2165,1214.5103,1214.5104,1216.9104,return,0.6503,,67.83854167,,,,,,FBP-YG-71.png,0.45,1.2,20,0.5,,,,,,,,,,,,,,,,,,0,15,15,19,1,,,,,,,,,,,,,,,,,,,,,,,
,,,,,SPR24_083,21,Female,2024-04-23_17h02.36.442,jersey_experiment_5_v0,2023.2.2,Win32,84.74576271,,,,,,,,,,,,,,,,1216.9106,1217.9573,1217.9574,1220.8516,return,0.8942,,24.73958333,,,,,,FBP-OG-18.png,0.35,1.2,6,0.25,,,,,,,,,,,,,,,,,,0,16,16,5,1,,,,,,,,,,,,,,,,,,,,,,,
,,,,,SPR24_083,21,Female,2024-04-23_17h02.36.442,jersey_experiment_5_v0,2023.2.2,Win32,84.74576271,,,,,,,,,,,,,,,,1220.8519,1222.1458,1222.1458,1226.1578,return,2.1097,,65.625,,,,,,FBP-PT-81.png,0.45,1.2,55,0.5,,,,,,,,,,,,,,,,,,0,17,17,54,1,,,,,,,,,,,,,,,,,,,,,,,
,,,,,SPR24_083,21,Female,2024-04-23_17h02.36.442,jersey_experiment_5_v0,2023.2.2,Win32,84.74576271,,,,,,,,,,,,,,,,1226.158,1227.2048,1227.2048,1230.7344,return,0.5776,,24.73958333,,,,,,FBP-OG-19.png,0.35,1.2,11,0.25,,,,,,,,,,,,,,,,,,0,18,18,10,1,,,,,,,,,,,,,,,,,,,,,,,
,,,,,SPR24_083,21,Female,2024-04-23_17h02.36.442,jersey_experiment_5_v0,2023.2.2,Win32,84.74576271,,,,,,,,,,,,,,,,1230.7345,1232.0285,1232.0285,1235.6993,return,1.5297,,65.10416667,,,,,,FBP-PT-91.png,0.45,1.2,60,0.5,,,,,,,,,,,,,,,,,,0,19,19,59,1,,,,,,,,,,,,,,,,,,,,,,,
,,,,,SPR24_083,21,Female,2024-04-23_17h02.36.442,jersey_experiment_5_v0,2023.2.2,Win32,84.74576271,,,,,,,,,,,,,,,,1235.6995,1236.7464,1236.7464,1239.8877,return,0.5772,,49.609375,,,,,,FBP-RB-91.png,0.35,1.2,41,0.25,,,,,,,,,,,,,,,,,,0,20,20,40,1,,,,,,,,,,,,,,,,,,,,,,,
,,,,,SPR24_083,21,Female,2024-04-23_17h02.36.442,jersey_experiment_5_v0,2023.2.2,Win32,84.74576271,,,,,,,,,,,,,,,,1239.888,1241.1818,1241.1818,1244.7818,return,2.38,,38.28125,,,,,,FBP-YG-71.png,0.35,1.2,16,0.5,,,,,,,,,,,,,,,,,,0,21,21,15,1,,,,,,,,,,,,,,,,,,,,,,,
,,,,,SPR24_083,21,Female,2024-04-23_17h02.36.442,jersey_experiment_5_v0,2023.2.2,Win32,84.74576271,,,,,,,,,,,,,,,,1244.7821,1246.076,1246.076,1248.6056,return,1.837,,39.453125,,,,,,FBP-PT-81.png,0.37,1.2,52,0.5,,,,,,,,,,,,,,,,,,0,22,22,51,1,,,,,,,,,,,,,,,,,,,,,,,
,,,,,SPR24_083,21,Female,2024-04-23_17h02.36.442,jersey_experiment_5_v0,2023.2.2,Win32,84.74576271,,,,,,,,,,,,,,,,1248.6059,1249.6526,1249.6526,1252.5705,return,0.5819,,54.55729167,,,,,,FBP-RB-71.png,0.37,1.2,32,0.25,,,,,,,,,,,,,,,,,,0,23,23,31,1,,,,,,,,,,,,,,,,,,,,,,,
,,,,,SPR24_083,21,Female,2024-04-23_17h02.36.442,jersey_experiment_5_v0,2023.2.2,Win32,84.74576271,,,,,,,,,,,,,,,,1252.5706,1253.8645,1253.8645,1255.5821,return,0.5301,,68.22916667,,,,,,FBP-PT-71.png,0.45,1.2,50,0.5,,,,,,,,,,,,,,,,,,0,24,24,49,1,,,,,,,,,,,,,,,,,,,,,,,
,,,,,SPR24_083,21,Female,2024-04-23_17h02.36.442,jersey_experiment_5_v0,2023.2.2,Win32,84.74576271,,,,,,,,,,,,,,,,1255.5823,1256.8763,1256.8764,1259.0646,return,0.5365,,49.73958333,,,,,,FBP-PT-91.png,0.35,1.2,56,0.5,,,,,,,,,,,,,,,,,,0,25,25,55,1,,,,,,,,,,,,,,,,,,,,,,,
,,,,,SPR24_083,21,Female,2024-04-23_17h02.36.442,jersey_experiment_5_v0,2023.2.2,Win32,84.74576271,,,,,,,,,,,,,,,,1259.0649,1260.3588,1260.3589,1261.8531,return,0.5104,,54.42708333,,,,,,FBP-YG-91.png,0.4,1.2,28,0.5,,,,,,,,,,,,,,,,,,0,26,26,27,1,,,,,,,,,,,,,,,,,,,,,,,
,,,,,SPR24_083,21,Female,2024-04-23_17h02.36.442,jersey_experiment_5_v0,2023.2.2,Win32,84.74576271,,,,,,,,,,,,,,,,1261.8532,1263.1472,1263.1472,1264.7004,return,0.5687,,55.33854167,,,,,,FBP-YG-91.png,0.43,1.2,29,0.5,,,,,,,,,,,,,,,,,,0,27,27,28,1,,,,,,,,,,,,,,,,,,,,,,,
,,,,,SPR24_083,21,Female,2024-04-23_17h02.36.442,jersey_experiment_5_v0,2023.2.2,Win32,84.74576271,,,,,,,,,,,,,,,,1264.7007,1265.9944,1265.9945,1268.5239,return,0.6742,,44.79166667,,,,,,FBP-PT-81.png,0.4,1.2,53,0.5,,,,,,,,,,,,,,,,,,0,28,28,52,1,,,,,,,,,,,,,,,,,,,,,,,
,,,,,SPR24_083,21,Female,2024-04-23_17h02.36.442,jersey_experiment_5_v0,2023.2.2,Win32,84.74576271,,,,,,,,,,,,,,,,1268.524,1269.8179,1269.818,1271.4888,return,0.5757,,50.13020833,,,,,,FBP-PT-91.png,0.4,1.2,58,0.5,,,,,,,,,,,,,,,,,,0,29,29,57,1,,,,,,,,,,,,,,,,,,,,,,,
,,,,,SPR24_083,21,Female,2024-04-23_17h02.36.442,jersey_experiment_5_v0,2023.2.2,Win32,84.74576271,,,,,,,,,,,,,,,,1271.489,1272.5358,1272.5358,1275.9242,return,0.5549,,44.79166667,,,,,,FBP-OG-17.png,0.37,1.2,2,0.25,,,,,,,,,,,,,,,,,,0,30,30,1,1,,,,,,,,,,,,,,,,,,,,,,,
,,,,,SPR24_083,21,Female,2024-04-23_17h02.36.442,jersey_experiment_5_v0,2023.2.2,Win32,84.74576271,,,,,,,,,,,,,,,,1275.9244,1276.9712,1276.9713,1278.889,return,0.5711,,50,,,,,,FBP-OG-17.png,0.4,1.2,3,0.25,,,,,,,,,,,,,,,,,,0,31,31,2,1,,,,,,,,,,,,,,,,,,,,,,,
,,,,,SPR24_083,21,Female,2024-04-23_17h02.36.442,jersey_experiment_5_v0,2023.2.2,Win32,84.74576271,,,,,,,,,,,,,,,,1278.8892,1280.1832,1280.1832,1284.3833,return,0.7547,,64.0625,,,,,,FBP-YG-81.png,0.45,1.2,25,0.5,,,,,,,,,,,,,,,,,,0,32,32,24,1,,,,,,,,,,,,,,,,,,,,,,,
,,,,,SPR24_083,21,Female,2024-04-23_17h02.36.442,jersey_experiment_5_v0,2023.2.2,Win32,84.74576271,,,,,,,,,,,,,,,,1284.3835,1285.4304,1285.4304,1287.36,return,0.4944,,65.75520833,,,,,,FBP-OG-19.png,0.45,1.2,15,0.25,,,,,,,,,,,,,,,,,,0,33,33,14,1,,,,,,,,,,,,,,,,,,,,,,,
,,,,,SPR24_083,21,Female,2024-04-23_17h02.36.442,jersey_experiment_5_v0,2023.2.2,Win32,84.74576271,,,,,,,,,,,,,,,,1287.3602,1288.6541,1288.6541,1290.3363,return,0.4813,,50,,,,,,FBP-PT-71.png,0.4,1.2,48,0.5,,,,,,,,,,,,,,,,,,0,34,34,47,1,,,,,,,,,,,,,,,,,,,,,,,
,,,,,SPR24_083,21,Female,2024-04-23_17h02.36.442,jersey_experiment_5_v0,2023.2.2,Win32,84.74576271,,,,,,,,,,,,,,,,1290.3366,1291.6305,1291.6306,1294.313,return,0.5363,,60.02604167,,,,,,FBP-PT-91.png,0.43,1.2,59,0.5,,,,,,,,,,,,,,,,,,0,35,35,58,1,,,,,,,,,,,,,,,,,,,,,,,
,,,,,SPR24_083,21,Female,2024-04-23_17h02.36.442,jersey_experiment_5_v0,2023.2.2,Win32,84.74576271,,,,,,,,,,,,,,,,1294.3132,1295.3601,1295.3602,1307.2194,return,1.5676,,58.203125,,,,,,FBP-RB-81.png,0.37,1.2,37,0.25,,,,,,,,,,,,,,,,,,0,36,36,36,1,,,,,,,,,,,,,,,,,,,,,,,
,,,,,SPR24_083,21,Female,2024-04-23_17h02.36.442,jersey_experiment_5_v0,2023.2.2,Win32,84.74576271,,,,,,,,,,,,,,,,1307.2197,1308.5136,1308.5136,1312.7843,return,2.0013,,59.375,,,,,,FBP-PT-71.png,0.43,1.2,49,0.5,,,,,,,,,,,,,,,,,,0,37,37,48,1,,,,,,,,,,,,,,,,,,,,,,,
,,,,,SPR24_083,21,Female,2024-04-23_17h02.36.442,jersey_experiment_5_v0,2023.2.2,Win32,84.74576271,,,,,,,,,,,,,,,,1312.7845,1313.8314,1313.8315,1317.3727,return,1.2753,,72.265625,,,,,,FBP-RB-71.png,0.45,1.2,35,0.25,,,,,,,,,,,,,,,,,,0,38,38,34,1,,,,,,,,,,,,,,,,,,,,,,,
,,,,,SPR24_083,21,Female,2024-04-23_17h02.36.442,jersey_experiment_5_v0,2023.2.2,Win32,84.74576271,,,,,,,,,,,,,,,,1317.3729,1318.6667,1318.6669,1323.4437,return,2.6122,,24.73958333,,,,,,FBP-YG-81.png,0.37,1.2,22,0.5,,,,,,,,,,,,,,,,,,0,39,39,21,1,,,,,,,,,,,,,,,,,,,,,,,
,,,,,SPR24_083,21,Female,2024-04-23_17h02.36.442,jersey_experiment_5_v0,2023.2.2,Win32,84.74576271,,,,,,,,,,,,,,,,1323.4439,1324.4906,1324.4907,1326.6554,return,0.5546,,37.76041667,,,,,,FBP-OG-19.png,0.4,1.2,13,0.25,,,,,,,,,,,,,,,,,,0,40,40,12,1,,,,,,,,,,,,,,,,,,,,,,,
,,,,,SPR24_083,21,Female,2024-04-23_17h02.36.442,jersey_experiment_5_v0,2023.2.2,Win32,84.74576271,,,,,,,,,,,,,,,,1326.6557,1327.7024,1327.7025,1329.9379,return,1.3045,,36.06770833,,,,,,FBP-RB-91.png,0.37,1.2,42,0.25,,,,,,,,,,,,,,,,,,0,41,41,41,1,,,,,,,,,,,,,,,,,,,,,,,
,,,,,SPR24_083,21,Female,2024-04-23_17h02.36.442,jersey_experiment_5_v0,2023.2.2,Win32,84.74576271,,,,,,,,,,,,,,,,1329.9381,1330.985,1330.985,1337.9853,return,0.5181,,61.19791667,,,,,,FBP-OG-17.png,0.45,1.2,5,0.25,,,,,,,,,,,,,,,,,,0,42,42,4,1,,,,,,,,,,,,,,,,,,,,,,,
,,,,,SPR24_083,21,Female,2024-04-23_17h02.36.442,jersey_experiment_5_v0,2023.2.2,Win32,84.74576271,,,,,,,,,,,,,,,,1337.9854,1339.0323,1339.0323,1340.656,return,0.5558,,69.01041667,,,,,,FBP-RB-81.png,0.45,1.2,40,0.25,,,,,,,,,,,,,,,,,,0,43,43,39,1,,,,,,,,,,,,,,,,,,,,,,,
,,,,,SPR24_083,21,Female,2024-04-23_17h02.36.442,jersey_experiment_5_v0,2023.2.2,Win32,84.74576271,,,,,,,,,,,,,,,,1340.6562,1341.9499,1341.9501,1344.1266,return,0.6009,,20.57291667,,,,,,FBP-PT-71.png,0.35,1.2,46,0.5,,,,,,,,,,,,,,,,,,0,44,44,45,1,,,,,,,,,,,,,,,,,,,,,,,
,,,,,SPR24_083,21,Female,2024-04-23_17h02.36.442,jersey_experiment_5_v0,2023.2.2,Win32,84.74576271,,,,,,,,,,,,,,,,1344.1268,1345.1738,1345.1738,1347.9033,return,0.8608,,64.453125,,,,,,FBP-OG-18.png,0.43,1.2,9,0.25,,,,,,,,,,,,,,,,,,0,45,45,8,1,,,,,,,,,,,,,,,,,,,,,,,
,,,,,SPR24_083,21,Female,2024-04-23_17h02.36.442,jersey_experiment_5_v0,2023.2.2,Win32,84.74576271,,,,,,,,,,,,,,,,1347.9036,1348.9502,1348.9503,1357.4565,return,3.2844,,60.80729167,,,,,,FBP-RB-81.png,0.43,1.2,39,0.25,,,,,,,,,,,,,,,,,,0,46,46,38,1,,,,,,,,,,,,,,,,,,,,,,,
,,,,,SPR24_083,21,Female,2024-04-23_17h02.36.442,jersey_experiment_5_v0,2023.2.2,Win32,84.74576271,,,,,,,,,,,,,,,,1357.4567,1358.5034,1358.5035,1360.2331,return,0.5375,,63.93229167,,,,,,FBP-OG-19.png,0.43,1.2,14,0.25,,,,,,,,,,,,,,,,,,0,47,47,13,1,,,,,,,,,,,,,,,,,,,,,,,
,,,,,SPR24_083,21,Female,2024-04-23_17h02.36.442,jersey_experiment_5_v0,2023.2.2,Win32,84.74576271,,,,,,,,,,,,,,,,1360.2334,1361.2801,1361.2801,1363.1037,return,0.5551,,50,,,,,,FBP-RB-91.png,0.4,1.2,43,0.25,,,,,,,,,,,,,,,,,,0,48,48,42,1,,,,,,,,,,,,,,,,,,,,,,,
,,,,,SPR24_083,21,Female,2024-04-23_17h02.36.442,jersey_experiment_5_v0,2023.2.2,Win32,84.74576271,,,,,,,,,,,,,,,,1363.104,1364.3979,1364.3979,1367.0333,return,1.2433,,60.28645833,,,,,,FBP-YG-71.png,0.43,1.2,19,0.5,,,,,,,,,,,,,,,,,,0,49,49,18,1,,,,,,,,,,,,,,,,,,,,,,,
,,,,,SPR24_083,21,Female,2024-04-23_17h02.36.442,jersey_experiment_5_v0,2023.2.2,Win32,84.74576271,,,,,,,,,,,,,,,,1367.0334,1368.3275,1368.3275,1369.7158,return,0.8935,,61.06770833,,,,,,FBP-PT-81.png,0.43,1.2,54,0.5,,,,,,,,,,,,,,,,,,0,50,50,53,1,,,,,,,,,,,,,,,,,,,,,,,
,,,,,SPR24_083,21,Female,2024-04-23_17h02.36.442,jersey_experiment_5_v0,2023.2.2,Win32,84.74576271,,,,,,,,,,,,,,,,1369.7161,1370.7628,1370.7629,1374.4336,return,0.5651,,34.50520833,,,,,,FBP-OG-18.png,0.37,1.2,7,0.25,,,,,,,,,,,,,,,,,,0,51,51,6,1,,,,,,,,,,,,,,,,,,,,,,,
,,,,,SPR24_083,21,Female,2024-04-23_17h02.36.442,jersey_experiment_5_v0,2023.2.2,Win32,84.74576271,,,,,,,,,,,,,,,,1374.4339,1375.7276,1375.7277,1377.8572,return,0.5883,,65.10416667,,,,,,FBP-YG-91.png,0.45,1.2,30,0.5,,,,,,,,,,,,,,,,,,0,52,52,29,1,,,,,,,,,,,,,,,,,,,,,,,
,,,,,SPR24_083,21,Female,2024-04-23_17h02.36.442,jersey_experiment_5_v0,2023.2.2,Win32,84.74576271,,,,,,,,,,,,,,,,1377.8575,1378.9042,1378.9043,1381.3042,return,0.5371,,67.83854167,,,,,,FBP-OG-18.png,0.45,1.2,10,0.25,,,,,,,,,,,,,,,,,,0,53,53,9,1,,,,,,,,,,,,,,,,,,,,,,,
,,,,,SPR24_083,21,Female,2024-04-23_17h02.36.442,jersey_experiment_5_v0,2023.2.2,Win32,84.74576271,,,,,,,,,,,,,,,,1381.3045,1382.5985,1382.5986,1388.0809,return,3.8122,,21.22395833,,,,,,FBP-YG-91.png,0.35,1.2,26,0.5,,,,,,,,,,,,,,,,,,0,54,54,25,1,,,,,,,,,,,,,,,,,,,,,,,
,,,,,SPR24_083,21,Female,2024-04-23_17h02.36.442,jersey_experiment_5_v0,2023.2.2,Win32,84.74576271,,,,,,,,,,,,,,,,1388.0811,1389.1282,1389.1282,1392.3282,return,0.5953,,24.609375,,,,,,FBP-OG-18.png,0.4,1.2,8,0.25,,,,,,,,,,,,,,,,,,0,55,55,7,1,,,,,,,,,,,,,,,,,,,,,,,
,,,,,SPR24_083,21,Female,2024-04-23_17h02.36.442,jersey_experiment_5_v0,2023.2.2,Win32,84.74576271,,,,,,,,,,,,,,,,1392.3284,1393.3753,1393.3753,1395.4812,return,0.5237,,49.86979167,,,,,,FBP-OG-17.png,0.43,1.2,4,0.25,,,,,,,,,,,,,,,,,,0,56,56,3,1,,,,,,,,,,,,,,,,,,,,,,,
,,,,,SPR24_083,21,Female,2024-04-23_17h02.36.442,jersey_experiment_5_v0,2023.2.2,Win32,84.74576271,,,,,,,,,,,,,,,,1395.4815,1396.5282,1396.5283,1398.9048,return,0.5729,,38.93229167,,,,,,FBP-OG-17.png,0.35,1.2,1,0.25,,,,,,,,,,,,,,,,,,0,57,57,0,1,,,,,,,,,,,,,,,,,,,,,,,
,,,,,SPR24_083,21,Female,2024-04-23_17h02.36.442,jersey_experiment_5_v0,2023.2.2,Win32,84.74576271,,,,,,,,,,,,,,,,1398.905,1400.199,1400.1991,1401.4815,return,0.6414,,38.93229167,,,,,,FBP-PT-71.png,0.37,1.2,47,0.5,,,,,,,,,,,,,,,,,,0,58,58,46,1,,,,,,,,,,,,,,,,,,,,,,,
,,,,,SPR24_083,21,Female,2024-04-23_17h02.36.442,jersey_experiment_5_v0,2023.2.2,Win32,84.74576271,,,,,,,,,,,,,,,,1401.4817,1402.7757,1402.7758,1403.8113,return,0.5896,,38.93229167,,,,,,FBP-PT-91.png,0.37,1.2,57,0.5,,,,,,,,,,,,,,,,,,0,59,59,56,1,,,,,,,,,,,,,,,,,,,,,,,
,,,,,SPR24_083,21,Female,2024-04-23_17h02.36.442,jersey_experiment_5_v0,2023.2.2,Win32,84.74576271,,,,,,,,,,,,,,,,,,,,,,,,,,,,,,,,,,,,,,,,,,,,,,,,,,,,,,,,1403.8117,1423.3532,return,19.5378,,,,,,,,,,,,,,,,,,,
,,,,,SPR24_083,21,Female,2024-04-23_17h02.36.442,jersey_experiment_5_v0,2023.2.2,Win32,84.74576271,,,,,,,,,,,,,,,,,,,,,,,,,,,,,,,,,,,,,,,,,,,,,,,,,,,,,,,,,,,,,1423.3534,1429.4356,1,4.7863,return,1.2735,,,,,,,,,,,,
,,,,,SPR24_083,21,Female,2024-04-23_17h02.36.442,jersey_experiment_5_v0,2023.2.2,Win32,84.74576271,,,,,,,,,,,,,,,,,,,,,,,,,,,,,,,,,,,,,,,,,,,,,,,,,,,,,,,,,,,,,,,,,,,,1429.4358,1486.1602,I do not know what this study is about. I recognized a pattern of changing colors on the uniforms.,right,45.348,,,,,,
,,,,,SPR24_083,21,Female,2024-04-23_17h02.36.442,jersey_experiment_5_v0,2023.2.2,Win32,84.74576271,,,,,,,,,,,,,,,,,,,,,,,,,,,,,,,,,,,,,,,,,,,,,,,,,,,,,,,,,,,,,,,,,,,,,,,,,,1486.1602,1495.5323,return,9.3634,