requirements.started,requirements.stopped,key_resp_3.keys,key_resp_3.rt,key_resp_3.duration,Subject ID,Age,Gender,date,expName,psychopyVersion,OS,frameRate,instructions1.started,instructions1.stopped,key_resp.keys,key_resp.rt,key_resp.duration,example.started,example.stopped,enter_2.keys,enter_2.rt,enter_2.duration,instructions2.started,instructions2.stopped,enter_3.keys,enter_3.rt,enter_3.duration,image.started,image.stopped,slider_2.started,slider_2.stopped,next.keys,next.rt,next.duration,slider.response,trial_block_1.thisRepN,trial_block_1.thisTrialN,trial_block_1.thisN,trial_block_1.thisIndex,trial_block_1.ran,Path,Width,Height,Index,Duration,trial_block_2.thisRepN,trial_block_2.thisTrialN,trial_block_2.thisN,trial_block_2.thisIndex,trial_block_2.ran,rest_break.started,rest_break.stopped,end_break.started,end_break.stopped,key_resp_5.keys,key_resp_5.rt,key_resp_5.duration,trial_block_3.thisRepN,trial_block_3.thisTrialN,trial_block_3.thisN,trial_block_3.thisIndex,trial_block_3.ran,trial_block_4.thisRepN,trial_block_4.thisTrialN,trial_block_4.thisN,trial_block_4.thisIndex,trial_block_4.ran,questions_intro.started,questions_intro.stopped,enter_12.keys,enter_12.rt,enter_12.duration,question2.started,question2.stopped,question_doingbest.response,question_doingbest.rt,enter_15.keys,enter_15.rt,enter_15.duration,pattern.started,pattern.stopped,pattern_2.text,enter_17.keys,enter_17.rt,enter_17.duration,thankyou.started,thankyou.stopped,enter_14.keys,enter_14.rt,enter_14.duration
0.0002,7.4259,return,7.4143,,SPR24_046,19,Female,2024-04-12_14h34.17.104,jersey_experiment_5_v0,2023.2.2,Win32,84.74576271,,,,,,,,,,,,,,,,,,,,,,,,,,,,,,,,,,,,,,,,,,,,,,,,,,,,,,,,,,,,,,,,,,,,,,,,,,,,,,
,,,,,SPR24_046,19,Female,2024-04-12_14h34.17.104,jersey_experiment_5_v0,2023.2.2,Win32,84.74576271,7.426,12.7183,return,5.2789,,,,,,,,,,,,,,,,,,,,,,,,,,,,,,,,,,,,,,,,,,,,,,,,,,,,,,,,,,,,,,,,,,,,,,,,,,
,,,,,SPR24_046,19,Female,2024-04-12_14h34.17.104,jersey_experiment_5_v0,2023.2.2,Win32,84.74576271,,,,,,12.7184,15.5223,return,2.77,,,,,,,,,,,,,,,,,,,,,,,,,,,,,,,,,,,,,,,,,,,,,,,,,,,,,,,,,,,,,,,,,,,,,
,,,,,SPR24_046,19,Female,2024-04-12_14h34.17.104,jersey_experiment_5_v0,2023.2.2,Win32,84.74576271,,,,,,,,,,,15.5224,19.4713,return,3.9364,,,,,,,,,,,,,,,,,,,,,,,,,,,,,,,,,,,,,,,,,,,,,,,,,,,,,,,,,,,,,,,,
,,,,,SPR24_046,19,Female,2024-04-12_14h34.17.104,jersey_experiment_5_v0,2023.2.2,Win32,84.74576271,,,,,,,,,,,,,,,,19.4782,20.5299,20.53,30.6129,return,2.5314,,24.47916667,0,0,0,56,1,FBP-PT-19.png,0.37,1.2,57,0.25,,,,,,,,,,,,,,,,,,,,,,,,,,,,,,,,,,,,,,,,,,,,,
,,,,,SPR24_046,19,Female,2024-04-12_14h34.17.104,jersey_experiment_5_v0,2023.2.2,Win32,84.74576271,,,,,,,,,,,,,,,,30.6134,31.6599,31.6599,36.0012,return,2.3937,,50,0,1,1,25,1,FBP-YG-19.png,0.35,1.2,26,0.25,,,,,,,,,,,,,,,,,,,,,,,,,,,,,,,,,,,,,,,,,,,,,
,,,,,SPR24_046,19,Female,2024-04-12_14h34.17.104,jersey_experiment_5_v0,2023.2.2,Win32,84.74576271,,,,,,,,,,,,,,,,36.0015,37.2954,37.2954,41.1543,return,1.4749,,63.02083333,0,2,2,44,1,FBP-RB-19.png,0.45,1.2,45,0.5,,,,,,,,,,,,,,,,,,,,,,,,,,,,,,,,,,,,,,,,,,,,,
,,,,,SPR24_046,19,Female,2024-04-12_14h34.17.104,jersey_experiment_5_v0,2023.2.2,Win32,84.74576271,,,,,,,,,,,,,,,,41.1546,42.2014,42.2014,45.9076,return,1.0502,,74.86979167,0,3,3,24,1,FBP-YG-18.png,0.45,1.2,25,0.25,,,,,,,,,,,,,,,,,,,,,,,,,,,,,,,,,,,,,,,,,,,,,
,,,,,SPR24_046,19,Female,2024-04-12_14h34.17.104,jersey_experiment_5_v0,2023.2.2,Win32,84.74576271,,,,,,,,,,,,,,,,45.9077,47.2017,47.2017,50.5782,return,1.0247,,63.54166667,0,4,4,8,1,FBP-OG-81.png,0.43,1.2,9,0.5,,,,,,,,,,,,,,,,,,,,,,,,,,,,,,,,,,,,,,,,,,,,,
,,,,,SPR24_046,19,Female,2024-04-12_14h34.17.104,jersey_experiment_5_v0,2023.2.2,Win32,84.74576271,,,,,,,,,,,,,,,,50.5785,51.8722,51.8722,53.9195,return,0.5956,,63.54166667,0,5,5,35,1,FBP-RB-18.png,0.35,1.2,36,0.5,,,,,,,,,,,,,,,,,,,,,,,,,,,,,,,,,,,,,,,,,,,,,
,,,,,SPR24_046,19,Female,2024-04-12_14h34.17.104,jersey_experiment_5_v0,2023.2.2,Win32,84.74576271,,,,,,,,,,,,,,,,53.9199,54.9667,54.9667,59.2373,return,0.8957,,88.15104167,0,6,6,54,1,FBP-PT-18.png,0.45,1.2,55,0.25,,,,,,,,,,,,,,,,,,,,,,,,,,,,,,,,,,,,,,,,,,,,,
,,,,,SPR24_046,19,Female,2024-04-12_14h34.17.104,jersey_experiment_5_v0,2023.2.2,Win32,84.74576271,,,,,,,,,,,,,,,,59.2375,60.5316,60.5316,64.9787,return,0.6959,,99.73958333,0,7,7,14,1,FBP-OG-91.png,0.45,1.2,15,0.5,,,,,,,,,,,,,,,,,,,,,,,,,,,,,,,,,,,,,,,,,,,,,
,,,,,SPR24_046,19,Female,2024-04-12_14h34.17.104,jersey_experiment_5_v0,2023.2.2,Win32,84.74576271,,,,,,,,,,,,,,,,64.979,66.2729,66.2729,69.873,return,0.8058,,61.97916667,0,8,8,42,1,FBP-RB-19.png,0.4,1.2,43,0.5,,,,,,,,,,,,,,,,,,,,,,,,,,,,,,,,,,,,,,,,,,,,,
,,,,,SPR24_046,19,Female,2024-04-12_14h34.17.104,jersey_experiment_5_v0,2023.2.2,Win32,84.74576271,,,,,,,,,,,,,,,,69.8732,70.9202,70.9202,74.5791,return,0.9539,,74.21875,0,9,9,22,1,FBP-YG-18.png,0.4,1.2,23,0.25,,,,,,,,,,,,,,,,,,,,,,,,,,,,,,,,,,,,,,,,,,,,,
,,,,,SPR24_046,19,Female,2024-04-12_14h34.17.104,jersey_experiment_5_v0,2023.2.2,Win32,84.74576271,,,,,,,,,,,,,,,,74.5793,75.6262,75.6263,79.8619,return,0.7914,,38.28125,0,10,10,45,1,FBP-PT-17.png,0.35,1.2,46,0.25,,,,,,,,,,,,,,,,,,,,,,,,,,,,,,,,,,,,,,,,,,,,,
,,,,,SPR24_046,19,Female,2024-04-12_14h34.17.104,jersey_experiment_5_v0,2023.2.2,Win32,84.74576271,,,,,,,,,,,,,,,,79.8622,80.9087,80.9088,84.2148,return,0.7673,,49.86979167,0,11,11,16,1,FBP-YG-17.png,0.37,1.2,17,0.25,,,,,,,,,,,,,,,,,,,,,,,,,,,,,,,,,,,,,,,,,,,,,
,,,,,SPR24_046,19,Female,2024-04-12_14h34.17.104,jersey_experiment_5_v0,2023.2.2,Win32,84.74576271,,,,,,,,,,,,,,,,84.2151,85.2618,85.2618,88.7444,return,0.6827,,74.86979167,0,12,12,48,1,FBP-PT-17.png,0.43,1.2,49,0.25,,,,,,,,,,,,,,,,,,,,,,,,,,,,,,,,,,,,,,,,,,,,,
,,,,,SPR24_046,19,Female,2024-04-12_14h34.17.104,jersey_experiment_5_v0,2023.2.2,Win32,84.74576271,,,,,,,,,,,,,,,,88.7446,89.7915,89.7915,92.2386,return,0.6876,,74.86979167,0,13,13,53,1,FBP-PT-18.png,0.43,1.2,54,0.25,,,,,,,,,,,,,,,,,,,,,,,,,,,,,,,,,,,,,,,,,,,,,
,,,,,SPR24_046,19,Female,2024-04-12_14h34.17.104,jersey_experiment_5_v0,2023.2.2,Win32,84.74576271,,,,,,,,,,,,,,,,92.2388,93.5328,93.5328,96.9093,return,0.7003,,49.47916667,0,14,14,40,1,FBP-RB-19.png,0.35,1.2,41,0.5,,,,,,,,,,,,,,,,,,,,,,,,,,,,,,,,,,,,,,,,,,,,,
,,,,,SPR24_046,19,Female,2024-04-12_14h34.17.104,jersey_experiment_5_v0,2023.2.2,Win32,84.74576271,,,,,,,,,,,,,,,,96.9095,97.9566,97.9566,101.3331,return,0.952,,75.390625,0,15,15,46,1,FBP-PT-17.png,0.37,1.2,47,0.25,,,,,,,,,,,,,,,,,,,,,,,,,,,,,,,,,,,,,,,,,,,,,
,,,,,SPR24_046,19,Female,2024-04-12_14h34.17.104,jersey_experiment_5_v0,2023.2.2,Win32,84.74576271,,,,,,,,,,,,,,,,101.3332,102.3802,102.3802,105.792,return,0.7009,,87.109375,0,16,16,17,1,FBP-YG-17.png,0.4,1.2,18,0.25,,,,,,,,,,,,,,,,,,,,,,,,,,,,,,,,,,,,,,,,,,,,,
,,,,,SPR24_046,19,Female,2024-04-12_14h34.17.104,jersey_experiment_5_v0,2023.2.2,Win32,84.74576271,,,,,,,,,,,,,,,,105.7922,107.0863,107.0863,110.3686,return,0.7822,,75.26041667,0,17,17,32,1,FBP-RB-17.png,0.4,1.2,33,0.5,,,,,,,,,,,,,,,,,,,,,,,,,,,,,,,,,,,,,,,,,,,,,
,,,,,SPR24_046,19,Female,2024-04-12_14h34.17.104,jersey_experiment_5_v0,2023.2.2,Win32,84.74576271,,,,,,,,,,,,,,,,110.3689,111.4158,111.4159,114.91,return,0.55,,50.26041667,0,18,18,20,1,FBP-YG-18.png,0.35,1.2,21,0.25,,,,,,,,,,,,,,,,,,,,,,,,,,,,,,,,,,,,,,,,,,,,,
,,,,,SPR24_046,19,Female,2024-04-12_14h34.17.104,jersey_experiment_5_v0,2023.2.2,Win32,84.74576271,,,,,,,,,,,,,,,,114.9103,115.9571,115.9572,119.2984,return,0.8721,,99.86979167,0,19,19,19,1,FBP-YG-17.png,0.45,1.2,20,0.25,,,,,,,,,,,,,,,,,,,,,,,,,,,,,,,,,,,,,,,,,,,,,
,,,,,SPR24_046,19,Female,2024-04-12_14h34.17.104,jersey_experiment_5_v0,2023.2.2,Win32,84.74576271,,,,,,,,,,,,,,,,119.2987,120.5925,120.5925,122.5339,return,0.8104,,99.86979167,0,20,20,9,1,FBP-OG-81.png,0.45,1.2,10,0.5,,,,,,,,,,,,,,,,,,,,,,,,,,,,,,,,,,,,,,,,,,,,,
,,,,,SPR24_046,19,Female,2024-04-12_14h34.17.104,jersey_experiment_5_v0,2023.2.2,Win32,84.74576271,,,,,,,,,,,,,,,,122.5342,123.8279,123.828,127.9221,return,0.6253,,99.21875,0,21,21,33,1,FBP-RB-17.png,0.43,1.2,34,0.5,,,,,,,,,,,,,,,,,,,,,,,,,,,,,,,,,,,,,,,,,,,,,
,,,,,SPR24_046,19,Female,2024-04-12_14h34.17.104,jersey_experiment_5_v0,2023.2.2,Win32,84.74576271,,,,,,,,,,,,,,,,127.9224,128.9695,128.9695,132.2164,return,0.6734,,38.02083333,0,22,22,51,1,FBP-PT-18.png,0.37,1.2,52,0.25,,,,,,,,,,,,,,,,,,,,,,,,,,,,,,,,,,,,,,,,,,,,,
,,,,,SPR24_046,19,Female,2024-04-12_14h34.17.104,jersey_experiment_5_v0,2023.2.2,Win32,84.74576271,,,,,,,,,,,,,,,,132.2166,133.5108,133.5108,136.6402,return,0.7572,,99.21875,0,23,23,43,1,FBP-RB-19.png,0.43,1.2,44,0.5,,,,,,,,,,,,,,,,,,,,,,,,,,,,,,,,,,,,,,,,,,,,,
,,,,,SPR24_046,19,Female,2024-04-12_14h34.17.104,jersey_experiment_5_v0,2023.2.2,Win32,84.74576271,,,,,,,,,,,,,,,,136.6404,137.6873,137.6873,141.2522,return,0.6488,,62.109375,0,24,24,52,1,FBP-PT-18.png,0.4,1.2,53,0.25,,,,,,,,,,,,,,,,,,,,,,,,,,,,,,,,,,,,,,,,,,,,,
,,,,,SPR24_046,19,Female,2024-04-12_14h34.17.104,jersey_experiment_5_v0,2023.2.2,Win32,84.74576271,,,,,,,,,,,,,,,,141.2525,142.5463,142.5463,145.1228,return,0.5541,,74.86979167,0,25,25,11,1,FBP-OG-91.png,0.37,1.2,12,0.5,,,,,,,,,,,,,,,,,,,,,,,,,,,,,,,,,,,,,,,,,,,,,
,,,,,SPR24_046,19,Female,2024-04-12_14h34.17.104,jersey_experiment_5_v0,2023.2.2,Win32,84.74576271,,,,,,,,,,,,,,,,145.1231,146.4169,146.417,147.8407,return,0.5355,,74.86979167,0,26,26,6,1,FBP-OG-81.png,0.37,1.2,7,0.5,,,,,,,,,,,,,,,,,,,,,,,,,,,,,,,,,,,,,,,,,,,,,
,,,,,SPR24_046,19,Female,2024-04-12_14h34.17.104,jersey_experiment_5_v0,2023.2.2,Win32,84.74576271,,,,,,,,,,,,,,,,147.841,149.1349,149.1349,152.4997,return,1.1209,,86.19791667,0,27,27,38,1,FBP-RB-18.png,0.43,1.2,39,0.5,,,,,,,,,,,,,,,,,,,,,,,,,,,,,,,,,,,,,,,,,,,,,
,,,,,SPR24_046,19,Female,2024-04-12_14h34.17.104,jersey_experiment_5_v0,2023.2.2,Win32,84.74576271,,,,,,,,,,,,,,,,152.4999,153.5466,153.5467,155.1586,return,0.2117,,49.609375,0,28,28,50,1,FBP-PT-18.png,0.35,1.2,51,0.25,,,,,,,,,,,,,,,,,,,,,,,,,,,,,,,,,,,,,,,,,,,,,
,,,,,SPR24_046,19,Female,2024-04-12_14h34.17.104,jersey_experiment_5_v0,2023.2.2,Win32,84.74576271,,,,,,,,,,,,,,,,155.1589,156.2055,156.2056,159.041,return,0.9444,,64.0625,0,29,29,26,1,FBP-YG-19.png,0.37,1.2,27,0.25,,,,,,,,,,,,,,,,,,,,,,,,,,,,,,,,,,,,,,,,,,,,,
,,,,,SPR24_046,19,Female,2024-04-12_14h34.17.104,jersey_experiment_5_v0,2023.2.2,Win32,84.74576271,,,,,,,,,,,,,,,,159.0413,160.3354,160.3354,161.8648,return,0.2736,,98.95833333,0,30,30,3,1,FBP-OG-71.png,0.43,1.2,4,0.5,,,,,,,,,,,,,,,,,,,,,,,,,,,,,,,,,,,,,,,,,,,,,
,,,,,SPR24_046,19,Female,2024-04-12_14h34.17.104,jersey_experiment_5_v0,2023.2.2,Win32,84.74576271,,,,,,,,,,,,,,,,161.8649,163.1588,163.1589,163.8413,return,0.0975,,98.95833333,0,31,31,37,1,FBP-RB-18.png,0.4,1.2,38,0.5,,,,,,,,,,,,,,,,,,,,,,,,,,,,,,,,,,,,,,,,,,,,,
,,,,,SPR24_046,19,Female,2024-04-12_14h34.17.104,jersey_experiment_5_v0,2023.2.2,Win32,84.74576271,,,,,,,,,,,,,,,,163.8415,164.8883,164.8883,167.0059,return,0.1969,,62.36979167,0,32,32,55,1,FBP-PT-19.png,0.35,1.2,56,0.25,,,,,,,,,,,,,,,,,,,,,,,,,,,,,,,,,,,,,,,,,,,,,
,,,,,SPR24_046,19,Female,2024-04-12_14h34.17.104,jersey_experiment_5_v0,2023.2.2,Win32,84.74576271,,,,,,,,,,,,,,,,167.0062,168.3002,168.3002,169.5356,return,0.2404,,75.390625,0,33,33,41,1,FBP-RB-19.png,0.37,1.2,42,0.5,,,,,,,,,,,,,,,,,,,,,,,,,,,,,,,,,,,,,,,,,,,,,
,,,,,SPR24_046,19,Female,2024-04-12_14h34.17.104,jersey_experiment_5_v0,2023.2.2,Win32,84.74576271,,,,,,,,,,,,,,,,169.5358,170.8298,170.8298,172.3357,return,0.1456,,99.609375,0,34,34,4,1,FBP-OG-71.png,0.45,1.2,5,0.5,,,,,,,,,,,,,,,,,,,,,,,,,,,,,,,,,,,,,,,,,,,,,
,,,,,SPR24_046,19,Female,2024-04-12_14h34.17.104,jersey_experiment_5_v0,2023.2.2,Win32,84.74576271,,,,,,,,,,,,,,,,172.3359,173.6298,173.6299,174.2888,return,0.1121,,99.609375,0,35,35,34,1,FBP-RB-17.png,0.45,1.2,35,0.5,,,,,,,,,,,,,,,,,,,,,,,,,,,,,,,,,,,,,,,,,,,,,
,,,,,SPR24_046,19,Female,2024-04-12_14h34.17.104,jersey_experiment_5_v0,2023.2.2,Win32,84.74576271,,,,,,,,,,,,,,,,174.289,175.3357,175.3357,175.9711,return,0.1308,,99.609375,0,36,36,23,1,FBP-YG-18.png,0.43,1.2,24,0.25,,,,,,,,,,,,,,,,,,,,,,,,,,,,,,,,,,,,,,,,,,,,,
,,,,,SPR24_046,19,Female,2024-04-12_14h34.17.104,jersey_experiment_5_v0,2023.2.2,Win32,84.74576271,,,,,,,,,,,,,,,,175.9712,177.0181,177.0182,178.83,return,0.5245,,87.890625,0,37,37,57,1,FBP-PT-19.png,0.4,1.2,58,0.25,,,,,,,,,,,,,,,,,,,,,,,,,,,,,,,,,,,,,,,,,,,,,
,,,,,SPR24_046,19,Female,2024-04-12_14h34.17.104,jersey_experiment_5_v0,2023.2.2,Win32,84.74576271,,,,,,,,,,,,,,,,178.8303,180.1245,180.1245,182.0067,return,0.2589,,87.63020833,0,38,38,2,1,FBP-OG-71.png,0.4,1.2,3,0.5,,,,,,,,,,,,,,,,,,,,,,,,,,,,,,,,,,,,,,,,,,,,,
,,,,,SPR24_046,19,Female,2024-04-12_14h34.17.104,jersey_experiment_5_v0,2023.2.2,Win32,84.74576271,,,,,,,,,,,,,,,,182.0069,183.3008,183.3008,184.3128,return,0.2125,,75.52083333,0,39,39,31,1,FBP-RB-17.png,0.37,1.2,32,0.5,,,,,,,,,,,,,,,,,,,,,,,,,,,,,,,,,,,,,,,,,,,,,
,,,,,SPR24_046,19,Female,2024-04-12_14h34.17.104,jersey_experiment_5_v0,2023.2.2,Win32,84.74576271,,,,,,,,,,,,,,,,184.313,185.6067,185.6068,186.3597,return,0.179,,75.52083333,0,40,40,1,1,FBP-OG-71.png,0.37,1.2,2,0.5,,,,,,,,,,,,,,,,,,,,,,,,,,,,,,,,,,,,,,,,,,,,,
,,,,,SPR24_046,19,Female,2024-04-12_14h34.17.104,jersey_experiment_5_v0,2023.2.2,Win32,84.74576271,,,,,,,,,,,,,,,,186.3599,187.6539,187.6539,188.7715,return,0.107,,85.67708333,0,41,41,7,1,FBP-OG-81.png,0.4,1.2,8,0.5,,,,,,,,,,,,,,,,,,,,,,,,,,,,,,,,,,,,,,,,,,,,,
,,,,,SPR24_046,19,Female,2024-04-12_14h34.17.104,jersey_experiment_5_v0,2023.2.2,Win32,84.74576271,,,,,,,,,,,,,,,,188.7718,189.8187,189.8187,191.313,return,0.1703,,75,0,42,42,15,1,FBP-YG-17.png,0.35,1.2,16,0.25,,,,,,,,,,,,,,,,,,,,,,,,,,,,,,,,,,,,,,,,,,,,,
,,,,,SPR24_046,19,Female,2024-04-12_14h34.17.104,jersey_experiment_5_v0,2023.2.2,Win32,84.74576271,,,,,,,,,,,,,,,,191.3131,192.6069,192.6069,194.254,return,0.2063,,99.47916667,0,43,43,13,1,FBP-OG-91.png,0.43,1.2,14,0.5,,,,,,,,,,,,,,,,,,,,,,,,,,,,,,,,,,,,,,,,,,,,,
,,,,,SPR24_046,19,Female,2024-04-12_14h34.17.104,jersey_experiment_5_v0,2023.2.2,Win32,84.74576271,,,,,,,,,,,,,,,,194.2543,195.3013,195.3013,196.2896,return,0.111,,99.47916667,0,44,44,18,1,FBP-YG-17.png,0.43,1.2,19,0.25,,,,,,,,,,,,,,,,,,,,,,,,,,,,,,,,,,,,,,,,,,,,,
,,,,,SPR24_046,19,Female,2024-04-12_14h34.17.104,jersey_experiment_5_v0,2023.2.2,Win32,84.74576271,,,,,,,,,,,,,,,,196.2898,197.3366,197.3366,201.6192,return,3.7544,,99.47916667,0,45,45,59,1,FBP-PT-19.png,0.45,1.2,60,0.25,,,,,,,,,,,,,,,,,,,,,,,,,,,,,,,,,,,,,,,,,,,,,
,,,,,SPR24_046,19,Female,2024-04-12_14h34.17.104,jersey_experiment_5_v0,2023.2.2,Win32,84.74576271,,,,,,,,,,,,,,,,201.6236,202.9252,202.9252,204.5957,return,0.1561,,74.21875,0,46,46,10,1,FBP-OG-91.png,0.35,1.2,11,0.5,,,,,,,,,,,,,,,,,,,,,,,,,,,,,,,,,,,,,,,,,,,,,
,,,,,SPR24_046,19,Female,2024-04-12_14h34.17.104,jersey_experiment_5_v0,2023.2.2,Win32,84.74576271,,,,,,,,,,,,,,,,204.5959,205.8899,205.8899,206.4546,return,0.0145,,74.21875,0,47,47,5,1,FBP-OG-81.png,0.35,1.2,6,0.5,,,,,,,,,,,,,,,,,,,,,,,,,,,,,,,,,,,,,,,,,,,,,
,,,,,SPR24_046,19,Female,2024-04-12_14h34.17.104,jersey_experiment_5_v0,2023.2.2,Win32,84.74576271,,,,,,,,,,,,,,,,206.4547,207.5016,207.5017,208.4311,return,0.1368,,74.21875,0,48,48,21,1,FBP-YG-18.png,0.37,1.2,22,0.25,,,,,,,,,,,,,,,,,,,,,,,,,,,,,,,,,,,,,,,,,,,,,
,,,,,SPR24_046,19,Female,2024-04-12_14h34.17.104,jersey_experiment_5_v0,2023.2.2,Win32,84.74576271,,,,,,,,,,,,,,,,208.4314,209.7252,209.7253,211.7372,return,0.1508,,98.95833333,0,49,49,12,1,FBP-OG-91.png,0.4,1.2,13,0.5,,,,,,,,,,,,,,,,,,,,,,,,,,,,,,,,,,,,,,,,,,,,,
,,,,,SPR24_046,19,Female,2024-04-12_14h34.17.104,jersey_experiment_5_v0,2023.2.2,Win32,84.74576271,,,,,,,,,,,,,,,,211.7375,213.0312,213.0312,214.4195,return,0.2003,,75.78125,0,50,50,36,1,FBP-RB-18.png,0.37,1.2,37,0.5,,,,,,,,,,,,,,,,,,,,,,,,,,,,,,,,,,,,,,,,,,,,,
,,,,,SPR24_046,19,Female,2024-04-12_14h34.17.104,jersey_experiment_5_v0,2023.2.2,Win32,84.74576271,,,,,,,,,,,,,,,,214.4198,215.7136,215.7137,216.2548,return,0.0781,,75.78125,0,51,51,0,1,FBP-OG-71.png,0.35,1.2,1,0.5,,,,,,,,,,,,,,,,,,,,,,,,,,,,,,,,,,,,,,,,,,,,,
,,,,,SPR24_046,19,Female,2024-04-12_14h34.17.104,jersey_experiment_5_v0,2023.2.2,Win32,84.74576271,,,,,,,,,,,,,,,,216.2551,217.549,217.5491,218.9254,return,0.148,,99.21875,0,52,52,39,1,FBP-RB-18.png,0.45,1.2,40,0.5,,,,,,,,,,,,,,,,,,,,,,,,,,,,,,,,,,,,,,,,,,,,,
,,,,,SPR24_046,19,Female,2024-04-12_14h34.17.104,jersey_experiment_5_v0,2023.2.2,Win32,84.74576271,,,,,,,,,,,,,,,,218.9257,219.9726,219.9727,220.6904,return,0.0865,,98.69791667,0,53,53,47,1,FBP-PT-17.png,0.4,1.2,48,0.25,,,,,,,,,,,,,,,,,,,,,,,,,,,,,,,,,,,,,,,,,,,,,
,,,,,SPR24_046,19,Female,2024-04-12_14h34.17.104,jersey_experiment_5_v0,2023.2.2,Win32,84.74576271,,,,,,,,,,,,,,,,220.6907,221.7374,221.7374,222.3021,return,0.1353,,98.69791667,0,54,54,49,1,FBP-PT-17.png,0.45,1.2,50,0.25,,,,,,,,,,,,,,,,,,,,,,,,,,,,,,,,,,,,,,,,,,,,,
,,,,,SPR24_046,19,Female,2024-04-12_14h34.17.104,jersey_experiment_5_v0,2023.2.2,Win32,84.74576271,,,,,,,,,,,,,,,,222.3022,223.3493,223.3493,223.9493,return,0.1128,,98.69791667,0,55,55,28,1,FBP-YG-19.png,0.43,1.2,29,0.25,,,,,,,,,,,,,,,,,,,,,,,,,,,,,,,,,,,,,,,,,,,,,
,,,,,SPR24_046,19,Female,2024-04-12_14h34.17.104,jersey_experiment_5_v0,2023.2.2,Win32,84.74576271,,,,,,,,,,,,,,,,223.9496,225.2435,225.2436,226.6436,return,0.1654,,74.34895833,0,56,56,30,1,FBP-RB-17.png,0.35,1.2,31,0.5,,,,,,,,,,,,,,,,,,,,,,,,,,,,,,,,,,,,,,,,,,,,,
,,,,,SPR24_046,19,Female,2024-04-12_14h34.17.104,jersey_experiment_5_v0,2023.2.2,Win32,84.74576271,,,,,,,,,,,,,,,,226.6438,227.6906,227.6906,229.4084,return,0.1244,,99.73958333,0,57,57,29,1,FBP-YG-19.png,0.45,1.2,30,0.25,,,,,,,,,,,,,,,,,,,,,,,,,,,,,,,,,,,,,,,,,,,,,
,,,,,SPR24_046,19,Female,2024-04-12_14h34.17.104,jersey_experiment_5_v0,2023.2.2,Win32,84.74576271,,,,,,,,,,,,,,,,229.4087,230.4556,230.4556,231.6319,return,0.1696,,99.34895833,0,58,58,58,1,FBP-PT-19.png,0.43,1.2,59,0.25,,,,,,,,,,,,,,,,,,,,,,,,,,,,,,,,,,,,,,,,,,,,,
,,,,,SPR24_046,19,Female,2024-04-12_14h34.17.104,jersey_experiment_5_v0,2023.2.2,Win32,84.74576271,,,,,,,,,,,,,,,,231.6321,232.6791,232.6791,233.6673,return,0.107,,99.609375,0,59,59,27,1,FBP-YG-19.png,0.4,1.2,28,0.25,,,,,,,,,,,,,,,,,,,,,,,,,,,,,,,,,,,,,,,,,,,,,
,,,,,SPR24_046,19,Female,2024-04-12_14h34.17.104,jersey_experiment_5_v0,2023.2.2,Win32,84.74576271,,,,,,,,,,,,,,,,233.6691,234.7145,234.7145,235.6673,return,0.1301,,99.609375,,,,,,FBP-PT-91.png,0.43,1.2,59,0.25,0,0,0,58,1,,,,,,,,,,,,,,,,,,,,,,,,,,,,,,,,,,,,,,,,
,,,,,SPR24_046,19,Female,2024-04-12_14h34.17.104,jersey_experiment_5_v0,2023.2.2,Win32,84.74576271,,,,,,,,,,,,,,,,235.6676,236.9615,236.9615,238.3029,return,0.196,,74.21875,,,,,,FBP-OG-17.png,0.37,1.2,2,0.5,0,1,1,1,1,,,,,,,,,,,,,,,,,,,,,,,,,,,,,,,,,,,,,,,,
,,,,,SPR24_046,19,Female,2024-04-12_14h34.17.104,jersey_experiment_5_v0,2023.2.2,Win32,84.74576271,,,,,,,,,,,,,,,,238.303,239.3499,239.3499,241.7029,return,0.1086,,49.21875,,,,,,FBP-YG-81.png,0.35,1.2,21,0.25,0,2,2,20,1,,,,,,,,,,,,,,,,,,,,,,,,,,,,,,,,,,,,,,,,
,,,,,SPR24_046,19,Female,2024-04-12_14h34.17.104,jersey_experiment_5_v0,2023.2.2,Win32,84.74576271,,,,,,,,,,,,,,,,241.7031,242.75,242.75,243.9265,return,0.0566,,74.08854167,,,,,,FBP-YG-71.png,0.4,1.2,18,0.25,0,3,3,17,1,,,,,,,,,,,,,,,,,,,,,,,,,,,,,,,,,,,,,,,,
,,,,,SPR24_046,19,Female,2024-04-12_14h34.17.104,jersey_experiment_5_v0,2023.2.2,Win32,84.74576271,,,,,,,,,,,,,,,,243.9267,245.2206,245.2207,247.0795,return,0.1035,,98.69791667,,,,,,FBP-RB-81.png,0.43,1.2,39,0.5,0,4,4,38,1,,,,,,,,,,,,,,,,,,,,,,,,,,,,,,,,,,,,,,,,
,,,,,SPR24_046,19,Female,2024-04-12_14h34.17.104,jersey_experiment_5_v0,2023.2.2,Win32,84.74576271,,,,,,,,,,,,,,,,247.0797,248.1267,248.1267,250.1267,return,0.0903,,50.390625,,,,,,FBP-YG-91.png,0.35,1.2,26,0.25,0,5,5,25,1,,,,,,,,,,,,,,,,,,,,,,,,,,,,,,,,,,,,,,,,
,,,,,SPR24_046,19,Female,2024-04-12_14h34.17.104,jersey_experiment_5_v0,2023.2.2,Win32,84.74576271,,,,,,,,,,,,,,,,250.1269,251.4209,251.421,253.3505,return,0.1176,,50.390625,,,,,,FBP-RB-81.png,0.37,1.2,37,0.5,0,6,6,36,1,,,,,,,,,,,,,,,,,,,,,,,,,,,,,,,,,,,,,,,,
,,,,,SPR24_046,19,Female,2024-04-12_14h34.17.104,jersey_experiment_5_v0,2023.2.2,Win32,84.74576271,,,,,,,,,,,,,,,,253.3507,254.6447,254.6447,256.4563,return,0.1321,,86.06770833,,,,,,FBP-OG-18.png,0.4,1.2,8,0.5,0,7,7,7,1,,,,,,,,,,,,,,,,,,,,,,,,,,,,,,,,,,,,,,,,
,,,,,SPR24_046,19,Female,2024-04-12_14h34.17.104,jersey_experiment_5_v0,2023.2.2,Win32,84.74576271,,,,,,,,,,,,,,,,256.4566,257.7509,257.751,258.6917,return,0.0614,,99.21875,,,,,,FBP-OG-18.png,0.45,1.2,10,0.5,0,8,8,9,1,,,,,,,,,,,,,,,,,,,,,,,,,,,,,,,,,,,,,,,,
,,,,,SPR24_046,19,Female,2024-04-12_14h34.17.104,jersey_experiment_5_v0,2023.2.2,Win32,84.74576271,,,,,,,,,,,,,,,,258.6919,259.7388,259.739,261.7507,return,0.1179,,62.5,,,,,,FBP-YG-71.png,0.37,1.2,17,0.25,0,9,9,16,1,,,,,,,,,,,,,,,,,,,,,,,,,,,,,,,,,,,,,,,,
,,,,,SPR24_046,19,Female,2024-04-12_14h34.17.104,jersey_experiment_5_v0,2023.2.2,Win32,84.74576271,,,,,,,,,,,,,,,,261.7509,263.0451,263.0451,265.2332,return,0.7938,,50,,,,,,FBP-RB-71.png,0.35,1.2,31,0.5,0,10,10,30,1,,,,,,,,,,,,,,,,,,,,,,,,,,,,,,,,,,,,,,,,
,,,,,SPR24_046,19,Female,2024-04-12_14h34.17.104,jersey_experiment_5_v0,2023.2.2,Win32,84.74576271,,,,,,,,,,,,,,,,265.2334,266.5274,266.5274,267.9393,return,0.1094,,61.06770833,,,,,,FBP-OG-17.png,0.35,1.2,1,0.5,0,11,11,0,1,,,,,,,,,,,,,,,,,,,,,,,,,,,,,,,,,,,,,,,,
,,,,,SPR24_046,19,Female,2024-04-12_14h34.17.104,jersey_experiment_5_v0,2023.2.2,Win32,84.74576271,,,,,,,,,,,,,,,,267.9396,269.2333,269.2334,271.0922,return,0.1554,,98.95833333,,,,,,FBP-RB-91.png,0.43,1.2,44,0.5,0,12,12,43,1,,,,,,,,,,,,,,,,,,,,,,,,,,,,,,,,,,,,,,,,
,,,,,SPR24_046,19,Female,2024-04-12_14h34.17.104,jersey_experiment_5_v0,2023.2.2,Win32,84.74576271,,,,,,,,,,,,,,,,271.0924,272.1393,272.1393,272.7982,return,0.0175,,98.95833333,,,,,,FBP-PT-81.png,0.45,1.2,55,0.25,0,13,13,54,1,,,,,,,,,,,,,,,,,,,,,,,,,,,,,,,,,,,,,,,,
,,,,,SPR24_046,19,Female,2024-04-12_14h34.17.104,jersey_experiment_5_v0,2023.2.2,Win32,84.74576271,,,,,,,,,,,,,,,,272.7984,273.8453,273.8454,275.5865,return,0.0393,,62.23958333,,,,,,FBP-YG-91.png,0.37,1.2,27,0.25,0,14,14,26,1,,,,,,,,,,,,,,,,,,,,,,,,,,,,,,,,,,,,,,,,
,,,,,SPR24_046,19,Female,2024-04-12_14h34.17.104,jersey_experiment_5_v0,2023.2.2,Win32,84.74576271,,,,,,,,,,,,,,,,275.5867,276.8808,276.8808,278.4807,return,0.1679,,99.34895833,,,,,,FBP-OG-19.png,0.43,1.2,14,0.5,0,15,15,13,1,,,,,,,,,,,,,,,,,,,,,,,,,,,,,,,,,,,,,,,,
,,,,,SPR24_046,19,Female,2024-04-12_14h34.17.104,jersey_experiment_5_v0,2023.2.2,Win32,84.74576271,,,,,,,,,,,,,,,,278.4809,279.5278,279.5279,280.1984,return,0.0846,,99.34895833,,,,,,FBP-PT-71.png,0.45,1.2,50,0.25,0,16,16,49,1,,,,,,,,,,,,,,,,,,,,,,,,,,,,,,,,,,,,,,,,
,,,,,SPR24_046,19,Female,2024-04-12_14h34.17.104,jersey_experiment_5_v0,2023.2.2,Win32,84.74576271,,,,,,,,,,,,,,,,280.1986,281.4927,281.4927,283.0809,return,0.1514,,88.28125,,,,,,FBP-OG-17.png,0.4,1.2,3,0.5,0,17,17,2,1,,,,,,,,,,,,,,,,,,,,,,,,,,,,,,,,,,,,,,,,
,,,,,SPR24_046,19,Female,2024-04-12_14h34.17.104,jersey_experiment_5_v0,2023.2.2,Win32,84.74576271,,,,,,,,,,,,,,,,283.0813,284.128,284.1281,285.175,return,0.1884,,88.28125,,,,,,FBP-PT-71.png,0.4,1.2,48,0.25,0,18,18,47,1,,,,,,,,,,,,,,,,,,,,,,,,,,,,,,,,,,,,,,,,
,,,,,SPR24_046,19,Female,2024-04-12_14h34.17.104,jersey_experiment_5_v0,2023.2.2,Win32,84.74576271,,,,,,,,,,,,,,,,285.1751,286.4693,286.4694,287.5753,return,0.1413,,98.69791667,,,,,,FBP-OG-19.png,0.45,1.2,15,0.5,0,19,19,14,1,,,,,,,,,,,,,,,,,,,,,,,,,,,,,,,,,,,,,,,,
,,,,,SPR24_046,19,Female,2024-04-12_14h34.17.104,jersey_experiment_5_v0,2023.2.2,Win32,84.74576271,,,,,,,,,,,,,,,,287.5755,288.6223,288.6223,290.6693,return,0.4537,,64.32291667,,,,,,FBP-YG-71.png,0.35,1.2,16,0.25,0,20,20,15,1,,,,,,,,,,,,,,,,,,,,,,,,,,,,,,,,,,,,,,,,
,,,,,SPR24_046,19,Female,2024-04-12_14h34.17.104,jersey_experiment_5_v0,2023.2.2,Win32,84.74576271,,,,,,,,,,,,,,,,290.6695,291.7165,291.7166,293.3519,return,0.1885,,98.69791667,,,,,,FBP-PT-91.png,0.45,1.2,60,0.25,0,21,21,59,1,,,,,,,,,,,,,,,,,,,,,,,,,,,,,,,,,,,,,,,,
,,,,,SPR24_046,19,Female,2024-04-12_14h34.17.104,jersey_experiment_5_v0,2023.2.2,Win32,84.74576271,,,,,,,,,,,,,,,,293.3522,294.6461,294.6461,296.3402,return,0.0383,,61.45833333,,,,,,FBP-RB-71.png,0.43,1.2,34,0.5,0,22,22,33,1,,,,,,,,,,,,,,,,,,,,,,,,,,,,,,,,,,,,,,,,
,,,,,SPR24_046,19,Female,2024-04-12_14h34.17.104,jersey_experiment_5_v0,2023.2.2,Win32,84.74576271,,,,,,,,,,,,,,,,296.3405,297.3872,297.3872,299.2226,return,0.1413,,63.02083333,,,,,,FBP-PT-91.png,0.37,1.2,57,0.25,0,23,23,56,1,,,,,,,,,,,,,,,,,,,,,,,,,,,,,,,,,,,,,,,,
,,,,,SPR24_046,19,Female,2024-04-12_14h34.17.104,jersey_experiment_5_v0,2023.2.2,Win32,84.74576271,,,,,,,,,,,,,,,,299.2228,300.2697,300.2697,301.5875,return,0.109,,50.52083333,,,,,,FBP-PT-81.png,0.37,1.2,52,0.25,0,24,24,51,1,,,,,,,,,,,,,,,,,,,,,,,,,,,,,,,,,,,,,,,,
,,,,,SPR24_046,19,Female,2024-04-12_14h34.17.104,jersey_experiment_5_v0,2023.2.2,Win32,84.74576271,,,,,,,,,,,,,,,,301.5877,302.8816,302.8817,304.4465,return,0.1494,,39.0625,,,,,,FBP-OG-19.png,0.35,1.2,11,0.5,0,25,25,10,1,,,,,,,,,,,,,,,,,,,,,,,,,,,,,,,,,,,,,,,,
,,,,,SPR24_046,19,Female,2024-04-12_14h34.17.104,jersey_experiment_5_v0,2023.2.2,Win32,84.74576271,,,,,,,,,,,,,,,,304.4467,305.7406,305.7406,307.4583,return,0.1785,,63.28125,,,,,,FBP-OG-19.png,0.4,1.2,13,0.5,0,26,26,12,1,,,,,,,,,,,,,,,,,,,,,,,,,,,,,,,,,,,,,,,,
,,,,,SPR24_046,19,Female,2024-04-12_14h34.17.104,jersey_experiment_5_v0,2023.2.2,Win32,84.74576271,,,,,,,,,,,,,,,,307.4585,308.7523,308.7523,310.5526,return,0.2121,,91.27604167,,,,,,FBP-RB-71.png,0.45,1.2,35,0.5,0,27,27,34,1,,,,,,,,,,,,,,,,,,,,,,,,,,,,,,,,,,,,,,,,
,,,,,SPR24_046,19,Female,2024-04-12_14h34.17.104,jersey_experiment_5_v0,2023.2.2,Win32,84.74576271,,,,,,,,,,,,,,,,310.5527,311.5995,311.5996,313.3997,return,0.1178,,39.97395833,,,,,,FBP-PT-91.png,0.35,1.2,56,0.25,0,28,28,55,1,,,,,,,,,,,,,,,,,,,,,,,,,,,,,,,,,,,,,,,,
,,,,,SPR24_046,19,Female,2024-04-12_14h34.17.104,jersey_experiment_5_v0,2023.2.2,Win32,84.74576271,,,,,,,,,,,,,,,,313.3999,314.6939,314.6939,316.0938,return,0.2203,,26.69270833,,,,,,FBP-RB-81.png,0.35,1.2,36,0.5,0,29,29,35,1,,,,,,,,,,,,,,,,,,,,,,,,,,,,,,,,,,,,,,,,
,,,,,SPR24_046,19,Female,2024-04-12_14h34.17.104,jersey_experiment_5_v0,2023.2.2,Win32,84.74576271,,,,,,,,,,,,,,,,316.0941,317.1409,317.141,318.0821,return,0.1204,,24.86979167,,,,,,FBP-PT-71.png,0.35,1.2,46,0.25,0,30,30,45,1,,,,,,,,,,,,,,,,,,,,,,,,,,,,,,,,,,,,,,,,
,,,,,SPR24_046,19,Female,2024-04-12_14h34.17.104,jersey_experiment_5_v0,2023.2.2,Win32,84.74576271,,,,,,,,,,,,,,,,318.0824,319.3762,319.3762,320.753,return,0.2033,,49.34895833,,,,,,FBP-RB-91.png,0.4,1.2,43,0.5,0,31,31,42,1,,,,,,,,,,,,,,,,,,,,,,,,,,,,,,,,,,,,,,,,
,,,,,SPR24_046,19,Female,2024-04-12_14h34.17.104,jersey_experiment_5_v0,2023.2.2,Win32,84.74576271,,,,,,,,,,,,,,,,320.7532,322.0471,322.0471,323.6941,return,0.3142,,99.47916667,,,,,,FBP-OG-17.png,0.45,1.2,5,0.5,0,32,32,4,1,,,,,,,,,,,,,,,,,,,,,,,,,,,,,,,,,,,,,,,,
,,,,,SPR24_046,19,Female,2024-04-12_14h34.17.104,jersey_experiment_5_v0,2023.2.2,Win32,84.74576271,,,,,,,,,,,,,,,,323.6944,324.7414,324.7414,326.0707,return,0.7859,,83.984375,,,,,,FBP-YG-81.png,0.43,1.2,24,0.25,0,33,33,23,1,,,,,,,,,,,,,,,,,,,,,,,,,,,,,,,,,,,,,,,,
,,,,,SPR24_046,19,Female,2024-04-12_14h34.17.104,jersey_experiment_5_v0,2023.2.2,Win32,84.74576271,,,,,,,,,,,,,,,,326.0709,327.3647,327.3647,328.4708,return,0.1415,,99.08854167,,,,,,FBP-OG-17.png,0.43,1.2,4,0.5,0,34,34,3,1,,,,,,,,,,,,,,,,,,,,,,,,,,,,,,,,,,,,,,,,
,,,,,SPR24_046,19,Female,2024-04-12_14h34.17.104,jersey_experiment_5_v0,2023.2.2,Win32,84.74576271,,,,,,,,,,,,,,,,328.471,329.765,329.765,330.965,return,0.0017,,74.73958333,,,,,,FBP-RB-71.png,0.4,1.2,33,0.5,0,35,35,32,1,,,,,,,,,,,,,,,,,,,,,,,,,,,,,,,,,,,,,,,,
,,,,,SPR24_046,19,Female,2024-04-12_14h34.17.104,jersey_experiment_5_v0,2023.2.2,Win32,84.74576271,,,,,,,,,,,,,,,,330.9651,332.2591,332.2593,335.4006,return,0.1315,,98.95833333,,,,,,FBP-RB-91.png,0.45,1.2,45,0.5,0,36,36,44,1,,,,,,,,,,,,,,,,,,,,,,,,,,,,,,,,,,,,,,,,
,,,,,SPR24_046,19,Female,2024-04-12_14h34.17.104,jersey_experiment_5_v0,2023.2.2,Win32,84.74576271,,,,,,,,,,,,,,,,335.4007,336.4475,336.4476,337.5183,return,0.0438,,75.65104167,,,,,,FBP-YG-91.png,0.4,1.2,28,0.25,0,37,37,27,1,,,,,,,,,,,,,,,,,,,,,,,,,,,,,,,,,,,,,,,,
,,,,,SPR24_046,19,Female,2024-04-12_14h34.17.104,jersey_experiment_5_v0,2023.2.2,Win32,84.74576271,,,,,,,,,,,,,,,,337.5184,338.5653,338.5653,339.4242,return,0.2773,,75.78125,,,,,,FBP-PT-71.png,0.37,1.2,47,0.25,0,38,38,46,1,,,,,,,,,,,,,,,,,,,,,,,,,,,,,,,,,,,,,,,,
,,,,,SPR24_046,19,Female,2024-04-12_14h34.17.104,jersey_experiment_5_v0,2023.2.2,Win32,84.74576271,,,,,,,,,,,,,,,,339.4244,340.4712,340.4712,341.1535,return,0.0991,,75.78125,,,,,,FBP-YG-81.png,0.4,1.2,23,0.25,0,39,39,22,1,,,,,,,,,,,,,,,,,,,,,,,,,,,,,,,,,,,,,,,,
,,,,,SPR24_046,19,Female,2024-04-12_14h34.17.104,jersey_experiment_5_v0,2023.2.2,Win32,84.74576271,,,,,,,,,,,,,,,,341.1538,342.4479,342.4479,343.7304,return,0.1809,,36.58854167,,,,,,FBP-RB-71.png,0.37,1.2,32,0.5,0,40,40,31,1,,,,,,,,,,,,,,,,,,,,,,,,,,,,,,,,,,,,,,,,
,,,,,SPR24_046,19,Female,2024-04-12_14h34.17.104,jersey_experiment_5_v0,2023.2.2,Win32,84.74576271,,,,,,,,,,,,,,,,343.7305,344.7772,344.7772,346.2244,return,0.1451,,99.47916667,,,,,,FBP-PT-71.png,0.43,1.2,49,0.25,0,41,41,48,1,,,,,,,,,,,,,,,,,,,,,,,,,,,,,,,,,,,,,,,,
,,,,,SPR24_046,19,Female,2024-04-12_14h34.17.104,jersey_experiment_5_v0,2023.2.2,Win32,84.74576271,,,,,,,,,,,,,,,,346.2247,347.2714,347.2714,348.7068,return,0.0508,,74.86979167,,,,,,FBP-YG-81.png,0.45,1.2,25,0.25,0,42,42,24,1,,,,,,,,,,,,,,,,,,,,,,,,,,,,,,,,,,,,,,,,
,,,,,SPR24_046,19,Female,2024-04-12_14h34.17.104,jersey_experiment_5_v0,2023.2.2,Win32,84.74576271,,,,,,,,,,,,,,,,348.707,350.001,350.0011,351.2246,return,0.1416,,75.390625,,,,,,FBP-OG-18.png,0.43,1.2,9,0.5,0,43,43,8,1,,,,,,,,,,,,,,,,,,,,,,,,,,,,,,,,,,,,,,,,
,,,,,SPR24_046,19,Female,2024-04-12_14h34.17.104,jersey_experiment_5_v0,2023.2.2,Win32,84.74576271,,,,,,,,,,,,,,,,351.2248,352.2717,352.2717,353.8719,return,0.3477,,89.453125,,,,,,FBP-YG-91.png,0.43,1.2,29,0.25,0,44,44,28,1,,,,,,,,,,,,,,,,,,,,,,,,,,,,,,,,,,,,,,,,
,,,,,SPR24_046,19,Female,2024-04-12_14h34.17.104,jersey_experiment_5_v0,2023.2.2,Win32,84.74576271,,,,,,,,,,,,,,,,353.8721,354.9189,354.919,356.4366,return,0.0716,,86.84895833,,,,,,FBP-YG-91.png,0.45,1.2,30,0.25,0,45,45,29,1,,,,,,,,,,,,,,,,,,,,,,,,,,,,,,,,,,,,,,,,
,,,,,SPR24_046,19,Female,2024-04-12_14h34.17.104,jersey_experiment_5_v0,2023.2.2,Win32,84.74576271,,,,,,,,,,,,,,,,356.4368,357.4837,357.4837,358.4954,return,0.2422,,87.23958333,,,,,,FBP-PT-81.png,0.4,1.2,53,0.25,0,46,46,52,1,,,,,,,,,,,,,,,,,,,,,,,,,,,,,,,,,,,,,,,,
,,,,,SPR24_046,19,Female,2024-04-12_14h34.17.104,jersey_experiment_5_v0,2023.2.2,Win32,84.74576271,,,,,,,,,,,,,,,,358.4956,359.7898,359.7898,362.3192,return,0.8662,,51.04166667,,,,,,FBP-RB-91.png,0.37,1.2,42,0.5,0,47,47,41,1,,,,,,,,,,,,,,,,,,,,,,,,,,,,,,,,,,,,,,,,
,,,,,SPR24_046,19,Female,2024-04-12_14h34.17.104,jersey_experiment_5_v0,2023.2.2,Win32,84.74576271,,,,,,,,,,,,,,,,362.3194,363.6133,363.6134,364.5781,return,0.0028,,74.73958333,,,,,,FBP-RB-81.png,0.45,1.2,40,0.5,0,48,48,39,1,,,,,,,,,,,,,,,,,,,,,,,,,,,,,,,,,,,,,,,,
,,,,,SPR24_046,19,Female,2024-04-12_14h34.17.104,jersey_experiment_5_v0,2023.2.2,Win32,84.74576271,,,,,,,,,,,,,,,,364.5782,365.8721,365.8721,368.1312,return,0.2503,,0.130208333,,,,,,FBP-OG-18.png,0.35,1.2,6,0.5,0,49,49,5,1,,,,,,,,,,,,,,,,,,,,,,,,,,,,,,,,,,,,,,,,
,,,,,SPR24_046,19,Female,2024-04-12_14h34.17.104,jersey_experiment_5_v0,2023.2.2,Win32,84.74576271,,,,,,,,,,,,,,,,368.1315,369.1784,369.1784,371.7667,return,0.1414,,67.44791667,,,,,,FBP-YG-71.png,0.45,1.2,20,0.25,0,50,50,19,1,,,,,,,,,,,,,,,,,,,,,,,,,,,,,,,,,,,,,,,,
,,,,,SPR24_046,19,Female,2024-04-12_14h34.17.104,jersey_experiment_5_v0,2023.2.2,Win32,84.74576271,,,,,,,,,,,,,,,,371.7668,372.8135,372.8135,374.9669,return,0.2921,,2.473958333,,,,,,FBP-PT-81.png,0.35,1.2,51,0.25,0,51,51,50,1,,,,,,,,,,,,,,,,,,,,,,,,,,,,,,,,,,,,,,,,
,,,,,SPR24_046,19,Female,2024-04-12_14h34.17.104,jersey_experiment_5_v0,2023.2.2,Win32,84.74576271,,,,,,,,,,,,,,,,374.967,376.2607,376.2607,378.6962,return,0.1417,,0.911458333,,,,,,FBP-RB-91.png,0.35,1.2,41,0.5,0,52,52,40,1,,,,,,,,,,,,,,,,,,,,,,,,,,,,,,,,,,,,,,,,
,,,,,SPR24_046,19,Female,2024-04-12_14h34.17.104,jersey_experiment_5_v0,2023.2.2,Win32,84.74576271,,,,,,,,,,,,,,,,378.6965,379.7432,379.7433,381.3668,return,0.0567,,24.08854167,,,,,,FBP-PT-91.png,0.4,1.2,58,0.25,0,53,53,57,1,,,,,,,,,,,,,,,,,,,,,,,,,,,,,,,,,,,,,,,,
,,,,,SPR24_046,19,Female,2024-04-12_14h34.17.104,jersey_experiment_5_v0,2023.2.2,Win32,84.74576271,,,,,,,,,,,,,,,,381.367,382.6611,382.6611,383.4727,return,0.0503,,24.47916667,,,,,,FBP-OG-18.png,0.37,1.2,7,0.5,0,54,54,6,1,,,,,,,,,,,,,,,,,,,,,,,,,,,,,,,,,,,,,,,,
,,,,,SPR24_046,19,Female,2024-04-12_14h34.17.104,jersey_experiment_5_v0,2023.2.2,Win32,84.74576271,,,,,,,,,,,,,,,,383.4729,384.52,384.52,386.4729,return,0.2221,,49.609375,,,,,,FBP-YG-71.png,0.43,1.2,19,0.25,0,55,55,18,1,,,,,,,,,,,,,,,,,,,,,,,,,,,,,,,,,,,,,,,,
,,,,,SPR24_046,19,Female,2024-04-12_14h34.17.104,jersey_experiment_5_v0,2023.2.2,Win32,84.74576271,,,,,,,,,,,,,,,,386.4731,387.5201,387.5201,389.3436,return,0.1573,,75,,,,,,FBP-PT-81.png,0.43,1.2,54,0.25,0,56,56,53,1,,,,,,,,,,,,,,,,,,,,,,,,,,,,,,,,,,,,,,,,
,,,,,SPR24_046,19,Female,2024-04-12_14h34.17.104,jersey_experiment_5_v0,2023.2.2,Win32,84.74576271,,,,,,,,,,,,,,,,389.3438,390.6377,390.6378,392.3084,return,0.1291,,0.390625,,,,,,FBP-OG-19.png,0.37,1.2,12,0.5,0,57,57,11,1,,,,,,,,,,,,,,,,,,,,,,,,,,,,,,,,,,,,,,,,
,,,,,SPR24_046,19,Female,2024-04-12_14h34.17.104,jersey_experiment_5_v0,2023.2.2,Win32,84.74576271,,,,,,,,,,,,,,,,392.3087,393.3555,393.3555,395.0263,return,0.0867,,13.02083333,,,,,,FBP-YG-81.png,0.37,1.2,22,0.25,0,58,58,21,1,,,,,,,,,,,,,,,,,,,,,,,,,,,,,,,,,,,,,,,,
,,,,,SPR24_046,19,Female,2024-04-12_14h34.17.104,jersey_experiment_5_v0,2023.2.2,Win32,84.74576271,,,,,,,,,,,,,,,,395.0265,396.3204,396.3205,397.9675,return,0.2776,,49.34895833,,,,,,FBP-RB-81.png,0.4,1.2,38,0.5,0,59,59,37,1,,,,,,,,,,,,,,,,,,,,,,,,,,,,,,,,,,,,,,,,
,,,,,SPR24_046,19,Female,2024-04-12_14h34.17.104,jersey_experiment_5_v0,2023.2.2,Win32,84.74576271,,,,,,,,,,,,,,,,,,,,,,,,,,,,,,,,,,,,,,,397.9678,517.9603,,,,,,,,,,,,,,,,,,,,,,,,,,,,,,,,,,,,,,
,,,,,SPR24_046,19,Female,2024-04-12_14h34.17.104,jersey_experiment_5_v0,2023.2.2,Win32,84.74576271,,,,,,,,,,,,,,,,,,,,,,,,,,,,,,,,,,,,,,,,,517.9605,532.2433,return,14.2722,,,,,,,,,,,,,,,,,,,,,,,,,,,,,,,,,,
,,,,,SPR24_046,19,Female,2024-04-12_14h34.17.104,jersey_experiment_5_v0,2023.2.2,Win32,84.74576271,,,,,,,,,,,,,,,,532.2494,533.549,533.549,536.0079,return,0.5178,,98.17708333,,,,,,FBP-PT-18.png,0.43,1.2,54,0.5,,,,,,,,,,,,,0,0,0,53,1,,,,,,,,,,,,,,,,,,,,,,,,,,,,
,,,,,SPR24_046,19,Female,2024-04-12_14h34.17.104,jersey_experiment_5_v0,2023.2.2,Win32,84.74576271,,,,,,,,,,,,,,,,536.0081,537.055,537.055,538.6316,return,0.0611,,49.86979167,,,,,,FBP-RB-18.png,0.35,1.2,36,0.25,,,,,,,,,,,,,0,1,1,35,1,,,,,,,,,,,,,,,,,,,,,,,,,,,,
,,,,,SPR24_046,19,Female,2024-04-12_14h34.17.104,jersey_experiment_5_v0,2023.2.2,Win32,84.74576271,,,,,,,,,,,,,,,,538.6317,539.6785,539.6786,540.9612,return,0.0265,,63.15104167,,,,,,FBP-OG-71.png,0.4,1.2,3,0.25,,,,,,,,,,,,,0,2,2,2,1,,,,,,,,,,,,,,,,,,,,,,,,,,,,
,,,,,SPR24_046,19,Female,2024-04-12_14h34.17.104,jersey_experiment_5_v0,2023.2.2,Win32,84.74576271,,,,,,,,,,,,,,,,540.9614,542.2552,542.2552,542.914,return,0.0962,,63.28125,,,,,,FBP-PT-17.png,0.37,1.2,47,0.5,,,,,,,,,,,,,0,3,3,46,1,,,,,,,,,,,,,,,,,,,,,,,,,,,,
,,,,,SPR24_046,19,Female,2024-04-12_14h34.17.104,jersey_experiment_5_v0,2023.2.2,Win32,84.74576271,,,,,,,,,,,,,,,,542.9143,543.9611,543.9611,545.5731,return,0.5556,,75.390625,,,,,,FBP-RB-19.png,0.37,1.2,42,0.25,,,,,,,,,,,,,0,4,4,41,1,,,,,,,,,,,,,,,,,,,,,,,,,,,,
,,,,,SPR24_046,19,Female,2024-04-12_14h34.17.104,jersey_experiment_5_v0,2023.2.2,Win32,84.74576271,,,,,,,,,,,,,,,,545.5733,546.62,546.62,548.3026,return,0.0766,,49.47916667,,,,,,FBP-OG-91.png,0.35,1.2,11,0.25,,,,,,,,,,,,,0,5,5,10,1,,,,,,,,,,,,,,,,,,,,,,,,,,,,
,,,,,SPR24_046,19,Female,2024-04-12_14h34.17.104,jersey_experiment_5_v0,2023.2.2,Win32,84.74576271,,,,,,,,,,,,,,,,548.3028,549.5967,549.5967,551.926,return,0.5789,,85.41666667,,,,,,FBP-YG-18.png,0.43,1.2,24,0.5,,,,,,,,,,,,,0,6,6,23,1,,,,,,,,,,,,,,,,,,,,,,,,,,,,
,,,,,SPR24_046,19,Female,2024-04-12_14h34.17.104,jersey_experiment_5_v0,2023.2.2,Win32,84.74576271,,,,,,,,,,,,,,,,551.9263,553.2203,553.2203,553.8438,return,0.0828,,85.41666667,,,,,,FBP-YG-17.png,0.43,1.2,19,0.5,,,,,,,,,,,,,0,7,7,18,1,,,,,,,,,,,,,,,,,,,,,,,,,,,,
,,,,,SPR24_046,19,Female,2024-04-12_14h34.17.104,jersey_experiment_5_v0,2023.2.2,Win32,84.74576271,,,,,,,,,,,,,,,,553.8441,554.891,554.8911,555.4791,return,0.165,,85.41666667,,,,,,FBP-RB-19.png,0.45,1.2,45,0.25,,,,,,,,,,,,,0,8,8,44,1,,,,,,,,,,,,,,,,,,,,,,,,,,,,
,,,,,SPR24_046,19,Female,2024-04-12_14h34.17.104,jersey_experiment_5_v0,2023.2.2,Win32,84.74576271,,,,,,,,,,,,,,,,555.4794,556.7734,556.7734,558.0794,return,0.1815,,98.30729167,,,,,,FBP-PT-18.png,0.45,1.2,55,0.5,,,,,,,,,,,,,0,9,9,54,1,,,,,,,,,,,,,,,,,,,,,,,,,,,,
,,,,,SPR24_046,19,Female,2024-04-12_14h34.17.104,jersey_experiment_5_v0,2023.2.2,Win32,84.74576271,,,,,,,,,,,,,,,,558.0796,559.3733,559.3734,560.7499,return,0.0436,,36.97916667,,,,,,FBP-PT-19.png,0.35,1.2,56,0.5,,,,,,,,,,,,,0,10,10,55,1,,,,,,,,,,,,,,,,,,,,,,,,,,,,
,,,,,SPR24_046,19,Female,2024-04-12_14h34.17.104,jersey_experiment_5_v0,2023.2.2,Win32,84.74576271,,,,,,,,,,,,,,,,560.7502,562.0442,562.0442,563.4559,return,0.089,,75.26041667,,,,,,FBP-PT-17.png,0.4,1.2,48,0.5,,,,,,,,,,,,,0,11,11,47,1,,,,,,,,,,,,,,,,,,,,,,,,,,,,
,,,,,SPR24_046,19,Female,2024-04-12_14h34.17.104,jersey_experiment_5_v0,2023.2.2,Win32,84.74576271,,,,,,,,,,,,,,,,563.4561,564.7502,564.7502,565.8561,return,0.1358,,98.95833333,,,,,,FBP-PT-19.png,0.43,1.2,59,0.5,,,,,,,,,,,,,0,12,12,58,1,,,,,,,,,,,,,,,,,,,,,,,,,,,,
,,,,,SPR24_046,19,Female,2024-04-12_14h34.17.104,jersey_experiment_5_v0,2023.2.2,Win32,84.74576271,,,,,,,,,,,,,,,,565.8563,567.1502,567.1502,567.5738,return,0.0007,,98.95833333,,,,,,FBP-YG-18.png,0.45,1.2,25,0.5,,,,,,,,,,,,,0,13,13,24,1,,,,,,,,,,,,,,,,,,,,,,,,,,,,
,,,,,SPR24_046,19,Female,2024-04-12_14h34.17.104,jersey_experiment_5_v0,2023.2.2,Win32,84.74576271,,,,,,,,,,,,,,,,567.5741,568.6208,568.6208,570.0208,return,0.1649,,74.609375,,,,,,FBP-RB-18.png,0.37,1.2,37,0.25,,,,,,,,,,,,,0,14,14,36,1,,,,,,,,,,,,,,,,,,,,,,,,,,,,
,,,,,SPR24_046,19,Female,2024-04-12_14h34.17.104,jersey_experiment_5_v0,2023.2.2,Win32,84.74576271,,,,,,,,,,,,,,,,570.0211,571.068,571.068,572.4561,return,0.0707,,99.86979167,,,,,,FBP-OG-91.png,0.45,1.2,15,0.25,,,,,,,,,,,,,0,15,15,14,1,,,,,,,,,,,,,,,,,,,,,,,,,,,,
,,,,,SPR24_046,19,Female,2024-04-12_14h34.17.104,jersey_experiment_5_v0,2023.2.2,Win32,84.74576271,,,,,,,,,,,,,,,,572.4564,573.7505,573.7505,575.127,return,0.1784,,35.546875,,,,,,FBP-YG-18.png,0.35,1.2,21,0.5,,,,,,,,,,,,,0,16,16,20,1,,,,,,,,,,,,,,,,,,,,,,,,,,,,
,,,,,SPR24_046,19,Female,2024-04-12_14h34.17.104,jersey_experiment_5_v0,2023.2.2,Win32,84.74576271,,,,,,,,,,,,,,,,575.1272,576.1741,576.1741,577.5388,return,0.0982,,24.86979167,,,,,,FBP-OG-71.png,0.35,1.2,1,0.25,,,,,,,,,,,,,0,17,17,0,1,,,,,,,,,,,,,,,,,,,,,,,,,,,,
,,,,,SPR24_046,19,Female,2024-04-12_14h34.17.104,jersey_experiment_5_v0,2023.2.2,Win32,84.74576271,,,,,,,,,,,,,,,,577.539,578.8328,578.8328,580.7037,return,0.1688,,50.26041667,,,,,,FBP-PT-19.png,0.37,1.2,57,0.5,,,,,,,,,,,,,0,18,18,56,1,,,,,,,,,,,,,,,,,,,,,,,,,,,,
,,,,,SPR24_046,19,Female,2024-04-12_14h34.17.104,jersey_experiment_5_v0,2023.2.2,Win32,84.74576271,,,,,,,,,,,,,,,,580.7038,581.7507,581.7507,584.2803,return,0.0937,,99.21875,,,,,,FBP-RB-18.png,0.43,1.2,39,0.25,,,,,,,,,,,,,0,19,19,38,1,,,,,,,,,,,,,,,,,,,,,,,,,,,,
,,,,,SPR24_046,19,Female,2024-04-12_14h34.17.104,jersey_experiment_5_v0,2023.2.2,Win32,84.74576271,,,,,,,,,,,,,,,,584.2805,585.3272,585.3273,586.8568,return,0.0471,,99.86979167,,,,,,FBP-OG-71.png,0.43,1.2,4,0.25,,,,,,,,,,,,,0,20,20,3,1,,,,,,,,,,,,,,,,,,,,,,,,,,,,
,,,,,SPR24_046,19,Female,2024-04-12_14h34.17.104,jersey_experiment_5_v0,2023.2.2,Win32,84.74576271,,,,,,,,,,,,,,,,586.857,588.1509,588.151,588.657,return,0.121,,99.73958333,,,,,,FBP-YG-17.png,0.45,1.2,20,0.5,,,,,,,,,,,,,0,21,21,19,1,,,,,,,,,,,,,,,,,,,,,,,,,,,,
,,,,,SPR24_046,19,Female,2024-04-12_14h34.17.104,jersey_experiment_5_v0,2023.2.2,Win32,84.74576271,,,,,,,,,,,,,,,,588.6572,589.7039,589.7039,591.1511,return,0.0664,,75.13020833,,,,,,FBP-OG-91.png,0.4,1.2,13,0.25,,,,,,,,,,,,,0,22,22,12,1,,,,,,,,,,,,,,,,,,,,,,,,,,,,
,,,,,SPR24_046,19,Female,2024-04-12_14h34.17.104,jersey_experiment_5_v0,2023.2.2,Win32,84.74576271,,,,,,,,,,,,,,,,591.1513,592.1981,592.1981,593.763,return,0.0481,,97.52604167,,,,,,FBP-OG-91.png,0.43,1.2,14,0.25,,,,,,,,,,,,,0,23,23,13,1,,,,,,,,,,,,,,,,,,,,,,,,,,,,
,,,,,SPR24_046,19,Female,2024-04-12_14h34.17.104,jersey_experiment_5_v0,2023.2.2,Win32,84.74576271,,,,,,,,,,,,,,,,593.7632,594.8101,594.8101,595.9042,return,0.0513,,48.56770833,,,,,,FBP-OG-81.png,0.37,1.2,7,0.25,,,,,,,,,,,,,0,24,24,6,1,,,,,,,,,,,,,,,,,,,,,,,,,,,,
,,,,,SPR24_046,19,Female,2024-04-12_14h34.17.104,jersey_experiment_5_v0,2023.2.2,Win32,84.74576271,,,,,,,,,,,,,,,,595.9044,596.9512,596.9512,598.6102,return,0.1812,,90.10416667,,,,,,FBP-RB-18.png,0.45,1.2,40,0.25,,,,,,,,,,,,,0,25,25,39,1,,,,,,,,,,,,,,,,,,,,,,,,,,,,
,,,,,SPR24_046,19,Female,2024-04-12_14h34.17.104,jersey_experiment_5_v0,2023.2.2,Win32,84.74576271,,,,,,,,,,,,,,,,598.6105,599.6573,599.6573,600.2219,return,0.0885,,90.10416667,,,,,,FBP-OG-81.png,0.43,1.2,9,0.25,,,,,,,,,,,,,0,26,26,8,1,,,,,,,,,,,,,,,,,,,,,,,,,,,,
,,,,,SPR24_046,19,Female,2024-04-12_14h34.17.104,jersey_experiment_5_v0,2023.2.2,Win32,84.74576271,,,,,,,,,,,,,,,,600.2222,601.5161,601.5162,603.1868,return,0.0979,,24.609375,,,,,,FBP-PT-17.png,0.35,1.2,46,0.5,,,,,,,,,,,,,0,27,27,45,1,,,,,,,,,,,,,,,,,,,,,,,,,,,,
,,,,,SPR24_046,19,Female,2024-04-12_14h34.17.104,jersey_experiment_5_v0,2023.2.2,Win32,84.74576271,,,,,,,,,,,,,,,,603.187,604.481,604.481,606.1635,return,0.0857,,50.26041667,,,,,,FBP-PT-18.png,0.37,1.2,52,0.5,,,,,,,,,,,,,0,28,28,51,1,,,,,,,,,,,,,,,,,,,,,,,,,,,,
,,,,,SPR24_046,19,Female,2024-04-12_14h34.17.104,jersey_experiment_5_v0,2023.2.2,Win32,84.74576271,,,,,,,,,,,,,,,,606.1638,607.4576,607.4576,608.7518,return,0.0425,,98.828125,,,,,,FBP-YG-19.png,0.45,1.2,30,0.5,,,,,,,,,,,,,0,29,29,29,1,,,,,,,,,,,,,,,,,,,,,,,,,,,,
,,,,,SPR24_046,19,Female,2024-04-12_14h34.17.104,jersey_experiment_5_v0,2023.2.2,Win32,84.74576271,,,,,,,,,,,,,,,,608.7521,610.0459,610.046,611.8578,return,0.1815,,0.911458333,,,,,,FBP-PT-18.png,0.35,1.2,51,0.5,,,,,,,,,,,,,0,30,30,50,1,,,,,,,,,,,,,,,,,,,,,,,,,,,,
,,,,,SPR24_046,19,Female,2024-04-12_14h34.17.104,jersey_experiment_5_v0,2023.2.2,Win32,84.74576271,,,,,,,,,,,,,,,,611.858,612.9049,612.9049,614.2225,return,0.1022,,25.91145833,,,,,,FBP-RB-19.png,0.35,1.2,41,0.25,,,,,,,,,,,,,0,31,31,40,1,,,,,,,,,,,,,,,,,,,,,,,,,,,,
,,,,,SPR24_046,19,Female,2024-04-12_14h34.17.104,jersey_experiment_5_v0,2023.2.2,Win32,84.74576271,,,,,,,,,,,,,,,,614.2227,615.2697,615.2697,616.258,return,0.0493,,49.47916667,,,,,,FBP-OG-81.png,0.4,1.2,8,0.25,,,,,,,,,,,,,0,32,32,7,1,,,,,,,,,,,,,,,,,,,,,,,,,,,,
,,,,,SPR24_046,19,Female,2024-04-12_14h34.17.104,jersey_experiment_5_v0,2023.2.2,Win32,84.74576271,,,,,,,,,,,,,,,,616.2582,617.305,617.305,618.9169,return,0.9414,,26.171875,,,,,,FBP-RB-17.png,0.37,1.2,32,0.25,,,,,,,,,,,,,0,33,33,31,1,,,,,,,,,,,,,,,,,,,,,,,,,,,,
,,,,,SPR24_046,19,Female,2024-04-12_14h34.17.104,jersey_experiment_5_v0,2023.2.2,Win32,84.74576271,,,,,,,,,,,,,,,,618.9172,619.9638,619.9638,621.0583,return,0.0397,,75.13020833,,,,,,FBP-RB-17.png,0.43,1.2,34,0.25,,,,,,,,,,,,,0,34,34,33,1,,,,,,,,,,,,,,,,,,,,,,,,,,,,
,,,,,SPR24_046,19,Female,2024-04-12_14h34.17.104,jersey_experiment_5_v0,2023.2.2,Win32,84.74576271,,,,,,,,,,,,,,,,621.0585,622.1052,622.1052,623.2816,return,0.0755,,75,,,,,,FBP-RB-18.png,0.4,1.2,38,0.25,,,,,,,,,,,,,0,35,35,37,1,,,,,,,,,,,,,,,,,,,,,,,,,,,,
,,,,,SPR24_046,19,Female,2024-04-12_14h34.17.104,jersey_experiment_5_v0,2023.2.2,Win32,84.74576271,,,,,,,,,,,,,,,,623.2818,624.5758,624.5758,625.67,return,0.0609,,49.86979167,,,,,,FBP-YG-17.png,0.35,1.2,16,0.5,,,,,,,,,,,,,0,36,36,15,1,,,,,,,,,,,,,,,,,,,,,,,,,,,,
,,,,,SPR24_046,19,Female,2024-04-12_14h34.17.104,jersey_experiment_5_v0,2023.2.2,Win32,84.74576271,,,,,,,,,,,,,,,,625.6703,626.9642,626.9642,628.5643,return,0.6497,,24.34895833,,,,,,FBP-YG-19.png,0.35,1.2,26,0.5,,,,,,,,,,,,,0,37,37,25,1,,,,,,,,,,,,,,,,,,,,,,,,,,,,
,,,,,SPR24_046,19,Female,2024-04-12_14h34.17.104,jersey_experiment_5_v0,2023.2.2,Win32,84.74576271,,,,,,,,,,,,,,,,628.5645,629.8584,629.8584,631.3173,return,0.6261,,49.47916667,,,,,,FBP-YG-18.png,0.4,1.2,23,0.5,,,,,,,,,,,,,0,38,38,22,1,,,,,,,,,,,,,,,,,,,,,,,,,,,,
,,,,,SPR24_046,19,Female,2024-04-12_14h34.17.104,jersey_experiment_5_v0,2023.2.2,Win32,84.74576271,,,,,,,,,,,,,,,,631.3176,632.3642,632.3643,633.9174,return,0.5977,,25.26041667,,,,,,FBP-RB-17.png,0.35,1.2,31,0.25,,,,,,,,,,,,,0,39,39,30,1,,,,,,,,,,,,,,,,,,,,,,,,,,,,
,,,,,SPR24_046,19,Female,2024-04-12_14h34.17.104,jersey_experiment_5_v0,2023.2.2,Win32,84.74576271,,,,,,,,,,,,,,,,633.9176,635.2116,635.2116,637.2469,return,0.9937,,75.13020833,,,,,,FBP-PT-19.png,0.45,1.2,60,0.5,,,,,,,,,,,,,0,40,40,59,1,,,,,,,,,,,,,,,,,,,,,,,,,,,,
,,,,,SPR24_046,19,Female,2024-04-12_14h34.17.104,jersey_experiment_5_v0,2023.2.2,Win32,84.74576271,,,,,,,,,,,,,,,,637.2471,638.2939,638.294,640.6589,return,0.6137,,24.73958333,,,,,,FBP-OG-91.png,0.37,1.2,12,0.25,,,,,,,,,,,,,0,41,41,11,1,,,,,,,,,,,,,,,,,,,,,,,,,,,,
,,,,,SPR24_046,19,Female,2024-04-12_14h34.17.104,jersey_experiment_5_v0,2023.2.2,Win32,84.74576271,,,,,,,,,,,,,,,,640.6591,641.706,641.7061,644.3883,return,0.153,,1.041666667,,,,,,FBP-OG-81.png,0.35,1.2,6,0.25,,,,,,,,,,,,,0,42,42,5,1,,,,,,,,,,,,,,,,,,,,,,,,,,,,
,,,,,SPR24_046,19,Female,2024-04-12_14h34.17.104,jersey_experiment_5_v0,2023.2.2,Win32,84.74576271,,,,,,,,,,,,,,,,644.3884,645.4354,645.4355,647.2002,return,0.2062,,25,,,,,,FBP-OG-71.png,0.37,1.2,2,0.25,,,,,,,,,,,,,0,43,43,1,1,,,,,,,,,,,,,,,,,,,,,,,,,,,,
,,,,,SPR24_046,19,Female,2024-04-12_14h34.17.104,jersey_experiment_5_v0,2023.2.2,Win32,84.74576271,,,,,,,,,,,,,,,,647.2004,648.4944,648.4944,649.9532,return,0.1682,,74.47916667,,,,,,FBP-PT-19.png,0.4,1.2,58,0.5,,,,,,,,,,,,,0,44,44,57,1,,,,,,,,,,,,,,,,,,,,,,,,,,,,
,,,,,SPR24_046,19,Female,2024-04-12_14h34.17.104,jersey_experiment_5_v0,2023.2.2,Win32,84.74576271,,,,,,,,,,,,,,,,649.9535,651.2475,651.2475,652.2945,return,0.1649,,74.21875,,,,,,FBP-YG-19.png,0.4,1.2,28,0.5,,,,,,,,,,,,,0,45,45,27,1,,,,,,,,,,,,,,,,,,,,,,,,,,,,
,,,,,SPR24_046,19,Female,2024-04-12_14h34.17.104,jersey_experiment_5_v0,2023.2.2,Win32,84.74576271,,,,,,,,,,,,,,,,652.2947,653.3417,653.3417,654.3887,return,0.105,,74.21875,,,,,,FBP-RB-19.png,0.4,1.2,43,0.25,,,,,,,,,,,,,0,46,46,42,1,,,,,,,,,,,,,,,,,,,,,,,,,,,,
,,,,,SPR24_046,19,Female,2024-04-12_14h34.17.104,jersey_experiment_5_v0,2023.2.2,Win32,84.74576271,,,,,,,,,,,,,,,,654.3889,655.6827,655.6827,656.8005,return,0.1213,,50.78125,,,,,,FBP-PT-18.png,0.4,1.2,53,0.5,,,,,,,,,,,,,0,47,47,52,1,,,,,,,,,,,,,,,,,,,,,,,,,,,,
,,,,,SPR24_046,19,Female,2024-04-12_14h34.17.104,jersey_experiment_5_v0,2023.2.2,Win32,84.74576271,,,,,,,,,,,,,,,,656.8008,658.0947,658.0948,658.7652,return,0.2445,,50.78125,,,,,,FBP-YG-17.png,0.37,1.2,17,0.5,,,,,,,,,,,,,0,48,48,16,1,,,,,,,,,,,,,,,,,,,,,,,,,,,,
,,,,,SPR24_046,19,Female,2024-04-12_14h34.17.104,jersey_experiment_5_v0,2023.2.2,Win32,84.74576271,,,,,,,,,,,,,,,,658.7653,660.0596,660.0596,660.5772,return,0.0617,,50.78125,,,,,,FBP-YG-19.png,0.37,1.2,27,0.5,,,,,,,,,,,,,0,49,49,26,1,,,,,,,,,,,,,,,,,,,,,,,,,,,,
,,,,,SPR24_046,19,Female,2024-04-12_14h34.17.104,jersey_experiment_5_v0,2023.2.2,Win32,84.74576271,,,,,,,,,,,,,,,,660.5775,661.6243,661.6243,662.8244,return,0.1087,,99.86979167,,,,,,FBP-OG-81.png,0.45,1.2,10,0.25,,,,,,,,,,,,,0,50,50,9,1,,,,,,,,,,,,,,,,,,,,,,,,,,,,
,,,,,SPR24_046,19,Female,2024-04-12_14h34.17.104,jersey_experiment_5_v0,2023.2.2,Win32,84.74576271,,,,,,,,,,,,,,,,662.8246,663.8713,663.8713,664.6008,return,0.2679,,99.86979167,,,,,,FBP-RB-19.png,0.43,1.2,44,0.25,,,,,,,,,,,,,0,51,51,43,1,,,,,,,,,,,,,,,,,,,,,,,,,,,,
,,,,,SPR24_046,19,Female,2024-04-12_14h34.17.104,jersey_experiment_5_v0,2023.2.2,Win32,84.74576271,,,,,,,,,,,,,,,,664.6009,665.6481,665.6481,666.695,return,0.188,,99.86979167,,,,,,FBP-RB-17.png,0.4,1.2,33,0.25,,,,,,,,,,,,,0,52,52,32,1,,,,,,,,,,,,,,,,,,,,,,,,,,,,
,,,,,SPR24_046,19,Female,2024-04-12_14h34.17.104,jersey_experiment_5_v0,2023.2.2,Win32,84.74576271,,,,,,,,,,,,,,,,666.6953,667.9891,667.9891,668.5422,return,0.1474,,99.86979167,,,,,,FBP-PT-17.png,0.45,1.2,50,0.5,,,,,,,,,,,,,0,53,53,49,1,,,,,,,,,,,,,,,,,,,,,,,,,,,,
,,,,,SPR24_046,19,Female,2024-04-12_14h34.17.104,jersey_experiment_5_v0,2023.2.2,Win32,84.74576271,,,,,,,,,,,,,,,,668.5423,669.5892,669.5892,670.1304,return,0.1313,,99.86979167,,,,,,FBP-OG-71.png,0.45,1.2,5,0.25,,,,,,,,,,,,,0,54,54,4,1,,,,,,,,,,,,,,,,,,,,,,,,,,,,
,,,,,SPR24_046,19,Female,2024-04-12_14h34.17.104,jersey_experiment_5_v0,2023.2.2,Win32,84.74576271,,,,,,,,,,,,,,,,670.1305,671.1775,671.1775,671.7305,return,0.1548,,99.86979167,,,,,,FBP-RB-17.png,0.45,1.2,35,0.25,,,,,,,,,,,,,0,55,55,34,1,,,,,,,,,,,,,,,,,,,,,,,,,,,,
,,,,,SPR24_046,19,Female,2024-04-12_14h34.17.104,jersey_experiment_5_v0,2023.2.2,Win32,84.74576271,,,,,,,,,,,,,,,,671.7309,673.0246,673.0246,674.26,return,0.2028,,49.34895833,,,,,,FBP-YG-17.png,0.4,1.2,18,0.5,,,,,,,,,,,,,0,56,56,17,1,,,,,,,,,,,,,,,,,,,,,,,,,,,,
,,,,,SPR24_046,19,Female,2024-04-12_14h34.17.104,jersey_experiment_5_v0,2023.2.2,Win32,84.74576271,,,,,,,,,,,,,,,,674.2602,675.5543,675.5543,676.4484,return,0.0982,,25.13020833,,,,,,FBP-YG-18.png,0.37,1.2,22,0.5,,,,,,,,,,,,,0,57,57,21,1,,,,,,,,,,,,,,,,,,,,,,,,,,,,
,,,,,SPR24_046,19,Female,2024-04-12_14h34.17.104,jersey_experiment_5_v0,2023.2.2,Win32,84.74576271,,,,,,,,,,,,,,,,676.4486,677.7424,677.7425,679.3895,return,0.0911,,74.34895833,,,,,,FBP-YG-19.png,0.43,1.2,29,0.5,,,,,,,,,,,,,0,58,58,28,1,,,,,,,,,,,,,,,,,,,,,,,,,,,,
,,,,,SPR24_046,19,Female,2024-04-12_14h34.17.104,jersey_experiment_5_v0,2023.2.2,Win32,84.74576271,,,,,,,,,,,,,,,,679.3896,680.6838,680.6839,681.5543,return,0.1098,,74.34895833,,,,,,FBP-PT-17.png,0.43,1.2,49,0.5,,,,,,,,,,,,,0,59,59,48,1,,,,,,,,,,,,,,,,,,,,,,,,,,,,
,,,,,SPR24_046,19,Female,2024-04-12_14h34.17.104,jersey_experiment_5_v0,2023.2.2,Win32,84.74576271,,,,,,,,,,,,,,,,681.5555,682.8486,682.8486,684.0368,return,0.1756,,49.08854167,,,,,,FBP-YG-91.png,0.37,1.2,27,0.5,,,,,,,,,,,,,,,,,,0,0,0,26,1,,,,,,,,,,,,,,,,,,,,,,,
,,,,,SPR24_046,19,Female,2024-04-12_14h34.17.104,jersey_experiment_5_v0,2023.2.2,Win32,84.74576271,,,,,,,,,,,,,,,,684.0371,685.3308,685.3308,686.3663,return,0.0789,,0.130208333,,,,,,FBP-PT-71.png,0.35,1.2,46,0.5,,,,,,,,,,,,,,,,,,0,1,1,45,1,,,,,,,,,,,,,,,,,,,,,,,
,,,,,SPR24_046,19,Female,2024-04-12_14h34.17.104,jersey_experiment_5_v0,2023.2.2,Win32,84.74576271,,,,,,,,,,,,,,,,686.3665,687.4135,687.4135,688.1664,return,0.1086,,0.130208333,,,,,,FBP-OG-18.png,0.37,1.2,7,0.25,,,,,,,,,,,,,,,,,,0,2,2,6,1,,,,,,,,,,,,,,,,,,,,,,,
,,,,,SPR24_046,19,Female,2024-04-12_14h34.17.104,jersey_experiment_5_v0,2023.2.2,Win32,84.74576271,,,,,,,,,,,,,,,,688.1667,689.2134,689.2136,690.8723,return,0.2264,,74.609375,,,,,,FBP-OG-19.png,0.43,1.2,14,0.25,,,,,,,,,,,,,,,,,,0,3,3,13,1,,,,,,,,,,,,,,,,,,,,,,,
,,,,,SPR24_046,19,Female,2024-04-12_14h34.17.104,jersey_experiment_5_v0,2023.2.2,Win32,84.74576271,,,,,,,,,,,,,,,,690.8724,691.9194,691.9195,692.9901,return,0.0904,,98.30729167,,,,,,FBP-RB-91.png,0.43,1.2,44,0.25,,,,,,,,,,,,,,,,,,0,4,4,43,1,,,,,,,,,,,,,,,,,,,,,,,
,,,,,SPR24_046,19,Female,2024-04-12_14h34.17.104,jersey_experiment_5_v0,2023.2.2,Win32,84.74576271,,,,,,,,,,,,,,,,692.9904,694.2842,694.2843,695.1197,return,0.1011,,75,,,,,,FBP-YG-91.png,0.4,1.2,28,0.5,,,,,,,,,,,,,,,,,,0,5,5,27,1,,,,,,,,,,,,,,,,,,,,,,,
,,,,,SPR24_046,19,Female,2024-04-12_14h34.17.104,jersey_experiment_5_v0,2023.2.2,Win32,84.74576271,,,,,,,,,,,,,,,,695.1199,696.1666,696.1667,697.5902,return,0.0801,,50.52083333,,,,,,FBP-OG-17.png,0.4,1.2,3,0.25,,,,,,,,,,,,,,,,,,0,6,6,2,1,,,,,,,,,,,,,,,,,,,,,,,
,,,,,SPR24_046,19,Female,2024-04-12_14h34.17.104,jersey_experiment_5_v0,2023.2.2,Win32,84.74576271,,,,,,,,,,,,,,,,697.5903,698.8844,698.8844,700.2256,return,0.0989,,99.34895833,,,,,,FBP-YG-71.png,0.45,1.2,20,0.5,,,,,,,,,,,,,,,,,,0,7,7,19,1,,,,,,,,,,,,,,,,,,,,,,,
,,,,,SPR24_046,19,Female,2024-04-12_14h34.17.104,jersey_experiment_5_v0,2023.2.2,Win32,84.74576271,,,,,,,,,,,,,,,,700.2258,701.5198,701.5198,701.8963,return,0.0333,,99.34895833,,,,,,FBP-PT-91.png,0.45,1.2,60,0.5,,,,,,,,,,,,,,,,,,0,8,8,59,1,,,,,,,,,,,,,,,,,,,,,,,
,,,,,SPR24_046,19,Female,2024-04-12_14h34.17.104,jersey_experiment_5_v0,2023.2.2,Win32,84.74576271,,,,,,,,,,,,,,,,701.8964,702.9434,702.9434,705.12,return,1.042,,25.13020833,,,,,,FBP-RB-91.png,0.35,1.2,41,0.25,,,,,,,,,,,,,,,,,,0,9,9,40,1,,,,,,,,,,,,,,,,,,,,,,,
,,,,,SPR24_046,19,Female,2024-04-12_14h34.17.104,jersey_experiment_5_v0,2023.2.2,Win32,84.74576271,,,,,,,,,,,,,,,,705.1202,706.1671,706.1671,707.7435,return,0.1599,,0.651041667,,,,,,FBP-OG-18.png,0.4,1.2,8,0.25,,,,,,,,,,,,,,,,,,0,10,10,7,1,,,,,,,,,,,,,,,,,,,,,,,
,,,,,SPR24_046,19,Female,2024-04-12_14h34.17.104,jersey_experiment_5_v0,2023.2.2,Win32,84.74576271,,,,,,,,,,,,,,,,707.7438,708.7907,708.7907,710.4613,return,0.08,,75.91145833,,,,,,FBP-RB-71.png,0.45,1.2,35,0.25,,,,,,,,,,,,,,,,,,0,11,11,34,1,,,,,,,,,,,,,,,,,,,,,,,
,,,,,SPR24_046,19,Female,2024-04-12_14h34.17.104,jersey_experiment_5_v0,2023.2.2,Win32,84.74576271,,,,,,,,,,,,,,,,710.4615,711.7553,711.7554,712.4849,return,0.0815,,75.91145833,,,,,,FBP-YG-71.png,0.43,1.2,19,0.5,,,,,,,,,,,,,,,,,,0,12,12,18,1,,,,,,,,,,,,,,,,,,,,,,,
,,,,,SPR24_046,19,Female,2024-04-12_14h34.17.104,jersey_experiment_5_v0,2023.2.2,Win32,84.74576271,,,,,,,,,,,,,,,,712.485,713.779,713.779,714.9321,return,0.1201,,98.828125,,,,,,FBP-PT-81.png,0.43,1.2,54,0.5,,,,,,,,,,,,,,,,,,0,13,13,53,1,,,,,,,,,,,,,,,,,,,,,,,
,,,,,SPR24_046,19,Female,2024-04-12_14h34.17.104,jersey_experiment_5_v0,2023.2.2,Win32,84.74576271,,,,,,,,,,,,,,,,714.9324,716.2262,716.2263,717.6851,return,0.0814,,48.828125,,,,,,FBP-PT-71.png,0.4,1.2,48,0.5,,,,,,,,,,,,,,,,,,0,14,14,47,1,,,,,,,,,,,,,,,,,,,,,,,
,,,,,SPR24_046,19,Female,2024-04-12_14h34.17.104,jersey_experiment_5_v0,2023.2.2,Win32,84.74576271,,,,,,,,,,,,,,,,717.6852,718.7322,718.7322,720.4147,return,0.1491,,0.911458333,,,,,,FBP-OG-19.png,0.37,1.2,12,0.25,,,,,,,,,,,,,,,,,,0,15,15,11,1,,,,,,,,,,,,,,,,,,,,,,,
,,,,,SPR24_046,19,Female,2024-04-12_14h34.17.104,jersey_experiment_5_v0,2023.2.2,Win32,84.74576271,,,,,,,,,,,,,,,,720.4148,721.4617,721.4618,722.7442,return,0.2357,,26.04166667,,,,,,FBP-RB-81.png,0.37,1.2,37,0.25,,,,,,,,,,,,,,,,,,0,16,16,36,1,,,,,,,,,,,,,,,,,,,,,,,
,,,,,SPR24_046,19,Female,2024-04-12_14h34.17.104,jersey_experiment_5_v0,2023.2.2,Win32,84.74576271,,,,,,,,,,,,,,,,722.7445,724.0382,724.0382,724.6853,return,0.0676,,25.65104167,,,,,,FBP-YG-71.png,0.35,1.2,16,0.5,,,,,,,,,,,,,,,,,,0,17,17,15,1,,,,,,,,,,,,,,,,,,,,,,,
,,,,,SPR24_046,19,Female,2024-04-12_14h34.17.104,jersey_experiment_5_v0,2023.2.2,Win32,84.74576271,,,,,,,,,,,,,,,,724.6855,725.7326,725.7326,727.3324,return,0.2697,,51.43229167,,,,,,FBP-RB-91.png,0.37,1.2,42,0.25,,,,,,,,,,,,,,,,,,0,18,18,41,1,,,,,,,,,,,,,,,,,,,,,,,
,,,,,SPR24_046,19,Female,2024-04-12_14h34.17.104,jersey_experiment_5_v0,2023.2.2,Win32,84.74576271,,,,,,,,,,,,,,,,727.3327,728.3798,728.3798,729.4856,return,0.1009,,24.08854167,,,,,,FBP-OG-18.png,0.35,1.2,6,0.25,,,,,,,,,,,,,,,,,,0,19,19,5,1,,,,,,,,,,,,,,,,,,,,,,,
,,,,,SPR24_046,19,Female,2024-04-12_14h34.17.104,jersey_experiment_5_v0,2023.2.2,Win32,84.74576271,,,,,,,,,,,,,,,,729.4859,730.7797,730.7798,732.4974,return,0.0497,,74.86979167,,,,,,FBP-YG-91.png,0.43,1.2,29,0.5,,,,,,,,,,,,,,,,,,0,20,20,28,1,,,,,,,,,,,,,,,,,,,,,,,
,,,,,SPR24_046,19,Female,2024-04-12_14h34.17.104,jersey_experiment_5_v0,2023.2.2,Win32,84.74576271,,,,,,,,,,,,,,,,732.4976,733.5446,733.5446,735.7682,return,0.1888,,99.73958333,,,,,,FBP-RB-91.png,0.45,1.2,45,0.25,,,,,,,,,,,,,,,,,,0,21,21,44,1,,,,,,,,,,,,,,,,,,,,,,,
,,,,,SPR24_046,19,Female,2024-04-12_14h34.17.104,jersey_experiment_5_v0,2023.2.2,Win32,84.74576271,,,,,,,,,,,,,,,,735.7684,736.8152,736.8152,737.3447,return,0.0974,,99.34895833,,,,,,FBP-RB-81.png,0.45,1.2,40,0.25,,,,,,,,,,,,,,,,,,0,22,22,39,1,,,,,,,,,,,,,,,,,,,,,,,
,,,,,SPR24_046,19,Female,2024-04-12_14h34.17.104,jersey_experiment_5_v0,2023.2.2,Win32,84.74576271,,,,,,,,,,,,,,,,737.3449,738.3917,738.3917,739.7329,return,0.0958,,50,,,,,,FBP-RB-81.png,0.4,1.2,38,0.25,,,,,,,,,,,,,,,,,,0,23,23,37,1,,,,,,,,,,,,,,,,,,,,,,,
,,,,,SPR24_046,19,Female,2024-04-12_14h34.17.104,jersey_experiment_5_v0,2023.2.2,Win32,84.74576271,,,,,,,,,,,,,,,,739.7331,741.0272,741.0272,742.4624,return,0.0642,,63.80208333,,,,,,FBP-YG-81.png,0.37,1.2,22,0.5,,,,,,,,,,,,,,,,,,0,24,24,21,1,,,,,,,,,,,,,,,,,,,,,,,
,,,,,SPR24_046,19,Female,2024-04-12_14h34.17.104,jersey_experiment_5_v0,2023.2.2,Win32,84.74576271,,,,,,,,,,,,,,,,742.4625,743.5096,743.5096,745.4391,return,0.6877,,50.91145833,,,,,,FBP-RB-71.png,0.37,1.2,32,0.25,,,,,,,,,,,,,,,,,,0,25,25,31,1,,,,,,,,,,,,,,,,,,,,,,,
,,,,,SPR24_046,19,Female,2024-04-12_14h34.17.104,jersey_experiment_5_v0,2023.2.2,Win32,84.74576271,,,,,,,,,,,,,,,,745.4394,746.7332,746.7332,747.7097,return,0.0557,,26.04166667,,,,,,FBP-PT-71.png,0.37,1.2,47,0.5,,,,,,,,,,,,,,,,,,0,26,26,46,1,,,,,,,,,,,,,,,,,,,,,,,
,,,,,SPR24_046,19,Female,2024-04-12_14h34.17.104,jersey_experiment_5_v0,2023.2.2,Win32,84.74576271,,,,,,,,,,,,,,,,747.7098,748.757,748.757,750.5099,return,0.4557,,75.26041667,,,,,,FBP-RB-91.png,0.4,1.2,43,0.25,,,,,,,,,,,,,,,,,,0,27,27,42,1,,,,,,,,,,,,,,,,,,,,,,,
,,,,,SPR24_046,19,Female,2024-04-12_14h34.17.104,jersey_experiment_5_v0,2023.2.2,Win32,84.74576271,,,,,,,,,,,,,,,,750.51,751.804,751.804,752.6629,return,0.0853,,97.91666667,,,,,,FBP-PT-71.png,0.45,1.2,50,0.5,,,,,,,,,,,,,,,,,,0,28,28,49,1,,,,,,,,,,,,,,,,,,,,,,,
,,,,,SPR24_046,19,Female,2024-04-12_14h34.17.104,jersey_experiment_5_v0,2023.2.2,Win32,84.74576271,,,,,,,,,,,,,,,,752.6631,753.9569,753.957,755.1102,return,0.0145,,74.86979167,,,,,,FBP-PT-81.png,0.4,1.2,53,0.5,,,,,,,,,,,,,,,,,,0,29,29,52,1,,,,,,,,,,,,,,,,,,,,,,,
,,,,,SPR24_046,19,Female,2024-04-12_14h34.17.104,jersey_experiment_5_v0,2023.2.2,Win32,84.74576271,,,,,,,,,,,,,,,,755.1104,756.4043,756.4044,757.4632,return,0.0853,,99.34895833,,,,,,FBP-PT-81.png,0.45,1.2,55,0.5,,,,,,,,,,,,,,,,,,0,30,30,54,1,,,,,,,,,,,,,,,,,,,,,,,
,,,,,SPR24_046,19,Female,2024-04-12_14h34.17.104,jersey_experiment_5_v0,2023.2.2,Win32,84.74576271,,,,,,,,,,,,,,,,757.4635,758.51,758.5101,759.7807,return,0.096,,0.651041667,,,,,,FBP-OG-19.png,0.35,1.2,11,0.25,,,,,,,,,,,,,,,,,,0,31,31,10,1,,,,,,,,,,,,,,,,,,,,,,,
,,,,,SPR24_046,19,Female,2024-04-12_14h34.17.104,jersey_experiment_5_v0,2023.2.2,Win32,84.74576271,,,,,,,,,,,,,,,,759.7809,760.828,760.828,762.5104,return,0.1123,,99.47916667,,,,,,FBP-RB-81.png,0.43,1.2,39,0.25,,,,,,,,,,,,,,,,,,0,32,32,38,1,,,,,,,,,,,,,,,,,,,,,,,
,,,,,SPR24_046,19,Female,2024-04-12_14h34.17.104,jersey_experiment_5_v0,2023.2.2,Win32,84.74576271,,,,,,,,,,,,,,,,762.5107,763.5576,763.5577,764.8634,return,0.1016,,1.5625,,,,,,FBP-RB-81.png,0.35,1.2,36,0.25,,,,,,,,,,,,,,,,,,0,33,33,35,1,,,,,,,,,,,,,,,,,,,,,,,
,,,,,SPR24_046,19,Female,2024-04-12_14h34.17.104,jersey_experiment_5_v0,2023.2.2,Win32,84.74576271,,,,,,,,,,,,,,,,764.8636,765.9105,765.9105,767.1222,return,0.0843,,74.08854167,,,,,,FBP-OG-17.png,0.43,1.2,4,0.25,,,,,,,,,,,,,,,,,,0,34,34,3,1,,,,,,,,,,,,,,,,,,,,,,,
,,,,,SPR24_046,19,Female,2024-04-12_14h34.17.104,jersey_experiment_5_v0,2023.2.2,Win32,84.74576271,,,,,,,,,,,,,,,,767.1224,768.1693,768.1694,768.9574,return,0.089,,74.08854167,,,,,,FBP-RB-71.png,0.43,1.2,34,0.25,,,,,,,,,,,,,,,,,,0,35,35,33,1,,,,,,,,,,,,,,,,,,,,,,,
,,,,,SPR24_046,19,Female,2024-04-12_14h34.17.104,jersey_experiment_5_v0,2023.2.2,Win32,84.74576271,,,,,,,,,,,,,,,,768.9576,770.0046,770.0047,771.3342,return,0.0804,,24.34895833,,,,,,FBP-OG-17.png,0.37,1.2,2,0.25,,,,,,,,,,,,,,,,,,0,36,36,1,1,,,,,,,,,,,,,,,,,,,,,,,
,,,,,SPR24_046,19,Female,2024-04-12_14h34.17.104,jersey_experiment_5_v0,2023.2.2,Win32,84.74576271,,,,,,,,,,,,,,,,771.3344,772.3815,772.3815,773.3107,return,0.2902,,24.34895833,,,,,,FBP-OG-19.png,0.4,1.2,13,0.25,,,,,,,,,,,,,,,,,,0,37,37,12,1,,,,,,,,,,,,,,,,,,,,,,,
,,,,,SPR24_046,19,Female,2024-04-12_14h34.17.104,jersey_experiment_5_v0,2023.2.2,Win32,84.74576271,,,,,,,,,,,,,,,,773.3108,774.3578,774.3578,775.7461,return,0.2044,,74.08854167,,,,,,FBP-OG-18.png,0.43,1.2,9,0.25,,,,,,,,,,,,,,,,,,0,38,38,8,1,,,,,,,,,,,,,,,,,,,,,,,
,,,,,SPR24_046,19,Female,2024-04-12_14h34.17.104,jersey_experiment_5_v0,2023.2.2,Win32,84.74576271,,,,,,,,,,,,,,,,775.7462,776.7933,776.7933,778.311,return,0.3668,,0.260416667,,,,,,FBP-OG-17.png,0.35,1.2,1,0.25,,,,,,,,,,,,,,,,,,0,39,39,0,1,,,,,,,,,,,,,,,,,,,,,,,
,,,,,SPR24_046,19,Female,2024-04-12_14h34.17.104,jersey_experiment_5_v0,2023.2.2,Win32,84.74576271,,,,,,,,,,,,,,,,778.3112,779.6052,779.6052,781.5229,return,0.7801,,74.86979167,,,,,,FBP-PT-71.png,0.43,1.2,49,0.5,,,,,,,,,,,,,,,,,,0,40,40,48,1,,,,,,,,,,,,,,,,,,,,,,,
,,,,,SPR24_046,19,Female,2024-04-12_14h34.17.104,jersey_experiment_5_v0,2023.2.2,Win32,84.74576271,,,,,,,,,,,,,,,,781.5232,782.8168,782.8169,784.6406,return,0.1448,,90.625,,,,,,FBP-YG-71.png,0.4,1.2,18,0.5,,,,,,,,,,,,,,,,,,0,41,41,17,1,,,,,,,,,,,,,,,,,,,,,,,
,,,,,SPR24_046,19,Female,2024-04-12_14h34.17.104,jersey_experiment_5_v0,2023.2.2,Win32,84.74576271,,,,,,,,,,,,,,,,784.6408,785.9347,785.9347,787.123,return,0.1067,,87.5,,,,,,FBP-YG-81.png,0.43,1.2,24,0.5,,,,,,,,,,,,,,,,,,0,42,42,23,1,,,,,,,,,,,,,,,,,,,,,,,
,,,,,SPR24_046,19,Female,2024-04-12_14h34.17.104,jersey_experiment_5_v0,2023.2.2,Win32,84.74576271,,,,,,,,,,,,,,,,787.1231,788.4171,788.4172,790.2644,return,0.0472,,25.26041667,,,,,,FBP-PT-91.png,0.37,1.2,57,0.5,,,,,,,,,,,,,,,,,,0,43,43,56,1,,,,,,,,,,,,,,,,,,,,,,,
,,,,,SPR24_046,19,Female,2024-04-12_14h34.17.104,jersey_experiment_5_v0,2023.2.2,Win32,84.74576271,,,,,,,,,,,,,,,,790.2647,791.3113,791.3113,792.7115,return,0.1412,,73.4375,,,,,,FBP-RB-71.png,0.4,1.2,33,0.25,,,,,,,,,,,,,,,,,,0,44,44,32,1,,,,,,,,,,,,,,,,,,,,,,,
,,,,,SPR24_046,19,Female,2024-04-12_14h34.17.104,jersey_experiment_5_v0,2023.2.2,Win32,84.74576271,,,,,,,,,,,,,,,,792.7117,793.7584,793.7584,794.8174,return,0.0288,,99.609375,,,,,,FBP-OG-19.png,0.45,1.2,15,0.25,,,,,,,,,,,,,,,,,,0,45,45,14,1,,,,,,,,,,,,,,,,,,,,,,,
,,,,,SPR24_046,19,Female,2024-04-12_14h34.17.104,jersey_experiment_5_v0,2023.2.2,Win32,84.74576271,,,,,,,,,,,,,,,,794.8176,796.1115,796.1116,797.5117,return,0.0146,,25.13020833,,,,,,FBP-PT-81.png,0.37,1.2,52,0.5,,,,,,,,,,,,,,,,,,0,46,46,51,1,,,,,,,,,,,,,,,,,,,,,,,
,,,,,SPR24_046,19,Female,2024-04-12_14h34.17.104,jersey_experiment_5_v0,2023.2.2,Win32,84.74576271,,,,,,,,,,,,,,,,797.512,798.8059,798.806,799.8058,return,0.0679,,99.21875,,,,,,FBP-YG-81.png,0.45,1.2,25,0.5,,,,,,,,,,,,,,,,,,0,47,47,24,1,,,,,,,,,,,,,,,,,,,,,,,
,,,,,SPR24_046,19,Female,2024-04-12_14h34.17.104,jersey_experiment_5_v0,2023.2.2,Win32,84.74576271,,,,,,,,,,,,,,,,799.8061,801.1,801.1,802.2412,return,0.0734,,73.30729167,,,,,,FBP-YG-81.png,0.4,1.2,23,0.5,,,,,,,,,,,,,,,,,,0,48,48,22,1,,,,,,,,,,,,,,,,,,,,,,,
,,,,,SPR24_046,19,Female,2024-04-12_14h34.17.104,jersey_experiment_5_v0,2023.2.2,Win32,84.74576271,,,,,,,,,,,,,,,,802.2414,803.5352,803.5354,804.7119,return,0.0952,,26.953125,,,,,,FBP-YG-81.png,0.35,1.2,21,0.5,,,,,,,,,,,,,,,,,,0,49,49,20,1,,,,,,,,,,,,,,,,,,,,,,,
,,,,,SPR24_046,19,Female,2024-04-12_14h34.17.104,jersey_experiment_5_v0,2023.2.2,Win32,84.74576271,,,,,,,,,,,,,,,,804.7121,806.0061,806.0061,807.1354,return,0.2166,,75.65104167,,,,,,FBP-PT-91.png,0.4,1.2,58,0.5,,,,,,,,,,,,,,,,,,0,50,50,57,1,,,,,,,,,,,,,,,,,,,,,,,
,,,,,SPR24_046,19,Female,2024-04-12_14h34.17.104,jersey_experiment_5_v0,2023.2.2,Win32,84.74576271,,,,,,,,,,,,,,,,807.1357,808.4296,808.4297,809.8533,return,0.089,,98.95833333,,,,,,FBP-PT-91.png,0.43,1.2,59,0.5,,,,,,,,,,,,,,,,,,0,51,51,58,1,,,,,,,,,,,,,,,,,,,,,,,
,,,,,SPR24_046,19,Female,2024-04-12_14h34.17.104,jersey_experiment_5_v0,2023.2.2,Win32,84.74576271,,,,,,,,,,,,,,,,809.8535,811.1474,811.1474,812.7828,return,0.1138,,1.302083333,,,,,,FBP-PT-81.png,0.35,1.2,51,0.5,,,,,,,,,,,,,,,,,,0,52,52,50,1,,,,,,,,,,,,,,,,,,,,,,,
,,,,,SPR24_046,19,Female,2024-04-12_14h34.17.104,jersey_experiment_5_v0,2023.2.2,Win32,84.74576271,,,,,,,,,,,,,,,,812.783,814.0771,814.0771,815.3121,return,0.1709,,98.69791667,,,,,,FBP-YG-91.png,0.45,1.2,30,0.5,,,,,,,,,,,,,,,,,,0,53,53,29,1,,,,,,,,,,,,,,,,,,,,,,,
,,,,,SPR24_046,19,Female,2024-04-12_14h34.17.104,jersey_experiment_5_v0,2023.2.2,Win32,84.74576271,,,,,,,,,,,,,,,,815.3122,816.3593,816.3593,817.1711,return,0.0506,,98.30729167,,,,,,FBP-OG-17.png,0.45,1.2,5,0.25,,,,,,,,,,,,,,,,,,0,54,54,4,1,,,,,,,,,,,,,,,,,,,,,,,
,,,,,SPR24_046,19,Female,2024-04-12_14h34.17.104,jersey_experiment_5_v0,2023.2.2,Win32,84.74576271,,,,,,,,,,,,,,,,817.1713,818.2183,818.2183,819.0418,return,0.1205,,98.30729167,,,,,,FBP-OG-18.png,0.45,1.2,10,0.25,,,,,,,,,,,,,,,,,,0,55,55,9,1,,,,,,,,,,,,,,,,,,,,,,,
,,,,,SPR24_046,19,Female,2024-04-12_14h34.17.104,jersey_experiment_5_v0,2023.2.2,Win32,84.74576271,,,,,,,,,,,,,,,,819.042,820.336,820.336,821.6067,return,0.108,,24.73958333,,,,,,FBP-YG-91.png,0.35,1.2,26,0.5,,,,,,,,,,,,,,,,,,0,56,56,25,1,,,,,,,,,,,,,,,,,,,,,,,
,,,,,SPR24_046,19,Female,2024-04-12_14h34.17.104,jersey_experiment_5_v0,2023.2.2,Win32,84.74576271,,,,,,,,,,,,,,,,821.6069,822.6536,822.6537,823.2773,return,0.0445,,24.73958333,,,,,,FBP-RB-71.png,0.35,1.2,31,0.25,,,,,,,,,,,,,,,,,,0,57,57,30,1,,,,,,,,,,,,,,,,,,,,,,,
,,,,,SPR24_046,19,Female,2024-04-12_14h34.17.104,jersey_experiment_5_v0,2023.2.2,Win32,84.74576271,,,,,,,,,,,,,,,,823.2773,824.5713,824.5714,825.6772,return,0.1151,,1.041666667,,,,,,FBP-PT-91.png,0.35,1.2,56,0.5,,,,,,,,,,,,,,,,,,0,58,58,55,1,,,,,,,,,,,,,,,,,,,,,,,
,,,,,SPR24_046,19,Female,2024-04-12_14h34.17.104,jersey_experiment_5_v0,2023.2.2,Win32,84.74576271,,,,,,,,,,,,,,,,825.6775,826.9715,826.9716,828.7832,return,0.0656,,49.609375,,,,,,FBP-YG-71.png,0.37,1.2,17,0.5,,,,,,,,,,,,,,,,,,0,59,59,16,1,,,,,,,,,,,,,,,,,,,,,,,
,,,,,SPR24_046,19,Female,2024-04-12_14h34.17.104,jersey_experiment_5_v0,2023.2.2,Win32,84.74576271,,,,,,,,,,,,,,,,,,,,,,,,,,,,,,,,,,,,,,,,,,,,,,,,,,,,,,,,828.7836,831.7014,return,2.9062,,,,,,,,,,,,,,,,,,,
,,,,,SPR24_046,19,Female,2024-04-12_14h34.17.104,jersey_experiment_5_v0,2023.2.2,Win32,84.74576271,,,,,,,,,,,,,,,,,,,,,,,,,,,,,,,,,,,,,,,,,,,,,,,,,,,,,,,,,,,,,831.7015,841.9722,1,9.0633,return,1.1876,,,,,,,,,,,,
,,,,,SPR24_046,19,Female,2024-04-12_14h34.17.104,jersey_experiment_5_v0,2023.2.2,Win32,84.74576271,,,,,,,,,,,,,,,,,,,,,,,,,,,,,,,,,,,,,,,,,,,,,,,,,,,,,,,,,,,,,,,,,,,,841.9723,886.6495,is the study possibly about size effect + race based on what we see or associate? ,right,35.7323,,,,,,
,,,,,SPR24_046,19,Female,2024-04-12_14h34.17.104,jersey_experiment_5_v0,2023.2.2,Win32,84.74576271,,,,,,,,,,,,,,,,,,,,,,,,,,,,,,,,,,,,,,,,,,,,,,,,,,,,,,,,,,,,,,,,,,,,,,,,,,886.6496,889.5503,return,2.8957,