requirements.started,requirements.stopped,key_resp_3.keys,key_resp_3.rt,key_resp_3.duration,Subject ID,Age,Gender,date,expName,psychopyVersion,OS,frameRate,instructions1.started,instructions1.stopped,key_resp.keys,key_resp.rt,key_resp.duration,example.started,example.stopped,enter_2.keys,enter_2.rt,enter_2.duration,instructions2.started,instructions2.stopped,enter_3.keys,enter_3.rt,enter_3.duration,image.started,image.stopped,slider_2.started,slider_2.stopped,next.keys,next.rt,next.duration,slider.response,trial_block_1.thisRepN,trial_block_1.thisTrialN,trial_block_1.thisN,trial_block_1.thisIndex,trial_block_1.ran,Path,Width,Height,Index,Duration,trial_block_2.thisRepN,trial_block_2.thisTrialN,trial_block_2.thisN,trial_block_2.thisIndex,trial_block_2.ran,rest_break.started,rest_break.stopped,end_break.started,end_break.stopped,key_resp_5.keys,key_resp_5.rt,key_resp_5.duration,trial_block_3.thisRepN,trial_block_3.thisTrialN,trial_block_3.thisN,trial_block_3.thisIndex,trial_block_3.ran,trial_block_4.thisRepN,trial_block_4.thisTrialN,trial_block_4.thisN,trial_block_4.thisIndex,trial_block_4.ran,questions_intro.started,questions_intro.stopped,enter_12.keys,enter_12.rt,enter_12.duration,question2.started,question2.stopped,question_doingbest.response,question_doingbest.rt,enter_15.keys,enter_15.rt,enter_15.duration,pattern.started,pattern.stopped,pattern_2.text,enter_17.keys,enter_17.rt,enter_17.duration,thankyou.started,thankyou.stopped,enter_14.keys,enter_14.rt,enter_14.duration
0,11.003,return,10.9983,,SPR24_077,20,Female,2024-04-23_10h25.34.196,jersey_experiment_5_v0,2023.2.2,Win32,84.74576271,,,,,,,,,,,,,,,,,,,,,,,,,,,,,,,,,,,,,,,,,,,,,,,,,,,,,,,,,,,,,,,,,,,,,,,,,,,,,,
,,,,,SPR24_077,20,Female,2024-04-23_10h25.34.196,jersey_experiment_5_v0,2023.2.2,Win32,84.74576271,11.0031,18.6007,return,7.5829,,,,,,,,,,,,,,,,,,,,,,,,,,,,,,,,,,,,,,,,,,,,,,,,,,,,,,,,,,,,,,,,,,,,,,,,,,
,,,,,SPR24_077,20,Female,2024-04-23_10h25.34.196,jersey_experiment_5_v0,2023.2.2,Win32,84.74576271,,,,,,18.6008,22.1186,return,3.4863,,,,,,,,,,,,,,,,,,,,,,,,,,,,,,,,,,,,,,,,,,,,,,,,,,,,,,,,,,,,,,,,,,,,,
,,,,,SPR24_077,20,Female,2024-04-23_10h25.34.196,jersey_experiment_5_v0,2023.2.2,Win32,84.74576271,,,,,,,,,,,22.1187,48.296,return,26.171,,,,,,,,,,,,,,,,,,,,,,,,,,,,,,,,,,,,,,,,,,,,,,,,,,,,,,,,,,,,,,,,
,,,,,SPR24_077,20,Female,2024-04-23_10h25.34.196,jersey_experiment_5_v0,2023.2.2,Win32,84.74576271,,,,,,,,,,,,,,,,48.3034,49.3547,49.3548,53.9196,return,1.9625,,49.86979167,0,0,0,26,1,FBP-YG-19.png,0.37,1.2,27,0.25,,,,,,,,,,,,,,,,,,,,,,,,,,,,,,,,,,,,,,,,,,,,,
,,,,,SPR24_077,20,Female,2024-04-23_10h25.34.196,jersey_experiment_5_v0,2023.2.2,Win32,84.74576271,,,,,,,,,,,,,,,,53.92,54.9665,54.9666,58.6374,return,1.4831,,75.390625,0,1,1,57,1,FBP-PT-19.png,0.4,1.2,58,0.25,,,,,,,,,,,,,,,,,,,,,,,,,,,,,,,,,,,,,,,,,,,,,
,,,,,SPR24_077,20,Female,2024-04-23_10h25.34.196,jersey_experiment_5_v0,2023.2.2,Win32,84.74576271,,,,,,,,,,,,,,,,58.6376,59.6844,59.6845,63.1199,return,2.1495,,75.52083333,0,2,2,27,1,FBP-YG-19.png,0.4,1.2,28,0.25,,,,,,,,,,,,,,,,,,,,,,,,,,,,,,,,,,,,,,,,,,,,,
,,,,,SPR24_077,20,Female,2024-04-23_10h25.34.196,jersey_experiment_5_v0,2023.2.2,Win32,84.74576271,,,,,,,,,,,,,,,,63.1203,64.4141,64.4141,67.6553,return,1.5778,,25.52083333,0,3,3,40,1,FBP-RB-19.png,0.35,1.2,41,0.5,,,,,,,,,,,,,,,,,,,,,,,,,,,,,,,,,,,,,,,,,,,,,
,,,,,SPR24_077,20,Female,2024-04-23_10h25.34.196,jersey_experiment_5_v0,2023.2.2,Win32,84.74576271,,,,,,,,,,,,,,,,67.6555,68.9578,68.9578,72.8175,return,1.3521,,0.260416667,0,4,4,10,1,FBP-OG-91.png,0.35,1.2,11,0.5,,,,,,,,,,,,,,,,,,,,,,,,,,,,,,,,,,,,,,,,,,,,,
,,,,,SPR24_077,20,Female,2024-04-23_10h25.34.196,jersey_experiment_5_v0,2023.2.2,Win32,84.74576271,,,,,,,,,,,,,,,,72.8177,73.8615,73.8615,78.3236,return,1.3751,,99.86979167,0,5,5,58,1,FBP-PT-19.png,0.43,1.2,59,0.25,,,,,,,,,,,,,,,,,,,,,,,,,,,,,,,,,,,,,,,,,,,,,
,,,,,SPR24_077,20,Female,2024-04-23_10h25.34.196,jersey_experiment_5_v0,2023.2.2,Win32,84.74576271,,,,,,,,,,,,,,,,78.3238,79.6177,79.6177,83.0501,return,1.2637,,99.609375,0,6,6,33,1,FBP-RB-17.png,0.43,1.2,34,0.5,,,,,,,,,,,,,,,,,,,,,,,,,,,,,,,,,,,,,,,,,,,,,
,,,,,SPR24_077,20,Female,2024-04-23_10h25.34.196,jersey_experiment_5_v0,2023.2.2,Win32,84.74576271,,,,,,,,,,,,,,,,83.0504,84.0971,84.0971,86.4618,return,0.7428,,75.13020833,0,7,7,23,1,FBP-YG-18.png,0.43,1.2,24,0.25,,,,,,,,,,,,,,,,,,,,,,,,,,,,,,,,,,,,,,,,,,,,,
,,,,,SPR24_077,20,Female,2024-04-23_10h25.34.196,jersey_experiment_5_v0,2023.2.2,Win32,84.74576271,,,,,,,,,,,,,,,,86.4621,87.7561,87.7561,89.877,return,0.7168,,51.04166667,0,8,8,36,1,FBP-RB-18.png,0.37,1.2,37,0.5,,,,,,,,,,,,,,,,,,,,,,,,,,,,,,,,,,,,,,,,,,,,,
,,,,,SPR24_077,20,Female,2024-04-23_10h25.34.196,jersey_experiment_5_v0,2023.2.2,Win32,84.74576271,,,,,,,,,,,,,,,,89.8771,91.1796,91.1797,93.1711,return,0.763,,25.390625,0,9,9,5,1,FBP-OG-81.png,0.35,1.2,6,0.5,,,,,,,,,,,,,,,,,,,,,,,,,,,,,,,,,,,,,,,,,,,,,
,,,,,SPR24_077,20,Female,2024-04-23_10h25.34.196,jersey_experiment_5_v0,2023.2.2,Win32,84.74576271,,,,,,,,,,,,,,,,93.1712,94.2151,94.2152,97.3018,return,0.9777,,99.34895833,0,10,10,54,1,FBP-PT-18.png,0.45,1.2,55,0.25,,,,,,,,,,,,,,,,,,,,,,,,,,,,,,,,,,,,,,,,,,,,,
,,,,,SPR24_077,20,Female,2024-04-23_10h25.34.196,jersey_experiment_5_v0,2023.2.2,Win32,84.74576271,,,,,,,,,,,,,,,,97.302,98.6036,98.6036,100.8422,return,0.777,,75,0,11,11,32,1,FBP-RB-17.png,0.4,1.2,33,0.5,,,,,,,,,,,,,,,,,,,,,,,,,,,,,,,,,,,,,,,,,,,,,
,,,,,SPR24_077,20,Female,2024-04-23_10h25.34.196,jersey_experiment_5_v0,2023.2.2,Win32,84.74576271,,,,,,,,,,,,,,,,100.8423,101.8859,101.886,104.4422,return,0.871,,99.86979167,0,12,12,49,1,FBP-PT-17.png,0.45,1.2,50,0.25,,,,,,,,,,,,,,,,,,,,,,,,,,,,,,,,,,,,,,,,,,,,,
,,,,,SPR24_077,20,Female,2024-04-23_10h25.34.196,jersey_experiment_5_v0,2023.2.2,Win32,84.74576271,,,,,,,,,,,,,,,,104.4423,105.7363,105.7364,107.0435,return,0.5644,,99.86979167,0,13,13,4,1,FBP-OG-71.png,0.45,1.2,5,0.5,,,,,,,,,,,,,,,,,,,,,,,,,,,,,,,,,,,,,,,,,,,,,
,,,,,SPR24_077,20,Female,2024-04-23_10h25.34.196,jersey_experiment_5_v0,2023.2.2,Win32,84.74576271,,,,,,,,,,,,,,,,107.0437,108.0892,108.0893,110.3849,return,0.7062,,23.95833333,0,14,14,45,1,FBP-PT-17.png,0.35,1.2,46,0.25,,,,,,,,,,,,,,,,,,,,,,,,,,,,,,,,,,,,,,,,,,,,,
,,,,,SPR24_077,20,Female,2024-04-23_10h25.34.196,jersey_experiment_5_v0,2023.2.2,Win32,84.74576271,,,,,,,,,,,,,,,,110.385,111.4304,111.4305,118.6632,return,2.7608,,99.86979167,0,15,15,29,1,FBP-YG-19.png,0.45,1.2,30,0.25,,,,,,,,,,,,,,,,,,,,,,,,,,,,,,,,,,,,,,,,,,,,,
,,,,,SPR24_077,20,Female,2024-04-23_10h25.34.196,jersey_experiment_5_v0,2023.2.2,Win32,84.74576271,,,,,,,,,,,,,,,,118.6675,119.7132,119.7132,124.09,return,1.3285,,42.83854167,0,16,16,51,1,FBP-PT-18.png,0.37,1.2,52,0.25,,,,,,,,,,,,,,,,,,,,,,,,,,,,,,,,,,,,,,,,,,,,,
,,,,,SPR24_077,20,Female,2024-04-23_10h25.34.196,jersey_experiment_5_v0,2023.2.2,Win32,84.74576271,,,,,,,,,,,,,,,,124.0901,125.1339,125.134,127.4988,return,0.6278,,37.36979167,0,17,17,46,1,FBP-PT-17.png,0.37,1.2,47,0.25,,,,,,,,,,,,,,,,,,,,,,,,,,,,,,,,,,,,,,,,,,,,,
,,,,,SPR24_077,20,Female,2024-04-23_10h25.34.196,jersey_experiment_5_v0,2023.2.2,Win32,84.74576271,,,,,,,,,,,,,,,,127.499,128.793,128.793,130.793,return,0.6637,,60.9375,0,18,18,42,1,FBP-RB-19.png,0.4,1.2,43,0.5,,,,,,,,,,,,,,,,,,,,,,,,,,,,,,,,,,,,,,,,,,,,,
,,,,,SPR24_077,20,Female,2024-04-23_10h25.34.196,jersey_experiment_5_v0,2023.2.2,Win32,84.74576271,,,,,,,,,,,,,,,,130.7932,131.8401,131.8401,134.1579,return,0.6017,,61.06770833,0,19,19,16,1,FBP-YG-17.png,0.37,1.2,17,0.25,,,,,,,,,,,,,,,,,,,,,,,,,,,,,,,,,,,,,,,,,,,,,
,,,,,SPR24_077,20,Female,2024-04-23_10h25.34.196,jersey_experiment_5_v0,2023.2.2,Win32,84.74576271,,,,,,,,,,,,,,,,134.158,135.2049,135.2049,137.5933,return,0.6863,,25.65104167,0,20,20,15,1,FBP-YG-17.png,0.35,1.2,16,0.25,,,,,,,,,,,,,,,,,,,,,,,,,,,,,,,,,,,,,,,,,,,,,
,,,,,SPR24_077,20,Female,2024-04-23_10h25.34.196,jersey_experiment_5_v0,2023.2.2,Win32,84.74576271,,,,,,,,,,,,,,,,137.5935,138.8874,138.8874,141.2758,return,0.6621,,96.22395833,0,21,21,34,1,FBP-RB-17.png,0.45,1.2,35,0.5,,,,,,,,,,,,,,,,,,,,,,,,,,,,,,,,,,,,,,,,,,,,,
,,,,,SPR24_077,20,Female,2024-04-23_10h25.34.196,jersey_experiment_5_v0,2023.2.2,Win32,84.74576271,,,,,,,,,,,,,,,,141.2759,142.3229,142.3229,144.3464,return,0.615,,98.56770833,0,22,22,48,1,FBP-PT-17.png,0.43,1.2,49,0.25,,,,,,,,,,,,,,,,,,,,,,,,,,,,,,,,,,,,,,,,,,,,,
,,,,,SPR24_077,20,Female,2024-04-23_10h25.34.196,jersey_experiment_5_v0,2023.2.2,Win32,84.74576271,,,,,,,,,,,,,,,,144.3467,145.6407,145.6407,147.9582,return,0.5837,,99.73958333,0,23,23,9,1,FBP-OG-81.png,0.45,1.2,10,0.5,,,,,,,,,,,,,,,,,,,,,,,,,,,,,,,,,,,,,,,,,,,,,
,,,,,SPR24_077,20,Female,2024-04-23_10h25.34.196,jersey_experiment_5_v0,2023.2.2,Win32,84.74576271,,,,,,,,,,,,,,,,147.9583,149.0055,149.0056,151.2643,return,0.5549,,77.86458333,0,24,24,19,1,FBP-YG-17.png,0.45,1.2,20,0.25,,,,,,,,,,,,,,,,,,,,,,,,,,,,,,,,,,,,,,,,,,,,,
,,,,,SPR24_077,20,Female,2024-04-23_10h25.34.196,jersey_experiment_5_v0,2023.2.2,Win32,84.74576271,,,,,,,,,,,,,,,,151.2645,152.5585,152.5585,154.2879,return,0.7168,,56.25,0,25,25,12,1,FBP-OG-91.png,0.4,1.2,13,0.5,,,,,,,,,,,,,,,,,,,,,,,,,,,,,,,,,,,,,,,,,,,,,
,,,,,SPR24_077,20,Female,2024-04-23_10h25.34.196,jersey_experiment_5_v0,2023.2.2,Win32,84.74576271,,,,,,,,,,,,,,,,154.288,155.3381,155.3381,157.7822,return,1.5129,,55.20833333,0,26,26,17,1,FBP-YG-17.png,0.4,1.2,18,0.25,,,,,,,,,,,,,,,,,,,,,,,,,,,,,,,,,,,,,,,,,,,,,
,,,,,SPR24_077,20,Female,2024-04-23_10h25.34.196,jersey_experiment_5_v0,2023.2.2,Win32,84.74576271,,,,,,,,,,,,,,,,157.7825,159.0764,159.0765,161.1972,return,0.7531,,29.6875,0,27,27,35,1,FBP-RB-18.png,0.35,1.2,36,0.5,,,,,,,,,,,,,,,,,,,,,,,,,,,,,,,,,,,,,,,,,,,,,
,,,,,SPR24_077,20,Female,2024-04-23_10h25.34.196,jersey_experiment_5_v0,2023.2.2,Win32,84.74576271,,,,,,,,,,,,,,,,161.1974,162.4914,162.4915,164.1515,return,0.6955,,65.234375,0,28,28,38,1,FBP-RB-18.png,0.43,1.2,39,0.5,,,,,,,,,,,,,,,,,,,,,,,,,,,,,,,,,,,,,,,,,,,,,
,,,,,SPR24_077,20,Female,2024-04-23_10h25.34.196,jersey_experiment_5_v0,2023.2.2,Win32,84.74576271,,,,,,,,,,,,,,,,164.1516,165.1944,165.1944,168.5826,return,1.4423,,27.21354167,0,29,29,21,1,FBP-YG-18.png,0.37,1.2,22,0.25,,,,,,,,,,,,,,,,,,,,,,,,,,,,,,,,,,,,,,,,,,,,,
,,,,,SPR24_077,20,Female,2024-04-23_10h25.34.196,jersey_experiment_5_v0,2023.2.2,Win32,84.74576271,,,,,,,,,,,,,,,,168.5829,169.8769,169.8769,172.9829,return,0.7494,,58.72395833,0,30,30,7,1,FBP-OG-81.png,0.4,1.2,8,0.5,,,,,,,,,,,,,,,,,,,,,,,,,,,,,,,,,,,,,,,,,,,,,
,,,,,SPR24_077,20,Female,2024-04-23_10h25.34.196,jersey_experiment_5_v0,2023.2.2,Win32,84.74576271,,,,,,,,,,,,,,,,172.9831,174.0299,174.0299,177.383,return,0.6552,,52.08333333,0,31,31,22,1,FBP-YG-18.png,0.4,1.2,23,0.25,,,,,,,,,,,,,,,,,,,,,,,,,,,,,,,,,,,,,,,,,,,,,
,,,,,SPR24_077,20,Female,2024-04-23_10h25.34.196,jersey_experiment_5_v0,2023.2.2,Win32,84.74576271,,,,,,,,,,,,,,,,177.3831,178.4301,178.4301,180.3876,return,0.6253,,38.02083333,0,32,32,50,1,FBP-PT-18.png,0.35,1.2,51,0.25,,,,,,,,,,,,,,,,,,,,,,,,,,,,,,,,,,,,,,,,,,,,,
,,,,,SPR24_077,20,Female,2024-04-23_10h25.34.196,jersey_experiment_5_v0,2023.2.2,Win32,84.74576271,,,,,,,,,,,,,,,,180.3877,181.6892,181.6892,183.548,return,0.5938,,45.44270833,0,33,33,1,1,FBP-OG-71.png,0.37,1.2,2,0.5,,,,,,,,,,,,,,,,,,,,,,,,,,,,,,,,,,,,,,,,,,,,,
,,,,,SPR24_077,20,Female,2024-04-23_10h25.34.196,jersey_experiment_5_v0,2023.2.2,Win32,84.74576271,,,,,,,,,,,,,,,,183.5483,184.842,184.8421,186.9598,return,0.6585,,71.09375,0,34,34,13,1,FBP-OG-91.png,0.43,1.2,14,0.5,,,,,,,,,,,,,,,,,,,,,,,,,,,,,,,,,,,,,,,,,,,,,
,,,,,SPR24_077,20,Female,2024-04-23_10h25.34.196,jersey_experiment_5_v0,2023.2.2,Win32,84.74576271,,,,,,,,,,,,,,,,186.96,188.0069,188.0069,190.7835,return,0.6694,,47.265625,0,35,35,25,1,FBP-YG-19.png,0.35,1.2,26,0.25,,,,,,,,,,,,,,,,,,,,,,,,,,,,,,,,,,,,,,,,,,,,,
,,,,,SPR24_077,20,Female,2024-04-23_10h25.34.196,jersey_experiment_5_v0,2023.2.2,Win32,84.74576271,,,,,,,,,,,,,,,,190.7836,191.8306,191.8307,194.619,return,0.639,,25.390625,0,36,36,55,1,FBP-PT-19.png,0.35,1.2,56,0.25,,,,,,,,,,,,,,,,,,,,,,,,,,,,,,,,,,,,,,,,,,,,,
,,,,,SPR24_077,20,Female,2024-04-23_10h25.34.196,jersey_experiment_5_v0,2023.2.2,Win32,84.74576271,,,,,,,,,,,,,,,,194.6191,195.666,195.666,197.9176,return,0.6116,,74.86979167,0,37,37,18,1,FBP-YG-17.png,0.43,1.2,19,0.25,,,,,,,,,,,,,,,,,,,,,,,,,,,,,,,,,,,,,,,,,,,,,
,,,,,SPR24_077,20,Female,2024-04-23_10h25.34.196,jersey_experiment_5_v0,2023.2.2,Win32,84.74576271,,,,,,,,,,,,,,,,197.9177,199.2191,199.2191,200.9163,return,0.5757,,45.18229167,0,38,38,0,1,FBP-OG-71.png,0.35,1.2,1,0.5,,,,,,,,,,,,,,,,,,,,,,,,,,,,,,,,,,,,,,,,,,,,,
,,,,,SPR24_077,20,Female,2024-04-23_10h25.34.196,jersey_experiment_5_v0,2023.2.2,Win32,84.74576271,,,,,,,,,,,,,,,,200.9164,202.2192,202.2192,204.1723,return,0.531,,53.77604167,0,39,39,41,1,FBP-RB-19.png,0.37,1.2,42,0.5,,,,,,,,,,,,,,,,,,,,,,,,,,,,,,,,,,,,,,,,,,,,,
,,,,,SPR24_077,20,Female,2024-04-23_10h25.34.196,jersey_experiment_5_v0,2023.2.2,Win32,84.74576271,,,,,,,,,,,,,,,,204.1725,205.4709,205.471,207.5754,return,0.5984,,92.1875,0,40,40,39,1,FBP-RB-18.png,0.45,1.2,40,0.5,,,,,,,,,,,,,,,,,,,,,,,,,,,,,,,,,,,,,,,,,,,,,
,,,,,SPR24_077,20,Female,2024-04-23_10h25.34.196,jersey_experiment_5_v0,2023.2.2,Win32,84.74576271,,,,,,,,,,,,,,,,207.5755,208.8782,208.8782,210.7136,return,0.6278,,98.4375,0,41,41,44,1,FBP-RB-19.png,0.45,1.2,45,0.5,,,,,,,,,,,,,,,,,,,,,,,,,,,,,,,,,,,,,,,,,,,,,
,,,,,SPR24_077,20,Female,2024-04-23_10h25.34.196,jersey_experiment_5_v0,2023.2.2,Win32,84.74576271,,,,,,,,,,,,,,,,210.7137,211.7607,211.7607,214.8827,return,0.7998,,98.4375,0,42,42,24,1,FBP-YG-18.png,0.45,1.2,25,0.25,,,,,,,,,,,,,,,,,,,,,,,,,,,,,,,,,,,,,,,,,,,,,
,,,,,SPR24_077,20,Female,2024-04-23_10h25.34.196,jersey_experiment_5_v0,2023.2.2,Win32,84.74576271,,,,,,,,,,,,,,,,214.8828,216.1844,216.1844,220.5375,return,2.3939,,58.85416667,0,43,43,31,1,FBP-RB-17.png,0.37,1.2,32,0.5,,,,,,,,,,,,,,,,,,,,,,,,,,,,,,,,,,,,,,,,,,,,,
,,,,,SPR24_077,20,Female,2024-04-23_10h25.34.196,jersey_experiment_5_v0,2023.2.2,Win32,84.74576271,,,,,,,,,,,,,,,,220.5379,221.5847,221.5847,224.0232,return,0.7875,,73.95833333,0,44,44,53,1,FBP-PT-18.png,0.43,1.2,54,0.25,,,,,,,,,,,,,,,,,,,,,,,,,,,,,,,,,,,,,,,,,,,,,
,,,,,SPR24_077,20,Female,2024-04-23_10h25.34.196,jersey_experiment_5_v0,2023.2.2,Win32,84.74576271,,,,,,,,,,,,,,,,224.0233,225.0671,225.0671,226.941,return,0.5523,,78.38541667,0,45,45,47,1,FBP-PT-17.png,0.4,1.2,48,0.25,,,,,,,,,,,,,,,,,,,,,,,,,,,,,,,,,,,,,,,,,,,,,
,,,,,SPR24_077,20,Female,2024-04-23_10h25.34.196,jersey_experiment_5_v0,2023.2.2,Win32,84.74576271,,,,,,,,,,,,,,,,226.9412,228.2437,228.2437,229.5999,return,0.5416,,78.38541667,0,46,46,3,1,FBP-OG-71.png,0.43,1.2,4,0.5,,,,,,,,,,,,,,,,,,,,,,,,,,,,,,,,,,,,,,,,,,,,,
,,,,,SPR24_077,20,Female,2024-04-23_10h25.34.196,jersey_experiment_5_v0,2023.2.2,Win32,84.74576271,,,,,,,,,,,,,,,,229.6,230.8938,230.8938,232.6557,return,0.6355,,40.625,0,47,47,30,1,FBP-RB-17.png,0.35,1.2,31,0.5,,,,,,,,,,,,,,,,,,,,,,,,,,,,,,,,,,,,,,,,,,,,,
,,,,,SPR24_077,20,Female,2024-04-23_10h25.34.196,jersey_experiment_5_v0,2023.2.2,Win32,84.74576271,,,,,,,,,,,,,,,,232.6559,233.9497,233.9497,235.9145,return,0.6734,,70.83333333,0,48,48,14,1,FBP-OG-91.png,0.45,1.2,15,0.5,,,,,,,,,,,,,,,,,,,,,,,,,,,,,,,,,,,,,,,,,,,,,
,,,,,SPR24_077,20,Female,2024-04-23_10h25.34.196,jersey_experiment_5_v0,2023.2.2,Win32,84.74576271,,,,,,,,,,,,,,,,235.9148,237.2087,237.2088,239.0559,return,0.5645,,57.421875,0,49,49,2,1,FBP-OG-71.png,0.4,1.2,3,0.5,,,,,,,,,,,,,,,,,,,,,,,,,,,,,,,,,,,,,,,,,,,,,
,,,,,SPR24_077,20,Female,2024-04-23_10h25.34.196,jersey_experiment_5_v0,2023.2.2,Win32,84.74576271,,,,,,,,,,,,,,,,239.0562,240.35,240.3501,242.0443,return,0.5791,,76.43229167,0,50,50,8,1,FBP-OG-81.png,0.43,1.2,9,0.5,,,,,,,,,,,,,,,,,,,,,,,,,,,,,,,,,,,,,,,,,,,,,
,,,,,SPR24_077,20,Female,2024-04-23_10h25.34.196,jersey_experiment_5_v0,2023.2.2,Win32,84.74576271,,,,,,,,,,,,,,,,242.0444,243.3385,243.3385,246.0238,return,0.6924,,50.52083333,0,51,51,11,1,FBP-OG-91.png,0.37,1.2,12,0.5,,,,,,,,,,,,,,,,,,,,,,,,,,,,,,,,,,,,,,,,,,,,,
,,,,,SPR24_077,20,Female,2024-04-23_10h25.34.196,jersey_experiment_5_v0,2023.2.2,Win32,84.74576271,,,,,,,,,,,,,,,,246.0239,247.0679,247.0679,249.7857,return,0.851,,72.78645833,0,52,52,28,1,FBP-YG-19.png,0.43,1.2,29,0.25,,,,,,,,,,,,,,,,,,,,,,,,,,,,,,,,,,,,,,,,,,,,,
,,,,,SPR24_077,20,Female,2024-04-23_10h25.34.196,jersey_experiment_5_v0,2023.2.2,Win32,84.74576271,,,,,,,,,,,,,,,,249.7859,250.8327,250.8327,253.1035,return,0.5892,,92.44791667,0,53,53,59,1,FBP-PT-19.png,0.45,1.2,60,0.25,,,,,,,,,,,,,,,,,,,,,,,,,,,,,,,,,,,,,,,,,,,,,
,,,,,SPR24_077,20,Female,2024-04-23_10h25.34.196,jersey_experiment_5_v0,2023.2.2,Win32,84.74576271,,,,,,,,,,,,,,,,253.1037,254.3977,254.3977,256.6801,return,0.758,,65.88541667,0,54,54,37,1,FBP-RB-18.png,0.4,1.2,38,0.5,,,,,,,,,,,,,,,,,,,,,,,,,,,,,,,,,,,,,,,,,,,,,
,,,,,SPR24_077,20,Female,2024-04-23_10h25.34.196,jersey_experiment_5_v0,2023.2.2,Win32,84.74576271,,,,,,,,,,,,,,,,256.6803,257.7314,257.7315,259.692,return,0.5794,,72.39583333,0,55,55,52,1,FBP-PT-18.png,0.4,1.2,53,0.25,,,,,,,,,,,,,,,,,,,,,,,,,,,,,,,,,,,,,,,,,,,,,
,,,,,SPR24_077,20,Female,2024-04-23_10h25.34.196,jersey_experiment_5_v0,2023.2.2,Win32,84.74576271,,,,,,,,,,,,,,,,259.6922,260.9861,260.9862,262.8803,return,0.6116,,77.86458333,0,56,56,43,1,FBP-RB-19.png,0.43,1.2,44,0.5,,,,,,,,,,,,,,,,,,,,,,,,,,,,,,,,,,,,,,,,,,,,,
,,,,,SPR24_077,20,Female,2024-04-23_10h25.34.196,jersey_experiment_5_v0,2023.2.2,Win32,84.74576271,,,,,,,,,,,,,,,,262.8805,263.9274,263.9274,265.8333,return,0.6399,,39.453125,0,57,57,56,1,FBP-PT-19.png,0.37,1.2,57,0.25,,,,,,,,,,,,,,,,,,,,,,,,,,,,,,,,,,,,,,,,,,,,,
,,,,,SPR24_077,20,Female,2024-04-23_10h25.34.196,jersey_experiment_5_v0,2023.2.2,Win32,84.74576271,,,,,,,,,,,,,,,,265.8336,266.8805,266.8805,269.9983,return,0.682,,50.26041667,0,58,58,20,1,FBP-YG-18.png,0.35,1.2,21,0.25,,,,,,,,,,,,,,,,,,,,,,,,,,,,,,,,,,,,,,,,,,,,,
,,,,,SPR24_077,20,Female,2024-04-23_10h25.34.196,jersey_experiment_5_v0,2023.2.2,Win32,84.74576271,,,,,,,,,,,,,,,,269.9985,271.2954,271.2954,273.6807,return,1.4353,,44.79166667,0,59,59,6,1,FBP-OG-81.png,0.37,1.2,7,0.5,,,,,,,,,,,,,,,,,,,,,,,,,,,,,,,,,,,,,,,,,,,,,
,,,,,SPR24_077,20,Female,2024-04-23_10h25.34.196,jersey_experiment_5_v0,2023.2.2,Win32,84.74576271,,,,,,,,,,,,,,,,273.6828,274.9748,274.9749,277.0738,return,0.612,,70.05208333,,,,,,FBP-RB-71.png,0.4,1.2,33,0.5,0,0,0,32,1,,,,,,,,,,,,,,,,,,,,,,,,,,,,,,,,,,,,,,,,
,,,,,SPR24_077,20,Female,2024-04-23_10h25.34.196,jersey_experiment_5_v0,2023.2.2,Win32,84.74576271,,,,,,,,,,,,,,,,277.0743,278.1161,278.1161,280.0104,return,0.603,,82.03125,,,,,,FBP-PT-91.png,0.45,1.2,60,0.25,0,1,1,59,1,,,,,,,,,,,,,,,,,,,,,,,,,,,,,,,,,,,,,,,,
,,,,,SPR24_077,20,Female,2024-04-23_10h25.34.196,jersey_experiment_5_v0,2023.2.2,Win32,84.74576271,,,,,,,,,,,,,,,,280.0107,281.3045,281.3045,283.2105,return,0.8281,,75.91145833,,,,,,FBP-OG-19.png,0.43,1.2,14,0.5,0,2,2,13,1,,,,,,,,,,,,,,,,,,,,,,,,,,,,,,,,,,,,,,,,
,,,,,SPR24_077,20,Female,2024-04-23_10h25.34.196,jersey_experiment_5_v0,2023.2.2,Win32,84.74576271,,,,,,,,,,,,,,,,283.2106,284.5047,284.5047,286.7636,return,0.8377,,85.02604167,,,,,,FBP-RB-91.png,0.43,1.2,44,0.5,0,3,3,43,1,,,,,,,,,,,,,,,,,,,,,,,,,,,,,,,,,,,,,,,,
,,,,,SPR24_077,20,Female,2024-04-23_10h25.34.196,jersey_experiment_5_v0,2023.2.2,Win32,84.74576271,,,,,,,,,,,,,,,,286.7637,288.062,288.0621,289.7197,return,0.5648,,31.640625,,,,,,FBP-OG-19.png,0.35,1.2,11,0.5,0,4,4,10,1,,,,,,,,,,,,,,,,,,,,,,,,,,,,,,,,,,,,,,,,
,,,,,SPR24_077,20,Female,2024-04-23_10h25.34.196,jersey_experiment_5_v0,2023.2.2,Win32,84.74576271,,,,,,,,,,,,,,,,289.7198,290.7637,290.7637,292.5873,return,0.7554,,73.828125,,,,,,FBP-YG-81.png,0.43,1.2,24,0.25,0,5,5,23,1,,,,,,,,,,,,,,,,,,,,,,,,,,,,,,,,,,,,,,,,
,,,,,SPR24_077,20,Female,2024-04-23_10h25.34.196,jersey_experiment_5_v0,2023.2.2,Win32,84.74576271,,,,,,,,,,,,,,,,292.5876,293.6344,293.6344,296.8227,return,0.6887,,50.65104167,,,,,,FBP-PT-91.png,0.37,1.2,57,0.25,0,6,6,56,1,,,,,,,,,,,,,,,,,,,,,,,,,,,,,,,,,,,,,,,,
,,,,,SPR24_077,20,Female,2024-04-23_10h25.34.196,jersey_experiment_5_v0,2023.2.2,Win32,84.74576271,,,,,,,,,,,,,,,,296.8229,297.8698,297.8699,300.0856,return,0.6115,,66.40625,,,,,,FBP-PT-81.png,0.4,1.2,53,0.25,0,7,7,52,1,,,,,,,,,,,,,,,,,,,,,,,,,,,,,,,,,,,,,,,,
,,,,,SPR24_077,20,Female,2024-04-23_10h25.34.196,jersey_experiment_5_v0,2023.2.2,Win32,84.74576271,,,,,,,,,,,,,,,,300.0858,301.3876,301.3877,303.7098,return,0.565,,54.16666667,,,,,,FBP-OG-17.png,0.4,1.2,3,0.5,0,8,8,2,1,,,,,,,,,,,,,,,,,,,,,,,,,,,,,,,,,,,,,,,,
,,,,,SPR24_077,20,Female,2024-04-23_10h25.34.196,jersey_experiment_5_v0,2023.2.2,Win32,84.74576271,,,,,,,,,,,,,,,,303.71,305.0037,305.0038,307.6114,return,1.3789,,43.61979167,,,,,,FBP-RB-71.png,0.35,1.2,31,0.5,0,9,9,30,1,,,,,,,,,,,,,,,,,,,,,,,,,,,,,,,,,,,,,,,,
,,,,,SPR24_077,20,Female,2024-04-23_10h25.34.196,jersey_experiment_5_v0,2023.2.2,Win32,84.74576271,,,,,,,,,,,,,,,,307.6117,308.6586,308.6586,310.8939,return,0.7671,,73.046875,,,,,,FBP-YG-91.png,0.43,1.2,29,0.25,0,10,10,28,1,,,,,,,,,,,,,,,,,,,,,,,,,,,,,,,,,,,,,,,,
,,,,,SPR24_077,20,Female,2024-04-23_10h25.34.196,jersey_experiment_5_v0,2023.2.2,Win32,84.74576271,,,,,,,,,,,,,,,,310.8943,312.1881,312.1881,313.6971,return,0.6117,,55.46875,,,,,,FBP-RB-81.png,0.37,1.2,37,0.5,0,11,11,36,1,,,,,,,,,,,,,,,,,,,,,,,,,,,,,,,,,,,,,,,,
,,,,,SPR24_077,20,Female,2024-04-23_10h25.34.196,jersey_experiment_5_v0,2023.2.2,Win32,84.74576271,,,,,,,,,,,,,,,,313.6973,314.9998,314.9999,317,return,0.6288,,91.40625,,,,,,FBP-RB-71.png,0.45,1.2,35,0.5,0,12,12,34,1,,,,,,,,,,,,,,,,,,,,,,,,,,,,,,,,,,,,,,,,
,,,,,SPR24_077,20,Female,2024-04-23_10h25.34.196,jersey_experiment_5_v0,2023.2.2,Win32,84.74576271,,,,,,,,,,,,,,,,317.0001,318.0501,318.0502,320.1339,return,0.6252,,39.32291667,,,,,,FBP-YG-81.png,0.37,1.2,22,0.25,0,13,13,21,1,,,,,,,,,,,,,,,,,,,,,,,,,,,,,,,,,,,,,,,,
,,,,,SPR24_077,20,Female,2024-04-23_10h25.34.196,jersey_experiment_5_v0,2023.2.2,Win32,84.74576271,,,,,,,,,,,,,,,,320.1341,321.4383,321.4383,323.6032,return,0.7532,,46.22395833,,,,,,FBP-OG-18.png,0.37,1.2,7,0.5,0,14,14,6,1,,,,,,,,,,,,,,,,,,,,,,,,,,,,,,,,,,,,,,,,
,,,,,SPR24_077,20,Female,2024-04-23_10h25.34.196,jersey_experiment_5_v0,2023.2.2,Win32,84.74576271,,,,,,,,,,,,,,,,323.6034,324.9061,324.9062,326.9447,return,0.7295,,75.91145833,,,,,,FBP-OG-19.png,0.45,1.2,15,0.5,0,15,15,14,1,,,,,,,,,,,,,,,,,,,,,,,,,,,,,,,,,,,,,,,,
,,,,,SPR24_077,20,Female,2024-04-23_10h25.34.196,jersey_experiment_5_v0,2023.2.2,Win32,84.74576271,,,,,,,,,,,,,,,,326.9448,328.2475,328.2475,330.377,return,0.6059,,28.90625,,,,,,FBP-OG-18.png,0.35,1.2,6,0.5,0,16,16,5,1,,,,,,,,,,,,,,,,,,,,,,,,,,,,,,,,,,,,,,,,
,,,,,SPR24_077,20,Female,2024-04-23_10h25.34.196,jersey_experiment_5_v0,2023.2.2,Win32,84.74576271,,,,,,,,,,,,,,,,330.3772,331.4283,331.4283,333.2979,return,0.6122,,88.671875,,,,,,FBP-YG-81.png,0.45,1.2,25,0.25,0,17,17,24,1,,,,,,,,,,,,,,,,,,,,,,,,,,,,,,,,,,,,,,,,
,,,,,SPR24_077,20,Female,2024-04-23_10h25.34.196,jersey_experiment_5_v0,2023.2.2,Win32,84.74576271,,,,,,,,,,,,,,,,333.2981,334.3462,334.3462,336.8125,return,0.5906,,50.52083333,,,,,,FBP-YG-71.png,0.37,1.2,17,0.25,0,18,18,16,1,,,,,,,,,,,,,,,,,,,,,,,,,,,,,,,,,,,,,,,,
,,,,,SPR24_077,20,Female,2024-04-23_10h25.34.196,jersey_experiment_5_v0,2023.2.2,Win32,84.74576271,,,,,,,,,,,,,,,,336.8128,337.8596,337.8597,339.8054,return,0.5541,,70.3125,,,,,,FBP-PT-81.png,0.45,1.2,55,0.25,0,19,19,54,1,,,,,,,,,,,,,,,,,,,,,,,,,,,,,,,,,,,,,,,,
,,,,,SPR24_077,20,Female,2024-04-23_10h25.34.196,jersey_experiment_5_v0,2023.2.2,Win32,84.74576271,,,,,,,,,,,,,,,,339.8057,340.8509,340.851,343.9231,return,0.7428,,51.30208333,,,,,,FBP-YG-91.png,0.37,1.2,27,0.25,0,20,20,26,1,,,,,,,,,,,,,,,,,,,,,,,,,,,,,,,,,,,,,,,,
,,,,,SPR24_077,20,Female,2024-04-23_10h25.34.196,jersey_experiment_5_v0,2023.2.2,Win32,84.74576271,,,,,,,,,,,,,,,,343.9232,345.2276,345.2277,346.7305,return,0.5811,,40.36458333,,,,,,FBP-OG-19.png,0.37,1.2,12,0.5,0,21,21,11,1,,,,,,,,,,,,,,,,,,,,,,,,,,,,,,,,,,,,,,,,
,,,,,SPR24_077,20,Female,2024-04-23_10h25.34.196,jersey_experiment_5_v0,2023.2.2,Win32,84.74576271,,,,,,,,,,,,,,,,346.7308,348.0274,348.0275,350.3233,return,0.5545,,62.36979167,,,,,,FBP-RB-71.png,0.43,1.2,34,0.5,0,22,22,33,1,,,,,,,,,,,,,,,,,,,,,,,,,,,,,,,,,,,,,,,,
,,,,,SPR24_077,20,Female,2024-04-23_10h25.34.196,jersey_experiment_5_v0,2023.2.2,Win32,84.74576271,,,,,,,,,,,,,,,,350.3234,351.6168,351.6168,353.1661,return,0.5668,,72.78645833,,,,,,FBP-RB-81.png,0.43,1.2,39,0.5,0,23,23,38,1,,,,,,,,,,,,,,,,,,,,,,,,,,,,,,,,,,,,,,,,
,,,,,SPR24_077,20,Female,2024-04-23_10h25.34.196,jersey_experiment_5_v0,2023.2.2,Win32,84.74576271,,,,,,,,,,,,,,,,353.1663,354.4644,354.4644,357.6653,return,0.7664,,49.47916667,,,,,,FBP-RB-71.png,0.37,1.2,32,0.5,0,24,24,31,1,,,,,,,,,,,,,,,,,,,,,,,,,,,,,,,,,,,,,,,,
,,,,,SPR24_077,20,Female,2024-04-23_10h25.34.196,jersey_experiment_5_v0,2023.2.2,Win32,84.74576271,,,,,,,,,,,,,,,,357.6655,358.7073,358.7074,360.5663,return,0.6793,,62.109375,,,,,,FBP-PT-71.png,0.4,1.2,48,0.25,0,25,25,47,1,,,,,,,,,,,,,,,,,,,,,,,,,,,,,,,,,,,,,,,,
,,,,,SPR24_077,20,Female,2024-04-23_10h25.34.196,jersey_experiment_5_v0,2023.2.2,Win32,84.74576271,,,,,,,,,,,,,,,,360.5666,361.6133,361.6134,363.6489,return,0.6487,,74.86979167,,,,,,FBP-PT-81.png,0.43,1.2,54,0.25,0,26,26,53,1,,,,,,,,,,,,,,,,,,,,,,,,,,,,,,,,,,,,,,,,
,,,,,SPR24_077,20,Female,2024-04-23_10h25.34.196,jersey_experiment_5_v0,2023.2.2,Win32,84.74576271,,,,,,,,,,,,,,,,363.6491,364.6959,364.6959,367.0018,return,0.6406,,36.58854167,,,,,,FBP-PT-71.png,0.35,1.2,46,0.25,0,27,27,45,1,,,,,,,,,,,,,,,,,,,,,,,,,,,,,,,,,,,,,,,,
,,,,,SPR24_077,20,Female,2024-04-23_10h25.34.196,jersey_experiment_5_v0,2023.2.2,Win32,84.74576271,,,,,,,,,,,,,,,,367.0019,368.296,368.2961,372.3347,return,2.6828,,66.796875,,,,,,FBP-OG-18.png,0.45,1.2,10,0.5,0,28,28,9,1,,,,,,,,,,,,,,,,,,,,,,,,,,,,,,,,,,,,,,,,
,,,,,SPR24_077,20,Female,2024-04-23_10h25.34.196,jersey_experiment_5_v0,2023.2.2,Win32,84.74576271,,,,,,,,,,,,,,,,372.3348,373.6374,373.6375,376.7434,return,0.7843,,74.47916667,,,,,,FBP-OG-17.png,0.43,1.2,4,0.5,0,29,29,3,1,,,,,,,,,,,,,,,,,,,,,,,,,,,,,,,,,,,,,,,,
,,,,,SPR24_077,20,Female,2024-04-23_10h25.34.196,jersey_experiment_5_v0,2023.2.2,Win32,84.74576271,,,,,,,,,,,,,,,,376.7436,377.7931,377.7932,379.8494,return,0.8056,,84.24479167,,,,,,FBP-YG-71.png,0.43,1.2,19,0.25,0,30,30,18,1,,,,,,,,,,,,,,,,,,,,,,,,,,,,,,,,,,,,,,,,
,,,,,SPR24_077,20,Female,2024-04-23_10h25.34.196,jersey_experiment_5_v0,2023.2.2,Win32,84.74576271,,,,,,,,,,,,,,,,379.8496,380.8965,380.8966,383.1906,return,0.6777,,89.19270833,,,,,,FBP-YG-91.png,0.45,1.2,30,0.25,0,31,31,29,1,,,,,,,,,,,,,,,,,,,,,,,,,,,,,,,,,,,,,,,,
,,,,,SPR24_077,20,Female,2024-04-23_10h25.34.196,jersey_experiment_5_v0,2023.2.2,Win32,84.74576271,,,,,,,,,,,,,,,,383.1908,384.4885,384.4885,386.4143,return,0.5759,,39.71354167,,,,,,FBP-RB-81.png,0.35,1.2,36,0.5,0,32,32,35,1,,,,,,,,,,,,,,,,,,,,,,,,,,,,,,,,,,,,,,,,
,,,,,SPR24_077,20,Female,2024-04-23_10h25.34.196,jersey_experiment_5_v0,2023.2.2,Win32,84.74576271,,,,,,,,,,,,,,,,386.4145,387.4613,387.4613,389.76,return,0.7427,,52.99479167,,,,,,FBP-YG-81.png,0.4,1.2,23,0.25,0,33,33,22,1,,,,,,,,,,,,,,,,,,,,,,,,,,,,,,,,,,,,,,,,
,,,,,SPR24_077,20,Female,2024-04-23_10h25.34.196,jersey_experiment_5_v0,2023.2.2,Win32,84.74576271,,,,,,,,,,,,,,,,389.7601,391.0617,391.0617,392.9087,return,0.6011,,73.69791667,,,,,,FBP-RB-81.png,0.45,1.2,40,0.5,0,34,34,39,1,,,,,,,,,,,,,,,,,,,,,,,,,,,,,,,,,,,,,,,,
,,,,,SPR24_077,20,Female,2024-04-23_10h25.34.196,jersey_experiment_5_v0,2023.2.2,Win32,84.74576271,,,,,,,,,,,,,,,,392.9089,394.2028,394.2028,396.25,return,0.6273,,66.40625,,,,,,FBP-RB-81.png,0.4,1.2,38,0.5,0,35,35,37,1,,,,,,,,,,,,,,,,,,,,,,,,,,,,,,,,,,,,,,,,
,,,,,SPR24_077,20,Female,2024-04-23_10h25.34.196,jersey_experiment_5_v0,2023.2.2,Win32,84.74576271,,,,,,,,,,,,,,,,396.2501,397.5442,397.5442,399.0314,return,0.7289,,55.20833333,,,,,,FBP-OG-17.png,0.37,1.2,2,0.5,0,36,36,1,1,,,,,,,,,,,,,,,,,,,,,,,,,,,,,,,,,,,,,,,,
,,,,,SPR24_077,20,Female,2024-04-23_10h25.34.196,jersey_experiment_5_v0,2023.2.2,Win32,84.74576271,,,,,,,,,,,,,,,,399.0316,400.0763,400.0765,402.1239,return,1.2944,,34.50520833,,,,,,FBP-YG-81.png,0.35,1.2,21,0.25,0,37,37,20,1,,,,,,,,,,,,,,,,,,,,,,,,,,,,,,,,,,,,,,,,
,,,,,SPR24_077,20,Female,2024-04-23_10h25.34.196,jersey_experiment_5_v0,2023.2.2,Win32,84.74576271,,,,,,,,,,,,,,,,402.124,403.4317,403.4317,405.0783,return,0.6016,,51.04166667,,,,,,FBP-OG-19.png,0.4,1.2,13,0.5,0,38,38,12,1,,,,,,,,,,,,,,,,,,,,,,,,,,,,,,,,,,,,,,,,
,,,,,SPR24_077,20,Female,2024-04-23_10h25.34.196,jersey_experiment_5_v0,2023.2.2,Win32,84.74576271,,,,,,,,,,,,,,,,405.0785,406.121,406.121,408.1093,return,0.59,,74.34895833,,,,,,FBP-PT-91.png,0.43,1.2,59,0.25,0,39,39,58,1,,,,,,,,,,,,,,,,,,,,,,,,,,,,,,,,,,,,,,,,
,,,,,SPR24_077,20,Female,2024-04-23_10h25.34.196,jersey_experiment_5_v0,2023.2.2,Win32,84.74576271,,,,,,,,,,,,,,,,408.1095,409.1594,409.1594,411.0154,return,0.6549,,51.43229167,,,,,,FBP-PT-71.png,0.37,1.2,47,0.25,0,40,40,46,1,,,,,,,,,,,,,,,,,,,,,,,,,,,,,,,,,,,,,,,,
,,,,,SPR24_077,20,Female,2024-04-23_10h25.34.196,jersey_experiment_5_v0,2023.2.2,Win32,84.74576271,,,,,,,,,,,,,,,,411.0157,412.0624,412.0624,413.5125,return,0.5883,,65.75520833,,,,,,FBP-YG-71.png,0.4,1.2,18,0.25,0,41,41,17,1,,,,,,,,,,,,,,,,,,,,,,,,,,,,,,,,,,,,,,,,
,,,,,SPR24_077,20,Female,2024-04-23_10h25.34.196,jersey_experiment_5_v0,2023.2.2,Win32,84.74576271,,,,,,,,,,,,,,,,413.5127,414.5566,414.5566,416.5567,return,0.6007,,94.40104167,,,,,,FBP-YG-71.png,0.45,1.2,20,0.25,0,42,42,19,1,,,,,,,,,,,,,,,,,,,,,,,,,,,,,,,,,,,,,,,,
,,,,,SPR24_077,20,Female,2024-04-23_10h25.34.196,jersey_experiment_5_v0,2023.2.2,Win32,84.74576271,,,,,,,,,,,,,,,,416.5569,417.6038,417.6038,420.9013,return,2.1652,,76.5625,,,,,,FBP-PT-91.png,0.4,1.2,58,0.25,0,43,43,57,1,,,,,,,,,,,,,,,,,,,,,,,,,,,,,,,,,,,,,,,,
,,,,,SPR24_077,20,Female,2024-04-23_10h25.34.196,jersey_experiment_5_v0,2023.2.2,Win32,84.74576271,,,,,,,,,,,,,,,,420.9014,421.9451,421.9451,424.1248,return,0.6826,,71.61458333,,,,,,FBP-YG-91.png,0.4,1.2,28,0.25,0,44,44,27,1,,,,,,,,,,,,,,,,,,,,,,,,,,,,,,,,,,,,,,,,
,,,,,SPR24_077,20,Female,2024-04-23_10h25.34.196,jersey_experiment_5_v0,2023.2.2,Win32,84.74576271,,,,,,,,,,,,,,,,424.125,425.4319,425.4319,427.5497,return,1.1293,,67.578125,,,,,,FBP-OG-18.png,0.4,1.2,8,0.5,0,45,45,7,1,,,,,,,,,,,,,,,,,,,,,,,,,,,,,,,,,,,,,,,,
,,,,,SPR24_077,20,Female,2024-04-23_10h25.34.196,jersey_experiment_5_v0,2023.2.2,Win32,84.74576271,,,,,,,,,,,,,,,,427.5498,428.5954,428.5955,430.5572,return,0.7654,,43.359375,,,,,,FBP-PT-91.png,0.35,1.2,56,0.25,0,46,46,55,1,,,,,,,,,,,,,,,,,,,,,,,,,,,,,,,,,,,,,,,,
,,,,,SPR24_077,20,Female,2024-04-23_10h25.34.196,jersey_experiment_5_v0,2023.2.2,Win32,84.74576271,,,,,,,,,,,,,,,,430.5574,431.6043,431.6044,433.6078,return,0.6461,,6.640625,,,,,,FBP-YG-91.png,0.35,1.2,26,0.25,0,47,47,25,1,,,,,,,,,,,,,,,,,,,,,,,,,,,,,,,,,,,,,,,,
,,,,,SPR24_077,20,Female,2024-04-23_10h25.34.196,jersey_experiment_5_v0,2023.2.2,Win32,84.74576271,,,,,,,,,,,,,,,,433.6081,434.9103,434.9103,437.0088,return,0.6251,,66.27604167,,,,,,FBP-OG-18.png,0.43,1.2,9,0.5,0,48,48,8,1,,,,,,,,,,,,,,,,,,,,,,,,,,,,,,,,,,,,,,,,
,,,,,SPR24_077,20,Female,2024-04-23_10h25.34.196,jersey_experiment_5_v0,2023.2.2,Win32,84.74576271,,,,,,,,,,,,,,,,437.009,438.0546,438.0546,442.3136,return,1.8928,,98.95833333,,,,,,FBP-PT-71.png,0.45,1.2,50,0.25,0,49,49,49,1,,,,,,,,,,,,,,,,,,,,,,,,,,,,,,,,,,,,,,,,
,,,,,SPR24_077,20,Female,2024-04-23_10h25.34.196,jersey_experiment_5_v0,2023.2.2,Win32,84.74576271,,,,,,,,,,,,,,,,442.3138,443.6204,443.6204,444.6166,return,0.5705,,98.95833333,,,,,,FBP-OG-17.png,0.45,1.2,5,0.5,0,50,50,4,1,,,,,,,,,,,,,,,,,,,,,,,,,,,,,,,,,,,,,,,,
,,,,,SPR24_077,20,Female,2024-04-23_10h25.34.196,jersey_experiment_5_v0,2023.2.2,Win32,84.74576271,,,,,,,,,,,,,,,,444.6168,445.6636,445.6637,446.746,return,0.5462,,98.95833333,,,,,,FBP-PT-71.png,0.43,1.2,49,0.25,0,51,51,48,1,,,,,,,,,,,,,,,,,,,,,,,,,,,,,,,,,,,,,,,,
,,,,,SPR24_077,20,Female,2024-04-23_10h25.34.196,jersey_experiment_5_v0,2023.2.2,Win32,84.74576271,,,,,,,,,,,,,,,,446.7462,448.0401,448.0402,450.3272,return,1.2368,,98.56770833,,,,,,FBP-RB-91.png,0.45,1.2,45,0.5,0,52,52,44,1,,,,,,,,,,,,,,,,,,,,,,,,,,,,,,,,,,,,,,,,
,,,,,SPR24_077,20,Female,2024-04-23_10h25.34.196,jersey_experiment_5_v0,2023.2.2,Win32,84.74576271,,,,,,,,,,,,,,,,450.3274,451.6211,451.6212,453.4094,return,0.6355,,32.68229167,,,,,,FBP-RB-91.png,0.35,1.2,41,0.5,0,53,53,40,1,,,,,,,,,,,,,,,,,,,,,,,,,,,,,,,,,,,,,,,,
,,,,,SPR24_077,20,Female,2024-04-23_10h25.34.196,jersey_experiment_5_v0,2023.2.2,Win32,84.74576271,,,,,,,,,,,,,,,,453.4096,454.7111,454.7111,456.0085,return,0.5884,,21.484375,,,,,,FBP-OG-17.png,0.35,1.2,1,0.5,0,54,54,0,1,,,,,,,,,,,,,,,,,,,,,,,,,,,,,,,,,,,,,,,,
,,,,,SPR24_077,20,Female,2024-04-23_10h25.34.196,jersey_experiment_5_v0,2023.2.2,Win32,84.74576271,,,,,,,,,,,,,,,,456.0087,457.0571,457.0571,458.3508,return,0.6349,,13.54166667,,,,,,FBP-YG-71.png,0.35,1.2,16,0.25,0,55,55,15,1,,,,,,,,,,,,,,,,,,,,,,,,,,,,,,,,,,,,,,,,
,,,,,SPR24_077,20,Female,2024-04-23_10h25.34.196,jersey_experiment_5_v0,2023.2.2,Win32,84.74576271,,,,,,,,,,,,,,,,458.3509,459.6447,459.6448,463.491,return,2.9992,,68.61979167,,,,,,FBP-RB-91.png,0.4,1.2,43,0.5,0,56,56,42,1,,,,,,,,,,,,,,,,,,,,,,,,,,,,,,,,,,,,,,,,
,,,,,SPR24_077,20,Female,2024-04-23_10h25.34.196,jersey_experiment_5_v0,2023.2.2,Win32,84.74576271,,,,,,,,,,,,,,,,463.4913,464.7936,464.7937,466.735,return,0.5181,,50.26041667,,,,,,FBP-RB-91.png,0.37,1.2,42,0.5,0,57,57,41,1,,,,,,,,,,,,,,,,,,,,,,,,,,,,,,,,,,,,,,,,
,,,,,SPR24_077,20,Female,2024-04-23_10h25.34.196,jersey_experiment_5_v0,2023.2.2,Win32,84.74576271,,,,,,,,,,,,,,,,466.7353,467.7852,467.7852,469.8677,return,1.399,,46.61458333,,,,,,FBP-PT-81.png,0.35,1.2,51,0.25,0,58,58,50,1,,,,,,,,,,,,,,,,,,,,,,,,,,,,,,,,,,,,,,,,
,,,,,SPR24_077,20,Female,2024-04-23_10h25.34.196,jersey_experiment_5_v0,2023.2.2,Win32,84.74576271,,,,,,,,,,,,,,,,469.8678,470.9116,470.9117,472.3587,return,0.619,,51.82291667,,,,,,FBP-PT-81.png,0.37,1.2,52,0.25,0,59,59,51,1,,,,,,,,,,,,,,,,,,,,,,,,,,,,,,,,,,,,,,,,
,,,,,SPR24_077,20,Female,2024-04-23_10h25.34.196,jersey_experiment_5_v0,2023.2.2,Win32,84.74576271,,,,,,,,,,,,,,,,,,,,,,,,,,,,,,,,,,,,,,,472.3591,592.356,,,,,,,,,,,,,,,,,,,,,,,,,,,,,,,,,,,,,,
,,,,,SPR24_077,20,Female,2024-04-23_10h25.34.196,jersey_experiment_5_v0,2023.2.2,Win32,84.74576271,,,,,,,,,,,,,,,,,,,,,,,,,,,,,,,,,,,,,,,,,592.356,599.0493,return,6.6828,,,,,,,,,,,,,,,,,,,,,,,,,,,,,,,,,,
,,,,,SPR24_077,20,Female,2024-04-23_10h25.34.196,jersey_experiment_5_v0,2023.2.2,Win32,84.74576271,,,,,,,,,,,,,,,,599.0554,600.1047,600.1048,602.3284,return,1.0057,,63.15104167,,,,,,FBP-RB-17.png,0.4,1.2,33,0.25,,,,,,,,,,,,,0,0,0,32,1,,,,,,,,,,,,,,,,,,,,,,,,,,,,
,,,,,SPR24_077,20,Female,2024-04-23_10h25.34.196,jersey_experiment_5_v0,2023.2.2,Win32,84.74576271,,,,,,,,,,,,,,,,602.3288,603.6225,603.6226,605.1638,return,0.6035,,74.34895833,,,,,,FBP-YG-19.png,0.4,1.2,28,0.5,,,,,,,,,,,,,0,1,1,27,1,,,,,,,,,,,,,,,,,,,,,,,,,,,,
,,,,,SPR24_077,20,Female,2024-04-23_10h25.34.196,jersey_experiment_5_v0,2023.2.2,Win32,84.74576271,,,,,,,,,,,,,,,,605.164,606.2149,606.2149,607.9096,return,0.6345,,79.296875,,,,,,FBP-RB-19.png,0.43,1.2,44,0.25,,,,,,,,,,,,,0,2,2,43,1,,,,,,,,,,,,,,,,,,,,,,,,,,,,
,,,,,SPR24_077,20,Female,2024-04-23_10h25.34.196,jersey_experiment_5_v0,2023.2.2,Win32,84.74576271,,,,,,,,,,,,,,,,607.9099,608.9549,608.955,611.4636,return,1.6145,,86.19791667,,,,,,FBP-OG-71.png,0.43,1.2,4,0.25,,,,,,,,,,,,,0,3,3,3,1,,,,,,,,,,,,,,,,,,,,,,,,,,,,
,,,,,SPR24_077,20,Female,2024-04-23_10h25.34.196,jersey_experiment_5_v0,2023.2.2,Win32,84.74576271,,,,,,,,,,,,,,,,611.4638,612.7566,612.7566,614.5321,return,0.6592,,73.046875,,,,,,FBP-PT-18.png,0.43,1.2,54,0.5,,,,,,,,,,,,,0,4,4,53,1,,,,,,,,,,,,,,,,,,,,,,,,,,,,
,,,,,SPR24_077,20,Female,2024-04-23_10h25.34.196,jersey_experiment_5_v0,2023.2.2,Win32,84.74576271,,,,,,,,,,,,,,,,614.5322,615.5797,615.5797,617.7525,return,0.6174,,63.02083333,,,,,,FBP-OG-71.png,0.4,1.2,3,0.25,,,,,,,,,,,,,0,5,5,2,1,,,,,,,,,,,,,,,,,,,,,,,,,,,,
,,,,,SPR24_077,20,Female,2024-04-23_10h25.34.196,jersey_experiment_5_v0,2023.2.2,Win32,84.74576271,,,,,,,,,,,,,,,,617.7528,618.8034,618.8034,620.729,return,0.5813,,78.90625,,,,,,FBP-RB-17.png,0.45,1.2,35,0.25,,,,,,,,,,,,,0,6,6,34,1,,,,,,,,,,,,,,,,,,,,,,,,,,,,
,,,,,SPR24_077,20,Female,2024-04-23_10h25.34.196,jersey_experiment_5_v0,2023.2.2,Win32,84.74576271,,,,,,,,,,,,,,,,620.7291,621.7762,621.7762,623.4629,return,0.578,,33.72395833,,,,,,FBP-OG-71.png,0.35,1.2,1,0.25,,,,,,,,,,,,,0,7,7,0,1,,,,,,,,,,,,,,,,,,,,,,,,,,,,
,,,,,SPR24_077,20,Female,2024-04-23_10h25.34.196,jersey_experiment_5_v0,2023.2.2,Win32,84.74576271,,,,,,,,,,,,,,,,623.4631,624.5056,624.5056,627.0266,return,0.6461,,76.04166667,,,,,,FBP-RB-18.png,0.43,1.2,39,0.25,,,,,,,,,,,,,0,8,8,38,1,,,,,,,,,,,,,,,,,,,,,,,,,,,,
,,,,,SPR24_077,20,Female,2024-04-23_10h25.34.196,jersey_experiment_5_v0,2023.2.2,Win32,84.74576271,,,,,,,,,,,,,,,,627.0267,628.0705,628.0705,630.9225,return,1.3179,,82.94270833,,,,,,FBP-RB-19.png,0.45,1.2,45,0.25,,,,,,,,,,,,,0,9,9,44,1,,,,,,,,,,,,,,,,,,,,,,,,,,,,
,,,,,SPR24_077,20,Female,2024-04-23_10h25.34.196,jersey_experiment_5_v0,2023.2.2,Win32,84.74576271,,,,,,,,,,,,,,,,630.9227,631.9678,631.9679,633.7458,return,0.6252,,9.114583333,,,,,,FBP-RB-17.png,0.35,1.2,31,0.25,,,,,,,,,,,,,0,10,10,30,1,,,,,,,,,,,,,,,,,,,,,,,,,,,,
,,,,,SPR24_077,20,Female,2024-04-23_10h25.34.196,jersey_experiment_5_v0,2023.2.2,Win32,84.74576271,,,,,,,,,,,,,,,,633.7459,635.0396,635.0398,636.6001,return,0.7718,,24.609375,,,,,,FBP-YG-17.png,0.37,1.2,17,0.5,,,,,,,,,,,,,0,11,11,16,1,,,,,,,,,,,,,,,,,,,,,,,,,,,,
,,,,,SPR24_077,20,Female,2024-04-23_10h25.34.196,jersey_experiment_5_v0,2023.2.2,Win32,84.74576271,,,,,,,,,,,,,,,,636.6004,637.8944,637.8944,640.1459,return,1.3871,,15.36458333,,,,,,FBP-PT-18.png,0.37,1.2,52,0.5,,,,,,,,,,,,,0,12,12,51,1,,,,,,,,,,,,,,,,,,,,,,,,,,,,
,,,,,SPR24_077,20,Female,2024-04-23_10h25.34.196,jersey_experiment_5_v0,2023.2.2,Win32,84.74576271,,,,,,,,,,,,,,,,640.1461,641.4398,641.4399,643.6005,return,0.6228,,92.578125,,,,,,FBP-YG-18.png,0.45,1.2,25,0.5,,,,,,,,,,,,,0,13,13,24,1,,,,,,,,,,,,,,,,,,,,,,,,,,,,
,,,,,SPR24_077,20,Female,2024-04-23_10h25.34.196,jersey_experiment_5_v0,2023.2.2,Win32,84.74576271,,,,,,,,,,,,,,,,643.6006,644.6477,644.6477,646.6478,return,0.5711,,94.01041667,,,,,,FBP-OG-91.png,0.45,1.2,15,0.25,,,,,,,,,,,,,0,14,14,14,1,,,,,,,,,,,,,,,,,,,,,,,,,,,,
,,,,,SPR24_077,20,Female,2024-04-23_10h25.34.196,jersey_experiment_5_v0,2023.2.2,Win32,84.74576271,,,,,,,,,,,,,,,,646.648,647.9419,647.9419,651.0361,return,0.649,,99.08854167,,,,,,FBP-PT-17.png,0.45,1.2,50,0.5,,,,,,,,,,,,,0,15,15,49,1,,,,,,,,,,,,,,,,,,,,,,,,,,,,
,,,,,SPR24_077,20,Female,2024-04-23_10h25.34.196,jersey_experiment_5_v0,2023.2.2,Win32,84.74576271,,,,,,,,,,,,,,,,651.0362,652.0831,652.0831,654.2009,return,0.6404,,31.11979167,,,,,,FBP-OG-91.png,0.37,1.2,12,0.25,,,,,,,,,,,,,0,16,16,11,1,,,,,,,,,,,,,,,,,,,,,,,,,,,,
,,,,,SPR24_077,20,Female,2024-04-23_10h25.34.196,jersey_experiment_5_v0,2023.2.2,Win32,84.74576271,,,,,,,,,,,,,,,,654.201,655.2479,655.2479,657.3068,return,0.628,,25.78125,,,,,,FBP-RB-19.png,0.35,1.2,41,0.25,,,,,,,,,,,,,0,17,17,40,1,,,,,,,,,,,,,,,,,,,,,,,,,,,,
,,,,,SPR24_077,20,Female,2024-04-23_10h25.34.196,jersey_experiment_5_v0,2023.2.2,Win32,84.74576271,,,,,,,,,,,,,,,,657.307,658.354,658.3541,660.2716,return,0.5885,,24.609375,,,,,,FBP-RB-17.png,0.37,1.2,32,0.25,,,,,,,,,,,,,0,18,18,31,1,,,,,,,,,,,,,,,,,,,,,,,,,,,,
,,,,,SPR24_077,20,Female,2024-04-23_10h25.34.196,jersey_experiment_5_v0,2023.2.2,Win32,84.74576271,,,,,,,,,,,,,,,,660.2719,661.5688,661.5688,663.3102,return,0.6221,,15.36458333,,,,,,FBP-YG-19.png,0.35,1.2,26,0.5,,,,,,,,,,,,,0,19,19,25,1,,,,,,,,,,,,,,,,,,,,,,,,,,,,
,,,,,SPR24_077,20,Female,2024-04-23_10h25.34.196,jersey_experiment_5_v0,2023.2.2,Win32,84.74576271,,,,,,,,,,,,,,,,663.3104,664.3542,664.3542,667.6133,return,0.6122,,23.4375,,,,,,FBP-RB-18.png,0.37,1.2,37,0.25,,,,,,,,,,,,,0,20,20,36,1,,,,,,,,,,,,,,,,,,,,,,,,,,,,
,,,,,SPR24_077,20,Female,2024-04-23_10h25.34.196,jersey_experiment_5_v0,2023.2.2,Win32,84.74576271,,,,,,,,,,,,,,,,667.6135,668.9073,668.9073,671.6721,return,0.7236,,54.296875,,,,,,FBP-PT-19.png,0.4,1.2,58,0.5,,,,,,,,,,,,,0,21,21,57,1,,,,,,,,,,,,,,,,,,,,,,,,,,,,
,,,,,SPR24_077,20,Female,2024-04-23_10h25.34.196,jersey_experiment_5_v0,2023.2.2,Win32,84.74576271,,,,,,,,,,,,,,,,671.6722,672.7193,672.7193,675.0018,return,1.0868,,44.53125,,,,,,FBP-OG-91.png,0.35,1.2,11,0.25,,,,,,,,,,,,,0,22,22,10,1,,,,,,,,,,,,,,,,,,,,,,,,,,,,
,,,,,SPR24_077,20,Female,2024-04-23_10h25.34.196,jersey_experiment_5_v0,2023.2.2,Win32,84.74576271,,,,,,,,,,,,,,,,675.0019,676.2959,676.2959,678.2253,return,0.6483,,72.91666667,,,,,,FBP-PT-19.png,0.43,1.2,59,0.5,,,,,,,,,,,,,0,23,23,58,1,,,,,,,,,,,,,,,,,,,,,,,,,,,,
,,,,,SPR24_077,20,Female,2024-04-23_10h25.34.196,jersey_experiment_5_v0,2023.2.2,Win32,84.74576271,,,,,,,,,,,,,,,,678.2257,679.5195,679.5195,681.6138,return,0.6829,,23.56770833,,,,,,FBP-YG-18.png,0.35,1.2,21,0.5,,,,,,,,,,,,,0,24,24,20,1,,,,,,,,,,,,,,,,,,,,,,,,,,,,
,,,,,SPR24_077,20,Female,2024-04-23_10h25.34.196,jersey_experiment_5_v0,2023.2.2,Win32,84.74576271,,,,,,,,,,,,,,,,681.614,682.6607,682.6607,685.0963,return,0.6543,,70.18229167,,,,,,FBP-OG-91.png,0.4,1.2,13,0.25,,,,,,,,,,,,,0,25,25,12,1,,,,,,,,,,,,,,,,,,,,,,,,,,,,
,,,,,SPR24_077,20,Female,2024-04-23_10h25.34.196,jersey_experiment_5_v0,2023.2.2,Win32,84.74576271,,,,,,,,,,,,,,,,685.0964,686.3902,686.3902,688.1433,return,0.6223,,77.734375,,,,,,FBP-PT-17.png,0.43,1.2,49,0.5,,,,,,,,,,,,,0,26,26,48,1,,,,,,,,,,,,,,,,,,,,,,,,,,,,
,,,,,SPR24_077,20,Female,2024-04-23_10h25.34.196,jersey_experiment_5_v0,2023.2.2,Win32,84.74576271,,,,,,,,,,,,,,,,688.1435,689.4375,689.4375,693.1905,return,2.6428,,62.76041667,,,,,,FBP-YG-17.png,0.4,1.2,18,0.5,,,,,,,,,,,,,0,27,27,17,1,,,,,,,,,,,,,,,,,,,,,,,,,,,,
,,,,,SPR24_077,20,Female,2024-04-23_10h25.34.196,jersey_experiment_5_v0,2023.2.2,Win32,84.74576271,,,,,,,,,,,,,,,,693.1907,694.4848,694.4848,696.2524,return,0.6452,,52.734375,,,,,,FBP-PT-17.png,0.4,1.2,48,0.5,,,,,,,,,,,,,0,28,28,47,1,,,,,,,,,,,,,,,,,,,,,,,,,,,,
,,,,,SPR24_077,20,Female,2024-04-23_10h25.34.196,jersey_experiment_5_v0,2023.2.2,Win32,84.74576271,,,,,,,,,,,,,,,,696.2525,697.3007,697.3008,699.8058,return,1.1534,,60.80729167,,,,,,FBP-OG-81.png,0.43,1.2,9,0.25,,,,,,,,,,,,,0,29,29,8,1,,,,,,,,,,,,,,,,,,,,,,,,,,,,
,,,,,SPR24_077,20,Female,2024-04-23_10h25.34.196,jersey_experiment_5_v0,2023.2.2,Win32,84.74576271,,,,,,,,,,,,,,,,699.806,700.8496,700.8497,702.9086,return,0.5087,,60.80729167,,,,,,FBP-RB-18.png,0.4,1.2,38,0.25,,,,,,,,,,,,,0,30,30,37,1,,,,,,,,,,,,,,,,,,,,,,,,,,,,
,,,,,SPR24_077,20,Female,2024-04-23_10h25.34.196,jersey_experiment_5_v0,2023.2.2,Win32,84.74576271,,,,,,,,,,,,,,,,702.9088,704.2027,704.2028,706.0147,return,0.6017,,46.484375,,,,,,FBP-YG-18.png,0.37,1.2,22,0.5,,,,,,,,,,,,,0,31,31,21,1,,,,,,,,,,,,,,,,,,,,,,,,,,,,
,,,,,SPR24_077,20,Female,2024-04-23_10h25.34.196,jersey_experiment_5_v0,2023.2.2,Win32,84.74576271,,,,,,,,,,,,,,,,706.0148,707.3117,707.3117,711.1913,return,2.0297,,86.328125,,,,,,FBP-YG-19.png,0.45,1.2,30,0.5,,,,,,,,,,,,,0,32,32,29,1,,,,,,,,,,,,,,,,,,,,,,,,,,,,
,,,,,SPR24_077,20,Female,2024-04-23_10h25.34.196,jersey_experiment_5_v0,2023.2.2,Win32,84.74576271,,,,,,,,,,,,,,,,711.1914,712.4855,712.4855,715.9445,return,0.7119,,85.41666667,,,,,,FBP-YG-19.png,0.43,1.2,29,0.5,,,,,,,,,,,,,0,33,33,28,1,,,,,,,,,,,,,,,,,,,,,,,,,,,,
,,,,,SPR24_077,20,Female,2024-04-23_10h25.34.196,jersey_experiment_5_v0,2023.2.2,Win32,84.74576271,,,,,,,,,,,,,,,,715.9448,716.9915,716.9915,718.9563,return,0.5561,,63.54166667,,,,,,FBP-RB-19.png,0.4,1.2,43,0.25,,,,,,,,,,,,,0,34,34,42,1,,,,,,,,,,,,,,,,,,,,,,,,,,,,
,,,,,SPR24_077,20,Female,2024-04-23_10h25.34.196,jersey_experiment_5_v0,2023.2.2,Win32,84.74576271,,,,,,,,,,,,,,,,718.9565,720.0034,720.0034,722.7446,return,1.2049,,31.11979167,,,,,,FBP-OG-81.png,0.35,1.2,6,0.25,,,,,,,,,,,,,0,35,35,5,1,,,,,,,,,,,,,,,,,,,,,,,,,,,,
,,,,,SPR24_077,20,Female,2024-04-23_10h25.34.196,jersey_experiment_5_v0,2023.2.2,Win32,84.74576271,,,,,,,,,,,,,,,,722.7448,723.7917,723.7917,727.9009,return,2.3168,,94.01041667,,,,,,FBP-OG-81.png,0.45,1.2,10,0.25,,,,,,,,,,,,,0,36,36,9,1,,,,,,,,,,,,,,,,,,,,,,,,,,,,
,,,,,SPR24_077,20,Female,2024-04-23_10h25.34.196,jersey_experiment_5_v0,2023.2.2,Win32,84.74576271,,,,,,,,,,,,,,,,727.9011,729.2037,729.2038,730.8744,return,0.5933,,99.34895833,,,,,,FBP-PT-19.png,0.45,1.2,60,0.5,,,,,,,,,,,,,0,37,37,59,1,,,,,,,,,,,,,,,,,,,,,,,,,,,,
,,,,,SPR24_077,20,Female,2024-04-23_10h25.34.196,jersey_experiment_5_v0,2023.2.2,Win32,84.74576271,,,,,,,,,,,,,,,,730.8745,732.1684,732.1684,734.0745,return,0.603,,76.953125,,,,,,FBP-YG-18.png,0.4,1.2,23,0.5,,,,,,,,,,,,,0,38,38,22,1,,,,,,,,,,,,,,,,,,,,,,,,,,,,
,,,,,SPR24_077,20,Female,2024-04-23_10h25.34.196,jersey_experiment_5_v0,2023.2.2,Win32,84.74576271,,,,,,,,,,,,,,,,734.0747,735.3687,735.3688,738.8276,return,2.0509,,49.47916667,,,,,,FBP-PT-17.png,0.37,1.2,47,0.5,,,,,,,,,,,,,0,39,39,46,1,,,,,,,,,,,,,,,,,,,,,,,,,,,,
,,,,,SPR24_077,20,Female,2024-04-23_10h25.34.196,jersey_experiment_5_v0,2023.2.2,Win32,84.74576271,,,,,,,,,,,,,,,,738.8278,739.8747,739.8747,741.7837,return,0.5036,,98.17708333,,,,,,FBP-RB-18.png,0.45,1.2,40,0.25,,,,,,,,,,,,,0,40,40,39,1,,,,,,,,,,,,,,,,,,,,,,,,,,,,
,,,,,SPR24_077,20,Female,2024-04-23_10h25.34.196,jersey_experiment_5_v0,2023.2.2,Win32,84.74576271,,,,,,,,,,,,,,,,741.7838,743.0866,743.0866,745.2866,return,0.7262,,51.5625,,,,,,FBP-PT-17.png,0.35,1.2,46,0.5,,,,,,,,,,,,,0,41,41,45,1,,,,,,,,,,,,,,,,,,,,,,,,,,,,
,,,,,SPR24_077,20,Female,2024-04-23_10h25.34.196,jersey_experiment_5_v0,2023.2.2,Win32,84.74576271,,,,,,,,,,,,,,,,745.2868,746.3386,746.3386,748.3926,return,0.5702,,45.18229167,,,,,,FBP-OG-81.png,0.4,1.2,8,0.25,,,,,,,,,,,,,0,42,42,7,1,,,,,,,,,,,,,,,,,,,,,,,,,,,,
,,,,,SPR24_077,20,Female,2024-04-23_10h25.34.196,jersey_experiment_5_v0,2023.2.2,Win32,84.74576271,,,,,,,,,,,,,,,,748.3929,749.6868,749.6868,751.4442,return,0.6016,,32.03125,,,,,,FBP-PT-18.png,0.35,1.2,51,0.5,,,,,,,,,,,,,0,43,43,50,1,,,,,,,,,,,,,,,,,,,,,,,,,,,,
,,,,,SPR24_077,20,Female,2024-04-23_10h25.34.196,jersey_experiment_5_v0,2023.2.2,Win32,84.74576271,,,,,,,,,,,,,,,,751.4444,752.7458,752.7459,754.3812,return,0.5905,,27.47395833,,,,,,FBP-PT-19.png,0.35,1.2,56,0.5,,,,,,,,,,,,,0,44,44,55,1,,,,,,,,,,,,,,,,,,,,,,,,,,,,
,,,,,SPR24_077,20,Female,2024-04-23_10h25.34.196,jersey_experiment_5_v0,2023.2.2,Win32,84.74576271,,,,,,,,,,,,,,,,754.3814,755.6753,755.6753,757.5106,return,0.7485,,36.19791667,,,,,,FBP-PT-19.png,0.37,1.2,57,0.5,,,,,,,,,,,,,0,45,45,56,1,,,,,,,,,,,,,,,,,,,,,,,,,,,,
,,,,,SPR24_077,20,Female,2024-04-23_10h25.34.196,jersey_experiment_5_v0,2023.2.2,Win32,84.74576271,,,,,,,,,,,,,,,,757.5109,758.5578,758.5578,760.6873,return,0.753,,32.68229167,,,,,,FBP-OG-81.png,0.37,1.2,7,0.25,,,,,,,,,,,,,0,46,46,6,1,,,,,,,,,,,,,,,,,,,,,,,,,,,,
,,,,,SPR24_077,20,Female,2024-04-23_10h25.34.196,jersey_experiment_5_v0,2023.2.2,Win32,84.74576271,,,,,,,,,,,,,,,,760.6874,761.9861,761.9861,764.6404,return,1.5296,,58.07291667,,,,,,FBP-PT-18.png,0.4,1.2,53,0.5,,,,,,,,,,,,,0,47,47,52,1,,,,,,,,,,,,,,,,,,,,,,,,,,,,
,,,,,SPR24_077,20,Female,2024-04-23_10h25.34.196,jersey_experiment_5_v0,2023.2.2,Win32,84.74576271,,,,,,,,,,,,,,,,764.6405,765.9387,765.9387,768.6523,return,1.4139,,75.78125,,,,,,FBP-YG-18.png,0.43,1.2,24,0.5,,,,,,,,,,,,,0,48,48,23,1,,,,,,,,,,,,,,,,,,,,,,,,,,,,
,,,,,SPR24_077,20,Female,2024-04-23_10h25.34.196,jersey_experiment_5_v0,2023.2.2,Win32,84.74576271,,,,,,,,,,,,,,,,768.6525,769.9464,769.9465,771.6759,return,0.5917,,59.50520833,,,,,,FBP-YG-19.png,0.37,1.2,27,0.5,,,,,,,,,,,,,0,49,49,26,1,,,,,,,,,,,,,,,,,,,,,,,,,,,,
,,,,,SPR24_077,20,Female,2024-04-23_10h25.34.196,jersey_experiment_5_v0,2023.2.2,Win32,84.74576271,,,,,,,,,,,,,,,,771.6761,772.7229,772.723,774.476,return,0.6149,,47.00520833,,,,,,FBP-RB-18.png,0.35,1.2,36,0.25,,,,,,,,,,,,,0,50,50,35,1,,,,,,,,,,,,,,,,,,,,,,,,,,,,
,,,,,SPR24_077,20,Female,2024-04-23_10h25.34.196,jersey_experiment_5_v0,2023.2.2,Win32,84.74576271,,,,,,,,,,,,,,,,774.4762,775.5231,775.5231,777.6409,return,0.664,,74.47916667,,,,,,FBP-RB-17.png,0.43,1.2,34,0.25,,,,,,,,,,,,,0,51,51,33,1,,,,,,,,,,,,,,,,,,,,,,,,,,,,
,,,,,SPR24_077,20,Female,2024-04-23_10h25.34.196,jersey_experiment_5_v0,2023.2.2,Win32,84.74576271,,,,,,,,,,,,,,,,777.6411,778.688,778.688,780.9384,return,0.6697,,53.38541667,,,,,,FBP-RB-19.png,0.37,1.2,42,0.25,,,,,,,,,,,,,0,52,52,41,1,,,,,,,,,,,,,,,,,,,,,,,,,,,,
,,,,,SPR24_077,20,Female,2024-04-23_10h25.34.196,jersey_experiment_5_v0,2023.2.2,Win32,84.74576271,,,,,,,,,,,,,,,,780.9385,782.2409,782.2409,785.456,return,2.1986,,80.078125,,,,,,FBP-YG-17.png,0.45,1.2,20,0.5,,,,,,,,,,,,,0,53,53,19,1,,,,,,,,,,,,,,,,,,,,,,,,,,,,
,,,,,SPR24_077,20,Female,2024-04-23_10h25.34.196,jersey_experiment_5_v0,2023.2.2,Win32,84.74576271,,,,,,,,,,,,,,,,785.4561,786.5,786.5,788.4648,return,0.6016,,48.30729167,,,,,,FBP-OG-71.png,0.37,1.2,2,0.25,,,,,,,,,,,,,0,54,54,1,1,,,,,,,,,,,,,,,,,,,,,,,,,,,,
,,,,,SPR24_077,20,Female,2024-04-23_10h25.34.196,jersey_experiment_5_v0,2023.2.2,Win32,84.74576271,,,,,,,,,,,,,,,,788.4651,789.7589,789.759,792.7634,return,1.8822,,69.66145833,,,,,,FBP-YG-17.png,0.43,1.2,19,0.5,,,,,,,,,,,,,0,55,55,18,1,,,,,,,,,,,,,,,,,,,,,,,,,,,,
,,,,,SPR24_077,20,Female,2024-04-23_10h25.34.196,jersey_experiment_5_v0,2023.2.2,Win32,84.74576271,,,,,,,,,,,,,,,,792.7635,794.0651,794.0651,795.6887,return,0.5597,,90.234375,,,,,,FBP-PT-18.png,0.45,1.2,55,0.5,,,,,,,,,,,,,0,56,56,54,1,,,,,,,,,,,,,,,,,,,,,,,,,,,,
,,,,,SPR24_077,20,Female,2024-04-23_10h25.34.196,jersey_experiment_5_v0,2023.2.2,Win32,84.74576271,,,,,,,,,,,,,,,,795.6889,796.9828,796.9829,799.0534,return,0.6832,,48.95833333,,,,,,FBP-YG-17.png,0.35,1.2,16,0.5,,,,,,,,,,,,,0,57,57,15,1,,,,,,,,,,,,,,,,,,,,,,,,,,,,
,,,,,SPR24_077,20,Female,2024-04-23_10h25.34.196,jersey_experiment_5_v0,2023.2.2,Win32,84.74576271,,,,,,,,,,,,,,,,799.0537,800.1046,800.1047,803.752,return,0.6827,,74.21875,,,,,,FBP-OG-91.png,0.43,1.2,14,0.25,,,,,,,,,,,,,0,58,58,13,1,,,,,,,,,,,,,,,,,,,,,,,,,,,,
,,,,,SPR24_077,20,Female,2024-04-23_10h25.34.196,jersey_experiment_5_v0,2023.2.2,Win32,84.74576271,,,,,,,,,,,,,,,,803.7522,804.7947,804.7947,806.9126,return,0.6363,,84.375,,,,,,FBP-OG-71.png,0.45,1.2,5,0.25,,,,,,,,,,,,,0,59,59,4,1,,,,,,,,,,,,,,,,,,,,,,,,,,,,
,,,,,SPR24_077,20,Female,2024-04-23_10h25.34.196,jersey_experiment_5_v0,2023.2.2,Win32,84.74576271,,,,,,,,,,,,,,,,806.9144,807.9596,807.9596,811.4068,return,1.3779,,72.39583333,,,,,,FBP-RB-71.png,0.4,1.2,33,0.25,,,,,,,,,,,,,,,,,,0,0,0,32,1,,,,,,,,,,,,,,,,,,,,,,,
,,,,,SPR24_077,20,Female,2024-04-23_10h25.34.196,jersey_experiment_5_v0,2023.2.2,Win32,84.74576271,,,,,,,,,,,,,,,,811.4072,812.7008,812.7009,814.5055,return,0.8232,,31.25,,,,,,FBP-PT-91.png,0.35,1.2,56,0.5,,,,,,,,,,,,,,,,,,0,1,1,55,1,,,,,,,,,,,,,,,,,,,,,,,
,,,,,SPR24_077,20,Female,2024-04-23_10h25.34.196,jersey_experiment_5_v0,2023.2.2,Win32,84.74576271,,,,,,,,,,,,,,,,814.5056,815.5482,815.5482,817.9012,return,0.8373,,27.60416667,,,,,,FBP-OG-17.png,0.35,1.2,1,0.25,,,,,,,,,,,,,,,,,,0,2,2,0,1,,,,,,,,,,,,,,,,,,,,,,,
,,,,,SPR24_077,20,Female,2024-04-23_10h25.34.196,jersey_experiment_5_v0,2023.2.2,Win32,84.74576271,,,,,,,,,,,,,,,,817.9014,818.953,818.953,820.9248,return,0.6379,,38.28125,,,,,,FBP-OG-17.png,0.37,1.2,2,0.25,,,,,,,,,,,,,,,,,,0,3,3,1,1,,,,,,,,,,,,,,,,,,,,,,,
,,,,,SPR24_077,20,Female,2024-04-23_10h25.34.196,jersey_experiment_5_v0,2023.2.2,Win32,84.74576271,,,,,,,,,,,,,,,,820.925,821.972,821.972,824.3485,return,0.5899,,34.765625,,,,,,FBP-RB-81.png,0.35,1.2,36,0.25,,,,,,,,,,,,,,,,,,0,4,4,35,1,,,,,,,,,,,,,,,,,,,,,,,
,,,,,SPR24_077,20,Female,2024-04-23_10h25.34.196,jersey_experiment_5_v0,2023.2.2,Win32,84.74576271,,,,,,,,,,,,,,,,824.3488,825.3956,825.3956,827.6823,return,0.5542,,69.140625,,,,,,FBP-RB-91.png,0.43,1.2,44,0.25,,,,,,,,,,,,,,,,,,0,5,5,43,1,,,,,,,,,,,,,,,,,,,,,,,
,,,,,SPR24_077,20,Female,2024-04-23_10h25.34.196,jersey_experiment_5_v0,2023.2.2,Win32,84.74576271,,,,,,,,,,,,,,,,827.6825,828.984,828.984,830.6076,return,0.5786,,73.56770833,,,,,,FBP-PT-71.png,0.4,1.2,48,0.5,,,,,,,,,,,,,,,,,,0,6,6,47,1,,,,,,,,,,,,,,,,,,,,,,,
,,,,,SPR24_077,20,Female,2024-04-23_10h25.34.196,jersey_experiment_5_v0,2023.2.2,Win32,84.74576271,,,,,,,,,,,,,,,,830.6077,831.9017,831.9017,834.0782,return,0.7175,,35.41666667,,,,,,FBP-PT-71.png,0.35,1.2,46,0.5,,,,,,,,,,,,,,,,,,0,7,7,45,1,,,,,,,,,,,,,,,,,,,,,,,
,,,,,SPR24_077,20,Female,2024-04-23_10h25.34.196,jersey_experiment_5_v0,2023.2.2,Win32,84.74576271,,,,,,,,,,,,,,,,834.0785,835.3723,835.3723,836.9137,return,0.4951,,28.77604167,,,,,,FBP-YG-81.png,0.35,1.2,21,0.5,,,,,,,,,,,,,,,,,,0,8,8,20,1,,,,,,,,,,,,,,,,,,,,,,,
,,,,,SPR24_077,20,Female,2024-04-23_10h25.34.196,jersey_experiment_5_v0,2023.2.2,Win32,84.74576271,,,,,,,,,,,,,,,,836.9139,838.2079,838.208,840.2957,return,0.6497,,63.28125,,,,,,FBP-YG-71.png,0.4,1.2,18,0.5,,,,,,,,,,,,,,,,,,0,9,9,17,1,,,,,,,,,,,,,,,,,,,,,,,
,,,,,SPR24_077,20,Female,2024-04-23_10h25.34.196,jersey_experiment_5_v0,2023.2.2,Win32,84.74576271,,,,,,,,,,,,,,,,840.2959,841.5962,841.5962,843.0081,return,0.5414,,50,,,,,,FBP-PT-81.png,0.37,1.2,52,0.5,,,,,,,,,,,,,,,,,,0,10,10,51,1,,,,,,,,,,,,,,,,,,,,,,,
,,,,,SPR24_077,20,Female,2024-04-23_10h25.34.196,jersey_experiment_5_v0,2023.2.2,Win32,84.74576271,,,,,,,,,,,,,,,,843.0083,844.0551,844.0551,846.2114,return,0.5416,,72.52604167,,,,,,FBP-RB-81.png,0.43,1.2,39,0.25,,,,,,,,,,,,,,,,,,0,11,11,38,1,,,,,,,,,,,,,,,,,,,,,,,
,,,,,SPR24_077,20,Female,2024-04-23_10h25.34.196,jersey_experiment_5_v0,2023.2.2,Win32,84.74576271,,,,,,,,,,,,,,,,846.2115,847.2553,847.2553,849.1421,return,0.6014,,91.40625,,,,,,FBP-OG-17.png,0.45,1.2,5,0.25,,,,,,,,,,,,,,,,,,0,12,12,4,1,,,,,,,,,,,,,,,,,,,,,,,
,,,,,SPR24_077,20,Female,2024-04-23_10h25.34.196,jersey_experiment_5_v0,2023.2.2,Win32,84.74576271,,,,,,,,,,,,,,,,849.1423,850.1848,850.1848,852.9613,return,0.6485,,48.17708333,,,,,,FBP-RB-71.png,0.35,1.2,31,0.25,,,,,,,,,,,,,,,,,,0,13,13,30,1,,,,,,,,,,,,,,,,,,,,,,,
,,,,,SPR24_077,20,Female,2024-04-23_10h25.34.196,jersey_experiment_5_v0,2023.2.2,Win32,84.74576271,,,,,,,,,,,,,,,,852.9616,854.2587,854.2587,857.2439,return,1.4036,,89.58333333,,,,,,FBP-PT-71.png,0.45,1.2,50,0.5,,,,,,,,,,,,,,,,,,0,14,14,49,1,,,,,,,,,,,,,,,,,,,,,,,
,,,,,SPR24_077,20,Female,2024-04-23_10h25.34.196,jersey_experiment_5_v0,2023.2.2,Win32,84.74576271,,,,,,,,,,,,,,,,857.2441,858.5409,858.5409,860.306,return,0.7064,,69.921875,,,,,,FBP-PT-81.png,0.4,1.2,53,0.5,,,,,,,,,,,,,,,,,,0,15,15,52,1,,,,,,,,,,,,,,,,,,,,,,,
,,,,,SPR24_077,20,Female,2024-04-23_10h25.34.196,jersey_experiment_5_v0,2023.2.2,Win32,84.74576271,,,,,,,,,,,,,,,,860.3061,861.6088,861.6088,863.4323,return,0.6165,,50.52083333,,,,,,FBP-YG-91.png,0.35,1.2,26,0.5,,,,,,,,,,,,,,,,,,0,16,16,25,1,,,,,,,,,,,,,,,,,,,,,,,
,,,,,SPR24_077,20,Female,2024-04-23_10h25.34.196,jersey_experiment_5_v0,2023.2.2,Win32,84.74576271,,,,,,,,,,,,,,,,863.4325,864.7264,864.7265,866.0324,return,0.4583,,43.61979167,,,,,,FBP-YG-71.png,0.35,1.2,16,0.5,,,,,,,,,,,,,,,,,,0,17,17,15,1,,,,,,,,,,,,,,,,,,,,,,,
,,,,,SPR24_077,20,Female,2024-04-23_10h25.34.196,jersey_experiment_5_v0,2023.2.2,Win32,84.74576271,,,,,,,,,,,,,,,,866.0327,867.331,867.331,868.9415,return,0.6931,,65.36458333,,,,,,FBP-YG-91.png,0.4,1.2,28,0.5,,,,,,,,,,,,,,,,,,0,18,18,27,1,,,,,,,,,,,,,,,,,,,,,,,
,,,,,SPR24_077,20,Female,2024-04-23_10h25.34.196,jersey_experiment_5_v0,2023.2.2,Win32,84.74576271,,,,,,,,,,,,,,,,868.9416,869.9855,869.9855,872.1739,return,1.5313,,60.67708333,,,,,,FBP-RB-81.png,0.37,1.2,37,0.25,,,,,,,,,,,,,,,,,,0,19,19,36,1,,,,,,,,,,,,,,,,,,,,,,,
,,,,,SPR24_077,20,Female,2024-04-23_10h25.34.196,jersey_experiment_5_v0,2023.2.2,Win32,84.74576271,,,,,,,,,,,,,,,,872.1741,873.2209,873.221,875.0564,return,0.6021,,72.65625,,,,,,FBP-OG-18.png,0.4,1.2,8,0.25,,,,,,,,,,,,,,,,,,0,20,20,7,1,,,,,,,,,,,,,,,,,,,,,,,
,,,,,SPR24_077,20,Female,2024-04-23_10h25.34.196,jersey_experiment_5_v0,2023.2.2,Win32,84.74576271,,,,,,,,,,,,,,,,875.0565,876.1034,876.1034,878.0916,return,0.6274,,75.78125,,,,,,FBP-RB-81.png,0.4,1.2,38,0.25,,,,,,,,,,,,,,,,,,0,21,21,37,1,,,,,,,,,,,,,,,,,,,,,,,
,,,,,SPR24_077,20,Female,2024-04-23_10h25.34.196,jersey_experiment_5_v0,2023.2.2,Win32,84.74576271,,,,,,,,,,,,,,,,878.0919,879.143,879.1431,880.8949,return,0.5989,,75.390625,,,,,,FBP-OG-19.png,0.4,1.2,13,0.25,,,,,,,,,,,,,,,,,,0,22,22,12,1,,,,,,,,,,,,,,,,,,,,,,,
,,,,,SPR24_077,20,Female,2024-04-23_10h25.34.196,jersey_experiment_5_v0,2023.2.2,Win32,84.74576271,,,,,,,,,,,,,,,,880.895,881.943,881.943,884.8009,return,0.693,,57.29166667,,,,,,FBP-OG-19.png,0.35,1.2,11,0.25,,,,,,,,,,,,,,,,,,0,23,23,10,1,,,,,,,,,,,,,,,,,,,,,,,
,,,,,SPR24_077,20,Female,2024-04-23_10h25.34.196,jersey_experiment_5_v0,2023.2.2,Win32,84.74576271,,,,,,,,,,,,,,,,884.801,886.0954,886.0955,888.6804,return,1.6059,,80.859375,,,,,,FBP-PT-91.png,0.45,1.2,60,0.5,,,,,,,,,,,,,,,,,,0,24,24,59,1,,,,,,,,,,,,,,,,,,,,,,,
,,,,,SPR24_077,20,Female,2024-04-23_10h25.34.196,jersey_experiment_5_v0,2023.2.2,Win32,84.74576271,,,,,,,,,,,,,,,,888.6806,889.9745,889.9746,892.2098,return,0.7058,,42.1875,,,,,,FBP-PT-81.png,0.35,1.2,51,0.5,,,,,,,,,,,,,,,,,,0,25,25,50,1,,,,,,,,,,,,,,,,,,,,,,,
,,,,,SPR24_077,20,Female,2024-04-23_10h25.34.196,jersey_experiment_5_v0,2023.2.2,Win32,84.74576271,,,,,,,,,,,,,,,,892.2099,893.5041,893.5041,895.5277,return,0.9713,,57.29166667,,,,,,FBP-YG-81.png,0.37,1.2,22,0.5,,,,,,,,,,,,,,,,,,0,26,26,21,1,,,,,,,,,,,,,,,,,,,,,,,
,,,,,SPR24_077,20,Female,2024-04-23_10h25.34.196,jersey_experiment_5_v0,2023.2.2,Win32,84.74576271,,,,,,,,,,,,,,,,895.528,896.5794,896.5794,898.1865,return,0.6148,,98.17708333,,,,,,FBP-RB-71.png,0.45,1.2,35,0.25,,,,,,,,,,,,,,,,,,0,27,27,34,1,,,,,,,,,,,,,,,,,,,,,,,
,,,,,SPR24_077,20,Female,2024-04-23_10h25.34.196,jersey_experiment_5_v0,2023.2.2,Win32,84.74576271,,,,,,,,,,,,,,,,898.1867,899.2379,899.2379,901.2102,return,0.5806,,59.50520833,,,,,,FBP-OG-19.png,0.37,1.2,12,0.25,,,,,,,,,,,,,,,,,,0,28,28,11,1,,,,,,,,,,,,,,,,,,,,,,,
,,,,,SPR24_077,20,Female,2024-04-23_10h25.34.196,jersey_experiment_5_v0,2023.2.2,Win32,84.74576271,,,,,,,,,,,,,,,,901.2105,902.2574,902.2574,903.9633,return,0.5557,,94.01041667,,,,,,FBP-RB-81.png,0.45,1.2,40,0.25,,,,,,,,,,,,,,,,,,0,29,29,39,1,,,,,,,,,,,,,,,,,,,,,,,
,,,,,SPR24_077,20,Female,2024-04-23_10h25.34.196,jersey_experiment_5_v0,2023.2.2,Win32,84.74576271,,,,,,,,,,,,,,,,903.9634,905.2574,905.2574,906.7163,return,0.5676,,99.609375,,,,,,FBP-YG-91.png,0.45,1.2,30,0.5,,,,,,,,,,,,,,,,,,0,30,30,29,1,,,,,,,,,,,,,,,,,,,,,,,
,,,,,SPR24_077,20,Female,2024-04-23_10h25.34.196,jersey_experiment_5_v0,2023.2.2,Win32,84.74576271,,,,,,,,,,,,,,,,906.7164,907.7634,907.7634,910.0382,return,0.5647,,75.91145833,,,,,,FBP-OG-17.png,0.4,1.2,3,0.25,,,,,,,,,,,,,,,,,,0,31,31,2,1,,,,,,,,,,,,,,,,,,,,,,,
,,,,,SPR24_077,20,Female,2024-04-23_10h25.34.196,jersey_experiment_5_v0,2023.2.2,Win32,84.74576271,,,,,,,,,,,,,,,,910.0384,911.343,911.3431,912.5798,return,0.5546,,91.27604167,,,,,,FBP-PT-81.png,0.45,1.2,55,0.5,,,,,,,,,,,,,,,,,,0,32,32,54,1,,,,,,,,,,,,,,,,,,,,,,,
,,,,,SPR24_077,20,Female,2024-04-23_10h25.34.196,jersey_experiment_5_v0,2023.2.2,Win32,84.74576271,,,,,,,,,,,,,,,,912.5799,913.8813,913.8814,915.8267,return,0.5544,,74.73958333,,,,,,FBP-YG-81.png,0.4,1.2,23,0.5,,,,,,,,,,,,,,,,,,0,33,33,22,1,,,,,,,,,,,,,,,,,,,,,,,
,,,,,SPR24_077,20,Female,2024-04-23_10h25.34.196,jersey_experiment_5_v0,2023.2.2,Win32,84.74576271,,,,,,,,,,,,,,,,915.8269,917.1313,917.1313,918.3081,return,0.5756,,84.24479167,,,,,,FBP-YG-91.png,0.43,1.2,29,0.5,,,,,,,,,,,,,,,,,,0,34,34,28,1,,,,,,,,,,,,,,,,,,,,,,,
,,,,,SPR24_077,20,Female,2024-04-23_10h25.34.196,jersey_experiment_5_v0,2023.2.2,Win32,84.74576271,,,,,,,,,,,,,,,,918.3084,919.6108,919.6109,921.3405,return,0.5896,,76.5625,,,,,,FBP-PT-91.png,0.43,1.2,59,0.5,,,,,,,,,,,,,,,,,,0,35,35,58,1,,,,,,,,,,,,,,,,,,,,,,,
,,,,,SPR24_077,20,Female,2024-04-23_10h25.34.196,jersey_experiment_5_v0,2023.2.2,Win32,84.74576271,,,,,,,,,,,,,,,,921.3406,922.3875,922.3875,923.9288,return,0.5233,,78.38541667,,,,,,FBP-OG-17.png,0.43,1.2,4,0.25,,,,,,,,,,,,,,,,,,0,36,36,3,1,,,,,,,,,,,,,,,,,,,,,,,
,,,,,SPR24_077,20,Female,2024-04-23_10h25.34.196,jersey_experiment_5_v0,2023.2.2,Win32,84.74576271,,,,,,,,,,,,,,,,923.929,924.9799,924.9799,926.8228,return,0.8072,,56.38020833,,,,,,FBP-OG-18.png,0.35,1.2,6,0.25,,,,,,,,,,,,,,,,,,0,37,37,5,1,,,,,,,,,,,,,,,,,,,,,,,
,,,,,SPR24_077,20,Female,2024-04-23_10h25.34.196,jersey_experiment_5_v0,2023.2.2,Win32,84.74576271,,,,,,,,,,,,,,,,926.8229,927.8742,927.8742,929.5216,return,0.6251,,76.171875,,,,,,FBP-OG-19.png,0.43,1.2,14,0.25,,,,,,,,,,,,,,,,,,0,38,38,13,1,,,,,,,,,,,,,,,,,,,,,,,
,,,,,SPR24_077,20,Female,2024-04-23_10h25.34.196,jersey_experiment_5_v0,2023.2.2,Win32,84.74576271,,,,,,,,,,,,,,,,929.5217,930.5642,930.5642,932.4231,return,0.4908,,58.203125,,,,,,FBP-RB-71.png,0.37,1.2,32,0.25,,,,,,,,,,,,,,,,,,0,39,39,31,1,,,,,,,,,,,,,,,,,,,,,,,
,,,,,SPR24_077,20,Female,2024-04-23_10h25.34.196,jersey_experiment_5_v0,2023.2.2,Win32,84.74576271,,,,,,,,,,,,,,,,932.4232,933.4702,933.4703,934.8114,return,0.6027,,76.30208333,,,,,,FBP-OG-19.png,0.45,1.2,15,0.25,,,,,,,,,,,,,,,,,,0,40,40,14,1,,,,,,,,,,,,,,,,,,,,,,,
,,,,,SPR24_077,20,Female,2024-04-23_10h25.34.196,jersey_experiment_5_v0,2023.2.2,Win32,84.74576271,,,,,,,,,,,,,,,,934.8116,936.1099,936.1099,937.2031,return,0.599,,83.984375,,,,,,FBP-PT-71.png,0.43,1.2,49,0.5,,,,,,,,,,,,,,,,,,0,41,41,48,1,,,,,,,,,,,,,,,,,,,,,,,
,,,,,SPR24_077,20,Female,2024-04-23_10h25.34.196,jersey_experiment_5_v0,2023.2.2,Win32,84.74576271,,,,,,,,,,,,,,,,937.2033,938.51,938.5101,939.5796,return,0.6227,,87.76041667,,,,,,FBP-YG-81.png,0.43,1.2,24,0.5,,,,,,,,,,,,,,,,,,0,42,42,23,1,,,,,,,,,,,,,,,,,,,,,,,
,,,,,SPR24_077,20,Female,2024-04-23_10h25.34.196,jersey_experiment_5_v0,2023.2.2,Win32,84.74576271,,,,,,,,,,,,,,,,939.5797,940.8822,940.8823,943.7765,return,1.7178,,53.38541667,,,,,,FBP-YG-91.png,0.37,1.2,27,0.5,,,,,,,,,,,,,,,,,,0,43,43,26,1,,,,,,,,,,,,,,,,,,,,,,,
,,,,,SPR24_077,20,Female,2024-04-23_10h25.34.196,jersey_experiment_5_v0,2023.2.2,Win32,84.74576271,,,,,,,,,,,,,,,,943.7768,945.0751,945.0751,946.3222,return,0.5886,,71.875,,,,,,FBP-YG-81.png,0.45,1.2,25,0.5,,,,,,,,,,,,,,,,,,0,44,44,24,1,,,,,,,,,,,,,,,,,,,,,,,
,,,,,SPR24_077,20,Female,2024-04-23_10h25.34.196,jersey_experiment_5_v0,2023.2.2,Win32,84.74576271,,,,,,,,,,,,,,,,946.3223,947.365,947.365,950.1886,return,0.5792,,48.69791667,,,,,,FBP-RB-91.png,0.35,1.2,41,0.25,,,,,,,,,,,,,,,,,,0,45,45,40,1,,,,,,,,,,,,,,,,,,,,,,,
,,,,,SPR24_077,20,Female,2024-04-23_10h25.34.196,jersey_experiment_5_v0,2023.2.2,Win32,84.74576271,,,,,,,,,,,,,,,,950.1888,951.4859,951.4859,953.18,return,0.6223,,80.46875,,,,,,FBP-YG-71.png,0.45,1.2,20,0.5,,,,,,,,,,,,,,,,,,0,46,46,19,1,,,,,,,,,,,,,,,,,,,,,,,
,,,,,SPR24_077,20,Female,2024-04-23_10h25.34.196,jersey_experiment_5_v0,2023.2.2,Win32,84.74576271,,,,,,,,,,,,,,,,953.1802,954.4828,954.4828,956.1343,return,0.9179,,77.60416667,,,,,,FBP-PT-81.png,0.43,1.2,54,0.5,,,,,,,,,,,,,,,,,,0,47,47,53,1,,,,,,,,,,,,,,,,,,,,,,,
,,,,,SPR24_077,20,Female,2024-04-23_10h25.34.196,jersey_experiment_5_v0,2023.2.2,Win32,84.74576271,,,,,,,,,,,,,,,,956.1344,957.4388,957.4388,959.1772,return,1.1349,,63.93229167,,,,,,FBP-PT-91.png,0.4,1.2,58,0.5,,,,,,,,,,,,,,,,,,0,48,48,57,1,,,,,,,,,,,,,,,,,,,,,,,
,,,,,SPR24_077,20,Female,2024-04-23_10h25.34.196,jersey_experiment_5_v0,2023.2.2,Win32,84.74576271,,,,,,,,,,,,,,,,959.1774,960.2241,960.2242,961.7419,return,0.5888,,74.08854167,,,,,,FBP-RB-71.png,0.43,1.2,34,0.25,,,,,,,,,,,,,,,,,,0,49,49,33,1,,,,,,,,,,,,,,,,,,,,,,,
,,,,,SPR24_077,20,Female,2024-04-23_10h25.34.196,jersey_experiment_5_v0,2023.2.2,Win32,84.74576271,,,,,,,,,,,,,,,,961.7421,963.036,963.036,964.6862,return,0.5884,,50.390625,,,,,,FBP-PT-91.png,0.37,1.2,57,0.5,,,,,,,,,,,,,,,,,,0,50,50,56,1,,,,,,,,,,,,,,,,,,,,,,,
,,,,,SPR24_077,20,Female,2024-04-23_10h25.34.196,jersey_experiment_5_v0,2023.2.2,Win32,84.74576271,,,,,,,,,,,,,,,,964.6864,965.7304,965.7304,968.2529,return,0.766,,75.78125,,,,,,FBP-OG-18.png,0.45,1.2,10,0.25,,,,,,,,,,,,,,,,,,0,51,51,9,1,,,,,,,,,,,,,,,,,,,,,,,
,,,,,SPR24_077,20,Female,2024-04-23_10h25.34.196,jersey_experiment_5_v0,2023.2.2,Win32,84.74576271,,,,,,,,,,,,,,,,968.253,969.2951,969.2952,972.0984,return,1.318,,51.953125,,,,,,FBP-OG-18.png,0.37,1.2,7,0.25,,,,,,,,,,,,,,,,,,0,52,52,6,1,,,,,,,,,,,,,,,,,,,,,,,
,,,,,SPR24_077,20,Female,2024-04-23_10h25.34.196,jersey_experiment_5_v0,2023.2.2,Win32,84.74576271,,,,,,,,,,,,,,,,972.0985,973.4054,973.4055,976.2632,return,2.0814,,47.52604167,,,,,,FBP-PT-71.png,0.37,1.2,47,0.5,,,,,,,,,,,,,,,,,,0,53,53,46,1,,,,,,,,,,,,,,,,,,,,,,,
,,,,,SPR24_077,20,Female,2024-04-23_10h25.34.196,jersey_experiment_5_v0,2023.2.2,Win32,84.74576271,,,,,,,,,,,,,,,,976.2635,977.5661,977.5661,979.6885,return,1.2712,,70.83333333,,,,,,FBP-YG-71.png,0.43,1.2,19,0.5,,,,,,,,,,,,,,,,,,0,54,54,18,1,,,,,,,,,,,,,,,,,,,,,,,
,,,,,SPR24_077,20,Female,2024-04-23_10h25.34.196,jersey_experiment_5_v0,2023.2.2,Win32,84.74576271,,,,,,,,,,,,,,,,979.6886,980.7309,980.7309,982.2369,return,0.5656,,74.609375,,,,,,FBP-OG-18.png,0.43,1.2,9,0.25,,,,,,,,,,,,,,,,,,0,55,55,8,1,,,,,,,,,,,,,,,,,,,,,,,
,,,,,SPR24_077,20,Female,2024-04-23_10h25.34.196,jersey_experiment_5_v0,2023.2.2,Win32,84.74576271,,,,,,,,,,,,,,,,982.2371,983.2881,983.2882,985.5193,return,0.9515,,54.55729167,,,,,,FBP-RB-91.png,0.37,1.2,42,0.25,,,,,,,,,,,,,,,,,,0,56,56,41,1,,,,,,,,,,,,,,,,,,,,,,,
,,,,,SPR24_077,20,Female,2024-04-23_10h25.34.196,jersey_experiment_5_v0,2023.2.2,Win32,84.74576271,,,,,,,,,,,,,,,,985.5195,986.5694,986.5695,988.5193,return,0.5718,,76.04166667,,,,,,FBP-RB-91.png,0.45,1.2,45,0.25,,,,,,,,,,,,,,,,,,0,57,57,44,1,,,,,,,,,,,,,,,,,,,,,,,
,,,,,SPR24_077,20,Female,2024-04-23_10h25.34.196,jersey_experiment_5_v0,2023.2.2,Win32,84.74576271,,,,,,,,,,,,,,,,988.5194,989.5664,989.5665,992.5901,return,1.0119,,69.921875,,,,,,FBP-RB-91.png,0.4,1.2,43,0.25,,,,,,,,,,,,,,,,,,0,58,58,42,1,,,,,,,,,,,,,,,,,,,,,,,
,,,,,SPR24_077,20,Female,2024-04-23_10h25.34.196,jersey_experiment_5_v0,2023.2.2,Win32,84.74576271,,,,,,,,,,,,,,,,992.5904,993.8843,993.8843,996.3476,return,0.6251,,51.69270833,,,,,,FBP-YG-71.png,0.37,1.2,17,0.5,,,,,,,,,,,,,,,,,,0,59,59,16,1,,,,,,,,,,,,,,,,,,,,,,,
,,,,,SPR24_077,20,Female,2024-04-23_10h25.34.196,jersey_experiment_5_v0,2023.2.2,Win32,84.74576271,,,,,,,,,,,,,,,,,,,,,,,,,,,,,,,,,,,,,,,,,,,,,,,,,,,,,,,,996.3479,1004.0262,return,7.6647,,,,,,,,,,,,,,,,,,,
,,,,,SPR24_077,20,Female,2024-04-23_10h25.34.196,jersey_experiment_5_v0,2023.2.2,Win32,84.74576271,,,,,,,,,,,,,,,,,,,,,,,,,,,,,,,,,,,,,,,,,,,,,,,,,,,,,,,,,,,,,1004.0263,1009.9482,1,4.5864,return,1.3072,,,,,,,,,,,,
,,,,,SPR24_077,20,Female,2024-04-23_10h25.34.196,jersey_experiment_5_v0,2023.2.2,Win32,84.74576271,,,,,,,,,,,,,,,,,,,,,,,,,,,,,,,,,,,,,,,,,,,,,,,,,,,,,,,,,,,,,,,,,,,,1009.9483,1052.7386,"Differences in response based on previous images. Color patterns, size patterns",right,36.0382,,,,,,
,,,,,SPR24_077,20,Female,2024-04-23_10h25.34.196,jersey_experiment_5_v0,2023.2.2,Win32,84.74576271,,,,,,,,,,,,,,,,,,,,,,,,,,,,,,,,,,,,,,,,,,,,,,,,,,,,,,,,,,,,,,,,,,,,,,,,,,1052.7386,1057.0869,return,4.3295,