requirements.started,requirements.stopped,key_resp_3.keys,key_resp_3.rt,key_resp_3.duration,Subject ID,Age,Gender,date,expName,psychopyVersion,OS,frameRate,instructions1.started,instructions1.stopped,key_resp.keys,key_resp.rt,key_resp.duration,example.started,example.stopped,enter_2.keys,enter_2.rt,enter_2.duration,instructions2.started,instructions2.stopped,enter_3.keys,enter_3.rt,enter_3.duration,image.started,image.stopped,slider_2.started,slider_2.stopped,next.keys,next.rt,next.duration,slider.response,trial_block_1.thisRepN,trial_block_1.thisTrialN,trial_block_1.thisN,trial_block_1.thisIndex,trial_block_1.ran,Path,Width,Height,Index,Duration,trial_block_2.thisRepN,trial_block_2.thisTrialN,trial_block_2.thisN,trial_block_2.thisIndex,trial_block_2.ran,rest_break.started,rest_break.stopped,end_break.started,end_break.stopped,key_resp_5.keys,key_resp_5.rt,key_resp_5.duration,trial_block_3.thisRepN,trial_block_3.thisTrialN,trial_block_3.thisN,trial_block_3.thisIndex,trial_block_3.ran,trial_block_4.thisRepN,trial_block_4.thisTrialN,trial_block_4.thisN,trial_block_4.thisIndex,trial_block_4.ran,questions_intro.started,questions_intro.stopped,enter_12.keys,enter_12.rt,enter_12.duration,question2.started,question2.stopped,question_doingbest.response,question_doingbest.rt,enter_15.keys,enter_15.rt,enter_15.duration,pattern.started,pattern.stopped,pattern_2.text,enter_17.keys,enter_17.rt,enter_17.duration,thankyou.started,thankyou.stopped,enter_14.keys,enter_14.rt,enter_14.duration
0.0001,23.3846,return,23.377,,SPR24_044,18,Female,2024-04-12_13h32.11.378,jersey_experiment_5_v0,2023.2.2,Win32,84.74576271,,,,,,,,,,,,,,,,,,,,,,,,,,,,,,,,,,,,,,,,,,,,,,,,,,,,,,,,,,,,,,,,,,,,,,,,,,,,,,
,,,,,SPR24_044,18,Female,2024-04-12_13h32.11.378,jersey_experiment_5_v0,2023.2.2,Win32,84.74576271,23.3846,38.0571,return,14.6594,,,,,,,,,,,,,,,,,,,,,,,,,,,,,,,,,,,,,,,,,,,,,,,,,,,,,,,,,,,,,,,,,,,,,,,,,,
,,,,,SPR24_044,18,Female,2024-04-12_13h32.11.378,jersey_experiment_5_v0,2023.2.2,Win32,84.74576271,,,,,,38.0572,63.3714,return,25.2777,,,,,,,,,,,,,,,,,,,,,,,,,,,,,,,,,,,,,,,,,,,,,,,,,,,,,,,,,,,,,,,,,,,,,
,,,,,SPR24_044,18,Female,2024-04-12_13h32.11.378,jersey_experiment_5_v0,2023.2.2,Win32,84.74576271,,,,,,,,,,,63.3715,94.5842,return,31.1937,,,,,,,,,,,,,,,,,,,,,,,,,,,,,,,,,,,,,,,,,,,,,,,,,,,,,,,,,,,,,,,,
,,,,,SPR24_044,18,Female,2024-04-12_13h32.11.378,jersey_experiment_5_v0,2023.2.2,Win32,84.74576271,,,,,,,,,,,,,,,,94.5912,95.6428,95.6429,106.0903,return,3.3649,,74.21875,0,0,0,25,1,FBP-YG-19.png,0.35,1.2,26,0.25,,,,,,,,,,,,,,,,,,,,,,,,,,,,,,,,,,,,,,,,,,,,,
,,,,,SPR24_044,18,Female,2024-04-12_13h32.11.378,jersey_experiment_5_v0,2023.2.2,Win32,84.74576271,,,,,,,,,,,,,,,,106.0906,107.1372,107.1372,114.667,return,3.9076,,25,0,1,1,50,1,FBP-PT-18.png,0.35,1.2,51,0.25,,,,,,,,,,,,,,,,,,,,,,,,,,,,,,,,,,,,,,,,,,,,,
,,,,,SPR24_044,18,Female,2024-04-12_13h32.11.378,jersey_experiment_5_v0,2023.2.2,Win32,84.74576271,,,,,,,,,,,,,,,,114.6711,115.714,115.7141,121.1027,return,2.062,,99.47916667,0,2,2,17,1,FBP-YG-17.png,0.4,1.2,18,0.25,,,,,,,,,,,,,,,,,,,,,,,,,,,,,,,,,,,,,,,,,,,,,
,,,,,SPR24_044,18,Female,2024-04-12_13h32.11.378,jersey_experiment_5_v0,2023.2.2,Win32,84.74576271,,,,,,,,,,,,,,,,121.1028,122.1496,122.1496,125.9616,return,1.0014,,74.47916667,0,3,3,53,1,FBP-PT-18.png,0.43,1.2,54,0.25,,,,,,,,,,,,,,,,,,,,,,,,,,,,,,,,,,,,,,,,,,,,,
,,,,,SPR24_044,18,Female,2024-04-12_13h32.11.378,jersey_experiment_5_v0,2023.2.2,Win32,84.74576271,,,,,,,,,,,,,,,,125.9617,127.2556,127.2557,130.3971,return,0.918,,49.47916667,0,4,4,44,1,FBP-RB-19.png,0.45,1.2,45,0.5,,,,,,,,,,,,,,,,,,,,,,,,,,,,,,,,,,,,,,,,,,,,,
,,,,,SPR24_044,18,Female,2024-04-12_13h32.11.378,jersey_experiment_5_v0,2023.2.2,Win32,84.74576271,,,,,,,,,,,,,,,,130.3973,131.6912,131.6913,135.1502,return,1.2712,,25.13020833,0,5,5,11,1,FBP-OG-91.png,0.37,1.2,12,0.5,,,,,,,,,,,,,,,,,,,,,,,,,,,,,,,,,,,,,,,,,,,,,
,,,,,SPR24_044,18,Female,2024-04-12_13h32.11.378,jersey_experiment_5_v0,2023.2.2,Win32,84.74576271,,,,,,,,,,,,,,,,135.1504,136.4443,136.4443,152.5037,return,2.8286,,0,0,6,6,30,1,FBP-RB-17.png,0.35,1.2,31,0.5,,,,,,,,,,,,,,,,,,,,,,,,,,,,,,,,,,,,,,,,,,,,,
,,,,,SPR24_044,18,Female,2024-04-12_13h32.11.378,jersey_experiment_5_v0,2023.2.2,Win32,84.74576271,,,,,,,,,,,,,,,,152.504,153.7979,153.7979,157.798,return,0.9008,,74.47916667,0,7,7,9,1,FBP-OG-81.png,0.45,1.2,10,0.5,,,,,,,,,,,,,,,,,,,,,,,,,,,,,,,,,,,,,,,,,,,,,
,,,,,SPR24_044,18,Female,2024-04-12_13h32.11.378,jersey_experiment_5_v0,2023.2.2,Win32,84.74576271,,,,,,,,,,,,,,,,157.7982,158.8451,158.8451,162.41,return,1.1323,,74.47916667,0,8,8,22,1,FBP-YG-18.png,0.4,1.2,23,0.25,,,,,,,,,,,,,,,,,,,,,,,,,,,,,,,,,,,,,,,,,,,,,
,,,,,SPR24_044,18,Female,2024-04-12_13h32.11.378,jersey_experiment_5_v0,2023.2.2,Win32,84.74576271,,,,,,,,,,,,,,,,162.4101,163.7041,163.7041,167.0219,return,1.1389,,24.73958333,0,9,9,6,1,FBP-OG-81.png,0.37,1.2,7,0.5,,,,,,,,,,,,,,,,,,,,,,,,,,,,,,,,,,,,,,,,,,,,,
,,,,,SPR24_044,18,Female,2024-04-12_13h32.11.378,jersey_experiment_5_v0,2023.2.2,Win32,84.74576271,,,,,,,,,,,,,,,,167.022,168.0691,168.0691,172.5399,return,1.0122,,49.34895833,0,10,10,29,1,FBP-YG-19.png,0.45,1.2,30,0.25,,,,,,,,,,,,,,,,,,,,,,,,,,,,,,,,,,,,,,,,,,,,,
,,,,,SPR24_044,18,Female,2024-04-12_13h32.11.378,jersey_experiment_5_v0,2023.2.2,Win32,84.74576271,,,,,,,,,,,,,,,,172.54,173.5867,173.5868,180.3753,return,1.2734,,74.609375,0,11,11,23,1,FBP-YG-18.png,0.43,1.2,24,0.25,,,,,,,,,,,,,,,,,,,,,,,,,,,,,,,,,,,,,,,,,,,,,
,,,,,SPR24_044,18,Female,2024-04-12_13h32.11.378,jersey_experiment_5_v0,2023.2.2,Win32,84.74576271,,,,,,,,,,,,,,,,180.3756,181.6695,181.6696,185.0815,return,1.0506,,25,0,12,12,10,1,FBP-OG-91.png,0.35,1.2,11,0.5,,,,,,,,,,,,,,,,,,,,,,,,,,,,,,,,,,,,,,,,,,,,,
,,,,,SPR24_044,18,Female,2024-04-12_13h32.11.378,jersey_experiment_5_v0,2023.2.2,Win32,84.74576271,,,,,,,,,,,,,,,,185.0818,186.1284,186.1284,196.6701,return,2.4708,,0,0,13,13,55,1,FBP-PT-19.png,0.35,1.2,56,0.25,,,,,,,,,,,,,,,,,,,,,,,,,,,,,,,,,,,,,,,,,,,,,
,,,,,SPR24_044,18,Female,2024-04-12_13h32.11.378,jersey_experiment_5_v0,2023.2.2,Win32,84.74576271,,,,,,,,,,,,,,,,196.6703,197.9642,197.9643,200.5524,return,0.8986,,24.86979167,0,14,14,7,1,FBP-OG-81.png,0.4,1.2,8,0.5,,,,,,,,,,,,,,,,,,,,,,,,,,,,,,,,,,,,,,,,,,,,,
,,,,,SPR24_044,18,Female,2024-04-12_13h32.11.378,jersey_experiment_5_v0,2023.2.2,Win32,84.74576271,,,,,,,,,,,,,,,,200.5526,201.8466,201.8467,212.6117,return,2.3972,,0,0,15,15,41,1,FBP-RB-19.png,0.37,1.2,42,0.5,,,,,,,,,,,,,,,,,,,,,,,,,,,,,,,,,,,,,,,,,,,,,
,,,,,SPR24_044,18,Female,2024-04-12_13h32.11.378,jersey_experiment_5_v0,2023.2.2,Win32,84.74576271,,,,,,,,,,,,,,,,212.6119,213.6587,213.6587,217.3413,return,0.9178,,24.73958333,0,16,16,47,1,FBP-PT-17.png,0.4,1.2,48,0.25,,,,,,,,,,,,,,,,,,,,,,,,,,,,,,,,,,,,,,,,,,,,,
,,,,,SPR24_044,18,Female,2024-04-12_13h32.11.378,jersey_experiment_5_v0,2023.2.2,Win32,84.74576271,,,,,,,,,,,,,,,,217.3415,218.6355,218.6355,224.1534,return,0.8972,,25,0,17,17,39,1,FBP-RB-18.png,0.45,1.2,40,0.5,,,,,,,,,,,,,,,,,,,,,,,,,,,,,,,,,,,,,,,,,,,,,
,,,,,SPR24_044,18,Female,2024-04-12_13h32.11.378,jersey_experiment_5_v0,2023.2.2,Win32,84.74576271,,,,,,,,,,,,,,,,224.1535,225.2005,225.2005,231.3065,return,1.1642,,74.34895833,0,18,18,48,1,FBP-PT-17.png,0.43,1.2,49,0.25,,,,,,,,,,,,,,,,,,,,,,,,,,,,,,,,,,,,,,,,,,,,,
,,,,,SPR24_044,18,Female,2024-04-12_13h32.11.378,jersey_experiment_5_v0,2023.2.2,Win32,84.74576271,,,,,,,,,,,,,,,,231.3068,232.6008,232.6008,236.9537,return,2.1675,,74.34895833,0,19,19,0,1,FBP-OG-71.png,0.35,1.2,1,0.5,,,,,,,,,,,,,,,,,,,,,,,,,,,,,,,,,,,,,,,,,,,,,
,,,,,SPR24_044,18,Female,2024-04-12_13h32.11.378,jersey_experiment_5_v0,2023.2.2,Win32,84.74576271,,,,,,,,,,,,,,,,236.9539,238.248,238.248,241.7894,return,0.942,,99.609375,0,20,20,38,1,FBP-RB-18.png,0.43,1.2,39,0.5,,,,,,,,,,,,,,,,,,,,,,,,,,,,,,,,,,,,,,,,,,,,,
,,,,,SPR24_044,18,Female,2024-04-12_13h32.11.378,jersey_experiment_5_v0,2023.2.2,Win32,84.74576271,,,,,,,,,,,,,,,,241.7896,243.0834,243.0834,246.2483,return,0.9219,,74.86979167,0,21,21,2,1,FBP-OG-71.png,0.4,1.2,3,0.5,,,,,,,,,,,,,,,,,,,,,,,,,,,,,,,,,,,,,,,,,,,,,
,,,,,SPR24_044,18,Female,2024-04-12_13h32.11.378,jersey_experiment_5_v0,2023.2.2,Win32,84.74576271,,,,,,,,,,,,,,,,246.2486,247.5425,247.5425,251.0839,return,0.9557,,49.73958333,0,22,22,1,1,FBP-OG-71.png,0.37,1.2,2,0.5,,,,,,,,,,,,,,,,,,,,,,,,,,,,,,,,,,,,,,,,,,,,,
,,,,,SPR24_044,18,Female,2024-04-12_13h32.11.378,jersey_experiment_5_v0,2023.2.2,Win32,84.74576271,,,,,,,,,,,,,,,,251.0842,252.1308,252.1309,255.2838,return,0.8797,,74.73958333,0,23,23,57,1,FBP-PT-19.png,0.4,1.2,58,0.25,,,,,,,,,,,,,,,,,,,,,,,,,,,,,,,,,,,,,,,,,,,,,
,,,,,SPR24_044,18,Female,2024-04-12_13h32.11.378,jersey_experiment_5_v0,2023.2.2,Win32,84.74576271,,,,,,,,,,,,,,,,255.284,256.578,256.578,258.6959,return,0.7438,,74.73958333,0,24,24,3,1,FBP-OG-71.png,0.43,1.2,4,0.5,,,,,,,,,,,,,,,,,,,,,,,,,,,,,,,,,,,,,,,,,,,,,
,,,,,SPR24_044,18,Female,2024-04-12_13h32.11.378,jersey_experiment_5_v0,2023.2.2,Win32,84.74576271,,,,,,,,,,,,,,,,258.6962,259.743,259.743,265.3547,return,3.1782,,50.13020833,0,25,25,16,1,FBP-YG-17.png,0.37,1.2,17,0.25,,,,,,,,,,,,,,,,,,,,,,,,,,,,,,,,,,,,,,,,,,,,,
,,,,,SPR24_044,18,Female,2024-04-12_13h32.11.378,jersey_experiment_5_v0,2023.2.2,Win32,84.74576271,,,,,,,,,,,,,,,,265.355,266.649,266.6491,269.6257,return,0.7919,,99.73958333,0,26,26,37,1,FBP-RB-18.png,0.4,1.2,38,0.5,,,,,,,,,,,,,,,,,,,,,,,,,,,,,,,,,,,,,,,,,,,,,
,,,,,SPR24_044,18,Female,2024-04-12_13h32.11.378,jersey_experiment_5_v0,2023.2.2,Win32,84.74576271,,,,,,,,,,,,,,,,269.6259,270.6728,270.6728,272.7787,return,0.8239,,99.73958333,0,27,27,51,1,FBP-PT-18.png,0.37,1.2,52,0.25,,,,,,,,,,,,,,,,,,,,,,,,,,,,,,,,,,,,,,,,,,,,,
,,,,,SPR24_044,18,Female,2024-04-12_13h32.11.378,jersey_experiment_5_v0,2023.2.2,Win32,84.74576271,,,,,,,,,,,,,,,,272.779,273.8258,273.8258,276.92,return,0.7694,,99.73958333,0,28,28,56,1,FBP-PT-19.png,0.37,1.2,57,0.25,,,,,,,,,,,,,,,,,,,,,,,,,,,,,,,,,,,,,,,,,,,,,
,,,,,SPR24_044,18,Female,2024-04-12_13h32.11.378,jersey_experiment_5_v0,2023.2.2,Win32,84.74576271,,,,,,,,,,,,,,,,276.9203,277.967,277.967,280.2617,return,0.64,,99.73958333,0,29,29,18,1,FBP-YG-17.png,0.43,1.2,19,0.25,,,,,,,,,,,,,,,,,,,,,,,,,,,,,,,,,,,,,,,,,,,,,
,,,,,SPR24_044,18,Female,2024-04-12_13h32.11.378,jersey_experiment_5_v0,2023.2.2,Win32,84.74576271,,,,,,,,,,,,,,,,280.2617,281.3083,281.3084,284.5204,return,0.6985,,99.73958333,0,30,30,27,1,FBP-YG-19.png,0.4,1.2,28,0.25,,,,,,,,,,,,,,,,,,,,,,,,,,,,,,,,,,,,,,,,,,,,,
,,,,,SPR24_044,18,Female,2024-04-12_13h32.11.378,jersey_experiment_5_v0,2023.2.2,Win32,84.74576271,,,,,,,,,,,,,,,,284.5207,285.5673,285.5674,288.1087,return,0.8471,,99.73958333,0,31,31,15,1,FBP-YG-17.png,0.35,1.2,16,0.25,,,,,,,,,,,,,,,,,,,,,,,,,,,,,,,,,,,,,,,,,,,,,
,,,,,SPR24_044,18,Female,2024-04-12_13h32.11.378,jersey_experiment_5_v0,2023.2.2,Win32,84.74576271,,,,,,,,,,,,,,,,288.109,289.4027,289.4028,291.8499,return,0.6942,,74.86979167,0,32,32,36,1,FBP-RB-18.png,0.37,1.2,37,0.5,,,,,,,,,,,,,,,,,,,,,,,,,,,,,,,,,,,,,,,,,,,,,
,,,,,SPR24_044,18,Female,2024-04-12_13h32.11.378,jersey_experiment_5_v0,2023.2.2,Win32,84.74576271,,,,,,,,,,,,,,,,291.8501,292.897,292.8971,295.8855,return,0.6825,,99.21875,0,33,33,52,1,FBP-PT-18.png,0.4,1.2,53,0.25,,,,,,,,,,,,,,,,,,,,,,,,,,,,,,,,,,,,,,,,,,,,,
,,,,,SPR24_044,18,Female,2024-04-12_13h32.11.378,jersey_experiment_5_v0,2023.2.2,Win32,84.74576271,,,,,,,,,,,,,,,,295.8856,297.1796,297.1798,301.1562,return,1.9261,,50,0,34,34,5,1,FBP-OG-81.png,0.35,1.2,6,0.5,,,,,,,,,,,,,,,,,,,,,,,,,,,,,,,,,,,,,,,,,,,,,
,,,,,SPR24_044,18,Female,2024-04-12_13h32.11.378,jersey_experiment_5_v0,2023.2.2,Win32,84.74576271,,,,,,,,,,,,,,,,301.1564,302.2032,302.2032,304.8388,return,0.7824,,99.609375,0,35,35,58,1,FBP-PT-19.png,0.43,1.2,59,0.25,,,,,,,,,,,,,,,,,,,,,,,,,,,,,,,,,,,,,,,,,,,,,
,,,,,SPR24_044,18,Female,2024-04-12_13h32.11.378,jersey_experiment_5_v0,2023.2.2,Win32,84.74576271,,,,,,,,,,,,,,,,304.839,306.1329,306.1329,309.3329,return,0.643,,74.47916667,0,36,36,40,1,FBP-RB-19.png,0.35,1.2,41,0.5,,,,,,,,,,,,,,,,,,,,,,,,,,,,,,,,,,,,,,,,,,,,,
,,,,,SPR24_044,18,Female,2024-04-12_13h32.11.378,jersey_experiment_5_v0,2023.2.2,Win32,84.74576271,,,,,,,,,,,,,,,,309.3333,310.627,310.6271,312.5332,return,0.5817,,74.47916667,0,37,37,12,1,FBP-OG-91.png,0.4,1.2,13,0.5,,,,,,,,,,,,,,,,,,,,,,,,,,,,,,,,,,,,,,,,,,,,,
,,,,,SPR24_044,18,Female,2024-04-12_13h32.11.378,jersey_experiment_5_v0,2023.2.2,Win32,84.74576271,,,,,,,,,,,,,,,,312.5334,313.8274,313.8274,315.7568,return,0.6918,,74.47916667,0,38,38,31,1,FBP-RB-17.png,0.37,1.2,32,0.5,,,,,,,,,,,,,,,,,,,,,,,,,,,,,,,,,,,,,,,,,,,,,
,,,,,SPR24_044,18,Female,2024-04-12_13h32.11.378,jersey_experiment_5_v0,2023.2.2,Win32,84.74576271,,,,,,,,,,,,,,,,315.7569,316.8039,316.8039,319.3804,return,0.832,,99.34895833,0,39,39,26,1,FBP-YG-19.png,0.37,1.2,27,0.25,,,,,,,,,,,,,,,,,,,,,,,,,,,,,,,,,,,,,,,,,,,,,
,,,,,SPR24_044,18,Female,2024-04-12_13h32.11.378,jersey_experiment_5_v0,2023.2.2,Win32,84.74576271,,,,,,,,,,,,,,,,319.3806,320.6745,320.6746,322.51,return,0.6822,,99.34895833,0,40,40,42,1,FBP-RB-19.png,0.4,1.2,43,0.5,,,,,,,,,,,,,,,,,,,,,,,,,,,,,,,,,,,,,,,,,,,,,
,,,,,SPR24_044,18,Female,2024-04-12_13h32.11.378,jersey_experiment_5_v0,2023.2.2,Win32,84.74576271,,,,,,,,,,,,,,,,322.5102,323.5571,323.5571,326.2161,return,0.8729,,99.34895833,0,41,41,19,1,FBP-YG-17.png,0.45,1.2,20,0.25,,,,,,,,,,,,,,,,,,,,,,,,,,,,,,,,,,,,,,,,,,,,,
,,,,,SPR24_044,18,Female,2024-04-12_13h32.11.378,jersey_experiment_5_v0,2023.2.2,Win32,84.74576271,,,,,,,,,,,,,,,,326.2163,327.5101,327.5102,329.2867,return,0.6508,,99.47916667,0,42,42,33,1,FBP-RB-17.png,0.43,1.2,34,0.5,,,,,,,,,,,,,,,,,,,,,,,,,,,,,,,,,,,,,,,,,,,,,
,,,,,SPR24_044,18,Female,2024-04-12_13h32.11.378,jersey_experiment_5_v0,2023.2.2,Win32,84.74576271,,,,,,,,,,,,,,,,329.2869,330.3338,330.3339,333.275,return,0.7298,,74.609375,0,43,43,20,1,FBP-YG-18.png,0.35,1.2,21,0.25,,,,,,,,,,,,,,,,,,,,,,,,,,,,,,,,,,,,,,,,,,,,,
,,,,,SPR24_044,18,Female,2024-04-12_13h32.11.378,jersey_experiment_5_v0,2023.2.2,Win32,84.74576271,,,,,,,,,,,,,,,,333.2753,334.5693,334.5693,337.2047,return,0.6882,,99.34895833,0,44,44,13,1,FBP-OG-91.png,0.43,1.2,14,0.5,,,,,,,,,,,,,,,,,,,,,,,,,,,,,,,,,,,,,,,,,,,,,
,,,,,SPR24_044,18,Female,2024-04-12_13h32.11.378,jersey_experiment_5_v0,2023.2.2,Win32,84.74576271,,,,,,,,,,,,,,,,337.2048,338.4988,338.4989,341.6753,return,0.659,,74.73958333,0,45,45,32,1,FBP-RB-17.png,0.4,1.2,33,0.5,,,,,,,,,,,,,,,,,,,,,,,,,,,,,,,,,,,,,,,,,,,,,
,,,,,SPR24_044,18,Female,2024-04-12_13h32.11.378,jersey_experiment_5_v0,2023.2.2,Win32,84.74576271,,,,,,,,,,,,,,,,341.6754,342.9698,342.9698,345.2873,return,0.6738,,99.47916667,0,46,46,8,1,FBP-OG-81.png,0.43,1.2,9,0.5,,,,,,,,,,,,,,,,,,,,,,,,,,,,,,,,,,,,,,,,,,,,,
,,,,,SPR24_044,18,Female,2024-04-12_13h32.11.378,jersey_experiment_5_v0,2023.2.2,Win32,84.74576271,,,,,,,,,,,,,,,,345.2875,346.3345,346.3345,348.3932,return,0.8505,,99.47916667,0,47,47,24,1,FBP-YG-18.png,0.45,1.2,25,0.25,,,,,,,,,,,,,,,,,,,,,,,,,,,,,,,,,,,,,,,,,,,,,
,,,,,SPR24_044,18,Female,2024-04-12_13h32.11.378,jersey_experiment_5_v0,2023.2.2,Win32,84.74576271,,,,,,,,,,,,,,,,348.3934,349.4403,349.4404,351.3816,return,0.6425,,99.47916667,0,48,48,59,1,FBP-PT-19.png,0.45,1.2,60,0.25,,,,,,,,,,,,,,,,,,,,,,,,,,,,,,,,,,,,,,,,,,,,,
,,,,,SPR24_044,18,Female,2024-04-12_13h32.11.378,jersey_experiment_5_v0,2023.2.2,Win32,84.74576271,,,,,,,,,,,,,,,,351.3818,352.4287,352.4287,355.1935,return,0.6709,,24.47916667,0,49,49,45,1,FBP-PT-17.png,0.35,1.2,46,0.25,,,,,,,,,,,,,,,,,,,,,,,,,,,,,,,,,,,,,,,,,,,,,
,,,,,SPR24_044,18,Female,2024-04-12_13h32.11.378,jersey_experiment_5_v0,2023.2.2,Win32,84.74576271,,,,,,,,,,,,,,,,355.1937,356.4875,356.4876,359.2057,return,0.725,,99.73958333,0,50,50,4,1,FBP-OG-71.png,0.45,1.2,5,0.5,,,,,,,,,,,,,,,,,,,,,,,,,,,,,,,,,,,,,,,,,,,,,
,,,,,SPR24_044,18,Female,2024-04-12_13h32.11.378,jersey_experiment_5_v0,2023.2.2,Win32,84.74576271,,,,,,,,,,,,,,,,359.2059,360.2524,360.2525,362.7585,return,0.5444,,74.47916667,0,51,51,28,1,FBP-YG-19.png,0.43,1.2,29,0.25,,,,,,,,,,,,,,,,,,,,,,,,,,,,,,,,,,,,,,,,,,,,,
,,,,,SPR24_044,18,Female,2024-04-12_13h32.11.378,jersey_experiment_5_v0,2023.2.2,Win32,84.74576271,,,,,,,,,,,,,,,,362.7588,364.0525,364.0526,367.9587,return,2.5827,,88.15104167,0,52,52,14,1,FBP-OG-91.png,0.45,1.2,15,0.5,,,,,,,,,,,,,,,,,,,,,,,,,,,,,,,,,,,,,,,,,,,,,
,,,,,SPR24_044,18,Female,2024-04-12_13h32.11.378,jersey_experiment_5_v0,2023.2.2,Win32,84.74576271,,,,,,,,,,,,,,,,367.9589,369.0057,369.0057,371.5941,return,0.5531,,99.21875,0,53,53,54,1,FBP-PT-18.png,0.45,1.2,55,0.25,,,,,,,,,,,,,,,,,,,,,,,,,,,,,,,,,,,,,,,,,,,,,
,,,,,SPR24_044,18,Female,2024-04-12_13h32.11.378,jersey_experiment_5_v0,2023.2.2,Win32,84.74576271,,,,,,,,,,,,,,,,371.5943,372.8882,372.8882,376.1709,return,0.6594,,25.26041667,0,54,54,35,1,FBP-RB-18.png,0.35,1.2,36,0.5,,,,,,,,,,,,,,,,,,,,,,,,,,,,,,,,,,,,,,,,,,,,,
,,,,,SPR24_044,18,Female,2024-04-12_13h32.11.378,jersey_experiment_5_v0,2023.2.2,Win32,84.74576271,,,,,,,,,,,,,,,,376.1712,377.465,377.465,380.2296,return,0.7601,,74.34895833,0,55,55,43,1,FBP-RB-19.png,0.43,1.2,44,0.5,,,,,,,,,,,,,,,,,,,,,,,,,,,,,,,,,,,,,,,,,,,,,
,,,,,SPR24_044,18,Female,2024-04-12_13h32.11.378,jersey_experiment_5_v0,2023.2.2,Win32,84.74576271,,,,,,,,,,,,,,,,380.2298,381.5239,381.5239,384.3829,return,0.6264,,99.609375,0,56,56,34,1,FBP-RB-17.png,0.45,1.2,35,0.5,,,,,,,,,,,,,,,,,,,,,,,,,,,,,,,,,,,,,,,,,,,,,
,,,,,SPR24_044,18,Female,2024-04-12_13h32.11.378,jersey_experiment_5_v0,2023.2.2,Win32,84.74576271,,,,,,,,,,,,,,,,384.383,385.4299,385.4299,387.2065,return,0.5825,,99.609375,0,57,57,49,1,FBP-PT-17.png,0.45,1.2,50,0.25,,,,,,,,,,,,,,,,,,,,,,,,,,,,,,,,,,,,,,,,,,,,,
,,,,,SPR24_044,18,Female,2024-04-12_13h32.11.378,jersey_experiment_5_v0,2023.2.2,Win32,84.74576271,,,,,,,,,,,,,,,,387.2068,388.2534,388.2535,401.2423,return,10.3088,,75.13020833,0,58,58,21,1,FBP-YG-18.png,0.37,1.2,22,0.25,,,,,,,,,,,,,,,,,,,,,,,,,,,,,,,,,,,,,,,,,,,,,
,,,,,SPR24_044,18,Female,2024-04-12_13h32.11.378,jersey_experiment_5_v0,2023.2.2,Win32,84.74576271,,,,,,,,,,,,,,,,401.2468,402.2894,402.2894,406.619,return,0.8941,,11.19791667,0,59,59,46,1,FBP-PT-17.png,0.37,1.2,47,0.25,,,,,,,,,,,,,,,,,,,,,,,,,,,,,,,,,,,,,,,,,,,,,
,,,,,SPR24_044,18,Female,2024-04-12_13h32.11.378,jersey_experiment_5_v0,2023.2.2,Win32,84.74576271,,,,,,,,,,,,,,,,406.6209,407.666,407.666,410.9955,return,0.8915,,24.47916667,,,,,,FBP-PT-91.png,0.4,1.2,58,0.25,0,0,0,57,1,,,,,,,,,,,,,,,,,,,,,,,,,,,,,,,,,,,,,,,,
,,,,,SPR24_044,18,Female,2024-04-12_13h32.11.378,jersey_experiment_5_v0,2023.2.2,Win32,84.74576271,,,,,,,,,,,,,,,,410.9958,412.0426,412.0426,417.4546,return,0.8711,,35.80729167,,,,,,FBP-YG-91.png,0.37,1.2,27,0.25,0,1,1,26,1,,,,,,,,,,,,,,,,,,,,,,,,,,,,,,,,,,,,,,,,
,,,,,SPR24_044,18,Female,2024-04-12_13h32.11.378,jersey_experiment_5_v0,2023.2.2,Win32,84.74576271,,,,,,,,,,,,,,,,417.4548,418.5017,418.5018,448.2676,return,1.0119,,1.822916667,,,,,,FBP-PT-81.png,0.37,1.2,52,0.25,0,2,2,51,1,,,,,,,,,,,,,,,,,,,,,,,,,,,,,,,,,,,,,,,,
,,,,,SPR24_044,18,Female,2024-04-12_13h32.11.378,jersey_experiment_5_v0,2023.2.2,Win32,84.74576271,,,,,,,,,,,,,,,,448.2679,449.3145,449.3146,455.3031,return,0.9206,,74.73958333,,,,,,FBP-YG-81.png,0.37,1.2,22,0.25,0,3,3,21,1,,,,,,,,,,,,,,,,,,,,,,,,,,,,,,,,,,,,,,,,
,,,,,SPR24_044,18,Female,2024-04-12_13h32.11.378,jersey_experiment_5_v0,2023.2.2,Win32,84.74576271,,,,,,,,,,,,,,,,455.3032,456.5972,456.5973,458.7502,return,0.762,,75.26041667,,,,,,FBP-OG-17.png,0.45,1.2,5,0.5,0,4,4,4,1,,,,,,,,,,,,,,,,,,,,,,,,,,,,,,,,,,,,,,,,
,,,,,SPR24_044,18,Female,2024-04-12_13h32.11.378,jersey_experiment_5_v0,2023.2.2,Win32,84.74576271,,,,,,,,,,,,,,,,458.7504,460.0443,460.0443,462.5386,return,0.7315,,49.609375,,,,,,FBP-OG-18.png,0.35,1.2,6,0.5,0,5,5,5,1,,,,,,,,,,,,,,,,,,,,,,,,,,,,,,,,,,,,,,,,
,,,,,SPR24_044,18,Female,2024-04-12_13h32.11.378,jersey_experiment_5_v0,2023.2.2,Win32,84.74576271,,,,,,,,,,,,,,,,462.5387,463.8327,463.8327,466.3506,return,0.7158,,49.609375,,,,,,FBP-RB-71.png,0.35,1.2,31,0.5,0,6,6,30,1,,,,,,,,,,,,,,,,,,,,,,,,,,,,,,,,,,,,,,,,
,,,,,SPR24_044,18,Female,2024-04-12_13h32.11.378,jersey_experiment_5_v0,2023.2.2,Win32,84.74576271,,,,,,,,,,,,,,,,466.3508,467.3975,467.3975,470.3625,return,0.814,,74.21875,,,,,,FBP-YG-81.png,0.43,1.2,24,0.25,0,7,7,23,1,,,,,,,,,,,,,,,,,,,,,,,,,,,,,,,,,,,,,,,,
,,,,,SPR24_044,18,Female,2024-04-12_13h32.11.378,jersey_experiment_5_v0,2023.2.2,Win32,84.74576271,,,,,,,,,,,,,,,,470.3628,471.4095,471.4096,475.1272,return,0.829,,87.5,,,,,,FBP-PT-91.png,0.45,1.2,60,0.25,0,8,8,59,1,,,,,,,,,,,,,,,,,,,,,,,,,,,,,,,,,,,,,,,,
,,,,,SPR24_044,18,Female,2024-04-12_13h32.11.378,jersey_experiment_5_v0,2023.2.2,Win32,84.74576271,,,,,,,,,,,,,,,,475.1274,476.1744,476.1745,479.3392,return,0.919,,99.08854167,,,,,,FBP-PT-81.png,0.4,1.2,53,0.25,0,9,9,52,1,,,,,,,,,,,,,,,,,,,,,,,,,,,,,,,,,,,,,,,,
,,,,,SPR24_044,18,Female,2024-04-12_13h32.11.378,jersey_experiment_5_v0,2023.2.2,Win32,84.74576271,,,,,,,,,,,,,,,,479.3394,480.3862,480.3863,489.7396,return,7.1404,,61.84895833,,,,,,FBP-YG-91.png,0.4,1.2,28,0.25,0,10,10,27,1,,,,,,,,,,,,,,,,,,,,,,,,,,,,,,,,,,,,,,,,
,,,,,SPR24_044,18,Female,2024-04-12_13h32.11.378,jersey_experiment_5_v0,2023.2.2,Win32,84.74576271,,,,,,,,,,,,,,,,489.744,490.7868,490.7868,494.4693,return,0.9722,,99.34895833,,,,,,FBP-PT-91.png,0.43,1.2,59,0.25,0,11,11,58,1,,,,,,,,,,,,,,,,,,,,,,,,,,,,,,,,,,,,,,,,
,,,,,SPR24_044,18,Female,2024-04-12_13h32.11.378,jersey_experiment_5_v0,2023.2.2,Win32,84.74576271,,,,,,,,,,,,,,,,494.4696,495.7633,495.7634,499.1754,return,0.8146,,87.36979167,,,,,,FBP-OG-19.png,0.43,1.2,14,0.5,0,12,12,13,1,,,,,,,,,,,,,,,,,,,,,,,,,,,,,,,,,,,,,,,,
,,,,,SPR24_044,18,Female,2024-04-12_13h32.11.378,jersey_experiment_5_v0,2023.2.2,Win32,84.74576271,,,,,,,,,,,,,,,,499.1755,500.2224,500.2224,504.0225,return,0.6972,,74.86979167,,,,,,FBP-YG-71.png,0.37,1.2,17,0.25,0,13,13,16,1,,,,,,,,,,,,,,,,,,,,,,,,,,,,,,,,,,,,,,,,
,,,,,SPR24_044,18,Female,2024-04-12_13h32.11.378,jersey_experiment_5_v0,2023.2.2,Win32,84.74576271,,,,,,,,,,,,,,,,504.0227,505.3166,505.3166,510.3169,return,1.1674,,37.63020833,,,,,,FBP-OG-17.png,0.35,1.2,1,0.5,0,14,14,0,1,,,,,,,,,,,,,,,,,,,,,,,,,,,,,,,,,,,,,,,,
,,,,,SPR24_044,18,Female,2024-04-12_13h32.11.378,jersey_experiment_5_v0,2023.2.2,Win32,84.74576271,,,,,,,,,,,,,,,,510.3171,511.3638,511.3639,516.8936,return,2.9505,,99.34895833,,,,,,FBP-PT-81.png,0.43,1.2,54,0.25,0,15,15,53,1,,,,,,,,,,,,,,,,,,,,,,,,,,,,,,,,,,,,,,,,
,,,,,SPR24_044,18,Female,2024-04-12_13h32.11.378,jersey_experiment_5_v0,2023.2.2,Win32,84.74576271,,,,,,,,,,,,,,,,516.8981,518.1995,518.1995,521.5173,return,0.8146,,75,,,,,,FBP-OG-17.png,0.4,1.2,3,0.5,0,16,16,2,1,,,,,,,,,,,,,,,,,,,,,,,,,,,,,,,,,,,,,,,,
,,,,,SPR24_044,18,Female,2024-04-12_13h32.11.378,jersey_experiment_5_v0,2023.2.2,Win32,84.74576271,,,,,,,,,,,,,,,,521.5174,522.5644,522.5644,527.3999,return,0.7463,,61.06770833,,,,,,FBP-PT-71.png,0.37,1.2,47,0.25,0,17,17,46,1,,,,,,,,,,,,,,,,,,,,,,,,,,,,,,,,,,,,,,,,
,,,,,SPR24_044,18,Female,2024-04-12_13h32.11.378,jersey_experiment_5_v0,2023.2.2,Win32,84.74576271,,,,,,,,,,,,,,,,527.4001,528.694,528.6941,532.3413,return,0.8194,,73.95833333,,,,,,FBP-RB-91.png,0.43,1.2,44,0.5,0,18,18,43,1,,,,,,,,,,,,,,,,,,,,,,,,,,,,,,,,,,,,,,,,
,,,,,SPR24_044,18,Female,2024-04-12_13h32.11.378,jersey_experiment_5_v0,2023.2.2,Win32,84.74576271,,,,,,,,,,,,,,,,532.3416,533.6353,533.6354,536.9883,return,0.7625,,49.609375,,,,,,FBP-RB-81.png,0.37,1.2,37,0.5,0,19,19,36,1,,,,,,,,,,,,,,,,,,,,,,,,,,,,,,,,,,,,,,,,
,,,,,SPR24_044,18,Female,2024-04-12_13h32.11.378,jersey_experiment_5_v0,2023.2.2,Win32,84.74576271,,,,,,,,,,,,,,,,536.9885,538.2827,538.2827,542.5534,return,0.7303,,84.89583333,,,,,,FBP-OG-17.png,0.43,1.2,4,0.5,0,20,20,3,1,,,,,,,,,,,,,,,,,,,,,,,,,,,,,,,,,,,,,,,,
,,,,,SPR24_044,18,Female,2024-04-12_13h32.11.378,jersey_experiment_5_v0,2023.2.2,Win32,84.74576271,,,,,,,,,,,,,,,,542.5536,543.6004,543.6004,546.424,return,0.7569,,84.89583333,,,,,,FBP-PT-71.png,0.4,1.2,48,0.25,0,21,21,47,1,,,,,,,,,,,,,,,,,,,,,,,,,,,,,,,,,,,,,,,,
,,,,,SPR24_044,18,Female,2024-04-12_13h32.11.378,jersey_experiment_5_v0,2023.2.2,Win32,84.74576271,,,,,,,,,,,,,,,,546.4242,547.4712,547.4712,550.7419,return,0.8288,,98.828125,,,,,,FBP-PT-81.png,0.45,1.2,55,0.25,0,22,22,54,1,,,,,,,,,,,,,,,,,,,,,,,,,,,,,,,,,,,,,,,,
,,,,,SPR24_044,18,Female,2024-04-12_13h32.11.378,jersey_experiment_5_v0,2023.2.2,Win32,84.74576271,,,,,,,,,,,,,,,,550.7421,552.0359,552.036,554.295,return,0.6387,,74.08854167,,,,,,FBP-RB-91.png,0.4,1.2,43,0.5,0,23,23,42,1,,,,,,,,,,,,,,,,,,,,,,,,,,,,,,,,,,,,,,,,
,,,,,SPR24_044,18,Female,2024-04-12_13h32.11.378,jersey_experiment_5_v0,2023.2.2,Win32,84.74576271,,,,,,,,,,,,,,,,554.2952,555.5891,555.5891,559.1303,return,0.6843,,87.5,,,,,,FBP-OG-18.png,0.43,1.2,9,0.5,0,24,24,8,1,,,,,,,,,,,,,,,,,,,,,,,,,,,,,,,,,,,,,,,,
,,,,,SPR24_044,18,Female,2024-04-12_13h32.11.378,jersey_experiment_5_v0,2023.2.2,Win32,84.74576271,,,,,,,,,,,,,,,,559.1305,560.1804,560.1805,563.3231,return,0.7762,,50.26041667,,,,,,FBP-YG-71.png,0.35,1.2,16,0.25,0,25,25,15,1,,,,,,,,,,,,,,,,,,,,,,,,,,,,,,,,,,,,,,,,
,,,,,SPR24_044,18,Female,2024-04-12_13h32.11.378,jersey_experiment_5_v0,2023.2.2,Win32,84.74576271,,,,,,,,,,,,,,,,563.3232,564.366,564.366,567.0953,return,0.6153,,87.5,,,,,,FBP-YG-91.png,0.45,1.2,30,0.25,0,26,26,29,1,,,,,,,,,,,,,,,,,,,,,,,,,,,,,,,,,,,,,,,,
,,,,,SPR24_044,18,Female,2024-04-12_13h32.11.378,jersey_experiment_5_v0,2023.2.2,Win32,84.74576271,,,,,,,,,,,,,,,,567.0956,568.1466,568.1466,571.0485,return,0.5669,,85.15625,,,,,,FBP-PT-71.png,0.43,1.2,49,0.25,0,27,27,48,1,,,,,,,,,,,,,,,,,,,,,,,,,,,,,,,,,,,,,,,,
,,,,,SPR24_044,18,Female,2024-04-12_13h32.11.378,jersey_experiment_5_v0,2023.2.2,Win32,84.74576271,,,,,,,,,,,,,,,,571.0487,572.3426,572.3427,574.5662,return,0.6175,,99.08854167,,,,,,FBP-RB-91.png,0.45,1.2,45,0.5,0,28,28,44,1,,,,,,,,,,,,,,,,,,,,,,,,,,,,,,,,,,,,,,,,
,,,,,SPR24_044,18,Female,2024-04-12_13h32.11.378,jersey_experiment_5_v0,2023.2.2,Win32,84.74576271,,,,,,,,,,,,,,,,574.5664,575.6134,575.6135,578.637,return,0.5987,,49.609375,,,,,,FBP-PT-91.png,0.37,1.2,57,0.25,0,29,29,56,1,,,,,,,,,,,,,,,,,,,,,,,,,,,,,,,,,,,,,,,,
,,,,,SPR24_044,18,Female,2024-04-12_13h32.11.378,jersey_experiment_5_v0,2023.2.2,Win32,84.74576271,,,,,,,,,,,,,,,,578.6372,579.9312,579.9313,582.8137,return,0.8008,,49.86979167,,,,,,FBP-RB-71.png,0.37,1.2,32,0.5,0,30,30,31,1,,,,,,,,,,,,,,,,,,,,,,,,,,,,,,,,,,,,,,,,
,,,,,SPR24_044,18,Female,2024-04-12_13h32.11.378,jersey_experiment_5_v0,2023.2.2,Win32,84.74576271,,,,,,,,,,,,,,,,582.8138,584.1077,584.1077,586.3313,return,0.6724,,75,,,,,,FBP-OG-18.png,0.4,1.2,8,0.5,0,31,31,7,1,,,,,,,,,,,,,,,,,,,,,,,,,,,,,,,,,,,,,,,,
,,,,,SPR24_044,18,Female,2024-04-12_13h32.11.378,jersey_experiment_5_v0,2023.2.2,Win32,84.74576271,,,,,,,,,,,,,,,,586.3316,587.3785,587.3785,590.5198,return,0.7338,,86.71875,,,,,,FBP-YG-71.png,0.4,1.2,18,0.25,0,32,32,17,1,,,,,,,,,,,,,,,,,,,,,,,,,,,,,,,,,,,,,,,,
,,,,,SPR24_044,18,Female,2024-04-12_13h32.11.378,jersey_experiment_5_v0,2023.2.2,Win32,84.74576271,,,,,,,,,,,,,,,,590.5199,591.8139,591.814,595.5788,return,0.7165,,24.34895833,,,,,,FBP-OG-18.png,0.37,1.2,7,0.5,0,33,33,6,1,,,,,,,,,,,,,,,,,,,,,,,,,,,,,,,,,,,,,,,,
,,,,,SPR24_044,18,Female,2024-04-12_13h32.11.378,jersey_experiment_5_v0,2023.2.2,Win32,84.74576271,,,,,,,,,,,,,,,,595.579,596.6259,596.6259,599.5552,return,0.7487,,88.15104167,,,,,,FBP-YG-71.png,0.45,1.2,20,0.25,0,34,34,19,1,,,,,,,,,,,,,,,,,,,,,,,,,,,,,,,,,,,,,,,,
,,,,,SPR24_044,18,Female,2024-04-12_13h32.11.378,jersey_experiment_5_v0,2023.2.2,Win32,84.74576271,,,,,,,,,,,,,,,,599.5555,600.8495,600.8495,603.3202,return,0.6725,,99.47916667,,,,,,FBP-RB-81.png,0.45,1.2,40,0.5,0,35,35,39,1,,,,,,,,,,,,,,,,,,,,,,,,,,,,,,,,,,,,,,,,
,,,,,SPR24_044,18,Female,2024-04-12_13h32.11.378,jersey_experiment_5_v0,2023.2.2,Win32,84.74576271,,,,,,,,,,,,,,,,603.3204,604.6144,604.6144,608.8176,return,1.7887,,75,,,,,,FBP-OG-19.png,0.4,1.2,13,0.5,0,36,36,12,1,,,,,,,,,,,,,,,,,,,,,,,,,,,,,,,,,,,,,,,,
,,,,,SPR24_044,18,Female,2024-04-12_13h32.11.378,jersey_experiment_5_v0,2023.2.2,Win32,84.74576271,,,,,,,,,,,,,,,,608.8178,610.1204,610.1205,612.1676,return,0.5562,,86.06770833,,,,,,FBP-RB-71.png,0.43,1.2,34,0.5,0,37,37,33,1,,,,,,,,,,,,,,,,,,,,,,,,,,,,,,,,,,,,,,,,
,,,,,SPR24_044,18,Female,2024-04-12_13h32.11.378,jersey_experiment_5_v0,2023.2.2,Win32,84.74576271,,,,,,,,,,,,,,,,612.1677,613.2148,613.2148,616.3443,return,0.7087,,12.890625,,,,,,FBP-YG-91.png,0.35,1.2,26,0.25,0,38,38,25,1,,,,,,,,,,,,,,,,,,,,,,,,,,,,,,,,,,,,,,,,
,,,,,SPR24_044,18,Female,2024-04-12_13h32.11.378,jersey_experiment_5_v0,2023.2.2,Win32,84.74576271,,,,,,,,,,,,,,,,616.3444,617.6384,617.6384,620.3475,return,0.565,,24.21875,,,,,,FBP-RB-81.png,0.35,1.2,36,0.5,0,39,39,35,1,,,,,,,,,,,,,,,,,,,,,,,,,,,,,,,,,,,,,,,,
,,,,,SPR24_044,18,Female,2024-04-12_13h32.11.378,jersey_experiment_5_v0,2023.2.2,Win32,84.74576271,,,,,,,,,,,,,,,,620.3478,621.6503,621.6504,624.968,return,0.6493,,75.13020833,,,,,,FBP-OG-19.png,0.45,1.2,15,0.5,0,40,40,14,1,,,,,,,,,,,,,,,,,,,,,,,,,,,,,,,,,,,,,,,,
,,,,,SPR24_044,18,Female,2024-04-12_13h32.11.378,jersey_experiment_5_v0,2023.2.2,Win32,84.74576271,,,,,,,,,,,,,,,,624.9683,626.2623,626.2623,628.7715,return,0.5519,,25,,,,,,FBP-OG-19.png,0.37,1.2,12,0.5,0,41,41,11,1,,,,,,,,,,,,,,,,,,,,,,,,,,,,,,,,,,,,,,,,
,,,,,SPR24_044,18,Female,2024-04-12_13h32.11.378,jersey_experiment_5_v0,2023.2.2,Win32,84.74576271,,,,,,,,,,,,,,,,628.7717,629.8153,629.8153,632.792,return,0.604,,73.828125,,,,,,FBP-YG-91.png,0.43,1.2,29,0.25,0,42,42,28,1,,,,,,,,,,,,,,,,,,,,,,,,,,,,,,,,,,,,,,,,
,,,,,SPR24_044,18,Female,2024-04-12_13h32.11.378,jersey_experiment_5_v0,2023.2.2,Win32,84.74576271,,,,,,,,,,,,,,,,632.7921,634.086,634.086,638.2862,return,2.3058,,85.546875,,,,,,FBP-RB-81.png,0.43,1.2,39,0.5,0,43,43,38,1,,,,,,,,,,,,,,,,,,,,,,,,,,,,,,,,,,,,,,,,
,,,,,SPR24_044,18,Female,2024-04-12_13h32.11.378,jersey_experiment_5_v0,2023.2.2,Win32,84.74576271,,,,,,,,,,,,,,,,638.2864,639.3363,639.3364,641.7805,return,0.6418,,86.84895833,,,,,,FBP-YG-71.png,0.43,1.2,19,0.25,0,44,44,18,1,,,,,,,,,,,,,,,,,,,,,,,,,,,,,,,,,,,,,,,,
,,,,,SPR24_044,18,Female,2024-04-12_13h32.11.378,jersey_experiment_5_v0,2023.2.2,Win32,84.74576271,,,,,,,,,,,,,,,,641.7808,642.8275,642.8275,647.8912,return,1.8958,,0.911458333,,,,,,FBP-PT-81.png,0.35,1.2,51,0.25,0,45,45,50,1,,,,,,,,,,,,,,,,,,,,,,,,,,,,,,,,,,,,,,,,
,,,,,SPR24_044,18,Female,2024-04-12_13h32.11.378,jersey_experiment_5_v0,2023.2.2,Win32,84.74576271,,,,,,,,,,,,,,,,647.8914,649.1925,649.1926,651.5338,return,0.7159,,99.47916667,,,,,,FBP-RB-71.png,0.45,1.2,35,0.5,0,46,46,34,1,,,,,,,,,,,,,,,,,,,,,,,,,,,,,,,,,,,,,,,,
,,,,,SPR24_044,18,Female,2024-04-12_13h32.11.378,jersey_experiment_5_v0,2023.2.2,Win32,84.74576271,,,,,,,,,,,,,,,,651.534,652.8279,652.828,655.4633,return,0.5459,,74.86979167,,,,,,FBP-OG-17.png,0.37,1.2,2,0.5,0,47,47,1,1,,,,,,,,,,,,,,,,,,,,,,,,,,,,,,,,,,,,,,,,
,,,,,SPR24_044,18,Female,2024-04-12_13h32.11.378,jersey_experiment_5_v0,2023.2.2,Win32,84.74576271,,,,,,,,,,,,,,,,655.4635,656.7574,656.7575,658.9225,return,0.5685,,50.26041667,,,,,,FBP-OG-19.png,0.35,1.2,11,0.5,0,48,48,10,1,,,,,,,,,,,,,,,,,,,,,,,,,,,,,,,,,,,,,,,,
,,,,,SPR24_044,18,Female,2024-04-12_13h32.11.378,jersey_experiment_5_v0,2023.2.2,Win32,84.74576271,,,,,,,,,,,,,,,,658.9232,660.2165,660.2165,664.6049,return,0.6971,,87.890625,,,,,,FBP-RB-81.png,0.4,1.2,38,0.5,0,49,49,37,1,,,,,,,,,,,,,,,,,,,,,,,,,,,,,,,,,,,,,,,,
,,,,,SPR24_044,18,Female,2024-04-12_13h32.11.378,jersey_experiment_5_v0,2023.2.2,Win32,84.74576271,,,,,,,,,,,,,,,,664.6051,665.899,665.8991,671.8051,return,3.3883,,87.36979167,,,,,,FBP-RB-71.png,0.4,1.2,33,0.5,0,50,50,32,1,,,,,,,,,,,,,,,,,,,,,,,,,,,,,,,,,,,,,,,,
,,,,,SPR24_044,18,Female,2024-04-12_13h32.11.378,jersey_experiment_5_v0,2023.2.2,Win32,84.74576271,,,,,,,,,,,,,,,,671.8053,672.8521,672.8522,675.2994,return,0.5594,,99.609375,,,,,,FBP-YG-81.png,0.45,1.2,25,0.25,0,51,51,24,1,,,,,,,,,,,,,,,,,,,,,,,,,,,,,,,,,,,,,,,,
,,,,,SPR24_044,18,Female,2024-04-12_13h32.11.378,jersey_experiment_5_v0,2023.2.2,Win32,84.74576271,,,,,,,,,,,,,,,,675.2996,676.3464,676.3465,678.1818,return,0.6071,,99.609375,,,,,,FBP-PT-71.png,0.45,1.2,50,0.25,0,52,52,49,1,,,,,,,,,,,,,,,,,,,,,,,,,,,,,,,,,,,,,,,,
,,,,,SPR24_044,18,Female,2024-04-12_13h32.11.378,jersey_experiment_5_v0,2023.2.2,Win32,84.74576271,,,,,,,,,,,,,,,,678.182,679.476,679.476,681.8525,return,0.5085,,23.95833333,,,,,,FBP-RB-91.png,0.37,1.2,42,0.5,0,53,53,41,1,,,,,,,,,,,,,,,,,,,,,,,,,,,,,,,,,,,,,,,,
,,,,,SPR24_044,18,Female,2024-04-12_13h32.11.378,jersey_experiment_5_v0,2023.2.2,Win32,84.74576271,,,,,,,,,,,,,,,,681.8528,682.8996,682.8996,684.8997,return,0.5265,,73.828125,,,,,,FBP-YG-81.png,0.35,1.2,21,0.25,0,54,54,20,1,,,,,,,,,,,,,,,,,,,,,,,,,,,,,,,,,,,,,,,,
,,,,,SPR24_044,18,Female,2024-04-12_13h32.11.378,jersey_experiment_5_v0,2023.2.2,Win32,84.74576271,,,,,,,,,,,,,,,,684.8999,685.9468,685.9468,687.8292,return,0.6872,,73.17708333,,,,,,FBP-YG-81.png,0.4,1.2,23,0.25,0,55,55,22,1,,,,,,,,,,,,,,,,,,,,,,,,,,,,,,,,,,,,,,,,
,,,,,SPR24_044,18,Female,2024-04-12_13h32.11.378,jersey_experiment_5_v0,2023.2.2,Win32,84.74576271,,,,,,,,,,,,,,,,687.8294,688.8764,688.8765,692.6294,return,0.913,,26.30208333,,,,,,FBP-PT-71.png,0.35,1.2,46,0.25,0,56,56,45,1,,,,,,,,,,,,,,,,,,,,,,,,,,,,,,,,,,,,,,,,
,,,,,SPR24_044,18,Female,2024-04-12_13h32.11.378,jersey_experiment_5_v0,2023.2.2,Win32,84.74576271,,,,,,,,,,,,,,,,692.6296,693.9235,693.9236,697.1118,return,0.6491,,74.86979167,,,,,,FBP-RB-91.png,0.35,1.2,41,0.5,0,57,57,40,1,,,,,,,,,,,,,,,,,,,,,,,,,,,,,,,,,,,,,,,,
,,,,,SPR24_044,18,Female,2024-04-12_13h32.11.378,jersey_experiment_5_v0,2023.2.2,Win32,84.74576271,,,,,,,,,,,,,,,,697.112,698.406,698.4061,701.5473,return,0.73,,87.36979167,,,,,,FBP-OG-18.png,0.45,1.2,10,0.5,0,58,58,9,1,,,,,,,,,,,,,,,,,,,,,,,,,,,,,,,,,,,,,,,,
,,,,,SPR24_044,18,Female,2024-04-12_13h32.11.378,jersey_experiment_5_v0,2023.2.2,Win32,84.74576271,,,,,,,,,,,,,,,,701.5476,702.5943,702.5944,705.371,return,0.6602,,25.26041667,,,,,,FBP-PT-91.png,0.35,1.2,56,0.25,0,59,59,55,1,,,,,,,,,,,,,,,,,,,,,,,,,,,,,,,,,,,,,,,,
,,,,,SPR24_044,18,Female,2024-04-12_13h32.11.378,jersey_experiment_5_v0,2023.2.2,Win32,84.74576271,,,,,,,,,,,,,,,,,,,,,,,,,,,,,,,,,,,,,,,705.3715,825.3639,,,,,,,,,,,,,,,,,,,,,,,,,,,,,,,,,,,,,,
,,,,,SPR24_044,18,Female,2024-04-12_13h32.11.378,jersey_experiment_5_v0,2023.2.2,Win32,84.74576271,,,,,,,,,,,,,,,,,,,,,,,,,,,,,,,,,,,,,,,,,825.364,836.7762,return,11.4035,,,,,,,,,,,,,,,,,,,,,,,,,,,,,,,,,,
,,,,,SPR24_044,18,Female,2024-04-12_13h32.11.378,jersey_experiment_5_v0,2023.2.2,Win32,84.74576271,,,,,,,,,,,,,,,,836.7823,837.8347,837.8348,845.035,return,0.7763,,99.86979167,,,,,,FBP-RB-19.png,0.4,1.2,43,0.25,,,,,,,,,,,,,0,0,0,42,1,,,,,,,,,,,,,,,,,,,,,,,,,,,,
,,,,,SPR24_044,18,Female,2024-04-12_13h32.11.378,jersey_experiment_5_v0,2023.2.2,Win32,84.74576271,,,,,,,,,,,,,,,,845.0353,846.3291,846.3292,849.2586,return,0.7166,,87.5,,,,,,FBP-YG-18.png,0.45,1.2,25,0.5,,,,,,,,,,,,,0,1,1,24,1,,,,,,,,,,,,,,,,,,,,,,,,,,,,
,,,,,SPR24_044,18,Female,2024-04-12_13h32.11.378,jersey_experiment_5_v0,2023.2.2,Win32,84.74576271,,,,,,,,,,,,,,,,849.2588,850.5528,850.5528,852.1999,return,0.6962,,87.5,,,,,,FBP-YG-17.png,0.43,1.2,19,0.5,,,,,,,,,,,,,0,2,2,18,1,,,,,,,,,,,,,,,,,,,,,,,,,,,,
,,,,,SPR24_044,18,Female,2024-04-12_13h32.11.378,jersey_experiment_5_v0,2023.2.2,Win32,84.74576271,,,,,,,,,,,,,,,,852.2,853.494,853.4941,860.0237,return,3.8613,,74.47916667,,,,,,FBP-YG-18.png,0.37,1.2,22,0.5,,,,,,,,,,,,,0,3,3,21,1,,,,,,,,,,,,,,,,,,,,,,,,,,,,
,,,,,SPR24_044,18,Female,2024-04-12_13h32.11.378,jersey_experiment_5_v0,2023.2.2,Win32,84.74576271,,,,,,,,,,,,,,,,860.0239,861.3181,861.3181,863.5299,return,0.6498,,87.23958333,,,,,,FBP-PT-17.png,0.43,1.2,49,0.5,,,,,,,,,,,,,0,4,4,48,1,,,,,,,,,,,,,,,,,,,,,,,,,,,,
,,,,,SPR24_044,18,Female,2024-04-12_13h32.11.378,jersey_experiment_5_v0,2023.2.2,Win32,84.74576271,,,,,,,,,,,,,,,,863.53,864.8239,864.8239,867.6122,return,0.645,,24.34895833,,,,,,FBP-PT-19.png,0.35,1.2,56,0.5,,,,,,,,,,,,,0,5,5,55,1,,,,,,,,,,,,,,,,,,,,,,,,,,,,
,,,,,SPR24_044,18,Female,2024-04-12_13h32.11.378,jersey_experiment_5_v0,2023.2.2,Win32,84.74576271,,,,,,,,,,,,,,,,867.6124,868.6594,868.6594,872.4595,return,0.5752,,24.73958333,,,,,,FBP-RB-17.png,0.35,1.2,31,0.25,,,,,,,,,,,,,0,6,6,30,1,,,,,,,,,,,,,,,,,,,,,,,,,,,,
,,,,,SPR24_044,18,Female,2024-04-12_13h32.11.378,jersey_experiment_5_v0,2023.2.2,Win32,84.74576271,,,,,,,,,,,,,,,,872.4597,873.5066,873.5067,876.9067,return,0.5895,,49.86979167,,,,,,FBP-RB-19.png,0.35,1.2,41,0.25,,,,,,,,,,,,,0,7,7,40,1,,,,,,,,,,,,,,,,,,,,,,,,,,,,
,,,,,SPR24_044,18,Female,2024-04-12_13h32.11.378,jersey_experiment_5_v0,2023.2.2,Win32,84.74576271,,,,,,,,,,,,,,,,876.9069,877.9539,877.9539,883.2247,return,0.6511,,0.390625,,,,,,FBP-OG-81.png,0.35,1.2,6,0.25,,,,,,,,,,,,,0,8,8,5,1,,,,,,,,,,,,,,,,,,,,,,,,,,,,
,,,,,SPR24_044,18,Female,2024-04-12_13h32.11.378,jersey_experiment_5_v0,2023.2.2,Win32,84.74576271,,,,,,,,,,,,,,,,883.2248,884.2716,884.2716,886.954,return,0.6613,,99.73958333,,,,,,FBP-RB-17.png,0.45,1.2,35,0.25,,,,,,,,,,,,,0,9,9,34,1,,,,,,,,,,,,,,,,,,,,,,,,,,,,
,,,,,SPR24_044,18,Female,2024-04-12_13h32.11.378,jersey_experiment_5_v0,2023.2.2,Win32,84.74576271,,,,,,,,,,,,,,,,886.9542,888.0014,888.0014,891.0837,return,0.612,,86.19791667,,,,,,FBP-OG-91.png,0.4,1.2,13,0.25,,,,,,,,,,,,,0,10,10,12,1,,,,,,,,,,,,,,,,,,,,,,,,,,,,
,,,,,SPR24_044,18,Female,2024-04-12_13h32.11.378,jersey_experiment_5_v0,2023.2.2,Win32,84.74576271,,,,,,,,,,,,,,,,891.0838,892.1308,892.1308,894.6368,return,0.6023,,74.86979167,,,,,,FBP-RB-19.png,0.43,1.2,44,0.25,,,,,,,,,,,,,0,11,11,43,1,,,,,,,,,,,,,,,,,,,,,,,,,,,,
,,,,,SPR24_044,18,Female,2024-04-12_13h32.11.378,jersey_experiment_5_v0,2023.2.2,Win32,84.74576271,,,,,,,,,,,,,,,,894.637,895.6838,895.6838,897.6604,return,0.8945,,74.73958333,,,,,,FBP-OG-71.png,0.37,1.2,2,0.25,,,,,,,,,,,,,0,12,12,1,1,,,,,,,,,,,,,,,,,,,,,,,,,,,,
,,,,,SPR24_044,18,Female,2024-04-12_13h32.11.378,jersey_experiment_5_v0,2023.2.2,Win32,84.74576271,,,,,,,,,,,,,,,,897.6606,898.7077,898.7077,901.1665,return,0.588,,86.97916667,,,,,,FBP-OG-91.png,0.37,1.2,12,0.25,,,,,,,,,,,,,0,13,13,11,1,,,,,,,,,,,,,,,,,,,,,,,,,,,,
,,,,,SPR24_044,18,Female,2024-04-12_13h32.11.378,jersey_experiment_5_v0,2023.2.2,Win32,84.74576271,,,,,,,,,,,,,,,,901.1668,902.4606,902.4606,903.9782,return,0.6024,,86.97916667,,,,,,FBP-YG-19.png,0.43,1.2,29,0.5,,,,,,,,,,,,,0,14,14,28,1,,,,,,,,,,,,,,,,,,,,,,,,,,,,
,,,,,SPR24_044,18,Female,2024-04-12_13h32.11.378,jersey_experiment_5_v0,2023.2.2,Win32,84.74576271,,,,,,,,,,,,,,,,903.9784,905.2725,905.2725,906.8371,return,0.5578,,86.97916667,,,,,,FBP-YG-17.png,0.45,1.2,20,0.5,,,,,,,,,,,,,0,15,15,19,1,,,,,,,,,,,,,,,,,,,,,,,,,,,,
,,,,,SPR24_044,18,Female,2024-04-12_13h32.11.378,jersey_experiment_5_v0,2023.2.2,Win32,84.74576271,,,,,,,,,,,,,,,,906.8372,907.8844,907.8844,912.3903,return,0.5095,,98.69791667,,,,,,FBP-RB-18.png,0.4,1.2,38,0.25,,,,,,,,,,,,,0,16,16,37,1,,,,,,,,,,,,,,,,,,,,,,,,,,,,
,,,,,SPR24_044,18,Female,2024-04-12_13h32.11.378,jersey_experiment_5_v0,2023.2.2,Win32,84.74576271,,,,,,,,,,,,,,,,912.3905,913.4375,913.4375,916.6023,return,1.3059,,98.95833333,,,,,,FBP-RB-18.png,0.43,1.2,39,0.25,,,,,,,,,,,,,0,17,17,38,1,,,,,,,,,,,,,,,,,,,,,,,,,,,,
,,,,,SPR24_044,18,Female,2024-04-12_13h32.11.378,jersey_experiment_5_v0,2023.2.2,Win32,84.74576271,,,,,,,,,,,,,,,,916.6024,917.8964,917.8965,920.6613,return,0.6635,,87.76041667,,,,,,FBP-YG-19.png,0.4,1.2,28,0.5,,,,,,,,,,,,,0,18,18,27,1,,,,,,,,,,,,,,,,,,,,,,,,,,,,
,,,,,SPR24_044,18,Female,2024-04-12_13h32.11.378,jersey_experiment_5_v0,2023.2.2,Win32,84.74576271,,,,,,,,,,,,,,,,920.6616,921.9555,921.9555,923.4496,return,0.5532,,87.63020833,,,,,,FBP-YG-17.png,0.4,1.2,18,0.5,,,,,,,,,,,,,0,19,19,17,1,,,,,,,,,,,,,,,,,,,,,,,,,,,,
,,,,,SPR24_044,18,Female,2024-04-12_13h32.11.378,jersey_experiment_5_v0,2023.2.2,Win32,84.74576271,,,,,,,,,,,,,,,,923.4498,924.7437,924.7437,928.3556,return,0.5854,,98.95833333,,,,,,FBP-PT-19.png,0.43,1.2,59,0.5,,,,,,,,,,,,,0,20,20,58,1,,,,,,,,,,,,,,,,,,,,,,,,,,,,
,,,,,SPR24_044,18,Female,2024-04-12_13h32.11.378,jersey_experiment_5_v0,2023.2.2,Win32,84.74576271,,,,,,,,,,,,,,,,928.3558,929.6499,929.6499,931.6852,return,0.5722,,99.47916667,,,,,,FBP-PT-19.png,0.45,1.2,60,0.5,,,,,,,,,,,,,0,21,21,59,1,,,,,,,,,,,,,,,,,,,,,,,,,,,,
,,,,,SPR24_044,18,Female,2024-04-12_13h32.11.378,jersey_experiment_5_v0,2023.2.2,Win32,84.74576271,,,,,,,,,,,,,,,,931.6854,932.7323,932.7323,935.3677,return,0.5678,,86.71875,,,,,,FBP-OG-91.png,0.45,1.2,15,0.25,,,,,,,,,,,,,0,22,22,14,1,,,,,,,,,,,,,,,,,,,,,,,,,,,,
,,,,,SPR24_044,18,Female,2024-04-12_13h32.11.378,jersey_experiment_5_v0,2023.2.2,Win32,84.74576271,,,,,,,,,,,,,,,,935.3679,936.6618,936.6619,938.1207,return,0.5802,,86.71875,,,,,,FBP-PT-18.png,0.45,1.2,55,0.5,,,,,,,,,,,,,0,23,23,54,1,,,,,,,,,,,,,,,,,,,,,,,,,,,,
,,,,,SPR24_044,18,Female,2024-04-12_13h32.11.378,jersey_experiment_5_v0,2023.2.2,Win32,84.74576271,,,,,,,,,,,,,,,,938.1209,939.4149,939.415,942.9326,return,0.6903,,74.34895833,,,,,,FBP-PT-19.png,0.37,1.2,57,0.5,,,,,,,,,,,,,0,24,24,56,1,,,,,,,,,,,,,,,,,,,,,,,,,,,,
,,,,,SPR24_044,18,Female,2024-04-12_13h32.11.378,jersey_experiment_5_v0,2023.2.2,Win32,84.74576271,,,,,,,,,,,,,,,,942.9329,943.9798,943.9798,945.5915,return,0.5698,,74.08854167,,,,,,FBP-OG-91.png,0.35,1.2,11,0.25,,,,,,,,,,,,,0,25,25,10,1,,,,,,,,,,,,,,,,,,,,,,,,,,,,
,,,,,SPR24_044,18,Female,2024-04-12_13h32.11.378,jersey_experiment_5_v0,2023.2.2,Win32,84.74576271,,,,,,,,,,,,,,,,945.5918,946.8857,946.8857,954.1566,return,3.6327,,48.69791667,,,,,,FBP-YG-18.png,0.35,1.2,21,0.5,,,,,,,,,,,,,0,26,26,20,1,,,,,,,,,,,,,,,,,,,,,,,,,,,,
,,,,,SPR24_044,18,Female,2024-04-12_13h32.11.378,jersey_experiment_5_v0,2023.2.2,Win32,84.74576271,,,,,,,,,,,,,,,,954.1569,955.2037,955.2037,956.8745,return,0.6591,,48.69791667,,,,,,FBP-OG-81.png,0.4,1.2,8,0.25,,,,,,,,,,,,,0,27,27,7,1,,,,,,,,,,,,,,,,,,,,,,,,,,,,
,,,,,SPR24_044,18,Female,2024-04-12_13h32.11.378,jersey_experiment_5_v0,2023.2.2,Win32,84.74576271,,,,,,,,,,,,,,,,956.8747,958.1685,958.1685,961.0628,return,0.7567,,25.26041667,,,,,,FBP-YG-19.png,0.35,1.2,26,0.5,,,,,,,,,,,,,0,28,28,25,1,,,,,,,,,,,,,,,,,,,,,,,,,,,,
,,,,,SPR24_044,18,Female,2024-04-12_13h32.11.378,jersey_experiment_5_v0,2023.2.2,Win32,84.74576271,,,,,,,,,,,,,,,,961.063,962.1098,962.1098,966.5219,return,0.753,,99.34895833,,,,,,FBP-RB-17.png,0.43,1.2,34,0.25,,,,,,,,,,,,,0,29,29,33,1,,,,,,,,,,,,,,,,,,,,,,,,,,,,
,,,,,SPR24_044,18,Female,2024-04-12_13h32.11.378,jersey_experiment_5_v0,2023.2.2,Win32,84.74576271,,,,,,,,,,,,,,,,966.5221,967.8159,967.816,970.4043,return,0.947,,73.828125,,,,,,FBP-PT-18.png,0.37,1.2,52,0.5,,,,,,,,,,,,,0,30,30,51,1,,,,,,,,,,,,,,,,,,,,,,,,,,,,
,,,,,SPR24_044,18,Female,2024-04-12_13h32.11.378,jersey_experiment_5_v0,2023.2.2,Win32,84.74576271,,,,,,,,,,,,,,,,970.4045,971.4513,971.4514,973.7572,return,0.7396,,73.95833333,,,,,,FBP-RB-17.png,0.4,1.2,33,0.25,,,,,,,,,,,,,0,31,31,32,1,,,,,,,,,,,,,,,,,,,,,,,,,,,,
,,,,,SPR24_044,18,Female,2024-04-12_13h32.11.378,jersey_experiment_5_v0,2023.2.2,Win32,84.74576271,,,,,,,,,,,,,,,,973.7574,974.8045,974.8045,978.5693,return,0.8709,,87.23958333,,,,,,FBP-OG-91.png,0.43,1.2,14,0.25,,,,,,,,,,,,,0,32,32,13,1,,,,,,,,,,,,,,,,,,,,,,,,,,,,
,,,,,SPR24_044,18,Female,2024-04-12_13h32.11.378,jersey_experiment_5_v0,2023.2.2,Win32,84.74576271,,,,,,,,,,,,,,,,978.5695,979.8634,979.8634,982.1811,return,0.666,,74.609375,,,,,,FBP-YG-18.png,0.4,1.2,23,0.5,,,,,,,,,,,,,0,33,33,22,1,,,,,,,,,,,,,,,,,,,,,,,,,,,,
,,,,,SPR24_044,18,Female,2024-04-12_13h32.11.378,jersey_experiment_5_v0,2023.2.2,Win32,84.74576271,,,,,,,,,,,,,,,,982.1814,983.4753,983.4753,985.3106,return,0.8097,,74.73958333,,,,,,FBP-PT-18.png,0.4,1.2,53,0.5,,,,,,,,,,,,,0,34,34,52,1,,,,,,,,,,,,,,,,,,,,,,,,,,,,
,,,,,SPR24_044,18,Female,2024-04-12_13h32.11.378,jersey_experiment_5_v0,2023.2.2,Win32,84.74576271,,,,,,,,,,,,,,,,985.3107,986.6048,986.6048,989.3579,return,0.7386,,24.21875,,,,,,FBP-YG-19.png,0.37,1.2,27,0.5,,,,,,,,,,,,,0,35,35,26,1,,,,,,,,,,,,,,,,,,,,,,,,,,,,
,,,,,SPR24_044,18,Female,2024-04-12_13h32.11.378,jersey_experiment_5_v0,2023.2.2,Win32,84.74576271,,,,,,,,,,,,,,,,989.358,990.405,990.405,994.9816,return,0.7219,,73.95833333,,,,,,FBP-RB-19.png,0.37,1.2,42,0.25,,,,,,,,,,,,,0,36,36,41,1,,,,,,,,,,,,,,,,,,,,,,,,,,,,
,,,,,SPR24_044,18,Female,2024-04-12_13h32.11.378,jersey_experiment_5_v0,2023.2.2,Win32,84.74576271,,,,,,,,,,,,,,,,994.9818,996.0287,996.0287,997.8995,return,0.6225,,73.4375,,,,,,FBP-OG-81.png,0.37,1.2,7,0.25,,,,,,,,,,,,,0,37,37,6,1,,,,,,,,,,,,,,,,,,,,,,,,,,,,
,,,,,SPR24_044,18,Female,2024-04-12_13h32.11.378,jersey_experiment_5_v0,2023.2.2,Win32,84.74576271,,,,,,,,,,,,,,,,997.8998,999.1935,999.1936,1001.6054,return,0.8046,,98.30729167,,,,,,FBP-PT-17.png,0.45,1.2,50,0.5,,,,,,,,,,,,,0,38,38,49,1,,,,,,,,,,,,,,,,,,,,,,,,,,,,
,,,,,SPR24_044,18,Female,2024-04-12_13h32.11.378,jersey_experiment_5_v0,2023.2.2,Win32,84.74576271,,,,,,,,,,,,,,,,1001.6057,1002.6525,1002.6525,1005.7232,return,0.6586,,24.73958333,,,,,,FBP-OG-71.png,0.35,1.2,1,0.25,,,,,,,,,,,,,0,39,39,0,1,,,,,,,,,,,,,,,,,,,,,,,,,,,,
,,,,,SPR24_044,18,Female,2024-04-12_13h32.11.378,jersey_experiment_5_v0,2023.2.2,Win32,84.74576271,,,,,,,,,,,,,,,,1005.7234,1007.0173,1007.0173,1009.0291,return,0.6286,,74.08854167,,,,,,FBP-PT-19.png,0.4,1.2,58,0.5,,,,,,,,,,,,,0,40,40,57,1,,,,,,,,,,,,,,,,,,,,,,,,,,,,
,,,,,SPR24_044,18,Female,2024-04-12_13h32.11.378,jersey_experiment_5_v0,2023.2.2,Win32,84.74576271,,,,,,,,,,,,,,,,1009.0293,1010.0764,1010.0764,1013.3353,return,1.0496,,86.45833333,,,,,,FBP-RB-18.png,0.45,1.2,40,0.25,,,,,,,,,,,,,0,41,41,39,1,,,,,,,,,,,,,,,,,,,,,,,,,,,,
,,,,,SPR24_044,18,Female,2024-04-12_13h32.11.378,jersey_experiment_5_v0,2023.2.2,Win32,84.74576271,,,,,,,,,,,,,,,,1013.3355,1014.6294,1014.6294,1018.359,return,0.7703,,36.328125,,,,,,FBP-PT-18.png,0.35,1.2,51,0.5,,,,,,,,,,,,,0,42,42,50,1,,,,,,,,,,,,,,,,,,,,,,,,,,,,
,,,,,SPR24_044,18,Female,2024-04-12_13h32.11.378,jersey_experiment_5_v0,2023.2.2,Win32,84.74576271,,,,,,,,,,,,,,,,1018.3593,1019.6531,1019.6531,1022.5003,return,0.8764,,11.58854167,,,,,,FBP-PT-17.png,0.35,1.2,46,0.5,,,,,,,,,,,,,0,43,43,45,1,,,,,,,,,,,,,,,,,,,,,,,,,,,,
,,,,,SPR24_044,18,Female,2024-04-12_13h32.11.378,jersey_experiment_5_v0,2023.2.2,Win32,84.74576271,,,,,,,,,,,,,,,,1022.5005,1023.7945,1023.7945,1027.0768,return,0.7701,,75.65104167,,,,,,FBP-PT-18.png,0.43,1.2,54,0.5,,,,,,,,,,,,,0,44,44,53,1,,,,,,,,,,,,,,,,,,,,,,,,,,,,
,,,,,SPR24_044,18,Female,2024-04-12_13h32.11.378,jersey_experiment_5_v0,2023.2.2,Win32,84.74576271,,,,,,,,,,,,,,,,1027.0769,1028.3711,1028.3711,1032.1713,return,0.6825,,99.08854167,,,,,,FBP-YG-17.png,0.37,1.2,17,0.5,,,,,,,,,,,,,0,45,45,16,1,,,,,,,,,,,,,,,,,,,,,,,,,,,,
,,,,,SPR24_044,18,Female,2024-04-12_13h32.11.378,jersey_experiment_5_v0,2023.2.2,Win32,84.74576271,,,,,,,,,,,,,,,,1032.1715,1033.2182,1033.2182,1035.1242,return,0.7001,,99.08854167,,,,,,FBP-OG-71.png,0.43,1.2,4,0.25,,,,,,,,,,,,,0,46,46,3,1,,,,,,,,,,,,,,,,,,,,,,,,,,,,
,,,,,SPR24_044,18,Female,2024-04-12_13h32.11.378,jersey_experiment_5_v0,2023.2.2,Win32,84.74576271,,,,,,,,,,,,,,,,1035.1245,1036.1713,1036.1714,1039.1009,return,0.9412,,1.822916667,,,,,,FBP-RB-18.png,0.35,1.2,36,0.25,,,,,,,,,,,,,0,47,47,35,1,,,,,,,,,,,,,,,,,,,,,,,,,,,,
,,,,,SPR24_044,18,Female,2024-04-12_13h32.11.378,jersey_experiment_5_v0,2023.2.2,Win32,84.74576271,,,,,,,,,,,,,,,,1039.1011,1040.1479,1040.1479,1043.7834,return,1.0029,,98.4375,,,,,,FBP-OG-81.png,0.45,1.2,10,0.25,,,,,,,,,,,,,0,48,48,9,1,,,,,,,,,,,,,,,,,,,,,,,,,,,,
,,,,,SPR24_044,18,Female,2024-04-12_13h32.11.378,jersey_experiment_5_v0,2023.2.2,Win32,84.74576271,,,,,,,,,,,,,,,,1043.7836,1044.8305,1044.8305,1046.9955,return,0.7364,,98.4375,,,,,,FBP-RB-19.png,0.45,1.2,45,0.25,,,,,,,,,,,,,0,49,49,44,1,,,,,,,,,,,,,,,,,,,,,,,,,,,,
,,,,,SPR24_044,18,Female,2024-04-12_13h32.11.378,jersey_experiment_5_v0,2023.2.2,Win32,84.74576271,,,,,,,,,,,,,,,,1046.9956,1048.0422,1048.0423,1050.8307,return,0.6495,,73.95833333,,,,,,FBP-RB-17.png,0.37,1.2,32,0.25,,,,,,,,,,,,,0,50,50,31,1,,,,,,,,,,,,,,,,,,,,,,,,,,,,
,,,,,SPR24_044,18,Female,2024-04-12_13h32.11.378,jersey_experiment_5_v0,2023.2.2,Win32,84.74576271,,,,,,,,,,,,,,,,1050.8309,1052.1249,1052.125,1056.4074,return,0.5909,,59.11458333,,,,,,FBP-PT-17.png,0.37,1.2,47,0.5,,,,,,,,,,,,,0,51,51,46,1,,,,,,,,,,,,,,,,,,,,,,,,,,,,
,,,,,SPR24_044,18,Female,2024-04-12_13h32.11.378,jersey_experiment_5_v0,2023.2.2,Win32,84.74576271,,,,,,,,,,,,,,,,1056.4076,1057.7016,1057.7016,1060.2665,return,0.565,,28.64583333,,,,,,FBP-YG-17.png,0.35,1.2,16,0.5,,,,,,,,,,,,,0,52,52,15,1,,,,,,,,,,,,,,,,,,,,,,,,,,,,
,,,,,SPR24_044,18,Female,2024-04-12_13h32.11.378,jersey_experiment_5_v0,2023.2.2,Win32,84.74576271,,,,,,,,,,,,,,,,1060.2667,1061.3134,1061.3134,1064.3489,return,0.5742,,87.63020833,,,,,,FBP-OG-81.png,0.43,1.2,9,0.25,,,,,,,,,,,,,0,53,53,8,1,,,,,,,,,,,,,,,,,,,,,,,,,,,,
,,,,,SPR24_044,18,Female,2024-04-12_13h32.11.378,jersey_experiment_5_v0,2023.2.2,Win32,84.74576271,,,,,,,,,,,,,,,,1064.3491,1065.3959,1065.3959,1067.243,return,0.7543,,86.45833333,,,,,,FBP-OG-71.png,0.4,1.2,3,0.25,,,,,,,,,,,,,0,54,54,2,1,,,,,,,,,,,,,,,,,,,,,,,,,,,,
,,,,,SPR24_044,18,Female,2024-04-12_13h32.11.378,jersey_experiment_5_v0,2023.2.2,Win32,84.74576271,,,,,,,,,,,,,,,,1067.2432,1068.5371,1068.5371,1071.4197,return,0.6585,,74.609375,,,,,,FBP-YG-18.png,0.43,1.2,24,0.5,,,,,,,,,,,,,0,55,55,23,1,,,,,,,,,,,,,,,,,,,,,,,,,,,,
,,,,,SPR24_044,18,Female,2024-04-12_13h32.11.378,jersey_experiment_5_v0,2023.2.2,Win32,84.74576271,,,,,,,,,,,,,,,,1071.4199,1072.7138,1072.7139,1074.267,return,0.8232,,75,,,,,,FBP-PT-17.png,0.4,1.2,48,0.5,,,,,,,,,,,,,0,56,56,47,1,,,,,,,,,,,,,,,,,,,,,,,,,,,,
,,,,,SPR24_044,18,Female,2024-04-12_13h32.11.378,jersey_experiment_5_v0,2023.2.2,Win32,84.74576271,,,,,,,,,,,,,,,,1074.2672,1075.3138,1075.3139,1077.7023,return,0.6625,,87.890625,,,,,,FBP-RB-18.png,0.37,1.2,37,0.25,,,,,,,,,,,,,0,57,57,36,1,,,,,,,,,,,,,,,,,,,,,,,,,,,,
,,,,,SPR24_044,18,Female,2024-04-12_13h32.11.378,jersey_experiment_5_v0,2023.2.2,Win32,84.74576271,,,,,,,,,,,,,,,,1077.7025,1078.9964,1078.9964,1080.8086,return,0.6041,,87.890625,,,,,,FBP-YG-19.png,0.45,1.2,30,0.5,,,,,,,,,,,,,0,58,58,29,1,,,,,,,,,,,,,,,,,,,,,,,,,,,,
,,,,,SPR24_044,18,Female,2024-04-12_13h32.11.378,jersey_experiment_5_v0,2023.2.2,Win32,84.74576271,,,,,,,,,,,,,,,,1080.8088,1081.8553,1081.8554,1083.8201,return,0.5885,,98.95833333,,,,,,FBP-OG-71.png,0.45,1.2,5,0.25,,,,,,,,,,,,,0,59,59,4,1,,,,,,,,,,,,,,,,,,,,,,,,,,,,
,,,,,SPR24_044,18,Female,2024-04-12_13h32.11.378,jersey_experiment_5_v0,2023.2.2,Win32,84.74576271,,,,,,,,,,,,,,,,1083.822,1084.8672,1084.8672,1088.644,return,0.6652,,73.4375,,,,,,FBP-OG-18.png,0.43,1.2,9,0.25,,,,,,,,,,,,,,,,,,0,0,0,8,1,,,,,,,,,,,,,,,,,,,,,,,
,,,,,SPR24_044,18,Female,2024-04-12_13h32.11.378,jersey_experiment_5_v0,2023.2.2,Win32,84.74576271,,,,,,,,,,,,,,,,1088.6443,1089.6908,1089.6908,1091.9733,return,0.652,,73.69791667,,,,,,FBP-RB-71.png,0.37,1.2,32,0.25,,,,,,,,,,,,,,,,,,0,1,1,31,1,,,,,,,,,,,,,,,,,,,,,,,
,,,,,SPR24_044,18,Female,2024-04-12_13h32.11.378,jersey_experiment_5_v0,2023.2.2,Win32,84.74576271,,,,,,,,,,,,,,,,1091.9735,1093.0205,1093.0205,1096.856,return,0.7456,,86.328125,,,,,,FBP-RB-81.png,0.43,1.2,39,0.25,,,,,,,,,,,,,,,,,,0,2,2,38,1,,,,,,,,,,,,,,,,,,,,,,,
,,,,,SPR24_044,18,Female,2024-04-12_13h32.11.378,jersey_experiment_5_v0,2023.2.2,Win32,84.74576271,,,,,,,,,,,,,,,,1096.8563,1098.1501,1098.1501,1099.8912,return,0.6421,,88.28125,,,,,,FBP-YG-71.png,0.45,1.2,20,0.5,,,,,,,,,,,,,,,,,,0,3,3,19,1,,,,,,,,,,,,,,,,,,,,,,,
,,,,,SPR24_044,18,Female,2024-04-12_13h32.11.378,jersey_experiment_5_v0,2023.2.2,Win32,84.74576271,,,,,,,,,,,,,,,,1099.8915,1101.1855,1101.1855,1103.7503,return,0.5924,,99.47916667,,,,,,FBP-PT-71.png,0.43,1.2,49,0.5,,,,,,,,,,,,,,,,,,0,4,4,48,1,,,,,,,,,,,,,,,,,,,,,,,
,,,,,SPR24_044,18,Female,2024-04-12_13h32.11.378,jersey_experiment_5_v0,2023.2.2,Win32,84.74576271,,,,,,,,,,,,,,,,1103.7506,1105.0444,1105.0445,1106.4915,return,0.4947,,100,,,,,,FBP-YG-81.png,0.43,1.2,24,0.5,,,,,,,,,,,,,,,,,,0,5,5,23,1,,,,,,,,,,,,,,,,,,,,,,,
,,,,,SPR24_044,18,Female,2024-04-12_13h32.11.378,jersey_experiment_5_v0,2023.2.2,Win32,84.74576271,,,,,,,,,,,,,,,,1106.4917,1107.7857,1107.7857,1110.8211,return,0.7463,,23.828125,,,,,,FBP-YG-81.png,0.35,1.2,21,0.5,,,,,,,,,,,,,,,,,,0,6,6,20,1,,,,,,,,,,,,,,,,,,,,,,,
,,,,,SPR24_044,18,Female,2024-04-12_13h32.11.378,jersey_experiment_5_v0,2023.2.2,Win32,84.74576271,,,,,,,,,,,,,,,,1110.8213,1111.8682,1111.8683,1113.8918,return,0.6183,,98.69791667,,,,,,FBP-RB-91.png,0.45,1.2,45,0.25,,,,,,,,,,,,,,,,,,0,7,7,44,1,,,,,,,,,,,,,,,,,,,,,,,
,,,,,SPR24_044,18,Female,2024-04-12_13h32.11.378,jersey_experiment_5_v0,2023.2.2,Win32,84.74576271,,,,,,,,,,,,,,,,1113.892,1115.186,1115.186,1117.845,return,0.8517,,25.91145833,,,,,,FBP-PT-91.png,0.37,1.2,57,0.5,,,,,,,,,,,,,,,,,,0,8,8,56,1,,,,,,,,,,,,,,,,,,,,,,,
,,,,,SPR24_044,18,Female,2024-04-12_13h32.11.378,jersey_experiment_5_v0,2023.2.2,Win32,84.74576271,,,,,,,,,,,,,,,,1117.8452,1118.8919,1118.8919,1122.4215,return,1.1365,,86.71875,,,,,,FBP-RB-71.png,0.45,1.2,35,0.25,,,,,,,,,,,,,,,,,,0,9,9,34,1,,,,,,,,,,,,,,,,,,,,,,,
,,,,,SPR24_044,18,Female,2024-04-12_13h32.11.378,jersey_experiment_5_v0,2023.2.2,Win32,84.74576271,,,,,,,,,,,,,,,,1122.4218,1123.7157,1123.7158,1127.5158,return,0.6724,,74.609375,,,,,,FBP-PT-91.png,0.4,1.2,58,0.5,,,,,,,,,,,,,,,,,,0,10,10,57,1,,,,,,,,,,,,,,,,,,,,,,,
,,,,,SPR24_044,18,Female,2024-04-12_13h32.11.378,jersey_experiment_5_v0,2023.2.2,Win32,84.74576271,,,,,,,,,,,,,,,,1127.516,1128.81,1128.81,1133.9278,return,0.7437,,36.58854167,,,,,,FBP-YG-91.png,0.43,1.2,29,0.5,,,,,,,,,,,,,,,,,,0,11,11,28,1,,,,,,,,,,,,,,,,,,,,,,,
,,,,,SPR24_044,18,Female,2024-04-12_13h32.11.378,jersey_experiment_5_v0,2023.2.2,Win32,84.74576271,,,,,,,,,,,,,,,,1133.928,1135.2219,1135.2219,1139.2457,return,0.9648,,48.828125,,,,,,FBP-PT-71.png,0.4,1.2,48,0.5,,,,,,,,,,,,,,,,,,0,12,12,47,1,,,,,,,,,,,,,,,,,,,,,,,
,,,,,SPR24_044,18,Female,2024-04-12_13h32.11.378,jersey_experiment_5_v0,2023.2.2,Win32,84.74576271,,,,,,,,,,,,,,,,1139.2459,1140.2928,1140.2929,1142.4458,return,0.6354,,48.95833333,,,,,,FBP-RB-91.png,0.35,1.2,41,0.25,,,,,,,,,,,,,,,,,,0,13,13,40,1,,,,,,,,,,,,,,,,,,,,,,,
,,,,,SPR24_044,18,Female,2024-04-12_13h32.11.378,jersey_experiment_5_v0,2023.2.2,Win32,84.74576271,,,,,,,,,,,,,,,,1142.446,1143.7398,1143.7399,1148.54,return,0.7767,,75.13020833,,,,,,FBP-YG-71.png,0.4,1.2,18,0.5,,,,,,,,,,,,,,,,,,0,14,14,17,1,,,,,,,,,,,,,,,,,,,,,,,
,,,,,SPR24_044,18,Female,2024-04-12_13h32.11.378,jersey_experiment_5_v0,2023.2.2,Win32,84.74576271,,,,,,,,,,,,,,,,1148.5401,1149.5872,1149.5873,1157.1639,return,1.2379,,74.73958333,,,,,,FBP-OG-17.png,0.43,1.2,4,0.25,,,,,,,,,,,,,,,,,,0,15,15,3,1,,,,,,,,,,,,,,,,,,,,,,,
,,,,,SPR24_044,18,Female,2024-04-12_13h32.11.378,jersey_experiment_5_v0,2023.2.2,Win32,84.74576271,,,,,,,,,,,,,,,,1157.1641,1158.211,1158.2111,1161.5172,return,0.7673,,50.52083333,,,,,,FBP-RB-81.png,0.37,1.2,37,0.25,,,,,,,,,,,,,,,,,,0,16,16,36,1,,,,,,,,,,,,,,,,,,,,,,,
,,,,,SPR24_044,18,Female,2024-04-12_13h32.11.378,jersey_experiment_5_v0,2023.2.2,Win32,84.74576271,,,,,,,,,,,,,,,,1161.5173,1162.5641,1162.5641,1164.7408,return,0.8997,,50.26041667,,,,,,FBP-OG-17.png,0.37,1.2,2,0.25,,,,,,,,,,,,,,,,,,0,17,17,1,1,,,,,,,,,,,,,,,,,,,,,,,
,,,,,SPR24_044,18,Female,2024-04-12_13h32.11.378,jersey_experiment_5_v0,2023.2.2,Win32,84.74576271,,,,,,,,,,,,,,,,1164.7411,1165.7877,1165.7877,1174.059,return,0.6499,,25.52083333,,,,,,FBP-OG-19.png,0.43,1.2,14,0.25,,,,,,,,,,,,,,,,,,0,18,18,13,1,,,,,,,,,,,,,,,,,,,,,,,
,,,,,SPR24_044,18,Female,2024-04-12_13h32.11.378,jersey_experiment_5_v0,2023.2.2,Win32,84.74576271,,,,,,,,,,,,,,,,1174.0593,1175.1059,1175.1059,1176.8706,return,0.5326,,24.609375,,,,,,FBP-RB-81.png,0.35,1.2,36,0.25,,,,,,,,,,,,,,,,,,0,19,19,35,1,,,,,,,,,,,,,,,,,,,,,,,
,,,,,SPR24_044,18,Female,2024-04-12_13h32.11.378,jersey_experiment_5_v0,2023.2.2,Win32,84.74576271,,,,,,,,,,,,,,,,1176.8707,1178.1647,1178.1648,1180.5177,return,0.6285,,75,,,,,,FBP-YG-81.png,0.37,1.2,22,0.5,,,,,,,,,,,,,,,,,,0,20,20,21,1,,,,,,,,,,,,,,,,,,,,,,,
,,,,,SPR24_044,18,Female,2024-04-12_13h32.11.378,jersey_experiment_5_v0,2023.2.2,Win32,84.74576271,,,,,,,,,,,,,,,,1180.5179,1181.8119,1181.812,1183.7061,return,0.6584,,75,,,,,,FBP-PT-71.png,0.37,1.2,47,0.5,,,,,,,,,,,,,,,,,,0,21,21,46,1,,,,,,,,,,,,,,,,,,,,,,,
,,,,,SPR24_044,18,Female,2024-04-12_13h32.11.378,jersey_experiment_5_v0,2023.2.2,Win32,84.74576271,,,,,,,,,,,,,,,,1183.7064,1185.0004,1185.0004,1188.918,return,0.971,,86.328125,,,,,,FBP-YG-71.png,0.43,1.2,19,0.5,,,,,,,,,,,,,,,,,,0,22,22,18,1,,,,,,,,,,,,,,,,,,,,,,,
,,,,,SPR24_044,18,Female,2024-04-12_13h32.11.378,jersey_experiment_5_v0,2023.2.2,Win32,84.74576271,,,,,,,,,,,,,,,,1188.9183,1189.9651,1189.9652,1191.4358,return,0.1888,,88.02083333,,,,,,FBP-OG-19.png,0.45,1.2,15,0.25,,,,,,,,,,,,,,,,,,0,23,23,14,1,,,,,,,,,,,,,,,,,,,,,,,
,,,,,SPR24_044,18,Female,2024-04-12_13h32.11.378,jersey_experiment_5_v0,2023.2.2,Win32,84.74576271,,,,,,,,,,,,,,,,1191.436,1192.4829,1192.4829,1194.6124,return,0.1728,,25,,,,,,FBP-OG-18.png,0.35,1.2,6,0.25,,,,,,,,,,,,,,,,,,0,24,24,5,1,,,,,,,,,,,,,,,,,,,,,,,
,,,,,SPR24_044,18,Female,2024-04-12_13h32.11.378,jersey_experiment_5_v0,2023.2.2,Win32,84.74576271,,,,,,,,,,,,,,,,1194.6126,1195.9066,1195.9066,1196.7301,return,0.1671,,25.52083333,,,,,,FBP-YG-71.png,0.35,1.2,16,0.5,,,,,,,,,,,,,,,,,,0,25,25,15,1,,,,,,,,,,,,,,,,,,,,,,,
,,,,,SPR24_044,18,Female,2024-04-12_13h32.11.378,jersey_experiment_5_v0,2023.2.2,Win32,84.74576271,,,,,,,,,,,,,,,,1196.7303,1197.7773,1197.7773,1199.4125,return,0.2287,,74.86979167,,,,,,FBP-RB-81.png,0.4,1.2,38,0.25,,,,,,,,,,,,,,,,,,0,26,26,37,1,,,,,,,,,,,,,,,,,,,,,,,
,,,,,SPR24_044,18,Female,2024-04-12_13h32.11.378,jersey_experiment_5_v0,2023.2.2,Win32,84.74576271,,,,,,,,,,,,,,,,1199.4127,1200.4598,1200.4599,1201.1774,return,0.144,,74.86979167,,,,,,FBP-OG-17.png,0.4,1.2,3,0.25,,,,,,,,,,,,,,,,,,0,27,27,2,1,,,,,,,,,,,,,,,,,,,,,,,
,,,,,SPR24_044,18,Female,2024-04-12_13h32.11.378,jersey_experiment_5_v0,2023.2.2,Win32,84.74576271,,,,,,,,,,,,,,,,1201.1776,1202.4715,1202.4715,1204.3422,return,0.1923,,86.58854167,,,,,,FBP-YG-91.png,0.45,1.2,30,0.5,,,,,,,,,,,,,,,,,,0,28,28,29,1,,,,,,,,,,,,,,,,,,,,,,,
,,,,,SPR24_044,18,Female,2024-04-12_13h32.11.378,jersey_experiment_5_v0,2023.2.2,Win32,84.74576271,,,,,,,,,,,,,,,,1204.3425,1205.6367,1205.6367,1207.9659,return,0.589,,85.41666667,,,,,,FBP-PT-71.png,0.45,1.2,50,0.5,,,,,,,,,,,,,,,,,,0,29,29,49,1,,,,,,,,,,,,,,,,,,,,,,,
,,,,,SPR24_044,18,Female,2024-04-12_13h32.11.378,jersey_experiment_5_v0,2023.2.2,Win32,84.74576271,,,,,,,,,,,,,,,,1207.9661,1209.26,1209.26,1210.6482,return,0.1899,,86.71875,,,,,,FBP-PT-81.png,0.43,1.2,54,0.5,,,,,,,,,,,,,,,,,,0,30,30,53,1,,,,,,,,,,,,,,,,,,,,,,,
,,,,,SPR24_044,18,Female,2024-04-12_13h32.11.378,jersey_experiment_5_v0,2023.2.2,Win32,84.74576271,,,,,,,,,,,,,,,,1210.6484,1211.9424,1211.9424,1213.507,return,0.1271,,99.73958333,,,,,,FBP-PT-91.png,0.45,1.2,60,0.5,,,,,,,,,,,,,,,,,,0,31,31,59,1,,,,,,,,,,,,,,,,,,,,,,,
,,,,,SPR24_044,18,Female,2024-04-12_13h32.11.378,jersey_experiment_5_v0,2023.2.2,Win32,84.74576271,,,,,,,,,,,,,,,,1213.5072,1214.8013,1214.8013,1215.4956,return,0.1438,,99.21875,,,,,,FBP-PT-91.png,0.43,1.2,59,0.5,,,,,,,,,,,,,,,,,,0,32,32,58,1,,,,,,,,,,,,,,,,,,,,,,,
,,,,,SPR24_044,18,Female,2024-04-12_13h32.11.378,jersey_experiment_5_v0,2023.2.2,Win32,84.74576271,,,,,,,,,,,,,,,,1215.4958,1216.7897,1216.7897,1218.4839,return,0.0207,,73.95833333,,,,,,FBP-YG-71.png,0.37,1.2,17,0.5,,,,,,,,,,,,,,,,,,0,33,33,16,1,,,,,,,,,,,,,,,,,,,,,,,
,,,,,SPR24_044,18,Female,2024-04-12_13h32.11.378,jersey_experiment_5_v0,2023.2.2,Win32,84.74576271,,,,,,,,,,,,,,,,1218.4841,1219.5309,1219.5309,1220.8722,return,0.1217,,99.34895833,,,,,,FBP-RB-71.png,0.43,1.2,34,0.25,,,,,,,,,,,,,,,,,,0,34,34,33,1,,,,,,,,,,,,,,,,,,,,,,,
,,,,,SPR24_044,18,Female,2024-04-12_13h32.11.378,jersey_experiment_5_v0,2023.2.2,Win32,84.74576271,,,,,,,,,,,,,,,,1220.8725,1222.1663,1222.1663,1225.5076,return,0.338,,26.953125,,,,,,FBP-PT-71.png,0.35,1.2,46,0.5,,,,,,,,,,,,,,,,,,0,35,35,45,1,,,,,,,,,,,,,,,,,,,,,,,
,,,,,SPR24_044,18,Female,2024-04-12_13h32.11.378,jersey_experiment_5_v0,2023.2.2,Win32,84.74576271,,,,,,,,,,,,,,,,1225.5077,1226.5548,1226.5548,1228.0725,return,0.2483,,75.13020833,,,,,,FBP-OG-17.png,0.45,1.2,5,0.25,,,,,,,,,,,,,,,,,,0,36,36,4,1,,,,,,,,,,,,,,,,,,,,,,,
,,,,,SPR24_044,18,Female,2024-04-12_13h32.11.378,jersey_experiment_5_v0,2023.2.2,Win32,84.74576271,,,,,,,,,,,,,,,,1228.0726,1229.3666,1229.3667,1230.9668,return,0.1468,,22.65625,,,,,,FBP-YG-91.png,0.37,1.2,27,0.5,,,,,,,,,,,,,,,,,,0,37,37,26,1,,,,,,,,,,,,,,,,,,,,,,,
,,,,,SPR24_044,18,Female,2024-04-12_13h32.11.378,jersey_experiment_5_v0,2023.2.2,Win32,84.74576271,,,,,,,,,,,,,,,,1230.967,1232.0139,1232.0139,1234.108,return,0.2258,,74.08854167,,,,,,FBP-OG-19.png,0.4,1.2,13,0.25,,,,,,,,,,,,,,,,,,0,38,38,12,1,,,,,,,,,,,,,,,,,,,,,,,
,,,,,SPR24_044,18,Female,2024-04-12_13h32.11.378,jersey_experiment_5_v0,2023.2.2,Win32,84.74576271,,,,,,,,,,,,,,,,1234.1082,1235.4022,1235.4023,1236.6845,return,0.1511,,73.95833333,,,,,,FBP-YG-91.png,0.4,1.2,28,0.5,,,,,,,,,,,,,,,,,,0,39,39,27,1,,,,,,,,,,,,,,,,,,,,,,,
,,,,,SPR24_044,18,Female,2024-04-12_13h32.11.378,jersey_experiment_5_v0,2023.2.2,Win32,84.74576271,,,,,,,,,,,,,,,,1236.6849,1237.9787,1237.9788,1239.6377,return,0.2875,,48.69791667,,,,,,FBP-PT-81.png,0.35,1.2,51,0.5,,,,,,,,,,,,,,,,,,0,40,40,50,1,,,,,,,,,,,,,,,,,,,,,,,
,,,,,SPR24_044,18,Female,2024-04-12_13h32.11.378,jersey_experiment_5_v0,2023.2.2,Win32,84.74576271,,,,,,,,,,,,,,,,1239.6379,1240.6848,1240.6848,1242.3553,return,0.1125,,26.43229167,,,,,,FBP-OG-18.png,0.37,1.2,7,0.25,,,,,,,,,,,,,,,,,,0,41,41,6,1,,,,,,,,,,,,,,,,,,,,,,,
,,,,,SPR24_044,18,Female,2024-04-12_13h32.11.378,jersey_experiment_5_v0,2023.2.2,Win32,84.74576271,,,,,,,,,,,,,,,,1242.3555,1243.4026,1243.4026,1245.179,return,0.1661,,99.08854167,,,,,,FBP-RB-81.png,0.45,1.2,40,0.25,,,,,,,,,,,,,,,,,,0,42,42,39,1,,,,,,,,,,,,,,,,,,,,,,,
,,,,,SPR24_044,18,Female,2024-04-12_13h32.11.378,jersey_experiment_5_v0,2023.2.2,Win32,84.74576271,,,,,,,,,,,,,,,,1245.1791,1246.2261,1246.2261,1248.4261,return,0.2846,,35.02604167,,,,,,FBP-OG-19.png,0.37,1.2,12,0.25,,,,,,,,,,,,,,,,,,0,43,43,11,1,,,,,,,,,,,,,,,,,,,,,,,
,,,,,SPR24_044,18,Female,2024-04-12_13h32.11.378,jersey_experiment_5_v0,2023.2.2,Win32,84.74576271,,,,,,,,,,,,,,,,1248.4265,1249.7203,1249.7204,1252.0852,return,0.2778,,84.63541667,,,,,,FBP-YG-81.png,0.4,1.2,23,0.5,,,,,,,,,,,,,,,,,,0,44,44,22,1,,,,,,,,,,,,,,,,,,,,,,,
,,,,,SPR24_044,18,Female,2024-04-12_13h32.11.378,jersey_experiment_5_v0,2023.2.2,Win32,84.74576271,,,,,,,,,,,,,,,,1252.0854,1253.3793,1253.3794,1257.0381,return,0.1178,,33.72395833,,,,,,FBP-YG-91.png,0.35,1.2,26,0.5,,,,,,,,,,,,,,,,,,0,45,45,25,1,,,,,,,,,,,,,,,,,,,,,,,
,,,,,SPR24_044,18,Female,2024-04-12_13h32.11.378,jersey_experiment_5_v0,2023.2.2,Win32,84.74576271,,,,,,,,,,,,,,,,1257.0383,1258.0854,1258.0855,1259.6619,return,0.1419,,74.34895833,,,,,,FBP-OG-18.png,0.45,1.2,10,0.25,,,,,,,,,,,,,,,,,,0,46,46,9,1,,,,,,,,,,,,,,,,,,,,,,,
,,,,,SPR24_044,18,Female,2024-04-12_13h32.11.378,jersey_experiment_5_v0,2023.2.2,Win32,84.74576271,,,,,,,,,,,,,,,,1259.6621,1260.7088,1260.7088,1261.5444,return,0.167,,74.34895833,,,,,,FBP-RB-71.png,0.4,1.2,33,0.25,,,,,,,,,,,,,,,,,,0,47,47,32,1,,,,,,,,,,,,,,,,,,,,,,,
,,,,,SPR24_044,18,Female,2024-04-12_13h32.11.378,jersey_experiment_5_v0,2023.2.2,Win32,84.74576271,,,,,,,,,,,,,,,,1261.5446,1262.5913,1262.5913,1264.4856,return,0.1929,,99.86979167,,,,,,FBP-RB-91.png,0.43,1.2,44,0.25,,,,,,,,,,,,,,,,,,0,48,48,43,1,,,,,,,,,,,,,,,,,,,,,,,
,,,,,SPR24_044,18,Female,2024-04-12_13h32.11.378,jersey_experiment_5_v0,2023.2.2,Win32,84.74576271,,,,,,,,,,,,,,,,1264.4859,1265.5326,1265.5327,1268.5564,return,0.8855,,22.91666667,,,,,,FBP-OG-17.png,0.35,1.2,1,0.25,,,,,,,,,,,,,,,,,,0,49,49,0,1,,,,,,,,,,,,,,,,,,,,,,,
,,,,,SPR24_044,18,Female,2024-04-12_13h32.11.378,jersey_experiment_5_v0,2023.2.2,Win32,84.74576271,,,,,,,,,,,,,,,,1268.5566,1269.8505,1269.8506,1271.9563,return,0.2432,,50.78125,,,,,,FBP-PT-81.png,0.4,1.2,53,0.5,,,,,,,,,,,,,,,,,,0,50,50,52,1,,,,,,,,,,,,,,,,,,,,,,,
,,,,,SPR24_044,18,Female,2024-04-12_13h32.11.378,jersey_experiment_5_v0,2023.2.2,Win32,84.74576271,,,,,,,,,,,,,,,,1271.9565,1273.0036,1273.0037,1273.8507,return,0.1413,,50.91145833,,,,,,FBP-RB-71.png,0.35,1.2,31,0.25,,,,,,,,,,,,,,,,,,0,51,51,30,1,,,,,,,,,,,,,,,,,,,,,,,
,,,,,SPR24_044,18,Female,2024-04-12_13h32.11.378,jersey_experiment_5_v0,2023.2.2,Win32,84.74576271,,,,,,,,,,,,,,,,1273.8509,1275.1449,1275.1449,1276.8391,return,0.1446,,99.08854167,,,,,,FBP-YG-81.png,0.45,1.2,25,0.5,,,,,,,,,,,,,,,,,,0,52,52,24,1,,,,,,,,,,,,,,,,,,,,,,,
,,,,,SPR24_044,18,Female,2024-04-12_13h32.11.378,jersey_experiment_5_v0,2023.2.2,Win32,84.74576271,,,,,,,,,,,,,,,,1276.8393,1277.886,1277.8861,1279.5566,return,0.1579,,48.30729167,,,,,,FBP-RB-91.png,0.37,1.2,42,0.25,,,,,,,,,,,,,,,,,,0,53,53,41,1,,,,,,,,,,,,,,,,,,,,,,,
,,,,,SPR24_044,18,Female,2024-04-12_13h32.11.378,jersey_experiment_5_v0,2023.2.2,Win32,84.74576271,,,,,,,,,,,,,,,,1279.5568,1280.8508,1280.8508,1286.6864,return,2.2119,,2.083333333,,,,,,FBP-PT-81.png,0.37,1.2,52,0.5,,,,,,,,,,,,,,,,,,0,54,54,51,1,,,,,,,,,,,,,,,,,,,,,,,
,,,,,SPR24_044,18,Female,2024-04-12_13h32.11.378,jersey_experiment_5_v0,2023.2.2,Win32,84.74576271,,,,,,,,,,,,,,,,1286.6866,1287.7336,1287.7336,1290.8395,return,0.3697,,73.046875,,,,,,FBP-OG-18.png,0.4,1.2,8,0.25,,,,,,,,,,,,,,,,,,0,55,55,7,1,,,,,,,,,,,,,,,,,,,,,,,
,,,,,SPR24_044,18,Female,2024-04-12_13h32.11.378,jersey_experiment_5_v0,2023.2.2,Win32,84.74576271,,,,,,,,,,,,,,,,1290.8398,1292.1337,1292.1337,1293.9338,return,0.1415,,88.41145833,,,,,,FBP-PT-81.png,0.45,1.2,55,0.5,,,,,,,,,,,,,,,,,,0,56,56,54,1,,,,,,,,,,,,,,,,,,,,,,,
,,,,,SPR24_044,18,Female,2024-04-12_13h32.11.378,jersey_experiment_5_v0,2023.2.2,Win32,84.74576271,,,,,,,,,,,,,,,,1293.934,1295.2278,1295.2278,1298.3457,return,0.5086,,2.734375,,,,,,FBP-PT-91.png,0.35,1.2,56,0.5,,,,,,,,,,,,,,,,,,0,57,57,55,1,,,,,,,,,,,,,,,,,,,,,,,
,,,,,SPR24_044,18,Female,2024-04-12_13h32.11.378,jersey_experiment_5_v0,2023.2.2,Win32,84.74576271,,,,,,,,,,,,,,,,1298.3459,1299.3926,1299.3926,1301.6517,return,0.3004,,26.30208333,,,,,,FBP-RB-91.png,0.4,1.2,43,0.25,,,,,,,,,,,,,,,,,,0,58,58,42,1,,,,,,,,,,,,,,,,,,,,,,,
,,,,,SPR24_044,18,Female,2024-04-12_13h32.11.378,jersey_experiment_5_v0,2023.2.2,Win32,84.74576271,,,,,,,,,,,,,,,,1301.6518,1302.6988,1302.6988,1313.452,return,0.9794,,50.26041667,,,,,,FBP-OG-19.png,0.35,1.2,11,0.25,,,,,,,,,,,,,,,,,,0,59,59,10,1,,,,,,,,,,,,,,,,,,,,,,,
,,,,,SPR24_044,18,Female,2024-04-12_13h32.11.378,jersey_experiment_5_v0,2023.2.2,Win32,84.74576271,,,,,,,,,,,,,,,,,,,,,,,,,,,,,,,,,,,,,,,,,,,,,,,,,,,,,,,,1313.4526,1323.8057,return,10.3424,,,,,,,,,,,,,,,,,,,
,,,,,SPR24_044,18,Female,2024-04-12_13h32.11.378,jersey_experiment_5_v0,2023.2.2,Win32,84.74576271,,,,,,,,,,,,,,,,,,,,,,,,,,,,,,,,,,,,,,,,,,,,,,,,,,,,,,,,,,,,,1323.8058,1333.1471,1,5.7298,return,3.5894,,,,,,,,,,,,
,,,,,SPR24_044,18,Female,2024-04-12_13h32.11.378,jersey_experiment_5_v0,2023.2.2,Win32,84.74576271,,,,,,,,,,,,,,,,,,,,,,,,,,,,,,,,,,,,,,,,,,,,,,,,,,,,,,,,,,,,,,,,,,,,1333.1512,1373.9767,Yes did notice a pattern on weithrt or not thr men that ,right,34.9149,,,,,,
,,,,,SPR24_044,18,Female,2024-04-12_13h32.11.378,jersey_experiment_5_v0,2023.2.2,Win32,84.74576271,,,,,,,,,,,,,,,,,,,,,,,,,,,,,,,,,,,,,,,,,,,,,,,,,,,,,,,,,,,,,,,,,,,,,,,,,,1373.9768,1385.5022,return,11.5144,