requirements.started,requirements.stopped,key_resp_3.keys,key_resp_3.rt,key_resp_3.duration,Subject ID,Age,Gender,date,expName,psychopyVersion,OS,frameRate,instructions1.started,instructions1.stopped,key_resp.keys,key_resp.rt,key_resp.duration,example.started,example.stopped,enter_2.keys,enter_2.rt,enter_2.duration,instructions2.started,instructions2.stopped,enter_3.keys,enter_3.rt,enter_3.duration,image.started,image.stopped,slider_2.started,slider_2.stopped,next.keys,next.rt,next.duration,slider.response,trial_block_1.thisRepN,trial_block_1.thisTrialN,trial_block_1.thisN,trial_block_1.thisIndex,trial_block_1.ran,Path,Width,Height,Index,Duration,trial_block_2.thisRepN,trial_block_2.thisTrialN,trial_block_2.thisN,trial_block_2.thisIndex,trial_block_2.ran,rest_break.started,rest_break.stopped,end_break.started,end_break.stopped,key_resp_5.keys,key_resp_5.rt,key_resp_5.duration,trial_block_3.thisRepN,trial_block_3.thisTrialN,trial_block_3.thisN,trial_block_3.thisIndex,trial_block_3.ran,trial_block_4.thisRepN,trial_block_4.thisTrialN,trial_block_4.thisN,trial_block_4.thisIndex,trial_block_4.ran,questions_intro.started,questions_intro.stopped,enter_12.keys,enter_12.rt,enter_12.duration,question2.started,question2.stopped,question_doingbest.response,question_doingbest.rt,enter_15.keys,enter_15.rt,enter_15.duration,pattern.started,pattern.stopped,pattern_2.text,enter_17.keys,enter_17.rt,enter_17.duration,thankyou.started,thankyou.stopped,enter_14.keys,enter_14.rt,enter_14.duration
0.0001,11.1562,return,11.1434,,SPR24_042,20,male,2024-04-11_17h02.41.271,jersey_experiment_5_v0,2023.2.2,Win32,85.47008547,,,,,,,,,,,,,,,,,,,,,,,,,,,,,,,,,,,,,,,,,,,,,,,,,,,,,,,,,,,,,,,,,,,,,,,,,,,,,,
,,,,,SPR24_042,20,male,2024-04-11_17h02.41.271,jersey_experiment_5_v0,2023.2.2,Win32,85.47008547,11.1564,23.4272,return,12.2588,,,,,,,,,,,,,,,,,,,,,,,,,,,,,,,,,,,,,,,,,,,,,,,,,,,,,,,,,,,,,,,,,,,,,,,,,,
,,,,,SPR24_042,20,male,2024-04-11_17h02.41.271,jersey_experiment_5_v0,2023.2.2,Win32,85.47008547,,,,,,23.4273,35.8277,return,12.3665,,,,,,,,,,,,,,,,,,,,,,,,,,,,,,,,,,,,,,,,,,,,,,,,,,,,,,,,,,,,,,,,,,,,,
,,,,,SPR24_042,20,male,2024-04-11_17h02.41.271,jersey_experiment_5_v0,2023.2.2,Win32,85.47008547,,,,,,,,,,,35.8277,60.8992,return,25.0582,,,,,,,,,,,,,,,,,,,,,,,,,,,,,,,,,,,,,,,,,,,,,,,,,,,,,,,,,,,,,,,,
,,,,,SPR24_042,20,male,2024-04-11_17h02.41.271,jersey_experiment_5_v0,2023.2.2,Win32,85.47008547,,,,,,,,,,,,,,,,60.9018,61.9459,61.9459,77.617,return,7.5669,,75,0,0,0,28,1,FBP-YG-19.png,0.43,1.2,29,0.25,,,,,,,,,,,,,,,,,,,,,,,,,,,,,,,,,,,,,,,,,,,,,
,,,,,SPR24_042,20,male,2024-04-11_17h02.41.271,jersey_experiment_5_v0,2023.2.2,Win32,85.47008547,,,,,,,,,,,,,,,,77.622,78.664,78.664,92.6765,return,4.0704,,24.21875,0,1,1,22,1,FBP-YG-18.png,0.4,1.2,23,0.25,,,,,,,,,,,,,,,,,,,,,,,,,,,,,,,,,,,,,,,,,,,,,
,,,,,SPR24_042,20,male,2024-04-11_17h02.41.271,jersey_experiment_5_v0,2023.2.2,Win32,85.47008547,,,,,,,,,,,,,,,,92.681,93.7234,93.7234,102.6179,return,2.5252,,75.65104167,0,2,2,27,1,FBP-YG-19.png,0.4,1.2,28,0.25,,,,,,,,,,,,,,,,,,,,,,,,,,,,,,,,,,,,,,,,,,,,,
,,,,,SPR24_042,20,male,2024-04-11_17h02.41.271,jersey_experiment_5_v0,2023.2.2,Win32,85.47008547,,,,,,,,,,,,,,,,102.6223,103.665,103.665,112.1948,return,5.2946,,73.95833333,0,3,3,52,1,FBP-PT-18.png,0.4,1.2,53,0.25,,,,,,,,,,,,,,,,,,,,,,,,,,,,,,,,,,,,,,,,,,,,,
,,,,,SPR24_042,20,male,2024-04-11_17h02.41.271,jersey_experiment_5_v0,2023.2.2,Win32,85.47008547,,,,,,,,,,,,,,,,112.199,113.5006,113.5006,121.7478,return,4.763,,74.73958333,0,4,4,38,1,FBP-RB-18.png,0.43,1.2,39,0.5,,,,,,,,,,,,,,,,,,,,,,,,,,,,,,,,,,,,,,,,,,,,,
,,,,,SPR24_042,20,male,2024-04-11_17h02.41.271,jersey_experiment_5_v0,2023.2.2,Win32,85.47008547,,,,,,,,,,,,,,,,121.7538,123.0539,123.0539,129.5954,return,4.5689,,25.390625,0,5,5,11,1,FBP-OG-91.png,0.37,1.2,12,0.5,,,,,,,,,,,,,,,,,,,,,,,,,,,,,,,,,,,,,,,,,,,,,
,,,,,SPR24_042,20,male,2024-04-11_17h02.41.271,jersey_experiment_5_v0,2023.2.2,Win32,85.47008547,,,,,,,,,,,,,,,,129.5995,130.9011,130.9011,142.8193,return,10.4152,,25.13020833,0,6,6,5,1,FBP-OG-81.png,0.35,1.2,6,0.5,,,,,,,,,,,,,,,,,,,,,,,,,,,,,,,,,,,,,,,,,,,,,
,,,,,SPR24_042,20,male,2024-04-11_17h02.41.271,jersey_experiment_5_v0,2023.2.2,Win32,85.47008547,,,,,,,,,,,,,,,,142.8236,143.8664,143.8665,148.6078,return,3.153,,25.13020833,0,7,7,25,1,FBP-YG-19.png,0.35,1.2,26,0.25,,,,,,,,,,,,,,,,,,,,,,,,,,,,,,,,,,,,,,,,,,,,,
,,,,,SPR24_042,20,male,2024-04-11_17h02.41.271,jersey_experiment_5_v0,2023.2.2,Win32,85.47008547,,,,,,,,,,,,,,,,148.6079,149.902,149.902,157.055,return,4.4707,,31.51041667,0,8,8,6,1,FBP-OG-81.png,0.37,1.2,7,0.5,,,,,,,,,,,,,,,,,,,,,,,,,,,,,,,,,,,,,,,,,,,,,
,,,,,SPR24_042,20,male,2024-04-11_17h02.41.271,jersey_experiment_5_v0,2023.2.2,Win32,85.47008547,,,,,,,,,,,,,,,,157.0593,158.1021,158.1021,169.4908,return,7.9532,,49.47916667,0,9,9,26,1,FBP-YG-19.png,0.37,1.2,27,0.25,,,,,,,,,,,,,,,,,,,,,,,,,,,,,,,,,,,,,,,,,,,,,
,,,,,SPR24_042,20,male,2024-04-11_17h02.41.271,jersey_experiment_5_v0,2023.2.2,Win32,85.47008547,,,,,,,,,,,,,,,,169.4956,170.7967,170.7968,175.6439,return,2.3803,,97.39583333,0,10,10,9,1,FBP-OG-81.png,0.45,1.2,10,0.5,,,,,,,,,,,,,,,,,,,,,,,,,,,,,,,,,,,,,,,,,,,,,
,,,,,SPR24_042,20,male,2024-04-11_17h02.41.271,jersey_experiment_5_v0,2023.2.2,Win32,85.47008547,,,,,,,,,,,,,,,,175.6486,176.691,176.691,182.9149,return,4.0368,,83.984375,0,11,11,58,1,FBP-PT-19.png,0.43,1.2,59,0.25,,,,,,,,,,,,,,,,,,,,,,,,,,,,,,,,,,,,,,,,,,,,,
,,,,,SPR24_042,20,male,2024-04-11_17h02.41.271,jersey_experiment_5_v0,2023.2.2,Win32,85.47008547,,,,,,,,,,,,,,,,182.915,183.9619,183.962,187.3855,return,1.1728,,19.53125,0,12,12,15,1,FBP-YG-17.png,0.35,1.2,16,0.25,,,,,,,,,,,,,,,,,,,,,,,,,,,,,,,,,,,,,,,,,,,,,
,,,,,SPR24_042,20,male,2024-04-11_17h02.41.271,jersey_experiment_5_v0,2023.2.2,Win32,85.47008547,,,,,,,,,,,,,,,,187.3858,188.4327,188.4327,192.5268,return,2.2617,,37.23958333,0,13,13,46,1,FBP-PT-17.png,0.37,1.2,47,0.25,,,,,,,,,,,,,,,,,,,,,,,,,,,,,,,,,,,,,,,,,,,,,
,,,,,SPR24_042,20,male,2024-04-11_17h02.41.271,jersey_experiment_5_v0,2023.2.2,Win32,85.47008547,,,,,,,,,,,,,,,,192.5271,193.821,193.8211,196.4449,return,0.8873,,79.16666667,0,14,14,43,1,FBP-RB-19.png,0.43,1.2,44,0.5,,,,,,,,,,,,,,,,,,,,,,,,,,,,,,,,,,,,,,,,,,,,,
,,,,,SPR24_042,20,male,2024-04-11_17h02.41.271,jersey_experiment_5_v0,2023.2.2,Win32,85.47008547,,,,,,,,,,,,,,,,196.4451,197.7389,197.7389,205.7626,return,5.3323,,21.484375,0,15,15,30,1,FBP-RB-17.png,0.35,1.2,31,0.5,,,,,,,,,,,,,,,,,,,,,,,,,,,,,,,,,,,,,,,,,,,,,
,,,,,SPR24_042,20,male,2024-04-11_17h02.41.271,jersey_experiment_5_v0,2023.2.2,Win32,85.47008547,,,,,,,,,,,,,,,,205.7669,207.0686,207.0686,210.8806,return,2.2839,,27.734375,0,16,16,41,1,FBP-RB-19.png,0.37,1.2,42,0.5,,,,,,,,,,,,,,,,,,,,,,,,,,,,,,,,,,,,,,,,,,,,,
,,,,,SPR24_042,20,male,2024-04-11_17h02.41.271,jersey_experiment_5_v0,2023.2.2,Win32,85.47008547,,,,,,,,,,,,,,,,210.8808,212.1745,212.1745,221.681,return,6.2126,,31.51041667,0,17,17,31,1,FBP-RB-17.png,0.37,1.2,32,0.5,,,,,,,,,,,,,,,,,,,,,,,,,,,,,,,,,,,,,,,,,,,,,
,,,,,SPR24_042,20,male,2024-04-11_17h02.41.271,jersey_experiment_5_v0,2023.2.2,Win32,85.47008547,,,,,,,,,,,,,,,,221.6861,222.728,222.7281,230.8812,return,4.6828,,20.44270833,0,18,18,55,1,FBP-PT-19.png,0.35,1.2,56,0.25,,,,,,,,,,,,,,,,,,,,,,,,,,,,,,,,,,,,,,,,,,,,,
,,,,,SPR24_042,20,male,2024-04-11_17h02.41.271,jersey_experiment_5_v0,2023.2.2,Win32,85.47008547,,,,,,,,,,,,,,,,230.8855,232.1873,232.1873,234.5639,return,0.8947,,24.73958333,0,19,19,10,1,FBP-OG-91.png,0.35,1.2,11,0.5,,,,,,,,,,,,,,,,,,,,,,,,,,,,,,,,,,,,,,,,,,,,,
,,,,,SPR24_042,20,male,2024-04-11_17h02.41.271,jersey_experiment_5_v0,2023.2.2,Win32,85.47008547,,,,,,,,,,,,,,,,234.5642,235.6108,235.6109,238.5757,return,1.2963,,100,0,20,20,19,1,FBP-YG-17.png,0.45,1.2,20,0.25,,,,,,,,,,,,,,,,,,,,,,,,,,,,,,,,,,,,,,,,,,,,,
,,,,,SPR24_042,20,male,2024-04-11_17h02.41.271,jersey_experiment_5_v0,2023.2.2,Win32,85.47008547,,,,,,,,,,,,,,,,238.5759,239.6228,239.6228,241.6816,return,0.7402,,87.63020833,0,21,21,18,1,FBP-YG-17.png,0.43,1.2,19,0.25,,,,,,,,,,,,,,,,,,,,,,,,,,,,,,,,,,,,,,,,,,,,,
,,,,,SPR24_042,20,male,2024-04-11_17h02.41.271,jersey_experiment_5_v0,2023.2.2,Win32,85.47008547,,,,,,,,,,,,,,,,241.6819,242.9758,242.9758,246.1877,return,1.2987,,49.08854167,0,22,22,35,1,FBP-RB-18.png,0.35,1.2,36,0.5,,,,,,,,,,,,,,,,,,,,,,,,,,,,,,,,,,,,,,,,,,,,,
,,,,,SPR24_042,20,male,2024-04-11_17h02.41.271,jersey_experiment_5_v0,2023.2.2,Win32,85.47008547,,,,,,,,,,,,,,,,246.188,247.2347,247.2348,253.282,return,3.0594,,49.34895833,0,23,23,21,1,FBP-YG-18.png,0.37,1.2,22,0.25,,,,,,,,,,,,,,,,,,,,,,,,,,,,,,,,,,,,,,,,,,,,,
,,,,,SPR24_042,20,male,2024-04-11_17h02.41.271,jersey_experiment_5_v0,2023.2.2,Win32,85.47008547,,,,,,,,,,,,,,,,253.2822,254.3292,254.3293,258.9058,return,1.736,,100,0,24,24,24,1,FBP-YG-18.png,0.45,1.2,25,0.25,,,,,,,,,,,,,,,,,,,,,,,,,,,,,,,,,,,,,,,,,,,,,
,,,,,SPR24_042,20,male,2024-04-11_17h02.41.271,jersey_experiment_5_v0,2023.2.2,Win32,85.47008547,,,,,,,,,,,,,,,,258.9059,259.9529,259.953,264.0589,return,1.8891,,99.609375,0,25,25,48,1,FBP-PT-17.png,0.43,1.2,49,0.25,,,,,,,,,,,,,,,,,,,,,,,,,,,,,,,,,,,,,,,,,,,,,
,,,,,SPR24_042,20,male,2024-04-11_17h02.41.271,jersey_experiment_5_v0,2023.2.2,Win32,85.47008547,,,,,,,,,,,,,,,,264.0591,265.3531,265.3531,268.7178,return,1.745,,99.21875,0,26,26,39,1,FBP-RB-18.png,0.45,1.2,40,0.5,,,,,,,,,,,,,,,,,,,,,,,,,,,,,,,,,,,,,,,,,,,,,
,,,,,SPR24_042,20,male,2024-04-11_17h02.41.271,jersey_experiment_5_v0,2023.2.2,Win32,85.47008547,,,,,,,,,,,,,,,,268.718,269.765,269.7651,273.1535,return,1.0368,,9.895833333,0,27,27,50,1,FBP-PT-18.png,0.35,1.2,51,0.25,,,,,,,,,,,,,,,,,,,,,,,,,,,,,,,,,,,,,,,,,,,,,
,,,,,SPR24_042,20,male,2024-04-11_17h02.41.271,jersey_experiment_5_v0,2023.2.2,Win32,85.47008547,,,,,,,,,,,,,,,,273.1537,274.4476,274.4476,278.9301,return,1.8923,,67.70833333,0,28,28,12,1,FBP-OG-91.png,0.4,1.2,13,0.5,,,,,,,,,,,,,,,,,,,,,,,,,,,,,,,,,,,,,,,,,,,,,
,,,,,SPR24_042,20,male,2024-04-11_17h02.41.271,jersey_experiment_5_v0,2023.2.2,Win32,85.47008547,,,,,,,,,,,,,,,,278.9303,279.9771,279.9771,283.2361,return,0.7628,,99.73958333,0,29,29,54,1,FBP-PT-18.png,0.45,1.2,55,0.25,,,,,,,,,,,,,,,,,,,,,,,,,,,,,,,,,,,,,,,,,,,,,
,,,,,SPR24_042,20,male,2024-04-11_17h02.41.271,jersey_experiment_5_v0,2023.2.2,Win32,85.47008547,,,,,,,,,,,,,,,,283.2363,284.5302,284.5302,297.872,return,11.767,,4.947916667,0,30,30,40,1,FBP-RB-19.png,0.35,1.2,41,0.5,,,,,,,,,,,,,,,,,,,,,,,,,,,,,,,,,,,,,,,,,,,,,
,,,,,SPR24_042,20,male,2024-04-11_17h02.41.271,jersey_experiment_5_v0,2023.2.2,Win32,85.47008547,,,,,,,,,,,,,,,,297.8769,299.1778,299.1779,309.5548,return,8.0248,,96.09375,0,31,31,44,1,FBP-RB-19.png,0.45,1.2,45,0.5,,,,,,,,,,,,,,,,,,,,,,,,,,,,,,,,,,,,,,,,,,,,,
,,,,,SPR24_042,20,male,2024-04-11_17h02.41.271,jersey_experiment_5_v0,2023.2.2,Win32,85.47008547,,,,,,,,,,,,,,,,309.5594,310.6018,310.6018,314.3784,return,1.8071,,3.255208333,0,32,32,45,1,FBP-PT-17.png,0.35,1.2,46,0.25,,,,,,,,,,,,,,,,,,,,,,,,,,,,,,,,,,,,,,,,,,,,,
,,,,,SPR24_042,20,male,2024-04-11_17h02.41.271,jersey_experiment_5_v0,2023.2.2,Win32,85.47008547,,,,,,,,,,,,,,,,314.3786,315.6726,315.6726,320.0963,return,2.729,,92.44791667,0,33,33,4,1,FBP-OG-71.png,0.45,1.2,5,0.5,,,,,,,,,,,,,,,,,,,,,,,,,,,,,,,,,,,,,,,,,,,,,
,,,,,SPR24_042,20,male,2024-04-11_17h02.41.271,jersey_experiment_5_v0,2023.2.2,Win32,85.47008547,,,,,,,,,,,,,,,,320.0965,321.1433,321.1434,325.4845,return,2.3789,,74.34895833,0,34,34,17,1,FBP-YG-17.png,0.4,1.2,18,0.25,,,,,,,,,,,,,,,,,,,,,,,,,,,,,,,,,,,,,,,,,,,,,
,,,,,SPR24_042,20,male,2024-04-11_17h02.41.271,jersey_experiment_5_v0,2023.2.2,Win32,85.47008547,,,,,,,,,,,,,,,,325.4849,326.7788,326.7788,332.073,return,2.9142,,24.21875,0,35,35,0,1,FBP-OG-71.png,0.35,1.2,1,0.5,,,,,,,,,,,,,,,,,,,,,,,,,,,,,,,,,,,,,,,,,,,,,
,,,,,SPR24_042,20,male,2024-04-11_17h02.41.271,jersey_experiment_5_v0,2023.2.2,Win32,85.47008547,,,,,,,,,,,,,,,,332.0733,333.1202,333.1202,335.885,return,1.0515,,63.93229167,0,36,36,57,1,FBP-PT-19.png,0.4,1.2,58,0.25,,,,,,,,,,,,,,,,,,,,,,,,,,,,,,,,,,,,,,,,,,,,,
,,,,,SPR24_042,20,male,2024-04-11_17h02.41.271,jersey_experiment_5_v0,2023.2.2,Win32,85.47008547,,,,,,,,,,,,,,,,335.8851,336.9321,336.9321,342.8501,return,1.8355,,64.32291667,0,37,37,51,1,FBP-PT-18.png,0.37,1.2,52,0.25,,,,,,,,,,,,,,,,,,,,,,,,,,,,,,,,,,,,,,,,,,,,,
,,,,,SPR24_042,20,male,2024-04-11_17h02.41.271,jersey_experiment_5_v0,2023.2.2,Win32,85.47008547,,,,,,,,,,,,,,,,342.8503,344.1441,344.1441,347.6148,return,1.1791,,68.359375,0,38,38,2,1,FBP-OG-71.png,0.4,1.2,3,0.5,,,,,,,,,,,,,,,,,,,,,,,,,,,,,,,,,,,,,,,,,,,,,
,,,,,SPR24_042,20,male,2024-04-11_17h02.41.271,jersey_experiment_5_v0,2023.2.2,Win32,85.47008547,,,,,,,,,,,,,,,,347.615,348.662,348.662,353.8387,return,3.4134,,100,0,39,39,29,1,FBP-YG-19.png,0.45,1.2,30,0.25,,,,,,,,,,,,,,,,,,,,,,,,,,,,,,,,,,,,,,,,,,,,,
,,,,,SPR24_042,20,male,2024-04-11_17h02.41.271,jersey_experiment_5_v0,2023.2.2,Win32,85.47008547,,,,,,,,,,,,,,,,353.843,354.8857,354.8857,359.2034,return,2.5888,,91.796875,0,40,40,23,1,FBP-YG-18.png,0.43,1.2,24,0.25,,,,,,,,,,,,,,,,,,,,,,,,,,,,,,,,,,,,,,,,,,,,,
,,,,,SPR24_042,20,male,2024-04-11_17h02.41.271,jersey_experiment_5_v0,2023.2.2,Win32,85.47008547,,,,,,,,,,,,,,,,359.2036,360.2506,360.2506,365.1448,return,0.7955,,18.75,0,41,41,16,1,FBP-YG-17.png,0.37,1.2,17,0.25,,,,,,,,,,,,,,,,,,,,,,,,,,,,,,,,,,,,,,,,,,,,,
,,,,,SPR24_042,20,male,2024-04-11_17h02.41.271,jersey_experiment_5_v0,2023.2.2,Win32,85.47008547,,,,,,,,,,,,,,,,365.1451,366.1919,366.192,370.9686,return,2.7367,,83.203125,0,42,42,59,1,FBP-PT-19.png,0.45,1.2,60,0.25,,,,,,,,,,,,,,,,,,,,,,,,,,,,,,,,,,,,,,,,,,,,,
,,,,,SPR24_042,20,male,2024-04-11_17h02.41.271,jersey_experiment_5_v0,2023.2.2,Win32,85.47008547,,,,,,,,,,,,,,,,370.9688,372.2628,372.2629,379.4984,return,0.7703,,84.63541667,0,43,43,34,1,FBP-RB-17.png,0.45,1.2,35,0.5,,,,,,,,,,,,,,,,,,,,,,,,,,,,,,,,,,,,,,,,,,,,,
,,,,,SPR24_042,20,male,2024-04-11_17h02.41.271,jersey_experiment_5_v0,2023.2.2,Win32,85.47008547,,,,,,,,,,,,,,,,379.4986,380.5455,380.5457,394.2518,return,1.5819,,50.26041667,0,44,44,20,1,FBP-YG-18.png,0.35,1.2,21,0.25,,,,,,,,,,,,,,,,,,,,,,,,,,,,,,,,,,,,,,,,,,,,,
,,,,,SPR24_042,20,male,2024-04-11_17h02.41.271,jersey_experiment_5_v0,2023.2.2,Win32,85.47008547,,,,,,,,,,,,,,,,394.252,395.5458,395.5459,398.3226,return,0.7404,,74.34895833,0,45,45,36,1,FBP-RB-18.png,0.37,1.2,37,0.5,,,,,,,,,,,,,,,,,,,,,,,,,,,,,,,,,,,,,,,,,,,,,
,,,,,SPR24_042,20,male,2024-04-11_17h02.41.271,jersey_experiment_5_v0,2023.2.2,Win32,85.47008547,,,,,,,,,,,,,,,,398.3229,399.3697,399.3697,403.4168,return,1.8089,,38.15104167,0,46,46,56,1,FBP-PT-19.png,0.37,1.2,57,0.25,,,,,,,,,,,,,,,,,,,,,,,,,,,,,,,,,,,,,,,,,,,,,
,,,,,SPR24_042,20,male,2024-04-11_17h02.41.271,jersey_experiment_5_v0,2023.2.2,Win32,85.47008547,,,,,,,,,,,,,,,,403.417,404.4639,404.4639,410.6407,return,3.7328,,88.28125,0,47,47,49,1,FBP-PT-17.png,0.45,1.2,50,0.25,,,,,,,,,,,,,,,,,,,,,,,,,,,,,,,,,,,,,,,,,,,,,
,,,,,SPR24_042,20,male,2024-04-11_17h02.41.271,jersey_experiment_5_v0,2023.2.2,Win32,85.47008547,,,,,,,,,,,,,,,,410.641,411.9347,411.9347,414.5232,return,0.7475,,99.609375,0,48,48,13,1,FBP-OG-91.png,0.43,1.2,14,0.5,,,,,,,,,,,,,,,,,,,,,,,,,,,,,,,,,,,,,,,,,,,,,
,,,,,SPR24_042,20,male,2024-04-11_17h02.41.271,jersey_experiment_5_v0,2023.2.2,Win32,85.47008547,,,,,,,,,,,,,,,,414.5234,415.8174,415.8174,418.5469,return,1.4356,,75.13020833,0,49,49,42,1,FBP-RB-19.png,0.4,1.2,43,0.5,,,,,,,,,,,,,,,,,,,,,,,,,,,,,,,,,,,,,,,,,,,,,
,,,,,SPR24_042,20,male,2024-04-11_17h02.41.271,jersey_experiment_5_v0,2023.2.2,Win32,85.47008547,,,,,,,,,,,,,,,,418.547,419.5939,419.594,424.1588,return,0.8591,,55.33854167,0,50,50,47,1,FBP-PT-17.png,0.4,1.2,48,0.25,,,,,,,,,,,,,,,,,,,,,,,,,,,,,,,,,,,,,,,,,,,,,
,,,,,SPR24_042,20,male,2024-04-11_17h02.41.271,jersey_experiment_5_v0,2023.2.2,Win32,85.47008547,,,,,,,,,,,,,,,,424.159,425.2059,425.2059,429.359,return,2.1535,,75.13020833,0,51,51,53,1,FBP-PT-18.png,0.43,1.2,54,0.25,,,,,,,,,,,,,,,,,,,,,,,,,,,,,,,,,,,,,,,,,,,,,
,,,,,SPR24_042,20,male,2024-04-11_17h02.41.271,jersey_experiment_5_v0,2023.2.2,Win32,85.47008547,,,,,,,,,,,,,,,,429.3591,430.653,430.653,433.9238,return,1.9872,,91.66666667,0,52,52,8,1,FBP-OG-81.png,0.43,1.2,9,0.5,,,,,,,,,,,,,,,,,,,,,,,,,,,,,,,,,,,,,,,,,,,,,
,,,,,SPR24_042,20,male,2024-04-11_17h02.41.271,jersey_experiment_5_v0,2023.2.2,Win32,85.47008547,,,,,,,,,,,,,,,,433.9241,435.2179,435.2179,445.9948,return,0.7697,,55.98958333,0,53,53,33,1,FBP-RB-17.png,0.43,1.2,34,0.5,,,,,,,,,,,,,,,,,,,,,,,,,,,,,,,,,,,,,,,,,,,,,
,,,,,SPR24_042,20,male,2024-04-11_17h02.41.271,jersey_experiment_5_v0,2023.2.2,Win32,85.47008547,,,,,,,,,,,,,,,,445.995,447.289,447.2891,452.5716,return,3.9708,,93.75,0,54,54,14,1,FBP-OG-91.png,0.45,1.2,15,0.5,,,,,,,,,,,,,,,,,,,,,,,,,,,,,,,,,,,,,,,,,,,,,
,,,,,SPR24_042,20,male,2024-04-11_17h02.41.271,jersey_experiment_5_v0,2023.2.2,Win32,85.47008547,,,,,,,,,,,,,,,,452.5718,453.8658,453.8658,457.3363,return,1.8546,,83.33333333,0,55,55,3,1,FBP-OG-71.png,0.43,1.2,4,0.5,,,,,,,,,,,,,,,,,,,,,,,,,,,,,,,,,,,,,,,,,,,,,
,,,,,SPR24_042,20,male,2024-04-11_17h02.41.271,jersey_experiment_5_v0,2023.2.2,Win32,85.47008547,,,,,,,,,,,,,,,,457.3365,458.6306,458.6306,466.878,return,4.6974,,57.03125,0,56,56,37,1,FBP-RB-18.png,0.4,1.2,38,0.5,,,,,,,,,,,,,,,,,,,,,,,,,,,,,,,,,,,,,,,,,,,,,
,,,,,SPR24_042,20,male,2024-04-11_17h02.41.271,jersey_experiment_5_v0,2023.2.2,Win32,85.47008547,,,,,,,,,,,,,,,,466.8823,468.1839,468.1839,470.9368,return,1.0073,,50.13020833,0,57,57,1,1,FBP-OG-71.png,0.37,1.2,2,0.5,,,,,,,,,,,,,,,,,,,,,,,,,,,,,,,,,,,,,,,,,,,,,
,,,,,SPR24_042,20,male,2024-04-11_17h02.41.271,jersey_experiment_5_v0,2023.2.2,Win32,85.47008547,,,,,,,,,,,,,,,,470.937,472.2311,472.2311,475.4195,return,1.7119,,54.81770833,0,58,58,32,1,FBP-RB-17.png,0.4,1.2,33,0.5,,,,,,,,,,,,,,,,,,,,,,,,,,,,,,,,,,,,,,,,,,,,,
,,,,,SPR24_042,20,male,2024-04-11_17h02.41.271,jersey_experiment_5_v0,2023.2.2,Win32,85.47008547,,,,,,,,,,,,,,,,475.4197,476.7137,476.7137,478.9843,return,0.6071,,56.90104167,0,59,59,7,1,FBP-OG-81.png,0.4,1.2,8,0.5,,,,,,,,,,,,,,,,,,,,,,,,,,,,,,,,,,,,,,,,,,,,,
,,,,,SPR24_042,20,male,2024-04-11_17h02.41.271,jersey_experiment_5_v0,2023.2.2,Win32,85.47008547,,,,,,,,,,,,,,,,478.9863,480.2785,480.2785,483.3257,return,1.9212,,30.72916667,,,,,,FBP-RB-91.png,0.35,1.2,41,0.5,0,0,0,40,1,,,,,,,,,,,,,,,,,,,,,,,,,,,,,,,,,,,,,,,,
,,,,,SPR24_042,20,male,2024-04-11_17h02.41.271,jersey_experiment_5_v0,2023.2.2,Win32,85.47008547,,,,,,,,,,,,,,,,483.326,484.3726,484.3727,486.3374,return,0.6029,,97.265625,,,,,,FBP-PT-91.png,0.45,1.2,60,0.25,0,1,1,59,1,,,,,,,,,,,,,,,,,,,,,,,,,,,,,,,,,,,,,,,,
,,,,,SPR24_042,20,male,2024-04-11_17h02.41.271,jersey_experiment_5_v0,2023.2.2,Win32,85.47008547,,,,,,,,,,,,,,,,486.3377,487.6317,487.6317,495.0554,return,2.8827,,15.234375,,,,,,FBP-OG-19.png,0.35,1.2,11,0.5,0,2,2,10,1,,,,,,,,,,,,,,,,,,,,,,,,,,,,,,,,,,,,,,,,
,,,,,SPR24_042,20,male,2024-04-11_17h02.41.271,jersey_experiment_5_v0,2023.2.2,Win32,85.47008547,,,,,,,,,,,,,,,,495.0557,496.3497,496.3497,499.2322,return,1.2377,,91.14583333,,,,,,FBP-RB-71.png,0.43,1.2,34,0.5,0,3,3,33,1,,,,,,,,,,,,,,,,,,,,,,,,,,,,,,,,,,,,,,,,
,,,,,SPR24_042,20,male,2024-04-11_17h02.41.271,jersey_experiment_5_v0,2023.2.2,Win32,85.47008547,,,,,,,,,,,,,,,,499.2324,500.2791,500.2792,501.6085,return,0.1851,,81.51041667,,,,,,FBP-PT-91.png,0.4,1.2,58,0.25,0,4,4,57,1,,,,,,,,,,,,,,,,,,,,,,,,,,,,,,,,,,,,,,,,
,,,,,SPR24_042,20,male,2024-04-11_17h02.41.271,jersey_experiment_5_v0,2023.2.2,Win32,85.47008547,,,,,,,,,,,,,,,,501.6087,502.6557,502.6557,503.9971,return,0.2736,,98.95833333,,,,,,FBP-YG-91.png,0.43,1.2,29,0.25,0,5,5,28,1,,,,,,,,,,,,,,,,,,,,,,,,,,,,,,,,,,,,,,,,
,,,,,SPR24_042,20,male,2024-04-11_17h02.41.271,jersey_experiment_5_v0,2023.2.2,Win32,85.47008547,,,,,,,,,,,,,,,,503.9974,505.291,505.291,506.2322,return,0.1363,,88.54166667,,,,,,FBP-RB-91.png,0.43,1.2,44,0.5,0,6,6,43,1,,,,,,,,,,,,,,,,,,,,,,,,,,,,,,,,,,,,,,,,
,,,,,SPR24_042,20,male,2024-04-11_17h02.41.271,jersey_experiment_5_v0,2023.2.2,Win32,85.47008547,,,,,,,,,,,,,,,,506.2324,507.2795,507.2795,509.103,return,0.154,,76.953125,,,,,,FBP-YG-81.png,0.37,1.2,22,0.25,0,7,7,21,1,,,,,,,,,,,,,,,,,,,,,,,,,,,,,,,,,,,,,,,,
,,,,,SPR24_042,20,male,2024-04-11_17h02.41.271,jersey_experiment_5_v0,2023.2.2,Win32,85.47008547,,,,,,,,,,,,,,,,509.1032,510.397,510.3971,513.3855,return,2.0873,,90.49479167,,,,,,FBP-RB-91.png,0.45,1.2,45,0.5,0,8,8,44,1,,,,,,,,,,,,,,,,,,,,,,,,,,,,,,,,,,,,,,,,
,,,,,SPR24_042,20,male,2024-04-11_17h02.41.271,jersey_experiment_5_v0,2023.2.2,Win32,85.47008547,,,,,,,,,,,,,,,,513.3858,514.4327,514.4327,515.5031,return,0.1902,,98.56770833,,,,,,FBP-PT-71.png,0.45,1.2,50,0.25,0,9,9,49,1,,,,,,,,,,,,,,,,,,,,,,,,,,,,,,,,,,,,,,,,
,,,,,SPR24_042,20,male,2024-04-11_17h02.41.271,jersey_experiment_5_v0,2023.2.2,Win32,85.47008547,,,,,,,,,,,,,,,,515.5034,516.7974,516.7974,518.8329,return,0.4369,,6.25,,,,,,FBP-RB-81.png,0.35,1.2,36,0.5,0,10,10,35,1,,,,,,,,,,,,,,,,,,,,,,,,,,,,,,,,,,,,,,,,
,,,,,SPR24_042,20,male,2024-04-11_17h02.41.271,jersey_experiment_5_v0,2023.2.2,Win32,85.47008547,,,,,,,,,,,,,,,,518.8331,520.1268,520.1269,522.7036,return,1.0604,,74.73958333,,,,,,FBP-OG-19.png,0.43,1.2,14,0.5,0,11,11,13,1,,,,,,,,,,,,,,,,,,,,,,,,,,,,,,,,,,,,,,,,
,,,,,SPR24_042,20,male,2024-04-11_17h02.41.271,jersey_experiment_5_v0,2023.2.2,Win32,85.47008547,,,,,,,,,,,,,,,,522.7038,523.7507,523.7507,528.1861,return,1.759,,24.609375,,,,,,FBP-PT-91.png,0.37,1.2,57,0.25,0,12,12,56,1,,,,,,,,,,,,,,,,,,,,,,,,,,,,,,,,,,,,,,,,
,,,,,SPR24_042,20,male,2024-04-11_17h02.41.271,jersey_experiment_5_v0,2023.2.2,Win32,85.47008547,,,,,,,,,,,,,,,,528.1864,529.2331,529.2332,532.3628,return,1.1578,,74.21875,,,,,,FBP-PT-71.png,0.4,1.2,48,0.25,0,13,13,47,1,,,,,,,,,,,,,,,,,,,,,,,,,,,,,,,,,,,,,,,,
,,,,,SPR24_042,20,male,2024-04-11_17h02.41.271,jersey_experiment_5_v0,2023.2.2,Win32,85.47008547,,,,,,,,,,,,,,,,532.363,533.4097,533.4098,536.6805,return,1.8435,,85.41666667,,,,,,FBP-YG-81.png,0.43,1.2,24,0.25,0,14,14,23,1,,,,,,,,,,,,,,,,,,,,,,,,,,,,,,,,,,,,,,,,
,,,,,SPR24_042,20,male,2024-04-11_17h02.41.271,jersey_experiment_5_v0,2023.2.2,Win32,85.47008547,,,,,,,,,,,,,,,,536.6807,537.9746,537.9746,539.5865,return,0.179,,75.78125,,,,,,FBP-RB-81.png,0.4,1.2,38,0.5,0,15,15,37,1,,,,,,,,,,,,,,,,,,,,,,,,,,,,,,,,,,,,,,,,
,,,,,SPR24_042,20,male,2024-04-11_17h02.41.271,jersey_experiment_5_v0,2023.2.2,Win32,85.47008547,,,,,,,,,,,,,,,,539.5867,540.6335,540.6336,545.6809,return,0.5312,,88.02083333,,,,,,FBP-YG-71.png,0.45,1.2,20,0.25,0,16,16,19,1,,,,,,,,,,,,,,,,,,,,,,,,,,,,,,,,,,,,,,,,
,,,,,SPR24_042,20,male,2024-04-11_17h02.41.271,jersey_experiment_5_v0,2023.2.2,Win32,85.47008547,,,,,,,,,,,,,,,,545.6811,546.7278,546.7278,548.975,return,0.0842,,15.49479167,,,,,,FBP-YG-81.png,0.35,1.2,21,0.25,0,17,17,20,1,,,,,,,,,,,,,,,,,,,,,,,,,,,,,,,,,,,,,,,,
,,,,,SPR24_042,20,male,2024-04-11_17h02.41.271,jersey_experiment_5_v0,2023.2.2,Win32,85.47008547,,,,,,,,,,,,,,,,548.9752,550.2692,550.2692,553.9046,return,0.1415,,49.86979167,,,,,,FBP-OG-17.png,0.37,1.2,2,0.5,0,18,18,1,1,,,,,,,,,,,,,,,,,,,,,,,,,,,,,,,,,,,,,,,,
,,,,,SPR24_042,20,male,2024-04-11_17h02.41.271,jersey_experiment_5_v0,2023.2.2,Win32,85.47008547,,,,,,,,,,,,,,,,553.9047,554.9517,554.9517,556.4578,return,0.0665,,4.296875,,,,,,FBP-PT-71.png,0.35,1.2,46,0.25,0,19,19,45,1,,,,,,,,,,,,,,,,,,,,,,,,,,,,,,,,,,,,,,,,
,,,,,SPR24_042,20,male,2024-04-11_17h02.41.271,jersey_experiment_5_v0,2023.2.2,Win32,85.47008547,,,,,,,,,,,,,,,,556.458,557.7518,557.7519,558.6343,return,0.1717,,16.40625,,,,,,FBP-OG-18.png,0.37,1.2,7,0.5,0,20,20,6,1,,,,,,,,,,,,,,,,,,,,,,,,,,,,,,,,,,,,,,,,
,,,,,SPR24_042,20,male,2024-04-11_17h02.41.271,jersey_experiment_5_v0,2023.2.2,Win32,85.47008547,,,,,,,,,,,,,,,,558.6345,559.9284,559.9284,561.2578,return,0.5001,,18.359375,,,,,,FBP-OG-19.png,0.37,1.2,12,0.5,0,21,21,11,1,,,,,,,,,,,,,,,,,,,,,,,,,,,,,,,,,,,,,,,,
,,,,,SPR24_042,20,male,2024-04-11_17h02.41.271,jersey_experiment_5_v0,2023.2.2,Win32,85.47008547,,,,,,,,,,,,,,,,561.258,562.552,562.552,564.3168,return,0.0971,,87.36979167,,,,,,FBP-OG-19.png,0.45,1.2,15,0.5,0,22,22,14,1,,,,,,,,,,,,,,,,,,,,,,,,,,,,,,,,,,,,,,,,
,,,,,SPR24_042,20,male,2024-04-11_17h02.41.271,jersey_experiment_5_v0,2023.2.2,Win32,85.47008547,,,,,,,,,,,,,,,,564.317,565.3638,565.3639,567.7404,return,0.0151,,90.625,,,,,,FBP-YG-81.png,0.4,1.2,23,0.25,0,23,23,22,1,,,,,,,,,,,,,,,,,,,,,,,,,,,,,,,,,,,,,,,,
,,,,,SPR24_042,20,male,2024-04-11_17h02.41.271,jersey_experiment_5_v0,2023.2.2,Win32,85.47008547,,,,,,,,,,,,,,,,567.7407,569.0346,569.0346,569.7523,return,0.091,,93.88020833,,,,,,FBP-RB-81.png,0.45,1.2,40,0.5,0,24,24,39,1,,,,,,,,,,,,,,,,,,,,,,,,,,,,,,,,,,,,,,,,
,,,,,SPR24_042,20,male,2024-04-11_17h02.41.271,jersey_experiment_5_v0,2023.2.2,Win32,85.47008547,,,,,,,,,,,,,,,,569.7525,571.0465,571.0465,571.6934,return,0.0843,,93.88020833,,,,,,FBP-OG-17.png,0.43,1.2,4,0.5,0,25,25,3,1,,,,,,,,,,,,,,,,,,,,,,,,,,,,,,,,,,,,,,,,
,,,,,SPR24_042,20,male,2024-04-11_17h02.41.271,jersey_experiment_5_v0,2023.2.2,Win32,85.47008547,,,,,,,,,,,,,,,,571.6936,572.7407,572.7408,574.1406,return,0.0855,,95.83333333,,,,,,FBP-YG-71.png,0.43,1.2,19,0.25,0,26,26,18,1,,,,,,,,,,,,,,,,,,,,,,,,,,,,,,,,,,,,,,,,
,,,,,SPR24_042,20,male,2024-04-11_17h02.41.271,jersey_experiment_5_v0,2023.2.2,Win32,85.47008547,,,,,,,,,,,,,,,,574.1409,575.4347,575.4348,575.9291,return,0.0315,,95.83333333,,,,,,FBP-OG-18.png,0.43,1.2,9,0.5,0,27,27,8,1,,,,,,,,,,,,,,,,,,,,,,,,,,,,,,,,,,,,,,,,
,,,,,SPR24_042,20,male,2024-04-11_17h02.41.271,jersey_experiment_5_v0,2023.2.2,Win32,85.47008547,,,,,,,,,,,,,,,,575.9293,577.2231,577.2231,579.1645,return,0.0504,,53.64583333,,,,,,FBP-RB-91.png,0.37,1.2,42,0.5,0,28,28,41,1,,,,,,,,,,,,,,,,,,,,,,,,,,,,,,,,,,,,,,,,
,,,,,SPR24_042,20,male,2024-04-11_17h02.41.271,jersey_experiment_5_v0,2023.2.2,Win32,85.47008547,,,,,,,,,,,,,,,,579.1647,580.4586,580.4586,581.6116,return,0.2856,,88.28125,,,,,,FBP-OG-17.png,0.45,1.2,5,0.5,0,29,29,4,1,,,,,,,,,,,,,,,,,,,,,,,,,,,,,,,,,,,,,,,,
,,,,,SPR24_042,20,male,2024-04-11_17h02.41.271,jersey_experiment_5_v0,2023.2.2,Win32,85.47008547,,,,,,,,,,,,,,,,581.6118,582.6585,582.6585,583.5293,return,0.0884,,88.28125,,,,,,FBP-PT-81.png,0.43,1.2,54,0.25,0,30,30,53,1,,,,,,,,,,,,,,,,,,,,,,,,,,,,,,,,,,,,,,,,
,,,,,SPR24_042,20,male,2024-04-11_17h02.41.271,jersey_experiment_5_v0,2023.2.2,Win32,85.47008547,,,,,,,,,,,,,,,,583.5295,584.5762,584.5762,588.4469,return,0.8355,,54.03645833,,,,,,FBP-PT-71.png,0.37,1.2,47,0.25,0,31,31,46,1,,,,,,,,,,,,,,,,,,,,,,,,,,,,,,,,,,,,,,,,
,,,,,SPR24_042,20,male,2024-04-11_17h02.41.271,jersey_experiment_5_v0,2023.2.2,Win32,85.47008547,,,,,,,,,,,,,,,,588.4471,589.7412,589.7412,591.0589,return,0.0239,,62.36979167,,,,,,FBP-OG-19.png,0.4,1.2,13,0.5,0,32,32,12,1,,,,,,,,,,,,,,,,,,,,,,,,,,,,,,,,,,,,,,,,
,,,,,SPR24_042,20,male,2024-04-11_17h02.41.271,jersey_experiment_5_v0,2023.2.2,Win32,85.47008547,,,,,,,,,,,,,,,,591.059,592.3529,592.3531,595.4708,return,0.8011,,43.61979167,,,,,,FBP-RB-71.png,0.35,1.2,31,0.5,0,33,33,30,1,,,,,,,,,,,,,,,,,,,,,,,,,,,,,,,,,,,,,,,,
,,,,,SPR24_042,20,male,2024-04-11_17h02.41.271,jersey_experiment_5_v0,2023.2.2,Win32,85.47008547,,,,,,,,,,,,,,,,595.4711,596.765,596.765,598.2239,return,0.636,,59.375,,,,,,FBP-OG-17.png,0.4,1.2,3,0.5,0,34,34,2,1,,,,,,,,,,,,,,,,,,,,,,,,,,,,,,,,,,,,,,,,
,,,,,SPR24_042,20,male,2024-04-11_17h02.41.271,jersey_experiment_5_v0,2023.2.2,Win32,85.47008547,,,,,,,,,,,,,,,,598.2242,599.2709,599.2709,601.1064,return,0.0576,,59.375,,,,,,FBP-YG-71.png,0.37,1.2,17,0.25,0,35,35,16,1,,,,,,,,,,,,,,,,,,,,,,,,,,,,,,,,,,,,,,,,
,,,,,SPR24_042,20,male,2024-04-11_17h02.41.271,jersey_experiment_5_v0,2023.2.2,Win32,85.47008547,,,,,,,,,,,,,,,,601.1066,602.4003,602.4004,604.8125,return,0.4401,,59.375,,,,,,FBP-RB-91.png,0.4,1.2,43,0.5,0,36,36,42,1,,,,,,,,,,,,,,,,,,,,,,,,,,,,,,,,,,,,,,,,
,,,,,SPR24_042,20,male,2024-04-11_17h02.41.271,jersey_experiment_5_v0,2023.2.2,Win32,85.47008547,,,,,,,,,,,,,,,,604.8127,606.1064,606.1065,608.2242,return,0.9544,,74.86979167,,,,,,FBP-OG-18.png,0.45,1.2,10,0.5,0,37,37,9,1,,,,,,,,,,,,,,,,,,,,,,,,,,,,,,,,,,,,,,,,
,,,,,SPR24_042,20,male,2024-04-11_17h02.41.271,jersey_experiment_5_v0,2023.2.2,Win32,85.47008547,,,,,,,,,,,,,,,,608.2244,609.5184,609.5185,611.2242,return,0.0415,,77.21354167,,,,,,FBP-RB-71.png,0.4,1.2,33,0.5,0,38,38,32,1,,,,,,,,,,,,,,,,,,,,,,,,,,,,,,,,,,,,,,,,
,,,,,SPR24_042,20,male,2024-04-11_17h02.41.271,jersey_experiment_5_v0,2023.2.2,Win32,85.47008547,,,,,,,,,,,,,,,,611.2244,612.5184,612.5184,613.2009,return,0.0004,,77.34375,,,,,,FBP-OG-18.png,0.4,1.2,8,0.5,0,39,39,7,1,,,,,,,,,,,,,,,,,,,,,,,,,,,,,,,,,,,,,,,,
,,,,,SPR24_042,20,male,2024-04-11_17h02.41.271,jersey_experiment_5_v0,2023.2.2,Win32,85.47008547,,,,,,,,,,,,,,,,613.2011,614.248,614.248,616.1421,return,0.6014,,65.36458333,,,,,,FBP-YG-91.png,0.35,1.2,26,0.25,0,40,40,25,1,,,,,,,,,,,,,,,,,,,,,,,,,,,,,,,,,,,,,,,,
,,,,,SPR24_042,20,male,2024-04-11_17h02.41.271,jersey_experiment_5_v0,2023.2.2,Win32,85.47008547,,,,,,,,,,,,,,,,616.1423,617.1893,617.1893,618.0951,return,0.1064,,88.15104167,,,,,,FBP-PT-81.png,0.45,1.2,55,0.25,0,41,41,54,1,,,,,,,,,,,,,,,,,,,,,,,,,,,,,,,,,,,,,,,,
,,,,,SPR24_042,20,male,2024-04-11_17h02.41.271,jersey_experiment_5_v0,2023.2.2,Win32,85.47008547,,,,,,,,,,,,,,,,618.0953,619.1422,619.1422,620.5423,return,0.4499,,80.72916667,,,,,,FBP-YG-91.png,0.37,1.2,27,0.25,0,42,42,26,1,,,,,,,,,,,,,,,,,,,,,,,,,,,,,,,,,,,,,,,,
,,,,,SPR24_042,20,male,2024-04-11_17h02.41.271,jersey_experiment_5_v0,2023.2.2,Win32,85.47008547,,,,,,,,,,,,,,,,620.5425,621.8365,621.8365,624.0953,return,1.3063,,71.875,,,,,,FBP-RB-71.png,0.37,1.2,32,0.5,0,43,43,31,1,,,,,,,,,,,,,,,,,,,,,,,,,,,,,,,,,,,,,,,,
,,,,,SPR24_042,20,male,2024-04-11_17h02.41.271,jersey_experiment_5_v0,2023.2.2,Win32,85.47008547,,,,,,,,,,,,,,,,624.0956,625.1423,625.1424,626.0131,return,0.0863,,82.421875,,,,,,FBP-YG-91.png,0.4,1.2,28,0.25,0,44,44,27,1,,,,,,,,,,,,,,,,,,,,,,,,,,,,,,,,,,,,,,,,
,,,,,SPR24_042,20,male,2024-04-11_17h02.41.271,jersey_experiment_5_v0,2023.2.2,Win32,85.47008547,,,,,,,,,,,,,,,,626.0133,627.0602,627.0602,628.0248,return,0.1961,,82.421875,,,,,,FBP-YG-71.png,0.4,1.2,18,0.25,0,45,45,17,1,,,,,,,,,,,,,,,,,,,,,,,,,,,,,,,,,,,,,,,,
,,,,,SPR24_042,20,male,2024-04-11_17h02.41.271,jersey_experiment_5_v0,2023.2.2,Win32,85.47008547,,,,,,,,,,,,,,,,628.025,629.072,629.072,630.3779,return,0.0883,,59.765625,,,,,,FBP-PT-91.png,0.35,1.2,56,0.25,0,46,46,55,1,,,,,,,,,,,,,,,,,,,,,,,,,,,,,,,,,,,,,,,,
,,,,,SPR24_042,20,male,2024-04-11_17h02.41.271,jersey_experiment_5_v0,2023.2.2,Win32,85.47008547,,,,,,,,,,,,,,,,630.3782,631.4251,631.4251,632.2486,return,0.0201,,89.58333333,,,,,,FBP-YG-81.png,0.45,1.2,25,0.25,0,47,47,24,1,,,,,,,,,,,,,,,,,,,,,,,,,,,,,,,,,,,,,,,,
,,,,,SPR24_042,20,male,2024-04-11_17h02.41.271,jersey_experiment_5_v0,2023.2.2,Win32,85.47008547,,,,,,,,,,,,,,,,632.2488,633.2956,633.2957,634.2839,return,0.1461,,98.69791667,,,,,,FBP-PT-71.png,0.43,1.2,49,0.25,0,48,48,48,1,,,,,,,,,,,,,,,,,,,,,,,,,,,,,,,,,,,,,,,,
,,,,,SPR24_042,20,male,2024-04-11_17h02.41.271,jersey_experiment_5_v0,2023.2.2,Win32,85.47008547,,,,,,,,,,,,,,,,634.2841,635.331,635.3311,638.8135,return,0.4248,,55.72916667,,,,,,FBP-PT-81.png,0.35,1.2,51,0.25,0,49,49,50,1,,,,,,,,,,,,,,,,,,,,,,,,,,,,,,,,,,,,,,,,
,,,,,SPR24_042,20,male,2024-04-11_17h02.41.271,jersey_experiment_5_v0,2023.2.2,Win32,85.47008547,,,,,,,,,,,,,,,,638.8138,639.8605,639.8605,640.7312,return,0.0526,,44.53125,,,,,,FBP-PT-81.png,0.37,1.2,52,0.25,0,50,50,51,1,,,,,,,,,,,,,,,,,,,,,,,,,,,,,,,,,,,,,,,,
,,,,,SPR24_042,20,male,2024-04-11_17h02.41.271,jersey_experiment_5_v0,2023.2.2,Win32,85.47008547,,,,,,,,,,,,,,,,640.7314,641.7783,641.7784,642.9901,return,0.1764,,97.78645833,,,,,,FBP-PT-91.png,0.43,1.2,59,0.25,0,51,51,58,1,,,,,,,,,,,,,,,,,,,,,,,,,,,,,,,,,,,,,,,,
,,,,,SPR24_042,20,male,2024-04-11_17h02.41.271,jersey_experiment_5_v0,2023.2.2,Win32,85.47008547,,,,,,,,,,,,,,,,642.9904,644.0373,644.0374,644.7196,return,0.0838,,95.96354167,,,,,,FBP-YG-91.png,0.45,1.2,30,0.25,0,52,52,29,1,,,,,,,,,,,,,,,,,,,,,,,,,,,,,,,,,,,,,,,,
,,,,,SPR24_042,20,male,2024-04-11_17h02.41.271,jersey_experiment_5_v0,2023.2.2,Win32,85.47008547,,,,,,,,,,,,,,,,644.7198,645.7667,645.7667,647.1314,return,0.0752,,31.77083333,,,,,,FBP-YG-71.png,0.35,1.2,16,0.25,0,53,53,15,1,,,,,,,,,,,,,,,,,,,,,,,,,,,,,,,,,,,,,,,,
,,,,,SPR24_042,20,male,2024-04-11_17h02.41.271,jersey_experiment_5_v0,2023.2.2,Win32,85.47008547,,,,,,,,,,,,,,,,647.1316,648.4257,648.4257,649.4375,return,0.1213,,27.21354167,,,,,,FBP-RB-81.png,0.37,1.2,37,0.5,0,54,54,36,1,,,,,,,,,,,,,,,,,,,,,,,,,,,,,,,,,,,,,,,,
,,,,,SPR24_042,20,male,2024-04-11_17h02.41.271,jersey_experiment_5_v0,2023.2.2,Win32,85.47008547,,,,,,,,,,,,,,,,649.4377,650.7315,650.7316,651.8494,return,0.0528,,22.265625,,,,,,FBP-OG-18.png,0.35,1.2,6,0.5,0,55,55,5,1,,,,,,,,,,,,,,,,,,,,,,,,,,,,,,,,,,,,,,,,
,,,,,SPR24_042,20,male,2024-04-11_17h02.41.271,jersey_experiment_5_v0,2023.2.2,Win32,85.47008547,,,,,,,,,,,,,,,,651.8496,653.1435,653.1435,655.0258,return,0.0956,,93.88020833,,,,,,FBP-RB-71.png,0.45,1.2,35,0.5,0,56,56,34,1,,,,,,,,,,,,,,,,,,,,,,,,,,,,,,,,,,,,,,,,
,,,,,SPR24_042,20,male,2024-04-11_17h02.41.271,jersey_experiment_5_v0,2023.2.2,Win32,85.47008547,,,,,,,,,,,,,,,,655.0261,656.3201,656.3201,657.3907,return,0.1056,,4.296875,,,,,,FBP-OG-17.png,0.35,1.2,1,0.5,0,57,57,0,1,,,,,,,,,,,,,,,,,,,,,,,,,,,,,,,,,,,,,,,,
,,,,,SPR24_042,20,male,2024-04-11_17h02.41.271,jersey_experiment_5_v0,2023.2.2,Win32,85.47008547,,,,,,,,,,,,,,,,657.3909,658.4377,658.4378,659.5552,return,0.1275,,31.90104167,,,,,,FBP-PT-81.png,0.4,1.2,53,0.25,0,58,58,52,1,,,,,,,,,,,,,,,,,,,,,,,,,,,,,,,,,,,,,,,,
,,,,,SPR24_042,20,male,2024-04-11_17h02.41.271,jersey_experiment_5_v0,2023.2.2,Win32,85.47008547,,,,,,,,,,,,,,,,659.5554,660.8496,660.8496,662.3441,return,0.6092,,77.86458333,,,,,,FBP-RB-81.png,0.43,1.2,39,0.5,0,59,59,38,1,,,,,,,,,,,,,,,,,,,,,,,,,,,,,,,,,,,,,,,,
,,,,,SPR24_042,20,male,2024-04-11_17h02.41.271,jersey_experiment_5_v0,2023.2.2,Win32,85.47008547,,,,,,,,,,,,,,,,,,,,,,,,,,,,,,,,,,,,,,,662.3443,782.3364,,,,,,,,,,,,,,,,,,,,,,,,,,,,,,,,,,,,,,
,,,,,SPR24_042,20,male,2024-04-11_17h02.41.271,jersey_experiment_5_v0,2023.2.2,Win32,85.47008547,,,,,,,,,,,,,,,,,,,,,,,,,,,,,,,,,,,,,,,,,782.3365,784.5952,return,2.2457,,,,,,,,,,,,,,,,,,,,,,,,,,,,,,,,,,
,,,,,SPR24_042,20,male,2024-04-11_17h02.41.271,jersey_experiment_5_v0,2023.2.2,Win32,85.47008547,,,,,,,,,,,,,,,,784.6019,785.654,785.654,793.372,return,3.4969,,24.21875,,,,,,FBP-RB-18.png,0.37,1.2,37,0.25,,,,,,,,,,,,,0,0,0,36,1,,,,,,,,,,,,,,,,,,,,,,,,,,,,
,,,,,SPR24_042,20,male,2024-04-11_17h02.41.271,jersey_experiment_5_v0,2023.2.2,Win32,85.47008547,,,,,,,,,,,,,,,,793.3724,794.4191,794.4191,795.8426,return,0.2683,,21.484375,,,,,,FBP-RB-19.png,0.35,1.2,41,0.25,,,,,,,,,,,,,0,1,1,40,1,,,,,,,,,,,,,,,,,,,,,,,,,,,,
,,,,,SPR24_042,20,male,2024-04-11_17h02.41.271,jersey_experiment_5_v0,2023.2.2,Win32,85.47008547,,,,,,,,,,,,,,,,795.8428,796.8897,796.8897,798.4309,return,0.1295,,25.13020833,,,,,,FBP-RB-17.png,0.35,1.2,31,0.25,,,,,,,,,,,,,0,2,2,30,1,,,,,,,,,,,,,,,,,,,,,,,,,,,,
,,,,,SPR24_042,20,male,2024-04-11_17h02.41.271,jersey_experiment_5_v0,2023.2.2,Win32,85.47008547,,,,,,,,,,,,,,,,798.431,799.4781,799.4781,802.584,return,1.1029,,49.73958333,,,,,,FBP-OG-81.png,0.4,1.2,8,0.25,,,,,,,,,,,,,0,3,3,7,1,,,,,,,,,,,,,,,,,,,,,,,,,,,,
,,,,,SPR24_042,20,male,2024-04-11_17h02.41.271,jersey_experiment_5_v0,2023.2.2,Win32,85.47008547,,,,,,,,,,,,,,,,802.5842,803.6311,803.6311,805.7137,return,1.0493,,75.91145833,,,,,,FBP-OG-71.png,0.43,1.2,4,0.25,,,,,,,,,,,,,0,4,4,3,1,,,,,,,,,,,,,,,,,,,,,,,,,,,,
,,,,,SPR24_042,20,male,2024-04-11_17h02.41.271,jersey_experiment_5_v0,2023.2.2,Win32,85.47008547,,,,,,,,,,,,,,,,805.7139,806.7607,806.7607,807.5371,return,0.0797,,87.109375,,,,,,FBP-OG-71.png,0.45,1.2,5,0.25,,,,,,,,,,,,,0,5,5,4,1,,,,,,,,,,,,,,,,,,,,,,,,,,,,
,,,,,SPR24_042,20,male,2024-04-11_17h02.41.271,jersey_experiment_5_v0,2023.2.2,Win32,85.47008547,,,,,,,,,,,,,,,,807.5373,808.5843,808.5843,809.5843,return,0.0816,,71.09375,,,,,,FBP-OG-71.png,0.35,1.2,1,0.25,,,,,,,,,,,,,0,6,6,0,1,,,,,,,,,,,,,,,,,,,,,,,,,,,,
,,,,,SPR24_042,20,male,2024-04-11_17h02.41.271,jersey_experiment_5_v0,2023.2.2,Win32,85.47008547,,,,,,,,,,,,,,,,809.5845,810.8785,810.8785,812.0903,return,0.0521,,76.5625,,,,,,FBP-YG-19.png,0.4,1.2,28,0.5,,,,,,,,,,,,,0,7,7,27,1,,,,,,,,,,,,,,,,,,,,,,,,,,,,
,,,,,SPR24_042,20,male,2024-04-11_17h02.41.271,jersey_experiment_5_v0,2023.2.2,Win32,85.47008547,,,,,,,,,,,,,,,,812.0906,813.3845,813.3845,814.361,return,0.4181,,87.36979167,,,,,,FBP-PT-17.png,0.43,1.2,49,0.5,,,,,,,,,,,,,0,8,8,48,1,,,,,,,,,,,,,,,,,,,,,,,,,,,,
,,,,,SPR24_042,20,male,2024-04-11_17h02.41.271,jersey_experiment_5_v0,2023.2.2,Win32,85.47008547,,,,,,,,,,,,,,,,814.3612,815.4081,815.4082,816.2905,return,0.0709,,94.66145833,,,,,,FBP-RB-19.png,0.43,1.2,44,0.25,,,,,,,,,,,,,0,9,9,43,1,,,,,,,,,,,,,,,,,,,,,,,,,,,,
,,,,,SPR24_042,20,male,2024-04-11_17h02.41.271,jersey_experiment_5_v0,2023.2.2,Win32,85.47008547,,,,,,,,,,,,,,,,816.2906,817.3375,817.3375,818.3846,return,0.0099,,81.90104167,,,,,,FBP-OG-91.png,0.43,1.2,14,0.25,,,,,,,,,,,,,0,10,10,13,1,,,,,,,,,,,,,,,,,,,,,,,,,,,,
,,,,,SPR24_042,20,male,2024-04-11_17h02.41.271,jersey_experiment_5_v0,2023.2.2,Win32,85.47008547,,,,,,,,,,,,,,,,818.3848,819.6787,819.6788,820.4907,return,0.0177,,73.046875,,,,,,FBP-YG-17.png,0.37,1.2,17,0.5,,,,,,,,,,,,,0,11,11,16,1,,,,,,,,,,,,,,,,,,,,,,,,,,,,
,,,,,SPR24_042,20,male,2024-04-11_17h02.41.271,jersey_experiment_5_v0,2023.2.2,Win32,85.47008547,,,,,,,,,,,,,,,,820.4909,821.5377,821.5377,822.3847,return,0.034,,70.05208333,,,,,,FBP-OG-71.png,0.37,1.2,2,0.25,,,,,,,,,,,,,0,12,12,1,1,,,,,,,,,,,,,,,,,,,,,,,,,,,,
,,,,,SPR24_042,20,male,2024-04-11_17h02.41.271,jersey_experiment_5_v0,2023.2.2,Win32,85.47008547,,,,,,,,,,,,,,,,822.3849,823.6789,823.6789,824.4083,return,0.1496,,62.63020833,,,,,,FBP-YG-19.png,0.37,1.2,27,0.5,,,,,,,,,,,,,0,13,13,26,1,,,,,,,,,,,,,,,,,,,,,,,,,,,,
,,,,,SPR24_042,20,male,2024-04-11_17h02.41.271,jersey_experiment_5_v0,2023.2.2,Win32,85.47008547,,,,,,,,,,,,,,,,824.4085,825.7026,825.7026,826.6556,return,0.049,,71.484375,,,,,,FBP-YG-18.png,0.4,1.2,23,0.5,,,,,,,,,,,,,0,14,14,22,1,,,,,,,,,,,,,,,,,,,,,,,,,,,,
,,,,,SPR24_042,20,male,2024-04-11_17h02.41.271,jersey_experiment_5_v0,2023.2.2,Win32,85.47008547,,,,,,,,,,,,,,,,826.6558,827.9497,827.9498,829.1381,return,0.4946,,80.20833333,,,,,,FBP-YG-19.png,0.43,1.2,29,0.5,,,,,,,,,,,,,0,15,15,28,1,,,,,,,,,,,,,,,,,,,,,,,,,,,,
,,,,,SPR24_042,20,male,2024-04-11_17h02.41.271,jersey_experiment_5_v0,2023.2.2,Win32,85.47008547,,,,,,,,,,,,,,,,829.1383,830.4321,830.4321,831.3381,return,0.0514,,72.91666667,,,,,,FBP-PT-17.png,0.37,1.2,47,0.5,,,,,,,,,,,,,0,16,16,46,1,,,,,,,,,,,,,,,,,,,,,,,,,,,,
,,,,,SPR24_042,20,male,2024-04-11_17h02.41.271,jersey_experiment_5_v0,2023.2.2,Win32,85.47008547,,,,,,,,,,,,,,,,831.3382,832.6323,832.6323,833.7147,return,0.0457,,45.44270833,,,,,,FBP-YG-19.png,0.35,1.2,26,0.5,,,,,,,,,,,,,0,17,17,25,1,,,,,,,,,,,,,,,,,,,,,,,,,,,,
,,,,,SPR24_042,20,male,2024-04-11_17h02.41.271,jersey_experiment_5_v0,2023.2.2,Win32,85.47008547,,,,,,,,,,,,,,,,833.7149,835.0088,835.0089,836.1383,return,0.0275,,95.83333333,,,,,,FBP-PT-19.png,0.45,1.2,60,0.5,,,,,,,,,,,,,0,18,18,59,1,,,,,,,,,,,,,,,,,,,,,,,,,,,,
,,,,,SPR24_042,20,male,2024-04-11_17h02.41.271,jersey_experiment_5_v0,2023.2.2,Win32,85.47008547,,,,,,,,,,,,,,,,836.1385,837.4324,837.4324,838.2912,return,0.1284,,92.05729167,,,,,,FBP-PT-19.png,0.43,1.2,59,0.5,,,,,,,,,,,,,0,19,19,58,1,,,,,,,,,,,,,,,,,,,,,,,,,,,,
,,,,,SPR24_042,20,male,2024-04-11_17h02.41.271,jersey_experiment_5_v0,2023.2.2,Win32,85.47008547,,,,,,,,,,,,,,,,838.2914,839.3383,839.3384,840.162,return,0.0005,,86.58854167,,,,,,FBP-RB-19.png,0.4,1.2,43,0.25,,,,,,,,,,,,,0,20,20,42,1,,,,,,,,,,,,,,,,,,,,,,,,,,,,
,,,,,SPR24_042,20,male,2024-04-11_17h02.41.271,jersey_experiment_5_v0,2023.2.2,Win32,85.47008547,,,,,,,,,,,,,,,,840.1622,841.4561,841.4562,843.0326,return,0.0306,,44.66145833,,,,,,FBP-YG-18.png,0.35,1.2,21,0.5,,,,,,,,,,,,,0,21,21,20,1,,,,,,,,,,,,,,,,,,,,,,,,,,,,
,,,,,SPR24_042,20,male,2024-04-11_17h02.41.271,jersey_experiment_5_v0,2023.2.2,Win32,85.47008547,,,,,,,,,,,,,,,,843.0329,844.0796,844.0797,845.4209,return,0.0363,,72.13541667,,,,,,FBP-OG-71.png,0.4,1.2,3,0.25,,,,,,,,,,,,,0,22,22,2,1,,,,,,,,,,,,,,,,,,,,,,,,,,,,
,,,,,SPR24_042,20,male,2024-04-11_17h02.41.271,jersey_experiment_5_v0,2023.2.2,Win32,85.47008547,,,,,,,,,,,,,,,,845.4212,846.468,846.468,847.8093,return,0.0488,,57.8125,,,,,,FBP-RB-19.png,0.37,1.2,42,0.25,,,,,,,,,,,,,0,23,23,41,1,,,,,,,,,,,,,,,,,,,,,,,,,,,,
,,,,,SPR24_042,20,male,2024-04-11_17h02.41.271,jersey_experiment_5_v0,2023.2.2,Win32,85.47008547,,,,,,,,,,,,,,,,847.8095,849.1034,849.1034,850.3036,return,0.0237,,45.96354167,,,,,,FBP-PT-19.png,0.35,1.2,56,0.5,,,,,,,,,,,,,0,24,24,55,1,,,,,,,,,,,,,,,,,,,,,,,,,,,,
,,,,,SPR24_042,20,male,2024-04-11_17h02.41.271,jersey_experiment_5_v0,2023.2.2,Win32,85.47008547,,,,,,,,,,,,,,,,850.3038,851.5977,851.5978,852.9859,return,0.5231,,10.15625,,,,,,FBP-PT-17.png,0.35,1.2,46,0.5,,,,,,,,,,,,,0,25,25,45,1,,,,,,,,,,,,,,,,,,,,,,,,,,,,
,,,,,SPR24_042,20,male,2024-04-11_17h02.41.271,jersey_experiment_5_v0,2023.2.2,Win32,85.47008547,,,,,,,,,,,,,,,,852.9862,854.0329,854.033,854.7626,return,0.0295,,20.3125,,,,,,FBP-OG-91.png,0.35,1.2,11,0.25,,,,,,,,,,,,,0,26,26,10,1,,,,,,,,,,,,,,,,,,,,,,,,,,,,
,,,,,SPR24_042,20,male,2024-04-11_17h02.41.271,jersey_experiment_5_v0,2023.2.2,Win32,85.47008547,,,,,,,,,,,,,,,,854.7628,856.0565,856.0565,857.0685,return,0.0515,,87.63020833,,,,,,FBP-YG-17.png,0.45,1.2,20,0.5,,,,,,,,,,,,,0,27,27,19,1,,,,,,,,,,,,,,,,,,,,,,,,,,,,
,,,,,SPR24_042,20,male,2024-04-11_17h02.41.271,jersey_experiment_5_v0,2023.2.2,Win32,85.47008547,,,,,,,,,,,,,,,,857.0686,858.1156,858.1156,858.9036,return,0.0662,,91.14583333,,,,,,FBP-OG-81.png,0.43,1.2,9,0.25,,,,,,,,,,,,,0,28,28,8,1,,,,,,,,,,,,,,,,,,,,,,,,,,,,
,,,,,SPR24_042,20,male,2024-04-11_17h02.41.271,jersey_experiment_5_v0,2023.2.2,Win32,85.47008547,,,,,,,,,,,,,,,,858.9039,860.1979,860.198,862.5392,return,0.0508,,37.109375,,,,,,FBP-PT-18.png,0.35,1.2,51,0.5,,,,,,,,,,,,,0,29,29,50,1,,,,,,,,,,,,,,,,,,,,,,,,,,,,
,,,,,SPR24_042,20,male,2024-04-11_17h02.41.271,jersey_experiment_5_v0,2023.2.2,Win32,85.47008547,,,,,,,,,,,,,,,,862.5393,863.8334,863.8334,865.2923,return,0.5208,,89.58333333,,,,,,FBP-YG-18.png,0.45,1.2,25,0.5,,,,,,,,,,,,,0,30,30,24,1,,,,,,,,,,,,,,,,,,,,,,,,,,,,
,,,,,SPR24_042,20,male,2024-04-11_17h02.41.271,jersey_experiment_5_v0,2023.2.2,Win32,85.47008547,,,,,,,,,,,,,,,,865.2925,866.3392,866.3393,868.1276,return,0.2596,,61.71875,,,,,,FBP-OG-81.png,0.35,1.2,6,0.25,,,,,,,,,,,,,0,31,31,5,1,,,,,,,,,,,,,,,,,,,,,,,,,,,,
,,,,,SPR24_042,20,male,2024-04-11_17h02.41.271,jersey_experiment_5_v0,2023.2.2,Win32,85.47008547,,,,,,,,,,,,,,,,868.1278,869.4218,869.4218,870.1747,return,0.0019,,92.44791667,,,,,,FBP-YG-18.png,0.43,1.2,24,0.5,,,,,,,,,,,,,0,32,32,23,1,,,,,,,,,,,,,,,,,,,,,,,,,,,,
,,,,,SPR24_042,20,male,2024-04-11_17h02.41.271,jersey_experiment_5_v0,2023.2.2,Win32,85.47008547,,,,,,,,,,,,,,,,870.1748,871.4689,871.469,872.1748,return,0.2607,,90.36458333,,,,,,FBP-PT-18.png,0.45,1.2,55,0.5,,,,,,,,,,,,,0,33,33,54,1,,,,,,,,,,,,,,,,,,,,,,,,,,,,
,,,,,SPR24_042,20,male,2024-04-11_17h02.41.271,jersey_experiment_5_v0,2023.2.2,Win32,85.47008547,,,,,,,,,,,,,,,,872.1751,873.2218,873.2218,876.4102,return,0.0621,,69.140625,,,,,,FBP-OG-91.png,0.37,1.2,12,0.25,,,,,,,,,,,,,0,34,34,11,1,,,,,,,,,,,,,,,,,,,,,,,,,,,,
,,,,,SPR24_042,20,male,2024-04-11_17h02.41.271,jersey_experiment_5_v0,2023.2.2,Win32,85.47008547,,,,,,,,,,,,,,,,876.4104,877.7044,877.7044,878.6576,return,0.0841,,23.56770833,,,,,,FBP-PT-18.png,0.37,1.2,52,0.5,,,,,,,,,,,,,0,35,35,51,1,,,,,,,,,,,,,,,,,,,,,,,,,,,,
,,,,,SPR24_042,20,male,2024-04-11_17h02.41.271,jersey_experiment_5_v0,2023.2.2,Win32,85.47008547,,,,,,,,,,,,,,,,878.6579,879.9516,879.9516,881.0577,return,0.0142,,80.20833333,,,,,,FBP-YG-17.png,0.43,1.2,19,0.5,,,,,,,,,,,,,0,36,36,18,1,,,,,,,,,,,,,,,,,,,,,,,,,,,,
,,,,,SPR24_042,20,male,2024-04-11_17h02.41.271,jersey_experiment_5_v0,2023.2.2,Win32,85.47008547,,,,,,,,,,,,,,,,881.0579,882.3516,882.3517,883.5988,return,0.1545,,5.989583333,,,,,,FBP-YG-17.png,0.35,1.2,16,0.5,,,,,,,,,,,,,0,37,37,15,1,,,,,,,,,,,,,,,,,,,,,,,,,,,,
,,,,,SPR24_042,20,male,2024-04-11_17h02.41.271,jersey_experiment_5_v0,2023.2.2,Win32,85.47008547,,,,,,,,,,,,,,,,883.5991,884.6458,884.6458,886.5047,return,0.9018,,86.19791667,,,,,,FBP-RB-18.png,0.43,1.2,39,0.25,,,,,,,,,,,,,0,38,38,38,1,,,,,,,,,,,,,,,,,,,,,,,,,,,,
,,,,,SPR24_042,20,male,2024-04-11_17h02.41.271,jersey_experiment_5_v0,2023.2.2,Win32,85.47008547,,,,,,,,,,,,,,,,886.5049,887.5518,887.5518,889.3754,return,0.9748,,100,,,,,,FBP-OG-81.png,0.45,1.2,10,0.25,,,,,,,,,,,,,0,39,39,9,1,,,,,,,,,,,,,,,,,,,,,,,,,,,,
,,,,,SPR24_042,20,male,2024-04-11_17h02.41.271,jersey_experiment_5_v0,2023.2.2,Win32,85.47008547,,,,,,,,,,,,,,,,889.3756,890.6695,890.6696,891.5874,return,0.0233,,79.94791667,,,,,,FBP-PT-19.png,0.4,1.2,58,0.5,,,,,,,,,,,,,0,40,40,57,1,,,,,,,,,,,,,,,,,,,,,,,,,,,,
,,,,,SPR24_042,20,male,2024-04-11_17h02.41.271,jersey_experiment_5_v0,2023.2.2,Win32,85.47008547,,,,,,,,,,,,,,,,891.5877,892.8815,892.8816,893.5992,return,0.0133,,70.18229167,,,,,,FBP-PT-17.png,0.4,1.2,48,0.5,,,,,,,,,,,,,0,41,41,47,1,,,,,,,,,,,,,,,,,,,,,,,,,,,,
,,,,,SPR24_042,20,male,2024-04-11_17h02.41.271,jersey_experiment_5_v0,2023.2.2,Win32,85.47008547,,,,,,,,,,,,,,,,893.5995,894.6461,894.6461,895.258,return,0.0538,,84.11458333,,,,,,FBP-RB-19.png,0.45,1.2,45,0.25,,,,,,,,,,,,,0,42,42,44,1,,,,,,,,,,,,,,,,,,,,,,,,,,,,
,,,,,SPR24_042,20,male,2024-04-11_17h02.41.271,jersey_experiment_5_v0,2023.2.2,Win32,85.47008547,,,,,,,,,,,,,,,,895.2583,896.3049,896.305,897.1521,return,0.1074,,68.88020833,,,,,,FBP-OG-81.png,0.37,1.2,7,0.25,,,,,,,,,,,,,0,43,43,6,1,,,,,,,,,,,,,,,,,,,,,,,,,,,,
,,,,,SPR24_042,20,male,2024-04-11_17h02.41.271,jersey_experiment_5_v0,2023.2.2,Win32,85.47008547,,,,,,,,,,,,,,,,897.1523,898.1992,898.1993,899.3051,return,0.0416,,48.4375,,,,,,FBP-RB-17.png,0.37,1.2,32,0.25,,,,,,,,,,,,,0,44,44,31,1,,,,,,,,,,,,,,,,,,,,,,,,,,,,
,,,,,SPR24_042,20,male,2024-04-11_17h02.41.271,jersey_experiment_5_v0,2023.2.2,Win32,85.47008547,,,,,,,,,,,,,,,,899.3054,900.5993,900.5993,902.3759,return,0.044,,71.22395833,,,,,,FBP-PT-18.png,0.43,1.2,54,0.5,,,,,,,,,,,,,0,45,45,53,1,,,,,,,,,,,,,,,,,,,,,,,,,,,,
,,,,,SPR24_042,20,male,2024-04-11_17h02.41.271,jersey_experiment_5_v0,2023.2.2,Win32,85.47008547,,,,,,,,,,,,,,,,902.3761,903.6702,903.6703,905.9643,return,0.6263,,26.30208333,,,,,,FBP-YG-18.png,0.37,1.2,22,0.5,,,,,,,,,,,,,0,46,46,21,1,,,,,,,,,,,,,,,,,,,,,,,,,,,,
,,,,,SPR24_042,20,male,2024-04-11_17h02.41.271,jersey_experiment_5_v0,2023.2.2,Win32,85.47008547,,,,,,,,,,,,,,,,905.9646,907.0113,907.0114,908.8819,return,0.1413,,70.18229167,,,,,,FBP-RB-18.png,0.4,1.2,38,0.25,,,,,,,,,,,,,0,47,47,37,1,,,,,,,,,,,,,,,,,,,,,,,,,,,,
,,,,,SPR24_042,20,male,2024-04-11_17h02.41.271,jersey_experiment_5_v0,2023.2.2,Win32,85.47008547,,,,,,,,,,,,,,,,908.8822,909.9292,909.9292,912.6822,return,0.0183,,3.255208333,,,,,,FBP-RB-18.png,0.35,1.2,36,0.25,,,,,,,,,,,,,0,48,48,35,1,,,,,,,,,,,,,,,,,,,,,,,,,,,,
,,,,,SPR24_042,20,male,2024-04-11_17h02.41.271,jersey_experiment_5_v0,2023.2.2,Win32,85.47008547,,,,,,,,,,,,,,,,912.6824,913.7292,913.7293,915.1175,return,0.0028,,88.80208333,,,,,,FBP-RB-18.png,0.45,1.2,40,0.25,,,,,,,,,,,,,0,49,49,39,1,,,,,,,,,,,,,,,,,,,,,,,,,,,,
,,,,,SPR24_042,20,male,2024-04-11_17h02.41.271,jersey_experiment_5_v0,2023.2.2,Win32,85.47008547,,,,,,,,,,,,,,,,915.1177,916.1648,916.1648,917.953,return,0.1543,,99.34895833,,,,,,FBP-OG-91.png,0.45,1.2,15,0.25,,,,,,,,,,,,,0,50,50,14,1,,,,,,,,,,,,,,,,,,,,,,,,,,,,
,,,,,SPR24_042,20,male,2024-04-11_17h02.41.271,jersey_experiment_5_v0,2023.2.2,Win32,85.47008547,,,,,,,,,,,,,,,,917.9532,919.2471,919.2471,920.2707,return,0.4819,,92.96875,,,,,,FBP-YG-19.png,0.45,1.2,30,0.5,,,,,,,,,,,,,0,51,51,29,1,,,,,,,,,,,,,,,,,,,,,,,,,,,,
,,,,,SPR24_042,20,male,2024-04-11_17h02.41.271,jersey_experiment_5_v0,2023.2.2,Win32,85.47008547,,,,,,,,,,,,,,,,920.2709,921.3177,921.3178,922.1413,return,0.1089,,92.96875,,,,,,FBP-RB-17.png,0.45,1.2,35,0.25,,,,,,,,,,,,,0,52,52,34,1,,,,,,,,,,,,,,,,,,,,,,,,,,,,
,,,,,SPR24_042,20,male,2024-04-11_17h02.41.271,jersey_experiment_5_v0,2023.2.2,Win32,85.47008547,,,,,,,,,,,,,,,,922.1415,923.4355,923.4355,923.8475,return,0.0328,,92.96875,,,,,,FBP-PT-17.png,0.45,1.2,50,0.5,,,,,,,,,,,,,0,53,53,49,1,,,,,,,,,,,,,,,,,,,,,,,,,,,,
,,,,,SPR24_042,20,male,2024-04-11_17h02.41.271,jersey_experiment_5_v0,2023.2.2,Win32,85.47008547,,,,,,,,,,,,,,,,923.8477,924.8944,924.8944,925.6002,return,0.0464,,92.96875,,,,,,FBP-RB-17.png,0.43,1.2,34,0.25,,,,,,,,,,,,,0,54,54,33,1,,,,,,,,,,,,,,,,,,,,,,,,,,,,
,,,,,SPR24_042,20,male,2024-04-11_17h02.41.271,jersey_experiment_5_v0,2023.2.2,Win32,85.47008547,,,,,,,,,,,,,,,,925.6005,926.6474,926.6474,928.9769,return,0.4809,,67.70833333,,,,,,FBP-RB-17.png,0.4,1.2,33,0.25,,,,,,,,,,,,,0,55,55,32,1,,,,,,,,,,,,,,,,,,,,,,,,,,,,
,,,,,SPR24_042,20,male,2024-04-11_17h02.41.271,jersey_experiment_5_v0,2023.2.2,Win32,85.47008547,,,,,,,,,,,,,,,,928.977,930.2708,930.2709,932.6711,return,0.3404,,48.30729167,,,,,,FBP-PT-19.png,0.37,1.2,57,0.5,,,,,,,,,,,,,0,56,56,56,1,,,,,,,,,,,,,,,,,,,,,,,,,,,,
,,,,,SPR24_042,20,male,2024-04-11_17h02.41.271,jersey_experiment_5_v0,2023.2.2,Win32,85.47008547,,,,,,,,,,,,,,,,932.6713,933.7182,933.7183,935.4713,return,0.4951,,65.234375,,,,,,FBP-OG-91.png,0.4,1.2,13,0.25,,,,,,,,,,,,,0,57,57,12,1,,,,,,,,,,,,,,,,,,,,,,,,,,,,
,,,,,SPR24_042,20,male,2024-04-11_17h02.41.271,jersey_experiment_5_v0,2023.2.2,Win32,85.47008547,,,,,,,,,,,,,,,,935.4715,936.7653,936.7653,939.0006,return,1.2643,,61.58854167,,,,,,FBP-PT-18.png,0.4,1.2,53,0.5,,,,,,,,,,,,,0,58,58,52,1,,,,,,,,,,,,,,,,,,,,,,,,,,,,
,,,,,SPR24_042,20,male,2024-04-11_17h02.41.271,jersey_experiment_5_v0,2023.2.2,Win32,85.47008547,,,,,,,,,,,,,,,,939.0008,940.2949,940.2949,941.5303,return,0.1696,,70.18229167,,,,,,FBP-YG-17.png,0.4,1.2,18,0.5,,,,,,,,,,,,,0,59,59,17,1,,,,,,,,,,,,,,,,,,,,,,,,,,,,
,,,,,SPR24_042,20,male,2024-04-11_17h02.41.271,jersey_experiment_5_v0,2023.2.2,Win32,85.47008547,,,,,,,,,,,,,,,,941.5316,942.5773,942.5773,943.648,return,0.0706,,62.5,,,,,,FBP-RB-81.png,0.37,1.2,37,0.25,,,,,,,,,,,,,,,,,,0,0,0,36,1,,,,,,,,,,,,,,,,,,,,,,,
,,,,,SPR24_042,20,male,2024-04-11_17h02.41.271,jersey_experiment_5_v0,2023.2.2,Win32,85.47008547,,,,,,,,,,,,,,,,943.6483,944.6949,944.695,945.7777,return,0.3771,,86.84895833,,,,,,FBP-OG-19.png,0.43,1.2,14,0.25,,,,,,,,,,,,,,,,,,0,1,1,13,1,,,,,,,,,,,,,,,,,,,,,,,
,,,,,SPR24_042,20,male,2024-04-11_17h02.41.271,jersey_experiment_5_v0,2023.2.2,Win32,85.47008547,,,,,,,,,,,,,,,,945.7778,947.0715,947.0716,947.6246,return,0.0065,,96.484375,,,,,,FBP-YG-91.png,0.45,1.2,30,0.5,,,,,,,,,,,,,,,,,,0,2,2,29,1,,,,,,,,,,,,,,,,,,,,,,,
,,,,,SPR24_042,20,male,2024-04-11_17h02.41.271,jersey_experiment_5_v0,2023.2.2,Win32,85.47008547,,,,,,,,,,,,,,,,947.6249,948.9188,948.9188,949.8245,return,0.3873,,85.67708333,,,,,,FBP-PT-81.png,0.4,1.2,53,0.5,,,,,,,,,,,,,,,,,,0,3,3,52,1,,,,,,,,,,,,,,,,,,,,,,,
,,,,,SPR24_042,20,male,2024-04-11_17h02.41.271,jersey_experiment_5_v0,2023.2.2,Win32,85.47008547,,,,,,,,,,,,,,,,949.8248,951.1187,951.1188,951.8012,return,0.0882,,95.44270833,,,,,,FBP-YG-71.png,0.43,1.2,19,0.5,,,,,,,,,,,,,,,,,,0,4,4,18,1,,,,,,,,,,,,,,,,,,,,,,,
,,,,,SPR24_042,20,male,2024-04-11_17h02.41.271,jersey_experiment_5_v0,2023.2.2,Win32,85.47008547,,,,,,,,,,,,,,,,951.8014,952.8483,952.8483,955.872,return,1.9534,,44.140625,,,,,,FBP-RB-91.png,0.37,1.2,42,0.25,,,,,,,,,,,,,,,,,,0,5,5,41,1,,,,,,,,,,,,,,,,,,,,,,,
,,,,,SPR24_042,20,male,2024-04-11_17h02.41.271,jersey_experiment_5_v0,2023.2.2,Win32,85.47008547,,,,,,,,,,,,,,,,955.8722,956.9191,956.9191,958.6721,return,0.1048,,10.67708333,,,,,,FBP-RB-91.png,0.35,1.2,41,0.25,,,,,,,,,,,,,,,,,,0,6,6,40,1,,,,,,,,,,,,,,,,,,,,,,,
,,,,,SPR24_042,20,male,2024-04-11_17h02.41.271,jersey_experiment_5_v0,2023.2.2,Win32,85.47008547,,,,,,,,,,,,,,,,958.6723,959.9662,959.9662,960.9546,return,0.1337,,79.42708333,,,,,,FBP-PT-71.png,0.43,1.2,49,0.5,,,,,,,,,,,,,,,,,,0,7,7,48,1,,,,,,,,,,,,,,,,,,,,,,,
,,,,,SPR24_042,20,male,2024-04-11_17h02.41.271,jersey_experiment_5_v0,2023.2.2,Win32,85.47008547,,,,,,,,,,,,,,,,960.9549,962.0016,962.0017,963.1781,return,0.0419,,76.43229167,,,,,,FBP-OG-17.png,0.43,1.2,4,0.25,,,,,,,,,,,,,,,,,,0,8,8,3,1,,,,,,,,,,,,,,,,,,,,,,,
,,,,,SPR24_042,20,male,2024-04-11_17h02.41.271,jersey_experiment_5_v0,2023.2.2,Win32,85.47008547,,,,,,,,,,,,,,,,963.1783,964.4723,964.4723,965.3902,return,0.0481,,12.36979167,,,,,,FBP-YG-91.png,0.37,1.2,27,0.5,,,,,,,,,,,,,,,,,,0,9,9,26,1,,,,,,,,,,,,,,,,,,,,,,,
,,,,,SPR24_042,20,male,2024-04-11_17h02.41.271,jersey_experiment_5_v0,2023.2.2,Win32,85.47008547,,,,,,,,,,,,,,,,965.3904,966.4368,966.4368,967.8371,return,0.0618,,67.83854167,,,,,,FBP-RB-71.png,0.43,1.2,34,0.25,,,,,,,,,,,,,,,,,,0,10,10,33,1,,,,,,,,,,,,,,,,,,,,,,,
,,,,,SPR24_042,20,male,2024-04-11_17h02.41.271,jersey_experiment_5_v0,2023.2.2,Win32,85.47008547,,,,,,,,,,,,,,,,967.8374,968.8841,968.8841,969.8489,return,0.0411,,93.359375,,,,,,FBP-OG-17.png,0.45,1.2,5,0.25,,,,,,,,,,,,,,,,,,0,11,11,4,1,,,,,,,,,,,,,,,,,,,,,,,
,,,,,SPR24_042,20,male,2024-04-11_17h02.41.271,jersey_experiment_5_v0,2023.2.2,Win32,85.47008547,,,,,,,,,,,,,,,,969.8491,970.896,970.896,972.4019,return,0.0245,,53.25520833,,,,,,FBP-OG-17.png,0.4,1.2,3,0.25,,,,,,,,,,,,,,,,,,0,12,12,2,1,,,,,,,,,,,,,,,,,,,,,,,
,,,,,SPR24_042,20,male,2024-04-11_17h02.41.271,jersey_experiment_5_v0,2023.2.2,Win32,85.47008547,,,,,,,,,,,,,,,,972.4021,973.6961,973.6962,974.2844,return,0.0252,,67.578125,,,,,,FBP-PT-91.png,0.4,1.2,58,0.5,,,,,,,,,,,,,,,,,,0,13,13,57,1,,,,,,,,,,,,,,,,,,,,,,,
,,,,,SPR24_042,20,male,2024-04-11_17h02.41.271,jersey_experiment_5_v0,2023.2.2,Win32,85.47008547,,,,,,,,,,,,,,,,974.2846,975.3315,975.3315,976.0256,return,0.0525,,69.27083333,,,,,,FBP-RB-71.png,0.4,1.2,33,0.25,,,,,,,,,,,,,,,,,,0,14,14,32,1,,,,,,,,,,,,,,,,,,,,,,,
,,,,,SPR24_042,20,male,2024-04-11_17h02.41.271,jersey_experiment_5_v0,2023.2.2,Win32,85.47008547,,,,,,,,,,,,,,,,976.0258,977.3198,977.3198,977.9551,return,0.0477,,85.546875,,,,,,FBP-YG-81.png,0.45,1.2,25,0.5,,,,,,,,,,,,,,,,,,0,15,15,24,1,,,,,,,,,,,,,,,,,,,,,,,
,,,,,SPR24_042,20,male,2024-04-11_17h02.41.271,jersey_experiment_5_v0,2023.2.2,Win32,85.47008547,,,,,,,,,,,,,,,,977.9554,979.0021,979.0021,981.6259,return,0.3103,,0.260416667,,,,,,FBP-OG-18.png,0.35,1.2,6,0.25,,,,,,,,,,,,,,,,,,0,16,16,5,1,,,,,,,,,,,,,,,,,,,,,,,
,,,,,SPR24_042,20,male,2024-04-11_17h02.41.271,jersey_experiment_5_v0,2023.2.2,Win32,85.47008547,,,,,,,,,,,,,,,,981.6262,982.92,982.92,983.72,return,0.2663,,0.911458333,,,,,,FBP-PT-81.png,0.37,1.2,52,0.5,,,,,,,,,,,,,,,,,,0,17,17,51,1,,,,,,,,,,,,,,,,,,,,,,,
,,,,,SPR24_042,20,male,2024-04-11_17h02.41.271,jersey_experiment_5_v0,2023.2.2,Win32,85.47008547,,,,,,,,,,,,,,,,983.7202,984.767,984.767,986.5555,return,0.0864,,72.13541667,,,,,,FBP-RB-81.png,0.45,1.2,40,0.25,,,,,,,,,,,,,,,,,,0,18,18,39,1,,,,,,,,,,,,,,,,,,,,,,,
,,,,,SPR24_042,20,male,2024-04-11_17h02.41.271,jersey_experiment_5_v0,2023.2.2,Win32,85.47008547,,,,,,,,,,,,,,,,986.5558,987.8496,987.8497,989.6733,return,0.1132,,58.59375,,,,,,FBP-PT-71.png,0.4,1.2,48,0.5,,,,,,,,,,,,,,,,,,0,19,19,47,1,,,,,,,,,,,,,,,,,,,,,,,
,,,,,SPR24_042,20,male,2024-04-11_17h02.41.271,jersey_experiment_5_v0,2023.2.2,Win32,85.47008547,,,,,,,,,,,,,,,,989.6736,990.7201,990.7202,991.6732,return,0.0664,,47.265625,,,,,,FBP-RB-71.png,0.37,1.2,32,0.25,,,,,,,,,,,,,,,,,,0,20,20,31,1,,,,,,,,,,,,,,,,,,,,,,,
,,,,,SPR24_042,20,male,2024-04-11_17h02.41.271,jersey_experiment_5_v0,2023.2.2,Win32,85.47008547,,,,,,,,,,,,,,,,991.6734,992.7202,992.7203,993.6026,return,0.0134,,60.80729167,,,,,,FBP-RB-81.png,0.4,1.2,38,0.25,,,,,,,,,,,,,,,,,,0,21,21,37,1,,,,,,,,,,,,,,,,,,,,,,,
,,,,,SPR24_042,20,male,2024-04-11_17h02.41.271,jersey_experiment_5_v0,2023.2.2,Win32,85.47008547,,,,,,,,,,,,,,,,993.6029,994.6497,994.6498,995.9203,return,0.2119,,1.822916667,,,,,,FBP-OG-19.png,0.35,1.2,11,0.25,,,,,,,,,,,,,,,,,,0,22,22,10,1,,,,,,,,,,,,,,,,,,,,,,,
,,,,,SPR24_042,20,male,2024-04-11_17h02.41.271,jersey_experiment_5_v0,2023.2.2,Win32,85.47008547,,,,,,,,,,,,,,,,995.9206,997.2145,997.2146,997.6499,return,0.0236,,1.302083333,,,,,,FBP-YG-81.png,0.37,1.2,22,0.5,,,,,,,,,,,,,,,,,,0,23,23,21,1,,,,,,,,,,,,,,,,,,,,,,,
,,,,,SPR24_042,20,male,2024-04-11_17h02.41.271,jersey_experiment_5_v0,2023.2.2,Win32,85.47008547,,,,,,,,,,,,,,,,997.6501,998.697,998.697,999.897,return,0.1013,,84.63541667,,,,,,FBP-RB-91.png,0.45,1.2,45,0.25,,,,,,,,,,,,,,,,,,0,24,24,44,1,,,,,,,,,,,,,,,,,,,,,,,
,,,,,SPR24_042,20,male,2024-04-11_17h02.41.271,jersey_experiment_5_v0,2023.2.2,Win32,85.47008547,,,,,,,,,,,,,,,,999.8972,1000.9442,1000.9442,1002.2735,return,0.1654,,96.74479167,,,,,,FBP-OG-18.png,0.45,1.2,10,0.25,,,,,,,,,,,,,,,,,,0,25,25,9,1,,,,,,,,,,,,,,,,,,,,,,,
,,,,,SPR24_042,20,male,2024-04-11_17h02.41.271,jersey_experiment_5_v0,2023.2.2,Win32,85.47008547,,,,,,,,,,,,,,,,1002.2737,1003.5677,1003.5677,1007.4973,return,0.0175,,74.47916667,,,,,,FBP-YG-71.png,0.37,1.2,17,0.5,,,,,,,,,,,,,,,,,,0,26,26,16,1,,,,,,,,,,,,,,,,,,,,,,,
,,,,,SPR24_042,20,male,2024-04-11_17h02.41.271,jersey_experiment_5_v0,2023.2.2,Win32,85.47008547,,,,,,,,,,,,,,,,1007.4976,1008.5444,1008.5444,1009.3562,return,0.0135,,63.671875,,,,,,FBP-OG-17.png,0.37,1.2,2,0.25,,,,,,,,,,,,,,,,,,0,27,27,1,1,,,,,,,,,,,,,,,,,,,,,,,
,,,,,SPR24_042,20,male,2024-04-11_17h02.41.271,jersey_experiment_5_v0,2023.2.2,Win32,85.47008547,,,,,,,,,,,,,,,,1009.3564,1010.4032,1010.4032,1011.7092,return,0.0269,,99.73958333,,,,,,FBP-OG-18.png,0.43,1.2,9,0.25,,,,,,,,,,,,,,,,,,0,28,28,8,1,,,,,,,,,,,,,,,,,,,,,,,
,,,,,SPR24_042,20,male,2024-04-11_17h02.41.271,jersey_experiment_5_v0,2023.2.2,Win32,85.47008547,,,,,,,,,,,,,,,,1011.7095,1013.0034,1013.0034,1014.6034,return,0.4287,,51.30208333,,,,,,FBP-PT-91.png,0.37,1.2,57,0.5,,,,,,,,,,,,,,,,,,0,29,29,56,1,,,,,,,,,,,,,,,,,,,,,,,
,,,,,SPR24_042,20,male,2024-04-11_17h02.41.271,jersey_experiment_5_v0,2023.2.2,Win32,85.47008547,,,,,,,,,,,,,,,,1014.6037,1015.6505,1015.6506,1017.58,return,0.0396,,27.60416667,,,,,,FBP-OG-18.png,0.37,1.2,7,0.25,,,,,,,,,,,,,,,,,,0,30,30,6,1,,,,,,,,,,,,,,,,,,,,,,,
,,,,,SPR24_042,20,male,2024-04-11_17h02.41.271,jersey_experiment_5_v0,2023.2.2,Win32,85.47008547,,,,,,,,,,,,,,,,1017.5803,1018.6269,1018.6269,1019.4507,return,0.0631,,3.385416667,,,,,,FBP-RB-71.png,0.35,1.2,31,0.25,,,,,,,,,,,,,,,,,,0,31,31,30,1,,,,,,,,,,,,,,,,,,,,,,,
,,,,,SPR24_042,20,male,2024-04-11_17h02.41.271,jersey_experiment_5_v0,2023.2.2,Win32,85.47008547,,,,,,,,,,,,,,,,1019.4509,1020.7447,1020.7447,1021.7683,return,0.0432,,90.234375,,,,,,FBP-YG-81.png,0.43,1.2,24,0.5,,,,,,,,,,,,,,,,,,0,32,32,23,1,,,,,,,,,,,,,,,,,,,,,,,
,,,,,SPR24_042,20,male,2024-04-11_17h02.41.271,jersey_experiment_5_v0,2023.2.2,Win32,85.47008547,,,,,,,,,,,,,,,,1021.7686,1022.8153,1022.8154,1023.6625,return,0.0254,,74.21875,,,,,,FBP-RB-91.png,0.43,1.2,44,0.25,,,,,,,,,,,,,,,,,,0,33,33,43,1,,,,,,,,,,,,,,,,,,,,,,,
,,,,,SPR24_042,20,male,2024-04-11_17h02.41.271,jersey_experiment_5_v0,2023.2.2,Win32,85.47008547,,,,,,,,,,,,,,,,1023.6628,1024.9566,1024.9566,1028.5923,return,0.0133,,25.78125,,,,,,FBP-PT-71.png,0.37,1.2,47,0.5,,,,,,,,,,,,,,,,,,0,34,34,46,1,,,,,,,,,,,,,,,,,,,,,,,
,,,,,SPR24_042,20,male,2024-04-11_17h02.41.271,jersey_experiment_5_v0,2023.2.2,Win32,85.47008547,,,,,,,,,,,,,,,,1028.5926,1029.8861,1029.8862,1030.7805,return,0.0258,,14.97395833,,,,,,FBP-PT-71.png,0.35,1.2,46,0.5,,,,,,,,,,,,,,,,,,0,35,35,45,1,,,,,,,,,,,,,,,,,,,,,,,
,,,,,SPR24_042,20,male,2024-04-11_17h02.41.271,jersey_experiment_5_v0,2023.2.2,Win32,85.47008547,,,,,,,,,,,,,,,,1030.7808,1032.0745,1032.0746,1034.2983,return,0.8769,,39.84375,,,,,,FBP-YG-91.png,0.4,1.2,28,0.5,,,,,,,,,,,,,,,,,,0,36,36,27,1,,,,,,,,,,,,,,,,,,,,,,,
,,,,,SPR24_042,20,male,2024-04-11_17h02.41.271,jersey_experiment_5_v0,2023.2.2,Win32,85.47008547,,,,,,,,,,,,,,,,1034.2985,1035.5924,1035.5925,1036.969,return,0.265,,58.59375,,,,,,FBP-YG-81.png,0.4,1.2,23,0.5,,,,,,,,,,,,,,,,,,0,37,37,22,1,,,,,,,,,,,,,,,,,,,,,,,
,,,,,SPR24_042,20,male,2024-04-11_17h02.41.271,jersey_experiment_5_v0,2023.2.2,Win32,85.47008547,,,,,,,,,,,,,,,,1036.9692,1038.2631,1038.2631,1038.7809,return,0.0239,,76.43229167,,,,,,FBP-PT-91.png,0.45,1.2,60,0.5,,,,,,,,,,,,,,,,,,0,38,38,59,1,,,,,,,,,,,,,,,,,,,,,,,
,,,,,SPR24_042,20,male,2024-04-11_17h02.41.271,jersey_experiment_5_v0,2023.2.2,Win32,85.47008547,,,,,,,,,,,,,,,,1038.7811,1040.0749,1040.0749,1041.1338,return,0.1084,,58.33333333,,,,,,FBP-YG-81.png,0.35,1.2,21,0.5,,,,,,,,,,,,,,,,,,0,39,39,20,1,,,,,,,,,,,,,,,,,,,,,,,
,,,,,SPR24_042,20,male,2024-04-11_17h02.41.271,jersey_experiment_5_v0,2023.2.2,Win32,85.47008547,,,,,,,,,,,,,,,,1041.134,1042.4279,1042.428,1043.4985,return,0.0761,,7.161458333,,,,,,FBP-YG-71.png,0.35,1.2,16,0.5,,,,,,,,,,,,,,,,,,0,40,40,15,1,,,,,,,,,,,,,,,,,,,,,,,
,,,,,SPR24_042,20,male,2024-04-11_17h02.41.271,jersey_experiment_5_v0,2023.2.2,Win32,85.47008547,,,,,,,,,,,,,,,,1043.4987,1044.7926,1044.7926,1045.8165,return,0.1138,,95.44270833,,,,,,FBP-PT-71.png,0.45,1.2,50,0.5,,,,,,,,,,,,,,,,,,0,41,41,49,1,,,,,,,,,,,,,,,,,,,,,,,
,,,,,SPR24_042,20,male,2024-04-11_17h02.41.271,jersey_experiment_5_v0,2023.2.2,Win32,85.47008547,,,,,,,,,,,,,,,,1045.8167,1047.1104,1047.1105,1048.2987,return,0.1229,,87.5,,,,,,FBP-PT-81.png,0.43,1.2,54,0.5,,,,,,,,,,,,,,,,,,0,42,42,53,1,,,,,,,,,,,,,,,,,,,,,,,
,,,,,SPR24_042,20,male,2024-04-11_17h02.41.271,jersey_experiment_5_v0,2023.2.2,Win32,85.47008547,,,,,,,,,,,,,,,,1048.2988,1049.5929,1049.593,1050.593,return,0.048,,14.84375,,,,,,FBP-YG-91.png,0.35,1.2,26,0.5,,,,,,,,,,,,,,,,,,0,43,43,25,1,,,,,,,,,,,,,,,,,,,,,,,
,,,,,SPR24_042,20,male,2024-04-11_17h02.41.271,jersey_experiment_5_v0,2023.2.2,Win32,85.47008547,,,,,,,,,,,,,,,,1050.5933,1051.64,1051.6401,1052.7695,return,0.0341,,95.3125,,,,,,FBP-OG-19.png,0.45,1.2,15,0.25,,,,,,,,,,,,,,,,,,0,44,44,14,1,,,,,,,,,,,,,,,,,,,,,,,
,,,,,SPR24_042,20,male,2024-04-11_17h02.41.271,jersey_experiment_5_v0,2023.2.2,Win32,85.47008547,,,,,,,,,,,,,,,,1052.7697,1054.0635,1054.0636,1055.5695,return,0.33,,26.5625,,,,,,FBP-PT-91.png,0.35,1.2,56,0.5,,,,,,,,,,,,,,,,,,0,45,45,55,1,,,,,,,,,,,,,,,,,,,,,,,
,,,,,SPR24_042,20,male,2024-04-11_17h02.41.271,jersey_experiment_5_v0,2023.2.2,Win32,85.47008547,,,,,,,,,,,,,,,,1055.5697,1056.8637,1056.8637,1058.3226,return,0.4797,,81.51041667,,,,,,FBP-PT-91.png,0.43,1.2,59,0.5,,,,,,,,,,,,,,,,,,0,46,46,58,1,,,,,,,,,,,,,,,,,,,,,,,
,,,,,SPR24_042,20,male,2024-04-11_17h02.41.271,jersey_experiment_5_v0,2023.2.2,Win32,85.47008547,,,,,,,,,,,,,,,,1058.3228,1059.3697,1059.3697,1062.8873,return,0.3384,,74.73958333,,,,,,FBP-RB-91.png,0.4,1.2,43,0.25,,,,,,,,,,,,,,,,,,0,47,47,42,1,,,,,,,,,,,,,,,,,,,,,,,
,,,,,SPR24_042,20,male,2024-04-11_17h02.41.271,jersey_experiment_5_v0,2023.2.2,Win32,85.47008547,,,,,,,,,,,,,,,,1062.8875,1063.9345,1063.9346,1065.217,return,0.2929,,75.390625,,,,,,FBP-OG-19.png,0.4,1.2,13,0.25,,,,,,,,,,,,,,,,,,0,48,48,12,1,,,,,,,,,,,,,,,,,,,,,,,
,,,,,SPR24_042,20,male,2024-04-11_17h02.41.271,jersey_experiment_5_v0,2023.2.2,Win32,85.47008547,,,,,,,,,,,,,,,,1065.2172,1066.511,1066.5111,1070.6172,return,0.8896,,39.84375,,,,,,FBP-PT-81.png,0.35,1.2,51,0.5,,,,,,,,,,,,,,,,,,0,49,49,50,1,,,,,,,,,,,,,,,,,,,,,,,
,,,,,SPR24_042,20,male,2024-04-11_17h02.41.271,jersey_experiment_5_v0,2023.2.2,Win32,85.47008547,,,,,,,,,,,,,,,,1070.6175,1071.6642,1071.6643,1072.8291,return,0.0022,,93.09895833,,,,,,FBP-RB-81.png,0.43,1.2,39,0.25,,,,,,,,,,,,,,,,,,0,50,50,38,1,,,,,,,,,,,,,,,,,,,,,,,
,,,,,SPR24_042,20,male,2024-04-11_17h02.41.271,jersey_experiment_5_v0,2023.2.2,Win32,85.47008547,,,,,,,,,,,,,,,,1072.8291,1073.8761,1073.8761,1075.1702,return,0.1886,,81.77083333,,,,,,FBP-OG-18.png,0.4,1.2,8,0.25,,,,,,,,,,,,,,,,,,0,51,51,7,1,,,,,,,,,,,,,,,,,,,,,,,
,,,,,SPR24_042,20,male,2024-04-11_17h02.41.271,jersey_experiment_5_v0,2023.2.2,Win32,85.47008547,,,,,,,,,,,,,,,,1075.1704,1076.4644,1076.4644,1078.2527,return,0.686,,85.9375,,,,,,FBP-YG-91.png,0.43,1.2,29,0.5,,,,,,,,,,,,,,,,,,0,52,52,28,1,,,,,,,,,,,,,,,,,,,,,,,
,,,,,SPR24_042,20,male,2024-04-11_17h02.41.271,jersey_experiment_5_v0,2023.2.2,Win32,85.47008547,,,,,,,,,,,,,,,,1078.2528,1079.3,1079.3,1080.7115,return,0.0207,,53.90625,,,,,,FBP-OG-19.png,0.37,1.2,12,0.25,,,,,,,,,,,,,,,,,,0,53,53,11,1,,,,,,,,,,,,,,,,,,,,,,,
,,,,,SPR24_042,20,male,2024-04-11_17h02.41.271,jersey_experiment_5_v0,2023.2.2,Win32,85.47008547,,,,,,,,,,,,,,,,1080.7117,1081.7586,1081.7586,1083.4999,return,0.6633,,9.635416667,,,,,,FBP-RB-81.png,0.35,1.2,36,0.25,,,,,,,,,,,,,,,,,,0,54,54,35,1,,,,,,,,,,,,,,,,,,,,,,,
,,,,,SPR24_042,20,male,2024-04-11_17h02.41.271,jersey_experiment_5_v0,2023.2.2,Win32,85.47008547,,,,,,,,,,,,,,,,1083.5001,1084.5471,1084.5471,1090.6414,return,0.8935,,2.083333333,,,,,,FBP-OG-17.png,0.35,1.2,1,0.25,,,,,,,,,,,,,,,,,,0,55,55,0,1,,,,,,,,,,,,,,,,,,,,,,,
,,,,,SPR24_042,20,male,2024-04-11_17h02.41.271,jersey_experiment_5_v0,2023.2.2,Win32,85.47008547,,,,,,,,,,,,,,,,1090.6416,1091.9355,1091.9356,1093.5003,return,0.038,,86.45833333,,,,,,FBP-YG-71.png,0.4,1.2,18,0.5,,,,,,,,,,,,,,,,,,0,56,56,17,1,,,,,,,,,,,,,,,,,,,,,,,
,,,,,SPR24_042,20,male,2024-04-11_17h02.41.271,jersey_experiment_5_v0,2023.2.2,Win32,85.47008547,,,,,,,,,,,,,,,,1093.5005,1094.5474,1094.5474,1096.3003,return,0.2261,,98.30729167,,,,,,FBP-RB-71.png,0.45,1.2,35,0.25,,,,,,,,,,,,,,,,,,0,57,57,34,1,,,,,,,,,,,,,,,,,,,,,,,
,,,,,SPR24_042,20,male,2024-04-11_17h02.41.271,jersey_experiment_5_v0,2023.2.2,Win32,85.47008547,,,,,,,,,,,,,,,,1096.3005,1097.5946,1097.5946,1098.3593,return,0.1149,,99.86979167,,,,,,FBP-PT-81.png,0.45,1.2,55,0.5,,,,,,,,,,,,,,,,,,0,58,58,54,1,,,,,,,,,,,,,,,,,,,,,,,
,,,,,SPR24_042,20,male,2024-04-11_17h02.41.271,jersey_experiment_5_v0,2023.2.2,Win32,85.47008547,,,,,,,,,,,,,,,,1098.3596,1099.6535,1099.6535,1100.0419,return,0.0299,,99.86979167,,,,,,FBP-YG-71.png,0.45,1.2,20,0.5,,,,,,,,,,,,,,,,,,0,59,59,19,1,,,,,,,,,,,,,,,,,,,,,,,
,,,,,SPR24_042,20,male,2024-04-11_17h02.41.271,jersey_experiment_5_v0,2023.2.2,Win32,85.47008547,,,,,,,,,,,,,,,,,,,,,,,,,,,,,,,,,,,,,,,,,,,,,,,,,,,,,,,,1100.0422,1105.8539,return,5.8013,,,,,,,,,,,,,,,,,,,
,,,,,SPR24_042,20,male,2024-04-11_17h02.41.271,jersey_experiment_5_v0,2023.2.2,Win32,85.47008547,,,,,,,,,,,,,,,,,,,,,,,,,,,,,,,,,,,,,,,,,,,,,,,,,,,,,,,,,,,,,1105.854,1111.4069,1,3.5009,return,2.0346,,,,,,,,,,,,
,,,,,SPR24_042,20,male,2024-04-11_17h02.41.271,jersey_experiment_5_v0,2023.2.2,Win32,85.47008547,,,,,,,,,,,,,,,,,,,,,,,,,,,,,,,,,,,,,,,,,,,,,,,,,,,,,,,,,,,,,,,,,,,,1111.4071,1159.7781,Maybe seeing if numbers influence size response? Did not really see patterns or try to,right,37.7657,,,,,,
,,,,,SPR24_042,20,male,2024-04-11_17h02.41.271,jersey_experiment_5_v0,2023.2.2,Win32,85.47008547,,,,,,,,,,,,,,,,,,,,,,,,,,,,,,,,,,,,,,,,,,,,,,,,,,,,,,,,,,,,,,,,,,,,,,,,,,1159.7781,1167.5031,return,7.7134,