requirements.started,requirements.stopped,key_resp_3.keys,key_resp_3.rt,key_resp_3.duration,Subject ID,Age,Gender,date,expName,psychopyVersion,OS,frameRate,instructions1.started,instructions1.stopped,key_resp.keys,key_resp.rt,key_resp.duration,example.started,example.stopped,enter_2.keys,enter_2.rt,enter_2.duration,instructions2.started,instructions2.stopped,enter_3.keys,enter_3.rt,enter_3.duration,image.started,image.stopped,slider_2.started,slider_2.stopped,next.keys,next.rt,next.duration,slider.response,trial_block_1.thisRepN,trial_block_1.thisTrialN,trial_block_1.thisN,trial_block_1.thisIndex,trial_block_1.ran,Path,Width,Height,Index,Duration,trial_block_2.thisRepN,trial_block_2.thisTrialN,trial_block_2.thisN,trial_block_2.thisIndex,trial_block_2.ran,rest_break.started,rest_break.stopped,end_break.started,end_break.stopped,key_resp_5.keys,key_resp_5.rt,key_resp_5.duration,trial_block_3.thisRepN,trial_block_3.thisTrialN,trial_block_3.thisN,trial_block_3.thisIndex,trial_block_3.ran,trial_block_4.thisRepN,trial_block_4.thisTrialN,trial_block_4.thisN,trial_block_4.thisIndex,trial_block_4.ran,questions_intro.started,questions_intro.stopped,enter_12.keys,enter_12.rt,enter_12.duration,question2.started,question2.stopped,question_doingbest.response,question_doingbest.rt,enter_15.keys,enter_15.rt,enter_15.duration,pattern.started,pattern.stopped,pattern_2.text,enter_17.keys,enter_17.rt,enter_17.duration,thankyou.started,thankyou.stopped,enter_14.keys,enter_14.rt,enter_14.duration
0.0002,59.7896,return,59.7858,,SPR24_87,23,Female,2024-04-24_15h01.32.948,jersey_experiment_5_v0,2023.2.2,Win32,84.03361344,,,,,,,,,,,,,,,,,,,,,,,,,,,,,,,,,,,,,,,,,,,,,,,,,,,,,,,,,,,,,,,,,,,,,,,,,,,,,,
,,,,,SPR24_87,23,Female,2024-04-24_15h01.32.948,jersey_experiment_5_v0,2023.2.2,Win32,84.03361344,59.7897,72.3409,return,12.53,,,,,,,,,,,,,,,,,,,,,,,,,,,,,,,,,,,,,,,,,,,,,,,,,,,,,,,,,,,,,,,,,,,,,,,,,,
,,,,,SPR24_87,23,Female,2024-04-24_15h01.32.948,jersey_experiment_5_v0,2023.2.2,Win32,84.03361344,,,,,,72.3409,79.5647,return,7.1911,,,,,,,,,,,,,,,,,,,,,,,,,,,,,,,,,,,,,,,,,,,,,,,,,,,,,,,,,,,,,,,,,,,,,
,,,,,SPR24_87,23,Female,2024-04-24_15h01.32.948,jersey_experiment_5_v0,2023.2.2,Win32,84.03361344,,,,,,,,,,,79.5648,115.1541,return,35.5774,,,,,,,,,,,,,,,,,,,,,,,,,,,,,,,,,,,,,,,,,,,,,,,,,,,,,,,,,,,,,,,,
,,,,,SPR24_87,23,Female,2024-04-24_15h01.32.948,jersey_experiment_5_v0,2023.2.2,Win32,84.03361344,,,,,,,,,,,,,,,,115.1603,116.4597,116.4598,135.8072,return,5.0271,,49.609375,0,0,0,4,1,FBP-OG-71.png,0.45,1.2,5,0.5,,,,,,,,,,,,,,,,,,,,,,,,,,,,,,,,,,,,,,,,,,,,,
,,,,,SPR24_87,23,Female,2024-04-24_15h01.32.948,jersey_experiment_5_v0,2023.2.2,Win32,84.03361344,,,,,,,,,,,,,,,,135.8113,137.1075,137.1075,144.9586,return,1.694,,99.86979167,0,1,1,44,1,FBP-RB-19.png,0.45,1.2,45,0.5,,,,,,,,,,,,,,,,,,,,,,,,,,,,,,,,,,,,,,,,,,,,,
,,,,,SPR24_87,23,Female,2024-04-24_15h01.32.948,jersey_experiment_5_v0,2023.2.2,Win32,84.03361344,,,,,,,,,,,,,,,,144.9588,146.2647,146.2647,149.4373,return,1.0065,,74.86979167,0,2,2,14,1,FBP-OG-91.png,0.45,1.2,15,0.5,,,,,,,,,,,,,,,,,,,,,,,,,,,,,,,,,,,,,,,,,,,,,
,,,,,SPR24_87,23,Female,2024-04-24_15h01.32.948,jersey_experiment_5_v0,2023.2.2,Win32,84.03361344,,,,,,,,,,,,,,,,149.4375,150.4846,150.4846,153.4376,return,0.9254,,25.390625,0,3,3,26,1,FBP-YG-19.png,0.37,1.2,27,0.25,,,,,,,,,,,,,,,,,,,,,,,,,,,,,,,,,,,,,,,,,,,,,
,,,,,SPR24_87,23,Female,2024-04-24_15h01.32.948,jersey_experiment_5_v0,2023.2.2,Win32,84.03361344,,,,,,,,,,,,,,,,153.4376,154.4846,154.4847,157.1906,return,0.7885,,50.78125,0,4,4,58,1,FBP-PT-19.png,0.43,1.2,59,0.25,,,,,,,,,,,,,,,,,,,,,,,,,,,,,,,,,,,,,,,,,,,,,
,,,,,SPR24_87,23,Female,2024-04-24_15h01.32.948,jersey_experiment_5_v0,2023.2.2,Win32,84.03361344,,,,,,,,,,,,,,,,157.1908,158.4847,158.4847,161.3929,return,1.4335,,23.95833333,0,5,5,40,1,FBP-RB-19.png,0.35,1.2,41,0.5,,,,,,,,,,,,,,,,,,,,,,,,,,,,,,,,,,,,,,,,,,,,,
,,,,,SPR24_87,23,Female,2024-04-24_15h01.32.948,jersey_experiment_5_v0,2023.2.2,Win32,84.03361344,,,,,,,,,,,,,,,,161.3931,162.6849,162.685,165.2768,return,0.9407,,74.73958333,0,6,6,34,1,FBP-RB-17.png,0.45,1.2,35,0.5,,,,,,,,,,,,,,,,,,,,,,,,,,,,,,,,,,,,,,,,,,,,,
,,,,,SPR24_87,23,Female,2024-04-24_15h01.32.948,jersey_experiment_5_v0,2023.2.2,Win32,84.03361344,,,,,,,,,,,,,,,,165.2768,166.5827,166.5828,168.732,return,1.3489,,74.73958333,0,7,7,33,1,FBP-RB-17.png,0.43,1.2,34,0.5,,,,,,,,,,,,,,,,,,,,,,,,,,,,,,,,,,,,,,,,,,,,,
,,,,,SPR24_87,23,Female,2024-04-24_15h01.32.948,jersey_experiment_5_v0,2023.2.2,Win32,84.03361344,,,,,,,,,,,,,,,,168.7322,170.0263,170.0263,172.7207,return,0.9447,,50.13020833,0,8,8,11,1,FBP-OG-91.png,0.37,1.2,12,0.5,,,,,,,,,,,,,,,,,,,,,,,,,,,,,,,,,,,,,,,,,,,,,
,,,,,SPR24_87,23,Female,2024-04-24_15h01.32.948,jersey_experiment_5_v0,2023.2.2,Win32,84.03361344,,,,,,,,,,,,,,,,172.721,173.7676,173.7676,176.2735,return,0.8138,,75.13020833,0,9,9,54,1,FBP-PT-18.png,0.45,1.2,55,0.25,,,,,,,,,,,,,,,,,,,,,,,,,,,,,,,,,,,,,,,,,,,,,
,,,,,SPR24_87,23,Female,2024-04-24_15h01.32.948,jersey_experiment_5_v0,2023.2.2,Win32,84.03361344,,,,,,,,,,,,,,,,176.2738,177.3207,177.3207,180.5561,return,0.7844,,74.47916667,0,10,10,27,1,FBP-YG-19.png,0.4,1.2,28,0.25,,,,,,,,,,,,,,,,,,,,,,,,,,,,,,,,,,,,,,,,,,,,,
,,,,,SPR24_87,23,Female,2024-04-24_15h01.32.948,jersey_experiment_5_v0,2023.2.2,Win32,84.03361344,,,,,,,,,,,,,,,,180.5562,181.6033,181.6033,184.4312,return,1.2124,,24.86979167,0,11,11,56,1,FBP-PT-19.png,0.37,1.2,57,0.25,,,,,,,,,,,,,,,,,,,,,,,,,,,,,,,,,,,,,,,,,,,,,
,,,,,SPR24_87,23,Female,2024-04-24_15h01.32.948,jersey_experiment_5_v0,2023.2.2,Win32,84.03361344,,,,,,,,,,,,,,,,184.4313,185.7233,185.7233,188.5563,return,0.8309,,74.86979167,0,12,12,42,1,FBP-RB-19.png,0.4,1.2,43,0.5,,,,,,,,,,,,,,,,,,,,,,,,,,,,,,,,,,,,,,,,,,,,,
,,,,,SPR24_87,23,Female,2024-04-24_15h01.32.948,jersey_experiment_5_v0,2023.2.2,Win32,84.03361344,,,,,,,,,,,,,,,,188.5565,189.8525,189.8525,191.7586,return,0.8217,,74.86979167,0,13,13,37,1,FBP-RB-18.png,0.4,1.2,38,0.5,,,,,,,,,,,,,,,,,,,,,,,,,,,,,,,,,,,,,,,,,,,,,
,,,,,SPR24_87,23,Female,2024-04-24_15h01.32.948,jersey_experiment_5_v0,2023.2.2,Win32,84.03361344,,,,,,,,,,,,,,,,191.7589,192.8092,192.8092,196.3331,return,1.1482,,99.86979167,0,14,14,48,1,FBP-PT-17.png,0.43,1.2,49,0.25,,,,,,,,,,,,,,,,,,,,,,,,,,,,,,,,,,,,,,,,,,,,,
,,,,,SPR24_87,23,Female,2024-04-24_15h01.32.948,jersey_experiment_5_v0,2023.2.2,Win32,84.03361344,,,,,,,,,,,,,,,,196.3333,197.3802,197.3803,199.9127,return,0.9623,,24.86979167,0,15,15,15,1,FBP-YG-17.png,0.35,1.2,16,0.25,,,,,,,,,,,,,,,,,,,,,,,,,,,,,,,,,,,,,,,,,,,,,
,,,,,SPR24_87,23,Female,2024-04-24_15h01.32.948,jersey_experiment_5_v0,2023.2.2,Win32,84.03361344,,,,,,,,,,,,,,,,199.9129,200.9567,200.9568,203.6628,return,0.9343,,99.34895833,0,16,16,49,1,FBP-PT-17.png,0.45,1.2,50,0.25,,,,,,,,,,,,,,,,,,,,,,,,,,,,,,,,,,,,,,,,,,,,,
,,,,,SPR24_87,23,Female,2024-04-24_15h01.32.948,jersey_experiment_5_v0,2023.2.2,Win32,84.03361344,,,,,,,,,,,,,,,,203.663,204.7098,204.7099,207.1158,return,0.7444,,25,0,17,17,50,1,FBP-PT-18.png,0.35,1.2,51,0.25,,,,,,,,,,,,,,,,,,,,,,,,,,,,,,,,,,,,,,,,,,,,,
,,,,,SPR24_87,23,Female,2024-04-24_15h01.32.948,jersey_experiment_5_v0,2023.2.2,Win32,84.03361344,,,,,,,,,,,,,,,,207.1159,208.4159,208.4159,210.7336,return,0.9004,,74.86979167,0,18,18,32,1,FBP-RB-17.png,0.4,1.2,33,0.5,,,,,,,,,,,,,,,,,,,,,,,,,,,,,,,,,,,,,,,,,,,,,
,,,,,SPR24_87,23,Female,2024-04-24_15h01.32.948,jersey_experiment_5_v0,2023.2.2,Win32,84.03361344,,,,,,,,,,,,,,,,210.7337,212.0277,212.0277,216.4044,return,0.9068,,0.390625,0,19,19,10,1,FBP-OG-91.png,0.35,1.2,11,0.5,,,,,,,,,,,,,,,,,,,,,,,,,,,,,,,,,,,,,,,,,,,,,
,,,,,SPR24_87,23,Female,2024-04-24_15h01.32.948,jersey_experiment_5_v0,2023.2.2,Win32,84.03361344,,,,,,,,,,,,,,,,216.4047,217.4515,217.4515,221.9027,return,0.8019,,99.47916667,0,20,20,18,1,FBP-YG-17.png,0.43,1.2,19,0.25,,,,,,,,,,,,,,,,,,,,,,,,,,,,,,,,,,,,,,,,,,,,,
,,,,,SPR24_87,23,Female,2024-04-24_15h01.32.948,jersey_experiment_5_v0,2023.2.2,Win32,84.03361344,,,,,,,,,,,,,,,,221.9029,222.9459,222.9459,225.5733,return,0.9179,,99.73958333,0,21,21,59,1,FBP-PT-19.png,0.45,1.2,60,0.25,,,,,,,,,,,,,,,,,,,,,,,,,,,,,,,,,,,,,,,,,,,,,
,,,,,SPR24_87,23,Female,2024-04-24_15h01.32.948,jersey_experiment_5_v0,2023.2.2,Win32,84.03361344,,,,,,,,,,,,,,,,225.5735,226.8754,226.8755,230.6755,return,2.7528,,99.47916667,0,22,22,13,1,FBP-OG-91.png,0.43,1.2,14,0.5,,,,,,,,,,,,,,,,,,,,,,,,,,,,,,,,,,,,,,,,,,,,,
,,,,,SPR24_87,23,Female,2024-04-24_15h01.32.948,jersey_experiment_5_v0,2023.2.2,Win32,84.03361344,,,,,,,,,,,,,,,,230.6757,231.9697,231.9697,233.974,return,0.7534,,75,0,23,23,3,1,FBP-OG-71.png,0.43,1.2,4,0.5,,,,,,,,,,,,,,,,,,,,,,,,,,,,,,,,,,,,,,,,,,,,,
,,,,,SPR24_87,23,Female,2024-04-24_15h01.32.948,jersey_experiment_5_v0,2023.2.2,Win32,84.03361344,,,,,,,,,,,,,,,,233.9742,235.0168,235.0169,237.7934,return,0.979,,99.47916667,0,24,24,29,1,FBP-YG-19.png,0.45,1.2,30,0.25,,,,,,,,,,,,,,,,,,,,,,,,,,,,,,,,,,,,,,,,,,,,,
,,,,,SPR24_87,23,Female,2024-04-24_15h01.32.948,jersey_experiment_5_v0,2023.2.2,Win32,84.03361344,,,,,,,,,,,,,,,,237.7935,239.0902,239.0903,240.9935,return,1.1442,,99.47916667,0,25,25,39,1,FBP-RB-18.png,0.45,1.2,40,0.5,,,,,,,,,,,,,,,,,,,,,,,,,,,,,,,,,,,,,,,,,,,,,
,,,,,SPR24_87,23,Female,2024-04-24_15h01.32.948,jersey_experiment_5_v0,2023.2.2,Win32,84.03361344,,,,,,,,,,,,,,,,240.9937,242.2917,242.2917,245.068,return,0.9311,,24.47916667,0,26,26,36,1,FBP-RB-18.png,0.37,1.2,37,0.5,,,,,,,,,,,,,,,,,,,,,,,,,,,,,,,,,,,,,,,,,,,,,
,,,,,SPR24_87,23,Female,2024-04-24_15h01.32.948,jersey_experiment_5_v0,2023.2.2,Win32,84.03361344,,,,,,,,,,,,,,,,245.0681,246.3702,246.3703,249.2761,return,0.9018,,0.260416667,0,27,27,0,1,FBP-OG-71.png,0.35,1.2,1,0.5,,,,,,,,,,,,,,,,,,,,,,,,,,,,,,,,,,,,,,,,,,,,,
,,,,,SPR24_87,23,Female,2024-04-24_15h01.32.948,jersey_experiment_5_v0,2023.2.2,Win32,84.03361344,,,,,,,,,,,,,,,,249.2763,250.5704,250.5706,255.6292,return,1.2902,,99.08854167,0,28,28,8,1,FBP-OG-81.png,0.43,1.2,9,0.5,,,,,,,,,,,,,,,,,,,,,,,,,,,,,,,,,,,,,,,,,,,,,
,,,,,SPR24_87,23,Female,2024-04-24_15h01.32.948,jersey_experiment_5_v0,2023.2.2,Win32,84.03361344,,,,,,,,,,,,,,,,255.6294,256.9236,256.9236,261.4926,return,0.7064,,74.86979167,0,29,29,2,1,FBP-OG-71.png,0.4,1.2,3,0.5,,,,,,,,,,,,,,,,,,,,,,,,,,,,,,,,,,,,,,,,,,,,,
,,,,,SPR24_87,23,Female,2024-04-24_15h01.32.948,jersey_experiment_5_v0,2023.2.2,Win32,84.03361344,,,,,,,,,,,,,,,,261.4928,262.7944,262.7944,264.9397,return,1.071,,50.26041667,0,30,30,12,1,FBP-OG-91.png,0.4,1.2,13,0.5,,,,,,,,,,,,,,,,,,,,,,,,,,,,,,,,,,,,,,,,,,,,,
,,,,,SPR24_87,23,Female,2024-04-24_15h01.32.948,jersey_experiment_5_v0,2023.2.2,Win32,84.03361344,,,,,,,,,,,,,,,,264.9398,265.9827,265.9827,269.2298,return,0.9012,,74.73958333,0,31,31,57,1,FBP-PT-19.png,0.4,1.2,58,0.25,,,,,,,,,,,,,,,,,,,,,,,,,,,,,,,,,,,,,,,,,,,,,
,,,,,SPR24_87,23,Female,2024-04-24_15h01.32.948,jersey_experiment_5_v0,2023.2.2,Win32,84.03361344,,,,,,,,,,,,,,,,269.23,270.277,270.277,275.0103,return,2.6706,,49.86979167,0,32,32,52,1,FBP-PT-18.png,0.4,1.2,53,0.25,,,,,,,,,,,,,,,,,,,,,,,,,,,,,,,,,,,,,,,,,,,,,
,,,,,SPR24_87,23,Female,2024-04-24_15h01.32.948,jersey_experiment_5_v0,2023.2.2,Win32,84.03361344,,,,,,,,,,,,,,,,275.0104,276.0535,276.0536,278.9477,return,1.0835,,75.78125,0,33,33,23,1,FBP-YG-18.png,0.43,1.2,24,0.25,,,,,,,,,,,,,,,,,,,,,,,,,,,,,,,,,,,,,,,,,,,,,
,,,,,SPR24_87,23,Female,2024-04-24_15h01.32.948,jersey_experiment_5_v0,2023.2.2,Win32,84.03361344,,,,,,,,,,,,,,,,278.948,279.9949,279.995,287.054,return,1.0415,,95.83333333,0,34,34,19,1,FBP-YG-17.png,0.45,1.2,20,0.25,,,,,,,,,,,,,,,,,,,,,,,,,,,,,,,,,,,,,,,,,,,,,
,,,,,SPR24_87,23,Female,2024-04-24_15h01.32.948,jersey_experiment_5_v0,2023.2.2,Win32,84.03361344,,,,,,,,,,,,,,,,287.0542,288.1064,288.1064,291.1835,return,0.8879,,78.125,0,35,35,17,1,FBP-YG-17.png,0.4,1.2,18,0.25,,,,,,,,,,,,,,,,,,,,,,,,,,,,,,,,,,,,,,,,,,,,,
,,,,,SPR24_87,23,Female,2024-04-24_15h01.32.948,jersey_experiment_5_v0,2023.2.2,Win32,84.03361344,,,,,,,,,,,,,,,,291.1837,292.2381,292.2382,295.1052,return,1.0252,,30.859375,0,36,36,16,1,FBP-YG-17.png,0.37,1.2,17,0.25,,,,,,,,,,,,,,,,,,,,,,,,,,,,,,,,,,,,,,,,,,,,,
,,,,,SPR24_87,23,Female,2024-04-24_15h01.32.948,jersey_experiment_5_v0,2023.2.2,Win32,84.03361344,,,,,,,,,,,,,,,,295.1053,296.1484,296.1484,298.2577,return,0.7396,,24.86979167,0,37,37,25,1,FBP-YG-19.png,0.35,1.2,26,0.25,,,,,,,,,,,,,,,,,,,,,,,,,,,,,,,,,,,,,,,,,,,,,
,,,,,SPR24_87,23,Female,2024-04-24_15h01.32.948,jersey_experiment_5_v0,2023.2.2,Win32,84.03361344,,,,,,,,,,,,,,,,298.2579,299.5525,299.5525,305.2349,return,3.8704,,91.66666667,0,38,38,38,1,FBP-RB-18.png,0.43,1.2,39,0.5,,,,,,,,,,,,,,,,,,,,,,,,,,,,,,,,,,,,,,,,,,,,,
,,,,,SPR24_87,23,Female,2024-04-24_15h01.32.948,jersey_experiment_5_v0,2023.2.2,Win32,84.03361344,,,,,,,,,,,,,,,,305.2351,306.53,306.53,309.2314,return,0.7794,,17.96875,0,39,39,35,1,FBP-RB-18.png,0.35,1.2,36,0.5,,,,,,,,,,,,,,,,,,,,,,,,,,,,,,,,,,,,,,,,,,,,,
,,,,,SPR24_87,23,Female,2024-04-24_15h01.32.948,jersey_experiment_5_v0,2023.2.2,Win32,84.03361344,,,,,,,,,,,,,,,,309.2316,310.2821,310.2821,313.4355,return,0.8004,,76.69270833,0,40,40,47,1,FBP-PT-17.png,0.4,1.2,48,0.25,,,,,,,,,,,,,,,,,,,,,,,,,,,,,,,,,,,,,,,,,,,,,
,,,,,SPR24_87,23,Female,2024-04-24_15h01.32.948,jersey_experiment_5_v0,2023.2.2,Win32,84.03361344,,,,,,,,,,,,,,,,313.4357,314.7287,314.7288,317.9962,return,1.844,,26.04166667,0,41,41,5,1,FBP-OG-81.png,0.35,1.2,6,0.5,,,,,,,,,,,,,,,,,,,,,,,,,,,,,,,,,,,,,,,,,,,,,
,,,,,SPR24_87,23,Female,2024-04-24_15h01.32.948,jersey_experiment_5_v0,2023.2.2,Win32,84.03361344,,,,,,,,,,,,,,,,317.9964,319.0434,319.0434,321.8119,return,1.0712,,98.17708333,0,42,42,24,1,FBP-YG-18.png,0.45,1.2,25,0.25,,,,,,,,,,,,,,,,,,,,,,,,,,,,,,,,,,,,,,,,,,,,,
,,,,,SPR24_87,23,Female,2024-04-24_15h01.32.948,jersey_experiment_5_v0,2023.2.2,Win32,84.03361344,,,,,,,,,,,,,,,,321.8121,322.8551,322.8552,325.3612,return,0.7774,,54.81770833,0,43,43,21,1,FBP-YG-18.png,0.37,1.2,22,0.25,,,,,,,,,,,,,,,,,,,,,,,,,,,,,,,,,,,,,,,,,,,,,
,,,,,SPR24_87,23,Female,2024-04-24_15h01.32.948,jersey_experiment_5_v0,2023.2.2,Win32,84.03361344,,,,,,,,,,,,,,,,325.3614,326.4082,326.4082,329.9771,return,1.0003,,79.16666667,0,44,44,22,1,FBP-YG-18.png,0.4,1.2,23,0.25,,,,,,,,,,,,,,,,,,,,,,,,,,,,,,,,,,,,,,,,,,,,,
,,,,,SPR24_87,23,Female,2024-04-24_15h01.32.948,jersey_experiment_5_v0,2023.2.2,Win32,84.03361344,,,,,,,,,,,,,,,,329.9772,331.2791,331.2791,333.8203,return,0.925,,96.09375,0,45,45,9,1,FBP-OG-81.png,0.45,1.2,10,0.5,,,,,,,,,,,,,,,,,,,,,,,,,,,,,,,,,,,,,,,,,,,,,
,,,,,SPR24_87,23,Female,2024-04-24_15h01.32.948,jersey_experiment_5_v0,2023.2.2,Win32,84.03361344,,,,,,,,,,,,,,,,333.8204,334.8674,334.8674,337.5421,return,0.9305,,26.04166667,0,46,46,45,1,FBP-PT-17.png,0.35,1.2,46,0.25,,,,,,,,,,,,,,,,,,,,,,,,,,,,,,,,,,,,,,,,,,,,,
,,,,,SPR24_87,23,Female,2024-04-24_15h01.32.948,jersey_experiment_5_v0,2023.2.2,Win32,84.03361344,,,,,,,,,,,,,,,,337.5422,338.5852,338.5853,342.1657,return,0.988,,28.515625,0,47,47,20,1,FBP-YG-18.png,0.35,1.2,21,0.25,,,,,,,,,,,,,,,,,,,,,,,,,,,,,,,,,,,,,,,,,,,,,
,,,,,SPR24_87,23,Female,2024-04-24_15h01.32.948,jersey_experiment_5_v0,2023.2.2,Win32,84.03361344,,,,,,,,,,,,,,,,342.1659,343.4713,343.4713,348.7322,return,2.6029,,57.55208333,0,48,48,30,1,FBP-RB-17.png,0.35,1.2,31,0.5,,,,,,,,,,,,,,,,,,,,,,,,,,,,,,,,,,,,,,,,,,,,,
,,,,,SPR24_87,23,Female,2024-04-24_15h01.32.948,jersey_experiment_5_v0,2023.2.2,Win32,84.03361344,,,,,,,,,,,,,,,,348.7324,350.0326,350.0326,352.9622,return,0.9545,,29.6875,0,49,49,1,1,FBP-OG-71.png,0.37,1.2,2,0.5,,,,,,,,,,,,,,,,,,,,,,,,,,,,,,,,,,,,,,,,,,,,,
,,,,,SPR24_87,23,Female,2024-04-24_15h01.32.948,jersey_experiment_5_v0,2023.2.2,Win32,84.03361344,,,,,,,,,,,,,,,,352.9625,354.2563,354.2563,357.0468,return,0.9395,,95.83333333,0,50,50,43,1,FBP-RB-19.png,0.43,1.2,44,0.5,,,,,,,,,,,,,,,,,,,,,,,,,,,,,,,,,,,,,,,,,,,,,
,,,,,SPR24_87,23,Female,2024-04-24_15h01.32.948,jersey_experiment_5_v0,2023.2.2,Win32,84.03361344,,,,,,,,,,,,,,,,357.0469,358.3389,358.339,360.7859,return,0.8235,,44.66145833,0,51,51,6,1,FBP-OG-81.png,0.37,1.2,7,0.5,,,,,,,,,,,,,,,,,,,,,,,,,,,,,,,,,,,,,,,,,,,,,
,,,,,SPR24_87,23,Female,2024-04-24_15h01.32.948,jersey_experiment_5_v0,2023.2.2,Win32,84.03361344,,,,,,,,,,,,,,,,360.7862,361.833,361.833,364.1548,return,1.0589,,44.66145833,0,52,52,46,1,FBP-PT-17.png,0.37,1.2,47,0.25,,,,,,,,,,,,,,,,,,,,,,,,,,,,,,,,,,,,,,,,,,,,,
,,,,,SPR24_87,23,Female,2024-04-24_15h01.32.948,jersey_experiment_5_v0,2023.2.2,Win32,84.03361344,,,,,,,,,,,,,,,,364.1549,365.4567,365.4567,368.7983,return,0.854,,53.77604167,0,53,53,7,1,FBP-OG-81.png,0.4,1.2,8,0.5,,,,,,,,,,,,,,,,,,,,,,,,,,,,,,,,,,,,,,,,,,,,,
,,,,,SPR24_87,23,Female,2024-04-24_15h01.32.948,jersey_experiment_5_v0,2023.2.2,Win32,84.03361344,,,,,,,,,,,,,,,,368.7985,369.8491,369.8491,380.3043,return,4.9327,,79.6875,0,54,54,53,1,FBP-PT-18.png,0.43,1.2,54,0.25,,,,,,,,,,,,,,,,,,,,,,,,,,,,,,,,,,,,,,,,,,,,,
,,,,,SPR24_87,23,Female,2024-04-24_15h01.32.948,jersey_experiment_5_v0,2023.2.2,Win32,84.03361344,,,,,,,,,,,,,,,,380.3085,381.3514,381.3514,383.4303,return,0.922,,85.80729167,0,55,55,28,1,FBP-YG-19.png,0.43,1.2,29,0.25,,,,,,,,,,,,,,,,,,,,,,,,,,,,,,,,,,,,,,,,,,,,,
,,,,,SPR24_87,23,Female,2024-04-24_15h01.32.948,jersey_experiment_5_v0,2023.2.2,Win32,84.03361344,,,,,,,,,,,,,,,,383.4304,384.4809,384.4809,391.6223,return,4.2841,,36.328125,0,56,56,51,1,FBP-PT-18.png,0.37,1.2,52,0.25,,,,,,,,,,,,,,,,,,,,,,,,,,,,,,,,,,,,,,,,,,,,,
,,,,,SPR24_87,23,Female,2024-04-24_15h01.32.948,jersey_experiment_5_v0,2023.2.2,Win32,84.03361344,,,,,,,,,,,,,,,,391.6264,392.9283,392.9283,396.3167,return,1.1716,,29.6875,0,57,57,41,1,FBP-RB-19.png,0.37,1.2,42,0.5,,,,,,,,,,,,,,,,,,,,,,,,,,,,,,,,,,,,,,,,,,,,,
,,,,,SPR24_87,23,Female,2024-04-24_15h01.32.948,jersey_experiment_5_v0,2023.2.2,Win32,84.03361344,,,,,,,,,,,,,,,,396.3169,397.6107,397.6108,399.9327,return,0.6592,,55.59895833,0,58,58,31,1,FBP-RB-17.png,0.37,1.2,32,0.5,,,,,,,,,,,,,,,,,,,,,,,,,,,,,,,,,,,,,,,,,,,,,
,,,,,SPR24_87,23,Female,2024-04-24_15h01.32.948,jersey_experiment_5_v0,2023.2.2,Win32,84.03361344,,,,,,,,,,,,,,,,399.9329,400.9756,400.9757,405.2464,return,1.8167,,44.140625,0,59,59,55,1,FBP-PT-19.png,0.35,1.2,56,0.25,,,,,,,,,,,,,,,,,,,,,,,,,,,,,,,,,,,,,,,,,,,,,
,,,,,SPR24_87,23,Female,2024-04-24_15h01.32.948,jersey_experiment_5_v0,2023.2.2,Win32,84.03361344,,,,,,,,,,,,,,,,405.2483,406.5405,406.5406,411.1905,return,3.2797,,94.66145833,,,,,,FBP-RB-81.png,0.43,1.2,39,0.5,0,0,0,38,1,,,,,,,,,,,,,,,,,,,,,,,,,,,,,,,,,,,,,,,,
,,,,,SPR24_87,23,Female,2024-04-24_15h01.32.948,jersey_experiment_5_v0,2023.2.2,Win32,84.03361344,,,,,,,,,,,,,,,,411.1908,412.4937,412.4937,415.4115,return,1.6477,,98.828125,,,,,,FBP-RB-81.png,0.45,1.2,40,0.5,0,1,1,39,1,,,,,,,,,,,,,,,,,,,,,,,,,,,,,,,,,,,,,,,,
,,,,,SPR24_87,23,Female,2024-04-24_15h01.32.948,jersey_experiment_5_v0,2023.2.2,Win32,84.03361344,,,,,,,,,,,,,,,,415.4117,416.4622,416.4623,418.2705,return,0.7106,,98.56770833,,,,,,FBP-YG-71.png,0.43,1.2,19,0.25,0,2,2,18,1,,,,,,,,,,,,,,,,,,,,,,,,,,,,,,,,,,,,,,,,
,,,,,SPR24_87,23,Female,2024-04-24_15h01.32.948,jersey_experiment_5_v0,2023.2.2,Win32,84.03361344,,,,,,,,,,,,,,,,418.2705,419.5686,419.5686,421.3804,return,0.7178,,99.86979167,,,,,,FBP-RB-91.png,0.45,1.2,45,0.5,0,3,3,44,1,,,,,,,,,,,,,,,,,,,,,,,,,,,,,,,,,,,,,,,,
,,,,,SPR24_87,23,Female,2024-04-24_15h01.32.948,jersey_experiment_5_v0,2023.2.2,Win32,84.03361344,,,,,,,,,,,,,,,,421.3805,422.6849,422.6849,427.2001,return,2.6973,,7.8125,,,,,,FBP-RB-81.png,0.35,1.2,36,0.5,0,4,4,35,1,,,,,,,,,,,,,,,,,,,,,,,,,,,,,,,,,,,,,,,,
,,,,,SPR24_87,23,Female,2024-04-24_15h01.32.948,jersey_experiment_5_v0,2023.2.2,Win32,84.03361344,,,,,,,,,,,,,,,,427.2004,428.2528,428.2528,431.9335,return,0.7413,,90.10416667,,,,,,FBP-PT-91.png,0.4,1.2,58,0.25,0,5,5,57,1,,,,,,,,,,,,,,,,,,,,,,,,,,,,,,,,,,,,,,,,
,,,,,SPR24_87,23,Female,2024-04-24_15h01.32.948,jersey_experiment_5_v0,2023.2.2,Win32,84.03361344,,,,,,,,,,,,,,,,431.9336,432.9797,432.9798,434.9769,return,0.7553,,98.30729167,,,,,,FBP-PT-71.png,0.45,1.2,50,0.25,0,6,6,49,1,,,,,,,,,,,,,,,,,,,,,,,,,,,,,,,,,,,,,,,,
,,,,,SPR24_87,23,Female,2024-04-24_15h01.32.948,jersey_experiment_5_v0,2023.2.2,Win32,84.03361344,,,,,,,,,,,,,,,,434.977,436.0239,436.024,439.0163,return,0.8589,,98.95833333,,,,,,FBP-PT-81.png,0.45,1.2,55,0.25,0,7,7,54,1,,,,,,,,,,,,,,,,,,,,,,,,,,,,,,,,,,,,,,,,
,,,,,SPR24_87,23,Female,2024-04-24_15h01.32.948,jersey_experiment_5_v0,2023.2.2,Win32,84.03361344,,,,,,,,,,,,,,,,439.0163,440.0594,440.0594,442.3105,return,0.8828,,98.30729167,,,,,,FBP-YG-81.png,0.45,1.2,25,0.25,0,8,8,24,1,,,,,,,,,,,,,,,,,,,,,,,,,,,,,,,,,,,,,,,,
,,,,,SPR24_87,23,Female,2024-04-24_15h01.32.948,jersey_experiment_5_v0,2023.2.2,Win32,84.03361344,,,,,,,,,,,,,,,,442.3106,443.6144,443.6144,446.2596,return,0.6934,,24.609375,,,,,,FBP-RB-91.png,0.35,1.2,41,0.5,0,9,9,40,1,,,,,,,,,,,,,,,,,,,,,,,,,,,,,,,,,,,,,,,,
,,,,,SPR24_87,23,Female,2024-04-24_15h01.32.948,jersey_experiment_5_v0,2023.2.2,Win32,84.03361344,,,,,,,,,,,,,,,,446.2598,447.5537,447.5538,449.2596,return,0.6663,,28.77604167,,,,,,FBP-OG-18.png,0.37,1.2,7,0.5,0,10,10,6,1,,,,,,,,,,,,,,,,,,,,,,,,,,,,,,,,,,,,,,,,
,,,,,SPR24_87,23,Female,2024-04-24_15h01.32.948,jersey_experiment_5_v0,2023.2.2,Win32,84.03361344,,,,,,,,,,,,,,,,449.2598,450.554,450.554,452.4011,return,1.2748,,28.77604167,,,,,,FBP-OG-19.png,0.35,1.2,11,0.5,0,11,11,10,1,,,,,,,,,,,,,,,,,,,,,,,,,,,,,,,,,,,,,,,,
,,,,,SPR24_87,23,Female,2024-04-24_15h01.32.948,jersey_experiment_5_v0,2023.2.2,Win32,84.03361344,,,,,,,,,,,,,,,,452.4012,453.4481,453.4481,455.8167,return,0.8606,,79.81770833,,,,,,FBP-YG-81.png,0.43,1.2,24,0.25,0,12,12,23,1,,,,,,,,,,,,,,,,,,,,,,,,,,,,,,,,,,,,,,,,
,,,,,SPR24_87,23,Female,2024-04-24_15h01.32.948,jersey_experiment_5_v0,2023.2.2,Win32,84.03361344,,,,,,,,,,,,,,,,455.8169,457.1112,457.1112,459.4835,return,0.7723,,36.328125,,,,,,FBP-OG-18.png,0.4,1.2,8,0.5,0,13,13,7,1,,,,,,,,,,,,,,,,,,,,,,,,,,,,,,,,,,,,,,,,
,,,,,SPR24_87,23,Female,2024-04-24_15h01.32.948,jersey_experiment_5_v0,2023.2.2,Win32,84.03361344,,,,,,,,,,,,,,,,459.4837,460.7819,460.7819,463.3777,return,0.7207,,36.19791667,,,,,,FBP-RB-81.png,0.37,1.2,37,0.5,0,14,14,36,1,,,,,,,,,,,,,,,,,,,,,,,,,,,,,,,,,,,,,,,,
,,,,,SPR24_87,23,Female,2024-04-24_15h01.32.948,jersey_experiment_5_v0,2023.2.2,Win32,84.03361344,,,,,,,,,,,,,,,,463.3779,464.4287,464.4287,467.1588,return,0.73,,26.5625,,,,,,FBP-YG-71.png,0.35,1.2,16,0.25,0,15,15,15,1,,,,,,,,,,,,,,,,,,,,,,,,,,,,,,,,,,,,,,,,
,,,,,SPR24_87,23,Female,2024-04-24_15h01.32.948,jersey_experiment_5_v0,2023.2.2,Win32,84.03361344,,,,,,,,,,,,,,,,467.159,468.4522,468.4522,471.6018,return,1.2471,,95.05208333,,,,,,FBP-OG-18.png,0.45,1.2,10,0.5,0,16,16,9,1,,,,,,,,,,,,,,,,,,,,,,,,,,,,,,,,,,,,,,,,
,,,,,SPR24_87,23,Female,2024-04-24_15h01.32.948,jersey_experiment_5_v0,2023.2.2,Win32,84.03361344,,,,,,,,,,,,,,,,471.602,472.8992,472.8993,475.6959,return,1.0872,,94.66145833,,,,,,FBP-RB-91.png,0.37,1.2,42,0.5,0,17,17,41,1,,,,,,,,,,,,,,,,,,,,,,,,,,,,,,,,,,,,,,,,
,,,,,SPR24_87,23,Female,2024-04-24_15h01.32.948,jersey_experiment_5_v0,2023.2.2,Win32,84.03361344,,,,,,,,,,,,,,,,475.6961,476.7468,476.7468,481.2962,return,3.3209,,99.609375,,,,,,FBP-YG-71.png,0.45,1.2,20,0.25,0,18,18,19,1,,,,,,,,,,,,,,,,,,,,,,,,,,,,,,,,,,,,,,,,
,,,,,SPR24_87,23,Female,2024-04-24_15h01.32.948,jersey_experiment_5_v0,2023.2.2,Win32,84.03361344,,,,,,,,,,,,,,,,481.2962,482.3456,482.3457,483.9314,return,0.8782,,99.34895833,,,,,,FBP-YG-71.png,0.4,1.2,18,0.25,0,19,19,17,1,,,,,,,,,,,,,,,,,,,,,,,,,,,,,,,,,,,,,,,,
,,,,,SPR24_87,23,Female,2024-04-24_15h01.32.948,jersey_experiment_5_v0,2023.2.2,Win32,84.03361344,,,,,,,,,,,,,,,,483.9316,485.2257,485.2257,487.6295,return,0.929,,81.38020833,,,,,,FBP-OG-17.png,0.4,1.2,3,0.5,0,20,20,2,1,,,,,,,,,,,,,,,,,,,,,,,,,,,,,,,,,,,,,,,,
,,,,,SPR24_87,23,Female,2024-04-24_15h01.32.948,jersey_experiment_5_v0,2023.2.2,Win32,84.03361344,,,,,,,,,,,,,,,,487.6296,488.6766,488.6767,490.9434,return,0.9331,,87.890625,,,,,,FBP-YG-81.png,0.4,1.2,23,0.25,0,21,21,22,1,,,,,,,,,,,,,,,,,,,,,,,,,,,,,,,,,,,,,,,,
,,,,,SPR24_87,23,Female,2024-04-24_15h01.32.948,jersey_experiment_5_v0,2023.2.2,Win32,84.03361344,,,,,,,,,,,,,,,,490.9436,491.9943,491.9943,494.2772,return,0.9178,,82.8125,,,,,,FBP-PT-81.png,0.4,1.2,53,0.25,0,22,22,52,1,,,,,,,,,,,,,,,,,,,,,,,,,,,,,,,,,,,,,,,,
,,,,,SPR24_87,23,Female,2024-04-24_15h01.32.948,jersey_experiment_5_v0,2023.2.2,Win32,84.03361344,,,,,,,,,,,,,,,,494.2773,495.5813,495.5813,499.3123,return,1.0588,,99.21875,,,,,,FBP-OG-19.png,0.45,1.2,15,0.5,0,23,23,14,1,,,,,,,,,,,,,,,,,,,,,,,,,,,,,,,,,,,,,,,,
,,,,,SPR24_87,23,Female,2024-04-24_15h01.32.948,jersey_experiment_5_v0,2023.2.2,Win32,84.03361344,,,,,,,,,,,,,,,,499.3125,500.3556,500.3557,503.1246,return,0.7649,,98.828125,,,,,,FBP-PT-71.png,0.43,1.2,49,0.25,0,24,24,48,1,,,,,,,,,,,,,,,,,,,,,,,,,,,,,,,,,,,,,,,,
,,,,,SPR24_87,23,Female,2024-04-24_15h01.32.948,jersey_experiment_5_v0,2023.2.2,Win32,84.03361344,,,,,,,,,,,,,,,,503.1248,504.1675,504.1675,507.595,return,1.3996,,29.296875,,,,,,FBP-YG-81.png,0.37,1.2,22,0.25,0,25,25,21,1,,,,,,,,,,,,,,,,,,,,,,,,,,,,,,,,,,,,,,,,
,,,,,SPR24_87,23,Female,2024-04-24_15h01.32.948,jersey_experiment_5_v0,2023.2.2,Win32,84.03361344,,,,,,,,,,,,,,,,507.5951,508.8886,508.8887,512.0188,return,1.202,,82.421875,,,,,,FBP-OG-17.png,0.43,1.2,4,0.5,0,26,26,3,1,,,,,,,,,,,,,,,,,,,,,,,,,,,,,,,,,,,,,,,,
,,,,,SPR24_87,23,Female,2024-04-24_15h01.32.948,jersey_experiment_5_v0,2023.2.2,Win32,84.03361344,,,,,,,,,,,,,,,,512.0189,513.3245,513.3245,516.0033,return,0.9757,,32.03125,,,,,,FBP-RB-71.png,0.37,1.2,32,0.5,0,27,27,31,1,,,,,,,,,,,,,,,,,,,,,,,,,,,,,,,,,,,,,,,,
,,,,,SPR24_87,23,Female,2024-04-24_15h01.32.948,jersey_experiment_5_v0,2023.2.2,Win32,84.03361344,,,,,,,,,,,,,,,,516.0034,517.2972,517.2973,521.6076,return,2.8826,,82.94270833,,,,,,FBP-OG-18.png,0.43,1.2,9,0.5,0,28,28,8,1,,,,,,,,,,,,,,,,,,,,,,,,,,,,,,,,,,,,,,,,
,,,,,SPR24_87,23,Female,2024-04-24_15h01.32.948,jersey_experiment_5_v0,2023.2.2,Win32,84.03361344,,,,,,,,,,,,,,,,521.6078,522.9016,522.9016,526.7608,return,2.9649,,87.109375,,,,,,FBP-OG-17.png,0.45,1.2,5,0.5,0,29,29,4,1,,,,,,,,,,,,,,,,,,,,,,,,,,,,,,,,,,,,,,,,
,,,,,SPR24_87,23,Female,2024-04-24_15h01.32.948,jersey_experiment_5_v0,2023.2.2,Win32,84.03361344,,,,,,,,,,,,,,,,526.7649,527.8179,527.8179,530.4065,return,1.0004,,99.34895833,,,,,,FBP-YG-91.png,0.43,1.2,29,0.25,0,30,30,28,1,,,,,,,,,,,,,,,,,,,,,,,,,,,,,,,,,,,,,,,,
,,,,,SPR24_87,23,Female,2024-04-24_15h01.32.948,jersey_experiment_5_v0,2023.2.2,Win32,84.03361344,,,,,,,,,,,,,,,,530.4067,531.4563,531.4564,534.5253,return,0.7424,,3.515625,,,,,,FBP-PT-81.png,0.35,1.2,51,0.25,0,31,31,50,1,,,,,,,,,,,,,,,,,,,,,,,,,,,,,,,,,,,,,,,,
,,,,,SPR24_87,23,Female,2024-04-24_15h01.32.948,jersey_experiment_5_v0,2023.2.2,Win32,84.03361344,,,,,,,,,,,,,,,,534.5254,535.818,535.818,539.1474,return,1.7284,,3.90625,,,,,,FBP-OG-18.png,0.35,1.2,6,0.5,0,32,32,5,1,,,,,,,,,,,,,,,,,,,,,,,,,,,,,,,,,,,,,,,,
,,,,,SPR24_87,23,Female,2024-04-24_15h01.32.948,jersey_experiment_5_v0,2023.2.2,Win32,84.03361344,,,,,,,,,,,,,,,,539.1475,540.196,540.1961,546.322,return,4.4251,,78.90625,,,,,,FBP-PT-71.png,0.4,1.2,48,0.25,0,33,33,47,1,,,,,,,,,,,,,,,,,,,,,,,,,,,,,,,,,,,,,,,,
,,,,,SPR24_87,23,Female,2024-04-24_15h01.32.948,jersey_experiment_5_v0,2023.2.2,Win32,84.03361344,,,,,,,,,,,,,,,,546.3263,547.6198,547.6198,549.5718,return,0.7754,,39.58333333,,,,,,FBP-OG-17.png,0.37,1.2,2,0.5,0,34,34,1,1,,,,,,,,,,,,,,,,,,,,,,,,,,,,,,,,,,,,,,,,
,,,,,SPR24_87,23,Female,2024-04-24_15h01.32.948,jersey_experiment_5_v0,2023.2.2,Win32,84.03361344,,,,,,,,,,,,,,,,549.572,550.867,550.8671,553.916,return,0.9545,,79.03645833,,,,,,FBP-RB-71.png,0.4,1.2,33,0.5,0,35,35,32,1,,,,,,,,,,,,,,,,,,,,,,,,,,,,,,,,,,,,,,,,
,,,,,SPR24_87,23,Female,2024-04-24_15h01.32.948,jersey_experiment_5_v0,2023.2.2,Win32,84.03361344,,,,,,,,,,,,,,,,553.9163,554.9576,554.9577,557.432,return,1.0589,,26.04166667,,,,,,FBP-YG-71.png,0.37,1.2,17,0.25,0,36,36,16,1,,,,,,,,,,,,,,,,,,,,,,,,,,,,,,,,,,,,,,,,
,,,,,SPR24_87,23,Female,2024-04-24_15h01.32.948,jersey_experiment_5_v0,2023.2.2,Win32,84.03361344,,,,,,,,,,,,,,,,557.4321,558.7265,558.7265,561.7108,return,1.1221,,99.21875,,,,,,FBP-RB-91.png,0.4,1.2,43,0.5,0,37,37,42,1,,,,,,,,,,,,,,,,,,,,,,,,,,,,,,,,,,,,,,,,
,,,,,SPR24_87,23,Female,2024-04-24_15h01.32.948,jersey_experiment_5_v0,2023.2.2,Win32,84.03361344,,,,,,,,,,,,,,,,561.711,562.7578,562.7578,564.315,return,0.8711,,99.21875,,,,,,FBP-PT-81.png,0.43,1.2,54,0.25,0,38,38,53,1,,,,,,,,,,,,,,,,,,,,,,,,,,,,,,,,,,,,,,,,
,,,,,SPR24_87,23,Female,2024-04-24_15h01.32.948,jersey_experiment_5_v0,2023.2.2,Win32,84.03361344,,,,,,,,,,,,,,,,564.3152,565.6088,565.6088,569.0327,return,0.9886,,7.161458333,,,,,,FBP-OG-17.png,0.35,1.2,1,0.5,0,39,39,0,1,,,,,,,,,,,,,,,,,,,,,,,,,,,,,,,,,,,,,,,,
,,,,,SPR24_87,23,Female,2024-04-24_15h01.32.948,jersey_experiment_5_v0,2023.2.2,Win32,84.03361344,,,,,,,,,,,,,,,,569.0329,570.076,570.076,574.1856,return,0.7165,,23.69791667,,,,,,FBP-PT-71.png,0.35,1.2,46,0.25,0,40,40,45,1,,,,,,,,,,,,,,,,,,,,,,,,,,,,,,,,,,,,,,,,
,,,,,SPR24_87,23,Female,2024-04-24_15h01.32.948,jersey_experiment_5_v0,2023.2.2,Win32,84.03361344,,,,,,,,,,,,,,,,574.1858,575.4798,575.4798,577.8525,return,1.4537,,39.58333333,,,,,,FBP-OG-19.png,0.4,1.2,13,0.5,0,41,41,12,1,,,,,,,,,,,,,,,,,,,,,,,,,,,,,,,,,,,,,,,,
,,,,,SPR24_87,23,Female,2024-04-24_15h01.32.948,jersey_experiment_5_v0,2023.2.2,Win32,84.03361344,,,,,,,,,,,,,,,,577.8527,579.1467,579.1468,582.5467,return,0.9769,,86.58854167,,,,,,FBP-RB-91.png,0.43,1.2,44,0.5,0,42,42,43,1,,,,,,,,,,,,,,,,,,,,,,,,,,,,,,,,,,,,,,,,
,,,,,SPR24_87,23,Female,2024-04-24_15h01.32.948,jersey_experiment_5_v0,2023.2.2,Win32,84.03361344,,,,,,,,,,,,,,,,582.5469,583.594,583.594,586.4646,return,1.3201,,33.46354167,,,,,,FBP-PT-71.png,0.37,1.2,47,0.25,0,43,43,46,1,,,,,,,,,,,,,,,,,,,,,,,,,,,,,,,,,,,,,,,,
,,,,,SPR24_87,23,Female,2024-04-24_15h01.32.948,jersey_experiment_5_v0,2023.2.2,Win32,84.03361344,,,,,,,,,,,,,,,,586.4648,587.5116,587.5117,590.0999,return,0.8355,,0.520833333,,,,,,FBP-YG-91.png,0.35,1.2,26,0.25,0,44,44,25,1,,,,,,,,,,,,,,,,,,,,,,,,,,,,,,,,,,,,,,,,
,,,,,SPR24_87,23,Female,2024-04-24_15h01.32.948,jersey_experiment_5_v0,2023.2.2,Win32,84.03361344,,,,,,,,,,,,,,,,590.1001,591.1471,591.1471,593.7985,return,1.6474,,0.520833333,,,,,,FBP-YG-81.png,0.35,1.2,21,0.25,0,45,45,20,1,,,,,,,,,,,,,,,,,,,,,,,,,,,,,,,,,,,,,,,,
,,,,,SPR24_87,23,Female,2024-04-24_15h01.32.948,jersey_experiment_5_v0,2023.2.2,Win32,84.03361344,,,,,,,,,,,,,,,,593.7987,594.8451,594.8451,599.0768,return,0.8371,,99.86979167,,,,,,FBP-PT-91.png,0.43,1.2,59,0.25,0,46,46,58,1,,,,,,,,,,,,,,,,,,,,,,,,,,,,,,,,,,,,,,,,
,,,,,SPR24_87,23,Female,2024-04-24_15h01.32.948,jersey_experiment_5_v0,2023.2.2,Win32,84.03361344,,,,,,,,,,,,,,,,599.0769,600.1279,600.1279,603.2298,return,0.924,,85.28645833,,,,,,FBP-PT-91.png,0.37,1.2,57,0.25,0,47,47,56,1,,,,,,,,,,,,,,,,,,,,,,,,,,,,,,,,,,,,,,,,
,,,,,SPR24_87,23,Female,2024-04-24_15h01.32.948,jersey_experiment_5_v0,2023.2.2,Win32,84.03361344,,,,,,,,,,,,,,,,603.23,604.5241,604.5241,606.7006,return,0.8422,,85.28645833,,,,,,FBP-RB-81.png,0.4,1.2,38,0.5,0,48,48,37,1,,,,,,,,,,,,,,,,,,,,,,,,,,,,,,,,,,,,,,,,
,,,,,SPR24_87,23,Female,2024-04-24_15h01.32.948,jersey_experiment_5_v0,2023.2.2,Win32,84.03361344,,,,,,,,,,,,,,,,606.7007,607.7476,607.7477,611.4929,return,1.5883,,98.828125,,,,,,FBP-YG-91.png,0.4,1.2,28,0.25,0,49,49,27,1,,,,,,,,,,,,,,,,,,,,,,,,,,,,,,,,,,,,,,,,
,,,,,SPR24_87,23,Female,2024-04-24_15h01.32.948,jersey_experiment_5_v0,2023.2.2,Win32,84.03361344,,,,,,,,,,,,,,,,611.493,612.536,612.536,614.1713,return,0.7969,,98.828125,,,,,,FBP-PT-91.png,0.45,1.2,60,0.25,0,50,50,59,1,,,,,,,,,,,,,,,,,,,,,,,,,,,,,,,,,,,,,,,,
,,,,,SPR24_87,23,Female,2024-04-24_15h01.32.948,jersey_experiment_5_v0,2023.2.2,Win32,84.03361344,,,,,,,,,,,,,,,,614.1715,615.2184,615.2185,622.4188,return,4.8483,,9.375,,,,,,FBP-PT-91.png,0.35,1.2,56,0.25,0,51,51,55,1,,,,,,,,,,,,,,,,,,,,,,,,,,,,,,,,,,,,,,,,
,,,,,SPR24_87,23,Female,2024-04-24_15h01.32.948,jersey_experiment_5_v0,2023.2.2,Win32,84.03361344,,,,,,,,,,,,,,,,622.4229,623.7187,623.7187,626.058,return,1.0121,,26.5625,,,,,,FBP-RB-71.png,0.35,1.2,31,0.5,0,52,52,30,1,,,,,,,,,,,,,,,,,,,,,,,,,,,,,,,,,,,,,,,,
,,,,,SPR24_87,23,Female,2024-04-24_15h01.32.948,jersey_experiment_5_v0,2023.2.2,Win32,84.03361344,,,,,,,,,,,,,,,,626.0582,627.105,627.105,630.2917,return,1.0336,,99.73958333,,,,,,FBP-YG-91.png,0.45,1.2,30,0.25,0,53,53,29,1,,,,,,,,,,,,,,,,,,,,,,,,,,,,,,,,,,,,,,,,
,,,,,SPR24_87,23,Female,2024-04-24_15h01.32.948,jersey_experiment_5_v0,2023.2.2,Win32,84.03361344,,,,,,,,,,,,,,,,630.292,631.5838,631.5838,634.1645,return,0.9548,,38.54166667,,,,,,FBP-OG-19.png,0.37,1.2,12,0.5,0,54,54,11,1,,,,,,,,,,,,,,,,,,,,,,,,,,,,,,,,,,,,,,,,
,,,,,SPR24_87,23,Female,2024-04-24_15h01.32.948,jersey_experiment_5_v0,2023.2.2,Win32,84.03361344,,,,,,,,,,,,,,,,634.1646,635.2074,635.2075,639.3395,return,0.9633,,61.71875,,,,,,FBP-YG-91.png,0.37,1.2,27,0.25,0,55,55,26,1,,,,,,,,,,,,,,,,,,,,,,,,,,,,,,,,,,,,,,,,
,,,,,SPR24_87,23,Female,2024-04-24_15h01.32.948,jersey_experiment_5_v0,2023.2.2,Win32,84.03361344,,,,,,,,,,,,,,,,639.3397,640.6312,640.6312,642.9608,return,0.9548,,82.16145833,,,,,,FBP-RB-71.png,0.43,1.2,34,0.5,0,56,56,33,1,,,,,,,,,,,,,,,,,,,,,,,,,,,,,,,,,,,,,,,,
,,,,,SPR24_87,23,Female,2024-04-24_15h01.32.948,jersey_experiment_5_v0,2023.2.2,Win32,84.03361344,,,,,,,,,,,,,,,,642.9609,644.2586,644.2586,647.149,return,1.0043,,99.34895833,,,,,,FBP-RB-71.png,0.45,1.2,35,0.5,0,57,57,34,1,,,,,,,,,,,,,,,,,,,,,,,,,,,,,,,,,,,,,,,,
,,,,,SPR24_87,23,Female,2024-04-24_15h01.32.948,jersey_experiment_5_v0,2023.2.2,Win32,84.03361344,,,,,,,,,,,,,,,,647.1492,648.2017,648.2018,650.7727,return,0.8709,,70.83333333,,,,,,FBP-PT-81.png,0.37,1.2,52,0.25,0,58,58,51,1,,,,,,,,,,,,,,,,,,,,,,,,,,,,,,,,,,,,,,,,
,,,,,SPR24_87,23,Female,2024-04-24_15h01.32.948,jersey_experiment_5_v0,2023.2.2,Win32,84.03361344,,,,,,,,,,,,,,,,650.7728,652.0668,652.0669,654.2905,return,0.6962,,74.34895833,,,,,,FBP-OG-19.png,0.43,1.2,14,0.5,0,59,59,13,1,,,,,,,,,,,,,,,,,,,,,,,,,,,,,,,,,,,,,,,,
,,,,,SPR24_87,23,Female,2024-04-24_15h01.32.948,jersey_experiment_5_v0,2023.2.2,Win32,84.03361344,,,,,,,,,,,,,,,,,,,,,,,,,,,,,,,,,,,,,,,654.2908,774.2834,,,,,,,,,,,,,,,,,,,,,,,,,,,,,,,,,,,,,,
,,,,,SPR24_87,23,Female,2024-04-24_15h01.32.948,jersey_experiment_5_v0,2023.2.2,Win32,84.03361344,,,,,,,,,,,,,,,,,,,,,,,,,,,,,,,,,,,,,,,,,774.2835,776.9234,return,2.6265,,,,,,,,,,,,,,,,,,,,,,,,,,,,,,,,,,
,,,,,SPR24_87,23,Female,2024-04-24_15h01.32.948,jersey_experiment_5_v0,2023.2.2,Win32,84.03361344,,,,,,,,,,,,,,,,776.9296,777.9815,777.9816,783.5342,return,2.6132,,1.432291667,,,,,,FBP-RB-17.png,0.35,1.2,31,0.25,,,,,,,,,,,,,0,0,0,30,1,,,,,,,,,,,,,,,,,,,,,,,,,,,,
,,,,,SPR24_87,23,Female,2024-04-24_15h01.32.948,jersey_experiment_5_v0,2023.2.2,Win32,84.03361344,,,,,,,,,,,,,,,,783.5344,784.5774,784.5774,788.0128,return,1.1354,,64.19270833,,,,,,FBP-OG-91.png,0.35,1.2,11,0.25,,,,,,,,,,,,,0,1,1,10,1,,,,,,,,,,,,,,,,,,,,,,,,,,,,
,,,,,SPR24_87,23,Female,2024-04-24_15h01.32.948,jersey_experiment_5_v0,2023.2.2,Win32,84.03361344,,,,,,,,,,,,,,,,788.013,789.0599,789.0599,792.5232,return,1.2222,,94.79166667,,,,,,FBP-OG-91.png,0.45,1.2,15,0.25,,,,,,,,,,,,,0,2,2,14,1,,,,,,,,,,,,,,,,,,,,,,,,,,,,
,,,,,SPR24_87,23,Female,2024-04-24_15h01.32.948,jersey_experiment_5_v0,2023.2.2,Win32,84.03361344,,,,,,,,,,,,,,,,792.5233,793.8168,793.8169,796.0055,return,0.953,,98.4375,,,,,,FBP-YG-18.png,0.43,1.2,24,0.5,,,,,,,,,,,,,0,3,3,23,1,,,,,,,,,,,,,,,,,,,,,,,,,,,,
,,,,,SPR24_87,23,Female,2024-04-24_15h01.32.948,jersey_experiment_5_v0,2023.2.2,Win32,84.03361344,,,,,,,,,,,,,,,,796.0056,797.3129,797.3129,800.0057,return,1.2477,,36.71875,,,,,,FBP-PT-19.png,0.35,1.2,56,0.5,,,,,,,,,,,,,0,4,4,55,1,,,,,,,,,,,,,,,,,,,,,,,,,,,,
,,,,,SPR24_87,23,Female,2024-04-24_15h01.32.948,jersey_experiment_5_v0,2023.2.2,Win32,84.03361344,,,,,,,,,,,,,,,,800.006,801.3014,801.3014,804.6292,return,2.5309,,66.66666667,,,,,,FBP-YG-19.png,0.37,1.2,27,0.5,,,,,,,,,,,,,0,5,5,26,1,,,,,,,,,,,,,,,,,,,,,,,,,,,,
,,,,,SPR24_87,23,Female,2024-04-24_15h01.32.948,jersey_experiment_5_v0,2023.2.2,Win32,84.03361344,,,,,,,,,,,,,,,,804.6294,805.6763,805.6763,808.6724,return,0.9437,,67.31770833,,,,,,FBP-RB-18.png,0.37,1.2,37,0.25,,,,,,,,,,,,,0,6,6,36,1,,,,,,,,,,,,,,,,,,,,,,,,,,,,
,,,,,SPR24_87,23,Female,2024-04-24_15h01.32.948,jersey_experiment_5_v0,2023.2.2,Win32,84.03361344,,,,,,,,,,,,,,,,808.6728,809.7237,809.7237,812.7353,return,0.787,,99.609375,,,,,,FBP-RB-19.png,0.43,1.2,44,0.25,,,,,,,,,,,,,0,7,7,43,1,,,,,,,,,,,,,,,,,,,,,,,,,,,,
,,,,,SPR24_87,23,Female,2024-04-24_15h01.32.948,jersey_experiment_5_v0,2023.2.2,Win32,84.03361344,,,,,,,,,,,,,,,,812.7354,813.7786,813.7786,816.7943,return,1.0241,,72.13541667,,,,,,FBP-RB-17.png,0.37,1.2,32,0.25,,,,,,,,,,,,,0,8,8,31,1,,,,,,,,,,,,,,,,,,,,,,,,,,,,
,,,,,SPR24_87,23,Female,2024-04-24_15h01.32.948,jersey_experiment_5_v0,2023.2.2,Win32,84.03361344,,,,,,,,,,,,,,,,816.7944,817.8376,817.8377,820.7575,return,0.9407,,90.10416667,,,,,,FBP-OG-71.png,0.43,1.2,4,0.25,,,,,,,,,,,,,0,9,9,3,1,,,,,,,,,,,,,,,,,,,,,,,,,,,,
,,,,,SPR24_87,23,Female,2024-04-24_15h01.32.948,jersey_experiment_5_v0,2023.2.2,Win32,84.03361344,,,,,,,,,,,,,,,,820.7576,821.8023,821.8025,825.0652,return,1.5663,,90.10416667,,,,,,FBP-RB-17.png,0.4,1.2,33,0.25,,,,,,,,,,,,,0,10,10,32,1,,,,,,,,,,,,,,,,,,,,,,,,,,,,
,,,,,SPR24_87,23,Female,2024-04-24_15h01.32.948,jersey_experiment_5_v0,2023.2.2,Win32,84.03361344,,,,,,,,,,,,,,,,825.0653,826.3595,826.3595,829.6028,return,0.8819,,40.88541667,,,,,,FBP-YG-18.png,0.37,1.2,22,0.5,,,,,,,,,,,,,0,11,11,21,1,,,,,,,,,,,,,,,,,,,,,,,,,,,,
,,,,,SPR24_87,23,Female,2024-04-24_15h01.32.948,jersey_experiment_5_v0,2023.2.2,Win32,84.03361344,,,,,,,,,,,,,,,,829.603,830.6536,830.6536,833.7849,return,1.1428,,70.83333333,,,,,,FBP-OG-81.png,0.43,1.2,9,0.25,,,,,,,,,,,,,0,12,12,8,1,,,,,,,,,,,,,,,,,,,,,,,,,,,,
,,,,,SPR24_87,23,Female,2024-04-24_15h01.32.948,jersey_experiment_5_v0,2023.2.2,Win32,84.03361344,,,,,,,,,,,,,,,,833.785,835.0786,835.0786,837.7498,return,0.8033,,98.69791667,,,,,,FBP-YG-17.png,0.45,1.2,20,0.5,,,,,,,,,,,,,0,13,13,19,1,,,,,,,,,,,,,,,,,,,,,,,,,,,,
,,,,,SPR24_87,23,Female,2024-04-24_15h01.32.948,jersey_experiment_5_v0,2023.2.2,Win32,84.03361344,,,,,,,,,,,,,,,,837.7498,839.0424,839.0425,840.4425,return,0.7516,,98.30729167,,,,,,FBP-PT-17.png,0.45,1.2,50,0.5,,,,,,,,,,,,,0,14,14,49,1,,,,,,,,,,,,,,,,,,,,,,,,,,,,
,,,,,SPR24_87,23,Female,2024-04-24_15h01.32.948,jersey_experiment_5_v0,2023.2.2,Win32,84.03361344,,,,,,,,,,,,,,,,840.4428,841.7379,841.738,843.0188,return,0.8587,,98.30729167,,,,,,FBP-PT-17.png,0.43,1.2,49,0.5,,,,,,,,,,,,,0,15,15,48,1,,,,,,,,,,,,,,,,,,,,,,,,,,,,
,,,,,SPR24_87,23,Female,2024-04-24_15h01.32.948,jersey_experiment_5_v0,2023.2.2,Win32,84.03361344,,,,,,,,,,,,,,,,843.0189,844.3234,844.3234,846.2189,return,0.7537,,98.30729167,,,,,,FBP-YG-18.png,0.45,1.2,25,0.5,,,,,,,,,,,,,0,16,16,24,1,,,,,,,,,,,,,,,,,,,,,,,,,,,,
,,,,,SPR24_87,23,Female,2024-04-24_15h01.32.948,jersey_experiment_5_v0,2023.2.2,Win32,84.03361344,,,,,,,,,,,,,,,,846.2189,847.523,847.523,850.5797,return,0.9537,,72.00520833,,,,,,FBP-PT-17.png,0.4,1.2,48,0.5,,,,,,,,,,,,,0,17,17,47,1,,,,,,,,,,,,,,,,,,,,,,,,,,,,
,,,,,SPR24_87,23,Female,2024-04-24_15h01.32.948,jersey_experiment_5_v0,2023.2.2,Win32,84.03361344,,,,,,,,,,,,,,,,850.58,851.8741,851.8741,854.5721,return,0.9644,,34.11458333,,,,,,FBP-PT-19.png,0.37,1.2,57,0.5,,,,,,,,,,,,,0,18,18,56,1,,,,,,,,,,,,,,,,,,,,,,,,,,,,
,,,,,SPR24_87,23,Female,2024-04-24_15h01.32.948,jersey_experiment_5_v0,2023.2.2,Win32,84.03361344,,,,,,,,,,,,,,,,854.5722,855.6191,855.6192,858.374,return,0.931,,96.875,,,,,,FBP-OG-81.png,0.45,1.2,10,0.25,,,,,,,,,,,,,0,19,19,9,1,,,,,,,,,,,,,,,,,,,,,,,,,,,,
,,,,,SPR24_87,23,Female,2024-04-24_15h01.32.948,jersey_experiment_5_v0,2023.2.2,Win32,84.03361344,,,,,,,,,,,,,,,,858.3742,859.4155,859.4156,861.8194,return,0.8015,,91.92708333,,,,,,FBP-OG-81.png,0.4,1.2,8,0.25,,,,,,,,,,,,,0,20,20,7,1,,,,,,,,,,,,,,,,,,,,,,,,,,,,
,,,,,SPR24_87,23,Female,2024-04-24_15h01.32.948,jersey_experiment_5_v0,2023.2.2,Win32,84.03361344,,,,,,,,,,,,,,,,861.8195,863.1134,863.1134,865.8548,return,0.941,,70.44270833,,,,,,FBP-PT-19.png,0.4,1.2,58,0.5,,,,,,,,,,,,,0,21,21,57,1,,,,,,,,,,,,,,,,,,,,,,,,,,,,
,,,,,SPR24_87,23,Female,2024-04-24_15h01.32.948,jersey_experiment_5_v0,2023.2.2,Win32,84.03361344,,,,,,,,,,,,,,,,865.855,866.9,866.9,869.714,return,0.8946,,33.984375,,,,,,FBP-OG-91.png,0.4,1.2,13,0.25,,,,,,,,,,,,,0,22,22,12,1,,,,,,,,,,,,,,,,,,,,,,,,,,,,
,,,,,SPR24_87,23,Female,2024-04-24_15h01.32.948,jersey_experiment_5_v0,2023.2.2,Win32,84.03361344,,,,,,,,,,,,,,,,869.7142,871.0159,871.0159,873.513,return,0.9772,,66.015625,,,,,,FBP-PT-18.png,0.43,1.2,54,0.5,,,,,,,,,,,,,0,23,23,53,1,,,,,,,,,,,,,,,,,,,,,,,,,,,,
,,,,,SPR24_87,23,Female,2024-04-24_15h01.32.948,jersey_experiment_5_v0,2023.2.2,Win32,84.03361344,,,,,,,,,,,,,,,,873.5131,874.8183,874.8183,876.8984,return,0.7884,,66.015625,,,,,,FBP-YG-19.png,0.4,1.2,28,0.5,,,,,,,,,,,,,0,24,24,27,1,,,,,,,,,,,,,,,,,,,,,,,,,,,,
,,,,,SPR24_87,23,Female,2024-04-24_15h01.32.948,jersey_experiment_5_v0,2023.2.2,Win32,84.03361344,,,,,,,,,,,,,,,,876.8986,877.9456,877.9456,883.5574,return,3.4931,,22.00520833,,,,,,FBP-RB-19.png,0.35,1.2,41,0.25,,,,,,,,,,,,,0,25,25,40,1,,,,,,,,,,,,,,,,,,,,,,,,,,,,
,,,,,SPR24_87,23,Female,2024-04-24_15h01.32.948,jersey_experiment_5_v0,2023.2.2,Win32,84.03361344,,,,,,,,,,,,,,,,883.5576,884.6084,884.6084,888.5164,return,0.837,,31.640625,,,,,,FBP-OG-71.png,0.37,1.2,2,0.25,,,,,,,,,,,,,0,26,26,1,1,,,,,,,,,,,,,,,,,,,,,,,,,,,,
,,,,,SPR24_87,23,Female,2024-04-24_15h01.32.948,jersey_experiment_5_v0,2023.2.2,Win32,84.03361344,,,,,,,,,,,,,,,,888.5165,889.5734,889.5734,892.5753,return,0.9899,,97.91666667,,,,,,FBP-RB-18.png,0.43,1.2,39,0.25,,,,,,,,,,,,,0,27,27,38,1,,,,,,,,,,,,,,,,,,,,,,,,,,,,
,,,,,SPR24_87,23,Female,2024-04-24_15h01.32.948,jersey_experiment_5_v0,2023.2.2,Win32,84.03361344,,,,,,,,,,,,,,,,892.5754,893.8675,893.8676,897.0521,return,0.9474,,80.72916667,,,,,,FBP-PT-17.png,0.37,1.2,47,0.5,,,,,,,,,,,,,0,28,28,46,1,,,,,,,,,,,,,,,,,,,,,,,,,,,,
,,,,,SPR24_87,23,Female,2024-04-24_15h01.32.948,jersey_experiment_5_v0,2023.2.2,Win32,84.03361344,,,,,,,,,,,,,,,,897.0523,898.3463,898.3463,901.4444,return,0.9295,,99.73958333,,,,,,FBP-YG-19.png,0.45,1.2,30,0.5,,,,,,,,,,,,,0,29,29,29,1,,,,,,,,,,,,,,,,,,,,,,,,,,,,
,,,,,SPR24_87,23,Female,2024-04-24_15h01.32.948,jersey_experiment_5_v0,2023.2.2,Win32,84.03361344,,,,,,,,,,,,,,,,901.4445,902.738,902.738,905.523,return,0.9771,,75.91145833,,,,,,FBP-YG-17.png,0.4,1.2,18,0.5,,,,,,,,,,,,,0,30,30,17,1,,,,,,,,,,,,,,,,,,,,,,,,,,,,
,,,,,SPR24_87,23,Female,2024-04-24_15h01.32.948,jersey_experiment_5_v0,2023.2.2,Win32,84.03361344,,,,,,,,,,,,,,,,905.5232,906.8171,906.8171,909.5983,return,0.9085,,97.52604167,,,,,,FBP-YG-18.png,0.4,1.2,23,0.5,,,,,,,,,,,,,0,31,31,22,1,,,,,,,,,,,,,,,,,,,,,,,,,,,,
,,,,,SPR24_87,23,Female,2024-04-24_15h01.32.948,jersey_experiment_5_v0,2023.2.2,Win32,84.03361344,,,,,,,,,,,,,,,,909.5985,910.6408,910.6409,913.6095,return,1.0943,,98.4375,,,,,,FBP-RB-17.png,0.45,1.2,35,0.25,,,,,,,,,,,,,0,32,32,34,1,,,,,,,,,,,,,,,,,,,,,,,,,,,,
,,,,,SPR24_87,23,Female,2024-04-24_15h01.32.948,jersey_experiment_5_v0,2023.2.2,Win32,84.03361344,,,,,,,,,,,,,,,,913.6097,914.9116,914.9116,917.3941,return,0.754,,98.69791667,,,,,,FBP-YG-19.png,0.43,1.2,29,0.5,,,,,,,,,,,,,0,33,33,28,1,,,,,,,,,,,,,,,,,,,,,,,,,,,,
,,,,,SPR24_87,23,Female,2024-04-24_15h01.32.948,jersey_experiment_5_v0,2023.2.2,Win32,84.03361344,,,,,,,,,,,,,,,,917.3942,918.4412,918.4412,920.5611,return,0.7768,,98.828125,,,,,,FBP-RB-17.png,0.43,1.2,34,0.25,,,,,,,,,,,,,0,34,34,33,1,,,,,,,,,,,,,,,,,,,,,,,,,,,,
,,,,,SPR24_87,23,Female,2024-04-24_15h01.32.948,jersey_experiment_5_v0,2023.2.2,Win32,84.03361344,,,,,,,,,,,,,,,,920.5613,921.6058,921.6059,924.457,return,0.8589,,23.4375,,,,,,FBP-RB-19.png,0.37,1.2,42,0.25,,,,,,,,,,,,,0,35,35,41,1,,,,,,,,,,,,,,,,,,,,,,,,,,,,
,,,,,SPR24_87,23,Female,2024-04-24_15h01.32.948,jersey_experiment_5_v0,2023.2.2,Win32,84.03361344,,,,,,,,,,,,,,,,924.4572,925.7629,925.7629,927.9001,return,0.7124,,29.03645833,,,,,,FBP-PT-18.png,0.37,1.2,52,0.5,,,,,,,,,,,,,0,36,36,51,1,,,,,,,,,,,,,,,,,,,,,,,,,,,,
,,,,,SPR24_87,23,Female,2024-04-24_15h01.32.948,jersey_experiment_5_v0,2023.2.2,Win32,84.03361344,,,,,,,,,,,,,,,,927.9003,928.9473,928.9474,931.3157,return,0.6808,,29.16666667,,,,,,FBP-OG-81.png,0.35,1.2,6,0.25,,,,,,,,,,,,,0,37,37,5,1,,,,,,,,,,,,,,,,,,,,,,,,,,,,
,,,,,SPR24_87,23,Female,2024-04-24_15h01.32.948,jersey_experiment_5_v0,2023.2.2,Win32,84.03361344,,,,,,,,,,,,,,,,931.3158,932.3592,932.3593,935.2122,return,1.0135,,20.05208333,,,,,,FBP-RB-18.png,0.35,1.2,36,0.25,,,,,,,,,,,,,0,38,38,35,1,,,,,,,,,,,,,,,,,,,,,,,,,,,,
,,,,,SPR24_87,23,Female,2024-04-24_15h01.32.948,jersey_experiment_5_v0,2023.2.2,Win32,84.03361344,,,,,,,,,,,,,,,,935.2123,936.269,936.269,940.0301,return,1.3692,,78.515625,,,,,,FBP-OG-71.png,0.4,1.2,3,0.25,,,,,,,,,,,,,0,39,39,2,1,,,,,,,,,,,,,,,,,,,,,,,,,,,,
,,,,,SPR24_87,23,Female,2024-04-24_15h01.32.948,jersey_experiment_5_v0,2023.2.2,Win32,84.03361344,,,,,,,,,,,,,,,,940.0302,941.0772,941.0772,944.1519,return,0.7073,,65.10416667,,,,,,FBP-RB-19.png,0.45,1.2,45,0.25,,,,,,,,,,,,,0,40,40,44,1,,,,,,,,,,,,,,,,,,,,,,,,,,,,
,,,,,SPR24_87,23,Female,2024-04-24_15h01.32.948,jersey_experiment_5_v0,2023.2.2,Win32,84.03361344,,,,,,,,,,,,,,,,944.1521,945.446,945.446,951.1952,return,4.7718,,94.79166667,,,,,,FBP-PT-19.png,0.45,1.2,60,0.5,,,,,,,,,,,,,0,41,41,59,1,,,,,,,,,,,,,,,,,,,,,,,,,,,,
,,,,,SPR24_87,23,Female,2024-04-24_15h01.32.948,jersey_experiment_5_v0,2023.2.2,Win32,84.03361344,,,,,,,,,,,,,,,,951.1992,952.5049,952.5049,954.8189,return,1.0718,,80.72916667,,,,,,FBP-PT-19.png,0.43,1.2,59,0.5,,,,,,,,,,,,,0,42,42,58,1,,,,,,,,,,,,,,,,,,,,,,,,,,,,
,,,,,SPR24_87,23,Female,2024-04-24_15h01.32.948,jersey_experiment_5_v0,2023.2.2,Win32,84.03361344,,,,,,,,,,,,,,,,954.8192,955.8659,955.8659,958.6425,return,0.9181,,99.34895833,,,,,,FBP-RB-18.png,0.45,1.2,40,0.25,,,,,,,,,,,,,0,43,43,39,1,,,,,,,,,,,,,,,,,,,,,,,,,,,,
,,,,,SPR24_87,23,Female,2024-04-24_15h01.32.948,jersey_experiment_5_v0,2023.2.2,Win32,84.03361344,,,,,,,,,,,,,,,,958.6428,959.9405,959.9405,963.231,return,0.8272,,6.770833333,,,,,,FBP-YG-19.png,0.35,1.2,26,0.5,,,,,,,,,,,,,0,44,44,25,1,,,,,,,,,,,,,,,,,,,,,,,,,,,,
,,,,,SPR24_87,23,Female,2024-04-24_15h01.32.948,jersey_experiment_5_v0,2023.2.2,Win32,84.03361344,,,,,,,,,,,,,,,,963.2311,964.5251,964.5252,968.2236,return,0.8476,,27.99479167,,,,,,FBP-YG-17.png,0.35,1.2,16,0.5,,,,,,,,,,,,,0,45,45,15,1,,,,,,,,,,,,,,,,,,,,,,,,,,,,
,,,,,SPR24_87,23,Female,2024-04-24_15h01.32.948,jersey_experiment_5_v0,2023.2.2,Win32,84.03361344,,,,,,,,,,,,,,,,968.2238,969.2665,969.2665,971.9724,return,0.8576,,98.30729167,,,,,,FBP-OG-71.png,0.45,1.2,5,0.25,,,,,,,,,,,,,0,46,46,4,1,,,,,,,,,,,,,,,,,,,,,,,,,,,,
,,,,,SPR24_87,23,Female,2024-04-24_15h01.32.948,jersey_experiment_5_v0,2023.2.2,Win32,84.03361344,,,,,,,,,,,,,,,,971.9725,973.0194,973.0195,976.5608,return,0.9414,,39.97395833,,,,,,FBP-OG-81.png,0.37,1.2,7,0.25,,,,,,,,,,,,,0,47,47,6,1,,,,,,,,,,,,,,,,,,,,,,,,,,,,
,,,,,SPR24_87,23,Female,2024-04-24_15h01.32.948,jersey_experiment_5_v0,2023.2.2,Win32,84.03361344,,,,,,,,,,,,,,,,976.561,977.8575,977.8575,980.74,return,0.8121,,95.703125,,,,,,FBP-YG-17.png,0.43,1.2,19,0.5,,,,,,,,,,,,,0,48,48,18,1,,,,,,,,,,,,,,,,,,,,,,,,,,,,
,,,,,SPR24_87,23,Female,2024-04-24_15h01.32.948,jersey_experiment_5_v0,2023.2.2,Win32,84.03361344,,,,,,,,,,,,,,,,980.74,982.0349,982.035,987.0575,return,2.5164,,15.49479167,,,,,,FBP-YG-18.png,0.35,1.2,21,0.5,,,,,,,,,,,,,0,49,49,20,1,,,,,,,,,,,,,,,,,,,,,,,,,,,,
,,,,,SPR24_87,23,Female,2024-04-24_15h01.32.948,jersey_experiment_5_v0,2023.2.2,Win32,84.03361344,,,,,,,,,,,,,,,,987.0577,988.1043,988.1044,991.2437,return,0.8772,,94.53125,,,,,,FBP-RB-19.png,0.4,1.2,43,0.25,,,,,,,,,,,,,0,50,50,42,1,,,,,,,,,,,,,,,,,,,,,,,,,,,,
,,,,,SPR24_87,23,Female,2024-04-24_15h01.32.948,jersey_experiment_5_v0,2023.2.2,Win32,84.03361344,,,,,,,,,,,,,,,,991.2439,992.5377,992.5378,995.248,return,1.8213,,41.14583333,,,,,,FBP-PT-18.png,0.35,1.2,51,0.5,,,,,,,,,,,,,0,51,51,50,1,,,,,,,,,,,,,,,,,,,,,,,,,,,,
,,,,,SPR24_87,23,Female,2024-04-24_15h01.32.948,jersey_experiment_5_v0,2023.2.2,Win32,84.03361344,,,,,,,,,,,,,,,,995.2481,996.2909,996.291,1000.4322,return,1.8492,,65.625,,,,,,FBP-OG-91.png,0.37,1.2,12,0.25,,,,,,,,,,,,,0,52,52,11,1,,,,,,,,,,,,,,,,,,,,,,,,,,,,
,,,,,SPR24_87,23,Female,2024-04-24_15h01.32.948,jersey_experiment_5_v0,2023.2.2,Win32,84.03361344,,,,,,,,,,,,,,,,1000.4325,1001.4794,1001.4794,1003.8934,return,0.7764,,96.22395833,,,,,,FBP-RB-18.png,0.4,1.2,38,0.25,,,,,,,,,,,,,0,53,53,37,1,,,,,,,,,,,,,,,,,,,,,,,,,,,,
,,,,,SPR24_87,23,Female,2024-04-24_15h01.32.948,jersey_experiment_5_v0,2023.2.2,Win32,84.03361344,,,,,,,,,,,,,,,,1003.8935,1005.189,1005.189,1007.107,return,0.6824,,43.48958333,,,,,,FBP-YG-17.png,0.37,1.2,17,0.5,,,,,,,,,,,,,0,54,54,16,1,,,,,,,,,,,,,,,,,,,,,,,,,,,,
,,,,,SPR24_87,23,Female,2024-04-24_15h01.32.948,jersey_experiment_5_v0,2023.2.2,Win32,84.03361344,,,,,,,,,,,,,,,,1007.1071,1008.4011,1008.4011,1012.0444,return,0.7938,,43.48958333,,,,,,FBP-PT-18.png,0.4,1.2,53,0.5,,,,,,,,,,,,,0,55,55,52,1,,,,,,,,,,,,,,,,,,,,,,,,,,,,
,,,,,SPR24_87,23,Female,2024-04-24_15h01.32.948,jersey_experiment_5_v0,2023.2.2,Win32,84.03361344,,,,,,,,,,,,,,,,1012.0446,1013.3405,1013.3405,1015.468,return,0.8769,,98.95833333,,,,,,FBP-PT-18.png,0.45,1.2,55,0.5,,,,,,,,,,,,,0,56,56,54,1,,,,,,,,,,,,,,,,,,,,,,,,,,,,
,,,,,SPR24_87,23,Female,2024-04-24_15h01.32.948,jersey_experiment_5_v0,2023.2.2,Win32,84.03361344,,,,,,,,,,,,,,,,1015.4683,1016.5151,1016.5152,1020.1271,return,1.7552,,5.46875,,,,,,FBP-OG-71.png,0.35,1.2,1,0.25,,,,,,,,,,,,,0,57,57,0,1,,,,,,,,,,,,,,,,,,,,,,,,,,,,
,,,,,SPR24_87,23,Female,2024-04-24_15h01.32.948,jersey_experiment_5_v0,2023.2.2,Win32,84.03361344,,,,,,,,,,,,,,,,1020.1273,1021.1779,1021.1779,1023.7902,return,0.7663,,99.34895833,,,,,,FBP-OG-91.png,0.43,1.2,14,0.25,,,,,,,,,,,,,0,58,58,13,1,,,,,,,,,,,,,,,,,,,,,,,,,,,,
,,,,,SPR24_87,23,Female,2024-04-24_15h01.32.948,jersey_experiment_5_v0,2023.2.2,Win32,84.03361344,,,,,,,,,,,,,,,,1023.7904,1025.0841,1025.0841,1028.0942,return,1.5055,,27.47395833,,,,,,FBP-PT-17.png,0.35,1.2,46,0.5,,,,,,,,,,,,,0,59,59,45,1,,,,,,,,,,,,,,,,,,,,,,,,,,,,
,,,,,SPR24_87,23,Female,2024-04-24_15h01.32.948,jersey_experiment_5_v0,2023.2.2,Win32,84.03361344,,,,,,,,,,,,,,,,1028.0959,1029.1391,1029.1392,1031.5902,return,0.7781,,97.00520833,,,,,,FBP-OG-17.png,0.4,1.2,3,0.25,,,,,,,,,,,,,,,,,,0,0,0,2,1,,,,,,,,,,,,,,,,,,,,,,,
,,,,,SPR24_87,23,Female,2024-04-24_15h01.32.948,jersey_experiment_5_v0,2023.2.2,Win32,84.03361344,,,,,,,,,,,,,,,,1031.5903,1032.8962,1032.8963,1034.7041,return,0.7682,,99.34895833,,,,,,FBP-YG-91.png,0.45,1.2,30,0.5,,,,,,,,,,,,,,,,,,0,1,1,29,1,,,,,,,,,,,,,,,,,,,,,,,
,,,,,SPR24_87,23,Female,2024-04-24_15h01.32.948,jersey_experiment_5_v0,2023.2.2,Win32,84.03361344,,,,,,,,,,,,,,,,1034.7043,1036.0022,1036.0022,1037.7318,return,0.7651,,99.34895833,,,,,,FBP-YG-91.png,0.43,1.2,29,0.5,,,,,,,,,,,,,,,,,,0,2,2,28,1,,,,,,,,,,,,,,,,,,,,,,,
,,,,,SPR24_87,23,Female,2024-04-24_15h01.32.948,jersey_experiment_5_v0,2023.2.2,Win32,84.03361344,,,,,,,,,,,,,,,,1037.732,1039.0239,1039.0239,1041.2496,return,0.7195,,4.166666667,,,,,,FBP-PT-81.png,0.35,1.2,51,0.5,,,,,,,,,,,,,,,,,,0,3,3,50,1,,,,,,,,,,,,,,,,,,,,,,,
,,,,,SPR24_87,23,Female,2024-04-24_15h01.32.948,jersey_experiment_5_v0,2023.2.2,Win32,84.03361344,,,,,,,,,,,,,,,,1041.2498,1042.5453,1042.5453,1044.814,return,0.7761,,79.16666667,,,,,,FBP-PT-91.png,0.4,1.2,58,0.5,,,,,,,,,,,,,,,,,,0,4,4,57,1,,,,,,,,,,,,,,,,,,,,,,,
,,,,,SPR24_87,23,Female,2024-04-24_15h01.32.948,jersey_experiment_5_v0,2023.2.2,Win32,84.03361344,,,,,,,,,,,,,,,,1044.8142,1046.1081,1046.1081,1048.7197,return,0.8702,,26.953125,,,,,,FBP-YG-91.png,0.35,1.2,26,0.5,,,,,,,,,,,,,,,,,,0,5,5,25,1,,,,,,,,,,,,,,,,,,,,,,,
,,,,,SPR24_87,23,Female,2024-04-24_15h01.32.948,jersey_experiment_5_v0,2023.2.2,Win32,84.03361344,,,,,,,,,,,,,,,,1048.7199,1050.0129,1050.0129,1051.8245,return,0.9262,,26.953125,,,,,,FBP-PT-71.png,0.35,1.2,46,0.5,,,,,,,,,,,,,,,,,,0,6,6,45,1,,,,,,,,,,,,,,,,,,,,,,,
,,,,,SPR24_87,23,Female,2024-04-24_15h01.32.948,jersey_experiment_5_v0,2023.2.2,Win32,84.03361344,,,,,,,,,,,,,,,,1051.8246,1053.1165,1053.1166,1055.3086,return,0.8469,,33.46354167,,,,,,FBP-YG-81.png,0.35,1.2,21,0.5,,,,,,,,,,,,,,,,,,0,7,7,20,1,,,,,,,,,,,,,,,,,,,,,,,
,,,,,SPR24_87,23,Female,2024-04-24_15h01.32.948,jersey_experiment_5_v0,2023.2.2,Win32,84.03361344,,,,,,,,,,,,,,,,1055.3088,1056.3518,1056.3518,1059.105,return,0.9436,,99.86979167,,,,,,FBP-RB-71.png,0.43,1.2,34,0.25,,,,,,,,,,,,,,,,,,0,8,8,33,1,,,,,,,,,,,,,,,,,,,,,,,
,,,,,SPR24_87,23,Female,2024-04-24_15h01.32.948,jersey_experiment_5_v0,2023.2.2,Win32,84.03361344,,,,,,,,,,,,,,,,1059.1052,1060.4028,1060.4028,1062.2975,return,0.8118,,99.86979167,,,,,,FBP-PT-81.png,0.43,1.2,54,0.5,,,,,,,,,,,,,,,,,,0,9,9,53,1,,,,,,,,,,,,,,,,,,,,,,,
,,,,,SPR24_87,23,Female,2024-04-24_15h01.32.948,jersey_experiment_5_v0,2023.2.2,Win32,84.03361344,,,,,,,,,,,,,,,,1062.2976,1063.3404,1063.3404,1066.6345,return,0.7255,,97.91666667,,,,,,FBP-OG-18.png,0.43,1.2,9,0.25,,,,,,,,,,,,,,,,,,0,10,10,8,1,,,,,,,,,,,,,,,,,,,,,,,
,,,,,SPR24_87,23,Female,2024-04-24_15h01.32.948,jersey_experiment_5_v0,2023.2.2,Win32,84.03361344,,,,,,,,,,,,,,,,1066.6348,1067.9288,1067.9288,1070.2973,return,0.7984,,40.10416667,,,,,,FBP-PT-71.png,0.37,1.2,47,0.5,,,,,,,,,,,,,,,,,,0,11,11,46,1,,,,,,,,,,,,,,,,,,,,,,,
,,,,,SPR24_87,23,Female,2024-04-24_15h01.32.948,jersey_experiment_5_v0,2023.2.2,Win32,84.03361344,,,,,,,,,,,,,,,,1070.2975,1071.3407,1071.3408,1077.0136,return,2.575,,94.01041667,,,,,,FBP-RB-81.png,0.4,1.2,38,0.25,,,,,,,,,,,,,,,,,,0,12,12,37,1,,,,,,,,,,,,,,,,,,,,,,,
,,,,,SPR24_87,23,Female,2024-04-24_15h01.32.948,jersey_experiment_5_v0,2023.2.2,Win32,84.03361344,,,,,,,,,,,,,,,,1077.0137,1078.0622,1078.0622,1080.941,return,0.7816,,33.46354167,,,,,,FBP-RB-91.png,0.37,1.2,42,0.25,,,,,,,,,,,,,,,,,,0,13,13,41,1,,,,,,,,,,,,,,,,,,,,,,,
,,,,,SPR24_87,23,Female,2024-04-24_15h01.32.948,jersey_experiment_5_v0,2023.2.2,Win32,84.03361344,,,,,,,,,,,,,,,,1080.9412,1082.2351,1082.2352,1084.263,return,0.7316,,81.77083333,,,,,,FBP-YG-71.png,0.43,1.2,19,0.5,,,,,,,,,,,,,,,,,,0,14,14,18,1,,,,,,,,,,,,,,,,,,,,,,,
,,,,,SPR24_87,23,Female,2024-04-24_15h01.32.948,jersey_experiment_5_v0,2023.2.2,Win32,84.03361344,,,,,,,,,,,,,,,,1084.2631,1085.5701,1085.5701,1087.2627,return,0.7411,,99.21875,,,,,,FBP-YG-71.png,0.45,1.2,20,0.5,,,,,,,,,,,,,,,,,,0,15,15,19,1,,,,,,,,,,,,,,,,,,,,,,,
,,,,,SPR24_87,23,Female,2024-04-24_15h01.32.948,jersey_experiment_5_v0,2023.2.2,Win32,84.03361344,,,,,,,,,,,,,,,,1087.2628,1088.3059,1088.306,1089.9688,return,0.753,,97.78645833,,,,,,FBP-OG-17.png,0.43,1.2,4,0.25,,,,,,,,,,,,,,,,,,0,16,16,3,1,,,,,,,,,,,,,,,,,,,,,,,
,,,,,SPR24_87,23,Female,2024-04-24_15h01.32.948,jersey_experiment_5_v0,2023.2.2,Win32,84.03361344,,,,,,,,,,,,,,,,1089.969,1091.2628,1091.2628,1093.3454,return,0.7762,,97.78645833,,,,,,FBP-PT-81.png,0.4,1.2,53,0.5,,,,,,,,,,,,,,,,,,0,17,17,52,1,,,,,,,,,,,,,,,,,,,,,,,
,,,,,SPR24_87,23,Female,2024-04-24_15h01.32.948,jersey_experiment_5_v0,2023.2.2,Win32,84.03361344,,,,,,,,,,,,,,,,1093.3456,1094.6397,1094.6398,1097.1443,return,0.8811,,30.859375,,,,,,FBP-YG-81.png,0.37,1.2,22,0.5,,,,,,,,,,,,,,,,,,0,18,18,21,1,,,,,,,,,,,,,,,,,,,,,,,
,,,,,SPR24_87,23,Female,2024-04-24_15h01.32.948,jersey_experiment_5_v0,2023.2.2,Win32,84.03361344,,,,,,,,,,,,,,,,1097.1444,1098.1928,1098.1928,1099.7708,return,0.7192,,28.77604167,,,,,,FBP-OG-18.png,0.35,1.2,6,0.25,,,,,,,,,,,,,,,,,,0,19,19,5,1,,,,,,,,,,,,,,,,,,,,,,,
,,,,,SPR24_87,23,Female,2024-04-24_15h01.32.948,jersey_experiment_5_v0,2023.2.2,Win32,84.03361344,,,,,,,,,,,,,,,,1099.7709,1100.8124,1100.8124,1102.8045,return,0.8338,,28.64583333,,,,,,FBP-OG-18.png,0.37,1.2,7,0.25,,,,,,,,,,,,,,,,,,0,20,20,6,1,,,,,,,,,,,,,,,,,,,,,,,
,,,,,SPR24_87,23,Female,2024-04-24_15h01.32.948,jersey_experiment_5_v0,2023.2.2,Win32,84.03361344,,,,,,,,,,,,,,,,1102.8046,1103.8517,1103.8517,1106.7457,return,0.9999,,95.05208333,,,,,,FBP-RB-91.png,0.4,1.2,43,0.25,,,,,,,,,,,,,,,,,,0,21,21,42,1,,,,,,,,,,,,,,,,,,,,,,,
,,,,,SPR24_87,23,Female,2024-04-24_15h01.32.948,jersey_experiment_5_v0,2023.2.2,Win32,84.03361344,,,,,,,,,,,,,,,,1106.7458,1107.789,1107.789,1111.5068,return,0.6356,,39.84375,,,,,,FBP-RB-71.png,0.35,1.2,31,0.25,,,,,,,,,,,,,,,,,,0,22,22,30,1,,,,,,,,,,,,,,,,,,,,,,,
,,,,,SPR24_87,23,Female,2024-04-24_15h01.32.948,jersey_experiment_5_v0,2023.2.2,Win32,84.03361344,,,,,,,,,,,,,,,,1111.5069,1112.8051,1112.8051,1115.1215,return,0.8697,,82.03125,,,,,,FBP-YG-91.png,0.4,1.2,28,0.5,,,,,,,,,,,,,,,,,,0,23,23,27,1,,,,,,,,,,,,,,,,,,,,,,,
,,,,,SPR24_87,23,Female,2024-04-24_15h01.32.948,jersey_experiment_5_v0,2023.2.2,Win32,84.03361344,,,,,,,,,,,,,,,,1115.1217,1116.1658,1116.1658,1118.0482,return,0.6136,,82.03125,,,,,,FBP-RB-81.png,0.37,1.2,37,0.25,,,,,,,,,,,,,,,,,,0,24,24,36,1,,,,,,,,,,,,,,,,,,,,,,,
,,,,,SPR24_87,23,Female,2024-04-24_15h01.32.948,jersey_experiment_5_v0,2023.2.2,Win32,84.03361344,,,,,,,,,,,,,,,,1118.0484,1119.3424,1119.3424,1121.3701,return,0.7546,,96.875,,,,,,FBP-PT-71.png,0.45,1.2,50,0.5,,,,,,,,,,,,,,,,,,0,25,25,49,1,,,,,,,,,,,,,,,,,,,,,,,
,,,,,SPR24_87,23,Female,2024-04-24_15h01.32.948,jersey_experiment_5_v0,2023.2.2,Win32,84.03361344,,,,,,,,,,,,,,,,1121.3703,1122.4131,1122.4131,1124.2249,return,0.6834,,96.875,,,,,,FBP-OG-17.png,0.45,1.2,5,0.25,,,,,,,,,,,,,,,,,,0,26,26,4,1,,,,,,,,,,,,,,,,,,,,,,,
,,,,,SPR24_87,23,Female,2024-04-24_15h01.32.948,jersey_experiment_5_v0,2023.2.2,Win32,84.03361344,,,,,,,,,,,,,,,,1124.225,1125.2719,1125.2719,1127.9544,return,0.7544,,67.578125,,,,,,FBP-RB-71.png,0.37,1.2,32,0.25,,,,,,,,,,,,,,,,,,0,27,27,31,1,,,,,,,,,,,,,,,,,,,,,,,
,,,,,SPR24_87,23,Female,2024-04-24_15h01.32.948,jersey_experiment_5_v0,2023.2.2,Win32,84.03361344,,,,,,,,,,,,,,,,1127.9546,1129.0014,1129.0014,1131.2745,return,0.716,,61.84895833,,,,,,FBP-OG-18.png,0.4,1.2,8,0.25,,,,,,,,,,,,,,,,,,0,28,28,7,1,,,,,,,,,,,,,,,,,,,,,,,
,,,,,SPR24_87,23,Female,2024-04-24_15h01.32.948,jersey_experiment_5_v0,2023.2.2,Win32,84.03361344,,,,,,,,,,,,,,,,1131.2746,1132.3192,1132.3192,1135.5312,return,1.7127,,38.15104167,,,,,,FBP-OG-19.png,0.37,1.2,12,0.25,,,,,,,,,,,,,,,,,,0,29,29,11,1,,,,,,,,,,,,,,,,,,,,,,,
,,,,,SPR24_87,23,Female,2024-04-24_15h01.32.948,jersey_experiment_5_v0,2023.2.2,Win32,84.03361344,,,,,,,,,,,,,,,,1135.5314,1136.5783,1136.5783,1139.6178,return,0.9065,,67.05729167,,,,,,FBP-OG-19.png,0.45,1.2,15,0.25,,,,,,,,,,,,,,,,,,0,30,30,14,1,,,,,,,,,,,,,,,,,,,,,,,
,,,,,SPR24_87,23,Female,2024-04-24_15h01.32.948,jersey_experiment_5_v0,2023.2.2,Win32,84.03361344,,,,,,,,,,,,,,,,1139.618,1140.6608,1140.6608,1143.1315,return,0.7714,,26.30208333,,,,,,FBP-OG-17.png,0.37,1.2,2,0.25,,,,,,,,,,,,,,,,,,0,31,31,1,1,,,,,,,,,,,,,,,,,,,,,,,
,,,,,SPR24_87,23,Female,2024-04-24_15h01.32.948,jersey_experiment_5_v0,2023.2.2,Win32,84.03361344,,,,,,,,,,,,,,,,1143.1317,1144.4256,1144.4256,1146.3315,return,0.724,,63.54166667,,,,,,FBP-PT-91.png,0.45,1.2,60,0.5,,,,,,,,,,,,,,,,,,0,32,32,59,1,,,,,,,,,,,,,,,,,,,,,,,
,,,,,SPR24_87,23,Female,2024-04-24_15h01.32.948,jersey_experiment_5_v0,2023.2.2,Win32,84.03361344,,,,,,,,,,,,,,,,1146.3318,1147.6257,1147.6257,1149.3434,return,0.6733,,63.54166667,,,,,,FBP-PT-71.png,0.43,1.2,49,0.5,,,,,,,,,,,,,,,,,,0,33,33,48,1,,,,,,,,,,,,,,,,,,,,,,,
,,,,,SPR24_87,23,Female,2024-04-24_15h01.32.948,jersey_experiment_5_v0,2023.2.2,Win32,84.03361344,,,,,,,,,,,,,,,,1149.3437,1150.6375,1150.6376,1153.4181,return,0.7509,,1.692708333,,,,,,FBP-PT-91.png,0.35,1.2,56,0.5,,,,,,,,,,,,,,,,,,0,34,34,55,1,,,,,,,,,,,,,,,,,,,,,,,
,,,,,SPR24_87,23,Female,2024-04-24_15h01.32.948,jersey_experiment_5_v0,2023.2.2,Win32,84.03361344,,,,,,,,,,,,,,,,1153.4183,1154.7201,1154.7202,1157.1789,return,0.6525,,27.60416667,,,,,,FBP-PT-81.png,0.37,1.2,52,0.5,,,,,,,,,,,,,,,,,,0,35,35,51,1,,,,,,,,,,,,,,,,,,,,,,,
,,,,,SPR24_87,23,Female,2024-04-24_15h01.32.948,jersey_experiment_5_v0,2023.2.2,Win32,84.03361344,,,,,,,,,,,,,,,,1157.1791,1158.2261,1158.2261,1161.2261,return,0.7726,,80.72916667,,,,,,FBP-RB-71.png,0.4,1.2,33,0.25,,,,,,,,,,,,,,,,,,0,36,36,32,1,,,,,,,,,,,,,,,,,,,,,,,
,,,,,SPR24_87,23,Female,2024-04-24_15h01.32.948,jersey_experiment_5_v0,2023.2.2,Win32,84.03361344,,,,,,,,,,,,,,,,1161.2263,1162.5254,1162.5254,1165.0029,return,0.7014,,69.53125,,,,,,FBP-PT-71.png,0.4,1.2,48,0.5,,,,,,,,,,,,,,,,,,0,37,37,47,1,,,,,,,,,,,,,,,,,,,,,,,
,,,,,SPR24_87,23,Female,2024-04-24_15h01.32.948,jersey_experiment_5_v0,2023.2.2,Win32,84.03361344,,,,,,,,,,,,,,,,1165.003,1166.0499,1166.0499,1168.7716,return,0.7753,,99.609375,,,,,,FBP-RB-91.png,0.45,1.2,45,0.25,,,,,,,,,,,,,,,,,,0,38,38,44,1,,,,,,,,,,,,,,,,,,,,,,,
,,,,,SPR24_87,23,Female,2024-04-24_15h01.32.948,jersey_experiment_5_v0,2023.2.2,Win32,84.03361344,,,,,,,,,,,,,,,,1168.7719,1170.0736,1170.0736,1171.9208,return,0.7076,,99.609375,,,,,,FBP-PT-81.png,0.45,1.2,55,0.5,,,,,,,,,,,,,,,,,,0,39,39,54,1,,,,,,,,,,,,,,,,,,,,,,,
,,,,,SPR24_87,23,Female,2024-04-24_15h01.32.948,jersey_experiment_5_v0,2023.2.2,Win32,84.03361344,,,,,,,,,,,,,,,,1171.9209,1172.9701,1172.9701,1175.1208,return,0.7438,,99.609375,,,,,,FBP-RB-91.png,0.43,1.2,44,0.25,,,,,,,,,,,,,,,,,,0,40,40,43,1,,,,,,,,,,,,,,,,,,,,,,,
,,,,,SPR24_87,23,Female,2024-04-24_15h01.32.948,jersey_experiment_5_v0,2023.2.2,Win32,84.03361344,,,,,,,,,,,,,,,,1175.1209,1176.4149,1176.4149,1178.3719,return,0.6836,,99.609375,,,,,,FBP-YG-81.png,0.43,1.2,24,0.5,,,,,,,,,,,,,,,,,,0,41,41,23,1,,,,,,,,,,,,,,,,,,,,,,,
,,,,,SPR24_87,23,Female,2024-04-24_15h01.32.948,jersey_experiment_5_v0,2023.2.2,Win32,84.03361344,,,,,,,,,,,,,,,,1178.372,1179.4152,1179.4152,1182.7138,return,0.8373,,61.19791667,,,,,,FBP-OG-19.png,0.4,1.2,13,0.25,,,,,,,,,,,,,,,,,,0,42,42,12,1,,,,,,,,,,,,,,,,,,,,,,,
,,,,,SPR24_87,23,Female,2024-04-24_15h01.32.948,jersey_experiment_5_v0,2023.2.2,Win32,84.03361344,,,,,,,,,,,,,,,,1182.714,1183.7565,1183.7565,1185.9723,return,0.9768,,61.19791667,,,,,,FBP-OG-18.png,0.45,1.2,10,0.25,,,,,,,,,,,,,,,,,,0,43,43,9,1,,,,,,,,,,,,,,,,,,,,,,,
,,,,,SPR24_87,23,Female,2024-04-24_15h01.32.948,jersey_experiment_5_v0,2023.2.2,Win32,84.03361344,,,,,,,,,,,,,,,,1185.9724,1187.2779,1187.2779,1190.4429,return,1.6238,,32.29166667,,,,,,FBP-PT-91.png,0.37,1.2,57,0.5,,,,,,,,,,,,,,,,,,0,44,44,56,1,,,,,,,,,,,,,,,,,,,,,,,
,,,,,SPR24_87,23,Female,2024-04-24_15h01.32.948,jersey_experiment_5_v0,2023.2.2,Win32,84.03361344,,,,,,,,,,,,,,,,1190.4431,1191.7357,1191.7357,1194.2863,return,0.8642,,25.390625,,,,,,FBP-YG-71.png,0.37,1.2,17,0.5,,,,,,,,,,,,,,,,,,0,45,45,16,1,,,,,,,,,,,,,,,,,,,,,,,
,,,,,SPR24_87,23,Female,2024-04-24_15h01.32.948,jersey_experiment_5_v0,2023.2.2,Win32,84.03361344,,,,,,,,,,,,,,,,1194.2865,1195.5863,1195.5863,1198.1099,return,0.7921,,0.78125,,,,,,FBP-YG-71.png,0.35,1.2,16,0.5,,,,,,,,,,,,,,,,,,0,46,46,15,1,,,,,,,,,,,,,,,,,,,,,,,
,,,,,SPR24_87,23,Female,2024-04-24_15h01.32.948,jersey_experiment_5_v0,2023.2.2,Win32,84.03361344,,,,,,,,,,,,,,,,1198.1101,1199.157,1199.157,1201.6774,return,0.9634,,1.5625,,,,,,FBP-RB-81.png,0.35,1.2,36,0.25,,,,,,,,,,,,,,,,,,0,47,47,35,1,,,,,,,,,,,,,,,,,,,,,,,
,,,,,SPR24_87,23,Female,2024-04-24_15h01.32.948,jersey_experiment_5_v0,2023.2.2,Win32,84.03361344,,,,,,,,,,,,,,,,1201.6776,1202.9707,1202.9707,1205.81,return,0.9429,,80.20833333,,,,,,FBP-YG-81.png,0.45,1.2,25,0.5,,,,,,,,,,,,,,,,,,0,48,48,24,1,,,,,,,,,,,,,,,,,,,,,,,
,,,,,SPR24_87,23,Female,2024-04-24_15h01.32.948,jersey_experiment_5_v0,2023.2.2,Win32,84.03361344,,,,,,,,,,,,,,,,1205.8101,1207.1103,1207.1103,1209.4202,return,0.8827,,70.57291667,,,,,,FBP-YG-81.png,0.4,1.2,23,0.5,,,,,,,,,,,,,,,,,,0,49,49,22,1,,,,,,,,,,,,,,,,,,,,,,,
,,,,,SPR24_87,23,Female,2024-04-24_15h01.32.948,jersey_experiment_5_v0,2023.2.2,Win32,84.03361344,,,,,,,,,,,,,,,,1209.4202,1210.4633,1210.4633,1213.185,return,0.8943,,98.95833333,,,,,,FBP-RB-81.png,0.43,1.2,39,0.25,,,,,,,,,,,,,,,,,,0,50,50,38,1,,,,,,,,,,,,,,,,,,,,,,,
,,,,,SPR24_87,23,Female,2024-04-24_15h01.32.948,jersey_experiment_5_v0,2023.2.2,Win32,84.03361344,,,,,,,,,,,,,,,,1213.1852,1214.487,1214.487,1217.1694,return,0.8005,,99.47916667,,,,,,FBP-PT-91.png,0.43,1.2,59,0.5,,,,,,,,,,,,,,,,,,0,51,51,58,1,,,,,,,,,,,,,,,,,,,,,,,
,,,,,SPR24_87,23,Female,2024-04-24_15h01.32.948,jersey_experiment_5_v0,2023.2.2,Win32,84.03361344,,,,,,,,,,,,,,,,1217.1696,1218.2164,1218.2164,1219.9812,return,0.734,,99.34895833,,,,,,FBP-RB-71.png,0.45,1.2,35,0.25,,,,,,,,,,,,,,,,,,0,52,52,34,1,,,,,,,,,,,,,,,,,,,,,,,
,,,,,SPR24_87,23,Female,2024-04-24_15h01.32.948,jersey_experiment_5_v0,2023.2.2,Win32,84.03361344,,,,,,,,,,,,,,,,1219.9814,1221.032,1221.032,1223.0558,return,0.8237,,99.34895833,,,,,,FBP-RB-81.png,0.45,1.2,40,0.25,,,,,,,,,,,,,,,,,,0,53,53,39,1,,,,,,,,,,,,,,,,,,,,,,,
,,,,,SPR24_87,23,Female,2024-04-24_15h01.32.948,jersey_experiment_5_v0,2023.2.2,Win32,84.03361344,,,,,,,,,,,,,,,,1223.056,1224.0991,1224.0991,1226.158,return,0.7329,,99.34895833,,,,,,FBP-OG-19.png,0.43,1.2,14,0.25,,,,,,,,,,,,,,,,,,0,54,54,13,1,,,,,,,,,,,,,,,,,,,,,,,
,,,,,SPR24_87,23,Female,2024-04-24_15h01.32.948,jersey_experiment_5_v0,2023.2.2,Win32,84.03361344,,,,,,,,,,,,,,,,1226.1581,1227.205,1227.205,1229.4881,return,0.7499,,0.130208333,,,,,,FBP-OG-17.png,0.35,1.2,1,0.25,,,,,,,,,,,,,,,,,,0,55,55,0,1,,,,,,,,,,,,,,,,,,,,,,,
,,,,,SPR24_87,23,Female,2024-04-24_15h01.32.948,jersey_experiment_5_v0,2023.2.2,Win32,84.03361344,,,,,,,,,,,,,,,,1229.4883,1230.5345,1230.5346,1232.3817,return,0.6511,,1.041666667,,,,,,FBP-RB-91.png,0.35,1.2,41,0.25,,,,,,,,,,,,,,,,,,0,56,56,40,1,,,,,,,,,,,,,,,,,,,,,,,
,,,,,SPR24_87,23,Female,2024-04-24_15h01.32.948,jersey_experiment_5_v0,2023.2.2,Win32,84.03361344,,,,,,,,,,,,,,,,1232.3819,1233.6758,1233.6759,1236.2095,return,0.6578,,20.57291667,,,,,,FBP-YG-91.png,0.37,1.2,27,0.5,,,,,,,,,,,,,,,,,,0,57,57,26,1,,,,,,,,,,,,,,,,,,,,,,,
,,,,,SPR24_87,23,Female,2024-04-24_15h01.32.948,jersey_experiment_5_v0,2023.2.2,Win32,84.03361344,,,,,,,,,,,,,,,,1236.2096,1237.5113,1237.5114,1240.1136,return,0.7984,,56.25,,,,,,FBP-YG-71.png,0.4,1.2,18,0.5,,,,,,,,,,,,,,,,,,0,58,58,17,1,,,,,,,,,,,,,,,,,,,,,,,
,,,,,SPR24_87,23,Female,2024-04-24_15h01.32.948,jersey_experiment_5_v0,2023.2.2,Win32,84.03361344,,,,,,,,,,,,,,,,1240.1138,1241.1585,1241.1585,1244.0175,return,1.0596,,25.26041667,,,,,,FBP-OG-19.png,0.35,1.2,11,0.25,,,,,,,,,,,,,,,,,,0,59,59,10,1,,,,,,,,,,,,,,,,,,,,,,,
,,,,,SPR24_87,23,Female,2024-04-24_15h01.32.948,jersey_experiment_5_v0,2023.2.2,Win32,84.03361344,,,,,,,,,,,,,,,,,,,,,,,,,,,,,,,,,,,,,,,,,,,,,,,,,,,,,,,,1244.0177,1253.6553,return,9.6226,,,,,,,,,,,,,,,,,,,
,,,,,SPR24_87,23,Female,2024-04-24_15h01.32.948,jersey_experiment_5_v0,2023.2.2,Win32,84.03361344,,,,,,,,,,,,,,,,,,,,,,,,,,,,,,,,,,,,,,,,,,,,,,,,,,,,,,,,,,,,,1253.6554,1261.1829,1,6.1258,return,1.3674,,,,,,,,,,,,
,,,,,SPR24_87,23,Female,2024-04-24_15h01.32.948,jersey_experiment_5_v0,2023.2.2,Win32,84.03361344,,,,,,,,,,,,,,,,,,,,,,,,,,,,,,,,,,,,,,,,,,,,,,,,,,,,,,,,,,,,,,,,,,,,1261.1829,1377.5604,I think this study is about how people measure other people. I recognize after yellow person showed up brown person shows.,right,109.0374,,,,,,
,,,,,SPR24_87,23,Female,2024-04-24_15h01.32.948,jersey_experiment_5_v0,2023.2.2,Win32,84.03361344,,,,,,,,,,,,,,,,,,,,,,,,,,,,,,,,,,,,,,,,,,,,,,,,,,,,,,,,,,,,,,,,,,,,,,,,,,1377.5604,1384.4463,return,6.8741,