requirements.started,requirements.stopped,key_resp_3.keys,key_resp_3.rt,key_resp_3.duration,Subject ID,Age,Gender,date,expName,psychopyVersion,OS,frameRate,instructions1.started,instructions1.stopped,key_resp.keys,key_resp.rt,key_resp.duration,example.started,example.stopped,enter_2.keys,enter_2.rt,enter_2.duration,instructions2.started,instructions2.stopped,enter_3.keys,enter_3.rt,enter_3.duration,image.started,image.stopped,slider_2.started,slider_2.stopped,next.keys,next.rt,next.duration,slider.response,trial_block_1.thisRepN,trial_block_1.thisTrialN,trial_block_1.thisN,trial_block_1.thisIndex,trial_block_1.ran,Path,Width,Height,Index,Duration,trial_block_2.thisRepN,trial_block_2.thisTrialN,trial_block_2.thisN,trial_block_2.thisIndex,trial_block_2.ran,rest_break.started,rest_break.stopped,end_break.started,end_break.stopped,key_resp_5.keys,key_resp_5.rt,key_resp_5.duration,trial_block_3.thisRepN,trial_block_3.thisTrialN,trial_block_3.thisN,trial_block_3.thisIndex,trial_block_3.ran,trial_block_4.thisRepN,trial_block_4.thisTrialN,trial_block_4.thisN,trial_block_4.thisIndex,trial_block_4.ran,questions_intro.started,questions_intro.stopped,enter_12.keys,enter_12.rt,enter_12.duration,question2.started,question2.stopped,question_doingbest.response,question_doingbest.rt,enter_15.keys,enter_15.rt,enter_15.duration,pattern.started,pattern.stopped,pattern_2.text,enter_17.keys,enter_17.rt,enter_17.duration,thankyou.started,thankyou.stopped,enter_14.keys,enter_14.rt,enter_14.duration
0,10.6065,return,10.6006,,SPR24_097,20,F,2024-04-25_17h01.09.042,jersey_experiment_5_v0,2023.2.2,Win32,84.74576271,,,,,,,,,,,,,,,,,,,,,,,,,,,,,,,,,,,,,,,,,,,,,,,,,,,,,,,,,,,,,,,,,,,,,,,,,,,,,,
,,,,,SPR24_097,20,F,2024-04-25_17h01.09.042,jersey_experiment_5_v0,2023.2.2,Win32,84.74576271,10.6066,21.8542,return,11.2441,,,,,,,,,,,,,,,,,,,,,,,,,,,,,,,,,,,,,,,,,,,,,,,,,,,,,,,,,,,,,,,,,,,,,,,,,,
,,,,,SPR24_097,20,F,2024-04-25_17h01.09.042,jersey_experiment_5_v0,2023.2.2,Win32,84.74576271,,,,,,21.8543,26.9482,return,5.0641,,,,,,,,,,,,,,,,,,,,,,,,,,,,,,,,,,,,,,,,,,,,,,,,,,,,,,,,,,,,,,,,,,,,,
,,,,,SPR24_097,20,F,2024-04-25_17h01.09.042,jersey_experiment_5_v0,2023.2.2,Win32,84.74576271,,,,,,,,,,,26.9483,39.9249,return,12.9523,,,,,,,,,,,,,,,,,,,,,,,,,,,,,,,,,,,,,,,,,,,,,,,,,,,,,,,,,,,,,,,,
,,,,,SPR24_097,20,F,2024-04-25_17h01.09.042,jersey_experiment_5_v0,2023.2.2,Win32,84.74576271,,,,,,,,,,,,,,,,39.9317,41.2237,41.2237,47.2005,return,3.8356,,73.828125,0,0,0,12,1,FBP-OG-91.png,0.4,1.2,13,0.5,,,,,,,,,,,,,,,,,,,,,,,,,,,,,,,,,,,,,,,,,,,,,
,,,,,SPR24_097,20,F,2024-04-25_17h01.09.042,jersey_experiment_5_v0,2023.2.2,Win32,84.74576271,,,,,,,,,,,,,,,,47.2046,48.2544,48.2545,50.5887,return,0.7769,,25.91145833,0,1,1,45,1,FBP-PT-17.png,0.35,1.2,46,0.25,,,,,,,,,,,,,,,,,,,,,,,,,,,,,,,,,,,,,,,,,,,,,
,,,,,SPR24_097,20,F,2024-04-25_17h01.09.042,jersey_experiment_5_v0,2023.2.2,Win32,84.74576271,,,,,,,,,,,,,,,,50.5889,51.8828,51.8828,54.3301,return,0.8473,,51.171875,0,2,2,5,1,FBP-OG-81.png,0.35,1.2,6,0.5,,,,,,,,,,,,,,,,,,,,,,,,,,,,,,,,,,,,,,,,,,,,,
,,,,,SPR24_097,20,F,2024-04-25_17h01.09.042,jersey_experiment_5_v0,2023.2.2,Win32,84.74576271,,,,,,,,,,,,,,,,54.3303,55.3723,55.3724,59.1307,return,2.2493,,74.47916667,0,3,3,46,1,FBP-PT-17.png,0.37,1.2,47,0.25,,,,,,,,,,,,,,,,,,,,,,,,,,,,,,,,,,,,,,,,,,,,,
,,,,,SPR24_097,20,F,2024-04-25_17h01.09.042,jersey_experiment_5_v0,2023.2.2,Win32,84.74576271,,,,,,,,,,,,,,,,59.1309,60.4348,60.4348,62.4196,return,0.8345,,27.734375,0,4,4,30,1,FBP-RB-17.png,0.35,1.2,31,0.5,,,,,,,,,,,,,,,,,,,,,,,,,,,,,,,,,,,,,,,,,,,,,
,,,,,SPR24_097,20,F,2024-04-25_17h01.09.042,jersey_experiment_5_v0,2023.2.2,Win32,84.74576271,,,,,,,,,,,,,,,,62.4198,63.7139,63.714,65.9021,return,0.8166,,99.73958333,0,5,5,44,1,FBP-RB-19.png,0.45,1.2,45,0.5,,,,,,,,,,,,,,,,,,,,,,,,,,,,,,,,,,,,,,,,,,,,,
,,,,,SPR24_097,20,F,2024-04-25_17h01.09.042,jersey_experiment_5_v0,2023.2.2,Win32,84.74576271,,,,,,,,,,,,,,,,65.9023,67.1964,67.1964,68.8347,return,0.6692,,1.041666667,0,6,6,10,1,FBP-OG-91.png,0.35,1.2,11,0.5,,,,,,,,,,,,,,,,,,,,,,,,,,,,,,,,,,,,,,,,,,,,,
,,,,,SPR24_097,20,F,2024-04-25_17h01.09.042,jersey_experiment_5_v0,2023.2.2,Win32,84.74576271,,,,,,,,,,,,,,,,68.8349,70.1375,70.1376,71.8907,return,0.6488,,98.69791667,0,7,7,38,1,FBP-RB-18.png,0.43,1.2,39,0.5,,,,,,,,,,,,,,,,,,,,,,,,,,,,,,,,,,,,,,,,,,,,,
,,,,,SPR24_097,20,F,2024-04-25_17h01.09.042,jersey_experiment_5_v0,2023.2.2,Win32,84.74576271,,,,,,,,,,,,,,,,71.8909,72.9376,72.9376,74.6943,return,0.6229,,95.703125,0,8,8,48,1,FBP-PT-17.png,0.43,1.2,49,0.25,,,,,,,,,,,,,,,,,,,,,,,,,,,,,,,,,,,,,,,,,,,,,
,,,,,SPR24_097,20,F,2024-04-25_17h01.09.042,jersey_experiment_5_v0,2023.2.2,Win32,84.74576271,,,,,,,,,,,,,,,,74.6946,75.9882,75.9882,77.7262,return,0.5828,,75.390625,0,9,9,35,1,FBP-RB-18.png,0.35,1.2,36,0.5,,,,,,,,,,,,,,,,,,,,,,,,,,,,,,,,,,,,,,,,,,,,,
,,,,,SPR24_097,20,F,2024-04-25_17h01.09.042,jersey_experiment_5_v0,2023.2.2,Win32,84.74576271,,,,,,,,,,,,,,,,77.7263,78.7732,78.7732,80.1144,return,0.624,,74.86979167,0,10,10,15,1,FBP-YG-17.png,0.35,1.2,16,0.25,,,,,,,,,,,,,,,,,,,,,,,,,,,,,,,,,,,,,,,,,,,,,
,,,,,SPR24_097,20,F,2024-04-25_17h01.09.042,jersey_experiment_5_v0,2023.2.2,Win32,84.74576271,,,,,,,,,,,,,,,,80.1146,81.1615,81.1615,82.7885,return,0.5754,,98.56770833,0,11,11,28,1,FBP-YG-19.png,0.43,1.2,29,0.25,,,,,,,,,,,,,,,,,,,,,,,,,,,,,,,,,,,,,,,,,,,,,
,,,,,SPR24_097,20,F,2024-04-25_17h01.09.042,jersey_experiment_5_v0,2023.2.2,Win32,84.74576271,,,,,,,,,,,,,,,,82.7886,84.0958,84.0958,86.3264,return,1.3282,,23.95833333,0,12,12,40,1,FBP-RB-19.png,0.35,1.2,41,0.5,,,,,,,,,,,,,,,,,,,,,,,,,,,,,,,,,,,,,,,,,,,,,
,,,,,SPR24_097,20,F,2024-04-25_17h01.09.042,jersey_experiment_5_v0,2023.2.2,Win32,84.74576271,,,,,,,,,,,,,,,,86.3265,87.3735,87.3735,88.8795,return,0.6155,,26.30208333,0,13,13,56,1,FBP-PT-19.png,0.37,1.2,57,0.25,,,,,,,,,,,,,,,,,,,,,,,,,,,,,,,,,,,,,,,,,,,,,
,,,,,SPR24_097,20,F,2024-04-25_17h01.09.042,jersey_experiment_5_v0,2023.2.2,Win32,84.74576271,,,,,,,,,,,,,,,,88.8796,90.1737,90.1737,92.1737,return,0.6066,,75.52083333,0,14,14,13,1,FBP-OG-91.png,0.43,1.2,14,0.5,,,,,,,,,,,,,,,,,,,,,,,,,,,,,,,,,,,,,,,,,,,,,
,,,,,SPR24_097,20,F,2024-04-25_17h01.09.042,jersey_experiment_5_v0,2023.2.2,Win32,84.74576271,,,,,,,,,,,,,,,,92.1739,93.468,93.468,96.7386,return,0.6358,,99.86979167,0,15,15,9,1,FBP-OG-81.png,0.45,1.2,10,0.5,,,,,,,,,,,,,,,,,,,,,,,,,,,,,,,,,,,,,,,,,,,,,
,,,,,SPR24_097,20,F,2024-04-25_17h01.09.042,jersey_experiment_5_v0,2023.2.2,Win32,84.74576271,,,,,,,,,,,,,,,,96.7388,97.7856,97.7856,98.9505,return,0.5887,,99.86979167,0,16,16,19,1,FBP-YG-17.png,0.45,1.2,20,0.25,,,,,,,,,,,,,,,,,,,,,,,,,,,,,,,,,,,,,,,,,,,,,
,,,,,SPR24_097,20,F,2024-04-25_17h01.09.042,jersey_experiment_5_v0,2023.2.2,Win32,84.74576271,,,,,,,,,,,,,,,,98.9506,99.9973,99.9974,101.5975,return,0.5482,,74.73958333,0,17,17,22,1,FBP-YG-18.png,0.4,1.2,23,0.25,,,,,,,,,,,,,,,,,,,,,,,,,,,,,,,,,,,,,,,,,,,,,
,,,,,SPR24_097,20,F,2024-04-25_17h01.09.042,jersey_experiment_5_v0,2023.2.2,Win32,84.74576271,,,,,,,,,,,,,,,,101.5977,102.8964,102.8965,104.6614,return,1.2948,,74.34895833,0,18,18,6,1,FBP-OG-81.png,0.37,1.2,7,0.5,,,,,,,,,,,,,,,,,,,,,,,,,,,,,,,,,,,,,,,,,,,,,
,,,,,SPR24_097,20,F,2024-04-25_17h01.09.042,jersey_experiment_5_v0,2023.2.2,Win32,84.74576271,,,,,,,,,,,,,,,,104.6615,105.7034,105.7034,107.7625,return,0.6468,,98.95833333,0,19,19,29,1,FBP-YG-19.png,0.45,1.2,30,0.25,,,,,,,,,,,,,,,,,,,,,,,,,,,,,,,,,,,,,,,,,,,,,
,,,,,SPR24_097,20,F,2024-04-25_17h01.09.042,jersey_experiment_5_v0,2023.2.2,Win32,84.74576271,,,,,,,,,,,,,,,,107.7626,108.8096,108.8096,110.5436,return,0.5411,,75.78125,0,20,20,47,1,FBP-PT-17.png,0.4,1.2,48,0.25,,,,,,,,,,,,,,,,,,,,,,,,,,,,,,,,,,,,,,,,,,,,,
,,,,,SPR24_097,20,F,2024-04-25_17h01.09.042,jersey_experiment_5_v0,2023.2.2,Win32,84.74576271,,,,,,,,,,,,,,,,110.5437,111.5861,111.5862,113.0568,return,0.5787,,98.828125,0,21,21,54,1,FBP-PT-18.png,0.45,1.2,55,0.25,,,,,,,,,,,,,,,,,,,,,,,,,,,,,,,,,,,,,,,,,,,,,
,,,,,SPR24_097,20,F,2024-04-25_17h01.09.042,jersey_experiment_5_v0,2023.2.2,Win32,84.74576271,,,,,,,,,,,,,,,,113.0569,114.1038,114.1039,116.0686,return,0.6219,,22.52604167,0,22,22,50,1,FBP-PT-18.png,0.35,1.2,51,0.25,,,,,,,,,,,,,,,,,,,,,,,,,,,,,,,,,,,,,,,,,,,,,
,,,,,SPR24_097,20,F,2024-04-25_17h01.09.042,jersey_experiment_5_v0,2023.2.2,Win32,84.74576271,,,,,,,,,,,,,,,,116.0688,117.3627,117.3628,118.9275,return,0.5344,,49.609375,0,23,23,7,1,FBP-OG-81.png,0.4,1.2,8,0.5,,,,,,,,,,,,,,,,,,,,,,,,,,,,,,,,,,,,,,,,,,,,,
,,,,,SPR24_097,20,F,2024-04-25_17h01.09.042,jersey_experiment_5_v0,2023.2.2,Win32,84.74576271,,,,,,,,,,,,,,,,118.9278,120.2217,120.2218,121.6372,return,0.6359,,99.86979167,0,24,24,39,1,FBP-RB-18.png,0.45,1.2,40,0.5,,,,,,,,,,,,,,,,,,,,,,,,,,,,,,,,,,,,,,,,,,,,,
,,,,,SPR24_097,20,F,2024-04-25_17h01.09.042,jersey_experiment_5_v0,2023.2.2,Win32,84.74576271,,,,,,,,,,,,,,,,121.6373,122.9309,122.9309,124.0971,return,0.5779,,98.4375,0,25,25,43,1,FBP-RB-19.png,0.43,1.2,44,0.5,,,,,,,,,,,,,,,,,,,,,,,,,,,,,,,,,,,,,,,,,,,,,
,,,,,SPR24_097,20,F,2024-04-25_17h01.09.042,jersey_experiment_5_v0,2023.2.2,Win32,84.74576271,,,,,,,,,,,,,,,,124.0972,125.1394,125.1394,126.7562,return,0.5416,,74.08854167,0,26,26,26,1,FBP-YG-19.png,0.37,1.2,27,0.25,,,,,,,,,,,,,,,,,,,,,,,,,,,,,,,,,,,,,,,,,,,,,
,,,,,SPR24_097,20,F,2024-04-25_17h01.09.042,jersey_experiment_5_v0,2023.2.2,Win32,84.74576271,,,,,,,,,,,,,,,,126.7564,128.0502,128.0502,129.7985,return,1.0255,,98.56770833,0,27,27,14,1,FBP-OG-91.png,0.45,1.2,15,0.5,,,,,,,,,,,,,,,,,,,,,,,,,,,,,,,,,,,,,,,,,,,,,
,,,,,SPR24_097,20,F,2024-04-25_17h01.09.042,jersey_experiment_5_v0,2023.2.2,Win32,84.74576271,,,,,,,,,,,,,,,,129.7987,131.0959,131.0959,153.5523,return,2.5793,,0.78125,0,28,28,0,1,FBP-OG-71.png,0.35,1.2,1,0.5,,,,,,,,,,,,,,,,,,,,,,,,,,,,,,,,,,,,,,,,,,,,,
,,,,,SPR24_097,20,F,2024-04-25_17h01.09.042,jersey_experiment_5_v0,2023.2.2,Win32,84.74576271,,,,,,,,,,,,,,,,153.5524,154.5994,154.5994,158.6112,return,0.8811,,75.91145833,0,29,29,59,1,FBP-PT-19.png,0.45,1.2,60,0.25,,,,,,,,,,,,,,,,,,,,,,,,,,,,,,,,,,,,,,,,,,,,,
,,,,,SPR24_097,20,F,2024-04-25_17h01.09.042,jersey_experiment_5_v0,2023.2.2,Win32,84.74576271,,,,,,,,,,,,,,,,158.6114,159.9056,159.9056,161.4634,return,0.5785,,24.609375,0,30,30,1,1,FBP-OG-71.png,0.37,1.2,2,0.5,,,,,,,,,,,,,,,,,,,,,,,,,,,,,,,,,,,,,,,,,,,,,
,,,,,SPR24_097,20,F,2024-04-25_17h01.09.042,jersey_experiment_5_v0,2023.2.2,Win32,84.74576271,,,,,,,,,,,,,,,,161.4635,162.5056,162.5056,164.6115,return,0.5416,,51.953125,0,31,31,57,1,FBP-PT-19.png,0.4,1.2,58,0.25,,,,,,,,,,,,,,,,,,,,,,,,,,,,,,,,,,,,,,,,,,,,,
,,,,,SPR24_097,20,F,2024-04-25_17h01.09.042,jersey_experiment_5_v0,2023.2.2,Win32,84.74576271,,,,,,,,,,,,,,,,164.6117,165.9102,165.9102,167.4635,return,0.5781,,76.171875,0,32,32,4,1,FBP-OG-71.png,0.45,1.2,5,0.5,,,,,,,,,,,,,,,,,,,,,,,,,,,,,,,,,,,,,,,,,,,,,
,,,,,SPR24_097,20,F,2024-04-25_17h01.09.042,jersey_experiment_5_v0,2023.2.2,Win32,84.74576271,,,,,,,,,,,,,,,,167.4637,168.5057,168.5057,170.0149,return,0.528,,49.21875,0,33,33,21,1,FBP-YG-18.png,0.37,1.2,22,0.25,,,,,,,,,,,,,,,,,,,,,,,,,,,,,,,,,,,,,,,,,,,,,
,,,,,SPR24_097,20,F,2024-04-25_17h01.09.042,jersey_experiment_5_v0,2023.2.2,Win32,84.74576271,,,,,,,,,,,,,,,,170.015,171.3089,171.309,173.6471,return,0.6405,,99.86979167,0,34,34,33,1,FBP-RB-17.png,0.43,1.2,34,0.5,,,,,,,,,,,,,,,,,,,,,,,,,,,,,,,,,,,,,,,,,,,,,
,,,,,SPR24_097,20,F,2024-04-25_17h01.09.042,jersey_experiment_5_v0,2023.2.2,Win32,84.74576271,,,,,,,,,,,,,,,,173.6473,174.9413,174.9413,176.7414,return,0.6956,,74.73958333,0,35,35,36,1,FBP-RB-18.png,0.37,1.2,37,0.5,,,,,,,,,,,,,,,,,,,,,,,,,,,,,,,,,,,,,,,,,,,,,
,,,,,SPR24_097,20,F,2024-04-25_17h01.09.042,jersey_experiment_5_v0,2023.2.2,Win32,84.74576271,,,,,,,,,,,,,,,,176.7416,178.0355,178.0356,179.0591,return,0.5891,,74.73958333,0,36,36,42,1,FBP-RB-19.png,0.4,1.2,43,0.5,,,,,,,,,,,,,,,,,,,,,,,,,,,,,,,,,,,,,,,,,,,,,
,,,,,SPR24_097,20,F,2024-04-25_17h01.09.042,jersey_experiment_5_v0,2023.2.2,Win32,84.74576271,,,,,,,,,,,,,,,,179.0593,180.1062,180.1062,181.9416,return,0.6251,,87.890625,0,37,37,58,1,FBP-PT-19.png,0.43,1.2,59,0.25,,,,,,,,,,,,,,,,,,,,,,,,,,,,,,,,,,,,,,,,,,,,,
,,,,,SPR24_097,20,F,2024-04-25_17h01.09.042,jersey_experiment_5_v0,2023.2.2,Win32,84.74576271,,,,,,,,,,,,,,,,181.9418,183.2356,183.2358,184.9181,return,0.5518,,74.47916667,0,38,38,37,1,FBP-RB-18.png,0.4,1.2,38,0.5,,,,,,,,,,,,,,,,,,,,,,,,,,,,,,,,,,,,,,,,,,,,,
,,,,,SPR24_097,20,F,2024-04-25_17h01.09.042,jersey_experiment_5_v0,2023.2.2,Win32,84.74576271,,,,,,,,,,,,,,,,184.9182,185.9653,185.9653,187.436,return,0.5732,,25.65104167,0,39,39,25,1,FBP-YG-19.png,0.35,1.2,26,0.25,,,,,,,,,,,,,,,,,,,,,,,,,,,,,,,,,,,,,,,,,,,,,
,,,,,SPR24_097,20,F,2024-04-25_17h01.09.042,jersey_experiment_5_v0,2023.2.2,Win32,84.74576271,,,,,,,,,,,,,,,,187.4363,188.483,188.4831,190.436,return,0.5647,,74.08854167,0,40,40,23,1,FBP-YG-18.png,0.43,1.2,24,0.25,,,,,,,,,,,,,,,,,,,,,,,,,,,,,,,,,,,,,,,,,,,,,
,,,,,SPR24_097,20,F,2024-04-25_17h01.09.042,jersey_experiment_5_v0,2023.2.2,Win32,84.74576271,,,,,,,,,,,,,,,,190.4361,191.483,191.4831,192.9185,return,0.5413,,75.390625,0,41,41,53,1,FBP-PT-18.png,0.43,1.2,54,0.25,,,,,,,,,,,,,,,,,,,,,,,,,,,,,,,,,,,,,,,,,,,,,
,,,,,SPR24_097,20,F,2024-04-25_17h01.09.042,jersey_experiment_5_v0,2023.2.2,Win32,84.74576271,,,,,,,,,,,,,,,,192.9185,193.9654,193.9655,195.0278,return,0.5755,,75.390625,0,42,42,52,1,FBP-PT-18.png,0.4,1.2,53,0.25,,,,,,,,,,,,,,,,,,,,,,,,,,,,,,,,,,,,,,,,,,,,,
,,,,,SPR24_097,20,F,2024-04-25_17h01.09.042,jersey_experiment_5_v0,2023.2.2,Win32,84.74576271,,,,,,,,,,,,,,,,195.028,196.0714,196.0715,197.1655,return,0.5934,,75.390625,0,43,43,17,1,FBP-YG-17.png,0.4,1.2,18,0.25,,,,,,,,,,,,,,,,,,,,,,,,,,,,,,,,,,,,,,,,,,,,,
,,,,,SPR24_097,20,F,2024-04-25_17h01.09.042,jersey_experiment_5_v0,2023.2.2,Win32,84.74576271,,,,,,,,,,,,,,,,197.1658,198.2169,198.2169,202.1305,return,0.8134,,0.390625,0,44,44,55,1,FBP-PT-19.png,0.35,1.2,56,0.25,,,,,,,,,,,,,,,,,,,,,,,,,,,,,,,,,,,,,,,,,,,,,
,,,,,SPR24_097,20,F,2024-04-25_17h01.09.042,jersey_experiment_5_v0,2023.2.2,Win32,84.74576271,,,,,,,,,,,,,,,,202.1308,203.4246,203.4246,204.4835,return,0.5884,,0.390625,0,45,45,11,1,FBP-OG-91.png,0.37,1.2,12,0.5,,,,,,,,,,,,,,,,,,,,,,,,,,,,,,,,,,,,,,,,,,,,,
,,,,,SPR24_097,20,F,2024-04-25_17h01.09.042,jersey_experiment_5_v0,2023.2.2,Win32,84.74576271,,,,,,,,,,,,,,,,204.4836,205.5305,205.5306,207.3307,return,0.6253,,23.56770833,0,46,46,27,1,FBP-YG-19.png,0.4,1.2,28,0.25,,,,,,,,,,,,,,,,,,,,,,,,,,,,,,,,,,,,,,,,,,,,,
,,,,,SPR24_097,20,F,2024-04-25_17h01.09.042,jersey_experiment_5_v0,2023.2.2,Win32,84.74576271,,,,,,,,,,,,,,,,207.3309,208.3777,208.3777,210.0367,return,0.5885,,99.34895833,0,47,47,24,1,FBP-YG-18.png,0.45,1.2,25,0.25,,,,,,,,,,,,,,,,,,,,,,,,,,,,,,,,,,,,,,,,,,,,,
,,,,,SPR24_097,20,F,2024-04-25_17h01.09.042,jersey_experiment_5_v0,2023.2.2,Win32,84.74576271,,,,,,,,,,,,,,,,210.037,211.0885,211.0886,212.7073,return,0.5662,,74.73958333,0,48,48,16,1,FBP-YG-17.png,0.37,1.2,17,0.25,,,,,,,,,,,,,,,,,,,,,,,,,,,,,,,,,,,,,,,,,,,,,
,,,,,SPR24_097,20,F,2024-04-25_17h01.09.042,jersey_experiment_5_v0,2023.2.2,Win32,84.74576271,,,,,,,,,,,,,,,,212.7074,214.0061,214.0062,215.0521,return,0.6117,,74.73958333,0,49,49,32,1,FBP-RB-17.png,0.4,1.2,33,0.5,,,,,,,,,,,,,,,,,,,,,,,,,,,,,,,,,,,,,,,,,,,,,
,,,,,SPR24_097,20,F,2024-04-25_17h01.09.042,jersey_experiment_5_v0,2023.2.2,Win32,84.74576271,,,,,,,,,,,,,,,,215.0522,216.3462,216.3463,218.4134,return,0.6172,,99.73958333,0,50,50,3,1,FBP-OG-71.png,0.43,1.2,4,0.5,,,,,,,,,,,,,,,,,,,,,,,,,,,,,,,,,,,,,,,,,,,,,
,,,,,SPR24_097,20,F,2024-04-25_17h01.09.042,jersey_experiment_5_v0,2023.2.2,Win32,84.74576271,,,,,,,,,,,,,,,,218.4137,219.7108,219.7109,220.8135,return,0.6168,,99.73958333,0,51,51,8,1,FBP-OG-81.png,0.43,1.2,9,0.5,,,,,,,,,,,,,,,,,,,,,,,,,,,,,,,,,,,,,,,,,,,,,
,,,,,SPR24_097,20,F,2024-04-25_17h01.09.042,jersey_experiment_5_v0,2023.2.2,Win32,84.74576271,,,,,,,,,,,,,,,,220.8138,222.1076,222.1076,223.4723,return,0.6612,,99.73958333,0,52,52,34,1,FBP-RB-17.png,0.45,1.2,35,0.5,,,,,,,,,,,,,,,,,,,,,,,,,,,,,,,,,,,,,,,,,,,,,
,,,,,SPR24_097,20,F,2024-04-25_17h01.09.042,jersey_experiment_5_v0,2023.2.2,Win32,84.74576271,,,,,,,,,,,,,,,,223.4725,224.5242,224.5243,225.7901,return,0.7457,,99.73958333,0,53,53,18,1,FBP-YG-17.png,0.43,1.2,19,0.25,,,,,,,,,,,,,,,,,,,,,,,,,,,,,,,,,,,,,,,,,,,,,
,,,,,SPR24_097,20,F,2024-04-25_17h01.09.042,jersey_experiment_5_v0,2023.2.2,Win32,84.74576271,,,,,,,,,,,,,,,,225.7904,226.8373,226.8374,228.1246,return,0.6588,,99.08854167,0,54,54,49,1,FBP-PT-17.png,0.45,1.2,50,0.25,,,,,,,,,,,,,,,,,,,,,,,,,,,,,,,,,,,,,,,,,,,,,
,,,,,SPR24_097,20,F,2024-04-25_17h01.09.042,jersey_experiment_5_v0,2023.2.2,Win32,84.74576271,,,,,,,,,,,,,,,,228.1248,229.4255,229.4256,231.2542,return,0.7432,,75.26041667,0,55,55,2,1,FBP-OG-71.png,0.4,1.2,3,0.5,,,,,,,,,,,,,,,,,,,,,,,,,,,,,,,,,,,,,,,,,,,,,
,,,,,SPR24_097,20,F,2024-04-25_17h01.09.042,jersey_experiment_5_v0,2023.2.2,Win32,84.74576271,,,,,,,,,,,,,,,,231.2543,232.2963,232.2963,234.767,return,0.5576,,24.73958333,0,56,56,51,1,FBP-PT-18.png,0.37,1.2,52,0.25,,,,,,,,,,,,,,,,,,,,,,,,,,,,,,,,,,,,,,,,,,,,,
,,,,,SPR24_097,20,F,2024-04-25_17h01.09.042,jersey_experiment_5_v0,2023.2.2,Win32,84.74576271,,,,,,,,,,,,,,,,234.7672,236.0611,236.0612,237.1082,return,0.6359,,24.73958333,0,57,57,31,1,FBP-RB-17.png,0.37,1.2,32,0.5,,,,,,,,,,,,,,,,,,,,,,,,,,,,,,,,,,,,,,,,,,,,,
,,,,,SPR24_097,20,F,2024-04-25_17h01.09.042,jersey_experiment_5_v0,2023.2.2,Win32,84.74576271,,,,,,,,,,,,,,,,237.1084,238.4023,238.4024,241.1365,return,2.2958,,14.0625,0,58,58,41,1,FBP-RB-19.png,0.37,1.2,42,0.5,,,,,,,,,,,,,,,,,,,,,,,,,,,,,,,,,,,,,,,,,,,,,
,,,,,SPR24_097,20,F,2024-04-25_17h01.09.042,jersey_experiment_5_v0,2023.2.2,Win32,84.74576271,,,,,,,,,,,,,,,,241.1367,242.1789,242.1789,243.6073,return,0.6119,,11.97916667,0,59,59,20,1,FBP-YG-18.png,0.35,1.2,21,0.25,,,,,,,,,,,,,,,,,,,,,,,,,,,,,,,,,,,,,,,,,,,,,
,,,,,SPR24_097,20,F,2024-04-25_17h01.09.042,jersey_experiment_5_v0,2023.2.2,Win32,84.74576271,,,,,,,,,,,,,,,,243.6091,244.6658,244.6658,246.4026,return,0.5057,,93.22916667,,,,,,FBP-YG-71.png,0.45,1.2,20,0.25,0,0,0,19,1,,,,,,,,,,,,,,,,,,,,,,,,,,,,,,,,,,,,,,,,
,,,,,SPR24_097,20,F,2024-04-25_17h01.09.042,jersey_experiment_5_v0,2023.2.2,Win32,84.74576271,,,,,,,,,,,,,,,,246.4028,247.4497,247.4497,249.5204,return,0.674,,6.901041667,,,,,,FBP-PT-91.png,0.35,1.2,56,0.25,0,1,1,55,1,,,,,,,,,,,,,,,,,,,,,,,,,,,,,,,,,,,,,,,,
,,,,,SPR24_097,20,F,2024-04-25_17h01.09.042,jersey_experiment_5_v0,2023.2.2,Win32,84.74576271,,,,,,,,,,,,,,,,249.5207,250.5674,250.5674,252.8499,return,0.5667,,10.67708333,,,,,,FBP-YG-71.png,0.37,1.2,17,0.25,0,2,2,16,1,,,,,,,,,,,,,,,,,,,,,,,,,,,,,,,,,,,,,,,,
,,,,,SPR24_097,20,F,2024-04-25_17h01.09.042,jersey_experiment_5_v0,2023.2.2,Win32,84.74576271,,,,,,,,,,,,,,,,252.8502,254.1441,254.1441,255.7253,return,0.6252,,77.47395833,,,,,,FBP-RB-71.png,0.43,1.2,34,0.5,0,3,3,33,1,,,,,,,,,,,,,,,,,,,,,,,,,,,,,,,,,,,,,,,,
,,,,,SPR24_097,20,F,2024-04-25_17h01.09.042,jersey_experiment_5_v0,2023.2.2,Win32,84.74576271,,,,,,,,,,,,,,,,255.7255,256.7677,256.7677,259.4384,return,0.9235,,98.69791667,,,,,,FBP-PT-71.png,0.45,1.2,50,0.25,0,4,4,49,1,,,,,,,,,,,,,,,,,,,,,,,,,,,,,,,,,,,,,,,,
,,,,,SPR24_097,20,F,2024-04-25_17h01.09.042,jersey_experiment_5_v0,2023.2.2,Win32,84.74576271,,,,,,,,,,,,,,,,259.4386,260.7324,260.7325,263.0738,return,1.7906,,92.578125,,,,,,FBP-OG-17.png,0.43,1.2,4,0.5,0,5,5,3,1,,,,,,,,,,,,,,,,,,,,,,,,,,,,,,,,,,,,,,,,
,,,,,SPR24_097,20,F,2024-04-25_17h01.09.042,jersey_experiment_5_v0,2023.2.2,Win32,84.74576271,,,,,,,,,,,,,,,,263.074,264.1209,264.1209,266.5563,return,0.9609,,5.598958333,,,,,,FBP-PT-91.png,0.37,1.2,57,0.25,0,6,6,56,1,,,,,,,,,,,,,,,,,,,,,,,,,,,,,,,,,,,,,,,,
,,,,,SPR24_097,20,F,2024-04-25_17h01.09.042,jersey_experiment_5_v0,2023.2.2,Win32,84.74576271,,,,,,,,,,,,,,,,266.5565,267.8534,267.8534,271.5799,return,0.7141,,0.520833333,,,,,,FBP-RB-71.png,0.35,1.2,31,0.5,0,7,7,30,1,,,,,,,,,,,,,,,,,,,,,,,,,,,,,,,,,,,,,,,,
,,,,,SPR24_097,20,F,2024-04-25_17h01.09.042,jersey_experiment_5_v0,2023.2.2,Win32,84.74576271,,,,,,,,,,,,,,,,271.5801,272.8741,272.8742,274.2205,return,0.5315,,16.53645833,,,,,,FBP-OG-17.png,0.4,1.2,3,0.5,0,8,8,2,1,,,,,,,,,,,,,,,,,,,,,,,,,,,,,,,,,,,,,,,,
,,,,,SPR24_097,20,F,2024-04-25_17h01.09.042,jersey_experiment_5_v0,2023.2.2,Win32,84.74576271,,,,,,,,,,,,,,,,274.2208,275.5246,275.5246,278.1735,return,0.5779,,17.96875,,,,,,FBP-RB-91.png,0.4,1.2,43,0.5,0,9,9,42,1,,,,,,,,,,,,,,,,,,,,,,,,,,,,,,,,,,,,,,,,
,,,,,SPR24_097,20,F,2024-04-25_17h01.09.042,jersey_experiment_5_v0,2023.2.2,Win32,84.74576271,,,,,,,,,,,,,,,,278.1737,279.2157,279.2157,280.4662,return,0.5887,,26.69270833,,,,,,FBP-YG-91.png,0.4,1.2,28,0.25,0,10,10,27,1,,,,,,,,,,,,,,,,,,,,,,,,,,,,,,,,,,,,,,,,
,,,,,SPR24_097,20,F,2024-04-25_17h01.09.042,jersey_experiment_5_v0,2023.2.2,Win32,84.74576271,,,,,,,,,,,,,,,,280.4665,281.76,281.76,283.2628,return,0.6522,,75.52083333,,,,,,FBP-RB-81.png,0.43,1.2,39,0.5,0,11,11,38,1,,,,,,,,,,,,,,,,,,,,,,,,,,,,,,,,,,,,,,,,
,,,,,SPR24_097,20,F,2024-04-25_17h01.09.042,jersey_experiment_5_v0,2023.2.2,Win32,84.74576271,,,,,,,,,,,,,,,,283.2631,284.5568,284.5569,285.7922,return,0.6029,,73.56770833,,,,,,FBP-OG-19.png,0.4,1.2,13,0.5,0,12,12,12,1,,,,,,,,,,,,,,,,,,,,,,,,,,,,,,,,,,,,,,,,
,,,,,SPR24_097,20,F,2024-04-25_17h01.09.042,jersey_experiment_5_v0,2023.2.2,Win32,84.74576271,,,,,,,,,,,,,,,,285.7924,287.0912,287.0912,288.6546,return,0.5754,,1.432291667,,,,,,FBP-OG-19.png,0.35,1.2,11,0.5,0,13,13,10,1,,,,,,,,,,,,,,,,,,,,,,,,,,,,,,,,,,,,,,,,
,,,,,SPR24_097,20,F,2024-04-25_17h01.09.042,jersey_experiment_5_v0,2023.2.2,Win32,84.74576271,,,,,,,,,,,,,,,,288.6547,289.9487,289.9487,291.8077,return,0.7063,,77.60416667,,,,,,FBP-RB-81.png,0.4,1.2,38,0.5,0,14,14,37,1,,,,,,,,,,,,,,,,,,,,,,,,,,,,,,,,,,,,,,,,
,,,,,SPR24_097,20,F,2024-04-25_17h01.09.042,jersey_experiment_5_v0,2023.2.2,Win32,84.74576271,,,,,,,,,,,,,,,,291.8079,293.1016,293.1016,294.4277,return,0.5966,,99.34895833,,,,,,FBP-RB-81.png,0.45,1.2,40,0.5,0,15,15,39,1,,,,,,,,,,,,,,,,,,,,,,,,,,,,,,,,,,,,,,,,
,,,,,SPR24_097,20,F,2024-04-25_17h01.09.042,jersey_experiment_5_v0,2023.2.2,Win32,84.74576271,,,,,,,,,,,,,,,,294.4279,295.4783,295.4783,297.1857,return,0.5416,,25.13020833,,,,,,FBP-YG-91.png,0.37,1.2,27,0.25,0,16,16,26,1,,,,,,,,,,,,,,,,,,,,,,,,,,,,,,,,,,,,,,,,
,,,,,SPR24_097,20,F,2024-04-25_17h01.09.042,jersey_experiment_5_v0,2023.2.2,Win32,84.74576271,,,,,,,,,,,,,,,,297.1858,298.2279,298.228,300.0279,return,0.5257,,5.729166667,,,,,,FBP-YG-81.png,0.35,1.2,21,0.25,0,17,17,20,1,,,,,,,,,,,,,,,,,,,,,,,,,,,,,,,,,,,,,,,,
,,,,,SPR24_097,20,F,2024-04-25_17h01.09.042,jersey_experiment_5_v0,2023.2.2,Win32,84.74576271,,,,,,,,,,,,,,,,300.0282,301.0786,301.0786,303.186,return,0.5417,,49.34895833,,,,,,FBP-YG-71.png,0.4,1.2,18,0.25,0,18,18,17,1,,,,,,,,,,,,,,,,,,,,,,,,,,,,,,,,,,,,,,,,
,,,,,SPR24_097,20,F,2024-04-25_17h01.09.042,jersey_experiment_5_v0,2023.2.2,Win32,84.74576271,,,,,,,,,,,,,,,,303.1862,304.4903,304.4903,305.5388,return,0.5413,,49.34895833,,,,,,FBP-RB-71.png,0.37,1.2,32,0.5,0,19,19,31,1,,,,,,,,,,,,,,,,,,,,,,,,,,,,,,,,,,,,,,,,
,,,,,SPR24_097,20,F,2024-04-25_17h01.09.042,jersey_experiment_5_v0,2023.2.2,Win32,84.74576271,,,,,,,,,,,,,,,,305.539,306.8433,306.8433,308.7025,return,0.5285,,99.86979167,,,,,,FBP-OG-18.png,0.45,1.2,10,0.5,0,20,20,9,1,,,,,,,,,,,,,,,,,,,,,,,,,,,,,,,,,,,,,,,,
,,,,,SPR24_097,20,F,2024-04-25_17h01.09.042,jersey_experiment_5_v0,2023.2.2,Win32,84.74576271,,,,,,,,,,,,,,,,308.7027,310.01,310.01,311.3108,return,0.5817,,73.828125,,,,,,FBP-RB-91.png,0.37,1.2,42,0.5,0,21,21,41,1,,,,,,,,,,,,,,,,,,,,,,,,,,,,,,,,,,,,,,,,
,,,,,SPR24_097,20,F,2024-04-25_17h01.09.042,jersey_experiment_5_v0,2023.2.2,Win32,84.74576271,,,,,,,,,,,,,,,,311.311,312.605,312.6051,314.0991,return,0.6244,,18.75,,,,,,FBP-OG-18.png,0.37,1.2,7,0.5,0,22,22,6,1,,,,,,,,,,,,,,,,,,,,,,,,,,,,,,,,,,,,,,,,
,,,,,SPR24_097,20,F,2024-04-25_17h01.09.042,jersey_experiment_5_v0,2023.2.2,Win32,84.74576271,,,,,,,,,,,,,,,,314.0993,315.3979,315.398,317.0521,return,0.5136,,99.21875,,,,,,FBP-OG-17.png,0.45,1.2,5,0.5,0,23,23,4,1,,,,,,,,,,,,,,,,,,,,,,,,,,,,,,,,,,,,,,,,
,,,,,SPR24_097,20,F,2024-04-25_17h01.09.042,jersey_experiment_5_v0,2023.2.2,Win32,84.74576271,,,,,,,,,,,,,,,,317.0525,318.3464,318.3464,319.8325,return,0.6596,,75.390625,,,,,,FBP-OG-19.png,0.43,1.2,14,0.5,0,24,24,13,1,,,,,,,,,,,,,,,,,,,,,,,,,,,,,,,,,,,,,,,,
,,,,,SPR24_097,20,F,2024-04-25_17h01.09.042,jersey_experiment_5_v0,2023.2.2,Win32,84.74576271,,,,,,,,,,,,,,,,319.8327,320.8758,320.8759,322.3734,return,0.5518,,23.56770833,,,,,,FBP-PT-71.png,0.37,1.2,47,0.25,0,25,25,46,1,,,,,,,,,,,,,,,,,,,,,,,,,,,,,,,,,,,,,,,,
,,,,,SPR24_097,20,F,2024-04-25_17h01.09.042,jersey_experiment_5_v0,2023.2.2,Win32,84.74576271,,,,,,,,,,,,,,,,322.3735,323.4171,323.4171,324.8171,return,0.5896,,73.4375,,,,,,FBP-PT-81.png,0.43,1.2,54,0.25,0,26,26,53,1,,,,,,,,,,,,,,,,,,,,,,,,,,,,,,,,,,,,,,,,
,,,,,SPR24_097,20,F,2024-04-25_17h01.09.042,jersey_experiment_5_v0,2023.2.2,Win32,84.74576271,,,,,,,,,,,,,,,,324.8174,326.1146,326.1146,327.3382,return,0.5648,,25.91145833,,,,,,FBP-OG-17.png,0.37,1.2,2,0.5,0,27,27,1,1,,,,,,,,,,,,,,,,,,,,,,,,,,,,,,,,,,,,,,,,
,,,,,SPR24_097,20,F,2024-04-25_17h01.09.042,jersey_experiment_5_v0,2023.2.2,Win32,84.74576271,,,,,,,,,,,,,,,,327.3383,328.382,328.382,329.7352,return,0.5413,,12.76041667,,,,,,FBP-PT-71.png,0.35,1.2,46,0.25,0,28,28,45,1,,,,,,,,,,,,,,,,,,,,,,,,,,,,,,,,,,,,,,,,
,,,,,SPR24_097,20,F,2024-04-25_17h01.09.042,jersey_experiment_5_v0,2023.2.2,Win32,84.74576271,,,,,,,,,,,,,,,,329.7354,330.7866,330.7866,334.1234,return,0.6437,,47.91666667,,,,,,FBP-PT-71.png,0.4,1.2,48,0.25,0,29,29,47,1,,,,,,,,,,,,,,,,,,,,,,,,,,,,,,,,,,,,,,,,
,,,,,SPR24_097,20,F,2024-04-25_17h01.09.042,jersey_experiment_5_v0,2023.2.2,Win32,84.74576271,,,,,,,,,,,,,,,,334.1236,335.1705,335.1706,337.1977,return,0.6225,,67.05729167,,,,,,FBP-YG-81.png,0.4,1.2,23,0.25,0,30,30,22,1,,,,,,,,,,,,,,,,,,,,,,,,,,,,,,,,,,,,,,,,
,,,,,SPR24_097,20,F,2024-04-25_17h01.09.042,jersey_experiment_5_v0,2023.2.2,Win32,84.74576271,,,,,,,,,,,,,,,,337.1978,338.5047,338.5047,340.4919,return,1.2344,,28.77604167,,,,,,FBP-RB-91.png,0.35,1.2,41,0.5,0,31,31,40,1,,,,,,,,,,,,,,,,,,,,,,,,,,,,,,,,,,,,,,,,
,,,,,SPR24_097,20,F,2024-04-25_17h01.09.042,jersey_experiment_5_v0,2023.2.2,Win32,84.74576271,,,,,,,,,,,,,,,,340.492,341.7983,341.7984,343.0296,return,0.6358,,22.00520833,,,,,,FBP-OG-17.png,0.35,1.2,1,0.5,0,32,32,0,1,,,,,,,,,,,,,,,,,,,,,,,,,,,,,,,,,,,,,,,,
,,,,,SPR24_097,20,F,2024-04-25_17h01.09.042,jersey_experiment_5_v0,2023.2.2,Win32,84.74576271,,,,,,,,,,,,,,,,343.0298,344.0766,344.0766,345.4768,return,0.5884,,23.69791667,,,,,,FBP-PT-81.png,0.37,1.2,52,0.25,0,33,33,51,1,,,,,,,,,,,,,,,,,,,,,,,,,,,,,,,,,,,,,,,,
,,,,,SPR24_097,20,F,2024-04-25_17h01.09.042,jersey_experiment_5_v0,2023.2.2,Win32,84.74576271,,,,,,,,,,,,,,,,345.477,346.7709,346.7709,348.1592,return,0.6517,,46.09375,,,,,,FBP-OG-18.png,0.4,1.2,8,0.5,0,34,34,7,1,,,,,,,,,,,,,,,,,,,,,,,,,,,,,,,,,,,,,,,,
,,,,,SPR24_097,20,F,2024-04-25_17h01.09.042,jersey_experiment_5_v0,2023.2.2,Win32,84.74576271,,,,,,,,,,,,,,,,348.1594,349.4534,349.4534,350.6416,return,0.5435,,48.56770833,,,,,,FBP-OG-19.png,0.37,1.2,12,0.5,0,35,35,11,1,,,,,,,,,,,,,,,,,,,,,,,,,,,,,,,,,,,,,,,,
,,,,,SPR24_097,20,F,2024-04-25_17h01.09.042,jersey_experiment_5_v0,2023.2.2,Win32,84.74576271,,,,,,,,,,,,,,,,350.6418,351.9358,351.9358,352.8652,return,0.5894,,48.828125,,,,,,FBP-RB-81.png,0.37,1.2,37,0.5,0,36,36,36,1,,,,,,,,,,,,,,,,,,,,,,,,,,,,,,,,,,,,,,,,
,,,,,SPR24_097,20,F,2024-04-25_17h01.09.042,jersey_experiment_5_v0,2023.2.2,Win32,84.74576271,,,,,,,,,,,,,,,,352.8653,353.9123,353.9123,354.9476,return,0.5179,,48.828125,,,,,,FBP-PT-81.png,0.35,1.2,51,0.25,0,37,37,50,1,,,,,,,,,,,,,,,,,,,,,,,,,,,,,,,,,,,,,,,,
,,,,,SPR24_097,20,F,2024-04-25_17h01.09.042,jersey_experiment_5_v0,2023.2.2,Win32,84.74576271,,,,,,,,,,,,,,,,354.9478,355.9982,355.9982,357.7477,return,0.6116,,98.4375,,,,,,FBP-YG-91.png,0.45,1.2,30,0.25,0,38,38,29,1,,,,,,,,,,,,,,,,,,,,,,,,,,,,,,,,,,,,,,,,
,,,,,SPR24_097,20,F,2024-04-25_17h01.09.042,jersey_experiment_5_v0,2023.2.2,Win32,84.74576271,,,,,,,,,,,,,,,,357.7479,358.7949,358.7949,359.9008,return,0.5704,,98.4375,,,,,,FBP-PT-71.png,0.43,1.2,49,0.25,0,39,39,48,1,,,,,,,,,,,,,,,,,,,,,,,,,,,,,,,,,,,,,,,,
,,,,,SPR24_097,20,F,2024-04-25_17h01.09.042,jersey_experiment_5_v0,2023.2.2,Win32,84.74576271,,,,,,,,,,,,,,,,359.901,361.1949,361.1949,362.105,return,0.5776,,98.4375,,,,,,FBP-RB-91.png,0.43,1.2,44,0.5,0,40,40,43,1,,,,,,,,,,,,,,,,,,,,,,,,,,,,,,,,,,,,,,,,
,,,,,SPR24_097,20,F,2024-04-25_17h01.09.042,jersey_experiment_5_v0,2023.2.2,Win32,84.74576271,,,,,,,,,,,,,,,,362.1052,363.1479,363.1479,364.101,return,0.5414,,98.4375,,,,,,FBP-YG-81.png,0.45,1.2,25,0.25,0,41,41,24,1,,,,,,,,,,,,,,,,,,,,,,,,,,,,,,,,,,,,,,,,
,,,,,SPR24_097,20,F,2024-04-25_17h01.09.042,jersey_experiment_5_v0,2023.2.2,Win32,84.74576271,,,,,,,,,,,,,,,,364.101,365.148,365.1481,366.0926,return,0.5753,,98.4375,,,,,,FBP-PT-81.png,0.4,1.2,53,0.25,0,42,42,52,1,,,,,,,,,,,,,,,,,,,,,,,,,,,,,,,,,,,,,,,,
,,,,,SPR24_097,20,F,2024-04-25_17h01.09.042,jersey_experiment_5_v0,2023.2.2,Win32,84.74576271,,,,,,,,,,,,,,,,366.0927,367.3951,367.3952,368.2941,return,0.5416,,98.4375,,,,,,FBP-RB-71.png,0.45,1.2,35,0.5,0,43,43,34,1,,,,,,,,,,,,,,,,,,,,,,,,,,,,,,,,,,,,,,,,
,,,,,SPR24_097,20,F,2024-04-25_17h01.09.042,jersey_experiment_5_v0,2023.2.2,Win32,84.74576271,,,,,,,,,,,,,,,,368.2943,369.5986,369.5986,370.56,return,0.4965,,96.35416667,,,,,,FBP-OG-19.png,0.45,1.2,15,0.5,0,44,44,14,1,,,,,,,,,,,,,,,,,,,,,,,,,,,,,,,,,,,,,,,,
,,,,,SPR24_097,20,F,2024-04-25_17h01.09.042,jersey_experiment_5_v0,2023.2.2,Win32,84.74576271,,,,,,,,,,,,,,,,370.5603,371.854,371.854,373.1483,return,0.5368,,99.34895833,,,,,,FBP-RB-91.png,0.45,1.2,45,0.5,0,45,45,44,1,,,,,,,,,,,,,,,,,,,,,,,,,,,,,,,,,,,,,,,,
,,,,,SPR24_097,20,F,2024-04-25_17h01.09.042,jersey_experiment_5_v0,2023.2.2,Win32,84.74576271,,,,,,,,,,,,,,,,373.1485,374.1953,374.1954,375.8896,return,0.6377,,1.822916667,,,,,,FBP-YG-91.png,0.35,1.2,26,0.25,0,46,46,25,1,,,,,,,,,,,,,,,,,,,,,,,,,,,,,,,,,,,,,,,,
,,,,,SPR24_097,20,F,2024-04-25_17h01.09.042,jersey_experiment_5_v0,2023.2.2,Win32,84.74576271,,,,,,,,,,,,,,,,375.8897,376.9401,376.9401,378.9485,return,0.5048,,99.08854167,,,,,,FBP-YG-91.png,0.43,1.2,29,0.25,0,47,47,28,1,,,,,,,,,,,,,,,,,,,,,,,,,,,,,,,,,,,,,,,,
,,,,,SPR24_097,20,F,2024-04-25_17h01.09.042,jersey_experiment_5_v0,2023.2.2,Win32,84.74576271,,,,,,,,,,,,,,,,378.9486,379.999,379.999,381.4545,return,0.5109,,23.17708333,,,,,,FBP-YG-81.png,0.37,1.2,22,0.25,0,48,48,21,1,,,,,,,,,,,,,,,,,,,,,,,,,,,,,,,,,,,,,,,,
,,,,,SPR24_097,20,F,2024-04-25_17h01.09.042,jersey_experiment_5_v0,2023.2.2,Win32,84.74576271,,,,,,,,,,,,,,,,381.4548,382.7486,382.7487,383.6593,return,0.5179,,22.91666667,,,,,,FBP-OG-18.png,0.35,1.2,6,0.5,0,49,49,5,1,,,,,,,,,,,,,,,,,,,,,,,,,,,,,,,,,,,,,,,,
,,,,,SPR24_097,20,F,2024-04-25_17h01.09.042,jersey_experiment_5_v0,2023.2.2,Win32,84.74576271,,,,,,,,,,,,,,,,383.6595,384.7016,384.7016,385.7606,return,0.496,,24.34895833,,,,,,FBP-YG-71.png,0.35,1.2,16,0.25,0,50,50,15,1,,,,,,,,,,,,,,,,,,,,,,,,,,,,,,,,,,,,,,,,
,,,,,SPR24_097,20,F,2024-04-25_17h01.09.042,jersey_experiment_5_v0,2023.2.2,Win32,84.74576271,,,,,,,,,,,,,,,,385.7608,387.0547,387.0547,389.1371,return,0.5308,,48.69791667,,,,,,FBP-OG-18.png,0.43,1.2,9,0.5,0,51,51,8,1,,,,,,,,,,,,,,,,,,,,,,,,,,,,,,,,,,,,,,,,
,,,,,SPR24_097,20,F,2024-04-25_17h01.09.042,jersey_experiment_5_v0,2023.2.2,Win32,84.74576271,,,,,,,,,,,,,,,,389.1372,390.4312,390.4312,391.8949,return,0.5414,,24.73958333,,,,,,FBP-RB-81.png,0.35,1.2,36,0.5,0,52,52,35,1,,,,,,,,,,,,,,,,,,,,,,,,,,,,,,,,,,,,,,,,
,,,,,SPR24_097,20,F,2024-04-25_17h01.09.042,jersey_experiment_5_v0,2023.2.2,Win32,84.74576271,,,,,,,,,,,,,,,,391.8951,392.9372,392.9372,394.5171,return,0.5048,,74.86979167,,,,,,FBP-PT-91.png,0.43,1.2,59,0.25,0,53,53,58,1,,,,,,,,,,,,,,,,,,,,,,,,,,,,,,,,,,,,,,,,
,,,,,SPR24_097,20,F,2024-04-25_17h01.09.042,jersey_experiment_5_v0,2023.2.2,Win32,84.74576271,,,,,,,,,,,,,,,,394.5172,395.5657,395.5657,397.9845,return,0.6619,,98.95833333,,,,,,FBP-PT-81.png,0.45,1.2,55,0.25,0,54,54,54,1,,,,,,,,,,,,,,,,,,,,,,,,,,,,,,,,,,,,,,,,
,,,,,SPR24_097,20,F,2024-04-25_17h01.09.042,jersey_experiment_5_v0,2023.2.2,Win32,84.74576271,,,,,,,,,,,,,,,,397.9846,399.2786,399.2786,400.8787,return,0.5567,,74.08854167,,,,,,FBP-RB-71.png,0.4,1.2,33,0.5,0,55,55,32,1,,,,,,,,,,,,,,,,,,,,,,,,,,,,,,,,,,,,,,,,
,,,,,SPR24_097,20,F,2024-04-25_17h01.09.042,jersey_experiment_5_v0,2023.2.2,Win32,84.74576271,,,,,,,,,,,,,,,,400.879,401.929,401.929,403.1729,return,0.5414,,80.46875,,,,,,FBP-YG-71.png,0.43,1.2,19,0.25,0,56,56,18,1,,,,,,,,,,,,,,,,,,,,,,,,,,,,,,,,,,,,,,,,
,,,,,SPR24_097,20,F,2024-04-25_17h01.09.042,jersey_experiment_5_v0,2023.2.2,Win32,84.74576271,,,,,,,,,,,,,,,,403.1731,404.2199,404.2199,405.3729,return,0.4773,,88.02083333,,,,,,FBP-YG-81.png,0.43,1.2,24,0.25,0,57,57,23,1,,,,,,,,,,,,,,,,,,,,,,,,,,,,,,,,,,,,,,,,
,,,,,SPR24_097,20,F,2024-04-25_17h01.09.042,jersey_experiment_5_v0,2023.2.2,Win32,84.74576271,,,,,,,,,,,,,,,,405.3731,406.4201,406.4201,407.6707,return,0.5282,,96.22395833,,,,,,FBP-PT-91.png,0.45,1.2,60,0.25,0,58,58,59,1,,,,,,,,,,,,,,,,,,,,,,,,,,,,,,,,,,,,,,,,
,,,,,SPR24_097,20,F,2024-04-25_17h01.09.042,jersey_experiment_5_v0,2023.2.2,Win32,84.74576271,,,,,,,,,,,,,,,,407.6708,408.7142,408.7142,411.9192,return,2.1779,,63.28125,,,,,,FBP-PT-91.png,0.4,1.2,58,0.25,0,59,59,57,1,,,,,,,,,,,,,,,,,,,,,,,,,,,,,,,,,,,,,,,,
,,,,,SPR24_097,20,F,2024-04-25_17h01.09.042,jersey_experiment_5_v0,2023.2.2,Win32,84.74576271,,,,,,,,,,,,,,,,,,,,,,,,,,,,,,,,,,,,,,,411.9196,531.9188,,,,,,,,,,,,,,,,,,,,,,,,,,,,,,,,,,,,,,
,,,,,SPR24_097,20,F,2024-04-25_17h01.09.042,jersey_experiment_5_v0,2023.2.2,Win32,84.74576271,,,,,,,,,,,,,,,,,,,,,,,,,,,,,,,,,,,,,,,,,531.9188,534.347,return,2.4132,,,,,,,,,,,,,,,,,,,,,,,,,,,,,,,,,,
,,,,,SPR24_097,20,F,2024-04-25_17h01.09.042,jersey_experiment_5_v0,2023.2.2,Win32,84.74576271,,,,,,,,,,,,,,,,534.3529,535.6515,535.6515,537.3592,return,0.5415,,73.69791667,,,,,,FBP-YG-19.png,0.43,1.2,29,0.5,,,,,,,,,,,,,0,0,0,28,1,,,,,,,,,,,,,,,,,,,,,,,,,,,,
,,,,,SPR24_097,20,F,2024-04-25_17h01.09.042,jersey_experiment_5_v0,2023.2.2,Win32,84.74576271,,,,,,,,,,,,,,,,537.3595,538.4012,538.4012,539.2986,return,0.518,,73.30729167,,,,,,FBP-OG-81.png,0.43,1.2,9,0.25,,,,,,,,,,,,,0,1,1,8,1,,,,,,,,,,,,,,,,,,,,,,,,,,,,
,,,,,SPR24_097,20,F,2024-04-25_17h01.09.042,jersey_experiment_5_v0,2023.2.2,Win32,84.74576271,,,,,,,,,,,,,,,,539.2988,540.6064,540.6066,542.2533,return,0.6255,,50.13020833,,,,,,FBP-YG-17.png,0.37,1.2,17,0.5,,,,,,,,,,,,,0,2,2,16,1,,,,,,,,,,,,,,,,,,,,,,,,,,,,
,,,,,SPR24_097,20,F,2024-04-25_17h01.09.042,jersey_experiment_5_v0,2023.2.2,Win32,84.74576271,,,,,,,,,,,,,,,,542.2535,543.547,543.547,544.7814,return,0.4812,,24.34895833,,,,,,FBP-PT-19.png,0.35,1.2,56,0.5,,,,,,,,,,,,,0,3,3,55,1,,,,,,,,,,,,,,,,,,,,,,,,,,,,
,,,,,SPR24_097,20,F,2024-04-25_17h01.09.042,jersey_experiment_5_v0,2023.2.2,Win32,84.74576271,,,,,,,,,,,,,,,,544.7816,546.0889,546.0889,547.4063,return,0.5547,,73.56770833,,,,,,FBP-PT-17.png,0.43,1.2,49,0.5,,,,,,,,,,,,,0,4,4,48,1,,,,,,,,,,,,,,,,,,,,,,,,,,,,
,,,,,SPR24_097,20,F,2024-04-25_17h01.09.042,jersey_experiment_5_v0,2023.2.2,Win32,84.74576271,,,,,,,,,,,,,,,,547.4065,548.7109,548.7109,550.6065,return,0.7996,,23.046875,,,,,,FBP-YG-18.png,0.35,1.2,21,0.5,,,,,,,,,,,,,0,5,5,20,1,,,,,,,,,,,,,,,,,,,,,,,,,,,,
,,,,,SPR24_097,20,F,2024-04-25_17h01.09.042,jersey_experiment_5_v0,2023.2.2,Win32,84.74576271,,,,,,,,,,,,,,,,550.6066,551.9005,551.9005,553.3229,return,0.5179,,50.390625,,,,,,FBP-YG-19.png,0.37,1.2,27,0.5,,,,,,,,,,,,,0,6,6,26,1,,,,,,,,,,,,,,,,,,,,,,,,,,,,
,,,,,SPR24_097,20,F,2024-04-25_17h01.09.042,jersey_experiment_5_v0,2023.2.2,Win32,84.74576271,,,,,,,,,,,,,,,,553.3231,554.3713,554.3713,555.5242,return,0.5311,,50.13020833,,,,,,FBP-RB-18.png,0.37,1.2,37,0.25,,,,,,,,,,,,,0,7,7,36,1,,,,,,,,,,,,,,,,,,,,,,,,,,,,
,,,,,SPR24_097,20,F,2024-04-25_17h01.09.042,jersey_experiment_5_v0,2023.2.2,Win32,84.74576271,,,,,,,,,,,,,,,,555.5244,556.8184,556.8184,558.6724,return,0.4973,,60.28645833,,,,,,FBP-PT-19.png,0.4,1.2,58,0.5,,,,,,,,,,,,,0,8,8,57,1,,,,,,,,,,,,,,,,,,,,,,,,,,,,
,,,,,SPR24_097,20,F,2024-04-25_17h01.09.042,jersey_experiment_5_v0,2023.2.2,Win32,84.74576271,,,,,,,,,,,,,,,,558.6727,559.9717,559.9717,561.195,return,0.5179,,39.453125,,,,,,FBP-PT-18.png,0.35,1.2,51,0.5,,,,,,,,,,,,,0,9,9,50,1,,,,,,,,,,,,,,,,,,,,,,,,,,,,
,,,,,SPR24_097,20,F,2024-04-25_17h01.09.042,jersey_experiment_5_v0,2023.2.2,Win32,84.74576271,,,,,,,,,,,,,,,,561.1952,562.2406,562.2406,563.6997,return,1.0358,,39.453125,,,,,,FBP-OG-81.png,0.37,1.2,7,0.25,,,,,,,,,,,,,0,10,10,6,1,,,,,,,,,,,,,,,,,,,,,,,,,,,,
,,,,,SPR24_097,20,F,2024-04-25_17h01.09.042,jersey_experiment_5_v0,2023.2.2,Win32,84.74576271,,,,,,,,,,,,,,,,563.6999,564.7433,564.7433,566.1834,return,0.5415,,72.78645833,,,,,,FBP-OG-71.png,0.4,1.2,3,0.25,,,,,,,,,,,,,0,11,11,2,1,,,,,,,,,,,,,,,,,,,,,,,,,,,,
,,,,,SPR24_097,20,F,2024-04-25_17h01.09.042,jersey_experiment_5_v0,2023.2.2,Win32,84.74576271,,,,,,,,,,,,,,,,566.1836,567.4768,567.4769,568.3082,return,0.4602,,72.91666667,,,,,,FBP-PT-18.png,0.4,1.2,53,0.5,,,,,,,,,,,,,0,12,12,52,1,,,,,,,,,,,,,,,,,,,,,,,,,,,,
,,,,,SPR24_097,20,F,2024-04-25_17h01.09.042,jersey_experiment_5_v0,2023.2.2,Win32,84.74576271,,,,,,,,,,,,,,,,568.3084,569.3597,569.3598,570.7953,return,0.5782,,89.19270833,,,,,,FBP-OG-81.png,0.45,1.2,10,0.25,,,,,,,,,,,,,0,13,13,9,1,,,,,,,,,,,,,,,,,,,,,,,,,,,,
,,,,,SPR24_097,20,F,2024-04-25_17h01.09.042,jersey_experiment_5_v0,2023.2.2,Win32,84.74576271,,,,,,,,,,,,,,,,570.7954,572.0894,572.0895,572.9788,return,0.5898,,92.96875,,,,,,FBP-PT-19.png,0.43,1.2,59,0.5,,,,,,,,,,,,,0,14,14,58,1,,,,,,,,,,,,,,,,,,,,,,,,,,,,
,,,,,SPR24_097,20,F,2024-04-25_17h01.09.042,jersey_experiment_5_v0,2023.2.2,Win32,84.74576271,,,,,,,,,,,,,,,,572.9791,574.026,574.026,575.1589,return,0.552,,98.30729167,,,,,,FBP-OG-71.png,0.45,1.2,5,0.25,,,,,,,,,,,,,0,15,15,4,1,,,,,,,,,,,,,,,,,,,,,,,,,,,,
,,,,,SPR24_097,20,F,2024-04-25_17h01.09.042,jersey_experiment_5_v0,2023.2.2,Win32,84.74576271,,,,,,,,,,,,,,,,575.1591,576.4613,576.4613,577.4261,return,0.5659,,99.21875,,,,,,FBP-YG-17.png,0.45,1.2,20,0.5,,,,,,,,,,,,,0,16,16,19,1,,,,,,,,,,,,,,,,,,,,,,,,,,,,
,,,,,SPR24_097,20,F,2024-04-25_17h01.09.042,jersey_experiment_5_v0,2023.2.2,Win32,84.74576271,,,,,,,,,,,,,,,,577.4263,578.4732,578.4732,580.638,return,0.5348,,98.95833333,,,,,,FBP-RB-18.png,0.43,1.2,39,0.25,,,,,,,,,,,,,0,17,17,38,1,,,,,,,,,,,,,,,,,,,,,,,,,,,,
,,,,,SPR24_097,20,F,2024-04-25_17h01.09.042,jersey_experiment_5_v0,2023.2.2,Win32,84.74576271,,,,,,,,,,,,,,,,580.6382,581.6849,581.6849,582.6181,return,0.5418,,98.95833333,,,,,,FBP-RB-19.png,0.43,1.2,44,0.25,,,,,,,,,,,,,0,18,18,43,1,,,,,,,,,,,,,,,,,,,,,,,,,,,,
,,,,,SPR24_097,20,F,2024-04-25_17h01.09.042,jersey_experiment_5_v0,2023.2.2,Win32,84.74576271,,,,,,,,,,,,,,,,582.6182,583.6616,583.6616,585.4264,return,0.671,,87.63020833,,,,,,FBP-OG-71.png,0.37,1.2,2,0.25,,,,,,,,,,,,,0,19,19,1,1,,,,,,,,,,,,,,,,,,,,,,,,,,,,
,,,,,SPR24_097,20,F,2024-04-25_17h01.09.042,jersey_experiment_5_v0,2023.2.2,Win32,84.74576271,,,,,,,,,,,,,,,,585.4265,586.4735,586.4735,588.0772,return,0.5653,,37.36979167,,,,,,FBP-OG-71.png,0.35,1.2,1,0.25,,,,,,,,,,,,,0,20,20,0,1,,,,,,,,,,,,,,,,,,,,,,,,,,,,
,,,,,SPR24_097,20,F,2024-04-25_17h01.09.042,jersey_experiment_5_v0,2023.2.2,Win32,84.74576271,,,,,,,,,,,,,,,,588.0773,589.1252,589.1253,589.996,return,0.4841,,37.36979167,,,,,,FBP-RB-17.png,0.37,1.2,32,0.25,,,,,,,,,,,,,0,21,21,31,1,,,,,,,,,,,,,,,,,,,,,,,,,,,,
,,,,,SPR24_097,20,F,2024-04-25_17h01.09.042,jersey_experiment_5_v0,2023.2.2,Win32,84.74576271,,,,,,,,,,,,,,,,589.9962,591.2901,591.2901,592.4972,return,0.5655,,70.18229167,,,,,,FBP-PT-18.png,0.43,1.2,54,0.5,,,,,,,,,,,,,0,22,22,53,1,,,,,,,,,,,,,,,,,,,,,,,,,,,,
,,,,,SPR24_097,20,F,2024-04-25_17h01.09.042,jersey_experiment_5_v0,2023.2.2,Win32,84.74576271,,,,,,,,,,,,,,,,592.4974,593.7913,593.7914,594.8067,return,0.5417,,71.09375,,,,,,FBP-YG-19.png,0.4,1.2,28,0.5,,,,,,,,,,,,,0,23,23,27,1,,,,,,,,,,,,,,,,,,,,,,,,,,,,
,,,,,SPR24_097,20,F,2024-04-25_17h01.09.042,jersey_experiment_5_v0,2023.2.2,Win32,84.74576271,,,,,,,,,,,,,,,,594.8069,596.1002,596.1002,597.267,return,0.9075,,73.17708333,,,,,,FBP-PT-17.png,0.4,1.2,48,0.5,,,,,,,,,,,,,0,24,24,47,1,,,,,,,,,,,,,,,,,,,,,,,,,,,,
,,,,,SPR24_097,20,F,2024-04-25_17h01.09.042,jersey_experiment_5_v0,2023.2.2,Win32,84.74576271,,,,,,,,,,,,,,,,597.2672,598.3125,598.3126,599.1797,return,0.4192,,73.17708333,,,,,,FBP-OG-71.png,0.43,1.2,4,0.25,,,,,,,,,,,,,0,25,25,3,1,,,,,,,,,,,,,,,,,,,,,,,,,,,,
,,,,,SPR24_097,20,F,2024-04-25_17h01.09.042,jersey_experiment_5_v0,2023.2.2,Win32,84.74576271,,,,,,,,,,,,,,,,599.1799,600.4772,600.4773,603.0741,return,2.0959,,82.421875,,,,,,FBP-PT-18.png,0.45,1.2,55,0.5,,,,,,,,,,,,,0,26,26,54,1,,,,,,,,,,,,,,,,,,,,,,,,,,,,
,,,,,SPR24_097,20,F,2024-04-25_17h01.09.042,jersey_experiment_5_v0,2023.2.2,Win32,84.74576271,,,,,,,,,,,,,,,,603.0743,604.1212,604.1212,605.6437,return,0.5782,,74.609375,,,,,,FBP-OG-91.png,0.4,1.2,13,0.25,,,,,,,,,,,,,0,27,27,12,1,,,,,,,,,,,,,,,,,,,,,,,,,,,,
,,,,,SPR24_097,20,F,2024-04-25_17h01.09.042,jersey_experiment_5_v0,2023.2.2,Win32,84.74576271,,,,,,,,,,,,,,,,605.6438,606.686,606.686,607.7095,return,0.5001,,74.609375,,,,,,FBP-OG-81.png,0.4,1.2,8,0.25,,,,,,,,,,,,,0,28,28,7,1,,,,,,,,,,,,,,,,,,,,,,,,,,,,
,,,,,SPR24_097,20,F,2024-04-25_17h01.09.042,jersey_experiment_5_v0,2023.2.2,Win32,84.74576271,,,,,,,,,,,,,,,,607.7097,609.0083,609.0084,610.8271,return,0.4668,,38.671875,,,,,,FBP-PT-19.png,0.37,1.2,57,0.5,,,,,,,,,,,,,0,29,29,56,1,,,,,,,,,,,,,,,,,,,,,,,,,,,,
,,,,,SPR24_097,20,F,2024-04-25_17h01.09.042,jersey_experiment_5_v0,2023.2.2,Win32,84.74576271,,,,,,,,,,,,,,,,610.8273,612.1248,612.1249,613.2439,return,0.5543,,80.078125,,,,,,FBP-YG-18.png,0.43,1.2,24,0.5,,,,,,,,,,,,,0,30,30,23,1,,,,,,,,,,,,,,,,,,,,,,,,,,,,
,,,,,SPR24_097,20,F,2024-04-25_17h01.09.042,jersey_experiment_5_v0,2023.2.2,Win32,84.74576271,,,,,,,,,,,,,,,,613.2441,614.5382,614.5383,617.0323,return,2.0372,,99.86979167,,,,,,FBP-YG-17.png,0.43,1.2,19,0.5,,,,,,,,,,,,,0,31,31,18,1,,,,,,,,,,,,,,,,,,,,,,,,,,,,
,,,,,SPR24_097,20,F,2024-04-25_17h01.09.042,jersey_experiment_5_v0,2023.2.2,Win32,84.74576271,,,,,,,,,,,,,,,,617.0326,618.3263,618.3264,619.804,return,0.5251,,5.859375,,,,,,FBP-YG-19.png,0.35,1.2,26,0.5,,,,,,,,,,,,,0,32,32,25,1,,,,,,,,,,,,,,,,,,,,,,,,,,,,
,,,,,SPR24_097,20,F,2024-04-25_17h01.09.042,jersey_experiment_5_v0,2023.2.2,Win32,84.74576271,,,,,,,,,,,,,,,,619.8043,620.8512,620.8512,622.6194,return,0.8109,,40.36458333,,,,,,FBP-RB-19.png,0.4,1.2,43,0.25,,,,,,,,,,,,,0,33,33,42,1,,,,,,,,,,,,,,,,,,,,,,,,,,,,
,,,,,SPR24_097,20,F,2024-04-25_17h01.09.042,jersey_experiment_5_v0,2023.2.2,Win32,84.74576271,,,,,,,,,,,,,,,,622.6195,623.6677,623.6677,625.0561,return,0.4942,,22.91666667,,,,,,FBP-OG-91.png,0.35,1.2,11,0.25,,,,,,,,,,,,,0,34,34,10,1,,,,,,,,,,,,,,,,,,,,,,,,,,,,
,,,,,SPR24_097,20,F,2024-04-25_17h01.09.042,jersey_experiment_5_v0,2023.2.2,Win32,84.74576271,,,,,,,,,,,,,,,,625.0563,626.0984,626.0984,627.4563,return,0.5178,,78.125,,,,,,FBP-RB-17.png,0.4,1.2,33,0.25,,,,,,,,,,,,,0,35,35,32,1,,,,,,,,,,,,,,,,,,,,,,,,,,,,
,,,,,SPR24_097,20,F,2024-04-25_17h01.09.042,jersey_experiment_5_v0,2023.2.2,Win32,84.74576271,,,,,,,,,,,,,,,,627.4565,628.7573,628.7573,629.6279,return,0.5475,,78.125,,,,,,FBP-YG-17.png,0.4,1.2,18,0.5,,,,,,,,,,,,,0,36,36,17,1,,,,,,,,,,,,,,,,,,,,,,,,,,,,
,,,,,SPR24_097,20,F,2024-04-25_17h01.09.042,jersey_experiment_5_v0,2023.2.2,Win32,84.74576271,,,,,,,,,,,,,,,,629.6281,630.922,630.9221,631.9032,return,0.5175,,85.41666667,,,,,,FBP-YG-18.png,0.37,1.2,22,0.5,,,,,,,,,,,,,0,37,37,21,1,,,,,,,,,,,,,,,,,,,,,,,,,,,,
,,,,,SPR24_097,20,F,2024-04-25_17h01.09.042,jersey_experiment_5_v0,2023.2.2,Win32,84.74576271,,,,,,,,,,,,,,,,631.9034,632.9492,632.9493,634.4554,return,0.6595,,30.98958333,,,,,,FBP-RB-19.png,0.37,1.2,42,0.25,,,,,,,,,,,,,0,38,38,41,1,,,,,,,,,,,,,,,,,,,,,,,,,,,,
,,,,,SPR24_097,20,F,2024-04-25_17h01.09.042,jersey_experiment_5_v0,2023.2.2,Win32,84.74576271,,,,,,,,,,,,,,,,634.4556,635.5032,635.5033,636.5024,return,0.5417,,25.390625,,,,,,FBP-RB-18.png,0.35,1.2,36,0.25,,,,,,,,,,,,,0,39,39,35,1,,,,,,,,,,,,,,,,,,,,,,,,,,,,
,,,,,SPR24_097,20,F,2024-04-25_17h01.09.042,jersey_experiment_5_v0,2023.2.2,Win32,84.74576271,,,,,,,,,,,,,,,,636.5025,637.8047,637.8048,639.1812,return,0.5932,,25.390625,,,,,,FBP-PT-17.png,0.37,1.2,47,0.5,,,,,,,,,,,,,0,40,40,46,1,,,,,,,,,,,,,,,,,,,,,,,,,,,,
,,,,,SPR24_097,20,F,2024-04-25_17h01.09.042,jersey_experiment_5_v0,2023.2.2,Win32,84.74576271,,,,,,,,,,,,,,,,639.1813,640.2329,640.2329,642.0284,return,0.6175,,74.47916667,,,,,,FBP-OG-91.png,0.43,1.2,14,0.25,,,,,,,,,,,,,0,41,41,13,1,,,,,,,,,,,,,,,,,,,,,,,,,,,,
,,,,,SPR24_097,20,F,2024-04-25_17h01.09.042,jersey_experiment_5_v0,2023.2.2,Win32,84.74576271,,,,,,,,,,,,,,,,642.0286,643.0755,643.0755,647.0285,return,0.6586,,99.34895833,,,,,,FBP-OG-91.png,0.45,1.2,15,0.25,,,,,,,,,,,,,0,42,42,14,1,,,,,,,,,,,,,,,,,,,,,,,,,,,,
,,,,,SPR24_097,20,F,2024-04-25_17h01.09.042,jersey_experiment_5_v0,2023.2.2,Win32,84.74576271,,,,,,,,,,,,,,,,647.0288,648.0756,648.0756,649.1815,return,0.6057,,99.34895833,,,,,,FBP-RB-17.png,0.43,1.2,34,0.25,,,,,,,,,,,,,0,43,43,33,1,,,,,,,,,,,,,,,,,,,,,,,,,,,,
,,,,,SPR24_097,20,F,2024-04-25_17h01.09.042,jersey_experiment_5_v0,2023.2.2,Win32,84.74576271,,,,,,,,,,,,,,,,649.1818,650.2286,650.2286,651.3971,return,0.5756,,96.875,,,,,,FBP-RB-17.png,0.45,1.2,35,0.25,,,,,,,,,,,,,0,44,44,34,1,,,,,,,,,,,,,,,,,,,,,,,,,,,,
,,,,,SPR24_097,20,F,2024-04-25_17h01.09.042,jersey_experiment_5_v0,2023.2.2,Win32,84.74576271,,,,,,,,,,,,,,,,651.3973,652.6992,652.6992,653.8806,return,0.5777,,97.13541667,,,,,,FBP-PT-19.png,0.45,1.2,60,0.5,,,,,,,,,,,,,0,45,45,59,1,,,,,,,,,,,,,,,,,,,,,,,,,,,,
,,,,,SPR24_097,20,F,2024-04-25_17h01.09.042,jersey_experiment_5_v0,2023.2.2,Win32,84.74576271,,,,,,,,,,,,,,,,653.8808,655.1817,655.1818,656.0642,return,0.4841,,96.74479167,,,,,,FBP-PT-17.png,0.45,1.2,50,0.5,,,,,,,,,,,,,0,46,46,49,1,,,,,,,,,,,,,,,,,,,,,,,,,,,,
,,,,,SPR24_097,20,F,2024-04-25_17h01.09.042,jersey_experiment_5_v0,2023.2.2,Win32,84.74576271,,,,,,,,,,,,,,,,656.0642,657.1113,657.1113,658.8171,return,0.6136,,48.56770833,,,,,,FBP-OG-91.png,0.37,1.2,12,0.25,,,,,,,,,,,,,0,47,47,11,1,,,,,,,,,,,,,,,,,,,,,,,,,,,,
,,,,,SPR24_097,20,F,2024-04-25_17h01.09.042,jersey_experiment_5_v0,2023.2.2,Win32,84.74576271,,,,,,,,,,,,,,,,658.8172,659.8642,659.8643,662.8056,return,0.6012,,22.265625,,,,,,FBP-RB-17.png,0.35,1.2,31,0.25,,,,,,,,,,,,,0,48,48,30,1,,,,,,,,,,,,,,,,,,,,,,,,,,,,
,,,,,SPR24_097,20,F,2024-04-25_17h01.09.042,jersey_experiment_5_v0,2023.2.2,Win32,84.74576271,,,,,,,,,,,,,,,,662.8058,664.103,664.103,665.6564,return,0.9275,,26.30208333,,,,,,FBP-PT-17.png,0.35,1.2,46,0.5,,,,,,,,,,,,,0,49,49,45,1,,,,,,,,,,,,,,,,,,,,,,,,,,,,
,,,,,SPR24_097,20,F,2024-04-25_17h01.09.042,jersey_experiment_5_v0,2023.2.2,Win32,84.74576271,,,,,,,,,,,,,,,,665.6565,666.9586,666.9587,668.1165,return,0.7532,,26.30208333,,,,,,FBP-YG-17.png,0.35,1.2,16,0.5,,,,,,,,,,,,,0,50,50,15,1,,,,,,,,,,,,,,,,,,,,,,,,,,,,
,,,,,SPR24_097,20,F,2024-04-25_17h01.09.042,jersey_experiment_5_v0,2023.2.2,Win32,84.74576271,,,,,,,,,,,,,,,,668.1167,669.4175,669.4176,671.8057,return,0.6509,,98.30729167,,,,,,FBP-YG-18.png,0.45,1.2,25,0.5,,,,,,,,,,,,,0,51,51,24,1,,,,,,,,,,,,,,,,,,,,,,,,,,,,
,,,,,SPR24_097,20,F,2024-04-25_17h01.09.042,jersey_experiment_5_v0,2023.2.2,Win32,84.74576271,,,,,,,,,,,,,,,,671.8061,672.8531,672.8531,674.6295,return,0.5409,,3.255208333,,,,,,FBP-OG-81.png,0.35,1.2,6,0.25,,,,,,,,,,,,,0,52,52,5,1,,,,,,,,,,,,,,,,,,,,,,,,,,,,
,,,,,SPR24_097,20,F,2024-04-25_17h01.09.042,jersey_experiment_5_v0,2023.2.2,Win32,84.74576271,,,,,,,,,,,,,,,,674.6297,675.9237,675.9237,677.759,return,0.6733,,99.21875,,,,,,FBP-YG-19.png,0.45,1.2,30,0.5,,,,,,,,,,,,,0,53,53,29,1,,,,,,,,,,,,,,,,,,,,,,,,,,,,
,,,,,SPR24_097,20,F,2024-04-25_17h01.09.042,jersey_experiment_5_v0,2023.2.2,Win32,84.74576271,,,,,,,,,,,,,,,,677.7592,678.8061,678.8061,680.4532,return,0.531,,2.34375,,,,,,FBP-RB-19.png,0.35,1.2,41,0.25,,,,,,,,,,,,,0,54,54,40,1,,,,,,,,,,,,,,,,,,,,,,,,,,,,
,,,,,SPR24_097,20,F,2024-04-25_17h01.09.042,jersey_experiment_5_v0,2023.2.2,Win32,84.74576271,,,,,,,,,,,,,,,,680.4535,681.7507,681.7508,683.3708,return,0.548,,25.65104167,,,,,,FBP-PT-18.png,0.37,1.2,52,0.5,,,,,,,,,,,,,0,55,55,51,1,,,,,,,,,,,,,,,,,,,,,,,,,,,,
,,,,,SPR24_097,20,F,2024-04-25_17h01.09.042,jersey_experiment_5_v0,2023.2.2,Win32,84.74576271,,,,,,,,,,,,,,,,683.371,684.4231,684.4231,686.0299,return,0.5345,,75.13020833,,,,,,FBP-RB-18.png,0.4,1.2,38,0.25,,,,,,,,,,,,,0,56,56,37,1,,,,,,,,,,,,,,,,,,,,,,,,,,,,
,,,,,SPR24_097,20,F,2024-04-25_17h01.09.042,jersey_experiment_5_v0,2023.2.2,Win32,84.74576271,,,,,,,,,,,,,,,,686.0301,687.077,687.077,688.6217,return,0.5882,,97.91666667,,,,,,FBP-RB-18.png,0.45,1.2,40,0.25,,,,,,,,,,,,,0,57,57,39,1,,,,,,,,,,,,,,,,,,,,,,,,,,,,
,,,,,SPR24_097,20,F,2024-04-25_17h01.09.042,jersey_experiment_5_v0,2023.2.2,Win32,84.74576271,,,,,,,,,,,,,,,,688.6218,689.6654,689.6654,690.7476,return,0.512,,98.046875,,,,,,FBP-RB-19.png,0.45,1.2,45,0.25,,,,,,,,,,,,,0,58,58,44,1,,,,,,,,,,,,,,,,,,,,,,,,,,,,
,,,,,SPR24_097,20,F,2024-04-25_17h01.09.042,jersey_experiment_5_v0,2023.2.2,Win32,84.74576271,,,,,,,,,,,,,,,,690.7477,692.0418,692.0419,693.1361,return,0.684,,95.703125,,,,,,FBP-YG-18.png,0.4,1.2,23,0.5,,,,,,,,,,,,,0,59,59,22,1,,,,,,,,,,,,,,,,,,,,,,,,,,,,
,,,,,SPR24_097,20,F,2024-04-25_17h01.09.042,jersey_experiment_5_v0,2023.2.2,Win32,84.74576271,,,,,,,,,,,,,,,,693.1376,694.4302,694.4303,695.6302,return,0.6392,,89.84375,,,,,,FBP-PT-81.png,0.43,1.2,54,0.5,,,,,,,,,,,,,,,,,,0,0,0,53,1,,,,,,,,,,,,,,,,,,,,,,,
,,,,,SPR24_097,20,F,2024-04-25_17h01.09.042,jersey_experiment_5_v0,2023.2.2,Win32,84.74576271,,,,,,,,,,,,,,,,695.6303,696.9245,696.9245,699.9162,return,0.8813,,25.13020833,,,,,,FBP-YG-81.png,0.37,1.2,22,0.5,,,,,,,,,,,,,,,,,,0,1,1,21,1,,,,,,,,,,,,,,,,,,,,,,,
,,,,,SPR24_097,20,F,2024-04-25_17h01.09.042,jersey_experiment_5_v0,2023.2.2,Win32,84.74576271,,,,,,,,,,,,,,,,699.9162,701.2235,701.2235,702.0775,return,0.4749,,25.13020833,,,,,,FBP-PT-71.png,0.37,1.2,47,0.5,,,,,,,,,,,,,,,,,,0,2,2,46,1,,,,,,,,,,,,,,,,,,,,,,,
,,,,,SPR24_097,20,F,2024-04-25_17h01.09.042,jersey_experiment_5_v0,2023.2.2,Win32,84.74576271,,,,,,,,,,,,,,,,702.0777,703.3751,703.3751,704.6187,return,0.6082,,49.73958333,,,,,,FBP-PT-81.png,0.37,1.2,52,0.5,,,,,,,,,,,,,,,,,,0,3,3,51,1,,,,,,,,,,,,,,,,,,,,,,,
,,,,,SPR24_097,20,F,2024-04-25_17h01.09.042,jersey_experiment_5_v0,2023.2.2,Win32,84.74576271,,,,,,,,,,,,,,,,704.6189,705.9129,705.9129,707.4692,return,0.6456,,23.4375,,,,,,FBP-YG-81.png,0.35,1.2,21,0.5,,,,,,,,,,,,,,,,,,0,4,4,20,1,,,,,,,,,,,,,,,,,,,,,,,
,,,,,SPR24_097,20,F,2024-04-25_17h01.09.042,jersey_experiment_5_v0,2023.2.2,Win32,84.74576271,,,,,,,,,,,,,,,,707.4693,708.5129,708.513,710.1248,return,0.6301,,99.21875,,,,,,FBP-RB-81.png,0.43,1.2,39,0.25,,,,,,,,,,,,,,,,,,0,5,5,38,1,,,,,,,,,,,,,,,,,,,,,,,
,,,,,SPR24_097,20,F,2024-04-25_17h01.09.042,jersey_experiment_5_v0,2023.2.2,Win32,84.74576271,,,,,,,,,,,,,,,,710.1251,711.4192,711.4192,712.8427,return,1.0307,,94.921875,,,,,,FBP-PT-71.png,0.4,1.2,48,0.5,,,,,,,,,,,,,,,,,,0,6,6,47,1,,,,,,,,,,,,,,,,,,,,,,,
,,,,,SPR24_097,20,F,2024-04-25_17h01.09.042,jersey_experiment_5_v0,2023.2.2,Win32,84.74576271,,,,,,,,,,,,,,,,712.8429,714.1367,714.1367,715.2344,return,0.5754,,96.35416667,,,,,,FBP-YG-91.png,0.45,1.2,30,0.5,,,,,,,,,,,,,,,,,,0,7,7,29,1,,,,,,,,,,,,,,,,,,,,,,,
,,,,,SPR24_097,20,F,2024-04-25_17h01.09.042,jersey_experiment_5_v0,2023.2.2,Win32,84.74576271,,,,,,,,,,,,,,,,715.2345,716.2781,716.2781,717.5405,return,0.9756,,96.35416667,,,,,,FBP-OG-19.png,0.45,1.2,15,0.25,,,,,,,,,,,,,,,,,,0,8,8,14,1,,,,,,,,,,,,,,,,,,,,,,,
,,,,,SPR24_097,20,F,2024-04-25_17h01.09.042,jersey_experiment_5_v0,2023.2.2,Win32,84.74576271,,,,,,,,,,,,,,,,717.5406,718.8427,718.8428,720.29,return,0.6592,,77.34375,,,,,,FBP-PT-91.png,0.4,1.2,58,0.5,,,,,,,,,,,,,,,,,,0,9,9,57,1,,,,,,,,,,,,,,,,,,,,,,,
,,,,,SPR24_097,20,F,2024-04-25_17h01.09.042,jersey_experiment_5_v0,2023.2.2,Win32,84.74576271,,,,,,,,,,,,,,,,720.2902,721.3413,721.3413,724.1422,return,1.0592,,75.52083333,,,,,,FBP-RB-71.png,0.4,1.2,33,0.25,,,,,,,,,,,,,,,,,,0,10,10,32,1,,,,,,,,,,,,,,,,,,,,,,,
,,,,,SPR24_097,20,F,2024-04-25_17h01.09.042,jersey_experiment_5_v0,2023.2.2,Win32,84.74576271,,,,,,,,,,,,,,,,724.1423,725.4431,725.4431,728.1136,return,1.1884,,50.78125,,,,,,FBP-YG-91.png,0.37,1.2,27,0.5,,,,,,,,,,,,,,,,,,0,11,11,26,1,,,,,,,,,,,,,,,,,,,,,,,
,,,,,SPR24_097,20,F,2024-04-25_17h01.09.042,jersey_experiment_5_v0,2023.2.2,Win32,84.74576271,,,,,,,,,,,,,,,,728.1138,729.4126,729.4126,731.0133,return,0.6022,,98.30729167,,,,,,FBP-YG-71.png,0.45,1.2,20,0.5,,,,,,,,,,,,,,,,,,0,12,12,19,1,,,,,,,,,,,,,,,,,,,,,,,
,,,,,SPR24_097,20,F,2024-04-25_17h01.09.042,jersey_experiment_5_v0,2023.2.2,Win32,84.74576271,,,,,,,,,,,,,,,,731.0135,732.055,732.055,734.2668,return,0.6789,,75.390625,,,,,,FBP-OG-17.png,0.4,1.2,3,0.25,,,,,,,,,,,,,,,,,,0,13,13,2,1,,,,,,,,,,,,,,,,,,,,,,,
,,,,,SPR24_097,20,F,2024-04-25_17h01.09.042,jersey_experiment_5_v0,2023.2.2,Win32,84.74576271,,,,,,,,,,,,,,,,734.267,735.5611,735.5611,736.6001,return,0.5884,,75.390625,,,,,,FBP-YG-71.png,0.4,1.2,18,0.5,,,,,,,,,,,,,,,,,,0,14,14,17,1,,,,,,,,,,,,,,,,,,,,,,,
,,,,,SPR24_097,20,F,2024-04-25_17h01.09.042,jersey_experiment_5_v0,2023.2.2,Win32,84.74576271,,,,,,,,,,,,,,,,736.6003,737.9069,737.9069,739.7259,return,0.77,,25.26041667,,,,,,FBP-YG-71.png,0.35,1.2,16,0.5,,,,,,,,,,,,,,,,,,0,15,15,15,1,,,,,,,,,,,,,,,,,,,,,,,
,,,,,SPR24_097,20,F,2024-04-25_17h01.09.042,jersey_experiment_5_v0,2023.2.2,Win32,84.74576271,,,,,,,,,,,,,,,,739.7261,740.7776,740.7776,741.9847,return,0.6491,,24.08854167,,,,,,FBP-RB-81.png,0.37,1.2,37,0.25,,,,,,,,,,,,,,,,,,0,16,16,36,1,,,,,,,,,,,,,,,,,,,,,,,
,,,,,SPR24_097,20,F,2024-04-25_17h01.09.042,jersey_experiment_5_v0,2023.2.2,Win32,84.74576271,,,,,,,,,,,,,,,,741.9849,743.0366,743.0367,745.531,return,1.1769,,99.47916667,,,,,,FBP-RB-81.png,0.45,1.2,40,0.25,,,,,,,,,,,,,,,,,,0,17,17,39,1,,,,,,,,,,,,,,,,,,,,,,,
,,,,,SPR24_097,20,F,2024-04-25_17h01.09.042,jersey_experiment_5_v0,2023.2.2,Win32,84.74576271,,,,,,,,,,,,,,,,745.5311,746.5732,746.5733,748.9263,return,0.6151,,20.83333333,,,,,,FBP-OG-17.png,0.35,1.2,1,0.25,,,,,,,,,,,,,,,,,,0,18,18,0,1,,,,,,,,,,,,,,,,,,,,,,,
,,,,,SPR24_097,20,F,2024-04-25_17h01.09.042,jersey_experiment_5_v0,2023.2.2,Win32,84.74576271,,,,,,,,,,,,,,,,748.9264,749.9733,749.9734,751.9734,return,1.0215,,74.21875,,,,,,FBP-RB-81.png,0.4,1.2,38,0.25,,,,,,,,,,,,,,,,,,0,19,19,37,1,,,,,,,,,,,,,,,,,,,,,,,
,,,,,SPR24_097,20,F,2024-04-25_17h01.09.042,jersey_experiment_5_v0,2023.2.2,Win32,84.74576271,,,,,,,,,,,,,,,,751.9735,753.2674,753.2674,754.7971,return,0.5943,,99.609375,,,,,,FBP-PT-81.png,0.45,1.2,55,0.5,,,,,,,,,,,,,,,,,,0,20,20,54,1,,,,,,,,,,,,,,,,,,,,,,,
,,,,,SPR24_097,20,F,2024-04-25_17h01.09.042,jersey_experiment_5_v0,2023.2.2,Win32,84.74576271,,,,,,,,,,,,,,,,754.7972,756.0913,756.0914,757.777,return,0.6823,,26.30208333,,,,,,FBP-PT-81.png,0.35,1.2,51,0.5,,,,,,,,,,,,,,,,,,0,21,21,50,1,,,,,,,,,,,,,,,,,,,,,,,
,,,,,SPR24_097,20,F,2024-04-25_17h01.09.042,jersey_experiment_5_v0,2023.2.2,Win32,84.74576271,,,,,,,,,,,,,,,,757.7771,759.0796,759.0796,760.6008,return,0.5755,,50,,,,,,FBP-YG-81.png,0.4,1.2,23,0.5,,,,,,,,,,,,,,,,,,0,22,22,22,1,,,,,,,,,,,,,,,,,,,,,,,
,,,,,SPR24_097,20,F,2024-04-25_17h01.09.042,jersey_experiment_5_v0,2023.2.2,Win32,84.74576271,,,,,,,,,,,,,,,,760.6009,761.9031,761.9031,763.2257,return,0.5887,,62.36979167,,,,,,FBP-YG-91.png,0.4,1.2,28,0.5,,,,,,,,,,,,,,,,,,0,23,23,27,1,,,,,,,,,,,,,,,,,,,,,,,
,,,,,SPR24_097,20,F,2024-04-25_17h01.09.042,jersey_experiment_5_v0,2023.2.2,Win32,84.74576271,,,,,,,,,,,,,,,,763.2259,764.268,764.268,765.7739,return,0.5926,,98.95833333,,,,,,FBP-RB-71.png,0.45,1.2,35,0.25,,,,,,,,,,,,,,,,,,0,24,24,34,1,,,,,,,,,,,,,,,,,,,,,,,
,,,,,SPR24_097,20,F,2024-04-25_17h01.09.042,jersey_experiment_5_v0,2023.2.2,Win32,84.74576271,,,,,,,,,,,,,,,,765.774,766.8256,766.8256,769.5975,return,0.6274,,25.13020833,,,,,,FBP-RB-91.png,0.35,1.2,41,0.25,,,,,,,,,,,,,,,,,,0,25,25,40,1,,,,,,,,,,,,,,,,,,,,,,,
,,,,,SPR24_097,20,F,2024-04-25_17h01.09.042,jersey_experiment_5_v0,2023.2.2,Win32,84.74576271,,,,,,,,,,,,,,,,769.5976,770.6447,770.6447,772.332,return,0.565,,64.58333333,,,,,,FBP-OG-19.png,0.4,1.2,13,0.25,,,,,,,,,,,,,,,,,,0,26,26,12,1,,,,,,,,,,,,,,,,,,,,,,,
,,,,,SPR24_097,20,F,2024-04-25_17h01.09.042,jersey_experiment_5_v0,2023.2.2,Win32,84.74576271,,,,,,,,,,,,,,,,772.3322,773.3742,773.3742,774.8918,return,0.6893,,33.33333333,,,,,,FBP-OG-18.png,0.35,1.2,6,0.25,,,,,,,,,,,,,,,,,,0,27,27,5,1,,,,,,,,,,,,,,,,,,,,,,,
,,,,,SPR24_097,20,F,2024-04-25_17h01.09.042,jersey_experiment_5_v0,2023.2.2,Win32,84.74576271,,,,,,,,,,,,,,,,774.8919,776.1906,776.1906,777.6214,return,0.588,,99.47916667,,,,,,FBP-YG-81.png,0.43,1.2,24,0.5,,,,,,,,,,,,,,,,,,0,28,28,23,1,,,,,,,,,,,,,,,,,,,,,,,
,,,,,SPR24_097,20,F,2024-04-25_17h01.09.042,jersey_experiment_5_v0,2023.2.2,Win32,84.74576271,,,,,,,,,,,,,,,,777.6216,778.9203,778.9203,779.8616,return,0.5548,,99.47916667,,,,,,FBP-PT-71.png,0.45,1.2,50,0.5,,,,,,,,,,,,,,,,,,0,29,29,49,1,,,,,,,,,,,,,,,,,,,,,,,
,,,,,SPR24_097,20,F,2024-04-25_17h01.09.042,jersey_experiment_5_v0,2023.2.2,Win32,84.74576271,,,,,,,,,,,,,,,,779.8617,780.9038,780.9038,783.6333,return,0.5654,,97.00520833,,,,,,FBP-RB-91.png,0.45,1.2,45,0.25,,,,,,,,,,,,,,,,,,0,30,30,44,1,,,,,,,,,,,,,,,,,,,,,,,
,,,,,SPR24_097,20,F,2024-04-25_17h01.09.042,jersey_experiment_5_v0,2023.2.2,Win32,84.74576271,,,,,,,,,,,,,,,,783.6336,784.6804,784.6804,786.3627,return,0.5479,,58.59375,,,,,,FBP-RB-71.png,0.37,1.2,32,0.25,,,,,,,,,,,,,,,,,,0,31,31,31,1,,,,,,,,,,,,,,,,,,,,,,,
,,,,,SPR24_097,20,F,2024-04-25_17h01.09.042,jersey_experiment_5_v0,2023.2.2,Win32,84.74576271,,,,,,,,,,,,,,,,786.3629,787.6571,787.6571,788.6613,return,0.5174,,75.78125,,,,,,FBP-PT-91.png,0.43,1.2,59,0.5,,,,,,,,,,,,,,,,,,0,32,32,58,1,,,,,,,,,,,,,,,,,,,,,,,
,,,,,SPR24_097,20,F,2024-04-25_17h01.09.042,jersey_experiment_5_v0,2023.2.2,Win32,84.74576271,,,,,,,,,,,,,,,,788.6615,789.9556,789.9556,793.5042,return,1.7911,,98.56770833,,,,,,FBP-YG-91.png,0.43,1.2,29,0.5,,,,,,,,,,,,,,,,,,0,33,33,28,1,,,,,,,,,,,,,,,,,,,,,,,
,,,,,SPR24_097,20,F,2024-04-25_17h01.09.042,jersey_experiment_5_v0,2023.2.2,Win32,84.74576271,,,,,,,,,,,,,,,,793.5044,794.803,794.803,796.222,return,0.5581,,22.00520833,,,,,,FBP-PT-71.png,0.35,1.2,46,0.5,,,,,,,,,,,,,,,,,,0,34,34,45,1,,,,,,,,,,,,,,,,,,,,,,,
,,,,,SPR24_097,20,F,2024-04-25_17h01.09.042,jersey_experiment_5_v0,2023.2.2,Win32,84.74576271,,,,,,,,,,,,,,,,796.2222,797.5162,797.5162,798.4846,return,0.5991,,22.65625,,,,,,FBP-YG-71.png,0.37,1.2,17,0.5,,,,,,,,,,,,,,,,,,0,35,35,16,1,,,,,,,,,,,,,,,,,,,,,,,
,,,,,SPR24_097,20,F,2024-04-25_17h01.09.042,jersey_experiment_5_v0,2023.2.2,Win32,84.74576271,,,,,,,,,,,,,,,,798.4848,799.528,799.5281,801.2693,return,0.5514,,98.17708333,,,,,,FBP-OG-17.png,0.45,1.2,5,0.25,,,,,,,,,,,,,,,,,,0,36,36,4,1,,,,,,,,,,,,,,,,,,,,,,,
,,,,,SPR24_097,20,F,2024-04-25_17h01.09.042,jersey_experiment_5_v0,2023.2.2,Win32,84.74576271,,,,,,,,,,,,,,,,801.2694,802.3164,802.3165,804.54,return,0.4643,,28.90625,,,,,,FBP-OG-19.png,0.35,1.2,11,0.25,,,,,,,,,,,,,,,,,,0,37,37,10,1,,,,,,,,,,,,,,,,,,,,,,,
,,,,,SPR24_097,20,F,2024-04-25_17h01.09.042,jersey_experiment_5_v0,2023.2.2,Win32,84.74576271,,,,,,,,,,,,,,,,804.5401,805.587,805.5871,806.9789,return,0.5046,,33.59375,,,,,,FBP-OG-18.png,0.37,1.2,7,0.25,,,,,,,,,,,,,,,,,,0,38,38,6,1,,,,,,,,,,,,,,,,,,,,,,,
,,,,,SPR24_097,20,F,2024-04-25_17h01.09.042,jersey_experiment_5_v0,2023.2.2,Win32,84.74576271,,,,,,,,,,,,,,,,806.9789,808.2859,808.286,809.9519,return,0.5679,,93.75,,,,,,FBP-YG-71.png,0.43,1.2,19,0.5,,,,,,,,,,,,,,,,,,0,39,39,18,1,,,,,,,,,,,,,,,,,,,,,,,
,,,,,SPR24_097,20,F,2024-04-25_17h01.09.042,jersey_experiment_5_v0,2023.2.2,Win32,84.74576271,,,,,,,,,,,,,,,,809.952,811.2461,811.2461,812.2392,return,0.5544,,90.36458333,,,,,,FBP-PT-71.png,0.43,1.2,49,0.5,,,,,,,,,,,,,,,,,,0,40,40,48,1,,,,,,,,,,,,,,,,,,,,,,,
,,,,,SPR24_097,20,F,2024-04-25_17h01.09.042,jersey_experiment_5_v0,2023.2.2,Win32,84.74576271,,,,,,,,,,,,,,,,812.2395,813.2815,813.2815,814.7568,return,0.4473,,30.72916667,,,,,,FBP-OG-18.png,0.4,1.2,8,0.25,,,,,,,,,,,,,,,,,,0,41,41,7,1,,,,,,,,,,,,,,,,,,,,,,,
,,,,,SPR24_097,20,F,2024-04-25_17h01.09.042,jersey_experiment_5_v0,2023.2.2,Win32,84.74576271,,,,,,,,,,,,,,,,814.757,815.7992,815.7992,817.458,return,0.859,,75,,,,,,FBP-OG-17.png,0.43,1.2,4,0.25,,,,,,,,,,,,,,,,,,0,42,42,3,1,,,,,,,,,,,,,,,,,,,,,,,
,,,,,SPR24_097,20,F,2024-04-25_17h01.09.042,jersey_experiment_5_v0,2023.2.2,Win32,84.74576271,,,,,,,,,,,,,,,,817.4582,818.5052,818.5052,821.5051,return,0.7652,,74.86979167,,,,,,FBP-OG-19.png,0.43,1.2,14,0.25,,,,,,,,,,,,,,,,,,0,43,43,13,1,,,,,,,,,,,,,,,,,,,,,,,
,,,,,SPR24_097,20,F,2024-04-25_17h01.09.042,jersey_experiment_5_v0,2023.2.2,Win32,84.74576271,,,,,,,,,,,,,,,,821.5053,822.7994,822.7995,823.991,return,0.5752,,91.14583333,,,,,,FBP-YG-81.png,0.45,1.2,25,0.5,,,,,,,,,,,,,,,,,,0,44,44,24,1,,,,,,,,,,,,,,,,,,,,,,,
,,,,,SPR24_097,20,F,2024-04-25_17h01.09.042,jersey_experiment_5_v0,2023.2.2,Win32,84.74576271,,,,,,,,,,,,,,,,823.9911,825.0348,825.0349,826.1795,return,0.646,,91.14583333,,,,,,FBP-OG-18.png,0.45,1.2,10,0.25,,,,,,,,,,,,,,,,,,0,45,45,9,1,,,,,,,,,,,,,,,,,,,,,,,
,,,,,SPR24_097,20,F,2024-04-25_17h01.09.042,jersey_experiment_5_v0,2023.2.2,Win32,84.74576271,,,,,,,,,,,,,,,,826.1797,827.2232,827.2232,828.9643,return,0.5413,,24.34895833,,,,,,FBP-RB-81.png,0.35,1.2,36,0.25,,,,,,,,,,,,,,,,,,0,46,46,35,1,,,,,,,,,,,,,,,,,,,,,,,
,,,,,SPR24_097,20,F,2024-04-25_17h01.09.042,jersey_experiment_5_v0,2023.2.2,Win32,84.74576271,,,,,,,,,,,,,,,,828.9645,830.2632,830.2632,831.4704,return,0.7563,,24.47916667,,,,,,FBP-YG-91.png,0.35,1.2,26,0.5,,,,,,,,,,,,,,,,,,0,47,47,25,1,,,,,,,,,,,,,,,,,,,,,,,
,,,,,SPR24_097,20,F,2024-04-25_17h01.09.042,jersey_experiment_5_v0,2023.2.2,Win32,84.74576271,,,,,,,,,,,,,,,,831.4706,832.7677,832.7677,833.9175,return,0.4749,,23.828125,,,,,,FBP-PT-91.png,0.37,1.2,57,0.5,,,,,,,,,,,,,,,,,,0,48,48,56,1,,,,,,,,,,,,,,,,,,,,,,,
,,,,,SPR24_097,20,F,2024-04-25_17h01.09.042,jersey_experiment_5_v0,2023.2.2,Win32,84.74576271,,,,,,,,,,,,,,,,833.9177,834.9646,834.9646,836.0117,return,0.5603,,23.828125,,,,,,FBP-RB-91.png,0.43,1.2,44,0.25,,,,,,,,,,,,,,,,,,0,49,49,43,1,,,,,,,,,,,,,,,,,,,,,,,
,,,,,SPR24_097,20,F,2024-04-25_17h01.09.042,jersey_experiment_5_v0,2023.2.2,Win32,84.74576271,,,,,,,,,,,,,,,,836.0119,837.0587,837.0587,837.9919,return,0.6124,,23.828125,,,,,,FBP-RB-71.png,0.43,1.2,34,0.25,,,,,,,,,,,,,,,,,,0,50,50,33,1,,,,,,,,,,,,,,,,,,,,,,,
,,,,,SPR24_097,20,F,2024-04-25_17h01.09.042,jersey_experiment_5_v0,2023.2.2,Win32,84.74576271,,,,,,,,,,,,,,,,837.992,839.0353,839.0353,841.0707,return,0.5102,,85.28645833,,,,,,FBP-OG-18.png,0.43,1.2,9,0.25,,,,,,,,,,,,,,,,,,0,51,51,8,1,,,,,,,,,,,,,,,,,,,,,,,
,,,,,SPR24_097,20,F,2024-04-25_17h01.09.042,jersey_experiment_5_v0,2023.2.2,Win32,84.74576271,,,,,,,,,,,,,,,,841.0709,842.1177,842.1177,844.0519,return,0.6588,,25.78125,,,,,,FBP-RB-71.png,0.35,1.2,31,0.25,,,,,,,,,,,,,,,,,,0,52,52,30,1,,,,,,,,,,,,,,,,,,,,,,,
,,,,,SPR24_097,20,F,2024-04-25_17h01.09.042,jersey_experiment_5_v0,2023.2.2,Win32,84.74576271,,,,,,,,,,,,,,,,844.052,845.3461,845.3461,846.4474,return,0.522,,77.08333333,,,,,,FBP-PT-81.png,0.4,1.2,53,0.5,,,,,,,,,,,,,,,,,,0,53,53,52,1,,,,,,,,,,,,,,,,,,,,,,,
,,,,,SPR24_097,20,F,2024-04-25_17h01.09.042,jersey_experiment_5_v0,2023.2.2,Win32,84.74576271,,,,,,,,,,,,,,,,846.4475,847.4943,847.4944,849.3934,return,0.9879,,24.08854167,,,,,,FBP-OG-19.png,0.37,1.2,12,0.25,,,,,,,,,,,,,,,,,,0,54,54,11,1,,,,,,,,,,,,,,,,,,,,,,,
,,,,,SPR24_097,20,F,2024-04-25_17h01.09.042,jersey_experiment_5_v0,2023.2.2,Win32,84.74576271,,,,,,,,,,,,,,,,849.3935,850.4356,850.4357,851.7234,return,0.5553,,76.04166667,,,,,,FBP-OG-17.png,0.37,1.2,2,0.25,,,,,,,,,,,,,,,,,,0,55,55,1,1,,,,,,,,,,,,,,,,,,,,,,,
,,,,,SPR24_097,20,F,2024-04-25_17h01.09.042,jersey_experiment_5_v0,2023.2.2,Win32,84.74576271,,,,,,,,,,,,,,,,851.7236,853.0171,853.0171,855.33,return,0.5654,,99.47916667,,,,,,FBP-PT-91.png,0.45,1.2,60,0.5,,,,,,,,,,,,,,,,,,0,56,56,59,1,,,,,,,,,,,,,,,,,,,,,,,
,,,,,SPR24_097,20,F,2024-04-25_17h01.09.042,jersey_experiment_5_v0,2023.2.2,Win32,84.74576271,,,,,,,,,,,,,,,,855.3302,856.377,856.3771,858.016,return,0.5519,,73.828125,,,,,,FBP-RB-91.png,0.4,1.2,43,0.25,,,,,,,,,,,,,,,,,,0,57,57,42,1,,,,,,,,,,,,,,,,,,,,,,,
,,,,,SPR24_097,20,F,2024-04-25_17h01.09.042,jersey_experiment_5_v0,2023.2.2,Win32,84.74576271,,,,,,,,,,,,,,,,858.0162,859.0594,859.0595,860.6278,return,0.6226,,25.65104167,,,,,,FBP-RB-91.png,0.37,1.2,42,0.25,,,,,,,,,,,,,,,,,,0,58,58,41,1,,,,,,,,,,,,,,,,,,,,,,,
,,,,,SPR24_097,20,F,2024-04-25_17h01.09.042,jersey_experiment_5_v0,2023.2.2,Win32,84.74576271,,,,,,,,,,,,,,,,860.628,861.922,861.922,863.3704,return,0.6591,,30.078125,,,,,,FBP-PT-91.png,0.35,1.2,56,0.5,,,,,,,,,,,,,,,,,,0,59,59,55,1,,,,,,,,,,,,,,,,,,,,,,,
,,,,,SPR24_097,20,F,2024-04-25_17h01.09.042,jersey_experiment_5_v0,2023.2.2,Win32,84.74576271,,,,,,,,,,,,,,,,,,,,,,,,,,,,,,,,,,,,,,,,,,,,,,,,,,,,,,,,863.3707,868.3221,return,4.9413,,,,,,,,,,,,,,,,,,,
,,,,,SPR24_097,20,F,2024-04-25_17h01.09.042,jersey_experiment_5_v0,2023.2.2,Win32,84.74576271,,,,,,,,,,,,,,,,,,,,,,,,,,,,,,,,,,,,,,,,,,,,,,,,,,,,,,,,,,,,,868.3223,873.7895,1,4.0894,return,1.3566,,,,,,,,,,,,
,,,,,SPR24_097,20,F,2024-04-25_17h01.09.042,jersey_experiment_5_v0,2023.2.2,Win32,84.74576271,,,,,,,,,,,,,,,,,,,,,,,,,,,,,,,,,,,,,,,,,,,,,,,,,,,,,,,,,,,,,,,,,,,,873.7896,965.5032,"No not really but maybe seeing the effects of color on weight perception (skin color and shirt color), and also maybe how putting the images successively in different combinations will produce different weight perceptions.",right,83.1284,,,,,,
,,,,,SPR24_097,20,F,2024-04-25_17h01.09.042,jersey_experiment_5_v0,2023.2.2,Win32,84.74576271,,,,,,,,,,,,,,,,,,,,,,,,,,,,,,,,,,,,,,,,,,,,,,,,,,,,,,,,,,,,,,,,,,,,,,,,,,965.5032,967.6988,return,2.1749,