requirements.started,requirements.stopped,key_resp_3.keys,key_resp_3.rt,key_resp_3.duration,Subject ID,Age,Gender,date,expName,psychopyVersion,OS,frameRate,instructions1.started,instructions1.stopped,key_resp.keys,key_resp.rt,key_resp.duration,example.started,example.stopped,enter_2.keys,enter_2.rt,enter_2.duration,instructions2.started,instructions2.stopped,enter_3.keys,enter_3.rt,enter_3.duration,image.started,image.stopped,slider_2.started,slider_2.stopped,next.keys,next.rt,next.duration,slider.response,trial_block_1.thisRepN,trial_block_1.thisTrialN,trial_block_1.thisN,trial_block_1.thisIndex,trial_block_1.ran,Path,Width,Height,Index,Duration,trial_block_2.thisRepN,trial_block_2.thisTrialN,trial_block_2.thisN,trial_block_2.thisIndex,trial_block_2.ran,rest_break.started,rest_break.stopped,end_break.started,end_break.stopped,key_resp_5.keys,key_resp_5.rt,key_resp_5.duration,trial_block_3.thisRepN,trial_block_3.thisTrialN,trial_block_3.thisN,trial_block_3.thisIndex,trial_block_3.ran,trial_block_4.thisRepN,trial_block_4.thisTrialN,trial_block_4.thisN,trial_block_4.thisIndex,trial_block_4.ran,questions_intro.started,questions_intro.stopped,enter_12.keys,enter_12.rt,enter_12.duration,question2.started,question2.stopped,question_doingbest.response,question_doingbest.rt,enter_15.keys,enter_15.rt,enter_15.duration,pattern.started,pattern.stopped,pattern_2.text,enter_17.keys,enter_17.rt,enter_17.duration,thankyou.started,thankyou.stopped,enter_14.keys,enter_14.rt,enter_14.duration
0,7.2875,return,7.2809,,SPR24_036,18,Female,2024-04-11_09h58.00.450,jersey_experiment_5_v0,2023.2.2,Win32,84.74576271,,,,,,,,,,,,,,,,,,,,,,,,,,,,,,,,,,,,,,,,,,,,,,,,,,,,,,,,,,,,,,,,,,,,,,,,,,,,,,
,,,,,SPR24_036,18,Female,2024-04-11_09h58.00.450,jersey_experiment_5_v0,2023.2.2,Win32,84.74576271,7.2875,13.355,return,6.0467,,,,,,,,,,,,,,,,,,,,,,,,,,,,,,,,,,,,,,,,,,,,,,,,,,,,,,,,,,,,,,,,,,,,,,,,,,
,,,,,SPR24_036,18,Female,2024-04-11_09h58.00.450,jersey_experiment_5_v0,2023.2.2,Win32,84.74576271,,,,,,13.355,19.2645,return,5.8759,,,,,,,,,,,,,,,,,,,,,,,,,,,,,,,,,,,,,,,,,,,,,,,,,,,,,,,,,,,,,,,,,,,,,
,,,,,SPR24_036,18,Female,2024-04-11_09h58.00.450,jersey_experiment_5_v0,2023.2.2,Win32,84.74576271,,,,,,,,,,,19.2646,39.6308,return,20.3531,,,,,,,,,,,,,,,,,,,,,,,,,,,,,,,,,,,,,,,,,,,,,,,,,,,,,,,,,,,,,,,,
,,,,,SPR24_036,18,Female,2024-04-11_09h58.00.450,jersey_experiment_5_v0,2023.2.2,Win32,84.74576271,,,,,,,,,,,,,,,,39.6369,40.6897,40.6897,49.6265,return,2.6478,,50,0,0,0,58,1,FBP-PT-19.png,0.43,1.2,59,0.25,,,,,,,,,,,,,,,,,,,,,,,,,,,,,,,,,,,,,,,,,,,,,
,,,,,SPR24_036,18,Female,2024-04-11_09h58.00.450,jersey_experiment_5_v0,2023.2.2,Win32,84.74576271,,,,,,,,,,,,,,,,49.6268,50.6737,50.6738,54.2203,return,0.4845,,74.86979167,0,1,1,29,1,FBP-YG-19.png,0.45,1.2,30,0.25,,,,,,,,,,,,,,,,,,,,,,,,,,,,,,,,,,,,,,,,,,,,,
,,,,,SPR24_036,18,Female,2024-04-11_09h58.00.450,jersey_experiment_5_v0,2023.2.2,Win32,84.74576271,,,,,,,,,,,,,,,,54.2205,55.262,55.262,58.3139,return,1.237,,75.13020833,0,2,2,59,1,FBP-PT-19.png,0.45,1.2,60,0.25,,,,,,,,,,,,,,,,,,,,,,,,,,,,,,,,,,,,,,,,,,,,,
,,,,,SPR24_036,18,Female,2024-04-11_09h58.00.450,jersey_experiment_5_v0,2023.2.2,Win32,84.74576271,,,,,,,,,,,,,,,,58.3141,59.3564,59.3564,61.773,return,0.1781,,74.86979167,0,3,3,17,1,FBP-YG-17.png,0.4,1.2,18,0.25,,,,,,,,,,,,,,,,,,,,,,,,,,,,,,,,,,,,,,,,,,,,,
,,,,,SPR24_036,18,Female,2024-04-11_09h58.00.450,jersey_experiment_5_v0,2023.2.2,Win32,84.74576271,,,,,,,,,,,,,,,,61.7732,63.0741,63.0742,65.1918,return,1.4844,,74.86979167,0,4,4,12,1,FBP-OG-91.png,0.4,1.2,13,0.5,,,,,,,,,,,,,,,,,,,,,,,,,,,,,,,,,,,,,,,,,,,,,
,,,,,SPR24_036,18,Female,2024-04-11_09h58.00.450,jersey_experiment_5_v0,2023.2.2,Win32,84.74576271,,,,,,,,,,,,,,,,65.192,66.4859,66.4859,68.6674,return,0.4004,,75.390625,0,5,5,6,1,FBP-OG-81.png,0.37,1.2,7,0.5,,,,,,,,,,,,,,,,,,,,,,,,,,,,,,,,,,,,,,,,,,,,,
,,,,,SPR24_036,18,Female,2024-04-11_09h58.00.450,jersey_experiment_5_v0,2023.2.2,Win32,84.74576271,,,,,,,,,,,,,,,,68.6676,69.7096,69.7096,72.4425,return,0.3871,,68.48958333,0,6,6,15,1,FBP-YG-17.png,0.35,1.2,16,0.25,,,,,,,,,,,,,,,,,,,,,,,,,,,,,,,,,,,,,,,,,,,,,
,,,,,SPR24_036,18,Female,2024-04-11_09h58.00.450,jersey_experiment_5_v0,2023.2.2,Win32,84.74576271,,,,,,,,,,,,,,,,72.4426,73.7451,73.7451,75.6192,return,0.1991,,86.97916667,0,7,7,30,1,FBP-RB-17.png,0.35,1.2,31,0.5,,,,,,,,,,,,,,,,,,,,,,,,,,,,,,,,,,,,,,,,,,,,,
,,,,,SPR24_036,18,Female,2024-04-11_09h58.00.450,jersey_experiment_5_v0,2023.2.2,Win32,84.74576271,,,,,,,,,,,,,,,,75.6194,76.9262,76.9262,78.2548,return,0.4476,,91.53645833,0,8,8,43,1,FBP-RB-19.png,0.43,1.2,44,0.5,,,,,,,,,,,,,,,,,,,,,,,,,,,,,,,,,,,,,,,,,,,,,
,,,,,SPR24_036,18,Female,2024-04-11_09h58.00.450,jersey_experiment_5_v0,2023.2.2,Win32,84.74576271,,,,,,,,,,,,,,,,78.2549,79.2982,79.2982,80.6277,return,0.1605,,92.31770833,0,9,9,57,1,FBP-PT-19.png,0.4,1.2,58,0.25,,,,,,,,,,,,,,,,,,,,,,,,,,,,,,,,,,,,,,,,,,,,,
,,,,,SPR24_036,18,Female,2024-04-11_09h58.00.450,jersey_experiment_5_v0,2023.2.2,Win32,84.74576271,,,,,,,,,,,,,,,,80.6278,81.9218,81.9218,84.2277,return,0.4764,,93.22916667,0,10,10,3,1,FBP-OG-71.png,0.43,1.2,4,0.5,,,,,,,,,,,,,,,,,,,,,,,,,,,,,,,,,,,,,,,,,,,,,
,,,,,SPR24_036,18,Female,2024-04-11_09h58.00.450,jersey_experiment_5_v0,2023.2.2,Win32,84.74576271,,,,,,,,,,,,,,,,84.228,85.2749,85.2749,86.7962,return,0.2829,,98.30729167,0,11,11,19,1,FBP-YG-17.png,0.45,1.2,20,0.25,,,,,,,,,,,,,,,,,,,,,,,,,,,,,,,,,,,,,,,,,,,,,
,,,,,SPR24_036,18,Female,2024-04-11_09h58.00.450,jersey_experiment_5_v0,2023.2.2,Win32,84.74576271,,,,,,,,,,,,,,,,86.7963,87.8442,87.8443,90.6683,return,0.2019,,74.08854167,0,12,12,16,1,FBP-YG-17.png,0.37,1.2,17,0.25,,,,,,,,,,,,,,,,,,,,,,,,,,,,,,,,,,,,,,,,,,,,,
,,,,,SPR24_036,18,Female,2024-04-11_09h58.00.450,jersey_experiment_5_v0,2023.2.2,Win32,84.74576271,,,,,,,,,,,,,,,,90.6684,91.962,91.9621,92.7104,return,0.146,,74.21875,0,13,13,7,1,FBP-OG-81.png,0.4,1.2,8,0.5,,,,,,,,,,,,,,,,,,,,,,,,,,,,,,,,,,,,,,,,,,,,,
,,,,,SPR24_036,18,Female,2024-04-11_09h58.00.450,jersey_experiment_5_v0,2023.2.2,Win32,84.74576271,,,,,,,,,,,,,,,,92.7105,94.0045,94.0045,94.7495,return,0.1653,,74.21875,0,14,14,1,1,FBP-OG-71.png,0.37,1.2,2,0.5,,,,,,,,,,,,,,,,,,,,,,,,,,,,,,,,,,,,,,,,,,,,,
,,,,,SPR24_036,18,Female,2024-04-11_09h58.00.450,jersey_experiment_5_v0,2023.2.2,Win32,84.74576271,,,,,,,,,,,,,,,,94.7497,95.7929,95.793,97.4753,return,0.1373,,78.90625,0,15,15,47,1,FBP-PT-17.png,0.4,1.2,48,0.25,,,,,,,,,,,,,,,,,,,,,,,,,,,,,,,,,,,,,,,,,,,,,
,,,,,SPR24_036,18,Female,2024-04-11_09h58.00.450,jersey_experiment_5_v0,2023.2.2,Win32,84.74576271,,,,,,,,,,,,,,,,97.4755,98.5223,98.5224,99.7847,return,0.2358,,69.01041667,0,16,16,46,1,FBP-PT-17.png,0.37,1.2,47,0.25,,,,,,,,,,,,,,,,,,,,,,,,,,,,,,,,,,,,,,,,,,,,,
,,,,,SPR24_036,18,Female,2024-04-11_09h58.00.450,jersey_experiment_5_v0,2023.2.2,Win32,84.74576271,,,,,,,,,,,,,,,,99.7849,100.8283,100.8284,102.1341,return,0.2046,,63.15104167,0,17,17,45,1,FBP-PT-17.png,0.35,1.2,46,0.25,,,,,,,,,,,,,,,,,,,,,,,,,,,,,,,,,,,,,,,,,,,,,
,,,,,SPR24_036,18,Female,2024-04-11_09h58.00.450,jersey_experiment_5_v0,2023.2.2,Win32,84.74576271,,,,,,,,,,,,,,,,102.1343,103.4316,103.4317,105.1865,return,0.2488,,98.69791667,0,18,18,38,1,FBP-RB-18.png,0.43,1.2,39,0.5,,,,,,,,,,,,,,,,,,,,,,,,,,,,,,,,,,,,,,,,,,,,,
,,,,,SPR24_036,18,Female,2024-04-11_09h58.00.450,jersey_experiment_5_v0,2023.2.2,Win32,84.74576271,,,,,,,,,,,,,,,,105.1867,106.2285,106.2286,107.8924,return,0.4001,,99.73958333,0,19,19,49,1,FBP-PT-17.png,0.45,1.2,50,0.25,,,,,,,,,,,,,,,,,,,,,,,,,,,,,,,,,,,,,,,,,,,,,
,,,,,SPR24_036,18,Female,2024-04-11_09h58.00.450,jersey_experiment_5_v0,2023.2.2,Win32,84.74576271,,,,,,,,,,,,,,,,107.8926,109.1934,109.1934,111.0922,return,0.1074,,50,0,20,20,31,1,FBP-RB-17.png,0.37,1.2,32,0.5,,,,,,,,,,,,,,,,,,,,,,,,,,,,,,,,,,,,,,,,,,,,,
,,,,,SPR24_036,18,Female,2024-04-11_09h58.00.450,jersey_experiment_5_v0,2023.2.2,Win32,84.74576271,,,,,,,,,,,,,,,,111.0924,112.3862,112.3863,113.1934,return,0.1548,,50,0,21,21,36,1,FBP-RB-18.png,0.37,1.2,37,0.5,,,,,,,,,,,,,,,,,,,,,,,,,,,,,,,,,,,,,,,,,,,,,
,,,,,SPR24_036,18,Female,2024-04-11_09h58.00.450,jersey_experiment_5_v0,2023.2.2,Win32,84.74576271,,,,,,,,,,,,,,,,113.1936,114.4876,114.4876,115.2572,return,0.131,,57.8125,0,22,22,2,1,FBP-OG-71.png,0.4,1.2,3,0.5,,,,,,,,,,,,,,,,,,,,,,,,,,,,,,,,,,,,,,,,,,,,,
,,,,,SPR24_036,18,Female,2024-04-11_09h58.00.450,jersey_experiment_5_v0,2023.2.2,Win32,84.74576271,,,,,,,,,,,,,,,,115.2573,116.551,116.551,117.8643,return,0.3426,,59.50520833,0,23,23,40,1,FBP-RB-19.png,0.35,1.2,41,0.5,,,,,,,,,,,,,,,,,,,,,,,,,,,,,,,,,,,,,,,,,,,,,
,,,,,SPR24_036,18,Female,2024-04-11_09h58.00.450,jersey_experiment_5_v0,2023.2.2,Win32,84.74576271,,,,,,,,,,,,,,,,117.8645,119.1584,119.1584,120.8575,return,0.1778,,99.47916667,0,24,24,39,1,FBP-RB-18.png,0.45,1.2,40,0.5,,,,,,,,,,,,,,,,,,,,,,,,,,,,,,,,,,,,,,,,,,,,,
,,,,,SPR24_036,18,Female,2024-04-11_09h58.00.450,jersey_experiment_5_v0,2023.2.2,Win32,84.74576271,,,,,,,,,,,,,,,,120.8576,121.8996,121.8996,124.9517,return,0.1649,,63.93229167,0,25,25,50,1,FBP-PT-18.png,0.35,1.2,51,0.25,,,,,,,,,,,,,,,,,,,,,,,,,,,,,,,,,,,,,,,,,,,,,
,,,,,SPR24_036,18,Female,2024-04-11_09h58.00.450,jersey_experiment_5_v0,2023.2.2,Win32,84.74576271,,,,,,,,,,,,,,,,124.9518,126.2527,126.2528,127.7284,return,0.1312,,50.390625,0,26,26,10,1,FBP-OG-91.png,0.35,1.2,11,0.5,,,,,,,,,,,,,,,,,,,,,,,,,,,,,,,,,,,,,,,,,,,,,
,,,,,SPR24_036,18,Female,2024-04-11_09h58.00.450,jersey_experiment_5_v0,2023.2.2,Win32,84.74576271,,,,,,,,,,,,,,,,127.7284,128.7705,128.7706,130.8813,return,0.178,,99.73958333,0,27,27,22,1,FBP-YG-18.png,0.4,1.2,23,0.25,,,,,,,,,,,,,,,,,,,,,,,,,,,,,,,,,,,,,,,,,,,,,
,,,,,SPR24_036,18,Female,2024-04-11_09h58.00.450,jersey_experiment_5_v0,2023.2.2,Win32,84.74576271,,,,,,,,,,,,,,,,130.8815,131.9269,131.927,133.0332,return,0.2933,,99.73958333,0,28,28,54,1,FBP-PT-18.png,0.45,1.2,55,0.25,,,,,,,,,,,,,,,,,,,,,,,,,,,,,,,,,,,,,,,,,,,,,
,,,,,SPR24_036,18,Female,2024-04-11_09h58.00.450,jersey_experiment_5_v0,2023.2.2,Win32,84.74576271,,,,,,,,,,,,,,,,133.0333,134.0765,134.0765,134.9156,return,0.1883,,99.73958333,0,29,29,53,1,FBP-PT-18.png,0.43,1.2,54,0.25,,,,,,,,,,,,,,,,,,,,,,,,,,,,,,,,,,,,,,,,,,,,,
,,,,,SPR24_036,18,Female,2024-04-11_09h58.00.450,jersey_experiment_5_v0,2023.2.2,Win32,84.74576271,,,,,,,,,,,,,,,,134.9158,135.9635,135.9635,136.9626,return,0.2355,,99.73958333,0,30,30,52,1,FBP-PT-18.png,0.4,1.2,53,0.25,,,,,,,,,,,,,,,,,,,,,,,,,,,,,,,,,,,,,,,,,,,,,
,,,,,SPR24_036,18,Female,2024-04-11_09h58.00.450,jersey_experiment_5_v0,2023.2.2,Win32,84.74576271,,,,,,,,,,,,,,,,136.9628,138.265,138.265,139.0062,return,0.225,,99.73958333,0,31,31,8,1,FBP-OG-81.png,0.43,1.2,9,0.5,,,,,,,,,,,,,,,,,,,,,,,,,,,,,,,,,,,,,,,,,,,,,
,,,,,SPR24_036,18,Female,2024-04-11_09h58.00.450,jersey_experiment_5_v0,2023.2.2,Win32,84.74576271,,,,,,,,,,,,,,,,139.0065,140.0577,140.0577,143.3055,return,0.1417,,49.73958333,0,32,32,25,1,FBP-YG-19.png,0.35,1.2,26,0.25,,,,,,,,,,,,,,,,,,,,,,,,,,,,,,,,,,,,,,,,,,,,,
,,,,,SPR24_036,18,Female,2024-04-11_09h58.00.450,jersey_experiment_5_v0,2023.2.2,Win32,84.74576271,,,,,,,,,,,,,,,,143.3057,144.61,144.61,146.2336,return,0.1177,,74.86979167,0,33,33,37,1,FBP-RB-18.png,0.4,1.2,38,0.5,,,,,,,,,,,,,,,,,,,,,,,,,,,,,,,,,,,,,,,,,,,,,
,,,,,SPR24_036,18,Female,2024-04-11_09h58.00.450,jersey_experiment_5_v0,2023.2.2,Win32,84.74576271,,,,,,,,,,,,,,,,146.2338,147.2816,147.2816,149.2113,return,0.2016,,82.421875,0,34,34,56,1,FBP-PT-19.png,0.37,1.2,57,0.25,,,,,,,,,,,,,,,,,,,,,,,,,,,,,,,,,,,,,,,,,,,,,
,,,,,SPR24_036,18,Female,2024-04-11_09h58.00.450,jersey_experiment_5_v0,2023.2.2,Win32,84.74576271,,,,,,,,,,,,,,,,149.2115,150.5125,150.5125,151.8808,return,0.1517,,95.05208333,0,35,35,9,1,FBP-OG-81.png,0.45,1.2,10,0.5,,,,,,,,,,,,,,,,,,,,,,,,,,,,,,,,,,,,,,,,,,,,,
,,,,,SPR24_036,18,Female,2024-04-11_09h58.00.450,jersey_experiment_5_v0,2023.2.2,Win32,84.74576271,,,,,,,,,,,,,,,,151.8811,153.1745,153.1745,155.2185,return,0.2186,,99.73958333,0,36,36,44,1,FBP-RB-19.png,0.45,1.2,45,0.5,,,,,,,,,,,,,,,,,,,,,,,,,,,,,,,,,,,,,,,,,,,,,
,,,,,SPR24_036,18,Female,2024-04-11_09h58.00.450,jersey_experiment_5_v0,2023.2.2,Win32,84.74576271,,,,,,,,,,,,,,,,155.2188,156.2655,156.2656,158.2656,return,0.3308,,74.609375,0,37,37,26,1,FBP-YG-19.png,0.37,1.2,27,0.25,,,,,,,,,,,,,,,,,,,,,,,,,,,,,,,,,,,,,,,,,,,,,
,,,,,SPR24_036,18,Female,2024-04-11_09h58.00.450,jersey_experiment_5_v0,2023.2.2,Win32,84.74576271,,,,,,,,,,,,,,,,158.2658,159.3159,159.316,161.9247,return,0.1829,,75.13020833,0,38,38,51,1,FBP-PT-18.png,0.37,1.2,52,0.25,,,,,,,,,,,,,,,,,,,,,,,,,,,,,,,,,,,,,,,,,,,,,
,,,,,SPR24_036,18,Female,2024-04-11_09h58.00.450,jersey_experiment_5_v0,2023.2.2,Win32,84.74576271,,,,,,,,,,,,,,,,161.9249,163.219,163.219,164.2342,return,0.2225,,86.328125,0,39,39,13,1,FBP-OG-91.png,0.43,1.2,14,0.5,,,,,,,,,,,,,,,,,,,,,,,,,,,,,,,,,,,,,,,,,,,,,
,,,,,SPR24_036,18,Female,2024-04-11_09h58.00.450,jersey_experiment_5_v0,2023.2.2,Win32,84.74576271,,,,,,,,,,,,,,,,164.2343,165.2775,165.2775,166.7129,return,0.1298,,94.140625,0,40,40,23,1,FBP-YG-18.png,0.43,1.2,24,0.25,,,,,,,,,,,,,,,,,,,,,,,,,,,,,,,,,,,,,,,,,,,,,
,,,,,SPR24_036,18,Female,2024-04-11_09h58.00.450,jersey_experiment_5_v0,2023.2.2,Win32,84.74576271,,,,,,,,,,,,,,,,166.713,168.0124,168.0124,169.118,return,0.1548,,94.66145833,0,41,41,41,1,FBP-RB-19.png,0.37,1.2,42,0.5,,,,,,,,,,,,,,,,,,,,,,,,,,,,,,,,,,,,,,,,,,,,,
,,,,,SPR24_036,18,Female,2024-04-11_09h58.00.450,jersey_experiment_5_v0,2023.2.2,Win32,84.74576271,,,,,,,,,,,,,,,,169.1182,170.1603,170.1603,171.0308,return,0.1798,,94.66145833,0,42,42,27,1,FBP-YG-19.png,0.4,1.2,28,0.25,,,,,,,,,,,,,,,,,,,,,,,,,,,,,,,,,,,,,,,,,,,,,
,,,,,SPR24_036,18,Female,2024-04-11_09h58.00.450,jersey_experiment_5_v0,2023.2.2,Win32,84.74576271,,,,,,,,,,,,,,,,171.0311,172.325,172.3251,173.6192,return,0.1841,,99.73958333,0,43,43,34,1,FBP-RB-17.png,0.45,1.2,35,0.5,,,,,,,,,,,,,,,,,,,,,,,,,,,,,,,,,,,,,,,,,,,,,
,,,,,SPR24_036,18,Female,2024-04-11_09h58.00.450,jersey_experiment_5_v0,2023.2.2,Win32,84.74576271,,,,,,,,,,,,,,,,173.6194,174.9134,174.9134,175.6592,return,0.2016,,99.73958333,0,44,44,14,1,FBP-OG-91.png,0.45,1.2,15,0.5,,,,,,,,,,,,,,,,,,,,,,,,,,,,,,,,,,,,,,,,,,,,,
,,,,,SPR24_036,18,Female,2024-04-11_09h58.00.450,jersey_experiment_5_v0,2023.2.2,Win32,84.74576271,,,,,,,,,,,,,,,,175.6594,176.964,176.964,179.0194,return,0.1513,,75.13020833,0,45,45,5,1,FBP-OG-81.png,0.35,1.2,6,0.5,,,,,,,,,,,,,,,,,,,,,,,,,,,,,,,,,,,,,,,,,,,,,
,,,,,SPR24_036,18,Female,2024-04-11_09h58.00.450,jersey_experiment_5_v0,2023.2.2,Win32,84.74576271,,,,,,,,,,,,,,,,179.0196,180.0665,180.0665,181.6699,return,0.212,,80.98958333,0,46,46,28,1,FBP-YG-19.png,0.43,1.2,29,0.25,,,,,,,,,,,,,,,,,,,,,,,,,,,,,,,,,,,,,,,,,,,,,
,,,,,SPR24_036,18,Female,2024-04-11_09h58.00.450,jersey_experiment_5_v0,2023.2.2,Win32,84.74576271,,,,,,,,,,,,,,,,181.6701,182.9724,182.9725,184.4466,return,0.2121,,75.52083333,0,47,47,0,1,FBP-OG-71.png,0.35,1.2,1,0.5,,,,,,,,,,,,,,,,,,,,,,,,,,,,,,,,,,,,,,,,,,,,,
,,,,,SPR24_036,18,Female,2024-04-11_09h58.00.450,jersey_experiment_5_v0,2023.2.2,Win32,84.74576271,,,,,,,,,,,,,,,,184.4467,185.4948,185.4948,186.902,return,0.1225,,75.390625,0,48,48,20,1,FBP-YG-18.png,0.35,1.2,21,0.25,,,,,,,,,,,,,,,,,,,,,,,,,,,,,,,,,,,,,,,,,,,,,
,,,,,SPR24_036,18,Female,2024-04-11_09h58.00.450,jersey_experiment_5_v0,2023.2.2,Win32,84.74576271,,,,,,,,,,,,,,,,186.9023,188.1961,188.1961,189.208,return,0.1916,,88.15104167,0,49,49,33,1,FBP-RB-17.png,0.43,1.2,34,0.5,,,,,,,,,,,,,,,,,,,,,,,,,,,,,,,,,,,,,,,,,,,,,
,,,,,SPR24_036,18,Female,2024-04-11_09h58.00.450,jersey_experiment_5_v0,2023.2.2,Win32,84.74576271,,,,,,,,,,,,,,,,189.2082,190.2551,190.2551,191.8117,return,0.1521,,99.73958333,0,50,50,24,1,FBP-YG-18.png,0.45,1.2,25,0.25,,,,,,,,,,,,,,,,,,,,,,,,,,,,,,,,,,,,,,,,,,,,,
,,,,,SPR24_036,18,Female,2024-04-11_09h58.00.450,jersey_experiment_5_v0,2023.2.2,Win32,84.74576271,,,,,,,,,,,,,,,,191.812,192.8551,192.8552,193.5998,return,0.3297,,99.73958333,0,51,51,48,1,FBP-PT-17.png,0.43,1.2,49,0.25,,,,,,,,,,,,,,,,,,,,,,,,,,,,,,,,,,,,,,,,,,,,,
,,,,,SPR24_036,18,Female,2024-04-11_09h58.00.450,jersey_experiment_5_v0,2023.2.2,Win32,84.74576271,,,,,,,,,,,,,,,,193.6,194.6434,194.6435,195.6082,return,0.2616,,99.609375,0,52,52,18,1,FBP-YG-17.png,0.43,1.2,19,0.25,,,,,,,,,,,,,,,,,,,,,,,,,,,,,,,,,,,,,,,,,,,,,
,,,,,SPR24_036,18,Female,2024-04-11_09h58.00.450,jersey_experiment_5_v0,2023.2.2,Win32,84.74576271,,,,,,,,,,,,,,,,195.6084,196.9023,196.9023,199.0436,return,0.2896,,50,0,53,53,11,1,FBP-OG-91.png,0.37,1.2,12,0.5,,,,,,,,,,,,,,,,,,,,,,,,,,,,,,,,,,,,,,,,,,,,,
,,,,,SPR24_036,18,Female,2024-04-11_09h58.00.450,jersey_experiment_5_v0,2023.2.2,Win32,84.74576271,,,,,,,,,,,,,,,,199.0439,200.0908,200.0908,201.0483,return,0.2483,,50,0,54,54,21,1,FBP-YG-18.png,0.37,1.2,22,0.25,,,,,,,,,,,,,,,,,,,,,,,,,,,,,,,,,,,,,,,,,,,,,
,,,,,SPR24_036,18,Female,2024-04-11_09h58.00.450,jersey_experiment_5_v0,2023.2.2,Win32,84.74576271,,,,,,,,,,,,,,,,201.0485,202.3496,202.3496,204.3298,return,0.1416,,74.86979167,0,55,55,4,1,FBP-OG-71.png,0.45,1.2,5,0.5,,,,,,,,,,,,,,,,,,,,,,,,,,,,,,,,,,,,,,,,,,,,,
,,,,,SPR24_036,18,Female,2024-04-11_09h58.00.450,jersey_experiment_5_v0,2023.2.2,Win32,84.74576271,,,,,,,,,,,,,,,,204.3299,205.6321,205.6321,206.7432,return,0.1886,,64.453125,0,56,56,35,1,FBP-RB-18.png,0.35,1.2,36,0.5,,,,,,,,,,,,,,,,,,,,,,,,,,,,,,,,,,,,,,,,,,,,,
,,,,,SPR24_036,18,Female,2024-04-11_09h58.00.450,jersey_experiment_5_v0,2023.2.2,Win32,84.74576271,,,,,,,,,,,,,,,,206.7435,208.0473,208.0473,209.3784,return,0.1548,,74.73958333,0,57,57,42,1,FBP-RB-19.png,0.4,1.2,43,0.5,,,,,,,,,,,,,,,,,,,,,,,,,,,,,,,,,,,,,,,,,,,,,
,,,,,SPR24_036,18,Female,2024-04-11_09h58.00.450,jersey_experiment_5_v0,2023.2.2,Win32,84.74576271,,,,,,,,,,,,,,,,209.3785,210.6721,210.6721,211.4323,return,0.1797,,74.73958333,0,58,58,32,1,FBP-RB-17.png,0.4,1.2,33,0.5,,,,,,,,,,,,,,,,,,,,,,,,,,,,,,,,,,,,,,,,,,,,,
,,,,,SPR24_036,18,Female,2024-04-11_09h58.00.450,jersey_experiment_5_v0,2023.2.2,Win32,84.74576271,,,,,,,,,,,,,,,,211.4325,212.4794,212.4795,213.7182,return,0.518,,74.73958333,0,59,59,55,1,FBP-PT-19.png,0.35,1.2,56,0.25,,,,,,,,,,,,,,,,,,,,,,,,,,,,,,,,,,,,,,,,,,,,,
,,,,,SPR24_036,18,Female,2024-04-11_09h58.00.450,jersey_experiment_5_v0,2023.2.2,Win32,84.74576271,,,,,,,,,,,,,,,,213.7197,215.0207,215.0207,216.2442,return,0.2421,,82.68229167,,,,,,FBP-RB-81.png,0.43,1.2,39,0.5,0,0,0,38,1,,,,,,,,,,,,,,,,,,,,,,,,,,,,,,,,,,,,,,,,
,,,,,SPR24_036,18,Female,2024-04-11_09h58.00.450,jersey_experiment_5_v0,2023.2.2,Win32,84.74576271,,,,,,,,,,,,,,,,216.2444,217.5384,217.5384,218.7906,return,0.2593,,82.94270833,,,,,,FBP-RB-91.png,0.35,1.2,41,0.5,0,1,1,40,1,,,,,,,,,,,,,,,,,,,,,,,,,,,,,,,,,,,,,,,,
,,,,,SPR24_036,18,Female,2024-04-11_09h58.00.450,jersey_experiment_5_v0,2023.2.2,Win32,84.74576271,,,,,,,,,,,,,,,,218.7908,219.8324,219.8325,221.1267,return,0.2512,,89.19270833,,,,,,FBP-PT-91.png,0.45,1.2,60,0.25,0,2,2,59,1,,,,,,,,,,,,,,,,,,,,,,,,,,,,,,,,,,,,,,,,
,,,,,SPR24_036,18,Female,2024-04-11_09h58.00.450,jersey_experiment_5_v0,2023.2.2,Win32,84.74576271,,,,,,,,,,,,,,,,221.127,222.1741,222.1741,223.2242,return,0.2355,,95.05208333,,,,,,FBP-YG-91.png,0.45,1.2,30,0.25,0,3,3,29,1,,,,,,,,,,,,,,,,,,,,,,,,,,,,,,,,,,,,,,,,
,,,,,SPR24_036,18,Female,2024-04-11_09h58.00.450,jersey_experiment_5_v0,2023.2.2,Win32,84.74576271,,,,,,,,,,,,,,,,223.2244,224.2681,224.2681,224.9739,return,0.1645,,95.05208333,,,,,,FBP-PT-71.png,0.45,1.2,50,0.25,0,4,4,49,1,,,,,,,,,,,,,,,,,,,,,,,,,,,,,,,,,,,,,,,,
,,,,,SPR24_036,18,Female,2024-04-11_09h58.00.450,jersey_experiment_5_v0,2023.2.2,Win32,84.74576271,,,,,,,,,,,,,,,,224.974,226.2722,226.2723,228.4144,return,0.3064,,50,,,,,,FBP-OG-19.png,0.35,1.2,11,0.5,0,5,5,10,1,,,,,,,,,,,,,,,,,,,,,,,,,,,,,,,,,,,,,,,,
,,,,,SPR24_036,18,Female,2024-04-11_09h58.00.450,jersey_experiment_5_v0,2023.2.2,Win32,84.74576271,,,,,,,,,,,,,,,,228.4146,229.7153,229.7153,231.5912,return,0.1889,,62.63020833,,,,,,FBP-RB-81.png,0.4,1.2,38,0.5,0,6,6,37,1,,,,,,,,,,,,,,,,,,,,,,,,,,,,,,,,,,,,,,,,
,,,,,SPR24_036,18,Female,2024-04-11_09h58.00.450,jersey_experiment_5_v0,2023.2.2,Win32,84.74576271,,,,,,,,,,,,,,,,231.5913,232.6365,232.6365,236.6449,return,0.17,,75.13020833,,,,,,FBP-YG-81.png,0.43,1.2,24,0.25,0,7,7,23,1,,,,,,,,,,,,,,,,,,,,,,,,,,,,,,,,,,,,,,,,
,,,,,SPR24_036,18,Female,2024-04-11_09h58.00.450,jersey_experiment_5_v0,2023.2.2,Win32,84.74576271,,,,,,,,,,,,,,,,236.6451,237.9439,237.9439,240.2371,return,0.2696,,99.47916667,,,,,,FBP-RB-71.png,0.45,1.2,35,0.5,0,8,8,34,1,,,,,,,,,,,,,,,,,,,,,,,,,,,,,,,,,,,,,,,,
,,,,,SPR24_036,18,Female,2024-04-11_09h58.00.450,jersey_experiment_5_v0,2023.2.2,Win32,84.74576271,,,,,,,,,,,,,,,,240.2372,241.2804,241.2805,243.3089,return,0.2724,,24.08854167,,,,,,FBP-YG-91.png,0.35,1.2,26,0.25,0,9,9,25,1,,,,,,,,,,,,,,,,,,,,,,,,,,,,,,,,,,,,,,,,
,,,,,SPR24_036,18,Female,2024-04-11_09h58.00.450,jersey_experiment_5_v0,2023.2.2,Win32,84.74576271,,,,,,,,,,,,,,,,243.3092,244.6029,244.6029,246.2924,return,0.2051,,99.609375,,,,,,FBP-RB-91.png,0.43,1.2,44,0.5,0,10,10,43,1,,,,,,,,,,,,,,,,,,,,,,,,,,,,,,,,,,,,,,,,
,,,,,SPR24_036,18,Female,2024-04-11_09h58.00.450,jersey_experiment_5_v0,2023.2.2,Win32,84.74576271,,,,,,,,,,,,,,,,246.2926,247.591,247.591,249.257,return,0.1664,,75.13020833,,,,,,FBP-OG-19.png,0.4,1.2,13,0.5,0,11,11,12,1,,,,,,,,,,,,,,,,,,,,,,,,,,,,,,,,,,,,,,,,
,,,,,SPR24_036,18,Female,2024-04-11_09h58.00.450,jersey_experiment_5_v0,2023.2.2,Win32,84.74576271,,,,,,,,,,,,,,,,249.2572,250.3043,250.3044,251.9078,return,0.1283,,99.86979167,,,,,,FBP-PT-81.png,0.45,1.2,55,0.25,0,12,12,54,1,,,,,,,,,,,,,,,,,,,,,,,,,,,,,,,,,,,,,,,,
,,,,,SPR24_036,18,Female,2024-04-11_09h58.00.450,jersey_experiment_5_v0,2023.2.2,Win32,84.74576271,,,,,,,,,,,,,,,,251.908,252.9514,252.9514,256.4622,return,0.4706,,74.08854167,,,,,,FBP-YG-91.png,0.43,1.2,29,0.25,0,13,13,28,1,,,,,,,,,,,,,,,,,,,,,,,,,,,,,,,,,,,,,,,,
,,,,,SPR24_036,18,Female,2024-04-11_09h58.00.450,jersey_experiment_5_v0,2023.2.2,Win32,84.74576271,,,,,,,,,,,,,,,,256.4624,257.5044,257.5045,258.8965,return,0.1418,,74.609375,,,,,,FBP-YG-71.png,0.4,1.2,18,0.25,0,14,14,17,1,,,,,,,,,,,,,,,,,,,,,,,,,,,,,,,,,,,,,,,,
,,,,,SPR24_036,18,Female,2024-04-11_09h58.00.450,jersey_experiment_5_v0,2023.2.2,Win32,84.74576271,,,,,,,,,,,,,,,,258.8967,259.944,259.944,260.6139,return,0.2121,,74.609375,,,,,,FBP-PT-81.png,0.35,1.2,51,0.25,0,15,15,50,1,,,,,,,,,,,,,,,,,,,,,,,,,,,,,,,,,,,,,,,,
,,,,,SPR24_036,18,Female,2024-04-11_09h58.00.450,jersey_experiment_5_v0,2023.2.2,Win32,84.74576271,,,,,,,,,,,,,,,,260.6141,261.6576,261.6576,263.6224,return,0.1333,,99.47916667,,,,,,FBP-PT-81.png,0.43,1.2,54,0.25,0,16,16,53,1,,,,,,,,,,,,,,,,,,,,,,,,,,,,,,,,,,,,,,,,
,,,,,SPR24_036,18,Female,2024-04-11_09h58.00.450,jersey_experiment_5_v0,2023.2.2,Win32,84.74576271,,,,,,,,,,,,,,,,263.6226,264.9199,264.92,266.293,return,0.0999,,74.609375,,,,,,FBP-OG-17.png,0.4,1.2,3,0.5,0,17,17,2,1,,,,,,,,,,,,,,,,,,,,,,,,,,,,,,,,,,,,,,,,
,,,,,SPR24_036,18,Female,2024-04-11_09h58.00.450,jersey_experiment_5_v0,2023.2.2,Win32,84.74576271,,,,,,,,,,,,,,,,266.2933,267.5872,267.5872,268.5202,return,0.0945,,74.34895833,,,,,,FBP-OG-19.png,0.37,1.2,12,0.5,0,18,18,11,1,,,,,,,,,,,,,,,,,,,,,,,,,,,,,,,,,,,,,,,,
,,,,,SPR24_036,18,Female,2024-04-11_09h58.00.450,jersey_experiment_5_v0,2023.2.2,Win32,84.74576271,,,,,,,,,,,,,,,,268.5204,269.8148,269.8148,271.1873,return,0.1716,,98.95833333,,,,,,FBP-OG-18.png,0.43,1.2,9,0.5,0,19,19,8,1,,,,,,,,,,,,,,,,,,,,,,,,,,,,,,,,,,,,,,,,
,,,,,SPR24_036,18,Female,2024-04-11_09h58.00.450,jersey_experiment_5_v0,2023.2.2,Win32,84.74576271,,,,,,,,,,,,,,,,271.1875,272.4815,272.4816,274.1203,return,0.1752,,25.26041667,,,,,,FBP-RB-81.png,0.37,1.2,37,0.5,0,20,20,36,1,,,,,,,,,,,,,,,,,,,,,,,,,,,,,,,,,,,,,,,,
,,,,,SPR24_036,18,Female,2024-04-11_09h58.00.450,jersey_experiment_5_v0,2023.2.2,Win32,84.74576271,,,,,,,,,,,,,,,,274.1204,275.1687,275.1687,275.8463,return,0.156,,25.26041667,,,,,,FBP-YG-81.png,0.37,1.2,22,0.25,0,21,21,21,1,,,,,,,,,,,,,,,,,,,,,,,,,,,,,,,,,,,,,,,,
,,,,,SPR24_036,18,Female,2024-04-11_09h58.00.450,jersey_experiment_5_v0,2023.2.2,Win32,84.74576271,,,,,,,,,,,,,,,,275.8466,277.1403,277.1405,278.7087,return,0.1415,,50.26041667,,,,,,FBP-OG-17.png,0.37,1.2,2,0.5,0,22,22,1,1,,,,,,,,,,,,,,,,,,,,,,,,,,,,,,,,,,,,,,,,
,,,,,SPR24_036,18,Female,2024-04-11_09h58.00.450,jersey_experiment_5_v0,2023.2.2,Win32,84.74576271,,,,,,,,,,,,,,,,278.7088,279.757,279.757,281.0989,return,0.283,,49.73958333,,,,,,FBP-YG-81.png,0.35,1.2,21,0.25,0,23,23,20,1,,,,,,,,,,,,,,,,,,,,,,,,,,,,,,,,,,,,,,,,
,,,,,SPR24_036,18,Female,2024-04-11_09h58.00.450,jersey_experiment_5_v0,2023.2.2,Win32,84.74576271,,,,,,,,,,,,,,,,281.0991,282.1407,282.1407,283.8044,return,0.1885,,74.08854167,,,,,,FBP-YG-81.png,0.45,1.2,25,0.25,0,24,24,24,1,,,,,,,,,,,,,,,,,,,,,,,,,,,,,,,,,,,,,,,,
,,,,,SPR24_036,18,Female,2024-04-11_09h58.00.450,jersey_experiment_5_v0,2023.2.2,Win32,84.74576271,,,,,,,,,,,,,,,,283.8046,284.8501,284.8501,286.6279,return,0.1649,,49.73958333,,,,,,FBP-PT-91.png,0.35,1.2,56,0.25,0,25,25,55,1,,,,,,,,,,,,,,,,,,,,,,,,,,,,,,,,,,,,,,,,
,,,,,SPR24_036,18,Female,2024-04-11_09h58.00.450,jersey_experiment_5_v0,2023.2.2,Win32,84.74576271,,,,,,,,,,,,,,,,286.6281,287.9222,287.9222,289.5928,return,1.3076,,25.390625,,,,,,FBP-OG-17.png,0.35,1.2,1,0.5,0,26,26,0,1,,,,,,,,,,,,,,,,,,,,,,,,,,,,,,,,,,,,,,,,
,,,,,SPR24_036,18,Female,2024-04-11_09h58.00.450,jersey_experiment_5_v0,2023.2.2,Win32,84.74576271,,,,,,,,,,,,,,,,289.593,290.8942,290.8942,292.7459,return,0.1312,,74.609375,,,,,,FBP-OG-18.png,0.4,1.2,8,0.5,0,27,27,7,1,,,,,,,,,,,,,,,,,,,,,,,,,,,,,,,,,,,,,,,,
,,,,,SPR24_036,18,Female,2024-04-11_09h58.00.450,jersey_experiment_5_v0,2023.2.2,Win32,84.74576271,,,,,,,,,,,,,,,,292.746,294.0398,294.0398,295.1764,return,0.1552,,74.47916667,,,,,,FBP-RB-71.png,0.37,1.2,32,0.5,0,28,28,31,1,,,,,,,,,,,,,,,,,,,,,,,,,,,,,,,,,,,,,,,,
,,,,,SPR24_036,18,Female,2024-04-11_09h58.00.450,jersey_experiment_5_v0,2023.2.2,Win32,84.74576271,,,,,,,,,,,,,,,,295.1766,296.4705,296.4705,297.0626,return,0.1287,,74.47916667,,,,,,FBP-RB-71.png,0.35,1.2,31,0.5,0,29,29,30,1,,,,,,,,,,,,,,,,,,,,,,,,,,,,,,,,,,,,,,,,
,,,,,SPR24_036,18,Female,2024-04-11_09h58.00.450,jersey_experiment_5_v0,2023.2.2,Win32,84.74576271,,,,,,,,,,,,,,,,297.0628,298.1104,298.1105,299.4627,return,0.165,,75.52083333,,,,,,FBP-PT-71.png,0.4,1.2,48,0.25,0,30,30,47,1,,,,,,,,,,,,,,,,,,,,,,,,,,,,,,,,,,,,,,,,
,,,,,SPR24_036,18,Female,2024-04-11_09h58.00.450,jersey_experiment_5_v0,2023.2.2,Win32,84.74576271,,,,,,,,,,,,,,,,299.4629,300.7696,300.7696,301.9885,return,0.1578,,99.08854167,,,,,,FBP-RB-91.png,0.45,1.2,45,0.5,0,31,31,44,1,,,,,,,,,,,,,,,,,,,,,,,,,,,,,,,,,,,,,,,,
,,,,,SPR24_036,18,Female,2024-04-11_09h58.00.450,jersey_experiment_5_v0,2023.2.2,Win32,84.74576271,,,,,,,,,,,,,,,,301.9887,303.0355,303.0355,303.5331,return,0.0939,,99.08854167,,,,,,FBP-PT-81.png,0.4,1.2,53,0.25,0,32,32,52,1,,,,,,,,,,,,,,,,,,,,,,,,,,,,,,,,,,,,,,,,
,,,,,SPR24_036,18,Female,2024-04-11_09h58.00.450,jersey_experiment_5_v0,2023.2.2,Win32,84.74576271,,,,,,,,,,,,,,,,303.5333,304.5767,304.5767,305.3179,return,0.2283,,99.08854167,,,,,,FBP-YG-81.png,0.4,1.2,23,0.25,0,33,33,22,1,,,,,,,,,,,,,,,,,,,,,,,,,,,,,,,,,,,,,,,,
,,,,,SPR24_036,18,Female,2024-04-11_09h58.00.450,jersey_experiment_5_v0,2023.2.2,Win32,84.74576271,,,,,,,,,,,,,,,,305.3181,306.6121,306.6121,307.2641,return,0.1651,,99.08854167,,,,,,FBP-OG-17.png,0.45,1.2,5,0.5,0,34,34,4,1,,,,,,,,,,,,,,,,,,,,,,,,,,,,,,,,,,,,,,,,
,,,,,SPR24_036,18,Female,2024-04-11_09h58.00.450,jersey_experiment_5_v0,2023.2.2,Win32,84.74576271,,,,,,,,,,,,,,,,307.2643,308.3093,308.3094,308.9581,return,0.212,,99.08854167,,,,,,FBP-PT-91.png,0.4,1.2,58,0.25,0,35,35,57,1,,,,,,,,,,,,,,,,,,,,,,,,,,,,,,,,,,,,,,,,
,,,,,SPR24_036,18,Female,2024-04-11_09h58.00.450,jersey_experiment_5_v0,2023.2.2,Win32,84.74576271,,,,,,,,,,,,,,,,308.9582,310.2522,310.2522,310.7417,return,0.2869,,99.08854167,,,,,,FBP-RB-71.png,0.43,1.2,34,0.5,0,36,36,33,1,,,,,,,,,,,,,,,,,,,,,,,,,,,,,,,,,,,,,,,,
,,,,,SPR24_036,18,Female,2024-04-11_09h58.00.450,jersey_experiment_5_v0,2023.2.2,Win32,84.74576271,,,,,,,,,,,,,,,,310.742,312.0358,312.0359,313.636,return,0.1005,,74.86979167,,,,,,FBP-RB-91.png,0.37,1.2,42,0.5,0,37,37,41,1,,,,,,,,,,,,,,,,,,,,,,,,,,,,,,,,,,,,,,,,
,,,,,SPR24_036,18,Female,2024-04-11_09h58.00.450,jersey_experiment_5_v0,2023.2.2,Win32,84.74576271,,,,,,,,,,,,,,,,313.6362,314.683,314.683,315.2283,return,0.0948,,74.86979167,,,,,,FBP-PT-91.png,0.37,1.2,57,0.25,0,38,38,56,1,,,,,,,,,,,,,,,,,,,,,,,,,,,,,,,,,,,,,,,,
,,,,,SPR24_036,18,Female,2024-04-11_09h58.00.450,jersey_experiment_5_v0,2023.2.2,Win32,84.74576271,,,,,,,,,,,,,,,,315.2284,316.2713,316.2713,317.989,return,0.1234,,99.47916667,,,,,,FBP-PT-91.png,0.43,1.2,59,0.25,0,39,39,58,1,,,,,,,,,,,,,,,,,,,,,,,,,,,,,,,,,,,,,,,,
,,,,,SPR24_036,18,Female,2024-04-11_09h58.00.450,jersey_experiment_5_v0,2023.2.2,Win32,84.74576271,,,,,,,,,,,,,,,,317.9893,319.2832,319.2832,320.1586,return,0.2016,,99.47916667,,,,,,FBP-RB-91.png,0.4,1.2,43,0.5,0,40,40,42,1,,,,,,,,,,,,,,,,,,,,,,,,,,,,,,,,,,,,,,,,
,,,,,SPR24_036,18,Female,2024-04-11_09h58.00.450,jersey_experiment_5_v0,2023.2.2,Win32,84.74576271,,,,,,,,,,,,,,,,320.1587,321.4631,321.4631,322.9186,return,0.1804,,49.73958333,,,,,,FBP-OG-18.png,0.37,1.2,7,0.5,0,41,41,6,1,,,,,,,,,,,,,,,,,,,,,,,,,,,,,,,,,,,,,,,,
,,,,,SPR24_036,18,Female,2024-04-11_09h58.00.450,jersey_experiment_5_v0,2023.2.2,Win32,84.74576271,,,,,,,,,,,,,,,,322.9189,323.9657,323.9657,325.4058,return,0.1648,,48.69791667,,,,,,FBP-YG-71.png,0.37,1.2,17,0.25,0,42,42,16,1,,,,,,,,,,,,,,,,,,,,,,,,,,,,,,,,,,,,,,,,
,,,,,SPR24_036,18,Female,2024-04-11_09h58.00.450,jersey_experiment_5_v0,2023.2.2,Win32,84.74576271,,,,,,,,,,,,,,,,325.4059,326.4481,326.4481,327.6648,return,0.1651,,75,,,,,,FBP-YG-71.png,0.43,1.2,19,0.25,0,43,43,18,1,,,,,,,,,,,,,,,,,,,,,,,,,,,,,,,,,,,,,,,,
,,,,,SPR24_036,18,Female,2024-04-11_09h58.00.450,jersey_experiment_5_v0,2023.2.2,Win32,84.74576271,,,,,,,,,,,,,,,,327.665,328.707,328.7071,330.6295,return,0.2587,,50.26041667,,,,,,FBP-YG-71.png,0.35,1.2,16,0.25,0,44,44,15,1,,,,,,,,,,,,,,,,,,,,,,,,,,,,,,,,,,,,,,,,
,,,,,SPR24_036,18,Female,2024-04-11_09h58.00.450,jersey_experiment_5_v0,2023.2.2,Win32,84.74576271,,,,,,,,,,,,,,,,330.6298,331.934,331.9341,333.1812,return,0.1982,,74.609375,,,,,,FBP-OG-19.png,0.45,1.2,15,0.5,0,45,45,14,1,,,,,,,,,,,,,,,,,,,,,,,,,,,,,,,,,,,,,,,,
,,,,,SPR24_036,18,Female,2024-04-11_09h58.00.450,jersey_experiment_5_v0,2023.2.2,Win32,84.74576271,,,,,,,,,,,,,,,,333.1813,334.4879,334.488,335.8532,return,0.1884,,99.21875,,,,,,FBP-RB-81.png,0.45,1.2,40,0.5,0,46,46,39,1,,,,,,,,,,,,,,,,,,,,,,,,,,,,,,,,,,,,,,,,
,,,,,SPR24_036,18,Female,2024-04-11_09h58.00.450,jersey_experiment_5_v0,2023.2.2,Win32,84.74576271,,,,,,,,,,,,,,,,335.8534,337.1475,337.1475,338.1309,return,0.149,,99.609375,,,,,,FBP-OG-18.png,0.45,1.2,10,0.5,0,47,47,9,1,,,,,,,,,,,,,,,,,,,,,,,,,,,,,,,,,,,,,,,,
,,,,,SPR24_036,18,Female,2024-04-11_09h58.00.450,jersey_experiment_5_v0,2023.2.2,Win32,84.74576271,,,,,,,,,,,,,,,,338.1311,339.4249,339.425,340.0887,return,0.2016,,99.609375,,,,,,FBP-RB-71.png,0.4,1.2,33,0.5,0,48,48,32,1,,,,,,,,,,,,,,,,,,,,,,,,,,,,,,,,,,,,,,,,
,,,,,SPR24_036,18,Female,2024-04-11_09h58.00.450,jersey_experiment_5_v0,2023.2.2,Win32,84.74576271,,,,,,,,,,,,,,,,340.0888,341.131,341.1311,342.8993,return,0.1885,,25.26041667,,,,,,FBP-PT-71.png,0.37,1.2,47,0.25,0,49,49,46,1,,,,,,,,,,,,,,,,,,,,,,,,,,,,,,,,,,,,,,,,
,,,,,SPR24_036,18,Female,2024-04-11_09h58.00.450,jersey_experiment_5_v0,2023.2.2,Win32,84.74576271,,,,,,,,,,,,,,,,342.8995,343.9429,343.943,345.6657,return,0.1784,,50.13020833,,,,,,FBP-PT-71.png,0.43,1.2,49,0.25,0,50,50,48,1,,,,,,,,,,,,,,,,,,,,,,,,,,,,,,,,,,,,,,,,
,,,,,SPR24_036,18,Female,2024-04-11_09h58.00.450,jersey_experiment_5_v0,2023.2.2,Win32,84.74576271,,,,,,,,,,,,,,,,345.6658,346.7076,346.7076,348.1124,return,0.1779,,25.13020833,,,,,,FBP-PT-71.png,0.35,1.2,46,0.25,0,51,51,45,1,,,,,,,,,,,,,,,,,,,,,,,,,,,,,,,,,,,,,,,,
,,,,,SPR24_036,18,Female,2024-04-11_09h58.00.450,jersey_experiment_5_v0,2023.2.2,Win32,84.74576271,,,,,,,,,,,,,,,,348.1126,349.4172,349.4172,350.4137,return,0.152,,24.609375,,,,,,FBP-RB-81.png,0.35,1.2,36,0.5,0,52,52,35,1,,,,,,,,,,,,,,,,,,,,,,,,,,,,,,,,,,,,,,,,
,,,,,SPR24_036,18,Female,2024-04-11_09h58.00.450,jersey_experiment_5_v0,2023.2.2,Win32,84.74576271,,,,,,,,,,,,,,,,350.4139,351.4608,351.4608,352.7901,return,0.0987,,50,,,,,,FBP-YG-91.png,0.4,1.2,28,0.25,0,53,53,27,1,,,,,,,,,,,,,,,,,,,,,,,,,,,,,,,,,,,,,,,,
,,,,,SPR24_036,18,Female,2024-04-11_09h58.00.450,jersey_experiment_5_v0,2023.2.2,Win32,84.74576271,,,,,,,,,,,,,,,,352.7904,353.8374,353.8374,355.2764,return,0.0814,,74.34895833,,,,,,FBP-YG-71.png,0.45,1.2,20,0.25,0,54,54,19,1,,,,,,,,,,,,,,,,,,,,,,,,,,,,,,,,,,,,,,,,
,,,,,SPR24_036,18,Female,2024-04-11_09h58.00.450,jersey_experiment_5_v0,2023.2.2,Win32,84.74576271,,,,,,,,,,,,,,,,355.2765,356.5703,356.5703,357.7199,return,0.1792,,74.34895833,,,,,,FBP-OG-19.png,0.43,1.2,14,0.5,0,55,55,13,1,,,,,,,,,,,,,,,,,,,,,,,,,,,,,,,,,,,,,,,,
,,,,,SPR24_036,18,Female,2024-04-11_09h58.00.450,jersey_experiment_5_v0,2023.2.2,Win32,84.74576271,,,,,,,,,,,,,,,,357.7201,359.014,359.0141,360.8896,return,0.1782,,25.26041667,,,,,,FBP-OG-18.png,0.35,1.2,6,0.5,0,56,56,5,1,,,,,,,,,,,,,,,,,,,,,,,,,,,,,,,,,,,,,,,,
,,,,,SPR24_036,18,Female,2024-04-11_09h58.00.450,jersey_experiment_5_v0,2023.2.2,Win32,84.74576271,,,,,,,,,,,,,,,,360.8898,361.9316,361.9317,363.3234,return,0.1283,,49.86979167,,,,,,FBP-PT-81.png,0.37,1.2,52,0.25,0,57,57,51,1,,,,,,,,,,,,,,,,,,,,,,,,,,,,,,,,,,,,,,,,
,,,,,SPR24_036,18,Female,2024-04-11_09h58.00.450,jersey_experiment_5_v0,2023.2.2,Win32,84.74576271,,,,,,,,,,,,,,,,363.3236,364.3716,364.3716,365.9083,return,0.1696,,74.609375,,,,,,FBP-YG-91.png,0.37,1.2,27,0.25,0,58,58,26,1,,,,,,,,,,,,,,,,,,,,,,,,,,,,,,,,,,,,,,,,
,,,,,SPR24_036,18,Female,2024-04-11_09h58.00.450,jersey_experiment_5_v0,2023.2.2,Win32,84.74576271,,,,,,,,,,,,,,,,365.9085,367.2058,367.2058,369.2533,return,0.1414,,99.73958333,,,,,,FBP-OG-17.png,0.43,1.2,4,0.5,0,59,59,3,1,,,,,,,,,,,,,,,,,,,,,,,,,,,,,,,,,,,,,,,,
,,,,,SPR24_036,18,Female,2024-04-11_09h58.00.450,jersey_experiment_5_v0,2023.2.2,Win32,84.74576271,,,,,,,,,,,,,,,,,,,,,,,,,,,,,,,,,,,,,,,369.2536,489.2543,,,,,,,,,,,,,,,,,,,,,,,,,,,,,,,,,,,,,,
,,,,,SPR24_036,18,Female,2024-04-11_09h58.00.450,jersey_experiment_5_v0,2023.2.2,Win32,84.74576271,,,,,,,,,,,,,,,,,,,,,,,,,,,,,,,,,,,,,,,,,489.2543,493.7871,return,4.518,,,,,,,,,,,,,,,,,,,,,,,,,,,,,,,,,,
,,,,,SPR24_036,18,Female,2024-04-11_09h58.00.450,jersey_experiment_5_v0,2023.2.2,Win32,84.74576271,,,,,,,,,,,,,,,,493.7934,495.0894,495.0894,504.0931,return,0.2592,,1.171875,,,,,,FBP-YG-17.png,0.35,1.2,16,0.5,,,,,,,,,,,,,0,0,0,15,1,,,,,,,,,,,,,,,,,,,,,,,,,,,,
,,,,,SPR24_036,18,Female,2024-04-11_09h58.00.450,jersey_experiment_5_v0,2023.2.2,Win32,84.74576271,,,,,,,,,,,,,,,,504.0933,505.3872,505.3873,507.1605,return,0.1061,,49.47916667,,,,,,FBP-YG-17.png,0.4,1.2,18,0.5,,,,,,,,,,,,,0,1,1,17,1,,,,,,,,,,,,,,,,,,,,,,,,,,,,
,,,,,SPR24_036,18,Female,2024-04-11_09h58.00.450,jersey_experiment_5_v0,2023.2.2,Win32,84.74576271,,,,,,,,,,,,,,,,507.1606,508.2075,508.2075,509.6829,return,0.0941,,75,,,,,,FBP-RB-18.png,0.45,1.2,40,0.25,,,,,,,,,,,,,0,2,2,39,1,,,,,,,,,,,,,,,,,,,,,,,,,,,,
,,,,,SPR24_036,18,Female,2024-04-11_09h58.00.450,jersey_experiment_5_v0,2023.2.2,Win32,84.74576271,,,,,,,,,,,,,,,,509.683,510.7286,510.7286,512.4127,return,0.2016,,25.65104167,,,,,,FBP-RB-18.png,0.35,1.2,36,0.25,,,,,,,,,,,,,0,3,3,35,1,,,,,,,,,,,,,,,,,,,,,,,,,,,,
,,,,,SPR24_036,18,Female,2024-04-11_09h58.00.450,jersey_experiment_5_v0,2023.2.2,Win32,84.74576271,,,,,,,,,,,,,,,,512.4128,513.4548,513.4549,515.5892,return,0.1648,,74.08854167,,,,,,FBP-RB-17.png,0.43,1.2,34,0.25,,,,,,,,,,,,,0,4,4,33,1,,,,,,,,,,,,,,,,,,,,,,,,,,,,
,,,,,SPR24_036,18,Female,2024-04-11_09h58.00.450,jersey_experiment_5_v0,2023.2.2,Win32,84.74576271,,,,,,,,,,,,,,,,515.5893,516.883,516.883,518.7894,return,0.1544,,99.47916667,,,,,,FBP-PT-19.png,0.45,1.2,60,0.5,,,,,,,,,,,,,0,5,5,59,1,,,,,,,,,,,,,,,,,,,,,,,,,,,,
,,,,,SPR24_036,18,Female,2024-04-11_09h58.00.450,jersey_experiment_5_v0,2023.2.2,Win32,84.74576271,,,,,,,,,,,,,,,,518.7894,520.0936,520.0936,522.0469,return,0.0946,,49.86979167,,,,,,FBP-PT-19.png,0.37,1.2,57,0.5,,,,,,,,,,,,,0,6,6,56,1,,,,,,,,,,,,,,,,,,,,,,,,,,,,
,,,,,SPR24_036,18,Female,2024-04-11_09h58.00.450,jersey_experiment_5_v0,2023.2.2,Win32,84.74576271,,,,,,,,,,,,,,,,522.0471,523.341,523.341,524.5139,return,0.1483,,75,,,,,,FBP-YG-18.png,0.4,1.2,23,0.5,,,,,,,,,,,,,0,7,7,22,1,,,,,,,,,,,,,,,,,,,,,,,,,,,,
,,,,,SPR24_036,18,Female,2024-04-11_09h58.00.450,jersey_experiment_5_v0,2023.2.2,Win32,84.74576271,,,,,,,,,,,,,,,,524.514,525.8082,525.8082,526.4129,return,0.1782,,75,,,,,,FBP-YG-18.png,0.37,1.2,22,0.5,,,,,,,,,,,,,0,8,8,21,1,,,,,,,,,,,,,,,,,,,,,,,,,,,,
,,,,,SPR24_036,18,Female,2024-04-11_09h58.00.450,jersey_experiment_5_v0,2023.2.2,Win32,84.74576271,,,,,,,,,,,,,,,,526.4131,527.7176,527.7176,529.3175,return,0.165,,24.86979167,,,,,,FBP-PT-18.png,0.35,1.2,51,0.5,,,,,,,,,,,,,0,9,9,50,1,,,,,,,,,,,,,,,,,,,,,,,,,,,,
,,,,,SPR24_036,18,Female,2024-04-11_09h58.00.450,jersey_experiment_5_v0,2023.2.2,Win32,84.74576271,,,,,,,,,,,,,,,,529.3177,530.3613,530.3613,532.5075,return,0.1649,,75.26041667,,,,,,FBP-OG-91.png,0.4,1.2,13,0.25,,,,,,,,,,,,,0,10,10,12,1,,,,,,,,,,,,,,,,,,,,,,,,,,,,
,,,,,SPR24_036,18,Female,2024-04-11_09h58.00.450,jersey_experiment_5_v0,2023.2.2,Win32,84.74576271,,,,,,,,,,,,,,,,532.5077,533.5496,533.5496,535.9193,return,0.2251,,99.86979167,,,,,,FBP-RB-18.png,0.43,1.2,39,0.25,,,,,,,,,,,,,0,11,11,38,1,,,,,,,,,,,,,,,,,,,,,,,,,,,,
,,,,,SPR24_036,18,Female,2024-04-11_09h58.00.450,jersey_experiment_5_v0,2023.2.2,Win32,84.74576271,,,,,,,,,,,,,,,,535.9195,536.9615,536.9616,540.5499,return,0.1458,,25,,,,,,FBP-RB-17.png,0.4,1.2,33,0.25,,,,,,,,,,,,,0,12,12,32,1,,,,,,,,,,,,,,,,,,,,,,,,,,,,
,,,,,SPR24_036,18,Female,2024-04-11_09h58.00.450,jersey_experiment_5_v0,2023.2.2,Win32,84.74576271,,,,,,,,,,,,,,,,540.5502,541.6003,541.6004,544.1619,return,0.1721,,75.13020833,,,,,,FBP-OG-71.png,0.43,1.2,4,0.25,,,,,,,,,,,,,0,13,13,3,1,,,,,,,,,,,,,,,,,,,,,,,,,,,,
,,,,,SPR24_036,18,Female,2024-04-11_09h58.00.450,jersey_experiment_5_v0,2023.2.2,Win32,84.74576271,,,,,,,,,,,,,,,,544.162,545.4594,545.4594,546.2323,return,0.237,,75.13020833,,,,,,FBP-YG-17.png,0.43,1.2,19,0.5,,,,,,,,,,,,,0,14,14,18,1,,,,,,,,,,,,,,,,,,,,,,,,,,,,
,,,,,SPR24_036,18,Female,2024-04-11_09h58.00.450,jersey_experiment_5_v0,2023.2.2,Win32,84.74576271,,,,,,,,,,,,,,,,546.2326,547.5298,547.5298,550.3383,return,0.2304,,50.13020833,,,,,,FBP-YG-17.png,0.37,1.2,17,0.5,,,,,,,,,,,,,0,15,15,16,1,,,,,,,,,,,,,,,,,,,,,,,,,,,,
,,,,,SPR24_036,18,Female,2024-04-11_09h58.00.450,jersey_experiment_5_v0,2023.2.2,Win32,84.74576271,,,,,,,,,,,,,,,,550.3386,551.3891,551.3891,553.762,return,0.4669,,50.13020833,,,,,,FBP-RB-18.png,0.4,1.2,38,0.25,,,,,,,,,,,,,0,16,16,37,1,,,,,,,,,,,,,,,,,,,,,,,,,,,,
,,,,,SPR24_036,18,Female,2024-04-11_09h58.00.450,jersey_experiment_5_v0,2023.2.2,Win32,84.74576271,,,,,,,,,,,,,,,,553.7622,555.0593,555.0593,556.3069,return,0.0946,,50,,,,,,FBP-YG-19.png,0.4,1.2,28,0.5,,,,,,,,,,,,,0,17,17,27,1,,,,,,,,,,,,,,,,,,,,,,,,,,,,
,,,,,SPR24_036,18,Female,2024-04-11_09h58.00.450,jersey_experiment_5_v0,2023.2.2,Win32,84.74576271,,,,,,,,,,,,,,,,556.3071,557.3505,557.3505,558.7436,return,0.1181,,75.390625,,,,,,FBP-OG-91.png,0.43,1.2,14,0.25,,,,,,,,,,,,,0,18,18,13,1,,,,,,,,,,,,,,,,,,,,,,,,,,,,
,,,,,SPR24_036,18,Female,2024-04-11_09h58.00.450,jersey_experiment_5_v0,2023.2.2,Win32,84.74576271,,,,,,,,,,,,,,,,558.7439,560.0377,560.0377,561.5859,return,0.136,,25.26041667,,,,,,FBP-PT-17.png,0.37,1.2,47,0.5,,,,,,,,,,,,,0,19,19,46,1,,,,,,,,,,,,,,,,,,,,,,,,,,,,
,,,,,SPR24_036,18,Female,2024-04-11_09h58.00.450,jersey_experiment_5_v0,2023.2.2,Win32,84.74576271,,,,,,,,,,,,,,,,561.5859,562.6364,562.6364,563.7423,return,0.0945,,50.13020833,,,,,,FBP-OG-81.png,0.37,1.2,7,0.25,,,,,,,,,,,,,0,20,20,6,1,,,,,,,,,,,,,,,,,,,,,,,,,,,,
,,,,,SPR24_036,18,Female,2024-04-11_09h58.00.450,jersey_experiment_5_v0,2023.2.2,Win32,84.74576271,,,,,,,,,,,,,,,,563.7426,564.7905,564.7906,565.8801,return,0.0386,,74.47916667,,,,,,FBP-OG-71.png,0.45,1.2,5,0.25,,,,,,,,,,,,,0,21,21,4,1,,,,,,,,,,,,,,,,,,,,,,,,,,,,
,,,,,SPR24_036,18,Female,2024-04-11_09h58.00.450,jersey_experiment_5_v0,2023.2.2,Win32,84.74576271,,,,,,,,,,,,,,,,565.8804,567.1745,567.1745,569.0129,return,0.4807,,24.73958333,,,,,,FBP-YG-19.png,0.37,1.2,27,0.5,,,,,,,,,,,,,0,22,22,26,1,,,,,,,,,,,,,,,,,,,,,,,,,,,,
,,,,,SPR24_036,18,Female,2024-04-11_09h58.00.450,jersey_experiment_5_v0,2023.2.2,Win32,84.74576271,,,,,,,,,,,,,,,,569.0131,570.0616,570.0616,571.6098,return,0.1522,,25.52083333,,,,,,FBP-OG-91.png,0.35,1.2,11,0.25,,,,,,,,,,,,,0,23,23,10,1,,,,,,,,,,,,,,,,,,,,,,,,,,,,
,,,,,SPR24_036,18,Female,2024-04-11_09h58.00.450,jersey_experiment_5_v0,2023.2.2,Win32,84.74576271,,,,,,,,,,,,,,,,571.6099,572.9086,572.9087,574.3275,return,0.1193,,74.73958333,,,,,,FBP-YG-18.png,0.43,1.2,24,0.5,,,,,,,,,,,,,0,24,24,23,1,,,,,,,,,,,,,,,,,,,,,,,,,,,,
,,,,,SPR24_036,18,Female,2024-04-11_09h58.00.450,jersey_experiment_5_v0,2023.2.2,Win32,84.74576271,,,,,,,,,,,,,,,,574.3277,575.3792,575.3792,577.2961,return,0.0949,,49.609375,,,,,,FBP-RB-17.png,0.35,1.2,31,0.25,,,,,,,,,,,,,0,25,25,30,1,,,,,,,,,,,,,,,,,,,,,,,,,,,,
,,,,,SPR24_036,18,Female,2024-04-11_09h58.00.450,jersey_experiment_5_v0,2023.2.2,Win32,84.74576271,,,,,,,,,,,,,,,,577.2962,578.3394,578.3394,579.3159,return,0.1356,,49.86979167,,,,,,FBP-OG-81.png,0.35,1.2,6,0.25,,,,,,,,,,,,,0,26,26,5,1,,,,,,,,,,,,,,,,,,,,,,,,,,,,
,,,,,SPR24_036,18,Female,2024-04-11_09h58.00.450,jersey_experiment_5_v0,2023.2.2,Win32,84.74576271,,,,,,,,,,,,,,,,579.3161,580.363,580.3631,581.5445,return,0.1313,,74.47916667,,,,,,FBP-OG-91.png,0.45,1.2,15,0.25,,,,,,,,,,,,,0,27,27,14,1,,,,,,,,,,,,,,,,,,,,,,,,,,,,
,,,,,SPR24_036,18,Female,2024-04-11_09h58.00.450,jersey_experiment_5_v0,2023.2.2,Win32,84.74576271,,,,,,,,,,,,,,,,581.5447,582.8382,582.8383,583.3161,return,0.1455,,74.73958333,,,,,,FBP-YG-19.png,0.43,1.2,29,0.5,,,,,,,,,,,,,0,28,28,28,1,,,,,,,,,,,,,,,,,,,,,,,,,,,,
,,,,,SPR24_036,18,Female,2024-04-11_09h58.00.450,jersey_experiment_5_v0,2023.2.2,Win32,84.74576271,,,,,,,,,,,,,,,,583.3163,584.6103,584.6103,585.9868,return,0.1487,,49.34895833,,,,,,FBP-PT-19.png,0.35,1.2,56,0.5,,,,,,,,,,,,,0,29,29,55,1,,,,,,,,,,,,,,,,,,,,,,,,,,,,
,,,,,SPR24_036,18,Female,2024-04-11_09h58.00.450,jersey_experiment_5_v0,2023.2.2,Win32,84.74576271,,,,,,,,,,,,,,,,585.9871,587.2858,587.2858,588.4256,return,0.1181,,74.86979167,,,,,,FBP-PT-18.png,0.43,1.2,54,0.5,,,,,,,,,,,,,0,30,30,53,1,,,,,,,,,,,,,,,,,,,,,,,,,,,,
,,,,,SPR24_036,18,Female,2024-04-11_09h58.00.450,jersey_experiment_5_v0,2023.2.2,Win32,84.74576271,,,,,,,,,,,,,,,,588.4257,589.4692,589.4692,591.0928,return,0.2409,,50,,,,,,FBP-OG-71.png,0.37,1.2,2,0.25,,,,,,,,,,,,,0,31,31,1,1,,,,,,,,,,,,,,,,,,,,,,,,,,,,
,,,,,SPR24_036,18,Female,2024-04-11_09h58.00.450,jersey_experiment_5_v0,2023.2.2,Win32,84.74576271,,,,,,,,,,,,,,,,591.093,592.1431,592.1431,593.8742,return,0.0943,,50.390625,,,,,,FBP-OG-71.png,0.4,1.2,3,0.25,,,,,,,,,,,,,0,32,32,2,1,,,,,,,,,,,,,,,,,,,,,,,,,,,,
,,,,,SPR24_036,18,Female,2024-04-11_09h58.00.450,jersey_experiment_5_v0,2023.2.2,Win32,84.74576271,,,,,,,,,,,,,,,,593.8744,595.1785,595.1785,596.4225,return,0.2378,,75,,,,,,FBP-PT-18.png,0.45,1.2,55,0.5,,,,,,,,,,,,,0,33,33,54,1,,,,,,,,,,,,,,,,,,,,,,,,,,,,
,,,,,SPR24_036,18,Female,2024-04-11_09h58.00.450,jersey_experiment_5_v0,2023.2.2,Win32,84.74576271,,,,,,,,,,,,,,,,596.4227,597.7201,597.7201,599.0931,return,0.1331,,49.73958333,,,,,,FBP-PT-18.png,0.37,1.2,52,0.5,,,,,,,,,,,,,0,34,34,51,1,,,,,,,,,,,,,,,,,,,,,,,,,,,,
,,,,,SPR24_036,18,Female,2024-04-11_09h58.00.450,jersey_experiment_5_v0,2023.2.2,Win32,84.74576271,,,,,,,,,,,,,,,,599.0934,600.3918,600.3919,601.9453,return,0.1078,,74.609375,,,,,,FBP-YG-19.png,0.45,1.2,30,0.5,,,,,,,,,,,,,0,35,35,29,1,,,,,,,,,,,,,,,,,,,,,,,,,,,,
,,,,,SPR24_036,18,Female,2024-04-11_09h58.00.450,jersey_experiment_5_v0,2023.2.2,Win32,84.74576271,,,,,,,,,,,,,,,,601.9454,602.9874,602.9874,605.9789,return,0.3528,,25,,,,,,FBP-OG-71.png,0.35,1.2,1,0.25,,,,,,,,,,,,,0,36,36,0,1,,,,,,,,,,,,,,,,,,,,,,,,,,,,
,,,,,SPR24_036,18,Female,2024-04-11_09h58.00.450,jersey_experiment_5_v0,2023.2.2,Win32,84.74576271,,,,,,,,,,,,,,,,605.9791,607.0276,607.0277,608.4866,return,0.0366,,75.390625,,,,,,FBP-RB-19.png,0.37,1.2,42,0.25,,,,,,,,,,,,,0,37,37,41,1,,,,,,,,,,,,,,,,,,,,,,,,,,,,
,,,,,SPR24_036,18,Female,2024-04-11_09h58.00.450,jersey_experiment_5_v0,2023.2.2,Win32,84.74576271,,,,,,,,,,,,,,,,608.4869,609.7908,609.7908,610.1807,return,0.0473,,75.390625,,,,,,FBP-YG-18.png,0.35,1.2,21,0.5,,,,,,,,,,,,,0,38,38,20,1,,,,,,,,,,,,,,,,,,,,,,,,,,,,
,,,,,SPR24_036,18,Female,2024-04-11_09h58.00.450,jersey_experiment_5_v0,2023.2.2,Win32,84.74576271,,,,,,,,,,,,,,,,610.1808,611.226,611.2261,612.8164,return,0.0475,,99.609375,,,,,,FBP-RB-17.png,0.45,1.2,35,0.25,,,,,,,,,,,,,0,39,39,34,1,,,,,,,,,,,,,,,,,,,,,,,,,,,,
,,,,,SPR24_036,18,Female,2024-04-11_09h58.00.450,jersey_experiment_5_v0,2023.2.2,Win32,84.74576271,,,,,,,,,,,,,,,,612.8165,613.8584,613.8584,615.7207,return,0.1049,,49.47916667,,,,,,FBP-RB-18.png,0.37,1.2,37,0.25,,,,,,,,,,,,,0,40,40,36,1,,,,,,,,,,,,,,,,,,,,,,,,,,,,
,,,,,SPR24_036,18,Female,2024-04-11_09h58.00.450,jersey_experiment_5_v0,2023.2.2,Win32,84.74576271,,,,,,,,,,,,,,,,615.7208,616.7644,616.7644,618.3798,return,0.1418,,98.69791667,,,,,,FBP-OG-81.png,0.45,1.2,10,0.25,,,,,,,,,,,,,0,41,41,9,1,,,,,,,,,,,,,,,,,,,,,,,,,,,,
,,,,,SPR24_036,18,Female,2024-04-11_09h58.00.450,jersey_experiment_5_v0,2023.2.2,Win32,84.74576271,,,,,,,,,,,,,,,,618.38,619.4232,619.4232,621.0282,return,0.0238,,74.47916667,,,,,,FBP-RB-19.png,0.43,1.2,44,0.25,,,,,,,,,,,,,0,42,42,43,1,,,,,,,,,,,,,,,,,,,,,,,,,,,,
,,,,,SPR24_036,18,Female,2024-04-11_09h58.00.450,jersey_experiment_5_v0,2023.2.2,Win32,84.74576271,,,,,,,,,,,,,,,,621.0285,622.0704,622.0704,622.6585,return,0.0769,,74.47916667,,,,,,FBP-RB-19.png,0.4,1.2,43,0.25,,,,,,,,,,,,,0,43,43,42,1,,,,,,,,,,,,,,,,,,,,,,,,,,,,
,,,,,SPR24_036,18,Female,2024-04-11_09h58.00.450,jersey_experiment_5_v0,2023.2.2,Win32,84.74576271,,,,,,,,,,,,,,,,622.6587,623.7057,623.7058,624.9105,return,0.531,,74.47916667,,,,,,FBP-OG-81.png,0.43,1.2,9,0.25,,,,,,,,,,,,,0,44,44,8,1,,,,,,,,,,,,,,,,,,,,,,,,,,,,
,,,,,SPR24_036,18,Female,2024-04-11_09h58.00.450,jersey_experiment_5_v0,2023.2.2,Win32,84.74576271,,,,,,,,,,,,,,,,624.9107,626.2042,626.2042,627.4996,return,0.1549,,23.95833333,,,,,,FBP-YG-19.png,0.35,1.2,26,0.5,,,,,,,,,,,,,0,45,45,25,1,,,,,,,,,,,,,,,,,,,,,,,,,,,,
,,,,,SPR24_036,18,Female,2024-04-11_09h58.00.450,jersey_experiment_5_v0,2023.2.2,Win32,84.74576271,,,,,,,,,,,,,,,,627.4998,628.7935,628.7935,629.8861,return,0.0475,,50.26041667,,,,,,FBP-PT-19.png,0.43,1.2,59,0.5,,,,,,,,,,,,,0,46,46,58,1,,,,,,,,,,,,,,,,,,,,,,,,,,,,
,,,,,SPR24_036,18,Female,2024-04-11_09h58.00.450,jersey_experiment_5_v0,2023.2.2,Win32,84.74576271,,,,,,,,,,,,,,,,629.8863,630.9295,630.9296,631.7685,return,0.0238,,50.26041667,,,,,,FBP-OG-91.png,0.37,1.2,12,0.25,,,,,,,,,,,,,0,47,47,11,1,,,,,,,,,,,,,,,,,,,,,,,,,,,,
,,,,,SPR24_036,18,Female,2024-04-11_09h58.00.450,jersey_experiment_5_v0,2023.2.2,Win32,84.74576271,,,,,,,,,,,,,,,,631.7686,633.0623,633.0624,633.8051,return,0.0468,,75.26041667,,,,,,FBP-PT-17.png,0.45,1.2,50,0.5,,,,,,,,,,,,,0,48,48,49,1,,,,,,,,,,,,,,,,,,,,,,,,,,,,
,,,,,SPR24_036,18,Female,2024-04-11_09h58.00.450,jersey_experiment_5_v0,2023.2.2,Win32,84.74576271,,,,,,,,,,,,,,,,633.8053,634.8473,634.8474,636.0708,return,0.0856,,50.65104167,,,,,,FBP-RB-17.png,0.37,1.2,32,0.25,,,,,,,,,,,,,0,49,49,31,1,,,,,,,,,,,,,,,,,,,,,,,,,,,,
,,,,,SPR24_036,18,Female,2024-04-11_09h58.00.450,jersey_experiment_5_v0,2023.2.2,Win32,84.74576271,,,,,,,,,,,,,,,,636.071,637.3683,637.3683,637.8864,return,0.071,,50.78125,,,,,,FBP-PT-18.png,0.4,1.2,53,0.5,,,,,,,,,,,,,0,50,50,52,1,,,,,,,,,,,,,,,,,,,,,,,,,,,,
,,,,,SPR24_036,18,Female,2024-04-11_09h58.00.450,jersey_experiment_5_v0,2023.2.2,Win32,84.74576271,,,,,,,,,,,,,,,,637.8865,638.9299,638.9299,640.824,return,0.0968,,50.26041667,,,,,,FBP-RB-19.png,0.35,1.2,41,0.25,,,,,,,,,,,,,0,51,51,40,1,,,,,,,,,,,,,,,,,,,,,,,,,,,,
,,,,,SPR24_036,18,Female,2024-04-11_09h58.00.450,jersey_experiment_5_v0,2023.2.2,Win32,84.74576271,,,,,,,,,,,,,,,,640.8242,642.1182,642.1182,643.1063,return,0.0669,,75.390625,,,,,,FBP-YG-18.png,0.45,1.2,25,0.5,,,,,,,,,,,,,0,52,52,24,1,,,,,,,,,,,,,,,,,,,,,,,,,,,,
,,,,,SPR24_036,18,Female,2024-04-11_09h58.00.450,jersey_experiment_5_v0,2023.2.2,Win32,84.74576271,,,,,,,,,,,,,,,,643.1066,644.4041,644.4041,646.1653,return,0.8873,,99.21875,,,,,,FBP-YG-17.png,0.45,1.2,20,0.5,,,,,,,,,,,,,0,53,53,19,1,,,,,,,,,,,,,,,,,,,,,,,,,,,,
,,,,,SPR24_036,18,Female,2024-04-11_09h58.00.450,jersey_experiment_5_v0,2023.2.2,Win32,84.74576271,,,,,,,,,,,,,,,,646.1657,647.2125,647.2125,647.6881,return,0.024,,99.21875,,,,,,FBP-RB-19.png,0.45,1.2,45,0.25,,,,,,,,,,,,,0,54,54,44,1,,,,,,,,,,,,,,,,,,,,,,,,,,,,
,,,,,SPR24_036,18,Female,2024-04-11_09h58.00.450,jersey_experiment_5_v0,2023.2.2,Win32,84.74576271,,,,,,,,,,,,,,,,647.6882,648.9816,648.9816,649.9101,return,0.0004,,75.13020833,,,,,,FBP-PT-17.png,0.4,1.2,48,0.5,,,,,,,,,,,,,0,55,55,47,1,,,,,,,,,,,,,,,,,,,,,,,,,,,,
,,,,,SPR24_036,18,Female,2024-04-11_09h58.00.450,jersey_experiment_5_v0,2023.2.2,Win32,84.74576271,,,,,,,,,,,,,,,,649.9102,650.9538,650.9538,652.2479,return,0.0259,,75.390625,,,,,,FBP-OG-81.png,0.4,1.2,8,0.25,,,,,,,,,,,,,0,56,56,7,1,,,,,,,,,,,,,,,,,,,,,,,,,,,,
,,,,,SPR24_036,18,Female,2024-04-11_09h58.00.450,jersey_experiment_5_v0,2023.2.2,Win32,84.74576271,,,,,,,,,,,,,,,,652.2482,653.5473,653.5473,654.6163,return,0.0711,,49.86979167,,,,,,FBP-PT-19.png,0.4,1.2,58,0.5,,,,,,,,,,,,,0,57,57,57,1,,,,,,,,,,,,,,,,,,,,,,,,,,,,
,,,,,SPR24_036,18,Female,2024-04-11_09h58.00.450,jersey_experiment_5_v0,2023.2.2,Win32,84.74576271,,,,,,,,,,,,,,,,654.6165,655.9234,655.9235,657.0952,return,0.0733,,25.26041667,,,,,,FBP-PT-17.png,0.35,1.2,46,0.5,,,,,,,,,,,,,0,58,58,45,1,,,,,,,,,,,,,,,,,,,,,,,,,,,,
,,,,,SPR24_036,18,Female,2024-04-11_09h58.00.450,jersey_experiment_5_v0,2023.2.2,Win32,84.74576271,,,,,,,,,,,,,,,,657.0954,658.3893,658.3894,659.401,return,0.0956,,49.609375,,,,,,FBP-PT-17.png,0.43,1.2,49,0.5,,,,,,,,,,,,,0,59,59,48,1,,,,,,,,,,,,,,,,,,,,,,,,,,,,
,,,,,SPR24_036,18,Female,2024-04-11_09h58.00.450,jersey_experiment_5_v0,2023.2.2,Win32,84.74576271,,,,,,,,,,,,,,,,659.4029,660.4482,660.4483,661.0012,return,0.0036,,49.609375,,,,,,FBP-RB-71.png,0.4,1.2,33,0.25,,,,,,,,,,,,,,,,,,0,0,0,32,1,,,,,,,,,,,,,,,,,,,,,,,
,,,,,SPR24_036,18,Female,2024-04-11_09h58.00.450,jersey_experiment_5_v0,2023.2.2,Win32,84.74576271,,,,,,,,,,,,,,,,661.0014,662.2999,662.2999,663.7119,return,0.0473,,75.13020833,,,,,,FBP-PT-81.png,0.4,1.2,53,0.5,,,,,,,,,,,,,,,,,,0,1,1,52,1,,,,,,,,,,,,,,,,,,,,,,,
,,,,,SPR24_036,18,Female,2024-04-11_09h58.00.450,jersey_experiment_5_v0,2023.2.2,Win32,84.74576271,,,,,,,,,,,,,,,,663.712,665.0057,665.0057,665.3661,return,0.1441,,75.13020833,,,,,,FBP-YG-71.png,0.37,1.2,17,0.5,,,,,,,,,,,,,,,,,,0,2,2,16,1,,,,,,,,,,,,,,,,,,,,,,,
,,,,,SPR24_036,18,Female,2024-04-11_09h58.00.450,jersey_experiment_5_v0,2023.2.2,Win32,84.74576271,,,,,,,,,,,,,,,,665.3663,666.4132,666.4132,667.5711,return,0.2014,,74.609375,,,,,,FBP-RB-81.png,0.37,1.2,37,0.25,,,,,,,,,,,,,,,,,,0,3,3,36,1,,,,,,,,,,,,,,,,,,,,,,,
,,,,,SPR24_036,18,Female,2024-04-11_09h58.00.450,jersey_experiment_5_v0,2023.2.2,Win32,84.74576271,,,,,,,,,,,,,,,,667.5712,668.8755,668.8755,669.1476,return,0.0239,,74.73958333,,,,,,FBP-PT-91.png,0.4,1.2,58,0.5,,,,,,,,,,,,,,,,,,0,4,4,57,1,,,,,,,,,,,,,,,,,,,,,,,
,,,,,SPR24_036,18,Female,2024-04-11_09h58.00.450,jersey_experiment_5_v0,2023.2.2,Win32,84.74576271,,,,,,,,,,,,,,,,669.1478,670.193,670.193,670.8183,return,0.1651,,74.73958333,,,,,,FBP-OG-18.png,0.37,1.2,7,0.25,,,,,,,,,,,,,,,,,,0,5,5,6,1,,,,,,,,,,,,,,,,,,,,,,,
,,,,,SPR24_036,18,Female,2024-04-11_09h58.00.450,jersey_experiment_5_v0,2023.2.2,Win32,84.74576271,,,,,,,,,,,,,,,,670.8185,671.864,671.864,672.884,return,0.0298,,74.34895833,,,,,,FBP-OG-18.png,0.43,1.2,9,0.25,,,,,,,,,,,,,,,,,,0,6,6,8,1,,,,,,,,,,,,,,,,,,,,,,,
,,,,,SPR24_036,18,Female,2024-04-11_09h58.00.450,jersey_experiment_5_v0,2023.2.2,Win32,84.74576271,,,,,,,,,,,,,,,,672.8842,673.9311,673.9311,675.1075,return,0.0186,,99.21875,,,,,,FBP-OG-18.png,0.45,1.2,10,0.25,,,,,,,,,,,,,,,,,,0,7,7,9,1,,,,,,,,,,,,,,,,,,,,,,,
,,,,,SPR24_036,18,Female,2024-04-11_09h58.00.450,jersey_experiment_5_v0,2023.2.2,Win32,84.74576271,,,,,,,,,,,,,,,,675.1077,676.1546,676.1546,676.5936,return,0.1051,,99.21875,,,,,,FBP-OG-17.png,0.43,1.2,4,0.25,,,,,,,,,,,,,,,,,,0,8,8,3,1,,,,,,,,,,,,,,,,,,,,,,,
,,,,,SPR24_036,18,Female,2024-04-11_09h58.00.450,jersey_experiment_5_v0,2023.2.2,Win32,84.74576271,,,,,,,,,,,,,,,,676.5937,677.9007,677.9007,678.6878,return,0.0239,,99.21875,,,,,,FBP-YG-91.png,0.4,1.2,28,0.5,,,,,,,,,,,,,,,,,,0,9,9,27,1,,,,,,,,,,,,,,,,,,,,,,,
,,,,,SPR24_036,18,Female,2024-04-11_09h58.00.450,jersey_experiment_5_v0,2023.2.2,Win32,84.74576271,,,,,,,,,,,,,,,,678.6878,679.7312,679.7312,682.4373,return,0.7815,,99.21875,,,,,,FBP-RB-91.png,0.4,1.2,43,0.25,,,,,,,,,,,,,,,,,,0,10,10,42,1,,,,,,,,,,,,,,,,,,,,,,,
,,,,,SPR24_036,18,Female,2024-04-11_09h58.00.450,jersey_experiment_5_v0,2023.2.2,Win32,84.74576271,,,,,,,,,,,,,,,,682.4375,683.4876,683.4876,684.5232,return,0.2827,,99.86979167,,,,,,FBP-OG-17.png,0.4,1.2,3,0.25,,,,,,,,,,,,,,,,,,0,11,11,2,1,,,,,,,,,,,,,,,,,,,,,,,
,,,,,SPR24_036,18,Female,2024-04-11_09h58.00.450,jersey_experiment_5_v0,2023.2.2,Win32,84.74576271,,,,,,,,,,,,,,,,684.5233,685.8172,685.8172,687.3786,return,0.1825,,48.828125,,,,,,FBP-YG-71.png,0.35,1.2,16,0.5,,,,,,,,,,,,,,,,,,0,12,12,15,1,,,,,,,,,,,,,,,,,,,,,,,
,,,,,SPR24_036,18,Female,2024-04-11_09h58.00.450,jersey_experiment_5_v0,2023.2.2,Win32,84.74576271,,,,,,,,,,,,,,,,687.3788,688.6727,688.6728,690.1081,return,0.659,,75.65104167,,,,,,FBP-YG-81.png,0.45,1.2,25,0.5,,,,,,,,,,,,,,,,,,0,13,13,24,1,,,,,,,,,,,,,,,,,,,,,,,
,,,,,SPR24_036,18,Female,2024-04-11_09h58.00.450,jersey_experiment_5_v0,2023.2.2,Win32,84.74576271,,,,,,,,,,,,,,,,690.1084,691.1553,691.1553,693.0141,return,0.0732,,99.86979167,,,,,,FBP-RB-71.png,0.43,1.2,34,0.25,,,,,,,,,,,,,,,,,,0,14,14,33,1,,,,,,,,,,,,,,,,,,,,,,,
,,,,,SPR24_036,18,Female,2024-04-11_09h58.00.450,jersey_experiment_5_v0,2023.2.2,Win32,84.74576271,,,,,,,,,,,,,,,,693.0143,694.0659,694.0659,695.8024,return,0.0946,,50.52083333,,,,,,FBP-OG-17.png,0.35,1.2,1,0.25,,,,,,,,,,,,,,,,,,0,15,15,0,1,,,,,,,,,,,,,,,,,,,,,,,
,,,,,SPR24_036,18,Female,2024-04-11_09h58.00.450,jersey_experiment_5_v0,2023.2.2,Win32,84.74576271,,,,,,,,,,,,,,,,695.8027,696.8496,696.8496,699.4648,return,0.1416,,99.47916667,,,,,,FBP-RB-71.png,0.37,1.2,32,0.25,,,,,,,,,,,,,,,,,,0,16,16,31,1,,,,,,,,,,,,,,,,,,,,,,,
,,,,,SPR24_036,18,Female,2024-04-11_09h58.00.450,jersey_experiment_5_v0,2023.2.2,Win32,84.74576271,,,,,,,,,,,,,,,,699.4649,700.7722,700.7723,701.9322,return,0.1074,,50.390625,,,,,,FBP-PT-71.png,0.35,1.2,46,0.5,,,,,,,,,,,,,,,,,,0,17,17,45,1,,,,,,,,,,,,,,,,,,,,,,,
,,,,,SPR24_036,18,Female,2024-04-11_09h58.00.450,jersey_experiment_5_v0,2023.2.2,Win32,84.74576271,,,,,,,,,,,,,,,,701.9324,703.2262,703.2263,704.2262,return,0.0079,,75.26041667,,,,,,FBP-PT-71.png,0.43,1.2,49,0.5,,,,,,,,,,,,,,,,,,0,18,18,48,1,,,,,,,,,,,,,,,,,,,,,,,
,,,,,SPR24_036,18,Female,2024-04-11_09h58.00.450,jersey_experiment_5_v0,2023.2.2,Win32,84.74576271,,,,,,,,,,,,,,,,704.2265,705.2767,705.2767,707.0182,return,0.2593,,50,,,,,,FBP-RB-71.png,0.35,1.2,31,0.25,,,,,,,,,,,,,,,,,,0,19,19,30,1,,,,,,,,,,,,,,,,,,,,,,,
,,,,,SPR24_036,18,Female,2024-04-11_09h58.00.450,jersey_experiment_5_v0,2023.2.2,Win32,84.74576271,,,,,,,,,,,,,,,,707.0183,708.3206,708.3206,710.5373,return,0.1784,,99.609375,,,,,,FBP-PT-71.png,0.45,1.2,50,0.5,,,,,,,,,,,,,,,,,,0,20,20,49,1,,,,,,,,,,,,,,,,,,,,,,,
,,,,,SPR24_036,18,Female,2024-04-11_09h58.00.450,jersey_experiment_5_v0,2023.2.2,Win32,84.74576271,,,,,,,,,,,,,,,,710.5374,711.8311,711.8312,713.6667,return,0.131,,50.390625,,,,,,FBP-YG-81.png,0.37,1.2,22,0.5,,,,,,,,,,,,,,,,,,0,21,21,21,1,,,,,,,,,,,,,,,,,,,,,,,
,,,,,SPR24_036,18,Female,2024-04-11_09h58.00.450,jersey_experiment_5_v0,2023.2.2,Win32,84.74576271,,,,,,,,,,,,,,,,713.6669,714.709,714.7091,715.4317,return,0.0844,,50.13020833,,,,,,FBP-OG-18.png,0.35,1.2,6,0.25,,,,,,,,,,,,,,,,,,0,22,22,5,1,,,,,,,,,,,,,,,,,,,,,,,
,,,,,SPR24_036,18,Female,2024-04-11_09h58.00.450,jersey_experiment_5_v0,2023.2.2,Win32,84.74576271,,,,,,,,,,,,,,,,715.4319,716.7357,716.7358,717.183,return,0.1884,,50,,,,,,FBP-PT-71.png,0.4,1.2,48,0.5,,,,,,,,,,,,,,,,,,0,23,23,47,1,,,,,,,,,,,,,,,,,,,,,,,
,,,,,SPR24_036,18,Female,2024-04-11_09h58.00.450,jersey_experiment_5_v0,2023.2.2,Win32,84.74576271,,,,,,,,,,,,,,,,717.1832,718.4904,718.4905,719.6503,return,0.0534,,74.609375,,,,,,FBP-YG-71.png,0.45,1.2,20,0.5,,,,,,,,,,,,,,,,,,0,24,24,19,1,,,,,,,,,,,,,,,,,,,,,,,
,,,,,SPR24_036,18,Female,2024-04-11_09h58.00.450,jersey_experiment_5_v0,2023.2.2,Win32,84.74576271,,,,,,,,,,,,,,,,719.6505,720.6974,720.6974,722.148,return,0.0813,,25.13020833,,,,,,FBP-OG-19.png,0.35,1.2,11,0.25,,,,,,,,,,,,,,,,,,0,25,25,10,1,,,,,,,,,,,,,,,,,,,,,,,
,,,,,SPR24_036,18,Female,2024-04-11_09h58.00.450,jersey_experiment_5_v0,2023.2.2,Win32,84.74576271,,,,,,,,,,,,,,,,722.1483,723.4421,723.4421,725.2774,return,0.0707,,74.73958333,,,,,,FBP-YG-91.png,0.45,1.2,30,0.5,,,,,,,,,,,,,,,,,,0,26,26,29,1,,,,,,,,,,,,,,,,,,,,,,,
,,,,,SPR24_036,18,Female,2024-04-11_09h58.00.450,jersey_experiment_5_v0,2023.2.2,Win32,84.74576271,,,,,,,,,,,,,,,,725.2775,726.3211,726.3212,727.3379,return,0.0372,,99.73958333,,,,,,FBP-RB-91.png,0.45,1.2,45,0.25,,,,,,,,,,,,,,,,,,0,27,27,44,1,,,,,,,,,,,,,,,,,,,,,,,
,,,,,SPR24_036,18,Female,2024-04-11_09h58.00.450,jersey_experiment_5_v0,2023.2.2,Win32,84.74576271,,,,,,,,,,,,,,,,727.3381,728.3801,728.3801,729.6071,return,0.5413,,99.73958333,,,,,,FBP-OG-17.png,0.45,1.2,5,0.25,,,,,,,,,,,,,,,,,,0,28,28,4,1,,,,,,,,,,,,,,,,,,,,,,,
,,,,,SPR24_036,18,Female,2024-04-11_09h58.00.450,jersey_experiment_5_v0,2023.2.2,Win32,84.74576271,,,,,,,,,,,,,,,,729.6072,730.6508,730.6508,732.1802,return,0.1001,,50.91145833,,,,,,FBP-OG-19.png,0.4,1.2,13,0.25,,,,,,,,,,,,,,,,,,0,29,29,12,1,,,,,,,,,,,,,,,,,,,,,,,
,,,,,SPR24_036,18,Female,2024-04-11_09h58.00.450,jersey_experiment_5_v0,2023.2.2,Win32,84.74576271,,,,,,,,,,,,,,,,732.1805,733.2303,733.2303,734.6744,return,0.0783,,75.13020833,,,,,,FBP-RB-71.png,0.45,1.2,35,0.25,,,,,,,,,,,,,,,,,,0,30,30,34,1,,,,,,,,,,,,,,,,,,,,,,,
,,,,,SPR24_036,18,Female,2024-04-11_09h58.00.450,jersey_experiment_5_v0,2023.2.2,Win32,84.74576271,,,,,,,,,,,,,,,,734.6747,735.9685,735.9685,737.0274,return,0.101,,49.86979167,,,,,,FBP-PT-91.png,0.37,1.2,57,0.5,,,,,,,,,,,,,,,,,,0,31,31,56,1,,,,,,,,,,,,,,,,,,,,,,,
,,,,,SPR24_036,18,Female,2024-04-11_09h58.00.450,jersey_experiment_5_v0,2023.2.2,Win32,84.74576271,,,,,,,,,,,,,,,,737.0277,738.3263,738.3263,739.4745,return,0.1348,,24.609375,,,,,,FBP-PT-81.png,0.35,1.2,51,0.5,,,,,,,,,,,,,,,,,,0,32,32,50,1,,,,,,,,,,,,,,,,,,,,,,,
,,,,,SPR24_036,18,Female,2024-04-11_09h58.00.450,jersey_experiment_5_v0,2023.2.2,Win32,84.74576271,,,,,,,,,,,,,,,,739.4748,740.7738,740.7738,742.1804,return,0.1337,,25.13020833,,,,,,FBP-YG-81.png,0.35,1.2,21,0.5,,,,,,,,,,,,,,,,,,0,33,33,20,1,,,,,,,,,,,,,,,,,,,,,,,
,,,,,SPR24_036,18,Female,2024-04-11_09h58.00.450,jersey_experiment_5_v0,2023.2.2,Win32,84.74576271,,,,,,,,,,,,,,,,742.1807,743.2309,743.2309,744.2277,return,0.0535,,49.609375,,,,,,FBP-RB-81.png,0.4,1.2,38,0.25,,,,,,,,,,,,,,,,,,0,34,34,37,1,,,,,,,,,,,,,,,,,,,,,,,
,,,,,SPR24_036,18,Female,2024-04-11_09h58.00.450,jersey_experiment_5_v0,2023.2.2,Win32,84.74576271,,,,,,,,,,,,,,,,744.2278,745.5218,745.5218,746.4545,return,0.0467,,75.26041667,,,,,,FBP-YG-91.png,0.43,1.2,29,0.5,,,,,,,,,,,,,,,,,,0,35,35,28,1,,,,,,,,,,,,,,,,,,,,,,,
,,,,,SPR24_036,18,Female,2024-04-11_09h58.00.450,jersey_experiment_5_v0,2023.2.2,Win32,84.74576271,,,,,,,,,,,,,,,,746.4547,747.4985,747.4986,748.9152,return,0.1548,,50.52083333,,,,,,FBP-RB-91.png,0.35,1.2,41,0.25,,,,,,,,,,,,,,,,,,0,36,36,40,1,,,,,,,,,,,,,,,,,,,,,,,
,,,,,SPR24_036,18,Female,2024-04-11_09h58.00.450,jersey_experiment_5_v0,2023.2.2,Win32,84.74576271,,,,,,,,,,,,,,,,748.9153,750.2197,750.2198,750.8549,return,0.1414,,48.828125,,,,,,FBP-YG-91.png,0.35,1.2,26,0.5,,,,,,,,,,,,,,,,,,0,37,37,25,1,,,,,,,,,,,,,,,,,,,,,,,
,,,,,SPR24_036,18,Female,2024-04-11_09h58.00.450,jersey_experiment_5_v0,2023.2.2,Win32,84.74576271,,,,,,,,,,,,,,,,750.8551,752.1488,752.1488,753.3021,return,0.0472,,75,,,,,,FBP-PT-81.png,0.45,1.2,55,0.5,,,,,,,,,,,,,,,,,,0,38,38,54,1,,,,,,,,,,,,,,,,,,,,,,,
,,,,,SPR24_036,18,Female,2024-04-11_09h58.00.450,jersey_experiment_5_v0,2023.2.2,Win32,84.74576271,,,,,,,,,,,,,,,,753.3022,754.6045,754.6046,755.0564,return,0.0837,,75,,,,,,FBP-YG-81.png,0.4,1.2,23,0.5,,,,,,,,,,,,,,,,,,0,39,39,22,1,,,,,,,,,,,,,,,,,,,,,,,
,,,,,SPR24_036,18,Female,2024-04-11_09h58.00.450,jersey_experiment_5_v0,2023.2.2,Win32,84.74576271,,,,,,,,,,,,,,,,755.0565,756.3503,756.3503,757.4433,return,0.1178,,99.47916667,,,,,,FBP-YG-71.png,0.43,1.2,19,0.5,,,,,,,,,,,,,,,,,,0,40,40,18,1,,,,,,,,,,,,,,,,,,,,,,,
,,,,,SPR24_036,18,Female,2024-04-11_09h58.00.450,jersey_experiment_5_v0,2023.2.2,Win32,84.74576271,,,,,,,,,,,,,,,,757.4435,758.487,758.487,759.1223,return,0.3373,,99.47916667,,,,,,FBP-RB-81.png,0.43,1.2,39,0.25,,,,,,,,,,,,,,,,,,0,41,41,38,1,,,,,,,,,,,,,,,,,,,,,,,
,,,,,SPR24_036,18,Female,2024-04-11_09h58.00.450,jersey_experiment_5_v0,2023.2.2,Win32,84.74576271,,,,,,,,,,,,,,,,759.1224,760.1726,760.1727,760.84,return,0.1772,,99.34895833,,,,,,FBP-OG-19.png,0.45,1.2,15,0.25,,,,,,,,,,,,,,,,,,0,42,42,14,1,,,,,,,,,,,,,,,,,,,,,,,
,,,,,SPR24_036,18,Female,2024-04-11_09h58.00.450,jersey_experiment_5_v0,2023.2.2,Win32,84.74576271,,,,,,,,,,,,,,,,760.8403,761.8872,761.8872,762.573,return,0.1885,,99.34895833,,,,,,FBP-OG-19.png,0.43,1.2,14,0.25,,,,,,,,,,,,,,,,,,0,43,43,13,1,,,,,,,,,,,,,,,,,,,,,,,
,,,,,SPR24_036,18,Female,2024-04-11_09h58.00.450,jersey_experiment_5_v0,2023.2.2,Win32,84.74576271,,,,,,,,,,,,,,,,762.5731,763.6166,763.6166,764.4791,return,0.1652,,99.34895833,,,,,,FBP-RB-81.png,0.45,1.2,40,0.25,,,,,,,,,,,,,,,,,,0,44,44,39,1,,,,,,,,,,,,,,,,,,,,,,,
,,,,,SPR24_036,18,Female,2024-04-11_09h58.00.450,jersey_experiment_5_v0,2023.2.2,Win32,84.74576271,,,,,,,,,,,,,,,,764.4793,765.7728,765.7728,766.6569,return,0.037,,49.609375,,,,,,FBP-YG-91.png,0.37,1.2,27,0.5,,,,,,,,,,,,,,,,,,0,45,45,26,1,,,,,,,,,,,,,,,,,,,,,,,
,,,,,SPR24_036,18,Female,2024-04-11_09h58.00.450,jersey_experiment_5_v0,2023.2.2,Win32,84.74576271,,,,,,,,,,,,,,,,766.657,767.9582,767.9583,769.4805,return,0.071,,98.95833333,,,,,,FBP-PT-91.png,0.45,1.2,60,0.5,,,,,,,,,,,,,,,,,,0,46,46,59,1,,,,,,,,,,,,,,,,,,,,,,,
,,,,,SPR24_036,18,Female,2024-04-11_09h58.00.450,jersey_experiment_5_v0,2023.2.2,Win32,84.74576271,,,,,,,,,,,,,,,,769.4806,770.7746,770.7746,772.3581,return,0.0025,,99.08854167,,,,,,FBP-YG-71.png,0.4,1.2,18,0.5,,,,,,,,,,,,,,,,,,0,47,47,17,1,,,,,,,,,,,,,,,,,,,,,,,
,,,,,SPR24_036,18,Female,2024-04-11_09h58.00.450,jersey_experiment_5_v0,2023.2.2,Win32,84.74576271,,,,,,,,,,,,,,,,772.3583,773.41,773.41,774.8321,return,0.0474,,50.26041667,,,,,,FBP-OG-18.png,0.4,1.2,8,0.25,,,,,,,,,,,,,,,,,,0,48,48,7,1,,,,,,,,,,,,,,,,,,,,,,,
,,,,,SPR24_036,18,Female,2024-04-11_09h58.00.450,jersey_experiment_5_v0,2023.2.2,Win32,84.74576271,,,,,,,,,,,,,,,,774.8323,776.1393,776.1393,777.0205,return,0.0467,,74.73958333,,,,,,FBP-PT-81.png,0.43,1.2,54,0.5,,,,,,,,,,,,,,,,,,0,49,49,53,1,,,,,,,,,,,,,,,,,,,,,,,
,,,,,SPR24_036,18,Female,2024-04-11_09h58.00.450,jersey_experiment_5_v0,2023.2.2,Win32,84.74576271,,,,,,,,,,,,,,,,777.0207,778.0687,778.0688,779.1986,return,0.071,,99.609375,,,,,,FBP-RB-91.png,0.43,1.2,44,0.25,,,,,,,,,,,,,,,,,,0,50,50,43,1,,,,,,,,,,,,,,,,,,,,,,,
,,,,,SPR24_036,18,Female,2024-04-11_09h58.00.450,jersey_experiment_5_v0,2023.2.2,Win32,84.74576271,,,,,,,,,,,,,,,,779.1987,780.2441,780.2441,781.3467,return,0.0532,,75.65104167,,,,,,FBP-OG-19.png,0.37,1.2,12,0.25,,,,,,,,,,,,,,,,,,0,51,51,11,1,,,,,,,,,,,,,,,,,,,,,,,
,,,,,SPR24_036,18,Female,2024-04-11_09h58.00.450,jersey_experiment_5_v0,2023.2.2,Win32,84.74576271,,,,,,,,,,,,,,,,781.3469,782.6442,782.6442,783.3971,return,0.1649,,97.78645833,,,,,,FBP-YG-81.png,0.43,1.2,24,0.5,,,,,,,,,,,,,,,,,,0,52,52,23,1,,,,,,,,,,,,,,,,,,,,,,,
,,,,,SPR24_036,18,Female,2024-04-11_09h58.00.450,jersey_experiment_5_v0,2023.2.2,Win32,84.74576271,,,,,,,,,,,,,,,,783.3972,784.6916,784.6916,786.268,return,0.0941,,23.69791667,,,,,,FBP-PT-91.png,0.35,1.2,56,0.5,,,,,,,,,,,,,,,,,,0,53,53,55,1,,,,,,,,,,,,,,,,,,,,,,,
,,,,,SPR24_036,18,Female,2024-04-11_09h58.00.450,jersey_experiment_5_v0,2023.2.2,Win32,84.74576271,,,,,,,,,,,,,,,,786.2682,787.5704,787.5704,788.7284,return,0.0004,,74.609375,,,,,,FBP-PT-91.png,0.43,1.2,59,0.5,,,,,,,,,,,,,,,,,,0,54,54,58,1,,,,,,,,,,,,,,,,,,,,,,,
,,,,,SPR24_036,18,Female,2024-04-11_09h58.00.450,jersey_experiment_5_v0,2023.2.2,Win32,84.74576271,,,,,,,,,,,,,,,,788.7286,789.7736,789.7736,791.3823,return,1.1099,,50.26041667,,,,,,FBP-RB-81.png,0.35,1.2,36,0.25,,,,,,,,,,,,,,,,,,0,55,55,35,1,,,,,,,,,,,,,,,,,,,,,,,
,,,,,SPR24_036,18,Female,2024-04-11_09h58.00.450,jersey_experiment_5_v0,2023.2.2,Win32,84.74576271,,,,,,,,,,,,,,,,791.3826,792.6813,792.6813,793.8577,return,0.0473,,48.56770833,,,,,,FBP-PT-71.png,0.37,1.2,47,0.5,,,,,,,,,,,,,,,,,,0,56,56,46,1,,,,,,,,,,,,,,,,,,,,,,,
,,,,,SPR24_036,18,Female,2024-04-11_09h58.00.450,jersey_experiment_5_v0,2023.2.2,Win32,84.74576271,,,,,,,,,,,,,,,,793.8578,794.9,794.9001,796.0177,return,0.032,,25.65104167,,,,,,FBP-OG-17.png,0.37,1.2,2,0.25,,,,,,,,,,,,,,,,,,0,57,57,1,1,,,,,,,,,,,,,,,,,,,,,,,
,,,,,SPR24_036,18,Female,2024-04-11_09h58.00.450,jersey_experiment_5_v0,2023.2.2,Win32,84.74576271,,,,,,,,,,,,,,,,796.018,797.3167,797.3167,798.1355,return,0.0966,,25.65104167,,,,,,FBP-PT-81.png,0.37,1.2,52,0.5,,,,,,,,,,,,,,,,,,0,58,58,51,1,,,,,,,,,,,,,,,,,,,,,,,
,,,,,SPR24_036,18,Female,2024-04-11_09h58.00.450,jersey_experiment_5_v0,2023.2.2,Win32,84.74576271,,,,,,,,,,,,,,,,798.1357,799.1826,799.1827,800.645,return,0.0946,,49.73958333,,,,,,FBP-RB-91.png,0.37,1.2,42,0.25,,,,,,,,,,,,,,,,,,0,59,59,41,1,,,,,,,,,,,,,,,,,,,,,,,
,,,,,SPR24_036,18,Female,2024-04-11_09h58.00.450,jersey_experiment_5_v0,2023.2.2,Win32,84.74576271,,,,,,,,,,,,,,,,,,,,,,,,,,,,,,,,,,,,,,,,,,,,,,,,,,,,,,,,800.6452,802.423,return,1.7648,,,,,,,,,,,,,,,,,,,
,,,,,SPR24_036,18,Female,2024-04-11_09h58.00.450,jersey_experiment_5_v0,2023.2.2,Win32,84.74576271,,,,,,,,,,,,,,,,,,,,,,,,,,,,,,,,,,,,,,,,,,,,,,,,,,,,,,,,,,,,,802.423,806.3712,1,2.6349,return,1.3008,,,,,,,,,,,,
,,,,,SPR24_036,18,Female,2024-04-11_09h58.00.450,jersey_experiment_5_v0,2023.2.2,Win32,84.74576271,,,,,,,,,,,,,,,,,,,,,,,,,,,,,,,,,,,,,,,,,,,,,,,,,,,,,,,,,,,,,,,,,,,,806.3714,851.0957,The numbers and colors of the uniforms,right,38.7732,,,,,,
,,,,,SPR24_036,18,Female,2024-04-11_09h58.00.450,jersey_experiment_5_v0,2023.2.2,Win32,84.74576271,,,,,,,,,,,,,,,,,,,,,,,,,,,,,,,,,,,,,,,,,,,,,,,,,,,,,,,,,,,,,,,,,,,,,,,,,,851.0957,852.8904,return,1.7751,