requirements.started,requirements.stopped,key_resp_3.keys,key_resp_3.rt,key_resp_3.duration,Subject ID,Age,Gender,date,expName,psychopyVersion,OS,frameRate,instructions1.started,instructions1.stopped,key_resp.keys,key_resp.rt,key_resp.duration,example.started,example.stopped,enter_2.keys,enter_2.rt,enter_2.duration,instructions2.started,instructions2.stopped,enter_3.keys,enter_3.rt,enter_3.duration,image.started,image.stopped,slider_2.started,slider_2.stopped,next.keys,next.rt,next.duration,slider.response,trial_block_1.thisRepN,trial_block_1.thisTrialN,trial_block_1.thisN,trial_block_1.thisIndex,trial_block_1.ran,Path,Width,Height,Index,Duration,trial_block_2.thisRepN,trial_block_2.thisTrialN,trial_block_2.thisN,trial_block_2.thisIndex,trial_block_2.ran,rest_break.started,rest_break.stopped,end_break.started,end_break.stopped,key_resp_5.keys,key_resp_5.rt,key_resp_5.duration,trial_block_3.thisRepN,trial_block_3.thisTrialN,trial_block_3.thisN,trial_block_3.thisIndex,trial_block_3.ran,trial_block_4.thisRepN,trial_block_4.thisTrialN,trial_block_4.thisN,trial_block_4.thisIndex,trial_block_4.ran,questions_intro.started,questions_intro.stopped,enter_12.keys,enter_12.rt,enter_12.duration,question2.started,question2.stopped,question_doingbest.response,question_doingbest.rt,enter_15.keys,enter_15.rt,enter_15.duration,pattern.started,pattern.stopped,pattern_2.text,enter_17.keys,enter_17.rt,enter_17.duration,thankyou.started,thankyou.stopped,enter_14.keys,enter_14.rt,enter_14.duration
0.0002,13.2002,return,13.1801,,SPR24_028,18,Female,2024-04-10_10h55.10.770,jersey_experiment_5_v0,2023.2.2,Win32,84.74576271,,,,,,,,,,,,,,,,,,,,,,,,,,,,,,,,,,,,,,,,,,,,,,,,,,,,,,,,,,,,,,,,,,,,,,,,,,,,,,
,,,,,SPR24_028,18,Female,2024-04-10_10h55.10.770,jersey_experiment_5_v0,2023.2.2,Win32,84.74576271,13.2004,19.6239,return,6.4075,,,,,,,,,,,,,,,,,,,,,,,,,,,,,,,,,,,,,,,,,,,,,,,,,,,,,,,,,,,,,,,,,,,,,,,,,,
,,,,,SPR24_028,18,Female,2024-04-10_10h55.10.770,jersey_experiment_5_v0,2023.2.2,Win32,84.74576271,,,,,,19.6241,30.4597,return,10.7991,,,,,,,,,,,,,,,,,,,,,,,,,,,,,,,,,,,,,,,,,,,,,,,,,,,,,,,,,,,,,,,,,,,,,
,,,,,SPR24_028,18,Female,2024-04-10_10h55.10.770,jersey_experiment_5_v0,2023.2.2,Win32,84.74576271,,,,,,,,,,,30.4598,56.5431,return,26.0703,,,,,,,,,,,,,,,,,,,,,,,,,,,,,,,,,,,,,,,,,,,,,,,,,,,,,,,,,,,,,,,,
,,,,,SPR24_028,18,Female,2024-04-10_10h55.10.770,jersey_experiment_5_v0,2023.2.2,Win32,84.74576271,,,,,,,,,,,,,,,,56.5501,57.8488,57.8488,64.5077,return,4.2982,,76.171875,0,0,0,37,1,FBP-RB-18.png,0.4,1.2,38,0.5,,,,,,,,,,,,,,,,,,,,,,,,,,,,,,,,,,,,,,,,,,,,,
,,,,,SPR24_028,18,Female,2024-04-10_10h55.10.770,jersey_experiment_5_v0,2023.2.2,Win32,84.74576271,,,,,,,,,,,,,,,,64.5124,65.5546,65.5546,68.955,return,1.2251,,89.58333333,0,1,1,19,1,FBP-YG-17.png,0.45,1.2,20,0.25,,,,,,,,,,,,,,,,,,,,,,,,,,,,,,,,,,,,,,,,,,,,,
,,,,,SPR24_028,18,Female,2024-04-10_10h55.10.770,jersey_experiment_5_v0,2023.2.2,Win32,84.74576271,,,,,,,,,,,,,,,,68.9554,70.0019,70.002,73.3903,return,1.2576,,42.578125,0,2,2,51,1,FBP-PT-18.png,0.37,1.2,52,0.25,,,,,,,,,,,,,,,,,,,,,,,,,,,,,,,,,,,,,,,,,,,,,
,,,,,SPR24_028,18,Female,2024-04-10_10h55.10.770,jersey_experiment_5_v0,2023.2.2,Win32,84.74576271,,,,,,,,,,,,,,,,73.3906,74.4374,74.4374,79.0731,return,1.4037,,50.13020833,0,3,3,57,1,FBP-PT-19.png,0.4,1.2,58,0.25,,,,,,,,,,,,,,,,,,,,,,,,,,,,,,,,,,,,,,,,,,,,,
,,,,,SPR24_028,18,Female,2024-04-10_10h55.10.770,jersey_experiment_5_v0,2023.2.2,Win32,84.74576271,,,,,,,,,,,,,,,,79.0733,80.3671,80.3672,84.3438,return,1.7462,,83.203125,0,4,4,38,1,FBP-RB-18.png,0.43,1.2,39,0.5,,,,,,,,,,,,,,,,,,,,,,,,,,,,,,,,,,,,,,,,,,,,,
,,,,,SPR24_028,18,Female,2024-04-10_10h55.10.770,jersey_experiment_5_v0,2023.2.2,Win32,84.74576271,,,,,,,,,,,,,,,,84.3441,85.3907,85.3908,88.9439,return,1.2564,,29.296875,0,5,5,21,1,FBP-YG-18.png,0.37,1.2,22,0.25,,,,,,,,,,,,,,,,,,,,,,,,,,,,,,,,,,,,,,,,,,,,,
,,,,,SPR24_028,18,Female,2024-04-10_10h55.10.770,jersey_experiment_5_v0,2023.2.2,Win32,84.74576271,,,,,,,,,,,,,,,,88.9442,90.2379,90.2379,93.3677,return,1.6412,,99.73958333,0,6,6,44,1,FBP-RB-19.png,0.45,1.2,45,0.5,,,,,,,,,,,,,,,,,,,,,,,,,,,,,,,,,,,,,,,,,,,,,
,,,,,SPR24_028,18,Female,2024-04-10_10h55.10.770,jersey_experiment_5_v0,2023.2.2,Win32,84.74576271,,,,,,,,,,,,,,,,93.3679,94.4147,94.4148,97.4032,return,1.5315,,20.83333333,0,7,7,56,1,FBP-PT-19.png,0.37,1.2,57,0.25,,,,,,,,,,,,,,,,,,,,,,,,,,,,,,,,,,,,,,,,,,,,,
,,,,,SPR24_028,18,Female,2024-04-10_10h55.10.770,jersey_experiment_5_v0,2023.2.2,Win32,84.74576271,,,,,,,,,,,,,,,,97.4035,98.45,98.4501,101.9443,return,1.9018,,21.484375,0,8,8,25,1,FBP-YG-19.png,0.35,1.2,26,0.25,,,,,,,,,,,,,,,,,,,,,,,,,,,,,,,,,,,,,,,,,,,,,
,,,,,SPR24_028,18,Female,2024-04-10_10h55.10.770,jersey_experiment_5_v0,2023.2.2,Win32,84.74576271,,,,,,,,,,,,,,,,101.9446,103.2386,103.2386,107.6386,return,1.1354,,99.47916667,0,9,9,34,1,FBP-RB-17.png,0.45,1.2,35,0.5,,,,,,,,,,,,,,,,,,,,,,,,,,,,,,,,,,,,,,,,,,,,,
,,,,,SPR24_028,18,Female,2024-04-10_10h55.10.770,jersey_experiment_5_v0,2023.2.2,Win32,84.74576271,,,,,,,,,,,,,,,,107.6388,108.6859,108.6859,112.0741,return,1.0271,,77.08333333,0,10,10,22,1,FBP-YG-18.png,0.4,1.2,23,0.25,,,,,,,,,,,,,,,,,,,,,,,,,,,,,,,,,,,,,,,,,,,,,
,,,,,SPR24_028,18,Female,2024-04-10_10h55.10.770,jersey_experiment_5_v0,2023.2.2,Win32,84.74576271,,,,,,,,,,,,,,,,112.0744,113.1213,113.1213,116.792,return,1.5114,,95.3125,0,11,11,58,1,FBP-PT-19.png,0.43,1.2,59,0.25,,,,,,,,,,,,,,,,,,,,,,,,,,,,,,,,,,,,,,,,,,,,,
,,,,,SPR24_028,18,Female,2024-04-10_10h55.10.770,jersey_experiment_5_v0,2023.2.2,Win32,84.74576271,,,,,,,,,,,,,,,,116.7922,118.0862,118.0862,121.8863,return,1.2809,,8.854166667,0,12,12,5,1,FBP-OG-81.png,0.35,1.2,6,0.5,,,,,,,,,,,,,,,,,,,,,,,,,,,,,,,,,,,,,,,,,,,,,
,,,,,SPR24_028,18,Female,2024-04-10_10h55.10.770,jersey_experiment_5_v0,2023.2.2,Win32,84.74576271,,,,,,,,,,,,,,,,121.8864,123.1805,123.1805,125.9924,return,0.8998,,50,0,13,13,1,1,FBP-OG-71.png,0.37,1.2,2,0.5,,,,,,,,,,,,,,,,,,,,,,,,,,,,,,,,,,,,,,,,,,,,,
,,,,,SPR24_028,18,Female,2024-04-10_10h55.10.770,jersey_experiment_5_v0,2023.2.2,Win32,84.74576271,,,,,,,,,,,,,,,,125.9926,127.2867,127.2867,129.8162,return,0.8641,,92.578125,0,14,14,3,1,FBP-OG-71.png,0.43,1.2,4,0.5,,,,,,,,,,,,,,,,,,,,,,,,,,,,,,,,,,,,,,,,,,,,,
,,,,,SPR24_028,18,Female,2024-04-10_10h55.10.770,jersey_experiment_5_v0,2023.2.2,Win32,84.74576271,,,,,,,,,,,,,,,,129.8164,131.1102,131.1103,134.5222,return,1.1912,,24.47916667,0,15,15,35,1,FBP-RB-18.png,0.35,1.2,36,0.5,,,,,,,,,,,,,,,,,,,,,,,,,,,,,,,,,,,,,,,,,,,,,
,,,,,SPR24_028,18,Female,2024-04-10_10h55.10.770,jersey_experiment_5_v0,2023.2.2,Win32,84.74576271,,,,,,,,,,,,,,,,134.5223,135.5693,135.5694,139.2634,return,1.341,,87.36979167,0,16,16,48,1,FBP-PT-17.png,0.43,1.2,49,0.25,,,,,,,,,,,,,,,,,,,,,,,,,,,,,,,,,,,,,,,,,,,,,
,,,,,SPR24_028,18,Female,2024-04-10_10h55.10.770,jersey_experiment_5_v0,2023.2.2,Win32,84.74576271,,,,,,,,,,,,,,,,139.2638,140.5577,140.5577,143.2753,return,1.1571,,74.21875,0,17,17,32,1,FBP-RB-17.png,0.4,1.2,33,0.5,,,,,,,,,,,,,,,,,,,,,,,,,,,,,,,,,,,,,,,,,,,,,
,,,,,SPR24_028,18,Female,2024-04-10_10h55.10.770,jersey_experiment_5_v0,2023.2.2,Win32,84.74576271,,,,,,,,,,,,,,,,143.2755,144.5696,144.5696,148.3815,return,0.8826,,99.609375,0,18,18,39,1,FBP-RB-18.png,0.45,1.2,40,0.5,,,,,,,,,,,,,,,,,,,,,,,,,,,,,,,,,,,,,,,,,,,,,
,,,,,SPR24_028,18,Female,2024-04-10_10h55.10.770,jersey_experiment_5_v0,2023.2.2,Win32,84.74576271,,,,,,,,,,,,,,,,148.3818,149.4286,149.4286,152.6993,return,1.5783,,99.47916667,0,19,19,54,1,FBP-PT-18.png,0.45,1.2,55,0.25,,,,,,,,,,,,,,,,,,,,,,,,,,,,,,,,,,,,,,,,,,,,,
,,,,,SPR24_028,18,Female,2024-04-10_10h55.10.770,jersey_experiment_5_v0,2023.2.2,Win32,84.74576271,,,,,,,,,,,,,,,,152.6996,153.7463,153.7464,156.57,return,1.1216,,80.46875,0,20,20,28,1,FBP-YG-19.png,0.43,1.2,29,0.25,,,,,,,,,,,,,,,,,,,,,,,,,,,,,,,,,,,,,,,,,,,,,
,,,,,SPR24_028,18,Female,2024-04-10_10h55.10.770,jersey_experiment_5_v0,2023.2.2,Win32,84.74576271,,,,,,,,,,,,,,,,156.5702,157.617,157.6171,161.9468,return,0.8965,,49.34895833,0,21,21,46,1,FBP-PT-17.png,0.37,1.2,47,0.25,,,,,,,,,,,,,,,,,,,,,,,,,,,,,,,,,,,,,,,,,,,,,
,,,,,SPR24_028,18,Female,2024-04-10_10h55.10.770,jersey_experiment_5_v0,2023.2.2,Win32,84.74576271,,,,,,,,,,,,,,,,161.947,163.241,163.241,168.0292,return,3.1788,,24.34895833,0,22,22,10,1,FBP-OG-91.png,0.35,1.2,11,0.5,,,,,,,,,,,,,,,,,,,,,,,,,,,,,,,,,,,,,,,,,,,,,
,,,,,SPR24_028,18,Female,2024-04-10_10h55.10.770,jersey_experiment_5_v0,2023.2.2,Win32,84.74576271,,,,,,,,,,,,,,,,168.0295,169.0764,169.0764,171.7353,return,0.8677,,50,0,23,23,17,1,FBP-YG-17.png,0.4,1.2,18,0.25,,,,,,,,,,,,,,,,,,,,,,,,,,,,,,,,,,,,,,,,,,,,,
,,,,,SPR24_028,18,Female,2024-04-10_10h55.10.770,jersey_experiment_5_v0,2023.2.2,Win32,84.74576271,,,,,,,,,,,,,,,,171.7355,172.7823,172.7823,175.8884,return,1.2708,,82.29166667,0,24,24,18,1,FBP-YG-17.png,0.43,1.2,19,0.25,,,,,,,,,,,,,,,,,,,,,,,,,,,,,,,,,,,,,,,,,,,,,
,,,,,SPR24_028,18,Female,2024-04-10_10h55.10.770,jersey_experiment_5_v0,2023.2.2,Win32,84.74576271,,,,,,,,,,,,,,,,175.8887,177.1826,177.1826,179.5474,return,0.8727,,99.609375,0,25,25,9,1,FBP-OG-81.png,0.45,1.2,10,0.5,,,,,,,,,,,,,,,,,,,,,,,,,,,,,,,,,,,,,,,,,,,,,
,,,,,SPR24_028,18,Female,2024-04-10_10h55.10.770,jersey_experiment_5_v0,2023.2.2,Win32,84.74576271,,,,,,,,,,,,,,,,179.5476,180.5945,180.5945,183.3358,return,0.8531,,89.84375,0,26,26,53,1,FBP-PT-18.png,0.43,1.2,54,0.25,,,,,,,,,,,,,,,,,,,,,,,,,,,,,,,,,,,,,,,,,,,,,
,,,,,SPR24_028,18,Female,2024-04-10_10h55.10.770,jersey_experiment_5_v0,2023.2.2,Win32,84.74576271,,,,,,,,,,,,,,,,183.3359,184.6299,184.6299,188.4066,return,2.0194,,92.96875,0,27,27,43,1,FBP-RB-19.png,0.43,1.2,44,0.5,,,,,,,,,,,,,,,,,,,,,,,,,,,,,,,,,,,,,,,,,,,,,
,,,,,SPR24_028,18,Female,2024-04-10_10h55.10.770,jersey_experiment_5_v0,2023.2.2,Win32,84.74576271,,,,,,,,,,,,,,,,188.4069,189.7007,189.7007,194.348,return,1.3334,,52.99479167,0,28,28,36,1,FBP-RB-18.png,0.37,1.2,37,0.5,,,,,,,,,,,,,,,,,,,,,,,,,,,,,,,,,,,,,,,,,,,,,
,,,,,SPR24_028,18,Female,2024-04-10_10h55.10.770,jersey_experiment_5_v0,2023.2.2,Win32,84.74576271,,,,,,,,,,,,,,,,194.3482,195.6422,195.6423,197.7129,return,0.9648,,52.99479167,0,29,29,7,1,FBP-OG-81.png,0.4,1.2,8,0.5,,,,,,,,,,,,,,,,,,,,,,,,,,,,,,,,,,,,,,,,,,,,,
,,,,,SPR24_028,18,Female,2024-04-10_10h55.10.770,jersey_experiment_5_v0,2023.2.2,Win32,84.74576271,,,,,,,,,,,,,,,,197.7131,199.0069,199.0069,201.6659,return,0.9413,,24.34895833,0,30,30,30,1,FBP-RB-17.png,0.35,1.2,31,0.5,,,,,,,,,,,,,,,,,,,,,,,,,,,,,,,,,,,,,,,,,,,,,
,,,,,SPR24_028,18,Female,2024-04-10_10h55.10.770,jersey_experiment_5_v0,2023.2.2,Win32,84.74576271,,,,,,,,,,,,,,,,201.6662,202.713,202.713,205.5836,return,0.918,,33.85416667,0,31,31,20,1,FBP-YG-18.png,0.35,1.2,21,0.25,,,,,,,,,,,,,,,,,,,,,,,,,,,,,,,,,,,,,,,,,,,,,
,,,,,SPR24_028,18,Female,2024-04-10_10h55.10.770,jersey_experiment_5_v0,2023.2.2,Win32,84.74576271,,,,,,,,,,,,,,,,205.5839,206.8778,206.8778,209.7368,return,0.8659,,88.671875,0,32,32,4,1,FBP-OG-71.png,0.45,1.2,5,0.5,,,,,,,,,,,,,,,,,,,,,,,,,,,,,,,,,,,,,,,,,,,,,
,,,,,SPR24_028,18,Female,2024-04-10_10h55.10.770,jersey_experiment_5_v0,2023.2.2,Win32,84.74576271,,,,,,,,,,,,,,,,209.737,211.0311,211.0311,213.6546,return,0.8662,,37.36979167,0,33,33,31,1,FBP-RB-17.png,0.37,1.2,32,0.5,,,,,,,,,,,,,,,,,,,,,,,,,,,,,,,,,,,,,,,,,,,,,
,,,,,SPR24_028,18,Female,2024-04-10_10h55.10.770,jersey_experiment_5_v0,2023.2.2,Win32,84.74576271,,,,,,,,,,,,,,,,213.6549,214.9487,214.9488,218.1843,return,1.0782,,50.13020833,0,34,34,2,1,FBP-OG-71.png,0.4,1.2,3,0.5,,,,,,,,,,,,,,,,,,,,,,,,,,,,,,,,,,,,,,,,,,,,,
,,,,,SPR24_028,18,Female,2024-04-10_10h55.10.770,jersey_experiment_5_v0,2023.2.2,Win32,84.74576271,,,,,,,,,,,,,,,,218.1846,219.2314,219.2314,221.8196,return,0.9079,,25.390625,0,35,35,50,1,FBP-PT-18.png,0.35,1.2,51,0.25,,,,,,,,,,,,,,,,,,,,,,,,,,,,,,,,,,,,,,,,,,,,,
,,,,,SPR24_028,18,Female,2024-04-10_10h55.10.770,jersey_experiment_5_v0,2023.2.2,Win32,84.74576271,,,,,,,,,,,,,,,,221.8197,222.8667,222.8667,225.5021,return,0.6352,,13.15104167,0,36,36,45,1,FBP-PT-17.png,0.35,1.2,46,0.25,,,,,,,,,,,,,,,,,,,,,,,,,,,,,,,,,,,,,,,,,,,,,
,,,,,SPR24_028,18,Female,2024-04-10_10h55.10.770,jersey_experiment_5_v0,2023.2.2,Win32,84.74576271,,,,,,,,,,,,,,,,225.5024,226.7963,226.7964,229.8084,return,0.8613,,75.13020833,0,37,37,13,1,FBP-OG-91.png,0.43,1.2,14,0.5,,,,,,,,,,,,,,,,,,,,,,,,,,,,,,,,,,,,,,,,,,,,,
,,,,,SPR24_028,18,Female,2024-04-10_10h55.10.770,jersey_experiment_5_v0,2023.2.2,Win32,84.74576271,,,,,,,,,,,,,,,,229.8086,231.1023,231.1023,233.9495,return,0.7301,,49.21875,0,38,38,11,1,FBP-OG-91.png,0.37,1.2,12,0.5,,,,,,,,,,,,,,,,,,,,,,,,,,,,,,,,,,,,,,,,,,,,,
,,,,,SPR24_028,18,Female,2024-04-10_10h55.10.770,jersey_experiment_5_v0,2023.2.2,Win32,84.74576271,,,,,,,,,,,,,,,,233.9497,235.2437,235.2437,237.9379,return,0.8944,,61.97916667,0,39,39,42,1,FBP-RB-19.png,0.4,1.2,43,0.5,,,,,,,,,,,,,,,,,,,,,,,,,,,,,,,,,,,,,,,,,,,,,
,,,,,SPR24_028,18,Female,2024-04-10_10h55.10.770,jersey_experiment_5_v0,2023.2.2,Win32,84.74576271,,,,,,,,,,,,,,,,237.9382,239.232,239.232,241.7027,return,0.7623,,61.45833333,0,40,40,12,1,FBP-OG-91.png,0.4,1.2,13,0.5,,,,,,,,,,,,,,,,,,,,,,,,,,,,,,,,,,,,,,,,,,,,,
,,,,,SPR24_028,18,Female,2024-04-10_10h55.10.770,jersey_experiment_5_v0,2023.2.2,Win32,84.74576271,,,,,,,,,,,,,,,,241.703,242.9969,242.9969,245.2558,return,0.8882,,23.828125,0,41,41,40,1,FBP-RB-19.png,0.35,1.2,41,0.5,,,,,,,,,,,,,,,,,,,,,,,,,,,,,,,,,,,,,,,,,,,,,
,,,,,SPR24_028,18,Female,2024-04-10_10h55.10.770,jersey_experiment_5_v0,2023.2.2,Win32,84.74576271,,,,,,,,,,,,,,,,245.2561,246.55,246.55,248.9853,return,0.7476,,75,0,42,42,33,1,FBP-RB-17.png,0.43,1.2,34,0.5,,,,,,,,,,,,,,,,,,,,,,,,,,,,,,,,,,,,,,,,,,,,,
,,,,,SPR24_028,18,Female,2024-04-10_10h55.10.770,jersey_experiment_5_v0,2023.2.2,Win32,84.74576271,,,,,,,,,,,,,,,,248.9856,250.0324,250.0325,252.3621,return,0.7826,,95.83333333,0,43,43,23,1,FBP-YG-18.png,0.43,1.2,24,0.25,,,,,,,,,,,,,,,,,,,,,,,,,,,,,,,,,,,,,,,,,,,,,
,,,,,SPR24_028,18,Female,2024-04-10_10h55.10.770,jersey_experiment_5_v0,2023.2.2,Win32,84.74576271,,,,,,,,,,,,,,,,252.3623,253.409,253.4091,256.3857,return,0.8096,,99.34895833,0,44,44,49,1,FBP-PT-17.png,0.45,1.2,50,0.25,,,,,,,,,,,,,,,,,,,,,,,,,,,,,,,,,,,,,,,,,,,,,
,,,,,SPR24_028,18,Female,2024-04-10_10h55.10.770,jersey_experiment_5_v0,2023.2.2,Win32,84.74576271,,,,,,,,,,,,,,,,256.386,257.4327,257.4328,261.527,return,0.8679,,62.36979167,0,45,45,47,1,FBP-PT-17.png,0.4,1.2,48,0.25,,,,,,,,,,,,,,,,,,,,,,,,,,,,,,,,,,,,,,,,,,,,,
,,,,,SPR24_028,18,Female,2024-04-10_10h55.10.770,jersey_experiment_5_v0,2023.2.2,Win32,84.74576271,,,,,,,,,,,,,,,,261.5273,262.5741,262.5741,264.7978,return,0.8007,,73.046875,0,46,46,27,1,FBP-YG-19.png,0.4,1.2,28,0.25,,,,,,,,,,,,,,,,,,,,,,,,,,,,,,,,,,,,,,,,,,,,,
,,,,,SPR24_028,18,Female,2024-04-10_10h55.10.770,jersey_experiment_5_v0,2023.2.2,Win32,84.74576271,,,,,,,,,,,,,,,,264.7981,265.8449,265.8449,268.1743,return,0.7403,,71.61458333,0,47,47,52,1,FBP-PT-18.png,0.4,1.2,53,0.25,,,,,,,,,,,,,,,,,,,,,,,,,,,,,,,,,,,,,,,,,,,,,
,,,,,SPR24_028,18,Female,2024-04-10_10h55.10.770,jersey_experiment_5_v0,2023.2.2,Win32,84.74576271,,,,,,,,,,,,,,,,268.1745,269.2214,269.2214,271.2452,return,0.8382,,99.34895833,0,48,48,29,1,FBP-YG-19.png,0.45,1.2,30,0.25,,,,,,,,,,,,,,,,,,,,,,,,,,,,,,,,,,,,,,,,,,,,,
,,,,,SPR24_028,18,Female,2024-04-10_10h55.10.770,jersey_experiment_5_v0,2023.2.2,Win32,84.74576271,,,,,,,,,,,,,,,,271.2455,272.2921,272.2921,275.3511,return,1.3595,,25.13020833,0,49,49,55,1,FBP-PT-19.png,0.35,1.2,56,0.25,,,,,,,,,,,,,,,,,,,,,,,,,,,,,,,,,,,,,,,,,,,,,
,,,,,SPR24_028,18,Female,2024-04-10_10h55.10.770,jersey_experiment_5_v0,2023.2.2,Win32,84.74576271,,,,,,,,,,,,,,,,275.3514,276.3982,276.3982,279.0219,return,0.8823,,36.19791667,0,50,50,26,1,FBP-YG-19.png,0.37,1.2,27,0.25,,,,,,,,,,,,,,,,,,,,,,,,,,,,,,,,,,,,,,,,,,,,,
,,,,,SPR24_028,18,Female,2024-04-10_10h55.10.770,jersey_experiment_5_v0,2023.2.2,Win32,84.74576271,,,,,,,,,,,,,,,,279.0222,280.0689,280.0689,282.1395,return,1.0043,,25,0,51,51,15,1,FBP-YG-17.png,0.35,1.2,16,0.25,,,,,,,,,,,,,,,,,,,,,,,,,,,,,,,,,,,,,,,,,,,,,
,,,,,SPR24_028,18,Female,2024-04-10_10h55.10.770,jersey_experiment_5_v0,2023.2.2,Win32,84.74576271,,,,,,,,,,,,,,,,282.1398,283.434,283.4341,286.081,return,0.8797,,74.86979167,0,52,52,14,1,FBP-OG-91.png,0.45,1.2,15,0.5,,,,,,,,,,,,,,,,,,,,,,,,,,,,,,,,,,,,,,,,,,,,,
,,,,,SPR24_028,18,Female,2024-04-10_10h55.10.770,jersey_experiment_5_v0,2023.2.2,Win32,84.74576271,,,,,,,,,,,,,,,,286.0812,287.3752,287.3752,288.987,return,0.779,,50,0,53,53,41,1,FBP-RB-19.png,0.37,1.2,42,0.5,,,,,,,,,,,,,,,,,,,,,,,,,,,,,,,,,,,,,,,,,,,,,
,,,,,SPR24_028,18,Female,2024-04-10_10h55.10.770,jersey_experiment_5_v0,2023.2.2,Win32,84.74576271,,,,,,,,,,,,,,,,288.9873,290.2812,290.2812,292.4577,return,0.8625,,25.13020833,0,54,54,0,1,FBP-OG-71.png,0.35,1.2,1,0.5,,,,,,,,,,,,,,,,,,,,,,,,,,,,,,,,,,,,,,,,,,,,,
,,,,,SPR24_028,18,Female,2024-04-10_10h55.10.770,jersey_experiment_5_v0,2023.2.2,Win32,84.74576271,,,,,,,,,,,,,,,,292.4579,293.5048,293.5048,295.8577,return,0.791,,80.33854167,0,55,55,59,1,FBP-PT-19.png,0.45,1.2,60,0.25,,,,,,,,,,,,,,,,,,,,,,,,,,,,,,,,,,,,,,,,,,,,,
,,,,,SPR24_028,18,Female,2024-04-10_10h55.10.770,jersey_experiment_5_v0,2023.2.2,Win32,84.74576271,,,,,,,,,,,,,,,,295.8579,296.9049,296.905,299.0225,return,0.787,,83.46354167,0,56,56,24,1,FBP-YG-18.png,0.45,1.2,25,0.25,,,,,,,,,,,,,,,,,,,,,,,,,,,,,,,,,,,,,,,,,,,,,
,,,,,SPR24_028,18,Female,2024-04-10_10h55.10.770,jersey_experiment_5_v0,2023.2.2,Win32,84.74576271,,,,,,,,,,,,,,,,299.0228,300.3167,300.3167,302.1051,return,0.6659,,50.13020833,0,57,57,6,1,FBP-OG-81.png,0.37,1.2,7,0.5,,,,,,,,,,,,,,,,,,,,,,,,,,,,,,,,,,,,,,,,,,,,,
,,,,,SPR24_028,18,Female,2024-04-10_10h55.10.770,jersey_experiment_5_v0,2023.2.2,Win32,84.74576271,,,,,,,,,,,,,,,,302.1053,303.1522,303.1523,304.6699,return,0.7174,,49.86979167,0,58,58,16,1,FBP-YG-17.png,0.37,1.2,17,0.25,,,,,,,,,,,,,,,,,,,,,,,,,,,,,,,,,,,,,,,,,,,,,
,,,,,SPR24_028,18,Female,2024-04-10_10h55.10.770,jersey_experiment_5_v0,2023.2.2,Win32,84.74576271,,,,,,,,,,,,,,,,304.6701,305.964,305.9641,308.0936,return,0.8384,,75.65104167,0,59,59,8,1,FBP-OG-81.png,0.43,1.2,9,0.5,,,,,,,,,,,,,,,,,,,,,,,,,,,,,,,,,,,,,,,,,,,,,
,,,,,SPR24_028,18,Female,2024-04-10_10h55.10.770,jersey_experiment_5_v0,2023.2.2,Win32,84.74576271,,,,,,,,,,,,,,,,308.0954,309.1405,309.1405,311.482,return,0.7001,,49.73958333,,,,,,FBP-YG-81.png,0.37,1.2,22,0.25,0,0,0,21,1,,,,,,,,,,,,,,,,,,,,,,,,,,,,,,,,,,,,,,,,
,,,,,SPR24_028,18,Female,2024-04-10_10h55.10.770,jersey_experiment_5_v0,2023.2.2,Win32,84.74576271,,,,,,,,,,,,,,,,311.4823,312.5289,312.5289,314.8821,return,1.365,,36.19791667,,,,,,FBP-YG-91.png,0.37,1.2,27,0.25,0,1,1,26,1,,,,,,,,,,,,,,,,,,,,,,,,,,,,,,,,,,,,,,,,
,,,,,SPR24_028,18,Female,2024-04-10_10h55.10.770,jersey_experiment_5_v0,2023.2.2,Win32,84.74576271,,,,,,,,,,,,,,,,314.8824,315.9294,315.9294,318.0233,return,0.8207,,65.88541667,,,,,,FBP-YG-91.png,0.43,1.2,29,0.25,0,2,2,28,1,,,,,,,,,,,,,,,,,,,,,,,,,,,,,,,,,,,,,,,,
,,,,,SPR24_028,18,Female,2024-04-10_10h55.10.770,jersey_experiment_5_v0,2023.2.2,Win32,84.74576271,,,,,,,,,,,,,,,,318.0236,319.3176,319.3176,321.0353,return,0.7222,,94.01041667,,,,,,FBP-RB-91.png,0.45,1.2,45,0.5,0,3,3,44,1,,,,,,,,,,,,,,,,,,,,,,,,,,,,,,,,,,,,,,,,
,,,,,SPR24_028,18,Female,2024-04-10_10h55.10.770,jersey_experiment_5_v0,2023.2.2,Win32,84.74576271,,,,,,,,,,,,,,,,321.0355,322.3294,322.3295,324.7648,return,0.7799,,50.13020833,,,,,,FBP-RB-71.png,0.4,1.2,33,0.5,0,4,4,32,1,,,,,,,,,,,,,,,,,,,,,,,,,,,,,,,,,,,,,,,,
,,,,,SPR24_028,18,Female,2024-04-10_10h55.10.770,jersey_experiment_5_v0,2023.2.2,Win32,84.74576271,,,,,,,,,,,,,,,,324.7651,325.8119,325.812,327.5649,return,0.7798,,78.125,,,,,,FBP-YG-81.png,0.43,1.2,24,0.25,0,5,5,23,1,,,,,,,,,,,,,,,,,,,,,,,,,,,,,,,,,,,,,,,,
,,,,,SPR24_028,18,Female,2024-04-10_10h55.10.770,jersey_experiment_5_v0,2023.2.2,Win32,84.74576271,,,,,,,,,,,,,,,,327.5652,328.612,328.6121,330.8003,return,0.7669,,99.73958333,,,,,,FBP-PT-71.png,0.45,1.2,50,0.25,0,6,6,49,1,,,,,,,,,,,,,,,,,,,,,,,,,,,,,,,,,,,,,,,,
,,,,,SPR24_028,18,Female,2024-04-10_10h55.10.770,jersey_experiment_5_v0,2023.2.2,Win32,84.74576271,,,,,,,,,,,,,,,,330.8005,332.0946,332.0947,333.8827,return,0.8024,,74.609375,,,,,,FBP-OG-18.png,0.45,1.2,10,0.5,0,7,7,9,1,,,,,,,,,,,,,,,,,,,,,,,,,,,,,,,,,,,,,,,,
,,,,,SPR24_028,18,Female,2024-04-10_10h55.10.770,jersey_experiment_5_v0,2023.2.2,Win32,84.74576271,,,,,,,,,,,,,,,,333.883,334.9299,334.9299,337.2711,return,0.8207,,45.96354167,,,,,,FBP-YG-91.png,0.4,1.2,28,0.25,0,8,8,27,1,,,,,,,,,,,,,,,,,,,,,,,,,,,,,,,,,,,,,,,,
,,,,,SPR24_028,18,Female,2024-04-10_10h55.10.770,jersey_experiment_5_v0,2023.2.2,Win32,84.74576271,,,,,,,,,,,,,,,,337.2713,338.3182,338.3183,340.3654,return,0.709,,63.41145833,,,,,,FBP-PT-71.png,0.43,1.2,49,0.25,0,9,9,48,1,,,,,,,,,,,,,,,,,,,,,,,,,,,,,,,,,,,,,,,,
,,,,,SPR24_028,18,Female,2024-04-10_10h55.10.770,jersey_experiment_5_v0,2023.2.2,Win32,84.74576271,,,,,,,,,,,,,,,,340.3656,341.4125,341.4125,343.1538,return,0.7299,,76.30208333,,,,,,FBP-PT-91.png,0.45,1.2,60,0.25,0,10,10,59,1,,,,,,,,,,,,,,,,,,,,,,,,,,,,,,,,,,,,,,,,
,,,,,SPR24_028,18,Female,2024-04-10_10h55.10.770,jersey_experiment_5_v0,2023.2.2,Win32,84.74576271,,,,,,,,,,,,,,,,343.1541,344.2008,344.2009,346.9775,return,0.7855,,78.25520833,,,,,,FBP-PT-71.png,0.4,1.2,48,0.25,0,11,11,47,1,,,,,,,,,,,,,,,,,,,,,,,,,,,,,,,,,,,,,,,,
,,,,,SPR24_028,18,Female,2024-04-10_10h55.10.770,jersey_experiment_5_v0,2023.2.2,Win32,84.74576271,,,,,,,,,,,,,,,,346.9777,348.2717,348.2717,350.8248,return,0.8664,,51.43229167,,,,,,FBP-RB-91.png,0.4,1.2,43,0.5,0,12,12,42,1,,,,,,,,,,,,,,,,,,,,,,,,,,,,,,,,,,,,,,,,
,,,,,SPR24_028,18,Female,2024-04-10_10h55.10.770,jersey_experiment_5_v0,2023.2.2,Win32,84.74576271,,,,,,,,,,,,,,,,350.825,352.1188,352.1188,354.3306,return,0.8738,,70.05208333,,,,,,FBP-RB-81.png,0.4,1.2,38,0.5,0,13,13,37,1,,,,,,,,,,,,,,,,,,,,,,,,,,,,,,,,,,,,,,,,
,,,,,SPR24_028,18,Female,2024-04-10_10h55.10.770,jersey_experiment_5_v0,2023.2.2,Win32,84.74576271,,,,,,,,,,,,,,,,354.3308,355.6248,355.6248,358.4721,return,0.9844,,25.65104167,,,,,,FBP-OG-17.png,0.35,1.2,1,0.5,0,14,14,0,1,,,,,,,,,,,,,,,,,,,,,,,,,,,,,,,,,,,,,,,,
,,,,,SPR24_028,18,Female,2024-04-10_10h55.10.770,jersey_experiment_5_v0,2023.2.2,Win32,84.74576271,,,,,,,,,,,,,,,,358.4723,359.7662,359.7663,362.2016,return,0.6651,,24.73958333,,,,,,FBP-OG-19.png,0.35,1.2,11,0.5,0,15,15,10,1,,,,,,,,,,,,,,,,,,,,,,,,,,,,,,,,,,,,,,,,
,,,,,SPR24_028,18,Female,2024-04-10_10h55.10.770,jersey_experiment_5_v0,2023.2.2,Win32,84.74576271,,,,,,,,,,,,,,,,362.2019,363.2487,363.2487,365.8723,return,1.2097,,27.47395833,,,,,,FBP-PT-71.png,0.37,1.2,47,0.25,0,16,16,46,1,,,,,,,,,,,,,,,,,,,,,,,,,,,,,,,,,,,,,,,,
,,,,,SPR24_028,18,Female,2024-04-10_10h55.10.770,jersey_experiment_5_v0,2023.2.2,Win32,84.74576271,,,,,,,,,,,,,,,,365.8727,366.9194,366.9195,369.343,return,0.6972,,50.91145833,,,,,,FBP-YG-71.png,0.4,1.2,18,0.25,0,17,17,17,1,,,,,,,,,,,,,,,,,,,,,,,,,,,,,,,,,,,,,,,,
,,,,,SPR24_028,18,Female,2024-04-10_10h55.10.770,jersey_experiment_5_v0,2023.2.2,Win32,84.74576271,,,,,,,,,,,,,,,,369.3432,370.39,370.39,372.4138,return,0.8821,,22.91666667,,,,,,FBP-YG-91.png,0.35,1.2,26,0.25,0,18,18,25,1,,,,,,,,,,,,,,,,,,,,,,,,,,,,,,,,,,,,,,,,
,,,,,SPR24_028,18,Female,2024-04-10_10h55.10.770,jersey_experiment_5_v0,2023.2.2,Win32,84.74576271,,,,,,,,,,,,,,,,372.414,373.4608,373.4609,375.049,return,0.8778,,19.79166667,,,,,,FBP-PT-81.png,0.35,1.2,51,0.25,0,19,19,50,1,,,,,,,,,,,,,,,,,,,,,,,,,,,,,,,,,,,,,,,,
,,,,,SPR24_028,18,Female,2024-04-10_10h55.10.770,jersey_experiment_5_v0,2023.2.2,Win32,84.74576271,,,,,,,,,,,,,,,,375.0493,376.3432,376.3432,378.6727,return,0.6913,,18.61979167,,,,,,FBP-OG-18.png,0.35,1.2,6,0.5,0,20,20,5,1,,,,,,,,,,,,,,,,,,,,,,,,,,,,,,,,,,,,,,,,
,,,,,SPR24_028,18,Female,2024-04-10_10h55.10.770,jersey_experiment_5_v0,2023.2.2,Win32,84.74576271,,,,,,,,,,,,,,,,378.6729,379.7199,379.7199,382.0964,return,0.7205,,85.80729167,,,,,,FBP-PT-81.png,0.45,1.2,55,0.25,0,21,21,54,1,,,,,,,,,,,,,,,,,,,,,,,,,,,,,,,,,,,,,,,,
,,,,,SPR24_028,18,Female,2024-04-10_10h55.10.770,jersey_experiment_5_v0,2023.2.2,Win32,84.74576271,,,,,,,,,,,,,,,,382.0967,383.3907,383.3907,385.0378,return,0.683,,99.47916667,,,,,,FBP-OG-17.png,0.45,1.2,5,0.5,0,22,22,4,1,,,,,,,,,,,,,,,,,,,,,,,,,,,,,,,,,,,,,,,,
,,,,,SPR24_028,18,Female,2024-04-10_10h55.10.770,jersey_experiment_5_v0,2023.2.2,Win32,84.74576271,,,,,,,,,,,,,,,,385.0381,386.0847,386.0848,387.8025,return,0.6501,,76.953125,,,,,,FBP-YG-81.png,0.4,1.2,23,0.25,0,23,23,22,1,,,,,,,,,,,,,,,,,,,,,,,,,,,,,,,,,,,,,,,,
,,,,,SPR24_028,18,Female,2024-04-10_10h55.10.770,jersey_experiment_5_v0,2023.2.2,Win32,84.74576271,,,,,,,,,,,,,,,,387.8027,389.0968,389.0968,390.9673,return,0.6179,,71.484375,,,,,,FBP-RB-91.png,0.37,1.2,42,0.5,0,24,24,41,1,,,,,,,,,,,,,,,,,,,,,,,,,,,,,,,,,,,,,,,,
,,,,,SPR24_028,18,Female,2024-04-10_10h55.10.770,jersey_experiment_5_v0,2023.2.2,Win32,84.74576271,,,,,,,,,,,,,,,,390.9676,392.2616,392.2616,394.3909,return,0.6207,,31.90104167,,,,,,FBP-RB-71.png,0.35,1.2,31,0.5,0,25,25,30,1,,,,,,,,,,,,,,,,,,,,,,,,,,,,,,,,,,,,,,,,
,,,,,SPR24_028,18,Female,2024-04-10_10h55.10.770,jersey_experiment_5_v0,2023.2.2,Win32,84.74576271,,,,,,,,,,,,,,,,394.3912,395.4381,395.4383,397.2735,return,0.7475,,92.31770833,,,,,,FBP-YG-81.png,0.45,1.2,25,0.25,0,26,26,24,1,,,,,,,,,,,,,,,,,,,,,,,,,,,,,,,,,,,,,,,,
,,,,,SPR24_028,18,Female,2024-04-10_10h55.10.770,jersey_experiment_5_v0,2023.2.2,Win32,84.74576271,,,,,,,,,,,,,,,,397.2738,398.3205,398.3206,399.8383,return,0.6494,,99.609375,,,,,,FBP-YG-71.png,0.45,1.2,20,0.25,0,27,27,19,1,,,,,,,,,,,,,,,,,,,,,,,,,,,,,,,,,,,,,,,,
,,,,,SPR24_028,18,Female,2024-04-10_10h55.10.770,jersey_experiment_5_v0,2023.2.2,Win32,84.74576271,,,,,,,,,,,,,,,,399.8386,401.1324,401.1325,403.5443,return,0.5958,,62.109375,,,,,,FBP-RB-71.png,0.37,1.2,32,0.5,0,28,28,31,1,,,,,,,,,,,,,,,,,,,,,,,,,,,,,,,,,,,,,,,,
,,,,,SPR24_028,18,Female,2024-04-10_10h55.10.770,jersey_experiment_5_v0,2023.2.2,Win32,84.74576271,,,,,,,,,,,,,,,,403.5446,404.8385,404.8385,406.2739,return,0.6686,,85.546875,,,,,,FBP-RB-81.png,0.45,1.2,40,0.5,0,29,29,39,1,,,,,,,,,,,,,,,,,,,,,,,,,,,,,,,,,,,,,,,,
,,,,,SPR24_028,18,Female,2024-04-10_10h55.10.770,jersey_experiment_5_v0,2023.2.2,Win32,84.74576271,,,,,,,,,,,,,,,,406.2741,407.5681,407.5681,409.3447,return,0.721,,49.609375,,,,,,FBP-OG-19.png,0.37,1.2,12,0.5,0,30,30,11,1,,,,,,,,,,,,,,,,,,,,,,,,,,,,,,,,,,,,,,,,
,,,,,SPR24_028,18,Female,2024-04-10_10h55.10.770,jersey_experiment_5_v0,2023.2.2,Win32,84.74576271,,,,,,,,,,,,,,,,409.3449,410.6386,410.6387,411.968,return,0.6121,,98.4375,,,,,,FBP-OG-19.png,0.45,1.2,15,0.5,0,31,31,14,1,,,,,,,,,,,,,,,,,,,,,,,,,,,,,,,,,,,,,,,,
,,,,,SPR24_028,18,Female,2024-04-10_10h55.10.770,jersey_experiment_5_v0,2023.2.2,Win32,84.74576271,,,,,,,,,,,,,,,,411.9683,413.0153,413.0153,415.5802,return,0.7688,,63.28125,,,,,,FBP-PT-91.png,0.37,1.2,57,0.25,0,32,32,56,1,,,,,,,,,,,,,,,,,,,,,,,,,,,,,,,,,,,,,,,,
,,,,,SPR24_028,18,Female,2024-04-10_10h55.10.770,jersey_experiment_5_v0,2023.2.2,Win32,84.74576271,,,,,,,,,,,,,,,,415.5804,416.6271,416.6272,418.5215,return,0.6775,,37.76041667,,,,,,FBP-PT-91.png,0.35,1.2,56,0.25,0,33,33,55,1,,,,,,,,,,,,,,,,,,,,,,,,,,,,,,,,,,,,,,,,
,,,,,SPR24_028,18,Female,2024-04-10_10h55.10.770,jersey_experiment_5_v0,2023.2.2,Win32,84.74576271,,,,,,,,,,,,,,,,418.5218,419.8155,419.8155,421.4509,return,0.7206,,24.86979167,,,,,,FBP-OG-18.png,0.37,1.2,7,0.5,0,34,34,6,1,,,,,,,,,,,,,,,,,,,,,,,,,,,,,,,,,,,,,,,,
,,,,,SPR24_028,18,Female,2024-04-10_10h55.10.770,jersey_experiment_5_v0,2023.2.2,Win32,84.74576271,,,,,,,,,,,,,,,,421.4511,422.498,422.4981,424.5216,return,0.6391,,70.44270833,,,,,,FBP-PT-81.png,0.43,1.2,54,0.25,0,35,35,53,1,,,,,,,,,,,,,,,,,,,,,,,,,,,,,,,,,,,,,,,,
,,,,,SPR24_028,18,Female,2024-04-10_10h55.10.770,jersey_experiment_5_v0,2023.2.2,Win32,84.74576271,,,,,,,,,,,,,,,,424.5218,425.5687,425.5687,427.3218,return,0.5452,,84.50520833,,,,,,FBP-YG-71.png,0.43,1.2,19,0.25,0,36,36,18,1,,,,,,,,,,,,,,,,,,,,,,,,,,,,,,,,,,,,,,,,
,,,,,SPR24_028,18,Female,2024-04-10_10h55.10.770,jersey_experiment_5_v0,2023.2.2,Win32,84.74576271,,,,,,,,,,,,,,,,427.322,428.3689,428.3689,430.0629,return,0.6129,,65.10416667,,,,,,FBP-PT-81.png,0.37,1.2,52,0.25,0,37,37,51,1,,,,,,,,,,,,,,,,,,,,,,,,,,,,,,,,,,,,,,,,
,,,,,SPR24_028,18,Female,2024-04-10_10h55.10.770,jersey_experiment_5_v0,2023.2.2,Win32,84.74576271,,,,,,,,,,,,,,,,430.0631,431.1103,431.1103,432.9455,return,0.6595,,92.578125,,,,,,FBP-YG-91.png,0.45,1.2,30,0.25,0,38,38,29,1,,,,,,,,,,,,,,,,,,,,,,,,,,,,,,,,,,,,,,,,
,,,,,SPR24_028,18,Female,2024-04-10_10h55.10.770,jersey_experiment_5_v0,2023.2.2,Win32,84.74576271,,,,,,,,,,,,,,,,432.9458,434.2397,434.2397,435.8398,return,0.6828,,64.71354167,,,,,,FBP-RB-81.png,0.37,1.2,37,0.5,0,39,39,36,1,,,,,,,,,,,,,,,,,,,,,,,,,,,,,,,,,,,,,,,,
,,,,,SPR24_028,18,Female,2024-04-10_10h55.10.770,jersey_experiment_5_v0,2023.2.2,Win32,84.74576271,,,,,,,,,,,,,,,,435.8401,437.1339,437.1339,439.6281,return,0.7452,,50.390625,,,,,,FBP-RB-81.png,0.35,1.2,36,0.5,0,40,40,35,1,,,,,,,,,,,,,,,,,,,,,,,,,,,,,,,,,,,,,,,,
,,,,,SPR24_028,18,Female,2024-04-10_10h55.10.770,jersey_experiment_5_v0,2023.2.2,Win32,84.74576271,,,,,,,,,,,,,,,,439.6283,440.6751,440.6752,443.0165,return,0.7583,,38.671875,,,,,,FBP-YG-81.png,0.35,1.2,21,0.25,0,41,41,20,1,,,,,,,,,,,,,,,,,,,,,,,,,,,,,,,,,,,,,,,,
,,,,,SPR24_028,18,Female,2024-04-10_10h55.10.770,jersey_experiment_5_v0,2023.2.2,Win32,84.74576271,,,,,,,,,,,,,,,,443.0167,444.0634,444.0634,445.9696,return,0.7296,,63.671875,,,,,,FBP-PT-81.png,0.4,1.2,53,0.25,0,42,42,52,1,,,,,,,,,,,,,,,,,,,,,,,,,,,,,,,,,,,,,,,,
,,,,,SPR24_028,18,Female,2024-04-10_10h55.10.770,jersey_experiment_5_v0,2023.2.2,Win32,84.74576271,,,,,,,,,,,,,,,,445.9697,447.2637,447.2637,448.7343,return,0.5556,,86.06770833,,,,,,FBP-RB-91.png,0.43,1.2,44,0.5,0,43,43,43,1,,,,,,,,,,,,,,,,,,,,,,,,,,,,,,,,,,,,,,,,
,,,,,SPR24_028,18,Female,2024-04-10_10h55.10.770,jersey_experiment_5_v0,2023.2.2,Win32,84.74576271,,,,,,,,,,,,,,,,448.7345,449.7813,449.7813,451.6169,return,0.706,,85.546875,,,,,,FBP-PT-91.png,0.4,1.2,58,0.25,0,44,44,57,1,,,,,,,,,,,,,,,,,,,,,,,,,,,,,,,,,,,,,,,,
,,,,,SPR24_028,18,Female,2024-04-10_10h55.10.770,jersey_experiment_5_v0,2023.2.2,Win32,84.74576271,,,,,,,,,,,,,,,,451.6171,452.6639,452.664,454.711,return,0.7599,,86.97916667,,,,,,FBP-YG-71.png,0.37,1.2,17,0.25,0,45,45,16,1,,,,,,,,,,,,,,,,,,,,,,,,,,,,,,,,,,,,,,,,
,,,,,SPR24_028,18,Female,2024-04-10_10h55.10.770,jersey_experiment_5_v0,2023.2.2,Win32,84.74576271,,,,,,,,,,,,,,,,454.7112,456.0052,456.0052,458.3464,return,0.6883,,74.609375,,,,,,FBP-OG-18.png,0.4,1.2,8,0.5,0,46,46,7,1,,,,,,,,,,,,,,,,,,,,,,,,,,,,,,,,,,,,,,,,
,,,,,SPR24_028,18,Female,2024-04-10_10h55.10.770,jersey_experiment_5_v0,2023.2.2,Win32,84.74576271,,,,,,,,,,,,,,,,458.3466,459.3936,459.3936,461.3584,return,0.6466,,89.19270833,,,,,,FBP-PT-91.png,0.43,1.2,59,0.25,0,47,47,58,1,,,,,,,,,,,,,,,,,,,,,,,,,,,,,,,,,,,,,,,,
,,,,,SPR24_028,18,Female,2024-04-10_10h55.10.770,jersey_experiment_5_v0,2023.2.2,Win32,84.74576271,,,,,,,,,,,,,,,,461.3587,462.6524,462.6524,465.4995,return,2.1456,,82.29166667,,,,,,FBP-OG-17.png,0.4,1.2,3,0.5,0,48,48,2,1,,,,,,,,,,,,,,,,,,,,,,,,,,,,,,,,,,,,,,,,
,,,,,SPR24_028,18,Female,2024-04-10_10h55.10.770,jersey_experiment_5_v0,2023.2.2,Win32,84.74576271,,,,,,,,,,,,,,,,465.4997,466.7939,466.7939,468.6645,return,0.7725,,78.515625,,,,,,FBP-OG-19.png,0.4,1.2,13,0.5,0,49,49,12,1,,,,,,,,,,,,,,,,,,,,,,,,,,,,,,,,,,,,,,,,
,,,,,SPR24_028,18,Female,2024-04-10_10h55.10.770,jersey_experiment_5_v0,2023.2.2,Win32,84.74576271,,,,,,,,,,,,,,,,468.6648,469.9587,469.9587,471.6882,return,0.6764,,92.31770833,,,,,,FBP-RB-81.png,0.43,1.2,39,0.5,0,50,50,38,1,,,,,,,,,,,,,,,,,,,,,,,,,,,,,,,,,,,,,,,,
,,,,,SPR24_028,18,Female,2024-04-10_10h55.10.770,jersey_experiment_5_v0,2023.2.2,Win32,84.74576271,,,,,,,,,,,,,,,,471.6884,472.9823,472.9823,474.2413,return,0.6825,,92.70833333,,,,,,FBP-OG-18.png,0.43,1.2,9,0.5,0,51,51,8,1,,,,,,,,,,,,,,,,,,,,,,,,,,,,,,,,,,,,,,,,
,,,,,SPR24_028,18,Female,2024-04-10_10h55.10.770,jersey_experiment_5_v0,2023.2.2,Win32,84.74576271,,,,,,,,,,,,,,,,474.2416,475.5353,475.5354,478.8297,return,1.2471,,98.30729167,,,,,,FBP-RB-71.png,0.45,1.2,35,0.5,0,52,52,34,1,,,,,,,,,,,,,,,,,,,,,,,,,,,,,,,,,,,,,,,,
,,,,,SPR24_028,18,Female,2024-04-10_10h55.10.770,jersey_experiment_5_v0,2023.2.2,Win32,84.74576271,,,,,,,,,,,,,,,,478.8299,479.8767,479.8768,482.3122,return,0.7494,,49.34895833,,,,,,FBP-YG-71.png,0.35,1.2,16,0.25,0,53,53,15,1,,,,,,,,,,,,,,,,,,,,,,,,,,,,,,,,,,,,,,,,
,,,,,SPR24_028,18,Female,2024-04-10_10h55.10.770,jersey_experiment_5_v0,2023.2.2,Win32,84.74576271,,,,,,,,,,,,,,,,482.3124,483.359,483.3591,485.9946,return,0.7202,,26.30208333,,,,,,FBP-PT-71.png,0.35,1.2,46,0.25,0,54,54,45,1,,,,,,,,,,,,,,,,,,,,,,,,,,,,,,,,,,,,,,,,
,,,,,SPR24_028,18,Female,2024-04-10_10h55.10.770,jersey_experiment_5_v0,2023.2.2,Win32,84.74576271,,,,,,,,,,,,,,,,485.9949,487.2888,487.2888,489.7359,return,0.6765,,78.64583333,,,,,,FBP-OG-19.png,0.43,1.2,14,0.5,0,55,55,13,1,,,,,,,,,,,,,,,,,,,,,,,,,,,,,,,,,,,,,,,,
,,,,,SPR24_028,18,Female,2024-04-10_10h55.10.770,jersey_experiment_5_v0,2023.2.2,Win32,84.74576271,,,,,,,,,,,,,,,,489.7361,491.03,491.0301,492.6536,return,0.6147,,48.69791667,,,,,,FBP-RB-91.png,0.35,1.2,41,0.5,0,56,56,40,1,,,,,,,,,,,,,,,,,,,,,,,,,,,,,,,,,,,,,,,,
,,,,,SPR24_028,18,Female,2024-04-10_10h55.10.770,jersey_experiment_5_v0,2023.2.2,Win32,84.74576271,,,,,,,,,,,,,,,,492.6539,493.9479,493.9479,495.5596,return,0.7969,,79.16666667,,,,,,FBP-RB-71.png,0.43,1.2,34,0.5,0,57,57,33,1,,,,,,,,,,,,,,,,,,,,,,,,,,,,,,,,,,,,,,,,
,,,,,SPR24_028,18,Female,2024-04-10_10h55.10.770,jersey_experiment_5_v0,2023.2.2,Win32,84.74576271,,,,,,,,,,,,,,,,495.5598,496.8539,496.8539,498.6423,return,0.768,,80.72916667,,,,,,FBP-OG-17.png,0.43,1.2,4,0.5,0,58,58,3,1,,,,,,,,,,,,,,,,,,,,,,,,,,,,,,,,,,,,,,,,
,,,,,SPR24_028,18,Female,2024-04-10_10h55.10.770,jersey_experiment_5_v0,2023.2.2,Win32,84.74576271,,,,,,,,,,,,,,,,498.6425,499.9363,499.9364,502.0776,return,0.7769,,36.58854167,,,,,,FBP-OG-17.png,0.37,1.2,2,0.5,0,59,59,1,1,,,,,,,,,,,,,,,,,,,,,,,,,,,,,,,,,,,,,,,,
,,,,,SPR24_028,18,Female,2024-04-10_10h55.10.770,jersey_experiment_5_v0,2023.2.2,Win32,84.74576271,,,,,,,,,,,,,,,,,,,,,,,,,,,,,,,,,,,,,,,502.0779,622.0707,,,,,,,,,,,,,,,,,,,,,,,,,,,,,,,,,,,,,,
,,,,,SPR24_028,18,Female,2024-04-10_10h55.10.770,jersey_experiment_5_v0,2023.2.2,Win32,84.74576271,,,,,,,,,,,,,,,,,,,,,,,,,,,,,,,,,,,,,,,,,622.0708,633.1653,return,11.0837,,,,,,,,,,,,,,,,,,,,,,,,,,,,,,,,,,
,,,,,SPR24_028,18,Female,2024-04-10_10h55.10.770,jersey_experiment_5_v0,2023.2.2,Win32,84.74576271,,,,,,,,,,,,,,,,633.1712,634.471,634.471,636.9887,return,0.7568,,24.86979167,,,,,,FBP-PT-19.png,0.35,1.2,56,0.5,,,,,,,,,,,,,0,0,0,55,1,,,,,,,,,,,,,,,,,,,,,,,,,,,,
,,,,,SPR24_028,18,Female,2024-04-10_10h55.10.770,jersey_experiment_5_v0,2023.2.2,Win32,84.74576271,,,,,,,,,,,,,,,,636.989,638.0359,638.036,639.9654,return,0.8004,,48.828125,,,,,,FBP-OG-81.png,0.4,1.2,8,0.25,,,,,,,,,,,,,0,1,1,7,1,,,,,,,,,,,,,,,,,,,,,,,,,,,,
,,,,,SPR24_028,18,Female,2024-04-10_10h55.10.770,jersey_experiment_5_v0,2023.2.2,Win32,84.74576271,,,,,,,,,,,,,,,,639.9656,641.2594,641.2595,642.7654,return,0.7067,,35.67708333,,,,,,FBP-PT-17.png,0.35,1.2,46,0.5,,,,,,,,,,,,,0,2,2,45,1,,,,,,,,,,,,,,,,,,,,,,,,,,,,
,,,,,SPR24_028,18,Female,2024-04-10_10h55.10.770,jersey_experiment_5_v0,2023.2.2,Win32,84.74576271,,,,,,,,,,,,,,,,642.7657,644.0597,644.0597,645.5184,return,0.7294,,34.89583333,,,,,,FBP-YG-18.png,0.35,1.2,21,0.5,,,,,,,,,,,,,0,3,3,20,1,,,,,,,,,,,,,,,,,,,,,,,,,,,,
,,,,,SPR24_028,18,Female,2024-04-10_10h55.10.770,jersey_experiment_5_v0,2023.2.2,Win32,84.74576271,,,,,,,,,,,,,,,,645.5186,646.8128,646.8128,648.4951,return,0.5897,,69.79166667,,,,,,FBP-PT-17.png,0.43,1.2,49,0.5,,,,,,,,,,,,,0,4,4,48,1,,,,,,,,,,,,,,,,,,,,,,,,,,,,
,,,,,SPR24_028,18,Female,2024-04-10_10h55.10.770,jersey_experiment_5_v0,2023.2.2,Win32,84.74576271,,,,,,,,,,,,,,,,648.4952,649.7892,649.7892,651.2246,return,0.643,,69.66145833,,,,,,FBP-YG-19.png,0.4,1.2,28,0.5,,,,,,,,,,,,,0,5,5,27,1,,,,,,,,,,,,,,,,,,,,,,,,,,,,
,,,,,SPR24_028,18,Female,2024-04-10_10h55.10.770,jersey_experiment_5_v0,2023.2.2,Win32,84.74576271,,,,,,,,,,,,,,,,651.2248,652.2716,652.2716,654.4011,return,0.6676,,49.86979167,,,,,,FBP-OG-71.png,0.37,1.2,2,0.25,,,,,,,,,,,,,0,6,6,1,1,,,,,,,,,,,,,,,,,,,,,,,,,,,,
,,,,,SPR24_028,18,Female,2024-04-10_10h55.10.770,jersey_experiment_5_v0,2023.2.2,Win32,84.74576271,,,,,,,,,,,,,,,,654.4014,655.6952,655.6952,657.6601,return,0.6985,,26.30208333,,,,,,FBP-PT-17.png,0.37,1.2,47,0.5,,,,,,,,,,,,,0,7,7,46,1,,,,,,,,,,,,,,,,,,,,,,,,,,,,
,,,,,SPR24_028,18,Female,2024-04-10_10h55.10.770,jersey_experiment_5_v0,2023.2.2,Win32,84.74576271,,,,,,,,,,,,,,,,657.6603,658.707,658.7072,660.9544,return,0.6767,,76.30208333,,,,,,FBP-RB-19.png,0.45,1.2,45,0.25,,,,,,,,,,,,,0,8,8,44,1,,,,,,,,,,,,,,,,,,,,,,,,,,,,
,,,,,SPR24_028,18,Female,2024-04-10_10h55.10.770,jersey_experiment_5_v0,2023.2.2,Win32,84.74576271,,,,,,,,,,,,,,,,660.9546,662.2485,662.2485,663.4486,return,0.7021,,75.91145833,,,,,,FBP-PT-18.png,0.4,1.2,53,0.5,,,,,,,,,,,,,0,9,9,52,1,,,,,,,,,,,,,,,,,,,,,,,,,,,,
,,,,,SPR24_028,18,Female,2024-04-10_10h55.10.770,jersey_experiment_5_v0,2023.2.2,Win32,84.74576271,,,,,,,,,,,,,,,,663.4489,664.4956,664.4956,666.978,return,0.6498,,92.31770833,,,,,,FBP-OG-81.png,0.45,1.2,10,0.25,,,,,,,,,,,,,0,10,10,9,1,,,,,,,,,,,,,,,,,,,,,,,,,,,,
,,,,,SPR24_028,18,Female,2024-04-10_10h55.10.770,jersey_experiment_5_v0,2023.2.2,Win32,84.74576271,,,,,,,,,,,,,,,,666.9783,668.2722,668.2723,671.5195,return,1.5538,,96.22395833,,,,,,FBP-PT-18.png,0.45,1.2,55,0.5,,,,,,,,,,,,,0,11,11,54,1,,,,,,,,,,,,,,,,,,,,,,,,,,,,
,,,,,SPR24_028,18,Female,2024-04-10_10h55.10.770,jersey_experiment_5_v0,2023.2.2,Win32,84.74576271,,,,,,,,,,,,,,,,671.5198,672.5664,672.5664,674.6961,return,0.6879,,64.32291667,,,,,,FBP-RB-18.png,0.4,1.2,38,0.25,,,,,,,,,,,,,0,12,12,37,1,,,,,,,,,,,,,,,,,,,,,,,,,,,,
,,,,,SPR24_028,18,Female,2024-04-10_10h55.10.770,jersey_experiment_5_v0,2023.2.2,Win32,84.74576271,,,,,,,,,,,,,,,,674.6963,675.9902,675.9903,680.8021,return,3.9068,,34.765625,,,,,,FBP-PT-18.png,0.37,1.2,52,0.5,,,,,,,,,,,,,0,13,13,51,1,,,,,,,,,,,,,,,,,,,,,,,,,,,,
,,,,,SPR24_028,18,Female,2024-04-10_10h55.10.770,jersey_experiment_5_v0,2023.2.2,Win32,84.74576271,,,,,,,,,,,,,,,,680.8024,681.8493,681.8493,684.0023,return,0.7063,,90.49479167,,,,,,FBP-OG-71.png,0.45,1.2,5,0.25,,,,,,,,,,,,,0,14,14,4,1,,,,,,,,,,,,,,,,,,,,,,,,,,,,
,,,,,SPR24_028,18,Female,2024-04-10_10h55.10.770,jersey_experiment_5_v0,2023.2.2,Win32,84.74576271,,,,,,,,,,,,,,,,684.0026,685.2964,685.2964,687.6023,return,1.6569,,88.80208333,,,,,,FBP-YG-19.png,0.43,1.2,29,0.5,,,,,,,,,,,,,0,15,15,28,1,,,,,,,,,,,,,,,,,,,,,,,,,,,,
,,,,,SPR24_028,18,Female,2024-04-10_10h55.10.770,jersey_experiment_5_v0,2023.2.2,Win32,84.74576271,,,,,,,,,,,,,,,,687.6026,688.6494,688.6495,690.426,return,0.6651,,72.52604167,,,,,,FBP-RB-18.png,0.43,1.2,39,0.25,,,,,,,,,,,,,0,16,16,38,1,,,,,,,,,,,,,,,,,,,,,,,,,,,,
,,,,,SPR24_028,18,Female,2024-04-10_10h55.10.770,jersey_experiment_5_v0,2023.2.2,Win32,84.74576271,,,,,,,,,,,,,,,,690.4263,691.7202,691.7202,693.9791,return,0.6264,,49.609375,,,,,,FBP-PT-19.png,0.37,1.2,57,0.5,,,,,,,,,,,,,0,17,17,56,1,,,,,,,,,,,,,,,,,,,,,,,,,,,,
,,,,,SPR24_028,18,Female,2024-04-10_10h55.10.770,jersey_experiment_5_v0,2023.2.2,Win32,84.74576271,,,,,,,,,,,,,,,,693.9793,695.0263,695.0263,696.5558,return,0.6518,,24.609375,,,,,,FBP-OG-81.png,0.35,1.2,6,0.25,,,,,,,,,,,,,0,18,18,5,1,,,,,,,,,,,,,,,,,,,,,,,,,,,,
,,,,,SPR24_028,18,Female,2024-04-10_10h55.10.770,jersey_experiment_5_v0,2023.2.2,Win32,84.74576271,,,,,,,,,,,,,,,,696.556,697.85,697.8501,699.8265,return,0.8707,,96.484375,,,,,,FBP-YG-19.png,0.45,1.2,30,0.5,,,,,,,,,,,,,0,19,19,29,1,,,,,,,,,,,,,,,,,,,,,,,,,,,,
,,,,,SPR24_028,18,Female,2024-04-10_10h55.10.770,jersey_experiment_5_v0,2023.2.2,Win32,84.74576271,,,,,,,,,,,,,,,,699.8268,700.8733,700.8734,702.6736,return,0.674,,75.13020833,,,,,,FBP-OG-71.png,0.4,1.2,3,0.25,,,,,,,,,,,,,0,20,20,2,1,,,,,,,,,,,,,,,,,,,,,,,,,,,,
,,,,,SPR24_028,18,Female,2024-04-10_10h55.10.770,jersey_experiment_5_v0,2023.2.2,Win32,84.74576271,,,,,,,,,,,,,,,,702.6738,703.7205,703.7206,705.5795,return,1.2147,,75.26041667,,,,,,FBP-OG-91.png,0.4,1.2,13,0.25,,,,,,,,,,,,,0,21,21,12,1,,,,,,,,,,,,,,,,,,,,,,,,,,,,
,,,,,SPR24_028,18,Female,2024-04-10_10h55.10.770,jersey_experiment_5_v0,2023.2.2,Win32,84.74576271,,,,,,,,,,,,,,,,705.5798,706.6266,706.6266,708.3209,return,0.7444,,91.92708333,,,,,,FBP-OG-91.png,0.45,1.2,15,0.25,,,,,,,,,,,,,0,22,22,14,1,,,,,,,,,,,,,,,,,,,,,,,,,,,,
,,,,,SPR24_028,18,Female,2024-04-10_10h55.10.770,jersey_experiment_5_v0,2023.2.2,Win32,84.74576271,,,,,,,,,,,,,,,,708.3212,709.3679,709.3679,712.1444,return,0.6122,,50.390625,,,,,,FBP-OG-81.png,0.37,1.2,7,0.25,,,,,,,,,,,,,0,23,23,6,1,,,,,,,,,,,,,,,,,,,,,,,,,,,,
,,,,,SPR24_028,18,Female,2024-04-10_10h55.10.770,jersey_experiment_5_v0,2023.2.2,Win32,84.74576271,,,,,,,,,,,,,,,,712.1447,713.4386,713.4386,715.0035,return,0.9201,,50.390625,,,,,,FBP-PT-17.png,0.4,1.2,48,0.5,,,,,,,,,,,,,0,24,24,47,1,,,,,,,,,,,,,,,,,,,,,,,,,,,,
,,,,,SPR24_028,18,Female,2024-04-10_10h55.10.770,jersey_experiment_5_v0,2023.2.2,Win32,84.74576271,,,,,,,,,,,,,,,,715.0038,716.0505,716.0506,719.8389,return,0.8103,,24.609375,,,,,,FBP-RB-17.png,0.35,1.2,31,0.25,,,,,,,,,,,,,0,25,25,30,1,,,,,,,,,,,,,,,,,,,,,,,,,,,,
,,,,,SPR24_028,18,Female,2024-04-10_10h55.10.770,jersey_experiment_5_v0,2023.2.2,Win32,84.74576271,,,,,,,,,,,,,,,,719.8391,721.133,721.1331,723.3568,return,0.7214,,90.75520833,,,,,,FBP-PT-19.png,0.45,1.2,60,0.5,,,,,,,,,,,,,0,26,26,59,1,,,,,,,,,,,,,,,,,,,,,,,,,,,,
,,,,,SPR24_028,18,Female,2024-04-10_10h55.10.770,jersey_experiment_5_v0,2023.2.2,Win32,84.74576271,,,,,,,,,,,,,,,,723.357,724.651,724.651,727.8157,return,2.653,,95.83333333,,,,,,FBP-PT-17.png,0.45,1.2,50,0.5,,,,,,,,,,,,,0,27,27,49,1,,,,,,,,,,,,,,,,,,,,,,,,,,,,
,,,,,SPR24_028,18,Female,2024-04-10_10h55.10.770,jersey_experiment_5_v0,2023.2.2,Win32,84.74576271,,,,,,,,,,,,,,,,727.8159,729.11,729.11,730.9569,return,0.9096,,69.66145833,,,,,,FBP-PT-19.png,0.4,1.2,58,0.5,,,,,,,,,,,,,0,28,28,57,1,,,,,,,,,,,,,,,,,,,,,,,,,,,,
,,,,,SPR24_028,18,Female,2024-04-10_10h55.10.770,jersey_experiment_5_v0,2023.2.2,Win32,84.74576271,,,,,,,,,,,,,,,,730.9572,732.2514,732.2515,733.6277,return,0.7346,,27.734375,,,,,,FBP-PT-18.png,0.35,1.2,51,0.5,,,,,,,,,,,,,0,29,29,50,1,,,,,,,,,,,,,,,,,,,,,,,,,,,,
,,,,,SPR24_028,18,Female,2024-04-10_10h55.10.770,jersey_experiment_5_v0,2023.2.2,Win32,84.74576271,,,,,,,,,,,,,,,,733.6278,734.6748,734.6749,736.4278,return,0.9458,,24.21875,,,,,,FBP-RB-19.png,0.35,1.2,41,0.25,,,,,,,,,,,,,0,30,30,40,1,,,,,,,,,,,,,,,,,,,,,,,,,,,,
,,,,,SPR24_028,18,Female,2024-04-10_10h55.10.770,jersey_experiment_5_v0,2023.2.2,Win32,84.74576271,,,,,,,,,,,,,,,,736.4279,737.7218,737.7219,740.1104,return,0.7771,,48.828125,,,,,,FBP-YG-17.png,0.37,1.2,17,0.5,,,,,,,,,,,,,0,31,31,16,1,,,,,,,,,,,,,,,,,,,,,,,,,,,,
,,,,,SPR24_028,18,Female,2024-04-10_10h55.10.770,jersey_experiment_5_v0,2023.2.2,Win32,84.74576271,,,,,,,,,,,,,,,,740.1106,741.4047,741.4047,744.1929,return,1.9151,,85.02604167,,,,,,FBP-YG-18.png,0.45,1.2,25,0.5,,,,,,,,,,,,,0,32,32,24,1,,,,,,,,,,,,,,,,,,,,,,,,,,,,
,,,,,SPR24_028,18,Female,2024-04-10_10h55.10.770,jersey_experiment_5_v0,2023.2.2,Win32,84.74576271,,,,,,,,,,,,,,,,744.1931,745.2399,745.2399,747.0636,return,0.7716,,89.84375,,,,,,FBP-OG-91.png,0.43,1.2,14,0.25,,,,,,,,,,,,,0,33,33,13,1,,,,,,,,,,,,,,,,,,,,,,,,,,,,
,,,,,SPR24_028,18,Female,2024-04-10_10h55.10.770,jersey_experiment_5_v0,2023.2.2,Win32,84.74576271,,,,,,,,,,,,,,,,747.0637,748.3576,748.3576,749.6755,return,0.6261,,94.79166667,,,,,,FBP-PT-18.png,0.43,1.2,54,0.5,,,,,,,,,,,,,0,34,34,53,1,,,,,,,,,,,,,,,,,,,,,,,,,,,,
,,,,,SPR24_028,18,Female,2024-04-10_10h55.10.770,jersey_experiment_5_v0,2023.2.2,Win32,84.74576271,,,,,,,,,,,,,,,,749.6756,750.7225,750.7225,752.3932,return,0.6408,,35.546875,,,,,,FBP-OG-91.png,0.37,1.2,12,0.25,,,,,,,,,,,,,0,35,35,11,1,,,,,,,,,,,,,,,,,,,,,,,,,,,,
,,,,,SPR24_028,18,Female,2024-04-10_10h55.10.770,jersey_experiment_5_v0,2023.2.2,Win32,84.74576271,,,,,,,,,,,,,,,,752.3935,753.4403,753.4403,755.1813,return,0.7092,,66.92708333,,,,,,FBP-OG-81.png,0.43,1.2,9,0.25,,,,,,,,,,,,,0,36,36,8,1,,,,,,,,,,,,,,,,,,,,,,,,,,,,
,,,,,SPR24_028,18,Female,2024-04-10_10h55.10.770,jersey_experiment_5_v0,2023.2.2,Win32,84.74576271,,,,,,,,,,,,,,,,755.1816,756.4758,756.4758,758.0757,return,0.7106,,87.23958333,,,,,,FBP-YG-17.png,0.45,1.2,20,0.5,,,,,,,,,,,,,0,37,37,19,1,,,,,,,,,,,,,,,,,,,,,,,,,,,,
,,,,,SPR24_028,18,Female,2024-04-10_10h55.10.770,jersey_experiment_5_v0,2023.2.2,Win32,84.74576271,,,,,,,,,,,,,,,,758.0759,759.3698,759.3698,761.0523,return,0.7311,,35.28645833,,,,,,FBP-YG-18.png,0.37,1.2,22,0.5,,,,,,,,,,,,,0,38,38,21,1,,,,,,,,,,,,,,,,,,,,,,,,,,,,
,,,,,SPR24_028,18,Female,2024-04-10_10h55.10.770,jersey_experiment_5_v0,2023.2.2,Win32,84.74576271,,,,,,,,,,,,,,,,761.0525,762.0993,762.0993,763.4406,return,0.6208,,25.390625,,,,,,FBP-OG-71.png,0.35,1.2,1,0.25,,,,,,,,,,,,,0,39,39,0,1,,,,,,,,,,,,,,,,,,,,,,,,,,,,
,,,,,SPR24_028,18,Female,2024-04-10_10h55.10.770,jersey_experiment_5_v0,2023.2.2,Win32,84.74576271,,,,,,,,,,,,,,,,763.4408,764.7346,764.7347,766.2054,return,0.5325,,72.78645833,,,,,,FBP-YG-18.png,0.43,1.2,24,0.5,,,,,,,,,,,,,0,40,40,23,1,,,,,,,,,,,,,,,,,,,,,,,,,,,,
,,,,,SPR24_028,18,Female,2024-04-10_10h55.10.770,jersey_experiment_5_v0,2023.2.2,Win32,84.74576271,,,,,,,,,,,,,,,,766.2057,767.4997,767.4998,768.9585,return,0.6974,,58.33333333,,,,,,FBP-YG-19.png,0.37,1.2,27,0.5,,,,,,,,,,,,,0,41,41,26,1,,,,,,,,,,,,,,,,,,,,,,,,,,,,
,,,,,SPR24_028,18,Female,2024-04-10_10h55.10.770,jersey_experiment_5_v0,2023.2.2,Win32,84.74576271,,,,,,,,,,,,,,,,768.9587,770.2529,770.2529,771.6762,return,0.6491,,33.07291667,,,,,,FBP-YG-17.png,0.35,1.2,16,0.5,,,,,,,,,,,,,0,42,42,15,1,,,,,,,,,,,,,,,,,,,,,,,,,,,,
,,,,,SPR24_028,18,Female,2024-04-10_10h55.10.770,jersey_experiment_5_v0,2023.2.2,Win32,84.74576271,,,,,,,,,,,,,,,,771.6765,772.9703,772.9703,774.5704,return,0.6974,,65.625,,,,,,FBP-YG-17.png,0.4,1.2,18,0.5,,,,,,,,,,,,,0,43,43,17,1,,,,,,,,,,,,,,,,,,,,,,,,,,,,
,,,,,SPR24_028,18,Female,2024-04-10_10h55.10.770,jersey_experiment_5_v0,2023.2.2,Win32,84.74576271,,,,,,,,,,,,,,,,774.5707,775.6175,775.6175,777.9352,return,1.2339,,61.84895833,,,,,,FBP-RB-19.png,0.37,1.2,42,0.25,,,,,,,,,,,,,0,44,44,41,1,,,,,,,,,,,,,,,,,,,,,,,,,,,,
,,,,,SPR24_028,18,Female,2024-04-10_10h55.10.770,jersey_experiment_5_v0,2023.2.2,Win32,84.74576271,,,,,,,,,,,,,,,,777.9355,778.9824,778.9824,781.5119,return,0.8321,,50.52083333,,,,,,FBP-RB-18.png,0.35,1.2,36,0.25,,,,,,,,,,,,,0,45,45,35,1,,,,,,,,,,,,,,,,,,,,,,,,,,,,
,,,,,SPR24_028,18,Female,2024-04-10_10h55.10.770,jersey_experiment_5_v0,2023.2.2,Win32,84.74576271,,,,,,,,,,,,,,,,781.5122,782.8063,782.8063,784.3944,return,0.7709,,27.734375,,,,,,FBP-YG-19.png,0.35,1.2,26,0.5,,,,,,,,,,,,,0,46,46,25,1,,,,,,,,,,,,,,,,,,,,,,,,,,,,
,,,,,SPR24_028,18,Female,2024-04-10_10h55.10.770,jersey_experiment_5_v0,2023.2.2,Win32,84.74576271,,,,,,,,,,,,,,,,784.3947,785.4413,785.4413,787.2651,return,0.6824,,64.97395833,,,,,,FBP-RB-19.png,0.4,1.2,43,0.25,,,,,,,,,,,,,0,47,47,42,1,,,,,,,,,,,,,,,,,,,,,,,,,,,,
,,,,,SPR24_028,18,Female,2024-04-10_10h55.10.770,jersey_experiment_5_v0,2023.2.2,Win32,84.74576271,,,,,,,,,,,,,,,,787.2654,788.3121,788.3121,789.7122,return,0.7676,,66.66666667,,,,,,FBP-RB-17.png,0.37,1.2,32,0.25,,,,,,,,,,,,,0,48,48,31,1,,,,,,,,,,,,,,,,,,,,,,,,,,,,
,,,,,SPR24_028,18,Female,2024-04-10_10h55.10.770,jersey_experiment_5_v0,2023.2.2,Win32,84.74576271,,,,,,,,,,,,,,,,789.7124,791.0063,791.0064,792.6887,return,0.6916,,75.78125,,,,,,FBP-YG-18.png,0.4,1.2,23,0.5,,,,,,,,,,,,,0,49,49,22,1,,,,,,,,,,,,,,,,,,,,,,,,,,,,
,,,,,SPR24_028,18,Female,2024-04-10_10h55.10.770,jersey_experiment_5_v0,2023.2.2,Win32,84.74576271,,,,,,,,,,,,,,,,792.689,793.9829,793.9829,795.2419,return,0.6164,,86.45833333,,,,,,FBP-YG-17.png,0.43,1.2,19,0.5,,,,,,,,,,,,,0,50,50,18,1,,,,,,,,,,,,,,,,,,,,,,,,,,,,
,,,,,SPR24_028,18,Female,2024-04-10_10h55.10.770,jersey_experiment_5_v0,2023.2.2,Win32,84.74576271,,,,,,,,,,,,,,,,795.2422,796.5361,796.5361,798.2065,return,0.791,,95.05208333,,,,,,FBP-PT-19.png,0.43,1.2,59,0.5,,,,,,,,,,,,,0,51,51,58,1,,,,,,,,,,,,,,,,,,,,,,,,,,,,
,,,,,SPR24_028,18,Female,2024-04-10_10h55.10.770,jersey_experiment_5_v0,2023.2.2,Win32,84.74576271,,,,,,,,,,,,,,,,798.2068,799.2538,799.2539,800.9597,return,0.613,,98.95833333,,,,,,FBP-RB-19.png,0.43,1.2,44,0.25,,,,,,,,,,,,,0,52,52,43,1,,,,,,,,,,,,,,,,,,,,,,,,,,,,
,,,,,SPR24_028,18,Female,2024-04-10_10h55.10.770,jersey_experiment_5_v0,2023.2.2,Win32,84.74576271,,,,,,,,,,,,,,,,800.96,802.0067,802.0067,805.1364,return,0.8944,,99.47916667,,,,,,FBP-RB-17.png,0.45,1.2,35,0.25,,,,,,,,,,,,,0,53,53,34,1,,,,,,,,,,,,,,,,,,,,,,,,,,,,
,,,,,SPR24_028,18,Female,2024-04-10_10h55.10.770,jersey_experiment_5_v0,2023.2.2,Win32,84.74576271,,,,,,,,,,,,,,,,805.1366,806.1834,806.1835,807.6659,return,0.7909,,99.47916667,,,,,,FBP-RB-17.png,0.43,1.2,34,0.25,,,,,,,,,,,,,0,54,54,33,1,,,,,,,,,,,,,,,,,,,,,,,,,,,,
,,,,,SPR24_028,18,Female,2024-04-10_10h55.10.770,jersey_experiment_5_v0,2023.2.2,Win32,84.74576271,,,,,,,,,,,,,,,,807.6662,808.7129,808.7129,811.5601,return,0.8883,,49.34895833,,,,,,FBP-RB-18.png,0.37,1.2,37,0.25,,,,,,,,,,,,,0,55,55,36,1,,,,,,,,,,,,,,,,,,,,,,,,,,,,
,,,,,SPR24_028,18,Female,2024-04-10_10h55.10.770,jersey_experiment_5_v0,2023.2.2,Win32,84.74576271,,,,,,,,,,,,,,,,811.5603,812.6072,812.6072,814.7016,return,0.6502,,68.48958333,,,,,,FBP-RB-17.png,0.4,1.2,33,0.25,,,,,,,,,,,,,0,56,56,32,1,,,,,,,,,,,,,,,,,,,,,,,,,,,,
,,,,,SPR24_028,18,Female,2024-04-10_10h55.10.770,jersey_experiment_5_v0,2023.2.2,Win32,84.74576271,,,,,,,,,,,,,,,,814.7018,815.7484,815.7485,818.1605,return,0.9314,,46.875,,,,,,FBP-OG-91.png,0.35,1.2,11,0.25,,,,,,,,,,,,,0,57,57,10,1,,,,,,,,,,,,,,,,,,,,,,,,,,,,
,,,,,SPR24_028,18,Female,2024-04-10_10h55.10.770,jersey_experiment_5_v0,2023.2.2,Win32,84.74576271,,,,,,,,,,,,,,,,818.1608,819.2075,819.2075,821.2663,return,0.7056,,93.359375,,,,,,FBP-RB-18.png,0.45,1.2,40,0.25,,,,,,,,,,,,,0,58,58,39,1,,,,,,,,,,,,,,,,,,,,,,,,,,,,
,,,,,SPR24_028,18,Female,2024-04-10_10h55.10.770,jersey_experiment_5_v0,2023.2.2,Win32,84.74576271,,,,,,,,,,,,,,,,821.2665,822.3134,822.3134,823.937,return,0.6825,,97.265625,,,,,,FBP-OG-71.png,0.43,1.2,4,0.25,,,,,,,,,,,,,0,59,59,3,1,,,,,,,,,,,,,,,,,,,,,,,,,,,,
,,,,,SPR24_028,18,Female,2024-04-10_10h55.10.770,jersey_experiment_5_v0,2023.2.2,Win32,84.74576271,,,,,,,,,,,,,,,,823.9384,824.9842,824.9842,827.0901,return,0.753,,70.18229167,,,,,,FBP-RB-91.png,0.4,1.2,43,0.25,,,,,,,,,,,,,,,,,,0,0,0,42,1,,,,,,,,,,,,,,,,,,,,,,,
,,,,,SPR24_028,18,Female,2024-04-10_10h55.10.770,jersey_experiment_5_v0,2023.2.2,Win32,84.74576271,,,,,,,,,,,,,,,,827.0904,828.1372,828.1372,829.7608,return,0.7524,,67.1875,,,,,,FBP-RB-91.png,0.37,1.2,42,0.25,,,,,,,,,,,,,,,,,,0,1,1,41,1,,,,,,,,,,,,,,,,,,,,,,,
,,,,,SPR24_028,18,Female,2024-04-10_10h55.10.770,jersey_experiment_5_v0,2023.2.2,Win32,84.74576271,,,,,,,,,,,,,,,,829.761,831.055,831.0551,832.4315,return,0.6927,,23.4375,,,,,,FBP-PT-71.png,0.35,1.2,46,0.5,,,,,,,,,,,,,,,,,,0,2,2,45,1,,,,,,,,,,,,,,,,,,,,,,,
,,,,,SPR24_028,18,Female,2024-04-10_10h55.10.770,jersey_experiment_5_v0,2023.2.2,Win32,84.74576271,,,,,,,,,,,,,,,,832.4317,833.7257,833.7257,835.114,return,0.6655,,25,,,,,,FBP-YG-91.png,0.35,1.2,26,0.5,,,,,,,,,,,,,,,,,,0,3,3,25,1,,,,,,,,,,,,,,,,,,,,,,,
,,,,,SPR24_028,18,Female,2024-04-10_10h55.10.770,jersey_experiment_5_v0,2023.2.2,Win32,84.74576271,,,,,,,,,,,,,,,,835.1142,836.1612,836.1612,837.9024,return,0.6031,,97.265625,,,,,,FBP-OG-17.png,0.45,1.2,5,0.25,,,,,,,,,,,,,,,,,,0,4,4,4,1,,,,,,,,,,,,,,,,,,,,,,,
,,,,,SPR24_028,18,Female,2024-04-10_10h55.10.770,jersey_experiment_5_v0,2023.2.2,Win32,84.74576271,,,,,,,,,,,,,,,,837.9027,838.9495,838.9495,840.7613,return,0.6193,,75,,,,,,FBP-RB-81.png,0.4,1.2,38,0.25,,,,,,,,,,,,,,,,,,0,5,5,37,1,,,,,,,,,,,,,,,,,,,,,,,
,,,,,SPR24_028,18,Female,2024-04-10_10h55.10.770,jersey_experiment_5_v0,2023.2.2,Win32,84.74576271,,,,,,,,,,,,,,,,840.7615,842.0554,842.0555,843.4319,return,0.7029,,49.609375,,,,,,FBP-PT-81.png,0.35,1.2,51,0.5,,,,,,,,,,,,,,,,,,0,6,6,50,1,,,,,,,,,,,,,,,,,,,,,,,
,,,,,SPR24_028,18,Female,2024-04-10_10h55.10.770,jersey_experiment_5_v0,2023.2.2,Win32,84.74576271,,,,,,,,,,,,,,,,843.4321,844.7261,844.7261,846.2557,return,0.6599,,61.84895833,,,,,,FBP-YG-91.png,0.37,1.2,27,0.5,,,,,,,,,,,,,,,,,,0,7,7,26,1,,,,,,,,,,,,,,,,,,,,,,,
,,,,,SPR24_028,18,Female,2024-04-10_10h55.10.770,jersey_experiment_5_v0,2023.2.2,Win32,84.74576271,,,,,,,,,,,,,,,,846.2559,847.3026,847.3026,848.938,return,0.6626,,88.41145833,,,,,,FBP-RB-71.png,0.43,1.2,34,0.25,,,,,,,,,,,,,,,,,,0,8,8,33,1,,,,,,,,,,,,,,,,,,,,,,,
,,,,,SPR24_028,18,Female,2024-04-10_10h55.10.770,jersey_experiment_5_v0,2023.2.2,Win32,84.74576271,,,,,,,,,,,,,,,,848.9383,850.2324,850.2325,851.5617,return,0.666,,98.4375,,,,,,FBP-PT-91.png,0.45,1.2,60,0.5,,,,,,,,,,,,,,,,,,0,9,9,59,1,,,,,,,,,,,,,,,,,,,,,,,
,,,,,SPR24_028,18,Female,2024-04-10_10h55.10.770,jersey_experiment_5_v0,2023.2.2,Win32,84.74576271,,,,,,,,,,,,,,,,851.5618,852.6088,852.6088,854.5617,return,0.6594,,36.97916667,,,,,,FBP-RB-71.png,0.35,1.2,31,0.25,,,,,,,,,,,,,,,,,,0,10,10,30,1,,,,,,,,,,,,,,,,,,,,,,,
,,,,,SPR24_028,18,Female,2024-04-10_10h55.10.770,jersey_experiment_5_v0,2023.2.2,Win32,84.74576271,,,,,,,,,,,,,,,,854.562,855.6087,855.6087,858.0443,return,1.0136,,99.08854167,,,,,,FBP-RB-71.png,0.45,1.2,35,0.25,,,,,,,,,,,,,,,,,,0,11,11,34,1,,,,,,,,,,,,,,,,,,,,,,,
,,,,,SPR24_028,18,Female,2024-04-10_10h55.10.770,jersey_experiment_5_v0,2023.2.2,Win32,84.74576271,,,,,,,,,,,,,,,,858.0446,859.0913,859.0914,863.9503,return,3.4833,,51.82291667,,,,,,FBP-RB-81.png,0.37,1.2,37,0.25,,,,,,,,,,,,,,,,,,0,12,12,36,1,,,,,,,,,,,,,,,,,,,,,,,
,,,,,SPR24_028,18,Female,2024-04-10_10h55.10.770,jersey_experiment_5_v0,2023.2.2,Win32,84.74576271,,,,,,,,,,,,,,,,863.9506,865.2447,865.2447,866.8799,return,0.5981,,65.234375,,,,,,FBP-PT-71.png,0.4,1.2,48,0.5,,,,,,,,,,,,,,,,,,0,13,13,47,1,,,,,,,,,,,,,,,,,,,,,,,
,,,,,SPR24_028,18,Female,2024-04-10_10h55.10.770,jersey_experiment_5_v0,2023.2.2,Win32,84.74576271,,,,,,,,,,,,,,,,866.8802,868.1741,868.1741,869.5624,return,0.6747,,62.109375,,,,,,FBP-PT-91.png,0.4,1.2,58,0.5,,,,,,,,,,,,,,,,,,0,14,14,57,1,,,,,,,,,,,,,,,,,,,,,,,
,,,,,SPR24_028,18,Female,2024-04-10_10h55.10.770,jersey_experiment_5_v0,2023.2.2,Win32,84.74576271,,,,,,,,,,,,,,,,869.5626,870.6096,870.6097,872.1035,return,0.6682,,74.08854167,,,,,,FBP-OG-18.png,0.43,1.2,9,0.25,,,,,,,,,,,,,,,,,,0,15,15,8,1,,,,,,,,,,,,,,,,,,,,,,,
,,,,,SPR24_028,18,Female,2024-04-10_10h55.10.770,jersey_experiment_5_v0,2023.2.2,Win32,84.74576271,,,,,,,,,,,,,,,,872.1038,873.1507,873.1508,874.4565,return,0.5962,,84.89583333,,,,,,FBP-OG-18.png,0.45,1.2,10,0.25,,,,,,,,,,,,,,,,,,0,16,16,9,1,,,,,,,,,,,,,,,,,,,,,,,
,,,,,SPR24_028,18,Female,2024-04-10_10h55.10.770,jersey_experiment_5_v0,2023.2.2,Win32,84.74576271,,,,,,,,,,,,,,,,874.4568,875.5037,875.5038,877.5627,return,0.6178,,50.13020833,,,,,,FBP-RB-81.png,0.35,1.2,36,0.25,,,,,,,,,,,,,,,,,,0,17,17,35,1,,,,,,,,,,,,,,,,,,,,,,,
,,,,,SPR24_028,18,Female,2024-04-10_10h55.10.770,jersey_experiment_5_v0,2023.2.2,Win32,84.74576271,,,,,,,,,,,,,,,,877.563,878.6098,878.6098,880.1745,return,0.5533,,68.22916667,,,,,,FBP-OG-17.png,0.4,1.2,3,0.25,,,,,,,,,,,,,,,,,,0,18,18,2,1,,,,,,,,,,,,,,,,,,,,,,,
,,,,,SPR24_028,18,Female,2024-04-10_10h55.10.770,jersey_experiment_5_v0,2023.2.2,Win32,84.74576271,,,,,,,,,,,,,,,,880.1747,881.4687,881.4687,882.6335,return,0.6171,,83.203125,,,,,,FBP-PT-91.png,0.43,1.2,59,0.5,,,,,,,,,,,,,,,,,,0,19,19,58,1,,,,,,,,,,,,,,,,,,,,,,,
,,,,,SPR24_028,18,Female,2024-04-10_10h55.10.770,jersey_experiment_5_v0,2023.2.2,Win32,84.74576271,,,,,,,,,,,,,,,,882.6338,883.9277,883.9277,885.3865,return,0.6151,,49.08854167,,,,,,FBP-YG-81.png,0.35,1.2,21,0.5,,,,,,,,,,,,,,,,,,0,20,20,20,1,,,,,,,,,,,,,,,,,,,,,,,
,,,,,SPR24_028,18,Female,2024-04-10_10h55.10.770,jersey_experiment_5_v0,2023.2.2,Win32,84.74576271,,,,,,,,,,,,,,,,885.3866,886.6807,886.6807,888.0808,return,0.6214,,39.32291667,,,,,,FBP-YG-71.png,0.35,1.2,16,0.5,,,,,,,,,,,,,,,,,,0,21,21,15,1,,,,,,,,,,,,,,,,,,,,,,,
,,,,,SPR24_028,18,Female,2024-04-10_10h55.10.770,jersey_experiment_5_v0,2023.2.2,Win32,84.74576271,,,,,,,,,,,,,,,,888.0809,889.1278,889.1278,891.2574,return,0.7928,,75.26041667,,,,,,FBP-RB-91.png,0.43,1.2,44,0.25,,,,,,,,,,,,,,,,,,0,22,22,43,1,,,,,,,,,,,,,,,,,,,,,,,
,,,,,SPR24_028,18,Female,2024-04-10_10h55.10.770,jersey_experiment_5_v0,2023.2.2,Win32,84.74576271,,,,,,,,,,,,,,,,891.2577,892.3046,892.3047,893.834,return,0.6399,,95.3125,,,,,,FBP-RB-81.png,0.45,1.2,40,0.25,,,,,,,,,,,,,,,,,,0,23,23,39,1,,,,,,,,,,,,,,,,,,,,,,,
,,,,,SPR24_028,18,Female,2024-04-10_10h55.10.770,jersey_experiment_5_v0,2023.2.2,Win32,84.74576271,,,,,,,,,,,,,,,,893.8342,895.1281,895.1282,896.434,return,0.7389,,97.265625,,,,,,FBP-PT-81.png,0.43,1.2,54,0.5,,,,,,,,,,,,,,,,,,0,24,24,53,1,,,,,,,,,,,,,,,,,,,,,,,
,,,,,SPR24_028,18,Female,2024-04-10_10h55.10.770,jersey_experiment_5_v0,2023.2.2,Win32,84.74576271,,,,,,,,,,,,,,,,896.4343,897.481,897.481,899.7283,return,0.9652,,98.69791667,,,,,,FBP-RB-81.png,0.43,1.2,39,0.25,,,,,,,,,,,,,,,,,,0,25,25,38,1,,,,,,,,,,,,,,,,,,,,,,,
,,,,,SPR24_028,18,Female,2024-04-10_10h55.10.770,jersey_experiment_5_v0,2023.2.2,Win32,84.74576271,,,,,,,,,,,,,,,,899.7285,901.0223,901.0223,902.5519,return,0.6765,,40.234375,,,,,,FBP-PT-91.png,0.35,1.2,56,0.5,,,,,,,,,,,,,,,,,,0,26,26,55,1,,,,,,,,,,,,,,,,,,,,,,,
,,,,,SPR24_028,18,Female,2024-04-10_10h55.10.770,jersey_experiment_5_v0,2023.2.2,Win32,84.74576271,,,,,,,,,,,,,,,,902.552,903.8459,903.8459,905.3284,return,0.6593,,54.16666667,,,,,,FBP-YG-71.png,0.4,1.2,18,0.5,,,,,,,,,,,,,,,,,,0,27,27,17,1,,,,,,,,,,,,,,,,,,,,,,,
,,,,,SPR24_028,18,Female,2024-04-10_10h55.10.770,jersey_experiment_5_v0,2023.2.2,Win32,84.74576271,,,,,,,,,,,,,,,,905.3286,906.6225,906.6225,908.0932,return,0.7305,,77.86458333,,,,,,FBP-YG-81.png,0.43,1.2,24,0.5,,,,,,,,,,,,,,,,,,0,28,28,23,1,,,,,,,,,,,,,,,,,,,,,,,
,,,,,SPR24_028,18,Female,2024-04-10_10h55.10.770,jersey_experiment_5_v0,2023.2.2,Win32,84.74576271,,,,,,,,,,,,,,,,908.0934,909.3875,909.3875,910.7168,return,0.7433,,94.140625,,,,,,FBP-YG-81.png,0.45,1.2,25,0.5,,,,,,,,,,,,,,,,,,0,29,29,24,1,,,,,,,,,,,,,,,,,,,,,,,
,,,,,SPR24_028,18,Female,2024-04-10_10h55.10.770,jersey_experiment_5_v0,2023.2.2,Win32,84.74576271,,,,,,,,,,,,,,,,910.7171,911.7639,911.7639,913.4583,return,0.7059,,97.265625,,,,,,FBP-OG-19.png,0.45,1.2,15,0.25,,,,,,,,,,,,,,,,,,0,30,30,14,1,,,,,,,,,,,,,,,,,,,,,,,
,,,,,SPR24_028,18,Female,2024-04-10_10h55.10.770,jersey_experiment_5_v0,2023.2.2,Win32,84.74576271,,,,,,,,,,,,,,,,913.4586,914.7524,914.7524,917.7407,return,0.8158,,77.08333333,,,,,,FBP-PT-81.png,0.37,1.2,52,0.5,,,,,,,,,,,,,,,,,,0,31,31,51,1,,,,,,,,,,,,,,,,,,,,,,,
,,,,,SPR24_028,18,Female,2024-04-10_10h55.10.770,jersey_experiment_5_v0,2023.2.2,Win32,84.74576271,,,,,,,,,,,,,,,,917.7409,918.7878,918.7879,920.2584,return,0.6268,,87.76041667,,,,,,FBP-OG-17.png,0.43,1.2,4,0.25,,,,,,,,,,,,,,,,,,0,32,32,3,1,,,,,,,,,,,,,,,,,,,,,,,
,,,,,SPR24_028,18,Female,2024-04-10_10h55.10.770,jersey_experiment_5_v0,2023.2.2,Win32,84.74576271,,,,,,,,,,,,,,,,920.2588,921.5527,921.5527,922.929,return,0.7157,,31.77083333,,,,,,FBP-PT-91.png,0.37,1.2,57,0.5,,,,,,,,,,,,,,,,,,0,33,33,56,1,,,,,,,,,,,,,,,,,,,,,,,
,,,,,SPR24_028,18,Female,2024-04-10_10h55.10.770,jersey_experiment_5_v0,2023.2.2,Win32,84.74576271,,,,,,,,,,,,,,,,922.9293,923.9763,923.9763,926.1998,return,1.3032,,32.94270833,,,,,,FBP-RB-71.png,0.37,1.2,32,0.25,,,,,,,,,,,,,,,,,,0,34,34,31,1,,,,,,,,,,,,,,,,,,,,,,,
,,,,,SPR24_028,18,Female,2024-04-10_10h55.10.770,jersey_experiment_5_v0,2023.2.2,Win32,84.74576271,,,,,,,,,,,,,,,,926.2,927.247,927.247,928.9292,return,0.6116,,61.19791667,,,,,,FBP-RB-71.png,0.4,1.2,33,0.25,,,,,,,,,,,,,,,,,,0,35,35,32,1,,,,,,,,,,,,,,,,,,,,,,,
,,,,,SPR24_028,18,Female,2024-04-10_10h55.10.770,jersey_experiment_5_v0,2023.2.2,Win32,84.74576271,,,,,,,,,,,,,,,,928.9295,930.2234,930.2234,932.1765,return,0.6681,,64.0625,,,,,,FBP-YG-91.png,0.4,1.2,28,0.5,,,,,,,,,,,,,,,,,,0,36,36,27,1,,,,,,,,,,,,,,,,,,,,,,,
,,,,,SPR24_028,18,Female,2024-04-10_10h55.10.770,jersey_experiment_5_v0,2023.2.2,Win32,84.74576271,,,,,,,,,,,,,,,,932.1767,933.4707,933.4707,937.0356,return,2.6994,,78.64583333,,,,,,FBP-YG-71.png,0.43,1.2,19,0.5,,,,,,,,,,,,,,,,,,0,37,37,18,1,,,,,,,,,,,,,,,,,,,,,,,
,,,,,SPR24_028,18,Female,2024-04-10_10h55.10.770,jersey_experiment_5_v0,2023.2.2,Win32,84.74576271,,,,,,,,,,,,,,,,937.0358,938.3297,938.3298,940.3063,return,0.7763,,50.52083333,,,,,,FBP-YG-81.png,0.37,1.2,22,0.5,,,,,,,,,,,,,,,,,,0,38,38,21,1,,,,,,,,,,,,,,,,,,,,,,,
,,,,,SPR24_028,18,Female,2024-04-10_10h55.10.770,jersey_experiment_5_v0,2023.2.2,Win32,84.74576271,,,,,,,,,,,,,,,,940.3066,941.6005,941.6005,943.071,return,0.6605,,81.51041667,,,,,,FBP-YG-91.png,0.43,1.2,29,0.5,,,,,,,,,,,,,,,,,,0,39,39,28,1,,,,,,,,,,,,,,,,,,,,,,,
,,,,,SPR24_028,18,Female,2024-04-10_10h55.10.770,jersey_experiment_5_v0,2023.2.2,Win32,84.74576271,,,,,,,,,,,,,,,,943.0713,944.1182,944.1183,945.377,return,0.621,,88.15104167,,,,,,FBP-RB-91.png,0.45,1.2,45,0.25,,,,,,,,,,,,,,,,,,0,40,40,44,1,,,,,,,,,,,,,,,,,,,,,,,
,,,,,SPR24_028,18,Female,2024-04-10_10h55.10.770,jersey_experiment_5_v0,2023.2.2,Win32,84.74576271,,,,,,,,,,,,,,,,945.3773,946.4242,946.4242,949.2243,return,0.8203,,50.78125,,,,,,FBP-OG-17.png,0.37,1.2,2,0.25,,,,,,,,,,,,,,,,,,0,41,41,1,1,,,,,,,,,,,,,,,,,,,,,,,
,,,,,SPR24_028,18,Female,2024-04-10_10h55.10.770,jersey_experiment_5_v0,2023.2.2,Win32,84.74576271,,,,,,,,,,,,,,,,949.2246,950.2715,950.2715,952.1421,return,0.7207,,64.97395833,,,,,,FBP-OG-18.png,0.4,1.2,8,0.25,,,,,,,,,,,,,,,,,,0,42,42,7,1,,,,,,,,,,,,,,,,,,,,,,,
,,,,,SPR24_028,18,Female,2024-04-10_10h55.10.770,jersey_experiment_5_v0,2023.2.2,Win32,84.74576271,,,,,,,,,,,,,,,,952.1424,953.1891,953.1892,955.2127,return,0.6866,,26.171875,,,,,,FBP-OG-17.png,0.35,1.2,1,0.25,,,,,,,,,,,,,,,,,,0,43,43,0,1,,,,,,,,,,,,,,,,,,,,,,,
,,,,,SPR24_028,18,Female,2024-04-10_10h55.10.770,jersey_experiment_5_v0,2023.2.2,Win32,84.74576271,,,,,,,,,,,,,,,,955.2129,956.2598,956.2598,957.7541,return,0.8161,,25.65104167,,,,,,FBP-OG-18.png,0.35,1.2,6,0.25,,,,,,,,,,,,,,,,,,0,44,44,5,1,,,,,,,,,,,,,,,,,,,,,,,
,,,,,SPR24_028,18,Female,2024-04-10_10h55.10.770,jersey_experiment_5_v0,2023.2.2,Win32,84.74576271,,,,,,,,,,,,,,,,957.7543,959.0481,959.0481,960.6835,return,0.6524,,55.98958333,,,,,,FBP-PT-81.png,0.4,1.2,53,0.5,,,,,,,,,,,,,,,,,,0,45,45,52,1,,,,,,,,,,,,,,,,,,,,,,,
,,,,,SPR24_028,18,Female,2024-04-10_10h55.10.770,jersey_experiment_5_v0,2023.2.2,Win32,84.74576271,,,,,,,,,,,,,,,,960.6838,961.9777,961.9777,964.2838,return,1.1937,,84.375,,,,,,FBP-PT-71.png,0.45,1.2,50,0.5,,,,,,,,,,,,,,,,,,0,46,46,49,1,,,,,,,,,,,,,,,,,,,,,,,
,,,,,SPR24_028,18,Female,2024-04-10_10h55.10.770,jersey_experiment_5_v0,2023.2.2,Win32,84.74576271,,,,,,,,,,,,,,,,964.284,965.3306,965.3307,968.4252,return,0.6875,,52.86458333,,,,,,FBP-OG-19.png,0.37,1.2,12,0.25,,,,,,,,,,,,,,,,,,0,47,47,11,1,,,,,,,,,,,,,,,,,,,,,,,
,,,,,SPR24_028,18,Female,2024-04-10_10h55.10.770,jersey_experiment_5_v0,2023.2.2,Win32,84.74576271,,,,,,,,,,,,,,,,968.4254,969.472,969.4721,971.0485,return,0.7464,,39.453125,,,,,,FBP-RB-91.png,0.35,1.2,41,0.25,,,,,,,,,,,,,,,,,,0,48,48,40,1,,,,,,,,,,,,,,,,,,,,,,,
,,,,,SPR24_028,18,Female,2024-04-10_10h55.10.770,jersey_experiment_5_v0,2023.2.2,Win32,84.74576271,,,,,,,,,,,,,,,,971.0489,972.3427,972.3427,973.7899,return,0.6026,,25,,,,,,FBP-YG-71.png,0.37,1.2,17,0.5,,,,,,,,,,,,,,,,,,0,49,49,16,1,,,,,,,,,,,,,,,,,,,,,,,
,,,,,SPR24_028,18,Female,2024-04-10_10h55.10.770,jersey_experiment_5_v0,2023.2.2,Win32,84.74576271,,,,,,,,,,,,,,,,973.7901,975.0839,975.084,977.0843,return,0.7694,,55.46875,,,,,,FBP-PT-71.png,0.37,1.2,47,0.5,,,,,,,,,,,,,,,,,,0,50,50,46,1,,,,,,,,,,,,,,,,,,,,,,,
,,,,,SPR24_028,18,Female,2024-04-10_10h55.10.770,jersey_experiment_5_v0,2023.2.2,Win32,84.74576271,,,,,,,,,,,,,,,,977.0845,978.1312,978.1312,979.6491,return,0.659,,35.15625,,,,,,FBP-OG-19.png,0.35,1.2,11,0.25,,,,,,,,,,,,,,,,,,0,51,51,10,1,,,,,,,,,,,,,,,,,,,,,,,
,,,,,SPR24_028,18,Female,2024-04-10_10h55.10.770,jersey_experiment_5_v0,2023.2.2,Win32,84.74576271,,,,,,,,,,,,,,,,979.6494,980.696,980.696,982.2373,return,0.6739,,55.859375,,,,,,FBP-OG-18.png,0.37,1.2,7,0.25,,,,,,,,,,,,,,,,,,0,52,52,6,1,,,,,,,,,,,,,,,,,,,,,,,
,,,,,SPR24_028,18,Female,2024-04-10_10h55.10.770,jersey_experiment_5_v0,2023.2.2,Win32,84.74576271,,,,,,,,,,,,,,,,982.2376,983.2843,983.2844,984.9079,return,0.6965,,85.9375,,,,,,FBP-OG-19.png,0.4,1.2,13,0.25,,,,,,,,,,,,,,,,,,0,53,53,12,1,,,,,,,,,,,,,,,,,,,,,,,
,,,,,SPR24_028,18,Female,2024-04-10_10h55.10.770,jersey_experiment_5_v0,2023.2.2,Win32,84.74576271,,,,,,,,,,,,,,,,984.9081,986.2021,986.2021,987.6728,return,0.7493,,97.265625,,,,,,FBP-YG-71.png,0.45,1.2,20,0.5,,,,,,,,,,,,,,,,,,0,54,54,19,1,,,,,,,,,,,,,,,,,,,,,,,
,,,,,SPR24_028,18,Female,2024-04-10_10h55.10.770,jersey_experiment_5_v0,2023.2.2,Win32,84.74576271,,,,,,,,,,,,,,,,987.673,988.967,988.967,991.4377,return,1.0031,,81.38020833,,,,,,FBP-YG-81.png,0.4,1.2,23,0.5,,,,,,,,,,,,,,,,,,0,55,55,22,1,,,,,,,,,,,,,,,,,,,,,,,
,,,,,SPR24_028,18,Female,2024-04-10_10h55.10.770,jersey_experiment_5_v0,2023.2.2,Win32,84.74576271,,,,,,,,,,,,,,,,991.4379,992.7318,992.7319,995.6496,return,1.2946,,79.296875,,,,,,FBP-PT-71.png,0.43,1.2,49,0.5,,,,,,,,,,,,,,,,,,0,56,56,48,1,,,,,,,,,,,,,,,,,,,,,,,
,,,,,SPR24_028,18,Female,2024-04-10_10h55.10.770,jersey_experiment_5_v0,2023.2.2,Win32,84.74576271,,,,,,,,,,,,,,,,995.6499,996.6965,996.6966,997.9438,return,0.6299,,79.55729167,,,,,,FBP-OG-19.png,0.43,1.2,14,0.25,,,,,,,,,,,,,,,,,,0,57,57,13,1,,,,,,,,,,,,,,,,,,,,,,,
,,,,,SPR24_028,18,Female,2024-04-10_10h55.10.770,jersey_experiment_5_v0,2023.2.2,Win32,84.74576271,,,,,,,,,,,,,,,,997.944,999.2379,999.238,1000.332,return,0.5903,,92.31770833,,,,,,FBP-PT-81.png,0.45,1.2,55,0.5,,,,,,,,,,,,,,,,,,0,58,58,54,1,,,,,,,,,,,,,,,,,,,,,,,
,,,,,SPR24_028,18,Female,2024-04-10_10h55.10.770,jersey_experiment_5_v0,2023.2.2,Win32,84.74576271,,,,,,,,,,,,,,,,1000.3322,1001.6261,1001.6262,1002.8734,return,0.6784,,97.00520833,,,,,,FBP-YG-91.png,0.45,1.2,30,0.5,,,,,,,,,,,,,,,,,,0,59,59,29,1,,,,,,,,,,,,,,,,,,,,,,,
,,,,,SPR24_028,18,Female,2024-04-10_10h55.10.770,jersey_experiment_5_v0,2023.2.2,Win32,84.74576271,,,,,,,,,,,,,,,,,,,,,,,,,,,,,,,,,,,,,,,,,,,,,,,,,,,,,,,,1002.8738,1010.2388,return,7.3547,,,,,,,,,,,,,,,,,,,
,,,,,SPR24_028,18,Female,2024-04-10_10h55.10.770,jersey_experiment_5_v0,2023.2.2,Win32,84.74576271,,,,,,,,,,,,,,,,,,,,,,,,,,,,,,,,,,,,,,,,,,,,,,,,,,,,,,,,,,,,,1010.2388,1019.1801,1,7.0123,return,1.9077,,,,,,,,,,,,
,,,,,SPR24_028,18,Female,2024-04-10_10h55.10.770,jersey_experiment_5_v0,2023.2.2,Win32,84.74576271,,,,,,,,,,,,,,,,,,,,,,,,,,,,,,,,,,,,,,,,,,,,,,,,,,,,,,,,,,,,,,,,,,,,1019.1802,1175.3922,Not really sure but possibly about skin color and weight or if your seeing lots of either heavier or lighter people how that effects your interpretation when it changes to someone on opposite weight side.,right,138.1623,,,,,,
,,,,,SPR24_028,18,Female,2024-04-10_10h55.10.770,jersey_experiment_5_v0,2023.2.2,Win32,84.74576271,,,,,,,,,,,,,,,,,,,,,,,,,,,,,,,,,,,,,,,,,,,,,,,,,,,,,,,,,,,,,,,,,,,,,,,,,,1175.3923,1180.5159,return,5.1097,