requirements.started,requirements.stopped,key_resp_3.keys,key_resp_3.rt,key_resp_3.duration,Subject ID,Age,Gender,date,expName,psychopyVersion,OS,frameRate,instructions1.started,instructions1.stopped,key_resp.keys,key_resp.rt,key_resp.duration,example.started,example.stopped,enter_2.keys,enter_2.rt,enter_2.duration,instructions2.started,instructions2.stopped,enter_3.keys,enter_3.rt,enter_3.duration,image.started,image.stopped,slider_2.started,slider_2.stopped,next.keys,next.rt,next.duration,slider.response,trial_block_1.thisRepN,trial_block_1.thisTrialN,trial_block_1.thisN,trial_block_1.thisIndex,trial_block_1.ran,Path,Width,Height,Index,Duration,trial_block_2.thisRepN,trial_block_2.thisTrialN,trial_block_2.thisN,trial_block_2.thisIndex,trial_block_2.ran,rest_break.started,rest_break.stopped,end_break.started,end_break.stopped,key_resp_5.keys,key_resp_5.rt,key_resp_5.duration,trial_block_3.thisRepN,trial_block_3.thisTrialN,trial_block_3.thisN,trial_block_3.thisIndex,trial_block_3.ran,trial_block_4.thisRepN,trial_block_4.thisTrialN,trial_block_4.thisN,trial_block_4.thisIndex,trial_block_4.ran,questions_intro.started,questions_intro.stopped,enter_12.keys,enter_12.rt,enter_12.duration,question2.started,question2.stopped,question_doingbest.response,question_doingbest.rt,enter_15.keys,enter_15.rt,enter_15.duration,pattern.started,pattern.stopped,pattern_2.text,enter_17.keys,enter_17.rt,enter_17.duration,thankyou.started,thankyou.stopped,enter_14.keys,enter_14.rt,enter_14.duration
0,13.9318,return,13.9209,,SPR24_003,19,Male,2024-04-03_11h13.54.155,jersey_experiment_5_v0,2023.2.2,Win32,84.74576271,,,,,,,,,,,,,,,,,,,,,,,,,,,,,,,,,,,,,,,,,,,,,,,,,,,,,,,,,,,,,,,,,,,,,,,,,,,,,,
,,,,,SPR24_003,19,Male,2024-04-03_11h13.54.155,jersey_experiment_5_v0,2023.2.2,Win32,84.74576271,13.932,25.5555,return,11.6005,,,,,,,,,,,,,,,,,,,,,,,,,,,,,,,,,,,,,,,,,,,,,,,,,,,,,,,,,,,,,,,,,,,,,,,,,,
,,,,,SPR24_003,19,Male,2024-04-03_11h13.54.155,jersey_experiment_5_v0,2023.2.2,Win32,84.74576271,,,,,,25.5556,32.909,return,7.3164,,,,,,,,,,,,,,,,,,,,,,,,,,,,,,,,,,,,,,,,,,,,,,,,,,,,,,,,,,,,,,,,,,,,,
,,,,,SPR24_003,19,Male,2024-04-03_11h13.54.155,jersey_experiment_5_v0,2023.2.2,Win32,84.74576271,,,,,,,,,,,32.9091,55.8393,return,22.9195,,,,,,,,,,,,,,,,,,,,,,,,,,,,,,,,,,,,,,,,,,,,,,,,,,,,,,,,,,,,,,,,
,,,,,SPR24_003,19,Male,2024-04-03_11h13.54.155,jersey_experiment_5_v0,2023.2.2,Win32,84.74576271,,,,,,,,,,,,,,,,55.8464,57.1449,57.145,63.6628,return,4.6024,,24.08854167,0,0,0,11,1,FBP-OG-91.png,0.37,1.2,12,0.5,,,,,,,,,,,,,,,,,,,,,,,,,,,,,,,,,,,,,,,,,,,,,
,,,,,SPR24_003,19,Male,2024-04-03_11h13.54.155,jersey_experiment_5_v0,2023.2.2,Win32,84.74576271,,,,,,,,,,,,,,,,63.667,64.9685,64.9686,67.5334,return,1.0007,,35.9375,0,1,1,41,1,FBP-RB-19.png,0.37,1.2,42,0.5,,,,,,,,,,,,,,,,,,,,,,,,,,,,,,,,,,,,,,,,,,,,,
,,,,,SPR24_003,19,Male,2024-04-03_11h13.54.155,jersey_experiment_5_v0,2023.2.2,Win32,84.74576271,,,,,,,,,,,,,,,,67.5335,68.8276,68.8276,71.0278,return,0.8493,,49.21875,0,2,2,36,1,FBP-RB-18.png,0.37,1.2,37,0.5,,,,,,,,,,,,,,,,,,,,,,,,,,,,,,,,,,,,,,,,,,,,,
,,,,,SPR24_003,19,Male,2024-04-03_11h13.54.155,jersey_experiment_5_v0,2023.2.2,Win32,84.74576271,,,,,,,,,,,,,,,,71.028,72.0748,72.0748,76.5927,return,2.8117,,23.30729167,0,3,3,55,1,FBP-PT-19.png,0.35,1.2,56,0.25,,,,,,,,,,,,,,,,,,,,,,,,,,,,,,,,,,,,,,,,,,,,,
,,,,,SPR24_003,19,Male,2024-04-03_11h13.54.155,jersey_experiment_5_v0,2023.2.2,Win32,84.74576271,,,,,,,,,,,,,,,,76.5971,77.6397,77.6398,79.0515,return,0.253,,40.36458333,0,4,4,25,1,FBP-YG-19.png,0.35,1.2,26,0.25,,,,,,,,,,,,,,,,,,,,,,,,,,,,,,,,,,,,,,,,,,,,,
,,,,,SPR24_003,19,Male,2024-04-03_11h13.54.155,jersey_experiment_5_v0,2023.2.2,Win32,84.74576271,,,,,,,,,,,,,,,,79.0517,80.3458,80.3458,84.0988,return,0.7878,,73.95833333,0,5,5,4,1,FBP-OG-71.png,0.45,1.2,5,0.5,,,,,,,,,,,,,,,,,,,,,,,,,,,,,,,,,,,,,,,,,,,,,
,,,,,SPR24_003,19,Male,2024-04-03_11h13.54.155,jersey_experiment_5_v0,2023.2.2,Win32,84.74576271,,,,,,,,,,,,,,,,84.099,85.3929,85.3929,87.6165,return,0.9312,,70.96354167,0,6,6,38,1,FBP-RB-18.png,0.43,1.2,39,0.5,,,,,,,,,,,,,,,,,,,,,,,,,,,,,,,,,,,,,,,,,,,,,
,,,,,SPR24_003,19,Male,2024-04-03_11h13.54.155,jersey_experiment_5_v0,2023.2.2,Win32,84.74576271,,,,,,,,,,,,,,,,87.6168,88.6636,88.6636,90.7461,return,0.8883,,76.04166667,0,7,7,18,1,FBP-YG-17.png,0.43,1.2,19,0.25,,,,,,,,,,,,,,,,,,,,,,,,,,,,,,,,,,,,,,,,,,,,,
,,,,,SPR24_003,19,Male,2024-04-03_11h13.54.155,jersey_experiment_5_v0,2023.2.2,Win32,84.74576271,,,,,,,,,,,,,,,,90.7463,92.0402,92.0403,93.6284,return,0.7435,,80.46875,0,8,8,39,1,FBP-RB-18.png,0.45,1.2,40,0.5,,,,,,,,,,,,,,,,,,,,,,,,,,,,,,,,,,,,,,,,,,,,,
,,,,,SPR24_003,19,Male,2024-04-03_11h13.54.155,jersey_experiment_5_v0,2023.2.2,Win32,84.74576271,,,,,,,,,,,,,,,,93.6287,94.9226,94.9227,96.9228,return,0.6185,,69.140625,0,9,9,43,1,FBP-RB-19.png,0.43,1.2,44,0.5,,,,,,,,,,,,,,,,,,,,,,,,,,,,,,,,,,,,,,,,,,,,,
,,,,,SPR24_003,19,Male,2024-04-03_11h13.54.155,jersey_experiment_5_v0,2023.2.2,Win32,84.74576271,,,,,,,,,,,,,,,,96.923,97.9699,97.97,99.7464,return,0.6587,,68.88020833,0,10,10,23,1,FBP-YG-18.png,0.43,1.2,24,0.25,,,,,,,,,,,,,,,,,,,,,,,,,,,,,,,,,,,,,,,,,,,,,
,,,,,SPR24_003,19,Male,2024-04-03_11h13.54.155,jersey_experiment_5_v0,2023.2.2,Win32,84.74576271,,,,,,,,,,,,,,,,99.7466,101.0406,101.0406,102.5936,return,0.7167,,60.28645833,0,11,11,2,1,FBP-OG-71.png,0.4,1.2,3,0.5,,,,,,,,,,,,,,,,,,,,,,,,,,,,,,,,,,,,,,,,,,,,,
,,,,,SPR24_003,19,Male,2024-04-03_11h13.54.155,jersey_experiment_5_v0,2023.2.2,Win32,84.74576271,,,,,,,,,,,,,,,,102.5937,103.6406,103.6406,105.3113,return,0.6599,,66.53645833,0,12,12,49,1,FBP-PT-17.png,0.45,1.2,50,0.25,,,,,,,,,,,,,,,,,,,,,,,,,,,,,,,,,,,,,,,,,,,,,
,,,,,SPR24_003,19,Male,2024-04-03_11h13.54.155,jersey_experiment_5_v0,2023.2.2,Win32,84.74576271,,,,,,,,,,,,,,,,105.3115,106.3584,106.3584,107.9821,return,0.624,,65.10416667,0,13,13,47,1,FBP-PT-17.png,0.4,1.2,48,0.25,,,,,,,,,,,,,,,,,,,,,,,,,,,,,,,,,,,,,,,,,,,,,
,,,,,SPR24_003,19,Male,2024-04-03_11h13.54.155,jersey_experiment_5_v0,2023.2.2,Win32,84.74576271,,,,,,,,,,,,,,,,107.9823,109.2761,109.2761,111.0998,return,0.8024,,79.03645833,0,14,14,14,1,FBP-OG-91.png,0.45,1.2,15,0.5,,,,,,,,,,,,,,,,,,,,,,,,,,,,,,,,,,,,,,,,,,,,,
,,,,,SPR24_003,19,Male,2024-04-03_11h13.54.155,jersey_experiment_5_v0,2023.2.2,Win32,84.74576271,,,,,,,,,,,,,,,,111.1001,112.3939,112.3939,115.3943,return,1.9403,,35.9375,0,15,15,10,1,FBP-OG-91.png,0.35,1.2,11,0.5,,,,,,,,,,,,,,,,,,,,,,,,,,,,,,,,,,,,,,,,,,,,,
,,,,,SPR24_003,19,Male,2024-04-03_11h13.54.155,jersey_experiment_5_v0,2023.2.2,Win32,84.74576271,,,,,,,,,,,,,,,,115.3944,116.6881,116.6882,117.9236,return,0.3904,,57.94270833,0,16,16,13,1,FBP-OG-91.png,0.43,1.2,14,0.5,,,,,,,,,,,,,,,,,,,,,,,,,,,,,,,,,,,,,,,,,,,,,
,,,,,SPR24_003,19,Male,2024-04-03_11h13.54.155,jersey_experiment_5_v0,2023.2.2,Win32,84.74576271,,,,,,,,,,,,,,,,117.9239,118.9706,118.9707,121.0178,return,0.841,,40.36458333,0,17,17,15,1,FBP-YG-17.png,0.35,1.2,16,0.25,,,,,,,,,,,,,,,,,,,,,,,,,,,,,,,,,,,,,,,,,,,,,
,,,,,SPR24_003,19,Male,2024-04-03_11h13.54.155,jersey_experiment_5_v0,2023.2.2,Win32,84.74576271,,,,,,,,,,,,,,,,121.018,122.3121,122.3121,123.6768,return,0.3917,,66.66666667,0,18,18,32,1,FBP-RB-17.png,0.4,1.2,33,0.5,,,,,,,,,,,,,,,,,,,,,,,,,,,,,,,,,,,,,,,,,,,,,
,,,,,SPR24_003,19,Male,2024-04-03_11h13.54.155,jersey_experiment_5_v0,2023.2.2,Win32,84.74576271,,,,,,,,,,,,,,,,123.677,124.7238,124.7239,126.6182,return,0.4176,,39.97395833,0,19,19,21,1,FBP-YG-18.png,0.37,1.2,22,0.25,,,,,,,,,,,,,,,,,,,,,,,,,,,,,,,,,,,,,,,,,,,,,
,,,,,SPR24_003,19,Male,2024-04-03_11h13.54.155,jersey_experiment_5_v0,2023.2.2,Win32,84.74576271,,,,,,,,,,,,,,,,126.6184,127.9122,127.9122,130.0183,return,1.1054,,61.19791667,0,20,20,42,1,FBP-RB-19.png,0.4,1.2,43,0.5,,,,,,,,,,,,,,,,,,,,,,,,,,,,,,,,,,,,,,,,,,,,,
,,,,,SPR24_003,19,Male,2024-04-03_11h13.54.155,jersey_experiment_5_v0,2023.2.2,Win32,84.74576271,,,,,,,,,,,,,,,,130.0184,131.0652,131.0652,132.5595,return,0.4006,,74.609375,0,21,21,59,1,FBP-PT-19.png,0.45,1.2,60,0.25,,,,,,,,,,,,,,,,,,,,,,,,,,,,,,,,,,,,,,,,,,,,,
,,,,,SPR24_003,19,Male,2024-04-03_11h13.54.155,jersey_experiment_5_v0,2023.2.2,Win32,84.74576271,,,,,,,,,,,,,,,,132.5598,133.8536,133.8536,135.9478,return,0.4511,,33.33333333,0,22,22,31,1,FBP-RB-17.png,0.37,1.2,32,0.5,,,,,,,,,,,,,,,,,,,,,,,,,,,,,,,,,,,,,,,,,,,,,
,,,,,SPR24_003,19,Male,2024-04-03_11h13.54.155,jersey_experiment_5_v0,2023.2.2,Win32,84.74576271,,,,,,,,,,,,,,,,135.9481,137.242,137.242,138.6185,return,0.3224,,75.78125,0,23,23,34,1,FBP-RB-17.png,0.45,1.2,35,0.5,,,,,,,,,,,,,,,,,,,,,,,,,,,,,,,,,,,,,,,,,,,,,
,,,,,SPR24_003,19,Male,2024-04-03_11h13.54.155,jersey_experiment_5_v0,2023.2.2,Win32,84.74576271,,,,,,,,,,,,,,,,138.6186,139.6655,139.6655,143.348,return,2.4804,,56.11979167,0,24,24,52,1,FBP-PT-18.png,0.4,1.2,53,0.25,,,,,,,,,,,,,,,,,,,,,,,,,,,,,,,,,,,,,,,,,,,,,
,,,,,SPR24_003,19,Male,2024-04-03_11h13.54.155,jersey_experiment_5_v0,2023.2.2,Win32,84.74576271,,,,,,,,,,,,,,,,143.3483,144.3951,144.3952,145.9482,return,0.4643,,40.10416667,0,25,25,50,1,FBP-PT-18.png,0.35,1.2,51,0.25,,,,,,,,,,,,,,,,,,,,,,,,,,,,,,,,,,,,,,,,,,,,,
,,,,,SPR24_003,19,Male,2024-04-03_11h13.54.155,jersey_experiment_5_v0,2023.2.2,Win32,84.74576271,,,,,,,,,,,,,,,,145.9484,146.9952,146.9953,148.3953,return,0.3107,,47.78645833,0,26,26,56,1,FBP-PT-19.png,0.37,1.2,57,0.25,,,,,,,,,,,,,,,,,,,,,,,,,,,,,,,,,,,,,,,,,,,,,
,,,,,SPR24_003,19,Male,2024-04-03_11h13.54.155,jersey_experiment_5_v0,2023.2.2,Win32,84.74576271,,,,,,,,,,,,,,,,148.3955,149.6895,149.6895,150.8425,return,0.2306,,49.73958333,0,27,27,0,1,FBP-OG-71.png,0.35,1.2,1,0.5,,,,,,,,,,,,,,,,,,,,,,,,,,,,,,,,,,,,,,,,,,,,,
,,,,,SPR24_003,19,Male,2024-04-03_11h13.54.155,jersey_experiment_5_v0,2023.2.2,Win32,84.74576271,,,,,,,,,,,,,,,,150.8427,152.1366,152.1366,153.6425,return,0.419,,75.26041667,0,28,28,3,1,FBP-OG-71.png,0.43,1.2,4,0.5,,,,,,,,,,,,,,,,,,,,,,,,,,,,,,,,,,,,,,,,,,,,,
,,,,,SPR24_003,19,Male,2024-04-03_11h13.54.155,jersey_experiment_5_v0,2023.2.2,Win32,84.74576271,,,,,,,,,,,,,,,,153.6426,154.6894,154.6894,157.1955,return,0.3001,,72.13541667,0,29,29,48,1,FBP-PT-17.png,0.43,1.2,49,0.25,,,,,,,,,,,,,,,,,,,,,,,,,,,,,,,,,,,,,,,,,,,,,
,,,,,SPR24_003,19,Male,2024-04-03_11h13.54.155,jersey_experiment_5_v0,2023.2.2,Win32,84.74576271,,,,,,,,,,,,,,,,157.1958,158.4899,158.4899,160.1135,return,0.2099,,55.98958333,0,30,30,35,1,FBP-RB-18.png,0.35,1.2,36,0.5,,,,,,,,,,,,,,,,,,,,,,,,,,,,,,,,,,,,,,,,,,,,,
,,,,,SPR24_003,19,Male,2024-04-03_11h13.54.155,jersey_experiment_5_v0,2023.2.2,Win32,84.74576271,,,,,,,,,,,,,,,,160.1136,161.1604,161.1605,162.1606,return,0.2572,,61.06770833,0,31,31,46,1,FBP-PT-17.png,0.37,1.2,47,0.25,,,,,,,,,,,,,,,,,,,,,,,,,,,,,,,,,,,,,,,,,,,,,
,,,,,SPR24_003,19,Male,2024-04-03_11h13.54.155,jersey_experiment_5_v0,2023.2.2,Win32,84.74576271,,,,,,,,,,,,,,,,162.1609,163.2077,163.2077,164.3724,return,0.3453,,59.50520833,0,32,32,51,1,FBP-PT-18.png,0.37,1.2,52,0.25,,,,,,,,,,,,,,,,,,,,,,,,,,,,,,,,,,,,,,,,,,,,,
,,,,,SPR24_003,19,Male,2024-04-03_11h13.54.155,jersey_experiment_5_v0,2023.2.2,Win32,84.74576271,,,,,,,,,,,,,,,,164.3726,165.6664,165.6666,166.8666,return,0.2024,,81.51041667,0,33,33,33,1,FBP-RB-17.png,0.43,1.2,34,0.5,,,,,,,,,,,,,,,,,,,,,,,,,,,,,,,,,,,,,,,,,,,,,
,,,,,SPR24_003,19,Male,2024-04-03_11h13.54.155,jersey_experiment_5_v0,2023.2.2,Win32,84.74576271,,,,,,,,,,,,,,,,166.8668,167.9136,167.9137,169.3255,return,0.3099,,75.52083333,0,34,34,24,1,FBP-YG-18.png,0.45,1.2,25,0.25,,,,,,,,,,,,,,,,,,,,,,,,,,,,,,,,,,,,,,,,,,,,,
,,,,,SPR24_003,19,Male,2024-04-03_11h13.54.155,jersey_experiment_5_v0,2023.2.2,Win32,84.74576271,,,,,,,,,,,,,,,,169.3257,170.3727,170.3727,171.8432,return,0.2688,,66.66666667,0,35,35,16,1,FBP-YG-17.png,0.37,1.2,17,0.25,,,,,,,,,,,,,,,,,,,,,,,,,,,,,,,,,,,,,,,,,,,,,
,,,,,SPR24_003,19,Male,2024-04-03_11h13.54.155,jersey_experiment_5_v0,2023.2.2,Win32,84.74576271,,,,,,,,,,,,,,,,171.8435,173.1374,173.1375,175.7376,return,0.2882,,53.38541667,0,36,36,6,1,FBP-OG-81.png,0.37,1.2,7,0.5,,,,,,,,,,,,,,,,,,,,,,,,,,,,,,,,,,,,,,,,,,,,,
,,,,,SPR24_003,19,Male,2024-04-03_11h13.54.155,jersey_experiment_5_v0,2023.2.2,Win32,84.74576271,,,,,,,,,,,,,,,,175.7378,176.7846,176.7847,178.6552,return,1.0601,,73.828125,0,37,37,58,1,FBP-PT-19.png,0.43,1.2,59,0.25,,,,,,,,,,,,,,,,,,,,,,,,,,,,,,,,,,,,,,,,,,,,,
,,,,,SPR24_003,19,Male,2024-04-03_11h13.54.155,jersey_experiment_5_v0,2023.2.2,Win32,84.74576271,,,,,,,,,,,,,,,,178.6554,179.7023,179.7023,180.6907,return,0.2124,,63.28125,0,38,38,45,1,FBP-PT-17.png,0.35,1.2,46,0.25,,,,,,,,,,,,,,,,,,,,,,,,,,,,,,,,,,,,,,,,,,,,,
,,,,,SPR24_003,19,Male,2024-04-03_11h13.54.155,jersey_experiment_5_v0,2023.2.2,Win32,84.74576271,,,,,,,,,,,,,,,,180.6909,181.9848,181.9848,183.3849,return,0.2427,,63.15104167,0,39,39,7,1,FBP-OG-81.png,0.4,1.2,8,0.5,,,,,,,,,,,,,,,,,,,,,,,,,,,,,,,,,,,,,,,,,,,,,
,,,,,SPR24_003,19,Male,2024-04-03_11h13.54.155,jersey_experiment_5_v0,2023.2.2,Win32,84.74576271,,,,,,,,,,,,,,,,183.3851,184.4319,184.4319,185.4556,return,0.3302,,62.63020833,0,40,40,28,1,FBP-YG-19.png,0.43,1.2,29,0.25,,,,,,,,,,,,,,,,,,,,,,,,,,,,,,,,,,,,,,,,,,,,,
,,,,,SPR24_003,19,Male,2024-04-03_11h13.54.155,jersey_experiment_5_v0,2023.2.2,Win32,84.74576271,,,,,,,,,,,,,,,,185.4558,186.5026,186.5027,187.4203,return,0.2506,,60.67708333,0,41,41,26,1,FBP-YG-19.png,0.37,1.2,27,0.25,,,,,,,,,,,,,,,,,,,,,,,,,,,,,,,,,,,,,,,,,,,,,
,,,,,SPR24_003,19,Male,2024-04-03_11h13.54.155,jersey_experiment_5_v0,2023.2.2,Win32,84.74576271,,,,,,,,,,,,,,,,187.4204,188.4674,188.4675,189.5027,return,0.2042,,80.20833333,0,42,42,19,1,FBP-YG-17.png,0.45,1.2,20,0.25,,,,,,,,,,,,,,,,,,,,,,,,,,,,,,,,,,,,,,,,,,,,,
,,,,,SPR24_003,19,Male,2024-04-03_11h13.54.155,jersey_experiment_5_v0,2023.2.2,Win32,84.74576271,,,,,,,,,,,,,,,,189.5029,190.5498,190.5498,191.5852,return,0.1988,,77.08333333,0,43,43,29,1,FBP-YG-19.png,0.45,1.2,30,0.25,,,,,,,,,,,,,,,,,,,,,,,,,,,,,,,,,,,,,,,,,,,,,
,,,,,SPR24_003,19,Male,2024-04-03_11h13.54.155,jersey_experiment_5_v0,2023.2.2,Win32,84.74576271,,,,,,,,,,,,,,,,191.5854,192.8792,192.8793,194.9147,return,0.777,,63.80208333,0,44,44,12,1,FBP-OG-91.png,0.4,1.2,13,0.5,,,,,,,,,,,,,,,,,,,,,,,,,,,,,,,,,,,,,,,,,,,,,
,,,,,SPR24_003,19,Male,2024-04-03_11h13.54.155,jersey_experiment_5_v0,2023.2.2,Win32,84.74576271,,,,,,,,,,,,,,,,194.915,195.9617,195.9618,196.868,return,0.213,,42.70833333,0,45,45,20,1,FBP-YG-18.png,0.35,1.2,21,0.25,,,,,,,,,,,,,,,,,,,,,,,,,,,,,,,,,,,,,,,,,,,,,
,,,,,SPR24_003,19,Male,2024-04-03_11h13.54.155,jersey_experiment_5_v0,2023.2.2,Win32,84.74576271,,,,,,,,,,,,,,,,196.8682,197.915,197.915,199.0912,return,0.2211,,75.78125,0,46,46,54,1,FBP-PT-18.png,0.45,1.2,55,0.25,,,,,,,,,,,,,,,,,,,,,,,,,,,,,,,,,,,,,,,,,,,,,
,,,,,SPR24_003,19,Male,2024-04-03_11h13.54.155,jersey_experiment_5_v0,2023.2.2,Win32,84.74576271,,,,,,,,,,,,,,,,199.0915,200.3854,200.3855,202.3032,return,1.0828,,50.26041667,0,47,47,1,1,FBP-OG-71.png,0.37,1.2,2,0.5,,,,,,,,,,,,,,,,,,,,,,,,,,,,,,,,,,,,,,,,,,,,,
,,,,,SPR24_003,19,Male,2024-04-03_11h13.54.155,jersey_experiment_5_v0,2023.2.2,Win32,84.74576271,,,,,,,,,,,,,,,,202.3035,203.3502,203.3502,204.1739,return,0.1548,,60.28645833,0,48,48,22,1,FBP-YG-18.png,0.4,1.2,23,0.25,,,,,,,,,,,,,,,,,,,,,,,,,,,,,,,,,,,,,,,,,,,,,
,,,,,SPR24_003,19,Male,2024-04-03_11h13.54.155,jersey_experiment_5_v0,2023.2.2,Win32,84.74576271,,,,,,,,,,,,,,,,204.1741,205.4681,205.4681,206.7151,return,0.5947,,41.27604167,0,49,49,40,1,FBP-RB-19.png,0.35,1.2,41,0.5,,,,,,,,,,,,,,,,,,,,,,,,,,,,,,,,,,,,,,,,,,,,,
,,,,,SPR24_003,19,Male,2024-04-03_11h13.54.155,jersey_experiment_5_v0,2023.2.2,Win32,84.74576271,,,,,,,,,,,,,,,,206.7154,208.0093,208.0093,209.1388,return,0.659,,41.27604167,0,50,50,30,1,FBP-RB-17.png,0.35,1.2,31,0.5,,,,,,,,,,,,,,,,,,,,,,,,,,,,,,,,,,,,,,,,,,,,,
,,,,,SPR24_003,19,Male,2024-04-03_11h13.54.155,jersey_experiment_5_v0,2023.2.2,Win32,84.74576271,,,,,,,,,,,,,,,,209.139,210.1859,210.1859,212.0097,return,0.8548,,68.88020833,0,51,51,17,1,FBP-YG-17.png,0.4,1.2,18,0.25,,,,,,,,,,,,,,,,,,,,,,,,,,,,,,,,,,,,,,,,,,,,,
,,,,,SPR24_003,19,Male,2024-04-03_11h13.54.155,jersey_experiment_5_v0,2023.2.2,Win32,84.74576271,,,,,,,,,,,,,,,,212.0099,213.3037,213.3038,214.1271,return,0.1997,,76.171875,0,52,52,8,1,FBP-OG-81.png,0.43,1.2,9,0.5,,,,,,,,,,,,,,,,,,,,,,,,,,,,,,,,,,,,,,,,,,,,,
,,,,,SPR24_003,19,Male,2024-04-03_11h13.54.155,jersey_experiment_5_v0,2023.2.2,Win32,84.74576271,,,,,,,,,,,,,,,,214.1273,215.1743,215.1743,216.0802,return,0.1748,,64.19270833,0,53,53,27,1,FBP-YG-19.png,0.4,1.2,28,0.25,,,,,,,,,,,,,,,,,,,,,,,,,,,,,,,,,,,,,,,,,,,,,
,,,,,SPR24_003,19,Male,2024-04-03_11h13.54.155,jersey_experiment_5_v0,2023.2.2,Win32,84.74576271,,,,,,,,,,,,,,,,216.0804,217.1273,217.1274,218.5628,return,0.5172,,69.27083333,0,54,54,53,1,FBP-PT-18.png,0.43,1.2,54,0.25,,,,,,,,,,,,,,,,,,,,,,,,,,,,,,,,,,,,,,,,,,,,,
,,,,,SPR24_003,19,Male,2024-04-03_11h13.54.155,jersey_experiment_5_v0,2023.2.2,Win32,84.74576271,,,,,,,,,,,,,,,,218.563,219.857,219.857,220.61,return,0.1886,,78.64583333,0,55,55,44,1,FBP-RB-19.png,0.45,1.2,45,0.5,,,,,,,,,,,,,,,,,,,,,,,,,,,,,,,,,,,,,,,,,,,,,
,,,,,SPR24_003,19,Male,2024-04-03_11h13.54.155,jersey_experiment_5_v0,2023.2.2,Win32,84.74576271,,,,,,,,,,,,,,,,220.6103,221.9038,221.9038,222.9864,return,0.2881,,64.0625,0,56,56,37,1,FBP-RB-18.png,0.4,1.2,38,0.5,,,,,,,,,,,,,,,,,,,,,,,,,,,,,,,,,,,,,,,,,,,,,
,,,,,SPR24_003,19,Male,2024-04-03_11h13.54.155,jersey_experiment_5_v0,2023.2.2,Win32,84.74576271,,,,,,,,,,,,,,,,222.9866,224.0334,224.0335,225.3747,return,0.1902,,62.890625,0,57,57,57,1,FBP-PT-19.png,0.4,1.2,58,0.25,,,,,,,,,,,,,,,,,,,,,,,,,,,,,,,,,,,,,,,,,,,,,
,,,,,SPR24_003,19,Male,2024-04-03_11h13.54.155,jersey_experiment_5_v0,2023.2.2,Win32,84.74576271,,,,,,,,,,,,,,,,225.3749,226.6687,226.6688,228.3042,return,0.7775,,51.69270833,0,58,58,5,1,FBP-OG-81.png,0.35,1.2,6,0.5,,,,,,,,,,,,,,,,,,,,,,,,,,,,,,,,,,,,,,,,,,,,,
,,,,,SPR24_003,19,Male,2024-04-03_11h13.54.155,jersey_experiment_5_v0,2023.2.2,Win32,84.74576271,,,,,,,,,,,,,,,,228.3044,229.5984,229.5984,231.116,return,0.7819,,74.73958333,0,59,59,9,1,FBP-OG-81.png,0.45,1.2,10,0.5,,,,,,,,,,,,,,,,,,,,,,,,,,,,,,,,,,,,,,,,,,,,,
,,,,,SPR24_003,19,Male,2024-04-03_11h13.54.155,jersey_experiment_5_v0,2023.2.2,Win32,84.74576271,,,,,,,,,,,,,,,,231.1179,232.4103,232.4103,234.175,return,1.2498,,61.71875,,,,,,FBP-OG-19.png,0.37,1.2,12,0.5,0,0,0,11,1,,,,,,,,,,,,,,,,,,,,,,,,,,,,,,,,,,,,,,,,
,,,,,SPR24_003,19,Male,2024-04-03_11h13.54.155,jersey_experiment_5_v0,2023.2.2,Win32,84.74576271,,,,,,,,,,,,,,,,234.1753,235.222,235.2221,236.2574,return,0.1768,,74.34895833,,,,,,FBP-PT-81.png,0.45,1.2,55,0.25,0,1,1,54,1,,,,,,,,,,,,,,,,,,,,,,,,,,,,,,,,,,,,,,,,
,,,,,SPR24_003,19,Male,2024-04-03_11h13.54.155,jersey_experiment_5_v0,2023.2.2,Win32,84.74576271,,,,,,,,,,,,,,,,236.2575,237.5516,237.5516,239.081,return,0.7339,,51.82291667,,,,,,FBP-OG-17.png,0.37,1.2,2,0.5,0,2,2,1,1,,,,,,,,,,,,,,,,,,,,,,,,,,,,,,,,,,,,,,,,
,,,,,SPR24_003,19,Male,2024-04-03_11h13.54.155,jersey_experiment_5_v0,2023.2.2,Win32,84.74576271,,,,,,,,,,,,,,,,239.0813,240.3753,240.3753,241.4341,return,0.137,,58.203125,,,,,,FBP-RB-81.png,0.4,1.2,38,0.5,0,3,3,37,1,,,,,,,,,,,,,,,,,,,,,,,,,,,,,,,,,,,,,,,,
,,,,,SPR24_003,19,Male,2024-04-03_11h13.54.155,jersey_experiment_5_v0,2023.2.2,Win32,84.74576271,,,,,,,,,,,,,,,,241.4343,242.4812,242.4812,243.3401,return,0.1927,,58.203125,,,,,,FBP-YG-71.png,0.35,1.2,16,0.25,0,4,4,15,1,,,,,,,,,,,,,,,,,,,,,,,,,,,,,,,,,,,,,,,,
,,,,,SPR24_003,19,Male,2024-04-03_11h13.54.155,jersey_experiment_5_v0,2023.2.2,Win32,84.74576271,,,,,,,,,,,,,,,,243.3404,244.6342,244.6343,246.5753,return,0.786,,52.86458333,,,,,,FBP-RB-91.png,0.37,1.2,42,0.5,0,5,5,41,1,,,,,,,,,,,,,,,,,,,,,,,,,,,,,,,,,,,,,,,,
,,,,,SPR24_003,19,Male,2024-04-03_11h13.54.155,jersey_experiment_5_v0,2023.2.2,Win32,84.74576271,,,,,,,,,,,,,,,,246.5756,247.8696,247.8696,249.3405,return,0.521,,49.08854167,,,,,,FBP-RB-91.png,0.35,1.2,41,0.5,0,6,6,40,1,,,,,,,,,,,,,,,,,,,,,,,,,,,,,,,,,,,,,,,,
,,,,,SPR24_003,19,Male,2024-04-03_11h13.54.155,jersey_experiment_5_v0,2023.2.2,Win32,84.74576271,,,,,,,,,,,,,,,,249.3408,250.6345,250.6346,251.8814,return,0.641,,68.22916667,,,,,,FBP-OG-17.png,0.43,1.2,4,0.5,0,7,7,3,1,,,,,,,,,,,,,,,,,,,,,,,,,,,,,,,,,,,,,,,,
,,,,,SPR24_003,19,Male,2024-04-03_11h13.54.155,jersey_experiment_5_v0,2023.2.2,Win32,84.74576271,,,,,,,,,,,,,,,,251.8817,253.1757,253.1757,254.0345,return,0.2104,,76.5625,,,,,,FBP-RB-91.png,0.45,1.2,45,0.5,0,8,8,44,1,,,,,,,,,,,,,,,,,,,,,,,,,,,,,,,,,,,,,,,,
,,,,,SPR24_003,19,Male,2024-04-03_11h13.54.155,jersey_experiment_5_v0,2023.2.2,Win32,84.74576271,,,,,,,,,,,,,,,,254.0348,255.3287,255.3288,256.6582,return,0.7664,,77.21354167,,,,,,FBP-RB-71.png,0.45,1.2,35,0.5,0,9,9,34,1,,,,,,,,,,,,,,,,,,,,,,,,,,,,,,,,,,,,,,,,
,,,,,SPR24_003,19,Male,2024-04-03_11h13.54.155,jersey_experiment_5_v0,2023.2.2,Win32,84.74576271,,,,,,,,,,,,,,,,256.6585,257.9524,257.9524,260.0935,return,0.144,,74.47916667,,,,,,FBP-OG-17.png,0.45,1.2,5,0.5,0,10,10,4,1,,,,,,,,,,,,,,,,,,,,,,,,,,,,,,,,,,,,,,,,
,,,,,SPR24_003,19,Male,2024-04-03_11h13.54.155,jersey_experiment_5_v0,2023.2.2,Win32,84.74576271,,,,,,,,,,,,,,,,260.0938,261.3879,261.388,262.3525,return,0.1545,,55.33854167,,,,,,FBP-OG-17.png,0.4,1.2,3,0.5,0,11,11,2,1,,,,,,,,,,,,,,,,,,,,,,,,,,,,,,,,,,,,,,,,
,,,,,SPR24_003,19,Male,2024-04-03_11h13.54.155,jersey_experiment_5_v0,2023.2.2,Win32,84.74576271,,,,,,,,,,,,,,,,262.3526,263.6467,263.6468,265.1173,return,0.6965,,66.27604167,,,,,,FBP-OG-18.png,0.43,1.2,9,0.5,0,12,12,8,1,,,,,,,,,,,,,,,,,,,,,,,,,,,,,,,,,,,,,,,,
,,,,,SPR24_003,19,Male,2024-04-03_11h13.54.155,jersey_experiment_5_v0,2023.2.2,Win32,84.74576271,,,,,,,,,,,,,,,,265.1175,266.4115,266.4115,268.1056,return,0.1723,,65.88541667,,,,,,FBP-OG-18.png,0.37,1.2,7,0.5,0,13,13,6,1,,,,,,,,,,,,,,,,,,,,,,,,,,,,,,,,,,,,,,,,
,,,,,SPR24_003,19,Male,2024-04-03_11h13.54.155,jersey_experiment_5_v0,2023.2.2,Win32,84.74576271,,,,,,,,,,,,,,,,268.1059,269.1528,269.1528,270.6705,return,0.4738,,49.34895833,,,,,,FBP-YG-71.png,0.37,1.2,17,0.25,0,14,14,16,1,,,,,,,,,,,,,,,,,,,,,,,,,,,,,,,,,,,,,,,,
,,,,,SPR24_003,19,Male,2024-04-03_11h13.54.155,jersey_experiment_5_v0,2023.2.2,Win32,84.74576271,,,,,,,,,,,,,,,,270.6708,271.7177,271.7177,272.506,return,0.2067,,50.26041667,,,,,,FBP-YG-91.png,0.4,1.2,28,0.25,0,15,15,27,1,,,,,,,,,,,,,,,,,,,,,,,,,,,,,,,,,,,,,,,,
,,,,,SPR24_003,19,Male,2024-04-03_11h13.54.155,jersey_experiment_5_v0,2023.2.2,Win32,84.74576271,,,,,,,,,,,,,,,,272.5062,273.7999,273.8,274.7176,return,0.2158,,50,,,,,,FBP-OG-19.png,0.4,1.2,13,0.5,0,16,16,12,1,,,,,,,,,,,,,,,,,,,,,,,,,,,,,,,,,,,,,,,,
,,,,,SPR24_003,19,Male,2024-04-03_11h13.54.155,jersey_experiment_5_v0,2023.2.2,Win32,84.74576271,,,,,,,,,,,,,,,,274.7179,275.7647,275.7647,277.1296,return,0.1138,,48.56770833,,,,,,FBP-PT-71.png,0.37,1.2,47,0.25,0,17,17,46,1,,,,,,,,,,,,,,,,,,,,,,,,,,,,,,,,,,,,,,,,
,,,,,SPR24_003,19,Male,2024-04-03_11h13.54.155,jersey_experiment_5_v0,2023.2.2,Win32,84.74576271,,,,,,,,,,,,,,,,277.1298,278.1767,278.1767,279.7531,return,0.6674,,69.140625,,,,,,FBP-YG-71.png,0.45,1.2,20,0.25,0,18,18,19,1,,,,,,,,,,,,,,,,,,,,,,,,,,,,,,,,,,,,,,,,
,,,,,SPR24_003,19,Male,2024-04-03_11h13.54.155,jersey_experiment_5_v0,2023.2.2,Win32,84.74576271,,,,,,,,,,,,,,,,279.7533,280.8003,280.8003,282.0591,return,0.1088,,64.19270833,,,,,,FBP-PT-81.png,0.43,1.2,54,0.25,0,19,19,53,1,,,,,,,,,,,,,,,,,,,,,,,,,,,,,,,,,,,,,,,,
,,,,,SPR24_003,19,Male,2024-04-03_11h13.54.155,jersey_experiment_5_v0,2023.2.2,Win32,84.74576271,,,,,,,,,,,,,,,,282.0594,283.1062,283.1062,284.5065,return,0.2427,,27.47395833,,,,,,FBP-YG-81.png,0.35,1.2,21,0.25,0,20,20,20,1,,,,,,,,,,,,,,,,,,,,,,,,,,,,,,,,,,,,,,,,
,,,,,SPR24_003,19,Male,2024-04-03_11h13.54.155,jersey_experiment_5_v0,2023.2.2,Win32,84.74576271,,,,,,,,,,,,,,,,284.5067,285.8005,285.8005,287.8358,return,1.4297,,54.42708333,,,,,,FBP-RB-71.png,0.4,1.2,33,0.5,0,21,21,32,1,,,,,,,,,,,,,,,,,,,,,,,,,,,,,,,,,,,,,,,,
,,,,,SPR24_003,19,Male,2024-04-03_11h13.54.155,jersey_experiment_5_v0,2023.2.2,Win32,84.74576271,,,,,,,,,,,,,,,,287.836,288.883,288.883,290.0593,return,0.5001,,42.05729167,,,,,,FBP-PT-91.png,0.37,1.2,57,0.25,0,22,22,56,1,,,,,,,,,,,,,,,,,,,,,,,,,,,,,,,,,,,,,,,,
,,,,,SPR24_003,19,Male,2024-04-03_11h13.54.155,jersey_experiment_5_v0,2023.2.2,Win32,84.74576271,,,,,,,,,,,,,,,,290.0597,291.1065,291.1067,291.8598,return,0.1558,,41.53645833,,,,,,FBP-PT-71.png,0.35,1.2,46,0.25,0,23,23,45,1,,,,,,,,,,,,,,,,,,,,,,,,,,,,,,,,,,,,,,,,
,,,,,SPR24_003,19,Male,2024-04-03_11h13.54.155,jersey_experiment_5_v0,2023.2.2,Win32,84.74576271,,,,,,,,,,,,,,,,291.8599,292.9066,292.9066,293.683,return,0.2118,,63.28125,,,,,,FBP-YG-91.png,0.45,1.2,30,0.25,0,24,24,29,1,,,,,,,,,,,,,,,,,,,,,,,,,,,,,,,,,,,,,,,,
,,,,,SPR24_003,19,Male,2024-04-03_11h13.54.155,jersey_experiment_5_v0,2023.2.2,Win32,84.74576271,,,,,,,,,,,,,,,,293.6832,294.7304,294.7304,295.5302,return,0.1945,,46.09375,,,,,,FBP-YG-91.png,0.37,1.2,27,0.25,0,25,25,26,1,,,,,,,,,,,,,,,,,,,,,,,,,,,,,,,,,,,,,,,,
,,,,,SPR24_003,19,Male,2024-04-03_11h13.54.155,jersey_experiment_5_v0,2023.2.2,Win32,84.74576271,,,,,,,,,,,,,,,,295.5305,296.5773,296.5773,297.5539,return,0.1618,,60.9375,,,,,,FBP-YG-81.png,0.4,1.2,23,0.25,0,26,26,22,1,,,,,,,,,,,,,,,,,,,,,,,,,,,,,,,,,,,,,,,,
,,,,,SPR24_003,19,Male,2024-04-03_11h13.54.155,jersey_experiment_5_v0,2023.2.2,Win32,84.74576271,,,,,,,,,,,,,,,,297.5542,298.6009,298.601,299.9071,return,0.5784,,73.828125,,,,,,FBP-YG-91.png,0.43,1.2,29,0.25,0,27,27,28,1,,,,,,,,,,,,,,,,,,,,,,,,,,,,,,,,,,,,,,,,
,,,,,SPR24_003,19,Male,2024-04-03_11h13.54.155,jersey_experiment_5_v0,2023.2.2,Win32,84.74576271,,,,,,,,,,,,,,,,299.9074,301.201,301.201,301.907,return,0.1152,,60.67708333,,,,,,FBP-RB-91.png,0.4,1.2,43,0.5,0,28,28,42,1,,,,,,,,,,,,,,,,,,,,,,,,,,,,,,,,,,,,,,,,
,,,,,SPR24_003,19,Male,2024-04-03_11h13.54.155,jersey_experiment_5_v0,2023.2.2,Win32,84.74576271,,,,,,,,,,,,,,,,301.9074,302.9539,302.954,304.6601,return,0.2267,,53.125,,,,,,FBP-PT-91.png,0.4,1.2,58,0.25,0,29,29,57,1,,,,,,,,,,,,,,,,,,,,,,,,,,,,,,,,,,,,,,,,
,,,,,SPR24_003,19,Male,2024-04-03_11h13.54.155,jersey_experiment_5_v0,2023.2.2,Win32,84.74576271,,,,,,,,,,,,,,,,304.6603,305.9544,305.9544,306.5425,return,0.1798,,68.09895833,,,,,,FBP-RB-81.png,0.43,1.2,39,0.5,0,30,30,38,1,,,,,,,,,,,,,,,,,,,,,,,,,,,,,,,,,,,,,,,,
,,,,,SPR24_003,19,Male,2024-04-03_11h13.54.155,jersey_experiment_5_v0,2023.2.2,Win32,84.74576271,,,,,,,,,,,,,,,,306.5428,307.5895,307.5895,308.4601,return,0.2976,,65.234375,,,,,,FBP-YG-71.png,0.43,1.2,19,0.25,0,31,31,18,1,,,,,,,,,,,,,,,,,,,,,,,,,,,,,,,,,,,,,,,,
,,,,,SPR24_003,19,Male,2024-04-03_11h13.54.155,jersey_experiment_5_v0,2023.2.2,Win32,84.74576271,,,,,,,,,,,,,,,,308.4605,309.7543,309.7544,310.978,return,0.3868,,33.33333333,,,,,,FBP-OG-18.png,0.35,1.2,6,0.5,0,32,32,5,1,,,,,,,,,,,,,,,,,,,,,,,,,,,,,,,,,,,,,,,,
,,,,,SPR24_003,19,Male,2024-04-03_11h13.54.155,jersey_experiment_5_v0,2023.2.2,Win32,84.74576271,,,,,,,,,,,,,,,,310.9782,312.2721,312.2721,313.578,return,0.8903,,24.73958333,,,,,,FBP-OG-17.png,0.35,1.2,1,0.5,0,33,33,0,1,,,,,,,,,,,,,,,,,,,,,,,,,,,,,,,,,,,,,,,,
,,,,,SPR24_003,19,Male,2024-04-03_11h13.54.155,jersey_experiment_5_v0,2023.2.2,Win32,84.74576271,,,,,,,,,,,,,,,,313.5783,314.6249,314.6249,315.7428,return,0.1325,,36.19791667,,,,,,FBP-PT-81.png,0.37,1.2,52,0.25,0,34,34,51,1,,,,,,,,,,,,,,,,,,,,,,,,,,,,,,,,,,,,,,,,
,,,,,SPR24_003,19,Male,2024-04-03_11h13.54.155,jersey_experiment_5_v0,2023.2.2,Win32,84.74576271,,,,,,,,,,,,,,,,315.7429,316.7897,316.7898,318.084,return,0.1401,,31.38020833,,,,,,FBP-PT-91.png,0.35,1.2,56,0.25,0,35,35,55,1,,,,,,,,,,,,,,,,,,,,,,,,,,,,,,,,,,,,,,,,
,,,,,SPR24_003,19,Male,2024-04-03_11h13.54.155,jersey_experiment_5_v0,2023.2.2,Win32,84.74576271,,,,,,,,,,,,,,,,318.0842,319.1312,319.1312,320.2724,return,0.2239,,18.359375,,,,,,FBP-YG-91.png,0.35,1.2,26,0.25,0,36,36,25,1,,,,,,,,,,,,,,,,,,,,,,,,,,,,,,,,,,,,,,,,
,,,,,SPR24_003,19,Male,2024-04-03_11h13.54.155,jersey_experiment_5_v0,2023.2.2,Win32,84.74576271,,,,,,,,,,,,,,,,320.2726,321.5666,321.5666,322.3784,return,0.2172,,65.36458333,,,,,,FBP-RB-91.png,0.43,1.2,44,0.5,0,37,37,43,1,,,,,,,,,,,,,,,,,,,,,,,,,,,,,,,,,,,,,,,,
,,,,,SPR24_003,19,Male,2024-04-03_11h13.54.155,jersey_experiment_5_v0,2023.2.2,Win32,84.74576271,,,,,,,,,,,,,,,,322.3785,323.6726,323.6726,324.4607,return,0.2746,,31.51041667,,,,,,FBP-OG-19.png,0.35,1.2,11,0.5,0,38,38,10,1,,,,,,,,,,,,,,,,,,,,,,,,,,,,,,,,,,,,,,,,
,,,,,SPR24_003,19,Male,2024-04-03_11h13.54.155,jersey_experiment_5_v0,2023.2.2,Win32,84.74576271,,,,,,,,,,,,,,,,324.4609,325.5078,325.5079,326.4491,return,0.1647,,30.859375,,,,,,FBP-YG-81.png,0.37,1.2,22,0.25,0,39,39,21,1,,,,,,,,,,,,,,,,,,,,,,,,,,,,,,,,,,,,,,,,
,,,,,SPR24_003,19,Male,2024-04-03_11h13.54.155,jersey_experiment_5_v0,2023.2.2,Win32,84.74576271,,,,,,,,,,,,,,,,326.4494,327.4961,327.4961,328.5786,return,0.3154,,67.83854167,,,,,,FBP-PT-71.png,0.43,1.2,49,0.25,0,40,40,48,1,,,,,,,,,,,,,,,,,,,,,,,,,,,,,,,,,,,,,,,,
,,,,,SPR24_003,19,Male,2024-04-03_11h13.54.155,jersey_experiment_5_v0,2023.2.2,Win32,84.74576271,,,,,,,,,,,,,,,,328.5787,329.8726,329.8726,330.6726,return,0.2458,,73.4375,,,,,,FBP-OG-19.png,0.45,1.2,15,0.5,0,41,41,14,1,,,,,,,,,,,,,,,,,,,,,,,,,,,,,,,,,,,,,,,,
,,,,,SPR24_003,19,Male,2024-04-03_11h13.54.155,jersey_experiment_5_v0,2023.2.2,Win32,84.74576271,,,,,,,,,,,,,,,,330.6729,331.9669,331.9669,333.1082,return,0.7668,,75.390625,,,,,,FBP-RB-71.png,0.43,1.2,34,0.5,0,42,42,33,1,,,,,,,,,,,,,,,,,,,,,,,,,,,,,,,,,,,,,,,,
,,,,,SPR24_003,19,Male,2024-04-03_11h13.54.155,jersey_experiment_5_v0,2023.2.2,Win32,84.74576271,,,,,,,,,,,,,,,,333.1083,334.4022,334.4022,334.9435,return,0.2378,,75.390625,,,,,,FBP-OG-18.png,0.4,1.2,8,0.5,0,43,43,7,1,,,,,,,,,,,,,,,,,,,,,,,,,,,,,,,,,,,,,,,,
,,,,,SPR24_003,19,Male,2024-04-03_11h13.54.155,jersey_experiment_5_v0,2023.2.2,Win32,84.74576271,,,,,,,,,,,,,,,,334.9437,335.9905,335.9906,337.2025,return,0.6383,,82.29166667,,,,,,FBP-YG-81.png,0.45,1.2,25,0.25,0,44,44,24,1,,,,,,,,,,,,,,,,,,,,,,,,,,,,,,,,,,,,,,,,
,,,,,SPR24_003,19,Male,2024-04-03_11h13.54.155,jersey_experiment_5_v0,2023.2.2,Win32,84.74576271,,,,,,,,,,,,,,,,337.2028,338.2495,338.2495,339.9554,return,0.9784,,51.5625,,,,,,FBP-YG-71.png,0.4,1.2,18,0.25,0,45,45,17,1,,,,,,,,,,,,,,,,,,,,,,,,,,,,,,,,,,,,,,,,
,,,,,SPR24_003,19,Male,2024-04-03_11h13.54.155,jersey_experiment_5_v0,2023.2.2,Win32,84.74576271,,,,,,,,,,,,,,,,339.9556,341.0025,341.0025,342.579,return,0.1898,,56.51041667,,,,,,FBP-PT-81.png,0.4,1.2,53,0.25,0,46,46,52,1,,,,,,,,,,,,,,,,,,,,,,,,,,,,,,,,,,,,,,,,
,,,,,SPR24_003,19,Male,2024-04-03_11h13.54.155,jersey_experiment_5_v0,2023.2.2,Win32,84.74576271,,,,,,,,,,,,,,,,342.5793,343.8731,343.8732,344.4732,return,0.2184,,59.11458333,,,,,,FBP-RB-71.png,0.37,1.2,32,0.5,0,47,47,31,1,,,,,,,,,,,,,,,,,,,,,,,,,,,,,,,,,,,,,,,,
,,,,,SPR24_003,19,Male,2024-04-03_11h13.54.155,jersey_experiment_5_v0,2023.2.2,Win32,84.74576271,,,,,,,,,,,,,,,,344.4734,345.5202,345.5202,346.4262,return,0.3114,,60.15625,,,,,,FBP-PT-91.png,0.45,1.2,60,0.25,0,48,48,59,1,,,,,,,,,,,,,,,,,,,,,,,,,,,,,,,,,,,,,,,,
,,,,,SPR24_003,19,Male,2024-04-03_11h13.54.155,jersey_experiment_5_v0,2023.2.2,Win32,84.74576271,,,,,,,,,,,,,,,,346.4263,347.4733,347.4734,348.2968,return,0.1598,,59.375,,,,,,FBP-YG-81.png,0.43,1.2,24,0.25,0,49,49,23,1,,,,,,,,,,,,,,,,,,,,,,,,,,,,,,,,,,,,,,,,
,,,,,SPR24_003,19,Male,2024-04-03_11h13.54.155,jersey_experiment_5_v0,2023.2.2,Win32,84.74576271,,,,,,,,,,,,,,,,348.297,349.344,349.3441,350.0736,return,0.2188,,65.234375,,,,,,FBP-PT-71.png,0.4,1.2,48,0.25,0,50,50,47,1,,,,,,,,,,,,,,,,,,,,,,,,,,,,,,,,,,,,,,,,
,,,,,SPR24_003,19,Male,2024-04-03_11h13.54.155,jersey_experiment_5_v0,2023.2.2,Win32,84.74576271,,,,,,,,,,,,,,,,350.0738,351.1206,351.1206,351.9205,return,0.1281,,62.5,,,,,,FBP-PT-91.png,0.43,1.2,59,0.25,0,51,51,58,1,,,,,,,,,,,,,,,,,,,,,,,,,,,,,,,,,,,,,,,,
,,,,,SPR24_003,19,Male,2024-04-03_11h13.54.155,jersey_experiment_5_v0,2023.2.2,Win32,84.74576271,,,,,,,,,,,,,,,,351.9207,353.2147,353.2147,353.8383,return,0.2267,,40.10416667,,,,,,FBP-RB-81.png,0.37,1.2,37,0.5,0,52,52,36,1,,,,,,,,,,,,,,,,,,,,,,,,,,,,,,,,,,,,,,,,
,,,,,SPR24_003,19,Male,2024-04-03_11h13.54.155,jersey_experiment_5_v0,2023.2.2,Win32,84.74576271,,,,,,,,,,,,,,,,353.8385,355.1326,355.1326,355.7443,return,0.2363,,67.578125,,,,,,FBP-OG-18.png,0.45,1.2,10,0.5,0,53,53,9,1,,,,,,,,,,,,,,,,,,,,,,,,,,,,,,,,,,,,,,,,
,,,,,SPR24_003,19,Male,2024-04-03_11h13.54.155,jersey_experiment_5_v0,2023.2.2,Win32,84.74576271,,,,,,,,,,,,,,,,355.7446,357.0385,357.0385,358.4032,return,0.9913,,74.86979167,,,,,,FBP-RB-81.png,0.45,1.2,40,0.5,0,54,54,39,1,,,,,,,,,,,,,,,,,,,,,,,,,,,,,,,,,,,,,,,,
,,,,,SPR24_003,19,Male,2024-04-03_11h13.54.155,jersey_experiment_5_v0,2023.2.2,Win32,84.74576271,,,,,,,,,,,,,,,,358.4035,359.6973,359.6973,361.6036,return,1.3663,,28.25520833,,,,,,FBP-RB-81.png,0.35,1.2,36,0.5,0,55,55,35,1,,,,,,,,,,,,,,,,,,,,,,,,,,,,,,,,,,,,,,,,
,,,,,SPR24_003,19,Male,2024-04-03_11h13.54.155,jersey_experiment_5_v0,2023.2.2,Win32,84.74576271,,,,,,,,,,,,,,,,361.6038,362.6504,362.6504,364.521,return,1.0417,,22.39583333,,,,,,FBP-PT-81.png,0.35,1.2,51,0.25,0,56,56,50,1,,,,,,,,,,,,,,,,,,,,,,,,,,,,,,,,,,,,,,,,
,,,,,SPR24_003,19,Male,2024-04-03_11h13.54.155,jersey_experiment_5_v0,2023.2.2,Win32,84.74576271,,,,,,,,,,,,,,,,364.5212,365.5681,365.5682,366.8742,return,0.4427,,72.91666667,,,,,,FBP-PT-71.png,0.45,1.2,50,0.25,0,57,57,49,1,,,,,,,,,,,,,,,,,,,,,,,,,,,,,,,,,,,,,,,,
,,,,,SPR24_003,19,Male,2024-04-03_11h13.54.155,jersey_experiment_5_v0,2023.2.2,Win32,84.74576271,,,,,,,,,,,,,,,,366.8744,368.1683,368.1684,369.2037,return,0.4002,,33.46354167,,,,,,FBP-RB-71.png,0.35,1.2,31,0.5,0,58,58,30,1,,,,,,,,,,,,,,,,,,,,,,,,,,,,,,,,,,,,,,,,
,,,,,SPR24_003,19,Male,2024-04-03_11h13.54.155,jersey_experiment_5_v0,2023.2.2,Win32,84.74576271,,,,,,,,,,,,,,,,369.204,370.4978,370.4978,372.1566,return,1.1438,,61.84895833,,,,,,FBP-OG-19.png,0.43,1.2,14,0.5,0,59,59,13,1,,,,,,,,,,,,,,,,,,,,,,,,,,,,,,,,,,,,,,,,
,,,,,SPR24_003,19,Male,2024-04-03_11h13.54.155,jersey_experiment_5_v0,2023.2.2,Win32,84.74576271,,,,,,,,,,,,,,,,,,,,,,,,,,,,,,,,,,,,,,,372.1571,492.1499,,,,,,,,,,,,,,,,,,,,,,,,,,,,,,,,,,,,,,
,,,,,SPR24_003,19,Male,2024-04-03_11h13.54.155,jersey_experiment_5_v0,2023.2.2,Win32,84.74576271,,,,,,,,,,,,,,,,,,,,,,,,,,,,,,,,,,,,,,,,,492.1499,497.9618,return,5.808,,,,,,,,,,,,,,,,,,,,,,,,,,,,,,,,,,
,,,,,SPR24_003,19,Male,2024-04-03_11h13.54.155,jersey_experiment_5_v0,2023.2.2,Win32,84.74576271,,,,,,,,,,,,,,,,497.9678,499.0203,499.0204,500.2556,return,0.3786,,55.59895833,,,,,,FBP-OG-91.png,0.43,1.2,14,0.25,,,,,,,,,,,,,0,0,0,13,1,,,,,,,,,,,,,,,,,,,,,,,,,,,,
,,,,,SPR24_003,19,Male,2024-04-03_11h13.54.155,jersey_experiment_5_v0,2023.2.2,Win32,84.74576271,,,,,,,,,,,,,,,,500.2559,501.5497,501.5497,503.0203,return,0.886,,58.07291667,,,,,,FBP-YG-17.png,0.4,1.2,18,0.5,,,,,,,,,,,,,0,1,1,17,1,,,,,,,,,,,,,,,,,,,,,,,,,,,,
,,,,,SPR24_003,19,Male,2024-04-03_11h13.54.155,jersey_experiment_5_v0,2023.2.2,Win32,84.74576271,,,,,,,,,,,,,,,,503.0206,504.0674,504.0674,505.6792,return,1.0023,,28.64583333,,,,,,FBP-OG-91.png,0.35,1.2,11,0.25,,,,,,,,,,,,,0,2,2,10,1,,,,,,,,,,,,,,,,,,,,,,,,,,,,
,,,,,SPR24_003,19,Male,2024-04-03_11h13.54.155,jersey_experiment_5_v0,2023.2.2,Win32,84.74576271,,,,,,,,,,,,,,,,505.6795,506.7264,506.7264,508.0676,return,0.8095,,30.72916667,,,,,,FBP-OG-81.png,0.37,1.2,7,0.25,,,,,,,,,,,,,0,3,3,6,1,,,,,,,,,,,,,,,,,,,,,,,,,,,,
,,,,,SPR24_003,19,Male,2024-04-03_11h13.54.155,jersey_experiment_5_v0,2023.2.2,Win32,84.74576271,,,,,,,,,,,,,,,,508.0679,509.3619,509.3619,510.1853,return,0.2897,,69.27083333,,,,,,FBP-PT-17.png,0.45,1.2,50,0.5,,,,,,,,,,,,,0,4,4,49,1,,,,,,,,,,,,,,,,,,,,,,,,,,,,
,,,,,SPR24_003,19,Male,2024-04-03_11h13.54.155,jersey_experiment_5_v0,2023.2.2,Win32,84.74576271,,,,,,,,,,,,,,,,510.1855,511.4794,511.4795,512.4796,return,0.5647,,61.45833333,,,,,,FBP-YG-19.png,0.43,1.2,29,0.5,,,,,,,,,,,,,0,5,5,28,1,,,,,,,,,,,,,,,,,,,,,,,,,,,,
,,,,,SPR24_003,19,Male,2024-04-03_11h13.54.155,jersey_experiment_5_v0,2023.2.2,Win32,84.74576271,,,,,,,,,,,,,,,,512.4798,513.5267,513.5267,514.2915,return,0.225,,74.47916667,,,,,,FBP-OG-71.png,0.45,1.2,5,0.25,,,,,,,,,,,,,0,6,6,4,1,,,,,,,,,,,,,,,,,,,,,,,,,,,,
,,,,,SPR24_003,19,Male,2024-04-03_11h13.54.155,jersey_experiment_5_v0,2023.2.2,Win32,84.74576271,,,,,,,,,,,,,,,,514.2918,515.5858,515.5858,516.3856,return,0.2353,,30.859375,,,,,,FBP-PT-19.png,0.35,1.2,56,0.5,,,,,,,,,,,,,0,7,7,55,1,,,,,,,,,,,,,,,,,,,,,,,,,,,,
,,,,,SPR24_003,19,Male,2024-04-03_11h13.54.155,jersey_experiment_5_v0,2023.2.2,Win32,84.74576271,,,,,,,,,,,,,,,,516.3859,517.6797,517.6798,518.515,return,0.2107,,36.328125,,,,,,FBP-PT-19.png,0.37,1.2,57,0.5,,,,,,,,,,,,,0,8,8,56,1,,,,,,,,,,,,,,,,,,,,,,,,,,,,
,,,,,SPR24_003,19,Male,2024-04-03_11h13.54.155,jersey_experiment_5_v0,2023.2.2,Win32,84.74576271,,,,,,,,,,,,,,,,518.5153,519.8093,519.8093,520.8917,return,0.5925,,30.72916667,,,,,,FBP-YG-18.png,0.37,1.2,22,0.5,,,,,,,,,,,,,0,9,9,21,1,,,,,,,,,,,,,,,,,,,,,,,,,,,,
,,,,,SPR24_003,19,Male,2024-04-03_11h13.54.155,jersey_experiment_5_v0,2023.2.2,Win32,84.74576271,,,,,,,,,,,,,,,,520.892,522.1858,522.1858,523.1153,return,0.3239,,73.828125,,,,,,FBP-YG-19.png,0.45,1.2,30,0.5,,,,,,,,,,,,,0,10,10,29,1,,,,,,,,,,,,,,,,,,,,,,,,,,,,
,,,,,SPR24_003,19,Male,2024-04-03_11h13.54.155,jersey_experiment_5_v0,2023.2.2,Win32,84.74576271,,,,,,,,,,,,,,,,523.1155,524.1623,524.1623,525.2684,return,0.3395,,23.56770833,,,,,,FBP-OG-71.png,0.35,1.2,1,0.25,,,,,,,,,,,,,0,11,11,0,1,,,,,,,,,,,,,,,,,,,,,,,,,,,,
,,,,,SPR24_003,19,Male,2024-04-03_11h13.54.155,jersey_experiment_5_v0,2023.2.2,Win32,84.74576271,,,,,,,,,,,,,,,,525.2686,526.5626,526.5626,527.5979,return,0.2861,,18.48958333,,,,,,FBP-YG-18.png,0.35,1.2,21,0.5,,,,,,,,,,,,,0,12,12,20,1,,,,,,,,,,,,,,,,,,,,,,,,,,,,
,,,,,SPR24_003,19,Male,2024-04-03_11h13.54.155,jersey_experiment_5_v0,2023.2.2,Win32,84.74576271,,,,,,,,,,,,,,,,527.5982,528.8921,528.8922,530.2214,return,0.4727,,80.078125,,,,,,FBP-YG-17.png,0.45,1.2,20,0.5,,,,,,,,,,,,,0,13,13,19,1,,,,,,,,,,,,,,,,,,,,,,,,,,,,
,,,,,SPR24_003,19,Male,2024-04-03_11h13.54.155,jersey_experiment_5_v0,2023.2.2,Win32,84.74576271,,,,,,,,,,,,,,,,530.2218,531.2684,531.2684,532.2216,return,0.2986,,75.65104167,,,,,,FBP-RB-17.png,0.45,1.2,35,0.25,,,,,,,,,,,,,0,14,14,34,1,,,,,,,,,,,,,,,,,,,,,,,,,,,,
,,,,,SPR24_003,19,Male,2024-04-03_11h13.54.155,jersey_experiment_5_v0,2023.2.2,Win32,84.74576271,,,,,,,,,,,,,,,,532.222,533.5158,533.516,534.4451,return,0.2631,,33.07291667,,,,,,FBP-PT-17.png,0.35,1.2,46,0.5,,,,,,,,,,,,,0,15,15,45,1,,,,,,,,,,,,,,,,,,,,,,,,,,,,
,,,,,SPR24_003,19,Male,2024-04-03_11h13.54.155,jersey_experiment_5_v0,2023.2.2,Win32,84.74576271,,,,,,,,,,,,,,,,534.4454,535.7393,535.7393,536.9157,return,0.6106,,73.17708333,,,,,,FBP-YG-18.png,0.43,1.2,24,0.5,,,,,,,,,,,,,0,16,16,23,1,,,,,,,,,,,,,,,,,,,,,,,,,,,,
,,,,,SPR24_003,19,Male,2024-04-03_11h13.54.155,jersey_experiment_5_v0,2023.2.2,Win32,84.74576271,,,,,,,,,,,,,,,,536.916,538.2099,538.21,539.116,return,0.239,,53.38541667,,,,,,FBP-YG-19.png,0.4,1.2,28,0.5,,,,,,,,,,,,,0,17,17,27,1,,,,,,,,,,,,,,,,,,,,,,,,,,,,
,,,,,SPR24_003,19,Male,2024-04-03_11h13.54.155,jersey_experiment_5_v0,2023.2.2,Win32,84.74576271,,,,,,,,,,,,,,,,539.1162,540.163,540.1631,541.069,return,0.0493,,50.78125,,,,,,FBP-RB-19.png,0.4,1.2,43,0.25,,,,,,,,,,,,,0,18,18,42,1,,,,,,,,,,,,,,,,,,,,,,,,,,,,
,,,,,SPR24_003,19,Male,2024-04-03_11h13.54.155,jersey_experiment_5_v0,2023.2.2,Win32,84.74576271,,,,,,,,,,,,,,,,541.0693,542.1162,542.1162,542.7865,return,0.1546,,57.421875,,,,,,FBP-RB-17.png,0.4,1.2,33,0.25,,,,,,,,,,,,,0,19,19,32,1,,,,,,,,,,,,,,,,,,,,,,,,,,,,
,,,,,SPR24_003,19,Male,2024-04-03_11h13.54.155,jersey_experiment_5_v0,2023.2.2,Win32,84.74576271,,,,,,,,,,,,,,,,542.7868,544.0808,544.0808,544.7634,return,0.2164,,74.08854167,,,,,,FBP-PT-19.png,0.43,1.2,59,0.5,,,,,,,,,,,,,0,20,20,58,1,,,,,,,,,,,,,,,,,,,,,,,,,,,,
,,,,,SPR24_003,19,Male,2024-04-03_11h13.54.155,jersey_experiment_5_v0,2023.2.2,Win32,84.74576271,,,,,,,,,,,,,,,,544.7636,545.8102,545.8103,546.8341,return,0.2845,,27.34375,,,,,,FBP-RB-17.png,0.35,1.2,31,0.25,,,,,,,,,,,,,0,21,21,30,1,,,,,,,,,,,,,,,,,,,,,,,,,,,,
,,,,,SPR24_003,19,Male,2024-04-03_11h13.54.155,jersey_experiment_5_v0,2023.2.2,Win32,84.74576271,,,,,,,,,,,,,,,,546.8343,548.128,548.128,552.3399,return,2.1771,,74.47916667,,,,,,FBP-YG-17.png,0.43,1.2,19,0.5,,,,,,,,,,,,,0,22,22,18,1,,,,,,,,,,,,,,,,,,,,,,,,,,,,
,,,,,SPR24_003,19,Male,2024-04-03_11h13.54.155,jersey_experiment_5_v0,2023.2.2,Win32,84.74576271,,,,,,,,,,,,,,,,552.3402,553.387,553.387,555.693,return,0.3578,,26.953125,,,,,,FBP-RB-18.png,0.37,1.2,37,0.25,,,,,,,,,,,,,0,23,23,36,1,,,,,,,,,,,,,,,,,,,,,,,,,,,,
,,,,,SPR24_003,19,Male,2024-04-03_11h13.54.155,jersey_experiment_5_v0,2023.2.2,Win32,84.74576271,,,,,,,,,,,,,,,,555.6932,556.9873,556.9873,557.8694,return,0.2746,,20.83333333,,,,,,FBP-PT-18.png,0.35,1.2,51,0.5,,,,,,,,,,,,,0,24,24,50,1,,,,,,,,,,,,,,,,,,,,,,,,,,,,
,,,,,SPR24_003,19,Male,2024-04-03_11h13.54.155,jersey_experiment_5_v0,2023.2.2,Win32,84.74576271,,,,,,,,,,,,,,,,557.8697,558.9164,558.9164,560.4108,return,0.2646,,48.828125,,,,,,FBP-OG-81.png,0.4,1.2,8,0.25,,,,,,,,,,,,,0,25,25,7,1,,,,,,,,,,,,,,,,,,,,,,,,,,,,
,,,,,SPR24_003,19,Male,2024-04-03_11h13.54.155,jersey_experiment_5_v0,2023.2.2,Win32,84.74576271,,,,,,,,,,,,,,,,560.411,561.7049,561.705,562.764,return,0.6763,,47.39583333,,,,,,FBP-PT-17.png,0.37,1.2,47,0.5,,,,,,,,,,,,,0,26,26,46,1,,,,,,,,,,,,,,,,,,,,,,,,,,,,
,,,,,SPR24_003,19,Male,2024-04-03_11h13.54.155,jersey_experiment_5_v0,2023.2.2,Win32,84.74576271,,,,,,,,,,,,,,,,562.7642,563.8109,563.8109,564.9638,return,0.2905,,70.83333333,,,,,,FBP-OG-81.png,0.45,1.2,10,0.25,,,,,,,,,,,,,0,27,27,9,1,,,,,,,,,,,,,,,,,,,,,,,,,,,,
,,,,,SPR24_003,19,Male,2024-04-03_11h13.54.155,jersey_experiment_5_v0,2023.2.2,Win32,84.74576271,,,,,,,,,,,,,,,,564.964,566.0109,566.011,566.964,return,0.2455,,60.28645833,,,,,,FBP-RB-18.png,0.43,1.2,39,0.25,,,,,,,,,,,,,0,28,28,38,1,,,,,,,,,,,,,,,,,,,,,,,,,,,,
,,,,,SPR24_003,19,Male,2024-04-03_11h13.54.155,jersey_experiment_5_v0,2023.2.2,Win32,84.74576271,,,,,,,,,,,,,,,,566.9641,568.2581,568.2581,568.9875,return,0.226,,50.91145833,,,,,,FBP-YG-19.png,0.37,1.2,27,0.5,,,,,,,,,,,,,0,29,29,26,1,,,,,,,,,,,,,,,,,,,,,,,,,,,,
,,,,,SPR24_003,19,Male,2024-04-03_11h13.54.155,jersey_experiment_5_v0,2023.2.2,Win32,84.74576271,,,,,,,,,,,,,,,,568.9878,570.2817,570.2818,571.2583,return,0.3941,,42.1875,,,,,,FBP-YG-19.png,0.35,1.2,26,0.5,,,,,,,,,,,,,0,30,30,25,1,,,,,,,,,,,,,,,,,,,,,,,,,,,,
,,,,,SPR24_003,19,Male,2024-04-03_11h13.54.155,jersey_experiment_5_v0,2023.2.2,Win32,84.74576271,,,,,,,,,,,,,,,,571.2585,572.3054,572.3055,573.4113,return,0.1884,,50.26041667,,,,,,FBP-RB-18.png,0.4,1.2,38,0.25,,,,,,,,,,,,,0,31,31,37,1,,,,,,,,,,,,,,,,,,,,,,,,,,,,
,,,,,SPR24_003,19,Male,2024-04-03_11h13.54.155,jersey_experiment_5_v0,2023.2.2,Win32,84.74576271,,,,,,,,,,,,,,,,573.4115,574.4583,574.4583,575.4819,return,0.243,,42.70833333,,,,,,FBP-OG-81.png,0.35,1.2,6,0.25,,,,,,,,,,,,,0,32,32,5,1,,,,,,,,,,,,,,,,,,,,,,,,,,,,
,,,,,SPR24_003,19,Male,2024-04-03_11h13.54.155,jersey_experiment_5_v0,2023.2.2,Win32,84.74576271,,,,,,,,,,,,,,,,575.4821,576.5292,576.5292,577.5997,return,0.4254,,49.86979167,,,,,,FBP-RB-18.png,0.35,1.2,36,0.25,,,,,,,,,,,,,0,33,33,35,1,,,,,,,,,,,,,,,,,,,,,,,,,,,,
,,,,,SPR24_003,19,Male,2024-04-03_11h13.54.155,jersey_experiment_5_v0,2023.2.2,Win32,84.74576271,,,,,,,,,,,,,,,,577.5998,578.894,578.894,580.6351,return,1.23,,71.09375,,,,,,FBP-PT-17.png,0.4,1.2,48,0.5,,,,,,,,,,,,,0,34,34,47,1,,,,,,,,,,,,,,,,,,,,,,,,,,,,
,,,,,SPR24_003,19,Male,2024-04-03_11h13.54.155,jersey_experiment_5_v0,2023.2.2,Win32,84.74576271,,,,,,,,,,,,,,,,580.6353,581.9292,581.9292,582.9882,return,0.2177,,73.30729167,,,,,,FBP-YG-18.png,0.4,1.2,23,0.5,,,,,,,,,,,,,0,35,35,22,1,,,,,,,,,,,,,,,,,,,,,,,,,,,,
,,,,,SPR24_003,19,Male,2024-04-03_11h13.54.155,jersey_experiment_5_v0,2023.2.2,Win32,84.74576271,,,,,,,,,,,,,,,,582.9884,584.2822,584.2822,588.106,return,2.3255,,48.69791667,,,,,,FBP-PT-19.png,0.45,1.2,60,0.5,,,,,,,,,,,,,0,36,36,59,1,,,,,,,,,,,,,,,,,,,,,,,,,,,,
,,,,,SPR24_003,19,Male,2024-04-03_11h13.54.155,jersey_experiment_5_v0,2023.2.2,Win32,84.74576271,,,,,,,,,,,,,,,,588.1062,589.153,589.153,590.0943,return,0.2246,,39.71354167,,,,,,FBP-RB-19.png,0.35,1.2,41,0.25,,,,,,,,,,,,,0,37,37,40,1,,,,,,,,,,,,,,,,,,,,,,,,,,,,
,,,,,SPR24_003,19,Male,2024-04-03_11h13.54.155,jersey_experiment_5_v0,2023.2.2,Win32,84.74576271,,,,,,,,,,,,,,,,590.0946,591.3886,591.3887,591.965,return,0.252,,62.76041667,,,,,,FBP-PT-18.png,0.45,1.2,55,0.5,,,,,,,,,,,,,0,38,38,54,1,,,,,,,,,,,,,,,,,,,,,,,,,,,,
,,,,,SPR24_003,19,Male,2024-04-03_11h13.54.155,jersey_experiment_5_v0,2023.2.2,Win32,84.74576271,,,,,,,,,,,,,,,,591.9653,593.0119,593.012,594.2591,return,0.3618,,49.21875,,,,,,FBP-OG-71.png,0.4,1.2,3,0.25,,,,,,,,,,,,,0,39,39,2,1,,,,,,,,,,,,,,,,,,,,,,,,,,,,
,,,,,SPR24_003,19,Male,2024-04-03_11h13.54.155,jersey_experiment_5_v0,2023.2.2,Win32,84.74576271,,,,,,,,,,,,,,,,594.2592,595.3063,595.3063,596.3297,return,0.1957,,47.39583333,,,,,,FBP-RB-19.png,0.37,1.2,42,0.25,,,,,,,,,,,,,0,40,40,41,1,,,,,,,,,,,,,,,,,,,,,,,,,,,,
,,,,,SPR24_003,19,Male,2024-04-03_11h13.54.155,jersey_experiment_5_v0,2023.2.2,Win32,84.74576271,,,,,,,,,,,,,,,,596.33,597.6239,597.624,598.671,return,0.2358,,44.79166667,,,,,,FBP-PT-18.png,0.4,1.2,53,0.5,,,,,,,,,,,,,0,41,41,52,1,,,,,,,,,,,,,,,,,,,,,,,,,,,,
,,,,,SPR24_003,19,Male,2024-04-03_11h13.54.155,jersey_experiment_5_v0,2023.2.2,Win32,84.74576271,,,,,,,,,,,,,,,,598.6712,599.9652,599.9652,601.2005,return,0.1998,,60.546875,,,,,,FBP-PT-18.png,0.43,1.2,54,0.5,,,,,,,,,,,,,0,42,42,53,1,,,,,,,,,,,,,,,,,,,,,,,,,,,,
,,,,,SPR24_003,19,Male,2024-04-03_11h13.54.155,jersey_experiment_5_v0,2023.2.2,Win32,84.74576271,,,,,,,,,,,,,,,,601.2008,602.2476,602.2477,603.2595,return,0.1931,,49.73958333,,,,,,FBP-OG-91.png,0.37,1.2,12,0.25,,,,,,,,,,,,,0,43,43,11,1,,,,,,,,,,,,,,,,,,,,,,,,,,,,
,,,,,SPR24_003,19,Male,2024-04-03_11h13.54.155,jersey_experiment_5_v0,2023.2.2,Win32,84.74576271,,,,,,,,,,,,,,,,603.2598,604.5537,604.5537,605.3068,return,0.2639,,39.0625,,,,,,FBP-YG-17.png,0.35,1.2,16,0.5,,,,,,,,,,,,,0,44,44,15,1,,,,,,,,,,,,,,,,,,,,,,,,,,,,
,,,,,SPR24_003,19,Male,2024-04-03_11h13.54.155,jersey_experiment_5_v0,2023.2.2,Win32,84.74576271,,,,,,,,,,,,,,,,605.307,606.3537,606.3538,607.1185,return,0.2258,,36.45833333,,,,,,FBP-OG-71.png,0.37,1.2,2,0.25,,,,,,,,,,,,,0,45,45,1,1,,,,,,,,,,,,,,,,,,,,,,,,,,,,
,,,,,SPR24_003,19,Male,2024-04-03_11h13.54.155,jersey_experiment_5_v0,2023.2.2,Win32,84.74576271,,,,,,,,,,,,,,,,607.1187,608.1655,608.1656,608.989,return,0.2028,,65.36458333,,,,,,FBP-RB-18.png,0.45,1.2,40,0.25,,,,,,,,,,,,,0,46,46,39,1,,,,,,,,,,,,,,,,,,,,,,,,,,,,
,,,,,SPR24_003,19,Male,2024-04-03_11h13.54.155,jersey_experiment_5_v0,2023.2.2,Win32,84.74576271,,,,,,,,,,,,,,,,608.9892,610.2833,610.2834,611.3893,return,0.5791,,63.15104167,,,,,,FBP-PT-17.png,0.43,1.2,49,0.5,,,,,,,,,,,,,0,47,47,48,1,,,,,,,,,,,,,,,,,,,,,,,,,,,,
,,,,,SPR24_003,19,Male,2024-04-03_11h13.54.155,jersey_experiment_5_v0,2023.2.2,Win32,84.74576271,,,,,,,,,,,,,,,,611.3895,612.4363,612.4363,613.1774,return,0.1967,,69.79166667,,,,,,FBP-RB-19.png,0.43,1.2,44,0.25,,,,,,,,,,,,,0,48,48,43,1,,,,,,,,,,,,,,,,,,,,,,,,,,,,
,,,,,SPR24_003,19,Male,2024-04-03_11h13.54.155,jersey_experiment_5_v0,2023.2.2,Win32,84.74576271,,,,,,,,,,,,,,,,613.1777,614.2246,614.2246,615.0599,return,0.1646,,69.53125,,,,,,FBP-OG-81.png,0.43,1.2,9,0.25,,,,,,,,,,,,,0,49,49,8,1,,,,,,,,,,,,,,,,,,,,,,,,,,,,
,,,,,SPR24_003,19,Male,2024-04-03_11h13.54.155,jersey_experiment_5_v0,2023.2.2,Win32,84.74576271,,,,,,,,,,,,,,,,615.0601,616.1069,616.107,617.0245,return,0.2021,,54.42708333,,,,,,FBP-OG-91.png,0.4,1.2,13,0.25,,,,,,,,,,,,,0,50,50,12,1,,,,,,,,,,,,,,,,,,,,,,,,,,,,
,,,,,SPR24_003,19,Male,2024-04-03_11h13.54.155,jersey_experiment_5_v0,2023.2.2,Win32,84.74576271,,,,,,,,,,,,,,,,617.0249,618.0717,618.0718,619.0364,return,0.1697,,73.30729167,,,,,,FBP-RB-19.png,0.45,1.2,45,0.25,,,,,,,,,,,,,0,51,51,44,1,,,,,,,,,,,,,,,,,,,,,,,,,,,,
,,,,,SPR24_003,19,Male,2024-04-03_11h13.54.155,jersey_experiment_5_v0,2023.2.2,Win32,84.74576271,,,,,,,,,,,,,,,,619.0366,620.0836,620.0836,621.4718,return,0.8458,,79.55729167,,,,,,FBP-OG-91.png,0.45,1.2,15,0.25,,,,,,,,,,,,,0,52,52,14,1,,,,,,,,,,,,,,,,,,,,,,,,,,,,
,,,,,SPR24_003,19,Male,2024-04-03_11h13.54.155,jersey_experiment_5_v0,2023.2.2,Win32,84.74576271,,,,,,,,,,,,,,,,621.4722,622.7663,622.7663,623.6249,return,0.2678,,52.734375,,,,,,FBP-YG-17.png,0.37,1.2,17,0.5,,,,,,,,,,,,,0,53,53,16,1,,,,,,,,,,,,,,,,,,,,,,,,,,,,
,,,,,SPR24_003,19,Male,2024-04-03_11h13.54.155,jersey_experiment_5_v0,2023.2.2,Win32,84.74576271,,,,,,,,,,,,,,,,623.6251,624.9189,624.919,626.0484,return,0.5758,,57.94270833,,,,,,FBP-PT-19.png,0.4,1.2,58,0.5,,,,,,,,,,,,,0,54,54,57,1,,,,,,,,,,,,,,,,,,,,,,,,,,,,
,,,,,SPR24_003,19,Male,2024-04-03_11h13.54.155,jersey_experiment_5_v0,2023.2.2,Win32,84.74576271,,,,,,,,,,,,,,,,626.0487,627.0957,627.0957,627.8368,return,0.156,,51.171875,,,,,,FBP-RB-17.png,0.37,1.2,32,0.25,,,,,,,,,,,,,0,55,55,31,1,,,,,,,,,,,,,,,,,,,,,,,,,,,,
,,,,,SPR24_003,19,Male,2024-04-03_11h13.54.155,jersey_experiment_5_v0,2023.2.2,Win32,84.74576271,,,,,,,,,,,,,,,,627.8369,629.1308,629.1309,631.0488,return,0.2088,,50.26041667,,,,,,FBP-PT-18.png,0.37,1.2,52,0.5,,,,,,,,,,,,,0,56,56,51,1,,,,,,,,,,,,,,,,,,,,,,,,,,,,
,,,,,SPR24_003,19,Male,2024-04-03_11h13.54.155,jersey_experiment_5_v0,2023.2.2,Win32,84.74576271,,,,,,,,,,,,,,,,631.0491,632.3429,632.3429,633.2487,return,0.2124,,71.61458333,,,,,,FBP-YG-18.png,0.45,1.2,25,0.5,,,,,,,,,,,,,0,57,57,24,1,,,,,,,,,,,,,,,,,,,,,,,,,,,,
,,,,,SPR24_003,19,Male,2024-04-03_11h13.54.155,jersey_experiment_5_v0,2023.2.2,Win32,84.74576271,,,,,,,,,,,,,,,,633.249,634.2958,634.2959,635.4253,return,0.4486,,67.1875,,,,,,FBP-RB-17.png,0.43,1.2,34,0.25,,,,,,,,,,,,,0,58,58,33,1,,,,,,,,,,,,,,,,,,,,,,,,,,,,
,,,,,SPR24_003,19,Male,2024-04-03_11h13.54.155,jersey_experiment_5_v0,2023.2.2,Win32,84.74576271,,,,,,,,,,,,,,,,635.4254,636.4724,636.4725,637.1195,return,0.1553,,75,,,,,,FBP-OG-71.png,0.43,1.2,4,0.25,,,,,,,,,,,,,0,59,59,3,1,,,,,,,,,,,,,,,,,,,,,,,,,,,,
,,,,,SPR24_003,19,Male,2024-04-03_11h13.54.155,jersey_experiment_5_v0,2023.2.2,Win32,84.74576271,,,,,,,,,,,,,,,,637.1208,638.4138,638.4139,638.896,return,0.1986,,85.02604167,,,,,,FBP-PT-71.png,0.45,1.2,50,0.5,,,,,,,,,,,,,,,,,,0,0,0,49,1,,,,,,,,,,,,,,,,,,,,,,,
,,,,,SPR24_003,19,Male,2024-04-03_11h13.54.155,jersey_experiment_5_v0,2023.2.2,Win32,84.74576271,,,,,,,,,,,,,,,,638.8962,640.1903,640.1903,641.0491,return,0.2184,,38.93229167,,,,,,FBP-PT-71.png,0.4,1.2,48,0.5,,,,,,,,,,,,,,,,,,0,1,1,47,1,,,,,,,,,,,,,,,,,,,,,,,
,,,,,SPR24_003,19,Male,2024-04-03_11h13.54.155,jersey_experiment_5_v0,2023.2.2,Win32,84.74576271,,,,,,,,,,,,,,,,641.0494,642.3435,642.3436,643.0256,return,0.2512,,53.125,,,,,,FBP-YG-91.png,0.4,1.2,28,0.5,,,,,,,,,,,,,,,,,,0,2,2,27,1,,,,,,,,,,,,,,,,,,,,,,,
,,,,,SPR24_003,19,Male,2024-04-03_11h13.54.155,jersey_experiment_5_v0,2023.2.2,Win32,84.74576271,,,,,,,,,,,,,,,,643.0257,644.0729,644.0729,644.7668,return,0.1556,,51.5625,,,,,,FBP-OG-17.png,0.4,1.2,3,0.25,,,,,,,,,,,,,,,,,,0,3,3,2,1,,,,,,,,,,,,,,,,,,,,,,,
,,,,,SPR24_003,19,Male,2024-04-03_11h13.54.155,jersey_experiment_5_v0,2023.2.2,Win32,84.74576271,,,,,,,,,,,,,,,,644.767,645.8138,645.8139,648.4023,return,0.3056,,72.265625,,,,,,FBP-RB-71.png,0.45,1.2,35,0.25,,,,,,,,,,,,,,,,,,0,4,4,34,1,,,,,,,,,,,,,,,,,,,,,,,
,,,,,SPR24_003,19,Male,2024-04-03_11h13.54.155,jersey_experiment_5_v0,2023.2.2,Win32,84.74576271,,,,,,,,,,,,,,,,648.4026,649.4495,649.4495,650.2847,return,0.1678,,73.4375,,,,,,FBP-RB-91.png,0.43,1.2,44,0.25,,,,,,,,,,,,,,,,,,0,5,5,43,1,,,,,,,,,,,,,,,,,,,,,,,
,,,,,SPR24_003,19,Male,2024-04-03_11h13.54.155,jersey_experiment_5_v0,2023.2.2,Win32,84.74576271,,,,,,,,,,,,,,,,650.2849,651.3318,651.3318,653.2143,return,1.0975,,36.45833333,,,,,,FBP-RB-81.png,0.35,1.2,36,0.25,,,,,,,,,,,,,,,,,,0,6,6,35,1,,,,,,,,,,,,,,,,,,,,,,,
,,,,,SPR24_003,19,Male,2024-04-03_11h13.54.155,jersey_experiment_5_v0,2023.2.2,Win32,84.74576271,,,,,,,,,,,,,,,,653.2146,654.2614,654.2614,655.2027,return,0.3296,,58.72395833,,,,,,FBP-RB-81.png,0.4,1.2,38,0.25,,,,,,,,,,,,,,,,,,0,7,7,37,1,,,,,,,,,,,,,,,,,,,,,,,
,,,,,SPR24_003,19,Male,2024-04-03_11h13.54.155,jersey_experiment_5_v0,2023.2.2,Win32,84.74576271,,,,,,,,,,,,,,,,655.2029,656.2496,656.2496,657.7438,return,0.8258,,75.78125,,,,,,FBP-OG-19.png,0.45,1.2,15,0.25,,,,,,,,,,,,,,,,,,0,8,8,14,1,,,,,,,,,,,,,,,,,,,,,,,
,,,,,SPR24_003,19,Male,2024-04-03_11h13.54.155,jersey_experiment_5_v0,2023.2.2,Win32,84.74576271,,,,,,,,,,,,,,,,657.744,658.791,658.791,659.6497,return,0.2119,,65.88541667,,,,,,FBP-OG-19.png,0.43,1.2,14,0.25,,,,,,,,,,,,,,,,,,0,9,9,13,1,,,,,,,,,,,,,,,,,,,,,,,
,,,,,SPR24_003,19,Male,2024-04-03_11h13.54.155,jersey_experiment_5_v0,2023.2.2,Win32,84.74576271,,,,,,,,,,,,,,,,659.65,660.944,660.944,661.9322,return,0.6177,,49.86979167,,,,,,FBP-YG-71.png,0.35,1.2,16,0.5,,,,,,,,,,,,,,,,,,0,10,10,15,1,,,,,,,,,,,,,,,,,,,,,,,
,,,,,SPR24_003,19,Male,2024-04-03_11h13.54.155,jersey_experiment_5_v0,2023.2.2,Win32,84.74576271,,,,,,,,,,,,,,,,661.9324,662.9793,662.9794,664.1795,return,0.6732,,73.56770833,,,,,,FBP-OG-18.png,0.45,1.2,10,0.25,,,,,,,,,,,,,,,,,,0,11,11,9,1,,,,,,,,,,,,,,,,,,,,,,,
,,,,,SPR24_003,19,Male,2024-04-03_11h13.54.155,jersey_experiment_5_v0,2023.2.2,Win32,84.74576271,,,,,,,,,,,,,,,,664.1797,665.2265,665.2265,666.0618,return,0.2272,,60.80729167,,,,,,FBP-RB-91.png,0.37,1.2,42,0.25,,,,,,,,,,,,,,,,,,0,12,12,41,1,,,,,,,,,,,,,,,,,,,,,,,
,,,,,SPR24_003,19,Male,2024-04-03_11h13.54.155,jersey_experiment_5_v0,2023.2.2,Win32,84.74576271,,,,,,,,,,,,,,,,666.0621,667.3562,667.3562,668.1797,return,0.3892,,42.578125,,,,,,FBP-YG-91.png,0.35,1.2,26,0.5,,,,,,,,,,,,,,,,,,0,13,13,25,1,,,,,,,,,,,,,,,,,,,,,,,
,,,,,SPR24_003,19,Male,2024-04-03_11h13.54.155,jersey_experiment_5_v0,2023.2.2,Win32,84.74576271,,,,,,,,,,,,,,,,668.1799,669.4737,669.4737,670.1561,return,0.1447,,62.23958333,,,,,,FBP-YG-81.png,0.4,1.2,23,0.5,,,,,,,,,,,,,,,,,,0,14,14,22,1,,,,,,,,,,,,,,,,,,,,,,,
,,,,,SPR24_003,19,Male,2024-04-03_11h13.54.155,jersey_experiment_5_v0,2023.2.2,Win32,84.74576271,,,,,,,,,,,,,,,,670.1563,671.2031,671.2032,672.1443,return,0.1289,,73.828125,,,,,,FBP-RB-71.png,0.43,1.2,34,0.25,,,,,,,,,,,,,,,,,,0,15,15,33,1,,,,,,,,,,,,,,,,,,,,,,,
,,,,,SPR24_003,19,Male,2024-04-03_11h13.54.155,jersey_experiment_5_v0,2023.2.2,Win32,84.74576271,,,,,,,,,,,,,,,,672.1446,673.4385,673.4385,675.7798,return,1.8952,,52.86458333,,,,,,FBP-PT-71.png,0.35,1.2,46,0.5,,,,,,,,,,,,,,,,,,0,16,16,45,1,,,,,,,,,,,,,,,,,,,,,,,
,,,,,SPR24_003,19,Male,2024-04-03_11h13.54.155,jersey_experiment_5_v0,2023.2.2,Win32,84.74576271,,,,,,,,,,,,,,,,675.78,677.074,677.074,677.6739,return,0.2193,,37.5,,,,,,FBP-PT-81.png,0.35,1.2,51,0.5,,,,,,,,,,,,,,,,,,0,17,17,50,1,,,,,,,,,,,,,,,,,,,,,,,
,,,,,SPR24_003,19,Male,2024-04-03_11h13.54.155,jersey_experiment_5_v0,2023.2.2,Win32,84.74576271,,,,,,,,,,,,,,,,677.6741,678.9684,678.9684,679.4978,return,0.2792,,65.88541667,,,,,,FBP-YG-91.png,0.43,1.2,29,0.5,,,,,,,,,,,,,,,,,,0,18,18,28,1,,,,,,,,,,,,,,,,,,,,,,,
,,,,,SPR24_003,19,Male,2024-04-03_11h13.54.155,jersey_experiment_5_v0,2023.2.2,Win32,84.74576271,,,,,,,,,,,,,,,,679.498,680.792,680.792,681.38,return,0.2728,,74.86979167,,,,,,FBP-YG-91.png,0.45,1.2,30,0.5,,,,,,,,,,,,,,,,,,0,19,19,29,1,,,,,,,,,,,,,,,,,,,,,,,
,,,,,SPR24_003,19,Male,2024-04-03_11h13.54.155,jersey_experiment_5_v0,2023.2.2,Win32,84.74576271,,,,,,,,,,,,,,,,681.3803,682.4271,682.4272,683.1801,return,0.1323,,54.03645833,,,,,,FBP-OG-18.png,0.4,1.2,8,0.25,,,,,,,,,,,,,,,,,,0,20,20,7,1,,,,,,,,,,,,,,,,,,,,,,,
,,,,,SPR24_003,19,Male,2024-04-03_11h13.54.155,jersey_experiment_5_v0,2023.2.2,Win32,84.74576271,,,,,,,,,,,,,,,,683.1804,684.4741,684.4742,685.086,return,0.2021,,31.77083333,,,,,,FBP-YG-81.png,0.35,1.2,21,0.5,,,,,,,,,,,,,,,,,,0,21,21,20,1,,,,,,,,,,,,,,,,,,,,,,,
,,,,,SPR24_003,19,Male,2024-04-03_11h13.54.155,jersey_experiment_5_v0,2023.2.2,Win32,84.74576271,,,,,,,,,,,,,,,,685.0863,686.1332,686.1332,686.9215,return,0.2198,,23.828125,,,,,,FBP-OG-19.png,0.35,1.2,11,0.25,,,,,,,,,,,,,,,,,,0,22,22,10,1,,,,,,,,,,,,,,,,,,,,,,,
,,,,,SPR24_003,19,Male,2024-04-03_11h13.54.155,jersey_experiment_5_v0,2023.2.2,Win32,84.74576271,,,,,,,,,,,,,,,,686.9217,687.9686,687.9687,688.7335,return,0.2497,,18.61979167,,,,,,FBP-RB-71.png,0.35,1.2,31,0.25,,,,,,,,,,,,,,,,,,0,23,23,30,1,,,,,,,,,,,,,,,,,,,,,,,
,,,,,SPR24_003,19,Male,2024-04-03_11h13.54.155,jersey_experiment_5_v0,2023.2.2,Win32,84.74576271,,,,,,,,,,,,,,,,688.7337,690.0272,690.0273,690.604,return,0.1825,,26.171875,,,,,,FBP-PT-71.png,0.37,1.2,47,0.5,,,,,,,,,,,,,,,,,,0,24,24,46,1,,,,,,,,,,,,,,,,,,,,,,,
,,,,,SPR24_003,19,Male,2024-04-03_11h13.54.155,jersey_experiment_5_v0,2023.2.2,Win32,84.74576271,,,,,,,,,,,,,,,,690.6042,691.8983,691.8983,692.9217,return,0.511,,45.57291667,,,,,,FBP-YG-71.png,0.37,1.2,17,0.5,,,,,,,,,,,,,,,,,,0,25,25,16,1,,,,,,,,,,,,,,,,,,,,,,,
,,,,,SPR24_003,19,Male,2024-04-03_11h13.54.155,jersey_experiment_5_v0,2023.2.2,Win32,84.74576271,,,,,,,,,,,,,,,,692.922,693.9689,693.969,694.9808,return,0.3064,,39.19270833,,,,,,FBP-OG-17.png,0.37,1.2,2,0.25,,,,,,,,,,,,,,,,,,0,26,26,1,1,,,,,,,,,,,,,,,,,,,,,,,
,,,,,SPR24_003,19,Male,2024-04-03_11h13.54.155,jersey_experiment_5_v0,2023.2.2,Win32,84.74576271,,,,,,,,,,,,,,,,694.981,696.0276,696.0276,697.3217,return,0.6766,,49.34895833,,,,,,FBP-OG-19.png,0.37,1.2,12,0.25,,,,,,,,,,,,,,,,,,0,27,27,11,1,,,,,,,,,,,,,,,,,,,,,,,
,,,,,SPR24_003,19,Male,2024-04-03_11h13.54.155,jersey_experiment_5_v0,2023.2.2,Win32,84.74576271,,,,,,,,,,,,,,,,697.322,698.369,698.369,699.0044,return,0.167,,67.83854167,,,,,,FBP-RB-81.png,0.43,1.2,39,0.25,,,,,,,,,,,,,,,,,,0,28,28,38,1,,,,,,,,,,,,,,,,,,,,,,,
,,,,,SPR24_003,19,Male,2024-04-03_11h13.54.155,jersey_experiment_5_v0,2023.2.2,Win32,84.74576271,,,,,,,,,,,,,,,,699.0047,700.2984,700.2985,701.3925,return,0.6131,,57.8125,,,,,,FBP-YG-71.png,0.4,1.2,18,0.5,,,,,,,,,,,,,,,,,,0,29,29,17,1,,,,,,,,,,,,,,,,,,,,,,,
,,,,,SPR24_003,19,Male,2024-04-03_11h13.54.155,jersey_experiment_5_v0,2023.2.2,Win32,84.74576271,,,,,,,,,,,,,,,,701.3927,702.6869,702.6869,703.1691,return,0.2137,,69.40104167,,,,,,FBP-YG-71.png,0.45,1.2,20,0.5,,,,,,,,,,,,,,,,,,0,30,30,19,1,,,,,,,,,,,,,,,,,,,,,,,
,,,,,SPR24_003,19,Male,2024-04-03_11h13.54.155,jersey_experiment_5_v0,2023.2.2,Win32,84.74576271,,,,,,,,,,,,,,,,703.1694,704.4635,704.4635,705.2515,return,0.5413,,68.09895833,,,,,,FBP-YG-81.png,0.45,1.2,25,0.5,,,,,,,,,,,,,,,,,,0,31,31,24,1,,,,,,,,,,,,,,,,,,,,,,,
,,,,,SPR24_003,19,Male,2024-04-03_11h13.54.155,jersey_experiment_5_v0,2023.2.2,Win32,84.74576271,,,,,,,,,,,,,,,,705.2516,706.2986,706.2986,707.2987,return,0.2938,,41.14583333,,,,,,FBP-OG-17.png,0.35,1.2,1,0.25,,,,,,,,,,,,,,,,,,0,32,32,0,1,,,,,,,,,,,,,,,,,,,,,,,
,,,,,SPR24_003,19,Male,2024-04-03_11h13.54.155,jersey_experiment_5_v0,2023.2.2,Win32,84.74576271,,,,,,,,,,,,,,,,707.2989,708.5927,708.5928,709.3221,return,0.2882,,64.97395833,,,,,,FBP-PT-81.png,0.4,1.2,53,0.5,,,,,,,,,,,,,,,,,,0,33,33,52,1,,,,,,,,,,,,,,,,,,,,,,,
,,,,,SPR24_003,19,Male,2024-04-03_11h13.54.155,jersey_experiment_5_v0,2023.2.2,Win32,84.74576271,,,,,,,,,,,,,,,,709.3223,710.3695,710.3696,711.3223,return,0.2058,,54.16666667,,,,,,FBP-RB-71.png,0.37,1.2,32,0.25,,,,,,,,,,,,,,,,,,0,34,34,31,1,,,,,,,,,,,,,,,,,,,,,,,
,,,,,SPR24_003,19,Male,2024-04-03_11h13.54.155,jersey_experiment_5_v0,2023.2.2,Win32,84.74576271,,,,,,,,,,,,,,,,711.3225,712.3694,712.3694,713.1459,return,0.1138,,51.43229167,,,,,,FBP-OG-18.png,0.37,1.2,7,0.25,,,,,,,,,,,,,,,,,,0,35,35,6,1,,,,,,,,,,,,,,,,,,,,,,,
,,,,,SPR24_003,19,Male,2024-04-03_11h13.54.155,jersey_experiment_5_v0,2023.2.2,Win32,84.74576271,,,,,,,,,,,,,,,,713.1462,714.4403,714.4403,715.0283,return,0.141,,51.82291667,,,,,,FBP-PT-91.png,0.37,1.2,57,0.5,,,,,,,,,,,,,,,,,,0,36,36,56,1,,,,,,,,,,,,,,,,,,,,,,,
,,,,,SPR24_003,19,Male,2024-04-03_11h13.54.155,jersey_experiment_5_v0,2023.2.2,Win32,84.74576271,,,,,,,,,,,,,,,,715.0287,716.0754,716.0754,716.8518,return,0.1882,,72.91666667,,,,,,FBP-OG-17.png,0.45,1.2,5,0.25,,,,,,,,,,,,,,,,,,0,37,37,4,1,,,,,,,,,,,,,,,,,,,,,,,
,,,,,SPR24_003,19,Male,2024-04-03_11h13.54.155,jersey_experiment_5_v0,2023.2.2,Win32,84.74576271,,,,,,,,,,,,,,,,716.8521,718.1461,718.1462,719.1229,return,0.5864,,57.421875,,,,,,FBP-PT-91.png,0.4,1.2,58,0.5,,,,,,,,,,,,,,,,,,0,38,38,57,1,,,,,,,,,,,,,,,,,,,,,,,
,,,,,SPR24_003,19,Male,2024-04-03_11h13.54.155,jersey_experiment_5_v0,2023.2.2,Win32,84.74576271,,,,,,,,,,,,,,,,719.1232,720.4169,720.4169,721.1229,return,0.1884,,67.70833333,,,,,,FBP-YG-71.png,0.43,1.2,19,0.5,,,,,,,,,,,,,,,,,,0,39,39,18,1,,,,,,,,,,,,,,,,,,,,,,,
,,,,,SPR24_003,19,Male,2024-04-03_11h13.54.155,jersey_experiment_5_v0,2023.2.2,Win32,84.74576271,,,,,,,,,,,,,,,,721.1231,722.417,722.417,723.6757,return,0.5239,,59.375,,,,,,FBP-PT-71.png,0.43,1.2,49,0.5,,,,,,,,,,,,,,,,,,0,40,40,48,1,,,,,,,,,,,,,,,,,,,,,,,
,,,,,SPR24_003,19,Male,2024-04-03_11h13.54.155,jersey_experiment_5_v0,2023.2.2,Win32,84.74576271,,,,,,,,,,,,,,,,723.6759,724.7228,724.7229,725.3934,return,0.105,,58.72395833,,,,,,FBP-RB-91.png,0.4,1.2,43,0.25,,,,,,,,,,,,,,,,,,0,41,41,42,1,,,,,,,,,,,,,,,,,,,,,,,
,,,,,SPR24_003,19,Male,2024-04-03_11h13.54.155,jersey_experiment_5_v0,2023.2.2,Win32,84.74576271,,,,,,,,,,,,,,,,725.3937,726.6876,726.6877,727.3464,return,0.1029,,64.58333333,,,,,,FBP-PT-91.png,0.45,1.2,60,0.5,,,,,,,,,,,,,,,,,,0,42,42,59,1,,,,,,,,,,,,,,,,,,,,,,,
,,,,,SPR24_003,19,Male,2024-04-03_11h13.54.155,jersey_experiment_5_v0,2023.2.2,Win32,84.74576271,,,,,,,,,,,,,,,,727.3466,728.6407,728.6407,729.2171,return,0.1422,,31.77083333,,,,,,FBP-PT-91.png,0.35,1.2,56,0.5,,,,,,,,,,,,,,,,,,0,43,43,55,1,,,,,,,,,,,,,,,,,,,,,,,
,,,,,SPR24_003,19,Male,2024-04-03_11h13.54.155,jersey_experiment_5_v0,2023.2.2,Win32,84.74576271,,,,,,,,,,,,,,,,729.2173,730.5113,730.5113,732.2525,return,0.6756,,45.18229167,,,,,,FBP-PT-81.png,0.37,1.2,52,0.5,,,,,,,,,,,,,,,,,,0,44,44,51,1,,,,,,,,,,,,,,,,,,,,,,,
,,,,,SPR24_003,19,Male,2024-04-03_11h13.54.155,jersey_experiment_5_v0,2023.2.2,Win32,84.74576271,,,,,,,,,,,,,,,,732.2527,733.2996,733.2996,734.2527,return,0.4157,,61.06770833,,,,,,FBP-RB-91.png,0.45,1.2,45,0.25,,,,,,,,,,,,,,,,,,0,45,45,44,1,,,,,,,,,,,,,,,,,,,,,,,
,,,,,SPR24_003,19,Male,2024-04-03_11h13.54.155,jersey_experiment_5_v0,2023.2.2,Win32,84.74576271,,,,,,,,,,,,,,,,734.2529,735.2996,735.2997,736.1468,return,0.1511,,52.99479167,,,,,,FBP-OG-17.png,0.43,1.2,4,0.25,,,,,,,,,,,,,,,,,,0,46,46,3,1,,,,,,,,,,,,,,,,,,,,,,,
,,,,,SPR24_003,19,Male,2024-04-03_11h13.54.155,jersey_experiment_5_v0,2023.2.2,Win32,84.74576271,,,,,,,,,,,,,,,,736.147,737.1938,737.1938,737.9822,return,0.2251,,42.1875,,,,,,FBP-OG-18.png,0.35,1.2,6,0.25,,,,,,,,,,,,,,,,,,0,47,47,5,1,,,,,,,,,,,,,,,,,,,,,,,
,,,,,SPR24_003,19,Male,2024-04-03_11h13.54.155,jersey_experiment_5_v0,2023.2.2,Win32,84.74576271,,,,,,,,,,,,,,,,737.9823,739.2763,739.2765,739.853,return,0.2144,,35.15625,,,,,,FBP-YG-81.png,0.37,1.2,22,0.5,,,,,,,,,,,,,,,,,,0,48,48,21,1,,,,,,,,,,,,,,,,,,,,,,,
,,,,,SPR24_003,19,Male,2024-04-03_11h13.54.155,jersey_experiment_5_v0,2023.2.2,Win32,84.74576271,,,,,,,,,,,,,,,,739.8533,740.9,740.9,741.794,return,0.2827,,62.5,,,,,,FBP-OG-18.png,0.43,1.2,9,0.25,,,,,,,,,,,,,,,,,,0,49,49,8,1,,,,,,,,,,,,,,,,,,,,,,,
,,,,,SPR24_003,19,Male,2024-04-03_11h13.54.155,jersey_experiment_5_v0,2023.2.2,Win32,84.74576271,,,,,,,,,,,,,,,,741.7943,743.0882,743.0882,743.5942,return,0.2075,,72.265625,,,,,,FBP-PT-81.png,0.45,1.2,55,0.5,,,,,,,,,,,,,,,,,,0,50,50,54,1,,,,,,,,,,,,,,,,,,,,,,,
,,,,,SPR24_003,19,Male,2024-04-03_11h13.54.155,jersey_experiment_5_v0,2023.2.2,Win32,84.74576271,,,,,,,,,,,,,,,,743.5945,744.8883,744.8883,745.5824,return,0.2252,,67.1875,,,,,,FBP-PT-91.png,0.43,1.2,59,0.5,,,,,,,,,,,,,,,,,,0,51,51,58,1,,,,,,,,,,,,,,,,,,,,,,,
,,,,,SPR24_003,19,Male,2024-04-03_11h13.54.155,jersey_experiment_5_v0,2023.2.2,Win32,84.74576271,,,,,,,,,,,,,,,,745.5826,746.8766,746.8766,747.806,return,0.1648,,73.56770833,,,,,,FBP-YG-81.png,0.43,1.2,24,0.5,,,,,,,,,,,,,,,,,,0,52,52,23,1,,,,,,,,,,,,,,,,,,,,,,,
,,,,,SPR24_003,19,Male,2024-04-03_11h13.54.155,jersey_experiment_5_v0,2023.2.2,Win32,84.74576271,,,,,,,,,,,,,,,,747.8063,748.853,748.8531,749.8887,return,0.2364,,27.86458333,,,,,,FBP-RB-91.png,0.35,1.2,41,0.25,,,,,,,,,,,,,,,,,,0,53,53,40,1,,,,,,,,,,,,,,,,,,,,,,,
,,,,,SPR24_003,19,Male,2024-04-03_11h13.54.155,jersey_experiment_5_v0,2023.2.2,Win32,84.74576271,,,,,,,,,,,,,,,,749.8889,751.1827,751.1827,751.7708,return,0.1247,,66.40625,,,,,,FBP-PT-81.png,0.43,1.2,54,0.5,,,,,,,,,,,,,,,,,,0,54,54,53,1,,,,,,,,,,,,,,,,,,,,,,,
,,,,,SPR24_003,19,Male,2024-04-03_11h13.54.155,jersey_experiment_5_v0,2023.2.2,Win32,84.74576271,,,,,,,,,,,,,,,,751.771,752.818,752.818,753.8886,return,0.1659,,61.06770833,,,,,,FBP-RB-81.png,0.45,1.2,40,0.25,,,,,,,,,,,,,,,,,,0,55,55,39,1,,,,,,,,,,,,,,,,,,,,,,,
,,,,,SPR24_003,19,Male,2024-04-03_11h13.54.155,jersey_experiment_5_v0,2023.2.2,Win32,84.74576271,,,,,,,,,,,,,,,,753.8889,754.9357,754.9357,755.8651,return,0.1131,,57.421875,,,,,,FBP-RB-71.png,0.4,1.2,33,0.25,,,,,,,,,,,,,,,,,,0,56,56,32,1,,,,,,,,,,,,,,,,,,,,,,,
,,,,,SPR24_003,19,Male,2024-04-03_11h13.54.155,jersey_experiment_5_v0,2023.2.2,Win32,84.74576271,,,,,,,,,,,,,,,,755.8653,756.9122,756.9122,757.9004,return,0.0272,,53.125,,,,,,FBP-RB-81.png,0.37,1.2,37,0.25,,,,,,,,,,,,,,,,,,0,57,57,36,1,,,,,,,,,,,,,,,,,,,,,,,
,,,,,SPR24_003,19,Male,2024-04-03_11h13.54.155,jersey_experiment_5_v0,2023.2.2,Win32,84.74576271,,,,,,,,,,,,,,,,757.9007,758.9476,758.9476,759.7241,return,0.0998,,50.65104167,,,,,,FBP-OG-19.png,0.4,1.2,13,0.25,,,,,,,,,,,,,,,,,,0,58,58,12,1,,,,,,,,,,,,,,,,,,,,,,,
,,,,,SPR24_003,19,Male,2024-04-03_11h13.54.155,jersey_experiment_5_v0,2023.2.2,Win32,84.74576271,,,,,,,,,,,,,,,,759.7243,761.0184,761.0184,761.9359,return,0.1195,,45.96354167,,,,,,FBP-YG-91.png,0.37,1.2,27,0.5,,,,,,,,,,,,,,,,,,0,59,59,26,1,,,,,,,,,,,,,,,,,,,,,,,
,,,,,SPR24_003,19,Male,2024-04-03_11h13.54.155,jersey_experiment_5_v0,2023.2.2,Win32,84.74576271,,,,,,,,,,,,,,,,,,,,,,,,,,,,,,,,,,,,,,,,,,,,,,,,,,,,,,,,761.9363,767.2777,return,5.3317,,,,,,,,,,,,,,,,,,,
,,,,,SPR24_003,19,Male,2024-04-03_11h13.54.155,jersey_experiment_5_v0,2023.2.2,Win32,84.74576271,,,,,,,,,,,,,,,,,,,,,,,,,,,,,,,,,,,,,,,,,,,,,,,,,,,,,,,,,,,,,767.2778,772.2659,1,3.5106,return,1.4651,,,,,,,,,,,,
,,,,,SPR24_003,19,Male,2024-04-03_11h13.54.155,jersey_experiment_5_v0,2023.2.2,Win32,84.74576271,,,,,,,,,,,,,,,,,,,,,,,,,,,,,,,,,,,,,,,,,,,,,,,,,,,,,,,,,,,,,,,,,,,,772.2661,881.906,"I think that the study is conducted to see how overtime, our percetptions and personal beliefs can change. i found myself to be selecting more ""husky"" even though they may have been more on the slender side. Some of the colors were used as a variable to change the way we saw things, but nonetheless, I think this was a study to see how we may change our perceptions. ",right,104.0507,,,,,,
,,,,,SPR24_003,19,Male,2024-04-03_11h13.54.155,jersey_experiment_5_v0,2023.2.2,Win32,84.74576271,,,,,,,,,,,,,,,,,,,,,,,,,,,,,,,,,,,,,,,,,,,,,,,,,,,,,,,,,,,,,,,,,,,,,,,,,,881.9061,887.3409,return,5.4272,