requirements.started,requirements.stopped,key_resp_3.keys,key_resp_3.rt,key_resp_3.duration,Subject ID,Age,Gender,date,expName,psychopyVersion,OS,frameRate,instructions1.started,instructions1.stopped,key_resp.keys,key_resp.rt,key_resp.duration,example.started,example.stopped,enter_2.keys,enter_2.rt,enter_2.duration,instructions2.started,instructions2.stopped,enter_3.keys,enter_3.rt,enter_3.duration,image.started,image.stopped,slider_2.started,slider_2.stopped,next.keys,next.rt,next.duration,slider.response,trial_block_1.thisRepN,trial_block_1.thisTrialN,trial_block_1.thisN,trial_block_1.thisIndex,trial_block_1.ran,Path,Width,Height,Index,Duration,trial_block_2.thisRepN,trial_block_2.thisTrialN,trial_block_2.thisN,trial_block_2.thisIndex,trial_block_2.ran,rest_break.started,rest_break.stopped,end_break.started,end_break.stopped,key_resp_5.keys,key_resp_5.rt,key_resp_5.duration,trial_block_3.thisRepN,trial_block_3.thisTrialN,trial_block_3.thisN,trial_block_3.thisIndex,trial_block_3.ran,trial_block_4.thisRepN,trial_block_4.thisTrialN,trial_block_4.thisN,trial_block_4.thisIndex,trial_block_4.ran,questions_intro.started,questions_intro.stopped,enter_12.keys,enter_12.rt,enter_12.duration,question2.started,question2.stopped,question_doingbest.response,question_doingbest.rt,enter_15.keys,enter_15.rt,enter_15.duration,pattern.started,pattern.stopped,pattern_2.text,enter_17.keys,enter_17.rt,enter_17.duration,thankyou.started,thankyou.stopped,enter_14.keys,enter_14.rt,enter_14.duration
0.0001,9.7712,return,9.7654,,SPR24_029,20,Female,2024-04-10_11h31.33.774,jersey_experiment_5_v0,2023.2.2,Win32,84.74576271,,,,,,,,,,,,,,,,,,,,,,,,,,,,,,,,,,,,,,,,,,,,,,,,,,,,,,,,,,,,,,,,,,,,,,,,,,,,,,
,,,,,SPR24_029,20,Female,2024-04-10_11h31.33.774,jersey_experiment_5_v0,2023.2.2,Win32,84.74576271,9.7713,16.6739,return,6.8838,,,,,,,,,,,,,,,,,,,,,,,,,,,,,,,,,,,,,,,,,,,,,,,,,,,,,,,,,,,,,,,,,,,,,,,,,,
,,,,,SPR24_029,20,Female,2024-04-10_11h31.33.774,jersey_experiment_5_v0,2023.2.2,Win32,84.74576271,,,,,,16.6739,20.1211,return,3.4121,,,,,,,,,,,,,,,,,,,,,,,,,,,,,,,,,,,,,,,,,,,,,,,,,,,,,,,,,,,,,,,,,,,,,
,,,,,SPR24_029,20,Female,2024-04-10_11h31.33.774,jersey_experiment_5_v0,2023.2.2,Win32,84.74576271,,,,,,,,,,,20.1211,38.3335,return,18.1991,,,,,,,,,,,,,,,,,,,,,,,,,,,,,,,,,,,,,,,,,,,,,,,,,,,,,,,,,,,,,,,,
,,,,,SPR24_029,20,Female,2024-04-10_11h31.33.774,jersey_experiment_5_v0,2023.2.2,Win32,84.74576271,,,,,,,,,,,,,,,,38.3404,39.6391,39.6392,57.0868,return,3.2943,,74.73958333,0,0,0,14,1,FBP-OG-91.png,0.45,1.2,15,0.5,,,,,,,,,,,,,,,,,,,,,,,,,,,,,,,,,,,,,,,,,,,,,
,,,,,SPR24_029,20,Female,2024-04-10_11h31.33.774,jersey_experiment_5_v0,2023.2.2,Win32,84.74576271,,,,,,,,,,,,,,,,57.0873,58.381,58.381,65.452,return,1.1066,,49.609375,0,1,1,36,1,FBP-RB-18.png,0.37,1.2,37,0.5,,,,,,,,,,,,,,,,,,,,,,,,,,,,,,,,,,,,,,,,,,,,,
,,,,,SPR24_029,20,Female,2024-04-10_11h31.33.774,jersey_experiment_5_v0,2023.2.2,Win32,84.74576271,,,,,,,,,,,,,,,,65.4523,66.7462,66.7462,75.3227,return,1.3077,,37.23958333,0,2,2,11,1,FBP-OG-91.png,0.37,1.2,12,0.5,,,,,,,,,,,,,,,,,,,,,,,,,,,,,,,,,,,,,,,,,,,,,
,,,,,SPR24_029,20,Female,2024-04-10_11h31.33.774,jersey_experiment_5_v0,2023.2.2,Win32,84.74576271,,,,,,,,,,,,,,,,75.323,76.6169,76.617,80.1585,return,0.9325,,24.609375,0,3,3,41,1,FBP-RB-19.png,0.37,1.2,42,0.5,,,,,,,,,,,,,,,,,,,,,,,,,,,,,,,,,,,,,,,,,,,,,
,,,,,SPR24_029,20,Female,2024-04-10_11h31.33.774,jersey_experiment_5_v0,2023.2.2,Win32,84.74576271,,,,,,,,,,,,,,,,80.1587,81.2053,81.2053,85.6761,return,0.7795,,63.54166667,0,4,4,58,1,FBP-PT-19.png,0.43,1.2,59,0.25,,,,,,,,,,,,,,,,,,,,,,,,,,,,,,,,,,,,,,,,,,,,,
,,,,,SPR24_029,20,Female,2024-04-10_11h31.33.774,jersey_experiment_5_v0,2023.2.2,Win32,84.74576271,,,,,,,,,,,,,,,,85.6763,86.7233,86.7234,89.0997,return,0.8246,,76.69270833,0,5,5,49,1,FBP-PT-17.png,0.45,1.2,50,0.25,,,,,,,,,,,,,,,,,,,,,,,,,,,,,,,,,,,,,,,,,,,,,
,,,,,SPR24_029,20,Female,2024-04-10_11h31.33.774,jersey_experiment_5_v0,2023.2.2,Win32,84.74576271,,,,,,,,,,,,,,,,89.1,90.1468,90.1468,93.147,return,0.8728,,89.453125,0,6,6,19,1,FBP-YG-17.png,0.45,1.2,20,0.25,,,,,,,,,,,,,,,,,,,,,,,,,,,,,,,,,,,,,,,,,,,,,
,,,,,SPR24_029,20,Female,2024-04-10_11h31.33.774,jersey_experiment_5_v0,2023.2.2,Win32,84.74576271,,,,,,,,,,,,,,,,93.1473,94.1942,94.1942,97.5001,return,0.9419,,24.73958333,0,7,7,21,1,FBP-YG-18.png,0.37,1.2,22,0.25,,,,,,,,,,,,,,,,,,,,,,,,,,,,,,,,,,,,,,,,,,,,,
,,,,,SPR24_029,20,Female,2024-04-10_11h31.33.774,jersey_experiment_5_v0,2023.2.2,Win32,84.74576271,,,,,,,,,,,,,,,,97.5004,98.5471,98.5472,102.0062,return,0.9832,,49.609375,0,8,8,53,1,FBP-PT-18.png,0.43,1.2,54,0.25,,,,,,,,,,,,,,,,,,,,,,,,,,,,,,,,,,,,,,,,,,,,,
,,,,,SPR24_029,20,Female,2024-04-10_11h31.33.774,jersey_experiment_5_v0,2023.2.2,Win32,84.74576271,,,,,,,,,,,,,,,,102.0063,103.3003,103.3003,106.0299,return,0.7075,,85.546875,0,9,9,9,1,FBP-OG-81.png,0.45,1.2,10,0.5,,,,,,,,,,,,,,,,,,,,,,,,,,,,,,,,,,,,,,,,,,,,,
,,,,,SPR24_029,20,Female,2024-04-10_11h31.33.774,jersey_experiment_5_v0,2023.2.2,Win32,84.74576271,,,,,,,,,,,,,,,,106.0301,107.0771,107.0771,110.1713,return,0.8749,,9.505208333,0,10,10,45,1,FBP-PT-17.png,0.35,1.2,46,0.25,,,,,,,,,,,,,,,,,,,,,,,,,,,,,,,,,,,,,,,,,,,,,
,,,,,SPR24_029,20,Female,2024-04-10_11h31.33.774,jersey_experiment_5_v0,2023.2.2,Win32,84.74576271,,,,,,,,,,,,,,,,110.1716,111.4655,111.4655,116.5598,return,1.0495,,5.078125,0,11,11,0,1,FBP-OG-71.png,0.35,1.2,1,0.5,,,,,,,,,,,,,,,,,,,,,,,,,,,,,,,,,,,,,,,,,,,,,
,,,,,SPR24_029,20,Female,2024-04-10_11h31.33.774,jersey_experiment_5_v0,2023.2.2,Win32,84.74576271,,,,,,,,,,,,,,,,116.56,117.8539,117.854,120.1128,return,0.6971,,17.70833333,0,12,12,5,1,FBP-OG-81.png,0.35,1.2,6,0.5,,,,,,,,,,,,,,,,,,,,,,,,,,,,,,,,,,,,,,,,,,,,,
,,,,,SPR24_029,20,Female,2024-04-10_11h31.33.774,jersey_experiment_5_v0,2023.2.2,Win32,84.74576271,,,,,,,,,,,,,,,,120.113,121.1599,121.1599,124.0777,return,0.7313,,89.84375,0,13,13,54,1,FBP-PT-18.png,0.45,1.2,55,0.25,,,,,,,,,,,,,,,,,,,,,,,,,,,,,,,,,,,,,,,,,,,,,
,,,,,SPR24_029,20,Female,2024-04-10_11h31.33.774,jersey_experiment_5_v0,2023.2.2,Win32,84.74576271,,,,,,,,,,,,,,,,124.0779,125.1247,125.1248,127.3603,return,0.7912,,94.01041667,0,14,14,59,1,FBP-PT-19.png,0.45,1.2,60,0.25,,,,,,,,,,,,,,,,,,,,,,,,,,,,,,,,,,,,,,,,,,,,,
,,,,,SPR24_029,20,Female,2024-04-10_11h31.33.774,jersey_experiment_5_v0,2023.2.2,Win32,84.74576271,,,,,,,,,,,,,,,,127.3605,128.6544,128.6545,131.4545,return,0.8385,,90.10416667,0,15,15,37,1,FBP-RB-18.png,0.4,1.2,38,0.5,,,,,,,,,,,,,,,,,,,,,,,,,,,,,,,,,,,,,,,,,,,,,
,,,,,SPR24_029,20,Female,2024-04-10_11h31.33.774,jersey_experiment_5_v0,2023.2.2,Win32,84.74576271,,,,,,,,,,,,,,,,131.4548,132.7486,132.7487,135.2545,return,0.8182,,90.88541667,0,16,16,8,1,FBP-OG-81.png,0.43,1.2,9,0.5,,,,,,,,,,,,,,,,,,,,,,,,,,,,,,,,,,,,,,,,,,,,,
,,,,,SPR24_029,20,Female,2024-04-10_11h31.33.774,jersey_experiment_5_v0,2023.2.2,Win32,84.74576271,,,,,,,,,,,,,,,,135.2547,136.3019,136.302,139.9842,return,1.7415,,96.74479167,0,17,17,18,1,FBP-YG-17.png,0.43,1.2,19,0.25,,,,,,,,,,,,,,,,,,,,,,,,,,,,,,,,,,,,,,,,,,,,,
,,,,,SPR24_029,20,Female,2024-04-10_11h31.33.774,jersey_experiment_5_v0,2023.2.2,Win32,84.74576271,,,,,,,,,,,,,,,,139.9843,141.0312,141.0314,144.6314,return,0.8554,,67.70833333,0,18,18,27,1,FBP-YG-19.png,0.4,1.2,28,0.25,,,,,,,,,,,,,,,,,,,,,,,,,,,,,,,,,,,,,,,,,,,,,
,,,,,SPR24_029,20,Female,2024-04-10_11h31.33.774,jersey_experiment_5_v0,2023.2.2,Win32,84.74576271,,,,,,,,,,,,,,,,144.6316,145.9255,145.9255,147.9845,return,0.715,,55.59895833,0,19,19,7,1,FBP-OG-81.png,0.4,1.2,8,0.5,,,,,,,,,,,,,,,,,,,,,,,,,,,,,,,,,,,,,,,,,,,,,
,,,,,SPR24_029,20,Female,2024-04-10_11h31.33.774,jersey_experiment_5_v0,2023.2.2,Win32,84.74576271,,,,,,,,,,,,,,,,147.9848,149.0317,149.0317,151.9847,return,0.8944,,35.67708333,0,20,20,15,1,FBP-YG-17.png,0.35,1.2,16,0.25,,,,,,,,,,,,,,,,,,,,,,,,,,,,,,,,,,,,,,,,,,,,,
,,,,,SPR24_029,20,Female,2024-04-10_11h31.33.774,jersey_experiment_5_v0,2023.2.2,Win32,84.74576271,,,,,,,,,,,,,,,,151.9849,153.0318,153.0318,157.0672,return,0.9309,,20.3125,0,21,21,20,1,FBP-YG-18.png,0.35,1.2,21,0.25,,,,,,,,,,,,,,,,,,,,,,,,,,,,,,,,,,,,,,,,,,,,,
,,,,,SPR24_029,20,Female,2024-04-10_11h31.33.774,jersey_experiment_5_v0,2023.2.2,Win32,84.74576271,,,,,,,,,,,,,,,,157.0675,158.3614,158.3614,161.0555,return,0.6587,,32.94270833,0,22,22,40,1,FBP-RB-19.png,0.35,1.2,41,0.5,,,,,,,,,,,,,,,,,,,,,,,,,,,,,,,,,,,,,,,,,,,,,
,,,,,SPR24_029,20,Female,2024-04-10_11h31.33.774,jersey_experiment_5_v0,2023.2.2,Win32,84.74576271,,,,,,,,,,,,,,,,161.0558,162.3497,162.3498,165.9029,return,0.6739,,38.93229167,0,23,23,31,1,FBP-RB-17.png,0.37,1.2,32,0.5,,,,,,,,,,,,,,,,,,,,,,,,,,,,,,,,,,,,,,,,,,,,,
,,,,,SPR24_029,20,Female,2024-04-10_11h31.33.774,jersey_experiment_5_v0,2023.2.2,Win32,84.74576271,,,,,,,,,,,,,,,,165.9031,167.197,167.1971,169.7383,return,0.5582,,74.47916667,0,24,24,13,1,FBP-OG-91.png,0.43,1.2,14,0.5,,,,,,,,,,,,,,,,,,,,,,,,,,,,,,,,,,,,,,,,,,,,,
,,,,,SPR24_029,20,Female,2024-04-10_11h31.33.774,jersey_experiment_5_v0,2023.2.2,Win32,84.74576271,,,,,,,,,,,,,,,,169.7386,170.7852,170.7852,176.4797,return,4.8006,,67.05729167,0,25,25,57,1,FBP-PT-19.png,0.4,1.2,58,0.25,,,,,,,,,,,,,,,,,,,,,,,,,,,,,,,,,,,,,,,,,,,,,
,,,,,SPR24_029,20,Female,2024-04-10_11h31.33.774,jersey_experiment_5_v0,2023.2.2,Win32,84.74576271,,,,,,,,,,,,,,,,176.4843,177.7857,177.7857,181.1975,return,1.529,,75.65104167,0,26,26,3,1,FBP-OG-71.png,0.43,1.2,4,0.5,,,,,,,,,,,,,,,,,,,,,,,,,,,,,,,,,,,,,,,,,,,,,
,,,,,SPR24_029,20,Female,2024-04-10_11h31.33.774,jersey_experiment_5_v0,2023.2.2,Win32,84.74576271,,,,,,,,,,,,,,,,181.1977,182.4917,182.4917,184.233,return,0.7241,,89.32291667,0,27,27,38,1,FBP-RB-18.png,0.43,1.2,39,0.5,,,,,,,,,,,,,,,,,,,,,,,,,,,,,,,,,,,,,,,,,,,,,
,,,,,SPR24_029,20,Female,2024-04-10_11h31.33.774,jersey_experiment_5_v0,2023.2.2,Win32,84.74576271,,,,,,,,,,,,,,,,184.2332,185.5271,185.5271,188.3508,return,0.7524,,49.86979167,0,28,28,10,1,FBP-OG-91.png,0.35,1.2,11,0.5,,,,,,,,,,,,,,,,,,,,,,,,,,,,,,,,,,,,,,,,,,,,,
,,,,,SPR24_029,20,Female,2024-04-10_11h31.33.774,jersey_experiment_5_v0,2023.2.2,Win32,84.74576271,,,,,,,,,,,,,,,,188.3511,189.6448,189.6448,191.6331,return,0.6121,,93.22916667,0,29,29,4,1,FBP-OG-71.png,0.45,1.2,5,0.5,,,,,,,,,,,,,,,,,,,,,,,,,,,,,,,,,,,,,,,,,,,,,
,,,,,SPR24_029,20,Female,2024-04-10_11h31.33.774,jersey_experiment_5_v0,2023.2.2,Win32,84.74576271,,,,,,,,,,,,,,,,191.6334,192.9273,192.9273,194.3157,return,0.6247,,95.3125,0,30,30,39,1,FBP-RB-18.png,0.45,1.2,40,0.5,,,,,,,,,,,,,,,,,,,,,,,,,,,,,,,,,,,,,,,,,,,,,
,,,,,SPR24_029,20,Female,2024-04-10_11h31.33.774,jersey_experiment_5_v0,2023.2.2,Win32,84.74576271,,,,,,,,,,,,,,,,194.3159,195.6098,195.6099,197.704,return,0.6763,,90.49479167,0,31,31,32,1,FBP-RB-17.png,0.4,1.2,33,0.5,,,,,,,,,,,,,,,,,,,,,,,,,,,,,,,,,,,,,,,,,,,,,
,,,,,SPR24_029,20,Female,2024-04-10_11h31.33.774,jersey_experiment_5_v0,2023.2.2,Win32,84.74576271,,,,,,,,,,,,,,,,197.7041,198.7512,198.7512,200.5982,return,0.7389,,94.40104167,0,32,32,48,1,FBP-PT-17.png,0.43,1.2,49,0.25,,,,,,,,,,,,,,,,,,,,,,,,,,,,,,,,,,,,,,,,,,,,,
,,,,,SPR24_029,20,Female,2024-04-10_11h31.33.774,jersey_experiment_5_v0,2023.2.2,Win32,84.74576271,,,,,,,,,,,,,,,,200.5984,201.8924,201.8925,204.1984,return,0.7949,,49.609375,0,33,33,1,1,FBP-OG-71.png,0.37,1.2,2,0.5,,,,,,,,,,,,,,,,,,,,,,,,,,,,,,,,,,,,,,,,,,,,,
,,,,,SPR24_029,20,Female,2024-04-10_11h31.33.774,jersey_experiment_5_v0,2023.2.2,Win32,84.74576271,,,,,,,,,,,,,,,,204.1986,205.4926,205.4926,207.7279,return,0.6591,,70.57291667,0,34,34,12,1,FBP-OG-91.png,0.4,1.2,13,0.5,,,,,,,,,,,,,,,,,,,,,,,,,,,,,,,,,,,,,,,,,,,,,
,,,,,SPR24_029,20,Female,2024-04-10_11h31.33.774,jersey_experiment_5_v0,2023.2.2,Win32,84.74576271,,,,,,,,,,,,,,,,207.7282,208.7751,208.7752,212.2222,return,2.5192,,69.66145833,0,35,35,17,1,FBP-YG-17.png,0.4,1.2,18,0.25,,,,,,,,,,,,,,,,,,,,,,,,,,,,,,,,,,,,,,,,,,,,,
,,,,,SPR24_029,20,Female,2024-04-10_11h31.33.774,jersey_experiment_5_v0,2023.2.2,Win32,84.74576271,,,,,,,,,,,,,,,,212.2224,213.5163,213.5165,216.3283,return,0.631,,74.86979167,0,36,36,2,1,FBP-OG-71.png,0.4,1.2,3,0.5,,,,,,,,,,,,,,,,,,,,,,,,,,,,,,,,,,,,,,,,,,,,,
,,,,,SPR24_029,20,Female,2024-04-10_11h31.33.774,jersey_experiment_5_v0,2023.2.2,Win32,84.74576271,,,,,,,,,,,,,,,,216.3286,217.3754,217.3754,219.1521,return,0.6972,,74.73958333,0,37,37,29,1,FBP-YG-19.png,0.45,1.2,30,0.25,,,,,,,,,,,,,,,,,,,,,,,,,,,,,,,,,,,,,,,,,,,,,
,,,,,SPR24_029,20,Female,2024-04-10_11h31.33.774,jersey_experiment_5_v0,2023.2.2,Win32,84.74576271,,,,,,,,,,,,,,,,219.1523,220.4463,220.4463,222.4109,return,0.7439,,77.99479167,0,38,38,43,1,FBP-RB-19.png,0.43,1.2,44,0.5,,,,,,,,,,,,,,,,,,,,,,,,,,,,,,,,,,,,,,,,,,,,,
,,,,,SPR24_029,20,Female,2024-04-10_11h31.33.774,jersey_experiment_5_v0,2023.2.2,Win32,84.74576271,,,,,,,,,,,,,,,,222.4112,223.4579,223.4579,225.6933,return,0.7439,,23.95833333,0,39,39,46,1,FBP-PT-17.png,0.37,1.2,47,0.25,,,,,,,,,,,,,,,,,,,,,,,,,,,,,,,,,,,,,,,,,,,,,
,,,,,SPR24_029,20,Female,2024-04-10_11h31.33.774,jersey_experiment_5_v0,2023.2.2,Win32,84.74576271,,,,,,,,,,,,,,,,225.6935,226.9875,226.9875,230.2229,return,0.6219,,70.703125,0,40,40,33,1,FBP-RB-17.png,0.43,1.2,34,0.5,,,,,,,,,,,,,,,,,,,,,,,,,,,,,,,,,,,,,,,,,,,,,
,,,,,SPR24_029,20,Female,2024-04-10_11h31.33.774,jersey_experiment_5_v0,2023.2.2,Win32,84.74576271,,,,,,,,,,,,,,,,230.223,231.2701,231.2702,233.6818,return,0.6918,,30.46875,0,41,41,55,1,FBP-PT-19.png,0.35,1.2,56,0.25,,,,,,,,,,,,,,,,,,,,,,,,,,,,,,,,,,,,,,,,,,,,,
,,,,,SPR24_029,20,Female,2024-04-10_11h31.33.774,jersey_experiment_5_v0,2023.2.2,Win32,84.74576271,,,,,,,,,,,,,,,,233.6821,234.7289,234.7289,236.329,return,0.8984,,30.72916667,0,42,42,25,1,FBP-YG-19.png,0.35,1.2,26,0.25,,,,,,,,,,,,,,,,,,,,,,,,,,,,,,,,,,,,,,,,,,,,,
,,,,,SPR24_029,20,Female,2024-04-10_11h31.33.774,jersey_experiment_5_v0,2023.2.2,Win32,84.74576271,,,,,,,,,,,,,,,,236.3291,237.376,237.3761,240.2351,return,0.6046,,58.46354167,0,43,43,52,1,FBP-PT-18.png,0.4,1.2,53,0.25,,,,,,,,,,,,,,,,,,,,,,,,,,,,,,,,,,,,,,,,,,,,,
,,,,,SPR24_029,20,Female,2024-04-10_11h31.33.774,jersey_experiment_5_v0,2023.2.2,Win32,84.74576271,,,,,,,,,,,,,,,,240.2353,241.5292,241.5292,244.0941,return,0.6585,,80.33854167,0,44,44,34,1,FBP-RB-17.png,0.45,1.2,35,0.5,,,,,,,,,,,,,,,,,,,,,,,,,,,,,,,,,,,,,,,,,,,,,
,,,,,SPR24_029,20,Female,2024-04-10_11h31.33.774,jersey_experiment_5_v0,2023.2.2,Win32,84.74576271,,,,,,,,,,,,,,,,244.0943,245.1411,245.1411,247.7883,return,0.6129,,45.44270833,0,45,45,16,1,FBP-YG-17.png,0.37,1.2,17,0.25,,,,,,,,,,,,,,,,,,,,,,,,,,,,,,,,,,,,,,,,,,,,,
,,,,,SPR24_029,20,Female,2024-04-10_11h31.33.774,jersey_experiment_5_v0,2023.2.2,Win32,84.74576271,,,,,,,,,,,,,,,,247.7885,249.0825,249.0825,251.6591,return,2.099,,43.48958333,0,46,46,30,1,FBP-RB-17.png,0.35,1.2,31,0.5,,,,,,,,,,,,,,,,,,,,,,,,,,,,,,,,,,,,,,,,,,,,,
,,,,,SPR24_029,20,Female,2024-04-10_11h31.33.774,jersey_experiment_5_v0,2023.2.2,Win32,84.74576271,,,,,,,,,,,,,,,,251.6593,252.9532,252.9532,255.7534,return,1.2534,,28.77604167,0,47,47,35,1,FBP-RB-18.png,0.35,1.2,36,0.5,,,,,,,,,,,,,,,,,,,,,,,,,,,,,,,,,,,,,,,,,,,,,
,,,,,SPR24_029,20,Female,2024-04-10_11h31.33.774,jersey_experiment_5_v0,2023.2.2,Win32,84.74576271,,,,,,,,,,,,,,,,255.7535,256.8006,256.8006,261.0831,return,2.6049,,34.765625,0,48,48,26,1,FBP-YG-19.png,0.37,1.2,27,0.25,,,,,,,,,,,,,,,,,,,,,,,,,,,,,,,,,,,,,,,,,,,,,
,,,,,SPR24_029,20,Female,2024-04-10_11h31.33.774,jersey_experiment_5_v0,2023.2.2,Win32,84.74576271,,,,,,,,,,,,,,,,261.0834,262.3772,262.3772,266.0244,return,0.5926,,60.02604167,0,49,49,6,1,FBP-OG-81.png,0.37,1.2,7,0.5,,,,,,,,,,,,,,,,,,,,,,,,,,,,,,,,,,,,,,,,,,,,,
,,,,,SPR24_029,20,Female,2024-04-10_11h31.33.774,jersey_experiment_5_v0,2023.2.2,Win32,84.74576271,,,,,,,,,,,,,,,,266.0246,267.0715,267.0715,270.8953,return,1.1665,,43.09895833,0,50,50,56,1,FBP-PT-19.png,0.37,1.2,57,0.25,,,,,,,,,,,,,,,,,,,,,,,,,,,,,,,,,,,,,,,,,,,,,
,,,,,SPR24_029,20,Female,2024-04-10_11h31.33.774,jersey_experiment_5_v0,2023.2.2,Win32,84.74576271,,,,,,,,,,,,,,,,270.8956,271.9421,271.9421,274.2717,return,0.6445,,74.73958333,0,51,51,28,1,FBP-YG-19.png,0.43,1.2,29,0.25,,,,,,,,,,,,,,,,,,,,,,,,,,,,,,,,,,,,,,,,,,,,,
,,,,,SPR24_029,20,Female,2024-04-10_11h31.33.774,jersey_experiment_5_v0,2023.2.2,Win32,84.74576271,,,,,,,,,,,,,,,,274.2719,275.3188,275.3189,277.2955,return,0.6825,,81.25,0,52,52,47,1,FBP-PT-17.png,0.4,1.2,48,0.25,,,,,,,,,,,,,,,,,,,,,,,,,,,,,,,,,,,,,,,,,,,,,
,,,,,SPR24_029,20,Female,2024-04-10_11h31.33.774,jersey_experiment_5_v0,2023.2.2,Win32,84.74576271,,,,,,,,,,,,,,,,277.2957,278.5898,278.5898,280.2014,return,0.6741,,91.015625,0,53,53,44,1,FBP-RB-19.png,0.45,1.2,45,0.5,,,,,,,,,,,,,,,,,,,,,,,,,,,,,,,,,,,,,,,,,,,,,
,,,,,SPR24_029,20,Female,2024-04-10_11h31.33.774,jersey_experiment_5_v0,2023.2.2,Win32,84.74576271,,,,,,,,,,,,,,,,280.2016,281.2489,281.2489,283.2016,return,0.7435,,92.578125,0,54,54,22,1,FBP-YG-18.png,0.4,1.2,23,0.25,,,,,,,,,,,,,,,,,,,,,,,,,,,,,,,,,,,,,,,,,,,,,
,,,,,SPR24_029,20,Female,2024-04-10_11h31.33.774,jersey_experiment_5_v0,2023.2.2,Win32,84.74576271,,,,,,,,,,,,,,,,283.2018,284.2484,284.2485,287.037,return,0.6264,,70.703125,0,55,55,51,1,FBP-PT-18.png,0.37,1.2,52,0.25,,,,,,,,,,,,,,,,,,,,,,,,,,,,,,,,,,,,,,,,,,,,,
,,,,,SPR24_029,20,Female,2024-04-10_11h31.33.774,jersey_experiment_5_v0,2023.2.2,Win32,84.74576271,,,,,,,,,,,,,,,,287.0372,288.084,288.0841,290.6372,return,0.8857,,87.890625,0,56,56,23,1,FBP-YG-18.png,0.43,1.2,24,0.25,,,,,,,,,,,,,,,,,,,,,,,,,,,,,,,,,,,,,,,,,,,,,
,,,,,SPR24_029,20,Female,2024-04-10_11h31.33.774,jersey_experiment_5_v0,2023.2.2,Win32,84.74576271,,,,,,,,,,,,,,,,290.6375,291.6842,291.6842,297.5197,return,0.7535,,63.54166667,0,57,57,50,1,FBP-PT-18.png,0.35,1.2,51,0.25,,,,,,,,,,,,,,,,,,,,,,,,,,,,,,,,,,,,,,,,,,,,,
,,,,,SPR24_029,20,Female,2024-04-10_11h31.33.774,jersey_experiment_5_v0,2023.2.2,Win32,84.74576271,,,,,,,,,,,,,,,,297.5199,298.5667,298.5668,300.8022,return,0.6966,,99.21875,0,58,58,24,1,FBP-YG-18.png,0.45,1.2,25,0.25,,,,,,,,,,,,,,,,,,,,,,,,,,,,,,,,,,,,,,,,,,,,,
,,,,,SPR24_029,20,Female,2024-04-10_11h31.33.774,jersey_experiment_5_v0,2023.2.2,Win32,84.74576271,,,,,,,,,,,,,,,,300.8024,302.0964,302.0964,303.614,return,0.637,,95.3125,0,59,59,42,1,FBP-RB-19.png,0.4,1.2,43,0.5,,,,,,,,,,,,,,,,,,,,,,,,,,,,,,,,,,,,,,,,,,,,,
,,,,,SPR24_029,20,Female,2024-04-10_11h31.33.774,jersey_experiment_5_v0,2023.2.2,Win32,84.74576271,,,,,,,,,,,,,,,,303.616,304.6612,304.6612,307.2613,return,0.7881,,61.71875,,,,,,FBP-PT-71.png,0.4,1.2,48,0.25,0,0,0,47,1,,,,,,,,,,,,,,,,,,,,,,,,,,,,,,,,,,,,,,,,
,,,,,SPR24_029,20,Female,2024-04-10_11h31.33.774,jersey_experiment_5_v0,2023.2.2,Win32,84.74576271,,,,,,,,,,,,,,,,307.2615,308.3084,308.3085,310.7672,return,0.6921,,99.21875,,,,,,FBP-PT-91.png,0.43,1.2,59,0.25,0,1,1,58,1,,,,,,,,,,,,,,,,,,,,,,,,,,,,,,,,,,,,,,,,
,,,,,SPR24_029,20,Female,2024-04-10_11h31.33.774,jersey_experiment_5_v0,2023.2.2,Win32,84.74576271,,,,,,,,,,,,,,,,310.7675,311.8143,311.8144,315.9204,return,1.6943,,92.44791667,,,,,,FBP-YG-91.png,0.43,1.2,29,0.25,0,2,2,28,1,,,,,,,,,,,,,,,,,,,,,,,,,,,,,,,,,,,,,,,,
,,,,,SPR24_029,20,Female,2024-04-10_11h31.33.774,jersey_experiment_5_v0,2023.2.2,Win32,84.74576271,,,,,,,,,,,,,,,,315.9206,317.2145,317.2146,319.8972,return,0.6891,,5.078125,,,,,,FBP-RB-71.png,0.35,1.2,31,0.5,0,3,3,30,1,,,,,,,,,,,,,,,,,,,,,,,,,,,,,,,,,,,,,,,,
,,,,,SPR24_029,20,Female,2024-04-10_11h31.33.774,jersey_experiment_5_v0,2023.2.2,Win32,84.74576271,,,,,,,,,,,,,,,,319.8974,321.1913,321.1914,323.9677,return,0.6461,,56.51041667,,,,,,FBP-RB-81.png,0.4,1.2,38,0.5,0,4,4,37,1,,,,,,,,,,,,,,,,,,,,,,,,,,,,,,,,,,,,,,,,
,,,,,SPR24_029,20,Female,2024-04-10_11h31.33.774,jersey_experiment_5_v0,2023.2.2,Win32,84.74576271,,,,,,,,,,,,,,,,323.968,325.2621,325.2621,327.368,return,0.687,,97.39583333,,,,,,FBP-RB-81.png,0.45,1.2,40,0.5,0,5,5,39,1,,,,,,,,,,,,,,,,,,,,,,,,,,,,,,,,,,,,,,,,
,,,,,SPR24_029,20,Female,2024-04-10_11h31.33.774,jersey_experiment_5_v0,2023.2.2,Win32,84.74576271,,,,,,,,,,,,,,,,327.3682,328.4149,328.4149,331.1329,return,0.6268,,75.26041667,,,,,,FBP-YG-71.png,0.43,1.2,19,0.25,0,6,6,18,1,,,,,,,,,,,,,,,,,,,,,,,,,,,,,,,,,,,,,,,,
,,,,,SPR24_029,20,Female,2024-04-10_11h31.33.774,jersey_experiment_5_v0,2023.2.2,Win32,84.74576271,,,,,,,,,,,,,,,,331.1331,332.1797,332.1798,334.1211,return,0.6065,,82.94270833,,,,,,FBP-YG-81.png,0.45,1.2,25,0.25,0,7,7,24,1,,,,,,,,,,,,,,,,,,,,,,,,,,,,,,,,,,,,,,,,
,,,,,SPR24_029,20,Female,2024-04-10_11h31.33.774,jersey_experiment_5_v0,2023.2.2,Win32,84.74576271,,,,,,,,,,,,,,,,334.1213,335.4153,335.4153,339.7567,return,1.8386,,58.984375,,,,,,FBP-RB-81.png,0.37,1.2,37,0.5,0,8,8,36,1,,,,,,,,,,,,,,,,,,,,,,,,,,,,,,,,,,,,,,,,
,,,,,SPR24_029,20,Female,2024-04-10_11h31.33.774,jersey_experiment_5_v0,2023.2.2,Win32,84.74576271,,,,,,,,,,,,,,,,339.7569,340.8038,340.8038,342.6979,return,0.5472,,74.47916667,,,,,,FBP-YG-91.png,0.4,1.2,28,0.25,0,9,9,27,1,,,,,,,,,,,,,,,,,,,,,,,,,,,,,,,,,,,,,,,,
,,,,,SPR24_029,20,Female,2024-04-10_11h31.33.774,jersey_experiment_5_v0,2023.2.2,Win32,84.74576271,,,,,,,,,,,,,,,,342.6982,343.7451,343.7451,346.1688,return,0.6633,,36.19791667,,,,,,FBP-YG-71.png,0.35,1.2,16,0.25,0,10,10,15,1,,,,,,,,,,,,,,,,,,,,,,,,,,,,,,,,,,,,,,,,
,,,,,SPR24_029,20,Female,2024-04-10_11h31.33.774,jersey_experiment_5_v0,2023.2.2,Win32,84.74576271,,,,,,,,,,,,,,,,346.169,347.2157,347.2157,349.6277,return,0.6277,,95.3125,,,,,,FBP-PT-91.png,0.45,1.2,60,0.25,0,11,11,59,1,,,,,,,,,,,,,,,,,,,,,,,,,,,,,,,,,,,,,,,,
,,,,,SPR24_029,20,Female,2024-04-10_11h31.33.774,jersey_experiment_5_v0,2023.2.2,Win32,84.74576271,,,,,,,,,,,,,,,,349.628,350.9219,350.9219,352.3807,return,0.6032,,96.875,,,,,,FBP-RB-71.png,0.45,1.2,35,0.5,0,12,12,34,1,,,,,,,,,,,,,,,,,,,,,,,,,,,,,,,,,,,,,,,,
,,,,,SPR24_029,20,Female,2024-04-10_11h31.33.774,jersey_experiment_5_v0,2023.2.2,Win32,84.74576271,,,,,,,,,,,,,,,,352.3809,353.6748,353.6748,354.8629,return,0.5746,,98.30729167,,,,,,FBP-OG-19.png,0.43,1.2,14,0.5,0,13,13,13,1,,,,,,,,,,,,,,,,,,,,,,,,,,,,,,,,,,,,,,,,
,,,,,SPR24_029,20,Female,2024-04-10_11h31.33.774,jersey_experiment_5_v0,2023.2.2,Win32,84.74576271,,,,,,,,,,,,,,,,354.8632,356.1573,356.1573,357.3928,return,0.5887,,98.30729167,,,,,,FBP-OG-19.png,0.45,1.2,15,0.5,0,14,14,14,1,,,,,,,,,,,,,,,,,,,,,,,,,,,,,,,,,,,,,,,,
,,,,,SPR24_029,20,Female,2024-04-10_11h31.33.774,jersey_experiment_5_v0,2023.2.2,Win32,84.74576271,,,,,,,,,,,,,,,,357.393,358.4396,358.4396,360.1103,return,0.7402,,94.01041667,,,,,,FBP-YG-81.png,0.43,1.2,24,0.25,0,15,15,23,1,,,,,,,,,,,,,,,,,,,,,,,,,,,,,,,,,,,,,,,,
,,,,,SPR24_029,20,Female,2024-04-10_11h31.33.774,jersey_experiment_5_v0,2023.2.2,Win32,84.74576271,,,,,,,,,,,,,,,,360.1106,361.4046,361.4046,363.7224,return,0.7229,,42.70833333,,,,,,FBP-RB-71.png,0.37,1.2,32,0.5,0,16,16,31,1,,,,,,,,,,,,,,,,,,,,,,,,,,,,,,,,,,,,,,,,
,,,,,SPR24_029,20,Female,2024-04-10_11h31.33.774,jersey_experiment_5_v0,2023.2.2,Win32,84.74576271,,,,,,,,,,,,,,,,363.7227,364.7694,364.7695,368.1107,return,1.7658,,97.65625,,,,,,FBP-PT-71.png,0.45,1.2,50,0.25,0,17,17,49,1,,,,,,,,,,,,,,,,,,,,,,,,,,,,,,,,,,,,,,,,
,,,,,SPR24_029,20,Female,2024-04-10_11h31.33.774,jersey_experiment_5_v0,2023.2.2,Win32,84.74576271,,,,,,,,,,,,,,,,368.111,369.1579,369.1579,373.5696,return,2.212,,17.44791667,,,,,,FBP-PT-71.png,0.37,1.2,47,0.25,0,18,18,46,1,,,,,,,,,,,,,,,,,,,,,,,,,,,,,,,,,,,,,,,,
,,,,,SPR24_029,20,Female,2024-04-10_11h31.33.774,jersey_experiment_5_v0,2023.2.2,Win32,84.74576271,,,,,,,,,,,,,,,,373.5698,374.864,374.864,377.2403,return,0.6048,,78.515625,,,,,,FBP-RB-71.png,0.4,1.2,33,0.5,0,19,19,32,1,,,,,,,,,,,,,,,,,,,,,,,,,,,,,,,,,,,,,,,,
,,,,,SPR24_029,20,Female,2024-04-10_11h31.33.774,jersey_experiment_5_v0,2023.2.2,Win32,84.74576271,,,,,,,,,,,,,,,,377.2406,378.2875,378.2876,380.3817,return,0.636,,31.11979167,,,,,,FBP-PT-81.png,0.37,1.2,52,0.25,0,20,20,51,1,,,,,,,,,,,,,,,,,,,,,,,,,,,,,,,,,,,,,,,,
,,,,,SPR24_029,20,Female,2024-04-10_11h31.33.774,jersey_experiment_5_v0,2023.2.2,Win32,84.74576271,,,,,,,,,,,,,,,,380.382,381.676,381.676,383.1936,return,0.6508,,28.515625,,,,,,FBP-OG-17.png,0.37,1.2,2,0.5,0,21,21,1,1,,,,,,,,,,,,,,,,,,,,,,,,,,,,,,,,,,,,,,,,
,,,,,SPR24_029,20,Female,2024-04-10_11h31.33.774,jersey_experiment_5_v0,2023.2.2,Win32,84.74576271,,,,,,,,,,,,,,,,383.1938,384.2407,384.2408,385.6289,return,0.6352,,28.77604167,,,,,,FBP-PT-91.png,0.37,1.2,57,0.25,0,22,22,56,1,,,,,,,,,,,,,,,,,,,,,,,,,,,,,,,,,,,,,,,,
,,,,,SPR24_029,20,Female,2024-04-10_11h31.33.774,jersey_experiment_5_v0,2023.2.2,Win32,84.74576271,,,,,,,,,,,,,,,,385.6291,386.6762,386.6762,389.241,return,0.6278,,89.97395833,,,,,,FBP-YG-91.png,0.45,1.2,30,0.25,0,23,23,29,1,,,,,,,,,,,,,,,,,,,,,,,,,,,,,,,,,,,,,,,,
,,,,,SPR24_029,20,Female,2024-04-10_11h31.33.774,jersey_experiment_5_v0,2023.2.2,Win32,84.74576271,,,,,,,,,,,,,,,,389.2412,390.5349,390.535,393.1352,return,0.5554,,4.166666667,,,,,,FBP-RB-91.png,0.35,1.2,41,0.5,0,24,24,40,1,,,,,,,,,,,,,,,,,,,,,,,,,,,,,,,,,,,,,,,,
,,,,,SPR24_029,20,Female,2024-04-10_11h31.33.774,jersey_experiment_5_v0,2023.2.2,Win32,84.74576271,,,,,,,,,,,,,,,,393.1355,394.1823,394.1823,396.9707,return,1.6171,,6.25,,,,,,FBP-PT-71.png,0.35,1.2,46,0.25,0,25,25,45,1,,,,,,,,,,,,,,,,,,,,,,,,,,,,,,,,,,,,,,,,
,,,,,SPR24_029,20,Female,2024-04-10_11h31.33.774,jersey_experiment_5_v0,2023.2.2,Win32,84.74576271,,,,,,,,,,,,,,,,396.9709,398.0176,398.0176,401.5356,return,0.6495,,40.49479167,,,,,,FBP-YG-91.png,0.37,1.2,27,0.25,0,26,26,26,1,,,,,,,,,,,,,,,,,,,,,,,,,,,,,,,,,,,,,,,,
,,,,,SPR24_029,20,Female,2024-04-10_11h31.33.774,jersey_experiment_5_v0,2023.2.2,Win32,84.74576271,,,,,,,,,,,,,,,,401.5358,402.8297,402.8297,404.5592,return,0.5981,,82.29166667,,,,,,FBP-OG-17.png,0.45,1.2,5,0.5,0,27,27,4,1,,,,,,,,,,,,,,,,,,,,,,,,,,,,,,,,,,,,,,,,
,,,,,SPR24_029,20,Female,2024-04-10_11h31.33.774,jersey_experiment_5_v0,2023.2.2,Win32,84.74576271,,,,,,,,,,,,,,,,404.5594,405.8532,405.8532,407.1005,return,0.6244,,84.11458333,,,,,,FBP-OG-18.png,0.43,1.2,9,0.5,0,28,28,8,1,,,,,,,,,,,,,,,,,,,,,,,,,,,,,,,,,,,,,,,,
,,,,,SPR24_029,20,Female,2024-04-10_11h31.33.774,jersey_experiment_5_v0,2023.2.2,Win32,84.74576271,,,,,,,,,,,,,,,,407.1007,408.3946,408.3946,411.0536,return,0.7406,,38.28125,,,,,,FBP-OG-18.png,0.37,1.2,7,0.5,0,29,29,6,1,,,,,,,,,,,,,,,,,,,,,,,,,,,,,,,,,,,,,,,,
,,,,,SPR24_029,20,Female,2024-04-10_11h31.33.774,jersey_experiment_5_v0,2023.2.2,Win32,84.74576271,,,,,,,,,,,,,,,,411.0538,412.1007,412.1007,414.8772,return,0.5888,,38.28125,,,,,,FBP-YG-81.png,0.37,1.2,22,0.25,0,30,30,21,1,,,,,,,,,,,,,,,,,,,,,,,,,,,,,,,,,,,,,,,,
,,,,,SPR24_029,20,Female,2024-04-10_11h31.33.774,jersey_experiment_5_v0,2023.2.2,Win32,84.74576271,,,,,,,,,,,,,,,,414.8774,415.9243,415.9243,418.7479,return,0.6724,,58.07291667,,,,,,FBP-PT-91.png,0.4,1.2,58,0.25,0,31,31,57,1,,,,,,,,,,,,,,,,,,,,,,,,,,,,,,,,,,,,,,,,
,,,,,SPR24_029,20,Female,2024-04-10_11h31.33.774,jersey_experiment_5_v0,2023.2.2,Win32,84.74576271,,,,,,,,,,,,,,,,418.7481,420.0419,420.042,423.1364,return,0.6596,,46.875,,,,,,FBP-RB-91.png,0.37,1.2,42,0.5,0,32,32,41,1,,,,,,,,,,,,,,,,,,,,,,,,,,,,,,,,,,,,,,,,
,,,,,SPR24_029,20,Female,2024-04-10_11h31.33.774,jersey_experiment_5_v0,2023.2.2,Win32,84.74576271,,,,,,,,,,,,,,,,423.1367,424.1834,424.1834,426.8071,return,0.5946,,60.41666667,,,,,,FBP-YG-81.png,0.4,1.2,23,0.25,0,33,33,22,1,,,,,,,,,,,,,,,,,,,,,,,,,,,,,,,,,,,,,,,,
,,,,,SPR24_029,20,Female,2024-04-10_11h31.33.774,jersey_experiment_5_v0,2023.2.2,Win32,84.74576271,,,,,,,,,,,,,,,,426.8072,428.1013,428.1013,430.6191,return,0.7461,,66.27604167,,,,,,FBP-OG-18.png,0.4,1.2,8,0.5,0,34,34,7,1,,,,,,,,,,,,,,,,,,,,,,,,,,,,,,,,,,,,,,,,
,,,,,SPR24_029,20,Female,2024-04-10_11h31.33.774,jersey_experiment_5_v0,2023.2.2,Win32,84.74576271,,,,,,,,,,,,,,,,430.6193,431.9132,431.9132,433.8191,return,0.6517,,78.25520833,,,,,,FBP-RB-71.png,0.43,1.2,34,0.5,0,35,35,33,1,,,,,,,,,,,,,,,,,,,,,,,,,,,,,,,,,,,,,,,,
,,,,,SPR24_029,20,Female,2024-04-10_11h31.33.774,jersey_experiment_5_v0,2023.2.2,Win32,84.74576271,,,,,,,,,,,,,,,,433.8193,435.1133,435.1133,438.8665,return,2.2212,,97.00520833,,,,,,FBP-OG-17.png,0.43,1.2,4,0.5,0,36,36,3,1,,,,,,,,,,,,,,,,,,,,,,,,,,,,,,,,,,,,,,,,
,,,,,SPR24_029,20,Female,2024-04-10_11h31.33.774,jersey_experiment_5_v0,2023.2.2,Win32,84.74576271,,,,,,,,,,,,,,,,438.8667,439.9134,439.9135,443.8548,return,0.7861,,28.90625,,,,,,FBP-YG-91.png,0.35,1.2,26,0.25,0,37,37,25,1,,,,,,,,,,,,,,,,,,,,,,,,,,,,,,,,,,,,,,,,
,,,,,SPR24_029,20,Female,2024-04-10_11h31.33.774,jersey_experiment_5_v0,2023.2.2,Win32,84.74576271,,,,,,,,,,,,,,,,443.8551,444.9019,444.9019,446.8433,return,0.5462,,96.484375,,,,,,FBP-PT-81.png,0.43,1.2,54,0.25,0,38,38,53,1,,,,,,,,,,,,,,,,,,,,,,,,,,,,,,,,,,,,,,,,
,,,,,SPR24_029,20,Female,2024-04-10_11h31.33.774,jersey_experiment_5_v0,2023.2.2,Win32,84.74576271,,,,,,,,,,,,,,,,446.8435,448.1373,448.1374,450.408,return,0.6409,,29.16666667,,,,,,FBP-RB-81.png,0.35,1.2,36,0.5,0,39,39,35,1,,,,,,,,,,,,,,,,,,,,,,,,,,,,,,,,,,,,,,,,
,,,,,SPR24_029,20,Female,2024-04-10_11h31.33.774,jersey_experiment_5_v0,2023.2.2,Win32,84.74576271,,,,,,,,,,,,,,,,450.4082,451.455,451.455,453.5023,return,0.543,,98.4375,,,,,,FBP-YG-71.png,0.45,1.2,20,0.25,0,40,40,19,1,,,,,,,,,,,,,,,,,,,,,,,,,,,,,,,,,,,,,,,,
,,,,,SPR24_029,20,Female,2024-04-10_11h31.33.774,jersey_experiment_5_v0,2023.2.2,Win32,84.74576271,,,,,,,,,,,,,,,,453.5024,454.7963,454.7964,457.1376,return,0.8146,,82.55208333,,,,,,FBP-RB-81.png,0.43,1.2,39,0.5,0,41,41,38,1,,,,,,,,,,,,,,,,,,,,,,,,,,,,,,,,,,,,,,,,
,,,,,SPR24_029,20,Female,2024-04-10_11h31.33.774,jersey_experiment_5_v0,2023.2.2,Win32,84.74576271,,,,,,,,,,,,,,,,457.1379,458.4318,458.4318,461.1849,return,1.2236,,37.36979167,,,,,,FBP-OG-17.png,0.35,1.2,1,0.5,0,42,42,0,1,,,,,,,,,,,,,,,,,,,,,,,,,,,,,,,,,,,,,,,,
,,,,,SPR24_029,20,Female,2024-04-10_11h31.33.774,jersey_experiment_5_v0,2023.2.2,Win32,84.74576271,,,,,,,,,,,,,,,,461.1852,462.4791,462.4791,467.3381,return,2.453,,45.3125,,,,,,FBP-OG-19.png,0.37,1.2,12,0.5,0,43,43,11,1,,,,,,,,,,,,,,,,,,,,,,,,,,,,,,,,,,,,,,,,
,,,,,SPR24_029,20,Female,2024-04-10_11h31.33.774,jersey_experiment_5_v0,2023.2.2,Win32,84.74576271,,,,,,,,,,,,,,,,467.3383,468.3852,468.3852,471.5971,return,0.5771,,39.97395833,,,,,,FBP-YG-81.png,0.35,1.2,21,0.25,0,44,44,20,1,,,,,,,,,,,,,,,,,,,,,,,,,,,,,,,,,,,,,,,,
,,,,,SPR24_029,20,Female,2024-04-10_11h31.33.774,jersey_experiment_5_v0,2023.2.2,Win32,84.74576271,,,,,,,,,,,,,,,,471.5973,472.644,472.6441,474.9265,return,0.6027,,97.265625,,,,,,FBP-PT-71.png,0.43,1.2,49,0.25,0,45,45,48,1,,,,,,,,,,,,,,,,,,,,,,,,,,,,,,,,,,,,,,,,
,,,,,SPR24_029,20,Female,2024-04-10_11h31.33.774,jersey_experiment_5_v0,2023.2.2,Win32,84.74576271,,,,,,,,,,,,,,,,474.9268,476.2207,476.2207,478.5738,return,0.6268,,35.67708333,,,,,,FBP-OG-18.png,0.35,1.2,6,0.5,0,46,46,5,1,,,,,,,,,,,,,,,,,,,,,,,,,,,,,,,,,,,,,,,,
,,,,,SPR24_029,20,Female,2024-04-10_11h31.33.774,jersey_experiment_5_v0,2023.2.2,Win32,84.74576271,,,,,,,,,,,,,,,,478.5741,479.8679,479.8679,482.9035,return,0.6416,,73.95833333,,,,,,FBP-OG-19.png,0.4,1.2,13,0.5,0,47,47,12,1,,,,,,,,,,,,,,,,,,,,,,,,,,,,,,,,,,,,,,,,
,,,,,SPR24_029,20,Female,2024-04-10_11h31.33.774,jersey_experiment_5_v0,2023.2.2,Win32,84.74576271,,,,,,,,,,,,,,,,482.9038,484.1979,484.1979,487.5506,return,0.6458,,61.58854167,,,,,,FBP-RB-91.png,0.4,1.2,43,0.5,0,48,48,42,1,,,,,,,,,,,,,,,,,,,,,,,,,,,,,,,,,,,,,,,,
,,,,,SPR24_029,20,Female,2024-04-10_11h31.33.774,jersey_experiment_5_v0,2023.2.2,Win32,84.74576271,,,,,,,,,,,,,,,,487.5508,488.8447,488.8449,491.4801,return,2.1115,,67.05729167,,,,,,FBP-OG-17.png,0.4,1.2,3,0.5,0,49,49,2,1,,,,,,,,,,,,,,,,,,,,,,,,,,,,,,,,,,,,,,,,
,,,,,SPR24_029,20,Female,2024-04-10_11h31.33.774,jersey_experiment_5_v0,2023.2.2,Win32,84.74576271,,,,,,,,,,,,,,,,491.4804,492.5273,492.5273,495.504,return,1.4919,,31.77083333,,,,,,FBP-PT-81.png,0.35,1.2,51,0.25,0,50,50,50,1,,,,,,,,,,,,,,,,,,,,,,,,,,,,,,,,,,,,,,,,
,,,,,SPR24_029,20,Female,2024-04-10_11h31.33.774,jersey_experiment_5_v0,2023.2.2,Win32,84.74576271,,,,,,,,,,,,,,,,495.5041,496.7978,496.7978,499.1981,return,0.6467,,73.95833333,,,,,,FBP-RB-91.png,0.45,1.2,45,0.5,0,51,51,44,1,,,,,,,,,,,,,,,,,,,,,,,,,,,,,,,,,,,,,,,,
,,,,,SPR24_029,20,Female,2024-04-10_11h31.33.774,jersey_experiment_5_v0,2023.2.2,Win32,84.74576271,,,,,,,,,,,,,,,,499.1983,500.2453,500.2453,502.0335,return,0.6826,,73.56770833,,,,,,FBP-PT-81.png,0.4,1.2,53,0.25,0,52,52,52,1,,,,,,,,,,,,,,,,,,,,,,,,,,,,,,,,,,,,,,,,
,,,,,SPR24_029,20,Female,2024-04-10_11h31.33.774,jersey_experiment_5_v0,2023.2.2,Win32,84.74576271,,,,,,,,,,,,,,,,502.0337,503.0805,503.0807,505.8689,return,0.7443,,31.38020833,,,,,,FBP-PT-91.png,0.35,1.2,56,0.25,0,53,53,55,1,,,,,,,,,,,,,,,,,,,,,,,,,,,,,,,,,,,,,,,,
,,,,,SPR24_029,20,Female,2024-04-10_11h31.33.774,jersey_experiment_5_v0,2023.2.2,Win32,84.74576271,,,,,,,,,,,,,,,,505.8692,506.916,506.9161,508.8809,return,0.8617,,31.38020833,,,,,,FBP-YG-71.png,0.37,1.2,17,0.25,0,54,54,16,1,,,,,,,,,,,,,,,,,,,,,,,,,,,,,,,,,,,,,,,,
,,,,,SPR24_029,20,Female,2024-04-10_11h31.33.774,jersey_experiment_5_v0,2023.2.2,Win32,84.74576271,,,,,,,,,,,,,,,,508.8811,509.9279,509.928,512.6809,return,0.6659,,84.50520833,,,,,,FBP-PT-81.png,0.45,1.2,55,0.25,0,55,55,54,1,,,,,,,,,,,,,,,,,,,,,,,,,,,,,,,,,,,,,,,,
,,,,,SPR24_029,20,Female,2024-04-10_11h31.33.774,jersey_experiment_5_v0,2023.2.2,Win32,84.74576271,,,,,,,,,,,,,,,,512.6811,513.7281,513.7282,515.4692,return,0.6028,,84.24479167,,,,,,FBP-YG-71.png,0.4,1.2,18,0.25,0,56,56,17,1,,,,,,,,,,,,,,,,,,,,,,,,,,,,,,,,,,,,,,,,
,,,,,SPR24_029,20,Female,2024-04-10_11h31.33.774,jersey_experiment_5_v0,2023.2.2,Win32,84.74576271,,,,,,,,,,,,,,,,515.4695,516.7635,516.7635,521.0695,return,2.6122,,96.61458333,,,,,,FBP-OG-18.png,0.45,1.2,10,0.5,0,57,57,9,1,,,,,,,,,,,,,,,,,,,,,,,,,,,,,,,,,,,,,,,,
,,,,,SPR24_029,20,Female,2024-04-10_11h31.33.774,jersey_experiment_5_v0,2023.2.2,Win32,84.74576271,,,,,,,,,,,,,,,,521.0697,522.3637,522.3638,524.6344,return,0.7443,,20.57291667,,,,,,FBP-OG-19.png,0.35,1.2,11,0.5,0,58,58,10,1,,,,,,,,,,,,,,,,,,,,,,,,,,,,,,,,,,,,,,,,
,,,,,SPR24_029,20,Female,2024-04-10_11h31.33.774,jersey_experiment_5_v0,2023.2.2,Win32,84.74576271,,,,,,,,,,,,,,,,524.6346,525.9284,525.9285,530.3172,return,2.5564,,75,,,,,,FBP-RB-91.png,0.43,1.2,44,0.5,0,59,59,43,1,,,,,,,,,,,,,,,,,,,,,,,,,,,,,,,,,,,,,,,,
,,,,,SPR24_029,20,Female,2024-04-10_11h31.33.774,jersey_experiment_5_v0,2023.2.2,Win32,84.74576271,,,,,,,,,,,,,,,,,,,,,,,,,,,,,,,,,,,,,,,530.3177,650.3101,,,,,,,,,,,,,,,,,,,,,,,,,,,,,,,,,,,,,,
,,,,,SPR24_029,20,Female,2024-04-10_11h31.33.774,jersey_experiment_5_v0,2023.2.2,Win32,84.74576271,,,,,,,,,,,,,,,,,,,,,,,,,,,,,,,,,,,,,,,,,650.3102,690.6057,return,40.2841,,,,,,,,,,,,,,,,,,,,,,,,,,,,,,,,,,
,,,,,SPR24_029,20,Female,2024-04-10_11h31.33.774,jersey_experiment_5_v0,2023.2.2,Win32,84.74576271,,,,,,,,,,,,,,,,690.6116,691.9114,691.9114,696.194,return,0.6824,,38.80208333,,,,,,FBP-YG-17.png,0.37,1.2,17,0.5,,,,,,,,,,,,,0,0,0,16,1,,,,,,,,,,,,,,,,,,,,,,,,,,,,
,,,,,SPR24_029,20,Female,2024-04-10_11h31.33.774,jersey_experiment_5_v0,2023.2.2,Win32,84.74576271,,,,,,,,,,,,,,,,696.1943,697.488,697.488,701.1942,return,0.5444,,63.41145833,,,,,,FBP-YG-19.png,0.37,1.2,27,0.5,,,,,,,,,,,,,0,1,1,26,1,,,,,,,,,,,,,,,,,,,,,,,,,,,,
,,,,,SPR24_029,20,Female,2024-04-10_11h31.33.774,jersey_experiment_5_v0,2023.2.2,Win32,84.74576271,,,,,,,,,,,,,,,,701.1945,702.2412,702.2413,704.8766,return,1.227,,40.234375,,,,,,FBP-RB-18.png,0.37,1.2,37,0.25,,,,,,,,,,,,,0,2,2,36,1,,,,,,,,,,,,,,,,,,,,,,,,,,,,
,,,,,SPR24_029,20,Female,2024-04-10_11h31.33.774,jersey_experiment_5_v0,2023.2.2,Win32,84.74576271,,,,,,,,,,,,,,,,704.8768,705.9238,705.9238,708.0297,return,0.5908,,85.15625,,,,,,FBP-RB-17.png,0.45,1.2,35,0.25,,,,,,,,,,,,,0,3,3,34,1,,,,,,,,,,,,,,,,,,,,,,,,,,,,
,,,,,SPR24_029,20,Female,2024-04-10_11h31.33.774,jersey_experiment_5_v0,2023.2.2,Win32,84.74576271,,,,,,,,,,,,,,,,708.0299,709.3238,709.3238,711.0415,return,0.6446,,29.94791667,,,,,,FBP-PT-17.png,0.35,1.2,46,0.5,,,,,,,,,,,,,0,4,4,45,1,,,,,,,,,,,,,,,,,,,,,,,,,,,,
,,,,,SPR24_029,20,Female,2024-04-10_11h31.33.774,jersey_experiment_5_v0,2023.2.2,Win32,84.74576271,,,,,,,,,,,,,,,,711.0417,712.0888,712.0888,714.0889,return,0.6163,,97.65625,,,,,,FBP-OG-71.png,0.45,1.2,5,0.25,,,,,,,,,,,,,0,5,5,4,1,,,,,,,,,,,,,,,,,,,,,,,,,,,,
,,,,,SPR24_029,20,Female,2024-04-10_11h31.33.774,jersey_experiment_5_v0,2023.2.2,Win32,84.74576271,,,,,,,,,,,,,,,,714.089,715.1358,715.1359,718.0301,return,1.0847,,30.33854167,,,,,,FBP-RB-19.png,0.37,1.2,42,0.25,,,,,,,,,,,,,0,6,6,41,1,,,,,,,,,,,,,,,,,,,,,,,,,,,,
,,,,,SPR24_029,20,Female,2024-04-10_11h31.33.774,jersey_experiment_5_v0,2023.2.2,Win32,84.74576271,,,,,,,,,,,,,,,,718.0303,719.3241,719.3241,721.1478,return,0.5668,,49.47916667,,,,,,FBP-YG-17.png,0.4,1.2,18,0.5,,,,,,,,,,,,,0,7,7,17,1,,,,,,,,,,,,,,,,,,,,,,,,,,,,
,,,,,SPR24_029,20,Female,2024-04-10_11h31.33.774,jersey_experiment_5_v0,2023.2.2,Win32,84.74576271,,,,,,,,,,,,,,,,721.148,722.442,722.4421,724.7128,return,0.4874,,50.13020833,,,,,,FBP-YG-18.png,0.37,1.2,22,0.5,,,,,,,,,,,,,0,8,8,21,1,,,,,,,,,,,,,,,,,,,,,,,,,,,,
,,,,,SPR24_029,20,Female,2024-04-10_11h31.33.774,jersey_experiment_5_v0,2023.2.2,Win32,84.74576271,,,,,,,,,,,,,,,,724.7131,725.7598,725.7599,727.607,return,0.5975,,97.65625,,,,,,FBP-OG-81.png,0.43,1.2,9,0.25,,,,,,,,,,,,,0,9,9,8,1,,,,,,,,,,,,,,,,,,,,,,,,,,,,
,,,,,SPR24_029,20,Female,2024-04-10_11h31.33.774,jersey_experiment_5_v0,2023.2.2,Win32,84.74576271,,,,,,,,,,,,,,,,727.6072,728.654,728.654,731.4191,return,0.556,,50.26041667,,,,,,FBP-OG-91.png,0.4,1.2,13,0.25,,,,,,,,,,,,,0,10,10,12,1,,,,,,,,,,,,,,,,,,,,,,,,,,,,
,,,,,SPR24_029,20,Female,2024-04-10_11h31.33.774,jersey_experiment_5_v0,2023.2.2,Win32,84.74576271,,,,,,,,,,,,,,,,731.4192,732.4659,732.466,734.6074,return,0.6265,,32.68229167,,,,,,FBP-RB-17.png,0.35,1.2,31,0.25,,,,,,,,,,,,,0,11,11,30,1,,,,,,,,,,,,,,,,,,,,,,,,,,,,
,,,,,SPR24_029,20,Female,2024-04-10_11h31.33.774,jersey_experiment_5_v0,2023.2.2,Win32,84.74576271,,,,,,,,,,,,,,,,734.6076,735.9012,735.9013,738.0662,return,0.7197,,98.4375,,,,,,FBP-PT-18.png,0.43,1.2,54,0.5,,,,,,,,,,,,,0,12,12,53,1,,,,,,,,,,,,,,,,,,,,,,,,,,,,
,,,,,SPR24_029,20,Female,2024-04-10_11h31.33.774,jersey_experiment_5_v0,2023.2.2,Win32,84.74576271,,,,,,,,,,,,,,,,738.0664,739.1133,739.1133,741.4312,return,0.5484,,26.69270833,,,,,,FBP-OG-91.png,0.35,1.2,11,0.25,,,,,,,,,,,,,0,13,13,10,1,,,,,,,,,,,,,,,,,,,,,,,,,,,,
,,,,,SPR24_029,20,Female,2024-04-10_11h31.33.774,jersey_experiment_5_v0,2023.2.2,Win32,84.74576271,,,,,,,,,,,,,,,,741.4313,742.4779,742.478,744.0429,return,0.5442,,30.59895833,,,,,,FBP-RB-17.png,0.37,1.2,32,0.25,,,,,,,,,,,,,0,14,14,31,1,,,,,,,,,,,,,,,,,,,,,,,,,,,,
,,,,,SPR24_029,20,Female,2024-04-10_11h31.33.774,jersey_experiment_5_v0,2023.2.2,Win32,84.74576271,,,,,,,,,,,,,,,,744.0432,745.0899,745.0899,746.3489,return,0.636,,30.46875,,,,,,FBP-OG-81.png,0.37,1.2,7,0.25,,,,,,,,,,,,,0,15,15,6,1,,,,,,,,,,,,,,,,,,,,,,,,,,,,
,,,,,SPR24_029,20,Female,2024-04-10_11h31.33.774,jersey_experiment_5_v0,2023.2.2,Win32,84.74576271,,,,,,,,,,,,,,,,746.3492,747.3959,747.3959,750.1725,return,0.6486,,89.97395833,,,,,,FBP-RB-19.png,0.45,1.2,45,0.25,,,,,,,,,,,,,0,16,16,44,1,,,,,,,,,,,,,,,,,,,,,,,,,,,,
,,,,,SPR24_029,20,Female,2024-04-10_11h31.33.774,jersey_experiment_5_v0,2023.2.2,Win32,84.74576271,,,,,,,,,,,,,,,,750.1727,751.2196,751.2196,755.6903,return,2.9357,,28.515625,,,,,,FBP-OG-71.png,0.35,1.2,1,0.25,,,,,,,,,,,,,0,17,17,0,1,,,,,,,,,,,,,,,,,,,,,,,,,,,,
,,,,,SPR24_029,20,Female,2024-04-10_11h31.33.774,jersey_experiment_5_v0,2023.2.2,Win32,84.74576271,,,,,,,,,,,,,,,,755.6906,756.9845,756.9846,758.9612,return,0.5795,,89.58333333,,,,,,FBP-YG-18.png,0.43,1.2,24,0.5,,,,,,,,,,,,,0,18,18,23,1,,,,,,,,,,,,,,,,,,,,,,,,,,,,
,,,,,SPR24_029,20,Female,2024-04-10_11h31.33.774,jersey_experiment_5_v0,2023.2.2,Win32,84.74576271,,,,,,,,,,,,,,,,758.9614,760.2553,760.2553,761.9494,return,0.6026,,76.953125,,,,,,FBP-YG-18.png,0.4,1.2,23,0.5,,,,,,,,,,,,,0,19,19,22,1,,,,,,,,,,,,,,,,,,,,,,,,,,,,
,,,,,SPR24_029,20,Female,2024-04-10_11h31.33.774,jersey_experiment_5_v0,2023.2.2,Win32,84.74576271,,,,,,,,,,,,,,,,761.9496,763.2436,763.2436,765.0671,return,0.5229,,49.21875,,,,,,FBP-PT-18.png,0.37,1.2,52,0.5,,,,,,,,,,,,,0,20,20,51,1,,,,,,,,,,,,,,,,,,,,,,,,,,,,
,,,,,SPR24_029,20,Female,2024-04-10_11h31.33.774,jersey_experiment_5_v0,2023.2.2,Win32,84.74576271,,,,,,,,,,,,,,,,765.0674,766.1143,766.1143,768.2203,return,0.5308,,86.328125,,,,,,FBP-OG-91.png,0.45,1.2,15,0.25,,,,,,,,,,,,,0,21,21,14,1,,,,,,,,,,,,,,,,,,,,,,,,,,,,
,,,,,SPR24_029,20,Female,2024-04-10_11h31.33.774,jersey_experiment_5_v0,2023.2.2,Win32,84.74576271,,,,,,,,,,,,,,,,768.2205,769.2674,769.2675,771.3852,return,0.4982,,74.73958333,,,,,,FBP-RB-19.png,0.4,1.2,43,0.25,,,,,,,,,,,,,0,22,22,42,1,,,,,,,,,,,,,,,,,,,,,,,,,,,,
,,,,,SPR24_029,20,Female,2024-04-10_11h31.33.774,jersey_experiment_5_v0,2023.2.2,Win32,84.74576271,,,,,,,,,,,,,,,,771.3854,772.6793,772.6793,774.1264,return,0.5284,,86.06770833,,,,,,FBP-YG-19.png,0.43,1.2,29,0.5,,,,,,,,,,,,,0,23,23,28,1,,,,,,,,,,,,,,,,,,,,,,,,,,,,
,,,,,SPR24_029,20,Female,2024-04-10_11h31.33.774,jersey_experiment_5_v0,2023.2.2,Win32,84.74576271,,,,,,,,,,,,,,,,774.1266,775.1735,775.1735,777.6089,return,1.043,,80.46875,,,,,,FBP-RB-18.png,0.45,1.2,40,0.25,,,,,,,,,,,,,0,24,24,39,1,,,,,,,,,,,,,,,,,,,,,,,,,,,,
,,,,,SPR24_029,20,Female,2024-04-10_11h31.33.774,jersey_experiment_5_v0,2023.2.2,Win32,84.74576271,,,,,,,,,,,,,,,,777.6092,778.656,778.656,780.4912,return,0.5111,,70.703125,,,,,,FBP-RB-18.png,0.4,1.2,38,0.25,,,,,,,,,,,,,0,25,25,37,1,,,,,,,,,,,,,,,,,,,,,,,,,,,,
,,,,,SPR24_029,20,Female,2024-04-10_11h31.33.774,jersey_experiment_5_v0,2023.2.2,Win32,84.74576271,,,,,,,,,,,,,,,,780.4916,781.7856,781.7856,783.2444,return,0.4957,,30.98958333,,,,,,FBP-YG-19.png,0.35,1.2,26,0.5,,,,,,,,,,,,,0,26,26,25,1,,,,,,,,,,,,,,,,,,,,,,,,,,,,
,,,,,SPR24_029,20,Female,2024-04-10_11h31.33.774,jersey_experiment_5_v0,2023.2.2,Win32,84.74576271,,,,,,,,,,,,,,,,783.2445,784.2913,784.2914,785.8092,return,0.5554,,31.11979167,,,,,,FBP-OG-91.png,0.37,1.2,12,0.25,,,,,,,,,,,,,0,27,27,11,1,,,,,,,,,,,,,,,,,,,,,,,,,,,,
,,,,,SPR24_029,20,Female,2024-04-10_11h31.33.774,jersey_experiment_5_v0,2023.2.2,Win32,84.74576271,,,,,,,,,,,,,,,,785.8094,786.8562,786.8562,788.8799,return,0.5978,,48.69791667,,,,,,FBP-RB-17.png,0.4,1.2,33,0.25,,,,,,,,,,,,,0,28,28,32,1,,,,,,,,,,,,,,,,,,,,,,,,,,,,
,,,,,SPR24_029,20,Female,2024-04-10_11h31.33.774,jersey_experiment_5_v0,2023.2.2,Win32,84.74576271,,,,,,,,,,,,,,,,788.8801,790.174,790.1741,791.6329,return,0.5176,,89.32291667,,,,,,FBP-YG-18.png,0.45,1.2,25,0.5,,,,,,,,,,,,,0,29,29,24,1,,,,,,,,,,,,,,,,,,,,,,,,,,,,
,,,,,SPR24_029,20,Female,2024-04-10_11h31.33.774,jersey_experiment_5_v0,2023.2.2,Win32,84.74576271,,,,,,,,,,,,,,,,791.6332,792.9271,792.9271,794.1742,return,0.6236,,89.97395833,,,,,,FBP-PT-18.png,0.45,1.2,55,0.5,,,,,,,,,,,,,0,30,30,54,1,,,,,,,,,,,,,,,,,,,,,,,,,,,,
,,,,,SPR24_029,20,Female,2024-04-10_11h31.33.774,jersey_experiment_5_v0,2023.2.2,Win32,84.74576271,,,,,,,,,,,,,,,,794.1745,795.4684,795.4685,796.7037,return,0.6589,,92.83854167,,,,,,FBP-YG-17.png,0.45,1.2,20,0.5,,,,,,,,,,,,,0,31,31,19,1,,,,,,,,,,,,,,,,,,,,,,,,,,,,
,,,,,SPR24_029,20,Female,2024-04-10_11h31.33.774,jersey_experiment_5_v0,2023.2.2,Win32,84.74576271,,,,,,,,,,,,,,,,796.7039,797.9979,797.998,800.7627,return,0.8145,,57.29166667,,,,,,FBP-YG-19.png,0.4,1.2,28,0.5,,,,,,,,,,,,,0,32,32,27,1,,,,,,,,,,,,,,,,,,,,,,,,,,,,
,,,,,SPR24_029,20,Female,2024-04-10_11h31.33.774,jersey_experiment_5_v0,2023.2.2,Win32,84.74576271,,,,,,,,,,,,,,,,800.763,802.0568,802.0569,803.751,return,0.5743,,92.96875,,,,,,FBP-PT-17.png,0.45,1.2,50,0.5,,,,,,,,,,,,,0,33,33,49,1,,,,,,,,,,,,,,,,,,,,,,,,,,,,
,,,,,SPR24_029,20,Female,2024-04-10_11h31.33.774,jersey_experiment_5_v0,2023.2.2,Win32,84.74576271,,,,,,,,,,,,,,,,803.7512,805.0451,805.0451,806.7159,return,0.5221,,75.26041667,,,,,,FBP-PT-18.png,0.4,1.2,53,0.5,,,,,,,,,,,,,0,34,34,52,1,,,,,,,,,,,,,,,,,,,,,,,,,,,,
,,,,,SPR24_029,20,Female,2024-04-10_11h31.33.774,jersey_experiment_5_v0,2023.2.2,Win32,84.74576271,,,,,,,,,,,,,,,,806.7161,808.0099,808.01,809.4217,return,0.5996,,86.71875,,,,,,FBP-PT-19.png,0.45,1.2,60,0.5,,,,,,,,,,,,,0,35,35,59,1,,,,,,,,,,,,,,,,,,,,,,,,,,,,
,,,,,SPR24_029,20,Female,2024-04-10_11h31.33.774,jersey_experiment_5_v0,2023.2.2,Win32,84.74576271,,,,,,,,,,,,,,,,809.422,810.716,810.716,812.669,return,0.7092,,34.63541667,,,,,,FBP-PT-18.png,0.35,1.2,51,0.5,,,,,,,,,,,,,0,36,36,50,1,,,,,,,,,,,,,,,,,,,,,,,,,,,,
,,,,,SPR24_029,20,Female,2024-04-10_11h31.33.774,jersey_experiment_5_v0,2023.2.2,Win32,84.74576271,,,,,,,,,,,,,,,,812.6693,813.7161,813.7162,815.6928,return,0.5325,,94.79166667,,,,,,FBP-RB-19.png,0.43,1.2,44,0.25,,,,,,,,,,,,,0,37,37,43,1,,,,,,,,,,,,,,,,,,,,,,,,,,,,
,,,,,SPR24_029,20,Female,2024-04-10_11h31.33.774,jersey_experiment_5_v0,2023.2.2,Win32,84.74576271,,,,,,,,,,,,,,,,815.693,816.9868,816.9869,818.8457,return,0.5086,,74.73958333,,,,,,FBP-PT-17.png,0.4,1.2,48,0.5,,,,,,,,,,,,,0,38,38,47,1,,,,,,,,,,,,,,,,,,,,,,,,,,,,
,,,,,SPR24_029,20,Female,2024-04-10_11h31.33.774,jersey_experiment_5_v0,2023.2.2,Win32,84.74576271,,,,,,,,,,,,,,,,818.846,819.8928,819.8928,821.5988,return,0.6125,,81.640625,,,,,,FBP-RB-18.png,0.43,1.2,39,0.25,,,,,,,,,,,,,0,39,39,38,1,,,,,,,,,,,,,,,,,,,,,,,,,,,,
,,,,,SPR24_029,20,Female,2024-04-10_11h31.33.774,jersey_experiment_5_v0,2023.2.2,Win32,84.74576271,,,,,,,,,,,,,,,,821.5991,822.6459,822.6459,826.199,return,0.7153,,32.16145833,,,,,,FBP-RB-19.png,0.35,1.2,41,0.25,,,,,,,,,,,,,0,40,40,40,1,,,,,,,,,,,,,,,,,,,,,,,,,,,,
,,,,,SPR24_029,20,Female,2024-04-10_11h31.33.774,jersey_experiment_5_v0,2023.2.2,Win32,84.74576271,,,,,,,,,,,,,,,,826.1993,827.4931,827.4932,828.905,return,0.5344,,86.328125,,,,,,FBP-PT-17.png,0.43,1.2,49,0.5,,,,,,,,,,,,,0,41,41,48,1,,,,,,,,,,,,,,,,,,,,,,,,,,,,
,,,,,SPR24_029,20,Female,2024-04-10_11h31.33.774,jersey_experiment_5_v0,2023.2.2,Win32,84.74576271,,,,,,,,,,,,,,,,828.9052,829.9521,829.9521,831.8698,return,0.5436,,75.78125,,,,,,FBP-OG-71.png,0.43,1.2,4,0.25,,,,,,,,,,,,,0,42,42,3,1,,,,,,,,,,,,,,,,,,,,,,,,,,,,
,,,,,SPR24_029,20,Female,2024-04-10_11h31.33.774,jersey_experiment_5_v0,2023.2.2,Win32,84.74576271,,,,,,,,,,,,,,,,831.8699,832.9169,832.9169,835.0228,return,0.6369,,27.60416667,,,,,,FBP-OG-81.png,0.35,1.2,6,0.25,,,,,,,,,,,,,0,43,43,5,1,,,,,,,,,,,,,,,,,,,,,,,,,,,,
,,,,,SPR24_029,20,Female,2024-04-10_11h31.33.774,jersey_experiment_5_v0,2023.2.2,Win32,84.74576271,,,,,,,,,,,,,,,,835.0231,836.317,836.317,837.7994,return,0.5356,,39.58333333,,,,,,FBP-PT-17.png,0.37,1.2,47,0.5,,,,,,,,,,,,,0,44,44,46,1,,,,,,,,,,,,,,,,,,,,,,,,,,,,
,,,,,SPR24_029,20,Female,2024-04-10_11h31.33.774,jersey_experiment_5_v0,2023.2.2,Win32,84.74576271,,,,,,,,,,,,,,,,837.7995,839.0936,839.0936,840.9054,return,0.572,,71.09375,,,,,,FBP-PT-19.png,0.43,1.2,59,0.5,,,,,,,,,,,,,0,45,45,58,1,,,,,,,,,,,,,,,,,,,,,,,,,,,,
,,,,,SPR24_029,20,Female,2024-04-10_11h31.33.774,jersey_experiment_5_v0,2023.2.2,Win32,84.74576271,,,,,,,,,,,,,,,,840.9057,841.9526,841.9527,843.3527,return,0.5343,,70.83333333,,,,,,FBP-OG-71.png,0.4,1.2,3,0.25,,,,,,,,,,,,,0,46,46,2,1,,,,,,,,,,,,,,,,,,,,,,,,,,,,
,,,,,SPR24_029,20,Female,2024-04-10_11h31.33.774,jersey_experiment_5_v0,2023.2.2,Win32,84.74576271,,,,,,,,,,,,,,,,843.353,844.3996,844.3996,845.9526,return,0.5175,,96.484375,,,,,,FBP-OG-81.png,0.45,1.2,10,0.25,,,,,,,,,,,,,0,47,47,9,1,,,,,,,,,,,,,,,,,,,,,,,,,,,,
,,,,,SPR24_029,20,Female,2024-04-10_11h31.33.774,jersey_experiment_5_v0,2023.2.2,Win32,84.74576271,,,,,,,,,,,,,,,,845.9529,846.9998,846.9998,848.9411,return,0.6269,,26.04166667,,,,,,FBP-OG-71.png,0.37,1.2,2,0.25,,,,,,,,,,,,,0,48,48,1,1,,,,,,,,,,,,,,,,,,,,,,,,,,,,
,,,,,SPR24_029,20,Female,2024-04-10_11h31.33.774,jersey_experiment_5_v0,2023.2.2,Win32,84.74576271,,,,,,,,,,,,,,,,848.9413,849.9879,849.988,851.8588,return,0.5413,,75.13020833,,,,,,FBP-OG-91.png,0.43,1.2,14,0.25,,,,,,,,,,,,,0,49,49,13,1,,,,,,,,,,,,,,,,,,,,,,,,,,,,
,,,,,SPR24_029,20,Female,2024-04-10_11h31.33.774,jersey_experiment_5_v0,2023.2.2,Win32,84.74576271,,,,,,,,,,,,,,,,851.8591,852.9058,852.9058,854.5412,return,0.5656,,64.58333333,,,,,,FBP-OG-81.png,0.4,1.2,8,0.25,,,,,,,,,,,,,0,50,50,7,1,,,,,,,,,,,,,,,,,,,,,,,,,,,,
,,,,,SPR24_029,20,Female,2024-04-10_11h31.33.774,jersey_experiment_5_v0,2023.2.2,Win32,84.74576271,,,,,,,,,,,,,,,,854.5415,855.8355,855.8356,857.518,return,0.5204,,28.77604167,,,,,,FBP-YG-17.png,0.35,1.2,16,0.5,,,,,,,,,,,,,0,51,51,15,1,,,,,,,,,,,,,,,,,,,,,,,,,,,,
,,,,,SPR24_029,20,Female,2024-04-10_11h31.33.774,jersey_experiment_5_v0,2023.2.2,Win32,84.74576271,,,,,,,,,,,,,,,,857.5182,858.5649,858.5649,860.6003,return,0.5116,,73.17708333,,,,,,FBP-RB-17.png,0.43,1.2,34,0.25,,,,,,,,,,,,,0,52,52,33,1,,,,,,,,,,,,,,,,,,,,,,,,,,,,
,,,,,SPR24_029,20,Female,2024-04-10_11h31.33.774,jersey_experiment_5_v0,2023.2.2,Win32,84.74576271,,,,,,,,,,,,,,,,860.6006,861.8942,861.8943,863.8003,return,0.5728,,25.390625,,,,,,FBP-PT-19.png,0.35,1.2,56,0.5,,,,,,,,,,,,,0,53,53,55,1,,,,,,,,,,,,,,,,,,,,,,,,,,,,
,,,,,SPR24_029,20,Female,2024-04-10_11h31.33.774,jersey_experiment_5_v0,2023.2.2,Win32,84.74576271,,,,,,,,,,,,,,,,863.8005,865.0946,865.0946,866.4947,return,0.5182,,16.66666667,,,,,,FBP-PT-19.png,0.37,1.2,57,0.5,,,,,,,,,,,,,0,54,54,56,1,,,,,,,,,,,,,,,,,,,,,,,,,,,,
,,,,,SPR24_029,20,Female,2024-04-10_11h31.33.774,jersey_experiment_5_v0,2023.2.2,Win32,84.74576271,,,,,,,,,,,,,,,,866.495,867.7887,867.7888,868.93,return,0.527,,14.19270833,,,,,,FBP-YG-18.png,0.35,1.2,21,0.5,,,,,,,,,,,,,0,55,55,20,1,,,,,,,,,,,,,,,,,,,,,,,,,,,,
,,,,,SPR24_029,20,Female,2024-04-10_11h31.33.774,jersey_experiment_5_v0,2023.2.2,Win32,84.74576271,,,,,,,,,,,,,,,,868.9302,869.9772,869.9773,872.1537,return,0.4773,,18.61979167,,,,,,FBP-RB-18.png,0.35,1.2,36,0.25,,,,,,,,,,,,,0,56,56,35,1,,,,,,,,,,,,,,,,,,,,,,,,,,,,
,,,,,SPR24_029,20,Female,2024-04-10_11h31.33.774,jersey_experiment_5_v0,2023.2.2,Win32,84.74576271,,,,,,,,,,,,,,,,872.154,873.4477,873.4477,875.7303,return,0.5268,,93.75,,,,,,FBP-YG-19.png,0.45,1.2,30,0.5,,,,,,,,,,,,,0,57,57,29,1,,,,,,,,,,,,,,,,,,,,,,,,,,,,
,,,,,SPR24_029,20,Female,2024-04-10_11h31.33.774,jersey_experiment_5_v0,2023.2.2,Win32,84.74576271,,,,,,,,,,,,,,,,875.7304,877.0244,877.0245,879.9304,return,2.451,,90.75520833,,,,,,FBP-PT-19.png,0.4,1.2,58,0.5,,,,,,,,,,,,,0,58,58,57,1,,,,,,,,,,,,,,,,,,,,,,,,,,,,
,,,,,SPR24_029,20,Female,2024-04-10_11h31.33.774,jersey_experiment_5_v0,2023.2.2,Win32,84.74576271,,,,,,,,,,,,,,,,879.9306,881.2246,881.2246,882.3306,return,0.5206,,95.83333333,,,,,,FBP-YG-17.png,0.43,1.2,19,0.5,,,,,,,,,,,,,0,59,59,18,1,,,,,,,,,,,,,,,,,,,,,,,,,,,,
,,,,,SPR24_029,20,Female,2024-04-10_11h31.33.774,jersey_experiment_5_v0,2023.2.2,Win32,84.74576271,,,,,,,,,,,,,,,,882.3324,883.3777,883.3777,886.4719,return,0.5143,,81.38020833,,,,,,FBP-RB-91.png,0.45,1.2,45,0.25,,,,,,,,,,,,,,,,,,0,0,0,44,1,,,,,,,,,,,,,,,,,,,,,,,
,,,,,SPR24_029,20,Female,2024-04-10_11h31.33.774,jersey_experiment_5_v0,2023.2.2,Win32,84.74576271,,,,,,,,,,,,,,,,886.4721,887.766,887.766,889.0486,return,0.5258,,85.67708333,,,,,,FBP-PT-91.png,0.45,1.2,60,0.5,,,,,,,,,,,,,,,,,,0,1,1,59,1,,,,,,,,,,,,,,,,,,,,,,,
,,,,,SPR24_029,20,Female,2024-04-10_11h31.33.774,jersey_experiment_5_v0,2023.2.2,Win32,84.74576271,,,,,,,,,,,,,,,,889.0488,890.3425,890.3425,892.7192,return,0.5987,,50.13020833,,,,,,FBP-PT-71.png,0.4,1.2,48,0.5,,,,,,,,,,,,,,,,,,0,2,2,47,1,,,,,,,,,,,,,,,,,,,,,,,
,,,,,SPR24_029,20,Female,2024-04-10_11h31.33.774,jersey_experiment_5_v0,2023.2.2,Win32,84.74576271,,,,,,,,,,,,,,,,892.7194,893.7663,893.7664,896.4135,return,0.5441,,24.86979167,,,,,,FBP-OG-17.png,0.35,1.2,1,0.25,,,,,,,,,,,,,,,,,,0,3,3,0,1,,,,,,,,,,,,,,,,,,,,,,,
,,,,,SPR24_029,20,Female,2024-04-10_11h31.33.774,jersey_experiment_5_v0,2023.2.2,Win32,84.74576271,,,,,,,,,,,,,,,,896.4137,897.7075,897.7075,899.6254,return,0.5369,,95.83333333,,,,,,FBP-YG-91.png,0.45,1.2,30,0.5,,,,,,,,,,,,,,,,,,0,4,4,29,1,,,,,,,,,,,,,,,,,,,,,,,
,,,,,SPR24_029,20,Female,2024-04-10_11h31.33.774,jersey_experiment_5_v0,2023.2.2,Win32,84.74576271,,,,,,,,,,,,,,,,899.6256,900.9194,900.9195,903.2608,return,0.7331,,7.8125,,,,,,FBP-PT-91.png,0.37,1.2,57,0.5,,,,,,,,,,,,,,,,,,0,5,5,56,1,,,,,,,,,,,,,,,,,,,,,,,
,,,,,SPR24_029,20,Female,2024-04-10_11h31.33.774,jersey_experiment_5_v0,2023.2.2,Win32,84.74576271,,,,,,,,,,,,,,,,903.261,904.3079,904.3079,906.6728,return,0.5884,,8.333333333,,,,,,FBP-OG-18.png,0.37,1.2,7,0.25,,,,,,,,,,,,,,,,,,0,6,6,6,1,,,,,,,,,,,,,,,,,,,,,,,
,,,,,SPR24_029,20,Female,2024-04-10_11h31.33.774,jersey_experiment_5_v0,2023.2.2,Win32,84.74576271,,,,,,,,,,,,,,,,906.673,907.9668,907.9668,910.1434,return,1.5292,,8.59375,,,,,,FBP-YG-71.png,0.35,1.2,16,0.5,,,,,,,,,,,,,,,,,,0,7,7,15,1,,,,,,,,,,,,,,,,,,,,,,,
,,,,,SPR24_029,20,Female,2024-04-10_11h31.33.774,jersey_experiment_5_v0,2023.2.2,Win32,84.74576271,,,,,,,,,,,,,,,,910.1437,911.4375,911.4375,913.6494,return,0.4945,,49.86979167,,,,,,FBP-YG-71.png,0.4,1.2,18,0.5,,,,,,,,,,,,,,,,,,0,8,8,17,1,,,,,,,,,,,,,,,,,,,,,,,
,,,,,SPR24_029,20,Female,2024-04-10_11h31.33.774,jersey_experiment_5_v0,2023.2.2,Win32,84.74576271,,,,,,,,,,,,,,,,913.6497,914.6964,914.6964,917.3555,return,0.5227,,23.56770833,,,,,,FBP-OG-19.png,0.37,1.2,12,0.25,,,,,,,,,,,,,,,,,,0,9,9,11,1,,,,,,,,,,,,,,,,,,,,,,,
,,,,,SPR24_029,20,Female,2024-04-10_11h31.33.774,jersey_experiment_5_v0,2023.2.2,Win32,84.74576271,,,,,,,,,,,,,,,,917.3557,918.4025,918.4025,920.7438,return,0.5971,,40.234375,,,,,,FBP-RB-81.png,0.4,1.2,38,0.25,,,,,,,,,,,,,,,,,,0,10,10,37,1,,,,,,,,,,,,,,,,,,,,,,,
,,,,,SPR24_029,20,Female,2024-04-10_11h31.33.774,jersey_experiment_5_v0,2023.2.2,Win32,84.74576271,,,,,,,,,,,,,,,,920.744,921.7909,921.791,923.885,return,0.509,,49.609375,,,,,,FBP-OG-19.png,0.4,1.2,13,0.25,,,,,,,,,,,,,,,,,,0,11,11,12,1,,,,,,,,,,,,,,,,,,,,,,,
,,,,,SPR24_029,20,Female,2024-04-10_11h31.33.774,jersey_experiment_5_v0,2023.2.2,Win32,84.74576271,,,,,,,,,,,,,,,,923.8852,924.9321,924.9321,927.2147,return,0.5757,,75.26041667,,,,,,FBP-OG-19.png,0.43,1.2,14,0.25,,,,,,,,,,,,,,,,,,0,12,12,13,1,,,,,,,,,,,,,,,,,,,,,,,
,,,,,SPR24_029,20,Female,2024-04-10_11h31.33.774,jersey_experiment_5_v0,2023.2.2,Win32,84.74576271,,,,,,,,,,,,,,,,927.2149,928.2617,928.2617,929.8854,return,0.556,,75.26041667,,,,,,FBP-OG-17.png,0.4,1.2,3,0.25,,,,,,,,,,,,,,,,,,0,13,13,2,1,,,,,,,,,,,,,,,,,,,,,,,
,,,,,SPR24_029,20,Female,2024-04-10_11h31.33.774,jersey_experiment_5_v0,2023.2.2,Win32,84.74576271,,,,,,,,,,,,,,,,929.8856,930.9324,930.9324,933.3207,return,0.5703,,25.91145833,,,,,,FBP-RB-81.png,0.37,1.2,37,0.25,,,,,,,,,,,,,,,,,,0,14,14,36,1,,,,,,,,,,,,,,,,,,,,,,,
,,,,,SPR24_029,20,Female,2024-04-10_11h31.33.774,jersey_experiment_5_v0,2023.2.2,Win32,84.74576271,,,,,,,,,,,,,,,,933.321,934.6149,934.6149,937.8974,return,0.9575,,70.44270833,,,,,,FBP-YG-81.png,0.4,1.2,23,0.5,,,,,,,,,,,,,,,,,,0,15,15,22,1,,,,,,,,,,,,,,,,,,,,,,,
,,,,,SPR24_029,20,Female,2024-04-10_11h31.33.774,jersey_experiment_5_v0,2023.2.2,Win32,84.74576271,,,,,,,,,,,,,,,,937.8975,938.9445,938.9445,940.9917,return,0.4942,,95.57291667,,,,,,FBP-OG-18.png,0.45,1.2,10,0.25,,,,,,,,,,,,,,,,,,0,16,16,9,1,,,,,,,,,,,,,,,,,,,,,,,
,,,,,SPR24_029,20,Female,2024-04-10_11h31.33.774,jersey_experiment_5_v0,2023.2.2,Win32,84.74576271,,,,,,,,,,,,,,,,940.9919,942.0388,942.0388,944.2507,return,0.5095,,32.55208333,,,,,,FBP-RB-91.png,0.37,1.2,42,0.25,,,,,,,,,,,,,,,,,,0,17,17,41,1,,,,,,,,,,,,,,,,,,,,,,,
,,,,,SPR24_029,20,Female,2024-04-10_11h31.33.774,jersey_experiment_5_v0,2023.2.2,Win32,84.74576271,,,,,,,,,,,,,,,,944.2509,945.5447,945.5448,947.5684,return,1.1154,,95.96354167,,,,,,FBP-PT-81.png,0.45,1.2,55,0.5,,,,,,,,,,,,,,,,,,0,18,18,54,1,,,,,,,,,,,,,,,,,,,,,,,
,,,,,SPR24_029,20,Female,2024-04-10_11h31.33.774,jersey_experiment_5_v0,2023.2.2,Win32,84.74576271,,,,,,,,,,,,,,,,947.5685,948.6155,948.6155,950.8743,return,0.9208,,28.25520833,,,,,,FBP-RB-71.png,0.37,1.2,32,0.25,,,,,,,,,,,,,,,,,,0,19,19,31,1,,,,,,,,,,,,,,,,,,,,,,,
,,,,,SPR24_029,20,Female,2024-04-10_11h31.33.774,jersey_experiment_5_v0,2023.2.2,Win32,84.74576271,,,,,,,,,,,,,,,,950.8746,952.1686,952.1687,953.5215,return,0.6445,,25.26041667,,,,,,FBP-PT-71.png,0.35,1.2,46,0.5,,,,,,,,,,,,,,,,,,0,20,20,45,1,,,,,,,,,,,,,,,,,,,,,,,
,,,,,SPR24_029,20,Female,2024-04-10_11h31.33.774,jersey_experiment_5_v0,2023.2.2,Win32,84.74576271,,,,,,,,,,,,,,,,953.5218,954.5686,954.5687,957.8982,return,0.6888,,98.56770833,,,,,,FBP-OG-19.png,0.45,1.2,15,0.25,,,,,,,,,,,,,,,,,,0,21,21,14,1,,,,,,,,,,,,,,,,,,,,,,,
,,,,,SPR24_029,20,Female,2024-04-10_11h31.33.774,jersey_experiment_5_v0,2023.2.2,Win32,84.74576271,,,,,,,,,,,,,,,,957.8984,958.9453,958.9453,961.3924,return,0.7438,,8.984375,,,,,,FBP-RB-91.png,0.35,1.2,41,0.25,,,,,,,,,,,,,,,,,,0,22,22,40,1,,,,,,,,,,,,,,,,,,,,,,,
,,,,,SPR24_029,20,Female,2024-04-10_11h31.33.774,jersey_experiment_5_v0,2023.2.2,Win32,84.74576271,,,,,,,,,,,,,,,,961.3927,962.6866,962.6867,965.0985,return,1.3709,,94.40104167,,,,,,FBP-PT-71.png,0.43,1.2,49,0.5,,,,,,,,,,,,,,,,,,0,23,23,48,1,,,,,,,,,,,,,,,,,,,,,,,
,,,,,SPR24_029,20,Female,2024-04-10_11h31.33.774,jersey_experiment_5_v0,2023.2.2,Win32,84.74576271,,,,,,,,,,,,,,,,965.0987,966.1455,966.1455,968.2985,return,0.547,,50.65104167,,,,,,FBP-RB-71.png,0.4,1.2,33,0.25,,,,,,,,,,,,,,,,,,0,24,24,32,1,,,,,,,,,,,,,,,,,,,,,,,
,,,,,SPR24_029,20,Female,2024-04-10_11h31.33.774,jersey_experiment_5_v0,2023.2.2,Win32,84.74576271,,,,,,,,,,,,,,,,968.2989,969.5927,969.5927,971.9927,return,0.5722,,79.03645833,,,,,,FBP-YG-81.png,0.45,1.2,25,0.5,,,,,,,,,,,,,,,,,,0,25,25,24,1,,,,,,,,,,,,,,,,,,,,,,,
,,,,,SPR24_029,20,Female,2024-04-10_11h31.33.774,jersey_experiment_5_v0,2023.2.2,Win32,84.74576271,,,,,,,,,,,,,,,,971.993,973.2869,973.287,974.8753,return,0.5201,,31.25,,,,,,FBP-YG-81.png,0.37,1.2,22,0.5,,,,,,,,,,,,,,,,,,0,26,26,21,1,,,,,,,,,,,,,,,,,,,,,,,
,,,,,SPR24_029,20,Female,2024-04-10_11h31.33.774,jersey_experiment_5_v0,2023.2.2,Win32,84.74576271,,,,,,,,,,,,,,,,974.8756,976.1694,976.1694,977.4166,return,0.5609,,28.90625,,,,,,FBP-YG-91.png,0.37,1.2,27,0.5,,,,,,,,,,,,,,,,,,0,27,27,26,1,,,,,,,,,,,,,,,,,,,,,,,
,,,,,SPR24_029,20,Female,2024-04-10_11h31.33.774,jersey_experiment_5_v0,2023.2.2,Win32,84.74576271,,,,,,,,,,,,,,,,977.4168,978.7107,978.7107,980.9225,return,0.5449,,75.65104167,,,,,,FBP-YG-81.png,0.43,1.2,24,0.5,,,,,,,,,,,,,,,,,,0,28,28,23,1,,,,,,,,,,,,,,,,,,,,,,,
,,,,,SPR24_029,20,Female,2024-04-10_11h31.33.774,jersey_experiment_5_v0,2023.2.2,Win32,84.74576271,,,,,,,,,,,,,,,,980.9228,981.9696,981.9696,983.8404,return,0.5556,,31.640625,,,,,,FBP-RB-71.png,0.35,1.2,31,0.25,,,,,,,,,,,,,,,,,,0,29,29,30,1,,,,,,,,,,,,,,,,,,,,,,,
,,,,,SPR24_029,20,Female,2024-04-10_11h31.33.774,jersey_experiment_5_v0,2023.2.2,Win32,84.74576271,,,,,,,,,,,,,,,,983.8406,984.8874,984.8875,986.4639,return,0.7065,,31.640625,,,,,,FBP-OG-19.png,0.35,1.2,11,0.25,,,,,,,,,,,,,,,,,,0,30,30,10,1,,,,,,,,,,,,,,,,,,,,,,,
,,,,,SPR24_029,20,Female,2024-04-10_11h31.33.774,jersey_experiment_5_v0,2023.2.2,Win32,84.74576271,,,,,,,,,,,,,,,,986.4641,987.511,987.5111,990.7348,return,1.1676,,60.02604167,,,,,,FBP-RB-91.png,0.4,1.2,43,0.25,,,,,,,,,,,,,,,,,,0,31,31,42,1,,,,,,,,,,,,,,,,,,,,,,,
,,,,,SPR24_029,20,Female,2024-04-10_11h31.33.774,jersey_experiment_5_v0,2023.2.2,Win32,84.74576271,,,,,,,,,,,,,,,,990.735,991.7817,991.7817,993.5702,return,0.5267,,74.21875,,,,,,FBP-OG-18.png,0.43,1.2,9,0.25,,,,,,,,,,,,,,,,,,0,32,32,8,1,,,,,,,,,,,,,,,,,,,,,,,
,,,,,SPR24_029,20,Female,2024-04-10_11h31.33.774,jersey_experiment_5_v0,2023.2.2,Win32,84.74576271,,,,,,,,,,,,,,,,993.5704,994.8643,994.8643,996.4293,return,0.58,,80.72916667,,,,,,FBP-PT-91.png,0.43,1.2,59,0.5,,,,,,,,,,,,,,,,,,0,33,33,58,1,,,,,,,,,,,,,,,,,,,,,,,
,,,,,SPR24_029,20,Female,2024-04-10_11h31.33.774,jersey_experiment_5_v0,2023.2.2,Win32,84.74576271,,,,,,,,,,,,,,,,996.4295,997.7233,997.7233,998.7703,return,0.5978,,80.72916667,,,,,,FBP-PT-81.png,0.43,1.2,54,0.5,,,,,,,,,,,,,,,,,,0,34,34,53,1,,,,,,,,,,,,,,,,,,,,,,,
,,,,,SPR24_029,20,Female,2024-04-10_11h31.33.774,jersey_experiment_5_v0,2023.2.2,Win32,84.74576271,,,,,,,,,,,,,,,,998.7706,1000.0644,1000.0645,1001.7234,return,1.0618,,82.94270833,,,,,,FBP-YG-91.png,0.43,1.2,29,0.5,,,,,,,,,,,,,,,,,,0,35,35,28,1,,,,,,,,,,,,,,,,,,,,,,,
,,,,,SPR24_029,20,Female,2024-04-10_11h31.33.774,jersey_experiment_5_v0,2023.2.2,Win32,84.74576271,,,,,,,,,,,,,,,,1001.7237,1003.0176,1003.0176,1004.2882,return,0.5794,,86.97916667,,,,,,FBP-YG-71.png,0.43,1.2,19,0.5,,,,,,,,,,,,,,,,,,0,36,36,18,1,,,,,,,,,,,,,,,,,,,,,,,
,,,,,SPR24_029,20,Female,2024-04-10_11h31.33.774,jersey_experiment_5_v0,2023.2.2,Win32,84.74576271,,,,,,,,,,,,,,,,1004.2884,1005.5823,1005.5824,1007.8883,return,0.5653,,74.86979167,,,,,,FBP-YG-91.png,0.4,1.2,28,0.5,,,,,,,,,,,,,,,,,,0,37,37,27,1,,,,,,,,,,,,,,,,,,,,,,,
,,,,,SPR24_029,20,Female,2024-04-10_11h31.33.774,jersey_experiment_5_v0,2023.2.2,Win32,84.74576271,,,,,,,,,,,,,,,,1007.8886,1009.1824,1009.1824,1011.4415,return,0.6966,,32.421875,,,,,,FBP-YG-71.png,0.37,1.2,17,0.5,,,,,,,,,,,,,,,,,,0,38,38,16,1,,,,,,,,,,,,,,,,,,,,,,,
,,,,,SPR24_029,20,Female,2024-04-10_11h31.33.774,jersey_experiment_5_v0,2023.2.2,Win32,84.74576271,,,,,,,,,,,,,,,,1011.4417,1012.7355,1012.7356,1015.4887,return,0.5414,,52.60416667,,,,,,FBP-PT-91.png,0.4,1.2,58,0.5,,,,,,,,,,,,,,,,,,0,39,39,57,1,,,,,,,,,,,,,,,,,,,,,,,
,,,,,SPR24_029,20,Female,2024-04-10_11h31.33.774,jersey_experiment_5_v0,2023.2.2,Win32,84.74576271,,,,,,,,,,,,,,,,1015.4889,1016.7827,1016.7827,1019.4536,return,1.5182,,87.109375,,,,,,FBP-PT-71.png,0.45,1.2,50,0.5,,,,,,,,,,,,,,,,,,0,40,40,49,1,,,,,,,,,,,,,,,,,,,,,,,
,,,,,SPR24_029,20,Female,2024-04-10_11h31.33.774,jersey_experiment_5_v0,2023.2.2,Win32,84.74576271,,,,,,,,,,,,,,,,1019.4538,1020.5006,1020.5006,1022.9243,return,1.4137,,90.625,,,,,,FBP-RB-81.png,0.43,1.2,39,0.25,,,,,,,,,,,,,,,,,,0,41,41,38,1,,,,,,,,,,,,,,,,,,,,,,,
,,,,,SPR24_029,20,Female,2024-04-10_11h31.33.774,jersey_experiment_5_v0,2023.2.2,Win32,84.74576271,,,,,,,,,,,,,,,,1022.9245,1023.9712,1023.9712,1026.6185,return,0.6388,,49.609375,,,,,,FBP-OG-17.png,0.37,1.2,2,0.25,,,,,,,,,,,,,,,,,,0,42,42,1,1,,,,,,,,,,,,,,,,,,,,,,,
,,,,,SPR24_029,20,Female,2024-04-10_11h31.33.774,jersey_experiment_5_v0,2023.2.2,Win32,84.74576271,,,,,,,,,,,,,,,,1026.6187,1027.6654,1027.6655,1030.3598,return,0.6649,,75.26041667,,,,,,FBP-OG-17.png,0.45,1.2,5,0.25,,,,,,,,,,,,,,,,,,0,43,43,4,1,,,,,,,,,,,,,,,,,,,,,,,
,,,,,SPR24_029,20,Female,2024-04-10_11h31.33.774,jersey_experiment_5_v0,2023.2.2,Win32,84.74576271,,,,,,,,,,,,,,,,1030.36,1031.4069,1031.4069,1037.3719,return,1.2728,,73.828125,,,,,,FBP-RB-71.png,0.45,1.2,35,0.25,,,,,,,,,,,,,,,,,,0,44,44,34,1,,,,,,,,,,,,,,,,,,,,,,,
,,,,,SPR24_029,20,Female,2024-04-10_11h31.33.774,jersey_experiment_5_v0,2023.2.2,Win32,84.74576271,,,,,,,,,,,,,,,,1037.3722,1038.4189,1038.4189,1039.9955,return,0.6265,,73.56770833,,,,,,FBP-RB-71.png,0.43,1.2,34,0.25,,,,,,,,,,,,,,,,,,0,45,45,33,1,,,,,,,,,,,,,,,,,,,,,,,
,,,,,SPR24_029,20,Female,2024-04-10_11h31.33.774,jersey_experiment_5_v0,2023.2.2,Win32,84.74576271,,,,,,,,,,,,,,,,1039.9958,1041.2895,1041.2895,1045.1955,return,2.0618,,40.88541667,,,,,,FBP-PT-81.png,0.37,1.2,52,0.5,,,,,,,,,,,,,,,,,,0,46,46,51,1,,,,,,,,,,,,,,,,,,,,,,,
,,,,,SPR24_029,20,Female,2024-04-10_11h31.33.774,jersey_experiment_5_v0,2023.2.2,Win32,84.74576271,,,,,,,,,,,,,,,,1045.1958,1046.4898,1046.4898,1048.2546,return,0.6138,,24.86979167,,,,,,FBP-PT-81.png,0.35,1.2,51,0.5,,,,,,,,,,,,,,,,,,0,47,47,50,1,,,,,,,,,,,,,,,,,,,,,,,
,,,,,SPR24_029,20,Female,2024-04-10_11h31.33.774,jersey_experiment_5_v0,2023.2.2,Win32,84.74576271,,,,,,,,,,,,,,,,1048.2548,1049.5487,1049.5487,1051.737,return,0.5957,,74.609375,,,,,,FBP-PT-81.png,0.4,1.2,53,0.5,,,,,,,,,,,,,,,,,,0,48,48,52,1,,,,,,,,,,,,,,,,,,,,,,,
,,,,,SPR24_029,20,Female,2024-04-10_11h31.33.774,jersey_experiment_5_v0,2023.2.2,Win32,84.74576271,,,,,,,,,,,,,,,,1051.7372,1052.7842,1052.7842,1054.9726,return,1.084,,86.06770833,,,,,,FBP-RB-81.png,0.45,1.2,40,0.25,,,,,,,,,,,,,,,,,,0,49,49,39,1,,,,,,,,,,,,,,,,,,,,,,,
,,,,,SPR24_029,20,Female,2024-04-10_11h31.33.774,jersey_experiment_5_v0,2023.2.2,Win32,84.74576271,,,,,,,,,,,,,,,,1054.9728,1056.0196,1056.0197,1059.1844,return,1.1769,,36.19791667,,,,,,FBP-RB-81.png,0.35,1.2,36,0.25,,,,,,,,,,,,,,,,,,0,50,50,35,1,,,,,,,,,,,,,,,,,,,,,,,
,,,,,SPR24_029,20,Female,2024-04-10_11h31.33.774,jersey_experiment_5_v0,2023.2.2,Win32,84.74576271,,,,,,,,,,,,,,,,1059.1847,1060.4787,1060.4787,1062.267,return,0.5917,,18.61979167,,,,,,FBP-YG-81.png,0.35,1.2,21,0.5,,,,,,,,,,,,,,,,,,0,51,51,20,1,,,,,,,,,,,,,,,,,,,,,,,
,,,,,SPR24_029,20,Female,2024-04-10_11h31.33.774,jersey_experiment_5_v0,2023.2.2,Win32,84.74576271,,,,,,,,,,,,,,,,1062.2672,1063.314,1063.314,1065.6789,return,0.6354,,74.47916667,,,,,,FBP-OG-17.png,0.43,1.2,4,0.25,,,,,,,,,,,,,,,,,,0,52,52,3,1,,,,,,,,,,,,,,,,,,,,,,,
,,,,,SPR24_029,20,Female,2024-04-10_11h31.33.774,jersey_experiment_5_v0,2023.2.2,Win32,84.74576271,,,,,,,,,,,,,,,,1065.6792,1066.7258,1066.7259,1068.5848,return,0.605,,35.02604167,,,,,,FBP-OG-18.png,0.35,1.2,6,0.25,,,,,,,,,,,,,,,,,,0,53,53,5,1,,,,,,,,,,,,,,,,,,,,,,,
,,,,,SPR24_029,20,Female,2024-04-10_11h31.33.774,jersey_experiment_5_v0,2023.2.2,Win32,84.74576271,,,,,,,,,,,,,,,,1068.585,1069.8788,1069.8789,1072.2909,return,1.0971,,84.11458333,,,,,,FBP-YG-71.png,0.45,1.2,20,0.5,,,,,,,,,,,,,,,,,,0,54,54,19,1,,,,,,,,,,,,,,,,,,,,,,,
,,,,,SPR24_029,20,Female,2024-04-10_11h31.33.774,jersey_experiment_5_v0,2023.2.2,Win32,84.74576271,,,,,,,,,,,,,,,,1072.291,1073.3379,1073.3379,1075.1498,return,0.5534,,75.26041667,,,,,,FBP-OG-18.png,0.4,1.2,8,0.25,,,,,,,,,,,,,,,,,,0,55,55,7,1,,,,,,,,,,,,,,,,,,,,,,,
,,,,,SPR24_029,20,Female,2024-04-10_11h31.33.774,jersey_experiment_5_v0,2023.2.2,Win32,84.74576271,,,,,,,,,,,,,,,,1075.15,1076.4439,1076.444,1078.4793,return,0.612,,49.609375,,,,,,FBP-PT-71.png,0.37,1.2,47,0.5,,,,,,,,,,,,,,,,,,0,56,56,46,1,,,,,,,,,,,,,,,,,,,,,,,
,,,,,SPR24_029,20,Female,2024-04-10_11h31.33.774,jersey_experiment_5_v0,2023.2.2,Win32,84.74576271,,,,,,,,,,,,,,,,1078.4796,1079.5263,1079.5263,1081.6089,return,0.608,,88.80208333,,,,,,FBP-RB-91.png,0.43,1.2,44,0.25,,,,,,,,,,,,,,,,,,0,57,57,43,1,,,,,,,,,,,,,,,,,,,,,,,
,,,,,SPR24_029,20,Female,2024-04-10_11h31.33.774,jersey_experiment_5_v0,2023.2.2,Win32,84.74576271,,,,,,,,,,,,,,,,1081.6092,1082.9029,1082.9029,1085.6561,return,1.1359,,45.83333333,,,,,,FBP-PT-91.png,0.35,1.2,56,0.5,,,,,,,,,,,,,,,,,,0,58,58,55,1,,,,,,,,,,,,,,,,,,,,,,,
,,,,,SPR24_029,20,Female,2024-04-10_11h31.33.774,jersey_experiment_5_v0,2023.2.2,Win32,84.74576271,,,,,,,,,,,,,,,,1085.6563,1086.9503,1086.9503,1088.3386,return,0.5415,,34.63541667,,,,,,FBP-YG-91.png,0.35,1.2,26,0.5,,,,,,,,,,,,,,,,,,0,59,59,25,1,,,,,,,,,,,,,,,,,,,,,,,
,,,,,SPR24_029,20,Female,2024-04-10_11h31.33.774,jersey_experiment_5_v0,2023.2.2,Win32,84.74576271,,,,,,,,,,,,,,,,,,,,,,,,,,,,,,,,,,,,,,,,,,,,,,,,,,,,,,,,1088.3389,1094.1626,return,5.8114,,,,,,,,,,,,,,,,,,,
,,,,,SPR24_029,20,Female,2024-04-10_11h31.33.774,jersey_experiment_5_v0,2023.2.2,Win32,84.74576271,,,,,,,,,,,,,,,,,,,,,,,,,,,,,,,,,,,,,,,,,,,,,,,,,,,,,,,,,,,,,1094.1627,1098.6802,1,3.3523,return,1.1465,,,,,,,,,,,,
,,,,,SPR24_029,20,Female,2024-04-10_11h31.33.774,jersey_experiment_5_v0,2023.2.2,Win32,84.74576271,,,,,,,,,,,,,,,,,,,,,,,,,,,,,,,,,,,,,,,,,,,,,,,,,,,,,,,,,,,,,,,,,,,,1098.6803,1220.1839,"I don't have much of an idea of what the study is about. Maybe seeing if you put two two extremes of a body type one after another if it will affect my perception of the body type, rather than if you did two similar body types alongside each other. I noticed that two similar body types were always placed after each other and then its extreme opposite a little after. ",right,115.3596,,,,,,
,,,,,SPR24_029,20,Female,2024-04-10_11h31.33.774,jersey_experiment_5_v0,2023.2.2,Win32,84.74576271,,,,,,,,,,,,,,,,,,,,,,,,,,,,,,,,,,,,,,,,,,,,,,,,,,,,,,,,,,,,,,,,,,,,,,,,,,1220.184,1223.4851,return,3.2915,