requirements.started,requirements.stopped,key_resp_3.keys,key_resp_3.rt,key_resp_3.duration,Subject ID,Age,Gender,date,expName,psychopyVersion,OS,frameRate,instructions1.started,instructions1.stopped,key_resp.keys,key_resp.rt,key_resp.duration,example.started,example.stopped,enter_2.keys,enter_2.rt,enter_2.duration,instructions2.started,instructions2.stopped,enter_3.keys,enter_3.rt,enter_3.duration,image.started,image.stopped,slider_2.started,slider_2.stopped,next.keys,next.rt,next.duration,slider.response,trial_block_1.thisRepN,trial_block_1.thisTrialN,trial_block_1.thisN,trial_block_1.thisIndex,trial_block_1.ran,Path,Width,Height,Index,Duration,trial_block_2.thisRepN,trial_block_2.thisTrialN,trial_block_2.thisN,trial_block_2.thisIndex,trial_block_2.ran,rest_break.started,rest_break.stopped,end_break.started,end_break.stopped,key_resp_5.keys,key_resp_5.rt,key_resp_5.duration,trial_block_3.thisRepN,trial_block_3.thisTrialN,trial_block_3.thisN,trial_block_3.thisIndex,trial_block_3.ran,trial_block_4.thisRepN,trial_block_4.thisTrialN,trial_block_4.thisN,trial_block_4.thisIndex,trial_block_4.ran,questions_intro.started,questions_intro.stopped,enter_12.keys,enter_12.rt,enter_12.duration,question2.started,question2.stopped,question_doingbest.response,question_doingbest.rt,enter_15.keys,enter_15.rt,enter_15.duration,pattern.started,pattern.stopped,pattern_2.text,enter_17.keys,enter_17.rt,enter_17.duration,thankyou.started,thankyou.stopped,enter_14.keys,enter_14.rt,enter_14.duration
0,10.0766,return,10.0697,,SPR24_021,20,female,2024-04-09_15h22.59.629,jersey_experiment_5_v0,2023.2.2,Win32,84.74576271,,,,,,,,,,,,,,,,,,,,,,,,,,,,,,,,,,,,,,,,,,,,,,,,,,,,,,,,,,,,,,,,,,,,,,,,,,,,,,
,,,,,SPR24_021,20,female,2024-04-09_15h22.59.629,jersey_experiment_5_v0,2023.2.2,Win32,84.74576271,10.0766,18.0262,return,7.9299,,,,,,,,,,,,,,,,,,,,,,,,,,,,,,,,,,,,,,,,,,,,,,,,,,,,,,,,,,,,,,,,,,,,,,,,,,
,,,,,SPR24_021,20,female,2024-04-09_15h22.59.629,jersey_experiment_5_v0,2023.2.2,Win32,84.74576271,,,,,,18.0263,26.5796,return,8.5202,,,,,,,,,,,,,,,,,,,,,,,,,,,,,,,,,,,,,,,,,,,,,,,,,,,,,,,,,,,,,,,,,,,,,
,,,,,SPR24_021,20,female,2024-04-09_15h22.59.629,jersey_experiment_5_v0,2023.2.2,Win32,84.74576271,,,,,,,,,,,26.5796,45.5096,return,18.9218,,,,,,,,,,,,,,,,,,,,,,,,,,,,,,,,,,,,,,,,,,,,,,,,,,,,,,,,,,,,,,,,
,,,,,SPR24_021,20,female,2024-04-09_15h22.59.629,jersey_experiment_5_v0,2023.2.2,Win32,84.74576271,,,,,,,,,,,,,,,,45.5165,46.8152,46.8152,55.0037,return,4.2358,,37.76041667,0,0,0,42,1,FBP-RB-19.png,0.4,1.2,43,0.5,,,,,,,,,,,,,,,,,,,,,,,,,,,,,,,,,,,,,,,,,,,,,
,,,,,SPR24_021,20,female,2024-04-09_15h22.59.629,jersey_experiment_5_v0,2023.2.2,Win32,84.74576271,,,,,,,,,,,,,,,,55.004,56.2978,56.2979,63.4275,return,5.2188,,13.93229167,0,1,1,5,1,FBP-OG-81.png,0.35,1.2,6,0.5,,,,,,,,,,,,,,,,,,,,,,,,,,,,,,,,,,,,,,,,,,,,,
,,,,,SPR24_021,20,female,2024-04-09_15h22.59.629,jersey_experiment_5_v0,2023.2.2,Win32,84.74576271,,,,,,,,,,,,,,,,63.4278,64.4747,64.4748,68.7808,return,0.377,,24.609375,0,2,2,25,1,FBP-YG-19.png,0.35,1.2,26,0.25,,,,,,,,,,,,,,,,,,,,,,,,,,,,,,,,,,,,,,,,,,,,,
,,,,,SPR24_021,20,female,2024-04-09_15h22.59.629,jersey_experiment_5_v0,2023.2.2,Win32,84.74576271,,,,,,,,,,,,,,,,68.781,70.0751,70.0751,75.2045,return,0.3585,,36.58854167,0,3,3,41,1,FBP-RB-19.png,0.37,1.2,42,0.5,,,,,,,,,,,,,,,,,,,,,,,,,,,,,,,,,,,,,,,,,,,,,
,,,,,SPR24_021,20,female,2024-04-09_15h22.59.629,jersey_experiment_5_v0,2023.2.2,Win32,84.74576271,,,,,,,,,,,,,,,,75.2047,76.2515,76.2515,82.3813,return,1.6936,,25.13020833,0,4,4,16,1,FBP-YG-17.png,0.37,1.2,17,0.25,,,,,,,,,,,,,,,,,,,,,,,,,,,,,,,,,,,,,,,,,,,,,
,,,,,SPR24_021,20,female,2024-04-09_15h22.59.629,jersey_experiment_5_v0,2023.2.2,Win32,84.74576271,,,,,,,,,,,,,,,,82.3815,83.6755,83.6755,87.911,return,1.1334,,65.36458333,0,5,5,33,1,FBP-RB-17.png,0.43,1.2,34,0.5,,,,,,,,,,,,,,,,,,,,,,,,,,,,,,,,,,,,,,,,,,,,,
,,,,,SPR24_021,20,female,2024-04-09_15h22.59.629,jersey_experiment_5_v0,2023.2.2,Win32,84.74576271,,,,,,,,,,,,,,,,87.9112,88.958,88.958,91.911,return,0.4638,,75,0,6,6,24,1,FBP-YG-18.png,0.45,1.2,25,0.25,,,,,,,,,,,,,,,,,,,,,,,,,,,,,,,,,,,,,,,,,,,,,
,,,,,SPR24_021,20,female,2024-04-09_15h22.59.629,jersey_experiment_5_v0,2023.2.2,Win32,84.74576271,,,,,,,,,,,,,,,,91.9112,93.2052,93.2053,95.864,return,0.5207,,49.73958333,0,7,7,36,1,FBP-RB-18.png,0.37,1.2,37,0.5,,,,,,,,,,,,,,,,,,,,,,,,,,,,,,,,,,,,,,,,,,,,,
,,,,,SPR24_021,20,female,2024-04-09_15h22.59.629,jersey_experiment_5_v0,2023.2.2,Win32,84.74576271,,,,,,,,,,,,,,,,95.8643,96.9111,96.9111,100.4408,return,1.1185,,75.13020833,0,8,8,58,1,FBP-PT-19.png,0.43,1.2,59,0.25,,,,,,,,,,,,,,,,,,,,,,,,,,,,,,,,,,,,,,,,,,,,,
,,,,,SPR24_021,20,female,2024-04-09_15h22.59.629,jersey_experiment_5_v0,2023.2.2,Win32,84.74576271,,,,,,,,,,,,,,,,100.441,101.4879,101.4879,107.1232,return,0.7959,,33.85416667,0,9,9,20,1,FBP-YG-18.png,0.35,1.2,21,0.25,,,,,,,,,,,,,,,,,,,,,,,,,,,,,,,,,,,,,,,,,,,,,
,,,,,SPR24_021,20,female,2024-04-09_15h22.59.629,jersey_experiment_5_v0,2023.2.2,Win32,84.74576271,,,,,,,,,,,,,,,,107.1234,108.4174,108.4175,110.7588,return,0.8506,,63.41145833,0,10,10,7,1,FBP-OG-81.png,0.4,1.2,8,0.5,,,,,,,,,,,,,,,,,,,,,,,,,,,,,,,,,,,,,,,,,,,,,
,,,,,SPR24_021,20,female,2024-04-09_15h22.59.629,jersey_experiment_5_v0,2023.2.2,Win32,84.74576271,,,,,,,,,,,,,,,,110.759,111.8058,111.8059,114.806,return,0.7942,,85.41666667,0,11,11,49,1,FBP-PT-17.png,0.45,1.2,50,0.25,,,,,,,,,,,,,,,,,,,,,,,,,,,,,,,,,,,,,,,,,,,,,
,,,,,SPR24_021,20,female,2024-04-09_15h22.59.629,jersey_experiment_5_v0,2023.2.2,Win32,84.74576271,,,,,,,,,,,,,,,,114.8062,116.1001,116.1002,118.0884,return,0.4974,,69.66145833,0,12,12,32,1,FBP-RB-17.png,0.4,1.2,33,0.5,,,,,,,,,,,,,,,,,,,,,,,,,,,,,,,,,,,,,,,,,,,,,
,,,,,SPR24_021,20,female,2024-04-09_15h22.59.629,jersey_experiment_5_v0,2023.2.2,Win32,84.74576271,,,,,,,,,,,,,,,,118.0888,119.1356,119.1356,121.0297,return,0.4532,,77.734375,0,13,13,57,1,FBP-PT-19.png,0.4,1.2,58,0.25,,,,,,,,,,,,,,,,,,,,,,,,,,,,,,,,,,,,,,,,,,,,,
,,,,,SPR24_021,20,female,2024-04-09_15h22.59.629,jersey_experiment_5_v0,2023.2.2,Win32,84.74576271,,,,,,,,,,,,,,,,121.03,122.3239,122.3239,124.0417,return,0.332,,58.203125,0,14,14,2,1,FBP-OG-71.png,0.4,1.2,3,0.5,,,,,,,,,,,,,,,,,,,,,,,,,,,,,,,,,,,,,,,,,,,,,
,,,,,SPR24_021,20,female,2024-04-09_15h22.59.629,jersey_experiment_5_v0,2023.2.2,Win32,84.74576271,,,,,,,,,,,,,,,,124.0419,125.0887,125.0887,126.677,return,0.2656,,74.86979167,0,15,15,28,1,FBP-YG-19.png,0.43,1.2,29,0.25,,,,,,,,,,,,,,,,,,,,,,,,,,,,,,,,,,,,,,,,,,,,,
,,,,,SPR24_021,20,female,2024-04-09_15h22.59.629,jersey_experiment_5_v0,2023.2.2,Win32,84.74576271,,,,,,,,,,,,,,,,126.6772,127.7241,127.7241,130.7596,return,1.6738,,87.109375,0,16,16,59,1,FBP-PT-19.png,0.45,1.2,60,0.25,,,,,,,,,,,,,,,,,,,,,,,,,,,,,,,,,,,,,,,,,,,,,
,,,,,SPR24_021,20,female,2024-04-09_15h22.59.629,jersey_experiment_5_v0,2023.2.2,Win32,84.74576271,,,,,,,,,,,,,,,,130.7598,132.0537,132.0538,134.136,return,0.7571,,74.34895833,0,17,17,8,1,FBP-OG-81.png,0.43,1.2,9,0.5,,,,,,,,,,,,,,,,,,,,,,,,,,,,,,,,,,,,,,,,,,,,,
,,,,,SPR24_021,20,female,2024-04-09_15h22.59.629,jersey_experiment_5_v0,2023.2.2,Win32,84.74576271,,,,,,,,,,,,,,,,134.1363,135.1832,135.1832,139.1009,return,0.3864,,42.31770833,0,18,18,45,1,FBP-PT-17.png,0.35,1.2,46,0.25,,,,,,,,,,,,,,,,,,,,,,,,,,,,,,,,,,,,,,,,,,,,,
,,,,,SPR24_021,20,female,2024-04-09_15h22.59.629,jersey_experiment_5_v0,2023.2.2,Win32,84.74576271,,,,,,,,,,,,,,,,139.1011,140.3951,140.3952,142.313,return,0.3312,,62.36979167,0,19,19,12,1,FBP-OG-91.png,0.4,1.2,13,0.5,,,,,,,,,,,,,,,,,,,,,,,,,,,,,,,,,,,,,,,,,,,,,
,,,,,SPR24_021,20,female,2024-04-09_15h22.59.629,jersey_experiment_5_v0,2023.2.2,Win32,84.74576271,,,,,,,,,,,,,,,,142.3132,143.6072,143.6072,145.0192,return,0.2727,,50.13020833,0,20,20,30,1,FBP-RB-17.png,0.35,1.2,31,0.5,,,,,,,,,,,,,,,,,,,,,,,,,,,,,,,,,,,,,,,,,,,,,
,,,,,SPR24_021,20,female,2024-04-09_15h22.59.629,jersey_experiment_5_v0,2023.2.2,Win32,84.74576271,,,,,,,,,,,,,,,,145.0194,146.0659,146.066,150.1956,return,1.9369,,87.109375,0,21,21,19,1,FBP-YG-17.png,0.45,1.2,20,0.25,,,,,,,,,,,,,,,,,,,,,,,,,,,,,,,,,,,,,,,,,,,,,
,,,,,SPR24_021,20,female,2024-04-09_15h22.59.629,jersey_experiment_5_v0,2023.2.2,Win32,84.74576271,,,,,,,,,,,,,,,,150.1959,151.4897,151.4898,154.6545,return,1.6466,,90.10416667,0,22,22,9,1,FBP-OG-81.png,0.45,1.2,10,0.5,,,,,,,,,,,,,,,,,,,,,,,,,,,,,,,,,,,,,,,,,,,,,
,,,,,SPR24_021,20,female,2024-04-09_15h22.59.629,jersey_experiment_5_v0,2023.2.2,Win32,84.74576271,,,,,,,,,,,,,,,,154.6548,155.9487,155.9487,158.0076,return,0.2622,,50,0,23,23,31,1,FBP-RB-17.png,0.37,1.2,32,0.5,,,,,,,,,,,,,,,,,,,,,,,,,,,,,,,,,,,,,,,,,,,,,
,,,,,SPR24_021,20,female,2024-04-09_15h22.59.629,jersey_experiment_5_v0,2023.2.2,Win32,84.74576271,,,,,,,,,,,,,,,,158.0078,159.3018,159.3018,161.0548,return,0.4,,35.67708333,0,24,24,10,1,FBP-OG-91.png,0.35,1.2,11,0.5,,,,,,,,,,,,,,,,,,,,,,,,,,,,,,,,,,,,,,,,,,,,,
,,,,,SPR24_021,20,female,2024-04-09_15h22.59.629,jersey_experiment_5_v0,2023.2.2,Win32,84.74576271,,,,,,,,,,,,,,,,161.055,162.349,162.349,164.3139,return,0.3524,,37.76041667,0,25,25,35,1,FBP-RB-18.png,0.35,1.2,36,0.5,,,,,,,,,,,,,,,,,,,,,,,,,,,,,,,,,,,,,,,,,,,,,
,,,,,SPR24_021,20,female,2024-04-09_15h22.59.629,jersey_experiment_5_v0,2023.2.2,Win32,84.74576271,,,,,,,,,,,,,,,,164.3141,165.3608,165.3608,168.3022,return,0.2459,,58.984375,0,26,26,46,1,FBP-PT-17.png,0.37,1.2,47,0.25,,,,,,,,,,,,,,,,,,,,,,,,,,,,,,,,,,,,,,,,,,,,,
,,,,,SPR24_021,20,female,2024-04-09_15h22.59.629,jersey_experiment_5_v0,2023.2.2,Win32,84.74576271,,,,,,,,,,,,,,,,168.3025,169.3492,169.3492,170.6671,return,0.1412,,59.63541667,0,27,27,50,1,FBP-PT-18.png,0.35,1.2,51,0.25,,,,,,,,,,,,,,,,,,,,,,,,,,,,,,,,,,,,,,,,,,,,,
,,,,,SPR24_021,20,female,2024-04-09_15h22.59.629,jersey_experiment_5_v0,2023.2.2,Win32,84.74576271,,,,,,,,,,,,,,,,170.6673,171.7141,171.7141,173.5142,return,0.2829,,63.41145833,0,28,28,21,1,FBP-YG-18.png,0.37,1.2,22,0.25,,,,,,,,,,,,,,,,,,,,,,,,,,,,,,,,,,,,,,,,,,,,,
,,,,,SPR24_021,20,female,2024-04-09_15h22.59.629,jersey_experiment_5_v0,2023.2.2,Win32,84.74576271,,,,,,,,,,,,,,,,173.5144,174.5611,174.5612,177.7496,return,1.817,,66.27604167,0,29,29,26,1,FBP-YG-19.png,0.37,1.2,27,0.25,,,,,,,,,,,,,,,,,,,,,,,,,,,,,,,,,,,,,,,,,,,,,
,,,,,SPR24_021,20,female,2024-04-09_15h22.59.629,jersey_experiment_5_v0,2023.2.2,Win32,84.74576271,,,,,,,,,,,,,,,,177.7498,178.7966,178.7967,181.0203,return,0.3676,,74.86979167,0,30,30,47,1,FBP-PT-17.png,0.4,1.2,48,0.25,,,,,,,,,,,,,,,,,,,,,,,,,,,,,,,,,,,,,,,,,,,,,
,,,,,SPR24_021,20,female,2024-04-09_15h22.59.629,jersey_experiment_5_v0,2023.2.2,Win32,84.74576271,,,,,,,,,,,,,,,,181.0205,182.0673,182.0673,183.8792,return,0.2971,,79.6875,0,31,31,23,1,FBP-YG-18.png,0.43,1.2,24,0.25,,,,,,,,,,,,,,,,,,,,,,,,,,,,,,,,,,,,,,,,,,,,,
,,,,,SPR24_021,20,female,2024-04-09_15h22.59.629,jersey_experiment_5_v0,2023.2.2,Win32,84.74576271,,,,,,,,,,,,,,,,183.8794,184.9262,184.9263,186.3501,return,0.2931,,85.02604167,0,32,32,52,1,FBP-PT-18.png,0.4,1.2,53,0.25,,,,,,,,,,,,,,,,,,,,,,,,,,,,,,,,,,,,,,,,,,,,,
,,,,,SPR24_021,20,female,2024-04-09_15h22.59.629,jersey_experiment_5_v0,2023.2.2,Win32,84.74576271,,,,,,,,,,,,,,,,186.3504,187.3969,187.397,190.1501,return,1.2181,,92.96875,0,33,33,29,1,FBP-YG-19.png,0.45,1.2,30,0.25,,,,,,,,,,,,,,,,,,,,,,,,,,,,,,,,,,,,,,,,,,,,,
,,,,,SPR24_021,20,female,2024-04-09_15h22.59.629,jersey_experiment_5_v0,2023.2.2,Win32,84.74576271,,,,,,,,,,,,,,,,190.1504,191.4442,191.4443,192.6444,return,0.2652,,91.015625,0,34,34,43,1,FBP-RB-19.png,0.43,1.2,44,0.5,,,,,,,,,,,,,,,,,,,,,,,,,,,,,,,,,,,,,,,,,,,,,
,,,,,SPR24_021,20,female,2024-04-09_15h22.59.629,jersey_experiment_5_v0,2023.2.2,Win32,84.74576271,,,,,,,,,,,,,,,,192.6446,193.9385,193.9385,195.0328,return,0.1534,,91.27604167,0,35,35,44,1,FBP-RB-19.png,0.45,1.2,45,0.5,,,,,,,,,,,,,,,,,,,,,,,,,,,,,,,,,,,,,,,,,,,,,
,,,,,SPR24_021,20,female,2024-04-09_15h22.59.629,jersey_experiment_5_v0,2023.2.2,Win32,84.74576271,,,,,,,,,,,,,,,,195.033,196.0796,196.0797,197.4681,return,0.2583,,95.96354167,0,36,36,54,1,FBP-PT-18.png,0.45,1.2,55,0.25,,,,,,,,,,,,,,,,,,,,,,,,,,,,,,,,,,,,,,,,,,,,,
,,,,,SPR24_021,20,female,2024-04-09_15h22.59.629,jersey_experiment_5_v0,2023.2.2,Win32,84.74576271,,,,,,,,,,,,,,,,197.4684,198.5149,198.515,199.8683,return,0.1784,,84.765625,0,37,37,48,1,FBP-PT-17.png,0.43,1.2,49,0.25,,,,,,,,,,,,,,,,,,,,,,,,,,,,,,,,,,,,,,,,,,,,,
,,,,,SPR24_021,20,female,2024-04-09_15h22.59.629,jersey_experiment_5_v0,2023.2.2,Win32,84.74576271,,,,,,,,,,,,,,,,199.8684,200.9151,200.9151,202.4212,return,0.1721,,68.88020833,0,38,38,51,1,FBP-PT-18.png,0.37,1.2,52,0.25,,,,,,,,,,,,,,,,,,,,,,,,,,,,,,,,,,,,,,,,,,,,,
,,,,,SPR24_021,20,female,2024-04-09_15h22.59.629,jersey_experiment_5_v0,2023.2.2,Win32,84.74576271,,,,,,,,,,,,,,,,202.4214,203.4682,203.4682,208.1037,return,2.0503,,75.52083333,0,39,39,53,1,FBP-PT-18.png,0.43,1.2,54,0.25,,,,,,,,,,,,,,,,,,,,,,,,,,,,,,,,,,,,,,,,,,,,,
,,,,,SPR24_021,20,female,2024-04-09_15h22.59.629,jersey_experiment_5_v0,2023.2.2,Win32,84.74576271,,,,,,,,,,,,,,,,208.104,209.3978,209.3979,211.692,return,0.8575,,63.28125,0,40,40,37,1,FBP-RB-18.png,0.4,1.2,38,0.5,,,,,,,,,,,,,,,,,,,,,,,,,,,,,,,,,,,,,,,,,,,,,
,,,,,SPR24_021,20,female,2024-04-09_15h22.59.629,jersey_experiment_5_v0,2023.2.2,Win32,84.74576271,,,,,,,,,,,,,,,,211.6922,212.9861,212.9861,214.8921,return,0.2827,,49.86979167,0,41,41,6,1,FBP-OG-81.png,0.37,1.2,7,0.5,,,,,,,,,,,,,,,,,,,,,,,,,,,,,,,,,,,,,,,,,,,,,
,,,,,SPR24_021,20,female,2024-04-09_15h22.59.629,jersey_experiment_5_v0,2023.2.2,Win32,84.74576271,,,,,,,,,,,,,,,,214.8924,216.1863,216.1863,218.2333,return,0.4838,,82.29166667,0,42,42,14,1,FBP-OG-91.png,0.45,1.2,15,0.5,,,,,,,,,,,,,,,,,,,,,,,,,,,,,,,,,,,,,,,,,,,,,
,,,,,SPR24_021,20,female,2024-04-09_15h22.59.629,jersey_experiment_5_v0,2023.2.2,Win32,84.74576271,,,,,,,,,,,,,,,,218.2337,219.2805,219.2806,221.7513,return,0.6286,,64.0625,0,43,43,56,1,FBP-PT-19.png,0.37,1.2,57,0.25,,,,,,,,,,,,,,,,,,,,,,,,,,,,,,,,,,,,,,,,,,,,,
,,,,,SPR24_021,20,female,2024-04-09_15h22.59.629,jersey_experiment_5_v0,2023.2.2,Win32,84.74576271,,,,,,,,,,,,,,,,221.7515,222.7983,222.7983,224.1513,return,0.2756,,62.76041667,0,44,44,22,1,FBP-YG-18.png,0.4,1.2,23,0.25,,,,,,,,,,,,,,,,,,,,,,,,,,,,,,,,,,,,,,,,,,,,,
,,,,,SPR24_021,20,female,2024-04-09_15h22.59.629,jersey_experiment_5_v0,2023.2.2,Win32,84.74576271,,,,,,,,,,,,,,,,224.1514,225.4456,225.4457,227.8336,return,0.3889,,75.390625,0,45,45,34,1,FBP-RB-17.png,0.45,1.2,35,0.5,,,,,,,,,,,,,,,,,,,,,,,,,,,,,,,,,,,,,,,,,,,,,
,,,,,SPR24_021,20,female,2024-04-09_15h22.59.629,jersey_experiment_5_v0,2023.2.2,Win32,84.74576271,,,,,,,,,,,,,,,,227.8339,229.1279,229.128,231.434,return,0.3658,,43.22916667,0,46,46,40,1,FBP-RB-19.png,0.35,1.2,41,0.5,,,,,,,,,,,,,,,,,,,,,,,,,,,,,,,,,,,,,,,,,,,,,
,,,,,SPR24_021,20,female,2024-04-09_15h22.59.629,jersey_experiment_5_v0,2023.2.2,Win32,84.74576271,,,,,,,,,,,,,,,,231.4342,232.728,232.7281,234.246,return,0.2763,,75.390625,0,47,47,13,1,FBP-OG-91.png,0.43,1.2,14,0.5,,,,,,,,,,,,,,,,,,,,,,,,,,,,,,,,,,,,,,,,,,,,,
,,,,,SPR24_021,20,female,2024-04-09_15h22.59.629,jersey_experiment_5_v0,2023.2.2,Win32,84.74576271,,,,,,,,,,,,,,,,234.2463,235.2928,235.2928,236.9047,return,0.274,,25.13020833,0,48,48,55,1,FBP-PT-19.png,0.35,1.2,56,0.25,,,,,,,,,,,,,,,,,,,,,,,,,,,,,,,,,,,,,,,,,,,,,
,,,,,SPR24_021,20,female,2024-04-09_15h22.59.629,jersey_experiment_5_v0,2023.2.2,Win32,84.74576271,,,,,,,,,,,,,,,,236.905,237.9517,237.9517,240.5402,return,0.1414,,70.3125,0,49,49,18,1,FBP-YG-17.png,0.43,1.2,19,0.25,,,,,,,,,,,,,,,,,,,,,,,,,,,,,,,,,,,,,,,,,,,,,
,,,,,SPR24_021,20,female,2024-04-09_15h22.59.629,jersey_experiment_5_v0,2023.2.2,Win32,84.74576271,,,,,,,,,,,,,,,,240.5404,241.8342,241.8343,243.4113,return,0.208,,86.84895833,0,50,50,4,1,FBP-OG-71.png,0.45,1.2,5,0.5,,,,,,,,,,,,,,,,,,,,,,,,,,,,,,,,,,,,,,,,,,,,,
,,,,,SPR24_021,20,female,2024-04-09_15h22.59.629,jersey_experiment_5_v0,2023.2.2,Win32,84.74576271,,,,,,,,,,,,,,,,243.4115,244.7049,244.7049,245.9402,return,0.2887,,90.625,0,51,51,39,1,FBP-RB-18.png,0.45,1.2,40,0.5,,,,,,,,,,,,,,,,,,,,,,,,,,,,,,,,,,,,,,,,,,,,,
,,,,,SPR24_021,20,female,2024-04-09_15h22.59.629,jersey_experiment_5_v0,2023.2.2,Win32,84.74576271,,,,,,,,,,,,,,,,245.9405,246.9874,246.9874,249.47,return,1.262,,50.13020833,0,52,52,27,1,FBP-YG-19.png,0.4,1.2,28,0.25,,,,,,,,,,,,,,,,,,,,,,,,,,,,,,,,,,,,,,,,,,,,,
,,,,,SPR24_021,20,female,2024-04-09_15h22.59.629,jersey_experiment_5_v0,2023.2.2,Win32,84.74576271,,,,,,,,,,,,,,,,249.4702,250.5169,250.5169,254.2348,return,0.4109,,7.291666667,0,53,53,15,1,FBP-YG-17.png,0.35,1.2,16,0.25,,,,,,,,,,,,,,,,,,,,,,,,,,,,,,,,,,,,,,,,,,,,,
,,,,,SPR24_021,20,female,2024-04-09_15h22.59.629,jersey_experiment_5_v0,2023.2.2,Win32,84.74576271,,,,,,,,,,,,,,,,254.235,255.5289,255.5289,258.3761,return,0.367,,42.70833333,0,54,54,11,1,FBP-OG-91.png,0.37,1.2,12,0.5,,,,,,,,,,,,,,,,,,,,,,,,,,,,,,,,,,,,,,,,,,,,,
,,,,,SPR24_021,20,female,2024-04-09_15h22.59.629,jersey_experiment_5_v0,2023.2.2,Win32,84.74576271,,,,,,,,,,,,,,,,258.3763,259.4234,259.4235,260.9645,return,0.2062,,75.26041667,0,55,55,17,1,FBP-YG-17.png,0.4,1.2,18,0.25,,,,,,,,,,,,,,,,,,,,,,,,,,,,,,,,,,,,,,,,,,,,,
,,,,,SPR24_021,20,female,2024-04-09_15h22.59.629,jersey_experiment_5_v0,2023.2.2,Win32,84.74576271,,,,,,,,,,,,,,,,260.9647,262.2586,262.2586,264.1528,return,0.58,,93.48958333,0,56,56,38,1,FBP-RB-18.png,0.43,1.2,39,0.5,,,,,,,,,,,,,,,,,,,,,,,,,,,,,,,,,,,,,,,,,,,,,
,,,,,SPR24_021,20,female,2024-04-09_15h22.59.629,jersey_experiment_5_v0,2023.2.2,Win32,84.74576271,,,,,,,,,,,,,,,,264.1531,265.4469,265.4471,267.9647,return,0.2724,,30.078125,0,57,57,1,1,FBP-OG-71.png,0.37,1.2,2,0.5,,,,,,,,,,,,,,,,,,,,,,,,,,,,,,,,,,,,,,,,,,,,,
,,,,,SPR24_021,20,female,2024-04-09_15h22.59.629,jersey_experiment_5_v0,2023.2.2,Win32,84.74576271,,,,,,,,,,,,,,,,267.9649,269.2589,269.2589,270.9414,return,0.3403,,88.28125,0,58,58,3,1,FBP-OG-71.png,0.43,1.2,4,0.5,,,,,,,,,,,,,,,,,,,,,,,,,,,,,,,,,,,,,,,,,,,,,
,,,,,SPR24_021,20,female,2024-04-09_15h22.59.629,jersey_experiment_5_v0,2023.2.2,Win32,84.74576271,,,,,,,,,,,,,,,,270.9414,272.2354,272.2354,273.3651,return,0.1487,,25,0,59,59,0,1,FBP-OG-71.png,0.35,1.2,1,0.5,,,,,,,,,,,,,,,,,,,,,,,,,,,,,,,,,,,,,,,,,,,,,
,,,,,SPR24_021,20,female,2024-04-09_15h22.59.629,jersey_experiment_5_v0,2023.2.2,Win32,84.74576271,,,,,,,,,,,,,,,,273.3669,274.6591,274.6591,275.6709,return,0.1233,,49.34895833,,,,,,FBP-RB-91.png,0.4,1.2,43,0.5,0,0,0,42,1,,,,,,,,,,,,,,,,,,,,,,,,,,,,,,,,,,,,,,,,
,,,,,SPR24_021,20,female,2024-04-09_15h22.59.629,jersey_experiment_5_v0,2023.2.2,Win32,84.74576271,,,,,,,,,,,,,,,,275.6711,276.7179,276.7179,279.2709,return,1.5817,,31.51041667,,,,,,FBP-YG-71.png,0.37,1.2,17,0.25,0,1,1,16,1,,,,,,,,,,,,,,,,,,,,,,,,,,,,,,,,,,,,,,,,
,,,,,SPR24_021,20,female,2024-04-09_15h22.59.629,jersey_experiment_5_v0,2023.2.2,Win32,84.74576271,,,,,,,,,,,,,,,,279.2712,280.5653,280.5653,282.0595,return,0.1313,,79.296875,,,,,,FBP-RB-91.png,0.43,1.2,44,0.5,0,2,2,43,1,,,,,,,,,,,,,,,,,,,,,,,,,,,,,,,,,,,,,,,,
,,,,,SPR24_021,20,female,2024-04-09_15h22.59.629,jersey_experiment_5_v0,2023.2.2,Win32,84.74576271,,,,,,,,,,,,,,,,282.0597,283.3536,283.3537,284.8596,return,0.2824,,93.88020833,,,,,,FBP-RB-81.png,0.45,1.2,40,0.5,0,3,3,39,1,,,,,,,,,,,,,,,,,,,,,,,,,,,,,,,,,,,,,,,,
,,,,,SPR24_021,20,female,2024-04-09_15h22.59.629,jersey_experiment_5_v0,2023.2.2,Win32,84.74576271,,,,,,,,,,,,,,,,284.8598,285.9064,285.9065,287.9892,return,0.1943,,70.3125,,,,,,FBP-YG-91.png,0.4,1.2,28,0.25,0,4,4,27,1,,,,,,,,,,,,,,,,,,,,,,,,,,,,,,,,,,,,,,,,
,,,,,SPR24_021,20,female,2024-04-09_15h22.59.629,jersey_experiment_5_v0,2023.2.2,Win32,84.74576271,,,,,,,,,,,,,,,,287.9894,289.2831,289.2832,291.1422,return,0.4182,,25,,,,,,FBP-OG-18.png,0.37,1.2,7,0.5,0,5,5,6,1,,,,,,,,,,,,,,,,,,,,,,,,,,,,,,,,,,,,,,,,
,,,,,SPR24_021,20,female,2024-04-09_15h22.59.629,jersey_experiment_5_v0,2023.2.2,Win32,84.74576271,,,,,,,,,,,,,,,,291.1424,292.4363,292.4363,294.9421,return,0.5288,,95.18229167,,,,,,FBP-RB-91.png,0.45,1.2,45,0.5,0,6,6,44,1,,,,,,,,,,,,,,,,,,,,,,,,,,,,,,,,,,,,,,,,
,,,,,SPR24_021,20,female,2024-04-09_15h22.59.629,jersey_experiment_5_v0,2023.2.2,Win32,84.74576271,,,,,,,,,,,,,,,,294.9423,295.9892,295.9893,299.3074,return,0.2819,,6.119791667,,,,,,FBP-PT-91.png,0.35,1.2,56,0.25,0,7,7,55,1,,,,,,,,,,,,,,,,,,,,,,,,,,,,,,,,,,,,,,,,
,,,,,SPR24_021,20,female,2024-04-09_15h22.59.629,jersey_experiment_5_v0,2023.2.2,Win32,84.74576271,,,,,,,,,,,,,,,,299.3075,300.3541,300.3541,302.2366,return,0.1889,,50,,,,,,FBP-PT-91.png,0.43,1.2,59,0.25,0,8,8,58,1,,,,,,,,,,,,,,,,,,,,,,,,,,,,,,,,,,,,,,,,
,,,,,SPR24_021,20,female,2024-04-09_15h22.59.629,jersey_experiment_5_v0,2023.2.2,Win32,84.74576271,,,,,,,,,,,,,,,,302.2369,303.2837,303.2837,304.5192,return,0.2276,,75.26041667,,,,,,FBP-YG-71.png,0.45,1.2,20,0.25,0,9,9,19,1,,,,,,,,,,,,,,,,,,,,,,,,,,,,,,,,,,,,,,,,
,,,,,SPR24_021,20,female,2024-04-09_15h22.59.629,jersey_experiment_5_v0,2023.2.2,Win32,84.74576271,,,,,,,,,,,,,,,,304.5193,305.566,305.566,307.5665,return,0.9557,,49.21875,,,,,,FBP-PT-91.png,0.37,1.2,57,0.25,0,10,10,56,1,,,,,,,,,,,,,,,,,,,,,,,,,,,,,,,,,,,,,,,,
,,,,,SPR24_021,20,female,2024-04-09_15h22.59.629,jersey_experiment_5_v0,2023.2.2,Win32,84.74576271,,,,,,,,,,,,,,,,307.5667,308.6132,308.6132,310.0251,return,0.2851,,32.94270833,,,,,,FBP-PT-81.png,0.35,1.2,51,0.25,0,11,11,50,1,,,,,,,,,,,,,,,,,,,,,,,,,,,,,,,,,,,,,,,,
,,,,,SPR24_021,20,female,2024-04-09_15h22.59.629,jersey_experiment_5_v0,2023.2.2,Win32,84.74576271,,,,,,,,,,,,,,,,310.0254,311.3192,311.3192,314.8253,return,1.3306,,75,,,,,,FBP-RB-81.png,0.4,1.2,38,0.5,0,12,12,37,1,,,,,,,,,,,,,,,,,,,,,,,,,,,,,,,,,,,,,,,,
,,,,,SPR24_021,20,female,2024-04-09_15h22.59.629,jersey_experiment_5_v0,2023.2.2,Win32,84.74576271,,,,,,,,,,,,,,,,314.8254,316.1193,316.1193,318.1553,return,0.2343,,49.34895833,,,,,,FBP-OG-17.png,0.4,1.2,3,0.5,0,13,13,2,1,,,,,,,,,,,,,,,,,,,,,,,,,,,,,,,,,,,,,,,,
,,,,,SPR24_021,20,female,2024-04-09_15h22.59.629,jersey_experiment_5_v0,2023.2.2,Win32,84.74576271,,,,,,,,,,,,,,,,318.1554,319.4489,319.4489,323.4493,return,0.6032,,85.41666667,,,,,,FBP-RB-71.png,0.45,1.2,35,0.5,0,14,14,34,1,,,,,,,,,,,,,,,,,,,,,,,,,,,,,,,,,,,,,,,,
,,,,,SPR24_021,20,female,2024-04-09_15h22.59.629,jersey_experiment_5_v0,2023.2.2,Win32,84.74576271,,,,,,,,,,,,,,,,323.4494,324.7434,324.7434,326.7434,return,0.3695,,18.88020833,,,,,,FBP-OG-18.png,0.35,1.2,6,0.5,0,15,15,5,1,,,,,,,,,,,,,,,,,,,,,,,,,,,,,,,,,,,,,,,,
,,,,,SPR24_021,20,female,2024-04-09_15h22.59.629,jersey_experiment_5_v0,2023.2.2,Win32,84.74576271,,,,,,,,,,,,,,,,326.7435,327.7905,327.7905,330.9084,return,1.7553,,75.52083333,,,,,,FBP-PT-71.png,0.45,1.2,50,0.25,0,16,16,49,1,,,,,,,,,,,,,,,,,,,,,,,,,,,,,,,,,,,,,,,,
,,,,,SPR24_021,20,female,2024-04-09_15h22.59.629,jersey_experiment_5_v0,2023.2.2,Win32,84.74576271,,,,,,,,,,,,,,,,330.9086,331.9553,331.9553,336.132,return,1.1826,,12.76041667,,,,,,FBP-YG-81.png,0.35,1.2,21,0.25,0,17,17,20,1,,,,,,,,,,,,,,,,,,,,,,,,,,,,,,,,,,,,,,,,
,,,,,SPR24_021,20,female,2024-04-09_15h22.59.629,jersey_experiment_5_v0,2023.2.2,Win32,84.74576271,,,,,,,,,,,,,,,,336.1322,337.4264,337.4264,338.8147,return,0.1654,,25,,,,,,FBP-OG-17.png,0.35,1.2,1,0.5,0,18,18,0,1,,,,,,,,,,,,,,,,,,,,,,,,,,,,,,,,,,,,,,,,
,,,,,SPR24_021,20,female,2024-04-09_15h22.59.629,jersey_experiment_5_v0,2023.2.2,Win32,84.74576271,,,,,,,,,,,,,,,,338.8149,339.8614,339.8614,341.3089,return,0.1642,,75.26041667,,,,,,FBP-YG-71.png,0.4,1.2,18,0.25,0,19,19,17,1,,,,,,,,,,,,,,,,,,,,,,,,,,,,,,,,,,,,,,,,
,,,,,SPR24_021,20,female,2024-04-09_15h22.59.629,jersey_experiment_5_v0,2023.2.2,Win32,84.74576271,,,,,,,,,,,,,,,,341.3091,342.3556,342.3557,344.2854,return,0.268,,98.17708333,,,,,,FBP-PT-91.png,0.45,1.2,60,0.25,0,20,20,59,1,,,,,,,,,,,,,,,,,,,,,,,,,,,,,,,,,,,,,,,,
,,,,,SPR24_021,20,female,2024-04-09_15h22.59.629,jersey_experiment_5_v0,2023.2.2,Win32,84.74576271,,,,,,,,,,,,,,,,344.2855,345.3321,345.3322,347.2267,return,0.2134,,55.59895833,,,,,,FBP-PT-81.png,0.4,1.2,53,0.25,0,21,21,52,1,,,,,,,,,,,,,,,,,,,,,,,,,,,,,,,,,,,,,,,,
,,,,,SPR24_021,20,female,2024-04-09_15h22.59.629,jersey_experiment_5_v0,2023.2.2,Win32,84.74576271,,,,,,,,,,,,,,,,347.2269,348.2736,348.2736,349.8856,return,0.1989,,60.546875,,,,,,FBP-PT-91.png,0.4,1.2,58,0.25,0,22,22,57,1,,,,,,,,,,,,,,,,,,,,,,,,,,,,,,,,,,,,,,,,
,,,,,SPR24_021,20,female,2024-04-09_15h22.59.629,jersey_experiment_5_v0,2023.2.2,Win32,84.74576271,,,,,,,,,,,,,,,,349.8857,350.9326,350.9326,352.4857,return,0.1454,,67.96875,,,,,,FBP-YG-91.png,0.43,1.2,29,0.25,0,23,23,28,1,,,,,,,,,,,,,,,,,,,,,,,,,,,,,,,,,,,,,,,,
,,,,,SPR24_021,20,female,2024-04-09_15h22.59.629,jersey_experiment_5_v0,2023.2.2,Win32,84.74576271,,,,,,,,,,,,,,,,352.486,353.7797,353.7798,356.2623,return,0.265,,72.00520833,,,,,,FBP-RB-71.png,0.43,1.2,34,0.5,0,24,24,33,1,,,,,,,,,,,,,,,,,,,,,,,,,,,,,,,,,,,,,,,,
,,,,,SPR24_021,20,female,2024-04-09_15h22.59.629,jersey_experiment_5_v0,2023.2.2,Win32,84.74576271,,,,,,,,,,,,,,,,356.2623,357.5562,357.5562,359.8623,return,1.3941,,39.71354167,,,,,,FBP-RB-71.png,0.35,1.2,31,0.5,0,25,25,30,1,,,,,,,,,,,,,,,,,,,,,,,,,,,,,,,,,,,,,,,,
,,,,,SPR24_021,20,female,2024-04-09_15h22.59.629,jersey_experiment_5_v0,2023.2.2,Win32,84.74576271,,,,,,,,,,,,,,,,359.8625,361.1564,361.1565,362.6861,return,0.1754,,34.50520833,,,,,,FBP-OG-19.png,0.35,1.2,11,0.5,0,26,26,10,1,,,,,,,,,,,,,,,,,,,,,,,,,,,,,,,,,,,,,,,,
,,,,,SPR24_021,20,female,2024-04-09_15h22.59.629,jersey_experiment_5_v0,2023.2.2,Win32,84.74576271,,,,,,,,,,,,,,,,362.6863,363.9799,363.98,365.2743,return,0.176,,45.703125,,,,,,FBP-RB-91.png,0.35,1.2,41,0.5,0,27,27,40,1,,,,,,,,,,,,,,,,,,,,,,,,,,,,,,,,,,,,,,,,
,,,,,SPR24_021,20,female,2024-04-09_15h22.59.629,jersey_experiment_5_v0,2023.2.2,Win32,84.74576271,,,,,,,,,,,,,,,,365.2746,366.3212,366.3214,369.9098,return,0.8877,,76.82291667,,,,,,FBP-YG-81.png,0.43,1.2,24,0.25,0,28,28,23,1,,,,,,,,,,,,,,,,,,,,,,,,,,,,,,,,,,,,,,,,
,,,,,SPR24_021,20,female,2024-04-09_15h22.59.629,jersey_experiment_5_v0,2023.2.2,Win32,84.74576271,,,,,,,,,,,,,,,,369.91,371.2038,371.2039,372.1571,return,0.1175,,77.99479167,,,,,,FBP-OG-19.png,0.43,1.2,14,0.5,0,29,29,13,1,,,,,,,,,,,,,,,,,,,,,,,,,,,,,,,,,,,,,,,,
,,,,,SPR24_021,20,female,2024-04-09_15h22.59.629,jersey_experiment_5_v0,2023.2.2,Win32,84.74576271,,,,,,,,,,,,,,,,372.1574,373.204,373.204,374.7453,return,0.1561,,87.23958333,,,,,,FBP-PT-81.png,0.45,1.2,55,0.25,0,30,30,54,1,,,,,,,,,,,,,,,,,,,,,,,,,,,,,,,,,,,,,,,,
,,,,,SPR24_021,20,female,2024-04-09_15h22.59.629,jersey_experiment_5_v0,2023.2.2,Win32,84.74576271,,,,,,,,,,,,,,,,374.7455,376.0394,376.0395,377.2278,return,0.1887,,87.36979167,,,,,,FBP-RB-81.png,0.43,1.2,39,0.5,0,31,31,38,1,,,,,,,,,,,,,,,,,,,,,,,,,,,,,,,,,,,,,,,,
,,,,,SPR24_021,20,female,2024-04-09_15h22.59.629,jersey_experiment_5_v0,2023.2.2,Win32,84.74576271,,,,,,,,,,,,,,,,377.2281,378.2747,378.2747,380.2865,return,0.3388,,74.86979167,,,,,,FBP-YG-81.png,0.4,1.2,23,0.25,0,32,32,22,1,,,,,,,,,,,,,,,,,,,,,,,,,,,,,,,,,,,,,,,,
,,,,,SPR24_021,20,female,2024-04-09_15h22.59.629,jersey_experiment_5_v0,2023.2.2,Win32,84.74576271,,,,,,,,,,,,,,,,380.2867,381.3337,381.3337,386.7811,return,1.9058,,38.15104167,,,,,,FBP-YG-91.png,0.35,1.2,26,0.25,0,33,33,25,1,,,,,,,,,,,,,,,,,,,,,,,,,,,,,,,,,,,,,,,,
,,,,,SPR24_021,20,female,2024-04-09_15h22.59.629,jersey_experiment_5_v0,2023.2.2,Win32,84.74576271,,,,,,,,,,,,,,,,386.7814,388.0751,388.0752,391.8282,return,0.2083,,74.47916667,,,,,,FBP-OG-19.png,0.45,1.2,15,0.5,0,34,34,14,1,,,,,,,,,,,,,,,,,,,,,,,,,,,,,,,,,,,,,,,,
,,,,,SPR24_021,20,female,2024-04-09_15h22.59.629,jersey_experiment_5_v0,2023.2.2,Win32,84.74576271,,,,,,,,,,,,,,,,391.8285,393.1224,393.1224,394.4754,return,0.1516,,74.08854167,,,,,,FBP-RB-71.png,0.4,1.2,33,0.5,0,35,35,32,1,,,,,,,,,,,,,,,,,,,,,,,,,,,,,,,,,,,,,,,,
,,,,,SPR24_021,20,female,2024-04-09_15h22.59.629,jersey_experiment_5_v0,2023.2.2,Win32,84.74576271,,,,,,,,,,,,,,,,394.4755,395.5224,395.5225,397.6285,return,0.8095,,89.453125,,,,,,FBP-PT-81.png,0.43,1.2,54,0.25,0,36,36,53,1,,,,,,,,,,,,,,,,,,,,,,,,,,,,,,,,,,,,,,,,
,,,,,SPR24_021,20,female,2024-04-09_15h22.59.629,jersey_experiment_5_v0,2023.2.2,Win32,84.74576271,,,,,,,,,,,,,,,,397.6288,398.9225,398.9226,402.311,return,1.2389,,75.26041667,,,,,,FBP-OG-19.png,0.4,1.2,13,0.5,0,37,37,12,1,,,,,,,,,,,,,,,,,,,,,,,,,,,,,,,,,,,,,,,,
,,,,,SPR24_021,20,female,2024-04-09_15h22.59.629,jersey_experiment_5_v0,2023.2.2,Win32,84.74576271,,,,,,,,,,,,,,,,402.3112,403.605,403.605,405.8995,return,0.2018,,100,,,,,,FBP-OG-18.png,0.45,1.2,10,0.5,0,38,38,9,1,,,,,,,,,,,,,,,,,,,,,,,,,,,,,,,,,,,,,,,,
,,,,,SPR24_021,20,female,2024-04-09_15h22.59.629,jersey_experiment_5_v0,2023.2.2,Win32,84.74576271,,,,,,,,,,,,,,,,405.8997,406.9464,406.9464,408.6993,return,0.1784,,88.93229167,,,,,,FBP-PT-71.png,0.43,1.2,49,0.25,0,39,39,48,1,,,,,,,,,,,,,,,,,,,,,,,,,,,,,,,,,,,,,,,,
,,,,,SPR24_021,20,female,2024-04-09_15h22.59.629,jersey_experiment_5_v0,2023.2.2,Win32,84.74576271,,,,,,,,,,,,,,,,408.6994,409.7464,409.7465,411.1347,return,0.1415,,97.91666667,,,,,,FBP-YG-81.png,0.45,1.2,25,0.25,0,40,40,24,1,,,,,,,,,,,,,,,,,,,,,,,,,,,,,,,,,,,,,,,,
,,,,,SPR24_021,20,female,2024-04-09_15h22.59.629,jersey_experiment_5_v0,2023.2.2,Win32,84.74576271,,,,,,,,,,,,,,,,411.1349,412.429,412.429,414.582,return,0.1593,,83.72395833,,,,,,FBP-OG-17.png,0.45,1.2,5,0.5,0,41,41,4,1,,,,,,,,,,,,,,,,,,,,,,,,,,,,,,,,,,,,,,,,
,,,,,SPR24_021,20,female,2024-04-09_15h22.59.629,jersey_experiment_5_v0,2023.2.2,Win32,84.74576271,,,,,,,,,,,,,,,,414.5821,415.8761,415.8761,418.3585,return,0.6516,,34.50520833,,,,,,FBP-OG-19.png,0.37,1.2,12,0.5,0,42,42,11,1,,,,,,,,,,,,,,,,,,,,,,,,,,,,,,,,,,,,,,,,
,,,,,SPR24_021,20,female,2024-04-09_15h22.59.629,jersey_experiment_5_v0,2023.2.2,Win32,84.74576271,,,,,,,,,,,,,,,,418.3587,419.6527,419.6527,421.1589,return,0.1707,,50.13020833,,,,,,FBP-OG-18.png,0.4,1.2,8,0.5,0,43,43,7,1,,,,,,,,,,,,,,,,,,,,,,,,,,,,,,,,,,,,,,,,
,,,,,SPR24_021,20,female,2024-04-09_15h22.59.629,jersey_experiment_5_v0,2023.2.2,Win32,84.74576271,,,,,,,,,,,,,,,,421.159,422.2059,422.2059,423.5589,return,0.1465,,39.0625,,,,,,FBP-PT-71.png,0.37,1.2,47,0.25,0,44,44,46,1,,,,,,,,,,,,,,,,,,,,,,,,,,,,,,,,,,,,,,,,
,,,,,SPR24_021,20,female,2024-04-09_15h22.59.629,jersey_experiment_5_v0,2023.2.2,Win32,84.74576271,,,,,,,,,,,,,,,,423.559,424.6058,424.6059,426.5355,return,0.2285,,35.67708333,,,,,,FBP-YG-71.png,0.35,1.2,16,0.25,0,45,45,15,1,,,,,,,,,,,,,,,,,,,,,,,,,,,,,,,,,,,,,,,,
,,,,,SPR24_021,20,female,2024-04-09_15h22.59.629,jersey_experiment_5_v0,2023.2.2,Win32,84.74576271,,,,,,,,,,,,,,,,426.5357,427.8295,427.8295,429.1826,return,0.1654,,49.47916667,,,,,,FBP-RB-71.png,0.37,1.2,32,0.5,0,46,46,31,1,,,,,,,,,,,,,,,,,,,,,,,,,,,,,,,,,,,,,,,,
,,,,,SPR24_021,20,female,2024-04-09_15h22.59.629,jersey_experiment_5_v0,2023.2.2,Win32,84.74576271,,,,,,,,,,,,,,,,429.1829,430.2297,430.2298,434.0418,return,0.2262,,22.13541667,,,,,,FBP-PT-71.png,0.35,1.2,46,0.25,0,47,47,45,1,,,,,,,,,,,,,,,,,,,,,,,,,,,,,,,,,,,,,,,,
,,,,,SPR24_021,20,female,2024-04-09_15h22.59.629,jersey_experiment_5_v0,2023.2.2,Win32,84.74576271,,,,,,,,,,,,,,,,434.0421,435.3357,435.3357,437.4652,return,0.2477,,42.96875,,,,,,FBP-RB-81.png,0.37,1.2,37,0.5,0,48,48,36,1,,,,,,,,,,,,,,,,,,,,,,,,,,,,,,,,,,,,,,,,
,,,,,SPR24_021,20,female,2024-04-09_15h22.59.629,jersey_experiment_5_v0,2023.2.2,Win32,84.74576271,,,,,,,,,,,,,,,,437.4653,438.5123,438.5123,442.7243,return,0.1948,,49.73958333,,,,,,FBP-PT-81.png,0.37,1.2,52,0.25,0,49,49,51,1,,,,,,,,,,,,,,,,,,,,,,,,,,,,,,,,,,,,,,,,
,,,,,SPR24_021,20,female,2024-04-09_15h22.59.629,jersey_experiment_5_v0,2023.2.2,Win32,84.74576271,,,,,,,,,,,,,,,,442.7245,443.7712,443.7712,446.0774,return,0.1989,,54.03645833,,,,,,FBP-YG-81.png,0.37,1.2,22,0.25,0,50,50,21,1,,,,,,,,,,,,,,,,,,,,,,,,,,,,,,,,,,,,,,,,
,,,,,SPR24_021,20,female,2024-04-09_15h22.59.629,jersey_experiment_5_v0,2023.2.2,Win32,84.74576271,,,,,,,,,,,,,,,,446.0776,447.3714,447.3714,448.948,return,0.5728,,67.96875,,,,,,FBP-OG-18.png,0.43,1.2,9,0.5,0,51,51,8,1,,,,,,,,,,,,,,,,,,,,,,,,,,,,,,,,,,,,,,,,
,,,,,SPR24_021,20,female,2024-04-09_15h22.59.629,jersey_experiment_5_v0,2023.2.2,Win32,84.74576271,,,,,,,,,,,,,,,,448.9481,449.995,449.995,453.6425,return,2.3901,,83.46354167,,,,,,FBP-YG-71.png,0.43,1.2,19,0.25,0,52,52,18,1,,,,,,,,,,,,,,,,,,,,,,,,,,,,,,,,,,,,,,,,
,,,,,SPR24_021,20,female,2024-04-09_15h22.59.629,jersey_experiment_5_v0,2023.2.2,Win32,84.74576271,,,,,,,,,,,,,,,,453.6427,454.6892,454.6893,457.0191,return,0.5533,,99.609375,,,,,,FBP-YG-91.png,0.45,1.2,30,0.25,0,53,53,29,1,,,,,,,,,,,,,,,,,,,,,,,,,,,,,,,,,,,,,,,,
,,,,,SPR24_021,20,female,2024-04-09_15h22.59.629,jersey_experiment_5_v0,2023.2.2,Win32,84.74576271,,,,,,,,,,,,,,,,457.0193,458.313,458.313,461.3249,return,0.212,,24.73958333,,,,,,FBP-OG-17.png,0.37,1.2,2,0.5,0,54,54,1,1,,,,,,,,,,,,,,,,,,,,,,,,,,,,,,,,,,,,,,,,
,,,,,SPR24_021,20,female,2024-04-09_15h22.59.629,jersey_experiment_5_v0,2023.2.2,Win32,84.74576271,,,,,,,,,,,,,,,,461.3251,462.6189,462.6189,463.7487,return,0.1253,,24.86979167,,,,,,FBP-RB-81.png,0.35,1.2,36,0.5,0,55,55,35,1,,,,,,,,,,,,,,,,,,,,,,,,,,,,,,,,,,,,,,,,
,,,,,SPR24_021,20,female,2024-04-09_15h22.59.629,jersey_experiment_5_v0,2023.2.2,Win32,84.74576271,,,,,,,,,,,,,,,,463.7489,464.7957,464.7958,468.4075,return,0.2398,,30.98958333,,,,,,FBP-YG-91.png,0.37,1.2,27,0.25,0,56,56,26,1,,,,,,,,,,,,,,,,,,,,,,,,,,,,,,,,,,,,,,,,
,,,,,SPR24_021,20,female,2024-04-09_15h22.59.629,jersey_experiment_5_v0,2023.2.2,Win32,84.74576271,,,,,,,,,,,,,,,,468.4077,469.4546,469.4546,470.5489,return,0.1355,,49.86979167,,,,,,FBP-PT-71.png,0.4,1.2,48,0.25,0,57,57,47,1,,,,,,,,,,,,,,,,,,,,,,,,,,,,,,,,,,,,,,,,
,,,,,SPR24_021,20,female,2024-04-09_15h22.59.629,jersey_experiment_5_v0,2023.2.2,Win32,84.74576271,,,,,,,,,,,,,,,,470.5491,471.843,471.843,473.2195,return,0.2191,,50,,,,,,FBP-RB-91.png,0.37,1.2,42,0.5,0,58,58,41,1,,,,,,,,,,,,,,,,,,,,,,,,,,,,,,,,,,,,,,,,
,,,,,SPR24_021,20,female,2024-04-09_15h22.59.629,jersey_experiment_5_v0,2023.2.2,Win32,84.74576271,,,,,,,,,,,,,,,,473.2197,474.5136,474.5137,476.3257,return,0.523,,65.36458333,,,,,,FBP-OG-17.png,0.43,1.2,4,0.5,0,59,59,3,1,,,,,,,,,,,,,,,,,,,,,,,,,,,,,,,,,,,,,,,,
,,,,,SPR24_021,20,female,2024-04-09_15h22.59.629,jersey_experiment_5_v0,2023.2.2,Win32,84.74576271,,,,,,,,,,,,,,,,,,,,,,,,,,,,,,,,,,,,,,,476.3261,596.3186,,,,,,,,,,,,,,,,,,,,,,,,,,,,,,,,,,,,,,
,,,,,SPR24_021,20,female,2024-04-09_15h22.59.629,jersey_experiment_5_v0,2023.2.2,Win32,84.74576271,,,,,,,,,,,,,,,,,,,,,,,,,,,,,,,,,,,,,,,,,596.3187,601.448,return,5.121,,,,,,,,,,,,,,,,,,,,,,,,,,,,,,,,,,
,,,,,SPR24_021,20,female,2024-04-09_15h22.59.629,jersey_experiment_5_v0,2023.2.2,Win32,84.74576271,,,,,,,,,,,,,,,,601.4544,602.7538,602.7538,608.0128,return,0.6224,,25.390625,,,,,,FBP-PT-17.png,0.35,1.2,46,0.5,,,,,,,,,,,,,0,0,0,45,1,,,,,,,,,,,,,,,,,,,,,,,,,,,,
,,,,,SPR24_021,20,female,2024-04-09_15h22.59.629,jersey_experiment_5_v0,2023.2.2,Win32,84.74576271,,,,,,,,,,,,,,,,608.0131,609.0599,609.06,611.7425,return,0.5178,,74.34895833,,,,,,FBP-RB-18.png,0.4,1.2,38,0.25,,,,,,,,,,,,,0,1,1,37,1,,,,,,,,,,,,,,,,,,,,,,,,,,,,
,,,,,SPR24_021,20,female,2024-04-09_15h22.59.629,jersey_experiment_5_v0,2023.2.2,Win32,84.74576271,,,,,,,,,,,,,,,,611.7427,613.0367,613.0367,614.8601,return,0.4341,,63.41145833,,,,,,FBP-PT-18.png,0.4,1.2,53,0.5,,,,,,,,,,,,,0,2,2,52,1,,,,,,,,,,,,,,,,,,,,,,,,,,,,
,,,,,SPR24_021,20,female,2024-04-09_15h22.59.629,jersey_experiment_5_v0,2023.2.2,Win32,84.74576271,,,,,,,,,,,,,,,,614.8603,615.9072,615.9072,618.7309,return,0.3435,,57.16145833,,,,,,FBP-OG-71.png,0.37,1.2,2,0.25,,,,,,,,,,,,,0,3,3,1,1,,,,,,,,,,,,,,,,,,,,,,,,,,,,
,,,,,SPR24_021,20,female,2024-04-09_15h22.59.629,jersey_experiment_5_v0,2023.2.2,Win32,84.74576271,,,,,,,,,,,,,,,,618.7311,620.025,620.0251,621.4485,return,0.2731,,49.86979167,,,,,,FBP-PT-17.png,0.37,1.2,47,0.5,,,,,,,,,,,,,0,4,4,46,1,,,,,,,,,,,,,,,,,,,,,,,,,,,,
,,,,,SPR24_021,20,female,2024-04-09_15h22.59.629,jersey_experiment_5_v0,2023.2.2,Win32,84.74576271,,,,,,,,,,,,,,,,621.4488,622.4957,622.4958,624.8722,return,0.4729,,50.26041667,,,,,,FBP-RB-18.png,0.35,1.2,36,0.25,,,,,,,,,,,,,0,5,5,35,1,,,,,,,,,,,,,,,,,,,,,,,,,,,,
,,,,,SPR24_021,20,female,2024-04-09_15h22.59.629,jersey_experiment_5_v0,2023.2.2,Win32,84.74576271,,,,,,,,,,,,,,,,624.8725,626.1664,626.1665,628.9548,return,0.4724,,75.13020833,,,,,,FBP-YG-18.png,0.43,1.2,24,0.5,,,,,,,,,,,,,0,6,6,23,1,,,,,,,,,,,,,,,,,,,,,,,,,,,,
,,,,,SPR24_021,20,female,2024-04-09_15h22.59.629,jersey_experiment_5_v0,2023.2.2,Win32,84.74576271,,,,,,,,,,,,,,,,628.9551,630.2488,630.2489,632.1077,return,0.2829,,87.23958333,,,,,,FBP-YG-19.png,0.43,1.2,29,0.5,,,,,,,,,,,,,0,7,7,28,1,,,,,,,,,,,,,,,,,,,,,,,,,,,,
,,,,,SPR24_021,20,female,2024-04-09_15h22.59.629,jersey_experiment_5_v0,2023.2.2,Win32,84.74576271,,,,,,,,,,,,,,,,632.108,633.1549,633.155,635.8138,return,0.475,,43.75,,,,,,FBP-OG-81.png,0.35,1.2,6,0.25,,,,,,,,,,,,,0,8,8,5,1,,,,,,,,,,,,,,,,,,,,,,,,,,,,
,,,,,SPR24_021,20,female,2024-04-09_15h22.59.629,jersey_experiment_5_v0,2023.2.2,Win32,84.74576271,,,,,,,,,,,,,,,,635.8141,637.1081,637.1082,638.7318,return,0.2106,,35.28645833,,,,,,FBP-YG-19.png,0.35,1.2,26,0.5,,,,,,,,,,,,,0,9,9,25,1,,,,,,,,,,,,,,,,,,,,,,,,,,,,
,,,,,SPR24_021,20,female,2024-04-09_15h22.59.629,jersey_experiment_5_v0,2023.2.2,Win32,84.74576271,,,,,,,,,,,,,,,,638.7319,640.0258,640.0258,641.4849,return,0.2363,,74.86979167,,,,,,FBP-PT-18.png,0.43,1.2,54,0.5,,,,,,,,,,,,,0,10,10,53,1,,,,,,,,,,,,,,,,,,,,,,,,,,,,
,,,,,SPR24_021,20,female,2024-04-09_15h22.59.629,jersey_experiment_5_v0,2023.2.2,Win32,84.74576271,,,,,,,,,,,,,,,,641.4851,642.7789,642.779,644.2967,return,0.2259,,75.13020833,,,,,,FBP-PT-17.png,0.4,1.2,48,0.5,,,,,,,,,,,,,0,11,11,47,1,,,,,,,,,,,,,,,,,,,,,,,,,,,,
,,,,,SPR24_021,20,female,2024-04-09_15h22.59.629,jersey_experiment_5_v0,2023.2.2,Win32,84.74576271,,,,,,,,,,,,,,,,644.297,645.3435,645.3435,647.9909,return,0.2411,,68.09895833,,,,,,FBP-OG-71.png,0.4,1.2,3,0.25,,,,,,,,,,,,,0,12,12,2,1,,,,,,,,,,,,,,,,,,,,,,,,,,,,
,,,,,SPR24_021,20,female,2024-04-09_15h22.59.629,jersey_experiment_5_v0,2023.2.2,Win32,84.74576271,,,,,,,,,,,,,,,,647.9911,649.2848,649.2849,653.4851,return,0.2829,,43.88020833,,,,,,FBP-PT-19.png,0.35,1.2,56,0.5,,,,,,,,,,,,,0,13,13,55,1,,,,,,,,,,,,,,,,,,,,,,,,,,,,
,,,,,SPR24_021,20,female,2024-04-09_15h22.59.629,jersey_experiment_5_v0,2023.2.2,Win32,84.74576271,,,,,,,,,,,,,,,,653.4854,654.5321,654.5321,657.0031,return,0.2,,89.453125,,,,,,FBP-OG-91.png,0.45,1.2,15,0.25,,,,,,,,,,,,,0,14,14,14,1,,,,,,,,,,,,,,,,,,,,,,,,,,,,
,,,,,SPR24_021,20,female,2024-04-09_15h22.59.629,jersey_experiment_5_v0,2023.2.2,Win32,84.74576271,,,,,,,,,,,,,,,,657.0034,658.2971,658.2971,662.9326,return,0.2667,,40.10416667,,,,,,FBP-YG-19.png,0.37,1.2,27,0.5,,,,,,,,,,,,,0,15,15,26,1,,,,,,,,,,,,,,,,,,,,,,,,,,,,
,,,,,SPR24_021,20,female,2024-04-09_15h22.59.629,jersey_experiment_5_v0,2023.2.2,Win32,84.74576271,,,,,,,,,,,,,,,,662.9328,664.2267,664.2267,665.8621,return,0.0518,,89.0625,,,,,,FBP-PT-17.png,0.45,1.2,50,0.5,,,,,,,,,,,,,0,16,16,49,1,,,,,,,,,,,,,,,,,,,,,,,,,,,,
,,,,,SPR24_021,20,female,2024-04-09_15h22.59.629,jersey_experiment_5_v0,2023.2.2,Win32,84.74576271,,,,,,,,,,,,,,,,665.8623,667.1564,667.1564,668.3798,return,0.0133,,79.6875,,,,,,FBP-YG-19.png,0.4,1.2,28,0.5,,,,,,,,,,,,,0,17,17,27,1,,,,,,,,,,,,,,,,,,,,,,,,,,,,
,,,,,SPR24_021,20,female,2024-04-09_15h22.59.629,jersey_experiment_5_v0,2023.2.2,Win32,84.74576271,,,,,,,,,,,,,,,,668.38,669.674,669.674,672.4742,return,0.1794,,64.19270833,,,,,,FBP-YG-18.png,0.37,1.2,22,0.5,,,,,,,,,,,,,0,18,18,21,1,,,,,,,,,,,,,,,,,,,,,,,,,,,,
,,,,,SPR24_021,20,female,2024-04-09_15h22.59.629,jersey_experiment_5_v0,2023.2.2,Win32,84.74576271,,,,,,,,,,,,,,,,672.4744,673.5211,673.5211,674.6625,return,0.1224,,88.02083333,,,,,,FBP-RB-19.png,0.45,1.2,45,0.25,,,,,,,,,,,,,0,19,19,44,1,,,,,,,,,,,,,,,,,,,,,,,,,,,,
,,,,,SPR24_021,20,female,2024-04-09_15h22.59.629,jersey_experiment_5_v0,2023.2.2,Win32,84.74576271,,,,,,,,,,,,,,,,674.6628,675.7093,675.7093,677.5921,return,0.9456,,82.94270833,,,,,,FBP-OG-91.png,0.43,1.2,14,0.25,,,,,,,,,,,,,0,20,20,13,1,,,,,,,,,,,,,,,,,,,,,,,,,,,,
,,,,,SPR24_021,20,female,2024-04-09_15h22.59.629,jersey_experiment_5_v0,2023.2.2,Win32,84.74576271,,,,,,,,,,,,,,,,677.5922,678.639,678.6391,680.1098,return,0.1651,,76.5625,,,,,,FBP-RB-18.png,0.45,1.2,40,0.25,,,,,,,,,,,,,0,21,21,39,1,,,,,,,,,,,,,,,,,,,,,,,,,,,,
,,,,,SPR24_021,20,female,2024-04-09_15h22.59.629,jersey_experiment_5_v0,2023.2.2,Win32,84.74576271,,,,,,,,,,,,,,,,680.11,681.4038,681.4039,683.0276,return,0.0798,,49.609375,,,,,,FBP-YG-17.png,0.37,1.2,17,0.5,,,,,,,,,,,,,0,22,22,16,1,,,,,,,,,,,,,,,,,,,,,,,,,,,,
,,,,,SPR24_021,20,female,2024-04-09_15h22.59.629,jersey_experiment_5_v0,2023.2.2,Win32,84.74576271,,,,,,,,,,,,,,,,683.0278,684.0744,684.0744,686.0628,return,0.5886,,75.390625,,,,,,FBP-OG-81.png,0.43,1.2,9,0.25,,,,,,,,,,,,,0,23,23,8,1,,,,,,,,,,,,,,,,,,,,,,,,,,,,
,,,,,SPR24_021,20,female,2024-04-09_15h22.59.629,jersey_experiment_5_v0,2023.2.2,Win32,84.74576271,,,,,,,,,,,,,,,,686.063,687.1098,687.1098,690.9101,return,0.2589,,5.46875,,,,,,FBP-RB-17.png,0.35,1.2,31,0.25,,,,,,,,,,,,,0,24,24,30,1,,,,,,,,,,,,,,,,,,,,,,,,,,,,
,,,,,SPR24_021,20,female,2024-04-09_15h22.59.629,jersey_experiment_5_v0,2023.2.2,Win32,84.74576271,,,,,,,,,,,,,,,,690.9102,691.9571,691.9571,693.0984,return,0.1061,,25.390625,,,,,,FBP-RB-19.png,0.4,1.2,43,0.25,,,,,,,,,,,,,0,25,25,42,1,,,,,,,,,,,,,,,,,,,,,,,,,,,,
,,,,,SPR24_021,20,female,2024-04-09_15h22.59.629,jersey_experiment_5_v0,2023.2.2,Win32,84.74576271,,,,,,,,,,,,,,,,693.0986,694.1455,694.1455,696.5574,return,1.0463,,64.0625,,,,,,FBP-RB-19.png,0.43,1.2,44,0.25,,,,,,,,,,,,,0,26,26,43,1,,,,,,,,,,,,,,,,,,,,,,,,,,,,
,,,,,SPR24_021,20,female,2024-04-09_15h22.59.629,jersey_experiment_5_v0,2023.2.2,Win32,84.74576271,,,,,,,,,,,,,,,,696.5576,697.6044,697.6044,698.6869,return,0.283,,82.29166667,,,,,,FBP-RB-17.png,0.45,1.2,35,0.25,,,,,,,,,,,,,0,27,27,34,1,,,,,,,,,,,,,,,,,,,,,,,,,,,,
,,,,,SPR24_021,20,female,2024-04-09_15h22.59.629,jersey_experiment_5_v0,2023.2.2,Win32,84.74576271,,,,,,,,,,,,,,,,698.687,699.7338,699.7338,701.9342,return,0.2357,,22.39583333,,,,,,FBP-OG-81.png,0.37,1.2,7,0.25,,,,,,,,,,,,,0,28,28,6,1,,,,,,,,,,,,,,,,,,,,,,,,,,,,
,,,,,SPR24_021,20,female,2024-04-09_15h22.59.629,jersey_experiment_5_v0,2023.2.2,Win32,84.74576271,,,,,,,,,,,,,,,,701.9345,703.2283,703.2284,706.2284,return,0.2769,,80.20833333,,,,,,FBP-YG-19.png,0.45,1.2,30,0.5,,,,,,,,,,,,,0,29,29,29,1,,,,,,,,,,,,,,,,,,,,,,,,,,,,
,,,,,SPR24_021,20,female,2024-04-09_15h22.59.629,jersey_experiment_5_v0,2023.2.2,Win32,84.74576271,,,,,,,,,,,,,,,,706.2287,707.5224,707.5224,708.8402,return,0.2159,,70.83333333,,,,,,FBP-YG-17.png,0.4,1.2,18,0.5,,,,,,,,,,,,,0,30,30,17,1,,,,,,,,,,,,,,,,,,,,,,,,,,,,
,,,,,SPR24_021,20,female,2024-04-09_15h22.59.629,jersey_experiment_5_v0,2023.2.2,Win32,84.74576271,,,,,,,,,,,,,,,,708.8405,710.1342,710.1342,711.7109,return,0.6695,,80.859375,,,,,,FBP-PT-18.png,0.45,1.2,55,0.5,,,,,,,,,,,,,0,31,31,54,1,,,,,,,,,,,,,,,,,,,,,,,,,,,,
,,,,,SPR24_021,20,female,2024-04-09_15h22.59.629,jersey_experiment_5_v0,2023.2.2,Win32,84.74576271,,,,,,,,,,,,,,,,711.7111,713.005,713.005,718.664,return,1.3809,,66.27604167,,,,,,FBP-PT-19.png,0.4,1.2,58,0.5,,,,,,,,,,,,,0,32,32,57,1,,,,,,,,,,,,,,,,,,,,,,,,,,,,
,,,,,SPR24_021,20,female,2024-04-09_15h22.59.629,jersey_experiment_5_v0,2023.2.2,Win32,84.74576271,,,,,,,,,,,,,,,,718.6642,719.7111,719.7111,720.7937,return,0.1442,,62.76041667,,,,,,FBP-OG-71.png,0.43,1.2,4,0.25,,,,,,,,,,,,,0,33,33,3,1,,,,,,,,,,,,,,,,,,,,,,,,,,,,
,,,,,SPR24_021,20,female,2024-04-09_15h22.59.629,jersey_experiment_5_v0,2023.2.2,Win32,84.74576271,,,,,,,,,,,,,,,,720.7938,722.0877,722.0877,723.876,return,0.3713,,75.65104167,,,,,,FBP-YG-17.png,0.43,1.2,19,0.5,,,,,,,,,,,,,0,34,34,18,1,,,,,,,,,,,,,,,,,,,,,,,,,,,,
,,,,,SPR24_021,20,female,2024-04-09_15h22.59.629,jersey_experiment_5_v0,2023.2.2,Win32,84.74576271,,,,,,,,,,,,,,,,723.8761,724.9231,724.9231,726.335,return,0.0602,,83.984375,,,,,,FBP-OG-81.png,0.45,1.2,10,0.25,,,,,,,,,,,,,0,35,35,9,1,,,,,,,,,,,,,,,,,,,,,,,,,,,,
,,,,,SPR24_021,20,female,2024-04-09_15h22.59.629,jersey_experiment_5_v0,2023.2.2,Win32,84.74576271,,,,,,,,,,,,,,,,726.3352,727.6291,727.6292,728.935,return,0.17,,47.52604167,,,,,,FBP-YG-18.png,0.4,1.2,23,0.5,,,,,,,,,,,,,0,36,36,22,1,,,,,,,,,,,,,,,,,,,,,,,,,,,,
,,,,,SPR24_021,20,female,2024-04-09_15h22.59.629,jersey_experiment_5_v0,2023.2.2,Win32,84.74576271,,,,,,,,,,,,,,,,728.9353,730.2291,730.2291,731.6296,return,0.0702,,76.69270833,,,,,,FBP-PT-19.png,0.43,1.2,59,0.5,,,,,,,,,,,,,0,37,37,58,1,,,,,,,,,,,,,,,,,,,,,,,,,,,,
,,,,,SPR24_021,20,female,2024-04-09_15h22.59.629,jersey_experiment_5_v0,2023.2.2,Win32,84.74576271,,,,,,,,,,,,,,,,731.6298,732.6764,732.6764,734.1235,return,0.0845,,25,,,,,,FBP-RB-19.png,0.37,1.2,42,0.25,,,,,,,,,,,,,0,38,38,41,1,,,,,,,,,,,,,,,,,,,,,,,,,,,,
,,,,,SPR24_021,20,female,2024-04-09_15h22.59.629,jersey_experiment_5_v0,2023.2.2,Win32,84.74576271,,,,,,,,,,,,,,,,734.1237,735.1705,735.1705,736.5354,return,0.1228,,30.33854167,,,,,,FBP-OG-81.png,0.4,1.2,8,0.25,,,,,,,,,,,,,0,39,39,7,1,,,,,,,,,,,,,,,,,,,,,,,,,,,,
,,,,,SPR24_021,20,female,2024-04-09_15h22.59.629,jersey_experiment_5_v0,2023.2.2,Win32,84.74576271,,,,,,,,,,,,,,,,736.5356,737.8295,737.8296,739.7,return,0.0906,,53.90625,,,,,,FBP-PT-17.png,0.43,1.2,49,0.5,,,,,,,,,,,,,0,40,40,48,1,,,,,,,,,,,,,,,,,,,,,,,,,,,,
,,,,,SPR24_021,20,female,2024-04-09_15h22.59.629,jersey_experiment_5_v0,2023.2.2,Win32,84.74576271,,,,,,,,,,,,,,,,739.7002,740.9945,740.9945,742.2651,return,0.1086,,28.77604167,,,,,,FBP-PT-19.png,0.37,1.2,57,0.5,,,,,,,,,,,,,0,41,41,56,1,,,,,,,,,,,,,,,,,,,,,,,,,,,,
,,,,,SPR24_021,20,female,2024-04-09_15h22.59.629,jersey_experiment_5_v0,2023.2.2,Win32,84.74576271,,,,,,,,,,,,,,,,742.2653,743.3119,743.312,744.83,return,0.023,,52.734375,,,,,,FBP-RB-18.png,0.43,1.2,39,0.25,,,,,,,,,,,,,0,42,42,38,1,,,,,,,,,,,,,,,,,,,,,,,,,,,,
,,,,,SPR24_021,20,female,2024-04-09_15h22.59.629,jersey_experiment_5_v0,2023.2.2,Win32,84.74576271,,,,,,,,,,,,,,,,744.8302,745.8766,745.8766,747.3828,return,0.0761,,21.74479167,,,,,,FBP-OG-71.png,0.35,1.2,1,0.25,,,,,,,,,,,,,0,43,43,0,1,,,,,,,,,,,,,,,,,,,,,,,,,,,,
,,,,,SPR24_021,20,female,2024-04-09_15h22.59.629,jersey_experiment_5_v0,2023.2.2,Win32,84.74576271,,,,,,,,,,,,,,,,747.383,748.4299,748.4299,750.4064,return,0.0177,,22.91666667,,,,,,FBP-OG-91.png,0.37,1.2,12,0.25,,,,,,,,,,,,,0,44,44,11,1,,,,,,,,,,,,,,,,,,,,,,,,,,,,
,,,,,SPR24_021,20,female,2024-04-09_15h22.59.629,jersey_experiment_5_v0,2023.2.2,Win32,84.74576271,,,,,,,,,,,,,,,,750.4067,751.4535,751.4535,754.5008,return,0.1138,,24.86979167,,,,,,FBP-OG-91.png,0.35,1.2,11,0.25,,,,,,,,,,,,,0,45,45,10,1,,,,,,,,,,,,,,,,,,,,,,,,,,,,
,,,,,SPR24_021,20,female,2024-04-09_15h22.59.629,jersey_experiment_5_v0,2023.2.2,Win32,84.74576271,,,,,,,,,,,,,,,,754.501,755.7951,755.7952,757.4536,return,0.0234,,24.86979167,,,,,,FBP-YG-18.png,0.35,1.2,21,0.5,,,,,,,,,,,,,0,46,46,20,1,,,,,,,,,,,,,,,,,,,,,,,,,,,,
,,,,,SPR24_021,20,female,2024-04-09_15h22.59.629,jersey_experiment_5_v0,2023.2.2,Win32,84.74576271,,,,,,,,,,,,,,,,757.4539,758.5008,758.5008,759.9596,return,0.0868,,57.421875,,,,,,FBP-RB-17.png,0.4,1.2,33,0.25,,,,,,,,,,,,,0,47,47,32,1,,,,,,,,,,,,,,,,,,,,,,,,,,,,
,,,,,SPR24_021,20,female,2024-04-09_15h22.59.629,jersey_experiment_5_v0,2023.2.2,Win32,84.74576271,,,,,,,,,,,,,,,,759.9598,761.0067,761.0067,762.7599,return,0.2278,,41.14583333,,,,,,FBP-RB-19.png,0.35,1.2,41,0.25,,,,,,,,,,,,,0,48,48,40,1,,,,,,,,,,,,,,,,,,,,,,,,,,,,
,,,,,SPR24_021,20,female,2024-04-09_15h22.59.629,jersey_experiment_5_v0,2023.2.2,Win32,84.74576271,,,,,,,,,,,,,,,,762.7601,764.0541,764.0541,765.2894,return,0.1073,,74.609375,,,,,,FBP-YG-17.png,0.45,1.2,20,0.5,,,,,,,,,,,,,0,49,49,19,1,,,,,,,,,,,,,,,,,,,,,,,,,,,,
,,,,,SPR24_021,20,female,2024-04-09_15h22.59.629,jersey_experiment_5_v0,2023.2.2,Win32,84.74576271,,,,,,,,,,,,,,,,765.2897,766.3363,766.3363,769.1248,return,0.2771,,36.06770833,,,,,,FBP-RB-18.png,0.37,1.2,37,0.25,,,,,,,,,,,,,0,50,50,36,1,,,,,,,,,,,,,,,,,,,,,,,,,,,,
,,,,,SPR24_021,20,female,2024-04-09_15h22.59.629,jersey_experiment_5_v0,2023.2.2,Win32,84.74576271,,,,,,,,,,,,,,,,769.1252,770.4189,770.4189,772.4544,return,1.03,,33.72395833,,,,,,FBP-PT-18.png,0.37,1.2,52,0.5,,,,,,,,,,,,,0,51,51,51,1,,,,,,,,,,,,,,,,,,,,,,,,,,,,
,,,,,SPR24_021,20,female,2024-04-09_15h22.59.629,jersey_experiment_5_v0,2023.2.2,Win32,84.74576271,,,,,,,,,,,,,,,,772.4546,773.5013,773.5013,774.8311,return,0.1876,,50,,,,,,FBP-OG-91.png,0.4,1.2,13,0.25,,,,,,,,,,,,,0,52,52,12,1,,,,,,,,,,,,,,,,,,,,,,,,,,,,
,,,,,SPR24_021,20,female,2024-04-09_15h22.59.629,jersey_experiment_5_v0,2023.2.2,Win32,84.74576271,,,,,,,,,,,,,,,,774.8313,776.1249,776.125,776.9487,return,0.0523,,38.54166667,,,,,,FBP-PT-18.png,0.35,1.2,51,0.5,,,,,,,,,,,,,0,53,53,50,1,,,,,,,,,,,,,,,,,,,,,,,,,,,,
,,,,,SPR24_021,20,female,2024-04-09_15h22.59.629,jersey_experiment_5_v0,2023.2.2,Win32,84.74576271,,,,,,,,,,,,,,,,776.9489,778.2428,778.2428,779.9723,return,0.0553,,85.80729167,,,,,,FBP-YG-18.png,0.45,1.2,25,0.5,,,,,,,,,,,,,0,54,54,24,1,,,,,,,,,,,,,,,,,,,,,,,,,,,,
,,,,,SPR24_021,20,female,2024-04-09_15h22.59.629,jersey_experiment_5_v0,2023.2.2,Win32,84.74576271,,,,,,,,,,,,,,,,779.9724,781.0192,781.0193,782.5019,return,0.5834,,92.1875,,,,,,FBP-RB-17.png,0.43,1.2,34,0.25,,,,,,,,,,,,,0,55,55,33,1,,,,,,,,,,,,,,,,,,,,,,,,,,,,
,,,,,SPR24_021,20,female,2024-04-09_15h22.59.629,jersey_experiment_5_v0,2023.2.2,Win32,84.74576271,,,,,,,,,,,,,,,,782.502,783.7958,783.7958,785.2078,return,0.0505,,85.41666667,,,,,,FBP-PT-19.png,0.45,1.2,60,0.5,,,,,,,,,,,,,0,56,56,59,1,,,,,,,,,,,,,,,,,,,,,,,,,,,,
,,,,,SPR24_021,20,female,2024-04-09_15h22.59.629,jersey_experiment_5_v0,2023.2.2,Win32,84.74576271,,,,,,,,,,,,,,,,785.208,786.2548,786.2548,788.4901,return,0.0493,,35.9375,,,,,,FBP-RB-17.png,0.37,1.2,32,0.25,,,,,,,,,,,,,0,57,57,31,1,,,,,,,,,,,,,,,,,,,,,,,,,,,,
,,,,,SPR24_021,20,female,2024-04-09_15h22.59.629,jersey_experiment_5_v0,2023.2.2,Win32,84.74576271,,,,,,,,,,,,,,,,788.4904,789.7842,789.7843,791.1609,return,0.1201,,27.34375,,,,,,FBP-YG-17.png,0.35,1.2,16,0.5,,,,,,,,,,,,,0,58,58,15,1,,,,,,,,,,,,,,,,,,,,,,,,,,,,
,,,,,SPR24_021,20,female,2024-04-09_15h22.59.629,jersey_experiment_5_v0,2023.2.2,Win32,84.74576271,,,,,,,,,,,,,,,,791.161,792.2078,792.2078,793.6553,return,0.0169,,88.28125,,,,,,FBP-OG-71.png,0.45,1.2,5,0.25,,,,,,,,,,,,,0,59,59,4,1,,,,,,,,,,,,,,,,,,,,,,,,,,,,
,,,,,SPR24_021,20,female,2024-04-09_15h22.59.629,jersey_experiment_5_v0,2023.2.2,Win32,84.74576271,,,,,,,,,,,,,,,,793.6571,794.9492,794.9493,796.3142,return,0.132,,88.54166667,,,,,,FBP-YG-91.png,0.43,1.2,29,0.5,,,,,,,,,,,,,,,,,,0,0,0,28,1,,,,,,,,,,,,,,,,,,,,,,,
,,,,,SPR24_021,20,female,2024-04-09_15h22.59.629,jersey_experiment_5_v0,2023.2.2,Win32,84.74576271,,,,,,,,,,,,,,,,796.3144,797.6082,797.6082,799.1258,return,0.1244,,47.78645833,,,,,,FBP-PT-81.png,0.35,1.2,51,0.5,,,,,,,,,,,,,,,,,,0,1,1,50,1,,,,,,,,,,,,,,,,,,,,,,,
,,,,,SPR24_021,20,female,2024-04-09_15h22.59.629,jersey_experiment_5_v0,2023.2.2,Win32,84.74576271,,,,,,,,,,,,,,,,799.1262,800.173,800.1731,801.5259,return,0.0772,,60.9375,,,,,,FBP-OG-18.png,0.4,1.2,8,0.25,,,,,,,,,,,,,,,,,,0,2,2,7,1,,,,,,,,,,,,,,,,,,,,,,,
,,,,,SPR24_021,20,female,2024-04-09_15h22.59.629,jersey_experiment_5_v0,2023.2.2,Win32,84.74576271,,,,,,,,,,,,,,,,801.5261,802.5731,802.5731,804.9028,return,0.0991,,39.453125,,,,,,FBP-RB-91.png,0.35,1.2,41,0.25,,,,,,,,,,,,,,,,,,0,3,3,40,1,,,,,,,,,,,,,,,,,,,,,,,
,,,,,SPR24_021,20,female,2024-04-09_15h22.59.629,jersey_experiment_5_v0,2023.2.2,Win32,84.74576271,,,,,,,,,,,,,,,,804.903,805.9495,805.9496,807.0205,return,0.0937,,36.71875,,,,,,FBP-OG-17.png,0.35,1.2,1,0.25,,,,,,,,,,,,,,,,,,0,4,4,0,1,,,,,,,,,,,,,,,,,,,,,,,
,,,,,SPR24_021,20,female,2024-04-09_15h22.59.629,jersey_experiment_5_v0,2023.2.2,Win32,84.74576271,,,,,,,,,,,,,,,,807.0207,808.0674,808.0674,809.5732,return,0.0167,,41.66666667,,,,,,FBP-OG-18.png,0.35,1.2,6,0.25,,,,,,,,,,,,,,,,,,0,5,5,5,1,,,,,,,,,,,,,,,,,,,,,,,
,,,,,SPR24_021,20,female,2024-04-09_15h22.59.629,jersey_experiment_5_v0,2023.2.2,Win32,84.74576271,,,,,,,,,,,,,,,,809.5735,810.8677,810.8677,812.6207,return,0.0379,,50.13020833,,,,,,FBP-YG-81.png,0.4,1.2,23,0.5,,,,,,,,,,,,,,,,,,0,6,6,22,1,,,,,,,,,,,,,,,,,,,,,,,
,,,,,SPR24_021,20,female,2024-04-09_15h22.59.629,jersey_experiment_5_v0,2023.2.2,Win32,84.74576271,,,,,,,,,,,,,,,,812.6209,813.6677,813.6677,816.3031,return,0.1414,,67.31770833,,,,,,FBP-OG-19.png,0.43,1.2,14,0.25,,,,,,,,,,,,,,,,,,0,7,7,13,1,,,,,,,,,,,,,,,,,,,,,,,
,,,,,SPR24_021,20,female,2024-04-09_15h22.59.629,jersey_experiment_5_v0,2023.2.2,Win32,84.74576271,,,,,,,,,,,,,,,,816.3034,817.3501,817.3502,823.3267,return,0.6125,,71.875,,,,,,FBP-OG-17.png,0.43,1.2,4,0.25,,,,,,,,,,,,,,,,,,0,8,8,3,1,,,,,,,,,,,,,,,,,,,,,,,
,,,,,SPR24_021,20,female,2024-04-09_15h22.59.629,jersey_experiment_5_v0,2023.2.2,Win32,84.74576271,,,,,,,,,,,,,,,,823.327,824.621,824.621,825.727,return,0.0005,,51.04166667,,,,,,FBP-YG-71.png,0.4,1.2,18,0.5,,,,,,,,,,,,,,,,,,0,9,9,17,1,,,,,,,,,,,,,,,,,,,,,,,
,,,,,SPR24_021,20,female,2024-04-09_15h22.59.629,jersey_experiment_5_v0,2023.2.2,Win32,84.74576271,,,,,,,,,,,,,,,,825.7272,827.0211,827.0211,828.6682,return,0.1076,,26.04166667,,,,,,FBP-YG-71.png,0.35,1.2,16,0.5,,,,,,,,,,,,,,,,,,0,10,10,15,1,,,,,,,,,,,,,,,,,,,,,,,
,,,,,SPR24_021,20,female,2024-04-09_15h22.59.629,jersey_experiment_5_v0,2023.2.2,Win32,84.74576271,,,,,,,,,,,,,,,,828.6685,829.7153,829.7153,830.6916,return,0.138,,23.4375,,,,,,FBP-RB-91.png,0.37,1.2,42,0.25,,,,,,,,,,,,,,,,,,0,11,11,41,1,,,,,,,,,,,,,,,,,,,,,,,
,,,,,SPR24_021,20,female,2024-04-09_15h22.59.629,jersey_experiment_5_v0,2023.2.2,Win32,84.74576271,,,,,,,,,,,,,,,,830.6918,831.9862,831.9862,833.245,return,0.1889,,37.109375,,,,,,FBP-PT-91.png,0.4,1.2,58,0.5,,,,,,,,,,,,,,,,,,0,12,12,57,1,,,,,,,,,,,,,,,,,,,,,,,
,,,,,SPR24_021,20,female,2024-04-09_15h22.59.629,jersey_experiment_5_v0,2023.2.2,Win32,84.74576271,,,,,,,,,,,,,,,,833.2453,834.5391,834.5391,835.7509,return,0.2288,,33.72395833,,,,,,FBP-PT-91.png,0.37,1.2,57,0.5,,,,,,,,,,,,,,,,,,0,13,13,56,1,,,,,,,,,,,,,,,,,,,,,,,
,,,,,SPR24_021,20,female,2024-04-09_15h22.59.629,jersey_experiment_5_v0,2023.2.2,Win32,84.74576271,,,,,,,,,,,,,,,,835.7511,836.7978,836.7978,838.245,return,0.0531,,67.96875,,,,,,FBP-RB-71.png,0.45,1.2,35,0.25,,,,,,,,,,,,,,,,,,0,14,14,34,1,,,,,,,,,,,,,,,,,,,,,,,
,,,,,SPR24_021,20,female,2024-04-09_15h22.59.629,jersey_experiment_5_v0,2023.2.2,Win32,84.74576271,,,,,,,,,,,,,,,,838.2452,839.2921,839.2922,840.4569,return,0.0153,,47.39583333,,,,,,FBP-OG-18.png,0.37,1.2,7,0.25,,,,,,,,,,,,,,,,,,0,15,15,6,1,,,,,,,,,,,,,,,,,,,,,,,
,,,,,SPR24_021,20,female,2024-04-09_15h22.59.629,jersey_experiment_5_v0,2023.2.2,Win32,84.74576271,,,,,,,,,,,,,,,,840.4571,841.504,841.504,843.3983,return,0.1696,,8.463541667,,,,,,FBP-OG-19.png,0.35,1.2,11,0.25,,,,,,,,,,,,,,,,,,0,16,16,10,1,,,,,,,,,,,,,,,,,,,,,,,
,,,,,SPR24_021,20,female,2024-04-09_15h22.59.629,jersey_experiment_5_v0,2023.2.2,Win32,84.74576271,,,,,,,,,,,,,,,,843.3985,844.6923,844.6923,845.7983,return,0.1923,,30.078125,,,,,,FBP-YG-71.png,0.37,1.2,17,0.5,,,,,,,,,,,,,,,,,,0,17,17,16,1,,,,,,,,,,,,,,,,,,,,,,,
,,,,,SPR24_021,20,female,2024-04-09_15h22.59.629,jersey_experiment_5_v0,2023.2.2,Win32,84.74576271,,,,,,,,,,,,,,,,845.7985,847.0924,847.0924,848.3983,return,0.1175,,42.1875,,,,,,FBP-PT-71.png,0.4,1.2,48,0.5,,,,,,,,,,,,,,,,,,0,18,18,47,1,,,,,,,,,,,,,,,,,,,,,,,
,,,,,SPR24_021,20,female,2024-04-09_15h22.59.629,jersey_experiment_5_v0,2023.2.2,Win32,84.74576271,,,,,,,,,,,,,,,,848.3985,849.6925,849.6925,852.0102,return,0.8946,,67.1875,,,,,,FBP-YG-81.png,0.45,1.2,25,0.5,,,,,,,,,,,,,,,,,,0,19,19,24,1,,,,,,,,,,,,,,,,,,,,,,,
,,,,,SPR24_021,20,female,2024-04-09_15h22.59.629,jersey_experiment_5_v0,2023.2.2,Win32,84.74576271,,,,,,,,,,,,,,,,852.0105,853.3043,853.3043,854.1397,return,0.1047,,54.42708333,,,,,,FBP-PT-81.png,0.37,1.2,52,0.5,,,,,,,,,,,,,,,,,,0,20,20,51,1,,,,,,,,,,,,,,,,,,,,,,,
,,,,,SPR24_021,20,female,2024-04-09_15h22.59.629,jersey_experiment_5_v0,2023.2.2,Win32,84.74576271,,,,,,,,,,,,,,,,854.1398,855.1868,855.1868,856.4692,return,0.1343,,70.05208333,,,,,,FBP-OG-18.png,0.43,1.2,9,0.25,,,,,,,,,,,,,,,,,,0,21,21,8,1,,,,,,,,,,,,,,,,,,,,,,,
,,,,,SPR24_021,20,female,2024-04-09_15h22.59.629,jersey_experiment_5_v0,2023.2.2,Win32,84.74576271,,,,,,,,,,,,,,,,856.4694,857.5163,857.5163,858.4222,return,0.0165,,78.125,,,,,,FBP-OG-19.png,0.45,1.2,15,0.25,,,,,,,,,,,,,,,,,,0,22,22,14,1,,,,,,,,,,,,,,,,,,,,,,,
,,,,,SPR24_021,20,female,2024-04-09_15h22.59.629,jersey_experiment_5_v0,2023.2.2,Win32,84.74576271,,,,,,,,,,,,,,,,858.4225,859.4693,859.4694,860.1988,return,0.0174,,78.64583333,,,,,,FBP-RB-91.png,0.4,1.2,43,0.25,,,,,,,,,,,,,,,,,,0,23,23,42,1,,,,,,,,,,,,,,,,,,,,,,,
,,,,,SPR24_021,20,female,2024-04-09_15h22.59.629,jersey_experiment_5_v0,2023.2.2,Win32,84.74576271,,,,,,,,,,,,,,,,860.1991,861.2458,861.2458,862.3753,return,0.1461,,87.63020833,,,,,,FBP-RB-91.png,0.45,1.2,45,0.25,,,,,,,,,,,,,,,,,,0,24,24,44,1,,,,,,,,,,,,,,,,,,,,,,,
,,,,,SPR24_021,20,female,2024-04-09_15h22.59.629,jersey_experiment_5_v0,2023.2.2,Win32,84.74576271,,,,,,,,,,,,,,,,862.3755,863.4224,863.4225,865.5754,return,1.4274,,92.578125,,,,,,FBP-RB-81.png,0.45,1.2,40,0.25,,,,,,,,,,,,,,,,,,0,25,25,39,1,,,,,,,,,,,,,,,,,,,,,,,
,,,,,SPR24_021,20,female,2024-04-09_15h22.59.629,jersey_experiment_5_v0,2023.2.2,Win32,84.74576271,,,,,,,,,,,,,,,,865.5756,866.6226,866.6226,868.7638,return,0.0706,,50.13020833,,,,,,FBP-RB-71.png,0.37,1.2,32,0.25,,,,,,,,,,,,,,,,,,0,26,26,31,1,,,,,,,,,,,,,,,,,,,,,,,
,,,,,SPR24_021,20,female,2024-04-09_15h22.59.629,jersey_experiment_5_v0,2023.2.2,Win32,84.74576271,,,,,,,,,,,,,,,,868.764,870.058,870.058,870.8932,return,0.1175,,54.16666667,,,,,,FBP-PT-81.png,0.43,1.2,54,0.5,,,,,,,,,,,,,,,,,,0,27,27,53,1,,,,,,,,,,,,,,,,,,,,,,,
,,,,,SPR24_021,20,female,2024-04-09_15h22.59.629,jersey_experiment_5_v0,2023.2.2,Win32,84.74576271,,,,,,,,,,,,,,,,870.8934,871.9404,871.9404,872.9403,return,0.0004,,67.44791667,,,,,,FBP-RB-81.png,0.4,1.2,38,0.25,,,,,,,,,,,,,,,,,,0,28,28,37,1,,,,,,,,,,,,,,,,,,,,,,,
,,,,,SPR24_021,20,female,2024-04-09_15h22.59.629,jersey_experiment_5_v0,2023.2.2,Win32,84.74576271,,,,,,,,,,,,,,,,872.9405,873.9876,873.9876,875.0464,return,0.0278,,39.0625,,,,,,FBP-OG-17.png,0.37,1.2,2,0.25,,,,,,,,,,,,,,,,,,0,29,29,1,1,,,,,,,,,,,,,,,,,,,,,,,
,,,,,SPR24_021,20,female,2024-04-09_15h22.59.629,jersey_experiment_5_v0,2023.2.2,Win32,84.74576271,,,,,,,,,,,,,,,,875.0466,876.3406,876.3406,878.87,return,0.0633,,72.00520833,,,,,,FBP-PT-91.png,0.43,1.2,59,0.5,,,,,,,,,,,,,,,,,,0,30,30,58,1,,,,,,,,,,,,,,,,,,,,,,,
,,,,,SPR24_021,20,female,2024-04-09_15h22.59.629,jersey_experiment_5_v0,2023.2.2,Win32,84.74576271,,,,,,,,,,,,,,,,878.8702,880.1642,880.1642,882.4583,return,0.1421,,36.84895833,,,,,,FBP-YG-91.png,0.35,1.2,26,0.5,,,,,,,,,,,,,,,,,,0,31,31,25,1,,,,,,,,,,,,,,,,,,,,,,,
,,,,,SPR24_021,20,female,2024-04-09_15h22.59.629,jersey_experiment_5_v0,2023.2.2,Win32,84.74576271,,,,,,,,,,,,,,,,882.4586,883.7526,883.7527,885.9879,return,0.7119,,36.97916667,,,,,,FBP-PT-71.png,0.35,1.2,46,0.5,,,,,,,,,,,,,,,,,,0,32,32,45,1,,,,,,,,,,,,,,,,,,,,,,,
,,,,,SPR24_021,20,female,2024-04-09_15h22.59.629,jersey_experiment_5_v0,2023.2.2,Win32,84.74576271,,,,,,,,,,,,,,,,885.9881,887.0349,887.035,889.0351,return,0.4579,,64.453125,,,,,,FBP-OG-19.png,0.4,1.2,13,0.25,,,,,,,,,,,,,,,,,,0,33,33,12,1,,,,,,,,,,,,,,,,,,,,,,,
,,,,,SPR24_021,20,female,2024-04-09_15h22.59.629,jersey_experiment_5_v0,2023.2.2,Win32,84.74576271,,,,,,,,,,,,,,,,889.0353,890.0823,890.0823,893.6235,return,1.0402,,41.66666667,,,,,,FBP-RB-81.png,0.35,1.2,36,0.25,,,,,,,,,,,,,,,,,,0,34,34,35,1,,,,,,,,,,,,,,,,,,,,,,,
,,,,,SPR24_021,20,female,2024-04-09_15h22.59.629,jersey_experiment_5_v0,2023.2.2,Win32,84.74576271,,,,,,,,,,,,,,,,893.6238,894.6707,894.6707,897.5295,return,0.1549,,36.328125,,,,,,FBP-OG-19.png,0.37,1.2,12,0.25,,,,,,,,,,,,,,,,,,0,35,35,11,1,,,,,,,,,,,,,,,,,,,,,,,
,,,,,SPR24_021,20,female,2024-04-09_15h22.59.629,jersey_experiment_5_v0,2023.2.2,Win32,84.74576271,,,,,,,,,,,,,,,,897.5297,898.5767,898.5767,900.0473,return,0.0944,,50,,,,,,FBP-RB-71.png,0.4,1.2,33,0.25,,,,,,,,,,,,,,,,,,0,36,36,32,1,,,,,,,,,,,,,,,,,,,,,,,
,,,,,SPR24_021,20,female,2024-04-09_15h22.59.629,jersey_experiment_5_v0,2023.2.2,Win32,84.74576271,,,,,,,,,,,,,,,,900.0474,901.0944,901.0944,902.7297,return,0.4837,,50,,,,,,FBP-RB-71.png,0.35,1.2,31,0.25,,,,,,,,,,,,,,,,,,0,37,37,30,1,,,,,,,,,,,,,,,,,,,,,,,
,,,,,SPR24_021,20,female,2024-04-09_15h22.59.629,jersey_experiment_5_v0,2023.2.2,Win32,84.74576271,,,,,,,,,,,,,,,,902.7299,903.7769,903.7769,904.8121,return,0.0945,,50.26041667,,,,,,FBP-RB-81.png,0.37,1.2,37,0.25,,,,,,,,,,,,,,,,,,0,38,38,36,1,,,,,,,,,,,,,,,,,,,,,,,
,,,,,SPR24_021,20,female,2024-04-09_15h22.59.629,jersey_experiment_5_v0,2023.2.2,Win32,84.74576271,,,,,,,,,,,,,,,,904.8123,906.1064,906.1064,907.1887,return,0.0903,,55.72916667,,,,,,FBP-PT-81.png,0.4,1.2,53,0.5,,,,,,,,,,,,,,,,,,0,39,39,52,1,,,,,,,,,,,,,,,,,,,,,,,
,,,,,SPR24_021,20,female,2024-04-09_15h22.59.629,jersey_experiment_5_v0,2023.2.2,Win32,84.74576271,,,,,,,,,,,,,,,,907.189,908.4829,908.4829,909.4006,return,0.1665,,56.38020833,,,,,,FBP-YG-91.png,0.4,1.2,28,0.5,,,,,,,,,,,,,,,,,,0,40,40,27,1,,,,,,,,,,,,,,,,,,,,,,,
,,,,,SPR24_021,20,female,2024-04-09_15h22.59.629,jersey_experiment_5_v0,2023.2.2,Win32,84.74576271,,,,,,,,,,,,,,,,909.4008,910.6949,910.6949,911.6949,return,0.1284,,38.80208333,,,,,,FBP-YG-81.png,0.35,1.2,21,0.5,,,,,,,,,,,,,,,,,,0,41,41,20,1,,,,,,,,,,,,,,,,,,,,,,,
,,,,,SPR24_021,20,female,2024-04-09_15h22.59.629,jersey_experiment_5_v0,2023.2.2,Win32,84.74576271,,,,,,,,,,,,,,,,911.695,912.7419,912.7419,914.2361,return,0.1884,,66.92708333,,,,,,FBP-RB-81.png,0.43,1.2,39,0.25,,,,,,,,,,,,,,,,,,0,42,42,38,1,,,,,,,,,,,,,,,,,,,,,,,
,,,,,SPR24_021,20,female,2024-04-09_15h22.59.629,jersey_experiment_5_v0,2023.2.2,Win32,84.74576271,,,,,,,,,,,,,,,,914.2364,915.2832,915.2832,916.7655,return,0.4146,,65.10416667,,,,,,FBP-OG-18.png,0.45,1.2,10,0.25,,,,,,,,,,,,,,,,,,0,43,43,9,1,,,,,,,,,,,,,,,,,,,,,,,
,,,,,SPR24_021,20,female,2024-04-09_15h22.59.629,jersey_experiment_5_v0,2023.2.2,Win32,84.74576271,,,,,,,,,,,,,,,,916.7658,918.0596,918.0597,919.2366,return,0.1471,,71.74479167,,,,,,FBP-YG-81.png,0.43,1.2,24,0.5,,,,,,,,,,,,,,,,,,0,44,44,23,1,,,,,,,,,,,,,,,,,,,,,,,
,,,,,SPR24_021,20,female,2024-04-09_15h22.59.629,jersey_experiment_5_v0,2023.2.2,Win32,84.74576271,,,,,,,,,,,,,,,,919.2368,920.5304,920.5304,921.7893,return,0.1751,,69.53125,,,,,,FBP-YG-71.png,0.43,1.2,19,0.5,,,,,,,,,,,,,,,,,,0,45,45,18,1,,,,,,,,,,,,,,,,,,,,,,,
,,,,,SPR24_021,20,female,2024-04-09_15h22.59.629,jersey_experiment_5_v0,2023.2.2,Win32,84.74576271,,,,,,,,,,,,,,,,921.7894,923.0835,923.0836,924.7305,return,0.2134,,78.77604167,,,,,,FBP-PT-91.png,0.45,1.2,60,0.5,,,,,,,,,,,,,,,,,,0,46,46,59,1,,,,,,,,,,,,,,,,,,,,,,,
,,,,,SPR24_021,20,female,2024-04-09_15h22.59.629,jersey_experiment_5_v0,2023.2.2,Win32,84.74576271,,,,,,,,,,,,,,,,924.7307,926.0248,926.0248,928.1424,return,0.212,,80.078125,,,,,,FBP-YG-71.png,0.45,1.2,20,0.5,,,,,,,,,,,,,,,,,,0,47,47,19,1,,,,,,,,,,,,,,,,,,,,,,,
,,,,,SPR24_021,20,female,2024-04-09_15h22.59.629,jersey_experiment_5_v0,2023.2.2,Win32,84.74576271,,,,,,,,,,,,,,,,928.1426,929.1898,929.1899,932.2015,return,0.0854,,56.38020833,,,,,,FBP-OG-17.png,0.4,1.2,3,0.25,,,,,,,,,,,,,,,,,,0,48,48,2,1,,,,,,,,,,,,,,,,,,,,,,,
,,,,,SPR24_021,20,female,2024-04-09_15h22.59.629,jersey_experiment_5_v0,2023.2.2,Win32,84.74576271,,,,,,,,,,,,,,,,932.2018,933.2487,933.2487,934.2368,return,0.1282,,56.38020833,,,,,,FBP-RB-91.png,0.43,1.2,44,0.25,,,,,,,,,,,,,,,,,,0,49,49,43,1,,,,,,,,,,,,,,,,,,,,,,,
,,,,,SPR24_021,20,female,2024-04-09_15h22.59.629,jersey_experiment_5_v0,2023.2.2,Win32,84.74576271,,,,,,,,,,,,,,,,934.237,935.5309,935.531,936.9192,return,0.4385,,71.484375,,,,,,FBP-YG-91.png,0.45,1.2,30,0.5,,,,,,,,,,,,,,,,,,0,50,50,29,1,,,,,,,,,,,,,,,,,,,,,,,
,,,,,SPR24_021,20,female,2024-04-09_15h22.59.629,jersey_experiment_5_v0,2023.2.2,Win32,84.74576271,,,,,,,,,,,,,,,,936.9194,938.2134,938.2135,941.0371,return,0.4941,,19.921875,,,,,,FBP-PT-91.png,0.35,1.2,56,0.5,,,,,,,,,,,,,,,,,,0,51,51,55,1,,,,,,,,,,,,,,,,,,,,,,,
,,,,,SPR24_021,20,female,2024-04-09_15h22.59.629,jersey_experiment_5_v0,2023.2.2,Win32,84.74576271,,,,,,,,,,,,,,,,941.0373,942.3312,942.3313,943.8373,return,0.2691,,12.109375,,,,,,FBP-PT-71.png,0.37,1.2,47,0.5,,,,,,,,,,,,,,,,,,0,52,52,46,1,,,,,,,,,,,,,,,,,,,,,,,
,,,,,SPR24_021,20,female,2024-04-09_15h22.59.629,jersey_experiment_5_v0,2023.2.2,Win32,84.74576271,,,,,,,,,,,,,,,,943.8376,945.1313,945.1313,946.2021,return,0.0484,,26.5625,,,,,,FBP-YG-91.png,0.37,1.2,27,0.5,,,,,,,,,,,,,,,,,,0,53,53,26,1,,,,,,,,,,,,,,,,,,,,,,,
,,,,,SPR24_021,20,female,2024-04-09_15h22.59.629,jersey_experiment_5_v0,2023.2.2,Win32,84.74576271,,,,,,,,,,,,,,,,946.2023,947.2491,947.2492,949.4845,return,0.0812,,74.34895833,,,,,,FBP-OG-17.png,0.45,1.2,5,0.25,,,,,,,,,,,,,,,,,,0,54,54,4,1,,,,,,,,,,,,,,,,,,,,,,,
,,,,,SPR24_021,20,female,2024-04-09_15h22.59.629,jersey_experiment_5_v0,2023.2.2,Win32,84.74576271,,,,,,,,,,,,,,,,949.4846,950.7786,950.7786,952.7904,return,0.2626,,70.18229167,,,,,,FBP-PT-81.png,0.45,1.2,55,0.5,,,,,,,,,,,,,,,,,,0,55,55,54,1,,,,,,,,,,,,,,,,,,,,,,,
,,,,,SPR24_021,20,female,2024-04-09_15h22.59.629,jersey_experiment_5_v0,2023.2.2,Win32,84.74576271,,,,,,,,,,,,,,,,952.7908,953.8375,953.8376,959.0496,return,0.4252,,66.53645833,,,,,,FBP-RB-71.png,0.43,1.2,34,0.25,,,,,,,,,,,,,,,,,,0,56,56,33,1,,,,,,,,,,,,,,,,,,,,,,,
,,,,,SPR24_021,20,female,2024-04-09_15h22.59.629,jersey_experiment_5_v0,2023.2.2,Win32,84.74576271,,,,,,,,,,,,,,,,959.0498,960.3438,960.3438,962.2615,return,0.3234,,26.04166667,,,,,,FBP-YG-81.png,0.37,1.2,22,0.5,,,,,,,,,,,,,,,,,,0,57,57,21,1,,,,,,,,,,,,,,,,,,,,,,,
,,,,,SPR24_021,20,female,2024-04-09_15h22.59.629,jersey_experiment_5_v0,2023.2.2,Win32,84.74576271,,,,,,,,,,,,,,,,962.2618,963.5556,963.5556,967.1556,return,0.197,,66.796875,,,,,,FBP-PT-71.png,0.43,1.2,49,0.5,,,,,,,,,,,,,,,,,,0,58,58,48,1,,,,,,,,,,,,,,,,,,,,,,,
,,,,,SPR24_021,20,female,2024-04-09_15h22.59.629,jersey_experiment_5_v0,2023.2.2,Win32,84.74576271,,,,,,,,,,,,,,,,967.1559,968.4499,968.45,969.4147,return,0.1234,,74.08854167,,,,,,FBP-PT-71.png,0.45,1.2,50,0.5,,,,,,,,,,,,,,,,,,0,59,59,49,1,,,,,,,,,,,,,,,,,,,,,,,
,,,,,SPR24_021,20,female,2024-04-09_15h22.59.629,jersey_experiment_5_v0,2023.2.2,Win32,84.74576271,,,,,,,,,,,,,,,,,,,,,,,,,,,,,,,,,,,,,,,,,,,,,,,,,,,,,,,,969.4151,975.1092,return,5.6869,,,,,,,,,,,,,,,,,,,
,,,,,SPR24_021,20,female,2024-04-09_15h22.59.629,jersey_experiment_5_v0,2023.2.2,Win32,84.74576271,,,,,,,,,,,,,,,,,,,,,,,,,,,,,,,,,,,,,,,,,,,,,,,,,,,,,,,,,,,,,975.1092,980.0741,1,4.1779,return,0.7655,,,,,,,,,,,,
,,,,,SPR24_021,20,female,2024-04-09_15h22.59.629,jersey_experiment_5_v0,2023.2.2,Win32,84.74576271,,,,,,,,,,,,,,,,,,,,,,,,,,,,,,,,,,,,,,,,,,,,,,,,,,,,,,,,,,,,,,,,,,,,980.0743,998.2677,no,right,13.2868,,,,,,
,,,,,SPR24_021,20,female,2024-04-09_15h22.59.629,jersey_experiment_5_v0,2023.2.2,Win32,84.74576271,,,,,,,,,,,,,,,,,,,,,,,,,,,,,,,,,,,,,,,,,,,,,,,,,,,,,,,,,,,,,,,,,,,,,,,,,,998.2678,1002.4631,return,4.1855,