requirements.started,requirements.stopped,key_resp_3.keys,key_resp_3.rt,key_resp_3.duration,Subject ID,Age,Gender,date,expName,psychopyVersion,OS,frameRate,instructions1.started,instructions1.stopped,key_resp.keys,key_resp.rt,key_resp.duration,example.started,example.stopped,enter_2.keys,enter_2.rt,enter_2.duration,instructions2.started,instructions2.stopped,enter_3.keys,enter_3.rt,enter_3.duration,image.started,image.stopped,slider_2.started,slider_2.stopped,next.keys,next.rt,next.duration,slider.response,trial_block_1.thisRepN,trial_block_1.thisTrialN,trial_block_1.thisN,trial_block_1.thisIndex,trial_block_1.ran,Path,Width,Height,Index,Duration,trial_block_2.thisRepN,trial_block_2.thisTrialN,trial_block_2.thisN,trial_block_2.thisIndex,trial_block_2.ran,rest_break.started,rest_break.stopped,end_break.started,end_break.stopped,key_resp_5.keys,key_resp_5.rt,key_resp_5.duration,trial_block_3.thisRepN,trial_block_3.thisTrialN,trial_block_3.thisN,trial_block_3.thisIndex,trial_block_3.ran,trial_block_4.thisRepN,trial_block_4.thisTrialN,trial_block_4.thisN,trial_block_4.thisIndex,trial_block_4.ran,questions_intro.started,questions_intro.stopped,enter_12.keys,enter_12.rt,enter_12.duration,question2.started,question2.stopped,question_doingbest.response,question_doingbest.rt,enter_15.keys,enter_15.rt,enter_15.duration,pattern.started,pattern.stopped,pattern_2.text,enter_17.keys,enter_17.rt,enter_17.duration,thankyou.started,thankyou.stopped,enter_14.keys,enter_14.rt,enter_14.duration
1E-04,11.237,return,11.2303,,SPR24_072,20,Female,2024-04-19_11h00.35.343,jersey_experiment_5_v0,2023.2.2,Win32,84.74576271,,,,,,,,,,,,,,,,,,,,,,,,,,,,,,,,,,,,,,,,,,,,,,,,,,,,,,,,,,,,,,,,,,,,,,,,,,,,,,
,,,,,SPR24_072,20,Female,2024-04-19_11h00.35.343,jersey_experiment_5_v0,2023.2.2,Win32,84.74576271,11.2372,24.828,return,13.5769,,,,,,,,,,,,,,,,,,,,,,,,,,,,,,,,,,,,,,,,,,,,,,,,,,,,,,,,,,,,,,,,,,,,,,,,,,
,,,,,SPR24_072,20,Female,2024-04-19_11h00.35.343,jersey_experiment_5_v0,2023.2.2,Win32,84.74576271,,,,,,24.8282,31.1577,return,6.2917,,,,,,,,,,,,,,,,,,,,,,,,,,,,,,,,,,,,,,,,,,,,,,,,,,,,,,,,,,,,,,,,,,,,,
,,,,,SPR24_072,20,Female,2024-04-19_11h00.35.343,jersey_experiment_5_v0,2023.2.2,Win32,84.74576271,,,,,,,,,,,31.1578,51.6994,return,20.5322,,,,,,,,,,,,,,,,,,,,,,,,,,,,,,,,,,,,,,,,,,,,,,,,,,,,,,,,,,,,,,,,
,,,,,SPR24_072,20,Female,2024-04-19_11h00.35.343,jersey_experiment_5_v0,2023.2.2,Win32,84.74576271,,,,,,,,,,,,,,,,51.7066,52.758,52.7581,60.5703,return,4.4327,,73.56770833,0,0,0,48,1,FBP-PT-17.png,0.43,1.2,49,0.25,,,,,,,,,,,,,,,,,,,,,,,,,,,,,,,,,,,,,,,,,,,,,
,,,,,SPR24_072,20,Female,2024-04-19_11h00.35.343,jersey_experiment_5_v0,2023.2.2,Win32,84.74576271,,,,,,,,,,,,,,,,60.575,61.876,61.876,69.7351,return,5.3319,,50.26041667,0,1,1,37,1,FBP-RB-18.png,0.4,1.2,38,0.5,,,,,,,,,,,,,,,,,,,,,,,,,,,,,,,,,,,,,,,,,,,,,
,,,,,SPR24_072,20,Female,2024-04-19_11h00.35.343,jersey_experiment_5_v0,2023.2.2,Win32,84.74576271,,,,,,,,,,,,,,,,69.7394,71.0409,71.0409,77.0177,return,1.821,,55.98958333,0,2,2,36,1,FBP-RB-18.png,0.37,1.2,37,0.5,,,,,,,,,,,,,,,,,,,,,,,,,,,,,,,,,,,,,,,,,,,,,
,,,,,SPR24_072,20,Female,2024-04-19_11h00.35.343,jersey_experiment_5_v0,2023.2.2,Win32,84.74576271,,,,,,,,,,,,,,,,77.0178,78.0648,78.0649,82.2769,return,1.6726,,83.33333333,0,3,3,49,1,FBP-PT-17.png,0.45,1.2,50,0.25,,,,,,,,,,,,,,,,,,,,,,,,,,,,,,,,,,,,,,,,,,,,,
,,,,,SPR24_072,20,Female,2024-04-19_11h00.35.343,jersey_experiment_5_v0,2023.2.2,Win32,84.74576271,,,,,,,,,,,,,,,,82.2772,83.571,83.571,86.1711,return,0.965,,55.33854167,0,4,4,2,1,FBP-OG-71.png,0.4,1.2,3,0.5,,,,,,,,,,,,,,,,,,,,,,,,,,,,,,,,,,,,,,,,,,,,,
,,,,,SPR24_072,20,Female,2024-04-19_11h00.35.343,jersey_experiment_5_v0,2023.2.2,Win32,84.74576271,,,,,,,,,,,,,,,,86.1713,87.2181,87.2182,93.1359,return,3.9011,,28.90625,0,5,5,20,1,FBP-YG-18.png,0.35,1.2,21,0.25,,,,,,,,,,,,,,,,,,,,,,,,,,,,,,,,,,,,,,,,,,,,,
,,,,,SPR24_072,20,Female,2024-04-19_11h00.35.343,jersey_experiment_5_v0,2023.2.2,Win32,84.74576271,,,,,,,,,,,,,,,,93.1362,94.1831,94.1831,96.9124,return,0.9005,,74.21875,0,6,6,19,1,FBP-YG-17.png,0.45,1.2,20,0.25,,,,,,,,,,,,,,,,,,,,,,,,,,,,,,,,,,,,,,,,,,,,,
,,,,,SPR24_072,20,Female,2024-04-19_11h00.35.343,jersey_experiment_5_v0,2023.2.2,Win32,84.74576271,,,,,,,,,,,,,,,,96.9127,98.2067,98.2068,100.948,return,0.8994,,28.25520833,0,7,7,11,1,FBP-OG-91.png,0.37,1.2,12,0.5,,,,,,,,,,,,,,,,,,,,,,,,,,,,,,,,,,,,,,,,,,,,,
,,,,,SPR24_072,20,Female,2024-04-19_11h00.35.343,jersey_experiment_5_v0,2023.2.2,Win32,84.74576271,,,,,,,,,,,,,,,,100.9481,101.9951,101.9951,106.9013,return,3.2364,,88.41145833,0,8,8,29,1,FBP-YG-19.png,0.45,1.2,30,0.25,,,,,,,,,,,,,,,,,,,,,,,,,,,,,,,,,,,,,,,,,,,,,
,,,,,SPR24_072,20,Female,2024-04-19_11h00.35.343,jersey_experiment_5_v0,2023.2.2,Win32,84.74576271,,,,,,,,,,,,,,,,106.9014,108.1953,108.1953,110.76,return,0.8813,,23.17708333,0,9,9,5,1,FBP-OG-81.png,0.35,1.2,6,0.5,,,,,,,,,,,,,,,,,,,,,,,,,,,,,,,,,,,,,,,,,,,,,
,,,,,SPR24_072,20,Female,2024-04-19_11h00.35.343,jersey_experiment_5_v0,2023.2.2,Win32,84.74576271,,,,,,,,,,,,,,,,110.7603,111.8072,111.8073,115.4191,return,2.01,,41.66666667,0,10,10,51,1,FBP-PT-18.png,0.37,1.2,52,0.25,,,,,,,,,,,,,,,,,,,,,,,,,,,,,,,,,,,,,,,,,,,,,
,,,,,SPR24_072,20,Female,2024-04-19_11h00.35.343,jersey_experiment_5_v0,2023.2.2,Win32,84.74576271,,,,,,,,,,,,,,,,115.4193,116.4663,116.4663,119.2899,return,0.9792,,61.19791667,0,11,11,47,1,FBP-PT-17.png,0.4,1.2,48,0.25,,,,,,,,,,,,,,,,,,,,,,,,,,,,,,,,,,,,,,,,,,,,,
,,,,,SPR24_072,20,Female,2024-04-19_11h00.35.343,jersey_experiment_5_v0,2023.2.2,Win32,84.74576271,,,,,,,,,,,,,,,,119.2901,120.5839,120.584,125.2429,return,2.3672,,40.10416667,0,12,12,0,1,FBP-OG-71.png,0.35,1.2,1,0.5,,,,,,,,,,,,,,,,,,,,,,,,,,,,,,,,,,,,,,,,,,,,,
,,,,,SPR24_072,20,Female,2024-04-19_11h00.35.343,jersey_experiment_5_v0,2023.2.2,Win32,84.74576271,,,,,,,,,,,,,,,,125.2431,126.5371,126.5371,129.1841,return,0.9974,,76.04166667,0,13,13,8,1,FBP-OG-81.png,0.43,1.2,9,0.5,,,,,,,,,,,,,,,,,,,,,,,,,,,,,,,,,,,,,,,,,,,,,
,,,,,SPR24_072,20,Female,2024-04-19_11h00.35.343,jersey_experiment_5_v0,2023.2.2,Win32,84.74576271,,,,,,,,,,,,,,,,129.1843,130.4784,130.4786,133.5139,return,1.7744,,85.41666667,0,14,14,3,1,FBP-OG-71.png,0.43,1.2,4,0.5,,,,,,,,,,,,,,,,,,,,,,,,,,,,,,,,,,,,,,,,,,,,,
,,,,,SPR24_072,20,Female,2024-04-19_11h00.35.343,jersey_experiment_5_v0,2023.2.2,Win32,84.74576271,,,,,,,,,,,,,,,,133.5141,134.561,134.561,137.2435,return,0.9084,,28.515625,0,15,15,25,1,FBP-YG-19.png,0.35,1.2,26,0.25,,,,,,,,,,,,,,,,,,,,,,,,,,,,,,,,,,,,,,,,,,,,,
,,,,,SPR24_072,20,Female,2024-04-19_11h00.35.343,jersey_experiment_5_v0,2023.2.2,Win32,84.74576271,,,,,,,,,,,,,,,,137.2437,138.2904,138.2905,141.3377,return,1.4601,,74.609375,0,16,16,53,1,FBP-PT-18.png,0.43,1.2,54,0.25,,,,,,,,,,,,,,,,,,,,,,,,,,,,,,,,,,,,,,,,,,,,,
,,,,,SPR24_072,20,Female,2024-04-19_11h00.35.343,jersey_experiment_5_v0,2023.2.2,Win32,84.74576271,,,,,,,,,,,,,,,,141.338,142.3846,142.3847,144.8201,return,0.8027,,83.984375,0,17,17,23,1,FBP-YG-18.png,0.43,1.2,24,0.25,,,,,,,,,,,,,,,,,,,,,,,,,,,,,,,,,,,,,,,,,,,,,
,,,,,SPR24_072,20,Female,2024-04-19_11h00.35.343,jersey_experiment_5_v0,2023.2.2,Win32,84.74576271,,,,,,,,,,,,,,,,144.8202,146.1144,146.1144,149.3144,return,0.866,,83.984375,0,18,18,13,1,FBP-OG-91.png,0.43,1.2,14,0.5,,,,,,,,,,,,,,,,,,,,,,,,,,,,,,,,,,,,,,,,,,,,,
,,,,,SPR24_072,20,Female,2024-04-19_11h00.35.343,jersey_experiment_5_v0,2023.2.2,Win32,84.74576271,,,,,,,,,,,,,,,,149.3146,150.3615,150.3616,153.1615,return,0.9744,,88.54166667,0,19,19,28,1,FBP-YG-19.png,0.43,1.2,29,0.25,,,,,,,,,,,,,,,,,,,,,,,,,,,,,,,,,,,,,,,,,,,,,
,,,,,SPR24_072,20,Female,2024-04-19_11h00.35.343,jersey_experiment_5_v0,2023.2.2,Win32,84.74576271,,,,,,,,,,,,,,,,153.1617,154.2087,154.2087,160.0559,return,1.4457,,84.765625,0,20,20,58,1,FBP-PT-19.png,0.43,1.2,59,0.25,,,,,,,,,,,,,,,,,,,,,,,,,,,,,,,,,,,,,,,,,,,,,
,,,,,SPR24_072,20,Female,2024-04-19_11h00.35.343,jersey_experiment_5_v0,2023.2.2,Win32,84.74576271,,,,,,,,,,,,,,,,160.0561,161.3502,161.3502,165.1738,return,0.6738,,83.85416667,0,21,21,32,1,FBP-RB-17.png,0.4,1.2,33,0.5,,,,,,,,,,,,,,,,,,,,,,,,,,,,,,,,,,,,,,,,,,,,,
,,,,,SPR24_072,20,Female,2024-04-19_11h00.35.343,jersey_experiment_5_v0,2023.2.2,Win32,84.74576271,,,,,,,,,,,,,,,,165.174,166.468,166.4681,169.8329,return,0.8619,,32.8125,0,22,22,35,1,FBP-RB-18.png,0.35,1.2,36,0.5,,,,,,,,,,,,,,,,,,,,,,,,,,,,,,,,,,,,,,,,,,,,,
,,,,,SPR24_072,20,Female,2024-04-19_11h00.35.343,jersey_experiment_5_v0,2023.2.2,Win32,84.74576271,,,,,,,,,,,,,,,,169.8331,171.127,171.1271,179.0449,return,5.9205,,74.47916667,0,23,23,38,1,FBP-RB-18.png,0.43,1.2,39,0.5,,,,,,,,,,,,,,,,,,,,,,,,,,,,,,,,,,,,,,,,,,,,,
,,,,,SPR24_072,20,Female,2024-04-19_11h00.35.343,jersey_experiment_5_v0,2023.2.2,Win32,84.74576271,,,,,,,,,,,,,,,,179.0493,180.3509,180.3509,182.7745,return,0.8241,,27.34375,0,24,24,10,1,FBP-OG-91.png,0.35,1.2,11,0.5,,,,,,,,,,,,,,,,,,,,,,,,,,,,,,,,,,,,,,,,,,,,,
,,,,,SPR24_072,20,Female,2024-04-19_11h00.35.343,jersey_experiment_5_v0,2023.2.2,Win32,84.74576271,,,,,,,,,,,,,,,,182.7747,183.8216,183.8216,187.0452,return,1.7076,,69.27083333,0,25,25,17,1,FBP-YG-17.png,0.4,1.2,18,0.25,,,,,,,,,,,,,,,,,,,,,,,,,,,,,,,,,,,,,,,,,,,,,
,,,,,SPR24_072,20,Female,2024-04-19_11h00.35.343,jersey_experiment_5_v0,2023.2.2,Win32,84.74576271,,,,,,,,,,,,,,,,187.0453,188.3393,188.3393,191.1277,return,1.4027,,88.80208333,0,26,26,44,1,FBP-RB-19.png,0.45,1.2,45,0.5,,,,,,,,,,,,,,,,,,,,,,,,,,,,,,,,,,,,,,,,,,,,,
,,,,,SPR24_072,20,Female,2024-04-19_11h00.35.343,jersey_experiment_5_v0,2023.2.2,Win32,84.74576271,,,,,,,,,,,,,,,,191.1279,192.1748,192.1748,196.3278,return,2.4848,,41.14583333,0,27,27,57,1,FBP-PT-19.png,0.4,1.2,58,0.25,,,,,,,,,,,,,,,,,,,,,,,,,,,,,,,,,,,,,,,,,,,,,
,,,,,SPR24_072,20,Female,2024-04-19_11h00.35.343,jersey_experiment_5_v0,2023.2.2,Win32,84.74576271,,,,,,,,,,,,,,,,196.3281,197.6221,197.6221,201.7164,return,0.5436,,84.765625,0,28,28,9,1,FBP-OG-81.png,0.45,1.2,10,0.5,,,,,,,,,,,,,,,,,,,,,,,,,,,,,,,,,,,,,,,,,,,,,
,,,,,SPR24_072,20,Female,2024-04-19_11h00.35.343,jersey_experiment_5_v0,2023.2.2,Win32,84.74576271,,,,,,,,,,,,,,,,201.7166,202.7633,202.7633,205.2223,return,0.8476,,57.55208333,0,29,29,27,1,FBP-YG-19.png,0.4,1.2,28,0.25,,,,,,,,,,,,,,,,,,,,,,,,,,,,,,,,,,,,,,,,,,,,,
,,,,,SPR24_072,20,Female,2024-04-19_11h00.35.343,jersey_experiment_5_v0,2023.2.2,Win32,84.74576271,,,,,,,,,,,,,,,,205.2225,206.2694,206.2694,211.6226,return,3.8496,,80.59895833,0,30,30,24,1,FBP-YG-18.png,0.45,1.2,25,0.25,,,,,,,,,,,,,,,,,,,,,,,,,,,,,,,,,,,,,,,,,,,,,
,,,,,SPR24_072,20,Female,2024-04-19_11h00.35.343,jersey_experiment_5_v0,2023.2.2,Win32,84.74576271,,,,,,,,,,,,,,,,211.6228,212.9166,212.9167,217.0345,return,2.7775,,42.96875,0,31,31,6,1,FBP-OG-81.png,0.37,1.2,7,0.5,,,,,,,,,,,,,,,,,,,,,,,,,,,,,,,,,,,,,,,,,,,,,
,,,,,SPR24_072,20,Female,2024-04-19_11h00.35.343,jersey_experiment_5_v0,2023.2.2,Win32,84.74576271,,,,,,,,,,,,,,,,217.0348,218.3287,218.3287,225.1876,return,1.9916,,55.078125,0,32,32,7,1,FBP-OG-81.png,0.4,1.2,8,0.5,,,,,,,,,,,,,,,,,,,,,,,,,,,,,,,,,,,,,,,,,,,,,
,,,,,SPR24_072,20,Female,2024-04-19_11h00.35.343,jersey_experiment_5_v0,2023.2.2,Win32,84.74576271,,,,,,,,,,,,,,,,225.1878,226.2348,226.2348,228.5174,return,0.8721,,66.14583333,0,33,33,18,1,FBP-YG-17.png,0.43,1.2,19,0.25,,,,,,,,,,,,,,,,,,,,,,,,,,,,,,,,,,,,,,,,,,,,,
,,,,,SPR24_072,20,Female,2024-04-19_11h00.35.343,jersey_experiment_5_v0,2023.2.2,Win32,84.74576271,,,,,,,,,,,,,,,,228.5176,229.8114,229.8114,234.0234,return,2.1792,,19.66145833,0,34,34,30,1,FBP-RB-17.png,0.35,1.2,31,0.5,,,,,,,,,,,,,,,,,,,,,,,,,,,,,,,,,,,,,,,,,,,,,
,,,,,SPR24_072,20,Female,2024-04-19_11h00.35.343,jersey_experiment_5_v0,2023.2.2,Win32,84.74576271,,,,,,,,,,,,,,,,234.0236,235.3176,235.3177,240.1057,return,3.2093,,41.40625,0,35,35,31,1,FBP-RB-17.png,0.37,1.2,32,0.5,,,,,,,,,,,,,,,,,,,,,,,,,,,,,,,,,,,,,,,,,,,,,
,,,,,SPR24_072,20,Female,2024-04-19_11h00.35.343,jersey_experiment_5_v0,2023.2.2,Win32,84.74576271,,,,,,,,,,,,,,,,240.106,241.1531,241.1531,245.8472,return,2.7548,,81.25,0,36,36,59,1,FBP-PT-19.png,0.45,1.2,60,0.25,,,,,,,,,,,,,,,,,,,,,,,,,,,,,,,,,,,,,,,,,,,,,
,,,,,SPR24_072,20,Female,2024-04-19_11h00.35.343,jersey_experiment_5_v0,2023.2.2,Win32,84.74576271,,,,,,,,,,,,,,,,245.8515,246.8943,246.8943,249.7533,return,0.7766,,24.47916667,0,37,37,46,1,FBP-PT-17.png,0.37,1.2,47,0.25,,,,,,,,,,,,,,,,,,,,,,,,,,,,,,,,,,,,,,,,,,,,,
,,,,,SPR24_072,20,Female,2024-04-19_11h00.35.343,jersey_experiment_5_v0,2023.2.2,Win32,84.74576271,,,,,,,,,,,,,,,,249.7534,250.8005,250.8005,252.7886,return,0.8985,,24.73958333,0,38,38,26,1,FBP-YG-19.png,0.37,1.2,27,0.25,,,,,,,,,,,,,,,,,,,,,,,,,,,,,,,,,,,,,,,,,,,,,
,,,,,SPR24_072,20,Female,2024-04-19_11h00.35.343,jersey_experiment_5_v0,2023.2.2,Win32,84.74576271,,,,,,,,,,,,,,,,252.7888,253.8358,253.8358,256.7772,return,1.1302,,24.73958333,0,39,39,45,1,FBP-PT-17.png,0.35,1.2,46,0.25,,,,,,,,,,,,,,,,,,,,,,,,,,,,,,,,,,,,,,,,,,,,,
,,,,,SPR24_072,20,Female,2024-04-19_11h00.35.343,jersey_experiment_5_v0,2023.2.2,Win32,84.74576271,,,,,,,,,,,,,,,,256.7774,258.0713,258.0714,260.2478,return,0.7069,,79.94791667,0,40,40,43,1,FBP-RB-19.png,0.43,1.2,44,0.5,,,,,,,,,,,,,,,,,,,,,,,,,,,,,,,,,,,,,,,,,,,,,
,,,,,SPR24_072,20,Female,2024-04-19_11h00.35.343,jersey_experiment_5_v0,2023.2.2,Win32,84.74576271,,,,,,,,,,,,,,,,260.248,261.2949,261.295,263.7656,return,0.7071,,57.29166667,0,41,41,21,1,FBP-YG-18.png,0.37,1.2,22,0.25,,,,,,,,,,,,,,,,,,,,,,,,,,,,,,,,,,,,,,,,,,,,,
,,,,,SPR24_072,20,Female,2024-04-19_11h00.35.343,jersey_experiment_5_v0,2023.2.2,Win32,84.74576271,,,,,,,,,,,,,,,,263.7658,264.8126,264.8126,267.0129,return,0.849,,75,0,42,42,16,1,FBP-YG-17.png,0.37,1.2,17,0.25,,,,,,,,,,,,,,,,,,,,,,,,,,,,,,,,,,,,,,,,,,,,,
,,,,,SPR24_072,20,Female,2024-04-19_11h00.35.343,jersey_experiment_5_v0,2023.2.2,Win32,84.74576271,,,,,,,,,,,,,,,,267.013,268.307,268.307,270.4012,return,0.7258,,74.21875,0,43,43,1,1,FBP-OG-71.png,0.37,1.2,2,0.5,,,,,,,,,,,,,,,,,,,,,,,,,,,,,,,,,,,,,,,,,,,,,
,,,,,SPR24_072,20,Female,2024-04-19_11h00.35.343,jersey_experiment_5_v0,2023.2.2,Win32,84.74576271,,,,,,,,,,,,,,,,270.4014,271.4481,271.4482,276.3894,return,2.4508,,64.58333333,0,44,44,15,1,FBP-YG-17.png,0.35,1.2,16,0.25,,,,,,,,,,,,,,,,,,,,,,,,,,,,,,,,,,,,,,,,,,,,,
,,,,,SPR24_072,20,Female,2024-04-19_11h00.35.343,jersey_experiment_5_v0,2023.2.2,Win32,84.74576271,,,,,,,,,,,,,,,,276.3896,277.4367,277.4367,280.9309,return,0.6179,,23.95833333,0,45,45,50,1,FBP-PT-18.png,0.35,1.2,51,0.25,,,,,,,,,,,,,,,,,,,,,,,,,,,,,,,,,,,,,,,,,,,,,
,,,,,SPR24_072,20,Female,2024-04-19_11h00.35.343,jersey_experiment_5_v0,2023.2.2,Win32,84.74576271,,,,,,,,,,,,,,,,280.9311,282.225,282.2251,284.6017,return,0.8005,,75.91145833,0,46,46,12,1,FBP-OG-91.png,0.4,1.2,13,0.5,,,,,,,,,,,,,,,,,,,,,,,,,,,,,,,,,,,,,,,,,,,,,
,,,,,SPR24_072,20,Female,2024-04-19_11h00.35.343,jersey_experiment_5_v0,2023.2.2,Win32,84.74576271,,,,,,,,,,,,,,,,284.6018,285.8957,285.8957,288.7547,return,1.7919,,89.71354167,0,47,47,4,1,FBP-OG-71.png,0.45,1.2,5,0.5,,,,,,,,,,,,,,,,,,,,,,,,,,,,,,,,,,,,,,,,,,,,,
,,,,,SPR24_072,20,Female,2024-04-19_11h00.35.343,jersey_experiment_5_v0,2023.2.2,Win32,84.74576271,,,,,,,,,,,,,,,,288.7549,290.0489,290.049,294.308,return,0.6993,,35.02604167,0,48,48,40,1,FBP-RB-19.png,0.35,1.2,41,0.5,,,,,,,,,,,,,,,,,,,,,,,,,,,,,,,,,,,,,,,,,,,,,
,,,,,SPR24_072,20,Female,2024-04-19_11h00.35.343,jersey_experiment_5_v0,2023.2.2,Win32,84.74576271,,,,,,,,,,,,,,,,294.3082,295.602,295.602,298.2258,return,0.7692,,82.16145833,0,49,49,34,1,FBP-RB-17.png,0.45,1.2,35,0.5,,,,,,,,,,,,,,,,,,,,,,,,,,,,,,,,,,,,,,,,,,,,,
,,,,,SPR24_072,20,Female,2024-04-19_11h00.35.343,jersey_experiment_5_v0,2023.2.2,Win32,84.74576271,,,,,,,,,,,,,,,,298.226,299.5197,299.5197,302.2023,return,1.2094,,97.13541667,0,50,50,39,1,FBP-RB-18.png,0.45,1.2,40,0.5,,,,,,,,,,,,,,,,,,,,,,,,,,,,,,,,,,,,,,,,,,,,,
,,,,,SPR24_072,20,Female,2024-04-19_11h00.35.343,jersey_experiment_5_v0,2023.2.2,Win32,84.74576271,,,,,,,,,,,,,,,,302.2025,303.2494,303.2494,307.7203,return,1.2476,,32.29166667,0,51,51,55,1,FBP-PT-19.png,0.35,1.2,56,0.25,,,,,,,,,,,,,,,,,,,,,,,,,,,,,,,,,,,,,,,,,,,,,
,,,,,SPR24_072,20,Female,2024-04-19_11h00.35.343,jersey_experiment_5_v0,2023.2.2,Win32,84.74576271,,,,,,,,,,,,,,,,307.7205,308.7674,308.7674,313.1085,return,1.3902,,52.99479167,0,52,52,56,1,FBP-PT-19.png,0.37,1.2,57,0.25,,,,,,,,,,,,,,,,,,,,,,,,,,,,,,,,,,,,,,,,,,,,,
,,,,,SPR24_072,20,Female,2024-04-19_11h00.35.343,jersey_experiment_5_v0,2023.2.2,Win32,84.74576271,,,,,,,,,,,,,,,,313.1088,314.4027,314.4028,315.7792,return,0.5468,,51.953125,0,53,53,41,1,FBP-RB-19.png,0.37,1.2,42,0.5,,,,,,,,,,,,,,,,,,,,,,,,,,,,,,,,,,,,,,,,,,,,,
,,,,,SPR24_072,20,Female,2024-04-19_11h00.35.343,jersey_experiment_5_v0,2023.2.2,Win32,84.74576271,,,,,,,,,,,,,,,,315.7794,317.0733,317.0733,319.0029,return,0.5887,,75.78125,0,54,54,42,1,FBP-RB-19.png,0.4,1.2,43,0.5,,,,,,,,,,,,,,,,,,,,,,,,,,,,,,,,,,,,,,,,,,,,,
,,,,,SPR24_072,20,Female,2024-04-19_11h00.35.343,jersey_experiment_5_v0,2023.2.2,Win32,84.74576271,,,,,,,,,,,,,,,,319.0031,320.2969,320.2969,322.4382,return,0.7323,,88.93229167,0,55,55,33,1,FBP-RB-17.png,0.43,1.2,34,0.5,,,,,,,,,,,,,,,,,,,,,,,,,,,,,,,,,,,,,,,,,,,,,
,,,,,SPR24_072,20,Female,2024-04-19_11h00.35.343,jersey_experiment_5_v0,2023.2.2,Win32,84.74576271,,,,,,,,,,,,,,,,322.4383,323.4855,323.4855,325.6266,return,0.6497,,90.36458333,0,56,56,54,1,FBP-PT-18.png,0.45,1.2,55,0.25,,,,,,,,,,,,,,,,,,,,,,,,,,,,,,,,,,,,,,,,,,,,,
,,,,,SPR24_072,20,Female,2024-04-19_11h00.35.343,jersey_experiment_5_v0,2023.2.2,Win32,84.74576271,,,,,,,,,,,,,,,,325.6268,326.6737,326.6737,328.7443,return,0.6219,,77.47395833,0,57,57,22,1,FBP-YG-18.png,0.4,1.2,23,0.25,,,,,,,,,,,,,,,,,,,,,,,,,,,,,,,,,,,,,,,,,,,,,
,,,,,SPR24_072,20,Female,2024-04-19_11h00.35.343,jersey_experiment_5_v0,2023.2.2,Win32,84.74576271,,,,,,,,,,,,,,,,328.7445,329.7914,329.7915,332.0269,return,1.0116,,74.86979167,0,58,58,52,1,FBP-PT-18.png,0.4,1.2,53,0.25,,,,,,,,,,,,,,,,,,,,,,,,,,,,,,,,,,,,,,,,,,,,,
,,,,,SPR24_072,20,Female,2024-04-19_11h00.35.343,jersey_experiment_5_v0,2023.2.2,Win32,84.74576271,,,,,,,,,,,,,,,,332.0272,333.321,333.3211,336.0506,return,0.7474,,94.921875,0,59,59,14,1,FBP-OG-91.png,0.45,1.2,15,0.5,,,,,,,,,,,,,,,,,,,,,,,,,,,,,,,,,,,,,,,,,,,,,
,,,,,SPR24_072,20,Female,2024-04-19_11h00.35.343,jersey_experiment_5_v0,2023.2.2,Win32,84.74576271,,,,,,,,,,,,,,,,336.0527,337.0976,337.0976,341.0507,return,2.4707,,47.00520833,,,,,,FBP-PT-81.png,0.35,1.2,51,0.25,0,0,0,50,1,,,,,,,,,,,,,,,,,,,,,,,,,,,,,,,,,,,,,,,,
,,,,,SPR24_072,20,Female,2024-04-19_11h00.35.343,jersey_experiment_5_v0,2023.2.2,Win32,84.74576271,,,,,,,,,,,,,,,,341.051,342.0978,342.0979,345.4978,return,1.7507,,83.59375,,,,,,FBP-YG-71.png,0.45,1.2,20,0.25,0,1,1,19,1,,,,,,,,,,,,,,,,,,,,,,,,,,,,,,,,,,,,,,,,
,,,,,SPR24_072,20,Female,2024-04-19_11h00.35.343,jersey_experiment_5_v0,2023.2.2,Win32,84.74576271,,,,,,,,,,,,,,,,345.4981,346.7921,346.7921,348.9803,return,0.828,,90.75520833,,,,,,FBP-RB-91.png,0.43,1.2,44,0.5,0,2,2,43,1,,,,,,,,,,,,,,,,,,,,,,,,,,,,,,,,,,,,,,,,
,,,,,SPR24_072,20,Female,2024-04-19_11h00.35.343,jersey_experiment_5_v0,2023.2.2,Win32,84.74576271,,,,,,,,,,,,,,,,348.9806,350.0274,350.0275,354.8158,return,1.195,,50.26041667,,,,,,FBP-YG-91.png,0.37,1.2,27,0.25,0,3,3,26,1,,,,,,,,,,,,,,,,,,,,,,,,,,,,,,,,,,,,,,,,
,,,,,SPR24_072,20,Female,2024-04-19_11h00.35.343,jersey_experiment_5_v0,2023.2.2,Win32,84.74576271,,,,,,,,,,,,,,,,354.8159,355.863,355.863,358.4043,return,0.6845,,45.05208333,,,,,,FBP-PT-71.png,0.35,1.2,46,0.25,0,4,4,45,1,,,,,,,,,,,,,,,,,,,,,,,,,,,,,,,,,,,,,,,,
,,,,,SPR24_072,20,Female,2024-04-19_11h00.35.343,jersey_experiment_5_v0,2023.2.2,Win32,84.74576271,,,,,,,,,,,,,,,,358.4045,359.6983,359.6984,363.5221,return,2.4774,,88.02083333,,,,,,FBP-RB-91.png,0.45,1.2,45,0.5,0,5,5,44,1,,,,,,,,,,,,,,,,,,,,,,,,,,,,,,,,,,,,,,,,
,,,,,SPR24_072,20,Female,2024-04-19_11h00.35.343,jersey_experiment_5_v0,2023.2.2,Win32,84.74576271,,,,,,,,,,,,,,,,363.5223,364.8162,364.8163,368.6986,return,2.5649,,79.42708333,,,,,,FBP-OG-17.png,0.43,1.2,4,0.5,0,6,6,3,1,,,,,,,,,,,,,,,,,,,,,,,,,,,,,,,,,,,,,,,,
,,,,,SPR24_072,20,Female,2024-04-19_11h00.35.343,jersey_experiment_5_v0,2023.2.2,Win32,84.74576271,,,,,,,,,,,,,,,,368.6989,369.7459,369.7459,376.3579,return,1.9302,,30.33854167,,,,,,FBP-YG-71.png,0.37,1.2,17,0.25,0,7,7,16,1,,,,,,,,,,,,,,,,,,,,,,,,,,,,,,,,,,,,,,,,
,,,,,SPR24_072,20,Female,2024-04-19_11h00.35.343,jersey_experiment_5_v0,2023.2.2,Win32,84.74576271,,,,,,,,,,,,,,,,376.3581,377.405,377.405,380.4992,return,0.5912,,53.64583333,,,,,,FBP-PT-71.png,0.4,1.2,48,0.25,0,8,8,47,1,,,,,,,,,,,,,,,,,,,,,,,,,,,,,,,,,,,,,,,,
,,,,,SPR24_072,20,Female,2024-04-19_11h00.35.343,jersey_experiment_5_v0,2023.2.2,Win32,84.74576271,,,,,,,,,,,,,,,,380.4994,381.7934,381.7934,385.0876,return,2.054,,81.90104167,,,,,,FBP-RB-71.png,0.45,1.2,35,0.5,0,9,9,34,1,,,,,,,,,,,,,,,,,,,,,,,,,,,,,,,,,,,,,,,,
,,,,,SPR24_072,20,Female,2024-04-19_11h00.35.343,jersey_experiment_5_v0,2023.2.2,Win32,84.74576271,,,,,,,,,,,,,,,,385.0878,386.3818,386.3818,389.2995,return,1.8525,,84.89583333,,,,,,FBP-OG-17.png,0.45,1.2,5,0.5,0,10,10,4,1,,,,,,,,,,,,,,,,,,,,,,,,,,,,,,,,,,,,,,,,
,,,,,SPR24_072,20,Female,2024-04-19_11h00.35.343,jersey_experiment_5_v0,2023.2.2,Win32,84.74576271,,,,,,,,,,,,,,,,389.2998,390.5936,390.5936,392.2173,return,0.6253,,52.08333333,,,,,,FBP-RB-71.png,0.37,1.2,32,0.5,0,11,11,31,1,,,,,,,,,,,,,,,,,,,,,,,,,,,,,,,,,,,,,,,,
,,,,,SPR24_072,20,Female,2024-04-19_11h00.35.343,jersey_experiment_5_v0,2023.2.2,Win32,84.74576271,,,,,,,,,,,,,,,,392.2175,393.5114,393.5114,395.5114,return,0.7913,,52.08333333,,,,,,FBP-OG-17.png,0.37,1.2,2,0.5,0,12,12,1,1,,,,,,,,,,,,,,,,,,,,,,,,,,,,,,,,,,,,,,,,
,,,,,SPR24_072,20,Female,2024-04-19_11h00.35.343,jersey_experiment_5_v0,2023.2.2,Win32,84.74576271,,,,,,,,,,,,,,,,395.5116,396.5585,396.5585,399.4293,return,0.6249,,65.49479167,,,,,,FBP-PT-91.png,0.43,1.2,59,0.25,0,13,13,58,1,,,,,,,,,,,,,,,,,,,,,,,,,,,,,,,,,,,,,,,,
,,,,,SPR24_072,20,Female,2024-04-19_11h00.35.343,jersey_experiment_5_v0,2023.2.2,Win32,84.74576271,,,,,,,,,,,,,,,,399.4295,400.4764,400.4764,402.8177,return,1.2306,,79.6875,,,,,,FBP-YG-81.png,0.43,1.2,24,0.25,0,14,14,23,1,,,,,,,,,,,,,,,,,,,,,,,,,,,,,,,,,,,,,,,,
,,,,,SPR24_072,20,Female,2024-04-19_11h00.35.343,jersey_experiment_5_v0,2023.2.2,Win32,84.74576271,,,,,,,,,,,,,,,,402.818,404.1117,404.1118,405.747,return,0.5821,,79.6875,,,,,,FBP-OG-18.png,0.45,1.2,10,0.5,0,15,15,9,1,,,,,,,,,,,,,,,,,,,,,,,,,,,,,,,,,,,,,,,,
,,,,,SPR24_072,20,Female,2024-04-19_11h00.35.343,jersey_experiment_5_v0,2023.2.2,Win32,84.74576271,,,,,,,,,,,,,,,,405.7472,406.7941,406.7941,409.0413,return,0.6075,,84.375,,,,,,FBP-YG-91.png,0.45,1.2,30,0.25,0,16,16,29,1,,,,,,,,,,,,,,,,,,,,,,,,,,,,,,,,,,,,,,,,
,,,,,SPR24_072,20,Female,2024-04-19_11h00.35.343,jersey_experiment_5_v0,2023.2.2,Win32,84.74576271,,,,,,,,,,,,,,,,409.0416,410.3356,410.3356,412.5944,return,0.8183,,48.56770833,,,,,,FBP-OG-18.png,0.37,1.2,7,0.5,0,17,17,6,1,,,,,,,,,,,,,,,,,,,,,,,,,,,,,,,,,,,,,,,,
,,,,,SPR24_072,20,Female,2024-04-19_11h00.35.343,jersey_experiment_5_v0,2023.2.2,Win32,84.74576271,,,,,,,,,,,,,,,,412.5947,413.8886,413.8887,416.2888,return,0.617,,74.73958333,,,,,,FBP-RB-91.png,0.4,1.2,43,0.5,0,18,18,42,1,,,,,,,,,,,,,,,,,,,,,,,,,,,,,,,,,,,,,,,,
,,,,,SPR24_072,20,Female,2024-04-19_11h00.35.343,jersey_experiment_5_v0,2023.2.2,Win32,84.74576271,,,,,,,,,,,,,,,,416.289,417.5829,417.583,420.1006,return,1.084,,66.53645833,,,,,,FBP-OG-17.png,0.35,1.2,1,0.5,0,19,19,0,1,,,,,,,,,,,,,,,,,,,,,,,,,,,,,,,,,,,,,,,,
,,,,,SPR24_072,20,Female,2024-04-19_11h00.35.343,jersey_experiment_5_v0,2023.2.2,Win32,84.74576271,,,,,,,,,,,,,,,,420.1008,421.3947,421.3948,423.3124,return,0.9354,,68.09895833,,,,,,FBP-RB-91.png,0.37,1.2,42,0.5,0,20,20,41,1,,,,,,,,,,,,,,,,,,,,,,,,,,,,,,,,,,,,,,,,
,,,,,SPR24_072,20,Female,2024-04-19_11h00.35.343,jersey_experiment_5_v0,2023.2.2,Win32,84.74576271,,,,,,,,,,,,,,,,423.3126,424.6065,424.6065,432.2658,return,6.1887,,78.125,,,,,,FBP-OG-19.png,0.43,1.2,14,0.5,0,21,21,13,1,,,,,,,,,,,,,,,,,,,,,,,,,,,,,,,,,,,,,,,,
,,,,,SPR24_072,20,Female,2024-04-19_11h00.35.343,jersey_experiment_5_v0,2023.2.2,Win32,84.74576271,,,,,,,,,,,,,,,,432.2698,433.5716,433.5716,435.9364,return,0.6414,,23.828125,,,,,,FBP-RB-71.png,0.35,1.2,31,0.5,0,22,22,30,1,,,,,,,,,,,,,,,,,,,,,,,,,,,,,,,,,,,,,,,,
,,,,,SPR24_072,20,Female,2024-04-19_11h00.35.343,jersey_experiment_5_v0,2023.2.2,Win32,84.74576271,,,,,,,,,,,,,,,,435.9366,437.2306,437.2306,439.7365,return,0.6588,,81.25,,,,,,FBP-OG-19.png,0.45,1.2,15,0.5,0,23,23,14,1,,,,,,,,,,,,,,,,,,,,,,,,,,,,,,,,,,,,,,,,
,,,,,SPR24_072,20,Female,2024-04-19_11h00.35.343,jersey_experiment_5_v0,2023.2.2,Win32,84.74576271,,,,,,,,,,,,,,,,439.7367,440.7837,440.7837,442.5014,return,0.6035,,88.54166667,,,,,,FBP-PT-81.png,0.45,1.2,55,0.25,0,24,24,54,1,,,,,,,,,,,,,,,,,,,,,,,,,,,,,,,,,,,,,,,,
,,,,,SPR24_072,20,Female,2024-04-19_11h00.35.343,jersey_experiment_5_v0,2023.2.2,Win32,84.74576271,,,,,,,,,,,,,,,,442.5016,443.5484,443.5484,445.1837,return,0.5712,,88.54166667,,,,,,FBP-YG-81.png,0.45,1.2,25,0.25,0,25,25,24,1,,,,,,,,,,,,,,,,,,,,,,,,,,,,,,,,,,,,,,,,
,,,,,SPR24_072,20,Female,2024-04-19_11h00.35.343,jersey_experiment_5_v0,2023.2.2,Win32,84.74576271,,,,,,,,,,,,,,,,445.184,446.4779,446.4779,450.3372,return,2.6317,,85.28645833,,,,,,FBP-RB-81.png,0.4,1.2,38,0.5,0,26,26,37,1,,,,,,,,,,,,,,,,,,,,,,,,,,,,,,,,,,,,,,,,
,,,,,SPR24_072,20,Female,2024-04-19_11h00.35.343,jersey_experiment_5_v0,2023.2.2,Win32,84.74576271,,,,,,,,,,,,,,,,450.3374,451.6311,451.6311,453.6547,return,0.7202,,73.046875,,,,,,FBP-OG-19.png,0.35,1.2,11,0.5,0,27,27,10,1,,,,,,,,,,,,,,,,,,,,,,,,,,,,,,,,,,,,,,,,
,,,,,SPR24_072,20,Female,2024-04-19_11h00.35.343,jersey_experiment_5_v0,2023.2.2,Win32,84.74576271,,,,,,,,,,,,,,,,453.6549,454.9489,454.9491,460.0312,return,3.4188,,38.02083333,,,,,,FBP-OG-18.png,0.35,1.2,6,0.5,0,28,28,5,1,,,,,,,,,,,,,,,,,,,,,,,,,,,,,,,,,,,,,,,,
,,,,,SPR24_072,20,Female,2024-04-19_11h00.35.343,jersey_experiment_5_v0,2023.2.2,Win32,84.74576271,,,,,,,,,,,,,,,,460.0314,461.3257,461.3257,463.9139,return,1.036,,75.13020833,,,,,,FBP-RB-81.png,0.43,1.2,39,0.5,0,29,29,38,1,,,,,,,,,,,,,,,,,,,,,,,,,,,,,,,,,,,,,,,,
,,,,,SPR24_072,20,Female,2024-04-19_11h00.35.343,jersey_experiment_5_v0,2023.2.2,Win32,84.74576271,,,,,,,,,,,,,,,,463.9141,464.9609,464.961,466.7846,return,0.6176,,77.34375,,,,,,FBP-YG-81.png,0.4,1.2,23,0.25,0,30,30,22,1,,,,,,,,,,,,,,,,,,,,,,,,,,,,,,,,,,,,,,,,
,,,,,SPR24_072,20,Female,2024-04-19_11h00.35.343,jersey_experiment_5_v0,2023.2.2,Win32,84.74576271,,,,,,,,,,,,,,,,466.7848,467.8316,467.8317,469.4907,return,0.5827,,77.34375,,,,,,FBP-PT-91.png,0.4,1.2,58,0.25,0,31,31,57,1,,,,,,,,,,,,,,,,,,,,,,,,,,,,,,,,,,,,,,,,
,,,,,SPR24_072,20,Female,2024-04-19_11h00.35.343,jersey_experiment_5_v0,2023.2.2,Win32,84.74576271,,,,,,,,,,,,,,,,469.4909,470.7848,470.7848,474.1377,return,0.7858,,71.09375,,,,,,FBP-OG-17.png,0.4,1.2,3,0.5,0,32,32,2,1,,,,,,,,,,,,,,,,,,,,,,,,,,,,,,,,,,,,,,,,
,,,,,SPR24_072,20,Female,2024-04-19_11h00.35.343,jersey_experiment_5_v0,2023.2.2,Win32,84.74576271,,,,,,,,,,,,,,,,474.1379,475.1849,475.185,479.8321,return,0.683,,49.34895833,,,,,,FBP-YG-81.png,0.37,1.2,22,0.25,0,33,33,21,1,,,,,,,,,,,,,,,,,,,,,,,,,,,,,,,,,,,,,,,,
,,,,,SPR24_072,20,Female,2024-04-19_11h00.35.343,jersey_experiment_5_v0,2023.2.2,Win32,84.74576271,,,,,,,,,,,,,,,,479.8322,480.8793,480.8793,485.5733,return,3.0951,,81.90104167,,,,,,FBP-PT-91.png,0.45,1.2,60,0.25,0,34,34,59,1,,,,,,,,,,,,,,,,,,,,,,,,,,,,,,,,,,,,,,,,
,,,,,SPR24_072,20,Female,2024-04-19_11h00.35.343,jersey_experiment_5_v0,2023.2.2,Win32,84.74576271,,,,,,,,,,,,,,,,485.5735,486.6206,486.6206,490.2795,return,1.9302,,70.18229167,,,,,,FBP-PT-81.png,0.37,1.2,52,0.25,0,35,35,51,1,,,,,,,,,,,,,,,,,,,,,,,,,,,,,,,,,,,,,,,,
,,,,,SPR24_072,20,Female,2024-04-19_11h00.35.343,jersey_experiment_5_v0,2023.2.2,Win32,84.74576271,,,,,,,,,,,,,,,,490.2797,491.5737,491.5738,494.715,return,1.4963,,84.375,,,,,,FBP-RB-71.png,0.43,1.2,34,0.5,0,36,36,33,1,,,,,,,,,,,,,,,,,,,,,,,,,,,,,,,,,,,,,,,,
,,,,,SPR24_072,20,Female,2024-04-19_11h00.35.343,jersey_experiment_5_v0,2023.2.2,Win32,84.74576271,,,,,,,,,,,,,,,,494.7152,495.7621,495.7621,498.6092,return,1.2779,,80.859375,,,,,,FBP-PT-71.png,0.43,1.2,49,0.25,0,37,37,48,1,,,,,,,,,,,,,,,,,,,,,,,,,,,,,,,,,,,,,,,,
,,,,,SPR24_072,20,Female,2024-04-19_11h00.35.343,jersey_experiment_5_v0,2023.2.2,Win32,84.74576271,,,,,,,,,,,,,,,,498.6094,499.6563,499.6564,503.8919,return,3.0617,,62.5,,,,,,FBP-PT-91.png,0.37,1.2,57,0.25,0,38,38,56,1,,,,,,,,,,,,,,,,,,,,,,,,,,,,,,,,,,,,,,,,
,,,,,SPR24_072,20,Female,2024-04-19_11h00.35.343,jersey_experiment_5_v0,2023.2.2,Win32,84.74576271,,,,,,,,,,,,,,,,503.8921,505.186,505.186,511.4802,return,4.2822,,39.84375,,,,,,FBP-RB-81.png,0.35,1.2,36,0.5,0,39,39,35,1,,,,,,,,,,,,,,,,,,,,,,,,,,,,,,,,,,,,,,,,
,,,,,SPR24_072,20,Female,2024-04-19_11h00.35.343,jersey_experiment_5_v0,2023.2.2,Win32,84.74576271,,,,,,,,,,,,,,,,511.4803,512.5273,512.5274,515.2099,return,0.8382,,81.640625,,,,,,FBP-YG-71.png,0.43,1.2,19,0.25,0,40,40,18,1,,,,,,,,,,,,,,,,,,,,,,,,,,,,,,,,,,,,,,,,
,,,,,SPR24_072,20,Female,2024-04-19_11h00.35.343,jersey_experiment_5_v0,2023.2.2,Win32,84.74576271,,,,,,,,,,,,,,,,515.21,516.257,516.257,518.9865,return,0.753,,29.81770833,,,,,,FBP-YG-81.png,0.35,1.2,21,0.25,0,41,41,20,1,,,,,,,,,,,,,,,,,,,,,,,,,,,,,,,,,,,,,,,,
,,,,,SPR24_072,20,Female,2024-04-19_11h00.35.343,jersey_experiment_5_v0,2023.2.2,Win32,84.74576271,,,,,,,,,,,,,,,,518.9866,520.2806,520.2806,522.163,return,0.7916,,31.11979167,,,,,,FBP-OG-19.png,0.37,1.2,12,0.5,0,42,42,11,1,,,,,,,,,,,,,,,,,,,,,,,,,,,,,,,,,,,,,,,,
,,,,,SPR24_072,20,Female,2024-04-19_11h00.35.343,jersey_experiment_5_v0,2023.2.2,Win32,84.74576271,,,,,,,,,,,,,,,,522.1632,523.2102,523.2102,526.7279,return,1.389,,68.75,,,,,,FBP-PT-81.png,0.43,1.2,54,0.25,0,43,43,53,1,,,,,,,,,,,,,,,,,,,,,,,,,,,,,,,,,,,,,,,,
,,,,,SPR24_072,20,Female,2024-04-19_11h00.35.343,jersey_experiment_5_v0,2023.2.2,Win32,84.74576271,,,,,,,,,,,,,,,,526.7281,528.022,528.022,533.5399,return,4.4167,,71.61458333,,,,,,FBP-OG-19.png,0.4,1.2,13,0.5,0,44,44,12,1,,,,,,,,,,,,,,,,,,,,,,,,,,,,,,,,,,,,,,,,
,,,,,SPR24_072,20,Female,2024-04-19_11h00.35.343,jersey_experiment_5_v0,2023.2.2,Win32,84.74576271,,,,,,,,,,,,,,,,533.5401,534.8341,534.8341,537.9871,return,1.1792,,80.078125,,,,,,FBP-OG-18.png,0.43,1.2,9,0.5,0,45,45,8,1,,,,,,,,,,,,,,,,,,,,,,,,,,,,,,,,,,,,,,,,
,,,,,SPR24_072,20,Female,2024-04-19_11h00.35.343,jersey_experiment_5_v0,2023.2.2,Win32,84.74576271,,,,,,,,,,,,,,,,537.9874,539.0343,539.0343,542.4108,return,0.7672,,74.21875,,,,,,FBP-PT-81.png,0.4,1.2,53,0.25,0,46,46,52,1,,,,,,,,,,,,,,,,,,,,,,,,,,,,,,,,,,,,,,,,
,,,,,SPR24_072,20,Female,2024-04-19_11h00.35.343,jersey_experiment_5_v0,2023.2.2,Win32,84.74576271,,,,,,,,,,,,,,,,542.411,543.4579,543.4579,546.705,return,1.325,,31.640625,,,,,,FBP-YG-91.png,0.35,1.2,26,0.25,0,47,47,25,1,,,,,,,,,,,,,,,,,,,,,,,,,,,,,,,,,,,,,,,,
,,,,,SPR24_072,20,Female,2024-04-19_11h00.35.343,jersey_experiment_5_v0,2023.2.2,Win32,84.74576271,,,,,,,,,,,,,,,,546.7052,547.7522,547.7522,551.5288,return,2.0566,,32.55208333,,,,,,FBP-PT-71.png,0.37,1.2,47,0.25,0,48,48,46,1,,,,,,,,,,,,,,,,,,,,,,,,,,,,,,,,,,,,,,,,
,,,,,SPR24_072,20,Female,2024-04-19_11h00.35.343,jersey_experiment_5_v0,2023.2.2,Win32,84.74576271,,,,,,,,,,,,,,,,551.529,552.5759,552.5759,556.3878,return,2.1911,,44.66145833,,,,,,FBP-YG-91.png,0.4,1.2,28,0.25,0,49,49,27,1,,,,,,,,,,,,,,,,,,,,,,,,,,,,,,,,,,,,,,,,
,,,,,SPR24_072,20,Female,2024-04-19_11h00.35.343,jersey_experiment_5_v0,2023.2.2,Win32,84.74576271,,,,,,,,,,,,,,,,556.388,557.4348,557.4348,560.2468,return,1.3321,,47.265625,,,,,,FBP-YG-71.png,0.4,1.2,18,0.25,0,50,50,17,1,,,,,,,,,,,,,,,,,,,,,,,,,,,,,,,,,,,,,,,,
,,,,,SPR24_072,20,Female,2024-04-19_11h00.35.343,jersey_experiment_5_v0,2023.2.2,Win32,84.74576271,,,,,,,,,,,,,,,,560.2471,561.2937,561.2937,565.953,return,2.0639,,50.13020833,,,,,,FBP-YG-91.png,0.43,1.2,29,0.25,0,51,51,28,1,,,,,,,,,,,,,,,,,,,,,,,,,,,,,,,,,,,,,,,,
,,,,,SPR24_072,20,Female,2024-04-19_11h00.35.343,jersey_experiment_5_v0,2023.2.2,Win32,84.74576271,,,,,,,,,,,,,,,,565.9532,567,567,571.8118,return,3.3224,,66.40625,,,,,,FBP-PT-71.png,0.45,1.2,50,0.25,0,52,52,49,1,,,,,,,,,,,,,,,,,,,,,,,,,,,,,,,,,,,,,,,,
,,,,,SPR24_072,20,Female,2024-04-19_11h00.35.343,jersey_experiment_5_v0,2023.2.2,Win32,84.74576271,,,,,,,,,,,,,,,,571.812,573.1059,573.106,575.2592,return,0.9167,,75.52083333,,,,,,FBP-RB-71.png,0.4,1.2,33,0.5,0,53,53,32,1,,,,,,,,,,,,,,,,,,,,,,,,,,,,,,,,,,,,,,,,
,,,,,SPR24_072,20,Female,2024-04-19_11h00.35.343,jersey_experiment_5_v0,2023.2.2,Win32,84.74576271,,,,,,,,,,,,,,,,575.2593,576.5533,576.5533,578.6826,return,0.668,,27.734375,,,,,,FBP-RB-91.png,0.35,1.2,41,0.5,0,54,54,40,1,,,,,,,,,,,,,,,,,,,,,,,,,,,,,,,,,,,,,,,,
,,,,,SPR24_072,20,Female,2024-04-19_11h00.35.343,jersey_experiment_5_v0,2023.2.2,Win32,84.74576271,,,,,,,,,,,,,,,,578.6828,579.9768,579.9768,582.2477,return,0.7056,,75.52083333,,,,,,FBP-RB-81.png,0.45,1.2,40,0.5,0,55,55,39,1,,,,,,,,,,,,,,,,,,,,,,,,,,,,,,,,,,,,,,,,
,,,,,SPR24_072,20,Female,2024-04-19_11h00.35.343,jersey_experiment_5_v0,2023.2.2,Win32,84.74576271,,,,,,,,,,,,,,,,582.2479,583.5417,583.5417,585.636,return,0.6378,,32.16145833,,,,,,FBP-RB-81.png,0.37,1.2,37,0.5,0,56,56,36,1,,,,,,,,,,,,,,,,,,,,,,,,,,,,,,,,,,,,,,,,
,,,,,SPR24_072,20,Female,2024-04-19_11h00.35.343,jersey_experiment_5_v0,2023.2.2,Win32,84.74576271,,,,,,,,,,,,,,,,585.6363,586.9301,586.9301,590.5538,return,2.5557,,74.86979167,,,,,,FBP-OG-18.png,0.4,1.2,8,0.5,0,57,57,7,1,,,,,,,,,,,,,,,,,,,,,,,,,,,,,,,,,,,,,,,,
,,,,,SPR24_072,20,Female,2024-04-19_11h00.35.343,jersey_experiment_5_v0,2023.2.2,Win32,84.74576271,,,,,,,,,,,,,,,,590.554,591.6008,591.6008,593.6833,return,0.6991,,25,,,,,,FBP-PT-91.png,0.35,1.2,56,0.25,0,58,58,55,1,,,,,,,,,,,,,,,,,,,,,,,,,,,,,,,,,,,,,,,,
,,,,,SPR24_072,20,Female,2024-04-19_11h00.35.343,jersey_experiment_5_v0,2023.2.2,Win32,84.74576271,,,,,,,,,,,,,,,,593.6835,594.7302,594.7302,596.742,return,0.8237,,26.82291667,,,,,,FBP-YG-71.png,0.35,1.2,16,0.25,0,59,59,15,1,,,,,,,,,,,,,,,,,,,,,,,,,,,,,,,,,,,,,,,,
,,,,,SPR24_072,20,Female,2024-04-19_11h00.35.343,jersey_experiment_5_v0,2023.2.2,Win32,84.74576271,,,,,,,,,,,,,,,,,,,,,,,,,,,,,,,,,,,,,,,596.7426,716.735,,,,,,,,,,,,,,,,,,,,,,,,,,,,,,,,,,,,,,
,,,,,SPR24_072,20,Female,2024-04-19_11h00.35.343,jersey_experiment_5_v0,2023.2.2,Win32,84.74576271,,,,,,,,,,,,,,,,,,,,,,,,,,,,,,,,,,,,,,,,,716.7351,719.2995,return,2.5554,,,,,,,,,,,,,,,,,,,,,,,,,,,,,,,,,,
,,,,,SPR24_072,20,Female,2024-04-19_11h00.35.343,jersey_experiment_5_v0,2023.2.2,Win32,84.74576271,,,,,,,,,,,,,,,,719.3058,720.6054,720.6054,723.4407,return,0.8165,,32.16145833,,,,,,FBP-YG-18.png,0.35,1.2,21,0.5,,,,,,,,,,,,,0,0,0,20,1,,,,,,,,,,,,,,,,,,,,,,,,,,,,
,,,,,SPR24_072,20,Female,2024-04-19_11h00.35.343,jersey_experiment_5_v0,2023.2.2,Win32,84.74576271,,,,,,,,,,,,,,,,723.441,724.7349,724.7349,726.7234,return,0.699,,79.42708333,,,,,,FBP-PT-19.png,0.45,1.2,60,0.5,,,,,,,,,,,,,0,1,1,59,1,,,,,,,,,,,,,,,,,,,,,,,,,,,,
,,,,,SPR24_072,20,Female,2024-04-19_11h00.35.343,jersey_experiment_5_v0,2023.2.2,Win32,84.74576271,,,,,,,,,,,,,,,,726.7235,727.7703,727.7703,730.7236,return,1.4288,,54.81770833,,,,,,FBP-RB-19.png,0.35,1.2,41,0.25,,,,,,,,,,,,,0,2,2,40,1,,,,,,,,,,,,,,,,,,,,,,,,,,,,
,,,,,SPR24_072,20,Female,2024-04-19_11h00.35.343,jersey_experiment_5_v0,2023.2.2,Win32,84.74576271,,,,,,,,,,,,,,,,730.7238,732.0176,732.0176,734.9825,return,1.8362,,34.11458333,,,,,,FBP-YG-19.png,0.35,1.2,26,0.5,,,,,,,,,,,,,0,3,3,25,1,,,,,,,,,,,,,,,,,,,,,,,,,,,,
,,,,,SPR24_072,20,Female,2024-04-19_11h00.35.343,jersey_experiment_5_v0,2023.2.2,Win32,84.74576271,,,,,,,,,,,,,,,,734.9827,736.2764,736.2765,741.4767,return,3.5916,,66.40625,,,,,,FBP-YG-18.png,0.45,1.2,25,0.5,,,,,,,,,,,,,0,4,4,24,1,,,,,,,,,,,,,,,,,,,,,,,,,,,,
,,,,,SPR24_072,20,Female,2024-04-19_11h00.35.343,jersey_experiment_5_v0,2023.2.2,Win32,84.74576271,,,,,,,,,,,,,,,,741.477,742.771,742.771,744.5121,return,0.5714,,79.94791667,,,,,,FBP-YG-19.png,0.43,1.2,29,0.5,,,,,,,,,,,,,0,5,5,28,1,,,,,,,,,,,,,,,,,,,,,,,,,,,,
,,,,,SPR24_072,20,Female,2024-04-19_11h00.35.343,jersey_experiment_5_v0,2023.2.2,Win32,84.74576271,,,,,,,,,,,,,,,,744.5123,745.5594,745.5595,748.1829,return,1.1529,,29.81770833,,,,,,FBP-OG-81.png,0.35,1.2,6,0.25,,,,,,,,,,,,,0,6,6,5,1,,,,,,,,,,,,,,,,,,,,,,,,,,,,
,,,,,SPR24_072,20,Female,2024-04-19_11h00.35.343,jersey_experiment_5_v0,2023.2.2,Win32,84.74576271,,,,,,,,,,,,,,,,748.1832,749.477,749.477,751.983,return,1.3125,,73.4375,,,,,,FBP-YG-17.png,0.4,1.2,18,0.5,,,,,,,,,,,,,0,7,7,17,1,,,,,,,,,,,,,,,,,,,,,,,,,,,,
,,,,,SPR24_072,20,Female,2024-04-19_11h00.35.343,jersey_experiment_5_v0,2023.2.2,Win32,84.74576271,,,,,,,,,,,,,,,,751.9831,753.0302,753.0302,755.6185,return,0.8741,,86.06770833,,,,,,FBP-RB-18.png,0.45,1.2,40,0.25,,,,,,,,,,,,,0,8,8,39,1,,,,,,,,,,,,,,,,,,,,,,,,,,,,
,,,,,SPR24_072,20,Female,2024-04-19_11h00.35.343,jersey_experiment_5_v0,2023.2.2,Win32,84.74576271,,,,,,,,,,,,,,,,755.6187,756.6656,756.6656,758.8185,return,0.5912,,29.16666667,,,,,,FBP-RB-17.png,0.35,1.2,31,0.25,,,,,,,,,,,,,0,9,9,30,1,,,,,,,,,,,,,,,,,,,,,,,,,,,,
,,,,,SPR24_072,20,Female,2024-04-19_11h00.35.343,jersey_experiment_5_v0,2023.2.2,Win32,84.74576271,,,,,,,,,,,,,,,,758.8187,759.8654,759.8654,763.0893,return,1.325,,82.421875,,,,,,FBP-RB-18.png,0.4,1.2,38,0.25,,,,,,,,,,,,,0,10,10,37,1,,,,,,,,,,,,,,,,,,,,,,,,,,,,
,,,,,SPR24_072,20,Female,2024-04-19_11h00.35.343,jersey_experiment_5_v0,2023.2.2,Win32,84.74576271,,,,,,,,,,,,,,,,763.0895,764.1364,764.1364,766.4069,return,0.6367,,72.65625,,,,,,FBP-RB-17.png,0.43,1.2,34,0.25,,,,,,,,,,,,,0,11,11,33,1,,,,,,,,,,,,,,,,,,,,,,,,,,,,
,,,,,SPR24_072,20,Female,2024-04-19_11h00.35.343,jersey_experiment_5_v0,2023.2.2,Win32,84.74576271,,,,,,,,,,,,,,,,766.407,767.4543,767.4543,770.9954,return,2.2971,,61.58854167,,,,,,FBP-RB-19.png,0.37,1.2,42,0.25,,,,,,,,,,,,,0,12,12,41,1,,,,,,,,,,,,,,,,,,,,,,,,,,,,
,,,,,SPR24_072,20,Female,2024-04-19_11h00.35.343,jersey_experiment_5_v0,2023.2.2,Win32,84.74576271,,,,,,,,,,,,,,,,770.9997,772.3014,772.3014,774.4898,return,0.8945,,24.73958333,,,,,,FBP-PT-19.png,0.35,1.2,56,0.5,,,,,,,,,,,,,0,13,13,55,1,,,,,,,,,,,,,,,,,,,,,,,,,,,,
,,,,,SPR24_072,20,Female,2024-04-19_11h00.35.343,jersey_experiment_5_v0,2023.2.2,Win32,84.74576271,,,,,,,,,,,,,,,,774.49,775.5367,775.5368,778.431,return,0.6538,,69.66145833,,,,,,FBP-OG-91.png,0.45,1.2,15,0.25,,,,,,,,,,,,,0,14,14,14,1,,,,,,,,,,,,,,,,,,,,,,,,,,,,
,,,,,SPR24_072,20,Female,2024-04-19_11h00.35.343,jersey_experiment_5_v0,2023.2.2,Win32,84.74576271,,,,,,,,,,,,,,,,778.4312,779.4781,779.4781,784.2313,return,1.8826,,59.63541667,,,,,,FBP-RB-17.png,0.4,1.2,33,0.25,,,,,,,,,,,,,0,15,15,32,1,,,,,,,,,,,,,,,,,,,,,,,,,,,,
,,,,,SPR24_072,20,Female,2024-04-19_11h00.35.343,jersey_experiment_5_v0,2023.2.2,Win32,84.74576271,,,,,,,,,,,,,,,,784.2314,785.5254,785.5255,788.9843,return,2.273,,79.94791667,,,,,,FBP-PT-17.png,0.45,1.2,50,0.5,,,,,,,,,,,,,0,16,16,49,1,,,,,,,,,,,,,,,,,,,,,,,,,,,,
,,,,,SPR24_072,20,Female,2024-04-19_11h00.35.343,jersey_experiment_5_v0,2023.2.2,Win32,84.74576271,,,,,,,,,,,,,,,,788.9845,790.0313,790.0314,794.5022,return,1.155,,30.20833333,,,,,,FBP-OG-71.png,0.35,1.2,1,0.25,,,,,,,,,,,,,0,17,17,0,1,,,,,,,,,,,,,,,,,,,,,,,,,,,,
,,,,,SPR24_072,20,Female,2024-04-19_11h00.35.343,jersey_experiment_5_v0,2023.2.2,Win32,84.74576271,,,,,,,,,,,,,,,,794.5024,795.7964,795.7964,798.5143,return,1.0863,,79.42708333,,,,,,FBP-YG-17.png,0.45,1.2,20,0.5,,,,,,,,,,,,,0,18,18,19,1,,,,,,,,,,,,,,,,,,,,,,,,,,,,
,,,,,SPR24_072,20,Female,2024-04-19_11h00.35.343,jersey_experiment_5_v0,2023.2.2,Win32,84.74576271,,,,,,,,,,,,,,,,798.5146,799.8082,799.8082,801.9376,return,0.9478,,45.18229167,,,,,,FBP-YG-17.png,0.35,1.2,16,0.5,,,,,,,,,,,,,0,19,19,15,1,,,,,,,,,,,,,,,,,,,,,,,,,,,,
,,,,,SPR24_072,20,Female,2024-04-19_11h00.35.343,jersey_experiment_5_v0,2023.2.2,Win32,84.74576271,,,,,,,,,,,,,,,,801.9379,802.9847,802.9847,806.985,return,0.6969,,72.52604167,,,,,,FBP-RB-19.png,0.4,1.2,43,0.25,,,,,,,,,,,,,0,20,20,42,1,,,,,,,,,,,,,,,,,,,,,,,,,,,,
,,,,,SPR24_072,20,Female,2024-04-19_11h00.35.343,jersey_experiment_5_v0,2023.2.2,Win32,84.74576271,,,,,,,,,,,,,,,,806.9852,808.2792,808.2793,809.7497,return,0.5673,,75.390625,,,,,,FBP-YG-19.png,0.4,1.2,28,0.5,,,,,,,,,,,,,0,21,21,27,1,,,,,,,,,,,,,,,,,,,,,,,,,,,,
,,,,,SPR24_072,20,Female,2024-04-19_11h00.35.343,jersey_experiment_5_v0,2023.2.2,Win32,84.74576271,,,,,,,,,,,,,,,,809.75,811.0439,811.0439,813.7381,return,0.7905,,69.66145833,,,,,,FBP-PT-17.png,0.37,1.2,47,0.5,,,,,,,,,,,,,0,22,22,46,1,,,,,,,,,,,,,,,,,,,,,,,,,,,,
,,,,,SPR24_072,20,Female,2024-04-19_11h00.35.343,jersey_experiment_5_v0,2023.2.2,Win32,84.74576271,,,,,,,,,,,,,,,,813.7384,814.7852,814.7852,818.1028,return,1.1397,,30.72916667,,,,,,FBP-OG-91.png,0.35,1.2,11,0.25,,,,,,,,,,,,,0,23,23,10,1,,,,,,,,,,,,,,,,,,,,,,,,,,,,
,,,,,SPR24_072,20,Female,2024-04-19_11h00.35.343,jersey_experiment_5_v0,2023.2.2,Win32,84.74576271,,,,,,,,,,,,,,,,818.103,819.3971,819.3971,821.4442,return,0.6484,,49.609375,,,,,,FBP-PT-18.png,0.37,1.2,52,0.5,,,,,,,,,,,,,0,24,24,51,1,,,,,,,,,,,,,,,,,,,,,,,,,,,,
,,,,,SPR24_072,20,Female,2024-04-19_11h00.35.343,jersey_experiment_5_v0,2023.2.2,Win32,84.74576271,,,,,,,,,,,,,,,,821.4446,822.4915,822.4915,825.0092,return,0.5693,,54.42708333,,,,,,FBP-OG-91.png,0.4,1.2,13,0.25,,,,,,,,,,,,,0,25,25,12,1,,,,,,,,,,,,,,,,,,,,,,,,,,,,
,,,,,SPR24_072,20,Female,2024-04-19_11h00.35.343,jersey_experiment_5_v0,2023.2.2,Win32,84.74576271,,,,,,,,,,,,,,,,825.0094,826.3033,826.3033,828.8092,return,1.186,,64.0625,,,,,,FBP-YG-17.png,0.43,1.2,19,0.5,,,,,,,,,,,,,0,26,26,18,1,,,,,,,,,,,,,,,,,,,,,,,,,,,,
,,,,,SPR24_072,20,Female,2024-04-19_11h00.35.343,jersey_experiment_5_v0,2023.2.2,Win32,84.74576271,,,,,,,,,,,,,,,,828.8094,830.1033,830.1034,832.0329,return,0.6892,,69.40104167,,,,,,FBP-YG-18.png,0.4,1.2,23,0.5,,,,,,,,,,,,,0,27,27,22,1,,,,,,,,,,,,,,,,,,,,,,,,,,,,
,,,,,SPR24_072,20,Female,2024-04-19_11h00.35.343,jersey_experiment_5_v0,2023.2.2,Win32,84.74576271,,,,,,,,,,,,,,,,832.033,833.327,833.3271,835.5035,return,0.7589,,78.125,,,,,,FBP-YG-19.png,0.45,1.2,30,0.5,,,,,,,,,,,,,0,28,28,29,1,,,,,,,,,,,,,,,,,,,,,,,,,,,,
,,,,,SPR24_072,20,Female,2024-04-19_11h00.35.343,jersey_experiment_5_v0,2023.2.2,Win32,84.74576271,,,,,,,,,,,,,,,,835.5037,836.7977,836.7978,840.2567,return,0.617,,68.22916667,,,,,,FBP-PT-19.png,0.4,1.2,58,0.5,,,,,,,,,,,,,0,29,29,57,1,,,,,,,,,,,,,,,,,,,,,,,,,,,,
,,,,,SPR24_072,20,Female,2024-04-19_11h00.35.343,jersey_experiment_5_v0,2023.2.2,Win32,84.74576271,,,,,,,,,,,,,,,,840.2569,841.551,841.551,846.1159,return,2.5101,,53.90625,,,,,,FBP-YG-18.png,0.37,1.2,22,0.5,,,,,,,,,,,,,0,30,30,21,1,,,,,,,,,,,,,,,,,,,,,,,,,,,,
,,,,,SPR24_072,20,Female,2024-04-19_11h00.35.343,jersey_experiment_5_v0,2023.2.2,Win32,84.74576271,,,,,,,,,,,,,,,,846.1161,847.41,847.41,849.2689,return,0.6122,,76.5625,,,,,,FBP-PT-18.png,0.45,1.2,55,0.5,,,,,,,,,,,,,0,31,31,54,1,,,,,,,,,,,,,,,,,,,,,,,,,,,,
,,,,,SPR24_072,20,Female,2024-04-19_11h00.35.343,jersey_experiment_5_v0,2023.2.2,Win32,84.74576271,,,,,,,,,,,,,,,,849.269,850.5631,850.5631,852.8806,return,1.2162,,49.609375,,,,,,FBP-PT-17.png,0.35,1.2,46,0.5,,,,,,,,,,,,,0,32,32,45,1,,,,,,,,,,,,,,,,,,,,,,,,,,,,
,,,,,SPR24_072,20,Female,2024-04-19_11h00.35.343,jersey_experiment_5_v0,2023.2.2,Win32,84.74576271,,,,,,,,,,,,,,,,852.8809,853.9277,853.9277,856.6337,return,0.8374,,68.88020833,,,,,,FBP-OG-81.png,0.43,1.2,9,0.25,,,,,,,,,,,,,0,33,33,8,1,,,,,,,,,,,,,,,,,,,,,,,,,,,,
,,,,,SPR24_072,20,Female,2024-04-19_11h00.35.343,jersey_experiment_5_v0,2023.2.2,Win32,84.74576271,,,,,,,,,,,,,,,,856.634,857.6809,857.6809,859.7749,return,0.5738,,46.09375,,,,,,FBP-OG-81.png,0.37,1.2,7,0.25,,,,,,,,,,,,,0,34,34,6,1,,,,,,,,,,,,,,,,,,,,,,,,,,,,
,,,,,SPR24_072,20,Female,2024-04-19_11h00.35.343,jersey_experiment_5_v0,2023.2.2,Win32,84.74576271,,,,,,,,,,,,,,,,859.7752,860.8222,860.8222,863.1046,return,0.6638,,69.53125,,,,,,FBP-RB-19.png,0.45,1.2,45,0.25,,,,,,,,,,,,,0,35,35,44,1,,,,,,,,,,,,,,,,,,,,,,,,,,,,
,,,,,SPR24_072,20,Female,2024-04-19_11h00.35.343,jersey_experiment_5_v0,2023.2.2,Win32,84.74576271,,,,,,,,,,,,,,,,863.1049,864.3989,864.3989,867.3517,return,0.565,,72.39583333,,,,,,FBP-PT-18.png,0.4,1.2,53,0.5,,,,,,,,,,,,,0,36,36,52,1,,,,,,,,,,,,,,,,,,,,,,,,,,,,
,,,,,SPR24_072,20,Female,2024-04-19_11h00.35.343,jersey_experiment_5_v0,2023.2.2,Win32,84.74576271,,,,,,,,,,,,,,,,867.3519,868.646,868.6461,871.7285,return,0.5961,,43.09895833,,,,,,FBP-PT-18.png,0.35,1.2,51,0.5,,,,,,,,,,,,,0,37,37,50,1,,,,,,,,,,,,,,,,,,,,,,,,,,,,
,,,,,SPR24_072,20,Female,2024-04-19_11h00.35.343,jersey_experiment_5_v0,2023.2.2,Win32,84.74576271,,,,,,,,,,,,,,,,871.7287,872.7756,872.7756,874.552,return,0.5417,,49.86979167,,,,,,FBP-OG-81.png,0.4,1.2,8,0.25,,,,,,,,,,,,,0,38,38,7,1,,,,,,,,,,,,,,,,,,,,,,,,,,,,
,,,,,SPR24_072,20,Female,2024-04-19_11h00.35.343,jersey_experiment_5_v0,2023.2.2,Win32,84.74576271,,,,,,,,,,,,,,,,874.5521,875.8462,875.8462,878.517,return,1.5771,,44.66145833,,,,,,FBP-PT-19.png,0.37,1.2,57,0.5,,,,,,,,,,,,,0,39,39,56,1,,,,,,,,,,,,,,,,,,,,,,,,,,,,
,,,,,SPR24_072,20,Female,2024-04-19_11h00.35.343,jersey_experiment_5_v0,2023.2.2,Win32,84.74576271,,,,,,,,,,,,,,,,878.5172,879.5639,879.5639,881.6229,return,0.6357,,44.66145833,,,,,,FBP-RB-17.png,0.37,1.2,32,0.25,,,,,,,,,,,,,0,40,40,31,1,,,,,,,,,,,,,,,,,,,,,,,,,,,,
,,,,,SPR24_072,20,Female,2024-04-19_11h00.35.343,jersey_experiment_5_v0,2023.2.2,Win32,84.74576271,,,,,,,,,,,,,,,,881.623,882.9171,882.9171,884.7524,return,0.5937,,67.578125,,,,,,FBP-PT-18.png,0.43,1.2,54,0.5,,,,,,,,,,,,,0,41,41,53,1,,,,,,,,,,,,,,,,,,,,,,,,,,,,
,,,,,SPR24_072,20,Female,2024-04-19_11h00.35.343,jersey_experiment_5_v0,2023.2.2,Win32,84.74576271,,,,,,,,,,,,,,,,884.7527,885.7995,885.7995,887.6819,return,0.486,,77.08333333,,,,,,FBP-OG-71.png,0.43,1.2,4,0.25,,,,,,,,,,,,,0,42,42,3,1,,,,,,,,,,,,,,,,,,,,,,,,,,,,
,,,,,SPR24_072,20,Female,2024-04-19_11h00.35.343,jersey_experiment_5_v0,2023.2.2,Win32,84.74576271,,,,,,,,,,,,,,,,887.6821,888.7291,888.7291,890.3997,return,0.5139,,77.08333333,,,,,,FBP-OG-91.png,0.43,1.2,14,0.25,,,,,,,,,,,,,0,43,43,13,1,,,,,,,,,,,,,,,,,,,,,,,,,,,,
,,,,,SPR24_072,20,Female,2024-04-19_11h00.35.343,jersey_experiment_5_v0,2023.2.2,Win32,84.74576271,,,,,,,,,,,,,,,,890.3998,891.4469,891.4469,893.6352,return,0.5228,,75.91145833,,,,,,FBP-OG-71.png,0.37,1.2,2,0.25,,,,,,,,,,,,,0,44,44,1,1,,,,,,,,,,,,,,,,,,,,,,,,,,,,
,,,,,SPR24_072,20,Female,2024-04-19_11h00.35.343,jersey_experiment_5_v0,2023.2.2,Win32,84.74576271,,,,,,,,,,,,,,,,893.6353,894.6823,894.6823,896.5293,return,0.5242,,80.46875,,,,,,FBP-RB-19.png,0.43,1.2,44,0.25,,,,,,,,,,,,,0,45,45,43,1,,,,,,,,,,,,,,,,,,,,,,,,,,,,
,,,,,SPR24_072,20,Female,2024-04-19_11h00.35.343,jersey_experiment_5_v0,2023.2.2,Win32,84.74576271,,,,,,,,,,,,,,,,896.5296,897.5764,897.5765,902.2001,return,0.5417,,67.578125,,,,,,FBP-OG-91.png,0.37,1.2,12,0.25,,,,,,,,,,,,,0,46,46,11,1,,,,,,,,,,,,,,,,,,,,,,,,,,,,
,,,,,SPR24_072,20,Female,2024-04-19_11h00.35.343,jersey_experiment_5_v0,2023.2.2,Win32,84.74576271,,,,,,,,,,,,,,,,902.2003,903.4942,903.4942,905.2354,return,0.6263,,78.64583333,,,,,,FBP-PT-19.png,0.43,1.2,59,0.5,,,,,,,,,,,,,0,47,47,58,1,,,,,,,,,,,,,,,,,,,,,,,,,,,,
,,,,,SPR24_072,20,Female,2024-04-19_11h00.35.343,jersey_experiment_5_v0,2023.2.2,Win32,84.74576271,,,,,,,,,,,,,,,,905.2358,906.5296,906.5297,907.9297,return,0.612,,78.64583333,,,,,,FBP-YG-18.png,0.43,1.2,24,0.5,,,,,,,,,,,,,0,48,48,23,1,,,,,,,,,,,,,,,,,,,,,,,,,,,,
,,,,,SPR24_072,20,Female,2024-04-19_11h00.35.343,jersey_experiment_5_v0,2023.2.2,Win32,84.74576271,,,,,,,,,,,,,,,,907.9299,908.9768,908.9768,912.6123,return,0.7311,,61.06770833,,,,,,FBP-RB-18.png,0.35,1.2,36,0.25,,,,,,,,,,,,,0,49,49,35,1,,,,,,,,,,,,,,,,,,,,,,,,,,,,
,,,,,SPR24_072,20,Female,2024-04-19_11h00.35.343,jersey_experiment_5_v0,2023.2.2,Win32,84.74576271,,,,,,,,,,,,,,,,912.6125,913.6592,913.6592,915.8124,return,0.4626,,79.42708333,,,,,,FBP-OG-71.png,0.45,1.2,5,0.25,,,,,,,,,,,,,0,50,50,4,1,,,,,,,,,,,,,,,,,,,,,,,,,,,,
,,,,,SPR24_072,20,Female,2024-04-19_11h00.35.343,jersey_experiment_5_v0,2023.2.2,Win32,84.74576271,,,,,,,,,,,,,,,,915.8127,916.8594,916.8594,919.0948,return,0.5515,,87.63020833,,,,,,FBP-OG-81.png,0.45,1.2,10,0.25,,,,,,,,,,,,,0,51,51,9,1,,,,,,,,,,,,,,,,,,,,,,,,,,,,
,,,,,SPR24_072,20,Female,2024-04-19_11h00.35.343,jersey_experiment_5_v0,2023.2.2,Win32,84.74576271,,,,,,,,,,,,,,,,919.095,920.3889,920.3889,922.3067,return,0.6761,,79.03645833,,,,,,FBP-YG-19.png,0.37,1.2,27,0.5,,,,,,,,,,,,,0,52,52,26,1,,,,,,,,,,,,,,,,,,,,,,,,,,,,
,,,,,SPR24_072,20,Female,2024-04-19_11h00.35.343,jersey_experiment_5_v0,2023.2.2,Win32,84.74576271,,,,,,,,,,,,,,,,922.307,923.3537,923.3537,926.2245,return,0.9345,,87.23958333,,,,,,FBP-RB-17.png,0.45,1.2,35,0.25,,,,,,,,,,,,,0,53,53,34,1,,,,,,,,,,,,,,,,,,,,,,,,,,,,
,,,,,SPR24_072,20,Female,2024-04-19_11h00.35.343,jersey_experiment_5_v0,2023.2.2,Win32,84.74576271,,,,,,,,,,,,,,,,926.2248,927.2716,927.2717,929.5777,return,0.6122,,60.546875,,,,,,FBP-OG-71.png,0.4,1.2,3,0.25,,,,,,,,,,,,,0,54,54,2,1,,,,,,,,,,,,,,,,,,,,,,,,,,,,
,,,,,SPR24_072,20,Female,2024-04-19_11h00.35.343,jersey_experiment_5_v0,2023.2.2,Win32,84.74576271,,,,,,,,,,,,,,,,929.5778,930.8716,930.8718,935.319,return,2.485,,67.96875,,,,,,FBP-PT-17.png,0.4,1.2,48,0.5,,,,,,,,,,,,,0,55,55,47,1,,,,,,,,,,,,,,,,,,,,,,,,,,,,
,,,,,SPR24_072,20,Female,2024-04-19_11h00.35.343,jersey_experiment_5_v0,2023.2.2,Win32,84.74576271,,,,,,,,,,,,,,,,935.3192,936.3661,936.3662,938.2602,return,0.6743,,68.359375,,,,,,FBP-RB-18.png,0.37,1.2,37,0.25,,,,,,,,,,,,,0,56,56,36,1,,,,,,,,,,,,,,,,,,,,,,,,,,,,
,,,,,SPR24_072,20,Female,2024-04-19_11h00.35.343,jersey_experiment_5_v0,2023.2.2,Win32,84.74576271,,,,,,,,,,,,,,,,938.2605,939.3072,939.3072,941.0603,return,0.6037,,76.30208333,,,,,,FBP-RB-18.png,0.43,1.2,39,0.25,,,,,,,,,,,,,0,57,57,38,1,,,,,,,,,,,,,,,,,,,,,,,,,,,,
,,,,,SPR24_072,20,Female,2024-04-19_11h00.35.343,jersey_experiment_5_v0,2023.2.2,Win32,84.74576271,,,,,,,,,,,,,,,,941.0605,942.3545,942.3545,948.8252,return,2.8712,,60.80729167,,,,,,FBP-YG-17.png,0.37,1.2,17,0.5,,,,,,,,,,,,,0,58,58,16,1,,,,,,,,,,,,,,,,,,,,,,,,,,,,
,,,,,SPR24_072,20,Female,2024-04-19_11h00.35.343,jersey_experiment_5_v0,2023.2.2,Win32,84.74576271,,,,,,,,,,,,,,,,948.8255,950.1195,950.1195,951.6372,return,0.6617,,78.125,,,,,,FBP-PT-17.png,0.43,1.2,49,0.5,,,,,,,,,,,,,0,59,59,48,1,,,,,,,,,,,,,,,,,,,,,,,,,,,,
,,,,,SPR24_072,20,Female,2024-04-19_11h00.35.343,jersey_experiment_5_v0,2023.2.2,Win32,84.74576271,,,,,,,,,,,,,,,,951.6393,952.6842,952.6842,955.6021,return,1.3922,,60.67708333,,,,,,FBP-RB-71.png,0.37,1.2,32,0.25,,,,,,,,,,,,,,,,,,0,0,0,31,1,,,,,,,,,,,,,,,,,,,,,,,
,,,,,SPR24_072,20,Female,2024-04-19_11h00.35.343,jersey_experiment_5_v0,2023.2.2,Win32,84.74576271,,,,,,,,,,,,,,,,955.6025,956.8962,956.8962,959.461,return,1.0837,,77.60416667,,,,,,FBP-YG-91.png,0.43,1.2,29,0.5,,,,,,,,,,,,,,,,,,0,1,1,28,1,,,,,,,,,,,,,,,,,,,,,,,
,,,,,SPR24_072,20,Female,2024-04-19_11h00.35.343,jersey_experiment_5_v0,2023.2.2,Win32,84.74576271,,,,,,,,,,,,,,,,959.4613,960.5081,960.5081,962.7199,return,0.7001,,75.13020833,,,,,,FBP-RB-91.png,0.4,1.2,43,0.25,,,,,,,,,,,,,,,,,,0,2,2,42,1,,,,,,,,,,,,,,,,,,,,,,,
,,,,,SPR24_072,20,Female,2024-04-19_11h00.35.343,jersey_experiment_5_v0,2023.2.2,Win32,84.74576271,,,,,,,,,,,,,,,,962.7201,963.7671,963.7671,968.5317,return,3.5195,,69.53125,,,,,,FBP-RB-71.png,0.4,1.2,33,0.25,,,,,,,,,,,,,,,,,,0,3,3,32,1,,,,,,,,,,,,,,,,,,,,,,,
,,,,,SPR24_072,20,Female,2024-04-19_11h00.35.343,jersey_experiment_5_v0,2023.2.2,Win32,84.74576271,,,,,,,,,,,,,,,,968.5319,969.579,969.5791,973.5202,return,2.4406,,84.11458333,,,,,,FBP-RB-81.png,0.45,1.2,40,0.25,,,,,,,,,,,,,,,,,,0,4,4,39,1,,,,,,,,,,,,,,,,,,,,,,,
,,,,,SPR24_072,20,Female,2024-04-19_11h00.35.343,jersey_experiment_5_v0,2023.2.2,Win32,84.74576271,,,,,,,,,,,,,,,,973.5205,974.5675,974.5675,976.544,return,0.5139,,81.90104167,,,,,,FBP-RB-81.png,0.43,1.2,39,0.25,,,,,,,,,,,,,,,,,,0,5,5,38,1,,,,,,,,,,,,,,,,,,,,,,,
,,,,,SPR24_072,20,Female,2024-04-19_11h00.35.343,jersey_experiment_5_v0,2023.2.2,Win32,84.74576271,,,,,,,,,,,,,,,,976.5442,977.591,977.591,979.697,return,0.6303,,44.01041667,,,,,,FBP-RB-91.png,0.35,1.2,41,0.25,,,,,,,,,,,,,,,,,,0,6,6,40,1,,,,,,,,,,,,,,,,,,,,,,,
,,,,,SPR24_072,20,Female,2024-04-19_11h00.35.343,jersey_experiment_5_v0,2023.2.2,Win32,84.74576271,,,,,,,,,,,,,,,,979.6973,980.7442,980.7442,983.203,return,0.6287,,66.66666667,,,,,,FBP-OG-18.png,0.4,1.2,8,0.25,,,,,,,,,,,,,,,,,,0,7,7,7,1,,,,,,,,,,,,,,,,,,,,,,,
,,,,,SPR24_072,20,Female,2024-04-19_11h00.35.343,jersey_experiment_5_v0,2023.2.2,Win32,84.74576271,,,,,,,,,,,,,,,,983.2032,984.2501,984.2501,986.309,return,0.6969,,75.52083333,,,,,,FBP-OG-17.png,0.4,1.2,3,0.25,,,,,,,,,,,,,,,,,,0,8,8,2,1,,,,,,,,,,,,,,,,,,,,,,,
,,,,,SPR24_072,20,Female,2024-04-19_11h00.35.343,jersey_experiment_5_v0,2023.2.2,Win32,84.74576271,,,,,,,,,,,,,,,,986.3092,987.3561,987.3562,988.9796,return,0.555,,77.60416667,,,,,,FBP-RB-71.png,0.45,1.2,35,0.25,,,,,,,,,,,,,,,,,,0,9,9,34,1,,,,,,,,,,,,,,,,,,,,,,,
,,,,,SPR24_072,20,Female,2024-04-19_11h00.35.343,jersey_experiment_5_v0,2023.2.2,Win32,84.74576271,,,,,,,,,,,,,,,,988.9798,990.0267,990.0268,991.4738,return,0.5239,,77.60416667,,,,,,FBP-OG-18.png,0.43,1.2,9,0.25,,,,,,,,,,,,,,,,,,0,10,10,8,1,,,,,,,,,,,,,,,,,,,,,,,
,,,,,SPR24_072,20,Female,2024-04-19_11h00.35.343,jersey_experiment_5_v0,2023.2.2,Win32,84.74576271,,,,,,,,,,,,,,,,991.4739,992.7681,992.7681,994.3092,return,0.5555,,79.03645833,,,,,,FBP-YG-71.png,0.43,1.2,19,0.5,,,,,,,,,,,,,,,,,,0,11,11,18,1,,,,,,,,,,,,,,,,,,,,,,,
,,,,,SPR24_072,20,Female,2024-04-19_11h00.35.343,jersey_experiment_5_v0,2023.2.2,Win32,84.74576271,,,,,,,,,,,,,,,,994.3093,995.6035,995.6036,997.5916,return,0.739,,81.38020833,,,,,,FBP-YG-81.png,0.45,1.2,25,0.5,,,,,,,,,,,,,,,,,,0,12,12,24,1,,,,,,,,,,,,,,,,,,,,,,,
,,,,,SPR24_072,20,Female,2024-04-19_11h00.35.343,jersey_experiment_5_v0,2023.2.2,Win32,84.74576271,,,,,,,,,,,,,,,,997.5918,998.6388,998.6389,1001.0389,return,0.9619,,82.421875,,,,,,FBP-RB-91.png,0.43,1.2,44,0.25,,,,,,,,,,,,,,,,,,0,13,13,43,1,,,,,,,,,,,,,,,,,,,,,,,
,,,,,SPR24_072,20,Female,2024-04-19_11h00.35.343,jersey_experiment_5_v0,2023.2.2,Win32,84.74576271,,,,,,,,,,,,,,,,1001.0391,1002.0858,1002.0858,1005.1685,return,0.6191,,57.29166667,,,,,,FBP-OG-17.png,0.37,1.2,2,0.25,,,,,,,,,,,,,,,,,,0,14,14,1,1,,,,,,,,,,,,,,,,,,,,,,,
,,,,,SPR24_072,20,Female,2024-04-19_11h00.35.343,jersey_experiment_5_v0,2023.2.2,Win32,84.74576271,,,,,,,,,,,,,,,,1005.1687,1006.4626,1006.4626,1008.6979,return,0.6439,,36.97916667,,,,,,FBP-PT-71.png,0.37,1.2,47,0.5,,,,,,,,,,,,,,,,,,0,15,15,46,1,,,,,,,,,,,,,,,,,,,,,,,
,,,,,SPR24_072,20,Female,2024-04-19_11h00.35.343,jersey_experiment_5_v0,2023.2.2,Win32,84.74576271,,,,,,,,,,,,,,,,1008.6981,1009.9921,1009.9921,1012.4041,return,1.0978,,37.36979167,,,,,,FBP-YG-81.png,0.37,1.2,22,0.5,,,,,,,,,,,,,,,,,,0,16,16,21,1,,,,,,,,,,,,,,,,,,,,,,,
,,,,,SPR24_072,20,Female,2024-04-19_11h00.35.343,jersey_experiment_5_v0,2023.2.2,Win32,84.74576271,,,,,,,,,,,,,,,,1012.4043,1013.6982,1013.6983,1016.0983,return,1.0054,,35.41666667,,,,,,FBP-PT-91.png,0.35,1.2,56,0.5,,,,,,,,,,,,,,,,,,0,17,17,55,1,,,,,,,,,,,,,,,,,,,,,,,
,,,,,SPR24_072,20,Female,2024-04-19_11h00.35.343,jersey_experiment_5_v0,2023.2.2,Win32,84.74576271,,,,,,,,,,,,,,,,1016.0985,1017.1453,1017.1453,1019.8161,return,0.7907,,80.859375,,,,,,FBP-OG-19.png,0.45,1.2,15,0.25,,,,,,,,,,,,,,,,,,0,18,18,14,1,,,,,,,,,,,,,,,,,,,,,,,
,,,,,SPR24_072,20,Female,2024-04-19_11h00.35.343,jersey_experiment_5_v0,2023.2.2,Win32,84.74576271,,,,,,,,,,,,,,,,1019.8163,1020.863,1020.863,1023.7927,return,0.8895,,38.28125,,,,,,FBP-RB-91.png,0.37,1.2,42,0.25,,,,,,,,,,,,,,,,,,0,19,19,41,1,,,,,,,,,,,,,,,,,,,,,,,
,,,,,SPR24_072,20,Female,2024-04-19_11h00.35.343,jersey_experiment_5_v0,2023.2.2,Win32,84.74576271,,,,,,,,,,,,,,,,1023.7929,1024.8396,1024.8396,1028.228,return,0.5919,,76.69270833,,,,,,FBP-OG-17.png,0.45,1.2,5,0.25,,,,,,,,,,,,,,,,,,0,20,20,4,1,,,,,,,,,,,,,,,,,,,,,,,
,,,,,SPR24_072,20,Female,2024-04-19_11h00.35.343,jersey_experiment_5_v0,2023.2.2,Win32,84.74576271,,,,,,,,,,,,,,,,1028.2282,1029.2752,1029.2753,1031.593,return,1.1768,,84.63541667,,,,,,FBP-OG-18.png,0.45,1.2,10,0.25,,,,,,,,,,,,,,,,,,0,21,21,9,1,,,,,,,,,,,,,,,,,,,,,,,
,,,,,SPR24_072,20,Female,2024-04-19_11h00.35.343,jersey_experiment_5_v0,2023.2.2,Win32,84.74576271,,,,,,,,,,,,,,,,1031.5932,1032.64,1032.64,1034.0403,return,0.1274,,48.046875,,,,,,FBP-OG-19.png,0.4,1.2,13,0.25,,,,,,,,,,,,,,,,,,0,22,22,12,1,,,,,,,,,,,,,,,,,,,,,,,
,,,,,SPR24_072,20,Female,2024-04-19_11h00.35.343,jersey_experiment_5_v0,2023.2.2,Win32,84.74576271,,,,,,,,,,,,,,,,1034.0405,1035.3345,1035.3345,1038.0873,return,1.5298,,57.94270833,,,,,,FBP-PT-71.png,0.4,1.2,48,0.5,,,,,,,,,,,,,,,,,,0,23,23,47,1,,,,,,,,,,,,,,,,,,,,,,,
,,,,,SPR24_072,20,Female,2024-04-19_11h00.35.343,jersey_experiment_5_v0,2023.2.2,Win32,84.74576271,,,,,,,,,,,,,,,,1038.0875,1039.1343,1039.1343,1040.6403,return,0.1464,,70.44270833,,,,,,FBP-RB-91.png,0.45,1.2,45,0.25,,,,,,,,,,,,,,,,,,0,24,24,44,1,,,,,,,,,,,,,,,,,,,,,,,
,,,,,SPR24_072,20,Female,2024-04-19_11h00.35.343,jersey_experiment_5_v0,2023.2.2,Win32,84.74576271,,,,,,,,,,,,,,,,1040.6406,1041.9346,1041.9347,1043.2876,return,0.2352,,50.78125,,,,,,FBP-YG-91.png,0.4,1.2,28,0.5,,,,,,,,,,,,,,,,,,0,25,25,27,1,,,,,,,,,,,,,,,,,,,,,,,
,,,,,SPR24_072,20,Female,2024-04-19_11h00.35.343,jersey_experiment_5_v0,2023.2.2,Win32,84.74576271,,,,,,,,,,,,,,,,1043.2877,1044.5816,1044.5816,1047.1346,return,0.1951,,51.953125,,,,,,FBP-YG-81.png,0.43,1.2,24,0.5,,,,,,,,,,,,,,,,,,0,26,26,23,1,,,,,,,,,,,,,,,,,,,,,,,
,,,,,SPR24_072,20,Female,2024-04-19_11h00.35.343,jersey_experiment_5_v0,2023.2.2,Win32,84.74576271,,,,,,,,,,,,,,,,1047.1348,1048.429,1048.429,1050.323,return,0.405,,28.38541667,,,,,,FBP-YG-81.png,0.35,1.2,21,0.5,,,,,,,,,,,,,,,,,,0,27,27,20,1,,,,,,,,,,,,,,,,,,,,,,,
,,,,,SPR24_072,20,Female,2024-04-19_11h00.35.343,jersey_experiment_5_v0,2023.2.2,Win32,84.74576271,,,,,,,,,,,,,,,,1050.3232,1051.3701,1051.3701,1053.2527,return,0.3534,,23.95833333,,,,,,FBP-RB-81.png,0.35,1.2,36,0.25,,,,,,,,,,,,,,,,,,0,28,28,35,1,,,,,,,,,,,,,,,,,,,,,,,
,,,,,SPR24_072,20,Female,2024-04-19_11h00.35.343,jersey_experiment_5_v0,2023.2.2,Win32,84.74576271,,,,,,,,,,,,,,,,1053.2529,1054.5469,1054.5469,1056.5115,return,0.2197,,63.671875,,,,,,FBP-PT-91.png,0.43,1.2,59,0.5,,,,,,,,,,,,,,,,,,0,29,29,58,1,,,,,,,,,,,,,,,,,,,,,,,
,,,,,SPR24_072,20,Female,2024-04-19_11h00.35.343,jersey_experiment_5_v0,2023.2.2,Win32,84.74576271,,,,,,,,,,,,,,,,1056.5116,1057.8057,1057.8057,1058.9585,return,0.2546,,63.671875,,,,,,FBP-PT-81.png,0.45,1.2,55,0.5,,,,,,,,,,,,,,,,,,0,30,30,54,1,,,,,,,,,,,,,,,,,,,,,,,
,,,,,SPR24_072,20,Female,2024-04-19_11h00.35.343,jersey_experiment_5_v0,2023.2.2,Win32,84.74576271,,,,,,,,,,,,,,,,1058.9588,1060.2528,1060.2528,1061.3353,return,0.1178,,62.76041667,,,,,,FBP-YG-81.png,0.4,1.2,23,0.5,,,,,,,,,,,,,,,,,,0,31,31,22,1,,,,,,,,,,,,,,,,,,,,,,,
,,,,,SPR24_072,20,Female,2024-04-19_11h00.35.343,jersey_experiment_5_v0,2023.2.2,Win32,84.74576271,,,,,,,,,,,,,,,,1061.3354,1062.3824,1062.3824,1065.4178,return,0.2975,,72.52604167,,,,,,FBP-OG-19.png,0.43,1.2,14,0.25,,,,,,,,,,,,,,,,,,0,32,32,13,1,,,,,,,,,,,,,,,,,,,,,,,
,,,,,SPR24_072,20,Female,2024-04-19_11h00.35.343,jersey_experiment_5_v0,2023.2.2,Win32,84.74576271,,,,,,,,,,,,,,,,1065.418,1066.4647,1066.4647,1067.6534,return,0.1557,,27.734375,,,,,,FBP-RB-71.png,0.35,1.2,31,0.25,,,,,,,,,,,,,,,,,,0,33,33,30,1,,,,,,,,,,,,,,,,,,,,,,,
,,,,,SPR24_072,20,Female,2024-04-19_11h00.35.343,jersey_experiment_5_v0,2023.2.2,Win32,84.74576271,,,,,,,,,,,,,,,,1067.6535,1068.9474,1068.9474,1070.2768,return,0.2147,,46.61458333,,,,,,FBP-PT-81.png,0.4,1.2,53,0.5,,,,,,,,,,,,,,,,,,0,34,34,52,1,,,,,,,,,,,,,,,,,,,,,,,
,,,,,SPR24_072,20,Female,2024-04-19_11h00.35.343,jersey_experiment_5_v0,2023.2.2,Win32,84.74576271,,,,,,,,,,,,,,,,1070.277,1071.3238,1071.3238,1072.8534,return,0.1419,,31.640625,,,,,,FBP-OG-17.png,0.35,1.2,1,0.25,,,,,,,,,,,,,,,,,,0,35,35,0,1,,,,,,,,,,,,,,,,,,,,,,,
,,,,,SPR24_072,20,Female,2024-04-19_11h00.35.343,jersey_experiment_5_v0,2023.2.2,Win32,84.74576271,,,,,,,,,,,,,,,,1072.8535,1073.9003,1073.9003,1074.8653,return,0.1713,,24.609375,,,,,,FBP-OG-18.png,0.35,1.2,6,0.25,,,,,,,,,,,,,,,,,,0,36,36,5,1,,,,,,,,,,,,,,,,,,,,,,,
,,,,,SPR24_072,20,Female,2024-04-19_11h00.35.343,jersey_experiment_5_v0,2023.2.2,Win32,84.74576271,,,,,,,,,,,,,,,,1074.8655,1076.1592,1076.1592,1080.3124,return,2.3765,,61.19791667,,,,,,FBP-PT-71.png,0.43,1.2,49,0.5,,,,,,,,,,,,,,,,,,0,37,37,48,1,,,,,,,,,,,,,,,,,,,,,,,
,,,,,SPR24_072,20,Female,2024-04-19_11h00.35.343,jersey_experiment_5_v0,2023.2.2,Win32,84.74576271,,,,,,,,,,,,,,,,1080.3126,1081.3593,1081.3593,1082.7715,return,0.1224,,32.16145833,,,,,,FBP-OG-19.png,0.37,1.2,12,0.25,,,,,,,,,,,,,,,,,,0,38,38,11,1,,,,,,,,,,,,,,,,,,,,,,,
,,,,,SPR24_072,20,Female,2024-04-19_11h00.35.343,jersey_experiment_5_v0,2023.2.2,Win32,84.74576271,,,,,,,,,,,,,,,,1082.7717,1084.0653,1084.0654,1085.2889,return,0.2925,,49.609375,,,,,,FBP-PT-91.png,0.4,1.2,58,0.5,,,,,,,,,,,,,,,,,,0,39,39,57,1,,,,,,,,,,,,,,,,,,,,,,,
,,,,,SPR24_072,20,Female,2024-04-19_11h00.35.343,jersey_experiment_5_v0,2023.2.2,Win32,84.74576271,,,,,,,,,,,,,,,,1085.2891,1086.5831,1086.5831,1087.6186,return,0.1229,,35.15625,,,,,,FBP-YG-71.png,0.35,1.2,16,0.5,,,,,,,,,,,,,,,,,,0,40,40,15,1,,,,,,,,,,,,,,,,,,,,,,,
,,,,,SPR24_072,20,Female,2024-04-19_11h00.35.343,jersey_experiment_5_v0,2023.2.2,Win32,84.74576271,,,,,,,,,,,,,,,,1087.6189,1088.9126,1088.9127,1090.6303,return,0.7874,,27.734375,,,,,,FBP-PT-81.png,0.35,1.2,51,0.5,,,,,,,,,,,,,,,,,,0,41,41,50,1,,,,,,,,,,,,,,,,,,,,,,,
,,,,,SPR24_072,20,Female,2024-04-19_11h00.35.343,jersey_experiment_5_v0,2023.2.2,Win32,84.74576271,,,,,,,,,,,,,,,,1090.6304,1091.6775,1091.6776,1092.9011,return,0.3205,,65.36458333,,,,,,FBP-RB-81.png,0.4,1.2,38,0.25,,,,,,,,,,,,,,,,,,0,42,42,37,1,,,,,,,,,,,,,,,,,,,,,,,
,,,,,SPR24_072,20,Female,2024-04-19_11h00.35.343,jersey_experiment_5_v0,2023.2.2,Win32,84.74576271,,,,,,,,,,,,,,,,1092.9012,1094.1952,1094.1952,1094.9834,return,0.1413,,73.56770833,,,,,,FBP-YG-91.png,0.45,1.2,30,0.5,,,,,,,,,,,,,,,,,,0,43,43,29,1,,,,,,,,,,,,,,,,,,,,,,,
,,,,,SPR24_072,20,Female,2024-04-19_11h00.35.343,jersey_experiment_5_v0,2023.2.2,Win32,84.74576271,,,,,,,,,,,,,,,,1094.9836,1096.0306,1096.0306,1096.9363,return,0.1646,,72.65625,,,,,,FBP-OG-17.png,0.43,1.2,4,0.25,,,,,,,,,,,,,,,,,,0,44,44,3,1,,,,,,,,,,,,,,,,,,,,,,,
,,,,,SPR24_072,20,Female,2024-04-19_11h00.35.343,jersey_experiment_5_v0,2023.2.2,Win32,84.74576271,,,,,,,,,,,,,,,,1096.9365,1098.2306,1098.2306,1099.3483,return,0.4011,,74.21875,,,,,,FBP-YG-71.png,0.4,1.2,18,0.5,,,,,,,,,,,,,,,,,,0,45,45,17,1,,,,,,,,,,,,,,,,,,,,,,,
,,,,,SPR24_072,20,Female,2024-04-19_11h00.35.343,jersey_experiment_5_v0,2023.2.2,Win32,84.74576271,,,,,,,,,,,,,,,,1099.3485,1100.6426,1100.6427,1101.666,return,0.1701,,80.46875,,,,,,FBP-PT-91.png,0.45,1.2,60,0.5,,,,,,,,,,,,,,,,,,0,46,46,59,1,,,,,,,,,,,,,,,,,,,,,,,
,,,,,SPR24_072,20,Female,2024-04-19_11h00.35.343,jersey_experiment_5_v0,2023.2.2,Win32,84.74576271,,,,,,,,,,,,,,,,1101.6662,1102.9601,1102.9601,1103.6545,return,0.1792,,85.546875,,,,,,FBP-PT-81.png,0.43,1.2,54,0.5,,,,,,,,,,,,,,,,,,0,47,47,53,1,,,,,,,,,,,,,,,,,,,,,,,
,,,,,SPR24_072,20,Female,2024-04-19_11h00.35.343,jersey_experiment_5_v0,2023.2.2,Win32,84.74576271,,,,,,,,,,,,,,,,1103.6547,1104.9485,1104.9485,1105.7837,return,0.1879,,86.06770833,,,,,,FBP-YG-71.png,0.45,1.2,20,0.5,,,,,,,,,,,,,,,,,,0,48,48,19,1,,,,,,,,,,,,,,,,,,,,,,,
,,,,,SPR24_072,20,Female,2024-04-19_11h00.35.343,jersey_experiment_5_v0,2023.2.2,Win32,84.74576271,,,,,,,,,,,,,,,,1105.7839,1107.0779,1107.078,1111.3959,return,0.2512,,40.49479167,,,,,,FBP-YG-71.png,0.37,1.2,17,0.5,,,,,,,,,,,,,,,,,,0,49,49,16,1,,,,,,,,,,,,,,,,,,,,,,,
,,,,,SPR24_072,20,Female,2024-04-19_11h00.35.343,jersey_experiment_5_v0,2023.2.2,Win32,84.74576271,,,,,,,,,,,,,,,,1111.396,1112.4427,1112.4428,1113.29,return,0.0944,,33.59375,,,,,,FBP-OG-18.png,0.37,1.2,7,0.25,,,,,,,,,,,,,,,,,,0,50,50,6,1,,,,,,,,,,,,,,,,,,,,,,,
,,,,,SPR24_072,20,Female,2024-04-19_11h00.35.343,jersey_experiment_5_v0,2023.2.2,Win32,84.74576271,,,,,,,,,,,,,,,,1113.2902,1114.5844,1114.5844,1116.9023,return,1.4962,,27.99479167,,,,,,FBP-PT-91.png,0.37,1.2,57,0.5,,,,,,,,,,,,,,,,,,0,51,51,56,1,,,,,,,,,,,,,,,,,,,,,,,
,,,,,SPR24_072,20,Female,2024-04-19_11h00.35.343,jersey_experiment_5_v0,2023.2.2,Win32,84.74576271,,,,,,,,,,,,,,,,1116.9025,1118.1959,1118.1959,1119.0904,return,0.121,,25.26041667,,,,,,FBP-PT-81.png,0.37,1.2,52,0.5,,,,,,,,,,,,,,,,,,0,52,52,51,1,,,,,,,,,,,,,,,,,,,,,,,
,,,,,SPR24_072,20,Female,2024-04-19_11h00.35.343,jersey_experiment_5_v0,2023.2.2,Win32,84.74576271,,,,,,,,,,,,,,,,1119.0905,1120.1372,1120.1372,1121.1845,return,0.1705,,24.47916667,,,,,,FBP-RB-81.png,0.37,1.2,37,0.25,,,,,,,,,,,,,,,,,,0,53,53,36,1,,,,,,,,,,,,,,,,,,,,,,,
,,,,,SPR24_072,20,Female,2024-04-19_11h00.35.343,jersey_experiment_5_v0,2023.2.2,Win32,84.74576271,,,,,,,,,,,,,,,,1121.1848,1122.4786,1122.4786,1123.5258,return,0.1665,,24.47916667,,,,,,FBP-PT-71.png,0.35,1.2,46,0.5,,,,,,,,,,,,,,,,,,0,54,54,45,1,,,,,,,,,,,,,,,,,,,,,,,
,,,,,SPR24_072,20,Female,2024-04-19_11h00.35.343,jersey_experiment_5_v0,2023.2.2,Win32,84.74576271,,,,,,,,,,,,,,,,1123.526,1124.5728,1124.5728,1126.5139,return,0.1566,,62.23958333,,,,,,FBP-RB-71.png,0.43,1.2,34,0.25,,,,,,,,,,,,,,,,,,0,55,55,33,1,,,,,,,,,,,,,,,,,,,,,,,
,,,,,SPR24_072,20,Female,2024-04-19_11h00.35.343,jersey_experiment_5_v0,2023.2.2,Win32,84.74576271,,,,,,,,,,,,,,,,1126.514,1127.561,1127.5611,1128.6908,return,0.144,,38.15104167,,,,,,FBP-OG-19.png,0.35,1.2,11,0.25,,,,,,,,,,,,,,,,,,0,56,56,10,1,,,,,,,,,,,,,,,,,,,,,,,
,,,,,SPR24_072,20,Female,2024-04-19_11h00.35.343,jersey_experiment_5_v0,2023.2.2,Win32,84.74576271,,,,,,,,,,,,,,,,1128.6909,1129.9848,1129.9848,1131.1022,return,0.3953,,29.16666667,,,,,,FBP-YG-91.png,0.35,1.2,26,0.5,,,,,,,,,,,,,,,,,,0,57,57,25,1,,,,,,,,,,,,,,,,,,,,,,,
,,,,,SPR24_072,20,Female,2024-04-19_11h00.35.343,jersey_experiment_5_v0,2023.2.2,Win32,84.74576271,,,,,,,,,,,,,,,,1131.1023,1132.3965,1132.3965,1133.8084,return,0.1107,,67.83854167,,,,,,FBP-PT-71.png,0.45,1.2,50,0.5,,,,,,,,,,,,,,,,,,0,58,58,49,1,,,,,,,,,,,,,,,,,,,,,,,
,,,,,SPR24_072,20,Female,2024-04-19_11h00.35.343,jersey_experiment_5_v0,2023.2.2,Win32,84.74576271,,,,,,,,,,,,,,,,1133.8087,1135.1024,1135.1025,1137.1025,return,0.1592,,48.69791667,,,,,,FBP-YG-91.png,0.37,1.2,27,0.5,,,,,,,,,,,,,,,,,,0,59,59,26,1,,,,,,,,,,,,,,,,,,,,,,,
,,,,,SPR24_072,20,Female,2024-04-19_11h00.35.343,jersey_experiment_5_v0,2023.2.2,Win32,84.74576271,,,,,,,,,,,,,,,,,,,,,,,,,,,,,,,,,,,,,,,,,,,,,,,,,,,,,,,,1137.103,1142.6558,return,5.5463,,,,,,,,,,,,,,,,,,,
,,,,,SPR24_072,20,Female,2024-04-19_11h00.35.343,jersey_experiment_5_v0,2023.2.2,Win32,84.74576271,,,,,,,,,,,,,,,,,,,,,,,,,,,,,,,,,,,,,,,,,,,,,,,,,,,,,,,,,,,,,1142.6559,1148.0091,1,4.0502,return,1.2845,,,,,,,,,,,,
,,,,,SPR24_072,20,Female,2024-04-19_11h00.35.343,jersey_experiment_5_v0,2023.2.2,Win32,84.74576271,,,,,,,,,,,,,,,,,,,,,,,,,,,,,,,,,,,,,,,,,,,,,,,,,,,,,,,,,,,,,,,,,,,,1148.0091,1242.5703,"im guessing it has something to do with our perceptions of size relating to race, the patterns were football players of different sizes/widths/body types separated by team colors and race",right,86.6731,,,,,,
,,,,,SPR24_072,20,Female,2024-04-19_11h00.35.343,jersey_experiment_5_v0,2023.2.2,Win32,84.74576271,,,,,,,,,,,,,,,,,,,,,,,,,,,,,,,,,,,,,,,,,,,,,,,,,,,,,,,,,,,,,,,,,,,,,,,,,,1242.5704,1245.6712,return,3.0874,