requirements.started,requirements.stopped,key_resp_3.keys,key_resp_3.rt,key_resp_3.duration,Subject ID,Age,Gender,date,expName,psychopyVersion,OS,frameRate,instructions1.started,instructions1.stopped,key_resp.keys,key_resp.rt,key_resp.duration,example.started,example.stopped,enter_2.keys,enter_2.rt,enter_2.duration,instructions2.started,instructions2.stopped,enter_3.keys,enter_3.rt,enter_3.duration,image.started,image.stopped,slider_2.started,slider_2.stopped,next.keys,next.rt,next.duration,slider.response,trial_block_1.thisRepN,trial_block_1.thisTrialN,trial_block_1.thisN,trial_block_1.thisIndex,trial_block_1.ran,Path,Width,Height,Index,Duration,trial_block_2.thisRepN,trial_block_2.thisTrialN,trial_block_2.thisN,trial_block_2.thisIndex,trial_block_2.ran,rest_break.started,rest_break.stopped,end_break.started,end_break.stopped,key_resp_5.keys,key_resp_5.rt,key_resp_5.duration,trial_block_3.thisRepN,trial_block_3.thisTrialN,trial_block_3.thisN,trial_block_3.thisIndex,trial_block_3.ran,trial_block_4.thisRepN,trial_block_4.thisTrialN,trial_block_4.thisN,trial_block_4.thisIndex,trial_block_4.ran,questions_intro.started,questions_intro.stopped,enter_12.keys,enter_12.rt,enter_12.duration,question2.started,question2.stopped,question_doingbest.response,question_doingbest.rt,enter_15.keys,enter_15.rt,enter_15.duration,pattern.started,pattern.stopped,pattern_2.text,enter_17.keys,enter_17.rt,enter_17.duration,thankyou.started,thankyou.stopped,enter_14.keys,enter_14.rt,enter_14.duration
0.0001,11.8778,return,11.8726,,SPR24_080,20,male,2024-04-23_14h07.33.734,jersey_experiment_5_v0,2023.2.2,Win32,84.74576271,,,,,,,,,,,,,,,,,,,,,,,,,,,,,,,,,,,,,,,,,,,,,,,,,,,,,,,,,,,,,,,,,,,,,,,,,,,,,,
,,,,,SPR24_080,20,male,2024-04-23_14h07.33.734,jersey_experiment_5_v0,2023.2.2,Win32,84.74576271,11.8779,18.947,return,7.0528,,,,,,,,,,,,,,,,,,,,,,,,,,,,,,,,,,,,,,,,,,,,,,,,,,,,,,,,,,,,,,,,,,,,,,,,,,
,,,,,SPR24_080,20,male,2024-04-23_14h07.33.734,jersey_experiment_5_v0,2023.2.2,Win32,84.74576271,,,,,,18.9471,23.1943,return,4.2071,,,,,,,,,,,,,,,,,,,,,,,,,,,,,,,,,,,,,,,,,,,,,,,,,,,,,,,,,,,,,,,,,,,,,
,,,,,SPR24_080,20,male,2024-04-23_14h07.33.734,jersey_experiment_5_v0,2023.2.2,Win32,84.74576271,,,,,,,,,,,23.1944,41.1126,return,17.9063,,,,,,,,,,,,,,,,,,,,,,,,,,,,,,,,,,,,,,,,,,,,,,,,,,,,,,,,,,,,,,,,
,,,,,SPR24_080,20,male,2024-04-23_14h07.33.734,jersey_experiment_5_v0,2023.2.2,Win32,84.74576271,,,,,,,,,,,,,,,,41.121,42.1712,42.1713,55.4896,return,6.7947,,74.609375,0,0,0,22,1,FBP-YG-18.png,0.4,1.2,23,0.25,,,,,,,,,,,,,,,,,,,,,,,,,,,,,,,,,,,,,,,,,,,,,
,,,,,SPR24_080,20,male,2024-04-23_14h07.33.734,jersey_experiment_5_v0,2023.2.2,Win32,84.74576271,,,,,,,,,,,,,,,,55.4953,56.548,56.5481,60.8659,return,1.935,,25.52083333,0,1,1,21,1,FBP-YG-18.png,0.37,1.2,22,0.25,,,,,,,,,,,,,,,,,,,,,,,,,,,,,,,,,,,,,,,,,,,,,
,,,,,SPR24_080,20,male,2024-04-23_14h07.33.734,jersey_experiment_5_v0,2023.2.2,Win32,84.74576271,,,,,,,,,,,,,,,,60.8662,61.9129,61.913,64.7955,return,1.6616,,75.78125,0,2,2,56,1,FBP-PT-19.png,0.37,1.2,57,0.25,,,,,,,,,,,,,,,,,,,,,,,,,,,,,,,,,,,,,,,,,,,,,
,,,,,SPR24_080,20,male,2024-04-23_14h07.33.734,jersey_experiment_5_v0,2023.2.2,Win32,84.74576271,,,,,,,,,,,,,,,,64.7958,65.8425,65.8425,67.0425,return,0.1488,,87.109375,0,3,3,17,1,FBP-YG-17.png,0.4,1.2,18,0.25,,,,,,,,,,,,,,,,,,,,,,,,,,,,,,,,,,,,,,,,,,,,,
,,,,,SPR24_080,20,male,2024-04-23_14h07.33.734,jersey_experiment_5_v0,2023.2.2,Win32,84.74576271,,,,,,,,,,,,,,,,67.0427,68.3367,68.3368,69.3368,return,0.2355,,96.74479167,0,4,4,9,1,FBP-OG-81.png,0.45,1.2,10,0.5,,,,,,,,,,,,,,,,,,,,,,,,,,,,,,,,,,,,,,,,,,,,,
,,,,,SPR24_080,20,male,2024-04-23_14h07.33.734,jersey_experiment_5_v0,2023.2.2,Win32,84.74576271,,,,,,,,,,,,,,,,69.337,70.631,70.631,71.5605,return,0.1522,,97.00520833,0,5,5,44,1,FBP-RB-19.png,0.45,1.2,45,0.5,,,,,,,,,,,,,,,,,,,,,,,,,,,,,,,,,,,,,,,,,,,,,
,,,,,SPR24_080,20,male,2024-04-23_14h07.33.734,jersey_experiment_5_v0,2023.2.2,Win32,84.74576271,,,,,,,,,,,,,,,,71.5607,72.6076,72.6076,73.7486,return,0.1466,,95.703125,0,6,6,49,1,FBP-PT-17.png,0.45,1.2,50,0.25,,,,,,,,,,,,,,,,,,,,,,,,,,,,,,,,,,,,,,,,,,,,,
,,,,,SPR24_080,20,male,2024-04-23_14h07.33.734,jersey_experiment_5_v0,2023.2.2,Win32,84.74576271,,,,,,,,,,,,,,,,73.7488,75.043,75.043,77.0193,return,0.3618,,69.921875,0,7,7,0,1,FBP-OG-71.png,0.35,1.2,1,0.5,,,,,,,,,,,,,,,,,,,,,,,,,,,,,,,,,,,,,,,,,,,,,
,,,,,SPR24_080,20,male,2024-04-23_14h07.33.734,jersey_experiment_5_v0,2023.2.2,Win32,84.74576271,,,,,,,,,,,,,,,,77.0196,78.0665,78.0665,79.8313,return,0.9087,,99.86979167,0,8,8,24,1,FBP-YG-18.png,0.45,1.2,25,0.25,,,,,,,,,,,,,,,,,,,,,,,,,,,,,,,,,,,,,,,,,,,,,
,,,,,SPR24_080,20,male,2024-04-23_14h07.33.734,jersey_experiment_5_v0,2023.2.2,Win32,84.74576271,,,,,,,,,,,,,,,,79.8316,81.1255,81.1255,82.2197,return,0.3297,,98.30729167,0,9,9,4,1,FBP-OG-71.png,0.45,1.2,5,0.5,,,,,,,,,,,,,,,,,,,,,,,,,,,,,,,,,,,,,,,,,,,,,
,,,,,SPR24_080,20,male,2024-04-23_14h07.33.734,jersey_experiment_5_v0,2023.2.2,Win32,84.74576271,,,,,,,,,,,,,,,,82.2199,83.2667,83.2667,86.2434,return,0.84,,98.17708333,0,10,10,54,1,FBP-PT-18.png,0.45,1.2,55,0.25,,,,,,,,,,,,,,,,,,,,,,,,,,,,,,,,,,,,,,,,,,,,,
,,,,,SPR24_080,20,male,2024-04-23_14h07.33.734,jersey_experiment_5_v0,2023.2.2,Win32,84.74576271,,,,,,,,,,,,,,,,86.2435,87.2904,87.2904,89.2081,return,0.5667,,27.34375,0,11,11,26,1,FBP-YG-19.png,0.37,1.2,27,0.25,,,,,,,,,,,,,,,,,,,,,,,,,,,,,,,,,,,,,,,,,,,,,
,,,,,SPR24_080,20,male,2024-04-23_14h07.33.734,jersey_experiment_5_v0,2023.2.2,Win32,84.74576271,,,,,,,,,,,,,,,,89.2082,90.5022,90.5022,91.8316,return,0.1411,,23.046875,0,12,12,6,1,FBP-OG-81.png,0.37,1.2,7,0.5,,,,,,,,,,,,,,,,,,,,,,,,,,,,,,,,,,,,,,,,,,,,,
,,,,,SPR24_080,20,male,2024-04-23_14h07.33.734,jersey_experiment_5_v0,2023.2.2,Win32,84.74576271,,,,,,,,,,,,,,,,91.8319,92.8789,92.879,94.0671,return,0.1927,,49.21875,0,13,13,29,1,FBP-YG-19.png,0.45,1.2,30,0.25,,,,,,,,,,,,,,,,,,,,,,,,,,,,,,,,,,,,,,,,,,,,,
,,,,,SPR24_080,20,male,2024-04-23_14h07.33.734,jersey_experiment_5_v0,2023.2.2,Win32,84.74576271,,,,,,,,,,,,,,,,94.0674,95.3613,95.3613,96.7614,return,0.1892,,75,0,14,14,8,1,FBP-OG-81.png,0.43,1.2,9,0.5,,,,,,,,,,,,,,,,,,,,,,,,,,,,,,,,,,,,,,,,,,,,,
,,,,,SPR24_080,20,male,2024-04-23_14h07.33.734,jersey_experiment_5_v0,2023.2.2,Win32,84.74576271,,,,,,,,,,,,,,,,96.7615,97.8083,97.8084,99.6555,return,0.1536,,74.86979167,0,15,15,55,1,FBP-PT-19.png,0.35,1.2,56,0.25,,,,,,,,,,,,,,,,,,,,,,,,,,,,,,,,,,,,,,,,,,,,,
,,,,,SPR24_080,20,male,2024-04-23_14h07.33.734,jersey_experiment_5_v0,2023.2.2,Win32,84.74576271,,,,,,,,,,,,,,,,99.6556,100.7025,100.7026,101.9733,return,0.1906,,51.171875,0,16,16,16,1,FBP-YG-17.png,0.37,1.2,17,0.25,,,,,,,,,,,,,,,,,,,,,,,,,,,,,,,,,,,,,,,,,,,,,
,,,,,SPR24_080,20,male,2024-04-23_14h07.33.734,jersey_experiment_5_v0,2023.2.2,Win32,84.74576271,,,,,,,,,,,,,,,,101.9735,103.2673,103.2674,104.585,return,0.6022,,26.04166667,0,17,17,30,1,FBP-RB-17.png,0.35,1.2,31,0.5,,,,,,,,,,,,,,,,,,,,,,,,,,,,,,,,,,,,,,,,,,,,,
,,,,,SPR24_080,20,male,2024-04-23_14h07.33.734,jersey_experiment_5_v0,2023.2.2,Win32,84.74576271,,,,,,,,,,,,,,,,104.5852,105.6321,105.6321,106.5615,return,0.1611,,12.109375,0,18,18,20,1,FBP-YG-18.png,0.35,1.2,21,0.25,,,,,,,,,,,,,,,,,,,,,,,,,,,,,,,,,,,,,,,,,,,,,
,,,,,SPR24_080,20,male,2024-04-23_14h07.33.734,jersey_experiment_5_v0,2023.2.2,Win32,84.74576271,,,,,,,,,,,,,,,,106.5618,107.6087,107.6087,108.9145,return,0.2072,,38.28125,0,19,19,50,1,FBP-PT-18.png,0.35,1.2,51,0.25,,,,,,,,,,,,,,,,,,,,,,,,,,,,,,,,,,,,,,,,,,,,,
,,,,,SPR24_080,20,male,2024-04-23_14h07.33.734,jersey_experiment_5_v0,2023.2.2,Win32,84.74576271,,,,,,,,,,,,,,,,108.9147,109.9617,109.9617,111.0089,return,0.1857,,73.17708333,0,20,20,58,1,FBP-PT-19.png,0.43,1.2,59,0.25,,,,,,,,,,,,,,,,,,,,,,,,,,,,,,,,,,,,,,,,,,,,,
,,,,,SPR24_080,20,male,2024-04-23_14h07.33.734,jersey_experiment_5_v0,2023.2.2,Win32,84.74576271,,,,,,,,,,,,,,,,111.0091,112.303,112.303,113.703,return,0.6241,,84.50520833,0,21,21,43,1,FBP-RB-19.png,0.43,1.2,44,0.5,,,,,,,,,,,,,,,,,,,,,,,,,,,,,,,,,,,,,,,,,,,,,
,,,,,SPR24_080,20,male,2024-04-23_14h07.33.734,jersey_experiment_5_v0,2023.2.2,Win32,84.74576271,,,,,,,,,,,,,,,,113.7032,114.9973,114.9974,115.9738,return,0.1901,,57.16145833,0,22,22,2,1,FBP-OG-71.png,0.4,1.2,3,0.5,,,,,,,,,,,,,,,,,,,,,,,,,,,,,,,,,,,,,,,,,,,,,
,,,,,SPR24_080,20,male,2024-04-23_14h07.33.734,jersey_experiment_5_v0,2023.2.2,Win32,84.74576271,,,,,,,,,,,,,,,,115.974,117.2681,117.2681,118.2915,return,0.4536,,45.83333333,0,23,23,36,1,FBP-RB-18.png,0.37,1.2,37,0.5,,,,,,,,,,,,,,,,,,,,,,,,,,,,,,,,,,,,,,,,,,,,,
,,,,,SPR24_080,20,male,2024-04-23_14h07.33.734,jersey_experiment_5_v0,2023.2.2,Win32,84.74576271,,,,,,,,,,,,,,,,118.2917,119.5856,119.5856,121.4328,return,1.012,,74.34895833,0,24,24,13,1,FBP-OG-91.png,0.43,1.2,14,0.5,,,,,,,,,,,,,,,,,,,,,,,,,,,,,,,,,,,,,,,,,,,,,
,,,,,SPR24_080,20,male,2024-04-23_14h07.33.734,jersey_experiment_5_v0,2023.2.2,Win32,84.74576271,,,,,,,,,,,,,,,,121.4329,122.727,122.727,123.9386,return,0.1108,,49.609375,0,25,25,1,1,FBP-OG-71.png,0.37,1.2,2,0.5,,,,,,,,,,,,,,,,,,,,,,,,,,,,,,,,,,,,,,,,,,,,,
,,,,,SPR24_080,20,male,2024-04-23_14h07.33.734,jersey_experiment_5_v0,2023.2.2,Win32,84.74576271,,,,,,,,,,,,,,,,123.9388,125.2328,125.2328,126.2328,return,0.4001,,29.03645833,0,26,26,5,1,FBP-OG-81.png,0.35,1.2,6,0.5,,,,,,,,,,,,,,,,,,,,,,,,,,,,,,,,,,,,,,,,,,,,,
,,,,,SPR24_080,20,male,2024-04-23_14h07.33.734,jersey_experiment_5_v0,2023.2.2,Win32,84.74576271,,,,,,,,,,,,,,,,126.233,127.5273,127.5273,128.3154,return,0.165,,70.96354167,0,27,27,39,1,FBP-RB-18.png,0.45,1.2,40,0.5,,,,,,,,,,,,,,,,,,,,,,,,,,,,,,,,,,,,,,,,,,,,,
,,,,,SPR24_080,20,male,2024-04-23_14h07.33.734,jersey_experiment_5_v0,2023.2.2,Win32,84.74576271,,,,,,,,,,,,,,,,128.3155,129.6095,129.6095,130.9507,return,0.7565,,55.59895833,0,28,28,32,1,FBP-RB-17.png,0.4,1.2,33,0.5,,,,,,,,,,,,,,,,,,,,,,,,,,,,,,,,,,,,,,,,,,,,,
,,,,,SPR24_080,20,male,2024-04-23_14h07.33.734,jersey_experiment_5_v0,2023.2.2,Win32,84.74576271,,,,,,,,,,,,,,,,130.9509,132.2448,132.2448,133.233,return,0.1501,,45.57291667,0,29,29,40,1,FBP-RB-19.png,0.35,1.2,41,0.5,,,,,,,,,,,,,,,,,,,,,,,,,,,,,,,,,,,,,,,,,,,,,
,,,,,SPR24_080,20,male,2024-04-23_14h07.33.734,jersey_experiment_5_v0,2023.2.2,Win32,84.74576271,,,,,,,,,,,,,,,,133.2332,134.5271,134.5272,135.2922,return,0.1646,,64.453125,0,30,30,42,1,FBP-RB-19.png,0.4,1.2,43,0.5,,,,,,,,,,,,,,,,,,,,,,,,,,,,,,,,,,,,,,,,,,,,,
,,,,,SPR24_080,20,male,2024-04-23_14h07.33.734,jersey_experiment_5_v0,2023.2.2,Win32,84.74576271,,,,,,,,,,,,,,,,135.2924,136.3391,136.3391,137.1159,return,0.1179,,86.45833333,0,31,31,59,1,FBP-PT-19.png,0.45,1.2,60,0.25,,,,,,,,,,,,,,,,,,,,,,,,,,,,,,,,,,,,,,,,,,,,,
,,,,,SPR24_080,20,male,2024-04-23_14h07.33.734,jersey_experiment_5_v0,2023.2.2,Win32,84.74576271,,,,,,,,,,,,,,,,137.1161,138.4099,138.4099,139.41,return,0.1376,,29.94791667,0,32,32,10,1,FBP-OG-91.png,0.35,1.2,11,0.5,,,,,,,,,,,,,,,,,,,,,,,,,,,,,,,,,,,,,,,,,,,,,
,,,,,SPR24_080,20,male,2024-04-23_14h07.33.734,jersey_experiment_5_v0,2023.2.2,Win32,84.74576271,,,,,,,,,,,,,,,,139.4102,140.7039,140.7039,141.4336,return,0.1085,,49.47916667,0,33,33,12,1,FBP-OG-91.png,0.4,1.2,13,0.5,,,,,,,,,,,,,,,,,,,,,,,,,,,,,,,,,,,,,,,,,,,,,
,,,,,SPR24_080,20,male,2024-04-23_14h07.33.734,jersey_experiment_5_v0,2023.2.2,Win32,84.74576271,,,,,,,,,,,,,,,,141.4338,142.4805,142.4806,143.704,return,0.3643,,32.8125,0,34,34,45,1,FBP-PT-17.png,0.35,1.2,46,0.25,,,,,,,,,,,,,,,,,,,,,,,,,,,,,,,,,,,,,,,,,,,,,
,,,,,SPR24_080,20,male,2024-04-23_14h07.33.734,jersey_experiment_5_v0,2023.2.2,Win32,84.74576271,,,,,,,,,,,,,,,,143.7043,144.9981,144.9982,146.0218,return,0.4955,,27.60416667,0,35,35,35,1,FBP-RB-18.png,0.35,1.2,36,0.5,,,,,,,,,,,,,,,,,,,,,,,,,,,,,,,,,,,,,,,,,,,,,
,,,,,SPR24_080,20,male,2024-04-23_14h07.33.734,jersey_experiment_5_v0,2023.2.2,Win32,84.74576271,,,,,,,,,,,,,,,,146.0221,147.0688,147.0689,148.1633,return,0.1222,,56.25,0,36,36,28,1,FBP-YG-19.png,0.43,1.2,29,0.25,,,,,,,,,,,,,,,,,,,,,,,,,,,,,,,,,,,,,,,,,,,,,
,,,,,SPR24_080,20,male,2024-04-23_14h07.33.734,jersey_experiment_5_v0,2023.2.2,Win32,84.74576271,,,,,,,,,,,,,,,,148.1635,149.4575,149.4575,150.2338,return,0.1783,,68.359375,0,37,37,34,1,FBP-RB-17.png,0.45,1.2,35,0.5,,,,,,,,,,,,,,,,,,,,,,,,,,,,,,,,,,,,,,,,,,,,,
,,,,,SPR24_080,20,male,2024-04-23_14h07.33.734,jersey_experiment_5_v0,2023.2.2,Win32,84.74576271,,,,,,,,,,,,,,,,150.2341,151.2809,151.2809,152.1634,return,0.0988,,81.90104167,0,38,38,18,1,FBP-YG-17.png,0.43,1.2,19,0.25,,,,,,,,,,,,,,,,,,,,,,,,,,,,,,,,,,,,,,,,,,,,,
,,,,,SPR24_080,20,male,2024-04-23_14h07.33.734,jersey_experiment_5_v0,2023.2.2,Win32,84.74576271,,,,,,,,,,,,,,,,152.1635,153.4574,153.4574,154.1987,return,0.1539,,53.25520833,0,39,39,37,1,FBP-RB-18.png,0.4,1.2,38,0.5,,,,,,,,,,,,,,,,,,,,,,,,,,,,,,,,,,,,,,,,,,,,,
,,,,,SPR24_080,20,male,2024-04-23_14h07.33.734,jersey_experiment_5_v0,2023.2.2,Win32,84.74576271,,,,,,,,,,,,,,,,154.1988,155.4927,155.4928,156.434,return,0.5023,,60.67708333,0,40,40,38,1,FBP-RB-18.png,0.43,1.2,39,0.5,,,,,,,,,,,,,,,,,,,,,,,,,,,,,,,,,,,,,,,,,,,,,
,,,,,SPR24_080,20,male,2024-04-23_14h07.33.734,jersey_experiment_5_v0,2023.2.2,Win32,84.74576271,,,,,,,,,,,,,,,,156.4342,157.4812,157.4812,159.2224,return,0.2599,,60.28645833,0,41,41,23,1,FBP-YG-18.png,0.43,1.2,24,0.25,,,,,,,,,,,,,,,,,,,,,,,,,,,,,,,,,,,,,,,,,,,,,
,,,,,SPR24_080,20,male,2024-04-23_14h07.33.734,jersey_experiment_5_v0,2023.2.2,Win32,84.74576271,,,,,,,,,,,,,,,,159.2227,160.5166,160.5167,161.3046,return,0.1426,,74.08854167,0,42,42,14,1,FBP-OG-91.png,0.45,1.2,15,0.5,,,,,,,,,,,,,,,,,,,,,,,,,,,,,,,,,,,,,,,,,,,,,
,,,,,SPR24_080,20,male,2024-04-23_14h07.33.734,jersey_experiment_5_v0,2023.2.2,Win32,84.74576271,,,,,,,,,,,,,,,,161.3048,162.5989,162.5989,163.5637,return,0.1033,,20.18229167,0,43,43,31,1,FBP-RB-17.png,0.37,1.2,32,0.5,,,,,,,,,,,,,,,,,,,,,,,,,,,,,,,,,,,,,,,,,,,,,
,,,,,SPR24_080,20,male,2024-04-23_14h07.33.734,jersey_experiment_5_v0,2023.2.2,Win32,84.74576271,,,,,,,,,,,,,,,,163.5639,164.6108,164.6108,166.8813,return,1.0677,,78.77604167,0,44,44,19,1,FBP-YG-17.png,0.45,1.2,20,0.25,,,,,,,,,,,,,,,,,,,,,,,,,,,,,,,,,,,,,,,,,,,,,
,,,,,SPR24_080,20,male,2024-04-23_14h07.33.734,jersey_experiment_5_v0,2023.2.2,Win32,84.74576271,,,,,,,,,,,,,,,,166.8814,167.9285,167.9285,169.6109,return,0.1412,,39.71354167,0,45,45,57,1,FBP-PT-19.png,0.4,1.2,58,0.25,,,,,,,,,,,,,,,,,,,,,,,,,,,,,,,,,,,,,,,,,,,,,
,,,,,SPR24_080,20,male,2024-04-23_14h07.33.734,jersey_experiment_5_v0,2023.2.2,Win32,84.74576271,,,,,,,,,,,,,,,,169.6112,170.6581,170.6582,171.5052,return,0.1149,,62.63020833,0,46,46,53,1,FBP-PT-18.png,0.43,1.2,54,0.25,,,,,,,,,,,,,,,,,,,,,,,,,,,,,,,,,,,,,,,,,,,,,
,,,,,SPR24_080,20,male,2024-04-23_14h07.33.734,jersey_experiment_5_v0,2023.2.2,Win32,84.74576271,,,,,,,,,,,,,,,,171.5055,172.7993,172.7993,173.7994,return,0.2,,66.796875,0,47,47,33,1,FBP-RB-17.png,0.43,1.2,34,0.5,,,,,,,,,,,,,,,,,,,,,,,,,,,,,,,,,,,,,,,,,,,,,
,,,,,SPR24_080,20,male,2024-04-23_14h07.33.734,jersey_experiment_5_v0,2023.2.2,Win32,84.74576271,,,,,,,,,,,,,,,,173.7995,174.8464,174.8464,175.5876,return,0.1334,,53.25520833,0,48,48,51,1,FBP-PT-18.png,0.37,1.2,52,0.25,,,,,,,,,,,,,,,,,,,,,,,,,,,,,,,,,,,,,,,,,,,,,
,,,,,SPR24_080,20,male,2024-04-23_14h07.33.734,jersey_experiment_5_v0,2023.2.2,Win32,84.74576271,,,,,,,,,,,,,,,,175.5879,176.6348,176.6348,178.6582,return,0.7112,,53.25520833,0,49,49,27,1,FBP-YG-19.png,0.4,1.2,28,0.25,,,,,,,,,,,,,,,,,,,,,,,,,,,,,,,,,,,,,,,,,,,,,
,,,,,SPR24_080,20,male,2024-04-23_14h07.33.734,jersey_experiment_5_v0,2023.2.2,Win32,84.74576271,,,,,,,,,,,,,,,,178.6585,179.9527,179.9527,180.5877,return,0.141,,42.70833333,0,50,50,11,1,FBP-OG-91.png,0.37,1.2,12,0.5,,,,,,,,,,,,,,,,,,,,,,,,,,,,,,,,,,,,,,,,,,,,,
,,,,,SPR24_080,20,male,2024-04-23_14h07.33.734,jersey_experiment_5_v0,2023.2.2,Win32,84.74576271,,,,,,,,,,,,,,,,180.5879,181.6349,181.6349,182.635,return,0.0948,,61.71875,0,51,51,48,1,FBP-PT-17.png,0.43,1.2,49,0.25,,,,,,,,,,,,,,,,,,,,,,,,,,,,,,,,,,,,,,,,,,,,,
,,,,,SPR24_080,20,male,2024-04-23_14h07.33.734,jersey_experiment_5_v0,2023.2.2,Win32,84.74576271,,,,,,,,,,,,,,,,182.6352,183.9291,183.9291,185.541,return,0.1461,,62.76041667,0,52,52,3,1,FBP-OG-71.png,0.43,1.2,4,0.5,,,,,,,,,,,,,,,,,,,,,,,,,,,,,,,,,,,,,,,,,,,,,
,,,,,SPR24_080,20,male,2024-04-23_14h07.33.734,jersey_experiment_5_v0,2023.2.2,Win32,84.74576271,,,,,,,,,,,,,,,,185.5412,186.835,186.835,187.9881,return,0.1004,,62.23958333,0,53,53,7,1,FBP-OG-81.png,0.4,1.2,8,0.5,,,,,,,,,,,,,,,,,,,,,,,,,,,,,,,,,,,,,,,,,,,,,
,,,,,SPR24_080,20,male,2024-04-23_14h07.33.734,jersey_experiment_5_v0,2023.2.2,Win32,84.74576271,,,,,,,,,,,,,,,,187.9883,189.035,189.0352,190.294,return,0.498,,48.17708333,0,54,54,46,1,FBP-PT-17.png,0.37,1.2,47,0.25,,,,,,,,,,,,,,,,,,,,,,,,,,,,,,,,,,,,,,,,,,,,,
,,,,,SPR24_080,20,male,2024-04-23_14h07.33.734,jersey_experiment_5_v0,2023.2.2,Win32,84.74576271,,,,,,,,,,,,,,,,190.2942,191.341,191.341,192.1058,return,0.1739,,37.109375,0,55,55,52,1,FBP-PT-18.png,0.4,1.2,53,0.25,,,,,,,,,,,,,,,,,,,,,,,,,,,,,,,,,,,,,,,,,,,,,
,,,,,SPR24_080,20,male,2024-04-23_14h07.33.734,jersey_experiment_5_v0,2023.2.2,Win32,84.74576271,,,,,,,,,,,,,,,,192.106,193.153,193.1531,194.0352,return,0.1239,,23.95833333,0,56,56,25,1,FBP-YG-19.png,0.35,1.2,26,0.25,,,,,,,,,,,,,,,,,,,,,,,,,,,,,,,,,,,,,,,,,,,,,
,,,,,SPR24_080,20,male,2024-04-23_14h07.33.734,jersey_experiment_5_v0,2023.2.2,Win32,84.74576271,,,,,,,,,,,,,,,,194.0355,195.3296,195.3296,195.8589,return,0.0894,,18.359375,0,57,57,41,1,FBP-RB-19.png,0.37,1.2,42,0.5,,,,,,,,,,,,,,,,,,,,,,,,,,,,,,,,,,,,,,,,,,,,,
,,,,,SPR24_080,20,male,2024-04-23_14h07.33.734,jersey_experiment_5_v0,2023.2.2,Win32,84.74576271,,,,,,,,,,,,,,,,195.8591,196.9061,196.9061,197.5296,return,0.1087,,11.84895833,0,58,58,15,1,FBP-YG-17.png,0.35,1.2,16,0.25,,,,,,,,,,,,,,,,,,,,,,,,,,,,,,,,,,,,,,,,,,,,,
,,,,,SPR24_080,20,male,2024-04-23_14h07.33.734,jersey_experiment_5_v0,2023.2.2,Win32,84.74576271,,,,,,,,,,,,,,,,197.5297,198.5766,198.5767,199.8826,return,0.4705,,42.44791667,0,59,59,47,1,FBP-PT-17.png,0.4,1.2,48,0.25,,,,,,,,,,,,,,,,,,,,,,,,,,,,,,,,,,,,,,,,,,,,,
,,,,,SPR24_080,20,male,2024-04-23_14h07.33.734,jersey_experiment_5_v0,2023.2.2,Win32,84.74576271,,,,,,,,,,,,,,,,199.8845,201.1768,201.1768,201.8943,return,0.1306,,70.05208333,,,,,,FBP-RB-71.png,0.43,1.2,34,0.5,0,0,0,33,1,,,,,,,,,,,,,,,,,,,,,,,,,,,,,,,,,,,,,,,,
,,,,,SPR24_080,20,male,2024-04-23_14h07.33.734,jersey_experiment_5_v0,2023.2.2,Win32,84.74576271,,,,,,,,,,,,,,,,201.8947,203.1885,203.1885,203.9769,return,0.0848,,87.63020833,,,,,,FBP-RB-91.png,0.45,1.2,45,0.5,0,1,1,44,1,,,,,,,,,,,,,,,,,,,,,,,,,,,,,,,,,,,,,,,,
,,,,,SPR24_080,20,male,2024-04-23_14h07.33.734,jersey_experiment_5_v0,2023.2.2,Win32,84.74576271,,,,,,,,,,,,,,,,203.9771,205.0238,205.0238,205.9769,return,0.1321,,57.55208333,,,,,,FBP-PT-91.png,0.4,1.2,58,0.25,0,2,2,57,1,,,,,,,,,,,,,,,,,,,,,,,,,,,,,,,,,,,,,,,,
,,,,,SPR24_080,20,male,2024-04-23_14h07.33.734,jersey_experiment_5_v0,2023.2.2,Win32,84.74576271,,,,,,,,,,,,,,,,205.9771,207.0239,207.024,208.4358,return,0.1334,,58.07291667,,,,,,FBP-YG-91.png,0.4,1.2,28,0.25,0,3,3,27,1,,,,,,,,,,,,,,,,,,,,,,,,,,,,,,,,,,,,,,,,
,,,,,SPR24_080,20,male,2024-04-23_14h07.33.734,jersey_experiment_5_v0,2023.2.2,Win32,84.74576271,,,,,,,,,,,,,,,,208.436,209.73,209.73,210.2124,return,0.0738,,66.796875,,,,,,FBP-OG-17.png,0.43,1.2,4,0.5,0,4,4,3,1,,,,,,,,,,,,,,,,,,,,,,,,,,,,,,,,,,,,,,,,
,,,,,SPR24_080,20,male,2024-04-23_14h07.33.734,jersey_experiment_5_v0,2023.2.2,Win32,84.74576271,,,,,,,,,,,,,,,,210.2126,211.2594,211.2595,212.083,return,0.1479,,46.35416667,,,,,,FBP-PT-71.png,0.35,1.2,46,0.25,0,5,5,45,1,,,,,,,,,,,,,,,,,,,,,,,,,,,,,,,,,,,,,,,,
,,,,,SPR24_080,20,male,2024-04-23_14h07.33.734,jersey_experiment_5_v0,2023.2.2,Win32,84.74576271,,,,,,,,,,,,,,,,212.0831,213.1301,213.1302,213.9066,return,0.0662,,61.58854167,,,,,,FBP-PT-71.png,0.4,1.2,48,0.25,0,6,6,47,1,,,,,,,,,,,,,,,,,,,,,,,,,,,,,,,,,,,,,,,,
,,,,,SPR24_080,20,male,2024-04-23_14h07.33.734,jersey_experiment_5_v0,2023.2.2,Win32,84.74576271,,,,,,,,,,,,,,,,213.9068,215.2009,215.201,215.8478,return,0.0584,,73.4375,,,,,,FBP-OG-19.png,0.45,1.2,15,0.5,0,7,7,14,1,,,,,,,,,,,,,,,,,,,,,,,,,,,,,,,,,,,,,,,,
,,,,,SPR24_080,20,male,2024-04-23_14h07.33.734,jersey_experiment_5_v0,2023.2.2,Win32,84.74576271,,,,,,,,,,,,,,,,215.848,217.142,217.142,218.6479,return,0.4723,,41.14583333,,,,,,FBP-OG-17.png,0.37,1.2,2,0.5,0,8,8,1,1,,,,,,,,,,,,,,,,,,,,,,,,,,,,,,,,,,,,,,,,
,,,,,SPR24_080,20,male,2024-04-23_14h07.33.734,jersey_experiment_5_v0,2023.2.2,Win32,84.74576271,,,,,,,,,,,,,,,,218.6481,219.6951,219.6951,220.4363,return,0.1232,,60.02604167,,,,,,FBP-PT-81.png,0.43,1.2,54,0.25,0,9,9,53,1,,,,,,,,,,,,,,,,,,,,,,,,,,,,,,,,,,,,,,,,
,,,,,SPR24_080,20,male,2024-04-23_14h07.33.734,jersey_experiment_5_v0,2023.2.2,Win32,84.74576271,,,,,,,,,,,,,,,,220.4365,221.4834,221.4834,222.5069,return,0.1647,,30.72916667,,,,,,FBP-PT-91.png,0.35,1.2,56,0.25,0,10,10,55,1,,,,,,,,,,,,,,,,,,,,,,,,,,,,,,,,,,,,,,,,
,,,,,SPR24_080,20,male,2024-04-23_14h07.33.734,jersey_experiment_5_v0,2023.2.2,Win32,84.74576271,,,,,,,,,,,,,,,,222.507,223.8012,223.8012,224.3421,return,0.1683,,22.78645833,,,,,,FBP-RB-91.png,0.37,1.2,42,0.5,0,11,11,41,1,,,,,,,,,,,,,,,,,,,,,,,,,,,,,,,,,,,,,,,,
,,,,,SPR24_080,20,male,2024-04-23_14h07.33.734,jersey_experiment_5_v0,2023.2.2,Win32,84.74576271,,,,,,,,,,,,,,,,224.3424,225.6365,225.6366,226.2247,return,0.0888,,66.66666667,,,,,,FBP-OG-17.png,0.45,1.2,5,0.5,0,12,12,4,1,,,,,,,,,,,,,,,,,,,,,,,,,,,,,,,,,,,,,,,,
,,,,,SPR24_080,20,male,2024-04-23_14h07.33.734,jersey_experiment_5_v0,2023.2.2,Win32,84.74576271,,,,,,,,,,,,,,,,226.2248,227.5191,227.5191,228.613,return,0.4729,,8.463541667,,,,,,FBP-RB-81.png,0.4,1.2,38,0.5,0,13,13,37,1,,,,,,,,,,,,,,,,,,,,,,,,,,,,,,,,,,,,,,,,
,,,,,SPR24_080,20,male,2024-04-23_14h07.33.734,jersey_experiment_5_v0,2023.2.2,Win32,84.74576271,,,,,,,,,,,,,,,,228.6132,229.9073,229.9073,231.0248,return,0.4421,,0,,,,,,FBP-OG-17.png,0.35,1.2,1,0.5,0,14,14,0,1,,,,,,,,,,,,,,,,,,,,,,,,,,,,,,,,,,,,,,,,
,,,,,SPR24_080,20,male,2024-04-23_14h07.33.734,jersey_experiment_5_v0,2023.2.2,Win32,84.74576271,,,,,,,,,,,,,,,,231.0251,232.0721,232.0721,232.9307,return,0.1248,,61.328125,,,,,,FBP-PT-91.png,0.43,1.2,59,0.25,0,15,15,58,1,,,,,,,,,,,,,,,,,,,,,,,,,,,,,,,,,,,,,,,,
,,,,,SPR24_080,20,male,2024-04-23_14h07.33.734,jersey_experiment_5_v0,2023.2.2,Win32,84.74576271,,,,,,,,,,,,,,,,232.931,234.225,234.2251,235.0249,return,0.1124,,10.41666667,,,,,,FBP-RB-81.png,0.35,1.2,36,0.5,0,16,16,35,1,,,,,,,,,,,,,,,,,,,,,,,,,,,,,,,,,,,,,,,,
,,,,,SPR24_080,20,male,2024-04-23_14h07.33.734,jersey_experiment_5_v0,2023.2.2,Win32,84.74576271,,,,,,,,,,,,,,,,235.0251,236.3193,236.3193,237.0839,return,0.0851,,7.8125,,,,,,FBP-RB-71.png,0.35,1.2,31,0.5,0,17,17,30,1,,,,,,,,,,,,,,,,,,,,,,,,,,,,,,,,,,,,,,,,
,,,,,SPR24_080,20,male,2024-04-23_14h07.33.734,jersey_experiment_5_v0,2023.2.2,Win32,84.74576271,,,,,,,,,,,,,,,,237.0841,238.3781,238.3781,239.4605,return,0.4966,,30.46875,,,,,,FBP-RB-71.png,0.37,1.2,32,0.5,0,18,18,31,1,,,,,,,,,,,,,,,,,,,,,,,,,,,,,,,,,,,,,,,,
,,,,,SPR24_080,20,male,2024-04-23_14h07.33.734,jersey_experiment_5_v0,2023.2.2,Win32,84.74576271,,,,,,,,,,,,,,,,239.4608,240.7545,240.7546,241.6016,return,0.1704,,40.49479167,,,,,,FBP-OG-18.png,0.37,1.2,7,0.5,0,19,19,6,1,,,,,,,,,,,,,,,,,,,,,,,,,,,,,,,,,,,,,,,,
,,,,,SPR24_080,20,male,2024-04-23_14h07.33.734,jersey_experiment_5_v0,2023.2.2,Win32,84.74576271,,,,,,,,,,,,,,,,241.6019,242.8959,242.8959,243.9783,return,0.5414,,45.44270833,,,,,,FBP-OG-17.png,0.4,1.2,3,0.5,0,20,20,2,1,,,,,,,,,,,,,,,,,,,,,,,,,,,,,,,,,,,,,,,,
,,,,,SPR24_080,20,male,2024-04-23_14h07.33.734,jersey_experiment_5_v0,2023.2.2,Win32,84.74576271,,,,,,,,,,,,,,,,243.9785,245.0253,245.0253,246.0844,return,0.1706,,41.27604167,,,,,,FBP-YG-71.png,0.37,1.2,17,0.25,0,21,21,16,1,,,,,,,,,,,,,,,,,,,,,,,,,,,,,,,,,,,,,,,,
,,,,,SPR24_080,20,male,2024-04-23_14h07.33.734,jersey_experiment_5_v0,2023.2.2,Win32,84.74576271,,,,,,,,,,,,,,,,246.0846,247.1314,247.1314,247.9313,return,0.117,,45.96354167,,,,,,FBP-YG-71.png,0.35,1.2,16,0.25,0,22,22,15,1,,,,,,,,,,,,,,,,,,,,,,,,,,,,,,,,,,,,,,,,
,,,,,SPR24_080,20,male,2024-04-23_14h07.33.734,jersey_experiment_5_v0,2023.2.2,Win32,84.74576271,,,,,,,,,,,,,,,,247.9315,248.9784,248.9785,249.7079,return,0.2354,,35.546875,,,,,,FBP-PT-81.png,0.37,1.2,52,0.25,0,23,23,51,1,,,,,,,,,,,,,,,,,,,,,,,,,,,,,,,,,,,,,,,,
,,,,,SPR24_080,20,male,2024-04-23_14h07.33.734,jersey_experiment_5_v0,2023.2.2,Win32,84.74576271,,,,,,,,,,,,,,,,249.7081,251.0021,251.0021,251.6255,return,0.1415,,58.72395833,,,,,,FBP-OG-19.png,0.43,1.2,14,0.5,0,24,24,13,1,,,,,,,,,,,,,,,,,,,,,,,,,,,,,,,,,,,,,,,,
,,,,,SPR24_080,20,male,2024-04-23_14h07.33.734,jersey_experiment_5_v0,2023.2.2,Win32,84.74576271,,,,,,,,,,,,,,,,251.6258,252.9199,252.92,253.8491,return,0.4333,,77.734375,,,,,,FBP-RB-81.png,0.45,1.2,40,0.5,0,25,25,39,1,,,,,,,,,,,,,,,,,,,,,,,,,,,,,,,,,,,,,,,,
,,,,,SPR24_080,20,male,2024-04-23_14h07.33.734,jersey_experiment_5_v0,2023.2.2,Win32,84.74576271,,,,,,,,,,,,,,,,253.8493,255.1432,255.1433,256.2022,return,0.3857,,54.16666667,,,,,,FBP-OG-19.png,0.37,1.2,12,0.5,0,26,26,11,1,,,,,,,,,,,,,,,,,,,,,,,,,,,,,,,,,,,,,,,,
,,,,,SPR24_080,20,male,2024-04-23_14h07.33.734,jersey_experiment_5_v0,2023.2.2,Win32,84.74576271,,,,,,,,,,,,,,,,256.2024,257.2493,257.2494,258.4023,return,0.5606,,38.41145833,,,,,,FBP-PT-81.png,0.35,1.2,51,0.25,0,27,27,50,1,,,,,,,,,,,,,,,,,,,,,,,,,,,,,,,,,,,,,,,,
,,,,,SPR24_080,20,male,2024-04-23_14h07.33.734,jersey_experiment_5_v0,2023.2.2,Win32,84.74576271,,,,,,,,,,,,,,,,258.4025,259.4493,259.4493,260.2259,return,0.1965,,57.68229167,,,,,,FBP-PT-81.png,0.4,1.2,53,0.25,0,28,28,52,1,,,,,,,,,,,,,,,,,,,,,,,,,,,,,,,,,,,,,,,,
,,,,,SPR24_080,20,male,2024-04-23_14h07.33.734,jersey_experiment_5_v0,2023.2.2,Win32,84.74576271,,,,,,,,,,,,,,,,260.2261,261.2731,261.2731,262.2729,return,0.3616,,50,,,,,,FBP-YG-71.png,0.4,1.2,18,0.25,0,29,29,17,1,,,,,,,,,,,,,,,,,,,,,,,,,,,,,,,,,,,,,,,,
,,,,,SPR24_080,20,male,2024-04-23_14h07.33.734,jersey_experiment_5_v0,2023.2.2,Win32,84.74576271,,,,,,,,,,,,,,,,262.2731,263.5672,263.5672,264.2025,return,0.1644,,33.07291667,,,,,,FBP-OG-19.png,0.35,1.2,11,0.5,0,30,30,10,1,,,,,,,,,,,,,,,,,,,,,,,,,,,,,,,,,,,,,,,,
,,,,,SPR24_080,20,male,2024-04-23_14h07.33.734,jersey_experiment_5_v0,2023.2.2,Win32,84.74576271,,,,,,,,,,,,,,,,264.2026,265.2496,265.2497,266.5204,return,0.4855,,67.578125,,,,,,FBP-PT-81.png,0.45,1.2,55,0.25,0,31,31,54,1,,,,,,,,,,,,,,,,,,,,,,,,,,,,,,,,,,,,,,,,
,,,,,SPR24_080,20,male,2024-04-23_14h07.33.734,jersey_experiment_5_v0,2023.2.2,Win32,84.74576271,,,,,,,,,,,,,,,,266.5206,267.5672,267.5672,268.8497,return,0.735,,29.296875,,,,,,FBP-YG-81.png,0.35,1.2,21,0.25,0,32,32,20,1,,,,,,,,,,,,,,,,,,,,,,,,,,,,,,,,,,,,,,,,
,,,,,SPR24_080,20,male,2024-04-23_14h07.33.734,jersey_experiment_5_v0,2023.2.2,Win32,84.74576271,,,,,,,,,,,,,,,,268.85,269.8967,269.8967,271.1438,return,0.5666,,35.546875,,,,,,FBP-PT-91.png,0.37,1.2,57,0.25,0,33,33,56,1,,,,,,,,,,,,,,,,,,,,,,,,,,,,,,,,,,,,,,,,
,,,,,SPR24_080,20,male,2024-04-23_14h07.33.734,jersey_experiment_5_v0,2023.2.2,Win32,84.74576271,,,,,,,,,,,,,,,,271.144,272.1911,272.1911,273.25,return,0.3962,,78.125,,,,,,FBP-PT-71.png,0.45,1.2,50,0.25,0,34,34,49,1,,,,,,,,,,,,,,,,,,,,,,,,,,,,,,,,,,,,,,,,
,,,,,SPR24_080,20,male,2024-04-23_14h07.33.734,jersey_experiment_5_v0,2023.2.2,Win32,84.74576271,,,,,,,,,,,,,,,,273.2501,274.5441,274.5441,276.2149,return,0.5891,,82.94270833,,,,,,FBP-OG-18.png,0.43,1.2,9,0.5,0,35,35,8,1,,,,,,,,,,,,,,,,,,,,,,,,,,,,,,,,,,,,,,,,
,,,,,SPR24_080,20,male,2024-04-23_14h07.33.734,jersey_experiment_5_v0,2023.2.2,Win32,84.74576271,,,,,,,,,,,,,,,,276.2151,277.5089,277.5089,278.7911,return,0.4026,,50.52083333,,,,,,FBP-RB-91.png,0.4,1.2,43,0.5,0,36,36,42,1,,,,,,,,,,,,,,,,,,,,,,,,,,,,,,,,,,,,,,,,
,,,,,SPR24_080,20,male,2024-04-23_14h07.33.734,jersey_experiment_5_v0,2023.2.2,Win32,84.74576271,,,,,,,,,,,,,,,,278.7913,280.0854,280.0855,281.6501,return,1.1256,,47.39583333,,,,,,FBP-OG-19.png,0.4,1.2,13,0.5,0,37,37,12,1,,,,,,,,,,,,,,,,,,,,,,,,,,,,,,,,,,,,,,,,
,,,,,SPR24_080,20,male,2024-04-23_14h07.33.734,jersey_experiment_5_v0,2023.2.2,Win32,84.74576271,,,,,,,,,,,,,,,,281.6504,282.6972,282.6972,284.2973,return,1.0359,,75.65104167,,,,,,FBP-PT-91.png,0.45,1.2,60,0.25,0,38,38,59,1,,,,,,,,,,,,,,,,,,,,,,,,,,,,,,,,,,,,,,,,
,,,,,SPR24_080,20,male,2024-04-23_14h07.33.734,jersey_experiment_5_v0,2023.2.2,Win32,84.74576271,,,,,,,,,,,,,,,,284.2975,285.3445,285.3446,286.2975,return,0.2219,,80.33854167,,,,,,FBP-YG-81.png,0.43,1.2,24,0.25,0,39,39,23,1,,,,,,,,,,,,,,,,,,,,,,,,,,,,,,,,,,,,,,,,
,,,,,SPR24_080,20,male,2024-04-23_14h07.33.734,jersey_experiment_5_v0,2023.2.2,Win32,84.74576271,,,,,,,,,,,,,,,,286.2977,287.3445,287.3445,288.4034,return,0.4746,,29.81770833,,,,,,FBP-YG-91.png,0.35,1.2,26,0.25,0,40,40,25,1,,,,,,,,,,,,,,,,,,,,,,,,,,,,,,,,,,,,,,,,
,,,,,SPR24_080,20,male,2024-04-23_14h07.33.734,jersey_experiment_5_v0,2023.2.2,Win32,84.74576271,,,,,,,,,,,,,,,,288.4036,289.4503,289.4504,290.8977,return,0.1229,,30.98958333,,,,,,FBP-PT-71.png,0.37,1.2,47,0.25,0,41,41,46,1,,,,,,,,,,,,,,,,,,,,,,,,,,,,,,,,,,,,,,,,
,,,,,SPR24_080,20,male,2024-04-23_14h07.33.734,jersey_experiment_5_v0,2023.2.2,Win32,84.74576271,,,,,,,,,,,,,,,,290.8978,292.192,292.192,292.9329,return,0.1786,,42.96875,,,,,,FBP-RB-71.png,0.4,1.2,33,0.5,0,42,42,32,1,,,,,,,,,,,,,,,,,,,,,,,,,,,,,,,,,,,,,,,,
,,,,,SPR24_080,20,male,2024-04-23_14h07.33.734,jersey_experiment_5_v0,2023.2.2,Win32,84.74576271,,,,,,,,,,,,,,,,292.9331,293.9801,293.9801,294.9213,return,0.1412,,65.88541667,,,,,,FBP-PT-71.png,0.43,1.2,49,0.25,0,43,43,48,1,,,,,,,,,,,,,,,,,,,,,,,,,,,,,,,,,,,,,,,,
,,,,,SPR24_080,20,male,2024-04-23_14h07.33.734,jersey_experiment_5_v0,2023.2.2,Win32,84.74576271,,,,,,,,,,,,,,,,294.9215,296.2155,296.2155,297.2389,return,0.4962,,36.45833333,,,,,,FBP-OG-18.png,0.35,1.2,6,0.5,0,44,44,5,1,,,,,,,,,,,,,,,,,,,,,,,,,,,,,,,,,,,,,,,,
,,,,,SPR24_080,20,male,2024-04-23_14h07.33.734,jersey_experiment_5_v0,2023.2.2,Win32,84.74576271,,,,,,,,,,,,,,,,297.2391,298.5332,298.5334,299.0037,return,0.127,,14.19270833,,,,,,FBP-RB-91.png,0.35,1.2,41,0.5,0,45,45,40,1,,,,,,,,,,,,,,,,,,,,,,,,,,,,,,,,,,,,,,,,
,,,,,SPR24_080,20,male,2024-04-23_14h07.33.734,jersey_experiment_5_v0,2023.2.2,Win32,84.74576271,,,,,,,,,,,,,,,,299.0038,300.0508,300.0508,300.8275,return,0.0474,,91.27604167,,,,,,FBP-YG-71.png,0.45,1.2,20,0.25,0,46,46,19,1,,,,,,,,,,,,,,,,,,,,,,,,,,,,,,,,,,,,,,,,
,,,,,SPR24_080,20,male,2024-04-23_14h07.33.734,jersey_experiment_5_v0,2023.2.2,Win32,84.74576271,,,,,,,,,,,,,,,,300.8277,301.8742,301.8743,302.8861,return,0.2241,,88.80208333,,,,,,FBP-YG-91.png,0.45,1.2,30,0.25,0,47,47,29,1,,,,,,,,,,,,,,,,,,,,,,,,,,,,,,,,,,,,,,,,
,,,,,SPR24_080,20,male,2024-04-23_14h07.33.734,jersey_experiment_5_v0,2023.2.2,Win32,84.74576271,,,,,,,,,,,,,,,,302.8864,303.9333,303.9334,305.0156,return,0.0846,,50.13020833,,,,,,FBP-YG-81.png,0.37,1.2,22,0.25,0,48,48,21,1,,,,,,,,,,,,,,,,,,,,,,,,,,,,,,,,,,,,,,,,
,,,,,SPR24_080,20,male,2024-04-23_14h07.33.734,jersey_experiment_5_v0,2023.2.2,Win32,84.74576271,,,,,,,,,,,,,,,,305.0159,306.0627,306.0627,307.0629,return,0.1789,,69.40104167,,,,,,FBP-YG-71.png,0.43,1.2,19,0.25,0,49,49,18,1,,,,,,,,,,,,,,,,,,,,,,,,,,,,,,,,,,,,,,,,
,,,,,SPR24_080,20,male,2024-04-23_14h07.33.734,jersey_experiment_5_v0,2023.2.2,Win32,84.74576271,,,,,,,,,,,,,,,,307.0631,308.3569,308.357,309.0039,return,0.1275,,79.6875,,,,,,FBP-RB-81.png,0.43,1.2,39,0.5,0,50,50,38,1,,,,,,,,,,,,,,,,,,,,,,,,,,,,,,,,,,,,,,,,
,,,,,SPR24_080,20,male,2024-04-23_14h07.33.734,jersey_experiment_5_v0,2023.2.2,Win32,84.74576271,,,,,,,,,,,,,,,,309.004,310.0512,310.0513,310.6981,return,0.0561,,84.24479167,,,,,,FBP-YG-81.png,0.45,1.2,25,0.25,0,51,51,24,1,,,,,,,,,,,,,,,,,,,,,,,,,,,,,,,,,,,,,,,,
,,,,,SPR24_080,20,male,2024-04-23_14h07.33.734,jersey_experiment_5_v0,2023.2.2,Win32,84.74576271,,,,,,,,,,,,,,,,310.6984,311.9923,311.9924,312.6748,return,0.054,,86.58854167,,,,,,FBP-RB-91.png,0.43,1.2,44,0.5,0,52,52,43,1,,,,,,,,,,,,,,,,,,,,,,,,,,,,,,,,,,,,,,,,
,,,,,SPR24_080,20,male,2024-04-23_14h07.33.734,jersey_experiment_5_v0,2023.2.2,Win32,84.74576271,,,,,,,,,,,,,,,,312.675,313.9689,313.9689,314.875,return,0.2733,,83.203125,,,,,,FBP-OG-18.png,0.45,1.2,10,0.5,0,53,53,9,1,,,,,,,,,,,,,,,,,,,,,,,,,,,,,,,,,,,,,,,,
,,,,,SPR24_080,20,male,2024-04-23_14h07.33.734,jersey_experiment_5_v0,2023.2.2,Win32,84.74576271,,,,,,,,,,,,,,,,314.8753,316.1692,316.1692,317.9219,return,0.7136,,81.640625,,,,,,FBP-RB-81.png,0.37,1.2,37,0.5,0,54,54,36,1,,,,,,,,,,,,,,,,,,,,,,,,,,,,,,,,,,,,,,,,
,,,,,SPR24_080,20,male,2024-04-23_14h07.33.734,jersey_experiment_5_v0,2023.2.2,Win32,84.74576271,,,,,,,,,,,,,,,,317.9222,318.9692,318.9692,320.0396,return,0.1526,,50.26041667,,,,,,FBP-YG-91.png,0.37,1.2,27,0.25,0,55,55,26,1,,,,,,,,,,,,,,,,,,,,,,,,,,,,,,,,,,,,,,,,
,,,,,SPR24_080,20,male,2024-04-23_14h07.33.734,jersey_experiment_5_v0,2023.2.2,Win32,84.74576271,,,,,,,,,,,,,,,,320.0398,321.3339,321.3339,322.5224,return,0.6594,,47.91666667,,,,,,FBP-OG-18.png,0.4,1.2,8,0.5,0,56,56,7,1,,,,,,,,,,,,,,,,,,,,,,,,,,,,,,,,,,,,,,,,
,,,,,SPR24_080,20,male,2024-04-23_14h07.33.734,jersey_experiment_5_v0,2023.2.2,Win32,84.74576271,,,,,,,,,,,,,,,,322.5225,323.5692,323.5693,324.934,return,0.5777,,67.31770833,,,,,,FBP-YG-91.png,0.43,1.2,29,0.25,0,57,57,28,1,,,,,,,,,,,,,,,,,,,,,,,,,,,,,,,,,,,,,,,,
,,,,,SPR24_080,20,male,2024-04-23_14h07.33.734,jersey_experiment_5_v0,2023.2.2,Win32,84.74576271,,,,,,,,,,,,,,,,324.9342,326.2284,326.2285,327.0753,return,0.0626,,83.59375,,,,,,FBP-RB-71.png,0.45,1.2,35,0.5,0,58,58,34,1,,,,,,,,,,,,,,,,,,,,,,,,,,,,,,,,,,,,,,,,
,,,,,SPR24_080,20,male,2024-04-23_14h07.33.734,jersey_experiment_5_v0,2023.2.2,Win32,84.74576271,,,,,,,,,,,,,,,,327.0755,328.1226,328.1226,329.2754,return,0.2025,,54.42708333,,,,,,FBP-YG-81.png,0.4,1.2,23,0.25,0,59,59,22,1,,,,,,,,,,,,,,,,,,,,,,,,,,,,,,,,,,,,,,,,
,,,,,SPR24_080,20,male,2024-04-23_14h07.33.734,jersey_experiment_5_v0,2023.2.2,Win32,84.74576271,,,,,,,,,,,,,,,,,,,,,,,,,,,,,,,,,,,,,,,329.2758,449.2682,,,,,,,,,,,,,,,,,,,,,,,,,,,,,,,,,,,,,,
,,,,,SPR24_080,20,male,2024-04-23_14h07.33.734,jersey_experiment_5_v0,2023.2.2,Win32,84.74576271,,,,,,,,,,,,,,,,,,,,,,,,,,,,,,,,,,,,,,,,,449.2682,451.0797,return,1.7989,,,,,,,,,,,,,,,,,,,,,,,,,,,,,,,,,,
,,,,,SPR24_080,20,male,2024-04-23_14h07.33.734,jersey_experiment_5_v0,2023.2.2,Win32,84.74576271,,,,,,,,,,,,,,,,451.0861,452.3856,452.3856,458.0564,return,0.1883,,38.15104167,,,,,,FBP-YG-19.png,0.35,1.2,26,0.5,,,,,,,,,,,,,0,0,0,25,1,,,,,,,,,,,,,,,,,,,,,,,,,,,,
,,,,,SPR24_080,20,male,2024-04-23_14h07.33.734,jersey_experiment_5_v0,2023.2.2,Win32,84.74576271,,,,,,,,,,,,,,,,458.0568,459.1035,459.1036,459.9154,return,0.0941,,57.8125,,,,,,FBP-OG-81.png,0.43,1.2,9,0.25,,,,,,,,,,,,,0,1,1,8,1,,,,,,,,,,,,,,,,,,,,,,,,,,,,
,,,,,SPR24_080,20,male,2024-04-23_14h07.33.734,jersey_experiment_5_v0,2023.2.2,Win32,84.74576271,,,,,,,,,,,,,,,,459.9157,460.9623,460.9624,461.7153,return,0.053,,67.05729167,,,,,,FBP-RB-18.png,0.43,1.2,39,0.25,,,,,,,,,,,,,0,2,2,38,1,,,,,,,,,,,,,,,,,,,,,,,,,,,,
,,,,,SPR24_080,20,male,2024-04-23_14h07.33.734,jersey_experiment_5_v0,2023.2.2,Win32,84.74576271,,,,,,,,,,,,,,,,461.7155,462.7624,462.7624,463.6094,return,0.1794,,77.47395833,,,,,,FBP-RB-19.png,0.45,1.2,45,0.25,,,,,,,,,,,,,0,3,3,44,1,,,,,,,,,,,,,,,,,,,,,,,,,,,,
,,,,,SPR24_080,20,male,2024-04-23_14h07.33.734,jersey_experiment_5_v0,2023.2.2,Win32,84.74576271,,,,,,,,,,,,,,,,463.6098,464.9038,464.9038,465.5156,return,0.0944,,78.25520833,,,,,,FBP-YG-18.png,0.43,1.2,24,0.5,,,,,,,,,,,,,0,4,4,23,1,,,,,,,,,,,,,,,,,,,,,,,,,,,,
,,,,,SPR24_080,20,male,2024-04-23_14h07.33.734,jersey_experiment_5_v0,2023.2.2,Win32,84.74576271,,,,,,,,,,,,,,,,465.5158,466.8096,466.8096,467.9391,return,0.4039,,50,,,,,,FBP-YG-17.png,0.35,1.2,16,0.5,,,,,,,,,,,,,0,5,5,15,1,,,,,,,,,,,,,,,,,,,,,,,,,,,,
,,,,,SPR24_080,20,male,2024-04-23_14h07.33.734,jersey_experiment_5_v0,2023.2.2,Win32,84.74576271,,,,,,,,,,,,,,,,467.9393,469.2335,469.2335,470.2804,return,0.1041,,49.34895833,,,,,,FBP-PT-19.png,0.37,1.2,57,0.5,,,,,,,,,,,,,0,6,6,56,1,,,,,,,,,,,,,,,,,,,,,,,,,,,,
,,,,,SPR24_080,20,male,2024-04-23_14h07.33.734,jersey_experiment_5_v0,2023.2.2,Win32,84.74576271,,,,,,,,,,,,,,,,470.2805,471.5745,471.5745,472.1157,return,0.062,,47.91666667,,,,,,FBP-PT-18.png,0.37,1.2,52,0.5,,,,,,,,,,,,,0,7,7,51,1,,,,,,,,,,,,,,,,,,,,,,,,,,,,
,,,,,SPR24_080,20,male,2024-04-23_14h07.33.734,jersey_experiment_5_v0,2023.2.2,Win32,84.74576271,,,,,,,,,,,,,,,,472.1159,473.4099,473.41,473.763,return,0.11,,38.54166667,,,,,,FBP-YG-17.png,0.37,1.2,17,0.5,,,,,,,,,,,,,0,8,8,16,1,,,,,,,,,,,,,,,,,,,,,,,,,,,,
,,,,,SPR24_080,20,male,2024-04-23_14h07.33.734,jersey_experiment_5_v0,2023.2.2,Win32,84.74576271,,,,,,,,,,,,,,,,473.7631,474.81,474.8101,475.7982,return,0.5089,,34.11458333,,,,,,FBP-RB-18.png,0.37,1.2,37,0.25,,,,,,,,,,,,,0,9,9,36,1,,,,,,,,,,,,,,,,,,,,,,,,,,,,
,,,,,SPR24_080,20,male,2024-04-23_14h07.33.734,jersey_experiment_5_v0,2023.2.2,Win32,84.74576271,,,,,,,,,,,,,,,,475.7985,476.8451,476.8452,478.4336,return,0.8901,,44.53125,,,,,,FBP-RB-17.png,0.4,1.2,33,0.25,,,,,,,,,,,,,0,10,10,32,1,,,,,,,,,,,,,,,,,,,,,,,,,,,,
,,,,,SPR24_080,20,male,2024-04-23_14h07.33.734,jersey_experiment_5_v0,2023.2.2,Win32,84.74576271,,,,,,,,,,,,,,,,478.4339,479.7278,479.7279,480.4689,return,0.3202,,61.84895833,,,,,,FBP-PT-18.png,0.43,1.2,54,0.5,,,,,,,,,,,,,0,11,11,53,1,,,,,,,,,,,,,,,,,,,,,,,,,,,,
,,,,,SPR24_080,20,male,2024-04-23_14h07.33.734,jersey_experiment_5_v0,2023.2.2,Win32,84.74576271,,,,,,,,,,,,,,,,480.4691,481.7631,481.7631,482.3279,return,0.0956,,64.19270833,,,,,,FBP-PT-18.png,0.4,1.2,53,0.5,,,,,,,,,,,,,0,12,12,52,1,,,,,,,,,,,,,,,,,,,,,,,,,,,,
,,,,,SPR24_080,20,male,2024-04-23_14h07.33.734,jersey_experiment_5_v0,2023.2.2,Win32,84.74576271,,,,,,,,,,,,,,,,482.3281,483.375,483.375,484.2102,return,0.1339,,51.5625,,,,,,FBP-RB-19.png,0.35,1.2,41,0.25,,,,,,,,,,,,,0,13,13,40,1,,,,,,,,,,,,,,,,,,,,,,,,,,,,
,,,,,SPR24_080,20,male,2024-04-23_14h07.33.734,jersey_experiment_5_v0,2023.2.2,Win32,84.74576271,,,,,,,,,,,,,,,,484.2104,485.5042,485.5042,486.4222,return,0.497,,48.69791667,,,,,,FBP-PT-17.png,0.35,1.2,46,0.5,,,,,,,,,,,,,0,14,14,45,1,,,,,,,,,,,,,,,,,,,,,,,,,,,,
,,,,,SPR24_080,20,male,2024-04-23_14h07.33.734,jersey_experiment_5_v0,2023.2.2,Win32,84.74576271,,,,,,,,,,,,,,,,486.4223,487.4692,487.4692,488.1867,return,0.1277,,85.80729167,,,,,,FBP-RB-18.png,0.45,1.2,40,0.25,,,,,,,,,,,,,0,15,15,39,1,,,,,,,,,,,,,,,,,,,,,,,,,,,,
,,,,,SPR24_080,20,male,2024-04-23_14h07.33.734,jersey_experiment_5_v0,2023.2.2,Win32,84.74576271,,,,,,,,,,,,,,,,488.187,489.4809,489.4809,490.1284,return,0.1484,,78.90625,,,,,,FBP-PT-19.png,0.43,1.2,59,0.5,,,,,,,,,,,,,0,16,16,58,1,,,,,,,,,,,,,,,,,,,,,,,,,,,,
,,,,,SPR24_080,20,male,2024-04-23_14h07.33.734,jersey_experiment_5_v0,2023.2.2,Win32,84.74576271,,,,,,,,,,,,,,,,490.1285,491.4223,491.4223,492.1635,return,0.2514,,87.23958333,,,,,,FBP-YG-19.png,0.43,1.2,29,0.5,,,,,,,,,,,,,0,17,17,28,1,,,,,,,,,,,,,,,,,,,,,,,,,,,,
,,,,,SPR24_080,20,male,2024-04-23_14h07.33.734,jersey_experiment_5_v0,2023.2.2,Win32,84.74576271,,,,,,,,,,,,,,,,492.1636,493.4576,493.4576,494.2105,return,0.0775,,45.57291667,,,,,,FBP-PT-19.png,0.35,1.2,56,0.5,,,,,,,,,,,,,0,18,18,55,1,,,,,,,,,,,,,,,,,,,,,,,,,,,,
,,,,,SPR24_080,20,male,2024-04-23_14h07.33.734,jersey_experiment_5_v0,2023.2.2,Win32,84.74576271,,,,,,,,,,,,,,,,494.2108,495.2579,495.2579,496.0813,return,0.1236,,52.34375,,,,,,FBP-OG-91.png,0.4,1.2,13,0.25,,,,,,,,,,,,,0,19,19,12,1,,,,,,,,,,,,,,,,,,,,,,,,,,,,
,,,,,SPR24_080,20,male,2024-04-23_14h07.33.734,jersey_experiment_5_v0,2023.2.2,Win32,84.74576271,,,,,,,,,,,,,,,,496.0816,497.3757,497.3758,497.9754,return,0.1666,,73.95833333,,,,,,FBP-PT-17.png,0.43,1.2,49,0.5,,,,,,,,,,,,,0,20,20,48,1,,,,,,,,,,,,,,,,,,,,,,,,,,,,
,,,,,SPR24_080,20,male,2024-04-23_14h07.33.734,jersey_experiment_5_v0,2023.2.2,Win32,84.74576271,,,,,,,,,,,,,,,,497.9756,499.2696,499.2696,499.9874,return,0.0274,,72.39583333,,,,,,FBP-YG-17.png,0.43,1.2,19,0.5,,,,,,,,,,,,,0,21,21,18,1,,,,,,,,,,,,,,,,,,,,,,,,,,,,
,,,,,SPR24_080,20,male,2024-04-23_14h07.33.734,jersey_experiment_5_v0,2023.2.2,Win32,84.74576271,,,,,,,,,,,,,,,,499.9876,501.0344,501.0344,502.0227,return,0.0589,,74.47916667,,,,,,FBP-RB-19.png,0.43,1.2,44,0.25,,,,,,,,,,,,,0,22,22,43,1,,,,,,,,,,,,,,,,,,,,,,,,,,,,
,,,,,SPR24_080,20,male,2024-04-23_14h07.33.734,jersey_experiment_5_v0,2023.2.2,Win32,84.74576271,,,,,,,,,,,,,,,,502.0228,503.0697,503.0698,504.0579,return,0.1419,,72.13541667,,,,,,FBP-OG-71.png,0.43,1.2,4,0.25,,,,,,,,,,,,,0,23,23,3,1,,,,,,,,,,,,,,,,,,,,,,,,,,,,
,,,,,SPR24_080,20,male,2024-04-23_14h07.33.734,jersey_experiment_5_v0,2023.2.2,Win32,84.74576271,,,,,,,,,,,,,,,,504.0582,505.3522,505.3522,506.1873,return,0.386,,55.46875,,,,,,FBP-PT-17.png,0.4,1.2,48,0.5,,,,,,,,,,,,,0,24,24,47,1,,,,,,,,,,,,,,,,,,,,,,,,,,,,
,,,,,SPR24_080,20,male,2024-04-23_14h07.33.734,jersey_experiment_5_v0,2023.2.2,Win32,84.74576271,,,,,,,,,,,,,,,,506.1875,507.2345,507.2345,507.9875,return,0.0742,,43.359375,,,,,,FBP-RB-18.png,0.35,1.2,36,0.25,,,,,,,,,,,,,0,25,25,35,1,,,,,,,,,,,,,,,,,,,,,,,,,,,,
,,,,,SPR24_080,20,male,2024-04-23_14h07.33.734,jersey_experiment_5_v0,2023.2.2,Win32,84.74576271,,,,,,,,,,,,,,,,507.9879,509.0345,509.0345,510.1289,return,0.6556,,42.1875,,,,,,FBP-OG-71.png,0.37,1.2,2,0.25,,,,,,,,,,,,,0,26,26,1,1,,,,,,,,,,,,,,,,,,,,,,,,,,,,
,,,,,SPR24_080,20,male,2024-04-23_14h07.33.734,jersey_experiment_5_v0,2023.2.2,Win32,84.74576271,,,,,,,,,,,,,,,,510.1291,511.4232,511.4232,512.6816,return,0.1414,,79.42708333,,,,,,FBP-PT-18.png,0.45,1.2,55,0.5,,,,,,,,,,,,,0,27,27,54,1,,,,,,,,,,,,,,,,,,,,,,,,,,,,
,,,,,SPR24_080,20,male,2024-04-23_14h07.33.734,jersey_experiment_5_v0,2023.2.2,Win32,84.74576271,,,,,,,,,,,,,,,,512.6818,513.7289,513.729,515.3171,return,0.6952,,43.359375,,,,,,FBP-OG-71.png,0.35,1.2,1,0.25,,,,,,,,,,,,,0,28,28,0,1,,,,,,,,,,,,,,,,,,,,,,,,,,,,
,,,,,SPR24_080,20,male,2024-04-23_14h07.33.734,jersey_experiment_5_v0,2023.2.2,Win32,84.74576271,,,,,,,,,,,,,,,,515.3174,516.3643,516.3644,517.0467,return,0.1184,,70.703125,,,,,,FBP-OG-91.png,0.45,1.2,15,0.25,,,,,,,,,,,,,0,29,29,14,1,,,,,,,,,,,,,,,,,,,,,,,,,,,,
,,,,,SPR24_080,20,male,2024-04-23_14h07.33.734,jersey_experiment_5_v0,2023.2.2,Win32,84.74576271,,,,,,,,,,,,,,,,517.047,518.0937,518.0937,519.7291,return,0.8903,,49.21875,,,,,,FBP-OG-91.png,0.37,1.2,12,0.25,,,,,,,,,,,,,0,30,30,11,1,,,,,,,,,,,,,,,,,,,,,,,,,,,,
,,,,,SPR24_080,20,male,2024-04-23_14h07.33.734,jersey_experiment_5_v0,2023.2.2,Win32,84.74576271,,,,,,,,,,,,,,,,519.7294,521.0233,521.0233,521.588,return,0.0641,,36.06770833,,,,,,FBP-YG-18.png,0.35,1.2,21,0.5,,,,,,,,,,,,,0,31,31,20,1,,,,,,,,,,,,,,,,,,,,,,,,,,,,
,,,,,SPR24_080,20,male,2024-04-23_14h07.33.734,jersey_experiment_5_v0,2023.2.2,Win32,84.74576271,,,,,,,,,,,,,,,,521.5883,522.6351,522.6351,523.6705,return,0.083,,81.51041667,,,,,,FBP-OG-81.png,0.45,1.2,10,0.25,,,,,,,,,,,,,0,32,32,9,1,,,,,,,,,,,,,,,,,,,,,,,,,,,,
,,,,,SPR24_080,20,male,2024-04-23_14h07.33.734,jersey_experiment_5_v0,2023.2.2,Win32,84.74576271,,,,,,,,,,,,,,,,523.6706,524.9648,524.9648,525.7763,return,0.0535,,80.46875,,,,,,FBP-YG-18.png,0.45,1.2,25,0.5,,,,,,,,,,,,,0,33,33,24,1,,,,,,,,,,,,,,,,,,,,,,,,,,,,
,,,,,SPR24_080,20,male,2024-04-23_14h07.33.734,jersey_experiment_5_v0,2023.2.2,Win32,84.74576271,,,,,,,,,,,,,,,,525.7765,526.8237,526.8237,528.4352,return,0.2059,,41.53645833,,,,,,FBP-OG-81.png,0.37,1.2,7,0.25,,,,,,,,,,,,,0,34,34,6,1,,,,,,,,,,,,,,,,,,,,,,,,,,,,
,,,,,SPR24_080,20,male,2024-04-23_14h07.33.734,jersey_experiment_5_v0,2023.2.2,Win32,84.74576271,,,,,,,,,,,,,,,,528.4354,529.4823,529.4823,532.059,return,1.1441,,50.52083333,,,,,,FBP-RB-17.png,0.37,1.2,32,0.25,,,,,,,,,,,,,0,35,35,31,1,,,,,,,,,,,,,,,,,,,,,,,,,,,,
,,,,,SPR24_080,20,male,2024-04-23_14h07.33.734,jersey_experiment_5_v0,2023.2.2,Win32,84.74576271,,,,,,,,,,,,,,,,532.0592,533.106,533.106,534.9532,return,0.1882,,41.53645833,,,,,,FBP-OG-81.png,0.35,1.2,6,0.25,,,,,,,,,,,,,0,36,36,5,1,,,,,,,,,,,,,,,,,,,,,,,,,,,,
,,,,,SPR24_080,20,male,2024-04-23_14h07.33.734,jersey_experiment_5_v0,2023.2.2,Win32,84.74576271,,,,,,,,,,,,,,,,534.9533,536.2475,536.2475,536.8826,return,0.122,,38.02083333,,,,,,FBP-YG-19.png,0.37,1.2,27,0.5,,,,,,,,,,,,,0,37,37,26,1,,,,,,,,,,,,,,,,,,,,,,,,,,,,
,,,,,SPR24_080,20,male,2024-04-23_14h07.33.734,jersey_experiment_5_v0,2023.2.2,Win32,84.74576271,,,,,,,,,,,,,,,,536.8828,538.1769,538.1769,539.4828,return,0.6686,,43.61979167,,,,,,FBP-PT-17.png,0.37,1.2,47,0.5,,,,,,,,,,,,,0,38,38,46,1,,,,,,,,,,,,,,,,,,,,,,,,,,,,
,,,,,SPR24_080,20,male,2024-04-23_14h07.33.734,jersey_experiment_5_v0,2023.2.2,Win32,84.74576271,,,,,,,,,,,,,,,,539.4829,540.5298,540.5298,541.4593,return,0.0998,,76.953125,,,,,,FBP-RB-17.png,0.45,1.2,35,0.25,,,,,,,,,,,,,0,39,39,34,1,,,,,,,,,,,,,,,,,,,,,,,,,,,,
,,,,,SPR24_080,20,male,2024-04-23_14h07.33.734,jersey_experiment_5_v0,2023.2.2,Win32,84.74576271,,,,,,,,,,,,,,,,541.4596,542.5065,542.5065,543.3301,return,0.0282,,74.34895833,,,,,,FBP-RB-18.png,0.4,1.2,38,0.25,,,,,,,,,,,,,0,40,40,37,1,,,,,,,,,,,,,,,,,,,,,,,,,,,,
,,,,,SPR24_080,20,male,2024-04-23_14h07.33.734,jersey_experiment_5_v0,2023.2.2,Win32,84.74576271,,,,,,,,,,,,,,,,543.3303,544.6242,544.6242,545.483,return,0.1181,,68.75,,,,,,FBP-YG-19.png,0.4,1.2,28,0.5,,,,,,,,,,,,,0,41,41,27,1,,,,,,,,,,,,,,,,,,,,,,,,,,,,
,,,,,SPR24_080,20,male,2024-04-23_14h07.33.734,jersey_experiment_5_v0,2023.2.2,Win32,84.74576271,,,,,,,,,,,,,,,,545.4831,546.5301,546.5301,547.2595,return,0.0709,,50.13020833,,,,,,FBP-RB-19.png,0.37,1.2,42,0.25,,,,,,,,,,,,,0,42,42,41,1,,,,,,,,,,,,,,,,,,,,,,,,,,,,
,,,,,SPR24_080,20,male,2024-04-23_14h07.33.734,jersey_experiment_5_v0,2023.2.2,Win32,84.74576271,,,,,,,,,,,,,,,,547.2597,548.3065,548.3066,548.9773,return,0.0999,,57.8125,,,,,,FBP-OG-91.png,0.43,1.2,14,0.25,,,,,,,,,,,,,0,43,43,13,1,,,,,,,,,,,,,,,,,,,,,,,,,,,,
,,,,,SPR24_080,20,male,2024-04-23_14h07.33.734,jersey_experiment_5_v0,2023.2.2,Win32,84.74576271,,,,,,,,,,,,,,,,548.9774,550.0241,550.0241,550.6009,return,0.0472,,72.265625,,,,,,FBP-OG-71.png,0.45,1.2,5,0.25,,,,,,,,,,,,,0,44,44,4,1,,,,,,,,,,,,,,,,,,,,,,,,,,,,
,,,,,SPR24_080,20,male,2024-04-23_14h07.33.734,jersey_experiment_5_v0,2023.2.2,Win32,84.74576271,,,,,,,,,,,,,,,,550.601,551.895,551.895,552.6008,return,0.109,,55.59895833,,,,,,FBP-YG-18.png,0.4,1.2,23,0.5,,,,,,,,,,,,,0,45,45,22,1,,,,,,,,,,,,,,,,,,,,,,,,,,,,
,,,,,SPR24_080,20,male,2024-04-23_14h07.33.734,jersey_experiment_5_v0,2023.2.2,Win32,84.74576271,,,,,,,,,,,,,,,,552.601,553.6479,553.6479,554.8834,return,0.6292,,51.43229167,,,,,,FBP-OG-71.png,0.4,1.2,3,0.25,,,,,,,,,,,,,0,46,46,2,1,,,,,,,,,,,,,,,,,,,,,,,,,,,,
,,,,,SPR24_080,20,male,2024-04-23_14h07.33.734,jersey_experiment_5_v0,2023.2.2,Win32,84.74576271,,,,,,,,,,,,,,,,554.8835,556.1777,556.1777,557.0952,return,0.3066,,81.90104167,,,,,,FBP-PT-17.png,0.45,1.2,50,0.5,,,,,,,,,,,,,0,47,47,49,1,,,,,,,,,,,,,,,,,,,,,,,,,,,,
,,,,,SPR24_080,20,male,2024-04-23_14h07.33.734,jersey_experiment_5_v0,2023.2.2,Win32,84.74576271,,,,,,,,,,,,,,,,557.0954,558.1422,558.1422,559.2246,return,0.4094,,51.953125,,,,,,FBP-OG-81.png,0.4,1.2,8,0.25,,,,,,,,,,,,,0,48,48,7,1,,,,,,,,,,,,,,,,,,,,,,,,,,,,
,,,,,SPR24_080,20,male,2024-04-23_14h07.33.734,jersey_experiment_5_v0,2023.2.2,Win32,84.74576271,,,,,,,,,,,,,,,,559.2247,560.5189,560.5189,561.1893,return,0.0719,,78.515625,,,,,,FBP-YG-19.png,0.45,1.2,30,0.5,,,,,,,,,,,,,0,49,49,29,1,,,,,,,,,,,,,,,,,,,,,,,,,,,,
,,,,,SPR24_080,20,male,2024-04-23_14h07.33.734,jersey_experiment_5_v0,2023.2.2,Win32,84.74576271,,,,,,,,,,,,,,,,561.1895,562.2366,562.2366,562.9542,return,0.0705,,21.35416667,,,,,,FBP-OG-91.png,0.35,1.2,11,0.25,,,,,,,,,,,,,0,50,50,10,1,,,,,,,,,,,,,,,,,,,,,,,,,,,,
,,,,,SPR24_080,20,male,2024-04-23_14h07.33.734,jersey_experiment_5_v0,2023.2.2,Win32,84.74576271,,,,,,,,,,,,,,,,562.9544,564.2482,564.2483,564.8013,return,0.1022,,15.75520833,,,,,,FBP-PT-18.png,0.35,1.2,51,0.5,,,,,,,,,,,,,0,51,51,50,1,,,,,,,,,,,,,,,,,,,,,,,,,,,,
,,,,,SPR24_080,20,male,2024-04-23_14h07.33.734,jersey_experiment_5_v0,2023.2.2,Win32,84.74576271,,,,,,,,,,,,,,,,564.8015,565.8484,565.8485,566.6485,return,0.0382,,36.84895833,,,,,,FBP-RB-19.png,0.4,1.2,43,0.25,,,,,,,,,,,,,0,52,52,42,1,,,,,,,,,,,,,,,,,,,,,,,,,,,,
,,,,,SPR24_080,20,male,2024-04-23_14h07.33.734,jersey_experiment_5_v0,2023.2.2,Win32,84.74576271,,,,,,,,,,,,,,,,566.6487,567.9426,567.9426,569.2837,return,0.4029,,52.34375,,,,,,FBP-YG-17.png,0.4,1.2,18,0.5,,,,,,,,,,,,,0,53,53,17,1,,,,,,,,,,,,,,,,,,,,,,,,,,,,
,,,,,SPR24_080,20,male,2024-04-23_14h07.33.734,jersey_experiment_5_v0,2023.2.2,Win32,84.74576271,,,,,,,,,,,,,,,,569.2839,570.578,570.578,571.4603,return,0.4049,,46.484375,,,,,,FBP-YG-18.png,0.37,1.2,22,0.5,,,,,,,,,,,,,0,54,54,21,1,,,,,,,,,,,,,,,,,,,,,,,,,,,,
,,,,,SPR24_080,20,male,2024-04-23_14h07.33.734,jersey_experiment_5_v0,2023.2.2,Win32,84.74576271,,,,,,,,,,,,,,,,571.4605,572.7544,572.7544,573.6839,return,0.2379,,62.23958333,,,,,,FBP-PT-19.png,0.4,1.2,58,0.5,,,,,,,,,,,,,0,55,55,57,1,,,,,,,,,,,,,,,,,,,,,,,,,,,,
,,,,,SPR24_080,20,male,2024-04-23_14h07.33.734,jersey_experiment_5_v0,2023.2.2,Win32,84.74576271,,,,,,,,,,,,,,,,573.6842,574.731,574.731,575.5311,return,0.1418,,40.10416667,,,,,,FBP-RB-17.png,0.35,1.2,31,0.25,,,,,,,,,,,,,0,56,56,30,1,,,,,,,,,,,,,,,,,,,,,,,,,,,,
,,,,,SPR24_080,20,male,2024-04-23_14h07.33.734,jersey_experiment_5_v0,2023.2.2,Win32,84.74576271,,,,,,,,,,,,,,,,575.5313,576.8253,576.8254,577.4252,return,0.0667,,72.39583333,,,,,,FBP-YG-17.png,0.45,1.2,20,0.5,,,,,,,,,,,,,0,57,57,19,1,,,,,,,,,,,,,,,,,,,,,,,,,,,,
,,,,,SPR24_080,20,male,2024-04-23_14h07.33.734,jersey_experiment_5_v0,2023.2.2,Win32,84.74576271,,,,,,,,,,,,,,,,577.4255,578.7195,578.7195,579.3783,return,0.0285,,79.55729167,,,,,,FBP-PT-19.png,0.45,1.2,60,0.5,,,,,,,,,,,,,0,58,58,59,1,,,,,,,,,,,,,,,,,,,,,,,,,,,,
,,,,,SPR24_080,20,male,2024-04-23_14h07.33.734,jersey_experiment_5_v0,2023.2.2,Win32,84.74576271,,,,,,,,,,,,,,,,579.3785,580.4253,580.4253,581.2018,return,0.0542,,80.98958333,,,,,,FBP-RB-17.png,0.43,1.2,34,0.25,,,,,,,,,,,,,0,59,59,33,1,,,,,,,,,,,,,,,,,,,,,,,,,,,,
,,,,,SPR24_080,20,male,2024-04-23_14h07.33.734,jersey_experiment_5_v0,2023.2.2,Win32,84.74576271,,,,,,,,,,,,,,,,581.2034,582.4959,582.4959,583.4136,return,0.0742,,69.66145833,,,,,,FBP-YG-71.png,0.43,1.2,19,0.5,,,,,,,,,,,,,,,,,,0,0,0,18,1,,,,,,,,,,,,,,,,,,,,,,,
,,,,,SPR24_080,20,male,2024-04-23_14h07.33.734,jersey_experiment_5_v0,2023.2.2,Win32,84.74576271,,,,,,,,,,,,,,,,583.4141,584.7078,584.7079,585.4255,return,0.09,,46.61458333,,,,,,FBP-YG-71.png,0.37,1.2,17,0.5,,,,,,,,,,,,,,,,,,0,1,1,16,1,,,,,,,,,,,,,,,,,,,,,,,
,,,,,SPR24_080,20,male,2024-04-23_14h07.33.734,jersey_experiment_5_v0,2023.2.2,Win32,84.74576271,,,,,,,,,,,,,,,,585.4258,586.7197,586.7198,587.4255,return,0.3255,,40.88541667,,,,,,FBP-PT-71.png,0.35,1.2,46,0.5,,,,,,,,,,,,,,,,,,0,2,2,45,1,,,,,,,,,,,,,,,,,,,,,,,
,,,,,SPR24_080,20,male,2024-04-23_14h07.33.734,jersey_experiment_5_v0,2023.2.2,Win32,84.74576271,,,,,,,,,,,,,,,,587.4257,588.4727,588.4727,589.6022,return,0.5584,,83.59375,,,,,,FBP-OG-19.png,0.45,1.2,15,0.25,,,,,,,,,,,,,,,,,,0,3,3,14,1,,,,,,,,,,,,,,,,,,,,,,,
,,,,,SPR24_080,20,male,2024-04-23_14h07.33.734,jersey_experiment_5_v0,2023.2.2,Win32,84.74576271,,,,,,,,,,,,,,,,589.6024,590.8962,590.8962,591.5905,return,0.0946,,41.796875,,,,,,FBP-YG-81.png,0.4,1.2,23,0.5,,,,,,,,,,,,,,,,,,0,4,4,22,1,,,,,,,,,,,,,,,,,,,,,,,
,,,,,SPR24_080,20,male,2024-04-23_14h07.33.734,jersey_experiment_5_v0,2023.2.2,Win32,84.74576271,,,,,,,,,,,,,,,,591.5908,592.8847,592.8847,593.5906,return,0.1322,,21.09375,,,,,,FBP-PT-91.png,0.35,1.2,56,0.5,,,,,,,,,,,,,,,,,,0,5,5,55,1,,,,,,,,,,,,,,,,,,,,,,,
,,,,,SPR24_080,20,male,2024-04-23_14h07.33.734,jersey_experiment_5_v0,2023.2.2,Win32,84.74576271,,,,,,,,,,,,,,,,593.5907,594.6376,594.6376,595.3319,return,0.1209,,16.015625,,,,,,FBP-RB-81.png,0.37,1.2,37,0.25,,,,,,,,,,,,,,,,,,0,6,6,36,1,,,,,,,,,,,,,,,,,,,,,,,
,,,,,SPR24_080,20,male,2024-04-23_14h07.33.734,jersey_experiment_5_v0,2023.2.2,Win32,84.74576271,,,,,,,,,,,,,,,,595.3321,596.6259,596.6259,597.285,return,0.0019,,80.859375,,,,,,FBP-PT-81.png,0.45,1.2,55,0.5,,,,,,,,,,,,,,,,,,0,7,7,54,1,,,,,,,,,,,,,,,,,,,,,,,
,,,,,SPR24_080,20,male,2024-04-23_14h07.33.734,jersey_experiment_5_v0,2023.2.2,Win32,84.74576271,,,,,,,,,,,,,,,,597.2852,598.3318,598.3319,599.0966,return,0.0381,,77.86458333,,,,,,FBP-RB-91.png,0.45,1.2,45,0.25,,,,,,,,,,,,,,,,,,0,8,8,44,1,,,,,,,,,,,,,,,,,,,,,,,
,,,,,SPR24_080,20,male,2024-04-23_14h07.33.734,jersey_experiment_5_v0,2023.2.2,Win32,84.74576271,,,,,,,,,,,,,,,,599.0968,600.1436,600.1436,601.5789,return,0.7388,,24.08854167,,,,,,FBP-OG-17.png,0.35,1.2,1,0.25,,,,,,,,,,,,,,,,,,0,9,9,0,1,,,,,,,,,,,,,,,,,,,,,,,
,,,,,SPR24_080,20,male,2024-04-23_14h07.33.734,jersey_experiment_5_v0,2023.2.2,Win32,84.74576271,,,,,,,,,,,,,,,,601.5792,602.6261,602.6262,604.0262,return,0.5417,,12.63020833,,,,,,FBP-OG-17.png,0.37,1.2,2,0.25,,,,,,,,,,,,,,,,,,0,10,10,1,1,,,,,,,,,,,,,,,,,,,,,,,
,,,,,SPR24_080,20,male,2024-04-23_14h07.33.734,jersey_experiment_5_v0,2023.2.2,Win32,84.74576271,,,,,,,,,,,,,,,,604.0264,605.3204,605.3205,606.0029,return,0.1102,,72.91666667,,,,,,FBP-PT-91.png,0.45,1.2,60,0.5,,,,,,,,,,,,,,,,,,0,11,11,59,1,,,,,,,,,,,,,,,,,,,,,,,
,,,,,SPR24_080,20,male,2024-04-23_14h07.33.734,jersey_experiment_5_v0,2023.2.2,Win32,84.74576271,,,,,,,,,,,,,,,,606.0031,607.0498,607.0498,607.9794,return,0.0469,,39.97395833,,,,,,FBP-OG-19.png,0.35,1.2,11,0.25,,,,,,,,,,,,,,,,,,0,12,12,10,1,,,,,,,,,,,,,,,,,,,,,,,
,,,,,SPR24_080,20,male,2024-04-23_14h07.33.734,jersey_experiment_5_v0,2023.2.2,Win32,84.74576271,,,,,,,,,,,,,,,,607.9796,609.2734,609.2735,610.1675,return,0.4011,,23.56770833,,,,,,FBP-PT-81.png,0.35,1.2,51,0.5,,,,,,,,,,,,,,,,,,0,13,13,50,1,,,,,,,,,,,,,,,,,,,,,,,
,,,,,SPR24_080,20,male,2024-04-23_14h07.33.734,jersey_experiment_5_v0,2023.2.2,Win32,84.74576271,,,,,,,,,,,,,,,,610.1676,611.2149,611.2149,612.403,return,0.4764,,80.078125,,,,,,FBP-RB-71.png,0.43,1.2,34,0.25,,,,,,,,,,,,,,,,,,0,14,14,33,1,,,,,,,,,,,,,,,,,,,,,,,
,,,,,SPR24_080,20,male,2024-04-23_14h07.33.734,jersey_experiment_5_v0,2023.2.2,Win32,84.74576271,,,,,,,,,,,,,,,,612.4032,613.4502,613.4502,615.6973,return,1.3586,,53.38541667,,,,,,FBP-OG-19.png,0.43,1.2,14,0.25,,,,,,,,,,,,,,,,,,0,15,15,13,1,,,,,,,,,,,,,,,,,,,,,,,
,,,,,SPR24_080,20,male,2024-04-23_14h07.33.734,jersey_experiment_5_v0,2023.2.2,Win32,84.74576271,,,,,,,,,,,,,,,,615.6974,616.7443,616.7444,617.5562,return,0.2967,,42.96875,,,,,,FBP-OG-19.png,0.37,1.2,12,0.25,,,,,,,,,,,,,,,,,,0,16,16,11,1,,,,,,,,,,,,,,,,,,,,,,,
,,,,,SPR24_080,20,male,2024-04-23_14h07.33.734,jersey_experiment_5_v0,2023.2.2,Win32,84.74576271,,,,,,,,,,,,,,,,617.5563,618.8503,618.8504,619.6503,return,0.2511,,57.421875,,,,,,FBP-PT-91.png,0.4,1.2,58,0.5,,,,,,,,,,,,,,,,,,0,17,17,57,1,,,,,,,,,,,,,,,,,,,,,,,
,,,,,SPR24_080,20,male,2024-04-23_14h07.33.734,jersey_experiment_5_v0,2023.2.2,Win32,84.74576271,,,,,,,,,,,,,,,,619.6505,620.6975,620.6975,621.9915,return,0.0849,,74.34895833,,,,,,FBP-OG-18.png,0.43,1.2,9,0.25,,,,,,,,,,,,,,,,,,0,18,18,8,1,,,,,,,,,,,,,,,,,,,,,,,
,,,,,SPR24_080,20,male,2024-04-23_14h07.33.734,jersey_experiment_5_v0,2023.2.2,Win32,84.74576271,,,,,,,,,,,,,,,,621.9917,623.0385,623.0385,624.2974,return,0.4611,,79.81770833,,,,,,FBP-OG-18.png,0.45,1.2,10,0.25,,,,,,,,,,,,,,,,,,0,19,19,9,1,,,,,,,,,,,,,,,,,,,,,,,
,,,,,SPR24_080,20,male,2024-04-23_14h07.33.734,jersey_experiment_5_v0,2023.2.2,Win32,84.74576271,,,,,,,,,,,,,,,,624.2976,625.5919,625.5919,626.4739,return,0.0706,,49.73958333,,,,,,FBP-PT-91.png,0.37,1.2,57,0.5,,,,,,,,,,,,,,,,,,0,20,20,56,1,,,,,,,,,,,,,,,,,,,,,,,
,,,,,SPR24_080,20,male,2024-04-23_14h07.33.734,jersey_experiment_5_v0,2023.2.2,Win32,84.74576271,,,,,,,,,,,,,,,,626.4741,627.7681,627.7682,629.0976,return,0.4612,,85.41666667,,,,,,FBP-YG-91.png,0.45,1.2,30,0.5,,,,,,,,,,,,,,,,,,0,21,21,29,1,,,,,,,,,,,,,,,,,,,,,,,
,,,,,SPR24_080,20,male,2024-04-23_14h07.33.734,jersey_experiment_5_v0,2023.2.2,Win32,84.74576271,,,,,,,,,,,,,,,,629.0979,630.1447,630.1447,631.9213,return,0.7959,,71.61458333,,,,,,FBP-OG-17.png,0.43,1.2,4,0.25,,,,,,,,,,,,,,,,,,0,22,22,3,1,,,,,,,,,,,,,,,,,,,,,,,
,,,,,SPR24_080,20,male,2024-04-23_14h07.33.734,jersey_experiment_5_v0,2023.2.2,Win32,84.74576271,,,,,,,,,,,,,,,,631.9215,632.9683,632.9683,633.7331,return,0.1189,,87.36979167,,,,,,FBP-RB-81.png,0.45,1.2,40,0.25,,,,,,,,,,,,,,,,,,0,23,23,39,1,,,,,,,,,,,,,,,,,,,,,,,
,,,,,SPR24_080,20,male,2024-04-23_14h07.33.734,jersey_experiment_5_v0,2023.2.2,Win32,84.74576271,,,,,,,,,,,,,,,,633.7334,634.7802,634.7802,636.0391,return,0.4375,,89.32291667,,,,,,FBP-RB-71.png,0.45,1.2,35,0.25,,,,,,,,,,,,,,,,,,0,24,24,34,1,,,,,,,,,,,,,,,,,,,,,,,
,,,,,SPR24_080,20,male,2024-04-23_14h07.33.734,jersey_experiment_5_v0,2023.2.2,Win32,84.74576271,,,,,,,,,,,,,,,,636.0393,637.0861,637.0861,638.3216,return,0.1606,,54.55729167,,,,,,FBP-OG-17.png,0.45,1.2,5,0.25,,,,,,,,,,,,,,,,,,0,25,25,4,1,,,,,,,,,,,,,,,,,,,,,,,
,,,,,SPR24_080,20,male,2024-04-23_14h07.33.734,jersey_experiment_5_v0,2023.2.2,Win32,84.74576271,,,,,,,,,,,,,,,,638.3218,639.6156,639.6157,640.6627,return,0.5671,,31.11979167,,,,,,FBP-YG-91.png,0.37,1.2,27,0.5,,,,,,,,,,,,,,,,,,0,26,26,26,1,,,,,,,,,,,,,,,,,,,,,,,
,,,,,SPR24_080,20,male,2024-04-23_14h07.33.734,jersey_experiment_5_v0,2023.2.2,Win32,84.74576271,,,,,,,,,,,,,,,,640.6629,641.9569,641.9569,643.1098,return,0.6619,,36.97916667,,,,,,FBP-PT-71.png,0.4,1.2,48,0.5,,,,,,,,,,,,,,,,,,0,27,27,47,1,,,,,,,,,,,,,,,,,,,,,,,
,,,,,SPR24_080,20,male,2024-04-23_14h07.33.734,jersey_experiment_5_v0,2023.2.2,Win32,84.74576271,,,,,,,,,,,,,,,,643.1101,644.404,644.4041,645.3218,return,0.4472,,27.08333333,,,,,,FBP-YG-81.png,0.37,1.2,22,0.5,,,,,,,,,,,,,,,,,,0,28,28,21,1,,,,,,,,,,,,,,,,,,,,,,,
,,,,,SPR24_080,20,male,2024-04-23_14h07.33.734,jersey_experiment_5_v0,2023.2.2,Win32,84.74576271,,,,,,,,,,,,,,,,645.3219,646.6161,646.6161,648.1218,return,0.3389,,53.90625,,,,,,FBP-PT-71.png,0.43,1.2,49,0.5,,,,,,,,,,,,,,,,,,0,29,29,48,1,,,,,,,,,,,,,,,,,,,,,,,
,,,,,SPR24_080,20,male,2024-04-23_14h07.33.734,jersey_experiment_5_v0,2023.2.2,Win32,84.74576271,,,,,,,,,,,,,,,,648.122,649.4161,649.4161,650.569,return,0.5646,,59.63541667,,,,,,FBP-YG-91.png,0.4,1.2,28,0.5,,,,,,,,,,,,,,,,,,0,30,30,27,1,,,,,,,,,,,,,,,,,,,,,,,
,,,,,SPR24_080,20,male,2024-04-23_14h07.33.734,jersey_experiment_5_v0,2023.2.2,Win32,84.74576271,,,,,,,,,,,,,,,,650.5692,651.8634,651.8634,653.2044,return,0.9316,,43.09895833,,,,,,FBP-PT-71.png,0.37,1.2,47,0.5,,,,,,,,,,,,,,,,,,0,31,31,46,1,,,,,,,,,,,,,,,,,,,,,,,
,,,,,SPR24_080,20,male,2024-04-23_14h07.33.734,jersey_experiment_5_v0,2023.2.2,Win32,84.74576271,,,,,,,,,,,,,,,,653.2046,654.4984,654.4985,656.0398,return,0.5415,,56.51041667,,,,,,FBP-PT-81.png,0.43,1.2,54,0.5,,,,,,,,,,,,,,,,,,0,32,32,53,1,,,,,,,,,,,,,,,,,,,,,,,
,,,,,SPR24_080,20,male,2024-04-23_14h07.33.734,jersey_experiment_5_v0,2023.2.2,Win32,84.74576271,,,,,,,,,,,,,,,,656.04,657.0868,657.0868,658.2752,return,0.1213,,50.13020833,,,,,,FBP-OG-17.png,0.4,1.2,3,0.25,,,,,,,,,,,,,,,,,,0,33,33,2,1,,,,,,,,,,,,,,,,,,,,,,,
,,,,,SPR24_080,20,male,2024-04-23_14h07.33.734,jersey_experiment_5_v0,2023.2.2,Win32,84.74576271,,,,,,,,,,,,,,,,658.2754,659.3222,659.3223,660.0046,return,0.1219,,62.109375,,,,,,FBP-RB-71.png,0.4,1.2,33,0.25,,,,,,,,,,,,,,,,,,0,34,34,32,1,,,,,,,,,,,,,,,,,,,,,,,
,,,,,SPR24_080,20,male,2024-04-23_14h07.33.734,jersey_experiment_5_v0,2023.2.2,Win32,84.74576271,,,,,,,,,,,,,,,,660.0048,661.0516,661.0517,661.8988,return,0.1649,,26.953125,,,,,,FBP-RB-91.png,0.35,1.2,41,0.25,,,,,,,,,,,,,,,,,,0,35,35,40,1,,,,,,,,,,,,,,,,,,,,,,,
,,,,,SPR24_080,20,male,2024-04-23_14h07.33.734,jersey_experiment_5_v0,2023.2.2,Win32,84.74576271,,,,,,,,,,,,,,,,661.899,663.193,663.193,663.9694,return,0.005,,74.34895833,,,,,,FBP-PT-81.png,0.4,1.2,53,0.5,,,,,,,,,,,,,,,,,,0,36,36,52,1,,,,,,,,,,,,,,,,,,,,,,,
,,,,,SPR24_080,20,male,2024-04-23_14h07.33.734,jersey_experiment_5_v0,2023.2.2,Win32,84.74576271,,,,,,,,,,,,,,,,663.9697,665.0165,665.0165,665.9106,return,0.3081,,54.55729167,,,,,,FBP-OG-18.png,0.4,1.2,8,0.25,,,,,,,,,,,,,,,,,,0,37,37,7,1,,,,,,,,,,,,,,,,,,,,,,,
,,,,,SPR24_080,20,male,2024-04-23_14h07.33.734,jersey_experiment_5_v0,2023.2.2,Win32,84.74576271,,,,,,,,,,,,,,,,665.9108,667.205,667.2051,667.8637,return,0.2128,,81.38020833,,,,,,FBP-YG-81.png,0.45,1.2,25,0.5,,,,,,,,,,,,,,,,,,0,38,38,24,1,,,,,,,,,,,,,,,,,,,,,,,
,,,,,SPR24_080,20,male,2024-04-23_14h07.33.734,jersey_experiment_5_v0,2023.2.2,Win32,84.74576271,,,,,,,,,,,,,,,,667.8639,668.9108,668.9109,669.7225,return,0.0003,,84.50520833,,,,,,FBP-RB-81.png,0.43,1.2,39,0.25,,,,,,,,,,,,,,,,,,0,39,39,38,1,,,,,,,,,,,,,,,,,,,,,,,
,,,,,SPR24_080,20,male,2024-04-23_14h07.33.734,jersey_experiment_5_v0,2023.2.2,Win32,84.74576271,,,,,,,,,,,,,,,,669.7227,670.7697,670.7697,671.8756,return,0.4171,,55.33854167,,,,,,FBP-RB-71.png,0.37,1.2,32,0.25,,,,,,,,,,,,,,,,,,0,40,40,31,1,,,,,,,,,,,,,,,,,,,,,,,
,,,,,SPR24_080,20,male,2024-04-23_14h07.33.734,jersey_experiment_5_v0,2023.2.2,Win32,84.74576271,,,,,,,,,,,,,,,,671.8758,673.17,673.17,673.7228,return,0.0567,,70.96354167,,,,,,FBP-YG-91.png,0.43,1.2,29,0.5,,,,,,,,,,,,,,,,,,0,41,41,28,1,,,,,,,,,,,,,,,,,,,,,,,
,,,,,SPR24_080,20,male,2024-04-23_14h07.33.734,jersey_experiment_5_v0,2023.2.2,Win32,84.74576271,,,,,,,,,,,,,,,,673.723,674.7698,674.7698,675.7229,return,0.071,,70.44270833,,,,,,FBP-RB-91.png,0.43,1.2,44,0.25,,,,,,,,,,,,,,,,,,0,42,42,43,1,,,,,,,,,,,,,,,,,,,,,,,
,,,,,SPR24_080,20,male,2024-04-23_14h07.33.734,jersey_experiment_5_v0,2023.2.2,Win32,84.74576271,,,,,,,,,,,,,,,,675.723,676.7698,676.7699,679.076,return,1.17,,33.72395833,,,,,,FBP-OG-18.png,0.35,1.2,6,0.25,,,,,,,,,,,,,,,,,,0,43,43,5,1,,,,,,,,,,,,,,,,,,,,,,,
,,,,,SPR24_080,20,male,2024-04-23_14h07.33.734,jersey_experiment_5_v0,2023.2.2,Win32,84.74576271,,,,,,,,,,,,,,,,679.0762,680.3701,680.3701,681.1112,return,0.1191,,24.21875,,,,,,FBP-YG-81.png,0.35,1.2,21,0.5,,,,,,,,,,,,,,,,,,0,44,44,20,1,,,,,,,,,,,,,,,,,,,,,,,
,,,,,SPR24_080,20,male,2024-04-23_14h07.33.734,jersey_experiment_5_v0,2023.2.2,Win32,84.74576271,,,,,,,,,,,,,,,,681.1113,682.1584,682.1584,682.7465,return,0.2118,,18.359375,,,,,,FBP-RB-91.png,0.37,1.2,42,0.25,,,,,,,,,,,,,,,,,,0,45,45,41,1,,,,,,,,,,,,,,,,,,,,,,,
,,,,,SPR24_080,20,male,2024-04-23_14h07.33.734,jersey_experiment_5_v0,2023.2.2,Win32,84.74576271,,,,,,,,,,,,,,,,682.7467,684.0408,684.0409,684.8174,return,0.1607,,18.88020833,,,,,,FBP-PT-81.png,0.37,1.2,52,0.5,,,,,,,,,,,,,,,,,,0,46,46,51,1,,,,,,,,,,,,,,,,,,,,,,,
,,,,,SPR24_080,20,male,2024-04-23_14h07.33.734,jersey_experiment_5_v0,2023.2.2,Win32,84.74576271,,,,,,,,,,,,,,,,684.8176,686.1114,686.1114,687.1115,return,0.0724,,56.51041667,,,,,,FBP-PT-71.png,0.45,1.2,50,0.5,,,,,,,,,,,,,,,,,,0,47,47,49,1,,,,,,,,,,,,,,,,,,,,,,,
,,,,,SPR24_080,20,male,2024-04-23_14h07.33.734,jersey_experiment_5_v0,2023.2.2,Win32,84.74576271,,,,,,,,,,,,,,,,687.1117,688.1586,688.1587,688.9233,return,0.1179,,14.453125,,,,,,FBP-RB-71.png,0.35,1.2,31,0.25,,,,,,,,,,,,,,,,,,0,48,48,30,1,,,,,,,,,,,,,,,,,,,,,,,
,,,,,SPR24_080,20,male,2024-04-23_14h07.33.734,jersey_experiment_5_v0,2023.2.2,Win32,84.74576271,,,,,,,,,,,,,,,,688.9235,690.2176,690.2176,691.2998,return,0.3672,,47.91666667,,,,,,FBP-PT-91.png,0.43,1.2,59,0.5,,,,,,,,,,,,,,,,,,0,49,49,58,1,,,,,,,,,,,,,,,,,,,,,,,
,,,,,SPR24_080,20,male,2024-04-23_14h07.33.734,jersey_experiment_5_v0,2023.2.2,Win32,84.74576271,,,,,,,,,,,,,,,,691.3,692.5941,692.5941,693.2411,return,0.109,,75.390625,,,,,,FBP-YG-71.png,0.45,1.2,20,0.5,,,,,,,,,,,,,,,,,,0,50,50,19,1,,,,,,,,,,,,,,,,,,,,,,,
,,,,,SPR24_080,20,male,2024-04-23_14h07.33.734,jersey_experiment_5_v0,2023.2.2,Win32,84.74576271,,,,,,,,,,,,,,,,693.2414,694.5353,694.5353,695.5589,return,0.3787,,21.35416667,,,,,,FBP-YG-71.png,0.35,1.2,16,0.5,,,,,,,,,,,,,,,,,,0,51,51,15,1,,,,,,,,,,,,,,,,,,,,,,,
,,,,,SPR24_080,20,male,2024-04-23_14h07.33.734,jersey_experiment_5_v0,2023.2.2,Win32,84.74576271,,,,,,,,,,,,,,,,695.559,696.6059,696.606,697.3472,return,0.0761,,31.77083333,,,,,,FBP-RB-91.png,0.4,1.2,43,0.25,,,,,,,,,,,,,,,,,,0,52,52,42,1,,,,,,,,,,,,,,,,,,,,,,,
,,,,,SPR24_080,20,male,2024-04-23_14h07.33.734,jersey_experiment_5_v0,2023.2.2,Win32,84.74576271,,,,,,,,,,,,,,,,697.3474,698.3942,698.3943,699.5709,return,0.5927,,31.25,,,,,,FBP-OG-19.png,0.4,1.2,13,0.25,,,,,,,,,,,,,,,,,,0,53,53,12,1,,,,,,,,,,,,,,,,,,,,,,,
,,,,,SPR24_080,20,male,2024-04-23_14h07.33.734,jersey_experiment_5_v0,2023.2.2,Win32,84.74576271,,,,,,,,,,,,,,,,699.5711,700.6178,700.6178,701.5942,return,0.4851,,23.56770833,,,,,,FBP-RB-81.png,0.35,1.2,36,0.25,,,,,,,,,,,,,,,,,,0,54,54,35,1,,,,,,,,,,,,,,,,,,,,,,,
,,,,,SPR24_080,20,male,2024-04-23_14h07.33.734,jersey_experiment_5_v0,2023.2.2,Win32,84.74576271,,,,,,,,,,,,,,,,701.5944,702.8884,702.8885,703.2417,return,0.1556,,12.5,,,,,,FBP-YG-91.png,0.35,1.2,26,0.5,,,,,,,,,,,,,,,,,,0,55,55,25,1,,,,,,,,,,,,,,,,,,,,,,,
,,,,,SPR24_080,20,male,2024-04-23_14h07.33.734,jersey_experiment_5_v0,2023.2.2,Win32,84.74576271,,,,,,,,,,,,,,,,703.2419,704.5356,704.5356,705.418,return,0.081,,52.60416667,,,,,,FBP-YG-81.png,0.43,1.2,24,0.5,,,,,,,,,,,,,,,,,,0,56,56,23,1,,,,,,,,,,,,,,,,,,,,,,,
,,,,,SPR24_080,20,male,2024-04-23_14h07.33.734,jersey_experiment_5_v0,2023.2.2,Win32,84.74576271,,,,,,,,,,,,,,,,705.4182,706.7121,706.7121,707.2886,return,0.1086,,53.25520833,,,,,,FBP-YG-71.png,0.4,1.2,18,0.5,,,,,,,,,,,,,,,,,,0,57,57,17,1,,,,,,,,,,,,,,,,,,,,,,,
,,,,,SPR24_080,20,male,2024-04-23_14h07.33.734,jersey_experiment_5_v0,2023.2.2,Win32,84.74576271,,,,,,,,,,,,,,,,707.2889,708.3357,708.3357,709.3474,return,0.4148,,39.58333333,,,,,,FBP-OG-18.png,0.37,1.2,7,0.25,,,,,,,,,,,,,,,,,,0,58,58,6,1,,,,,,,,,,,,,,,,,,,,,,,
,,,,,SPR24_080,20,male,2024-04-23_14h07.33.734,jersey_experiment_5_v0,2023.2.2,Win32,84.74576271,,,,,,,,,,,,,,,,709.3475,710.3946,710.3947,711.3946,return,0.4388,,44.921875,,,,,,FBP-RB-81.png,0.4,1.2,38,0.25,,,,,,,,,,,,,,,,,,0,59,59,37,1,,,,,,,,,,,,,,,,,,,,,,,
,,,,,SPR24_080,20,male,2024-04-23_14h07.33.734,jersey_experiment_5_v0,2023.2.2,Win32,84.74576271,,,,,,,,,,,,,,,,,,,,,,,,,,,,,,,,,,,,,,,,,,,,,,,,,,,,,,,,711.3951,715.195,return,3.788,,,,,,,,,,,,,,,,,,,
,,,,,SPR24_080,20,male,2024-04-23_14h07.33.734,jersey_experiment_5_v0,2023.2.2,Win32,84.74576271,,,,,,,,,,,,,,,,,,,,,,,,,,,,,,,,,,,,,,,,,,,,,,,,,,,,,,,,,,,,,715.1951,718.5362,1,2.6682,return,0.6583,,,,,,,,,,,,
,,,,,SPR24_080,20,male,2024-04-23_14h07.33.734,jersey_experiment_5_v0,2023.2.2,Win32,84.74576271,,,,,,,,,,,,,,,,,,,,,,,,,,,,,,,,,,,,,,,,,,,,,,,,,,,,,,,,,,,,,,,,,,,,718.5364,873.0643,I think the experiment is trying to figure out whether our perception of size/huskiness which could be conflated with aggression and thus influence our fear of another person is effected by race. I'm guessing there was a bunch of pictures of different sized bodies generated with white skin and the same photos then duplicated for black skin. The hypothesis would be that people would subconsciously rate player's body with black skin as bigger/huskier and thus more threatening.,right,151.8337,,,,,,
,,,,,SPR24_080,20,male,2024-04-23_14h07.33.734,jersey_experiment_5_v0,2023.2.2,Win32,84.74576271,,,,,,,,,,,,,,,,,,,,,,,,,,,,,,,,,,,,,,,,,,,,,,,,,,,,,,,,,,,,,,,,,,,,,,,,,,873.0644,875.2829,return,2.2114,