requirements.started,requirements.stopped,key_resp_3.keys,key_resp_3.rt,key_resp_3.duration,Subject ID,Age,Gender,date,expName,psychopyVersion,OS,frameRate,instructions1.started,instructions1.stopped,key_resp.keys,key_resp.rt,key_resp.duration,example.started,example.stopped,enter_2.keys,enter_2.rt,enter_2.duration,instructions2.started,instructions2.stopped,enter_3.keys,enter_3.rt,enter_3.duration,image.started,image.stopped,slider_2.started,slider_2.stopped,next.keys,next.rt,next.duration,slider.response,trial_block_1.thisRepN,trial_block_1.thisTrialN,trial_block_1.thisN,trial_block_1.thisIndex,trial_block_1.ran,Path,Width,Height,Index,Duration,trial_block_2.thisRepN,trial_block_2.thisTrialN,trial_block_2.thisN,trial_block_2.thisIndex,trial_block_2.ran,rest_break.started,rest_break.stopped,end_break.started,end_break.stopped,key_resp_5.keys,key_resp_5.rt,key_resp_5.duration,trial_block_3.thisRepN,trial_block_3.thisTrialN,trial_block_3.thisN,trial_block_3.thisIndex,trial_block_3.ran,trial_block_4.thisRepN,trial_block_4.thisTrialN,trial_block_4.thisN,trial_block_4.thisIndex,trial_block_4.ran,questions_intro.started,questions_intro.stopped,enter_12.keys,enter_12.rt,enter_12.duration,question2.started,question2.stopped,question_doingbest.response,question_doingbest.rt,enter_15.keys,enter_15.rt,enter_15.duration,pattern.started,pattern.stopped,pattern_2.text,enter_17.keys,enter_17.rt,enter_17.duration,thankyou.started,thankyou.stopped,enter_14.keys,enter_14.rt,enter_14.duration
0.0001,8.113,return,8.1008,,SPR24_007,20,Female,2024-04-05_11h15.49.249,jersey_experiment_5_v0,2023.2.2,Win32,84.74576271,,,,,,,,,,,,,,,,,,,,,,,,,,,,,,,,,,,,,,,,,,,,,,,,,,,,,,,,,,,,,,,,,,,,,,,,,,,,,,
,,,,,SPR24_007,20,Female,2024-04-05_11h15.49.249,jersey_experiment_5_v0,2023.2.2,Win32,84.74576271,8.113,15.6309,return,7.4957,,,,,,,,,,,,,,,,,,,,,,,,,,,,,,,,,,,,,,,,,,,,,,,,,,,,,,,,,,,,,,,,,,,,,,,,,,
,,,,,SPR24_007,20,Female,2024-04-05_11h15.49.249,jersey_experiment_5_v0,2023.2.2,Win32,84.74576271,,,,,,15.6311,19.4543,return,3.7831,,,,,,,,,,,,,,,,,,,,,,,,,,,,,,,,,,,,,,,,,,,,,,,,,,,,,,,,,,,,,,,,,,,,,
,,,,,SPR24_007,20,Female,2024-04-05_11h15.49.249,jersey_experiment_5_v0,2023.2.2,Win32,84.74576271,,,,,,,,,,,19.4545,40.1844,return,20.7209,,,,,,,,,,,,,,,,,,,,,,,,,,,,,,,,,,,,,,,,,,,,,,,,,,,,,,,,,,,,,,,,
,,,,,SPR24_007,20,Female,2024-04-05_11h15.49.249,jersey_experiment_5_v0,2023.2.2,Win32,84.74576271,,,,,,,,,,,,,,,,40.1911,41.2432,41.2432,59.691,return,11.6835,,43.88020833,0,0,0,50,1,FBP-PT-18.png,0.35,1.2,51,0.25,,,,,,,,,,,,,,,,,,,,,,,,,,,,,,,,,,,,,,,,,,,,,
,,,,,SPR24_007,20,Female,2024-04-05_11h15.49.249,jersey_experiment_5_v0,2023.2.2,Win32,84.74576271,,,,,,,,,,,,,,,,59.6912,60.738,60.738,68.4559,return,1.6281,,64.97395833,0,1,1,47,1,FBP-PT-17.png,0.4,1.2,48,0.25,,,,,,,,,,,,,,,,,,,,,,,,,,,,,,,,,,,,,,,,,,,,,
,,,,,SPR24_007,20,Female,2024-04-05_11h15.49.249,jersey_experiment_5_v0,2023.2.2,Win32,84.74576271,,,,,,,,,,,,,,,,68.4561,69.503,69.503,81.2564,return,2.3704,,33.46354167,0,2,2,45,1,FBP-PT-17.png,0.35,1.2,46,0.25,,,,,,,,,,,,,,,,,,,,,,,,,,,,,,,,,,,,,,,,,,,,,
,,,,,SPR24_007,20,Female,2024-04-05_11h15.49.249,jersey_experiment_5_v0,2023.2.2,Win32,84.74576271,,,,,,,,,,,,,,,,81.2566,82.5508,82.5508,93.7982,return,4.594,,53.515625,0,3,3,36,1,FBP-RB-18.png,0.37,1.2,37,0.5,,,,,,,,,,,,,,,,,,,,,,,,,,,,,,,,,,,,,,,,,,,,,
,,,,,SPR24_007,20,Female,2024-04-05_11h15.49.249,jersey_experiment_5_v0,2023.2.2,Win32,84.74576271,,,,,,,,,,,,,,,,93.7984,95.0923,95.0923,105.5515,return,1.3743,,53.64583333,0,4,4,40,1,FBP-RB-19.png,0.35,1.2,41,0.5,,,,,,,,,,,,,,,,,,,,,,,,,,,,,,,,,,,,,,,,,,,,,
,,,,,SPR24_007,20,Female,2024-04-05_11h15.49.249,jersey_experiment_5_v0,2023.2.2,Win32,84.74576271,,,,,,,,,,,,,,,,105.5517,106.8456,106.8457,115.4694,return,1.6365,,74.34895833,0,5,5,13,1,FBP-OG-91.png,0.43,1.2,14,0.5,,,,,,,,,,,,,,,,,,,,,,,,,,,,,,,,,,,,,,,,,,,,,
,,,,,SPR24_007,20,Female,2024-04-05_11h15.49.249,jersey_experiment_5_v0,2023.2.2,Win32,84.74576271,,,,,,,,,,,,,,,,115.4695,116.7637,116.7637,129.4934,return,4.4305,,65.75520833,0,6,6,42,1,FBP-RB-19.png,0.4,1.2,43,0.5,,,,,,,,,,,,,,,,,,,,,,,,,,,,,,,,,,,,,,,,,,,,,
,,,,,SPR24_007,20,Female,2024-04-05_11h15.49.249,jersey_experiment_5_v0,2023.2.2,Win32,84.74576271,,,,,,,,,,,,,,,,129.4936,130.7876,130.7876,142.6941,return,1.1119,,46.484375,0,7,7,6,1,FBP-OG-81.png,0.37,1.2,7,0.5,,,,,,,,,,,,,,,,,,,,,,,,,,,,,,,,,,,,,,,,,,,,,
,,,,,SPR24_007,20,Female,2024-04-05_11h15.49.249,jersey_experiment_5_v0,2023.2.2,Win32,84.74576271,,,,,,,,,,,,,,,,142.6943,143.9883,143.9884,148.2237,return,1.8119,,74.86979167,0,8,8,39,1,FBP-RB-18.png,0.45,1.2,40,0.5,,,,,,,,,,,,,,,,,,,,,,,,,,,,,,,,,,,,,,,,,,,,,
,,,,,SPR24_007,20,Female,2024-04-05_11h15.49.249,jersey_experiment_5_v0,2023.2.2,Win32,84.74576271,,,,,,,,,,,,,,,,148.2239,149.5178,149.5178,154.8121,return,1.5199,,66.14583333,0,9,9,2,1,FBP-OG-71.png,0.4,1.2,3,0.5,,,,,,,,,,,,,,,,,,,,,,,,,,,,,,,,,,,,,,,,,,,,,
,,,,,SPR24_007,20,Female,2024-04-05_11h15.49.249,jersey_experiment_5_v0,2023.2.2,Win32,84.74576271,,,,,,,,,,,,,,,,154.8123,155.8592,155.8593,163.883,return,1.0484,,53.77604167,0,10,10,52,1,FBP-PT-18.png,0.4,1.2,53,0.25,,,,,,,,,,,,,,,,,,,,,,,,,,,,,,,,,,,,,,,,,,,,,
,,,,,SPR24_007,20,Female,2024-04-05_11h15.49.249,jersey_experiment_5_v0,2023.2.2,Win32,84.74576271,,,,,,,,,,,,,,,,163.8832,164.9302,164.9302,169.5303,return,1.3918,,62.76041667,0,11,11,22,1,FBP-YG-18.png,0.4,1.2,23,0.25,,,,,,,,,,,,,,,,,,,,,,,,,,,,,,,,,,,,,,,,,,,,,
,,,,,SPR24_007,20,Female,2024-04-05_11h15.49.249,jersey_experiment_5_v0,2023.2.2,Win32,84.74576271,,,,,,,,,,,,,,,,169.5305,170.8244,170.8245,176.1423,return,3.4929,,80.72916667,0,12,12,44,1,FBP-RB-19.png,0.45,1.2,45,0.5,,,,,,,,,,,,,,,,,,,,,,,,,,,,,,,,,,,,,,,,,,,,,
,,,,,SPR24_007,20,Female,2024-04-05_11h15.49.249,jersey_experiment_5_v0,2023.2.2,Win32,84.74576271,,,,,,,,,,,,,,,,176.1426,177.4365,177.4365,180.8483,return,1.5627,,81.90104167,0,13,13,3,1,FBP-OG-71.png,0.43,1.2,4,0.5,,,,,,,,,,,,,,,,,,,,,,,,,,,,,,,,,,,,,,,,,,,,,
,,,,,SPR24_007,20,Female,2024-04-05_11h15.49.249,jersey_experiment_5_v0,2023.2.2,Win32,84.74576271,,,,,,,,,,,,,,,,180.8484,182.1426,182.1426,191.543,return,6.7484,,30.33854167,0,14,14,0,1,FBP-OG-71.png,0.35,1.2,1,0.5,,,,,,,,,,,,,,,,,,,,,,,,,,,,,,,,,,,,,,,,,,,,,
,,,,,SPR24_007,20,Female,2024-04-05_11h15.49.249,jersey_experiment_5_v0,2023.2.2,Win32,84.74576271,,,,,,,,,,,,,,,,191.5432,192.8372,192.8372,200.6021,return,5.7914,,33.59375,0,15,15,11,1,FBP-OG-91.png,0.37,1.2,12,0.5,,,,,,,,,,,,,,,,,,,,,,,,,,,,,,,,,,,,,,,,,,,,,
,,,,,SPR24_007,20,Female,2024-04-05_11h15.49.249,jersey_experiment_5_v0,2023.2.2,Win32,84.74576271,,,,,,,,,,,,,,,,200.6023,201.6492,201.6492,208.6141,return,4.8651,,47.265625,0,16,16,17,1,FBP-YG-17.png,0.4,1.2,18,0.25,,,,,,,,,,,,,,,,,,,,,,,,,,,,,,,,,,,,,,,,,,,,,
,,,,,SPR24_007,20,Female,2024-04-05_11h15.49.249,jersey_experiment_5_v0,2023.2.2,Win32,84.74576271,,,,,,,,,,,,,,,,208.6144,209.9082,209.9082,216.6968,return,3.8388,,54.6875,0,17,17,38,1,FBP-RB-18.png,0.43,1.2,39,0.5,,,,,,,,,,,,,,,,,,,,,,,,,,,,,,,,,,,,,,,,,,,,,
,,,,,SPR24_007,20,Female,2024-04-05_11h15.49.249,jersey_experiment_5_v0,2023.2.2,Win32,84.74576271,,,,,,,,,,,,,,,,216.697,217.7439,217.744,225.9442,return,1.3689,,38.28125,0,18,18,51,1,FBP-PT-18.png,0.37,1.2,52,0.25,,,,,,,,,,,,,,,,,,,,,,,,,,,,,,,,,,,,,,,,,,,,,
,,,,,SPR24_007,20,Female,2024-04-05_11h15.49.249,jersey_experiment_5_v0,2023.2.2,Win32,84.74576271,,,,,,,,,,,,,,,,225.9445,226.9913,226.9913,230.7679,return,1.1195,,42.578125,0,19,19,20,1,FBP-YG-18.png,0.35,1.2,21,0.25,,,,,,,,,,,,,,,,,,,,,,,,,,,,,,,,,,,,,,,,,,,,,
,,,,,SPR24_007,20,Female,2024-04-05_11h15.49.249,jersey_experiment_5_v0,2023.2.2,Win32,84.74576271,,,,,,,,,,,,,,,,230.7681,232.0622,232.0622,235.1917,return,0.8181,,55.59895833,0,20,20,32,1,FBP-RB-17.png,0.4,1.2,33,0.5,,,,,,,,,,,,,,,,,,,,,,,,,,,,,,,,,,,,,,,,,,,,,
,,,,,SPR24_007,20,Female,2024-04-05_11h15.49.249,jersey_experiment_5_v0,2023.2.2,Win32,84.74576271,,,,,,,,,,,,,,,,235.1919,236.2387,236.2387,241.7448,return,2.6452,,71.875,0,21,21,19,1,FBP-YG-17.png,0.45,1.2,20,0.25,,,,,,,,,,,,,,,,,,,,,,,,,,,,,,,,,,,,,,,,,,,,,
,,,,,SPR24_007,20,Female,2024-04-05_11h15.49.249,jersey_experiment_5_v0,2023.2.2,Win32,84.74576271,,,,,,,,,,,,,,,,241.7449,243.0391,243.0391,247.0979,return,0.8489,,79.55729167,0,22,22,9,1,FBP-OG-81.png,0.45,1.2,10,0.5,,,,,,,,,,,,,,,,,,,,,,,,,,,,,,,,,,,,,,,,,,,,,
,,,,,SPR24_007,20,Female,2024-04-05_11h15.49.249,jersey_experiment_5_v0,2023.2.2,Win32,84.74576271,,,,,,,,,,,,,,,,247.0981,248.145,248.1451,257.5807,return,3.7191,,38.671875,0,23,23,25,1,FBP-YG-19.png,0.35,1.2,26,0.25,,,,,,,,,,,,,,,,,,,,,,,,,,,,,,,,,,,,,,,,,,,,,
,,,,,SPR24_007,20,Female,2024-04-05_11h15.49.249,jersey_experiment_5_v0,2023.2.2,Win32,84.74576271,,,,,,,,,,,,,,,,257.5809,258.6278,258.6278,264.0398,return,1.0633,,71.61458333,0,24,24,23,1,FBP-YG-18.png,0.43,1.2,24,0.25,,,,,,,,,,,,,,,,,,,,,,,,,,,,,,,,,,,,,,,,,,,,,
,,,,,SPR24_007,20,Female,2024-04-05_11h15.49.249,jersey_experiment_5_v0,2023.2.2,Win32,84.74576271,,,,,,,,,,,,,,,,264.0401,265.0869,265.0869,272.8402,return,0.8181,,59.50520833,0,25,25,54,1,FBP-PT-18.png,0.45,1.2,55,0.25,,,,,,,,,,,,,,,,,,,,,,,,,,,,,,,,,,,,,,,,,,,,,
,,,,,SPR24_007,20,Female,2024-04-05_11h15.49.249,jersey_experiment_5_v0,2023.2.2,Win32,84.74576271,,,,,,,,,,,,,,,,272.8404,273.8871,273.8872,283.4054,return,0.9417,,43.22916667,0,26,26,55,1,FBP-PT-19.png,0.35,1.2,56,0.25,,,,,,,,,,,,,,,,,,,,,,,,,,,,,,,,,,,,,,,,,,,,,
,,,,,SPR24_007,20,Female,2024-04-05_11h15.49.249,jersey_experiment_5_v0,2023.2.2,Win32,84.74576271,,,,,,,,,,,,,,,,283.4056,284.4522,284.4523,287.9936,return,0.9809,,68.22916667,0,27,27,24,1,FBP-YG-18.png,0.45,1.2,25,0.25,,,,,,,,,,,,,,,,,,,,,,,,,,,,,,,,,,,,,,,,,,,,,
,,,,,SPR24_007,20,Female,2024-04-05_11h15.49.249,jersey_experiment_5_v0,2023.2.2,Win32,84.74576271,,,,,,,,,,,,,,,,287.9939,289.0407,289.0407,296.288,return,3.8462,,36.97916667,0,28,28,15,1,FBP-YG-17.png,0.35,1.2,16,0.25,,,,,,,,,,,,,,,,,,,,,,,,,,,,,,,,,,,,,,,,,,,,,
,,,,,SPR24_007,20,Female,2024-04-05_11h15.49.249,jersey_experiment_5_v0,2023.2.2,Win32,84.74576271,,,,,,,,,,,,,,,,296.2883,297.5822,297.5822,304.4296,return,2.0347,,72.13541667,0,29,29,4,1,FBP-OG-71.png,0.45,1.2,5,0.5,,,,,,,,,,,,,,,,,,,,,,,,,,,,,,,,,,,,,,,,,,,,,
,,,,,SPR24_007,20,Female,2024-04-05_11h15.49.249,jersey_experiment_5_v0,2023.2.2,Win32,84.74576271,,,,,,,,,,,,,,,,304.4298,305.4769,305.4769,308.6886,return,1.1161,,72.00520833,0,30,30,29,1,FBP-YG-19.png,0.45,1.2,30,0.25,,,,,,,,,,,,,,,,,,,,,,,,,,,,,,,,,,,,,,,,,,,,,
,,,,,SPR24_007,20,Female,2024-04-05_11h15.49.249,jersey_experiment_5_v0,2023.2.2,Win32,84.74576271,,,,,,,,,,,,,,,,308.6887,309.7357,309.7357,314.3829,return,1.8122,,83.59375,0,31,31,49,1,FBP-PT-17.png,0.45,1.2,50,0.25,,,,,,,,,,,,,,,,,,,,,,,,,,,,,,,,,,,,,,,,,,,,,
,,,,,SPR24_007,20,Female,2024-04-05_11h15.49.249,jersey_experiment_5_v0,2023.2.2,Win32,84.74576271,,,,,,,,,,,,,,,,314.383,315.6769,315.677,327.1129,return,1.2863,,77.21354167,0,32,32,34,1,FBP-RB-17.png,0.45,1.2,35,0.5,,,,,,,,,,,,,,,,,,,,,,,,,,,,,,,,,,,,,,,,,,,,,
,,,,,SPR24_007,20,Female,2024-04-05_11h15.49.249,jersey_experiment_5_v0,2023.2.2,Win32,84.74576271,,,,,,,,,,,,,,,,327.1131,328.4068,328.4069,332.3011,return,1.4121,,64.0625,0,33,33,43,1,FBP-RB-19.png,0.43,1.2,44,0.5,,,,,,,,,,,,,,,,,,,,,,,,,,,,,,,,,,,,,,,,,,,,,
,,,,,SPR24_007,20,Female,2024-04-05_11h15.49.249,jersey_experiment_5_v0,2023.2.2,Win32,84.74576271,,,,,,,,,,,,,,,,332.3014,333.3482,333.3482,339.3839,return,0.7477,,78.25520833,0,34,34,48,1,FBP-PT-17.png,0.43,1.2,49,0.25,,,,,,,,,,,,,,,,,,,,,,,,,,,,,,,,,,,,,,,,,,,,,
,,,,,SPR24_007,20,Female,2024-04-05_11h15.49.249,jersey_experiment_5_v0,2023.2.2,Win32,84.74576271,,,,,,,,,,,,,,,,339.3841,340.4308,340.4308,343.5839,return,1.1155,,85.02604167,0,35,35,53,1,FBP-PT-18.png,0.43,1.2,54,0.25,,,,,,,,,,,,,,,,,,,,,,,,,,,,,,,,,,,,,,,,,,,,,
,,,,,SPR24_007,20,Female,2024-04-05_11h15.49.249,jersey_experiment_5_v0,2023.2.2,Win32,84.74576271,,,,,,,,,,,,,,,,343.5841,344.6311,344.6311,347.1605,return,0.7455,,83.85416667,0,36,36,18,1,FBP-YG-17.png,0.43,1.2,19,0.25,,,,,,,,,,,,,,,,,,,,,,,,,,,,,,,,,,,,,,,,,,,,,
,,,,,SPR24_007,20,Female,2024-04-05_11h15.49.249,jersey_experiment_5_v0,2023.2.2,Win32,84.74576271,,,,,,,,,,,,,,,,347.1607,348.4547,348.4547,352.7253,return,0.9016,,52.99479167,0,37,37,41,1,FBP-RB-19.png,0.37,1.2,42,0.5,,,,,,,,,,,,,,,,,,,,,,,,,,,,,,,,,,,,,,,,,,,,,
,,,,,SPR24_007,20,Female,2024-04-05_11h15.49.249,jersey_experiment_5_v0,2023.2.2,Win32,84.74576271,,,,,,,,,,,,,,,,352.7256,353.7725,353.7725,356.6551,return,0.8378,,53.77604167,0,38,38,46,1,FBP-PT-17.png,0.37,1.2,47,0.25,,,,,,,,,,,,,,,,,,,,,,,,,,,,,,,,,,,,,,,,,,,,,
,,,,,SPR24_007,20,Female,2024-04-05_11h15.49.249,jersey_experiment_5_v0,2023.2.2,Win32,84.74576271,,,,,,,,,,,,,,,,356.6553,357.9492,357.9493,366.0554,return,3.4293,,57.55208333,0,39,39,31,1,FBP-RB-17.png,0.37,1.2,32,0.5,,,,,,,,,,,,,,,,,,,,,,,,,,,,,,,,,,,,,,,,,,,,,
,,,,,SPR24_007,20,Female,2024-04-05_11h15.49.249,jersey_experiment_5_v0,2023.2.2,Win32,84.74576271,,,,,,,,,,,,,,,,366.0556,367.3496,367.3496,374.7732,return,0.9617,,70.96354167,0,40,40,14,1,FBP-OG-91.png,0.45,1.2,15,0.5,,,,,,,,,,,,,,,,,,,,,,,,,,,,,,,,,,,,,,,,,,,,,
,,,,,SPR24_007,20,Female,2024-04-05_11h15.49.249,jersey_experiment_5_v0,2023.2.2,Win32,84.74576271,,,,,,,,,,,,,,,,374.7736,376.0676,376.0677,379.3501,return,0.7375,,49.86979167,0,41,41,12,1,FBP-OG-91.png,0.4,1.2,13,0.5,,,,,,,,,,,,,,,,,,,,,,,,,,,,,,,,,,,,,,,,,,,,,
,,,,,SPR24_007,20,Female,2024-04-05_11h15.49.249,jersey_experiment_5_v0,2023.2.2,Win32,84.74576271,,,,,,,,,,,,,,,,379.3503,380.3972,380.3972,383.4676,return,0.6711,,50.13020833,0,42,42,21,1,FBP-YG-18.png,0.37,1.2,22,0.25,,,,,,,,,,,,,,,,,,,,,,,,,,,,,,,,,,,,,,,,,,,,,
,,,,,SPR24_007,20,Female,2024-04-05_11h15.49.249,jersey_experiment_5_v0,2023.2.2,Win32,84.74576271,,,,,,,,,,,,,,,,383.4679,384.515,384.515,391.6916,return,4.4247,,39.32291667,0,43,43,57,1,FBP-PT-19.png,0.4,1.2,58,0.25,,,,,,,,,,,,,,,,,,,,,,,,,,,,,,,,,,,,,,,,,,,,,
,,,,,SPR24_007,20,Female,2024-04-05_11h15.49.249,jersey_experiment_5_v0,2023.2.2,Win32,84.74576271,,,,,,,,,,,,,,,,391.6919,392.7387,392.7387,396.0566,return,1.1221,,39.32291667,0,44,44,56,1,FBP-PT-19.png,0.37,1.2,57,0.25,,,,,,,,,,,,,,,,,,,,,,,,,,,,,,,,,,,,,,,,,,,,,
,,,,,SPR24_007,20,Female,2024-04-05_11h15.49.249,jersey_experiment_5_v0,2023.2.2,Win32,84.74576271,,,,,,,,,,,,,,,,396.0567,397.3506,397.3506,401.0332,return,1.1228,,40.88541667,0,45,45,35,1,FBP-RB-18.png,0.35,1.2,36,0.5,,,,,,,,,,,,,,,,,,,,,,,,,,,,,,,,,,,,,,,,,,,,,
,,,,,SPR24_007,20,Female,2024-04-05_11h15.49.249,jersey_experiment_5_v0,2023.2.2,Win32,84.74576271,,,,,,,,,,,,,,,,401.0334,402.3272,402.3273,406.4805,return,1.3647,,41.015625,0,46,46,1,1,FBP-OG-71.png,0.37,1.2,2,0.5,,,,,,,,,,,,,,,,,,,,,,,,,,,,,,,,,,,,,,,,,,,,,
,,,,,SPR24_007,20,Female,2024-04-05_11h15.49.249,jersey_experiment_5_v0,2023.2.2,Win32,84.74576271,,,,,,,,,,,,,,,,406.4806,407.7745,407.7746,411.2217,return,0.7356,,44.01041667,0,47,47,30,1,FBP-RB-17.png,0.35,1.2,31,0.5,,,,,,,,,,,,,,,,,,,,,,,,,,,,,,,,,,,,,,,,,,,,,
,,,,,SPR24_007,20,Female,2024-04-05_11h15.49.249,jersey_experiment_5_v0,2023.2.2,Win32,84.74576271,,,,,,,,,,,,,,,,411.222,412.2688,412.2689,415.4338,return,1.6262,,70.3125,0,48,48,28,1,FBP-YG-19.png,0.43,1.2,29,0.25,,,,,,,,,,,,,,,,,,,,,,,,,,,,,,,,,,,,,,,,,,,,,
,,,,,SPR24_007,20,Female,2024-04-05_11h15.49.249,jersey_experiment_5_v0,2023.2.2,Win32,84.74576271,,,,,,,,,,,,,,,,415.434,416.7278,416.7279,419.175,return,0.9365,,50.390625,0,49,49,5,1,FBP-OG-81.png,0.35,1.2,6,0.5,,,,,,,,,,,,,,,,,,,,,,,,,,,,,,,,,,,,,,,,,,,,,
,,,,,SPR24_007,20,Female,2024-04-05_11h15.49.249,jersey_experiment_5_v0,2023.2.2,Win32,84.74576271,,,,,,,,,,,,,,,,419.1752,420.4693,420.4693,423.1047,return,0.7765,,43.09895833,0,50,50,10,1,FBP-OG-91.png,0.35,1.2,11,0.5,,,,,,,,,,,,,,,,,,,,,,,,,,,,,,,,,,,,,,,,,,,,,
,,,,,SPR24_007,20,Female,2024-04-05_11h15.49.249,jersey_experiment_5_v0,2023.2.2,Win32,84.74576271,,,,,,,,,,,,,,,,423.105,424.3988,424.3989,426.5519,return,1.0521,,70.83333333,0,51,51,7,1,FBP-OG-81.png,0.4,1.2,8,0.5,,,,,,,,,,,,,,,,,,,,,,,,,,,,,,,,,,,,,,,,,,,,,
,,,,,SPR24_007,20,Female,2024-04-05_11h15.49.249,jersey_experiment_5_v0,2023.2.2,Win32,84.74576271,,,,,,,,,,,,,,,,426.5523,427.8459,427.8459,430.2224,return,0.7872,,95.57291667,0,52,52,8,1,FBP-OG-81.png,0.43,1.2,9,0.5,,,,,,,,,,,,,,,,,,,,,,,,,,,,,,,,,,,,,,,,,,,,,
,,,,,SPR24_007,20,Female,2024-04-05_11h15.49.249,jersey_experiment_5_v0,2023.2.2,Win32,84.74576271,,,,,,,,,,,,,,,,430.2227,431.2697,431.2697,433.6463,return,0.7306,,98.4375,0,53,53,59,1,FBP-PT-19.png,0.45,1.2,60,0.25,,,,,,,,,,,,,,,,,,,,,,,,,,,,,,,,,,,,,,,,,,,,,
,,,,,SPR24_007,20,Female,2024-04-05_11h15.49.249,jersey_experiment_5_v0,2023.2.2,Win32,84.74576271,,,,,,,,,,,,,,,,433.6465,434.6933,434.6933,438.9993,return,1.2304,,54.55729167,0,54,54,26,1,FBP-YG-19.png,0.37,1.2,27,0.25,,,,,,,,,,,,,,,,,,,,,,,,,,,,,,,,,,,,,,,,,,,,,
,,,,,SPR24_007,20,Female,2024-04-05_11h15.49.249,jersey_experiment_5_v0,2023.2.2,Win32,84.74576271,,,,,,,,,,,,,,,,438.9995,440.2934,440.2934,446.9527,return,0.7915,,66.40625,0,55,55,37,1,FBP-RB-18.png,0.4,1.2,38,0.5,,,,,,,,,,,,,,,,,,,,,,,,,,,,,,,,,,,,,,,,,,,,,
,,,,,SPR24_007,20,Female,2024-04-05_11h15.49.249,jersey_experiment_5_v0,2023.2.2,Win32,84.74576271,,,,,,,,,,,,,,,,446.9528,447.9997,447.9997,451.6587,return,0.8976,,89.71354167,0,56,56,58,1,FBP-PT-19.png,0.43,1.2,59,0.25,,,,,,,,,,,,,,,,,,,,,,,,,,,,,,,,,,,,,,,,,,,,,
,,,,,SPR24_007,20,Female,2024-04-05_11h15.49.249,jersey_experiment_5_v0,2023.2.2,Win32,84.74576271,,,,,,,,,,,,,,,,451.659,452.9529,452.9529,456.8941,return,0.9639,,96.61458333,0,57,57,33,1,FBP-RB-17.png,0.43,1.2,34,0.5,,,,,,,,,,,,,,,,,,,,,,,,,,,,,,,,,,,,,,,,,,,,,
,,,,,SPR24_007,20,Female,2024-04-05_11h15.49.249,jersey_experiment_5_v0,2023.2.2,Win32,84.74576271,,,,,,,,,,,,,,,,456.8943,457.9412,457.9412,460.8119,return,0.7648,,71.875,0,58,58,27,1,FBP-YG-19.png,0.4,1.2,28,0.25,,,,,,,,,,,,,,,,,,,,,,,,,,,,,,,,,,,,,,,,,,,,,
,,,,,SPR24_007,20,Female,2024-04-05_11h15.49.249,jersey_experiment_5_v0,2023.2.2,Win32,84.74576271,,,,,,,,,,,,,,,,460.8122,461.8589,461.8589,468.6475,return,2.9337,,59.63541667,0,59,59,16,1,FBP-YG-17.png,0.37,1.2,17,0.25,,,,,,,,,,,,,,,,,,,,,,,,,,,,,,,,,,,,,,,,,,,,,
,,,,,SPR24_007,20,Female,2024-04-05_11h15.49.249,jersey_experiment_5_v0,2023.2.2,Win32,84.74576271,,,,,,,,,,,,,,,,468.6497,469.9417,469.9417,472.9183,return,0.947,,54.81770833,,,,,,FBP-RB-81.png,0.37,1.2,37,0.5,0,0,0,36,1,,,,,,,,,,,,,,,,,,,,,,,,,,,,,,,,,,,,,,,,
,,,,,SPR24_007,20,Female,2024-04-05_11h15.49.249,jersey_experiment_5_v0,2023.2.2,Win32,84.74576271,,,,,,,,,,,,,,,,472.9187,474.2124,474.2124,477.8361,return,2.0019,,55.33854167,,,,,,FBP-RB-81.png,0.35,1.2,36,0.5,0,1,1,35,1,,,,,,,,,,,,,,,,,,,,,,,,,,,,,,,,,,,,,,,,
,,,,,SPR24_007,20,Female,2024-04-05_11h15.49.249,jersey_experiment_5_v0,2023.2.2,Win32,84.74576271,,,,,,,,,,,,,,,,477.8362,478.8831,478.8832,483.2599,return,2.271,,55.46875,,,,,,FBP-YG-71.png,0.37,1.2,17,0.25,0,2,2,16,1,,,,,,,,,,,,,,,,,,,,,,,,,,,,,,,,,,,,,,,,
,,,,,SPR24_007,20,Female,2024-04-05_11h15.49.249,jersey_experiment_5_v0,2023.2.2,Win32,84.74576271,,,,,,,,,,,,,,,,483.2602,484.3068,484.3069,487.5423,return,1.3729,,73.17708333,,,,,,FBP-PT-91.png,0.43,1.2,59,0.25,0,3,3,58,1,,,,,,,,,,,,,,,,,,,,,,,,,,,,,,,,,,,,,,,,
,,,,,SPR24_007,20,Female,2024-04-05_11h15.49.249,jersey_experiment_5_v0,2023.2.2,Win32,84.74576271,,,,,,,,,,,,,,,,487.5425,488.5894,488.5895,491.3895,return,0.8704,,33.72395833,,,,,,FBP-PT-71.png,0.35,1.2,46,0.25,0,4,4,45,1,,,,,,,,,,,,,,,,,,,,,,,,,,,,,,,,,,,,,,,,
,,,,,SPR24_007,20,Female,2024-04-05_11h15.49.249,jersey_experiment_5_v0,2023.2.2,Win32,84.74576271,,,,,,,,,,,,,,,,491.3898,492.4366,492.4366,495.9662,return,2.0708,,73.4375,,,,,,FBP-PT-71.png,0.45,1.2,50,0.25,0,5,5,49,1,,,,,,,,,,,,,,,,,,,,,,,,,,,,,,,,,,,,,,,,
,,,,,SPR24_007,20,Female,2024-04-05_11h15.49.249,jersey_experiment_5_v0,2023.2.2,Win32,84.74576271,,,,,,,,,,,,,,,,495.9665,497.2603,497.2603,499.2957,return,0.814,,44.01041667,,,,,,FBP-OG-18.png,0.35,1.2,6,0.5,0,6,6,5,1,,,,,,,,,,,,,,,,,,,,,,,,,,,,,,,,,,,,,,,,
,,,,,SPR24_007,20,Female,2024-04-05_11h15.49.249,jersey_experiment_5_v0,2023.2.2,Win32,84.74576271,,,,,,,,,,,,,,,,499.2959,500.3427,500.3428,502.2957,return,0.5473,,73.95833333,,,,,,FBP-YG-71.png,0.43,1.2,19,0.25,0,7,7,18,1,,,,,,,,,,,,,,,,,,,,,,,,,,,,,,,,,,,,,,,,
,,,,,SPR24_007,20,Female,2024-04-05_11h15.49.249,jersey_experiment_5_v0,2023.2.2,Win32,84.74576271,,,,,,,,,,,,,,,,502.296,503.59,503.5901,507.5314,return,0.966,,39.0625,,,,,,FBP-OG-17.png,0.35,1.2,1,0.5,0,8,8,0,1,,,,,,,,,,,,,,,,,,,,,,,,,,,,,,,,,,,,,,,,
,,,,,SPR24_007,20,Female,2024-04-05_11h15.49.249,jersey_experiment_5_v0,2023.2.2,Win32,84.74576271,,,,,,,,,,,,,,,,507.5317,508.5782,508.5783,512.9552,return,0.8035,,70.83333333,,,,,,FBP-YG-81.png,0.43,1.2,24,0.25,0,9,9,23,1,,,,,,,,,,,,,,,,,,,,,,,,,,,,,,,,,,,,,,,,
,,,,,SPR24_007,20,Female,2024-04-05_11h15.49.249,jersey_experiment_5_v0,2023.2.2,Win32,84.74576271,,,,,,,,,,,,,,,,512.9554,514.2492,514.2492,518.1672,return,0.7345,,50.65104167,,,,,,FBP-OG-18.png,0.37,1.2,7,0.5,0,10,10,6,1,,,,,,,,,,,,,,,,,,,,,,,,,,,,,,,,,,,,,,,,
,,,,,SPR24_007,20,Female,2024-04-05_11h15.49.249,jersey_experiment_5_v0,2023.2.2,Win32,84.74576271,,,,,,,,,,,,,,,,518.1675,519.4613,519.4613,521.4024,return,0.8036,,74.47916667,,,,,,FBP-RB-71.png,0.45,1.2,35,0.5,0,11,11,34,1,,,,,,,,,,,,,,,,,,,,,,,,,,,,,,,,,,,,,,,,
,,,,,SPR24_007,20,Female,2024-04-05_11h15.49.249,jersey_experiment_5_v0,2023.2.2,Win32,84.74576271,,,,,,,,,,,,,,,,521.4026,522.4496,522.4496,526.1555,return,0.7185,,43.88020833,,,,,,FBP-YG-81.png,0.35,1.2,21,0.25,0,12,12,20,1,,,,,,,,,,,,,,,,,,,,,,,,,,,,,,,,,,,,,,,,
,,,,,SPR24_007,20,Female,2024-04-05_11h15.49.249,jersey_experiment_5_v0,2023.2.2,Win32,84.74576271,,,,,,,,,,,,,,,,526.1557,527.4496,527.4496,529.6262,return,0.8157,,23.828125,,,,,,FBP-OG-19.png,0.35,1.2,11,0.5,0,13,13,10,1,,,,,,,,,,,,,,,,,,,,,,,,,,,,,,,,,,,,,,,,
,,,,,SPR24_007,20,Female,2024-04-05_11h15.49.249,jersey_experiment_5_v0,2023.2.2,Win32,84.74576271,,,,,,,,,,,,,,,,529.6265,530.9204,530.9204,532.5911,return,0.7769,,25.52083333,,,,,,FBP-RB-91.png,0.35,1.2,41,0.5,0,14,14,40,1,,,,,,,,,,,,,,,,,,,,,,,,,,,,,,,,,,,,,,,,
,,,,,SPR24_007,20,Female,2024-04-05_11h15.49.249,jersey_experiment_5_v0,2023.2.2,Win32,84.74576271,,,,,,,,,,,,,,,,532.5913,533.8853,533.8854,536.4735,return,1.2733,,79.55729167,,,,,,FBP-RB-81.png,0.45,1.2,40,0.5,0,15,15,39,1,,,,,,,,,,,,,,,,,,,,,,,,,,,,,,,,,,,,,,,,
,,,,,SPR24_007,20,Female,2024-04-05_11h15.49.249,jersey_experiment_5_v0,2023.2.2,Win32,84.74576271,,,,,,,,,,,,,,,,536.4736,537.7678,537.7678,539.7206,return,0.7701,,87.109375,,,,,,FBP-OG-19.png,0.45,1.2,15,0.5,0,16,16,14,1,,,,,,,,,,,,,,,,,,,,,,,,,,,,,,,,,,,,,,,,
,,,,,SPR24_007,20,Female,2024-04-05_11h15.49.249,jersey_experiment_5_v0,2023.2.2,Win32,84.74576271,,,,,,,,,,,,,,,,539.7208,541.015,541.015,544.215,return,0.6776,,72.91666667,,,,,,FBP-OG-17.png,0.4,1.2,3,0.5,0,17,17,2,1,,,,,,,,,,,,,,,,,,,,,,,,,,,,,,,,,,,,,,,,
,,,,,SPR24_007,20,Female,2024-04-05_11h15.49.249,jersey_experiment_5_v0,2023.2.2,Win32,84.74576271,,,,,,,,,,,,,,,,544.2153,545.5092,545.5093,548.521,return,1.3912,,51.30208333,,,,,,FBP-OG-17.png,0.37,1.2,2,0.5,0,18,18,1,1,,,,,,,,,,,,,,,,,,,,,,,,,,,,,,,,,,,,,,,,
,,,,,SPR24_007,20,Female,2024-04-05_11h15.49.249,jersey_experiment_5_v0,2023.2.2,Win32,84.74576271,,,,,,,,,,,,,,,,548.5212,549.568,549.568,551.6858,return,0.8654,,37.76041667,,,,,,FBP-PT-81.png,0.35,1.2,51,0.25,0,19,19,50,1,,,,,,,,,,,,,,,,,,,,,,,,,,,,,,,,,,,,,,,,
,,,,,SPR24_007,20,Female,2024-04-05_11h15.49.249,jersey_experiment_5_v0,2023.2.2,Win32,84.74576271,,,,,,,,,,,,,,,,551.686,552.98,552.98,554.8625,return,0.6825,,73.95833333,,,,,,FBP-OG-18.png,0.43,1.2,9,0.5,0,20,20,8,1,,,,,,,,,,,,,,,,,,,,,,,,,,,,,,,,,,,,,,,,
,,,,,SPR24_007,20,Female,2024-04-05_11h15.49.249,jersey_experiment_5_v0,2023.2.2,Win32,84.74576271,,,,,,,,,,,,,,,,554.8626,556.1566,556.1566,557.9686,return,0.6828,,72.91666667,,,,,,FBP-RB-91.png,0.4,1.2,43,0.5,0,21,21,42,1,,,,,,,,,,,,,,,,,,,,,,,,,,,,,,,,,,,,,,,,
,,,,,SPR24_007,20,Female,2024-04-05_11h15.49.249,jersey_experiment_5_v0,2023.2.2,Win32,84.74576271,,,,,,,,,,,,,,,,557.9688,559.2626,559.2626,563.804,return,0.7787,,40.88541667,,,,,,FBP-RB-71.png,0.35,1.2,31,0.5,0,22,22,30,1,,,,,,,,,,,,,,,,,,,,,,,,,,,,,,,,,,,,,,,,
,,,,,SPR24_007,20,Female,2024-04-05_11h15.49.249,jersey_experiment_5_v0,2023.2.2,Win32,84.74576271,,,,,,,,,,,,,,,,563.8043,565.0981,565.0981,567.31,return,1.3417,,69.40104167,,,,,,FBP-RB-71.png,0.37,1.2,32,0.5,0,23,23,31,1,,,,,,,,,,,,,,,,,,,,,,,,,,,,,,,,,,,,,,,,
,,,,,SPR24_007,20,Female,2024-04-05_11h15.49.249,jersey_experiment_5_v0,2023.2.2,Win32,84.74576271,,,,,,,,,,,,,,,,567.3101,568.6042,568.6042,572.0867,return,2.0412,,76.30208333,,,,,,FBP-RB-81.png,0.4,1.2,38,0.5,0,24,24,37,1,,,,,,,,,,,,,,,,,,,,,,,,,,,,,,,,,,,,,,,,
,,,,,SPR24_007,20,Female,2024-04-05_11h15.49.249,jersey_experiment_5_v0,2023.2.2,Win32,84.74576271,,,,,,,,,,,,,,,,572.0868,573.1339,573.1339,575.8515,return,0.8734,,79.55729167,,,,,,FBP-YG-91.png,0.4,1.2,28,0.25,0,25,25,27,1,,,,,,,,,,,,,,,,,,,,,,,,,,,,,,,,,,,,,,,,
,,,,,SPR24_007,20,Female,2024-04-05_11h15.49.249,jersey_experiment_5_v0,2023.2.2,Win32,84.74576271,,,,,,,,,,,,,,,,575.8516,576.8987,576.8987,580.2987,return,1.3545,,62.63020833,,,,,,FBP-PT-71.png,0.37,1.2,47,0.25,0,26,26,46,1,,,,,,,,,,,,,,,,,,,,,,,,,,,,,,,,,,,,,,,,
,,,,,SPR24_007,20,Female,2024-04-05_11h15.49.249,jersey_experiment_5_v0,2023.2.2,Win32,84.74576271,,,,,,,,,,,,,,,,580.2989,581.3458,581.3459,583.593,return,1.0169,,73.69791667,,,,,,FBP-YG-81.png,0.45,1.2,25,0.25,0,27,27,24,1,,,,,,,,,,,,,,,,,,,,,,,,,,,,,,,,,,,,,,,,
,,,,,SPR24_007,20,Female,2024-04-05_11h15.49.249,jersey_experiment_5_v0,2023.2.2,Win32,84.74576271,,,,,,,,,,,,,,,,583.5931,584.887,584.8871,587.0401,return,1.5059,,77.47395833,,,,,,FBP-OG-17.png,0.43,1.2,4,0.5,0,28,28,3,1,,,,,,,,,,,,,,,,,,,,,,,,,,,,,,,,,,,,,,,,
,,,,,SPR24_007,20,Female,2024-04-05_11h15.49.249,jersey_experiment_5_v0,2023.2.2,Win32,84.74576271,,,,,,,,,,,,,,,,587.0403,588.0872,588.0872,591.4638,return,2.0184,,45.05208333,,,,,,FBP-YG-81.png,0.37,1.2,22,0.25,0,29,29,21,1,,,,,,,,,,,,,,,,,,,,,,,,,,,,,,,,,,,,,,,,
,,,,,SPR24_007,20,Female,2024-04-05_11h15.49.249,jersey_experiment_5_v0,2023.2.2,Win32,84.74576271,,,,,,,,,,,,,,,,591.4641,592.7581,592.7581,594.9581,return,1.1998,,60.28645833,,,,,,FBP-RB-81.png,0.43,1.2,39,0.5,0,30,30,38,1,,,,,,,,,,,,,,,,,,,,,,,,,,,,,,,,,,,,,,,,
,,,,,SPR24_007,20,Female,2024-04-05_11h15.49.249,jersey_experiment_5_v0,2023.2.2,Win32,84.74576271,,,,,,,,,,,,,,,,594.9583,596.0052,596.0052,602.8408,return,3.2059,,46.35416667,,,,,,FBP-YG-71.png,0.35,1.2,16,0.25,0,31,31,15,1,,,,,,,,,,,,,,,,,,,,,,,,,,,,,,,,,,,,,,,,
,,,,,SPR24_007,20,Female,2024-04-05_11h15.49.249,jersey_experiment_5_v0,2023.2.2,Win32,84.74576271,,,,,,,,,,,,,,,,602.841,603.8879,603.888,606.0645,return,0.7299,,32.55208333,,,,,,FBP-PT-91.png,0.35,1.2,56,0.25,0,32,32,55,1,,,,,,,,,,,,,,,,,,,,,,,,,,,,,,,,,,,,,,,,
,,,,,SPR24_007,20,Female,2024-04-05_11h15.49.249,jersey_experiment_5_v0,2023.2.2,Win32,84.74576271,,,,,,,,,,,,,,,,606.0647,607.1116,607.1116,610.4763,return,1.2376,,63.80208333,,,,,,FBP-PT-81.png,0.4,1.2,53,0.25,0,33,33,52,1,,,,,,,,,,,,,,,,,,,,,,,,,,,,,,,,,,,,,,,,
,,,,,SPR24_007,20,Female,2024-04-05_11h15.49.249,jersey_experiment_5_v0,2023.2.2,Win32,84.74576271,,,,,,,,,,,,,,,,610.4765,611.7705,611.7705,617.7708,return,4.1096,,50.26041667,,,,,,FBP-RB-91.png,0.37,1.2,42,0.5,0,34,34,41,1,,,,,,,,,,,,,,,,,,,,,,,,,,,,,,,,,,,,,,,,
,,,,,SPR24_007,20,Female,2024-04-05_11h15.49.249,jersey_experiment_5_v0,2023.2.2,Win32,84.74576271,,,,,,,,,,,,,,,,617.771,619.0649,619.0649,621.4886,return,0.9884,,74.21875,,,,,,FBP-RB-71.png,0.43,1.2,34,0.5,0,35,35,33,1,,,,,,,,,,,,,,,,,,,,,,,,,,,,,,,,,,,,,,,,
,,,,,SPR24_007,20,Female,2024-04-05_11h15.49.249,jersey_experiment_5_v0,2023.2.2,Win32,84.74576271,,,,,,,,,,,,,,,,621.4888,622.5356,622.5357,625.9358,return,0.9085,,37.76041667,,,,,,FBP-PT-91.png,0.37,1.2,57,0.25,0,36,36,56,1,,,,,,,,,,,,,,,,,,,,,,,,,,,,,,,,,,,,,,,,
,,,,,SPR24_007,20,Female,2024-04-05_11h15.49.249,jersey_experiment_5_v0,2023.2.2,Win32,84.74576271,,,,,,,,,,,,,,,,625.9359,626.9828,626.9828,632.2535,return,1.8125,,39.71354167,,,,,,FBP-PT-91.png,0.4,1.2,58,0.25,0,37,37,57,1,,,,,,,,,,,,,,,,,,,,,,,,,,,,,,,,,,,,,,,,
,,,,,SPR24_007,20,Female,2024-04-05_11h15.49.249,jersey_experiment_5_v0,2023.2.2,Win32,84.74576271,,,,,,,,,,,,,,,,632.2538,633.3008,633.3008,636.0774,return,0.7442,,31.77083333,,,,,,FBP-YG-91.png,0.35,1.2,26,0.25,0,38,38,25,1,,,,,,,,,,,,,,,,,,,,,,,,,,,,,,,,,,,,,,,,
,,,,,SPR24_007,20,Female,2024-04-05_11h15.49.249,jersey_experiment_5_v0,2023.2.2,Win32,84.74576271,,,,,,,,,,,,,,,,636.0776,637.3715,637.3716,639.7245,return,0.979,,70.44270833,,,,,,FBP-RB-91.png,0.45,1.2,45,0.5,0,39,39,44,1,,,,,,,,,,,,,,,,,,,,,,,,,,,,,,,,,,,,,,,,
,,,,,SPR24_007,20,Female,2024-04-05_11h15.49.249,jersey_experiment_5_v0,2023.2.2,Win32,84.74576271,,,,,,,,,,,,,,,,639.7246,640.7716,640.7716,643.1952,return,0.8269,,88.80208333,,,,,,FBP-YG-91.png,0.45,1.2,30,0.25,0,40,40,29,1,,,,,,,,,,,,,,,,,,,,,,,,,,,,,,,,,,,,,,,,
,,,,,SPR24_007,20,Female,2024-04-05_11h15.49.249,jersey_experiment_5_v0,2023.2.2,Win32,84.74576271,,,,,,,,,,,,,,,,643.1954,644.2423,644.2423,648.3601,return,2.1923,,57.03125,,,,,,FBP-YG-71.png,0.4,1.2,18,0.25,0,41,41,17,1,,,,,,,,,,,,,,,,,,,,,,,,,,,,,,,,,,,,,,,,
,,,,,SPR24_007,20,Female,2024-04-05_11h15.49.249,jersey_experiment_5_v0,2023.2.2,Win32,84.74576271,,,,,,,,,,,,,,,,648.3602,649.6543,649.6543,651.2896,return,0.6633,,76.953125,,,,,,FBP-OG-17.png,0.45,1.2,5,0.5,0,42,42,4,1,,,,,,,,,,,,,,,,,,,,,,,,,,,,,,,,,,,,,,,,
,,,,,SPR24_007,20,Female,2024-04-05_11h15.49.249,jersey_experiment_5_v0,2023.2.2,Win32,84.74576271,,,,,,,,,,,,,,,,651.2898,652.5838,652.5839,664.5607,return,9.8591,,43.22916667,,,,,,FBP-OG-18.png,0.4,1.2,8,0.5,0,43,43,7,1,,,,,,,,,,,,,,,,,,,,,,,,,,,,,,,,,,,,,,,,
,,,,,SPR24_007,20,Female,2024-04-05_11h15.49.249,jersey_experiment_5_v0,2023.2.2,Win32,84.74576271,,,,,,,,,,,,,,,,664.561,665.8547,665.8548,667.5254,return,0.5972,,66.66666667,,,,,,FBP-OG-19.png,0.43,1.2,14,0.5,0,44,44,13,1,,,,,,,,,,,,,,,,,,,,,,,,,,,,,,,,,,,,,,,,
,,,,,SPR24_007,20,Female,2024-04-05_11h15.49.249,jersey_experiment_5_v0,2023.2.2,Win32,84.74576271,,,,,,,,,,,,,,,,667.5257,668.8198,668.8198,673.1256,return,0.738,,52.99479167,,,,,,FBP-RB-71.png,0.4,1.2,33,0.5,0,45,45,32,1,,,,,,,,,,,,,,,,,,,,,,,,,,,,,,,,,,,,,,,,
,,,,,SPR24_007,20,Female,2024-04-05_11h15.49.249,jersey_experiment_5_v0,2023.2.2,Win32,84.74576271,,,,,,,,,,,,,,,,673.1258,674.4198,674.4198,677.8789,return,2.4166,,66.796875,,,,,,FBP-RB-91.png,0.43,1.2,44,0.5,0,46,46,43,1,,,,,,,,,,,,,,,,,,,,,,,,,,,,,,,,,,,,,,,,
,,,,,SPR24_007,20,Female,2024-04-05_11h15.49.249,jersey_experiment_5_v0,2023.2.2,Win32,84.74576271,,,,,,,,,,,,,,,,677.8792,678.9263,678.9263,680.3143,return,0.6042,,74.08854167,,,,,,FBP-YG-91.png,0.43,1.2,29,0.25,0,47,47,28,1,,,,,,,,,,,,,,,,,,,,,,,,,,,,,,,,,,,,,,,,
,,,,,SPR24_007,20,Female,2024-04-05_11h15.49.249,jersey_experiment_5_v0,2023.2.2,Win32,84.74576271,,,,,,,,,,,,,,,,680.3145,681.3613,681.3613,683.2909,return,0.6386,,81.640625,,,,,,FBP-PT-81.png,0.45,1.2,55,0.25,0,48,48,54,1,,,,,,,,,,,,,,,,,,,,,,,,,,,,,,,,,,,,,,,,
,,,,,SPR24_007,20,Female,2024-04-05_11h15.49.249,jersey_experiment_5_v0,2023.2.2,Win32,84.74576271,,,,,,,,,,,,,,,,683.2911,684.338,684.338,687.432,return,0.6747,,53.125,,,,,,FBP-PT-81.png,0.37,1.2,52,0.25,0,49,49,51,1,,,,,,,,,,,,,,,,,,,,,,,,,,,,,,,,,,,,,,,,
,,,,,SPR24_007,20,Female,2024-04-05_11h15.49.249,jersey_experiment_5_v0,2023.2.2,Win32,84.74576271,,,,,,,,,,,,,,,,687.4323,688.4792,688.4792,691.1618,return,0.7321,,86.45833333,,,,,,FBP-PT-81.png,0.43,1.2,54,0.25,0,50,50,53,1,,,,,,,,,,,,,,,,,,,,,,,,,,,,,,,,,,,,,,,,
,,,,,SPR24_007,20,Female,2024-04-05_11h15.49.249,jersey_experiment_5_v0,2023.2.2,Win32,84.74576271,,,,,,,,,,,,,,,,691.162,692.2089,692.2089,694.703,return,0.7863,,99.34895833,,,,,,FBP-PT-71.png,0.43,1.2,49,0.25,0,51,51,48,1,,,,,,,,,,,,,,,,,,,,,,,,,,,,,,,,,,,,,,,,
,,,,,SPR24_007,20,Female,2024-04-05_11h15.49.249,jersey_experiment_5_v0,2023.2.2,Win32,84.74576271,,,,,,,,,,,,,,,,694.7032,695.9973,695.9973,698.1267,return,0.7068,,76.5625,,,,,,FBP-OG-19.png,0.4,1.2,13,0.5,0,52,52,12,1,,,,,,,,,,,,,,,,,,,,,,,,,,,,,,,,,,,,,,,,
,,,,,SPR24_007,20,Female,2024-04-05_11h15.49.249,jersey_experiment_5_v0,2023.2.2,Win32,84.74576271,,,,,,,,,,,,,,,,698.127,699.4208,699.4209,701.8798,return,1.3946,,98.828125,,,,,,FBP-OG-18.png,0.45,1.2,10,0.5,0,53,53,9,1,,,,,,,,,,,,,,,,,,,,,,,,,,,,,,,,,,,,,,,,
,,,,,SPR24_007,20,Female,2024-04-05_11h15.49.249,jersey_experiment_5_v0,2023.2.2,Win32,84.74576271,,,,,,,,,,,,,,,,701.88,702.9269,702.9269,706.6681,return,1.412,,64.58333333,,,,,,FBP-YG-91.png,0.37,1.2,27,0.25,0,54,54,26,1,,,,,,,,,,,,,,,,,,,,,,,,,,,,,,,,,,,,,,,,
,,,,,SPR24_007,20,Female,2024-04-05_11h15.49.249,jersey_experiment_5_v0,2023.2.2,Win32,84.74576271,,,,,,,,,,,,,,,,706.6683,707.7152,707.7152,710.5507,return,1.2665,,97.39583333,,,,,,FBP-PT-91.png,0.45,1.2,60,0.25,0,55,55,59,1,,,,,,,,,,,,,,,,,,,,,,,,,,,,,,,,,,,,,,,,
,,,,,SPR24_007,20,Female,2024-04-05_11h15.49.249,jersey_experiment_5_v0,2023.2.2,Win32,84.74576271,,,,,,,,,,,,,,,,710.5508,711.5976,711.5977,714.1037,return,1.2518,,99.34895833,,,,,,FBP-YG-71.png,0.45,1.2,20,0.25,0,56,56,19,1,,,,,,,,,,,,,,,,,,,,,,,,,,,,,,,,,,,,,,,,
,,,,,SPR24_007,20,Female,2024-04-05_11h15.49.249,jersey_experiment_5_v0,2023.2.2,Win32,84.74576271,,,,,,,,,,,,,,,,714.104,715.1508,715.1509,718.3981,return,0.7297,,62.36979167,,,,,,FBP-YG-81.png,0.4,1.2,23,0.25,0,57,57,22,1,,,,,,,,,,,,,,,,,,,,,,,,,,,,,,,,,,,,,,,,
,,,,,SPR24_007,20,Female,2024-04-05_11h15.49.249,jersey_experiment_5_v0,2023.2.2,Win32,84.74576271,,,,,,,,,,,,,,,,718.3983,719.6923,719.6923,722.0804,return,0.6265,,49.86979167,,,,,,FBP-OG-19.png,0.37,1.2,12,0.5,0,58,58,11,1,,,,,,,,,,,,,,,,,,,,,,,,,,,,,,,,,,,,,,,,
,,,,,SPR24_007,20,Female,2024-04-05_11h15.49.249,jersey_experiment_5_v0,2023.2.2,Win32,84.74576271,,,,,,,,,,,,,,,,722.0807,723.1276,723.1277,724.9512,return,0.7482,,65.75520833,,,,,,FBP-PT-71.png,0.4,1.2,48,0.25,0,59,59,47,1,,,,,,,,,,,,,,,,,,,,,,,,,,,,,,,,,,,,,,,,
,,,,,SPR24_007,20,Female,2024-04-05_11h15.49.249,jersey_experiment_5_v0,2023.2.2,Win32,84.74576271,,,,,,,,,,,,,,,,,,,,,,,,,,,,,,,,,,,,,,,724.9516,844.9442,,,,,,,,,,,,,,,,,,,,,,,,,,,,,,,,,,,,,,
,,,,,SPR24_007,20,Female,2024-04-05_11h15.49.249,jersey_experiment_5_v0,2023.2.2,Win32,84.74576271,,,,,,,,,,,,,,,,,,,,,,,,,,,,,,,,,,,,,,,,,844.9443,848.2501,return,3.2965,,,,,,,,,,,,,,,,,,,,,,,,,,,,,,,,,,
,,,,,SPR24_007,20,Female,2024-04-05_11h15.49.249,jersey_experiment_5_v0,2023.2.2,Win32,84.74576271,,,,,,,,,,,,,,,,848.2563,849.3089,849.3089,851.7561,return,0.7769,,60.15625,,,,,,FBP-OG-71.png,0.45,1.2,5,0.25,,,,,,,,,,,,,0,0,0,4,1,,,,,,,,,,,,,,,,,,,,,,,,,,,,
,,,,,SPR24_007,20,Female,2024-04-05_11h15.49.249,jersey_experiment_5_v0,2023.2.2,Win32,84.74576271,,,,,,,,,,,,,,,,851.7563,852.803,852.803,854.9207,return,0.7453,,71.484375,,,,,,FBP-OG-81.png,0.45,1.2,10,0.25,,,,,,,,,,,,,0,1,1,9,1,,,,,,,,,,,,,,,,,,,,,,,,,,,,
,,,,,SPR24_007,20,Female,2024-04-05_11h15.49.249,jersey_experiment_5_v0,2023.2.2,Win32,84.74576271,,,,,,,,,,,,,,,,854.9209,855.9678,855.9678,858.3797,return,0.8833,,44.66145833,,,,,,FBP-OG-81.png,0.4,1.2,8,0.25,,,,,,,,,,,,,0,2,2,7,1,,,,,,,,,,,,,,,,,,,,,,,,,,,,
,,,,,SPR24_007,20,Female,2024-04-05_11h15.49.249,jersey_experiment_5_v0,2023.2.2,Win32,84.74576271,,,,,,,,,,,,,,,,858.3799,859.6739,859.6739,861.6624,return,0.6825,,27.60416667,,,,,,FBP-PT-19.png,0.35,1.2,56,0.5,,,,,,,,,,,,,0,3,3,55,1,,,,,,,,,,,,,,,,,,,,,,,,,,,,
,,,,,SPR24_007,20,Female,2024-04-05_11h15.49.249,jersey_experiment_5_v0,2023.2.2,Win32,84.74576271,,,,,,,,,,,,,,,,861.6625,862.9565,862.9565,864.5212,return,0.8291,,31.11979167,,,,,,FBP-PT-19.png,0.37,1.2,57,0.5,,,,,,,,,,,,,0,4,4,56,1,,,,,,,,,,,,,,,,,,,,,,,,,,,,
,,,,,SPR24_007,20,Female,2024-04-05_11h15.49.249,jersey_experiment_5_v0,2023.2.2,Win32,84.74576271,,,,,,,,,,,,,,,,864.5214,865.8153,865.8153,868.4742,return,1.7222,,64.71354167,,,,,,FBP-YG-17.png,0.4,1.2,18,0.5,,,,,,,,,,,,,0,5,5,17,1,,,,,,,,,,,,,,,,,,,,,,,,,,,,
,,,,,SPR24_007,20,Female,2024-04-05_11h15.49.249,jersey_experiment_5_v0,2023.2.2,Win32,84.74576271,,,,,,,,,,,,,,,,868.4745,869.7684,869.7684,871.5919,return,0.7102,,83.46354167,,,,,,FBP-YG-18.png,0.45,1.2,25,0.5,,,,,,,,,,,,,0,6,6,24,1,,,,,,,,,,,,,,,,,,,,,,,,,,,,
,,,,,SPR24_007,20,Female,2024-04-05_11h15.49.249,jersey_experiment_5_v0,2023.2.2,Win32,84.74576271,,,,,,,,,,,,,,,,871.5921,872.8862,872.8863,875.5452,return,1.7817,,62.23958333,,,,,,FBP-YG-18.png,0.37,1.2,22,0.5,,,,,,,,,,,,,0,7,7,21,1,,,,,,,,,,,,,,,,,,,,,,,,,,,,
,,,,,SPR24_007,20,Female,2024-04-05_11h15.49.249,jersey_experiment_5_v0,2023.2.2,Win32,84.74576271,,,,,,,,,,,,,,,,875.5454,876.5923,876.5923,879.0394,return,0.9179,,58.33333333,,,,,,FBP-OG-71.png,0.37,1.2,2,0.25,,,,,,,,,,,,,0,8,8,1,1,,,,,,,,,,,,,,,,,,,,,,,,,,,,
,,,,,SPR24_007,20,Female,2024-04-05_11h15.49.249,jersey_experiment_5_v0,2023.2.2,Win32,84.74576271,,,,,,,,,,,,,,,,879.0396,880.3335,880.3335,885.1103,return,0.7475,,55.72916667,,,,,,FBP-PT-17.png,0.35,1.2,46,0.5,,,,,,,,,,,,,0,9,9,45,1,,,,,,,,,,,,,,,,,,,,,,,,,,,,
,,,,,SPR24_007,20,Female,2024-04-05_11h15.49.249,jersey_experiment_5_v0,2023.2.2,Win32,84.74576271,,,,,,,,,,,,,,,,885.1105,886.1573,886.1573,888.6398,return,0.7402,,90.88541667,,,,,,FBP-RB-19.png,0.45,1.2,45,0.25,,,,,,,,,,,,,0,10,10,44,1,,,,,,,,,,,,,,,,,,,,,,,,,,,,
,,,,,SPR24_007,20,Female,2024-04-05_11h15.49.249,jersey_experiment_5_v0,2023.2.2,Win32,84.74576271,,,,,,,,,,,,,,,,888.64,889.9338,889.9339,891.9575,return,1.2194,,65.234375,,,,,,FBP-YG-17.png,0.37,1.2,17,0.5,,,,,,,,,,,,,0,11,11,16,1,,,,,,,,,,,,,,,,,,,,,,,,,,,,
,,,,,SPR24_007,20,Female,2024-04-05_11h15.49.249,jersey_experiment_5_v0,2023.2.2,Win32,84.74576271,,,,,,,,,,,,,,,,891.9577,893.2516,893.2516,897.5108,return,1.2647,,50.13020833,,,,,,FBP-YG-18.png,0.35,1.2,21,0.5,,,,,,,,,,,,,0,12,12,20,1,,,,,,,,,,,,,,,,,,,,,,,,,,,,
,,,,,SPR24_007,20,Female,2024-04-05_11h15.49.249,jersey_experiment_5_v0,2023.2.2,Win32,84.74576271,,,,,,,,,,,,,,,,897.511,898.805,898.805,900.7814,return,1.21,,74.47916667,,,,,,FBP-YG-19.png,0.43,1.2,29,0.5,,,,,,,,,,,,,0,13,13,28,1,,,,,,,,,,,,,,,,,,,,,,,,,,,,
,,,,,SPR24_007,20,Female,2024-04-05_11h15.49.249,jersey_experiment_5_v0,2023.2.2,Win32,84.74576271,,,,,,,,,,,,,,,,900.7817,902.0755,902.0756,905.5465,return,2.6746,,69.140625,,,,,,FBP-PT-19.png,0.4,1.2,58,0.5,,,,,,,,,,,,,0,14,14,57,1,,,,,,,,,,,,,,,,,,,,,,,,,,,,
,,,,,SPR24_007,20,Female,2024-04-05_11h15.49.249,jersey_experiment_5_v0,2023.2.2,Win32,84.74576271,,,,,,,,,,,,,,,,905.5468,906.8405,906.8405,908.5816,return,0.6659,,93.09895833,,,,,,FBP-YG-17.png,0.45,1.2,20,0.5,,,,,,,,,,,,,0,15,15,19,1,,,,,,,,,,,,,,,,,,,,,,,,,,,,
,,,,,SPR24_007,20,Female,2024-04-05_11h15.49.249,jersey_experiment_5_v0,2023.2.2,Win32,84.74576271,,,,,,,,,,,,,,,,908.5819,909.6287,909.6287,911.5817,return,0.6691,,98.4375,,,,,,FBP-OG-91.png,0.45,1.2,15,0.25,,,,,,,,,,,,,0,16,16,14,1,,,,,,,,,,,,,,,,,,,,,,,,,,,,
,,,,,SPR24_007,20,Female,2024-04-05_11h15.49.249,jersey_experiment_5_v0,2023.2.2,Win32,84.74576271,,,,,,,,,,,,,,,,911.582,912.629,912.629,916.0055,return,2.137,,91.015625,,,,,,FBP-OG-71.png,0.43,1.2,4,0.25,,,,,,,,,,,,,0,17,17,3,1,,,,,,,,,,,,,,,,,,,,,,,,,,,,
,,,,,SPR24_007,20,Female,2024-04-05_11h15.49.249,jersey_experiment_5_v0,2023.2.2,Win32,84.74576271,,,,,,,,,,,,,,,,916.0057,917.0526,917.0526,919.488,return,1.1063,,34.89583333,,,,,,FBP-OG-81.png,0.37,1.2,7,0.25,,,,,,,,,,,,,0,18,18,6,1,,,,,,,,,,,,,,,,,,,,,,,,,,,,
,,,,,SPR24_007,20,Female,2024-04-05_11h15.49.249,jersey_experiment_5_v0,2023.2.2,Win32,84.74576271,,,,,,,,,,,,,,,,919.4882,920.7822,920.7822,922.2528,return,0.626,,64.71354167,,,,,,FBP-PT-19.png,0.43,1.2,59,0.5,,,,,,,,,,,,,0,19,19,58,1,,,,,,,,,,,,,,,,,,,,,,,,,,,,
,,,,,SPR24_007,20,Female,2024-04-05_11h15.49.249,jersey_experiment_5_v0,2023.2.2,Win32,84.74576271,,,,,,,,,,,,,,,,922.253,923.2998,923.2999,925.5352,return,0.858,,62.63020833,,,,,,FBP-RB-17.png,0.4,1.2,33,0.25,,,,,,,,,,,,,0,20,20,32,1,,,,,,,,,,,,,,,,,,,,,,,,,,,,
,,,,,SPR24_007,20,Female,2024-04-05_11h15.49.249,jersey_experiment_5_v0,2023.2.2,Win32,84.74576271,,,,,,,,,,,,,,,,925.5354,926.8293,926.8294,928.5119,return,0.6122,,49.34895833,,,,,,FBP-PT-18.png,0.37,1.2,52,0.5,,,,,,,,,,,,,0,21,21,51,1,,,,,,,,,,,,,,,,,,,,,,,,,,,,
,,,,,SPR24_007,20,Female,2024-04-05_11h15.49.249,jersey_experiment_5_v0,2023.2.2,Win32,84.74576271,,,,,,,,,,,,,,,,928.5122,929.8059,929.806,931.7355,return,0.6408,,74.73958333,,,,,,FBP-PT-17.png,0.45,1.2,50,0.5,,,,,,,,,,,,,0,22,22,49,1,,,,,,,,,,,,,,,,,,,,,,,,,,,,
,,,,,SPR24_007,20,Female,2024-04-05_11h15.49.249,jersey_experiment_5_v0,2023.2.2,Win32,84.74576271,,,,,,,,,,,,,,,,931.7357,932.7827,932.7827,935.8297,return,2.1013,,82.55208333,,,,,,FBP-RB-19.png,0.43,1.2,44,0.25,,,,,,,,,,,,,0,23,23,43,1,,,,,,,,,,,,,,,,,,,,,,,,,,,,
,,,,,SPR24_007,20,Female,2024-04-05_11h15.49.249,jersey_experiment_5_v0,2023.2.2,Win32,84.74576271,,,,,,,,,,,,,,,,935.83,936.8767,936.8768,939.1122,return,1.1354,,41.66666667,,,,,,FBP-OG-81.png,0.35,1.2,6,0.25,,,,,,,,,,,,,0,24,24,5,1,,,,,,,,,,,,,,,,,,,,,,,,,,,,
,,,,,SPR24_007,20,Female,2024-04-05_11h15.49.249,jersey_experiment_5_v0,2023.2.2,Win32,84.74576271,,,,,,,,,,,,,,,,939.1124,940.1594,940.1594,942.136,return,0.7711,,42.44791667,,,,,,FBP-RB-19.png,0.35,1.2,41,0.25,,,,,,,,,,,,,0,25,25,40,1,,,,,,,,,,,,,,,,,,,,,,,,,,,,
,,,,,SPR24_007,20,Female,2024-04-05_11h15.49.249,jersey_experiment_5_v0,2023.2.2,Win32,84.74576271,,,,,,,,,,,,,,,,942.1362,943.1829,943.183,945.7243,return,0.9776,,40.234375,,,,,,FBP-OG-91.png,0.35,1.2,11,0.25,,,,,,,,,,,,,0,26,26,10,1,,,,,,,,,,,,,,,,,,,,,,,,,,,,
,,,,,SPR24_007,20,Female,2024-04-05_11h15.49.249,jersey_experiment_5_v0,2023.2.2,Win32,84.74576271,,,,,,,,,,,,,,,,945.7245,946.7713,946.7713,953.2538,return,0.8899,,63.93229167,,,,,,FBP-RB-17.png,0.43,1.2,34,0.25,,,,,,,,,,,,,0,27,27,33,1,,,,,,,,,,,,,,,,,,,,,,,,,,,,
,,,,,SPR24_007,20,Female,2024-04-05_11h15.49.249,jersey_experiment_5_v0,2023.2.2,Win32,84.74576271,,,,,,,,,,,,,,,,953.2541,954.3011,954.3012,956.4776,return,0.6221,,44.27083333,,,,,,FBP-RB-17.png,0.35,1.2,31,0.25,,,,,,,,,,,,,0,28,28,30,1,,,,,,,,,,,,,,,,,,,,,,,,,,,,
,,,,,SPR24_007,20,Female,2024-04-05_11h15.49.249,jersey_experiment_5_v0,2023.2.2,Win32,84.74576271,,,,,,,,,,,,,,,,956.4778,957.7717,957.7717,960.2072,return,1.7076,,41.796875,,,,,,FBP-YG-19.png,0.35,1.2,26,0.5,,,,,,,,,,,,,0,29,29,25,1,,,,,,,,,,,,,,,,,,,,,,,,,,,,
,,,,,SPR24_007,20,Female,2024-04-05_11h15.49.249,jersey_experiment_5_v0,2023.2.2,Win32,84.74576271,,,,,,,,,,,,,,,,960.2074,961.5013,961.5013,962.8541,return,0.6199,,63.02083333,,,,,,FBP-YG-19.png,0.4,1.2,28,0.5,,,,,,,,,,,,,0,30,30,27,1,,,,,,,,,,,,,,,,,,,,,,,,,,,,
,,,,,SPR24_007,20,Female,2024-04-05_11h15.49.249,jersey_experiment_5_v0,2023.2.2,Win32,84.74576271,,,,,,,,,,,,,,,,962.8544,964.1484,964.1484,965.4072,return,0.5641,,74.73958333,,,,,,FBP-YG-18.png,0.43,1.2,24,0.5,,,,,,,,,,,,,0,31,31,23,1,,,,,,,,,,,,,,,,,,,,,,,,,,,,
,,,,,SPR24_007,20,Female,2024-04-05_11h15.49.249,jersey_experiment_5_v0,2023.2.2,Win32,84.74576271,,,,,,,,,,,,,,,,965.4075,966.7014,966.7015,973.2077,return,5.0894,,58.33333333,,,,,,FBP-YG-17.png,0.35,1.2,16,0.5,,,,,,,,,,,,,0,32,32,15,1,,,,,,,,,,,,,,,,,,,,,,,,,,,,
,,,,,SPR24_007,20,Female,2024-04-05_11h15.49.249,jersey_experiment_5_v0,2023.2.2,Win32,84.74576271,,,,,,,,,,,,,,,,973.2079,974.5018,974.5018,975.9607,return,0.6883,,69.79166667,,,,,,FBP-PT-18.png,0.4,1.2,53,0.5,,,,,,,,,,,,,0,33,33,52,1,,,,,,,,,,,,,,,,,,,,,,,,,,,,
,,,,,SPR24_007,20,Female,2024-04-05_11h15.49.249,jersey_experiment_5_v0,2023.2.2,Win32,84.74576271,,,,,,,,,,,,,,,,975.961,977.0079,977.008,980.0077,return,1.8419,,82.94270833,,,,,,FBP-RB-18.png,0.43,1.2,39,0.25,,,,,,,,,,,,,0,34,34,38,1,,,,,,,,,,,,,,,,,,,,,,,,,,,,
,,,,,SPR24_007,20,Female,2024-04-05_11h15.49.249,jersey_experiment_5_v0,2023.2.2,Win32,84.74576271,,,,,,,,,,,,,,,,980.0079,981.0552,981.0553,985.5257,return,0.6659,,67.31770833,,,,,,FBP-RB-18.png,0.4,1.2,38,0.25,,,,,,,,,,,,,0,35,35,37,1,,,,,,,,,,,,,,,,,,,,,,,,,,,,
,,,,,SPR24_007,20,Female,2024-04-05_11h15.49.249,jersey_experiment_5_v0,2023.2.2,Win32,84.74576271,,,,,,,,,,,,,,,,985.526,986.8198,986.8199,988.6316,return,0.7244,,76.69270833,,,,,,FBP-PT-17.png,0.43,1.2,49,0.5,,,,,,,,,,,,,0,36,36,48,1,,,,,,,,,,,,,,,,,,,,,,,,,,,,
,,,,,SPR24_007,20,Female,2024-04-05_11h15.49.249,jersey_experiment_5_v0,2023.2.2,Win32,84.74576271,,,,,,,,,,,,,,,,988.6319,989.6788,989.6788,991.6083,return,0.6983,,60.28645833,,,,,,FBP-OG-91.png,0.4,1.2,13,0.25,,,,,,,,,,,,,0,37,37,12,1,,,,,,,,,,,,,,,,,,,,,,,,,,,,
,,,,,SPR24_007,20,Female,2024-04-05_11h15.49.249,jersey_experiment_5_v0,2023.2.2,Win32,84.74576271,,,,,,,,,,,,,,,,991.6085,992.9025,992.9025,994.8789,return,0.9179,,78.515625,,,,,,FBP-PT-18.png,0.45,1.2,55,0.5,,,,,,,,,,,,,0,38,38,54,1,,,,,,,,,,,,,,,,,,,,,,,,,,,,
,,,,,SPR24_007,20,Female,2024-04-05_11h15.49.249,jersey_experiment_5_v0,2023.2.2,Win32,84.74576271,,,,,,,,,,,,,,,,994.8791,995.9261,995.9262,999.0321,return,1.699,,54.81770833,,,,,,FBP-RB-19.png,0.4,1.2,43,0.25,,,,,,,,,,,,,0,39,39,42,1,,,,,,,,,,,,,,,,,,,,,,,,,,,,
,,,,,SPR24_007,20,Female,2024-04-05_11h15.49.249,jersey_experiment_5_v0,2023.2.2,Win32,84.74576271,,,,,,,,,,,,,,,,999.0323,1000.0791,1000.0792,1001.6912,return,0.6135,,49.21875,,,,,,FBP-RB-17.png,0.37,1.2,32,0.25,,,,,,,,,,,,,0,40,40,31,1,,,,,,,,,,,,,,,,,,,,,,,,,,,,
,,,,,SPR24_007,20,Female,2024-04-05_11h15.49.249,jersey_experiment_5_v0,2023.2.2,Win32,84.74576271,,,,,,,,,,,,,,,,1001.6915,1002.7379,1002.738,1005.1852,return,0.5648,,58.984375,,,,,,FBP-OG-71.png,0.4,1.2,3,0.25,,,,,,,,,,,,,0,41,41,2,1,,,,,,,,,,,,,,,,,,,,,,,,,,,,
,,,,,SPR24_007,20,Female,2024-04-05_11h15.49.249,jersey_experiment_5_v0,2023.2.2,Win32,84.74576271,,,,,,,,,,,,,,,,1005.1856,1006.4795,1006.4795,1007.8325,return,0.639,,73.828125,,,,,,FBP-YG-17.png,0.43,1.2,19,0.5,,,,,,,,,,,,,0,42,42,18,1,,,,,,,,,,,,,,,,,,,,,,,,,,,,
,,,,,SPR24_007,20,Female,2024-04-05_11h15.49.249,jersey_experiment_5_v0,2023.2.2,Win32,84.74576271,,,,,,,,,,,,,,,,1007.8328,1009.1268,1009.1268,1010.4326,return,0.6115,,75.78125,,,,,,FBP-PT-18.png,0.43,1.2,54,0.5,,,,,,,,,,,,,0,43,43,53,1,,,,,,,,,,,,,,,,,,,,,,,,,,,,
,,,,,SPR24_007,20,Female,2024-04-05_11h15.49.249,jersey_experiment_5_v0,2023.2.2,Win32,84.74576271,,,,,,,,,,,,,,,,1010.4328,1011.4797,1011.4797,1013.8798,return,0.6399,,49.47916667,,,,,,FBP-RB-18.png,0.35,1.2,36,0.25,,,,,,,,,,,,,0,44,44,35,1,,,,,,,,,,,,,,,,,,,,,,,,,,,,
,,,,,SPR24_007,20,Female,2024-04-05_11h15.49.249,jersey_experiment_5_v0,2023.2.2,Win32,84.74576271,,,,,,,,,,,,,,,,1013.88,1014.9268,1014.9268,1016.7033,return,0.6256,,34.375,,,,,,FBP-OG-71.png,0.35,1.2,1,0.25,,,,,,,,,,,,,0,45,45,0,1,,,,,,,,,,,,,,,,,,,,,,,,,,,,
,,,,,SPR24_007,20,Female,2024-04-05_11h15.49.249,jersey_experiment_5_v0,2023.2.2,Win32,84.74576271,,,,,,,,,,,,,,,,1016.7036,1017.7505,1017.7505,1019.5622,return,0.5921,,75.52083333,,,,,,FBP-RB-18.png,0.45,1.2,40,0.25,,,,,,,,,,,,,0,46,46,39,1,,,,,,,,,,,,,,,,,,,,,,,,,,,,
,,,,,SPR24_007,20,Female,2024-04-05_11h15.49.249,jersey_experiment_5_v0,2023.2.2,Win32,84.74576271,,,,,,,,,,,,,,,,1019.5623,1020.8566,1020.8566,1023.9036,return,0.9401,,52.99479167,,,,,,FBP-PT-17.png,0.37,1.2,47,0.5,,,,,,,,,,,,,0,47,47,46,1,,,,,,,,,,,,,,,,,,,,,,,,,,,,
,,,,,SPR24_007,20,Female,2024-04-05_11h15.49.249,jersey_experiment_5_v0,2023.2.2,Win32,84.74576271,,,,,,,,,,,,,,,,1023.9038,1024.9507,1024.9507,1026.7273,return,0.7485,,51.5625,,,,,,FBP-RB-18.png,0.37,1.2,37,0.25,,,,,,,,,,,,,0,48,48,36,1,,,,,,,,,,,,,,,,,,,,,,,,,,,,
,,,,,SPR24_007,20,Female,2024-04-05_11h15.49.249,jersey_experiment_5_v0,2023.2.2,Win32,84.74576271,,,,,,,,,,,,,,,,1026.7274,1028.0215,1028.0215,1029.8214,return,0.66,,55.20833333,,,,,,FBP-PT-17.png,0.4,1.2,48,0.5,,,,,,,,,,,,,0,49,49,47,1,,,,,,,,,,,,,,,,,,,,,,,,,,,,
,,,,,SPR24_007,20,Female,2024-04-05_11h15.49.249,jersey_experiment_5_v0,2023.2.2,Win32,84.74576271,,,,,,,,,,,,,,,,1029.8216,1030.8686,1030.8686,1032.8452,return,0.6822,,65.49479167,,,,,,FBP-OG-81.png,0.43,1.2,9,0.25,,,,,,,,,,,,,0,50,50,8,1,,,,,,,,,,,,,,,,,,,,,,,,,,,,
,,,,,SPR24_007,20,Female,2024-04-05_11h15.49.249,jersey_experiment_5_v0,2023.2.2,Win32,84.74576271,,,,,,,,,,,,,,,,1032.8454,1034.1393,1034.1393,1036.0923,return,1.2614,,61.58854167,,,,,,FBP-YG-18.png,0.4,1.2,23,0.5,,,,,,,,,,,,,0,51,51,22,1,,,,,,,,,,,,,,,,,,,,,,,,,,,,
,,,,,SPR24_007,20,Female,2024-04-05_11h15.49.249,jersey_experiment_5_v0,2023.2.2,Win32,84.74576271,,,,,,,,,,,,,,,,1036.0923,1037.1393,1037.1394,1038.8924,return,0.66,,79.03645833,,,,,,FBP-OG-91.png,0.43,1.2,14,0.25,,,,,,,,,,,,,0,52,52,13,1,,,,,,,,,,,,,,,,,,,,,,,,,,,,
,,,,,SPR24_007,20,Female,2024-04-05_11h15.49.249,jersey_experiment_5_v0,2023.2.2,Win32,84.74576271,,,,,,,,,,,,,,,,1038.8926,1039.9394,1039.9395,1043.1162,return,1.1551,,55.98958333,,,,,,FBP-RB-19.png,0.37,1.2,42,0.25,,,,,,,,,,,,,0,53,53,41,1,,,,,,,,,,,,,,,,,,,,,,,,,,,,
,,,,,SPR24_007,20,Female,2024-04-05_11h15.49.249,jersey_experiment_5_v0,2023.2.2,Win32,84.74576271,,,,,,,,,,,,,,,,1043.1163,1044.1632,1044.1632,1045.575,return,0.6076,,74.609375,,,,,,FBP-RB-17.png,0.45,1.2,35,0.25,,,,,,,,,,,,,0,54,54,34,1,,,,,,,,,,,,,,,,,,,,,,,,,,,,
,,,,,SPR24_007,20,Female,2024-04-05_11h15.49.249,jersey_experiment_5_v0,2023.2.2,Win32,84.74576271,,,,,,,,,,,,,,,,1045.5752,1046.8693,1046.8693,1052.8105,return,0.7802,,51.953125,,,,,,FBP-PT-18.png,0.35,1.2,51,0.5,,,,,,,,,,,,,0,55,55,50,1,,,,,,,,,,,,,,,,,,,,,,,,,,,,
,,,,,SPR24_007,20,Female,2024-04-05_11h15.49.249,jersey_experiment_5_v0,2023.2.2,Win32,84.74576271,,,,,,,,,,,,,,,,1052.8107,1054.105,1054.105,1055.8458,return,0.8555,,50.390625,,,,,,FBP-YG-19.png,0.37,1.2,27,0.5,,,,,,,,,,,,,0,56,56,26,1,,,,,,,,,,,,,,,,,,,,,,,,,,,,
,,,,,SPR24_007,20,Female,2024-04-05_11h15.49.249,jersey_experiment_5_v0,2023.2.2,Win32,84.74576271,,,,,,,,,,,,,,,,1055.846,1057.1403,1057.1403,1058.6344,return,0.628,,74.34895833,,,,,,FBP-PT-19.png,0.45,1.2,60,0.5,,,,,,,,,,,,,0,57,57,59,1,,,,,,,,,,,,,,,,,,,,,,,,,,,,
,,,,,SPR24_007,20,Female,2024-04-05_11h15.49.249,jersey_experiment_5_v0,2023.2.2,Win32,84.74576271,,,,,,,,,,,,,,,,1058.6346,1059.6813,1059.6814,1062.1285,return,0.5412,,50.13020833,,,,,,FBP-OG-91.png,0.37,1.2,12,0.25,,,,,,,,,,,,,0,58,58,11,1,,,,,,,,,,,,,,,,,,,,,,,,,,,,
,,,,,SPR24_007,20,Female,2024-04-05_11h15.49.249,jersey_experiment_5_v0,2023.2.2,Win32,84.74576271,,,,,,,,,,,,,,,,1062.1287,1063.4229,1063.4229,1064.8111,return,0.625,,73.828125,,,,,,FBP-YG-19.png,0.45,1.2,30,0.5,,,,,,,,,,,,,0,59,59,29,1,,,,,,,,,,,,,,,,,,,,,,,,,,,,
,,,,,SPR24_007,20,Female,2024-04-05_11h15.49.249,jersey_experiment_5_v0,2023.2.2,Win32,84.74576271,,,,,,,,,,,,,,,,1064.8128,1066.1053,1066.1053,1067.7995,return,1.0044,,49.47916667,,,,,,FBP-YG-71.png,0.35,1.2,16,0.5,,,,,,,,,,,,,,,,,,0,0,0,15,1,,,,,,,,,,,,,,,,,,,,,,,
,,,,,SPR24_007,20,Female,2024-04-05_11h15.49.249,jersey_experiment_5_v0,2023.2.2,Win32,84.74576271,,,,,,,,,,,,,,,,1067.7997,1068.8465,1068.8465,1072.3996,return,0.6727,,45.18229167,,,,,,FBP-OG-19.png,0.35,1.2,11,0.25,,,,,,,,,,,,,,,,,,0,1,1,10,1,,,,,,,,,,,,,,,,,,,,,,,
,,,,,SPR24_007,20,Female,2024-04-05_11h15.49.249,jersey_experiment_5_v0,2023.2.2,Win32,84.74576271,,,,,,,,,,,,,,,,1072.3998,1073.4466,1073.4467,1076.188,return,0.6262,,54.16666667,,,,,,FBP-RB-91.png,0.37,1.2,42,0.25,,,,,,,,,,,,,,,,,,0,2,2,41,1,,,,,,,,,,,,,,,,,,,,,,,
,,,,,SPR24_007,20,Female,2024-04-05_11h15.49.249,jersey_experiment_5_v0,2023.2.2,Win32,84.74576271,,,,,,,,,,,,,,,,1076.1883,1077.235,1077.235,1080.6234,return,0.5273,,74.34895833,,,,,,FBP-RB-71.png,0.43,1.2,34,0.25,,,,,,,,,,,,,,,,,,0,3,3,33,1,,,,,,,,,,,,,,,,,,,,,,,
,,,,,SPR24_007,20,Female,2024-04-05_11h15.49.249,jersey_experiment_5_v0,2023.2.2,Win32,84.74576271,,,,,,,,,,,,,,,,1080.6236,1081.6704,1081.6705,1083.6235,return,0.5935,,79.6875,,,,,,FBP-RB-91.png,0.43,1.2,44,0.25,,,,,,,,,,,,,,,,,,0,4,4,43,1,,,,,,,,,,,,,,,,,,,,,,,
,,,,,SPR24_007,20,Female,2024-04-05_11h15.49.249,jersey_experiment_5_v0,2023.2.2,Win32,84.74576271,,,,,,,,,,,,,,,,1083.6238,1084.6706,1084.6706,1093.4357,return,5.4502,,50.26041667,,,,,,FBP-OG-18.png,0.4,1.2,8,0.25,,,,,,,,,,,,,,,,,,0,5,5,7,1,,,,,,,,,,,,,,,,,,,,,,,
,,,,,SPR24_007,20,Female,2024-04-05_11h15.49.249,jersey_experiment_5_v0,2023.2.2,Win32,84.74576271,,,,,,,,,,,,,,,,1093.436,1094.7298,1094.7299,1096.4006,return,0.4945,,74.47916667,,,,,,FBP-YG-91.png,0.45,1.2,30,0.5,,,,,,,,,,,,,,,,,,0,6,6,29,1,,,,,,,,,,,,,,,,,,,,,,,
,,,,,SPR24_007,20,Female,2024-04-05_11h15.49.249,jersey_experiment_5_v0,2023.2.2,Win32,84.74576271,,,,,,,,,,,,,,,,1096.4009,1097.6948,1097.6949,1099.8477,return,0.6657,,93.22916667,,,,,,FBP-PT-91.png,0.45,1.2,60,0.5,,,,,,,,,,,,,,,,,,0,7,7,59,1,,,,,,,,,,,,,,,,,,,,,,,
,,,,,SPR24_007,20,Female,2024-04-05_11h15.49.249,jersey_experiment_5_v0,2023.2.2,Win32,84.74576271,,,,,,,,,,,,,,,,1099.8479,1100.8948,1100.8948,1102.636,return,0.6831,,98.4375,,,,,,FBP-RB-91.png,0.45,1.2,45,0.25,,,,,,,,,,,,,,,,,,0,8,8,44,1,,,,,,,,,,,,,,,,,,,,,,,
,,,,,SPR24_007,20,Female,2024-04-05_11h15.49.249,jersey_experiment_5_v0,2023.2.2,Win32,84.74576271,,,,,,,,,,,,,,,,1102.6363,1103.683,1103.683,1106.0595,return,0.7426,,45.18229167,,,,,,FBP-OG-18.png,0.37,1.2,7,0.25,,,,,,,,,,,,,,,,,,0,9,9,6,1,,,,,,,,,,,,,,,,,,,,,,,
,,,,,SPR24_007,20,Female,2024-04-05_11h15.49.249,jersey_experiment_5_v0,2023.2.2,Win32,84.74576271,,,,,,,,,,,,,,,,1106.0598,1107.354,1107.354,1109.095,return,0.7941,,29.6875,,,,,,FBP-PT-81.png,0.35,1.2,51,0.5,,,,,,,,,,,,,,,,,,0,10,10,50,1,,,,,,,,,,,,,,,,,,,,,,,
,,,,,SPR24_007,20,Female,2024-04-05_11h15.49.249,jersey_experiment_5_v0,2023.2.2,Win32,84.74576271,,,,,,,,,,,,,,,,1109.0952,1110.1422,1110.1422,1112.8599,return,0.7553,,50,,,,,,FBP-OG-17.png,0.4,1.2,3,0.25,,,,,,,,,,,,,,,,,,0,11,11,2,1,,,,,,,,,,,,,,,,,,,,,,,
,,,,,SPR24_007,20,Female,2024-04-05_11h15.49.249,jersey_experiment_5_v0,2023.2.2,Win32,84.74576271,,,,,,,,,,,,,,,,1112.86,1113.907,1113.9071,1117.0836,return,2.0006,,69.921875,,,,,,FBP-RB-71.png,0.45,1.2,35,0.25,,,,,,,,,,,,,,,,,,0,12,12,34,1,,,,,,,,,,,,,,,,,,,,,,,
,,,,,SPR24_007,20,Female,2024-04-05_11h15.49.249,jersey_experiment_5_v0,2023.2.2,Win32,84.74576271,,,,,,,,,,,,,,,,1117.0839,1118.3778,1118.3778,1120.3307,return,1.296,,73.56770833,,,,,,FBP-YG-71.png,0.43,1.2,19,0.5,,,,,,,,,,,,,,,,,,0,13,13,18,1,,,,,,,,,,,,,,,,,,,,,,,
,,,,,SPR24_007,20,Female,2024-04-05_11h15.49.249,jersey_experiment_5_v0,2023.2.2,Win32,84.74576271,,,,,,,,,,,,,,,,1120.331,1121.6248,1121.6249,1124.472,return,1.4404,,79.296875,,,,,,FBP-YG-91.png,0.43,1.2,29,0.5,,,,,,,,,,,,,,,,,,0,14,14,28,1,,,,,,,,,,,,,,,,,,,,,,,
,,,,,SPR24_007,20,Female,2024-04-05_11h15.49.249,jersey_experiment_5_v0,2023.2.2,Win32,84.74576271,,,,,,,,,,,,,,,,1124.4723,1125.7664,1125.7664,1127.2252,return,0.5926,,48.95833333,,,,,,FBP-YG-91.png,0.37,1.2,27,0.5,,,,,,,,,,,,,,,,,,0,15,15,26,1,,,,,,,,,,,,,,,,,,,,,,,
,,,,,SPR24_007,20,Female,2024-04-05_11h15.49.249,jersey_experiment_5_v0,2023.2.2,Win32,84.74576271,,,,,,,,,,,,,,,,1127.2254,1128.5195,1128.5195,1130.2957,return,0.6182,,76.43229167,,,,,,FBP-YG-71.png,0.45,1.2,20,0.5,,,,,,,,,,,,,,,,,,0,16,16,19,1,,,,,,,,,,,,,,,,,,,,,,,
,,,,,SPR24_007,20,Female,2024-04-05_11h15.49.249,jersey_experiment_5_v0,2023.2.2,Win32,84.74576271,,,,,,,,,,,,,,,,1130.296,1131.3429,1131.3429,1137.4489,return,0.8997,,36.06770833,,,,,,FBP-OG-17.png,0.37,1.2,2,0.25,,,,,,,,,,,,,,,,,,0,17,17,1,1,,,,,,,,,,,,,,,,,,,,,,,
,,,,,SPR24_007,20,Female,2024-04-05_11h15.49.249,jersey_experiment_5_v0,2023.2.2,Win32,84.74576271,,,,,,,,,,,,,,,,1137.4491,1138.4963,1138.4963,1141.3081,return,0.7556,,43.359375,,,,,,FBP-OG-19.png,0.4,1.2,13,0.25,,,,,,,,,,,,,,,,,,0,18,18,12,1,,,,,,,,,,,,,,,,,,,,,,,
,,,,,SPR24_007,20,Female,2024-04-05_11h15.49.249,jersey_experiment_5_v0,2023.2.2,Win32,84.74576271,,,,,,,,,,,,,,,,1141.3083,1142.3552,1142.3552,1144.6729,return,0.7294,,49.21875,,,,,,FBP-RB-71.png,0.37,1.2,32,0.25,,,,,,,,,,,,,,,,,,0,19,19,31,1,,,,,,,,,,,,,,,,,,,,,,,
,,,,,SPR24_007,20,Female,2024-04-05_11h15.49.249,jersey_experiment_5_v0,2023.2.2,Win32,84.74576271,,,,,,,,,,,,,,,,1144.6731,1145.9673,1145.9673,1147.414,return,0.5377,,50.26041667,,,,,,FBP-PT-91.png,0.4,1.2,58,0.5,,,,,,,,,,,,,,,,,,0,20,20,57,1,,,,,,,,,,,,,,,,,,,,,,,
,,,,,SPR24_007,20,Female,2024-04-05_11h15.49.249,jersey_experiment_5_v0,2023.2.2,Win32,84.74576271,,,,,,,,,,,,,,,,1147.4142,1148.7085,1148.7086,1150.3436,return,0.6189,,41.796875,,,,,,FBP-YG-81.png,0.35,1.2,21,0.5,,,,,,,,,,,,,,,,,,0,21,21,20,1,,,,,,,,,,,,,,,,,,,,,,,
,,,,,SPR24_007,20,Female,2024-04-05_11h15.49.249,jersey_experiment_5_v0,2023.2.2,Win32,84.74576271,,,,,,,,,,,,,,,,1150.3438,1151.6378,1151.6378,1153.0966,return,0.6041,,40.75520833,,,,,,FBP-PT-71.png,0.37,1.2,47,0.5,,,,,,,,,,,,,,,,,,0,22,22,46,1,,,,,,,,,,,,,,,,,,,,,,,
,,,,,SPR24_007,20,Female,2024-04-05_11h15.49.249,jersey_experiment_5_v0,2023.2.2,Win32,84.74576271,,,,,,,,,,,,,,,,1153.0967,1154.3911,1154.3911,1155.6615,return,0.6595,,74.34895833,,,,,,FBP-YG-81.png,0.45,1.2,25,0.5,,,,,,,,,,,,,,,,,,0,23,23,24,1,,,,,,,,,,,,,,,,,,,,,,,
,,,,,SPR24_007,20,Female,2024-04-05_11h15.49.249,jersey_experiment_5_v0,2023.2.2,Win32,84.74576271,,,,,,,,,,,,,,,,1155.6618,1156.9557,1156.9557,1158.9086,return,1.3295,,74.86979167,,,,,,FBP-PT-91.png,0.43,1.2,59,0.5,,,,,,,,,,,,,,,,,,0,24,24,58,1,,,,,,,,,,,,,,,,,,,,,,,
,,,,,SPR24_007,20,Female,2024-04-05_11h15.49.249,jersey_experiment_5_v0,2023.2.2,Win32,84.74576271,,,,,,,,,,,,,,,,1158.9088,1160.203,1160.203,1162.0382,return,0.9585,,90.234375,,,,,,FBP-PT-81.png,0.45,1.2,55,0.5,,,,,,,,,,,,,,,,,,0,25,25,54,1,,,,,,,,,,,,,,,,,,,,,,,
,,,,,SPR24_007,20,Female,2024-04-05_11h15.49.249,jersey_experiment_5_v0,2023.2.2,Win32,84.74576271,,,,,,,,,,,,,,,,1162.0385,1163.3323,1163.3324,1165.0854,return,0.7543,,97.78645833,,,,,,FBP-PT-81.png,0.43,1.2,54,0.5,,,,,,,,,,,,,,,,,,0,26,26,53,1,,,,,,,,,,,,,,,,,,,,,,,
,,,,,SPR24_007,20,Female,2024-04-05_11h15.49.249,jersey_experiment_5_v0,2023.2.2,Win32,84.74576271,,,,,,,,,,,,,,,,1165.0857,1166.1324,1166.1324,1167.3208,return,0.6387,,96.875,,,,,,FBP-OG-19.png,0.43,1.2,14,0.25,,,,,,,,,,,,,,,,,,0,27,27,13,1,,,,,,,,,,,,,,,,,,,,,,,
,,,,,SPR24_007,20,Female,2024-04-05_11h15.49.249,jersey_experiment_5_v0,2023.2.2,Win32,84.74576271,,,,,,,,,,,,,,,,1167.3211,1168.615,1168.6152,1171.8032,return,0.6245,,97.265625,,,,,,FBP-PT-71.png,0.43,1.2,49,0.5,,,,,,,,,,,,,,,,,,0,28,28,48,1,,,,,,,,,,,,,,,,,,,,,,,
,,,,,SPR24_007,20,Female,2024-04-05_11h15.49.249,jersey_experiment_5_v0,2023.2.2,Win32,84.74576271,,,,,,,,,,,,,,,,1171.8034,1173.0974,1173.0974,1174.9212,return,0.7,,76.5625,,,,,,FBP-YG-91.png,0.4,1.2,28,0.5,,,,,,,,,,,,,,,,,,0,29,29,27,1,,,,,,,,,,,,,,,,,,,,,,,
,,,,,SPR24_007,20,Female,2024-04-05_11h15.49.249,jersey_experiment_5_v0,2023.2.2,Win32,84.74576271,,,,,,,,,,,,,,,,1174.9214,1176.2153,1176.2153,1178.78,return,1.4022,,59.50520833,,,,,,FBP-PT-71.png,0.35,1.2,46,0.5,,,,,,,,,,,,,,,,,,0,30,30,45,1,,,,,,,,,,,,,,,,,,,,,,,
,,,,,SPR24_007,20,Female,2024-04-05_11h15.49.249,jersey_experiment_5_v0,2023.2.2,Win32,84.74576271,,,,,,,,,,,,,,,,1178.7803,1179.827,1179.8271,1181.9684,return,0.7869,,77.99479167,,,,,,FBP-OG-18.png,0.43,1.2,9,0.25,,,,,,,,,,,,,,,,,,0,31,31,8,1,,,,,,,,,,,,,,,,,,,,,,,
,,,,,SPR24_007,20,Female,2024-04-05_11h15.49.249,jersey_experiment_5_v0,2023.2.2,Win32,84.74576271,,,,,,,,,,,,,,,,1181.9686,1183.2625,1183.2625,1185.1803,return,0.579,,63.671875,,,,,,FBP-YG-71.png,0.4,1.2,18,0.5,,,,,,,,,,,,,,,,,,0,32,32,17,1,,,,,,,,,,,,,,,,,,,,,,,
,,,,,SPR24_007,20,Female,2024-04-05_11h15.49.249,jersey_experiment_5_v0,2023.2.2,Win32,84.74576271,,,,,,,,,,,,,,,,1185.1805,1186.2273,1186.2273,1188.3097,return,0.7365,,80.078125,,,,,,FBP-RB-81.png,0.45,1.2,40,0.25,,,,,,,,,,,,,,,,,,0,33,33,39,1,,,,,,,,,,,,,,,,,,,,,,,
,,,,,SPR24_007,20,Female,2024-04-05_11h15.49.249,jersey_experiment_5_v0,2023.2.2,Win32,84.74576271,,,,,,,,,,,,,,,,1188.31,1189.357,1189.357,1191.7924,return,1.2945,,50.65104167,,,,,,FBP-OG-18.png,0.35,1.2,6,0.25,,,,,,,,,,,,,,,,,,0,34,34,5,1,,,,,,,,,,,,,,,,,,,,,,,
,,,,,SPR24_007,20,Female,2024-04-05_11h15.49.249,jersey_experiment_5_v0,2023.2.2,Win32,84.74576271,,,,,,,,,,,,,,,,1191.7926,1193.0864,1193.0865,1196.0749,return,1.3193,,59.375,,,,,,FBP-PT-71.png,0.4,1.2,48,0.5,,,,,,,,,,,,,,,,,,0,35,35,47,1,,,,,,,,,,,,,,,,,,,,,,,
,,,,,SPR24_007,20,Female,2024-04-05_11h15.49.249,jersey_experiment_5_v0,2023.2.2,Win32,84.74576271,,,,,,,,,,,,,,,,1196.0751,1197.1218,1197.1219,1198.8161,return,0.5747,,42.70833333,,,,,,FBP-RB-71.png,0.35,1.2,31,0.25,,,,,,,,,,,,,,,,,,0,36,36,30,1,,,,,,,,,,,,,,,,,,,,,,,
,,,,,SPR24_007,20,Female,2024-04-05_11h15.49.249,jersey_experiment_5_v0,2023.2.2,Win32,84.74576271,,,,,,,,,,,,,,,,1198.8163,1200.1104,1200.1104,1202.0398,return,0.864,,72.91666667,,,,,,FBP-PT-71.png,0.45,1.2,50,0.5,,,,,,,,,,,,,,,,,,0,37,37,49,1,,,,,,,,,,,,,,,,,,,,,,,
,,,,,SPR24_007,20,Female,2024-04-05_11h15.49.249,jersey_experiment_5_v0,2023.2.2,Win32,84.74576271,,,,,,,,,,,,,,,,1202.04,1203.3339,1203.334,1205.4633,return,1.1581,,79.03645833,,,,,,FBP-PT-81.png,0.4,1.2,53,0.5,,,,,,,,,,,,,,,,,,0,38,38,52,1,,,,,,,,,,,,,,,,,,,,,,,
,,,,,SPR24_007,20,Female,2024-04-05_11h15.49.249,jersey_experiment_5_v0,2023.2.2,Win32,84.74576271,,,,,,,,,,,,,,,,1205.4636,1206.7575,1206.7575,1208.9694,return,0.8273,,81.90104167,,,,,,FBP-YG-81.png,0.43,1.2,24,0.5,,,,,,,,,,,,,,,,,,0,39,39,23,1,,,,,,,,,,,,,,,,,,,,,,,
,,,,,SPR24_007,20,Female,2024-04-05_11h15.49.249,jersey_experiment_5_v0,2023.2.2,Win32,84.74576271,,,,,,,,,,,,,,,,1208.9696,1210.2636,1210.2636,1214.6403,return,0.6824,,71.74479167,,,,,,FBP-PT-81.png,0.37,1.2,52,0.5,,,,,,,,,,,,,,,,,,0,40,40,51,1,,,,,,,,,,,,,,,,,,,,,,,
,,,,,SPR24_007,20,Female,2024-04-05_11h15.49.249,jersey_experiment_5_v0,2023.2.2,Win32,84.74576271,,,,,,,,,,,,,,,,1214.6406,1215.6872,1215.6873,1217.0989,return,0.6482,,68.09895833,,,,,,FBP-OG-19.png,0.37,1.2,12,0.25,,,,,,,,,,,,,,,,,,0,41,41,11,1,,,,,,,,,,,,,,,,,,,,,,,
,,,,,SPR24_007,20,Female,2024-04-05_11h15.49.249,jersey_experiment_5_v0,2023.2.2,Win32,84.74576271,,,,,,,,,,,,,,,,1217.0992,1218.1462,1218.1462,1223.0405,return,3.4844,,69.27083333,,,,,,FBP-RB-91.png,0.4,1.2,43,0.25,,,,,,,,,,,,,,,,,,0,42,42,42,1,,,,,,,,,,,,,,,,,,,,,,,
,,,,,SPR24_007,20,Female,2024-04-05_11h15.49.249,jersey_experiment_5_v0,2023.2.2,Win32,84.74576271,,,,,,,,,,,,,,,,1223.0406,1224.0876,1224.0877,1226.1818,return,0.5838,,51.171875,,,,,,FBP-RB-81.png,0.37,1.2,37,0.25,,,,,,,,,,,,,,,,,,0,43,43,36,1,,,,,,,,,,,,,,,,,,,,,,,
,,,,,SPR24_007,20,Female,2024-04-05_11h15.49.249,jersey_experiment_5_v0,2023.2.2,Win32,84.74576271,,,,,,,,,,,,,,,,1226.182,1227.229,1227.229,1228.4643,return,0.5409,,76.04166667,,,,,,FBP-OG-19.png,0.45,1.2,15,0.25,,,,,,,,,,,,,,,,,,0,44,44,14,1,,,,,,,,,,,,,,,,,,,,,,,
,,,,,SPR24_007,20,Female,2024-04-05_11h15.49.249,jersey_experiment_5_v0,2023.2.2,Win32,84.74576271,,,,,,,,,,,,,,,,1228.4645,1229.5115,1229.5115,1231.2644,return,0.6124,,78.38541667,,,,,,FBP-OG-18.png,0.45,1.2,10,0.25,,,,,,,,,,,,,,,,,,0,45,45,9,1,,,,,,,,,,,,,,,,,,,,,,,
,,,,,SPR24_007,20,Female,2024-04-05_11h15.49.249,jersey_experiment_5_v0,2023.2.2,Win32,84.74576271,,,,,,,,,,,,,,,,1231.2646,1232.5586,1232.5586,1235.8411,return,0.5656,,69.01041667,,,,,,FBP-YG-81.png,0.4,1.2,23,0.5,,,,,,,,,,,,,,,,,,0,46,46,22,1,,,,,,,,,,,,,,,,,,,,,,,
,,,,,SPR24_007,20,Female,2024-04-05_11h15.49.249,jersey_experiment_5_v0,2023.2.2,Win32,84.74576271,,,,,,,,,,,,,,,,1235.8413,1237.1351,1237.1351,1239.2059,return,0.562,,60.41666667,,,,,,FBP-YG-71.png,0.37,1.2,17,0.5,,,,,,,,,,,,,,,,,,0,47,47,16,1,,,,,,,,,,,,,,,,,,,,,,,
,,,,,SPR24_007,20,Female,2024-04-05_11h15.49.249,jersey_experiment_5_v0,2023.2.2,Win32,84.74576271,,,,,,,,,,,,,,,,1239.2061,1240.2529,1240.2529,1241.9001,return,0.5768,,49.21875,,,,,,FBP-RB-91.png,0.35,1.2,41,0.25,,,,,,,,,,,,,,,,,,0,48,48,40,1,,,,,,,,,,,,,,,,,,,,,,,
,,,,,SPR24_007,20,Female,2024-04-05_11h15.49.249,jersey_experiment_5_v0,2023.2.2,Win32,84.74576271,,,,,,,,,,,,,,,,1241.9003,1243.1941,1243.1942,1244.959,return,1.0226,,49.609375,,,,,,FBP-YG-91.png,0.35,1.2,26,0.5,,,,,,,,,,,,,,,,,,0,49,49,25,1,,,,,,,,,,,,,,,,,,,,,,,
,,,,,SPR24_007,20,Female,2024-04-05_11h15.49.249,jersey_experiment_5_v0,2023.2.2,Win32,84.74576271,,,,,,,,,,,,,,,,1244.9593,1246.0061,1246.0062,1247.5474,return,0.6254,,66.40625,,,,,,FBP-OG-17.png,0.43,1.2,4,0.25,,,,,,,,,,,,,,,,,,0,50,50,3,1,,,,,,,,,,,,,,,,,,,,,,,
,,,,,SPR24_007,20,Female,2024-04-05_11h15.49.249,jersey_experiment_5_v0,2023.2.2,Win32,84.74576271,,,,,,,,,,,,,,,,1247.5477,1248.5945,1248.5945,1250.0298,return,0.6359,,79.296875,,,,,,FBP-RB-81.png,0.43,1.2,39,0.25,,,,,,,,,,,,,,,,,,0,51,51,38,1,,,,,,,,,,,,,,,,,,,,,,,
,,,,,SPR24_007,20,Female,2024-04-05_11h15.49.249,jersey_experiment_5_v0,2023.2.2,Win32,84.74576271,,,,,,,,,,,,,,,,1250.0302,1251.0768,1251.0769,1253.2652,return,0.574,,58.203125,,,,,,FBP-OG-17.png,0.35,1.2,1,0.25,,,,,,,,,,,,,,,,,,0,52,52,0,1,,,,,,,,,,,,,,,,,,,,,,,
,,,,,SPR24_007,20,Female,2024-04-05_11h15.49.249,jersey_experiment_5_v0,2023.2.2,Win32,84.74576271,,,,,,,,,,,,,,,,1253.2654,1254.5595,1254.5595,1256.0653,return,0.5885,,49.47916667,,,,,,FBP-PT-91.png,0.35,1.2,56,0.5,,,,,,,,,,,,,,,,,,0,53,53,55,1,,,,,,,,,,,,,,,,,,,,,,,
,,,,,SPR24_007,20,Female,2024-04-05_11h15.49.249,jersey_experiment_5_v0,2023.2.2,Win32,84.74576271,,,,,,,,,,,,,,,,1256.0655,1257.1123,1257.1124,1258.9242,return,0.6025,,49.73958333,,,,,,FBP-RB-81.png,0.35,1.2,36,0.25,,,,,,,,,,,,,,,,,,0,54,54,35,1,,,,,,,,,,,,,,,,,,,,,,,
,,,,,SPR24_007,20,Female,2024-04-05_11h15.49.249,jersey_experiment_5_v0,2023.2.2,Win32,84.74576271,,,,,,,,,,,,,,,,1258.9244,1260.2184,1260.2184,1261.9361,return,0.7302,,59.375,,,,,,FBP-YG-81.png,0.37,1.2,22,0.5,,,,,,,,,,,,,,,,,,0,55,55,21,1,,,,,,,,,,,,,,,,,,,,,,,
,,,,,SPR24_007,20,Female,2024-04-05_11h15.49.249,jersey_experiment_5_v0,2023.2.2,Win32,84.74576271,,,,,,,,,,,,,,,,1261.9363,1263.2303,1263.2303,1267.0657,return,1.0051,,58.203125,,,,,,FBP-PT-91.png,0.37,1.2,57,0.5,,,,,,,,,,,,,,,,,,0,56,56,56,1,,,,,,,,,,,,,,,,,,,,,,,
,,,,,SPR24_007,20,Female,2024-04-05_11h15.49.249,jersey_experiment_5_v0,2023.2.2,Win32,84.74576271,,,,,,,,,,,,,,,,1267.0659,1268.1128,1268.1128,1269.6893,return,0.7815,,73.69791667,,,,,,FBP-OG-17.png,0.45,1.2,5,0.25,,,,,,,,,,,,,,,,,,0,57,57,4,1,,,,,,,,,,,,,,,,,,,,,,,
,,,,,SPR24_007,20,Female,2024-04-05_11h15.49.249,jersey_experiment_5_v0,2023.2.2,Win32,84.74576271,,,,,,,,,,,,,,,,1269.6894,1270.7365,1270.7365,1273.5602,return,0.6776,,67.578125,,,,,,FBP-RB-71.png,0.4,1.2,33,0.25,,,,,,,,,,,,,,,,,,0,58,58,32,1,,,,,,,,,,,,,,,,,,,,,,,
,,,,,SPR24_007,20,Female,2024-04-05_11h15.49.249,jersey_experiment_5_v0,2023.2.2,Win32,84.74576271,,,,,,,,,,,,,,,,1273.5604,1274.6072,1274.6072,1277.1367,return,1.1202,,75.26041667,,,,,,FBP-RB-81.png,0.4,1.2,38,0.25,,,,,,,,,,,,,,,,,,0,59,59,37,1,,,,,,,,,,,,,,,,,,,,,,,
,,,,,SPR24_007,20,Female,2024-04-05_11h15.49.249,jersey_experiment_5_v0,2023.2.2,Win32,84.74576271,,,,,,,,,,,,,,,,,,,,,,,,,,,,,,,,,,,,,,,,,,,,,,,,,,,,,,,,1277.1371,1282.2666,return,5.1212,,,,,,,,,,,,,,,,,,,
,,,,,SPR24_007,20,Female,2024-04-05_11h15.49.249,jersey_experiment_5_v0,2023.2.2,Win32,84.74576271,,,,,,,,,,,,,,,,,,,,,,,,,,,,,,,,,,,,,,,,,,,,,,,,,,,,,,,,,,,,,1282.2668,1288.8784,1,4.7425,return,1.8484,,,,,,,,,,,,
,,,,,SPR24_007,20,Female,2024-04-05_11h15.49.249,jersey_experiment_5_v0,2023.2.2,Win32,84.74576271,,,,,,,,,,,,,,,,,,,,,,,,,,,,,,,,,,,,,,,,,,,,,,,,,,,,,,,,,,,,,,,,,,,,1288.8785,1447.5364,"Possibly comparing how people perceive body types of certain races versus others? Seeing how answers to this task change after the two minute break? I recognized that there would sometimes be players that were the same size, one after the other -- sometimes I would set them at the same place in the scale but other times I wouldn't catch it and change it for the second player.",right,155.2876,,,,,,
,,,,,SPR24_007,20,Female,2024-04-05_11h15.49.249,jersey_experiment_5_v0,2023.2.2,Win32,84.74576271,,,,,,,,,,,,,,,,,,,,,,,,,,,,,,,,,,,,,,,,,,,,,,,,,,,,,,,,,,,,,,,,,,,,,,,,,,1447.5366,1451.4021,return,3.8574,