requirements.started,requirements.stopped,key_resp_3.keys,key_resp_3.rt,key_resp_3.duration,Subject ID,Age,Gender,date,expName,psychopyVersion,OS,frameRate,instructions1.started,instructions1.stopped,key_resp.keys,key_resp.rt,key_resp.duration,example.started,example.stopped,enter_2.keys,enter_2.rt,enter_2.duration,instructions2.started,instructions2.stopped,enter_3.keys,enter_3.rt,enter_3.duration,image.started,image.stopped,slider_2.started,slider_2.stopped,next.keys,next.rt,next.duration,slider.response,trial_block_1.thisRepN,trial_block_1.thisTrialN,trial_block_1.thisN,trial_block_1.thisIndex,trial_block_1.ran,Path,Width,Height,Index,Duration,trial_block_2.thisRepN,trial_block_2.thisTrialN,trial_block_2.thisN,trial_block_2.thisIndex,trial_block_2.ran,rest_break.started,rest_break.stopped,end_break.started,end_break.stopped,key_resp_5.keys,key_resp_5.rt,key_resp_5.duration,trial_block_3.thisRepN,trial_block_3.thisTrialN,trial_block_3.thisN,trial_block_3.thisIndex,trial_block_3.ran,trial_block_4.thisRepN,trial_block_4.thisTrialN,trial_block_4.thisN,trial_block_4.thisIndex,trial_block_4.ran,questions_intro.started,questions_intro.stopped,enter_12.keys,enter_12.rt,enter_12.duration,question2.started,question2.stopped,question_doingbest.response,question_doingbest.rt,enter_15.keys,enter_15.rt,enter_15.duration,pattern.started,pattern.stopped,pattern_2.text,enter_17.keys,enter_17.rt,enter_17.duration,thankyou.started,thankyou.stopped,enter_14.keys,enter_14.rt,enter_14.duration
0.0001,13.1735,return,13.1677,,SPR24_058,19,Female,2024-04-17_10h30.22.305,jersey_experiment_5_v0,2023.2.2,Win32,84.74576271,,,,,,,,,,,,,,,,,,,,,,,,,,,,,,,,,,,,,,,,,,,,,,,,,,,,,,,,,,,,,,,,,,,,,,,,,,,,,,
,,,,,SPR24_058,19,Female,2024-04-17_10h30.22.305,jersey_experiment_5_v0,2023.2.2,Win32,84.74576271,13.1736,23.5532,return,10.3673,,,,,,,,,,,,,,,,,,,,,,,,,,,,,,,,,,,,,,,,,,,,,,,,,,,,,,,,,,,,,,,,,,,,,,,,,,
,,,,,SPR24_058,19,Female,2024-04-17_10h30.22.305,jersey_experiment_5_v0,2023.2.2,Win32,84.74576271,,,,,,23.5534,27.7887,return,4.1903,,,,,,,,,,,,,,,,,,,,,,,,,,,,,,,,,,,,,,,,,,,,,,,,,,,,,,,,,,,,,,,,,,,,,
,,,,,SPR24_058,19,Female,2024-04-17_10h30.22.305,jersey_experiment_5_v0,2023.2.2,Win32,84.74576271,,,,,,,,,,,27.7889,51.6483,return,23.8452,,,,,,,,,,,,,,,,,,,,,,,,,,,,,,,,,,,,,,,,,,,,,,,,,,,,,,,,,,,,,,,,
,,,,,SPR24_058,19,Female,2024-04-17_10h30.22.305,jersey_experiment_5_v0,2023.2.2,Win32,84.74576271,,,,,,,,,,,,,,,,51.6621,52.7071,52.7076,73.5196,return,6.2393,,64.97395833,0,0,0,23,1,FBP-YG-18.png,0.43,1.2,24,0.25,,,,,,,,,,,,,,,,,,,,,,,,,,,,,,,,,,,,,,,,,,,,,
,,,,,SPR24_058,19,Female,2024-04-17_10h30.22.305,jersey_experiment_5_v0,2023.2.2,Win32,84.74576271,,,,,,,,,,,,,,,,73.5204,74.5662,74.5664,82.0369,return,3.165,,74.73958333,0,1,1,18,1,FBP-YG-17.png,0.43,1.2,19,0.25,,,,,,,,,,,,,,,,,,,,,,,,,,,,,,,,,,,,,,,,,,,,,
,,,,,SPR24_058,19,Female,2024-04-17_10h30.22.305,jersey_experiment_5_v0,2023.2.2,Win32,84.74576271,,,,,,,,,,,,,,,,82.0468,83.3431,83.3433,93.3315,return,2.7422,,72.65625,0,2,2,3,1,FBP-OG-71.png,0.43,1.2,4,0.5,,,,,,,,,,,,,,,,,,,,,,,,,,,,,,,,,,,,,,,,,,,,,
,,,,,SPR24_058,19,Female,2024-04-17_10h30.22.305,jersey_experiment_5_v0,2023.2.2,Win32,84.74576271,,,,,,,,,,,,,,,,93.3411,94.6372,94.6372,101.8377,return,1.9707,,33.07291667,0,3,3,6,1,FBP-OG-81.png,0.37,1.2,7,0.5,,,,,,,,,,,,,,,,,,,,,,,,,,,,,,,,,,,,,,,,,,,,,
,,,,,SPR24_058,19,Female,2024-04-17_10h30.22.305,jersey_experiment_5_v0,2023.2.2,Win32,84.74576271,,,,,,,,,,,,,,,,101.8381,102.885,102.8851,108.144,return,2.3805,,76.43229167,0,4,4,53,1,FBP-PT-18.png,0.43,1.2,54,0.25,,,,,,,,,,,,,,,,,,,,,,,,,,,,,,,,,,,,,,,,,,,,,
,,,,,SPR24_058,19,Female,2024-04-17_10h30.22.305,jersey_experiment_5_v0,2023.2.2,Win32,84.74576271,,,,,,,,,,,,,,,,108.1444,109.191,109.1912,119.909,return,4.7766,,40.10416667,0,5,5,55,1,FBP-PT-19.png,0.35,1.2,56,0.25,,,,,,,,,,,,,,,,,,,,,,,,,,,,,,,,,,,,,,,,,,,,,
,,,,,SPR24_058,19,Female,2024-04-17_10h30.22.305,jersey_experiment_5_v0,2023.2.2,Win32,84.74576271,,,,,,,,,,,,,,,,119.9184,120.968,120.9681,127.1564,return,1.7658,,80.72916667,0,6,6,28,1,FBP-YG-19.png,0.43,1.2,29,0.25,,,,,,,,,,,,,,,,,,,,,,,,,,,,,,,,,,,,,,,,,,,,,
,,,,,SPR24_058,19,Female,2024-04-17_10h30.22.305,jersey_experiment_5_v0,2023.2.2,Win32,84.74576271,,,,,,,,,,,,,,,,127.1568,128.4505,128.4506,136.7214,return,5.9087,,83.203125,0,7,7,38,1,FBP-RB-18.png,0.43,1.2,39,0.5,,,,,,,,,,,,,,,,,,,,,,,,,,,,,,,,,,,,,,,,,,,,,
,,,,,SPR24_058,19,Female,2024-04-17_10h30.22.305,jersey_experiment_5_v0,2023.2.2,Win32,84.74576271,,,,,,,,,,,,,,,,136.7307,138.0274,138.0276,142.3215,return,1.5085,,85.41666667,0,8,8,8,1,FBP-OG-81.png,0.43,1.2,9,0.5,,,,,,,,,,,,,,,,,,,,,,,,,,,,,,,,,,,,,,,,,,,,,
,,,,,SPR24_058,19,Female,2024-04-17_10h30.22.305,jersey_experiment_5_v0,2023.2.2,Win32,84.74576271,,,,,,,,,,,,,,,,142.322,143.6159,143.616,148.6041,return,2.5722,,55.59895833,0,9,9,37,1,FBP-RB-18.png,0.4,1.2,38,0.5,,,,,,,,,,,,,,,,,,,,,,,,,,,,,,,,,,,,,,,,,,,,,
,,,,,SPR24_058,19,Female,2024-04-17_10h30.22.305,jersey_experiment_5_v0,2023.2.2,Win32,84.74576271,,,,,,,,,,,,,,,,148.6046,149.6514,149.6515,163.0988,return,10.5151,,65.88541667,0,10,10,17,1,FBP-YG-17.png,0.4,1.2,18,0.25,,,,,,,,,,,,,,,,,,,,,,,,,,,,,,,,,,,,,,,,,,,,,
,,,,,SPR24_058,19,Female,2024-04-17_10h30.22.305,jersey_experiment_5_v0,2023.2.2,Win32,84.74576271,,,,,,,,,,,,,,,,163.1083,164.4051,164.4051,177.2994,return,6.7303,,60.80729167,0,11,11,41,1,FBP-RB-19.png,0.37,1.2,42,0.5,,,,,,,,,,,,,,,,,,,,,,,,,,,,,,,,,,,,,,,,,,,,,
,,,,,SPR24_058,19,Female,2024-04-17_10h30.22.305,jersey_experiment_5_v0,2023.2.2,Win32,84.74576271,,,,,,,,,,,,,,,,177.2999,178.3468,178.3469,192.4532,return,1.471,,68.88020833,0,12,12,15,1,FBP-YG-17.png,0.35,1.2,16,0.25,,,,,,,,,,,,,,,,,,,,,,,,,,,,,,,,,,,,,,,,,,,,,
,,,,,SPR24_058,19,Female,2024-04-17_10h30.22.305,jersey_experiment_5_v0,2023.2.2,Win32,84.74576271,,,,,,,,,,,,,,,,192.4536,193.5003,193.5004,198.4296,return,2.2414,,75.13020833,0,13,13,52,1,FBP-PT-18.png,0.4,1.2,53,0.25,,,,,,,,,,,,,,,,,,,,,,,,,,,,,,,,,,,,,,,,,,,,,
,,,,,SPR24_058,19,Female,2024-04-17_10h30.22.305,jersey_experiment_5_v0,2023.2.2,Win32,84.74576271,,,,,,,,,,,,,,,,198.43,199.4769,199.477,204.7004,return,2.513,,87.5,0,14,14,58,1,FBP-PT-19.png,0.43,1.2,59,0.25,,,,,,,,,,,,,,,,,,,,,,,,,,,,,,,,,,,,,,,,,,,,,
,,,,,SPR24_058,19,Female,2024-04-17_10h30.22.305,jersey_experiment_5_v0,2023.2.2,Win32,84.74576271,,,,,,,,,,,,,,,,204.7009,205.7479,205.748,214.348,return,5.1609,,70.57291667,0,15,15,51,1,FBP-PT-18.png,0.37,1.2,52,0.25,,,,,,,,,,,,,,,,,,,,,,,,,,,,,,,,,,,,,,,,,,,,,
,,,,,SPR24_058,19,Female,2024-04-17_10h30.22.305,jersey_experiment_5_v0,2023.2.2,Win32,84.74576271,,,,,,,,,,,,,,,,214.3565,215.6541,215.6542,227.313,return,9.25,,80.46875,0,16,16,43,1,FBP-RB-19.png,0.43,1.2,44,0.5,,,,,,,,,,,,,,,,,,,,,,,,,,,,,,,,,,,,,,,,,,,,,
,,,,,SPR24_058,19,Female,2024-04-17_10h30.22.305,jersey_experiment_5_v0,2023.2.2,Win32,84.74576271,,,,,,,,,,,,,,,,227.3211,228.3722,228.3724,233.9016,return,2.2295,,73.56770833,0,17,17,22,1,FBP-YG-18.png,0.4,1.2,23,0.25,,,,,,,,,,,,,,,,,,,,,,,,,,,,,,,,,,,,,,,,,,,,,
,,,,,SPR24_058,19,Female,2024-04-17_10h30.22.305,jersey_experiment_5_v0,2023.2.2,Win32,84.74576271,,,,,,,,,,,,,,,,233.9022,234.9489,234.9491,239.1253,return,1.5651,,73.69791667,0,18,18,27,1,FBP-YG-19.png,0.4,1.2,28,0.25,,,,,,,,,,,,,,,,,,,,,,,,,,,,,,,,,,,,,,,,,,,,,
,,,,,SPR24_058,19,Female,2024-04-17_10h30.22.305,jersey_experiment_5_v0,2023.2.2,Win32,84.74576271,,,,,,,,,,,,,,,,239.1257,240.1726,240.1727,248.6904,return,5.5781,,47.00520833,0,19,19,50,1,FBP-PT-18.png,0.35,1.2,51,0.25,,,,,,,,,,,,,,,,,,,,,,,,,,,,,,,,,,,,,,,,,,,,,
,,,,,SPR24_058,19,Female,2024-04-17_10h30.22.305,jersey_experiment_5_v0,2023.2.2,Win32,84.74576271,,,,,,,,,,,,,,,,248.6909,249.7377,249.7378,254.5143,return,1.9896,,80.859375,0,20,20,59,1,FBP-PT-19.png,0.45,1.2,60,0.25,,,,,,,,,,,,,,,,,,,,,,,,,,,,,,,,,,,,,,,,,,,,,
,,,,,SPR24_058,19,Female,2024-04-17_10h30.22.305,jersey_experiment_5_v0,2023.2.2,Win32,84.74576271,,,,,,,,,,,,,,,,254.5148,255.8085,255.8086,266.644,return,3.589,,83.85416667,0,21,21,42,1,FBP-RB-19.png,0.4,1.2,43,0.5,,,,,,,,,,,,,,,,,,,,,,,,,,,,,,,,,,,,,,,,,,,,,
,,,,,SPR24_058,19,Female,2024-04-17_10h30.22.305,jersey_experiment_5_v0,2023.2.2,Win32,84.74576271,,,,,,,,,,,,,,,,266.6445,267.6914,267.6915,271.6911,return,1.7732,,91.015625,0,22,22,48,1,FBP-PT-17.png,0.43,1.2,49,0.25,,,,,,,,,,,,,,,,,,,,,,,,,,,,,,,,,,,,,,,,,,,,,
,,,,,SPR24_058,19,Female,2024-04-17_10h30.22.305,jersey_experiment_5_v0,2023.2.2,Win32,84.74576271,,,,,,,,,,,,,,,,271.6916,272.9856,272.9857,276.4326,return,1.3793,,89.58333333,0,23,23,34,1,FBP-RB-17.png,0.45,1.2,35,0.5,,,,,,,,,,,,,,,,,,,,,,,,,,,,,,,,,,,,,,,,,,,,,
,,,,,SPR24_058,19,Female,2024-04-17_10h30.22.305,jersey_experiment_5_v0,2023.2.2,Win32,84.74576271,,,,,,,,,,,,,,,,276.4331,277.7269,277.727,284.4683,return,3.6717,,52.99479167,0,24,24,10,1,FBP-OG-91.png,0.35,1.2,11,0.5,,,,,,,,,,,,,,,,,,,,,,,,,,,,,,,,,,,,,,,,,,,,,
,,,,,SPR24_058,19,Female,2024-04-17_10h30.22.305,jersey_experiment_5_v0,2023.2.2,Win32,84.74576271,,,,,,,,,,,,,,,,284.4777,285.5273,285.5274,291.3864,return,2.2215,,83.46354167,0,25,25,54,1,FBP-PT-18.png,0.45,1.2,55,0.25,,,,,,,,,,,,,,,,,,,,,,,,,,,,,,,,,,,,,,,,,,,,,
,,,,,SPR24_058,19,Female,2024-04-17_10h30.22.305,jersey_experiment_5_v0,2023.2.2,Win32,84.74576271,,,,,,,,,,,,,,,,291.3868,292.4334,292.4335,300.1159,return,2.3421,,59.50520833,0,26,26,46,1,FBP-PT-17.png,0.37,1.2,47,0.25,,,,,,,,,,,,,,,,,,,,,,,,,,,,,,,,,,,,,,,,,,,,,
,,,,,SPR24_058,19,Female,2024-04-17_10h30.22.305,jersey_experiment_5_v0,2023.2.2,Win32,84.74576271,,,,,,,,,,,,,,,,300.1163,301.4103,301.4104,310.128,return,6.0746,,59.24479167,0,27,27,11,1,FBP-OG-91.png,0.37,1.2,12,0.5,,,,,,,,,,,,,,,,,,,,,,,,,,,,,,,,,,,,,,,,,,,,,
,,,,,SPR24_058,19,Female,2024-04-17_10h30.22.305,jersey_experiment_5_v0,2023.2.2,Win32,84.74576271,,,,,,,,,,,,,,,,310.1374,311.4341,311.4342,315.0107,return,1.4719,,56.640625,0,28,28,5,1,FBP-OG-81.png,0.35,1.2,6,0.5,,,,,,,,,,,,,,,,,,,,,,,,,,,,,,,,,,,,,,,,,,,,,
,,,,,SPR24_058,19,Female,2024-04-17_10h30.22.305,jersey_experiment_5_v0,2023.2.2,Win32,84.74576271,,,,,,,,,,,,,,,,315.011,316.305,316.3051,326.411,return,1.7732,,55.20833333,0,29,29,1,1,FBP-OG-71.png,0.37,1.2,2,0.5,,,,,,,,,,,,,,,,,,,,,,,,,,,,,,,,,,,,,,,,,,,,,
,,,,,SPR24_058,19,Female,2024-04-17_10h30.22.305,jersey_experiment_5_v0,2023.2.2,Win32,84.74576271,,,,,,,,,,,,,,,,326.4115,327.7054,327.7055,331.2112,return,1.3496,,71.875,0,30,30,14,1,FBP-OG-91.png,0.45,1.2,15,0.5,,,,,,,,,,,,,,,,,,,,,,,,,,,,,,,,,,,,,,,,,,,,,
,,,,,SPR24_058,19,Female,2024-04-17_10h30.22.305,jersey_experiment_5_v0,2023.2.2,Win32,84.74576271,,,,,,,,,,,,,,,,331.2115,332.5055,332.5056,339.1879,return,1.6833,,60.9375,0,31,31,0,1,FBP-OG-71.png,0.35,1.2,1,0.5,,,,,,,,,,,,,,,,,,,,,,,,,,,,,,,,,,,,,,,,,,,,,
,,,,,SPR24_058,19,Female,2024-04-17_10h30.22.305,jersey_experiment_5_v0,2023.2.2,Win32,84.74576271,,,,,,,,,,,,,,,,339.1885,340.2353,340.2354,344.5065,return,1.3982,,58.984375,0,32,32,25,1,FBP-YG-19.png,0.35,1.2,26,0.25,,,,,,,,,,,,,,,,,,,,,,,,,,,,,,,,,,,,,,,,,,,,,
,,,,,SPR24_058,19,Female,2024-04-17_10h30.22.305,jersey_experiment_5_v0,2023.2.2,Win32,84.74576271,,,,,,,,,,,,,,,,344.5068,345.5532,345.5534,356.8473,return,1.1107,,52.47395833,0,33,33,26,1,FBP-YG-19.png,0.37,1.2,27,0.25,,,,,,,,,,,,,,,,,,,,,,,,,,,,,,,,,,,,,,,,,,,,,
,,,,,SPR24_058,19,Female,2024-04-17_10h30.22.305,jersey_experiment_5_v0,2023.2.2,Win32,84.74576271,,,,,,,,,,,,,,,,356.8478,357.8947,357.8948,363.3653,return,2.8241,,85.41666667,0,34,34,49,1,FBP-PT-17.png,0.45,1.2,50,0.25,,,,,,,,,,,,,,,,,,,,,,,,,,,,,,,,,,,,,,,,,,,,,
,,,,,SPR24_058,19,Female,2024-04-17_10h30.22.305,jersey_experiment_5_v0,2023.2.2,Win32,84.74576271,,,,,,,,,,,,,,,,363.3657,364.6602,364.6606,368.5302,return,2.084,,87.5,0,35,35,13,1,FBP-OG-91.png,0.43,1.2,14,0.5,,,,,,,,,,,,,,,,,,,,,,,,,,,,,,,,,,,,,,,,,,,,,
,,,,,SPR24_058,19,Female,2024-04-17_10h30.22.305,jersey_experiment_5_v0,2023.2.2,Win32,84.74576271,,,,,,,,,,,,,,,,368.5307,369.5775,369.5776,376.413,return,2.101,,54.55729167,0,36,36,16,1,FBP-YG-17.png,0.37,1.2,17,0.25,,,,,,,,,,,,,,,,,,,,,,,,,,,,,,,,,,,,,,,,,,,,,
,,,,,SPR24_058,19,Female,2024-04-17_10h30.22.305,jersey_experiment_5_v0,2023.2.2,Win32,84.74576271,,,,,,,,,,,,,,,,376.4135,377.7074,377.7075,384.1073,return,3.879,,75.52083333,0,37,37,32,1,FBP-RB-17.png,0.4,1.2,33,0.5,,,,,,,,,,,,,,,,,,,,,,,,,,,,,,,,,,,,,,,,,,,,,
,,,,,SPR24_058,19,Female,2024-04-17_10h30.22.305,jersey_experiment_5_v0,2023.2.2,Win32,84.74576271,,,,,,,,,,,,,,,,384.1077,385.4017,385.4018,389.6487,return,1.8274,,77.34375,0,38,38,33,1,FBP-RB-17.png,0.43,1.2,34,0.5,,,,,,,,,,,,,,,,,,,,,,,,,,,,,,,,,,,,,,,,,,,,,
,,,,,SPR24_058,19,Female,2024-04-17_10h30.22.305,jersey_experiment_5_v0,2023.2.2,Win32,84.74576271,,,,,,,,,,,,,,,,389.6491,390.9431,390.9432,393.884,return,1.0663,,81.640625,0,39,39,39,1,FBP-RB-18.png,0.45,1.2,40,0.5,,,,,,,,,,,,,,,,,,,,,,,,,,,,,,,,,,,,,,,,,,,,,
,,,,,SPR24_058,19,Female,2024-04-17_10h30.22.305,jersey_experiment_5_v0,2023.2.2,Win32,84.74576271,,,,,,,,,,,,,,,,393.8846,395.1785,395.1786,398.1784,return,1.0837,,82.29166667,0,40,40,12,1,FBP-OG-91.png,0.4,1.2,13,0.5,,,,,,,,,,,,,,,,,,,,,,,,,,,,,,,,,,,,,,,,,,,,,
,,,,,SPR24_058,19,Female,2024-04-17_10h30.22.305,jersey_experiment_5_v0,2023.2.2,Win32,84.74576271,,,,,,,,,,,,,,,,398.1788,399.4727,399.4728,403.6139,return,1.5821,,85.9375,0,41,41,7,1,FBP-OG-81.png,0.4,1.2,8,0.5,,,,,,,,,,,,,,,,,,,,,,,,,,,,,,,,,,,,,,,,,,,,,
,,,,,SPR24_058,19,Female,2024-04-17_10h30.22.305,jersey_experiment_5_v0,2023.2.2,Win32,84.74576271,,,,,,,,,,,,,,,,403.6143,404.9083,404.9083,408.4023,return,1.2133,,85.02604167,0,42,42,36,1,FBP-RB-18.png,0.37,1.2,37,0.5,,,,,,,,,,,,,,,,,,,,,,,,,,,,,,,,,,,,,,,,,,,,,
,,,,,SPR24_058,19,Female,2024-04-17_10h30.22.305,jersey_experiment_5_v0,2023.2.2,Win32,84.74576271,,,,,,,,,,,,,,,,408.4027,409.4497,409.4498,415.0731,return,2.8966,,88.28125,0,43,43,57,1,FBP-PT-19.png,0.4,1.2,58,0.25,,,,,,,,,,,,,,,,,,,,,,,,,,,,,,,,,,,,,,,,,,,,,
,,,,,SPR24_058,19,Female,2024-04-17_10h30.22.305,jersey_experiment_5_v0,2023.2.2,Win32,84.74576271,,,,,,,,,,,,,,,,415.0736,416.1207,416.1209,420.9324,return,2.2127,,87.63020833,0,44,44,47,1,FBP-PT-17.png,0.4,1.2,48,0.25,,,,,,,,,,,,,,,,,,,,,,,,,,,,,,,,,,,,,,,,,,,,,
,,,,,SPR24_058,19,Female,2024-04-17_10h30.22.305,jersey_experiment_5_v0,2023.2.2,Win32,84.74576271,,,,,,,,,,,,,,,,420.9328,422.2266,422.2267,435.7798,return,10.3422,,49.47916667,0,45,45,35,1,FBP-RB-18.png,0.35,1.2,36,0.5,,,,,,,,,,,,,,,,,,,,,,,,,,,,,,,,,,,,,,,,,,,,,
,,,,,SPR24_058,19,Female,2024-04-17_10h30.22.305,jersey_experiment_5_v0,2023.2.2,Win32,84.74576271,,,,,,,,,,,,,,,,435.7802,437.0743,437.0744,440.3211,return,1.0965,,90.75520833,0,46,46,9,1,FBP-OG-81.png,0.45,1.2,10,0.5,,,,,,,,,,,,,,,,,,,,,,,,,,,,,,,,,,,,,,,,,,,,,
,,,,,SPR24_058,19,Female,2024-04-17_10h30.22.305,jersey_experiment_5_v0,2023.2.2,Win32,84.74576271,,,,,,,,,,,,,,,,440.3216,441.6155,441.6156,444.9448,return,1.2261,,60.9375,0,47,47,31,1,FBP-RB-17.png,0.37,1.2,32,0.5,,,,,,,,,,,,,,,,,,,,,,,,,,,,,,,,,,,,,,,,,,,,,
,,,,,SPR24_058,19,Female,2024-04-17_10h30.22.305,jersey_experiment_5_v0,2023.2.2,Win32,84.74576271,,,,,,,,,,,,,,,,444.9453,445.9922,445.9923,460.2749,return,8.1419,,49.21875,0,48,48,20,1,FBP-YG-18.png,0.35,1.2,21,0.25,,,,,,,,,,,,,,,,,,,,,,,,,,,,,,,,,,,,,,,,,,,,,
,,,,,SPR24_058,19,Female,2024-04-17_10h30.22.305,jersey_experiment_5_v0,2023.2.2,Win32,84.74576271,,,,,,,,,,,,,,,,460.2755,461.5692,461.5693,464.322,return,0.8132,,78.90625,0,49,49,4,1,FBP-OG-71.png,0.45,1.2,5,0.5,,,,,,,,,,,,,,,,,,,,,,,,,,,,,,,,,,,,,,,,,,,,,
,,,,,SPR24_058,19,Female,2024-04-17_10h30.22.305,jersey_experiment_5_v0,2023.2.2,Win32,84.74576271,,,,,,,,,,,,,,,,464.3225,465.3701,465.3703,468.2517,return,1.0198,,84.89583333,0,50,50,19,1,FBP-YG-17.png,0.45,1.2,20,0.25,,,,,,,,,,,,,,,,,,,,,,,,,,,,,,,,,,,,,,,,,,,,,
,,,,,SPR24_058,19,Female,2024-04-17_10h30.22.305,jersey_experiment_5_v0,2023.2.2,Win32,84.74576271,,,,,,,,,,,,,,,,468.2521,469.5461,469.5462,475.8283,return,1.4125,,63.28125,0,51,51,30,1,FBP-RB-17.png,0.35,1.2,31,0.5,,,,,,,,,,,,,,,,,,,,,,,,,,,,,,,,,,,,,,,,,,,,,
,,,,,SPR24_058,19,Female,2024-04-17_10h30.22.305,jersey_experiment_5_v0,2023.2.2,Win32,84.74576271,,,,,,,,,,,,,,,,475.8289,476.8756,476.8758,480.1227,return,1.2677,,58.07291667,0,52,52,21,1,FBP-YG-18.png,0.37,1.2,22,0.25,,,,,,,,,,,,,,,,,,,,,,,,,,,,,,,,,,,,,,,,,,,,,
,,,,,SPR24_058,19,Female,2024-04-17_10h30.22.305,jersey_experiment_5_v0,2023.2.2,Win32,84.74576271,,,,,,,,,,,,,,,,480.1231,481.17,481.17,484.6756,return,1.1765,,65.625,0,53,53,56,1,FBP-PT-19.png,0.37,1.2,57,0.25,,,,,,,,,,,,,,,,,,,,,,,,,,,,,,,,,,,,,,,,,,,,,
,,,,,SPR24_058,19,Female,2024-04-17_10h30.22.305,jersey_experiment_5_v0,2023.2.2,Win32,84.74576271,,,,,,,,,,,,,,,,484.6761,485.9701,485.9702,497.9943,return,3.692,,48.046875,0,54,54,40,1,FBP-RB-19.png,0.35,1.2,41,0.5,,,,,,,,,,,,,,,,,,,,,,,,,,,,,,,,,,,,,,,,,,,,,
,,,,,SPR24_058,19,Female,2024-04-17_10h30.22.305,jersey_experiment_5_v0,2023.2.2,Win32,84.74576271,,,,,,,,,,,,,,,,497.9947,499.0413,499.0413,505.7706,return,4.9974,,81.90104167,0,55,55,24,1,FBP-YG-18.png,0.45,1.2,25,0.25,,,,,,,,,,,,,,,,,,,,,,,,,,,,,,,,,,,,,,,,,,,,,
,,,,,SPR24_058,19,Female,2024-04-17_10h30.22.305,jersey_experiment_5_v0,2023.2.2,Win32,84.74576271,,,,,,,,,,,,,,,,505.7711,506.818,506.8181,509.9238,return,1.1653,,84.375,0,56,56,29,1,FBP-YG-19.png,0.45,1.2,30,0.25,,,,,,,,,,,,,,,,,,,,,,,,,,,,,,,,,,,,,,,,,,,,,
,,,,,SPR24_058,19,Female,2024-04-17_10h30.22.305,jersey_experiment_5_v0,2023.2.2,Win32,84.74576271,,,,,,,,,,,,,,,,509.9243,511.2181,511.2182,515.9945,return,1.1032,,66.66666667,0,57,57,2,1,FBP-OG-71.png,0.4,1.2,3,0.5,,,,,,,,,,,,,,,,,,,,,,,,,,,,,,,,,,,,,,,,,,,,,
,,,,,SPR24_058,19,Female,2024-04-17_10h30.22.305,jersey_experiment_5_v0,2023.2.2,Win32,84.74576271,,,,,,,,,,,,,,,,515.995,517.0419,517.0421,521.3594,return,1.1569,,65.49479167,0,58,58,45,1,FBP-PT-17.png,0.35,1.2,46,0.25,,,,,,,,,,,,,,,,,,,,,,,,,,,,,,,,,,,,,,,,,,,,,
,,,,,SPR24_058,19,Female,2024-04-17_10h30.22.305,jersey_experiment_5_v0,2023.2.2,Win32,84.74576271,,,,,,,,,,,,,,,,521.3598,522.6539,522.654,525.5008,return,1.101,,76.69270833,0,59,59,44,1,FBP-RB-19.png,0.45,1.2,45,0.5,,,,,,,,,,,,,,,,,,,,,,,,,,,,,,,,,,,,,,,,,,,,,
,,,,,SPR24_058,19,Female,2024-04-17_10h30.22.305,jersey_experiment_5_v0,2023.2.2,Win32,84.74576271,,,,,,,,,,,,,,,,525.5076,526.5599,526.5601,530.2186,return,1.0914,,80.98958333,,,,,,FBP-PT-91.png,0.45,1.2,60,0.25,0,0,0,59,1,,,,,,,,,,,,,,,,,,,,,,,,,,,,,,,,,,,,,,,,
,,,,,SPR24_058,19,Female,2024-04-17_10h30.22.305,jersey_experiment_5_v0,2023.2.2,Win32,84.74576271,,,,,,,,,,,,,,,,530.2196,531.513,531.5131,534.7482,return,1.1014,,83.203125,,,,,,FBP-RB-71.png,0.4,1.2,33,0.5,0,1,1,32,1,,,,,,,,,,,,,,,,,,,,,,,,,,,,,,,,,,,,,,,,
,,,,,SPR24_058,19,Female,2024-04-17_10h30.22.305,jersey_experiment_5_v0,2023.2.2,Win32,84.74576271,,,,,,,,,,,,,,,,534.7488,536.0426,536.0427,539.4666,return,1.292,,83.07291667,,,,,,FBP-RB-81.png,0.43,1.2,39,0.5,0,2,2,38,1,,,,,,,,,,,,,,,,,,,,,,,,,,,,,,,,,,,,,,,,
,,,,,SPR24_058,19,Female,2024-04-17_10h30.22.305,jersey_experiment_5_v0,2023.2.2,Win32,84.74576271,,,,,,,,,,,,,,,,539.467,540.7604,540.7606,545.9015,return,2.205,,63.80208333,,,,,,FBP-RB-71.png,0.35,1.2,31,0.5,0,3,3,30,1,,,,,,,,,,,,,,,,,,,,,,,,,,,,,,,,,,,,,,,,
,,,,,SPR24_058,19,Female,2024-04-17_10h30.22.305,jersey_experiment_5_v0,2023.2.2,Win32,84.74576271,,,,,,,,,,,,,,,,545.9019,546.9488,546.949,550.6077,return,1.157,,59.765625,,,,,,FBP-PT-81.png,0.35,1.2,51,0.25,0,4,4,50,1,,,,,,,,,,,,,,,,,,,,,,,,,,,,,,,,,,,,,,,,
,,,,,SPR24_058,19,Female,2024-04-17_10h30.22.305,jersey_experiment_5_v0,2023.2.2,Win32,84.74576271,,,,,,,,,,,,,,,,550.6082,551.655,551.6551,561.7256,return,5.4295,,74.47916667,,,,,,FBP-YG-91.png,0.45,1.2,30,0.25,0,5,5,29,1,,,,,,,,,,,,,,,,,,,,,,,,,,,,,,,,,,,,,,,,
,,,,,SPR24_058,19,Female,2024-04-17_10h30.22.305,jersey_experiment_5_v0,2023.2.2,Win32,84.74576271,,,,,,,,,,,,,,,,561.7348,562.7848,562.785,567.9377,return,2.39,,60.41666667,,,,,,FBP-PT-71.png,0.4,1.2,48,0.25,0,6,6,47,1,,,,,,,,,,,,,,,,,,,,,,,,,,,,,,,,,,,,,,,,
,,,,,SPR24_058,19,Female,2024-04-17_10h30.22.305,jersey_experiment_5_v0,2023.2.2,Win32,84.74576271,,,,,,,,,,,,,,,,567.9382,569.2328,569.2329,574.2909,return,2.554,,75.52083333,,,,,,FBP-RB-81.png,0.45,1.2,40,0.5,0,7,7,39,1,,,,,,,,,,,,,,,,,,,,,,,,,,,,,,,,,,,,,,,,
,,,,,SPR24_058,19,Female,2024-04-17_10h30.22.305,jersey_experiment_5_v0,2023.2.2,Win32,84.74576271,,,,,,,,,,,,,,,,574.2913,575.3382,575.3384,578.7856,return,1.0846,,53.515625,,,,,,FBP-YG-71.png,0.35,1.2,16,0.25,0,8,8,15,1,,,,,,,,,,,,,,,,,,,,,,,,,,,,,,,,,,,,,,,,
,,,,,SPR24_058,19,Female,2024-04-17_10h30.22.305,jersey_experiment_5_v0,2023.2.2,Win32,84.74576271,,,,,,,,,,,,,,,,578.786,580.0795,580.0797,582.7383,return,1.0365,,52.21354167,,,,,,FBP-OG-17.png,0.35,1.2,1,0.5,0,9,9,0,1,,,,,,,,,,,,,,,,,,,,,,,,,,,,,,,,,,,,,,,,
,,,,,SPR24_058,19,Female,2024-04-17_10h30.22.305,jersey_experiment_5_v0,2023.2.2,Win32,84.74576271,,,,,,,,,,,,,,,,582.7388,583.7856,583.7857,586.9972,return,1.0472,,52.86458333,,,,,,FBP-YG-91.png,0.4,1.2,28,0.25,0,10,10,27,1,,,,,,,,,,,,,,,,,,,,,,,,,,,,,,,,,,,,,,,,
,,,,,SPR24_058,19,Female,2024-04-17_10h30.22.305,jersey_experiment_5_v0,2023.2.2,Win32,84.74576271,,,,,,,,,,,,,,,,586.9977,588.0445,588.0445,591.5505,return,1.1227,,64.71354167,,,,,,FBP-PT-91.png,0.43,1.2,59,0.25,0,11,11,58,1,,,,,,,,,,,,,,,,,,,,,,,,,,,,,,,,,,,,,,,,
,,,,,SPR24_058,19,Female,2024-04-17_10h30.22.305,jersey_experiment_5_v0,2023.2.2,Win32,84.74576271,,,,,,,,,,,,,,,,591.551,592.5977,592.5979,595.5035,return,1.2747,,64.97395833,,,,,,FBP-YG-81.png,0.4,1.2,23,0.25,0,12,12,22,1,,,,,,,,,,,,,,,,,,,,,,,,,,,,,,,,,,,,,,,,
,,,,,SPR24_058,19,Female,2024-04-17_10h30.22.305,jersey_experiment_5_v0,2023.2.2,Win32,84.74576271,,,,,,,,,,,,,,,,595.504,596.5508,596.5509,599.1388,return,1.084,,45.44270833,,,,,,FBP-PT-91.png,0.35,1.2,56,0.25,0,13,13,55,1,,,,,,,,,,,,,,,,,,,,,,,,,,,,,,,,,,,,,,,,
,,,,,SPR24_058,19,Female,2024-04-17_10h30.22.305,jersey_experiment_5_v0,2023.2.2,Win32,84.74576271,,,,,,,,,,,,,,,,599.1392,600.1863,600.1865,603.0449,return,0.9887,,56.25,,,,,,FBP-YG-81.png,0.43,1.2,24,0.25,0,14,14,23,1,,,,,,,,,,,,,,,,,,,,,,,,,,,,,,,,,,,,,,,,
,,,,,SPR24_058,19,Female,2024-04-17_10h30.22.305,jersey_experiment_5_v0,2023.2.2,Win32,84.74576271,,,,,,,,,,,,,,,,603.0453,604.0922,604.0924,607.151,return,1.4517,,46.35416667,,,,,,FBP-PT-71.png,0.35,1.2,46,0.25,0,15,15,45,1,,,,,,,,,,,,,,,,,,,,,,,,,,,,,,,,,,,,,,,,
,,,,,SPR24_058,19,Female,2024-04-17_10h30.22.305,jersey_experiment_5_v0,2023.2.2,Win32,84.74576271,,,,,,,,,,,,,,,,607.1514,608.1983,608.1984,610.3981,return,0.8995,,58.07291667,,,,,,FBP-PT-81.png,0.45,1.2,55,0.25,0,16,16,54,1,,,,,,,,,,,,,,,,,,,,,,,,,,,,,,,,,,,,,,,,
,,,,,SPR24_058,19,Female,2024-04-17_10h30.22.305,jersey_experiment_5_v0,2023.2.2,Win32,84.74576271,,,,,,,,,,,,,,,,610.3986,611.6926,611.6926,619.0926,return,6.5184,,60.546875,,,,,,FBP-RB-71.png,0.43,1.2,34,0.5,0,17,17,33,1,,,,,,,,,,,,,,,,,,,,,,,,,,,,,,,,,,,,,,,,
,,,,,SPR24_058,19,Female,2024-04-17_10h30.22.305,jersey_experiment_5_v0,2023.2.2,Win32,84.74576271,,,,,,,,,,,,,,,,619.093,620.1399,620.14,623.8343,return,1.3155,,60.67708333,,,,,,FBP-PT-81.png,0.43,1.2,54,0.25,0,18,18,53,1,,,,,,,,,,,,,,,,,,,,,,,,,,,,,,,,,,,,,,,,
,,,,,SPR24_058,19,Female,2024-04-17_10h30.22.305,jersey_experiment_5_v0,2023.2.2,Win32,84.74576271,,,,,,,,,,,,,,,,623.8349,625.1284,625.1284,628.2342,return,1.327,,47.13541667,,,,,,FBP-RB-81.png,0.35,1.2,36,0.5,0,19,19,35,1,,,,,,,,,,,,,,,,,,,,,,,,,,,,,,,,,,,,,,,,
,,,,,SPR24_058,19,Female,2024-04-17_10h30.22.305,jersey_experiment_5_v0,2023.2.2,Win32,84.74576271,,,,,,,,,,,,,,,,628.2346,629.5285,629.5287,632.4107,return,1.0914,,49.21875,,,,,,FBP-RB-91.png,0.37,1.2,42,0.5,0,20,20,41,1,,,,,,,,,,,,,,,,,,,,,,,,,,,,,,,,,,,,,,,,
,,,,,SPR24_058,19,Female,2024-04-17_10h30.22.305,jersey_experiment_5_v0,2023.2.2,Win32,84.74576271,,,,,,,,,,,,,,,,632.4112,633.4581,633.4582,636.3638,return,1.0787,,54.81770833,,,,,,FBP-YG-91.png,0.43,1.2,29,0.25,0,21,21,28,1,,,,,,,,,,,,,,,,,,,,,,,,,,,,,,,,,,,,,,,,
,,,,,SPR24_058,19,Female,2024-04-17_10h30.22.305,jersey_experiment_5_v0,2023.2.2,Win32,84.74576271,,,,,,,,,,,,,,,,636.3643,637.6579,637.6579,640.4934,return,1.1356,,58.46354167,,,,,,FBP-RB-91.png,0.43,1.2,44,0.5,0,22,22,43,1,,,,,,,,,,,,,,,,,,,,,,,,,,,,,,,,,,,,,,,,
,,,,,SPR24_058,19,Female,2024-04-17_10h30.22.305,jersey_experiment_5_v0,2023.2.2,Win32,84.74576271,,,,,,,,,,,,,,,,640.4938,641.7879,641.788,650.9172,return,5.8468,,53.90625,,,,,,FBP-OG-19.png,0.4,1.2,13,0.5,0,23,23,12,1,,,,,,,,,,,,,,,,,,,,,,,,,,,,,,,,,,,,,,,,
,,,,,SPR24_058,19,Female,2024-04-17_10h30.22.305,jersey_experiment_5_v0,2023.2.2,Win32,84.74576271,,,,,,,,,,,,,,,,650.9268,651.9764,651.9765,655.3173,return,1.4828,,51.69270833,,,,,,FBP-YG-91.png,0.37,1.2,27,0.25,0,24,24,26,1,,,,,,,,,,,,,,,,,,,,,,,,,,,,,,,,,,,,,,,,
,,,,,SPR24_058,19,Female,2024-04-17_10h30.22.305,jersey_experiment_5_v0,2023.2.2,Win32,84.74576271,,,,,,,,,,,,,,,,655.3179,656.365,656.3651,660.0471,return,1.7566,,48.17708333,,,,,,FBP-PT-71.png,0.37,1.2,47,0.25,0,25,25,46,1,,,,,,,,,,,,,,,,,,,,,,,,,,,,,,,,,,,,,,,,
,,,,,SPR24_058,19,Female,2024-04-17_10h30.22.305,jersey_experiment_5_v0,2023.2.2,Win32,84.74576271,,,,,,,,,,,,,,,,660.0475,661.3414,661.3416,664.2355,return,1.1727,,48.17708333,,,,,,FBP-RB-91.png,0.4,1.2,43,0.5,0,26,26,42,1,,,,,,,,,,,,,,,,,,,,,,,,,,,,,,,,,,,,,,,,
,,,,,SPR24_058,19,Female,2024-04-17_10h30.22.305,jersey_experiment_5_v0,2023.2.2,Win32,84.74576271,,,,,,,,,,,,,,,,664.236,665.5298,665.53,675.9653,return,4.9474,,46.09375,,,,,,FBP-OG-17.png,0.4,1.2,3,0.5,0,27,27,2,1,,,,,,,,,,,,,,,,,,,,,,,,,,,,,,,,,,,,,,,,
,,,,,SPR24_058,19,Female,2024-04-17_10h30.22.305,jersey_experiment_5_v0,2023.2.2,Win32,84.74576271,,,,,,,,,,,,,,,,675.9658,677.0126,677.0127,680.4008,return,1.1675,,46.484375,,,,,,FBP-PT-81.png,0.4,1.2,53,0.25,0,28,28,52,1,,,,,,,,,,,,,,,,,,,,,,,,,,,,,,,,,,,,,,,,
,,,,,SPR24_058,19,Female,2024-04-17_10h30.22.305,jersey_experiment_5_v0,2023.2.2,Win32,84.74576271,,,,,,,,,,,,,,,,680.4013,681.4481,681.4482,684.5773,return,1.0132,,46.61458333,,,,,,FBP-YG-81.png,0.35,1.2,21,0.25,0,29,29,20,1,,,,,,,,,,,,,,,,,,,,,,,,,,,,,,,,,,,,,,,,
,,,,,SPR24_058,19,Female,2024-04-17_10h30.22.305,jersey_experiment_5_v0,2023.2.2,Win32,84.74576271,,,,,,,,,,,,,,,,684.5778,685.8716,685.8717,694.26,return,5.8832,,28.38541667,,,,,,FBP-RB-71.png,0.37,1.2,32,0.5,0,30,30,31,1,,,,,,,,,,,,,,,,,,,,,,,,,,,,,,,,,,,,,,,,
,,,,,SPR24_058,19,Female,2024-04-17_10h30.22.305,jersey_experiment_5_v0,2023.2.2,Win32,84.74576271,,,,,,,,,,,,,,,,694.2605,695.3074,695.3075,698.2719,return,1.2504,,26.82291667,,,,,,FBP-PT-91.png,0.4,1.2,58,0.25,0,31,31,57,1,,,,,,,,,,,,,,,,,,,,,,,,,,,,,,,,,,,,,,,,
,,,,,SPR24_058,19,Female,2024-04-17_10h30.22.305,jersey_experiment_5_v0,2023.2.2,Win32,84.74576271,,,,,,,,,,,,,,,,698.2723,699.3194,699.3195,703.9312,return,2.3967,,24.73958333,,,,,,FBP-YG-71.png,0.37,1.2,17,0.25,0,32,32,16,1,,,,,,,,,,,,,,,,,,,,,,,,,,,,,,,,,,,,,,,,
,,,,,SPR24_058,19,Female,2024-04-17_10h30.22.305,jersey_experiment_5_v0,2023.2.2,Win32,84.74576271,,,,,,,,,,,,,,,,703.9316,705.2255,705.2255,712.9432,return,3.1224,,49.34895833,,,,,,FBP-OG-18.png,0.45,1.2,10,0.5,0,33,33,9,1,,,,,,,,,,,,,,,,,,,,,,,,,,,,,,,,,,,,,,,,
,,,,,SPR24_058,19,Female,2024-04-17_10h30.22.305,jersey_experiment_5_v0,2023.2.2,Win32,84.74576271,,,,,,,,,,,,,,,,712.9436,713.9906,713.9906,719.308,return,3.6427,,75.390625,,,,,,FBP-YG-71.png,0.45,1.2,20,0.25,0,34,34,19,1,,,,,,,,,,,,,,,,,,,,,,,,,,,,,,,,,,,,,,,,
,,,,,SPR24_058,19,Female,2024-04-17_10h30.22.305,jersey_experiment_5_v0,2023.2.2,Win32,84.74576271,,,,,,,,,,,,,,,,719.3085,720.6026,720.6026,723.9317,return,1.3726,,75.13020833,,,,,,FBP-OG-17.png,0.43,1.2,4,0.5,0,35,35,3,1,,,,,,,,,,,,,,,,,,,,,,,,,,,,,,,,,,,,,,,,
,,,,,SPR24_058,19,Female,2024-04-17_10h30.22.305,jersey_experiment_5_v0,2023.2.2,Win32,84.74576271,,,,,,,,,,,,,,,,723.9322,725.2263,725.2263,729.6026,return,2.1303,,51.43229167,,,,,,FBP-OG-18.png,0.4,1.2,8,0.5,0,36,36,7,1,,,,,,,,,,,,,,,,,,,,,,,,,,,,,,,,,,,,,,,,
,,,,,SPR24_058,19,Female,2024-04-17_10h30.22.305,jersey_experiment_5_v0,2023.2.2,Win32,84.74576271,,,,,,,,,,,,,,,,729.6031,730.8971,730.8971,733.485,return,1.2416,,51.82291667,,,,,,FBP-OG-18.png,0.43,1.2,9,0.5,0,37,37,8,1,,,,,,,,,,,,,,,,,,,,,,,,,,,,,,,,,,,,,,,,
,,,,,SPR24_058,19,Female,2024-04-17_10h30.22.305,jersey_experiment_5_v0,2023.2.2,Win32,84.74576271,,,,,,,,,,,,,,,,733.4854,734.7795,734.7796,739.3796,return,2.8365,,24.73958333,,,,,,FBP-OG-19.png,0.35,1.2,11,0.5,0,38,38,10,1,,,,,,,,,,,,,,,,,,,,,,,,,,,,,,,,,,,,,,,,
,,,,,SPR24_058,19,Female,2024-04-17_10h30.22.305,jersey_experiment_5_v0,2023.2.2,Win32,84.74576271,,,,,,,,,,,,,,,,739.3801,740.4275,740.4276,743.5795,return,1.1257,,24.86979167,,,,,,FBP-YG-81.png,0.37,1.2,22,0.25,0,39,39,21,1,,,,,,,,,,,,,,,,,,,,,,,,,,,,,,,,,,,,,,,,
,,,,,SPR24_058,19,Female,2024-04-17_10h30.22.305,jersey_experiment_5_v0,2023.2.2,Win32,84.74576271,,,,,,,,,,,,,,,,743.5801,744.874,744.8741,749.1327,return,2.1245,,46.09375,,,,,,FBP-RB-81.png,0.4,1.2,38,0.5,0,40,40,37,1,,,,,,,,,,,,,,,,,,,,,,,,,,,,,,,,,,,,,,,,
,,,,,SPR24_058,19,Female,2024-04-17_10h30.22.305,jersey_experiment_5_v0,2023.2.2,Win32,84.74576271,,,,,,,,,,,,,,,,749.1332,750.1801,750.1801,755.4506,return,1.2444,,35.41666667,,,,,,FBP-PT-81.png,0.37,1.2,52,0.25,0,41,41,51,1,,,,,,,,,,,,,,,,,,,,,,,,,,,,,,,,,,,,,,,,
,,,,,SPR24_058,19,Female,2024-04-17_10h30.22.305,jersey_experiment_5_v0,2023.2.2,Win32,84.74576271,,,,,,,,,,,,,,,,755.4511,756.4979,756.498,761.3568,return,1.301,,42.1875,,,,,,FBP-YG-71.png,0.4,1.2,18,0.25,0,42,42,17,1,,,,,,,,,,,,,,,,,,,,,,,,,,,,,,,,,,,,,,,,
,,,,,SPR24_058,19,Female,2024-04-17_10h30.22.305,jersey_experiment_5_v0,2023.2.2,Win32,84.74576271,,,,,,,,,,,,,,,,761.3574,762.405,762.4051,765.451,return,1.3968,,52.60416667,,,,,,FBP-PT-71.png,0.43,1.2,49,0.25,0,43,43,48,1,,,,,,,,,,,,,,,,,,,,,,,,,,,,,,,,,,,,,,,,
,,,,,SPR24_058,19,Female,2024-04-17_10h30.22.305,jersey_experiment_5_v0,2023.2.2,Win32,84.74576271,,,,,,,,,,,,,,,,765.4515,766.7456,766.7457,769.1335,return,1.3001,,52.21354167,,,,,,FBP-RB-81.png,0.37,1.2,37,0.5,0,44,44,36,1,,,,,,,,,,,,,,,,,,,,,,,,,,,,,,,,,,,,,,,,
,,,,,SPR24_058,19,Female,2024-04-17_10h30.22.305,jersey_experiment_5_v0,2023.2.2,Win32,84.74576271,,,,,,,,,,,,,,,,769.1338,770.4279,770.428,773.216,return,1.0037,,57.55208333,,,,,,FBP-OG-19.png,0.45,1.2,15,0.5,0,45,45,14,1,,,,,,,,,,,,,,,,,,,,,,,,,,,,,,,,,,,,,,,,
,,,,,SPR24_058,19,Female,2024-04-17_10h30.22.305,jersey_experiment_5_v0,2023.2.2,Win32,84.74576271,,,,,,,,,,,,,,,,773.2166,774.2633,774.2635,777.1807,return,1.0774,,56.77083333,,,,,,FBP-YG-91.png,0.35,1.2,26,0.25,0,46,46,25,1,,,,,,,,,,,,,,,,,,,,,,,,,,,,,,,,,,,,,,,,
,,,,,SPR24_058,19,Female,2024-04-17_10h30.22.305,jersey_experiment_5_v0,2023.2.2,Win32,84.74576271,,,,,,,,,,,,,,,,777.1812,778.4752,778.4754,784.8164,return,4.3916,,75.78125,,,,,,FBP-RB-71.png,0.45,1.2,35,0.5,0,47,47,34,1,,,,,,,,,,,,,,,,,,,,,,,,,,,,,,,,,,,,,,,,
,,,,,SPR24_058,19,Female,2024-04-17_10h30.22.305,jersey_experiment_5_v0,2023.2.2,Win32,84.74576271,,,,,,,,,,,,,,,,784.8169,785.8638,785.8639,788.8519,return,1.0832,,75.65104167,,,,,,FBP-YG-71.png,0.43,1.2,19,0.25,0,48,48,18,1,,,,,,,,,,,,,,,,,,,,,,,,,,,,,,,,,,,,,,,,
,,,,,SPR24_058,19,Female,2024-04-17_10h30.22.305,jersey_experiment_5_v0,2023.2.2,Win32,84.74576271,,,,,,,,,,,,,,,,788.8524,790.1463,790.1464,796.5704,return,4.9157,,76.5625,,,,,,FBP-OG-19.png,0.43,1.2,14,0.5,0,49,49,13,1,,,,,,,,,,,,,,,,,,,,,,,,,,,,,,,,,,,,,,,,
,,,,,SPR24_058,19,Female,2024-04-17_10h30.22.305,jersey_experiment_5_v0,2023.2.2,Win32,84.74576271,,,,,,,,,,,,,,,,796.5709,797.8642,797.8643,802.8052,return,1.5177,,52.60416667,,,,,,FBP-OG-17.png,0.37,1.2,2,0.5,0,50,50,1,1,,,,,,,,,,,,,,,,,,,,,,,,,,,,,,,,,,,,,,,,
,,,,,SPR24_058,19,Female,2024-04-17_10h30.22.305,jersey_experiment_5_v0,2023.2.2,Win32,84.74576271,,,,,,,,,,,,,,,,802.8056,804.0997,804.0999,807.382,return,1.1296,,40.49479167,,,,,,FBP-OG-18.png,0.35,1.2,6,0.5,0,51,51,5,1,,,,,,,,,,,,,,,,,,,,,,,,,,,,,,,,,,,,,,,,
,,,,,SPR24_058,19,Female,2024-04-17_10h30.22.305,jersey_experiment_5_v0,2023.2.2,Win32,84.74576271,,,,,,,,,,,,,,,,807.3825,808.4293,808.4294,812.3234,return,1.0595,,60.15625,,,,,,FBP-PT-91.png,0.37,1.2,57,0.25,0,52,52,56,1,,,,,,,,,,,,,,,,,,,,,,,,,,,,,,,,,,,,,,,,
,,,,,SPR24_058,19,Female,2024-04-17_10h30.22.305,jersey_experiment_5_v0,2023.2.2,Win32,84.74576271,,,,,,,,,,,,,,,,812.3238,813.6177,813.6178,816.5118,return,1.4982,,81.90104167,,,,,,FBP-OG-17.png,0.45,1.2,5,0.5,0,53,53,4,1,,,,,,,,,,,,,,,,,,,,,,,,,,,,,,,,,,,,,,,,
,,,,,SPR24_058,19,Female,2024-04-17_10h30.22.305,jersey_experiment_5_v0,2023.2.2,Win32,84.74576271,,,,,,,,,,,,,,,,816.5122,817.8066,817.8067,820.7825,return,1.4286,,74.47916667,,,,,,FBP-RB-91.png,0.35,1.2,41,0.5,0,54,54,40,1,,,,,,,,,,,,,,,,,,,,,,,,,,,,,,,,,,,,,,,,
,,,,,SPR24_058,19,Female,2024-04-17_10h30.22.305,jersey_experiment_5_v0,2023.2.2,Win32,84.74576271,,,,,,,,,,,,,,,,820.7829,822.0768,822.0768,831.4769,return,6.73,,72.39583333,,,,,,FBP-OG-18.png,0.37,1.2,7,0.5,0,55,55,6,1,,,,,,,,,,,,,,,,,,,,,,,,,,,,,,,,,,,,,,,,
,,,,,SPR24_058,19,Female,2024-04-17_10h30.22.305,jersey_experiment_5_v0,2023.2.2,Win32,84.74576271,,,,,,,,,,,,,,,,831.4774,832.7714,832.7715,836.7949,return,2.4323,,82.421875,,,,,,FBP-RB-91.png,0.45,1.2,45,0.5,0,56,56,44,1,,,,,,,,,,,,,,,,,,,,,,,,,,,,,,,,,,,,,,,,
,,,,,SPR24_058,19,Female,2024-04-17_10h30.22.305,jersey_experiment_5_v0,2023.2.2,Win32,84.74576271,,,,,,,,,,,,,,,,836.7954,837.8422,837.8423,841.6303,return,1.4405,,93.61979167,,,,,,FBP-PT-71.png,0.45,1.2,50,0.25,0,57,57,49,1,,,,,,,,,,,,,,,,,,,,,,,,,,,,,,,,,,,,,,,,
,,,,,SPR24_058,19,Female,2024-04-17_10h30.22.305,jersey_experiment_5_v0,2023.2.2,Win32,84.74576271,,,,,,,,,,,,,,,,841.6308,842.9247,842.9249,848.8777,return,3.9707,,74.86979167,,,,,,FBP-OG-19.png,0.37,1.2,12,0.5,0,58,58,11,1,,,,,,,,,,,,,,,,,,,,,,,,,,,,,,,,,,,,,,,,
,,,,,SPR24_058,19,Female,2024-04-17_10h30.22.305,jersey_experiment_5_v0,2023.2.2,Win32,84.74576271,,,,,,,,,,,,,,,,848.8781,849.925,849.9251,852.7842,return,0.898,,80.20833333,,,,,,FBP-YG-81.png,0.45,1.2,25,0.25,0,59,59,24,1,,,,,,,,,,,,,,,,,,,,,,,,,,,,,,,,,,,,,,,,
,,,,,SPR24_058,19,Female,2024-04-17_10h30.22.305,jersey_experiment_5_v0,2023.2.2,Win32,84.74576271,,,,,,,,,,,,,,,,,,,,,,,,,,,,,,,,,,,,,,,852.785,972.7781,,,,,,,,,,,,,,,,,,,,,,,,,,,,,,,,,,,,,,
,,,,,SPR24_058,19,Female,2024-04-17_10h30.22.305,jersey_experiment_5_v0,2023.2.2,Win32,84.74576271,,,,,,,,,,,,,,,,,,,,,,,,,,,,,,,,,,,,,,,,,972.7784,986.06,return,13.2705,,,,,,,,,,,,,,,,,,,,,,,,,,,,,,,,,,
,,,,,SPR24_058,19,Female,2024-04-17_10h30.22.305,jersey_experiment_5_v0,2023.2.2,Win32,84.74576271,,,,,,,,,,,,,,,,986.072,987.1184,987.1185,990.5654,return,1.4002,,56.11979167,,,,,,FBP-OG-71.png,0.45,1.2,5,0.25,,,,,,,,,,,,,0,0,0,4,1,,,,,,,,,,,,,,,,,,,,,,,,,,,,
,,,,,SPR24_058,19,Female,2024-04-17_10h30.22.305,jersey_experiment_5_v0,2023.2.2,Win32,84.74576271,,,,,,,,,,,,,,,,990.5665,991.8597,991.8599,994.3069,return,0.9188,,46.22395833,,,,,,FBP-PT-18.png,0.43,1.2,54,0.5,,,,,,,,,,,,,0,1,1,53,1,,,,,,,,,,,,,,,,,,,,,,,,,,,,
,,,,,SPR24_058,19,Female,2024-04-17_10h30.22.305,jersey_experiment_5_v0,2023.2.2,Win32,84.74576271,,,,,,,,,,,,,,,,994.3073,995.3546,995.3547,997.7774,return,0.8843,,59.11458333,,,,,,FBP-OG-91.png,0.45,1.2,15,0.25,,,,,,,,,,,,,0,2,2,14,1,,,,,,,,,,,,,,,,,,,,,,,,,,,,
,,,,,SPR24_058,19,Female,2024-04-17_10h30.22.305,jersey_experiment_5_v0,2023.2.2,Win32,84.74576271,,,,,,,,,,,,,,,,997.7779,999.0724,999.0725,1001.0363,return,0.819,,44.66145833,,,,,,FBP-PT-18.png,0.35,1.2,51,0.5,,,,,,,,,,,,,0,3,3,50,1,,,,,,,,,,,,,,,,,,,,,,,,,,,,
,,,,,SPR24_058,19,Female,2024-04-17_10h30.22.305,jersey_experiment_5_v0,2023.2.2,Win32,84.74576271,,,,,,,,,,,,,,,,1001.0367,1002.3307,1002.3309,1003.8371,return,0.8896,,44.66145833,,,,,,FBP-YG-17.png,0.37,1.2,17,0.5,,,,,,,,,,,,,0,4,4,16,1,,,,,,,,,,,,,,,,,,,,,,,,,,,,
,,,,,SPR24_058,19,Female,2024-04-17_10h30.22.305,jersey_experiment_5_v0,2023.2.2,Win32,84.74576271,,,,,,,,,,,,,,,,1003.8375,1004.8838,1004.8838,1016.284,return,4.6429,,44.79166667,,,,,,FBP-OG-71.png,0.4,1.2,3,0.25,,,,,,,,,,,,,0,5,5,2,1,,,,,,,,,,,,,,,,,,,,,,,,,,,,
,,,,,SPR24_058,19,Female,2024-04-17_10h30.22.305,jersey_experiment_5_v0,2023.2.2,Win32,84.74576271,,,,,,,,,,,,,,,,1016.2932,1017.3433,1017.3434,1021.2136,return,1.3591,,38.15104167,,,,,,FBP-RB-17.png,0.37,1.2,32,0.25,,,,,,,,,,,,,0,6,6,31,1,,,,,,,,,,,,,,,,,,,,,,,,,,,,
,,,,,SPR24_058,19,Female,2024-04-17_10h30.22.305,jersey_experiment_5_v0,2023.2.2,Win32,84.74576271,,,,,,,,,,,,,,,,1021.214,1022.5079,1022.508,1026.1784,return,1.4365,,58.07291667,,,,,,FBP-YG-19.png,0.45,1.2,30,0.5,,,,,,,,,,,,,0,7,7,29,1,,,,,,,,,,,,,,,,,,,,,,,,,,,,
,,,,,SPR24_058,19,Female,2024-04-17_10h30.22.305,jersey_experiment_5_v0,2023.2.2,Win32,84.74576271,,,,,,,,,,,,,,,,1026.1789,1027.4729,1027.4729,1031.0257,return,1.1311,,45.96354167,,,,,,FBP-YG-19.png,0.4,1.2,28,0.5,,,,,,,,,,,,,0,8,8,27,1,,,,,,,,,,,,,,,,,,,,,,,,,,,,
,,,,,SPR24_058,19,Female,2024-04-17_10h30.22.305,jersey_experiment_5_v0,2023.2.2,Win32,84.74576271,,,,,,,,,,,,,,,,1031.0261,1032.073,1032.0732,1037.4259,return,2.6604,,75.390625,,,,,,FBP-OG-71.png,0.43,1.2,4,0.25,,,,,,,,,,,,,0,9,9,3,1,,,,,,,,,,,,,,,,,,,,,,,,,,,,
,,,,,SPR24_058,19,Female,2024-04-17_10h30.22.305,jersey_experiment_5_v0,2023.2.2,Win32,84.74576271,,,,,,,,,,,,,,,,1037.4265,1038.7204,1038.7205,1042.179,return,1.2355,,57.421875,,,,,,FBP-YG-18.png,0.4,1.2,23,0.5,,,,,,,,,,,,,0,10,10,22,1,,,,,,,,,,,,,,,,,,,,,,,,,,,,
,,,,,SPR24_058,19,Female,2024-04-17_10h30.22.305,jersey_experiment_5_v0,2023.2.2,Win32,84.74576271,,,,,,,,,,,,,,,,1042.1795,1043.2264,1043.2265,1046.4494,return,1.2492,,57.94270833,,,,,,FBP-OG-71.png,0.37,1.2,2,0.25,,,,,,,,,,,,,0,11,11,1,1,,,,,,,,,,,,,,,,,,,,,,,,,,,,
,,,,,SPR24_058,19,Female,2024-04-17_10h30.22.305,jersey_experiment_5_v0,2023.2.2,Win32,84.74576271,,,,,,,,,,,,,,,,1046.4496,1047.4966,1047.4966,1055.1089,return,4.6007,,48.828125,,,,,,FBP-OG-91.png,0.4,1.2,13,0.25,,,,,,,,,,,,,0,12,12,12,1,,,,,,,,,,,,,,,,,,,,,,,,,,,,
,,,,,SPR24_058,19,Female,2024-04-17_10h30.22.305,jersey_experiment_5_v0,2023.2.2,Win32,84.74576271,,,,,,,,,,,,,,,,1055.1094,1056.4033,1056.4034,1060.0741,return,1.0333,,38.41145833,,,,,,FBP-PT-17.png,0.35,1.2,46,0.5,,,,,,,,,,,,,0,13,13,45,1,,,,,,,,,,,,,,,,,,,,,,,,,,,,
,,,,,SPR24_058,19,Female,2024-04-17_10h30.22.305,jersey_experiment_5_v0,2023.2.2,Win32,84.74576271,,,,,,,,,,,,,,,,1060.0745,1061.3694,1061.3696,1063.2154,return,0.8514,,64.71354167,,,,,,FBP-PT-17.png,0.45,1.2,50,0.5,,,,,,,,,,,,,0,14,14,49,1,,,,,,,,,,,,,,,,,,,,,,,,,,,,
,,,,,SPR24_058,19,Female,2024-04-17_10h30.22.305,jersey_experiment_5_v0,2023.2.2,Win32,84.74576271,,,,,,,,,,,,,,,,1063.2158,1064.5096,1064.5096,1073.8508,return,5.5382,,62.63020833,,,,,,FBP-YG-18.png,0.45,1.2,25,0.5,,,,,,,,,,,,,0,15,15,24,1,,,,,,,,,,,,,,,,,,,,,,,,,,,,
,,,,,SPR24_058,19,Female,2024-04-17_10h30.22.305,jersey_experiment_5_v0,2023.2.2,Win32,84.74576271,,,,,,,,,,,,,,,,1073.8512,1074.8981,1074.8982,1081.3925,return,4.721,,94.27083333,,,,,,FBP-RB-17.png,0.45,1.2,35,0.25,,,,,,,,,,,,,0,16,16,34,1,,,,,,,,,,,,,,,,,,,,,,,,,,,,
,,,,,SPR24_058,19,Female,2024-04-17_10h30.22.305,jersey_experiment_5_v0,2023.2.2,Win32,84.74576271,,,,,,,,,,,,,,,,1081.393,1082.4397,1082.4397,1087.2984,return,1.3656,,73.828125,,,,,,FBP-RB-19.png,0.43,1.2,44,0.25,,,,,,,,,,,,,0,17,17,43,1,,,,,,,,,,,,,,,,,,,,,,,,,,,,
,,,,,SPR24_058,19,Female,2024-04-17_10h30.22.305,jersey_experiment_5_v0,2023.2.2,Win32,84.74576271,,,,,,,,,,,,,,,,1087.2989,1088.3457,1088.3457,1094.5221,return,1.7152,,45.05208333,,,,,,FBP-OG-81.png,0.35,1.2,6,0.25,,,,,,,,,,,,,0,18,18,5,1,,,,,,,,,,,,,,,,,,,,,,,,,,,,
,,,,,SPR24_058,19,Female,2024-04-17_10h30.22.305,jersey_experiment_5_v0,2023.2.2,Win32,84.74576271,,,,,,,,,,,,,,,,1094.5228,1095.5695,1095.5696,1098.7342,return,1.335,,44.66145833,,,,,,FBP-RB-18.png,0.37,1.2,37,0.25,,,,,,,,,,,,,0,19,19,36,1,,,,,,,,,,,,,,,,,,,,,,,,,,,,
,,,,,SPR24_058,19,Female,2024-04-17_10h30.22.305,jersey_experiment_5_v0,2023.2.2,Win32,84.74576271,,,,,,,,,,,,,,,,1098.7345,1100.0285,1100.0286,1102.429,return,1.1014,,44.79166667,,,,,,FBP-YG-17.png,0.35,1.2,16,0.5,,,,,,,,,,,,,0,20,20,15,1,,,,,,,,,,,,,,,,,,,,,,,,,,,,
,,,,,SPR24_058,19,Female,2024-04-17_10h30.22.305,jersey_experiment_5_v0,2023.2.2,Win32,84.74576271,,,,,,,,,,,,,,,,1102.4293,1103.4767,1103.4768,1105.5462,return,0.7505,,58.33333333,,,,,,FBP-RB-18.png,0.43,1.2,39,0.25,,,,,,,,,,,,,0,21,21,38,1,,,,,,,,,,,,,,,,,,,,,,,,,,,,
,,,,,SPR24_058,19,Female,2024-04-17_10h30.22.305,jersey_experiment_5_v0,2023.2.2,Win32,84.74576271,,,,,,,,,,,,,,,,1105.5467,1106.8406,1106.8407,1110.7698,return,1.2369,,43.61979167,,,,,,FBP-YG-18.png,0.37,1.2,22,0.5,,,,,,,,,,,,,0,22,22,21,1,,,,,,,,,,,,,,,,,,,,,,,,,,,,
,,,,,SPR24_058,19,Female,2024-04-17_10h30.22.305,jersey_experiment_5_v0,2023.2.2,Win32,84.74576271,,,,,,,,,,,,,,,,1110.7703,1112.0642,1112.0643,1115.8406,return,2.5914,,67.05729167,,,,,,FBP-PT-18.png,0.4,1.2,53,0.5,,,,,,,,,,,,,0,23,23,52,1,,,,,,,,,,,,,,,,,,,,,,,,,,,,
,,,,,SPR24_058,19,Female,2024-04-17_10h30.22.305,jersey_experiment_5_v0,2023.2.2,Win32,84.74576271,,,,,,,,,,,,,,,,1115.841,1117.135,1117.1351,1121.3114,return,1.1686,,66.27604167,,,,,,FBP-YG-19.png,0.43,1.2,29,0.5,,,,,,,,,,,,,0,24,24,28,1,,,,,,,,,,,,,,,,,,,,,,,,,,,,
,,,,,SPR24_058,19,Female,2024-04-17_10h30.22.305,jersey_experiment_5_v0,2023.2.2,Win32,84.74576271,,,,,,,,,,,,,,,,1121.312,1122.3587,1122.3589,1125.0762,return,1.0242,,74.86979167,,,,,,FBP-RB-18.png,0.45,1.2,40,0.25,,,,,,,,,,,,,0,25,25,39,1,,,,,,,,,,,,,,,,,,,,,,,,,,,,
,,,,,SPR24_058,19,Female,2024-04-17_10h30.22.305,jersey_experiment_5_v0,2023.2.2,Win32,84.74576271,,,,,,,,,,,,,,,,1125.0766,1126.3707,1126.3707,1132.5001,return,2.9891,,71.09375,,,,,,FBP-PT-19.png,0.43,1.2,59,0.5,,,,,,,,,,,,,0,26,26,58,1,,,,,,,,,,,,,,,,,,,,,,,,,,,,
,,,,,SPR24_058,19,Female,2024-04-17_10h30.22.305,jersey_experiment_5_v0,2023.2.2,Win32,84.74576271,,,,,,,,,,,,,,,,1132.5006,1133.5475,1133.5475,1136.7826,return,1.2521,,68.61979167,,,,,,FBP-RB-17.png,0.4,1.2,33,0.25,,,,,,,,,,,,,0,27,27,32,1,,,,,,,,,,,,,,,,,,,,,,,,,,,,
,,,,,SPR24_058,19,Female,2024-04-17_10h30.22.305,jersey_experiment_5_v0,2023.2.2,Win32,84.74576271,,,,,,,,,,,,,,,,1136.7831,1137.8299,1137.83,1142.2416,return,1.3785,,48.95833333,,,,,,FBP-OG-91.png,0.37,1.2,12,0.25,,,,,,,,,,,,,0,28,28,11,1,,,,,,,,,,,,,,,,,,,,,,,,,,,,
,,,,,SPR24_058,19,Female,2024-04-17_10h30.22.305,jersey_experiment_5_v0,2023.2.2,Win32,84.74576271,,,,,,,,,,,,,,,,1142.2421,1143.2888,1143.2889,1146.2888,return,1.0264,,38.671875,,,,,,FBP-OG-81.png,0.37,1.2,7,0.25,,,,,,,,,,,,,0,29,29,6,1,,,,,,,,,,,,,,,,,,,,,,,,,,,,
,,,,,SPR24_058,19,Female,2024-04-17_10h30.22.305,jersey_experiment_5_v0,2023.2.2,Win32,84.74576271,,,,,,,,,,,,,,,,1146.2892,1147.3362,1147.3363,1150.8184,return,1.0364,,83.85416667,,,,,,FBP-RB-19.png,0.45,1.2,45,0.25,,,,,,,,,,,,,0,30,30,44,1,,,,,,,,,,,,,,,,,,,,,,,,,,,,
,,,,,SPR24_058,19,Female,2024-04-17_10h30.22.305,jersey_experiment_5_v0,2023.2.2,Win32,84.74576271,,,,,,,,,,,,,,,,1150.8189,1151.8657,1151.8657,1154.995,return,0.9772,,75.13020833,,,,,,FBP-OG-81.png,0.43,1.2,9,0.25,,,,,,,,,,,,,0,31,31,8,1,,,,,,,,,,,,,,,,,,,,,,,,,,,,
,,,,,SPR24_058,19,Female,2024-04-17_10h30.22.305,jersey_experiment_5_v0,2023.2.2,Win32,84.74576271,,,,,,,,,,,,,,,,1154.9954,1156.0424,1156.0424,1158.7716,return,0.8948,,75.390625,,,,,,FBP-RB-19.png,0.4,1.2,43,0.25,,,,,,,,,,,,,0,32,32,42,1,,,,,,,,,,,,,,,,,,,,,,,,,,,,
,,,,,SPR24_058,19,Female,2024-04-17_10h30.22.305,jersey_experiment_5_v0,2023.2.2,Win32,84.74576271,,,,,,,,,,,,,,,,1158.7721,1160.066,1160.0662,1172.7368,return,10.2854,,19.79166667,,,,,,FBP-YG-19.png,0.35,1.2,26,0.5,,,,,,,,,,,,,0,33,33,25,1,,,,,,,,,,,,,,,,,,,,,,,,,,,,
,,,,,SPR24_058,19,Female,2024-04-17_10h30.22.305,jersey_experiment_5_v0,2023.2.2,Win32,84.74576271,,,,,,,,,,,,,,,,1172.7374,1173.7841,1173.7842,1177.9018,return,1.2529,,35.546875,,,,,,FBP-RB-19.png,0.37,1.2,42,0.25,,,,,,,,,,,,,0,34,34,41,1,,,,,,,,,,,,,,,,,,,,,,,,,,,,
,,,,,SPR24_058,19,Female,2024-04-17_10h30.22.305,jersey_experiment_5_v0,2023.2.2,Win32,84.74576271,,,,,,,,,,,,,,,,1177.9023,1179.1962,1179.1962,1182.3843,return,1.1092,,80.078125,,,,,,FBP-PT-18.png,0.45,1.2,55,0.5,,,,,,,,,,,,,0,35,35,54,1,,,,,,,,,,,,,,,,,,,,,,,,,,,,
,,,,,SPR24_058,19,Female,2024-04-17_10h30.22.305,jersey_experiment_5_v0,2023.2.2,Win32,84.74576271,,,,,,,,,,,,,,,,1182.3848,1183.6787,1183.6789,1190.0904,return,3.1033,,76.5625,,,,,,FBP-YG-17.png,0.43,1.2,19,0.5,,,,,,,,,,,,,0,36,36,18,1,,,,,,,,,,,,,,,,,,,,,,,,,,,,
,,,,,SPR24_058,19,Female,2024-04-17_10h30.22.305,jersey_experiment_5_v0,2023.2.2,Win32,84.74576271,,,,,,,,,,,,,,,,1190.091,1191.3849,1191.385,1194.3847,return,1.3085,,62.890625,,,,,,FBP-YG-17.png,0.45,1.2,20,0.5,,,,,,,,,,,,,0,37,37,19,1,,,,,,,,,,,,,,,,,,,,,,,,,,,,
,,,,,SPR24_058,19,Female,2024-04-17_10h30.22.305,jersey_experiment_5_v0,2023.2.2,Win32,84.74576271,,,,,,,,,,,,,,,,1194.3853,1195.4321,1195.4321,1198.3501,return,1.2176,,38.41145833,,,,,,FBP-RB-19.png,0.35,1.2,41,0.25,,,,,,,,,,,,,0,38,38,40,1,,,,,,,,,,,,,,,,,,,,,,,,,,,,
,,,,,SPR24_058,19,Female,2024-04-17_10h30.22.305,jersey_experiment_5_v0,2023.2.2,Win32,84.74576271,,,,,,,,,,,,,,,,1198.3505,1199.3969,1199.397,1202.5146,return,1.3304,,62.63020833,,,,,,FBP-OG-91.png,0.43,1.2,14,0.25,,,,,,,,,,,,,0,39,39,13,1,,,,,,,,,,,,,,,,,,,,,,,,,,,,
,,,,,SPR24_058,19,Female,2024-04-17_10h30.22.305,jersey_experiment_5_v0,2023.2.2,Win32,84.74576271,,,,,,,,,,,,,,,,1202.5151,1203.8089,1203.809,1206.7852,return,1.2966,,62.63020833,,,,,,FBP-PT-17.png,0.43,1.2,49,0.5,,,,,,,,,,,,,0,40,40,48,1,,,,,,,,,,,,,,,,,,,,,,,,,,,,
,,,,,SPR24_058,19,Female,2024-04-17_10h30.22.305,jersey_experiment_5_v0,2023.2.2,Win32,84.74576271,,,,,,,,,,,,,,,,1206.7856,1208.0797,1208.0797,1211.5147,return,1.3616,,74.73958333,,,,,,FBP-PT-19.png,0.45,1.2,60,0.5,,,,,,,,,,,,,0,41,41,59,1,,,,,,,,,,,,,,,,,,,,,,,,,,,,
,,,,,SPR24_058,19,Female,2024-04-17_10h30.22.305,jersey_experiment_5_v0,2023.2.2,Win32,84.74576271,,,,,,,,,,,,,,,,1211.5151,1212.8092,1212.8093,1222.1621,return,7.6487,,47.265625,,,,,,FBP-PT-17.png,0.4,1.2,48,0.5,,,,,,,,,,,,,0,42,42,47,1,,,,,,,,,,,,,,,,,,,,,,,,,,,,
,,,,,SPR24_058,19,Female,2024-04-17_10h30.22.305,jersey_experiment_5_v0,2023.2.2,Win32,84.74576271,,,,,,,,,,,,,,,,1222.1625,1223.4568,1223.4569,1226.4799,return,1.3328,,25.26041667,,,,,,FBP-YG-18.png,0.35,1.2,21,0.5,,,,,,,,,,,,,0,43,43,20,1,,,,,,,,,,,,,,,,,,,,,,,,,,,,
,,,,,SPR24_058,19,Female,2024-04-17_10h30.22.305,jersey_experiment_5_v0,2023.2.2,Win32,84.74576271,,,,,,,,,,,,,,,,1226.4805,1227.7744,1227.7745,1231.0568,return,1.2498,,30.59895833,,,,,,FBP-PT-18.png,0.37,1.2,52,0.5,,,,,,,,,,,,,0,44,44,51,1,,,,,,,,,,,,,,,,,,,,,,,,,,,,
,,,,,SPR24_058,19,Female,2024-04-17_10h30.22.305,jersey_experiment_5_v0,2023.2.2,Win32,84.74576271,,,,,,,,,,,,,,,,1231.0572,1232.3511,1232.3513,1235.6804,return,1.4384,,27.734375,,,,,,FBP-PT-19.png,0.35,1.2,56,0.5,,,,,,,,,,,,,0,45,45,55,1,,,,,,,,,,,,,,,,,,,,,,,,,,,,
,,,,,SPR24_058,19,Female,2024-04-17_10h30.22.305,jersey_experiment_5_v0,2023.2.2,Win32,84.74576271,,,,,,,,,,,,,,,,1235.681,1236.7279,1236.7281,1244.9749,return,5.5564,,48.69791667,,,,,,FBP-RB-18.png,0.4,1.2,38,0.25,,,,,,,,,,,,,0,46,46,37,1,,,,,,,,,,,,,,,,,,,,,,,,,,,,
,,,,,SPR24_058,19,Female,2024-04-17_10h30.22.305,jersey_experiment_5_v0,2023.2.2,Win32,84.74576271,,,,,,,,,,,,,,,,1244.9756,1246.0222,1246.0223,1251.5398,return,1.2128,,51.69270833,,,,,,FBP-OG-71.png,0.35,1.2,1,0.25,,,,,,,,,,,,,0,47,47,0,1,,,,,,,,,,,,,,,,,,,,,,,,,,,,
,,,,,SPR24_058,19,Female,2024-04-17_10h30.22.305,jersey_experiment_5_v0,2023.2.2,Win32,84.74576271,,,,,,,,,,,,,,,,1251.5402,1252.5871,1252.5873,1255.8577,return,1.2021,,52.08333333,,,,,,FBP-OG-91.png,0.35,1.2,11,0.25,,,,,,,,,,,,,0,48,48,10,1,,,,,,,,,,,,,,,,,,,,,,,,,,,,
,,,,,SPR24_058,19,Female,2024-04-17_10h30.22.305,jersey_experiment_5_v0,2023.2.2,Win32,84.74576271,,,,,,,,,,,,,,,,1255.8582,1257.1521,1257.1522,1261.1168,return,1.1951,,71.484375,,,,,,FBP-PT-19.png,0.4,1.2,58,0.5,,,,,,,,,,,,,0,49,49,57,1,,,,,,,,,,,,,,,,,,,,,,,,,,,,
,,,,,SPR24_058,19,Female,2024-04-17_10h30.22.305,jersey_experiment_5_v0,2023.2.2,Win32,84.74576271,,,,,,,,,,,,,,,,1261.1172,1262.4109,1262.4109,1266.1638,return,2.2596,,71.875,,,,,,FBP-YG-17.png,0.4,1.2,18,0.5,,,,,,,,,,,,,0,50,50,17,1,,,,,,,,,,,,,,,,,,,,,,,,,,,,
,,,,,SPR24_058,19,Female,2024-04-17_10h30.22.305,jersey_experiment_5_v0,2023.2.2,Win32,84.74576271,,,,,,,,,,,,,,,,1266.1645,1267.4582,1267.4583,1277.0347,return,1.2322,,75.26041667,,,,,,FBP-PT-17.png,0.37,1.2,47,0.5,,,,,,,,,,,,,0,51,51,46,1,,,,,,,,,,,,,,,,,,,,,,,,,,,,
,,,,,SPR24_058,19,Female,2024-04-17_10h30.22.305,jersey_experiment_5_v0,2023.2.2,Win32,84.74576271,,,,,,,,,,,,,,,,1277.0351,1278.0822,1278.0823,1280.976,return,1.0158,,70.18229167,,,,,,FBP-OG-81.png,0.4,1.2,8,0.25,,,,,,,,,,,,,0,52,52,7,1,,,,,,,,,,,,,,,,,,,,,,,,,,,,
,,,,,SPR24_058,19,Female,2024-04-17_10h30.22.305,jersey_experiment_5_v0,2023.2.2,Win32,84.74576271,,,,,,,,,,,,,,,,1280.9762,1282.0233,1282.0234,1284.7173,return,1.0659,,74.47916667,,,,,,FBP-RB-17.png,0.43,1.2,34,0.25,,,,,,,,,,,,,0,53,53,33,1,,,,,,,,,,,,,,,,,,,,,,,,,,,,
,,,,,SPR24_058,19,Female,2024-04-17_10h30.22.305,jersey_experiment_5_v0,2023.2.2,Win32,84.74576271,,,,,,,,,,,,,,,,1284.7174,1286.0128,1286.0128,1288.4832,return,1.2823,,49.47916667,,,,,,FBP-YG-19.png,0.37,1.2,27,0.5,,,,,,,,,,,,,0,54,54,26,1,,,,,,,,,,,,,,,,,,,,,,,,,,,,
,,,,,SPR24_058,19,Female,2024-04-17_10h30.22.305,jersey_experiment_5_v0,2023.2.2,Win32,84.74576271,,,,,,,,,,,,,,,,1288.4833,1289.5291,1289.5291,1292.094,return,1.0177,,49.609375,,,,,,FBP-RB-18.png,0.35,1.2,36,0.25,,,,,,,,,,,,,0,55,55,35,1,,,,,,,,,,,,,,,,,,,,,,,,,,,,
,,,,,SPR24_058,19,Female,2024-04-17_10h30.22.305,jersey_experiment_5_v0,2023.2.2,Win32,84.74576271,,,,,,,,,,,,,,,,1292.0942,1293.1414,1293.1415,1295.8589,return,1.0836,,50,,,,,,FBP-RB-17.png,0.35,1.2,31,0.25,,,,,,,,,,,,,0,56,56,30,1,,,,,,,,,,,,,,,,,,,,,,,,,,,,
,,,,,SPR24_058,19,Female,2024-04-17_10h30.22.305,jersey_experiment_5_v0,2023.2.2,Win32,84.74576271,,,,,,,,,,,,,,,,1295.859,1297.1546,1297.1546,1299.3296,return,1.0847,,50.13020833,,,,,,FBP-PT-19.png,0.37,1.2,57,0.5,,,,,,,,,,,,,0,57,57,56,1,,,,,,,,,,,,,,,,,,,,,,,,,,,,
,,,,,SPR24_058,19,Female,2024-04-17_10h30.22.305,jersey_experiment_5_v0,2023.2.2,Win32,84.74576271,,,,,,,,,,,,,,,,1299.3298,1300.377,1300.3771,1305.3546,return,3.7296,,69.921875,,,,,,FBP-OG-81.png,0.45,1.2,10,0.25,,,,,,,,,,,,,0,58,58,9,1,,,,,,,,,,,,,,,,,,,,,,,,,,,,
,,,,,SPR24_058,19,Female,2024-04-17_10h30.22.305,jersey_experiment_5_v0,2023.2.2,Win32,84.74576271,,,,,,,,,,,,,,,,1305.3547,1306.6489,1306.649,1310.0478,return,1.5695,,72.52604167,,,,,,FBP-YG-18.png,0.43,1.2,24,0.5,,,,,,,,,,,,,0,59,59,23,1,,,,,,,,,,,,,,,,,,,,,,,,,,,,
,,,,,SPR24_058,19,Female,2024-04-17_10h30.22.305,jersey_experiment_5_v0,2023.2.2,Win32,84.74576271,,,,,,,,,,,,,,,,1310.0537,1311.3536,1311.3537,1313.6363,return,0.9428,,78.515625,,,,,,FBP-PT-71.png,0.45,1.2,50,0.5,,,,,,,,,,,,,,,,,,0,0,0,49,1,,,,,,,,,,,,,,,,,,,,,,,
,,,,,SPR24_058,19,Female,2024-04-17_10h30.22.305,jersey_experiment_5_v0,2023.2.2,Win32,84.74576271,,,,,,,,,,,,,,,,1313.6371,1314.6835,1314.6836,1316.8832,return,0.872,,74.34895833,,,,,,FBP-RB-81.png,0.37,1.2,37,0.25,,,,,,,,,,,,,,,,,,0,1,1,36,1,,,,,,,,,,,,,,,,,,,,,,,
,,,,,SPR24_058,19,Female,2024-04-17_10h30.22.305,jersey_experiment_5_v0,2023.2.2,Win32,84.74576271,,,,,,,,,,,,,,,,1316.8835,1318.1778,1318.1779,1320.2835,return,0.8208,,49.73958333,,,,,,FBP-YG-91.png,0.37,1.2,27,0.5,,,,,,,,,,,,,,,,,,0,2,2,26,1,,,,,,,,,,,,,,,,,,,,,,,
,,,,,SPR24_058,19,Female,2024-04-17_10h30.22.305,jersey_experiment_5_v0,2023.2.2,Win32,84.74576271,,,,,,,,,,,,,,,,1320.284,1321.3305,1321.3306,1323.6365,return,0.6953,,53.64583333,,,,,,FBP-OG-17.png,0.4,1.2,3,0.25,,,,,,,,,,,,,,,,,,0,3,3,2,1,,,,,,,,,,,,,,,,,,,,,,,
,,,,,SPR24_058,19,Female,2024-04-17_10h30.22.305,jersey_experiment_5_v0,2023.2.2,Win32,84.74576271,,,,,,,,,,,,,,,,1323.637,1324.6837,1324.6838,1328.4262,return,0.9767,,51.5625,,,,,,FBP-RB-71.png,0.37,1.2,32,0.25,,,,,,,,,,,,,,,,,,0,4,4,31,1,,,,,,,,,,,,,,,,,,,,,,,
,,,,,SPR24_058,19,Female,2024-04-17_10h30.22.305,jersey_experiment_5_v0,2023.2.2,Win32,84.74576271,,,,,,,,,,,,,,,,1328.4264,1329.4722,1329.4723,1332.3556,return,0.8941,,45.96354167,,,,,,FBP-RB-91.png,0.4,1.2,43,0.25,,,,,,,,,,,,,,,,,,0,5,5,42,1,,,,,,,,,,,,,,,,,,,,,,,
,,,,,SPR24_058,19,Female,2024-04-17_10h30.22.305,jersey_experiment_5_v0,2023.2.2,Win32,84.74576271,,,,,,,,,,,,,,,,1332.3558,1333.4019,1333.402,1336.0956,return,1.3689,,55.72916667,,,,,,FBP-OG-19.png,0.43,1.2,14,0.25,,,,,,,,,,,,,,,,,,0,6,6,13,1,,,,,,,,,,,,,,,,,,,,,,,
,,,,,SPR24_058,19,Female,2024-04-17_10h30.22.305,jersey_experiment_5_v0,2023.2.2,Win32,84.74576271,,,,,,,,,,,,,,,,1336.0959,1337.3903,1337.3903,1340.3324,return,1.4237,,55.59895833,,,,,,FBP-YG-81.png,0.45,1.2,25,0.5,,,,,,,,,,,,,,,,,,0,7,7,24,1,,,,,,,,,,,,,,,,,,,,,,,
,,,,,SPR24_058,19,Female,2024-04-17_10h30.22.305,jersey_experiment_5_v0,2023.2.2,Win32,84.74576271,,,,,,,,,,,,,,,,1340.3325,1341.6257,1341.6258,1343.6609,return,0.8313,,75.26041667,,,,,,FBP-YG-91.png,0.45,1.2,30,0.5,,,,,,,,,,,,,,,,,,0,8,8,29,1,,,,,,,,,,,,,,,,,,,,,,,
,,,,,SPR24_058,19,Female,2024-04-17_10h30.22.305,jersey_experiment_5_v0,2023.2.2,Win32,84.74576271,,,,,,,,,,,,,,,,1343.6613,1344.9551,1344.9552,1350.4032,return,2.4353,,64.84375,,,,,,FBP-YG-91.png,0.43,1.2,29,0.5,,,,,,,,,,,,,,,,,,0,9,9,28,1,,,,,,,,,,,,,,,,,,,,,,,
,,,,,SPR24_058,19,Female,2024-04-17_10h30.22.305,jersey_experiment_5_v0,2023.2.2,Win32,84.74576271,,,,,,,,,,,,,,,,1350.4033,1351.6967,1351.6968,1354.0861,return,1.0474,,29.16666667,,,,,,FBP-PT-91.png,0.35,1.2,56,0.5,,,,,,,,,,,,,,,,,,0,10,10,55,1,,,,,,,,,,,,,,,,,,,,,,,
,,,,,SPR24_058,19,Female,2024-04-17_10h30.22.305,jersey_experiment_5_v0,2023.2.2,Win32,84.74576271,,,,,,,,,,,,,,,,1354.0863,1355.1321,1355.1322,1357.4391,return,0.6827,,92.96875,,,,,,FBP-RB-91.png,0.45,1.2,45,0.25,,,,,,,,,,,,,,,,,,0,11,11,44,1,,,,,,,,,,,,,,,,,,,,,,,
,,,,,SPR24_058,19,Female,2024-04-17_10h30.22.305,jersey_experiment_5_v0,2023.2.2,Win32,84.74576271,,,,,,,,,,,,,,,,1357.4393,1358.4851,1358.4852,1360.6377,return,0.8062,,74.73958333,,,,,,FBP-RB-71.png,0.4,1.2,33,0.25,,,,,,,,,,,,,,,,,,0,12,12,32,1,,,,,,,,,,,,,,,,,,,,,,,
,,,,,SPR24_058,19,Female,2024-04-17_10h30.22.305,jersey_experiment_5_v0,2023.2.2,Win32,84.74576271,,,,,,,,,,,,,,,,1360.638,1361.6853,1361.6854,1364.379,return,0.7619,,37.63020833,,,,,,FBP-OG-18.png,0.35,1.2,6,0.25,,,,,,,,,,,,,,,,,,0,13,13,5,1,,,,,,,,,,,,,,,,,,,,,,,
,,,,,SPR24_058,19,Female,2024-04-17_10h30.22.305,jersey_experiment_5_v0,2023.2.2,Win32,84.74576271,,,,,,,,,,,,,,,,1364.3792,1365.4266,1365.4267,1367.3088,return,0.6784,,61.97916667,,,,,,FBP-OG-18.png,0.45,1.2,10,0.25,,,,,,,,,,,,,,,,,,0,14,14,9,1,,,,,,,,,,,,,,,,,,,,,,,
,,,,,SPR24_058,19,Female,2024-04-17_10h30.22.305,jersey_experiment_5_v0,2023.2.2,Win32,84.74576271,,,,,,,,,,,,,,,,1367.3093,1368.356,1368.3561,1370.6394,return,0.7177,,67.05729167,,,,,,FBP-RB-81.png,0.43,1.2,39,0.25,,,,,,,,,,,,,,,,,,0,15,15,38,1,,,,,,,,,,,,,,,,,,,,,,,
,,,,,SPR24_058,19,Female,2024-04-17_10h30.22.305,jersey_experiment_5_v0,2023.2.2,Win32,84.74576271,,,,,,,,,,,,,,,,1370.6396,1371.6857,1371.6858,1375.2266,return,1.8565,,48.17708333,,,,,,FBP-OG-17.png,0.37,1.2,2,0.25,,,,,,,,,,,,,,,,,,0,16,16,1,1,,,,,,,,,,,,,,,,,,,,,,,
,,,,,SPR24_058,19,Female,2024-04-17_10h30.22.305,jersey_experiment_5_v0,2023.2.2,Win32,84.74576271,,,,,,,,,,,,,,,,1375.2268,1376.5211,1376.5212,1378.4281,return,0.6941,,48.4375,,,,,,FBP-YG-71.png,0.37,1.2,17,0.5,,,,,,,,,,,,,,,,,,0,17,17,16,1,,,,,,,,,,,,,,,,,,,,,,,
,,,,,SPR24_058,19,Female,2024-04-17_10h30.22.305,jersey_experiment_5_v0,2023.2.2,Win32,84.74576271,,,,,,,,,,,,,,,,1378.4282,1379.4737,1379.4738,1383.5693,return,2.4941,,75.91145833,,,,,,FBP-OG-17.png,0.43,1.2,4,0.25,,,,,,,,,,,,,,,,,,0,18,18,3,1,,,,,,,,,,,,,,,,,,,,,,,
,,,,,SPR24_058,19,Female,2024-04-17_10h30.22.305,jersey_experiment_5_v0,2023.2.2,Win32,84.74576271,,,,,,,,,,,,,,,,1383.5694,1384.8627,1384.8628,1391.9814,return,1.0826,,72.00520833,,,,,,FBP-PT-71.png,0.4,1.2,48,0.5,,,,,,,,,,,,,,,,,,0,19,19,47,1,,,,,,,,,,,,,,,,,,,,,,,
,,,,,SPR24_058,19,Female,2024-04-17_10h30.22.305,jersey_experiment_5_v0,2023.2.2,Win32,84.74576271,,,,,,,,,,,,,,,,1391.9816,1393.2746,1393.2746,1396.7346,return,1.4003,,45.18229167,,,,,,FBP-PT-91.png,0.4,1.2,58,0.5,,,,,,,,,,,,,,,,,,0,20,20,57,1,,,,,,,,,,,,,,,,,,,,,,,
,,,,,SPR24_058,19,Female,2024-04-17_10h30.22.305,jersey_experiment_5_v0,2023.2.2,Win32,84.74576271,,,,,,,,,,,,,,,,1396.7347,1398.0278,1398.0279,1400.0172,return,0.7062,,43.88020833,,,,,,FBP-YG-71.png,0.4,1.2,18,0.5,,,,,,,,,,,,,,,,,,0,21,21,17,1,,,,,,,,,,,,,,,,,,,,,,,
,,,,,SPR24_058,19,Female,2024-04-17_10h30.22.305,jersey_experiment_5_v0,2023.2.2,Win32,84.74576271,,,,,,,,,,,,,,,,1400.0173,1401.3102,1401.3102,1404.1583,return,0.7057,,74.34895833,,,,,,FBP-YG-81.png,0.43,1.2,24,0.5,,,,,,,,,,,,,,,,,,0,22,22,23,1,,,,,,,,,,,,,,,,,,,,,,,
,,,,,SPR24_058,19,Female,2024-04-17_10h30.22.305,jersey_experiment_5_v0,2023.2.2,Win32,84.74576271,,,,,,,,,,,,,,,,1404.1585,1405.4515,1405.4516,1408.735,return,0.9755,,50.26041667,,,,,,FBP-PT-81.png,0.43,1.2,54,0.5,,,,,,,,,,,,,,,,,,0,23,23,53,1,,,,,,,,,,,,,,,,,,,,,,,
,,,,,SPR24_058,19,Female,2024-04-17_10h30.22.305,jersey_experiment_5_v0,2023.2.2,Win32,84.74576271,,,,,,,,,,,,,,,,1408.7353,1410.0283,1410.0284,1415.3928,return,4.1799,,36.71875,,,,,,FBP-YG-81.png,0.37,1.2,22,0.5,,,,,,,,,,,,,,,,,,0,24,24,21,1,,,,,,,,,,,,,,,,,,,,,,,
,,,,,SPR24_058,19,Female,2024-04-17_10h30.22.305,jersey_experiment_5_v0,2023.2.2,Win32,84.74576271,,,,,,,,,,,,,,,,1415.3969,1416.6999,1416.7,1418.7342,return,0.771,,50,,,,,,FBP-YG-71.png,0.43,1.2,19,0.5,,,,,,,,,,,,,,,,,,0,25,25,18,1,,,,,,,,,,,,,,,,,,,,,,,
,,,,,SPR24_058,19,Female,2024-04-17_10h30.22.305,jersey_experiment_5_v0,2023.2.2,Win32,84.74576271,,,,,,,,,,,,,,,,1418.7346,1419.7813,1419.7814,1421.3473,return,0.7059,,50.13020833,,,,,,FBP-OG-18.png,0.37,1.2,7,0.25,,,,,,,,,,,,,,,,,,0,26,26,6,1,,,,,,,,,,,,,,,,,,,,,,,
,,,,,SPR24_058,19,Female,2024-04-17_10h30.22.305,jersey_experiment_5_v0,2023.2.2,Win32,84.74576271,,,,,,,,,,,,,,,,1421.3476,1422.6406,1422.6406,1424.1932,return,0.8857,,50.13020833,,,,,,FBP-YG-91.png,0.4,1.2,28,0.5,,,,,,,,,,,,,,,,,,0,27,27,27,1,,,,,,,,,,,,,,,,,,,,,,,
,,,,,SPR24_058,19,Female,2024-04-17_10h30.22.305,jersey_experiment_5_v0,2023.2.2,Win32,84.74576271,,,,,,,,,,,,,,,,1424.1937,1425.4876,1425.4878,1430.6993,return,3.0325,,50.13020833,,,,,,FBP-PT-81.png,0.4,1.2,53,0.5,,,,,,,,,,,,,,,,,,0,28,28,52,1,,,,,,,,,,,,,,,,,,,,,,,
,,,,,SPR24_058,19,Female,2024-04-17_10h30.22.305,jersey_experiment_5_v0,2023.2.2,Win32,84.74576271,,,,,,,,,,,,,,,,1430.6995,1431.9938,1431.9939,1433.9229,return,0.7303,,44.921875,,,,,,FBP-YG-71.png,0.35,1.2,16,0.5,,,,,,,,,,,,,,,,,,0,29,29,15,1,,,,,,,,,,,,,,,,,,,,,,,
,,,,,SPR24_058,19,Female,2024-04-17_10h30.22.305,jersey_experiment_5_v0,2023.2.2,Win32,84.74576271,,,,,,,,,,,,,,,,1433.9233,1435.2173,1435.2174,1436.4995,return,0.6127,,57.29166667,,,,,,FBP-PT-71.png,0.43,1.2,49,0.5,,,,,,,,,,,,,,,,,,0,30,30,48,1,,,,,,,,,,,,,,,,,,,,,,,
,,,,,SPR24_058,19,Female,2024-04-17_10h30.22.305,jersey_experiment_5_v0,2023.2.2,Win32,84.74576271,,,,,,,,,,,,,,,,1436.5,1437.794,1437.7942,1446.1598,return,6.0825,,85.67708333,,,,,,FBP-YG-71.png,0.45,1.2,20,0.5,,,,,,,,,,,,,,,,,,0,31,31,19,1,,,,,,,,,,,,,,,,,,,,,,,
,,,,,SPR24_058,19,Female,2024-04-17_10h30.22.305,jersey_experiment_5_v0,2023.2.2,Win32,84.74576271,,,,,,,,,,,,,,,,1446.16,1447.206,1447.2062,1449.6176,return,0.6848,,94.53125,,,,,,FBP-RB-91.png,0.43,1.2,44,0.25,,,,,,,,,,,,,,,,,,0,32,32,43,1,,,,,,,,,,,,,,,,,,,,,,,
,,,,,SPR24_058,19,Female,2024-04-17_10h30.22.305,jersey_experiment_5_v0,2023.2.2,Win32,84.74576271,,,,,,,,,,,,,,,,1449.6178,1450.665,1450.665,1452.6412,return,0.7085,,95.05208333,,,,,,FBP-OG-19.png,0.37,1.2,12,0.25,,,,,,,,,,,,,,,,,,0,33,33,11,1,,,,,,,,,,,,,,,,,,,,,,,
,,,,,SPR24_058,19,Female,2024-04-17_10h30.22.305,jersey_experiment_5_v0,2023.2.2,Win32,84.74576271,,,,,,,,,,,,,,,,1452.6415,1453.6886,1453.6887,1455.372,return,0.6943,,97.00520833,,,,,,FBP-OG-17.png,0.45,1.2,5,0.25,,,,,,,,,,,,,,,,,,0,34,34,4,1,,,,,,,,,,,,,,,,,,,,,,,
,,,,,SPR24_058,19,Female,2024-04-17_10h30.22.305,jersey_experiment_5_v0,2023.2.2,Win32,84.74576271,,,,,,,,,,,,,,,,1455.3721,1456.6652,1456.6653,1459.3604,return,0.7179,,98.4375,,,,,,FBP-PT-91.png,0.43,1.2,59,0.5,,,,,,,,,,,,,,,,,,0,35,35,58,1,,,,,,,,,,,,,,,,,,,,,,,
,,,,,SPR24_058,19,Female,2024-04-17_10h30.22.305,jersey_experiment_5_v0,2023.2.2,Win32,84.74576271,,,,,,,,,,,,,,,,1459.3606,1460.4066,1460.4067,1462.1592,return,0.7812,,98.828125,,,,,,FBP-RB-71.png,0.43,1.2,34,0.25,,,,,,,,,,,,,,,,,,0,36,36,33,1,,,,,,,,,,,,,,,,,,,,,,,
,,,,,SPR24_058,19,Female,2024-04-17_10h30.22.305,jersey_experiment_5_v0,2023.2.2,Win32,84.74576271,,,,,,,,,,,,,,,,1462.1595,1463.2066,1463.2067,1465.0065,return,0.7347,,99.47916667,,,,,,FBP-OG-19.png,0.45,1.2,15,0.25,,,,,,,,,,,,,,,,,,0,37,37,14,1,,,,,,,,,,,,,,,,,,,,,,,
,,,,,SPR24_058,19,Female,2024-04-17_10h30.22.305,jersey_experiment_5_v0,2023.2.2,Win32,84.74576271,,,,,,,,,,,,,,,,1465.0067,1466.0537,1466.0539,1468.5123,return,0.7327,,74.21875,,,,,,FBP-OG-19.png,0.4,1.2,13,0.25,,,,,,,,,,,,,,,,,,0,38,38,12,1,,,,,,,,,,,,,,,,,,,,,,,
,,,,,SPR24_058,19,Female,2024-04-17_10h30.22.305,jersey_experiment_5_v0,2023.2.2,Win32,84.74576271,,,,,,,,,,,,,,,,1468.5126,1469.8068,1469.807,1471.8903,return,0.6827,,84.765625,,,,,,FBP-PT-81.png,0.37,1.2,52,0.5,,,,,,,,,,,,,,,,,,0,39,39,51,1,,,,,,,,,,,,,,,,,,,,,,,
,,,,,SPR24_058,19,Female,2024-04-17_10h30.22.305,jersey_experiment_5_v0,2023.2.2,Win32,84.74576271,,,,,,,,,,,,,,,,1471.8906,1472.9365,1472.9366,1476.6894,return,1.2855,,67.44791667,,,,,,FBP-RB-91.png,0.37,1.2,42,0.25,,,,,,,,,,,,,,,,,,0,40,40,41,1,,,,,,,,,,,,,,,,,,,,,,,
,,,,,SPR24_058,19,Female,2024-04-17_10h30.22.305,jersey_experiment_5_v0,2023.2.2,Win32,84.74576271,,,,,,,,,,,,,,,,1476.6898,1477.9837,1477.9838,1480.22,return,0.6707,,63.54166667,,,,,,FBP-PT-91.png,0.37,1.2,57,0.5,,,,,,,,,,,,,,,,,,0,41,41,56,1,,,,,,,,,,,,,,,,,,,,,,,
,,,,,SPR24_058,19,Female,2024-04-17_10h30.22.305,jersey_experiment_5_v0,2023.2.2,Win32,84.74576271,,,,,,,,,,,,,,,,1480.2201,1481.5131,1481.5133,1483.6659,return,0.7548,,49.86979167,,,,,,FBP-PT-71.png,0.37,1.2,47,0.5,,,,,,,,,,,,,,,,,,0,42,42,46,1,,,,,,,,,,,,,,,,,,,,,,,
,,,,,SPR24_058,19,Female,2024-04-17_10h30.22.305,jersey_experiment_5_v0,2023.2.2,Win32,84.74576271,,,,,,,,,,,,,,,,1483.6661,1484.7134,1484.7135,1487.0426,return,0.8139,,74.609375,,,,,,FBP-RB-81.png,0.35,1.2,36,0.25,,,,,,,,,,,,,,,,,,0,43,43,35,1,,,,,,,,,,,,,,,,,,,,,,,
,,,,,SPR24_058,19,Female,2024-04-17_10h30.22.305,jersey_experiment_5_v0,2023.2.2,Win32,84.74576271,,,,,,,,,,,,,,,,1487.0431,1488.0899,1488.09,1490.4909,return,0.6824,,75.390625,,,,,,FBP-OG-18.png,0.4,1.2,8,0.25,,,,,,,,,,,,,,,,,,0,44,44,7,1,,,,,,,,,,,,,,,,,,,,,,,
,,,,,SPR24_058,19,Female,2024-04-17_10h30.22.305,jersey_experiment_5_v0,2023.2.2,Win32,84.74576271,,,,,,,,,,,,,,,,1490.4911,1491.7842,1491.7843,1493.9252,return,0.6592,,84.89583333,,,,,,FBP-PT-91.png,0.45,1.2,60,0.5,,,,,,,,,,,,,,,,,,0,45,45,59,1,,,,,,,,,,,,,,,,,,,,,,,
,,,,,SPR24_058,19,Female,2024-04-17_10h30.22.305,jersey_experiment_5_v0,2023.2.2,Win32,84.74576271,,,,,,,,,,,,,,,,1493.9256,1495.2197,1495.2198,1497.8558,return,0.7998,,39.453125,,,,,,FBP-YG-91.png,0.35,1.2,26,0.5,,,,,,,,,,,,,,,,,,0,46,46,25,1,,,,,,,,,,,,,,,,,,,,,,,
,,,,,SPR24_058,19,Female,2024-04-17_10h30.22.305,jersey_experiment_5_v0,2023.2.2,Win32,84.74576271,,,,,,,,,,,,,,,,1497.8561,1498.9022,1498.9023,1502.315,return,1.3058,,85.9375,,,,,,FBP-RB-71.png,0.45,1.2,35,0.25,,,,,,,,,,,,,,,,,,0,47,47,34,1,,,,,,,,,,,,,,,,,,,,,,,
,,,,,SPR24_058,19,Female,2024-04-17_10h30.22.305,jersey_experiment_5_v0,2023.2.2,Win32,84.74576271,,,,,,,,,,,,,,,,1502.3153,1503.361,1503.3612,1506.9977,return,1.2824,,49.609375,,,,,,FBP-OG-17.png,0.35,1.2,1,0.25,,,,,,,,,,,,,,,,,,0,48,48,0,1,,,,,,,,,,,,,,,,,,,,,,,
,,,,,SPR24_058,19,Female,2024-04-17_10h30.22.305,jersey_experiment_5_v0,2023.2.2,Win32,84.74576271,,,,,,,,,,,,,,,,1506.9978,1508.2916,1508.2917,1510.973,return,1.3243,,36.71875,,,,,,FBP-PT-81.png,0.35,1.2,51,0.5,,,,,,,,,,,,,,,,,,0,49,49,50,1,,,,,,,,,,,,,,,,,,,,,,,
,,,,,SPR24_058,19,Female,2024-04-17_10h30.22.305,jersey_experiment_5_v0,2023.2.2,Win32,84.74576271,,,,,,,,,,,,,,,,1510.9734,1512.0203,1512.0204,1518.0802,return,4.2239,,63.02083333,,,,,,FBP-OG-18.png,0.43,1.2,9,0.25,,,,,,,,,,,,,,,,,,0,50,50,8,1,,,,,,,,,,,,,,,,,,,,,,,
,,,,,SPR24_058,19,Female,2024-04-17_10h30.22.305,jersey_experiment_5_v0,2023.2.2,Win32,84.74576271,,,,,,,,,,,,,,,,1518.0804,1519.3735,1519.3736,1521.7979,return,1.1175,,35.28645833,,,,,,FBP-YG-81.png,0.35,1.2,21,0.5,,,,,,,,,,,,,,,,,,0,51,51,20,1,,,,,,,,,,,,,,,,,,,,,,,
,,,,,SPR24_058,19,Female,2024-04-17_10h30.22.305,jersey_experiment_5_v0,2023.2.2,Win32,84.74576271,,,,,,,,,,,,,,,,1521.7981,1522.8442,1522.8443,1525.6205,return,1.1064,,90.88541667,,,,,,FBP-RB-81.png,0.45,1.2,40,0.25,,,,,,,,,,,,,,,,,,0,52,52,39,1,,,,,,,,,,,,,,,,,,,,,,,
,,,,,SPR24_058,19,Female,2024-04-17_10h30.22.305,jersey_experiment_5_v0,2023.2.2,Win32,84.74576271,,,,,,,,,,,,,,,,1525.6209,1526.6679,1526.668,1528.8456,return,0.6947,,74.08854167,,,,,,FBP-RB-91.png,0.35,1.2,41,0.25,,,,,,,,,,,,,,,,,,0,53,53,40,1,,,,,,,,,,,,,,,,,,,,,,,
,,,,,SPR24_058,19,Female,2024-04-17_10h30.22.305,jersey_experiment_5_v0,2023.2.2,Win32,84.74576271,,,,,,,,,,,,,,,,1528.8458,1530.1387,1530.1388,1532.469,return,1.0705,,92.44791667,,,,,,FBP-PT-81.png,0.45,1.2,55,0.5,,,,,,,,,,,,,,,,,,0,54,54,54,1,,,,,,,,,,,,,,,,,,,,,,,
,,,,,SPR24_058,19,Female,2024-04-17_10h30.22.305,jersey_experiment_5_v0,2023.2.2,Win32,84.74576271,,,,,,,,,,,,,,,,1532.4691,1533.5151,1533.5151,1537.1033,return,2.0394,,81.640625,,,,,,FBP-RB-81.png,0.4,1.2,38,0.25,,,,,,,,,,,,,,,,,,0,55,55,37,1,,,,,,,,,,,,,,,,,,,,,,,
,,,,,SPR24_058,19,Female,2024-04-17_10h30.22.305,jersey_experiment_5_v0,2023.2.2,Win32,84.74576271,,,,,,,,,,,,,,,,1537.1037,1538.3978,1538.3979,1540.8458,return,1.0355,,81.640625,,,,,,FBP-YG-81.png,0.4,1.2,23,0.5,,,,,,,,,,,,,,,,,,0,56,56,22,1,,,,,,,,,,,,,,,,,,,,,,,
,,,,,SPR24_058,19,Female,2024-04-17_10h30.22.305,jersey_experiment_5_v0,2023.2.2,Win32,84.74576271,,,,,,,,,,,,,,,,1540.846,1542.1391,1542.1392,1546.3506,return,1.1348,,73.828125,,,,,,FBP-PT-71.png,0.35,1.2,46,0.5,,,,,,,,,,,,,,,,,,0,57,57,45,1,,,,,,,,,,,,,,,,,,,,,,,
,,,,,SPR24_058,19,Female,2024-04-17_10h30.22.305,jersey_experiment_5_v0,2023.2.2,Win32,84.74576271,,,,,,,,,,,,,,,,1546.3508,1547.3981,1547.3982,1550.8919,return,1.1138,,50,,,,,,FBP-OG-19.png,0.35,1.2,11,0.25,,,,,,,,,,,,,,,,,,0,58,58,10,1,,,,,,,,,,,,,,,,,,,,,,,
,,,,,SPR24_058,19,Female,2024-04-17_10h30.22.305,jersey_experiment_5_v0,2023.2.2,Win32,84.74576271,,,,,,,,,,,,,,,,1550.8922,1551.9395,1551.9395,1554.5052,return,1.1059,,35.28645833,,,,,,FBP-RB-71.png,0.35,1.2,31,0.25,,,,,,,,,,,,,,,,,,0,59,59,30,1,,,,,,,,,,,,,,,,,,,,,,,
,,,,,SPR24_058,19,Female,2024-04-17_10h30.22.305,jersey_experiment_5_v0,2023.2.2,Win32,84.74576271,,,,,,,,,,,,,,,,,,,,,,,,,,,,,,,,,,,,,,,,,,,,,,,,,,,,,,,,1554.5055,1562.7169,return,8.197,,,,,,,,,,,,,,,,,,,
,,,,,SPR24_058,19,Female,2024-04-17_10h30.22.305,jersey_experiment_5_v0,2023.2.2,Win32,84.74576271,,,,,,,,,,,,,,,,,,,,,,,,,,,,,,,,,,,,,,,,,,,,,,,,,,,,,,,,,,,,,1562.7171,1575.8235,1,11.8755,return,1.1998,,,,,,,,,,,,
,,,,,SPR24_058,19,Female,2024-04-17_10h30.22.305,jersey_experiment_5_v0,2023.2.2,Win32,84.74576271,,,,,,,,,,,,,,,,,,,,,,,,,,,,,,,,,,,,,,,,,,,,,,,,,,,,,,,,,,,,,,,,,,,,1575.8237,1754.4012,"I was thinking that the study would be about bias between races, maybe seeing whether people though that the darker skinned people were huskier than the lighter skinned people. I noticed that I put a lot on the neutral to husky range, and that at the beginning of a husky to very husky cluster it would mostly start with a darker skinned football player with a red jersey.",right,163.6641,,,,,,
,,,,,SPR24_058,19,Female,2024-04-17_10h30.22.305,jersey_experiment_5_v0,2023.2.2,Win32,84.74576271,,,,,,,,,,,,,,,,,,,,,,,,,,,,,,,,,,,,,,,,,,,,,,,,,,,,,,,,,,,,,,,,,,,,,,,,,,1754.4013,1758.7474,return,4.339,