requirements.started,requirements.stopped,key_resp_3.keys,key_resp_3.rt,key_resp_3.duration,Subject ID,Age,Gender,date,expName,psychopyVersion,OS,frameRate,instructions1.started,instructions1.stopped,key_resp.keys,key_resp.rt,key_resp.duration,example.started,example.stopped,enter_2.keys,enter_2.rt,enter_2.duration,instructions2.started,instructions2.stopped,enter_3.keys,enter_3.rt,enter_3.duration,image.started,image.stopped,slider_2.started,slider_2.stopped,next.keys,next.rt,next.duration,slider.response,trial_block_1.thisRepN,trial_block_1.thisTrialN,trial_block_1.thisN,trial_block_1.thisIndex,trial_block_1.ran,Path,Width,Height,Index,Duration,trial_block_2.thisRepN,trial_block_2.thisTrialN,trial_block_2.thisN,trial_block_2.thisIndex,trial_block_2.ran,rest_break.started,rest_break.stopped,end_break.started,end_break.stopped,key_resp_5.keys,key_resp_5.rt,key_resp_5.duration,trial_block_3.thisRepN,trial_block_3.thisTrialN,trial_block_3.thisN,trial_block_3.thisIndex,trial_block_3.ran,trial_block_4.thisRepN,trial_block_4.thisTrialN,trial_block_4.thisN,trial_block_4.thisIndex,trial_block_4.ran,questions_intro.started,questions_intro.stopped,enter_12.keys,enter_12.rt,enter_12.duration,question2.started,question2.stopped,question_doingbest.response,question_doingbest.rt,enter_15.keys,enter_15.rt,enter_15.duration,pattern.started,pattern.stopped,pattern_2.text,enter_17.keys,enter_17.rt,enter_17.duration,thankyou.started,thankyou.stopped,enter_14.keys,enter_14.rt,enter_14.duration
0.0002,13.2991,return,13.2909,,SPR24_019,20,Male,2024-04-09_14h32.57.013,jersey_experiment_5_v0,2023.2.2,Win32,84.74576271,,,,,,,,,,,,,,,,,,,,,,,,,,,,,,,,,,,,,,,,,,,,,,,,,,,,,,,,,,,,,,,,,,,,,,,,,,,,,,
,,,,,SPR24_019,20,Male,2024-04-09_14h32.57.013,jersey_experiment_5_v0,2023.2.2,Win32,84.74576271,13.2992,21.3562,return,8.0474,,,,,,,,,,,,,,,,,,,,,,,,,,,,,,,,,,,,,,,,,,,,,,,,,,,,,,,,,,,,,,,,,,,,,,,,,,
,,,,,SPR24_019,20,Male,2024-04-09_14h32.57.013,jersey_experiment_5_v0,2023.2.2,Win32,84.74576271,,,,,,21.3563,24.9176,return,3.5225,,,,,,,,,,,,,,,,,,,,,,,,,,,,,,,,,,,,,,,,,,,,,,,,,,,,,,,,,,,,,,,,,,,,,
,,,,,SPR24_019,20,Male,2024-04-09_14h32.57.013,jersey_experiment_5_v0,2023.2.2,Win32,84.74576271,,,,,,,,,,,24.9177,40.3182,return,15.3904,,,,,,,,,,,,,,,,,,,,,,,,,,,,,,,,,,,,,,,,,,,,,,,,,,,,,,,,,,,,,,,,
,,,,,SPR24_019,20,Male,2024-04-09_14h32.57.013,jersey_experiment_5_v0,2023.2.2,Win32,84.74576271,,,,,,,,,,,,,,,,40.3249,41.3769,41.377,61.2013,return,7.1782,,74.86979167,0,0,0,58,1,FBP-PT-19.png,0.43,1.2,59,0.25,,,,,,,,,,,,,,,,,,,,,,,,,,,,,,,,,,,,,,,,,,,,,
,,,,,SPR24_019,20,Male,2024-04-09_14h32.57.013,jersey_experiment_5_v0,2023.2.2,Win32,84.74576271,,,,,,,,,,,,,,,,61.2016,62.2483,62.2483,65.8602,return,1.4696,,75,0,1,1,54,1,FBP-PT-18.png,0.45,1.2,55,0.25,,,,,,,,,,,,,,,,,,,,,,,,,,,,,,,,,,,,,,,,,,,,,
,,,,,SPR24_019,20,Male,2024-04-09_14h32.57.013,jersey_experiment_5_v0,2023.2.2,Win32,84.74576271,,,,,,,,,,,,,,,,65.8604,67.1543,67.1543,69.025,return,0.4708,,62.36979167,0,2,2,8,1,FBP-OG-81.png,0.43,1.2,9,0.5,,,,,,,,,,,,,,,,,,,,,,,,,,,,,,,,,,,,,,,,,,,,,
,,,,,SPR24_019,20,Male,2024-04-09_14h32.57.013,jersey_experiment_5_v0,2023.2.2,Win32,84.74576271,,,,,,,,,,,,,,,,69.0252,70.3191,70.3192,72.2722,return,0.5791,,82.68229167,0,3,3,42,1,FBP-RB-19.png,0.4,1.2,43,0.5,,,,,,,,,,,,,,,,,,,,,,,,,,,,,,,,,,,,,,,,,,,,,
,,,,,SPR24_019,20,Male,2024-04-09_14h32.57.013,jersey_experiment_5_v0,2023.2.2,Win32,84.74576271,,,,,,,,,,,,,,,,72.2725,73.5664,73.5665,75.7312,return,0.9647,,82.16145833,0,4,4,44,1,FBP-RB-19.png,0.45,1.2,45,0.5,,,,,,,,,,,,,,,,,,,,,,,,,,,,,,,,,,,,,,,,,,,,,
,,,,,SPR24_019,20,Male,2024-04-09_14h32.57.013,jersey_experiment_5_v0,2023.2.2,Win32,84.74576271,,,,,,,,,,,,,,,,75.7314,77.0253,77.0253,78.6254,return,0.6816,,80.98958333,0,5,5,37,1,FBP-RB-18.png,0.4,1.2,38,0.5,,,,,,,,,,,,,,,,,,,,,,,,,,,,,,,,,,,,,,,,,,,,,
,,,,,SPR24_019,20,Male,2024-04-09_14h32.57.013,jersey_experiment_5_v0,2023.2.2,Win32,84.74576271,,,,,,,,,,,,,,,,78.6256,79.6725,79.6725,82.5903,return,0.8748,,82.03125,0,6,6,18,1,FBP-YG-17.png,0.43,1.2,19,0.25,,,,,,,,,,,,,,,,,,,,,,,,,,,,,,,,,,,,,,,,,,,,,
,,,,,SPR24_019,20,Male,2024-04-09_14h32.57.013,jersey_experiment_5_v0,2023.2.2,Win32,84.74576271,,,,,,,,,,,,,,,,82.5906,83.8843,83.8843,92.2612,return,2.6222,,35.41666667,0,7,7,6,1,FBP-OG-81.png,0.37,1.2,7,0.5,,,,,,,,,,,,,,,,,,,,,,,,,,,,,,,,,,,,,,,,,,,,,
,,,,,SPR24_019,20,Male,2024-04-09_14h32.57.013,jersey_experiment_5_v0,2023.2.2,Win32,84.74576271,,,,,,,,,,,,,,,,92.2614,93.5552,93.5553,95.9319,return,0.2292,,73.4375,0,8,8,2,1,FBP-OG-71.png,0.4,1.2,3,0.5,,,,,,,,,,,,,,,,,,,,,,,,,,,,,,,,,,,,,,,,,,,,,
,,,,,SPR24_019,20,Male,2024-04-09_14h32.57.013,jersey_experiment_5_v0,2023.2.2,Win32,84.74576271,,,,,,,,,,,,,,,,95.9321,96.979,96.979,98.3673,return,0.1329,,83.46354167,0,9,9,53,1,FBP-PT-18.png,0.43,1.2,54,0.25,,,,,,,,,,,,,,,,,,,,,,,,,,,,,,,,,,,,,,,,,,,,,
,,,,,SPR24_019,20,Male,2024-04-09_14h32.57.013,jersey_experiment_5_v0,2023.2.2,Win32,84.74576271,,,,,,,,,,,,,,,,98.3675,99.4143,99.4144,101.8732,return,0.119,,50.52083333,0,10,10,56,1,FBP-PT-19.png,0.37,1.2,57,0.25,,,,,,,,,,,,,,,,,,,,,,,,,,,,,,,,,,,,,,,,,,,,,
,,,,,SPR24_019,20,Male,2024-04-09_14h32.57.013,jersey_experiment_5_v0,2023.2.2,Win32,84.74576271,,,,,,,,,,,,,,,,101.8734,103.1675,103.1675,104.6029,return,0.2413,,75.78125,0,11,11,33,1,FBP-RB-17.png,0.43,1.2,34,0.5,,,,,,,,,,,,,,,,,,,,,,,,,,,,,,,,,,,,,,,,,,,,,
,,,,,SPR24_019,20,Male,2024-04-09_14h32.57.013,jersey_experiment_5_v0,2023.2.2,Win32,84.74576271,,,,,,,,,,,,,,,,104.603,105.8969,105.8969,107.9322,return,0.5475,,42.83854167,0,12,12,11,1,FBP-OG-91.png,0.37,1.2,12,0.5,,,,,,,,,,,,,,,,,,,,,,,,,,,,,,,,,,,,,,,,,,,,,
,,,,,SPR24_019,20,Male,2024-04-09_14h32.57.013,jersey_experiment_5_v0,2023.2.2,Win32,84.74576271,,,,,,,,,,,,,,,,107.9325,108.9795,108.9795,110.3207,return,0.2115,,79.94791667,0,13,13,24,1,FBP-YG-18.png,0.45,1.2,25,0.25,,,,,,,,,,,,,,,,,,,,,,,,,,,,,,,,,,,,,,,,,,,,,
,,,,,SPR24_019,20,Male,2024-04-09_14h32.57.013,jersey_experiment_5_v0,2023.2.2,Win32,84.74576271,,,,,,,,,,,,,,,,110.321,111.3677,111.3677,112.6383,return,0.2021,,40.625,0,14,14,46,1,FBP-PT-17.png,0.37,1.2,47,0.25,,,,,,,,,,,,,,,,,,,,,,,,,,,,,,,,,,,,,,,,,,,,,
,,,,,SPR24_019,20,Male,2024-04-09_14h32.57.013,jersey_experiment_5_v0,2023.2.2,Win32,84.74576271,,,,,,,,,,,,,,,,112.6385,113.9325,113.9325,114.9444,return,0.2714,,25.65104167,0,15,15,5,1,FBP-OG-81.png,0.35,1.2,6,0.5,,,,,,,,,,,,,,,,,,,,,,,,,,,,,,,,,,,,,,,,,,,,,
,,,,,SPR24_019,20,Male,2024-04-09_14h32.57.013,jersey_experiment_5_v0,2023.2.2,Win32,84.74576271,,,,,,,,,,,,,,,,114.9447,116.2386,116.2386,117.8034,return,0.6777,,87.23958333,0,16,16,43,1,FBP-RB-19.png,0.43,1.2,44,0.5,,,,,,,,,,,,,,,,,,,,,,,,,,,,,,,,,,,,,,,,,,,,,
,,,,,SPR24_019,20,Male,2024-04-09_14h32.57.013,jersey_experiment_5_v0,2023.2.2,Win32,84.74576271,,,,,,,,,,,,,,,,117.8037,118.8503,118.8504,121.7799,return,0.166,,50.13020833,0,17,17,20,1,FBP-YG-18.png,0.35,1.2,21,0.25,,,,,,,,,,,,,,,,,,,,,,,,,,,,,,,,,,,,,,,,,,,,,
,,,,,SPR24_019,20,Male,2024-04-09_14h32.57.013,jersey_experiment_5_v0,2023.2.2,Win32,84.74576271,,,,,,,,,,,,,,,,121.7802,122.827,122.827,125.2273,return,0.4174,,99.609375,0,18,18,49,1,FBP-PT-17.png,0.45,1.2,50,0.25,,,,,,,,,,,,,,,,,,,,,,,,,,,,,,,,,,,,,,,,,,,,,
,,,,,SPR24_019,20,Male,2024-04-09_14h32.57.013,jersey_experiment_5_v0,2023.2.2,Win32,84.74576271,,,,,,,,,,,,,,,,125.2275,126.2741,126.2741,127.7566,return,0.2763,,67.96875,0,19,19,26,1,FBP-YG-19.png,0.37,1.2,27,0.25,,,,,,,,,,,,,,,,,,,,,,,,,,,,,,,,,,,,,,,,,,,,,
,,,,,SPR24_019,20,Male,2024-04-09_14h32.57.013,jersey_experiment_5_v0,2023.2.2,Win32,84.74576271,,,,,,,,,,,,,,,,127.7569,129.051,129.0511,130.1803,return,0.1543,,99.86979167,0,20,20,14,1,FBP-OG-91.png,0.45,1.2,15,0.5,,,,,,,,,,,,,,,,,,,,,,,,,,,,,,,,,,,,,,,,,,,,,
,,,,,SPR24_019,20,Male,2024-04-09_14h32.57.013,jersey_experiment_5_v0,2023.2.2,Win32,84.74576271,,,,,,,,,,,,,,,,130.1806,131.2273,131.2273,131.7804,return,0.1656,,99.86979167,0,21,21,19,1,FBP-YG-17.png,0.45,1.2,20,0.25,,,,,,,,,,,,,,,,,,,,,,,,,,,,,,,,,,,,,,,,,,,,,
,,,,,SPR24_019,20,Male,2024-04-09_14h32.57.013,jersey_experiment_5_v0,2023.2.2,Win32,84.74576271,,,,,,,,,,,,,,,,131.7806,133.0746,133.0747,136.2512,return,1.44,,32.03125,0,22,22,40,1,FBP-RB-19.png,0.35,1.2,41,0.5,,,,,,,,,,,,,,,,,,,,,,,,,,,,,,,,,,,,,,,,,,,,,
,,,,,SPR24_019,20,Male,2024-04-09_14h32.57.013,jersey_experiment_5_v0,2023.2.2,Win32,84.74576271,,,,,,,,,,,,,,,,136.2515,137.2982,137.2982,139.4864,return,0.2023,,88.54166667,0,23,23,28,1,FBP-YG-19.png,0.43,1.2,29,0.25,,,,,,,,,,,,,,,,,,,,,,,,,,,,,,,,,,,,,,,,,,,,,
,,,,,SPR24_019,20,Male,2024-04-09_14h32.57.013,jersey_experiment_5_v0,2023.2.2,Win32,84.74576271,,,,,,,,,,,,,,,,139.4866,140.7808,140.7809,142.016,return,0.344,,94.66145833,0,24,24,34,1,FBP-RB-17.png,0.45,1.2,35,0.5,,,,,,,,,,,,,,,,,,,,,,,,,,,,,,,,,,,,,,,,,,,,,
,,,,,SPR24_019,20,Male,2024-04-09_14h32.57.013,jersey_experiment_5_v0,2023.2.2,Win32,84.74576271,,,,,,,,,,,,,,,,142.0162,143.0631,143.0631,144.369,return,0.1779,,81.51041667,0,25,25,22,1,FBP-YG-18.png,0.4,1.2,23,0.25,,,,,,,,,,,,,,,,,,,,,,,,,,,,,,,,,,,,,,,,,,,,,
,,,,,SPR24_019,20,Male,2024-04-09_14h32.57.013,jersey_experiment_5_v0,2023.2.2,Win32,84.74576271,,,,,,,,,,,,,,,,144.3693,145.4161,145.4162,146.7339,return,0.1227,,79.55729167,0,26,26,57,1,FBP-PT-19.png,0.4,1.2,58,0.25,,,,,,,,,,,,,,,,,,,,,,,,,,,,,,,,,,,,,,,,,,,,,
,,,,,SPR24_019,20,Male,2024-04-09_14h32.57.013,jersey_experiment_5_v0,2023.2.2,Win32,84.74576271,,,,,,,,,,,,,,,,146.7341,148.0279,148.0279,149.3457,return,0.1527,,93.88020833,0,27,27,38,1,FBP-RB-18.png,0.43,1.2,39,0.5,,,,,,,,,,,,,,,,,,,,,,,,,,,,,,,,,,,,,,,,,,,,,
,,,,,SPR24_019,20,Male,2024-04-09_14h32.57.013,jersey_experiment_5_v0,2023.2.2,Win32,84.74576271,,,,,,,,,,,,,,,,149.3459,150.6399,150.6399,154.2989,return,2.2418,,28.125,0,28,28,31,1,FBP-RB-17.png,0.37,1.2,32,0.5,,,,,,,,,,,,,,,,,,,,,,,,,,,,,,,,,,,,,,,,,,,,,
,,,,,SPR24_019,20,Male,2024-04-09_14h32.57.013,jersey_experiment_5_v0,2023.2.2,Win32,84.74576271,,,,,,,,,,,,,,,,154.2992,155.5929,155.5929,157.2987,return,0.2594,,97.265625,0,29,29,39,1,FBP-RB-18.png,0.45,1.2,40,0.5,,,,,,,,,,,,,,,,,,,,,,,,,,,,,,,,,,,,,,,,,,,,,
,,,,,SPR24_019,20,Male,2024-04-09_14h32.57.013,jersey_experiment_5_v0,2023.2.2,Win32,84.74576271,,,,,,,,,,,,,,,,157.299,158.593,158.593,160.8754,return,0.9116,,36.45833333,0,30,30,1,1,FBP-OG-71.png,0.37,1.2,2,0.5,,,,,,,,,,,,,,,,,,,,,,,,,,,,,,,,,,,,,,,,,,,,,
,,,,,SPR24_019,20,Male,2024-04-09_14h32.57.013,jersey_experiment_5_v0,2023.2.2,Win32,84.74576271,,,,,,,,,,,,,,,,160.8757,162.1697,162.1697,163.6285,return,0.1704,,50.52083333,0,31,31,36,1,FBP-RB-18.png,0.37,1.2,37,0.5,,,,,,,,,,,,,,,,,,,,,,,,,,,,,,,,,,,,,,,,,,,,,
,,,,,SPR24_019,20,Male,2024-04-09_14h32.57.013,jersey_experiment_5_v0,2023.2.2,Win32,84.74576271,,,,,,,,,,,,,,,,163.6288,164.9229,164.923,167.2287,return,1.3106,,88.671875,0,32,32,9,1,FBP-OG-81.png,0.45,1.2,10,0.5,,,,,,,,,,,,,,,,,,,,,,,,,,,,,,,,,,,,,,,,,,,,,
,,,,,SPR24_019,20,Male,2024-04-09_14h32.57.013,jersey_experiment_5_v0,2023.2.2,Win32,84.74576271,,,,,,,,,,,,,,,,167.2289,168.5229,168.523,169.7464,return,0.152,,35.41666667,0,33,33,0,1,FBP-OG-71.png,0.35,1.2,1,0.5,,,,,,,,,,,,,,,,,,,,,,,,,,,,,,,,,,,,,,,,,,,,,
,,,,,SPR24_019,20,Male,2024-04-09_14h32.57.013,jersey_experiment_5_v0,2023.2.2,Win32,84.74576271,,,,,,,,,,,,,,,,169.7466,170.7935,170.7936,171.9465,return,0.3364,,81.640625,0,34,34,23,1,FBP-YG-18.png,0.43,1.2,24,0.25,,,,,,,,,,,,,,,,,,,,,,,,,,,,,,,,,,,,,,,,,,,,,
,,,,,SPR24_019,20,Male,2024-04-09_14h32.57.013,jersey_experiment_5_v0,2023.2.2,Win32,84.74576271,,,,,,,,,,,,,,,,171.9467,172.9936,172.9937,173.876,return,0.1543,,77.734375,0,35,35,52,1,FBP-PT-18.png,0.4,1.2,53,0.25,,,,,,,,,,,,,,,,,,,,,,,,,,,,,,,,,,,,,,,,,,,,,
,,,,,SPR24_019,20,Male,2024-04-09_14h32.57.013,jersey_experiment_5_v0,2023.2.2,Win32,84.74576271,,,,,,,,,,,,,,,,173.8762,175.1701,175.1703,175.6291,return,0.1234,,77.734375,0,36,36,32,1,FBP-RB-17.png,0.4,1.2,33,0.5,,,,,,,,,,,,,,,,,,,,,,,,,,,,,,,,,,,,,,,,,,,,,
,,,,,SPR24_019,20,Male,2024-04-09_14h32.57.013,jersey_experiment_5_v0,2023.2.2,Win32,84.74576271,,,,,,,,,,,,,,,,175.6292,176.6761,176.6762,178.0527,return,0.1037,,32.8125,0,37,37,15,1,FBP-YG-17.png,0.35,1.2,16,0.25,,,,,,,,,,,,,,,,,,,,,,,,,,,,,,,,,,,,,,,,,,,,,
,,,,,SPR24_019,20,Male,2024-04-09_14h32.57.013,jersey_experiment_5_v0,2023.2.2,Win32,84.74576271,,,,,,,,,,,,,,,,178.053,179.3468,179.3468,180.3233,return,0.0943,,84.11458333,0,38,38,12,1,FBP-OG-91.png,0.4,1.2,13,0.5,,,,,,,,,,,,,,,,,,,,,,,,,,,,,,,,,,,,,,,,,,,,,
,,,,,SPR24_019,20,Male,2024-04-09_14h32.57.013,jersey_experiment_5_v0,2023.2.2,Win32,84.74576271,,,,,,,,,,,,,,,,180.3236,181.6176,181.6176,182.747,return,0.09,,24.34895833,0,39,39,35,1,FBP-RB-18.png,0.35,1.2,36,0.5,,,,,,,,,,,,,,,,,,,,,,,,,,,,,,,,,,,,,,,,,,,,,
,,,,,SPR24_019,20,Male,2024-04-09_14h32.57.013,jersey_experiment_5_v0,2023.2.2,Win32,84.74576271,,,,,,,,,,,,,,,,182.7472,183.794,183.794,184.8294,return,0.0626,,24.08854167,0,40,40,50,1,FBP-PT-18.png,0.35,1.2,51,0.25,,,,,,,,,,,,,,,,,,,,,,,,,,,,,,,,,,,,,,,,,,,,,
,,,,,SPR24_019,20,Male,2024-04-09_14h32.57.013,jersey_experiment_5_v0,2023.2.2,Win32,84.74576271,,,,,,,,,,,,,,,,184.8297,185.8764,185.8764,186.853,return,0.1177,,24.08854167,0,41,41,55,1,FBP-PT-19.png,0.35,1.2,56,0.25,,,,,,,,,,,,,,,,,,,,,,,,,,,,,,,,,,,,,,,,,,,,,
,,,,,SPR24_019,20,Male,2024-04-09_14h32.57.013,jersey_experiment_5_v0,2023.2.2,Win32,84.74576271,,,,,,,,,,,,,,,,186.8532,188.147,188.147,190.7827,return,0.2725,,77.34375,0,42,42,7,1,FBP-OG-81.png,0.4,1.2,8,0.5,,,,,,,,,,,,,,,,,,,,,,,,,,,,,,,,,,,,,,,,,,,,,
,,,,,SPR24_019,20,Male,2024-04-09_14h32.57.013,jersey_experiment_5_v0,2023.2.2,Win32,84.74576271,,,,,,,,,,,,,,,,190.7829,191.8296,191.8297,193.7591,return,0.2508,,91.14583333,0,43,43,48,1,FBP-PT-17.png,0.43,1.2,49,0.25,,,,,,,,,,,,,,,,,,,,,,,,,,,,,,,,,,,,,,,,,,,,,
,,,,,SPR24_019,20,Male,2024-04-09_14h32.57.013,jersey_experiment_5_v0,2023.2.2,Win32,84.74576271,,,,,,,,,,,,,,,,193.7593,194.8062,194.8062,196.7005,return,1.2416,,74.86979167,0,44,44,51,1,FBP-PT-18.png,0.37,1.2,52,0.25,,,,,,,,,,,,,,,,,,,,,,,,,,,,,,,,,,,,,,,,,,,,,
,,,,,SPR24_019,20,Male,2024-04-09_14h32.57.013,jersey_experiment_5_v0,2023.2.2,Win32,84.74576271,,,,,,,,,,,,,,,,196.7007,197.7474,197.7475,199.3592,return,1.0602,,82.29166667,0,45,45,47,1,FBP-PT-17.png,0.4,1.2,48,0.25,,,,,,,,,,,,,,,,,,,,,,,,,,,,,,,,,,,,,,,,,,,,,
,,,,,SPR24_019,20,Male,2024-04-09_14h32.57.013,jersey_experiment_5_v0,2023.2.2,Win32,84.74576271,,,,,,,,,,,,,,,,199.3595,200.6534,200.6534,202.83,return,1.0259,,46.22395833,0,46,46,30,1,FBP-RB-17.png,0.35,1.2,31,0.5,,,,,,,,,,,,,,,,,,,,,,,,,,,,,,,,,,,,,,,,,,,,,
,,,,,SPR24_019,20,Male,2024-04-09_14h32.57.013,jersey_experiment_5_v0,2023.2.2,Win32,84.74576271,,,,,,,,,,,,,,,,202.8302,203.8771,203.8771,204.9713,return,0.2424,,46.875,0,47,47,45,1,FBP-PT-17.png,0.35,1.2,46,0.25,,,,,,,,,,,,,,,,,,,,,,,,,,,,,,,,,,,,,,,,,,,,,
,,,,,SPR24_019,20,Male,2024-04-09_14h32.57.013,jersey_experiment_5_v0,2023.2.2,Win32,84.74576271,,,,,,,,,,,,,,,,204.9715,206.2655,206.2655,207.2773,return,0.2729,,79.42708333,0,48,48,13,1,FBP-OG-91.png,0.43,1.2,14,0.5,,,,,,,,,,,,,,,,,,,,,,,,,,,,,,,,,,,,,,,,,,,,,
,,,,,SPR24_019,20,Male,2024-04-09_14h32.57.013,jersey_experiment_5_v0,2023.2.2,Win32,84.74576271,,,,,,,,,,,,,,,,207.2775,208.5715,208.5715,211.3951,return,1.7043,,78.90625,0,49,49,3,1,FBP-OG-71.png,0.43,1.2,4,0.5,,,,,,,,,,,,,,,,,,,,,,,,,,,,,,,,,,,,,,,,,,,,,
,,,,,SPR24_019,20,Male,2024-04-09_14h32.57.013,jersey_experiment_5_v0,2023.2.2,Win32,84.74576271,,,,,,,,,,,,,,,,211.3954,212.4422,212.4422,214.7719,return,0.8002,,27.21354167,0,50,50,16,1,FBP-YG-17.png,0.37,1.2,17,0.25,,,,,,,,,,,,,,,,,,,,,,,,,,,,,,,,,,,,,,,,,,,,,
,,,,,SPR24_019,20,Male,2024-04-09_14h32.57.013,jersey_experiment_5_v0,2023.2.2,Win32,84.74576271,,,,,,,,,,,,,,,,214.7721,215.8189,215.8189,218.2071,return,0.6851,,86.84895833,0,51,51,29,1,FBP-YG-19.png,0.45,1.2,30,0.25,,,,,,,,,,,,,,,,,,,,,,,,,,,,,,,,,,,,,,,,,,,,,
,,,,,SPR24_019,20,Male,2024-04-09_14h32.57.013,jersey_experiment_5_v0,2023.2.2,Win32,84.74576271,,,,,,,,,,,,,,,,218.2073,219.2542,219.2542,220.2425,return,0.0707,,86.328125,0,52,52,27,1,FBP-YG-19.png,0.4,1.2,28,0.25,,,,,,,,,,,,,,,,,,,,,,,,,,,,,,,,,,,,,,,,,,,,,
,,,,,SPR24_019,20,Male,2024-04-09_14h32.57.013,jersey_experiment_5_v0,2023.2.2,Win32,84.74576271,,,,,,,,,,,,,,,,220.2427,221.2896,221.2897,222.1483,return,0.1882,,87.76041667,0,53,53,59,1,FBP-PT-19.png,0.45,1.2,60,0.25,,,,,,,,,,,,,,,,,,,,,,,,,,,,,,,,,,,,,,,,,,,,,
,,,,,SPR24_019,20,Male,2024-04-09_14h32.57.013,jersey_experiment_5_v0,2023.2.2,Win32,84.74576271,,,,,,,,,,,,,,,,222.1486,223.1955,223.1955,224.2426,return,0.0343,,49.47916667,0,54,54,21,1,FBP-YG-18.png,0.37,1.2,22,0.25,,,,,,,,,,,,,,,,,,,,,,,,,,,,,,,,,,,,,,,,,,,,,
,,,,,SPR24_019,20,Male,2024-04-09_14h32.57.013,jersey_experiment_5_v0,2023.2.2,Win32,84.74576271,,,,,,,,,,,,,,,,224.2428,225.5367,225.5368,226.3484,return,0.0759,,49.08854167,0,55,55,41,1,FBP-RB-19.png,0.37,1.2,42,0.5,,,,,,,,,,,,,,,,,,,,,,,,,,,,,,,,,,,,,,,,,,,,,
,,,,,SPR24_019,20,Male,2024-04-09_14h32.57.013,jersey_experiment_5_v0,2023.2.2,Win32,84.74576271,,,,,,,,,,,,,,,,226.3487,227.6428,227.6428,229.4076,return,0.5563,,92.1875,0,56,56,4,1,FBP-OG-71.png,0.45,1.2,5,0.5,,,,,,,,,,,,,,,,,,,,,,,,,,,,,,,,,,,,,,,,,,,,,
,,,,,SPR24_019,20,Male,2024-04-09_14h32.57.013,jersey_experiment_5_v0,2023.2.2,Win32,84.74576271,,,,,,,,,,,,,,,,229.4079,230.4545,230.4545,232.1487,return,0.4002,,50.13020833,0,57,57,25,1,FBP-YG-19.png,0.35,1.2,26,0.25,,,,,,,,,,,,,,,,,,,,,,,,,,,,,,,,,,,,,,,,,,,,,
,,,,,SPR24_019,20,Male,2024-04-09_14h32.57.013,jersey_experiment_5_v0,2023.2.2,Win32,84.74576271,,,,,,,,,,,,,,,,232.1489,233.4429,233.4429,235.0548,return,0.1203,,28.515625,0,58,58,10,1,FBP-OG-91.png,0.35,1.2,11,0.5,,,,,,,,,,,,,,,,,,,,,,,,,,,,,,,,,,,,,,,,,,,,,
,,,,,SPR24_019,20,Male,2024-04-09_14h32.57.013,jersey_experiment_5_v0,2023.2.2,Win32,84.74576271,,,,,,,,,,,,,,,,235.0549,236.1018,236.1019,237.4549,return,0.1195,,50.26041667,0,59,59,17,1,FBP-YG-17.png,0.4,1.2,18,0.25,,,,,,,,,,,,,,,,,,,,,,,,,,,,,,,,,,,,,,,,,,,,,
,,,,,SPR24_019,20,Male,2024-04-09_14h32.57.013,jersey_experiment_5_v0,2023.2.2,Win32,84.74576271,,,,,,,,,,,,,,,,237.4568,238.7489,238.749,241.3256,return,0.1931,,25.91145833,,,,,,FBP-RB-81.png,0.37,1.2,37,0.5,0,0,0,36,1,,,,,,,,,,,,,,,,,,,,,,,,,,,,,,,,,,,,,,,,
,,,,,SPR24_019,20,Male,2024-04-09_14h32.57.013,jersey_experiment_5_v0,2023.2.2,Win32,84.74576271,,,,,,,,,,,,,,,,241.3258,242.3728,242.3728,247.1023,return,3.0384,,86.328125,,,,,,FBP-PT-81.png,0.43,1.2,54,0.25,0,1,1,53,1,,,,,,,,,,,,,,,,,,,,,,,,,,,,,,,,,,,,,,,,
,,,,,SPR24_019,20,Male,2024-04-09_14h32.57.013,jersey_experiment_5_v0,2023.2.2,Win32,84.74576271,,,,,,,,,,,,,,,,247.1025,248.1495,248.1495,250.3848,return,0.8961,,92.96875,,,,,,FBP-YG-81.png,0.43,1.2,24,0.25,0,2,2,23,1,,,,,,,,,,,,,,,,,,,,,,,,,,,,,,,,,,,,,,,,
,,,,,SPR24_019,20,Male,2024-04-09_14h32.57.013,jersey_experiment_5_v0,2023.2.2,Win32,84.74576271,,,,,,,,,,,,,,,,250.3849,251.6791,251.6791,253.1025,return,0.1338,,49.609375,,,,,,FBP-RB-71.png,0.4,1.2,33,0.5,0,3,3,32,1,,,,,,,,,,,,,,,,,,,,,,,,,,,,,,,,,,,,,,,,
,,,,,SPR24_019,20,Male,2024-04-09_14h32.57.013,jersey_experiment_5_v0,2023.2.2,Win32,84.74576271,,,,,,,,,,,,,,,,253.1028,254.1495,254.1495,255.6674,return,0.2111,,77.86458333,,,,,,FBP-YG-91.png,0.4,1.2,28,0.25,0,4,4,27,1,,,,,,,,,,,,,,,,,,,,,,,,,,,,,,,,,,,,,,,,
,,,,,SPR24_019,20,Male,2024-04-09_14h32.57.013,jersey_experiment_5_v0,2023.2.2,Win32,84.74576271,,,,,,,,,,,,,,,,255.6677,256.7144,256.7145,260.2676,return,0.1013,,70.05208333,,,,,,FBP-PT-81.png,0.37,1.2,52,0.25,0,5,5,51,1,,,,,,,,,,,,,,,,,,,,,,,,,,,,,,,,,,,,,,,,
,,,,,SPR24_019,20,Male,2024-04-09_14h32.57.013,jersey_experiment_5_v0,2023.2.2,Win32,84.74576271,,,,,,,,,,,,,,,,260.2677,261.5617,261.5617,264.2911,return,1.6471,,93.09895833,,,,,,FBP-RB-91.png,0.4,1.2,43,0.5,0,6,6,42,1,,,,,,,,,,,,,,,,,,,,,,,,,,,,,,,,,,,,,,,,
,,,,,SPR24_019,20,Male,2024-04-09_14h32.57.013,jersey_experiment_5_v0,2023.2.2,Win32,84.74576271,,,,,,,,,,,,,,,,264.2913,265.5852,265.5852,267.3971,return,0.1276,,24.34895833,,,,,,FBP-RB-81.png,0.35,1.2,36,0.5,0,7,7,35,1,,,,,,,,,,,,,,,,,,,,,,,,,,,,,,,,,,,,,,,,
,,,,,SPR24_019,20,Male,2024-04-09_14h32.57.013,jersey_experiment_5_v0,2023.2.2,Win32,84.74576271,,,,,,,,,,,,,,,,267.3973,268.6913,268.6913,269.7973,return,0.1414,,24.86979167,,,,,,FBP-OG-18.png,0.35,1.2,6,0.5,0,8,8,5,1,,,,,,,,,,,,,,,,,,,,,,,,,,,,,,,,,,,,,,,,
,,,,,SPR24_019,20,Male,2024-04-09_14h32.57.013,jersey_experiment_5_v0,2023.2.2,Win32,84.74576271,,,,,,,,,,,,,,,,269.7976,270.8444,270.8445,274.1387,return,2.0062,,55.98958333,,,,,,FBP-YG-71.png,0.37,1.2,17,0.25,0,9,9,16,1,,,,,,,,,,,,,,,,,,,,,,,,,,,,,,,,,,,,,,,,
,,,,,SPR24_019,20,Male,2024-04-09_14h32.57.013,jersey_experiment_5_v0,2023.2.2,Win32,84.74576271,,,,,,,,,,,,,,,,274.139,275.4329,275.4329,276.9975,return,0.1646,,98.95833333,,,,,,FBP-RB-91.png,0.45,1.2,45,0.5,0,10,10,44,1,,,,,,,,,,,,,,,,,,,,,,,,,,,,,,,,,,,,,,,,
,,,,,SPR24_019,20,Male,2024-04-09_14h32.57.013,jersey_experiment_5_v0,2023.2.2,Win32,84.74576271,,,,,,,,,,,,,,,,276.9978,278.0449,278.0449,279.9152,return,0.2527,,49.73958333,,,,,,FBP-YG-81.png,0.37,1.2,22,0.25,0,11,11,21,1,,,,,,,,,,,,,,,,,,,,,,,,,,,,,,,,,,,,,,,,
,,,,,SPR24_019,20,Male,2024-04-09_14h32.57.013,jersey_experiment_5_v0,2023.2.2,Win32,84.74576271,,,,,,,,,,,,,,,,279.9155,280.9625,280.9625,282.1742,return,0.1331,,89.32291667,,,,,,FBP-PT-81.png,0.45,1.2,55,0.25,0,12,12,54,1,,,,,,,,,,,,,,,,,,,,,,,,,,,,,,,,,,,,,,,,
,,,,,SPR24_019,20,Male,2024-04-09_14h32.57.013,jersey_experiment_5_v0,2023.2.2,Win32,84.74576271,,,,,,,,,,,,,,,,282.1744,283.4684,283.4684,284.8802,return,0.1545,,50.52083333,,,,,,FBP-RB-71.png,0.35,1.2,31,0.5,0,13,13,30,1,,,,,,,,,,,,,,,,,,,,,,,,,,,,,,,,,,,,,,,,
,,,,,SPR24_019,20,Male,2024-04-09_14h32.57.013,jersey_experiment_5_v0,2023.2.2,Win32,84.74576271,,,,,,,,,,,,,,,,284.8803,286.1745,286.1745,287.2332,return,0.129,,78.77604167,,,,,,FBP-OG-17.png,0.43,1.2,4,0.5,0,14,14,3,1,,,,,,,,,,,,,,,,,,,,,,,,,,,,,,,,,,,,,,,,
,,,,,SPR24_019,20,Male,2024-04-09_14h32.57.013,jersey_experiment_5_v0,2023.2.2,Win32,84.74576271,,,,,,,,,,,,,,,,287.2333,288.2803,288.2803,289.9982,return,0.299,,99.21875,,,,,,FBP-PT-91.png,0.45,1.2,60,0.25,0,15,15,59,1,,,,,,,,,,,,,,,,,,,,,,,,,,,,,,,,,,,,,,,,
,,,,,SPR24_019,20,Male,2024-04-09_14h32.57.013,jersey_experiment_5_v0,2023.2.2,Win32,84.74576271,,,,,,,,,,,,,,,,289.9984,291.2922,291.2923,292.1746,return,0.1452,,93.61979167,,,,,,FBP-RB-71.png,0.43,1.2,34,0.5,0,16,16,33,1,,,,,,,,,,,,,,,,,,,,,,,,,,,,,,,,,,,,,,,,
,,,,,SPR24_019,20,Male,2024-04-09_14h32.57.013,jersey_experiment_5_v0,2023.2.2,Win32,84.74576271,,,,,,,,,,,,,,,,292.1748,293.4686,293.4687,294.6688,return,0.6179,,98.17708333,,,,,,FBP-RB-71.png,0.45,1.2,35,0.5,0,17,17,34,1,,,,,,,,,,,,,,,,,,,,,,,,,,,,,,,,,,,,,,,,
,,,,,SPR24_019,20,Male,2024-04-09_14h32.57.013,jersey_experiment_5_v0,2023.2.2,Win32,84.74576271,,,,,,,,,,,,,,,,294.6689,295.9631,295.9631,297.9513,return,0.1564,,64.32291667,,,,,,FBP-OG-19.png,0.4,1.2,13,0.5,0,18,18,12,1,,,,,,,,,,,,,,,,,,,,,,,,,,,,,,,,,,,,,,,,
,,,,,SPR24_019,20,Male,2024-04-09_14h32.57.013,jersey_experiment_5_v0,2023.2.2,Win32,84.74576271,,,,,,,,,,,,,,,,297.9515,298.9983,298.9983,303.0928,return,2.6693,,18.22916667,,,,,,FBP-YG-71.png,0.35,1.2,16,0.25,0,19,19,15,1,,,,,,,,,,,,,,,,,,,,,,,,,,,,,,,,,,,,,,,,
,,,,,SPR24_019,20,Male,2024-04-09_14h32.57.013,jersey_experiment_5_v0,2023.2.2,Win32,84.74576271,,,,,,,,,,,,,,,,303.093,304.1398,304.1398,306.3398,return,0.0814,,49.47916667,,,,,,FBP-PT-71.png,0.37,1.2,47,0.25,0,20,20,46,1,,,,,,,,,,,,,,,,,,,,,,,,,,,,,,,,,,,,,,,,
,,,,,SPR24_019,20,Male,2024-04-09_14h32.57.013,jersey_experiment_5_v0,2023.2.2,Win32,84.74576271,,,,,,,,,,,,,,,,306.3401,307.3869,307.3869,309.3635,return,1.1895,,45.83333333,,,,,,FBP-PT-91.png,0.37,1.2,57,0.25,0,21,21,56,1,,,,,,,,,,,,,,,,,,,,,,,,,,,,,,,,,,,,,,,,
,,,,,SPR24_019,20,Male,2024-04-09_14h32.57.013,jersey_experiment_5_v0,2023.2.2,Win32,84.74576271,,,,,,,,,,,,,,,,309.3638,310.6575,310.6575,312.8105,return,0.2437,,21.484375,,,,,,FBP-RB-91.png,0.35,1.2,41,0.5,0,22,22,40,1,,,,,,,,,,,,,,,,,,,,,,,,,,,,,,,,,,,,,,,,
,,,,,SPR24_019,20,Male,2024-04-09_14h32.57.013,jersey_experiment_5_v0,2023.2.2,Win32,84.74576271,,,,,,,,,,,,,,,,312.8107,313.8577,313.8578,315.1636,return,0.1249,,36.328125,,,,,,FBP-YG-91.png,0.37,1.2,27,0.25,0,23,23,26,1,,,,,,,,,,,,,,,,,,,,,,,,,,,,,,,,,,,,,,,,
,,,,,SPR24_019,20,Male,2024-04-09_14h32.57.013,jersey_experiment_5_v0,2023.2.2,Win32,84.74576271,,,,,,,,,,,,,,,,315.1638,316.4578,316.4579,317.7284,return,0.3079,,64.97395833,,,,,,FBP-RB-81.png,0.4,1.2,38,0.5,0,24,24,37,1,,,,,,,,,,,,,,,,,,,,,,,,,,,,,,,,,,,,,,,,
,,,,,SPR24_019,20,Male,2024-04-09_14h32.57.013,jersey_experiment_5_v0,2023.2.2,Win32,84.74576271,,,,,,,,,,,,,,,,317.7285,318.7756,318.7757,320.5402,return,0.1459,,34.50520833,,,,,,FBP-PT-71.png,0.35,1.2,46,0.25,0,25,25,45,1,,,,,,,,,,,,,,,,,,,,,,,,,,,,,,,,,,,,,,,,
,,,,,SPR24_019,20,Male,2024-04-09_14h32.57.013,jersey_experiment_5_v0,2023.2.2,Win32,84.74576271,,,,,,,,,,,,,,,,320.5405,321.5874,321.5874,324.4111,return,1.1697,,94.01041667,,,,,,FBP-PT-91.png,0.43,1.2,59,0.25,0,26,26,58,1,,,,,,,,,,,,,,,,,,,,,,,,,,,,,,,,,,,,,,,,
,,,,,SPR24_019,20,Male,2024-04-09_14h32.57.013,jersey_experiment_5_v0,2023.2.2,Win32,84.74576271,,,,,,,,,,,,,,,,324.4112,325.4582,325.4582,326.3406,return,0.1644,,92.96875,,,,,,FBP-YG-71.png,0.43,1.2,19,0.25,0,27,27,18,1,,,,,,,,,,,,,,,,,,,,,,,,,,,,,,,,,,,,,,,,
,,,,,SPR24_019,20,Male,2024-04-09_14h32.57.013,jersey_experiment_5_v0,2023.2.2,Win32,84.74576271,,,,,,,,,,,,,,,,326.3407,327.3877,327.3877,329.0701,return,0.8991,,83.984375,,,,,,FBP-YG-71.png,0.4,1.2,18,0.25,0,28,28,17,1,,,,,,,,,,,,,,,,,,,,,,,,,,,,,,,,,,,,,,,,
,,,,,SPR24_019,20,Male,2024-04-09_14h32.57.013,jersey_experiment_5_v0,2023.2.2,Win32,84.74576271,,,,,,,,,,,,,,,,329.0703,330.1172,330.1173,331.9173,return,0.3691,,63.15104167,,,,,,FBP-YG-91.png,0.35,1.2,26,0.25,0,29,29,25,1,,,,,,,,,,,,,,,,,,,,,,,,,,,,,,,,,,,,,,,,
,,,,,SPR24_019,20,Male,2024-04-09_14h32.57.013,jersey_experiment_5_v0,2023.2.2,Win32,84.74576271,,,,,,,,,,,,,,,,331.9174,332.9643,332.9644,335.2584,return,0.7006,,34.89583333,,,,,,FBP-PT-81.png,0.35,1.2,51,0.25,0,30,30,50,1,,,,,,,,,,,,,,,,,,,,,,,,,,,,,,,,,,,,,,,,
,,,,,SPR24_019,20,Male,2024-04-09_14h32.57.013,jersey_experiment_5_v0,2023.2.2,Win32,84.74576271,,,,,,,,,,,,,,,,335.2587,336.5528,336.5528,337.9998,return,0.0955,,82.8125,,,,,,FBP-RB-81.png,0.43,1.2,39,0.5,0,31,31,38,1,,,,,,,,,,,,,,,,,,,,,,,,,,,,,,,,,,,,,,,,
,,,,,SPR24_019,20,Male,2024-04-09_14h32.57.013,jersey_experiment_5_v0,2023.2.2,Win32,84.74576271,,,,,,,,,,,,,,,,338.0001,339.047,339.047,340.353,return,0.5077,,100,,,,,,FBP-YG-81.png,0.45,1.2,25,0.25,0,32,32,24,1,,,,,,,,,,,,,,,,,,,,,,,,,,,,,,,,,,,,,,,,
,,,,,SPR24_019,20,Male,2024-04-09_14h32.57.013,jersey_experiment_5_v0,2023.2.2,Win32,84.74576271,,,,,,,,,,,,,,,,340.3532,341.6474,341.6474,343.5061,return,0.1409,,62.109375,,,,,,FBP-OG-19.png,0.37,1.2,12,0.5,0,33,33,11,1,,,,,,,,,,,,,,,,,,,,,,,,,,,,,,,,,,,,,,,,
,,,,,SPR24_019,20,Male,2024-04-09_14h32.57.013,jersey_experiment_5_v0,2023.2.2,Win32,84.74576271,,,,,,,,,,,,,,,,343.5063,344.553,344.553,345.953,return,0.0369,,99.08854167,,,,,,FBP-YG-71.png,0.45,1.2,20,0.25,0,34,34,19,1,,,,,,,,,,,,,,,,,,,,,,,,,,,,,,,,,,,,,,,,
,,,,,SPR24_019,20,Male,2024-04-09_14h32.57.013,jersey_experiment_5_v0,2023.2.2,Win32,84.74576271,,,,,,,,,,,,,,,,345.9533,347.2471,347.2472,348.1649,return,0.5885,,85.9375,,,,,,FBP-RB-91.png,0.43,1.2,44,0.5,0,35,35,43,1,,,,,,,,,,,,,,,,,,,,,,,,,,,,,,,,,,,,,,,,
,,,,,SPR24_019,20,Male,2024-04-09_14h32.57.013,jersey_experiment_5_v0,2023.2.2,Win32,84.74576271,,,,,,,,,,,,,,,,348.1651,349.4593,349.4593,350.2239,return,0.1069,,79.81770833,,,,,,FBP-RB-91.png,0.37,1.2,42,0.5,0,36,36,41,1,,,,,,,,,,,,,,,,,,,,,,,,,,,,,,,,,,,,,,,,
,,,,,SPR24_019,20,Male,2024-04-09_14h32.57.013,jersey_experiment_5_v0,2023.2.2,Win32,84.74576271,,,,,,,,,,,,,,,,350.2242,351.518,351.518,352.8945,return,0.6041,,68.22916667,,,,,,FBP-RB-71.png,0.37,1.2,32,0.5,0,37,37,31,1,,,,,,,,,,,,,,,,,,,,,,,,,,,,,,,,,,,,,,,,
,,,,,SPR24_019,20,Male,2024-04-09_14h32.57.013,jersey_experiment_5_v0,2023.2.2,Win32,84.74576271,,,,,,,,,,,,,,,,352.8946,353.9416,353.9416,354.8357,return,0.1036,,86.19791667,,,,,,FBP-PT-71.png,0.45,1.2,50,0.25,0,38,38,49,1,,,,,,,,,,,,,,,,,,,,,,,,,,,,,,,,,,,,,,,,
,,,,,SPR24_019,20,Male,2024-04-09_14h32.57.013,jersey_experiment_5_v0,2023.2.2,Win32,84.74576271,,,,,,,,,,,,,,,,354.8359,356.1299,356.1299,356.9888,return,0.1451,,92.31770833,,,,,,FBP-RB-81.png,0.45,1.2,40,0.5,0,39,39,39,1,,,,,,,,,,,,,,,,,,,,,,,,,,,,,,,,,,,,,,,,
,,,,,SPR24_019,20,Male,2024-04-09_14h32.57.013,jersey_experiment_5_v0,2023.2.2,Win32,84.74576271,,,,,,,,,,,,,,,,356.989,358.0358,358.0359,358.9654,return,0.178,,86.45833333,,,,,,FBP-PT-71.png,0.4,1.2,48,0.25,0,40,40,47,1,,,,,,,,,,,,,,,,,,,,,,,,,,,,,,,,,,,,,,,,
,,,,,SPR24_019,20,Male,2024-04-09_14h32.57.013,jersey_experiment_5_v0,2023.2.2,Win32,84.74576271,,,,,,,,,,,,,,,,358.9656,360.2597,360.2597,361.0712,return,0.1318,,92.83854167,,,,,,FBP-OG-18.png,0.45,1.2,10,0.5,0,41,41,9,1,,,,,,,,,,,,,,,,,,,,,,,,,,,,,,,,,,,,,,,,
,,,,,SPR24_019,20,Male,2024-04-09_14h32.57.013,jersey_experiment_5_v0,2023.2.2,Win32,84.74576271,,,,,,,,,,,,,,,,361.0715,362.3655,362.3656,363.8243,return,0.13,,72.78645833,,,,,,FBP-OG-17.png,0.35,1.2,1,0.5,0,42,42,0,1,,,,,,,,,,,,,,,,,,,,,,,,,,,,,,,,,,,,,,,,
,,,,,SPR24_019,20,Male,2024-04-09_14h32.57.013,jersey_experiment_5_v0,2023.2.2,Win32,84.74576271,,,,,,,,,,,,,,,,363.8245,364.8714,364.8715,366.6363,return,0.1699,,94.66145833,,,,,,FBP-YG-91.png,0.45,1.2,30,0.25,0,43,43,29,1,,,,,,,,,,,,,,,,,,,,,,,,,,,,,,,,,,,,,,,,
,,,,,SPR24_019,20,Male,2024-04-09_14h32.57.013,jersey_experiment_5_v0,2023.2.2,Win32,84.74576271,,,,,,,,,,,,,,,,366.6366,367.9306,367.9306,369.0245,return,0.154,,72.52604167,,,,,,FBP-OG-18.png,0.37,1.2,7,0.5,0,44,44,6,1,,,,,,,,,,,,,,,,,,,,,,,,,,,,,,,,,,,,,,,,
,,,,,SPR24_019,20,Male,2024-04-09_14h32.57.013,jersey_experiment_5_v0,2023.2.2,Win32,84.74576271,,,,,,,,,,,,,,,,369.0249,370.3188,370.3188,371.0365,return,0.099,,83.203125,,,,,,FBP-OG-19.png,0.43,1.2,14,0.5,0,45,45,13,1,,,,,,,,,,,,,,,,,,,,,,,,,,,,,,,,,,,,,,,,
,,,,,SPR24_019,20,Male,2024-04-09_14h32.57.013,jersey_experiment_5_v0,2023.2.2,Win32,84.74576271,,,,,,,,,,,,,,,,371.0367,372.0834,372.0834,373.7775,return,0.0809,,31.38020833,,,,,,FBP-YG-81.png,0.35,1.2,21,0.25,0,46,46,20,1,,,,,,,,,,,,,,,,,,,,,,,,,,,,,,,,,,,,,,,,
,,,,,SPR24_019,20,Male,2024-04-09_14h32.57.013,jersey_experiment_5_v0,2023.2.2,Win32,84.74576271,,,,,,,,,,,,,,,,373.7778,375.0718,375.0718,376.0953,return,0.166,,30.20833333,,,,,,FBP-OG-17.png,0.37,1.2,2,0.5,0,47,47,1,1,,,,,,,,,,,,,,,,,,,,,,,,,,,,,,,,,,,,,,,,
,,,,,SPR24_019,20,Male,2024-04-09_14h32.57.013,jersey_experiment_5_v0,2023.2.2,Win32,84.74576271,,,,,,,,,,,,,,,,376.0955,377.1424,377.1425,377.8719,return,0.1311,,30.46875,,,,,,FBP-PT-91.png,0.35,1.2,56,0.25,0,48,48,55,1,,,,,,,,,,,,,,,,,,,,,,,,,,,,,,,,,,,,,,,,
,,,,,SPR24_019,20,Male,2024-04-09_14h32.57.013,jersey_experiment_5_v0,2023.2.2,Win32,84.74576271,,,,,,,,,,,,,,,,377.8721,378.919,378.9191,380.0133,return,0.1097,,49.609375,,,,,,FBP-YG-81.png,0.4,1.2,23,0.25,0,49,49,22,1,,,,,,,,,,,,,,,,,,,,,,,,,,,,,,,,,,,,,,,,
,,,,,SPR24_019,20,Male,2024-04-09_14h32.57.013,jersey_experiment_5_v0,2023.2.2,Win32,84.74576271,,,,,,,,,,,,,,,,380.0135,381.3074,381.3075,383.2368,return,1.5397,,74.47916667,,,,,,FBP-OG-17.png,0.4,1.2,3,0.5,0,50,50,2,1,,,,,,,,,,,,,,,,,,,,,,,,,,,,,,,,,,,,,,,,
,,,,,SPR24_019,20,Male,2024-04-09_14h32.57.013,jersey_experiment_5_v0,2023.2.2,Win32,84.74576271,,,,,,,,,,,,,,,,383.237,384.284,384.284,390.0605,return,0.1108,,65.10416667,,,,,,FBP-YG-91.png,0.43,1.2,29,0.25,0,51,51,28,1,,,,,,,,,,,,,,,,,,,,,,,,,,,,,,,,,,,,,,,,
,,,,,SPR24_019,20,Male,2024-04-09_14h32.57.013,jersey_experiment_5_v0,2023.2.2,Win32,84.74576271,,,,,,,,,,,,,,,,390.0608,391.1077,391.1077,392.59,return,0.3092,,74.86979167,,,,,,FBP-PT-91.png,0.4,1.2,58,0.25,0,52,52,57,1,,,,,,,,,,,,,,,,,,,,,,,,,,,,,,,,,,,,,,,,
,,,,,SPR24_019,20,Male,2024-04-09_14h32.57.013,jersey_experiment_5_v0,2023.2.2,Win32,84.74576271,,,,,,,,,,,,,,,,392.5902,393.6371,393.6371,394.5902,return,0.1683,,75.78125,,,,,,FBP-PT-71.png,0.43,1.2,49,0.25,0,53,53,48,1,,,,,,,,,,,,,,,,,,,,,,,,,,,,,,,,,,,,,,,,
,,,,,SPR24_019,20,Male,2024-04-09_14h32.57.013,jersey_experiment_5_v0,2023.2.2,Win32,84.74576271,,,,,,,,,,,,,,,,394.5905,395.8845,395.8845,397.155,return,0.5412,,86.19791667,,,,,,FBP-OG-17.png,0.45,1.2,5,0.5,0,54,54,4,1,,,,,,,,,,,,,,,,,,,,,,,,,,,,,,,,,,,,,,,,
,,,,,SPR24_019,20,Male,2024-04-09_14h32.57.013,jersey_experiment_5_v0,2023.2.2,Win32,84.74576271,,,,,,,,,,,,,,,,397.1553,398.4492,398.4493,399.6493,return,0.1306,,88.54166667,,,,,,FBP-OG-19.png,0.45,1.2,15,0.5,0,55,55,14,1,,,,,,,,,,,,,,,,,,,,,,,,,,,,,,,,,,,,,,,,
,,,,,SPR24_019,20,Male,2024-04-09_14h32.57.013,jersey_experiment_5_v0,2023.2.2,Win32,84.74576271,,,,,,,,,,,,,,,,399.6495,400.6965,400.6965,402.5787,return,0.1647,,81.77083333,,,,,,FBP-PT-81.png,0.4,1.2,53,0.25,0,56,56,52,1,,,,,,,,,,,,,,,,,,,,,,,,,,,,,,,,,,,,,,,,
,,,,,SPR24_019,20,Male,2024-04-09_14h32.57.013,jersey_experiment_5_v0,2023.2.2,Win32,84.74576271,,,,,,,,,,,,,,,,402.579,403.8728,403.8729,404.8613,return,0.0526,,69.40104167,,,,,,FBP-OG-18.png,0.4,1.2,8,0.5,0,57,57,7,1,,,,,,,,,,,,,,,,,,,,,,,,,,,,,,,,,,,,,,,,
,,,,,SPR24_019,20,Male,2024-04-09_14h32.57.013,jersey_experiment_5_v0,2023.2.2,Win32,84.74576271,,,,,,,,,,,,,,,,404.8614,406.1555,406.1555,406.9319,return,0.1508,,86.06770833,,,,,,FBP-OG-18.png,0.43,1.2,9,0.5,0,58,58,8,1,,,,,,,,,,,,,,,,,,,,,,,,,,,,,,,,,,,,,,,,
,,,,,SPR24_019,20,Male,2024-04-09_14h32.57.013,jersey_experiment_5_v0,2023.2.2,Win32,84.74576271,,,,,,,,,,,,,,,,406.9321,408.226,408.226,410.191,return,0.497,,28.515625,,,,,,FBP-OG-19.png,0.35,1.2,11,0.5,0,59,59,10,1,,,,,,,,,,,,,,,,,,,,,,,,,,,,,,,,,,,,,,,,
,,,,,SPR24_019,20,Male,2024-04-09_14h32.57.013,jersey_experiment_5_v0,2023.2.2,Win32,84.74576271,,,,,,,,,,,,,,,,,,,,,,,,,,,,,,,,,,,,,,,410.1913,530.1838,,,,,,,,,,,,,,,,,,,,,,,,,,,,,,,,,,,,,,
,,,,,SPR24_019,20,Male,2024-04-09_14h32.57.013,jersey_experiment_5_v0,2023.2.2,Win32,84.74576271,,,,,,,,,,,,,,,,,,,,,,,,,,,,,,,,,,,,,,,,,530.1839,531.9483,return,1.7582,,,,,,,,,,,,,,,,,,,,,,,,,,,,,,,,,,
,,,,,SPR24_019,20,Male,2024-04-09_14h32.57.013,jersey_experiment_5_v0,2023.2.2,Win32,84.74576271,,,,,,,,,,,,,,,,531.9549,533.0072,533.0073,534.3954,return,0.1724,,64.19270833,,,,,,FBP-RB-18.png,0.45,1.2,40,0.25,,,,,,,,,,,,,0,0,0,39,1,,,,,,,,,,,,,,,,,,,,,,,,,,,,
,,,,,SPR24_019,20,Male,2024-04-09_14h32.57.013,jersey_experiment_5_v0,2023.2.2,Win32,84.74576271,,,,,,,,,,,,,,,,534.3958,535.4425,535.4425,539.3134,return,0.176,,49.34895833,,,,,,FBP-OG-71.png,0.37,1.2,2,0.25,,,,,,,,,,,,,0,1,1,1,1,,,,,,,,,,,,,,,,,,,,,,,,,,,,
,,,,,SPR24_019,20,Male,2024-04-09_14h32.57.013,jersey_experiment_5_v0,2023.2.2,Win32,84.74576271,,,,,,,,,,,,,,,,539.3136,540.6074,540.6074,541.796,return,0.5413,,29.42708333,,,,,,FBP-PT-17.png,0.35,1.2,46,0.5,,,,,,,,,,,,,0,2,2,45,1,,,,,,,,,,,,,,,,,,,,,,,,,,,,
,,,,,SPR24_019,20,Male,2024-04-09_14h32.57.013,jersey_experiment_5_v0,2023.2.2,Win32,84.74576271,,,,,,,,,,,,,,,,541.7962,543.09,543.09,545.0078,return,1.0021,,78.25520833,,,,,,FBP-YG-18.png,0.43,1.2,24,0.5,,,,,,,,,,,,,0,3,3,23,1,,,,,,,,,,,,,,,,,,,,,,,,,,,,
,,,,,SPR24_019,20,Male,2024-04-09_14h32.57.013,jersey_experiment_5_v0,2023.2.2,Win32,84.74576271,,,,,,,,,,,,,,,,545.008,546.3018,546.3018,547.1724,return,0.0939,,29.55729167,,,,,,FBP-PT-18.png,0.35,1.2,51,0.5,,,,,,,,,,,,,0,4,4,50,1,,,,,,,,,,,,,,,,,,,,,,,,,,,,
,,,,,SPR24_019,20,Male,2024-04-09_14h32.57.013,jersey_experiment_5_v0,2023.2.2,Win32,84.74576271,,,,,,,,,,,,,,,,547.1728,548.4666,548.4667,549.6786,return,0.3799,,36.71875,,,,,,FBP-YG-18.png,0.37,1.2,22,0.5,,,,,,,,,,,,,0,5,5,21,1,,,,,,,,,,,,,,,,,,,,,,,,,,,,
,,,,,SPR24_019,20,Male,2024-04-09_14h32.57.013,jersey_experiment_5_v0,2023.2.2,Win32,84.74576271,,,,,,,,,,,,,,,,549.6789,550.7255,550.7255,552.4315,return,0.227,,74.609375,,,,,,FBP-OG-71.png,0.43,1.2,4,0.25,,,,,,,,,,,,,0,6,6,3,1,,,,,,,,,,,,,,,,,,,,,,,,,,,,
,,,,,SPR24_019,20,Male,2024-04-09_14h32.57.013,jersey_experiment_5_v0,2023.2.2,Win32,84.74576271,,,,,,,,,,,,,,,,552.4317,553.7257,553.7257,554.4434,return,0.0644,,68.88020833,,,,,,FBP-PT-17.png,0.37,1.2,47,0.5,,,,,,,,,,,,,0,7,7,46,1,,,,,,,,,,,,,,,,,,,,,,,,,,,,
,,,,,SPR24_019,20,Male,2024-04-09_14h32.57.013,jersey_experiment_5_v0,2023.2.2,Win32,84.74576271,,,,,,,,,,,,,,,,554.4435,555.7377,555.7377,556.4787,return,0.1803,,80.859375,,,,,,FBP-PT-19.png,0.43,1.2,59,0.5,,,,,,,,,,,,,0,8,8,58,1,,,,,,,,,,,,,,,,,,,,,,,,,,,,
,,,,,SPR24_019,20,Male,2024-04-09_14h32.57.013,jersey_experiment_5_v0,2023.2.2,Win32,84.74576271,,,,,,,,,,,,,,,,556.4789,557.5257,557.5258,558.5729,return,0.1221,,86.45833333,,,,,,FBP-RB-19.png,0.43,1.2,44,0.25,,,,,,,,,,,,,0,9,9,43,1,,,,,,,,,,,,,,,,,,,,,,,,,,,,
,,,,,SPR24_019,20,Male,2024-04-09_14h32.57.013,jersey_experiment_5_v0,2023.2.2,Win32,84.74576271,,,,,,,,,,,,,,,,558.5731,559.6199,559.6199,560.373,return,0.104,,84.11458333,,,,,,FBP-OG-81.png,0.4,1.2,8,0.25,,,,,,,,,,,,,0,10,10,7,1,,,,,,,,,,,,,,,,,,,,,,,,,,,,
,,,,,SPR24_019,20,Male,2024-04-09_14h32.57.013,jersey_experiment_5_v0,2023.2.2,Win32,84.74576271,,,,,,,,,,,,,,,,560.3732,561.4201,561.4201,561.9141,return,0.0436,,84.11458333,,,,,,FBP-OG-91.png,0.37,1.2,12,0.25,,,,,,,,,,,,,0,11,11,11,1,,,,,,,,,,,,,,,,,,,,,,,,,,,,
,,,,,SPR24_019,20,Male,2024-04-09_14h32.57.013,jersey_experiment_5_v0,2023.2.2,Win32,84.74576271,,,,,,,,,,,,,,,,561.9144,562.9611,562.9612,565.7262,return,0.0162,,36.328125,,,,,,FBP-RB-19.png,0.35,1.2,41,0.25,,,,,,,,,,,,,0,12,12,40,1,,,,,,,,,,,,,,,,,,,,,,,,,,,,
,,,,,SPR24_019,20,Male,2024-04-09_14h32.57.013,jersey_experiment_5_v0,2023.2.2,Win32,84.74576271,,,,,,,,,,,,,,,,565.7264,566.773,566.7731,568.2911,return,0.225,,75.26041667,,,,,,FBP-OG-91.png,0.43,1.2,14,0.25,,,,,,,,,,,,,0,13,13,13,1,,,,,,,,,,,,,,,,,,,,,,,,,,,,
,,,,,SPR24_019,20,Male,2024-04-09_14h32.57.013,jersey_experiment_5_v0,2023.2.2,Win32,84.74576271,,,,,,,,,,,,,,,,568.2914,569.3379,569.3379,569.8085,return,0.0357,,75,,,,,,FBP-OG-71.png,0.45,1.2,5,0.25,,,,,,,,,,,,,0,14,14,4,1,,,,,,,,,,,,,,,,,,,,,,,,,,,,
,,,,,SPR24_019,20,Male,2024-04-09_14h32.57.013,jersey_experiment_5_v0,2023.2.2,Win32,84.74576271,,,,,,,,,,,,,,,,569.8087,571.1027,571.1027,572.6557,return,0.2014,,73.17708333,,,,,,FBP-PT-17.png,0.4,1.2,48,0.5,,,,,,,,,,,,,0,15,15,47,1,,,,,,,,,,,,,,,,,,,,,,,,,,,,
,,,,,SPR24_019,20,Male,2024-04-09_14h32.57.013,jersey_experiment_5_v0,2023.2.2,Win32,84.74576271,,,,,,,,,,,,,,,,572.6559,573.9498,573.9498,575.6794,return,0.2607,,74.47916667,,,,,,FBP-YG-17.png,0.4,1.2,18,0.5,,,,,,,,,,,,,0,16,16,17,1,,,,,,,,,,,,,,,,,,,,,,,,,,,,
,,,,,SPR24_019,20,Male,2024-04-09_14h32.57.013,jersey_experiment_5_v0,2023.2.2,Win32,84.74576271,,,,,,,,,,,,,,,,575.6797,576.7265,576.7265,578.8444,return,0.1474,,35.9375,,,,,,FBP-RB-17.png,0.35,1.2,31,0.25,,,,,,,,,,,,,0,17,17,30,1,,,,,,,,,,,,,,,,,,,,,,,,,,,,
,,,,,SPR24_019,20,Male,2024-04-09_14h32.57.013,jersey_experiment_5_v0,2023.2.2,Win32,84.74576271,,,,,,,,,,,,,,,,578.8446,579.8915,579.8916,582.6209,return,0.0517,,68.61979167,,,,,,FBP-RB-18.png,0.4,1.2,38,0.25,,,,,,,,,,,,,0,18,18,37,1,,,,,,,,,,,,,,,,,,,,,,,,,,,,
,,,,,SPR24_019,20,Male,2024-04-09_14h32.57.013,jersey_experiment_5_v0,2023.2.2,Win32,84.74576271,,,,,,,,,,,,,,,,582.6211,583.915,583.9151,585.2798,return,0.0484,,88.41145833,,,,,,FBP-YG-17.png,0.43,1.2,19,0.5,,,,,,,,,,,,,0,19,19,18,1,,,,,,,,,,,,,,,,,,,,,,,,,,,,
,,,,,SPR24_019,20,Male,2024-04-09_14h32.57.013,jersey_experiment_5_v0,2023.2.2,Win32,84.74576271,,,,,,,,,,,,,,,,585.28,586.3269,586.3269,587.4211,return,0.5353,,96.484375,,,,,,FBP-RB-17.png,0.45,1.2,35,0.25,,,,,,,,,,,,,0,20,20,34,1,,,,,,,,,,,,,,,,,,,,,,,,,,,,
,,,,,SPR24_019,20,Male,2024-04-09_14h32.57.013,jersey_experiment_5_v0,2023.2.2,Win32,84.74576271,,,,,,,,,,,,,,,,587.4214,588.4681,588.4681,590.2683,return,0.1929,,89.19270833,,,,,,FBP-OG-91.png,0.4,1.2,13,0.25,,,,,,,,,,,,,0,21,21,12,1,,,,,,,,,,,,,,,,,,,,,,,,,,,,
,,,,,SPR24_019,20,Male,2024-04-09_14h32.57.013,jersey_experiment_5_v0,2023.2.2,Win32,84.74576271,,,,,,,,,,,,,,,,590.2685,591.5624,591.5624,592.8682,return,0.1181,,37.76041667,,,,,,FBP-YG-19.png,0.35,1.2,26,0.5,,,,,,,,,,,,,0,22,22,25,1,,,,,,,,,,,,,,,,,,,,,,,,,,,,
,,,,,SPR24_019,20,Male,2024-04-09_14h32.57.013,jersey_experiment_5_v0,2023.2.2,Win32,84.74576271,,,,,,,,,,,,,,,,592.8685,593.9154,593.9154,597.3392,return,1.796,,32.55208333,,,,,,FBP-OG-81.png,0.35,1.2,6,0.25,,,,,,,,,,,,,0,23,23,5,1,,,,,,,,,,,,,,,,,,,,,,,,,,,,
,,,,,SPR24_019,20,Male,2024-04-09_14h32.57.013,jersey_experiment_5_v0,2023.2.2,Win32,84.74576271,,,,,,,,,,,,,,,,597.3394,598.6333,598.6333,599.563,return,0.1142,,85.80729167,,,,,,FBP-YG-18.png,0.4,1.2,23,0.5,,,,,,,,,,,,,0,24,24,22,1,,,,,,,,,,,,,,,,,,,,,,,,,,,,
,,,,,SPR24_019,20,Male,2024-04-09_14h32.57.013,jersey_experiment_5_v0,2023.2.2,Win32,84.74576271,,,,,,,,,,,,,,,,599.5633,600.8567,600.8568,601.4922,return,0.1075,,86.06770833,,,,,,FBP-YG-17.png,0.37,1.2,17,0.5,,,,,,,,,,,,,0,25,25,16,1,,,,,,,,,,,,,,,,,,,,,,,,,,,,
,,,,,SPR24_019,20,Male,2024-04-09_14h32.57.013,jersey_experiment_5_v0,2023.2.2,Win32,84.74576271,,,,,,,,,,,,,,,,601.4925,602.7863,602.7864,603.7392,return,0.1721,,99.73958333,,,,,,FBP-PT-17.png,0.45,1.2,50,0.5,,,,,,,,,,,,,0,26,26,49,1,,,,,,,,,,,,,,,,,,,,,,,,,,,,
,,,,,SPR24_019,20,Male,2024-04-09_14h32.57.013,jersey_experiment_5_v0,2023.2.2,Win32,84.74576271,,,,,,,,,,,,,,,,603.7395,605.0334,605.0335,605.5511,return,0.0511,,99.609375,,,,,,FBP-YG-17.png,0.45,1.2,20,0.5,,,,,,,,,,,,,0,27,27,19,1,,,,,,,,,,,,,,,,,,,,,,,,,,,,
,,,,,SPR24_019,20,Male,2024-04-09_14h32.57.013,jersey_experiment_5_v0,2023.2.2,Win32,84.74576271,,,,,,,,,,,,,,,,605.5513,606.5981,606.5982,607.9512,return,0.0846,,35.67708333,,,,,,FBP-RB-18.png,0.35,1.2,36,0.25,,,,,,,,,,,,,0,28,28,35,1,,,,,,,,,,,,,,,,,,,,,,,,,,,,
,,,,,SPR24_019,20,Male,2024-04-09_14h32.57.013,jersey_experiment_5_v0,2023.2.2,Win32,84.74576271,,,,,,,,,,,,,,,,607.9516,608.9983,608.9984,610.1632,return,0.0576,,34.24479167,,,,,,FBP-OG-81.png,0.37,1.2,7,0.25,,,,,,,,,,,,,0,29,29,6,1,,,,,,,,,,,,,,,,,,,,,,,,,,,,
,,,,,SPR24_019,20,Male,2024-04-09_14h32.57.013,jersey_experiment_5_v0,2023.2.2,Win32,84.74576271,,,,,,,,,,,,,,,,610.1634,611.2102,611.2103,612.0455,return,0.1569,,30.98958333,,,,,,FBP-RB-19.png,0.37,1.2,42,0.25,,,,,,,,,,,,,0,30,30,41,1,,,,,,,,,,,,,,,,,,,,,,,,,,,,
,,,,,SPR24_019,20,Male,2024-04-09_14h32.57.013,jersey_experiment_5_v0,2023.2.2,Win32,84.74576271,,,,,,,,,,,,,,,,612.0458,613.3397,613.3397,614.1632,return,0.1033,,84.765625,,,,,,FBP-PT-18.png,0.45,1.2,55,0.5,,,,,,,,,,,,,0,31,31,54,1,,,,,,,,,,,,,,,,,,,,,,,,,,,,
,,,,,SPR24_019,20,Male,2024-04-09_14h32.57.013,jersey_experiment_5_v0,2023.2.2,Win32,84.74576271,,,,,,,,,,,,,,,,614.1635,615.2104,615.2104,616.1281,return,0.1323,,97.265625,,,,,,FBP-OG-91.png,0.45,1.2,15,0.25,,,,,,,,,,,,,0,32,32,14,1,,,,,,,,,,,,,,,,,,,,,,,,,,,,
,,,,,SPR24_019,20,Male,2024-04-09_14h32.57.013,jersey_experiment_5_v0,2023.2.2,Win32,84.74576271,,,,,,,,,,,,,,,,616.1284,617.1752,617.1752,617.6811,return,0.0944,,97.00520833,,,,,,FBP-OG-81.png,0.43,1.2,9,0.25,,,,,,,,,,,,,0,33,33,8,1,,,,,,,,,,,,,,,,,,,,,,,,,,,,
,,,,,SPR24_019,20,Male,2024-04-09_14h32.57.013,jersey_experiment_5_v0,2023.2.2,Win32,84.74576271,,,,,,,,,,,,,,,,617.6813,618.9751,618.9751,619.2927,return,0.1708,,97.00520833,,,,,,FBP-PT-18.png,0.43,1.2,54,0.5,,,,,,,,,,,,,0,34,34,53,1,,,,,,,,,,,,,,,,,,,,,,,,,,,,
,,,,,SPR24_019,20,Male,2024-04-09_14h32.57.013,jersey_experiment_5_v0,2023.2.2,Win32,84.74576271,,,,,,,,,,,,,,,,619.2929,620.587,620.5871,621.94,return,0.0603,,29.81770833,,,,,,FBP-YG-17.png,0.35,1.2,16,0.5,,,,,,,,,,,,,0,35,35,15,1,,,,,,,,,,,,,,,,,,,,,,,,,,,,
,,,,,SPR24_019,20,Male,2024-04-09_14h32.57.013,jersey_experiment_5_v0,2023.2.2,Win32,84.74576271,,,,,,,,,,,,,,,,621.9403,622.9871,622.9872,624.1635,return,0.1415,,75.52083333,,,,,,FBP-RB-17.png,0.43,1.2,34,0.25,,,,,,,,,,,,,0,36,36,33,1,,,,,,,,,,,,,,,,,,,,,,,,,,,,
,,,,,SPR24_019,20,Male,2024-04-09_14h32.57.013,jersey_experiment_5_v0,2023.2.2,Win32,84.74576271,,,,,,,,,,,,,,,,624.1637,625.4578,625.4578,626.3519,return,0.0604,,89.453125,,,,,,FBP-PT-19.png,0.45,1.2,60,0.5,,,,,,,,,,,,,0,37,37,59,1,,,,,,,,,,,,,,,,,,,,,,,,,,,,
,,,,,SPR24_019,20,Male,2024-04-09_14h32.57.013,jersey_experiment_5_v0,2023.2.2,Win32,84.74576271,,,,,,,,,,,,,,,,626.3521,627.6463,627.6464,629.2933,return,0.1,,45.3125,,,,,,FBP-PT-19.png,0.37,1.2,57,0.5,,,,,,,,,,,,,0,38,38,56,1,,,,,,,,,,,,,,,,,,,,,,,,,,,,
,,,,,SPR24_019,20,Male,2024-04-09_14h32.57.013,jersey_experiment_5_v0,2023.2.2,Win32,84.74576271,,,,,,,,,,,,,,,,629.2934,630.5874,630.5874,631.6936,return,0.123,,25.65104167,,,,,,FBP-PT-19.png,0.35,1.2,56,0.5,,,,,,,,,,,,,0,39,39,55,1,,,,,,,,,,,,,,,,,,,,,,,,,,,,
,,,,,SPR24_019,20,Male,2024-04-09_14h32.57.013,jersey_experiment_5_v0,2023.2.2,Win32,84.74576271,,,,,,,,,,,,,,,,631.6937,632.9873,632.9874,634.1875,return,0.111,,25.52083333,,,,,,FBP-YG-19.png,0.37,1.2,27,0.5,,,,,,,,,,,,,0,40,40,26,1,,,,,,,,,,,,,,,,,,,,,,,,,,,,
,,,,,SPR24_019,20,Male,2024-04-09_14h32.57.013,jersey_experiment_5_v0,2023.2.2,Win32,84.74576271,,,,,,,,,,,,,,,,634.1877,635.4816,635.4816,636.8346,return,0.0706,,80.72916667,,,,,,FBP-PT-17.png,0.43,1.2,49,0.5,,,,,,,,,,,,,0,41,41,48,1,,,,,,,,,,,,,,,,,,,,,,,,,,,,
,,,,,SPR24_019,20,Male,2024-04-09_14h32.57.013,jersey_experiment_5_v0,2023.2.2,Win32,84.74576271,,,,,,,,,,,,,,,,636.8349,638.1288,638.1288,638.8349,return,0.1074,,80.72916667,,,,,,FBP-PT-18.png,0.4,1.2,53,0.5,,,,,,,,,,,,,0,42,42,52,1,,,,,,,,,,,,,,,,,,,,,,,,,,,,
,,,,,SPR24_019,20,Male,2024-04-09_14h32.57.013,jersey_experiment_5_v0,2023.2.2,Win32,84.74576271,,,,,,,,,,,,,,,,638.8351,640.1291,640.1291,640.8349,return,0.0233,,88.80208333,,,,,,FBP-YG-18.png,0.45,1.2,25,0.5,,,,,,,,,,,,,0,43,43,24,1,,,,,,,,,,,,,,,,,,,,,,,,,,,,
,,,,,SPR24_019,20,Male,2024-04-09_14h32.57.013,jersey_experiment_5_v0,2023.2.2,Win32,84.74576271,,,,,,,,,,,,,,,,640.8352,642.1291,642.1291,642.5878,return,0.101,,87.36979167,,,,,,FBP-YG-19.png,0.4,1.2,28,0.5,,,,,,,,,,,,,0,44,44,27,1,,,,,,,,,,,,,,,,,,,,,,,,,,,,
,,,,,SPR24_019,20,Male,2024-04-09_14h32.57.013,jersey_experiment_5_v0,2023.2.2,Win32,84.74576271,,,,,,,,,,,,,,,,642.5881,643.6349,643.6349,644.1408,return,0.0633,,87.36979167,,,,,,FBP-OG-71.png,0.4,1.2,3,0.25,,,,,,,,,,,,,0,45,45,2,1,,,,,,,,,,,,,,,,,,,,,,,,,,,,
,,,,,SPR24_019,20,Male,2024-04-09_14h32.57.013,jersey_experiment_5_v0,2023.2.2,Win32,84.74576271,,,,,,,,,,,,,,,,644.141,645.1879,645.1879,646.3174,return,0.0878,,70.703125,,,,,,FBP-RB-18.png,0.37,1.2,37,0.25,,,,,,,,,,,,,0,46,46,36,1,,,,,,,,,,,,,,,,,,,,,,,,,,,,
,,,,,SPR24_019,20,Male,2024-04-09_14h32.57.013,jersey_experiment_5_v0,2023.2.2,Win32,84.74576271,,,,,,,,,,,,,,,,646.3177,647.6115,647.6116,648.9764,return,0.5788,,93.61979167,,,,,,FBP-YG-19.png,0.45,1.2,30,0.5,,,,,,,,,,,,,0,47,47,29,1,,,,,,,,,,,,,,,,,,,,,,,,,,,,
,,,,,SPR24_019,20,Male,2024-04-09_14h32.57.013,jersey_experiment_5_v0,2023.2.2,Win32,84.74576271,,,,,,,,,,,,,,,,648.9766,650.0234,650.0234,650.6117,return,0.2116,,93.09895833,,,,,,FBP-RB-18.png,0.43,1.2,39,0.25,,,,,,,,,,,,,0,48,48,38,1,,,,,,,,,,,,,,,,,,,,,,,,,,,,
,,,,,SPR24_019,20,Male,2024-04-09_14h32.57.013,jersey_experiment_5_v0,2023.2.2,Win32,84.74576271,,,,,,,,,,,,,,,,650.6119,651.6587,651.6588,652.1646,return,0.1031,,93.09895833,,,,,,FBP-RB-19.png,0.45,1.2,45,0.25,,,,,,,,,,,,,0,49,49,44,1,,,,,,,,,,,,,,,,,,,,,,,,,,,,
,,,,,SPR24_019,20,Male,2024-04-09_14h32.57.013,jersey_experiment_5_v0,2023.2.2,Win32,84.74576271,,,,,,,,,,,,,,,,652.1649,653.4587,653.4587,654.9413,return,0.0633,,50,,,,,,FBP-PT-19.png,0.4,1.2,58,0.5,,,,,,,,,,,,,0,50,50,57,1,,,,,,,,,,,,,,,,,,,,,,,,,,,,
,,,,,SPR24_019,20,Male,2024-04-09_14h32.57.013,jersey_experiment_5_v0,2023.2.2,Win32,84.74576271,,,,,,,,,,,,,,,,654.9416,655.9883,655.9883,657.8824,return,0.7014,,66.53645833,,,,,,FBP-RB-17.png,0.4,1.2,33,0.25,,,,,,,,,,,,,0,51,51,32,1,,,,,,,,,,,,,,,,,,,,,,,,,,,,
,,,,,SPR24_019,20,Male,2024-04-09_14h32.57.013,jersey_experiment_5_v0,2023.2.2,Win32,84.74576271,,,,,,,,,,,,,,,,657.8826,659.1767,659.1767,660.8475,return,0.1305,,33.59375,,,,,,FBP-YG-18.png,0.35,1.2,21,0.5,,,,,,,,,,,,,0,52,52,20,1,,,,,,,,,,,,,,,,,,,,,,,,,,,,
,,,,,SPR24_019,20,Male,2024-04-09_14h32.57.013,jersey_experiment_5_v0,2023.2.2,Win32,84.74576271,,,,,,,,,,,,,,,,660.8477,662.1414,662.1415,663.5061,return,0.1053,,85.15625,,,,,,FBP-YG-19.png,0.43,1.2,29,0.5,,,,,,,,,,,,,0,53,53,28,1,,,,,,,,,,,,,,,,,,,,,,,,,,,,
,,,,,SPR24_019,20,Male,2024-04-09_14h32.57.013,jersey_experiment_5_v0,2023.2.2,Win32,84.74576271,,,,,,,,,,,,,,,,663.5063,664.5533,664.5533,665.6829,return,0.2958,,94.01041667,,,,,,FBP-OG-81.png,0.45,1.2,10,0.25,,,,,,,,,,,,,0,54,54,9,1,,,,,,,,,,,,,,,,,,,,,,,,,,,,
,,,,,SPR24_019,20,Male,2024-04-09_14h32.57.013,jersey_experiment_5_v0,2023.2.2,Win32,84.74576271,,,,,,,,,,,,,,,,665.6831,666.7298,666.7298,668.13,return,0.1646,,29.94791667,,,,,,FBP-OG-91.png,0.35,1.2,11,0.25,,,,,,,,,,,,,0,55,55,10,1,,,,,,,,,,,,,,,,,,,,,,,,,,,,
,,,,,SPR24_019,20,Male,2024-04-09_14h32.57.013,jersey_experiment_5_v0,2023.2.2,Win32,84.74576271,,,,,,,,,,,,,,,,668.1302,669.177,669.177,670.5417,return,0.11,,50,,,,,,FBP-RB-19.png,0.4,1.2,43,0.25,,,,,,,,,,,,,0,56,56,42,1,,,,,,,,,,,,,,,,,,,,,,,,,,,,
,,,,,SPR24_019,20,Male,2024-04-09_14h32.57.013,jersey_experiment_5_v0,2023.2.2,Win32,84.74576271,,,,,,,,,,,,,,,,670.542,671.5888,671.5889,672.6241,return,0.1794,,50.65104167,,,,,,FBP-RB-17.png,0.37,1.2,32,0.25,,,,,,,,,,,,,0,57,57,31,1,,,,,,,,,,,,,,,,,,,,,,,,,,,,
,,,,,SPR24_019,20,Male,2024-04-09_14h32.57.013,jersey_experiment_5_v0,2023.2.2,Win32,84.74576271,,,,,,,,,,,,,,,,672.6243,673.9183,673.9183,674.2243,return,0.0847,,50.65104167,,,,,,FBP-PT-18.png,0.37,1.2,52,0.5,,,,,,,,,,,,,0,58,58,51,1,,,,,,,,,,,,,,,,,,,,,,,,,,,,
,,,,,SPR24_019,20,Male,2024-04-09_14h32.57.013,jersey_experiment_5_v0,2023.2.2,Win32,84.74576271,,,,,,,,,,,,,,,,674.2245,675.2717,675.2718,675.6006,return,0.059,,50.65104167,,,,,,FBP-OG-71.png,0.35,1.2,1,0.25,,,,,,,,,,,,,0,59,59,0,1,,,,,,,,,,,,,,,,,,,,,,,,,,,,
,,,,,SPR24_019,20,Male,2024-04-09_14h32.57.013,jersey_experiment_5_v0,2023.2.2,Win32,84.74576271,,,,,,,,,,,,,,,,675.6019,676.8951,676.8952,678.095,return,0.1453,,67.05729167,,,,,,FBP-YG-71.png,0.43,1.2,19,0.5,,,,,,,,,,,,,,,,,,0,0,0,18,1,,,,,,,,,,,,,,,,,,,,,,,
,,,,,SPR24_019,20,Male,2024-04-09_14h32.57.013,jersey_experiment_5_v0,2023.2.2,Win32,84.74576271,,,,,,,,,,,,,,,,678.0952,679.1421,679.1422,680.8835,return,0.4716,,33.07291667,,,,,,FBP-OG-18.png,0.37,1.2,7,0.25,,,,,,,,,,,,,,,,,,0,1,1,6,1,,,,,,,,,,,,,,,,,,,,,,,
,,,,,SPR24_019,20,Male,2024-04-09_14h32.57.013,jersey_experiment_5_v0,2023.2.2,Win32,84.74576271,,,,,,,,,,,,,,,,680.8837,681.9304,681.9305,682.7894,return,0.0725,,94.40104167,,,,,,FBP-OG-18.png,0.45,1.2,10,0.25,,,,,,,,,,,,,,,,,,0,2,2,9,1,,,,,,,,,,,,,,,,,,,,,,,
,,,,,SPR24_019,20,Male,2024-04-09_14h32.57.013,jersey_experiment_5_v0,2023.2.2,Win32,84.74576271,,,,,,,,,,,,,,,,682.7895,683.8363,683.8364,685.4129,return,0.4236,,29.94791667,,,,,,FBP-RB-91.png,0.35,1.2,41,0.25,,,,,,,,,,,,,,,,,,0,3,3,40,1,,,,,,,,,,,,,,,,,,,,,,,
,,,,,SPR24_019,20,Male,2024-04-09_14h32.57.013,jersey_experiment_5_v0,2023.2.2,Win32,84.74576271,,,,,,,,,,,,,,,,685.4131,686.7071,686.7072,689.0836,return,1.571,,66.27604167,,,,,,FBP-YG-81.png,0.4,1.2,23,0.5,,,,,,,,,,,,,,,,,,0,4,4,22,1,,,,,,,,,,,,,,,,,,,,,,,
,,,,,SPR24_019,20,Male,2024-04-09_14h32.57.013,jersey_experiment_5_v0,2023.2.2,Win32,84.74576271,,,,,,,,,,,,,,,,689.0838,690.131,690.131,691.4721,return,0.1899,,93.88020833,,,,,,FBP-RB-81.png,0.43,1.2,39,0.25,,,,,,,,,,,,,,,,,,0,5,5,38,1,,,,,,,,,,,,,,,,,,,,,,,
,,,,,SPR24_019,20,Male,2024-04-09_14h32.57.013,jersey_experiment_5_v0,2023.2.2,Win32,84.74576271,,,,,,,,,,,,,,,,691.4723,692.519,692.519,693.0368,return,0.0403,,91.40625,,,,,,FBP-OG-17.png,0.45,1.2,5,0.25,,,,,,,,,,,,,,,,,,0,6,6,4,1,,,,,,,,,,,,,,,,,,,,,,,
,,,,,SPR24_019,20,Male,2024-04-09_14h32.57.013,jersey_experiment_5_v0,2023.2.2,Win32,84.74576271,,,,,,,,,,,,,,,,693.037,694.331,694.331,695.178,return,0.0561,,75.390625,,,,,,FBP-YG-91.png,0.37,1.2,27,0.5,,,,,,,,,,,,,,,,,,0,7,7,26,1,,,,,,,,,,,,,,,,,,,,,,,
,,,,,SPR24_019,20,Male,2024-04-09_14h32.57.013,jersey_experiment_5_v0,2023.2.2,Win32,84.74576271,,,,,,,,,,,,,,,,695.1782,696.4722,696.4722,697.7428,return,0.0747,,50.65104167,,,,,,FBP-YG-81.png,0.37,1.2,22,0.5,,,,,,,,,,,,,,,,,,0,8,8,21,1,,,,,,,,,,,,,,,,,,,,,,,
,,,,,SPR24_019,20,Male,2024-04-09_14h32.57.013,jersey_experiment_5_v0,2023.2.2,Win32,84.74576271,,,,,,,,,,,,,,,,697.743,698.79,698.7901,700.037,return,0.1885,,99.34895833,,,,,,FBP-OG-19.png,0.45,1.2,15,0.25,,,,,,,,,,,,,,,,,,0,9,9,14,1,,,,,,,,,,,,,,,,,,,,,,,
,,,,,SPR24_019,20,Male,2024-04-09_14h32.57.013,jersey_experiment_5_v0,2023.2.2,Win32,84.74576271,,,,,,,,,,,,,,,,700.0372,701.3312,701.3313,701.9666,return,0.2279,,97.00520833,,,,,,FBP-PT-71.png,0.45,1.2,50,0.5,,,,,,,,,,,,,,,,,,0,10,10,49,1,,,,,,,,,,,,,,,,,,,,,,,
,,,,,SPR24_019,20,Male,2024-04-09_14h32.57.013,jersey_experiment_5_v0,2023.2.2,Win32,84.74576271,,,,,,,,,,,,,,,,701.9668,703.261,703.261,703.8372,return,0.0161,,96.09375,,,,,,FBP-PT-91.png,0.45,1.2,60,0.5,,,,,,,,,,,,,,,,,,0,11,11,59,1,,,,,,,,,,,,,,,,,,,,,,,
,,,,,SPR24_019,20,Male,2024-04-09_14h32.57.013,jersey_experiment_5_v0,2023.2.2,Win32,84.74576271,,,,,,,,,,,,,,,,703.8375,704.8843,704.8844,705.3429,return,0.0981,,96.09375,,,,,,FBP-RB-91.png,0.45,1.2,45,0.25,,,,,,,,,,,,,,,,,,0,12,12,44,1,,,,,,,,,,,,,,,,,,,,,,,
,,,,,SPR24_019,20,Male,2024-04-09_14h32.57.013,jersey_experiment_5_v0,2023.2.2,Win32,84.74576271,,,,,,,,,,,,,,,,705.3431,706.3902,706.3902,708.1785,return,0.6966,,30.20833333,,,,,,FBP-OG-17.png,0.35,1.2,1,0.25,,,,,,,,,,,,,,,,,,0,13,13,0,1,,,,,,,,,,,,,,,,,,,,,,,
,,,,,SPR24_019,20,Male,2024-04-09_14h32.57.013,jersey_experiment_5_v0,2023.2.2,Win32,84.74576271,,,,,,,,,,,,,,,,708.1786,709.4729,709.473,712.0964,return,1.2264,,73.046875,,,,,,FBP-YG-91.png,0.43,1.2,29,0.5,,,,,,,,,,,,,,,,,,0,14,14,28,1,,,,,,,,,,,,,,,,,,,,,,,
,,,,,SPR24_019,20,Male,2024-04-09_14h32.57.013,jersey_experiment_5_v0,2023.2.2,Win32,84.74576271,,,,,,,,,,,,,,,,712.0965,713.3904,713.3904,713.9316,return,0.0417,,73.56770833,,,,,,FBP-PT-91.png,0.43,1.2,59,0.5,,,,,,,,,,,,,,,,,,0,15,15,58,1,,,,,,,,,,,,,,,,,,,,,,,
,,,,,SPR24_019,20,Male,2024-04-09_14h32.57.013,jersey_experiment_5_v0,2023.2.2,Win32,84.74576271,,,,,,,,,,,,,,,,713.9318,714.9788,714.9788,716.9905,return,0.0854,,42.70833333,,,,,,FBP-RB-71.png,0.35,1.2,31,0.25,,,,,,,,,,,,,,,,,,0,16,16,30,1,,,,,,,,,,,,,,,,,,,,,,,
,,,,,SPR24_019,20,Male,2024-04-09_14h32.57.013,jersey_experiment_5_v0,2023.2.2,Win32,84.74576271,,,,,,,,,,,,,,,,716.9907,718.2848,718.2849,720.3083,return,0.9412,,59.11458333,,,,,,FBP-PT-91.png,0.4,1.2,58,0.5,,,,,,,,,,,,,,,,,,0,17,17,57,1,,,,,,,,,,,,,,,,,,,,,,,
,,,,,SPR24_019,20,Male,2024-04-09_14h32.57.013,jersey_experiment_5_v0,2023.2.2,Win32,84.74576271,,,,,,,,,,,,,,,,720.3084,721.6025,721.6026,722.3555,return,0.505,,69.40104167,,,,,,FBP-PT-81.png,0.4,1.2,53,0.5,,,,,,,,,,,,,,,,,,0,18,18,52,1,,,,,,,,,,,,,,,,,,,,,,,
,,,,,SPR24_019,20,Male,2024-04-09_14h32.57.013,jersey_experiment_5_v0,2023.2.2,Win32,84.74576271,,,,,,,,,,,,,,,,722.3558,723.6496,723.6496,724.9557,return,0.124,,45.05208333,,,,,,FBP-YG-81.png,0.35,1.2,21,0.5,,,,,,,,,,,,,,,,,,0,19,19,20,1,,,,,,,,,,,,,,,,,,,,,,,
,,,,,SPR24_019,20,Male,2024-04-09_14h32.57.013,jersey_experiment_5_v0,2023.2.2,Win32,84.74576271,,,,,,,,,,,,,,,,724.9557,726.2498,726.2498,727.3558,return,0.0894,,29.16666667,,,,,,FBP-PT-71.png,0.35,1.2,46,0.5,,,,,,,,,,,,,,,,,,0,20,20,45,1,,,,,,,,,,,,,,,,,,,,,,,
,,,,,SPR24_019,20,Male,2024-04-09_14h32.57.013,jersey_experiment_5_v0,2023.2.2,Win32,84.74576271,,,,,,,,,,,,,,,,727.356,728.65,728.6501,729.5793,return,0.0406,,49.609375,,,,,,FBP-YG-91.png,0.4,1.2,28,0.5,,,,,,,,,,,,,,,,,,0,21,21,27,1,,,,,,,,,,,,,,,,,,,,,,,
,,,,,SPR24_019,20,Male,2024-04-09_14h32.57.013,jersey_experiment_5_v0,2023.2.2,Win32,84.74576271,,,,,,,,,,,,,,,,729.5795,730.8733,730.8733,731.8617,return,0.0946,,82.94270833,,,,,,FBP-YG-81.png,0.45,1.2,25,0.5,,,,,,,,,,,,,,,,,,0,22,22,24,1,,,,,,,,,,,,,,,,,,,,,,,
,,,,,SPR24_019,20,Male,2024-04-09_14h32.57.013,jersey_experiment_5_v0,2023.2.2,Win32,84.74576271,,,,,,,,,,,,,,,,731.862,733.1559,733.156,733.6265,return,0.1366,,93.61979167,,,,,,FBP-PT-81.png,0.45,1.2,55,0.5,,,,,,,,,,,,,,,,,,0,23,23,54,1,,,,,,,,,,,,,,,,,,,,,,,
,,,,,SPR24_019,20,Male,2024-04-09_14h32.57.013,jersey_experiment_5_v0,2023.2.2,Win32,84.74576271,,,,,,,,,,,,,,,,733.6267,734.9206,734.9207,736.2502,return,0.0442,,49.86979167,,,,,,FBP-PT-81.png,0.37,1.2,52,0.5,,,,,,,,,,,,,,,,,,0,24,24,51,1,,,,,,,,,,,,,,,,,,,,,,,
,,,,,SPR24_019,20,Male,2024-04-09_14h32.57.013,jersey_experiment_5_v0,2023.2.2,Win32,84.74576271,,,,,,,,,,,,,,,,736.2504,737.2972,737.2973,738.462,return,0.098,,74.21875,,,,,,FBP-OG-18.png,0.43,1.2,9,0.25,,,,,,,,,,,,,,,,,,0,25,25,8,1,,,,,,,,,,,,,,,,,,,,,,,
,,,,,SPR24_019,20,Male,2024-04-09_14h32.57.013,jersey_experiment_5_v0,2023.2.2,Win32,84.74576271,,,,,,,,,,,,,,,,738.4622,739.509,739.5091,740.0857,return,0.0367,,74.73958333,,,,,,FBP-RB-71.png,0.4,1.2,33,0.25,,,,,,,,,,,,,,,,,,0,26,26,32,1,,,,,,,,,,,,,,,,,,,,,,,
,,,,,SPR24_019,20,Male,2024-04-09_14h32.57.013,jersey_experiment_5_v0,2023.2.2,Win32,84.74576271,,,,,,,,,,,,,,,,740.0859,741.3797,741.3798,742.3681,return,0.1555,,35.15625,,,,,,FBP-PT-81.png,0.35,1.2,51,0.5,,,,,,,,,,,,,,,,,,0,27,27,50,1,,,,,,,,,,,,,,,,,,,,,,,
,,,,,SPR24_019,20,Male,2024-04-09_14h32.57.013,jersey_experiment_5_v0,2023.2.2,Win32,84.74576271,,,,,,,,,,,,,,,,742.3684,743.4152,743.4153,745.2033,return,0.6589,,82.55208333,,,,,,FBP-RB-81.png,0.45,1.2,40,0.25,,,,,,,,,,,,,,,,,,0,28,28,39,1,,,,,,,,,,,,,,,,,,,,,,,
,,,,,SPR24_019,20,Male,2024-04-09_14h32.57.013,jersey_experiment_5_v0,2023.2.2,Win32,84.74576271,,,,,,,,,,,,,,,,745.2035,746.2507,746.2507,746.9094,return,0.0985,,88.15104167,,,,,,FBP-RB-71.png,0.43,1.2,34,0.25,,,,,,,,,,,,,,,,,,0,29,29,33,1,,,,,,,,,,,,,,,,,,,,,,,
,,,,,SPR24_019,20,Male,2024-04-09_14h32.57.013,jersey_experiment_5_v0,2023.2.2,Win32,84.74576271,,,,,,,,,,,,,,,,746.9097,748.2037,748.2037,749.3802,return,0.1318,,35.9375,,,,,,FBP-YG-71.png,0.35,1.2,16,0.5,,,,,,,,,,,,,,,,,,0,30,30,15,1,,,,,,,,,,,,,,,,,,,,,,,
,,,,,SPR24_019,20,Male,2024-04-09_14h32.57.013,jersey_experiment_5_v0,2023.2.2,Win32,84.74576271,,,,,,,,,,,,,,,,749.3804,750.6743,750.6744,751.2271,return,0.1122,,36.19791667,,,,,,FBP-YG-71.png,0.4,1.2,18,0.5,,,,,,,,,,,,,,,,,,0,31,31,17,1,,,,,,,,,,,,,,,,,,,,,,,
,,,,,SPR24_019,20,Male,2024-04-09_14h32.57.013,jersey_experiment_5_v0,2023.2.2,Win32,84.74576271,,,,,,,,,,,,,,,,751.2273,752.5213,752.5213,752.8626,return,0.0398,,35.28645833,,,,,,FBP-YG-91.png,0.35,1.2,26,0.5,,,,,,,,,,,,,,,,,,0,32,32,25,1,,,,,,,,,,,,,,,,,,,,,,,
,,,,,SPR24_019,20,Male,2024-04-09_14h32.57.013,jersey_experiment_5_v0,2023.2.2,Win32,84.74576271,,,,,,,,,,,,,,,,752.8627,754.1568,754.1568,755.0862,return,0.1223,,51.69270833,,,,,,FBP-PT-71.png,0.4,1.2,48,0.5,,,,,,,,,,,,,,,,,,0,33,33,47,1,,,,,,,,,,,,,,,,,,,,,,,
,,,,,SPR24_019,20,Male,2024-04-09_14h32.57.013,jersey_experiment_5_v0,2023.2.2,Win32,84.74576271,,,,,,,,,,,,,,,,755.0865,756.1332,756.1332,756.5451,return,0.0358,,51.171875,,,,,,FBP-OG-17.png,0.4,1.2,3,0.25,,,,,,,,,,,,,,,,,,0,34,34,2,1,,,,,,,,,,,,,,,,,,,,,,,
,,,,,SPR24_019,20,Male,2024-04-09_14h32.57.013,jersey_experiment_5_v0,2023.2.2,Win32,84.74576271,,,,,,,,,,,,,,,,756.5453,757.5921,757.5922,757.9804,return,0.0169,,51.04166667,,,,,,FBP-OG-18.png,0.35,1.2,6,0.25,,,,,,,,,,,,,,,,,,0,35,35,5,1,,,,,,,,,,,,,,,,,,,,,,,
,,,,,SPR24_019,20,Male,2024-04-09_14h32.57.013,jersey_experiment_5_v0,2023.2.2,Win32,84.74576271,,,,,,,,,,,,,,,,757.9806,759.0275,759.0276,759.3334,return,0.0139,,50.91145833,,,,,,FBP-OG-19.png,0.43,1.2,14,0.25,,,,,,,,,,,,,,,,,,0,36,36,13,1,,,,,,,,,,,,,,,,,,,,,,,
,,,,,SPR24_019,20,Male,2024-04-09_14h32.57.013,jersey_experiment_5_v0,2023.2.2,Win32,84.74576271,,,,,,,,,,,,,,,,759.3336,760.6276,760.6276,761.5219,return,0.0603,,68.88020833,,,,,,FBP-YG-81.png,0.43,1.2,24,0.5,,,,,,,,,,,,,,,,,,0,37,37,23,1,,,,,,,,,,,,,,,,,,,,,,,
,,,,,SPR24_019,20,Male,2024-04-09_14h32.57.013,jersey_experiment_5_v0,2023.2.2,Win32,84.74576271,,,,,,,,,,,,,,,,761.5221,762.5687,762.5688,763.7454,return,0.1196,,62.36979167,,,,,,FBP-RB-71.png,0.37,1.2,32,0.25,,,,,,,,,,,,,,,,,,0,38,38,31,1,,,,,,,,,,,,,,,,,,,,,,,
,,,,,SPR24_019,20,Male,2024-04-09_14h32.57.013,jersey_experiment_5_v0,2023.2.2,Win32,84.74576271,,,,,,,,,,,,,,,,763.7456,764.7925,764.7925,765.1807,return,0.016,,62.36979167,,,,,,FBP-RB-81.png,0.37,1.2,37,0.25,,,,,,,,,,,,,,,,,,0,39,39,36,1,,,,,,,,,,,,,,,,,,,,,,,
,,,,,SPR24_019,20,Male,2024-04-09_14h32.57.013,jersey_experiment_5_v0,2023.2.2,Win32,84.74576271,,,,,,,,,,,,,,,,765.1809,766.2277,766.2277,768.6278,return,1.1434,,63.28125,,,,,,FBP-OG-19.png,0.4,1.2,13,0.25,,,,,,,,,,,,,,,,,,0,40,40,12,1,,,,,,,,,,,,,,,,,,,,,,,
,,,,,SPR24_019,20,Male,2024-04-09_14h32.57.013,jersey_experiment_5_v0,2023.2.2,Win32,84.74576271,,,,,,,,,,,,,,,,768.6281,769.6748,769.6749,770.7222,return,0.0841,,50.26041667,,,,,,FBP-OG-17.png,0.37,1.2,2,0.25,,,,,,,,,,,,,,,,,,0,41,41,1,1,,,,,,,,,,,,,,,,,,,,,,,
,,,,,SPR24_019,20,Male,2024-04-09_14h32.57.013,jersey_experiment_5_v0,2023.2.2,Win32,84.74576271,,,,,,,,,,,,,,,,770.7224,772.0163,772.0163,772.9219,return,0.1028,,56.51041667,,,,,,FBP-PT-91.png,0.37,1.2,57,0.5,,,,,,,,,,,,,,,,,,0,42,42,56,1,,,,,,,,,,,,,,,,,,,,,,,
,,,,,SPR24_019,20,Male,2024-04-09_14h32.57.013,jersey_experiment_5_v0,2023.2.2,Win32,84.74576271,,,,,,,,,,,,,,,,772.9222,774.2165,774.2165,775.2987,return,0.2594,,74.73958333,,,,,,FBP-PT-71.png,0.43,1.2,49,0.5,,,,,,,,,,,,,,,,,,0,43,43,48,1,,,,,,,,,,,,,,,,,,,,,,,
,,,,,SPR24_019,20,Male,2024-04-09_14h32.57.013,jersey_experiment_5_v0,2023.2.2,Win32,84.74576271,,,,,,,,,,,,,,,,775.2989,776.3458,776.3458,777.4517,return,0.0998,,40.625,,,,,,FBP-RB-81.png,0.35,1.2,36,0.25,,,,,,,,,,,,,,,,,,0,44,44,35,1,,,,,,,,,,,,,,,,,,,,,,,
,,,,,SPR24_019,20,Male,2024-04-09_14h32.57.013,jersey_experiment_5_v0,2023.2.2,Win32,84.74576271,,,,,,,,,,,,,,,,777.452,778.7459,778.746,779.5224,return,0.0842,,50,,,,,,FBP-YG-71.png,0.37,1.2,17,0.5,,,,,,,,,,,,,,,,,,0,45,45,16,1,,,,,,,,,,,,,,,,,,,,,,,
,,,,,SPR24_019,20,Male,2024-04-09_14h32.57.013,jersey_experiment_5_v0,2023.2.2,Win32,84.74576271,,,,,,,,,,,,,,,,779.5225,780.5695,780.5695,781.3929,return,0.0833,,60.28645833,,,,,,FBP-RB-91.png,0.37,1.2,42,0.25,,,,,,,,,,,,,,,,,,0,46,46,41,1,,,,,,,,,,,,,,,,,,,,,,,
,,,,,SPR24_019,20,Male,2024-04-09_14h32.57.013,jersey_experiment_5_v0,2023.2.2,Win32,84.74576271,,,,,,,,,,,,,,,,781.3933,782.4404,782.4404,783.0872,return,0.0741,,69.01041667,,,,,,FBP-RB-81.png,0.4,1.2,38,0.25,,,,,,,,,,,,,,,,,,0,47,47,37,1,,,,,,,,,,,,,,,,,,,,,,,
,,,,,SPR24_019,20,Male,2024-04-09_14h32.57.013,jersey_experiment_5_v0,2023.2.2,Win32,84.74576271,,,,,,,,,,,,,,,,783.0874,784.1344,784.1344,785.0284,return,0.0936,,66.27604167,,,,,,FBP-RB-91.png,0.4,1.2,43,0.25,,,,,,,,,,,,,,,,,,0,48,48,42,1,,,,,,,,,,,,,,,,,,,,,,,
,,,,,SPR24_019,20,Male,2024-04-09_14h32.57.013,jersey_experiment_5_v0,2023.2.2,Win32,84.74576271,,,,,,,,,,,,,,,,785.0287,786.0755,786.0755,787.0051,return,0.0043,,66.53645833,,,,,,FBP-OG-18.png,0.4,1.2,8,0.25,,,,,,,,,,,,,,,,,,0,49,49,7,1,,,,,,,,,,,,,,,,,,,,,,,
,,,,,SPR24_019,20,Male,2024-04-09_14h32.57.013,jersey_experiment_5_v0,2023.2.2,Win32,84.74576271,,,,,,,,,,,,,,,,787.0054,788.2992,788.2992,789.2758,return,0.1954,,75.13020833,,,,,,FBP-PT-81.png,0.43,1.2,54,0.5,,,,,,,,,,,,,,,,,,0,50,50,53,1,,,,,,,,,,,,,,,,,,,,,,,
,,,,,SPR24_019,20,Male,2024-04-09_14h32.57.013,jersey_experiment_5_v0,2023.2.2,Win32,84.74576271,,,,,,,,,,,,,,,,789.2759,790.3228,790.3228,791.0875,return,0.177,,75.13020833,,,,,,FBP-OG-19.png,0.37,1.2,12,0.25,,,,,,,,,,,,,,,,,,0,51,51,11,1,,,,,,,,,,,,,,,,,,,,,,,
,,,,,SPR24_019,20,Male,2024-04-09_14h32.57.013,jersey_experiment_5_v0,2023.2.2,Win32,84.74576271,,,,,,,,,,,,,,,,791.0878,792.3816,792.3816,793.4759,return,0.141,,51.04166667,,,,,,FBP-PT-91.png,0.35,1.2,56,0.5,,,,,,,,,,,,,,,,,,0,52,52,55,1,,,,,,,,,,,,,,,,,,,,,,,
,,,,,SPR24_019,20,Male,2024-04-09_14h32.57.013,jersey_experiment_5_v0,2023.2.2,Win32,84.74576271,,,,,,,,,,,,,,,,793.4762,794.7702,794.7703,796.0524,return,0.0705,,86.06770833,,,,,,FBP-YG-71.png,0.45,1.2,20,0.5,,,,,,,,,,,,,,,,,,0,53,53,19,1,,,,,,,,,,,,,,,,,,,,,,,
,,,,,SPR24_019,20,Male,2024-04-09_14h32.57.013,jersey_experiment_5_v0,2023.2.2,Win32,84.74576271,,,,,,,,,,,,,,,,796.0526,797.0995,797.0995,798.2997,return,0.0897,,74.609375,,,,,,FBP-OG-17.png,0.43,1.2,4,0.25,,,,,,,,,,,,,,,,,,0,54,54,3,1,,,,,,,,,,,,,,,,,,,,,,,
,,,,,SPR24_019,20,Male,2024-04-09_14h32.57.013,jersey_experiment_5_v0,2023.2.2,Win32,84.74576271,,,,,,,,,,,,,,,,798.2999,799.3466,799.3466,800.3232,return,0.2482,,82.68229167,,,,,,FBP-RB-91.png,0.43,1.2,44,0.25,,,,,,,,,,,,,,,,,,0,55,55,43,1,,,,,,,,,,,,,,,,,,,,,,,
,,,,,SPR24_019,20,Male,2024-04-09_14h32.57.013,jersey_experiment_5_v0,2023.2.2,Win32,84.74576271,,,,,,,,,,,,,,,,800.3234,801.3703,801.3703,802.029,return,0.0527,,86.97916667,,,,,,FBP-RB-71.png,0.45,1.2,35,0.25,,,,,,,,,,,,,,,,,,0,56,56,34,1,,,,,,,,,,,,,,,,,,,,,,,
,,,,,SPR24_019,20,Male,2024-04-09_14h32.57.013,jersey_experiment_5_v0,2023.2.2,Win32,84.74576271,,,,,,,,,,,,,,,,802.0293,803.0763,803.0764,804.9586,return,0.3927,,64.453125,,,,,,FBP-OG-19.png,0.35,1.2,11,0.25,,,,,,,,,,,,,,,,,,0,57,57,10,1,,,,,,,,,,,,,,,,,,,,,,,
,,,,,SPR24_019,20,Male,2024-04-09_14h32.57.013,jersey_experiment_5_v0,2023.2.2,Win32,84.74576271,,,,,,,,,,,,,,,,804.9588,806.2528,806.2528,806.594,return,0.0817,,64.453125,,,,,,FBP-PT-71.png,0.37,1.2,47,0.5,,,,,,,,,,,,,,,,,,0,58,58,46,1,,,,,,,,,,,,,,,,,,,,,,,
,,,,,SPR24_019,20,Male,2024-04-09_14h32.57.013,jersey_experiment_5_v0,2023.2.2,Win32,84.74576271,,,,,,,,,,,,,,,,806.5943,807.8881,807.8881,808.7353,return,0.0506,,93.22916667,,,,,,FBP-YG-91.png,0.45,1.2,30,0.5,,,,,,,,,,,,,,,,,,0,59,59,29,1,,,,,,,,,,,,,,,,,,,,,,,
,,,,,SPR24_019,20,Male,2024-04-09_14h32.57.013,jersey_experiment_5_v0,2023.2.2,Win32,84.74576271,,,,,,,,,,,,,,,,,,,,,,,,,,,,,,,,,,,,,,,,,,,,,,,,,,,,,,,,808.7357,814.0652,return,5.3186,,,,,,,,,,,,,,,,,,,
,,,,,SPR24_019,20,Male,2024-04-09_14h32.57.013,jersey_experiment_5_v0,2023.2.2,Win32,84.74576271,,,,,,,,,,,,,,,,,,,,,,,,,,,,,,,,,,,,,,,,,,,,,,,,,,,,,,,,,,,,,814.0652,817.9357,1,3.0363,return,0.8134,,,,,,,,,,,,
,,,,,SPR24_019,20,Male,2024-04-09_14h32.57.013,jersey_experiment_5_v0,2023.2.2,Win32,84.74576271,,,,,,,,,,,,,,,,,,,,,,,,,,,,,,,,,,,,,,,,,,,,,,,,,,,,,,,,,,,,,,,,,,,,817.9359,868.8251,"I think the study is about how the color of the jersey players were wearing, in addition to the racial background of the players affected my perception of their size from a range of slender to husky.",right,43.3546,,,,,,
,,,,,SPR24_019,20,Male,2024-04-09_14h32.57.013,jersey_experiment_5_v0,2023.2.2,Win32,84.74576271,,,,,,,,,,,,,,,,,,,,,,,,,,,,,,,,,,,,,,,,,,,,,,,,,,,,,,,,,,,,,,,,,,,,,,,,,,868.8252,872.9616,return,4.1256,