requirements.started,requirements.stopped,key_resp_3.keys,key_resp_3.rt,key_resp_3.duration,Subject ID,Age,Gender,date,expName,psychopyVersion,OS,frameRate,instructions1.started,instructions1.stopped,key_resp.keys,key_resp.rt,key_resp.duration,example.started,example.stopped,enter_2.keys,enter_2.rt,enter_2.duration,instructions2.started,instructions2.stopped,enter_3.keys,enter_3.rt,enter_3.duration,image.started,image.stopped,slider_2.started,slider_2.stopped,next.keys,next.rt,next.duration,slider.response,trial_block_1.thisRepN,trial_block_1.thisTrialN,trial_block_1.thisN,trial_block_1.thisIndex,trial_block_1.ran,Path,Width,Height,Index,Duration,trial_block_2.thisRepN,trial_block_2.thisTrialN,trial_block_2.thisN,trial_block_2.thisIndex,trial_block_2.ran,rest_break.started,rest_break.stopped,end_break.started,end_break.stopped,key_resp_5.keys,key_resp_5.rt,key_resp_5.duration,trial_block_3.thisRepN,trial_block_3.thisTrialN,trial_block_3.thisN,trial_block_3.thisIndex,trial_block_3.ran,trial_block_4.thisRepN,trial_block_4.thisTrialN,trial_block_4.thisN,trial_block_4.thisIndex,trial_block_4.ran,questions_intro.started,questions_intro.stopped,enter_12.keys,enter_12.rt,enter_12.duration,question2.started,question2.stopped,question_doingbest.response,question_doingbest.rt,enter_15.keys,enter_15.rt,enter_15.duration,pattern.started,pattern.stopped,pattern_2.text,enter_17.keys,enter_17.rt,enter_17.duration,thankyou.started,thankyou.stopped,enter_14.keys,enter_14.rt,enter_14.duration
0,13.4876,return,13.4799,,SPR24_001,19,Male,2024-04-03_10h18.54.102,jersey_experiment_5_v0,2023.2.2,Win32,84.74576271,,,,,,,,,,,,,,,,,,,,,,,,,,,,,,,,,,,,,,,,,,,,,,,,,,,,,,,,,,,,,,,,,,,,,,,,,,,,,,
,,,,,SPR24_001,19,Male,2024-04-03_10h18.54.102,jersey_experiment_5_v0,2023.2.2,Win32,84.74576271,13.4877,24.6055,return,11.0963,,,,,,,,,,,,,,,,,,,,,,,,,,,,,,,,,,,,,,,,,,,,,,,,,,,,,,,,,,,,,,,,,,,,,,,,,,
,,,,,SPR24_001,19,Male,2024-04-03_10h18.54.102,jersey_experiment_5_v0,2023.2.2,Win32,84.74576271,,,,,,24.6057,33.3753,return,8.7354,,,,,,,,,,,,,,,,,,,,,,,,,,,,,,,,,,,,,,,,,,,,,,,,,,,,,,,,,,,,,,,,,,,,,
,,,,,SPR24_001,19,Male,2024-04-03_10h18.54.102,jersey_experiment_5_v0,2023.2.2,Win32,84.74576271,,,,,,,,,,,33.3754,51.4535,return,18.0597,,,,,,,,,,,,,,,,,,,,,,,,,,,,,,,,,,,,,,,,,,,,,,,,,,,,,,,,,,,,,,,,
,,,,,SPR24_001,19,Male,2024-04-03_10h18.54.102,jersey_experiment_5_v0,2023.2.2,Win32,84.74576271,,,,,,,,,,,,,,,,51.4607,52.7594,52.7594,71.7721,return,9.4394,,38.28125,0,0,0,7,1,FBP-OG-81.png,0.4,1.2,8,0.5,,,,,,,,,,,,,,,,,,,,,,,,,,,,,,,,,,,,,,,,,,,,,
,,,,,SPR24_001,19,Male,2024-04-03_10h18.54.102,jersey_experiment_5_v0,2023.2.2,Win32,84.74576271,,,,,,,,,,,,,,,,71.7724,73.0658,73.0658,78.2191,return,0.9932,,90.36458333,0,1,1,34,1,FBP-RB-17.png,0.45,1.2,35,0.5,,,,,,,,,,,,,,,,,,,,,,,,,,,,,,,,,,,,,,,,,,,,,
,,,,,SPR24_001,19,Male,2024-04-03_10h18.54.102,jersey_experiment_5_v0,2023.2.2,Win32,84.74576271,,,,,,,,,,,,,,,,78.2193,79.5132,79.5133,83.1017,return,1.3318,,90.234375,0,2,2,43,1,FBP-RB-19.png,0.43,1.2,44,0.5,,,,,,,,,,,,,,,,,,,,,,,,,,,,,,,,,,,,,,,,,,,,,
,,,,,SPR24_001,19,Male,2024-04-03_10h18.54.102,jersey_experiment_5_v0,2023.2.2,Win32,84.74576271,,,,,,,,,,,,,,,,83.1019,84.1486,84.1487,88.9842,return,0.7724,,64.0625,0,3,3,17,1,FBP-YG-17.png,0.4,1.2,18,0.25,,,,,,,,,,,,,,,,,,,,,,,,,,,,,,,,,,,,,,,,,,,,,
,,,,,SPR24_001,19,Male,2024-04-03_10h18.54.102,jersey_experiment_5_v0,2023.2.2,Win32,84.74576271,,,,,,,,,,,,,,,,88.9845,90.2785,90.2786,93.0549,return,0.6111,,92.44791667,0,4,4,4,1,FBP-OG-71.png,0.45,1.2,5,0.5,,,,,,,,,,,,,,,,,,,,,,,,,,,,,,,,,,,,,,,,,,,,,
,,,,,SPR24_001,19,Male,2024-04-03_10h18.54.102,jersey_experiment_5_v0,2023.2.2,Win32,84.74576271,,,,,,,,,,,,,,,,93.0552,94.349,94.3491,97.408,return,0.7666,,80.72916667,0,5,5,3,1,FBP-OG-71.png,0.43,1.2,4,0.5,,,,,,,,,,,,,,,,,,,,,,,,,,,,,,,,,,,,,,,,,,,,,
,,,,,SPR24_001,19,Male,2024-04-03_10h18.54.102,jersey_experiment_5_v0,2023.2.2,Win32,84.74576271,,,,,,,,,,,,,,,,97.4082,98.7022,98.7022,102.62,return,1.5204,,70.3125,0,6,6,32,1,FBP-RB-17.png,0.4,1.2,33,0.5,,,,,,,,,,,,,,,,,,,,,,,,,,,,,,,,,,,,,,,,,,,,,
,,,,,SPR24_001,19,Male,2024-04-03_10h18.54.102,jersey_experiment_5_v0,2023.2.2,Win32,84.74576271,,,,,,,,,,,,,,,,102.6202,103.6671,103.6671,107.5613,return,1.9229,,26.04166667,0,7,7,15,1,FBP-YG-17.png,0.35,1.2,16,0.25,,,,,,,,,,,,,,,,,,,,,,,,,,,,,,,,,,,,,,,,,,,,,
,,,,,SPR24_001,19,Male,2024-04-03_10h18.54.102,jersey_experiment_5_v0,2023.2.2,Win32,84.74576271,,,,,,,,,,,,,,,,107.5615,108.8554,108.8555,112.4555,return,1.2415,,91.015625,0,8,8,39,1,FBP-RB-18.png,0.45,1.2,40,0.5,,,,,,,,,,,,,,,,,,,,,,,,,,,,,,,,,,,,,,,,,,,,,
,,,,,SPR24_001,19,Male,2024-04-03_10h18.54.102,jersey_experiment_5_v0,2023.2.2,Win32,84.74576271,,,,,,,,,,,,,,,,112.4558,113.7497,113.7498,119.3264,return,2.6838,,48.30729167,0,9,9,31,1,FBP-RB-17.png,0.37,1.2,32,0.5,,,,,,,,,,,,,,,,,,,,,,,,,,,,,,,,,,,,,,,,,,,,,
,,,,,SPR24_001,19,Male,2024-04-03_10h18.54.102,jersey_experiment_5_v0,2023.2.2,Win32,84.74576271,,,,,,,,,,,,,,,,119.3266,120.3735,120.3735,123.6795,return,1.1535,,72.91666667,0,10,10,58,1,FBP-PT-19.png,0.43,1.2,59,0.25,,,,,,,,,,,,,,,,,,,,,,,,,,,,,,,,,,,,,,,,,,,,,
,,,,,SPR24_001,19,Male,2024-04-03_10h18.54.102,jersey_experiment_5_v0,2023.2.2,Win32,84.74576271,,,,,,,,,,,,,,,,123.6798,124.7267,124.7267,128.0326,return,0.8573,,50,0,11,11,16,1,FBP-YG-17.png,0.37,1.2,17,0.25,,,,,,,,,,,,,,,,,,,,,,,,,,,,,,,,,,,,,,,,,,,,,
,,,,,SPR24_001,19,Male,2024-04-03_10h18.54.102,jersey_experiment_5_v0,2023.2.2,Win32,84.74576271,,,,,,,,,,,,,,,,128.0328,129.0798,129.0798,133.7388,return,2.0989,,64.453125,0,12,12,28,1,FBP-YG-19.png,0.43,1.2,29,0.25,,,,,,,,,,,,,,,,,,,,,,,,,,,,,,,,,,,,,,,,,,,,,
,,,,,SPR24_001,19,Male,2024-04-03_10h18.54.102,jersey_experiment_5_v0,2023.2.2,Win32,84.74576271,,,,,,,,,,,,,,,,133.739,135.0329,135.033,138.4095,return,1.287,,50,0,13,13,5,1,FBP-OG-81.png,0.35,1.2,6,0.5,,,,,,,,,,,,,,,,,,,,,,,,,,,,,,,,,,,,,,,,,,,,,
,,,,,SPR24_001,19,Male,2024-04-03_10h18.54.102,jersey_experiment_5_v0,2023.2.2,Win32,84.74576271,,,,,,,,,,,,,,,,138.4096,139.4566,139.4567,147.2334,return,5.5182,,89.97395833,0,14,14,29,1,FBP-YG-19.png,0.45,1.2,30,0.25,,,,,,,,,,,,,,,,,,,,,,,,,,,,,,,,,,,,,,,,,,,,,
,,,,,SPR24_001,19,Male,2024-04-03_10h18.54.102,jersey_experiment_5_v0,2023.2.2,Win32,84.74576271,,,,,,,,,,,,,,,,147.2336,148.2805,148.2805,153.4807,return,1.2063,,39.0625,0,15,15,45,1,FBP-PT-17.png,0.35,1.2,46,0.25,,,,,,,,,,,,,,,,,,,,,,,,,,,,,,,,,,,,,,,,,,,,,
,,,,,SPR24_001,19,Male,2024-04-03_10h18.54.102,jersey_experiment_5_v0,2023.2.2,Win32,84.74576271,,,,,,,,,,,,,,,,153.4809,154.7748,154.7748,157.8103,return,0.8949,,49.86979167,0,16,16,10,1,FBP-OG-91.png,0.35,1.2,11,0.5,,,,,,,,,,,,,,,,,,,,,,,,,,,,,,,,,,,,,,,,,,,,,
,,,,,SPR24_001,19,Male,2024-04-03_10h18.54.102,jersey_experiment_5_v0,2023.2.2,Win32,84.74576271,,,,,,,,,,,,,,,,157.8104,158.8572,158.8572,163.0692,return,1.556,,58.72395833,0,17,17,26,1,FBP-YG-19.png,0.37,1.2,27,0.25,,,,,,,,,,,,,,,,,,,,,,,,,,,,,,,,,,,,,,,,,,,,,
,,,,,SPR24_001,19,Male,2024-04-03_10h18.54.102,jersey_experiment_5_v0,2023.2.2,Win32,84.74576271,,,,,,,,,,,,,,,,163.0694,164.1162,164.1162,167.2458,return,0.9552,,59.50520833,0,18,18,50,1,FBP-PT-18.png,0.35,1.2,51,0.25,,,,,,,,,,,,,,,,,,,,,,,,,,,,,,,,,,,,,,,,,,,,,
,,,,,SPR24_001,19,Male,2024-04-03_10h18.54.102,jersey_experiment_5_v0,2023.2.2,Win32,84.74576271,,,,,,,,,,,,,,,,167.246,168.5401,168.5401,172.9401,return,2.2744,,74.86979167,0,19,19,12,1,FBP-OG-91.png,0.4,1.2,13,0.5,,,,,,,,,,,,,,,,,,,,,,,,,,,,,,,,,,,,,,,,,,,,,
,,,,,SPR24_001,19,Male,2024-04-03_10h18.54.102,jersey_experiment_5_v0,2023.2.2,Win32,84.74576271,,,,,,,,,,,,,,,,172.9404,173.9872,173.9872,180.8581,return,3.6534,,81.51041667,0,20,20,23,1,FBP-YG-18.png,0.43,1.2,24,0.25,,,,,,,,,,,,,,,,,,,,,,,,,,,,,,,,,,,,,,,,,,,,,
,,,,,SPR24_001,19,Male,2024-04-03_10h18.54.102,jersey_experiment_5_v0,2023.2.2,Win32,84.74576271,,,,,,,,,,,,,,,,180.8583,182.1522,182.1523,184.5406,return,0.9797,,91.796875,0,21,21,9,1,FBP-OG-81.png,0.45,1.2,10,0.5,,,,,,,,,,,,,,,,,,,,,,,,,,,,,,,,,,,,,,,,,,,,,
,,,,,SPR24_001,19,Male,2024-04-03_10h18.54.102,jersey_experiment_5_v0,2023.2.2,Win32,84.74576271,,,,,,,,,,,,,,,,184.5408,185.8346,185.8347,190.4231,return,0.7371,,62.5,0,22,22,2,1,FBP-OG-71.png,0.4,1.2,3,0.5,,,,,,,,,,,,,,,,,,,,,,,,,,,,,,,,,,,,,,,,,,,,,
,,,,,SPR24_001,19,Male,2024-04-03_10h18.54.102,jersey_experiment_5_v0,2023.2.2,Win32,84.74576271,,,,,,,,,,,,,,,,190.4232,191.7173,191.7173,194.6233,return,0.9276,,82.68229167,0,23,23,13,1,FBP-OG-91.png,0.43,1.2,14,0.5,,,,,,,,,,,,,,,,,,,,,,,,,,,,,,,,,,,,,,,,,,,,,
,,,,,SPR24_001,19,Male,2024-04-03_10h18.54.102,jersey_experiment_5_v0,2023.2.2,Win32,84.74576271,,,,,,,,,,,,,,,,194.6235,195.6703,195.6704,199.2117,return,1.2751,,92.44791667,0,24,24,48,1,FBP-PT-17.png,0.43,1.2,49,0.25,,,,,,,,,,,,,,,,,,,,,,,,,,,,,,,,,,,,,,,,,,,,,
,,,,,SPR24_001,19,Male,2024-04-03_10h18.54.102,jersey_experiment_5_v0,2023.2.2,Win32,84.74576271,,,,,,,,,,,,,,,,199.2119,200.5059,200.5059,203.5766,return,1.4172,,90.88541667,0,25,25,37,1,FBP-RB-18.png,0.4,1.2,38,0.5,,,,,,,,,,,,,,,,,,,,,,,,,,,,,,,,,,,,,,,,,,,,,
,,,,,SPR24_001,19,Male,2024-04-03_10h18.54.102,jersey_experiment_5_v0,2023.2.2,Win32,84.74576271,,,,,,,,,,,,,,,,203.5768,204.6236,204.6236,210.4239,return,3.819,,42.1875,0,26,26,55,1,FBP-PT-19.png,0.35,1.2,56,0.25,,,,,,,,,,,,,,,,,,,,,,,,,,,,,,,,,,,,,,,,,,,,,
,,,,,SPR24_001,19,Male,2024-04-03_10h18.54.102,jersey_experiment_5_v0,2023.2.2,Win32,84.74576271,,,,,,,,,,,,,,,,210.4242,211.718,211.718,213.9182,return,0.645,,40.88541667,0,27,27,35,1,FBP-RB-18.png,0.35,1.2,36,0.5,,,,,,,,,,,,,,,,,,,,,,,,,,,,,,,,,,,,,,,,,,,,,
,,,,,SPR24_001,19,Male,2024-04-03_10h18.54.102,jersey_experiment_5_v0,2023.2.2,Win32,84.74576271,,,,,,,,,,,,,,,,213.9184,214.9653,214.9653,218.0124,return,1.1084,,78.38541667,0,28,28,18,1,FBP-YG-17.png,0.43,1.2,19,0.25,,,,,,,,,,,,,,,,,,,,,,,,,,,,,,,,,,,,,,,,,,,,,
,,,,,SPR24_001,19,Male,2024-04-03_10h18.54.102,jersey_experiment_5_v0,2023.2.2,Win32,84.74576271,,,,,,,,,,,,,,,,218.0127,219.0596,219.0596,221.9184,return,0.9758,,38.15104167,0,29,29,21,1,FBP-YG-18.png,0.37,1.2,22,0.25,,,,,,,,,,,,,,,,,,,,,,,,,,,,,,,,,,,,,,,,,,,,,
,,,,,SPR24_001,19,Male,2024-04-03_10h18.54.102,jersey_experiment_5_v0,2023.2.2,Win32,84.74576271,,,,,,,,,,,,,,,,221.9186,222.9656,222.9656,226.1891,return,0.9172,,75.65104167,0,30,30,53,1,FBP-PT-18.png,0.43,1.2,54,0.25,,,,,,,,,,,,,,,,,,,,,,,,,,,,,,,,,,,,,,,,,,,,,
,,,,,SPR24_001,19,Male,2024-04-03_10h18.54.102,jersey_experiment_5_v0,2023.2.2,Win32,84.74576271,,,,,,,,,,,,,,,,226.1896,227.4833,227.4833,229.9541,return,0.8715,,90.88541667,0,31,31,8,1,FBP-OG-81.png,0.43,1.2,9,0.5,,,,,,,,,,,,,,,,,,,,,,,,,,,,,,,,,,,,,,,,,,,,,
,,,,,SPR24_001,19,Male,2024-04-03_10h18.54.102,jersey_experiment_5_v0,2023.2.2,Win32,84.74576271,,,,,,,,,,,,,,,,229.9543,231.2481,231.2482,234.0483,return,0.8939,,74.86979167,0,32,32,6,1,FBP-OG-81.png,0.37,1.2,7,0.5,,,,,,,,,,,,,,,,,,,,,,,,,,,,,,,,,,,,,,,,,,,,,
,,,,,SPR24_001,19,Male,2024-04-03_10h18.54.102,jersey_experiment_5_v0,2023.2.2,Win32,84.74576271,,,,,,,,,,,,,,,,234.0485,235.3425,235.3425,237.6954,return,0.6828,,93.48958333,0,33,33,44,1,FBP-RB-19.png,0.45,1.2,45,0.5,,,,,,,,,,,,,,,,,,,,,,,,,,,,,,,,,,,,,,,,,,,,,
,,,,,SPR24_001,19,Male,2024-04-03_10h18.54.102,jersey_experiment_5_v0,2023.2.2,Win32,84.74576271,,,,,,,,,,,,,,,,237.6957,238.7425,238.7426,243.3428,return,2.4947,,83.59375,0,34,34,27,1,FBP-YG-19.png,0.4,1.2,28,0.25,,,,,,,,,,,,,,,,,,,,,,,,,,,,,,,,,,,,,,,,,,,,,
,,,,,SPR24_001,19,Male,2024-04-03_10h18.54.102,jersey_experiment_5_v0,2023.2.2,Win32,84.74576271,,,,,,,,,,,,,,,,243.343,244.6369,244.6369,247.5664,return,0.7077,,80.859375,0,35,35,36,1,FBP-RB-18.png,0.37,1.2,37,0.5,,,,,,,,,,,,,,,,,,,,,,,,,,,,,,,,,,,,,,,,,,,,,
,,,,,SPR24_001,19,Male,2024-04-03_10h18.54.102,jersey_experiment_5_v0,2023.2.2,Win32,84.74576271,,,,,,,,,,,,,,,,247.5666,248.6135,248.6135,250.6372,return,0.6497,,80.859375,0,36,36,51,1,FBP-PT-18.png,0.37,1.2,52,0.25,,,,,,,,,,,,,,,,,,,,,,,,,,,,,,,,,,,,,,,,,,,,,
,,,,,SPR24_001,19,Male,2024-04-03_10h18.54.102,jersey_experiment_5_v0,2023.2.2,Win32,84.74576271,,,,,,,,,,,,,,,,250.6374,251.6842,251.6842,256.1783,return,2.3388,,86.45833333,0,37,37,52,1,FBP-PT-18.png,0.4,1.2,53,0.25,,,,,,,,,,,,,,,,,,,,,,,,,,,,,,,,,,,,,,,,,,,,,
,,,,,SPR24_001,19,Male,2024-04-03_10h18.54.102,jersey_experiment_5_v0,2023.2.2,Win32,84.74576271,,,,,,,,,,,,,,,,256.1786,257.2256,257.2257,261.0492,return,0.9244,,66.53645833,0,38,38,46,1,FBP-PT-17.png,0.37,1.2,47,0.25,,,,,,,,,,,,,,,,,,,,,,,,,,,,,,,,,,,,,,,,,,,,,
,,,,,SPR24_001,19,Male,2024-04-03_10h18.54.102,jersey_experiment_5_v0,2023.2.2,Win32,84.74576271,,,,,,,,,,,,,,,,261.0494,262.3435,262.3435,267.7907,return,2.1641,,64.453125,0,39,39,30,1,FBP-RB-17.png,0.35,1.2,31,0.5,,,,,,,,,,,,,,,,,,,,,,,,,,,,,,,,,,,,,,,,,,,,,
,,,,,SPR24_001,19,Male,2024-04-03_10h18.54.102,jersey_experiment_5_v0,2023.2.2,Win32,84.74576271,,,,,,,,,,,,,,,,267.7911,268.8376,268.8376,271.7673,return,0.6187,,74.73958333,0,40,40,56,1,FBP-PT-19.png,0.37,1.2,57,0.25,,,,,,,,,,,,,,,,,,,,,,,,,,,,,,,,,,,,,,,,,,,,,
,,,,,SPR24_001,19,Male,2024-04-03_10h18.54.102,jersey_experiment_5_v0,2023.2.2,Win32,84.74576271,,,,,,,,,,,,,,,,271.7675,273.0614,273.0615,275.7204,return,0.8432,,30.33854167,0,41,41,40,1,FBP-RB-19.png,0.35,1.2,41,0.5,,,,,,,,,,,,,,,,,,,,,,,,,,,,,,,,,,,,,,,,,,,,,
,,,,,SPR24_001,19,Male,2024-04-03_10h18.54.102,jersey_experiment_5_v0,2023.2.2,Win32,84.74576271,,,,,,,,,,,,,,,,275.7206,276.7674,276.7675,279.8029,return,1.0028,,81.640625,0,42,42,54,1,FBP-PT-18.png,0.45,1.2,55,0.25,,,,,,,,,,,,,,,,,,,,,,,,,,,,,,,,,,,,,,,,,,,,,
,,,,,SPR24_001,19,Male,2024-04-03_10h18.54.102,jersey_experiment_5_v0,2023.2.2,Win32,84.74576271,,,,,,,,,,,,,,,,279.8032,280.85,280.8501,283.4853,return,0.7305,,70.703125,0,43,43,22,1,FBP-YG-18.png,0.4,1.2,23,0.25,,,,,,,,,,,,,,,,,,,,,,,,,,,,,,,,,,,,,,,,,,,,,
,,,,,SPR24_001,19,Male,2024-04-03_10h18.54.102,jersey_experiment_5_v0,2023.2.2,Win32,84.74576271,,,,,,,,,,,,,,,,283.4855,284.5324,284.5324,289.1444,return,1.6865,,56.90104167,0,44,44,57,1,FBP-PT-19.png,0.4,1.2,58,0.25,,,,,,,,,,,,,,,,,,,,,,,,,,,,,,,,,,,,,,,,,,,,,
,,,,,SPR24_001,19,Male,2024-04-03_10h18.54.102,jersey_experiment_5_v0,2023.2.2,Win32,84.74576271,,,,,,,,,,,,,,,,289.1446,290.1915,290.1915,292.7209,return,0.8239,,89.97395833,0,45,45,24,1,FBP-YG-18.png,0.45,1.2,25,0.25,,,,,,,,,,,,,,,,,,,,,,,,,,,,,,,,,,,,,,,,,,,,,
,,,,,SPR24_001,19,Male,2024-04-03_10h18.54.102,jersey_experiment_5_v0,2023.2.2,Win32,84.74576271,,,,,,,,,,,,,,,,292.7211,294.0151,294.0151,295.8389,return,0.8349,,89.84375,0,46,46,14,1,FBP-OG-91.png,0.45,1.2,15,0.5,,,,,,,,,,,,,,,,,,,,,,,,,,,,,,,,,,,,,,,,,,,,,
,,,,,SPR24_001,19,Male,2024-04-03_10h18.54.102,jersey_experiment_5_v0,2023.2.2,Win32,84.74576271,,,,,,,,,,,,,,,,295.839,296.8858,296.8858,302.3921,return,1.288,,83.203125,0,47,47,59,1,FBP-PT-19.png,0.45,1.2,60,0.25,,,,,,,,,,,,,,,,,,,,,,,,,,,,,,,,,,,,,,,,,,,,,
,,,,,SPR24_001,19,Male,2024-04-03_10h18.54.102,jersey_experiment_5_v0,2023.2.2,Win32,84.74576271,,,,,,,,,,,,,,,,302.3924,303.4391,303.4391,306.2038,return,0.6394,,94.27083333,0,48,48,49,1,FBP-PT-17.png,0.45,1.2,50,0.25,,,,,,,,,,,,,,,,,,,,,,,,,,,,,,,,,,,,,,,,,,,,,
,,,,,SPR24_001,19,Male,2024-04-03_10h18.54.102,jersey_experiment_5_v0,2023.2.2,Win32,84.74576271,,,,,,,,,,,,,,,,306.204,307.4979,307.498,309.9216,return,0.8111,,26.04166667,0,49,49,0,1,FBP-OG-71.png,0.35,1.2,1,0.5,,,,,,,,,,,,,,,,,,,,,,,,,,,,,,,,,,,,,,,,,,,,,
,,,,,SPR24_001,19,Male,2024-04-03_10h18.54.102,jersey_experiment_5_v0,2023.2.2,Win32,84.74576271,,,,,,,,,,,,,,,,309.9219,311.2158,311.2158,314.4748,return,1.3926,,68.09895833,0,50,50,38,1,FBP-RB-18.png,0.43,1.2,39,0.5,,,,,,,,,,,,,,,,,,,,,,,,,,,,,,,,,,,,,,,,,,,,,
,,,,,SPR24_001,19,Male,2024-04-03_10h18.54.102,jersey_experiment_5_v0,2023.2.2,Win32,84.74576271,,,,,,,,,,,,,,,,314.4751,315.7689,315.7689,319.7573,return,2.3544,,45.83333333,0,51,51,41,1,FBP-RB-19.png,0.37,1.2,42,0.5,,,,,,,,,,,,,,,,,,,,,,,,,,,,,,,,,,,,,,,,,,,,,
,,,,,SPR24_001,19,Male,2024-04-03_10h18.54.102,jersey_experiment_5_v0,2023.2.2,Win32,84.74576271,,,,,,,,,,,,,,,,319.7576,321.0515,321.0515,325.7458,return,2.8937,,74.08854167,0,52,52,33,1,FBP-RB-17.png,0.43,1.2,34,0.5,,,,,,,,,,,,,,,,,,,,,,,,,,,,,,,,,,,,,,,,,,,,,
,,,,,SPR24_001,19,Male,2024-04-03_10h18.54.102,jersey_experiment_5_v0,2023.2.2,Win32,84.74576271,,,,,,,,,,,,,,,,325.7461,327.0399,327.04,329.8166,return,0.9135,,24.21875,0,53,53,11,1,FBP-OG-91.png,0.37,1.2,12,0.5,,,,,,,,,,,,,,,,,,,,,,,,,,,,,,,,,,,,,,,,,,,,,
,,,,,SPR24_001,19,Male,2024-04-03_10h18.54.102,jersey_experiment_5_v0,2023.2.2,Win32,84.74576271,,,,,,,,,,,,,,,,329.8168,330.8636,330.8636,332.5577,return,0.5769,,24.21875,0,54,54,25,1,FBP-YG-19.png,0.35,1.2,26,0.25,,,,,,,,,,,,,,,,,,,,,,,,,,,,,,,,,,,,,,,,,,,,,
,,,,,SPR24_001,19,Male,2024-04-03_10h18.54.102,jersey_experiment_5_v0,2023.2.2,Win32,84.74576271,,,,,,,,,,,,,,,,332.558,333.8519,333.852,336.8403,return,0.5492,,61.71875,0,55,55,42,1,FBP-RB-19.png,0.4,1.2,43,0.5,,,,,,,,,,,,,,,,,,,,,,,,,,,,,,,,,,,,,,,,,,,,,
,,,,,SPR24_001,19,Male,2024-04-03_10h18.54.102,jersey_experiment_5_v0,2023.2.2,Win32,84.74576271,,,,,,,,,,,,,,,,336.8405,338.1343,338.1343,340.0403,return,0.6295,,25.26041667,0,56,56,1,1,FBP-OG-71.png,0.37,1.2,2,0.5,,,,,,,,,,,,,,,,,,,,,,,,,,,,,,,,,,,,,,,,,,,,,
,,,,,SPR24_001,19,Male,2024-04-03_10h18.54.102,jersey_experiment_5_v0,2023.2.2,Win32,84.74576271,,,,,,,,,,,,,,,,340.0405,341.0875,341.0876,343.1817,return,0.5654,,24.609375,0,57,57,20,1,FBP-YG-18.png,0.35,1.2,21,0.25,,,,,,,,,,,,,,,,,,,,,,,,,,,,,,,,,,,,,,,,,,,,,
,,,,,SPR24_001,19,Male,2024-04-03_10h18.54.102,jersey_experiment_5_v0,2023.2.2,Win32,84.74576271,,,,,,,,,,,,,,,,343.182,344.2288,344.2288,347.7113,return,1.5303,,88.02083333,0,58,58,19,1,FBP-YG-17.png,0.45,1.2,20,0.25,,,,,,,,,,,,,,,,,,,,,,,,,,,,,,,,,,,,,,,,,,,,,
,,,,,SPR24_001,19,Male,2024-04-03_10h18.54.102,jersey_experiment_5_v0,2023.2.2,Win32,84.74576271,,,,,,,,,,,,,,,,347.7115,348.7583,348.7584,351.6173,return,0.6932,,66.796875,0,59,59,47,1,FBP-PT-17.png,0.4,1.2,48,0.25,,,,,,,,,,,,,,,,,,,,,,,,,,,,,,,,,,,,,,,,,,,,,
,,,,,SPR24_001,19,Male,2024-04-03_10h18.54.102,jersey_experiment_5_v0,2023.2.2,Win32,84.74576271,,,,,,,,,,,,,,,,351.6194,352.9114,352.9114,357.994,return,2.0157,,57.16145833,,,,,,FBP-OG-19.png,0.37,1.2,12,0.5,0,0,0,11,1,,,,,,,,,,,,,,,,,,,,,,,,,,,,,,,,,,,,,,,,
,,,,,SPR24_001,19,Male,2024-04-03_10h18.54.102,jersey_experiment_5_v0,2023.2.2,Win32,84.74576271,,,,,,,,,,,,,,,,357.9944,359.0411,359.0412,362.0883,return,0.7926,,33.33333333,,,,,,FBP-YG-81.png,0.37,1.2,22,0.25,0,1,1,21,1,,,,,,,,,,,,,,,,,,,,,,,,,,,,,,,,,,,,,,,,
,,,,,SPR24_001,19,Male,2024-04-03_10h18.54.102,jersey_experiment_5_v0,2023.2.2,Win32,84.74576271,,,,,,,,,,,,,,,,362.0885,363.3825,363.3825,366.4883,return,1.2785,,51.82291667,,,,,,FBP-OG-18.png,0.4,1.2,8,0.5,0,2,2,7,1,,,,,,,,,,,,,,,,,,,,,,,,,,,,,,,,,,,,,,,,
,,,,,SPR24_001,19,Male,2024-04-03_10h18.54.102,jersey_experiment_5_v0,2023.2.2,Win32,84.74576271,,,,,,,,,,,,,,,,366.4886,367.5355,367.5355,373.3122,return,3.6821,,30.859375,,,,,,FBP-YG-91.png,0.35,1.2,26,0.25,0,3,3,25,1,,,,,,,,,,,,,,,,,,,,,,,,,,,,,,,,,,,,,,,,
,,,,,SPR24_001,19,Male,2024-04-03_10h18.54.102,jersey_experiment_5_v0,2023.2.2,Win32,84.74576271,,,,,,,,,,,,,,,,373.3125,374.3593,374.3594,378.2418,return,2.5551,,35.67708333,,,,,,FBP-PT-91.png,0.35,1.2,56,0.25,0,4,4,55,1,,,,,,,,,,,,,,,,,,,,,,,,,,,,,,,,,,,,,,,,
,,,,,SPR24_001,19,Male,2024-04-03_10h18.54.102,jersey_experiment_5_v0,2023.2.2,Win32,84.74576271,,,,,,,,,,,,,,,,378.2421,379.2889,379.289,382.089,return,1.0288,,49.609375,,,,,,FBP-YG-91.png,0.37,1.2,27,0.25,0,5,5,26,1,,,,,,,,,,,,,,,,,,,,,,,,,,,,,,,,,,,,,,,,
,,,,,SPR24_001,19,Male,2024-04-03_10h18.54.102,jersey_experiment_5_v0,2023.2.2,Win32,84.74576271,,,,,,,,,,,,,,,,382.0892,383.1361,383.1361,385.5832,return,0.625,,49.609375,,,,,,FBP-YG-91.png,0.4,1.2,28,0.25,0,6,6,27,1,,,,,,,,,,,,,,,,,,,,,,,,,,,,,,,,,,,,,,,,
,,,,,SPR24_001,19,Male,2024-04-03_10h18.54.102,jersey_experiment_5_v0,2023.2.2,Win32,84.74576271,,,,,,,,,,,,,,,,385.5835,386.8775,386.8775,388.8422,return,0.6736,,64.453125,,,,,,FBP-RB-91.png,0.4,1.2,43,0.5,0,7,7,42,1,,,,,,,,,,,,,,,,,,,,,,,,,,,,,,,,,,,,,,,,
,,,,,SPR24_001,19,Male,2024-04-03_10h18.54.102,jersey_experiment_5_v0,2023.2.2,Win32,84.74576271,,,,,,,,,,,,,,,,388.8425,389.8894,389.8894,394.4424,return,1.7,,34.50520833,,,,,,FBP-YG-71.png,0.35,1.2,16,0.25,0,8,8,15,1,,,,,,,,,,,,,,,,,,,,,,,,,,,,,,,,,,,,,,,,
,,,,,SPR24_001,19,Male,2024-04-03_10h18.54.102,jersey_experiment_5_v0,2023.2.2,Win32,84.74576271,,,,,,,,,,,,,,,,394.4426,395.4895,395.4896,398.8072,return,0.9251,,35.02604167,,,,,,FBP-YG-81.png,0.35,1.2,21,0.25,0,9,9,20,1,,,,,,,,,,,,,,,,,,,,,,,,,,,,,,,,,,,,,,,,
,,,,,SPR24_001,19,Male,2024-04-03_10h18.54.102,jersey_experiment_5_v0,2023.2.2,Win32,84.74576271,,,,,,,,,,,,,,,,398.8074,400.1015,400.1016,403.3368,return,0.6756,,85.9375,,,,,,FBP-RB-81.png,0.43,1.2,39,0.5,0,10,10,38,1,,,,,,,,,,,,,,,,,,,,,,,,,,,,,,,,,,,,,,,,
,,,,,SPR24_001,19,Male,2024-04-03_10h18.54.102,jersey_experiment_5_v0,2023.2.2,Win32,84.74576271,,,,,,,,,,,,,,,,403.337,404.631,404.6311,408.0665,return,1.563,,50.390625,,,,,,FBP-RB-91.png,0.37,1.2,42,0.5,0,11,11,41,1,,,,,,,,,,,,,,,,,,,,,,,,,,,,,,,,,,,,,,,,
,,,,,SPR24_001,19,Male,2024-04-03_10h18.54.102,jersey_experiment_5_v0,2023.2.2,Win32,84.74576271,,,,,,,,,,,,,,,,408.0668,409.1136,409.1136,411.9139,return,1.1241,,88.93229167,,,,,,FBP-PT-71.png,0.43,1.2,49,0.25,0,12,12,48,1,,,,,,,,,,,,,,,,,,,,,,,,,,,,,,,,,,,,,,,,
,,,,,SPR24_001,19,Male,2024-04-03_10h18.54.102,jersey_experiment_5_v0,2023.2.2,Win32,84.74576271,,,,,,,,,,,,,,,,411.914,413.2077,413.2078,414.9727,return,0.755,,87.890625,,,,,,FBP-OG-18.png,0.45,1.2,10,0.5,0,13,13,9,1,,,,,,,,,,,,,,,,,,,,,,,,,,,,,,,,,,,,,,,,
,,,,,SPR24_001,19,Male,2024-04-03_10h18.54.102,jersey_experiment_5_v0,2023.2.2,Win32,84.74576271,,,,,,,,,,,,,,,,414.9729,416.2667,416.2667,418.2668,return,0.9574,,87.890625,,,,,,FBP-RB-91.png,0.45,1.2,45,0.5,0,14,14,44,1,,,,,,,,,,,,,,,,,,,,,,,,,,,,,,,,,,,,,,,,
,,,,,SPR24_001,19,Male,2024-04-03_10h18.54.102,jersey_experiment_5_v0,2023.2.2,Win32,84.74576271,,,,,,,,,,,,,,,,418.267,419.561,419.5611,422.0316,return,0.6493,,50.13020833,,,,,,FBP-RB-71.png,0.37,1.2,32,0.5,0,15,15,31,1,,,,,,,,,,,,,,,,,,,,,,,,,,,,,,,,,,,,,,,,
,,,,,SPR24_001,19,Male,2024-04-03_10h18.54.102,jersey_experiment_5_v0,2023.2.2,Win32,84.74576271,,,,,,,,,,,,,,,,422.0319,423.3259,423.3259,427.7847,return,2.3455,,70.3125,,,,,,FBP-RB-71.png,0.4,1.2,33,0.5,0,16,16,32,1,,,,,,,,,,,,,,,,,,,,,,,,,,,,,,,,,,,,,,,,
,,,,,SPR24_001,19,Male,2024-04-03_10h18.54.102,jersey_experiment_5_v0,2023.2.2,Win32,84.74576271,,,,,,,,,,,,,,,,427.7849,428.8319,428.832,431.4674,return,0.652,,68.88020833,,,,,,FBP-PT-71.png,0.37,1.2,47,0.25,0,17,17,46,1,,,,,,,,,,,,,,,,,,,,,,,,,,,,,,,,,,,,,,,,
,,,,,SPR24_001,19,Male,2024-04-03_10h18.54.102,jersey_experiment_5_v0,2023.2.2,Win32,84.74576271,,,,,,,,,,,,,,,,431.4676,432.7614,432.7615,436.2675,return,1.2737,,92.70833333,,,,,,FBP-RB-81.png,0.45,1.2,40,0.5,0,18,18,39,1,,,,,,,,,,,,,,,,,,,,,,,,,,,,,,,,,,,,,,,,
,,,,,SPR24_001,19,Male,2024-04-03_10h18.54.102,jersey_experiment_5_v0,2023.2.2,Win32,84.74576271,,,,,,,,,,,,,,,,436.2676,437.5616,437.5617,441.1149,return,0.5919,,84.11458333,,,,,,FBP-OG-18.png,0.43,1.2,9,0.5,0,19,19,8,1,,,,,,,,,,,,,,,,,,,,,,,,,,,,,,,,,,,,,,,,
,,,,,SPR24_001,19,Male,2024-04-03_10h18.54.102,jersey_experiment_5_v0,2023.2.2,Win32,84.74576271,,,,,,,,,,,,,,,,441.1151,442.409,442.409,445.7148,return,0.6674,,49.34895833,,,,,,FBP-OG-17.png,0.35,1.2,1,0.5,0,20,20,0,1,,,,,,,,,,,,,,,,,,,,,,,,,,,,,,,,,,,,,,,,
,,,,,SPR24_001,19,Male,2024-04-03_10h18.54.102,jersey_experiment_5_v0,2023.2.2,Win32,84.74576271,,,,,,,,,,,,,,,,445.715,447.0091,447.0091,452.0565,return,0.5376,,57.94270833,,,,,,FBP-RB-81.png,0.4,1.2,38,0.5,0,21,21,37,1,,,,,,,,,,,,,,,,,,,,,,,,,,,,,,,,,,,,,,,,
,,,,,SPR24_001,19,Male,2024-04-03_10h18.54.102,jersey_experiment_5_v0,2023.2.2,Win32,84.74576271,,,,,,,,,,,,,,,,452.0567,453.3505,453.3505,455.5035,return,0.6575,,59.765625,,,,,,FBP-OG-19.png,0.35,1.2,11,0.5,0,22,22,10,1,,,,,,,,,,,,,,,,,,,,,,,,,,,,,,,,,,,,,,,,
,,,,,SPR24_001,19,Male,2024-04-03_10h18.54.102,jersey_experiment_5_v0,2023.2.2,Win32,84.74576271,,,,,,,,,,,,,,,,455.5038,456.5505,456.5506,460.586,return,2.274,,59.89583333,,,,,,FBP-YG-71.png,0.37,1.2,17,0.25,0,23,23,16,1,,,,,,,,,,,,,,,,,,,,,,,,,,,,,,,,,,,,,,,,
,,,,,SPR24_001,19,Male,2024-04-03_10h18.54.102,jersey_experiment_5_v0,2023.2.2,Win32,84.74576271,,,,,,,,,,,,,,,,460.5862,461.6332,461.6332,464.3979,return,0.8021,,42.578125,,,,,,FBP-PT-81.png,0.35,1.2,51,0.25,0,24,24,50,1,,,,,,,,,,,,,,,,,,,,,,,,,,,,,,,,,,,,,,,,
,,,,,SPR24_001,19,Male,2024-04-03_10h18.54.102,jersey_experiment_5_v0,2023.2.2,Win32,84.74576271,,,,,,,,,,,,,,,,464.3981,465.4451,465.4451,470.0452,return,0.8031,,65.625,,,,,,FBP-YG-71.png,0.4,1.2,18,0.25,0,25,25,17,1,,,,,,,,,,,,,,,,,,,,,,,,,,,,,,,,,,,,,,,,
,,,,,SPR24_001,19,Male,2024-04-03_10h18.54.102,jersey_experiment_5_v0,2023.2.2,Win32,84.74576271,,,,,,,,,,,,,,,,470.0454,471.3394,471.3394,475.2453,return,1.6836,,34.24479167,,,,,,FBP-RB-91.png,0.35,1.2,41,0.5,0,26,26,40,1,,,,,,,,,,,,,,,,,,,,,,,,,,,,,,,,,,,,,,,,
,,,,,SPR24_001,19,Male,2024-04-03_10h18.54.102,jersey_experiment_5_v0,2023.2.2,Win32,84.74576271,,,,,,,,,,,,,,,,475.2455,476.2925,476.2925,478.928,return,0.9088,,50.390625,,,,,,FBP-PT-91.png,0.37,1.2,57,0.25,0,27,27,56,1,,,,,,,,,,,,,,,,,,,,,,,,,,,,,,,,,,,,,,,,
,,,,,SPR24_001,19,Male,2024-04-03_10h18.54.102,jersey_experiment_5_v0,2023.2.2,Win32,84.74576271,,,,,,,,,,,,,,,,478.9282,480.2221,480.2221,482.2222,return,0.6259,,50,,,,,,FBP-OG-17.png,0.37,1.2,2,0.5,0,28,28,1,1,,,,,,,,,,,,,,,,,,,,,,,,,,,,,,,,,,,,,,,,
,,,,,SPR24_001,19,Male,2024-04-03_10h18.54.102,jersey_experiment_5_v0,2023.2.2,Win32,84.74576271,,,,,,,,,,,,,,,,482.2224,483.2692,483.2692,485.6457,return,0.7082,,69.53125,,,,,,FBP-PT-91.png,0.43,1.2,59,0.25,0,29,29,58,1,,,,,,,,,,,,,,,,,,,,,,,,,,,,,,,,,,,,,,,,
,,,,,SPR24_001,19,Male,2024-04-03_10h18.54.102,jersey_experiment_5_v0,2023.2.2,Win32,84.74576271,,,,,,,,,,,,,,,,485.6459,486.6929,486.6929,488.4106,return,0.5684,,69.53125,,,,,,FBP-YG-81.png,0.4,1.2,23,0.25,0,30,30,22,1,,,,,,,,,,,,,,,,,,,,,,,,,,,,,,,,,,,,,,,,
,,,,,SPR24_001,19,Male,2024-04-03_10h18.54.102,jersey_experiment_5_v0,2023.2.2,Win32,84.74576271,,,,,,,,,,,,,,,,488.4109,489.7049,489.7049,492.5049,return,1.3468,,91.27604167,,,,,,FBP-OG-17.png,0.43,1.2,4,0.5,0,31,31,3,1,,,,,,,,,,,,,,,,,,,,,,,,,,,,,,,,,,,,,,,,
,,,,,SPR24_001,19,Male,2024-04-03_10h18.54.102,jersey_experiment_5_v0,2023.2.2,Win32,84.74576271,,,,,,,,,,,,,,,,492.5051,493.7991,493.7991,495.7756,return,0.7033,,97.52604167,,,,,,FBP-OG-19.png,0.43,1.2,14,0.5,0,32,32,13,1,,,,,,,,,,,,,,,,,,,,,,,,,,,,,,,,,,,,,,,,
,,,,,SPR24_001,19,Male,2024-04-03_10h18.54.102,jersey_experiment_5_v0,2023.2.2,Win32,84.74576271,,,,,,,,,,,,,,,,495.7759,496.8226,496.8226,499.2815,return,0.648,,74.34895833,,,,,,FBP-PT-81.png,0.4,1.2,53,0.25,0,33,33,52,1,,,,,,,,,,,,,,,,,,,,,,,,,,,,,,,,,,,,,,,,
,,,,,SPR24_001,19,Male,2024-04-03_10h18.54.102,jersey_experiment_5_v0,2023.2.2,Win32,84.74576271,,,,,,,,,,,,,,,,499.2817,500.3286,500.3286,502.1758,return,0.6954,,74.47916667,,,,,,FBP-YG-71.png,0.43,1.2,19,0.25,0,34,34,18,1,,,,,,,,,,,,,,,,,,,,,,,,,,,,,,,,,,,,,,,,
,,,,,SPR24_001,19,Male,2024-04-03_10h18.54.102,jersey_experiment_5_v0,2023.2.2,Win32,84.74576271,,,,,,,,,,,,,,,,502.176,503.4701,503.4701,506.0348,return,0.7435,,80.72916667,,,,,,FBP-OG-19.png,0.4,1.2,13,0.5,0,35,35,12,1,,,,,,,,,,,,,,,,,,,,,,,,,,,,,,,,,,,,,,,,
,,,,,SPR24_001,19,Male,2024-04-03_10h18.54.102,jersey_experiment_5_v0,2023.2.2,Win32,84.74576271,,,,,,,,,,,,,,,,506.035,507.0819,507.0819,510.4821,return,1.0726,,85.546875,,,,,,FBP-YG-81.png,0.43,1.2,24,0.25,0,36,36,23,1,,,,,,,,,,,,,,,,,,,,,,,,,,,,,,,,,,,,,,,,
,,,,,SPR24_001,19,Male,2024-04-03_10h18.54.102,jersey_experiment_5_v0,2023.2.2,Win32,84.74576271,,,,,,,,,,,,,,,,510.4824,511.7762,511.7762,514.0939,return,0.7083,,63.93229167,,,,,,FBP-RB-81.png,0.37,1.2,37,0.5,0,37,37,36,1,,,,,,,,,,,,,,,,,,,,,,,,,,,,,,,,,,,,,,,,
,,,,,SPR24_001,19,Male,2024-04-03_10h18.54.102,jersey_experiment_5_v0,2023.2.2,Win32,84.74576271,,,,,,,,,,,,,,,,514.0941,515.3879,515.388,517.9175,return,1.5073,,40.10416667,,,,,,FBP-OG-18.png,0.37,1.2,7,0.5,0,38,38,6,1,,,,,,,,,,,,,,,,,,,,,,,,,,,,,,,,,,,,,,,,
,,,,,SPR24_001,19,Male,2024-04-03_10h18.54.102,jersey_experiment_5_v0,2023.2.2,Win32,84.74576271,,,,,,,,,,,,,,,,517.9178,519.2117,519.2118,521.8587,return,0.6696,,44.53125,,,,,,FBP-RB-71.png,0.35,1.2,31,0.5,0,39,39,30,1,,,,,,,,,,,,,,,,,,,,,,,,,,,,,,,,,,,,,,,,
,,,,,SPR24_001,19,Male,2024-04-03_10h18.54.102,jersey_experiment_5_v0,2023.2.2,Win32,84.74576271,,,,,,,,,,,,,,,,521.8591,522.9059,522.9059,525.4003,return,0.8905,,95.83333333,,,,,,FBP-PT-81.png,0.45,1.2,55,0.25,0,40,40,54,1,,,,,,,,,,,,,,,,,,,,,,,,,,,,,,,,,,,,,,,,
,,,,,SPR24_001,19,Male,2024-04-03_10h18.54.102,jersey_experiment_5_v0,2023.2.2,Win32,84.74576271,,,,,,,,,,,,,,,,525.4004,526.4473,526.4473,527.8356,return,0.6497,,95.83333333,,,,,,FBP-PT-91.png,0.45,1.2,60,0.25,0,41,41,59,1,,,,,,,,,,,,,,,,,,,,,,,,,,,,,,,,,,,,,,,,
,,,,,SPR24_001,19,Male,2024-04-03_10h18.54.102,jersey_experiment_5_v0,2023.2.2,Win32,84.74576271,,,,,,,,,,,,,,,,527.8358,529.1297,529.1297,531.165,return,0.8705,,96.35416667,,,,,,FBP-RB-71.png,0.43,1.2,34,0.5,0,42,42,33,1,,,,,,,,,,,,,,,,,,,,,,,,,,,,,,,,,,,,,,,,
,,,,,SPR24_001,19,Male,2024-04-03_10h18.54.102,jersey_experiment_5_v0,2023.2.2,Win32,84.74576271,,,,,,,,,,,,,,,,531.1653,532.4594,532.4594,534.2475,return,1.1731,,98.046875,,,,,,FBP-OG-17.png,0.45,1.2,5,0.5,0,43,43,4,1,,,,,,,,,,,,,,,,,,,,,,,,,,,,,,,,,,,,,,,,
,,,,,SPR24_001,19,Male,2024-04-03_10h18.54.102,jersey_experiment_5_v0,2023.2.2,Win32,84.74576271,,,,,,,,,,,,,,,,534.2478,535.5417,535.5418,536.93,return,0.7681,,98.30729167,,,,,,FBP-RB-71.png,0.45,1.2,35,0.5,0,44,44,34,1,,,,,,,,,,,,,,,,,,,,,,,,,,,,,,,,,,,,,,,,
,,,,,SPR24_001,19,Male,2024-04-03_10h18.54.102,jersey_experiment_5_v0,2023.2.2,Win32,84.74576271,,,,,,,,,,,,,,,,536.9303,537.9771,537.9772,539.8243,return,0.6486,,98.30729167,,,,,,FBP-PT-71.png,0.45,1.2,50,0.25,0,45,45,49,1,,,,,,,,,,,,,,,,,,,,,,,,,,,,,,,,,,,,,,,,
,,,,,SPR24_001,19,Male,2024-04-03_10h18.54.102,jersey_experiment_5_v0,2023.2.2,Win32,84.74576271,,,,,,,,,,,,,,,,539.8246,540.8712,540.8713,543.1538,return,0.5417,,99.47916667,,,,,,FBP-YG-81.png,0.45,1.2,25,0.25,0,46,46,24,1,,,,,,,,,,,,,,,,,,,,,,,,,,,,,,,,,,,,,,,,
,,,,,SPR24_001,19,Male,2024-04-03_10h18.54.102,jersey_experiment_5_v0,2023.2.2,Win32,84.74576271,,,,,,,,,,,,,,,,543.154,544.4479,544.448,546.2833,return,0.6265,,99.47916667,,,,,,FBP-OG-19.png,0.45,1.2,15,0.5,0,47,47,14,1,,,,,,,,,,,,,,,,,,,,,,,,,,,,,,,,,,,,,,,,
,,,,,SPR24_001,19,Male,2024-04-03_10h18.54.102,jersey_experiment_5_v0,2023.2.2,Win32,84.74576271,,,,,,,,,,,,,,,,546.2836,547.5774,547.5774,549.9069,return,1.0924,,82.94270833,,,,,,FBP-OG-17.png,0.4,1.2,3,0.5,0,48,48,2,1,,,,,,,,,,,,,,,,,,,,,,,,,,,,,,,,,,,,,,,,
,,,,,SPR24_001,19,Male,2024-04-03_10h18.54.102,jersey_experiment_5_v0,2023.2.2,Win32,84.74576271,,,,,,,,,,,,,,,,549.9072,550.9541,550.9542,553.3072,return,1.0138,,97.65625,,,,,,FBP-YG-91.png,0.45,1.2,30,0.25,0,49,49,29,1,,,,,,,,,,,,,,,,,,,,,,,,,,,,,,,,,,,,,,,,
,,,,,SPR24_001,19,Male,2024-04-03_10h18.54.102,jersey_experiment_5_v0,2023.2.2,Win32,84.74576271,,,,,,,,,,,,,,,,553.3075,554.3541,554.3542,557.1543,return,0.5746,,100,,,,,,FBP-YG-91.png,0.43,1.2,29,0.25,0,50,50,28,1,,,,,,,,,,,,,,,,,,,,,,,,,,,,,,,,,,,,,,,,
,,,,,SPR24_001,19,Male,2024-04-03_10h18.54.102,jersey_experiment_5_v0,2023.2.2,Win32,84.74576271,,,,,,,,,,,,,,,,557.1544,558.4484,558.4484,560.8251,return,0.4403,,100,,,,,,FBP-RB-91.png,0.43,1.2,44,0.5,0,51,51,43,1,,,,,,,,,,,,,,,,,,,,,,,,,,,,,,,,,,,,,,,,
,,,,,SPR24_001,19,Male,2024-04-03_10h18.54.102,jersey_experiment_5_v0,2023.2.2,Win32,84.74576271,,,,,,,,,,,,,,,,560.8253,561.8721,561.8721,564.4606,return,1.0743,,37.890625,,,,,,FBP-PT-81.png,0.37,1.2,52,0.25,0,52,52,51,1,,,,,,,,,,,,,,,,,,,,,,,,,,,,,,,,,,,,,,,,
,,,,,SPR24_001,19,Male,2024-04-03_10h18.54.102,jersey_experiment_5_v0,2023.2.2,Win32,84.74576271,,,,,,,,,,,,,,,,564.4609,565.5075,565.5075,568.8607,return,0.674,,71.875,,,,,,FBP-PT-81.png,0.43,1.2,54,0.25,0,53,53,53,1,,,,,,,,,,,,,,,,,,,,,,,,,,,,,,,,,,,,,,,,
,,,,,SPR24_001,19,Male,2024-04-03_10h18.54.102,jersey_experiment_5_v0,2023.2.2,Win32,84.74576271,,,,,,,,,,,,,,,,568.8609,569.9075,569.9076,572.0489,return,0.8807,,97.91666667,,,,,,FBP-YG-71.png,0.45,1.2,20,0.25,0,54,54,19,1,,,,,,,,,,,,,,,,,,,,,,,,,,,,,,,,,,,,,,,,
,,,,,SPR24_001,19,Male,2024-04-03_10h18.54.102,jersey_experiment_5_v0,2023.2.2,Win32,84.74576271,,,,,,,,,,,,,,,,572.0491,573.3431,573.3432,575.0491,return,0.6543,,31.38020833,,,,,,FBP-OG-18.png,0.35,1.2,6,0.5,0,55,55,5,1,,,,,,,,,,,,,,,,,,,,,,,,,,,,,,,,,,,,,,,,
,,,,,SPR24_001,19,Male,2024-04-03_10h18.54.102,jersey_experiment_5_v0,2023.2.2,Win32,84.74576271,,,,,,,,,,,,,,,,575.0493,576.0963,576.0964,578.1786,return,0.4717,,24.73958333,,,,,,FBP-PT-71.png,0.35,1.2,46,0.25,0,56,56,45,1,,,,,,,,,,,,,,,,,,,,,,,,,,,,,,,,,,,,,,,,
,,,,,SPR24_001,19,Male,2024-04-03_10h18.54.102,jersey_experiment_5_v0,2023.2.2,Win32,84.74576271,,,,,,,,,,,,,,,,578.1789,579.2257,579.2257,582.9435,return,0.6124,,55.46875,,,,,,FBP-PT-71.png,0.4,1.2,48,0.25,0,57,57,47,1,,,,,,,,,,,,,,,,,,,,,,,,,,,,,,,,,,,,,,,,
,,,,,SPR24_001,19,Male,2024-04-03_10h18.54.102,jersey_experiment_5_v0,2023.2.2,Win32,84.74576271,,,,,,,,,,,,,,,,582.9438,583.9907,583.9907,586.779,return,0.6504,,74.34895833,,,,,,FBP-PT-91.png,0.4,1.2,58,0.25,0,58,58,57,1,,,,,,,,,,,,,,,,,,,,,,,,,,,,,,,,,,,,,,,,
,,,,,SPR24_001,19,Male,2024-04-03_10h18.54.102,jersey_experiment_5_v0,2023.2.2,Win32,84.74576271,,,,,,,,,,,,,,,,586.7792,588.0731,588.0733,590.2969,return,0.8428,,26.30208333,,,,,,FBP-RB-81.png,0.35,1.2,36,0.5,0,59,59,35,1,,,,,,,,,,,,,,,,,,,,,,,,,,,,,,,,,,,,,,,,
,,,,,SPR24_001,19,Male,2024-04-03_10h18.54.102,jersey_experiment_5_v0,2023.2.2,Win32,84.74576271,,,,,,,,,,,,,,,,,,,,,,,,,,,,,,,,,,,,,,,590.2973,710.2897,,,,,,,,,,,,,,,,,,,,,,,,,,,,,,,,,,,,,,
,,,,,SPR24_001,19,Male,2024-04-03_10h18.54.102,jersey_experiment_5_v0,2023.2.2,Win32,84.74576271,,,,,,,,,,,,,,,,,,,,,,,,,,,,,,,,,,,,,,,,,710.2898,720.9843,return,10.6869,,,,,,,,,,,,,,,,,,,,,,,,,,,,,,,,,,
,,,,,SPR24_001,19,Male,2024-04-03_10h18.54.102,jersey_experiment_5_v0,2023.2.2,Win32,84.74576271,,,,,,,,,,,,,,,,720.9904,722.2898,722.2898,725.5371,return,0.6839,,90.10416667,,,,,,FBP-PT-17.png,0.43,1.2,49,0.5,,,,,,,,,,,,,0,0,0,48,1,,,,,,,,,,,,,,,,,,,,,,,,,,,,
,,,,,SPR24_001,19,Male,2024-04-03_10h18.54.102,jersey_experiment_5_v0,2023.2.2,Win32,84.74576271,,,,,,,,,,,,,,,,725.5374,726.5843,726.5844,732.8785,return,4.7076,,26.04166667,,,,,,FBP-OG-81.png,0.35,1.2,6,0.25,,,,,,,,,,,,,0,1,1,5,1,,,,,,,,,,,,,,,,,,,,,,,,,,,,
,,,,,SPR24_001,19,Male,2024-04-03_10h18.54.102,jersey_experiment_5_v0,2023.2.2,Win32,84.74576271,,,,,,,,,,,,,,,,732.8788,733.9256,733.9256,736.208,return,0.5654,,84.375,,,,,,FBP-OG-91.png,0.45,1.2,15,0.25,,,,,,,,,,,,,0,2,2,14,1,,,,,,,,,,,,,,,,,,,,,,,,,,,,
,,,,,SPR24_001,19,Male,2024-04-03_10h18.54.102,jersey_experiment_5_v0,2023.2.2,Win32,84.74576271,,,,,,,,,,,,,,,,736.2082,737.2552,737.2552,739.6787,return,1.0233,,81.11979167,,,,,,FBP-OG-91.png,0.37,1.2,12,0.25,,,,,,,,,,,,,0,3,3,11,1,,,,,,,,,,,,,,,,,,,,,,,,,,,,
,,,,,SPR24_001,19,Male,2024-04-03_10h18.54.102,jersey_experiment_5_v0,2023.2.2,Win32,84.74576271,,,,,,,,,,,,,,,,739.679,740.9729,740.9731,743.6553,return,1.2557,,88.15104167,,,,,,FBP-PT-18.png,0.43,1.2,54,0.5,,,,,,,,,,,,,0,4,4,53,1,,,,,,,,,,,,,,,,,,,,,,,,,,,,
,,,,,SPR24_001,19,Male,2024-04-03_10h18.54.102,jersey_experiment_5_v0,2023.2.2,Win32,84.74576271,,,,,,,,,,,,,,,,743.6557,744.7026,744.7026,746.6319,return,0.8438,,86.71875,,,,,,FBP-RB-19.png,0.4,1.2,43,0.25,,,,,,,,,,,,,0,5,5,42,1,,,,,,,,,,,,,,,,,,,,,,,,,,,,
,,,,,SPR24_001,19,Male,2024-04-03_10h18.54.102,jersey_experiment_5_v0,2023.2.2,Win32,84.74576271,,,,,,,,,,,,,,,,746.6322,747.6791,747.6791,750.844,return,0.5444,,62.36979167,,,,,,FBP-OG-71.png,0.4,1.2,3,0.25,,,,,,,,,,,,,0,6,6,2,1,,,,,,,,,,,,,,,,,,,,,,,,,,,,
,,,,,SPR24_001,19,Male,2024-04-03_10h18.54.102,jersey_experiment_5_v0,2023.2.2,Win32,84.74576271,,,,,,,,,,,,,,,,750.8442,751.891,751.891,753.9145,return,0.4854,,49.609375,,,,,,FBP-OG-91.png,0.35,1.2,11,0.25,,,,,,,,,,,,,0,7,7,10,1,,,,,,,,,,,,,,,,,,,,,,,,,,,,
,,,,,SPR24_001,19,Male,2024-04-03_10h18.54.102,jersey_experiment_5_v0,2023.2.2,Win32,84.74576271,,,,,,,,,,,,,,,,753.9147,755.2088,755.2089,757.1853,return,0.5177,,75.390625,,,,,,FBP-YG-19.png,0.4,1.2,28,0.5,,,,,,,,,,,,,0,8,8,27,1,,,,,,,,,,,,,,,,,,,,,,,,,,,,
,,,,,SPR24_001,19,Male,2024-04-03_10h18.54.102,jersey_experiment_5_v0,2023.2.2,Win32,84.74576271,,,,,,,,,,,,,,,,757.1856,758.2324,758.2324,760.256,return,0.6963,,89.58333333,,,,,,FBP-OG-91.png,0.43,1.2,14,0.25,,,,,,,,,,,,,0,9,9,13,1,,,,,,,,,,,,,,,,,,,,,,,,,,,,
,,,,,SPR24_001,19,Male,2024-04-03_10h18.54.102,jersey_experiment_5_v0,2023.2.2,Win32,84.74576271,,,,,,,,,,,,,,,,760.2562,761.5503,761.5505,763.162,return,0.6055,,91.796875,,,,,,FBP-YG-19.png,0.43,1.2,29,0.5,,,,,,,,,,,,,0,10,10,28,1,,,,,,,,,,,,,,,,,,,,,,,,,,,,
,,,,,SPR24_001,19,Male,2024-04-03_10h18.54.102,jersey_experiment_5_v0,2023.2.2,Win32,84.74576271,,,,,,,,,,,,,,,,763.1623,764.4561,764.4561,765.7622,return,0.6965,,91.796875,,,,,,FBP-YG-18.png,0.4,1.2,23,0.5,,,,,,,,,,,,,0,11,11,22,1,,,,,,,,,,,,,,,,,,,,,,,,,,,,
,,,,,SPR24_001,19,Male,2024-04-03_10h18.54.102,jersey_experiment_5_v0,2023.2.2,Win32,84.74576271,,,,,,,,,,,,,,,,765.7624,767.0564,767.0564,768.9858,return,0.5458,,88.54166667,,,,,,FBP-YG-17.png,0.4,1.2,18,0.5,,,,,,,,,,,,,0,12,12,17,1,,,,,,,,,,,,,,,,,,,,,,,,,,,,
,,,,,SPR24_001,19,Male,2024-04-03_10h18.54.102,jersey_experiment_5_v0,2023.2.2,Win32,84.74576271,,,,,,,,,,,,,,,,768.986,770.2801,770.2801,771.5622,return,0.6041,,89.58333333,,,,,,FBP-YG-18.png,0.43,1.2,24,0.5,,,,,,,,,,,,,0,13,13,23,1,,,,,,,,,,,,,,,,,,,,,,,,,,,,
,,,,,SPR24_001,19,Male,2024-04-03_10h18.54.102,jersey_experiment_5_v0,2023.2.2,Win32,84.74576271,,,,,,,,,,,,,,,,771.5624,772.6093,772.6094,774.4094,return,0.5007,,99.08854167,,,,,,FBP-RB-17.png,0.45,1.2,35,0.25,,,,,,,,,,,,,0,14,14,34,1,,,,,,,,,,,,,,,,,,,,,,,,,,,,
,,,,,SPR24_001,19,Male,2024-04-03_10h18.54.102,jersey_experiment_5_v0,2023.2.2,Win32,84.74576271,,,,,,,,,,,,,,,,774.4097,775.4565,775.4565,776.8449,return,0.6372,,99.08854167,,,,,,FBP-OG-81.png,0.43,1.2,9,0.25,,,,,,,,,,,,,0,15,15,8,1,,,,,,,,,,,,,,,,,,,,,,,,,,,,
,,,,,SPR24_001,19,Male,2024-04-03_10h18.54.102,jersey_experiment_5_v0,2023.2.2,Win32,84.74576271,,,,,,,,,,,,,,,,776.8451,777.8919,777.8919,780.398,return,0.7782,,25.91145833,,,,,,FBP-RB-18.png,0.35,1.2,36,0.25,,,,,,,,,,,,,0,16,16,35,1,,,,,,,,,,,,,,,,,,,,,,,,,,,,
,,,,,SPR24_001,19,Male,2024-04-03_10h18.54.102,jersey_experiment_5_v0,2023.2.2,Win32,84.74576271,,,,,,,,,,,,,,,,780.3982,781.6922,781.6922,785.9628,return,0.5229,,88.41145833,,,,,,FBP-YG-19.png,0.45,1.2,30,0.5,,,,,,,,,,,,,0,17,17,29,1,,,,,,,,,,,,,,,,,,,,,,,,,,,,
,,,,,SPR24_001,19,Male,2024-04-03_10h18.54.102,jersey_experiment_5_v0,2023.2.2,Win32,84.74576271,,,,,,,,,,,,,,,,785.9631,787.01,787.01,788.6688,return,0.837,,88.41145833,,,,,,FBP-RB-17.png,0.43,1.2,34,0.25,,,,,,,,,,,,,0,18,18,33,1,,,,,,,,,,,,,,,,,,,,,,,,,,,,
,,,,,SPR24_001,19,Male,2024-04-03_10h18.54.102,jersey_experiment_5_v0,2023.2.2,Win32,84.74576271,,,,,,,,,,,,,,,,788.6691,789.9629,789.963,792.0925,return,0.4944,,97.78645833,,,,,,FBP-YG-18.png,0.45,1.2,25,0.5,,,,,,,,,,,,,0,19,19,24,1,,,,,,,,,,,,,,,,,,,,,,,,,,,,
,,,,,SPR24_001,19,Male,2024-04-03_10h18.54.102,jersey_experiment_5_v0,2023.2.2,Win32,84.74576271,,,,,,,,,,,,,,,,792.0928,793.3867,793.3868,795.7044,return,0.5708,,36.328125,,,,,,FBP-YG-17.png,0.35,1.2,16,0.5,,,,,,,,,,,,,0,20,20,15,1,,,,,,,,,,,,,,,,,,,,,,,,,,,,
,,,,,SPR24_001,19,Male,2024-04-03_10h18.54.102,jersey_experiment_5_v0,2023.2.2,Win32,84.74576271,,,,,,,,,,,,,,,,795.7046,796.7514,796.7514,798.5869,return,0.5819,,24.86979167,,,,,,FBP-OG-71.png,0.35,1.2,1,0.25,,,,,,,,,,,,,0,21,21,0,1,,,,,,,,,,,,,,,,,,,,,,,,,,,,
,,,,,SPR24_001,19,Male,2024-04-03_10h18.54.102,jersey_experiment_5_v0,2023.2.2,Win32,84.74576271,,,,,,,,,,,,,,,,798.5871,799.8809,799.8809,802.4105,return,0.5703,,93.359375,,,,,,FBP-PT-17.png,0.45,1.2,50,0.5,,,,,,,,,,,,,0,22,22,49,1,,,,,,,,,,,,,,,,,,,,,,,,,,,,
,,,,,SPR24_001,19,Male,2024-04-03_10h18.54.102,jersey_experiment_5_v0,2023.2.2,Win32,84.74576271,,,,,,,,,,,,,,,,802.4107,803.4578,803.4579,805.1871,return,0.6214,,24.609375,,,,,,FBP-RB-17.png,0.35,1.2,31,0.25,,,,,,,,,,,,,0,23,23,30,1,,,,,,,,,,,,,,,,,,,,,,,,,,,,
,,,,,SPR24_001,19,Male,2024-04-03_10h18.54.102,jersey_experiment_5_v0,2023.2.2,Win32,84.74576271,,,,,,,,,,,,,,,,805.1874,806.2344,806.2345,808.0578,return,0.6753,,49.21875,,,,,,FBP-RB-17.png,0.37,1.2,32,0.25,,,,,,,,,,,,,0,24,24,31,1,,,,,,,,,,,,,,,,,,,,,,,,,,,,
,,,,,SPR24_001,19,Male,2024-04-03_10h18.54.102,jersey_experiment_5_v0,2023.2.2,Win32,84.74576271,,,,,,,,,,,,,,,,808.058,809.3518,809.3519,810.7755,return,0.5385,,75,,,,,,FBP-PT-18.png,0.4,1.2,53,0.5,,,,,,,,,,,,,0,25,25,52,1,,,,,,,,,,,,,,,,,,,,,,,,,,,,
,,,,,SPR24_001,19,Male,2024-04-03_10h18.54.102,jersey_experiment_5_v0,2023.2.2,Win32,84.74576271,,,,,,,,,,,,,,,,810.7758,812.0698,812.0698,813.9167,return,0.5543,,49.609375,,,,,,FBP-YG-17.png,0.37,1.2,17,0.5,,,,,,,,,,,,,0,26,26,16,1,,,,,,,,,,,,,,,,,,,,,,,,,,,,
,,,,,SPR24_001,19,Male,2024-04-03_10h18.54.102,jersey_experiment_5_v0,2023.2.2,Win32,84.74576271,,,,,,,,,,,,,,,,813.9169,814.964,814.9641,816.4464,return,0.5776,,49.34895833,,,,,,FBP-RB-19.png,0.35,1.2,41,0.25,,,,,,,,,,,,,0,27,27,40,1,,,,,,,,,,,,,,,,,,,,,,,,,,,,
,,,,,SPR24_001,19,Male,2024-04-03_10h18.54.102,jersey_experiment_5_v0,2023.2.2,Win32,84.74576271,,,,,,,,,,,,,,,,816.4466,817.7407,817.7408,820.5407,return,0.533,,88.41145833,,,,,,FBP-PT-18.png,0.45,1.2,55,0.5,,,,,,,,,,,,,0,28,28,54,1,,,,,,,,,,,,,,,,,,,,,,,,,,,,
,,,,,SPR24_001,19,Male,2024-04-03_10h18.54.102,jersey_experiment_5_v0,2023.2.2,Win32,84.74576271,,,,,,,,,,,,,,,,820.5409,821.5876,821.5877,824.1408,return,0.6132,,92.05729167,,,,,,FBP-RB-19.png,0.43,1.2,44,0.25,,,,,,,,,,,,,0,29,29,43,1,,,,,,,,,,,,,,,,,,,,,,,,,,,,
,,,,,SPR24_001,19,Male,2024-04-03_10h18.54.102,jersey_experiment_5_v0,2023.2.2,Win32,84.74576271,,,,,,,,,,,,,,,,824.141,825.4348,825.4348,826.9996,return,0.6659,,91.53645833,,,,,,FBP-YG-17.png,0.43,1.2,19,0.5,,,,,,,,,,,,,0,30,30,18,1,,,,,,,,,,,,,,,,,,,,,,,,,,,,
,,,,,SPR24_001,19,Male,2024-04-03_10h18.54.102,jersey_experiment_5_v0,2023.2.2,Win32,84.74576271,,,,,,,,,,,,,,,,826.9998,828.2938,828.2938,831.0233,return,0.6462,,42.578125,,,,,,FBP-PT-19.png,0.37,1.2,57,0.5,,,,,,,,,,,,,0,31,31,56,1,,,,,,,,,,,,,,,,,,,,,,,,,,,,
,,,,,SPR24_001,19,Male,2024-04-03_10h18.54.102,jersey_experiment_5_v0,2023.2.2,Win32,84.74576271,,,,,,,,,,,,,,,,831.0235,832.3175,832.3176,834.4,return,1.2019,,75,,,,,,FBP-PT-19.png,0.43,1.2,59,0.5,,,,,,,,,,,,,0,32,32,58,1,,,,,,,,,,,,,,,,,,,,,,,,,,,,
,,,,,SPR24_001,19,Male,2024-04-03_10h18.54.102,jersey_experiment_5_v0,2023.2.2,Win32,84.74576271,,,,,,,,,,,,,,,,834.4002,835.6942,835.6942,837.8706,return,0.6137,,50.13020833,,,,,,FBP-PT-17.png,0.37,1.2,47,0.5,,,,,,,,,,,,,0,33,33,46,1,,,,,,,,,,,,,,,,,,,,,,,,,,,,
,,,,,SPR24_001,19,Male,2024-04-03_10h18.54.102,jersey_experiment_5_v0,2023.2.2,Win32,84.74576271,,,,,,,,,,,,,,,,837.8709,838.9178,838.9178,840.3296,return,0.5683,,49.73958333,,,,,,FBP-OG-81.png,0.37,1.2,7,0.25,,,,,,,,,,,,,0,34,34,6,1,,,,,,,,,,,,,,,,,,,,,,,,,,,,
,,,,,SPR24_001,19,Male,2024-04-03_10h18.54.102,jersey_experiment_5_v0,2023.2.2,Win32,84.74576271,,,,,,,,,,,,,,,,840.3299,841.6238,841.6238,843.2592,return,0.7111,,49.73958333,,,,,,FBP-YG-19.png,0.37,1.2,27,0.5,,,,,,,,,,,,,0,35,35,26,1,,,,,,,,,,,,,,,,,,,,,,,,,,,,
,,,,,SPR24_001,19,Male,2024-04-03_10h18.54.102,jersey_experiment_5_v0,2023.2.2,Win32,84.74576271,,,,,,,,,,,,,,,,843.2594,844.5532,844.5533,847.9299,return,0.4987,,45.44270833,,,,,,FBP-PT-18.png,0.35,1.2,51,0.5,,,,,,,,,,,,,0,36,36,50,1,,,,,,,,,,,,,,,,,,,,,,,,,,,,
,,,,,SPR24_001,19,Male,2024-04-03_10h18.54.102,jersey_experiment_5_v0,2023.2.2,Win32,84.74576271,,,,,,,,,,,,,,,,847.9302,848.977,848.977,851.53,return,0.5915,,50.390625,,,,,,FBP-RB-18.png,0.37,1.2,37,0.25,,,,,,,,,,,,,0,37,37,36,1,,,,,,,,,,,,,,,,,,,,,,,,,,,,
,,,,,SPR24_001,19,Male,2024-04-03_10h18.54.102,jersey_experiment_5_v0,2023.2.2,Win32,84.74576271,,,,,,,,,,,,,,,,851.5303,852.8243,852.8243,854.4478,return,0.6348,,49.86979167,,,,,,FBP-PT-17.png,0.35,1.2,46,0.5,,,,,,,,,,,,,0,38,38,45,1,,,,,,,,,,,,,,,,,,,,,,,,,,,,
,,,,,SPR24_001,19,Male,2024-04-03_10h18.54.102,jersey_experiment_5_v0,2023.2.2,Win32,84.74576271,,,,,,,,,,,,,,,,854.4481,855.7418,855.7419,857.3302,return,0.7063,,49.21875,,,,,,FBP-PT-18.png,0.37,1.2,52,0.5,,,,,,,,,,,,,0,39,39,51,1,,,,,,,,,,,,,,,,,,,,,,,,,,,,
,,,,,SPR24_001,19,Male,2024-04-03_10h18.54.102,jersey_experiment_5_v0,2023.2.2,Win32,84.74576271,,,,,,,,,,,,,,,,857.3304,858.6242,858.6243,862.3774,return,1.5951,,56.90104167,,,,,,FBP-YG-19.png,0.35,1.2,26,0.5,,,,,,,,,,,,,0,40,40,25,1,,,,,,,,,,,,,,,,,,,,,,,,,,,,
,,,,,SPR24_001,19,Male,2024-04-03_10h18.54.102,jersey_experiment_5_v0,2023.2.2,Win32,84.74576271,,,,,,,,,,,,,,,,862.3776,863.4245,863.4246,868.2366,return,3.7319,,87.5,,,,,,FBP-OG-71.png,0.45,1.2,5,0.25,,,,,,,,,,,,,0,41,41,4,1,,,,,,,,,,,,,,,,,,,,,,,,,,,,
,,,,,SPR24_001,19,Male,2024-04-03_10h18.54.102,jersey_experiment_5_v0,2023.2.2,Win32,84.74576271,,,,,,,,,,,,,,,,868.2369,869.2835,869.2836,872.4955,return,0.5648,,60.41666667,,,,,,FBP-OG-71.png,0.37,1.2,2,0.25,,,,,,,,,,,,,0,42,42,1,1,,,,,,,,,,,,,,,,,,,,,,,,,,,,
,,,,,SPR24_001,19,Male,2024-04-03_10h18.54.102,jersey_experiment_5_v0,2023.2.2,Win32,84.74576271,,,,,,,,,,,,,,,,872.4958,873.5426,873.5426,878.4721,return,2.1247,,61.19791667,,,,,,FBP-RB-19.png,0.37,1.2,42,0.25,,,,,,,,,,,,,0,43,43,41,1,,,,,,,,,,,,,,,,,,,,,,,,,,,,
,,,,,SPR24_001,19,Male,2024-04-03_10h18.54.102,jersey_experiment_5_v0,2023.2.2,Win32,84.74576271,,,,,,,,,,,,,,,,878.4723,879.7664,879.7664,882.896,return,0.9534,,87.23958333,,,,,,FBP-PT-19.png,0.45,1.2,60,0.5,,,,,,,,,,,,,0,44,44,59,1,,,,,,,,,,,,,,,,,,,,,,,,,,,,
,,,,,SPR24_001,19,Male,2024-04-03_10h18.54.102,jersey_experiment_5_v0,2023.2.2,Win32,84.74576271,,,,,,,,,,,,,,,,882.8961,883.943,883.943,885.9665,return,0.5763,,75,,,,,,FBP-RB-18.png,0.4,1.2,38,0.25,,,,,,,,,,,,,0,45,45,37,1,,,,,,,,,,,,,,,,,,,,,,,,,,,,
,,,,,SPR24_001,19,Male,2024-04-03_10h18.54.102,jersey_experiment_5_v0,2023.2.2,Win32,84.74576271,,,,,,,,,,,,,,,,885.9669,887.0136,887.0137,888.5196,return,0.7362,,74.73958333,,,,,,FBP-RB-17.png,0.4,1.2,33,0.25,,,,,,,,,,,,,0,46,46,32,1,,,,,,,,,,,,,,,,,,,,,,,,,,,,
,,,,,SPR24_001,19,Male,2024-04-03_10h18.54.102,jersey_experiment_5_v0,2023.2.2,Win32,84.74576271,,,,,,,,,,,,,,,,888.5199,889.8138,889.8139,891.1785,return,0.6767,,74.73958333,,,,,,FBP-PT-19.png,0.4,1.2,58,0.5,,,,,,,,,,,,,0,47,47,57,1,,,,,,,,,,,,,,,,,,,,,,,,,,,,
,,,,,SPR24_001,19,Male,2024-04-03_10h18.54.102,jersey_experiment_5_v0,2023.2.2,Win32,84.74576271,,,,,,,,,,,,,,,,891.1788,892.4728,892.4728,894.0257,return,0.9358,,74.73958333,,,,,,FBP-PT-17.png,0.4,1.2,48,0.5,,,,,,,,,,,,,0,48,48,47,1,,,,,,,,,,,,,,,,,,,,,,,,,,,,
,,,,,SPR24_001,19,Male,2024-04-03_10h18.54.102,jersey_experiment_5_v0,2023.2.2,Win32,84.74576271,,,,,,,,,,,,,,,,894.0258,895.3199,895.3199,897.7435,return,0.5775,,93.09895833,,,,,,FBP-YG-17.png,0.45,1.2,20,0.5,,,,,,,,,,,,,0,49,49,19,1,,,,,,,,,,,,,,,,,,,,,,,,,,,,
,,,,,SPR24_001,19,Male,2024-04-03_10h18.54.102,jersey_experiment_5_v0,2023.2.2,Win32,84.74576271,,,,,,,,,,,,,,,,897.7436,898.7906,898.7906,900.6377,return,0.8501,,93.359375,,,,,,FBP-RB-19.png,0.45,1.2,45,0.25,,,,,,,,,,,,,0,50,50,44,1,,,,,,,,,,,,,,,,,,,,,,,,,,,,
,,,,,SPR24_001,19,Male,2024-04-03_10h18.54.102,jersey_experiment_5_v0,2023.2.2,Win32,84.74576271,,,,,,,,,,,,,,,,900.638,901.6848,901.6848,904.4967,return,1.7403,,75,,,,,,FBP-OG-81.png,0.4,1.2,8,0.25,,,,,,,,,,,,,0,51,51,7,1,,,,,,,,,,,,,,,,,,,,,,,,,,,,
,,,,,SPR24_001,19,Male,2024-04-03_10h18.54.102,jersey_experiment_5_v0,2023.2.2,Win32,84.74576271,,,,,,,,,,,,,,,,904.4969,905.5437,905.5437,911.697,return,2.8139,,73.69791667,,,,,,FBP-OG-71.png,0.43,1.2,4,0.25,,,,,,,,,,,,,0,52,52,3,1,,,,,,,,,,,,,,,,,,,,,,,,,,,,
,,,,,SPR24_001,19,Male,2024-04-03_10h18.54.102,jersey_experiment_5_v0,2023.2.2,Win32,84.74576271,,,,,,,,,,,,,,,,911.6972,912.991,912.991,916.2384,return,1.4743,,49.34895833,,,,,,FBP-PT-19.png,0.35,1.2,56,0.5,,,,,,,,,,,,,0,53,53,55,1,,,,,,,,,,,,,,,,,,,,,,,,,,,,
,,,,,SPR24_001,19,Male,2024-04-03_10h18.54.102,jersey_experiment_5_v0,2023.2.2,Win32,84.74576271,,,,,,,,,,,,,,,,916.2386,917.2854,917.2854,919.0971,return,0.7235,,49.86979167,,,,,,FBP-OG-91.png,0.4,1.2,13,0.25,,,,,,,,,,,,,0,54,54,12,1,,,,,,,,,,,,,,,,,,,,,,,,,,,,
,,,,,SPR24_001,19,Male,2024-04-03_10h18.54.102,jersey_experiment_5_v0,2023.2.2,Win32,84.74576271,,,,,,,,,,,,,,,,919.0974,920.1444,920.1444,923.3446,return,0.634,,69.140625,,,,,,FBP-OG-81.png,0.45,1.2,10,0.25,,,,,,,,,,,,,0,55,55,9,1,,,,,,,,,,,,,,,,,,,,,,,,,,,,
,,,,,SPR24_001,19,Male,2024-04-03_10h18.54.102,jersey_experiment_5_v0,2023.2.2,Win32,84.74576271,,,,,,,,,,,,,,,,923.3447,924.3915,924.3916,925.968,return,0.7061,,67.83854167,,,,,,FBP-RB-18.png,0.43,1.2,39,0.25,,,,,,,,,,,,,0,56,56,38,1,,,,,,,,,,,,,,,,,,,,,,,,,,,,
,,,,,SPR24_001,19,Male,2024-04-03_10h18.54.102,jersey_experiment_5_v0,2023.2.2,Win32,84.74576271,,,,,,,,,,,,,,,,925.9682,927.2622,927.2622,929.5211,return,0.5412,,44.27083333,,,,,,FBP-YG-18.png,0.35,1.2,21,0.5,,,,,,,,,,,,,0,57,57,20,1,,,,,,,,,,,,,,,,,,,,,,,,,,,,
,,,,,SPR24_001,19,Male,2024-04-03_10h18.54.102,jersey_experiment_5_v0,2023.2.2,Win32,84.74576271,,,,,,,,,,,,,,,,929.5213,930.8153,930.8153,933.6979,return,2.0708,,45.44270833,,,,,,FBP-YG-18.png,0.37,1.2,22,0.5,,,,,,,,,,,,,0,58,58,21,1,,,,,,,,,,,,,,,,,,,,,,,,,,,,
,,,,,SPR24_001,19,Male,2024-04-03_10h18.54.102,jersey_experiment_5_v0,2023.2.2,Win32,84.74576271,,,,,,,,,,,,,,,,933.6982,934.7448,934.7449,937.7685,return,0.6552,,91.92708333,,,,,,FBP-RB-18.png,0.45,1.2,40,0.25,,,,,,,,,,,,,0,59,59,39,1,,,,,,,,,,,,,,,,,,,,,,,,,,,,
,,,,,SPR24_001,19,Male,2024-04-03_10h18.54.102,jersey_experiment_5_v0,2023.2.2,Win32,84.74576271,,,,,,,,,,,,,,,,937.7704,939.0627,939.0627,941.4393,return,0.5304,,74.609375,,,,,,FBP-PT-71.png,0.4,1.2,48,0.5,,,,,,,,,,,,,,,,,,0,0,0,47,1,,,,,,,,,,,,,,,,,,,,,,,
,,,,,SPR24_001,19,Male,2024-04-03_10h18.54.102,jersey_experiment_5_v0,2023.2.2,Win32,84.74576271,,,,,,,,,,,,,,,,941.4398,942.4863,942.4863,944.6982,return,0.5475,,99.34895833,,,,,,FBP-OG-19.png,0.45,1.2,15,0.25,,,,,,,,,,,,,,,,,,0,1,1,14,1,,,,,,,,,,,,,,,,,,,,,,,
,,,,,SPR24_001,19,Male,2024-04-03_10h18.54.102,jersey_experiment_5_v0,2023.2.2,Win32,84.74576271,,,,,,,,,,,,,,,,944.6984,945.9923,945.9924,947.9689,return,0.5164,,38.15104167,,,,,,FBP-YG-91.png,0.35,1.2,26,0.5,,,,,,,,,,,,,,,,,,0,2,2,25,1,,,,,,,,,,,,,,,,,,,,,,,
,,,,,SPR24_001,19,Male,2024-04-03_10h18.54.102,jersey_experiment_5_v0,2023.2.2,Win32,84.74576271,,,,,,,,,,,,,,,,947.9691,949.016,949.0161,950.816,return,0.6004,,38.15104167,,,,,,FBP-RB-81.png,0.37,1.2,37,0.25,,,,,,,,,,,,,,,,,,0,3,3,36,1,,,,,,,,,,,,,,,,,,,,,,,
,,,,,SPR24_001,19,Male,2024-04-03_10h18.54.102,jersey_experiment_5_v0,2023.2.2,Win32,84.74576271,,,,,,,,,,,,,,,,950.8163,952.1101,952.1101,953.6396,return,0.644,,49.47916667,,,,,,FBP-YG-91.png,0.37,1.2,27,0.5,,,,,,,,,,,,,,,,,,0,4,4,26,1,,,,,,,,,,,,,,,,,,,,,,,
,,,,,SPR24_001,19,Male,2024-04-03_10h18.54.102,jersey_experiment_5_v0,2023.2.2,Win32,84.74576271,,,,,,,,,,,,,,,,953.6399,954.9339,954.9339,956.5457,return,0.5884,,75,,,,,,FBP-YG-71.png,0.43,1.2,19,0.5,,,,,,,,,,,,,,,,,,0,5,5,18,1,,,,,,,,,,,,,,,,,,,,,,,
,,,,,SPR24_001,19,Male,2024-04-03_10h18.54.102,jersey_experiment_5_v0,2023.2.2,Win32,84.74576271,,,,,,,,,,,,,,,,956.5459,957.8399,957.8399,959.3105,return,0.5763,,49.86979167,,,,,,FBP-PT-91.png,0.35,1.2,56,0.5,,,,,,,,,,,,,,,,,,0,6,6,55,1,,,,,,,,,,,,,,,,,,,,,,,
,,,,,SPR24_001,19,Male,2024-04-03_10h18.54.102,jersey_experiment_5_v0,2023.2.2,Win32,84.74576271,,,,,,,,,,,,,,,,959.3108,960.3576,960.3576,962.2871,return,0.5567,,75,,,,,,FBP-OG-19.png,0.43,1.2,14,0.25,,,,,,,,,,,,,,,,,,0,7,7,13,1,,,,,,,,,,,,,,,,,,,,,,,
,,,,,SPR24_001,19,Male,2024-04-03_10h18.54.102,jersey_experiment_5_v0,2023.2.2,Win32,84.74576271,,,,,,,,,,,,,,,,962.2874,963.5812,963.5812,965.3225,return,0.5689,,84.765625,,,,,,FBP-YG-91.png,0.43,1.2,29,0.5,,,,,,,,,,,,,,,,,,0,8,8,28,1,,,,,,,,,,,,,,,,,,,,,,,
,,,,,SPR24_001,19,Male,2024-04-03_10h18.54.102,jersey_experiment_5_v0,2023.2.2,Win32,84.74576271,,,,,,,,,,,,,,,,965.3228,966.3695,966.3695,967.7107,return,0.6368,,84.50520833,,,,,,FBP-OG-17.png,0.4,1.2,3,0.25,,,,,,,,,,,,,,,,,,0,9,9,2,1,,,,,,,,,,,,,,,,,,,,,,,
,,,,,SPR24_001,19,Male,2024-04-03_10h18.54.102,jersey_experiment_5_v0,2023.2.2,Win32,84.74576271,,,,,,,,,,,,,,,,967.711,969.0049,969.0049,970.7226,return,0.5768,,50.13020833,,,,,,FBP-PT-71.png,0.35,1.2,46,0.5,,,,,,,,,,,,,,,,,,0,10,10,45,1,,,,,,,,,,,,,,,,,,,,,,,
,,,,,SPR24_001,19,Male,2024-04-03_10h18.54.102,jersey_experiment_5_v0,2023.2.2,Win32,84.74576271,,,,,,,,,,,,,,,,970.7229,971.7697,971.7698,973.8876,return,1.0263,,49.86979167,,,,,,FBP-RB-91.png,0.35,1.2,41,0.25,,,,,,,,,,,,,,,,,,0,11,11,40,1,,,,,,,,,,,,,,,,,,,,,,,
,,,,,SPR24_001,19,Male,2024-04-03_10h18.54.102,jersey_experiment_5_v0,2023.2.2,Win32,84.74576271,,,,,,,,,,,,,,,,973.8878,975.1816,975.1817,977.0406,return,0.5646,,63.41145833,,,,,,FBP-PT-71.png,0.37,1.2,47,0.5,,,,,,,,,,,,,,,,,,0,12,12,46,1,,,,,,,,,,,,,,,,,,,,,,,
,,,,,SPR24_001,19,Male,2024-04-03_10h18.54.102,jersey_experiment_5_v0,2023.2.2,Win32,84.74576271,,,,,,,,,,,,,,,,977.0409,978.3347,978.3348,980.1231,return,0.4976,,94.27083333,,,,,,FBP-PT-71.png,0.45,1.2,50,0.5,,,,,,,,,,,,,,,,,,0,13,13,49,1,,,,,,,,,,,,,,,,,,,,,,,
,,,,,SPR24_001,19,Male,2024-04-03_10h18.54.102,jersey_experiment_5_v0,2023.2.2,Win32,84.74576271,,,,,,,,,,,,,,,,980.1233,981.4172,981.4173,982.5583,return,0.5667,,94.27083333,,,,,,FBP-YG-91.png,0.45,1.2,30,0.5,,,,,,,,,,,,,,,,,,0,14,14,29,1,,,,,,,,,,,,,,,,,,,,,,,
,,,,,SPR24_001,19,Male,2024-04-03_10h18.54.102,jersey_experiment_5_v0,2023.2.2,Win32,84.74576271,,,,,,,,,,,,,,,,982.5586,983.6056,983.6056,985.2174,return,0.5045,,99.34895833,,,,,,FBP-OG-17.png,0.45,1.2,5,0.25,,,,,,,,,,,,,,,,,,0,15,15,4,1,,,,,,,,,,,,,,,,,,,,,,,
,,,,,SPR24_001,19,Male,2024-04-03_10h18.54.102,jersey_experiment_5_v0,2023.2.2,Win32,84.74576271,,,,,,,,,,,,,,,,985.2176,986.5115,986.5115,989.747,return,0.955,,49.609375,,,,,,FBP-YG-71.png,0.37,1.2,17,0.5,,,,,,,,,,,,,,,,,,0,16,16,16,1,,,,,,,,,,,,,,,,,,,,,,,
,,,,,SPR24_001,19,Male,2024-04-03_10h18.54.102,jersey_experiment_5_v0,2023.2.2,Win32,84.74576271,,,,,,,,,,,,,,,,989.7473,990.794,990.7941,994.9236,return,2.1581,,91.92708333,,,,,,FBP-RB-71.png,0.45,1.2,35,0.25,,,,,,,,,,,,,,,,,,0,17,17,34,1,,,,,,,,,,,,,,,,,,,,,,,
,,,,,SPR24_001,19,Male,2024-04-03_10h18.54.102,jersey_experiment_5_v0,2023.2.2,Win32,84.74576271,,,,,,,,,,,,,,,,994.924,996.2178,996.2178,998.5118,return,1.0908,,49.609375,,,,,,FBP-PT-81.png,0.37,1.2,52,0.5,,,,,,,,,,,,,,,,,,0,18,18,51,1,,,,,,,,,,,,,,,,,,,,,,,
,,,,,SPR24_001,19,Male,2024-04-03_10h18.54.102,jersey_experiment_5_v0,2023.2.2,Win32,84.74576271,,,,,,,,,,,,,,,,998.5119,999.559,999.5591,1000.9239,return,0.6141,,49.609375,,,,,,FBP-OG-18.png,0.4,1.2,8,0.25,,,,,,,,,,,,,,,,,,0,19,19,7,1,,,,,,,,,,,,,,,,,,,,,,,
,,,,,SPR24_001,19,Male,2024-04-03_10h18.54.102,jersey_experiment_5_v0,2023.2.2,Win32,84.74576271,,,,,,,,,,,,,,,,1000.9241,1002.218,1002.2181,1004.124,return,0.6047,,74.34895833,,,,,,FBP-YG-81.png,0.43,1.2,24,0.5,,,,,,,,,,,,,,,,,,0,20,20,23,1,,,,,,,,,,,,,,,,,,,,,,,
,,,,,SPR24_001,19,Male,2024-04-03_10h18.54.102,jersey_experiment_5_v0,2023.2.2,Win32,84.74576271,,,,,,,,,,,,,,,,1004.1243,1005.171,1005.171,1008.5122,return,1.2485,,26.953125,,,,,,FBP-OG-18.png,0.37,1.2,7,0.25,,,,,,,,,,,,,,,,,,0,21,21,6,1,,,,,,,,,,,,,,,,,,,,,,,
,,,,,SPR24_001,19,Male,2024-04-03_10h18.54.102,jersey_experiment_5_v0,2023.2.2,Win32,84.74576271,,,,,,,,,,,,,,,,1008.5124,1009.5595,1009.5595,1011.2182,return,0.5278,,49.73958333,,,,,,FBP-OG-19.png,0.37,1.2,12,0.25,,,,,,,,,,,,,,,,,,0,22,22,11,1,,,,,,,,,,,,,,,,,,,,,,,
,,,,,SPR24_001,19,Male,2024-04-03_10h18.54.102,jersey_experiment_5_v0,2023.2.2,Win32,84.74576271,,,,,,,,,,,,,,,,1011.2183,1012.2654,1012.2655,1015.8184,return,0.5923,,61.06770833,,,,,,FBP-OG-17.png,0.37,1.2,2,0.25,,,,,,,,,,,,,,,,,,0,23,23,1,1,,,,,,,,,,,,,,,,,,,,,,,
,,,,,SPR24_001,19,Male,2024-04-03_10h18.54.102,jersey_experiment_5_v0,2023.2.2,Win32,84.74576271,,,,,,,,,,,,,,,,1015.8187,1017.1127,1017.1127,1019.8422,return,0.5178,,76.5625,,,,,,FBP-YG-81.png,0.45,1.2,25,0.5,,,,,,,,,,,,,,,,,,0,24,24,24,1,,,,,,,,,,,,,,,,,,,,,,,
,,,,,SPR24_001,19,Male,2024-04-03_10h18.54.102,jersey_experiment_5_v0,2023.2.2,Win32,84.74576271,,,,,,,,,,,,,,,,1019.8426,1020.8892,1020.8893,1022.5246,return,0.7217,,75.390625,,,,,,FBP-RB-91.png,0.43,1.2,44,0.25,,,,,,,,,,,,,,,,,,0,25,25,43,1,,,,,,,,,,,,,,,,,,,,,,,
,,,,,SPR24_001,19,Male,2024-04-03_10h18.54.102,jersey_experiment_5_v0,2023.2.2,Win32,84.74576271,,,,,,,,,,,,,,,,1022.5249,1023.819,1023.819,1027.9954,return,0.5075,,83.33333333,,,,,,FBP-PT-91.png,0.4,1.2,58,0.5,,,,,,,,,,,,,,,,,,0,26,26,57,1,,,,,,,,,,,,,,,,,,,,,,,
,,,,,SPR24_001,19,Male,2024-04-03_10h18.54.102,jersey_experiment_5_v0,2023.2.2,Win32,84.74576271,,,,,,,,,,,,,,,,1027.9957,1029.0426,1029.0426,1030.7955,return,0.8142,,83.33333333,,,,,,FBP-RB-81.png,0.4,1.2,38,0.25,,,,,,,,,,,,,,,,,,0,27,27,37,1,,,,,,,,,,,,,,,,,,,,,,,
,,,,,SPR24_001,19,Male,2024-04-03_10h18.54.102,jersey_experiment_5_v0,2023.2.2,Win32,84.74576271,,,,,,,,,,,,,,,,1030.7957,1032.0896,1032.0896,1033.7368,return,0.6046,,83.59375,,,,,,FBP-YG-91.png,0.4,1.2,28,0.5,,,,,,,,,,,,,,,,,,0,28,28,27,1,,,,,,,,,,,,,,,,,,,,,,,
,,,,,SPR24_001,19,Male,2024-04-03_10h18.54.102,jersey_experiment_5_v0,2023.2.2,Win32,84.74576271,,,,,,,,,,,,,,,,1033.7371,1035.031,1035.031,1036.8429,return,0.6511,,93.359375,,,,,,FBP-PT-71.png,0.43,1.2,49,0.5,,,,,,,,,,,,,,,,,,0,29,29,48,1,,,,,,,,,,,,,,,,,,,,,,,
,,,,,SPR24_001,19,Male,2024-04-03_10h18.54.102,jersey_experiment_5_v0,2023.2.2,Win32,84.74576271,,,,,,,,,,,,,,,,1036.8431,1038.1369,1038.1369,1041.7254,return,2.307,,45.05208333,,,,,,FBP-YG-71.png,0.35,1.2,16,0.5,,,,,,,,,,,,,,,,,,0,30,30,15,1,,,,,,,,,,,,,,,,,,,,,,,
,,,,,SPR24_001,19,Male,2024-04-03_10h18.54.102,jersey_experiment_5_v0,2023.2.2,Win32,84.74576271,,,,,,,,,,,,,,,,1041.7256,1043.0196,1043.0196,1045.8902,return,0.5182,,92.44791667,,,,,,FBP-PT-91.png,0.45,1.2,60,0.5,,,,,,,,,,,,,,,,,,0,31,31,59,1,,,,,,,,,,,,,,,,,,,,,,,
,,,,,SPR24_001,19,Male,2024-04-03_10h18.54.102,jersey_experiment_5_v0,2023.2.2,Win32,84.74576271,,,,,,,,,,,,,,,,1045.8905,1046.9372,1046.9372,1050.6316,return,0.5354,,74.86979167,,,,,,FBP-OG-18.png,0.45,1.2,10,0.25,,,,,,,,,,,,,,,,,,0,32,32,9,1,,,,,,,,,,,,,,,,,,,,,,,
,,,,,SPR24_001,19,Male,2024-04-03_10h18.54.102,jersey_experiment_5_v0,2023.2.2,Win32,84.74576271,,,,,,,,,,,,,,,,1050.6318,1051.6787,1051.6787,1055.5492,return,1.8622,,75.26041667,,,,,,FBP-OG-19.png,0.4,1.2,13,0.25,,,,,,,,,,,,,,,,,,0,33,33,12,1,,,,,,,,,,,,,,,,,,,,,,,
,,,,,SPR24_001,19,Male,2024-04-03_10h18.54.102,jersey_experiment_5_v0,2023.2.2,Win32,84.74576271,,,,,,,,,,,,,,,,1055.5495,1056.5964,1056.5965,1061.2084,return,1.3,,23.30729167,,,,,,FBP-RB-81.png,0.35,1.2,36,0.25,,,,,,,,,,,,,,,,,,0,34,34,35,1,,,,,,,,,,,,,,,,,,,,,,,
,,,,,SPR24_001,19,Male,2024-04-03_10h18.54.102,jersey_experiment_5_v0,2023.2.2,Win32,84.74576271,,,,,,,,,,,,,,,,1061.2087,1062.5025,1062.5025,1064.4555,return,0.938,,49.609375,,,,,,FBP-PT-81.png,0.4,1.2,53,0.5,,,,,,,,,,,,,,,,,,0,35,35,52,1,,,,,,,,,,,,,,,,,,,,,,,
,,,,,SPR24_001,19,Male,2024-04-03_10h18.54.102,jersey_experiment_5_v0,2023.2.2,Win32,84.74576271,,,,,,,,,,,,,,,,1064.4558,1065.7497,1065.7497,1067.6087,return,0.5709,,35.41666667,,,,,,FBP-PT-81.png,0.35,1.2,51,0.5,,,,,,,,,,,,,,,,,,0,36,36,50,1,,,,,,,,,,,,,,,,,,,,,,,
,,,,,SPR24_001,19,Male,2024-04-03_10h18.54.102,jersey_experiment_5_v0,2023.2.2,Win32,84.74576271,,,,,,,,,,,,,,,,1067.6089,1068.6556,1068.6556,1071.9618,return,0.5457,,68.61979167,,,,,,FBP-RB-81.png,0.43,1.2,39,0.25,,,,,,,,,,,,,,,,,,0,37,37,38,1,,,,,,,,,,,,,,,,,,,,,,,
,,,,,SPR24_001,19,Male,2024-04-03_10h18.54.102,jersey_experiment_5_v0,2023.2.2,Win32,84.74576271,,,,,,,,,,,,,,,,1071.9621,1073.0089,1073.0089,1076.0326,return,1.0117,,63.80208333,,,,,,FBP-RB-91.png,0.37,1.2,42,0.25,,,,,,,,,,,,,,,,,,0,38,38,41,1,,,,,,,,,,,,,,,,,,,,,,,
,,,,,SPR24_001,19,Male,2024-04-03_10h18.54.102,jersey_experiment_5_v0,2023.2.2,Win32,84.74576271,,,,,,,,,,,,,,,,1076.0329,1077.0795,1077.0796,1078.9268,return,0.7536,,85.15625,,,,,,FBP-RB-81.png,0.45,1.2,40,0.25,,,,,,,,,,,,,,,,,,0,39,39,39,1,,,,,,,,,,,,,,,,,,,,,,,
,,,,,SPR24_001,19,Male,2024-04-03_10h18.54.102,jersey_experiment_5_v0,2023.2.2,Win32,84.74576271,,,,,,,,,,,,,,,,1078.9271,1079.9739,1079.974,1082.0916,return,0.6875,,33.72395833,,,,,,FBP-OG-19.png,0.35,1.2,11,0.25,,,,,,,,,,,,,,,,,,0,40,40,10,1,,,,,,,,,,,,,,,,,,,,,,,
,,,,,SPR24_001,19,Male,2024-04-03_10h18.54.102,jersey_experiment_5_v0,2023.2.2,Win32,84.74576271,,,,,,,,,,,,,,,,1082.0922,1083.1386,1083.1386,1085.327,return,0.6488,,20.703125,,,,,,FBP-RB-71.png,0.35,1.2,31,0.25,,,,,,,,,,,,,,,,,,0,41,41,30,1,,,,,,,,,,,,,,,,,,,,,,,
,,,,,SPR24_001,19,Male,2024-04-03_10h18.54.102,jersey_experiment_5_v0,2023.2.2,Win32,84.74576271,,,,,,,,,,,,,,,,1085.3271,1086.374,1086.3741,1088.8095,return,0.5924,,50,,,,,,FBP-RB-71.png,0.4,1.2,33,0.25,,,,,,,,,,,,,,,,,,0,42,42,32,1,,,,,,,,,,,,,,,,,,,,,,,
,,,,,SPR24_001,19,Male,2024-04-03_10h18.54.102,jersey_experiment_5_v0,2023.2.2,Win32,84.74576271,,,,,,,,,,,,,,,,1088.8097,1089.8565,1089.8566,1091.9861,return,0.6953,,74.47916667,,,,,,FBP-RB-91.png,0.4,1.2,43,0.25,,,,,,,,,,,,,,,,,,0,43,43,42,1,,,,,,,,,,,,,,,,,,,,,,,
,,,,,SPR24_001,19,Male,2024-04-03_10h18.54.102,jersey_experiment_5_v0,2023.2.2,Win32,84.74576271,,,,,,,,,,,,,,,,1091.9863,1093.2802,1093.2802,1094.4097,return,0.5468,,74.86979167,,,,,,FBP-YG-71.png,0.4,1.2,18,0.5,,,,,,,,,,,,,,,,,,0,44,44,17,1,,,,,,,,,,,,,,,,,,,,,,,
,,,,,SPR24_001,19,Male,2024-04-03_10h18.54.102,jersey_experiment_5_v0,2023.2.2,Win32,84.74576271,,,,,,,,,,,,,,,,1094.4099,1095.4568,1095.4568,1098.7864,return,0.5179,,19.01041667,,,,,,FBP-OG-17.png,0.35,1.2,1,0.25,,,,,,,,,,,,,,,,,,0,45,45,0,1,,,,,,,,,,,,,,,,,,,,,,,
,,,,,SPR24_001,19,Male,2024-04-03_10h18.54.102,jersey_experiment_5_v0,2023.2.2,Win32,84.74576271,,,,,,,,,,,,,,,,1098.7866,1099.8334,1099.8334,1103.5158,return,0.5683,,68.359375,,,,,,FBP-OG-17.png,0.43,1.2,4,0.25,,,,,,,,,,,,,,,,,,0,46,46,3,1,,,,,,,,,,,,,,,,,,,,,,,
,,,,,SPR24_001,19,Male,2024-04-03_10h18.54.102,jersey_experiment_5_v0,2023.2.2,Win32,84.74576271,,,,,,,,,,,,,,,,1103.5161,1104.5629,1104.563,1108.21,return,2.2102,,82.421875,,,,,,FBP-OG-18.png,0.43,1.2,9,0.25,,,,,,,,,,,,,,,,,,0,47,47,8,1,,,,,,,,,,,,,,,,,,,,,,,
,,,,,SPR24_001,19,Male,2024-04-03_10h18.54.102,jersey_experiment_5_v0,2023.2.2,Win32,84.74576271,,,,,,,,,,,,,,,,1108.2103,1109.5043,1109.5043,1111.8809,return,1.6411,,93.88020833,,,,,,FBP-PT-81.png,0.43,1.2,54,0.5,,,,,,,,,,,,,,,,,,0,48,48,53,1,,,,,,,,,,,,,,,,,,,,,,,
,,,,,SPR24_001,19,Male,2024-04-03_10h18.54.102,jersey_experiment_5_v0,2023.2.2,Win32,84.74576271,,,,,,,,,,,,,,,,1111.8811,1113.175,1113.175,1115.3281,return,0.5893,,49.86979167,,,,,,FBP-PT-91.png,0.37,1.2,57,0.5,,,,,,,,,,,,,,,,,,0,49,49,56,1,,,,,,,,,,,,,,,,,,,,,,,
,,,,,SPR24_001,19,Male,2024-04-03_10h18.54.102,jersey_experiment_5_v0,2023.2.2,Win32,84.74576271,,,,,,,,,,,,,,,,1115.3283,1116.3751,1116.3751,1119.5518,return,0.5168,,97.91666667,,,,,,FBP-RB-91.png,0.45,1.2,45,0.25,,,,,,,,,,,,,,,,,,0,50,50,44,1,,,,,,,,,,,,,,,,,,,,,,,
,,,,,SPR24_001,19,Male,2024-04-03_10h18.54.102,jersey_experiment_5_v0,2023.2.2,Win32,84.74576271,,,,,,,,,,,,,,,,1119.5521,1120.8459,1120.8459,1123.0107,return,1.1764,,49.73958333,,,,,,FBP-YG-81.png,0.37,1.2,22,0.5,,,,,,,,,,,,,,,,,,0,51,51,21,1,,,,,,,,,,,,,,,,,,,,,,,
,,,,,SPR24_001,19,Male,2024-04-03_10h18.54.102,jersey_experiment_5_v0,2023.2.2,Win32,84.74576271,,,,,,,,,,,,,,,,1123.011,1124.0578,1124.0579,1130.4934,return,2.2601,,29.6875,,,,,,FBP-OG-18.png,0.35,1.2,6,0.25,,,,,,,,,,,,,,,,,,0,52,52,5,1,,,,,,,,,,,,,,,,,,,,,,,
,,,,,SPR24_001,19,Male,2024-04-03_10h18.54.102,jersey_experiment_5_v0,2023.2.2,Win32,84.74576271,,,,,,,,,,,,,,,,1130.4937,1131.7875,1131.7875,1137.8583,return,2.4113,,74.21875,,,,,,FBP-PT-91.png,0.43,1.2,59,0.5,,,,,,,,,,,,,,,,,,0,53,53,58,1,,,,,,,,,,,,,,,,,,,,,,,
,,,,,SPR24_001,19,Male,2024-04-03_10h18.54.102,jersey_experiment_5_v0,2023.2.2,Win32,84.74576271,,,,,,,,,,,,,,,,1137.8584,1138.9055,1138.9056,1141.929,return,0.5469,,33.203125,,,,,,FBP-RB-71.png,0.37,1.2,32,0.25,,,,,,,,,,,,,,,,,,0,54,54,31,1,,,,,,,,,,,,,,,,,,,,,,,
,,,,,SPR24_001,19,Male,2024-04-03_10h18.54.102,jersey_experiment_5_v0,2023.2.2,Win32,84.74576271,,,,,,,,,,,,,,,,1141.9293,1142.9762,1142.9762,1145.2351,return,0.6735,,74.609375,,,,,,FBP-RB-71.png,0.43,1.2,34,0.25,,,,,,,,,,,,,,,,,,0,55,55,33,1,,,,,,,,,,,,,,,,,,,,,,,
,,,,,SPR24_001,19,Male,2024-04-03_10h18.54.102,jersey_experiment_5_v0,2023.2.2,Win32,84.74576271,,,,,,,,,,,,,,,,1145.2354,1146.5292,1146.5293,1148.1057,return,0.5209,,88.93229167,,,,,,FBP-YG-71.png,0.45,1.2,20,0.5,,,,,,,,,,,,,,,,,,0,56,56,19,1,,,,,,,,,,,,,,,,,,,,,,,
,,,,,SPR24_001,19,Male,2024-04-03_10h18.54.102,jersey_experiment_5_v0,2023.2.2,Win32,84.74576271,,,,,,,,,,,,,,,,1148.1059,1149.4,1149.4,1151.247,return,0.5528,,96.09375,,,,,,FBP-PT-81.png,0.45,1.2,55,0.5,,,,,,,,,,,,,,,,,,0,57,57,54,1,,,,,,,,,,,,,,,,,,,,,,,
,,,,,SPR24_001,19,Male,2024-04-03_10h18.54.102,jersey_experiment_5_v0,2023.2.2,Win32,84.74576271,,,,,,,,,,,,,,,,1151.2472,1152.5412,1152.5412,1154.9884,return,0.5675,,37.76041667,,,,,,FBP-YG-81.png,0.35,1.2,21,0.5,,,,,,,,,,,,,,,,,,0,58,58,20,1,,,,,,,,,,,,,,,,,,,,,,,
,,,,,SPR24_001,19,Male,2024-04-03_10h18.54.102,jersey_experiment_5_v0,2023.2.2,Win32,84.74576271,,,,,,,,,,,,,,,,1154.9886,1156.2825,1156.2825,1157.9179,return,0.5789,,50,,,,,,FBP-YG-81.png,0.4,1.2,23,0.5,,,,,,,,,,,,,,,,,,0,59,59,22,1,,,,,,,,,,,,,,,,,,,,,,,
,,,,,SPR24_001,19,Male,2024-04-03_10h18.54.102,jersey_experiment_5_v0,2023.2.2,Win32,84.74576271,,,,,,,,,,,,,,,,,,,,,,,,,,,,,,,,,,,,,,,,,,,,,,,,,,,,,,,,1157.9185,1163.4596,return,5.5284,,,,,,,,,,,,,,,,,,,
,,,,,SPR24_001,19,Male,2024-04-03_10h18.54.102,jersey_experiment_5_v0,2023.2.2,Win32,84.74576271,,,,,,,,,,,,,,,,,,,,,,,,,,,,,,,,,,,,,,,,,,,,,,,,,,,,,,,,,,,,,1163.4597,1168.1538,1,3.5835,return,1.0995,,,,,,,,,,,,
,,,,,SPR24_001,19,Male,2024-04-03_10h18.54.102,jersey_experiment_5_v0,2023.2.2,Win32,84.74576271,,,,,,,,,,,,,,,,,,,,,,,,,,,,,,,,,,,,,,,,,,,,,,,,,,,,,,,,,,,,,,,,,,,,1168.1539,1215.1252,Effect of color combinations and image size on perception of weight,right,41.6615,,,,,,
,,,,,SPR24_001,19,Male,2024-04-03_10h18.54.102,jersey_experiment_5_v0,2023.2.2,Win32,84.74576271,,,,,,,,,,,,,,,,,,,,,,,,,,,,,,,,,,,,,,,,,,,,,,,,,,,,,,,,,,,,,,,,,,,,,,,,,,1215.1253,1216.6496,return,1.5186,