requirements.started,requirements.stopped,key_resp_3.keys,key_resp_3.rt,key_resp_3.duration,Subject ID,Age,Gender,date,expName,psychopyVersion,OS,frameRate,instructions1.started,instructions1.stopped,key_resp.keys,key_resp.rt,key_resp.duration,example.started,example.stopped,enter_2.keys,enter_2.rt,enter_2.duration,instructions2.started,instructions2.stopped,enter_3.keys,enter_3.rt,enter_3.duration,image.started,image.stopped,slider_2.started,slider_2.stopped,next.keys,next.rt,next.duration,slider.response,trial_block_1.thisRepN,trial_block_1.thisTrialN,trial_block_1.thisN,trial_block_1.thisIndex,trial_block_1.ran,Path,Width,Height,Index,Duration,trial_block_2.thisRepN,trial_block_2.thisTrialN,trial_block_2.thisN,trial_block_2.thisIndex,trial_block_2.ran,rest_break.started,rest_break.stopped,end_break.started,end_break.stopped,key_resp_5.keys,key_resp_5.rt,key_resp_5.duration,trial_block_3.thisRepN,trial_block_3.thisTrialN,trial_block_3.thisN,trial_block_3.thisIndex,trial_block_3.ran,trial_block_4.thisRepN,trial_block_4.thisTrialN,trial_block_4.thisN,trial_block_4.thisIndex,trial_block_4.ran,questions_intro.started,questions_intro.stopped,enter_12.keys,enter_12.rt,enter_12.duration,question2.started,question2.stopped,question_doingbest.response,question_doingbest.rt,enter_15.keys,enter_15.rt,enter_15.duration,pattern.started,pattern.stopped,pattern_2.text,enter_17.keys,enter_17.rt,enter_17.duration,thankyou.started,thankyou.stopped,enter_14.keys,enter_14.rt,enter_14.duration
0.0001,13.5533,return,13.5443,,SPR24_076,20,Female,2024-04-22_17h04.30.546,jersey_experiment_5_v0,2023.2.2,Win32,84.74576271,,,,,,,,,,,,,,,,,,,,,,,,,,,,,,,,,,,,,,,,,,,,,,,,,,,,,,,,,,,,,,,,,,,,,,,,,,,,,,
,,,,,SPR24_076,20,Female,2024-04-22_17h04.30.546,jersey_experiment_5_v0,2023.2.2,Win32,84.74576271,13.5535,58.3667,return,44.8015,,,,,,,,,,,,,,,,,,,,,,,,,,,,,,,,,,,,,,,,,,,,,,,,,,,,,,,,,,,,,,,,,,,,,,,,,,
,,,,,SPR24_076,20,Female,2024-04-22_17h04.30.546,jersey_experiment_5_v0,2023.2.2,Win32,84.74576271,,,,,,58.3668,62.8491,return,4.4465,,,,,,,,,,,,,,,,,,,,,,,,,,,,,,,,,,,,,,,,,,,,,,,,,,,,,,,,,,,,,,,,,,,,,
,,,,,SPR24_076,20,Female,2024-04-22_17h04.30.546,jersey_experiment_5_v0,2023.2.2,Win32,84.74576271,,,,,,,,,,,62.8492,82.1204,return,19.2658,,,,,,,,,,,,,,,,,,,,,,,,,,,,,,,,,,,,,,,,,,,,,,,,,,,,,,,,,,,,,,,,
,,,,,SPR24_076,20,Female,2024-04-22_17h04.30.546,jersey_experiment_5_v0,2023.2.2,Win32,84.74576271,,,,,,,,,,,,,,,,82.1276,83.4261,83.4263,88.1441,return,1.9534,,75.13020833,0,0,0,13,1,FBP-OG-91.png,0.43,1.2,14,0.5,,,,,,,,,,,,,,,,,,,,,,,,,,,,,,,,,,,,,,,,,,,,,
,,,,,SPR24_076,20,Female,2024-04-22_17h04.30.546,jersey_experiment_5_v0,2023.2.2,Win32,84.74576271,,,,,,,,,,,,,,,,88.1444,89.1911,89.1911,91.7205,return,1.0196,,75.13020833,0,1,1,57,1,FBP-PT-19.png,0.4,1.2,58,0.25,,,,,,,,,,,,,,,,,,,,,,,,,,,,,,,,,,,,,,,,,,,,,
,,,,,SPR24_076,20,Female,2024-04-22_17h04.30.546,jersey_experiment_5_v0,2023.2.2,Win32,84.74576271,,,,,,,,,,,,,,,,91.7208,92.7676,92.7677,95.0737,return,0.6966,,25.390625,0,2,2,20,1,FBP-YG-18.png,0.35,1.2,21,0.25,,,,,,,,,,,,,,,,,,,,,,,,,,,,,,,,,,,,,,,,,,,,,
,,,,,SPR24_076,20,Female,2024-04-22_17h04.30.546,jersey_experiment_5_v0,2023.2.2,Win32,84.74576271,,,,,,,,,,,,,,,,95.0739,96.1206,96.1206,101.6267,return,3.6763,,77.34375,0,3,3,53,1,FBP-PT-18.png,0.43,1.2,54,0.25,,,,,,,,,,,,,,,,,,,,,,,,,,,,,,,,,,,,,,,,,,,,,
,,,,,SPR24_076,20,Female,2024-04-22_17h04.30.546,jersey_experiment_5_v0,2023.2.2,Win32,84.74576271,,,,,,,,,,,,,,,,101.627,102.6738,102.6738,105.7445,return,1.106,,98.56770833,0,4,4,48,1,FBP-PT-17.png,0.43,1.2,49,0.25,,,,,,,,,,,,,,,,,,,,,,,,,,,,,,,,,,,,,,,,,,,,,
,,,,,SPR24_076,20,Female,2024-04-22_17h04.30.546,jersey_experiment_5_v0,2023.2.2,Win32,84.74576271,,,,,,,,,,,,,,,,105.7447,107.0386,107.0386,109.5213,return,0.9171,,99.47916667,0,5,5,44,1,FBP-RB-19.png,0.45,1.2,45,0.5,,,,,,,,,,,,,,,,,,,,,,,,,,,,,,,,,,,,,,,,,,,,,
,,,,,SPR24_076,20,Female,2024-04-22_17h04.30.546,jersey_experiment_5_v0,2023.2.2,Win32,84.74576271,,,,,,,,,,,,,,,,109.5215,110.5682,110.5682,113.3682,return,0.9363,,69.66145833,0,6,6,27,1,FBP-YG-19.png,0.4,1.2,28,0.25,,,,,,,,,,,,,,,,,,,,,,,,,,,,,,,,,,,,,,,,,,,,,
,,,,,SPR24_076,20,Female,2024-04-22_17h04.30.546,jersey_experiment_5_v0,2023.2.2,Win32,84.74576271,,,,,,,,,,,,,,,,113.3684,114.6625,114.6625,116.9567,return,0.7544,,91.53645833,0,7,7,43,1,FBP-RB-19.png,0.43,1.2,44,0.5,,,,,,,,,,,,,,,,,,,,,,,,,,,,,,,,,,,,,,,,,,,,,
,,,,,SPR24_076,20,Female,2024-04-22_17h04.30.546,jersey_experiment_5_v0,2023.2.2,Win32,84.74576271,,,,,,,,,,,,,,,,116.9569,118.2508,118.2509,120.651,return,0.77,,13.28125,0,8,8,0,1,FBP-OG-71.png,0.35,1.2,1,0.5,,,,,,,,,,,,,,,,,,,,,,,,,,,,,,,,,,,,,,,,,,,,,
,,,,,SPR24_076,20,Female,2024-04-22_17h04.30.546,jersey_experiment_5_v0,2023.2.2,Win32,84.74576271,,,,,,,,,,,,,,,,120.6512,121.9451,121.9451,123.6158,return,0.6122,,11.45833333,0,9,9,35,1,FBP-RB-18.png,0.35,1.2,36,0.5,,,,,,,,,,,,,,,,,,,,,,,,,,,,,,,,,,,,,,,,,,,,,
,,,,,SPR24_076,20,Female,2024-04-22_17h04.30.546,jersey_experiment_5_v0,2023.2.2,Win32,84.74576271,,,,,,,,,,,,,,,,123.6162,124.6628,124.6628,127.7454,return,0.599,,24.609375,0,10,10,26,1,FBP-YG-19.png,0.37,1.2,27,0.25,,,,,,,,,,,,,,,,,,,,,,,,,,,,,,,,,,,,,,,,,,,,,
,,,,,SPR24_076,20,Female,2024-04-22_17h04.30.546,jersey_experiment_5_v0,2023.2.2,Win32,84.74576271,,,,,,,,,,,,,,,,127.7456,128.7924,128.7924,130.416,return,0.682,,24.609375,0,11,11,45,1,FBP-PT-17.png,0.35,1.2,46,0.25,,,,,,,,,,,,,,,,,,,,,,,,,,,,,,,,,,,,,,,,,,,,,
,,,,,SPR24_076,20,Female,2024-04-22_17h04.30.546,jersey_experiment_5_v0,2023.2.2,Win32,84.74576271,,,,,,,,,,,,,,,,130.4162,131.4629,131.463,133.875,return,0.72,,16.66666667,0,12,12,15,1,FBP-YG-17.png,0.35,1.2,16,0.25,,,,,,,,,,,,,,,,,,,,,,,,,,,,,,,,,,,,,,,,,,,,,
,,,,,SPR24_076,20,Female,2024-04-22_17h04.30.546,jersey_experiment_5_v0,2023.2.2,Win32,84.74576271,,,,,,,,,,,,,,,,133.8752,135.169,135.1691,137.3221,return,0.5344,,74.73958333,0,13,13,12,1,FBP-OG-91.png,0.4,1.2,13,0.5,,,,,,,,,,,,,,,,,,,,,,,,,,,,,,,,,,,,,,,,,,,,,
,,,,,SPR24_076,20,Female,2024-04-22_17h04.30.546,jersey_experiment_5_v0,2023.2.2,Win32,84.74576271,,,,,,,,,,,,,,,,137.3224,138.6161,138.6162,141.0516,return,0.8264,,77.21354167,0,14,14,37,1,FBP-RB-18.png,0.4,1.2,38,0.5,,,,,,,,,,,,,,,,,,,,,,,,,,,,,,,,,,,,,,,,,,,,,
,,,,,SPR24_076,20,Female,2024-04-22_17h04.30.546,jersey_experiment_5_v0,2023.2.2,Win32,84.74576271,,,,,,,,,,,,,,,,141.0519,142.0987,142.0987,144.84,return,0.5714,,89.32291667,0,15,15,28,1,FBP-YG-19.png,0.43,1.2,29,0.25,,,,,,,,,,,,,,,,,,,,,,,,,,,,,,,,,,,,,,,,,,,,,
,,,,,SPR24_076,20,Female,2024-04-22_17h04.30.546,jersey_experiment_5_v0,2023.2.2,Win32,84.74576271,,,,,,,,,,,,,,,,144.8403,145.887,145.8871,148.24,return,0.6933,,80.59895833,0,16,16,47,1,FBP-PT-17.png,0.4,1.2,48,0.25,,,,,,,,,,,,,,,,,,,,,,,,,,,,,,,,,,,,,,,,,,,,,
,,,,,SPR24_076,20,Female,2024-04-22_17h04.30.546,jersey_experiment_5_v0,2023.2.2,Win32,84.74576271,,,,,,,,,,,,,,,,148.2402,149.5342,149.5343,151.5343,return,0.7414,,68.61979167,0,17,17,36,1,FBP-RB-18.png,0.37,1.2,37,0.5,,,,,,,,,,,,,,,,,,,,,,,,,,,,,,,,,,,,,,,,,,,,,
,,,,,SPR24_076,20,Female,2024-04-22_17h04.30.546,jersey_experiment_5_v0,2023.2.2,Win32,84.74576271,,,,,,,,,,,,,,,,151.5345,152.8285,152.8285,155.0874,return,0.6128,,98.56770833,0,18,18,38,1,FBP-RB-18.png,0.43,1.2,39,0.5,,,,,,,,,,,,,,,,,,,,,,,,,,,,,,,,,,,,,,,,,,,,,
,,,,,SPR24_076,20,Female,2024-04-22_17h04.30.546,jersey_experiment_5_v0,2023.2.2,Win32,84.74576271,,,,,,,,,,,,,,,,155.0876,156.3815,156.3816,157.9229,return,0.5885,,98.56770833,0,19,19,33,1,FBP-RB-17.png,0.43,1.2,34,0.5,,,,,,,,,,,,,,,,,,,,,,,,,,,,,,,,,,,,,,,,,,,,,
,,,,,SPR24_076,20,Female,2024-04-22_17h04.30.546,jersey_experiment_5_v0,2023.2.2,Win32,84.74576271,,,,,,,,,,,,,,,,157.9231,159.2171,159.2172,161.1817,return,0.6487,,93.75,0,20,20,8,1,FBP-OG-81.png,0.43,1.2,9,0.5,,,,,,,,,,,,,,,,,,,,,,,,,,,,,,,,,,,,,,,,,,,,,
,,,,,SPR24_076,20,Female,2024-04-22_17h04.30.546,jersey_experiment_5_v0,2023.2.2,Win32,84.74576271,,,,,,,,,,,,,,,,161.1819,162.4758,162.4758,164.8173,return,0.5647,,74.609375,0,21,21,42,1,FBP-RB-19.png,0.4,1.2,43,0.5,,,,,,,,,,,,,,,,,,,,,,,,,,,,,,,,,,,,,,,,,,,,,
,,,,,SPR24_076,20,Female,2024-04-22_17h04.30.546,jersey_experiment_5_v0,2023.2.2,Win32,84.74576271,,,,,,,,,,,,,,,,164.8176,166.1114,166.1115,168.3703,return,0.7918,,24.73958333,0,22,22,40,1,FBP-RB-19.png,0.35,1.2,41,0.5,,,,,,,,,,,,,,,,,,,,,,,,,,,,,,,,,,,,,,,,,,,,,
,,,,,SPR24_076,20,Female,2024-04-22_17h04.30.546,jersey_experiment_5_v0,2023.2.2,Win32,84.74576271,,,,,,,,,,,,,,,,168.3705,169.4174,169.4174,171.288,return,0.632,,17.96875,0,23,23,50,1,FBP-PT-18.png,0.35,1.2,51,0.25,,,,,,,,,,,,,,,,,,,,,,,,,,,,,,,,,,,,,,,,,,,,,
,,,,,SPR24_076,20,Female,2024-04-22_17h04.30.546,jersey_experiment_5_v0,2023.2.2,Win32,84.74576271,,,,,,,,,,,,,,,,171.2883,172.3349,172.3349,174.6647,return,0.761,,90.49479167,0,24,24,54,1,FBP-PT-18.png,0.45,1.2,55,0.25,,,,,,,,,,,,,,,,,,,,,,,,,,,,,,,,,,,,,,,,,,,,,
,,,,,SPR24_076,20,Female,2024-04-22_17h04.30.546,jersey_experiment_5_v0,2023.2.2,Win32,84.74576271,,,,,,,,,,,,,,,,174.665,175.9587,175.9588,178.0177,return,0.5321,,30.859375,0,25,25,11,1,FBP-OG-91.png,0.37,1.2,12,0.5,,,,,,,,,,,,,,,,,,,,,,,,,,,,,,,,,,,,,,,,,,,,,
,,,,,SPR24_076,20,Female,2024-04-22_17h04.30.546,jersey_experiment_5_v0,2023.2.2,Win32,84.74576271,,,,,,,,,,,,,,,,178.0179,179.0647,179.0647,181.2885,return,0.6419,,76.30208333,0,26,26,18,1,FBP-YG-17.png,0.43,1.2,19,0.25,,,,,,,,,,,,,,,,,,,,,,,,,,,,,,,,,,,,,,,,,,,,,
,,,,,SPR24_076,20,Female,2024-04-22_17h04.30.546,jersey_experiment_5_v0,2023.2.2,Win32,84.74576271,,,,,,,,,,,,,,,,181.2886,182.3353,182.3354,184.2649,return,0.5592,,87.890625,0,27,27,17,1,FBP-YG-17.png,0.4,1.2,18,0.25,,,,,,,,,,,,,,,,,,,,,,,,,,,,,,,,,,,,,,,,,,,,,
,,,,,SPR24_076,20,Female,2024-04-22_17h04.30.546,jersey_experiment_5_v0,2023.2.2,Win32,84.74576271,,,,,,,,,,,,,,,,184.2651,185.5591,185.5592,187.9005,return,0.7689,,99.21875,0,28,28,39,1,FBP-RB-18.png,0.45,1.2,40,0.5,,,,,,,,,,,,,,,,,,,,,,,,,,,,,,,,,,,,,,,,,,,,,
,,,,,SPR24_076,20,Female,2024-04-22_17h04.30.546,jersey_experiment_5_v0,2023.2.2,Win32,84.74576271,,,,,,,,,,,,,,,,187.9007,188.9474,188.9474,191.6653,return,0.9177,,26.5625,0,29,29,46,1,FBP-PT-17.png,0.37,1.2,47,0.25,,,,,,,,,,,,,,,,,,,,,,,,,,,,,,,,,,,,,,,,,,,,,
,,,,,SPR24_076,20,Female,2024-04-22_17h04.30.546,jersey_experiment_5_v0,2023.2.2,Win32,84.74576271,,,,,,,,,,,,,,,,191.6655,192.7124,192.7124,194.8653,return,0.6355,,97.13541667,0,30,30,29,1,FBP-YG-19.png,0.45,1.2,30,0.25,,,,,,,,,,,,,,,,,,,,,,,,,,,,,,,,,,,,,,,,,,,,,
,,,,,SPR24_076,20,Female,2024-04-22_17h04.30.546,jersey_experiment_5_v0,2023.2.2,Win32,84.74576271,,,,,,,,,,,,,,,,194.8656,195.9124,195.9124,197.7713,return,0.6267,,75.91145833,0,31,31,22,1,FBP-YG-18.png,0.4,1.2,23,0.25,,,,,,,,,,,,,,,,,,,,,,,,,,,,,,,,,,,,,,,,,,,,,
,,,,,SPR24_076,20,Female,2024-04-22_17h04.30.546,jersey_experiment_5_v0,2023.2.2,Win32,84.74576271,,,,,,,,,,,,,,,,197.7715,199.0653,199.0654,200.7361,return,0.6594,,99.86979167,0,32,32,4,1,FBP-OG-71.png,0.45,1.2,5,0.5,,,,,,,,,,,,,,,,,,,,,,,,,,,,,,,,,,,,,,,,,,,,,
,,,,,SPR24_076,20,Female,2024-04-22_17h04.30.546,jersey_experiment_5_v0,2023.2.2,Win32,84.74576271,,,,,,,,,,,,,,,,200.7364,202.0302,202.0303,203.8891,return,0.6686,,26.04166667,0,33,33,10,1,FBP-OG-91.png,0.35,1.2,11,0.5,,,,,,,,,,,,,,,,,,,,,,,,,,,,,,,,,,,,,,,,,,,,,
,,,,,SPR24_076,20,Female,2024-04-22_17h04.30.546,jersey_experiment_5_v0,2023.2.2,Win32,84.74576271,,,,,,,,,,,,,,,,203.8893,204.9362,204.9363,208.4305,return,2.2138,,75.390625,0,34,34,49,1,FBP-PT-17.png,0.45,1.2,50,0.25,,,,,,,,,,,,,,,,,,,,,,,,,,,,,,,,,,,,,,,,,,,,,
,,,,,SPR24_076,20,Female,2024-04-22_17h04.30.546,jersey_experiment_5_v0,2023.2.2,Win32,84.74576271,,,,,,,,,,,,,,,,208.4307,209.7246,209.7247,211.3718,return,0.6257,,49.609375,0,35,35,7,1,FBP-OG-81.png,0.4,1.2,8,0.5,,,,,,,,,,,,,,,,,,,,,,,,,,,,,,,,,,,,,,,,,,,,,
,,,,,SPR24_076,20,Female,2024-04-22_17h04.30.546,jersey_experiment_5_v0,2023.2.2,Win32,84.74576271,,,,,,,,,,,,,,,,211.372,212.6659,212.6659,214.7602,return,0.62,,37.36979167,0,36,36,41,1,FBP-RB-19.png,0.37,1.2,42,0.5,,,,,,,,,,,,,,,,,,,,,,,,,,,,,,,,,,,,,,,,,,,,,
,,,,,SPR24_076,20,Female,2024-04-22_17h04.30.546,jersey_experiment_5_v0,2023.2.2,Win32,84.74576271,,,,,,,,,,,,,,,,214.7604,216.0542,216.0542,218.7367,return,0.5415,,35.28645833,0,37,37,1,1,FBP-OG-71.png,0.37,1.2,2,0.5,,,,,,,,,,,,,,,,,,,,,,,,,,,,,,,,,,,,,,,,,,,,,
,,,,,SPR24_076,20,Female,2024-04-22_17h04.30.546,jersey_experiment_5_v0,2023.2.2,Win32,84.74576271,,,,,,,,,,,,,,,,218.7369,219.7838,219.7838,221.4544,return,0.5312,,36.97916667,0,38,38,21,1,FBP-YG-18.png,0.37,1.2,22,0.25,,,,,,,,,,,,,,,,,,,,,,,,,,,,,,,,,,,,,,,,,,,,,
,,,,,SPR24_076,20,Female,2024-04-22_17h04.30.546,jersey_experiment_5_v0,2023.2.2,Win32,84.74576271,,,,,,,,,,,,,,,,221.4546,222.7487,222.7487,224.4311,return,0.4955,,98.95833333,0,39,39,34,1,FBP-RB-17.png,0.45,1.2,35,0.5,,,,,,,,,,,,,,,,,,,,,,,,,,,,,,,,,,,,,,,,,,,,,
,,,,,SPR24_076,20,Female,2024-04-22_17h04.30.546,jersey_experiment_5_v0,2023.2.2,Win32,84.74576271,,,,,,,,,,,,,,,,224.4313,225.4782,225.4783,227.1841,return,0.5885,,86.328125,0,40,40,19,1,FBP-YG-17.png,0.45,1.2,20,0.25,,,,,,,,,,,,,,,,,,,,,,,,,,,,,,,,,,,,,,,,,,,,,
,,,,,SPR24_076,20,Female,2024-04-22_17h04.30.546,jersey_experiment_5_v0,2023.2.2,Win32,84.74576271,,,,,,,,,,,,,,,,227.1843,228.2312,228.2313,230.3841,return,0.5277,,93.359375,0,41,41,23,1,FBP-YG-18.png,0.43,1.2,24,0.25,,,,,,,,,,,,,,,,,,,,,,,,,,,,,,,,,,,,,,,,,,,,,
,,,,,SPR24_076,20,Female,2024-04-22_17h04.30.546,jersey_experiment_5_v0,2023.2.2,Win32,84.74576271,,,,,,,,,,,,,,,,230.3843,231.6784,231.6784,233.5841,return,0.6224,,23.828125,0,42,42,31,1,FBP-RB-17.png,0.37,1.2,32,0.5,,,,,,,,,,,,,,,,,,,,,,,,,,,,,,,,,,,,,,,,,,,,,
,,,,,SPR24_076,20,Female,2024-04-22_17h04.30.546,jersey_experiment_5_v0,2023.2.2,Win32,84.74576271,,,,,,,,,,,,,,,,233.5844,234.8785,234.8785,236.4316,return,0.5281,,74.08854167,0,43,43,14,1,FBP-OG-91.png,0.45,1.2,15,0.5,,,,,,,,,,,,,,,,,,,,,,,,,,,,,,,,,,,,,,,,,,,,,
,,,,,SPR24_076,20,Female,2024-04-22_17h04.30.546,jersey_experiment_5_v0,2023.2.2,Win32,84.74576271,,,,,,,,,,,,,,,,236.4318,237.4786,237.4787,239.2435,return,0.6281,,25.13020833,0,44,44,16,1,FBP-YG-17.png,0.37,1.2,17,0.25,,,,,,,,,,,,,,,,,,,,,,,,,,,,,,,,,,,,,,,,,,,,,
,,,,,SPR24_076,20,Female,2024-04-22_17h04.30.546,jersey_experiment_5_v0,2023.2.2,Win32,84.74576271,,,,,,,,,,,,,,,,239.2438,240.5375,240.5376,242.0669,return,0.5178,,3.385416667,0,45,45,5,1,FBP-OG-81.png,0.35,1.2,6,0.5,,,,,,,,,,,,,,,,,,,,,,,,,,,,,,,,,,,,,,,,,,,,,
,,,,,SPR24_076,20,Female,2024-04-22_17h04.30.546,jersey_experiment_5_v0,2023.2.2,Win32,84.74576271,,,,,,,,,,,,,,,,242.0672,243.114,243.114,244.22,return,0.5219,,3.385416667,0,46,46,56,1,FBP-PT-19.png,0.37,1.2,57,0.25,,,,,,,,,,,,,,,,,,,,,,,,,,,,,,,,,,,,,,,,,,,,,
,,,,,SPR24_076,20,Female,2024-04-22_17h04.30.546,jersey_experiment_5_v0,2023.2.2,Win32,84.74576271,,,,,,,,,,,,,,,,244.2203,245.5141,245.5141,246.5261,return,0.5767,,3.515625,0,47,47,30,1,FBP-RB-17.png,0.35,1.2,31,0.5,,,,,,,,,,,,,,,,,,,,,,,,,,,,,,,,,,,,,,,,,,,,,
,,,,,SPR24_076,20,Female,2024-04-22_17h04.30.546,jersey_experiment_5_v0,2023.2.2,Win32,84.74576271,,,,,,,,,,,,,,,,246.5263,247.5731,247.5731,249.985,return,0.5416,,36.97916667,0,48,48,52,1,FBP-PT-18.png,0.4,1.2,53,0.25,,,,,,,,,,,,,,,,,,,,,,,,,,,,,,,,,,,,,,,,,,,,,
,,,,,SPR24_076,20,Female,2024-04-22_17h04.30.546,jersey_experiment_5_v0,2023.2.2,Win32,84.74576271,,,,,,,,,,,,,,,,249.9852,251.2791,251.2791,252.9263,return,0.5773,,93.22916667,0,49,49,9,1,FBP-OG-81.png,0.45,1.2,10,0.5,,,,,,,,,,,,,,,,,,,,,,,,,,,,,,,,,,,,,,,,,,,,,
,,,,,SPR24_076,20,Female,2024-04-22_17h04.30.546,jersey_experiment_5_v0,2023.2.2,Win32,84.74576271,,,,,,,,,,,,,,,,252.9265,253.9733,253.9734,255.5147,return,0.6177,,99.21875,0,50,50,24,1,FBP-YG-18.png,0.45,1.2,25,0.25,,,,,,,,,,,,,,,,,,,,,,,,,,,,,,,,,,,,,,,,,,,,,
,,,,,SPR24_076,20,Female,2024-04-22_17h04.30.546,jersey_experiment_5_v0,2023.2.2,Win32,84.74576271,,,,,,,,,,,,,,,,255.5149,256.8087,256.8088,258.8441,return,0.722,,99.73958333,0,51,51,3,1,FBP-OG-71.png,0.43,1.2,4,0.5,,,,,,,,,,,,,,,,,,,,,,,,,,,,,,,,,,,,,,,,,,,,,
,,,,,SPR24_076,20,Female,2024-04-22_17h04.30.546,jersey_experiment_5_v0,2023.2.2,Win32,84.74576271,,,,,,,,,,,,,,,,258.8444,259.891,259.8912,261.55,return,0.579,,94.27083333,0,52,52,59,1,FBP-PT-19.png,0.45,1.2,60,0.25,,,,,,,,,,,,,,,,,,,,,,,,,,,,,,,,,,,,,,,,,,,,,
,,,,,SPR24_076,20,Female,2024-04-22_17h04.30.546,jersey_experiment_5_v0,2023.2.2,Win32,84.74576271,,,,,,,,,,,,,,,,261.5502,262.5972,262.5972,264.7032,return,0.635,,74.47916667,0,53,53,51,1,FBP-PT-18.png,0.37,1.2,52,0.25,,,,,,,,,,,,,,,,,,,,,,,,,,,,,,,,,,,,,,,,,,,,,
,,,,,SPR24_076,20,Female,2024-04-22_17h04.30.546,jersey_experiment_5_v0,2023.2.2,Win32,84.74576271,,,,,,,,,,,,,,,,264.7033,265.9973,265.9973,267.7268,return,0.5663,,24.86979167,0,54,54,6,1,FBP-OG-81.png,0.37,1.2,7,0.5,,,,,,,,,,,,,,,,,,,,,,,,,,,,,,,,,,,,,,,,,,,,,
,,,,,SPR24_076,20,Female,2024-04-22_17h04.30.546,jersey_experiment_5_v0,2023.2.2,Win32,84.74576271,,,,,,,,,,,,,,,,267.727,268.7738,268.7739,270.5739,return,0.661,,13.671875,0,55,55,25,1,FBP-YG-19.png,0.35,1.2,26,0.25,,,,,,,,,,,,,,,,,,,,,,,,,,,,,,,,,,,,,,,,,,,,,
,,,,,SPR24_076,20,Female,2024-04-22_17h04.30.546,jersey_experiment_5_v0,2023.2.2,Win32,84.74576271,,,,,,,,,,,,,,,,270.5741,271.621,271.621,273.7387,return,0.7467,,88.28125,0,56,56,58,1,FBP-PT-19.png,0.43,1.2,59,0.25,,,,,,,,,,,,,,,,,,,,,,,,,,,,,,,,,,,,,,,,,,,,,
,,,,,SPR24_076,20,Female,2024-04-22_17h04.30.546,jersey_experiment_5_v0,2023.2.2,Win32,84.74576271,,,,,,,,,,,,,,,,273.7388,275.033,275.033,276.9742,return,0.5529,,74.34895833,0,57,57,32,1,FBP-RB-17.png,0.4,1.2,33,0.5,,,,,,,,,,,,,,,,,,,,,,,,,,,,,,,,,,,,,,,,,,,,,
,,,,,SPR24_076,20,Female,2024-04-22_17h04.30.546,jersey_experiment_5_v0,2023.2.2,Win32,84.74576271,,,,,,,,,,,,,,,,276.9745,278.2682,278.2683,282.4802,return,0.7762,,75.78125,0,58,58,2,1,FBP-OG-71.png,0.4,1.2,3,0.5,,,,,,,,,,,,,,,,,,,,,,,,,,,,,,,,,,,,,,,,,,,,,
,,,,,SPR24_076,20,Female,2024-04-22_17h04.30.546,jersey_experiment_5_v0,2023.2.2,Win32,84.74576271,,,,,,,,,,,,,,,,282.4805,283.5273,283.5273,285.7863,return,0.6531,,25.13020833,0,59,59,55,1,FBP-PT-19.png,0.35,1.2,56,0.25,,,,,,,,,,,,,,,,,,,,,,,,,,,,,,,,,,,,,,,,,,,,,
,,,,,SPR24_076,20,Female,2024-04-22_17h04.30.546,jersey_experiment_5_v0,2023.2.2,Win32,84.74576271,,,,,,,,,,,,,,,,285.7883,286.8332,286.8332,288.4806,return,0.5413,,12.36979167,,,,,,FBP-YG-91.png,0.35,1.2,26,0.25,0,0,0,25,1,,,,,,,,,,,,,,,,,,,,,,,,,,,,,,,,,,,,,,,,
,,,,,SPR24_076,20,Female,2024-04-22_17h04.30.546,jersey_experiment_5_v0,2023.2.2,Win32,84.74576271,,,,,,,,,,,,,,,,288.4811,289.7744,289.7745,290.9747,return,0.5054,,6.380208333,,,,,,FBP-OG-17.png,0.35,1.2,1,0.5,0,1,1,0,1,,,,,,,,,,,,,,,,,,,,,,,,,,,,,,,,,,,,,,,,
,,,,,SPR24_076,20,Female,2024-04-22_17h04.30.546,jersey_experiment_5_v0,2023.2.2,Win32,84.74576271,,,,,,,,,,,,,,,,290.9749,292.2687,292.2687,294.5396,return,0.4495,,27.08333333,,,,,,FBP-OG-17.png,0.37,1.2,2,0.5,0,2,2,1,1,,,,,,,,,,,,,,,,,,,,,,,,,,,,,,,,,,,,,,,,
,,,,,SPR24_076,20,Female,2024-04-22_17h04.30.546,jersey_experiment_5_v0,2023.2.2,Win32,84.74576271,,,,,,,,,,,,,,,,294.5398,295.8337,295.8337,297.5985,return,0.4374,,49.73958333,,,,,,FBP-OG-19.png,0.4,1.2,13,0.5,0,3,3,12,1,,,,,,,,,,,,,,,,,,,,,,,,,,,,,,,,,,,,,,,,
,,,,,SPR24_076,20,Female,2024-04-22_17h04.30.546,jersey_experiment_5_v0,2023.2.2,Win32,84.74576271,,,,,,,,,,,,,,,,297.5986,298.6455,298.6455,300.8574,return,0.4304,,45.3125,,,,,,FBP-YG-81.png,0.37,1.2,22,0.25,0,4,4,21,1,,,,,,,,,,,,,,,,,,,,,,,,,,,,,,,,,,,,,,,,
,,,,,SPR24_076,20,Female,2024-04-22_17h04.30.546,jersey_experiment_5_v0,2023.2.2,Win32,84.74576271,,,,,,,,,,,,,,,,300.8577,302.1515,302.1515,305.0339,return,2.0887,,38.02083333,,,,,,FBP-RB-81.png,0.37,1.2,37,0.5,0,5,5,36,1,,,,,,,,,,,,,,,,,,,,,,,,,,,,,,,,,,,,,,,,
,,,,,SPR24_076,20,Female,2024-04-22_17h04.30.546,jersey_experiment_5_v0,2023.2.2,Win32,84.74576271,,,,,,,,,,,,,,,,305.0342,306.3281,306.3282,307.8224,return,0.5533,,25.78125,,,,,,FBP-RB-91.png,0.35,1.2,41,0.5,0,6,6,40,1,,,,,,,,,,,,,,,,,,,,,,,,,,,,,,,,,,,,,,,,
,,,,,SPR24_076,20,Female,2024-04-22_17h04.30.546,jersey_experiment_5_v0,2023.2.2,Win32,84.74576271,,,,,,,,,,,,,,,,307.8226,308.8694,308.8695,311.2812,return,0.5178,,60.9375,,,,,,FBP-PT-81.png,0.4,1.2,53,0.25,0,7,7,52,1,,,,,,,,,,,,,,,,,,,,,,,,,,,,,,,,,,,,,,,,
,,,,,SPR24_076,20,Female,2024-04-22_17h04.30.546,jersey_experiment_5_v0,2023.2.2,Win32,84.74576271,,,,,,,,,,,,,,,,311.2815,312.3284,312.3285,314.8109,return,0.8291,,86.97916667,,,,,,FBP-YG-91.png,0.43,1.2,29,0.25,0,8,8,28,1,,,,,,,,,,,,,,,,,,,,,,,,,,,,,,,,,,,,,,,,
,,,,,SPR24_076,20,Female,2024-04-22_17h04.30.546,jersey_experiment_5_v0,2023.2.2,Win32,84.74576271,,,,,,,,,,,,,,,,314.8111,316.1049,316.105,318.0932,return,0.7204,,98.046875,,,,,,FBP-RB-81.png,0.43,1.2,39,0.5,0,9,9,38,1,,,,,,,,,,,,,,,,,,,,,,,,,,,,,,,,,,,,,,,,
,,,,,SPR24_076,20,Female,2024-04-22_17h04.30.546,jersey_experiment_5_v0,2023.2.2,Win32,84.74576271,,,,,,,,,,,,,,,,318.0934,319.3875,319.3875,321.1993,return,0.588,,25.65104167,,,,,,FBP-OG-19.png,0.35,1.2,11,0.5,0,10,10,10,1,,,,,,,,,,,,,,,,,,,,,,,,,,,,,,,,,,,,,,,,
,,,,,SPR24_076,20,Female,2024-04-22_17h04.30.546,jersey_experiment_5_v0,2023.2.2,Win32,84.74576271,,,,,,,,,,,,,,,,321.1995,322.4935,322.4935,324.3995,return,0.6354,,95.96354167,,,,,,FBP-OG-17.png,0.43,1.2,4,0.5,0,11,11,3,1,,,,,,,,,,,,,,,,,,,,,,,,,,,,,,,,,,,,,,,,
,,,,,SPR24_076,20,Female,2024-04-22_17h04.30.546,jersey_experiment_5_v0,2023.2.2,Win32,84.74576271,,,,,,,,,,,,,,,,324.3998,325.4465,325.4465,326.8466,return,0.5548,,97.39583333,,,,,,FBP-YG-81.png,0.45,1.2,25,0.25,0,12,12,24,1,,,,,,,,,,,,,,,,,,,,,,,,,,,,,,,,,,,,,,,,
,,,,,SPR24_076,20,Female,2024-04-22_17h04.30.546,jersey_experiment_5_v0,2023.2.2,Win32,84.74576271,,,,,,,,,,,,,,,,326.8469,328.1407,328.1408,329.7407,return,0.5422,,25.52083333,,,,,,FBP-RB-71.png,0.37,1.2,32,0.5,0,13,13,31,1,,,,,,,,,,,,,,,,,,,,,,,,,,,,,,,,,,,,,,,,
,,,,,SPR24_076,20,Female,2024-04-22_17h04.30.546,jersey_experiment_5_v0,2023.2.2,Win32,84.74576271,,,,,,,,,,,,,,,,329.741,330.7878,330.7879,332.2352,return,0.5688,,20.44270833,,,,,,FBP-YG-81.png,0.35,1.2,21,0.25,0,14,14,20,1,,,,,,,,,,,,,,,,,,,,,,,,,,,,,,,,,,,,,,,,
,,,,,SPR24_076,20,Female,2024-04-22_17h04.30.546,jersey_experiment_5_v0,2023.2.2,Win32,84.74576271,,,,,,,,,,,,,,,,332.2354,333.282,333.2821,334.7527,return,0.5883,,6.25,,,,,,FBP-PT-91.png,0.35,1.2,56,0.25,0,15,15,55,1,,,,,,,,,,,,,,,,,,,,,,,,,,,,,,,,,,,,,,,,
,,,,,SPR24_076,20,Female,2024-04-22_17h04.30.546,jersey_experiment_5_v0,2023.2.2,Win32,84.74576271,,,,,,,,,,,,,,,,334.753,336.0468,336.0468,338.6823,return,0.5221,,74.21875,,,,,,FBP-OG-18.png,0.43,1.2,9,0.5,0,16,16,8,1,,,,,,,,,,,,,,,,,,,,,,,,,,,,,,,,,,,,,,,,
,,,,,SPR24_076,20,Female,2024-04-22_17h04.30.546,jersey_experiment_5_v0,2023.2.2,Win32,84.74576271,,,,,,,,,,,,,,,,338.6825,339.9765,339.9765,341.4236,return,0.5033,,94.40104167,,,,,,FBP-RB-91.png,0.43,1.2,44,0.5,0,17,17,43,1,,,,,,,,,,,,,,,,,,,,,,,,,,,,,,,,,,,,,,,,
,,,,,SPR24_076,20,Female,2024-04-22_17h04.30.546,jersey_experiment_5_v0,2023.2.2,Win32,84.74576271,,,,,,,,,,,,,,,,341.4238,342.7175,342.7176,344.1765,return,0.1653,,97.265625,,,,,,FBP-RB-91.png,0.45,1.2,45,0.5,0,18,18,44,1,,,,,,,,,,,,,,,,,,,,,,,,,,,,,,,,,,,,,,,,
,,,,,SPR24_076,20,Female,2024-04-22_17h04.30.546,jersey_experiment_5_v0,2023.2.2,Win32,84.74576271,,,,,,,,,,,,,,,,344.1768,345.2237,345.2237,346.4473,return,0.0613,,5.338541667,,,,,,FBP-PT-71.png,0.35,1.2,46,0.25,0,19,19,45,1,,,,,,,,,,,,,,,,,,,,,,,,,,,,,,,,,,,,,,,,
,,,,,SPR24_076,20,Female,2024-04-22_17h04.30.546,jersey_experiment_5_v0,2023.2.2,Win32,84.74576271,,,,,,,,,,,,,,,,346.4475,347.4943,347.4943,348.7533,return,0.0715,,25.65104167,,,,,,FBP-YG-91.png,0.4,1.2,28,0.25,0,20,20,27,1,,,,,,,,,,,,,,,,,,,,,,,,,,,,,,,,,,,,,,,,
,,,,,SPR24_076,20,Female,2024-04-22_17h04.30.546,jersey_experiment_5_v0,2023.2.2,Win32,84.74576271,,,,,,,,,,,,,,,,348.7535,349.8002,349.8003,351.1298,return,0.4759,,18.88020833,,,,,,FBP-YG-71.png,0.35,1.2,16,0.25,0,21,21,15,1,,,,,,,,,,,,,,,,,,,,,,,,,,,,,,,,,,,,,,,,
,,,,,SPR24_076,20,Female,2024-04-22_17h04.30.546,jersey_experiment_5_v0,2023.2.2,Win32,84.74576271,,,,,,,,,,,,,,,,351.1301,352.4239,352.424,354.13,return,0.0109,,35.80729167,,,,,,FBP-OG-18.png,0.37,1.2,7,0.5,0,22,22,6,1,,,,,,,,,,,,,,,,,,,,,,,,,,,,,,,,,,,,,,,,
,,,,,SPR24_076,20,Female,2024-04-22_17h04.30.546,jersey_experiment_5_v0,2023.2.2,Win32,84.74576271,,,,,,,,,,,,,,,,354.1302,355.177,355.177,356.2711,return,0.0006,,80.078125,,,,,,FBP-PT-81.png,0.43,1.2,54,0.25,0,23,23,53,1,,,,,,,,,,,,,,,,,,,,,,,,,,,,,,,,,,,,,,,,
,,,,,SPR24_076,20,Female,2024-04-22_17h04.30.546,jersey_experiment_5_v0,2023.2.2,Win32,84.74576271,,,,,,,,,,,,,,,,356.2713,357.5653,357.5653,358.8007,return,0.4369,,25,,,,,,FBP-RB-81.png,0.35,1.2,36,0.5,0,24,24,35,1,,,,,,,,,,,,,,,,,,,,,,,,,,,,,,,,,,,,,,,,
,,,,,SPR24_076,20,Female,2024-04-22_17h04.30.546,jersey_experiment_5_v0,2023.2.2,Win32,84.74576271,,,,,,,,,,,,,,,,358.8009,359.8478,359.8478,361.2596,return,0.028,,25.390625,,,,,,FBP-PT-81.png,0.37,1.2,52,0.25,0,25,25,51,1,,,,,,,,,,,,,,,,,,,,,,,,,,,,,,,,,,,,,,,,
,,,,,SPR24_076,20,Female,2024-04-22_17h04.30.546,jersey_experiment_5_v0,2023.2.2,Win32,84.74576271,,,,,,,,,,,,,,,,361.2598,362.5536,362.5537,363.1302,return,0.0412,,21.35416667,,,,,,FBP-RB-71.png,0.35,1.2,31,0.5,0,26,26,30,1,,,,,,,,,,,,,,,,,,,,,,,,,,,,,,,,,,,,,,,,
,,,,,SPR24_076,20,Female,2024-04-22_17h04.30.546,jersey_experiment_5_v0,2023.2.2,Win32,84.74576271,,,,,,,,,,,,,,,,363.1305,364.4245,364.4246,365.0833,return,0.0036,,75.52083333,,,,,,FBP-RB-71.png,0.43,1.2,34,0.5,0,27,27,33,1,,,,,,,,,,,,,,,,,,,,,,,,,,,,,,,,,,,,,,,,
,,,,,SPR24_076,20,Female,2024-04-22_17h04.30.546,jersey_experiment_5_v0,2023.2.2,Win32,84.74576271,,,,,,,,,,,,,,,,365.0835,366.3773,366.3774,366.9422,return,0.0135,,83.203125,,,,,,FBP-RB-71.png,0.4,1.2,33,0.5,0,28,28,32,1,,,,,,,,,,,,,,,,,,,,,,,,,,,,,,,,,,,,,,,,
,,,,,SPR24_076,20,Female,2024-04-22_17h04.30.546,jersey_experiment_5_v0,2023.2.2,Win32,84.74576271,,,,,,,,,,,,,,,,366.9424,368.2362,368.2363,369.2598,return,0.5785,,89.84375,,,,,,FBP-RB-91.png,0.4,1.2,43,0.5,0,29,29,42,1,,,,,,,,,,,,,,,,,,,,,,,,,,,,,,,,,,,,,,,,
,,,,,SPR24_076,20,Female,2024-04-22_17h04.30.546,jersey_experiment_5_v0,2023.2.2,Win32,84.74576271,,,,,,,,,,,,,,,,369.26,370.307,370.307,371.4716,return,0.0341,,98.95833333,,,,,,FBP-YG-91.png,0.45,1.2,30,0.25,0,30,30,29,1,,,,,,,,,,,,,,,,,,,,,,,,,,,,,,,,,,,,,,,,
,,,,,SPR24_076,20,Female,2024-04-22_17h04.30.546,jersey_experiment_5_v0,2023.2.2,Win32,84.74576271,,,,,,,,,,,,,,,,371.4718,372.5187,372.5188,373.3542,return,0.2282,,98.828125,,,,,,FBP-PT-91.png,0.43,1.2,59,0.25,0,31,31,58,1,,,,,,,,,,,,,,,,,,,,,,,,,,,,,,,,,,,,,,,,
,,,,,SPR24_076,20,Female,2024-04-22_17h04.30.546,jersey_experiment_5_v0,2023.2.2,Win32,84.74576271,,,,,,,,,,,,,,,,373.3544,374.6483,374.6483,375.1188,return,0.0809,,98.69791667,,,,,,FBP-OG-18.png,0.45,1.2,10,0.5,0,32,32,9,1,,,,,,,,,,,,,,,,,,,,,,,,,,,,,,,,,,,,,,,,
,,,,,SPR24_076,20,Female,2024-04-22_17h04.30.546,jersey_experiment_5_v0,2023.2.2,Win32,84.74576271,,,,,,,,,,,,,,,,375.119,376.1659,376.166,377.5778,return,0.0755,,94.53125,,,,,,FBP-YG-81.png,0.43,1.2,24,0.25,0,33,33,23,1,,,,,,,,,,,,,,,,,,,,,,,,,,,,,,,,,,,,,,,,
,,,,,SPR24_076,20,Female,2024-04-22_17h04.30.546,jersey_experiment_5_v0,2023.2.2,Win32,84.74576271,,,,,,,,,,,,,,,,377.578,378.8718,378.8718,380.1543,return,0.0866,,75.78125,,,,,,FBP-OG-17.png,0.4,1.2,3,0.5,0,34,34,2,1,,,,,,,,,,,,,,,,,,,,,,,,,,,,,,,,,,,,,,,,
,,,,,SPR24_076,20,Female,2024-04-22_17h04.30.546,jersey_experiment_5_v0,2023.2.2,Win32,84.74576271,,,,,,,,,,,,,,,,380.1546,381.2015,381.2015,383.3192,return,0.1384,,50,,,,,,FBP-PT-91.png,0.37,1.2,57,0.25,0,35,35,56,1,,,,,,,,,,,,,,,,,,,,,,,,,,,,,,,,,,,,,,,,
,,,,,SPR24_076,20,Female,2024-04-22_17h04.30.546,jersey_experiment_5_v0,2023.2.2,Win32,84.74576271,,,,,,,,,,,,,,,,383.3195,384.6134,384.6134,385.6134,return,0.073,,74.21875,,,,,,FBP-OG-19.png,0.43,1.2,14,0.5,0,36,36,13,1,,,,,,,,,,,,,,,,,,,,,,,,,,,,,,,,,,,,,,,,
,,,,,SPR24_076,20,Female,2024-04-22_17h04.30.546,jersey_experiment_5_v0,2023.2.2,Win32,84.74576271,,,,,,,,,,,,,,,,385.6136,386.9075,386.9075,388.9428,return,0.8244,,98.046875,,,,,,FBP-OG-19.png,0.45,1.2,15,0.5,0,37,37,14,1,,,,,,,,,,,,,,,,,,,,,,,,,,,,,,,,,,,,,,,,
,,,,,SPR24_076,20,Female,2024-04-22_17h04.30.546,jersey_experiment_5_v0,2023.2.2,Win32,84.74576271,,,,,,,,,,,,,,,,388.9431,389.99,389.99,391.4725,return,0.0574,,74.47916667,,,,,,FBP-YG-71.png,0.45,1.2,20,0.25,0,38,38,19,1,,,,,,,,,,,,,,,,,,,,,,,,,,,,,,,,,,,,,,,,
,,,,,SPR24_076,20,Female,2024-04-22_17h04.30.546,jersey_experiment_5_v0,2023.2.2,Win32,84.74576271,,,,,,,,,,,,,,,,391.4727,392.5195,392.5195,393.9194,return,0.458,,76.30208333,,,,,,FBP-PT-91.png,0.45,1.2,60,0.25,0,39,39,59,1,,,,,,,,,,,,,,,,,,,,,,,,,,,,,,,,,,,,,,,,
,,,,,SPR24_076,20,Female,2024-04-22_17h04.30.546,jersey_experiment_5_v0,2023.2.2,Win32,84.74576271,,,,,,,,,,,,,,,,393.9196,395.2136,395.2137,396.4137,return,0.2609,,25.65104167,,,,,,FBP-OG-19.png,0.37,1.2,12,0.5,0,40,40,11,1,,,,,,,,,,,,,,,,,,,,,,,,,,,,,,,,,,,,,,,,
,,,,,SPR24_076,20,Female,2024-04-22_17h04.30.546,jersey_experiment_5_v0,2023.2.2,Win32,84.74576271,,,,,,,,,,,,,,,,396.4139,397.4608,397.4608,398.8256,return,0.0281,,65.625,,,,,,FBP-PT-71.png,0.45,1.2,50,0.25,0,41,41,49,1,,,,,,,,,,,,,,,,,,,,,,,,,,,,,,,,,,,,,,,,
,,,,,SPR24_076,20,Female,2024-04-22_17h04.30.546,jersey_experiment_5_v0,2023.2.2,Win32,84.74576271,,,,,,,,,,,,,,,,398.8258,399.8726,399.8728,402.7787,return,0.0405,,83.85416667,,,,,,FBP-PT-81.png,0.45,1.2,55,0.25,0,42,42,54,1,,,,,,,,,,,,,,,,,,,,,,,,,,,,,,,,,,,,,,,,
,,,,,SPR24_076,20,Female,2024-04-22_17h04.30.546,jersey_experiment_5_v0,2023.2.2,Win32,84.74576271,,,,,,,,,,,,,,,,402.7789,403.8258,403.8258,405.261,return,0.0601,,75.91145833,,,,,,FBP-YG-71.png,0.4,1.2,18,0.25,0,43,43,17,1,,,,,,,,,,,,,,,,,,,,,,,,,,,,,,,,,,,,,,,,
,,,,,SPR24_076,20,Female,2024-04-22_17h04.30.546,jersey_experiment_5_v0,2023.2.2,Win32,84.74576271,,,,,,,,,,,,,,,,405.2613,406.3082,406.3082,407.32,return,0.0058,,49.47916667,,,,,,FBP-PT-71.png,0.37,1.2,47,0.25,0,44,44,46,1,,,,,,,,,,,,,,,,,,,,,,,,,,,,,,,,,,,,,,,,
,,,,,SPR24_076,20,Female,2024-04-22_17h04.30.546,jersey_experiment_5_v0,2023.2.2,Win32,84.74576271,,,,,,,,,,,,,,,,407.3202,408.6143,408.6143,410.0259,return,0.0649,,89.97395833,,,,,,FBP-OG-17.png,0.45,1.2,5,0.5,0,45,45,4,1,,,,,,,,,,,,,,,,,,,,,,,,,,,,,,,,,,,,,,,,
,,,,,SPR24_076,20,Female,2024-04-22_17h04.30.546,jersey_experiment_5_v0,2023.2.2,Win32,84.74576271,,,,,,,,,,,,,,,,410.0263,411.3201,411.3201,411.7555,return,0.075,,89.84375,,,,,,FBP-RB-71.png,0.45,1.2,35,0.5,0,46,46,34,1,,,,,,,,,,,,,,,,,,,,,,,,,,,,,,,,,,,,,,,,
,,,,,SPR24_076,20,Female,2024-04-22_17h04.30.546,jersey_experiment_5_v0,2023.2.2,Win32,84.74576271,,,,,,,,,,,,,,,,411.7558,412.8026,412.8026,414.5673,return,0.0302,,72.91666667,,,,,,FBP-YG-91.png,0.37,1.2,27,0.25,0,47,47,26,1,,,,,,,,,,,,,,,,,,,,,,,,,,,,,,,,,,,,,,,,
,,,,,SPR24_076,20,Female,2024-04-22_17h04.30.546,jersey_experiment_5_v0,2023.2.2,Win32,84.74576271,,,,,,,,,,,,,,,,414.5675,415.6143,415.6144,417.0734,return,0.0326,,73.4375,,,,,,FBP-YG-81.png,0.4,1.2,23,0.25,0,48,48,22,1,,,,,,,,,,,,,,,,,,,,,,,,,,,,,,,,,,,,,,,,
,,,,,SPR24_076,20,Female,2024-04-22_17h04.30.546,jersey_experiment_5_v0,2023.2.2,Win32,84.74576271,,,,,,,,,,,,,,,,417.0736,418.3674,418.3674,419.1676,return,0.0105,,25.52083333,,,,,,FBP-OG-18.png,0.35,1.2,6,0.5,0,49,49,5,1,,,,,,,,,,,,,,,,,,,,,,,,,,,,,,,,,,,,,,,,
,,,,,SPR24_076,20,Female,2024-04-22_17h04.30.546,jersey_experiment_5_v0,2023.2.2,Win32,84.74576271,,,,,,,,,,,,,,,,419.1677,420.4616,420.4617,421.2147,return,0.025,,83.72395833,,,,,,FBP-RB-81.png,0.45,1.2,40,0.5,0,50,50,39,1,,,,,,,,,,,,,,,,,,,,,,,,,,,,,,,,,,,,,,,,
,,,,,SPR24_076,20,Female,2024-04-22_17h04.30.546,jersey_experiment_5_v0,2023.2.2,Win32,84.74576271,,,,,,,,,,,,,,,,421.2148,422.2617,422.2617,425.9677,return,0.387,,49.47916667,,,,,,FBP-YG-71.png,0.37,1.2,17,0.25,0,51,51,16,1,,,,,,,,,,,,,,,,,,,,,,,,,,,,,,,,,,,,,,,,
,,,,,SPR24_076,20,Female,2024-04-22_17h04.30.546,jersey_experiment_5_v0,2023.2.2,Win32,84.74576271,,,,,,,,,,,,,,,,425.9679,427.0149,427.0149,428.4502,return,0.0474,,63.80208333,,,,,,FBP-PT-71.png,0.4,1.2,48,0.25,0,52,52,47,1,,,,,,,,,,,,,,,,,,,,,,,,,,,,,,,,,,,,,,,,
,,,,,SPR24_076,20,Female,2024-04-22_17h04.30.546,jersey_experiment_5_v0,2023.2.2,Win32,84.74576271,,,,,,,,,,,,,,,,428.4505,429.4972,429.4973,431.168,return,0.3855,,23.95833333,,,,,,FBP-PT-81.png,0.35,1.2,51,0.25,0,53,53,50,1,,,,,,,,,,,,,,,,,,,,,,,,,,,,,,,,,,,,,,,,
,,,,,SPR24_076,20,Female,2024-04-22_17h04.30.546,jersey_experiment_5_v0,2023.2.2,Win32,84.74576271,,,,,,,,,,,,,,,,431.1681,432.4619,432.462,433.8268,return,0.4708,,74.34895833,,,,,,FBP-RB-81.png,0.4,1.2,38,0.5,0,54,54,37,1,,,,,,,,,,,,,,,,,,,,,,,,,,,,,,,,,,,,,,,,
,,,,,SPR24_076,20,Female,2024-04-22_17h04.30.546,jersey_experiment_5_v0,2023.2.2,Win32,84.74576271,,,,,,,,,,,,,,,,433.8271,435.121,435.121,438.874,return,0.0415,,69.79166667,,,,,,FBP-RB-91.png,0.37,1.2,42,0.5,0,55,55,41,1,,,,,,,,,,,,,,,,,,,,,,,,,,,,,,,,,,,,,,,,
,,,,,SPR24_076,20,Female,2024-04-22_17h04.30.546,jersey_experiment_5_v0,2023.2.2,Win32,84.74576271,,,,,,,,,,,,,,,,438.8743,439.9214,439.9214,441.0389,return,0.0609,,95.18229167,,,,,,FBP-PT-71.png,0.43,1.2,49,0.25,0,56,56,48,1,,,,,,,,,,,,,,,,,,,,,,,,,,,,,,,,,,,,,,,,
,,,,,SPR24_076,20,Female,2024-04-22_17h04.30.546,jersey_experiment_5_v0,2023.2.2,Win32,84.74576271,,,,,,,,,,,,,,,,441.0391,442.3331,442.3331,444.6743,return,0.0472,,40.36458333,,,,,,FBP-OG-18.png,0.4,1.2,8,0.5,0,57,57,7,1,,,,,,,,,,,,,,,,,,,,,,,,,,,,,,,,,,,,,,,,
,,,,,SPR24_076,20,Female,2024-04-22_17h04.30.546,jersey_experiment_5_v0,2023.2.2,Win32,84.74576271,,,,,,,,,,,,,,,,444.6745,445.7214,445.7214,446.6978,return,0.0391,,93.75,,,,,,FBP-YG-71.png,0.43,1.2,19,0.25,0,58,58,18,1,,,,,,,,,,,,,,,,,,,,,,,,,,,,,,,,,,,,,,,,
,,,,,SPR24_076,20,Female,2024-04-22_17h04.30.546,jersey_experiment_5_v0,2023.2.2,Win32,84.74576271,,,,,,,,,,,,,,,,446.6981,447.7452,447.7452,449.3215,return,0.1124,,67.70833333,,,,,,FBP-PT-91.png,0.4,1.2,58,0.25,0,59,59,57,1,,,,,,,,,,,,,,,,,,,,,,,,,,,,,,,,,,,,,,,,
,,,,,SPR24_076,20,Female,2024-04-22_17h04.30.546,jersey_experiment_5_v0,2023.2.2,Win32,84.74576271,,,,,,,,,,,,,,,,,,,,,,,,,,,,,,,,,,,,,,,449.3219,569.3144,,,,,,,,,,,,,,,,,,,,,,,,,,,,,,,,,,,,,,
,,,,,SPR24_076,20,Female,2024-04-22_17h04.30.546,jersey_experiment_5_v0,2023.2.2,Win32,84.74576271,,,,,,,,,,,,,,,,,,,,,,,,,,,,,,,,,,,,,,,,,569.3145,571.9143,return,2.5912,,,,,,,,,,,,,,,,,,,,,,,,,,,,,,,,,,
,,,,,SPR24_076,20,Female,2024-04-22_17h04.30.546,jersey_experiment_5_v0,2023.2.2,Win32,84.74576271,,,,,,,,,,,,,,,,571.9204,573.2202,573.2202,575.7262,return,1.0595,,73.828125,,,,,,FBP-PT-17.png,0.43,1.2,49,0.5,,,,,,,,,,,,,0,0,0,48,1,,,,,,,,,,,,,,,,,,,,,,,,,,,,
,,,,,SPR24_076,20,Female,2024-04-22_17h04.30.546,jersey_experiment_5_v0,2023.2.2,Win32,84.74576271,,,,,,,,,,,,,,,,575.7266,576.7731,576.7731,578.5379,return,0.0767,,24.609375,,,,,,FBP-OG-91.png,0.4,1.2,13,0.25,,,,,,,,,,,,,0,1,1,12,1,,,,,,,,,,,,,,,,,,,,,,,,,,,,
,,,,,SPR24_076,20,Female,2024-04-22_17h04.30.546,jersey_experiment_5_v0,2023.2.2,Win32,84.74576271,,,,,,,,,,,,,,,,578.5381,579.832,579.8321,580.4909,return,0.0522,,24.609375,,,,,,FBP-YG-17.png,0.37,1.2,17,0.5,,,,,,,,,,,,,0,2,2,16,1,,,,,,,,,,,,,,,,,,,,,,,,,,,,
,,,,,SPR24_076,20,Female,2024-04-22_17h04.30.546,jersey_experiment_5_v0,2023.2.2,Win32,84.74576271,,,,,,,,,,,,,,,,580.4911,581.785,581.785,582.9263,return,0.1546,,63.54166667,,,,,,FBP-YG-18.png,0.43,1.2,24,0.5,,,,,,,,,,,,,0,3,3,23,1,,,,,,,,,,,,,,,,,,,,,,,,,,,,
,,,,,SPR24_076,20,Female,2024-04-22_17h04.30.546,jersey_experiment_5_v0,2023.2.2,Win32,84.74576271,,,,,,,,,,,,,,,,582.9266,583.9733,583.9734,584.9733,return,0.0244,,31.640625,,,,,,FBP-OG-81.png,0.37,1.2,7,0.25,,,,,,,,,,,,,0,4,4,6,1,,,,,,,,,,,,,,,,,,,,,,,,,,,,
,,,,,SPR24_076,20,Female,2024-04-22_17h04.30.546,jersey_experiment_5_v0,2023.2.2,Win32,84.74576271,,,,,,,,,,,,,,,,584.9736,586.0204,586.0205,587.0206,return,0.0725,,13.93229167,,,,,,FBP-OG-91.png,0.35,1.2,11,0.25,,,,,,,,,,,,,0,5,5,10,1,,,,,,,,,,,,,,,,,,,,,,,,,,,,
,,,,,SPR24_076,20,Female,2024-04-22_17h04.30.546,jersey_experiment_5_v0,2023.2.2,Win32,84.74576271,,,,,,,,,,,,,,,,587.0208,588.0677,588.0677,588.8795,return,0.0133,,14.58333333,,,,,,FBP-RB-19.png,0.35,1.2,41,0.25,,,,,,,,,,,,,0,6,6,40,1,,,,,,,,,,,,,,,,,,,,,,,,,,,,
,,,,,SPR24_076,20,Female,2024-04-22_17h04.30.546,jersey_experiment_5_v0,2023.2.2,Win32,84.74576271,,,,,,,,,,,,,,,,588.8798,589.9266,589.9266,591.0324,return,0.018,,76.04166667,,,,,,FBP-RB-19.png,0.43,1.2,44,0.25,,,,,,,,,,,,,0,7,7,43,1,,,,,,,,,,,,,,,,,,,,,,,,,,,,
,,,,,SPR24_076,20,Female,2024-04-22_17h04.30.546,jersey_experiment_5_v0,2023.2.2,Win32,84.74576271,,,,,,,,,,,,,,,,591.0326,592.3267,592.3268,593.362,return,0.0107,,24.73958333,,,,,,FBP-PT-19.png,0.35,1.2,56,0.5,,,,,,,,,,,,,0,8,8,55,1,,,,,,,,,,,,,,,,,,,,,,,,,,,,
,,,,,SPR24_076,20,Female,2024-04-22_17h04.30.546,jersey_experiment_5_v0,2023.2.2,Win32,84.74576271,,,,,,,,,,,,,,,,593.3623,594.6561,594.6561,595.0679,return,0.0251,,24.73958333,,,,,,FBP-YG-18.png,0.37,1.2,22,0.5,,,,,,,,,,,,,0,9,9,21,1,,,,,,,,,,,,,,,,,,,,,,,,,,,,
,,,,,SPR24_076,20,Female,2024-04-22_17h04.30.546,jersey_experiment_5_v0,2023.2.2,Win32,84.74576271,,,,,,,,,,,,,,,,595.0682,596.3622,596.3622,597.2799,return,0.0129,,90.234375,,,,,,FBP-PT-19.png,0.45,1.2,60,0.5,,,,,,,,,,,,,0,10,10,59,1,,,,,,,,,,,,,,,,,,,,,,,,,,,,
,,,,,SPR24_076,20,Female,2024-04-22_17h04.30.546,jersey_experiment_5_v0,2023.2.2,Win32,84.74576271,,,,,,,,,,,,,,,,597.2801,598.574,598.574,599.7858,return,0.0148,,73.95833333,,,,,,FBP-YG-19.png,0.4,1.2,28,0.5,,,,,,,,,,,,,0,11,11,27,1,,,,,,,,,,,,,,,,,,,,,,,,,,,,
,,,,,SPR24_076,20,Female,2024-04-22_17h04.30.546,jersey_experiment_5_v0,2023.2.2,Win32,84.74576271,,,,,,,,,,,,,,,,599.7859,601.0799,601.0799,601.8327,return,0.0638,,89.0625,,,,,,FBP-PT-18.png,0.45,1.2,55,0.5,,,,,,,,,,,,,0,12,12,54,1,,,,,,,,,,,,,,,,,,,,,,,,,,,,
,,,,,SPR24_076,20,Female,2024-04-22_17h04.30.546,jersey_experiment_5_v0,2023.2.2,Win32,84.74576271,,,,,,,,,,,,,,,,601.833,602.88,602.88,605.033,return,0.4641,,84.375,,,,,,FBP-RB-17.png,0.43,1.2,34,0.25,,,,,,,,,,,,,0,13,13,33,1,,,,,,,,,,,,,,,,,,,,,,,,,,,,
,,,,,SPR24_076,20,Female,2024-04-22_17h04.30.546,jersey_experiment_5_v0,2023.2.2,Win32,84.74576271,,,,,,,,,,,,,,,,605.0332,606.0801,606.0801,607.5861,return,0.0232,,96.09375,,,,,,FBP-RB-19.png,0.45,1.2,45,0.25,,,,,,,,,,,,,0,14,14,44,1,,,,,,,,,,,,,,,,,,,,,,,,,,,,
,,,,,SPR24_076,20,Female,2024-04-22_17h04.30.546,jersey_experiment_5_v0,2023.2.2,Win32,84.74576271,,,,,,,,,,,,,,,,607.5863,608.8803,608.8803,609.6566,return,0.0187,,92.31770833,,,,,,FBP-YG-17.png,0.45,1.2,20,0.5,,,,,,,,,,,,,0,15,15,19,1,,,,,,,,,,,,,,,,,,,,,,,,,,,,
,,,,,SPR24_076,20,Female,2024-04-22_17h04.30.546,jersey_experiment_5_v0,2023.2.2,Win32,84.74576271,,,,,,,,,,,,,,,,609.6569,610.7037,610.7037,611.7508,return,0.0912,,76.43229167,,,,,,FBP-OG-71.png,0.43,1.2,4,0.25,,,,,,,,,,,,,0,16,16,3,1,,,,,,,,,,,,,,,,,,,,,,,,,,,,
,,,,,SPR24_076,20,Female,2024-04-22_17h04.30.546,jersey_experiment_5_v0,2023.2.2,Win32,84.74576271,,,,,,,,,,,,,,,,611.751,612.7979,612.798,613.7862,return,0.0998,,84.50520833,,,,,,FBP-OG-91.png,0.43,1.2,14,0.25,,,,,,,,,,,,,0,17,17,13,1,,,,,,,,,,,,,,,,,,,,,,,,,,,,
,,,,,SPR24_076,20,Female,2024-04-22_17h04.30.546,jersey_experiment_5_v0,2023.2.2,Win32,84.74576271,,,,,,,,,,,,,,,,613.7864,614.8332,614.8332,615.6452,return,0.013,,92.05729167,,,,,,FBP-OG-71.png,0.45,1.2,5,0.25,,,,,,,,,,,,,0,18,18,4,1,,,,,,,,,,,,,,,,,,,,,,,,,,,,
,,,,,SPR24_076,20,Female,2024-04-22_17h04.30.546,jersey_experiment_5_v0,2023.2.2,Win32,84.74576271,,,,,,,,,,,,,,,,615.6454,616.6923,616.6923,617.9629,return,0.0638,,24.47916667,,,,,,FBP-OG-71.png,0.35,1.2,1,0.25,,,,,,,,,,,,,0,19,19,0,1,,,,,,,,,,,,,,,,,,,,,,,,,,,,
,,,,,SPR24_076,20,Female,2024-04-22_17h04.30.546,jersey_experiment_5_v0,2023.2.2,Win32,84.74576271,,,,,,,,,,,,,,,,617.9631,619.257,619.2571,620.0922,return,0.0268,,15.234375,,,,,,FBP-PT-17.png,0.35,1.2,46,0.5,,,,,,,,,,,,,0,20,20,45,1,,,,,,,,,,,,,,,,,,,,,,,,,,,,
,,,,,SPR24_076,20,Female,2024-04-22_17h04.30.546,jersey_experiment_5_v0,2023.2.2,Win32,84.74576271,,,,,,,,,,,,,,,,620.0925,621.3866,621.3866,622.363,return,0.027,,66.27604167,,,,,,FBP-PT-18.png,0.43,1.2,54,0.5,,,,,,,,,,,,,0,21,21,53,1,,,,,,,,,,,,,,,,,,,,,,,,,,,,
,,,,,SPR24_076,20,Female,2024-04-22_17h04.30.546,jersey_experiment_5_v0,2023.2.2,Win32,84.74576271,,,,,,,,,,,,,,,,622.3632,623.4101,623.4102,624.7749,return,0.0184,,26.04166667,,,,,,FBP-RB-18.png,0.37,1.2,37,0.25,,,,,,,,,,,,,0,22,22,36,1,,,,,,,,,,,,,,,,,,,,,,,,,,,,
,,,,,SPR24_076,20,Female,2024-04-22_17h04.30.546,jersey_experiment_5_v0,2023.2.2,Win32,84.74576271,,,,,,,,,,,,,,,,624.7752,626.0691,626.0691,627.6103,return,0.0642,,61.71875,,,,,,FBP-PT-19.png,0.4,1.2,58,0.5,,,,,,,,,,,,,0,23,23,57,1,,,,,,,,,,,,,,,,,,,,,,,,,,,,
,,,,,SPR24_076,20,Female,2024-04-22_17h04.30.546,jersey_experiment_5_v0,2023.2.2,Win32,84.74576271,,,,,,,,,,,,,,,,627.6105,628.6572,628.6573,630.5516,return,0.0671,,60.15625,,,,,,FBP-RB-18.png,0.4,1.2,38,0.25,,,,,,,,,,,,,0,24,24,37,1,,,,,,,,,,,,,,,,,,,,,,,,,,,,
,,,,,SPR24_076,20,Female,2024-04-22_17h04.30.546,jersey_experiment_5_v0,2023.2.2,Win32,84.74576271,,,,,,,,,,,,,,,,630.5518,631.8457,631.8457,632.7635,return,0.0029,,27.34375,,,,,,FBP-YG-19.png,0.37,1.2,27,0.5,,,,,,,,,,,,,0,25,25,26,1,,,,,,,,,,,,,,,,,,,,,,,,,,,,
,,,,,SPR24_076,20,Female,2024-04-22_17h04.30.546,jersey_experiment_5_v0,2023.2.2,Win32,84.74576271,,,,,,,,,,,,,,,,632.7637,633.8105,633.8105,634.5398,return,0.0034,,80.859375,,,,,,FBP-OG-91.png,0.45,1.2,15,0.25,,,,,,,,,,,,,0,26,26,14,1,,,,,,,,,,,,,,,,,,,,,,,,,,,,
,,,,,SPR24_076,20,Female,2024-04-22_17h04.30.546,jersey_experiment_5_v0,2023.2.2,Win32,84.74576271,,,,,,,,,,,,,,,,634.54,635.8344,635.8344,636.7517,return,0.1051,,20.83333333,,,,,,FBP-YG-19.png,0.35,1.2,26,0.5,,,,,,,,,,,,,0,27,27,25,1,,,,,,,,,,,,,,,,,,,,,,,,,,,,
,,,,,SPR24_076,20,Female,2024-04-22_17h04.30.546,jersey_experiment_5_v0,2023.2.2,Win32,84.74576271,,,,,,,,,,,,,,,,636.7519,637.7989,637.7989,639.0577,return,0.34,,79.03645833,,,,,,FBP-OG-81.png,0.45,1.2,10,0.25,,,,,,,,,,,,,0,28,28,9,1,,,,,,,,,,,,,,,,,,,,,,,,,,,,
,,,,,SPR24_076,20,Female,2024-04-22_17h04.30.546,jersey_experiment_5_v0,2023.2.2,Win32,84.74576271,,,,,,,,,,,,,,,,639.0579,640.1048,640.1049,641.2814,return,0.1177,,24.34895833,,,,,,FBP-RB-19.png,0.37,1.2,42,0.25,,,,,,,,,,,,,0,29,29,41,1,,,,,,,,,,,,,,,,,,,,,,,,,,,,
,,,,,SPR24_076,20,Female,2024-04-22_17h04.30.546,jersey_experiment_5_v0,2023.2.2,Win32,84.74576271,,,,,,,,,,,,,,,,641.2816,642.3284,642.3285,643.305,return,0.0185,,87.23958333,,,,,,FBP-RB-18.png,0.43,1.2,39,0.25,,,,,,,,,,,,,0,30,30,38,1,,,,,,,,,,,,,,,,,,,,,,,,,,,,
,,,,,SPR24_076,20,Female,2024-04-22_17h04.30.546,jersey_experiment_5_v0,2023.2.2,Win32,84.74576271,,,,,,,,,,,,,,,,643.3052,644.5991,644.5991,646.1521,return,0.0195,,74.609375,,,,,,FBP-PT-18.png,0.4,1.2,53,0.5,,,,,,,,,,,,,0,31,31,52,1,,,,,,,,,,,,,,,,,,,,,,,,,,,,
,,,,,SPR24_076,20,Female,2024-04-22_17h04.30.546,jersey_experiment_5_v0,2023.2.2,Win32,84.74576271,,,,,,,,,,,,,,,,646.1523,647.4463,647.4464,648.4111,return,0.1207,,25.65104167,,,,,,FBP-YG-18.png,0.35,1.2,21,0.5,,,,,,,,,,,,,0,32,32,20,1,,,,,,,,,,,,,,,,,,,,,,,,,,,,
,,,,,SPR24_076,20,Female,2024-04-22_17h04.30.546,jersey_experiment_5_v0,2023.2.2,Win32,84.74576271,,,,,,,,,,,,,,,,648.4113,649.7053,649.7054,651.5053,return,0.1047,,51.171875,,,,,,FBP-YG-17.png,0.4,1.2,18,0.5,,,,,,,,,,,,,0,33,33,17,1,,,,,,,,,,,,,,,,,,,,,,,,,,,,
,,,,,SPR24_076,20,Female,2024-04-22_17h04.30.546,jersey_experiment_5_v0,2023.2.2,Win32,84.74576271,,,,,,,,,,,,,,,,651.5055,652.5524,652.5524,654.2347,return,0.8988,,34.375,,,,,,FBP-RB-17.png,0.37,1.2,32,0.25,,,,,,,,,,,,,0,34,34,31,1,,,,,,,,,,,,,,,,,,,,,,,,,,,,
,,,,,SPR24_076,20,Female,2024-04-22_17h04.30.546,jersey_experiment_5_v0,2023.2.2,Win32,84.74576271,,,,,,,,,,,,,,,,654.235,655.5291,655.5291,656.329,return,0.1345,,17.83854167,,,,,,FBP-PT-18.png,0.35,1.2,51,0.5,,,,,,,,,,,,,0,35,35,50,1,,,,,,,,,,,,,,,,,,,,,,,,,,,,
,,,,,SPR24_076,20,Female,2024-04-22_17h04.30.546,jersey_experiment_5_v0,2023.2.2,Win32,84.74576271,,,,,,,,,,,,,,,,656.3292,657.376,657.376,658.5996,return,0.2183,,73.95833333,,,,,,FBP-RB-17.png,0.4,1.2,33,0.25,,,,,,,,,,,,,0,36,36,32,1,,,,,,,,,,,,,,,,,,,,,,,,,,,,
,,,,,SPR24_076,20,Female,2024-04-22_17h04.30.546,jersey_experiment_5_v0,2023.2.2,Win32,84.74576271,,,,,,,,,,,,,,,,658.5998,659.6466,659.6466,660.5408,return,0.05,,96.875,,,,,,FBP-RB-18.png,0.45,1.2,40,0.25,,,,,,,,,,,,,0,37,37,39,1,,,,,,,,,,,,,,,,,,,,,,,,,,,,
,,,,,SPR24_076,20,Female,2024-04-22_17h04.30.546,jersey_experiment_5_v0,2023.2.2,Win32,84.74576271,,,,,,,,,,,,,,,,660.5411,661.5882,661.5882,663.035,return,0.0046,,26.04166667,,,,,,FBP-OG-71.png,0.37,1.2,2,0.25,,,,,,,,,,,,,0,38,38,1,1,,,,,,,,,,,,,,,,,,,,,,,,,,,,
,,,,,SPR24_076,20,Female,2024-04-22_17h04.30.546,jersey_experiment_5_v0,2023.2.2,Win32,84.74576271,,,,,,,,,,,,,,,,663.0352,664.0821,664.0822,665.5058,return,0.0104,,65.10416667,,,,,,FBP-OG-71.png,0.4,1.2,3,0.25,,,,,,,,,,,,,0,39,39,2,1,,,,,,,,,,,,,,,,,,,,,,,,,,,,
,,,,,SPR24_076,20,Female,2024-04-22_17h04.30.546,jersey_experiment_5_v0,2023.2.2,Win32,84.74576271,,,,,,,,,,,,,,,,665.506,666.7999,666.7999,667.5765,return,0.0166,,87.23958333,,,,,,FBP-PT-19.png,0.43,1.2,59,0.5,,,,,,,,,,,,,0,40,40,58,1,,,,,,,,,,,,,,,,,,,,,,,,,,,,
,,,,,SPR24_076,20,Female,2024-04-22_17h04.30.546,jersey_experiment_5_v0,2023.2.2,Win32,84.74576271,,,,,,,,,,,,,,,,667.5767,668.6234,668.6234,669.353,return,0.0516,,94.66145833,,,,,,FBP-OG-81.png,0.43,1.2,9,0.25,,,,,,,,,,,,,0,41,41,8,1,,,,,,,,,,,,,,,,,,,,,,,,,,,,
,,,,,SPR24_076,20,Female,2024-04-22_17h04.30.546,jersey_experiment_5_v0,2023.2.2,Win32,84.74576271,,,,,,,,,,,,,,,,669.3533,670.6473,670.6473,671.7296,return,0.0711,,72.52604167,,,,,,FBP-YG-18.png,0.4,1.2,23,0.5,,,,,,,,,,,,,0,42,42,22,1,,,,,,,,,,,,,,,,,,,,,,,,,,,,
,,,,,SPR24_076,20,Female,2024-04-22_17h04.30.546,jersey_experiment_5_v0,2023.2.2,Win32,84.74576271,,,,,,,,,,,,,,,,671.7298,672.7766,672.7766,674.1533,return,0.1453,,28.25520833,,,,,,FBP-OG-81.png,0.35,1.2,6,0.25,,,,,,,,,,,,,0,43,43,5,1,,,,,,,,,,,,,,,,,,,,,,,,,,,,
,,,,,SPR24_076,20,Female,2024-04-22_17h04.30.546,jersey_experiment_5_v0,2023.2.2,Win32,84.74576271,,,,,,,,,,,,,,,,674.1534,675.4475,675.4475,676.2476,return,0.0294,,95.57291667,,,,,,FBP-YG-18.png,0.45,1.2,25,0.5,,,,,,,,,,,,,0,44,44,24,1,,,,,,,,,,,,,,,,,,,,,,,,,,,,
,,,,,SPR24_076,20,Female,2024-04-22_17h04.30.546,jersey_experiment_5_v0,2023.2.2,Win32,84.74576271,,,,,,,,,,,,,,,,676.2478,677.2944,677.2945,678.4239,return,0.5822,,98.30729167,,,,,,FBP-RB-17.png,0.45,1.2,35,0.25,,,,,,,,,,,,,0,45,45,34,1,,,,,,,,,,,,,,,,,,,,,,,,,,,,
,,,,,SPR24_076,20,Female,2024-04-22_17h04.30.546,jersey_experiment_5_v0,2023.2.2,Win32,84.74576271,,,,,,,,,,,,,,,,678.4242,679.7182,679.7182,680.4474,return,0.2354,,85.80729167,,,,,,FBP-YG-17.png,0.43,1.2,19,0.5,,,,,,,,,,,,,0,46,46,18,1,,,,,,,,,,,,,,,,,,,,,,,,,,,,
,,,,,SPR24_076,20,Female,2024-04-22_17h04.30.546,jersey_experiment_5_v0,2023.2.2,Win32,84.74576271,,,,,,,,,,,,,,,,680.4477,681.7416,681.7416,682.671,return,0.0378,,27.60416667,,,,,,FBP-YG-17.png,0.35,1.2,16,0.5,,,,,,,,,,,,,0,47,47,15,1,,,,,,,,,,,,,,,,,,,,,,,,,,,,
,,,,,SPR24_076,20,Female,2024-04-22_17h04.30.546,jersey_experiment_5_v0,2023.2.2,Win32,84.74576271,,,,,,,,,,,,,,,,682.6712,683.9655,683.9655,684.53,return,0.0477,,77.21354167,,,,,,FBP-PT-17.png,0.4,1.2,48,0.5,,,,,,,,,,,,,0,48,48,47,1,,,,,,,,,,,,,,,,,,,,,,,,,,,,
,,,,,SPR24_076,20,Female,2024-04-22_17h04.30.546,jersey_experiment_5_v0,2023.2.2,Win32,84.74576271,,,,,,,,,,,,,,,,684.5302,685.8241,685.8242,686.5065,return,0.098,,92.05729167,,,,,,FBP-YG-19.png,0.45,1.2,30,0.5,,,,,,,,,,,,,0,49,49,29,1,,,,,,,,,,,,,,,,,,,,,,,,,,,,
,,,,,SPR24_076,20,Female,2024-04-22_17h04.30.546,jersey_experiment_5_v0,2023.2.2,Win32,84.74576271,,,,,,,,,,,,,,,,686.5067,687.8007,687.8008,688.8712,return,0.6198,,77.34375,,,,,,FBP-YG-19.png,0.43,1.2,29,0.5,,,,,,,,,,,,,0,50,50,28,1,,,,,,,,,,,,,,,,,,,,,,,,,,,,
,,,,,SPR24_076,20,Female,2024-04-22_17h04.30.546,jersey_experiment_5_v0,2023.2.2,Win32,84.74576271,,,,,,,,,,,,,,,,688.8715,689.9184,689.9184,691.1302,return,0.0051,,74.609375,,,,,,FBP-RB-19.png,0.4,1.2,43,0.25,,,,,,,,,,,,,0,51,51,42,1,,,,,,,,,,,,,,,,,,,,,,,,,,,,
,,,,,SPR24_076,20,Female,2024-04-22_17h04.30.546,jersey_experiment_5_v0,2023.2.2,Win32,84.74576271,,,,,,,,,,,,,,,,691.1304,692.4244,692.4245,693.0832,return,0.0853,,89.32291667,,,,,,FBP-PT-17.png,0.45,1.2,50,0.5,,,,,,,,,,,,,0,52,52,49,1,,,,,,,,,,,,,,,,,,,,,,,,,,,,
,,,,,SPR24_076,20,Female,2024-04-22_17h04.30.546,jersey_experiment_5_v0,2023.2.2,Win32,84.74576271,,,,,,,,,,,,,,,,693.0834,694.1304,694.1304,695.2597,return,0.072,,23.56770833,,,,,,FBP-RB-17.png,0.35,1.2,31,0.25,,,,,,,,,,,,,0,53,53,30,1,,,,,,,,,,,,,,,,,,,,,,,,,,,,
,,,,,SPR24_076,20,Female,2024-04-22_17h04.30.546,jersey_experiment_5_v0,2023.2.2,Win32,84.74576271,,,,,,,,,,,,,,,,695.26,696.3069,696.3069,698.3538,return,0.0707,,25.13020833,,,,,,FBP-RB-18.png,0.35,1.2,36,0.25,,,,,,,,,,,,,0,54,54,35,1,,,,,,,,,,,,,,,,,,,,,,,,,,,,
,,,,,SPR24_076,20,Female,2024-04-22_17h04.30.546,jersey_experiment_5_v0,2023.2.2,Win32,84.74576271,,,,,,,,,,,,,,,,698.354,699.6481,699.6482,700.2833,return,0.0277,,25,,,,,,FBP-PT-17.png,0.37,1.2,47,0.5,,,,,,,,,,,,,0,55,55,46,1,,,,,,,,,,,,,,,,,,,,,,,,,,,,
,,,,,SPR24_076,20,Female,2024-04-22_17h04.30.546,jersey_experiment_5_v0,2023.2.2,Win32,84.74576271,,,,,,,,,,,,,,,,700.2834,701.5775,701.5776,702.0012,return,0.1041,,25,,,,,,FBP-PT-18.png,0.37,1.2,52,0.5,,,,,,,,,,,,,0,56,56,51,1,,,,,,,,,,,,,,,,,,,,,,,,,,,,
,,,,,SPR24_076,20,Female,2024-04-22_17h04.30.546,jersey_experiment_5_v0,2023.2.2,Win32,84.74576271,,,,,,,,,,,,,,,,702.0014,703.0483,703.0483,704.3661,return,0.0707,,36.19791667,,,,,,FBP-OG-81.png,0.4,1.2,8,0.25,,,,,,,,,,,,,0,57,57,7,1,,,,,,,,,,,,,,,,,,,,,,,,,,,,
,,,,,SPR24_076,20,Female,2024-04-22_17h04.30.546,jersey_experiment_5_v0,2023.2.2,Win32,84.74576271,,,,,,,,,,,,,,,,704.3663,705.6601,705.6602,706.2719,return,0.0468,,23.95833333,,,,,,FBP-PT-19.png,0.37,1.2,57,0.5,,,,,,,,,,,,,0,58,58,56,1,,,,,,,,,,,,,,,,,,,,,,,,,,,,
,,,,,SPR24_076,20,Female,2024-04-22_17h04.30.546,jersey_experiment_5_v0,2023.2.2,Win32,84.74576271,,,,,,,,,,,,,,,,706.2722,707.319,707.319,708.0485,return,0.0097,,24.609375,,,,,,FBP-OG-91.png,0.37,1.2,12,0.25,,,,,,,,,,,,,0,59,59,11,1,,,,,,,,,,,,,,,,,,,,,,,,,,,,
,,,,,SPR24_076,20,Female,2024-04-22_17h04.30.546,jersey_experiment_5_v0,2023.2.2,Win32,84.74576271,,,,,,,,,,,,,,,,708.05,709.3425,709.3426,710.025,return,0.0399,,25.65104167,,,,,,FBP-YG-71.png,0.37,1.2,17,0.5,,,,,,,,,,,,,,,,,,0,0,0,16,1,,,,,,,,,,,,,,,,,,,,,,,
,,,,,SPR24_076,20,Female,2024-04-22_17h04.30.546,jersey_experiment_5_v0,2023.2.2,Win32,84.74576271,,,,,,,,,,,,,,,,710.0253,711.072,711.0721,711.778,return,0.0956,,25.390625,,,,,,FBP-OG-17.png,0.37,1.2,2,0.25,,,,,,,,,,,,,,,,,,0,1,1,1,1,,,,,,,,,,,,,,,,,,,,,,,
,,,,,SPR24_076,20,Female,2024-04-22_17h04.30.546,jersey_experiment_5_v0,2023.2.2,Win32,84.74576271,,,,,,,,,,,,,,,,711.7782,712.825,712.8251,713.531,return,0.0987,,25.390625,,,,,,FBP-RB-71.png,0.37,1.2,32,0.25,,,,,,,,,,,,,,,,,,0,2,2,31,1,,,,,,,,,,,,,,,,,,,,,,,
,,,,,SPR24_076,20,Female,2024-04-22_17h04.30.546,jersey_experiment_5_v0,2023.2.2,Win32,84.74576271,,,,,,,,,,,,,,,,713.5313,714.5781,714.5782,715.5664,return,0.0374,,71.61458333,,,,,,FBP-OG-18.png,0.4,1.2,8,0.25,,,,,,,,,,,,,,,,,,0,3,3,7,1,,,,,,,,,,,,,,,,,,,,,,,
,,,,,SPR24_076,20,Female,2024-04-22_17h04.30.546,jersey_experiment_5_v0,2023.2.2,Win32,84.74576271,,,,,,,,,,,,,,,,715.5666,716.8604,716.8604,717.39,return,0.0589,,76.82291667,,,,,,FBP-YG-71.png,0.4,1.2,18,0.5,,,,,,,,,,,,,,,,,,0,4,4,17,1,,,,,,,,,,,,,,,,,,,,,,,
,,,,,SPR24_076,20,Female,2024-04-22_17h04.30.546,jersey_experiment_5_v0,2023.2.2,Win32,84.74576271,,,,,,,,,,,,,,,,717.3902,718.6841,718.6842,719.4019,return,0.0408,,91.796875,,,,,,FBP-YG-81.png,0.43,1.2,24,0.5,,,,,,,,,,,,,,,,,,0,5,5,23,1,,,,,,,,,,,,,,,,,,,,,,,
,,,,,SPR24_076,20,Female,2024-04-22_17h04.30.546,jersey_experiment_5_v0,2023.2.2,Win32,84.74576271,,,,,,,,,,,,,,,,719.4021,720.449,720.449,721.5195,return,0.07,,99.08854167,,,,,,FBP-RB-81.png,0.43,1.2,39,0.25,,,,,,,,,,,,,,,,,,0,6,6,38,1,,,,,,,,,,,,,,,,,,,,,,,
,,,,,SPR24_076,20,Female,2024-04-22_17h04.30.546,jersey_experiment_5_v0,2023.2.2,Win32,84.74576271,,,,,,,,,,,,,,,,721.5197,722.5666,722.5666,723.3197,return,0.0889,,99.86979167,,,,,,FBP-RB-81.png,0.45,1.2,40,0.25,,,,,,,,,,,,,,,,,,0,7,7,39,1,,,,,,,,,,,,,,,,,,,,,,,
,,,,,SPR24_076,20,Female,2024-04-22_17h04.30.546,jersey_experiment_5_v0,2023.2.2,Win32,84.74576271,,,,,,,,,,,,,,,,723.3199,724.3667,724.3667,725.6608,return,0.1897,,73.30729167,,,,,,FBP-RB-91.png,0.37,1.2,42,0.25,,,,,,,,,,,,,,,,,,0,8,8,41,1,,,,,,,,,,,,,,,,,,,,,,,
,,,,,SPR24_076,20,Female,2024-04-22_17h04.30.546,jersey_experiment_5_v0,2023.2.2,Win32,84.74576271,,,,,,,,,,,,,,,,725.6611,726.7079,726.7079,727.4846,return,0.0264,,84.11458333,,,,,,FBP-RB-71.png,0.4,1.2,33,0.25,,,,,,,,,,,,,,,,,,0,9,9,32,1,,,,,,,,,,,,,,,,,,,,,,,
,,,,,SPR24_076,20,Female,2024-04-22_17h04.30.546,jersey_experiment_5_v0,2023.2.2,Win32,84.74576271,,,,,,,,,,,,,,,,727.4848,728.7785,728.7786,729.2961,return,0.0003,,85.28645833,,,,,,FBP-PT-91.png,0.4,1.2,58,0.5,,,,,,,,,,,,,,,,,,0,10,10,57,1,,,,,,,,,,,,,,,,,,,,,,,
,,,,,SPR24_076,20,Female,2024-04-22_17h04.30.546,jersey_experiment_5_v0,2023.2.2,Win32,84.74576271,,,,,,,,,,,,,,,,729.2962,730.5902,730.5902,731.9318,return,0.1552,,98.95833333,,,,,,FBP-YG-91.png,0.45,1.2,30,0.5,,,,,,,,,,,,,,,,,,0,11,11,29,1,,,,,,,,,,,,,,,,,,,,,,,
,,,,,SPR24_076,20,Female,2024-04-22_17h04.30.546,jersey_experiment_5_v0,2023.2.2,Win32,84.74576271,,,,,,,,,,,,,,,,731.9319,733.2259,733.226,734.4965,return,0.1988,,24.47916667,,,,,,FBP-PT-71.png,0.35,1.2,46,0.5,,,,,,,,,,,,,,,,,,0,12,12,45,1,,,,,,,,,,,,,,,,,,,,,,,
,,,,,SPR24_076,20,Female,2024-04-22_17h04.30.546,jersey_experiment_5_v0,2023.2.2,Win32,84.74576271,,,,,,,,,,,,,,,,734.4967,735.5434,735.5435,736.6731,return,0.165,,76.5625,,,,,,FBP-RB-71.png,0.43,1.2,34,0.25,,,,,,,,,,,,,,,,,,0,13,13,33,1,,,,,,,,,,,,,,,,,,,,,,,
,,,,,SPR24_076,20,Female,2024-04-22_17h04.30.546,jersey_experiment_5_v0,2023.2.2,Win32,84.74576271,,,,,,,,,,,,,,,,736.6733,737.967,737.9671,738.8144,return,0.1078,,96.61458333,,,,,,FBP-PT-81.png,0.43,1.2,54,0.5,,,,,,,,,,,,,,,,,,0,14,14,53,1,,,,,,,,,,,,,,,,,,,,,,,
,,,,,SPR24_076,20,Female,2024-04-22_17h04.30.546,jersey_experiment_5_v0,2023.2.2,Win32,84.74576271,,,,,,,,,,,,,,,,738.8146,740.1086,740.1087,740.9907,return,0.0477,,25.91145833,,,,,,FBP-PT-81.png,0.35,1.2,51,0.5,,,,,,,,,,,,,,,,,,0,15,15,50,1,,,,,,,,,,,,,,,,,,,,,,,
,,,,,SPR24_076,20,Female,2024-04-22_17h04.30.546,jersey_experiment_5_v0,2023.2.2,Win32,84.74576271,,,,,,,,,,,,,,,,740.991,742.285,742.285,742.8143,return,0.0467,,25.91145833,,,,,,FBP-PT-71.png,0.37,1.2,47,0.5,,,,,,,,,,,,,,,,,,0,16,16,46,1,,,,,,,,,,,,,,,,,,,,,,,
,,,,,SPR24_076,20,Female,2024-04-22_17h04.30.546,jersey_experiment_5_v0,2023.2.2,Win32,84.74576271,,,,,,,,,,,,,,,,742.8146,744.1087,744.1087,745.0381,return,0.035,,98.828125,,,,,,FBP-YG-91.png,0.43,1.2,29,0.5,,,,,,,,,,,,,,,,,,0,17,17,28,1,,,,,,,,,,,,,,,,,,,,,,,
,,,,,SPR24_076,20,Female,2024-04-22_17h04.30.546,jersey_experiment_5_v0,2023.2.2,Win32,84.74576271,,,,,,,,,,,,,,,,745.0383,746.0853,746.0853,747.3203,return,0.1822,,22.39583333,,,,,,FBP-RB-81.png,0.37,1.2,37,0.25,,,,,,,,,,,,,,,,,,0,18,18,36,1,,,,,,,,,,,,,,,,,,,,,,,
,,,,,SPR24_076,20,Female,2024-04-22_17h04.30.546,jersey_experiment_5_v0,2023.2.2,Win32,84.74576271,,,,,,,,,,,,,,,,747.3205,748.6145,748.6146,751.05,return,0.4504,,50,,,,,,FBP-PT-81.png,0.4,1.2,53,0.5,,,,,,,,,,,,,,,,,,0,19,19,52,1,,,,,,,,,,,,,,,,,,,,,,,
,,,,,SPR24_076,20,Female,2024-04-22_17h04.30.546,jersey_experiment_5_v0,2023.2.2,Win32,84.74576271,,,,,,,,,,,,,,,,751.0503,752.3441,752.3442,753.1678,return,0.0847,,27.86458333,,,,,,FBP-YG-81.png,0.37,1.2,22,0.5,,,,,,,,,,,,,,,,,,0,20,20,21,1,,,,,,,,,,,,,,,,,,,,,,,
,,,,,SPR24_076,20,Female,2024-04-22_17h04.30.546,jersey_experiment_5_v0,2023.2.2,Win32,84.74576271,,,,,,,,,,,,,,,,753.168,754.4618,754.4618,755.7679,return,0.1122,,51.30208333,,,,,,FBP-PT-71.png,0.4,1.2,48,0.5,,,,,,,,,,,,,,,,,,0,21,21,47,1,,,,,,,,,,,,,,,,,,,,,,,
,,,,,SPR24_076,20,Female,2024-04-22_17h04.30.546,jersey_experiment_5_v0,2023.2.2,Win32,84.74576271,,,,,,,,,,,,,,,,755.7681,756.8149,756.8149,758.0973,return,0.047,,91.92708333,,,,,,FBP-OG-17.png,0.45,1.2,5,0.25,,,,,,,,,,,,,,,,,,0,22,22,4,1,,,,,,,,,,,,,,,,,,,,,,,
,,,,,SPR24_076,20,Female,2024-04-22_17h04.30.546,jersey_experiment_5_v0,2023.2.2,Win32,84.74576271,,,,,,,,,,,,,,,,758.0975,759.3915,759.3916,760.062,return,0.0604,,26.69270833,,,,,,FBP-YG-81.png,0.35,1.2,21,0.5,,,,,,,,,,,,,,,,,,0,23,23,20,1,,,,,,,,,,,,,,,,,,,,,,,
,,,,,SPR24_076,20,Female,2024-04-22_17h04.30.546,jersey_experiment_5_v0,2023.2.2,Win32,84.74576271,,,,,,,,,,,,,,,,760.0622,761.3564,761.3564,761.9681,return,0.0003,,25.91145833,,,,,,FBP-PT-91.png,0.37,1.2,57,0.5,,,,,,,,,,,,,,,,,,0,24,24,56,1,,,,,,,,,,,,,,,,,,,,,,,
,,,,,SPR24_076,20,Female,2024-04-22_17h04.30.546,jersey_experiment_5_v0,2023.2.2,Win32,84.74576271,,,,,,,,,,,,,,,,761.9683,763.0151,763.0151,763.8506,return,0.5207,,25.91145833,,,,,,FBP-OG-18.png,0.37,1.2,7,0.25,,,,,,,,,,,,,,,,,,0,25,25,6,1,,,,,,,,,,,,,,,,,,,,,,,
,,,,,SPR24_076,20,Female,2024-04-22_17h04.30.546,jersey_experiment_5_v0,2023.2.2,Win32,84.74576271,,,,,,,,,,,,,,,,763.8507,764.8975,764.8975,767.4977,return,0.4177,,49.609375,,,,,,FBP-RB-81.png,0.4,1.2,38,0.25,,,,,,,,,,,,,,,,,,0,26,26,37,1,,,,,,,,,,,,,,,,,,,,,,,
,,,,,SPR24_076,20,Female,2024-04-22_17h04.30.546,jersey_experiment_5_v0,2023.2.2,Win32,84.74576271,,,,,,,,,,,,,,,,767.4978,768.7919,768.7919,769.6154,return,0.0143,,24.47916667,,,,,,FBP-YG-91.png,0.35,1.2,26,0.5,,,,,,,,,,,,,,,,,,0,27,27,25,1,,,,,,,,,,,,,,,,,,,,,,,
,,,,,SPR24_076,20,Female,2024-04-22_17h04.30.546,jersey_experiment_5_v0,2023.2.2,Win32,84.74576271,,,,,,,,,,,,,,,,769.6157,770.6624,770.6624,771.2272,return,0.0746,,24.47916667,,,,,,FBP-OG-17.png,0.35,1.2,1,0.25,,,,,,,,,,,,,,,,,,0,28,28,0,1,,,,,,,,,,,,,,,,,,,,,,,
,,,,,SPR24_076,20,Female,2024-04-22_17h04.30.546,jersey_experiment_5_v0,2023.2.2,Win32,84.74576271,,,,,,,,,,,,,,,,771.2275,772.5216,772.5216,773.4626,return,0.3251,,71.875,,,,,,FBP-PT-71.png,0.43,1.2,49,0.5,,,,,,,,,,,,,,,,,,0,29,29,48,1,,,,,,,,,,,,,,,,,,,,,,,
,,,,,SPR24_076,20,Female,2024-04-22_17h04.30.546,jersey_experiment_5_v0,2023.2.2,Win32,84.74576271,,,,,,,,,,,,,,,,773.4628,774.5097,774.5097,775.2743,return,0.0757,,90.75520833,,,,,,FBP-RB-91.png,0.43,1.2,44,0.25,,,,,,,,,,,,,,,,,,0,30,30,43,1,,,,,,,,,,,,,,,,,,,,,,,
,,,,,SPR24_076,20,Female,2024-04-22_17h04.30.546,jersey_experiment_5_v0,2023.2.2,Win32,84.74576271,,,,,,,,,,,,,,,,775.2746,776.3214,776.3215,777.5216,return,0.0478,,96.61458333,,,,,,FBP-OG-17.png,0.43,1.2,4,0.25,,,,,,,,,,,,,,,,,,0,31,31,3,1,,,,,,,,,,,,,,,,,,,,,,,
,,,,,SPR24_076,20,Female,2024-04-22_17h04.30.546,jersey_experiment_5_v0,2023.2.2,Win32,84.74576271,,,,,,,,,,,,,,,,777.5219,778.5687,778.5688,779.9452,return,0.4283,,99.34895833,,,,,,FBP-RB-91.png,0.45,1.2,45,0.25,,,,,,,,,,,,,,,,,,0,32,32,44,1,,,,,,,,,,,,,,,,,,,,,,,
,,,,,SPR24_076,20,Female,2024-04-22_17h04.30.546,jersey_experiment_5_v0,2023.2.2,Win32,84.74576271,,,,,,,,,,,,,,,,779.9454,780.9921,780.9921,782.2158,return,0.1346,,22.78645833,,,,,,FBP-OG-19.png,0.37,1.2,12,0.25,,,,,,,,,,,,,,,,,,0,33,33,11,1,,,,,,,,,,,,,,,,,,,,,,,
,,,,,SPR24_076,20,Female,2024-04-22_17h04.30.546,jersey_experiment_5_v0,2023.2.2,Win32,84.74576271,,,,,,,,,,,,,,,,782.216,783.5101,783.5102,784.2511,return,0.0494,,83.33333333,,,,,,FBP-YG-71.png,0.45,1.2,20,0.5,,,,,,,,,,,,,,,,,,0,34,34,19,1,,,,,,,,,,,,,,,,,,,,,,,
,,,,,SPR24_076,20,Female,2024-04-22_17h04.30.546,jersey_experiment_5_v0,2023.2.2,Win32,84.74576271,,,,,,,,,,,,,,,,784.2514,785.5454,785.5454,786.2158,return,0.0416,,75.390625,,,,,,FBP-YG-71.png,0.43,1.2,19,0.5,,,,,,,,,,,,,,,,,,0,35,35,18,1,,,,,,,,,,,,,,,,,,,,,,,
,,,,,SPR24_076,20,Female,2024-04-22_17h04.30.546,jersey_experiment_5_v0,2023.2.2,Win32,84.74576271,,,,,,,,,,,,,,,,786.216,787.51,787.51,788.2044,return,0.0244,,83.72395833,,,,,,FBP-PT-81.png,0.45,1.2,55,0.5,,,,,,,,,,,,,,,,,,0,36,36,54,1,,,,,,,,,,,,,,,,,,,,,,,
,,,,,SPR24_076,20,Female,2024-04-22_17h04.30.546,jersey_experiment_5_v0,2023.2.2,Win32,84.74576271,,,,,,,,,,,,,,,,788.2046,789.4985,789.4986,790.0749,return,0.0514,,91.14583333,,,,,,FBP-PT-91.png,0.45,1.2,60,0.5,,,,,,,,,,,,,,,,,,0,37,37,59,1,,,,,,,,,,,,,,,,,,,,,,,
,,,,,SPR24_076,20,Female,2024-04-22_17h04.30.546,jersey_experiment_5_v0,2023.2.2,Win32,84.74576271,,,,,,,,,,,,,,,,790.0751,791.122,791.1221,792.3338,return,0.1528,,78.515625,,,,,,FBP-OG-18.png,0.43,1.2,9,0.25,,,,,,,,,,,,,,,,,,0,38,38,8,1,,,,,,,,,,,,,,,,,,,,,,,
,,,,,SPR24_076,20,Female,2024-04-22_17h04.30.546,jersey_experiment_5_v0,2023.2.2,Win32,84.74576271,,,,,,,,,,,,,,,,792.334,793.628,793.6281,795.0516,return,0.0251,,67.578125,,,,,,FBP-YG-91.png,0.4,1.2,28,0.5,,,,,,,,,,,,,,,,,,0,39,39,27,1,,,,,,,,,,,,,,,,,,,,,,,
,,,,,SPR24_076,20,Female,2024-04-22_17h04.30.546,jersey_experiment_5_v0,2023.2.2,Win32,84.74576271,,,,,,,,,,,,,,,,795.0518,796.3458,796.3458,797.1811,return,0.2141,,28.515625,,,,,,FBP-YG-91.png,0.37,1.2,27,0.5,,,,,,,,,,,,,,,,,,0,40,40,26,1,,,,,,,,,,,,,,,,,,,,,,,
,,,,,SPR24_076,20,Female,2024-04-22_17h04.30.546,jersey_experiment_5_v0,2023.2.2,Win32,84.74576271,,,,,,,,,,,,,,,,797.1813,798.4752,798.4752,800.1223,return,0.1224,,48.30729167,,,,,,FBP-YG-81.png,0.4,1.2,23,0.5,,,,,,,,,,,,,,,,,,0,41,41,22,1,,,,,,,,,,,,,,,,,,,,,,,
,,,,,SPR24_076,20,Female,2024-04-22_17h04.30.546,jersey_experiment_5_v0,2023.2.2,Win32,84.74576271,,,,,,,,,,,,,,,,800.1226,801.4164,801.4165,802.2519,return,0.2033,,27.734375,,,,,,FBP-PT-81.png,0.37,1.2,52,0.5,,,,,,,,,,,,,,,,,,0,42,42,51,1,,,,,,,,,,,,,,,,,,,,,,,
,,,,,SPR24_076,20,Female,2024-04-22_17h04.30.546,jersey_experiment_5_v0,2023.2.2,Win32,84.74576271,,,,,,,,,,,,,,,,802.2521,803.546,803.546,804.4872,return,0.0904,,24.73958333,,,,,,FBP-PT-91.png,0.35,1.2,56,0.5,,,,,,,,,,,,,,,,,,0,43,43,55,1,,,,,,,,,,,,,,,,,,,,,,,
,,,,,SPR24_076,20,Female,2024-04-22_17h04.30.546,jersey_experiment_5_v0,2023.2.2,Win32,84.74576271,,,,,,,,,,,,,,,,804.4874,805.5343,805.5343,806.4285,return,0.1074,,12.36979167,,,,,,FBP-OG-19.png,0.35,1.2,11,0.25,,,,,,,,,,,,,,,,,,0,44,44,10,1,,,,,,,,,,,,,,,,,,,,,,,
,,,,,SPR24_076,20,Female,2024-04-22_17h04.30.546,jersey_experiment_5_v0,2023.2.2,Win32,84.74576271,,,,,,,,,,,,,,,,806.4287,807.4755,807.4755,808.5697,return,0.0291,,31.51041667,,,,,,FBP-OG-19.png,0.4,1.2,13,0.25,,,,,,,,,,,,,,,,,,0,45,45,12,1,,,,,,,,,,,,,,,,,,,,,,,
,,,,,SPR24_076,20,Female,2024-04-22_17h04.30.546,jersey_experiment_5_v0,2023.2.2,Win32,84.74576271,,,,,,,,,,,,,,,,808.5699,809.6169,809.6169,810.4875,return,0.0668,,25.13020833,,,,,,FBP-RB-71.png,0.35,1.2,31,0.25,,,,,,,,,,,,,,,,,,0,46,46,30,1,,,,,,,,,,,,,,,,,,,,,,,
,,,,,SPR24_076,20,Female,2024-04-22_17h04.30.546,jersey_experiment_5_v0,2023.2.2,Win32,84.74576271,,,,,,,,,,,,,,,,810.4877,811.5344,811.5344,812.1344,return,0.1715,,25.13020833,,,,,,FBP-RB-91.png,0.35,1.2,41,0.25,,,,,,,,,,,,,,,,,,0,47,47,40,1,,,,,,,,,,,,,,,,,,,,,,,
,,,,,SPR24_076,20,Female,2024-04-22_17h04.30.546,jersey_experiment_5_v0,2023.2.2,Win32,84.74576271,,,,,,,,,,,,,,,,812.1346,813.1815,813.1816,814.1934,return,0.1414,,77.86458333,,,,,,FBP-OG-19.png,0.43,1.2,14,0.25,,,,,,,,,,,,,,,,,,0,48,48,13,1,,,,,,,,,,,,,,,,,,,,,,,
,,,,,SPR24_076,20,Female,2024-04-22_17h04.30.546,jersey_experiment_5_v0,2023.2.2,Win32,84.74576271,,,,,,,,,,,,,,,,814.1937,815.2405,815.2405,815.8876,return,0.0339,,74.86979167,,,,,,FBP-OG-17.png,0.4,1.2,3,0.25,,,,,,,,,,,,,,,,,,0,49,49,2,1,,,,,,,,,,,,,,,,,,,,,,,
,,,,,SPR24_076,20,Female,2024-04-22_17h04.30.546,jersey_experiment_5_v0,2023.2.2,Win32,84.74576271,,,,,,,,,,,,,,,,815.8877,816.9347,816.9347,817.6171,return,0.0384,,92.1875,,,,,,FBP-OG-18.png,0.45,1.2,10,0.25,,,,,,,,,,,,,,,,,,0,50,50,9,1,,,,,,,,,,,,,,,,,,,,,,,
,,,,,SPR24_076,20,Female,2024-04-22_17h04.30.546,jersey_experiment_5_v0,2023.2.2,Win32,84.74576271,,,,,,,,,,,,,,,,817.6173,818.9114,818.9114,820.0289,return,0.0828,,23.95833333,,,,,,FBP-YG-71.png,0.35,1.2,16,0.5,,,,,,,,,,,,,,,,,,0,51,51,15,1,,,,,,,,,,,,,,,,,,,,,,,
,,,,,SPR24_076,20,Female,2024-04-22_17h04.30.546,jersey_experiment_5_v0,2023.2.2,Win32,84.74576271,,,,,,,,,,,,,,,,820.0292,821.0761,821.0761,822.2055,return,0.0469,,89.84375,,,,,,FBP-RB-71.png,0.45,1.2,35,0.25,,,,,,,,,,,,,,,,,,0,52,52,34,1,,,,,,,,,,,,,,,,,,,,,,,
,,,,,SPR24_076,20,Female,2024-04-22_17h04.30.546,jersey_experiment_5_v0,2023.2.2,Win32,84.74576271,,,,,,,,,,,,,,,,822.2058,823.2525,823.2525,824.2408,return,0.0102,,25,,,,,,FBP-OG-18.png,0.35,1.2,6,0.25,,,,,,,,,,,,,,,,,,0,53,53,5,1,,,,,,,,,,,,,,,,,,,,,,,
,,,,,SPR24_076,20,Female,2024-04-22_17h04.30.546,jersey_experiment_5_v0,2023.2.2,Win32,84.74576271,,,,,,,,,,,,,,,,824.2411,825.288,825.2881,826.888,return,0.1228,,77.86458333,,,,,,FBP-OG-19.png,0.45,1.2,15,0.25,,,,,,,,,,,,,,,,,,0,54,54,14,1,,,,,,,,,,,,,,,,,,,,,,,
,,,,,SPR24_076,20,Female,2024-04-22_17h04.30.546,jersey_experiment_5_v0,2023.2.2,Win32,84.74576271,,,,,,,,,,,,,,,,826.8882,828.1821,828.1821,829.1585,return,0.019,,76.82291667,,,,,,FBP-PT-91.png,0.43,1.2,59,0.5,,,,,,,,,,,,,,,,,,0,55,55,58,1,,,,,,,,,,,,,,,,,,,,,,,
,,,,,SPR24_076,20,Female,2024-04-22_17h04.30.546,jersey_experiment_5_v0,2023.2.2,Win32,84.74576271,,,,,,,,,,,,,,,,829.1588,830.2058,830.2059,831.8881,return,0.009,,73.828125,,,,,,FBP-RB-91.png,0.4,1.2,43,0.25,,,,,,,,,,,,,,,,,,0,56,56,42,1,,,,,,,,,,,,,,,,,,,,,,,
,,,,,SPR24_076,20,Female,2024-04-22_17h04.30.546,jersey_experiment_5_v0,2023.2.2,Win32,84.74576271,,,,,,,,,,,,,,,,831.8883,833.1823,833.1823,833.7118,return,0.0842,,87.109375,,,,,,FBP-PT-71.png,0.45,1.2,50,0.5,,,,,,,,,,,,,,,,,,0,57,57,49,1,,,,,,,,,,,,,,,,,,,,,,,
,,,,,SPR24_076,20,Female,2024-04-22_17h04.30.546,jersey_experiment_5_v0,2023.2.2,Win32,84.74576271,,,,,,,,,,,,,,,,833.712,834.7588,834.7588,836.4179,return,0.1422,,24.34895833,,,,,,FBP-RB-81.png,0.35,1.2,36,0.25,,,,,,,,,,,,,,,,,,0,58,58,35,1,,,,,,,,,,,,,,,,,,,,,,,
,,,,,SPR24_076,20,Female,2024-04-22_17h04.30.546,jersey_experiment_5_v0,2023.2.2,Win32,84.74576271,,,,,,,,,,,,,,,,836.4182,837.7119,837.712,839.6179,return,0.3196,,99.08854167,,,,,,FBP-YG-81.png,0.45,1.2,25,0.5,,,,,,,,,,,,,,,,,,0,59,59,24,1,,,,,,,,,,,,,,,,,,,,,,,
,,,,,SPR24_076,20,Female,2024-04-22_17h04.30.546,jersey_experiment_5_v0,2023.2.2,Win32,84.74576271,,,,,,,,,,,,,,,,,,,,,,,,,,,,,,,,,,,,,,,,,,,,,,,,,,,,,,,,839.6183,843.9592,return,4.3374,,,,,,,,,,,,,,,,,,,
,,,,,SPR24_076,20,Female,2024-04-22_17h04.30.546,jersey_experiment_5_v0,2023.2.2,Win32,84.74576271,,,,,,,,,,,,,,,,,,,,,,,,,,,,,,,,,,,,,,,,,,,,,,,,,,,,,,,,,,,,,843.9594,847.7596,1,2.5787,return,1.1991,,,,,,,,,,,,
,,,,,SPR24_076,20,Female,2024-04-22_17h04.30.546,jersey_experiment_5_v0,2023.2.2,Win32,84.74576271,,,,,,,,,,,,,,,,,,,,,,,,,,,,,,,,,,,,,,,,,,,,,,,,,,,,,,,,,,,,,,,,,,,,847.7597,951.9213,"if different races have an impact on what we view as ""husky"" ?",right,74.2734,,,,,,
,,,,,SPR24_076,20,Female,2024-04-22_17h04.30.546,jersey_experiment_5_v0,2023.2.2,Win32,84.74576271,,,,,,,,,,,,,,,,,,,,,,,,,,,,,,,,,,,,,,,,,,,,,,,,,,,,,,,,,,,,,,,,,,,,,,,,,,951.9213,955.4691,return,3.5373,