requirements.started,requirements.stopped,key_resp_3.keys,key_resp_3.rt,key_resp_3.duration,Subject ID,Age,Gender,date,expName,psychopyVersion,OS,frameRate,instructions1.started,instructions1.stopped,key_resp.keys,key_resp.rt,key_resp.duration,example.started,example.stopped,enter_2.keys,enter_2.rt,enter_2.duration,instructions2.started,instructions2.stopped,enter_3.keys,enter_3.rt,enter_3.duration,image.started,image.stopped,slider_2.started,slider_2.stopped,next.keys,next.rt,next.duration,slider.response,trial_block_1.thisRepN,trial_block_1.thisTrialN,trial_block_1.thisN,trial_block_1.thisIndex,trial_block_1.ran,Path,Width,Height,Index,Duration,trial_block_2.thisRepN,trial_block_2.thisTrialN,trial_block_2.thisN,trial_block_2.thisIndex,trial_block_2.ran,rest_break.started,rest_break.stopped,end_break.started,end_break.stopped,key_resp_5.keys,key_resp_5.rt,key_resp_5.duration,trial_block_3.thisRepN,trial_block_3.thisTrialN,trial_block_3.thisN,trial_block_3.thisIndex,trial_block_3.ran,trial_block_4.thisRepN,trial_block_4.thisTrialN,trial_block_4.thisN,trial_block_4.thisIndex,trial_block_4.ran,questions_intro.started,questions_intro.stopped,enter_12.keys,enter_12.rt,enter_12.duration,question2.started,question2.stopped,question_doingbest.response,question_doingbest.rt,enter_15.keys,enter_15.rt,enter_15.duration,pattern.started,pattern.stopped,pattern_2.text,enter_17.keys,enter_17.rt,enter_17.duration,thankyou.started,thankyou.stopped,enter_14.keys,enter_14.rt,enter_14.duration
1E-04,9.8437,return,9.8343,,SPR24_048,19,Male,2024-04-15_15h03.21.782,jersey_experiment_5_v0,2023.2.2,Win32,85.47008547,,,,,,,,,,,,,,,,,,,,,,,,,,,,,,,,,,,,,,,,,,,,,,,,,,,,,,,,,,,,,,,,,,,,,,,,,,,,,,
,,,,,SPR24_048,19,Male,2024-04-15_15h03.21.782,jersey_experiment_5_v0,2023.2.2,Win32,85.47008547,9.8438,19.2086,return,9.3492,,,,,,,,,,,,,,,,,,,,,,,,,,,,,,,,,,,,,,,,,,,,,,,,,,,,,,,,,,,,,,,,,,,,,,,,,,
,,,,,SPR24_048,19,Male,2024-04-15_15h03.21.782,jersey_experiment_5_v0,2023.2.2,Win32,85.47008547,,,,,,19.2088,24.6205,return,5.3739,,,,,,,,,,,,,,,,,,,,,,,,,,,,,,,,,,,,,,,,,,,,,,,,,,,,,,,,,,,,,,,,,,,,,
,,,,,SPR24_048,19,Male,2024-04-15_15h03.21.782,jersey_experiment_5_v0,2023.2.2,Win32,85.47008547,,,,,,,,,,,24.6205,44.033,return,19.3899,,,,,,,,,,,,,,,,,,,,,,,,,,,,,,,,,,,,,,,,,,,,,,,,,,,,,,,,,,,,,,,,
,,,,,SPR24_048,19,Male,2024-04-15_15h03.21.782,jersey_experiment_5_v0,2023.2.2,Win32,85.47008547,,,,,,,,,,,,,,,,44.0402,45.3388,45.3389,60.1749,return,6.259,,75,0,0,0,14,1,FBP-OG-91.png,0.45,1.2,15,0.5,,,,,,,,,,,,,,,,,,,,,,,,,,,,,,,,,,,,,,,,,,,,,
,,,,,SPR24_048,19,Male,2024-04-15_15h03.21.782,jersey_experiment_5_v0,2023.2.2,Win32,85.47008547,,,,,,,,,,,,,,,,60.1792,61.4803,61.4804,67.9866,return,4.0718,,88.54166667,0,1,1,39,1,FBP-RB-18.png,0.45,1.2,40,0.5,,,,,,,,,,,,,,,,,,,,,,,,,,,,,,,,,,,,,,,,,,,,,
,,,,,SPR24_048,19,Male,2024-04-15_15h03.21.782,jersey_experiment_5_v0,2023.2.2,Win32,85.47008547,,,,,,,,,,,,,,,,67.9908,69.2924,69.2925,73.5279,return,1.4537,,24.47916667,0,2,2,0,1,FBP-OG-71.png,0.35,1.2,1,0.5,,,,,,,,,,,,,,,,,,,,,,,,,,,,,,,,,,,,,,,,,,,,,
,,,,,SPR24_048,19,Male,2024-04-15_15h03.21.782,jersey_experiment_5_v0,2023.2.2,Win32,85.47008547,,,,,,,,,,,,,,,,73.5282,74.822,74.822,81.3047,return,4.1703,,77.34375,0,3,3,33,1,FBP-RB-17.png,0.43,1.2,34,0.5,,,,,,,,,,,,,,,,,,,,,,,,,,,,,,,,,,,,,,,,,,,,,
,,,,,SPR24_048,19,Male,2024-04-15_15h03.21.782,jersey_experiment_5_v0,2023.2.2,Win32,85.47008547,,,,,,,,,,,,,,,,81.3089,82.3517,82.3518,87.0696,return,2.3442,,39.32291667,0,4,4,20,1,FBP-YG-18.png,0.35,1.2,21,0.25,,,,,,,,,,,,,,,,,,,,,,,,,,,,,,,,,,,,,,,,,,,,,
,,,,,SPR24_048,19,Male,2024-04-15_15h03.21.782,jersey_experiment_5_v0,2023.2.2,Win32,85.47008547,,,,,,,,,,,,,,,,87.0699,88.3639,88.364,94.1757,return,3.0122,,50,0,5,5,42,1,FBP-RB-19.png,0.4,1.2,43,0.5,,,,,,,,,,,,,,,,,,,,,,,,,,,,,,,,,,,,,,,,,,,,,
,,,,,SPR24_048,19,Male,2024-04-15_15h03.21.782,jersey_experiment_5_v0,2023.2.2,Win32,85.47008547,,,,,,,,,,,,,,,,94.1759,95.2228,95.2228,99.0232,return,1.836,,88.02083333,0,6,6,54,1,FBP-PT-18.png,0.45,1.2,55,0.25,,,,,,,,,,,,,,,,,,,,,,,,,,,,,,,,,,,,,,,,,,,,,
,,,,,SPR24_048,19,Male,2024-04-15_15h03.21.782,jersey_experiment_5_v0,2023.2.2,Win32,85.47008547,,,,,,,,,,,,,,,,99.0234,100.3172,100.3172,104.3762,return,1.8769,,72.52604167,0,7,7,9,1,FBP-OG-81.png,0.45,1.2,10,0.5,,,,,,,,,,,,,,,,,,,,,,,,,,,,,,,,,,,,,,,,,,,,,
,,,,,SPR24_048,19,Male,2024-04-15_15h03.21.782,jersey_experiment_5_v0,2023.2.2,Win32,85.47008547,,,,,,,,,,,,,,,,104.3764,105.4232,105.4232,110.0586,return,2.5453,,89.71354167,0,8,8,19,1,FBP-YG-17.png,0.45,1.2,20,0.25,,,,,,,,,,,,,,,,,,,,,,,,,,,,,,,,,,,,,,,,,,,,,
,,,,,SPR24_048,19,Male,2024-04-15_15h03.21.782,jersey_experiment_5_v0,2023.2.2,Win32,85.47008547,,,,,,,,,,,,,,,,110.0588,111.1056,111.1057,115.5529,return,1.7034,,16.40625,0,9,9,45,1,FBP-PT-17.png,0.35,1.2,46,0.25,,,,,,,,,,,,,,,,,,,,,,,,,,,,,,,,,,,,,,,,,,,,,
,,,,,SPR24_048,19,Male,2024-04-15_15h03.21.782,jersey_experiment_5_v0,2023.2.2,Win32,85.47008547,,,,,,,,,,,,,,,,115.5533,116.8472,116.8472,121.871,return,3.3557,,42.1875,0,10,10,12,1,FBP-OG-91.png,0.4,1.2,13,0.5,,,,,,,,,,,,,,,,,,,,,,,,,,,,,,,,,,,,,,,,,,,,,
,,,,,SPR24_048,19,Male,2024-04-15_15h03.21.782,jersey_experiment_5_v0,2023.2.2,Win32,85.47008547,,,,,,,,,,,,,,,,121.8712,123.1651,123.1651,128.4476,return,3.4603,,78.64583333,0,11,11,8,1,FBP-OG-81.png,0.43,1.2,9,0.5,,,,,,,,,,,,,,,,,,,,,,,,,,,,,,,,,,,,,,,,,,,,,
,,,,,SPR24_048,19,Male,2024-04-15_15h03.21.782,jersey_experiment_5_v0,2023.2.2,Win32,85.47008547,,,,,,,,,,,,,,,,128.4519,129.4947,129.4948,133.7537,return,1.9719,,63.28125,0,12,12,27,1,FBP-YG-19.png,0.4,1.2,28,0.25,,,,,,,,,,,,,,,,,,,,,,,,,,,,,,,,,,,,,,,,,,,,,
,,,,,SPR24_048,19,Male,2024-04-15_15h03.21.782,jersey_experiment_5_v0,2023.2.2,Win32,85.47008547,,,,,,,,,,,,,,,,133.754,134.8008,134.8009,139.0833,return,2.0149,,79.42708333,0,13,13,28,1,FBP-YG-19.png,0.43,1.2,29,0.25,,,,,,,,,,,,,,,,,,,,,,,,,,,,,,,,,,,,,,,,,,,,,
,,,,,SPR24_048,19,Male,2024-04-15_15h03.21.782,jersey_experiment_5_v0,2023.2.2,Win32,85.47008547,,,,,,,,,,,,,,,,139.0834,140.3775,140.3775,145.6952,return,2.8263,,17.31770833,0,14,14,40,1,FBP-RB-19.png,0.35,1.2,41,0.5,,,,,,,,,,,,,,,,,,,,,,,,,,,,,,,,,,,,,,,,,,,,,
,,,,,SPR24_048,19,Male,2024-04-15_15h03.21.782,jersey_experiment_5_v0,2023.2.2,Win32,85.47008547,,,,,,,,,,,,,,,,145.6954,146.7424,146.7424,150.1896,return,1.556,,33.33333333,0,15,15,51,1,FBP-PT-18.png,0.37,1.2,52,0.25,,,,,,,,,,,,,,,,,,,,,,,,,,,,,,,,,,,,,,,,,,,,,
,,,,,SPR24_048,19,Male,2024-04-15_15h03.21.782,jersey_experiment_5_v0,2023.2.2,Win32,85.47008547,,,,,,,,,,,,,,,,150.1899,151.4836,151.4837,154.978,return,1.6482,,49.21875,0,16,16,37,1,FBP-RB-18.png,0.4,1.2,38,0.5,,,,,,,,,,,,,,,,,,,,,,,,,,,,,,,,,,,,,,,,,,,,,
,,,,,SPR24_048,19,Male,2024-04-15_15h03.21.782,jersey_experiment_5_v0,2023.2.2,Win32,85.47008547,,,,,,,,,,,,,,,,154.9783,156.025,156.0251,159.5782,return,1.5694,,92.05729167,0,17,17,59,1,FBP-PT-19.png,0.45,1.2,60,0.25,,,,,,,,,,,,,,,,,,,,,,,,,,,,,,,,,,,,,,,,,,,,,
,,,,,SPR24_048,19,Male,2024-04-15_15h03.21.782,jersey_experiment_5_v0,2023.2.2,Win32,85.47008547,,,,,,,,,,,,,,,,159.5783,160.8723,160.8723,164.2491,return,0.8904,,49.86979167,0,18,18,2,1,FBP-OG-71.png,0.4,1.2,3,0.5,,,,,,,,,,,,,,,,,,,,,,,,,,,,,,,,,,,,,,,,,,,,,
,,,,,SPR24_048,19,Male,2024-04-15_15h03.21.782,jersey_experiment_5_v0,2023.2.2,Win32,85.47008547,,,,,,,,,,,,,,,,164.2493,165.2959,165.296,168.3668,return,1.0026,,63.54166667,0,19,19,52,1,FBP-PT-18.png,0.4,1.2,53,0.25,,,,,,,,,,,,,,,,,,,,,,,,,,,,,,,,,,,,,,,,,,,,,
,,,,,SPR24_048,19,Male,2024-04-15_15h03.21.782,jersey_experiment_5_v0,2023.2.2,Win32,85.47008547,,,,,,,,,,,,,,,,168.367,169.4138,169.4138,172.7669,return,1.1533,,25,0,20,20,50,1,FBP-PT-18.png,0.35,1.2,51,0.25,,,,,,,,,,,,,,,,,,,,,,,,,,,,,,,,,,,,,,,,,,,,,
,,,,,SPR24_048,19,Male,2024-04-15_15h03.21.782,jersey_experiment_5_v0,2023.2.2,Win32,85.47008547,,,,,,,,,,,,,,,,172.767,173.814,173.814,176.6729,return,1.1295,,30.98958333,0,21,21,46,1,FBP-PT-17.png,0.37,1.2,47,0.25,,,,,,,,,,,,,,,,,,,,,,,,,,,,,,,,,,,,,,,,,,,,,
,,,,,SPR24_048,19,Male,2024-04-15_15h03.21.782,jersey_experiment_5_v0,2023.2.2,Win32,85.47008547,,,,,,,,,,,,,,,,176.6732,177.7199,177.7199,180.2496,return,0.9129,,16.53645833,0,22,22,21,1,FBP-YG-18.png,0.37,1.2,22,0.25,,,,,,,,,,,,,,,,,,,,,,,,,,,,,,,,,,,,,,,,,,,,,
,,,,,SPR24_048,19,Male,2024-04-15_15h03.21.782,jersey_experiment_5_v0,2023.2.2,Win32,85.47008547,,,,,,,,,,,,,,,,180.2498,181.2966,181.2966,185.5673,return,1.8123,,75.13020833,0,23,23,57,1,FBP-PT-19.png,0.4,1.2,58,0.25,,,,,,,,,,,,,,,,,,,,,,,,,,,,,,,,,,,,,,,,,,,,,
,,,,,SPR24_048,19,Male,2024-04-15_15h03.21.782,jersey_experiment_5_v0,2023.2.2,Win32,85.47008547,,,,,,,,,,,,,,,,185.5674,186.6144,186.6145,190.8618,return,1.8738,,74.21875,0,24,24,47,1,FBP-PT-17.png,0.4,1.2,48,0.25,,,,,,,,,,,,,,,,,,,,,,,,,,,,,,,,,,,,,,,,,,,,,
,,,,,SPR24_048,19,Male,2024-04-15_15h03.21.782,jersey_experiment_5_v0,2023.2.2,Win32,85.47008547,,,,,,,,,,,,,,,,190.862,192.1558,192.1558,195.0501,return,0.7951,,35.02604167,0,25,25,31,1,FBP-RB-17.png,0.37,1.2,32,0.5,,,,,,,,,,,,,,,,,,,,,,,,,,,,,,,,,,,,,,,,,,,,,
,,,,,SPR24_048,19,Male,2024-04-15_15h03.21.782,jersey_experiment_5_v0,2023.2.2,Win32,85.47008547,,,,,,,,,,,,,,,,195.0503,196.3443,196.3443,199.1914,return,0.8776,,65.88541667,0,26,26,7,1,FBP-OG-81.png,0.4,1.2,8,0.5,,,,,,,,,,,,,,,,,,,,,,,,,,,,,,,,,,,,,,,,,,,,,
,,,,,SPR24_048,19,Male,2024-04-15_15h03.21.782,jersey_experiment_5_v0,2023.2.2,Win32,85.47008547,,,,,,,,,,,,,,,,199.1916,200.2386,200.2387,203.4857,return,1.1892,,80.20833333,0,27,27,48,1,FBP-PT-17.png,0.43,1.2,49,0.25,,,,,,,,,,,,,,,,,,,,,,,,,,,,,,,,,,,,,,,,,,,,,
,,,,,SPR24_048,19,Male,2024-04-15_15h03.21.782,jersey_experiment_5_v0,2023.2.2,Win32,85.47008547,,,,,,,,,,,,,,,,203.4859,204.5328,204.5328,207.2153,return,0.7766,,36.19791667,0,28,28,55,1,FBP-PT-19.png,0.35,1.2,56,0.25,,,,,,,,,,,,,,,,,,,,,,,,,,,,,,,,,,,,,,,,,,,,,
,,,,,SPR24_048,19,Male,2024-04-15_15h03.21.782,jersey_experiment_5_v0,2023.2.2,Win32,85.47008547,,,,,,,,,,,,,,,,207.2155,208.2623,208.2623,211.0742,return,0.9412,,94.27083333,0,29,29,24,1,FBP-YG-18.png,0.45,1.2,25,0.25,,,,,,,,,,,,,,,,,,,,,,,,,,,,,,,,,,,,,,,,,,,,,
,,,,,SPR24_048,19,Male,2024-04-15_15h03.21.782,jersey_experiment_5_v0,2023.2.2,Win32,85.47008547,,,,,,,,,,,,,,,,211.0745,212.1213,212.1213,214.9213,return,1.1931,,91.015625,0,30,30,18,1,FBP-YG-17.png,0.43,1.2,19,0.25,,,,,,,,,,,,,,,,,,,,,,,,,,,,,,,,,,,,,,,,,,,,,
,,,,,SPR24_048,19,Male,2024-04-15_15h03.21.782,jersey_experiment_5_v0,2023.2.2,Win32,85.47008547,,,,,,,,,,,,,,,,214.9215,216.2154,216.2155,219.298,return,1.539,,95.44270833,0,31,31,44,1,FBP-RB-19.png,0.45,1.2,45,0.5,,,,,,,,,,,,,,,,,,,,,,,,,,,,,,,,,,,,,,,,,,,,,
,,,,,SPR24_048,19,Male,2024-04-15_15h03.21.782,jersey_experiment_5_v0,2023.2.2,Win32,85.47008547,,,,,,,,,,,,,,,,219.2982,220.3452,220.3452,223.3218,return,1.1691,,71.875,0,32,32,58,1,FBP-PT-19.png,0.43,1.2,59,0.25,,,,,,,,,,,,,,,,,,,,,,,,,,,,,,,,,,,,,,,,,,,,,
,,,,,SPR24_048,19,Male,2024-04-15_15h03.21.782,jersey_experiment_5_v0,2023.2.2,Win32,85.47008547,,,,,,,,,,,,,,,,223.322,224.3688,224.3689,226.9924,return,0.9036,,60.80729167,0,33,33,17,1,FBP-YG-17.png,0.4,1.2,18,0.25,,,,,,,,,,,,,,,,,,,,,,,,,,,,,,,,,,,,,,,,,,,,,
,,,,,SPR24_048,19,Male,2024-04-15_15h03.21.782,jersey_experiment_5_v0,2023.2.2,Win32,85.47008547,,,,,,,,,,,,,,,,226.9926,228.2866,228.2866,231.1808,return,0.6018,,22.00520833,0,34,34,10,1,FBP-OG-91.png,0.35,1.2,11,0.5,,,,,,,,,,,,,,,,,,,,,,,,,,,,,,,,,,,,,,,,,,,,,
,,,,,SPR24_048,19,Male,2024-04-15_15h03.21.782,jersey_experiment_5_v0,2023.2.2,Win32,85.47008547,,,,,,,,,,,,,,,,231.1811,232.2279,232.2279,235.3927,return,0.9882,,77.99479167,0,35,35,49,1,FBP-PT-17.png,0.45,1.2,50,0.25,,,,,,,,,,,,,,,,,,,,,,,,,,,,,,,,,,,,,,,,,,,,,
,,,,,SPR24_048,19,Male,2024-04-15_15h03.21.782,jersey_experiment_5_v0,2023.2.2,Win32,85.47008547,,,,,,,,,,,,,,,,235.3929,236.6868,236.6869,239.1339,return,1.1322,,31.11979167,0,36,36,36,1,FBP-RB-18.png,0.37,1.2,37,0.5,,,,,,,,,,,,,,,,,,,,,,,,,,,,,,,,,,,,,,,,,,,,,
,,,,,SPR24_048,19,Male,2024-04-15_15h03.21.782,jersey_experiment_5_v0,2023.2.2,Win32,85.47008547,,,,,,,,,,,,,,,,239.1341,240.1812,240.1812,242.8754,return,0.9324,,49.86979167,0,37,37,23,1,FBP-YG-18.png,0.43,1.2,24,0.25,,,,,,,,,,,,,,,,,,,,,,,,,,,,,,,,,,,,,,,,,,,,,
,,,,,SPR24_048,19,Male,2024-04-15_15h03.21.782,jersey_experiment_5_v0,2023.2.2,Win32,85.47008547,,,,,,,,,,,,,,,,242.8755,243.9225,243.9225,246.3814,return,0.7893,,83.59375,0,38,38,29,1,FBP-YG-19.png,0.45,1.2,30,0.25,,,,,,,,,,,,,,,,,,,,,,,,,,,,,,,,,,,,,,,,,,,,,
,,,,,SPR24_048,19,Male,2024-04-15_15h03.21.782,jersey_experiment_5_v0,2023.2.2,Win32,85.47008547,,,,,,,,,,,,,,,,246.3816,247.6754,247.6754,249.617,return,0.6356,,89.71354167,0,39,39,34,1,FBP-RB-17.png,0.45,1.2,35,0.5,,,,,,,,,,,,,,,,,,,,,,,,,,,,,,,,,,,,,,,,,,,,,
,,,,,SPR24_048,19,Male,2024-04-15_15h03.21.782,jersey_experiment_5_v0,2023.2.2,Win32,85.47008547,,,,,,,,,,,,,,,,249.6172,250.911,250.911,253.6877,return,1.4424,,89.71354167,0,40,40,4,1,FBP-OG-71.png,0.45,1.2,5,0.5,,,,,,,,,,,,,,,,,,,,,,,,,,,,,,,,,,,,,,,,,,,,,
,,,,,SPR24_048,19,Male,2024-04-15_15h03.21.782,jersey_experiment_5_v0,2023.2.2,Win32,85.47008547,,,,,,,,,,,,,,,,253.6878,254.9817,254.9817,257.1466,return,0.7474,,23.56770833,0,41,41,41,1,FBP-RB-19.png,0.37,1.2,42,0.5,,,,,,,,,,,,,,,,,,,,,,,,,,,,,,,,,,,,,,,,,,,,,
,,,,,SPR24_048,19,Male,2024-04-15_15h03.21.782,jersey_experiment_5_v0,2023.2.2,Win32,85.47008547,,,,,,,,,,,,,,,,257.1468,258.4408,258.4408,260.5231,return,0.6501,,20.703125,0,42,42,35,1,FBP-RB-18.png,0.35,1.2,36,0.5,,,,,,,,,,,,,,,,,,,,,,,,,,,,,,,,,,,,,,,,,,,,,
,,,,,SPR24_048,19,Male,2024-04-15_15h03.21.782,jersey_experiment_5_v0,2023.2.2,Win32,85.47008547,,,,,,,,,,,,,,,,260.5234,261.57,261.5701,263.9467,return,0.6768,,23.046875,0,43,43,25,1,FBP-YG-19.png,0.35,1.2,26,0.25,,,,,,,,,,,,,,,,,,,,,,,,,,,,,,,,,,,,,,,,,,,,,
,,,,,SPR24_048,19,Male,2024-04-15_15h03.21.782,jersey_experiment_5_v0,2023.2.2,Win32,85.47008547,,,,,,,,,,,,,,,,263.9469,265.241,265.241,267.0528,return,0.6745,,33.203125,0,44,44,6,1,FBP-OG-81.png,0.37,1.2,7,0.5,,,,,,,,,,,,,,,,,,,,,,,,,,,,,,,,,,,,,,,,,,,,,
,,,,,SPR24_048,19,Male,2024-04-15_15h03.21.782,jersey_experiment_5_v0,2023.2.2,Win32,85.47008547,,,,,,,,,,,,,,,,267.0531,268.0997,268.0998,272.3,return,2.826,,43.22916667,0,45,45,16,1,FBP-YG-17.png,0.37,1.2,17,0.25,,,,,,,,,,,,,,,,,,,,,,,,,,,,,,,,,,,,,,,,,,,,,
,,,,,SPR24_048,19,Male,2024-04-15_15h03.21.782,jersey_experiment_5_v0,2023.2.2,Win32,85.47008547,,,,,,,,,,,,,,,,272.3003,273.5941,273.5941,277.4883,return,1.3979,,45.57291667,0,46,46,5,1,FBP-OG-81.png,0.35,1.2,6,0.5,,,,,,,,,,,,,,,,,,,,,,,,,,,,,,,,,,,,,,,,,,,,,
,,,,,SPR24_048,19,Male,2024-04-15_15h03.21.782,jersey_experiment_5_v0,2023.2.2,Win32,85.47008547,,,,,,,,,,,,,,,,277.4886,278.7825,278.7825,281.5945,return,1.2978,,64.32291667,0,47,47,43,1,FBP-RB-19.png,0.43,1.2,44,0.5,,,,,,,,,,,,,,,,,,,,,,,,,,,,,,,,,,,,,,,,,,,,,
,,,,,SPR24_048,19,Male,2024-04-15_15h03.21.782,jersey_experiment_5_v0,2023.2.2,Win32,85.47008547,,,,,,,,,,,,,,,,281.5947,282.8886,282.8887,285.4652,return,0.6429,,86.84895833,0,48,48,38,1,FBP-RB-18.png,0.43,1.2,39,0.5,,,,,,,,,,,,,,,,,,,,,,,,,,,,,,,,,,,,,,,,,,,,,
,,,,,SPR24_048,19,Male,2024-04-15_15h03.21.782,jersey_experiment_5_v0,2023.2.2,Win32,85.47008547,,,,,,,,,,,,,,,,285.4655,286.5124,286.5124,288.6182,return,0.6745,,82.8125,0,49,49,22,1,FBP-YG-18.png,0.4,1.2,23,0.25,,,,,,,,,,,,,,,,,,,,,,,,,,,,,,,,,,,,,,,,,,,,,
,,,,,SPR24_048,19,Male,2024-04-15_15h03.21.782,jersey_experiment_5_v0,2023.2.2,Win32,85.47008547,,,,,,,,,,,,,,,,288.6185,289.9123,289.9123,292.5949,return,0.6209,,42.96875,0,50,50,1,1,FBP-OG-71.png,0.37,1.2,2,0.5,,,,,,,,,,,,,,,,,,,,,,,,,,,,,,,,,,,,,,,,,,,,,
,,,,,SPR24_048,19,Male,2024-04-15_15h03.21.782,jersey_experiment_5_v0,2023.2.2,Win32,85.47008547,,,,,,,,,,,,,,,,292.5952,293.8891,293.8891,296.6185,return,0.5565,,48.17708333,0,51,51,11,1,FBP-OG-91.png,0.37,1.2,12,0.5,,,,,,,,,,,,,,,,,,,,,,,,,,,,,,,,,,,,,,,,,,,,,
,,,,,SPR24_048,19,Male,2024-04-15_15h03.21.782,jersey_experiment_5_v0,2023.2.2,Win32,85.47008547,,,,,,,,,,,,,,,,296.6186,297.9126,297.9126,300.4304,return,0.5999,,78.38541667,0,52,52,3,1,FBP-OG-71.png,0.43,1.2,4,0.5,,,,,,,,,,,,,,,,,,,,,,,,,,,,,,,,,,,,,,,,,,,,,
,,,,,SPR24_048,19,Male,2024-04-15_15h03.21.782,jersey_experiment_5_v0,2023.2.2,Win32,85.47008547,,,,,,,,,,,,,,,,300.4305,301.4775,301.4777,304.4305,return,0.5996,,49.86979167,0,53,53,15,1,FBP-YG-17.png,0.35,1.2,16,0.25,,,,,,,,,,,,,,,,,,,,,,,,,,,,,,,,,,,,,,,,,,,,,
,,,,,SPR24_048,19,Male,2024-04-15_15h03.21.782,jersey_experiment_5_v0,2023.2.2,Win32,85.47008547,,,,,,,,,,,,,,,,304.4307,305.7247,305.7247,307.7836,return,1.042,,49.86979167,0,54,54,30,1,FBP-RB-17.png,0.35,1.2,31,0.5,,,,,,,,,,,,,,,,,,,,,,,,,,,,,,,,,,,,,,,,,,,,,
,,,,,SPR24_048,19,Male,2024-04-15_15h03.21.782,jersey_experiment_5_v0,2023.2.2,Win32,85.47008547,,,,,,,,,,,,,,,,307.7838,309.0778,309.0778,311.066,return,0.5575,,66.27604167,0,55,55,13,1,FBP-OG-91.png,0.43,1.2,14,0.5,,,,,,,,,,,,,,,,,,,,,,,,,,,,,,,,,,,,,,,,,,,,,
,,,,,SPR24_048,19,Male,2024-04-15_15h03.21.782,jersey_experiment_5_v0,2023.2.2,Win32,85.47008547,,,,,,,,,,,,,,,,311.0662,312.3603,312.3603,314.6192,return,0.6032,,68.61979167,0,56,56,32,1,FBP-RB-17.png,0.4,1.2,33,0.5,,,,,,,,,,,,,,,,,,,,,,,,,,,,,,,,,,,,,,,,,,,,,
,,,,,SPR24_048,19,Male,2024-04-15_15h03.21.782,jersey_experiment_5_v0,2023.2.2,Win32,85.47008547,,,,,,,,,,,,,,,,314.6193,315.6663,315.6664,317.7839,return,0.5002,,58.59375,0,57,57,56,1,FBP-PT-19.png,0.37,1.2,57,0.25,,,,,,,,,,,,,,,,,,,,,,,,,,,,,,,,,,,,,,,,,,,,,
,,,,,SPR24_048,19,Male,2024-04-15_15h03.21.782,jersey_experiment_5_v0,2023.2.2,Win32,85.47008547,,,,,,,,,,,,,,,,317.7841,318.8312,318.8312,320.937,return,0.6638,,54.42708333,0,58,58,26,1,FBP-YG-19.png,0.37,1.2,27,0.25,,,,,,,,,,,,,,,,,,,,,,,,,,,,,,,,,,,,,,,,,,,,,
,,,,,SPR24_048,19,Male,2024-04-15_15h03.21.782,jersey_experiment_5_v0,2023.2.2,Win32,85.47008547,,,,,,,,,,,,,,,,320.9373,321.9841,321.9841,323.6666,return,0.5649,,78.125,0,59,59,53,1,FBP-PT-18.png,0.43,1.2,54,0.25,,,,,,,,,,,,,,,,,,,,,,,,,,,,,,,,,,,,,,,,,,,,,
,,,,,SPR24_048,19,Male,2024-04-15_15h03.21.782,jersey_experiment_5_v0,2023.2.2,Win32,85.47008547,,,,,,,,,,,,,,,,323.6686,324.9608,324.9609,326.7138,return,0.6748,,78.125,,,,,,FBP-RB-71.png,0.45,1.2,35,0.5,0,0,0,34,1,,,,,,,,,,,,,,,,,,,,,,,,,,,,,,,,,,,,,,,,
,,,,,SPR24_048,19,Male,2024-04-15_15h03.21.782,jersey_experiment_5_v0,2023.2.2,Win32,85.47008547,,,,,,,,,,,,,,,,326.7141,327.7609,327.7609,329.2434,return,0.6525,,92.578125,,,,,,FBP-YG-71.png,0.45,1.2,20,0.25,0,1,1,19,1,,,,,,,,,,,,,,,,,,,,,,,,,,,,,,,,,,,,,,,,
,,,,,SPR24_048,19,Male,2024-04-15_15h03.21.782,jersey_experiment_5_v0,2023.2.2,Win32,85.47008547,,,,,,,,,,,,,,,,329.2437,330.2903,330.2904,331.5845,return,0.4942,,92.578125,,,,,,FBP-PT-71.png,0.43,1.2,49,0.25,0,2,2,48,1,,,,,,,,,,,,,,,,,,,,,,,,,,,,,,,,,,,,,,,,
,,,,,SPR24_048,19,Male,2024-04-15_15h03.21.782,jersey_experiment_5_v0,2023.2.2,Win32,85.47008547,,,,,,,,,,,,,,,,331.5847,332.6317,332.6317,334.7494,return,0.5795,,89.84375,,,,,,FBP-PT-81.png,0.37,1.2,52,0.25,0,3,3,51,1,,,,,,,,,,,,,,,,,,,,,,,,,,,,,,,,,,,,,,,,
,,,,,SPR24_048,19,Male,2024-04-15_15h03.21.782,jersey_experiment_5_v0,2023.2.2,Win32,85.47008547,,,,,,,,,,,,,,,,334.7496,336.0434,336.0435,338.3965,return,0.5101,,80.33854167,,,,,,FBP-OG-19.png,0.43,1.2,14,0.5,0,4,4,13,1,,,,,,,,,,,,,,,,,,,,,,,,,,,,,,,,,,,,,,,,
,,,,,SPR24_048,19,Male,2024-04-15_15h03.21.782,jersey_experiment_5_v0,2023.2.2,Win32,85.47008547,,,,,,,,,,,,,,,,338.3968,339.4436,339.4437,341.5143,return,0.5711,,65.88541667,,,,,,FBP-YG-91.png,0.37,1.2,27,0.25,0,5,5,26,1,,,,,,,,,,,,,,,,,,,,,,,,,,,,,,,,,,,,,,,,
,,,,,SPR24_048,19,Male,2024-04-15_15h03.21.782,jersey_experiment_5_v0,2023.2.2,Win32,85.47008547,,,,,,,,,,,,,,,,341.5144,342.8085,342.8085,344.9732,return,0.5445,,81.25,,,,,,FBP-OG-18.png,0.43,1.2,9,0.5,0,6,6,8,1,,,,,,,,,,,,,,,,,,,,,,,,,,,,,,,,,,,,,,,,
,,,,,SPR24_048,19,Male,2024-04-15_15h03.21.782,jersey_experiment_5_v0,2023.2.2,Win32,85.47008547,,,,,,,,,,,,,,,,344.9734,346.2673,346.2674,347.8087,return,0.6593,,89.0625,,,,,,FBP-OG-17.png,0.37,1.2,2,0.5,0,7,7,1,1,,,,,,,,,,,,,,,,,,,,,,,,,,,,,,,,,,,,,,,,
,,,,,SPR24_048,19,Male,2024-04-15_15h03.21.782,jersey_experiment_5_v0,2023.2.2,Win32,85.47008547,,,,,,,,,,,,,,,,347.8089,348.8558,348.8558,350.7029,return,0.6353,,87.5,,,,,,FBP-YG-71.png,0.43,1.2,19,0.25,0,8,8,18,1,,,,,,,,,,,,,,,,,,,,,,,,,,,,,,,,,,,,,,,,
,,,,,SPR24_048,19,Male,2024-04-15_15h03.21.782,jersey_experiment_5_v0,2023.2.2,Win32,85.47008547,,,,,,,,,,,,,,,,350.7031,351.9972,351.9972,354.1619,return,0.6969,,81.11979167,,,,,,FBP-OG-19.png,0.4,1.2,13,0.5,0,9,9,12,1,,,,,,,,,,,,,,,,,,,,,,,,,,,,,,,,,,,,,,,,
,,,,,SPR24_048,19,Male,2024-04-15_15h03.21.782,jersey_experiment_5_v0,2023.2.2,Win32,85.47008547,,,,,,,,,,,,,,,,354.1621,355.456,355.4561,358.115,return,1.0261,,94.66145833,,,,,,FBP-OG-17.png,0.43,1.2,4,0.5,0,10,10,3,1,,,,,,,,,,,,,,,,,,,,,,,,,,,,,,,,,,,,,,,,
,,,,,SPR24_048,19,Male,2024-04-15_15h03.21.782,jersey_experiment_5_v0,2023.2.2,Win32,85.47008547,,,,,,,,,,,,,,,,358.1152,359.4091,359.4091,361.2093,return,0.5488,,96.09375,,,,,,FBP-OG-18.png,0.45,1.2,10,0.5,0,11,11,9,1,,,,,,,,,,,,,,,,,,,,,,,,,,,,,,,,,,,,,,,,
,,,,,SPR24_048,19,Male,2024-04-15_15h03.21.782,jersey_experiment_5_v0,2023.2.2,Win32,85.47008547,,,,,,,,,,,,,,,,361.2095,362.2562,362.2563,364.2328,return,1.2198,,99.609375,,,,,,FBP-PT-81.png,0.45,1.2,55,0.25,0,12,12,54,1,,,,,,,,,,,,,,,,,,,,,,,,,,,,,,,,,,,,,,,,
,,,,,SPR24_048,19,Male,2024-04-15_15h03.21.782,jersey_experiment_5_v0,2023.2.2,Win32,85.47008547,,,,,,,,,,,,,,,,364.233,365.2799,365.2799,366.3505,return,0.5791,,99.73958333,,,,,,FBP-PT-81.png,0.43,1.2,54,0.25,0,13,13,53,1,,,,,,,,,,,,,,,,,,,,,,,,,,,,,,,,,,,,,,,,
,,,,,SPR24_048,19,Male,2024-04-15_15h03.21.782,jersey_experiment_5_v0,2023.2.2,Win32,85.47008547,,,,,,,,,,,,,,,,366.3508,367.3976,367.3976,368.4565,return,0.5024,,99.73958333,,,,,,FBP-YG-81.png,0.4,1.2,23,0.25,0,14,14,22,1,,,,,,,,,,,,,,,,,,,,,,,,,,,,,,,,,,,,,,,,
,,,,,SPR24_048,19,Male,2024-04-15_15h03.21.782,jersey_experiment_5_v0,2023.2.2,Win32,85.47008547,,,,,,,,,,,,,,,,368.4566,369.7505,369.7505,371.2917,return,0.6371,,77.60416667,,,,,,FBP-OG-19.png,0.37,1.2,12,0.5,0,15,15,11,1,,,,,,,,,,,,,,,,,,,,,,,,,,,,,,,,,,,,,,,,
,,,,,SPR24_048,19,Male,2024-04-15_15h03.21.782,jersey_experiment_5_v0,2023.2.2,Win32,85.47008547,,,,,,,,,,,,,,,,371.2919,372.5861,372.5862,375.1626,return,1.6297,,56.640625,,,,,,FBP-OG-17.png,0.35,1.2,1,0.5,0,16,16,0,1,,,,,,,,,,,,,,,,,,,,,,,,,,,,,,,,,,,,,,,,
,,,,,SPR24_048,19,Male,2024-04-15_15h03.21.782,jersey_experiment_5_v0,2023.2.2,Win32,85.47008547,,,,,,,,,,,,,,,,375.1628,376.4567,376.4568,378.1863,return,0.5452,,80.078125,,,,,,FBP-OG-19.png,0.45,1.2,15,0.5,0,17,17,14,1,,,,,,,,,,,,,,,,,,,,,,,,,,,,,,,,,,,,,,,,
,,,,,SPR24_048,19,Male,2024-04-15_15h03.21.782,jersey_experiment_5_v0,2023.2.2,Win32,85.47008547,,,,,,,,,,,,,,,,378.1865,379.4804,379.4805,381.5982,return,0.5789,,56.90104167,,,,,,FBP-RB-71.png,0.37,1.2,32,0.5,0,18,18,31,1,,,,,,,,,,,,,,,,,,,,,,,,,,,,,,,,,,,,,,,,
,,,,,SPR24_048,19,Male,2024-04-15_15h03.21.782,jersey_experiment_5_v0,2023.2.2,Win32,85.47008547,,,,,,,,,,,,,,,,381.5984,382.8924,382.8924,384.3275,return,0.5616,,86.84895833,,,,,,FBP-RB-81.png,0.43,1.2,39,0.5,0,19,19,38,1,,,,,,,,,,,,,,,,,,,,,,,,,,,,,,,,,,,,,,,,
,,,,,SPR24_048,19,Male,2024-04-15_15h03.21.782,jersey_experiment_5_v0,2023.2.2,Win32,85.47008547,,,,,,,,,,,,,,,,384.3277,385.3746,385.3746,390.3043,return,3.0027,,38.41145833,,,,,,FBP-YG-91.png,0.35,1.2,26,0.25,0,20,20,25,1,,,,,,,,,,,,,,,,,,,,,,,,,,,,,,,,,,,,,,,,
,,,,,SPR24_048,19,Male,2024-04-15_15h03.21.782,jersey_experiment_5_v0,2023.2.2,Win32,85.47008547,,,,,,,,,,,,,,,,390.3046,391.3514,391.3515,393.1044,return,0.6591,,40.88541667,,,,,,FBP-PT-71.png,0.35,1.2,46,0.25,0,21,21,45,1,,,,,,,,,,,,,,,,,,,,,,,,,,,,,,,,,,,,,,,,
,,,,,SPR24_048,19,Male,2024-04-15_15h03.21.782,jersey_experiment_5_v0,2023.2.2,Win32,85.47008547,,,,,,,,,,,,,,,,393.1046,394.3986,394.3986,396.1045,return,0.5258,,46.484375,,,,,,FBP-OG-19.png,0.35,1.2,11,0.5,0,22,22,10,1,,,,,,,,,,,,,,,,,,,,,,,,,,,,,,,,,,,,,,,,
,,,,,SPR24_048,19,Male,2024-04-15_15h03.21.782,jersey_experiment_5_v0,2023.2.2,Win32,85.47008547,,,,,,,,,,,,,,,,396.1047,397.1517,397.1517,400.9871,return,1.085,,75.65104167,,,,,,FBP-YG-91.png,0.4,1.2,28,0.25,0,23,23,27,1,,,,,,,,,,,,,,,,,,,,,,,,,,,,,,,,,,,,,,,,
,,,,,SPR24_048,19,Male,2024-04-15_15h03.21.782,jersey_experiment_5_v0,2023.2.2,Win32,85.47008547,,,,,,,,,,,,,,,,400.9873,402.2814,402.2814,403.8107,return,0.603,,88.93229167,,,,,,FBP-RB-81.png,0.45,1.2,40,0.5,0,24,24,39,1,,,,,,,,,,,,,,,,,,,,,,,,,,,,,,,,,,,,,,,,
,,,,,SPR24_048,19,Male,2024-04-15_15h03.21.782,jersey_experiment_5_v0,2023.2.2,Win32,85.47008547,,,,,,,,,,,,,,,,403.811,404.8578,404.8579,406.5874,return,0.5204,,99.86979167,,,,,,FBP-YG-81.png,0.45,1.2,25,0.25,0,25,25,24,1,,,,,,,,,,,,,,,,,,,,,,,,,,,,,,,,,,,,,,,,
,,,,,SPR24_048,19,Male,2024-04-15_15h03.21.782,jersey_experiment_5_v0,2023.2.2,Win32,85.47008547,,,,,,,,,,,,,,,,406.5876,407.8814,407.8815,411.0698,return,0.6382,,46.61458333,,,,,,FBP-OG-18.png,0.35,1.2,6,0.5,0,26,26,5,1,,,,,,,,,,,,,,,,,,,,,,,,,,,,,,,,,,,,,,,,
,,,,,SPR24_048,19,Male,2024-04-15_15h03.21.782,jersey_experiment_5_v0,2023.2.2,Win32,85.47008547,,,,,,,,,,,,,,,,411.07,412.3641,412.3641,413.8228,return,0.5521,,67.70833333,,,,,,FBP-RB-81.png,0.4,1.2,38,0.5,0,27,27,37,1,,,,,,,,,,,,,,,,,,,,,,,,,,,,,,,,,,,,,,,,
,,,,,SPR24_048,19,Male,2024-04-15_15h03.21.782,jersey_experiment_5_v0,2023.2.2,Win32,85.47008547,,,,,,,,,,,,,,,,413.8231,415.117,415.117,416.4346,return,0.5176,,75.13020833,,,,,,FBP-RB-91.png,0.4,1.2,43,0.5,0,28,28,42,1,,,,,,,,,,,,,,,,,,,,,,,,,,,,,,,,,,,,,,,,
,,,,,SPR24_048,19,Male,2024-04-15_15h03.21.782,jersey_experiment_5_v0,2023.2.2,Win32,85.47008547,,,,,,,,,,,,,,,,416.4349,417.7289,417.7289,422.0466,return,3.7325,,77.86458333,,,,,,FBP-OG-18.png,0.4,1.2,8,0.5,0,29,29,7,1,,,,,,,,,,,,,,,,,,,,,,,,,,,,,,,,,,,,,,,,
,,,,,SPR24_048,19,Male,2024-04-15_15h03.21.782,jersey_experiment_5_v0,2023.2.2,Win32,85.47008547,,,,,,,,,,,,,,,,422.0469,423.0936,423.0936,425.4821,return,0.4978,,98.30729167,,,,,,FBP-YG-71.png,0.4,1.2,18,0.25,0,30,30,17,1,,,,,,,,,,,,,,,,,,,,,,,,,,,,,,,,,,,,,,,,
,,,,,SPR24_048,19,Male,2024-04-15_15h03.21.782,jersey_experiment_5_v0,2023.2.2,Win32,85.47008547,,,,,,,,,,,,,,,,425.4824,426.7765,426.7765,428.9763,return,0.5272,,67.1875,,,,,,FBP-OG-18.png,0.37,1.2,7,0.5,0,31,31,6,1,,,,,,,,,,,,,,,,,,,,,,,,,,,,,,,,,,,,,,,,
,,,,,SPR24_048,19,Male,2024-04-15_15h03.21.782,jersey_experiment_5_v0,2023.2.2,Win32,85.47008547,,,,,,,,,,,,,,,,428.9764,430.2705,430.2705,431.5764,return,0.5144,,65.10416667,,,,,,FBP-RB-71.png,0.35,1.2,31,0.5,0,32,32,30,1,,,,,,,,,,,,,,,,,,,,,,,,,,,,,,,,,,,,,,,,
,,,,,SPR24_048,19,Male,2024-04-15_15h03.21.782,jersey_experiment_5_v0,2023.2.2,Win32,85.47008547,,,,,,,,,,,,,,,,431.5768,432.6234,432.6235,434.2707,return,0.5432,,81.11979167,,,,,,FBP-PT-71.png,0.37,1.2,47,0.25,0,33,33,46,1,,,,,,,,,,,,,,,,,,,,,,,,,,,,,,,,,,,,,,,,
,,,,,SPR24_048,19,Male,2024-04-15_15h03.21.782,jersey_experiment_5_v0,2023.2.2,Win32,85.47008547,,,,,,,,,,,,,,,,434.2709,435.5648,435.5648,436.8237,return,0.4915,,89.453125,,,,,,FBP-RB-71.png,0.43,1.2,34,0.5,0,34,34,33,1,,,,,,,,,,,,,,,,,,,,,,,,,,,,,,,,,,,,,,,,
,,,,,SPR24_048,19,Male,2024-04-15_15h03.21.782,jersey_experiment_5_v0,2023.2.2,Win32,85.47008547,,,,,,,,,,,,,,,,436.8239,438.118,438.118,441.0238,return,0.5275,,57.94270833,,,,,,FBP-RB-81.png,0.37,1.2,37,0.5,0,35,35,36,1,,,,,,,,,,,,,,,,,,,,,,,,,,,,,,,,,,,,,,,,
,,,,,SPR24_048,19,Male,2024-04-15_15h03.21.782,jersey_experiment_5_v0,2023.2.2,Win32,85.47008547,,,,,,,,,,,,,,,,441.024,442.318,442.318,444.0004,return,0.5886,,74.47916667,,,,,,FBP-RB-91.png,0.45,1.2,45,0.5,0,36,36,44,1,,,,,,,,,,,,,,,,,,,,,,,,,,,,,,,,,,,,,,,,
,,,,,SPR24_048,19,Male,2024-04-15_15h03.21.782,jersey_experiment_5_v0,2023.2.2,Win32,85.47008547,,,,,,,,,,,,,,,,444.0006,445.0474,445.0474,448.7064,return,2.6734,,86.19791667,,,,,,FBP-PT-91.png,0.43,1.2,59,0.25,0,37,37,58,1,,,,,,,,,,,,,,,,,,,,,,,,,,,,,,,,,,,,,,,,
,,,,,SPR24_048,19,Male,2024-04-15_15h03.21.782,jersey_experiment_5_v0,2023.2.2,Win32,85.47008547,,,,,,,,,,,,,,,,448.7067,450.0006,450.0006,452.3655,return,1.2274,,51.30208333,,,,,,FBP-RB-91.png,0.37,1.2,42,0.5,0,38,38,41,1,,,,,,,,,,,,,,,,,,,,,,,,,,,,,,,,,,,,,,,,
,,,,,SPR24_048,19,Male,2024-04-15_15h03.21.782,jersey_experiment_5_v0,2023.2.2,Win32,85.47008547,,,,,,,,,,,,,,,,452.3657,453.4126,453.4126,455.0244,return,0.6448,,52.86458333,,,,,,FBP-PT-81.png,0.35,1.2,51,0.25,0,39,39,50,1,,,,,,,,,,,,,,,,,,,,,,,,,,,,,,,,,,,,,,,,
,,,,,SPR24_048,19,Male,2024-04-15_15h03.21.782,jersey_experiment_5_v0,2023.2.2,Win32,85.47008547,,,,,,,,,,,,,,,,455.0245,456.0715,456.0715,459.0245,return,1.8354,,86.97916667,,,,,,FBP-YG-91.png,0.45,1.2,30,0.25,0,40,40,29,1,,,,,,,,,,,,,,,,,,,,,,,,,,,,,,,,,,,,,,,,
,,,,,SPR24_048,19,Male,2024-04-15_15h03.21.782,jersey_experiment_5_v0,2023.2.2,Win32,85.47008547,,,,,,,,,,,,,,,,459.0248,460.0716,460.0717,462.1777,return,0.5975,,72.39583333,,,,,,FBP-PT-91.png,0.4,1.2,58,0.25,0,41,41,57,1,,,,,,,,,,,,,,,,,,,,,,,,,,,,,,,,,,,,,,,,
,,,,,SPR24_048,19,Male,2024-04-15_15h03.21.782,jersey_experiment_5_v0,2023.2.2,Win32,85.47008547,,,,,,,,,,,,,,,,462.1779,463.2247,463.2247,464.8599,return,0.5224,,96.74479167,,,,,,FBP-YG-81.png,0.43,1.2,24,0.25,0,42,42,23,1,,,,,,,,,,,,,,,,,,,,,,,,,,,,,,,,,,,,,,,,
,,,,,SPR24_048,19,Male,2024-04-15_15h03.21.782,jersey_experiment_5_v0,2023.2.2,Win32,85.47008547,,,,,,,,,,,,,,,,464.8601,465.9072,465.9072,467.9778,return,0.5598,,52.08333333,,,,,,FBP-YG-71.png,0.35,1.2,16,0.25,0,43,43,15,1,,,,,,,,,,,,,,,,,,,,,,,,,,,,,,,,,,,,,,,,
,,,,,SPR24_048,19,Male,2024-04-15_15h03.21.782,jersey_experiment_5_v0,2023.2.2,Win32,85.47008547,,,,,,,,,,,,,,,,467.978,469.0248,469.0248,474.2721,return,3.8124,,62.76041667,,,,,,FBP-PT-91.png,0.35,1.2,56,0.25,0,44,44,55,1,,,,,,,,,,,,,,,,,,,,,,,,,,,,,,,,,,,,,,,,
,,,,,SPR24_048,19,Male,2024-04-15_15h03.21.782,jersey_experiment_5_v0,2023.2.2,Win32,85.47008547,,,,,,,,,,,,,,,,474.2723,475.3193,475.3193,477.1193,return,0.5038,,95.57291667,,,,,,FBP-PT-71.png,0.45,1.2,50,0.25,0,45,45,49,1,,,,,,,,,,,,,,,,,,,,,,,,,,,,,,,,,,,,,,,,
,,,,,SPR24_048,19,Male,2024-04-15_15h03.21.782,jersey_experiment_5_v0,2023.2.2,Win32,85.47008547,,,,,,,,,,,,,,,,477.1195,478.1663,478.1663,480.4018,return,0.5556,,50.13020833,,,,,,FBP-PT-91.png,0.37,1.2,57,0.25,0,46,46,56,1,,,,,,,,,,,,,,,,,,,,,,,,,,,,,,,,,,,,,,,,
,,,,,SPR24_048,19,Male,2024-04-15_15h03.21.782,jersey_experiment_5_v0,2023.2.2,Win32,85.47008547,,,,,,,,,,,,,,,,480.402,481.4489,481.4489,484.0254,return,1.3364,,64.97395833,,,,,,FBP-YG-81.png,0.37,1.2,22,0.25,0,47,47,21,1,,,,,,,,,,,,,,,,,,,,,,,,,,,,,,,,,,,,,,,,
,,,,,SPR24_048,19,Male,2024-04-15_15h03.21.782,jersey_experiment_5_v0,2023.2.2,Win32,85.47008547,,,,,,,,,,,,,,,,484.0257,485.3197,485.3197,487.2021,return,0.5324,,79.296875,,,,,,FBP-RB-91.png,0.43,1.2,44,0.5,0,48,48,43,1,,,,,,,,,,,,,,,,,,,,,,,,,,,,,,,,,,,,,,,,
,,,,,SPR24_048,19,Male,2024-04-15_15h03.21.782,jersey_experiment_5_v0,2023.2.2,Win32,85.47008547,,,,,,,,,,,,,,,,487.2023,488.4962,488.4963,490.3668,return,0.5047,,79.296875,,,,,,FBP-RB-71.png,0.4,1.2,33,0.5,0,49,49,32,1,,,,,,,,,,,,,,,,,,,,,,,,,,,,,,,,,,,,,,,,
,,,,,SPR24_048,19,Male,2024-04-15_15h03.21.782,jersey_experiment_5_v0,2023.2.2,Win32,85.47008547,,,,,,,,,,,,,,,,490.367,491.6608,491.6609,493.9317,return,0.5201,,47.265625,,,,,,FBP-RB-81.png,0.35,1.2,36,0.5,0,50,50,35,1,,,,,,,,,,,,,,,,,,,,,,,,,,,,,,,,,,,,,,,,
,,,,,SPR24_048,19,Male,2024-04-15_15h03.21.782,jersey_experiment_5_v0,2023.2.2,Win32,85.47008547,,,,,,,,,,,,,,,,493.9319,495.2258,495.2259,497.226,return,0.922,,61.328125,,,,,,FBP-OG-17.png,0.4,1.2,3,0.5,0,51,51,2,1,,,,,,,,,,,,,,,,,,,,,,,,,,,,,,,,,,,,,,,,
,,,,,SPR24_048,19,Male,2024-04-15_15h03.21.782,jersey_experiment_5_v0,2023.2.2,Win32,85.47008547,,,,,,,,,,,,,,,,497.2262,498.273,498.273,501.7085,return,2.1217,,94.40104167,,,,,,FBP-YG-91.png,0.43,1.2,29,0.25,0,52,52,28,1,,,,,,,,,,,,,,,,,,,,,,,,,,,,,,,,,,,,,,,,
,,,,,SPR24_048,19,Male,2024-04-15_15h03.21.782,jersey_experiment_5_v0,2023.2.2,Win32,85.47008547,,,,,,,,,,,,,,,,501.7087,503.0025,503.0025,504.3321,return,0.5903,,96.22395833,,,,,,FBP-OG-17.png,0.45,1.2,5,0.5,0,53,53,4,1,,,,,,,,,,,,,,,,,,,,,,,,,,,,,,,,,,,,,,,,
,,,,,SPR24_048,19,Male,2024-04-15_15h03.21.782,jersey_experiment_5_v0,2023.2.2,Win32,85.47008547,,,,,,,,,,,,,,,,504.3323,505.6263,505.6264,507.4733,return,0.6116,,53.90625,,,,,,FBP-RB-91.png,0.35,1.2,41,0.5,0,54,54,40,1,,,,,,,,,,,,,,,,,,,,,,,,,,,,,,,,,,,,,,,,
,,,,,SPR24_048,19,Male,2024-04-15_15h03.21.782,jersey_experiment_5_v0,2023.2.2,Win32,85.47008547,,,,,,,,,,,,,,,,507.4736,508.5204,508.5205,510.5088,return,0.6625,,78.64583333,,,,,,FBP-PT-71.png,0.4,1.2,48,0.25,0,55,55,47,1,,,,,,,,,,,,,,,,,,,,,,,,,,,,,,,,,,,,,,,,
,,,,,SPR24_048,19,Male,2024-04-15_15h03.21.782,jersey_experiment_5_v0,2023.2.2,Win32,85.47008547,,,,,,,,,,,,,,,,510.5089,511.5558,511.556,513.8383,return,0.8615,,85.41666667,,,,,,FBP-PT-81.png,0.4,1.2,53,0.25,0,56,56,52,1,,,,,,,,,,,,,,,,,,,,,,,,,,,,,,,,,,,,,,,,
,,,,,SPR24_048,19,Male,2024-04-15_15h03.21.782,jersey_experiment_5_v0,2023.2.2,Win32,85.47008547,,,,,,,,,,,,,,,,513.8385,514.8854,514.8855,518.0971,return,0.5789,,52.21354167,,,,,,FBP-YG-71.png,0.37,1.2,17,0.25,0,57,57,16,1,,,,,,,,,,,,,,,,,,,,,,,,,,,,,,,,,,,,,,,,
,,,,,SPR24_048,19,Male,2024-04-15_15h03.21.782,jersey_experiment_5_v0,2023.2.2,Win32,85.47008547,,,,,,,,,,,,,,,,518.0975,519.1444,519.1444,521.1445,return,0.5492,,77.34375,,,,,,FBP-PT-91.png,0.45,1.2,60,0.25,0,58,58,59,1,,,,,,,,,,,,,,,,,,,,,,,,,,,,,,,,,,,,,,,,
,,,,,SPR24_048,19,Male,2024-04-15_15h03.21.782,jersey_experiment_5_v0,2023.2.2,Win32,85.47008547,,,,,,,,,,,,,,,,521.1447,522.1915,522.1915,523.8269,return,0.7059,,78.77604167,,,,,,FBP-YG-81.png,0.35,1.2,21,0.25,0,59,59,20,1,,,,,,,,,,,,,,,,,,,,,,,,,,,,,,,,,,,,,,,,
,,,,,SPR24_048,19,Male,2024-04-15_15h03.21.782,jersey_experiment_5_v0,2023.2.2,Win32,85.47008547,,,,,,,,,,,,,,,,,,,,,,,,,,,,,,,,,,,,,,,523.8273,643.8201,,,,,,,,,,,,,,,,,,,,,,,,,,,,,,,,,,,,,,
,,,,,SPR24_048,19,Male,2024-04-15_15h03.21.782,jersey_experiment_5_v0,2023.2.2,Win32,85.47008547,,,,,,,,,,,,,,,,,,,,,,,,,,,,,,,,,,,,,,,,,643.8202,678.6329,return,34.8073,,,,,,,,,,,,,,,,,,,,,,,,,,,,,,,,,,
,,,,,SPR24_048,19,Male,2024-04-15_15h03.21.782,jersey_experiment_5_v0,2023.2.2,Win32,85.47008547,,,,,,,,,,,,,,,,678.6392,679.6915,679.6915,682.2093,return,0.8004,,49.73958333,,,,,,FBP-OG-71.png,0.43,1.2,4,0.25,,,,,,,,,,,,,0,0,0,3,1,,,,,,,,,,,,,,,,,,,,,,,,,,,,
,,,,,SPR24_048,19,Male,2024-04-15_15h03.21.782,jersey_experiment_5_v0,2023.2.2,Win32,85.47008547,,,,,,,,,,,,,,,,682.2096,683.2562,683.2562,684.8916,return,0.6263,,75.52083333,,,,,,FBP-RB-18.png,0.43,1.2,39,0.25,,,,,,,,,,,,,0,1,1,38,1,,,,,,,,,,,,,,,,,,,,,,,,,,,,
,,,,,SPR24_048,19,Male,2024-04-15_15h03.21.782,jersey_experiment_5_v0,2023.2.2,Win32,85.47008547,,,,,,,,,,,,,,,,684.8919,686.1857,686.1857,687.7741,return,0.1089,,74.47916667,,,,,,FBP-PT-19.png,0.43,1.2,59,0.5,,,,,,,,,,,,,0,2,2,58,1,,,,,,,,,,,,,,,,,,,,,,,,,,,,
,,,,,SPR24_048,19,Male,2024-04-15_15h03.21.782,jersey_experiment_5_v0,2023.2.2,Win32,85.47008547,,,,,,,,,,,,,,,,687.7743,689.0683,689.0683,690.1741,return,0.085,,68.61979167,,,,,,FBP-PT-19.png,0.37,1.2,57,0.5,,,,,,,,,,,,,0,3,3,56,1,,,,,,,,,,,,,,,,,,,,,,,,,,,,
,,,,,SPR24_048,19,Male,2024-04-15_15h03.21.782,jersey_experiment_5_v0,2023.2.2,Win32,85.47008547,,,,,,,,,,,,,,,,690.1744,691.4685,691.4685,692.2566,return,0.0808,,85.546875,,,,,,FBP-YG-18.png,0.4,1.2,23,0.5,,,,,,,,,,,,,0,4,4,22,1,,,,,,,,,,,,,,,,,,,,,,,,,,,,
,,,,,SPR24_048,19,Male,2024-04-15_15h03.21.782,jersey_experiment_5_v0,2023.2.2,Win32,85.47008547,,,,,,,,,,,,,,,,692.2568,693.5507,693.5509,693.8567,return,0.009,,85.15625,,,,,,FBP-PT-18.png,0.43,1.2,54,0.5,,,,,,,,,,,,,0,5,5,53,1,,,,,,,,,,,,,,,,,,,,,,,,,,,,
,,,,,SPR24_048,19,Male,2024-04-15_15h03.21.782,jersey_experiment_5_v0,2023.2.2,Win32,85.47008547,,,,,,,,,,,,,,,,693.8569,694.9038,694.9039,696.4097,return,0.1693,,56.38020833,,,,,,FBP-RB-17.png,0.37,1.2,32,0.25,,,,,,,,,,,,,0,6,6,31,1,,,,,,,,,,,,,,,,,,,,,,,,,,,,
,,,,,SPR24_048,19,Male,2024-04-15_15h03.21.782,jersey_experiment_5_v0,2023.2.2,Win32,85.47008547,,,,,,,,,,,,,,,,696.41,697.4568,697.4568,698.3862,return,0.0943,,91.015625,,,,,,FBP-OG-91.png,0.43,1.2,14,0.25,,,,,,,,,,,,,0,7,7,13,1,,,,,,,,,,,,,,,,,,,,,,,,,,,,
,,,,,SPR24_048,19,Male,2024-04-15_15h03.21.782,jersey_experiment_5_v0,2023.2.2,Win32,85.47008547,,,,,,,,,,,,,,,,698.3864,699.6803,699.6804,700.6099,return,0.2684,,85.67708333,,,,,,FBP-PT-19.png,0.4,1.2,58,0.5,,,,,,,,,,,,,0,8,8,57,1,,,,,,,,,,,,,,,,,,,,,,,,,,,,
,,,,,SPR24_048,19,Male,2024-04-15_15h03.21.782,jersey_experiment_5_v0,2023.2.2,Win32,85.47008547,,,,,,,,,,,,,,,,700.6102,701.657,701.6571,702.8924,return,0.0746,,85.28645833,,,,,,FBP-RB-17.png,0.43,1.2,34,0.25,,,,,,,,,,,,,0,9,9,33,1,,,,,,,,,,,,,,,,,,,,,,,,,,,,
,,,,,SPR24_048,19,Male,2024-04-15_15h03.21.782,jersey_experiment_5_v0,2023.2.2,Win32,85.47008547,,,,,,,,,,,,,,,,702.8926,704.1864,704.1864,705.8336,return,0.4775,,62.5,,,,,,FBP-PT-18.png,0.37,1.2,52,0.5,,,,,,,,,,,,,0,10,10,51,1,,,,,,,,,,,,,,,,,,,,,,,,,,,,
,,,,,SPR24_048,19,Male,2024-04-15_15h03.21.782,jersey_experiment_5_v0,2023.2.2,Win32,85.47008547,,,,,,,,,,,,,,,,705.8337,706.8807,706.8807,709.9632,return,0.0498,,69.01041667,,,,,,FBP-RB-17.png,0.4,1.2,33,0.25,,,,,,,,,,,,,0,11,11,32,1,,,,,,,,,,,,,,,,,,,,,,,,,,,,
,,,,,SPR24_048,19,Male,2024-04-15_15h03.21.782,jersey_experiment_5_v0,2023.2.2,Win32,85.47008547,,,,,,,,,,,,,,,,709.9634,711.2574,711.2574,714.2105,return,0.7626,,47.265625,,,,,,FBP-PT-18.png,0.35,1.2,51,0.5,,,,,,,,,,,,,0,12,12,50,1,,,,,,,,,,,,,,,,,,,,,,,,,,,,
,,,,,SPR24_048,19,Male,2024-04-15_15h03.21.782,jersey_experiment_5_v0,2023.2.2,Win32,85.47008547,,,,,,,,,,,,,,,,714.2107,715.5047,715.5047,716.3045,return,0.047,,36.06770833,,,,,,FBP-YG-19.png,0.35,1.2,26,0.5,,,,,,,,,,,,,0,13,13,25,1,,,,,,,,,,,,,,,,,,,,,,,,,,,,
,,,,,SPR24_048,19,Male,2024-04-15_15h03.21.782,jersey_experiment_5_v0,2023.2.2,Win32,85.47008547,,,,,,,,,,,,,,,,716.3048,717.5986,717.5987,718.6223,return,0.1785,,67.05729167,,,,,,FBP-PT-17.png,0.43,1.2,49,0.5,,,,,,,,,,,,,0,14,14,48,1,,,,,,,,,,,,,,,,,,,,,,,,,,,,
,,,,,SPR24_048,19,Male,2024-04-15_15h03.21.782,jersey_experiment_5_v0,2023.2.2,Win32,85.47008547,,,,,,,,,,,,,,,,718.6225,719.9165,719.9165,720.8577,return,0.1221,,77.47395833,,,,,,FBP-YG-19.png,0.4,1.2,28,0.5,,,,,,,,,,,,,0,15,15,27,1,,,,,,,,,,,,,,,,,,,,,,,,,,,,
,,,,,SPR24_048,19,Male,2024-04-15_15h03.21.782,jersey_experiment_5_v0,2023.2.2,Win32,85.47008547,,,,,,,,,,,,,,,,720.8579,721.9047,721.9047,723.6107,return,0.0882,,70.703125,,,,,,FBP-OG-81.png,0.37,1.2,7,0.25,,,,,,,,,,,,,0,16,16,6,1,,,,,,,,,,,,,,,,,,,,,,,,,,,,
,,,,,SPR24_048,19,Male,2024-04-15_15h03.21.782,jersey_experiment_5_v0,2023.2.2,Win32,85.47008547,,,,,,,,,,,,,,,,723.611,724.9049,724.9049,726.658,return,0.4705,,56.90104167,,,,,,FBP-YG-19.png,0.37,1.2,27,0.5,,,,,,,,,,,,,0,17,17,26,1,,,,,,,,,,,,,,,,,,,,,,,,,,,,
,,,,,SPR24_048,19,Male,2024-04-15_15h03.21.782,jersey_experiment_5_v0,2023.2.2,Win32,85.47008547,,,,,,,,,,,,,,,,726.6581,727.7051,727.7051,730.2227,return,0.7761,,50.13020833,,,,,,FBP-OG-71.png,0.37,1.2,2,0.25,,,,,,,,,,,,,0,18,18,1,1,,,,,,,,,,,,,,,,,,,,,,,,,,,,
,,,,,SPR24_048,19,Male,2024-04-15_15h03.21.782,jersey_experiment_5_v0,2023.2.2,Win32,85.47008547,,,,,,,,,,,,,,,,730.2229,731.2698,731.2699,732.6228,return,0.1178,,53.90625,,,,,,FBP-OG-71.png,0.35,1.2,1,0.25,,,,,,,,,,,,,0,19,19,0,1,,,,,,,,,,,,,,,,,,,,,,,,,,,,
,,,,,SPR24_048,19,Male,2024-04-15_15h03.21.782,jersey_experiment_5_v0,2023.2.2,Win32,85.47008547,,,,,,,,,,,,,,,,732.6231,733.917,733.917,734.5758,return,0.0615,,55.46875,,,,,,FBP-YG-18.png,0.37,1.2,22,0.5,,,,,,,,,,,,,0,20,20,21,1,,,,,,,,,,,,,,,,,,,,,,,,,,,,
,,,,,SPR24_048,19,Male,2024-04-15_15h03.21.782,jersey_experiment_5_v0,2023.2.2,Win32,85.47008547,,,,,,,,,,,,,,,,734.5761,735.6229,735.623,737.1642,return,0.1198,,58.59375,,,,,,FBP-RB-19.png,0.37,1.2,42,0.25,,,,,,,,,,,,,0,21,21,41,1,,,,,,,,,,,,,,,,,,,,,,,,,,,,
,,,,,SPR24_048,19,Male,2024-04-15_15h03.21.782,jersey_experiment_5_v0,2023.2.2,Win32,85.47008547,,,,,,,,,,,,,,,,737.1644,738.4583,738.4583,739.7407,return,0.6252,,88.02083333,,,,,,FBP-YG-18.png,0.43,1.2,24,0.5,,,,,,,,,,,,,0,22,22,23,1,,,,,,,,,,,,,,,,,,,,,,,,,,,,
,,,,,SPR24_048,19,Male,2024-04-15_15h03.21.782,jersey_experiment_5_v0,2023.2.2,Win32,85.47008547,,,,,,,,,,,,,,,,739.7409,740.7877,740.7878,741.6231,return,0.1365,,94.27083333,,,,,,FBP-OG-71.png,0.45,1.2,5,0.25,,,,,,,,,,,,,0,23,23,4,1,,,,,,,,,,,,,,,,,,,,,,,,,,,,
,,,,,SPR24_048,19,Male,2024-04-15_15h03.21.782,jersey_experiment_5_v0,2023.2.2,Win32,85.47008547,,,,,,,,,,,,,,,,741.6233,742.6703,742.6703,744.1292,return,0.0471,,55.20833333,,,,,,FBP-RB-18.png,0.35,1.2,36,0.25,,,,,,,,,,,,,0,24,24,35,1,,,,,,,,,,,,,,,,,,,,,,,,,,,,
,,,,,SPR24_048,19,Male,2024-04-15_15h03.21.782,jersey_experiment_5_v0,2023.2.2,Win32,85.47008547,,,,,,,,,,,,,,,,744.1294,745.1763,745.1763,746.5527,return,0.0902,,49.47916667,,,,,,FBP-OG-91.png,0.37,1.2,12,0.25,,,,,,,,,,,,,0,25,25,11,1,,,,,,,,,,,,,,,,,,,,,,,,,,,,
,,,,,SPR24_048,19,Male,2024-04-15_15h03.21.782,jersey_experiment_5_v0,2023.2.2,Win32,85.47008547,,,,,,,,,,,,,,,,746.5529,747.5998,747.5999,748.7999,return,0.1047,,75.78125,,,,,,FBP-OG-71.png,0.4,1.2,3,0.25,,,,,,,,,,,,,0,26,26,2,1,,,,,,,,,,,,,,,,,,,,,,,,,,,,
,,,,,SPR24_048,19,Male,2024-04-15_15h03.21.782,jersey_experiment_5_v0,2023.2.2,Win32,85.47008547,,,,,,,,,,,,,,,,748.8002,749.847,749.847,751.9648,return,0.4246,,36.84895833,,,,,,FBP-OG-81.png,0.35,1.2,6,0.25,,,,,,,,,,,,,0,27,27,5,1,,,,,,,,,,,,,,,,,,,,,,,,,,,,
,,,,,SPR24_048,19,Male,2024-04-15_15h03.21.782,jersey_experiment_5_v0,2023.2.2,Win32,85.47008547,,,,,,,,,,,,,,,,751.965,753.2588,753.2588,755.6001,return,0.0331,,51.5625,,,,,,FBP-PT-17.png,0.4,1.2,48,0.5,,,,,,,,,,,,,0,28,28,47,1,,,,,,,,,,,,,,,,,,,,,,,,,,,,
,,,,,SPR24_048,19,Male,2024-04-15_15h03.21.782,jersey_experiment_5_v0,2023.2.2,Win32,85.47008547,,,,,,,,,,,,,,,,755.6004,756.6472,756.6473,757.5649,return,0.0718,,75.26041667,,,,,,FBP-RB-19.png,0.4,1.2,43,0.25,,,,,,,,,,,,,0,29,29,42,1,,,,,,,,,,,,,,,,,,,,,,,,,,,,
,,,,,SPR24_048,19,Male,2024-04-15_15h03.21.782,jersey_experiment_5_v0,2023.2.2,Win32,85.47008547,,,,,,,,,,,,,,,,757.565,758.6119,758.612,760.1061,return,0.0655,,75.26041667,,,,,,FBP-OG-91.png,0.35,1.2,11,0.25,,,,,,,,,,,,,0,30,30,10,1,,,,,,,,,,,,,,,,,,,,,,,,,,,,
,,,,,SPR24_048,19,Male,2024-04-15_15h03.21.782,jersey_experiment_5_v0,2023.2.2,Win32,85.47008547,,,,,,,,,,,,,,,,760.1063,761.1533,761.1533,762.5887,return,0.1449,,81.51041667,,,,,,FBP-RB-18.png,0.4,1.2,38,0.25,,,,,,,,,,,,,0,31,31,37,1,,,,,,,,,,,,,,,,,,,,,,,,,,,,
,,,,,SPR24_048,19,Male,2024-04-15_15h03.21.782,jersey_experiment_5_v0,2023.2.2,Win32,85.47008547,,,,,,,,,,,,,,,,762.5889,763.6358,763.6359,764.5887,return,0.0745,,58.07291667,,,,,,FBP-RB-18.png,0.37,1.2,37,0.25,,,,,,,,,,,,,0,32,32,36,1,,,,,,,,,,,,,,,,,,,,,,,,,,,,
,,,,,SPR24_048,19,Male,2024-04-15_15h03.21.782,jersey_experiment_5_v0,2023.2.2,Win32,85.47008547,,,,,,,,,,,,,,,,764.5888,765.8829,765.8829,766.577,return,0.1181,,89.19270833,,,,,,FBP-PT-17.png,0.45,1.2,50,0.5,,,,,,,,,,,,,0,33,33,49,1,,,,,,,,,,,,,,,,,,,,,,,,,,,,
,,,,,SPR24_048,19,Male,2024-04-15_15h03.21.782,jersey_experiment_5_v0,2023.2.2,Win32,85.47008547,,,,,,,,,,,,,,,,766.5772,767.8711,767.8711,768.8006,return,0.0804,,31.77083333,,,,,,FBP-PT-17.png,0.35,1.2,46,0.5,,,,,,,,,,,,,0,34,34,45,1,,,,,,,,,,,,,,,,,,,,,,,,,,,,
,,,,,SPR24_048,19,Male,2024-04-15_15h03.21.782,jersey_experiment_5_v0,2023.2.2,Win32,85.47008547,,,,,,,,,,,,,,,,768.8008,769.8478,769.8478,771.2243,return,0.0413,,93.359375,,,,,,FBP-RB-19.png,0.45,1.2,45,0.25,,,,,,,,,,,,,0,35,35,44,1,,,,,,,,,,,,,,,,,,,,,,,,,,,,
,,,,,SPR24_048,19,Male,2024-04-15_15h03.21.782,jersey_experiment_5_v0,2023.2.2,Win32,85.47008547,,,,,,,,,,,,,,,,771.2244,772.2712,772.2713,773.1302,return,0.0535,,93.359375,,,,,,FBP-OG-91.png,0.45,1.2,15,0.25,,,,,,,,,,,,,0,36,36,14,1,,,,,,,,,,,,,,,,,,,,,,,,,,,,
,,,,,SPR24_048,19,Male,2024-04-15_15h03.21.782,jersey_experiment_5_v0,2023.2.2,Win32,85.47008547,,,,,,,,,,,,,,,,773.1303,774.4243,774.4243,776.201,return,0.7487,,100,,,,,,FBP-PT-18.png,0.45,1.2,55,0.5,,,,,,,,,,,,,0,37,37,54,1,,,,,,,,,,,,,,,,,,,,,,,,,,,,
,,,,,SPR24_048,19,Male,2024-04-15_15h03.21.782,jersey_experiment_5_v0,2023.2.2,Win32,85.47008547,,,,,,,,,,,,,,,,776.2012,777.4951,777.4952,778.7304,return,0.1239,,99.86979167,,,,,,FBP-PT-19.png,0.45,1.2,60,0.5,,,,,,,,,,,,,0,38,38,59,1,,,,,,,,,,,,,,,,,,,,,,,,,,,,
,,,,,SPR24_048,19,Male,2024-04-15_15h03.21.782,jersey_experiment_5_v0,2023.2.2,Win32,85.47008547,,,,,,,,,,,,,,,,778.7305,780.0245,780.0245,781.2481,return,0.212,,82.55208333,,,,,,FBP-YG-17.png,0.43,1.2,19,0.5,,,,,,,,,,,,,0,39,39,18,1,,,,,,,,,,,,,,,,,,,,,,,,,,,,
,,,,,SPR24_048,19,Male,2024-04-15_15h03.21.782,jersey_experiment_5_v0,2023.2.2,Win32,85.47008547,,,,,,,,,,,,,,,,781.2484,782.5421,782.5422,783.2601,return,0.0868,,92.31770833,,,,,,FBP-YG-18.png,0.45,1.2,25,0.5,,,,,,,,,,,,,0,40,40,24,1,,,,,,,,,,,,,,,,,,,,,,,,,,,,
,,,,,SPR24_048,19,Male,2024-04-15_15h03.21.782,jersey_experiment_5_v0,2023.2.2,Win32,85.47008547,,,,,,,,,,,,,,,,783.2603,784.307,784.307,785.6483,return,0.3627,,87.36979167,,,,,,FBP-RB-19.png,0.43,1.2,44,0.25,,,,,,,,,,,,,0,41,41,43,1,,,,,,,,,,,,,,,,,,,,,,,,,,,,
,,,,,SPR24_048,19,Male,2024-04-15_15h03.21.782,jersey_experiment_5_v0,2023.2.2,Win32,85.47008547,,,,,,,,,,,,,,,,785.6485,786.9425,786.9425,787.7543,return,0.1453,,93.61979167,,,,,,FBP-YG-17.png,0.45,1.2,20,0.5,,,,,,,,,,,,,0,42,42,19,1,,,,,,,,,,,,,,,,,,,,,,,,,,,,
,,,,,SPR24_048,19,Male,2024-04-15_15h03.21.782,jersey_experiment_5_v0,2023.2.2,Win32,85.47008547,,,,,,,,,,,,,,,,787.7545,789.0485,789.0485,790.2015,return,0.1365,,33.72395833,,,,,,FBP-PT-17.png,0.37,1.2,47,0.5,,,,,,,,,,,,,0,43,43,46,1,,,,,,,,,,,,,,,,,,,,,,,,,,,,
,,,,,SPR24_048,19,Male,2024-04-15_15h03.21.782,jersey_experiment_5_v0,2023.2.2,Win32,85.47008547,,,,,,,,,,,,,,,,790.2018,791.2485,791.2485,792.919,return,0.0653,,81.640625,,,,,,FBP-RB-17.png,0.45,1.2,35,0.25,,,,,,,,,,,,,0,44,44,34,1,,,,,,,,,,,,,,,,,,,,,,,,,,,,
,,,,,SPR24_048,19,Male,2024-04-15_15h03.21.782,jersey_experiment_5_v0,2023.2.2,Win32,85.47008547,,,,,,,,,,,,,,,,792.9193,793.9662,793.9663,794.8134,return,0.0241,,85.80729167,,,,,,FBP-RB-18.png,0.45,1.2,40,0.25,,,,,,,,,,,,,0,45,45,39,1,,,,,,,,,,,,,,,,,,,,,,,,,,,,
,,,,,SPR24_048,19,Male,2024-04-15_15h03.21.782,jersey_experiment_5_v0,2023.2.2,Win32,85.47008547,,,,,,,,,,,,,,,,794.8136,796.1074,796.1074,796.6957,return,0.0771,,88.28125,,,,,,FBP-YG-19.png,0.45,1.2,30,0.5,,,,,,,,,,,,,0,46,46,29,1,,,,,,,,,,,,,,,,,,,,,,,,,,,,
,,,,,SPR24_048,19,Male,2024-04-15_15h03.21.782,jersey_experiment_5_v0,2023.2.2,Win32,85.47008547,,,,,,,,,,,,,,,,796.696,797.99,797.99,800.0018,return,0.1179,,31.640625,,,,,,FBP-YG-17.png,0.35,1.2,16,0.5,,,,,,,,,,,,,0,47,47,15,1,,,,,,,,,,,,,,,,,,,,,,,,,,,,
,,,,,SPR24_048,19,Male,2024-04-15_15h03.21.782,jersey_experiment_5_v0,2023.2.2,Win32,85.47008547,,,,,,,,,,,,,,,,800.0019,801.0489,801.049,802.3432,return,0.0305,,81.25,,,,,,FBP-OG-81.png,0.43,1.2,9,0.25,,,,,,,,,,,,,0,48,48,8,1,,,,,,,,,,,,,,,,,,,,,,,,,,,,
,,,,,SPR24_048,19,Male,2024-04-15_15h03.21.782,jersey_experiment_5_v0,2023.2.2,Win32,85.47008547,,,,,,,,,,,,,,,,802.3434,803.3901,803.3902,804.4607,return,0.1097,,38.80208333,,,,,,FBP-RB-17.png,0.35,1.2,31,0.25,,,,,,,,,,,,,0,49,49,30,1,,,,,,,,,,,,,,,,,,,,,,,,,,,,
,,,,,SPR24_048,19,Male,2024-04-15_15h03.21.782,jersey_experiment_5_v0,2023.2.2,Win32,85.47008547,,,,,,,,,,,,,,,,804.4609,805.7549,805.755,807.6021,return,0.0477,,27.99479167,,,,,,FBP-YG-17.png,0.37,1.2,17,0.5,,,,,,,,,,,,,0,50,50,16,1,,,,,,,,,,,,,,,,,,,,,,,,,,,,
,,,,,SPR24_048,19,Male,2024-04-15_15h03.21.782,jersey_experiment_5_v0,2023.2.2,Win32,85.47008547,,,,,,,,,,,,,,,,807.6023,808.8962,808.8962,809.9786,return,0.1468,,69.27083333,,,,,,FBP-YG-19.png,0.43,1.2,29,0.5,,,,,,,,,,,,,0,51,51,28,1,,,,,,,,,,,,,,,,,,,,,,,,,,,,
,,,,,SPR24_048,19,Male,2024-04-15_15h03.21.782,jersey_experiment_5_v0,2023.2.2,Win32,85.47008547,,,,,,,,,,,,,,,,809.9789,811.0256,811.0257,812.6729,return,0.0616,,64.71354167,,,,,,FBP-OG-81.png,0.4,1.2,8,0.25,,,,,,,,,,,,,0,52,52,7,1,,,,,,,,,,,,,,,,,,,,,,,,,,,,
,,,,,SPR24_048,19,Male,2024-04-15_15h03.21.782,jersey_experiment_5_v0,2023.2.2,Win32,85.47008547,,,,,,,,,,,,,,,,812.6732,813.967,813.967,815.2494,return,0.094,,50.65104167,,,,,,FBP-PT-18.png,0.4,1.2,53,0.5,,,,,,,,,,,,,0,53,53,52,1,,,,,,,,,,,,,,,,,,,,,,,,,,,,
,,,,,SPR24_048,19,Male,2024-04-15_15h03.21.782,jersey_experiment_5_v0,2023.2.2,Win32,85.47008547,,,,,,,,,,,,,,,,815.2496,816.5435,816.5435,818.4027,return,0.1182,,45.3125,,,,,,FBP-PT-19.png,0.35,1.2,56,0.5,,,,,,,,,,,,,0,54,54,55,1,,,,,,,,,,,,,,,,,,,,,,,,,,,,
,,,,,SPR24_048,19,Male,2024-04-15_15h03.21.782,jersey_experiment_5_v0,2023.2.2,Win32,85.47008547,,,,,,,,,,,,,,,,818.4029,819.4497,819.4497,820.6732,return,0.1557,,77.734375,,,,,,FBP-OG-81.png,0.45,1.2,10,0.25,,,,,,,,,,,,,0,55,55,9,1,,,,,,,,,,,,,,,,,,,,,,,,,,,,
,,,,,SPR24_048,19,Male,2024-04-15_15h03.21.782,jersey_experiment_5_v0,2023.2.2,Win32,85.47008547,,,,,,,,,,,,,,,,820.6734,821.9673,821.9673,823.7908,return,0.0723,,49.73958333,,,,,,FBP-YG-17.png,0.4,1.2,18,0.5,,,,,,,,,,,,,0,56,56,17,1,,,,,,,,,,,,,,,,,,,,,,,,,,,,
,,,,,SPR24_048,19,Male,2024-04-15_15h03.21.782,jersey_experiment_5_v0,2023.2.2,Win32,85.47008547,,,,,,,,,,,,,,,,823.7911,824.838,824.8381,825.9321,return,0.0986,,35.546875,,,,,,FBP-RB-19.png,0.35,1.2,41,0.25,,,,,,,,,,,,,0,57,57,40,1,,,,,,,,,,,,,,,,,,,,,,,,,,,,
,,,,,SPR24_048,19,Male,2024-04-15_15h03.21.782,jersey_experiment_5_v0,2023.2.2,Win32,85.47008547,,,,,,,,,,,,,,,,825.9324,827.2262,827.2262,828.8735,return,0.04,,30.33854167,,,,,,FBP-YG-18.png,0.35,1.2,21,0.5,,,,,,,,,,,,,0,58,58,20,1,,,,,,,,,,,,,,,,,,,,,,,,,,,,
,,,,,SPR24_048,19,Male,2024-04-15_15h03.21.782,jersey_experiment_5_v0,2023.2.2,Win32,85.47008547,,,,,,,,,,,,,,,,828.8736,829.9205,829.9205,832.5089,return,1.3095,,49.73958333,,,,,,FBP-OG-91.png,0.4,1.2,13,0.25,,,,,,,,,,,,,0,59,59,12,1,,,,,,,,,,,,,,,,,,,,,,,,,,,,
,,,,,SPR24_048,19,Male,2024-04-15_15h03.21.782,jersey_experiment_5_v0,2023.2.2,Win32,85.47008547,,,,,,,,,,,,,,,,832.5105,833.5558,833.5558,834.3441,return,0.0526,,49.73958333,,,,,,FBP-RB-91.png,0.37,1.2,42,0.25,,,,,,,,,,,,,,,,,,0,0,0,41,1,,,,,,,,,,,,,,,,,,,,,,,
,,,,,SPR24_048,19,Male,2024-04-15_15h03.21.782,jersey_experiment_5_v0,2023.2.2,Win32,85.47008547,,,,,,,,,,,,,,,,834.3445,835.3912,835.3912,836.4267,return,0.0996,,49.73958333,,,,,,FBP-RB-71.png,0.37,1.2,32,0.25,,,,,,,,,,,,,,,,,,0,1,1,31,1,,,,,,,,,,,,,,,,,,,,,,,
,,,,,SPR24_048,19,Male,2024-04-15_15h03.21.782,jersey_experiment_5_v0,2023.2.2,Win32,85.47008547,,,,,,,,,,,,,,,,836.4269,837.7207,837.7208,838.4738,return,0.0868,,55.98958333,,,,,,FBP-PT-71.png,0.4,1.2,48,0.5,,,,,,,,,,,,,,,,,,0,2,2,47,1,,,,,,,,,,,,,,,,,,,,,,,
,,,,,SPR24_048,19,Male,2024-04-15_15h03.21.782,jersey_experiment_5_v0,2023.2.2,Win32,85.47008547,,,,,,,,,,,,,,,,838.4741,839.521,839.521,840.4973,return,0.0705,,65.234375,,,,,,FBP-OG-18.png,0.43,1.2,9,0.25,,,,,,,,,,,,,,,,,,0,3,3,8,1,,,,,,,,,,,,,,,,,,,,,,,
,,,,,SPR24_048,19,Male,2024-04-15_15h03.21.782,jersey_experiment_5_v0,2023.2.2,Win32,85.47008547,,,,,,,,,,,,,,,,840.4976,841.7915,841.7915,842.4503,return,0.0475,,66.27604167,,,,,,FBP-PT-91.png,0.4,1.2,58,0.5,,,,,,,,,,,,,,,,,,0,4,4,57,1,,,,,,,,,,,,,,,,,,,,,,,
,,,,,SPR24_048,19,Male,2024-04-15_15h03.21.782,jersey_experiment_5_v0,2023.2.2,Win32,85.47008547,,,,,,,,,,,,,,,,842.4505,843.4975,843.4976,844.3682,return,0.0611,,75.65104167,,,,,,FBP-OG-17.png,0.43,1.2,4,0.25,,,,,,,,,,,,,,,,,,0,5,5,3,1,,,,,,,,,,,,,,,,,,,,,,,
,,,,,SPR24_048,19,Male,2024-04-15_15h03.21.782,jersey_experiment_5_v0,2023.2.2,Win32,85.47008547,,,,,,,,,,,,,,,,844.3684,845.6624,845.6624,846.7447,return,0.0991,,50,,,,,,FBP-PT-71.png,0.35,1.2,46,0.5,,,,,,,,,,,,,,,,,,0,6,6,45,1,,,,,,,,,,,,,,,,,,,,,,,
,,,,,SPR24_048,19,Male,2024-04-15_15h03.21.782,jersey_experiment_5_v0,2023.2.2,Win32,85.47008547,,,,,,,,,,,,,,,,846.745,848.0389,848.0389,849.0152,return,0.0414,,70.703125,,,,,,FBP-YG-81.png,0.43,1.2,24,0.5,,,,,,,,,,,,,,,,,,0,7,7,23,1,,,,,,,,,,,,,,,,,,,,,,,
,,,,,SPR24_048,19,Male,2024-04-15_15h03.21.782,jersey_experiment_5_v0,2023.2.2,Win32,85.47008547,,,,,,,,,,,,,,,,849.0154,850.3095,850.3095,851.1801,return,0.0277,,79.03645833,,,,,,FBP-YG-91.png,0.45,1.2,30,0.5,,,,,,,,,,,,,,,,,,0,8,8,29,1,,,,,,,,,,,,,,,,,,,,,,,
,,,,,SPR24_048,19,Male,2024-04-15_15h03.21.782,jersey_experiment_5_v0,2023.2.2,Win32,85.47008547,,,,,,,,,,,,,,,,851.1803,852.4742,852.4742,853.6155,return,0.1177,,45.703125,,,,,,FBP-PT-71.png,0.37,1.2,47,0.5,,,,,,,,,,,,,,,,,,0,9,9,46,1,,,,,,,,,,,,,,,,,,,,,,,
,,,,,SPR24_048,19,Male,2024-04-15_15h03.21.782,jersey_experiment_5_v0,2023.2.2,Win32,85.47008547,,,,,,,,,,,,,,,,853.6158,854.6626,854.6627,855.4156,return,0.0647,,69.01041667,,,,,,FBP-OG-18.png,0.45,1.2,10,0.25,,,,,,,,,,,,,,,,,,0,10,10,9,1,,,,,,,,,,,,,,,,,,,,,,,
,,,,,SPR24_048,19,Male,2024-04-15_15h03.21.782,jersey_experiment_5_v0,2023.2.2,Win32,85.47008547,,,,,,,,,,,,,,,,855.4158,856.4627,856.4627,857.298,return,0.1035,,53.515625,,,,,,FBP-RB-91.png,0.4,1.2,43,0.25,,,,,,,,,,,,,,,,,,0,11,11,42,1,,,,,,,,,,,,,,,,,,,,,,,
,,,,,SPR24_048,19,Male,2024-04-15_15h03.21.782,jersey_experiment_5_v0,2023.2.2,Win32,85.47008547,,,,,,,,,,,,,,,,857.2982,858.3453,858.3454,870.0396,return,0.1147,,55.98958333,,,,,,FBP-OG-17.png,0.35,1.2,1,0.25,,,,,,,,,,,,,,,,,,0,12,12,0,1,,,,,,,,,,,,,,,,,,,,,,,
,,,,,SPR24_048,19,Male,2024-04-15_15h03.21.782,jersey_experiment_5_v0,2023.2.2,Win32,85.47008547,,,,,,,,,,,,,,,,870.0399,871.0867,871.0867,872.2515,return,0.073,,30.72916667,,,,,,FBP-OG-18.png,0.35,1.2,6,0.25,,,,,,,,,,,,,,,,,,0,13,13,5,1,,,,,,,,,,,,,,,,,,,,,,,
,,,,,SPR24_048,19,Male,2024-04-15_15h03.21.782,jersey_experiment_5_v0,2023.2.2,Win32,85.47008547,,,,,,,,,,,,,,,,872.2517,873.2985,873.2986,874.9694,return,0.1251,,38.28125,,,,,,FBP-RB-91.png,0.35,1.2,41,0.25,,,,,,,,,,,,,,,,,,0,14,14,40,1,,,,,,,,,,,,,,,,,,,,,,,
,,,,,SPR24_048,19,Male,2024-04-15_15h03.21.782,jersey_experiment_5_v0,2023.2.2,Win32,85.47008547,,,,,,,,,,,,,,,,874.9696,876.2633,876.2634,888.3933,return,1.0542,,46.484375,,,,,,FBP-YG-91.png,0.37,1.2,27,0.5,,,,,,,,,,,,,,,,,,0,15,15,26,1,,,,,,,,,,,,,,,,,,,,,,,
,,,,,SPR24_048,19,Male,2024-04-15_15h03.21.782,jersey_experiment_5_v0,2023.2.2,Win32,85.47008547,,,,,,,,,,,,,,,,888.3936,889.6874,889.6874,890.3814,return,0.0735,,65.625,,,,,,FBP-YG-81.png,0.4,1.2,23,0.5,,,,,,,,,,,,,,,,,,0,16,16,22,1,,,,,,,,,,,,,,,,,,,,,,,
,,,,,SPR24_048,19,Male,2024-04-15_15h03.21.782,jersey_experiment_5_v0,2023.2.2,Win32,85.47008547,,,,,,,,,,,,,,,,890.3816,891.6756,891.6756,892.9112,return,0.6501,,92.96875,,,,,,FBP-YG-91.png,0.43,1.2,29,0.5,,,,,,,,,,,,,,,,,,0,17,17,28,1,,,,,,,,,,,,,,,,,,,,,,,
,,,,,SPR24_048,19,Male,2024-04-15_15h03.21.782,jersey_experiment_5_v0,2023.2.2,Win32,85.47008547,,,,,,,,,,,,,,,,892.9114,894.2052,894.2053,894.9582,return,0.0613,,96.22395833,,,,,,FBP-PT-81.png,0.43,1.2,54,0.5,,,,,,,,,,,,,,,,,,0,18,18,53,1,,,,,,,,,,,,,,,,,,,,,,,
,,,,,SPR24_048,19,Male,2024-04-15_15h03.21.782,jersey_experiment_5_v0,2023.2.2,Win32,85.47008547,,,,,,,,,,,,,,,,894.9584,896.2526,896.2526,898.17,return,0.086,,42.05729167,,,,,,FBP-YG-71.png,0.37,1.2,17,0.5,,,,,,,,,,,,,,,,,,0,19,19,16,1,,,,,,,,,,,,,,,,,,,,,,,
,,,,,SPR24_048,19,Male,2024-04-15_15h03.21.782,jersey_experiment_5_v0,2023.2.2,Win32,85.47008547,,,,,,,,,,,,,,,,898.1702,899.2173,899.2173,901.5113,return,0.1505,,43.359375,,,,,,FBP-OG-17.png,0.37,1.2,2,0.25,,,,,,,,,,,,,,,,,,0,20,20,1,1,,,,,,,,,,,,,,,,,,,,,,,
,,,,,SPR24_048,19,Male,2024-04-15_15h03.21.782,jersey_experiment_5_v0,2023.2.2,Win32,85.47008547,,,,,,,,,,,,,,,,901.5115,902.8057,902.8057,903.3703,return,0.1095,,64.32291667,,,,,,FBP-YG-91.png,0.4,1.2,28,0.5,,,,,,,,,,,,,,,,,,0,21,21,27,1,,,,,,,,,,,,,,,,,,,,,,,
,,,,,SPR24_048,19,Male,2024-04-15_15h03.21.782,jersey_experiment_5_v0,2023.2.2,Win32,85.47008547,,,,,,,,,,,,,,,,903.3704,904.4174,904.4174,905.2175,return,0.0148,,84.89583333,,,,,,FBP-RB-81.png,0.4,1.2,38,0.25,,,,,,,,,,,,,,,,,,0,22,22,37,1,,,,,,,,,,,,,,,,,,,,,,,
,,,,,SPR24_048,19,Male,2024-04-15_15h03.21.782,jersey_experiment_5_v0,2023.2.2,Win32,85.47008547,,,,,,,,,,,,,,,,905.2177,906.5115,906.5115,907.9941,return,0.0284,,90.10416667,,,,,,FBP-PT-71.png,0.45,1.2,50,0.5,,,,,,,,,,,,,,,,,,0,23,23,49,1,,,,,,,,,,,,,,,,,,,,,,,
,,,,,SPR24_048,19,Male,2024-04-15_15h03.21.782,jersey_experiment_5_v0,2023.2.2,Win32,85.47008547,,,,,,,,,,,,,,,,907.9943,909.2882,909.2883,910.6177,return,0.148,,31.640625,,,,,,FBP-PT-91.png,0.35,1.2,56,0.5,,,,,,,,,,,,,,,,,,0,24,24,55,1,,,,,,,,,,,,,,,,,,,,,,,
,,,,,SPR24_048,19,Male,2024-04-15_15h03.21.782,jersey_experiment_5_v0,2023.2.2,Win32,85.47008547,,,,,,,,,,,,,,,,910.6179,911.9118,911.9118,914.0884,return,0.0671,,64.97395833,,,,,,FBP-YG-71.png,0.43,1.2,19,0.5,,,,,,,,,,,,,,,,,,0,25,25,18,1,,,,,,,,,,,,,,,,,,,,,,,
,,,,,SPR24_048,19,Male,2024-04-15_15h03.21.782,jersey_experiment_5_v0,2023.2.2,Win32,85.47008547,,,,,,,,,,,,,,,,914.0885,915.3826,915.3826,916.5119,return,0.0617,,93.48958333,,,,,,FBP-PT-91.png,0.45,1.2,60,0.5,,,,,,,,,,,,,,,,,,0,26,26,59,1,,,,,,,,,,,,,,,,,,,,,,,
,,,,,SPR24_048,19,Male,2024-04-15_15h03.21.782,jersey_experiment_5_v0,2023.2.2,Win32,85.47008547,,,,,,,,,,,,,,,,916.5122,917.559,917.559,918.8297,return,0.0736,,74.21875,,,,,,FBP-RB-91.png,0.43,1.2,44,0.25,,,,,,,,,,,,,,,,,,0,27,27,43,1,,,,,,,,,,,,,,,,,,,,,,,
,,,,,SPR24_048,19,Male,2024-04-15_15h03.21.782,jersey_experiment_5_v0,2023.2.2,Win32,85.47008547,,,,,,,,,,,,,,,,918.8299,919.8768,919.8768,921.3122,return,0.1323,,37.63020833,,,,,,FBP-OG-19.png,0.37,1.2,12,0.25,,,,,,,,,,,,,,,,,,0,28,28,11,1,,,,,,,,,,,,,,,,,,,,,,,
,,,,,SPR24_048,19,Male,2024-04-15_15h03.21.782,jersey_experiment_5_v0,2023.2.2,Win32,85.47008547,,,,,,,,,,,,,,,,921.3125,922.3592,922.3593,923.2417,return,0.0892,,49.86979167,,,,,,FBP-OG-18.png,0.4,1.2,8,0.25,,,,,,,,,,,,,,,,,,0,29,29,7,1,,,,,,,,,,,,,,,,,,,,,,,
,,,,,SPR24_048,19,Male,2024-04-15_15h03.21.782,jersey_experiment_5_v0,2023.2.2,Win32,85.47008547,,,,,,,,,,,,,,,,923.2419,924.2887,924.2887,954.478,return,0.3552,,38.671875,,,,,,FBP-RB-81.png,0.35,1.2,36,0.25,,,,,,,,,,,,,,,,,,0,30,30,35,1,,,,,,,,,,,,,,,,,,,,,,,
,,,,,SPR24_048,19,Male,2024-04-15_15h03.21.782,jersey_experiment_5_v0,2023.2.2,Win32,85.47008547,,,,,,,,,,,,,,,,954.4782,955.7722,955.7722,957.2665,return,0.415,,54.94791667,,,,,,FBP-PT-81.png,0.4,1.2,53,0.5,,,,,,,,,,,,,,,,,,0,31,31,52,1,,,,,,,,,,,,,,,,,,,,,,,
,,,,,SPR24_048,19,Male,2024-04-15_15h03.21.782,jersey_experiment_5_v0,2023.2.2,Win32,85.47008547,,,,,,,,,,,,,,,,957.2667,958.5606,958.5607,960.9137,return,0.1648,,47.13541667,,,,,,FBP-YG-91.png,0.35,1.2,26,0.5,,,,,,,,,,,,,,,,,,0,32,32,25,1,,,,,,,,,,,,,,,,,,,,,,,
,,,,,SPR24_048,19,Male,2024-04-15_15h03.21.782,jersey_experiment_5_v0,2023.2.2,Win32,85.47008547,,,,,,,,,,,,,,,,960.9138,961.9607,961.9607,963.8078,return,0.2347,,38.671875,,,,,,FBP-OG-18.png,0.37,1.2,7,0.25,,,,,,,,,,,,,,,,,,0,33,33,6,1,,,,,,,,,,,,,,,,,,,,,,,
,,,,,SPR24_048,19,Male,2024-04-15_15h03.21.782,jersey_experiment_5_v0,2023.2.2,Win32,85.47008547,,,,,,,,,,,,,,,,963.808,965.102,965.102,977.1965,return,5.8274,,45.05208333,,,,,,FBP-YG-71.png,0.35,1.2,16,0.5,,,,,,,,,,,,,,,,,,0,34,34,15,1,,,,,,,,,,,,,,,,,,,,,,,
,,,,,SPR24_048,19,Male,2024-04-15_15h03.21.782,jersey_experiment_5_v0,2023.2.2,Win32,85.47008547,,,,,,,,,,,,,,,,977.1967,978.4906,978.4906,979.2552,return,0.0652,,41.14583333,,,,,,FBP-YG-81.png,0.35,1.2,21,0.5,,,,,,,,,,,,,,,,,,0,35,35,20,1,,,,,,,,,,,,,,,,,,,,,,,
,,,,,SPR24_048,19,Male,2024-04-15_15h03.21.782,jersey_experiment_5_v0,2023.2.2,Win32,85.47008547,,,,,,,,,,,,,,,,979.2555,980.3026,980.3026,981.7732,return,0.0502,,42.70833333,,,,,,FBP-OG-19.png,0.35,1.2,11,0.25,,,,,,,,,,,,,,,,,,0,36,36,10,1,,,,,,,,,,,,,,,,,,,,,,,
,,,,,SPR24_048,19,Male,2024-04-15_15h03.21.782,jersey_experiment_5_v0,2023.2.2,Win32,85.47008547,,,,,,,,,,,,,,,,981.7733,982.8203,982.8203,984.6557,return,1.1296,,68.61979167,,,,,,FBP-RB-71.png,0.43,1.2,34,0.25,,,,,,,,,,,,,,,,,,0,37,37,33,1,,,,,,,,,,,,,,,,,,,,,,,
,,,,,SPR24_048,19,Male,2024-04-15_15h03.21.782,jersey_experiment_5_v0,2023.2.2,Win32,85.47008547,,,,,,,,,,,,,,,,984.6559,985.9498,985.9498,986.5851,return,0.052,,75.13020833,,,,,,FBP-PT-71.png,0.43,1.2,49,0.5,,,,,,,,,,,,,,,,,,0,38,38,48,1,,,,,,,,,,,,,,,,,,,,,,,
,,,,,SPR24_048,19,Male,2024-04-15_15h03.21.782,jersey_experiment_5_v0,2023.2.2,Win32,85.47008547,,,,,,,,,,,,,,,,986.5854,987.8794,987.8794,988.8793,return,0.1658,,91.53645833,,,,,,FBP-YG-71.png,0.45,1.2,20,0.5,,,,,,,,,,,,,,,,,,0,39,39,19,1,,,,,,,,,,,,,,,,,,,,,,,
,,,,,SPR24_048,19,Male,2024-04-15_15h03.21.782,jersey_experiment_5_v0,2023.2.2,Win32,85.47008547,,,,,,,,,,,,,,,,988.8796,990.1736,990.1736,990.9734,return,0.177,,68.359375,,,,,,FBP-YG-81.png,0.37,1.2,22,0.5,,,,,,,,,,,,,,,,,,0,40,40,21,1,,,,,,,,,,,,,,,,,,,,,,,
,,,,,SPR24_048,19,Male,2024-04-15_15h03.21.782,jersey_experiment_5_v0,2023.2.2,Win32,85.47008547,,,,,,,,,,,,,,,,990.9736,992.0207,992.0207,993.6088,return,0.1252,,81.640625,,,,,,FBP-OG-17.png,0.45,1.2,5,0.25,,,,,,,,,,,,,,,,,,0,41,41,4,1,,,,,,,,,,,,,,,,,,,,,,,
,,,,,SPR24_048,19,Male,2024-04-15_15h03.21.782,jersey_experiment_5_v0,2023.2.2,Win32,85.47008547,,,,,,,,,,,,,,,,993.609,994.6561,994.6561,996.056,return,0.0886,,92.70833333,,,,,,FBP-RB-81.png,0.43,1.2,39,0.25,,,,,,,,,,,,,,,,,,0,42,42,38,1,,,,,,,,,,,,,,,,,,,,,,,
,,,,,SPR24_048,19,Male,2024-04-15_15h03.21.782,jersey_experiment_5_v0,2023.2.2,Win32,85.47008547,,,,,,,,,,,,,,,,996.0561,997.3501,997.3502,999.5033,return,0.1325,,90.625,,,,,,FBP-PT-81.png,0.45,1.2,55,0.5,,,,,,,,,,,,,,,,,,0,43,43,54,1,,,,,,,,,,,,,,,,,,,,,,,
,,,,,SPR24_048,19,Male,2024-04-15_15h03.21.782,jersey_experiment_5_v0,2023.2.2,Win32,85.47008547,,,,,,,,,,,,,,,,999.5035,1000.7975,1000.7975,1001.9151,return,0.0616,,53.77604167,,,,,,FBP-PT-91.png,0.37,1.2,57,0.5,,,,,,,,,,,,,,,,,,0,44,44,56,1,,,,,,,,,,,,,,,,,,,,,,,
,,,,,SPR24_048,19,Male,2024-04-15_15h03.21.782,jersey_experiment_5_v0,2023.2.2,Win32,85.47008547,,,,,,,,,,,,,,,,1001.9153,1002.9622,1002.9622,1003.9975,return,0.1088,,45.3125,,,,,,FBP-RB-71.png,0.35,1.2,31,0.25,,,,,,,,,,,,,,,,,,0,45,45,30,1,,,,,,,,,,,,,,,,,,,,,,,
,,,,,SPR24_048,19,Male,2024-04-15_15h03.21.782,jersey_experiment_5_v0,2023.2.2,Win32,85.47008547,,,,,,,,,,,,,,,,1003.9977,1005.0446,1005.0446,1008.5388,return,0.0974,,53.38541667,,,,,,FBP-OG-19.png,0.4,1.2,13,0.25,,,,,,,,,,,,,,,,,,0,46,46,12,1,,,,,,,,,,,,,,,,,,,,,,,
,,,,,SPR24_048,19,Male,2024-04-15_15h03.21.782,jersey_experiment_5_v0,2023.2.2,Win32,85.47008547,,,,,,,,,,,,,,,,1008.5391,1009.8331,1009.8331,1011.1272,return,0.1621,,67.83854167,,,,,,FBP-PT-91.png,0.43,1.2,59,0.5,,,,,,,,,,,,,,,,,,0,47,47,58,1,,,,,,,,,,,,,,,,,,,,,,,
,,,,,SPR24_048,19,Male,2024-04-15_15h03.21.782,jersey_experiment_5_v0,2023.2.2,Win32,85.47008547,,,,,,,,,,,,,,,,1011.1275,1012.1742,1012.1742,1013.1154,return,0.0521,,87.5,,,,,,FBP-RB-91.png,0.45,1.2,45,0.25,,,,,,,,,,,,,,,,,,0,48,48,44,1,,,,,,,,,,,,,,,,,,,,,,,
,,,,,SPR24_048,19,Male,2024-04-15_15h03.21.782,jersey_experiment_5_v0,2023.2.2,Win32,85.47008547,,,,,,,,,,,,,,,,1013.1156,1014.4097,1014.4097,1015.1861,return,0.0473,,57.29166667,,,,,,FBP-YG-71.png,0.4,1.2,18,0.5,,,,,,,,,,,,,,,,,,0,49,49,17,1,,,,,,,,,,,,,,,,,,,,,,,
,,,,,SPR24_048,19,Male,2024-04-15_15h03.21.782,jersey_experiment_5_v0,2023.2.2,Win32,85.47008547,,,,,,,,,,,,,,,,1015.1863,1016.2333,1016.2333,1017.0214,return,0.0734,,66.40625,,,,,,FBP-OG-19.png,0.43,1.2,14,0.25,,,,,,,,,,,,,,,,,,0,50,50,13,1,,,,,,,,,,,,,,,,,,,,,,,
,,,,,SPR24_048,19,Male,2024-04-15_15h03.21.782,jersey_experiment_5_v0,2023.2.2,Win32,85.47008547,,,,,,,,,,,,,,,,1017.0217,1018.3157,1018.3157,1019.4569,return,0.5416,,89.19270833,,,,,,FBP-YG-81.png,0.45,1.2,25,0.5,,,,,,,,,,,,,,,,,,0,51,51,24,1,,,,,,,,,,,,,,,,,,,,,,,
,,,,,SPR24_048,19,Male,2024-04-15_15h03.21.782,jersey_experiment_5_v0,2023.2.2,Win32,85.47008547,,,,,,,,,,,,,,,,1019.4571,1020.504,1020.5041,1021.8216,return,0.0735,,81.11979167,,,,,,FBP-OG-19.png,0.45,1.2,15,0.25,,,,,,,,,,,,,,,,,,0,52,52,14,1,,,,,,,,,,,,,,,,,,,,,,,
,,,,,SPR24_048,19,Male,2024-04-15_15h03.21.782,jersey_experiment_5_v0,2023.2.2,Win32,85.47008547,,,,,,,,,,,,,,,,1021.8218,1023.1157,1023.1158,1025.0807,return,0.2171,,38.41145833,,,,,,FBP-PT-81.png,0.35,1.2,51,0.5,,,,,,,,,,,,,,,,,,0,53,53,50,1,,,,,,,,,,,,,,,,,,,,,,,
,,,,,SPR24_048,19,Male,2024-04-15_15h03.21.782,jersey_experiment_5_v0,2023.2.2,Win32,85.47008547,,,,,,,,,,,,,,,,1025.0811,1026.1276,1026.1276,1027.2454,return,0.0856,,67.05729167,,,,,,FBP-RB-71.png,0.4,1.2,33,0.25,,,,,,,,,,,,,,,,,,0,54,54,32,1,,,,,,,,,,,,,,,,,,,,,,,
,,,,,SPR24_048,19,Male,2024-04-15_15h03.21.782,jersey_experiment_5_v0,2023.2.2,Win32,85.47008547,,,,,,,,,,,,,,,,1027.2456,1028.2925,1028.2926,1029.3396,return,0.0871,,67.05729167,,,,,,FBP-OG-17.png,0.4,1.2,3,0.25,,,,,,,,,,,,,,,,,,0,55,55,2,1,,,,,,,,,,,,,,,,,,,,,,,
,,,,,SPR24_048,19,Male,2024-04-15_15h03.21.782,jersey_experiment_5_v0,2023.2.2,Win32,85.47008547,,,,,,,,,,,,,,,,1029.3398,1030.3866,1030.3866,1032.3045,return,0.0957,,53.77604167,,,,,,FBP-RB-81.png,0.37,1.2,37,0.25,,,,,,,,,,,,,,,,,,0,56,56,36,1,,,,,,,,,,,,,,,,,,,,,,,
,,,,,SPR24_048,19,Male,2024-04-15_15h03.21.782,jersey_experiment_5_v0,2023.2.2,Win32,85.47008547,,,,,,,,,,,,,,,,1032.3047,1033.5986,1033.5986,1034.9515,return,0.1591,,58.72395833,,,,,,FBP-PT-81.png,0.37,1.2,52,0.5,,,,,,,,,,,,,,,,,,0,57,57,51,1,,,,,,,,,,,,,,,,,,,,,,,
,,,,,SPR24_048,19,Male,2024-04-15_15h03.21.782,jersey_experiment_5_v0,2023.2.2,Win32,85.47008547,,,,,,,,,,,,,,,,1034.9516,1035.9988,1035.9988,1036.7047,return,0.0615,,69.66145833,,,,,,FBP-RB-71.png,0.45,1.2,35,0.25,,,,,,,,,,,,,,,,,,0,58,58,34,1,,,,,,,,,,,,,,,,,,,,,,,
,,,,,SPR24_048,19,Male,2024-04-15_15h03.21.782,jersey_experiment_5_v0,2023.2.2,Win32,85.47008547,,,,,,,,,,,,,,,,1036.7049,1037.7516,1037.7517,1039.0694,return,0.0594,,64.19270833,,,,,,FBP-RB-81.png,0.45,1.2,40,0.25,,,,,,,,,,,,,,,,,,0,59,59,39,1,,,,,,,,,,,,,,,,,,,,,,,
,,,,,SPR24_048,19,Male,2024-04-15_15h03.21.782,jersey_experiment_5_v0,2023.2.2,Win32,85.47008547,,,,,,,,,,,,,,,,,,,,,,,,,,,,,,,,,,,,,,,,,,,,,,,,,,,,,,,,1039.0697,1047.5523,return,8.47,,,,,,,,,,,,,,,,,,,
,,,,,SPR24_048,19,Male,2024-04-15_15h03.21.782,jersey_experiment_5_v0,2023.2.2,Win32,85.47008547,,,,,,,,,,,,,,,,,,,,,,,,,,,,,,,,,,,,,,,,,,,,,,,,,,,,,,,,,,,,,1047.5524,1052.6348,1,3.4099,return,1.65,,,,,,,,,,,,
,,,,,SPR24_048,19,Male,2024-04-15_15h03.21.782,jersey_experiment_5_v0,2023.2.2,Win32,85.47008547,,,,,,,,,,,,,,,,,,,,,,,,,,,,,,,,,,,,,,,,,,,,,,,,,,,,,,,,,,,,,,,,,,,,1052.635,1096.3354,Possibly something about how I use the previous image to reference the size of the next player,right,35.336,,,,,,
,,,,,SPR24_048,19,Male,2024-04-15_15h03.21.782,jersey_experiment_5_v0,2023.2.2,Win32,85.47008547,,,,,,,,,,,,,,,,,,,,,,,,,,,,,,,,,,,,,,,,,,,,,,,,,,,,,,,,,,,,,,,,,,,,,,,,,,1096.3354,1099.2482,return,2.902,