requirements.started,requirements.stopped,key_resp_3.keys,key_resp_3.rt,key_resp_3.duration,Subject ID,Age,Gender,date,expName,psychopyVersion,OS,frameRate,instructions1.started,instructions1.stopped,key_resp.keys,key_resp.rt,key_resp.duration,example.started,example.stopped,enter_2.keys,enter_2.rt,enter_2.duration,instructions2.started,instructions2.stopped,enter_3.keys,enter_3.rt,enter_3.duration,image.started,image.stopped,slider_2.started,slider_2.stopped,next.keys,next.rt,next.duration,slider.response,trial_block_1.thisRepN,trial_block_1.thisTrialN,trial_block_1.thisN,trial_block_1.thisIndex,trial_block_1.ran,Path,Width,Height,Index,Duration,trial_block_2.thisRepN,trial_block_2.thisTrialN,trial_block_2.thisN,trial_block_2.thisIndex,trial_block_2.ran,rest_break.started,rest_break.stopped,end_break.started,end_break.stopped,key_resp_5.keys,key_resp_5.rt,key_resp_5.duration,trial_block_3.thisRepN,trial_block_3.thisTrialN,trial_block_3.thisN,trial_block_3.thisIndex,trial_block_3.ran,trial_block_4.thisRepN,trial_block_4.thisTrialN,trial_block_4.thisN,trial_block_4.thisIndex,trial_block_4.ran,questions_intro.started,questions_intro.stopped,enter_12.keys,enter_12.rt,enter_12.duration,question2.started,question2.stopped,question_doingbest.response,question_doingbest.rt,enter_15.keys,enter_15.rt,enter_15.duration,pattern.started,pattern.stopped,pattern_2.text,enter_17.keys,enter_17.rt,enter_17.duration,thankyou.started,thankyou.stopped,enter_14.keys,enter_14.rt,enter_14.duration
0.0001,10.8342,return,10.819,,SPR24_091,21,male,2024-04-25_13h05.17.630,jersey_experiment_5_v0,2023.2.2,Win32,60.24096386,,,,,,,,,,,,,,,,,,,,,,,,,,,,,,,,,,,,,,,,,,,,,,,,,,,,,,,,,,,,,,,,,,,,,,,,,,,,,,
,,,,,SPR24_091,21,male,2024-04-25_13h05.17.630,jersey_experiment_5_v0,2023.2.2,Win32,60.24096386,10.8344,20.0873,return,9.2305,,,,,,,,,,,,,,,,,,,,,,,,,,,,,,,,,,,,,,,,,,,,,,,,,,,,,,,,,,,,,,,,,,,,,,,,,,
,,,,,SPR24_091,21,male,2024-04-25_13h05.17.630,jersey_experiment_5_v0,2023.2.2,Win32,60.24096386,,,,,,20.0873,24.6056,return,4.4944,,,,,,,,,,,,,,,,,,,,,,,,,,,,,,,,,,,,,,,,,,,,,,,,,,,,,,,,,,,,,,,,,,,,,
,,,,,SPR24_091,21,male,2024-04-25_13h05.17.630,jersey_experiment_5_v0,2023.2.2,Win32,60.24096386,,,,,,,,,,,24.6057,43.8983,return,19.2728,,,,,,,,,,,,,,,,,,,,,,,,,,,,,,,,,,,,,,,,,,,,,,,,,,,,,,,,,,,,,,,,
,,,,,SPR24_091,21,male,2024-04-25_13h05.17.630,jersey_experiment_5_v0,2023.2.2,Win32,60.24096386,,,,,,,,,,,,,,,,43.9043,44.9481,44.9482,58.4471,return,2.0197,,50,0,0,0,54,1,FBP-PT-18.png,0.45,1.2,55,0.25,,,,,,,,,,,,,,,,,,,,,,,,,,,,,,,,,,,,,,,,,,,,,
,,,,,SPR24_091,21,male,2024-04-25_13h05.17.630,jersey_experiment_5_v0,2023.2.2,Win32,60.24096386,,,,,,,,,,,,,,,,58.4474,59.7525,59.7525,66.6533,return,2.3865,,25,0,1,1,35,1,FBP-RB-18.png,0.35,1.2,36,0.5,,,,,,,,,,,,,,,,,,,,,,,,,,,,,,,,,,,,,,,,,,,,,
,,,,,SPR24_091,21,male,2024-04-25_13h05.17.630,jersey_experiment_5_v0,2023.2.2,Win32,60.24096386,,,,,,,,,,,,,,,,66.6574,67.954,67.954,73.0461,return,2.617,,74.47916667,0,2,2,44,1,FBP-RB-19.png,0.45,1.2,45,0.5,,,,,,,,,,,,,,,,,,,,,,,,,,,,,,,,,,,,,,,,,,,,,
,,,,,SPR24_091,21,male,2024-04-25_13h05.17.630,jersey_experiment_5_v0,2023.2.2,Win32,60.24096386,,,,,,,,,,,,,,,,73.0462,74.3351,74.3351,79.1623,return,2.0569,,75.26041667,0,3,3,39,1,FBP-RB-18.png,0.45,1.2,40,0.5,,,,,,,,,,,,,,,,,,,,,,,,,,,,,,,,,,,,,,,,,,,,,
,,,,,SPR24_091,21,male,2024-04-25_13h05.17.630,jersey_experiment_5_v0,2023.2.2,Win32,60.24096386,,,,,,,,,,,,,,,,79.1625,80.4518,80.4518,83.962,return,1.3742,,25.13020833,0,4,4,6,1,FBP-OG-81.png,0.37,1.2,7,0.5,,,,,,,,,,,,,,,,,,,,,,,,,,,,,,,,,,,,,,,,,,,,,
,,,,,SPR24_091,21,male,2024-04-25_13h05.17.630,jersey_experiment_5_v0,2023.2.2,Win32,60.24096386,,,,,,,,,,,,,,,,83.9622,85.2619,85.262,89.1196,return,1.3043,,25.390625,0,5,5,40,1,FBP-RB-19.png,0.35,1.2,41,0.5,,,,,,,,,,,,,,,,,,,,,,,,,,,,,,,,,,,,,,,,,,,,,
,,,,,SPR24_091,21,male,2024-04-25_13h05.17.630,jersey_experiment_5_v0,2023.2.2,Win32,60.24096386,,,,,,,,,,,,,,,,89.1197,90.4115,90.4116,97.5778,return,2.2105,,99.08854167,0,6,6,14,1,FBP-OG-91.png,0.45,1.2,15,0.5,,,,,,,,,,,,,,,,,,,,,,,,,,,,,,,,,,,,,,,,,,,,,
,,,,,SPR24_091,21,male,2024-04-25_13h05.17.630,jersey_experiment_5_v0,2023.2.2,Win32,60.24096386,,,,,,,,,,,,,,,,97.5781,98.6277,98.6277,104.2499,return,2.9326,,75.390625,0,7,7,48,1,FBP-PT-17.png,0.43,1.2,49,0.25,,,,,,,,,,,,,,,,,,,,,,,,,,,,,,,,,,,,,,,,,,,,,
,,,,,SPR24_091,21,male,2024-04-25_13h05.17.630,jersey_experiment_5_v0,2023.2.2,Win32,60.24096386,,,,,,,,,,,,,,,,104.25,105.2996,105.2998,108.4138,return,0.8308,,75,0,8,8,58,1,FBP-PT-19.png,0.43,1.2,59,0.25,,,,,,,,,,,,,,,,,,,,,,,,,,,,,,,,,,,,,,,,,,,,,
,,,,,SPR24_091,21,male,2024-04-25_13h05.17.630,jersey_experiment_5_v0,2023.2.2,Win32,60.24096386,,,,,,,,,,,,,,,,108.4139,109.4603,109.4603,113.0768,return,0.7689,,49.21875,0,9,9,26,1,FBP-YG-19.png,0.37,1.2,27,0.25,,,,,,,,,,,,,,,,,,,,,,,,,,,,,,,,,,,,,,,,,,,,,
,,,,,SPR24_091,21,male,2024-04-25_13h05.17.630,jersey_experiment_5_v0,2023.2.2,Win32,60.24096386,,,,,,,,,,,,,,,,113.077,114.3658,114.3658,116.8932,return,0.7213,,49.47916667,0,10,10,31,1,FBP-RB-17.png,0.37,1.2,32,0.5,,,,,,,,,,,,,,,,,,,,,,,,,,,,,,,,,,,,,,,,,,,,,
,,,,,SPR24_091,21,male,2024-04-25_13h05.17.630,jersey_experiment_5_v0,2023.2.2,Win32,60.24096386,,,,,,,,,,,,,,,,116.8932,118.193,118.1931,120.3594,return,0.777,,74.08854167,0,11,11,4,1,FBP-OG-71.png,0.45,1.2,5,0.5,,,,,,,,,,,,,,,,,,,,,,,,,,,,,,,,,,,,,,,,,,,,,
,,,,,SPR24_091,21,male,2024-04-25_13h05.17.630,jersey_experiment_5_v0,2023.2.2,Win32,60.24096386,,,,,,,,,,,,,,,,120.3595,121.4094,121.4095,124.4654,return,1.1835,,61.45833333,0,12,12,46,1,FBP-PT-17.png,0.37,1.2,47,0.25,,,,,,,,,,,,,,,,,,,,,,,,,,,,,,,,,,,,,,,,,,,,,
,,,,,SPR24_091,21,male,2024-04-25_13h05.17.630,jersey_experiment_5_v0,2023.2.2,Win32,60.24096386,,,,,,,,,,,,,,,,124.4656,125.7592,125.7592,128.365,return,0.6999,,46.09375,0,13,13,10,1,FBP-OG-91.png,0.35,1.2,11,0.5,,,,,,,,,,,,,,,,,,,,,,,,,,,,,,,,,,,,,,,,,,,,,
,,,,,SPR24_091,21,male,2024-04-25_13h05.17.630,jersey_experiment_5_v0,2023.2.2,Win32,60.24096386,,,,,,,,,,,,,,,,128.3652,129.6588,129.6589,132.765,return,0.7504,,76.04166667,0,14,14,8,1,FBP-OG-81.png,0.43,1.2,9,0.5,,,,,,,,,,,,,,,,,,,,,,,,,,,,,,,,,,,,,,,,,,,,,
,,,,,SPR24_091,21,male,2024-04-25_13h05.17.630,jersey_experiment_5_v0,2023.2.2,Win32,60.24096386,,,,,,,,,,,,,,,,132.7651,133.8085,133.8086,136.3751,return,0.7333,,80.98958333,0,15,15,22,1,FBP-YG-18.png,0.4,1.2,23,0.25,,,,,,,,,,,,,,,,,,,,,,,,,,,,,,,,,,,,,,,,,,,,,
,,,,,SPR24_091,21,male,2024-04-25_13h05.17.630,jersey_experiment_5_v0,2023.2.2,Win32,60.24096386,,,,,,,,,,,,,,,,136.3753,137.4148,137.4148,140.9915,return,0.8857,,98.56770833,0,16,16,24,1,FBP-YG-18.png,0.45,1.2,25,0.25,,,,,,,,,,,,,,,,,,,,,,,,,,,,,,,,,,,,,,,,,,,,,
,,,,,SPR24_091,21,male,2024-04-25_13h05.17.630,jersey_experiment_5_v0,2023.2.2,Win32,60.24096386,,,,,,,,,,,,,,,,140.9917,142.2973,142.2973,144.3911,return,0.7918,,98.828125,0,17,17,43,1,FBP-RB-19.png,0.43,1.2,44,0.5,,,,,,,,,,,,,,,,,,,,,,,,,,,,,,,,,,,,,,,,,,,,,
,,,,,SPR24_091,21,male,2024-04-25_13h05.17.630,jersey_experiment_5_v0,2023.2.2,Win32,60.24096386,,,,,,,,,,,,,,,,144.3914,145.4308,145.4308,148.0968,return,0.6169,,61.06770833,0,18,18,51,1,FBP-PT-18.png,0.37,1.2,52,0.25,,,,,,,,,,,,,,,,,,,,,,,,,,,,,,,,,,,,,,,,,,,,,
,,,,,SPR24_091,21,male,2024-04-25_13h05.17.630,jersey_experiment_5_v0,2023.2.2,Win32,60.24096386,,,,,,,,,,,,,,,,148.0969,149.1409,149.1409,154.0572,return,2.142,,44.66145833,0,19,19,55,1,FBP-PT-19.png,0.35,1.2,56,0.25,,,,,,,,,,,,,,,,,,,,,,,,,,,,,,,,,,,,,,,,,,,,,
,,,,,SPR24_091,21,male,2024-04-25_13h05.17.630,jersey_experiment_5_v0,2023.2.2,Win32,60.24096386,,,,,,,,,,,,,,,,154.0574,155.3572,155.3572,161.3399,return,0.5049,,48.17708333,0,20,20,34,1,FBP-RB-17.png,0.45,1.2,35,0.5,,,,,,,,,,,,,,,,,,,,,,,,,,,,,,,,,,,,,,,,,,,,,
,,,,,SPR24_091,21,male,2024-04-25_13h05.17.630,jersey_experiment_5_v0,2023.2.2,Win32,60.24096386,,,,,,,,,,,,,,,,161.3401,162.6291,162.6292,164.8623,return,0.5833,,56.11979167,0,21,21,12,1,FBP-OG-91.png,0.4,1.2,13,0.5,,,,,,,,,,,,,,,,,,,,,,,,,,,,,,,,,,,,,,,,,,,,,
,,,,,SPR24_091,21,male,2024-04-25_13h05.17.630,jersey_experiment_5_v0,2023.2.2,Win32,60.24096386,,,,,,,,,,,,,,,,164.8625,166.1564,166.1564,167.9729,return,0.5505,,56.11979167,0,22,22,37,1,FBP-RB-18.png,0.4,1.2,38,0.5,,,,,,,,,,,,,,,,,,,,,,,,,,,,,,,,,,,,,,,,,,,,,
,,,,,SPR24_091,21,male,2024-04-25_13h05.17.630,jersey_experiment_5_v0,2023.2.2,Win32,60.24096386,,,,,,,,,,,,,,,,167.973,169.2786,169.2786,175.4891,return,0.634,,59.24479167,0,23,23,2,1,FBP-OG-71.png,0.4,1.2,3,0.5,,,,,,,,,,,,,,,,,,,,,,,,,,,,,,,,,,,,,,,,,,,,,
,,,,,SPR24_091,21,male,2024-04-25_13h05.17.630,jersey_experiment_5_v0,2023.2.2,Win32,60.24096386,,,,,,,,,,,,,,,,175.4892,176.7889,176.789,181.3778,return,0.6663,,81.11979167,0,24,24,32,1,FBP-RB-17.png,0.4,1.2,33,0.5,,,,,,,,,,,,,,,,,,,,,,,,,,,,,,,,,,,,,,,,,,,,,
,,,,,SPR24_091,21,male,2024-04-25_13h05.17.630,jersey_experiment_5_v0,2023.2.2,Win32,60.24096386,,,,,,,,,,,,,,,,181.3779,182.6719,182.6719,184.6384,return,0.7181,,81.11979167,0,25,25,41,1,FBP-RB-19.png,0.37,1.2,42,0.5,,,,,,,,,,,,,,,,,,,,,,,,,,,,,,,,,,,,,,,,,,,,,
,,,,,SPR24_091,21,male,2024-04-25_13h05.17.630,jersey_experiment_5_v0,2023.2.2,Win32,60.24096386,,,,,,,,,,,,,,,,184.6386,185.9384,185.9384,187.7216,return,0.5913,,80.859375,0,26,26,36,1,FBP-RB-18.png,0.37,1.2,37,0.5,,,,,,,,,,,,,,,,,,,,,,,,,,,,,,,,,,,,,,,,,,,,,
,,,,,SPR24_091,21,male,2024-04-25_13h05.17.630,jersey_experiment_5_v0,2023.2.2,Win32,60.24096386,,,,,,,,,,,,,,,,187.7217,189.0215,189.0215,191.5213,return,0.6876,,79.296875,0,27,27,5,1,FBP-OG-81.png,0.35,1.2,6,0.5,,,,,,,,,,,,,,,,,,,,,,,,,,,,,,,,,,,,,,,,,,,,,
,,,,,SPR24_091,21,male,2024-04-25_13h05.17.630,jersey_experiment_5_v0,2023.2.2,Win32,60.24096386,,,,,,,,,,,,,,,,191.5215,192.5713,192.5713,194.8607,return,0.6336,,83.33333333,0,28,28,52,1,FBP-PT-18.png,0.4,1.2,53,0.25,,,,,,,,,,,,,,,,,,,,,,,,,,,,,,,,,,,,,,,,,,,,,
,,,,,SPR24_091,21,male,2024-04-25_13h05.17.630,jersey_experiment_5_v0,2023.2.2,Win32,60.24096386,,,,,,,,,,,,,,,,194.8609,196.1544,196.1544,198.1875,return,0.6061,,98.30729167,0,29,29,33,1,FBP-RB-17.png,0.43,1.2,34,0.5,,,,,,,,,,,,,,,,,,,,,,,,,,,,,,,,,,,,,,,,,,,,,
,,,,,SPR24_091,21,male,2024-04-25_13h05.17.630,jersey_experiment_5_v0,2023.2.2,Win32,60.24096386,,,,,,,,,,,,,,,,198.1876,199.2376,199.2377,202.4099,return,0.5665,,74.47916667,0,30,30,21,1,FBP-YG-18.png,0.37,1.2,22,0.25,,,,,,,,,,,,,,,,,,,,,,,,,,,,,,,,,,,,,,,,,,,,,
,,,,,SPR24_091,21,male,2024-04-25_13h05.17.630,jersey_experiment_5_v0,2023.2.2,Win32,60.24096386,,,,,,,,,,,,,,,,202.41,203.4538,203.4538,205.8703,return,0.7201,,97.78645833,0,31,31,53,1,FBP-PT-18.png,0.43,1.2,54,0.25,,,,,,,,,,,,,,,,,,,,,,,,,,,,,,,,,,,,,,,,,,,,,
,,,,,SPR24_091,21,male,2024-04-25_13h05.17.630,jersey_experiment_5_v0,2023.2.2,Win32,60.24096386,,,,,,,,,,,,,,,,205.8704,207.1702,207.1702,210.2533,return,1.1701,,55.33854167,0,32,32,30,1,FBP-RB-17.png,0.35,1.2,31,0.5,,,,,,,,,,,,,,,,,,,,,,,,,,,,,,,,,,,,,,,,,,,,,
,,,,,SPR24_091,21,male,2024-04-25_13h05.17.630,jersey_experiment_5_v0,2023.2.2,Win32,60.24096386,,,,,,,,,,,,,,,,210.2534,211.3084,211.3084,214.1531,return,0.9109,,78.90625,0,33,33,27,1,FBP-YG-19.png,0.4,1.2,28,0.25,,,,,,,,,,,,,,,,,,,,,,,,,,,,,,,,,,,,,,,,,,,,,
,,,,,SPR24_091,21,male,2024-04-25_13h05.17.630,jersey_experiment_5_v0,2023.2.2,Win32,60.24096386,,,,,,,,,,,,,,,,214.1532,215.203,215.2031,218.0421,return,0.5525,,61.328125,0,34,34,45,1,FBP-PT-17.png,0.35,1.2,46,0.25,,,,,,,,,,,,,,,,,,,,,,,,,,,,,,,,,,,,,,,,,,,,,
,,,,,SPR24_091,21,male,2024-04-25_13h05.17.630,jersey_experiment_5_v0,2023.2.2,Win32,60.24096386,,,,,,,,,,,,,,,,218.0423,219.3419,219.3419,221.5192,return,0.7503,,98.046875,0,35,35,3,1,FBP-OG-71.png,0.43,1.2,4,0.5,,,,,,,,,,,,,,,,,,,,,,,,,,,,,,,,,,,,,,,,,,,,,
,,,,,SPR24_091,21,male,2024-04-25_13h05.17.630,jersey_experiment_5_v0,2023.2.2,Win32,60.24096386,,,,,,,,,,,,,,,,221.5193,222.5692,222.5692,224.2358,return,0.2364,,98.17708333,0,36,36,23,1,FBP-YG-18.png,0.43,1.2,24,0.25,,,,,,,,,,,,,,,,,,,,,,,,,,,,,,,,,,,,,,,,,,,,,
,,,,,SPR24_091,21,male,2024-04-25_13h05.17.630,jersey_experiment_5_v0,2023.2.2,Win32,60.24096386,,,,,,,,,,,,,,,,224.2359,225.5416,225.5416,226.7601,return,0.1852,,84.24479167,0,37,37,42,1,FBP-RB-19.png,0.4,1.2,43,0.5,,,,,,,,,,,,,,,,,,,,,,,,,,,,,,,,,,,,,,,,,,,,,
,,,,,SPR24_091,21,male,2024-04-25_13h05.17.630,jersey_experiment_5_v0,2023.2.2,Win32,60.24096386,,,,,,,,,,,,,,,,226.7603,228.0579,228.058,229.2247,return,0.1669,,94.79166667,0,38,38,13,1,FBP-OG-91.png,0.43,1.2,14,0.5,,,,,,,,,,,,,,,,,,,,,,,,,,,,,,,,,,,,,,,,,,,,,
,,,,,SPR24_091,21,male,2024-04-25_13h05.17.630,jersey_experiment_5_v0,2023.2.2,Win32,60.24096386,,,,,,,,,,,,,,,,229.2248,230.2686,230.2686,232.3186,return,0.1364,,55.72916667,0,39,39,15,1,FBP-YG-17.png,0.35,1.2,16,0.25,,,,,,,,,,,,,,,,,,,,,,,,,,,,,,,,,,,,,,,,,,,,,
,,,,,SPR24_091,21,male,2024-04-25_13h05.17.630,jersey_experiment_5_v0,2023.2.2,Win32,60.24096386,,,,,,,,,,,,,,,,232.3188,233.6244,233.6244,235.4183,return,0.1575,,90.234375,0,40,40,11,1,FBP-OG-91.png,0.37,1.2,12,0.5,,,,,,,,,,,,,,,,,,,,,,,,,,,,,,,,,,,,,,,,,,,,,
,,,,,SPR24_091,21,male,2024-04-25_13h05.17.630,jersey_experiment_5_v0,2023.2.2,Win32,60.24096386,,,,,,,,,,,,,,,,235.4185,236.7183,236.7183,238.1681,return,0.1784,,99.609375,0,41,41,9,1,FBP-OG-81.png,0.45,1.2,10,0.5,,,,,,,,,,,,,,,,,,,,,,,,,,,,,,,,,,,,,,,,,,,,,
,,,,,SPR24_091,21,male,2024-04-25_13h05.17.630,jersey_experiment_5_v0,2023.2.2,Win32,60.24096386,,,,,,,,,,,,,,,,238.1682,239.218,239.218,240.1072,return,0.2001,,99.609375,0,42,42,57,1,FBP-PT-19.png,0.4,1.2,58,0.25,,,,,,,,,,,,,,,,,,,,,,,,,,,,,,,,,,,,,,,,,,,,,
,,,,,SPR24_091,21,male,2024-04-25_13h05.17.630,jersey_experiment_5_v0,2023.2.2,Win32,60.24096386,,,,,,,,,,,,,,,,240.1073,241.1513,241.1513,242.5012,return,0.1002,,65.36458333,0,43,43,56,1,FBP-PT-19.png,0.37,1.2,57,0.25,,,,,,,,,,,,,,,,,,,,,,,,,,,,,,,,,,,,,,,,,,,,,
,,,,,SPR24_091,21,male,2024-04-25_13h05.17.630,jersey_experiment_5_v0,2023.2.2,Win32,60.24096386,,,,,,,,,,,,,,,,242.5014,243.5511,243.5511,244.9233,return,0.1498,,99.08854167,0,44,44,59,1,FBP-PT-19.png,0.45,1.2,60,0.25,,,,,,,,,,,,,,,,,,,,,,,,,,,,,,,,,,,,,,,,,,,,,
,,,,,SPR24_091,21,male,2024-04-25_13h05.17.630,jersey_experiment_5_v0,2023.2.2,Win32,60.24096386,,,,,,,,,,,,,,,,244.9234,245.9732,245.9733,246.8901,return,0.1841,,99.08854167,0,45,45,28,1,FBP-YG-19.png,0.43,1.2,29,0.25,,,,,,,,,,,,,,,,,,,,,,,,,,,,,,,,,,,,,,,,,,,,,
,,,,,SPR24_091,21,male,2024-04-25_13h05.17.630,jersey_experiment_5_v0,2023.2.2,Win32,60.24096386,,,,,,,,,,,,,,,,246.8903,247.9397,247.9398,248.7507,return,0.2052,,99.08854167,0,46,46,29,1,FBP-YG-19.png,0.45,1.2,30,0.25,,,,,,,,,,,,,,,,,,,,,,,,,,,,,,,,,,,,,,,,,,,,,
,,,,,SPR24_091,21,male,2024-04-25_13h05.17.630,jersey_experiment_5_v0,2023.2.2,Win32,60.24096386,,,,,,,,,,,,,,,,248.7509,249.8042,249.8043,251.5173,return,0.1715,,55.33854167,0,47,47,16,1,FBP-YG-17.png,0.37,1.2,17,0.25,,,,,,,,,,,,,,,,,,,,,,,,,,,,,,,,,,,,,,,,,,,,,
,,,,,SPR24_091,21,male,2024-04-25_13h05.17.630,jersey_experiment_5_v0,2023.2.2,Win32,60.24096386,,,,,,,,,,,,,,,,251.5176,252.5671,252.5672,256.7001,return,0.1221,,54.16666667,0,48,48,25,1,FBP-YG-19.png,0.35,1.2,26,0.25,,,,,,,,,,,,,,,,,,,,,,,,,,,,,,,,,,,,,,,,,,,,,
,,,,,SPR24_091,21,male,2024-04-25_13h05.17.630,jersey_experiment_5_v0,2023.2.2,Win32,60.24096386,,,,,,,,,,,,,,,,256.7003,258,258.0001,258.7502,return,0.1035,,54.16666667,0,49,49,1,1,FBP-OG-71.png,0.37,1.2,2,0.5,,,,,,,,,,,,,,,,,,,,,,,,,,,,,,,,,,,,,,,,,,,,,
,,,,,SPR24_091,21,male,2024-04-25_13h05.17.630,jersey_experiment_5_v0,2023.2.2,Win32,60.24096386,,,,,,,,,,,,,,,,258.7503,260.0392,260.0392,260.7703,return,0.1831,,54.16666667,0,50,50,0,1,FBP-OG-71.png,0.35,1.2,1,0.5,,,,,,,,,,,,,,,,,,,,,,,,,,,,,,,,,,,,,,,,,,,,,
,,,,,SPR24_091,21,male,2024-04-25_13h05.17.630,jersey_experiment_5_v0,2023.2.2,Win32,60.24096386,,,,,,,,,,,,,,,,260.7704,261.8165,261.8166,263.1498,return,0.1874,,64.71354167,0,51,51,47,1,FBP-PT-17.png,0.4,1.2,48,0.25,,,,,,,,,,,,,,,,,,,,,,,,,,,,,,,,,,,,,,,,,,,,,
,,,,,SPR24_091,21,male,2024-04-25_13h05.17.630,jersey_experiment_5_v0,2023.2.2,Win32,60.24096386,,,,,,,,,,,,,,,,263.15,264.1997,264.1997,266.1662,return,1.048,,86.58854167,0,52,52,49,1,FBP-PT-17.png,0.45,1.2,50,0.25,,,,,,,,,,,,,,,,,,,,,,,,,,,,,,,,,,,,,,,,,,,,,
,,,,,SPR24_091,21,male,2024-04-25_13h05.17.630,jersey_experiment_5_v0,2023.2.2,Win32,60.24096386,,,,,,,,,,,,,,,,266.1664,267.4552,267.4552,268.416,return,0.1523,,95.703125,0,53,53,38,1,FBP-RB-18.png,0.43,1.2,39,0.5,,,,,,,,,,,,,,,,,,,,,,,,,,,,,,,,,,,,,,,,,,,,,
,,,,,SPR24_091,21,male,2024-04-25_13h05.17.630,jersey_experiment_5_v0,2023.2.2,Win32,60.24096386,,,,,,,,,,,,,,,,268.4161,269.455,269.455,271.1825,return,0.9194,,100,0,54,54,19,1,FBP-YG-17.png,0.45,1.2,20,0.25,,,,,,,,,,,,,,,,,,,,,,,,,,,,,,,,,,,,,,,,,,,,,
,,,,,SPR24_091,21,male,2024-04-25_13h05.17.630,jersey_experiment_5_v0,2023.2.2,Win32,60.24096386,,,,,,,,,,,,,,,,271.1827,272.4883,272.4883,274.7657,return,1.1541,,74.08854167,0,55,55,7,1,FBP-OG-81.png,0.4,1.2,8,0.5,,,,,,,,,,,,,,,,,,,,,,,,,,,,,,,,,,,,,,,,,,,,,
,,,,,SPR24_091,21,male,2024-04-25_13h05.17.630,jersey_experiment_5_v0,2023.2.2,Win32,60.24096386,,,,,,,,,,,,,,,,274.7659,275.8156,275.8156,277.0822,return,0.1739,,60.546875,0,56,56,20,1,FBP-YG-18.png,0.35,1.2,21,0.25,,,,,,,,,,,,,,,,,,,,,,,,,,,,,,,,,,,,,,,,,,,,,
,,,,,SPR24_091,21,male,2024-04-25_13h05.17.630,jersey_experiment_5_v0,2023.2.2,Win32,60.24096386,,,,,,,,,,,,,,,,277.0824,278.1323,278.1324,279.7544,return,0.7501,,79.55729167,0,57,57,17,1,FBP-YG-17.png,0.4,1.2,18,0.25,,,,,,,,,,,,,,,,,,,,,,,,,,,,,,,,,,,,,,,,,,,,,
,,,,,SPR24_091,21,male,2024-04-25_13h05.17.630,jersey_experiment_5_v0,2023.2.2,Win32,60.24096386,,,,,,,,,,,,,,,,279.7546,280.7986,280.7986,282.0985,return,0.1168,,53.90625,0,58,58,50,1,FBP-PT-18.png,0.35,1.2,51,0.25,,,,,,,,,,,,,,,,,,,,,,,,,,,,,,,,,,,,,,,,,,,,,
,,,,,SPR24_091,21,male,2024-04-25_13h05.17.630,jersey_experiment_5_v0,2023.2.2,Win32,60.24096386,,,,,,,,,,,,,,,,282.0986,283.1487,283.1487,285.8182,return,0.131,,50.390625,0,59,59,18,1,FBP-YG-17.png,0.43,1.2,19,0.25,,,,,,,,,,,,,,,,,,,,,,,,,,,,,,,,,,,,,,,,,,,,,
,,,,,SPR24_091,21,male,2024-04-25_13h05.17.630,jersey_experiment_5_v0,2023.2.2,Win32,60.24096386,,,,,,,,,,,,,,,,285.8194,286.8648,286.8648,290.8478,return,0.1522,,54.6875,,,,,,FBP-PT-81.png,0.37,1.2,52,0.25,0,0,0,51,1,,,,,,,,,,,,,,,,,,,,,,,,,,,,,,,,,,,,,,,,
,,,,,SPR24_091,21,male,2024-04-25_13h05.17.630,jersey_experiment_5_v0,2023.2.2,Win32,60.24096386,,,,,,,,,,,,,,,,290.848,291.9014,291.9014,293.7367,return,0.0831,,74.609375,,,,,,FBP-PT-81.png,0.4,1.2,53,0.25,0,1,1,52,1,,,,,,,,,,,,,,,,,,,,,,,,,,,,,,,,,,,,,,,,
,,,,,SPR24_091,21,male,2024-04-25_13h05.17.630,jersey_experiment_5_v0,2023.2.2,Win32,60.24096386,,,,,,,,,,,,,,,,293.7369,295.0366,295.0366,296.1142,return,0.102,,74.609375,,,,,,FBP-OG-17.png,0.4,1.2,3,0.5,0,2,2,2,1,,,,,,,,,,,,,,,,,,,,,,,,,,,,,,,,,,,,,,,,
,,,,,SPR24_091,21,male,2024-04-25_13h05.17.630,jersey_experiment_5_v0,2023.2.2,Win32,60.24096386,,,,,,,,,,,,,,,,296.1143,297.1699,297.1699,300.0472,return,0.9691,,47.65625,,,,,,FBP-PT-71.png,0.35,1.2,46,0.25,0,3,3,45,1,,,,,,,,,,,,,,,,,,,,,,,,,,,,,,,,,,,,,,,,
,,,,,SPR24_091,21,male,2024-04-25_13h05.17.630,jersey_experiment_5_v0,2023.2.2,Win32,60.24096386,,,,,,,,,,,,,,,,300.0473,301.0971,301.0972,303.3205,return,0.634,,100,,,,,,FBP-YG-91.png,0.45,1.2,30,0.25,0,4,4,29,1,,,,,,,,,,,,,,,,,,,,,,,,,,,,,,,,,,,,,,,,
,,,,,SPR24_091,21,male,2024-04-25_13h05.17.630,jersey_experiment_5_v0,2023.2.2,Win32,60.24096386,,,,,,,,,,,,,,,,303.3206,304.6192,304.6192,305.5468,return,0.1232,,99.86979167,,,,,,FBP-OG-18.png,0.45,1.2,10,0.5,0,5,5,9,1,,,,,,,,,,,,,,,,,,,,,,,,,,,,,,,,,,,,,,,,
,,,,,SPR24_091,21,male,2024-04-25_13h05.17.630,jersey_experiment_5_v0,2023.2.2,Win32,60.24096386,,,,,,,,,,,,,,,,305.547,306.8528,306.8528,307.9857,return,0.0168,,83.984375,,,,,,FBP-RB-91.png,0.43,1.2,44,0.5,0,6,6,43,1,,,,,,,,,,,,,,,,,,,,,,,,,,,,,,,,,,,,,,,,
,,,,,SPR24_091,21,male,2024-04-25_13h05.17.630,jersey_experiment_5_v0,2023.2.2,Win32,60.24096386,,,,,,,,,,,,,,,,307.9858,309.0298,309.0298,310.3799,return,0.1226,,71.09375,,,,,,FBP-PT-71.png,0.37,1.2,47,0.25,0,7,7,46,1,,,,,,,,,,,,,,,,,,,,,,,,,,,,,,,,,,,,,,,,
,,,,,SPR24_091,21,male,2024-04-25_13h05.17.630,jersey_experiment_5_v0,2023.2.2,Win32,60.24096386,,,,,,,,,,,,,,,,310.3799,311.6798,311.6798,312.7463,return,0.1575,,98.95833333,,,,,,FBP-RB-71.png,0.45,1.2,35,0.5,0,8,8,34,1,,,,,,,,,,,,,,,,,,,,,,,,,,,,,,,,,,,,,,,,
,,,,,SPR24_091,21,male,2024-04-25_13h05.17.630,jersey_experiment_5_v0,2023.2.2,Win32,60.24096386,,,,,,,,,,,,,,,,312.7465,314.052,314.052,315.4296,return,0.2337,,44.53125,,,,,,FBP-RB-71.png,0.35,1.2,31,0.5,0,9,9,30,1,,,,,,,,,,,,,,,,,,,,,,,,,,,,,,,,,,,,,,,,
,,,,,SPR24_091,21,male,2024-04-25_13h05.17.630,jersey_experiment_5_v0,2023.2.2,Win32,60.24096386,,,,,,,,,,,,,,,,315.4298,316.7185,316.7185,317.6852,return,0.1834,,38.41145833,,,,,,FBP-OG-18.png,0.37,1.2,7,0.5,0,10,10,6,1,,,,,,,,,,,,,,,,,,,,,,,,,,,,,,,,,,,,,,,,
,,,,,SPR24_091,21,male,2024-04-25_13h05.17.630,jersey_experiment_5_v0,2023.2.2,Win32,60.24096386,,,,,,,,,,,,,,,,317.6853,318.9792,318.9793,320.236,return,0.1508,,78.515625,,,,,,FBP-RB-71.png,0.43,1.2,34,0.5,0,11,11,33,1,,,,,,,,,,,,,,,,,,,,,,,,,,,,,,,,,,,,,,,,
,,,,,SPR24_091,21,male,2024-04-25_13h05.17.630,jersey_experiment_5_v0,2023.2.2,Win32,60.24096386,,,,,,,,,,,,,,,,320.2362,321.5291,321.5292,323.2122,return,0.6388,,32.68229167,,,,,,FBP-OG-19.png,0.35,1.2,11,0.5,0,12,12,10,1,,,,,,,,,,,,,,,,,,,,,,,,,,,,,,,,,,,,,,,,
,,,,,SPR24_091,21,male,2024-04-25_13h05.17.630,jersey_experiment_5_v0,2023.2.2,Win32,60.24096386,,,,,,,,,,,,,,,,323.2125,324.2623,324.2624,326.6846,return,0.9336,,76.04166667,,,,,,FBP-PT-81.png,0.45,1.2,55,0.25,0,13,13,54,1,,,,,,,,,,,,,,,,,,,,,,,,,,,,,,,,,,,,,,,,
,,,,,SPR24_091,21,male,2024-04-25_13h05.17.630,jersey_experiment_5_v0,2023.2.2,Win32,60.24096386,,,,,,,,,,,,,,,,326.6848,327.9786,327.9787,329.0987,return,0.2001,,83.85416667,,,,,,FBP-RB-81.png,0.43,1.2,39,0.5,0,14,14,38,1,,,,,,,,,,,,,,,,,,,,,,,,,,,,,,,,,,,,,,,,
,,,,,SPR24_091,21,male,2024-04-25_13h05.17.630,jersey_experiment_5_v0,2023.2.2,Win32,60.24096386,,,,,,,,,,,,,,,,329.0988,330.1452,330.1452,331.6677,return,0.1355,,99.609375,,,,,,FBP-PT-91.png,0.4,1.2,58,0.25,0,15,15,57,1,,,,,,,,,,,,,,,,,,,,,,,,,,,,,,,,,,,,,,,,
,,,,,SPR24_091,21,male,2024-04-25_13h05.17.630,jersey_experiment_5_v0,2023.2.2,Win32,60.24096386,,,,,,,,,,,,,,,,331.6679,332.7116,332.7116,334.0615,return,0.2041,,69.40104167,,,,,,FBP-PT-71.png,0.4,1.2,48,0.25,0,16,16,47,1,,,,,,,,,,,,,,,,,,,,,,,,,,,,,,,,,,,,,,,,
,,,,,SPR24_091,21,male,2024-04-25_13h05.17.630,jersey_experiment_5_v0,2023.2.2,Win32,60.24096386,,,,,,,,,,,,,,,,334.0617,335.3509,335.351,337.1114,return,0.0669,,55.98958333,,,,,,FBP-RB-91.png,0.37,1.2,42,0.5,0,17,17,41,1,,,,,,,,,,,,,,,,,,,,,,,,,,,,,,,,,,,,,,,,
,,,,,SPR24_091,21,male,2024-04-25_13h05.17.630,jersey_experiment_5_v0,2023.2.2,Win32,60.24096386,,,,,,,,,,,,,,,,337.1116,338.4114,338.4114,339.5613,return,0.0587,,100,,,,,,FBP-OG-19.png,0.45,1.2,15,0.5,0,18,18,14,1,,,,,,,,,,,,,,,,,,,,,,,,,,,,,,,,,,,,,,,,
,,,,,SPR24_091,21,male,2024-04-25_13h05.17.630,jersey_experiment_5_v0,2023.2.2,Win32,60.24096386,,,,,,,,,,,,,,,,339.5614,340.6167,340.6168,342.265,return,0.1499,,47.78645833,,,,,,FBP-YG-71.png,0.35,1.2,16,0.25,0,19,19,15,1,,,,,,,,,,,,,,,,,,,,,,,,,,,,,,,,,,,,,,,,
,,,,,SPR24_091,21,male,2024-04-25_13h05.17.630,jersey_experiment_5_v0,2023.2.2,Win32,60.24096386,,,,,,,,,,,,,,,,342.2652,343.5669,343.5669,344.7776,return,0.127,,29.16666667,,,,,,FBP-RB-81.png,0.35,1.2,36,0.5,0,20,20,35,1,,,,,,,,,,,,,,,,,,,,,,,,,,,,,,,,,,,,,,,,
,,,,,SPR24_091,21,male,2024-04-25_13h05.17.630,jersey_experiment_5_v0,2023.2.2,Win32,60.24096386,,,,,,,,,,,,,,,,344.7778,346.0775,346.0775,347.6329,return,0.0999,,77.21354167,,,,,,FBP-RB-91.png,0.45,1.2,45,0.5,0,21,21,44,1,,,,,,,,,,,,,,,,,,,,,,,,,,,,,,,,,,,,,,,,
,,,,,SPR24_091,21,male,2024-04-25_13h05.17.630,jersey_experiment_5_v0,2023.2.2,Win32,60.24096386,,,,,,,,,,,,,,,,347.6331,348.6773,348.6773,349.9771,return,0.1087,,28.64583333,,,,,,FBP-YG-81.png,0.37,1.2,22,0.25,0,22,22,21,1,,,,,,,,,,,,,,,,,,,,,,,,,,,,,,,,,,,,,,,,
,,,,,SPR24_091,21,male,2024-04-25_13h05.17.630,jersey_experiment_5_v0,2023.2.2,Win32,60.24096386,,,,,,,,,,,,,,,,349.9773,351.016,351.0161,352.0996,return,0.1999,,29.296875,,,,,,FBP-PT-81.png,0.35,1.2,51,0.25,0,23,23,50,1,,,,,,,,,,,,,,,,,,,,,,,,,,,,,,,,,,,,,,,,
,,,,,SPR24_091,21,male,2024-04-25_13h05.17.630,jersey_experiment_5_v0,2023.2.2,Win32,60.24096386,,,,,,,,,,,,,,,,352.0997,353.3936,353.3936,354.3768,return,0.1919,,59.24479167,,,,,,FBP-RB-81.png,0.4,1.2,38,0.5,0,24,24,37,1,,,,,,,,,,,,,,,,,,,,,,,,,,,,,,,,,,,,,,,,
,,,,,SPR24_091,21,male,2024-04-25_13h05.17.630,jersey_experiment_5_v0,2023.2.2,Win32,60.24096386,,,,,,,,,,,,,,,,354.377,355.416,355.416,360.2597,return,0.0645,,51.04166667,,,,,,FBP-PT-91.png,0.37,1.2,57,0.25,0,25,25,56,1,,,,,,,,,,,,,,,,,,,,,,,,,,,,,,,,,,,,,,,,
,,,,,SPR24_091,21,male,2024-04-25_13h05.17.630,jersey_experiment_5_v0,2023.2.2,Win32,60.24096386,,,,,,,,,,,,,,,,360.2598,361.5597,361.5598,362.4263,return,0.1239,,58.72395833,,,,,,FBP-OG-18.png,0.43,1.2,9,0.5,0,26,26,8,1,,,,,,,,,,,,,,,,,,,,,,,,,,,,,,,,,,,,,,,,
,,,,,SPR24_091,21,male,2024-04-25_13h05.17.630,jersey_experiment_5_v0,2023.2.2,Win32,60.24096386,,,,,,,,,,,,,,,,362.4265,363.4656,363.4656,364.3966,return,0.0645,,96.61458333,,,,,,FBP-YG-71.png,0.45,1.2,20,0.25,0,27,27,19,1,,,,,,,,,,,,,,,,,,,,,,,,,,,,,,,,,,,,,,,,
,,,,,SPR24_091,21,male,2024-04-25_13h05.17.630,jersey_experiment_5_v0,2023.2.2,Win32,60.24096386,,,,,,,,,,,,,,,,364.3967,365.6964,365.6964,367.1927,return,0.6279,,77.99479167,,,,,,FBP-RB-91.png,0.4,1.2,43,0.5,0,28,28,42,1,,,,,,,,,,,,,,,,,,,,,,,,,,,,,,,,,,,,,,,,
,,,,,SPR24_091,21,male,2024-04-25_13h05.17.630,jersey_experiment_5_v0,2023.2.2,Win32,60.24096386,,,,,,,,,,,,,,,,367.1928,368.4982,368.4982,369.6592,return,0.0731,,75.91145833,,,,,,FBP-OG-19.png,0.43,1.2,14,0.5,0,29,29,13,1,,,,,,,,,,,,,,,,,,,,,,,,,,,,,,,,,,,,,,,,
,,,,,SPR24_091,21,male,2024-04-25_13h05.17.630,jersey_experiment_5_v0,2023.2.2,Win32,60.24096386,,,,,,,,,,,,,,,,369.6593,370.716,370.716,371.6983,return,0.1169,,75.91145833,,,,,,FBP-YG-71.png,0.43,1.2,19,0.25,0,30,30,18,1,,,,,,,,,,,,,,,,,,,,,,,,,,,,,,,,,,,,,,,,
,,,,,SPR24_091,21,male,2024-04-25_13h05.17.630,jersey_experiment_5_v0,2023.2.2,Win32,60.24096386,,,,,,,,,,,,,,,,371.6984,372.9923,372.9924,373.9168,return,0.1023,,89.19270833,,,,,,FBP-RB-81.png,0.45,1.2,40,0.5,0,31,31,39,1,,,,,,,,,,,,,,,,,,,,,,,,,,,,,,,,,,,,,,,,
,,,,,SPR24_091,21,male,2024-04-25_13h05.17.630,jersey_experiment_5_v0,2023.2.2,Win32,60.24096386,,,,,,,,,,,,,,,,373.9169,375.2088,375.2088,376.7587,return,0.7252,,59.89583333,,,,,,FBP-OG-18.png,0.4,1.2,8,0.5,0,32,32,7,1,,,,,,,,,,,,,,,,,,,,,,,,,,,,,,,,,,,,,,,,
,,,,,SPR24_091,21,male,2024-04-25_13h05.17.630,jersey_experiment_5_v0,2023.2.2,Win32,60.24096386,,,,,,,,,,,,,,,,376.759,377.8144,377.8144,379.3291,return,0.1481,,47.13541667,,,,,,FBP-PT-91.png,0.35,1.2,56,0.25,0,33,33,55,1,,,,,,,,,,,,,,,,,,,,,,,,,,,,,,,,,,,,,,,,
,,,,,SPR24_091,21,male,2024-04-25_13h05.17.630,jersey_experiment_5_v0,2023.2.2,Win32,60.24096386,,,,,,,,,,,,,,,,379.3293,380.3751,380.3751,382.0916,return,0.0725,,75,,,,,,FBP-PT-91.png,0.45,1.2,60,0.25,0,34,34,59,1,,,,,,,,,,,,,,,,,,,,,,,,,,,,,,,,,,,,,,,,
,,,,,SPR24_091,21,male,2024-04-25_13h05.17.630,jersey_experiment_5_v0,2023.2.2,Win32,60.24096386,,,,,,,,,,,,,,,,382.0918,383.3915,383.3916,385.0116,return,0.296,,25.52083333,,,,,,FBP-OG-18.png,0.35,1.2,6,0.5,0,35,35,5,1,,,,,,,,,,,,,,,,,,,,,,,,,,,,,,,,,,,,,,,,
,,,,,SPR24_091,21,male,2024-04-25_13h05.17.630,jersey_experiment_5_v0,2023.2.2,Win32,60.24096386,,,,,,,,,,,,,,,,385.0118,386.058,386.058,387.3494,return,0.2214,,71.22395833,,,,,,FBP-PT-81.png,0.43,1.2,54,0.25,0,36,36,53,1,,,,,,,,,,,,,,,,,,,,,,,,,,,,,,,,,,,,,,,,
,,,,,SPR24_091,21,male,2024-04-25_13h05.17.630,jersey_experiment_5_v0,2023.2.2,Win32,60.24096386,,,,,,,,,,,,,,,,387.3496,388.6411,388.6412,389.8244,return,0.1512,,26.171875,,,,,,FBP-OG-17.png,0.37,1.2,2,0.5,0,37,37,1,1,,,,,,,,,,,,,,,,,,,,,,,,,,,,,,,,,,,,,,,,
,,,,,SPR24_091,21,male,2024-04-25_13h05.17.630,jersey_experiment_5_v0,2023.2.2,Win32,60.24096386,,,,,,,,,,,,,,,,389.8245,390.8744,390.8745,392.4282,return,0.0981,,98.95833333,,,,,,FBP-YG-81.png,0.43,1.2,24,0.25,0,38,38,23,1,,,,,,,,,,,,,,,,,,,,,,,,,,,,,,,,,,,,,,,,
,,,,,SPR24_091,21,male,2024-04-25_13h05.17.630,jersey_experiment_5_v0,2023.2.2,Win32,60.24096386,,,,,,,,,,,,,,,,392.4284,393.7242,393.7242,396.3298,return,0.1337,,32.29166667,,,,,,FBP-RB-71.png,0.37,1.2,32,0.5,0,39,39,31,1,,,,,,,,,,,,,,,,,,,,,,,,,,,,,,,,,,,,,,,,
,,,,,SPR24_091,21,male,2024-04-25_13h05.17.630,jersey_experiment_5_v0,2023.2.2,Win32,60.24096386,,,,,,,,,,,,,,,,396.3299,397.624,397.6241,398.8404,return,0.2067,,53.90625,,,,,,FBP-OG-19.png,0.4,1.2,13,0.5,0,40,40,12,1,,,,,,,,,,,,,,,,,,,,,,,,,,,,,,,,,,,,,,,,
,,,,,SPR24_091,21,male,2024-04-25_13h05.17.630,jersey_experiment_5_v0,2023.2.2,Win32,60.24096386,,,,,,,,,,,,,,,,398.8407,400.1296,400.1296,401.9628,return,0.1334,,52.86458333,,,,,,FBP-OG-19.png,0.37,1.2,12,0.5,0,41,41,11,1,,,,,,,,,,,,,,,,,,,,,,,,,,,,,,,,,,,,,,,,
,,,,,SPR24_091,21,male,2024-04-25_13h05.17.630,jersey_experiment_5_v0,2023.2.2,Win32,60.24096386,,,,,,,,,,,,,,,,401.9629,403.0125,403.0125,404.2401,return,0.1869,,77.86458333,,,,,,FBP-PT-71.png,0.43,1.2,49,0.25,0,42,42,48,1,,,,,,,,,,,,,,,,,,,,,,,,,,,,,,,,,,,,,,,,
,,,,,SPR24_091,21,male,2024-04-25_13h05.17.630,jersey_experiment_5_v0,2023.2.2,Win32,60.24096386,,,,,,,,,,,,,,,,404.2403,405.54,405.54,406.3066,return,0.1505,,91.92708333,,,,,,FBP-OG-17.png,0.45,1.2,5,0.5,0,43,43,4,1,,,,,,,,,,,,,,,,,,,,,,,,,,,,,,,,,,,,,,,,
,,,,,SPR24_091,21,male,2024-04-25_13h05.17.630,jersey_experiment_5_v0,2023.2.2,Win32,60.24096386,,,,,,,,,,,,,,,,406.3068,407.6065,407.6065,408.7957,return,0.1336,,23.4375,,,,,,FBP-OG-17.png,0.35,1.2,1,0.5,0,44,44,0,1,,,,,,,,,,,,,,,,,,,,,,,,,,,,,,,,,,,,,,,,
,,,,,SPR24_091,21,male,2024-04-25_13h05.17.630,jersey_experiment_5_v0,2023.2.2,Win32,60.24096386,,,,,,,,,,,,,,,,408.7959,409.8397,409.8399,411.2063,return,0.1336,,26.171875,,,,,,FBP-YG-71.png,0.37,1.2,17,0.25,0,45,45,16,1,,,,,,,,,,,,,,,,,,,,,,,,,,,,,,,,,,,,,,,,
,,,,,SPR24_091,21,male,2024-04-25_13h05.17.630,jersey_experiment_5_v0,2023.2.2,Win32,60.24096386,,,,,,,,,,,,,,,,411.2066,412.2619,412.2619,413.3787,return,0.0335,,49.34895833,,,,,,FBP-YG-91.png,0.4,1.2,28,0.25,0,46,46,27,1,,,,,,,,,,,,,,,,,,,,,,,,,,,,,,,,,,,,,,,,
,,,,,SPR24_091,21,male,2024-04-25_13h05.17.630,jersey_experiment_5_v0,2023.2.2,Win32,60.24096386,,,,,,,,,,,,,,,,413.3788,414.4226,414.4227,415.1394,return,0.0689,,49.34895833,,,,,,FBP-YG-81.png,0.4,1.2,23,0.25,0,47,47,22,1,,,,,,,,,,,,,,,,,,,,,,,,,,,,,,,,,,,,,,,,
,,,,,SPR24_091,21,male,2024-04-25_13h05.17.630,jersey_experiment_5_v0,2023.2.2,Win32,60.24096386,,,,,,,,,,,,,,,,415.1395,416.1893,416.1893,416.9225,return,0.1401,,49.34895833,,,,,,FBP-YG-91.png,0.43,1.2,29,0.25,0,48,48,28,1,,,,,,,,,,,,,,,,,,,,,,,,,,,,,,,,,,,,,,,,
,,,,,SPR24_091,21,male,2024-04-25_13h05.17.630,jersey_experiment_5_v0,2023.2.2,Win32,60.24096386,,,,,,,,,,,,,,,,416.9227,417.9725,417.9725,418.6391,return,0.2022,,49.34895833,,,,,,FBP-YG-71.png,0.4,1.2,18,0.25,0,49,49,17,1,,,,,,,,,,,,,,,,,,,,,,,,,,,,,,,,,,,,,,,,
,,,,,SPR24_091,21,male,2024-04-25_13h05.17.630,jersey_experiment_5_v0,2023.2.2,Win32,60.24096386,,,,,,,,,,,,,,,,418.6394,419.6891,419.6891,421.4888,return,0.1334,,74.609375,,,,,,FBP-YG-81.png,0.45,1.2,25,0.25,0,50,50,24,1,,,,,,,,,,,,,,,,,,,,,,,,,,,,,,,,,,,,,,,,
,,,,,SPR24_091,21,male,2024-04-25_13h05.17.630,jersey_experiment_5_v0,2023.2.2,Win32,60.24096386,,,,,,,,,,,,,,,,421.489,422.7888,422.7889,424.4554,return,0.059,,25.390625,,,,,,FBP-RB-71.png,0.4,1.2,33,0.5,0,51,51,32,1,,,,,,,,,,,,,,,,,,,,,,,,,,,,,,,,,,,,,,,,
,,,,,SPR24_091,21,male,2024-04-25_13h05.17.630,jersey_experiment_5_v0,2023.2.2,Win32,60.24096386,,,,,,,,,,,,,,,,424.4555,425.4944,425.4944,427.5385,return,0.0837,,82.421875,,,,,,FBP-PT-71.png,0.45,1.2,50,0.25,0,52,52,49,1,,,,,,,,,,,,,,,,,,,,,,,,,,,,,,,,,,,,,,,,
,,,,,SPR24_091,21,male,2024-04-25_13h05.17.630,jersey_experiment_5_v0,2023.2.2,Win32,60.24096386,,,,,,,,,,,,,,,,427.5387,428.5773,428.5773,429.305,return,0.1585,,82.421875,,,,,,FBP-PT-91.png,0.43,1.2,59,0.25,0,53,53,58,1,,,,,,,,,,,,,,,,,,,,,,,,,,,,,,,,,,,,,,,,
,,,,,SPR24_091,21,male,2024-04-25_13h05.17.630,jersey_experiment_5_v0,2023.2.2,Win32,60.24096386,,,,,,,,,,,,,,,,429.3052,430.3551,430.3551,432.0111,return,0.1507,,21.09375,,,,,,FBP-YG-91.png,0.35,1.2,26,0.25,0,54,54,25,1,,,,,,,,,,,,,,,,,,,,,,,,,,,,,,,,,,,,,,,,
,,,,,SPR24_091,21,male,2024-04-25_13h05.17.630,jersey_experiment_5_v0,2023.2.2,Win32,60.24096386,,,,,,,,,,,,,,,,432.0112,433.3048,433.3048,435.6605,return,1.1835,,20.57291667,,,,,,FBP-RB-81.png,0.37,1.2,37,0.5,0,55,55,36,1,,,,,,,,,,,,,,,,,,,,,,,,,,,,,,,,,,,,,,,,
,,,,,SPR24_091,21,male,2024-04-25_13h05.17.630,jersey_experiment_5_v0,2023.2.2,Win32,60.24096386,,,,,,,,,,,,,,,,435.6606,436.7045,436.7045,437.4879,return,0.118,,20.57291667,,,,,,FBP-YG-81.png,0.35,1.2,21,0.25,0,56,56,20,1,,,,,,,,,,,,,,,,,,,,,,,,,,,,,,,,,,,,,,,,
,,,,,SPR24_091,21,male,2024-04-25_13h05.17.630,jersey_experiment_5_v0,2023.2.2,Win32,60.24096386,,,,,,,,,,,,,,,,437.488,438.5438,438.5438,439.9769,return,0.2334,,72.39583333,,,,,,FBP-YG-91.png,0.37,1.2,27,0.25,0,57,57,26,1,,,,,,,,,,,,,,,,,,,,,,,,,,,,,,,,,,,,,,,,
,,,,,SPR24_091,21,male,2024-04-25_13h05.17.630,jersey_experiment_5_v0,2023.2.2,Win32,60.24096386,,,,,,,,,,,,,,,,439.9771,441.2708,441.2709,445.1765,return,0.0854,,49.08854167,,,,,,FBP-RB-91.png,0.35,1.2,41,0.5,0,58,58,40,1,,,,,,,,,,,,,,,,,,,,,,,,,,,,,,,,,,,,,,,,
,,,,,SPR24_091,21,male,2024-04-25_13h05.17.630,jersey_experiment_5_v0,2023.2.2,Win32,60.24096386,,,,,,,,,,,,,,,,445.1766,446.4705,446.4705,447.2409,return,0.0981,,63.93229167,,,,,,FBP-OG-17.png,0.43,1.2,4,0.5,0,59,59,3,1,,,,,,,,,,,,,,,,,,,,,,,,,,,,,,,,,,,,,,,,
,,,,,SPR24_091,21,male,2024-04-25_13h05.17.630,jersey_experiment_5_v0,2023.2.2,Win32,60.24096386,,,,,,,,,,,,,,,,,,,,,,,,,,,,,,,,,,,,,,,447.2412,567.2294,,,,,,,,,,,,,,,,,,,,,,,,,,,,,,,,,,,,,,
,,,,,SPR24_091,21,male,2024-04-25_13h05.17.630,jersey_experiment_5_v0,2023.2.2,Win32,60.24096386,,,,,,,,,,,,,,,,,,,,,,,,,,,,,,,,,,,,,,,,,567.2296,569.1956,return,1.9383,,,,,,,,,,,,,,,,,,,,,,,,,,,,,,,,,,
,,,,,SPR24_091,21,male,2024-04-25_13h05.17.630,jersey_experiment_5_v0,2023.2.2,Win32,60.24096386,,,,,,,,,,,,,,,,569.2013,570.2455,570.2456,573.5952,return,0.8226,,51.5625,,,,,,FBP-RB-17.png,0.4,1.2,33,0.25,,,,,,,,,,,,,0,0,0,32,1,,,,,,,,,,,,,,,,,,,,,,,,,,,,
,,,,,SPR24_091,21,male,2024-04-25_13h05.17.630,jersey_experiment_5_v0,2023.2.2,Win32,60.24096386,,,,,,,,,,,,,,,,573.5954,574.901,574.901,577.2653,return,0.1977,,49.47916667,,,,,,FBP-PT-19.png,0.37,1.2,57,0.5,,,,,,,,,,,,,0,1,1,56,1,,,,,,,,,,,,,,,,,,,,,,,,,,,,
,,,,,SPR24_091,21,male,2024-04-25_13h05.17.630,jersey_experiment_5_v0,2023.2.2,Win32,60.24096386,,,,,,,,,,,,,,,,577.2654,578.3115,578.3115,579.6448,return,0.1374,,68.75,,,,,,FBP-RB-18.png,0.43,1.2,39,0.25,,,,,,,,,,,,,0,2,2,38,1,,,,,,,,,,,,,,,,,,,,,,,,,,,,
,,,,,SPR24_091,21,male,2024-04-25_13h05.17.630,jersey_experiment_5_v0,2023.2.2,Win32,60.24096386,,,,,,,,,,,,,,,,579.6449,580.9342,580.9342,581.578,return,0.1423,,69.921875,,,,,,FBP-PT-19.png,0.45,1.2,60,0.5,,,,,,,,,,,,,0,3,3,59,1,,,,,,,,,,,,,,,,,,,,,,,,,,,,
,,,,,SPR24_091,21,male,2024-04-25_13h05.17.630,jersey_experiment_5_v0,2023.2.2,Win32,60.24096386,,,,,,,,,,,,,,,,581.5782,582.8842,582.8842,583.8944,return,0.1104,,33.59375,,,,,,FBP-PT-17.png,0.35,1.2,46,0.5,,,,,,,,,,,,,0,4,4,45,1,,,,,,,,,,,,,,,,,,,,,,,,,,,,
,,,,,SPR24_091,21,male,2024-04-25_13h05.17.630,jersey_experiment_5_v0,2023.2.2,Win32,60.24096386,,,,,,,,,,,,,,,,583.8945,585.1945,585.1945,586.1111,return,0.1678,,70.18229167,,,,,,FBP-YG-19.png,0.45,1.2,30,0.5,,,,,,,,,,,,,0,5,5,29,1,,,,,,,,,,,,,,,,,,,,,,,,,,,,
,,,,,SPR24_091,21,male,2024-04-25_13h05.17.630,jersey_experiment_5_v0,2023.2.2,Win32,60.24096386,,,,,,,,,,,,,,,,586.1113,587.4167,587.4167,588.3775,return,0.1407,,47.78645833,,,,,,FBP-YG-18.png,0.37,1.2,22,0.5,,,,,,,,,,,,,0,6,6,21,1,,,,,,,,,,,,,,,,,,,,,,,,,,,,
,,,,,SPR24_091,21,male,2024-04-25_13h05.17.630,jersey_experiment_5_v0,2023.2.2,Win32,60.24096386,,,,,,,,,,,,,,,,588.3777,589.4274,589.4274,590.4274,return,0.1747,,79.42708333,,,,,,FBP-RB-18.png,0.45,1.2,40,0.25,,,,,,,,,,,,,0,7,7,39,1,,,,,,,,,,,,,,,,,,,,,,,,,,,,
,,,,,SPR24_091,21,male,2024-04-25_13h05.17.630,jersey_experiment_5_v0,2023.2.2,Win32,60.24096386,,,,,,,,,,,,,,,,590.4275,591.4774,591.4774,592.6664,return,0.1358,,40.625,,,,,,FBP-RB-18.png,0.35,1.2,36,0.25,,,,,,,,,,,,,0,8,8,35,1,,,,,,,,,,,,,,,,,,,,,,,,,,,,
,,,,,SPR24_091,21,male,2024-04-25_13h05.17.630,jersey_experiment_5_v0,2023.2.2,Win32,60.24096386,,,,,,,,,,,,,,,,592.6666,593.7164,593.7164,594.6496,return,0.1526,,81.90104167,,,,,,FBP-OG-81.png,0.45,1.2,10,0.25,,,,,,,,,,,,,0,9,9,9,1,,,,,,,,,,,,,,,,,,,,,,,,,,,,
,,,,,SPR24_091,21,male,2024-04-25_13h05.17.630,jersey_experiment_5_v0,2023.2.2,Win32,60.24096386,,,,,,,,,,,,,,,,594.6498,595.6994,595.6995,596.4162,return,0.1501,,80.98958333,,,,,,FBP-OG-91.png,0.43,1.2,14,0.25,,,,,,,,,,,,,0,10,10,13,1,,,,,,,,,,,,,,,,,,,,,,,,,,,,
,,,,,SPR24_091,21,male,2024-04-25_13h05.17.630,jersey_experiment_5_v0,2023.2.2,Win32,60.24096386,,,,,,,,,,,,,,,,596.4163,597.7102,597.7103,598.6639,return,0.1642,,80.98958333,,,,,,FBP-PT-18.png,0.4,1.2,53,0.5,,,,,,,,,,,,,0,11,11,52,1,,,,,,,,,,,,,,,,,,,,,,,,,,,,
,,,,,SPR24_091,21,male,2024-04-25_13h05.17.630,jersey_experiment_5_v0,2023.2.2,Win32,60.24096386,,,,,,,,,,,,,,,,598.6641,599.9602,599.9602,600.7767,return,0.158,,94.140625,,,,,,FBP-PT-17.png,0.45,1.2,50,0.5,,,,,,,,,,,,,0,12,12,49,1,,,,,,,,,,,,,,,,,,,,,,,,,,,,
,,,,,SPR24_091,21,male,2024-04-25_13h05.17.630,jersey_experiment_5_v0,2023.2.2,Win32,60.24096386,,,,,,,,,,,,,,,,600.7768,601.8267,601.8267,602.7766,return,0.1751,,77.99479167,,,,,,FBP-OG-91.png,0.37,1.2,12,0.25,,,,,,,,,,,,,0,13,13,11,1,,,,,,,,,,,,,,,,,,,,,,,,,,,,
,,,,,SPR24_091,21,male,2024-04-25_13h05.17.630,jersey_experiment_5_v0,2023.2.2,Win32,60.24096386,,,,,,,,,,,,,,,,602.7768,604.0765,604.0766,604.6825,return,0.1168,,90.49479167,,,,,,FBP-PT-18.png,0.45,1.2,55,0.5,,,,,,,,,,,,,0,14,14,54,1,,,,,,,,,,,,,,,,,,,,,,,,,,,,
,,,,,SPR24_091,21,male,2024-04-25_13h05.17.630,jersey_experiment_5_v0,2023.2.2,Win32,60.24096386,,,,,,,,,,,,,,,,604.6825,605.9822,605.9822,606.6097,return,0.1333,,90.49479167,,,,,,FBP-PT-17.png,0.4,1.2,48,0.5,,,,,,,,,,,,,0,15,15,47,1,,,,,,,,,,,,,,,,,,,,,,,,,,,,
,,,,,SPR24_091,21,male,2024-04-25_13h05.17.630,jersey_experiment_5_v0,2023.2.2,Win32,60.24096386,,,,,,,,,,,,,,,,606.6099,607.9096,607.9096,608.7322,return,0.1844,,90.49479167,,,,,,FBP-PT-19.png,0.4,1.2,58,0.5,,,,,,,,,,,,,0,16,16,57,1,,,,,,,,,,,,,,,,,,,,,,,,,,,,
,,,,,SPR24_091,21,male,2024-04-25_13h05.17.630,jersey_experiment_5_v0,2023.2.2,Win32,60.24096386,,,,,,,,,,,,,,,,608.7324,610.0262,610.0263,610.9094,return,0.1695,,69.27083333,,,,,,FBP-YG-18.png,0.4,1.2,23,0.5,,,,,,,,,,,,,0,17,17,22,1,,,,,,,,,,,,,,,,,,,,,,,,,,,,
,,,,,SPR24_091,21,male,2024-04-25_13h05.17.630,jersey_experiment_5_v0,2023.2.2,Win32,60.24096386,,,,,,,,,,,,,,,,610.9096,612.2093,612.2093,612.8486,return,0.1027,,80.859375,,,,,,FBP-YG-17.png,0.4,1.2,18,0.5,,,,,,,,,,,,,0,18,18,17,1,,,,,,,,,,,,,,,,,,,,,,,,,,,,
,,,,,SPR24_091,21,male,2024-04-25_13h05.17.630,jersey_experiment_5_v0,2023.2.2,Win32,60.24096386,,,,,,,,,,,,,,,,612.8488,614.1424,614.1424,614.6261,return,0.1325,,80.859375,,,,,,FBP-YG-19.png,0.4,1.2,28,0.5,,,,,,,,,,,,,0,19,19,27,1,,,,,,,,,,,,,,,,,,,,,,,,,,,,
,,,,,SPR24_091,21,male,2024-04-25_13h05.17.630,jersey_experiment_5_v0,2023.2.2,Win32,60.24096386,,,,,,,,,,,,,,,,614.6262,615.6758,615.6758,616.3257,return,0.1151,,80.859375,,,,,,FBP-RB-19.png,0.4,1.2,43,0.25,,,,,,,,,,,,,0,20,20,42,1,,,,,,,,,,,,,,,,,,,,,,,,,,,,
,,,,,SPR24_091,21,male,2024-04-25_13h05.17.630,jersey_experiment_5_v0,2023.2.2,Win32,60.24096386,,,,,,,,,,,,,,,,616.3258,617.6256,617.6256,617.9922,return,0.1254,,80.859375,,,,,,FBP-PT-17.png,0.37,1.2,47,0.5,,,,,,,,,,,,,0,21,21,46,1,,,,,,,,,,,,,,,,,,,,,,,,,,,,
,,,,,SPR24_091,21,male,2024-04-25_13h05.17.630,jersey_experiment_5_v0,2023.2.2,Win32,60.24096386,,,,,,,,,,,,,,,,617.9925,619.0483,619.0483,620.1791,return,0.1478,,39.71354167,,,,,,FBP-OG-71.png,0.35,1.2,1,0.25,,,,,,,,,,,,,0,22,22,0,1,,,,,,,,,,,,,,,,,,,,,,,,,,,,
,,,,,SPR24_091,21,male,2024-04-25_13h05.17.630,jersey_experiment_5_v0,2023.2.2,Win32,60.24096386,,,,,,,,,,,,,,,,620.1792,621.2254,621.2254,622.1311,return,0.1833,,72.13541667,,,,,,FBP-RB-17.png,0.43,1.2,34,0.25,,,,,,,,,,,,,0,23,23,33,1,,,,,,,,,,,,,,,,,,,,,,,,,,,,
,,,,,SPR24_091,21,male,2024-04-25_13h05.17.630,jersey_experiment_5_v0,2023.2.2,Win32,60.24096386,,,,,,,,,,,,,,,,622.1313,623.181,623.181,624.1085,return,0.0877,,39.71354167,,,,,,FBP-RB-17.png,0.35,1.2,31,0.25,,,,,,,,,,,,,0,24,24,30,1,,,,,,,,,,,,,,,,,,,,,,,,,,,,
,,,,,SPR24_091,21,male,2024-04-25_13h05.17.630,jersey_experiment_5_v0,2023.2.2,Win32,60.24096386,,,,,,,,,,,,,,,,624.1086,625.1584,625.1584,626.0917,return,0.1573,,64.97395833,,,,,,FBP-RB-17.png,0.37,1.2,32,0.25,,,,,,,,,,,,,0,25,25,31,1,,,,,,,,,,,,,,,,,,,,,,,,,,,,
,,,,,SPR24_091,21,male,2024-04-25_13h05.17.630,jersey_experiment_5_v0,2023.2.2,Win32,60.24096386,,,,,,,,,,,,,,,,626.0918,627.3919,627.3919,628.0972,return,0.0986,,42.44791667,,,,,,FBP-YG-17.png,0.37,1.2,17,0.5,,,,,,,,,,,,,0,26,26,16,1,,,,,,,,,,,,,,,,,,,,,,,,,,,,
,,,,,SPR24_091,21,male,2024-04-25_13h05.17.630,jersey_experiment_5_v0,2023.2.2,Win32,60.24096386,,,,,,,,,,,,,,,,628.0974,629.3914,629.3915,629.9746,return,0.1438,,42.96875,,,,,,FBP-PT-18.png,0.35,1.2,51,0.5,,,,,,,,,,,,,0,27,27,50,1,,,,,,,,,,,,,,,,,,,,,,,,,,,,
,,,,,SPR24_091,21,male,2024-04-25_13h05.17.630,jersey_experiment_5_v0,2023.2.2,Win32,60.24096386,,,,,,,,,,,,,,,,629.9748,631.2746,631.2747,632.4579,return,0.6735,,76.69270833,,,,,,FBP-YG-18.png,0.43,1.2,24,0.5,,,,,,,,,,,,,0,28,28,23,1,,,,,,,,,,,,,,,,,,,,,,,,,,,,
,,,,,SPR24_091,21,male,2024-04-25_13h05.17.630,jersey_experiment_5_v0,2023.2.2,Win32,60.24096386,,,,,,,,,,,,,,,,632.458,633.5078,633.5079,634.4638,return,0.2667,,95.44270833,,,,,,FBP-OG-71.png,0.43,1.2,4,0.25,,,,,,,,,,,,,0,29,29,3,1,,,,,,,,,,,,,,,,,,,,,,,,,,,,
,,,,,SPR24_091,21,male,2024-04-25_13h05.17.630,jersey_experiment_5_v0,2023.2.2,Win32,60.24096386,,,,,,,,,,,,,,,,634.4639,635.508,635.5081,636.6137,return,0.1826,,94.921875,,,,,,FBP-OG-91.png,0.4,1.2,13,0.25,,,,,,,,,,,,,0,30,30,12,1,,,,,,,,,,,,,,,,,,,,,,,,,,,,
,,,,,SPR24_091,21,male,2024-04-25_13h05.17.630,jersey_experiment_5_v0,2023.2.2,Win32,60.24096386,,,,,,,,,,,,,,,,636.6137,637.9134,637.9135,638.7908,return,0.1932,,67.1875,,,,,,FBP-YG-19.png,0.37,1.2,27,0.5,,,,,,,,,,,,,0,31,31,26,1,,,,,,,,,,,,,,,,,,,,,,,,,,,,
,,,,,SPR24_091,21,male,2024-04-25_13h05.17.630,jersey_experiment_5_v0,2023.2.2,Win32,60.24096386,,,,,,,,,,,,,,,,638.7911,639.8464,639.8465,641.1633,return,0.1336,,82.55208333,,,,,,FBP-RB-19.png,0.37,1.2,42,0.25,,,,,,,,,,,,,0,32,32,41,1,,,,,,,,,,,,,,,,,,,,,,,,,,,,
,,,,,SPR24_091,21,male,2024-04-25_13h05.17.630,jersey_experiment_5_v0,2023.2.2,Win32,60.24096386,,,,,,,,,,,,,,,,641.1634,642.4571,642.4571,643.2108,return,0.1837,,92.578125,,,,,,FBP-YG-18.png,0.45,1.2,25,0.5,,,,,,,,,,,,,0,33,33,24,1,,,,,,,,,,,,,,,,,,,,,,,,,,,,
,,,,,SPR24_091,21,male,2024-04-25_13h05.17.630,jersey_experiment_5_v0,2023.2.2,Win32,60.24096386,,,,,,,,,,,,,,,,643.2111,644.2571,644.2572,644.9571,return,0.1705,,92.578125,,,,,,FBP-RB-19.png,0.45,1.2,45,0.25,,,,,,,,,,,,,0,34,34,44,1,,,,,,,,,,,,,,,,,,,,,,,,,,,,
,,,,,SPR24_091,21,male,2024-04-25_13h05.17.630,jersey_experiment_5_v0,2023.2.2,Win32,60.24096386,,,,,,,,,,,,,,,,644.9573,645.9962,645.9962,646.8569,return,0.2243,,92.578125,,,,,,FBP-OG-81.png,0.43,1.2,9,0.25,,,,,,,,,,,,,0,35,35,8,1,,,,,,,,,,,,,,,,,,,,,,,,,,,,
,,,,,SPR24_091,21,male,2024-04-25_13h05.17.630,jersey_experiment_5_v0,2023.2.2,Win32,60.24096386,,,,,,,,,,,,,,,,646.857,647.896,647.896,648.8128,return,0.1169,,71.74479167,,,,,,FBP-RB-18.png,0.4,1.2,38,0.25,,,,,,,,,,,,,0,36,36,37,1,,,,,,,,,,,,,,,,,,,,,,,,,,,,
,,,,,SPR24_091,21,male,2024-04-25_13h05.17.630,jersey_experiment_5_v0,2023.2.2,Win32,60.24096386,,,,,,,,,,,,,,,,648.813,650.1067,650.1068,650.7794,return,0.202,,71.74479167,,,,,,FBP-YG-19.png,0.35,1.2,26,0.5,,,,,,,,,,,,,0,37,37,25,1,,,,,,,,,,,,,,,,,,,,,,,,,,,,
,,,,,SPR24_091,21,male,2024-04-25_13h05.17.630,jersey_experiment_5_v0,2023.2.2,Win32,60.24096386,,,,,,,,,,,,,,,,650.7795,652.0733,652.0733,652.7136,return,0.1677,,87.63020833,,,,,,FBP-YG-17.png,0.43,1.2,19,0.5,,,,,,,,,,,,,0,38,38,18,1,,,,,,,,,,,,,,,,,,,,,,,,,,,,
,,,,,SPR24_091,21,male,2024-04-25_13h05.17.630,jersey_experiment_5_v0,2023.2.2,Win32,60.24096386,,,,,,,,,,,,,,,,652.7138,654.0065,654.0065,654.673,return,0.2028,,95.05208333,,,,,,FBP-YG-17.png,0.45,1.2,20,0.5,,,,,,,,,,,,,0,39,39,19,1,,,,,,,,,,,,,,,,,,,,,,,,,,,,
,,,,,SPR24_091,21,male,2024-04-25_13h05.17.630,jersey_experiment_5_v0,2023.2.2,Win32,60.24096386,,,,,,,,,,,,,,,,654.6733,655.723,655.723,656.9396,return,0.0409,,55.20833333,,,,,,FBP-RB-19.png,0.35,1.2,41,0.25,,,,,,,,,,,,,0,40,40,40,1,,,,,,,,,,,,,,,,,,,,,,,,,,,,
,,,,,SPR24_091,21,male,2024-04-25_13h05.17.630,jersey_experiment_5_v0,2023.2.2,Win32,60.24096386,,,,,,,,,,,,,,,,656.9397,657.9785,657.9785,659.012,return,0.2,,92.70833333,,,,,,FBP-RB-17.png,0.45,1.2,35,0.25,,,,,,,,,,,,,0,41,41,34,1,,,,,,,,,,,,,,,,,,,,,,,,,,,,
,,,,,SPR24_091,21,male,2024-04-25_13h05.17.630,jersey_experiment_5_v0,2023.2.2,Win32,60.24096386,,,,,,,,,,,,,,,,659.0121,660.306,660.3061,661.6616,return,0.2166,,42.70833333,,,,,,FBP-YG-17.png,0.35,1.2,16,0.5,,,,,,,,,,,,,0,42,42,15,1,,,,,,,,,,,,,,,,,,,,,,,,,,,,
,,,,,SPR24_091,21,male,2024-04-25_13h05.17.630,jersey_experiment_5_v0,2023.2.2,Win32,60.24096386,,,,,,,,,,,,,,,,661.6619,662.7058,662.7058,663.6259,return,0.181,,71.61458333,,,,,,FBP-OG-81.png,0.35,1.2,6,0.25,,,,,,,,,,,,,0,43,43,5,1,,,,,,,,,,,,,,,,,,,,,,,,,,,,
,,,,,SPR24_091,21,male,2024-04-25_13h05.17.630,jersey_experiment_5_v0,2023.2.2,Win32,60.24096386,,,,,,,,,,,,,,,,663.6262,664.9282,664.9282,665.728,return,0.1313,,82.421875,,,,,,FBP-PT-18.png,0.43,1.2,54,0.5,,,,,,,,,,,,,0,44,44,53,1,,,,,,,,,,,,,,,,,,,,,,,,,,,,
,,,,,SPR24_091,21,male,2024-04-25_13h05.17.630,jersey_experiment_5_v0,2023.2.2,Win32,60.24096386,,,,,,,,,,,,,,,,665.7282,667.0222,667.0223,667.6925,return,0.1809,,90.88541667,,,,,,FBP-PT-17.png,0.43,1.2,49,0.5,,,,,,,,,,,,,0,45,45,48,1,,,,,,,,,,,,,,,,,,,,,,,,,,,,
,,,,,SPR24_091,21,male,2024-04-25_13h05.17.630,jersey_experiment_5_v0,2023.2.2,Win32,60.24096386,,,,,,,,,,,,,,,,667.6927,668.9888,668.9888,669.578,return,0.1334,,98.30729167,,,,,,FBP-PT-19.png,0.43,1.2,59,0.5,,,,,,,,,,,,,0,46,46,58,1,,,,,,,,,,,,,,,,,,,,,,,,,,,,
,,,,,SPR24_091,21,male,2024-04-25_13h05.17.630,jersey_experiment_5_v0,2023.2.2,Win32,60.24096386,,,,,,,,,,,,,,,,669.5781,670.622,670.622,671.6552,return,0.1096,,75.65104167,,,,,,FBP-RB-18.png,0.37,1.2,37,0.25,,,,,,,,,,,,,0,47,47,36,1,,,,,,,,,,,,,,,,,,,,,,,,,,,,
,,,,,SPR24_091,21,male,2024-04-25_13h05.17.630,jersey_experiment_5_v0,2023.2.2,Win32,60.24096386,,,,,,,,,,,,,,,,671.6553,672.7051,672.7051,673.5718,return,0.0507,,40.88541667,,,,,,FBP-OG-91.png,0.35,1.2,11,0.25,,,,,,,,,,,,,0,48,48,10,1,,,,,,,,,,,,,,,,,,,,,,,,,,,,
,,,,,SPR24_091,21,male,2024-04-25_13h05.17.630,jersey_experiment_5_v0,2023.2.2,Win32,60.24096386,,,,,,,,,,,,,,,,673.572,674.8775,674.8775,675.4107,return,0.0334,,65.36458333,,,,,,FBP-YG-19.png,0.43,1.2,29,0.5,,,,,,,,,,,,,0,49,49,28,1,,,,,,,,,,,,,,,,,,,,,,,,,,,,
,,,,,SPR24_091,21,male,2024-04-25_13h05.17.630,jersey_experiment_5_v0,2023.2.2,Win32,60.24096386,,,,,,,,,,,,,,,,675.4109,676.4605,676.4605,677.3548,return,0.1219,,45.05208333,,,,,,FBP-OG-81.png,0.37,1.2,7,0.25,,,,,,,,,,,,,0,50,50,6,1,,,,,,,,,,,,,,,,,,,,,,,,,,,,
,,,,,SPR24_091,21,male,2024-04-25_13h05.17.630,jersey_experiment_5_v0,2023.2.2,Win32,60.24096386,,,,,,,,,,,,,,,,677.3551,678.4048,678.4048,679.2546,return,0.1602,,60.15625,,,,,,FBP-OG-81.png,0.4,1.2,8,0.25,,,,,,,,,,,,,0,51,51,7,1,,,,,,,,,,,,,,,,,,,,,,,,,,,,
,,,,,SPR24_091,21,male,2024-04-25_13h05.17.630,jersey_experiment_5_v0,2023.2.2,Win32,60.24096386,,,,,,,,,,,,,,,,679.2547,680.5436,680.5436,681.9776,return,0.1529,,42.31770833,,,,,,FBP-PT-19.png,0.35,1.2,56,0.5,,,,,,,,,,,,,0,52,52,55,1,,,,,,,,,,,,,,,,,,,,,,,,,,,,
,,,,,SPR24_091,21,male,2024-04-25_13h05.17.630,jersey_experiment_5_v0,2023.2.2,Win32,60.24096386,,,,,,,,,,,,,,,,681.9777,683.0269,683.0269,683.8434,return,0.1334,,33.984375,,,,,,FBP-OG-71.png,0.37,1.2,2,0.25,,,,,,,,,,,,,0,53,53,1,1,,,,,,,,,,,,,,,,,,,,,,,,,,,,
,,,,,SPR24_091,21,male,2024-04-25_13h05.17.630,jersey_experiment_5_v0,2023.2.2,Win32,60.24096386,,,,,,,,,,,,,,,,683.8435,684.8913,684.8913,686.0709,return,0.1934,,68.48958333,,,,,,FBP-OG-71.png,0.4,1.2,3,0.25,,,,,,,,,,,,,0,54,54,2,1,,,,,,,,,,,,,,,,,,,,,,,,,,,,
,,,,,SPR24_091,21,male,2024-04-25_13h05.17.630,jersey_experiment_5_v0,2023.2.2,Win32,60.24096386,,,,,,,,,,,,,,,,686.0712,687.3709,687.3709,688.5542,return,0.5908,,35.9375,,,,,,FBP-YG-18.png,0.35,1.2,21,0.5,,,,,,,,,,,,,0,55,55,20,1,,,,,,,,,,,,,,,,,,,,,,,,,,,,
,,,,,SPR24_091,21,male,2024-04-25_13h05.17.630,jersey_experiment_5_v0,2023.2.2,Win32,60.24096386,,,,,,,,,,,,,,,,688.5543,689.8597,689.8597,690.478,return,0.1683,,35.67708333,,,,,,FBP-PT-18.png,0.37,1.2,52,0.5,,,,,,,,,,,,,0,56,56,51,1,,,,,,,,,,,,,,,,,,,,,,,,,,,,
,,,,,SPR24_091,21,male,2024-04-25_13h05.17.630,jersey_experiment_5_v0,2023.2.2,Win32,60.24096386,,,,,,,,,,,,,,,,690.4782,691.5206,691.5207,692.7371,return,0.1333,,98.828125,,,,,,FBP-OG-71.png,0.45,1.2,5,0.25,,,,,,,,,,,,,0,57,57,4,1,,,,,,,,,,,,,,,,,,,,,,,,,,,,
,,,,,SPR24_091,21,male,2024-04-25_13h05.17.630,jersey_experiment_5_v0,2023.2.2,Win32,60.24096386,,,,,,,,,,,,,,,,692.7374,693.7871,693.7871,694.3929,return,0.05,,98.828125,,,,,,FBP-OG-91.png,0.45,1.2,15,0.25,,,,,,,,,,,,,0,58,58,14,1,,,,,,,,,,,,,,,,,,,,,,,,,,,,
,,,,,SPR24_091,21,male,2024-04-25_13h05.17.630,jersey_experiment_5_v0,2023.2.2,Win32,60.24096386,,,,,,,,,,,,,,,,694.393,695.437,695.4371,696.1035,return,0.1422,,98.828125,,,,,,FBP-RB-19.png,0.43,1.2,44,0.25,,,,,,,,,,,,,0,59,59,43,1,,,,,,,,,,,,,,,,,,,,,,,,,,,,
,,,,,SPR24_091,21,male,2024-04-25_13h05.17.630,jersey_experiment_5_v0,2023.2.2,Win32,60.24096386,,,,,,,,,,,,,,,,696.1047,697.3951,697.3951,698.1201,return,0.1439,,98.828125,,,,,,FBP-PT-81.png,0.43,1.2,54,0.5,,,,,,,,,,,,,,,,,,0,0,0,53,1,,,,,,,,,,,,,,,,,,,,,,,
,,,,,SPR24_091,21,male,2024-04-25_13h05.17.630,jersey_experiment_5_v0,2023.2.2,Win32,60.24096386,,,,,,,,,,,,,,,,698.1203,699.17,699.1701,701.3699,return,0.707,,98.828125,,,,,,FBP-RB-91.png,0.43,1.2,44,0.25,,,,,,,,,,,,,,,,,,0,1,1,43,1,,,,,,,,,,,,,,,,,,,,,,,
,,,,,SPR24_091,21,male,2024-04-25_13h05.17.630,jersey_experiment_5_v0,2023.2.2,Win32,60.24096386,,,,,,,,,,,,,,,,701.37,702.4198,702.4199,704.5363,return,0.1584,,75.78125,,,,,,FBP-OG-19.png,0.45,1.2,15,0.25,,,,,,,,,,,,,,,,,,0,2,2,14,1,,,,,,,,,,,,,,,,,,,,,,,
,,,,,SPR24_091,21,male,2024-04-25_13h05.17.630,jersey_experiment_5_v0,2023.2.2,Win32,60.24096386,,,,,,,,,,,,,,,,704.5365,705.5863,705.5864,711.986,return,0.0691,,49.73958333,,,,,,FBP-RB-81.png,0.43,1.2,39,0.25,,,,,,,,,,,,,,,,,,0,3,3,38,1,,,,,,,,,,,,,,,,,,,,,,,
,,,,,SPR24_091,21,male,2024-04-25_13h05.17.630,jersey_experiment_5_v0,2023.2.2,Win32,60.24096386,,,,,,,,,,,,,,,,711.9862,713.2892,713.2892,713.7857,return,0.0902,,49.73958333,,,,,,FBP-YG-91.png,0.37,1.2,27,0.5,,,,,,,,,,,,,,,,,,0,4,4,26,1,,,,,,,,,,,,,,,,,,,,,,,
,,,,,SPR24_091,21,male,2024-04-25_13h05.17.630,jersey_experiment_5_v0,2023.2.2,Win32,60.24096386,,,,,,,,,,,,,,,,713.7859,715.0856,715.0856,715.6022,return,0.1503,,49.73958333,,,,,,FBP-YG-71.png,0.35,1.2,16,0.5,,,,,,,,,,,,,,,,,,0,5,5,15,1,,,,,,,,,,,,,,,,,,,,,,,
,,,,,SPR24_091,21,male,2024-04-25_13h05.17.630,jersey_experiment_5_v0,2023.2.2,Win32,60.24096386,,,,,,,,,,,,,,,,715.6023,716.6582,716.6583,717.2856,return,0.0669,,49.73958333,,,,,,FBP-RB-81.png,0.35,1.2,36,0.25,,,,,,,,,,,,,,,,,,0,6,6,35,1,,,,,,,,,,,,,,,,,,,,,,,
,,,,,SPR24_091,21,male,2024-04-25_13h05.17.630,jersey_experiment_5_v0,2023.2.2,Win32,60.24096386,,,,,,,,,,,,,,,,717.2857,718.5911,718.5911,720.0914,return,0.1027,,75,,,,,,FBP-PT-71.png,0.45,1.2,50,0.5,,,,,,,,,,,,,,,,,,0,7,7,49,1,,,,,,,,,,,,,,,,,,,,,,,
,,,,,SPR24_091,21,male,2024-04-25_13h05.17.630,jersey_experiment_5_v0,2023.2.2,Win32,60.24096386,,,,,,,,,,,,,,,,720.0916,721.1411,721.1411,722.0244,return,0.0665,,69.921875,,,,,,FBP-RB-71.png,0.4,1.2,33,0.25,,,,,,,,,,,,,,,,,,0,8,8,32,1,,,,,,,,,,,,,,,,,,,,,,,
,,,,,SPR24_091,21,male,2024-04-25_13h05.17.630,jersey_experiment_5_v0,2023.2.2,Win32,60.24096386,,,,,,,,,,,,,,,,722.0246,723.0684,723.0684,723.685,return,0.0851,,69.921875,,,,,,FBP-OG-18.png,0.43,1.2,9,0.25,,,,,,,,,,,,,,,,,,0,9,9,8,1,,,,,,,,,,,,,,,,,,,,,,,
,,,,,SPR24_091,21,male,2024-04-25_13h05.17.630,jersey_experiment_5_v0,2023.2.2,Win32,60.24096386,,,,,,,,,,,,,,,,723.6851,724.741,724.741,726.3516,return,1.1827,,54.42708333,,,,,,FBP-OG-18.png,0.37,1.2,7,0.25,,,,,,,,,,,,,,,,,,0,10,10,6,1,,,,,,,,,,,,,,,,,,,,,,,
,,,,,SPR24_091,21,male,2024-04-25_13h05.17.630,jersey_experiment_5_v0,2023.2.2,Win32,60.24096386,,,,,,,,,,,,,,,,726.3517,727.4014,727.4015,728.5574,return,0.1001,,54.16666667,,,,,,FBP-OG-17.png,0.37,1.2,2,0.25,,,,,,,,,,,,,,,,,,0,11,11,1,1,,,,,,,,,,,,,,,,,,,,,,,
,,,,,SPR24_091,21,male,2024-04-25_13h05.17.630,jersey_experiment_5_v0,2023.2.2,Win32,60.24096386,,,,,,,,,,,,,,,,728.5576,729.8513,729.8513,730.5588,return,0.1016,,54.16666667,,,,,,FBP-YG-91.png,0.4,1.2,28,0.5,,,,,,,,,,,,,,,,,,0,12,12,27,1,,,,,,,,,,,,,,,,,,,,,,,
,,,,,SPR24_091,21,male,2024-04-25_13h05.17.630,jersey_experiment_5_v0,2023.2.2,Win32,60.24096386,,,,,,,,,,,,,,,,730.5589,731.6012,731.6012,732.5738,return,0.0837,,41.40625,,,,,,FBP-RB-81.png,0.37,1.2,37,0.25,,,,,,,,,,,,,,,,,,0,13,13,36,1,,,,,,,,,,,,,,,,,,,,,,,
,,,,,SPR24_091,21,male,2024-04-25_13h05.17.630,jersey_experiment_5_v0,2023.2.2,Win32,60.24096386,,,,,,,,,,,,,,,,732.5739,733.6177,733.6178,734.4904,return,0.167,,55.20833333,,,,,,FBP-RB-91.png,0.45,1.2,45,0.25,,,,,,,,,,,,,,,,,,0,14,14,44,1,,,,,,,,,,,,,,,,,,,,,,,
,,,,,SPR24_091,21,male,2024-04-25_13h05.17.630,jersey_experiment_5_v0,2023.2.2,Win32,60.24096386,,,,,,,,,,,,,,,,734.4906,735.7842,735.7842,736.5675,return,0.026,,87.63020833,,,,,,FBP-YG-71.png,0.45,1.2,20,0.5,,,,,,,,,,,,,,,,,,0,15,15,19,1,,,,,,,,,,,,,,,,,,,,,,,
,,,,,SPR24_091,21,male,2024-04-25_13h05.17.630,jersey_experiment_5_v0,2023.2.2,Win32,60.24096386,,,,,,,,,,,,,,,,736.5677,737.8563,737.8563,739.5877,return,0.0791,,48.95833333,,,,,,FBP-PT-91.png,0.37,1.2,57,0.5,,,,,,,,,,,,,,,,,,0,16,16,56,1,,,,,,,,,,,,,,,,,,,,,,,
,,,,,SPR24_091,21,male,2024-04-25_13h05.17.630,jersey_experiment_5_v0,2023.2.2,Win32,60.24096386,,,,,,,,,,,,,,,,739.5879,740.6338,740.6339,741.7399,return,0.1,,48.828125,,,,,,FBP-RB-91.png,0.4,1.2,43,0.25,,,,,,,,,,,,,,,,,,0,17,17,42,1,,,,,,,,,,,,,,,,,,,,,,,
,,,,,SPR24_091,21,male,2024-04-25_13h05.17.630,jersey_experiment_5_v0,2023.2.2,Win32,60.24096386,,,,,,,,,,,,,,,,741.74,742.7837,742.7837,744.5561,return,0.6167,,59.765625,,,,,,FBP-OG-19.png,0.4,1.2,13,0.25,,,,,,,,,,,,,,,,,,0,18,18,12,1,,,,,,,,,,,,,,,,,,,,,,,
,,,,,SPR24_091,21,male,2024-04-25_13h05.17.630,jersey_experiment_5_v0,2023.2.2,Win32,60.24096386,,,,,,,,,,,,,,,,744.5562,745.8503,745.8503,746.5668,return,0.1457,,75.78125,,,,,,FBP-YG-81.png,0.45,1.2,25,0.5,,,,,,,,,,,,,,,,,,0,19,19,24,1,,,,,,,,,,,,,,,,,,,,,,,
,,,,,SPR24_091,21,male,2024-04-25_13h05.17.630,jersey_experiment_5_v0,2023.2.2,Win32,60.24096386,,,,,,,,,,,,,,,,746.5669,747.8702,747.8703,748.556,return,0.1335,,85.02604167,,,,,,FBP-YG-71.png,0.43,1.2,19,0.5,,,,,,,,,,,,,,,,,,0,20,20,18,1,,,,,,,,,,,,,,,,,,,,,,,
,,,,,SPR24_091,21,male,2024-04-25_13h05.17.630,jersey_experiment_5_v0,2023.2.2,Win32,60.24096386,,,,,,,,,,,,,,,,748.5561,749.8532,749.8532,750.539,return,0.0337,,50.13020833,,,,,,FBP-PT-81.png,0.4,1.2,53,0.5,,,,,,,,,,,,,,,,,,0,21,21,52,1,,,,,,,,,,,,,,,,,,,,,,,
,,,,,SPR24_091,21,male,2024-04-25_13h05.17.630,jersey_experiment_5_v0,2023.2.2,Win32,60.24096386,,,,,,,,,,,,,,,,750.5391,751.8331,751.8331,752.3164,return,0.1041,,50.13020833,,,,,,FBP-YG-81.png,0.37,1.2,22,0.5,,,,,,,,,,,,,,,,,,0,22,22,21,1,,,,,,,,,,,,,,,,,,,,,,,
,,,,,SPR24_091,21,male,2024-04-25_13h05.17.630,jersey_experiment_5_v0,2023.2.2,Win32,60.24096386,,,,,,,,,,,,,,,,752.3166,753.6055,753.6056,754.4219,return,0.1996,,58.46354167,,,,,,FBP-YG-81.png,0.43,1.2,24,0.5,,,,,,,,,,,,,,,,,,0,23,23,23,1,,,,,,,,,,,,,,,,,,,,,,,
,,,,,SPR24_091,21,male,2024-04-25_13h05.17.630,jersey_experiment_5_v0,2023.2.2,Win32,60.24096386,,,,,,,,,,,,,,,,754.4219,755.4663,755.4663,756.1995,return,0.1591,,67.83854167,,,,,,FBP-OG-17.png,0.45,1.2,5,0.25,,,,,,,,,,,,,,,,,,0,24,24,4,1,,,,,,,,,,,,,,,,,,,,,,,
,,,,,SPR24_091,21,male,2024-04-25_13h05.17.630,jersey_experiment_5_v0,2023.2.2,Win32,60.24096386,,,,,,,,,,,,,,,,756.1998,757.2388,757.2388,758.216,return,0.14,,54.16666667,,,,,,FBP-OG-18.png,0.4,1.2,8,0.25,,,,,,,,,,,,,,,,,,0,25,25,7,1,,,,,,,,,,,,,,,,,,,,,,,
,,,,,SPR24_091,21,male,2024-04-25_13h05.17.630,jersey_experiment_5_v0,2023.2.2,Win32,60.24096386,,,,,,,,,,,,,,,,758.2162,759.2661,759.2661,760.1553,return,0.0003,,35.80729167,,,,,,FBP-OG-19.png,0.37,1.2,12,0.25,,,,,,,,,,,,,,,,,,0,26,26,11,1,,,,,,,,,,,,,,,,,,,,,,,
,,,,,SPR24_091,21,male,2024-04-25_13h05.17.630,jersey_experiment_5_v0,2023.2.2,Win32,60.24096386,,,,,,,,,,,,,,,,760.1554,761.4491,761.4492,762.3491,return,0.0871,,51.69270833,,,,,,FBP-YG-71.png,0.4,1.2,18,0.5,,,,,,,,,,,,,,,,,,0,27,27,17,1,,,,,,,,,,,,,,,,,,,,,,,
,,,,,SPR24_091,21,male,2024-04-25_13h05.17.630,jersey_experiment_5_v0,2023.2.2,Win32,60.24096386,,,,,,,,,,,,,,,,762.3493,763.4046,763.4046,764.6225,return,0.2679,,80.078125,,,,,,FBP-RB-71.png,0.45,1.2,35,0.25,,,,,,,,,,,,,,,,,,0,28,28,34,1,,,,,,,,,,,,,,,,,,,,,,,
,,,,,SPR24_091,21,male,2024-04-25_13h05.17.630,jersey_experiment_5_v0,2023.2.2,Win32,60.24096386,,,,,,,,,,,,,,,,764.6226,765.6654,765.6655,766.9489,return,0.1168,,28.38541667,,,,,,FBP-OG-17.png,0.35,1.2,1,0.25,,,,,,,,,,,,,,,,,,0,29,29,0,1,,,,,,,,,,,,,,,,,,,,,,,
,,,,,SPR24_091,21,male,2024-04-25_13h05.17.630,jersey_experiment_5_v0,2023.2.2,Win32,60.24096386,,,,,,,,,,,,,,,,766.9491,767.9878,767.9878,768.8985,return,0.1003,,40.625,,,,,,FBP-RB-71.png,0.37,1.2,32,0.25,,,,,,,,,,,,,,,,,,0,30,30,31,1,,,,,,,,,,,,,,,,,,,,,,,
,,,,,SPR24_091,21,male,2024-04-25_13h05.17.630,jersey_experiment_5_v0,2023.2.2,Win32,60.24096386,,,,,,,,,,,,,,,,768.8986,769.9375,769.9375,770.7485,return,0.0876,,41.66666667,,,,,,FBP-OG-18.png,0.35,1.2,6,0.25,,,,,,,,,,,,,,,,,,0,31,31,5,1,,,,,,,,,,,,,,,,,,,,,,,
,,,,,SPR24_091,21,male,2024-04-25_13h05.17.630,jersey_experiment_5_v0,2023.2.2,Win32,60.24096386,,,,,,,,,,,,,,,,770.7486,771.7866,771.7867,773.6317,return,0.1508,,50.390625,,,,,,FBP-RB-81.png,0.4,1.2,38,0.25,,,,,,,,,,,,,,,,,,0,32,32,37,1,,,,,,,,,,,,,,,,,,,,,,,
,,,,,SPR24_091,21,male,2024-04-25_13h05.17.630,jersey_experiment_5_v0,2023.2.2,Win32,60.24096386,,,,,,,,,,,,,,,,773.6318,774.9315,774.9315,775.4875,return,0.1168,,50.390625,,,,,,FBP-PT-91.png,0.45,1.2,60,0.5,,,,,,,,,,,,,,,,,,0,33,33,59,1,,,,,,,,,,,,,,,,,,,,,,,
,,,,,SPR24_091,21,male,2024-04-25_13h05.17.630,jersey_experiment_5_v0,2023.2.2,Win32,60.24096386,,,,,,,,,,,,,,,,775.4876,776.7896,776.7896,777.704,return,0.0525,,16.796875,,,,,,FBP-PT-71.png,0.37,1.2,47,0.5,,,,,,,,,,,,,,,,,,0,34,34,46,1,,,,,,,,,,,,,,,,,,,,,,,
,,,,,SPR24_091,21,male,2024-04-25_13h05.17.630,jersey_experiment_5_v0,2023.2.2,Win32,60.24096386,,,,,,,,,,,,,,,,777.7041,778.998,778.998,779.7813,return,0.0502,,84.11458333,,,,,,FBP-YG-91.png,0.45,1.2,30,0.5,,,,,,,,,,,,,,,,,,0,35,35,29,1,,,,,,,,,,,,,,,,,,,,,,,
,,,,,SPR24_091,21,male,2024-04-25_13h05.17.630,jersey_experiment_5_v0,2023.2.2,Win32,60.24096386,,,,,,,,,,,,,,,,779.7814,781.0811,781.0811,782.0869,return,0.1668,,55.98958333,,,,,,FBP-PT-71.png,0.4,1.2,48,0.5,,,,,,,,,,,,,,,,,,0,36,36,47,1,,,,,,,,,,,,,,,,,,,,,,,
,,,,,SPR24_091,21,male,2024-04-25_13h05.17.630,jersey_experiment_5_v0,2023.2.2,Win32,60.24096386,,,,,,,,,,,,,,,,782.087,783.1369,783.137,784.0478,return,0.1361,,92.70833333,,,,,,FBP-RB-71.png,0.43,1.2,34,0.25,,,,,,,,,,,,,,,,,,0,37,37,33,1,,,,,,,,,,,,,,,,,,,,,,,
,,,,,SPR24_091,21,male,2024-04-25_13h05.17.630,jersey_experiment_5_v0,2023.2.2,Win32,60.24096386,,,,,,,,,,,,,,,,784.0481,785.3475,785.3476,786.214,return,0.1767,,38.15104167,,,,,,FBP-PT-81.png,0.37,1.2,52,0.5,,,,,,,,,,,,,,,,,,0,38,38,51,1,,,,,,,,,,,,,,,,,,,,,,,
,,,,,SPR24_091,21,male,2024-04-25_13h05.17.630,jersey_experiment_5_v0,2023.2.2,Win32,60.24096386,,,,,,,,,,,,,,,,786.2142,787.5197,787.5197,788.1141,return,0.1175,,37.76041667,,,,,,FBP-PT-91.png,0.35,1.2,56,0.5,,,,,,,,,,,,,,,,,,0,39,39,55,1,,,,,,,,,,,,,,,,,,,,,,,
,,,,,SPR24_091,21,male,2024-04-25_13h05.17.630,jersey_experiment_5_v0,2023.2.2,Win32,60.24096386,,,,,,,,,,,,,,,,788.1143,789.1641,789.1641,789.8638,return,0.1443,,37.76041667,,,,,,FBP-RB-91.png,0.35,1.2,41,0.25,,,,,,,,,,,,,,,,,,0,40,40,40,1,,,,,,,,,,,,,,,,,,,,,,,
,,,,,SPR24_091,21,male,2024-04-25_13h05.17.630,jersey_experiment_5_v0,2023.2.2,Win32,60.24096386,,,,,,,,,,,,,,,,789.864,790.9196,790.9196,792.9212,return,0.3843,,99.73958333,,,,,,FBP-RB-81.png,0.45,1.2,40,0.25,,,,,,,,,,,,,,,,,,0,41,41,39,1,,,,,,,,,,,,,,,,,,,,,,,
,,,,,SPR24_091,21,male,2024-04-25_13h05.17.630,jersey_experiment_5_v0,2023.2.2,Win32,60.24096386,,,,,,,,,,,,,,,,792.9214,794.2194,794.2194,795.5468,return,0.1887,,19.140625,,,,,,FBP-PT-81.png,0.35,1.2,51,0.5,,,,,,,,,,,,,,,,,,0,42,42,50,1,,,,,,,,,,,,,,,,,,,,,,,
,,,,,SPR24_091,21,male,2024-04-25_13h05.17.630,jersey_experiment_5_v0,2023.2.2,Win32,60.24096386,,,,,,,,,,,,,,,,795.5469,796.8501,796.8502,797.4801,return,0.0902,,19.140625,,,,,,FBP-YG-71.png,0.37,1.2,17,0.5,,,,,,,,,,,,,,,,,,0,43,43,16,1,,,,,,,,,,,,,,,,,,,,,,,
,,,,,SPR24_091,21,male,2024-04-25_13h05.17.630,jersey_experiment_5_v0,2023.2.2,Win32,60.24096386,,,,,,,,,,,,,,,,797.4802,798.78,798.78,799.7966,return,0.0999,,73.4375,,,,,,FBP-YG-81.png,0.4,1.2,23,0.5,,,,,,,,,,,,,,,,,,0,44,44,22,1,,,,,,,,,,,,,,,,,,,,,,,
,,,,,SPR24_091,21,male,2024-04-25_13h05.17.630,jersey_experiment_5_v0,2023.2.2,Win32,60.24096386,,,,,,,,,,,,,,,,799.7968,801.0856,801.0856,801.8298,return,0.2167,,73.4375,,,,,,FBP-YG-91.png,0.43,1.2,29,0.5,,,,,,,,,,,,,,,,,,0,45,45,28,1,,,,,,,,,,,,,,,,,,,,,,,
,,,,,SPR24_091,21,male,2024-04-25_13h05.17.630,jersey_experiment_5_v0,2023.2.2,Win32,60.24096386,,,,,,,,,,,,,,,,801.8299,803.1188,803.1188,803.6796,return,0.101,,73.4375,,,,,,FBP-PT-81.png,0.45,1.2,55,0.5,,,,,,,,,,,,,,,,,,0,46,46,54,1,,,,,,,,,,,,,,,,,,,,,,,
,,,,,SPR24_091,21,male,2024-04-25_13h05.17.630,jersey_experiment_5_v0,2023.2.2,Win32,60.24096386,,,,,,,,,,,,,,,,803.6797,804.9796,804.9796,806.1854,return,0.2166,,25.65104167,,,,,,FBP-PT-71.png,0.35,1.2,46,0.5,,,,,,,,,,,,,,,,,,0,47,47,45,1,,,,,,,,,,,,,,,,,,,,,,,
,,,,,SPR24_091,21,male,2024-04-25_13h05.17.630,jersey_experiment_5_v0,2023.2.2,Win32,60.24096386,,,,,,,,,,,,,,,,806.1856,807.4793,807.4794,808.4125,return,0.1372,,65.234375,,,,,,FBP-PT-91.png,0.43,1.2,59,0.5,,,,,,,,,,,,,,,,,,0,48,48,58,1,,,,,,,,,,,,,,,,,,,,,,,
,,,,,SPR24_091,21,male,2024-04-25_13h05.17.630,jersey_experiment_5_v0,2023.2.2,Win32,60.24096386,,,,,,,,,,,,,,,,808.4126,809.4624,809.4625,810.4292,return,0.0372,,73.30729167,,,,,,FBP-OG-17.png,0.4,1.2,3,0.25,,,,,,,,,,,,,,,,,,0,49,49,2,1,,,,,,,,,,,,,,,,,,,,,,,
,,,,,SPR24_091,21,male,2024-04-25_13h05.17.630,jersey_experiment_5_v0,2023.2.2,Win32,60.24096386,,,,,,,,,,,,,,,,810.4294,811.7348,811.7348,812.4957,return,0.1343,,73.30729167,,,,,,FBP-PT-91.png,0.4,1.2,58,0.5,,,,,,,,,,,,,,,,,,0,50,50,57,1,,,,,,,,,,,,,,,,,,,,,,,
,,,,,SPR24_091,21,male,2024-04-25_13h05.17.630,jersey_experiment_5_v0,2023.2.2,Win32,60.24096386,,,,,,,,,,,,,,,,812.4958,813.7956,813.7956,814.4622,return,0.152,,73.30729167,,,,,,FBP-YG-81.png,0.35,1.2,21,0.5,,,,,,,,,,,,,,,,,,0,51,51,20,1,,,,,,,,,,,,,,,,,,,,,,,
,,,,,SPR24_091,21,male,2024-04-25_13h05.17.630,jersey_experiment_5_v0,2023.2.2,Win32,60.24096386,,,,,,,,,,,,,,,,814.4623,815.5013,815.5014,816.5845,return,0.1331,,26.69270833,,,,,,FBP-RB-71.png,0.35,1.2,31,0.25,,,,,,,,,,,,,,,,,,0,52,52,30,1,,,,,,,,,,,,,,,,,,,,,,,
,,,,,SPR24_091,21,male,2024-04-25_13h05.17.630,jersey_experiment_5_v0,2023.2.2,Win32,60.24096386,,,,,,,,,,,,,,,,816.5846,817.6343,817.6343,818.9953,return,0.117,,51.43229167,,,,,,FBP-RB-91.png,0.37,1.2,42,0.25,,,,,,,,,,,,,,,,,,0,53,53,41,1,,,,,,,,,,,,,,,,,,,,,,,
,,,,,SPR24_091,21,male,2024-04-25_13h05.17.630,jersey_experiment_5_v0,2023.2.2,Win32,60.24096386,,,,,,,,,,,,,,,,818.9955,820.0509,820.0509,821.2024,return,0.1206,,82.421875,,,,,,FBP-OG-19.png,0.43,1.2,14,0.25,,,,,,,,,,,,,,,,,,0,54,54,13,1,,,,,,,,,,,,,,,,,,,,,,,
,,,,,SPR24_091,21,male,2024-04-25_13h05.17.630,jersey_experiment_5_v0,2023.2.2,Win32,60.24096386,,,,,,,,,,,,,,,,821.2025,822.5009,822.5009,823.295,return,0.1349,,42.05729167,,,,,,FBP-YG-91.png,0.35,1.2,26,0.5,,,,,,,,,,,,,,,,,,0,55,55,25,1,,,,,,,,,,,,,,,,,,,,,,,
,,,,,SPR24_091,21,male,2024-04-25_13h05.17.630,jersey_experiment_5_v0,2023.2.2,Win32,60.24096386,,,,,,,,,,,,,,,,823.2951,824.6007,824.6007,825.9448,return,0.0911,,63.15104167,,,,,,FBP-PT-71.png,0.43,1.2,49,0.5,,,,,,,,,,,,,,,,,,0,56,56,48,1,,,,,,,,,,,,,,,,,,,,,,,
,,,,,SPR24_091,21,male,2024-04-25_13h05.17.630,jersey_experiment_5_v0,2023.2.2,Win32,60.24096386,,,,,,,,,,,,,,,,825.9449,826.9947,826.9947,827.7484,return,0.1478,,63.15104167,,,,,,FBP-OG-17.png,0.43,1.2,4,0.25,,,,,,,,,,,,,,,,,,0,57,57,3,1,,,,,,,,,,,,,,,,,,,,,,,
,,,,,SPR24_091,21,male,2024-04-25_13h05.17.630,jersey_experiment_5_v0,2023.2.2,Win32,60.24096386,,,,,,,,,,,,,,,,827.7485,828.7946,828.7946,829.8175,return,0.0672,,78.64583333,,,,,,FBP-OG-18.png,0.45,1.2,10,0.25,,,,,,,,,,,,,,,,,,0,58,58,9,1,,,,,,,,,,,,,,,,,,,,,,,
,,,,,SPR24_091,21,male,2024-04-25_13h05.17.630,jersey_experiment_5_v0,2023.2.2,Win32,60.24096386,,,,,,,,,,,,,,,,829.8177,830.8611,830.8611,831.8169,return,0.0982,,38.93229167,,,,,,FBP-OG-19.png,0.35,1.2,11,0.25,,,,,,,,,,,,,,,,,,0,59,59,10,1,,,,,,,,,,,,,,,,,,,,,,,
,,,,,SPR24_091,21,male,2024-04-25_13h05.17.630,jersey_experiment_5_v0,2023.2.2,Win32,60.24096386,,,,,,,,,,,,,,,,,,,,,,,,,,,,,,,,,,,,,,,,,,,,,,,,,,,,,,,,831.8172,837.5775,return,5.7398,,,,,,,,,,,,,,,,,,,
,,,,,SPR24_091,21,male,2024-04-25_13h05.17.630,jersey_experiment_5_v0,2023.2.2,Win32,60.24096386,,,,,,,,,,,,,,,,,,,,,,,,,,,,,,,,,,,,,,,,,,,,,,,,,,,,,,,,,,,,,837.5775,850.0766,1,11.301,return,1.1701,,,,,,,,,,,,
,,,,,SPR24_091,21,male,2024-04-25_13h05.17.630,jersey_experiment_5_v0,2023.2.2,Win32,60.24096386,,,,,,,,,,,,,,,,,,,,,,,,,,,,,,,,,,,,,,,,,,,,,,,,,,,,,,,,,,,,,,,,,,,,850.0766,924.3993,Whether or not I would change my perception of future players based on the relative sizes of past players. Or if I would just get tired/bored and start clicking randomly,right,62.129,,,,,,
,,,,,SPR24_091,21,male,2024-04-25_13h05.17.630,jersey_experiment_5_v0,2023.2.2,Win32,60.24096386,,,,,,,,,,,,,,,,,,,,,,,,,,,,,,,,,,,,,,,,,,,,,,,,,,,,,,,,,,,,,,,,,,,,,,,,,,924.3994,928.4213,return,3.9994,