requirements.started,requirements.stopped,key_resp_3.keys,key_resp_3.rt,key_resp_3.duration,Subject ID,Age,Gender,date,expName,psychopyVersion,OS,frameRate,instructions1.started,instructions1.stopped,key_resp.keys,key_resp.rt,key_resp.duration,example.started,example.stopped,enter_2.keys,enter_2.rt,enter_2.duration,instructions2.started,instructions2.stopped,enter_3.keys,enter_3.rt,enter_3.duration,image.started,image.stopped,slider_2.started,slider_2.stopped,next.keys,next.rt,next.duration,slider.response,trial_block_1.thisRepN,trial_block_1.thisTrialN,trial_block_1.thisN,trial_block_1.thisIndex,trial_block_1.ran,Path,Width,Height,Index,Duration,trial_block_2.thisRepN,trial_block_2.thisTrialN,trial_block_2.thisN,trial_block_2.thisIndex,trial_block_2.ran,rest_break.started,rest_break.stopped,end_break.started,end_break.stopped,key_resp_5.keys,key_resp_5.rt,key_resp_5.duration,trial_block_3.thisRepN,trial_block_3.thisTrialN,trial_block_3.thisN,trial_block_3.thisIndex,trial_block_3.ran,trial_block_4.thisRepN,trial_block_4.thisTrialN,trial_block_4.thisN,trial_block_4.thisIndex,trial_block_4.ran,questions_intro.started,questions_intro.stopped,enter_12.keys,enter_12.rt,enter_12.duration,question2.started,question2.stopped,question_doingbest.response,question_doingbest.rt,enter_15.keys,enter_15.rt,enter_15.duration,pattern.started,pattern.stopped,pattern_2.text,enter_17.keys,enter_17.rt,enter_17.duration,thankyou.started,thankyou.stopped,enter_14.keys,enter_14.rt,enter_14.duration
0,10.1238,return,10.1185,,SPR24_081,21,female,2024-04-23_14h34.47.450,jersey_experiment_5_v0,2023.2.2,Win32,84.03361345,,,,,,,,,,,,,,,,,,,,,,,,,,,,,,,,,,,,,,,,,,,,,,,,,,,,,,,,,,,,,,,,,,,,,,,,,,,,,,
,,,,,SPR24_081,21,female,2024-04-23_14h34.47.450,jersey_experiment_5_v0,2023.2.2,Win32,84.03361345,10.1239,17.521,return,7.3752,,,,,,,,,,,,,,,,,,,,,,,,,,,,,,,,,,,,,,,,,,,,,,,,,,,,,,,,,,,,,,,,,,,,,,,,,,
,,,,,SPR24_081,21,female,2024-04-23_14h34.47.450,jersey_experiment_5_v0,2023.2.2,Win32,84.03361345,,,,,,17.521,20.6857,return,3.1265,,,,,,,,,,,,,,,,,,,,,,,,,,,,,,,,,,,,,,,,,,,,,,,,,,,,,,,,,,,,,,,,,,,,,
,,,,,SPR24_081,21,female,2024-04-23_14h34.47.450,jersey_experiment_5_v0,2023.2.2,Win32,84.03361345,,,,,,,,,,,20.6858,37.2629,return,16.565,,,,,,,,,,,,,,,,,,,,,,,,,,,,,,,,,,,,,,,,,,,,,,,,,,,,,,,,,,,,,,,,
,,,,,SPR24_081,21,female,2024-04-23_14h34.47.450,jersey_experiment_5_v0,2023.2.2,Win32,84.03361345,,,,,,,,,,,,,,,,37.2699,38.3215,38.3216,44.5924,return,1.4585,,49.86979167,0,0,0,52,1,FBP-PT-18.png,0.4,1.2,53,0.25,,,,,,,,,,,,,,,,,,,,,,,,,,,,,,,,,,,,,,,,,,,,,
,,,,,SPR24_081,21,female,2024-04-23_14h34.47.450,jersey_experiment_5_v0,2023.2.2,Win32,84.03361345,,,,,,,,,,,,,,,,44.5928,45.8864,45.8864,49.4747,return,1.2234,,24.86979167,0,1,1,6,1,FBP-OG-81.png,0.37,1.2,7,0.5,,,,,,,,,,,,,,,,,,,,,,,,,,,,,,,,,,,,,,,,,,,,,
,,,,,SPR24_081,21,female,2024-04-23_14h34.47.450,jersey_experiment_5_v0,2023.2.2,Win32,84.03361345,,,,,,,,,,,,,,,,49.4749,50.522,50.522,52.8748,return,0.6761,,98.69791667,0,2,2,19,1,FBP-YG-17.png,0.45,1.2,20,0.25,,,,,,,,,,,,,,,,,,,,,,,,,,,,,,,,,,,,,,,,,,,,,
,,,,,SPR24_081,21,female,2024-04-23_14h34.47.450,jersey_experiment_5_v0,2023.2.2,Win32,84.03361345,,,,,,,,,,,,,,,,52.875,53.922,53.922,56.2044,return,0.6248,,49.86979167,0,3,3,56,1,FBP-PT-19.png,0.37,1.2,57,0.25,,,,,,,,,,,,,,,,,,,,,,,,,,,,,,,,,,,,,,,,,,,,,
,,,,,SPR24_081,21,female,2024-04-23_14h34.47.450,jersey_experiment_5_v0,2023.2.2,Win32,84.03361345,,,,,,,,,,,,,,,,56.2046,57.4985,57.4985,59.1338,return,0.4615,,99.86979167,0,4,4,43,1,FBP-RB-19.png,0.43,1.2,44,0.5,,,,,,,,,,,,,,,,,,,,,,,,,,,,,,,,,,,,,,,,,,,,,
,,,,,SPR24_081,21,female,2024-04-23_14h34.47.450,jersey_experiment_5_v0,2023.2.2,Win32,84.03361345,,,,,,,,,,,,,,,,59.134,60.1808,60.1809,61.4164,return,0.2874,,99.21875,0,5,5,24,1,FBP-YG-18.png,0.45,1.2,25,0.25,,,,,,,,,,,,,,,,,,,,,,,,,,,,,,,,,,,,,,,,,,,,,
,,,,,SPR24_081,21,female,2024-04-23_14h34.47.450,jersey_experiment_5_v0,2023.2.2,Win32,84.03361345,,,,,,,,,,,,,,,,61.4166,62.4634,62.4635,64.1224,return,0.3706,,74.73958333,0,6,6,46,1,FBP-PT-17.png,0.37,1.2,47,0.25,,,,,,,,,,,,,,,,,,,,,,,,,,,,,,,,,,,,,,,,,,,,,
,,,,,SPR24_081,21,female,2024-04-23_14h34.47.450,jersey_experiment_5_v0,2023.2.2,Win32,84.03361345,,,,,,,,,,,,,,,,64.1226,65.1694,65.1694,66.2635,return,0.3028,,75,0,7,7,53,1,FBP-PT-18.png,0.43,1.2,54,0.25,,,,,,,,,,,,,,,,,,,,,,,,,,,,,,,,,,,,,,,,,,,,,
,,,,,SPR24_081,21,female,2024-04-23_14h34.47.450,jersey_experiment_5_v0,2023.2.2,Win32,84.03361345,,,,,,,,,,,,,,,,66.2637,67.3106,67.3108,69.3578,return,0.2615,,25,0,8,8,15,1,FBP-YG-17.png,0.35,1.2,16,0.25,,,,,,,,,,,,,,,,,,,,,,,,,,,,,,,,,,,,,,,,,,,,,
,,,,,SPR24_081,21,female,2024-04-23_14h34.47.450,jersey_experiment_5_v0,2023.2.2,Win32,84.03361345,,,,,,,,,,,,,,,,69.358,70.4049,70.4049,72.1578,return,0.153,,74.73958333,0,9,9,23,1,FBP-YG-18.png,0.43,1.2,24,0.25,,,,,,,,,,,,,,,,,,,,,,,,,,,,,,,,,,,,,,,,,,,,,
,,,,,SPR24_081,21,female,2024-04-23_14h34.47.450,jersey_experiment_5_v0,2023.2.2,Win32,84.03361345,,,,,,,,,,,,,,,,72.1581,73.4521,73.4521,74.8168,return,0.2824,,97.91666667,0,10,10,33,1,FBP-RB-17.png,0.43,1.2,34,0.5,,,,,,,,,,,,,,,,,,,,,,,,,,,,,,,,,,,,,,,,,,,,,
,,,,,SPR24_081,21,female,2024-04-23_14h34.47.450,jersey_experiment_5_v0,2023.2.2,Win32,84.03361345,,,,,,,,,,,,,,,,74.8169,76.1109,76.1109,76.9463,return,0.2969,,97.91666667,0,11,11,14,1,FBP-OG-91.png,0.45,1.2,15,0.5,,,,,,,,,,,,,,,,,,,,,,,,,,,,,,,,,,,,,,,,,,,,,
,,,,,SPR24_081,21,female,2024-04-23_14h34.47.450,jersey_experiment_5_v0,2023.2.2,Win32,84.03361345,,,,,,,,,,,,,,,,76.9464,77.9932,77.9932,79.37,return,0.1593,,75.13020833,0,12,12,22,1,FBP-YG-18.png,0.4,1.2,23,0.25,,,,,,,,,,,,,,,,,,,,,,,,,,,,,,,,,,,,,,,,,,,,,
,,,,,SPR24_081,21,female,2024-04-23_14h34.47.450,jersey_experiment_5_v0,2023.2.2,Win32,84.03361345,,,,,,,,,,,,,,,,79.3701,80.4169,80.4169,81.617,return,0.2448,,75.65104167,0,13,13,29,1,FBP-YG-19.png,0.45,1.2,30,0.25,,,,,,,,,,,,,,,,,,,,,,,,,,,,,,,,,,,,,,,,,,,,,
,,,,,SPR24_081,21,female,2024-04-23_14h34.47.450,jersey_experiment_5_v0,2023.2.2,Win32,84.03361345,,,,,,,,,,,,,,,,81.6171,82.664,82.664,84.2524,return,0.1542,,50.26041667,0,14,14,21,1,FBP-YG-18.png,0.37,1.2,22,0.25,,,,,,,,,,,,,,,,,,,,,,,,,,,,,,,,,,,,,,,,,,,,,
,,,,,SPR24_081,21,female,2024-04-23_14h34.47.450,jersey_experiment_5_v0,2023.2.2,Win32,84.03361345,,,,,,,,,,,,,,,,84.2527,85.5465,85.5465,86.6996,return,0.1927,,74.86979167,0,15,15,3,1,FBP-OG-71.png,0.43,1.2,4,0.5,,,,,,,,,,,,,,,,,,,,,,,,,,,,,,,,,,,,,,,,,,,,,
,,,,,SPR24_081,21,female,2024-04-23_14h34.47.450,jersey_experiment_5_v0,2023.2.2,Win32,84.03361345,,,,,,,,,,,,,,,,86.6998,87.7467,87.7467,88.6525,return,0.1449,,74.86979167,0,16,16,18,1,FBP-YG-17.png,0.43,1.2,19,0.25,,,,,,,,,,,,,,,,,,,,,,,,,,,,,,,,,,,,,,,,,,,,,
,,,,,SPR24_081,21,female,2024-04-23_14h34.47.450,jersey_experiment_5_v0,2023.2.2,Win32,84.03361345,,,,,,,,,,,,,,,,88.6527,89.9466,89.9467,90.7351,return,0.2119,,74.86979167,0,17,17,32,1,FBP-RB-17.png,0.4,1.2,33,0.5,,,,,,,,,,,,,,,,,,,,,,,,,,,,,,,,,,,,,,,,,,,,,
,,,,,SPR24_081,21,female,2024-04-23_14h34.47.450,jersey_experiment_5_v0,2023.2.2,Win32,84.03361345,,,,,,,,,,,,,,,,90.7353,92.0291,92.0291,93.1352,return,0.259,,50,0,18,18,11,1,FBP-OG-91.png,0.37,1.2,12,0.5,,,,,,,,,,,,,,,,,,,,,,,,,,,,,,,,,,,,,,,,,,,,,
,,,,,SPR24_081,21,female,2024-04-23_14h34.47.450,jersey_experiment_5_v0,2023.2.2,Win32,84.03361345,,,,,,,,,,,,,,,,93.1354,94.1821,94.1821,95.194,return,0.1477,,49.609375,0,19,19,26,1,FBP-YG-19.png,0.37,1.2,27,0.25,,,,,,,,,,,,,,,,,,,,,,,,,,,,,,,,,,,,,,,,,,,,,
,,,,,SPR24_081,21,female,2024-04-23_14h34.47.450,jersey_experiment_5_v0,2023.2.2,Win32,84.03361345,,,,,,,,,,,,,,,,95.1941,96.4881,96.4881,97.7941,return,0.1412,,98.4375,0,20,20,44,1,FBP-RB-19.png,0.45,1.2,45,0.5,,,,,,,,,,,,,,,,,,,,,,,,,,,,,,,,,,,,,,,,,,,,,
,,,,,SPR24_081,21,female,2024-04-23_14h34.47.450,jersey_experiment_5_v0,2023.2.2,Win32,84.03361345,,,,,,,,,,,,,,,,97.7944,98.8411,98.8411,100.2414,return,0.1172,,51.5625,0,21,21,50,1,FBP-PT-18.png,0.35,1.2,51,0.25,,,,,,,,,,,,,,,,,,,,,,,,,,,,,,,,,,,,,,,,,,,,,
,,,,,SPR24_081,21,female,2024-04-23_14h34.47.450,jersey_experiment_5_v0,2023.2.2,Win32,84.03361345,,,,,,,,,,,,,,,,100.2416,101.5354,101.5354,103.0414,return,0.1417,,74.609375,0,22,22,38,1,FBP-RB-18.png,0.43,1.2,39,0.5,,,,,,,,,,,,,,,,,,,,,,,,,,,,,,,,,,,,,,,,,,,,,
,,,,,SPR24_081,21,female,2024-04-23_14h34.47.450,jersey_experiment_5_v0,2023.2.2,Win32,84.03361345,,,,,,,,,,,,,,,,103.0415,104.0882,104.0883,104.8413,return,0.1718,,74.609375,0,23,23,48,1,FBP-PT-17.png,0.43,1.2,49,0.25,,,,,,,,,,,,,,,,,,,,,,,,,,,,,,,,,,,,,,,,,,,,,
,,,,,SPR24_081,21,female,2024-04-23_14h34.47.450,jersey_experiment_5_v0,2023.2.2,Win32,84.03361345,,,,,,,,,,,,,,,,104.8415,105.8884,105.8885,107.3238,return,0.355,,97.265625,0,24,24,49,1,FBP-PT-17.png,0.45,1.2,50,0.25,,,,,,,,,,,,,,,,,,,,,,,,,,,,,,,,,,,,,,,,,,,,,
,,,,,SPR24_081,21,female,2024-04-23_14h34.47.450,jersey_experiment_5_v0,2023.2.2,Win32,84.03361345,,,,,,,,,,,,,,,,107.3239,108.3709,108.3709,109.5474,return,0.099,,75,0,25,25,47,1,FBP-PT-17.png,0.4,1.2,48,0.25,,,,,,,,,,,,,,,,,,,,,,,,,,,,,,,,,,,,,,,,,,,,,
,,,,,SPR24_081,21,female,2024-04-23_14h34.47.450,jersey_experiment_5_v0,2023.2.2,Win32,84.03361345,,,,,,,,,,,,,,,,109.5476,110.8416,110.8416,111.5004,return,0.1541,,75.13020833,0,26,26,36,1,FBP-RB-18.png,0.37,1.2,37,0.5,,,,,,,,,,,,,,,,,,,,,,,,,,,,,,,,,,,,,,,,,,,,,
,,,,,SPR24_081,21,female,2024-04-23_14h34.47.450,jersey_experiment_5_v0,2023.2.2,Win32,84.03361345,,,,,,,,,,,,,,,,111.5005,112.5476,112.5477,114.4418,return,0.2039,,51.43229167,0,27,27,20,1,FBP-YG-18.png,0.35,1.2,21,0.25,,,,,,,,,,,,,,,,,,,,,,,,,,,,,,,,,,,,,,,,,,,,,
,,,,,SPR24_081,21,female,2024-04-23_14h34.47.450,jersey_experiment_5_v0,2023.2.2,Win32,84.03361345,,,,,,,,,,,,,,,,114.442,115.4887,115.4887,116.6654,return,0.2163,,57.421875,0,28,28,17,1,FBP-YG-17.png,0.4,1.2,18,0.25,,,,,,,,,,,,,,,,,,,,,,,,,,,,,,,,,,,,,,,,,,,,,
,,,,,SPR24_081,21,female,2024-04-23_14h34.47.450,jersey_experiment_5_v0,2023.2.2,Win32,84.03361345,,,,,,,,,,,,,,,,116.6656,117.9596,117.9596,118.7361,return,0.3436,,57.421875,0,29,29,1,1,FBP-OG-71.png,0.37,1.2,2,0.5,,,,,,,,,,,,,,,,,,,,,,,,,,,,,,,,,,,,,,,,,,,,,
,,,,,SPR24_081,21,female,2024-04-23_14h34.47.450,jersey_experiment_5_v0,2023.2.2,Win32,84.03361345,,,,,,,,,,,,,,,,118.7363,120.0301,120.0302,121.4892,return,0.3443,,98.17708333,0,30,30,4,1,FBP-OG-71.png,0.45,1.2,5,0.5,,,,,,,,,,,,,,,,,,,,,,,,,,,,,,,,,,,,,,,,,,,,,
,,,,,SPR24_081,21,female,2024-04-23_14h34.47.450,jersey_experiment_5_v0,2023.2.2,Win32,84.03361345,,,,,,,,,,,,,,,,121.4893,122.7832,122.7832,123.9833,return,0.2129,,74.73958333,0,31,31,12,1,FBP-OG-91.png,0.4,1.2,13,0.5,,,,,,,,,,,,,,,,,,,,,,,,,,,,,,,,,,,,,,,,,,,,,
,,,,,SPR24_081,21,female,2024-04-23_14h34.47.450,jersey_experiment_5_v0,2023.2.2,Win32,84.03361345,,,,,,,,,,,,,,,,123.9835,125.2774,125.2774,125.854,return,0.1766,,74.73958333,0,32,32,41,1,FBP-RB-19.png,0.37,1.2,42,0.5,,,,,,,,,,,,,,,,,,,,,,,,,,,,,,,,,,,,,,,,,,,,,
,,,,,SPR24_081,21,female,2024-04-23_14h34.47.450,jersey_experiment_5_v0,2023.2.2,Win32,84.03361345,,,,,,,,,,,,,,,,125.8541,127.1481,127.1481,129.007,return,1.4367,,51.69270833,0,33,33,10,1,FBP-OG-91.png,0.35,1.2,11,0.5,,,,,,,,,,,,,,,,,,,,,,,,,,,,,,,,,,,,,,,,,,,,,
,,,,,SPR24_081,21,female,2024-04-23_14h34.47.450,jersey_experiment_5_v0,2023.2.2,Win32,84.03361345,,,,,,,,,,,,,,,,129.0071,130.301,130.301,131.7129,return,0.1645,,26.171875,0,34,34,30,1,FBP-RB-17.png,0.35,1.2,31,0.5,,,,,,,,,,,,,,,,,,,,,,,,,,,,,,,,,,,,,,,,,,,,,
,,,,,SPR24_081,21,female,2024-04-23_14h34.47.450,jersey_experiment_5_v0,2023.2.2,Win32,84.03361345,,,,,,,,,,,,,,,,131.713,132.76,132.76,134.113,return,0.0707,,73.56770833,0,35,35,57,1,FBP-PT-19.png,0.4,1.2,58,0.25,,,,,,,,,,,,,,,,,,,,,,,,,,,,,,,,,,,,,,,,,,,,,
,,,,,SPR24_081,21,female,2024-04-23_14h34.47.450,jersey_experiment_5_v0,2023.2.2,Win32,84.03361345,,,,,,,,,,,,,,,,134.1133,135.1602,135.1603,135.8425,return,0.1552,,73.56770833,0,36,36,25,1,FBP-YG-19.png,0.35,1.2,26,0.25,,,,,,,,,,,,,,,,,,,,,,,,,,,,,,,,,,,,,,,,,,,,,
,,,,,SPR24_081,21,female,2024-04-23_14h34.47.450,jersey_experiment_5_v0,2023.2.2,Win32,84.03361345,,,,,,,,,,,,,,,,135.8426,137.1366,137.1367,137.7719,return,0.1802,,73.56770833,0,37,37,35,1,FBP-RB-18.png,0.35,1.2,36,0.5,,,,,,,,,,,,,,,,,,,,,,,,,,,,,,,,,,,,,,,,,,,,,
,,,,,SPR24_081,21,female,2024-04-23_14h34.47.450,jersey_experiment_5_v0,2023.2.2,Win32,84.03361345,,,,,,,,,,,,,,,,137.7722,139.0661,139.0661,139.772,return,0.1428,,73.56770833,0,38,38,2,1,FBP-OG-71.png,0.4,1.2,3,0.5,,,,,,,,,,,,,,,,,,,,,,,,,,,,,,,,,,,,,,,,,,,,,
,,,,,SPR24_081,21,female,2024-04-23_14h34.47.450,jersey_experiment_5_v0,2023.2.2,Win32,84.03361345,,,,,,,,,,,,,,,,139.7722,140.8189,140.819,142.0073,return,0.0063,,99.73958333,0,39,39,28,1,FBP-YG-19.png,0.43,1.2,29,0.25,,,,,,,,,,,,,,,,,,,,,,,,,,,,,,,,,,,,,,,,,,,,,
,,,,,SPR24_081,21,female,2024-04-23_14h34.47.450,jersey_experiment_5_v0,2023.2.2,Win32,84.03361345,,,,,,,,,,,,,,,,142.0074,143.0545,143.0546,143.6074,return,0.091,,99.34895833,0,40,40,59,1,FBP-PT-19.png,0.45,1.2,60,0.25,,,,,,,,,,,,,,,,,,,,,,,,,,,,,,,,,,,,,,,,,,,,,
,,,,,SPR24_081,21,female,2024-04-23_14h34.47.450,jersey_experiment_5_v0,2023.2.2,Win32,84.03361345,,,,,,,,,,,,,,,,143.6076,144.6546,144.6546,147.1135,return,0.4749,,50.390625,0,41,41,51,1,FBP-PT-18.png,0.37,1.2,52,0.25,,,,,,,,,,,,,,,,,,,,,,,,,,,,,,,,,,,,,,,,,,,,,
,,,,,SPR24_081,21,female,2024-04-23_14h34.47.450,jersey_experiment_5_v0,2023.2.2,Win32,84.03361345,,,,,,,,,,,,,,,,147.1137,148.4077,148.4077,149.8195,return,0.2282,,24.21875,0,42,42,40,1,FBP-RB-19.png,0.35,1.2,41,0.5,,,,,,,,,,,,,,,,,,,,,,,,,,,,,,,,,,,,,,,,,,,,,
,,,,,SPR24_081,21,female,2024-04-23_14h34.47.450,jersey_experiment_5_v0,2023.2.2,Win32,84.03361345,,,,,,,,,,,,,,,,149.8197,151.1137,151.1138,152.9608,return,0.1177,,74.08854167,0,43,43,8,1,FBP-OG-81.png,0.43,1.2,9,0.5,,,,,,,,,,,,,,,,,,,,,,,,,,,,,,,,,,,,,,,,,,,,,
,,,,,SPR24_081,21,female,2024-04-23_14h34.47.450,jersey_experiment_5_v0,2023.2.2,Win32,84.03361345,,,,,,,,,,,,,,,,152.9611,154.2548,154.2548,154.8785,return,0.1554,,74.08854167,0,44,44,31,1,FBP-RB-17.png,0.37,1.2,32,0.5,,,,,,,,,,,,,,,,,,,,,,,,,,,,,,,,,,,,,,,,,,,,,
,,,,,SPR24_081,21,female,2024-04-23_14h34.47.450,jersey_experiment_5_v0,2023.2.2,Win32,84.03361345,,,,,,,,,,,,,,,,154.8787,156.1727,156.1727,157.3372,return,0.2184,,99.609375,0,45,45,34,1,FBP-RB-17.png,0.45,1.2,35,0.5,,,,,,,,,,,,,,,,,,,,,,,,,,,,,,,,,,,,,,,,,,,,,
,,,,,SPR24_081,21,female,2024-04-23_14h34.47.450,jersey_experiment_5_v0,2023.2.2,Win32,84.03361345,,,,,,,,,,,,,,,,157.3374,158.6315,158.6315,159.2786,return,0.1541,,99.609375,0,46,46,37,1,FBP-RB-18.png,0.4,1.2,38,0.5,,,,,,,,,,,,,,,,,,,,,,,,,,,,,,,,,,,,,,,,,,,,,
,,,,,SPR24_081,21,female,2024-04-23_14h34.47.450,jersey_experiment_5_v0,2023.2.2,Win32,84.03361345,,,,,,,,,,,,,,,,159.2788,160.3256,160.3257,161.3845,return,0.1486,,99.609375,0,47,47,27,1,FBP-YG-19.png,0.4,1.2,28,0.25,,,,,,,,,,,,,,,,,,,,,,,,,,,,,,,,,,,,,,,,,,,,,
,,,,,SPR24_081,21,female,2024-04-23_14h34.47.450,jersey_experiment_5_v0,2023.2.2,Win32,84.03361345,,,,,,,,,,,,,,,,161.3848,162.4317,162.4317,163.0318,return,0.1503,,99.609375,0,48,48,54,1,FBP-PT-18.png,0.45,1.2,55,0.25,,,,,,,,,,,,,,,,,,,,,,,,,,,,,,,,,,,,,,,,,,,,,
,,,,,SPR24_081,21,female,2024-04-23_14h34.47.450,jersey_experiment_5_v0,2023.2.2,Win32,84.03361345,,,,,,,,,,,,,,,,163.032,164.3259,164.3259,166.0789,return,0.0849,,25,0,49,49,5,1,FBP-OG-81.png,0.35,1.2,6,0.5,,,,,,,,,,,,,,,,,,,,,,,,,,,,,,,,,,,,,,,,,,,,,
,,,,,SPR24_081,21,female,2024-04-23_14h34.47.450,jersey_experiment_5_v0,2023.2.2,Win32,84.03361345,,,,,,,,,,,,,,,,166.0791,167.373,167.373,167.9614,return,0.1455,,25.78125,0,50,50,0,1,FBP-OG-71.png,0.35,1.2,1,0.5,,,,,,,,,,,,,,,,,,,,,,,,,,,,,,,,,,,,,,,,,,,,,
,,,,,SPR24_081,21,female,2024-04-23_14h34.47.450,jersey_experiment_5_v0,2023.2.2,Win32,84.03361345,,,,,,,,,,,,,,,,167.9616,169.2556,169.2556,170.3144,return,0.0646,,49.86979167,0,51,51,7,1,FBP-OG-81.png,0.4,1.2,8,0.5,,,,,,,,,,,,,,,,,,,,,,,,,,,,,,,,,,,,,,,,,,,,,
,,,,,SPR24_081,21,female,2024-04-23_14h34.47.450,jersey_experiment_5_v0,2023.2.2,Win32,84.03361345,,,,,,,,,,,,,,,,170.3146,171.3612,171.3613,172.0319,return,0.165,,49.86979167,0,52,52,55,1,FBP-PT-19.png,0.35,1.2,56,0.25,,,,,,,,,,,,,,,,,,,,,,,,,,,,,,,,,,,,,,,,,,,,,
,,,,,SPR24_081,21,female,2024-04-23_14h34.47.450,jersey_experiment_5_v0,2023.2.2,Win32,84.03361345,,,,,,,,,,,,,,,,172.0322,173.3263,173.3264,174.1381,return,0.0622,,72.65625,0,53,53,42,1,FBP-RB-19.png,0.4,1.2,43,0.5,,,,,,,,,,,,,,,,,,,,,,,,,,,,,,,,,,,,,,,,,,,,,
,,,,,SPR24_081,21,female,2024-04-23_14h34.47.450,jersey_experiment_5_v0,2023.2.2,Win32,84.03361345,,,,,,,,,,,,,,,,174.1382,175.4322,175.4322,177.3733,return,0.2118,,98.828125,0,54,54,39,1,FBP-RB-18.png,0.45,1.2,40,0.5,,,,,,,,,,,,,,,,,,,,,,,,,,,,,,,,,,,,,,,,,,,,,
,,,,,SPR24_081,21,female,2024-04-23_14h34.47.450,jersey_experiment_5_v0,2023.2.2,Win32,84.03361345,,,,,,,,,,,,,,,,177.3736,178.4203,178.4204,179.2087,return,0.2868,,98.828125,0,55,55,58,1,FBP-PT-19.png,0.43,1.2,59,0.25,,,,,,,,,,,,,,,,,,,,,,,,,,,,,,,,,,,,,,,,,,,,,
,,,,,SPR24_081,21,female,2024-04-23_14h34.47.450,jersey_experiment_5_v0,2023.2.2,Win32,84.03361345,,,,,,,,,,,,,,,,179.2089,180.2558,180.2558,181.7264,return,0.0375,,50.78125,0,56,56,16,1,FBP-YG-17.png,0.37,1.2,17,0.25,,,,,,,,,,,,,,,,,,,,,,,,,,,,,,,,,,,,,,,,,,,,,
,,,,,SPR24_081,21,female,2024-04-23_14h34.47.450,jersey_experiment_5_v0,2023.2.2,Win32,84.03361345,,,,,,,,,,,,,,,,181.7267,183.0208,183.0208,184.0089,return,0.0425,,97.91666667,0,57,57,9,1,FBP-OG-81.png,0.45,1.2,10,0.5,,,,,,,,,,,,,,,,,,,,,,,,,,,,,,,,,,,,,,,,,,,,,
,,,,,SPR24_081,21,female,2024-04-23_14h34.47.450,jersey_experiment_5_v0,2023.2.2,Win32,84.03361345,,,,,,,,,,,,,,,,184.0091,185.0559,185.0559,186.4913,return,0.0752,,50,0,58,58,45,1,FBP-PT-17.png,0.35,1.2,46,0.25,,,,,,,,,,,,,,,,,,,,,,,,,,,,,,,,,,,,,,,,,,,,,
,,,,,SPR24_081,21,female,2024-04-23_14h34.47.450,jersey_experiment_5_v0,2023.2.2,Win32,84.03361345,,,,,,,,,,,,,,,,186.4916,187.7855,187.7855,188.5736,return,0.0138,,73.56770833,0,59,59,13,1,FBP-OG-91.png,0.43,1.2,14,0.5,,,,,,,,,,,,,,,,,,,,,,,,,,,,,,,,,,,,,,,,,,,,,
,,,,,SPR24_081,21,female,2024-04-23_14h34.47.450,jersey_experiment_5_v0,2023.2.2,Win32,84.03361345,,,,,,,,,,,,,,,,188.5752,189.6209,189.6209,191.1857,return,0.0938,,50,,,,,,FBP-YG-91.png,0.37,1.2,27,0.25,0,0,0,26,1,,,,,,,,,,,,,,,,,,,,,,,,,,,,,,,,,,,,,,,,
,,,,,SPR24_081,21,female,2024-04-23_14h34.47.450,jersey_experiment_5_v0,2023.2.2,Win32,84.03361345,,,,,,,,,,,,,,,,191.186,192.2326,192.2326,193.962,return,0.1587,,73.56770833,,,,,,FBP-YG-71.png,0.4,1.2,18,0.25,0,1,1,17,1,,,,,,,,,,,,,,,,,,,,,,,,,,,,,,,,,,,,,,,,
,,,,,SPR24_081,21,female,2024-04-23_14h34.47.450,jersey_experiment_5_v0,2023.2.2,Win32,84.03361345,,,,,,,,,,,,,,,,193.9623,195.2565,195.2565,196.527,return,0.1556,,96.875,,,,,,FBP-RB-71.png,0.43,1.2,34,0.5,0,2,2,33,1,,,,,,,,,,,,,,,,,,,,,,,,,,,,,,,,,,,,,,,,
,,,,,SPR24_081,21,female,2024-04-23_14h34.47.450,jersey_experiment_5_v0,2023.2.2,Win32,84.03361345,,,,,,,,,,,,,,,,196.5273,197.8212,197.8212,199.3388,return,0.0143,,50.13020833,,,,,,FBP-RB-71.png,0.35,1.2,31,0.5,0,3,3,30,1,,,,,,,,,,,,,,,,,,,,,,,,,,,,,,,,,,,,,,,,
,,,,,SPR24_081,21,female,2024-04-23_14h34.47.450,jersey_experiment_5_v0,2023.2.2,Win32,84.03361345,,,,,,,,,,,,,,,,199.339,200.6331,200.6332,201.4564,return,0.0235,,74.21875,,,,,,FBP-RB-81.png,0.4,1.2,38,0.5,0,4,4,37,1,,,,,,,,,,,,,,,,,,,,,,,,,,,,,,,,,,,,,,,,
,,,,,SPR24_081,21,female,2024-04-23_14h34.47.450,jersey_experiment_5_v0,2023.2.2,Win32,84.03361345,,,,,,,,,,,,,,,,201.4566,202.5037,202.5037,204.3155,return,0.1811,,24.86979167,,,,,,FBP-PT-91.png,0.37,1.2,57,0.25,0,5,5,56,1,,,,,,,,,,,,,,,,,,,,,,,,,,,,,,,,,,,,,,,,
,,,,,SPR24_081,21,female,2024-04-23_14h34.47.450,jersey_experiment_5_v0,2023.2.2,Win32,84.03361345,,,,,,,,,,,,,,,,204.3156,205.6098,205.6098,206.9272,return,0.1791,,98.69791667,,,,,,FBP-RB-71.png,0.45,1.2,35,0.5,0,6,6,34,1,,,,,,,,,,,,,,,,,,,,,,,,,,,,,,,,,,,,,,,,
,,,,,SPR24_081,21,female,2024-04-23_14h34.47.450,jersey_experiment_5_v0,2023.2.2,Win32,84.03361345,,,,,,,,,,,,,,,,206.9275,208.2215,208.2216,209.5275,return,0.1491,,24.08854167,,,,,,FBP-OG-19.png,0.35,1.2,11,0.5,0,7,7,10,1,,,,,,,,,,,,,,,,,,,,,,,,,,,,,,,,,,,,,,,,
,,,,,SPR24_081,21,female,2024-04-23_14h34.47.450,jersey_experiment_5_v0,2023.2.2,Win32,84.03361345,,,,,,,,,,,,,,,,209.5276,210.5744,210.5744,211.6569,return,0.1129,,73.56770833,,,,,,FBP-PT-91.png,0.4,1.2,58,0.25,0,8,8,57,1,,,,,,,,,,,,,,,,,,,,,,,,,,,,,,,,,,,,,,,,
,,,,,SPR24_081,21,female,2024-04-23_14h34.47.450,jersey_experiment_5_v0,2023.2.2,Win32,84.03361345,,,,,,,,,,,,,,,,211.6571,212.704,212.704,213.9864,return,0.1315,,98.56770833,,,,,,FBP-YG-91.png,0.45,1.2,30,0.25,0,9,9,29,1,,,,,,,,,,,,,,,,,,,,,,,,,,,,,,,,,,,,,,,,
,,,,,SPR24_081,21,female,2024-04-23_14h34.47.450,jersey_experiment_5_v0,2023.2.2,Win32,84.03361345,,,,,,,,,,,,,,,,213.9867,215.2805,215.2806,216.2217,return,0.1083,,76.43229167,,,,,,FBP-OG-19.png,0.43,1.2,14,0.5,0,10,10,13,1,,,,,,,,,,,,,,,,,,,,,,,,,,,,,,,,,,,,,,,,
,,,,,SPR24_081,21,female,2024-04-23_14h34.47.450,jersey_experiment_5_v0,2023.2.2,Win32,84.03361345,,,,,,,,,,,,,,,,216.2221,217.2689,217.2689,218.7042,return,0.1881,,98.56770833,,,,,,FBP-PT-81.png,0.45,1.2,55,0.25,0,11,11,54,1,,,,,,,,,,,,,,,,,,,,,,,,,,,,,,,,,,,,,,,,
,,,,,SPR24_081,21,female,2024-04-23_14h34.47.450,jersey_experiment_5_v0,2023.2.2,Win32,84.03361345,,,,,,,,,,,,,,,,218.7044,219.9983,219.9983,220.5042,return,0.0994,,98.56770833,,,,,,FBP-OG-17.png,0.43,1.2,4,0.5,0,12,12,3,1,,,,,,,,,,,,,,,,,,,,,,,,,,,,,,,,,,,,,,,,
,,,,,SPR24_081,21,female,2024-04-23_14h34.47.450,jersey_experiment_5_v0,2023.2.2,Win32,84.03361345,,,,,,,,,,,,,,,,220.5044,221.7986,221.7986,222.3514,return,0.1275,,98.56770833,,,,,,FBP-RB-71.png,0.4,1.2,33,0.5,0,13,13,32,1,,,,,,,,,,,,,,,,,,,,,,,,,,,,,,,,,,,,,,,,
,,,,,SPR24_081,21,female,2024-04-23_14h34.47.450,jersey_experiment_5_v0,2023.2.2,Win32,84.03361345,,,,,,,,,,,,,,,,222.3515,223.6457,223.6457,225.0103,return,0.1648,,1.171875,,,,,,FBP-OG-17.png,0.35,1.2,1,0.5,0,14,14,0,1,,,,,,,,,,,,,,,,,,,,,,,,,,,,,,,,,,,,,,,,
,,,,,SPR24_081,21,female,2024-04-23_14h34.47.450,jersey_experiment_5_v0,2023.2.2,Win32,84.03361345,,,,,,,,,,,,,,,,225.0105,226.0575,226.0576,227.5516,return,0.1414,,98.828125,,,,,,FBP-YG-81.png,0.45,1.2,25,0.25,0,15,15,24,1,,,,,,,,,,,,,,,,,,,,,,,,,,,,,,,,,,,,,,,,
,,,,,SPR24_081,21,female,2024-04-23_14h34.47.450,jersey_experiment_5_v0,2023.2.2,Win32,84.03361345,,,,,,,,,,,,,,,,227.5518,228.8458,228.8458,229.9517,return,0.0568,,50.26041667,,,,,,FBP-OG-18.png,0.37,1.2,7,0.5,0,16,16,6,1,,,,,,,,,,,,,,,,,,,,,,,,,,,,,,,,,,,,,,,,
,,,,,SPR24_081,21,female,2024-04-23_14h34.47.450,jersey_experiment_5_v0,2023.2.2,Win32,84.03361345,,,,,,,,,,,,,,,,229.9518,230.9988,230.9988,232.0811,return,0.1553,,74.21875,,,,,,FBP-PT-81.png,0.4,1.2,53,0.25,0,17,17,52,1,,,,,,,,,,,,,,,,,,,,,,,,,,,,,,,,,,,,,,,,
,,,,,SPR24_081,21,female,2024-04-23_14h34.47.450,jersey_experiment_5_v0,2023.2.2,Win32,84.03361345,,,,,,,,,,,,,,,,232.0813,233.3753,233.3754,234.5754,return,0.1321,,98.17708333,,,,,,FBP-OG-17.png,0.45,1.2,5,0.5,0,18,18,4,1,,,,,,,,,,,,,,,,,,,,,,,,,,,,,,,,,,,,,,,,
,,,,,SPR24_081,21,female,2024-04-23_14h34.47.450,jersey_experiment_5_v0,2023.2.2,Win32,84.03361345,,,,,,,,,,,,,,,,234.5756,235.8697,235.8697,237.0576,return,0.0803,,49.34895833,,,,,,FBP-OG-19.png,0.37,1.2,12,0.5,0,19,19,11,1,,,,,,,,,,,,,,,,,,,,,,,,,,,,,,,,,,,,,,,,
,,,,,SPR24_081,21,female,2024-04-23_14h34.47.450,jersey_experiment_5_v0,2023.2.2,Win32,84.03361345,,,,,,,,,,,,,,,,237.0579,238.352,238.3521,240.0343,return,0.1792,,50.91145833,,,,,,FBP-RB-91.png,0.4,1.2,43,0.5,0,20,20,42,1,,,,,,,,,,,,,,,,,,,,,,,,,,,,,,,,,,,,,,,,
,,,,,SPR24_081,21,female,2024-04-23_14h34.47.450,jersey_experiment_5_v0,2023.2.2,Win32,84.03361345,,,,,,,,,,,,,,,,240.0345,241.0815,241.0815,242.6344,return,0.2266,,99.73958333,,,,,,FBP-YG-71.png,0.45,1.2,20,0.25,0,21,21,19,1,,,,,,,,,,,,,,,,,,,,,,,,,,,,,,,,,,,,,,,,
,,,,,SPR24_081,21,female,2024-04-23_14h34.47.450,jersey_experiment_5_v0,2023.2.2,Win32,84.03361345,,,,,,,,,,,,,,,,242.6347,243.6816,243.6816,245.8229,return,0.1177,,50,,,,,,FBP-YG-91.png,0.35,1.2,26,0.25,0,22,22,25,1,,,,,,,,,,,,,,,,,,,,,,,,,,,,,,,,,,,,,,,,
,,,,,SPR24_081,21,female,2024-04-23_14h34.47.450,jersey_experiment_5_v0,2023.2.2,Win32,84.03361345,,,,,,,,,,,,,,,,245.823,247.1171,247.1171,247.9525,return,0.0559,,74.86979167,,,,,,FBP-RB-91.png,0.43,1.2,44,0.5,0,23,23,43,1,,,,,,,,,,,,,,,,,,,,,,,,,,,,,,,,,,,,,,,,
,,,,,SPR24_081,21,female,2024-04-23_14h34.47.450,jersey_experiment_5_v0,2023.2.2,Win32,84.03361345,,,,,,,,,,,,,,,,247.953,249.2465,249.2465,249.7876,return,0.0276,,74.86979167,,,,,,FBP-OG-18.png,0.43,1.2,9,0.5,0,24,24,8,1,,,,,,,,,,,,,,,,,,,,,,,,,,,,,,,,,,,,,,,,
,,,,,SPR24_081,21,female,2024-04-23_14h34.47.450,jersey_experiment_5_v0,2023.2.2,Win32,84.03361345,,,,,,,,,,,,,,,,249.7878,251.0818,251.0818,251.7759,return,0.1646,,74.86979167,,,,,,FBP-RB-91.png,0.45,1.2,45,0.5,0,25,25,44,1,,,,,,,,,,,,,,,,,,,,,,,,,,,,,,,,,,,,,,,,
,,,,,SPR24_081,21,female,2024-04-23_14h34.47.450,jersey_experiment_5_v0,2023.2.2,Win32,84.03361345,,,,,,,,,,,,,,,,251.7762,253.0701,253.0702,254.4585,return,0.2619,,98.30729167,,,,,,FBP-RB-81.png,0.43,1.2,39,0.5,0,26,26,38,1,,,,,,,,,,,,,,,,,,,,,,,,,,,,,,,,,,,,,,,,
,,,,,SPR24_081,21,female,2024-04-23_14h34.47.450,jersey_experiment_5_v0,2023.2.2,Win32,84.03361345,,,,,,,,,,,,,,,,254.4587,255.5054,255.5054,257.7527,return,0.1461,,0.651041667,,,,,,FBP-PT-91.png,0.35,1.2,56,0.25,0,27,27,55,1,,,,,,,,,,,,,,,,,,,,,,,,,,,,,,,,,,,,,,,,
,,,,,SPR24_081,21,female,2024-04-23_14h34.47.450,jersey_experiment_5_v0,2023.2.2,Win32,84.03361345,,,,,,,,,,,,,,,,257.7529,259.0473,259.0474,260.3056,return,0.1278,,25,,,,,,FBP-RB-91.png,0.37,1.2,42,0.5,0,28,28,41,1,,,,,,,,,,,,,,,,,,,,,,,,,,,,,,,,,,,,,,,,
,,,,,SPR24_081,21,female,2024-04-23_14h34.47.450,jersey_experiment_5_v0,2023.2.2,Win32,84.03361345,,,,,,,,,,,,,,,,260.3058,261.6,261.6,262.8941,return,0.0818,,74.86979167,,,,,,FBP-OG-18.png,0.45,1.2,10,0.5,0,29,29,9,1,,,,,,,,,,,,,,,,,,,,,,,,,,,,,,,,,,,,,,,,
,,,,,SPR24_081,21,female,2024-04-23_14h34.47.450,jersey_experiment_5_v0,2023.2.2,Win32,84.03361345,,,,,,,,,,,,,,,,262.8943,264.1882,264.1882,265.6943,return,0.1289,,97.52604167,,,,,,FBP-OG-19.png,0.45,1.2,15,0.5,0,30,30,14,1,,,,,,,,,,,,,,,,,,,,,,,,,,,,,,,,,,,,,,,,
,,,,,SPR24_081,21,female,2024-04-23_14h34.47.450,jersey_experiment_5_v0,2023.2.2,Win32,84.03361345,,,,,,,,,,,,,,,,265.6944,266.7412,266.7412,267.3765,return,0.1555,,96.22395833,,,,,,FBP-PT-81.png,0.43,1.2,54,0.25,0,31,31,53,1,,,,,,,,,,,,,,,,,,,,,,,,,,,,,,,,,,,,,,,,
,,,,,SPR24_081,21,female,2024-04-23_14h34.47.450,jersey_experiment_5_v0,2023.2.2,Win32,84.03361345,,,,,,,,,,,,,,,,267.3767,268.4235,268.4236,269.612,return,0.2137,,73.69791667,,,,,,FBP-YG-71.png,0.37,1.2,17,0.25,0,32,32,16,1,,,,,,,,,,,,,,,,,,,,,,,,,,,,,,,,,,,,,,,,
,,,,,SPR24_081,21,female,2024-04-23_14h34.47.450,jersey_experiment_5_v0,2023.2.2,Win32,84.03361345,,,,,,,,,,,,,,,,269.6122,270.9061,270.9062,271.3883,return,0.1213,,73.69791667,,,,,,FBP-RB-81.png,0.37,1.2,37,0.5,0,33,33,36,1,,,,,,,,,,,,,,,,,,,,,,,,,,,,,,,,,,,,,,,,
,,,,,SPR24_081,21,female,2024-04-23_14h34.47.450,jersey_experiment_5_v0,2023.2.2,Win32,84.03361345,,,,,,,,,,,,,,,,271.3885,272.6826,272.6827,273.9532,return,0.1268,,25.65104167,,,,,,FBP-OG-18.png,0.35,1.2,6,0.5,0,34,34,5,1,,,,,,,,,,,,,,,,,,,,,,,,,,,,,,,,,,,,,,,,
,,,,,SPR24_081,21,female,2024-04-23_14h34.47.450,jersey_experiment_5_v0,2023.2.2,Win32,84.03361345,,,,,,,,,,,,,,,,273.9533,275.0003,275.0004,276.4474,return,0.1885,,98.046875,,,,,,FBP-PT-71.png,0.45,1.2,50,0.25,0,35,35,49,1,,,,,,,,,,,,,,,,,,,,,,,,,,,,,,,,,,,,,,,,
,,,,,SPR24_081,21,female,2024-04-23_14h34.47.450,jersey_experiment_5_v0,2023.2.2,Win32,84.03361345,,,,,,,,,,,,,,,,276.4476,277.7415,277.7415,279.8476,return,0.076,,24.73958333,,,,,,FBP-RB-81.png,0.35,1.2,36,0.5,0,36,36,35,1,,,,,,,,,,,,,,,,,,,,,,,,,,,,,,,,,,,,,,,,
,,,,,SPR24_081,21,female,2024-04-23_14h34.47.450,jersey_experiment_5_v0,2023.2.2,Win32,84.03361345,,,,,,,,,,,,,,,,279.8478,280.8946,280.8947,282.2947,return,0.1945,,27.21354167,,,,,,FBP-YG-81.png,0.35,1.2,21,0.25,0,37,37,20,1,,,,,,,,,,,,,,,,,,,,,,,,,,,,,,,,,,,,,,,,
,,,,,SPR24_081,21,female,2024-04-23_14h34.47.450,jersey_experiment_5_v0,2023.2.2,Win32,84.03361345,,,,,,,,,,,,,,,,282.2949,283.589,283.5891,284.9301,return,0.2259,,49.21875,,,,,,FBP-OG-17.png,0.37,1.2,2,0.5,0,38,38,1,1,,,,,,,,,,,,,,,,,,,,,,,,,,,,,,,,,,,,,,,,
,,,,,SPR24_081,21,female,2024-04-23_14h34.47.450,jersey_experiment_5_v0,2023.2.2,Win32,84.03361345,,,,,,,,,,,,,,,,284.9304,286.2243,286.2243,287.6125,return,0.1795,,97.52604167,,,,,,FBP-RB-81.png,0.45,1.2,40,0.5,0,39,39,39,1,,,,,,,,,,,,,,,,,,,,,,,,,,,,,,,,,,,,,,,,
,,,,,SPR24_081,21,female,2024-04-23_14h34.47.450,jersey_experiment_5_v0,2023.2.2,Win32,84.03361345,,,,,,,,,,,,,,,,287.6127,288.6595,288.6595,289.801,return,0.122,,73.30729167,,,,,,FBP-YG-81.png,0.37,1.2,22,0.25,0,40,40,21,1,,,,,,,,,,,,,,,,,,,,,,,,,,,,,,,,,,,,,,,,
,,,,,SPR24_081,21,female,2024-04-23_14h34.47.450,jersey_experiment_5_v0,2023.2.2,Win32,84.03361345,,,,,,,,,,,,,,,,289.8012,290.8479,290.8479,292.2245,return,0.0941,,98.17708333,,,,,,FBP-PT-91.png,0.43,1.2,59,0.25,0,41,41,58,1,,,,,,,,,,,,,,,,,,,,,,,,,,,,,,,,,,,,,,,,
,,,,,SPR24_081,21,female,2024-04-23_14h34.47.450,jersey_experiment_5_v0,2023.2.2,Win32,84.03361345,,,,,,,,,,,,,,,,292.2247,293.5187,293.5187,294.4951,return,0.0096,,75.65104167,,,,,,FBP-OG-18.png,0.4,1.2,8,0.5,0,42,42,7,1,,,,,,,,,,,,,,,,,,,,,,,,,,,,,,,,,,,,,,,,
,,,,,SPR24_081,21,female,2024-04-23_14h34.47.450,jersey_experiment_5_v0,2023.2.2,Win32,84.03361345,,,,,,,,,,,,,,,,294.4953,295.5421,295.5422,296.8717,return,0.1254,,99.08854167,,,,,,FBP-PT-91.png,0.45,1.2,60,0.25,0,43,43,59,1,,,,,,,,,,,,,,,,,,,,,,,,,,,,,,,,,,,,,,,,
,,,,,SPR24_081,21,female,2024-04-23_14h34.47.450,jersey_experiment_5_v0,2023.2.2,Win32,84.03361345,,,,,,,,,,,,,,,,296.8719,297.9187,297.9188,299.613,return,0.0239,,24.86979167,,,,,,FBP-PT-71.png,0.37,1.2,47,0.25,0,44,44,46,1,,,,,,,,,,,,,,,,,,,,,,,,,,,,,,,,,,,,,,,,
,,,,,SPR24_081,21,female,2024-04-23_14h34.47.450,jersey_experiment_5_v0,2023.2.2,Win32,84.03361345,,,,,,,,,,,,,,,,299.6131,300.6601,300.6601,301.7542,return,0.0739,,74.21875,,,,,,FBP-YG-81.png,0.43,1.2,24,0.25,0,45,45,23,1,,,,,,,,,,,,,,,,,,,,,,,,,,,,,,,,,,,,,,,,
,,,,,SPR24_081,21,female,2024-04-23_14h34.47.450,jersey_experiment_5_v0,2023.2.2,Win32,84.03361345,,,,,,,,,,,,,,,,301.7543,302.8013,302.8013,304.6955,return,0.2174,,86.84895833,,,,,,FBP-YG-71.png,0.43,1.2,19,0.25,0,46,46,18,1,,,,,,,,,,,,,,,,,,,,,,,,,,,,,,,,,,,,,,,,
,,,,,SPR24_081,21,female,2024-04-23_14h34.47.450,jersey_experiment_5_v0,2023.2.2,Win32,84.03361345,,,,,,,,,,,,,,,,304.6958,305.7426,305.7426,306.6368,return,0.2008,,86.45833333,,,,,,FBP-YG-91.png,0.43,1.2,29,0.25,0,47,47,28,1,,,,,,,,,,,,,,,,,,,,,,,,,,,,,,,,,,,,,,,,
,,,,,SPR24_081,21,female,2024-04-23_14h34.47.450,jersey_experiment_5_v0,2023.2.2,Win32,84.03361345,,,,,,,,,,,,,,,,306.6369,307.6839,307.6841,309.2956,return,0.2119,,23.828125,,,,,,FBP-YG-71.png,0.35,1.2,16,0.25,0,48,48,15,1,,,,,,,,,,,,,,,,,,,,,,,,,,,,,,,,,,,,,,,,
,,,,,SPR24_081,21,female,2024-04-23_14h34.47.450,jersey_experiment_5_v0,2023.2.2,Win32,84.03361345,,,,,,,,,,,,,,,,309.2958,310.5898,310.5899,311.6957,return,0.1984,,27.86458333,,,,,,FBP-OG-17.png,0.4,1.2,3,0.5,0,49,49,2,1,,,,,,,,,,,,,,,,,,,,,,,,,,,,,,,,,,,,,,,,
,,,,,SPR24_081,21,female,2024-04-23_14h34.47.450,jersey_experiment_5_v0,2023.2.2,Win32,84.03361345,,,,,,,,,,,,,,,,311.6959,312.7427,312.7427,314.0958,return,0.4704,,32.8125,,,,,,FBP-YG-81.png,0.4,1.2,23,0.25,0,50,50,22,1,,,,,,,,,,,,,,,,,,,,,,,,,,,,,,,,,,,,,,,,
,,,,,SPR24_081,21,female,2024-04-23_14h34.47.450,jersey_experiment_5_v0,2023.2.2,Win32,84.03361345,,,,,,,,,,,,,,,,314.0959,315.1428,315.1429,317.7196,return,0.2439,,0.911458333,,,,,,FBP-PT-71.png,0.35,1.2,46,0.25,0,51,51,45,1,,,,,,,,,,,,,,,,,,,,,,,,,,,,,,,,,,,,,,,,
,,,,,SPR24_081,21,female,2024-04-23_14h34.47.450,jersey_experiment_5_v0,2023.2.2,Win32,84.03361345,,,,,,,,,,,,,,,,317.7197,318.7666,318.7667,319.5784,return,0.2264,,3.125,,,,,,FBP-PT-81.png,0.37,1.2,52,0.25,0,52,52,51,1,,,,,,,,,,,,,,,,,,,,,,,,,,,,,,,,,,,,,,,,
,,,,,SPR24_081,21,female,2024-04-23_14h34.47.450,jersey_experiment_5_v0,2023.2.2,Win32,84.03361345,,,,,,,,,,,,,,,,319.5786,320.6254,320.6255,321.896,return,0.1231,,23.69791667,,,,,,FBP-YG-91.png,0.4,1.2,28,0.25,0,53,53,27,1,,,,,,,,,,,,,,,,,,,,,,,,,,,,,,,,,,,,,,,,
,,,,,SPR24_081,21,female,2024-04-23_14h34.47.450,jersey_experiment_5_v0,2023.2.2,Win32,84.03361345,,,,,,,,,,,,,,,,321.8962,323.1903,323.1903,324.4491,return,0.1268,,49.73958333,,,,,,FBP-OG-19.png,0.4,1.2,13,0.5,0,54,54,12,1,,,,,,,,,,,,,,,,,,,,,,,,,,,,,,,,,,,,,,,,
,,,,,SPR24_081,21,female,2024-04-23_14h34.47.450,jersey_experiment_5_v0,2023.2.2,Win32,84.03361345,,,,,,,,,,,,,,,,324.4493,325.7433,325.7433,327.1433,return,0.185,,45.05208333,,,,,,FBP-RB-71.png,0.37,1.2,32,0.5,0,55,55,31,1,,,,,,,,,,,,,,,,,,,,,,,,,,,,,,,,,,,,,,,,
,,,,,SPR24_081,21,female,2024-04-23_14h34.47.450,jersey_experiment_5_v0,2023.2.2,Win32,84.03361345,,,,,,,,,,,,,,,,327.1436,328.1904,328.1904,329.3434,return,0.0565,,26.04166667,,,,,,FBP-PT-81.png,0.35,1.2,51,0.25,0,56,56,50,1,,,,,,,,,,,,,,,,,,,,,,,,,,,,,,,,,,,,,,,,
,,,,,SPR24_081,21,female,2024-04-23_14h34.47.450,jersey_experiment_5_v0,2023.2.2,Win32,84.03361345,,,,,,,,,,,,,,,,329.3436,330.3904,330.3905,332.4729,return,0.1812,,62.63020833,,,,,,FBP-PT-71.png,0.4,1.2,48,0.25,0,57,57,47,1,,,,,,,,,,,,,,,,,,,,,,,,,,,,,,,,,,,,,,,,
,,,,,SPR24_081,21,female,2024-04-23_14h34.47.450,jersey_experiment_5_v0,2023.2.2,Win32,84.03361345,,,,,,,,,,,,,,,,332.4732,333.52,333.5201,334.7436,return,0.1142,,73.56770833,,,,,,FBP-PT-71.png,0.43,1.2,49,0.25,0,58,58,48,1,,,,,,,,,,,,,,,,,,,,,,,,,,,,,,,,,,,,,,,,
,,,,,SPR24_081,21,female,2024-04-23_14h34.47.450,jersey_experiment_5_v0,2023.2.2,Win32,84.03361345,,,,,,,,,,,,,,,,334.7438,336.038,336.0381,337.8027,return,0.7556,,25.390625,,,,,,FBP-RB-91.png,0.35,1.2,41,0.5,0,59,59,40,1,,,,,,,,,,,,,,,,,,,,,,,,,,,,,,,,,,,,,,,,
,,,,,SPR24_081,21,female,2024-04-23_14h34.47.450,jersey_experiment_5_v0,2023.2.2,Win32,84.03361345,,,,,,,,,,,,,,,,,,,,,,,,,,,,,,,,,,,,,,,337.803,457.7953,,,,,,,,,,,,,,,,,,,,,,,,,,,,,,,,,,,,,,
,,,,,SPR24_081,21,female,2024-04-23_14h34.47.450,jersey_experiment_5_v0,2023.2.2,Win32,84.03361345,,,,,,,,,,,,,,,,,,,,,,,,,,,,,,,,,,,,,,,,,457.7954,460.8306,return,3.0221,,,,,,,,,,,,,,,,,,,,,,,,,,,,,,,,,,
,,,,,SPR24_081,21,female,2024-04-23_14h34.47.450,jersey_experiment_5_v0,2023.2.2,Win32,84.03361345,,,,,,,,,,,,,,,,460.837,461.8892,461.8892,463.2541,return,0.1362,,48.046875,,,,,,FBP-RB-18.png,0.4,1.2,38,0.25,,,,,,,,,,,,,0,0,0,37,1,,,,,,,,,,,,,,,,,,,,,,,,,,,,
,,,,,SPR24_081,21,female,2024-04-23_14h34.47.450,jersey_experiment_5_v0,2023.2.2,Win32,84.03361345,,,,,,,,,,,,,,,,463.2543,464.3012,464.3012,465.313,return,0.1322,,73.17708333,,,,,,FBP-OG-81.png,0.43,1.2,9,0.25,,,,,,,,,,,,,0,1,1,8,1,,,,,,,,,,,,,,,,,,,,,,,,,,,,
,,,,,SPR24_081,21,female,2024-04-23_14h34.47.450,jersey_experiment_5_v0,2023.2.2,Win32,84.03361345,,,,,,,,,,,,,,,,465.3132,466.3599,466.3599,468.0305,return,0.4336,,25.52083333,,,,,,FBP-OG-81.png,0.35,1.2,6,0.25,,,,,,,,,,,,,0,2,2,5,1,,,,,,,,,,,,,,,,,,,,,,,,,,,,
,,,,,SPR24_081,21,female,2024-04-23_14h34.47.450,jersey_experiment_5_v0,2023.2.2,Win32,84.03361345,,,,,,,,,,,,,,,,468.0307,469.0778,469.0778,470.8427,return,0.4638,,75.91145833,,,,,,FBP-OG-71.png,0.45,1.2,5,0.25,,,,,,,,,,,,,0,3,3,4,1,,,,,,,,,,,,,,,,,,,,,,,,,,,,
,,,,,SPR24_081,21,female,2024-04-23_14h34.47.450,jersey_experiment_5_v0,2023.2.2,Win32,84.03361345,,,,,,,,,,,,,,,,470.8428,471.8896,471.8897,474.2191,return,0.3197,,24.47916667,,,,,,FBP-OG-71.png,0.37,1.2,2,0.25,,,,,,,,,,,,,0,4,4,1,1,,,,,,,,,,,,,,,,,,,,,,,,,,,,
,,,,,SPR24_081,21,female,2024-04-23_14h34.47.450,jersey_experiment_5_v0,2023.2.2,Win32,84.03361345,,,,,,,,,,,,,,,,474.2194,475.2663,475.2663,478.0544,return,0.7616,,50.26041667,,,,,,FBP-RB-17.png,0.4,1.2,33,0.25,,,,,,,,,,,,,0,5,5,32,1,,,,,,,,,,,,,,,,,,,,,,,,,,,,
,,,,,SPR24_081,21,female,2024-04-23_14h34.47.450,jersey_experiment_5_v0,2023.2.2,Win32,84.03361345,,,,,,,,,,,,,,,,478.0547,479.3487,479.3487,480.5135,return,0.131,,51.171875,,,,,,FBP-YG-17.png,0.37,1.2,17,0.5,,,,,,,,,,,,,0,6,6,16,1,,,,,,,,,,,,,,,,,,,,,,,,,,,,
,,,,,SPR24_081,21,female,2024-04-23_14h34.47.450,jersey_experiment_5_v0,2023.2.2,Win32,84.03361345,,,,,,,,,,,,,,,,480.5137,481.5606,481.5606,482.8312,return,0.0562,,72.65625,,,,,,FBP-OG-71.png,0.43,1.2,4,0.25,,,,,,,,,,,,,0,7,7,3,1,,,,,,,,,,,,,,,,,,,,,,,,,,,,
,,,,,SPR24_081,21,female,2024-04-23_14h34.47.450,jersey_experiment_5_v0,2023.2.2,Win32,84.03361345,,,,,,,,,,,,,,,,482.8316,484.1254,484.1254,486.8549,return,1.6557,,24.47916667,,,,,,FBP-PT-17.png,0.35,1.2,46,0.5,,,,,,,,,,,,,0,8,8,45,1,,,,,,,,,,,,,,,,,,,,,,,,,,,,
,,,,,SPR24_081,21,female,2024-04-23_14h34.47.450,jersey_experiment_5_v0,2023.2.2,Win32,84.03361345,,,,,,,,,,,,,,,,486.855,487.9019,487.902,489.9022,return,0.0236,,78.77604167,,,,,,FBP-RB-18.png,0.43,1.2,39,0.25,,,,,,,,,,,,,0,9,9,38,1,,,,,,,,,,,,,,,,,,,,,,,,,,,,
,,,,,SPR24_081,21,female,2024-04-23_14h34.47.450,jersey_experiment_5_v0,2023.2.2,Win32,84.03361345,,,,,,,,,,,,,,,,489.9023,490.949,490.9491,492.1726,return,0.0499,,23.69791667,,,,,,FBP-OG-91.png,0.37,1.2,12,0.25,,,,,,,,,,,,,0,10,10,11,1,,,,,,,,,,,,,,,,,,,,,,,,,,,,
,,,,,SPR24_081,21,female,2024-04-23_14h34.47.450,jersey_experiment_5_v0,2023.2.2,Win32,84.03361345,,,,,,,,,,,,,,,,492.1729,493.2197,493.2197,494.7494,return,0.3064,,94.921875,,,,,,FBP-RB-17.png,0.43,1.2,34,0.25,,,,,,,,,,,,,0,11,11,33,1,,,,,,,,,,,,,,,,,,,,,,,,,,,,
,,,,,SPR24_081,21,female,2024-04-23_14h34.47.450,jersey_experiment_5_v0,2023.2.2,Win32,84.03361345,,,,,,,,,,,,,,,,494.7496,495.7962,495.7962,496.8786,return,0.1184,,79.55729167,,,,,,FBP-RB-19.png,0.4,1.2,43,0.25,,,,,,,,,,,,,0,12,12,42,1,,,,,,,,,,,,,,,,,,,,,,,,,,,,
,,,,,SPR24_081,21,female,2024-04-23_14h34.47.450,jersey_experiment_5_v0,2023.2.2,Win32,84.03361345,,,,,,,,,,,,,,,,496.8789,497.9259,497.9259,499.1612,return,0.0532,,98.17708333,,,,,,FBP-RB-19.png,0.45,1.2,45,0.25,,,,,,,,,,,,,0,13,13,44,1,,,,,,,,,,,,,,,,,,,,,,,,,,,,
,,,,,SPR24_081,21,female,2024-04-23_14h34.47.450,jersey_experiment_5_v0,2023.2.2,Win32,84.03361345,,,,,,,,,,,,,,,,499.1614,500.4554,500.4554,501.8671,return,0.3569,,23.56770833,,,,,,FBP-YG-18.png,0.37,1.2,22,0.5,,,,,,,,,,,,,0,14,14,21,1,,,,,,,,,,,,,,,,,,,,,,,,,,,,
,,,,,SPR24_081,21,female,2024-04-23_14h34.47.450,jersey_experiment_5_v0,2023.2.2,Win32,84.03361345,,,,,,,,,,,,,,,,501.8673,503.1613,503.1613,504.3025,return,0.094,,96.22395833,,,,,,FBP-PT-19.png,0.45,1.2,60,0.5,,,,,,,,,,,,,0,15,15,59,1,,,,,,,,,,,,,,,,,,,,,,,,,,,,
,,,,,SPR24_081,21,female,2024-04-23_14h34.47.450,jersey_experiment_5_v0,2023.2.2,Win32,84.03361345,,,,,,,,,,,,,,,,504.3027,505.3497,505.3497,506.7261,return,0.2659,,77.34375,,,,,,FBP-RB-17.png,0.37,1.2,32,0.25,,,,,,,,,,,,,0,16,16,31,1,,,,,,,,,,,,,,,,,,,,,,,,,,,,
,,,,,SPR24_081,21,female,2024-04-23_14h34.47.450,jersey_experiment_5_v0,2023.2.2,Win32,84.03361345,,,,,,,,,,,,,,,,506.7263,507.7731,507.7731,508.5026,return,0.1029,,77.34375,,,,,,FBP-OG-81.png,0.4,1.2,8,0.25,,,,,,,,,,,,,0,17,17,7,1,,,,,,,,,,,,,,,,,,,,,,,,,,,,
,,,,,SPR24_081,21,female,2024-04-23_14h34.47.450,jersey_experiment_5_v0,2023.2.2,Win32,84.03361345,,,,,,,,,,,,,,,,508.5029,509.5498,509.5498,510.1851,return,0.0981,,77.34375,,,,,,FBP-OG-91.png,0.4,1.2,13,0.25,,,,,,,,,,,,,0,18,18,12,1,,,,,,,,,,,,,,,,,,,,,,,,,,,,
,,,,,SPR24_081,21,female,2024-04-23_14h34.47.450,jersey_experiment_5_v0,2023.2.2,Win32,84.03361345,,,,,,,,,,,,,,,,510.1854,511.4794,511.4794,511.9263,return,0.1617,,77.34375,,,,,,FBP-PT-17.png,0.43,1.2,49,0.5,,,,,,,,,,,,,0,19,19,48,1,,,,,,,,,,,,,,,,,,,,,,,,,,,,
,,,,,SPR24_081,21,female,2024-04-23_14h34.47.450,jersey_experiment_5_v0,2023.2.2,Win32,84.03361345,,,,,,,,,,,,,,,,511.9266,512.9733,512.9733,514.2794,return,0.0288,,2.604166667,,,,,,FBP-OG-71.png,0.35,1.2,1,0.25,,,,,,,,,,,,,0,20,20,0,1,,,,,,,,,,,,,,,,,,,,,,,,,,,,
,,,,,SPR24_081,21,female,2024-04-23_14h34.47.450,jersey_experiment_5_v0,2023.2.2,Win32,84.03361345,,,,,,,,,,,,,,,,514.2797,515.5734,515.5735,516.7618,return,0.0766,,76.69270833,,,,,,FBP-PT-18.png,0.45,1.2,55,0.5,,,,,,,,,,,,,0,21,21,54,1,,,,,,,,,,,,,,,,,,,,,,,,,,,,
,,,,,SPR24_081,21,female,2024-04-23_14h34.47.450,jersey_experiment_5_v0,2023.2.2,Win32,84.03361345,,,,,,,,,,,,,,,,516.7619,517.8089,517.809,519.2794,return,0.0707,,68.48958333,,,,,,FBP-RB-18.png,0.37,1.2,37,0.25,,,,,,,,,,,,,0,22,22,36,1,,,,,,,,,,,,,,,,,,,,,,,,,,,,
,,,,,SPR24_081,21,female,2024-04-23_14h34.47.450,jersey_experiment_5_v0,2023.2.2,Win32,84.03361345,,,,,,,,,,,,,,,,519.2797,520.5736,520.5737,521.4797,return,0.0429,,80.33854167,,,,,,FBP-PT-19.png,0.43,1.2,59,0.5,,,,,,,,,,,,,0,23,23,58,1,,,,,,,,,,,,,,,,,,,,,,,,,,,,
,,,,,SPR24_081,21,female,2024-04-23_14h34.47.450,jersey_experiment_5_v0,2023.2.2,Win32,84.03361345,,,,,,,,,,,,,,,,521.48,522.5267,522.5267,523.4798,return,0.1229,,87.23958333,,,,,,FBP-OG-81.png,0.45,1.2,10,0.25,,,,,,,,,,,,,0,24,24,9,1,,,,,,,,,,,,,,,,,,,,,,,,,,,,
,,,,,SPR24_081,21,female,2024-04-23_14h34.47.450,jersey_experiment_5_v0,2023.2.2,Win32,84.03361345,,,,,,,,,,,,,,,,523.48,524.7739,524.7739,526.127,return,0.1182,,1.041666667,,,,,,FBP-PT-19.png,0.35,1.2,56,0.5,,,,,,,,,,,,,0,25,25,55,1,,,,,,,,,,,,,,,,,,,,,,,,,,,,
,,,,,SPR24_081,21,female,2024-04-23_14h34.47.450,jersey_experiment_5_v0,2023.2.2,Win32,84.03361345,,,,,,,,,,,,,,,,526.1271,527.1739,527.1739,528.727,return,0.1239,,2.604166667,,,,,,FBP-RB-19.png,0.35,1.2,41,0.25,,,,,,,,,,,,,0,26,26,40,1,,,,,,,,,,,,,,,,,,,,,,,,,,,,
,,,,,SPR24_081,21,female,2024-04-23_14h34.47.450,jersey_experiment_5_v0,2023.2.2,Win32,84.03361345,,,,,,,,,,,,,,,,528.7273,529.7739,529.7739,530.927,return,0.0327,,47.65625,,,,,,FBP-OG-71.png,0.4,1.2,3,0.25,,,,,,,,,,,,,0,27,27,2,1,,,,,,,,,,,,,,,,,,,,,,,,,,,,
,,,,,SPR24_081,21,female,2024-04-23_14h34.47.450,jersey_experiment_5_v0,2023.2.2,Win32,84.03361345,,,,,,,,,,,,,,,,530.9273,531.9741,531.9742,533.6799,return,0.1649,,80.33854167,,,,,,FBP-OG-91.png,0.43,1.2,14,0.25,,,,,,,,,,,,,0,28,28,13,1,,,,,,,,,,,,,,,,,,,,,,,,,,,,
,,,,,SPR24_081,21,female,2024-04-23_14h34.47.450,jersey_experiment_5_v0,2023.2.2,Win32,84.03361345,,,,,,,,,,,,,,,,533.6801,534.9741,534.9742,535.5624,return,0.1227,,80.33854167,,,,,,FBP-PT-17.png,0.4,1.2,48,0.5,,,,,,,,,,,,,0,29,29,47,1,,,,,,,,,,,,,,,,,,,,,,,,,,,,
,,,,,SPR24_081,21,female,2024-04-23_14h34.47.450,jersey_experiment_5_v0,2023.2.2,Win32,84.03361345,,,,,,,,,,,,,,,,535.5626,536.6095,536.6095,537.8212,return,0.1057,,97.91666667,,,,,,FBP-RB-17.png,0.45,1.2,35,0.25,,,,,,,,,,,,,0,30,30,34,1,,,,,,,,,,,,,,,,,,,,,,,,,,,,
,,,,,SPR24_081,21,female,2024-04-23_14h34.47.450,jersey_experiment_5_v0,2023.2.2,Win32,84.03361345,,,,,,,,,,,,,,,,537.8213,539.1155,539.1155,540.445,return,0.2351,,81.90104167,,,,,,FBP-YG-17.png,0.4,1.2,18,0.5,,,,,,,,,,,,,0,31,31,17,1,,,,,,,,,,,,,,,,,,,,,,,,,,,,
,,,,,SPR24_081,21,female,2024-04-23_14h34.47.450,jersey_experiment_5_v0,2023.2.2,Win32,84.03361345,,,,,,,,,,,,,,,,540.4452,541.492,541.492,543.0215,return,0.0111,,1.5625,,,,,,FBP-OG-91.png,0.35,1.2,11,0.25,,,,,,,,,,,,,0,32,32,10,1,,,,,,,,,,,,,,,,,,,,,,,,,,,,
,,,,,SPR24_081,21,female,2024-04-23_14h34.47.450,jersey_experiment_5_v0,2023.2.2,Win32,84.03361345,,,,,,,,,,,,,,,,543.0216,544.3157,544.3157,545.4334,return,0.1919,,17.83854167,,,,,,FBP-PT-17.png,0.37,1.2,47,0.5,,,,,,,,,,,,,0,33,33,46,1,,,,,,,,,,,,,,,,,,,,,,,,,,,,
,,,,,SPR24_081,21,female,2024-04-23_14h34.47.450,jersey_experiment_5_v0,2023.2.2,Win32,84.03361345,,,,,,,,,,,,,,,,545.4336,546.7277,546.7277,547.6804,return,0.0942,,19.79166667,,,,,,FBP-YG-18.png,0.4,1.2,23,0.5,,,,,,,,,,,,,0,34,34,22,1,,,,,,,,,,,,,,,,,,,,,,,,,,,,
,,,,,SPR24_081,21,female,2024-04-23_14h34.47.450,jersey_experiment_5_v0,2023.2.2,Win32,84.03361345,,,,,,,,,,,,,,,,547.6806,548.9746,548.9747,550.2336,return,0.0883,,24.34895833,,,,,,FBP-YG-19.png,0.4,1.2,28,0.5,,,,,,,,,,,,,0,35,35,27,1,,,,,,,,,,,,,,,,,,,,,,,,,,,,
,,,,,SPR24_081,21,female,2024-04-23_14h34.47.450,jersey_experiment_5_v0,2023.2.2,Win32,84.03361345,,,,,,,,,,,,,,,,550.2338,551.2806,551.2807,552.6337,return,0.0175,,20.3125,,,,,,FBP-RB-17.png,0.35,1.2,31,0.25,,,,,,,,,,,,,0,36,36,30,1,,,,,,,,,,,,,,,,,,,,,,,,,,,,
,,,,,SPR24_081,21,female,2024-04-23_14h34.47.450,jersey_experiment_5_v0,2023.2.2,Win32,84.03361345,,,,,,,,,,,,,,,,552.6338,553.9278,553.9279,554.9749,return,0.0095,,15.36458333,,,,,,FBP-YG-19.png,0.37,1.2,27,0.5,,,,,,,,,,,,,0,37,37,26,1,,,,,,,,,,,,,,,,,,,,,,,,,,,,
,,,,,SPR24_081,21,female,2024-04-23_14h34.47.450,jersey_experiment_5_v0,2023.2.2,Win32,84.03361345,,,,,,,,,,,,,,,,554.975,556.022,556.022,557.5515,return,0.0842,,97.65625,,,,,,FBP-RB-19.png,0.43,1.2,44,0.25,,,,,,,,,,,,,0,38,38,43,1,,,,,,,,,,,,,,,,,,,,,,,,,,,,
,,,,,SPR24_081,21,female,2024-04-23_14h34.47.450,jersey_experiment_5_v0,2023.2.2,Win32,84.03361345,,,,,,,,,,,,,,,,557.5517,558.5987,558.5987,559.7751,return,0.1414,,74.73958333,,,,,,FBP-OG-81.png,0.37,1.2,7,0.25,,,,,,,,,,,,,0,39,39,6,1,,,,,,,,,,,,,,,,,,,,,,,,,,,,
,,,,,SPR24_081,21,female,2024-04-23_14h34.47.450,jersey_experiment_5_v0,2023.2.2,Win32,84.03361345,,,,,,,,,,,,,,,,559.7751,560.8221,560.8222,561.8221,return,0.1513,,88.671875,,,,,,FBP-OG-91.png,0.45,1.2,15,0.25,,,,,,,,,,,,,0,40,40,14,1,,,,,,,,,,,,,,,,,,,,,,,,,,,,
,,,,,SPR24_081,21,female,2024-04-23_14h34.47.450,jersey_experiment_5_v0,2023.2.2,Win32,84.03361345,,,,,,,,,,,,,,,,561.8223,562.8692,562.8693,564.5046,return,0.1101,,9.505208333,,,,,,FBP-RB-18.png,0.35,1.2,36,0.25,,,,,,,,,,,,,0,41,41,35,1,,,,,,,,,,,,,,,,,,,,,,,,,,,,
,,,,,SPR24_081,21,female,2024-04-23_14h34.47.450,jersey_experiment_5_v0,2023.2.2,Win32,84.03361345,,,,,,,,,,,,,,,,564.5048,565.7989,565.799,566.7048,return,0.0234,,74.47916667,,,,,,FBP-YG-19.png,0.43,1.2,29,0.5,,,,,,,,,,,,,0,42,42,28,1,,,,,,,,,,,,,,,,,,,,,,,,,,,,
,,,,,SPR24_081,21,female,2024-04-23_14h34.47.450,jersey_experiment_5_v0,2023.2.2,Win32,84.03361345,,,,,,,,,,,,,,,,566.7049,567.9989,567.999,569.2812,return,0.3057,,94.921875,,,,,,FBP-YG-19.png,0.45,1.2,30,0.5,,,,,,,,,,,,,0,43,43,29,1,,,,,,,,,,,,,,,,,,,,,,,,,,,,
,,,,,SPR24_081,21,female,2024-04-23_14h34.47.450,jersey_experiment_5_v0,2023.2.2,Win32,84.03361345,,,,,,,,,,,,,,,,569.2814,570.5755,570.5755,571.7755,return,0.1416,,49.34895833,,,,,,FBP-PT-19.png,0.4,1.2,58,0.5,,,,,,,,,,,,,0,44,44,57,1,,,,,,,,,,,,,,,,,,,,,,,,,,,,
,,,,,SPR24_081,21,female,2024-04-23_14h34.47.450,jersey_experiment_5_v0,2023.2.2,Win32,84.03361345,,,,,,,,,,,,,,,,571.7757,573.0697,573.0697,573.9757,return,0.0053,,62.5,,,,,,FBP-YG-17.png,0.45,1.2,20,0.5,,,,,,,,,,,,,0,45,45,19,1,,,,,,,,,,,,,,,,,,,,,,,,,,,,
,,,,,SPR24_081,21,female,2024-04-23_14h34.47.450,jersey_experiment_5_v0,2023.2.2,Win32,84.03361345,,,,,,,,,,,,,,,,573.976,575.2696,575.2697,575.7404,return,0.0618,,62.5,,,,,,FBP-YG-17.png,0.43,1.2,19,0.5,,,,,,,,,,,,,0,46,46,18,1,,,,,,,,,,,,,,,,,,,,,,,,,,,,
,,,,,SPR24_081,21,female,2024-04-23_14h34.47.450,jersey_experiment_5_v0,2023.2.2,Win32,84.03361345,,,,,,,,,,,,,,,,575.7407,577.0344,577.0344,577.6464,return,0.258,,62.5,,,,,,FBP-YG-18.png,0.43,1.2,24,0.5,,,,,,,,,,,,,0,47,47,23,1,,,,,,,,,,,,,,,,,,,,,,,,,,,,
,,,,,SPR24_081,21,female,2024-04-23_14h34.47.450,jersey_experiment_5_v0,2023.2.2,Win32,84.03361345,,,,,,,,,,,,,,,,577.6465,578.9404,578.9404,579.9994,return,0.0945,,25.52083333,,,,,,FBP-PT-18.png,0.37,1.2,52,0.5,,,,,,,,,,,,,0,48,48,51,1,,,,,,,,,,,,,,,,,,,,,,,,,,,,
,,,,,SPR24_081,21,female,2024-04-23_14h34.47.450,jersey_experiment_5_v0,2023.2.2,Win32,84.03361345,,,,,,,,,,,,,,,,579.9995,581.2935,581.2935,581.7994,return,0.0784,,25.91145833,,,,,,FBP-PT-18.png,0.4,1.2,53,0.5,,,,,,,,,,,,,0,49,49,52,1,,,,,,,,,,,,,,,,,,,,,,,,,,,,
,,,,,SPR24_081,21,female,2024-04-23_14h34.47.450,jersey_experiment_5_v0,2023.2.2,Win32,84.03361345,,,,,,,,,,,,,,,,581.7996,582.8464,582.8464,583.9288,return,0.1451,,44.921875,,,,,,FBP-RB-19.png,0.37,1.2,42,0.25,,,,,,,,,,,,,0,50,50,41,1,,,,,,,,,,,,,,,,,,,,,,,,,,,,
,,,,,SPR24_081,21,female,2024-04-23_14h34.47.450,jersey_experiment_5_v0,2023.2.2,Win32,84.03361345,,,,,,,,,,,,,,,,583.9291,584.9758,584.9759,586.1994,return,0.1487,,86.84895833,,,,,,FBP-RB-18.png,0.45,1.2,40,0.25,,,,,,,,,,,,,0,51,51,39,1,,,,,,,,,,,,,,,,,,,,,,,,,,,,
,,,,,SPR24_081,21,female,2024-04-23_14h34.47.450,jersey_experiment_5_v0,2023.2.2,Win32,84.03361345,,,,,,,,,,,,,,,,586.1997,587.4937,587.4937,587.8702,return,0.0574,,86.84895833,,,,,,FBP-PT-18.png,0.43,1.2,54,0.5,,,,,,,,,,,,,0,52,52,53,1,,,,,,,,,,,,,,,,,,,,,,,,,,,,
,,,,,SPR24_081,21,female,2024-04-23_14h34.47.450,jersey_experiment_5_v0,2023.2.2,Win32,84.03361345,,,,,,,,,,,,,,,,587.8704,589.1642,589.1642,589.6113,return,0.131,,86.84895833,,,,,,FBP-PT-17.png,0.45,1.2,50,0.5,,,,,,,,,,,,,0,53,53,49,1,,,,,,,,,,,,,,,,,,,,,,,,,,,,
,,,,,SPR24_081,21,female,2024-04-23_14h34.47.450,jersey_experiment_5_v0,2023.2.2,Win32,84.03361345,,,,,,,,,,,,,,,,589.6115,590.9055,590.9056,592.2704,return,0.1653,,26.69270833,,,,,,FBP-YG-19.png,0.35,1.2,26,0.5,,,,,,,,,,,,,0,54,54,25,1,,,,,,,,,,,,,,,,,,,,,,,,,,,,
,,,,,SPR24_081,21,female,2024-04-23_14h34.47.450,jersey_experiment_5_v0,2023.2.2,Win32,84.03361345,,,,,,,,,,,,,,,,592.2706,593.5645,593.5645,594.3644,return,0.1535,,17.83854167,,,,,,FBP-PT-18.png,0.35,1.2,51,0.5,,,,,,,,,,,,,0,55,55,50,1,,,,,,,,,,,,,,,,,,,,,,,,,,,,
,,,,,SPR24_081,21,female,2024-04-23_14h34.47.450,jersey_experiment_5_v0,2023.2.2,Win32,84.03361345,,,,,,,,,,,,,,,,594.3645,595.6586,595.6586,596.2703,return,0.2126,,17.83854167,,,,,,FBP-YG-18.png,0.35,1.2,21,0.5,,,,,,,,,,,,,0,56,56,20,1,,,,,,,,,,,,,,,,,,,,,,,,,,,,
,,,,,SPR24_081,21,female,2024-04-23_14h34.47.450,jersey_experiment_5_v0,2023.2.2,Win32,84.03361345,,,,,,,,,,,,,,,,596.2705,597.5646,597.5647,597.9175,return,0.1049,,18.09895833,,,,,,FBP-PT-19.png,0.37,1.2,57,0.5,,,,,,,,,,,,,0,57,57,56,1,,,,,,,,,,,,,,,,,,,,,,,,,,,,
,,,,,SPR24_081,21,female,2024-04-23_14h34.47.450,jersey_experiment_5_v0,2023.2.2,Win32,84.03361345,,,,,,,,,,,,,,,,597.9177,599.2117,599.2117,599.5294,return,0.1351,,18.09895833,,,,,,FBP-YG-17.png,0.35,1.2,16,0.5,,,,,,,,,,,,,0,58,58,15,1,,,,,,,,,,,,,,,,,,,,,,,,,,,,
,,,,,SPR24_081,21,female,2024-04-23_14h34.47.450,jersey_experiment_5_v0,2023.2.2,Win32,84.03361345,,,,,,,,,,,,,,,,599.5297,600.8234,600.8235,601.8706,return,0.0476,,73.4375,,,,,,FBP-YG-18.png,0.45,1.2,25,0.5,,,,,,,,,,,,,0,59,59,24,1,,,,,,,,,,,,,,,,,,,,,,,,,,,,
,,,,,SPR24_081,21,female,2024-04-23_14h34.47.450,jersey_experiment_5_v0,2023.2.2,Win32,84.03361345,,,,,,,,,,,,,,,,601.8722,602.9179,602.9179,605.0473,return,0.0647,,27.60416667,,,,,,FBP-RB-91.png,0.35,1.2,41,0.25,,,,,,,,,,,,,,,,,,0,0,0,40,1,,,,,,,,,,,,,,,,,,,,,,,
,,,,,SPR24_081,21,female,2024-04-23_14h34.47.450,jersey_experiment_5_v0,2023.2.2,Win32,84.03361345,,,,,,,,,,,,,,,,605.0476,606.0943,606.0943,607.3768,return,0.0709,,74.86979167,,,,,,FBP-RB-81.png,0.43,1.2,39,0.25,,,,,,,,,,,,,,,,,,0,1,1,38,1,,,,,,,,,,,,,,,,,,,,,,,
,,,,,SPR24_081,21,female,2024-04-23_14h34.47.450,jersey_experiment_5_v0,2023.2.2,Win32,84.03361345,,,,,,,,,,,,,,,,607.3769,608.4239,608.4239,609.6122,return,0.1069,,21.875,,,,,,FBP-OG-17.png,0.37,1.2,2,0.25,,,,,,,,,,,,,,,,,,0,2,2,1,1,,,,,,,,,,,,,,,,,,,,,,,
,,,,,SPR24_081,21,female,2024-04-23_14h34.47.450,jersey_experiment_5_v0,2023.2.2,Win32,84.03361345,,,,,,,,,,,,,,,,609.6124,610.9062,610.9063,612.6475,return,0.0311,,74.73958333,,,,,,FBP-PT-91.png,0.43,1.2,59,0.5,,,,,,,,,,,,,,,,,,0,3,3,58,1,,,,,,,,,,,,,,,,,,,,,,,
,,,,,SPR24_081,21,female,2024-04-23_14h34.47.450,jersey_experiment_5_v0,2023.2.2,Win32,84.03361345,,,,,,,,,,,,,,,,612.6476,613.9417,613.9417,615.5182,return,0.6833,,71.22395833,,,,,,FBP-YG-91.png,0.4,1.2,28,0.5,,,,,,,,,,,,,,,,,,0,4,4,27,1,,,,,,,,,,,,,,,,,,,,,,,
,,,,,SPR24_081,21,female,2024-04-23_14h34.47.450,jersey_experiment_5_v0,2023.2.2,Win32,84.03361345,,,,,,,,,,,,,,,,615.5183,616.8122,616.8123,618.8713,return,0.0889,,24.34895833,,,,,,FBP-PT-81.png,0.37,1.2,52,0.5,,,,,,,,,,,,,,,,,,0,5,5,51,1,,,,,,,,,,,,,,,,,,,,,,,
,,,,,SPR24_081,21,female,2024-04-23_14h34.47.450,jersey_experiment_5_v0,2023.2.2,Win32,84.03361345,,,,,,,,,,,,,,,,618.8714,619.9183,619.9183,622.0714,return,0.1231,,20.05208333,,,,,,FBP-OG-17.png,0.35,1.2,1,0.25,,,,,,,,,,,,,,,,,,0,6,6,0,1,,,,,,,,,,,,,,,,,,,,,,,
,,,,,SPR24_081,21,female,2024-04-23_14h34.47.450,jersey_experiment_5_v0,2023.2.2,Win32,84.03361345,,,,,,,,,,,,,,,,622.0715,623.1185,623.1185,624.6362,return,0.0943,,74.73958333,,,,,,FBP-RB-91.png,0.43,1.2,44,0.25,,,,,,,,,,,,,,,,,,0,7,7,43,1,,,,,,,,,,,,,,,,,,,,,,,
,,,,,SPR24_081,21,female,2024-04-23_14h34.47.450,jersey_experiment_5_v0,2023.2.2,Win32,84.03361345,,,,,,,,,,,,,,,,624.6365,625.6835,625.6835,626.6715,return,0.1271,,78.64583333,,,,,,FBP-OG-18.png,0.45,1.2,10,0.25,,,,,,,,,,,,,,,,,,0,8,8,9,1,,,,,,,,,,,,,,,,,,,,,,,
,,,,,SPR24_081,21,female,2024-04-23_14h34.47.450,jersey_experiment_5_v0,2023.2.2,Win32,84.03361345,,,,,,,,,,,,,,,,626.6717,627.9656,627.9656,629.142,return,0.1502,,22.91666667,,,,,,FBP-PT-71.png,0.35,1.2,46,0.5,,,,,,,,,,,,,,,,,,0,9,9,45,1,,,,,,,,,,,,,,,,,,,,,,,
,,,,,SPR24_081,21,female,2024-04-23_14h34.47.450,jersey_experiment_5_v0,2023.2.2,Win32,84.03361345,,,,,,,,,,,,,,,,629.1422,630.1893,630.1893,632.6246,return,0.2444,,52.86458333,,,,,,FBP-RB-81.png,0.4,1.2,38,0.25,,,,,,,,,,,,,,,,,,0,10,10,37,1,,,,,,,,,,,,,,,,,,,,,,,
,,,,,SPR24_081,21,female,2024-04-23_14h34.47.450,jersey_experiment_5_v0,2023.2.2,Win32,84.03361345,,,,,,,,,,,,,,,,632.6247,633.9188,633.9188,634.8718,return,0.1463,,77.34375,,,,,,FBP-PT-71.png,0.45,1.2,50,0.5,,,,,,,,,,,,,,,,,,0,11,11,49,1,,,,,,,,,,,,,,,,,,,,,,,
,,,,,SPR24_081,21,female,2024-04-23_14h34.47.450,jersey_experiment_5_v0,2023.2.2,Win32,84.03361345,,,,,,,,,,,,,,,,634.872,635.9189,635.919,637.0836,return,0.2271,,64.32291667,,,,,,FBP-RB-71.png,0.37,1.2,32,0.25,,,,,,,,,,,,,,,,,,0,12,12,31,1,,,,,,,,,,,,,,,,,,,,,,,
,,,,,SPR24_081,21,female,2024-04-23_14h34.47.450,jersey_experiment_5_v0,2023.2.2,Win32,84.03361345,,,,,,,,,,,,,,,,637.0838,638.3778,638.3778,640.119,return,0.6316,,22.78645833,,,,,,FBP-YG-81.png,0.37,1.2,22,0.5,,,,,,,,,,,,,,,,,,0,13,13,21,1,,,,,,,,,,,,,,,,,,,,,,,
,,,,,SPR24_081,21,female,2024-04-23_14h34.47.450,jersey_experiment_5_v0,2023.2.2,Win32,84.03361345,,,,,,,,,,,,,,,,640.1192,641.4134,641.4134,642.7309,return,0.0724,,74.73958333,,,,,,FBP-YG-91.png,0.43,1.2,29,0.5,,,,,,,,,,,,,,,,,,0,14,14,28,1,,,,,,,,,,,,,,,,,,,,,,,
,,,,,SPR24_081,21,female,2024-04-23_14h34.47.450,jersey_experiment_5_v0,2023.2.2,Win32,84.03361345,,,,,,,,,,,,,,,,642.7311,644.025,644.0251,645.0957,return,0.0306,,23.046875,,,,,,FBP-YG-71.png,0.35,1.2,16,0.5,,,,,,,,,,,,,,,,,,0,15,15,15,1,,,,,,,,,,,,,,,,,,,,,,,
,,,,,SPR24_081,21,female,2024-04-23_14h34.47.450,jersey_experiment_5_v0,2023.2.2,Win32,84.03361345,,,,,,,,,,,,,,,,645.0958,646.1429,646.1429,647.3546,return,0.0278,,97.91666667,,,,,,FBP-RB-71.png,0.45,1.2,35,0.25,,,,,,,,,,,,,,,,,,0,16,16,34,1,,,,,,,,,,,,,,,,,,,,,,,
,,,,,SPR24_081,21,female,2024-04-23_14h34.47.450,jersey_experiment_5_v0,2023.2.2,Win32,84.03361345,,,,,,,,,,,,,,,,647.3547,648.6487,648.6487,649.7075,return,0.0365,,80.20833333,,,,,,FBP-PT-81.png,0.4,1.2,53,0.5,,,,,,,,,,,,,,,,,,0,17,17,52,1,,,,,,,,,,,,,,,,,,,,,,,
,,,,,SPR24_081,21,female,2024-04-23_14h34.47.450,jersey_experiment_5_v0,2023.2.2,Win32,84.03361345,,,,,,,,,,,,,,,,649.7077,650.7547,650.7547,651.4253,return,0.0563,,80.20833333,,,,,,FBP-OG-17.png,0.43,1.2,4,0.25,,,,,,,,,,,,,,,,,,0,18,18,3,1,,,,,,,,,,,,,,,,,,,,,,,
,,,,,SPR24_081,21,female,2024-04-23_14h34.47.450,jersey_experiment_5_v0,2023.2.2,Win32,84.03361345,,,,,,,,,,,,,,,,651.4255,652.7194,652.7194,654.3901,return,0.6772,,23.95833333,,,,,,FBP-PT-91.png,0.35,1.2,56,0.5,,,,,,,,,,,,,,,,,,0,19,19,55,1,,,,,,,,,,,,,,,,,,,,,,,
,,,,,SPR24_081,21,female,2024-04-23_14h34.47.450,jersey_experiment_5_v0,2023.2.2,Win32,84.03361345,,,,,,,,,,,,,,,,654.3902,655.6843,655.6843,657.0374,return,0.202,,20.18229167,,,,,,FBP-PT-81.png,0.35,1.2,51,0.5,,,,,,,,,,,,,,,,,,0,20,20,50,1,,,,,,,,,,,,,,,,,,,,,,,
,,,,,SPR24_081,21,female,2024-04-23_14h34.47.450,jersey_experiment_5_v0,2023.2.2,Win32,84.03361345,,,,,,,,,,,,,,,,657.0376,658.3316,658.3316,659.2609,return,0.0584,,76.04166667,,,,,,FBP-YG-81.png,0.45,1.2,25,0.5,,,,,,,,,,,,,,,,,,0,21,21,24,1,,,,,,,,,,,,,,,,,,,,,,,
,,,,,SPR24_081,21,female,2024-04-23_14h34.47.450,jersey_experiment_5_v0,2023.2.2,Win32,84.03361345,,,,,,,,,,,,,,,,659.2612,660.308,660.308,661.7669,return,0.0432,,22.39583333,,,,,,FBP-RB-81.png,0.35,1.2,36,0.25,,,,,,,,,,,,,,,,,,0,22,22,35,1,,,,,,,,,,,,,,,,,,,,,,,
,,,,,SPR24_081,21,female,2024-04-23_14h34.47.450,jersey_experiment_5_v0,2023.2.2,Win32,84.03361345,,,,,,,,,,,,,,,,661.7672,662.8141,662.8142,664.7434,return,0.4641,,79.16666667,,,,,,FBP-OG-19.png,0.43,1.2,14,0.25,,,,,,,,,,,,,,,,,,0,23,23,13,1,,,,,,,,,,,,,,,,,,,,,,,
,,,,,SPR24_081,21,female,2024-04-23_14h34.47.450,jersey_experiment_5_v0,2023.2.2,Win32,84.03361345,,,,,,,,,,,,,,,,664.7436,665.7905,665.7905,666.7198,return,0.127,,79.16666667,,,,,,FBP-OG-18.png,0.43,1.2,9,0.25,,,,,,,,,,,,,,,,,,0,24,24,8,1,,,,,,,,,,,,,,,,,,,,,,,
,,,,,SPR24_081,21,female,2024-04-23_14h34.47.450,jersey_experiment_5_v0,2023.2.2,Win32,84.03361345,,,,,,,,,,,,,,,,666.72,667.7671,667.7672,668.5082,return,0.238,,79.16666667,,,,,,FBP-OG-18.png,0.4,1.2,8,0.25,,,,,,,,,,,,,,,,,,0,25,25,7,1,,,,,,,,,,,,,,,,,,,,,,,
,,,,,SPR24_081,21,female,2024-04-23_14h34.47.450,jersey_experiment_5_v0,2023.2.2,Win32,84.03361345,,,,,,,,,,,,,,,,668.5083,669.5554,669.5554,670.9084,return,0.1066,,66.53645833,,,,,,FBP-RB-91.png,0.37,1.2,42,0.25,,,,,,,,,,,,,,,,,,0,26,26,41,1,,,,,,,,,,,,,,,,,,,,,,,
,,,,,SPR24_081,21,female,2024-04-23_14h34.47.450,jersey_experiment_5_v0,2023.2.2,Win32,84.03361345,,,,,,,,,,,,,,,,670.9085,672.2026,672.2027,673.0731,return,0.0707,,64.0625,,,,,,FBP-YG-71.png,0.37,1.2,17,0.5,,,,,,,,,,,,,,,,,,0,27,27,16,1,,,,,,,,,,,,,,,,,,,,,,,
,,,,,SPR24_081,21,female,2024-04-23_14h34.47.450,jersey_experiment_5_v0,2023.2.2,Win32,84.03361345,,,,,,,,,,,,,,,,673.0733,674.1204,674.1204,675.6969,return,0.0472,,1.171875,,,,,,FBP-OG-19.png,0.35,1.2,11,0.25,,,,,,,,,,,,,,,,,,0,28,28,10,1,,,,,,,,,,,,,,,,,,,,,,,
,,,,,SPR24_081,21,female,2024-04-23_14h34.47.450,jersey_experiment_5_v0,2023.2.2,Win32,84.03361345,,,,,,,,,,,,,,,,675.6971,676.9912,676.9912,678.6382,return,0.4954,,64.32291667,,,,,,FBP-PT-71.png,0.43,1.2,49,0.5,,,,,,,,,,,,,,,,,,0,29,29,48,1,,,,,,,,,,,,,,,,,,,,,,,
,,,,,SPR24_081,21,female,2024-04-23_14h34.47.450,jersey_experiment_5_v0,2023.2.2,Win32,84.03361345,,,,,,,,,,,,,,,,678.6384,679.9322,679.9323,681.2734,return,0.0737,,19.66145833,,,,,,FBP-YG-91.png,0.35,1.2,26,0.5,,,,,,,,,,,,,,,,,,0,30,30,25,1,,,,,,,,,,,,,,,,,,,,,,,
,,,,,SPR24_081,21,female,2024-04-23_14h34.47.450,jersey_experiment_5_v0,2023.2.2,Win32,84.03361345,,,,,,,,,,,,,,,,681.2737,682.5676,682.5677,684.1441,return,0.1552,,61.71875,,,,,,FBP-PT-71.png,0.4,1.2,48,0.5,,,,,,,,,,,,,,,,,,0,31,31,47,1,,,,,,,,,,,,,,,,,,,,,,,
,,,,,SPR24_081,21,female,2024-04-23_14h34.47.450,jersey_experiment_5_v0,2023.2.2,Win32,84.03361345,,,,,,,,,,,,,,,,684.1443,685.1911,685.1912,686.6148,return,0.0203,,75.91145833,,,,,,FBP-OG-19.png,0.45,1.2,15,0.25,,,,,,,,,,,,,,,,,,0,32,32,14,1,,,,,,,,,,,,,,,,,,,,,,,
,,,,,SPR24_081,21,female,2024-04-23_14h34.47.450,jersey_experiment_5_v0,2023.2.2,Win32,84.03361345,,,,,,,,,,,,,,,,686.615,687.6618,687.6618,688.3207,return,0.1182,,75.91145833,,,,,,FBP-OG-17.png,0.4,1.2,3,0.25,,,,,,,,,,,,,,,,,,0,33,33,2,1,,,,,,,,,,,,,,,,,,,,,,,
,,,,,SPR24_081,21,female,2024-04-23_14h34.47.450,jersey_experiment_5_v0,2023.2.2,Win32,84.03361345,,,,,,,,,,,,,,,,688.321,689.6149,689.615,691.1326,return,0.0938,,20.05208333,,,,,,FBP-YG-81.png,0.35,1.2,21,0.5,,,,,,,,,,,,,,,,,,0,34,34,20,1,,,,,,,,,,,,,,,,,,,,,,,
,,,,,SPR24_081,21,female,2024-04-23_14h34.47.450,jersey_experiment_5_v0,2023.2.2,Win32,84.03361345,,,,,,,,,,,,,,,,691.1328,692.1796,692.1796,693.7914,return,0.2026,,68.22916667,,,,,,FBP-RB-91.png,0.4,1.2,43,0.25,,,,,,,,,,,,,,,,,,0,35,35,42,1,,,,,,,,,,,,,,,,,,,,,,,
,,,,,SPR24_081,21,female,2024-04-23_14h34.47.450,jersey_experiment_5_v0,2023.2.2,Win32,84.03361345,,,,,,,,,,,,,,,,693.7916,694.8385,694.8386,696.0859,return,0.3719,,67.83854167,,,,,,FBP-OG-19.png,0.4,1.2,13,0.25,,,,,,,,,,,,,,,,,,0,36,36,12,1,,,,,,,,,,,,,,,,,,,,,,,
,,,,,SPR24_081,21,female,2024-04-23_14h34.47.450,jersey_experiment_5_v0,2023.2.2,Win32,84.03361345,,,,,,,,,,,,,,,,696.0861,697.1328,697.1329,697.7449,return,0.1183,,67.44791667,,,,,,FBP-RB-71.png,0.4,1.2,33,0.25,,,,,,,,,,,,,,,,,,0,37,37,32,1,,,,,,,,,,,,,,,,,,,,,,,
,,,,,SPR24_081,21,female,2024-04-23_14h34.47.450,jersey_experiment_5_v0,2023.2.2,Win32,84.03361345,,,,,,,,,,,,,,,,697.7451,699.0388,699.0389,699.9682,return,0.1036,,76.69270833,,,,,,FBP-YG-71.png,0.43,1.2,19,0.5,,,,,,,,,,,,,,,,,,0,38,38,18,1,,,,,,,,,,,,,,,,,,,,,,,
,,,,,SPR24_081,21,female,2024-04-23_14h34.47.450,jersey_experiment_5_v0,2023.2.2,Win32,84.03361345,,,,,,,,,,,,,,,,699.9683,701.2624,701.2624,701.7564,return,0.0827,,76.69270833,,,,,,FBP-PT-81.png,0.43,1.2,54,0.5,,,,,,,,,,,,,,,,,,0,39,39,53,1,,,,,,,,,,,,,,,,,,,,,,,
,,,,,SPR24_081,21,female,2024-04-23_14h34.47.450,jersey_experiment_5_v0,2023.2.2,Win32,84.03361345,,,,,,,,,,,,,,,,701.7566,703.0506,703.0506,703.4505,return,0.0984,,76.69270833,,,,,,FBP-YG-81.png,0.4,1.2,23,0.5,,,,,,,,,,,,,,,,,,0,40,40,22,1,,,,,,,,,,,,,,,,,,,,,,,
,,,,,SPR24_081,21,female,2024-04-23_14h34.47.450,jersey_experiment_5_v0,2023.2.2,Win32,84.03361345,,,,,,,,,,,,,,,,703.4507,704.7449,704.7449,705.792,return,0.5179,,76.69270833,,,,,,FBP-YG-71.png,0.4,1.2,18,0.5,,,,,,,,,,,,,,,,,,0,41,41,17,1,,,,,,,,,,,,,,,,,,,,,,,
,,,,,SPR24_081,21,female,2024-04-23_14h34.47.450,jersey_experiment_5_v0,2023.2.2,Win32,84.03361345,,,,,,,,,,,,,,,,705.7922,707.0862,707.0862,707.6744,return,0.0966,,76.69270833,,,,,,FBP-YG-91.png,0.37,1.2,27,0.5,,,,,,,,,,,,,,,,,,0,42,42,26,1,,,,,,,,,,,,,,,,,,,,,,,
,,,,,SPR24_081,21,female,2024-04-23_14h34.47.450,jersey_experiment_5_v0,2023.2.2,Win32,84.03361345,,,,,,,,,,,,,,,,707.6746,708.9686,708.9686,709.8393,return,0.0714,,82.16145833,,,,,,FBP-YG-91.png,0.45,1.2,30,0.5,,,,,,,,,,,,,,,,,,0,43,43,29,1,,,,,,,,,,,,,,,,,,,,,,,
,,,,,SPR24_081,21,female,2024-04-23_14h34.47.450,jersey_experiment_5_v0,2023.2.2,Win32,84.03361345,,,,,,,,,,,,,,,,709.8395,711.1334,711.1335,711.9097,return,0.0212,,80.078125,,,,,,FBP-PT-91.png,0.45,1.2,60,0.5,,,,,,,,,,,,,,,,,,0,44,44,59,1,,,,,,,,,,,,,,,,,,,,,,,
,,,,,SPR24_081,21,female,2024-04-23_14h34.47.450,jersey_experiment_5_v0,2023.2.2,Win32,84.03361345,,,,,,,,,,,,,,,,711.9099,712.9568,712.9568,713.8394,return,0.2121,,80.078125,,,,,,FBP-RB-71.png,0.43,1.2,34,0.25,,,,,,,,,,,,,,,,,,0,45,45,33,1,,,,,,,,,,,,,,,,,,,,,,,
,,,,,SPR24_081,21,female,2024-04-23_14h34.47.450,jersey_experiment_5_v0,2023.2.2,Win32,84.03361345,,,,,,,,,,,,,,,,713.8397,714.8864,714.8865,715.404,return,0.1207,,80.078125,,,,,,FBP-OG-17.png,0.45,1.2,5,0.25,,,,,,,,,,,,,,,,,,0,46,46,4,1,,,,,,,,,,,,,,,,,,,,,,,
,,,,,SPR24_081,21,female,2024-04-23_14h34.47.450,jersey_experiment_5_v0,2023.2.2,Win32,84.03361345,,,,,,,,,,,,,,,,715.4041,716.4513,716.4513,717.3454,return,0.0945,,90.75520833,,,,,,FBP-RB-91.png,0.45,1.2,45,0.25,,,,,,,,,,,,,,,,,,0,47,47,44,1,,,,,,,,,,,,,,,,,,,,,,,
,,,,,SPR24_081,21,female,2024-04-23_14h34.47.450,jersey_experiment_5_v0,2023.2.2,Win32,84.03361345,,,,,,,,,,,,,,,,717.3456,718.6394,718.6394,719.5335,return,0.5079,,90.75520833,,,,,,FBP-YG-71.png,0.45,1.2,20,0.5,,,,,,,,,,,,,,,,,,0,48,48,19,1,,,,,,,,,,,,,,,,,,,,,,,
,,,,,SPR24_081,21,female,2024-04-23_14h34.47.450,jersey_experiment_5_v0,2023.2.2,Win32,84.03361345,,,,,,,,,,,,,,,,719.5338,720.8278,720.8278,722.2043,return,0.1536,,81.77083333,,,,,,FBP-PT-91.png,0.4,1.2,58,0.5,,,,,,,,,,,,,,,,,,0,49,49,57,1,,,,,,,,,,,,,,,,,,,,,,,
,,,,,SPR24_081,21,female,2024-04-23_14h34.47.450,jersey_experiment_5_v0,2023.2.2,Win32,84.03361345,,,,,,,,,,,,,,,,722.2045,723.2514,723.2514,725.0984,return,0.0752,,15.625,,,,,,FBP-OG-18.png,0.35,1.2,6,0.25,,,,,,,,,,,,,,,,,,0,50,50,5,1,,,,,,,,,,,,,,,,,,,,,,,
,,,,,SPR24_081,21,female,2024-04-23_14h34.47.450,jersey_experiment_5_v0,2023.2.2,Win32,84.03361345,,,,,,,,,,,,,,,,725.0985,726.3925,726.3925,729.0398,return,0.1645,,47.52604167,,,,,,FBP-PT-91.png,0.37,1.2,57,0.5,,,,,,,,,,,,,,,,,,0,51,51,56,1,,,,,,,,,,,,,,,,,,,,,,,
,,,,,SPR24_081,21,female,2024-04-23_14h34.47.450,jersey_experiment_5_v0,2023.2.2,Win32,84.03361345,,,,,,,,,,,,,,,,729.04,730.0869,730.0869,731.5693,return,0.0705,,97.13541667,,,,,,FBP-RB-81.png,0.45,1.2,40,0.25,,,,,,,,,,,,,,,,,,0,52,52,39,1,,,,,,,,,,,,,,,,,,,,,,,
,,,,,SPR24_081,21,female,2024-04-23_14h34.47.450,jersey_experiment_5_v0,2023.2.2,Win32,84.03361345,,,,,,,,,,,,,,,,731.5694,732.6164,732.6164,734.6636,return,0.1463,,25.390625,,,,,,FBP-RB-81.png,0.37,1.2,37,0.25,,,,,,,,,,,,,,,,,,0,53,53,36,1,,,,,,,,,,,,,,,,,,,,,,,
,,,,,SPR24_081,21,female,2024-04-23_14h34.47.450,jersey_experiment_5_v0,2023.2.2,Win32,84.03361345,,,,,,,,,,,,,,,,734.6638,735.9577,735.9577,737.6754,return,0.3071,,32.55208333,,,,,,FBP-PT-71.png,0.37,1.2,47,0.5,,,,,,,,,,,,,,,,,,0,54,54,46,1,,,,,,,,,,,,,,,,,,,,,,,
,,,,,SPR24_081,21,female,2024-04-23_14h34.47.450,jersey_experiment_5_v0,2023.2.2,Win32,84.03361345,,,,,,,,,,,,,,,,737.6756,738.7225,738.7225,740.5227,return,0.5435,,24.21875,,,,,,FBP-RB-71.png,0.35,1.2,31,0.25,,,,,,,,,,,,,,,,,,0,55,55,30,1,,,,,,,,,,,,,,,,,,,,,,,
,,,,,SPR24_081,21,female,2024-04-23_14h34.47.450,jersey_experiment_5_v0,2023.2.2,Win32,84.03361345,,,,,,,,,,,,,,,,740.5228,741.5697,741.5697,742.5698,return,0.1347,,20.83333333,,,,,,FBP-OG-19.png,0.37,1.2,12,0.25,,,,,,,,,,,,,,,,,,0,56,56,11,1,,,,,,,,,,,,,,,,,,,,,,,
,,,,,SPR24_081,21,female,2024-04-23_14h34.47.450,jersey_experiment_5_v0,2023.2.2,Win32,84.03361345,,,,,,,,,,,,,,,,742.57,743.6167,743.6168,744.5579,return,0.1044,,19.27083333,,,,,,FBP-OG-18.png,0.37,1.2,7,0.25,,,,,,,,,,,,,,,,,,0,57,57,6,1,,,,,,,,,,,,,,,,,,,,,,,
,,,,,SPR24_081,21,female,2024-04-23_14h34.47.450,jersey_experiment_5_v0,2023.2.2,Win32,84.03361345,,,,,,,,,,,,,,,,744.5581,745.8522,745.8522,747.0876,return,0.1412,,67.96875,,,,,,FBP-PT-81.png,0.45,1.2,55,0.5,,,,,,,,,,,,,,,,,,0,58,58,54,1,,,,,,,,,,,,,,,,,,,,,,,
,,,,,SPR24_081,21,female,2024-04-23_14h34.47.450,jersey_experiment_5_v0,2023.2.2,Win32,84.03361345,,,,,,,,,,,,,,,,747.0878,748.3816,748.3816,749.1348,return,0.1782,,69.01041667,,,,,,FBP-YG-81.png,0.43,1.2,24,0.5,,,,,,,,,,,,,,,,,,0,59,59,23,1,,,,,,,,,,,,,,,,,,,,,,,
,,,,,SPR24_081,21,female,2024-04-23_14h34.47.450,jersey_experiment_5_v0,2023.2.2,Win32,84.03361345,,,,,,,,,,,,,,,,,,,,,,,,,,,,,,,,,,,,,,,,,,,,,,,,,,,,,,,,749.1351,753.8057,return,4.6601,,,,,,,,,,,,,,,,,,,
,,,,,SPR24_081,21,female,2024-04-23_14h34.47.450,jersey_experiment_5_v0,2023.2.2,Win32,84.03361345,,,,,,,,,,,,,,,,,,,,,,,,,,,,,,,,,,,,,,,,,,,,,,,,,,,,,,,,,,,,,753.8058,757.2644,1,1.9155,return,1.515,,,,,,,,,,,,
,,,,,SPR24_081,21,female,2024-04-23_14h34.47.450,jersey_experiment_5_v0,2023.2.2,Win32,84.03361345,,,,,,,,,,,,,,,,,,,,,,,,,,,,,,,,,,,,,,,,,,,,,,,,,,,,,,,,,,,,,,,,,,,,757.2645,776.1404,Racism and assumptions about black vs white football players,right,15.4896,,,,,,
,,,,,SPR24_081,21,female,2024-04-23_14h34.47.450,jersey_experiment_5_v0,2023.2.2,Win32,84.03361345,,,,,,,,,,,,,,,,,,,,,,,,,,,,,,,,,,,,,,,,,,,,,,,,,,,,,,,,,,,,,,,,,,,,,,,,,,776.1405,778.6063,return,2.4523,