requirements.started,requirements.stopped,key_resp_3.keys,key_resp_3.rt,key_resp_3.duration,Subject ID,Age,Gender,date,expName,psychopyVersion,OS,frameRate,instructions1.started,instructions1.stopped,key_resp.keys,key_resp.rt,key_resp.duration,example.started,example.stopped,enter_2.keys,enter_2.rt,enter_2.duration,instructions2.started,instructions2.stopped,enter_3.keys,enter_3.rt,enter_3.duration,image.started,image.stopped,slider_2.started,slider_2.stopped,next.keys,next.rt,next.duration,slider.response,trial_block_1.thisRepN,trial_block_1.thisTrialN,trial_block_1.thisN,trial_block_1.thisIndex,trial_block_1.ran,Path,Width,Height,Index,Duration,trial_block_2.thisRepN,trial_block_2.thisTrialN,trial_block_2.thisN,trial_block_2.thisIndex,trial_block_2.ran,rest_break.started,rest_break.stopped,end_break.started,end_break.stopped,key_resp_5.keys,key_resp_5.rt,key_resp_5.duration,trial_block_3.thisRepN,trial_block_3.thisTrialN,trial_block_3.thisN,trial_block_3.thisIndex,trial_block_3.ran,trial_block_4.thisRepN,trial_block_4.thisTrialN,trial_block_4.thisN,trial_block_4.thisIndex,trial_block_4.ran,questions_intro.started,questions_intro.stopped,enter_12.keys,enter_12.rt,enter_12.duration,question2.started,question2.stopped,question_doingbest.response,question_doingbest.rt,enter_15.keys,enter_15.rt,enter_15.duration,pattern.started,pattern.stopped,pattern_2.text,enter_17.keys,enter_17.rt,enter_17.duration,thankyou.started,thankyou.stopped,enter_14.keys,enter_14.rt,enter_14.duration
0.0002,10.5715,return,10.5668,,SPR24_074,19,female,2024-04-22_15h32.36.966,jersey_experiment_5_v0,2023.2.2,Win32,84.03361345,,,,,,,,,,,,,,,,,,,,,,,,,,,,,,,,,,,,,,,,,,,,,,,,,,,,,,,,,,,,,,,,,,,,,,,,,,,,,,
,,,,,SPR24_074,19,female,2024-04-22_15h32.36.966,jersey_experiment_5_v0,2023.2.2,Win32,84.03361345,10.5717,23.6735,return,13.0954,,,,,,,,,,,,,,,,,,,,,,,,,,,,,,,,,,,,,,,,,,,,,,,,,,,,,,,,,,,,,,,,,,,,,,,,,,
,,,,,SPR24_074,19,female,2024-04-22_15h32.36.966,jersey_experiment_5_v0,2023.2.2,Win32,84.03361345,,,,,,23.6735,32.6975,return,8.9944,,,,,,,,,,,,,,,,,,,,,,,,,,,,,,,,,,,,,,,,,,,,,,,,,,,,,,,,,,,,,,,,,,,,,
,,,,,SPR24_074,19,female,2024-04-22_15h32.36.966,jersey_experiment_5_v0,2023.2.2,Win32,84.03361345,,,,,,,,,,,32.6975,59.7924,return,27.0825,,,,,,,,,,,,,,,,,,,,,,,,,,,,,,,,,,,,,,,,,,,,,,,,,,,,,,,,,,,,,,,,
,,,,,SPR24_074,19,female,2024-04-22_15h32.36.966,jersey_experiment_5_v0,2023.2.2,Win32,84.03361345,,,,,,,,,,,,,,,,59.7996,60.8511,60.8514,69.369,return,3.4535,,25.390625,0,0,0,25,1,FBP-YG-19.png,0.35,1.2,26,0.25,,,,,,,,,,,,,,,,,,,,,,,,,,,,,,,,,,,,,,,,,,,,,
,,,,,SPR24_074,19,female,2024-04-22_15h32.36.966,jersey_experiment_5_v0,2023.2.2,Win32,84.03361345,,,,,,,,,,,,,,,,69.3736,70.6747,70.6748,77.2866,return,1.9143,,50.91145833,0,1,1,9,1,FBP-OG-81.png,0.45,1.2,10,0.5,,,,,,,,,,,,,,,,,,,,,,,,,,,,,,,,,,,,,,,,,,,,,
,,,,,SPR24_074,19,female,2024-04-22_15h32.36.966,jersey_experiment_5_v0,2023.2.2,Win32,84.03361345,,,,,,,,,,,,,,,,77.2868,78.3338,78.334,82.6399,return,1.3879,,50.52083333,0,2,2,52,1,FBP-PT-18.png,0.4,1.2,53,0.25,,,,,,,,,,,,,,,,,,,,,,,,,,,,,,,,,,,,,,,,,,,,,
,,,,,SPR24_074,19,female,2024-04-22_15h32.36.966,jersey_experiment_5_v0,2023.2.2,Win32,84.03361345,,,,,,,,,,,,,,,,82.6402,83.6867,83.6869,86.3694,return,0.8948,,75.390625,0,3,3,49,1,FBP-PT-17.png,0.45,1.2,50,0.25,,,,,,,,,,,,,,,,,,,,,,,,,,,,,,,,,,,,,,,,,,,,,
,,,,,SPR24_074,19,female,2024-04-22_15h32.36.966,jersey_experiment_5_v0,2023.2.2,Win32,84.03361345,,,,,,,,,,,,,,,,86.3697,87.6633,87.6635,89.8165,return,0.6068,,74.08854167,0,4,4,3,1,FBP-OG-71.png,0.43,1.2,4,0.5,,,,,,,,,,,,,,,,,,,,,,,,,,,,,,,,,,,,,,,,,,,,,
,,,,,SPR24_074,19,female,2024-04-22_15h32.36.966,jersey_experiment_5_v0,2023.2.2,Win32,84.03361345,,,,,,,,,,,,,,,,89.8168,90.8636,90.8638,98.711,return,4.7819,,51.43229167,0,5,5,53,1,FBP-PT-18.png,0.43,1.2,54,0.25,,,,,,,,,,,,,,,,,,,,,,,,,,,,,,,,,,,,,,,,,,,,,
,,,,,SPR24_074,19,female,2024-04-22_15h32.36.966,jersey_experiment_5_v0,2023.2.2,Win32,84.03361345,,,,,,,,,,,,,,,,98.7153,99.758,99.7581,102.57,return,0.2526,,49.86979167,0,6,6,47,1,FBP-PT-17.png,0.4,1.2,48,0.25,,,,,,,,,,,,,,,,,,,,,,,,,,,,,,,,,,,,,,,,,,,,,
,,,,,SPR24_074,19,female,2024-04-22_15h32.36.966,jersey_experiment_5_v0,2023.2.2,Win32,84.03361345,,,,,,,,,,,,,,,,102.5702,103.617,103.6171,106.923,return,0.5903,,56.25,0,7,7,19,1,FBP-YG-17.png,0.45,1.2,20,0.25,,,,,,,,,,,,,,,,,,,,,,,,,,,,,,,,,,,,,,,,,,,,,
,,,,,SPR24_074,19,female,2024-04-22_15h32.36.966,jersey_experiment_5_v0,2023.2.2,Win32,84.03361345,,,,,,,,,,,,,,,,106.9232,108.2172,108.2174,111.4408,return,0.4947,,74.86979167,0,8,8,4,1,FBP-OG-71.png,0.45,1.2,5,0.5,,,,,,,,,,,,,,,,,,,,,,,,,,,,,,,,,,,,,,,,,,,,,
,,,,,SPR24_074,19,female,2024-04-22_15h32.36.966,jersey_experiment_5_v0,2023.2.2,Win32,84.03361345,,,,,,,,,,,,,,,,111.4411,112.4878,112.4879,115.0173,return,0.45,,31.38020833,0,9,9,45,1,FBP-PT-17.png,0.35,1.2,46,0.25,,,,,,,,,,,,,,,,,,,,,,,,,,,,,,,,,,,,,,,,,,,,,
,,,,,SPR24_074,19,female,2024-04-22_15h32.36.966,jersey_experiment_5_v0,2023.2.2,Win32,84.03361345,,,,,,,,,,,,,,,,115.0177,116.3115,116.3117,117.9586,return,0.3962,,31.38020833,0,10,10,11,1,FBP-OG-91.png,0.37,1.2,12,0.5,,,,,,,,,,,,,,,,,,,,,,,,,,,,,,,,,,,,,,,,,,,,,
,,,,,SPR24_074,19,female,2024-04-22_15h32.36.966,jersey_experiment_5_v0,2023.2.2,Win32,84.03361345,,,,,,,,,,,,,,,,117.9588,119.2528,119.2531,122.7939,return,0.4995,,45.57291667,0,11,11,12,1,FBP-OG-91.png,0.4,1.2,13,0.5,,,,,,,,,,,,,,,,,,,,,,,,,,,,,,,,,,,,,,,,,,,,,
,,,,,SPR24_074,19,female,2024-04-22_15h32.36.966,jersey_experiment_5_v0,2023.2.2,Win32,84.03361345,,,,,,,,,,,,,,,,122.7942,123.8412,123.8414,126.8882,return,0.1954,,75,0,12,12,59,1,FBP-PT-19.png,0.45,1.2,60,0.25,,,,,,,,,,,,,,,,,,,,,,,,,,,,,,,,,,,,,,,,,,,,,
,,,,,SPR24_074,19,female,2024-04-22_15h32.36.966,jersey_experiment_5_v0,2023.2.2,Win32,84.03361345,,,,,,,,,,,,,,,,126.8885,127.9354,127.9356,131.065,return,0.2298,,35.41666667,0,13,13,50,1,FBP-PT-18.png,0.35,1.2,51,0.25,,,,,,,,,,,,,,,,,,,,,,,,,,,,,,,,,,,,,,,,,,,,,
,,,,,SPR24_074,19,female,2024-04-22_15h32.36.966,jersey_experiment_5_v0,2023.2.2,Win32,84.03361345,,,,,,,,,,,,,,,,131.0652,132.112,132.1121,133.3709,return,0.1809,,35.41666667,0,14,14,57,1,FBP-PT-19.png,0.4,1.2,58,0.25,,,,,,,,,,,,,,,,,,,,,,,,,,,,,,,,,,,,,,,,,,,,,
,,,,,SPR24_074,19,female,2024-04-22_15h32.36.966,jersey_experiment_5_v0,2023.2.2,Win32,84.03361345,,,,,,,,,,,,,,,,133.3712,134.4178,134.418,135.371,return,0.1571,,35.41666667,0,15,15,46,1,FBP-PT-17.png,0.37,1.2,47,0.25,,,,,,,,,,,,,,,,,,,,,,,,,,,,,,,,,,,,,,,,,,,,,
,,,,,SPR24_074,19,female,2024-04-22_15h32.36.966,jersey_experiment_5_v0,2023.2.2,Win32,84.03361345,,,,,,,,,,,,,,,,135.3712,136.4179,136.4182,139.0535,return,0.6701,,70.18229167,0,16,16,54,1,FBP-PT-18.png,0.45,1.2,55,0.25,,,,,,,,,,,,,,,,,,,,,,,,,,,,,,,,,,,,,,,,,,,,,
,,,,,SPR24_074,19,female,2024-04-22_15h32.36.966,jersey_experiment_5_v0,2023.2.2,Win32,84.03361345,,,,,,,,,,,,,,,,139.0536,140.3475,140.3477,141.9947,return,0.2496,,33.85416667,0,17,17,1,1,FBP-OG-71.png,0.37,1.2,2,0.5,,,,,,,,,,,,,,,,,,,,,,,,,,,,,,,,,,,,,,,,,,,,,
,,,,,SPR24_074,19,female,2024-04-22_15h32.36.966,jersey_experiment_5_v0,2023.2.2,Win32,84.03361345,,,,,,,,,,,,,,,,141.9949,143.2888,143.2891,149.0656,return,0.2764,,25.390625,0,18,18,35,1,FBP-RB-18.png,0.35,1.2,36,0.5,,,,,,,,,,,,,,,,,,,,,,,,,,,,,,,,,,,,,,,,,,,,,
,,,,,SPR24_074,19,female,2024-04-22_15h32.36.966,jersey_experiment_5_v0,2023.2.2,Win32,84.03361345,,,,,,,,,,,,,,,,149.0658,150.1127,150.1129,154.713,return,3.477,,33.85416667,0,19,19,22,1,FBP-YG-18.png,0.4,1.2,23,0.25,,,,,,,,,,,,,,,,,,,,,,,,,,,,,,,,,,,,,,,,,,,,,
,,,,,SPR24_074,19,female,2024-04-22_15h32.36.966,jersey_experiment_5_v0,2023.2.2,Win32,84.03361345,,,,,,,,,,,,,,,,154.7132,156.007,156.0072,158.3834,return,1.0123,,67.31770833,0,20,20,8,1,FBP-OG-81.png,0.43,1.2,9,0.5,,,,,,,,,,,,,,,,,,,,,,,,,,,,,,,,,,,,,,,,,,,,,
,,,,,SPR24_074,19,female,2024-04-22_15h32.36.966,jersey_experiment_5_v0,2023.2.2,Win32,84.03361345,,,,,,,,,,,,,,,,158.3838,159.6775,159.6777,161.8659,return,0.2524,,75.52083333,0,21,21,38,1,FBP-RB-18.png,0.43,1.2,39,0.5,,,,,,,,,,,,,,,,,,,,,,,,,,,,,,,,,,,,,,,,,,,,,
,,,,,SPR24_074,19,female,2024-04-22_15h32.36.966,jersey_experiment_5_v0,2023.2.2,Win32,84.03361345,,,,,,,,,,,,,,,,161.8662,163.1602,163.1604,165.5839,return,1.0355,,80.078125,0,22,22,14,1,FBP-OG-91.png,0.45,1.2,15,0.5,,,,,,,,,,,,,,,,,,,,,,,,,,,,,,,,,,,,,,,,,,,,,
,,,,,SPR24_074,19,female,2024-04-22_15h32.36.966,jersey_experiment_5_v0,2023.2.2,Win32,84.03361345,,,,,,,,,,,,,,,,165.5841,166.6308,166.6311,171.1369,return,1.4363,,73.828125,0,23,23,23,1,FBP-YG-18.png,0.43,1.2,24,0.25,,,,,,,,,,,,,,,,,,,,,,,,,,,,,,,,,,,,,,,,,,,,,
,,,,,SPR24_074,19,female,2024-04-22_15h32.36.966,jersey_experiment_5_v0,2023.2.2,Win32,84.03361345,,,,,,,,,,,,,,,,171.1372,172.1839,172.1841,175.8193,return,0.2979,,63.80208333,0,24,24,18,1,FBP-YG-17.png,0.43,1.2,19,0.25,,,,,,,,,,,,,,,,,,,,,,,,,,,,,,,,,,,,,,,,,,,,,
,,,,,SPR24_074,19,female,2024-04-22_15h32.36.966,jersey_experiment_5_v0,2023.2.2,Win32,84.03361345,,,,,,,,,,,,,,,,175.8195,177.1135,177.1137,179.4077,return,0.3393,,25,0,25,25,6,1,FBP-OG-81.png,0.37,1.2,7,0.5,,,,,,,,,,,,,,,,,,,,,,,,,,,,,,,,,,,,,,,,,,,,,
,,,,,SPR24_074,19,female,2024-04-22_15h32.36.966,jersey_experiment_5_v0,2023.2.2,Win32,84.03361345,,,,,,,,,,,,,,,,179.408,180.4547,180.455,181.3728,return,0.2968,,25.390625,0,26,26,51,1,FBP-PT-18.png,0.37,1.2,52,0.25,,,,,,,,,,,,,,,,,,,,,,,,,,,,,,,,,,,,,,,,,,,,,
,,,,,SPR24_074,19,female,2024-04-22_15h32.36.966,jersey_experiment_5_v0,2023.2.2,Win32,84.03361345,,,,,,,,,,,,,,,,181.3729,182.6667,182.6669,184.0432,return,0.404,,25.52083333,0,27,27,41,1,FBP-RB-19.png,0.37,1.2,42,0.5,,,,,,,,,,,,,,,,,,,,,,,,,,,,,,,,,,,,,,,,,,,,,
,,,,,SPR24_074,19,female,2024-04-22_15h32.36.966,jersey_experiment_5_v0,2023.2.2,Win32,84.03361345,,,,,,,,,,,,,,,,184.0435,185.3374,185.3376,186.1374,return,0.3351,,25.52083333,0,28,28,40,1,FBP-RB-19.png,0.35,1.2,41,0.5,,,,,,,,,,,,,,,,,,,,,,,,,,,,,,,,,,,,,,,,,,,,,
,,,,,SPR24_074,19,female,2024-04-22_15h32.36.966,jersey_experiment_5_v0,2023.2.2,Win32,84.03361345,,,,,,,,,,,,,,,,186.1377,187.1845,187.1848,189.1022,return,0.2452,,25.52083333,0,29,29,15,1,FBP-YG-17.png,0.35,1.2,16,0.25,,,,,,,,,,,,,,,,,,,,,,,,,,,,,,,,,,,,,,,,,,,,,
,,,,,SPR24_074,19,female,2024-04-22_15h32.36.966,jersey_experiment_5_v0,2023.2.2,Win32,84.03361345,,,,,,,,,,,,,,,,189.1025,190.3963,190.3965,191.1964,return,0.2011,,25.52083333,0,30,30,31,1,FBP-RB-17.png,0.37,1.2,32,0.5,,,,,,,,,,,,,,,,,,,,,,,,,,,,,,,,,,,,,,,,,,,,,
,,,,,SPR24_074,19,female,2024-04-22_15h32.36.966,jersey_experiment_5_v0,2023.2.2,Win32,84.03361345,,,,,,,,,,,,,,,,191.1966,192.4905,192.4908,194.2788,return,0.3376,,65.234375,0,31,31,33,1,FBP-RB-17.png,0.43,1.2,34,0.5,,,,,,,,,,,,,,,,,,,,,,,,,,,,,,,,,,,,,,,,,,,,,
,,,,,SPR24_074,19,female,2024-04-22_15h32.36.966,jersey_experiment_5_v0,2023.2.2,Win32,84.03361345,,,,,,,,,,,,,,,,194.279,195.5729,195.5732,197.1024,return,0.4005,,74.34895833,0,32,32,34,1,FBP-RB-17.png,0.45,1.2,35,0.5,,,,,,,,,,,,,,,,,,,,,,,,,,,,,,,,,,,,,,,,,,,,,
,,,,,SPR24_074,19,female,2024-04-22_15h32.36.966,jersey_experiment_5_v0,2023.2.2,Win32,84.03361345,,,,,,,,,,,,,,,,197.1025,198.1496,198.1498,199.6908,return,0.2397,,75.13020833,0,33,33,58,1,FBP-PT-19.png,0.43,1.2,59,0.25,,,,,,,,,,,,,,,,,,,,,,,,,,,,,,,,,,,,,,,,,,,,,
,,,,,SPR24_074,19,female,2024-04-22_15h32.36.966,jersey_experiment_5_v0,2023.2.2,Win32,84.03361345,,,,,,,,,,,,,,,,199.6909,200.9849,200.9851,203.4204,return,0.25,,33.33333333,0,34,34,10,1,FBP-OG-91.png,0.35,1.2,11,0.5,,,,,,,,,,,,,,,,,,,,,,,,,,,,,,,,,,,,,,,,,,,,,
,,,,,SPR24_074,19,female,2024-04-22_15h32.36.966,jersey_experiment_5_v0,2023.2.2,Win32,84.03361345,,,,,,,,,,,,,,,,203.4206,204.7145,204.7147,205.5262,return,0.1736,,33.72395833,0,35,35,5,1,FBP-OG-81.png,0.35,1.2,6,0.5,,,,,,,,,,,,,,,,,,,,,,,,,,,,,,,,,,,,,,,,,,,,,
,,,,,SPR24_074,19,female,2024-04-22_15h32.36.966,jersey_experiment_5_v0,2023.2.2,Win32,84.03361345,,,,,,,,,,,,,,,,205.5263,206.5734,206.5737,208.8441,return,0.3325,,75.26041667,0,36,36,28,1,FBP-YG-19.png,0.43,1.2,29,0.25,,,,,,,,,,,,,,,,,,,,,,,,,,,,,,,,,,,,,,,,,,,,,
,,,,,SPR24_074,19,female,2024-04-22_15h32.36.966,jersey_experiment_5_v0,2023.2.2,Win32,84.03361345,,,,,,,,,,,,,,,,208.8443,210.1382,210.1383,211.3031,return,0.2414,,82.03125,0,37,37,44,1,FBP-RB-19.png,0.45,1.2,45,0.5,,,,,,,,,,,,,,,,,,,,,,,,,,,,,,,,,,,,,,,,,,,,,
,,,,,SPR24_074,19,female,2024-04-22_15h32.36.966,jersey_experiment_5_v0,2023.2.2,Win32,84.03361345,,,,,,,,,,,,,,,,211.3033,212.3499,212.3502,213.9148,return,0.2042,,30.46875,0,38,38,56,1,FBP-PT-19.png,0.37,1.2,57,0.25,,,,,,,,,,,,,,,,,,,,,,,,,,,,,,,,,,,,,,,,,,,,,
,,,,,SPR24_074,19,female,2024-04-22_15h32.36.966,jersey_experiment_5_v0,2023.2.2,Win32,84.03361345,,,,,,,,,,,,,,,,213.915,215.209,215.2093,215.8207,return,0.2119,,30.46875,0,39,39,36,1,FBP-RB-18.png,0.37,1.2,37,0.5,,,,,,,,,,,,,,,,,,,,,,,,,,,,,,,,,,,,,,,,,,,,,
,,,,,SPR24_074,19,female,2024-04-22_15h32.36.966,jersey_experiment_5_v0,2023.2.2,Win32,84.03361345,,,,,,,,,,,,,,,,215.8209,217.115,217.1152,219.2798,return,0.3429,,53.125,0,40,40,13,1,FBP-OG-91.png,0.43,1.2,14,0.5,,,,,,,,,,,,,,,,,,,,,,,,,,,,,,,,,,,,,,,,,,,,,
,,,,,SPR24_074,19,female,2024-04-22_15h32.36.966,jersey_experiment_5_v0,2023.2.2,Win32,84.03361345,,,,,,,,,,,,,,,,219.2799,220.3267,220.3269,221.5268,return,0.1964,,30.078125,0,41,41,55,1,FBP-PT-19.png,0.35,1.2,56,0.25,,,,,,,,,,,,,,,,,,,,,,,,,,,,,,,,,,,,,,,,,,,,,
,,,,,SPR24_074,19,female,2024-04-22_15h32.36.966,jersey_experiment_5_v0,2023.2.2,Win32,84.03361345,,,,,,,,,,,,,,,,221.527,222.5742,222.5744,223.2916,return,0.1684,,30.20833333,0,42,42,16,1,FBP-YG-17.png,0.37,1.2,17,0.25,,,,,,,,,,,,,,,,,,,,,,,,,,,,,,,,,,,,,,,,,,,,,
,,,,,SPR24_074,19,female,2024-04-22_15h32.36.966,jersey_experiment_5_v0,2023.2.2,Win32,84.03361345,,,,,,,,,,,,,,,,223.2918,224.5858,224.5861,225.8096,return,0.188,,66.14583333,0,43,43,37,1,FBP-RB-18.png,0.4,1.2,38,0.5,,,,,,,,,,,,,,,,,,,,,,,,,,,,,,,,,,,,,,,,,,,,,
,,,,,SPR24_074,19,female,2024-04-22_15h32.36.966,jersey_experiment_5_v0,2023.2.2,Win32,84.03361345,,,,,,,,,,,,,,,,225.8098,226.8564,226.8566,228.1388,return,0.2256,,78.125,0,44,44,24,1,FBP-YG-18.png,0.45,1.2,25,0.25,,,,,,,,,,,,,,,,,,,,,,,,,,,,,,,,,,,,,,,,,,,,,
,,,,,SPR24_074,19,female,2024-04-22_15h32.36.966,jersey_experiment_5_v0,2023.2.2,Win32,84.03361345,,,,,,,,,,,,,,,,228.139,229.433,229.4331,230.539,return,0.2962,,86.58854167,0,45,45,39,1,FBP-RB-18.png,0.45,1.2,40,0.5,,,,,,,,,,,,,,,,,,,,,,,,,,,,,,,,,,,,,,,,,,,,,
,,,,,SPR24_074,19,female,2024-04-22_15h32.36.966,jersey_experiment_5_v0,2023.2.2,Win32,84.03361345,,,,,,,,,,,,,,,,230.5391,231.8331,231.8332,232.8567,return,0.3572,,86.06770833,0,46,46,42,1,FBP-RB-19.png,0.4,1.2,43,0.5,,,,,,,,,,,,,,,,,,,,,,,,,,,,,,,,,,,,,,,,,,,,,
,,,,,SPR24_074,19,female,2024-04-22_15h32.36.966,jersey_experiment_5_v0,2023.2.2,Win32,84.03361345,,,,,,,,,,,,,,,,232.8569,233.9037,233.9039,236.8567,return,0.2161,,73.828125,0,47,47,17,1,FBP-YG-17.png,0.4,1.2,18,0.25,,,,,,,,,,,,,,,,,,,,,,,,,,,,,,,,,,,,,,,,,,,,,
,,,,,SPR24_074,19,female,2024-04-22_15h32.36.966,jersey_experiment_5_v0,2023.2.2,Win32,84.03361345,,,,,,,,,,,,,,,,236.857,238.151,238.1512,239.6921,return,0.4734,,29.6875,0,48,48,30,1,FBP-RB-17.png,0.35,1.2,31,0.5,,,,,,,,,,,,,,,,,,,,,,,,,,,,,,,,,,,,,,,,,,,,,
,,,,,SPR24_074,19,female,2024-04-22_15h32.36.966,jersey_experiment_5_v0,2023.2.2,Win32,84.03361345,,,,,,,,,,,,,,,,239.6924,240.7393,240.7395,243.2099,return,0.323,,66.53645833,0,49,49,48,1,FBP-PT-17.png,0.43,1.2,49,0.25,,,,,,,,,,,,,,,,,,,,,,,,,,,,,,,,,,,,,,,,,,,,,
,,,,,SPR24_074,19,female,2024-04-22_15h32.36.966,jersey_experiment_5_v0,2023.2.2,Win32,84.03361345,,,,,,,,,,,,,,,,243.2101,244.2571,244.2572,245.8806,return,0.4166,,76.953125,0,50,50,29,1,FBP-YG-19.png,0.45,1.2,30,0.25,,,,,,,,,,,,,,,,,,,,,,,,,,,,,,,,,,,,,,,,,,,,,
,,,,,SPR24_074,19,female,2024-04-22_15h32.36.966,jersey_experiment_5_v0,2023.2.2,Win32,84.03361345,,,,,,,,,,,,,,,,245.8809,246.9277,246.9279,247.916,return,0.26,,76.953125,0,51,51,27,1,FBP-YG-19.png,0.4,1.2,28,0.25,,,,,,,,,,,,,,,,,,,,,,,,,,,,,,,,,,,,,,,,,,,,,
,,,,,SPR24_074,19,female,2024-04-22_15h32.36.966,jersey_experiment_5_v0,2023.2.2,Win32,84.03361345,,,,,,,,,,,,,,,,247.9163,249.2102,249.2103,250.0571,return,0.3237,,76.82291667,0,52,52,2,1,FBP-OG-71.png,0.4,1.2,3,0.5,,,,,,,,,,,,,,,,,,,,,,,,,,,,,,,,,,,,,,,,,,,,,
,,,,,SPR24_074,19,female,2024-04-22_15h32.36.966,jersey_experiment_5_v0,2023.2.2,Win32,84.03361345,,,,,,,,,,,,,,,,250.0574,251.1042,251.1045,251.9748,return,0.2996,,76.82291667,0,53,53,26,1,FBP-YG-19.png,0.37,1.2,27,0.25,,,,,,,,,,,,,,,,,,,,,,,,,,,,,,,,,,,,,,,,,,,,,
,,,,,SPR24_074,19,female,2024-04-22_15h32.36.966,jersey_experiment_5_v0,2023.2.2,Win32,84.03361345,,,,,,,,,,,,,,,,251.9751,253.0221,253.0223,254.7515,return,0.2354,,33.984375,0,54,54,20,1,FBP-YG-18.png,0.35,1.2,21,0.25,,,,,,,,,,,,,,,,,,,,,,,,,,,,,,,,,,,,,,,,,,,,,
,,,,,SPR24_074,19,female,2024-04-22_15h32.36.966,jersey_experiment_5_v0,2023.2.2,Win32,84.03361345,,,,,,,,,,,,,,,,254.7517,256.0456,256.0459,256.728,return,0.2659,,34.11458333,0,55,55,0,1,FBP-OG-71.png,0.35,1.2,1,0.5,,,,,,,,,,,,,,,,,,,,,,,,,,,,,,,,,,,,,,,,,,,,,
,,,,,SPR24_074,19,female,2024-04-22_15h32.36.966,jersey_experiment_5_v0,2023.2.2,Win32,84.03361345,,,,,,,,,,,,,,,,256.7281,258.0221,258.0224,259.9164,return,0.2128,,74.21875,0,56,56,43,1,FBP-RB-19.png,0.43,1.2,44,0.5,,,,,,,,,,,,,,,,,,,,,,,,,,,,,,,,,,,,,,,,,,,,,
,,,,,SPR24_074,19,female,2024-04-22_15h32.36.966,jersey_experiment_5_v0,2023.2.2,Win32,84.03361345,,,,,,,,,,,,,,,,259.9166,260.9634,260.9636,262.587,return,0.1779,,37.63020833,0,57,57,21,1,FBP-YG-18.png,0.37,1.2,22,0.25,,,,,,,,,,,,,,,,,,,,,,,,,,,,,,,,,,,,,,,,,,,,,
,,,,,SPR24_074,19,female,2024-04-22_15h32.36.966,jersey_experiment_5_v0,2023.2.2,Win32,84.03361345,,,,,,,,,,,,,,,,262.5873,263.8812,263.8814,265.8341,return,0.1791,,50,0,58,58,32,1,FBP-RB-17.png,0.4,1.2,33,0.5,,,,,,,,,,,,,,,,,,,,,,,,,,,,,,,,,,,,,,,,,,,,,
,,,,,SPR24_074,19,female,2024-04-22_15h32.36.966,jersey_experiment_5_v0,2023.2.2,Win32,84.03361345,,,,,,,,,,,,,,,,265.8343,267.1284,267.1286,267.7402,return,0.2011,,50,0,59,59,7,1,FBP-OG-81.png,0.4,1.2,8,0.5,,,,,,,,,,,,,,,,,,,,,,,,,,,,,,,,,,,,,,,,,,,,,
,,,,,SPR24_074,19,female,2024-04-22_15h32.36.966,jersey_experiment_5_v0,2023.2.2,Win32,84.03361345,,,,,,,,,,,,,,,,267.7423,268.7873,268.7875,270.0109,return,0.2513,,75.13020833,,,,,,FBP-YG-91.png,0.45,1.2,30,0.25,0,0,0,29,1,,,,,,,,,,,,,,,,,,,,,,,,,,,,,,,,,,,,,,,,
,,,,,SPR24_074,19,female,2024-04-22_15h32.36.966,jersey_experiment_5_v0,2023.2.2,Win32,84.03361345,,,,,,,,,,,,,,,,270.0112,271.3051,271.3053,271.9756,return,0.158,,74.86979167,,,,,,FBP-OG-19.png,0.43,1.2,14,0.5,0,1,1,13,1,,,,,,,,,,,,,,,,,,,,,,,,,,,,,,,,,,,,,,,,
,,,,,SPR24_074,19,female,2024-04-22_15h32.36.966,jersey_experiment_5_v0,2023.2.2,Win32,84.03361345,,,,,,,,,,,,,,,,271.9759,273.0226,273.0228,274.7993,return,0.1746,,49.86979167,,,,,,FBP-YG-71.png,0.4,1.2,18,0.25,0,2,2,17,1,,,,,,,,,,,,,,,,,,,,,,,,,,,,,,,,,,,,,,,,
,,,,,SPR24_074,19,female,2024-04-22_15h32.36.966,jersey_experiment_5_v0,2023.2.2,Win32,84.03361345,,,,,,,,,,,,,,,,274.7995,275.8463,275.8466,276.6229,return,0.1647,,49.86979167,,,,,,FBP-YG-81.png,0.4,1.2,23,0.25,0,3,3,22,1,,,,,,,,,,,,,,,,,,,,,,,,,,,,,,,,,,,,,,,,
,,,,,SPR24_074,19,female,2024-04-22_15h32.36.966,jersey_experiment_5_v0,2023.2.2,Win32,84.03361345,,,,,,,,,,,,,,,,276.6231,277.6699,277.6702,278.9994,return,0.1706,,73.828125,,,,,,FBP-YG-71.png,0.43,1.2,19,0.25,0,4,4,18,1,,,,,,,,,,,,,,,,,,,,,,,,,,,,,,,,,,,,,,,,
,,,,,SPR24_074,19,female,2024-04-22_15h32.36.966,jersey_experiment_5_v0,2023.2.2,Win32,84.03361345,,,,,,,,,,,,,,,,278.9997,280.2936,280.2938,280.7053,return,0.1511,,73.828125,,,,,,FBP-RB-81.png,0.4,1.2,38,0.5,0,5,5,37,1,,,,,,,,,,,,,,,,,,,,,,,,,,,,,,,,,,,,,,,,
,,,,,SPR24_074,19,female,2024-04-22_15h32.36.966,jersey_experiment_5_v0,2023.2.2,Win32,84.03361345,,,,,,,,,,,,,,,,280.7055,281.7525,281.7527,283.329,return,0.1316,,37.5,,,,,,FBP-PT-71.png,0.37,1.2,47,0.25,0,6,6,46,1,,,,,,,,,,,,,,,,,,,,,,,,,,,,,,,,,,,,,,,,
,,,,,SPR24_074,19,female,2024-04-22_15h32.36.966,jersey_experiment_5_v0,2023.2.2,Win32,84.03361345,,,,,,,,,,,,,,,,283.3292,284.6232,284.6233,285.1173,return,0.1549,,37.5,,,,,,FBP-OG-18.png,0.4,1.2,8,0.5,0,7,7,7,1,,,,,,,,,,,,,,,,,,,,,,,,,,,,,,,,,,,,,,,,
,,,,,SPR24_074,19,female,2024-04-22_15h32.36.966,jersey_experiment_5_v0,2023.2.2,Win32,84.03361345,,,,,,,,,,,,,,,,285.1176,286.1644,286.1646,287.5291,return,0.1937,,37.5,,,,,,FBP-YG-91.png,0.4,1.2,28,0.25,0,8,8,27,1,,,,,,,,,,,,,,,,,,,,,,,,,,,,,,,,,,,,,,,,
,,,,,SPR24_074,19,female,2024-04-22_15h32.36.966,jersey_experiment_5_v0,2023.2.2,Win32,84.03361345,,,,,,,,,,,,,,,,287.5293,288.8231,288.8233,290.1527,return,1.077,,27.34375,,,,,,FBP-OG-19.png,0.37,1.2,12,0.5,0,9,9,11,1,,,,,,,,,,,,,,,,,,,,,,,,,,,,,,,,,,,,,,,,
,,,,,SPR24_074,19,female,2024-04-22_15h32.36.966,jersey_experiment_5_v0,2023.2.2,Win32,84.03361345,,,,,,,,,,,,,,,,290.1529,291.4469,291.4471,292.647,return,0.1141,,69.79166667,,,,,,FBP-RB-71.png,0.43,1.2,34,0.5,0,10,10,33,1,,,,,,,,,,,,,,,,,,,,,,,,,,,,,,,,,,,,,,,,
,,,,,SPR24_074,19,female,2024-04-22_15h32.36.966,jersey_experiment_5_v0,2023.2.2,Win32,84.03361345,,,,,,,,,,,,,,,,292.6472,293.941,293.9412,294.7175,return,0.2964,,69.53125,,,,,,FBP-OG-17.png,0.4,1.2,3,0.5,0,11,11,2,1,,,,,,,,,,,,,,,,,,,,,,,,,,,,,,,,,,,,,,,,
,,,,,SPR24_074,19,female,2024-04-22_15h32.36.966,jersey_experiment_5_v0,2023.2.2,Win32,84.03361345,,,,,,,,,,,,,,,,294.7178,296.0118,296.012,297.0707,return,0.1648,,36.06770833,,,,,,FBP-OG-19.png,0.35,1.2,11,0.5,0,12,12,10,1,,,,,,,,,,,,,,,,,,,,,,,,,,,,,,,,,,,,,,,,
,,,,,SPR24_074,19,female,2024-04-22_15h32.36.966,jersey_experiment_5_v0,2023.2.2,Win32,84.03361345,,,,,,,,,,,,,,,,297.0709,298.3648,298.365,299.9179,return,0.1086,,50.13020833,,,,,,FBP-RB-81.png,0.37,1.2,37,0.5,0,13,13,36,1,,,,,,,,,,,,,,,,,,,,,,,,,,,,,,,,,,,,,,,,
,,,,,SPR24_074,19,female,2024-04-22_15h32.36.966,jersey_experiment_5_v0,2023.2.2,Win32,84.03361345,,,,,,,,,,,,,,,,299.9182,300.9648,300.9649,303.2708,return,0.149,,40.75520833,,,,,,FBP-YG-81.png,0.37,1.2,22,0.25,0,14,14,21,1,,,,,,,,,,,,,,,,,,,,,,,,,,,,,,,,,,,,,,,,
,,,,,SPR24_074,19,female,2024-04-22_15h32.36.966,jersey_experiment_5_v0,2023.2.2,Win32,84.03361345,,,,,,,,,,,,,,,,303.271,304.565,304.5652,306.2944,return,0.1719,,75.390625,,,,,,FBP-OG-18.png,0.45,1.2,10,0.5,0,15,15,9,1,,,,,,,,,,,,,,,,,,,,,,,,,,,,,,,,,,,,,,,,
,,,,,SPR24_074,19,female,2024-04-22_15h32.36.966,jersey_experiment_5_v0,2023.2.2,Win32,84.03361345,,,,,,,,,,,,,,,,306.2946,307.5885,307.5887,308.5536,return,0.1449,,85.546875,,,,,,FBP-RB-81.png,0.45,1.2,40,0.5,0,16,16,39,1,,,,,,,,,,,,,,,,,,,,,,,,,,,,,,,,,,,,,,,,
,,,,,SPR24_074,19,female,2024-04-22_15h32.36.966,jersey_experiment_5_v0,2023.2.2,Win32,84.03361345,,,,,,,,,,,,,,,,308.5537,309.6004,309.6007,311.224,return,0.1574,,32.03125,,,,,,FBP-YG-91.png,0.37,1.2,27,0.25,0,17,17,26,1,,,,,,,,,,,,,,,,,,,,,,,,,,,,,,,,,,,,,,,,
,,,,,SPR24_074,19,female,2024-04-22_15h32.36.966,jersey_experiment_5_v0,2023.2.2,Win32,84.03361345,,,,,,,,,,,,,,,,311.2243,312.5181,312.5183,314.5537,return,0.1921,,77.08333333,,,,,,FBP-OG-19.png,0.4,1.2,13,0.5,0,18,18,12,1,,,,,,,,,,,,,,,,,,,,,,,,,,,,,,,,,,,,,,,,
,,,,,SPR24_074,19,female,2024-04-22_15h32.36.966,jersey_experiment_5_v0,2023.2.2,Win32,84.03361345,,,,,,,,,,,,,,,,314.5539,315.6006,315.6008,317.083,return,0.1541,,48.56770833,,,,,,FBP-PT-91.png,0.37,1.2,57,0.25,0,19,19,56,1,,,,,,,,,,,,,,,,,,,,,,,,,,,,,,,,,,,,,,,,
,,,,,SPR24_074,19,female,2024-04-22_15h32.36.966,jersey_experiment_5_v0,2023.2.2,Win32,84.03361345,,,,,,,,,,,,,,,,317.0833,318.1301,318.1303,319.0831,return,0.1309,,48.56770833,,,,,,FBP-PT-71.png,0.4,1.2,48,0.25,0,20,20,47,1,,,,,,,,,,,,,,,,,,,,,,,,,,,,,,,,,,,,,,,,
,,,,,SPR24_074,19,female,2024-04-22_15h32.36.966,jersey_experiment_5_v0,2023.2.2,Win32,84.03361345,,,,,,,,,,,,,,,,319.0833,320.1302,320.1304,321.2245,return,0.1241,,59.50520833,,,,,,FBP-PT-91.png,0.4,1.2,58,0.25,0,21,21,57,1,,,,,,,,,,,,,,,,,,,,,,,,,,,,,,,,,,,,,,,,
,,,,,SPR24_074,19,female,2024-04-22_15h32.36.966,jersey_experiment_5_v0,2023.2.2,Win32,84.03361345,,,,,,,,,,,,,,,,321.2247,322.2715,322.2718,323.4951,return,0.2076,,74.86979167,,,,,,FBP-YG-91.png,0.43,1.2,29,0.25,0,22,22,28,1,,,,,,,,,,,,,,,,,,,,,,,,,,,,,,,,,,,,,,,,
,,,,,SPR24_074,19,female,2024-04-22_15h32.36.966,jersey_experiment_5_v0,2023.2.2,Win32,84.03361345,,,,,,,,,,,,,,,,323.4953,324.5421,324.5423,325.295,return,0.1048,,74.73958333,,,,,,FBP-PT-71.png,0.43,1.2,49,0.25,0,23,23,48,1,,,,,,,,,,,,,,,,,,,,,,,,,,,,,,,,,,,,,,,,
,,,,,SPR24_074,19,female,2024-04-22_15h32.36.966,jersey_experiment_5_v0,2023.2.2,Win32,84.03361345,,,,,,,,,,,,,,,,325.2952,326.5893,326.5894,327.6483,return,0.2224,,87.76041667,,,,,,FBP-OG-19.png,0.45,1.2,15,0.5,0,24,24,14,1,,,,,,,,,,,,,,,,,,,,,,,,,,,,,,,,,,,,,,,,
,,,,,SPR24_074,19,female,2024-04-22_15h32.36.966,jersey_experiment_5_v0,2023.2.2,Win32,84.03361345,,,,,,,,,,,,,,,,327.6485,328.6953,328.6955,330.2953,return,0.2408,,29.55729167,,,,,,FBP-PT-91.png,0.35,1.2,56,0.25,0,25,25,55,1,,,,,,,,,,,,,,,,,,,,,,,,,,,,,,,,,,,,,,,,
,,,,,SPR24_074,19,female,2024-04-22_15h32.36.966,jersey_experiment_5_v0,2023.2.2,Win32,84.03361345,,,,,,,,,,,,,,,,330.2956,331.5895,331.5896,332.8601,return,0.2357,,48.95833333,,,,,,FBP-RB-91.png,0.43,1.2,44,0.5,0,26,26,43,1,,,,,,,,,,,,,,,,,,,,,,,,,,,,,,,,,,,,,,,,
,,,,,SPR24_074,19,female,2024-04-22_15h32.36.966,jersey_experiment_5_v0,2023.2.2,Win32,84.03361345,,,,,,,,,,,,,,,,332.8603,334.1543,334.1545,334.8719,return,0.2047,,48.95833333,,,,,,FBP-RB-71.png,0.4,1.2,33,0.5,0,27,27,32,1,,,,,,,,,,,,,,,,,,,,,,,,,,,,,,,,,,,,,,,,
,,,,,SPR24_074,19,female,2024-04-22_15h32.36.966,jersey_experiment_5_v0,2023.2.2,Win32,84.03361345,,,,,,,,,,,,,,,,334.8721,336.1661,336.1664,337.2602,return,0.1642,,26.43229167,,,,,,FBP-OG-18.png,0.35,1.2,6,0.5,0,28,28,5,1,,,,,,,,,,,,,,,,,,,,,,,,,,,,,,,,,,,,,,,,
,,,,,SPR24_074,19,female,2024-04-22_15h32.36.966,jersey_experiment_5_v0,2023.2.2,Win32,84.03361345,,,,,,,,,,,,,,,,337.2605,338.5544,338.5547,339.2485,return,0.1413,,27.21354167,,,,,,FBP-OG-18.png,0.37,1.2,7,0.5,0,29,29,6,1,,,,,,,,,,,,,,,,,,,,,,,,,,,,,,,,,,,,,,,,
,,,,,SPR24_074,19,female,2024-04-22_15h32.36.966,jersey_experiment_5_v0,2023.2.2,Win32,84.03361345,,,,,,,,,,,,,,,,339.2487,340.2955,340.2957,340.8487,return,0.0848,,27.21354167,,,,,,FBP-YG-81.png,0.35,1.2,21,0.25,0,30,30,20,1,,,,,,,,,,,,,,,,,,,,,,,,,,,,,,,,,,,,,,,,
,,,,,SPR24_074,19,female,2024-04-22_15h32.36.966,jersey_experiment_5_v0,2023.2.2,Win32,84.03361345,,,,,,,,,,,,,,,,340.8489,341.8956,341.8958,342.6487,return,0.1003,,27.21354167,,,,,,FBP-YG-71.png,0.35,1.2,16,0.25,0,31,31,15,1,,,,,,,,,,,,,,,,,,,,,,,,,,,,,,,,,,,,,,,,
,,,,,SPR24_074,19,female,2024-04-22_15h32.36.966,jersey_experiment_5_v0,2023.2.2,Win32,84.03361345,,,,,,,,,,,,,,,,342.6489,343.9428,343.943,344.4134,return,0.223,,27.21354167,,,,,,FBP-RB-81.png,0.35,1.2,36,0.5,0,32,32,35,1,,,,,,,,,,,,,,,,,,,,,,,,,,,,,,,,,,,,,,,,
,,,,,SPR24_074,19,female,2024-04-22_15h32.36.966,jersey_experiment_5_v0,2023.2.2,Win32,84.03361345,,,,,,,,,,,,,,,,344.4136,345.7075,345.7077,346.9546,return,0.2257,,75.13020833,,,,,,FBP-RB-71.png,0.45,1.2,35,0.5,0,33,33,34,1,,,,,,,,,,,,,,,,,,,,,,,,,,,,,,,,,,,,,,,,
,,,,,SPR24_074,19,female,2024-04-22_15h32.36.966,jersey_experiment_5_v0,2023.2.2,Win32,84.03361345,,,,,,,,,,,,,,,,346.9549,348.0018,348.002,349.3077,return,0.1074,,25.78125,,,,,,FBP-PT-81.png,0.35,1.2,51,0.25,0,34,34,50,1,,,,,,,,,,,,,,,,,,,,,,,,,,,,,,,,,,,,,,,,
,,,,,SPR24_074,19,female,2024-04-22_15h32.36.966,jersey_experiment_5_v0,2023.2.2,Win32,84.03361345,,,,,,,,,,,,,,,,349.3078,350.6017,350.602,351.8372,return,0.1316,,49.47916667,,,,,,FBP-RB-91.png,0.4,1.2,43,0.5,0,35,35,42,1,,,,,,,,,,,,,,,,,,,,,,,,,,,,,,,,,,,,,,,,
,,,,,SPR24_074,19,female,2024-04-22_15h32.36.966,jersey_experiment_5_v0,2023.2.2,Win32,84.03361345,,,,,,,,,,,,,,,,351.8374,352.8842,352.8845,353.5195,return,0.071,,49.47916667,,,,,,FBP-PT-81.png,0.37,1.2,52,0.25,0,36,36,51,1,,,,,,,,,,,,,,,,,,,,,,,,,,,,,,,,,,,,,,,,
,,,,,SPR24_074,19,female,2024-04-22_15h32.36.966,jersey_experiment_5_v0,2023.2.2,Win32,84.03361345,,,,,,,,,,,,,,,,353.5197,354.8136,354.8138,355.8374,return,0.2119,,72.65625,,,,,,FBP-RB-81.png,0.43,1.2,39,0.5,0,37,37,38,1,,,,,,,,,,,,,,,,,,,,,,,,,,,,,,,,,,,,,,,,
,,,,,SPR24_074,19,female,2024-04-22_15h32.36.966,jersey_experiment_5_v0,2023.2.2,Win32,84.03361345,,,,,,,,,,,,,,,,355.8377,356.8844,356.8846,359.1315,return,1.5784,,41.66666667,,,,,,FBP-YG-71.png,0.37,1.2,17,0.25,0,38,38,16,1,,,,,,,,,,,,,,,,,,,,,,,,,,,,,,,,,,,,,,,,
,,,,,SPR24_074,19,female,2024-04-22_15h32.36.966,jersey_experiment_5_v0,2023.2.2,Win32,84.03361345,,,,,,,,,,,,,,,,359.1318,360.4258,360.426,361.6963,return,0.1642,,54.42708333,,,,,,FBP-OG-18.png,0.43,1.2,9,0.5,0,39,39,8,1,,,,,,,,,,,,,,,,,,,,,,,,,,,,,,,,,,,,,,,,
,,,,,SPR24_074,19,female,2024-04-22_15h32.36.966,jersey_experiment_5_v0,2023.2.2,Win32,84.03361345,,,,,,,,,,,,,,,,361.6966,362.7434,362.7436,363.8377,return,0.202,,74.08854167,,,,,,FBP-PT-91.png,0.45,1.2,60,0.25,0,40,40,59,1,,,,,,,,,,,,,,,,,,,,,,,,,,,,,,,,,,,,,,,,
,,,,,SPR24_074,19,female,2024-04-22_15h32.36.966,jersey_experiment_5_v0,2023.2.2,Win32,84.03361345,,,,,,,,,,,,,,,,363.8379,364.8846,364.8848,365.9317,return,0.2267,,75.91145833,,,,,,FBP-YG-81.png,0.43,1.2,24,0.25,0,41,41,23,1,,,,,,,,,,,,,,,,,,,,,,,,,,,,,,,,,,,,,,,,
,,,,,SPR24_074,19,female,2024-04-22_15h32.36.966,jersey_experiment_5_v0,2023.2.2,Win32,84.03361345,,,,,,,,,,,,,,,,365.932,367.226,367.2262,368.6731,return,0.212,,30.859375,,,,,,FBP-RB-71.png,0.35,1.2,31,0.5,0,42,42,30,1,,,,,,,,,,,,,,,,,,,,,,,,,,,,,,,,,,,,,,,,
,,,,,SPR24_074,19,female,2024-04-22_15h32.36.966,jersey_experiment_5_v0,2023.2.2,Win32,84.03361345,,,,,,,,,,,,,,,,368.6733,369.9673,369.9674,371.4145,return,0.1481,,82.55208333,,,,,,FBP-RB-91.png,0.45,1.2,45,0.5,0,43,43,44,1,,,,,,,,,,,,,,,,,,,,,,,,,,,,,,,,,,,,,,,,
,,,,,SPR24_074,19,female,2024-04-22_15h32.36.966,jersey_experiment_5_v0,2023.2.2,Win32,84.03361345,,,,,,,,,,,,,,,,371.4147,372.7086,372.7088,373.9437,return,0.2422,,28.515625,,,,,,FBP-RB-91.png,0.35,1.2,41,0.5,0,44,44,40,1,,,,,,,,,,,,,,,,,,,,,,,,,,,,,,,,,,,,,,,,
,,,,,SPR24_074,19,female,2024-04-22_15h32.36.966,jersey_experiment_5_v0,2023.2.2,Win32,84.03361345,,,,,,,,,,,,,,,,373.944,374.991,374.9912,376.497,return,0.2127,,84.11458333,,,,,,FBP-PT-71.png,0.45,1.2,50,0.25,0,45,45,49,1,,,,,,,,,,,,,,,,,,,,,,,,,,,,,,,,,,,,,,,,
,,,,,SPR24_074,19,female,2024-04-22_15h32.36.966,jersey_experiment_5_v0,2023.2.2,Win32,84.03361345,,,,,,,,,,,,,,,,376.4972,377.5439,377.5442,378.9087,return,0.2375,,50.65104167,,,,,,FBP-PT-81.png,0.4,1.2,53,0.25,0,46,46,52,1,,,,,,,,,,,,,,,,,,,,,,,,,,,,,,,,,,,,,,,,
,,,,,SPR24_074,19,female,2024-04-22_15h32.36.966,jersey_experiment_5_v0,2023.2.2,Win32,84.03361345,,,,,,,,,,,,,,,,378.909,380.2029,380.2031,381.8382,return,0.2491,,56.640625,,,,,,FBP-RB-91.png,0.37,1.2,42,0.5,0,47,47,41,1,,,,,,,,,,,,,,,,,,,,,,,,,,,,,,,,,,,,,,,,
,,,,,SPR24_074,19,female,2024-04-22_15h32.36.966,jersey_experiment_5_v0,2023.2.2,Win32,84.03361345,,,,,,,,,,,,,,,,381.8385,383.1325,383.1327,383.9913,return,0.3701,,57.68229167,,,,,,FBP-OG-17.png,0.37,1.2,2,0.5,0,48,48,1,1,,,,,,,,,,,,,,,,,,,,,,,,,,,,,,,,,,,,,,,,
,,,,,SPR24_074,19,female,2024-04-22_15h32.36.966,jersey_experiment_5_v0,2023.2.2,Win32,84.03361345,,,,,,,,,,,,,,,,383.9916,385.0383,385.0386,386.3796,return,0.203,,77.99479167,,,,,,FBP-PT-81.png,0.45,1.2,55,0.25,0,49,49,54,1,,,,,,,,,,,,,,,,,,,,,,,,,,,,,,,,,,,,,,,,
,,,,,SPR24_074,19,female,2024-04-22_15h32.36.966,jersey_experiment_5_v0,2023.2.2,Win32,84.03361345,,,,,,,,,,,,,,,,386.3798,387.4266,387.4268,388.3444,return,0.1573,,77.99479167,,,,,,FBP-PT-81.png,0.43,1.2,54,0.25,0,50,50,53,1,,,,,,,,,,,,,,,,,,,,,,,,,,,,,,,,,,,,,,,,
,,,,,SPR24_074,19,female,2024-04-22_15h32.36.966,jersey_experiment_5_v0,2023.2.2,Win32,84.03361345,,,,,,,,,,,,,,,,388.3445,389.3913,389.3916,390.3209,return,0.1178,,84.375,,,,,,FBP-YG-81.png,0.45,1.2,25,0.25,0,51,51,24,1,,,,,,,,,,,,,,,,,,,,,,,,,,,,,,,,,,,,,,,,
,,,,,SPR24_074,19,female,2024-04-22_15h32.36.966,jersey_experiment_5_v0,2023.2.2,Win32,84.03361345,,,,,,,,,,,,,,,,390.3211,391.615,391.6152,392.1562,return,0.1771,,83.984375,,,,,,FBP-OG-17.png,0.43,1.2,4,0.5,0,52,52,3,1,,,,,,,,,,,,,,,,,,,,,,,,,,,,,,,,,,,,,,,,
,,,,,SPR24_074,19,female,2024-04-22_15h32.36.966,jersey_experiment_5_v0,2023.2.2,Win32,84.03361345,,,,,,,,,,,,,,,,392.1564,393.4503,393.4504,394.1091,return,0.1663,,83.984375,,,,,,FBP-OG-17.png,0.45,1.2,5,0.5,0,53,53,4,1,,,,,,,,,,,,,,,,,,,,,,,,,,,,,,,,,,,,,,,,
,,,,,SPR24_074,19,female,2024-04-22_15h32.36.966,jersey_experiment_5_v0,2023.2.2,Win32,84.03361345,,,,,,,,,,,,,,,,394.1093,395.1562,395.1564,396.5447,return,0.1649,,29.296875,,,,,,FBP-PT-71.png,0.35,1.2,46,0.25,0,54,54,45,1,,,,,,,,,,,,,,,,,,,,,,,,,,,,,,,,,,,,,,,,
,,,,,SPR24_074,19,female,2024-04-22_15h32.36.966,jersey_experiment_5_v0,2023.2.2,Win32,84.03361345,,,,,,,,,,,,,,,,396.5449,397.8388,397.8391,398.3212,return,0.2124,,29.94791667,,,,,,FBP-OG-17.png,0.35,1.2,1,0.5,0,55,55,0,1,,,,,,,,,,,,,,,,,,,,,,,,,,,,,,,,,,,,,,,,
,,,,,SPR24_074,19,female,2024-04-22_15h32.36.966,jersey_experiment_5_v0,2023.2.2,Win32,84.03361345,,,,,,,,,,,,,,,,398.3214,399.3682,399.3685,400.8624,return,0.1891,,44.140625,,,,,,FBP-PT-91.png,0.43,1.2,59,0.25,0,56,56,58,1,,,,,,,,,,,,,,,,,,,,,,,,,,,,,,,,,,,,,,,,
,,,,,SPR24_074,19,female,2024-04-22_15h32.36.966,jersey_experiment_5_v0,2023.2.2,Win32,84.03361345,,,,,,,,,,,,,,,,400.8626,401.9096,401.9097,403.1918,return,0.1581,,68.359375,,,,,,FBP-YG-71.png,0.45,1.2,20,0.25,0,57,57,19,1,,,,,,,,,,,,,,,,,,,,,,,,,,,,,,,,,,,,,,,,
,,,,,SPR24_074,19,female,2024-04-22_15h32.36.966,jersey_experiment_5_v0,2023.2.2,Win32,84.03361345,,,,,,,,,,,,,,,,403.1922,404.2389,404.2391,405.6627,return,0.1274,,29.6875,,,,,,FBP-YG-91.png,0.35,1.2,26,0.25,0,58,58,25,1,,,,,,,,,,,,,,,,,,,,,,,,,,,,,,,,,,,,,,,,
,,,,,SPR24_074,19,female,2024-04-22_15h32.36.966,jersey_experiment_5_v0,2023.2.2,Win32,84.03361345,,,,,,,,,,,,,,,,405.6629,406.9566,406.9568,408.1451,return,0.1418,,29.16666667,,,,,,FBP-RB-71.png,0.37,1.2,32,0.5,0,59,59,31,1,,,,,,,,,,,,,,,,,,,,,,,,,,,,,,,,,,,,,,,,
,,,,,SPR24_074,19,female,2024-04-22_15h32.36.966,jersey_experiment_5_v0,2023.2.2,Win32,84.03361345,,,,,,,,,,,,,,,,,,,,,,,,,,,,,,,,,,,,,,,408.1454,528.1376,,,,,,,,,,,,,,,,,,,,,,,,,,,,,,,,,,,,,,
,,,,,SPR24_074,19,female,2024-04-22_15h32.36.966,jersey_experiment_5_v0,2023.2.2,Win32,84.03361345,,,,,,,,,,,,,,,,,,,,,,,,,,,,,,,,,,,,,,,,,528.1377,530.1375,return,1.9908,,,,,,,,,,,,,,,,,,,,,,,,,,,,,,,,,,
,,,,,SPR24_074,19,female,2024-04-22_15h32.36.966,jersey_experiment_5_v0,2023.2.2,Win32,84.03361345,,,,,,,,,,,,,,,,530.1438,531.4435,531.4438,535.3612,return,1.4119,,35.28645833,,,,,,FBP-PT-17.png,0.4,1.2,48,0.5,,,,,,,,,,,,,0,0,0,47,1,,,,,,,,,,,,,,,,,,,,,,,,,,,,
,,,,,SPR24_074,19,female,2024-04-22_15h32.36.966,jersey_experiment_5_v0,2023.2.2,Win32,84.03361345,,,,,,,,,,,,,,,,535.3617,536.4082,536.4084,537.1965,return,0.0823,,35.02604167,,,,,,FBP-RB-19.png,0.35,1.2,41,0.25,,,,,,,,,,,,,0,1,1,40,1,,,,,,,,,,,,,,,,,,,,,,,,,,,,
,,,,,SPR24_074,19,female,2024-04-22_15h32.36.966,jersey_experiment_5_v0,2023.2.2,Win32,84.03361345,,,,,,,,,,,,,,,,537.1968,538.2437,538.2438,539.9259,return,0.1026,,52.08333333,,,,,,FBP-RB-19.png,0.4,1.2,43,0.25,,,,,,,,,,,,,0,2,2,42,1,,,,,,,,,,,,,,,,,,,,,,,,,,,,
,,,,,SPR24_074,19,female,2024-04-22_15h32.36.966,jersey_experiment_5_v0,2023.2.2,Win32,84.03361345,,,,,,,,,,,,,,,,539.9262,541.2202,541.2203,542.1026,return,0.0904,,73.69791667,,,,,,FBP-YG-19.png,0.45,1.2,30,0.5,,,,,,,,,,,,,0,3,3,29,1,,,,,,,,,,,,,,,,,,,,,,,,,,,,
,,,,,SPR24_074,19,female,2024-04-22_15h32.36.966,jersey_experiment_5_v0,2023.2.2,Win32,84.03361345,,,,,,,,,,,,,,,,542.1029,543.3968,543.3971,543.785,return,0.1699,,73.56770833,,,,,,FBP-YG-17.png,0.45,1.2,20,0.5,,,,,,,,,,,,,0,4,4,19,1,,,,,,,,,,,,,,,,,,,,,,,,,,,,
,,,,,SPR24_074,19,female,2024-04-22_15h32.36.966,jersey_experiment_5_v0,2023.2.2,Win32,84.03361345,,,,,,,,,,,,,,,,543.7852,544.8321,544.8323,546.1496,return,0.091,,29.55729167,,,,,,FBP-RB-18.png,0.37,1.2,37,0.25,,,,,,,,,,,,,0,5,5,36,1,,,,,,,,,,,,,,,,,,,,,,,,,,,,
,,,,,SPR24_074,19,female,2024-04-22_15h32.36.966,jersey_experiment_5_v0,2023.2.2,Win32,84.03361345,,,,,,,,,,,,,,,,546.1498,547.1969,547.1971,547.8793,return,0.0637,,49.08854167,,,,,,FBP-OG-71.png,0.4,1.2,3,0.25,,,,,,,,,,,,,0,6,6,2,1,,,,,,,,,,,,,,,,,,,,,,,,,,,,
,,,,,SPR24_074,19,female,2024-04-22_15h32.36.966,jersey_experiment_5_v0,2023.2.2,Win32,84.03361345,,,,,,,,,,,,,,,,547.8795,549.1734,549.1736,550.2207,return,0.0471,,64.58333333,,,,,,FBP-PT-19.png,0.4,1.2,58,0.5,,,,,,,,,,,,,0,7,7,57,1,,,,,,,,,,,,,,,,,,,,,,,,,,,,
,,,,,SPR24_074,19,female,2024-04-22_15h32.36.966,jersey_experiment_5_v0,2023.2.2,Win32,84.03361345,,,,,,,,,,,,,,,,550.221,551.2675,551.2677,552.0912,return,0.074,,74.34895833,,,,,,FBP-OG-81.png,0.4,1.2,8,0.25,,,,,,,,,,,,,0,8,8,7,1,,,,,,,,,,,,,,,,,,,,,,,,,,,,
,,,,,SPR24_074,19,female,2024-04-22_15h32.36.966,jersey_experiment_5_v0,2023.2.2,Win32,84.03361345,,,,,,,,,,,,,,,,552.0915,553.1385,553.1386,554.6561,return,0.0326,,35.67708333,,,,,,FBP-OG-71.png,0.37,1.2,2,0.25,,,,,,,,,,,,,0,9,9,1,1,,,,,,,,,,,,,,,,,,,,,,,,,,,,
,,,,,SPR24_074,19,female,2024-04-22_15h32.36.966,jersey_experiment_5_v0,2023.2.2,Win32,84.03361345,,,,,,,,,,,,,,,,554.6563,555.7033,555.7035,556.362,return,0.0496,,35.67708333,,,,,,FBP-OG-91.png,0.37,1.2,12,0.25,,,,,,,,,,,,,0,10,10,11,1,,,,,,,,,,,,,,,,,,,,,,,,,,,,
,,,,,SPR24_074,19,female,2024-04-22_15h32.36.966,jersey_experiment_5_v0,2023.2.2,Win32,84.03361345,,,,,,,,,,,,,,,,556.3621,557.6563,557.6565,558.3737,return,0.0419,,50.13020833,,,,,,FBP-PT-17.png,0.37,1.2,47,0.5,,,,,,,,,,,,,0,11,11,46,1,,,,,,,,,,,,,,,,,,,,,,,,,,,,
,,,,,SPR24_074,19,female,2024-04-22_15h32.36.966,jersey_experiment_5_v0,2023.2.2,Win32,84.03361345,,,,,,,,,,,,,,,,558.3739,559.4208,559.4211,560.5502,return,0.02,,74.609375,,,,,,FBP-OG-91.png,0.43,1.2,14,0.25,,,,,,,,,,,,,0,12,12,13,1,,,,,,,,,,,,,,,,,,,,,,,,,,,,
,,,,,SPR24_074,19,female,2024-04-22_15h32.36.966,jersey_experiment_5_v0,2023.2.2,Win32,84.03361345,,,,,,,,,,,,,,,,560.5505,561.5974,561.5975,562.4445,return,0.0353,,82.8125,,,,,,FBP-OG-91.png,0.45,1.2,15,0.25,,,,,,,,,,,,,0,13,13,14,1,,,,,,,,,,,,,,,,,,,,,,,,,,,,
,,,,,SPR24_074,19,female,2024-04-22_15h32.36.966,jersey_experiment_5_v0,2023.2.2,Win32,84.03361345,,,,,,,,,,,,,,,,562.4448,563.7386,563.7389,564.4328,return,0.141,,87.76041667,,,,,,FBP-PT-18.png,0.43,1.2,54,0.5,,,,,,,,,,,,,0,14,14,53,1,,,,,,,,,,,,,,,,,,,,,,,,,,,,
,,,,,SPR24_074,19,female,2024-04-22_15h32.36.966,jersey_experiment_5_v0,2023.2.2,Win32,84.03361345,,,,,,,,,,,,,,,,564.433,565.7271,565.7274,567.4801,return,0.9338,,50.13020833,,,,,,FBP-PT-18.png,0.37,1.2,52,0.5,,,,,,,,,,,,,0,15,15,51,1,,,,,,,,,,,,,,,,,,,,,,,,,,,,
,,,,,SPR24_074,19,female,2024-04-22_15h32.36.966,jersey_experiment_5_v0,2023.2.2,Win32,84.03361345,,,,,,,,,,,,,,,,567.4803,568.7742,568.7742,569.786,return,0.0517,,29.296875,,,,,,FBP-PT-19.png,0.35,1.2,56,0.5,,,,,,,,,,,,,0,16,16,55,1,,,,,,,,,,,,,,,,,,,,,,,,,,,,
,,,,,SPR24_074,19,female,2024-04-22_15h32.36.966,jersey_experiment_5_v0,2023.2.2,Win32,84.03361345,,,,,,,,,,,,,,,,569.7861,570.8331,570.8332,572.2567,return,0.1883,,76.82291667,,,,,,FBP-RB-19.png,0.43,1.2,44,0.25,,,,,,,,,,,,,0,17,17,43,1,,,,,,,,,,,,,,,,,,,,,,,,,,,,
,,,,,SPR24_074,19,female,2024-04-22_15h32.36.966,jersey_experiment_5_v0,2023.2.2,Win32,84.03361345,,,,,,,,,,,,,,,,572.257,573.3037,573.3039,573.9743,return,0.0649,,76.82291667,,,,,,FBP-RB-18.png,0.43,1.2,39,0.25,,,,,,,,,,,,,0,18,18,38,1,,,,,,,,,,,,,,,,,,,,,,,,,,,,
,,,,,SPR24_074,19,female,2024-04-22_15h32.36.966,jersey_experiment_5_v0,2023.2.2,Win32,84.03361345,,,,,,,,,,,,,,,,573.9745,575.0214,575.0216,576.1978,return,0.0911,,80.72916667,,,,,,FBP-RB-18.png,0.4,1.2,38,0.25,,,,,,,,,,,,,0,19,19,37,1,,,,,,,,,,,,,,,,,,,,,,,,,,,,
,,,,,SPR24_074,19,female,2024-04-22_15h32.36.966,jersey_experiment_5_v0,2023.2.2,Win32,84.03361345,,,,,,,,,,,,,,,,576.198,577.245,577.2451,578.5391,return,0.0737,,30.33854167,,,,,,FBP-RB-17.png,0.35,1.2,31,0.25,,,,,,,,,,,,,0,20,20,30,1,,,,,,,,,,,,,,,,,,,,,,,,,,,,
,,,,,SPR24_074,19,female,2024-04-22_15h32.36.966,jersey_experiment_5_v0,2023.2.2,Win32,84.03361345,,,,,,,,,,,,,,,,578.5393,579.8333,579.8335,582.9393,return,0.1306,,51.5625,,,,,,FBP-YG-18.png,0.4,1.2,23,0.5,,,,,,,,,,,,,0,21,21,22,1,,,,,,,,,,,,,,,,,,,,,,,,,,,,
,,,,,SPR24_074,19,female,2024-04-22_15h32.36.966,jersey_experiment_5_v0,2023.2.2,Win32,84.03361345,,,,,,,,,,,,,,,,582.9395,584.2334,584.2336,585.4571,return,0.151,,57.8125,,,,,,FBP-YG-19.png,0.43,1.2,29,0.5,,,,,,,,,,,,,0,22,22,28,1,,,,,,,,,,,,,,,,,,,,,,,,,,,,
,,,,,SPR24_074,19,female,2024-04-22_15h32.36.966,jersey_experiment_5_v0,2023.2.2,Win32,84.03361345,,,,,,,,,,,,,,,,585.4574,586.7513,586.7514,587.516,return,0.0614,,66.92708333,,,,,,FBP-YG-19.png,0.4,1.2,28,0.5,,,,,,,,,,,,,0,23,23,27,1,,,,,,,,,,,,,,,,,,,,,,,,,,,,
,,,,,SPR24_074,19,female,2024-04-22_15h32.36.966,jersey_experiment_5_v0,2023.2.2,Win32,84.03361345,,,,,,,,,,,,,,,,587.5162,588.8101,588.8104,589.9277,return,0.1474,,67.578125,,,,,,FBP-PT-18.png,0.4,1.2,53,0.5,,,,,,,,,,,,,0,24,24,52,1,,,,,,,,,,,,,,,,,,,,,,,,,,,,
,,,,,SPR24_074,19,female,2024-04-22_15h32.36.966,jersey_experiment_5_v0,2023.2.2,Win32,84.03361345,,,,,,,,,,,,,,,,589.9279,590.975,590.9752,592.3162,return,0.1414,,82.29166667,,,,,,FBP-OG-71.png,0.45,1.2,5,0.25,,,,,,,,,,,,,0,25,25,4,1,,,,,,,,,,,,,,,,,,,,,,,,,,,,
,,,,,SPR24_074,19,female,2024-04-22_15h32.36.966,jersey_experiment_5_v0,2023.2.2,Win32,84.03361345,,,,,,,,,,,,,,,,592.3165,593.6103,593.6105,594.7162,return,0.132,,31.11979167,,,,,,FBP-PT-17.png,0.35,1.2,46,0.5,,,,,,,,,,,,,0,26,26,45,1,,,,,,,,,,,,,,,,,,,,,,,,,,,,
,,,,,SPR24_074,19,female,2024-04-22_15h32.36.966,jersey_experiment_5_v0,2023.2.2,Win32,84.03361345,,,,,,,,,,,,,,,,594.7164,596.0105,596.0106,596.8928,return,0.1055,,73.828125,,,,,,FBP-PT-17.png,0.45,1.2,50,0.5,,,,,,,,,,,,,0,27,27,49,1,,,,,,,,,,,,,,,,,,,,,,,,,,,,
,,,,,SPR24_074,19,female,2024-04-22_15h32.36.966,jersey_experiment_5_v0,2023.2.2,Win32,84.03361345,,,,,,,,,,,,,,,,596.893,597.9399,597.9401,598.9045,return,0.0882,,75.78125,,,,,,FBP-RB-19.png,0.45,1.2,45,0.25,,,,,,,,,,,,,0,28,28,44,1,,,,,,,,,,,,,,,,,,,,,,,,,,,,
,,,,,SPR24_074,19,female,2024-04-22_15h32.36.966,jersey_experiment_5_v0,2023.2.2,Win32,84.03361345,,,,,,,,,,,,,,,,598.9049,600.1987,600.199,601.34,return,0.1533,,29.296875,,,,,,FBP-YG-19.png,0.35,1.2,26,0.5,,,,,,,,,,,,,0,29,29,25,1,,,,,,,,,,,,,,,,,,,,,,,,,,,,
,,,,,SPR24_074,19,female,2024-04-22_15h32.36.966,jersey_experiment_5_v0,2023.2.2,Win32,84.03361345,,,,,,,,,,,,,,,,601.3403,602.3872,602.3875,603.7401,return,0.0963,,51.171875,,,,,,FBP-OG-81.png,0.37,1.2,7,0.25,,,,,,,,,,,,,0,30,30,6,1,,,,,,,,,,,,,,,,,,,,,,,,,,,,
,,,,,SPR24_074,19,female,2024-04-22_15h32.36.966,jersey_experiment_5_v0,2023.2.2,Win32,84.03361345,,,,,,,,,,,,,,,,603.7403,604.7871,604.7874,605.4224,return,0.0842,,51.171875,,,,,,FBP-RB-19.png,0.37,1.2,42,0.25,,,,,,,,,,,,,0,31,31,41,1,,,,,,,,,,,,,,,,,,,,,,,,,,,,
,,,,,SPR24_074,19,female,2024-04-22_15h32.36.966,jersey_experiment_5_v0,2023.2.2,Win32,84.03361345,,,,,,,,,,,,,,,,605.4227,606.7167,606.7169,608.3519,return,0.833,,62.5,,,,,,FBP-YG-17.png,0.4,1.2,18,0.5,,,,,,,,,,,,,0,32,32,17,1,,,,,,,,,,,,,,,,,,,,,,,,,,,,
,,,,,SPR24_074,19,female,2024-04-22_15h32.36.966,jersey_experiment_5_v0,2023.2.2,Win32,84.03361345,,,,,,,,,,,,,,,,608.3521,609.3991,609.3994,610.3285,return,0.053,,76.04166667,,,,,,FBP-OG-91.png,0.4,1.2,13,0.25,,,,,,,,,,,,,0,33,33,12,1,,,,,,,,,,,,,,,,,,,,,,,,,,,,
,,,,,SPR24_074,19,female,2024-04-22_15h32.36.966,jersey_experiment_5_v0,2023.2.2,Win32,84.03361345,,,,,,,,,,,,,,,,610.3287,611.6227,611.6229,612.4696,return,0.0323,,85.9375,,,,,,FBP-PT-19.png,0.45,1.2,60,0.5,,,,,,,,,,,,,0,34,34,59,1,,,,,,,,,,,,,,,,,,,,,,,,,,,,
,,,,,SPR24_074,19,female,2024-04-22_15h32.36.966,jersey_experiment_5_v0,2023.2.2,Win32,84.03361345,,,,,,,,,,,,,,,,612.4697,613.5169,613.5171,614.5874,return,0.0125,,32.94270833,,,,,,FBP-RB-17.png,0.4,1.2,33,0.25,,,,,,,,,,,,,0,35,35,32,1,,,,,,,,,,,,,,,,,,,,,,,,,,,,
,,,,,SPR24_074,19,female,2024-04-22_15h32.36.966,jersey_experiment_5_v0,2023.2.2,Win32,84.03361345,,,,,,,,,,,,,,,,614.5876,615.6347,615.6349,616.5876,return,0.1067,,30.859375,,,,,,FBP-RB-18.png,0.35,1.2,36,0.25,,,,,,,,,,,,,0,36,36,35,1,,,,,,,,,,,,,,,,,,,,,,,,,,,,
,,,,,SPR24_074,19,female,2024-04-22_15h32.36.966,jersey_experiment_5_v0,2023.2.2,Win32,84.03361345,,,,,,,,,,,,,,,,616.5879,617.6347,617.6349,618.9052,return,0.0505,,74.34895833,,,,,,FBP-RB-17.png,0.43,1.2,34,0.25,,,,,,,,,,,,,0,37,37,33,1,,,,,,,,,,,,,,,,,,,,,,,,,,,,
,,,,,SPR24_074,19,female,2024-04-22_15h32.36.966,jersey_experiment_5_v0,2023.2.2,Win32,84.03361345,,,,,,,,,,,,,,,,618.9055,619.9523,619.9525,620.6229,return,0.0141,,73.95833333,,,,,,FBP-OG-81.png,0.43,1.2,9,0.25,,,,,,,,,,,,,0,38,38,8,1,,,,,,,,,,,,,,,,,,,,,,,,,,,,
,,,,,SPR24_074,19,female,2024-04-22_15h32.36.966,jersey_experiment_5_v0,2023.2.2,Win32,84.03361345,,,,,,,,,,,,,,,,620.6232,621.9172,621.9174,622.9762,return,0.0477,,81.38020833,,,,,,FBP-PT-18.png,0.45,1.2,55,0.5,,,,,,,,,,,,,0,39,39,54,1,,,,,,,,,,,,,,,,,,,,,,,,,,,,
,,,,,SPR24_074,19,female,2024-04-22_15h32.36.966,jersey_experiment_5_v0,2023.2.2,Win32,84.03361345,,,,,,,,,,,,,,,,622.9764,624.023,624.0233,624.6232,return,0.0613,,81.38020833,,,,,,FBP-OG-71.png,0.43,1.2,4,0.25,,,,,,,,,,,,,0,40,40,3,1,,,,,,,,,,,,,,,,,,,,,,,,,,,,
,,,,,SPR24_074,19,female,2024-04-22_15h32.36.966,jersey_experiment_5_v0,2023.2.2,Win32,84.03361345,,,,,,,,,,,,,,,,624.6234,625.9173,625.9175,627.7764,return,0.1072,,50.65104167,,,,,,FBP-YG-18.png,0.35,1.2,21,0.5,,,,,,,,,,,,,0,41,41,20,1,,,,,,,,,,,,,,,,,,,,,,,,,,,,
,,,,,SPR24_074,19,female,2024-04-22_15h32.36.966,jersey_experiment_5_v0,2023.2.2,Win32,84.03361345,,,,,,,,,,,,,,,,627.7766,628.8232,628.8234,629.8939,return,0.0533,,83.85416667,,,,,,FBP-RB-17.png,0.45,1.2,35,0.25,,,,,,,,,,,,,0,42,42,34,1,,,,,,,,,,,,,,,,,,,,,,,,,,,,
,,,,,SPR24_074,19,female,2024-04-22_15h32.36.966,jersey_experiment_5_v0,2023.2.2,Win32,84.03361345,,,,,,,,,,,,,,,,629.894,631.1881,631.1883,631.7763,return,0.0707,,82.55208333,,,,,,FBP-PT-19.png,0.43,1.2,59,0.5,,,,,,,,,,,,,0,43,43,58,1,,,,,,,,,,,,,,,,,,,,,,,,,,,,
,,,,,SPR24_074,19,female,2024-04-22_15h32.36.966,jersey_experiment_5_v0,2023.2.2,Win32,84.03361345,,,,,,,,,,,,,,,,631.7766,633.0706,633.0708,634.0589,return,0.1426,,82.55208333,,,,,,FBP-PT-17.png,0.43,1.2,49,0.5,,,,,,,,,,,,,0,44,44,48,1,,,,,,,,,,,,,,,,,,,,,,,,,,,,
,,,,,SPR24_074,19,female,2024-04-22_15h32.36.966,jersey_experiment_5_v0,2023.2.2,Win32,84.03361345,,,,,,,,,,,,,,,,634.0592,635.1056,635.1059,636.1061,return,0.181,,90.10416667,,,,,,FBP-RB-18.png,0.45,1.2,40,0.25,,,,,,,,,,,,,0,45,45,39,1,,,,,,,,,,,,,,,,,,,,,,,,,,,,
,,,,,SPR24_074,19,female,2024-04-22_15h32.36.966,jersey_experiment_5_v0,2023.2.2,Win32,84.03361345,,,,,,,,,,,,,,,,636.1063,637.4002,637.4004,638.3416,return,0.1245,,28.64583333,,,,,,FBP-YG-17.png,0.35,1.2,16,0.5,,,,,,,,,,,,,0,46,46,15,1,,,,,,,,,,,,,,,,,,,,,,,,,,,,
,,,,,SPR24_074,19,female,2024-04-22_15h32.36.966,jersey_experiment_5_v0,2023.2.2,Win32,84.03361345,,,,,,,,,,,,,,,,638.3417,639.6354,639.6357,640.5884,return,0.129,,29.03645833,,,,,,FBP-PT-18.png,0.35,1.2,51,0.5,,,,,,,,,,,,,0,47,47,50,1,,,,,,,,,,,,,,,,,,,,,,,,,,,,
,,,,,SPR24_074,19,female,2024-04-22_15h32.36.966,jersey_experiment_5_v0,2023.2.2,Win32,84.03361345,,,,,,,,,,,,,,,,640.5887,641.8825,641.8827,642.8945,return,0.118,,29.03645833,,,,,,FBP-YG-17.png,0.37,1.2,17,0.5,,,,,,,,,,,,,0,48,48,16,1,,,,,,,,,,,,,,,,,,,,,,,,,,,,
,,,,,SPR24_074,19,female,2024-04-22_15h32.36.966,jersey_experiment_5_v0,2023.2.2,Win32,84.03361345,,,,,,,,,,,,,,,,642.8947,643.9415,643.9417,644.7179,return,0.0836,,50.390625,,,,,,FBP-RB-17.png,0.37,1.2,32,0.25,,,,,,,,,,,,,0,49,49,31,1,,,,,,,,,,,,,,,,,,,,,,,,,,,,
,,,,,SPR24_074,19,female,2024-04-22_15h32.36.966,jersey_experiment_5_v0,2023.2.2,Win32,84.03361345,,,,,,,,,,,,,,,,644.7181,646.0121,646.0122,646.8239,return,0.1238,,57.03125,,,,,,FBP-YG-19.png,0.37,1.2,27,0.5,,,,,,,,,,,,,0,50,50,26,1,,,,,,,,,,,,,,,,,,,,,,,,,,,,
,,,,,SPR24_074,19,female,2024-04-22_15h32.36.966,jersey_experiment_5_v0,2023.2.2,Win32,84.03361345,,,,,,,,,,,,,,,,646.8241,647.871,647.8712,648.6945,return,0.1138,,57.16145833,,,,,,FBP-OG-71.png,0.35,1.2,1,0.25,,,,,,,,,,,,,0,51,51,0,1,,,,,,,,,,,,,,,,,,,,,,,,,,,,
,,,,,SPR24_074,19,female,2024-04-22_15h32.36.966,jersey_experiment_5_v0,2023.2.2,Win32,84.03361345,,,,,,,,,,,,,,,,648.6947,649.7416,649.7419,650.3654,return,0.1324,,57.16145833,,,,,,FBP-OG-81.png,0.35,1.2,6,0.25,,,,,,,,,,,,,0,52,52,5,1,,,,,,,,,,,,,,,,,,,,,,,,,,,,
,,,,,SPR24_074,19,female,2024-04-22_15h32.36.966,jersey_experiment_5_v0,2023.2.2,Win32,84.03361345,,,,,,,,,,,,,,,,650.3656,651.6595,651.6596,652.6006,return,0.1684,,78.64583333,,,,,,FBP-YG-18.png,0.45,1.2,25,0.5,,,,,,,,,,,,,0,53,53,24,1,,,,,,,,,,,,,,,,,,,,,,,,,,,,
,,,,,SPR24_074,19,female,2024-04-22_15h32.36.966,jersey_experiment_5_v0,2023.2.2,Win32,84.03361345,,,,,,,,,,,,,,,,652.6008,653.8948,653.895,655.0948,return,0.1137,,70.57291667,,,,,,FBP-YG-18.png,0.43,1.2,24,0.5,,,,,,,,,,,,,0,54,54,23,1,,,,,,,,,,,,,,,,,,,,,,,,,,,,
,,,,,SPR24_074,19,female,2024-04-22_15h32.36.966,jersey_experiment_5_v0,2023.2.2,Win32,84.03361345,,,,,,,,,,,,,,,,655.0951,656.1419,656.1421,657.2007,return,0.1041,,47.00520833,,,,,,FBP-OG-91.png,0.35,1.2,11,0.25,,,,,,,,,,,,,0,55,55,10,1,,,,,,,,,,,,,,,,,,,,,,,,,,,,
,,,,,SPR24_074,19,female,2024-04-22_15h32.36.966,jersey_experiment_5_v0,2023.2.2,Win32,84.03361345,,,,,,,,,,,,,,,,657.2009,658.4949,658.4951,658.8479,return,0.0943,,47.265625,,,,,,FBP-PT-19.png,0.37,1.2,57,0.5,,,,,,,,,,,,,0,56,56,56,1,,,,,,,,,,,,,,,,,,,,,,,,,,,,
,,,,,SPR24_074,19,female,2024-04-22_15h32.36.966,jersey_experiment_5_v0,2023.2.2,Win32,84.03361345,,,,,,,,,,,,,,,,658.848,660.142,660.1421,660.5891,return,0.1898,,47.265625,,,,,,FBP-YG-18.png,0.37,1.2,22,0.5,,,,,,,,,,,,,0,57,57,21,1,,,,,,,,,,,,,,,,,,,,,,,,,,,,
,,,,,SPR24_074,19,female,2024-04-22_15h32.36.966,jersey_experiment_5_v0,2023.2.2,Win32,84.03361345,,,,,,,,,,,,,,,,660.5893,661.6363,661.6365,662.848,return,0.118,,83.72395833,,,,,,FBP-OG-81.png,0.45,1.2,10,0.25,,,,,,,,,,,,,0,58,58,9,1,,,,,,,,,,,,,,,,,,,,,,,,,,,,
,,,,,SPR24_074,19,female,2024-04-22_15h32.36.966,jersey_experiment_5_v0,2023.2.2,Win32,84.03361345,,,,,,,,,,,,,,,,662.8482,664.1421,664.1423,665.3422,return,0.165,,79.94791667,,,,,,FBP-YG-17.png,0.43,1.2,19,0.5,,,,,,,,,,,,,0,59,59,18,1,,,,,,,,,,,,,,,,,,,,,,,,,,,,
,,,,,SPR24_074,19,female,2024-04-22_15h32.36.966,jersey_experiment_5_v0,2023.2.2,Win32,84.03361345,,,,,,,,,,,,,,,,665.3436,666.3892,666.3894,667.4365,return,0.1525,,73.4375,,,,,,FBP-OG-17.png,0.4,1.2,3,0.25,,,,,,,,,,,,,,,,,,0,0,0,2,1,,,,,,,,,,,,,,,,,,,,,,,
,,,,,SPR24_074,19,female,2024-04-22_15h32.36.966,jersey_experiment_5_v0,2023.2.2,Win32,84.03361345,,,,,,,,,,,,,,,,667.4368,668.7307,668.7308,669.4247,return,0.0849,,49.73958333,,,,,,FBP-PT-71.png,0.35,1.2,46,0.5,,,,,,,,,,,,,,,,,,0,1,1,45,1,,,,,,,,,,,,,,,,,,,,,,,
,,,,,SPR24_074,19,female,2024-04-22_15h32.36.966,jersey_experiment_5_v0,2023.2.2,Win32,84.03361345,,,,,,,,,,,,,,,,669.425,670.4718,670.4721,672.1189,return,1.0993,,62.5,,,,,,FBP-OG-18.png,0.4,1.2,8,0.25,,,,,,,,,,,,,,,,,,0,2,2,7,1,,,,,,,,,,,,,,,,,,,,,,,
,,,,,SPR24_074,19,female,2024-04-22_15h32.36.966,jersey_experiment_5_v0,2023.2.2,Win32,84.03361345,,,,,,,,,,,,,,,,672.1191,673.166,673.1662,674.4719,return,0.2977,,29.16666667,,,,,,FBP-OG-19.png,0.35,1.2,11,0.25,,,,,,,,,,,,,,,,,,0,3,3,10,1,,,,,,,,,,,,,,,,,,,,,,,
,,,,,SPR24_074,19,female,2024-04-22_15h32.36.966,jersey_experiment_5_v0,2023.2.2,Win32,84.03361345,,,,,,,,,,,,,,,,674.4721,675.519,675.5192,676.6249,return,0.0944,,75.78125,,,,,,FBP-OG-19.png,0.43,1.2,14,0.25,,,,,,,,,,,,,,,,,,0,4,4,13,1,,,,,,,,,,,,,,,,,,,,,,,
,,,,,SPR24_074,19,female,2024-04-22_15h32.36.966,jersey_experiment_5_v0,2023.2.2,Win32,84.03361345,,,,,,,,,,,,,,,,676.6251,677.9192,677.9194,679.2133,return,0.1076,,38.15104167,,,,,,FBP-YG-91.png,0.35,1.2,26,0.5,,,,,,,,,,,,,,,,,,0,5,5,25,1,,,,,,,,,,,,,,,,,,,,,,,
,,,,,SPR24_074,19,female,2024-04-22_15h32.36.966,jersey_experiment_5_v0,2023.2.2,Win32,84.03361345,,,,,,,,,,,,,,,,679.2135,680.5075,680.5077,681.5664,return,0.0942,,81.25,,,,,,FBP-YG-91.png,0.45,1.2,30,0.5,,,,,,,,,,,,,,,,,,0,6,6,29,1,,,,,,,,,,,,,,,,,,,,,,,
,,,,,SPR24_074,19,female,2024-04-22_15h32.36.966,jersey_experiment_5_v0,2023.2.2,Win32,84.03361345,,,,,,,,,,,,,,,,681.5667,682.8605,682.8608,683.4487,return,0.1356,,84.50520833,,,,,,FBP-YG-91.png,0.4,1.2,28,0.5,,,,,,,,,,,,,,,,,,0,7,7,27,1,,,,,,,,,,,,,,,,,,,,,,,
,,,,,SPR24_074,19,female,2024-04-22_15h32.36.966,jersey_experiment_5_v0,2023.2.2,Win32,84.03361345,,,,,,,,,,,,,,,,683.4489,684.743,684.7431,685.4724,return,0.0616,,77.99479167,,,,,,FBP-YG-71.png,0.4,1.2,18,0.5,,,,,,,,,,,,,,,,,,0,8,8,17,1,,,,,,,,,,,,,,,,,,,,,,,
,,,,,SPR24_074,19,female,2024-04-22_15h32.36.966,jersey_experiment_5_v0,2023.2.2,Win32,84.03361345,,,,,,,,,,,,,,,,685.4726,686.5193,686.5196,687.8725,return,0.1182,,48.30729167,,,,,,FBP-OG-18.png,0.37,1.2,7,0.25,,,,,,,,,,,,,,,,,,0,9,9,6,1,,,,,,,,,,,,,,,,,,,,,,,
,,,,,SPR24_074,19,female,2024-04-22_15h32.36.966,jersey_experiment_5_v0,2023.2.2,Win32,84.03361345,,,,,,,,,,,,,,,,687.8727,689.1667,689.1669,691.7667,return,0.1103,,49.34895833,,,,,,FBP-PT-81.png,0.35,1.2,51,0.5,,,,,,,,,,,,,,,,,,0,10,10,50,1,,,,,,,,,,,,,,,,,,,,,,,
,,,,,SPR24_074,19,female,2024-04-22_15h32.36.966,jersey_experiment_5_v0,2023.2.2,Win32,84.03361345,,,,,,,,,,,,,,,,691.7669,692.8138,692.814,693.3196,return,0.0775,,49.47916667,,,,,,FBP-RB-91.png,0.35,1.2,41,0.25,,,,,,,,,,,,,,,,,,0,11,11,40,1,,,,,,,,,,,,,,,,,,,,,,,
,,,,,SPR24_074,19,female,2024-04-22_15h32.36.966,jersey_experiment_5_v0,2023.2.2,Win32,84.03361345,,,,,,,,,,,,,,,,693.3199,694.3667,694.367,695.5315,return,0.0264,,42.70833333,,,,,,FBP-RB-71.png,0.35,1.2,31,0.25,,,,,,,,,,,,,,,,,,0,12,12,30,1,,,,,,,,,,,,,,,,,,,,,,,
,,,,,SPR24_074,19,female,2024-04-22_15h32.36.966,jersey_experiment_5_v0,2023.2.2,Win32,84.03361345,,,,,,,,,,,,,,,,695.5317,696.8257,696.8259,697.6609,return,0.142,,76.5625,,,,,,FBP-PT-81.png,0.45,1.2,55,0.5,,,,,,,,,,,,,,,,,,0,13,13,54,1,,,,,,,,,,,,,,,,,,,,,,,
,,,,,SPR24_074,19,female,2024-04-22_15h32.36.966,jersey_experiment_5_v0,2023.2.2,Win32,84.03361345,,,,,,,,,,,,,,,,697.6612,698.708,698.7081,699.6375,return,0.0912,,76.30208333,,,,,,FBP-RB-81.png,0.45,1.2,40,0.25,,,,,,,,,,,,,,,,,,0,14,14,39,1,,,,,,,,,,,,,,,,,,,,,,,
,,,,,SPR24_074,19,female,2024-04-22_15h32.36.966,jersey_experiment_5_v0,2023.2.2,Win32,84.03361345,,,,,,,,,,,,,,,,699.6377,700.9317,700.9319,701.52,return,0.1405,,76.30208333,,,,,,FBP-PT-91.png,0.45,1.2,60,0.5,,,,,,,,,,,,,,,,,,0,15,15,59,1,,,,,,,,,,,,,,,,,,,,,,,
,,,,,SPR24_074,19,female,2024-04-22_15h32.36.966,jersey_experiment_5_v0,2023.2.2,Win32,84.03361345,,,,,,,,,,,,,,,,701.5203,702.8142,702.8144,703.8024,return,0.1573,,76.30208333,,,,,,FBP-YG-81.png,0.43,1.2,24,0.5,,,,,,,,,,,,,,,,,,0,16,16,23,1,,,,,,,,,,,,,,,,,,,,,,,
,,,,,SPR24_074,19,female,2024-04-22_15h32.36.966,jersey_experiment_5_v0,2023.2.2,Win32,84.03361345,,,,,,,,,,,,,,,,703.8026,704.8495,704.8497,705.6965,return,0.1174,,84.89583333,,,,,,FBP-RB-71.png,0.45,1.2,35,0.25,,,,,,,,,,,,,,,,,,0,17,17,34,1,,,,,,,,,,,,,,,,,,,,,,,
,,,,,SPR24_074,19,female,2024-04-22_15h32.36.966,jersey_experiment_5_v0,2023.2.2,Win32,84.03361345,,,,,,,,,,,,,,,,705.6968,706.7437,706.7438,707.7083,return,0.0609,,73.56770833,,,,,,FBP-RB-81.png,0.4,1.2,38,0.25,,,,,,,,,,,,,,,,,,0,18,18,37,1,,,,,,,,,,,,,,,,,,,,,,,
,,,,,SPR24_074,19,female,2024-04-22_15h32.36.966,jersey_experiment_5_v0,2023.2.2,Win32,84.03361345,,,,,,,,,,,,,,,,707.7086,709.0027,709.0029,709.7908,return,0.1275,,48.69791667,,,,,,FBP-YG-81.png,0.35,1.2,21,0.5,,,,,,,,,,,,,,,,,,0,19,19,20,1,,,,,,,,,,,,,,,,,,,,,,,
,,,,,SPR24_074,19,female,2024-04-22_15h32.36.966,jersey_experiment_5_v0,2023.2.2,Win32,84.03361345,,,,,,,,,,,,,,,,709.791,711.0849,711.0852,712.3908,return,0.0999,,90.625,,,,,,FBP-PT-71.png,0.45,1.2,50,0.5,,,,,,,,,,,,,,,,,,0,20,20,49,1,,,,,,,,,,,,,,,,,,,,,,,
,,,,,SPR24_074,19,female,2024-04-22_15h32.36.966,jersey_experiment_5_v0,2023.2.2,Win32,84.03361345,,,,,,,,,,,,,,,,712.3911,713.6852,713.6854,714.4967,return,0.0333,,85.41666667,,,,,,FBP-PT-71.png,0.43,1.2,49,0.5,,,,,,,,,,,,,,,,,,0,21,21,48,1,,,,,,,,,,,,,,,,,,,,,,,
,,,,,SPR24_074,19,female,2024-04-22_15h32.36.966,jersey_experiment_5_v0,2023.2.2,Win32,84.03361345,,,,,,,,,,,,,,,,714.497,715.5442,715.5445,716.2381,return,0.1648,,76.953125,,,,,,FBP-RB-71.png,0.37,1.2,32,0.25,,,,,,,,,,,,,,,,,,0,22,22,31,1,,,,,,,,,,,,,,,,,,,,,,,
,,,,,SPR24_074,19,female,2024-04-22_15h32.36.966,jersey_experiment_5_v0,2023.2.2,Win32,84.03361345,,,,,,,,,,,,,,,,716.2383,717.2852,717.2855,718.4617,return,0.0946,,87.5,,,,,,FBP-RB-71.png,0.43,1.2,34,0.25,,,,,,,,,,,,,,,,,,0,23,23,33,1,,,,,,,,,,,,,,,,,,,,,,,
,,,,,SPR24_074,19,female,2024-04-22_15h32.36.966,jersey_experiment_5_v0,2023.2.2,Win32,84.03361345,,,,,,,,,,,,,,,,718.4619,719.7559,719.7561,720.5912,return,0.1746,,87.63020833,,,,,,FBP-PT-81.png,0.43,1.2,54,0.5,,,,,,,,,,,,,,,,,,0,24,24,53,1,,,,,,,,,,,,,,,,,,,,,,,
,,,,,SPR24_074,19,female,2024-04-22_15h32.36.966,jersey_experiment_5_v0,2023.2.2,Win32,84.03361345,,,,,,,,,,,,,,,,720.5914,721.8853,721.8855,722.8854,return,0.1255,,74.73958333,,,,,,FBP-YG-81.png,0.4,1.2,23,0.5,,,,,,,,,,,,,,,,,,0,25,25,22,1,,,,,,,,,,,,,,,,,,,,,,,
,,,,,SPR24_074,19,female,2024-04-22_15h32.36.966,jersey_experiment_5_v0,2023.2.2,Win32,84.03361345,,,,,,,,,,,,,,,,722.8856,724.1795,724.1796,724.8736,return,0.1459,,74.73958333,,,,,,FBP-PT-81.png,0.4,1.2,53,0.5,,,,,,,,,,,,,,,,,,0,26,26,52,1,,,,,,,,,,,,,,,,,,,,,,,
,,,,,SPR24_074,19,female,2024-04-22_15h32.36.966,jersey_experiment_5_v0,2023.2.2,Win32,84.03361345,,,,,,,,,,,,,,,,724.8737,726.1678,726.1681,727.615,return,1.083,,50.65104167,,,,,,FBP-YG-91.png,0.37,1.2,27,0.5,,,,,,,,,,,,,,,,,,0,27,27,26,1,,,,,,,,,,,,,,,,,,,,,,,
,,,,,SPR24_074,19,female,2024-04-22_15h32.36.966,jersey_experiment_5_v0,2023.2.2,Win32,84.03361345,,,,,,,,,,,,,,,,727.6153,728.9091,728.9094,729.2739,return,0.1785,,50.91145833,,,,,,FBP-YG-81.png,0.37,1.2,22,0.5,,,,,,,,,,,,,,,,,,0,28,28,21,1,,,,,,,,,,,,,,,,,,,,,,,
,,,,,SPR24_074,19,female,2024-04-22_15h32.36.966,jersey_experiment_5_v0,2023.2.2,Win32,84.03361345,,,,,,,,,,,,,,,,729.2741,730.3209,730.3211,731.3915,return,0.8005,,61.84895833,,,,,,FBP-RB-91.png,0.43,1.2,44,0.25,,,,,,,,,,,,,,,,,,0,29,29,43,1,,,,,,,,,,,,,,,,,,,,,,,
,,,,,SPR24_074,19,female,2024-04-22_15h32.36.966,jersey_experiment_5_v0,2023.2.2,Win32,84.03361345,,,,,,,,,,,,,,,,731.3917,732.4386,732.4389,734.1564,return,0.1643,,81.25,,,,,,FBP-OG-17.png,0.45,1.2,5,0.25,,,,,,,,,,,,,,,,,,0,30,30,4,1,,,,,,,,,,,,,,,,,,,,,,,
,,,,,SPR24_074,19,female,2024-04-22_15h32.36.966,jersey_experiment_5_v0,2023.2.2,Win32,84.03361345,,,,,,,,,,,,,,,,734.1566,735.4505,735.4507,737.3683,return,0.1566,,33.72395833,,,,,,FBP-YG-71.png,0.35,1.2,16,0.5,,,,,,,,,,,,,,,,,,0,31,31,15,1,,,,,,,,,,,,,,,,,,,,,,,
,,,,,SPR24_074,19,female,2024-04-22_15h32.36.966,jersey_experiment_5_v0,2023.2.2,Win32,84.03361345,,,,,,,,,,,,,,,,737.3685,738.4153,738.4155,739.1801,return,0.1294,,35.15625,,,,,,FBP-OG-17.png,0.37,1.2,2,0.25,,,,,,,,,,,,,,,,,,0,32,32,1,1,,,,,,,,,,,,,,,,,,,,,,,
,,,,,SPR24_074,19,female,2024-04-22_15h32.36.966,jersey_experiment_5_v0,2023.2.2,Win32,84.03361345,,,,,,,,,,,,,,,,739.1803,740.4742,740.4745,741.1686,return,0.1787,,35.15625,,,,,,FBP-PT-71.png,0.37,1.2,47,0.5,,,,,,,,,,,,,,,,,,0,33,33,46,1,,,,,,,,,,,,,,,,,,,,,,,
,,,,,SPR24_074,19,female,2024-04-22_15h32.36.966,jersey_experiment_5_v0,2023.2.2,Win32,84.03361345,,,,,,,,,,,,,,,,741.1687,742.4625,742.4629,743.2272,return,0.1776,,53.38541667,,,,,,FBP-YG-91.png,0.43,1.2,29,0.5,,,,,,,,,,,,,,,,,,0,34,34,28,1,,,,,,,,,,,,,,,,,,,,,,,
,,,,,SPR24_074,19,female,2024-04-22_15h32.36.966,jersey_experiment_5_v0,2023.2.2,Win32,84.03361345,,,,,,,,,,,,,,,,743.2275,744.5214,744.5216,745.3097,return,0.1416,,75,,,,,,FBP-YG-71.png,0.45,1.2,20,0.5,,,,,,,,,,,,,,,,,,0,35,35,19,1,,,,,,,,,,,,,,,,,,,,,,,
,,,,,SPR24_074,19,female,2024-04-22_15h32.36.966,jersey_experiment_5_v0,2023.2.2,Win32,84.03361345,,,,,,,,,,,,,,,,745.31,746.3568,746.357,748.0159,return,0.1176,,36.97916667,,,,,,FBP-RB-81.png,0.35,1.2,36,0.25,,,,,,,,,,,,,,,,,,0,36,36,35,1,,,,,,,,,,,,,,,,,,,,,,,
,,,,,SPR24_074,19,female,2024-04-22_15h32.36.966,jersey_experiment_5_v0,2023.2.2,Win32,84.03361345,,,,,,,,,,,,,,,,748.0161,749.0628,749.0629,750.1334,return,0.0911,,52.734375,,,,,,FBP-RB-81.png,0.43,1.2,39,0.25,,,,,,,,,,,,,,,,,,0,37,37,38,1,,,,,,,,,,,,,,,,,,,,,,,
,,,,,SPR24_074,19,female,2024-04-22_15h32.36.966,jersey_experiment_5_v0,2023.2.2,Win32,84.03361345,,,,,,,,,,,,,,,,750.1335,751.1805,751.1806,752.3923,return,0.0986,,52.99479167,,,,,,FBP-RB-91.png,0.4,1.2,43,0.25,,,,,,,,,,,,,,,,,,0,38,38,42,1,,,,,,,,,,,,,,,,,,,,,,,
,,,,,SPR24_074,19,female,2024-04-22_15h32.36.966,jersey_experiment_5_v0,2023.2.2,Win32,84.03361345,,,,,,,,,,,,,,,,752.3925,753.4394,753.4396,754.1101,return,0.1311,,52.99479167,,,,,,FBP-OG-19.png,0.37,1.2,12,0.25,,,,,,,,,,,,,,,,,,0,39,39,11,1,,,,,,,,,,,,,,,,,,,,,,,
,,,,,SPR24_074,19,female,2024-04-22_15h32.36.966,jersey_experiment_5_v0,2023.2.2,Win32,84.03361345,,,,,,,,,,,,,,,,754.1104,755.1571,755.1573,756.1689,return,0.2275,,75.390625,,,,,,FBP-OG-17.png,0.43,1.2,4,0.25,,,,,,,,,,,,,,,,,,0,40,40,3,1,,,,,,,,,,,,,,,,,,,,,,,
,,,,,SPR24_074,19,female,2024-04-22_15h32.36.966,jersey_experiment_5_v0,2023.2.2,Win32,84.03361345,,,,,,,,,,,,,,,,756.1691,757.216,757.2162,758.3807,return,0.1901,,49.73958333,,,,,,FBP-OG-18.png,0.35,1.2,6,0.25,,,,,,,,,,,,,,,,,,0,41,41,5,1,,,,,,,,,,,,,,,,,,,,,,,
,,,,,SPR24_074,19,female,2024-04-22_15h32.36.966,jersey_experiment_5_v0,2023.2.2,Win32,84.03361345,,,,,,,,,,,,,,,,758.381,759.4278,759.4279,760.6516,return,0.1554,,27.734375,,,,,,FBP-OG-17.png,0.35,1.2,1,0.25,,,,,,,,,,,,,,,,,,0,42,42,0,1,,,,,,,,,,,,,,,,,,,,,,,
,,,,,SPR24_074,19,female,2024-04-22_15h32.36.966,jersey_experiment_5_v0,2023.2.2,Win32,84.03361345,,,,,,,,,,,,,,,,760.6518,761.6983,761.6986,762.9219,return,0.1551,,80.59895833,,,,,,FBP-OG-19.png,0.45,1.2,15,0.25,,,,,,,,,,,,,,,,,,0,43,43,14,1,,,,,,,,,,,,,,,,,,,,,,,
,,,,,SPR24_074,19,female,2024-04-22_15h32.36.966,jersey_experiment_5_v0,2023.2.2,Win32,84.03361345,,,,,,,,,,,,,,,,762.9222,763.9692,763.9694,765.6753,return,0.7324,,50,,,,,,FBP-RB-91.png,0.37,1.2,42,0.25,,,,,,,,,,,,,,,,,,0,44,44,41,1,,,,,,,,,,,,,,,,,,,,,,,
,,,,,SPR24_074,19,female,2024-04-22_15h32.36.966,jersey_experiment_5_v0,2023.2.2,Win32,84.03361345,,,,,,,,,,,,,,,,765.6756,766.9693,766.9695,768.381,return,0.4807,,79.296875,,,,,,FBP-YG-81.png,0.45,1.2,25,0.5,,,,,,,,,,,,,,,,,,0,45,45,24,1,,,,,,,,,,,,,,,,,,,,,,,
,,,,,SPR24_074,19,female,2024-04-22_15h32.36.966,jersey_experiment_5_v0,2023.2.2,Win32,84.03361345,,,,,,,,,,,,,,,,768.3813,769.6752,769.6753,770.6164,return,0.3586,,79.296875,,,,,,FBP-PT-91.png,0.43,1.2,59,0.5,,,,,,,,,,,,,,,,,,0,46,46,58,1,,,,,,,,,,,,,,,,,,,,,,,
,,,,,SPR24_074,19,female,2024-04-22_15h32.36.966,jersey_experiment_5_v0,2023.2.2,Win32,84.03361345,,,,,,,,,,,,,,,,770.6167,771.9106,771.9107,772.5694,return,0.1696,,79.296875,,,,,,FBP-PT-91.png,0.4,1.2,58,0.5,,,,,,,,,,,,,,,,,,0,47,47,57,1,,,,,,,,,,,,,,,,,,,,,,,
,,,,,SPR24_074,19,female,2024-04-22_15h32.36.966,jersey_experiment_5_v0,2023.2.2,Win32,84.03361345,,,,,,,,,,,,,,,,772.5696,773.6166,773.6169,775.1344,return,0.2827,,47.265625,,,,,,FBP-RB-81.png,0.37,1.2,37,0.25,,,,,,,,,,,,,,,,,,0,48,48,36,1,,,,,,,,,,,,,,,,,,,,,,,
,,,,,SPR24_074,19,female,2024-04-22_15h32.36.966,jersey_experiment_5_v0,2023.2.2,Win32,84.03361345,,,,,,,,,,,,,,,,775.1345,776.4282,776.4284,777.1579,return,0.1589,,47.39583333,,,,,,FBP-PT-71.png,0.4,1.2,48,0.5,,,,,,,,,,,,,,,,,,0,49,49,47,1,,,,,,,,,,,,,,,,,,,,,,,
,,,,,SPR24_074,19,female,2024-04-22_15h32.36.966,jersey_experiment_5_v0,2023.2.2,Win32,84.03361345,,,,,,,,,,,,,,,,777.158,778.452,778.4522,779.4874,return,0.1412,,33.72395833,,,,,,FBP-YG-71.png,0.37,1.2,17,0.5,,,,,,,,,,,,,,,,,,0,50,50,16,1,,,,,,,,,,,,,,,,,,,,,,,
,,,,,SPR24_074,19,female,2024-04-22_15h32.36.966,jersey_experiment_5_v0,2023.2.2,Win32,84.03361345,,,,,,,,,,,,,,,,779.4876,780.5344,780.5347,781.9463,return,0.2133,,77.34375,,,,,,FBP-RB-91.png,0.45,1.2,45,0.25,,,,,,,,,,,,,,,,,,0,51,51,44,1,,,,,,,,,,,,,,,,,,,,,,,
,,,,,SPR24_074,19,female,2024-04-22_15h32.36.966,jersey_experiment_5_v0,2023.2.2,Win32,84.03361345,,,,,,,,,,,,,,,,781.9465,782.9935,782.9936,783.6641,return,0.1319,,77.34375,,,,,,FBP-OG-19.png,0.4,1.2,13,0.25,,,,,,,,,,,,,,,,,,0,52,52,12,1,,,,,,,,,,,,,,,,,,,,,,,
,,,,,SPR24_074,19,female,2024-04-22_15h32.36.966,jersey_experiment_5_v0,2023.2.2,Win32,84.03361345,,,,,,,,,,,,,,,,783.6643,784.7111,784.7113,785.4522,return,0.1552,,89.19270833,,,,,,FBP-OG-18.png,0.45,1.2,10,0.25,,,,,,,,,,,,,,,,,,0,53,53,9,1,,,,,,,,,,,,,,,,,,,,,,,
,,,,,SPR24_074,19,female,2024-04-22_15h32.36.966,jersey_experiment_5_v0,2023.2.2,Win32,84.03361345,,,,,,,,,,,,,,,,785.4524,786.7464,786.7467,787.6053,return,0.0892,,48.828125,,,,,,FBP-PT-81.png,0.37,1.2,52,0.5,,,,,,,,,,,,,,,,,,0,54,54,51,1,,,,,,,,,,,,,,,,,,,,,,,
,,,,,SPR24_074,19,female,2024-04-22_15h32.36.966,jersey_experiment_5_v0,2023.2.2,Win32,84.03361345,,,,,,,,,,,,,,,,787.6054,788.8995,788.8997,789.6406,return,0.1113,,64.19270833,,,,,,FBP-YG-71.png,0.43,1.2,19,0.5,,,,,,,,,,,,,,,,,,0,55,55,18,1,,,,,,,,,,,,,,,,,,,,,,,
,,,,,SPR24_074,19,female,2024-04-22_15h32.36.966,jersey_experiment_5_v0,2023.2.2,Win32,84.03361345,,,,,,,,,,,,,,,,789.6409,790.6878,790.6879,791.5584,return,0.1823,,76.69270833,,,,,,FBP-OG-18.png,0.43,1.2,9,0.25,,,,,,,,,,,,,,,,,,0,56,56,8,1,,,,,,,,,,,,,,,,,,,,,,,
,,,,,SPR24_074,19,female,2024-04-22_15h32.36.966,jersey_experiment_5_v0,2023.2.2,Win32,84.03361345,,,,,,,,,,,,,,,,791.5586,792.8527,792.8529,793.582,return,0.104,,50,,,,,,FBP-PT-91.png,0.35,1.2,56,0.5,,,,,,,,,,,,,,,,,,0,57,57,55,1,,,,,,,,,,,,,,,,,,,,,,,
,,,,,SPR24_074,19,female,2024-04-22_15h32.36.966,jersey_experiment_5_v0,2023.2.2,Win32,84.03361345,,,,,,,,,,,,,,,,793.5821,794.6291,794.6293,795.982,return,0.118,,64.453125,,,,,,FBP-RB-71.png,0.4,1.2,33,0.25,,,,,,,,,,,,,,,,,,0,58,58,32,1,,,,,,,,,,,,,,,,,,,,,,,
,,,,,SPR24_074,19,female,2024-04-22_15h32.36.966,jersey_experiment_5_v0,2023.2.2,Win32,84.03361345,,,,,,,,,,,,,,,,795.9823,797.2763,797.2766,798.2058,return,0.1543,,66.015625,,,,,,FBP-PT-91.png,0.37,1.2,57,0.5,,,,,,,,,,,,,,,,,,0,59,59,56,1,,,,,,,,,,,,,,,,,,,,,,,
,,,,,SPR24_074,19,female,2024-04-22_15h32.36.966,jersey_experiment_5_v0,2023.2.2,Win32,84.03361345,,,,,,,,,,,,,,,,,,,,,,,,,,,,,,,,,,,,,,,,,,,,,,,,,,,,,,,,798.2062,800.7825,return,2.5642,,,,,,,,,,,,,,,,,,,
,,,,,SPR24_074,19,female,2024-04-22_15h32.36.966,jersey_experiment_5_v0,2023.2.2,Win32,84.03361345,,,,,,,,,,,,,,,,,,,,,,,,,,,,,,,,,,,,,,,,,,,,,,,,,,,,,,,,,,,,,800.7827,804.606,1,3.0021,return,0.8007,,,,,,,,,,,,
,,,,,SPR24_074,19,female,2024-04-22_15h32.36.966,jersey_experiment_5_v0,2023.2.2,Win32,84.03361345,,,,,,,,,,,,,,,,,,,,,,,,,,,,,,,,,,,,,,,,,,,,,,,,,,,,,,,,,,,,,,,,,,,,804.6061,830.9408,no,right,7.3911,,,,,,
,,,,,SPR24_074,19,female,2024-04-22_15h32.36.966,jersey_experiment_5_v0,2023.2.2,Win32,84.03361345,,,,,,,,,,,,,,,,,,,,,,,,,,,,,,,,,,,,,,,,,,,,,,,,,,,,,,,,,,,,,,,,,,,,,,,,,,830.9409,833.5011,return,2.5496,