requirements.started,requirements.stopped,key_resp_3.keys,key_resp_3.rt,key_resp_3.duration,Subject ID,Age,Gender,date,expName,psychopyVersion,OS,frameRate,instructions1.started,instructions1.stopped,key_resp.keys,key_resp.rt,key_resp.duration,example.started,example.stopped,enter_2.keys,enter_2.rt,enter_2.duration,instructions2.started,instructions2.stopped,enter_3.keys,enter_3.rt,enter_3.duration,image.started,image.stopped,slider_2.started,slider_2.stopped,next.keys,next.rt,next.duration,slider.response,trial_block_1.thisRepN,trial_block_1.thisTrialN,trial_block_1.thisN,trial_block_1.thisIndex,trial_block_1.ran,Path,Width,Height,Index,Duration,trial_block_2.thisRepN,trial_block_2.thisTrialN,trial_block_2.thisN,trial_block_2.thisIndex,trial_block_2.ran,rest_break.started,rest_break.stopped,end_break.started,end_break.stopped,key_resp_5.keys,key_resp_5.rt,key_resp_5.duration,trial_block_3.thisRepN,trial_block_3.thisTrialN,trial_block_3.thisN,trial_block_3.thisIndex,trial_block_3.ran,trial_block_4.thisRepN,trial_block_4.thisTrialN,trial_block_4.thisN,trial_block_4.thisIndex,trial_block_4.ran,questions_intro.started,questions_intro.stopped,enter_12.keys,enter_12.rt,enter_12.duration,question2.started,question2.stopped,question_doingbest.response,question_doingbest.rt,enter_15.keys,enter_15.rt,enter_15.duration,pattern.started,pattern.stopped,pattern_2.text,enter_17.keys,enter_17.rt,enter_17.duration,thankyou.started,thankyou.stopped,enter_14.keys,enter_14.rt,enter_14.duration
0.0002,8.4563,return,8.448,,SPR24_054,18,Female,2024-04-16_16h16.01.858,jersey_experiment_5_v0,2023.2.2,Win32,85.47008547,,,,,,,,,,,,,,,,,,,,,,,,,,,,,,,,,,,,,,,,,,,,,,,,,,,,,,,,,,,,,,,,,,,,,,,,,,,,,,
,,,,,SPR24_054,18,Female,2024-04-16_16h16.01.858,jersey_experiment_5_v0,2023.2.2,Win32,85.47008547,8.4565,12.5152,return,4.0508,,,,,,,,,,,,,,,,,,,,,,,,,,,,,,,,,,,,,,,,,,,,,,,,,,,,,,,,,,,,,,,,,,,,,,,,,,
,,,,,SPR24_054,18,Female,2024-04-16_16h16.01.858,jersey_experiment_5_v0,2023.2.2,Win32,85.47008547,,,,,,12.5153,15.3505,return,2.8027,,,,,,,,,,,,,,,,,,,,,,,,,,,,,,,,,,,,,,,,,,,,,,,,,,,,,,,,,,,,,,,,,,,,,
,,,,,SPR24_054,18,Female,2024-04-16_16h16.01.858,jersey_experiment_5_v0,2023.2.2,Win32,85.47008547,,,,,,,,,,,15.3505,21.2567,return,5.8937,,,,,,,,,,,,,,,,,,,,,,,,,,,,,,,,,,,,,,,,,,,,,,,,,,,,,,,,,,,,,,,,
,,,,,SPR24_054,18,Female,2024-04-16_16h16.01.858,jersey_experiment_5_v0,2023.2.2,Win32,85.47008547,,,,,,,,,,,,,,,,21.2652,22.3154,22.3155,28.5509,return,1.6828,,32.16145833,0,0,0,58,1,FBP-PT-19.png,0.43,1.2,59,0.25,,,,,,,,,,,,,,,,,,,,,,,,,,,,,,,,,,,,,,,,,,,,,
,,,,,SPR24_054,18,Female,2024-04-16_16h16.01.858,jersey_experiment_5_v0,2023.2.2,Win32,85.47008547,,,,,,,,,,,,,,,,28.5513,29.598,29.598,35.1158,return,1.2943,,31.90104167,0,1,1,54,1,FBP-PT-18.png,0.45,1.2,55,0.25,,,,,,,,,,,,,,,,,,,,,,,,,,,,,,,,,,,,,,,,,,,,,
,,,,,SPR24_054,18,Female,2024-04-16_16h16.01.858,jersey_experiment_5_v0,2023.2.2,Win32,85.47008547,,,,,,,,,,,,,,,,35.1161,36.1629,36.1629,39.5278,return,0.6255,,26.04166667,0,2,2,21,1,FBP-YG-18.png,0.37,1.2,22,0.25,,,,,,,,,,,,,,,,,,,,,,,,,,,,,,,,,,,,,,,,,,,,,
,,,,,SPR24_054,18,Female,2024-04-16_16h16.01.858,jersey_experiment_5_v0,2023.2.2,Win32,85.47008547,,,,,,,,,,,,,,,,39.5279,40.8219,40.8221,44.0338,return,0.9256,,25.91145833,0,3,3,36,1,FBP-RB-18.png,0.37,1.2,37,0.5,,,,,,,,,,,,,,,,,,,,,,,,,,,,,,,,,,,,,,,,,,,,,
,,,,,SPR24_054,18,Female,2024-04-16_16h16.01.858,jersey_experiment_5_v0,2023.2.2,Win32,85.47008547,,,,,,,,,,,,,,,,44.034,45.0808,45.0808,47.5281,return,0.6492,,60.28645833,0,4,4,53,1,FBP-PT-18.png,0.43,1.2,54,0.25,,,,,,,,,,,,,,,,,,,,,,,,,,,,,,,,,,,,,,,,,,,,,
,,,,,SPR24_054,18,Female,2024-04-16_16h16.01.858,jersey_experiment_5_v0,2023.2.2,Win32,85.47008547,,,,,,,,,,,,,,,,47.5283,48.8223,48.8223,51.4812,return,0.6492,,49.609375,0,5,5,1,1,FBP-OG-71.png,0.37,1.2,2,0.5,,,,,,,,,,,,,,,,,,,,,,,,,,,,,,,,,,,,,,,,,,,,,
,,,,,SPR24_054,18,Female,2024-04-16_16h16.01.858,jersey_experiment_5_v0,2023.2.2,Win32,85.47008547,,,,,,,,,,,,,,,,51.4815,52.5282,52.5282,56.1049,return,1.3885,,31.77083333,0,6,6,16,1,FBP-YG-17.png,0.37,1.2,17,0.25,,,,,,,,,,,,,,,,,,,,,,,,,,,,,,,,,,,,,,,,,,,,,
,,,,,SPR24_054,18,Female,2024-04-16_16h16.01.858,jersey_experiment_5_v0,2023.2.2,Win32,85.47008547,,,,,,,,,,,,,,,,56.1051,57.1519,57.152,58.6461,return,0.4972,,31.51041667,0,7,7,22,1,FBP-YG-18.png,0.4,1.2,23,0.25,,,,,,,,,,,,,,,,,,,,,,,,,,,,,,,,,,,,,,,,,,,,,
,,,,,SPR24_054,18,Female,2024-04-16_16h16.01.858,jersey_experiment_5_v0,2023.2.2,Win32,85.47008547,,,,,,,,,,,,,,,,58.6463,59.6932,59.6932,62.6111,return,1.2652,,82.421875,0,8,8,29,1,FBP-YG-19.png,0.45,1.2,30,0.25,,,,,,,,,,,,,,,,,,,,,,,,,,,,,,,,,,,,,,,,,,,,,
,,,,,SPR24_054,18,Female,2024-04-16_16h16.01.858,jersey_experiment_5_v0,2023.2.2,Win32,85.47008547,,,,,,,,,,,,,,,,62.6114,63.6581,63.6581,66.4582,return,0.4238,,11.97916667,0,9,9,50,1,FBP-PT-18.png,0.35,1.2,51,0.25,,,,,,,,,,,,,,,,,,,,,,,,,,,,,,,,,,,,,,,,,,,,,
,,,,,SPR24_054,18,Female,2024-04-16_16h16.01.858,jersey_experiment_5_v0,2023.2.2,Win32,85.47008547,,,,,,,,,,,,,,,,66.4585,67.7524,67.7524,70.3642,return,0.471,,78.125,0,10,10,14,1,FBP-OG-91.png,0.45,1.2,15,0.5,,,,,,,,,,,,,,,,,,,,,,,,,,,,,,,,,,,,,,,,,,,,,
,,,,,SPR24_054,18,Female,2024-04-16_16h16.01.858,jersey_experiment_5_v0,2023.2.2,Win32,85.47008547,,,,,,,,,,,,,,,,70.3644,71.6584,71.6584,73.5408,return,0.5222,,27.34375,0,11,11,42,1,FBP-RB-19.png,0.4,1.2,43,0.5,,,,,,,,,,,,,,,,,,,,,,,,,,,,,,,,,,,,,,,,,,,,,
,,,,,SPR24_054,18,Female,2024-04-16_16h16.01.858,jersey_experiment_5_v0,2023.2.2,Win32,85.47008547,,,,,,,,,,,,,,,,73.541,74.8348,74.8348,76.8114,return,0.6922,,77.86458333,0,12,12,9,1,FBP-OG-81.png,0.45,1.2,10,0.5,,,,,,,,,,,,,,,,,,,,,,,,,,,,,,,,,,,,,,,,,,,,,
,,,,,SPR24_054,18,Female,2024-04-16_16h16.01.858,jersey_experiment_5_v0,2023.2.2,Win32,85.47008547,,,,,,,,,,,,,,,,76.8117,77.8586,77.8587,81.9293,return,2.9318,,53.515625,0,13,13,48,1,FBP-PT-17.png,0.43,1.2,49,0.25,,,,,,,,,,,,,,,,,,,,,,,,,,,,,,,,,,,,,,,,,,,,,
,,,,,SPR24_054,18,Female,2024-04-16_16h16.01.858,jersey_experiment_5_v0,2023.2.2,Win32,85.47008547,,,,,,,,,,,,,,,,81.9296,83.2235,83.2236,84.9529,return,0.5049,,43.48958333,0,14,14,8,1,FBP-OG-81.png,0.43,1.2,9,0.5,,,,,,,,,,,,,,,,,,,,,,,,,,,,,,,,,,,,,,,,,,,,,
,,,,,SPR24_054,18,Female,2024-04-16_16h16.01.858,jersey_experiment_5_v0,2023.2.2,Win32,85.47008547,,,,,,,,,,,,,,,,84.953,86.2471,86.2471,87.9061,return,0.6075,,28.125,0,15,15,41,1,FBP-RB-19.png,0.37,1.2,42,0.5,,,,,,,,,,,,,,,,,,,,,,,,,,,,,,,,,,,,,,,,,,,,,
,,,,,SPR24_054,18,Female,2024-04-16_16h16.01.858,jersey_experiment_5_v0,2023.2.2,Win32,85.47008547,,,,,,,,,,,,,,,,87.9063,88.9531,88.9531,90.6355,return,0.5077,,60.41666667,0,16,16,57,1,FBP-PT-19.png,0.4,1.2,58,0.25,,,,,,,,,,,,,,,,,,,,,,,,,,,,,,,,,,,,,,,,,,,,,
,,,,,SPR24_054,18,Female,2024-04-16_16h16.01.858,jersey_experiment_5_v0,2023.2.2,Win32,85.47008547,,,,,,,,,,,,,,,,90.6357,91.9297,91.9297,93.4121,return,0.545,,79.55729167,0,17,17,3,1,FBP-OG-71.png,0.43,1.2,4,0.5,,,,,,,,,,,,,,,,,,,,,,,,,,,,,,,,,,,,,,,,,,,,,
,,,,,SPR24_054,18,Female,2024-04-16_16h16.01.858,jersey_experiment_5_v0,2023.2.2,Win32,85.47008547,,,,,,,,,,,,,,,,93.4122,94.4591,94.4591,96.9064,return,0.4578,,40.49479167,0,18,18,27,1,FBP-YG-19.png,0.4,1.2,28,0.25,,,,,,,,,,,,,,,,,,,,,,,,,,,,,,,,,,,,,,,,,,,,,
,,,,,SPR24_054,18,Female,2024-04-16_16h16.01.858,jersey_experiment_5_v0,2023.2.2,Win32,85.47008547,,,,,,,,,,,,,,,,96.9065,97.9535,97.9536,99.6357,return,0.547,,54.42708333,0,19,19,52,1,FBP-PT-18.png,0.4,1.2,53,0.25,,,,,,,,,,,,,,,,,,,,,,,,,,,,,,,,,,,,,,,,,,,,,
,,,,,SPR24_054,18,Female,2024-04-16_16h16.01.858,jersey_experiment_5_v0,2023.2.2,Win32,85.47008547,,,,,,,,,,,,,,,,99.636,100.93,100.93,102.0359,return,0.4861,,59.24479167,0,20,20,37,1,FBP-RB-18.png,0.4,1.2,38,0.5,,,,,,,,,,,,,,,,,,,,,,,,,,,,,,,,,,,,,,,,,,,,,
,,,,,SPR24_054,18,Female,2024-04-16_16h16.01.858,jersey_experiment_5_v0,2023.2.2,Win32,85.47008547,,,,,,,,,,,,,,,,102.0361,103.0831,103.0831,104.5184,return,0.4481,,30.33854167,0,21,21,46,1,FBP-PT-17.png,0.37,1.2,47,0.25,,,,,,,,,,,,,,,,,,,,,,,,,,,,,,,,,,,,,,,,,,,,,
,,,,,SPR24_054,18,Female,2024-04-16_16h16.01.858,jersey_experiment_5_v0,2023.2.2,Win32,85.47008547,,,,,,,,,,,,,,,,104.5186,105.5655,105.5655,107.8127,return,0.4737,,20.57291667,0,22,22,45,1,FBP-PT-17.png,0.35,1.2,46,0.25,,,,,,,,,,,,,,,,,,,,,,,,,,,,,,,,,,,,,,,,,,,,,
,,,,,SPR24_054,18,Female,2024-04-16_16h16.01.858,jersey_experiment_5_v0,2023.2.2,Win32,85.47008547,,,,,,,,,,,,,,,,107.8129,109.1067,109.1068,110.4716,return,0.4847,,16.14583333,0,23,23,30,1,FBP-RB-17.png,0.35,1.2,31,0.5,,,,,,,,,,,,,,,,,,,,,,,,,,,,,,,,,,,,,,,,,,,,,
,,,,,SPR24_054,18,Female,2024-04-16_16h16.01.858,jersey_experiment_5_v0,2023.2.2,Win32,85.47008547,,,,,,,,,,,,,,,,110.4718,111.7659,111.7659,113.1305,return,0.6964,,9.114583333,0,24,24,10,1,FBP-OG-91.png,0.35,1.2,11,0.5,,,,,,,,,,,,,,,,,,,,,,,,,,,,,,,,,,,,,,,,,,,,,
,,,,,SPR24_054,18,Female,2024-04-16_16h16.01.858,jersey_experiment_5_v0,2023.2.2,Win32,85.47008547,,,,,,,,,,,,,,,,113.1308,114.1775,114.1775,115.7659,return,0.4957,,53.38541667,0,25,25,26,1,FBP-YG-19.png,0.37,1.2,27,0.25,,,,,,,,,,,,,,,,,,,,,,,,,,,,,,,,,,,,,,,,,,,,,
,,,,,SPR24_054,18,Female,2024-04-16_16h16.01.858,jersey_experiment_5_v0,2023.2.2,Win32,85.47008547,,,,,,,,,,,,,,,,115.766,116.813,116.8131,118.6247,return,0.9028,,92.05729167,0,26,26,49,1,FBP-PT-17.png,0.45,1.2,50,0.25,,,,,,,,,,,,,,,,,,,,,,,,,,,,,,,,,,,,,,,,,,,,,
,,,,,SPR24_054,18,Female,2024-04-16_16h16.01.858,jersey_experiment_5_v0,2023.2.2,Win32,85.47008547,,,,,,,,,,,,,,,,118.6249,119.9189,119.9189,121.7663,return,0.543,,64.71354167,0,27,27,7,1,FBP-OG-81.png,0.4,1.2,8,0.5,,,,,,,,,,,,,,,,,,,,,,,,,,,,,,,,,,,,,,,,,,,,,
,,,,,SPR24_054,18,Female,2024-04-16_16h16.01.858,jersey_experiment_5_v0,2023.2.2,Win32,85.47008547,,,,,,,,,,,,,,,,121.7663,123.0604,123.0604,125.7074,return,1.765,,72.52604167,0,28,28,13,1,FBP-OG-91.png,0.43,1.2,14,0.5,,,,,,,,,,,,,,,,,,,,,,,,,,,,,,,,,,,,,,,,,,,,,
,,,,,SPR24_054,18,Female,2024-04-16_16h16.01.858,jersey_experiment_5_v0,2023.2.2,Win32,85.47008547,,,,,,,,,,,,,,,,125.7076,126.7545,126.7545,128.437,return,0.5226,,28.515625,0,29,29,15,1,FBP-YG-17.png,0.35,1.2,16,0.25,,,,,,,,,,,,,,,,,,,,,,,,,,,,,,,,,,,,,,,,,,,,,
,,,,,SPR24_054,18,Female,2024-04-16_16h16.01.858,jersey_experiment_5_v0,2023.2.2,Win32,85.47008547,,,,,,,,,,,,,,,,128.4372,129.7312,129.7312,131.9312,return,0.5657,,78.25520833,0,30,30,34,1,FBP-RB-17.png,0.45,1.2,35,0.5,,,,,,,,,,,,,,,,,,,,,,,,,,,,,,,,,,,,,,,,,,,,,
,,,,,SPR24_054,18,Female,2024-04-16_16h16.01.858,jersey_experiment_5_v0,2023.2.2,Win32,85.47008547,,,,,,,,,,,,,,,,131.9314,133.2253,133.2253,139.1433,return,0.577,,50.13020833,0,31,31,43,1,FBP-RB-19.png,0.43,1.2,44,0.5,,,,,,,,,,,,,,,,,,,,,,,,,,,,,,,,,,,,,,,,,,,,,
,,,,,SPR24_054,18,Female,2024-04-16_16h16.01.858,jersey_experiment_5_v0,2023.2.2,Win32,85.47008547,,,,,,,,,,,,,,,,139.1434,140.4374,140.4374,142.2963,return,0.4343,,54.94791667,0,32,32,32,1,FBP-RB-17.png,0.4,1.2,33,0.5,,,,,,,,,,,,,,,,,,,,,,,,,,,,,,,,,,,,,,,,,,,,,
,,,,,SPR24_054,18,Female,2024-04-16_16h16.01.858,jersey_experiment_5_v0,2023.2.2,Win32,85.47008547,,,,,,,,,,,,,,,,142.2965,143.3434,143.3435,145.4022,return,0.6822,,79.6875,0,33,33,19,1,FBP-YG-17.png,0.45,1.2,20,0.25,,,,,,,,,,,,,,,,,,,,,,,,,,,,,,,,,,,,,,,,,,,,,
,,,,,SPR24_054,18,Female,2024-04-16_16h16.01.858,jersey_experiment_5_v0,2023.2.2,Win32,85.47008547,,,,,,,,,,,,,,,,145.4024,146.6963,146.6964,148.2142,return,0.4726,,29.94791667,0,34,34,35,1,FBP-RB-18.png,0.35,1.2,36,0.5,,,,,,,,,,,,,,,,,,,,,,,,,,,,,,,,,,,,,,,,,,,,,
,,,,,SPR24_054,18,Female,2024-04-16_16h16.01.858,jersey_experiment_5_v0,2023.2.2,Win32,85.47008547,,,,,,,,,,,,,,,,148.2144,149.5083,149.5083,152.4026,return,1.8635,,28.125,0,35,35,6,1,FBP-OG-81.png,0.37,1.2,7,0.5,,,,,,,,,,,,,,,,,,,,,,,,,,,,,,,,,,,,,,,,,,,,,
,,,,,SPR24_054,18,Female,2024-04-16_16h16.01.858,jersey_experiment_5_v0,2023.2.2,Win32,85.47008547,,,,,,,,,,,,,,,,152.4027,153.6967,153.6967,155.5437,return,0.6002,,74.21875,0,36,36,33,1,FBP-RB-17.png,0.43,1.2,34,0.5,,,,,,,,,,,,,,,,,,,,,,,,,,,,,,,,,,,,,,,,,,,,,
,,,,,SPR24_054,18,Female,2024-04-16_16h16.01.858,jersey_experiment_5_v0,2023.2.2,Win32,85.47008547,,,,,,,,,,,,,,,,155.544,156.838,156.838,158.391,return,0.507,,46.61458333,0,37,37,31,1,FBP-RB-17.png,0.37,1.2,32,0.5,,,,,,,,,,,,,,,,,,,,,,,,,,,,,,,,,,,,,,,,,,,,,
,,,,,SPR24_054,18,Female,2024-04-16_16h16.01.858,jersey_experiment_5_v0,2023.2.2,Win32,85.47008547,,,,,,,,,,,,,,,,158.3912,159.6851,159.6852,162.4969,return,1.8087,,75.52083333,0,38,38,44,1,FBP-RB-19.png,0.45,1.2,45,0.5,,,,,,,,,,,,,,,,,,,,,,,,,,,,,,,,,,,,,,,,,,,,,
,,,,,SPR24_054,18,Female,2024-04-16_16h16.01.858,jersey_experiment_5_v0,2023.2.2,Win32,85.47008547,,,,,,,,,,,,,,,,162.4972,163.5441,163.5441,165.5206,return,0.6207,,69.921875,0,39,39,47,1,FBP-PT-17.png,0.4,1.2,48,0.25,,,,,,,,,,,,,,,,,,,,,,,,,,,,,,,,,,,,,,,,,,,,,
,,,,,SPR24_054,18,Female,2024-04-16_16h16.01.858,jersey_experiment_5_v0,2023.2.2,Win32,85.47008547,,,,,,,,,,,,,,,,165.5206,166.5678,166.5678,167.8149,return,0.4478,,69.01041667,0,40,40,23,1,FBP-YG-18.png,0.43,1.2,24,0.25,,,,,,,,,,,,,,,,,,,,,,,,,,,,,,,,,,,,,,,,,,,,,
,,,,,SPR24_054,18,Female,2024-04-16_16h16.01.858,jersey_experiment_5_v0,2023.2.2,Win32,85.47008547,,,,,,,,,,,,,,,,167.8151,168.862,168.862,170.6621,return,0.4627,,59.375,0,41,41,17,1,FBP-YG-17.png,0.4,1.2,18,0.25,,,,,,,,,,,,,,,,,,,,,,,,,,,,,,,,,,,,,,,,,,,,,
,,,,,SPR24_054,18,Female,2024-04-16_16h16.01.858,jersey_experiment_5_v0,2023.2.2,Win32,85.47008547,,,,,,,,,,,,,,,,170.6623,171.9561,171.9562,175.2386,return,1.1088,,33.85416667,0,42,42,40,1,FBP-RB-19.png,0.35,1.2,41,0.5,,,,,,,,,,,,,,,,,,,,,,,,,,,,,,,,,,,,,,,,,,,,,
,,,,,SPR24_054,18,Female,2024-04-16_16h16.01.858,jersey_experiment_5_v0,2023.2.2,Win32,85.47008547,,,,,,,,,,,,,,,,175.2389,176.2858,176.2859,178.38,return,0.2953,,61.45833333,0,43,43,25,1,FBP-YG-19.png,0.35,1.2,26,0.25,,,,,,,,,,,,,,,,,,,,,,,,,,,,,,,,,,,,,,,,,,,,,
,,,,,SPR24_054,18,Female,2024-04-16_16h16.01.858,jersey_experiment_5_v0,2023.2.2,Win32,85.47008547,,,,,,,,,,,,,,,,178.3802,179.427,179.427,180.7095,return,0.3218,,36.06770833,0,44,44,55,1,FBP-PT-19.png,0.35,1.2,56,0.25,,,,,,,,,,,,,,,,,,,,,,,,,,,,,,,,,,,,,,,,,,,,,
,,,,,SPR24_054,18,Female,2024-04-16_16h16.01.858,jersey_experiment_5_v0,2023.2.2,Win32,85.47008547,,,,,,,,,,,,,,,,180.7097,182.0036,182.0036,183.0272,return,0.0169,,70.703125,0,45,45,4,1,FBP-OG-71.png,0.45,1.2,5,0.5,,,,,,,,,,,,,,,,,,,,,,,,,,,,,,,,,,,,,,,,,,,,,
,,,,,SPR24_054,18,Female,2024-04-16_16h16.01.858,jersey_experiment_5_v0,2023.2.2,Win32,85.47008547,,,,,,,,,,,,,,,,183.0274,184.3213,184.3214,185.0978,return,0.1752,,70.703125,0,46,46,39,1,FBP-RB-18.png,0.45,1.2,40,0.5,,,,,,,,,,,,,,,,,,,,,,,,,,,,,,,,,,,,,,,,,,,,,
,,,,,SPR24_054,18,Female,2024-04-16_16h16.01.858,jersey_experiment_5_v0,2023.2.2,Win32,85.47008547,,,,,,,,,,,,,,,,185.0981,186.145,186.1451,188.0744,return,0.2127,,43.61979167,0,47,47,56,1,FBP-PT-19.png,0.37,1.2,57,0.25,,,,,,,,,,,,,,,,,,,,,,,,,,,,,,,,,,,,,,,,,,,,,
,,,,,SPR24_054,18,Female,2024-04-16_16h16.01.858,jersey_experiment_5_v0,2023.2.2,Win32,85.47008547,,,,,,,,,,,,,,,,188.0746,189.1214,189.1215,190.7923,return,0.166,,73.69791667,0,48,48,59,1,FBP-PT-19.png,0.45,1.2,60,0.25,,,,,,,,,,,,,,,,,,,,,,,,,,,,,,,,,,,,,,,,,,,,,
,,,,,SPR24_054,18,Female,2024-04-16_16h16.01.858,jersey_experiment_5_v0,2023.2.2,Win32,85.47008547,,,,,,,,,,,,,,,,190.7924,192.0864,192.0864,193.4511,return,0.1883,,24.34895833,0,49,49,0,1,FBP-OG-71.png,0.35,1.2,1,0.5,,,,,,,,,,,,,,,,,,,,,,,,,,,,,,,,,,,,,,,,,,,,,
,,,,,SPR24_054,18,Female,2024-04-16_16h16.01.858,jersey_experiment_5_v0,2023.2.2,Win32,85.47008547,,,,,,,,,,,,,,,,193.4512,194.4983,194.4983,195.004,return,0.1755,,24.34895833,0,50,50,20,1,FBP-YG-18.png,0.35,1.2,21,0.25,,,,,,,,,,,,,,,,,,,,,,,,,,,,,,,,,,,,,,,,,,,,,
,,,,,SPR24_054,18,Female,2024-04-16_16h16.01.858,jersey_experiment_5_v0,2023.2.2,Win32,85.47008547,,,,,,,,,,,,,,,,195.0042,196.2981,196.2982,196.9453,return,0.1375,,24.34895833,0,51,51,11,1,FBP-OG-91.png,0.37,1.2,12,0.5,,,,,,,,,,,,,,,,,,,,,,,,,,,,,,,,,,,,,,,,,,,,,
,,,,,SPR24_054,18,Female,2024-04-16_16h16.01.858,jersey_experiment_5_v0,2023.2.2,Win32,85.47008547,,,,,,,,,,,,,,,,196.9455,197.9923,197.9923,198.6278,return,0.194,,24.34895833,0,52,52,51,1,FBP-PT-18.png,0.37,1.2,52,0.25,,,,,,,,,,,,,,,,,,,,,,,,,,,,,,,,,,,,,,,,,,,,,
,,,,,SPR24_054,18,Female,2024-04-16_16h16.01.858,jersey_experiment_5_v0,2023.2.2,Win32,85.47008547,,,,,,,,,,,,,,,,198.628,199.6749,199.675,201.1689,return,0.5967,,72.13541667,0,53,53,24,1,FBP-YG-18.png,0.45,1.2,25,0.25,,,,,,,,,,,,,,,,,,,,,,,,,,,,,,,,,,,,,,,,,,,,,
,,,,,SPR24_054,18,Female,2024-04-16_16h16.01.858,jersey_experiment_5_v0,2023.2.2,Win32,85.47008547,,,,,,,,,,,,,,,,201.1692,202.4632,202.4633,203.7692,return,0.1778,,45.44270833,0,54,54,5,1,FBP-OG-81.png,0.35,1.2,6,0.5,,,,,,,,,,,,,,,,,,,,,,,,,,,,,,,,,,,,,,,,,,,,,
,,,,,SPR24_054,18,Female,2024-04-16_16h16.01.858,jersey_experiment_5_v0,2023.2.2,Win32,85.47008547,,,,,,,,,,,,,,,,203.7695,204.8162,204.8162,207.3339,return,0.1919,,45.44270833,0,55,55,18,1,FBP-YG-17.png,0.43,1.2,19,0.25,,,,,,,,,,,,,,,,,,,,,,,,,,,,,,,,,,,,,,,,,,,,,
,,,,,SPR24_054,18,Female,2024-04-16_16h16.01.858,jersey_experiment_5_v0,2023.2.2,Win32,85.47008547,,,,,,,,,,,,,,,,207.3341,208.6281,208.6281,210.5694,return,0.3758,,76.30208333,0,56,56,38,1,FBP-RB-18.png,0.43,1.2,39,0.5,,,,,,,,,,,,,,,,,,,,,,,,,,,,,,,,,,,,,,,,,,,,,
,,,,,SPR24_054,18,Female,2024-04-16_16h16.01.858,jersey_experiment_5_v0,2023.2.2,Win32,85.47008547,,,,,,,,,,,,,,,,210.5696,211.6165,211.6165,212.887,return,0.2376,,72.52604167,0,57,57,28,1,FBP-YG-19.png,0.43,1.2,29,0.25,,,,,,,,,,,,,,,,,,,,,,,,,,,,,,,,,,,,,,,,,,,,,
,,,,,SPR24_054,18,Female,2024-04-16_16h16.01.858,jersey_experiment_5_v0,2023.2.2,Win32,85.47008547,,,,,,,,,,,,,,,,212.8871,214.1812,214.1812,216.5814,return,0.1217,,59.11458333,0,58,58,12,1,FBP-OG-91.png,0.4,1.2,13,0.5,,,,,,,,,,,,,,,,,,,,,,,,,,,,,,,,,,,,,,,,,,,,,
,,,,,SPR24_054,18,Female,2024-04-16_16h16.01.858,jersey_experiment_5_v0,2023.2.2,Win32,85.47008547,,,,,,,,,,,,,,,,216.5816,217.8754,217.8754,219.3698,return,0.1896,,51.04166667,0,59,59,2,1,FBP-OG-71.png,0.4,1.2,3,0.5,,,,,,,,,,,,,,,,,,,,,,,,,,,,,,,,,,,,,,,,,,,,,
,,,,,SPR24_054,18,Female,2024-04-16_16h16.01.858,jersey_experiment_5_v0,2023.2.2,Win32,85.47008547,,,,,,,,,,,,,,,,219.372,220.6639,220.664,221.958,return,0.1903,,49.47916667,,,,,,FBP-RB-81.png,0.4,1.2,38,0.5,0,0,0,37,1,,,,,,,,,,,,,,,,,,,,,,,,,,,,,,,,,,,,,,,,
,,,,,SPR24_054,18,Female,2024-04-16_16h16.01.858,jersey_experiment_5_v0,2023.2.2,Win32,85.47008547,,,,,,,,,,,,,,,,221.9583,223.2523,223.2523,224.1463,return,0.1465,,70.703125,,,,,,FBP-OG-18.png,0.45,1.2,10,0.5,0,1,1,9,1,,,,,,,,,,,,,,,,,,,,,,,,,,,,,,,,,,,,,,,,
,,,,,SPR24_054,18,Female,2024-04-16_16h16.01.858,jersey_experiment_5_v0,2023.2.2,Win32,85.47008547,,,,,,,,,,,,,,,,224.1467,225.4406,225.4406,225.9933,return,0.188,,70.44270833,,,,,,FBP-OG-18.png,0.43,1.2,9,0.5,0,2,2,8,1,,,,,,,,,,,,,,,,,,,,,,,,,,,,,,,,,,,,,,,,
,,,,,SPR24_054,18,Female,2024-04-16_16h16.01.858,jersey_experiment_5_v0,2023.2.2,Win32,85.47008547,,,,,,,,,,,,,,,,225.9936,227.0406,227.0407,228.37,return,0.2191,,70.44270833,,,,,,FBP-YG-71.png,0.45,1.2,20,0.25,0,3,3,19,1,,,,,,,,,,,,,,,,,,,,,,,,,,,,,,,,,,,,,,,,
,,,,,SPR24_054,18,Female,2024-04-16_16h16.01.858,jersey_experiment_5_v0,2023.2.2,Win32,85.47008547,,,,,,,,,,,,,,,,228.3702,229.4172,229.4172,231.5113,return,0.1173,,54.16666667,,,,,,FBP-YG-81.png,0.4,1.2,23,0.25,0,4,4,22,1,,,,,,,,,,,,,,,,,,,,,,,,,,,,,,,,,,,,,,,,
,,,,,SPR24_054,18,Female,2024-04-16_16h16.01.858,jersey_experiment_5_v0,2023.2.2,Win32,85.47008547,,,,,,,,,,,,,,,,231.5115,232.8054,232.8054,234.1467,return,0.6642,,43.48958333,,,,,,FBP-OG-17.png,0.37,1.2,2,0.5,0,5,5,1,1,,,,,,,,,,,,,,,,,,,,,,,,,,,,,,,,,,,,,,,,
,,,,,SPR24_054,18,Female,2024-04-16_16h16.01.858,jersey_experiment_5_v0,2023.2.2,Win32,85.47008547,,,,,,,,,,,,,,,,234.147,235.4409,235.441,237.7469,return,0.5828,,56.38020833,,,,,,FBP-RB-71.png,0.45,1.2,35,0.5,0,6,6,34,1,,,,,,,,,,,,,,,,,,,,,,,,,,,,,,,,,,,,,,,,
,,,,,SPR24_054,18,Female,2024-04-16_16h16.01.858,jersey_experiment_5_v0,2023.2.2,Win32,85.47008547,,,,,,,,,,,,,,,,237.747,239.0411,239.0411,240.1352,return,0.1527,,62.63020833,,,,,,FBP-RB-91.png,0.43,1.2,44,0.5,0,7,7,43,1,,,,,,,,,,,,,,,,,,,,,,,,,,,,,,,,,,,,,,,,
,,,,,SPR24_054,18,Female,2024-04-16_16h16.01.858,jersey_experiment_5_v0,2023.2.2,Win32,85.47008547,,,,,,,,,,,,,,,,240.1354,241.1824,241.1825,242.3,return,0.2696,,43.88020833,,,,,,FBP-PT-91.png,0.35,1.2,56,0.25,0,8,8,55,1,,,,,,,,,,,,,,,,,,,,,,,,,,,,,,,,,,,,,,,,
,,,,,SPR24_054,18,Female,2024-04-16_16h16.01.858,jersey_experiment_5_v0,2023.2.2,Win32,85.47008547,,,,,,,,,,,,,,,,242.3002,243.3471,243.3471,245.6177,return,1.3959,,35.28645833,,,,,,FBP-YG-81.png,0.35,1.2,21,0.25,0,9,9,20,1,,,,,,,,,,,,,,,,,,,,,,,,,,,,,,,,,,,,,,,,
,,,,,SPR24_054,18,Female,2024-04-16_16h16.01.858,jersey_experiment_5_v0,2023.2.2,Win32,85.47008547,,,,,,,,,,,,,,,,245.618,246.9119,246.9119,247.3825,return,0.1766,,35.15625,,,,,,FBP-OG-18.png,0.37,1.2,7,0.5,0,10,10,6,1,,,,,,,,,,,,,,,,,,,,,,,,,,,,,,,,,,,,,,,,
,,,,,SPR24_054,18,Female,2024-04-16_16h16.01.858,jersey_experiment_5_v0,2023.2.2,Win32,85.47008547,,,,,,,,,,,,,,,,247.3827,248.4296,248.4296,249.6061,return,0.1425,,68.22916667,,,,,,FBP-PT-81.png,0.45,1.2,55,0.25,0,11,11,54,1,,,,,,,,,,,,,,,,,,,,,,,,,,,,,,,,,,,,,,,,
,,,,,SPR24_054,18,Female,2024-04-16_16h16.01.858,jersey_experiment_5_v0,2023.2.2,Win32,85.47008547,,,,,,,,,,,,,,,,249.6064,250.9003,250.9003,251.465,return,0.1314,,68.22916667,,,,,,FBP-RB-81.png,0.45,1.2,40,0.5,0,12,12,39,1,,,,,,,,,,,,,,,,,,,,,,,,,,,,,,,,,,,,,,,,
,,,,,SPR24_054,18,Female,2024-04-16_16h16.01.858,jersey_experiment_5_v0,2023.2.2,Win32,85.47008547,,,,,,,,,,,,,,,,251.4652,252.512,252.512,253.1593,return,0.0008,,68.22916667,,,,,,FBP-PT-71.png,0.43,1.2,49,0.25,0,13,13,48,1,,,,,,,,,,,,,,,,,,,,,,,,,,,,,,,,,,,,,,,,
,,,,,SPR24_054,18,Female,2024-04-16_16h16.01.858,jersey_experiment_5_v0,2023.2.2,Win32,85.47008547,,,,,,,,,,,,,,,,253.1595,254.2063,254.2063,254.7475,return,0.165,,68.22916667,,,,,,FBP-YG-71.png,0.43,1.2,19,0.25,0,14,14,18,1,,,,,,,,,,,,,,,,,,,,,,,,,,,,,,,,,,,,,,,,
,,,,,SPR24_054,18,Female,2024-04-16_16h16.01.858,jersey_experiment_5_v0,2023.2.2,Win32,85.47008547,,,,,,,,,,,,,,,,254.7477,255.7946,255.7947,256.8652,return,0.1352,,37.36979167,,,,,,FBP-YG-71.png,0.37,1.2,17,0.25,0,15,15,16,1,,,,,,,,,,,,,,,,,,,,,,,,,,,,,,,,,,,,,,,,
,,,,,SPR24_054,18,Female,2024-04-16_16h16.01.858,jersey_experiment_5_v0,2023.2.2,Win32,85.47008547,,,,,,,,,,,,,,,,256.8653,258.1594,258.1594,260.9126,return,0.2914,,50.13020833,,,,,,FBP-RB-91.png,0.4,1.2,43,0.5,0,16,16,42,1,,,,,,,,,,,,,,,,,,,,,,,,,,,,,,,,,,,,,,,,
,,,,,SPR24_054,18,Female,2024-04-16_16h16.01.858,jersey_experiment_5_v0,2023.2.2,Win32,85.47008547,,,,,,,,,,,,,,,,260.9127,262.2065,262.2066,263.9713,return,0.2033,,27.47395833,,,,,,FBP-OG-19.png,0.35,1.2,11,0.5,0,17,17,10,1,,,,,,,,,,,,,,,,,,,,,,,,,,,,,,,,,,,,,,,,
,,,,,SPR24_054,18,Female,2024-04-16_16h16.01.858,jersey_experiment_5_v0,2023.2.2,Win32,85.47008547,,,,,,,,,,,,,,,,263.9714,265.0185,265.0185,266.1951,return,0.1696,,74.34895833,,,,,,FBP-YG-81.png,0.45,1.2,25,0.25,0,18,18,24,1,,,,,,,,,,,,,,,,,,,,,,,,,,,,,,,,,,,,,,,,
,,,,,SPR24_054,18,Female,2024-04-16_16h16.01.858,jersey_experiment_5_v0,2023.2.2,Win32,85.47008547,,,,,,,,,,,,,,,,266.1953,267.2421,267.2422,269.0304,return,0.144,,25.390625,,,,,,FBP-YG-91.png,0.35,1.2,26,0.25,0,19,19,25,1,,,,,,,,,,,,,,,,,,,,,,,,,,,,,,,,,,,,,,,,
,,,,,SPR24_054,18,Female,2024-04-16_16h16.01.858,jersey_experiment_5_v0,2023.2.2,Win32,85.47008547,,,,,,,,,,,,,,,,269.0306,270.0775,270.0775,272.5717,return,0.119,,49.73958333,,,,,,FBP-PT-81.png,0.4,1.2,53,0.25,0,20,20,52,1,,,,,,,,,,,,,,,,,,,,,,,,,,,,,,,,,,,,,,,,
,,,,,SPR24_054,18,Female,2024-04-16_16h16.01.858,jersey_experiment_5_v0,2023.2.2,Win32,85.47008547,,,,,,,,,,,,,,,,272.5721,273.866,273.866,276.0542,return,0.1436,,37.890625,,,,,,FBP-RB-81.png,0.35,1.2,36,0.5,0,21,21,35,1,,,,,,,,,,,,,,,,,,,,,,,,,,,,,,,,,,,,,,,,
,,,,,SPR24_054,18,Female,2024-04-16_16h16.01.858,jersey_experiment_5_v0,2023.2.2,Win32,85.47008547,,,,,,,,,,,,,,,,276.0544,277.3484,277.3484,278.7719,return,0.4291,,49.21875,,,,,,FBP-RB-71.png,0.4,1.2,33,0.5,0,22,22,32,1,,,,,,,,,,,,,,,,,,,,,,,,,,,,,,,,,,,,,,,,
,,,,,SPR24_054,18,Female,2024-04-16_16h16.01.858,jersey_experiment_5_v0,2023.2.2,Win32,85.47008547,,,,,,,,,,,,,,,,278.7721,279.819,279.8191,281.0662,return,0.2965,,50.78125,,,,,,FBP-PT-91.png,0.4,1.2,58,0.25,0,23,23,57,1,,,,,,,,,,,,,,,,,,,,,,,,,,,,,,,,,,,,,,,,
,,,,,SPR24_054,18,Female,2024-04-16_16h16.01.858,jersey_experiment_5_v0,2023.2.2,Win32,85.47008547,,,,,,,,,,,,,,,,281.0663,282.3603,282.3603,283.6074,return,0.4604,,47.13541667,,,,,,FBP-RB-91.png,0.37,1.2,42,0.5,0,24,24,41,1,,,,,,,,,,,,,,,,,,,,,,,,,,,,,,,,,,,,,,,,
,,,,,SPR24_054,18,Female,2024-04-16_16h16.01.858,jersey_experiment_5_v0,2023.2.2,Win32,85.47008547,,,,,,,,,,,,,,,,283.6077,284.6544,284.6544,286.3721,return,0.0288,,50.390625,,,,,,FBP-YG-71.png,0.4,1.2,18,0.25,0,25,25,17,1,,,,,,,,,,,,,,,,,,,,,,,,,,,,,,,,,,,,,,,,
,,,,,SPR24_054,18,Female,2024-04-16_16h16.01.858,jersey_experiment_5_v0,2023.2.2,Win32,85.47008547,,,,,,,,,,,,,,,,286.3724,287.6663,287.6663,288.584,return,0.1056,,40.75520833,,,,,,FBP-RB-81.png,0.37,1.2,37,0.5,0,26,26,36,1,,,,,,,,,,,,,,,,,,,,,,,,,,,,,,,,,,,,,,,,
,,,,,SPR24_054,18,Female,2024-04-16_16h16.01.858,jersey_experiment_5_v0,2023.2.2,Win32,85.47008547,,,,,,,,,,,,,,,,288.5842,289.6311,289.6312,290.6666,return,0.1902,,40.75520833,,,,,,FBP-YG-71.png,0.35,1.2,16,0.25,0,27,27,15,1,,,,,,,,,,,,,,,,,,,,,,,,,,,,,,,,,,,,,,,,
,,,,,SPR24_054,18,Female,2024-04-16_16h16.01.858,jersey_experiment_5_v0,2023.2.2,Win32,85.47008547,,,,,,,,,,,,,,,,290.6669,291.7135,291.7135,293.4431,return,0.1699,,36.97916667,,,,,,FBP-PT-81.png,0.35,1.2,51,0.25,0,28,28,50,1,,,,,,,,,,,,,,,,,,,,,,,,,,,,,,,,,,,,,,,,
,,,,,SPR24_054,18,Female,2024-04-16_16h16.01.858,jersey_experiment_5_v0,2023.2.2,Win32,85.47008547,,,,,,,,,,,,,,,,293.4433,294.4901,294.4901,296.6196,return,1.1675,,49.609375,,,,,,FBP-YG-91.png,0.4,1.2,28,0.25,0,29,29,27,1,,,,,,,,,,,,,,,,,,,,,,,,,,,,,,,,,,,,,,,,
,,,,,SPR24_054,18,Female,2024-04-16_16h16.01.858,jersey_experiment_5_v0,2023.2.2,Win32,85.47008547,,,,,,,,,,,,,,,,296.62,297.6667,297.6668,299.0432,return,0.1355,,41.53645833,,,,,,FBP-PT-71.png,0.35,1.2,46,0.25,0,30,30,45,1,,,,,,,,,,,,,,,,,,,,,,,,,,,,,,,,,,,,,,,,
,,,,,SPR24_054,18,Female,2024-04-16_16h16.01.858,jersey_experiment_5_v0,2023.2.2,Win32,85.47008547,,,,,,,,,,,,,,,,299.0436,300.3375,300.3375,301.6433,return,0.1276,,69.01041667,,,,,,FBP-RB-71.png,0.43,1.2,34,0.5,0,31,31,33,1,,,,,,,,,,,,,,,,,,,,,,,,,,,,,,,,,,,,,,,,
,,,,,SPR24_054,18,Female,2024-04-16_16h16.01.858,jersey_experiment_5_v0,2023.2.2,Win32,85.47008547,,,,,,,,,,,,,,,,301.6436,302.6906,302.6907,304.2905,return,0.4757,,68.88020833,,,,,,FBP-PT-91.png,0.43,1.2,59,0.25,0,32,32,58,1,,,,,,,,,,,,,,,,,,,,,,,,,,,,,,,,,,,,,,,,
,,,,,SPR24_054,18,Female,2024-04-16_16h16.01.858,jersey_experiment_5_v0,2023.2.2,Win32,85.47008547,,,,,,,,,,,,,,,,304.2907,305.3376,305.3376,306.5846,return,0.1419,,34.24479167,,,,,,FBP-PT-71.png,0.37,1.2,47,0.25,0,33,33,46,1,,,,,,,,,,,,,,,,,,,,,,,,,,,,,,,,,,,,,,,,
,,,,,SPR24_054,18,Female,2024-04-16_16h16.01.858,jersey_experiment_5_v0,2023.2.2,Win32,85.47008547,,,,,,,,,,,,,,,,306.5849,307.6318,307.6319,309.3027,return,0.5087,,61.97916667,,,,,,FBP-YG-81.png,0.43,1.2,24,0.25,0,34,34,23,1,,,,,,,,,,,,,,,,,,,,,,,,,,,,,,,,,,,,,,,,
,,,,,SPR24_054,18,Female,2024-04-16_16h16.01.858,jersey_experiment_5_v0,2023.2.2,Win32,85.47008547,,,,,,,,,,,,,,,,309.303,310.3495,310.3495,312.0437,return,0.2117,,49.609375,,,,,,FBP-PT-71.png,0.4,1.2,48,0.25,0,35,35,47,1,,,,,,,,,,,,,,,,,,,,,,,,,,,,,,,,,,,,,,,,
,,,,,SPR24_054,18,Female,2024-04-16_16h16.01.858,jersey_experiment_5_v0,2023.2.2,Win32,85.47008547,,,,,,,,,,,,,,,,312.0439,313.3379,313.3379,314.4557,return,0.5784,,34.63541667,,,,,,FBP-RB-91.png,0.35,1.2,41,0.5,0,36,36,40,1,,,,,,,,,,,,,,,,,,,,,,,,,,,,,,,,,,,,,,,,
,,,,,SPR24_054,18,Female,2024-04-16_16h16.01.858,jersey_experiment_5_v0,2023.2.2,Win32,85.47008547,,,,,,,,,,,,,,,,314.4559,315.7497,315.7497,317.2557,return,0.1423,,66.92708333,,,,,,FBP-OG-17.png,0.43,1.2,4,0.5,0,37,37,3,1,,,,,,,,,,,,,,,,,,,,,,,,,,,,,,,,,,,,,,,,
,,,,,SPR24_054,18,Female,2024-04-16_16h16.01.858,jersey_experiment_5_v0,2023.2.2,Win32,85.47008547,,,,,,,,,,,,,,,,317.2559,318.3027,318.3028,319.7145,return,0.1479,,36.58854167,,,,,,FBP-PT-91.png,0.37,1.2,57,0.25,0,38,38,56,1,,,,,,,,,,,,,,,,,,,,,,,,,,,,,,,,,,,,,,,,
,,,,,SPR24_054,18,Female,2024-04-16_16h16.01.858,jersey_experiment_5_v0,2023.2.2,Win32,85.47008547,,,,,,,,,,,,,,,,319.7148,321.0087,321.0088,322.8911,return,0.8234,,15.75520833,,,,,,FBP-OG-18.png,0.35,1.2,6,0.5,0,39,39,5,1,,,,,,,,,,,,,,,,,,,,,,,,,,,,,,,,,,,,,,,,
,,,,,SPR24_054,18,Female,2024-04-16_16h16.01.858,jersey_experiment_5_v0,2023.2.2,Win32,85.47008547,,,,,,,,,,,,,,,,322.8913,324.1854,324.1854,325.7385,return,0.2118,,22.13541667,,,,,,FBP-OG-19.png,0.37,1.2,12,0.5,0,40,40,11,1,,,,,,,,,,,,,,,,,,,,,,,,,,,,,,,,,,,,,,,,
,,,,,SPR24_054,18,Female,2024-04-16_16h16.01.858,jersey_experiment_5_v0,2023.2.2,Win32,85.47008547,,,,,,,,,,,,,,,,325.7387,327.0325,327.0325,327.8679,return,0.1415,,52.34375,,,,,,FBP-OG-19.png,0.43,1.2,14,0.5,0,41,41,13,1,,,,,,,,,,,,,,,,,,,,,,,,,,,,,,,,,,,,,,,,
,,,,,SPR24_054,18,Female,2024-04-16_16h16.01.858,jersey_experiment_5_v0,2023.2.2,Win32,85.47008547,,,,,,,,,,,,,,,,327.8681,328.9149,328.9149,331.6326,return,1.3851,,49.86979167,,,,,,FBP-PT-81.png,0.37,1.2,52,0.25,0,42,42,51,1,,,,,,,,,,,,,,,,,,,,,,,,,,,,,,,,,,,,,,,,
,,,,,SPR24_054,18,Female,2024-04-16_16h16.01.858,jersey_experiment_5_v0,2023.2.2,Win32,85.47008547,,,,,,,,,,,,,,,,331.6329,332.6799,332.6799,333.7034,return,0.1548,,26.171875,,,,,,FBP-YG-81.png,0.37,1.2,22,0.25,0,43,43,21,1,,,,,,,,,,,,,,,,,,,,,,,,,,,,,,,,,,,,,,,,
,,,,,SPR24_054,18,Female,2024-04-16_16h16.01.858,jersey_experiment_5_v0,2023.2.2,Win32,85.47008547,,,,,,,,,,,,,,,,333.7036,334.9976,334.9976,335.8917,return,0.1921,,74.21875,,,,,,FBP-OG-17.png,0.45,1.2,5,0.5,0,44,44,4,1,,,,,,,,,,,,,,,,,,,,,,,,,,,,,,,,,,,,,,,,
,,,,,SPR24_054,18,Female,2024-04-16_16h16.01.858,jersey_experiment_5_v0,2023.2.2,Win32,85.47008547,,,,,,,,,,,,,,,,335.8919,337.1859,337.186,338.5153,return,0.1237,,73.69791667,,,,,,FBP-RB-91.png,0.45,1.2,45,0.5,0,45,45,44,1,,,,,,,,,,,,,,,,,,,,,,,,,,,,,,,,,,,,,,,,
,,,,,SPR24_054,18,Female,2024-04-16_16h16.01.858,jersey_experiment_5_v0,2023.2.2,Win32,85.47008547,,,,,,,,,,,,,,,,338.5154,339.8094,339.8095,341.0331,return,0.7061,,73.828125,,,,,,FBP-OG-19.png,0.45,1.2,15,0.5,0,46,46,14,1,,,,,,,,,,,,,,,,,,,,,,,,,,,,,,,,,,,,,,,,
,,,,,SPR24_054,18,Female,2024-04-16_16h16.01.858,jersey_experiment_5_v0,2023.2.2,Win32,85.47008547,,,,,,,,,,,,,,,,341.0333,342.3271,342.3272,343.3156,return,0.1471,,51.04166667,,,,,,FBP-OG-19.png,0.4,1.2,13,0.5,0,47,47,12,1,,,,,,,,,,,,,,,,,,,,,,,,,,,,,,,,,,,,,,,,
,,,,,SPR24_054,18,Female,2024-04-16_16h16.01.858,jersey_experiment_5_v0,2023.2.2,Win32,85.47008547,,,,,,,,,,,,,,,,343.3157,344.6095,344.6095,345.9391,return,0.7241,,50.52083333,,,,,,FBP-RB-71.png,0.37,1.2,32,0.5,0,48,48,31,1,,,,,,,,,,,,,,,,,,,,,,,,,,,,,,,,,,,,,,,,
,,,,,SPR24_054,18,Female,2024-04-16_16h16.01.858,jersey_experiment_5_v0,2023.2.2,Win32,85.47008547,,,,,,,,,,,,,,,,345.9393,346.9861,346.9861,348.3744,return,0.1549,,72.65625,,,,,,FBP-PT-91.png,0.45,1.2,60,0.25,0,49,49,59,1,,,,,,,,,,,,,,,,,,,,,,,,,,,,,,,,,,,,,,,,
,,,,,SPR24_054,18,Female,2024-04-16_16h16.01.858,jersey_experiment_5_v0,2023.2.2,Win32,85.47008547,,,,,,,,,,,,,,,,348.3746,349.6687,349.6687,351.0804,return,0.1891,,26.5625,,,,,,FBP-RB-71.png,0.35,1.2,31,0.5,0,50,50,30,1,,,,,,,,,,,,,,,,,,,,,,,,,,,,,,,,,,,,,,,,
,,,,,SPR24_054,18,Female,2024-04-16_16h16.01.858,jersey_experiment_5_v0,2023.2.2,Win32,85.47008547,,,,,,,,,,,,,,,,351.0805,352.1275,352.1276,354.163,return,0.6185,,50.78125,,,,,,FBP-YG-91.png,0.37,1.2,27,0.25,0,51,51,26,1,,,,,,,,,,,,,,,,,,,,,,,,,,,,,,,,,,,,,,,,
,,,,,SPR24_054,18,Female,2024-04-16_16h16.01.858,jersey_experiment_5_v0,2023.2.2,Win32,85.47008547,,,,,,,,,,,,,,,,354.1631,355.2101,355.2101,356.0337,return,0.1469,,66.015625,,,,,,FBP-PT-71.png,0.45,1.2,50,0.25,0,52,52,49,1,,,,,,,,,,,,,,,,,,,,,,,,,,,,,,,,,,,,,,,,
,,,,,SPR24_054,18,Female,2024-04-16_16h16.01.858,jersey_experiment_5_v0,2023.2.2,Win32,85.47008547,,,,,,,,,,,,,,,,356.0339,357.0806,357.0808,357.6101,return,0.1648,,65.625,,,,,,FBP-PT-81.png,0.43,1.2,54,0.25,0,53,53,53,1,,,,,,,,,,,,,,,,,,,,,,,,,,,,,,,,,,,,,,,,
,,,,,SPR24_054,18,Female,2024-04-16_16h16.01.858,jersey_experiment_5_v0,2023.2.2,Win32,85.47008547,,,,,,,,,,,,,,,,357.6103,358.9044,358.9044,359.7984,return,0.1793,,58.07291667,,,,,,FBP-OG-17.png,0.4,1.2,3,0.5,0,54,54,2,1,,,,,,,,,,,,,,,,,,,,,,,,,,,,,,,,,,,,,,,,
,,,,,SPR24_054,18,Female,2024-04-16_16h16.01.858,jersey_experiment_5_v0,2023.2.2,Win32,85.47008547,,,,,,,,,,,,,,,,359.7987,360.8456,360.8456,362.1986,return,0.5658,,64.71354167,,,,,,FBP-YG-91.png,0.43,1.2,29,0.25,0,55,55,28,1,,,,,,,,,,,,,,,,,,,,,,,,,,,,,,,,,,,,,,,,
,,,,,SPR24_054,18,Female,2024-04-16_16h16.01.858,jersey_experiment_5_v0,2023.2.2,Win32,85.47008547,,,,,,,,,,,,,,,,362.1987,363.2455,363.2455,364.6574,return,0.7141,,73.69791667,,,,,,FBP-YG-91.png,0.45,1.2,30,0.25,0,56,56,29,1,,,,,,,,,,,,,,,,,,,,,,,,,,,,,,,,,,,,,,,,
,,,,,SPR24_054,18,Female,2024-04-16_16h16.01.858,jersey_experiment_5_v0,2023.2.2,Win32,85.47008547,,,,,,,,,,,,,,,,364.6577,365.9517,365.9519,366.9987,return,0.0953,,25.91145833,,,,,,FBP-OG-17.png,0.35,1.2,1,0.5,0,57,57,0,1,,,,,,,,,,,,,,,,,,,,,,,,,,,,,,,,,,,,,,,,
,,,,,SPR24_054,18,Female,2024-04-16_16h16.01.858,jersey_experiment_5_v0,2023.2.2,Win32,85.47008547,,,,,,,,,,,,,,,,366.9989,368.2929,368.2929,369.9282,return,0.1424,,51.171875,,,,,,FBP-RB-81.png,0.43,1.2,39,0.5,0,58,58,38,1,,,,,,,,,,,,,,,,,,,,,,,,,,,,,,,,,,,,,,,,
,,,,,SPR24_054,18,Female,2024-04-16_16h16.01.858,jersey_experiment_5_v0,2023.2.2,Win32,85.47008547,,,,,,,,,,,,,,,,369.9284,371.2224,371.2224,371.799,return,0.1556,,51.171875,,,,,,FBP-OG-18.png,0.4,1.2,8,0.5,0,59,59,7,1,,,,,,,,,,,,,,,,,,,,,,,,,,,,,,,,,,,,,,,,
,,,,,SPR24_054,18,Female,2024-04-16_16h16.01.858,jersey_experiment_5_v0,2023.2.2,Win32,85.47008547,,,,,,,,,,,,,,,,,,,,,,,,,,,,,,,,,,,,,,,371.7994,491.792,,,,,,,,,,,,,,,,,,,,,,,,,,,,,,,,,,,,,,
,,,,,SPR24_054,18,Female,2024-04-16_16h16.01.858,jersey_experiment_5_v0,2023.2.2,Win32,85.47008547,,,,,,,,,,,,,,,,,,,,,,,,,,,,,,,,,,,,,,,,,491.7921,517.4752,return,25.6761,,,,,,,,,,,,,,,,,,,,,,,,,,,,,,,,,,
,,,,,SPR24_054,18,Female,2024-04-16_16h16.01.858,jersey_experiment_5_v0,2023.2.2,Win32,85.47008547,,,,,,,,,,,,,,,,517.481,518.5337,518.5337,525.0634,return,0.6231,,51.171875,,,,,,FBP-RB-18.png,0.37,1.2,37,0.25,,,,,,,,,,,,,0,0,0,36,1,,,,,,,,,,,,,,,,,,,,,,,,,,,,
,,,,,SPR24_054,18,Female,2024-04-16_16h16.01.858,jersey_experiment_5_v0,2023.2.2,Win32,85.47008547,,,,,,,,,,,,,,,,525.0638,526.3575,526.3575,527.593,return,0.5546,,45.57291667,,,,,,FBP-YG-17.png,0.4,1.2,18,0.5,,,,,,,,,,,,,0,1,1,17,1,,,,,,,,,,,,,,,,,,,,,,,,,,,,
,,,,,SPR24_054,18,Female,2024-04-16_16h16.01.858,jersey_experiment_5_v0,2023.2.2,Win32,85.47008547,,,,,,,,,,,,,,,,527.5932,528.8871,528.8872,529.546,return,0.1171,,42.83854167,,,,,,FBP-PT-19.png,0.4,1.2,58,0.5,,,,,,,,,,,,,0,2,2,57,1,,,,,,,,,,,,,,,,,,,,,,,,,,,,
,,,,,SPR24_054,18,Female,2024-04-16_16h16.01.858,jersey_experiment_5_v0,2023.2.2,Win32,85.47008547,,,,,,,,,,,,,,,,529.5462,530.593,530.593,532.3696,return,0.1138,,67.578125,,,,,,FBP-OG-71.png,0.43,1.2,4,0.25,,,,,,,,,,,,,0,3,3,3,1,,,,,,,,,,,,,,,,,,,,,,,,,,,,
,,,,,SPR24_054,18,Female,2024-04-16_16h16.01.858,jersey_experiment_5_v0,2023.2.2,Win32,85.47008547,,,,,,,,,,,,,,,,532.3699,533.6638,533.6638,534.6637,return,0.1296,,28.125,,,,,,FBP-PT-18.png,0.35,1.2,51,0.5,,,,,,,,,,,,,0,4,4,50,1,,,,,,,,,,,,,,,,,,,,,,,,,,,,
,,,,,SPR24_054,18,Female,2024-04-16_16h16.01.858,jersey_experiment_5_v0,2023.2.2,Win32,85.47008547,,,,,,,,,,,,,,,,534.664,535.7109,535.7109,536.8755,return,0.1521,,72.78645833,,,,,,FBP-OG-91.png,0.45,1.2,15,0.25,,,,,,,,,,,,,0,5,5,14,1,,,,,,,,,,,,,,,,,,,,,,,,,,,,
,,,,,SPR24_054,18,Female,2024-04-16_16h16.01.858,jersey_experiment_5_v0,2023.2.2,Win32,85.47008547,,,,,,,,,,,,,,,,536.8758,537.9229,537.9229,539.158,return,0.1445,,73.046875,,,,,,FBP-OG-81.png,0.45,1.2,10,0.25,,,,,,,,,,,,,0,6,6,9,1,,,,,,,,,,,,,,,,,,,,,,,,,,,,
,,,,,SPR24_054,18,Female,2024-04-16_16h16.01.858,jersey_experiment_5_v0,2023.2.2,Win32,85.47008547,,,,,,,,,,,,,,,,539.1582,540.4521,540.4522,541.4169,return,0.1181,,27.21354167,,,,,,FBP-PT-17.png,0.37,1.2,47,0.5,,,,,,,,,,,,,0,7,7,46,1,,,,,,,,,,,,,,,,,,,,,,,,,,,,
,,,,,SPR24_054,18,Female,2024-04-16_16h16.01.858,jersey_experiment_5_v0,2023.2.2,Win32,85.47008547,,,,,,,,,,,,,,,,541.4171,542.4641,542.4641,543.57,return,0.1475,,65.234375,,,,,,FBP-OG-71.png,0.4,1.2,3,0.25,,,,,,,,,,,,,0,8,8,2,1,,,,,,,,,,,,,,,,,,,,,,,,,,,,
,,,,,SPR24_054,18,Female,2024-04-16_16h16.01.858,jersey_experiment_5_v0,2023.2.2,Win32,85.47008547,,,,,,,,,,,,,,,,543.5702,544.617,544.617,545.6994,return,0.1239,,26.5625,,,,,,FBP-RB-17.png,0.35,1.2,31,0.25,,,,,,,,,,,,,0,9,9,30,1,,,,,,,,,,,,,,,,,,,,,,,,,,,,
,,,,,SPR24_054,18,Female,2024-04-16_16h16.01.858,jersey_experiment_5_v0,2023.2.2,Win32,85.47008547,,,,,,,,,,,,,,,,545.6997,546.9935,546.9936,547.829,return,0.0975,,65.75520833,,,,,,FBP-PT-18.png,0.43,1.2,54,0.5,,,,,,,,,,,,,0,10,10,53,1,,,,,,,,,,,,,,,,,,,,,,,,,,,,
,,,,,SPR24_054,18,Female,2024-04-16_16h16.01.858,jersey_experiment_5_v0,2023.2.2,Win32,85.47008547,,,,,,,,,,,,,,,,547.8293,548.876,548.8761,549.6761,return,0.1046,,65.49479167,,,,,,FBP-OG-91.png,0.4,1.2,13,0.25,,,,,,,,,,,,,0,11,11,12,1,,,,,,,,,,,,,,,,,,,,,,,,,,,,
,,,,,SPR24_054,18,Female,2024-04-16_16h16.01.858,jersey_experiment_5_v0,2023.2.2,Win32,85.47008547,,,,,,,,,,,,,,,,549.6763,550.9702,550.9702,552.0645,return,0.1485,,29.81770833,,,,,,FBP-PT-17.png,0.35,1.2,46,0.5,,,,,,,,,,,,,0,12,12,45,1,,,,,,,,,,,,,,,,,,,,,,,,,,,,
,,,,,SPR24_054,18,Female,2024-04-16_16h16.01.858,jersey_experiment_5_v0,2023.2.2,Win32,85.47008547,,,,,,,,,,,,,,,,552.0647,553.1114,553.1115,554.6764,return,0.145,,66.27604167,,,,,,FBP-RB-17.png,0.4,1.2,33,0.25,,,,,,,,,,,,,0,13,13,32,1,,,,,,,,,,,,,,,,,,,,,,,,,,,,
,,,,,SPR24_054,18,Female,2024-04-16_16h16.01.858,jersey_experiment_5_v0,2023.2.2,Win32,85.47008547,,,,,,,,,,,,,,,,554.6766,555.9704,555.9704,557.288,return,0.1778,,84.375,,,,,,FBP-PT-17.png,0.45,1.2,50,0.5,,,,,,,,,,,,,0,14,14,49,1,,,,,,,,,,,,,,,,,,,,,,,,,,,,
,,,,,SPR24_054,18,Female,2024-04-16_16h16.01.858,jersey_experiment_5_v0,2023.2.2,Win32,85.47008547,,,,,,,,,,,,,,,,557.2882,558.3352,558.3352,560.1002,return,0.8758,,87.5,,,,,,FBP-RB-19.png,0.43,1.2,44,0.25,,,,,,,,,,,,,0,15,15,43,1,,,,,,,,,,,,,,,,,,,,,,,,,,,,
,,,,,SPR24_054,18,Female,2024-04-16_16h16.01.858,jersey_experiment_5_v0,2023.2.2,Win32,85.47008547,,,,,,,,,,,,,,,,560.1003,561.3942,561.3943,564.3119,return,0.4356,,26.43229167,,,,,,FBP-PT-18.png,0.37,1.2,52,0.5,,,,,,,,,,,,,0,16,16,51,1,,,,,,,,,,,,,,,,,,,,,,,,,,,,
,,,,,SPR24_054,18,Female,2024-04-16_16h16.01.858,jersey_experiment_5_v0,2023.2.2,Win32,85.47008547,,,,,,,,,,,,,,,,564.3122,565.6062,565.6062,567.1945,return,0.3905,,22.52604167,,,,,,FBP-YG-18.png,0.35,1.2,21,0.5,,,,,,,,,,,,,0,17,17,20,1,,,,,,,,,,,,,,,,,,,,,,,,,,,,
,,,,,SPR24_054,18,Female,2024-04-16_16h16.01.858,jersey_experiment_5_v0,2023.2.2,Win32,85.47008547,,,,,,,,,,,,,,,,567.1947,568.4885,568.4886,570.5357,return,0.093,,75,,,,,,FBP-YG-18.png,0.45,1.2,25,0.5,,,,,,,,,,,,,0,18,18,24,1,,,,,,,,,,,,,,,,,,,,,,,,,,,,
,,,,,SPR24_054,18,Female,2024-04-16_16h16.01.858,jersey_experiment_5_v0,2023.2.2,Win32,85.47008547,,,,,,,,,,,,,,,,570.5358,571.5828,571.5828,573.5122,return,0.082,,45.57291667,,,,,,FBP-OG-91.png,0.37,1.2,12,0.25,,,,,,,,,,,,,0,19,19,11,1,,,,,,,,,,,,,,,,,,,,,,,,,,,,
,,,,,SPR24_054,18,Female,2024-04-16_16h16.01.858,jersey_experiment_5_v0,2023.2.2,Win32,85.47008547,,,,,,,,,,,,,,,,573.5124,574.5594,574.5594,575.5477,return,0.1667,,69.66145833,,,,,,FBP-OG-71.png,0.45,1.2,5,0.25,,,,,,,,,,,,,0,20,20,4,1,,,,,,,,,,,,,,,,,,,,,,,,,,,,
,,,,,SPR24_054,18,Female,2024-04-16_16h16.01.858,jersey_experiment_5_v0,2023.2.2,Win32,85.47008547,,,,,,,,,,,,,,,,575.5478,576.8419,576.8419,577.8184,return,0.1878,,31.640625,,,,,,FBP-YG-19.png,0.35,1.2,26,0.5,,,,,,,,,,,,,0,21,21,25,1,,,,,,,,,,,,,,,,,,,,,,,,,,,,
,,,,,SPR24_054,18,Female,2024-04-16_16h16.01.858,jersey_experiment_5_v0,2023.2.2,Win32,85.47008547,,,,,,,,,,,,,,,,577.8185,579.1125,579.1126,580.795,return,0.1656,,50.65104167,,,,,,FBP-PT-18.png,0.4,1.2,53,0.5,,,,,,,,,,,,,0,22,22,52,1,,,,,,,,,,,,,,,,,,,,,,,,,,,,
,,,,,SPR24_054,18,Female,2024-04-16_16h16.01.858,jersey_experiment_5_v0,2023.2.2,Win32,85.47008547,,,,,,,,,,,,,,,,580.7955,582.089,582.0891,583.6067,return,0.1203,,39.58333333,,,,,,FBP-PT-19.png,0.37,1.2,57,0.5,,,,,,,,,,,,,0,23,23,56,1,,,,,,,,,,,,,,,,,,,,,,,,,,,,
,,,,,SPR24_054,18,Female,2024-04-16_16h16.01.858,jersey_experiment_5_v0,2023.2.2,Win32,85.47008547,,,,,,,,,,,,,,,,583.6069,584.901,584.901,586.3951,return,0.7194,,72.265625,,,,,,FBP-YG-17.png,0.43,1.2,19,0.5,,,,,,,,,,,,,0,24,24,18,1,,,,,,,,,,,,,,,,,,,,,,,,,,,,
,,,,,SPR24_054,18,Female,2024-04-16_16h16.01.858,jersey_experiment_5_v0,2023.2.2,Win32,85.47008547,,,,,,,,,,,,,,,,586.3952,587.6893,587.6893,588.9952,return,0.2286,,30.59895833,,,,,,FBP-YG-17.png,0.37,1.2,17,0.5,,,,,,,,,,,,,0,25,25,16,1,,,,,,,,,,,,,,,,,,,,,,,,,,,,
,,,,,SPR24_054,18,Female,2024-04-16_16h16.01.858,jersey_experiment_5_v0,2023.2.2,Win32,85.47008547,,,,,,,,,,,,,,,,588.9954,590.2893,590.2893,590.9012,return,0.2265,,30.59895833,,,,,,FBP-YG-17.png,0.35,1.2,16,0.5,,,,,,,,,,,,,0,26,26,15,1,,,,,,,,,,,,,,,,,,,,,,,,,,,,
,,,,,SPR24_054,18,Female,2024-04-16_16h16.01.858,jersey_experiment_5_v0,2023.2.2,Win32,85.47008547,,,,,,,,,,,,,,,,590.9012,592.1953,592.1953,594.5718,return,1.7648,,14.19270833,,,,,,FBP-PT-19.png,0.35,1.2,56,0.5,,,,,,,,,,,,,0,27,27,55,1,,,,,,,,,,,,,,,,,,,,,,,,,,,,
,,,,,SPR24_054,18,Female,2024-04-16_16h16.01.858,jersey_experiment_5_v0,2023.2.2,Win32,85.47008547,,,,,,,,,,,,,,,,594.572,595.6191,595.6191,596.772,return,0.6763,,23.046875,,,,,,FBP-OG-81.png,0.37,1.2,7,0.25,,,,,,,,,,,,,0,28,28,6,1,,,,,,,,,,,,,,,,,,,,,,,,,,,,
,,,,,SPR24_054,18,Female,2024-04-16_16h16.01.858,jersey_experiment_5_v0,2023.2.2,Win32,85.47008547,,,,,,,,,,,,,,,,596.7722,597.819,597.819,599.5603,return,0.2128,,73.828125,,,,,,FBP-RB-17.png,0.43,1.2,34,0.25,,,,,,,,,,,,,0,29,29,33,1,,,,,,,,,,,,,,,,,,,,,,,,,,,,
,,,,,SPR24_054,18,Female,2024-04-16_16h16.01.858,jersey_experiment_5_v0,2023.2.2,Win32,85.47008547,,,,,,,,,,,,,,,,599.5604,600.8545,600.8545,601.4191,return,0.1414,,73.56770833,,,,,,FBP-PT-17.png,0.43,1.2,49,0.5,,,,,,,,,,,,,0,30,30,48,1,,,,,,,,,,,,,,,,,,,,,,,,,,,,
,,,,,SPR24_054,18,Female,2024-04-16_16h16.01.858,jersey_experiment_5_v0,2023.2.2,Win32,85.47008547,,,,,,,,,,,,,,,,601.4193,602.7133,602.7134,603.2664,return,0.1702,,73.56770833,,,,,,FBP-PT-18.png,0.45,1.2,55,0.5,,,,,,,,,,,,,0,31,31,54,1,,,,,,,,,,,,,,,,,,,,,,,,,,,,
,,,,,SPR24_054,18,Female,2024-04-16_16h16.01.858,jersey_experiment_5_v0,2023.2.2,Win32,85.47008547,,,,,,,,,,,,,,,,603.2667,604.5605,604.5605,605.9605,return,0.1516,,25.65104167,,,,,,FBP-YG-19.png,0.4,1.2,28,0.5,,,,,,,,,,,,,0,32,32,27,1,,,,,,,,,,,,,,,,,,,,,,,,,,,,
,,,,,SPR24_054,18,Female,2024-04-16_16h16.01.858,jersey_experiment_5_v0,2023.2.2,Win32,85.47008547,,,,,,,,,,,,,,,,605.9607,607.0077,607.0077,608.3724,return,0.1345,,62.76041667,,,,,,FBP-RB-19.png,0.45,1.2,45,0.25,,,,,,,,,,,,,0,33,33,44,1,,,,,,,,,,,,,,,,,,,,,,,,,,,,
,,,,,SPR24_054,18,Female,2024-04-16_16h16.01.858,jersey_experiment_5_v0,2023.2.2,Win32,85.47008547,,,,,,,,,,,,,,,,608.3726,609.6666,609.6666,610.1958,return,0.1809,,62.76041667,,,,,,FBP-PT-19.png,0.43,1.2,59,0.5,,,,,,,,,,,,,0,34,34,58,1,,,,,,,,,,,,,,,,,,,,,,,,,,,,
,,,,,SPR24_054,18,Female,2024-04-16_16h16.01.858,jersey_experiment_5_v0,2023.2.2,Win32,85.47008547,,,,,,,,,,,,,,,,610.196,611.4901,611.4902,611.9136,return,0.1653,,62.76041667,,,,,,FBP-PT-19.png,0.45,1.2,60,0.5,,,,,,,,,,,,,0,35,35,59,1,,,,,,,,,,,,,,,,,,,,,,,,,,,,
,,,,,SPR24_054,18,Female,2024-04-16_16h16.01.858,jersey_experiment_5_v0,2023.2.2,Win32,85.47008547,,,,,,,,,,,,,,,,611.9139,612.9609,612.9609,615.1139,return,0.5047,,18.09895833,,,,,,FBP-RB-19.png,0.35,1.2,41,0.25,,,,,,,,,,,,,0,36,36,40,1,,,,,,,,,,,,,,,,,,,,,,,,,,,,
,,,,,SPR24_054,18,Female,2024-04-16_16h16.01.858,jersey_experiment_5_v0,2023.2.2,Win32,85.47008547,,,,,,,,,,,,,,,,615.1142,616.4081,616.4082,617.3847,return,0.1311,,18.22916667,,,,,,FBP-YG-19.png,0.37,1.2,27,0.5,,,,,,,,,,,,,0,37,37,26,1,,,,,,,,,,,,,,,,,,,,,,,,,,,,
,,,,,SPR24_054,18,Female,2024-04-16_16h16.01.858,jersey_experiment_5_v0,2023.2.2,Win32,85.47008547,,,,,,,,,,,,,,,,617.3849,618.4316,618.4316,619.7022,return,0.1912,,22.65625,,,,,,FBP-OG-91.png,0.35,1.2,11,0.25,,,,,,,,,,,,,0,38,38,10,1,,,,,,,,,,,,,,,,,,,,,,,,,,,,
,,,,,SPR24_054,18,Female,2024-04-16_16h16.01.858,jersey_experiment_5_v0,2023.2.2,Win32,85.47008547,,,,,,,,,,,,,,,,619.7025,620.7493,620.7493,621.761,return,0.1378,,20.703125,,,,,,FBP-OG-91.png,0.43,1.2,14,0.25,,,,,,,,,,,,,0,39,39,13,1,,,,,,,,,,,,,,,,,,,,,,,,,,,,
,,,,,SPR24_054,18,Female,2024-04-16_16h16.01.858,jersey_experiment_5_v0,2023.2.2,Win32,85.47008547,,,,,,,,,,,,,,,,621.7612,622.8081,622.8081,624.5966,return,0.0992,,36.58854167,,,,,,FBP-OG-81.png,0.4,1.2,8,0.25,,,,,,,,,,,,,0,40,40,7,1,,,,,,,,,,,,,,,,,,,,,,,,,,,,
,,,,,SPR24_054,18,Female,2024-04-16_16h16.01.858,jersey_experiment_5_v0,2023.2.2,Win32,85.47008547,,,,,,,,,,,,,,,,624.5966,625.6436,625.6437,626.7613,return,0.1043,,26.5625,,,,,,FBP-OG-71.png,0.35,1.2,1,0.25,,,,,,,,,,,,,0,41,41,0,1,,,,,,,,,,,,,,,,,,,,,,,,,,,,
,,,,,SPR24_054,18,Female,2024-04-16_16h16.01.858,jersey_experiment_5_v0,2023.2.2,Win32,85.47008547,,,,,,,,,,,,,,,,626.7614,627.8084,627.8084,628.9496,return,0.132,,71.875,,,,,,FBP-RB-18.png,0.43,1.2,39,0.25,,,,,,,,,,,,,0,42,42,38,1,,,,,,,,,,,,,,,,,,,,,,,,,,,,
,,,,,SPR24_054,18,Female,2024-04-16_16h16.01.858,jersey_experiment_5_v0,2023.2.2,Win32,85.47008547,,,,,,,,,,,,,,,,628.9498,629.9968,629.9968,631.0438,return,0.1809,,27.99479167,,,,,,FBP-OG-81.png,0.35,1.2,6,0.25,,,,,,,,,,,,,0,43,43,5,1,,,,,,,,,,,,,,,,,,,,,,,,,,,,
,,,,,SPR24_054,18,Female,2024-04-16_16h16.01.858,jersey_experiment_5_v0,2023.2.2,Win32,85.47008547,,,,,,,,,,,,,,,,631.0439,632.0909,632.0909,633.2556,return,0.8015,,32.421875,,,,,,FBP-RB-18.png,0.35,1.2,36,0.25,,,,,,,,,,,,,0,44,44,35,1,,,,,,,,,,,,,,,,,,,,,,,,,,,,
,,,,,SPR24_054,18,Female,2024-04-16_16h16.01.858,jersey_experiment_5_v0,2023.2.2,Win32,85.47008547,,,,,,,,,,,,,,,,633.2557,634.3028,634.3028,635.1263,return,0.1793,,32.421875,,,,,,FBP-OG-71.png,0.37,1.2,2,0.25,,,,,,,,,,,,,0,45,45,1,1,,,,,,,,,,,,,,,,,,,,,,,,,,,,
,,,,,SPR24_054,18,Female,2024-04-16_16h16.01.858,jersey_experiment_5_v0,2023.2.2,Win32,85.47008547,,,,,,,,,,,,,,,,635.1265,636.4204,636.4205,637.5736,return,0.1333,,72.78645833,,,,,,FBP-PT-17.png,0.4,1.2,48,0.5,,,,,,,,,,,,,0,46,46,47,1,,,,,,,,,,,,,,,,,,,,,,,,,,,,
,,,,,SPR24_054,18,Female,2024-04-16_16h16.01.858,jersey_experiment_5_v0,2023.2.2,Win32,85.47008547,,,,,,,,,,,,,,,,637.5738,638.8676,638.8677,639.6441,return,0.2033,,79.81770833,,,,,,FBP-YG-19.png,0.45,1.2,30,0.5,,,,,,,,,,,,,0,47,47,29,1,,,,,,,,,,,,,,,,,,,,,,,,,,,,
,,,,,SPR24_054,18,Female,2024-04-16_16h16.01.858,jersey_experiment_5_v0,2023.2.2,Win32,85.47008547,,,,,,,,,,,,,,,,639.6444,640.6913,640.6913,641.7856,return,0.118,,80.078125,,,,,,FBP-OG-81.png,0.43,1.2,9,0.25,,,,,,,,,,,,,0,48,48,8,1,,,,,,,,,,,,,,,,,,,,,,,,,,,,
,,,,,SPR24_054,18,Female,2024-04-16_16h16.01.858,jersey_experiment_5_v0,2023.2.2,Win32,85.47008547,,,,,,,,,,,,,,,,641.7859,642.8325,642.8325,644.6441,return,0.1227,,50.390625,,,,,,FBP-RB-17.png,0.37,1.2,32,0.25,,,,,,,,,,,,,0,49,49,31,1,,,,,,,,,,,,,,,,,,,,,,,,,,,,
,,,,,SPR24_054,18,Female,2024-04-16_16h16.01.858,jersey_experiment_5_v0,2023.2.2,Win32,85.47008547,,,,,,,,,,,,,,,,644.6443,645.6914,645.6914,646.5384,return,0.4609,,59.24479167,,,,,,FBP-RB-18.png,0.4,1.2,38,0.25,,,,,,,,,,,,,0,50,50,37,1,,,,,,,,,,,,,,,,,,,,,,,,,,,,
,,,,,SPR24_054,18,Female,2024-04-16_16h16.01.858,jersey_experiment_5_v0,2023.2.2,Win32,85.47008547,,,,,,,,,,,,,,,,646.5386,647.5855,647.5856,648.056,return,0.2598,,58.59375,,,,,,FBP-RB-19.png,0.4,1.2,43,0.25,,,,,,,,,,,,,0,51,51,42,1,,,,,,,,,,,,,,,,,,,,,,,,,,,,
,,,,,SPR24_054,18,Female,2024-04-16_16h16.01.858,jersey_experiment_5_v0,2023.2.2,Win32,85.47008547,,,,,,,,,,,,,,,,648.0562,649.1034,649.1034,650.115,return,0.5594,,62.63020833,,,,,,FBP-RB-17.png,0.45,1.2,35,0.25,,,,,,,,,,,,,0,52,52,34,1,,,,,,,,,,,,,,,,,,,,,,,,,,,,
,,,,,SPR24_054,18,Female,2024-04-16_16h16.01.858,jersey_experiment_5_v0,2023.2.2,Win32,85.47008547,,,,,,,,,,,,,,,,650.1152,651.4093,651.4094,652.1622,return,0.1472,,71.875,,,,,,FBP-YG-17.png,0.45,1.2,20,0.5,,,,,,,,,,,,,0,53,53,19,1,,,,,,,,,,,,,,,,,,,,,,,,,,,,
,,,,,SPR24_054,18,Female,2024-04-16_16h16.01.858,jersey_experiment_5_v0,2023.2.2,Win32,85.47008547,,,,,,,,,,,,,,,,652.1623,653.4564,653.4565,654.7388,return,0.4874,,71.484375,,,,,,FBP-YG-18.png,0.43,1.2,24,0.5,,,,,,,,,,,,,0,54,54,23,1,,,,,,,,,,,,,,,,,,,,,,,,,,,,
,,,,,SPR24_054,18,Female,2024-04-16_16h16.01.858,jersey_experiment_5_v0,2023.2.2,Win32,85.47008547,,,,,,,,,,,,,,,,654.739,655.7858,655.7858,656.6565,return,0.1378,,74.08854167,,,,,,FBP-RB-18.png,0.45,1.2,40,0.25,,,,,,,,,,,,,0,55,55,39,1,,,,,,,,,,,,,,,,,,,,,,,,,,,,
,,,,,SPR24_054,18,Female,2024-04-16_16h16.01.858,jersey_experiment_5_v0,2023.2.2,Win32,85.47008547,,,,,,,,,,,,,,,,656.6566,657.9508,657.9508,659.539,return,0.594,,50.52083333,,,,,,FBP-YG-18.png,0.4,1.2,23,0.5,,,,,,,,,,,,,0,56,56,22,1,,,,,,,,,,,,,,,,,,,,,,,,,,,,
,,,,,SPR24_054,18,Female,2024-04-16_16h16.01.858,jersey_experiment_5_v0,2023.2.2,Win32,85.47008547,,,,,,,,,,,,,,,,659.5391,660.5861,660.5861,661.4919,return,0.0989,,40.234375,,,,,,FBP-RB-19.png,0.37,1.2,42,0.25,,,,,,,,,,,,,0,57,57,41,1,,,,,,,,,,,,,,,,,,,,,,,,,,,,
,,,,,SPR24_054,18,Female,2024-04-16_16h16.01.858,jersey_experiment_5_v0,2023.2.2,Win32,85.47008547,,,,,,,,,,,,,,,,661.4922,662.7862,662.7863,663.9626,return,0.1514,,35.9375,,,,,,FBP-YG-18.png,0.37,1.2,22,0.5,,,,,,,,,,,,,0,58,58,21,1,,,,,,,,,,,,,,,,,,,,,,,,,,,,
,,,,,SPR24_054,18,Female,2024-04-16_16h16.01.858,jersey_experiment_5_v0,2023.2.2,Win32,85.47008547,,,,,,,,,,,,,,,,663.9628,665.2568,665.2568,666.2804,return,0.1642,,74.47916667,,,,,,FBP-YG-19.png,0.43,1.2,29,0.5,,,,,,,,,,,,,0,59,59,28,1,,,,,,,,,,,,,,,,,,,,,,,,,,,,
,,,,,SPR24_054,18,Female,2024-04-16_16h16.01.858,jersey_experiment_5_v0,2023.2.2,Win32,85.47008547,,,,,,,,,,,,,,,,666.2819,667.3274,667.3274,668.1628,return,0.2066,,74.86979167,,,,,,FBP-OG-18.png,0.45,1.2,10,0.25,,,,,,,,,,,,,,,,,,0,0,0,9,1,,,,,,,,,,,,,,,,,,,,,,,
,,,,,SPR24_054,18,Female,2024-04-16_16h16.01.858,jersey_experiment_5_v0,2023.2.2,Win32,85.47008547,,,,,,,,,,,,,,,,668.1632,669.2098,669.2099,670.457,return,0.1522,,26.43229167,,,,,,FBP-RB-91.png,0.35,1.2,41,0.25,,,,,,,,,,,,,,,,,,0,1,1,40,1,,,,,,,,,,,,,,,,,,,,,,,
,,,,,SPR24_054,18,Female,2024-04-16_16h16.01.858,jersey_experiment_5_v0,2023.2.2,Win32,85.47008547,,,,,,,,,,,,,,,,670.4572,671.5043,671.5043,672.363,return,0.1508,,26.43229167,,,,,,FBP-RB-71.png,0.37,1.2,32,0.25,,,,,,,,,,,,,,,,,,0,2,2,31,1,,,,,,,,,,,,,,,,,,,,,,,
,,,,,SPR24_054,18,Female,2024-04-16_16h16.01.858,jersey_experiment_5_v0,2023.2.2,Win32,85.47008547,,,,,,,,,,,,,,,,672.3632,673.4101,673.4101,674.7865,return,0.2045,,19.53125,,,,,,FBP-OG-19.png,0.37,1.2,12,0.25,,,,,,,,,,,,,,,,,,0,3,3,11,1,,,,,,,,,,,,,,,,,,,,,,,
,,,,,SPR24_054,18,Female,2024-04-16_16h16.01.858,jersey_experiment_5_v0,2023.2.2,Win32,85.47008547,,,,,,,,,,,,,,,,674.7867,676.0807,676.0808,677.3397,return,0.1424,,73.56770833,,,,,,FBP-YG-81.png,0.43,1.2,24,0.5,,,,,,,,,,,,,,,,,,0,4,4,23,1,,,,,,,,,,,,,,,,,,,,,,,
,,,,,SPR24_054,18,Female,2024-04-16_16h16.01.858,jersey_experiment_5_v0,2023.2.2,Win32,85.47008547,,,,,,,,,,,,,,,,677.3399,678.6337,678.6337,679.3396,return,0.2257,,72.78645833,,,,,,FBP-YG-91.png,0.43,1.2,29,0.5,,,,,,,,,,,,,,,,,,0,5,5,28,1,,,,,,,,,,,,,,,,,,,,,,,
,,,,,SPR24_054,18,Female,2024-04-16_16h16.01.858,jersey_experiment_5_v0,2023.2.2,Win32,85.47008547,,,,,,,,,,,,,,,,679.3399,680.3867,680.3868,681.4339,return,0.1651,,66.796875,,,,,,FBP-OG-18.png,0.43,1.2,9,0.25,,,,,,,,,,,,,,,,,,0,6,6,8,1,,,,,,,,,,,,,,,,,,,,,,,
,,,,,SPR24_054,18,Female,2024-04-16_16h16.01.858,jersey_experiment_5_v0,2023.2.2,Win32,85.47008547,,,,,,,,,,,,,,,,681.4341,682.7283,682.7284,684.3399,return,0.2278,,6.380208333,,,,,,FBP-PT-91.png,0.35,1.2,56,0.5,,,,,,,,,,,,,,,,,,0,7,7,55,1,,,,,,,,,,,,,,,,,,,,,,,
,,,,,SPR24_054,18,Female,2024-04-16_16h16.01.858,jersey_experiment_5_v0,2023.2.2,Win32,85.47008547,,,,,,,,,,,,,,,,684.34,685.3871,685.3871,686.6813,return,0.1546,,50.390625,,,,,,FBP-RB-71.png,0.4,1.2,33,0.25,,,,,,,,,,,,,,,,,,0,8,8,32,1,,,,,,,,,,,,,,,,,,,,,,,
,,,,,SPR24_054,18,Female,2024-04-16_16h16.01.858,jersey_experiment_5_v0,2023.2.2,Win32,85.47008547,,,,,,,,,,,,,,,,686.6815,687.9752,687.9753,688.9635,return,0.1585,,73.4375,,,,,,FBP-YG-81.png,0.45,1.2,25,0.5,,,,,,,,,,,,,,,,,,0,9,9,24,1,,,,,,,,,,,,,,,,,,,,,,,
,,,,,SPR24_054,18,Female,2024-04-16_16h16.01.858,jersey_experiment_5_v0,2023.2.2,Win32,85.47008547,,,,,,,,,,,,,,,,688.9638,690.0107,690.0107,691.7519,return,0.4719,,45.05208333,,,,,,FBP-OG-18.png,0.37,1.2,7,0.25,,,,,,,,,,,,,,,,,,0,10,10,6,1,,,,,,,,,,,,,,,,,,,,,,,
,,,,,SPR24_054,18,Female,2024-04-16_16h16.01.858,jersey_experiment_5_v0,2023.2.2,Win32,85.47008547,,,,,,,,,,,,,,,,691.7522,692.7991,692.7991,694.0226,return,0.1793,,25.65104167,,,,,,FBP-OG-17.png,0.35,1.2,1,0.25,,,,,,,,,,,,,,,,,,0,11,11,0,1,,,,,,,,,,,,,,,,,,,,,,,
,,,,,SPR24_054,18,Female,2024-04-16_16h16.01.858,jersey_experiment_5_v0,2023.2.2,Win32,85.47008547,,,,,,,,,,,,,,,,694.0228,695.3167,695.3168,695.799,return,0.1196,,25.52083333,,,,,,FBP-PT-81.png,0.4,1.2,53,0.5,,,,,,,,,,,,,,,,,,0,12,12,52,1,,,,,,,,,,,,,,,,,,,,,,,
,,,,,SPR24_054,18,Female,2024-04-16_16h16.01.858,jersey_experiment_5_v0,2023.2.2,Win32,85.47008547,,,,,,,,,,,,,,,,695.7992,696.8462,696.8462,697.8461,return,0.1543,,65.234375,,,,,,FBP-OG-17.png,0.43,1.2,4,0.25,,,,,,,,,,,,,,,,,,0,13,13,3,1,,,,,,,,,,,,,,,,,,,,,,,
,,,,,SPR24_054,18,Female,2024-04-16_16h16.01.858,jersey_experiment_5_v0,2023.2.2,Win32,85.47008547,,,,,,,,,,,,,,,,697.8463,699.1404,699.1404,700.0581,return,0.1645,,41.27604167,,,,,,FBP-YG-71.png,0.37,1.2,17,0.5,,,,,,,,,,,,,,,,,,0,14,14,16,1,,,,,,,,,,,,,,,,,,,,,,,
,,,,,SPR24_054,18,Female,2024-04-16_16h16.01.858,jersey_experiment_5_v0,2023.2.2,Win32,85.47008547,,,,,,,,,,,,,,,,700.0582,701.3523,701.3523,702.87,return,0.1671,,31.25,,,,,,FBP-YG-91.png,0.37,1.2,27,0.5,,,,,,,,,,,,,,,,,,0,15,15,26,1,,,,,,,,,,,,,,,,,,,,,,,
,,,,,SPR24_054,18,Female,2024-04-16_16h16.01.858,jersey_experiment_5_v0,2023.2.2,Win32,85.47008547,,,,,,,,,,,,,,,,702.8702,703.9169,703.9169,705.5055,return,0.1952,,14.32291667,,,,,,FBP-OG-17.png,0.37,1.2,2,0.25,,,,,,,,,,,,,,,,,,0,16,16,1,1,,,,,,,,,,,,,,,,,,,,,,,
,,,,,SPR24_054,18,Female,2024-04-16_16h16.01.858,jersey_experiment_5_v0,2023.2.2,Win32,85.47008547,,,,,,,,,,,,,,,,705.5057,706.8,706.8001,707.7643,return,0.1922,,35.15625,,,,,,FBP-YG-81.png,0.37,1.2,22,0.5,,,,,,,,,,,,,,,,,,0,17,17,21,1,,,,,,,,,,,,,,,,,,,,,,,
,,,,,SPR24_054,18,Female,2024-04-16_16h16.01.858,jersey_experiment_5_v0,2023.2.2,Win32,85.47008547,,,,,,,,,,,,,,,,707.7645,709.0586,709.0586,709.9408,return,0.1461,,23.4375,,,,,,FBP-PT-91.png,0.37,1.2,57,0.5,,,,,,,,,,,,,,,,,,0,18,18,56,1,,,,,,,,,,,,,,,,,,,,,,,
,,,,,SPR24_054,18,Female,2024-04-16_16h16.01.858,jersey_experiment_5_v0,2023.2.2,Win32,85.47008547,,,,,,,,,,,,,,,,709.941,710.988,710.988,712.1057,return,0.1507,,74.609375,,,,,,FBP-RB-71.png,0.43,1.2,34,0.25,,,,,,,,,,,,,,,,,,0,19,19,33,1,,,,,,,,,,,,,,,,,,,,,,,
,,,,,SPR24_054,18,Female,2024-04-16_16h16.01.858,jersey_experiment_5_v0,2023.2.2,Win32,85.47008547,,,,,,,,,,,,,,,,712.1059,713.1528,713.1528,713.6704,return,0.1557,,73.828125,,,,,,FBP-RB-81.png,0.43,1.2,39,0.25,,,,,,,,,,,,,,,,,,0,20,20,38,1,,,,,,,,,,,,,,,,,,,,,,,
,,,,,SPR24_054,18,Female,2024-04-16_16h16.01.858,jersey_experiment_5_v0,2023.2.2,Win32,85.47008547,,,,,,,,,,,,,,,,713.6705,714.9645,714.9646,715.4587,return,0.1698,,73.69791667,,,,,,FBP-YG-71.png,0.43,1.2,19,0.5,,,,,,,,,,,,,,,,,,0,21,21,18,1,,,,,,,,,,,,,,,,,,,,,,,
,,,,,SPR24_054,18,Female,2024-04-16_16h16.01.858,jersey_experiment_5_v0,2023.2.2,Win32,85.47008547,,,,,,,,,,,,,,,,715.4589,716.5057,716.5057,717.4117,return,0.6398,,57.03125,,,,,,FBP-RB-91.png,0.37,1.2,42,0.25,,,,,,,,,,,,,,,,,,0,22,22,41,1,,,,,,,,,,,,,,,,,,,,,,,
,,,,,SPR24_054,18,Female,2024-04-16_16h16.01.858,jersey_experiment_5_v0,2023.2.2,Win32,85.47008547,,,,,,,,,,,,,,,,717.4118,718.7059,718.7059,719.2588,return,0.1646,,60.41666667,,,,,,FBP-YG-81.png,0.4,1.2,23,0.5,,,,,,,,,,,,,,,,,,0,23,23,22,1,,,,,,,,,,,,,,,,,,,,,,,
,,,,,SPR24_054,18,Female,2024-04-16_16h16.01.858,jersey_experiment_5_v0,2023.2.2,Win32,85.47008547,,,,,,,,,,,,,,,,719.259,720.5532,720.5533,721.1295,return,0.1655,,75.78125,,,,,,FBP-YG-91.png,0.45,1.2,30,0.5,,,,,,,,,,,,,,,,,,0,24,24,29,1,,,,,,,,,,,,,,,,,,,,,,,
,,,,,SPR24_054,18,Female,2024-04-16_16h16.01.858,jersey_experiment_5_v0,2023.2.2,Win32,85.47008547,,,,,,,,,,,,,,,,721.1298,722.4236,722.4236,723.2708,return,0.3535,,86.328125,,,,,,FBP-PT-91.png,0.45,1.2,60,0.5,,,,,,,,,,,,,,,,,,0,25,25,59,1,,,,,,,,,,,,,,,,,,,,,,,
,,,,,SPR24_054,18,Female,2024-04-16_16h16.01.858,jersey_experiment_5_v0,2023.2.2,Win32,85.47008547,,,,,,,,,,,,,,,,723.271,724.3179,724.3179,725.459,return,0.6766,,77.47395833,,,,,,FBP-OG-19.png,0.45,1.2,15,0.25,,,,,,,,,,,,,,,,,,0,26,26,14,1,,,,,,,,,,,,,,,,,,,,,,,
,,,,,SPR24_054,18,Female,2024-04-16_16h16.01.858,jersey_experiment_5_v0,2023.2.2,Win32,85.47008547,,,,,,,,,,,,,,,,725.4592,726.5062,726.5062,727.7061,return,0.1411,,55.078125,,,,,,FBP-OG-18.png,0.4,1.2,8,0.25,,,,,,,,,,,,,,,,,,0,27,27,7,1,,,,,,,,,,,,,,,,,,,,,,,
,,,,,SPR24_054,18,Female,2024-04-16_16h16.01.858,jersey_experiment_5_v0,2023.2.2,Win32,85.47008547,,,,,,,,,,,,,,,,727.7064,728.7533,728.7533,729.1886,return,0.1225,,53.515625,,,,,,FBP-RB-81.png,0.4,1.2,38,0.25,,,,,,,,,,,,,,,,,,0,28,28,37,1,,,,,,,,,,,,,,,,,,,,,,,
,,,,,SPR24_054,18,Female,2024-04-16_16h16.01.858,jersey_experiment_5_v0,2023.2.2,Win32,85.47008547,,,,,,,,,,,,,,,,729.1888,730.2357,730.2358,731.3768,return,0.1362,,25.65104167,,,,,,FBP-RB-81.png,0.35,1.2,36,0.25,,,,,,,,,,,,,,,,,,0,29,29,35,1,,,,,,,,,,,,,,,,,,,,,,,
,,,,,SPR24_054,18,Female,2024-04-16_16h16.01.858,jersey_experiment_5_v0,2023.2.2,Win32,85.47008547,,,,,,,,,,,,,,,,731.3769,732.671,732.6711,733.2004,return,0.1254,,25.65104167,,,,,,FBP-PT-81.png,0.37,1.2,52,0.5,,,,,,,,,,,,,,,,,,0,30,30,51,1,,,,,,,,,,,,,,,,,,,,,,,
,,,,,SPR24_054,18,Female,2024-04-16_16h16.01.858,jersey_experiment_5_v0,2023.2.2,Win32,85.47008547,,,,,,,,,,,,,,,,733.2005,734.2476,734.2476,735.0006,return,0.1055,,65.75520833,,,,,,FBP-RB-81.png,0.45,1.2,40,0.25,,,,,,,,,,,,,,,,,,0,31,31,39,1,,,,,,,,,,,,,,,,,,,,,,,
,,,,,SPR24_054,18,Female,2024-04-16_16h16.01.858,jersey_experiment_5_v0,2023.2.2,Win32,85.47008547,,,,,,,,,,,,,,,,735.0008,736.0477,736.0477,736.8005,return,0.091,,79.55729167,,,,,,FBP-RB-91.png,0.43,1.2,44,0.25,,,,,,,,,,,,,,,,,,0,32,32,43,1,,,,,,,,,,,,,,,,,,,,,,,
,,,,,SPR24_054,18,Female,2024-04-16_16h16.01.858,jersey_experiment_5_v0,2023.2.2,Win32,85.47008547,,,,,,,,,,,,,,,,736.8008,738.0947,738.0948,738.4005,return,0.1381,,79.16666667,,,,,,FBP-PT-71.png,0.43,1.2,49,0.5,,,,,,,,,,,,,,,,,,0,33,33,48,1,,,,,,,,,,,,,,,,,,,,,,,
,,,,,SPR24_054,18,Female,2024-04-16_16h16.01.858,jersey_experiment_5_v0,2023.2.2,Win32,85.47008547,,,,,,,,,,,,,,,,738.4007,739.6949,739.6949,741.0832,return,0.6032,,28.25520833,,,,,,FBP-YG-91.png,0.35,1.2,26,0.5,,,,,,,,,,,,,,,,,,0,34,34,25,1,,,,,,,,,,,,,,,,,,,,,,,
,,,,,SPR24_054,18,Female,2024-04-16_16h16.01.858,jersey_experiment_5_v0,2023.2.2,Win32,85.47008547,,,,,,,,,,,,,,,,741.0834,742.1303,742.1304,742.8832,return,0.1001,,25.13020833,,,,,,FBP-RB-71.png,0.35,1.2,31,0.25,,,,,,,,,,,,,,,,,,0,35,35,30,1,,,,,,,,,,,,,,,,,,,,,,,
,,,,,SPR24_054,18,Female,2024-04-16_16h16.01.858,jersey_experiment_5_v0,2023.2.2,Win32,85.47008547,,,,,,,,,,,,,,,,742.8834,743.9303,743.9304,744.9774,return,0.149,,62.109375,,,,,,FBP-OG-19.png,0.43,1.2,14,0.25,,,,,,,,,,,,,,,,,,0,36,36,13,1,,,,,,,,,,,,,,,,,,,,,,,
,,,,,SPR24_054,18,Female,2024-04-16_16h16.01.858,jersey_experiment_5_v0,2023.2.2,Win32,85.47008547,,,,,,,,,,,,,,,,744.9775,746.2717,746.2718,747.0598,return,0.1585,,26.82291667,,,,,,FBP-YG-81.png,0.35,1.2,21,0.5,,,,,,,,,,,,,,,,,,0,37,37,20,1,,,,,,,,,,,,,,,,,,,,,,,
,,,,,SPR24_054,18,Female,2024-04-16_16h16.01.858,jersey_experiment_5_v0,2023.2.2,Win32,85.47008547,,,,,,,,,,,,,,,,747.0601,748.1069,748.1069,748.9304,return,0.1242,,71.875,,,,,,FBP-OG-17.png,0.45,1.2,5,0.25,,,,,,,,,,,,,,,,,,0,38,38,4,1,,,,,,,,,,,,,,,,,,,,,,,
,,,,,SPR24_054,18,Female,2024-04-16_16h16.01.858,jersey_experiment_5_v0,2023.2.2,Win32,85.47008547,,,,,,,,,,,,,,,,748.9307,750.2246,750.2246,750.6952,return,0.12,,83.85416667,,,,,,FBP-PT-71.png,0.45,1.2,50,0.5,,,,,,,,,,,,,,,,,,0,39,39,49,1,,,,,,,,,,,,,,,,,,,,,,,
,,,,,SPR24_054,18,Female,2024-04-16_16h16.01.858,jersey_experiment_5_v0,2023.2.2,Win32,85.47008547,,,,,,,,,,,,,,,,750.6954,751.9895,751.9895,752.5542,return,0.2118,,83.72395833,,,,,,FBP-PT-81.png,0.45,1.2,55,0.5,,,,,,,,,,,,,,,,,,0,40,40,54,1,,,,,,,,,,,,,,,,,,,,,,,
,,,,,SPR24_054,18,Female,2024-04-16_16h16.01.858,jersey_experiment_5_v0,2023.2.2,Win32,85.47008547,,,,,,,,,,,,,,,,752.5544,753.8481,753.8482,754.7777,return,0.1406,,49.609375,,,,,,FBP-YG-91.png,0.4,1.2,28,0.5,,,,,,,,,,,,,,,,,,0,41,41,27,1,,,,,,,,,,,,,,,,,,,,,,,
,,,,,SPR24_054,18,Female,2024-04-16_16h16.01.858,jersey_experiment_5_v0,2023.2.2,Win32,85.47008547,,,,,,,,,,,,,,,,754.7779,756.072,756.072,756.9308,return,0.1582,,26.43229167,,,,,,FBP-PT-81.png,0.35,1.2,51,0.5,,,,,,,,,,,,,,,,,,0,42,42,50,1,,,,,,,,,,,,,,,,,,,,,,,
,,,,,SPR24_054,18,Female,2024-04-16_16h16.01.858,jersey_experiment_5_v0,2023.2.2,Win32,85.47008547,,,,,,,,,,,,,,,,756.931,757.978,757.978,759.2486,return,0.1245,,24.47916667,,,,,,FBP-RB-81.png,0.37,1.2,37,0.25,,,,,,,,,,,,,,,,,,0,43,43,36,1,,,,,,,,,,,,,,,,,,,,,,,
,,,,,SPR24_054,18,Female,2024-04-16_16h16.01.858,jersey_experiment_5_v0,2023.2.2,Win32,85.47008547,,,,,,,,,,,,,,,,759.2488,760.5429,760.5429,761.484,return,0.2257,,74.609375,,,,,,FBP-YG-71.png,0.45,1.2,20,0.5,,,,,,,,,,,,,,,,,,0,44,44,19,1,,,,,,,,,,,,,,,,,,,,,,,
,,,,,SPR24_054,18,Female,2024-04-16_16h16.01.858,jersey_experiment_5_v0,2023.2.2,Win32,85.47008547,,,,,,,,,,,,,,,,761.4841,762.7784,762.7784,763.5898,return,0.2249,,25,,,,,,FBP-PT-71.png,0.35,1.2,46,0.5,,,,,,,,,,,,,,,,,,0,45,45,45,1,,,,,,,,,,,,,,,,,,,,,,,
,,,,,SPR24_054,18,Female,2024-04-16_16h16.01.858,jersey_experiment_5_v0,2023.2.2,Win32,85.47008547,,,,,,,,,,,,,,,,763.59,764.8842,764.8843,765.8606,return,0.1815,,73.56770833,,,,,,FBP-PT-91.png,0.43,1.2,59,0.5,,,,,,,,,,,,,,,,,,0,46,46,58,1,,,,,,,,,,,,,,,,,,,,,,,
,,,,,SPR24_054,18,Female,2024-04-16_16h16.01.858,jersey_experiment_5_v0,2023.2.2,Win32,85.47008547,,,,,,,,,,,,,,,,765.8607,767.1547,767.1548,767.59,return,0.1305,,72.65625,,,,,,FBP-YG-71.png,0.4,1.2,18,0.5,,,,,,,,,,,,,,,,,,0,47,47,17,1,,,,,,,,,,,,,,,,,,,,,,,
,,,,,SPR24_054,18,Female,2024-04-16_16h16.01.858,jersey_experiment_5_v0,2023.2.2,Win32,85.47008547,,,,,,,,,,,,,,,,767.5902,768.6372,768.6372,769.3078,return,0.142,,70.96354167,,,,,,FBP-OG-19.png,0.4,1.2,13,0.25,,,,,,,,,,,,,,,,,,0,48,48,12,1,,,,,,,,,,,,,,,,,,,,,,,
,,,,,SPR24_054,18,Female,2024-04-16_16h16.01.858,jersey_experiment_5_v0,2023.2.2,Win32,85.47008547,,,,,,,,,,,,,,,,769.3079,770.6019,770.602,771.2726,return,0.0944,,50.78125,,,,,,FBP-PT-71.png,0.37,1.2,47,0.5,,,,,,,,,,,,,,,,,,0,49,49,46,1,,,,,,,,,,,,,,,,,,,,,,,
,,,,,SPR24_054,18,Female,2024-04-16_16h16.01.858,jersey_experiment_5_v0,2023.2.2,Win32,85.47008547,,,,,,,,,,,,,,,,771.2728,772.5669,772.5669,773.9786,return,0.8945,,68.09895833,,,,,,FBP-PT-81.png,0.43,1.2,54,0.5,,,,,,,,,,,,,,,,,,0,50,50,53,1,,,,,,,,,,,,,,,,,,,,,,,
,,,,,SPR24_054,18,Female,2024-04-16_16h16.01.858,jersey_experiment_5_v0,2023.2.2,Win32,85.47008547,,,,,,,,,,,,,,,,773.9789,775.0255,775.0256,775.6491,return,0.1143,,67.83854167,,,,,,FBP-RB-91.png,0.4,1.2,43,0.25,,,,,,,,,,,,,,,,,,0,51,51,42,1,,,,,,,,,,,,,,,,,,,,,,,
,,,,,SPR24_054,18,Female,2024-04-16_16h16.01.858,jersey_experiment_5_v0,2023.2.2,Win32,85.47008547,,,,,,,,,,,,,,,,775.6494,776.9434,776.9434,777.3079,return,0.1883,,67.44791667,,,,,,FBP-PT-91.png,0.4,1.2,58,0.5,,,,,,,,,,,,,,,,,,0,52,52,57,1,,,,,,,,,,,,,,,,,,,,,,,
,,,,,SPR24_054,18,Female,2024-04-16_16h16.01.858,jersey_experiment_5_v0,2023.2.2,Win32,85.47008547,,,,,,,,,,,,,,,,777.3081,778.3552,778.3552,779.1554,return,0.1226,,78.90625,,,,,,FBP-RB-91.png,0.45,1.2,45,0.25,,,,,,,,,,,,,,,,,,0,53,53,44,1,,,,,,,,,,,,,,,,,,,,,,,
,,,,,SPR24_054,18,Female,2024-04-16_16h16.01.858,jersey_experiment_5_v0,2023.2.2,Win32,85.47008547,,,,,,,,,,,,,,,,779.1557,780.2022,780.2022,782.6728,return,1.1142,,36.84895833,,,,,,FBP-OG-19.png,0.35,1.2,11,0.25,,,,,,,,,,,,,,,,,,0,54,54,10,1,,,,,,,,,,,,,,,,,,,,,,,
,,,,,SPR24_054,18,Female,2024-04-16_16h16.01.858,jersey_experiment_5_v0,2023.2.2,Win32,85.47008547,,,,,,,,,,,,,,,,782.6729,783.967,783.967,784.6731,return,0.1731,,33.72395833,,,,,,FBP-YG-71.png,0.35,1.2,16,0.5,,,,,,,,,,,,,,,,,,0,55,55,15,1,,,,,,,,,,,,,,,,,,,,,,,
,,,,,SPR24_054,18,Female,2024-04-16_16h16.01.858,jersey_experiment_5_v0,2023.2.2,Win32,85.47008547,,,,,,,,,,,,,,,,784.6733,785.9671,785.9671,786.4378,return,0.3202,,33.72395833,,,,,,FBP-PT-71.png,0.4,1.2,48,0.5,,,,,,,,,,,,,,,,,,0,56,56,47,1,,,,,,,,,,,,,,,,,,,,,,,
,,,,,SPR24_054,18,Female,2024-04-16_16h16.01.858,jersey_experiment_5_v0,2023.2.2,Win32,85.47008547,,,,,,,,,,,,,,,,786.438,787.4848,787.4849,788.7554,return,0.5686,,45.57291667,,,,,,FBP-OG-17.png,0.4,1.2,3,0.25,,,,,,,,,,,,,,,,,,0,57,57,2,1,,,,,,,,,,,,,,,,,,,,,,,
,,,,,SPR24_054,18,Female,2024-04-16_16h16.01.858,jersey_experiment_5_v0,2023.2.2,Win32,85.47008547,,,,,,,,,,,,,,,,788.7555,789.8026,789.8026,790.7437,return,0.1297,,37.109375,,,,,,FBP-OG-18.png,0.35,1.2,6,0.25,,,,,,,,,,,,,,,,,,0,58,58,5,1,,,,,,,,,,,,,,,,,,,,,,,
,,,,,SPR24_054,18,Female,2024-04-16_16h16.01.858,jersey_experiment_5_v0,2023.2.2,Win32,85.47008547,,,,,,,,,,,,,,,,790.7438,791.791,791.791,792.9205,return,0.1179,,66.796875,,,,,,FBP-RB-71.png,0.45,1.2,35,0.25,,,,,,,,,,,,,,,,,,0,59,59,34,1,,,,,,,,,,,,,,,,,,,,,,,
,,,,,SPR24_054,18,Female,2024-04-16_16h16.01.858,jersey_experiment_5_v0,2023.2.2,Win32,85.47008547,,,,,,,,,,,,,,,,,,,,,,,,,,,,,,,,,,,,,,,,,,,,,,,,,,,,,,,,792.9207,796.6971,return,3.7644,,,,,,,,,,,,,,,,,,,
,,,,,SPR24_054,18,Female,2024-04-16_16h16.01.858,jersey_experiment_5_v0,2023.2.2,Win32,85.47008547,,,,,,,,,,,,,,,,,,,,,,,,,,,,,,,,,,,,,,,,,,,,,,,,,,,,,,,,,,,,,796.6973,799.9443,1,2.7949,return,0.4343,,,,,,,,,,,,
,,,,,SPR24_054,18,Female,2024-04-16_16h16.01.858,jersey_experiment_5_v0,2023.2.2,Win32,85.47008547,,,,,,,,,,,,,,,,,,,,,,,,,,,,,,,,,,,,,,,,,,,,,,,,,,,,,,,,,,,,,,,,,,,,799.9444,816.4318,no,right,4.4909,,,,,,
,,,,,SPR24_054,18,Female,2024-04-16_16h16.01.858,jersey_experiment_5_v0,2023.2.2,Win32,85.47008547,,,,,,,,,,,,,,,,,,,,,,,,,,,,,,,,,,,,,,,,,,,,,,,,,,,,,,,,,,,,,,,,,,,,,,,,,,816.4318,818.2978,return,1.8528,