requirements.started,requirements.stopped,key_resp_3.keys,key_resp_3.rt,key_resp_3.duration,Subject ID,Age,Gender,date,expName,psychopyVersion,OS,frameRate,instructions1.started,instructions1.stopped,key_resp.keys,key_resp.rt,key_resp.duration,example.started,example.stopped,enter_2.keys,enter_2.rt,enter_2.duration,instructions2.started,instructions2.stopped,enter_3.keys,enter_3.rt,enter_3.duration,image.started,image.stopped,slider_2.started,slider_2.stopped,next.keys,next.rt,next.duration,slider.response,trial_block_1.thisRepN,trial_block_1.thisTrialN,trial_block_1.thisN,trial_block_1.thisIndex,trial_block_1.ran,Path,Width,Height,Index,Duration,trial_block_2.thisRepN,trial_block_2.thisTrialN,trial_block_2.thisN,trial_block_2.thisIndex,trial_block_2.ran,rest_break.started,rest_break.stopped,end_break.started,end_break.stopped,key_resp_5.keys,key_resp_5.rt,key_resp_5.duration,trial_block_3.thisRepN,trial_block_3.thisTrialN,trial_block_3.thisN,trial_block_3.thisIndex,trial_block_3.ran,trial_block_4.thisRepN,trial_block_4.thisTrialN,trial_block_4.thisN,trial_block_4.thisIndex,trial_block_4.ran,questions_intro.started,questions_intro.stopped,enter_12.keys,enter_12.rt,enter_12.duration,question2.started,question2.stopped,question_doingbest.response,question_doingbest.rt,enter_15.keys,enter_15.rt,enter_15.duration,pattern.started,pattern.stopped,pattern_2.text,enter_17.keys,enter_17.rt,enter_17.duration,thankyou.started,thankyou.stopped,enter_14.keys,enter_14.rt,enter_14.duration
0.0002,8.3927,return,8.3815,,SPR24_082,19,male,2024-04-23_15h59.41.624,jersey_experiment_5_v0,2023.2.2,Win32,86.20689655,,,,,,,,,,,,,,,,,,,,,,,,,,,,,,,,,,,,,,,,,,,,,,,,,,,,,,,,,,,,,,,,,,,,,,,,,,,,,,
,,,,,SPR24_082,19,male,2024-04-23_15h59.41.624,jersey_experiment_5_v0,2023.2.2,Win32,86.20689655,8.3928,15.4635,return,7.0587,,,,,,,,,,,,,,,,,,,,,,,,,,,,,,,,,,,,,,,,,,,,,,,,,,,,,,,,,,,,,,,,,,,,,,,,,,
,,,,,SPR24_082,19,male,2024-04-23_15h59.41.624,jersey_experiment_5_v0,2023.2.2,Win32,86.20689655,,,,,,15.4637,22.8992,return,7.4035,,,,,,,,,,,,,,,,,,,,,,,,,,,,,,,,,,,,,,,,,,,,,,,,,,,,,,,,,,,,,,,,,,,,,
,,,,,SPR24_082,19,male,2024-04-23_15h59.41.624,jersey_experiment_5_v0,2023.2.2,Win32,86.20689655,,,,,,,,,,,22.8993,36.7113,return,13.8006,,,,,,,,,,,,,,,,,,,,,,,,,,,,,,,,,,,,,,,,,,,,,,,,,,,,,,,,,,,,,,,,
,,,,,SPR24_082,19,male,2024-04-23_15h59.41.624,jersey_experiment_5_v0,2023.2.2,Win32,86.20689655,,,,,,,,,,,,,,,,36.7183,37.77,37.7701,46.594,return,5.2031,,49.86979167,0,0,0,56,1,FBP-PT-19.png,0.37,1.2,57,0.25,,,,,,,,,,,,,,,,,,,,,,,,,,,,,,,,,,,,,,,,,,,,,
,,,,,SPR24_082,19,male,2024-04-23_15h59.41.624,jersey_experiment_5_v0,2023.2.2,Win32,86.20689655,,,,,,,,,,,,,,,,46.5983,47.8998,47.8998,50.6762,return,1.3291,,24.47916667,0,1,1,0,1,FBP-OG-71.png,0.35,1.2,1,0.5,,,,,,,,,,,,,,,,,,,,,,,,,,,,,,,,,,,,,,,,,,,,,
,,,,,SPR24_082,19,male,2024-04-23_15h59.41.624,jersey_experiment_5_v0,2023.2.2,Win32,86.20689655,,,,,,,,,,,,,,,,50.6764,51.9706,51.9706,55.1588,return,2.1419,,24.609375,0,2,2,10,1,FBP-OG-91.png,0.35,1.2,11,0.5,,,,,,,,,,,,,,,,,,,,,,,,,,,,,,,,,,,,,,,,,,,,,
,,,,,SPR24_082,19,male,2024-04-23_15h59.41.624,jersey_experiment_5_v0,2023.2.2,Win32,86.20689655,,,,,,,,,,,,,,,,55.159,56.2058,56.2058,58.406,return,0.6362,,14.453125,0,3,3,20,1,FBP-YG-18.png,0.35,1.2,21,0.25,,,,,,,,,,,,,,,,,,,,,,,,,,,,,,,,,,,,,,,,,,,,,
,,,,,SPR24_082,19,male,2024-04-23_15h59.41.624,jersey_experiment_5_v0,2023.2.2,Win32,86.20689655,,,,,,,,,,,,,,,,58.4062,59.7001,59.7001,62.2885,return,1.2507,,67.83854167,0,4,4,4,1,FBP-OG-71.png,0.45,1.2,5,0.5,,,,,,,,,,,,,,,,,,,,,,,,,,,,,,,,,,,,,,,,,,,,,
,,,,,SPR24_082,19,male,2024-04-23_15h59.41.624,jersey_experiment_5_v0,2023.2.2,Win32,86.20689655,,,,,,,,,,,,,,,,62.2887,63.5826,63.5826,65.7121,return,0.547,,74.73958333,0,5,5,9,1,FBP-OG-81.png,0.45,1.2,10,0.5,,,,,,,,,,,,,,,,,,,,,,,,,,,,,,,,,,,,,,,,,,,,,
,,,,,SPR24_082,19,male,2024-04-23_15h59.41.624,jersey_experiment_5_v0,2023.2.2,Win32,86.20689655,,,,,,,,,,,,,,,,65.7122,66.7591,66.7591,74.7712,return,4.6954,,66.92708333,0,6,6,57,1,FBP-PT-19.png,0.4,1.2,58,0.25,,,,,,,,,,,,,,,,,,,,,,,,,,,,,,,,,,,,,,,,,,,,,
,,,,,SPR24_082,19,male,2024-04-23_15h59.41.624,jersey_experiment_5_v0,2023.2.2,Win32,86.20689655,,,,,,,,,,,,,,,,74.7755,76.0771,76.0771,80.6537,return,2.9357,,5.338541667,0,7,7,31,1,FBP-RB-17.png,0.37,1.2,32,0.5,,,,,,,,,,,,,,,,,,,,,,,,,,,,,,,,,,,,,,,,,,,,,
,,,,,SPR24_082,19,male,2024-04-23_15h59.41.624,jersey_experiment_5_v0,2023.2.2,Win32,86.20689655,,,,,,,,,,,,,,,,80.654,81.9479,81.9479,90.8658,return,0.7184,,33.85416667,0,8,8,5,1,FBP-OG-81.png,0.35,1.2,6,0.5,,,,,,,,,,,,,,,,,,,,,,,,,,,,,,,,,,,,,,,,,,,,,
,,,,,SPR24_082,19,male,2024-04-23_15h59.41.624,jersey_experiment_5_v0,2023.2.2,Win32,86.20689655,,,,,,,,,,,,,,,,90.866,91.9131,91.9131,94.8189,return,0.7325,,18.359375,0,9,9,50,1,FBP-PT-18.png,0.35,1.2,51,0.25,,,,,,,,,,,,,,,,,,,,,,,,,,,,,,,,,,,,,,,,,,,,,
,,,,,SPR24_082,19,male,2024-04-23_15h59.41.624,jersey_experiment_5_v0,2023.2.2,Win32,86.20689655,,,,,,,,,,,,,,,,94.819,95.8662,95.8662,99.0309,return,0.7392,,79.16666667,0,10,10,18,1,FBP-YG-17.png,0.43,1.2,19,0.25,,,,,,,,,,,,,,,,,,,,,,,,,,,,,,,,,,,,,,,,,,,,,
,,,,,SPR24_082,19,male,2024-04-23_15h59.41.624,jersey_experiment_5_v0,2023.2.2,Win32,86.20689655,,,,,,,,,,,,,,,,99.031,100.325,100.3251,103.831,return,1.6345,,92.96875,0,11,11,14,1,FBP-OG-91.png,0.45,1.2,15,0.5,,,,,,,,,,,,,,,,,,,,,,,,,,,,,,,,,,,,,,,,,,,,,
,,,,,SPR24_082,19,male,2024-04-23_15h59.41.624,jersey_experiment_5_v0,2023.2.2,Win32,86.20689655,,,,,,,,,,,,,,,,103.8312,105.1251,105.1251,107.1722,return,0.4816,,99.73958333,0,12,12,34,1,FBP-RB-17.png,0.45,1.2,35,0.5,,,,,,,,,,,,,,,,,,,,,,,,,,,,,,,,,,,,,,,,,,,,,
,,,,,SPR24_082,19,male,2024-04-23_15h59.41.624,jersey_experiment_5_v0,2023.2.2,Win32,86.20689655,,,,,,,,,,,,,,,,107.1724,108.2195,108.2195,111.7606,return,1.7466,,71.09375,0,13,13,27,1,FBP-YG-19.png,0.4,1.2,28,0.25,,,,,,,,,,,,,,,,,,,,,,,,,,,,,,,,,,,,,,,,,,,,,
,,,,,SPR24_082,19,male,2024-04-23_15h59.41.624,jersey_experiment_5_v0,2023.2.2,Win32,86.20689655,,,,,,,,,,,,,,,,111.7609,112.8079,112.8079,118.4668,return,1.2029,,13.41145833,0,14,14,26,1,FBP-YG-19.png,0.37,1.2,27,0.25,,,,,,,,,,,,,,,,,,,,,,,,,,,,,,,,,,,,,,,,,,,,,
,,,,,SPR24_082,19,male,2024-04-23_15h59.41.624,jersey_experiment_5_v0,2023.2.2,Win32,86.20689655,,,,,,,,,,,,,,,,118.4671,119.514,119.514,121.6789,return,0.3721,,3.515625,0,15,15,25,1,FBP-YG-19.png,0.35,1.2,26,0.25,,,,,,,,,,,,,,,,,,,,,,,,,,,,,,,,,,,,,,,,,,,,,
,,,,,SPR24_082,19,male,2024-04-23_15h59.41.624,jersey_experiment_5_v0,2023.2.2,Win32,86.20689655,,,,,,,,,,,,,,,,121.6792,122.9729,122.9729,127.5377,return,0.2847,,4.947916667,0,16,16,40,1,FBP-RB-19.png,0.35,1.2,41,0.5,,,,,,,,,,,,,,,,,,,,,,,,,,,,,,,,,,,,,,,,,,,,,
,,,,,SPR24_082,19,male,2024-04-23_15h59.41.624,jersey_experiment_5_v0,2023.2.2,Win32,86.20689655,,,,,,,,,,,,,,,,127.5379,128.8319,128.8319,131.938,return,0.5571,,60.80729167,0,17,17,12,1,FBP-OG-91.png,0.4,1.2,13,0.5,,,,,,,,,,,,,,,,,,,,,,,,,,,,,,,,,,,,,,,,,,,,,
,,,,,SPR24_082,19,male,2024-04-23_15h59.41.624,jersey_experiment_5_v0,2023.2.2,Win32,86.20689655,,,,,,,,,,,,,,,,131.9382,132.985,132.9851,135.3145,return,0.5068,,92.1875,0,18,18,59,1,FBP-PT-19.png,0.45,1.2,60,0.25,,,,,,,,,,,,,,,,,,,,,,,,,,,,,,,,,,,,,,,,,,,,,
,,,,,SPR24_082,19,male,2024-04-23_15h59.41.624,jersey_experiment_5_v0,2023.2.2,Win32,86.20689655,,,,,,,,,,,,,,,,135.3147,136.3616,136.3617,139.5264,return,0.3394,,4.427083333,0,19,19,15,1,FBP-YG-17.png,0.35,1.2,16,0.25,,,,,,,,,,,,,,,,,,,,,,,,,,,,,,,,,,,,,,,,,,,,,
,,,,,SPR24_082,19,male,2024-04-23_15h59.41.624,jersey_experiment_5_v0,2023.2.2,Win32,86.20689655,,,,,,,,,,,,,,,,139.5267,140.5736,140.5736,143.1854,return,0.4261,,68.48958333,0,20,20,47,1,FBP-PT-17.png,0.4,1.2,48,0.25,,,,,,,,,,,,,,,,,,,,,,,,,,,,,,,,,,,,,,,,,,,,,
,,,,,SPR24_082,19,male,2024-04-23_15h59.41.624,jersey_experiment_5_v0,2023.2.2,Win32,86.20689655,,,,,,,,,,,,,,,,143.1856,144.2325,144.2325,150.2092,return,0.2734,,78.64583333,0,21,21,45,1,FBP-PT-17.png,0.35,1.2,46,0.25,,,,,,,,,,,,,,,,,,,,,,,,,,,,,,,,,,,,,,,,,,,,,
,,,,,SPR24_082,19,male,2024-04-23_15h59.41.624,jersey_experiment_5_v0,2023.2.2,Win32,86.20689655,,,,,,,,,,,,,,,,150.2094,151.5032,151.5034,154.1035,return,1.4732,,88.41145833,0,22,22,33,1,FBP-RB-17.png,0.43,1.2,34,0.5,,,,,,,,,,,,,,,,,,,,,,,,,,,,,,,,,,,,,,,,,,,,,
,,,,,SPR24_082,19,male,2024-04-23_15h59.41.624,jersey_experiment_5_v0,2023.2.2,Win32,86.20689655,,,,,,,,,,,,,,,,154.1037,155.3976,155.3976,157.3622,return,0.4369,,80.078125,0,23,23,8,1,FBP-OG-81.png,0.43,1.2,9,0.5,,,,,,,,,,,,,,,,,,,,,,,,,,,,,,,,,,,,,,,,,,,,,
,,,,,SPR24_082,19,male,2024-04-23_15h59.41.624,jersey_experiment_5_v0,2023.2.2,Win32,86.20689655,,,,,,,,,,,,,,,,157.3624,158.4095,158.4096,161.8802,return,0.3394,,82.94270833,0,24,24,54,1,FBP-PT-18.png,0.45,1.2,55,0.25,,,,,,,,,,,,,,,,,,,,,,,,,,,,,,,,,,,,,,,,,,,,,
,,,,,SPR24_082,19,male,2024-04-23_15h59.41.624,jersey_experiment_5_v0,2023.2.2,Win32,86.20689655,,,,,,,,,,,,,,,,161.8803,163.1743,163.1743,165.4921,return,0.4944,,98.17708333,0,25,25,44,1,FBP-RB-19.png,0.45,1.2,45,0.5,,,,,,,,,,,,,,,,,,,,,,,,,,,,,,,,,,,,,,,,,,,,,
,,,,,SPR24_082,19,male,2024-04-23_15h59.41.624,jersey_experiment_5_v0,2023.2.2,Win32,86.20689655,,,,,,,,,,,,,,,,165.4924,166.7863,166.7863,169.351,return,0.3196,,59.765625,0,26,26,37,1,FBP-RB-18.png,0.4,1.2,38,0.5,,,,,,,,,,,,,,,,,,,,,,,,,,,,,,,,,,,,,,,,,,,,,
,,,,,SPR24_082,19,male,2024-04-23_15h59.41.624,jersey_experiment_5_v0,2023.2.2,Win32,86.20689655,,,,,,,,,,,,,,,,169.3512,170.6452,170.6452,172.045,return,0.3145,,67.83854167,0,27,27,43,1,FBP-RB-19.png,0.43,1.2,44,0.5,,,,,,,,,,,,,,,,,,,,,,,,,,,,,,,,,,,,,,,,,,,,,
,,,,,SPR24_082,19,male,2024-04-23_15h59.41.624,jersey_experiment_5_v0,2023.2.2,Win32,86.20689655,,,,,,,,,,,,,,,,172.0453,173.0924,173.0924,175.904,return,0.2881,,22.65625,0,28,28,51,1,FBP-PT-18.png,0.37,1.2,52,0.25,,,,,,,,,,,,,,,,,,,,,,,,,,,,,,,,,,,,,,,,,,,,,
,,,,,SPR24_082,19,male,2024-04-23_15h59.41.624,jersey_experiment_5_v0,2023.2.2,Win32,86.20689655,,,,,,,,,,,,,,,,175.9042,176.9513,176.9513,179.6336,return,0.6983,,74.34895833,0,29,29,58,1,FBP-PT-19.png,0.43,1.2,59,0.25,,,,,,,,,,,,,,,,,,,,,,,,,,,,,,,,,,,,,,,,,,,,,
,,,,,SPR24_082,19,male,2024-04-23_15h59.41.624,jersey_experiment_5_v0,2023.2.2,Win32,86.20689655,,,,,,,,,,,,,,,,179.6338,180.6808,180.6808,182.6574,return,0.3675,,79.81770833,0,30,30,28,1,FBP-YG-19.png,0.43,1.2,29,0.25,,,,,,,,,,,,,,,,,,,,,,,,,,,,,,,,,,,,,,,,,,,,,
,,,,,SPR24_082,19,male,2024-04-23_15h59.41.624,jersey_experiment_5_v0,2023.2.2,Win32,86.20689655,,,,,,,,,,,,,,,,182.6575,183.9514,183.9514,185.7987,return,0.2732,,24.86979167,0,31,31,11,1,FBP-OG-91.png,0.37,1.2,12,0.5,,,,,,,,,,,,,,,,,,,,,,,,,,,,,,,,,,,,,,,,,,,,,
,,,,,SPR24_082,19,male,2024-04-23_15h59.41.624,jersey_experiment_5_v0,2023.2.2,Win32,86.20689655,,,,,,,,,,,,,,,,185.7989,187.0928,187.0928,189.0225,return,0.2404,,4.6875,0,32,32,36,1,FBP-RB-18.png,0.37,1.2,37,0.5,,,,,,,,,,,,,,,,,,,,,,,,,,,,,,,,,,,,,,,,,,,,,
,,,,,SPR24_082,19,male,2024-04-23_15h59.41.624,jersey_experiment_5_v0,2023.2.2,Win32,86.20689655,,,,,,,,,,,,,,,,189.0227,190.0693,190.0693,192.6225,return,0.5469,,0.130208333,0,33,33,55,1,FBP-PT-19.png,0.35,1.2,56,0.25,,,,,,,,,,,,,,,,,,,,,,,,,,,,,,,,,,,,,,,,,,,,,
,,,,,SPR24_082,19,male,2024-04-23_15h59.41.624,jersey_experiment_5_v0,2023.2.2,Win32,86.20689655,,,,,,,,,,,,,,,,192.6227,193.6695,193.6696,199.5168,return,0.3032,,50.52083333,0,34,34,17,1,FBP-YG-17.png,0.4,1.2,18,0.25,,,,,,,,,,,,,,,,,,,,,,,,,,,,,,,,,,,,,,,,,,,,,
,,,,,SPR24_082,19,male,2024-04-23_15h59.41.624,jersey_experiment_5_v0,2023.2.2,Win32,86.20689655,,,,,,,,,,,,,,,,199.5169,200.5639,200.5639,203.0464,return,0.636,,74.86979167,0,35,35,29,1,FBP-YG-19.png,0.45,1.2,30,0.25,,,,,,,,,,,,,,,,,,,,,,,,,,,,,,,,,,,,,,,,,,,,,
,,,,,SPR24_082,19,male,2024-04-23_15h59.41.624,jersey_experiment_5_v0,2023.2.2,Win32,86.20689655,,,,,,,,,,,,,,,,203.0465,204.0933,204.0934,206.8816,return,0.4963,,50.26041667,0,36,36,48,1,FBP-PT-17.png,0.43,1.2,49,0.25,,,,,,,,,,,,,,,,,,,,,,,,,,,,,,,,,,,,,,,,,,,,,
,,,,,SPR24_082,19,male,2024-04-23_15h59.41.624,jersey_experiment_5_v0,2023.2.2,Win32,86.20689655,,,,,,,,,,,,,,,,206.8818,207.9288,207.9288,209.8112,return,0.4029,,50.26041667,0,37,37,52,1,FBP-PT-18.png,0.4,1.2,53,0.25,,,,,,,,,,,,,,,,,,,,,,,,,,,,,,,,,,,,,,,,,,,,,
,,,,,SPR24_082,19,male,2024-04-23_15h59.41.624,jersey_experiment_5_v0,2023.2.2,Win32,86.20689655,,,,,,,,,,,,,,,,209.8114,210.8584,210.8584,213.3525,return,0.2259,,78.515625,0,38,38,23,1,FBP-YG-18.png,0.43,1.2,24,0.25,,,,,,,,,,,,,,,,,,,,,,,,,,,,,,,,,,,,,,,,,,,,,
,,,,,SPR24_082,19,male,2024-04-23_15h59.41.624,jersey_experiment_5_v0,2023.2.2,Win32,86.20689655,,,,,,,,,,,,,,,,213.3528,214.3997,214.3997,217.7997,return,0.2501,,21.35416667,0,39,39,16,1,FBP-YG-17.png,0.37,1.2,17,0.25,,,,,,,,,,,,,,,,,,,,,,,,,,,,,,,,,,,,,,,,,,,,,
,,,,,SPR24_082,19,male,2024-04-23_15h59.41.624,jersey_experiment_5_v0,2023.2.2,Win32,86.20689655,,,,,,,,,,,,,,,,217.7999,218.8469,218.8469,221.2353,return,0.2596,,82.55208333,0,40,40,24,1,FBP-YG-18.png,0.45,1.2,25,0.25,,,,,,,,,,,,,,,,,,,,,,,,,,,,,,,,,,,,,,,,,,,,,
,,,,,SPR24_082,19,male,2024-04-23_15h59.41.624,jersey_experiment_5_v0,2023.2.2,Win32,86.20689655,,,,,,,,,,,,,,,,221.2355,222.5293,222.5293,224.1764,return,0.3321,,10.28645833,0,41,41,35,1,FBP-RB-18.png,0.35,1.2,36,0.5,,,,,,,,,,,,,,,,,,,,,,,,,,,,,,,,,,,,,,,,,,,,,
,,,,,SPR24_082,19,male,2024-04-23_15h59.41.624,jersey_experiment_5_v0,2023.2.2,Win32,86.20689655,,,,,,,,,,,,,,,,224.1766,225.4707,225.4707,227.3178,return,0.2225,,58.59375,0,42,42,3,1,FBP-OG-71.png,0.43,1.2,4,0.5,,,,,,,,,,,,,,,,,,,,,,,,,,,,,,,,,,,,,,,,,,,,,
,,,,,SPR24_082,19,male,2024-04-23_15h59.41.624,jersey_experiment_5_v0,2023.2.2,Win32,86.20689655,,,,,,,,,,,,,,,,227.3181,228.6119,228.6119,230.0472,return,0.3688,,50.13020833,0,43,43,7,1,FBP-OG-81.png,0.4,1.2,8,0.5,,,,,,,,,,,,,,,,,,,,,,,,,,,,,,,,,,,,,,,,,,,,,
,,,,,SPR24_082,19,male,2024-04-23_15h59.41.624,jersey_experiment_5_v0,2023.2.2,Win32,86.20689655,,,,,,,,,,,,,,,,230.0474,231.0944,231.0944,233.412,return,0.1993,,31.25,0,44,44,21,1,FBP-YG-18.png,0.37,1.2,22,0.25,,,,,,,,,,,,,,,,,,,,,,,,,,,,,,,,,,,,,,,,,,,,,
,,,,,SPR24_082,19,male,2024-04-23_15h59.41.624,jersey_experiment_5_v0,2023.2.2,Win32,86.20689655,,,,,,,,,,,,,,,,233.4122,234.7062,234.7062,238.8476,return,0.4295,,65.36458333,0,45,45,32,1,FBP-RB-17.png,0.4,1.2,33,0.5,,,,,,,,,,,,,,,,,,,,,,,,,,,,,,,,,,,,,,,,,,,,,
,,,,,SPR24_082,19,male,2024-04-23_15h59.41.624,jersey_experiment_5_v0,2023.2.2,Win32,86.20689655,,,,,,,,,,,,,,,,238.8478,240.1416,240.1417,244.5418,return,0.7709,,29.03645833,0,46,46,41,1,FBP-RB-19.png,0.37,1.2,42,0.5,,,,,,,,,,,,,,,,,,,,,,,,,,,,,,,,,,,,,,,,,,,,,
,,,,,SPR24_082,19,male,2024-04-23_15h59.41.624,jersey_experiment_5_v0,2023.2.2,Win32,86.20689655,,,,,,,,,,,,,,,,244.542,245.8359,245.8359,247.4596,return,0.2238,,74.86979167,0,47,47,42,1,FBP-RB-19.png,0.4,1.2,43,0.5,,,,,,,,,,,,,,,,,,,,,,,,,,,,,,,,,,,,,,,,,,,,,
,,,,,SPR24_082,19,male,2024-04-23_15h59.41.624,jersey_experiment_5_v0,2023.2.2,Win32,86.20689655,,,,,,,,,,,,,,,,247.4598,248.7537,248.7537,253.3656,return,1.6575,,21.61458333,0,48,48,30,1,FBP-RB-17.png,0.35,1.2,31,0.5,,,,,,,,,,,,,,,,,,,,,,,,,,,,,,,,,,,,,,,,,,,,,
,,,,,SPR24_082,19,male,2024-04-23_15h59.41.624,jersey_experiment_5_v0,2023.2.2,Win32,86.20689655,,,,,,,,,,,,,,,,253.3659,254.6598,254.6598,256.4953,return,0.2518,,21.61458333,0,49,49,6,1,FBP-OG-81.png,0.37,1.2,7,0.5,,,,,,,,,,,,,,,,,,,,,,,,,,,,,,,,,,,,,,,,,,,,,
,,,,,SPR24_082,19,male,2024-04-23_15h59.41.624,jersey_experiment_5_v0,2023.2.2,Win32,86.20689655,,,,,,,,,,,,,,,,256.4956,257.7894,257.7895,261.166,return,0.947,,79.6875,0,50,50,38,1,FBP-RB-18.png,0.43,1.2,39,0.5,,,,,,,,,,,,,,,,,,,,,,,,,,,,,,,,,,,,,,,,,,,,,
,,,,,SPR24_082,19,male,2024-04-23_15h59.41.624,jersey_experiment_5_v0,2023.2.2,Win32,86.20689655,,,,,,,,,,,,,,,,261.1663,262.213,262.2131,268.0369,return,4.156,,60.41666667,0,51,51,53,1,FBP-PT-18.png,0.43,1.2,54,0.25,,,,,,,,,,,,,,,,,,,,,,,,,,,,,,,,,,,,,,,,,,,,,
,,,,,SPR24_082,19,male,2024-04-23_15h59.41.624,jersey_experiment_5_v0,2023.2.2,Win32,86.20689655,,,,,,,,,,,,,,,,268.0372,269.3311,269.3311,275.7665,return,0.1981,,22.13541667,0,52,52,1,1,FBP-OG-71.png,0.37,1.2,2,0.5,,,,,,,,,,,,,,,,,,,,,,,,,,,,,,,,,,,,,,,,,,,,,
,,,,,SPR24_082,19,male,2024-04-23_15h59.41.624,jersey_experiment_5_v0,2023.2.2,Win32,86.20689655,,,,,,,,,,,,,,,,275.7667,277.0606,277.0606,281.5903,return,0.1651,,33.85416667,0,53,53,13,1,FBP-OG-91.png,0.43,1.2,14,0.5,,,,,,,,,,,,,,,,,,,,,,,,,,,,,,,,,,,,,,,,,,,,,
,,,,,SPR24_082,19,male,2024-04-23_15h59.41.624,jersey_experiment_5_v0,2023.2.2,Win32,86.20689655,,,,,,,,,,,,,,,,281.5905,282.6373,282.6373,284.6726,return,0.2386,,75.52083333,0,54,54,19,1,FBP-YG-17.png,0.45,1.2,20,0.25,,,,,,,,,,,,,,,,,,,,,,,,,,,,,,,,,,,,,,,,,,,,,
,,,,,SPR24_082,19,male,2024-04-23_15h59.41.624,jersey_experiment_5_v0,2023.2.2,Win32,86.20689655,,,,,,,,,,,,,,,,284.6728,285.9669,285.9669,287.6022,return,0.2252,,79.16666667,0,55,55,39,1,FBP-RB-18.png,0.45,1.2,40,0.5,,,,,,,,,,,,,,,,,,,,,,,,,,,,,,,,,,,,,,,,,,,,,
,,,,,SPR24_082,19,male,2024-04-23_15h59.41.624,jersey_experiment_5_v0,2023.2.2,Win32,86.20689655,,,,,,,,,,,,,,,,287.6024,288.8963,288.8964,294.0966,return,1.0026,,29.81770833,0,56,56,2,1,FBP-OG-71.png,0.4,1.2,3,0.5,,,,,,,,,,,,,,,,,,,,,,,,,,,,,,,,,,,,,,,,,,,,,
,,,,,SPR24_082,19,male,2024-04-23_15h59.41.624,jersey_experiment_5_v0,2023.2.2,Win32,86.20689655,,,,,,,,,,,,,,,,294.0967,295.1437,295.1437,297.6495,return,0.1686,,17.96875,0,57,57,22,1,FBP-YG-18.png,0.4,1.2,23,0.25,,,,,,,,,,,,,,,,,,,,,,,,,,,,,,,,,,,,,,,,,,,,,
,,,,,SPR24_082,19,male,2024-04-23_15h59.41.624,jersey_experiment_5_v0,2023.2.2,Win32,86.20689655,,,,,,,,,,,,,,,,297.6497,298.6967,298.6968,300.3203,return,0.182,,14.19270833,0,58,58,46,1,FBP-PT-17.png,0.37,1.2,47,0.25,,,,,,,,,,,,,,,,,,,,,,,,,,,,,,,,,,,,,,,,,,,,,
,,,,,SPR24_082,19,male,2024-04-23_15h59.41.624,jersey_experiment_5_v0,2023.2.2,Win32,86.20689655,,,,,,,,,,,,,,,,300.3206,301.3673,301.3674,303.5911,return,0.1648,,74.609375,0,59,59,49,1,FBP-PT-17.png,0.45,1.2,50,0.25,,,,,,,,,,,,,,,,,,,,,,,,,,,,,,,,,,,,,,,,,,,,,
,,,,,SPR24_082,19,male,2024-04-23_15h59.41.624,jersey_experiment_5_v0,2023.2.2,Win32,86.20689655,,,,,,,,,,,,,,,,303.5931,304.638,304.638,306.0382,return,0.2355,,84.89583333,,,,,,FBP-PT-81.png,0.45,1.2,55,0.25,0,0,0,54,1,,,,,,,,,,,,,,,,,,,,,,,,,,,,,,,,,,,,,,,,
,,,,,SPR24_082,19,male,2024-04-23_15h59.41.624,jersey_experiment_5_v0,2023.2.2,Win32,86.20689655,,,,,,,,,,,,,,,,306.0385,307.0853,307.0853,308.8618,return,0.1948,,5.338541667,,,,,,FBP-YG-91.png,0.35,1.2,26,0.25,0,1,1,25,1,,,,,,,,,,,,,,,,,,,,,,,,,,,,,,,,,,,,,,,,
,,,,,SPR24_082,19,male,2024-04-23_15h59.41.624,jersey_experiment_5_v0,2023.2.2,Win32,86.20689655,,,,,,,,,,,,,,,,308.8622,310.156,310.1561,311.3913,return,0.1239,,50.26041667,,,,,,FBP-OG-18.png,0.4,1.2,8,0.5,0,2,2,7,1,,,,,,,,,,,,,,,,,,,,,,,,,,,,,,,,,,,,,,,,
,,,,,SPR24_082,19,male,2024-04-23_15h59.41.624,jersey_experiment_5_v0,2023.2.2,Win32,86.20689655,,,,,,,,,,,,,,,,311.3914,312.6856,312.6856,313.8384,return,0.1954,,50.13020833,,,,,,FBP-RB-81.png,0.37,1.2,37,0.5,0,3,3,36,1,,,,,,,,,,,,,,,,,,,,,,,,,,,,,,,,,,,,,,,,
,,,,,SPR24_082,19,male,2024-04-23_15h59.41.624,jersey_experiment_5_v0,2023.2.2,Win32,86.20689655,,,,,,,,,,,,,,,,313.8386,314.8855,314.8855,317.474,return,0.1422,,78.64583333,,,,,,FBP-PT-71.png,0.45,1.2,50,0.25,0,4,4,49,1,,,,,,,,,,,,,,,,,,,,,,,,,,,,,,,,,,,,,,,,
,,,,,SPR24_082,19,male,2024-04-23_15h59.41.624,jersey_experiment_5_v0,2023.2.2,Win32,86.20689655,,,,,,,,,,,,,,,,317.4742,318.5209,318.521,320.3563,return,0.2132,,79.296875,,,,,,FBP-YG-81.png,0.43,1.2,24,0.25,0,5,5,23,1,,,,,,,,,,,,,,,,,,,,,,,,,,,,,,,,,,,,,,,,
,,,,,SPR24_082,19,male,2024-04-23_15h59.41.624,jersey_experiment_5_v0,2023.2.2,Win32,86.20689655,,,,,,,,,,,,,,,,320.3565,321.6505,321.6506,324.3328,return,0.2438,,20.57291667,,,,,,FBP-RB-91.png,0.35,1.2,41,0.5,0,6,6,40,1,,,,,,,,,,,,,,,,,,,,,,,,,,,,,,,,,,,,,,,,
,,,,,SPR24_082,19,male,2024-04-23_15h59.41.624,jersey_experiment_5_v0,2023.2.2,Win32,86.20689655,,,,,,,,,,,,,,,,324.3329,325.627,325.6271,333.0862,return,0.1487,,28.90625,,,,,,FBP-RB-81.png,0.43,1.2,39,0.5,0,7,7,38,1,,,,,,,,,,,,,,,,,,,,,,,,,,,,,,,,,,,,,,,,
,,,,,SPR24_082,19,male,2024-04-23_15h59.41.624,jersey_experiment_5_v0,2023.2.2,Win32,86.20689655,,,,,,,,,,,,,,,,333.0864,334.3803,334.3803,336.0392,return,0.259,,93.48958333,,,,,,FBP-RB-81.png,0.45,1.2,40,0.5,0,8,8,39,1,,,,,,,,,,,,,,,,,,,,,,,,,,,,,,,,,,,,,,,,
,,,,,SPR24_082,19,male,2024-04-23_15h59.41.624,jersey_experiment_5_v0,2023.2.2,Win32,86.20689655,,,,,,,,,,,,,,,,336.0395,337.3334,337.3335,339.6041,return,0.7546,,21.09375,,,,,,FBP-RB-81.png,0.35,1.2,36,0.5,0,9,9,35,1,,,,,,,,,,,,,,,,,,,,,,,,,,,,,,,,,,,,,,,,
,,,,,SPR24_082,19,male,2024-04-23_15h59.41.624,jersey_experiment_5_v0,2023.2.2,Win32,86.20689655,,,,,,,,,,,,,,,,339.6043,340.8981,340.8981,342.2865,return,0.1347,,17.83854167,,,,,,FBP-OG-19.png,0.35,1.2,11,0.5,0,10,10,10,1,,,,,,,,,,,,,,,,,,,,,,,,,,,,,,,,,,,,,,,,
,,,,,SPR24_082,19,male,2024-04-23_15h59.41.624,jersey_experiment_5_v0,2023.2.2,Win32,86.20689655,,,,,,,,,,,,,,,,342.2867,343.3336,343.3336,345.4631,return,0.1039,,56.38020833,,,,,,FBP-YG-91.png,0.43,1.2,29,0.25,0,11,11,28,1,,,,,,,,,,,,,,,,,,,,,,,,,,,,,,,,,,,,,,,,
,,,,,SPR24_082,19,male,2024-04-23_15h59.41.624,jersey_experiment_5_v0,2023.2.2,Win32,86.20689655,,,,,,,,,,,,,,,,345.4633,346.7572,346.7573,348.0513,return,0.1199,,49.86979167,,,,,,FBP-OG-19.png,0.4,1.2,13,0.5,0,12,12,12,1,,,,,,,,,,,,,,,,,,,,,,,,,,,,,,,,,,,,,,,,
,,,,,SPR24_082,19,male,2024-04-23_15h59.41.624,jersey_experiment_5_v0,2023.2.2,Win32,86.20689655,,,,,,,,,,,,,,,,348.0516,349.0984,349.0985,352.3574,return,0.3865,,24.609375,,,,,,FBP-YG-81.png,0.35,1.2,21,0.25,0,13,13,20,1,,,,,,,,,,,,,,,,,,,,,,,,,,,,,,,,,,,,,,,,
,,,,,SPR24_082,19,male,2024-04-23_15h59.41.624,jersey_experiment_5_v0,2023.2.2,Win32,86.20689655,,,,,,,,,,,,,,,,352.3576,353.6515,353.6516,354.6869,return,0.2888,,24.609375,,,,,,FBP-RB-71.png,0.37,1.2,32,0.5,0,14,14,31,1,,,,,,,,,,,,,,,,,,,,,,,,,,,,,,,,,,,,,,,,
,,,,,SPR24_082,19,male,2024-04-23_15h59.41.624,jersey_experiment_5_v0,2023.2.2,Win32,86.20689655,,,,,,,,,,,,,,,,354.6871,355.9811,355.9811,356.6282,return,0.1555,,24.609375,,,,,,FBP-RB-91.png,0.37,1.2,42,0.5,0,15,15,41,1,,,,,,,,,,,,,,,,,,,,,,,,,,,,,,,,,,,,,,,,
,,,,,SPR24_082,19,male,2024-04-23_15h59.41.624,jersey_experiment_5_v0,2023.2.2,Win32,86.20689655,,,,,,,,,,,,,,,,356.6285,357.6752,357.6752,359.9106,return,0.1884,,69.140625,,,,,,FBP-YG-91.png,0.45,1.2,30,0.25,0,16,16,29,1,,,,,,,,,,,,,,,,,,,,,,,,,,,,,,,,,,,,,,,,
,,,,,SPR24_082,19,male,2024-04-23_15h59.41.624,jersey_experiment_5_v0,2023.2.2,Win32,86.20689655,,,,,,,,,,,,,,,,359.9108,361.2047,361.2047,362.7695,return,0.1102,,77.99479167,,,,,,FBP-OG-19.png,0.45,1.2,15,0.5,0,17,17,14,1,,,,,,,,,,,,,,,,,,,,,,,,,,,,,,,,,,,,,,,,
,,,,,SPR24_082,19,male,2024-04-23_15h59.41.624,jersey_experiment_5_v0,2023.2.2,Win32,86.20689655,,,,,,,,,,,,,,,,362.7698,363.8166,363.8166,364.6872,return,0.1238,,81.640625,,,,,,FBP-YG-71.png,0.45,1.2,20,0.25,0,18,18,19,1,,,,,,,,,,,,,,,,,,,,,,,,,,,,,,,,,,,,,,,,
,,,,,SPR24_082,19,male,2024-04-23_15h59.41.624,jersey_experiment_5_v0,2023.2.2,Win32,86.20689655,,,,,,,,,,,,,,,,364.6874,365.9816,365.9816,369.3933,return,0.4748,,53.77604167,,,,,,FBP-RB-71.png,0.4,1.2,33,0.5,0,19,19,32,1,,,,,,,,,,,,,,,,,,,,,,,,,,,,,,,,,,,,,,,,
,,,,,SPR24_082,19,male,2024-04-23_15h59.41.624,jersey_experiment_5_v0,2023.2.2,Win32,86.20689655,,,,,,,,,,,,,,,,369.3935,370.4403,370.4404,373.3817,return,0.8006,,21.875,,,,,,FBP-PT-81.png,0.35,1.2,51,0.25,0,20,20,50,1,,,,,,,,,,,,,,,,,,,,,,,,,,,,,,,,,,,,,,,,
,,,,,SPR24_082,19,male,2024-04-23_15h59.41.624,jersey_experiment_5_v0,2023.2.2,Win32,86.20689655,,,,,,,,,,,,,,,,373.382,374.6759,374.6759,376.4054,return,0.2119,,88.671875,,,,,,FBP-RB-71.png,0.45,1.2,35,0.5,0,21,21,34,1,,,,,,,,,,,,,,,,,,,,,,,,,,,,,,,,,,,,,,,,
,,,,,SPR24_082,19,male,2024-04-23_15h59.41.624,jersey_experiment_5_v0,2023.2.2,Win32,86.20689655,,,,,,,,,,,,,,,,376.4055,377.4525,377.4526,378.8878,return,0.1174,,75.13020833,,,,,,FBP-YG-81.png,0.4,1.2,23,0.25,0,22,22,22,1,,,,,,,,,,,,,,,,,,,,,,,,,,,,,,,,,,,,,,,,
,,,,,SPR24_082,19,male,2024-04-23_15h59.41.624,jersey_experiment_5_v0,2023.2.2,Win32,86.20689655,,,,,,,,,,,,,,,,378.8881,380.182,380.182,381.3584,return,0.3716,,75.13020833,,,,,,FBP-OG-19.png,0.43,1.2,14,0.5,0,23,23,13,1,,,,,,,,,,,,,,,,,,,,,,,,,,,,,,,,,,,,,,,,
,,,,,SPR24_082,19,male,2024-04-23_15h59.41.624,jersey_experiment_5_v0,2023.2.2,Win32,86.20689655,,,,,,,,,,,,,,,,381.3587,382.4055,382.4055,383.4762,return,0.1647,,75,,,,,,FBP-PT-81.png,0.4,1.2,53,0.25,0,24,24,52,1,,,,,,,,,,,,,,,,,,,,,,,,,,,,,,,,,,,,,,,,
,,,,,SPR24_082,19,male,2024-04-23_15h59.41.624,jersey_experiment_5_v0,2023.2.2,Win32,86.20689655,,,,,,,,,,,,,,,,383.4765,384.5232,384.5233,385.9586,return,0.2933,,77.99479167,,,,,,FBP-YG-81.png,0.45,1.2,25,0.25,0,25,25,24,1,,,,,,,,,,,,,,,,,,,,,,,,,,,,,,,,,,,,,,,,
,,,,,SPR24_082,19,male,2024-04-23_15h59.41.624,jersey_experiment_5_v0,2023.2.2,Win32,86.20689655,,,,,,,,,,,,,,,,385.9587,387.2527,387.2527,390.9589,return,2.0051,,25,,,,,,FBP-OG-18.png,0.35,1.2,6,0.5,0,26,26,5,1,,,,,,,,,,,,,,,,,,,,,,,,,,,,,,,,,,,,,,,,
,,,,,SPR24_082,19,male,2024-04-23_15h59.41.624,jersey_experiment_5_v0,2023.2.2,Win32,86.20689655,,,,,,,,,,,,,,,,390.9591,392.0059,392.006,395.4531,return,0.1378,,72.39583333,,,,,,FBP-PT-71.png,0.43,1.2,49,0.25,0,27,27,48,1,,,,,,,,,,,,,,,,,,,,,,,,,,,,,,,,,,,,,,,,
,,,,,SPR24_082,19,male,2024-04-23_15h59.41.624,jersey_experiment_5_v0,2023.2.2,Win32,86.20689655,,,,,,,,,,,,,,,,395.4533,396.5002,396.5002,398.5002,return,0.2365,,72.52604167,,,,,,FBP-PT-91.png,0.4,1.2,58,0.25,0,28,28,57,1,,,,,,,,,,,,,,,,,,,,,,,,,,,,,,,,,,,,,,,,
,,,,,SPR24_082,19,male,2024-04-23_15h59.41.624,jersey_experiment_5_v0,2023.2.2,Win32,86.20689655,,,,,,,,,,,,,,,,398.5004,399.7944,399.7944,402.6415,return,0.263,,24.73958333,,,,,,FBP-RB-71.png,0.35,1.2,31,0.5,0,29,29,30,1,,,,,,,,,,,,,,,,,,,,,,,,,,,,,,,,,,,,,,,,
,,,,,SPR24_082,19,male,2024-04-23_15h59.41.624,jersey_experiment_5_v0,2023.2.2,Win32,86.20689655,,,,,,,,,,,,,,,,402.6417,403.9357,403.9358,411.2066,return,2.6921,,50.13020833,,,,,,FBP-OG-17.png,0.4,1.2,3,0.5,0,30,30,2,1,,,,,,,,,,,,,,,,,,,,,,,,,,,,,,,,,,,,,,,,
,,,,,SPR24_082,19,male,2024-04-23_15h59.41.624,jersey_experiment_5_v0,2023.2.2,Win32,86.20689655,,,,,,,,,,,,,,,,411.2125,412.2654,412.2654,421.4776,return,0.2357,,50.13020833,,,,,,FBP-YG-91.png,0.4,1.2,28,0.25,0,31,31,27,1,,,,,,,,,,,,,,,,,,,,,,,,,,,,,,,,,,,,,,,,
,,,,,SPR24_082,19,male,2024-04-23_15h59.41.624,jersey_experiment_5_v0,2023.2.2,Win32,86.20689655,,,,,,,,,,,,,,,,421.4778,422.5245,422.5246,424.501,return,0.1887,,23.30729167,,,,,,FBP-YG-71.png,0.35,1.2,16,0.25,0,32,32,15,1,,,,,,,,,,,,,,,,,,,,,,,,,,,,,,,,,,,,,,,,
,,,,,SPR24_082,19,male,2024-04-23_15h59.41.624,jersey_experiment_5_v0,2023.2.2,Win32,86.20689655,,,,,,,,,,,,,,,,424.5012,425.7953,425.7953,428.7366,return,0.8047,,75,,,,,,FBP-RB-91.png,0.43,1.2,44,0.5,0,33,33,43,1,,,,,,,,,,,,,,,,,,,,,,,,,,,,,,,,,,,,,,,,
,,,,,SPR24_082,19,male,2024-04-23_15h59.41.624,jersey_experiment_5_v0,2023.2.2,Win32,86.20689655,,,,,,,,,,,,,,,,428.7368,429.7837,429.7837,431.9368,return,0.1459,,24.73958333,,,,,,FBP-PT-91.png,0.35,1.2,56,0.25,0,34,34,55,1,,,,,,,,,,,,,,,,,,,,,,,,,,,,,,,,,,,,,,,,
,,,,,SPR24_082,19,male,2024-04-23_15h59.41.624,jersey_experiment_5_v0,2023.2.2,Win32,86.20689655,,,,,,,,,,,,,,,,431.9369,433.2309,433.2309,434.6897,return,0.2156,,75,,,,,,FBP-RB-91.png,0.4,1.2,43,0.5,0,35,35,42,1,,,,,,,,,,,,,,,,,,,,,,,,,,,,,,,,,,,,,,,,
,,,,,SPR24_082,19,male,2024-04-23_15h59.41.624,jersey_experiment_5_v0,2023.2.2,Win32,86.20689655,,,,,,,,,,,,,,,,434.6899,435.7369,435.737,436.6546,return,0.1931,,74.609375,,,,,,FBP-PT-71.png,0.4,1.2,48,0.25,0,36,36,47,1,,,,,,,,,,,,,,,,,,,,,,,,,,,,,,,,,,,,,,,,
,,,,,SPR24_082,19,male,2024-04-23_15h59.41.624,jersey_experiment_5_v0,2023.2.2,Win32,86.20689655,,,,,,,,,,,,,,,,436.6548,437.7016,437.7016,439.9841,return,0.1555,,70.57291667,,,,,,FBP-PT-91.png,0.37,1.2,57,0.25,0,37,37,56,1,,,,,,,,,,,,,,,,,,,,,,,,,,,,,,,,,,,,,,,,
,,,,,SPR24_082,19,male,2024-04-23_15h59.41.624,jersey_experiment_5_v0,2023.2.2,Win32,86.20689655,,,,,,,,,,,,,,,,439.9842,441.0312,441.0312,442.8075,return,0.1748,,79.296875,,,,,,FBP-YG-71.png,0.43,1.2,19,0.25,0,38,38,18,1,,,,,,,,,,,,,,,,,,,,,,,,,,,,,,,,,,,,,,,,
,,,,,SPR24_082,19,male,2024-04-23_15h59.41.624,jersey_experiment_5_v0,2023.2.2,Win32,86.20689655,,,,,,,,,,,,,,,,442.8077,444.1017,444.1018,445.7961,return,0.1422,,55.33854167,,,,,,FBP-OG-19.png,0.37,1.2,12,0.5,0,39,39,11,1,,,,,,,,,,,,,,,,,,,,,,,,,,,,,,,,,,,,,,,,
,,,,,SPR24_082,19,male,2024-04-23_15h59.41.624,jersey_experiment_5_v0,2023.2.2,Win32,86.20689655,,,,,,,,,,,,,,,,445.7962,447.0902,447.0902,448.9962,return,0.1291,,74.34895833,,,,,,FBP-OG-17.png,0.43,1.2,4,0.5,0,40,40,3,1,,,,,,,,,,,,,,,,,,,,,,,,,,,,,,,,,,,,,,,,
,,,,,SPR24_082,19,male,2024-04-23_15h59.41.624,jersey_experiment_5_v0,2023.2.2,Win32,86.20689655,,,,,,,,,,,,,,,,448.9964,450.2903,450.2903,451.6199,return,0.236,,86.328125,,,,,,FBP-RB-91.png,0.45,1.2,45,0.5,0,41,41,44,1,,,,,,,,,,,,,,,,,,,,,,,,,,,,,,,,,,,,,,,,
,,,,,SPR24_082,19,male,2024-04-23_15h59.41.624,jersey_experiment_5_v0,2023.2.2,Win32,86.20689655,,,,,,,,,,,,,,,,451.6201,452.6668,452.6668,454.6317,return,0.1415,,67.31770833,,,,,,FBP-PT-71.png,0.37,1.2,47,0.25,0,42,42,46,1,,,,,,,,,,,,,,,,,,,,,,,,,,,,,,,,,,,,,,,,
,,,,,SPR24_082,19,male,2024-04-23_15h59.41.624,jersey_experiment_5_v0,2023.2.2,Win32,86.20689655,,,,,,,,,,,,,,,,454.6318,455.9259,455.9259,457.4788,return,0.2022,,87.36979167,,,,,,FBP-OG-18.png,0.43,1.2,9,0.5,0,43,43,8,1,,,,,,,,,,,,,,,,,,,,,,,,,,,,,,,,,,,,,,,,
,,,,,SPR24_082,19,male,2024-04-23_15h59.41.624,jersey_experiment_5_v0,2023.2.2,Win32,86.20689655,,,,,,,,,,,,,,,,457.479,458.5259,458.5259,460.8789,return,0.6417,,75,,,,,,FBP-YG-71.png,0.37,1.2,17,0.25,0,44,44,16,1,,,,,,,,,,,,,,,,,,,,,,,,,,,,,,,,,,,,,,,,
,,,,,SPR24_082,19,male,2024-04-23_15h59.41.624,jersey_experiment_5_v0,2023.2.2,Win32,86.20689655,,,,,,,,,,,,,,,,460.8791,461.9261,461.9261,463.0555,return,0.1353,,72.265625,,,,,,FBP-YG-81.png,0.37,1.2,22,0.25,0,45,45,21,1,,,,,,,,,,,,,,,,,,,,,,,,,,,,,,,,,,,,,,,,
,,,,,SPR24_082,19,male,2024-04-23_15h59.41.624,jersey_experiment_5_v0,2023.2.2,Win32,86.20689655,,,,,,,,,,,,,,,,463.0557,464.3496,464.3497,465.6674,return,0.1649,,74.47916667,,,,,,FBP-RB-81.png,0.4,1.2,38,0.5,0,46,46,37,1,,,,,,,,,,,,,,,,,,,,,,,,,,,,,,,,,,,,,,,,
,,,,,SPR24_082,19,male,2024-04-23_15h59.41.624,jersey_experiment_5_v0,2023.2.2,Win32,86.20689655,,,,,,,,,,,,,,,,465.6676,466.9614,466.9614,467.9967,return,0.2897,,80.46875,,,,,,FBP-RB-71.png,0.43,1.2,34,0.5,0,47,47,33,1,,,,,,,,,,,,,,,,,,,,,,,,,,,,,,,,,,,,,,,,
,,,,,SPR24_082,19,male,2024-04-23_15h59.41.624,jersey_experiment_5_v0,2023.2.2,Win32,86.20689655,,,,,,,,,,,,,,,,467.997,469.044,469.044,470.5616,return,0.2271,,82.03125,,,,,,FBP-PT-91.png,0.43,1.2,59,0.25,0,48,48,58,1,,,,,,,,,,,,,,,,,,,,,,,,,,,,,,,,,,,,,,,,
,,,,,SPR24_082,19,male,2024-04-23_15h59.41.624,jersey_experiment_5_v0,2023.2.2,Win32,86.20689655,,,,,,,,,,,,,,,,470.5619,471.6087,471.6087,473.5499,return,0.0996,,67.1875,,,,,,FBP-YG-91.png,0.37,1.2,27,0.25,0,49,49,26,1,,,,,,,,,,,,,,,,,,,,,,,,,,,,,,,,,,,,,,,,
,,,,,SPR24_082,19,male,2024-04-23_15h59.41.624,jersey_experiment_5_v0,2023.2.2,Win32,86.20689655,,,,,,,,,,,,,,,,473.5501,474.8442,474.8442,479.5854,return,1.7687,,29.03645833,,,,,,FBP-OG-18.png,0.37,1.2,7,0.5,0,50,50,6,1,,,,,,,,,,,,,,,,,,,,,,,,,,,,,,,,,,,,,,,,
,,,,,SPR24_082,19,male,2024-04-23_15h59.41.624,jersey_experiment_5_v0,2023.2.2,Win32,86.20689655,,,,,,,,,,,,,,,,479.5856,480.6326,480.6326,481.7031,return,0.1274,,18.61979167,,,,,,FBP-PT-71.png,0.35,1.2,46,0.25,0,51,51,45,1,,,,,,,,,,,,,,,,,,,,,,,,,,,,,,,,,,,,,,,,
,,,,,SPR24_082,19,male,2024-04-23_15h59.41.624,jersey_experiment_5_v0,2023.2.2,Win32,86.20689655,,,,,,,,,,,,,,,,481.7034,482.9974,482.9974,483.9503,return,0.1464,,0.390625,,,,,,FBP-OG-17.png,0.35,1.2,1,0.5,0,52,52,0,1,,,,,,,,,,,,,,,,,,,,,,,,,,,,,,,,,,,,,,,,
,,,,,SPR24_082,19,male,2024-04-23_15h59.41.624,jersey_experiment_5_v0,2023.2.2,Win32,86.20689655,,,,,,,,,,,,,,,,483.9505,485.2445,485.2445,487.08,return,0.1885,,74.47916667,,,,,,FBP-OG-17.png,0.45,1.2,5,0.5,0,53,53,4,1,,,,,,,,,,,,,,,,,,,,,,,,,,,,,,,,,,,,,,,,
,,,,,SPR24_082,19,male,2024-04-23_15h59.41.624,jersey_experiment_5_v0,2023.2.2,Win32,86.20689655,,,,,,,,,,,,,,,,487.0802,488.127,488.127,489.4917,return,0.1762,,49.21875,,,,,,FBP-PT-81.png,0.37,1.2,52,0.25,0,54,54,51,1,,,,,,,,,,,,,,,,,,,,,,,,,,,,,,,,,,,,,,,,
,,,,,SPR24_082,19,male,2024-04-23_15h59.41.624,jersey_experiment_5_v0,2023.2.2,Win32,86.20689655,,,,,,,,,,,,,,,,489.4918,490.5389,490.5389,492.7744,return,0.1788,,80.46875,,,,,,FBP-PT-91.png,0.45,1.2,60,0.25,0,55,55,59,1,,,,,,,,,,,,,,,,,,,,,,,,,,,,,,,,,,,,,,,,
,,,,,SPR24_082,19,male,2024-04-23_15h59.41.624,jersey_experiment_5_v0,2023.2.2,Win32,86.20689655,,,,,,,,,,,,,,,,492.7746,494.0684,494.0684,496.1036,return,0.1653,,49.47916667,,,,,,FBP-OG-17.png,0.37,1.2,2,0.5,0,56,56,1,1,,,,,,,,,,,,,,,,,,,,,,,,,,,,,,,,,,,,,,,,
,,,,,SPR24_082,19,male,2024-04-23_15h59.41.624,jersey_experiment_5_v0,2023.2.2,Win32,86.20689655,,,,,,,,,,,,,,,,496.1038,497.1509,497.151,499.0097,return,0.1795,,75,,,,,,FBP-PT-81.png,0.43,1.2,54,0.25,0,57,57,53,1,,,,,,,,,,,,,,,,,,,,,,,,,,,,,,,,,,,,,,,,
,,,,,SPR24_082,19,male,2024-04-23_15h59.41.624,jersey_experiment_5_v0,2023.2.2,Win32,86.20689655,,,,,,,,,,,,,,,,499.0099,500.0567,500.0567,501.3979,return,0.2587,,71.875,,,,,,FBP-YG-71.png,0.4,1.2,18,0.25,0,58,58,17,1,,,,,,,,,,,,,,,,,,,,,,,,,,,,,,,,,,,,,,,,
,,,,,SPR24_082,19,male,2024-04-23_15h59.41.624,jersey_experiment_5_v0,2023.2.2,Win32,86.20689655,,,,,,,,,,,,,,,,501.3981,502.6922,502.6922,503.8216,return,0.1823,,85.02604167,,,,,,FBP-OG-18.png,0.45,1.2,10,0.5,0,59,59,9,1,,,,,,,,,,,,,,,,,,,,,,,,,,,,,,,,,,,,,,,,
,,,,,SPR24_082,19,male,2024-04-23_15h59.41.624,jersey_experiment_5_v0,2023.2.2,Win32,86.20689655,,,,,,,,,,,,,,,,,,,,,,,,,,,,,,,,,,,,,,,503.822,623.8144,,,,,,,,,,,,,,,,,,,,,,,,,,,,,,,,,,,,,,
,,,,,SPR24_082,19,male,2024-04-23_15h59.41.624,jersey_experiment_5_v0,2023.2.2,Win32,86.20689655,,,,,,,,,,,,,,,,,,,,,,,,,,,,,,,,,,,,,,,,,623.8144,629.591,return,5.7638,,,,,,,,,,,,,,,,,,,,,,,,,,,,,,,,,,
,,,,,SPR24_082,19,male,2024-04-23_15h59.41.624,jersey_experiment_5_v0,2023.2.2,Win32,86.20689655,,,,,,,,,,,,,,,,629.5971,630.6496,630.6496,633.6497,return,1.0503,,24.609375,,,,,,FBP-RB-17.png,0.37,1.2,32,0.25,,,,,,,,,,,,,0,0,0,31,1,,,,,,,,,,,,,,,,,,,,,,,,,,,,
,,,,,SPR24_082,19,male,2024-04-23_15h59.41.624,jersey_experiment_5_v0,2023.2.2,Win32,86.20689655,,,,,,,,,,,,,,,,633.6502,634.9439,634.9439,636.6852,return,0.0904,,55.33854167,,,,,,FBP-YG-19.png,0.37,1.2,27,0.5,,,,,,,,,,,,,0,1,1,26,1,,,,,,,,,,,,,,,,,,,,,,,,,,,,
,,,,,SPR24_082,19,male,2024-04-23_15h59.41.624,jersey_experiment_5_v0,2023.2.2,Win32,86.20689655,,,,,,,,,,,,,,,,636.6853,637.9794,637.9795,638.8969,return,0.1574,,76.30208333,,,,,,FBP-PT-17.png,0.43,1.2,49,0.5,,,,,,,,,,,,,0,2,2,48,1,,,,,,,,,,,,,,,,,,,,,,,,,,,,
,,,,,SPR24_082,19,male,2024-04-23_15h59.41.624,jersey_experiment_5_v0,2023.2.2,Win32,86.20689655,,,,,,,,,,,,,,,,638.8972,640.1912,640.1912,640.8618,return,0.1111,,82.8125,,,,,,FBP-YG-17.png,0.45,1.2,20,0.5,,,,,,,,,,,,,0,3,3,19,1,,,,,,,,,,,,,,,,,,,,,,,,,,,,
,,,,,SPR24_082,19,male,2024-04-23_15h59.41.624,jersey_experiment_5_v0,2023.2.2,Win32,86.20689655,,,,,,,,,,,,,,,,640.862,642.1558,642.1558,643.1911,return,0.518,,86.06770833,,,,,,FBP-YG-18.png,0.45,1.2,25,0.5,,,,,,,,,,,,,0,4,4,24,1,,,,,,,,,,,,,,,,,,,,,,,,,,,,
,,,,,SPR24_082,19,male,2024-04-23_15h59.41.624,jersey_experiment_5_v0,2023.2.2,Win32,86.20689655,,,,,,,,,,,,,,,,643.1914,644.4853,644.4854,645.6619,return,0.1111,,24.86979167,,,,,,FBP-PT-18.png,0.35,1.2,51,0.5,,,,,,,,,,,,,0,5,5,50,1,,,,,,,,,,,,,,,,,,,,,,,,,,,,
,,,,,SPR24_082,19,male,2024-04-23_15h59.41.624,jersey_experiment_5_v0,2023.2.2,Win32,86.20689655,,,,,,,,,,,,,,,,645.6621,646.9562,646.9562,648.4974,return,0.0724,,75,,,,,,FBP-PT-18.png,0.45,1.2,55,0.5,,,,,,,,,,,,,0,6,6,54,1,,,,,,,,,,,,,,,,,,,,,,,,,,,,
,,,,,SPR24_082,19,male,2024-04-23_15h59.41.624,jersey_experiment_5_v0,2023.2.2,Win32,86.20689655,,,,,,,,,,,,,,,,648.4975,649.5443,649.5443,651.1209,return,0.0747,,24.73958333,,,,,,FBP-RB-19.png,0.35,1.2,41,0.25,,,,,,,,,,,,,0,7,7,40,1,,,,,,,,,,,,,,,,,,,,,,,,,,,,
,,,,,SPR24_082,19,male,2024-04-23_15h59.41.624,jersey_experiment_5_v0,2023.2.2,Win32,86.20689655,,,,,,,,,,,,,,,,651.1211,652.415,652.4151,653.2387,return,0.0708,,11.328125,,,,,,FBP-PT-17.png,0.35,1.2,46,0.5,,,,,,,,,,,,,0,8,8,45,1,,,,,,,,,,,,,,,,,,,,,,,,,,,,
,,,,,SPR24_082,19,male,2024-04-23_15h59.41.624,jersey_experiment_5_v0,2023.2.2,Win32,86.20689655,,,,,,,,,,,,,,,,653.239,654.2859,654.2859,655.921,return,0.0746,,74.73958333,,,,,,FBP-OG-91.png,0.43,1.2,14,0.25,,,,,,,,,,,,,0,9,9,13,1,,,,,,,,,,,,,,,,,,,,,,,,,,,,
,,,,,SPR24_082,19,male,2024-04-23_15h59.41.624,jersey_experiment_5_v0,2023.2.2,Win32,86.20689655,,,,,,,,,,,,,,,,655.9212,657.2153,657.2153,658.6625,return,0.1176,,88.671875,,,,,,FBP-YG-19.png,0.45,1.2,30,0.5,,,,,,,,,,,,,0,10,10,29,1,,,,,,,,,,,,,,,,,,,,,,,,,,,,
,,,,,SPR24_082,19,male,2024-04-23_15h59.41.624,jersey_experiment_5_v0,2023.2.2,Win32,86.20689655,,,,,,,,,,,,,,,,658.6628,659.9566,659.9566,661.9684,return,0.0751,,58.46354167,,,,,,FBP-PT-18.png,0.37,1.2,52,0.5,,,,,,,,,,,,,0,11,11,51,1,,,,,,,,,,,,,,,,,,,,,,,,,,,,
,,,,,SPR24_082,19,male,2024-04-23_15h59.41.624,jersey_experiment_5_v0,2023.2.2,Win32,86.20689655,,,,,,,,,,,,,,,,661.9686,663.2623,663.2624,665.9568,return,0.1084,,24.86979167,,,,,,FBP-YG-18.png,0.37,1.2,22,0.5,,,,,,,,,,,,,0,12,12,21,1,,,,,,,,,,,,,,,,,,,,,,,,,,,,
,,,,,SPR24_082,19,male,2024-04-23_15h59.41.624,jersey_experiment_5_v0,2023.2.2,Win32,86.20689655,,,,,,,,,,,,,,,,665.957,667.251,667.251,669.1686,return,0.0513,,40.88541667,,,,,,FBP-PT-17.png,0.4,1.2,48,0.5,,,,,,,,,,,,,0,13,13,47,1,,,,,,,,,,,,,,,,,,,,,,,,,,,,
,,,,,SPR24_082,19,male,2024-04-23_15h59.41.624,jersey_experiment_5_v0,2023.2.2,Win32,86.20689655,,,,,,,,,,,,,,,,669.1688,670.2158,670.2158,671.5805,return,0.0544,,23.4375,,,,,,FBP-OG-81.png,0.35,1.2,6,0.25,,,,,,,,,,,,,0,14,14,5,1,,,,,,,,,,,,,,,,,,,,,,,,,,,,
,,,,,SPR24_082,19,male,2024-04-23_15h59.41.624,jersey_experiment_5_v0,2023.2.2,Win32,86.20689655,,,,,,,,,,,,,,,,671.5806,672.6275,672.6275,674.0629,return,0.0531,,25.26041667,,,,,,FBP-OG-71.png,0.37,1.2,2,0.25,,,,,,,,,,,,,0,15,15,1,1,,,,,,,,,,,,,,,,,,,,,,,,,,,,
,,,,,SPR24_082,19,male,2024-04-23_15h59.41.624,jersey_experiment_5_v0,2023.2.2,Win32,86.20689655,,,,,,,,,,,,,,,,674.0631,675.357,675.357,676.31,return,0.1078,,74.86979167,,,,,,FBP-YG-18.png,0.43,1.2,24,0.5,,,,,,,,,,,,,0,16,16,23,1,,,,,,,,,,,,,,,,,,,,,,,,,,,,
,,,,,SPR24_082,19,male,2024-04-23_15h59.41.624,jersey_experiment_5_v0,2023.2.2,Win32,86.20689655,,,,,,,,,,,,,,,,676.3102,677.6042,677.6043,678.0984,return,0.085,,74.34895833,,,,,,FBP-PT-18.png,0.43,1.2,54,0.5,,,,,,,,,,,,,0,17,17,53,1,,,,,,,,,,,,,,,,,,,,,,,,,,,,
,,,,,SPR24_082,19,male,2024-04-23_15h59.41.624,jersey_experiment_5_v0,2023.2.2,Win32,86.20689655,,,,,,,,,,,,,,,,678.0986,679.1454,679.1455,680.9456,return,0.0858,,24.47916667,,,,,,FBP-RB-18.png,0.35,1.2,36,0.25,,,,,,,,,,,,,0,18,18,35,1,,,,,,,,,,,,,,,,,,,,,,,,,,,,
,,,,,SPR24_082,19,male,2024-04-23_15h59.41.624,jersey_experiment_5_v0,2023.2.2,Win32,86.20689655,,,,,,,,,,,,,,,,680.9458,681.9926,681.9926,684.4632,return,0.0622,,74.21875,,,,,,FBP-RB-18.png,0.4,1.2,38,0.25,,,,,,,,,,,,,0,19,19,37,1,,,,,,,,,,,,,,,,,,,,,,,,,,,,
,,,,,SPR24_082,19,male,2024-04-23_15h59.41.624,jersey_experiment_5_v0,2023.2.2,Win32,86.20689655,,,,,,,,,,,,,,,,684.4634,685.7574,685.7574,687.534,return,0.9228,,79.55729167,,,,,,FBP-YG-17.png,0.43,1.2,19,0.5,,,,,,,,,,,,,0,20,20,18,1,,,,,,,,,,,,,,,,,,,,,,,,,,,,
,,,,,SPR24_082,19,male,2024-04-23_15h59.41.624,jersey_experiment_5_v0,2023.2.2,Win32,86.20689655,,,,,,,,,,,,,,,,687.5342,688.5811,688.5811,691.0046,return,0.2061,,98.17708333,,,,,,FBP-OG-81.png,0.45,1.2,10,0.25,,,,,,,,,,,,,0,21,21,9,1,,,,,,,,,,,,,,,,,,,,,,,,,,,,
,,,,,SPR24_082,19,male,2024-04-23_15h59.41.624,jersey_experiment_5_v0,2023.2.2,Win32,86.20689655,,,,,,,,,,,,,,,,691.0048,692.0517,692.0518,693.5578,return,0.0608,,75,,,,,,FBP-OG-81.png,0.4,1.2,8,0.25,,,,,,,,,,,,,0,22,22,7,1,,,,,,,,,,,,,,,,,,,,,,,,,,,,
,,,,,SPR24_082,19,male,2024-04-23_15h59.41.624,jersey_experiment_5_v0,2023.2.2,Win32,86.20689655,,,,,,,,,,,,,,,,693.5579,694.6047,694.6048,696.546,return,0.0944,,43.75,,,,,,FBP-OG-91.png,0.37,1.2,12,0.25,,,,,,,,,,,,,0,23,23,11,1,,,,,,,,,,,,,,,,,,,,,,,,,,,,
,,,,,SPR24_082,19,male,2024-04-23_15h59.41.624,jersey_experiment_5_v0,2023.2.2,Win32,86.20689655,,,,,,,,,,,,,,,,696.5462,697.5931,697.5931,700.205,return,0.0885,,74.08854167,,,,,,FBP-RB-19.png,0.43,1.2,44,0.25,,,,,,,,,,,,,0,24,24,43,1,,,,,,,,,,,,,,,,,,,,,,,,,,,,
,,,,,SPR24_082,19,male,2024-04-23_15h59.41.624,jersey_experiment_5_v0,2023.2.2,Win32,86.20689655,,,,,,,,,,,,,,,,700.2052,701.4991,701.4992,702.7697,return,0.13,,0.130208333,,,,,,FBP-PT-19.png,0.35,1.2,56,0.5,,,,,,,,,,,,,0,25,25,55,1,,,,,,,,,,,,,,,,,,,,,,,,,,,,
,,,,,SPR24_082,19,male,2024-04-23_15h59.41.624,jersey_experiment_5_v0,2023.2.2,Win32,86.20689655,,,,,,,,,,,,,,,,702.77,704.064,704.064,705.2169,return,0.0845,,42.31770833,,,,,,FBP-YG-18.png,0.4,1.2,23,0.5,,,,,,,,,,,,,0,26,26,22,1,,,,,,,,,,,,,,,,,,,,,,,,,,,,
,,,,,SPR24_082,19,male,2024-04-23_15h59.41.624,jersey_experiment_5_v0,2023.2.2,Win32,86.20689655,,,,,,,,,,,,,,,,705.2172,706.2641,706.2641,708.0524,return,0.0715,,25,,,,,,FBP-RB-17.png,0.35,1.2,31,0.25,,,,,,,,,,,,,0,27,27,30,1,,,,,,,,,,,,,,,,,,,,,,,,,,,,
,,,,,SPR24_082,19,male,2024-04-23_15h59.41.624,jersey_experiment_5_v0,2023.2.2,Win32,86.20689655,,,,,,,,,,,,,,,,708.0525,709.3465,709.3466,710.6759,return,0.0715,,25,,,,,,FBP-YG-17.png,0.35,1.2,16,0.5,,,,,,,,,,,,,0,28,28,15,1,,,,,,,,,,,,,,,,,,,,,,,,,,,,
,,,,,SPR24_082,19,male,2024-04-23_15h59.41.624,jersey_experiment_5_v0,2023.2.2,Win32,86.20689655,,,,,,,,,,,,,,,,710.6762,711.9701,711.9701,712.8526,return,0.0477,,49.34895833,,,,,,FBP-PT-17.png,0.37,1.2,47,0.5,,,,,,,,,,,,,0,29,29,46,1,,,,,,,,,,,,,,,,,,,,,,,,,,,,
,,,,,SPR24_082,19,male,2024-04-23_15h59.41.624,jersey_experiment_5_v0,2023.2.2,Win32,86.20689655,,,,,,,,,,,,,,,,712.8527,714.1467,714.1467,715.182,return,0.547,,54.94791667,,,,,,FBP-PT-19.png,0.4,1.2,58,0.5,,,,,,,,,,,,,0,30,30,57,1,,,,,,,,,,,,,,,,,,,,,,,,,,,,
,,,,,SPR24_082,19,male,2024-04-23_15h59.41.624,jersey_experiment_5_v0,2023.2.2,Win32,86.20689655,,,,,,,,,,,,,,,,715.1823,716.2291,716.2291,717.8882,return,0.0638,,79.94791667,,,,,,FBP-OG-71.png,0.45,1.2,5,0.25,,,,,,,,,,,,,0,31,31,4,1,,,,,,,,,,,,,,,,,,,,,,,,,,,,
,,,,,SPR24_082,19,male,2024-04-23_15h59.41.624,jersey_experiment_5_v0,2023.2.2,Win32,86.20689655,,,,,,,,,,,,,,,,717.8884,718.9351,718.9351,721.1233,return,0.2231,,32.68229167,,,,,,FBP-OG-71.png,0.35,1.2,1,0.25,,,,,,,,,,,,,0,32,32,0,1,,,,,,,,,,,,,,,,,,,,,,,,,,,,
,,,,,SPR24_082,19,male,2024-04-23_15h59.41.624,jersey_experiment_5_v0,2023.2.2,Win32,86.20689655,,,,,,,,,,,,,,,,721.1235,722.1705,722.1705,725.4764,return,0.1041,,49.609375,,,,,,FBP-RB-17.png,0.4,1.2,33,0.25,,,,,,,,,,,,,0,33,33,32,1,,,,,,,,,,,,,,,,,,,,,,,,,,,,
,,,,,SPR24_082,19,male,2024-04-23_15h59.41.624,jersey_experiment_5_v0,2023.2.2,Win32,86.20689655,,,,,,,,,,,,,,,,725.4767,726.7706,726.7706,729.3825,return,0.057,,30.078125,,,,,,FBP-YG-17.png,0.37,1.2,17,0.5,,,,,,,,,,,,,0,34,34,16,1,,,,,,,,,,,,,,,,,,,,,,,,,,,,
,,,,,SPR24_082,19,male,2024-04-23_15h59.41.624,jersey_experiment_5_v0,2023.2.2,Win32,86.20689655,,,,,,,,,,,,,,,,729.3827,730.4296,730.4297,732.0768,return,0.0903,,71.61458333,,,,,,FBP-OG-91.png,0.45,1.2,15,0.25,,,,,,,,,,,,,0,35,35,14,1,,,,,,,,,,,,,,,,,,,,,,,,,,,,
,,,,,SPR24_082,19,male,2024-04-23_15h59.41.624,jersey_experiment_5_v0,2023.2.2,Win32,86.20689655,,,,,,,,,,,,,,,,732.077,733.1238,733.1238,734.418,return,0.3794,,79.296875,,,,,,FBP-RB-17.png,0.43,1.2,34,0.25,,,,,,,,,,,,,0,36,36,33,1,,,,,,,,,,,,,,,,,,,,,,,,,,,,
,,,,,SPR24_082,19,male,2024-04-23_15h59.41.624,jersey_experiment_5_v0,2023.2.2,Win32,86.20689655,,,,,,,,,,,,,,,,734.4183,735.712,735.7121,737.3475,return,0.0382,,75.65104167,,,,,,FBP-PT-18.png,0.4,1.2,53,0.5,,,,,,,,,,,,,0,37,37,52,1,,,,,,,,,,,,,,,,,,,,,,,,,,,,
,,,,,SPR24_082,19,male,2024-04-23_15h59.41.624,jersey_experiment_5_v0,2023.2.2,Win32,86.20689655,,,,,,,,,,,,,,,,737.3478,738.3945,738.3945,739.277,return,0.0903,,76.171875,,,,,,FBP-OG-91.png,0.4,1.2,13,0.25,,,,,,,,,,,,,0,38,38,12,1,,,,,,,,,,,,,,,,,,,,,,,,,,,,
,,,,,SPR24_082,19,male,2024-04-23_15h59.41.624,jersey_experiment_5_v0,2023.2.2,Win32,86.20689655,,,,,,,,,,,,,,,,739.2772,740.3241,740.3241,741.4418,return,0.1087,,81.11979167,,,,,,FBP-OG-81.png,0.43,1.2,9,0.25,,,,,,,,,,,,,0,39,39,8,1,,,,,,,,,,,,,,,,,,,,,,,,,,,,
,,,,,SPR24_082,19,male,2024-04-23_15h59.41.624,jersey_experiment_5_v0,2023.2.2,Win32,86.20689655,,,,,,,,,,,,,,,,741.442,742.736,742.736,744.8538,return,0.0697,,28.125,,,,,,FBP-YG-19.png,0.35,1.2,26,0.5,,,,,,,,,,,,,0,40,40,25,1,,,,,,,,,,,,,,,,,,,,,,,,,,,,
,,,,,SPR24_082,19,male,2024-04-23_15h59.41.624,jersey_experiment_5_v0,2023.2.2,Win32,86.20689655,,,,,,,,,,,,,,,,744.854,745.9007,745.9007,748.2892,return,0.0254,,29.296875,,,,,,FBP-OG-81.png,0.37,1.2,7,0.25,,,,,,,,,,,,,0,41,41,6,1,,,,,,,,,,,,,,,,,,,,,,,,,,,,
,,,,,SPR24_082,19,male,2024-04-23_15h59.41.624,jersey_experiment_5_v0,2023.2.2,Win32,86.20689655,,,,,,,,,,,,,,,,748.2894,749.3362,749.3362,750.5245,return,0.0672,,95.703125,,,,,,FBP-RB-17.png,0.45,1.2,35,0.25,,,,,,,,,,,,,0,42,42,34,1,,,,,,,,,,,,,,,,,,,,,,,,,,,,
,,,,,SPR24_082,19,male,2024-04-23_15h59.41.624,jersey_experiment_5_v0,2023.2.2,Win32,86.20689655,,,,,,,,,,,,,,,,750.5248,751.8186,751.8186,753.254,return,0.3201,,97.78645833,,,,,,FBP-PT-19.png,0.45,1.2,60,0.5,,,,,,,,,,,,,0,43,43,59,1,,,,,,,,,,,,,,,,,,,,,,,,,,,,
,,,,,SPR24_082,19,male,2024-04-23_15h59.41.624,jersey_experiment_5_v0,2023.2.2,Win32,86.20689655,,,,,,,,,,,,,,,,753.2543,754.3009,754.3009,755.7246,return,0.0199,,25.13020833,,,,,,FBP-OG-91.png,0.35,1.2,11,0.25,,,,,,,,,,,,,0,44,44,10,1,,,,,,,,,,,,,,,,,,,,,,,,,,,,
,,,,,SPR24_082,19,male,2024-04-23_15h59.41.624,jersey_experiment_5_v0,2023.2.2,Win32,86.20689655,,,,,,,,,,,,,,,,755.7248,756.7717,756.7717,758.3366,return,0.0632,,74.86979167,,,,,,FBP-OG-71.png,0.43,1.2,4,0.25,,,,,,,,,,,,,0,45,45,3,1,,,,,,,,,,,,,,,,,,,,,,,,,,,,
,,,,,SPR24_082,19,male,2024-04-23_15h59.41.624,jersey_experiment_5_v0,2023.2.2,Win32,86.20689655,,,,,,,,,,,,,,,,758.3368,759.3835,759.3835,760.2307,return,0.0336,,74.73958333,,,,,,FBP-OG-71.png,0.4,1.2,3,0.25,,,,,,,,,,,,,0,46,46,2,1,,,,,,,,,,,,,,,,,,,,,,,,,,,,
,,,,,SPR24_082,19,male,2024-04-23_15h59.41.624,jersey_experiment_5_v0,2023.2.2,Win32,86.20689655,,,,,,,,,,,,,,,,760.2308,761.5248,761.5248,762.5719,return,0.0441,,24.73958333,,,,,,FBP-YG-18.png,0.35,1.2,21,0.5,,,,,,,,,,,,,0,47,47,20,1,,,,,,,,,,,,,,,,,,,,,,,,,,,,
,,,,,SPR24_082,19,male,2024-04-23_15h59.41.624,jersey_experiment_5_v0,2023.2.2,Win32,86.20689655,,,,,,,,,,,,,,,,762.572,763.619,763.619,765.3015,return,0.1424,,73.95833333,,,,,,FBP-RB-19.png,0.4,1.2,43,0.25,,,,,,,,,,,,,0,48,48,42,1,,,,,,,,,,,,,,,,,,,,,,,,,,,,
,,,,,SPR24_082,19,male,2024-04-23_15h59.41.624,jersey_experiment_5_v0,2023.2.2,Win32,86.20689655,,,,,,,,,,,,,,,,765.3016,766.5956,766.5957,767.8427,return,0.0854,,91.015625,,,,,,FBP-PT-17.png,0.45,1.2,50,0.5,,,,,,,,,,,,,0,49,49,49,1,,,,,,,,,,,,,,,,,,,,,,,,,,,,
,,,,,SPR24_082,19,male,2024-04-23_15h59.41.624,jersey_experiment_5_v0,2023.2.2,Win32,86.20689655,,,,,,,,,,,,,,,,767.8428,768.8898,768.8899,770.5134,return,0.7435,,95.05208333,,,,,,FBP-RB-19.png,0.45,1.2,45,0.25,,,,,,,,,,,,,0,50,50,44,1,,,,,,,,,,,,,,,,,,,,,,,,,,,,
,,,,,SPR24_082,19,male,2024-04-23_15h59.41.624,jersey_experiment_5_v0,2023.2.2,Win32,86.20689655,,,,,,,,,,,,,,,,770.5136,771.8075,771.8075,772.9019,return,0.0947,,97.00520833,,,,,,FBP-YG-17.png,0.4,1.2,18,0.5,,,,,,,,,,,,,0,51,51,17,1,,,,,,,,,,,,,,,,,,,,,,,,,,,,
,,,,,SPR24_082,19,male,2024-04-23_15h59.41.624,jersey_experiment_5_v0,2023.2.2,Win32,86.20689655,,,,,,,,,,,,,,,,772.902,774.1958,774.1959,775.8782,return,0.0234,,77.08333333,,,,,,FBP-PT-19.png,0.37,1.2,57,0.5,,,,,,,,,,,,,0,52,52,56,1,,,,,,,,,,,,,,,,,,,,,,,,,,,,
,,,,,SPR24_082,19,male,2024-04-23_15h59.41.624,jersey_experiment_5_v0,2023.2.2,Win32,86.20689655,,,,,,,,,,,,,,,,775.8784,777.1723,777.1723,778.196,return,0.5416,,85.67708333,,,,,,FBP-YG-19.png,0.43,1.2,29,0.5,,,,,,,,,,,,,0,53,53,28,1,,,,,,,,,,,,,,,,,,,,,,,,,,,,
,,,,,SPR24_082,19,male,2024-04-23_15h59.41.624,jersey_experiment_5_v0,2023.2.2,Win32,86.20689655,,,,,,,,,,,,,,,,778.1963,779.243,779.243,780.1136,return,0.0825,,88.93229167,,,,,,FBP-RB-18.png,0.45,1.2,40,0.25,,,,,,,,,,,,,0,54,54,39,1,,,,,,,,,,,,,,,,,,,,,,,,,,,,
,,,,,SPR24_082,19,male,2024-04-23_15h59.41.624,jersey_experiment_5_v0,2023.2.2,Win32,86.20689655,,,,,,,,,,,,,,,,780.1138,781.161,781.161,782.2549,return,0.0528,,77.47395833,,,,,,FBP-RB-19.png,0.37,1.2,42,0.25,,,,,,,,,,,,,0,55,55,41,1,,,,,,,,,,,,,,,,,,,,,,,,,,,,
,,,,,SPR24_082,19,male,2024-04-23_15h59.41.624,jersey_experiment_5_v0,2023.2.2,Win32,86.20689655,,,,,,,,,,,,,,,,782.2552,783.5491,783.5491,785.008,return,0.0986,,86.84895833,,,,,,FBP-YG-19.png,0.4,1.2,28,0.5,,,,,,,,,,,,,0,56,56,27,1,,,,,,,,,,,,,,,,,,,,,,,,,,,,
,,,,,SPR24_082,19,male,2024-04-23_15h59.41.624,jersey_experiment_5_v0,2023.2.2,Win32,86.20689655,,,,,,,,,,,,,,,,785.0081,786.0551,786.0551,787.4081,return,0.0517,,77.86458333,,,,,,FBP-RB-18.png,0.37,1.2,37,0.25,,,,,,,,,,,,,0,57,57,36,1,,,,,,,,,,,,,,,,,,,,,,,,,,,,
,,,,,SPR24_082,19,male,2024-04-23_15h59.41.624,jersey_experiment_5_v0,2023.2.2,Win32,86.20689655,,,,,,,,,,,,,,,,787.4083,788.7022,788.7022,789.6788,return,0.121,,97.00520833,,,,,,FBP-PT-19.png,0.43,1.2,59,0.5,,,,,,,,,,,,,0,58,58,58,1,,,,,,,,,,,,,,,,,,,,,,,,,,,,
,,,,,SPR24_082,19,male,2024-04-23_15h59.41.624,jersey_experiment_5_v0,2023.2.2,Win32,86.20689655,,,,,,,,,,,,,,,,789.679,790.7259,790.7259,791.6672,return,0.0724,,98.30729167,,,,,,FBP-RB-18.png,0.43,1.2,39,0.25,,,,,,,,,,,,,0,59,59,38,1,,,,,,,,,,,,,,,,,,,,,,,,,,,,
,,,,,SPR24_082,19,male,2024-04-23_15h59.41.624,jersey_experiment_5_v0,2023.2.2,Win32,86.20689655,,,,,,,,,,,,,,,,791.669,792.7141,792.7141,794.373,return,0.0941,,74.73958333,,,,,,FBP-RB-91.png,0.35,1.2,41,0.25,,,,,,,,,,,,,,,,,,0,0,0,40,1,,,,,,,,,,,,,,,,,,,,,,,
,,,,,SPR24_082,19,male,2024-04-23_15h59.41.624,jersey_experiment_5_v0,2023.2.2,Win32,86.20689655,,,,,,,,,,,,,,,,794.3733,795.4202,795.4202,796.1496,return,0.0939,,74.73958333,,,,,,FBP-RB-91.png,0.43,1.2,44,0.25,,,,,,,,,,,,,,,,,,0,1,1,43,1,,,,,,,,,,,,,,,,,,,,,,,
,,,,,SPR24_082,19,male,2024-04-23_15h59.41.624,jersey_experiment_5_v0,2023.2.2,Win32,86.20689655,,,,,,,,,,,,,,,,796.1499,797.1966,797.1966,798.8436,return,0.1028,,25.78125,,,,,,FBP-RB-71.png,0.35,1.2,31,0.25,,,,,,,,,,,,,,,,,,0,2,2,30,1,,,,,,,,,,,,,,,,,,,,,,,
,,,,,SPR24_082,19,male,2024-04-23_15h59.41.624,jersey_experiment_5_v0,2023.2.2,Win32,86.20689655,,,,,,,,,,,,,,,,798.8439,800.1379,800.1379,801.1851,return,0.0388,,27.734375,,,,,,FBP-PT-81.png,0.37,1.2,52,0.5,,,,,,,,,,,,,,,,,,0,3,3,51,1,,,,,,,,,,,,,,,,,,,,,,,
,,,,,SPR24_082,19,male,2024-04-23_15h59.41.624,jersey_experiment_5_v0,2023.2.2,Win32,86.20689655,,,,,,,,,,,,,,,,801.1853,802.4792,802.4793,804.1028,return,0.1183,,82.03125,,,,,,FBP-PT-71.png,0.45,1.2,50,0.5,,,,,,,,,,,,,,,,,,0,4,4,49,1,,,,,,,,,,,,,,,,,,,,,,,
,,,,,SPR24_082,19,male,2024-04-23_15h59.41.624,jersey_experiment_5_v0,2023.2.2,Win32,86.20689655,,,,,,,,,,,,,,,,804.1031,805.3969,805.3969,806.9264,return,0.0519,,74.609375,,,,,,FBP-YG-81.png,0.4,1.2,23,0.5,,,,,,,,,,,,,,,,,,0,5,5,22,1,,,,,,,,,,,,,,,,,,,,,,,
,,,,,SPR24_082,19,male,2024-04-23_15h59.41.624,jersey_experiment_5_v0,2023.2.2,Win32,86.20689655,,,,,,,,,,,,,,,,806.9268,808.2206,808.2206,809.2206,return,0.0336,,85.80729167,,,,,,FBP-YG-81.png,0.43,1.2,24,0.5,,,,,,,,,,,,,,,,,,0,6,6,23,1,,,,,,,,,,,,,,,,,,,,,,,
,,,,,SPR24_082,19,male,2024-04-23_15h59.41.624,jersey_experiment_5_v0,2023.2.2,Win32,86.20689655,,,,,,,,,,,,,,,,809.2208,810.5147,810.5147,811.6325,return,0.0629,,89.84375,,,,,,FBP-PT-91.png,0.43,1.2,59,0.5,,,,,,,,,,,,,,,,,,0,7,7,58,1,,,,,,,,,,,,,,,,,,,,,,,
,,,,,SPR24_082,19,male,2024-04-23_15h59.41.624,jersey_experiment_5_v0,2023.2.2,Win32,86.20689655,,,,,,,,,,,,,,,,811.6327,812.6796,812.6796,815.1854,return,0.0618,,24.08854167,,,,,,FBP-RB-71.png,0.37,1.2,32,0.25,,,,,,,,,,,,,,,,,,0,8,8,31,1,,,,,,,,,,,,,,,,,,,,,,,
,,,,,SPR24_082,19,male,2024-04-23_15h59.41.624,jersey_experiment_5_v0,2023.2.2,Win32,86.20689655,,,,,,,,,,,,,,,,815.1856,816.2326,816.2326,817.1739,return,0.0337,,24.86979167,,,,,,FBP-OG-18.png,0.37,1.2,7,0.25,,,,,,,,,,,,,,,,,,0,9,9,6,1,,,,,,,,,,,,,,,,,,,,,,,
,,,,,SPR24_082,19,male,2024-04-23_15h59.41.624,jersey_experiment_5_v0,2023.2.2,Win32,86.20689655,,,,,,,,,,,,,,,,817.174,818.4679,818.468,819.9857,return,0.4018,,78.64583333,,,,,,FBP-PT-71.png,0.43,1.2,49,0.5,,,,,,,,,,,,,,,,,,0,10,10,48,1,,,,,,,,,,,,,,,,,,,,,,,
,,,,,SPR24_082,19,male,2024-04-23_15h59.41.624,jersey_experiment_5_v0,2023.2.2,Win32,86.20689655,,,,,,,,,,,,,,,,819.986,821.2799,821.28,822.4328,return,0.0487,,25,,,,,,FBP-PT-91.png,0.35,1.2,56,0.5,,,,,,,,,,,,,,,,,,0,11,11,55,1,,,,,,,,,,,,,,,,,,,,,,,
,,,,,SPR24_082,19,male,2024-04-23_15h59.41.624,jersey_experiment_5_v0,2023.2.2,Win32,86.20689655,,,,,,,,,,,,,,,,822.433,823.727,823.7271,825.0917,return,0.0708,,75.390625,,,,,,FBP-YG-91.png,0.43,1.2,29,0.5,,,,,,,,,,,,,,,,,,0,12,12,28,1,,,,,,,,,,,,,,,,,,,,,,,
,,,,,SPR24_082,19,male,2024-04-23_15h59.41.624,jersey_experiment_5_v0,2023.2.2,Win32,86.20689655,,,,,,,,,,,,,,,,825.0919,826.1388,826.1389,827.6917,return,0.0658,,86.97916667,,,,,,FBP-RB-91.png,0.45,1.2,45,0.25,,,,,,,,,,,,,,,,,,0,13,13,44,1,,,,,,,,,,,,,,,,,,,,,,,
,,,,,SPR24_082,19,male,2024-04-23_15h59.41.624,jersey_experiment_5_v0,2023.2.2,Win32,86.20689655,,,,,,,,,,,,,,,,827.6918,828.739,828.739,829.9391,return,0.1178,,23.4375,,,,,,FBP-RB-91.png,0.37,1.2,42,0.25,,,,,,,,,,,,,,,,,,0,14,14,41,1,,,,,,,,,,,,,,,,,,,,,,,
,,,,,SPR24_082,19,male,2024-04-23_15h59.41.624,jersey_experiment_5_v0,2023.2.2,Win32,86.20689655,,,,,,,,,,,,,,,,829.9392,830.9861,830.9861,832.2096,return,0.0737,,31.25,,,,,,FBP-OG-18.png,0.4,1.2,8,0.25,,,,,,,,,,,,,,,,,,0,15,15,7,1,,,,,,,,,,,,,,,,,,,,,,,
,,,,,SPR24_082,19,male,2024-04-23_15h59.41.624,jersey_experiment_5_v0,2023.2.2,Win32,86.20689655,,,,,,,,,,,,,,,,832.2097,833.5038,833.5038,834.7744,return,0.1277,,24.73958333,,,,,,FBP-PT-71.png,0.37,1.2,47,0.5,,,,,,,,,,,,,,,,,,0,16,16,46,1,,,,,,,,,,,,,,,,,,,,,,,
,,,,,SPR24_082,19,male,2024-04-23_15h59.41.624,jersey_experiment_5_v0,2023.2.2,Win32,86.20689655,,,,,,,,,,,,,,,,834.7747,835.8214,835.8215,836.7039,return,0.1224,,23.4375,,,,,,FBP-RB-81.png,0.37,1.2,37,0.25,,,,,,,,,,,,,,,,,,0,17,17,36,1,,,,,,,,,,,,,,,,,,,,,,,
,,,,,SPR24_082,19,male,2024-04-23_15h59.41.624,jersey_experiment_5_v0,2023.2.2,Win32,86.20689655,,,,,,,,,,,,,,,,836.7041,837.7511,837.7511,838.9276,return,0.0973,,75.52083333,,,,,,FBP-RB-71.png,0.43,1.2,34,0.25,,,,,,,,,,,,,,,,,,0,18,18,33,1,,,,,,,,,,,,,,,,,,,,,,,
,,,,,SPR24_082,19,male,2024-04-23_15h59.41.624,jersey_experiment_5_v0,2023.2.2,Win32,86.20689655,,,,,,,,,,,,,,,,838.9279,840.2216,840.2216,841.2454,return,0.0405,,25,,,,,,FBP-YG-71.png,0.37,1.2,17,0.5,,,,,,,,,,,,,,,,,,0,19,19,16,1,,,,,,,,,,,,,,,,,,,,,,,
,,,,,SPR24_082,19,male,2024-04-23_15h59.41.624,jersey_experiment_5_v0,2023.2.2,Win32,86.20689655,,,,,,,,,,,,,,,,841.2456,842.2926,842.2926,843.9396,return,0.0842,,91.015625,,,,,,FBP-RB-81.png,0.43,1.2,39,0.25,,,,,,,,,,,,,,,,,,0,20,20,38,1,,,,,,,,,,,,,,,,,,,,,,,
,,,,,SPR24_082,19,male,2024-04-23_15h59.41.624,jersey_experiment_5_v0,2023.2.2,Win32,86.20689655,,,,,,,,,,,,,,,,843.9397,845.2335,845.2336,846.5512,return,0.0712,,98.69791667,,,,,,FBP-PT-91.png,0.45,1.2,60,0.5,,,,,,,,,,,,,,,,,,0,21,21,59,1,,,,,,,,,,,,,,,,,,,,,,,
,,,,,SPR24_082,19,male,2024-04-23_15h59.41.624,jersey_experiment_5_v0,2023.2.2,Win32,86.20689655,,,,,,,,,,,,,,,,846.5515,847.5984,847.5984,848.7869,return,0.0611,,74.609375,,,,,,FBP-RB-71.png,0.4,1.2,33,0.25,,,,,,,,,,,,,,,,,,0,22,22,32,1,,,,,,,,,,,,,,,,,,,,,,,
,,,,,SPR24_082,19,male,2024-04-23_15h59.41.624,jersey_experiment_5_v0,2023.2.2,Win32,86.20689655,,,,,,,,,,,,,,,,848.7871,849.8338,849.8338,850.6221,return,0.1361,,82.55208333,,,,,,FBP-OG-18.png,0.43,1.2,9,0.25,,,,,,,,,,,,,,,,,,0,23,23,8,1,,,,,,,,,,,,,,,,,,,,,,,
,,,,,SPR24_082,19,male,2024-04-23_15h59.41.624,jersey_experiment_5_v0,2023.2.2,Win32,86.20689655,,,,,,,,,,,,,,,,850.6222,851.9162,851.9162,852.7868,return,0.0837,,82.55208333,,,,,,FBP-PT-71.png,0.4,1.2,48,0.5,,,,,,,,,,,,,,,,,,0,24,24,47,1,,,,,,,,,,,,,,,,,,,,,,,
,,,,,SPR24_082,19,male,2024-04-23_15h59.41.624,jersey_experiment_5_v0,2023.2.2,Win32,86.20689655,,,,,,,,,,,,,,,,852.787,854.081,854.0811,855.8693,return,0.0664,,31.38020833,,,,,,FBP-PT-91.png,0.37,1.2,57,0.5,,,,,,,,,,,,,,,,,,0,25,25,56,1,,,,,,,,,,,,,,,,,,,,,,,
,,,,,SPR24_082,19,male,2024-04-23_15h59.41.624,jersey_experiment_5_v0,2023.2.2,Win32,86.20689655,,,,,,,,,,,,,,,,855.8694,857.1635,857.1635,859.6814,return,0.415,,96.61458333,,,,,,FBP-YG-81.png,0.45,1.2,25,0.5,,,,,,,,,,,,,,,,,,0,26,26,24,1,,,,,,,,,,,,,,,,,,,,,,,
,,,,,SPR24_082,19,male,2024-04-23_15h59.41.624,jersey_experiment_5_v0,2023.2.2,Win32,86.20689655,,,,,,,,,,,,,,,,859.6816,860.7282,860.7283,861.6696,return,0.0944,,99.47916667,,,,,,FBP-OG-18.png,0.45,1.2,10,0.25,,,,,,,,,,,,,,,,,,0,27,27,9,1,,,,,,,,,,,,,,,,,,,,,,,
,,,,,SPR24_082,19,male,2024-04-23_15h59.41.624,jersey_experiment_5_v0,2023.2.2,Win32,86.20689655,,,,,,,,,,,,,,,,861.6699,862.7167,862.7168,866.4226,return,1.9161,,49.73958333,,,,,,FBP-OG-17.png,0.37,1.2,2,0.25,,,,,,,,,,,,,,,,,,0,28,28,1,1,,,,,,,,,,,,,,,,,,,,,,,
,,,,,SPR24_082,19,male,2024-04-23_15h59.41.624,jersey_experiment_5_v0,2023.2.2,Win32,86.20689655,,,,,,,,,,,,,,,,866.4228,867.4698,867.4698,870.9875,return,0.6444,,69.27083333,,,,,,FBP-RB-81.png,0.4,1.2,38,0.25,,,,,,,,,,,,,,,,,,0,29,29,37,1,,,,,,,,,,,,,,,,,,,,,,,
,,,,,SPR24_082,19,male,2024-04-23_15h59.41.624,jersey_experiment_5_v0,2023.2.2,Win32,86.20689655,,,,,,,,,,,,,,,,870.9877,872.2817,872.2817,875.2466,return,0.0866,,26.5625,,,,,,FBP-PT-71.png,0.35,1.2,46,0.5,,,,,,,,,,,,,,,,,,0,30,30,45,1,,,,,,,,,,,,,,,,,,,,,,,
,,,,,SPR24_082,19,male,2024-04-23_15h59.41.624,jersey_experiment_5_v0,2023.2.2,Win32,86.20689655,,,,,,,,,,,,,,,,875.2468,876.5406,876.5406,885.0469,return,0.094,,5.338541667,,,,,,FBP-YG-71.png,0.43,1.2,19,0.5,,,,,,,,,,,,,,,,,,0,31,31,18,1,,,,,,,,,,,,,,,,,,,,,,,
,,,,,SPR24_082,19,male,2024-04-23_15h59.41.624,jersey_experiment_5_v0,2023.2.2,Win32,86.20689655,,,,,,,,,,,,,,,,885.0471,886.0939,886.0939,887.6705,return,0.1176,,67.578125,,,,,,FBP-OG-19.png,0.4,1.2,13,0.25,,,,,,,,,,,,,,,,,,0,32,32,12,1,,,,,,,,,,,,,,,,,,,,,,,
,,,,,SPR24_082,19,male,2024-04-23_15h59.41.624,jersey_experiment_5_v0,2023.2.2,Win32,86.20689655,,,,,,,,,,,,,,,,887.6706,888.9646,888.9646,892.0354,return,0.1178,,70.3125,,,,,,FBP-YG-71.png,0.4,1.2,18,0.5,,,,,,,,,,,,,,,,,,0,33,33,17,1,,,,,,,,,,,,,,,,,,,,,,,
,,,,,SPR24_082,19,male,2024-04-23_15h59.41.624,jersey_experiment_5_v0,2023.2.2,Win32,86.20689655,,,,,,,,,,,,,,,,892.0356,893.3295,893.3296,894.0354,return,0.0949,,79.03645833,,,,,,FBP-YG-91.png,0.4,1.2,28,0.5,,,,,,,,,,,,,,,,,,0,34,34,27,1,,,,,,,,,,,,,,,,,,,,,,,
,,,,,SPR24_082,19,male,2024-04-23_15h59.41.624,jersey_experiment_5_v0,2023.2.2,Win32,86.20689655,,,,,,,,,,,,,,,,894.0356,895.0824,895.0824,895.7766,return,0.0718,,87.890625,,,,,,FBP-OG-19.png,0.43,1.2,14,0.25,,,,,,,,,,,,,,,,,,0,35,35,13,1,,,,,,,,,,,,,,,,,,,,,,,
,,,,,SPR24_082,19,male,2024-04-23_15h59.41.624,jersey_experiment_5_v0,2023.2.2,Win32,86.20689655,,,,,,,,,,,,,,,,895.7768,896.8237,896.8237,899.5414,return,0.0846,,25.91145833,,,,,,FBP-RB-81.png,0.35,1.2,36,0.25,,,,,,,,,,,,,,,,,,0,36,36,35,1,,,,,,,,,,,,,,,,,,,,,,,
,,,,,SPR24_082,19,male,2024-04-23_15h59.41.624,jersey_experiment_5_v0,2023.2.2,Win32,86.20689655,,,,,,,,,,,,,,,,899.5417,900.8356,900.8356,902.271,return,0.0739,,45.83333333,,,,,,FBP-YG-71.png,0.35,1.2,16,0.5,,,,,,,,,,,,,,,,,,0,37,37,15,1,,,,,,,,,,,,,,,,,,,,,,,
,,,,,SPR24_082,19,male,2024-04-23_15h59.41.624,jersey_experiment_5_v0,2023.2.2,Win32,86.20689655,,,,,,,,,,,,,,,,902.2712,903.318,903.318,904.7181,return,0.098,,70.96354167,,,,,,FBP-OG-17.png,0.43,1.2,4,0.25,,,,,,,,,,,,,,,,,,0,38,38,3,1,,,,,,,,,,,,,,,,,,,,,,,
,,,,,SPR24_082,19,male,2024-04-23_15h59.41.624,jersey_experiment_5_v0,2023.2.2,Win32,86.20689655,,,,,,,,,,,,,,,,904.7183,906.0122,906.0122,907.1534,return,0.0268,,50,,,,,,FBP-PT-81.png,0.35,1.2,51,0.5,,,,,,,,,,,,,,,,,,0,39,39,50,1,,,,,,,,,,,,,,,,,,,,,,,
,,,,,SPR24_082,19,male,2024-04-23_15h59.41.624,jersey_experiment_5_v0,2023.2.2,Win32,86.20689655,,,,,,,,,,,,,,,,907.1536,908.4476,908.4476,908.9301,return,0.0473,,50,,,,,,FBP-YG-91.png,0.35,1.2,26,0.5,,,,,,,,,,,,,,,,,,0,40,40,25,1,,,,,,,,,,,,,,,,,,,,,,,
,,,,,SPR24_082,19,male,2024-04-23_15h59.41.624,jersey_experiment_5_v0,2023.2.2,Win32,86.20689655,,,,,,,,,,,,,,,,908.9304,910.2242,910.2242,912.5183,return,0.0336,,74.86979167,,,,,,FBP-YG-81.png,0.37,1.2,22,0.5,,,,,,,,,,,,,,,,,,0,41,41,21,1,,,,,,,,,,,,,,,,,,,,,,,
,,,,,SPR24_082,19,male,2024-04-23_15h59.41.624,jersey_experiment_5_v0,2023.2.2,Win32,86.20689655,,,,,,,,,,,,,,,,912.5185,913.8124,913.8124,914.6597,return,0.0805,,87.109375,,,,,,FBP-PT-81.png,0.43,1.2,54,0.5,,,,,,,,,,,,,,,,,,0,42,42,53,1,,,,,,,,,,,,,,,,,,,,,,,
,,,,,SPR24_082,19,male,2024-04-23_15h59.41.624,jersey_experiment_5_v0,2023.2.2,Win32,86.20689655,,,,,,,,,,,,,,,,914.6599,915.7069,915.7069,916.7539,return,0.154,,89.97395833,,,,,,FBP-RB-91.png,0.4,1.2,43,0.25,,,,,,,,,,,,,,,,,,0,43,43,42,1,,,,,,,,,,,,,,,,,,,,,,,
,,,,,SPR24_082,19,male,2024-04-23_15h59.41.624,jersey_experiment_5_v0,2023.2.2,Win32,86.20689655,,,,,,,,,,,,,,,,916.7541,917.8008,917.8009,920.0128,return,0.406,,33.07291667,,,,,,FBP-OG-17.png,0.35,1.2,1,0.25,,,,,,,,,,,,,,,,,,0,44,44,0,1,,,,,,,,,,,,,,,,,,,,,,,
,,,,,SPR24_082,19,male,2024-04-23_15h59.41.624,jersey_experiment_5_v0,2023.2.2,Win32,86.20689655,,,,,,,,,,,,,,,,920.013,921.0597,921.0598,922.4599,return,0.0675,,50.91145833,,,,,,FBP-OG-17.png,0.4,1.2,3,0.25,,,,,,,,,,,,,,,,,,0,45,45,2,1,,,,,,,,,,,,,,,,,,,,,,,
,,,,,SPR24_082,19,male,2024-04-23_15h59.41.624,jersey_experiment_5_v0,2023.2.2,Win32,86.20689655,,,,,,,,,,,,,,,,922.46,923.7542,923.7543,924.7423,return,0.0239,,87.890625,,,,,,FBP-YG-91.png,0.45,1.2,30,0.5,,,,,,,,,,,,,,,,,,0,46,46,29,1,,,,,,,,,,,,,,,,,,,,,,,
,,,,,SPR24_082,19,male,2024-04-23_15h59.41.624,jersey_experiment_5_v0,2023.2.2,Win32,86.20689655,,,,,,,,,,,,,,,,924.7426,925.7894,925.7894,926.86,return,0.0538,,99.47916667,,,,,,FBP-RB-71.png,0.45,1.2,35,0.25,,,,,,,,,,,,,,,,,,0,47,47,34,1,,,,,,,,,,,,,,,,,,,,,,,
,,,,,SPR24_082,19,male,2024-04-23_15h59.41.624,jersey_experiment_5_v0,2023.2.2,Win32,86.20689655,,,,,,,,,,,,,,,,926.8602,927.9071,927.9071,929.1543,return,0.049,,93.359375,,,,,,FBP-OG-17.png,0.45,1.2,5,0.25,,,,,,,,,,,,,,,,,,0,48,48,4,1,,,,,,,,,,,,,,,,,,,,,,,
,,,,,SPR24_082,19,male,2024-04-23_15h59.41.624,jersey_experiment_5_v0,2023.2.2,Win32,86.20689655,,,,,,,,,,,,,,,,929.1545,930.4485,930.4485,931.472,return,0.0498,,98.046875,,,,,,FBP-PT-81.png,0.45,1.2,55,0.5,,,,,,,,,,,,,,,,,,0,49,49,54,1,,,,,,,,,,,,,,,,,,,,,,,
,,,,,SPR24_082,19,male,2024-04-23_15h59.41.624,jersey_experiment_5_v0,2023.2.2,Win32,86.20689655,,,,,,,,,,,,,,,,931.4721,932.7661,932.7662,934.2133,return,0.1882,,62.890625,,,,,,FBP-PT-91.png,0.4,1.2,58,0.5,,,,,,,,,,,,,,,,,,0,50,50,57,1,,,,,,,,,,,,,,,,,,,,,,,
,,,,,SPR24_082,19,male,2024-04-23_15h59.41.624,jersey_experiment_5_v0,2023.2.2,Win32,86.20689655,,,,,,,,,,,,,,,,934.2135,935.2604,935.2604,936.4604,return,0.0669,,75.13020833,,,,,,FBP-OG-19.png,0.45,1.2,15,0.25,,,,,,,,,,,,,,,,,,0,51,51,14,1,,,,,,,,,,,,,,,,,,,,,,,
,,,,,SPR24_082,19,male,2024-04-23_15h59.41.624,jersey_experiment_5_v0,2023.2.2,Win32,86.20689655,,,,,,,,,,,,,,,,936.4607,937.7546,937.7546,938.5309,return,0.0374,,70.57291667,,,,,,FBP-PT-81.png,0.4,1.2,53,0.5,,,,,,,,,,,,,,,,,,0,52,52,52,1,,,,,,,,,,,,,,,,,,,,,,,
,,,,,SPR24_082,19,male,2024-04-23_15h59.41.624,jersey_experiment_5_v0,2023.2.2,Win32,86.20689655,,,,,,,,,,,,,,,,938.5312,939.8251,939.8251,940.5428,return,0.1798,,78.77604167,,,,,,FBP-YG-71.png,0.45,1.2,20,0.5,,,,,,,,,,,,,,,,,,0,53,53,19,1,,,,,,,,,,,,,,,,,,,,,,,
,,,,,SPR24_082,19,male,2024-04-23_15h59.41.624,jersey_experiment_5_v0,2023.2.2,Win32,86.20689655,,,,,,,,,,,,,,,,940.543,941.59,941.59,943.39,return,0.7593,,29.03645833,,,,,,FBP-OG-19.png,0.37,1.2,12,0.25,,,,,,,,,,,,,,,,,,0,54,54,11,1,,,,,,,,,,,,,,,,,,,,,,,
,,,,,SPR24_082,19,male,2024-04-23_15h59.41.624,jersey_experiment_5_v0,2023.2.2,Win32,86.20689655,,,,,,,,,,,,,,,,943.3902,944.6841,944.6841,945.4725,return,0.0489,,30.72916667,,,,,,FBP-YG-91.png,0.37,1.2,27,0.5,,,,,,,,,,,,,,,,,,0,55,55,26,1,,,,,,,,,,,,,,,,,,,,,,,
,,,,,SPR24_082,19,male,2024-04-23_15h59.41.624,jersey_experiment_5_v0,2023.2.2,Win32,86.20689655,,,,,,,,,,,,,,,,945.4727,946.5195,946.5195,948.2138,return,0.1412,,8.59375,,,,,,FBP-OG-18.png,0.35,1.2,6,0.25,,,,,,,,,,,,,,,,,,0,56,56,5,1,,,,,,,,,,,,,,,,,,,,,,,
,,,,,SPR24_082,19,male,2024-04-23_15h59.41.624,jersey_experiment_5_v0,2023.2.2,Win32,86.20689655,,,,,,,,,,,,,,,,948.214,949.2608,949.2608,950.1078,return,0.0436,,14.97395833,,,,,,FBP-OG-19.png,0.35,1.2,11,0.25,,,,,,,,,,,,,,,,,,0,57,57,10,1,,,,,,,,,,,,,,,,,,,,,,,
,,,,,SPR24_082,19,male,2024-04-23_15h59.41.624,jersey_experiment_5_v0,2023.2.2,Win32,86.20689655,,,,,,,,,,,,,,,,950.108,951.4021,951.4022,952.1668,return,0.1883,,17.1875,,,,,,FBP-YG-81.png,0.35,1.2,21,0.5,,,,,,,,,,,,,,,,,,0,58,58,20,1,,,,,,,,,,,,,,,,,,,,,,,
,,,,,SPR24_082,19,male,2024-04-23_15h59.41.624,jersey_experiment_5_v0,2023.2.2,Win32,86.20689655,,,,,,,,,,,,,,,,952.167,953.214,953.214,954.9434,return,0.5461,,74.47916667,,,,,,FBP-RB-81.png,0.45,1.2,40,0.25,,,,,,,,,,,,,,,,,,0,59,59,39,1,,,,,,,,,,,,,,,,,,,,,,,
,,,,,SPR24_082,19,male,2024-04-23_15h59.41.624,jersey_experiment_5_v0,2023.2.2,Win32,86.20689655,,,,,,,,,,,,,,,,,,,,,,,,,,,,,,,,,,,,,,,,,,,,,,,,,,,,,,,,954.9438,962.0968,return,7.143,,,,,,,,,,,,,,,,,,,
,,,,,SPR24_082,19,male,2024-04-23_15h59.41.624,jersey_experiment_5_v0,2023.2.2,Win32,86.20689655,,,,,,,,,,,,,,,,,,,,,,,,,,,,,,,,,,,,,,,,,,,,,,,,,,,,,,,,,,,,,962.0968,967.2381,1,3.4062,return,1.7172,,,,,,,,,,,,
,,,,,SPR24_082,19,male,2024-04-23_15h59.41.624,jersey_experiment_5_v0,2023.2.2,Win32,86.20689655,,,,,,,,,,,,,,,,,,,,,,,,,,,,,,,,,,,,,,,,,,,,,,,,,,,,,,,,,,,,,,,,,,,,967.2383,1032.516,The images consisted of permutations of cloth color and skin color. My guess would be that the experiments aims to examine the effect of these two factors on the perception of slimness or bulkiness.,right,59.5953,,,,,,
,,,,,SPR24_082,19,male,2024-04-23_15h59.41.624,jersey_experiment_5_v0,2023.2.2,Win32,86.20689655,,,,,,,,,,,,,,,,,,,,,,,,,,,,,,,,,,,,,,,,,,,,,,,,,,,,,,,,,,,,,,,,,,,,,,,,,,1032.516,1036.3815,return,3.8592,