requirements.started,requirements.stopped,key_resp_3.keys,key_resp_3.rt,key_resp_3.duration,Subject ID,Age,Gender,date,expName,psychopyVersion,OS,frameRate,instructions1.started,instructions1.stopped,key_resp.keys,key_resp.rt,key_resp.duration,example.started,example.stopped,enter_2.keys,enter_2.rt,enter_2.duration,instructions2.started,instructions2.stopped,enter_3.keys,enter_3.rt,enter_3.duration,image.started,image.stopped,slider_2.started,slider_2.stopped,next.keys,next.rt,next.duration,slider.response,trial_block_1.thisRepN,trial_block_1.thisTrialN,trial_block_1.thisN,trial_block_1.thisIndex,trial_block_1.ran,Path,Width,Height,Index,Duration,trial_block_2.thisRepN,trial_block_2.thisTrialN,trial_block_2.thisN,trial_block_2.thisIndex,trial_block_2.ran,rest_break.started,rest_break.stopped,end_break.started,end_break.stopped,key_resp_5.keys,key_resp_5.rt,key_resp_5.duration,trial_block_3.thisRepN,trial_block_3.thisTrialN,trial_block_3.thisN,trial_block_3.thisIndex,trial_block_3.ran,trial_block_4.thisRepN,trial_block_4.thisTrialN,trial_block_4.thisN,trial_block_4.thisIndex,trial_block_4.ran,questions_intro.started,questions_intro.stopped,enter_12.keys,enter_12.rt,enter_12.duration,question2.started,question2.stopped,question_doingbest.response,question_doingbest.rt,enter_15.keys,enter_15.rt,enter_15.duration,pattern.started,pattern.stopped,pattern_2.text,enter_17.keys,enter_17.rt,enter_17.duration,thankyou.started,thankyou.stopped,enter_14.keys,enter_14.rt,enter_14.duration
0.0001,8.9695,return,8.9621,,SPR24_056,19,F,2024-04-17_09h31.38.256,jersey_experiment_5_v0,2023.2.2,Win32,84.74576271,,,,,,,,,,,,,,,,,,,,,,,,,,,,,,,,,,,,,,,,,,,,,,,,,,,,,,,,,,,,,,,,,,,,,,,,,,,,,,
,,,,,SPR24_056,19,F,2024-04-17_09h31.38.256,jersey_experiment_5_v0,2023.2.2,Win32,84.74576271,8.9697,23.5936,return,14.5992,,,,,,,,,,,,,,,,,,,,,,,,,,,,,,,,,,,,,,,,,,,,,,,,,,,,,,,,,,,,,,,,,,,,,,,,,,
,,,,,SPR24_056,19,F,2024-04-17_09h31.38.256,jersey_experiment_5_v0,2023.2.2,Win32,84.74576271,,,,,,23.5937,26.8053,return,3.1742,,,,,,,,,,,,,,,,,,,,,,,,,,,,,,,,,,,,,,,,,,,,,,,,,,,,,,,,,,,,,,,,,,,,,
,,,,,SPR24_056,19,F,2024-04-17_09h31.38.256,jersey_experiment_5_v0,2023.2.2,Win32,84.74576271,,,,,,,,,,,26.8053,44.8177,return,18.0062,,,,,,,,,,,,,,,,,,,,,,,,,,,,,,,,,,,,,,,,,,,,,,,,,,,,,,,,,,,,,,,,
,,,,,SPR24_056,19,F,2024-04-17_09h31.38.256,jersey_experiment_5_v0,2023.2.2,Win32,84.74576271,,,,,,,,,,,,,,,,44.8253,46.1237,46.1238,53.0183,return,2.3441,,25,0,0,0,35,1,FBP-RB-18.png,0.35,1.2,36,0.5,,,,,,,,,,,,,,,,,,,,,,,,,,,,,,,,,,,,,,,,,,,,,
,,,,,SPR24_056,19,F,2024-04-17_09h31.38.256,jersey_experiment_5_v0,2023.2.2,Win32,84.74576271,,,,,,,,,,,,,,,,53.0229,54.3238,54.3238,58.4179,return,0.6896,,50,0,1,1,5,1,FBP-OG-81.png,0.35,1.2,6,0.5,,,,,,,,,,,,,,,,,,,,,,,,,,,,,,,,,,,,,,,,,,,,,
,,,,,SPR24_056,19,F,2024-04-17_09h31.38.256,jersey_experiment_5_v0,2023.2.2,Win32,84.74576271,,,,,,,,,,,,,,,,58.4181,59.7121,59.7122,66.4419,return,5.1537,,74.47916667,0,2,2,12,1,FBP-OG-91.png,0.4,1.2,13,0.5,,,,,,,,,,,,,,,,,,,,,,,,,,,,,,,,,,,,,,,,,,,,,
,,,,,SPR24_056,19,F,2024-04-17_09h31.38.256,jersey_experiment_5_v0,2023.2.2,Win32,84.74576271,,,,,,,,,,,,,,,,66.4464,67.4889,67.4889,69.4184,return,0.6118,,74.609375,0,3,3,53,1,FBP-PT-18.png,0.43,1.2,54,0.25,,,,,,,,,,,,,,,,,,,,,,,,,,,,,,,,,,,,,,,,,,,,,
,,,,,SPR24_056,19,F,2024-04-17_09h31.38.256,jersey_experiment_5_v0,2023.2.2,Win32,84.74576271,,,,,,,,,,,,,,,,69.4187,70.4655,70.4655,73.7363,return,2.0109,,99.08854167,0,4,4,29,1,FBP-YG-19.png,0.45,1.2,30,0.25,,,,,,,,,,,,,,,,,,,,,,,,,,,,,,,,,,,,,,,,,,,,,
,,,,,SPR24_056,19,F,2024-04-17_09h31.38.256,jersey_experiment_5_v0,2023.2.2,Win32,84.74576271,,,,,,,,,,,,,,,,73.7365,75.0303,75.0304,77.5129,return,1.0114,,37.5,0,5,5,10,1,FBP-OG-91.png,0.35,1.2,11,0.5,,,,,,,,,,,,,,,,,,,,,,,,,,,,,,,,,,,,,,,,,,,,,
,,,,,SPR24_056,19,F,2024-04-17_09h31.38.256,jersey_experiment_5_v0,2023.2.2,Win32,84.74576271,,,,,,,,,,,,,,,,77.513,78.807,78.807,81.4898,return,0.9374,,74.609375,0,6,6,3,1,FBP-OG-71.png,0.43,1.2,4,0.5,,,,,,,,,,,,,,,,,,,,,,,,,,,,,,,,,,,,,,,,,,,,,
,,,,,SPR24_056,19,F,2024-04-17_09h31.38.256,jersey_experiment_5_v0,2023.2.2,Win32,84.74576271,,,,,,,,,,,,,,,,81.49,82.7836,82.7836,85.1131,return,0.6122,,51.69270833,0,7,7,11,1,FBP-OG-91.png,0.37,1.2,12,0.5,,,,,,,,,,,,,,,,,,,,,,,,,,,,,,,,,,,,,,,,,,,,,
,,,,,SPR24_056,19,F,2024-04-17_09h31.38.256,jersey_experiment_5_v0,2023.2.2,Win32,84.74576271,,,,,,,,,,,,,,,,85.1133,86.4072,86.4072,89.1368,return,1.0661,,82.421875,0,8,8,43,1,FBP-RB-19.png,0.43,1.2,44,0.5,,,,,,,,,,,,,,,,,,,,,,,,,,,,,,,,,,,,,,,,,,,,,
,,,,,SPR24_056,19,F,2024-04-17_09h31.38.256,jersey_experiment_5_v0,2023.2.2,Win32,84.74576271,,,,,,,,,,,,,,,,89.1371,90.1839,90.184,92.4076,return,0.9888,,86.97916667,0,9,9,49,1,FBP-PT-17.png,0.45,1.2,50,0.25,,,,,,,,,,,,,,,,,,,,,,,,,,,,,,,,,,,,,,,,,,,,,
,,,,,SPR24_056,19,F,2024-04-17_09h31.38.256,jersey_experiment_5_v0,2023.2.2,Win32,84.74576271,,,,,,,,,,,,,,,,92.4077,93.4546,93.4546,95.5252,return,0.5688,,66.92708333,0,10,10,58,1,FBP-PT-19.png,0.43,1.2,59,0.25,,,,,,,,,,,,,,,,,,,,,,,,,,,,,,,,,,,,,,,,,,,,,
,,,,,SPR24_056,19,F,2024-04-17_09h31.38.256,jersey_experiment_5_v0,2023.2.2,Win32,84.74576271,,,,,,,,,,,,,,,,95.5253,96.8194,96.8194,99.7606,return,0.9502,,48.56770833,0,11,11,0,1,FBP-OG-71.png,0.35,1.2,1,0.5,,,,,,,,,,,,,,,,,,,,,,,,,,,,,,,,,,,,,,,,,,,,,
,,,,,SPR24_056,19,F,2024-04-17_09h31.38.256,jersey_experiment_5_v0,2023.2.2,Win32,84.74576271,,,,,,,,,,,,,,,,99.7608,101.0548,101.0548,103.5256,return,0.6962,,73.17708333,0,12,12,9,1,FBP-OG-81.png,0.45,1.2,10,0.5,,,,,,,,,,,,,,,,,,,,,,,,,,,,,,,,,,,,,,,,,,,,,
,,,,,SPR24_056,19,F,2024-04-17_09h31.38.256,jersey_experiment_5_v0,2023.2.2,Win32,84.74576271,,,,,,,,,,,,,,,,103.5258,104.8197,104.8197,106.5845,return,0.8107,,56.25,0,13,13,31,1,FBP-RB-17.png,0.37,1.2,32,0.5,,,,,,,,,,,,,,,,,,,,,,,,,,,,,,,,,,,,,,,,,,,,,
,,,,,SPR24_056,19,F,2024-04-17_09h31.38.256,jersey_experiment_5_v0,2023.2.2,Win32,84.74576271,,,,,,,,,,,,,,,,106.5847,107.8785,107.8786,110.3259,return,1.047,,77.21354167,0,14,14,38,1,FBP-RB-18.png,0.43,1.2,39,0.5,,,,,,,,,,,,,,,,,,,,,,,,,,,,,,,,,,,,,,,,,,,,,
,,,,,SPR24_056,19,F,2024-04-17_09h31.38.256,jersey_experiment_5_v0,2023.2.2,Win32,84.74576271,,,,,,,,,,,,,,,,110.3261,111.3728,111.3729,117.7967,return,4.676,,37.36979167,0,15,15,25,1,FBP-YG-19.png,0.35,1.2,26,0.25,,,,,,,,,,,,,,,,,,,,,,,,,,,,,,,,,,,,,,,,,,,,,
,,,,,SPR24_056,19,F,2024-04-17_09h31.38.256,jersey_experiment_5_v0,2023.2.2,Win32,84.74576271,,,,,,,,,,,,,,,,117.801,118.8436,118.8436,121.7849,return,0.786,,40.10416667,0,16,16,21,1,FBP-YG-18.png,0.37,1.2,22,0.25,,,,,,,,,,,,,,,,,,,,,,,,,,,,,,,,,,,,,,,,,,,,,
,,,,,SPR24_056,19,F,2024-04-17_09h31.38.256,jersey_experiment_5_v0,2023.2.2,Win32,84.74576271,,,,,,,,,,,,,,,,121.7851,123.0792,123.0792,124.738,return,0.6875,,54.6875,0,17,17,41,1,FBP-RB-19.png,0.37,1.2,42,0.5,,,,,,,,,,,,,,,,,,,,,,,,,,,,,,,,,,,,,,,,,,,,,
,,,,,SPR24_056,19,F,2024-04-17_09h31.38.256,jersey_experiment_5_v0,2023.2.2,Win32,84.74576271,,,,,,,,,,,,,,,,124.7382,125.7851,125.7851,128.5971,return,0.7926,,75.91145833,0,18,18,24,1,FBP-YG-18.png,0.45,1.2,25,0.25,,,,,,,,,,,,,,,,,,,,,,,,,,,,,,,,,,,,,,,,,,,,,
,,,,,SPR24_056,19,F,2024-04-17_09h31.38.256,jersey_experiment_5_v0,2023.2.2,Win32,84.74576271,,,,,,,,,,,,,,,,128.5973,129.644,129.644,132.9504,return,1.9531,,34.765625,0,19,19,45,1,FBP-PT-17.png,0.35,1.2,46,0.25,,,,,,,,,,,,,,,,,,,,,,,,,,,,,,,,,,,,,,,,,,,,,
,,,,,SPR24_056,19,F,2024-04-17_09h31.38.256,jersey_experiment_5_v0,2023.2.2,Win32,84.74576271,,,,,,,,,,,,,,,,132.9506,133.9973,133.9973,136.009,return,0.7533,,45.703125,0,20,20,46,1,FBP-PT-17.png,0.37,1.2,47,0.25,,,,,,,,,,,,,,,,,,,,,,,,,,,,,,,,,,,,,,,,,,,,,
,,,,,SPR24_056,19,F,2024-04-17_09h31.38.256,jersey_experiment_5_v0,2023.2.2,Win32,84.74576271,,,,,,,,,,,,,,,,136.0092,137.3035,137.3035,139.2094,return,0.9652,,83.203125,0,21,21,39,1,FBP-RB-18.png,0.45,1.2,40,0.5,,,,,,,,,,,,,,,,,,,,,,,,,,,,,,,,,,,,,,,,,,,,,
,,,,,SPR24_056,19,F,2024-04-17_09h31.38.256,jersey_experiment_5_v0,2023.2.2,Win32,84.74576271,,,,,,,,,,,,,,,,139.2097,140.5034,140.5034,142.0565,return,0.4473,,70.44270833,0,22,22,42,1,FBP-RB-19.png,0.4,1.2,43,0.5,,,,,,,,,,,,,,,,,,,,,,,,,,,,,,,,,,,,,,,,,,,,,
,,,,,SPR24_056,19,F,2024-04-17_09h31.38.256,jersey_experiment_5_v0,2023.2.2,Win32,84.74576271,,,,,,,,,,,,,,,,142.0567,143.1035,143.1035,144.7392,return,0.3949,,45.44270833,0,23,23,56,1,FBP-PT-19.png,0.37,1.2,57,0.25,,,,,,,,,,,,,,,,,,,,,,,,,,,,,,,,,,,,,,,,,,,,,
,,,,,SPR24_056,19,F,2024-04-17_09h31.38.256,jersey_experiment_5_v0,2023.2.2,Win32,84.74576271,,,,,,,,,,,,,,,,144.7395,146.0329,146.0329,147.7155,return,0.6416,,57.8125,0,24,24,7,1,FBP-OG-81.png,0.4,1.2,8,0.5,,,,,,,,,,,,,,,,,,,,,,,,,,,,,,,,,,,,,,,,,,,,,
,,,,,SPR24_056,19,F,2024-04-17_09h31.38.256,jersey_experiment_5_v0,2023.2.2,Win32,84.74576271,,,,,,,,,,,,,,,,147.7157,148.7625,148.7626,150.1862,return,0.2831,,85.41666667,0,25,25,19,1,FBP-YG-17.png,0.45,1.2,20,0.25,,,,,,,,,,,,,,,,,,,,,,,,,,,,,,,,,,,,,,,,,,,,,
,,,,,SPR24_056,19,F,2024-04-17_09h31.38.256,jersey_experiment_5_v0,2023.2.2,Win32,84.74576271,,,,,,,,,,,,,,,,150.1865,151.4802,151.4802,153.1274,return,0.567,,73.046875,0,26,26,37,1,FBP-RB-18.png,0.4,1.2,38,0.5,,,,,,,,,,,,,,,,,,,,,,,,,,,,,,,,,,,,,,,,,,,,,
,,,,,SPR24_056,19,F,2024-04-17_09h31.38.256,jersey_experiment_5_v0,2023.2.2,Win32,84.74576271,,,,,,,,,,,,,,,,153.1275,154.1745,154.1745,156.1627,return,0.699,,30.72916667,0,27,27,55,1,FBP-PT-19.png,0.35,1.2,56,0.25,,,,,,,,,,,,,,,,,,,,,,,,,,,,,,,,,,,,,,,,,,,,,
,,,,,SPR24_056,19,F,2024-04-17_09h31.38.256,jersey_experiment_5_v0,2023.2.2,Win32,84.74576271,,,,,,,,,,,,,,,,156.1629,157.4571,157.4571,159.4453,return,0.5806,,79.55729167,0,28,28,4,1,FBP-OG-71.png,0.45,1.2,5,0.5,,,,,,,,,,,,,,,,,,,,,,,,,,,,,,,,,,,,,,,,,,,,,
,,,,,SPR24_056,19,F,2024-04-17_09h31.38.256,jersey_experiment_5_v0,2023.2.2,Win32,84.74576271,,,,,,,,,,,,,,,,159.4455,160.4923,160.4923,162.5867,return,0.9418,,84.63541667,0,29,29,18,1,FBP-YG-17.png,0.43,1.2,19,0.25,,,,,,,,,,,,,,,,,,,,,,,,,,,,,,,,,,,,,,,,,,,,,
,,,,,SPR24_056,19,F,2024-04-17_09h31.38.256,jersey_experiment_5_v0,2023.2.2,Win32,84.74576271,,,,,,,,,,,,,,,,162.5869,163.8806,163.8807,165.8457,return,0.698,,79.81770833,0,30,30,14,1,FBP-OG-91.png,0.45,1.2,15,0.5,,,,,,,,,,,,,,,,,,,,,,,,,,,,,,,,,,,,,,,,,,,,,
,,,,,SPR24_056,19,F,2024-04-17_09h31.38.256,jersey_experiment_5_v0,2023.2.2,Win32,84.74576271,,,,,,,,,,,,,,,,165.8458,167.1397,167.1397,168.6459,return,0.4954,,30.078125,0,31,31,1,1,FBP-OG-71.png,0.37,1.2,2,0.5,,,,,,,,,,,,,,,,,,,,,,,,,,,,,,,,,,,,,,,,,,,,,
,,,,,SPR24_056,19,F,2024-04-17_09h31.38.256,jersey_experiment_5_v0,2023.2.2,Win32,84.74576271,,,,,,,,,,,,,,,,168.6461,169.6926,169.6927,172.0105,return,0.518,,73.4375,0,32,32,48,1,FBP-PT-17.png,0.43,1.2,49,0.25,,,,,,,,,,,,,,,,,,,,,,,,,,,,,,,,,,,,,,,,,,,,,
,,,,,SPR24_056,19,F,2024-04-17_09h31.38.256,jersey_experiment_5_v0,2023.2.2,Win32,84.74576271,,,,,,,,,,,,,,,,172.0108,173.0575,173.0575,174.6106,return,0.5104,,58.72395833,0,33,33,17,1,FBP-YG-17.png,0.4,1.2,18,0.25,,,,,,,,,,,,,,,,,,,,,,,,,,,,,,,,,,,,,,,,,,,,,
,,,,,SPR24_056,19,F,2024-04-17_09h31.38.256,jersey_experiment_5_v0,2023.2.2,Win32,84.74576271,,,,,,,,,,,,,,,,174.6107,175.9045,175.9045,177.2342,return,0.3726,,45.44270833,0,34,34,2,1,FBP-OG-71.png,0.4,1.2,3,0.5,,,,,,,,,,,,,,,,,,,,,,,,,,,,,,,,,,,,,,,,,,,,,
,,,,,SPR24_056,19,F,2024-04-17_09h31.38.256,jersey_experiment_5_v0,2023.2.2,Win32,84.74576271,,,,,,,,,,,,,,,,177.2344,178.2812,178.2813,180.4225,return,0.7793,,28.90625,0,35,35,20,1,FBP-YG-18.png,0.35,1.2,21,0.25,,,,,,,,,,,,,,,,,,,,,,,,,,,,,,,,,,,,,,,,,,,,,
,,,,,SPR24_056,19,F,2024-04-17_09h31.38.256,jersey_experiment_5_v0,2023.2.2,Win32,84.74576271,,,,,,,,,,,,,,,,180.4227,181.4696,181.4696,184.8108,return,0.6601,,48.046875,0,36,36,26,1,FBP-YG-19.png,0.37,1.2,27,0.25,,,,,,,,,,,,,,,,,,,,,,,,,,,,,,,,,,,,,,,,,,,,,
,,,,,SPR24_056,19,F,2024-04-17_09h31.38.256,jersey_experiment_5_v0,2023.2.2,Win32,84.74576271,,,,,,,,,,,,,,,,184.811,185.8579,185.858,188.1055,return,0.5324,,24.08854167,0,37,37,15,1,FBP-YG-17.png,0.35,1.2,16,0.25,,,,,,,,,,,,,,,,,,,,,,,,,,,,,,,,,,,,,,,,,,,,,
,,,,,SPR24_056,19,F,2024-04-17_09h31.38.256,jersey_experiment_5_v0,2023.2.2,Win32,84.74576271,,,,,,,,,,,,,,,,188.1057,189.1521,189.1521,190.8347,return,0.5833,,22.91666667,0,38,38,51,1,FBP-PT-18.png,0.37,1.2,52,0.25,,,,,,,,,,,,,,,,,,,,,,,,,,,,,,,,,,,,,,,,,,,,,
,,,,,SPR24_056,19,F,2024-04-17_09h31.38.256,jersey_experiment_5_v0,2023.2.2,Win32,84.74576271,,,,,,,,,,,,,,,,190.835,192.1292,192.1292,193.5292,return,0.41,,21.484375,0,39,39,30,1,FBP-RB-17.png,0.35,1.2,31,0.5,,,,,,,,,,,,,,,,,,,,,,,,,,,,,,,,,,,,,,,,,,,,,
,,,,,SPR24_056,19,F,2024-04-17_09h31.38.256,jersey_experiment_5_v0,2023.2.2,Win32,84.74576271,,,,,,,,,,,,,,,,193.5293,194.8231,194.8232,195.988,return,0.3329,,72.65625,0,40,40,13,1,FBP-OG-91.png,0.43,1.2,14,0.5,,,,,,,,,,,,,,,,,,,,,,,,,,,,,,,,,,,,,,,,,,,,,
,,,,,SPR24_056,19,F,2024-04-17_09h31.38.256,jersey_experiment_5_v0,2023.2.2,Win32,84.74576271,,,,,,,,,,,,,,,,195.9882,197.0348,197.0349,198.341,return,0.2514,,74.34895833,0,41,41,23,1,FBP-YG-18.png,0.43,1.2,24,0.25,,,,,,,,,,,,,,,,,,,,,,,,,,,,,,,,,,,,,,,,,,,,,
,,,,,SPR24_056,19,F,2024-04-17_09h31.38.256,jersey_experiment_5_v0,2023.2.2,Win32,84.74576271,,,,,,,,,,,,,,,,198.3414,199.3879,199.3879,200.9292,return,0.5142,,78.38541667,0,42,42,27,1,FBP-YG-19.png,0.4,1.2,28,0.25,,,,,,,,,,,,,,,,,,,,,,,,,,,,,,,,,,,,,,,,,,,,,
,,,,,SPR24_056,19,F,2024-04-17_09h31.38.256,jersey_experiment_5_v0,2023.2.2,Win32,84.74576271,,,,,,,,,,,,,,,,200.9294,202.2235,202.2235,203.8822,return,0.6593,,91.14583333,0,43,43,34,1,FBP-RB-17.png,0.45,1.2,35,0.5,,,,,,,,,,,,,,,,,,,,,,,,,,,,,,,,,,,,,,,,,,,,,
,,,,,SPR24_056,19,F,2024-04-17_09h31.38.256,jersey_experiment_5_v0,2023.2.2,Win32,84.74576271,,,,,,,,,,,,,,,,203.8825,204.9294,204.9294,206.2353,return,0.3772,,65.75520833,0,44,44,52,1,FBP-PT-18.png,0.4,1.2,53,0.25,,,,,,,,,,,,,,,,,,,,,,,,,,,,,,,,,,,,,,,,,,,,,
,,,,,SPR24_056,19,F,2024-04-17_09h31.38.256,jersey_experiment_5_v0,2023.2.2,Win32,84.74576271,,,,,,,,,,,,,,,,206.2355,207.5295,207.5295,209.3766,return,0.2422,,67.70833333,0,45,45,32,1,FBP-RB-17.png,0.4,1.2,33,0.5,,,,,,,,,,,,,,,,,,,,,,,,,,,,,,,,,,,,,,,,,,,,,
,,,,,SPR24_056,19,F,2024-04-17_09h31.38.256,jersey_experiment_5_v0,2023.2.2,Win32,84.74576271,,,,,,,,,,,,,,,,209.3768,210.4236,210.4236,211.859,return,0.5097,,78.25520833,0,46,46,28,1,FBP-YG-19.png,0.43,1.2,29,0.25,,,,,,,,,,,,,,,,,,,,,,,,,,,,,,,,,,,,,,,,,,,,,
,,,,,SPR24_056,19,F,2024-04-17_09h31.38.256,jersey_experiment_5_v0,2023.2.2,Win32,84.74576271,,,,,,,,,,,,,,,,211.8591,213.1533,213.1534,214.3886,return,0.3228,,88.28125,0,47,47,44,1,FBP-RB-19.png,0.45,1.2,45,0.5,,,,,,,,,,,,,,,,,,,,,,,,,,,,,,,,,,,,,,,,,,,,,
,,,,,SPR24_056,19,F,2024-04-17_09h31.38.256,jersey_experiment_5_v0,2023.2.2,Win32,84.74576271,,,,,,,,,,,,,,,,214.3888,215.4355,215.4356,217.0005,return,0.2593,,67.96875,0,48,48,22,1,FBP-YG-18.png,0.4,1.2,23,0.25,,,,,,,,,,,,,,,,,,,,,,,,,,,,,,,,,,,,,,,,,,,,,
,,,,,SPR24_056,19,F,2024-04-17_09h31.38.256,jersey_experiment_5_v0,2023.2.2,Win32,84.74576271,,,,,,,,,,,,,,,,217.0008,218.2947,218.2947,219.9536,return,0.3944,,47.52604167,0,49,49,6,1,FBP-OG-81.png,0.37,1.2,7,0.5,,,,,,,,,,,,,,,,,,,,,,,,,,,,,,,,,,,,,,,,,,,,,
,,,,,SPR24_056,19,F,2024-04-17_09h31.38.256,jersey_experiment_5_v0,2023.2.2,Win32,84.74576271,,,,,,,,,,,,,,,,219.9538,221.2476,221.2477,223.5066,return,1.3951,,41.015625,0,50,50,36,1,FBP-RB-18.png,0.37,1.2,37,0.5,,,,,,,,,,,,,,,,,,,,,,,,,,,,,,,,,,,,,,,,,,,,,
,,,,,SPR24_056,19,F,2024-04-17_09h31.38.256,jersey_experiment_5_v0,2023.2.2,Win32,84.74576271,,,,,,,,,,,,,,,,223.5068,224.5535,224.5536,226.2126,return,0.2872,,69.140625,0,51,51,57,1,FBP-PT-19.png,0.4,1.2,58,0.25,,,,,,,,,,,,,,,,,,,,,,,,,,,,,,,,,,,,,,,,,,,,,
,,,,,SPR24_056,19,F,2024-04-17_09h31.38.256,jersey_experiment_5_v0,2023.2.2,Win32,84.74576271,,,,,,,,,,,,,,,,226.2127,227.2596,227.2596,228.554,return,0.3058,,30.078125,0,52,52,16,1,FBP-YG-17.png,0.37,1.2,17,0.25,,,,,,,,,,,,,,,,,,,,,,,,,,,,,,,,,,,,,,,,,,,,,
,,,,,SPR24_056,19,F,2024-04-17_09h31.38.256,jersey_experiment_5_v0,2023.2.2,Win32,84.74576271,,,,,,,,,,,,,,,,228.5543,229.8477,229.8478,231.7658,return,0.2393,,30.20833333,0,53,53,40,1,FBP-RB-19.png,0.35,1.2,41,0.5,,,,,,,,,,,,,,,,,,,,,,,,,,,,,,,,,,,,,,,,,,,,,
,,,,,SPR24_056,19,F,2024-04-17_09h31.38.256,jersey_experiment_5_v0,2023.2.2,Win32,84.74576271,,,,,,,,,,,,,,,,231.766,233.0597,233.0598,234.5071,return,0.2739,,73.69791667,0,54,54,8,1,FBP-OG-81.png,0.43,1.2,9,0.5,,,,,,,,,,,,,,,,,,,,,,,,,,,,,,,,,,,,,,,,,,,,,
,,,,,SPR24_056,19,F,2024-04-17_09h31.38.256,jersey_experiment_5_v0,2023.2.2,Win32,84.74576271,,,,,,,,,,,,,,,,234.5073,235.8011,235.8011,236.8718,return,0.2942,,81.640625,0,55,55,33,1,FBP-RB-17.png,0.43,1.2,34,0.5,,,,,,,,,,,,,,,,,,,,,,,,,,,,,,,,,,,,,,,,,,,,,
,,,,,SPR24_056,19,F,2024-04-17_09h31.38.256,jersey_experiment_5_v0,2023.2.2,Win32,84.74576271,,,,,,,,,,,,,,,,236.872,237.9187,237.9188,239.9777,return,0.7149,,26.04166667,0,56,56,50,1,FBP-PT-18.png,0.35,1.2,51,0.25,,,,,,,,,,,,,,,,,,,,,,,,,,,,,,,,,,,,,,,,,,,,,
,,,,,SPR24_056,19,F,2024-04-17_09h31.38.256,jersey_experiment_5_v0,2023.2.2,Win32,84.74576271,,,,,,,,,,,,,,,,239.9779,241.0247,241.0247,242.5659,return,0.4037,,93.09895833,0,57,57,59,1,FBP-PT-19.png,0.45,1.2,60,0.25,,,,,,,,,,,,,,,,,,,,,,,,,,,,,,,,,,,,,,,,,,,,,
,,,,,SPR24_056,19,F,2024-04-17_09h31.38.256,jersey_experiment_5_v0,2023.2.2,Win32,84.74576271,,,,,,,,,,,,,,,,242.5661,243.6131,243.6132,245.2369,return,0.4264,,55.078125,0,58,58,47,1,FBP-PT-17.png,0.4,1.2,48,0.25,,,,,,,,,,,,,,,,,,,,,,,,,,,,,,,,,,,,,,,,,,,,,
,,,,,SPR24_056,19,F,2024-04-17_09h31.38.256,jersey_experiment_5_v0,2023.2.2,Win32,84.74576271,,,,,,,,,,,,,,,,245.2371,246.2836,246.2837,248.1191,return,0.5907,,71.09375,0,59,59,54,1,FBP-PT-18.png,0.45,1.2,55,0.25,,,,,,,,,,,,,,,,,,,,,,,,,,,,,,,,,,,,,,,,,,,,,
,,,,,SPR24_056,19,F,2024-04-17_09h31.38.256,jersey_experiment_5_v0,2023.2.2,Win32,84.74576271,,,,,,,,,,,,,,,,248.1215,249.1663,249.1663,250.9074,return,0.6263,,79.16666667,,,,,,FBP-YG-71.png,0.45,1.2,20,0.25,0,0,0,19,1,,,,,,,,,,,,,,,,,,,,,,,,,,,,,,,,,,,,,,,,
,,,,,SPR24_056,19,F,2024-04-17_09h31.38.256,jersey_experiment_5_v0,2023.2.2,Win32,84.74576271,,,,,,,,,,,,,,,,250.9077,252.2018,252.2018,253.2018,return,0.2756,,87.23958333,,,,,,FBP-RB-81.png,0.45,1.2,40,0.5,0,1,1,39,1,,,,,,,,,,,,,,,,,,,,,,,,,,,,,,,,,,,,,,,,
,,,,,SPR24_056,19,F,2024-04-17_09h31.38.256,jersey_experiment_5_v0,2023.2.2,Win32,84.74576271,,,,,,,,,,,,,,,,253.2021,254.4959,254.4959,256.5195,return,1.2726,,27.21354167,,,,,,FBP-OG-18.png,0.37,1.2,7,0.5,0,2,2,6,1,,,,,,,,,,,,,,,,,,,,,,,,,,,,,,,,,,,,,,,,
,,,,,SPR24_056,19,F,2024-04-17_09h31.38.256,jersey_experiment_5_v0,2023.2.2,Win32,84.74576271,,,,,,,,,,,,,,,,256.5198,257.8137,257.8137,259.4607,return,0.4283,,52.34375,,,,,,FBP-OG-19.png,0.4,1.2,13,0.5,0,3,3,12,1,,,,,,,,,,,,,,,,,,,,,,,,,,,,,,,,,,,,,,,,
,,,,,SPR24_056,19,F,2024-04-17_09h31.38.256,jersey_experiment_5_v0,2023.2.2,Win32,84.74576271,,,,,,,,,,,,,,,,259.4609,260.7549,260.7549,262.2258,return,0.2406,,74.34895833,,,,,,FBP-RB-91.png,0.45,1.2,45,0.5,0,4,4,44,1,,,,,,,,,,,,,,,,,,,,,,,,,,,,,,,,,,,,,,,,
,,,,,SPR24_056,19,F,2024-04-17_09h31.38.256,jersey_experiment_5_v0,2023.2.2,Win32,84.74576271,,,,,,,,,,,,,,,,262.226,263.2728,263.2728,264.6963,return,0.2268,,25.91145833,,,,,,FBP-PT-81.png,0.37,1.2,52,0.25,0,5,5,51,1,,,,,,,,,,,,,,,,,,,,,,,,,,,,,,,,,,,,,,,,
,,,,,SPR24_056,19,F,2024-04-17_09h31.38.256,jersey_experiment_5_v0,2023.2.2,Win32,84.74576271,,,,,,,,,,,,,,,,264.6966,265.7432,265.7432,267.061,return,0.344,,25,,,,,,FBP-YG-91.png,0.37,1.2,27,0.25,0,6,6,26,1,,,,,,,,,,,,,,,,,,,,,,,,,,,,,,,,,,,,,,,,
,,,,,SPR24_056,19,F,2024-04-17_09h31.38.256,jersey_experiment_5_v0,2023.2.2,Win32,84.74576271,,,,,,,,,,,,,,,,267.0613,268.1082,268.1082,269.3789,return,0.3713,,24.73958333,,,,,,FBP-PT-71.png,0.35,1.2,46,0.25,0,7,7,45,1,,,,,,,,,,,,,,,,,,,,,,,,,,,,,,,,,,,,,,,,
,,,,,SPR24_056,19,F,2024-04-17_09h31.38.256,jersey_experiment_5_v0,2023.2.2,Win32,84.74576271,,,,,,,,,,,,,,,,269.3791,270.6729,270.6729,271.7322,return,0.1916,,75.26041667,,,,,,FBP-RB-91.png,0.43,1.2,44,0.5,0,8,8,43,1,,,,,,,,,,,,,,,,,,,,,,,,,,,,,,,,,,,,,,,,
,,,,,SPR24_056,19,F,2024-04-17_09h31.38.256,jersey_experiment_5_v0,2023.2.2,Win32,84.74576271,,,,,,,,,,,,,,,,271.7324,273.026,273.026,274.2261,return,0.2547,,96.74479167,,,,,,FBP-OG-18.png,0.45,1.2,10,0.5,0,9,9,9,1,,,,,,,,,,,,,,,,,,,,,,,,,,,,,,,,,,,,,,,,
,,,,,SPR24_056,19,F,2024-04-17_09h31.38.256,jersey_experiment_5_v0,2023.2.2,Win32,84.74576271,,,,,,,,,,,,,,,,274.2264,275.273,275.2731,277.2263,return,0.3536,,83.984375,,,,,,FBP-YG-81.png,0.43,1.2,24,0.25,0,10,10,23,1,,,,,,,,,,,,,,,,,,,,,,,,,,,,,,,,,,,,,,,,
,,,,,SPR24_056,19,F,2024-04-17_09h31.38.256,jersey_experiment_5_v0,2023.2.2,Win32,84.74576271,,,,,,,,,,,,,,,,277.2265,278.2731,278.2732,280.5206,return,1.2103,,26.04166667,,,,,,FBP-PT-91.png,0.37,1.2,57,0.25,0,11,11,56,1,,,,,,,,,,,,,,,,,,,,,,,,,,,,,,,,,,,,,,,,
,,,,,SPR24_056,19,F,2024-04-17_09h31.38.256,jersey_experiment_5_v0,2023.2.2,Win32,84.74576271,,,,,,,,,,,,,,,,280.5208,281.8146,281.8146,283.2383,return,0.3211,,24.86979167,,,,,,FBP-RB-81.png,0.35,1.2,36,0.5,0,12,12,35,1,,,,,,,,,,,,,,,,,,,,,,,,,,,,,,,,,,,,,,,,
,,,,,SPR24_056,19,F,2024-04-17_09h31.38.256,jersey_experiment_5_v0,2023.2.2,Win32,84.74576271,,,,,,,,,,,,,,,,283.2385,284.2852,284.2852,285.4737,return,0.3964,,25,,,,,,FBP-PT-71.png,0.37,1.2,47,0.25,0,13,13,46,1,,,,,,,,,,,,,,,,,,,,,,,,,,,,,,,,,,,,,,,,
,,,,,SPR24_056,19,F,2024-04-17_09h31.38.256,jersey_experiment_5_v0,2023.2.2,Win32,84.74576271,,,,,,,,,,,,,,,,285.4739,286.5206,286.5206,288.1676,return,0.3313,,67.44791667,,,,,,FBP-YG-91.png,0.43,1.2,29,0.25,0,14,14,28,1,,,,,,,,,,,,,,,,,,,,,,,,,,,,,,,,,,,,,,,,
,,,,,SPR24_056,19,F,2024-04-17_09h31.38.256,jersey_experiment_5_v0,2023.2.2,Win32,84.74576271,,,,,,,,,,,,,,,,288.1679,289.2148,289.2148,290.9679,return,0.2697,,38.671875,,,,,,FBP-YG-81.png,0.4,1.2,23,0.25,0,15,15,22,1,,,,,,,,,,,,,,,,,,,,,,,,,,,,,,,,,,,,,,,,
,,,,,SPR24_056,19,F,2024-04-17_09h31.38.256,jersey_experiment_5_v0,2023.2.2,Win32,84.74576271,,,,,,,,,,,,,,,,290.9681,292.2619,292.262,293.7211,return,0.2596,,9.244791667,,,,,,FBP-OG-17.png,0.35,1.2,1,0.5,0,16,16,0,1,,,,,,,,,,,,,,,,,,,,,,,,,,,,,,,,,,,,,,,,
,,,,,SPR24_056,19,F,2024-04-17_09h31.38.256,jersey_experiment_5_v0,2023.2.2,Win32,84.74576271,,,,,,,,,,,,,,,,293.7212,294.7679,294.7679,296.074,return,0.3394,,7.421875,,,,,,FBP-PT-81.png,0.35,1.2,51,0.25,0,17,17,50,1,,,,,,,,,,,,,,,,,,,,,,,,,,,,,,,,,,,,,,,,
,,,,,SPR24_056,19,F,2024-04-17_09h31.38.256,jersey_experiment_5_v0,2023.2.2,Win32,84.74576271,,,,,,,,,,,,,,,,296.074,297.3681,297.3681,298.8859,return,0.3922,,54.16666667,,,,,,FBP-RB-71.png,0.4,1.2,33,0.5,0,18,18,32,1,,,,,,,,,,,,,,,,,,,,,,,,,,,,,,,,,,,,,,,,
,,,,,SPR24_056,19,F,2024-04-17_09h31.38.256,jersey_experiment_5_v0,2023.2.2,Win32,84.74576271,,,,,,,,,,,,,,,,298.8861,300.1799,300.18,301.2859,return,0.3072,,59.63541667,,,,,,FBP-RB-91.png,0.37,1.2,42,0.5,0,19,19,41,1,,,,,,,,,,,,,,,,,,,,,,,,,,,,,,,,,,,,,,,,
,,,,,SPR24_056,19,F,2024-04-17_09h31.38.256,jersey_experiment_5_v0,2023.2.2,Win32,84.74576271,,,,,,,,,,,,,,,,301.2861,302.5803,302.5803,303.5682,return,0.3267,,57.8125,,,,,,FBP-RB-81.png,0.37,1.2,37,0.5,0,20,20,36,1,,,,,,,,,,,,,,,,,,,,,,,,,,,,,,,,,,,,,,,,
,,,,,SPR24_056,19,F,2024-04-17_09h31.38.256,jersey_experiment_5_v0,2023.2.2,Win32,84.74576271,,,,,,,,,,,,,,,,303.5685,304.8627,304.8627,306.3097,return,0.2486,,44.140625,,,,,,FBP-RB-71.png,0.35,1.2,31,0.5,0,21,21,30,1,,,,,,,,,,,,,,,,,,,,,,,,,,,,,,,,,,,,,,,,
,,,,,SPR24_056,19,F,2024-04-17_09h31.38.256,jersey_experiment_5_v0,2023.2.2,Win32,84.74576271,,,,,,,,,,,,,,,,306.3099,307.3567,307.3567,308.9685,return,0.236,,32.94270833,,,,,,FBP-PT-91.png,0.35,1.2,56,0.25,0,22,22,55,1,,,,,,,,,,,,,,,,,,,,,,,,,,,,,,,,,,,,,,,,
,,,,,SPR24_056,19,F,2024-04-17_09h31.38.256,jersey_experiment_5_v0,2023.2.2,Win32,84.74576271,,,,,,,,,,,,,,,,308.9687,310.2626,310.2626,312.2627,return,0.6005,,25.52083333,,,,,,FBP-OG-18.png,0.35,1.2,6,0.5,0,23,23,5,1,,,,,,,,,,,,,,,,,,,,,,,,,,,,,,,,,,,,,,,,
,,,,,SPR24_056,19,F,2024-04-17_09h31.38.256,jersey_experiment_5_v0,2023.2.2,Win32,84.74576271,,,,,,,,,,,,,,,,312.2629,313.5567,313.5568,315.6393,return,0.2354,,40.88541667,,,,,,FBP-OG-17.png,0.37,1.2,2,0.5,0,24,24,1,1,,,,,,,,,,,,,,,,,,,,,,,,,,,,,,,,,,,,,,,,
,,,,,SPR24_056,19,F,2024-04-17_09h31.38.256,jersey_experiment_5_v0,2023.2.2,Win32,84.74576271,,,,,,,,,,,,,,,,315.6396,316.6862,316.6863,318.0512,return,0.251,,73.30729167,,,,,,FBP-PT-71.png,0.43,1.2,49,0.25,0,25,25,48,1,,,,,,,,,,,,,,,,,,,,,,,,,,,,,,,,,,,,,,,,
,,,,,SPR24_056,19,F,2024-04-17_09h31.38.256,jersey_experiment_5_v0,2023.2.2,Win32,84.74576271,,,,,,,,,,,,,,,,318.0513,319.3453,319.3453,320.3454,return,0.2025,,96.74479167,,,,,,FBP-OG-17.png,0.45,1.2,5,0.5,0,26,26,4,1,,,,,,,,,,,,,,,,,,,,,,,,,,,,,,,,,,,,,,,,
,,,,,SPR24_056,19,F,2024-04-17_09h31.38.256,jersey_experiment_5_v0,2023.2.2,Win32,84.74576271,,,,,,,,,,,,,,,,320.3456,321.3924,321.3925,322.7101,return,0.2476,,92.83854167,,,,,,FBP-PT-91.png,0.43,1.2,59,0.25,0,27,27,58,1,,,,,,,,,,,,,,,,,,,,,,,,,,,,,,,,,,,,,,,,
,,,,,SPR24_056,19,F,2024-04-17_09h31.38.256,jersey_experiment_5_v0,2023.2.2,Win32,84.74576271,,,,,,,,,,,,,,,,322.7102,323.7573,323.7574,324.6161,return,0.1757,,92.83854167,,,,,,FBP-YG-91.png,0.4,1.2,28,0.25,0,28,28,27,1,,,,,,,,,,,,,,,,,,,,,,,,,,,,,,,,,,,,,,,,
,,,,,SPR24_056,19,F,2024-04-17_09h31.38.256,jersey_experiment_5_v0,2023.2.2,Win32,84.74576271,,,,,,,,,,,,,,,,324.6164,325.9103,325.9103,326.6632,return,0.167,,93.09895833,,,,,,FBP-OG-17.png,0.43,1.2,4,0.5,0,29,29,3,1,,,,,,,,,,,,,,,,,,,,,,,,,,,,,,,,,,,,,,,,
,,,,,SPR24_056,19,F,2024-04-17_09h31.38.256,jersey_experiment_5_v0,2023.2.2,Win32,84.74576271,,,,,,,,,,,,,,,,326.6634,327.9574,327.9575,329.8281,return,0.1348,,25.91145833,,,,,,FBP-OG-19.png,0.35,1.2,11,0.5,0,30,30,10,1,,,,,,,,,,,,,,,,,,,,,,,,,,,,,,,,,,,,,,,,
,,,,,SPR24_056,19,F,2024-04-17_09h31.38.256,jersey_experiment_5_v0,2023.2.2,Win32,84.74576271,,,,,,,,,,,,,,,,329.8283,330.8751,330.8752,332.1811,return,0.2044,,75.78125,,,,,,FBP-YG-71.png,0.43,1.2,19,0.25,0,31,31,18,1,,,,,,,,,,,,,,,,,,,,,,,,,,,,,,,,,,,,,,,,
,,,,,SPR24_056,19,F,2024-04-17_09h31.38.256,jersey_experiment_5_v0,2023.2.2,Win32,84.74576271,,,,,,,,,,,,,,,,332.1814,333.2282,333.2282,334.4048,return,0.203,,99.08854167,,,,,,FBP-PT-91.png,0.45,1.2,60,0.25,0,32,32,59,1,,,,,,,,,,,,,,,,,,,,,,,,,,,,,,,,,,,,,,,,
,,,,,SPR24_056,19,F,2024-04-17_09h31.38.256,jersey_experiment_5_v0,2023.2.2,Win32,84.74576271,,,,,,,,,,,,,,,,334.405,335.4519,335.4519,336.1343,return,0.1797,,99.08854167,,,,,,FBP-PT-71.png,0.45,1.2,50,0.25,0,33,33,49,1,,,,,,,,,,,,,,,,,,,,,,,,,,,,,,,,,,,,,,,,
,,,,,SPR24_056,19,F,2024-04-17_09h31.38.256,jersey_experiment_5_v0,2023.2.2,Win32,84.74576271,,,,,,,,,,,,,,,,336.1344,337.1812,337.1813,337.899,return,0.4475,,99.08854167,,,,,,FBP-PT-81.png,0.45,1.2,55,0.25,0,34,34,54,1,,,,,,,,,,,,,,,,,,,,,,,,,,,,,,,,,,,,,,,,
,,,,,SPR24_056,19,F,2024-04-17_09h31.38.256,jersey_experiment_5_v0,2023.2.2,Win32,84.74576271,,,,,,,,,,,,,,,,337.8994,338.9461,338.9461,341.1226,return,0.2306,,50.91145833,,,,,,FBP-YG-81.png,0.35,1.2,21,0.25,0,35,35,20,1,,,,,,,,,,,,,,,,,,,,,,,,,,,,,,,,,,,,,,,,
,,,,,SPR24_056,19,F,2024-04-17_09h31.38.256,jersey_experiment_5_v0,2023.2.2,Win32,84.74576271,,,,,,,,,,,,,,,,341.1228,342.4166,342.4167,345.2522,return,0.1934,,51.5625,,,,,,FBP-RB-71.png,0.37,1.2,32,0.5,0,36,36,31,1,,,,,,,,,,,,,,,,,,,,,,,,,,,,,,,,,,,,,,,,
,,,,,SPR24_056,19,F,2024-04-17_09h31.38.256,jersey_experiment_5_v0,2023.2.2,Win32,84.74576271,,,,,,,,,,,,,,,,345.2524,346.2993,346.2993,347.5229,return,0.2536,,60.41666667,,,,,,FBP-PT-71.png,0.4,1.2,48,0.25,0,37,37,47,1,,,,,,,,,,,,,,,,,,,,,,,,,,,,,,,,,,,,,,,,
,,,,,SPR24_056,19,F,2024-04-17_09h31.38.256,jersey_experiment_5_v0,2023.2.2,Win32,84.74576271,,,,,,,,,,,,,,,,347.5232,348.5699,348.5699,349.864,return,0.213,,73.4375,,,,,,FBP-PT-81.png,0.43,1.2,54,0.25,0,38,38,53,1,,,,,,,,,,,,,,,,,,,,,,,,,,,,,,,,,,,,,,,,
,,,,,SPR24_056,19,F,2024-04-17_09h31.38.256,jersey_experiment_5_v0,2023.2.2,Win32,84.74576271,,,,,,,,,,,,,,,,349.8641,351.1582,351.1583,352.2406,return,0.277,,74.86979167,,,,,,FBP-OG-19.png,0.43,1.2,14,0.5,0,39,39,13,1,,,,,,,,,,,,,,,,,,,,,,,,,,,,,,,,,,,,,,,,
,,,,,SPR24_056,19,F,2024-04-17_09h31.38.256,jersey_experiment_5_v0,2023.2.2,Win32,84.74576271,,,,,,,,,,,,,,,,352.2409,353.5348,353.5349,354.2406,return,0.2773,,74.73958333,,,,,,FBP-OG-18.png,0.43,1.2,9,0.5,0,40,40,8,1,,,,,,,,,,,,,,,,,,,,,,,,,,,,,,,,,,,,,,,,
,,,,,SPR24_056,19,F,2024-04-17_09h31.38.256,jersey_experiment_5_v0,2023.2.2,Win32,84.74576271,,,,,,,,,,,,,,,,354.2408,355.5349,355.535,356.2408,return,0.2438,,74.86979167,,,,,,FBP-OG-17.png,0.4,1.2,3,0.5,0,41,41,2,1,,,,,,,,,,,,,,,,,,,,,,,,,,,,,,,,,,,,,,,,
,,,,,SPR24_056,19,F,2024-04-17_09h31.38.256,jersey_experiment_5_v0,2023.2.2,Win32,84.74576271,,,,,,,,,,,,,,,,356.2409,357.5351,357.5351,358.994,return,0.1726,,25.390625,,,,,,FBP-OG-19.png,0.37,1.2,12,0.5,0,42,42,11,1,,,,,,,,,,,,,,,,,,,,,,,,,,,,,,,,,,,,,,,,
,,,,,SPR24_056,19,F,2024-04-17_09h31.38.256,jersey_experiment_5_v0,2023.2.2,Win32,84.74576271,,,,,,,,,,,,,,,,358.9943,360.0411,360.0411,361.8175,return,0.1653,,40.75520833,,,,,,FBP-YG-81.png,0.37,1.2,22,0.25,0,43,43,21,1,,,,,,,,,,,,,,,,,,,,,,,,,,,,,,,,,,,,,,,,
,,,,,SPR24_056,19,F,2024-04-17_09h31.38.256,jersey_experiment_5_v0,2023.2.2,Win32,84.74576271,,,,,,,,,,,,,,,,361.8178,362.8646,362.8646,364.3587,return,0.2616,,74.73958333,,,,,,FBP-YG-91.png,0.45,1.2,30,0.25,0,44,44,29,1,,,,,,,,,,,,,,,,,,,,,,,,,,,,,,,,,,,,,,,,
,,,,,SPR24_056,19,F,2024-04-17_09h31.38.256,jersey_experiment_5_v0,2023.2.2,Win32,84.74576271,,,,,,,,,,,,,,,,364.359,365.4058,365.4059,367.0295,return,0.157,,54.55729167,,,,,,FBP-PT-81.png,0.4,1.2,53,0.25,0,45,45,52,1,,,,,,,,,,,,,,,,,,,,,,,,,,,,,,,,,,,,,,,,
,,,,,SPR24_056,19,F,2024-04-17_09h31.38.256,jersey_experiment_5_v0,2023.2.2,Win32,84.74576271,,,,,,,,,,,,,,,,367.0297,368.3237,368.3237,369.6179,return,0.2548,,84.765625,,,,,,FBP-RB-71.png,0.45,1.2,35,0.5,0,46,46,34,1,,,,,,,,,,,,,,,,,,,,,,,,,,,,,,,,,,,,,,,,
,,,,,SPR24_056,19,F,2024-04-17_09h31.38.256,jersey_experiment_5_v0,2023.2.2,Win32,84.74576271,,,,,,,,,,,,,,,,369.6181,370.6649,370.6649,372.5945,return,0.5011,,34.63541667,,,,,,FBP-YG-71.png,0.37,1.2,17,0.25,0,47,47,16,1,,,,,,,,,,,,,,,,,,,,,,,,,,,,,,,,,,,,,,,,
,,,,,SPR24_056,19,F,2024-04-17_09h31.38.256,jersey_experiment_5_v0,2023.2.2,Win32,84.74576271,,,,,,,,,,,,,,,,372.5947,373.6414,373.6414,375.0769,return,0.2284,,76.69270833,,,,,,FBP-YG-81.png,0.45,1.2,25,0.25,0,48,48,24,1,,,,,,,,,,,,,,,,,,,,,,,,,,,,,,,,,,,,,,,,
,,,,,SPR24_056,19,F,2024-04-17_09h31.38.256,jersey_experiment_5_v0,2023.2.2,Win32,84.74576271,,,,,,,,,,,,,,,,375.0771,376.1239,376.1239,377.5122,return,0.1659,,25.390625,,,,,,FBP-YG-71.png,0.35,1.2,16,0.25,0,49,49,15,1,,,,,,,,,,,,,,,,,,,,,,,,,,,,,,,,,,,,,,,,
,,,,,SPR24_056,19,F,2024-04-17_09h31.38.256,jersey_experiment_5_v0,2023.2.2,Win32,84.74576271,,,,,,,,,,,,,,,,377.5125,378.8064,378.8064,379.9123,return,0.1653,,75.13020833,,,,,,FBP-RB-81.png,0.43,1.2,39,0.5,0,50,50,38,1,,,,,,,,,,,,,,,,,,,,,,,,,,,,,,,,,,,,,,,,
,,,,,SPR24_056,19,F,2024-04-17_09h31.38.256,jersey_experiment_5_v0,2023.2.2,Win32,84.74576271,,,,,,,,,,,,,,,,379.9126,381.2067,381.2067,382.9009,return,0.9225,,17.31770833,,,,,,FBP-RB-91.png,0.35,1.2,41,0.5,0,51,51,40,1,,,,,,,,,,,,,,,,,,,,,,,,,,,,,,,,,,,,,,,,
,,,,,SPR24_056,19,F,2024-04-17_09h31.38.256,jersey_experiment_5_v0,2023.2.2,Win32,84.74576271,,,,,,,,,,,,,,,,382.9011,384.1949,384.1949,387.1243,return,1.9465,,75.91145833,,,,,,FBP-OG-19.png,0.45,1.2,15,0.5,0,52,52,14,1,,,,,,,,,,,,,,,,,,,,,,,,,,,,,,,,,,,,,,,,
,,,,,SPR24_056,19,F,2024-04-17_09h31.38.256,jersey_experiment_5_v0,2023.2.2,Win32,84.74576271,,,,,,,,,,,,,,,,387.1247,388.4187,388.4188,389.7949,return,0.4772,,74.609375,,,,,,FBP-RB-91.png,0.4,1.2,43,0.5,0,53,53,42,1,,,,,,,,,,,,,,,,,,,,,,,,,,,,,,,,,,,,,,,,
,,,,,SPR24_056,19,F,2024-04-17_09h31.38.256,jersey_experiment_5_v0,2023.2.2,Win32,84.74576271,,,,,,,,,,,,,,,,389.795,391.0893,391.0893,392.2893,return,0.206,,87.890625,,,,,,FBP-RB-71.png,0.43,1.2,34,0.5,0,54,54,33,1,,,,,,,,,,,,,,,,,,,,,,,,,,,,,,,,,,,,,,,,
,,,,,SPR24_056,19,F,2024-04-17_09h31.38.256,jersey_experiment_5_v0,2023.2.2,Win32,84.74576271,,,,,,,,,,,,,,,,392.2894,393.3364,393.3364,394.3953,return,0.1792,,72.00520833,,,,,,FBP-PT-91.png,0.4,1.2,58,0.25,0,55,55,57,1,,,,,,,,,,,,,,,,,,,,,,,,,,,,,,,,,,,,,,,,
,,,,,SPR24_056,19,F,2024-04-17_09h31.38.256,jersey_experiment_5_v0,2023.2.2,Win32,84.74576271,,,,,,,,,,,,,,,,394.3954,395.4422,395.4422,397.0189,return,0.1973,,26.69270833,,,,,,FBP-YG-91.png,0.35,1.2,26,0.25,0,56,56,25,1,,,,,,,,,,,,,,,,,,,,,,,,,,,,,,,,,,,,,,,,
,,,,,SPR24_056,19,F,2024-04-17_09h31.38.256,jersey_experiment_5_v0,2023.2.2,Win32,84.74576271,,,,,,,,,,,,,,,,397.0191,398.313,398.3131,399.5954,return,0.2819,,72.39583333,,,,,,FBP-RB-81.png,0.4,1.2,38,0.5,0,57,57,37,1,,,,,,,,,,,,,,,,,,,,,,,,,,,,,,,,,,,,,,,,
,,,,,SPR24_056,19,F,2024-04-17_09h31.38.256,jersey_experiment_5_v0,2023.2.2,Win32,84.74576271,,,,,,,,,,,,,,,,399.5955,400.8896,400.8896,401.7013,return,0.2396,,72.52604167,,,,,,FBP-OG-18.png,0.4,1.2,8,0.5,0,58,58,7,1,,,,,,,,,,,,,,,,,,,,,,,,,,,,,,,,,,,,,,,,
,,,,,SPR24_056,19,F,2024-04-17_09h31.38.256,jersey_experiment_5_v0,2023.2.2,Win32,84.74576271,,,,,,,,,,,,,,,,401.7014,402.7484,402.7485,403.5131,return,0.1982,,72.52604167,,,,,,FBP-YG-71.png,0.4,1.2,18,0.25,0,59,59,17,1,,,,,,,,,,,,,,,,,,,,,,,,,,,,,,,,,,,,,,,,
,,,,,SPR24_056,19,F,2024-04-17_09h31.38.256,jersey_experiment_5_v0,2023.2.2,Win32,84.74576271,,,,,,,,,,,,,,,,,,,,,,,,,,,,,,,,,,,,,,,403.5134,523.5063,,,,,,,,,,,,,,,,,,,,,,,,,,,,,,,,,,,,,,
,,,,,SPR24_056,19,F,2024-04-17_09h31.38.256,jersey_experiment_5_v0,2023.2.2,Win32,84.74576271,,,,,,,,,,,,,,,,,,,,,,,,,,,,,,,,,,,,,,,,,523.5064,552.225,return,28.7141,,,,,,,,,,,,,,,,,,,,,,,,,,,,,,,,,,
,,,,,SPR24_056,19,F,2024-04-17_09h31.38.256,jersey_experiment_5_v0,2023.2.2,Win32,84.74576271,,,,,,,,,,,,,,,,552.2312,553.5305,553.5306,555.6248,return,0.6109,,23.828125,,,,,,FBP-YG-17.png,0.35,1.2,16,0.5,,,,,,,,,,,,,0,0,0,15,1,,,,,,,,,,,,,,,,,,,,,,,,,,,,
,,,,,SPR24_056,19,F,2024-04-17_09h31.38.256,jersey_experiment_5_v0,2023.2.2,Win32,84.74576271,,,,,,,,,,,,,,,,555.6251,556.9191,556.9192,558.3308,return,0.2725,,73.17708333,,,,,,FBP-PT-18.png,0.43,1.2,54,0.5,,,,,,,,,,,,,0,1,1,53,1,,,,,,,,,,,,,,,,,,,,,,,,,,,,
,,,,,SPR24_056,19,F,2024-04-17_09h31.38.256,jersey_experiment_5_v0,2023.2.2,Win32,84.74576271,,,,,,,,,,,,,,,,558.3311,559.3777,559.3778,560.3897,return,0.1919,,80.59895833,,,,,,FBP-OG-91.png,0.45,1.2,15,0.25,,,,,,,,,,,,,0,2,2,14,1,,,,,,,,,,,,,,,,,,,,,,,,,,,,
,,,,,SPR24_056,19,F,2024-04-17_09h31.38.256,jersey_experiment_5_v0,2023.2.2,Win32,84.74576271,,,,,,,,,,,,,,,,560.3899,561.6839,561.684,563.237,return,0.2255,,25.78125,,,,,,FBP-YG-17.png,0.37,1.2,17,0.5,,,,,,,,,,,,,0,3,3,16,1,,,,,,,,,,,,,,,,,,,,,,,,,,,,
,,,,,SPR24_056,19,F,2024-04-17_09h31.38.256,jersey_experiment_5_v0,2023.2.2,Win32,84.74576271,,,,,,,,,,,,,,,,563.2374,564.5308,564.5309,566.0251,return,0.6738,,64.71354167,,,,,,FBP-YG-18.png,0.4,1.2,23,0.5,,,,,,,,,,,,,0,4,4,22,1,,,,,,,,,,,,,,,,,,,,,,,,,,,,
,,,,,SPR24_056,19,F,2024-04-17_09h31.38.256,jersey_experiment_5_v0,2023.2.2,Win32,84.74576271,,,,,,,,,,,,,,,,566.0254,567.0722,567.0723,567.9899,return,0.2153,,81.25,,,,,,FBP-OG-81.png,0.43,1.2,9,0.25,,,,,,,,,,,,,0,5,5,8,1,,,,,,,,,,,,,,,,,,,,,,,,,,,,
,,,,,SPR24_056,19,F,2024-04-17_09h31.38.256,jersey_experiment_5_v0,2023.2.2,Win32,84.74576271,,,,,,,,,,,,,,,,567.9901,569.037,569.037,570.3429,return,0.1674,,18.09895833,,,,,,FBP-RB-19.png,0.35,1.2,41,0.25,,,,,,,,,,,,,0,6,6,40,1,,,,,,,,,,,,,,,,,,,,,,,,,,,,
,,,,,SPR24_056,19,F,2024-04-17_09h31.38.256,jersey_experiment_5_v0,2023.2.2,Win32,84.74576271,,,,,,,,,,,,,,,,570.3431,571.39,571.39,572.6723,return,0.2443,,27.99479167,,,,,,FBP-RB-17.png,0.35,1.2,31,0.25,,,,,,,,,,,,,0,7,7,30,1,,,,,,,,,,,,,,,,,,,,,,,,,,,,
,,,,,SPR24_056,19,F,2024-04-17_09h31.38.256,jersey_experiment_5_v0,2023.2.2,Win32,84.74576271,,,,,,,,,,,,,,,,572.6725,573.7195,573.7195,574.4489,return,0.1476,,28.77604167,,,,,,FBP-RB-18.png,0.35,1.2,36,0.25,,,,,,,,,,,,,0,8,8,35,1,,,,,,,,,,,,,,,,,,,,,,,,,,,,
,,,,,SPR24_056,19,F,2024-04-17_09h31.38.256,jersey_experiment_5_v0,2023.2.2,Win32,84.74576271,,,,,,,,,,,,,,,,574.4491,575.4961,575.4961,576.2256,return,0.2197,,28.77604167,,,,,,FBP-OG-81.png,0.35,1.2,6,0.25,,,,,,,,,,,,,0,9,9,5,1,,,,,,,,,,,,,,,,,,,,,,,,,,,,
,,,,,SPR24_056,19,F,2024-04-17_09h31.38.256,jersey_experiment_5_v0,2023.2.2,Win32,84.74576271,,,,,,,,,,,,,,,,576.2259,577.5196,577.5197,578.7433,return,0.3782,,68.61979167,,,,,,FBP-PT-19.png,0.4,1.2,58,0.5,,,,,,,,,,,,,0,10,10,57,1,,,,,,,,,,,,,,,,,,,,,,,,,,,,
,,,,,SPR24_056,19,F,2024-04-17_09h31.38.256,jersey_experiment_5_v0,2023.2.2,Win32,84.74576271,,,,,,,,,,,,,,,,578.7436,579.7904,579.7905,580.6609,return,0.1808,,81.640625,,,,,,FBP-RB-18.png,0.43,1.2,39,0.25,,,,,,,,,,,,,0,11,11,38,1,,,,,,,,,,,,,,,,,,,,,,,,,,,,
,,,,,SPR24_056,19,F,2024-04-17_09h31.38.256,jersey_experiment_5_v0,2023.2.2,Win32,84.74576271,,,,,,,,,,,,,,,,580.6611,581.7083,581.7083,582.5553,return,0.2118,,86.58854167,,,,,,FBP-RB-17.png,0.45,1.2,35,0.25,,,,,,,,,,,,,0,12,12,34,1,,,,,,,,,,,,,,,,,,,,,,,,,,,,
,,,,,SPR24_056,19,F,2024-04-17_09h31.38.256,jersey_experiment_5_v0,2023.2.2,Win32,84.74576271,,,,,,,,,,,,,,,,582.5555,583.8492,583.8493,585.0613,return,0.2278,,24.08854167,,,,,,FBP-PT-18.png,0.37,1.2,52,0.5,,,,,,,,,,,,,0,13,13,51,1,,,,,,,,,,,,,,,,,,,,,,,,,,,,
,,,,,SPR24_056,19,F,2024-04-17_09h31.38.256,jersey_experiment_5_v0,2023.2.2,Win32,84.74576271,,,,,,,,,,,,,,,,585.0615,586.3556,586.3556,586.9553,return,0.174,,25.26041667,,,,,,FBP-PT-19.png,0.35,1.2,56,0.5,,,,,,,,,,,,,0,14,14,55,1,,,,,,,,,,,,,,,,,,,,,,,,,,,,
,,,,,SPR24_056,19,F,2024-04-17_09h31.38.256,jersey_experiment_5_v0,2023.2.2,Win32,84.74576271,,,,,,,,,,,,,,,,586.9556,588.0023,588.0024,589.8026,return,0.1985,,96.09375,,,,,,FBP-RB-18.png,0.45,1.2,40,0.25,,,,,,,,,,,,,0,15,15,39,1,,,,,,,,,,,,,,,,,,,,,,,,,,,,
,,,,,SPR24_056,19,F,2024-04-17_09h31.38.256,jersey_experiment_5_v0,2023.2.2,Win32,84.74576271,,,,,,,,,,,,,,,,589.8028,591.0968,591.0968,592.132,return,0.2508,,72.52604167,,,,,,FBP-PT-17.png,0.4,1.2,48,0.5,,,,,,,,,,,,,0,16,16,47,1,,,,,,,,,,,,,,,,,,,,,,,,,,,,
,,,,,SPR24_056,19,F,2024-04-17_09h31.38.256,jersey_experiment_5_v0,2023.2.2,Win32,84.74576271,,,,,,,,,,,,,,,,592.1322,593.4261,593.4261,594.5202,return,0.155,,74.47916667,,,,,,FBP-PT-19.png,0.37,1.2,57,0.5,,,,,,,,,,,,,0,17,17,56,1,,,,,,,,,,,,,,,,,,,,,,,,,,,,
,,,,,SPR24_056,19,F,2024-04-17_09h31.38.256,jersey_experiment_5_v0,2023.2.2,Win32,84.74576271,,,,,,,,,,,,,,,,594.5205,595.5674,595.5674,596.7087,return,0.2143,,98.56770833,,,,,,FBP-RB-17.png,0.43,1.2,34,0.25,,,,,,,,,,,,,0,18,18,33,1,,,,,,,,,,,,,,,,,,,,,,,,,,,,
,,,,,SPR24_056,19,F,2024-04-17_09h31.38.256,jersey_experiment_5_v0,2023.2.2,Win32,84.74576271,,,,,,,,,,,,,,,,596.7089,597.7556,597.7556,599.6736,return,0.1649,,56.25,,,,,,FBP-RB-19.png,0.37,1.2,42,0.25,,,,,,,,,,,,,0,19,19,41,1,,,,,,,,,,,,,,,,,,,,,,,,,,,,
,,,,,SPR24_056,19,F,2024-04-17_09h31.38.256,jersey_experiment_5_v0,2023.2.2,Win32,84.74576271,,,,,,,,,,,,,,,,599.6737,600.7204,600.7205,601.8264,return,0.1717,,86.45833333,,,,,,FBP-RB-19.png,0.45,1.2,45,0.25,,,,,,,,,,,,,0,20,20,44,1,,,,,,,,,,,,,,,,,,,,,,,,,,,,
,,,,,SPR24_056,19,F,2024-04-17_09h31.38.256,jersey_experiment_5_v0,2023.2.2,Win32,84.74576271,,,,,,,,,,,,,,,,601.8266,602.8735,602.8735,603.6501,return,0.1938,,86.328125,,,,,,FBP-OG-71.png,0.43,1.2,4,0.25,,,,,,,,,,,,,0,21,21,3,1,,,,,,,,,,,,,,,,,,,,,,,,,,,,
,,,,,SPR24_056,19,F,2024-04-17_09h31.38.256,jersey_experiment_5_v0,2023.2.2,Win32,84.74576271,,,,,,,,,,,,,,,,603.6503,604.697,604.6971,605.4148,return,0.2029,,86.328125,,,,,,FBP-OG-91.png,0.43,1.2,14,0.25,,,,,,,,,,,,,0,22,22,13,1,,,,,,,,,,,,,,,,,,,,,,,,,,,,
,,,,,SPR24_056,19,F,2024-04-17_09h31.38.256,jersey_experiment_5_v0,2023.2.2,Win32,84.74576271,,,,,,,,,,,,,,,,605.415,606.7088,606.7089,607.4619,return,0.2272,,86.06770833,,,,,,FBP-YG-18.png,0.43,1.2,24,0.5,,,,,,,,,,,,,0,23,23,23,1,,,,,,,,,,,,,,,,,,,,,,,,,,,,
,,,,,SPR24_056,19,F,2024-04-17_09h31.38.256,jersey_experiment_5_v0,2023.2.2,Win32,84.74576271,,,,,,,,,,,,,,,,607.462,608.5092,608.5092,610.5796,return,0.8149,,53.77604167,,,,,,FBP-OG-91.png,0.37,1.2,12,0.25,,,,,,,,,,,,,0,24,24,11,1,,,,,,,,,,,,,,,,,,,,,,,,,,,,
,,,,,SPR24_056,19,F,2024-04-17_09h31.38.256,jersey_experiment_5_v0,2023.2.2,Win32,84.74576271,,,,,,,,,,,,,,,,610.5798,611.6268,611.6269,612.8505,return,0.1836,,76.43229167,,,,,,FBP-RB-19.png,0.4,1.2,43,0.25,,,,,,,,,,,,,0,25,25,42,1,,,,,,,,,,,,,,,,,,,,,,,,,,,,
,,,,,SPR24_056,19,F,2024-04-17_09h31.38.256,jersey_experiment_5_v0,2023.2.2,Win32,84.74576271,,,,,,,,,,,,,,,,612.8506,614.1446,614.1446,614.8033,return,0.2156,,74.47916667,,,,,,FBP-YG-19.png,0.4,1.2,28,0.5,,,,,,,,,,,,,0,26,26,27,1,,,,,,,,,,,,,,,,,,,,,,,,,,,,
,,,,,SPR24_056,19,F,2024-04-17_09h31.38.256,jersey_experiment_5_v0,2023.2.2,Win32,84.74576271,,,,,,,,,,,,,,,,614.8035,616.0978,616.0979,617.1565,return,0.2153,,24.21875,,,,,,FBP-PT-17.png,0.35,1.2,46,0.5,,,,,,,,,,,,,0,27,27,45,1,,,,,,,,,,,,,,,,,,,,,,,,,,,,
,,,,,SPR24_056,19,F,2024-04-17_09h31.38.256,jersey_experiment_5_v0,2023.2.2,Win32,84.74576271,,,,,,,,,,,,,,,,617.1568,618.4506,618.4506,619.9567,return,0.6613,,91.92708333,,,,,,FBP-YG-19.png,0.43,1.2,29,0.5,,,,,,,,,,,,,0,28,28,28,1,,,,,,,,,,,,,,,,,,,,,,,,,,,,
,,,,,SPR24_056,19,F,2024-04-17_09h31.38.256,jersey_experiment_5_v0,2023.2.2,Win32,84.74576271,,,,,,,,,,,,,,,,619.9571,621.2509,621.251,622.133,return,0.1785,,81.51041667,,,,,,FBP-YG-17.png,0.43,1.2,19,0.5,,,,,,,,,,,,,0,29,29,18,1,,,,,,,,,,,,,,,,,,,,,,,,,,,,
,,,,,SPR24_056,19,F,2024-04-17_09h31.38.256,jersey_experiment_5_v0,2023.2.2,Win32,84.74576271,,,,,,,,,,,,,,,,622.1332,623.4272,623.4272,624.1803,return,0.2023,,86.19791667,,,,,,FBP-PT-19.png,0.43,1.2,59,0.5,,,,,,,,,,,,,0,30,30,58,1,,,,,,,,,,,,,,,,,,,,,,,,,,,,
,,,,,SPR24_056,19,F,2024-04-17_09h31.38.256,jersey_experiment_5_v0,2023.2.2,Win32,84.74576271,,,,,,,,,,,,,,,,624.1805,625.2274,625.2274,626.5685,return,0.3302,,88.54166667,,,,,,FBP-OG-81.png,0.45,1.2,10,0.25,,,,,,,,,,,,,0,31,31,9,1,,,,,,,,,,,,,,,,,,,,,,,,,,,,
,,,,,SPR24_056,19,F,2024-04-17_09h31.38.256,jersey_experiment_5_v0,2023.2.2,Win32,84.74576271,,,,,,,,,,,,,,,,626.5687,627.6157,627.6157,628.6511,return,0.1651,,24.86979167,,,,,,FBP-OG-71.png,0.35,1.2,1,0.25,,,,,,,,,,,,,0,32,32,0,1,,,,,,,,,,,,,,,,,,,,,,,,,,,,
,,,,,SPR24_056,19,F,2024-04-17_09h31.38.256,jersey_experiment_5_v0,2023.2.2,Win32,84.74576271,,,,,,,,,,,,,,,,628.6513,629.9453,629.9453,631.0512,return,0.2123,,91.66666667,,,,,,FBP-PT-18.png,0.45,1.2,55,0.5,,,,,,,,,,,,,0,33,33,54,1,,,,,,,,,,,,,,,,,,,,,,,,,,,,
,,,,,SPR24_056,19,F,2024-04-17_09h31.38.256,jersey_experiment_5_v0,2023.2.2,Win32,84.74576271,,,,,,,,,,,,,,,,631.0515,632.3451,632.3451,633.463,return,0.1895,,25.26041667,,,,,,FBP-PT-18.png,0.35,1.2,51,0.5,,,,,,,,,,,,,0,34,34,50,1,,,,,,,,,,,,,,,,,,,,,,,,,,,,
,,,,,SPR24_056,19,F,2024-04-17_09h31.38.256,jersey_experiment_5_v0,2023.2.2,Win32,84.74576271,,,,,,,,,,,,,,,,633.4632,634.7573,634.7573,635.8159,return,0.1792,,87.76041667,,,,,,FBP-PT-19.png,0.45,1.2,60,0.5,,,,,,,,,,,,,0,35,35,59,1,,,,,,,,,,,,,,,,,,,,,,,,,,,,
,,,,,SPR24_056,19,F,2024-04-17_09h31.38.256,jersey_experiment_5_v0,2023.2.2,Win32,84.74576271,,,,,,,,,,,,,,,,635.8162,637.1102,637.1102,637.9218,return,0.2521,,87.76041667,,,,,,FBP-YG-19.png,0.45,1.2,30,0.5,,,,,,,,,,,,,0,36,36,29,1,,,,,,,,,,,,,,,,,,,,,,,,,,,,
,,,,,SPR24_056,19,F,2024-04-17_09h31.38.256,jersey_experiment_5_v0,2023.2.2,Win32,84.74576271,,,,,,,,,,,,,,,,637.9221,638.969,638.969,640.1925,return,0.2086,,76.5625,,,,,,FBP-RB-18.png,0.4,1.2,38,0.25,,,,,,,,,,,,,0,37,37,37,1,,,,,,,,,,,,,,,,,,,,,,,,,,,,
,,,,,SPR24_056,19,F,2024-04-17_09h31.38.256,jersey_experiment_5_v0,2023.2.2,Win32,84.74576271,,,,,,,,,,,,,,,,640.1927,641.2395,641.2396,643.4751,return,0.1571,,49.609375,,,,,,FBP-RB-17.png,0.37,1.2,32,0.25,,,,,,,,,,,,,0,38,38,31,1,,,,,,,,,,,,,,,,,,,,,,,,,,,,
,,,,,SPR24_056,19,F,2024-04-17_09h31.38.256,jersey_experiment_5_v0,2023.2.2,Win32,84.74576271,,,,,,,,,,,,,,,,643.4754,644.7693,644.7693,645.7459,return,0.1701,,28.25520833,,,,,,FBP-YG-18.png,0.37,1.2,22,0.5,,,,,,,,,,,,,0,39,39,21,1,,,,,,,,,,,,,,,,,,,,,,,,,,,,
,,,,,SPR24_056,19,F,2024-04-17_09h31.38.256,jersey_experiment_5_v0,2023.2.2,Win32,84.74576271,,,,,,,,,,,,,,,,645.7461,646.7928,646.7928,647.9106,return,0.1796,,75.91145833,,,,,,FBP-OG-71.png,0.4,1.2,3,0.25,,,,,,,,,,,,,0,40,40,2,1,,,,,,,,,,,,,,,,,,,,,,,,,,,,
,,,,,SPR24_056,19,F,2024-04-17_09h31.38.256,jersey_experiment_5_v0,2023.2.2,Win32,84.74576271,,,,,,,,,,,,,,,,647.9108,648.9576,648.9577,649.8636,return,0.2355,,93.22916667,,,,,,FBP-RB-19.png,0.43,1.2,44,0.25,,,,,,,,,,,,,0,41,41,43,1,,,,,,,,,,,,,,,,,,,,,,,,,,,,
,,,,,SPR24_056,19,F,2024-04-17_09h31.38.256,jersey_experiment_5_v0,2023.2.2,Win32,84.74576271,,,,,,,,,,,,,,,,649.8637,651.1578,651.1578,652.0989,return,0.3949,,77.21354167,,,,,,FBP-YG-17.png,0.4,1.2,18,0.5,,,,,,,,,,,,,0,42,42,17,1,,,,,,,,,,,,,,,,,,,,,,,,,,,,
,,,,,SPR24_056,19,F,2024-04-17_09h31.38.256,jersey_experiment_5_v0,2023.2.2,Win32,84.74576271,,,,,,,,,,,,,,,,652.0992,653.146,653.146,654.5813,return,0.178,,60.546875,,,,,,FBP-OG-71.png,0.37,1.2,2,0.25,,,,,,,,,,,,,0,43,43,1,1,,,,,,,,,,,,,,,,,,,,,,,,,,,,
,,,,,SPR24_056,19,F,2024-04-17_09h31.38.256,jersey_experiment_5_v0,2023.2.2,Win32,84.74576271,,,,,,,,,,,,,,,,654.5815,655.6285,655.6285,656.6991,return,0.2687,,85.67708333,,,,,,FBP-OG-71.png,0.45,1.2,5,0.25,,,,,,,,,,,,,0,44,44,4,1,,,,,,,,,,,,,,,,,,,,,,,,,,,,
,,,,,SPR24_056,19,F,2024-04-17_09h31.38.256,jersey_experiment_5_v0,2023.2.2,Win32,84.74576271,,,,,,,,,,,,,,,,656.6993,657.7461,657.7462,659.0286,return,0.2031,,73.046875,,,,,,FBP-RB-17.png,0.4,1.2,33,0.25,,,,,,,,,,,,,0,45,45,32,1,,,,,,,,,,,,,,,,,,,,,,,,,,,,
,,,,,SPR24_056,19,F,2024-04-17_09h31.38.256,jersey_experiment_5_v0,2023.2.2,Win32,84.74576271,,,,,,,,,,,,,,,,659.0288,660.0757,660.0757,661.5463,return,0.7156,,35.41666667,,,,,,FBP-OG-81.png,0.37,1.2,7,0.25,,,,,,,,,,,,,0,46,46,6,1,,,,,,,,,,,,,,,,,,,,,,,,,,,,
,,,,,SPR24_056,19,F,2024-04-17_09h31.38.256,jersey_experiment_5_v0,2023.2.2,Win32,84.74576271,,,,,,,,,,,,,,,,661.5465,662.5934,662.5934,663.8287,return,0.1691,,24.609375,,,,,,FBP-OG-91.png,0.35,1.2,11,0.25,,,,,,,,,,,,,0,47,47,10,1,,,,,,,,,,,,,,,,,,,,,,,,,,,,
,,,,,SPR24_056,19,F,2024-04-17_09h31.38.256,jersey_experiment_5_v0,2023.2.2,Win32,84.74576271,,,,,,,,,,,,,,,,663.8289,664.876,664.876,666.0524,return,0.1816,,52.86458333,,,,,,FBP-OG-81.png,0.4,1.2,8,0.25,,,,,,,,,,,,,0,48,48,7,1,,,,,,,,,,,,,,,,,,,,,,,,,,,,
,,,,,SPR24_056,19,F,2024-04-17_09h31.38.256,jersey_experiment_5_v0,2023.2.2,Win32,84.74576271,,,,,,,,,,,,,,,,666.0527,667.3467,667.3467,668.1348,return,0.2245,,81.25,,,,,,FBP-PT-17.png,0.45,1.2,50,0.5,,,,,,,,,,,,,0,49,49,49,1,,,,,,,,,,,,,,,,,,,,,,,,,,,,
,,,,,SPR24_056,19,F,2024-04-17_09h31.38.256,jersey_experiment_5_v0,2023.2.2,Win32,84.74576271,,,,,,,,,,,,,,,,668.135,669.429,669.429,670.2407,return,0.1851,,95.83333333,,,,,,FBP-YG-18.png,0.45,1.2,25,0.5,,,,,,,,,,,,,0,50,50,24,1,,,,,,,,,,,,,,,,,,,,,,,,,,,,
,,,,,SPR24_056,19,F,2024-04-17_09h31.38.256,jersey_experiment_5_v0,2023.2.2,Win32,84.74576271,,,,,,,,,,,,,,,,670.2409,671.535,671.535,672.2408,return,0.1472,,97.91666667,,,,,,FBP-YG-17.png,0.45,1.2,20,0.5,,,,,,,,,,,,,0,51,51,19,1,,,,,,,,,,,,,,,,,,,,,,,,,,,,
,,,,,SPR24_056,19,F,2024-04-17_09h31.38.256,jersey_experiment_5_v0,2023.2.2,Win32,84.74576271,,,,,,,,,,,,,,,,672.2409,673.2879,673.2879,674.4175,return,0.2758,,80.33854167,,,,,,FBP-OG-91.png,0.4,1.2,13,0.25,,,,,,,,,,,,,0,52,52,12,1,,,,,,,,,,,,,,,,,,,,,,,,,,,,
,,,,,SPR24_056,19,F,2024-04-17_09h31.38.256,jersey_experiment_5_v0,2023.2.2,Win32,84.74576271,,,,,,,,,,,,,,,,674.4176,675.7115,675.7115,676.6764,return,0.2265,,89.84375,,,,,,FBP-PT-17.png,0.43,1.2,49,0.5,,,,,,,,,,,,,0,53,53,48,1,,,,,,,,,,,,,,,,,,,,,,,,,,,,
,,,,,SPR24_056,19,F,2024-04-17_09h31.38.256,jersey_experiment_5_v0,2023.2.2,Win32,84.74576271,,,,,,,,,,,,,,,,676.6766,677.9706,677.9707,679.7941,return,0.1837,,25.91145833,,,,,,FBP-PT-17.png,0.37,1.2,47,0.5,,,,,,,,,,,,,0,54,54,46,1,,,,,,,,,,,,,,,,,,,,,,,,,,,,
,,,,,SPR24_056,19,F,2024-04-17_09h31.38.256,jersey_experiment_5_v0,2023.2.2,Win32,84.74576271,,,,,,,,,,,,,,,,679.7942,681.0884,681.0885,682.3707,return,0.1948,,69.921875,,,,,,FBP-PT-18.png,0.4,1.2,53,0.5,,,,,,,,,,,,,0,55,55,52,1,,,,,,,,,,,,,,,,,,,,,,,,,,,,
,,,,,SPR24_056,19,F,2024-04-17_09h31.38.256,jersey_experiment_5_v0,2023.2.2,Win32,84.74576271,,,,,,,,,,,,,,,,682.3709,683.4177,683.4178,684.6297,return,0.2017,,23.046875,,,,,,FBP-RB-18.png,0.37,1.2,37,0.25,,,,,,,,,,,,,0,56,56,36,1,,,,,,,,,,,,,,,,,,,,,,,,,,,,
,,,,,SPR24_056,19,F,2024-04-17_09h31.38.256,jersey_experiment_5_v0,2023.2.2,Win32,84.74576271,,,,,,,,,,,,,,,,684.6298,685.9237,685.9237,687.2063,return,0.18,,6.640625,,,,,,FBP-YG-18.png,0.35,1.2,21,0.5,,,,,,,,,,,,,0,57,57,20,1,,,,,,,,,,,,,,,,,,,,,,,,,,,,
,,,,,SPR24_056,19,F,2024-04-17_09h31.38.256,jersey_experiment_5_v0,2023.2.2,Win32,84.74576271,,,,,,,,,,,,,,,,687.2065,688.5003,688.5004,689.7709,return,0.1791,,24.609375,,,,,,FBP-YG-19.png,0.37,1.2,27,0.5,,,,,,,,,,,,,0,58,58,26,1,,,,,,,,,,,,,,,,,,,,,,,,,,,,
,,,,,SPR24_056,19,F,2024-04-17_09h31.38.256,jersey_experiment_5_v0,2023.2.2,Win32,84.74576271,,,,,,,,,,,,,,,,689.7711,691.0652,691.0652,691.771,return,0.2354,,24.609375,,,,,,FBP-YG-19.png,0.35,1.2,26,0.5,,,,,,,,,,,,,0,59,59,25,1,,,,,,,,,,,,,,,,,,,,,,,,,,,,
,,,,,SPR24_056,19,F,2024-04-17_09h31.38.256,jersey_experiment_5_v0,2023.2.2,Win32,84.74576271,,,,,,,,,,,,,,,,691.7726,693.0652,693.0652,694.4888,return,0.575,,86.84895833,,,,,,FBP-YG-91.png,0.45,1.2,30,0.5,,,,,,,,,,,,,,,,,,0,0,0,29,1,,,,,,,,,,,,,,,,,,,,,,,
,,,,,SPR24_056,19,F,2024-04-17_09h31.38.256,jersey_experiment_5_v0,2023.2.2,Win32,84.74576271,,,,,,,,,,,,,,,,694.4892,695.536,695.536,698.1829,return,0.1673,,32.03125,,,,,,FBP-OG-17.png,0.35,1.2,1,0.25,,,,,,,,,,,,,,,,,,0,1,1,0,1,,,,,,,,,,,,,,,,,,,,,,,
,,,,,SPR24_056,19,F,2024-04-17_09h31.38.256,jersey_experiment_5_v0,2023.2.2,Win32,84.74576271,,,,,,,,,,,,,,,,698.183,699.23,699.23,700.5007,return,0.1442,,27.21354167,,,,,,FBP-RB-91.png,0.37,1.2,42,0.25,,,,,,,,,,,,,,,,,,0,2,2,41,1,,,,,,,,,,,,,,,,,,,,,,,
,,,,,SPR24_056,19,F,2024-04-17_09h31.38.256,jersey_experiment_5_v0,2023.2.2,Win32,84.74576271,,,,,,,,,,,,,,,,700.5009,701.5479,701.5479,703.442,return,0.937,,86.19791667,,,,,,FBP-OG-18.png,0.45,1.2,10,0.25,,,,,,,,,,,,,,,,,,0,3,3,9,1,,,,,,,,,,,,,,,,,,,,,,,
,,,,,SPR24_056,19,F,2024-04-17_09h31.38.256,jersey_experiment_5_v0,2023.2.2,Win32,84.74576271,,,,,,,,,,,,,,,,703.4423,704.4891,704.4891,706.2893,return,0.3123,,64.32291667,,,,,,FBP-RB-71.png,0.4,1.2,33,0.25,,,,,,,,,,,,,,,,,,0,4,4,32,1,,,,,,,,,,,,,,,,,,,,,,,
,,,,,SPR24_056,19,F,2024-04-17_09h31.38.256,jersey_experiment_5_v0,2023.2.2,Win32,84.74576271,,,,,,,,,,,,,,,,706.2895,707.3362,707.3362,708.2658,return,0.1417,,24.34895833,,,,,,FBP-OG-19.png,0.35,1.2,11,0.25,,,,,,,,,,,,,,,,,,0,5,5,10,1,,,,,,,,,,,,,,,,,,,,,,,
,,,,,SPR24_056,19,F,2024-04-17_09h31.38.256,jersey_experiment_5_v0,2023.2.2,Win32,84.74576271,,,,,,,,,,,,,,,,708.266,709.3127,709.3128,710.466,return,0.1726,,9.114583333,,,,,,FBP-RB-91.png,0.35,1.2,41,0.25,,,,,,,,,,,,,,,,,,0,6,6,40,1,,,,,,,,,,,,,,,,,,,,,,,
,,,,,SPR24_056,19,F,2024-04-17_09h31.38.256,jersey_experiment_5_v0,2023.2.2,Win32,84.74576271,,,,,,,,,,,,,,,,710.4661,711.5129,711.513,712.713,return,0.1324,,96.09375,,,,,,FBP-RB-81.png,0.45,1.2,40,0.25,,,,,,,,,,,,,,,,,,0,7,7,39,1,,,,,,,,,,,,,,,,,,,,,,,
,,,,,SPR24_056,19,F,2024-04-17_09h31.38.256,jersey_experiment_5_v0,2023.2.2,Win32,84.74576271,,,,,,,,,,,,,,,,712.7133,713.7599,713.76,714.9835,return,0.27,,24.47916667,,,,,,FBP-OG-18.png,0.35,1.2,6,0.25,,,,,,,,,,,,,,,,,,0,8,8,5,1,,,,,,,,,,,,,,,,,,,,,,,
,,,,,SPR24_056,19,F,2024-04-17_09h31.38.256,jersey_experiment_5_v0,2023.2.2,Win32,84.74576271,,,,,,,,,,,,,,,,714.9838,716.0307,716.0307,717.5133,return,0.2126,,55.859375,,,,,,FBP-RB-91.png,0.4,1.2,43,0.25,,,,,,,,,,,,,,,,,,0,9,9,42,1,,,,,,,,,,,,,,,,,,,,,,,
,,,,,SPR24_056,19,F,2024-04-17_09h31.38.256,jersey_experiment_5_v0,2023.2.2,Win32,84.74576271,,,,,,,,,,,,,,,,717.5135,718.8073,718.8073,719.925,return,0.4984,,85.9375,,,,,,FBP-YG-71.png,0.4,1.2,18,0.5,,,,,,,,,,,,,,,,,,0,10,10,17,1,,,,,,,,,,,,,,,,,,,,,,,
,,,,,SPR24_056,19,F,2024-04-17_09h31.38.256,jersey_experiment_5_v0,2023.2.2,Win32,84.74576271,,,,,,,,,,,,,,,,719.9252,721.2191,721.2192,722.0546,return,0.2351,,26.5625,,,,,,FBP-YG-91.png,0.35,1.2,26,0.5,,,,,,,,,,,,,,,,,,0,11,11,25,1,,,,,,,,,,,,,,,,,,,,,,,
,,,,,SPR24_056,19,F,2024-04-17_09h31.38.256,jersey_experiment_5_v0,2023.2.2,Win32,84.74576271,,,,,,,,,,,,,,,,722.0548,723.1015,723.1016,724.3605,return,0.156,,94.53125,,,,,,FBP-RB-81.png,0.43,1.2,39,0.25,,,,,,,,,,,,,,,,,,0,12,12,38,1,,,,,,,,,,,,,,,,,,,,,,,
,,,,,SPR24_056,19,F,2024-04-17_09h31.38.256,jersey_experiment_5_v0,2023.2.2,Win32,84.74576271,,,,,,,,,,,,,,,,724.3608,725.6548,725.6548,726.8075,return,0.1893,,38.80208333,,,,,,FBP-PT-91.png,0.35,1.2,56,0.5,,,,,,,,,,,,,,,,,,0,13,13,55,1,,,,,,,,,,,,,,,,,,,,,,,
,,,,,SPR24_056,19,F,2024-04-17_09h31.38.256,jersey_experiment_5_v0,2023.2.2,Win32,84.74576271,,,,,,,,,,,,,,,,726.8078,728.1019,728.102,729.1607,return,0.1885,,97.265625,,,,,,FBP-PT-81.png,0.45,1.2,55,0.5,,,,,,,,,,,,,,,,,,0,14,14,54,1,,,,,,,,,,,,,,,,,,,,,,,
,,,,,SPR24_056,19,F,2024-04-17_09h31.38.256,jersey_experiment_5_v0,2023.2.2,Win32,84.74576271,,,,,,,,,,,,,,,,729.161,730.2078,730.2078,731.0901,return,0.1463,,68.61979167,,,,,,FBP-OG-19.png,0.45,1.2,15,0.25,,,,,,,,,,,,,,,,,,0,15,15,14,1,,,,,,,,,,,,,,,,,,,,,,,
,,,,,SPR24_056,19,F,2024-04-17_09h31.38.256,jersey_experiment_5_v0,2023.2.2,Win32,84.74576271,,,,,,,,,,,,,,,,731.0904,732.1373,732.1373,732.9842,return,0.1285,,86.97916667,,,,,,FBP-RB-91.png,0.45,1.2,45,0.25,,,,,,,,,,,,,,,,,,0,16,16,44,1,,,,,,,,,,,,,,,,,,,,,,,
,,,,,SPR24_056,19,F,2024-04-17_09h31.38.256,jersey_experiment_5_v0,2023.2.2,Win32,84.74576271,,,,,,,,,,,,,,,,732.9844,734.2784,734.2784,735.1137,return,0.1649,,73.56770833,,,,,,FBP-YG-81.png,0.4,1.2,23,0.5,,,,,,,,,,,,,,,,,,0,17,17,22,1,,,,,,,,,,,,,,,,,,,,,,,
,,,,,SPR24_056,19,F,2024-04-17_09h31.38.256,jersey_experiment_5_v0,2023.2.2,Win32,84.74576271,,,,,,,,,,,,,,,,735.1139,736.1609,736.1609,737.4197,return,0.1555,,36.84895833,,,,,,FBP-RB-81.png,0.35,1.2,36,0.25,,,,,,,,,,,,,,,,,,0,18,18,35,1,,,,,,,,,,,,,,,,,,,,,,,
,,,,,SPR24_056,19,F,2024-04-17_09h31.38.256,jersey_experiment_5_v0,2023.2.2,Win32,84.74576271,,,,,,,,,,,,,,,,737.42,738.7141,738.7141,739.7845,return,0.2125,,77.21354167,,,,,,FBP-YG-91.png,0.43,1.2,29,0.5,,,,,,,,,,,,,,,,,,0,19,19,28,1,,,,,,,,,,,,,,,,,,,,,,,
,,,,,SPR24_056,19,F,2024-04-17_09h31.38.256,jersey_experiment_5_v0,2023.2.2,Win32,84.74576271,,,,,,,,,,,,,,,,739.7847,741.0787,741.0787,743.3965,return,0.1342,,48.4375,,,,,,FBP-PT-71.png,0.35,1.2,46,0.5,,,,,,,,,,,,,,,,,,0,20,20,45,1,,,,,,,,,,,,,,,,,,,,,,,
,,,,,SPR24_056,19,F,2024-04-17_09h31.38.256,jersey_experiment_5_v0,2023.2.2,Win32,84.74576271,,,,,,,,,,,,,,,,743.3968,744.4435,744.4435,746.1495,return,0.2039,,27.60416667,,,,,,FBP-RB-71.png,0.35,1.2,31,0.25,,,,,,,,,,,,,,,,,,0,21,21,30,1,,,,,,,,,,,,,,,,,,,,,,,
,,,,,SPR24_056,19,F,2024-04-17_09h31.38.256,jersey_experiment_5_v0,2023.2.2,Win32,84.74576271,,,,,,,,,,,,,,,,746.1497,747.1966,747.1966,748.3378,return,0.1702,,75.26041667,,,,,,FBP-OG-18.png,0.43,1.2,9,0.25,,,,,,,,,,,,,,,,,,0,22,22,8,1,,,,,,,,,,,,,,,,,,,,,,,
,,,,,SPR24_056,19,F,2024-04-17_09h31.38.256,jersey_experiment_5_v0,2023.2.2,Win32,84.74576271,,,,,,,,,,,,,,,,748.338,749.6319,749.6319,750.3851,return,0.147,,75.390625,,,,,,FBP-PT-71.png,0.4,1.2,48,0.5,,,,,,,,,,,,,,,,,,0,23,23,47,1,,,,,,,,,,,,,,,,,,,,,,,
,,,,,SPR24_056,19,F,2024-04-17_09h31.38.256,jersey_experiment_5_v0,2023.2.2,Win32,84.74576271,,,,,,,,,,,,,,,,750.3853,751.432,751.432,752.0556,return,0.1554,,75.390625,,,,,,FBP-OG-19.png,0.4,1.2,13,0.25,,,,,,,,,,,,,,,,,,0,24,24,12,1,,,,,,,,,,,,,,,,,,,,,,,
,,,,,SPR24_056,19,F,2024-04-17_09h31.38.256,jersey_experiment_5_v0,2023.2.2,Win32,84.74576271,,,,,,,,,,,,,,,,752.0558,753.1026,753.1026,754.5498,return,0.1425,,65.10416667,,,,,,FBP-OG-18.png,0.37,1.2,7,0.25,,,,,,,,,,,,,,,,,,0,25,25,6,1,,,,,,,,,,,,,,,,,,,,,,,
,,,,,SPR24_056,19,F,2024-04-17_09h31.38.256,jersey_experiment_5_v0,2023.2.2,Win32,84.74576271,,,,,,,,,,,,,,,,754.5499,755.844,755.844,756.8321,return,0.1719,,85.67708333,,,,,,FBP-YG-71.png,0.43,1.2,19,0.5,,,,,,,,,,,,,,,,,,0,26,26,18,1,,,,,,,,,,,,,,,,,,,,,,,
,,,,,SPR24_056,19,F,2024-04-17_09h31.38.256,jersey_experiment_5_v0,2023.2.2,Win32,84.74576271,,,,,,,,,,,,,,,,756.8325,758.1265,758.1266,759.5618,return,0.1405,,48.56770833,,,,,,FBP-PT-81.png,0.35,1.2,51,0.5,,,,,,,,,,,,,,,,,,0,27,27,50,1,,,,,,,,,,,,,,,,,,,,,,,
,,,,,SPR24_056,19,F,2024-04-17_09h31.38.256,jersey_experiment_5_v0,2023.2.2,Win32,84.74576271,,,,,,,,,,,,,,,,759.562,760.856,760.856,762.3854,return,0.1607,,93.09895833,,,,,,FBP-PT-81.png,0.43,1.2,54,0.5,,,,,,,,,,,,,,,,,,0,28,28,53,1,,,,,,,,,,,,,,,,,,,,,,,
,,,,,SPR24_056,19,F,2024-04-17_09h31.38.256,jersey_experiment_5_v0,2023.2.2,Win32,84.74576271,,,,,,,,,,,,,,,,762.3855,763.4324,763.4324,764.962,return,0.3459,,60.15625,,,,,,FBP-OG-19.png,0.37,1.2,12,0.25,,,,,,,,,,,,,,,,,,0,29,29,11,1,,,,,,,,,,,,,,,,,,,,,,,
,,,,,SPR24_056,19,F,2024-04-17_09h31.38.256,jersey_experiment_5_v0,2023.2.2,Win32,84.74576271,,,,,,,,,,,,,,,,764.9622,766.009,766.0091,767.1855,return,0.2785,,60.546875,,,,,,FBP-OG-17.png,0.4,1.2,3,0.25,,,,,,,,,,,,,,,,,,0,30,30,2,1,,,,,,,,,,,,,,,,,,,,,,,
,,,,,SPR24_056,19,F,2024-04-17_09h31.38.256,jersey_experiment_5_v0,2023.2.2,Win32,84.74576271,,,,,,,,,,,,,,,,767.1857,768.4799,768.4799,769.1151,return,0.188,,60.15625,,,,,,FBP-PT-71.png,0.37,1.2,47,0.5,,,,,,,,,,,,,,,,,,0,31,31,46,1,,,,,,,,,,,,,,,,,,,,,,,
,,,,,SPR24_056,19,F,2024-04-17_09h31.38.256,jersey_experiment_5_v0,2023.2.2,Win32,84.74576271,,,,,,,,,,,,,,,,769.1154,770.4092,770.4092,771.7034,return,0.1647,,55.078125,,,,,,FBP-YG-81.png,0.37,1.2,22,0.5,,,,,,,,,,,,,,,,,,0,32,32,21,1,,,,,,,,,,,,,,,,,,,,,,,
,,,,,SPR24_056,19,F,2024-04-17_09h31.38.256,jersey_experiment_5_v0,2023.2.2,Win32,84.74576271,,,,,,,,,,,,,,,,771.7036,772.9975,772.9975,773.9387,return,0.1599,,79.42708333,,,,,,FBP-PT-71.png,0.43,1.2,49,0.5,,,,,,,,,,,,,,,,,,0,33,33,48,1,,,,,,,,,,,,,,,,,,,,,,,
,,,,,SPR24_056,19,F,2024-04-17_09h31.38.256,jersey_experiment_5_v0,2023.2.2,Win32,84.74576271,,,,,,,,,,,,,,,,773.939,774.9858,774.9858,776.1036,return,0.2351,,62.5,,,,,,FBP-RB-81.png,0.37,1.2,37,0.25,,,,,,,,,,,,,,,,,,0,34,34,36,1,,,,,,,,,,,,,,,,,,,,,,,
,,,,,SPR24_056,19,F,2024-04-17_09h31.38.256,jersey_experiment_5_v0,2023.2.2,Win32,84.74576271,,,,,,,,,,,,,,,,776.1039,777.3978,777.3978,778.0567,return,0.1558,,61.58854167,,,,,,FBP-YG-91.png,0.4,1.2,28,0.5,,,,,,,,,,,,,,,,,,0,35,35,27,1,,,,,,,,,,,,,,,,,,,,,,,
,,,,,SPR24_056,19,F,2024-04-17_09h31.38.256,jersey_experiment_5_v0,2023.2.2,Win32,84.74576271,,,,,,,,,,,,,,,,778.0568,779.1036,779.1036,780.1389,return,0.1986,,88.28125,,,,,,FBP-RB-71.png,0.45,1.2,35,0.25,,,,,,,,,,,,,,,,,,0,36,36,34,1,,,,,,,,,,,,,,,,,,,,,,,
,,,,,SPR24_056,19,F,2024-04-17_09h31.38.256,jersey_experiment_5_v0,2023.2.2,Win32,84.74576271,,,,,,,,,,,,,,,,780.1391,781.4331,781.4331,782.4802,return,0.1624,,79.03645833,,,,,,FBP-YG-71.png,0.45,1.2,20,0.5,,,,,,,,,,,,,,,,,,0,37,37,19,1,,,,,,,,,,,,,,,,,,,,,,,
,,,,,SPR24_056,19,F,2024-04-17_09h31.38.256,jersey_experiment_5_v0,2023.2.2,Win32,84.74576271,,,,,,,,,,,,,,,,782.4805,783.7743,783.7743,784.4569,return,0.1887,,79.03645833,,,,,,FBP-PT-91.png,0.43,1.2,59,0.5,,,,,,,,,,,,,,,,,,0,38,38,58,1,,,,,,,,,,,,,,,,,,,,,,,
,,,,,SPR24_056,19,F,2024-04-17_09h31.38.256,jersey_experiment_5_v0,2023.2.2,Win32,84.74576271,,,,,,,,,,,,,,,,784.4571,785.751,785.751,786.3392,return,0.1587,,79.03645833,,,,,,FBP-PT-91.png,0.45,1.2,60,0.5,,,,,,,,,,,,,,,,,,0,39,39,59,1,,,,,,,,,,,,,,,,,,,,,,,
,,,,,SPR24_056,19,F,2024-04-17_09h31.38.256,jersey_experiment_5_v0,2023.2.2,Win32,84.74576271,,,,,,,,,,,,,,,,786.3394,787.6335,787.6335,789.0924,return,0.1813,,25.91145833,,,,,,FBP-YG-81.png,0.35,1.2,21,0.5,,,,,,,,,,,,,,,,,,0,40,40,20,1,,,,,,,,,,,,,,,,,,,,,,,
,,,,,SPR24_056,19,F,2024-04-17_09h31.38.256,jersey_experiment_5_v0,2023.2.2,Win32,84.74576271,,,,,,,,,,,,,,,,789.0927,790.3863,790.3864,791.0806,return,0.1513,,29.55729167,,,,,,FBP-PT-81.png,0.37,1.2,52,0.5,,,,,,,,,,,,,,,,,,0,41,41,51,1,,,,,,,,,,,,,,,,,,,,,,,
,,,,,SPR24_056,19,F,2024-04-17_09h31.38.256,jersey_experiment_5_v0,2023.2.2,Win32,84.74576271,,,,,,,,,,,,,,,,791.0807,792.1278,792.1278,793.3982,return,0.1651,,79.296875,,,,,,FBP-OG-19.png,0.43,1.2,14,0.25,,,,,,,,,,,,,,,,,,0,42,42,13,1,,,,,,,,,,,,,,,,,,,,,,,
,,,,,SPR24_056,19,F,2024-04-17_09h31.38.256,jersey_experiment_5_v0,2023.2.2,Win32,84.74576271,,,,,,,,,,,,,,,,793.3984,794.6924,794.6924,796.0336,return,0.1606,,67.31770833,,,,,,FBP-PT-91.png,0.4,1.2,58,0.5,,,,,,,,,,,,,,,,,,0,43,43,57,1,,,,,,,,,,,,,,,,,,,,,,,
,,,,,SPR24_056,19,F,2024-04-17_09h31.38.256,jersey_experiment_5_v0,2023.2.2,Win32,84.74576271,,,,,,,,,,,,,,,,796.0339,797.3281,797.3281,798.2927,return,0.1204,,25.390625,,,,,,FBP-YG-71.png,0.35,1.2,16,0.5,,,,,,,,,,,,,,,,,,0,44,44,15,1,,,,,,,,,,,,,,,,,,,,,,,
,,,,,SPR24_056,19,F,2024-04-17_09h31.38.256,jersey_experiment_5_v0,2023.2.2,Win32,84.74576271,,,,,,,,,,,,,,,,798.2929,799.3396,799.3396,800.7868,return,0.2771,,99.73958333,,,,,,FBP-OG-17.png,0.45,1.2,5,0.25,,,,,,,,,,,,,,,,,,0,45,45,4,1,,,,,,,,,,,,,,,,,,,,,,,
,,,,,SPR24_056,19,F,2024-04-17_09h31.38.256,jersey_experiment_5_v0,2023.2.2,Win32,84.74576271,,,,,,,,,,,,,,,,800.787,802.0809,802.081,803.4926,return,0.1669,,22.65625,,,,,,FBP-PT-91.png,0.37,1.2,57,0.5,,,,,,,,,,,,,,,,,,0,46,46,56,1,,,,,,,,,,,,,,,,,,,,,,,
,,,,,SPR24_056,19,F,2024-04-17_09h31.38.256,jersey_experiment_5_v0,2023.2.2,Win32,84.74576271,,,,,,,,,,,,,,,,803.4928,804.54,804.54,805.8341,return,0.1883,,75.65104167,,,,,,FBP-RB-71.png,0.43,1.2,34,0.25,,,,,,,,,,,,,,,,,,0,47,47,33,1,,,,,,,,,,,,,,,,,,,,,,,
,,,,,SPR24_056,19,F,2024-04-17_09h31.38.256,jersey_experiment_5_v0,2023.2.2,Win32,84.74576271,,,,,,,,,,,,,,,,805.8343,806.8812,806.8812,807.9635,return,0.1173,,24.34895833,,,,,,FBP-OG-17.png,0.37,1.2,2,0.25,,,,,,,,,,,,,,,,,,0,48,48,1,1,,,,,,,,,,,,,,,,,,,,,,,
,,,,,SPR24_056,19,F,2024-04-17_09h31.38.256,jersey_experiment_5_v0,2023.2.2,Win32,84.74576271,,,,,,,,,,,,,,,,807.9637,809.0105,809.0105,810.9051,return,0.9322,,37.890625,,,,,,FBP-RB-71.png,0.37,1.2,32,0.25,,,,,,,,,,,,,,,,,,0,49,49,31,1,,,,,,,,,,,,,,,,,,,,,,,
,,,,,SPR24_056,19,F,2024-04-17_09h31.38.256,jersey_experiment_5_v0,2023.2.2,Win32,84.74576271,,,,,,,,,,,,,,,,810.9053,812.1991,812.1992,813.2227,return,0.1669,,88.80208333,,,,,,FBP-PT-71.png,0.45,1.2,50,0.5,,,,,,,,,,,,,,,,,,0,50,50,49,1,,,,,,,,,,,,,,,,,,,,,,,
,,,,,SPR24_056,19,F,2024-04-17_09h31.38.256,jersey_experiment_5_v0,2023.2.2,Win32,84.74576271,,,,,,,,,,,,,,,,813.2229,814.5167,814.5168,815.5639,return,0.2256,,74.21875,,,,,,FBP-PT-81.png,0.4,1.2,53,0.5,,,,,,,,,,,,,,,,,,0,51,51,52,1,,,,,,,,,,,,,,,,,,,,,,,
,,,,,SPR24_056,19,F,2024-04-17_09h31.38.256,jersey_experiment_5_v0,2023.2.2,Win32,84.74576271,,,,,,,,,,,,,,,,815.5642,816.6109,816.6109,817.8934,return,0.1899,,76.69270833,,,,,,FBP-RB-91.png,0.43,1.2,44,0.25,,,,,,,,,,,,,,,,,,0,52,52,43,1,,,,,,,,,,,,,,,,,,,,,,,
,,,,,SPR24_056,19,F,2024-04-17_09h31.38.256,jersey_experiment_5_v0,2023.2.2,Win32,84.74576271,,,,,,,,,,,,,,,,817.8936,819.1873,819.1874,820.1993,return,0.2024,,91.14583333,,,,,,FBP-YG-81.png,0.43,1.2,24,0.5,,,,,,,,,,,,,,,,,,0,53,53,23,1,,,,,,,,,,,,,,,,,,,,,,,
,,,,,SPR24_056,19,F,2024-04-17_09h31.38.256,jersey_experiment_5_v0,2023.2.2,Win32,84.74576271,,,,,,,,,,,,,,,,820.1995,821.4935,821.4936,822.5525,return,0.4377,,67.44791667,,,,,,FBP-YG-91.png,0.37,1.2,27,0.5,,,,,,,,,,,,,,,,,,0,54,54,26,1,,,,,,,,,,,,,,,,,,,,,,,
,,,,,SPR24_056,19,F,2024-04-17_09h31.38.256,jersey_experiment_5_v0,2023.2.2,Win32,84.74576271,,,,,,,,,,,,,,,,822.5526,823.5994,823.5995,824.5995,return,0.1889,,75.52083333,,,,,,FBP-OG-17.png,0.43,1.2,4,0.25,,,,,,,,,,,,,,,,,,0,55,55,3,1,,,,,,,,,,,,,,,,,,,,,,,
,,,,,SPR24_056,19,F,2024-04-17_09h31.38.256,jersey_experiment_5_v0,2023.2.2,Win32,84.74576271,,,,,,,,,,,,,,,,824.5998,825.6465,825.6465,827.0937,return,0.1097,,76.04166667,,,,,,FBP-OG-18.png,0.4,1.2,8,0.25,,,,,,,,,,,,,,,,,,0,56,56,7,1,,,,,,,,,,,,,,,,,,,,,,,
,,,,,SPR24_056,19,F,2024-04-17_09h31.38.256,jersey_experiment_5_v0,2023.2.2,Win32,84.74576271,,,,,,,,,,,,,,,,827.0939,828.3878,828.3879,829.1408,return,0.1438,,91.27604167,,,,,,FBP-YG-81.png,0.45,1.2,25,0.5,,,,,,,,,,,,,,,,,,0,57,57,24,1,,,,,,,,,,,,,,,,,,,,,,,
,,,,,SPR24_056,19,F,2024-04-17_09h31.38.256,jersey_experiment_5_v0,2023.2.2,Win32,84.74576271,,,,,,,,,,,,,,,,829.1411,830.1878,830.1878,831.3527,return,0.1554,,72.39583333,,,,,,FBP-RB-81.png,0.4,1.2,38,0.25,,,,,,,,,,,,,,,,,,0,58,58,37,1,,,,,,,,,,,,,,,,,,,,,,,
,,,,,SPR24_056,19,F,2024-04-17_09h31.38.256,jersey_experiment_5_v0,2023.2.2,Win32,84.74576271,,,,,,,,,,,,,,,,831.3529,832.6471,832.6471,833.7292,return,0.1851,,47.265625,,,,,,FBP-YG-71.png,0.37,1.2,17,0.5,,,,,,,,,,,,,,,,,,0,59,59,16,1,,,,,,,,,,,,,,,,,,,,,,,
,,,,,SPR24_056,19,F,2024-04-17_09h31.38.256,jersey_experiment_5_v0,2023.2.2,Win32,84.74576271,,,,,,,,,,,,,,,,,,,,,,,,,,,,,,,,,,,,,,,,,,,,,,,,,,,,,,,,833.7296,837.8824,return,4.1398,,,,,,,,,,,,,,,,,,,
,,,,,SPR24_056,19,F,2024-04-17_09h31.38.256,jersey_experiment_5_v0,2023.2.2,Win32,84.74576271,,,,,,,,,,,,,,,,,,,,,,,,,,,,,,,,,,,,,,,,,,,,,,,,,,,,,,,,,,,,,837.8825,842.9298,1,3.729,return,1.2992,,,,,,,,,,,,
,,,,,SPR24_056,19,F,2024-04-17_09h31.38.256,jersey_experiment_5_v0,2023.2.2,Win32,84.74576271,,,,,,,,,,,,,,,,,,,,,,,,,,,,,,,,,,,,,,,,,,,,,,,,,,,,,,,,,,,,,,,,,,,,842.9299,858.2173,I have no idea,right,7.5667,,,,,,
,,,,,SPR24_056,19,F,2024-04-17_09h31.38.256,jersey_experiment_5_v0,2023.2.2,Win32,84.74576271,,,,,,,,,,,,,,,,,,,,,,,,,,,,,,,,,,,,,,,,,,,,,,,,,,,,,,,,,,,,,,,,,,,,,,,,,,858.2174,863.1422,return,4.9147,