requirements.started,requirements.stopped,key_resp_3.keys,key_resp_3.rt,key_resp_3.duration,Subject ID,Age,Gender,date,expName,psychopyVersion,OS,frameRate,instructions1.started,instructions1.stopped,key_resp.keys,key_resp.rt,key_resp.duration,example.started,example.stopped,enter_2.keys,enter_2.rt,enter_2.duration,instructions2.started,instructions2.stopped,enter_3.keys,enter_3.rt,enter_3.duration,image.started,image.stopped,slider_2.started,slider_2.stopped,next.keys,next.rt,next.duration,slider.response,trial_block_1.thisRepN,trial_block_1.thisTrialN,trial_block_1.thisN,trial_block_1.thisIndex,trial_block_1.ran,Path,Width,Height,Index,Duration,trial_block_2.thisRepN,trial_block_2.thisTrialN,trial_block_2.thisN,trial_block_2.thisIndex,trial_block_2.ran,rest_break.started,rest_break.stopped,end_break.started,end_break.stopped,key_resp_5.keys,key_resp_5.rt,key_resp_5.duration,trial_block_3.thisRepN,trial_block_3.thisTrialN,trial_block_3.thisN,trial_block_3.thisIndex,trial_block_3.ran,trial_block_4.thisRepN,trial_block_4.thisTrialN,trial_block_4.thisN,trial_block_4.thisIndex,trial_block_4.ran,questions_intro.started,questions_intro.stopped,enter_12.keys,enter_12.rt,enter_12.duration,question2.started,question2.stopped,question_doingbest.response,question_doingbest.rt,enter_15.keys,enter_15.rt,enter_15.duration,pattern.started,pattern.stopped,pattern_2.text,enter_17.keys,enter_17.rt,enter_17.duration,thankyou.started,thankyou.stopped,enter_14.keys,enter_14.rt,enter_14.duration
0.0002,5.4745,return,5.4689,,SPR24_026,21,female,2024-04-10_10h03.47.087,jersey_experiment_5_v0,2023.2.2,Win32,84.74576271,,,,,,,,,,,,,,,,,,,,,,,,,,,,,,,,,,,,,,,,,,,,,,,,,,,,,,,,,,,,,,,,,,,,,,,,,,,,,,
,,,,,SPR24_026,21,female,2024-04-10_10h03.47.087,jersey_experiment_5_v0,2023.2.2,Win32,84.74576271,5.4746,13.1208,return,7.6282,,,,,,,,,,,,,,,,,,,,,,,,,,,,,,,,,,,,,,,,,,,,,,,,,,,,,,,,,,,,,,,,,,,,,,,,,,
,,,,,SPR24_026,21,female,2024-04-10_10h03.47.087,jersey_experiment_5_v0,2023.2.2,Win32,84.74576271,,,,,,13.1208,17.0738,return,3.915,,,,,,,,,,,,,,,,,,,,,,,,,,,,,,,,,,,,,,,,,,,,,,,,,,,,,,,,,,,,,,,,,,,,,
,,,,,SPR24_026,21,female,2024-04-10_10h03.47.087,jersey_experiment_5_v0,2023.2.2,Win32,84.74576271,,,,,,,,,,,17.0739,33.0862,return,15.9957,,,,,,,,,,,,,,,,,,,,,,,,,,,,,,,,,,,,,,,,,,,,,,,,,,,,,,,,,,,,,,,,
,,,,,SPR24_026,21,female,2024-04-10_10h03.47.087,jersey_experiment_5_v0,2023.2.2,Win32,84.74576271,,,,,,,,,,,,,,,,33.0933,34.1489,34.149,40.3569,return,3.7051,,89.58333333,0,0,0,49,1,FBP-PT-17.png,0.45,1.2,50,0.25,,,,,,,,,,,,,,,,,,,,,,,,,,,,,,,,,,,,,,,,,,,,,
,,,,,SPR24_026,21,female,2024-04-10_10h03.47.087,jersey_experiment_5_v0,2023.2.2,Win32,84.74576271,,,,,,,,,,,,,,,,40.3573,41.404,41.404,46.416,return,0.9217,,73.95833333,0,1,1,22,1,FBP-YG-18.png,0.4,1.2,23,0.25,,,,,,,,,,,,,,,,,,,,,,,,,,,,,,,,,,,,,,,,,,,,,
,,,,,SPR24_026,21,female,2024-04-10_10h03.47.087,jersey_experiment_5_v0,2023.2.2,Win32,84.74576271,,,,,,,,,,,,,,,,46.4162,47.71,47.7101,52.1338,return,1.2853,,44.79166667,0,2,2,41,1,FBP-RB-19.png,0.37,1.2,42,0.5,,,,,,,,,,,,,,,,,,,,,,,,,,,,,,,,,,,,,,,,,,,,,
,,,,,SPR24_026,21,female,2024-04-10_10h03.47.087,jersey_experiment_5_v0,2023.2.2,Win32,84.74576271,,,,,,,,,,,,,,,,52.134,53.1809,53.1809,57.1693,return,1.0761,,44.40104167,0,3,3,16,1,FBP-YG-17.png,0.37,1.2,17,0.25,,,,,,,,,,,,,,,,,,,,,,,,,,,,,,,,,,,,,,,,,,,,,
,,,,,SPR24_026,21,female,2024-04-10_10h03.47.087,jersey_experiment_5_v0,2023.2.2,Win32,84.74576271,,,,,,,,,,,,,,,,57.1695,58.4635,58.4635,60.8635,return,0.6869,,98.046875,0,4,4,44,1,FBP-RB-19.png,0.45,1.2,45,0.5,,,,,,,,,,,,,,,,,,,,,,,,,,,,,,,,,,,,,,,,,,,,,
,,,,,SPR24_026,21,female,2024-04-10_10h03.47.087,jersey_experiment_5_v0,2023.2.2,Win32,84.74576271,,,,,,,,,,,,,,,,60.8636,62.1578,62.1578,64.3697,return,0.6523,,89.84375,0,5,5,8,1,FBP-OG-81.png,0.43,1.2,9,0.5,,,,,,,,,,,,,,,,,,,,,,,,,,,,,,,,,,,,,,,,,,,,,
,,,,,SPR24_026,21,female,2024-04-10_10h03.47.087,jersey_experiment_5_v0,2023.2.2,Win32,84.74576271,,,,,,,,,,,,,,,,64.3699,65.4165,65.4166,69.7933,return,0.7914,,42.96875,0,6,6,57,1,FBP-PT-19.png,0.4,1.2,58,0.25,,,,,,,,,,,,,,,,,,,,,,,,,,,,,,,,,,,,,,,,,,,,,
,,,,,SPR24_026,21,female,2024-04-10_10h03.47.087,jersey_experiment_5_v0,2023.2.2,Win32,84.74576271,,,,,,,,,,,,,,,,69.7935,70.8404,70.8404,73.617,return,1.1471,,19.53125,0,7,7,46,1,FBP-PT-17.png,0.37,1.2,47,0.25,,,,,,,,,,,,,,,,,,,,,,,,,,,,,,,,,,,,,,,,,,,,,
,,,,,SPR24_026,21,female,2024-04-10_10h03.47.087,jersey_experiment_5_v0,2023.2.2,Win32,84.74576271,,,,,,,,,,,,,,,,73.6173,74.9112,74.9112,77.0643,return,0.6685,,24.609375,0,8,8,36,1,FBP-RB-18.png,0.37,1.2,37,0.5,,,,,,,,,,,,,,,,,,,,,,,,,,,,,,,,,,,,,,,,,,,,,
,,,,,SPR24_026,21,female,2024-04-10_10h03.47.087,jersey_experiment_5_v0,2023.2.2,Win32,84.74576271,,,,,,,,,,,,,,,,77.0645,78.3583,78.3583,81.2879,return,2.259,,73.95833333,0,9,9,3,1,FBP-OG-71.png,0.43,1.2,4,0.5,,,,,,,,,,,,,,,,,,,,,,,,,,,,,,,,,,,,,,,,,,,,,
,,,,,SPR24_026,21,female,2024-04-10_10h03.47.087,jersey_experiment_5_v0,2023.2.2,Win32,84.74576271,,,,,,,,,,,,,,,,81.2882,82.5821,82.5821,85.1115,return,0.5275,,80.46875,0,10,10,43,1,FBP-RB-19.png,0.43,1.2,44,0.5,,,,,,,,,,,,,,,,,,,,,,,,,,,,,,,,,,,,,,,,,,,,,
,,,,,SPR24_026,21,female,2024-04-10_10h03.47.087,jersey_experiment_5_v0,2023.2.2,Win32,84.74576271,,,,,,,,,,,,,,,,85.1117,86.4055,86.4055,89.0645,return,0.6683,,84.89583333,0,11,11,38,1,FBP-RB-18.png,0.43,1.2,39,0.5,,,,,,,,,,,,,,,,,,,,,,,,,,,,,,,,,,,,,,,,,,,,,
,,,,,SPR24_026,21,female,2024-04-10_10h03.47.087,jersey_experiment_5_v0,2023.2.2,Win32,84.74576271,,,,,,,,,,,,,,,,89.0647,90.3587,90.3587,93.2648,return,0.5926,,25.26041667,0,12,12,35,1,FBP-RB-18.png,0.35,1.2,36,0.5,,,,,,,,,,,,,,,,,,,,,,,,,,,,,,,,,,,,,,,,,,,,,
,,,,,SPR24_026,21,female,2024-04-10_10h03.47.087,jersey_experiment_5_v0,2023.2.2,Win32,84.74576271,,,,,,,,,,,,,,,,93.2651,94.3118,94.3118,98.465,return,2.0506,,74.73958333,0,13,13,48,1,FBP-PT-17.png,0.43,1.2,49,0.25,,,,,,,,,,,,,,,,,,,,,,,,,,,,,,,,,,,,,,,,,,,,,
,,,,,SPR24_026,21,female,2024-04-10_10h03.47.087,jersey_experiment_5_v0,2023.2.2,Win32,84.74576271,,,,,,,,,,,,,,,,98.4653,99.512,99.5121,103.3005,return,1.7438,,78.64583333,0,14,14,19,1,FBP-YG-17.png,0.45,1.2,20,0.25,,,,,,,,,,,,,,,,,,,,,,,,,,,,,,,,,,,,,,,,,,,,,
,,,,,SPR24_026,21,female,2024-04-10_10h03.47.087,jersey_experiment_5_v0,2023.2.2,Win32,84.74576271,,,,,,,,,,,,,,,,103.3007,104.3475,104.3476,107.4419,return,1.1439,,82.03125,0,15,15,24,1,FBP-YG-18.png,0.45,1.2,25,0.25,,,,,,,,,,,,,,,,,,,,,,,,,,,,,,,,,,,,,,,,,,,,,
,,,,,SPR24_026,21,female,2024-04-10_10h03.47.087,jersey_experiment_5_v0,2023.2.2,Win32,84.74576271,,,,,,,,,,,,,,,,107.4421,108.7358,108.7358,111.3949,return,0.6719,,25.91145833,0,16,16,42,1,FBP-RB-19.png,0.4,1.2,43,0.5,,,,,,,,,,,,,,,,,,,,,,,,,,,,,,,,,,,,,,,,,,,,,
,,,,,SPR24_026,21,female,2024-04-10_10h03.47.087,jersey_experiment_5_v0,2023.2.2,Win32,84.74576271,,,,,,,,,,,,,,,,111.3952,112.689,112.6891,116.148,return,1.697,,11.06770833,0,17,17,30,1,FBP-RB-17.png,0.35,1.2,31,0.5,,,,,,,,,,,,,,,,,,,,,,,,,,,,,,,,,,,,,,,,,,,,,
,,,,,SPR24_026,21,female,2024-04-10_10h03.47.087,jersey_experiment_5_v0,2023.2.2,Win32,84.74576271,,,,,,,,,,,,,,,,116.1482,117.1953,117.1954,121.2306,return,0.6673,,4.817708333,0,18,18,45,1,FBP-PT-17.png,0.35,1.2,46,0.25,,,,,,,,,,,,,,,,,,,,,,,,,,,,,,,,,,,,,,,,,,,,,
,,,,,SPR24_026,21,female,2024-04-10_10h03.47.087,jersey_experiment_5_v0,2023.2.2,Win32,84.74576271,,,,,,,,,,,,,,,,121.2307,122.2775,122.2776,125.9602,return,1.8693,,23.56770833,0,19,19,26,1,FBP-YG-19.png,0.37,1.2,27,0.25,,,,,,,,,,,,,,,,,,,,,,,,,,,,,,,,,,,,,,,,,,,,,
,,,,,SPR24_026,21,female,2024-04-10_10h03.47.087,jersey_experiment_5_v0,2023.2.2,Win32,84.74576271,,,,,,,,,,,,,,,,125.9604,127.0073,127.0073,131.7956,return,0.5533,,89.84375,0,20,20,59,1,FBP-PT-19.png,0.45,1.2,60,0.25,,,,,,,,,,,,,,,,,,,,,,,,,,,,,,,,,,,,,,,,,,,,,
,,,,,SPR24_026,21,female,2024-04-10_10h03.47.087,jersey_experiment_5_v0,2023.2.2,Win32,84.74576271,,,,,,,,,,,,,,,,131.7958,133.0897,133.0897,138.5607,return,1.8401,,26.5625,0,21,21,1,1,FBP-OG-71.png,0.37,1.2,2,0.5,,,,,,,,,,,,,,,,,,,,,,,,,,,,,,,,,,,,,,,,,,,,,
,,,,,SPR24_026,21,female,2024-04-10_10h03.47.087,jersey_experiment_5_v0,2023.2.2,Win32,84.74576271,,,,,,,,,,,,,,,,138.561,139.6077,139.6077,147.2787,return,3.5003,,25.52083333,0,22,22,27,1,FBP-YG-19.png,0.4,1.2,28,0.25,,,,,,,,,,,,,,,,,,,,,,,,,,,,,,,,,,,,,,,,,,,,,
,,,,,SPR24_026,21,female,2024-04-10_10h03.47.087,jersey_experiment_5_v0,2023.2.2,Win32,84.74576271,,,,,,,,,,,,,,,,147.2829,148.5846,148.5846,151.573,return,1.3328,,75,0,23,23,34,1,FBP-RB-17.png,0.45,1.2,35,0.5,,,,,,,,,,,,,,,,,,,,,,,,,,,,,,,,,,,,,,,,,,,,,
,,,,,SPR24_026,21,female,2024-04-10_10h03.47.087,jersey_experiment_5_v0,2023.2.2,Win32,84.74576271,,,,,,,,,,,,,,,,151.5732,152.62,152.62,155.079,return,0.5556,,25.91145833,0,24,24,56,1,FBP-PT-19.png,0.37,1.2,57,0.25,,,,,,,,,,,,,,,,,,,,,,,,,,,,,,,,,,,,,,,,,,,,,
,,,,,SPR24_026,21,female,2024-04-10_10h03.47.087,jersey_experiment_5_v0,2023.2.2,Win32,84.74576271,,,,,,,,,,,,,,,,155.0791,156.3731,156.3731,158.2555,return,0.5459,,12.23958333,0,25,25,0,1,FBP-OG-71.png,0.35,1.2,1,0.5,,,,,,,,,,,,,,,,,,,,,,,,,,,,,,,,,,,,,,,,,,,,,
,,,,,SPR24_026,21,female,2024-04-10_10h03.47.087,jersey_experiment_5_v0,2023.2.2,Win32,84.74576271,,,,,,,,,,,,,,,,158.2558,159.5496,159.5497,162.0203,return,0.9083,,10.41666667,0,26,26,40,1,FBP-RB-19.png,0.35,1.2,41,0.5,,,,,,,,,,,,,,,,,,,,,,,,,,,,,,,,,,,,,,,,,,,,,
,,,,,SPR24_026,21,female,2024-04-10_10h03.47.087,jersey_experiment_5_v0,2023.2.2,Win32,84.74576271,,,,,,,,,,,,,,,,162.0205,163.0675,163.0675,168.5617,return,2.8739,,75,0,27,27,58,1,FBP-PT-19.png,0.43,1.2,59,0.25,,,,,,,,,,,,,,,,,,,,,,,,,,,,,,,,,,,,,,,,,,,,,
,,,,,SPR24_026,21,female,2024-04-10_10h03.47.087,jersey_experiment_5_v0,2023.2.2,Win32,84.74576271,,,,,,,,,,,,,,,,168.562,169.8559,169.8559,173.9033,return,1.6902,,98.046875,0,28,28,39,1,FBP-RB-18.png,0.45,1.2,40,0.5,,,,,,,,,,,,,,,,,,,,,,,,,,,,,,,,,,,,,,,,,,,,,
,,,,,SPR24_026,21,female,2024-04-10_10h03.47.087,jersey_experiment_5_v0,2023.2.2,Win32,84.74576271,,,,,,,,,,,,,,,,173.9035,175.1974,175.1975,178.3738,return,1.0827,,29.81770833,0,29,29,37,1,FBP-RB-18.png,0.4,1.2,38,0.5,,,,,,,,,,,,,,,,,,,,,,,,,,,,,,,,,,,,,,,,,,,,,
,,,,,SPR24_026,21,female,2024-04-10_10h03.47.087,jersey_experiment_5_v0,2023.2.2,Win32,84.74576271,,,,,,,,,,,,,,,,178.374,179.6681,179.6681,182.9035,return,0.9176,,75.65104167,0,30,30,2,1,FBP-OG-71.png,0.4,1.2,3,0.5,,,,,,,,,,,,,,,,,,,,,,,,,,,,,,,,,,,,,,,,,,,,,
,,,,,SPR24_026,21,female,2024-04-10_10h03.47.087,jersey_experiment_5_v0,2023.2.2,Win32,84.74576271,,,,,,,,,,,,,,,,182.9036,184.1978,184.1979,187.3626,return,0.6988,,99.21875,0,31,31,9,1,FBP-OG-81.png,0.45,1.2,10,0.5,,,,,,,,,,,,,,,,,,,,,,,,,,,,,,,,,,,,,,,,,,,,,
,,,,,SPR24_026,21,female,2024-04-10_10h03.47.087,jersey_experiment_5_v0,2023.2.2,Win32,84.74576271,,,,,,,,,,,,,,,,187.3628,188.6567,188.6567,191.445,return,1.0609,,74.34895833,0,32,32,7,1,FBP-OG-81.png,0.4,1.2,8,0.5,,,,,,,,,,,,,,,,,,,,,,,,,,,,,,,,,,,,,,,,,,,,,
,,,,,SPR24_026,21,female,2024-04-10_10h03.47.087,jersey_experiment_5_v0,2023.2.2,Win32,84.74576271,,,,,,,,,,,,,,,,191.4452,192.4922,192.4923,195.0452,return,0.7787,,24.21875,0,33,33,51,1,FBP-PT-18.png,0.37,1.2,52,0.25,,,,,,,,,,,,,,,,,,,,,,,,,,,,,,,,,,,,,,,,,,,,,
,,,,,SPR24_026,21,female,2024-04-10_10h03.47.087,jersey_experiment_5_v0,2023.2.2,Win32,84.74576271,,,,,,,,,,,,,,,,195.0453,196.3393,196.3394,198.0217,return,0.6264,,24.21875,0,34,34,11,1,FBP-OG-91.png,0.37,1.2,12,0.5,,,,,,,,,,,,,,,,,,,,,,,,,,,,,,,,,,,,,,,,,,,,,
,,,,,SPR24_026,21,female,2024-04-10_10h03.47.087,jersey_experiment_5_v0,2023.2.2,Win32,84.74576271,,,,,,,,,,,,,,,,198.0219,199.316,199.316,202.0221,return,0.4852,,24.73958333,0,35,35,31,1,FBP-RB-17.png,0.37,1.2,32,0.5,,,,,,,,,,,,,,,,,,,,,,,,,,,,,,,,,,,,,,,,,,,,,
,,,,,SPR24_026,21,female,2024-04-10_10h03.47.087,jersey_experiment_5_v0,2023.2.2,Win32,84.74576271,,,,,,,,,,,,,,,,202.0223,203.3161,203.3162,205.6572,return,1.1381,,25,0,36,36,10,1,FBP-OG-91.png,0.35,1.2,11,0.5,,,,,,,,,,,,,,,,,,,,,,,,,,,,,,,,,,,,,,,,,,,,,
,,,,,SPR24_026,21,female,2024-04-10_10h03.47.087,jersey_experiment_5_v0,2023.2.2,Win32,84.74576271,,,,,,,,,,,,,,,,205.6575,206.9515,206.9515,211.2224,return,2.0146,,30.859375,0,37,37,6,1,FBP-OG-81.png,0.37,1.2,7,0.5,,,,,,,,,,,,,,,,,,,,,,,,,,,,,,,,,,,,,,,,,,,,,
,,,,,SPR24_026,21,female,2024-04-10_10h03.47.087,jersey_experiment_5_v0,2023.2.2,Win32,84.74576271,,,,,,,,,,,,,,,,211.2227,212.5164,212.5164,214.34,return,0.6242,,81.51041667,0,38,38,14,1,FBP-OG-91.png,0.45,1.2,15,0.5,,,,,,,,,,,,,,,,,,,,,,,,,,,,,,,,,,,,,,,,,,,,,
,,,,,SPR24_026,21,female,2024-04-10_10h03.47.087,jersey_experiment_5_v0,2023.2.2,Win32,84.74576271,,,,,,,,,,,,,,,,214.3402,215.3872,215.3872,219.8109,return,2.0722,,86.84895833,0,39,39,29,1,FBP-YG-19.png,0.45,1.2,30,0.25,,,,,,,,,,,,,,,,,,,,,,,,,,,,,,,,,,,,,,,,,,,,,
,,,,,SPR24_026,21,female,2024-04-10_10h03.47.087,jersey_experiment_5_v0,2023.2.2,Win32,84.74576271,,,,,,,,,,,,,,,,219.8111,220.8577,220.8578,223.1522,return,0.593,,5.729166667,0,40,40,15,1,FBP-YG-17.png,0.35,1.2,16,0.25,,,,,,,,,,,,,,,,,,,,,,,,,,,,,,,,,,,,,,,,,,,,,
,,,,,SPR24_026,21,female,2024-04-10_10h03.47.087,jersey_experiment_5_v0,2023.2.2,Win32,84.74576271,,,,,,,,,,,,,,,,223.1525,224.1991,224.1993,227.1876,return,0.954,,75.52083333,0,41,41,23,1,FBP-YG-18.png,0.43,1.2,24,0.25,,,,,,,,,,,,,,,,,,,,,,,,,,,,,,,,,,,,,,,,,,,,,
,,,,,SPR24_026,21,female,2024-04-10_10h03.47.087,jersey_experiment_5_v0,2023.2.2,Win32,84.74576271,,,,,,,,,,,,,,,,227.1878,228.4817,228.4817,231.5878,return,1.3302,,26.171875,0,42,42,5,1,FBP-OG-81.png,0.35,1.2,6,0.5,,,,,,,,,,,,,,,,,,,,,,,,,,,,,,,,,,,,,,,,,,,,,
,,,,,SPR24_026,21,female,2024-04-10_10h03.47.087,jersey_experiment_5_v0,2023.2.2,Win32,84.74576271,,,,,,,,,,,,,,,,231.5881,232.6348,232.6349,235.2468,return,0.9942,,26.171875,0,43,43,50,1,FBP-PT-18.png,0.35,1.2,51,0.25,,,,,,,,,,,,,,,,,,,,,,,,,,,,,,,,,,,,,,,,,,,,,
,,,,,SPR24_026,21,female,2024-04-10_10h03.47.087,jersey_experiment_5_v0,2023.2.2,Win32,84.74576271,,,,,,,,,,,,,,,,235.247,236.2938,236.2938,238.3879,return,0.5537,,74.47916667,0,44,44,47,1,FBP-PT-17.png,0.4,1.2,48,0.25,,,,,,,,,,,,,,,,,,,,,,,,,,,,,,,,,,,,,,,,,,,,,
,,,,,SPR24_026,21,female,2024-04-10_10h03.47.087,jersey_experiment_5_v0,2023.2.2,Win32,84.74576271,,,,,,,,,,,,,,,,238.3882,239.6821,239.6821,242.7059,return,1.4145,,86.06770833,0,45,45,33,1,FBP-RB-17.png,0.43,1.2,34,0.5,,,,,,,,,,,,,,,,,,,,,,,,,,,,,,,,,,,,,,,,,,,,,
,,,,,SPR24_026,21,female,2024-04-10_10h03.47.087,jersey_experiment_5_v0,2023.2.2,Win32,84.74576271,,,,,,,,,,,,,,,,242.7061,243.753,243.753,246.4472,return,0.4997,,19.40104167,0,46,46,25,1,FBP-YG-19.png,0.35,1.2,26,0.25,,,,,,,,,,,,,,,,,,,,,,,,,,,,,,,,,,,,,,,,,,,,,
,,,,,SPR24_026,21,female,2024-04-10_10h03.47.087,jersey_experiment_5_v0,2023.2.2,Win32,84.74576271,,,,,,,,,,,,,,,,246.4474,247.7413,247.7414,249.9532,return,0.5824,,74.08854167,0,47,47,32,1,FBP-RB-17.png,0.4,1.2,33,0.5,,,,,,,,,,,,,,,,,,,,,,,,,,,,,,,,,,,,,,,,,,,,,
,,,,,SPR24_026,21,female,2024-04-10_10h03.47.087,jersey_experiment_5_v0,2023.2.2,Win32,84.74576271,,,,,,,,,,,,,,,,249.9534,251.0002,251.0002,253.3297,return,0.6735,,98.828125,0,48,48,53,1,FBP-PT-18.png,0.43,1.2,54,0.25,,,,,,,,,,,,,,,,,,,,,,,,,,,,,,,,,,,,,,,,,,,,,
,,,,,SPR24_026,21,female,2024-04-10_10h03.47.087,jersey_experiment_5_v0,2023.2.2,Win32,84.74576271,,,,,,,,,,,,,,,,253.3299,254.624,254.6241,256.4005,return,0.5127,,75,0,49,49,12,1,FBP-OG-91.png,0.4,1.2,13,0.5,,,,,,,,,,,,,,,,,,,,,,,,,,,,,,,,,,,,,,,,,,,,,
,,,,,SPR24_026,21,female,2024-04-10_10h03.47.087,jersey_experiment_5_v0,2023.2.2,Win32,84.74576271,,,,,,,,,,,,,,,,256.4007,257.4475,257.4476,259.6712,return,0.5179,,25.78125,0,50,50,21,1,FBP-YG-18.png,0.37,1.2,22,0.25,,,,,,,,,,,,,,,,,,,,,,,,,,,,,,,,,,,,,,,,,,,,,
,,,,,SPR24_026,21,female,2024-04-10_10h03.47.087,jersey_experiment_5_v0,2023.2.2,Win32,84.74576271,,,,,,,,,,,,,,,,259.6714,260.7183,260.7183,262.9419,return,0.6195,,75.390625,0,51,51,52,1,FBP-PT-18.png,0.4,1.2,53,0.25,,,,,,,,,,,,,,,,,,,,,,,,,,,,,,,,,,,,,,,,,,,,,
,,,,,SPR24_026,21,female,2024-04-10_10h03.47.087,jersey_experiment_5_v0,2023.2.2,Win32,84.74576271,,,,,,,,,,,,,,,,262.9421,264.2361,264.2362,266.4831,return,0.5919,,97.78645833,0,52,52,13,1,FBP-OG-91.png,0.43,1.2,14,0.5,,,,,,,,,,,,,,,,,,,,,,,,,,,,,,,,,,,,,,,,,,,,,
,,,,,SPR24_026,21,female,2024-04-10_10h03.47.087,jersey_experiment_5_v0,2023.2.2,Win32,84.74576271,,,,,,,,,,,,,,,,266.4832,267.7773,267.7774,269.0009,return,0.5741,,95.703125,0,53,53,4,1,FBP-OG-71.png,0.45,1.2,5,0.5,,,,,,,,,,,,,,,,,,,,,,,,,,,,,,,,,,,,,,,,,,,,,
,,,,,SPR24_026,21,female,2024-04-10_10h03.47.087,jersey_experiment_5_v0,2023.2.2,Win32,84.74576271,,,,,,,,,,,,,,,,269.0011,270.0481,270.0481,274.0364,return,0.6146,,49.47916667,0,54,54,55,1,FBP-PT-19.png,0.35,1.2,56,0.25,,,,,,,,,,,,,,,,,,,,,,,,,,,,,,,,,,,,,,,,,,,,,
,,,,,SPR24_026,21,female,2024-04-10_10h03.47.087,jersey_experiment_5_v0,2023.2.2,Win32,84.74576271,,,,,,,,,,,,,,,,274.0367,275.0836,275.0836,277.2718,return,0.5414,,93.09895833,0,55,55,18,1,FBP-YG-17.png,0.43,1.2,19,0.25,,,,,,,,,,,,,,,,,,,,,,,,,,,,,,,,,,,,,,,,,,,,,
,,,,,SPR24_026,21,female,2024-04-10_10h03.47.087,jersey_experiment_5_v0,2023.2.2,Win32,84.74576271,,,,,,,,,,,,,,,,277.2721,278.3189,278.319,280.472,return,0.5647,,75.52083333,0,56,56,17,1,FBP-YG-17.png,0.4,1.2,18,0.25,,,,,,,,,,,,,,,,,,,,,,,,,,,,,,,,,,,,,,,,,,,,,
,,,,,SPR24_026,21,female,2024-04-10_10h03.47.087,jersey_experiment_5_v0,2023.2.2,Win32,84.74576271,,,,,,,,,,,,,,,,280.4723,281.5191,281.5191,283.6723,return,0.5419,,97.91666667,0,57,57,54,1,FBP-PT-18.png,0.45,1.2,55,0.25,,,,,,,,,,,,,,,,,,,,,,,,,,,,,,,,,,,,,,,,,,,,,
,,,,,SPR24_026,21,female,2024-04-10_10h03.47.087,jersey_experiment_5_v0,2023.2.2,Win32,84.74576271,,,,,,,,,,,,,,,,283.6725,284.7192,284.7192,288.4018,return,1.603,,73.17708333,0,58,58,20,1,FBP-YG-18.png,0.35,1.2,21,0.25,,,,,,,,,,,,,,,,,,,,,,,,,,,,,,,,,,,,,,,,,,,,,
,,,,,SPR24_026,21,female,2024-04-10_10h03.47.087,jersey_experiment_5_v0,2023.2.2,Win32,84.74576271,,,,,,,,,,,,,,,,288.402,289.4487,289.4488,291.9431,return,0.5508,,82.94270833,0,59,59,28,1,FBP-YG-19.png,0.43,1.2,29,0.25,,,,,,,,,,,,,,,,,,,,,,,,,,,,,,,,,,,,,,,,,,,,,
,,,,,SPR24_026,21,female,2024-04-10_10h03.47.087,jersey_experiment_5_v0,2023.2.2,Win32,84.74576271,,,,,,,,,,,,,,,,291.9449,293.2373,293.2374,294.5197,return,0.518,,98.30729167,,,,,,FBP-RB-81.png,0.45,1.2,40,0.5,0,0,0,39,1,,,,,,,,,,,,,,,,,,,,,,,,,,,,,,,,,,,,,,,,
,,,,,SPR24_026,21,female,2024-04-10_10h03.47.087,jersey_experiment_5_v0,2023.2.2,Win32,84.74576271,,,,,,,,,,,,,,,,294.52,295.8138,295.8139,297.2257,return,0.5885,,98.4375,,,,,,FBP-OG-17.png,0.45,1.2,5,0.5,0,1,1,4,1,,,,,,,,,,,,,,,,,,,,,,,,,,,,,,,,,,,,,,,,
,,,,,SPR24_026,21,female,2024-04-10_10h03.47.087,jersey_experiment_5_v0,2023.2.2,Win32,84.74576271,,,,,,,,,,,,,,,,297.2259,298.5198,298.5199,300.3552,return,0.5335,,74.21875,,,,,,FBP-OG-19.png,0.4,1.2,13,0.5,0,2,2,12,1,,,,,,,,,,,,,,,,,,,,,,,,,,,,,,,,,,,,,,,,
,,,,,SPR24_026,21,female,2024-04-10_10h03.47.087,jersey_experiment_5_v0,2023.2.2,Win32,84.74576271,,,,,,,,,,,,,,,,300.3554,301.6493,301.6494,303.6729,return,0.5654,,20.18229167,,,,,,FBP-RB-71.png,0.35,1.2,31,0.5,0,3,3,30,1,,,,,,,,,,,,,,,,,,,,,,,,,,,,,,,,,,,,,,,,
,,,,,SPR24_026,21,female,2024-04-10_10h03.47.087,jersey_experiment_5_v0,2023.2.2,Win32,84.74576271,,,,,,,,,,,,,,,,303.673,304.9671,304.9671,307.2376,return,0.6697,,25,,,,,,FBP-OG-17.png,0.37,1.2,2,0.5,0,4,4,1,1,,,,,,,,,,,,,,,,,,,,,,,,,,,,,,,,,,,,,,,,
,,,,,SPR24_026,21,female,2024-04-10_10h03.47.087,jersey_experiment_5_v0,2023.2.2,Win32,84.74576271,,,,,,,,,,,,,,,,307.2378,308.2848,308.2849,310.0967,return,0.522,,25,,,,,,FBP-YG-81.png,0.35,1.2,21,0.25,0,5,5,20,1,,,,,,,,,,,,,,,,,,,,,,,,,,,,,,,,,,,,,,,,
,,,,,SPR24_026,21,female,2024-04-10_10h03.47.087,jersey_experiment_5_v0,2023.2.2,Win32,84.74576271,,,,,,,,,,,,,,,,310.0969,311.1436,311.1437,313.4734,return,0.4296,,18.61979167,,,,,,FBP-PT-91.png,0.35,1.2,56,0.25,0,6,6,55,1,,,,,,,,,,,,,,,,,,,,,,,,,,,,,,,,,,,,,,,,
,,,,,SPR24_026,21,female,2024-04-10_10h03.47.087,jersey_experiment_5_v0,2023.2.2,Win32,84.74576271,,,,,,,,,,,,,,,,313.4736,314.7673,314.7674,317.6851,return,0.684,,98.30729167,,,,,,FBP-RB-91.png,0.45,1.2,45,0.5,0,7,7,44,1,,,,,,,,,,,,,,,,,,,,,,,,,,,,,,,,,,,,,,,,
,,,,,SPR24_026,21,female,2024-04-10_10h03.47.087,jersey_experiment_5_v0,2023.2.2,Win32,84.74576271,,,,,,,,,,,,,,,,317.6853,318.9794,318.9794,320.7676,return,0.5346,,98.30729167,,,,,,FBP-RB-91.png,0.43,1.2,44,0.5,0,8,8,43,1,,,,,,,,,,,,,,,,,,,,,,,,,,,,,,,,,,,,,,,,
,,,,,SPR24_026,21,female,2024-04-10_10h03.47.087,jersey_experiment_5_v0,2023.2.2,Win32,84.74576271,,,,,,,,,,,,,,,,320.7678,321.8148,321.8148,323.8736,return,0.7583,,98.56770833,,,,,,FBP-YG-71.png,0.45,1.2,20,0.25,0,9,9,19,1,,,,,,,,,,,,,,,,,,,,,,,,,,,,,,,,,,,,,,,,
,,,,,SPR24_026,21,female,2024-04-10_10h03.47.087,jersey_experiment_5_v0,2023.2.2,Win32,84.74576271,,,,,,,,,,,,,,,,323.8739,325.1677,325.1677,328.2151,return,0.5063,,93.22916667,,,,,,FBP-RB-71.png,0.43,1.2,34,0.5,0,10,10,33,1,,,,,,,,,,,,,,,,,,,,,,,,,,,,,,,,,,,,,,,,
,,,,,SPR24_026,21,female,2024-04-10_10h03.47.087,jersey_experiment_5_v0,2023.2.2,Win32,84.74576271,,,,,,,,,,,,,,,,328.2153,329.262,329.262,332.0621,return,1.7123,,93.09895833,,,,,,FBP-YG-91.png,0.43,1.2,29,0.25,0,11,11,28,1,,,,,,,,,,,,,,,,,,,,,,,,,,,,,,,,,,,,,,,,
,,,,,SPR24_026,21,female,2024-04-10_10h03.47.087,jersey_experiment_5_v0,2023.2.2,Win32,84.74576271,,,,,,,,,,,,,,,,332.0624,333.1094,333.1094,335.8741,return,0.6263,,5.338541667,,,,,,FBP-YG-71.png,0.37,1.2,17,0.25,0,12,12,16,1,,,,,,,,,,,,,,,,,,,,,,,,,,,,,,,,,,,,,,,,
,,,,,SPR24_026,21,female,2024-04-10_10h03.47.087,jersey_experiment_5_v0,2023.2.2,Win32,84.74576271,,,,,,,,,,,,,,,,335.8744,336.9212,336.9213,339.1448,return,0.5411,,99.34895833,,,,,,FBP-PT-71.png,0.43,1.2,49,0.25,0,13,13,48,1,,,,,,,,,,,,,,,,,,,,,,,,,,,,,,,,,,,,,,,,
,,,,,SPR24_026,21,female,2024-04-10_10h03.47.087,jersey_experiment_5_v0,2023.2.2,Win32,84.74576271,,,,,,,,,,,,,,,,339.145,340.439,340.439,342.486,return,0.6131,,99.34895833,,,,,,FBP-OG-18.png,0.43,1.2,9,0.5,0,14,14,8,1,,,,,,,,,,,,,,,,,,,,,,,,,,,,,,,,,,,,,,,,
,,,,,SPR24_026,21,female,2024-04-10_10h03.47.087,jersey_experiment_5_v0,2023.2.2,Win32,84.74576271,,,,,,,,,,,,,,,,342.4862,343.7803,343.7803,345.8159,return,0.579,,75,,,,,,FBP-RB-81.png,0.4,1.2,38,0.5,0,15,15,37,1,,,,,,,,,,,,,,,,,,,,,,,,,,,,,,,,,,,,,,,,
,,,,,SPR24_026,21,female,2024-04-10_10h03.47.087,jersey_experiment_5_v0,2023.2.2,Win32,84.74576271,,,,,,,,,,,,,,,,345.816,347.1098,347.1098,348.6158,return,0.6023,,99.08854167,,,,,,FBP-OG-19.png,0.45,1.2,15,0.5,0,16,16,14,1,,,,,,,,,,,,,,,,,,,,,,,,,,,,,,,,,,,,,,,,
,,,,,SPR24_026,21,female,2024-04-10_10h03.47.087,jersey_experiment_5_v0,2023.2.2,Win32,84.74576271,,,,,,,,,,,,,,,,348.6161,349.9099,349.9099,353.2865,return,0.4568,,74.47916667,,,,,,FBP-OG-18.png,0.35,1.2,6,0.5,0,17,17,5,1,,,,,,,,,,,,,,,,,,,,,,,,,,,,,,,,,,,,,,,,
,,,,,SPR24_026,21,female,2024-04-10_10h03.47.087,jersey_experiment_5_v0,2023.2.2,Win32,84.74576271,,,,,,,,,,,,,,,,353.2867,354.3337,354.3337,355.5689,return,0.5947,,74.47916667,,,,,,FBP-PT-91.png,0.4,1.2,58,0.25,0,18,18,57,1,,,,,,,,,,,,,,,,,,,,,,,,,,,,,,,,,,,,,,,,
,,,,,SPR24_026,21,female,2024-04-10_10h03.47.087,jersey_experiment_5_v0,2023.2.2,Win32,84.74576271,,,,,,,,,,,,,,,,355.5691,356.8631,356.8632,358.4868,return,0.5417,,74.47916667,,,,,,FBP-OG-17.png,0.4,1.2,3,0.5,0,19,19,2,1,,,,,,,,,,,,,,,,,,,,,,,,,,,,,,,,,,,,,,,,
,,,,,SPR24_026,21,female,2024-04-10_10h03.47.087,jersey_experiment_5_v0,2023.2.2,Win32,84.74576271,,,,,,,,,,,,,,,,358.487,359.5339,359.5339,362.2399,return,0.4898,,74.47916667,,,,,,FBP-PT-91.png,0.37,1.2,57,0.25,0,20,20,56,1,,,,,,,,,,,,,,,,,,,,,,,,,,,,,,,,,,,,,,,,
,,,,,SPR24_026,21,female,2024-04-10_10h03.47.087,jersey_experiment_5_v0,2023.2.2,Win32,84.74576271,,,,,,,,,,,,,,,,362.2403,363.5339,363.534,367.9694,return,2.3683,,33.85416667,,,,,,FBP-RB-71.png,0.4,1.2,33,0.5,0,21,21,32,1,,,,,,,,,,,,,,,,,,,,,,,,,,,,,,,,,,,,,,,,
,,,,,SPR24_026,21,female,2024-04-10_10h03.47.087,jersey_experiment_5_v0,2023.2.2,Win32,84.74576271,,,,,,,,,,,,,,,,367.9697,369.2637,369.2637,371.2166,return,0.5945,,13.93229167,,,,,,FBP-RB-81.png,0.37,1.2,37,0.5,0,22,22,36,1,,,,,,,,,,,,,,,,,,,,,,,,,,,,,,,,,,,,,,,,
,,,,,SPR24_026,21,female,2024-04-10_10h03.47.087,jersey_experiment_5_v0,2023.2.2,Win32,84.74576271,,,,,,,,,,,,,,,,371.2167,372.2637,372.2637,374.7933,return,0.7862,,73.56770833,,,,,,FBP-YG-71.png,0.4,1.2,18,0.25,0,23,23,17,1,,,,,,,,,,,,,,,,,,,,,,,,,,,,,,,,,,,,,,,,
,,,,,SPR24_026,21,female,2024-04-10_10h03.47.087,jersey_experiment_5_v0,2023.2.2,Win32,84.74576271,,,,,,,,,,,,,,,,374.7935,376.0875,376.0875,378.558,return,0.5506,,21.35416667,,,,,,FBP-RB-81.png,0.35,1.2,36,0.5,0,24,24,35,1,,,,,,,,,,,,,,,,,,,,,,,,,,,,,,,,,,,,,,,,
,,,,,SPR24_026,21,female,2024-04-10_10h03.47.087,jersey_experiment_5_v0,2023.2.2,Win32,84.74576271,,,,,,,,,,,,,,,,378.5583,379.6055,379.6055,381.7937,return,0.5211,,98.56770833,,,,,,FBP-PT-81.png,0.43,1.2,54,0.25,0,25,25,53,1,,,,,,,,,,,,,,,,,,,,,,,,,,,,,,,,,,,,,,,,
,,,,,SPR24_026,21,female,2024-04-10_10h03.47.087,jersey_experiment_5_v0,2023.2.2,Win32,84.74576271,,,,,,,,,,,,,,,,381.794,383.0878,383.0879,384.8172,return,0.5,,73.56770833,,,,,,FBP-OG-19.png,0.37,1.2,12,0.5,0,26,26,11,1,,,,,,,,,,,,,,,,,,,,,,,,,,,,,,,,,,,,,,,,
,,,,,SPR24_026,21,female,2024-04-10_10h03.47.087,jersey_experiment_5_v0,2023.2.2,Win32,84.74576271,,,,,,,,,,,,,,,,384.8175,385.8644,385.8645,387.6057,return,0.5088,,95.57291667,,,,,,FBP-YG-91.png,0.45,1.2,30,0.25,0,27,27,29,1,,,,,,,,,,,,,,,,,,,,,,,,,,,,,,,,,,,,,,,,
,,,,,SPR24_026,21,female,2024-04-10_10h03.47.087,jersey_experiment_5_v0,2023.2.2,Win32,84.74576271,,,,,,,,,,,,,,,,387.606,388.6526,388.6527,391.1821,return,0.4778,,98.828125,,,,,,FBP-PT-81.png,0.45,1.2,55,0.25,0,28,28,54,1,,,,,,,,,,,,,,,,,,,,,,,,,,,,,,,,,,,,,,,,
,,,,,SPR24_026,21,female,2024-04-10_10h03.47.087,jersey_experiment_5_v0,2023.2.2,Win32,84.74576271,,,,,,,,,,,,,,,,391.1823,392.2293,392.2293,395.5354,return,1.4412,,73.95833333,,,,,,FBP-YG-81.png,0.4,1.2,23,0.25,0,29,29,22,1,,,,,,,,,,,,,,,,,,,,,,,,,,,,,,,,,,,,,,,,
,,,,,SPR24_026,21,female,2024-04-10_10h03.47.087,jersey_experiment_5_v0,2023.2.2,Win32,84.74576271,,,,,,,,,,,,,,,,395.5355,396.8294,396.8294,399.4296,return,0.5286,,76.5625,,,,,,FBP-OG-19.png,0.43,1.2,14,0.5,0,30,30,13,1,,,,,,,,,,,,,,,,,,,,,,,,,,,,,,,,,,,,,,,,
,,,,,SPR24_026,21,female,2024-04-10_10h03.47.087,jersey_experiment_5_v0,2023.2.2,Win32,84.74576271,,,,,,,,,,,,,,,,399.4298,400.4767,400.4768,402.5943,return,0.4968,,73.69791667,,,,,,FBP-PT-71.png,0.4,1.2,48,0.25,0,31,31,47,1,,,,,,,,,,,,,,,,,,,,,,,,,,,,,,,,,,,,,,,,
,,,,,SPR24_026,21,female,2024-04-10_10h03.47.087,jersey_experiment_5_v0,2023.2.2,Win32,84.74576271,,,,,,,,,,,,,,,,402.5945,403.6414,403.6414,405.6533,return,0.5091,,24.86979167,,,,,,FBP-PT-71.png,0.35,1.2,46,0.25,0,32,32,45,1,,,,,,,,,,,,,,,,,,,,,,,,,,,,,,,,,,,,,,,,
,,,,,SPR24_026,21,female,2024-04-10_10h03.47.087,jersey_experiment_5_v0,2023.2.2,Win32,84.74576271,,,,,,,,,,,,,,,,405.6535,406.9475,406.9475,410.8065,return,0.1879,,25.390625,,,,,,FBP-OG-19.png,0.35,1.2,11,0.5,0,33,33,10,1,,,,,,,,,,,,,,,,,,,,,,,,,,,,,,,,,,,,,,,,
,,,,,SPR24_026,21,female,2024-04-10_10h03.47.087,jersey_experiment_5_v0,2023.2.2,Win32,84.74576271,,,,,,,,,,,,,,,,410.8067,412.1007,412.1007,413.6185,return,0.2638,,25.390625,,,,,,FBP-RB-91.png,0.37,1.2,42,0.5,0,34,34,41,1,,,,,,,,,,,,,,,,,,,,,,,,,,,,,,,,,,,,,,,,
,,,,,SPR24_026,21,female,2024-04-10_10h03.47.087,jersey_experiment_5_v0,2023.2.2,Win32,84.74576271,,,,,,,,,,,,,,,,413.6187,414.6655,414.6655,417.8302,return,0.1893,,74.86979167,,,,,,FBP-PT-81.png,0.4,1.2,53,0.25,0,35,35,52,1,,,,,,,,,,,,,,,,,,,,,,,,,,,,,,,,,,,,,,,,
,,,,,SPR24_026,21,female,2024-04-10_10h03.47.087,jersey_experiment_5_v0,2023.2.2,Win32,84.74576271,,,,,,,,,,,,,,,,417.8305,419.1243,419.1244,420.1363,return,0.1881,,74.34895833,,,,,,FBP-OG-18.png,0.4,1.2,8,0.5,0,36,36,7,1,,,,,,,,,,,,,,,,,,,,,,,,,,,,,,,,,,,,,,,,
,,,,,SPR24_026,21,female,2024-04-10_10h03.47.087,jersey_experiment_5_v0,2023.2.2,Win32,84.74576271,,,,,,,,,,,,,,,,420.1365,421.1834,421.1834,422.0657,return,0.1234,,74.47916667,,,,,,FBP-YG-81.png,0.37,1.2,22,0.25,0,37,37,21,1,,,,,,,,,,,,,,,,,,,,,,,,,,,,,,,,,,,,,,,,
,,,,,SPR24_026,21,female,2024-04-10_10h03.47.087,jersey_experiment_5_v0,2023.2.2,Win32,84.74576271,,,,,,,,,,,,,,,,422.0659,423.1128,423.1128,426.16,return,0.172,,74.47916667,,,,,,FBP-YG-71.png,0.35,1.2,16,0.25,0,38,38,15,1,,,,,,,,,,,,,,,,,,,,,,,,,,,,,,,,,,,,,,,,
,,,,,SPR24_026,21,female,2024-04-10_10h03.47.087,jersey_experiment_5_v0,2023.2.2,Win32,84.74576271,,,,,,,,,,,,,,,,426.1602,427.4542,427.4542,428.7838,return,0.24,,74.47916667,,,,,,FBP-OG-18.png,0.37,1.2,7,0.5,0,39,39,6,1,,,,,,,,,,,,,,,,,,,,,,,,,,,,,,,,,,,,,,,,
,,,,,SPR24_026,21,female,2024-04-10_10h03.47.087,jersey_experiment_5_v0,2023.2.2,Win32,84.74576271,,,,,,,,,,,,,,,,428.784,430.0778,430.0778,431.9721,return,0.1301,,24.86979167,,,,,,FBP-OG-17.png,0.35,1.2,1,0.5,0,40,40,0,1,,,,,,,,,,,,,,,,,,,,,,,,,,,,,,,,,,,,,,,,
,,,,,SPR24_026,21,female,2024-04-10_10h03.47.087,jersey_experiment_5_v0,2023.2.2,Win32,84.74576271,,,,,,,,,,,,,,,,431.9724,433.0191,433.0192,434.372,return,0.7652,,24.08854167,,,,,,FBP-PT-81.png,0.37,1.2,52,0.25,0,41,41,51,1,,,,,,,,,,,,,,,,,,,,,,,,,,,,,,,,,,,,,,,,
,,,,,SPR24_026,21,female,2024-04-10_10h03.47.087,jersey_experiment_5_v0,2023.2.2,Win32,84.74576271,,,,,,,,,,,,,,,,434.3722,435.4193,435.4193,438.1135,return,0.8764,,88.93229167,,,,,,FBP-YG-91.png,0.4,1.2,28,0.25,0,42,42,27,1,,,,,,,,,,,,,,,,,,,,,,,,,,,,,,,,,,,,,,,,
,,,,,SPR24_026,21,female,2024-04-10_10h03.47.087,jersey_experiment_5_v0,2023.2.2,Win32,84.74576271,,,,,,,,,,,,,,,,438.1138,439.1604,439.1604,442.0547,return,0.259,,75,,,,,,FBP-PT-71.png,0.37,1.2,47,0.25,0,43,43,46,1,,,,,,,,,,,,,,,,,,,,,,,,,,,,,,,,,,,,,,,,
,,,,,SPR24_026,21,female,2024-04-10_10h03.47.087,jersey_experiment_5_v0,2023.2.2,Win32,84.74576271,,,,,,,,,,,,,,,,442.055,443.1018,443.1018,444.5844,return,0.2352,,98.95833333,,,,,,FBP-PT-91.png,0.43,1.2,59,0.25,0,44,44,58,1,,,,,,,,,,,,,,,,,,,,,,,,,,,,,,,,,,,,,,,,
,,,,,SPR24_026,21,female,2024-04-10_10h03.47.087,jersey_experiment_5_v0,2023.2.2,Win32,84.74576271,,,,,,,,,,,,,,,,444.5846,445.6313,445.6314,446.9373,return,0.1274,,74.73958333,,,,,,FBP-YG-91.png,0.37,1.2,27,0.25,0,45,45,26,1,,,,,,,,,,,,,,,,,,,,,,,,,,,,,,,,,,,,,,,,
,,,,,SPR24_026,21,female,2024-04-10_10h03.47.087,jersey_experiment_5_v0,2023.2.2,Win32,84.74576271,,,,,,,,,,,,,,,,446.9375,448.2314,448.2314,449.3021,return,0.1653,,99.609375,,,,,,FBP-OG-17.png,0.43,1.2,4,0.5,0,46,46,3,1,,,,,,,,,,,,,,,,,,,,,,,,,,,,,,,,,,,,,,,,
,,,,,SPR24_026,21,female,2024-04-10_10h03.47.087,jersey_experiment_5_v0,2023.2.2,Win32,84.74576271,,,,,,,,,,,,,,,,449.3024,450.3492,450.3492,452.8082,return,0.6824,,73.95833333,,,,,,FBP-PT-81.png,0.35,1.2,51,0.25,0,47,47,50,1,,,,,,,,,,,,,,,,,,,,,,,,,,,,,,,,,,,,,,,,
,,,,,SPR24_026,21,female,2024-04-10_10h03.47.087,jersey_experiment_5_v0,2023.2.2,Win32,84.74576271,,,,,,,,,,,,,,,,452.8085,453.8551,453.8551,455.3376,return,0.1176,,76.04166667,,,,,,FBP-YG-91.png,0.35,1.2,26,0.25,0,48,48,25,1,,,,,,,,,,,,,,,,,,,,,,,,,,,,,,,,,,,,,,,,
,,,,,SPR24_026,21,female,2024-04-10_10h03.47.087,jersey_experiment_5_v0,2023.2.2,Win32,84.74576271,,,,,,,,,,,,,,,,455.3378,456.6317,456.6317,457.9378,return,0.1351,,86.06770833,,,,,,FBP-RB-91.png,0.4,1.2,43,0.5,0,49,49,42,1,,,,,,,,,,,,,,,,,,,,,,,,,,,,,,,,,,,,,,,,
,,,,,SPR24_026,21,female,2024-04-10_10h03.47.087,jersey_experiment_5_v0,2023.2.2,Win32,84.74576271,,,,,,,,,,,,,,,,457.938,459.232,459.232,460.8791,return,0.914,,99.34895833,,,,,,FBP-RB-71.png,0.45,1.2,35,0.5,0,50,50,34,1,,,,,,,,,,,,,,,,,,,,,,,,,,,,,,,,,,,,,,,,
,,,,,SPR24_026,21,female,2024-04-10_10h03.47.087,jersey_experiment_5_v0,2023.2.2,Win32,84.74576271,,,,,,,,,,,,,,,,460.8793,461.926,461.926,463.1379,return,0.5204,,99.609375,,,,,,FBP-PT-91.png,0.45,1.2,60,0.25,0,51,51,59,1,,,,,,,,,,,,,,,,,,,,,,,,,,,,,,,,,,,,,,,,
,,,,,SPR24_026,21,female,2024-04-10_10h03.47.087,jersey_experiment_5_v0,2023.2.2,Win32,84.74576271,,,,,,,,,,,,,,,,463.1381,464.4321,464.4322,465.9028,return,0.0652,,74.86979167,,,,,,FBP-RB-71.png,0.37,1.2,32,0.5,0,52,52,31,1,,,,,,,,,,,,,,,,,,,,,,,,,,,,,,,,,,,,,,,,
,,,,,SPR24_026,21,female,2024-04-10_10h03.47.087,jersey_experiment_5_v0,2023.2.2,Win32,84.74576271,,,,,,,,,,,,,,,,465.903,466.9497,466.9498,468.3616,return,0.2729,,98.95833333,,,,,,FBP-YG-71.png,0.43,1.2,19,0.25,0,53,53,18,1,,,,,,,,,,,,,,,,,,,,,,,,,,,,,,,,,,,,,,,,
,,,,,SPR24_026,21,female,2024-04-10_10h03.47.087,jersey_experiment_5_v0,2023.2.2,Win32,84.74576271,,,,,,,,,,,,,,,,468.3619,469.4086,469.4086,470.6087,return,0.11,,98.828125,,,,,,FBP-YG-81.png,0.45,1.2,25,0.25,0,54,54,24,1,,,,,,,,,,,,,,,,,,,,,,,,,,,,,,,,,,,,,,,,
,,,,,SPR24_026,21,female,2024-04-10_10h03.47.087,jersey_experiment_5_v0,2023.2.2,Win32,84.74576271,,,,,,,,,,,,,,,,470.609,471.9029,471.903,473.6796,return,0.8193,,74.609375,,,,,,FBP-RB-91.png,0.35,1.2,41,0.5,0,55,55,40,1,,,,,,,,,,,,,,,,,,,,,,,,,,,,,,,,,,,,,,,,
,,,,,SPR24_026,21,female,2024-04-10_10h03.47.087,jersey_experiment_5_v0,2023.2.2,Win32,84.74576271,,,,,,,,,,,,,,,,473.6798,474.9739,474.974,476.6326,return,0.2921,,98.4375,,,,,,FBP-RB-81.png,0.43,1.2,39,0.5,0,56,56,38,1,,,,,,,,,,,,,,,,,,,,,,,,,,,,,,,,,,,,,,,,
,,,,,SPR24_026,21,female,2024-04-10_10h03.47.087,jersey_experiment_5_v0,2023.2.2,Win32,84.74576271,,,,,,,,,,,,,,,,476.6327,477.6797,477.6798,478.7267,return,0.165,,98.17708333,,,,,,FBP-PT-71.png,0.45,1.2,50,0.25,0,57,57,49,1,,,,,,,,,,,,,,,,,,,,,,,,,,,,,,,,,,,,,,,,
,,,,,SPR24_026,21,female,2024-04-10_10h03.47.087,jersey_experiment_5_v0,2023.2.2,Win32,84.74576271,,,,,,,,,,,,,,,,478.7269,479.7738,479.7739,481.1503,return,0.5738,,98.17708333,,,,,,FBP-YG-81.png,0.43,1.2,24,0.25,0,58,58,23,1,,,,,,,,,,,,,,,,,,,,,,,,,,,,,,,,,,,,,,,,
,,,,,SPR24_026,21,female,2024-04-10_10h03.47.087,jersey_experiment_5_v0,2023.2.2,Win32,84.74576271,,,,,,,,,,,,,,,,481.1505,482.4444,482.4444,483.2094,return,0.0145,,98.17708333,,,,,,FBP-OG-18.png,0.45,1.2,10,0.5,0,59,59,9,1,,,,,,,,,,,,,,,,,,,,,,,,,,,,,,,,,,,,,,,,
,,,,,SPR24_026,21,female,2024-04-10_10h03.47.087,jersey_experiment_5_v0,2023.2.2,Win32,84.74576271,,,,,,,,,,,,,,,,,,,,,,,,,,,,,,,,,,,,,,,483.2097,603.2026,,,,,,,,,,,,,,,,,,,,,,,,,,,,,,,,,,,,,,
,,,,,SPR24_026,21,female,2024-04-10_10h03.47.087,jersey_experiment_5_v0,2023.2.2,Win32,84.74576271,,,,,,,,,,,,,,,,,,,,,,,,,,,,,,,,,,,,,,,,,603.2027,616.5441,return,13.3351,,,,,,,,,,,,,,,,,,,,,,,,,,,,,,,,,,
,,,,,SPR24_026,21,female,2024-04-10_10h03.47.087,jersey_experiment_5_v0,2023.2.2,Win32,84.74576271,,,,,,,,,,,,,,,,616.5504,617.8498,617.8499,621.6854,return,0.485,,97.78645833,,,,,,FBP-YG-17.png,0.45,1.2,20,0.5,,,,,,,,,,,,,0,0,0,19,1,,,,,,,,,,,,,,,,,,,,,,,,,,,,
,,,,,SPR24_026,21,female,2024-04-10_10h03.47.087,jersey_experiment_5_v0,2023.2.2,Win32,84.74576271,,,,,,,,,,,,,,,,621.6856,622.7323,622.7323,624.1677,return,0.1976,,98.046875,,,,,,FBP-RB-18.png,0.43,1.2,39,0.25,,,,,,,,,,,,,0,1,1,38,1,,,,,,,,,,,,,,,,,,,,,,,,,,,,
,,,,,SPR24_026,21,female,2024-04-10_10h03.47.087,jersey_experiment_5_v0,2023.2.2,Win32,84.74576271,,,,,,,,,,,,,,,,624.1679,625.4618,625.4618,626.1677,return,0.1176,,99.21875,,,,,,FBP-PT-18.png,0.45,1.2,55,0.5,,,,,,,,,,,,,0,2,2,54,1,,,,,,,,,,,,,,,,,,,,,,,,,,,,
,,,,,SPR24_026,21,female,2024-04-10_10h03.47.087,jersey_experiment_5_v0,2023.2.2,Win32,84.74576271,,,,,,,,,,,,,,,,626.1679,627.4618,627.4619,629.3208,return,0.2117,,97.00520833,,,,,,FBP-PT-19.png,0.43,1.2,59,0.5,,,,,,,,,,,,,0,3,3,58,1,,,,,,,,,,,,,,,,,,,,,,,,,,,,
,,,,,SPR24_026,21,female,2024-04-10_10h03.47.087,jersey_experiment_5_v0,2023.2.2,Win32,84.74576271,,,,,,,,,,,,,,,,629.3211,630.615,630.615,631.5091,return,0.12,,74.34895833,,,,,,FBP-PT-17.png,0.4,1.2,48,0.5,,,,,,,,,,,,,0,4,4,47,1,,,,,,,,,,,,,,,,,,,,,,,,,,,,
,,,,,SPR24_026,21,female,2024-04-10_10h03.47.087,jersey_experiment_5_v0,2023.2.2,Win32,84.74576271,,,,,,,,,,,,,,,,631.5092,632.5563,632.5563,633.6857,return,0.1087,,96.22395833,,,,,,FBP-RB-19.png,0.43,1.2,44,0.25,,,,,,,,,,,,,0,5,5,43,1,,,,,,,,,,,,,,,,,,,,,,,,,,,,
,,,,,SPR24_026,21,female,2024-04-10_10h03.47.087,jersey_experiment_5_v0,2023.2.2,Win32,84.74576271,,,,,,,,,,,,,,,,633.686,634.7327,634.7327,636.1329,return,0.2505,,74.21875,,,,,,FBP-RB-17.png,0.37,1.2,32,0.25,,,,,,,,,,,,,0,6,6,31,1,,,,,,,,,,,,,,,,,,,,,,,,,,,,
,,,,,SPR24_026,21,female,2024-04-10_10h03.47.087,jersey_experiment_5_v0,2023.2.2,Win32,84.74576271,,,,,,,,,,,,,,,,636.133,637.1799,637.1799,638.2152,return,0.0096,,99.21875,,,,,,FBP-OG-91.png,0.45,1.2,15,0.25,,,,,,,,,,,,,0,7,7,14,1,,,,,,,,,,,,,,,,,,,,,,,,,,,,
,,,,,SPR24_026,21,female,2024-04-10_10h03.47.087,jersey_experiment_5_v0,2023.2.2,Win32,84.74576271,,,,,,,,,,,,,,,,638.2154,639.2623,639.2623,640.0623,return,0.0917,,98.17708333,,,,,,FBP-RB-17.png,0.45,1.2,35,0.25,,,,,,,,,,,,,0,8,8,34,1,,,,,,,,,,,,,,,,,,,,,,,,,,,,
,,,,,SPR24_026,21,female,2024-04-10_10h03.47.087,jersey_experiment_5_v0,2023.2.2,Win32,84.74576271,,,,,,,,,,,,,,,,640.0626,641.3566,641.3566,641.8389,return,0.1263,,98.17708333,,,,,,FBP-PT-19.png,0.45,1.2,60,0.5,,,,,,,,,,,,,0,9,9,59,1,,,,,,,,,,,,,,,,,,,,,,,,,,,,
,,,,,SPR24_026,21,female,2024-04-10_10h03.47.087,jersey_experiment_5_v0,2023.2.2,Win32,84.74576271,,,,,,,,,,,,,,,,641.839,642.886,642.8861,643.4978,return,0.0705,,98.17708333,,,,,,FBP-RB-19.png,0.45,1.2,45,0.25,,,,,,,,,,,,,0,10,10,44,1,,,,,,,,,,,,,,,,,,,,,,,,,,,,
,,,,,SPR24_026,21,female,2024-04-10_10h03.47.087,jersey_experiment_5_v0,2023.2.2,Win32,84.74576271,,,,,,,,,,,,,,,,643.498,644.792,644.792,646.5449,return,0.0775,,24.08854167,,,,,,FBP-PT-17.png,0.35,1.2,46,0.5,,,,,,,,,,,,,0,11,11,45,1,,,,,,,,,,,,,,,,,,,,,,,,,,,,
,,,,,SPR24_026,21,female,2024-04-10_10h03.47.087,jersey_experiment_5_v0,2023.2.2,Win32,84.74576271,,,,,,,,,,,,,,,,646.5452,647.592,647.5921,648.7216,return,0.1478,,75.390625,,,,,,FBP-OG-91.png,0.4,1.2,13,0.25,,,,,,,,,,,,,0,12,12,12,1,,,,,,,,,,,,,,,,,,,,,,,,,,,,
,,,,,SPR24_026,21,female,2024-04-10_10h03.47.087,jersey_experiment_5_v0,2023.2.2,Win32,84.74576271,,,,,,,,,,,,,,,,648.7218,649.7687,649.7688,651.5453,return,0.1556,,7.291666667,,,,,,FBP-RB-18.png,0.35,1.2,36,0.25,,,,,,,,,,,,,0,13,13,35,1,,,,,,,,,,,,,,,,,,,,,,,,,,,,
,,,,,SPR24_026,21,female,2024-04-10_10h03.47.087,jersey_experiment_5_v0,2023.2.2,Win32,84.74576271,,,,,,,,,,,,,,,,651.5456,652.8396,652.8396,653.8629,return,0.1179,,25.13020833,,,,,,FBP-YG-17.png,0.37,1.2,17,0.5,,,,,,,,,,,,,0,14,14,16,1,,,,,,,,,,,,,,,,,,,,,,,,,,,,
,,,,,SPR24_026,21,female,2024-04-10_10h03.47.087,jersey_experiment_5_v0,2023.2.2,Win32,84.74576271,,,,,,,,,,,,,,,,653.8631,654.91,654.91,656.2277,return,0.1663,,75.390625,,,,,,FBP-OG-91.png,0.43,1.2,14,0.25,,,,,,,,,,,,,0,15,15,13,1,,,,,,,,,,,,,,,,,,,,,,,,,,,,
,,,,,SPR24_026,21,female,2024-04-10_10h03.47.087,jersey_experiment_5_v0,2023.2.2,Win32,84.74576271,,,,,,,,,,,,,,,,656.2279,657.5219,657.5219,658.722,return,0.2293,,74.47916667,,,,,,FBP-PT-18.png,0.4,1.2,53,0.5,,,,,,,,,,,,,0,16,16,52,1,,,,,,,,,,,,,,,,,,,,,,,,,,,,
,,,,,SPR24_026,21,female,2024-04-10_10h03.47.087,jersey_experiment_5_v0,2023.2.2,Win32,84.74576271,,,,,,,,,,,,,,,,658.7223,659.769,659.769,660.9455,return,0.0533,,96.875,,,,,,FBP-OG-71.png,0.43,1.2,4,0.25,,,,,,,,,,,,,0,17,17,3,1,,,,,,,,,,,,,,,,,,,,,,,,,,,,
,,,,,SPR24_026,21,female,2024-04-10_10h03.47.087,jersey_experiment_5_v0,2023.2.2,Win32,84.74576271,,,,,,,,,,,,,,,,660.9458,661.9927,661.9927,663.8398,return,0.2196,,98.30729167,,,,,,FBP-RB-18.png,0.45,1.2,40,0.25,,,,,,,,,,,,,0,18,18,39,1,,,,,,,,,,,,,,,,,,,,,,,,,,,,
,,,,,SPR24_026,21,female,2024-04-10_10h03.47.087,jersey_experiment_5_v0,2023.2.2,Win32,84.74576271,,,,,,,,,,,,,,,,663.8399,664.8868,664.8869,665.7458,return,0.1942,,98.828125,,,,,,FBP-RB-17.png,0.43,1.2,34,0.25,,,,,,,,,,,,,0,19,19,33,1,,,,,,,,,,,,,,,,,,,,,,,,,,,,
,,,,,SPR24_026,21,female,2024-04-10_10h03.47.087,jersey_experiment_5_v0,2023.2.2,Win32,84.74576271,,,,,,,,,,,,,,,,665.7459,667.04,667.04,669.1694,return,0.1356,,24.86979167,,,,,,FBP-YG-18.png,0.35,1.2,21,0.5,,,,,,,,,,,,,0,20,20,20,1,,,,,,,,,,,,,,,,,,,,,,,,,,,,
,,,,,SPR24_026,21,female,2024-04-10_10h03.47.087,jersey_experiment_5_v0,2023.2.2,Win32,84.74576271,,,,,,,,,,,,,,,,669.1697,670.4637,670.4637,671.8755,return,0.19,,11.328125,,,,,,FBP-YG-19.png,0.35,1.2,26,0.5,,,,,,,,,,,,,0,21,21,25,1,,,,,,,,,,,,,,,,,,,,,,,,,,,,
,,,,,SPR24_026,21,female,2024-04-10_10h03.47.087,jersey_experiment_5_v0,2023.2.2,Win32,84.74576271,,,,,,,,,,,,,,,,671.8757,673.1696,673.1696,674.6401,return,0.1108,,75.13020833,,,,,,FBP-YG-19.png,0.37,1.2,27,0.5,,,,,,,,,,,,,0,22,22,26,1,,,,,,,,,,,,,,,,,,,,,,,,,,,,
,,,,,SPR24_026,21,female,2024-04-10_10h03.47.087,jersey_experiment_5_v0,2023.2.2,Win32,84.74576271,,,,,,,,,,,,,,,,674.6403,675.6874,675.6874,676.7344,return,0.1128,,25.65104167,,,,,,FBP-OG-81.png,0.35,1.2,6,0.25,,,,,,,,,,,,,0,23,23,5,1,,,,,,,,,,,,,,,,,,,,,,,,,,,,
,,,,,SPR24_026,21,female,2024-04-10_10h03.47.087,jersey_experiment_5_v0,2023.2.2,Win32,84.74576271,,,,,,,,,,,,,,,,676.7345,677.7816,677.7816,678.7108,return,0.0576,,73.56770833,,,,,,FBP-OG-71.png,0.4,1.2,3,0.25,,,,,,,,,,,,,0,24,24,2,1,,,,,,,,,,,,,,,,,,,,,,,,,,,,
,,,,,SPR24_026,21,female,2024-04-10_10h03.47.087,jersey_experiment_5_v0,2023.2.2,Win32,84.74576271,,,,,,,,,,,,,,,,678.711,679.758,679.7581,680.464,return,0.0052,,73.95833333,,,,,,FBP-OG-81.png,0.4,1.2,8,0.25,,,,,,,,,,,,,0,25,25,7,1,,,,,,,,,,,,,,,,,,,,,,,,,,,,
,,,,,SPR24_026,21,female,2024-04-10_10h03.47.087,jersey_experiment_5_v0,2023.2.2,Win32,84.74576271,,,,,,,,,,,,,,,,680.4642,681.7581,681.7581,683.0404,return,0.1713,,98.046875,,,,,,FBP-PT-18.png,0.43,1.2,54,0.5,,,,,,,,,,,,,0,26,26,53,1,,,,,,,,,,,,,,,,,,,,,,,,,,,,
,,,,,SPR24_026,21,female,2024-04-10_10h03.47.087,jersey_experiment_5_v0,2023.2.2,Win32,84.74576271,,,,,,,,,,,,,,,,683.0405,684.0876,684.0876,686.3583,return,0.0817,,25.78125,,,,,,FBP-OG-81.png,0.37,1.2,7,0.25,,,,,,,,,,,,,0,27,27,6,1,,,,,,,,,,,,,,,,,,,,,,,,,,,,
,,,,,SPR24_026,21,female,2024-04-10_10h03.47.087,jersey_experiment_5_v0,2023.2.2,Win32,84.74576271,,,,,,,,,,,,,,,,686.3583,687.6526,687.6527,688.4995,return,0.0749,,18.09895833,,,,,,FBP-PT-18.png,0.35,1.2,51,0.5,,,,,,,,,,,,,0,28,28,50,1,,,,,,,,,,,,,,,,,,,,,,,,,,,,
,,,,,SPR24_026,21,female,2024-04-10_10h03.47.087,jersey_experiment_5_v0,2023.2.2,Win32,84.74576271,,,,,,,,,,,,,,,,688.4997,689.7938,689.7939,690.7584,return,0.0104,,98.828125,,,,,,FBP-PT-17.png,0.45,1.2,50,0.5,,,,,,,,,,,,,0,29,29,49,1,,,,,,,,,,,,,,,,,,,,,,,,,,,,
,,,,,SPR24_026,21,female,2024-04-10_10h03.47.087,jersey_experiment_5_v0,2023.2.2,Win32,84.74576271,,,,,,,,,,,,,,,,690.7586,691.8056,691.8056,692.8526,return,0.0591,,75.13020833,,,,,,FBP-RB-18.png,0.4,1.2,38,0.25,,,,,,,,,,,,,0,30,30,37,1,,,,,,,,,,,,,,,,,,,,,,,,,,,,
,,,,,SPR24_026,21,female,2024-04-10_10h03.47.087,jersey_experiment_5_v0,2023.2.2,Win32,84.74576271,,,,,,,,,,,,,,,,692.8529,694.1467,694.1467,695.1585,return,0.1515,,74.47916667,,,,,,FBP-PT-17.png,0.37,1.2,47,0.5,,,,,,,,,,,,,0,31,31,46,1,,,,,,,,,,,,,,,,,,,,,,,,,,,,
,,,,,SPR24_026,21,female,2024-04-10_10h03.47.087,jersey_experiment_5_v0,2023.2.2,Win32,84.74576271,,,,,,,,,,,,,,,,695.1587,696.2058,696.2059,697.1705,return,0.0734,,25.13020833,,,,,,FBP-OG-91.png,0.35,1.2,11,0.25,,,,,,,,,,,,,0,32,32,10,1,,,,,,,,,,,,,,,,,,,,,,,,,,,,
,,,,,SPR24_026,21,female,2024-04-10_10h03.47.087,jersey_experiment_5_v0,2023.2.2,Win32,84.74576271,,,,,,,,,,,,,,,,697.1707,698.4646,698.4647,699.5706,return,0.1203,,73.828125,,,,,,FBP-YG-19.png,0.4,1.2,28,0.5,,,,,,,,,,,,,0,33,33,27,1,,,,,,,,,,,,,,,,,,,,,,,,,,,,
,,,,,SPR24_026,21,female,2024-04-10_10h03.47.087,jersey_experiment_5_v0,2023.2.2,Win32,84.74576271,,,,,,,,,,,,,,,,699.5708,700.8647,700.8648,701.5118,return,0.1034,,74.73958333,,,,,,FBP-YG-17.png,0.4,1.2,18,0.5,,,,,,,,,,,,,0,34,34,17,1,,,,,,,,,,,,,,,,,,,,,,,,,,,,
,,,,,SPR24_026,21,female,2024-04-10_10h03.47.087,jersey_experiment_5_v0,2023.2.2,Win32,84.74576271,,,,,,,,,,,,,,,,701.512,702.8059,702.806,704.406,return,0.3075,,76.69270833,,,,,,FBP-PT-19.png,0.37,1.2,57,0.5,,,,,,,,,,,,,0,35,35,56,1,,,,,,,,,,,,,,,,,,,,,,,,,,,,
,,,,,SPR24_026,21,female,2024-04-10_10h03.47.087,jersey_experiment_5_v0,2023.2.2,Win32,84.74576271,,,,,,,,,,,,,,,,704.4061,705.4532,705.4532,707.159,return,0.1042,,24.73958333,,,,,,FBP-RB-19.png,0.35,1.2,41,0.25,,,,,,,,,,,,,0,36,36,40,1,,,,,,,,,,,,,,,,,,,,,,,,,,,,
,,,,,SPR24_026,21,female,2024-04-10_10h03.47.087,jersey_experiment_5_v0,2023.2.2,Win32,84.74576271,,,,,,,,,,,,,,,,707.1592,708.2062,708.2063,709.4769,return,0.1885,,99.73958333,,,,,,FBP-OG-81.png,0.45,1.2,10,0.25,,,,,,,,,,,,,0,37,37,9,1,,,,,,,,,,,,,,,,,,,,,,,,,,,,
,,,,,SPR24_026,21,female,2024-04-10_10h03.47.087,jersey_experiment_5_v0,2023.2.2,Win32,84.74576271,,,,,,,,,,,,,,,,709.4772,710.5239,710.524,711.3124,return,0.0897,,99.73958333,,,,,,FBP-OG-71.png,0.45,1.2,5,0.25,,,,,,,,,,,,,0,38,38,4,1,,,,,,,,,,,,,,,,,,,,,,,,,,,,
,,,,,SPR24_026,21,female,2024-04-10_10h03.47.087,jersey_experiment_5_v0,2023.2.2,Win32,84.74576271,,,,,,,,,,,,,,,,711.3125,712.3593,712.3593,715.8064,return,1.3625,,24.73958333,,,,,,FBP-RB-17.png,0.35,1.2,31,0.25,,,,,,,,,,,,,0,39,39,30,1,,,,,,,,,,,,,,,,,,,,,,,,,,,,
,,,,,SPR24_026,21,female,2024-04-10_10h03.47.087,jersey_experiment_5_v0,2023.2.2,Win32,84.74576271,,,,,,,,,,,,,,,,715.8066,717.1008,717.1008,718.3124,return,0.0804,,75,,,,,,FBP-YG-18.png,0.4,1.2,23,0.5,,,,,,,,,,,,,0,40,40,22,1,,,,,,,,,,,,,,,,,,,,,,,,,,,,
,,,,,SPR24_026,21,female,2024-04-10_10h03.47.087,jersey_experiment_5_v0,2023.2.2,Win32,84.74576271,,,,,,,,,,,,,,,,718.3126,719.6065,719.6066,720.842,return,0.2118,,85.67708333,,,,,,FBP-YG-18.png,0.43,1.2,24,0.5,,,,,,,,,,,,,0,41,41,23,1,,,,,,,,,,,,,,,,,,,,,,,,,,,,
,,,,,SPR24_026,21,female,2024-04-10_10h03.47.087,jersey_experiment_5_v0,2023.2.2,Win32,84.74576271,,,,,,,,,,,,,,,,720.8422,722.1362,722.1362,723.0068,return,0.1617,,95.44270833,,,,,,FBP-YG-17.png,0.43,1.2,19,0.5,,,,,,,,,,,,,0,42,42,18,1,,,,,,,,,,,,,,,,,,,,,,,,,,,,
,,,,,SPR24_026,21,female,2024-04-10_10h03.47.087,jersey_experiment_5_v0,2023.2.2,Win32,84.74576271,,,,,,,,,,,,,,,,723.007,724.301,724.3011,726.101,return,0.1439,,76.43229167,,,,,,FBP-PT-19.png,0.4,1.2,58,0.5,,,,,,,,,,,,,0,43,43,57,1,,,,,,,,,,,,,,,,,,,,,,,,,,,,
,,,,,SPR24_026,21,female,2024-04-10_10h03.47.087,jersey_experiment_5_v0,2023.2.2,Win32,84.74576271,,,,,,,,,,,,,,,,726.1011,727.3952,727.3952,728.16,return,0.0666,,97.91666667,,,,,,FBP-YG-19.png,0.43,1.2,29,0.5,,,,,,,,,,,,,0,44,44,28,1,,,,,,,,,,,,,,,,,,,,,,,,,,,,
,,,,,SPR24_026,21,female,2024-04-10_10h03.47.087,jersey_experiment_5_v0,2023.2.2,Win32,84.74576271,,,,,,,,,,,,,,,,728.1603,729.4541,729.4542,730.2424,return,0.0849,,75.390625,,,,,,FBP-YG-18.png,0.37,1.2,22,0.5,,,,,,,,,,,,,0,45,45,21,1,,,,,,,,,,,,,,,,,,,,,,,,,,,,
,,,,,SPR24_026,21,female,2024-04-10_10h03.47.087,jersey_experiment_5_v0,2023.2.2,Win32,84.74576271,,,,,,,,,,,,,,,,730.2426,731.2895,731.2895,732.913,return,0.0756,,75.65104167,,,,,,FBP-OG-71.png,0.35,1.2,1,0.25,,,,,,,,,,,,,0,46,46,0,1,,,,,,,,,,,,,,,,,,,,,,,,,,,,
,,,,,SPR24_026,21,female,2024-04-10_10h03.47.087,jersey_experiment_5_v0,2023.2.2,Win32,84.74576271,,,,,,,,,,,,,,,,732.9133,733.96,733.9601,735.2305,return,0.0653,,85.67708333,,,,,,FBP-RB-17.png,0.4,1.2,33,0.25,,,,,,,,,,,,,0,47,47,32,1,,,,,,,,,,,,,,,,,,,,,,,,,,,,
,,,,,SPR24_026,21,female,2024-04-10_10h03.47.087,jersey_experiment_5_v0,2023.2.2,Win32,84.74576271,,,,,,,,,,,,,,,,735.2308,736.2778,736.2778,737.2544,return,0.0576,,75.26041667,,,,,,FBP-OG-91.png,0.37,1.2,12,0.25,,,,,,,,,,,,,0,48,48,11,1,,,,,,,,,,,,,,,,,,,,,,,,,,,,
,,,,,SPR24_026,21,female,2024-04-10_10h03.47.087,jersey_experiment_5_v0,2023.2.2,Win32,84.74576271,,,,,,,,,,,,,,,,737.2545,738.3014,738.3014,739.8075,return,0.6883,,97.91666667,,,,,,FBP-OG-81.png,0.43,1.2,9,0.25,,,,,,,,,,,,,0,49,49,8,1,,,,,,,,,,,,,,,,,,,,,,,,,,,,
,,,,,SPR24_026,21,female,2024-04-10_10h03.47.087,jersey_experiment_5_v0,2023.2.2,Win32,84.74576271,,,,,,,,,,,,,,,,739.8077,741.1016,741.1016,741.737,return,0.0143,,98.828125,,,,,,FBP-YG-19.png,0.45,1.2,30,0.5,,,,,,,,,,,,,0,50,50,29,1,,,,,,,,,,,,,,,,,,,,,,,,,,,,
,,,,,SPR24_026,21,female,2024-04-10_10h03.47.087,jersey_experiment_5_v0,2023.2.2,Win32,84.74576271,,,,,,,,,,,,,,,,741.7372,743.0311,743.0311,743.9135,return,0.141,,76.5625,,,,,,FBP-YG-17.png,0.35,1.2,16,0.5,,,,,,,,,,,,,0,51,51,15,1,,,,,,,,,,,,,,,,,,,,,,,,,,,,
,,,,,SPR24_026,21,female,2024-04-10_10h03.47.087,jersey_experiment_5_v0,2023.2.2,Win32,84.74576271,,,,,,,,,,,,,,,,743.9137,744.9606,744.9606,745.9725,return,0.1797,,75.91145833,,,,,,FBP-RB-18.png,0.37,1.2,37,0.25,,,,,,,,,,,,,0,52,52,36,1,,,,,,,,,,,,,,,,,,,,,,,,,,,,
,,,,,SPR24_026,21,female,2024-04-10_10h03.47.087,jersey_experiment_5_v0,2023.2.2,Win32,84.74576271,,,,,,,,,,,,,,,,745.9727,747.2668,747.2668,747.9843,return,0.1348,,25.78125,,,,,,FBP-PT-19.png,0.35,1.2,56,0.5,,,,,,,,,,,,,0,53,53,55,1,,,,,,,,,,,,,,,,,,,,,,,,,,,,
,,,,,SPR24_026,21,female,2024-04-10_10h03.47.087,jersey_experiment_5_v0,2023.2.2,Win32,84.74576271,,,,,,,,,,,,,,,,747.9845,749.0315,749.0315,750.4315,return,0.6669,,24.34895833,,,,,,FBP-RB-19.png,0.37,1.2,42,0.25,,,,,,,,,,,,,0,54,54,41,1,,,,,,,,,,,,,,,,,,,,,,,,,,,,
,,,,,SPR24_026,21,female,2024-04-10_10h03.47.087,jersey_experiment_5_v0,2023.2.2,Win32,84.74576271,,,,,,,,,,,,,,,,750.4315,751.4784,751.4784,752.7137,return,0.353,,24.609375,,,,,,FBP-OG-71.png,0.37,1.2,2,0.25,,,,,,,,,,,,,0,55,55,1,1,,,,,,,,,,,,,,,,,,,,,,,,,,,,
,,,,,SPR24_026,21,female,2024-04-10_10h03.47.087,jersey_experiment_5_v0,2023.2.2,Win32,84.74576271,,,,,,,,,,,,,,,,752.714,753.7609,753.761,755.1846,return,0.0396,,74.73958333,,,,,,FBP-RB-19.png,0.4,1.2,43,0.25,,,,,,,,,,,,,0,56,56,42,1,,,,,,,,,,,,,,,,,,,,,,,,,,,,
,,,,,SPR24_026,21,female,2024-04-10_10h03.47.087,jersey_experiment_5_v0,2023.2.2,Win32,84.74576271,,,,,,,,,,,,,,,,755.1848,756.4785,756.4785,757.4433,return,0.0511,,75.52083333,,,,,,FBP-PT-17.png,0.43,1.2,49,0.5,,,,,,,,,,,,,0,57,57,48,1,,,,,,,,,,,,,,,,,,,,,,,,,,,,
,,,,,SPR24_026,21,female,2024-04-10_10h03.47.087,jersey_experiment_5_v0,2023.2.2,Win32,84.74576271,,,,,,,,,,,,,,,,757.4435,758.7374,758.7374,759.667,return,0.1228,,75.52083333,,,,,,FBP-PT-18.png,0.37,1.2,52,0.5,,,,,,,,,,,,,0,58,58,51,1,,,,,,,,,,,,,,,,,,,,,,,,,,,,
,,,,,SPR24_026,21,female,2024-04-10_10h03.47.087,jersey_experiment_5_v0,2023.2.2,Win32,84.74576271,,,,,,,,,,,,,,,,759.6672,760.9613,760.9613,761.7494,return,0.0493,,98.046875,,,,,,FBP-YG-18.png,0.45,1.2,25,0.5,,,,,,,,,,,,,0,59,59,24,1,,,,,,,,,,,,,,,,,,,,,,,,,,,,
,,,,,SPR24_026,21,female,2024-04-10_10h03.47.087,jersey_experiment_5_v0,2023.2.2,Win32,84.74576271,,,,,,,,,,,,,,,,761.7507,762.7965,762.7965,763.7613,return,0.0747,,73.4375,,,,,,FBP-RB-71.png,0.37,1.2,32,0.25,,,,,,,,,,,,,,,,,,0,0,0,31,1,,,,,,,,,,,,,,,,,,,,,,,
,,,,,SPR24_026,21,female,2024-04-10_10h03.47.087,jersey_experiment_5_v0,2023.2.2,Win32,84.74576271,,,,,,,,,,,,,,,,763.7616,764.8082,764.8083,765.7848,return,0.1883,,98.046875,,,,,,FBP-RB-81.png,0.45,1.2,40,0.25,,,,,,,,,,,,,,,,,,0,1,1,39,1,,,,,,,,,,,,,,,,,,,,,,,
,,,,,SPR24_026,21,female,2024-04-10_10h03.47.087,jersey_experiment_5_v0,2023.2.2,Win32,84.74576271,,,,,,,,,,,,,,,,765.785,767.0791,767.0791,767.6554,return,0.1272,,99.34895833,,,,,,FBP-PT-91.png,0.45,1.2,60,0.5,,,,,,,,,,,,,,,,,,0,2,2,59,1,,,,,,,,,,,,,,,,,,,,,,,
,,,,,SPR24_026,21,female,2024-04-10_10h03.47.087,jersey_experiment_5_v0,2023.2.2,Win32,84.74576271,,,,,,,,,,,,,,,,767.6556,768.9496,768.9496,769.738,return,0.0613,,75.13020833,,,,,,FBP-PT-71.png,0.35,1.2,46,0.5,,,,,,,,,,,,,,,,,,0,3,3,45,1,,,,,,,,,,,,,,,,,,,,,,,
,,,,,SPR24_026,21,female,2024-04-10_10h03.47.087,jersey_experiment_5_v0,2023.2.2,Win32,84.74576271,,,,,,,,,,,,,,,,769.7382,771.0322,771.0323,771.5027,return,0.0297,,75.13020833,,,,,,FBP-YG-81.png,0.4,1.2,23,0.5,,,,,,,,,,,,,,,,,,0,4,4,22,1,,,,,,,,,,,,,,,,,,,,,,,
,,,,,SPR24_026,21,female,2024-04-10_10h03.47.087,jersey_experiment_5_v0,2023.2.2,Win32,84.74576271,,,,,,,,,,,,,,,,771.5029,772.5498,772.5499,776.056,return,0.433,,24.609375,,,,,,FBP-OG-18.png,0.35,1.2,6,0.25,,,,,,,,,,,,,,,,,,0,5,5,5,1,,,,,,,,,,,,,,,,,,,,,,,
,,,,,SPR24_026,21,female,2024-04-10_10h03.47.087,jersey_experiment_5_v0,2023.2.2,Win32,84.74576271,,,,,,,,,,,,,,,,776.0563,777.1032,777.1032,778.9618,return,0.0412,,98.828125,,,,,,FBP-OG-18.png,0.43,1.2,9,0.25,,,,,,,,,,,,,,,,,,0,6,6,8,1,,,,,,,,,,,,,,,,,,,,,,,
,,,,,SPR24_026,21,female,2024-04-10_10h03.47.087,jersey_experiment_5_v0,2023.2.2,Win32,84.74576271,,,,,,,,,,,,,,,,778.962,780.2563,780.2563,781.668,return,0.0483,,24.73958333,,,,,,FBP-YG-71.png,0.35,1.2,16,0.5,,,,,,,,,,,,,,,,,,0,7,7,15,1,,,,,,,,,,,,,,,,,,,,,,,
,,,,,SPR24_026,21,female,2024-04-10_10h03.47.087,jersey_experiment_5_v0,2023.2.2,Win32,84.74576271,,,,,,,,,,,,,,,,781.6682,782.7148,782.7148,784.2796,return,0.6587,,75,,,,,,FBP-RB-81.png,0.4,1.2,38,0.25,,,,,,,,,,,,,,,,,,0,8,8,37,1,,,,,,,,,,,,,,,,,,,,,,,
,,,,,SPR24_026,21,female,2024-04-10_10h03.47.087,jersey_experiment_5_v0,2023.2.2,Win32,84.74576271,,,,,,,,,,,,,,,,784.2798,785.3268,785.3269,786.6799,return,0.6261,,98.95833333,,,,,,FBP-OG-19.png,0.45,1.2,15,0.25,,,,,,,,,,,,,,,,,,0,9,9,14,1,,,,,,,,,,,,,,,,,,,,,,,
,,,,,SPR24_026,21,female,2024-04-10_10h03.47.087,jersey_experiment_5_v0,2023.2.2,Win32,84.74576271,,,,,,,,,,,,,,,,786.68,787.7267,787.7267,788.5857,return,0.1174,,99.609375,,,,,,FBP-RB-71.png,0.45,1.2,35,0.25,,,,,,,,,,,,,,,,,,0,10,10,34,1,,,,,,,,,,,,,,,,,,,,,,,
,,,,,SPR24_026,21,female,2024-04-10_10h03.47.087,jersey_experiment_5_v0,2023.2.2,Win32,84.74576271,,,,,,,,,,,,,,,,788.5859,789.88,789.8801,791.0917,return,0.4513,,74.73958333,,,,,,FBP-PT-91.png,0.35,1.2,56,0.5,,,,,,,,,,,,,,,,,,0,11,11,55,1,,,,,,,,,,,,,,,,,,,,,,,
,,,,,SPR24_026,21,female,2024-04-10_10h03.47.087,jersey_experiment_5_v0,2023.2.2,Win32,84.74576271,,,,,,,,,,,,,,,,791.0919,792.1388,792.1388,793.48,return,0.1415,,98.828125,,,,,,FBP-OG-17.png,0.45,1.2,5,0.25,,,,,,,,,,,,,,,,,,0,12,12,4,1,,,,,,,,,,,,,,,,,,,,,,,
,,,,,SPR24_026,21,female,2024-04-10_10h03.47.087,jersey_experiment_5_v0,2023.2.2,Win32,84.74576271,,,,,,,,,,,,,,,,793.4803,794.7743,794.7743,796.1508,return,0.1423,,75,,,,,,FBP-YG-71.png,0.4,1.2,18,0.5,,,,,,,,,,,,,,,,,,0,13,13,17,1,,,,,,,,,,,,,,,,,,,,,,,
,,,,,SPR24_026,21,female,2024-04-10_10h03.47.087,jersey_experiment_5_v0,2023.2.2,Win32,84.74576271,,,,,,,,,,,,,,,,796.151,797.4448,797.4449,798.186,return,0.4379,,75.26041667,,,,,,FBP-PT-91.png,0.4,1.2,58,0.5,,,,,,,,,,,,,,,,,,0,14,14,57,1,,,,,,,,,,,,,,,,,,,,,,,
,,,,,SPR24_026,21,female,2024-04-10_10h03.47.087,jersey_experiment_5_v0,2023.2.2,Win32,84.74576271,,,,,,,,,,,,,,,,798.1862,799.4803,799.4803,801.1392,return,0.5459,,97.13541667,,,,,,FBP-YG-81.png,0.43,1.2,24,0.5,,,,,,,,,,,,,,,,,,0,15,15,23,1,,,,,,,,,,,,,,,,,,,,,,,
,,,,,SPR24_026,21,female,2024-04-10_10h03.47.087,jersey_experiment_5_v0,2023.2.2,Win32,84.74576271,,,,,,,,,,,,,,,,801.1393,802.4334,802.4334,803.3629,return,0.0732,,74.47916667,,,,,,FBP-PT-71.png,0.37,1.2,47,0.5,,,,,,,,,,,,,,,,,,0,16,16,46,1,,,,,,,,,,,,,,,,,,,,,,,
,,,,,SPR24_026,21,female,2024-04-10_10h03.47.087,jersey_experiment_5_v0,2023.2.2,Win32,84.74576271,,,,,,,,,,,,,,,,803.363,804.4098,804.4099,805.3158,return,0.1569,,75.65104167,,,,,,FBP-RB-91.png,0.35,1.2,41,0.25,,,,,,,,,,,,,,,,,,0,17,17,40,1,,,,,,,,,,,,,,,,,,,,,,,
,,,,,SPR24_026,21,female,2024-04-10_10h03.47.087,jersey_experiment_5_v0,2023.2.2,Win32,84.74576271,,,,,,,,,,,,,,,,805.3159,806.61,806.6101,807.2805,return,0.3461,,75.65104167,,,,,,FBP-PT-81.png,0.37,1.2,52,0.5,,,,,,,,,,,,,,,,,,0,18,18,51,1,,,,,,,,,,,,,,,,,,,,,,,
,,,,,SPR24_026,21,female,2024-04-10_10h03.47.087,jersey_experiment_5_v0,2023.2.2,Win32,84.74576271,,,,,,,,,,,,,,,,807.2808,808.5747,808.5747,809.4925,return,0.1541,,98.17708333,,,,,,FBP-PT-71.png,0.45,1.2,50,0.5,,,,,,,,,,,,,,,,,,0,19,19,49,1,,,,,,,,,,,,,,,,,,,,,,,
,,,,,SPR24_026,21,female,2024-04-10_10h03.47.087,jersey_experiment_5_v0,2023.2.2,Win32,84.74576271,,,,,,,,,,,,,,,,809.4927,810.7868,810.7869,813.5514,return,0.7496,,24.47916667,,,,,,FBP-PT-81.png,0.35,1.2,51,0.5,,,,,,,,,,,,,,,,,,0,20,20,50,1,,,,,,,,,,,,,,,,,,,,,,,
,,,,,SPR24_026,21,female,2024-04-10_10h03.47.087,jersey_experiment_5_v0,2023.2.2,Win32,84.74576271,,,,,,,,,,,,,,,,813.5517,814.8456,814.8456,815.7279,return,0.2196,,24.609375,,,,,,FBP-YG-91.png,0.35,1.2,26,0.5,,,,,,,,,,,,,,,,,,0,21,21,25,1,,,,,,,,,,,,,,,,,,,,,,,
,,,,,SPR24_026,21,female,2024-04-10_10h03.47.087,jersey_experiment_5_v0,2023.2.2,Win32,84.74576271,,,,,,,,,,,,,,,,815.7282,817.0222,817.0222,818.0574,return,0.094,,99.08854167,,,,,,FBP-PT-91.png,0.43,1.2,59,0.5,,,,,,,,,,,,,,,,,,0,22,22,58,1,,,,,,,,,,,,,,,,,,,,,,,
,,,,,SPR24_026,21,female,2024-04-10_10h03.47.087,jersey_experiment_5_v0,2023.2.2,Win32,84.74576271,,,,,,,,,,,,,,,,818.0575,819.3516,819.3517,820.4575,return,0.0569,,74.86979167,,,,,,FBP-PT-71.png,0.4,1.2,48,0.5,,,,,,,,,,,,,,,,,,0,23,23,47,1,,,,,,,,,,,,,,,,,,,,,,,
,,,,,SPR24_026,21,female,2024-04-10_10h03.47.087,jersey_experiment_5_v0,2023.2.2,Win32,84.74576271,,,,,,,,,,,,,,,,820.4577,821.7515,821.7515,822.5045,return,0.259,,74.86979167,,,,,,FBP-YG-91.png,0.37,1.2,27,0.5,,,,,,,,,,,,,,,,,,0,24,24,26,1,,,,,,,,,,,,,,,,,,,,,,,
,,,,,SPR24_026,21,female,2024-04-10_10h03.47.087,jersey_experiment_5_v0,2023.2.2,Win32,84.74576271,,,,,,,,,,,,,,,,822.5047,823.5519,823.5519,824.9047,return,0.3616,,98.30729167,,,,,,FBP-RB-91.png,0.45,1.2,45,0.25,,,,,,,,,,,,,,,,,,0,25,25,44,1,,,,,,,,,,,,,,,,,,,,,,,
,,,,,SPR24_026,21,female,2024-04-10_10h03.47.087,jersey_experiment_5_v0,2023.2.2,Win32,84.74576271,,,,,,,,,,,,,,,,824.9048,825.952,825.952,827.0342,return,0.1553,,75.91145833,,,,,,FBP-OG-18.png,0.37,1.2,7,0.25,,,,,,,,,,,,,,,,,,0,26,26,6,1,,,,,,,,,,,,,,,,,,,,,,,
,,,,,SPR24_026,21,female,2024-04-10_10h03.47.087,jersey_experiment_5_v0,2023.2.2,Win32,84.74576271,,,,,,,,,,,,,,,,827.0345,828.0814,828.0814,828.8345,return,0.029,,75.52083333,,,,,,FBP-RB-81.png,0.37,1.2,37,0.25,,,,,,,,,,,,,,,,,,0,27,27,36,1,,,,,,,,,,,,,,,,,,,,,,,
,,,,,SPR24_026,21,female,2024-04-10_10h03.47.087,jersey_experiment_5_v0,2023.2.2,Win32,84.74576271,,,,,,,,,,,,,,,,828.8346,829.8815,829.8816,830.799,return,0.1145,,99.86979167,,,,,,FBP-RB-81.png,0.43,1.2,39,0.25,,,,,,,,,,,,,,,,,,0,28,28,38,1,,,,,,,,,,,,,,,,,,,,,,,
,,,,,SPR24_026,21,female,2024-04-10_10h03.47.087,jersey_experiment_5_v0,2023.2.2,Win32,84.74576271,,,,,,,,,,,,,,,,830.7992,831.8462,831.8463,833.0109,return,0.0263,,74.86979167,,,,,,FBP-OG-19.png,0.37,1.2,12,0.25,,,,,,,,,,,,,,,,,,0,29,29,11,1,,,,,,,,,,,,,,,,,,,,,,,
,,,,,SPR24_026,21,female,2024-04-10_10h03.47.087,jersey_experiment_5_v0,2023.2.2,Win32,84.74576271,,,,,,,,,,,,,,,,833.0111,834.3053,834.3053,835.7287,return,0.5248,,23.828125,,,,,,FBP-YG-81.png,0.35,1.2,21,0.5,,,,,,,,,,,,,,,,,,0,30,30,20,1,,,,,,,,,,,,,,,,,,,,,,,
,,,,,SPR24_026,21,female,2024-04-10_10h03.47.087,jersey_experiment_5_v0,2023.2.2,Win32,84.74576271,,,,,,,,,,,,,,,,835.7289,836.7759,836.7759,838.2817,return,0.0004,,74.47916667,,,,,,FBP-RB-71.png,0.4,1.2,33,0.25,,,,,,,,,,,,,,,,,,0,31,31,32,1,,,,,,,,,,,,,,,,,,,,,,,
,,,,,SPR24_026,21,female,2024-04-10_10h03.47.087,jersey_experiment_5_v0,2023.2.2,Win32,84.74576271,,,,,,,,,,,,,,,,838.282,839.3288,839.3288,840.0231,return,0.1416,,74.47916667,,,,,,FBP-RB-91.png,0.37,1.2,42,0.25,,,,,,,,,,,,,,,,,,0,32,32,41,1,,,,,,,,,,,,,,,,,,,,,,,
,,,,,SPR24_026,21,female,2024-04-10_10h03.47.087,jersey_experiment_5_v0,2023.2.2,Win32,84.74576271,,,,,,,,,,,,,,,,840.0232,841.0701,841.0701,842.1289,return,0.2517,,74.47916667,,,,,,FBP-OG-17.png,0.37,1.2,2,0.25,,,,,,,,,,,,,,,,,,0,33,33,1,1,,,,,,,,,,,,,,,,,,,,,,,
,,,,,SPR24_026,21,female,2024-04-10_10h03.47.087,jersey_experiment_5_v0,2023.2.2,Win32,84.74576271,,,,,,,,,,,,,,,,842.1292,843.1761,843.1761,844.8821,return,0.6884,,97.265625,,,,,,FBP-RB-91.png,0.43,1.2,44,0.25,,,,,,,,,,,,,,,,,,0,34,34,43,1,,,,,,,,,,,,,,,,,,,,,,,
,,,,,SPR24_026,21,female,2024-04-10_10h03.47.087,jersey_experiment_5_v0,2023.2.2,Win32,84.74576271,,,,,,,,,,,,,,,,844.8822,846.1763,846.1764,846.9173,return,0.085,,75.52083333,,,,,,FBP-YG-71.png,0.37,1.2,17,0.5,,,,,,,,,,,,,,,,,,0,35,35,16,1,,,,,,,,,,,,,,,,,,,,,,,
,,,,,SPR24_026,21,female,2024-04-10_10h03.47.087,jersey_experiment_5_v0,2023.2.2,Win32,84.74576271,,,,,,,,,,,,,,,,846.9175,848.2115,848.2115,849.0587,return,0.0638,,99.08854167,,,,,,FBP-PT-81.png,0.45,1.2,55,0.5,,,,,,,,,,,,,,,,,,0,36,36,54,1,,,,,,,,,,,,,,,,,,,,,,,
,,,,,SPR24_026,21,female,2024-04-10_10h03.47.087,jersey_experiment_5_v0,2023.2.2,Win32,84.74576271,,,,,,,,,,,,,,,,849.0589,850.1057,850.1058,851.1763,return,0.0005,,74.73958333,,,,,,FBP-OG-18.png,0.4,1.2,8,0.25,,,,,,,,,,,,,,,,,,0,37,37,7,1,,,,,,,,,,,,,,,,,,,,,,,
,,,,,SPR24_026,21,female,2024-04-10_10h03.47.087,jersey_experiment_5_v0,2023.2.2,Win32,84.74576271,,,,,,,,,,,,,,,,851.1765,852.4706,852.4706,854.1294,return,0.0297,,92.1875,,,,,,FBP-YG-91.png,0.43,1.2,29,0.5,,,,,,,,,,,,,,,,,,0,38,38,28,1,,,,,,,,,,,,,,,,,,,,,,,
,,,,,SPR24_026,21,female,2024-04-10_10h03.47.087,jersey_experiment_5_v0,2023.2.2,Win32,84.74576271,,,,,,,,,,,,,,,,854.1295,855.4237,855.4238,856.2236,return,0.1115,,97.52604167,,,,,,FBP-PT-81.png,0.4,1.2,53,0.5,,,,,,,,,,,,,,,,,,0,39,39,52,1,,,,,,,,,,,,,,,,,,,,,,,
,,,,,SPR24_026,21,female,2024-04-10_10h03.47.087,jersey_experiment_5_v0,2023.2.2,Win32,84.74576271,,,,,,,,,,,,,,,,856.2238,857.5179,857.5179,858.2707,return,0.0563,,75.13020833,,,,,,FBP-YG-81.png,0.37,1.2,22,0.5,,,,,,,,,,,,,,,,,,0,40,40,21,1,,,,,,,,,,,,,,,,,,,,,,,
,,,,,SPR24_026,21,female,2024-04-10_10h03.47.087,jersey_experiment_5_v0,2023.2.2,Win32,84.74576271,,,,,,,,,,,,,,,,858.2709,859.3179,859.3179,860.212,return,0.1191,,98.4375,,,,,,FBP-RB-71.png,0.43,1.2,34,0.25,,,,,,,,,,,,,,,,,,0,41,41,33,1,,,,,,,,,,,,,,,,,,,,,,,
,,,,,SPR24_026,21,female,2024-04-10_10h03.47.087,jersey_experiment_5_v0,2023.2.2,Win32,84.74576271,,,,,,,,,,,,,,,,860.2122,861.2591,861.2592,862.0239,return,0.0617,,98.95833333,,,,,,FBP-OG-19.png,0.4,1.2,13,0.25,,,,,,,,,,,,,,,,,,0,42,42,12,1,,,,,,,,,,,,,,,,,,,,,,,
,,,,,SPR24_026,21,female,2024-04-10_10h03.47.087,jersey_experiment_5_v0,2023.2.2,Win32,84.74576271,,,,,,,,,,,,,,,,862.0241,863.3179,863.3179,863.7298,return,0.1003,,98.95833333,,,,,,FBP-YG-71.png,0.43,1.2,19,0.5,,,,,,,,,,,,,,,,,,0,43,43,18,1,,,,,,,,,,,,,,,,,,,,,,,
,,,,,SPR24_026,21,female,2024-04-10_10h03.47.087,jersey_experiment_5_v0,2023.2.2,Win32,84.74576271,,,,,,,,,,,,,,,,863.7299,864.777,864.777,866.0005,return,0.0427,,75.91145833,,,,,,FBP-RB-81.png,0.35,1.2,36,0.25,,,,,,,,,,,,,,,,,,0,44,44,35,1,,,,,,,,,,,,,,,,,,,,,,,
,,,,,SPR24_026,21,female,2024-04-10_10h03.47.087,jersey_experiment_5_v0,2023.2.2,Win32,84.74576271,,,,,,,,,,,,,,,,866.0007,867.2947,867.2947,869.3183,return,0.085,,93.61979167,,,,,,FBP-YG-91.png,0.4,1.2,28,0.5,,,,,,,,,,,,,,,,,,0,45,45,27,1,,,,,,,,,,,,,,,,,,,,,,,
,,,,,SPR24_026,21,female,2024-04-10_10h03.47.087,jersey_experiment_5_v0,2023.2.2,Win32,84.74576271,,,,,,,,,,,,,,,,869.3186,870.6125,870.6125,871.1418,return,0.0818,,99.08854167,,,,,,FBP-PT-81.png,0.43,1.2,54,0.5,,,,,,,,,,,,,,,,,,0,46,46,53,1,,,,,,,,,,,,,,,,,,,,,,,
,,,,,SPR24_026,21,female,2024-04-10_10h03.47.087,jersey_experiment_5_v0,2023.2.2,Win32,84.74576271,,,,,,,,,,,,,,,,871.142,872.436,872.436,872.9536,return,0.1181,,99.609375,,,,,,FBP-YG-91.png,0.45,1.2,30,0.5,,,,,,,,,,,,,,,,,,0,47,47,29,1,,,,,,,,,,,,,,,,,,,,,,,
,,,,,SPR24_026,21,female,2024-04-10_10h03.47.087,jersey_experiment_5_v0,2023.2.2,Win32,84.74576271,,,,,,,,,,,,,,,,872.9538,874.0008,874.0009,874.9539,return,0.1036,,99.86979167,,,,,,FBP-OG-17.png,0.4,1.2,3,0.25,,,,,,,,,,,,,,,,,,0,48,48,2,1,,,,,,,,,,,,,,,,,,,,,,,
,,,,,SPR24_026,21,female,2024-04-10_10h03.47.087,jersey_experiment_5_v0,2023.2.2,Win32,84.74576271,,,,,,,,,,,,,,,,874.9541,876.0008,876.0009,877.0479,return,0.0942,,74.86979167,,,,,,FBP-RB-71.png,0.35,1.2,31,0.25,,,,,,,,,,,,,,,,,,0,49,49,30,1,,,,,,,,,,,,,,,,,,,,,,,
,,,,,SPR24_026,21,female,2024-04-10_10h03.47.087,jersey_experiment_5_v0,2023.2.2,Win32,84.74576271,,,,,,,,,,,,,,,,877.0482,878.0951,878.0951,878.9539,return,0.1179,,74.86979167,,,,,,FBP-OG-17.png,0.35,1.2,1,0.25,,,,,,,,,,,,,,,,,,0,50,50,0,1,,,,,,,,,,,,,,,,,,,,,,,
,,,,,SPR24_026,21,female,2024-04-10_10h03.47.087,jersey_experiment_5_v0,2023.2.2,Win32,84.74576271,,,,,,,,,,,,,,,,878.954,880.001,880.001,881.2482,return,0.0429,,97.65625,,,,,,FBP-RB-91.png,0.4,1.2,43,0.25,,,,,,,,,,,,,,,,,,0,51,51,42,1,,,,,,,,,,,,,,,,,,,,,,,
,,,,,SPR24_026,21,female,2024-04-10_10h03.47.087,jersey_experiment_5_v0,2023.2.2,Win32,84.74576271,,,,,,,,,,,,,,,,881.2484,882.2951,882.2951,883.1778,return,0.3205,,99.21875,,,,,,FBP-OG-17.png,0.43,1.2,4,0.25,,,,,,,,,,,,,,,,,,0,52,52,3,1,,,,,,,,,,,,,,,,,,,,,,,
,,,,,SPR24_026,21,female,2024-04-10_10h03.47.087,jersey_experiment_5_v0,2023.2.2,Win32,84.74576271,,,,,,,,,,,,,,,,883.178,884.4717,884.4718,884.8365,return,0.0504,,99.08854167,,,,,,FBP-PT-71.png,0.43,1.2,49,0.5,,,,,,,,,,,,,,,,,,0,53,53,48,1,,,,,,,,,,,,,,,,,,,,,,,
,,,,,SPR24_026,21,female,2024-04-10_10h03.47.087,jersey_experiment_5_v0,2023.2.2,Win32,84.74576271,,,,,,,,,,,,,,,,884.8367,886.1306,886.1307,886.6013,return,0.1036,,99.609375,,,,,,FBP-YG-81.png,0.45,1.2,25,0.5,,,,,,,,,,,,,,,,,,0,54,54,24,1,,,,,,,,,,,,,,,,,,,,,,,
,,,,,SPR24_026,21,female,2024-04-10_10h03.47.087,jersey_experiment_5_v0,2023.2.2,Win32,84.74576271,,,,,,,,,,,,,,,,886.6015,887.8954,887.8954,888.4955,return,0.1377,,98.30729167,,,,,,FBP-YG-71.png,0.45,1.2,20,0.5,,,,,,,,,,,,,,,,,,0,55,55,19,1,,,,,,,,,,,,,,,,,,,,,,,
,,,,,SPR24_026,21,female,2024-04-10_10h03.47.087,jersey_experiment_5_v0,2023.2.2,Win32,84.74576271,,,,,,,,,,,,,,,,888.4957,889.5426,889.5426,890.6604,return,0.0484,,74.34895833,,,,,,FBP-OG-19.png,0.35,1.2,11,0.25,,,,,,,,,,,,,,,,,,0,56,56,10,1,,,,,,,,,,,,,,,,,,,,,,,
,,,,,SPR24_026,21,female,2024-04-10_10h03.47.087,jersey_experiment_5_v0,2023.2.2,Win32,84.74576271,,,,,,,,,,,,,,,,890.6605,891.7073,891.7073,892.5663,return,0.0617,,99.47916667,,,,,,FBP-OG-18.png,0.45,1.2,10,0.25,,,,,,,,,,,,,,,,,,0,57,57,9,1,,,,,,,,,,,,,,,,,,,,,,,
,,,,,SPR24_026,21,female,2024-04-10_10h03.47.087,jersey_experiment_5_v0,2023.2.2,Win32,84.74576271,,,,,,,,,,,,,,,,892.5665,893.8604,893.8604,894.6958,return,0.0338,,74.609375,,,,,,FBP-PT-91.png,0.37,1.2,57,0.5,,,,,,,,,,,,,,,,,,0,58,58,56,1,,,,,,,,,,,,,,,,,,,,,,,
,,,,,SPR24_026,21,female,2024-04-10_10h03.47.087,jersey_experiment_5_v0,2023.2.2,Win32,84.74576271,,,,,,,,,,,,,,,,894.6961,895.743,895.743,897.5783,return,0.0614,,99.609375,,,,,,FBP-OG-19.png,0.43,1.2,14,0.25,,,,,,,,,,,,,,,,,,0,59,59,13,1,,,,,,,,,,,,,,,,,,,,,,,
,,,,,SPR24_026,21,female,2024-04-10_10h03.47.087,jersey_experiment_5_v0,2023.2.2,Win32,84.74576271,,,,,,,,,,,,,,,,,,,,,,,,,,,,,,,,,,,,,,,,,,,,,,,,,,,,,,,,897.5786,900.6491,return,3.0571,,,,,,,,,,,,,,,,,,,
,,,,,SPR24_026,21,female,2024-04-10_10h03.47.087,jersey_experiment_5_v0,2023.2.2,Win32,84.74576271,,,,,,,,,,,,,,,,,,,,,,,,,,,,,,,,,,,,,,,,,,,,,,,,,,,,,,,,,,,,,900.6491,903.1553,1,1.8828,return,0.6049,,,,,,,,,,,,
,,,,,SPR24_026,21,female,2024-04-10_10h03.47.087,jersey_experiment_5_v0,2023.2.2,Win32,84.74576271,,,,,,,,,,,,,,,,,,,,,,,,,,,,,,,,,,,,,,,,,,,,,,,,,,,,,,,,,,,,,,,,,,,,903.1554,927.7847,"No, I don't have an idea ",right,15.7317,,,,,,
,,,,,SPR24_026,21,female,2024-04-10_10h03.47.087,jersey_experiment_5_v0,2023.2.2,Win32,84.74576271,,,,,,,,,,,,,,,,,,,,,,,,,,,,,,,,,,,,,,,,,,,,,,,,,,,,,,,,,,,,,,,,,,,,,,,,,,927.7849,929.9442,return,2.1459,