requirements.started,requirements.stopped,key_resp_3.keys,key_resp_3.rt,key_resp_3.duration,Subject ID,Age,Gender,date,expName,psychopyVersion,OS,frameRate,instructions1.started,instructions1.stopped,key_resp.keys,key_resp.rt,key_resp.duration,example.started,example.stopped,enter_2.keys,enter_2.rt,enter_2.duration,instructions2.started,instructions2.stopped,enter_3.keys,enter_3.rt,enter_3.duration,image.started,image.stopped,slider_2.started,slider_2.stopped,next.keys,next.rt,next.duration,slider.response,trial_block_1.thisRepN,trial_block_1.thisTrialN,trial_block_1.thisN,trial_block_1.thisIndex,trial_block_1.ran,Path,Width,Height,Index,Duration,trial_block_2.thisRepN,trial_block_2.thisTrialN,trial_block_2.thisN,trial_block_2.thisIndex,trial_block_2.ran,rest_break.started,rest_break.stopped,end_break.started,end_break.stopped,key_resp_5.keys,key_resp_5.rt,key_resp_5.duration,trial_block_3.thisRepN,trial_block_3.thisTrialN,trial_block_3.thisN,trial_block_3.thisIndex,trial_block_3.ran,trial_block_4.thisRepN,trial_block_4.thisTrialN,trial_block_4.thisN,trial_block_4.thisIndex,trial_block_4.ran,questions_intro.started,questions_intro.stopped,enter_12.keys,enter_12.rt,enter_12.duration,question2.started,question2.stopped,question_doingbest.response,question_doingbest.rt,enter_15.keys,enter_15.rt,enter_15.duration,pattern.started,pattern.stopped,pattern_2.text,enter_17.keys,enter_17.rt,enter_17.duration,thankyou.started,thankyou.stopped,enter_14.keys,enter_14.rt,enter_14.duration
0.0001,10.5938,return,10.5888,,SPR24_065,19,female,2024-04-18_14h02.53.506,jersey_experiment_5_v0,2023.2.2,Win32,84.74576271,,,,,,,,,,,,,,,,,,,,,,,,,,,,,,,,,,,,,,,,,,,,,,,,,,,,,,,,,,,,,,,,,,,,,,,,,,,,,,
,,,,,SPR24_065,19,female,2024-04-18_14h02.53.506,jersey_experiment_5_v0,2023.2.2,Win32,84.74576271,10.5939,18.3543,return,7.7515,,,,,,,,,,,,,,,,,,,,,,,,,,,,,,,,,,,,,,,,,,,,,,,,,,,,,,,,,,,,,,,,,,,,,,,,,,
,,,,,SPR24_065,19,female,2024-04-18_14h02.53.506,jersey_experiment_5_v0,2023.2.2,Win32,84.74576271,,,,,,18.3544,22.1392,return,3.7471,,,,,,,,,,,,,,,,,,,,,,,,,,,,,,,,,,,,,,,,,,,,,,,,,,,,,,,,,,,,,,,,,,,,,
,,,,,SPR24_065,19,female,2024-04-18_14h02.53.506,jersey_experiment_5_v0,2023.2.2,Win32,84.74576271,,,,,,,,,,,22.1392,43.9547,return,21.7992,,,,,,,,,,,,,,,,,,,,,,,,,,,,,,,,,,,,,,,,,,,,,,,,,,,,,,,,,,,,,,,,
,,,,,SPR24_065,19,female,2024-04-18_14h02.53.506,jersey_experiment_5_v0,2023.2.2,Win32,84.74576271,,,,,,,,,,,,,,,,43.9617,45.0135,45.0136,55.0578,return,2.8279,,50.65104167,0,0,0,56,1,FBP-PT-19.png,0.37,1.2,57,0.25,,,,,,,,,,,,,,,,,,,,,,,,,,,,,,,,,,,,,,,,,,,,,
,,,,,SPR24_065,19,female,2024-04-18_14h02.53.506,jersey_experiment_5_v0,2023.2.2,Win32,84.74576271,,,,,,,,,,,,,,,,55.0581,56.1045,56.1046,59.5283,return,1.2941,,75.13020833,0,1,1,23,1,FBP-YG-18.png,0.43,1.2,24,0.25,,,,,,,,,,,,,,,,,,,,,,,,,,,,,,,,,,,,,,,,,,,,,
,,,,,SPR24_065,19,female,2024-04-18_14h02.53.506,jersey_experiment_5_v0,2023.2.2,Win32,84.74576271,,,,,,,,,,,,,,,,59.5286,60.8224,60.8225,64.5991,return,1.319,,70.83333333,0,2,2,32,1,FBP-RB-17.png,0.4,1.2,33,0.5,,,,,,,,,,,,,,,,,,,,,,,,,,,,,,,,,,,,,,,,,,,,,
,,,,,SPR24_065,19,female,2024-04-18_14h02.53.506,jersey_experiment_5_v0,2023.2.2,Win32,84.74576271,,,,,,,,,,,,,,,,64.5993,65.8931,65.8931,69.0348,return,0.5652,,66.015625,0,3,3,36,1,FBP-RB-18.png,0.37,1.2,37,0.5,,,,,,,,,,,,,,,,,,,,,,,,,,,,,,,,,,,,,,,,,,,,,
,,,,,SPR24_065,19,female,2024-04-18_14h02.53.506,jersey_experiment_5_v0,2023.2.2,Win32,84.74576271,,,,,,,,,,,,,,,,69.0349,70.3286,70.3287,72.776,return,0.7767,,88.54166667,0,4,4,44,1,FBP-RB-19.png,0.45,1.2,45,0.5,,,,,,,,,,,,,,,,,,,,,,,,,,,,,,,,,,,,,,,,,,,,,
,,,,,SPR24_065,19,female,2024-04-18_14h02.53.506,jersey_experiment_5_v0,2023.2.2,Win32,84.74576271,,,,,,,,,,,,,,,,72.7761,73.8231,73.8232,76.0701,return,0.5552,,81.51041667,0,5,5,58,1,FBP-PT-19.png,0.43,1.2,59,0.25,,,,,,,,,,,,,,,,,,,,,,,,,,,,,,,,,,,,,,,,,,,,,
,,,,,SPR24_065,19,female,2024-04-18_14h02.53.506,jersey_experiment_5_v0,2023.2.2,Win32,84.74576271,,,,,,,,,,,,,,,,76.0704,77.117,77.1171,78.8349,return,0.4384,,81.77083333,0,6,6,24,1,FBP-YG-18.png,0.45,1.2,25,0.25,,,,,,,,,,,,,,,,,,,,,,,,,,,,,,,,,,,,,,,,,,,,,
,,,,,SPR24_065,19,female,2024-04-18_14h02.53.506,jersey_experiment_5_v0,2023.2.2,Win32,84.74576271,,,,,,,,,,,,,,,,78.8351,79.882,79.882,83.0467,return,0.8815,,49.34895833,0,7,7,51,1,FBP-PT-18.png,0.37,1.2,52,0.25,,,,,,,,,,,,,,,,,,,,,,,,,,,,,,,,,,,,,,,,,,,,,
,,,,,SPR24_065,19,female,2024-04-18_14h02.53.506,jersey_experiment_5_v0,2023.2.2,Win32,84.74576271,,,,,,,,,,,,,,,,83.0469,84.3409,84.3409,86.1056,return,0.3393,,62.36979167,0,8,8,34,1,FBP-RB-17.png,0.45,1.2,35,0.5,,,,,,,,,,,,,,,,,,,,,,,,,,,,,,,,,,,,,,,,,,,,,
,,,,,SPR24_065,19,female,2024-04-18_14h02.53.506,jersey_experiment_5_v0,2023.2.2,Win32,84.74576271,,,,,,,,,,,,,,,,86.1057,87.3997,87.3997,89.3058,return,0.4098,,62.36979167,0,9,9,8,1,FBP-OG-81.png,0.43,1.2,9,0.5,,,,,,,,,,,,,,,,,,,,,,,,,,,,,,,,,,,,,,,,,,,,,
,,,,,SPR24_065,19,female,2024-04-18_14h02.53.506,jersey_experiment_5_v0,2023.2.2,Win32,84.74576271,,,,,,,,,,,,,,,,89.3061,90.5998,90.5999,92.4709,return,0.4856,,59.63541667,0,10,10,37,1,FBP-RB-18.png,0.4,1.2,38,0.5,,,,,,,,,,,,,,,,,,,,,,,,,,,,,,,,,,,,,,,,,,,,,
,,,,,SPR24_065,19,female,2024-04-18_14h02.53.506,jersey_experiment_5_v0,2023.2.2,Win32,84.74576271,,,,,,,,,,,,,,,,92.4711,93.7648,93.7648,95.6824,return,0.4157,,66.66666667,0,11,11,38,1,FBP-RB-18.png,0.43,1.2,39,0.5,,,,,,,,,,,,,,,,,,,,,,,,,,,,,,,,,,,,,,,,,,,,,
,,,,,SPR24_065,19,female,2024-04-18_14h02.53.506,jersey_experiment_5_v0,2023.2.2,Win32,84.74576271,,,,,,,,,,,,,,,,95.6826,96.7295,96.7295,98.6473,return,0.4342,,24.34895833,0,12,12,20,1,FBP-YG-18.png,0.35,1.2,21,0.25,,,,,,,,,,,,,,,,,,,,,,,,,,,,,,,,,,,,,,,,,,,,,
,,,,,SPR24_065,19,female,2024-04-18_14h02.53.506,jersey_experiment_5_v0,2023.2.2,Win32,84.74576271,,,,,,,,,,,,,,,,98.6476,99.9414,99.9415,101.2239,return,0.1873,,25.13020833,0,13,13,31,1,FBP-RB-17.png,0.37,1.2,32,0.5,,,,,,,,,,,,,,,,,,,,,,,,,,,,,,,,,,,,,,,,,,,,,
,,,,,SPR24_065,19,female,2024-04-18_14h02.53.506,jersey_experiment_5_v0,2023.2.2,Win32,84.74576271,,,,,,,,,,,,,,,,101.2241,102.518,102.5181,103.777,return,0.2427,,25.13020833,0,14,14,41,1,FBP-RB-19.png,0.37,1.2,42,0.5,,,,,,,,,,,,,,,,,,,,,,,,,,,,,,,,,,,,,,,,,,,,,
,,,,,SPR24_065,19,female,2024-04-18_14h02.53.506,jersey_experiment_5_v0,2023.2.2,Win32,84.74576271,,,,,,,,,,,,,,,,103.7772,104.824,104.8241,106.6475,return,0.2697,,25,0,15,15,45,1,FBP-PT-17.png,0.35,1.2,46,0.25,,,,,,,,,,,,,,,,,,,,,,,,,,,,,,,,,,,,,,,,,,,,,
,,,,,SPR24_065,19,female,2024-04-18_14h02.53.506,jersey_experiment_5_v0,2023.2.2,Win32,84.74576271,,,,,,,,,,,,,,,,106.6477,107.6947,107.6947,108.9535,return,0.1991,,25,0,16,16,16,1,FBP-YG-17.png,0.37,1.2,17,0.25,,,,,,,,,,,,,,,,,,,,,,,,,,,,,,,,,,,,,,,,,,,,,
,,,,,SPR24_065,19,female,2024-04-18_14h02.53.506,jersey_experiment_5_v0,2023.2.2,Win32,84.74576271,,,,,,,,,,,,,,,,108.9538,110.2476,110.2476,111.4124,return,0.2379,,25,0,17,17,11,1,FBP-OG-91.png,0.37,1.2,12,0.5,,,,,,,,,,,,,,,,,,,,,,,,,,,,,,,,,,,,,,,,,,,,,
,,,,,SPR24_065,19,female,2024-04-18_14h02.53.506,jersey_experiment_5_v0,2023.2.2,Win32,84.74576271,,,,,,,,,,,,,,,,111.4127,112.7067,112.7068,114.4009,return,0.2404,,25,0,18,18,7,1,FBP-OG-81.png,0.4,1.2,8,0.5,,,,,,,,,,,,,,,,,,,,,,,,,,,,,,,,,,,,,,,,,,,,,
,,,,,SPR24_065,19,female,2024-04-18_14h02.53.506,jersey_experiment_5_v0,2023.2.2,Win32,84.74576271,,,,,,,,,,,,,,,,114.4012,115.4478,115.4478,117.2246,return,0.2119,,33.46354167,0,19,19,18,1,FBP-YG-17.png,0.43,1.2,19,0.25,,,,,,,,,,,,,,,,,,,,,,,,,,,,,,,,,,,,,,,,,,,,,
,,,,,SPR24_065,19,female,2024-04-18_14h02.53.506,jersey_experiment_5_v0,2023.2.2,Win32,84.74576271,,,,,,,,,,,,,,,,117.2249,118.2714,118.2715,120.2481,return,0.1279,,78.38541667,0,20,20,49,1,FBP-PT-17.png,0.45,1.2,50,0.25,,,,,,,,,,,,,,,,,,,,,,,,,,,,,,,,,,,,,,,,,,,,,
,,,,,SPR24_065,19,female,2024-04-18_14h02.53.506,jersey_experiment_5_v0,2023.2.2,Win32,84.74576271,,,,,,,,,,,,,,,,120.2483,121.5422,121.5423,123.507,return,0.135,,24.73958333,0,21,21,5,1,FBP-OG-81.png,0.35,1.2,6,0.5,,,,,,,,,,,,,,,,,,,,,,,,,,,,,,,,,,,,,,,,,,,,,
,,,,,SPR24_065,19,female,2024-04-18_14h02.53.506,jersey_experiment_5_v0,2023.2.2,Win32,84.74576271,,,,,,,,,,,,,,,,123.5073,124.554,124.554,127.3188,return,0.9308,,43.61979167,0,22,22,59,1,FBP-PT-19.png,0.45,1.2,60,0.25,,,,,,,,,,,,,,,,,,,,,,,,,,,,,,,,,,,,,,,,,,,,,
,,,,,SPR24_065,19,female,2024-04-18_14h02.53.506,jersey_experiment_5_v0,2023.2.2,Win32,84.74576271,,,,,,,,,,,,,,,,127.3191,128.6129,128.613,129.8718,return,0.136,,64.58333333,0,23,23,14,1,FBP-OG-91.png,0.45,1.2,15,0.5,,,,,,,,,,,,,,,,,,,,,,,,,,,,,,,,,,,,,,,,,,,,,
,,,,,SPR24_065,19,female,2024-04-18_14h02.53.506,jersey_experiment_5_v0,2023.2.2,Win32,84.74576271,,,,,,,,,,,,,,,,129.8721,131.1659,131.1659,131.8601,return,0.0729,,67.578125,0,24,24,3,1,FBP-OG-71.png,0.43,1.2,4,0.5,,,,,,,,,,,,,,,,,,,,,,,,,,,,,,,,,,,,,,,,,,,,,
,,,,,SPR24_065,19,female,2024-04-18_14h02.53.506,jersey_experiment_5_v0,2023.2.2,Win32,84.74576271,,,,,,,,,,,,,,,,131.8604,133.1544,133.1544,134.0016,return,0.0976,,84.375,0,25,25,9,1,FBP-OG-81.png,0.45,1.2,10,0.5,,,,,,,,,,,,,,,,,,,,,,,,,,,,,,,,,,,,,,,,,,,,,
,,,,,SPR24_065,19,female,2024-04-18_14h02.53.506,jersey_experiment_5_v0,2023.2.2,Win32,84.74576271,,,,,,,,,,,,,,,,134.0017,135.2956,135.2957,137.519,return,0.1127,,24.34895833,0,26,26,30,1,FBP-RB-17.png,0.35,1.2,31,0.5,,,,,,,,,,,,,,,,,,,,,,,,,,,,,,,,,,,,,,,,,,,,,
,,,,,SPR24_065,19,female,2024-04-18_14h02.53.506,jersey_experiment_5_v0,2023.2.2,Win32,84.74576271,,,,,,,,,,,,,,,,137.5192,138.5663,138.5664,139.6488,return,0.0662,,24.34895833,0,27,27,25,1,FBP-YG-19.png,0.35,1.2,26,0.25,,,,,,,,,,,,,,,,,,,,,,,,,,,,,,,,,,,,,,,,,,,,,
,,,,,SPR24_065,19,female,2024-04-18_14h02.53.506,jersey_experiment_5_v0,2023.2.2,Win32,84.74576271,,,,,,,,,,,,,,,,139.649,140.6957,140.6958,142.2606,return,0.1331,,99.34895833,0,28,28,19,1,FBP-YG-17.png,0.45,1.2,20,0.25,,,,,,,,,,,,,,,,,,,,,,,,,,,,,,,,,,,,,,,,,,,,,
,,,,,SPR24_065,19,female,2024-04-18_14h02.53.506,jersey_experiment_5_v0,2023.2.2,Win32,84.74576271,,,,,,,,,,,,,,,,142.2608,143.3075,143.3076,144.4725,return,0.1786,,95.44270833,0,29,29,52,1,FBP-PT-18.png,0.4,1.2,53,0.25,,,,,,,,,,,,,,,,,,,,,,,,,,,,,,,,,,,,,,,,,,,,,
,,,,,SPR24_065,19,female,2024-04-18_14h02.53.506,jersey_experiment_5_v0,2023.2.2,Win32,84.74576271,,,,,,,,,,,,,,,,144.4726,145.7666,145.7666,148.0372,return,0.1312,,30.859375,0,30,30,0,1,FBP-OG-71.png,0.35,1.2,1,0.5,,,,,,,,,,,,,,,,,,,,,,,,,,,,,,,,,,,,,,,,,,,,,
,,,,,SPR24_065,19,female,2024-04-18_14h02.53.506,jersey_experiment_5_v0,2023.2.2,Win32,84.74576271,,,,,,,,,,,,,,,,148.0375,149.3313,149.3313,150.4727,return,0.0613,,60.67708333,0,31,31,43,1,FBP-RB-19.png,0.43,1.2,44,0.5,,,,,,,,,,,,,,,,,,,,,,,,,,,,,,,,,,,,,,,,,,,,,
,,,,,SPR24_065,19,female,2024-04-18_14h02.53.506,jersey_experiment_5_v0,2023.2.2,Win32,84.74576271,,,,,,,,,,,,,,,,150.4729,151.7668,151.7669,152.8846,return,0.0272,,24.34895833,0,32,32,35,1,FBP-RB-18.png,0.35,1.2,36,0.5,,,,,,,,,,,,,,,,,,,,,,,,,,,,,,,,,,,,,,,,,,,,,
,,,,,SPR24_065,19,female,2024-04-18_14h02.53.506,jersey_experiment_5_v0,2023.2.2,Win32,84.74576271,,,,,,,,,,,,,,,,152.8848,154.1787,154.1787,157.2024,return,0.1448,,40.75520833,0,33,33,42,1,FBP-RB-19.png,0.4,1.2,43,0.5,,,,,,,,,,,,,,,,,,,,,,,,,,,,,,,,,,,,,,,,,,,,,
,,,,,SPR24_065,19,female,2024-04-18_14h02.53.506,jersey_experiment_5_v0,2023.2.2,Win32,84.74576271,,,,,,,,,,,,,,,,157.2026,158.2493,158.2493,159.6729,return,0.0716,,50.65104167,0,34,34,57,1,FBP-PT-19.png,0.4,1.2,58,0.25,,,,,,,,,,,,,,,,,,,,,,,,,,,,,,,,,,,,,,,,,,,,,
,,,,,SPR24_065,19,female,2024-04-18_14h02.53.506,jersey_experiment_5_v0,2023.2.2,Win32,84.74576271,,,,,,,,,,,,,,,,159.6732,160.7199,160.72,162.4967,return,0.0899,,69.40104167,0,35,35,53,1,FBP-PT-18.png,0.43,1.2,54,0.25,,,,,,,,,,,,,,,,,,,,,,,,,,,,,,,,,,,,,,,,,,,,,
,,,,,SPR24_065,19,female,2024-04-18_14h02.53.506,jersey_experiment_5_v0,2023.2.2,Win32,84.74576271,,,,,,,,,,,,,,,,162.4968,163.5437,163.5437,165.0615,return,0.0852,,89.71354167,0,36,36,54,1,FBP-PT-18.png,0.45,1.2,55,0.25,,,,,,,,,,,,,,,,,,,,,,,,,,,,,,,,,,,,,,,,,,,,,
,,,,,SPR24_065,19,female,2024-04-18_14h02.53.506,jersey_experiment_5_v0,2023.2.2,Win32,84.74576271,,,,,,,,,,,,,,,,165.0618,166.1085,166.1086,168.7556,return,0.7088,,25.52083333,0,37,37,21,1,FBP-YG-18.png,0.37,1.2,22,0.25,,,,,,,,,,,,,,,,,,,,,,,,,,,,,,,,,,,,,,,,,,,,,
,,,,,SPR24_065,19,female,2024-04-18_14h02.53.506,jersey_experiment_5_v0,2023.2.2,Win32,84.74576271,,,,,,,,,,,,,,,,168.7558,169.8027,169.8028,171.0263,return,0.1235,,51.82291667,0,38,38,48,1,FBP-PT-17.png,0.43,1.2,49,0.25,,,,,,,,,,,,,,,,,,,,,,,,,,,,,,,,,,,,,,,,,,,,,
,,,,,SPR24_065,19,female,2024-04-18_14h02.53.506,jersey_experiment_5_v0,2023.2.2,Win32,84.74576271,,,,,,,,,,,,,,,,171.0265,172.0734,172.0734,173.5911,return,0.2128,,67.44791667,0,39,39,22,1,FBP-YG-18.png,0.4,1.2,23,0.25,,,,,,,,,,,,,,,,,,,,,,,,,,,,,,,,,,,,,,,,,,,,,
,,,,,SPR24_065,19,female,2024-04-18_14h02.53.506,jersey_experiment_5_v0,2023.2.2,Win32,84.74576271,,,,,,,,,,,,,,,,173.5913,174.8852,174.8852,177.05,return,0.1517,,48.95833333,0,40,40,12,1,FBP-OG-91.png,0.4,1.2,13,0.5,,,,,,,,,,,,,,,,,,,,,,,,,,,,,,,,,,,,,,,,,,,,,
,,,,,SPR24_065,19,female,2024-04-18_14h02.53.506,jersey_experiment_5_v0,2023.2.2,Win32,84.74576271,,,,,,,,,,,,,,,,177.0502,178.3441,178.3441,180.0267,return,0.1418,,25,0,41,41,6,1,FBP-OG-81.png,0.37,1.2,7,0.5,,,,,,,,,,,,,,,,,,,,,,,,,,,,,,,,,,,,,,,,,,,,,
,,,,,SPR24_065,19,female,2024-04-18_14h02.53.506,jersey_experiment_5_v0,2023.2.2,Win32,84.74576271,,,,,,,,,,,,,,,,180.0269,181.3208,181.3208,184.1681,return,0.7052,,60.15625,0,42,42,39,1,FBP-RB-18.png,0.45,1.2,40,0.5,,,,,,,,,,,,,,,,,,,,,,,,,,,,,,,,,,,,,,,,,,,,,
,,,,,SPR24_065,19,female,2024-04-18_14h02.53.506,jersey_experiment_5_v0,2023.2.2,Win32,84.74576271,,,,,,,,,,,,,,,,184.1683,185.462,185.4622,186.5445,return,0.1936,,25.78125,0,43,43,40,1,FBP-RB-19.png,0.35,1.2,41,0.5,,,,,,,,,,,,,,,,,,,,,,,,,,,,,,,,,,,,,,,,,,,,,
,,,,,SPR24_065,19,female,2024-04-18_14h02.53.506,jersey_experiment_5_v0,2023.2.2,Win32,84.74576271,,,,,,,,,,,,,,,,186.5447,187.8386,187.8387,188.5326,return,0.108,,25.13020833,0,44,44,1,1,FBP-OG-71.png,0.37,1.2,2,0.5,,,,,,,,,,,,,,,,,,,,,,,,,,,,,,,,,,,,,,,,,,,,,
,,,,,SPR24_065,19,female,2024-04-18_14h02.53.506,jersey_experiment_5_v0,2023.2.2,Win32,84.74576271,,,,,,,,,,,,,,,,188.533,189.5799,189.5799,190.3915,return,0.1885,,25.13020833,0,45,45,55,1,FBP-PT-19.png,0.35,1.2,56,0.25,,,,,,,,,,,,,,,,,,,,,,,,,,,,,,,,,,,,,,,,,,,,,
,,,,,SPR24_065,19,female,2024-04-18_14h02.53.506,jersey_experiment_5_v0,2023.2.2,Win32,84.74576271,,,,,,,,,,,,,,,,190.3918,191.4387,191.4387,192.4976,return,0.0985,,27.86458333,0,46,46,47,1,FBP-PT-17.png,0.4,1.2,48,0.25,,,,,,,,,,,,,,,,,,,,,,,,,,,,,,,,,,,,,,,,,,,,,
,,,,,SPR24_065,19,female,2024-04-18_14h02.53.506,jersey_experiment_5_v0,2023.2.2,Win32,84.74576271,,,,,,,,,,,,,,,,192.4978,193.5446,193.5447,194.8152,return,0.1355,,82.68229167,0,47,47,29,1,FBP-YG-19.png,0.45,1.2,30,0.25,,,,,,,,,,,,,,,,,,,,,,,,,,,,,,,,,,,,,,,,,,,,,
,,,,,SPR24_065,19,female,2024-04-18_14h02.53.506,jersey_experiment_5_v0,2023.2.2,Win32,84.74576271,,,,,,,,,,,,,,,,194.8154,195.8626,195.8627,197.1213,return,0.101,,28.90625,0,48,48,26,1,FBP-YG-19.png,0.37,1.2,27,0.25,,,,,,,,,,,,,,,,,,,,,,,,,,,,,,,,,,,,,,,,,,,,,
,,,,,SPR24_065,19,female,2024-04-18_14h02.53.506,jersey_experiment_5_v0,2023.2.2,Win32,84.74576271,,,,,,,,,,,,,,,,197.1216,198.1683,198.1684,199.204,return,0.0968,,25.78125,0,49,49,46,1,FBP-PT-17.png,0.37,1.2,47,0.25,,,,,,,,,,,,,,,,,,,,,,,,,,,,,,,,,,,,,,,,,,,,,
,,,,,SPR24_065,19,female,2024-04-18_14h02.53.506,jersey_experiment_5_v0,2023.2.2,Win32,84.74576271,,,,,,,,,,,,,,,,199.2042,200.2508,200.2508,202.4155,return,0.2204,,65.625,0,50,50,28,1,FBP-YG-19.png,0.43,1.2,29,0.25,,,,,,,,,,,,,,,,,,,,,,,,,,,,,,,,,,,,,,,,,,,,,
,,,,,SPR24_065,19,female,2024-04-18_14h02.53.506,jersey_experiment_5_v0,2023.2.2,Win32,84.74576271,,,,,,,,,,,,,,,,202.4157,203.7098,203.7098,204.804,return,0.144,,88.80208333,0,51,51,4,1,FBP-OG-71.png,0.45,1.2,5,0.5,,,,,,,,,,,,,,,,,,,,,,,,,,,,,,,,,,,,,,,,,,,,,
,,,,,SPR24_065,19,female,2024-04-18_14h02.53.506,jersey_experiment_5_v0,2023.2.2,Win32,84.74576271,,,,,,,,,,,,,,,,204.8043,206.0982,206.0983,207.6394,return,0.2595,,70.05208333,0,52,52,2,1,FBP-OG-71.png,0.4,1.2,3,0.5,,,,,,,,,,,,,,,,,,,,,,,,,,,,,,,,,,,,,,,,,,,,,
,,,,,SPR24_065,19,female,2024-04-18_14h02.53.506,jersey_experiment_5_v0,2023.2.2,Win32,84.74576271,,,,,,,,,,,,,,,,207.6395,208.6864,208.6864,209.8982,return,0.1751,,58.203125,0,53,53,50,1,FBP-PT-18.png,0.35,1.2,51,0.25,,,,,,,,,,,,,,,,,,,,,,,,,,,,,,,,,,,,,,,,,,,,,
,,,,,SPR24_065,19,female,2024-04-18_14h02.53.506,jersey_experiment_5_v0,2023.2.2,Win32,84.74576271,,,,,,,,,,,,,,,,209.8984,210.9453,210.9454,212.6276,return,0.0852,,25.390625,0,54,54,15,1,FBP-YG-17.png,0.35,1.2,16,0.25,,,,,,,,,,,,,,,,,,,,,,,,,,,,,,,,,,,,,,,,,,,,,
,,,,,SPR24_065,19,female,2024-04-18_14h02.53.506,jersey_experiment_5_v0,2023.2.2,Win32,84.74576271,,,,,,,,,,,,,,,,212.6278,213.9219,213.9219,214.8986,return,0.0988,,74.73958333,0,55,55,33,1,FBP-RB-17.png,0.43,1.2,34,0.5,,,,,,,,,,,,,,,,,,,,,,,,,,,,,,,,,,,,,,,,,,,,,
,,,,,SPR24_065,19,female,2024-04-18_14h02.53.506,jersey_experiment_5_v0,2023.2.2,Win32,84.74576271,,,,,,,,,,,,,,,,214.8988,215.9455,215.9455,217.6985,return,0.1213,,63.41145833,0,56,56,27,1,FBP-YG-19.png,0.4,1.2,28,0.25,,,,,,,,,,,,,,,,,,,,,,,,,,,,,,,,,,,,,,,,,,,,,
,,,,,SPR24_065,19,female,2024-04-18_14h02.53.506,jersey_experiment_5_v0,2023.2.2,Win32,84.74576271,,,,,,,,,,,,,,,,217.6987,218.9925,218.9926,219.8162,return,0.1541,,81.11979167,0,57,57,13,1,FBP-OG-91.png,0.43,1.2,14,0.5,,,,,,,,,,,,,,,,,,,,,,,,,,,,,,,,,,,,,,,,,,,,,
,,,,,SPR24_065,19,female,2024-04-18_14h02.53.506,jersey_experiment_5_v0,2023.2.2,Win32,84.74576271,,,,,,,,,,,,,,,,219.8163,221.1105,221.1106,222.3104,return,0.3433,,22.265625,0,58,58,10,1,FBP-OG-91.png,0.35,1.2,11,0.5,,,,,,,,,,,,,,,,,,,,,,,,,,,,,,,,,,,,,,,,,,,,,
,,,,,SPR24_065,19,female,2024-04-18_14h02.53.506,jersey_experiment_5_v0,2023.2.2,Win32,84.74576271,,,,,,,,,,,,,,,,222.3107,223.3574,223.3575,224.8987,return,0.1113,,35.80729167,0,59,59,17,1,FBP-YG-17.png,0.4,1.2,18,0.25,,,,,,,,,,,,,,,,,,,,,,,,,,,,,,,,,,,,,,,,,,,,,
,,,,,SPR24_065,19,female,2024-04-18_14h02.53.506,jersey_experiment_5_v0,2023.2.2,Win32,84.74576271,,,,,,,,,,,,,,,,224.9003,226.1929,226.1929,227.4281,return,0.32,,36.06770833,,,,,,FBP-RB-81.png,0.37,1.2,37,0.5,0,0,0,36,1,,,,,,,,,,,,,,,,,,,,,,,,,,,,,,,,,,,,,,,,
,,,,,SPR24_065,19,female,2024-04-18_14h02.53.506,jersey_experiment_5_v0,2023.2.2,Win32,84.74576271,,,,,,,,,,,,,,,,227.4285,228.7223,228.7224,229.64,return,0.1274,,75.13020833,,,,,,FBP-OG-18.png,0.43,1.2,9,0.5,0,1,1,8,1,,,,,,,,,,,,,,,,,,,,,,,,,,,,,,,,,,,,,,,,
,,,,,SPR24_065,19,female,2024-04-18_14h02.53.506,jersey_experiment_5_v0,2023.2.2,Win32,84.74576271,,,,,,,,,,,,,,,,229.6403,230.9341,230.9342,232.052,return,0.0866,,64.32291667,,,,,,FBP-RB-91.png,0.4,1.2,43,0.5,0,2,2,42,1,,,,,,,,,,,,,,,,,,,,,,,,,,,,,,,,,,,,,,,,
,,,,,SPR24_065,19,female,2024-04-18_14h02.53.506,jersey_experiment_5_v0,2023.2.2,Win32,84.74576271,,,,,,,,,,,,,,,,232.0522,233.099,233.0991,234.4992,return,0.2051,,96.875,,,,,,FBP-PT-81.png,0.43,1.2,54,0.25,0,3,3,53,1,,,,,,,,,,,,,,,,,,,,,,,,,,,,,,,,,,,,,,,,
,,,,,SPR24_065,19,female,2024-04-18_14h02.53.506,jersey_experiment_5_v0,2023.2.2,Win32,84.74576271,,,,,,,,,,,,,,,,234.4994,235.7935,235.7935,236.9933,return,0.0991,,94.40104167,,,,,,FBP-OG-19.png,0.43,1.2,14,0.5,0,4,4,13,1,,,,,,,,,,,,,,,,,,,,,,,,,,,,,,,,,,,,,,,,
,,,,,SPR24_065,19,female,2024-04-18_14h02.53.506,jersey_experiment_5_v0,2023.2.2,Win32,84.74576271,,,,,,,,,,,,,,,,236.9936,238.2874,238.2875,240.5464,return,0.428,,98.4375,,,,,,FBP-RB-81.png,0.45,1.2,40,0.5,0,5,5,39,1,,,,,,,,,,,,,,,,,,,,,,,,,,,,,,,,,,,,,,,,
,,,,,SPR24_065,19,female,2024-04-18_14h02.53.506,jersey_experiment_5_v0,2023.2.2,Win32,84.74576271,,,,,,,,,,,,,,,,240.5466,241.8405,241.8405,242.8523,return,0.2743,,96.09375,,,,,,FBP-RB-71.png,0.43,1.2,34,0.5,0,6,6,33,1,,,,,,,,,,,,,,,,,,,,,,,,,,,,,,,,,,,,,,,,
,,,,,SPR24_065,19,female,2024-04-18_14h02.53.506,jersey_experiment_5_v0,2023.2.2,Win32,84.74576271,,,,,,,,,,,,,,,,242.8526,243.8994,243.8994,245.0642,return,0.2817,,90.49479167,,,,,,FBP-YG-91.png,0.43,1.2,29,0.25,0,7,7,28,1,,,,,,,,,,,,,,,,,,,,,,,,,,,,,,,,,,,,,,,,
,,,,,SPR24_065,19,female,2024-04-18_14h02.53.506,jersey_experiment_5_v0,2023.2.2,Win32,84.74576271,,,,,,,,,,,,,,,,245.0645,246.3582,246.3583,247.3701,return,0.0936,,73.95833333,,,,,,FBP-RB-81.png,0.4,1.2,38,0.5,0,8,8,37,1,,,,,,,,,,,,,,,,,,,,,,,,,,,,,,,,,,,,,,,,
,,,,,SPR24_065,19,female,2024-04-18_14h02.53.506,jersey_experiment_5_v0,2023.2.2,Win32,84.74576271,,,,,,,,,,,,,,,,247.3703,248.4172,248.4173,249.4761,return,0.0512,,74.21875,,,,,,FBP-PT-71.png,0.4,1.2,48,0.25,0,9,9,47,1,,,,,,,,,,,,,,,,,,,,,,,,,,,,,,,,,,,,,,,,
,,,,,SPR24_065,19,female,2024-04-18_14h02.53.506,jersey_experiment_5_v0,2023.2.2,Win32,84.74576271,,,,,,,,,,,,,,,,249.4763,250.7701,250.7701,251.4879,return,0.0767,,74.21875,,,,,,FBP-RB-71.png,0.37,1.2,32,0.5,0,10,10,31,1,,,,,,,,,,,,,,,,,,,,,,,,,,,,,,,,,,,,,,,,
,,,,,SPR24_065,19,female,2024-04-18_14h02.53.506,jersey_experiment_5_v0,2023.2.2,Win32,84.74576271,,,,,,,,,,,,,,,,251.4882,252.7822,252.7822,253.3821,return,0.1294,,74.34895833,,,,,,FBP-OG-18.png,0.37,1.2,7,0.5,0,11,11,6,1,,,,,,,,,,,,,,,,,,,,,,,,,,,,,,,,,,,,,,,,
,,,,,SPR24_065,19,female,2024-04-18_14h02.53.506,jersey_experiment_5_v0,2023.2.2,Win32,84.74576271,,,,,,,,,,,,,,,,253.3824,254.4292,254.4292,256.147,return,0.2522,,84.765625,,,,,,FBP-YG-71.png,0.45,1.2,20,0.25,0,12,12,19,1,,,,,,,,,,,,,,,,,,,,,,,,,,,,,,,,,,,,,,,,
,,,,,SPR24_065,19,female,2024-04-18_14h02.53.506,jersey_experiment_5_v0,2023.2.2,Win32,84.74576271,,,,,,,,,,,,,,,,256.1472,257.441,257.4411,259.653,return,0.1562,,34.765625,,,,,,FBP-OG-18.png,0.35,1.2,6,0.5,0,13,13,5,1,,,,,,,,,,,,,,,,,,,,,,,,,,,,,,,,,,,,,,,,
,,,,,SPR24_065,19,female,2024-04-18_14h02.53.506,jersey_experiment_5_v0,2023.2.2,Win32,84.74576271,,,,,,,,,,,,,,,,259.6532,260.7,260.7,262.6765,return,0.2483,,51.82291667,,,,,,FBP-PT-81.png,0.4,1.2,53,0.25,0,14,14,52,1,,,,,,,,,,,,,,,,,,,,,,,,,,,,,,,,,,,,,,,,
,,,,,SPR24_065,19,female,2024-04-18_14h02.53.506,jersey_experiment_5_v0,2023.2.2,Win32,84.74576271,,,,,,,,,,,,,,,,262.6767,263.7237,263.7237,264.8177,return,0.11,,61.328125,,,,,,FBP-YG-81.png,0.4,1.2,23,0.25,0,15,15,22,1,,,,,,,,,,,,,,,,,,,,,,,,,,,,,,,,,,,,,,,,
,,,,,SPR24_065,19,female,2024-04-18_14h02.53.506,jersey_experiment_5_v0,2023.2.2,Win32,84.74576271,,,,,,,,,,,,,,,,264.8179,266.1118,266.1119,268.3944,return,0.1275,,91.27604167,,,,,,FBP-RB-91.png,0.43,1.2,44,0.5,0,16,16,43,1,,,,,,,,,,,,,,,,,,,,,,,,,,,,,,,,,,,,,,,,
,,,,,SPR24_065,19,female,2024-04-18_14h02.53.506,jersey_experiment_5_v0,2023.2.2,Win32,84.74576271,,,,,,,,,,,,,,,,268.3947,269.6885,269.6886,272.3239,return,0.1686,,43.359375,,,,,,FBP-OG-17.png,0.37,1.2,2,0.5,0,17,17,1,1,,,,,,,,,,,,,,,,,,,,,,,,,,,,,,,,,,,,,,,,
,,,,,SPR24_065,19,female,2024-04-18_14h02.53.506,jersey_experiment_5_v0,2023.2.2,Win32,84.74576271,,,,,,,,,,,,,,,,272.3242,273.3711,273.3711,276.4065,return,0.1784,,92.31770833,,,,,,FBP-PT-71.png,0.43,1.2,49,0.25,0,18,18,48,1,,,,,,,,,,,,,,,,,,,,,,,,,,,,,,,,,,,,,,,,
,,,,,SPR24_065,19,female,2024-04-18_14h02.53.506,jersey_experiment_5_v0,2023.2.2,Win32,84.74576271,,,,,,,,,,,,,,,,276.4067,277.7006,277.7007,278.9479,return,0.2851,,51.43229167,,,,,,FBP-RB-81.png,0.35,1.2,36,0.5,0,19,19,35,1,,,,,,,,,,,,,,,,,,,,,,,,,,,,,,,,,,,,,,,,
,,,,,SPR24_065,19,female,2024-04-18_14h02.53.506,jersey_experiment_5_v0,2023.2.2,Win32,84.74576271,,,,,,,,,,,,,,,,278.948,279.9948,279.9948,281.7009,return,0.0957,,90.36458333,,,,,,FBP-YG-91.png,0.45,1.2,30,0.25,0,20,20,29,1,,,,,,,,,,,,,,,,,,,,,,,,,,,,,,,,,,,,,,,,
,,,,,SPR24_065,19,female,2024-04-18_14h02.53.506,jersey_experiment_5_v0,2023.2.2,Win32,84.74576271,,,,,,,,,,,,,,,,281.701,282.9949,282.9949,285.5598,return,0.249,,37.890625,,,,,,FBP-OG-19.png,0.35,1.2,11,0.5,0,21,21,10,1,,,,,,,,,,,,,,,,,,,,,,,,,,,,,,,,,,,,,,,,
,,,,,SPR24_065,19,female,2024-04-18_14h02.53.506,jersey_experiment_5_v0,2023.2.2,Win32,84.74576271,,,,,,,,,,,,,,,,285.56,286.6068,286.6069,288.9952,return,0.1447,,39.97395833,,,,,,FBP-YG-81.png,0.37,1.2,22,0.25,0,22,22,21,1,,,,,,,,,,,,,,,,,,,,,,,,,,,,,,,,,,,,,,,,
,,,,,SPR24_065,19,female,2024-04-18_14h02.53.506,jersey_experiment_5_v0,2023.2.2,Win32,84.74576271,,,,,,,,,,,,,,,,288.9954,290.0422,290.0423,290.9482,return,0.049,,38.671875,,,,,,FBP-PT-91.png,0.37,1.2,57,0.25,0,23,23,56,1,,,,,,,,,,,,,,,,,,,,,,,,,,,,,,,,,,,,,,,,
,,,,,SPR24_065,19,female,2024-04-18_14h02.53.506,jersey_experiment_5_v0,2023.2.2,Win32,84.74576271,,,,,,,,,,,,,,,,290.9485,292.2423,292.2424,294.4072,return,1.0967,,79.6875,,,,,,FBP-RB-91.png,0.45,1.2,45,0.5,0,24,24,44,1,,,,,,,,,,,,,,,,,,,,,,,,,,,,,,,,,,,,,,,,
,,,,,SPR24_065,19,female,2024-04-18_14h02.53.506,jersey_experiment_5_v0,2023.2.2,Win32,84.74576271,,,,,,,,,,,,,,,,294.4074,295.4541,295.4542,296.6895,return,0.169,,98.828125,,,,,,FBP-PT-91.png,0.45,1.2,60,0.25,0,25,25,59,1,,,,,,,,,,,,,,,,,,,,,,,,,,,,,,,,,,,,,,,,
,,,,,SPR24_065,19,female,2024-04-18_14h02.53.506,jersey_experiment_5_v0,2023.2.2,Win32,84.74576271,,,,,,,,,,,,,,,,296.6897,297.7366,297.7367,299.619,return,0.3686,,50.13020833,,,,,,FBP-YG-91.png,0.37,1.2,27,0.25,0,26,26,26,1,,,,,,,,,,,,,,,,,,,,,,,,,,,,,,,,,,,,,,,,
,,,,,SPR24_065,19,female,2024-04-18_14h02.53.506,jersey_experiment_5_v0,2023.2.2,Win32,84.74576271,,,,,,,,,,,,,,,,299.6193,300.9131,300.9132,301.7602,return,0.0887,,74.47916667,,,,,,FBP-OG-17.png,0.43,1.2,4,0.5,0,27,27,3,1,,,,,,,,,,,,,,,,,,,,,,,,,,,,,,,,,,,,,,,,
,,,,,SPR24_065,19,female,2024-04-18_14h02.53.506,jersey_experiment_5_v0,2023.2.2,Win32,84.74576271,,,,,,,,,,,,,,,,301.7605,302.8074,302.8074,304.0545,return,0.2826,,51.5625,,,,,,FBP-PT-71.png,0.37,1.2,47,0.25,0,28,28,46,1,,,,,,,,,,,,,,,,,,,,,,,,,,,,,,,,,,,,,,,,
,,,,,SPR24_065,19,female,2024-04-18_14h02.53.506,jersey_experiment_5_v0,2023.2.2,Win32,84.74576271,,,,,,,,,,,,,,,,304.0547,305.1016,305.1016,307.4074,return,0.079,,75.65104167,,,,,,FBP-PT-81.png,0.45,1.2,55,0.25,0,29,29,54,1,,,,,,,,,,,,,,,,,,,,,,,,,,,,,,,,,,,,,,,,
,,,,,SPR24_065,19,female,2024-04-18_14h02.53.506,jersey_experiment_5_v0,2023.2.2,Win32,84.74576271,,,,,,,,,,,,,,,,307.4077,308.7017,308.7018,309.8781,return,0.1899,,26.171875,,,,,,FBP-OG-17.png,0.35,1.2,1,0.5,0,30,30,0,1,,,,,,,,,,,,,,,,,,,,,,,,,,,,,,,,,,,,,,,,
,,,,,SPR24_065,19,female,2024-04-18_14h02.53.506,jersey_experiment_5_v0,2023.2.2,Win32,84.74576271,,,,,,,,,,,,,,,,309.8783,310.9256,310.9257,313.2666,return,0.1703,,57.29166667,,,,,,FBP-YG-91.png,0.4,1.2,28,0.25,0,31,31,27,1,,,,,,,,,,,,,,,,,,,,,,,,,,,,,,,,,,,,,,,,
,,,,,SPR24_065,19,female,2024-04-18_14h02.53.506,jersey_experiment_5_v0,2023.2.2,Win32,84.74576271,,,,,,,,,,,,,,,,313.2669,314.3137,314.3137,315.5609,return,0.1309,,77.99479167,,,,,,FBP-YG-71.png,0.43,1.2,19,0.25,0,32,32,18,1,,,,,,,,,,,,,,,,,,,,,,,,,,,,,,,,,,,,,,,,
,,,,,SPR24_065,19,female,2024-04-18_14h02.53.506,jersey_experiment_5_v0,2023.2.2,Win32,84.74576271,,,,,,,,,,,,,,,,315.5611,316.855,316.855,319.2551,return,0.0838,,75.78125,,,,,,FBP-RB-71.png,0.4,1.2,33,0.5,0,33,33,32,1,,,,,,,,,,,,,,,,,,,,,,,,,,,,,,,,,,,,,,,,
,,,,,SPR24_065,19,female,2024-04-18_14h02.53.506,jersey_experiment_5_v0,2023.2.2,Win32,84.74576271,,,,,,,,,,,,,,,,319.2553,320.5491,320.5492,322.4319,return,0.1848,,64.453125,,,,,,FBP-OG-18.png,0.4,1.2,8,0.5,0,34,34,7,1,,,,,,,,,,,,,,,,,,,,,,,,,,,,,,,,,,,,,,,,
,,,,,SPR24_065,19,female,2024-04-18_14h02.53.506,jersey_experiment_5_v0,2023.2.2,Win32,84.74576271,,,,,,,,,,,,,,,,322.4321,323.7258,323.7258,324.9612,return,0.0647,,85.9375,,,,,,FBP-OG-18.png,0.45,1.2,10,0.5,0,35,35,9,1,,,,,,,,,,,,,,,,,,,,,,,,,,,,,,,,,,,,,,,,
,,,,,SPR24_065,19,female,2024-04-18_14h02.53.506,jersey_experiment_5_v0,2023.2.2,Win32,84.74576271,,,,,,,,,,,,,,,,324.9614,326.2551,326.2552,329.2319,return,1.1124,,34.11458333,,,,,,FBP-RB-71.png,0.35,1.2,31,0.5,0,36,36,30,1,,,,,,,,,,,,,,,,,,,,,,,,,,,,,,,,,,,,,,,,
,,,,,SPR24_065,19,female,2024-04-18_14h02.53.506,jersey_experiment_5_v0,2023.2.2,Win32,84.74576271,,,,,,,,,,,,,,,,329.2321,330.2788,330.2789,331.5144,return,0.085,,75.65104167,,,,,,FBP-PT-71.png,0.45,1.2,50,0.25,0,37,37,49,1,,,,,,,,,,,,,,,,,,,,,,,,,,,,,,,,,,,,,,,,
,,,,,SPR24_065,19,female,2024-04-18_14h02.53.506,jersey_experiment_5_v0,2023.2.2,Win32,84.74576271,,,,,,,,,,,,,,,,331.5146,332.5612,332.5612,333.9378,return,0.0979,,49.609375,,,,,,FBP-YG-71.png,0.37,1.2,17,0.25,0,38,38,16,1,,,,,,,,,,,,,,,,,,,,,,,,,,,,,,,,,,,,,,,,
,,,,,SPR24_065,19,female,2024-04-18_14h02.53.506,jersey_experiment_5_v0,2023.2.2,Win32,84.74576271,,,,,,,,,,,,,,,,333.9381,335.232,335.232,336.2909,return,0.1444,,34.375,,,,,,FBP-OG-19.png,0.37,1.2,12,0.5,0,39,39,11,1,,,,,,,,,,,,,,,,,,,,,,,,,,,,,,,,,,,,,,,,
,,,,,SPR24_065,19,female,2024-04-18_14h02.53.506,jersey_experiment_5_v0,2023.2.2,Win32,84.74576271,,,,,,,,,,,,,,,,336.2911,337.5851,337.5852,338.2086,return,0.1958,,35.02604167,,,,,,FBP-RB-91.png,0.37,1.2,42,0.5,0,40,40,41,1,,,,,,,,,,,,,,,,,,,,,,,,,,,,,,,,,,,,,,,,
,,,,,SPR24_065,19,female,2024-04-18_14h02.53.506,jersey_experiment_5_v0,2023.2.2,Win32,84.74576271,,,,,,,,,,,,,,,,338.2088,339.5027,339.5027,340.3147,return,0.1406,,34.63541667,,,,,,FBP-OG-17.png,0.4,1.2,3,0.5,0,41,41,2,1,,,,,,,,,,,,,,,,,,,,,,,,,,,,,,,,,,,,,,,,
,,,,,SPR24_065,19,female,2024-04-18_14h02.53.506,jersey_experiment_5_v0,2023.2.2,Win32,84.74576271,,,,,,,,,,,,,,,,340.3148,341.3617,341.3617,342.1618,return,0.2649,,34.63541667,,,,,,FBP-PT-71.png,0.35,1.2,46,0.25,0,42,42,45,1,,,,,,,,,,,,,,,,,,,,,,,,,,,,,,,,,,,,,,,,
,,,,,SPR24_065,19,female,2024-04-18_14h02.53.506,jersey_experiment_5_v0,2023.2.2,Win32,84.74576271,,,,,,,,,,,,,,,,342.162,343.2088,343.2089,344.6443,return,0.1191,,81.11979167,,,,,,FBP-YG-81.png,0.45,1.2,25,0.25,0,43,43,24,1,,,,,,,,,,,,,,,,,,,,,,,,,,,,,,,,,,,,,,,,
,,,,,SPR24_065,19,female,2024-04-18_14h02.53.506,jersey_experiment_5_v0,2023.2.2,Win32,84.74576271,,,,,,,,,,,,,,,,344.6445,345.6911,345.6912,346.9031,return,0.0605,,34.24479167,,,,,,FBP-YG-81.png,0.35,1.2,21,0.25,0,44,44,20,1,,,,,,,,,,,,,,,,,,,,,,,,,,,,,,,,,,,,,,,,
,,,,,SPR24_065,19,female,2024-04-18_14h02.53.506,jersey_experiment_5_v0,2023.2.2,Win32,84.74576271,,,,,,,,,,,,,,,,346.9034,347.9501,347.9502,349.0914,return,0.0975,,80.078125,,,,,,FBP-YG-81.png,0.43,1.2,24,0.25,0,45,45,23,1,,,,,,,,,,,,,,,,,,,,,,,,,,,,,,,,,,,,,,,,
,,,,,SPR24_065,19,female,2024-04-18_14h02.53.506,jersey_experiment_5_v0,2023.2.2,Win32,84.74576271,,,,,,,,,,,,,,,,349.0916,350.1385,350.1385,351.1856,return,0.0419,,30.20833333,,,,,,FBP-YG-71.png,0.35,1.2,16,0.25,0,46,46,15,1,,,,,,,,,,,,,,,,,,,,,,,,,,,,,,,,,,,,,,,,
,,,,,SPR24_065,19,female,2024-04-18_14h02.53.506,jersey_experiment_5_v0,2023.2.2,Win32,84.74576271,,,,,,,,,,,,,,,,351.1859,352.4799,352.4799,353.6563,return,0.166,,88.80208333,,,,,,FBP-OG-17.png,0.45,1.2,5,0.5,0,47,47,4,1,,,,,,,,,,,,,,,,,,,,,,,,,,,,,,,,,,,,,,,,
,,,,,SPR24_065,19,female,2024-04-18_14h02.53.506,jersey_experiment_5_v0,2023.2.2,Win32,84.74576271,,,,,,,,,,,,,,,,353.6565,354.7034,354.7034,355.7857,return,0.1882,,85.546875,,,,,,FBP-PT-91.png,0.4,1.2,58,0.25,0,48,48,57,1,,,,,,,,,,,,,,,,,,,,,,,,,,,,,,,,,,,,,,,,
,,,,,SPR24_065,19,female,2024-04-18_14h02.53.506,jersey_experiment_5_v0,2023.2.2,Win32,84.74576271,,,,,,,,,,,,,,,,355.7859,357.0798,357.0799,358.0093,return,0.1656,,99.86979167,,,,,,FBP-OG-19.png,0.45,1.2,15,0.5,0,49,49,14,1,,,,,,,,,,,,,,,,,,,,,,,,,,,,,,,,,,,,,,,,
,,,,,SPR24_065,19,female,2024-04-18_14h02.53.506,jersey_experiment_5_v0,2023.2.2,Win32,84.74576271,,,,,,,,,,,,,,,,358.0096,359.3037,359.3038,360.88,return,0.194,,32.68229167,,,,,,FBP-RB-91.png,0.35,1.2,41,0.5,0,50,50,40,1,,,,,,,,,,,,,,,,,,,,,,,,,,,,,,,,,,,,,,,,
,,,,,SPR24_065,19,female,2024-04-18_14h02.53.506,jersey_experiment_5_v0,2023.2.2,Win32,84.74576271,,,,,,,,,,,,,,,,360.8803,362.1742,362.1742,363.1038,return,0.0791,,77.86458333,,,,,,FBP-OG-19.png,0.4,1.2,13,0.5,0,51,51,12,1,,,,,,,,,,,,,,,,,,,,,,,,,,,,,,,,,,,,,,,,
,,,,,SPR24_065,19,female,2024-04-18_14h02.53.506,jersey_experiment_5_v0,2023.2.2,Win32,84.74576271,,,,,,,,,,,,,,,,363.1041,364.1507,364.1507,365.3509,return,0.1554,,32.8125,,,,,,FBP-PT-91.png,0.35,1.2,56,0.25,0,52,52,55,1,,,,,,,,,,,,,,,,,,,,,,,,,,,,,,,,,,,,,,,,
,,,,,SPR24_065,19,female,2024-04-18_14h02.53.506,jersey_experiment_5_v0,2023.2.2,Win32,84.74576271,,,,,,,,,,,,,,,,365.3512,366.645,366.6451,367.8569,return,0.2658,,98.828125,,,,,,FBP-RB-71.png,0.45,1.2,35,0.5,0,53,53,34,1,,,,,,,,,,,,,,,,,,,,,,,,,,,,,,,,,,,,,,,,
,,,,,SPR24_065,19,female,2024-04-18_14h02.53.506,jersey_experiment_5_v0,2023.2.2,Win32,84.74576271,,,,,,,,,,,,,,,,367.8571,368.9041,368.9041,369.9391,return,0.0632,,80.859375,,,,,,FBP-YG-71.png,0.4,1.2,18,0.25,0,54,54,17,1,,,,,,,,,,,,,,,,,,,,,,,,,,,,,,,,,,,,,,,,
,,,,,SPR24_065,19,female,2024-04-18_14h02.53.506,jersey_experiment_5_v0,2023.2.2,Win32,84.74576271,,,,,,,,,,,,,,,,369.9393,370.9862,370.9862,372.504,return,0.3673,,56.90104167,,,,,,FBP-PT-81.png,0.37,1.2,52,0.25,0,55,55,51,1,,,,,,,,,,,,,,,,,,,,,,,,,,,,,,,,,,,,,,,,
,,,,,SPR24_065,19,female,2024-04-18_14h02.53.506,jersey_experiment_5_v0,2023.2.2,Win32,84.74576271,,,,,,,,,,,,,,,,372.5043,373.5511,373.5511,374.7746,return,0.1659,,39.453125,,,,,,FBP-YG-91.png,0.35,1.2,26,0.25,0,56,56,25,1,,,,,,,,,,,,,,,,,,,,,,,,,,,,,,,,,,,,,,,,
,,,,,SPR24_065,19,female,2024-04-18_14h02.53.506,jersey_experiment_5_v0,2023.2.2,Win32,84.74576271,,,,,,,,,,,,,,,,374.7749,375.8217,375.8217,378.8336,return,1.7463,,71.875,,,,,,FBP-PT-91.png,0.43,1.2,59,0.25,0,57,57,58,1,,,,,,,,,,,,,,,,,,,,,,,,,,,,,,,,,,,,,,,,
,,,,,SPR24_065,19,female,2024-04-18_14h02.53.506,jersey_experiment_5_v0,2023.2.2,Win32,84.74576271,,,,,,,,,,,,,,,,378.8338,380.1278,380.1279,381.5279,return,0.2119,,83.59375,,,,,,FBP-RB-81.png,0.43,1.2,39,0.5,0,58,58,38,1,,,,,,,,,,,,,,,,,,,,,,,,,,,,,,,,,,,,,,,,
,,,,,SPR24_065,19,female,2024-04-18_14h02.53.506,jersey_experiment_5_v0,2023.2.2,Win32,84.74576271,,,,,,,,,,,,,,,,381.528,382.5749,382.5749,383.7987,return,0.1316,,24.609375,,,,,,FBP-PT-81.png,0.35,1.2,51,0.25,0,59,59,50,1,,,,,,,,,,,,,,,,,,,,,,,,,,,,,,,,,,,,,,,,
,,,,,SPR24_065,19,female,2024-04-18_14h02.53.506,jersey_experiment_5_v0,2023.2.2,Win32,84.74576271,,,,,,,,,,,,,,,,,,,,,,,,,,,,,,,,,,,,,,,383.7991,503.7912,,,,,,,,,,,,,,,,,,,,,,,,,,,,,,,,,,,,,,
,,,,,SPR24_065,19,female,2024-04-18_14h02.53.506,jersey_experiment_5_v0,2023.2.2,Win32,84.74576271,,,,,,,,,,,,,,,,,,,,,,,,,,,,,,,,,,,,,,,,,503.7912,505.8734,return,2.0751,,,,,,,,,,,,,,,,,,,,,,,,,,,,,,,,,,
,,,,,SPR24_065,19,female,2024-04-18_14h02.53.506,jersey_experiment_5_v0,2023.2.2,Win32,84.74576271,,,,,,,,,,,,,,,,505.8795,507.1794,507.1795,509.791,return,1.3967,,50.13020833,,,,,,FBP-PT-18.png,0.4,1.2,53,0.5,,,,,,,,,,,,,0,0,0,52,1,,,,,,,,,,,,,,,,,,,,,,,,,,,,
,,,,,SPR24_065,19,female,2024-04-18_14h02.53.506,jersey_experiment_5_v0,2023.2.2,Win32,84.74576271,,,,,,,,,,,,,,,,509.7914,511.0854,511.0854,512.003,return,0.146,,38.54166667,,,,,,FBP-YG-17.png,0.37,1.2,17,0.5,,,,,,,,,,,,,0,1,1,16,1,,,,,,,,,,,,,,,,,,,,,,,,,,,,
,,,,,SPR24_065,19,female,2024-04-18_14h02.53.506,jersey_experiment_5_v0,2023.2.2,Win32,84.74576271,,,,,,,,,,,,,,,,512.0032,513.2971,513.2971,514.1916,return,0.173,,37.23958333,,,,,,FBP-YG-18.png,0.37,1.2,22,0.5,,,,,,,,,,,,,0,2,2,21,1,,,,,,,,,,,,,,,,,,,,,,,,,,,,
,,,,,SPR24_065,19,female,2024-04-18_14h02.53.506,jersey_experiment_5_v0,2023.2.2,Win32,84.74576271,,,,,,,,,,,,,,,,514.1917,515.2382,515.2383,517.1561,return,0.1547,,52.86458333,,,,,,FBP-RB-18.png,0.4,1.2,38,0.25,,,,,,,,,,,,,0,3,3,37,1,,,,,,,,,,,,,,,,,,,,,,,,,,,,
,,,,,SPR24_065,19,female,2024-04-18_14h02.53.506,jersey_experiment_5_v0,2023.2.2,Win32,84.74576271,,,,,,,,,,,,,,,,517.1563,518.4502,518.4503,519.4975,return,0.1785,,73.30729167,,,,,,FBP-YG-19.png,0.45,1.2,30,0.5,,,,,,,,,,,,,0,4,4,29,1,,,,,,,,,,,,,,,,,,,,,,,,,,,,
,,,,,SPR24_065,19,female,2024-04-18_14h02.53.506,jersey_experiment_5_v0,2023.2.2,Win32,84.74576271,,,,,,,,,,,,,,,,519.4977,520.5445,520.5445,521.5445,return,0.1648,,69.79166667,,,,,,FBP-OG-91.png,0.4,1.2,13,0.25,,,,,,,,,,,,,0,5,5,12,1,,,,,,,,,,,,,,,,,,,,,,,,,,,,
,,,,,SPR24_065,19,female,2024-04-18_14h02.53.506,jersey_experiment_5_v0,2023.2.2,Win32,84.74576271,,,,,,,,,,,,,,,,521.5448,522.5916,522.5916,523.3446,return,0.1248,,69.79166667,,,,,,FBP-RB-18.png,0.43,1.2,39,0.25,,,,,,,,,,,,,0,6,6,38,1,,,,,,,,,,,,,,,,,,,,,,,,,,,,
,,,,,SPR24_065,19,female,2024-04-18_14h02.53.506,jersey_experiment_5_v0,2023.2.2,Win32,84.74576271,,,,,,,,,,,,,,,,523.3448,524.3917,524.3917,525.3213,return,0.1517,,75.390625,,,,,,FBP-OG-81.png,0.45,1.2,10,0.25,,,,,,,,,,,,,0,7,7,9,1,,,,,,,,,,,,,,,,,,,,,,,,,,,,
,,,,,SPR24_065,19,female,2024-04-18_14h02.53.506,jersey_experiment_5_v0,2023.2.2,Win32,84.74576271,,,,,,,,,,,,,,,,525.3215,526.6151,526.6152,528.3095,return,0.177,,38.54166667,,,,,,FBP-PT-19.png,0.37,1.2,57,0.5,,,,,,,,,,,,,0,8,8,56,1,,,,,,,,,,,,,,,,,,,,,,,,,,,,
,,,,,SPR24_065,19,female,2024-04-18_14h02.53.506,jersey_experiment_5_v0,2023.2.2,Win32,84.74576271,,,,,,,,,,,,,,,,528.3097,529.6036,529.6036,531.1918,return,0.142,,61.45833333,,,,,,FBP-YG-18.png,0.45,1.2,25,0.5,,,,,,,,,,,,,0,9,9,24,1,,,,,,,,,,,,,,,,,,,,,,,,,,,,
,,,,,SPR24_065,19,female,2024-04-18_14h02.53.506,jersey_experiment_5_v0,2023.2.2,Win32,84.74576271,,,,,,,,,,,,,,,,531.1921,532.2389,532.239,533.8155,return,0.141,,88.02083333,,,,,,FBP-RB-19.png,0.45,1.2,45,0.25,,,,,,,,,,,,,0,10,10,44,1,,,,,,,,,,,,,,,,,,,,,,,,,,,,
,,,,,SPR24_065,19,female,2024-04-18_14h02.53.506,jersey_experiment_5_v0,2023.2.2,Win32,84.74576271,,,,,,,,,,,,,,,,533.8158,534.8626,534.8627,536.4979,return,0.4152,,35.9375,,,,,,FBP-OG-91.png,0.37,1.2,12,0.25,,,,,,,,,,,,,0,11,11,11,1,,,,,,,,,,,,,,,,,,,,,,,,,,,,
,,,,,SPR24_065,19,female,2024-04-18_14h02.53.506,jersey_experiment_5_v0,2023.2.2,Win32,84.74576271,,,,,,,,,,,,,,,,536.4982,537.7921,537.7921,538.9216,return,0.1288,,62.23958333,,,,,,FBP-PT-17.png,0.43,1.2,49,0.5,,,,,,,,,,,,,0,12,12,48,1,,,,,,,,,,,,,,,,,,,,,,,,,,,,
,,,,,SPR24_065,19,female,2024-04-18_14h02.53.506,jersey_experiment_5_v0,2023.2.2,Win32,84.74576271,,,,,,,,,,,,,,,,538.922,540.2156,540.2156,542.3216,return,0.1448,,48.95833333,,,,,,FBP-YG-17.png,0.4,1.2,18,0.5,,,,,,,,,,,,,0,13,13,17,1,,,,,,,,,,,,,,,,,,,,,,,,,,,,
,,,,,SPR24_065,19,female,2024-04-18_14h02.53.506,jersey_experiment_5_v0,2023.2.2,Win32,84.74576271,,,,,,,,,,,,,,,,542.322,543.6158,543.6159,544.8629,return,0.5713,,48.95833333,,,,,,FBP-PT-19.png,0.4,1.2,58,0.5,,,,,,,,,,,,,0,14,14,57,1,,,,,,,,,,,,,,,,,,,,,,,,,,,,
,,,,,SPR24_065,19,female,2024-04-18_14h02.53.506,jersey_experiment_5_v0,2023.2.2,Win32,84.74576271,,,,,,,,,,,,,,,,544.8631,545.9101,545.9101,548.4514,return,0.2024,,66.796875,,,,,,FBP-OG-81.png,0.43,1.2,9,0.25,,,,,,,,,,,,,0,15,15,8,1,,,,,,,,,,,,,,,,,,,,,,,,,,,,
,,,,,SPR24_065,19,female,2024-04-18_14h02.53.506,jersey_experiment_5_v0,2023.2.2,Win32,84.74576271,,,,,,,,,,,,,,,,548.4516,549.4984,549.4984,550.6397,return,0.1256,,81.38020833,,,,,,FBP-OG-91.png,0.43,1.2,14,0.25,,,,,,,,,,,,,0,16,16,13,1,,,,,,,,,,,,,,,,,,,,,,,,,,,,
,,,,,SPR24_065,19,female,2024-04-18_14h02.53.506,jersey_experiment_5_v0,2023.2.2,Win32,84.74576271,,,,,,,,,,,,,,,,550.64,551.6868,551.6869,552.8985,return,0.1228,,56.640625,,,,,,FBP-RB-19.png,0.4,1.2,43,0.25,,,,,,,,,,,,,0,17,17,42,1,,,,,,,,,,,,,,,,,,,,,,,,,,,,
,,,,,SPR24_065,19,female,2024-04-18_14h02.53.506,jersey_experiment_5_v0,2023.2.2,Win32,84.74576271,,,,,,,,,,,,,,,,552.8987,554.1927,554.1927,554.981,return,0.0478,,64.453125,,,,,,FBP-YG-19.png,0.43,1.2,29,0.5,,,,,,,,,,,,,0,18,18,28,1,,,,,,,,,,,,,,,,,,,,,,,,,,,,
,,,,,SPR24_065,19,female,2024-04-18_14h02.53.506,jersey_experiment_5_v0,2023.2.2,Win32,84.74576271,,,,,,,,,,,,,,,,554.9812,556.275,556.2751,556.8516,return,0.239,,66.92708333,,,,,,FBP-YG-19.png,0.4,1.2,28,0.5,,,,,,,,,,,,,0,19,19,27,1,,,,,,,,,,,,,,,,,,,,,,,,,,,,
,,,,,SPR24_065,19,female,2024-04-18_14h02.53.506,jersey_experiment_5_v0,2023.2.2,Win32,84.74576271,,,,,,,,,,,,,,,,556.8518,558.1457,558.1458,559.7693,return,0.1644,,11.97916667,,,,,,FBP-YG-19.png,0.35,1.2,26,0.5,,,,,,,,,,,,,0,20,20,25,1,,,,,,,,,,,,,,,,,,,,,,,,,,,,
,,,,,SPR24_065,19,female,2024-04-18_14h02.53.506,jersey_experiment_5_v0,2023.2.2,Win32,84.74576271,,,,,,,,,,,,,,,,559.7696,561.0635,561.0636,562.9694,return,0.2449,,39.84375,,,,,,FBP-YG-19.png,0.37,1.2,27,0.5,,,,,,,,,,,,,0,21,21,26,1,,,,,,,,,,,,,,,,,,,,,,,,,,,,
,,,,,SPR24_065,19,female,2024-04-18_14h02.53.506,jersey_experiment_5_v0,2023.2.2,Win32,84.74576271,,,,,,,,,,,,,,,,562.9697,564.2636,564.2637,565.4166,return,0.2358,,37.890625,,,,,,FBP-YG-18.png,0.4,1.2,23,0.5,,,,,,,,,,,,,0,22,22,22,1,,,,,,,,,,,,,,,,,,,,,,,,,,,,
,,,,,SPR24_065,19,female,2024-04-18_14h02.53.506,jersey_experiment_5_v0,2023.2.2,Win32,84.74576271,,,,,,,,,,,,,,,,565.4168,566.4636,566.4637,568.1108,return,0.1477,,28.64583333,,,,,,FBP-OG-81.png,0.35,1.2,6,0.25,,,,,,,,,,,,,0,23,23,5,1,,,,,,,,,,,,,,,,,,,,,,,,,,,,
,,,,,SPR24_065,19,female,2024-04-18_14h02.53.506,jersey_experiment_5_v0,2023.2.2,Win32,84.74576271,,,,,,,,,,,,,,,,568.111,569.1577,569.1578,570.7463,return,0.9784,,28.25520833,,,,,,FBP-OG-71.png,0.35,1.2,1,0.25,,,,,,,,,,,,,0,24,24,0,1,,,,,,,,,,,,,,,,,,,,,,,,,,,,
,,,,,SPR24_065,19,female,2024-04-18_14h02.53.506,jersey_experiment_5_v0,2023.2.2,Win32,84.74576271,,,,,,,,,,,,,,,,570.7466,572.0404,572.0404,572.8168,return,0.0423,,27.86458333,,,,,,FBP-PT-17.png,0.35,1.2,46,0.5,,,,,,,,,,,,,0,25,25,45,1,,,,,,,,,,,,,,,,,,,,,,,,,,,,
,,,,,SPR24_065,19,female,2024-04-18_14h02.53.506,jersey_experiment_5_v0,2023.2.2,Win32,84.74576271,,,,,,,,,,,,,,,,572.8171,574.111,574.1111,576.758,return,0.0721,,64.0625,,,,,,FBP-YG-17.png,0.43,1.2,19,0.5,,,,,,,,,,,,,0,26,26,18,1,,,,,,,,,,,,,,,,,,,,,,,,,,,,
,,,,,SPR24_065,19,female,2024-04-18_14h02.53.506,jersey_experiment_5_v0,2023.2.2,Win32,84.74576271,,,,,,,,,,,,,,,,576.7583,577.8054,577.8054,579.0759,return,0.0957,,88.93229167,,,,,,FBP-OG-71.png,0.45,1.2,5,0.25,,,,,,,,,,,,,0,27,27,4,1,,,,,,,,,,,,,,,,,,,,,,,,,,,,
,,,,,SPR24_065,19,female,2024-04-18_14h02.53.506,jersey_experiment_5_v0,2023.2.2,Win32,84.74576271,,,,,,,,,,,,,,,,579.0762,580.3701,580.3701,581.2172,return,0.1225,,88.02083333,,,,,,FBP-YG-18.png,0.43,1.2,24,0.5,,,,,,,,,,,,,0,28,28,23,1,,,,,,,,,,,,,,,,,,,,,,,,,,,,
,,,,,SPR24_065,19,female,2024-04-18_14h02.53.506,jersey_experiment_5_v0,2023.2.2,Win32,84.74576271,,,,,,,,,,,,,,,,581.2173,582.2643,582.2644,583.6644,return,0.0662,,25.26041667,,,,,,FBP-RB-17.png,0.35,1.2,31,0.25,,,,,,,,,,,,,0,29,29,30,1,,,,,,,,,,,,,,,,,,,,,,,,,,,,
,,,,,SPR24_065,19,female,2024-04-18_14h02.53.506,jersey_experiment_5_v0,2023.2.2,Win32,84.74576271,,,,,,,,,,,,,,,,583.6647,584.9586,584.9586,585.9585,return,0.1282,,73.828125,,,,,,FBP-YG-17.png,0.45,1.2,20,0.5,,,,,,,,,,,,,0,30,30,19,1,,,,,,,,,,,,,,,,,,,,,,,,,,,,
,,,,,SPR24_065,19,female,2024-04-18_14h02.53.506,jersey_experiment_5_v0,2023.2.2,Win32,84.74576271,,,,,,,,,,,,,,,,585.9587,587.2528,587.2528,588.1587,return,0.0674,,24.21875,,,,,,FBP-PT-18.png,0.35,1.2,51,0.5,,,,,,,,,,,,,0,31,31,50,1,,,,,,,,,,,,,,,,,,,,,,,,,,,,
,,,,,SPR24_065,19,female,2024-04-18_14h02.53.506,jersey_experiment_5_v0,2023.2.2,Win32,84.74576271,,,,,,,,,,,,,,,,588.1589,589.2056,589.2057,591.4764,return,0.6368,,93.359375,,,,,,FBP-OG-91.png,0.45,1.2,15,0.25,,,,,,,,,,,,,0,32,32,14,1,,,,,,,,,,,,,,,,,,,,,,,,,,,,
,,,,,SPR24_065,19,female,2024-04-18_14h02.53.506,jersey_experiment_5_v0,2023.2.2,Win32,84.74576271,,,,,,,,,,,,,,,,591.4767,592.7705,592.7705,593.5352,return,0.1362,,98.828125,,,,,,FBP-PT-17.png,0.45,1.2,50,0.5,,,,,,,,,,,,,0,33,33,49,1,,,,,,,,,,,,,,,,,,,,,,,,,,,,
,,,,,SPR24_065,19,female,2024-04-18_14h02.53.506,jersey_experiment_5_v0,2023.2.2,Win32,84.74576271,,,,,,,,,,,,,,,,593.5355,594.8293,594.8294,596.4178,return,0.0744,,32.8125,,,,,,FBP-YG-17.png,0.35,1.2,16,0.5,,,,,,,,,,,,,0,34,34,15,1,,,,,,,,,,,,,,,,,,,,,,,,,,,,
,,,,,SPR24_065,19,female,2024-04-18_14h02.53.506,jersey_experiment_5_v0,2023.2.2,Win32,84.74576271,,,,,,,,,,,,,,,,596.418,597.4648,597.4648,599.1708,return,0.1442,,34.89583333,,,,,,FBP-OG-81.png,0.37,1.2,7,0.25,,,,,,,,,,,,,0,35,35,6,1,,,,,,,,,,,,,,,,,,,,,,,,,,,,
,,,,,SPR24_065,19,female,2024-04-18_14h02.53.506,jersey_experiment_5_v0,2023.2.2,Win32,84.74576271,,,,,,,,,,,,,,,,599.1711,600.2178,600.2178,602.7356,return,1.359,,54.16666667,,,,,,FBP-RB-17.png,0.4,1.2,33,0.25,,,,,,,,,,,,,0,36,36,32,1,,,,,,,,,,,,,,,,,,,,,,,,,,,,
,,,,,SPR24_065,19,female,2024-04-18_14h02.53.506,jersey_experiment_5_v0,2023.2.2,Win32,84.74576271,,,,,,,,,,,,,,,,602.7357,604.0297,604.0298,605.7003,return,0.1678,,69.921875,,,,,,FBP-PT-19.png,0.45,1.2,60,0.5,,,,,,,,,,,,,0,37,37,59,1,,,,,,,,,,,,,,,,,,,,,,,,,,,,
,,,,,SPR24_065,19,female,2024-04-18_14h02.53.506,jersey_experiment_5_v0,2023.2.2,Win32,84.74576271,,,,,,,,,,,,,,,,605.7005,606.7476,606.7476,608.1124,return,0.1699,,50.91145833,,,,,,FBP-RB-18.png,0.37,1.2,37,0.25,,,,,,,,,,,,,0,38,38,36,1,,,,,,,,,,,,,,,,,,,,,,,,,,,,
,,,,,SPR24_065,19,female,2024-04-18_14h02.53.506,jersey_experiment_5_v0,2023.2.2,Win32,84.74576271,,,,,,,,,,,,,,,,608.1127,609.1592,609.1593,610.7359,return,0.196,,35.80729167,,,,,,FBP-RB-17.png,0.37,1.2,32,0.25,,,,,,,,,,,,,0,39,39,31,1,,,,,,,,,,,,,,,,,,,,,,,,,,,,
,,,,,SPR24_065,19,female,2024-04-18_14h02.53.506,jersey_experiment_5_v0,2023.2.2,Win32,84.74576271,,,,,,,,,,,,,,,,610.7362,612.03,612.0301,613.3829,return,0.0847,,70.44270833,,,,,,FBP-PT-18.png,0.43,1.2,54,0.5,,,,,,,,,,,,,0,40,40,53,1,,,,,,,,,,,,,,,,,,,,,,,,,,,,
,,,,,SPR24_065,19,female,2024-04-18_14h02.53.506,jersey_experiment_5_v0,2023.2.2,Win32,84.74576271,,,,,,,,,,,,,,,,613.3832,614.4301,614.4302,615.9361,return,0.2195,,37.890625,,,,,,FBP-RB-18.png,0.35,1.2,36,0.25,,,,,,,,,,,,,0,41,41,35,1,,,,,,,,,,,,,,,,,,,,,,,,,,,,
,,,,,SPR24_065,19,female,2024-04-18_14h02.53.506,jersey_experiment_5_v0,2023.2.2,Win32,84.74576271,,,,,,,,,,,,,,,,615.9364,616.9832,616.9832,619.1363,return,0.6999,,19.921875,,,,,,FBP-RB-19.png,0.35,1.2,41,0.25,,,,,,,,,,,,,0,42,42,40,1,,,,,,,,,,,,,,,,,,,,,,,,,,,,
,,,,,SPR24_065,19,female,2024-04-18_14h02.53.506,jersey_experiment_5_v0,2023.2.2,Win32,84.74576271,,,,,,,,,,,,,,,,619.1365,620.1833,620.1833,621.7952,return,0.1219,,62.5,,,,,,FBP-RB-17.png,0.43,1.2,34,0.25,,,,,,,,,,,,,0,43,43,33,1,,,,,,,,,,,,,,,,,,,,,,,,,,,,
,,,,,SPR24_065,19,female,2024-04-18_14h02.53.506,jersey_experiment_5_v0,2023.2.2,Win32,84.74576271,,,,,,,,,,,,,,,,621.7954,622.8421,622.8422,625.513,return,0.6453,,39.58333333,,,,,,FBP-OG-71.png,0.37,1.2,2,0.25,,,,,,,,,,,,,0,44,44,1,1,,,,,,,,,,,,,,,,,,,,,,,,,,,,
,,,,,SPR24_065,19,female,2024-04-18_14h02.53.506,jersey_experiment_5_v0,2023.2.2,Win32,84.74576271,,,,,,,,,,,,,,,,625.5132,626.8069,626.807,629.6894,return,1.2721,,71.61458333,,,,,,FBP-PT-18.png,0.45,1.2,55,0.5,,,,,,,,,,,,,0,45,45,54,1,,,,,,,,,,,,,,,,,,,,,,,,,,,,
,,,,,SPR24_065,19,female,2024-04-18_14h02.53.506,jersey_experiment_5_v0,2023.2.2,Win32,84.74576271,,,,,,,,,,,,,,,,629.6897,630.7365,630.7365,632.6661,return,0.8705,,67.44791667,,,,,,FBP-OG-81.png,0.4,1.2,8,0.25,,,,,,,,,,,,,0,46,46,7,1,,,,,,,,,,,,,,,,,,,,,,,,,,,,
,,,,,SPR24_065,19,female,2024-04-18_14h02.53.506,jersey_experiment_5_v0,2023.2.2,Win32,84.74576271,,,,,,,,,,,,,,,,632.6664,633.9601,633.9602,635.2543,return,0.1281,,43.22916667,,,,,,FBP-PT-18.png,0.37,1.2,52,0.5,,,,,,,,,,,,,0,47,47,51,1,,,,,,,,,,,,,,,,,,,,,,,,,,,,
,,,,,SPR24_065,19,female,2024-04-18_14h02.53.506,jersey_experiment_5_v0,2023.2.2,Win32,84.74576271,,,,,,,,,,,,,,,,635.2546,636.5485,636.5485,638.0308,return,1.0768,,46.61458333,,,,,,FBP-PT-17.png,0.37,1.2,47,0.5,,,,,,,,,,,,,0,48,48,46,1,,,,,,,,,,,,,,,,,,,,,,,,,,,,
,,,,,SPR24_065,19,female,2024-04-18_14h02.53.506,jersey_experiment_5_v0,2023.2.2,Win32,84.74576271,,,,,,,,,,,,,,,,638.031,639.0779,639.078,641.0429,return,0.0611,,74.73958333,,,,,,FBP-OG-71.png,0.43,1.2,4,0.25,,,,,,,,,,,,,0,49,49,3,1,,,,,,,,,,,,,,,,,,,,,,,,,,,,
,,,,,SPR24_065,19,female,2024-04-18_14h02.53.506,jersey_experiment_5_v0,2023.2.2,Win32,84.74576271,,,,,,,,,,,,,,,,641.0431,642.3369,642.3369,642.9841,return,0.1307,,73.046875,,,,,,FBP-PT-19.png,0.43,1.2,59,0.5,,,,,,,,,,,,,0,50,50,58,1,,,,,,,,,,,,,,,,,,,,,,,,,,,,
,,,,,SPR24_065,19,female,2024-04-18_14h02.53.506,jersey_experiment_5_v0,2023.2.2,Win32,84.74576271,,,,,,,,,,,,,,,,642.9843,644.2782,644.2783,644.6901,return,0.1091,,73.046875,,,,,,FBP-PT-17.png,0.4,1.2,48,0.5,,,,,,,,,,,,,0,51,51,47,1,,,,,,,,,,,,,,,,,,,,,,,,,,,,
,,,,,SPR24_065,19,female,2024-04-18_14h02.53.506,jersey_experiment_5_v0,2023.2.2,Win32,84.74576271,,,,,,,,,,,,,,,,644.6903,645.737,645.7371,646.9843,return,0.1079,,53.64583333,,,,,,FBP-RB-19.png,0.37,1.2,42,0.25,,,,,,,,,,,,,0,52,52,41,1,,,,,,,,,,,,,,,,,,,,,,,,,,,,
,,,,,SPR24_065,19,female,2024-04-18_14h02.53.506,jersey_experiment_5_v0,2023.2.2,Win32,84.74576271,,,,,,,,,,,,,,,,646.9845,648.0312,648.0312,649.1138,return,0.0942,,85.67708333,,,,,,FBP-RB-19.png,0.43,1.2,44,0.25,,,,,,,,,,,,,0,53,53,43,1,,,,,,,,,,,,,,,,,,,,,,,,,,,,
,,,,,SPR24_065,19,female,2024-04-18_14h02.53.506,jersey_experiment_5_v0,2023.2.2,Win32,84.74576271,,,,,,,,,,,,,,,,649.114,650.1608,650.1609,650.7726,return,0.0854,,85.67708333,,,,,,FBP-RB-17.png,0.45,1.2,35,0.25,,,,,,,,,,,,,0,54,54,34,1,,,,,,,,,,,,,,,,,,,,,,,,,,,,
,,,,,SPR24_065,19,female,2024-04-18_14h02.53.506,jersey_experiment_5_v0,2023.2.2,Win32,84.74576271,,,,,,,,,,,,,,,,650.7728,651.8196,651.8196,652.7257,return,0.1417,,99.21875,,,,,,FBP-RB-18.png,0.45,1.2,40,0.25,,,,,,,,,,,,,0,55,55,39,1,,,,,,,,,,,,,,,,,,,,,,,,,,,,
,,,,,SPR24_065,19,female,2024-04-18_14h02.53.506,jersey_experiment_5_v0,2023.2.2,Win32,84.74576271,,,,,,,,,,,,,,,,652.726,653.7726,653.7727,656.2433,return,1.4968,,62.890625,,,,,,FBP-OG-71.png,0.4,1.2,3,0.25,,,,,,,,,,,,,0,56,56,2,1,,,,,,,,,,,,,,,,,,,,,,,,,,,,
,,,,,SPR24_065,19,female,2024-04-18_14h02.53.506,jersey_experiment_5_v0,2023.2.2,Win32,84.74576271,,,,,,,,,,,,,,,,656.2436,657.5375,657.5376,658.5847,return,0.1403,,23.17708333,,,,,,FBP-PT-19.png,0.35,1.2,56,0.5,,,,,,,,,,,,,0,57,57,55,1,,,,,,,,,,,,,,,,,,,,,,,,,,,,
,,,,,SPR24_065,19,female,2024-04-18_14h02.53.506,jersey_experiment_5_v0,2023.2.2,Win32,84.74576271,,,,,,,,,,,,,,,,658.5849,659.6316,659.6316,660.7611,return,0.7164,,11.45833333,,,,,,FBP-OG-91.png,0.35,1.2,11,0.25,,,,,,,,,,,,,0,58,58,10,1,,,,,,,,,,,,,,,,,,,,,,,,,,,,
,,,,,SPR24_065,19,female,2024-04-18_14h02.53.506,jersey_experiment_5_v0,2023.2.2,Win32,84.74576271,,,,,,,,,,,,,,,,660.7614,662.0552,662.0553,662.5847,return,0.1416,,11.45833333,,,,,,FBP-YG-18.png,0.35,1.2,21,0.5,,,,,,,,,,,,,0,59,59,20,1,,,,,,,,,,,,,,,,,,,,,,,,,,,,
,,,,,SPR24_065,19,female,2024-04-18_14h02.53.506,jersey_experiment_5_v0,2023.2.2,Win32,84.74576271,,,,,,,,,,,,,,,,662.5863,663.6318,663.6318,665.3143,return,0.0637,,74.34895833,,,,,,FBP-OG-18.png,0.45,1.2,10,0.25,,,,,,,,,,,,,,,,,,0,0,0,9,1,,,,,,,,,,,,,,,,,,,,,,,
,,,,,SPR24_065,19,female,2024-04-18_14h02.53.506,jersey_experiment_5_v0,2023.2.2,Win32,84.74576271,,,,,,,,,,,,,,,,665.3147,666.6084,666.6085,667.338,return,0.1643,,96.875,,,,,,FBP-PT-91.png,0.45,1.2,60,0.5,,,,,,,,,,,,,,,,,,0,1,1,59,1,,,,,,,,,,,,,,,,,,,,,,,
,,,,,SPR24_065,19,female,2024-04-18_14h02.53.506,jersey_experiment_5_v0,2023.2.2,Win32,84.74576271,,,,,,,,,,,,,,,,667.3382,668.6322,668.6323,669.6557,return,0.057,,81.77083333,,,,,,FBP-YG-91.png,0.4,1.2,28,0.5,,,,,,,,,,,,,,,,,,0,2,2,27,1,,,,,,,,,,,,,,,,,,,,,,,
,,,,,SPR24_065,19,female,2024-04-18_14h02.53.506,jersey_experiment_5_v0,2023.2.2,Win32,84.74576271,,,,,,,,,,,,,,,,669.6559,670.7028,670.7028,671.6792,return,0.2435,,92.05729167,,,,,,FBP-RB-71.png,0.43,1.2,34,0.25,,,,,,,,,,,,,,,,,,0,3,3,33,1,,,,,,,,,,,,,,,,,,,,,,,
,,,,,SPR24_065,19,female,2024-04-18_14h02.53.506,jersey_experiment_5_v0,2023.2.2,Win32,84.74576271,,,,,,,,,,,,,,,,671.6794,672.9734,672.9735,673.6086,return,0.2118,,99.609375,,,,,,FBP-YG-91.png,0.45,1.2,30,0.5,,,,,,,,,,,,,,,,,,0,4,4,29,1,,,,,,,,,,,,,,,,,,,,,,,
,,,,,SPR24_065,19,female,2024-04-18_14h02.53.506,jersey_experiment_5_v0,2023.2.2,Win32,84.74576271,,,,,,,,,,,,,,,,673.6088,674.9029,674.9029,676.8206,return,0.7206,,25.78125,,,,,,FBP-YG-71.png,0.35,1.2,16,0.5,,,,,,,,,,,,,,,,,,0,5,5,15,1,,,,,,,,,,,,,,,,,,,,,,,
,,,,,SPR24_065,19,female,2024-04-18_14h02.53.506,jersey_experiment_5_v0,2023.2.2,Win32,84.74576271,,,,,,,,,,,,,,,,676.8209,678.1148,678.1148,679.2088,return,0.0468,,12.36979167,,,,,,FBP-PT-71.png,0.35,1.2,46,0.5,,,,,,,,,,,,,,,,,,0,6,6,45,1,,,,,,,,,,,,,,,,,,,,,,,
,,,,,SPR24_065,19,female,2024-04-18_14h02.53.506,jersey_experiment_5_v0,2023.2.2,Win32,84.74576271,,,,,,,,,,,,,,,,679.2089,680.2562,680.2562,681.562,return,0.1183,,4.036458333,,,,,,FBP-RB-81.png,0.35,1.2,36,0.25,,,,,,,,,,,,,,,,,,0,7,7,35,1,,,,,,,,,,,,,,,,,,,,,,,
,,,,,SPR24_065,19,female,2024-04-18_14h02.53.506,jersey_experiment_5_v0,2023.2.2,Win32,84.74576271,,,,,,,,,,,,,,,,681.5621,682.8562,682.8562,685.2091,return,1.2573,,87.63020833,,,,,,FBP-YG-71.png,0.45,1.2,20,0.5,,,,,,,,,,,,,,,,,,0,8,8,19,1,,,,,,,,,,,,,,,,,,,,,,,
,,,,,SPR24_065,19,female,2024-04-18_14h02.53.506,jersey_experiment_5_v0,2023.2.2,Win32,84.74576271,,,,,,,,,,,,,,,,685.2094,686.5032,686.5032,687.8916,return,0.1082,,61.45833333,,,,,,FBP-PT-71.png,0.4,1.2,48,0.5,,,,,,,,,,,,,,,,,,0,9,9,47,1,,,,,,,,,,,,,,,,,,,,,,,
,,,,,SPR24_065,19,female,2024-04-18_14h02.53.506,jersey_experiment_5_v0,2023.2.2,Win32,84.74576271,,,,,,,,,,,,,,,,687.8918,688.9386,688.9387,691.0915,return,0.1449,,38.671875,,,,,,FBP-RB-71.png,0.35,1.2,31,0.25,,,,,,,,,,,,,,,,,,0,10,10,30,1,,,,,,,,,,,,,,,,,,,,,,,
,,,,,SPR24_065,19,female,2024-04-18_14h02.53.506,jersey_experiment_5_v0,2023.2.2,Win32,84.74576271,,,,,,,,,,,,,,,,691.0918,692.3859,692.3859,693.127,return,0.0234,,25.13020833,,,,,,FBP-YG-81.png,0.35,1.2,21,0.5,,,,,,,,,,,,,,,,,,0,11,11,20,1,,,,,,,,,,,,,,,,,,,,,,,
,,,,,SPR24_065,19,female,2024-04-18_14h02.53.506,jersey_experiment_5_v0,2023.2.2,Win32,84.74576271,,,,,,,,,,,,,,,,693.1273,694.421,694.4211,695.6801,return,0.6189,,39.97395833,,,,,,FBP-YG-81.png,0.4,1.2,23,0.5,,,,,,,,,,,,,,,,,,0,12,12,22,1,,,,,,,,,,,,,,,,,,,,,,,
,,,,,SPR24_065,19,female,2024-04-18_14h02.53.506,jersey_experiment_5_v0,2023.2.2,Win32,84.74576271,,,,,,,,,,,,,,,,695.6803,696.7271,696.7272,697.7625,return,0.1202,,62.76041667,,,,,,FBP-RB-91.png,0.43,1.2,44,0.25,,,,,,,,,,,,,,,,,,0,13,13,43,1,,,,,,,,,,,,,,,,,,,,,,,
,,,,,SPR24_065,19,female,2024-04-18_14h02.53.506,jersey_experiment_5_v0,2023.2.2,Win32,84.74576271,,,,,,,,,,,,,,,,697.7627,698.8094,698.8095,699.9508,return,0.0911,,47.91666667,,,,,,FBP-RB-71.png,0.37,1.2,32,0.25,,,,,,,,,,,,,,,,,,0,14,14,31,1,,,,,,,,,,,,,,,,,,,,,,,
,,,,,SPR24_065,19,female,2024-04-18_14h02.53.506,jersey_experiment_5_v0,2023.2.2,Win32,84.74576271,,,,,,,,,,,,,,,,699.951,701.2448,701.2449,701.9862,return,0.0625,,92.44791667,,,,,,FBP-PT-81.png,0.45,1.2,55,0.5,,,,,,,,,,,,,,,,,,0,15,15,54,1,,,,,,,,,,,,,,,,,,,,,,,
,,,,,SPR24_065,19,female,2024-04-18_14h02.53.506,jersey_experiment_5_v0,2023.2.2,Win32,84.74576271,,,,,,,,,,,,,,,,701.9865,703.0333,703.0333,704.1746,return,0.1266,,98.828125,,,,,,FBP-RB-91.png,0.45,1.2,45,0.25,,,,,,,,,,,,,,,,,,0,16,16,44,1,,,,,,,,,,,,,,,,,,,,,,,
,,,,,SPR24_065,19,female,2024-04-18_14h02.53.506,jersey_experiment_5_v0,2023.2.2,Win32,84.74576271,,,,,,,,,,,,,,,,704.1747,705.4685,705.4685,707.104,return,0.7248,,73.4375,,,,,,FBP-YG-71.png,0.4,1.2,18,0.5,,,,,,,,,,,,,,,,,,0,17,17,17,1,,,,,,,,,,,,,,,,,,,,,,,
,,,,,SPR24_065,19,female,2024-04-18_14h02.53.506,jersey_experiment_5_v0,2023.2.2,Win32,84.74576271,,,,,,,,,,,,,,,,707.1043,708.151,708.151,708.9275,return,0.0655,,74.08854167,,,,,,FBP-RB-81.png,0.4,1.2,38,0.25,,,,,,,,,,,,,,,,,,0,18,18,37,1,,,,,,,,,,,,,,,,,,,,,,,
,,,,,SPR24_065,19,female,2024-04-18_14h02.53.506,jersey_experiment_5_v0,2023.2.2,Win32,84.74576271,,,,,,,,,,,,,,,,708.9277,709.9747,709.9748,710.9512,return,0.0806,,62.76041667,,,,,,FBP-RB-91.png,0.37,1.2,42,0.25,,,,,,,,,,,,,,,,,,0,19,19,41,1,,,,,,,,,,,,,,,,,,,,,,,
,,,,,SPR24_065,19,female,2024-04-18_14h02.53.506,jersey_experiment_5_v0,2023.2.2,Win32,84.74576271,,,,,,,,,,,,,,,,710.9515,712.2453,712.2453,713.1865,return,0.0386,,61.45833333,,,,,,FBP-PT-81.png,0.4,1.2,53,0.5,,,,,,,,,,,,,,,,,,0,20,20,52,1,,,,,,,,,,,,,,,,,,,,,,,
,,,,,SPR24_065,19,female,2024-04-18_14h02.53.506,jersey_experiment_5_v0,2023.2.2,Win32,84.74576271,,,,,,,,,,,,,,,,713.1867,714.2336,714.2337,715.6691,return,0.6592,,72.13541667,,,,,,FBP-RB-91.png,0.4,1.2,43,0.25,,,,,,,,,,,,,,,,,,0,21,21,42,1,,,,,,,,,,,,,,,,,,,,,,,
,,,,,SPR24_065,19,female,2024-04-18_14h02.53.506,jersey_experiment_5_v0,2023.2.2,Win32,84.74576271,,,,,,,,,,,,,,,,715.6693,716.716,716.716,718.1515,return,0.5755,,59.24479167,,,,,,FBP-RB-81.png,0.37,1.2,37,0.25,,,,,,,,,,,,,,,,,,0,22,22,36,1,,,,,,,,,,,,,,,,,,,,,,,
,,,,,SPR24_065,19,female,2024-04-18_14h02.53.506,jersey_experiment_5_v0,2023.2.2,Win32,84.74576271,,,,,,,,,,,,,,,,718.1517,719.1986,719.1986,721.1515,return,0.161,,85.9375,,,,,,FBP-OG-19.png,0.45,1.2,15,0.25,,,,,,,,,,,,,,,,,,0,23,23,14,1,,,,,,,,,,,,,,,,,,,,,,,
,,,,,SPR24_065,19,female,2024-04-18_14h02.53.506,jersey_experiment_5_v0,2023.2.2,Win32,84.74576271,,,,,,,,,,,,,,,,721.1518,722.1986,722.1986,723.1046,return,0.1223,,85.28645833,,,,,,FBP-RB-71.png,0.4,1.2,33,0.25,,,,,,,,,,,,,,,,,,0,24,24,32,1,,,,,,,,,,,,,,,,,,,,,,,
,,,,,SPR24_065,19,female,2024-04-18_14h02.53.506,jersey_experiment_5_v0,2023.2.2,Win32,84.74576271,,,,,,,,,,,,,,,,723.1049,724.1516,724.1516,725.3635,return,0.1101,,93.61979167,,,,,,FBP-OG-17.png,0.45,1.2,5,0.25,,,,,,,,,,,,,,,,,,0,25,25,4,1,,,,,,,,,,,,,,,,,,,,,,,
,,,,,SPR24_065,19,female,2024-04-18_14h02.53.506,jersey_experiment_5_v0,2023.2.2,Win32,84.74576271,,,,,,,,,,,,,,,,725.3637,726.4105,726.4105,727.6224,return,0.2032,,93.359375,,,,,,FBP-OG-19.png,0.43,1.2,14,0.25,,,,,,,,,,,,,,,,,,0,26,26,13,1,,,,,,,,,,,,,,,,,,,,,,,
,,,,,SPR24_065,19,female,2024-04-18_14h02.53.506,jersey_experiment_5_v0,2023.2.2,Win32,84.74576271,,,,,,,,,,,,,,,,727.6227,728.9165,728.9165,730.0342,return,0.1224,,73.17708333,,,,,,FBP-PT-71.png,0.43,1.2,49,0.5,,,,,,,,,,,,,,,,,,0,27,27,48,1,,,,,,,,,,,,,,,,,,,,,,,
,,,,,SPR24_065,19,female,2024-04-18_14h02.53.506,jersey_experiment_5_v0,2023.2.2,Win32,84.74576271,,,,,,,,,,,,,,,,730.0345,731.0815,731.0815,733.6343,return,1.5673,,39.453125,,,,,,FBP-RB-91.png,0.35,1.2,41,0.25,,,,,,,,,,,,,,,,,,0,28,28,40,1,,,,,,,,,,,,,,,,,,,,,,,
,,,,,SPR24_065,19,female,2024-04-18_14h02.53.506,jersey_experiment_5_v0,2023.2.2,Win32,84.74576271,,,,,,,,,,,,,,,,733.6345,734.9283,734.9283,736.1169,return,0.1187,,65.10416667,,,,,,FBP-PT-71.png,0.45,1.2,50,0.5,,,,,,,,,,,,,,,,,,0,29,29,49,1,,,,,,,,,,,,,,,,,,,,,,,
,,,,,SPR24_065,19,female,2024-04-18_14h02.53.506,jersey_experiment_5_v0,2023.2.2,Win32,84.74576271,,,,,,,,,,,,,,,,736.1171,737.1637,737.1638,738.3404,return,0.0835,,58.59375,,,,,,FBP-OG-18.png,0.4,1.2,8,0.25,,,,,,,,,,,,,,,,,,0,30,30,7,1,,,,,,,,,,,,,,,,,,,,,,,
,,,,,SPR24_065,19,female,2024-04-18_14h02.53.506,jersey_experiment_5_v0,2023.2.2,Win32,84.74576271,,,,,,,,,,,,,,,,738.3406,739.3876,739.3877,741.7758,return,0.6663,,32.94270833,,,,,,FBP-OG-18.png,0.35,1.2,6,0.25,,,,,,,,,,,,,,,,,,0,31,31,5,1,,,,,,,,,,,,,,,,,,,,,,,
,,,,,SPR24_065,19,female,2024-04-18_14h02.53.506,jersey_experiment_5_v0,2023.2.2,Win32,84.74576271,,,,,,,,,,,,,,,,741.7761,743.07,743.07,743.6817,return,0.0526,,34.375,,,,,,FBP-YG-81.png,0.37,1.2,22,0.5,,,,,,,,,,,,,,,,,,0,32,32,21,1,,,,,,,,,,,,,,,,,,,,,,,
,,,,,SPR24_065,19,female,2024-04-18_14h02.53.506,jersey_experiment_5_v0,2023.2.2,Win32,84.74576271,,,,,,,,,,,,,,,,743.6818,744.9758,744.9758,745.9407,return,0.1435,,40.75520833,,,,,,FBP-PT-91.png,0.4,1.2,58,0.5,,,,,,,,,,,,,,,,,,0,33,33,57,1,,,,,,,,,,,,,,,,,,,,,,,
,,,,,SPR24_065,19,female,2024-04-18_14h02.53.506,jersey_experiment_5_v0,2023.2.2,Win32,84.74576271,,,,,,,,,,,,,,,,745.9409,747.2349,747.2349,747.882,return,0.1883,,40.75520833,,,,,,FBP-PT-81.png,0.35,1.2,51,0.5,,,,,,,,,,,,,,,,,,0,34,34,50,1,,,,,,,,,,,,,,,,,,,,,,,
,,,,,SPR24_065,19,female,2024-04-18_14h02.53.506,jersey_experiment_5_v0,2023.2.2,Win32,84.74576271,,,,,,,,,,,,,,,,747.8822,748.9288,748.9289,749.8231,return,0.0783,,43.359375,,,,,,FBP-OG-17.png,0.4,1.2,3,0.25,,,,,,,,,,,,,,,,,,0,35,35,2,1,,,,,,,,,,,,,,,,,,,,,,,
,,,,,SPR24_065,19,female,2024-04-18_14h02.53.506,jersey_experiment_5_v0,2023.2.2,Win32,84.74576271,,,,,,,,,,,,,,,,749.8233,750.8703,750.8703,752.2821,return,0.0718,,86.58854167,,,,,,FBP-RB-81.png,0.45,1.2,40,0.25,,,,,,,,,,,,,,,,,,0,36,36,39,1,,,,,,,,,,,,,,,,,,,,,,,
,,,,,SPR24_065,19,female,2024-04-18_14h02.53.506,jersey_experiment_5_v0,2023.2.2,Win32,84.74576271,,,,,,,,,,,,,,,,752.2824,753.3292,753.3293,755.5529,return,0.8889,,81.640625,,,,,,FBP-OG-17.png,0.43,1.2,4,0.25,,,,,,,,,,,,,,,,,,0,37,37,3,1,,,,,,,,,,,,,,,,,,,,,,,
,,,,,SPR24_065,19,female,2024-04-18_14h02.53.506,jersey_experiment_5_v0,2023.2.2,Win32,84.74576271,,,,,,,,,,,,,,,,755.5531,756.5999,756.5999,757.8117,return,0.1662,,49.47916667,,,,,,FBP-OG-18.png,0.37,1.2,7,0.25,,,,,,,,,,,,,,,,,,0,38,38,6,1,,,,,,,,,,,,,,,,,,,,,,,
,,,,,SPR24_065,19,female,2024-04-18_14h02.53.506,jersey_experiment_5_v0,2023.2.2,Win32,84.74576271,,,,,,,,,,,,,,,,757.8119,759.1058,759.1058,759.9293,return,0.0939,,25.13020833,,,,,,FBP-PT-91.png,0.35,1.2,56,0.5,,,,,,,,,,,,,,,,,,0,39,39,55,1,,,,,,,,,,,,,,,,,,,,,,,
,,,,,SPR24_065,19,female,2024-04-18_14h02.53.506,jersey_experiment_5_v0,2023.2.2,Win32,84.74576271,,,,,,,,,,,,,,,,759.9296,761.2236,761.2236,763.3178,return,0.084,,35.546875,,,,,,FBP-YG-71.png,0.37,1.2,17,0.5,,,,,,,,,,,,,,,,,,0,40,40,16,1,,,,,,,,,,,,,,,,,,,,,,,
,,,,,SPR24_065,19,female,2024-04-18_14h02.53.506,jersey_experiment_5_v0,2023.2.2,Win32,84.74576271,,,,,,,,,,,,,,,,763.318,764.6119,764.6119,765.059,return,0.0728,,35.546875,,,,,,FBP-PT-71.png,0.37,1.2,47,0.5,,,,,,,,,,,,,,,,,,0,41,41,46,1,,,,,,,,,,,,,,,,,,,,,,,
,,,,,SPR24_065,19,female,2024-04-18_14h02.53.506,jersey_experiment_5_v0,2023.2.2,Win32,84.74576271,,,,,,,,,,,,,,,,765.0592,766.106,766.106,767.1298,return,0.1195,,26.43229167,,,,,,FBP-OG-19.png,0.35,1.2,11,0.25,,,,,,,,,,,,,,,,,,0,42,42,10,1,,,,,,,,,,,,,,,,,,,,,,,
,,,,,SPR24_065,19,female,2024-04-18_14h02.53.506,jersey_experiment_5_v0,2023.2.2,Win32,84.74576271,,,,,,,,,,,,,,,,767.13,768.4238,768.4238,770.0944,return,0.1616,,71.875,,,,,,FBP-YG-91.png,0.43,1.2,29,0.5,,,,,,,,,,,,,,,,,,0,43,43,28,1,,,,,,,,,,,,,,,,,,,,,,,
,,,,,SPR24_065,19,female,2024-04-18_14h02.53.506,jersey_experiment_5_v0,2023.2.2,Win32,84.74576271,,,,,,,,,,,,,,,,770.0946,771.1415,771.1416,772.1534,return,0.1415,,80.859375,,,,,,FBP-OG-18.png,0.43,1.2,9,0.25,,,,,,,,,,,,,,,,,,0,44,44,8,1,,,,,,,,,,,,,,,,,,,,,,,
,,,,,SPR24_065,19,female,2024-04-18_14h02.53.506,jersey_experiment_5_v0,2023.2.2,Win32,84.74576271,,,,,,,,,,,,,,,,772.1536,773.4474,773.4474,775.6358,return,0.0504,,79.81770833,,,,,,FBP-YG-81.png,0.43,1.2,24,0.5,,,,,,,,,,,,,,,,,,0,45,45,23,1,,,,,,,,,,,,,,,,,,,,,,,
,,,,,SPR24_065,19,female,2024-04-18_14h02.53.506,jersey_experiment_5_v0,2023.2.2,Win32,84.74576271,,,,,,,,,,,,,,,,775.636,776.9299,776.9299,778.4241,return,0.1883,,32.8125,,,,,,FBP-YG-91.png,0.35,1.2,26,0.5,,,,,,,,,,,,,,,,,,0,46,46,25,1,,,,,,,,,,,,,,,,,,,,,,,
,,,,,SPR24_065,19,female,2024-04-18_14h02.53.506,jersey_experiment_5_v0,2023.2.2,Win32,84.74576271,,,,,,,,,,,,,,,,778.4243,779.7183,779.7183,780.5772,return,0.0396,,32.03125,,,,,,FBP-PT-81.png,0.37,1.2,52,0.5,,,,,,,,,,,,,,,,,,0,47,47,51,1,,,,,,,,,,,,,,,,,,,,,,,
,,,,,SPR24_065,19,female,2024-04-18_14h02.53.506,jersey_experiment_5_v0,2023.2.2,Win32,84.74576271,,,,,,,,,,,,,,,,780.5775,781.8713,781.8713,783.8244,return,0.6753,,60.67708333,,,,,,FBP-PT-81.png,0.43,1.2,54,0.5,,,,,,,,,,,,,,,,,,0,48,48,53,1,,,,,,,,,,,,,,,,,,,,,,,
,,,,,SPR24_065,19,female,2024-04-18_14h02.53.506,jersey_experiment_5_v0,2023.2.2,Win32,84.74576271,,,,,,,,,,,,,,,,783.8247,785.1185,785.1185,786.4832,return,0.0841,,56.90104167,,,,,,FBP-PT-91.png,0.37,1.2,57,0.5,,,,,,,,,,,,,,,,,,0,49,49,56,1,,,,,,,,,,,,,,,,,,,,,,,
,,,,,SPR24_065,19,female,2024-04-18_14h02.53.506,jersey_experiment_5_v0,2023.2.2,Win32,84.74576271,,,,,,,,,,,,,,,,786.4834,787.7773,787.7774,790.2247,return,1.523,,34.375,,,,,,FBP-YG-91.png,0.37,1.2,27,0.5,,,,,,,,,,,,,,,,,,0,50,50,26,1,,,,,,,,,,,,,,,,,,,,,,,
,,,,,SPR24_065,19,female,2024-04-18_14h02.53.506,jersey_experiment_5_v0,2023.2.2,Win32,84.74576271,,,,,,,,,,,,,,,,790.2249,791.2716,791.2717,793.0011,return,0.6587,,20.57291667,,,,,,FBP-OG-19.png,0.37,1.2,12,0.25,,,,,,,,,,,,,,,,,,0,51,51,11,1,,,,,,,,,,,,,,,,,,,,,,,
,,,,,SPR24_065,19,female,2024-04-18_14h02.53.506,jersey_experiment_5_v0,2023.2.2,Win32,84.74576271,,,,,,,,,,,,,,,,793.0014,794.0482,794.0483,794.9777,return,0.1465,,11.45833333,,,,,,FBP-OG-17.png,0.35,1.2,1,0.25,,,,,,,,,,,,,,,,,,0,52,52,0,1,,,,,,,,,,,,,,,,,,,,,,,
,,,,,SPR24_065,19,female,2024-04-18_14h02.53.506,jersey_experiment_5_v0,2023.2.2,Win32,84.74576271,,,,,,,,,,,,,,,,794.9779,796.2718,796.2718,797.4483,return,0.1411,,74.21875,,,,,,FBP-YG-81.png,0.45,1.2,25,0.5,,,,,,,,,,,,,,,,,,0,53,53,24,1,,,,,,,,,,,,,,,,,,,,,,,
,,,,,SPR24_065,19,female,2024-04-18_14h02.53.506,jersey_experiment_5_v0,2023.2.2,Win32,84.74576271,,,,,,,,,,,,,,,,797.4485,798.7425,798.7425,799.9779,return,0.3195,,73.30729167,,,,,,FBP-PT-91.png,0.43,1.2,59,0.5,,,,,,,,,,,,,,,,,,0,54,54,58,1,,,,,,,,,,,,,,,,,,,,,,,
,,,,,SPR24_065,19,female,2024-04-18_14h02.53.506,jersey_experiment_5_v0,2023.2.2,Win32,84.74576271,,,,,,,,,,,,,,,,799.9781,801.272,801.272,801.9191,return,0.1016,,73.30729167,,,,,,FBP-YG-71.png,0.43,1.2,19,0.5,,,,,,,,,,,,,,,,,,0,55,55,18,1,,,,,,,,,,,,,,,,,,,,,,,
,,,,,SPR24_065,19,female,2024-04-18_14h02.53.506,jersey_experiment_5_v0,2023.2.2,Win32,84.74576271,,,,,,,,,,,,,,,,801.9193,802.9662,802.9662,803.9074,return,0.0627,,67.44791667,,,,,,FBP-OG-19.png,0.4,1.2,13,0.25,,,,,,,,,,,,,,,,,,0,56,56,12,1,,,,,,,,,,,,,,,,,,,,,,,
,,,,,SPR24_065,19,female,2024-04-18_14h02.53.506,jersey_experiment_5_v0,2023.2.2,Win32,84.74576271,,,,,,,,,,,,,,,,803.9076,804.9543,804.9544,806.2487,return,0.1511,,67.578125,,,,,,FBP-RB-81.png,0.43,1.2,39,0.25,,,,,,,,,,,,,,,,,,0,57,57,38,1,,,,,,,,,,,,,,,,,,,,,,,
,,,,,SPR24_065,19,female,2024-04-18_14h02.53.506,jersey_experiment_5_v0,2023.2.2,Win32,84.74576271,,,,,,,,,,,,,,,,806.2488,807.2958,807.2959,808.6486,return,0.2692,,81.51041667,,,,,,FBP-RB-71.png,0.45,1.2,35,0.25,,,,,,,,,,,,,,,,,,0,58,58,34,1,,,,,,,,,,,,,,,,,,,,,,,
,,,,,SPR24_065,19,female,2024-04-18_14h02.53.506,jersey_experiment_5_v0,2023.2.2,Win32,84.74576271,,,,,,,,,,,,,,,,808.6487,809.6959,809.6959,812.0488,return,0.7106,,43.61979167,,,,,,FBP-OG-17.png,0.37,1.2,2,0.25,,,,,,,,,,,,,,,,,,0,59,59,1,1,,,,,,,,,,,,,,,,,,,,,,,
,,,,,SPR24_065,19,female,2024-04-18_14h02.53.506,jersey_experiment_5_v0,2023.2.2,Win32,84.74576271,,,,,,,,,,,,,,,,,,,,,,,,,,,,,,,,,,,,,,,,,,,,,,,,,,,,,,,,812.0493,816.6965,return,4.6343,,,,,,,,,,,,,,,,,,,
,,,,,SPR24_065,19,female,2024-04-18_14h02.53.506,jersey_experiment_5_v0,2023.2.2,Win32,84.74576271,,,,,,,,,,,,,,,,,,,,,,,,,,,,,,,,,,,,,,,,,,,,,,,,,,,,,,,,,,,,,816.6965,820.92,1,2.9694,return,1.238,,,,,,,,,,,,
,,,,,SPR24_065,19,female,2024-04-18_14h02.53.506,jersey_experiment_5_v0,2023.2.2,Win32,84.74576271,,,,,,,,,,,,,,,,,,,,,,,,,,,,,,,,,,,,,,,,,,,,,,,,,,,,,,,,,,,,,,,,,,,,820.9202,899.2098,"differences in race perception, change in perception when placing different body types after one another (e.g. normal body type might look larger after a thinner body type)",right,70.9801,,,,,,
,,,,,SPR24_065,19,female,2024-04-18_14h02.53.506,jersey_experiment_5_v0,2023.2.2,Win32,84.74576271,,,,,,,,,,,,,,,,,,,,,,,,,,,,,,,,,,,,,,,,,,,,,,,,,,,,,,,,,,,,,,,,,,,,,,,,,,899.2099,902.8169,return,3.6,