requirements.started,requirements.stopped,key_resp_3.keys,key_resp_3.rt,key_resp_3.duration,Subject ID,Age,Gender,date,expName,psychopyVersion,OS,frameRate,instructions1.started,instructions1.stopped,key_resp.keys,key_resp.rt,key_resp.duration,example.started,example.stopped,enter_2.keys,enter_2.rt,enter_2.duration,instructions2.started,instructions2.stopped,enter_3.keys,enter_3.rt,enter_3.duration,image.started,image.stopped,slider_2.started,slider_2.stopped,next.keys,next.rt,next.duration,slider.response,trial_block_1.thisRepN,trial_block_1.thisTrialN,trial_block_1.thisN,trial_block_1.thisIndex,trial_block_1.ran,Path,Width,Height,Index,Duration,trial_block_2.thisRepN,trial_block_2.thisTrialN,trial_block_2.thisN,trial_block_2.thisIndex,trial_block_2.ran,rest_break.started,rest_break.stopped,end_break.started,end_break.stopped,key_resp_5.keys,key_resp_5.rt,key_resp_5.duration,trial_block_3.thisRepN,trial_block_3.thisTrialN,trial_block_3.thisN,trial_block_3.thisIndex,trial_block_3.ran,trial_block_4.thisRepN,trial_block_4.thisTrialN,trial_block_4.thisN,trial_block_4.thisIndex,trial_block_4.ran,questions_intro.started,questions_intro.stopped,enter_12.keys,enter_12.rt,enter_12.duration,question2.started,question2.stopped,question_doingbest.response,question_doingbest.rt,enter_15.keys,enter_15.rt,enter_15.duration,pattern.started,pattern.stopped,pattern_2.text,enter_17.keys,enter_17.rt,enter_17.duration,thankyou.started,thankyou.stopped,enter_14.keys,enter_14.rt,enter_14.duration
0.0002,16.2367,return,16.2331,,SPR24_013,20,Male,2024-04-08_12h02.57.188,jersey_experiment_5_v0,2023.2.2,Win32,84.74576271,,,,,,,,,,,,,,,,,,,,,,,,,,,,,,,,,,,,,,,,,,,,,,,,,,,,,,,,,,,,,,,,,,,,,,,,,,,,,,
,,,,,SPR24_013,20,Male,2024-04-08_12h02.57.188,jersey_experiment_5_v0,2023.2.2,Win32,84.74576271,16.2368,28.8459,return,12.5914,,,,,,,,,,,,,,,,,,,,,,,,,,,,,,,,,,,,,,,,,,,,,,,,,,,,,,,,,,,,,,,,,,,,,,,,,,
,,,,,SPR24_013,20,Male,2024-04-08_12h02.57.188,jersey_experiment_5_v0,2023.2.2,Win32,84.74576271,,,,,,28.846,39.7638,return,10.8784,,,,,,,,,,,,,,,,,,,,,,,,,,,,,,,,,,,,,,,,,,,,,,,,,,,,,,,,,,,,,,,,,,,,,
,,,,,SPR24_013,20,Male,2024-04-08_12h02.57.188,jersey_experiment_5_v0,2023.2.2,Win32,84.74576271,,,,,,,,,,,39.7638,62.4118,return,22.641,,,,,,,,,,,,,,,,,,,,,,,,,,,,,,,,,,,,,,,,,,,,,,,,,,,,,,,,,,,,,,,,
,,,,,SPR24_013,20,Male,2024-04-08_12h02.57.188,jersey_experiment_5_v0,2023.2.2,Win32,84.74576271,,,,,,,,,,,,,,,,62.4182,63.7173,63.7174,83.7418,return,2.144,,25,0,0,0,42,1,FBP-RB-19.png,0.4,1.2,43,0.5,,,,,,,,,,,,,,,,,,,,,,,,,,,,,,,,,,,,,,,,,,,,,
,,,,,SPR24_013,20,Male,2024-04-08_12h02.57.188,jersey_experiment_5_v0,2023.2.2,Win32,84.74576271,,,,,,,,,,,,,,,,83.7423,85.0359,85.0359,93.9656,return,6.3915,,75,0,1,1,4,1,FBP-OG-71.png,0.45,1.2,5,0.5,,,,,,,,,,,,,,,,,,,,,,,,,,,,,,,,,,,,,,,,,,,,,
,,,,,SPR24_013,20,Male,2024-04-08_12h02.57.188,jersey_experiment_5_v0,2023.2.2,Win32,84.74576271,,,,,,,,,,,,,,,,93.9699,95.0127,95.0128,101.7895,return,4.0492,,74.609375,0,2,2,49,1,FBP-PT-17.png,0.45,1.2,50,0.25,,,,,,,,,,,,,,,,,,,,,,,,,,,,,,,,,,,,,,,,,,,,,
,,,,,SPR24_013,20,Male,2024-04-08_12h02.57.188,jersey_experiment_5_v0,2023.2.2,Win32,84.74576271,,,,,,,,,,,,,,,,101.7937,103.0953,103.0954,108.1308,return,2.9754,,50.390625,0,3,3,32,1,FBP-RB-17.png,0.4,1.2,33,0.5,,,,,,,,,,,,,,,,,,,,,,,,,,,,,,,,,,,,,,,,,,,,,
,,,,,SPR24_013,20,Male,2024-04-08_12h02.57.188,jersey_experiment_5_v0,2023.2.2,Win32,84.74576271,,,,,,,,,,,,,,,,108.135,109.1779,109.178,114.331,return,3.299,,25,0,4,4,47,1,FBP-PT-17.png,0.4,1.2,48,0.25,,,,,,,,,,,,,,,,,,,,,,,,,,,,,,,,,,,,,,,,,,,,,
,,,,,SPR24_013,20,Male,2024-04-08_12h02.57.188,jersey_experiment_5_v0,2023.2.2,Win32,84.74576271,,,,,,,,,,,,,,,,114.3354,115.637,115.637,117.4723,return,1.0838,,25,0,5,5,41,1,FBP-RB-19.png,0.37,1.2,42,0.5,,,,,,,,,,,,,,,,,,,,,,,,,,,,,,,,,,,,,,,,,,,,,
,,,,,SPR24_013,20,Male,2024-04-08_12h02.57.188,jersey_experiment_5_v0,2023.2.2,Win32,84.74576271,,,,,,,,,,,,,,,,117.4726,118.7665,118.7666,124.3786,return,3.2055,,73.95833333,0,6,6,13,1,FBP-OG-91.png,0.43,1.2,14,0.5,,,,,,,,,,,,,,,,,,,,,,,,,,,,,,,,,,,,,,,,,,,,,
,,,,,SPR24_013,20,Male,2024-04-08_12h02.57.188,jersey_experiment_5_v0,2023.2.2,Win32,84.74576271,,,,,,,,,,,,,,,,124.383,125.6844,125.6844,128.8963,return,1.6485,,25.13020833,0,7,7,10,1,FBP-OG-91.png,0.35,1.2,11,0.5,,,,,,,,,,,,,,,,,,,,,,,,,,,,,,,,,,,,,,,,,,,,,
,,,,,SPR24_013,20,Male,2024-04-08_12h02.57.188,jersey_experiment_5_v0,2023.2.2,Win32,84.74576271,,,,,,,,,,,,,,,,128.8966,130.1905,130.1905,136.073,return,4.8311,,49.73958333,0,8,8,37,1,FBP-RB-18.png,0.4,1.2,38,0.5,,,,,,,,,,,,,,,,,,,,,,,,,,,,,,,,,,,,,,,,,,,,,
,,,,,SPR24_013,20,Male,2024-04-08_12h02.57.188,jersey_experiment_5_v0,2023.2.2,Win32,84.74576271,,,,,,,,,,,,,,,,136.0772,137.379,137.379,139.4497,return,1.0668,,50.13020833,0,9,9,7,1,FBP-OG-81.png,0.4,1.2,8,0.5,,,,,,,,,,,,,,,,,,,,,,,,,,,,,,,,,,,,,,,,,,,,,
,,,,,SPR24_013,20,Male,2024-04-08_12h02.57.188,jersey_experiment_5_v0,2023.2.2,Win32,84.74576271,,,,,,,,,,,,,,,,139.4499,140.7437,140.7437,143.1322,return,1.1703,,74.609375,0,10,10,8,1,FBP-OG-81.png,0.43,1.2,9,0.5,,,,,,,,,,,,,,,,,,,,,,,,,,,,,,,,,,,,,,,,,,,,,
,,,,,SPR24_013,20,Male,2024-04-08_12h02.57.188,jersey_experiment_5_v0,2023.2.2,Win32,84.74576271,,,,,,,,,,,,,,,,143.1324,144.4264,144.4264,148.6382,return,3.098,,98.56770833,0,11,11,34,1,FBP-RB-17.png,0.45,1.2,35,0.5,,,,,,,,,,,,,,,,,,,,,,,,,,,,,,,,,,,,,,,,,,,,,
,,,,,SPR24_013,20,Male,2024-04-08_12h02.57.188,jersey_experiment_5_v0,2023.2.2,Win32,84.74576271,,,,,,,,,,,,,,,,148.6424,149.9442,149.9442,154.5797,return,2.8568,,24.73958333,0,12,12,0,1,FBP-OG-71.png,0.35,1.2,1,0.5,,,,,,,,,,,,,,,,,,,,,,,,,,,,,,,,,,,,,,,,,,,,,
,,,,,SPR24_013,20,Male,2024-04-08_12h02.57.188,jersey_experiment_5_v0,2023.2.2,Win32,84.74576271,,,,,,,,,,,,,,,,154.5799,155.8737,155.8738,157.7446,return,0.9555,,24.73958333,0,13,13,6,1,FBP-OG-81.png,0.37,1.2,7,0.5,,,,,,,,,,,,,,,,,,,,,,,,,,,,,,,,,,,,,,,,,,,,,
,,,,,SPR24_013,20,Male,2024-04-08_12h02.57.188,jersey_experiment_5_v0,2023.2.2,Win32,84.74576271,,,,,,,,,,,,,,,,157.7447,158.7917,158.7917,163.1211,return,2.6361,,50,0,14,14,53,1,FBP-PT-18.png,0.43,1.2,54,0.25,,,,,,,,,,,,,,,,,,,,,,,,,,,,,,,,,,,,,,,,,,,,,
,,,,,SPR24_013,20,Male,2024-04-08_12h02.57.188,jersey_experiment_5_v0,2023.2.2,Win32,84.74576271,,,,,,,,,,,,,,,,163.1213,164.1681,164.1683,165.8507,return,0.8545,,50,0,15,15,16,1,FBP-YG-17.png,0.37,1.2,17,0.25,,,,,,,,,,,,,,,,,,,,,,,,,,,,,,,,,,,,,,,,,,,,,
,,,,,SPR24_013,20,Male,2024-04-08_12h02.57.188,jersey_experiment_5_v0,2023.2.2,Win32,84.74576271,,,,,,,,,,,,,,,,165.8508,167.1449,167.1449,169.5332,return,0.9681,,99.73958333,0,16,16,14,1,FBP-OG-91.png,0.45,1.2,15,0.5,,,,,,,,,,,,,,,,,,,,,,,,,,,,,,,,,,,,,,,,,,,,,
,,,,,SPR24_013,20,Male,2024-04-08_12h02.57.188,jersey_experiment_5_v0,2023.2.2,Win32,84.74576271,,,,,,,,,,,,,,,,169.5334,170.5802,170.5802,175.0864,return,2.6741,,24.609375,0,17,17,25,1,FBP-YG-19.png,0.35,1.2,26,0.25,,,,,,,,,,,,,,,,,,,,,,,,,,,,,,,,,,,,,,,,,,,,,
,,,,,SPR24_013,20,Male,2024-04-08_12h02.57.188,jersey_experiment_5_v0,2023.2.2,Win32,84.74576271,,,,,,,,,,,,,,,,175.0866,176.3805,176.3806,179.3217,return,1.6202,,49.21875,0,18,18,31,1,FBP-RB-17.png,0.37,1.2,32,0.5,,,,,,,,,,,,,,,,,,,,,,,,,,,,,,,,,,,,,,,,,,,,,
,,,,,SPR24_013,20,Male,2024-04-08_12h02.57.188,jersey_experiment_5_v0,2023.2.2,Win32,84.74576271,,,,,,,,,,,,,,,,179.3219,180.6159,180.616,183.1336,return,1.6026,,49.21875,0,19,19,36,1,FBP-RB-18.png,0.37,1.2,37,0.5,,,,,,,,,,,,,,,,,,,,,,,,,,,,,,,,,,,,,,,,,,,,,
,,,,,SPR24_013,20,Male,2024-04-08_12h02.57.188,jersey_experiment_5_v0,2023.2.2,Win32,84.74576271,,,,,,,,,,,,,,,,183.1338,184.4279,184.4279,186.5456,return,1.2938,,49.21875,0,20,20,11,1,FBP-OG-91.png,0.37,1.2,12,0.5,,,,,,,,,,,,,,,,,,,,,,,,,,,,,,,,,,,,,,,,,,,,,
,,,,,SPR24_013,20,Male,2024-04-08_12h02.57.188,jersey_experiment_5_v0,2023.2.2,Win32,84.74576271,,,,,,,,,,,,,,,,186.5458,187.5927,187.5927,192.2752,return,2.8338,,74.609375,0,21,21,24,1,FBP-YG-18.png,0.45,1.2,25,0.25,,,,,,,,,,,,,,,,,,,,,,,,,,,,,,,,,,,,,,,,,,,,,
,,,,,SPR24_013,20,Male,2024-04-08_12h02.57.188,jersey_experiment_5_v0,2023.2.2,Win32,84.74576271,,,,,,,,,,,,,,,,192.2753,193.5692,193.5693,196.2046,return,1.4508,,98.4375,0,22,22,9,1,FBP-OG-81.png,0.45,1.2,10,0.5,,,,,,,,,,,,,,,,,,,,,,,,,,,,,,,,,,,,,,,,,,,,,
,,,,,SPR24_013,20,Male,2024-04-08_12h02.57.188,jersey_experiment_5_v0,2023.2.2,Win32,84.74576271,,,,,,,,,,,,,,,,196.2048,197.2518,197.2519,200.1461,return,1.2006,,74.73958333,0,23,23,58,1,FBP-PT-19.png,0.43,1.2,59,0.25,,,,,,,,,,,,,,,,,,,,,,,,,,,,,,,,,,,,,,,,,,,,,
,,,,,SPR24_013,20,Male,2024-04-08_12h02.57.188,jersey_experiment_5_v0,2023.2.2,Win32,84.74576271,,,,,,,,,,,,,,,,200.1463,201.4403,201.4403,203.5696,return,1.1062,,74.609375,0,24,24,3,1,FBP-OG-71.png,0.43,1.2,4,0.5,,,,,,,,,,,,,,,,,,,,,,,,,,,,,,,,,,,,,,,,,,,,,
,,,,,SPR24_013,20,Male,2024-04-08_12h02.57.188,jersey_experiment_5_v0,2023.2.2,Win32,84.74576271,,,,,,,,,,,,,,,,203.5699,204.6169,204.6169,208.7817,return,1.6735,,50.13020833,0,25,25,56,1,FBP-PT-19.png,0.37,1.2,57,0.25,,,,,,,,,,,,,,,,,,,,,,,,,,,,,,,,,,,,,,,,,,,,,
,,,,,SPR24_013,20,Male,2024-04-08_12h02.57.188,jersey_experiment_5_v0,2023.2.2,Win32,84.74576271,,,,,,,,,,,,,,,,208.7819,210.0759,210.0759,213.2525,return,1.5433,,49.73958333,0,26,26,33,1,FBP-RB-17.png,0.43,1.2,34,0.5,,,,,,,,,,,,,,,,,,,,,,,,,,,,,,,,,,,,,,,,,,,,,
,,,,,SPR24_013,20,Male,2024-04-08_12h02.57.188,jersey_experiment_5_v0,2023.2.2,Win32,84.74576271,,,,,,,,,,,,,,,,213.2527,214.2995,214.2995,216.6055,return,0.8135,,25.26041667,0,27,27,26,1,FBP-YG-19.png,0.37,1.2,27,0.25,,,,,,,,,,,,,,,,,,,,,,,,,,,,,,,,,,,,,,,,,,,,,
,,,,,SPR24_013,20,Male,2024-04-08_12h02.57.188,jersey_experiment_5_v0,2023.2.2,Win32,84.74576271,,,,,,,,,,,,,,,,216.6058,217.6527,217.6527,219.4173,return,1.0658,,25.390625,0,28,28,55,1,FBP-PT-19.png,0.35,1.2,56,0.25,,,,,,,,,,,,,,,,,,,,,,,,,,,,,,,,,,,,,,,,,,,,,
,,,,,SPR24_013,20,Male,2024-04-08_12h02.57.188,jersey_experiment_5_v0,2023.2.2,Win32,84.74576271,,,,,,,,,,,,,,,,219.4174,220.4645,220.4645,222.8645,return,0.9995,,49.73958333,0,29,29,57,1,FBP-PT-19.png,0.4,1.2,58,0.25,,,,,,,,,,,,,,,,,,,,,,,,,,,,,,,,,,,,,,,,,,,,,
,,,,,SPR24_013,20,Male,2024-04-08_12h02.57.188,jersey_experiment_5_v0,2023.2.2,Win32,84.74576271,,,,,,,,,,,,,,,,222.8647,223.9117,223.9117,226.8294,return,1.546,,25.26041667,0,30,30,50,1,FBP-PT-18.png,0.35,1.2,51,0.25,,,,,,,,,,,,,,,,,,,,,,,,,,,,,,,,,,,,,,,,,,,,,
,,,,,SPR24_013,20,Male,2024-04-08_12h02.57.188,jersey_experiment_5_v0,2023.2.2,Win32,84.74576271,,,,,,,,,,,,,,,,226.8297,227.8765,227.8765,229.5825,return,0.966,,25.26041667,0,31,31,45,1,FBP-PT-17.png,0.35,1.2,46,0.25,,,,,,,,,,,,,,,,,,,,,,,,,,,,,,,,,,,,,,,,,,,,,
,,,,,SPR24_013,20,Male,2024-04-08_12h02.57.188,jersey_experiment_5_v0,2023.2.2,Win32,84.74576271,,,,,,,,,,,,,,,,229.5827,230.6294,230.6295,234.6415,return,0.9651,,74.73958333,0,32,32,59,1,FBP-PT-19.png,0.45,1.2,60,0.25,,,,,,,,,,,,,,,,,,,,,,,,,,,,,,,,,,,,,,,,,,,,,
,,,,,SPR24_013,20,Male,2024-04-08_12h02.57.188,jersey_experiment_5_v0,2023.2.2,Win32,84.74576271,,,,,,,,,,,,,,,,234.6418,235.6885,235.6885,238.2888,return,1.6247,,74.73958333,0,33,33,28,1,FBP-YG-19.png,0.43,1.2,29,0.25,,,,,,,,,,,,,,,,,,,,,,,,,,,,,,,,,,,,,,,,,,,,,
,,,,,SPR24_013,20,Male,2024-04-08_12h02.57.188,jersey_experiment_5_v0,2023.2.2,Win32,84.74576271,,,,,,,,,,,,,,,,238.289,239.5828,239.5828,242.3006,return,1.276,,25.13020833,0,34,34,30,1,FBP-RB-17.png,0.35,1.2,31,0.5,,,,,,,,,,,,,,,,,,,,,,,,,,,,,,,,,,,,,,,,,,,,,
,,,,,SPR24_013,20,Male,2024-04-08_12h02.57.188,jersey_experiment_5_v0,2023.2.2,Win32,84.74576271,,,,,,,,,,,,,,,,242.3007,243.5947,243.5947,246.1243,return,0.7941,,99.08854167,0,35,35,39,1,FBP-RB-18.png,0.45,1.2,40,0.5,,,,,,,,,,,,,,,,,,,,,,,,,,,,,,,,,,,,,,,,,,,,,
,,,,,SPR24_013,20,Male,2024-04-08_12h02.57.188,jersey_experiment_5_v0,2023.2.2,Win32,84.74576271,,,,,,,,,,,,,,,,246.1246,247.4184,247.4185,251.0186,return,1.1117,,72.52604167,0,36,36,43,1,FBP-RB-19.png,0.43,1.2,44,0.5,,,,,,,,,,,,,,,,,,,,,,,,,,,,,,,,,,,,,,,,,,,,,
,,,,,SPR24_013,20,Male,2024-04-08_12h02.57.188,jersey_experiment_5_v0,2023.2.2,Win32,84.74576271,,,,,,,,,,,,,,,,251.0188,252.3127,252.3128,256.8659,return,1.7287,,73.4375,0,37,37,12,1,FBP-OG-91.png,0.4,1.2,13,0.5,,,,,,,,,,,,,,,,,,,,,,,,,,,,,,,,,,,,,,,,,,,,,
,,,,,SPR24_013,20,Male,2024-04-08_12h02.57.188,jersey_experiment_5_v0,2023.2.2,Win32,84.74576271,,,,,,,,,,,,,,,,256.8661,257.9129,257.9129,260.1954,return,0.6722,,50.26041667,0,38,38,51,1,FBP-PT-18.png,0.37,1.2,52,0.25,,,,,,,,,,,,,,,,,,,,,,,,,,,,,,,,,,,,,,,,,,,,,
,,,,,SPR24_013,20,Male,2024-04-08_12h02.57.188,jersey_experiment_5_v0,2023.2.2,Win32,84.74576271,,,,,,,,,,,,,,,,260.1957,261.4896,261.4896,264.9602,return,1.8374,,46.875,0,39,39,5,1,FBP-OG-81.png,0.35,1.2,6,0.5,,,,,,,,,,,,,,,,,,,,,,,,,,,,,,,,,,,,,,,,,,,,,
,,,,,SPR24_013,20,Male,2024-04-08_12h02.57.188,jersey_experiment_5_v0,2023.2.2,Win32,84.74576271,,,,,,,,,,,,,,,,264.9604,266.0073,266.0073,270.1251,return,0.6991,,98.30729167,0,40,40,29,1,FBP-YG-19.png,0.45,1.2,30,0.25,,,,,,,,,,,,,,,,,,,,,,,,,,,,,,,,,,,,,,,,,,,,,
,,,,,SPR24_013,20,Male,2024-04-08_12h02.57.188,jersey_experiment_5_v0,2023.2.2,Win32,84.74576271,,,,,,,,,,,,,,,,270.1254,271.1722,271.1723,273.9017,return,0.7203,,97.78645833,0,41,41,23,1,FBP-YG-18.png,0.43,1.2,24,0.25,,,,,,,,,,,,,,,,,,,,,,,,,,,,,,,,,,,,,,,,,,,,,
,,,,,SPR24_013,20,Male,2024-04-08_12h02.57.188,jersey_experiment_5_v0,2023.2.2,Win32,84.74576271,,,,,,,,,,,,,,,,273.9019,274.9488,274.9488,277.4078,return,0.812,,50.91145833,0,42,42,22,1,FBP-YG-18.png,0.4,1.2,23,0.25,,,,,,,,,,,,,,,,,,,,,,,,,,,,,,,,,,,,,,,,,,,,,
,,,,,SPR24_013,20,Male,2024-04-08_12h02.57.188,jersey_experiment_5_v0,2023.2.2,Win32,84.74576271,,,,,,,,,,,,,,,,277.408,278.7019,278.702,281.6903,return,0.8179,,47.52604167,0,43,43,40,1,FBP-RB-19.png,0.35,1.2,41,0.5,,,,,,,,,,,,,,,,,,,,,,,,,,,,,,,,,,,,,,,,,,,,,
,,,,,SPR24_013,20,Male,2024-04-08_12h02.57.188,jersey_experiment_5_v0,2023.2.2,Win32,84.74576271,,,,,,,,,,,,,,,,281.6906,282.7375,282.7376,286.2669,return,1.2282,,75.13020833,0,44,44,54,1,FBP-PT-18.png,0.45,1.2,55,0.25,,,,,,,,,,,,,,,,,,,,,,,,,,,,,,,,,,,,,,,,,,,,,
,,,,,SPR24_013,20,Male,2024-04-08_12h02.57.188,jersey_experiment_5_v0,2023.2.2,Win32,84.74576271,,,,,,,,,,,,,,,,286.2671,287.5612,287.5612,289.6435,return,0.7126,,75.13020833,0,45,45,38,1,FBP-RB-18.png,0.43,1.2,39,0.5,,,,,,,,,,,,,,,,,,,,,,,,,,,,,,,,,,,,,,,,,,,,,
,,,,,SPR24_013,20,Male,2024-04-08_12h02.57.188,jersey_experiment_5_v0,2023.2.2,Win32,84.74576271,,,,,,,,,,,,,,,,289.6438,290.9378,290.9378,293.4555,return,0.8597,,46.74479167,0,46,46,1,1,FBP-OG-71.png,0.37,1.2,2,0.5,,,,,,,,,,,,,,,,,,,,,,,,,,,,,,,,,,,,,,,,,,,,,
,,,,,SPR24_013,20,Male,2024-04-08_12h02.57.188,jersey_experiment_5_v0,2023.2.2,Win32,84.74576271,,,,,,,,,,,,,,,,293.4557,294.5026,294.5027,296.1968,return,0.8005,,48.95833333,0,47,47,27,1,FBP-YG-19.png,0.4,1.2,28,0.25,,,,,,,,,,,,,,,,,,,,,,,,,,,,,,,,,,,,,,,,,,,,,
,,,,,SPR24_013,20,Male,2024-04-08_12h02.57.188,jersey_experiment_5_v0,2023.2.2,Win32,84.74576271,,,,,,,,,,,,,,,,296.197,297.4909,297.4909,300.3381,return,0.837,,27.99479167,0,48,48,35,1,FBP-RB-18.png,0.35,1.2,36,0.5,,,,,,,,,,,,,,,,,,,,,,,,,,,,,,,,,,,,,,,,,,,,,
,,,,,SPR24_013,20,Male,2024-04-08_12h02.57.188,jersey_experiment_5_v0,2023.2.2,Win32,84.74576271,,,,,,,,,,,,,,,,300.3383,301.3851,301.3851,303.5499,return,0.7196,,49.86979167,0,49,49,17,1,FBP-YG-17.png,0.4,1.2,18,0.25,,,,,,,,,,,,,,,,,,,,,,,,,,,,,,,,,,,,,,,,,,,,,
,,,,,SPR24_013,20,Male,2024-04-08_12h02.57.188,jersey_experiment_5_v0,2023.2.2,Win32,84.74576271,,,,,,,,,,,,,,,,303.5501,304.5971,304.5972,306.7855,return,0.7522,,26.69270833,0,50,50,46,1,FBP-PT-17.png,0.37,1.2,47,0.25,,,,,,,,,,,,,,,,,,,,,,,,,,,,,,,,,,,,,,,,,,,,,
,,,,,SPR24_013,20,Male,2024-04-08_12h02.57.188,jersey_experiment_5_v0,2023.2.2,Win32,84.74576271,,,,,,,,,,,,,,,,306.7857,308.0795,308.0796,310.4913,return,0.6759,,73.69791667,0,51,51,44,1,FBP-RB-19.png,0.45,1.2,45,0.5,,,,,,,,,,,,,,,,,,,,,,,,,,,,,,,,,,,,,,,,,,,,,
,,,,,SPR24_013,20,Male,2024-04-08_12h02.57.188,jersey_experiment_5_v0,2023.2.2,Win32,84.74576271,,,,,,,,,,,,,,,,310.4916,311.5384,311.5384,314.2092,return,0.7302,,73.69791667,0,52,52,18,1,FBP-YG-17.png,0.43,1.2,19,0.25,,,,,,,,,,,,,,,,,,,,,,,,,,,,,,,,,,,,,,,,,,,,,
,,,,,SPR24_013,20,Male,2024-04-08_12h02.57.188,jersey_experiment_5_v0,2023.2.2,Win32,84.74576271,,,,,,,,,,,,,,,,314.2095,315.2564,315.2564,319.433,return,2.2913,,25.390625,0,53,53,20,1,FBP-YG-18.png,0.35,1.2,21,0.25,,,,,,,,,,,,,,,,,,,,,,,,,,,,,,,,,,,,,,,,,,,,,
,,,,,SPR24_013,20,Male,2024-04-08_12h02.57.188,jersey_experiment_5_v0,2023.2.2,Win32,84.74576271,,,,,,,,,,,,,,,,319.4331,320.4801,320.4801,330.0804,return,4.109,,65.10416667,0,54,54,19,1,FBP-YG-17.png,0.45,1.2,20,0.25,,,,,,,,,,,,,,,,,,,,,,,,,,,,,,,,,,,,,,,,,,,,,
,,,,,SPR24_013,20,Male,2024-04-08_12h02.57.188,jersey_experiment_5_v0,2023.2.2,Win32,84.74576271,,,,,,,,,,,,,,,,330.0846,331.1274,331.1275,338.163,return,0.7062,,47.65625,0,55,55,52,1,FBP-PT-18.png,0.4,1.2,53,0.25,,,,,,,,,,,,,,,,,,,,,,,,,,,,,,,,,,,,,,,,,,,,,
,,,,,SPR24_013,20,Male,2024-04-08_12h02.57.188,jersey_experiment_5_v0,2023.2.2,Win32,84.74576271,,,,,,,,,,,,,,,,338.1632,339.2102,339.2102,342.1279,return,1.5671,,26.82291667,0,56,56,15,1,FBP-YG-17.png,0.35,1.2,16,0.25,,,,,,,,,,,,,,,,,,,,,,,,,,,,,,,,,,,,,,,,,,,,,
,,,,,SPR24_013,20,Male,2024-04-08_12h02.57.188,jersey_experiment_5_v0,2023.2.2,Win32,84.74576271,,,,,,,,,,,,,,,,342.1281,343.422,343.4221,346.0104,return,1.3475,,48.4375,0,57,57,2,1,FBP-OG-71.png,0.4,1.2,3,0.5,,,,,,,,,,,,,,,,,,,,,,,,,,,,,,,,,,,,,,,,,,,,,
,,,,,SPR24_013,20,Male,2024-04-08_12h02.57.188,jersey_experiment_5_v0,2023.2.2,Win32,84.74576271,,,,,,,,,,,,,,,,346.0106,347.0575,347.0575,349.834,return,1.3491,,69.79166667,0,58,58,48,1,FBP-PT-17.png,0.43,1.2,49,0.25,,,,,,,,,,,,,,,,,,,,,,,,,,,,,,,,,,,,,,,,,,,,,
,,,,,SPR24_013,20,Male,2024-04-08_12h02.57.188,jersey_experiment_5_v0,2023.2.2,Win32,84.74576271,,,,,,,,,,,,,,,,349.8342,350.8811,350.8811,358.0932,return,1.521,,48.4375,0,59,59,21,1,FBP-YG-18.png,0.37,1.2,22,0.25,,,,,,,,,,,,,,,,,,,,,,,,,,,,,,,,,,,,,,,,,,,,,
,,,,,SPR24_013,20,Male,2024-04-08_12h02.57.188,jersey_experiment_5_v0,2023.2.2,Win32,84.74576271,,,,,,,,,,,,,,,,358.0951,359.1403,359.1404,361.611,return,1.0412,,50.52083333,,,,,,FBP-YG-81.png,0.37,1.2,22,0.25,0,0,0,21,1,,,,,,,,,,,,,,,,,,,,,,,,,,,,,,,,,,,,,,,,
,,,,,SPR24_013,20,Male,2024-04-08_12h02.57.188,jersey_experiment_5_v0,2023.2.2,Win32,84.74576271,,,,,,,,,,,,,,,,361.6113,362.6581,362.6581,366.2111,return,1.3178,,44.79166667,,,,,,FBP-YG-91.png,0.37,1.2,27,0.25,0,1,1,26,1,,,,,,,,,,,,,,,,,,,,,,,,,,,,,,,,,,,,,,,,
,,,,,SPR24_013,20,Male,2024-04-08_12h02.57.188,jersey_experiment_5_v0,2023.2.2,Win32,84.74576271,,,,,,,,,,,,,,,,366.2114,367.5052,367.5052,370.5054,return,1.0664,,72.39583333,,,,,,FBP-OG-17.png,0.43,1.2,4,0.5,0,2,2,3,1,,,,,,,,,,,,,,,,,,,,,,,,,,,,,,,,,,,,,,,,
,,,,,SPR24_013,20,Male,2024-04-08_12h02.57.188,jersey_experiment_5_v0,2023.2.2,Win32,84.74576271,,,,,,,,,,,,,,,,370.5057,371.7996,371.7997,376.035,return,1.7414,,98.56770833,,,,,,FBP-OG-19.png,0.45,1.2,15,0.5,0,3,3,14,1,,,,,,,,,,,,,,,,,,,,,,,,,,,,,,,,,,,,,,,,
,,,,,SPR24_013,20,Male,2024-04-08_12h02.57.188,jersey_experiment_5_v0,2023.2.2,Win32,84.74576271,,,,,,,,,,,,,,,,376.0352,377.3292,377.3292,379.6824,return,0.9312,,72.65625,,,,,,FBP-OG-18.png,0.4,1.2,8,0.5,0,4,4,7,1,,,,,,,,,,,,,,,,,,,,,,,,,,,,,,,,,,,,,,,,
,,,,,SPR24_013,20,Male,2024-04-08_12h02.57.188,jersey_experiment_5_v0,2023.2.2,Win32,84.74576271,,,,,,,,,,,,,,,,379.6826,380.7292,380.7293,383.0823,return,0.7369,,49.21875,,,,,,FBP-PT-91.png,0.37,1.2,57,0.25,0,5,5,56,1,,,,,,,,,,,,,,,,,,,,,,,,,,,,,,,,,,,,,,,,
,,,,,SPR24_013,20,Male,2024-04-08_12h02.57.188,jersey_experiment_5_v0,2023.2.2,Win32,84.74576271,,,,,,,,,,,,,,,,383.0825,384.1294,384.1295,386.4001,return,0.7315,,73.046875,,,,,,FBP-PT-71.png,0.43,1.2,49,0.25,0,6,6,48,1,,,,,,,,,,,,,,,,,,,,,,,,,,,,,,,,,,,,,,,,
,,,,,SPR24_013,20,Male,2024-04-08_12h02.57.188,jersey_experiment_5_v0,2023.2.2,Win32,84.74576271,,,,,,,,,,,,,,,,386.4003,387.4472,387.4473,389.5178,return,0.6513,,72.65625,,,,,,FBP-YG-71.png,0.43,1.2,19,0.25,0,7,7,18,1,,,,,,,,,,,,,,,,,,,,,,,,,,,,,,,,,,,,,,,,
,,,,,SPR24_013,20,Male,2024-04-08_12h02.57.188,jersey_experiment_5_v0,2023.2.2,Win32,84.74576271,,,,,,,,,,,,,,,,389.5181,390.8123,390.8123,395.9888,return,3.5662,,27.08333333,,,,,,FBP-RB-71.png,0.35,1.2,31,0.5,0,8,8,30,1,,,,,,,,,,,,,,,,,,,,,,,,,,,,,,,,,,,,,,,,
,,,,,SPR24_013,20,Male,2024-04-08_12h02.57.188,jersey_experiment_5_v0,2023.2.2,Win32,84.74576271,,,,,,,,,,,,,,,,395.9933,397.2946,397.2947,399.2829,return,0.9186,,72.65625,,,,,,FBP-OG-18.png,0.45,1.2,10,0.5,0,9,9,9,1,,,,,,,,,,,,,,,,,,,,,,,,,,,,,,,,,,,,,,,,
,,,,,SPR24_013,20,Male,2024-04-08_12h02.57.188,jersey_experiment_5_v0,2023.2.2,Win32,84.74576271,,,,,,,,,,,,,,,,399.2831,400.5772,400.5772,402.5537,return,0.844,,48.95833333,,,,,,FBP-RB-81.png,0.37,1.2,37,0.5,0,10,10,36,1,,,,,,,,,,,,,,,,,,,,,,,,,,,,,,,,,,,,,,,,
,,,,,SPR24_013,20,Male,2024-04-08_12h02.57.188,jersey_experiment_5_v0,2023.2.2,Win32,84.74576271,,,,,,,,,,,,,,,,402.5539,403.6007,403.6007,405.5186,return,0.9671,,48.95833333,,,,,,FBP-PT-81.png,0.37,1.2,52,0.25,0,11,11,51,1,,,,,,,,,,,,,,,,,,,,,,,,,,,,,,,,,,,,,,,,
,,,,,SPR24_013,20,Male,2024-04-08_12h02.57.188,jersey_experiment_5_v0,2023.2.2,Win32,84.74576271,,,,,,,,,,,,,,,,405.5188,406.5656,406.5656,409.2599,return,1.5241,,50,,,,,,FBP-PT-91.png,0.35,1.2,56,0.25,0,12,12,55,1,,,,,,,,,,,,,,,,,,,,,,,,,,,,,,,,,,,,,,,,
,,,,,SPR24_013,20,Male,2024-04-08_12h02.57.188,jersey_experiment_5_v0,2023.2.2,Win32,84.74576271,,,,,,,,,,,,,,,,409.2601,410.554,410.554,413.5777,return,0.7711,,45.83333333,,,,,,FBP-OG-18.png,0.37,1.2,7,0.5,0,13,13,6,1,,,,,,,,,,,,,,,,,,,,,,,,,,,,,,,,,,,,,,,,
,,,,,SPR24_013,20,Male,2024-04-08_12h02.57.188,jersey_experiment_5_v0,2023.2.2,Win32,84.74576271,,,,,,,,,,,,,,,,413.5779,414.8718,414.8718,416.8366,return,0.8611,,49.609375,,,,,,FBP-OG-17.png,0.4,1.2,3,0.5,0,14,14,2,1,,,,,,,,,,,,,,,,,,,,,,,,,,,,,,,,,,,,,,,,
,,,,,SPR24_013,20,Male,2024-04-08_12h02.57.188,jersey_experiment_5_v0,2023.2.2,Win32,84.74576271,,,,,,,,,,,,,,,,416.8369,418.1308,418.1308,420.7661,return,0.7322,,73.30729167,,,,,,FBP-RB-81.png,0.45,1.2,40,0.5,0,15,15,39,1,,,,,,,,,,,,,,,,,,,,,,,,,,,,,,,,,,,,,,,,
,,,,,SPR24_013,20,Male,2024-04-08_12h02.57.188,jersey_experiment_5_v0,2023.2.2,Win32,84.74576271,,,,,,,,,,,,,,,,420.7664,421.8132,421.8132,425.6252,return,1.3974,,96.484375,,,,,,FBP-YG-91.png,0.45,1.2,30,0.25,0,16,16,29,1,,,,,,,,,,,,,,,,,,,,,,,,,,,,,,,,,,,,,,,,
,,,,,SPR24_013,20,Male,2024-04-08_12h02.57.188,jersey_experiment_5_v0,2023.2.2,Win32,84.74576271,,,,,,,,,,,,,,,,425.6254,426.9192,426.9192,429.3783,return,0.9642,,27.21354167,,,,,,FBP-OG-19.png,0.37,1.2,12,0.5,0,17,17,11,1,,,,,,,,,,,,,,,,,,,,,,,,,,,,,,,,,,,,,,,,
,,,,,SPR24_013,20,Male,2024-04-08_12h02.57.188,jersey_experiment_5_v0,2023.2.2,Win32,84.74576271,,,,,,,,,,,,,,,,429.3785,430.4254,430.4254,432.4843,return,0.8712,,27.21354167,,,,,,FBP-YG-81.png,0.35,1.2,21,0.25,0,18,18,20,1,,,,,,,,,,,,,,,,,,,,,,,,,,,,,,,,,,,,,,,,
,,,,,SPR24_013,20,Male,2024-04-08_12h02.57.188,jersey_experiment_5_v0,2023.2.2,Win32,84.74576271,,,,,,,,,,,,,,,,432.4845,433.7784,433.7785,436.2609,return,0.8813,,27.21354167,,,,,,FBP-OG-19.png,0.35,1.2,11,0.5,0,19,19,10,1,,,,,,,,,,,,,,,,,,,,,,,,,,,,,,,,,,,,,,,,
,,,,,SPR24_013,20,Male,2024-04-08_12h02.57.188,jersey_experiment_5_v0,2023.2.2,Win32,84.74576271,,,,,,,,,,,,,,,,436.2611,437.3079,437.3079,439.8023,return,0.7962,,48.56770833,,,,,,FBP-PT-71.png,0.37,1.2,47,0.25,0,20,20,46,1,,,,,,,,,,,,,,,,,,,,,,,,,,,,,,,,,,,,,,,,
,,,,,SPR24_013,20,Male,2024-04-08_12h02.57.188,jersey_experiment_5_v0,2023.2.2,Win32,84.74576271,,,,,,,,,,,,,,,,439.8025,441.0963,441.0963,442.8492,return,0.9892,,48.56770833,,,,,,FBP-RB-91.png,0.4,1.2,43,0.5,0,21,21,42,1,,,,,,,,,,,,,,,,,,,,,,,,,,,,,,,,,,,,,,,,
,,,,,SPR24_013,20,Male,2024-04-08_12h02.57.188,jersey_experiment_5_v0,2023.2.2,Win32,84.74576271,,,,,,,,,,,,,,,,442.8495,444.1435,444.1435,445.8025,return,0.8666,,48.56770833,,,,,,FBP-RB-71.png,0.37,1.2,32,0.5,0,22,22,31,1,,,,,,,,,,,,,,,,,,,,,,,,,,,,,,,,,,,,,,,,
,,,,,SPR24_013,20,Male,2024-04-08_12h02.57.188,jersey_experiment_5_v0,2023.2.2,Win32,84.74576271,,,,,,,,,,,,,,,,445.8026,446.8494,446.8494,450.7084,return,1.7274,,52.99479167,,,,,,FBP-PT-91.png,0.4,1.2,58,0.25,0,23,23,57,1,,,,,,,,,,,,,,,,,,,,,,,,,,,,,,,,,,,,,,,,
,,,,,SPR24_013,20,Male,2024-04-08_12h02.57.188,jersey_experiment_5_v0,2023.2.2,Win32,84.74576271,,,,,,,,,,,,,,,,450.7086,451.7556,451.7556,456.2381,return,1.9807,,53.77604167,,,,,,FBP-YG-81.png,0.43,1.2,24,0.25,0,24,24,23,1,,,,,,,,,,,,,,,,,,,,,,,,,,,,,,,,,,,,,,,,
,,,,,SPR24_013,20,Male,2024-04-08_12h02.57.188,jersey_experiment_5_v0,2023.2.2,Win32,84.74576271,,,,,,,,,,,,,,,,456.2383,457.2852,457.2853,460.0029,return,1.28,,72.65625,,,,,,FBP-YG-81.png,0.45,1.2,25,0.25,0,25,25,24,1,,,,,,,,,,,,,,,,,,,,,,,,,,,,,,,,,,,,,,,,
,,,,,SPR24_013,20,Male,2024-04-08_12h02.57.188,jersey_experiment_5_v0,2023.2.2,Win32,84.74576271,,,,,,,,,,,,,,,,460.0031,461.2971,461.2971,463.5206,return,0.7777,,27.47395833,,,,,,FBP-OG-17.png,0.35,1.2,1,0.5,0,26,26,0,1,,,,,,,,,,,,,,,,,,,,,,,,,,,,,,,,,,,,,,,,
,,,,,SPR24_013,20,Male,2024-04-08_12h02.57.188,jersey_experiment_5_v0,2023.2.2,Win32,84.74576271,,,,,,,,,,,,,,,,463.5208,464.5678,464.5678,467.4739,return,1.0729,,70.57291667,,,,,,FBP-PT-81.png,0.43,1.2,54,0.25,0,27,27,53,1,,,,,,,,,,,,,,,,,,,,,,,,,,,,,,,,,,,,,,,,
,,,,,SPR24_013,20,Male,2024-04-08_12h02.57.188,jersey_experiment_5_v0,2023.2.2,Win32,84.74576271,,,,,,,,,,,,,,,,467.4741,468.5207,468.5207,470.368,return,0.7897,,73.56770833,,,,,,FBP-PT-91.png,0.45,1.2,60,0.25,0,28,28,59,1,,,,,,,,,,,,,,,,,,,,,,,,,,,,,,,,,,,,,,,,
,,,,,SPR24_013,20,Male,2024-04-08_12h02.57.188,jersey_experiment_5_v0,2023.2.2,Win32,84.74576271,,,,,,,,,,,,,,,,470.3682,471.6623,471.6623,476.1565,return,0.6394,,73.30729167,,,,,,FBP-RB-81.png,0.43,1.2,39,0.5,0,29,29,38,1,,,,,,,,,,,,,,,,,,,,,,,,,,,,,,,,,,,,,,,,
,,,,,SPR24_013,20,Male,2024-04-08_12h02.57.188,jersey_experiment_5_v0,2023.2.2,Win32,84.74576271,,,,,,,,,,,,,,,,476.1568,477.2035,477.2035,479.3212,return,0.819,,50.91145833,,,,,,FBP-YG-71.png,0.4,1.2,18,0.25,0,30,30,17,1,,,,,,,,,,,,,,,,,,,,,,,,,,,,,,,,,,,,,,,,
,,,,,SPR24_013,20,Male,2024-04-08_12h02.57.188,jersey_experiment_5_v0,2023.2.2,Win32,84.74576271,,,,,,,,,,,,,,,,479.3213,480.3684,480.3684,483.1567,return,0.9646,,52.86458333,,,,,,FBP-YG-81.png,0.4,1.2,23,0.25,0,31,31,22,1,,,,,,,,,,,,,,,,,,,,,,,,,,,,,,,,,,,,,,,,
,,,,,SPR24_013,20,Male,2024-04-08_12h02.57.188,jersey_experiment_5_v0,2023.2.2,Win32,84.74576271,,,,,,,,,,,,,,,,483.157,484.4509,484.4509,486.4275,return,0.8644,,49.47916667,,,,,,FBP-OG-19.png,0.4,1.2,13,0.5,0,32,32,12,1,,,,,,,,,,,,,,,,,,,,,,,,,,,,,,,,,,,,,,,,
,,,,,SPR24_013,20,Male,2024-04-08_12h02.57.188,jersey_experiment_5_v0,2023.2.2,Win32,84.74576271,,,,,,,,,,,,,,,,486.4276,487.4746,487.4746,489.6748,return,0.8174,,27.47395833,,,,,,FBP-PT-71.png,0.35,1.2,46,0.25,0,33,33,45,1,,,,,,,,,,,,,,,,,,,,,,,,,,,,,,,,,,,,,,,,
,,,,,SPR24_013,20,Male,2024-04-08_12h02.57.188,jersey_experiment_5_v0,2023.2.2,Win32,84.74576271,,,,,,,,,,,,,,,,489.675,490.9687,490.9688,496.2043,return,0.7233,,71.875,,,,,,FBP-OG-18.png,0.43,1.2,9,0.5,0,34,34,8,1,,,,,,,,,,,,,,,,,,,,,,,,,,,,,,,,,,,,,,,,
,,,,,SPR24_013,20,Male,2024-04-08_12h02.57.188,jersey_experiment_5_v0,2023.2.2,Win32,84.74576271,,,,,,,,,,,,,,,,496.2045,497.2513,497.2513,500.1926,return,0.5898,,25.78125,,,,,,FBP-YG-71.png,0.37,1.2,17,0.25,0,35,35,16,1,,,,,,,,,,,,,,,,,,,,,,,,,,,,,,,,,,,,,,,,
,,,,,SPR24_013,20,Male,2024-04-08_12h02.57.188,jersey_experiment_5_v0,2023.2.2,Win32,84.74576271,,,,,,,,,,,,,,,,500.1928,501.4868,501.4869,504.4517,return,1.304,,73.69791667,,,,,,FBP-OG-17.png,0.45,1.2,5,0.5,0,36,36,4,1,,,,,,,,,,,,,,,,,,,,,,,,,,,,,,,,,,,,,,,,
,,,,,SPR24_013,20,Male,2024-04-08_12h02.57.188,jersey_experiment_5_v0,2023.2.2,Win32,84.74576271,,,,,,,,,,,,,,,,504.4519,505.7458,505.7459,507.9459,return,1.0555,,51.171875,,,,,,FBP-RB-71.png,0.4,1.2,33,0.5,0,37,37,32,1,,,,,,,,,,,,,,,,,,,,,,,,,,,,,,,,,,,,,,,,
,,,,,SPR24_013,20,Male,2024-04-08_12h02.57.188,jersey_experiment_5_v0,2023.2.2,Win32,84.74576271,,,,,,,,,,,,,,,,507.9462,509.2401,509.2401,511.2989,return,0.716,,27.60416667,,,,,,FBP-OG-18.png,0.35,1.2,6,0.5,0,38,38,5,1,,,,,,,,,,,,,,,,,,,,,,,,,,,,,,,,,,,,,,,,
,,,,,SPR24_013,20,Male,2024-04-08_12h02.57.188,jersey_experiment_5_v0,2023.2.2,Win32,84.74576271,,,,,,,,,,,,,,,,511.2992,512.593,512.593,515.4403,return,0.9298,,71.09375,,,,,,FBP-RB-91.png,0.45,1.2,45,0.5,0,39,39,44,1,,,,,,,,,,,,,,,,,,,,,,,,,,,,,,,,,,,,,,,,
,,,,,SPR24_013,20,Male,2024-04-08_12h02.57.188,jersey_experiment_5_v0,2023.2.2,Win32,84.74576271,,,,,,,,,,,,,,,,515.4406,516.4875,516.4875,518.6758,return,0.8236,,94.40104167,,,,,,FBP-PT-71.png,0.45,1.2,50,0.25,0,40,40,49,1,,,,,,,,,,,,,,,,,,,,,,,,,,,,,,,,,,,,,,,,
,,,,,SPR24_013,20,Male,2024-04-08_12h02.57.188,jersey_experiment_5_v0,2023.2.2,Win32,84.74576271,,,,,,,,,,,,,,,,518.676,519.7228,519.7228,522.3345,return,0.8504,,51.04166667,,,,,,FBP-PT-81.png,0.4,1.2,53,0.25,0,41,41,52,1,,,,,,,,,,,,,,,,,,,,,,,,,,,,,,,,,,,,,,,,
,,,,,SPR24_013,20,Male,2024-04-08_12h02.57.188,jersey_experiment_5_v0,2023.2.2,Win32,84.74576271,,,,,,,,,,,,,,,,522.3348,523.6288,523.6288,525.8055,return,0.8871,,28.90625,,,,,,FBP-RB-91.png,0.35,1.2,41,0.5,0,42,42,40,1,,,,,,,,,,,,,,,,,,,,,,,,,,,,,,,,,,,,,,,,
,,,,,SPR24_013,20,Male,2024-04-08_12h02.57.188,jersey_experiment_5_v0,2023.2.2,Win32,84.74576271,,,,,,,,,,,,,,,,525.8057,527.0995,527.0995,529.3938,return,0.9889,,73.30729167,,,,,,FBP-RB-71.png,0.45,1.2,35,0.5,0,43,43,34,1,,,,,,,,,,,,,,,,,,,,,,,,,,,,,,,,,,,,,,,,
,,,,,SPR24_013,20,Male,2024-04-08_12h02.57.188,jersey_experiment_5_v0,2023.2.2,Win32,84.74576271,,,,,,,,,,,,,,,,529.394,530.6879,530.6879,532.7704,return,0.9178,,48.828125,,,,,,FBP-OG-17.png,0.37,1.2,2,0.5,0,44,44,1,1,,,,,,,,,,,,,,,,,,,,,,,,,,,,,,,,,,,,,,,,
,,,,,SPR24_013,20,Male,2024-04-08_12h02.57.188,jersey_experiment_5_v0,2023.2.2,Win32,84.74576271,,,,,,,,,,,,,,,,532.7707,534.0646,534.0646,536.4176,return,0.7527,,27.734375,,,,,,FBP-RB-81.png,0.35,1.2,36,0.5,0,45,45,35,1,,,,,,,,,,,,,,,,,,,,,,,,,,,,,,,,,,,,,,,,
,,,,,SPR24_013,20,Male,2024-04-08_12h02.57.188,jersey_experiment_5_v0,2023.2.2,Win32,84.74576271,,,,,,,,,,,,,,,,536.4179,537.4647,537.4647,539.7707,return,0.8883,,71.09375,,,,,,FBP-YG-91.png,0.43,1.2,29,0.25,0,46,46,28,1,,,,,,,,,,,,,,,,,,,,,,,,,,,,,,,,,,,,,,,,
,,,,,SPR24_013,20,Male,2024-04-08_12h02.57.188,jersey_experiment_5_v0,2023.2.2,Win32,84.74576271,,,,,,,,,,,,,,,,539.7709,541.0648,541.0648,543.2179,return,0.7065,,75.65104167,,,,,,FBP-RB-71.png,0.43,1.2,34,0.5,0,47,47,33,1,,,,,,,,,,,,,,,,,,,,,,,,,,,,,,,,,,,,,,,,
,,,,,SPR24_013,20,Male,2024-04-08_12h02.57.188,jersey_experiment_5_v0,2023.2.2,Win32,84.74576271,,,,,,,,,,,,,,,,543.2181,544.5122,544.5122,546.2062,return,0.7556,,49.34895833,,,,,,FBP-RB-91.png,0.37,1.2,42,0.5,0,48,48,41,1,,,,,,,,,,,,,,,,,,,,,,,,,,,,,,,,,,,,,,,,
,,,,,SPR24_013,20,Male,2024-04-08_12h02.57.188,jersey_experiment_5_v0,2023.2.2,Win32,84.74576271,,,,,,,,,,,,,,,,546.2064,547.2533,547.2534,553.1005,return,2.1693,,26.953125,,,,,,FBP-YG-91.png,0.35,1.2,26,0.25,0,49,49,25,1,,,,,,,,,,,,,,,,,,,,,,,,,,,,,,,,,,,,,,,,
,,,,,SPR24_013,20,Male,2024-04-08_12h02.57.188,jersey_experiment_5_v0,2023.2.2,Win32,84.74576271,,,,,,,,,,,,,,,,553.1008,554.3947,554.3948,556.8184,return,0.8136,,72.78645833,,,,,,FBP-RB-91.png,0.43,1.2,44,0.5,0,50,50,43,1,,,,,,,,,,,,,,,,,,,,,,,,,,,,,,,,,,,,,,,,
,,,,,SPR24_013,20,Male,2024-04-08_12h02.57.188,jersey_experiment_5_v0,2023.2.2,Win32,84.74576271,,,,,,,,,,,,,,,,556.8186,557.8653,557.8653,560.6655,return,0.7615,,50.13020833,,,,,,FBP-YG-91.png,0.4,1.2,28,0.25,0,51,51,27,1,,,,,,,,,,,,,,,,,,,,,,,,,,,,,,,,,,,,,,,,
,,,,,SPR24_013,20,Male,2024-04-08_12h02.57.188,jersey_experiment_5_v0,2023.2.2,Win32,84.74576271,,,,,,,,,,,,,,,,560.6658,561.9597,561.9597,564.9949,return,0.7059,,50.91145833,,,,,,FBP-RB-81.png,0.4,1.2,38,0.5,0,52,52,37,1,,,,,,,,,,,,,,,,,,,,,,,,,,,,,,,,,,,,,,,,
,,,,,SPR24_013,20,Male,2024-04-08_12h02.57.188,jersey_experiment_5_v0,2023.2.2,Win32,84.74576271,,,,,,,,,,,,,,,,564.9951,566.0422,566.0423,568.7247,return,0.8216,,27.34375,,,,,,FBP-YG-71.png,0.35,1.2,16,0.25,0,53,53,15,1,,,,,,,,,,,,,,,,,,,,,,,,,,,,,,,,,,,,,,,,
,,,,,SPR24_013,20,Male,2024-04-08_12h02.57.188,jersey_experiment_5_v0,2023.2.2,Win32,84.74576271,,,,,,,,,,,,,,,,568.7249,569.7717,569.7717,572.113,return,0.7064,,73.046875,,,,,,FBP-YG-71.png,0.45,1.2,20,0.25,0,54,54,19,1,,,,,,,,,,,,,,,,,,,,,,,,,,,,,,,,,,,,,,,,
,,,,,SPR24_013,20,Male,2024-04-08_12h02.57.188,jersey_experiment_5_v0,2023.2.2,Win32,84.74576271,,,,,,,,,,,,,,,,572.1132,573.1601,573.1601,575.5014,return,0.652,,49.21875,,,,,,FBP-PT-81.png,0.35,1.2,51,0.25,0,55,55,50,1,,,,,,,,,,,,,,,,,,,,,,,,,,,,,,,,,,,,,,,,
,,,,,SPR24_013,20,Male,2024-04-08_12h02.57.188,jersey_experiment_5_v0,2023.2.2,Win32,84.74576271,,,,,,,,,,,,,,,,575.5016,576.5485,576.5485,578.619,return,1.0187,,49.21875,,,,,,FBP-PT-71.png,0.4,1.2,48,0.25,0,56,56,47,1,,,,,,,,,,,,,,,,,,,,,,,,,,,,,,,,,,,,,,,,
,,,,,SPR24_013,20,Male,2024-04-08_12h02.57.188,jersey_experiment_5_v0,2023.2.2,Win32,84.74576271,,,,,,,,,,,,,,,,578.6191,579.6663,579.6664,582.0193,return,0.8139,,72.265625,,,,,,FBP-PT-91.png,0.43,1.2,59,0.25,0,57,57,58,1,,,,,,,,,,,,,,,,,,,,,,,,,,,,,,,,,,,,,,,,
,,,,,SPR24_013,20,Male,2024-04-08_12h02.57.188,jersey_experiment_5_v0,2023.2.2,Win32,84.74576271,,,,,,,,,,,,,,,,582.0194,583.3134,583.3134,585.2195,return,0.8942,,49.86979167,,,,,,FBP-OG-19.png,0.43,1.2,14,0.5,0,58,58,13,1,,,,,,,,,,,,,,,,,,,,,,,,,,,,,,,,,,,,,,,,
,,,,,SPR24_013,20,Male,2024-04-08_12h02.57.188,jersey_experiment_5_v0,2023.2.2,Win32,84.74576271,,,,,,,,,,,,,,,,585.2197,586.2665,586.2665,588.5254,return,0.8283,,73.4375,,,,,,FBP-PT-81.png,0.45,1.2,55,0.25,0,59,59,54,1,,,,,,,,,,,,,,,,,,,,,,,,,,,,,,,,,,,,,,,,
,,,,,SPR24_013,20,Male,2024-04-08_12h02.57.188,jersey_experiment_5_v0,2023.2.2,Win32,84.74576271,,,,,,,,,,,,,,,,,,,,,,,,,,,,,,,,,,,,,,,588.5259,708.5186,,,,,,,,,,,,,,,,,,,,,,,,,,,,,,,,,,,,,,
,,,,,SPR24_013,20,Male,2024-04-08_12h02.57.188,jersey_experiment_5_v0,2023.2.2,Win32,84.74576271,,,,,,,,,,,,,,,,,,,,,,,,,,,,,,,,,,,,,,,,,708.5186,712.1301,return,3.5997,,,,,,,,,,,,,,,,,,,,,,,,,,,,,,,,,,
,,,,,SPR24_013,20,Male,2024-04-08_12h02.57.188,jersey_experiment_5_v0,2023.2.2,Win32,84.74576271,,,,,,,,,,,,,,,,712.1364,713.1888,713.1888,716.4009,return,1.1291,,26.953125,,,,,,FBP-RB-19.png,0.37,1.2,42,0.25,,,,,,,,,,,,,0,0,0,41,1,,,,,,,,,,,,,,,,,,,,,,,,,,,,
,,,,,SPR24_013,20,Male,2024-04-08_12h02.57.188,jersey_experiment_5_v0,2023.2.2,Win32,84.74576271,,,,,,,,,,,,,,,,716.4011,717.4478,717.4479,719.8127,return,0.9071,,50.26041667,,,,,,FBP-OG-81.png,0.4,1.2,8,0.25,,,,,,,,,,,,,0,1,1,7,1,,,,,,,,,,,,,,,,,,,,,,,,,,,,
,,,,,SPR24_013,20,Male,2024-04-08_12h02.57.188,jersey_experiment_5_v0,2023.2.2,Win32,84.74576271,,,,,,,,,,,,,,,,719.813,721.1068,721.1068,722.9892,return,0.9922,,50.26041667,,,,,,FBP-PT-18.png,0.43,1.2,54,0.5,,,,,,,,,,,,,0,2,2,53,1,,,,,,,,,,,,,,,,,,,,,,,,,,,,
,,,,,SPR24_013,20,Male,2024-04-08_12h02.57.188,jersey_experiment_5_v0,2023.2.2,Win32,84.74576271,,,,,,,,,,,,,,,,722.9895,724.0363,724.0364,726.4953,return,0.7778,,72.65625,,,,,,FBP-OG-71.png,0.43,1.2,4,0.25,,,,,,,,,,,,,0,3,3,3,1,,,,,,,,,,,,,,,,,,,,,,,,,,,,
,,,,,SPR24_013,20,Male,2024-04-08_12h02.57.188,jersey_experiment_5_v0,2023.2.2,Win32,84.74576271,,,,,,,,,,,,,,,,726.4955,727.7895,727.7895,729.5659,return,0.9217,,49.609375,,,,,,FBP-PT-18.png,0.37,1.2,52,0.5,,,,,,,,,,,,,0,4,4,51,1,,,,,,,,,,,,,,,,,,,,,,,,,,,,
,,,,,SPR24_013,20,Male,2024-04-08_12h02.57.188,jersey_experiment_5_v0,2023.2.2,Win32,84.74576271,,,,,,,,,,,,,,,,729.5662,730.8601,730.8601,732.8603,return,0.9943,,49.609375,,,,,,FBP-YG-18.png,0.4,1.2,23,0.5,,,,,,,,,,,,,0,5,5,22,1,,,,,,,,,,,,,,,,,,,,,,,,,,,,
,,,,,SPR24_013,20,Male,2024-04-08_12h02.57.188,jersey_experiment_5_v0,2023.2.2,Win32,84.74576271,,,,,,,,,,,,,,,,732.8605,733.9074,733.9074,736.0368,return,0.7858,,71.09375,,,,,,FBP-RB-18.png,0.43,1.2,39,0.25,,,,,,,,,,,,,0,6,6,38,1,,,,,,,,,,,,,,,,,,,,,,,,,,,,
,,,,,SPR24_013,20,Male,2024-04-08_12h02.57.188,jersey_experiment_5_v0,2023.2.2,Win32,84.74576271,,,,,,,,,,,,,,,,736.037,737.331,737.331,739.0722,return,0.7404,,49.47916667,,,,,,FBP-YG-17.png,0.4,1.2,18,0.5,,,,,,,,,,,,,0,7,7,17,1,,,,,,,,,,,,,,,,,,,,,,,,,,,,
,,,,,SPR24_013,20,Male,2024-04-08_12h02.57.188,jersey_experiment_5_v0,2023.2.2,Win32,84.74576271,,,,,,,,,,,,,,,,739.0724,740.1193,740.1194,744.5783,return,0.6688,,50.52083333,,,,,,FBP-OG-81.png,0.43,1.2,9,0.25,,,,,,,,,,,,,0,8,8,8,1,,,,,,,,,,,,,,,,,,,,,,,,,,,,
,,,,,SPR24_013,20,Male,2024-04-08_12h02.57.188,jersey_experiment_5_v0,2023.2.2,Win32,84.74576271,,,,,,,,,,,,,,,,744.5785,745.6254,745.6256,748.0843,return,0.7999,,44.79166667,,,,,,FBP-OG-71.png,0.4,1.2,3,0.25,,,,,,,,,,,,,0,9,9,2,1,,,,,,,,,,,,,,,,,,,,,,,,,,,,
,,,,,SPR24_013,20,Male,2024-04-08_12h02.57.188,jersey_experiment_5_v0,2023.2.2,Win32,84.74576271,,,,,,,,,,,,,,,,748.0846,749.1315,749.1315,753.1196,return,0.7178,,99.47916667,,,,,,FBP-RB-19.png,0.45,1.2,45,0.25,,,,,,,,,,,,,0,10,10,44,1,,,,,,,,,,,,,,,,,,,,,,,,,,,,
,,,,,SPR24_013,20,Male,2024-04-08_12h02.57.188,jersey_experiment_5_v0,2023.2.2,Win32,84.74576271,,,,,,,,,,,,,,,,753.1199,754.167,754.1671,756.5082,return,0.8999,,24.21875,,,,,,FBP-OG-91.png,0.37,1.2,12,0.25,,,,,,,,,,,,,0,11,11,11,1,,,,,,,,,,,,,,,,,,,,,,,,,,,,
,,,,,SPR24_013,20,Male,2024-04-08_12h02.57.188,jersey_experiment_5_v0,2023.2.2,Win32,84.74576271,,,,,,,,,,,,,,,,756.5084,757.8023,757.8024,759.0848,return,0.6385,,24.47916667,,,,,,FBP-PT-17.png,0.37,1.2,47,0.5,,,,,,,,,,,,,0,12,12,46,1,,,,,,,,,,,,,,,,,,,,,,,,,,,,
,,,,,SPR24_013,20,Male,2024-04-08_12h02.57.188,jersey_experiment_5_v0,2023.2.2,Win32,84.74576271,,,,,,,,,,,,,,,,759.0851,760.3788,760.3789,762.9084,return,0.7919,,72.52604167,,,,,,FBP-PT-17.png,0.43,1.2,49,0.5,,,,,,,,,,,,,0,13,13,48,1,,,,,,,,,,,,,,,,,,,,,,,,,,,,
,,,,,SPR24_013,20,Male,2024-04-08_12h02.57.188,jersey_experiment_5_v0,2023.2.2,Win32,84.74576271,,,,,,,,,,,,,,,,762.9086,763.9555,763.9555,765.838,return,0.7316,,49.34895833,,,,,,FBP-RB-19.png,0.4,1.2,43,0.25,,,,,,,,,,,,,0,14,14,42,1,,,,,,,,,,,,,,,,,,,,,,,,,,,,
,,,,,SPR24_013,20,Male,2024-04-08_12h02.57.188,jersey_experiment_5_v0,2023.2.2,Win32,84.74576271,,,,,,,,,,,,,,,,765.8382,767.1321,767.1321,768.3203,return,0.708,,49.34895833,,,,,,FBP-PT-18.png,0.4,1.2,53,0.5,,,,,,,,,,,,,0,15,15,52,1,,,,,,,,,,,,,,,,,,,,,,,,,,,,
,,,,,SPR24_013,20,Male,2024-04-08_12h02.57.188,jersey_experiment_5_v0,2023.2.2,Win32,84.74576271,,,,,,,,,,,,,,,,768.3204,769.6146,769.6147,771.7086,return,0.6511,,43.48958333,,,,,,FBP-YG-18.png,0.35,1.2,21,0.5,,,,,,,,,,,,,0,16,16,20,1,,,,,,,,,,,,,,,,,,,,,,,,,,,,
,,,,,SPR24_013,20,Male,2024-04-08_12h02.57.188,jersey_experiment_5_v0,2023.2.2,Win32,84.74576271,,,,,,,,,,,,,,,,771.7089,772.7559,772.7559,774.7677,return,0.7555,,75,,,,,,FBP-RB-17.png,0.45,1.2,35,0.25,,,,,,,,,,,,,0,17,17,34,1,,,,,,,,,,,,,,,,,,,,,,,,,,,,
,,,,,SPR24_013,20,Male,2024-04-08_12h02.57.188,jersey_experiment_5_v0,2023.2.2,Win32,84.74576271,,,,,,,,,,,,,,,,774.7679,776.0619,776.0619,779.0267,return,0.5988,,75.26041667,,,,,,FBP-PT-17.png,0.45,1.2,50,0.5,,,,,,,,,,,,,0,18,18,49,1,,,,,,,,,,,,,,,,,,,,,,,,,,,,
,,,,,SPR24_013,20,Male,2024-04-08_12h02.57.188,jersey_experiment_5_v0,2023.2.2,Win32,84.74576271,,,,,,,,,,,,,,,,779.0269,780.3207,780.3207,783.4387,return,0.7309,,99.21875,,,,,,FBP-YG-17.png,0.45,1.2,20,0.5,,,,,,,,,,,,,0,19,19,19,1,,,,,,,,,,,,,,,,,,,,,,,,,,,,
,,,,,SPR24_013,20,Male,2024-04-08_12h02.57.188,jersey_experiment_5_v0,2023.2.2,Win32,84.74576271,,,,,,,,,,,,,,,,783.439,784.4856,784.4857,786.4505,return,0.659,,50.13020833,,,,,,FBP-RB-17.png,0.43,1.2,34,0.25,,,,,,,,,,,,,0,20,20,33,1,,,,,,,,,,,,,,,,,,,,,,,,,,,,
,,,,,SPR24_013,20,Male,2024-04-08_12h02.57.188,jersey_experiment_5_v0,2023.2.2,Win32,84.74576271,,,,,,,,,,,,,,,,786.4507,787.7446,787.7447,790.2741,return,0.6116,,25.26041667,,,,,,FBP-YG-18.png,0.37,1.2,22,0.5,,,,,,,,,,,,,0,21,21,21,1,,,,,,,,,,,,,,,,,,,,,,,,,,,,
,,,,,SPR24_013,20,Male,2024-04-08_12h02.57.188,jersey_experiment_5_v0,2023.2.2,Win32,84.74576271,,,,,,,,,,,,,,,,790.2744,791.5683,791.5684,793.0272,return,0.6359,,25.26041667,,,,,,FBP-YG-17.png,0.37,1.2,17,0.5,,,,,,,,,,,,,0,22,22,16,1,,,,,,,,,,,,,,,,,,,,,,,,,,,,
,,,,,SPR24_013,20,Male,2024-04-08_12h02.57.188,jersey_experiment_5_v0,2023.2.2,Win32,84.74576271,,,,,,,,,,,,,,,,793.0275,794.3214,794.3214,798.1451,return,0.7057,,76.82291667,,,,,,FBP-YG-18.png,0.45,1.2,25,0.5,,,,,,,,,,,,,0,23,23,24,1,,,,,,,,,,,,,,,,,,,,,,,,,,,,
,,,,,SPR24_013,20,Male,2024-04-08_12h02.57.188,jersey_experiment_5_v0,2023.2.2,Win32,84.74576271,,,,,,,,,,,,,,,,798.1454,799.4391,799.4392,801.1335,return,0.6756,,26.04166667,,,,,,FBP-PT-17.png,0.35,1.2,46,0.5,,,,,,,,,,,,,0,24,24,45,1,,,,,,,,,,,,,,,,,,,,,,,,,,,,
,,,,,SPR24_013,20,Male,2024-04-08_12h02.57.188,jersey_experiment_5_v0,2023.2.2,Win32,84.74576271,,,,,,,,,,,,,,,,801.1337,802.4277,802.4277,805.2983,return,2.3765,,28.77604167,,,,,,FBP-YG-17.png,0.35,1.2,16,0.5,,,,,,,,,,,,,0,25,25,15,1,,,,,,,,,,,,,,,,,,,,,,,,,,,,
,,,,,SPR24_013,20,Male,2024-04-08_12h02.57.188,jersey_experiment_5_v0,2023.2.2,Win32,84.74576271,,,,,,,,,,,,,,,,805.2986,806.5924,806.5924,809.5689,return,0.6601,,28.125,,,,,,FBP-PT-19.png,0.35,1.2,56,0.5,,,,,,,,,,,,,0,26,26,55,1,,,,,,,,,,,,,,,,,,,,,,,,,,,,
,,,,,SPR24_013,20,Male,2024-04-08_12h02.57.188,jersey_experiment_5_v0,2023.2.2,Win32,84.74576271,,,,,,,,,,,,,,,,809.5691,810.8632,810.8633,814.2045,return,0.816,,77.21354167,,,,,,FBP-YG-18.png,0.43,1.2,24,0.5,,,,,,,,,,,,,0,27,27,23,1,,,,,,,,,,,,,,,,,,,,,,,,,,,,
,,,,,SPR24_013,20,Male,2024-04-08_12h02.57.188,jersey_experiment_5_v0,2023.2.2,Win32,84.74576271,,,,,,,,,,,,,,,,814.2048,815.2516,815.2516,817.4398,return,0.7304,,24.73958333,,,,,,FBP-OG-81.png,0.35,1.2,6,0.25,,,,,,,,,,,,,0,28,28,5,1,,,,,,,,,,,,,,,,,,,,,,,,,,,,
,,,,,SPR24_013,20,Male,2024-04-08_12h02.57.188,jersey_experiment_5_v0,2023.2.2,Win32,84.74576271,,,,,,,,,,,,,,,,817.44,818.734,818.7341,821.1694,return,1.3043,,49.73958333,,,,,,FBP-PT-17.png,0.4,1.2,48,0.5,,,,,,,,,,,,,0,29,29,47,1,,,,,,,,,,,,,,,,,,,,,,,,,,,,
,,,,,SPR24_013,20,Male,2024-04-08_12h02.57.188,jersey_experiment_5_v0,2023.2.2,Win32,84.74576271,,,,,,,,,,,,,,,,821.1696,822.2165,822.2166,824.4755,return,0.8053,,24.86979167,,,,,,FBP-RB-19.png,0.35,1.2,41,0.25,,,,,,,,,,,,,0,30,30,40,1,,,,,,,,,,,,,,,,,,,,,,,,,,,,
,,,,,SPR24_013,20,Male,2024-04-08_12h02.57.188,jersey_experiment_5_v0,2023.2.2,Win32,84.74576271,,,,,,,,,,,,,,,,824.4757,825.7696,825.7697,828.1579,return,0.8043,,50.91145833,,,,,,FBP-YG-19.png,0.4,1.2,28,0.5,,,,,,,,,,,,,0,31,31,27,1,,,,,,,,,,,,,,,,,,,,,,,,,,,,
,,,,,SPR24_013,20,Male,2024-04-08_12h02.57.188,jersey_experiment_5_v0,2023.2.2,Win32,84.74576271,,,,,,,,,,,,,,,,828.1582,829.2051,829.2051,831.1227,return,0.715,,25.13020833,,,,,,FBP-RB-18.png,0.35,1.2,36,0.25,,,,,,,,,,,,,0,32,32,35,1,,,,,,,,,,,,,,,,,,,,,,,,,,,,
,,,,,SPR24_013,20,Male,2024-04-08_12h02.57.188,jersey_experiment_5_v0,2023.2.2,Win32,84.74576271,,,,,,,,,,,,,,,,831.1228,832.4169,832.4169,834.1465,return,0.5879,,49.86979167,,,,,,FBP-PT-19.png,0.4,1.2,58,0.5,,,,,,,,,,,,,0,33,33,57,1,,,,,,,,,,,,,,,,,,,,,,,,,,,,
,,,,,SPR24_013,20,Male,2024-04-08_12h02.57.188,jersey_experiment_5_v0,2023.2.2,Win32,84.74576271,,,,,,,,,,,,,,,,834.1468,835.1934,835.1936,836.6877,return,0.6263,,49.86979167,,,,,,FBP-RB-17.png,0.37,1.2,32,0.25,,,,,,,,,,,,,0,34,34,31,1,,,,,,,,,,,,,,,,,,,,,,,,,,,,
,,,,,SPR24_013,20,Male,2024-04-08_12h02.57.188,jersey_experiment_5_v0,2023.2.2,Win32,84.74576271,,,,,,,,,,,,,,,,836.688,837.7349,837.7349,844.1468,return,3.7423,,74.86979167,,,,,,FBP-RB-18.png,0.4,1.2,38,0.25,,,,,,,,,,,,,0,35,35,37,1,,,,,,,,,,,,,,,,,,,,,,,,,,,,
,,,,,SPR24_013,20,Male,2024-04-08_12h02.57.188,jersey_experiment_5_v0,2023.2.2,Win32,84.74576271,,,,,,,,,,,,,,,,844.1471,845.1939,845.1939,847.2293,return,0.77,,48.95833333,,,,,,FBP-OG-91.png,0.35,1.2,11,0.25,,,,,,,,,,,,,0,36,36,10,1,,,,,,,,,,,,,,,,,,,,,,,,,,,,
,,,,,SPR24_013,20,Male,2024-04-08_12h02.57.188,jersey_experiment_5_v0,2023.2.2,Win32,84.74576271,,,,,,,,,,,,,,,,847.2295,848.5234,848.5234,850.9236,return,1.1099,,48.95833333,,,,,,FBP-YG-19.png,0.35,1.2,26,0.5,,,,,,,,,,,,,0,37,37,25,1,,,,,,,,,,,,,,,,,,,,,,,,,,,,
,,,,,SPR24_013,20,Male,2024-04-08_12h02.57.188,jersey_experiment_5_v0,2023.2.2,Win32,84.74576271,,,,,,,,,,,,,,,,850.9238,852.2177,852.2177,853.6649,return,0.8121,,48.95833333,,,,,,FBP-YG-19.png,0.37,1.2,27,0.5,,,,,,,,,,,,,0,38,38,26,1,,,,,,,,,,,,,,,,,,,,,,,,,,,,
,,,,,SPR24_013,20,Male,2024-04-08_12h02.57.188,jersey_experiment_5_v0,2023.2.2,Win32,84.74576271,,,,,,,,,,,,,,,,853.6651,854.7119,854.712,856.5943,return,1.026,,48.95833333,,,,,,FBP-RB-18.png,0.37,1.2,37,0.25,,,,,,,,,,,,,0,39,39,36,1,,,,,,,,,,,,,,,,,,,,,,,,,,,,
,,,,,SPR24_013,20,Male,2024-04-08_12h02.57.188,jersey_experiment_5_v0,2023.2.2,Win32,84.74576271,,,,,,,,,,,,,,,,856.5946,857.8885,857.8885,859.4768,return,0.787,,48.95833333,,,,,,FBP-PT-19.png,0.37,1.2,57,0.5,,,,,,,,,,,,,0,40,40,56,1,,,,,,,,,,,,,,,,,,,,,,,,,,,,
,,,,,SPR24_013,20,Male,2024-04-08_12h02.57.188,jersey_experiment_5_v0,2023.2.2,Win32,84.74576271,,,,,,,,,,,,,,,,859.4771,860.5239,860.524,862.9005,return,0.8949,,48.95833333,,,,,,FBP-OG-81.png,0.37,1.2,7,0.25,,,,,,,,,,,,,0,41,41,6,1,,,,,,,,,,,,,,,,,,,,,,,,,,,,
,,,,,SPR24_013,20,Male,2024-04-08_12h02.57.188,jersey_experiment_5_v0,2023.2.2,Win32,84.74576271,,,,,,,,,,,,,,,,862.9008,863.9475,863.9475,866.2065,return,0.9316,,48.95833333,,,,,,FBP-OG-71.png,0.37,1.2,2,0.25,,,,,,,,,,,,,0,42,42,1,1,,,,,,,,,,,,,,,,,,,,,,,,,,,,
,,,,,SPR24_013,20,Male,2024-04-08_12h02.57.188,jersey_experiment_5_v0,2023.2.2,Win32,84.74576271,,,,,,,,,,,,,,,,866.2067,867.5006,867.5006,869.4419,return,0.9408,,48.95833333,,,,,,FBP-PT-18.png,0.35,1.2,51,0.5,,,,,,,,,,,,,0,43,43,50,1,,,,,,,,,,,,,,,,,,,,,,,,,,,,
,,,,,SPR24_013,20,Male,2024-04-08_12h02.57.188,jersey_experiment_5_v0,2023.2.2,Win32,84.74576271,,,,,,,,,,,,,,,,869.4422,870.7361,870.7361,872.9478,return,0.8373,,75.78125,,,,,,FBP-YG-19.png,0.45,1.2,30,0.5,,,,,,,,,,,,,0,44,44,29,1,,,,,,,,,,,,,,,,,,,,,,,,,,,,
,,,,,SPR24_013,20,Male,2024-04-08_12h02.57.188,jersey_experiment_5_v0,2023.2.2,Win32,84.74576271,,,,,,,,,,,,,,,,872.948,873.9949,873.995,876.0304,return,0.7923,,50.26041667,,,,,,FBP-OG-91.png,0.4,1.2,13,0.25,,,,,,,,,,,,,0,45,45,12,1,,,,,,,,,,,,,,,,,,,,,,,,,,,,
,,,,,SPR24_013,20,Male,2024-04-08_12h02.57.188,jersey_experiment_5_v0,2023.2.2,Win32,84.74576271,,,,,,,,,,,,,,,,876.0306,877.0774,877.0774,880.3716,return,0.9181,,49.34895833,,,,,,FBP-RB-17.png,0.4,1.2,33,0.25,,,,,,,,,,,,,0,46,46,32,1,,,,,,,,,,,,,,,,,,,,,,,,,,,,
,,,,,SPR24_013,20,Male,2024-04-08_12h02.57.188,jersey_experiment_5_v0,2023.2.2,Win32,84.74576271,,,,,,,,,,,,,,,,880.3718,881.4187,881.4188,883.8659,return,0.7498,,79.81770833,,,,,,FBP-OG-71.png,0.45,1.2,5,0.25,,,,,,,,,,,,,0,47,47,4,1,,,,,,,,,,,,,,,,,,,,,,,,,,,,
,,,,,SPR24_013,20,Male,2024-04-08_12h02.57.188,jersey_experiment_5_v0,2023.2.2,Win32,84.74576271,,,,,,,,,,,,,,,,883.8661,884.913,884.913,887.0425,return,0.7074,,75.13020833,,,,,,FBP-OG-91.png,0.43,1.2,14,0.25,,,,,,,,,,,,,0,48,48,13,1,,,,,,,,,,,,,,,,,,,,,,,,,,,,
,,,,,SPR24_013,20,Male,2024-04-08_12h02.57.188,jersey_experiment_5_v0,2023.2.2,Win32,84.74576271,,,,,,,,,,,,,,,,887.0427,888.3367,888.3367,890.2427,return,0.7768,,75.13020833,,,,,,FBP-YG-17.png,0.43,1.2,19,0.5,,,,,,,,,,,,,0,49,49,18,1,,,,,,,,,,,,,,,,,,,,,,,,,,,,
,,,,,SPR24_013,20,Male,2024-04-08_12h02.57.188,jersey_experiment_5_v0,2023.2.2,Win32,84.74576271,,,,,,,,,,,,,,,,890.2429,891.5368,891.5368,893.0899,return,0.7073,,75.13020833,,,,,,FBP-PT-19.png,0.43,1.2,59,0.5,,,,,,,,,,,,,0,50,50,58,1,,,,,,,,,,,,,,,,,,,,,,,,,,,,
,,,,,SPR24_013,20,Male,2024-04-08_12h02.57.188,jersey_experiment_5_v0,2023.2.2,Win32,84.74576271,,,,,,,,,,,,,,,,893.0902,894.384,894.3841,895.8663,return,0.82,,75.13020833,,,,,,FBP-PT-19.png,0.45,1.2,60,0.5,,,,,,,,,,,,,0,51,51,59,1,,,,,,,,,,,,,,,,,,,,,,,,,,,,
,,,,,SPR24_013,20,Male,2024-04-08_12h02.57.188,jersey_experiment_5_v0,2023.2.2,Win32,84.74576271,,,,,,,,,,,,,,,,895.8664,896.9134,896.9134,899.09,return,0.7666,,24.609375,,,,,,FBP-OG-71.png,0.35,1.2,1,0.25,,,,,,,,,,,,,0,52,52,0,1,,,,,,,,,,,,,,,,,,,,,,,,,,,,
,,,,,SPR24_013,20,Male,2024-04-08_12h02.57.188,jersey_experiment_5_v0,2023.2.2,Win32,84.74576271,,,,,,,,,,,,,,,,899.0903,900.3842,900.3842,903.6194,return,0.7394,,77.08333333,,,,,,FBP-YG-19.png,0.43,1.2,29,0.5,,,,,,,,,,,,,0,53,53,28,1,,,,,,,,,,,,,,,,,,,,,,,,,,,,
,,,,,SPR24_013,20,Male,2024-04-08_12h02.57.188,jersey_experiment_5_v0,2023.2.2,Win32,84.74576271,,,,,,,,,,,,,,,,903.6197,904.6668,904.6668,906.7374,return,0.7545,,24.609375,,,,,,FBP-RB-17.png,0.35,1.2,31,0.25,,,,,,,,,,,,,0,54,54,30,1,,,,,,,,,,,,,,,,,,,,,,,,,,,,
,,,,,SPR24_013,20,Male,2024-04-08_12h02.57.188,jersey_experiment_5_v0,2023.2.2,Win32,84.74576271,,,,,,,,,,,,,,,,906.7376,907.7844,907.7845,912.0669,return,3.0593,,97.65625,,,,,,FBP-OG-91.png,0.45,1.2,15,0.25,,,,,,,,,,,,,0,55,55,14,1,,,,,,,,,,,,,,,,,,,,,,,,,,,,
,,,,,SPR24_013,20,Male,2024-04-08_12h02.57.188,jersey_experiment_5_v0,2023.2.2,Win32,84.74576271,,,,,,,,,,,,,,,,912.0671,913.1141,913.1141,915.6671,return,0.6228,,99.08854167,,,,,,FBP-RB-19.png,0.43,1.2,44,0.25,,,,,,,,,,,,,0,56,56,43,1,,,,,,,,,,,,,,,,,,,,,,,,,,,,
,,,,,SPR24_013,20,Male,2024-04-08_12h02.57.188,jersey_experiment_5_v0,2023.2.2,Win32,84.74576271,,,,,,,,,,,,,,,,915.6673,916.9612,916.9612,918.8908,return,0.7001,,74.21875,,,,,,FBP-PT-18.png,0.45,1.2,55,0.5,,,,,,,,,,,,,0,57,57,54,1,,,,,,,,,,,,,,,,,,,,,,,,,,,,
,,,,,SPR24_013,20,Male,2024-04-08_12h02.57.188,jersey_experiment_5_v0,2023.2.2,Win32,84.74576271,,,,,,,,,,,,,,,,918.8909,919.9379,919.938,922.2909,return,0.6491,,99.08854167,,,,,,FBP-RB-18.png,0.45,1.2,40,0.25,,,,,,,,,,,,,0,58,58,39,1,,,,,,,,,,,,,,,,,,,,,,,,,,,,
,,,,,SPR24_013,20,Male,2024-04-08_12h02.57.188,jersey_experiment_5_v0,2023.2.2,Win32,84.74576271,,,,,,,,,,,,,,,,922.2911,923.3381,923.3381,925.1498,return,0.6492,,99.08854167,,,,,,FBP-OG-81.png,0.45,1.2,10,0.25,,,,,,,,,,,,,0,59,59,9,1,,,,,,,,,,,,,,,,,,,,,,,,,,,,
,,,,,SPR24_013,20,Male,2024-04-08_12h02.57.188,jersey_experiment_5_v0,2023.2.2,Win32,84.74576271,,,,,,,,,,,,,,,,925.1511,926.197,926.197,928.2206,return,0.8643,,75,,,,,,FBP-RB-71.png,0.43,1.2,34,0.25,,,,,,,,,,,,,,,,,,0,0,0,33,1,,,,,,,,,,,,,,,,,,,,,,,
,,,,,SPR24_013,20,Male,2024-04-08_12h02.57.188,jersey_experiment_5_v0,2023.2.2,Win32,84.74576271,,,,,,,,,,,,,,,,928.2208,929.5149,929.5149,931.4559,return,0.6848,,75.91145833,,,,,,FBP-YG-91.png,0.45,1.2,30,0.5,,,,,,,,,,,,,,,,,,0,1,1,29,1,,,,,,,,,,,,,,,,,,,,,,,
,,,,,SPR24_013,20,Male,2024-04-08_12h02.57.188,jersey_experiment_5_v0,2023.2.2,Win32,84.74576271,,,,,,,,,,,,,,,,931.4562,932.75,932.7501,934.8797,return,0.66,,75.91145833,,,,,,FBP-YG-81.png,0.45,1.2,25,0.5,,,,,,,,,,,,,,,,,,0,2,2,24,1,,,,,,,,,,,,,,,,,,,,,,,
,,,,,SPR24_013,20,Male,2024-04-08_12h02.57.188,jersey_experiment_5_v0,2023.2.2,Win32,84.74576271,,,,,,,,,,,,,,,,934.8798,936.1738,936.1739,937.868,return,0.6171,,50.26041667,,,,,,FBP-PT-81.png,0.43,1.2,54,0.5,,,,,,,,,,,,,,,,,,0,3,3,53,1,,,,,,,,,,,,,,,,,,,,,,,
,,,,,SPR24_013,20,Male,2024-04-08_12h02.57.188,jersey_experiment_5_v0,2023.2.2,Win32,84.74576271,,,,,,,,,,,,,,,,937.8682,938.915,938.915,940.8093,return,0.7127,,24.86979167,,,,,,FBP-OG-18.png,0.35,1.2,6,0.25,,,,,,,,,,,,,,,,,,0,4,4,5,1,,,,,,,,,,,,,,,,,,,,,,,
,,,,,SPR24_013,20,Male,2024-04-08_12h02.57.188,jersey_experiment_5_v0,2023.2.2,Win32,84.74576271,,,,,,,,,,,,,,,,940.8095,942.1034,942.1036,943.4212,return,0.6758,,24.86979167,,,,,,FBP-PT-91.png,0.35,1.2,56,0.5,,,,,,,,,,,,,,,,,,0,5,5,55,1,,,,,,,,,,,,,,,,,,,,,,,
,,,,,SPR24_013,20,Male,2024-04-08_12h02.57.188,jersey_experiment_5_v0,2023.2.2,Win32,84.74576271,,,,,,,,,,,,,,,,943.4213,944.7153,944.7154,946.6448,return,0.6488,,49.47916667,,,,,,FBP-PT-91.png,0.37,1.2,57,0.5,,,,,,,,,,,,,,,,,,0,6,6,56,1,,,,,,,,,,,,,,,,,,,,,,,
,,,,,SPR24_013,20,Male,2024-04-08_12h02.57.188,jersey_experiment_5_v0,2023.2.2,Win32,84.74576271,,,,,,,,,,,,,,,,946.6451,947.9391,947.9391,949.6331,return,0.7057,,74.86979167,,,,,,FBP-PT-71.png,0.45,1.2,50,0.5,,,,,,,,,,,,,,,,,,0,7,7,49,1,,,,,,,,,,,,,,,,,,,,,,,
,,,,,SPR24_013,20,Male,2024-04-08_12h02.57.188,jersey_experiment_5_v0,2023.2.2,Win32,84.74576271,,,,,,,,,,,,,,,,949.6333,950.6802,950.6802,952.0684,return,0.6825,,74.86979167,,,,,,FBP-RB-81.png,0.45,1.2,40,0.25,,,,,,,,,,,,,,,,,,0,8,8,39,1,,,,,,,,,,,,,,,,,,,,,,,
,,,,,SPR24_013,20,Male,2024-04-08_12h02.57.188,jersey_experiment_5_v0,2023.2.2,Win32,84.74576271,,,,,,,,,,,,,,,,952.0686,953.1157,953.1157,954.7039,return,0.5908,,49.86979167,,,,,,FBP-RB-71.png,0.4,1.2,33,0.25,,,,,,,,,,,,,,,,,,0,9,9,32,1,,,,,,,,,,,,,,,,,,,,,,,
,,,,,SPR24_013,20,Male,2024-04-08_12h02.57.188,jersey_experiment_5_v0,2023.2.2,Win32,84.74576271,,,,,,,,,,,,,,,,954.7041,955.751,955.7511,959.2451,return,0.8997,,47.00520833,,,,,,FBP-OG-19.png,0.37,1.2,12,0.25,,,,,,,,,,,,,,,,,,0,10,10,11,1,,,,,,,,,,,,,,,,,,,,,,,
,,,,,SPR24_013,20,Male,2024-04-08_12h02.57.188,jersey_experiment_5_v0,2023.2.2,Win32,84.74576271,,,,,,,,,,,,,,,,959.2454,960.2925,960.2925,961.7748,return,0.7779,,47.00520833,,,,,,FBP-RB-81.png,0.4,1.2,38,0.25,,,,,,,,,,,,,,,,,,0,11,11,37,1,,,,,,,,,,,,,,,,,,,,,,,
,,,,,SPR24_013,20,Male,2024-04-08_12h02.57.188,jersey_experiment_5_v0,2023.2.2,Win32,84.74576271,,,,,,,,,,,,,,,,961.775,963.0689,963.0689,964.6925,return,0.7205,,73.56770833,,,,,,FBP-PT-81.png,0.45,1.2,55,0.5,,,,,,,,,,,,,,,,,,0,12,12,54,1,,,,,,,,,,,,,,,,,,,,,,,
,,,,,SPR24_013,20,Male,2024-04-08_12h02.57.188,jersey_experiment_5_v0,2023.2.2,Win32,84.74576271,,,,,,,,,,,,,,,,964.6928,965.9866,965.9867,967.2808,return,0.7054,,73.56770833,,,,,,FBP-YG-81.png,0.43,1.2,24,0.5,,,,,,,,,,,,,,,,,,0,13,13,23,1,,,,,,,,,,,,,,,,,,,,,,,
,,,,,SPR24_013,20,Male,2024-04-08_12h02.57.188,jersey_experiment_5_v0,2023.2.2,Win32,84.74576271,,,,,,,,,,,,,,,,967.2811,968.3279,968.3279,970.4457,return,0.7343,,25,,,,,,FBP-OG-17.png,0.35,1.2,1,0.25,,,,,,,,,,,,,,,,,,0,14,14,0,1,,,,,,,,,,,,,,,,,,,,,,,
,,,,,SPR24_013,20,Male,2024-04-08_12h02.57.188,jersey_experiment_5_v0,2023.2.2,Win32,84.74576271,,,,,,,,,,,,,,,,970.4458,971.4929,971.4929,972.928,return,0.8,,25,,,,,,FBP-OG-17.png,0.37,1.2,2,0.25,,,,,,,,,,,,,,,,,,0,15,15,1,1,,,,,,,,,,,,,,,,,,,,,,,
,,,,,SPR24_013,20,Male,2024-04-08_12h02.57.188,jersey_experiment_5_v0,2023.2.2,Win32,84.74576271,,,,,,,,,,,,,,,,972.9283,974.2223,974.2223,976.5164,return,0.7149,,49.73958333,,,,,,FBP-PT-71.png,0.37,1.2,47,0.5,,,,,,,,,,,,,,,,,,0,16,16,46,1,,,,,,,,,,,,,,,,,,,,,,,
,,,,,SPR24_013,20,Male,2024-04-08_12h02.57.188,jersey_experiment_5_v0,2023.2.2,Win32,84.74576271,,,,,,,,,,,,,,,,976.5166,977.5636,977.5636,979.3754,return,0.6594,,73.046875,,,,,,FBP-RB-91.png,0.43,1.2,44,0.25,,,,,,,,,,,,,,,,,,0,17,17,43,1,,,,,,,,,,,,,,,,,,,,,,,
,,,,,SPR24_013,20,Male,2024-04-08_12h02.57.188,jersey_experiment_5_v0,2023.2.2,Win32,84.74576271,,,,,,,,,,,,,,,,979.3756,980.4225,980.4225,981.8343,return,0.6531,,73.046875,,,,,,FBP-RB-91.png,0.45,1.2,45,0.25,,,,,,,,,,,,,,,,,,0,18,18,44,1,,,,,,,,,,,,,,,,,,,,,,,
,,,,,SPR24_013,20,Male,2024-04-08_12h02.57.188,jersey_experiment_5_v0,2023.2.2,Win32,84.74576271,,,,,,,,,,,,,,,,981.8345,982.8815,982.8815,984.4815,return,0.7307,,73.046875,,,,,,FBP-OG-19.png,0.43,1.2,14,0.25,,,,,,,,,,,,,,,,,,0,19,19,13,1,,,,,,,,,,,,,,,,,,,,,,,
,,,,,SPR24_013,20,Male,2024-04-08_12h02.57.188,jersey_experiment_5_v0,2023.2.2,Win32,84.74576271,,,,,,,,,,,,,,,,984.4818,985.5286,985.5286,987.2934,return,0.6501,,49.21875,,,,,,FBP-OG-18.png,0.37,1.2,7,0.25,,,,,,,,,,,,,,,,,,0,20,20,6,1,,,,,,,,,,,,,,,,,,,,,,,
,,,,,SPR24_013,20,Male,2024-04-08_12h02.57.188,jersey_experiment_5_v0,2023.2.2,Win32,84.74576271,,,,,,,,,,,,,,,,987.2936,988.3405,988.3406,992.2229,return,0.603,,97.78645833,,,,,,FBP-OG-18.png,0.45,1.2,10,0.25,,,,,,,,,,,,,,,,,,0,21,21,9,1,,,,,,,,,,,,,,,,,,,,,,,
,,,,,SPR24_013,20,Male,2024-04-08_12h02.57.188,jersey_experiment_5_v0,2023.2.2,Win32,84.74576271,,,,,,,,,,,,,,,,992.2231,993.27,993.27,995.3878,return,0.7227,,24.73958333,,,,,,FBP-RB-71.png,0.35,1.2,31,0.25,,,,,,,,,,,,,,,,,,0,22,22,30,1,,,,,,,,,,,,,,,,,,,,,,,
,,,,,SPR24_013,20,Male,2024-04-08_12h02.57.188,jersey_experiment_5_v0,2023.2.2,Win32,84.74576271,,,,,,,,,,,,,,,,995.3881,996.4349,996.4349,998.6702,return,0.6985,,49.609375,,,,,,FBP-RB-91.png,0.37,1.2,42,0.25,,,,,,,,,,,,,,,,,,0,23,23,41,1,,,,,,,,,,,,,,,,,,,,,,,
,,,,,SPR24_013,20,Male,2024-04-08_12h02.57.188,jersey_experiment_5_v0,2023.2.2,Win32,84.74576271,,,,,,,,,,,,,,,,998.6705,999.9645,999.9645,1001.6939,return,0.744,,75,,,,,,FBP-YG-91.png,0.43,1.2,29,0.5,,,,,,,,,,,,,,,,,,0,24,24,28,1,,,,,,,,,,,,,,,,,,,,,,,
,,,,,SPR24_013,20,Male,2024-04-08_12h02.57.188,jersey_experiment_5_v0,2023.2.2,Win32,84.74576271,,,,,,,,,,,,,,,,1001.6941,1002.7409,1002.7409,1004.5411,return,0.7676,,49.86979167,,,,,,FBP-OG-17.png,0.4,1.2,3,0.25,,,,,,,,,,,,,,,,,,0,25,25,2,1,,,,,,,,,,,,,,,,,,,,,,,
,,,,,SPR24_013,20,Male,2024-04-08_12h02.57.188,jersey_experiment_5_v0,2023.2.2,Win32,84.74576271,,,,,,,,,,,,,,,,1004.5413,1005.5882,1005.5882,1007.8353,return,0.7463,,75.390625,,,,,,FBP-OG-19.png,0.45,1.2,15,0.25,,,,,,,,,,,,,,,,,,0,26,26,14,1,,,,,,,,,,,,,,,,,,,,,,,
,,,,,SPR24_013,20,Male,2024-04-08_12h02.57.188,jersey_experiment_5_v0,2023.2.2,Win32,84.74576271,,,,,,,,,,,,,,,,1007.8355,1009.1294,1009.1295,1011.459,return,0.6586,,50.13020833,,,,,,FBP-PT-71.png,0.4,1.2,48,0.5,,,,,,,,,,,,,,,,,,0,27,27,47,1,,,,,,,,,,,,,,,,,,,,,,,
,,,,,SPR24_013,20,Male,2024-04-08_12h02.57.188,jersey_experiment_5_v0,2023.2.2,Win32,84.74576271,,,,,,,,,,,,,,,,1011.4592,1012.5059,1012.506,1014.0943,return,0.9082,,50.13020833,,,,,,FBP-OG-19.png,0.4,1.2,13,0.25,,,,,,,,,,,,,,,,,,0,28,28,12,1,,,,,,,,,,,,,,,,,,,,,,,
,,,,,SPR24_013,20,Male,2024-04-08_12h02.57.188,jersey_experiment_5_v0,2023.2.2,Win32,84.74576271,,,,,,,,,,,,,,,,1014.0946,1015.1415,1015.1415,1017.1296,return,0.8894,,24.73958333,,,,,,FBP-RB-91.png,0.35,1.2,41,0.25,,,,,,,,,,,,,,,,,,0,29,29,40,1,,,,,,,,,,,,,,,,,,,,,,,
,,,,,SPR24_013,20,Male,2024-04-08_12h02.57.188,jersey_experiment_5_v0,2023.2.2,Win32,84.74576271,,,,,,,,,,,,,,,,1017.1298,1018.1769,1018.1769,1020.3534,return,0.8335,,73.56770833,,,,,,FBP-OG-17.png,0.45,1.2,5,0.25,,,,,,,,,,,,,,,,,,0,30,30,4,1,,,,,,,,,,,,,,,,,,,,,,,
,,,,,SPR24_013,20,Male,2024-04-08_12h02.57.188,jersey_experiment_5_v0,2023.2.2,Win32,84.74576271,,,,,,,,,,,,,,,,1020.3536,1021.6475,1021.6476,1023.3417,return,0.8853,,50.91145833,,,,,,FBP-PT-71.png,0.35,1.2,46,0.5,,,,,,,,,,,,,,,,,,0,31,31,45,1,,,,,,,,,,,,,,,,,,,,,,,
,,,,,SPR24_013,20,Male,2024-04-08_12h02.57.188,jersey_experiment_5_v0,2023.2.2,Win32,84.74576271,,,,,,,,,,,,,,,,1023.3419,1024.3888,1024.3889,1027.8831,return,2.43,,49.34895833,,,,,,FBP-OG-18.png,0.4,1.2,8,0.25,,,,,,,,,,,,,,,,,,0,32,32,7,1,,,,,,,,,,,,,,,,,,,,,,,
,,,,,SPR24_013,20,Male,2024-04-08_12h02.57.188,jersey_experiment_5_v0,2023.2.2,Win32,84.74576271,,,,,,,,,,,,,,,,1027.8833,1029.1772,1029.1773,1031.5539,return,0.6824,,46.875,,,,,,FBP-PT-81.png,0.35,1.2,51,0.5,,,,,,,,,,,,,,,,,,0,33,33,50,1,,,,,,,,,,,,,,,,,,,,,,,
,,,,,SPR24_013,20,Male,2024-04-08_12h02.57.188,jersey_experiment_5_v0,2023.2.2,Win32,84.74576271,,,,,,,,,,,,,,,,1031.554,1032.601,1032.601,1034.5892,return,1.003,,74.34895833,,,,,,FBP-RB-81.png,0.43,1.2,39,0.25,,,,,,,,,,,,,,,,,,0,34,34,38,1,,,,,,,,,,,,,,,,,,,,,,,
,,,,,SPR24_013,20,Male,2024-04-08_12h02.57.188,jersey_experiment_5_v0,2023.2.2,Win32,84.74576271,,,,,,,,,,,,,,,,1034.5895,1035.8833,1035.8833,1037.5659,return,0.6751,,74.34895833,,,,,,FBP-PT-91.png,0.45,1.2,60,0.5,,,,,,,,,,,,,,,,,,0,35,35,59,1,,,,,,,,,,,,,,,,,,,,,,,
,,,,,SPR24_013,20,Male,2024-04-08_12h02.57.188,jersey_experiment_5_v0,2023.2.2,Win32,84.74576271,,,,,,,,,,,,,,,,1037.5661,1038.86,1038.86,1040.707,return,0.7062,,50.13020833,,,,,,FBP-YG-91.png,0.35,1.2,26,0.5,,,,,,,,,,,,,,,,,,0,36,36,25,1,,,,,,,,,,,,,,,,,,,,,,,
,,,,,SPR24_013,20,Male,2024-04-08_12h02.57.188,jersey_experiment_5_v0,2023.2.2,Win32,84.74576271,,,,,,,,,,,,,,,,1040.7073,1041.7542,1041.7543,1043.8249,return,0.6016,,50.13020833,,,,,,FBP-RB-71.png,0.37,1.2,32,0.25,,,,,,,,,,,,,,,,,,0,37,37,31,1,,,,,,,,,,,,,,,,,,,,,,,
,,,,,SPR24_013,20,Male,2024-04-08_12h02.57.188,jersey_experiment_5_v0,2023.2.2,Win32,84.74576271,,,,,,,,,,,,,,,,1043.8251,1045.119,1045.119,1046.7778,return,0.785,,50.26041667,,,,,,FBP-YG-71.png,0.37,1.2,17,0.5,,,,,,,,,,,,,,,,,,0,38,38,16,1,,,,,,,,,,,,,,,,,,,,,,,
,,,,,SPR24_013,20,Male,2024-04-08_12h02.57.188,jersey_experiment_5_v0,2023.2.2,Win32,84.74576271,,,,,,,,,,,,,,,,1046.7781,1048.0721,1048.0721,1049.3897,return,0.6976,,50.390625,,,,,,FBP-YG-71.png,0.4,1.2,18,0.5,,,,,,,,,,,,,,,,,,0,39,39,17,1,,,,,,,,,,,,,,,,,,,,,,,
,,,,,SPR24_013,20,Male,2024-04-08_12h02.57.188,jersey_experiment_5_v0,2023.2.2,Win32,84.74576271,,,,,,,,,,,,,,,,1049.39,1050.4369,1050.4369,1054.6017,return,0.5716,,26.04166667,,,,,,FBP-OG-19.png,0.35,1.2,11,0.25,,,,,,,,,,,,,,,,,,0,40,40,10,1,,,,,,,,,,,,,,,,,,,,,,,
,,,,,SPR24_013,20,Male,2024-04-08_12h02.57.188,jersey_experiment_5_v0,2023.2.2,Win32,84.74576271,,,,,,,,,,,,,,,,1054.602,1055.8959,1055.896,1057.6843,return,0.8141,,50.13020833,,,,,,FBP-PT-71.png,0.43,1.2,49,0.5,,,,,,,,,,,,,,,,,,0,41,41,48,1,,,,,,,,,,,,,,,,,,,,,,,
,,,,,SPR24_013,20,Male,2024-04-08_12h02.57.188,jersey_experiment_5_v0,2023.2.2,Win32,84.74576271,,,,,,,,,,,,,,,,1057.6846,1058.9784,1058.9784,1060.3548,return,0.8816,,50.13020833,,,,,,FBP-YG-91.png,0.4,1.2,28,0.5,,,,,,,,,,,,,,,,,,0,42,42,27,1,,,,,,,,,,,,,,,,,,,,,,,
,,,,,SPR24_013,20,Male,2024-04-08_12h02.57.188,jersey_experiment_5_v0,2023.2.2,Win32,84.74576271,,,,,,,,,,,,,,,,1060.3551,1061.4021,1061.4021,1063.5079,return,0.8577,,72.91666667,,,,,,FBP-RB-71.png,0.45,1.2,35,0.25,,,,,,,,,,,,,,,,,,0,43,43,34,1,,,,,,,,,,,,,,,,,,,,,,,
,,,,,SPR24_013,20,Male,2024-04-08_12h02.57.188,jersey_experiment_5_v0,2023.2.2,Win32,84.74576271,,,,,,,,,,,,,,,,1063.5081,1064.5551,1064.5551,1066.3315,return,0.6655,,72.91666667,,,,,,FBP-OG-17.png,0.43,1.2,4,0.25,,,,,,,,,,,,,,,,,,0,44,44,3,1,,,,,,,,,,,,,,,,,,,,,,,
,,,,,SPR24_013,20,Male,2024-04-08_12h02.57.188,jersey_experiment_5_v0,2023.2.2,Win32,84.74576271,,,,,,,,,,,,,,,,1066.3318,1067.6257,1067.6257,1069.1553,return,0.8472,,72.91666667,,,,,,FBP-YG-71.png,0.43,1.2,19,0.5,,,,,,,,,,,,,,,,,,0,45,45,18,1,,,,,,,,,,,,,,,,,,,,,,,
,,,,,SPR24_013,20,Male,2024-04-08_12h02.57.188,jersey_experiment_5_v0,2023.2.2,Win32,84.74576271,,,,,,,,,,,,,,,,1069.1555,1070.4494,1070.4494,1072.7318,return,0.8401,,49.08854167,,,,,,FBP-PT-81.png,0.4,1.2,53,0.5,,,,,,,,,,,,,,,,,,0,46,46,52,1,,,,,,,,,,,,,,,,,,,,,,,
,,,,,SPR24_013,20,Male,2024-04-08_12h02.57.188,jersey_experiment_5_v0,2023.2.2,Win32,84.74576271,,,,,,,,,,,,,,,,1072.7321,1074.026,1074.026,1075.4849,return,0.6748,,49.609375,,,,,,FBP-PT-81.png,0.37,1.2,52,0.5,,,,,,,,,,,,,,,,,,0,47,47,51,1,,,,,,,,,,,,,,,,,,,,,,,
,,,,,SPR24_013,20,Male,2024-04-08_12h02.57.188,jersey_experiment_5_v0,2023.2.2,Win32,84.74576271,,,,,,,,,,,,,,,,1075.4851,1076.532,1076.532,1079.8497,return,0.6188,,50.78125,,,,,,FBP-OG-18.png,0.43,1.2,9,0.25,,,,,,,,,,,,,,,,,,0,48,48,8,1,,,,,,,,,,,,,,,,,,,,,,,
,,,,,SPR24_013,20,Male,2024-04-08_12h02.57.188,jersey_experiment_5_v0,2023.2.2,Win32,84.74576271,,,,,,,,,,,,,,,,1079.8499,1080.8968,1080.8968,1082.3086,return,0.6697,,50.78125,,,,,,FBP-RB-91.png,0.4,1.2,43,0.25,,,,,,,,,,,,,,,,,,0,49,49,42,1,,,,,,,,,,,,,,,,,,,,,,,
,,,,,SPR24_013,20,Male,2024-04-08_12h02.57.188,jersey_experiment_5_v0,2023.2.2,Win32,84.74576271,,,,,,,,,,,,,,,,1082.3087,1083.6028,1083.6029,1085.4029,return,0.6174,,25.91145833,,,,,,FBP-YG-71.png,0.35,1.2,16,0.5,,,,,,,,,,,,,,,,,,0,50,50,15,1,,,,,,,,,,,,,,,,,,,,,,,
,,,,,SPR24_013,20,Male,2024-04-08_12h02.57.188,jersey_experiment_5_v0,2023.2.2,Win32,84.74576271,,,,,,,,,,,,,,,,1085.4032,1086.6972,1086.6972,1087.9089,return,0.6217,,25.91145833,,,,,,FBP-YG-81.png,0.35,1.2,21,0.5,,,,,,,,,,,,,,,,,,0,51,51,20,1,,,,,,,,,,,,,,,,,,,,,,,
,,,,,SPR24_013,20,Male,2024-04-08_12h02.57.188,jersey_experiment_5_v0,2023.2.2,Win32,84.74576271,,,,,,,,,,,,,,,,1087.9091,1089.203,1089.203,1091.3443,return,0.6464,,49.34895833,,,,,,FBP-YG-81.png,0.4,1.2,23,0.5,,,,,,,,,,,,,,,,,,0,52,52,22,1,,,,,,,,,,,,,,,,,,,,,,,
,,,,,SPR24_013,20,Male,2024-04-08_12h02.57.188,jersey_experiment_5_v0,2023.2.2,Win32,84.74576271,,,,,,,,,,,,,,,,1091.3446,1092.3915,1092.3915,1095.3328,return,2.3532,,24.47916667,,,,,,FBP-RB-81.png,0.37,1.2,37,0.25,,,,,,,,,,,,,,,,,,0,53,53,36,1,,,,,,,,,,,,,,,,,,,,,,,
,,,,,SPR24_013,20,Male,2024-04-08_12h02.57.188,jersey_experiment_5_v0,2023.2.2,Win32,84.74576271,,,,,,,,,,,,,,,,1095.333,1096.3798,1096.3799,1098.7681,return,1.7787,,25.26041667,,,,,,FBP-RB-81.png,0.35,1.2,36,0.25,,,,,,,,,,,,,,,,,,0,54,54,35,1,,,,,,,,,,,,,,,,,,,,,,,
,,,,,SPR24_013,20,Male,2024-04-08_12h02.57.188,jersey_experiment_5_v0,2023.2.2,Win32,84.74576271,,,,,,,,,,,,,,,,1098.7684,1100.0623,1100.0623,1102.533,return,0.7301,,49.34895833,,,,,,FBP-YG-81.png,0.37,1.2,22,0.5,,,,,,,,,,,,,,,,,,0,55,55,21,1,,,,,,,,,,,,,,,,,,,,,,,
,,,,,SPR24_013,20,Male,2024-04-08_12h02.57.188,jersey_experiment_5_v0,2023.2.2,Win32,84.74576271,,,,,,,,,,,,,,,,1102.5333,1103.8272,1103.8272,1105.6743,return,0.9728,,49.34895833,,,,,,FBP-YG-91.png,0.37,1.2,27,0.5,,,,,,,,,,,,,,,,,,0,56,56,26,1,,,,,,,,,,,,,,,,,,,,,,,
,,,,,SPR24_013,20,Male,2024-04-08_12h02.57.188,jersey_experiment_5_v0,2023.2.2,Win32,84.74576271,,,,,,,,,,,,,,,,1105.6745,1106.9684,1106.9684,1110.6745,return,2.4474,,98.828125,,,,,,FBP-YG-71.png,0.45,1.2,20,0.5,,,,,,,,,,,,,,,,,,0,57,57,19,1,,,,,,,,,,,,,,,,,,,,,,,
,,,,,SPR24_013,20,Male,2024-04-08_12h02.57.188,jersey_experiment_5_v0,2023.2.2,Win32,84.74576271,,,,,,,,,,,,,,,,1110.6747,1111.9685,1111.9685,1114.4746,return,0.6195,,73.69791667,,,,,,FBP-PT-91.png,0.43,1.2,59,0.5,,,,,,,,,,,,,,,,,,0,58,58,58,1,,,,,,,,,,,,,,,,,,,,,,,
,,,,,SPR24_013,20,Male,2024-04-08_12h02.57.188,jersey_experiment_5_v0,2023.2.2,Win32,84.74576271,,,,,,,,,,,,,,,,1114.4748,1115.7687,1115.7687,1117.0512,return,0.6647,,73.69791667,,,,,,FBP-PT-91.png,0.4,1.2,58,0.5,,,,,,,,,,,,,,,,,,0,59,59,57,1,,,,,,,,,,,,,,,,,,,,,,,
,,,,,SPR24_013,20,Male,2024-04-08_12h02.57.188,jersey_experiment_5_v0,2023.2.2,Win32,84.74576271,,,,,,,,,,,,,,,,,,,,,,,,,,,,,,,,,,,,,,,,,,,,,,,,,,,,,,,,1117.0517,1122.1574,return,5.099,,,,,,,,,,,,,,,,,,,
,,,,,SPR24_013,20,Male,2024-04-08_12h02.57.188,jersey_experiment_5_v0,2023.2.2,Win32,84.74576271,,,,,,,,,,,,,,,,,,,,,,,,,,,,,,,,,,,,,,,,,,,,,,,,,,,,,,,,,,,,,1122.1575,1127.9811,1,4.0474,return,1.7563,,,,,,,,,,,,
,,,,,SPR24_013,20,Male,2024-04-08_12h02.57.188,jersey_experiment_5_v0,2023.2.2,Win32,84.74576271,,,,,,,,,,,,,,,,,,,,,,,,,,,,,,,,,,,,,,,,,,,,,,,,,,,,,,,,,,,,,,,,,,,,1127.9813,1347.5352,The study may be about the perception of participant's in view of how they define what is muscular and what is considered slender. Gender and race may influence the decisions made. I saw various shades of green and red and different numbers,right,207.1092,,,,,,
,,,,,SPR24_013,20,Male,2024-04-08_12h02.57.188,jersey_experiment_5_v0,2023.2.2,Win32,84.74576271,,,,,,,,,,,,,,,,,,,,,,,,,,,,,,,,,,,,,,,,,,,,,,,,,,,,,,,,,,,,,,,,,,,,,,,,,,1347.5352,1353.331,return,5.7835,