requirements.started,requirements.stopped,key_resp_3.keys,key_resp_3.rt,key_resp_3.duration,Subject ID,Age,Gender,date,expName,psychopyVersion,OS,frameRate,instructions1.started,instructions1.stopped,key_resp.keys,key_resp.rt,key_resp.duration,example.started,example.stopped,enter_2.keys,enter_2.rt,enter_2.duration,instructions2.started,instructions2.stopped,enter_3.keys,enter_3.rt,enter_3.duration,image.started,image.stopped,slider_2.started,slider_2.stopped,next.keys,next.rt,next.duration,slider.response,trial_block_1.thisRepN,trial_block_1.thisTrialN,trial_block_1.thisN,trial_block_1.thisIndex,trial_block_1.ran,Path,Width,Height,Index,Duration,trial_block_2.thisRepN,trial_block_2.thisTrialN,trial_block_2.thisN,trial_block_2.thisIndex,trial_block_2.ran,rest_break.started,rest_break.stopped,end_break.started,end_break.stopped,key_resp_5.keys,key_resp_5.rt,key_resp_5.duration,trial_block_3.thisRepN,trial_block_3.thisTrialN,trial_block_3.thisN,trial_block_3.thisIndex,trial_block_3.ran,trial_block_4.thisRepN,trial_block_4.thisTrialN,trial_block_4.thisN,trial_block_4.thisIndex,trial_block_4.ran,questions_intro.started,questions_intro.stopped,enter_12.keys,enter_12.rt,enter_12.duration,question2.started,question2.stopped,question_doingbest.response,question_doingbest.rt,enter_15.keys,enter_15.rt,enter_15.duration,pattern.started,pattern.stopped,pattern_2.text,enter_17.keys,enter_17.rt,enter_17.duration,thankyou.started,thankyou.stopped,enter_14.keys,enter_14.rt,enter_14.duration
1E-04,6.8502,return,6.8453,,SPR24_098,19,F,2024-04-26_09h04.13.956,jersey_experiment_5_v0,2023.2.2,Win32,85.47008547,,,,,,,,,,,,,,,,,,,,,,,,,,,,,,,,,,,,,,,,,,,,,,,,,,,,,,,,,,,,,,,,,,,,,,,,,,,,,,
,,,,,SPR24_098,19,F,2024-04-26_09h04.13.956,jersey_experiment_5_v0,2023.2.2,Win32,85.47008547,6.8504,12.7904,return,5.9198,,,,,,,,,,,,,,,,,,,,,,,,,,,,,,,,,,,,,,,,,,,,,,,,,,,,,,,,,,,,,,,,,,,,,,,,,,
,,,,,SPR24_098,19,F,2024-04-26_09h04.13.956,jersey_experiment_5_v0,2023.2.2,Win32,85.47008547,,,,,,12.7904,16.8022,return,3.9713,,,,,,,,,,,,,,,,,,,,,,,,,,,,,,,,,,,,,,,,,,,,,,,,,,,,,,,,,,,,,,,,,,,,,
,,,,,SPR24_098,19,F,2024-04-26_09h04.13.956,jersey_experiment_5_v0,2023.2.2,Win32,85.47008547,,,,,,,,,,,16.8024,31.7557,return,14.9381,,,,,,,,,,,,,,,,,,,,,,,,,,,,,,,,,,,,,,,,,,,,,,,,,,,,,,,,,,,,,,,,
,,,,,SPR24_098,19,F,2024-04-26_09h04.13.956,jersey_experiment_5_v0,2023.2.2,Win32,85.47008547,,,,,,,,,,,,,,,,31.7622,33.0615,33.0617,39.9205,return,2.0858,,29.296875,0,0,0,5,1,FBP-OG-81.png,0.35,1.2,6,0.5,,,,,,,,,,,,,,,,,,,,,,,,,,,,,,,,,,,,,,,,,,,,,
,,,,,SPR24_098,19,F,2024-04-26_09h04.13.956,jersey_experiment_5_v0,2023.2.2,Win32,85.47008547,,,,,,,,,,,,,,,,39.9207,40.9677,40.9678,45.1839,return,1.7415,,66.27604167,0,1,1,27,1,FBP-YG-19.png,0.4,1.2,28,0.25,,,,,,,,,,,,,,,,,,,,,,,,,,,,,,,,,,,,,,,,,,,,,
,,,,,SPR24_098,19,F,2024-04-26_09h04.13.956,jersey_experiment_5_v0,2023.2.2,Win32,85.47008547,,,,,,,,,,,,,,,,45.184,46.4855,46.4857,49.2973,return,1.0382,,44.01041667,0,2,2,30,1,FBP-RB-17.png,0.35,1.2,31,0.5,,,,,,,,,,,,,,,,,,,,,,,,,,,,,,,,,,,,,,,,,,,,,
,,,,,SPR24_098,19,F,2024-04-26_09h04.13.956,jersey_experiment_5_v0,2023.2.2,Win32,85.47008547,,,,,,,,,,,,,,,,49.2974,50.3444,50.3446,52.8032,return,0.9068,,80.59895833,0,3,3,29,1,FBP-YG-19.png,0.45,1.2,30,0.25,,,,,,,,,,,,,,,,,,,,,,,,,,,,,,,,,,,,,,,,,,,,,
,,,,,SPR24_098,19,F,2024-04-26_09h04.13.956,jersey_experiment_5_v0,2023.2.2,Win32,85.47008547,,,,,,,,,,,,,,,,52.8034,53.8503,53.8504,55.921,return,0.7314,,49.86979167,0,4,4,56,1,FBP-PT-19.png,0.37,1.2,57,0.25,,,,,,,,,,,,,,,,,,,,,,,,,,,,,,,,,,,,,,,,,,,,,
,,,,,SPR24_098,19,F,2024-04-26_09h04.13.956,jersey_experiment_5_v0,2023.2.2,Win32,85.47008547,,,,,,,,,,,,,,,,55.9212,56.9723,56.9726,59.2505,return,1.2252,,49.73958333,0,5,5,50,1,FBP-PT-18.png,0.35,1.2,51,0.25,,,,,,,,,,,,,,,,,,,,,,,,,,,,,,,,,,,,,,,,,,,,,
,,,,,SPR24_098,19,F,2024-04-26_09h04.13.956,jersey_experiment_5_v0,2023.2.2,Win32,85.47008547,,,,,,,,,,,,,,,,59.2507,60.2976,60.2979,62.4657,return,0.9988,,59.375,0,6,6,17,1,FBP-YG-17.png,0.4,1.2,18,0.25,,,,,,,,,,,,,,,,,,,,,,,,,,,,,,,,,,,,,,,,,,,,,
,,,,,SPR24_098,19,F,2024-04-26_09h04.13.956,jersey_experiment_5_v0,2023.2.2,Win32,85.47008547,,,,,,,,,,,,,,,,62.4659,63.7682,63.7683,66.2036,return,1.5128,,63.54166667,0,7,7,7,1,FBP-OG-81.png,0.4,1.2,8,0.5,,,,,,,,,,,,,,,,,,,,,,,,,,,,,,,,,,,,,,,,,,,,,
,,,,,SPR24_098,19,F,2024-04-26_09h04.13.956,jersey_experiment_5_v0,2023.2.2,Win32,85.47008547,,,,,,,,,,,,,,,,66.2038,67.2506,67.2509,73.609,return,0.918,,45.83333333,0,8,8,51,1,FBP-PT-18.png,0.37,1.2,52,0.25,,,,,,,,,,,,,,,,,,,,,,,,,,,,,,,,,,,,,,,,,,,,,
,,,,,SPR24_098,19,F,2024-04-26_09h04.13.956,jersey_experiment_5_v0,2023.2.2,Win32,85.47008547,,,,,,,,,,,,,,,,73.6091,74.9099,74.91,77.1955,return,0.965,,74.08854167,0,9,9,39,1,FBP-RB-18.png,0.45,1.2,40,0.5,,,,,,,,,,,,,,,,,,,,,,,,,,,,,,,,,,,,,,,,,,,,,
,,,,,SPR24_098,19,F,2024-04-26_09h04.13.956,jersey_experiment_5_v0,2023.2.2,Win32,85.47008547,,,,,,,,,,,,,,,,77.1957,78.2393,78.2395,80.2041,return,0.8535,,66.27604167,0,10,10,52,1,FBP-PT-18.png,0.4,1.2,53,0.25,,,,,,,,,,,,,,,,,,,,,,,,,,,,,,,,,,,,,,,,,,,,,
,,,,,SPR24_098,19,F,2024-04-26_09h04.13.956,jersey_experiment_5_v0,2023.2.2,Win32,85.47008547,,,,,,,,,,,,,,,,80.2043,81.2512,81.2513,83.5807,return,0.8883,,76.171875,0,11,11,28,1,FBP-YG-19.png,0.43,1.2,29,0.25,,,,,,,,,,,,,,,,,,,,,,,,,,,,,,,,,,,,,,,,,,,,,
,,,,,SPR24_098,19,F,2024-04-26_09h04.13.956,jersey_experiment_5_v0,2023.2.2,Win32,85.47008547,,,,,,,,,,,,,,,,83.5809,84.8794,84.8795,86.5102,return,0.6628,,41.015625,0,12,12,6,1,FBP-OG-81.png,0.37,1.2,7,0.5,,,,,,,,,,,,,,,,,,,,,,,,,,,,,,,,,,,,,,,,,,,,,
,,,,,SPR24_098,19,F,2024-04-26_09h04.13.956,jersey_experiment_5_v0,2023.2.2,Win32,85.47008547,,,,,,,,,,,,,,,,86.5104,87.8044,87.8047,89.6162,return,1.0378,,41.015625,0,13,13,0,1,FBP-OG-71.png,0.35,1.2,1,0.5,,,,,,,,,,,,,,,,,,,,,,,,,,,,,,,,,,,,,,,,,,,,,
,,,,,SPR24_098,19,F,2024-04-26_09h04.13.956,jersey_experiment_5_v0,2023.2.2,Win32,85.47008547,,,,,,,,,,,,,,,,89.6164,90.9104,90.9106,92.8281,return,0.6536,,61.84895833,0,14,14,2,1,FBP-OG-71.png,0.4,1.2,3,0.5,,,,,,,,,,,,,,,,,,,,,,,,,,,,,,,,,,,,,,,,,,,,,
,,,,,SPR24_098,19,F,2024-04-26_09h04.13.956,jersey_experiment_5_v0,2023.2.2,Win32,85.47008547,,,,,,,,,,,,,,,,92.8282,93.8752,93.8753,96.4197,return,0.7635,,67.578125,0,15,15,58,1,FBP-PT-19.png,0.43,1.2,59,0.25,,,,,,,,,,,,,,,,,,,,,,,,,,,,,,,,,,,,,,,,,,,,,
,,,,,SPR24_098,19,F,2024-04-26_09h04.13.956,jersey_experiment_5_v0,2023.2.2,Win32,85.47008547,,,,,,,,,,,,,,,,96.4198,97.7224,97.7225,99.6519,return,0.8578,,68.61979167,0,16,16,12,1,FBP-OG-91.png,0.4,1.2,13,0.5,,,,,,,,,,,,,,,,,,,,,,,,,,,,,,,,,,,,,,,,,,,,,
,,,,,SPR24_098,19,F,2024-04-26_09h04.13.956,jersey_experiment_5_v0,2023.2.2,Win32,85.47008547,,,,,,,,,,,,,,,,99.652,100.9459,100.9461,102.574,return,0.5413,,75.13020833,0,17,17,8,1,FBP-OG-81.png,0.43,1.2,9,0.5,,,,,,,,,,,,,,,,,,,,,,,,,,,,,,,,,,,,,,,,,,,,,
,,,,,SPR24_098,19,F,2024-04-26_09h04.13.956,jersey_experiment_5_v0,2023.2.2,Win32,85.47008547,,,,,,,,,,,,,,,,102.5741,103.8755,103.8756,105.3978,return,0.565,,78.125,0,18,18,34,1,FBP-RB-17.png,0.45,1.2,35,0.5,,,,,,,,,,,,,,,,,,,,,,,,,,,,,,,,,,,,,,,,,,,,,
,,,,,SPR24_098,19,F,2024-04-26_09h04.13.956,jersey_experiment_5_v0,2023.2.2,Win32,85.47008547,,,,,,,,,,,,,,,,105.398,106.4403,106.4405,108.4521,return,0.9283,,75.52083333,0,19,19,24,1,FBP-YG-18.png,0.45,1.2,25,0.25,,,,,,,,,,,,,,,,,,,,,,,,,,,,,,,,,,,,,,,,,,,,,
,,,,,SPR24_098,19,F,2024-04-26_09h04.13.956,jersey_experiment_5_v0,2023.2.2,Win32,85.47008547,,,,,,,,,,,,,,,,108.4523,109.7462,109.7464,112.0641,return,1.1793,,66.14583333,0,20,20,38,1,FBP-RB-18.png,0.43,1.2,39,0.5,,,,,,,,,,,,,,,,,,,,,,,,,,,,,,,,,,,,,,,,,,,,,
,,,,,SPR24_098,19,F,2024-04-26_09h04.13.956,jersey_experiment_5_v0,2023.2.2,Win32,85.47008547,,,,,,,,,,,,,,,,112.0642,113.1154,113.1156,115.0289,return,0.4705,,42.44791667,0,21,21,47,1,FBP-PT-17.png,0.4,1.2,48,0.25,,,,,,,,,,,,,,,,,,,,,,,,,,,,,,,,,,,,,,,,,,,,,
,,,,,SPR24_098,19,F,2024-04-26_09h04.13.956,jersey_experiment_5_v0,2023.2.2,Win32,85.47008547,,,,,,,,,,,,,,,,115.029,116.0759,116.076,117.7584,return,0.6055,,36.45833333,0,22,22,16,1,FBP-YG-17.png,0.37,1.2,17,0.25,,,,,,,,,,,,,,,,,,,,,,,,,,,,,,,,,,,,,,,,,,,,,
,,,,,SPR24_098,19,F,2024-04-26_09h04.13.956,jersey_experiment_5_v0,2023.2.2,Win32,85.47008547,,,,,,,,,,,,,,,,117.7586,119.0525,119.0527,120.9937,return,0.7657,,74.21875,0,23,23,44,1,FBP-RB-19.png,0.45,1.2,45,0.5,,,,,,,,,,,,,,,,,,,,,,,,,,,,,,,,,,,,,,,,,,,,,
,,,,,SPR24_098,19,F,2024-04-26_09h04.13.956,jersey_experiment_5_v0,2023.2.2,Win32,85.47008547,,,,,,,,,,,,,,,,120.9939,122.0409,122.041,124.3703,return,0.7298,,31.77083333,0,24,24,25,1,FBP-YG-19.png,0.35,1.2,26,0.25,,,,,,,,,,,,,,,,,,,,,,,,,,,,,,,,,,,,,,,,,,,,,
,,,,,SPR24_098,19,F,2024-04-26_09h04.13.956,jersey_experiment_5_v0,2023.2.2,Win32,85.47008547,,,,,,,,,,,,,,,,124.3704,125.6646,125.6646,128.1116,return,0.4866,,57.8125,0,25,25,32,1,FBP-RB-17.png,0.4,1.2,33,0.5,,,,,,,,,,,,,,,,,,,,,,,,,,,,,,,,,,,,,,,,,,,,,
,,,,,SPR24_098,19,F,2024-04-26_09h04.13.956,jersey_experiment_5_v0,2023.2.2,Win32,85.47008547,,,,,,,,,,,,,,,,128.1118,129.4058,129.4059,131.053,return,0.4765,,31.51041667,0,26,26,41,1,FBP-RB-19.png,0.37,1.2,42,0.5,,,,,,,,,,,,,,,,,,,,,,,,,,,,,,,,,,,,,,,,,,,,,
,,,,,SPR24_098,19,F,2024-04-26_09h04.13.956,jersey_experiment_5_v0,2023.2.2,Win32,85.47008547,,,,,,,,,,,,,,,,131.0531,132.1043,132.1044,133.7589,return,0.4742,,75.78125,0,27,27,49,1,FBP-PT-17.png,0.45,1.2,50,0.25,,,,,,,,,,,,,,,,,,,,,,,,,,,,,,,,,,,,,,,,,,,,,
,,,,,SPR24_098,19,F,2024-04-26_09h04.13.956,jersey_experiment_5_v0,2023.2.2,Win32,85.47008547,,,,,,,,,,,,,,,,133.7591,135.0567,135.0568,136.5119,return,0.4865,,26.171875,0,28,28,36,1,FBP-RB-18.png,0.37,1.2,37,0.5,,,,,,,,,,,,,,,,,,,,,,,,,,,,,,,,,,,,,,,,,,,,,
,,,,,SPR24_098,19,F,2024-04-26_09h04.13.956,jersey_experiment_5_v0,2023.2.2,Win32,85.47008547,,,,,,,,,,,,,,,,136.5121,137.8095,137.8096,139.2178,return,0.5549,,76.82291667,0,29,29,33,1,FBP-RB-17.png,0.43,1.2,34,0.5,,,,,,,,,,,,,,,,,,,,,,,,,,,,,,,,,,,,,,,,,,,,,
,,,,,SPR24_098,19,F,2024-04-26_09h04.13.956,jersey_experiment_5_v0,2023.2.2,Win32,85.47008547,,,,,,,,,,,,,,,,139.218,140.2692,140.2693,141.971,return,0.3532,,85.9375,0,30,30,19,1,FBP-YG-17.png,0.45,1.2,20,0.25,,,,,,,,,,,,,,,,,,,,,,,,,,,,,,,,,,,,,,,,,,,,,
,,,,,SPR24_098,19,F,2024-04-26_09h04.13.956,jersey_experiment_5_v0,2023.2.2,Win32,85.47008547,,,,,,,,,,,,,,,,141.9711,143.2681,143.2683,144.5151,return,0.3866,,35.80729167,0,31,31,11,1,FBP-OG-91.png,0.37,1.2,12,0.5,,,,,,,,,,,,,,,,,,,,,,,,,,,,,,,,,,,,,,,,,,,,,
,,,,,SPR24_098,19,F,2024-04-26_09h04.13.956,jersey_experiment_5_v0,2023.2.2,Win32,85.47008547,,,,,,,,,,,,,,,,144.5152,145.5593,145.5594,147.3626,return,0.4806,,27.60416667,0,32,32,26,1,FBP-YG-19.png,0.37,1.2,27,0.25,,,,,,,,,,,,,,,,,,,,,,,,,,,,,,,,,,,,,,,,,,,,,
,,,,,SPR24_098,19,F,2024-04-26_09h04.13.956,jersey_experiment_5_v0,2023.2.2,Win32,85.47008547,,,,,,,,,,,,,,,,147.3627,148.4064,148.4065,150.5595,return,0.5574,,49.609375,0,33,33,57,1,FBP-PT-19.png,0.4,1.2,58,0.25,,,,,,,,,,,,,,,,,,,,,,,,,,,,,,,,,,,,,,,,,,,,,
,,,,,SPR24_098,19,F,2024-04-26_09h04.13.956,jersey_experiment_5_v0,2023.2.2,Win32,85.47008547,,,,,,,,,,,,,,,,150.5596,151.6065,151.6066,152.8301,return,0.3456,,40.49479167,0,34,34,46,1,FBP-PT-17.png,0.37,1.2,47,0.25,,,,,,,,,,,,,,,,,,,,,,,,,,,,,,,,,,,,,,,,,,,,,
,,,,,SPR24_098,19,F,2024-04-26_09h04.13.956,jersey_experiment_5_v0,2023.2.2,Win32,85.47008547,,,,,,,,,,,,,,,,152.8303,153.8771,153.8774,155.9478,return,0.9941,,63.671875,0,35,35,18,1,FBP-YG-17.png,0.43,1.2,19,0.25,,,,,,,,,,,,,,,,,,,,,,,,,,,,,,,,,,,,,,,,,,,,,
,,,,,SPR24_098,19,F,2024-04-26_09h04.13.956,jersey_experiment_5_v0,2023.2.2,Win32,85.47008547,,,,,,,,,,,,,,,,155.9479,156.9949,156.9951,159.3127,return,0.6267,,34.24479167,0,36,36,15,1,FBP-YG-17.png,0.35,1.2,16,0.25,,,,,,,,,,,,,,,,,,,,,,,,,,,,,,,,,,,,,,,,,,,,,
,,,,,SPR24_098,19,F,2024-04-26_09h04.13.956,jersey_experiment_5_v0,2023.2.2,Win32,85.47008547,,,,,,,,,,,,,,,,159.3128,160.6068,160.6069,162.3716,return,0.4237,,73.56770833,0,37,37,9,1,FBP-OG-81.png,0.45,1.2,10,0.5,,,,,,,,,,,,,,,,,,,,,,,,,,,,,,,,,,,,,,,,,,,,,
,,,,,SPR24_098,19,F,2024-04-26_09h04.13.956,jersey_experiment_5_v0,2023.2.2,Win32,85.47008547,,,,,,,,,,,,,,,,162.3717,163.6657,163.6659,166.0351,return,0.3298,,47.65625,0,38,38,1,1,FBP-OG-71.png,0.37,1.2,2,0.5,,,,,,,,,,,,,,,,,,,,,,,,,,,,,,,,,,,,,,,,,,,,,
,,,,,SPR24_098,19,F,2024-04-26_09h04.13.956,jersey_experiment_5_v0,2023.2.2,Win32,85.47008547,,,,,,,,,,,,,,,,166.0353,167.0776,167.0777,168.5058,return,0.2953,,39.32291667,0,39,39,21,1,FBP-YG-18.png,0.37,1.2,22,0.25,,,,,,,,,,,,,,,,,,,,,,,,,,,,,,,,,,,,,,,,,,,,,
,,,,,SPR24_098,19,F,2024-04-26_09h04.13.956,jersey_experiment_5_v0,2023.2.2,Win32,85.47008547,,,,,,,,,,,,,,,,168.506,169.8104,169.8106,171.4231,return,0.3998,,73.56770833,0,40,40,43,1,FBP-RB-19.png,0.43,1.2,44,0.5,,,,,,,,,,,,,,,,,,,,,,,,,,,,,,,,,,,,,,,,,,,,,
,,,,,SPR24_098,19,F,2024-04-26_09h04.13.956,jersey_experiment_5_v0,2023.2.2,Win32,85.47008547,,,,,,,,,,,,,,,,171.4233,172.4661,172.4662,174.5164,return,0.3166,,6.901041667,0,41,41,55,1,FBP-PT-19.png,0.35,1.2,56,0.25,,,,,,,,,,,,,,,,,,,,,,,,,,,,,,,,,,,,,,,,,,,,,
,,,,,SPR24_098,19,F,2024-04-26_09h04.13.956,jersey_experiment_5_v0,2023.2.2,Win32,85.47008547,,,,,,,,,,,,,,,,174.5165,175.5602,175.5604,177.0896,return,0.3657,,67.1875,0,42,42,22,1,FBP-YG-18.png,0.4,1.2,23,0.25,,,,,,,,,,,,,,,,,,,,,,,,,,,,,,,,,,,,,,,,,,,,,
,,,,,SPR24_098,19,F,2024-04-26_09h04.13.956,jersey_experiment_5_v0,2023.2.2,Win32,85.47008547,,,,,,,,,,,,,,,,177.0897,178.1369,178.1371,179.4192,return,0.1966,,82.16145833,0,43,43,48,1,FBP-PT-17.png,0.43,1.2,49,0.25,,,,,,,,,,,,,,,,,,,,,,,,,,,,,,,,,,,,,,,,,,,,,
,,,,,SPR24_098,19,F,2024-04-26_09h04.13.956,jersey_experiment_5_v0,2023.2.2,Win32,85.47008547,,,,,,,,,,,,,,,,179.4194,180.7132,180.7134,181.8576,return,0.4471,,87.890625,0,44,44,3,1,FBP-OG-71.png,0.43,1.2,4,0.5,,,,,,,,,,,,,,,,,,,,,,,,,,,,,,,,,,,,,,,,,,,,,
,,,,,SPR24_098,19,F,2024-04-26_09h04.13.956,jersey_experiment_5_v0,2023.2.2,Win32,85.47008547,,,,,,,,,,,,,,,,181.8578,183.1604,183.1605,184.4361,return,0.508,,93.61979167,0,45,45,14,1,FBP-OG-91.png,0.45,1.2,15,0.5,,,,,,,,,,,,,,,,,,,,,,,,,,,,,,,,,,,,,,,,,,,,,
,,,,,SPR24_098,19,F,2024-04-26_09h04.13.956,jersey_experiment_5_v0,2023.2.2,Win32,85.47008547,,,,,,,,,,,,,,,,184.4362,185.4782,185.4784,187.0193,return,0.3477,,25.91145833,0,46,46,20,1,FBP-YG-18.png,0.35,1.2,21,0.25,,,,,,,,,,,,,,,,,,,,,,,,,,,,,,,,,,,,,,,,,,,,,
,,,,,SPR24_098,19,F,2024-04-26_09h04.13.956,jersey_experiment_5_v0,2023.2.2,Win32,85.47008547,,,,,,,,,,,,,,,,187.0195,188.0665,188.0668,189.6666,return,0.272,,66.66666667,0,47,47,23,1,FBP-YG-18.png,0.43,1.2,24,0.25,,,,,,,,,,,,,,,,,,,,,,,,,,,,,,,,,,,,,,,,,,,,,
,,,,,SPR24_098,19,F,2024-04-26_09h04.13.956,jersey_experiment_5_v0,2023.2.2,Win32,85.47008547,,,,,,,,,,,,,,,,189.6668,190.7136,190.7138,192.0702,return,0.2692,,81.77083333,0,48,48,53,1,FBP-PT-18.png,0.43,1.2,54,0.25,,,,,,,,,,,,,,,,,,,,,,,,,,,,,,,,,,,,,,,,,,,,,
,,,,,SPR24_098,19,F,2024-04-26_09h04.13.956,jersey_experiment_5_v0,2023.2.2,Win32,85.47008547,,,,,,,,,,,,,,,,192.0703,193.3643,193.3644,194.6712,return,0.3767,,5.598958333,0,49,49,35,1,FBP-RB-18.png,0.35,1.2,36,0.5,,,,,,,,,,,,,,,,,,,,,,,,,,,,,,,,,,,,,,,,,,,,,
,,,,,SPR24_098,19,F,2024-04-26_09h04.13.956,jersey_experiment_5_v0,2023.2.2,Win32,85.47008547,,,,,,,,,,,,,,,,194.6713,195.9728,195.973,198.0121,return,0.2585,,80.98958333,0,50,50,13,1,FBP-OG-91.png,0.43,1.2,14,0.5,,,,,,,,,,,,,,,,,,,,,,,,,,,,,,,,,,,,,,,,,,,,,
,,,,,SPR24_098,19,F,2024-04-26_09h04.13.956,jersey_experiment_5_v0,2023.2.2,Win32,85.47008547,,,,,,,,,,,,,,,,198.0124,199.3066,199.3068,200.3493,return,0.3111,,17.83854167,0,51,51,10,1,FBP-OG-91.png,0.35,1.2,11,0.5,,,,,,,,,,,,,,,,,,,,,,,,,,,,,,,,,,,,,,,,,,,,,
,,,,,SPR24_098,19,F,2024-04-26_09h04.13.956,jersey_experiment_5_v0,2023.2.2,Win32,85.47008547,,,,,,,,,,,,,,,,200.3495,201.3964,201.3965,203.0434,return,0.2703,,90.49479167,0,52,52,59,1,FBP-PT-19.png,0.45,1.2,60,0.25,,,,,,,,,,,,,,,,,,,,,,,,,,,,,,,,,,,,,,,,,,,,,
,,,,,SPR24_098,19,F,2024-04-26_09h04.13.956,jersey_experiment_5_v0,2023.2.2,Win32,85.47008547,,,,,,,,,,,,,,,,203.0435,204.3377,204.3379,205.6435,return,0.3259,,93.88020833,0,53,53,4,1,FBP-OG-71.png,0.45,1.2,5,0.5,,,,,,,,,,,,,,,,,,,,,,,,,,,,,,,,,,,,,,,,,,,,,
,,,,,SPR24_098,19,F,2024-04-26_09h04.13.956,jersey_experiment_5_v0,2023.2.2,Win32,85.47008547,,,,,,,,,,,,,,,,205.6436,206.6907,206.6909,208.0202,return,0.2489,,34.24479167,0,54,54,45,1,FBP-PT-17.png,0.35,1.2,46,0.25,,,,,,,,,,,,,,,,,,,,,,,,,,,,,,,,,,,,,,,,,,,,,
,,,,,SPR24_098,19,F,2024-04-26_09h04.13.956,jersey_experiment_5_v0,2023.2.2,Win32,85.47008547,,,,,,,,,,,,,,,,208.0203,209.3143,209.3145,211.0672,return,0.1838,,41.14583333,0,55,55,31,1,FBP-RB-17.png,0.37,1.2,32,0.5,,,,,,,,,,,,,,,,,,,,,,,,,,,,,,,,,,,,,,,,,,,,,
,,,,,SPR24_098,19,F,2024-04-26_09h04.13.956,jersey_experiment_5_v0,2023.2.2,Win32,85.47008547,,,,,,,,,,,,,,,,211.0673,212.3615,212.3616,213.4557,return,0.1909,,50.390625,0,56,56,37,1,FBP-RB-18.png,0.4,1.2,38,0.5,,,,,,,,,,,,,,,,,,,,,,,,,,,,,,,,,,,,,,,,,,,,,
,,,,,SPR24_098,19,F,2024-04-26_09h04.13.956,jersey_experiment_5_v0,2023.2.2,Win32,85.47008547,,,,,,,,,,,,,,,,213.4559,214.5071,214.5071,215.7733,return,0.2288,,66.92708333,0,57,57,54,1,FBP-PT-18.png,0.45,1.2,55,0.25,,,,,,,,,,,,,,,,,,,,,,,,,,,,,,,,,,,,,,,,,,,,,
,,,,,SPR24_098,19,F,2024-04-26_09h04.13.956,jersey_experiment_5_v0,2023.2.2,Win32,85.47008547,,,,,,,,,,,,,,,,215.7735,217.0675,217.0677,218.6557,return,0.1332,,28.515625,0,58,58,40,1,FBP-RB-19.png,0.35,1.2,41,0.5,,,,,,,,,,,,,,,,,,,,,,,,,,,,,,,,,,,,,,,,,,,,,
,,,,,SPR24_098,19,F,2024-04-26_09h04.13.956,jersey_experiment_5_v0,2023.2.2,Win32,85.47008547,,,,,,,,,,,,,,,,218.6559,219.9501,219.9502,221.6323,return,0.4138,,63.80208333,0,59,59,42,1,FBP-RB-19.png,0.4,1.2,43,0.5,,,,,,,,,,,,,,,,,,,,,,,,,,,,,,,,,,,,,,,,,,,,,
,,,,,SPR24_098,19,F,2024-04-26_09h04.13.956,jersey_experiment_5_v0,2023.2.2,Win32,85.47008547,,,,,,,,,,,,,,,,221.6341,222.6795,222.6796,223.7264,return,0.2509,,70.18229167,,,,,,FBP-PT-81.png,0.43,1.2,54,0.25,0,0,0,53,1,,,,,,,,,,,,,,,,,,,,,,,,,,,,,,,,,,,,,,,,
,,,,,SPR24_098,19,F,2024-04-26_09h04.13.956,jersey_experiment_5_v0,2023.2.2,Win32,85.47008547,,,,,,,,,,,,,,,,223.7267,224.7737,224.7738,226.6362,return,0.2698,,78.64583333,,,,,,FBP-PT-91.png,0.45,1.2,60,0.25,0,1,1,59,1,,,,,,,,,,,,,,,,,,,,,,,,,,,,,,,,,,,,,,,,
,,,,,SPR24_098,19,F,2024-04-26_09h04.13.956,jersey_experiment_5_v0,2023.2.2,Win32,85.47008547,,,,,,,,,,,,,,,,226.6363,227.6796,227.6797,228.9076,return,0.212,,27.60416667,,,,,,FBP-PT-71.png,0.35,1.2,46,0.25,0,2,2,45,1,,,,,,,,,,,,,,,,,,,,,,,,,,,,,,,,,,,,,,,,
,,,,,SPR24_098,19,F,2024-04-26_09h04.13.956,jersey_experiment_5_v0,2023.2.2,Win32,85.47008547,,,,,,,,,,,,,,,,228.9078,229.9503,229.9504,231.779,return,0.2593,,61.06770833,,,,,,FBP-YG-81.png,0.4,1.2,23,0.25,0,3,3,22,1,,,,,,,,,,,,,,,,,,,,,,,,,,,,,,,,,,,,,,,,
,,,,,SPR24_098,19,F,2024-04-26_09h04.13.956,jersey_experiment_5_v0,2023.2.2,Win32,85.47008547,,,,,,,,,,,,,,,,231.7791,233.0798,233.08,234.6681,return,0.1587,,16.66666667,,,,,,FBP-RB-91.png,0.37,1.2,42,0.5,0,4,4,41,1,,,,,,,,,,,,,,,,,,,,,,,,,,,,,,,,,,,,,,,,
,,,,,SPR24_098,19,F,2024-04-26_09h04.13.956,jersey_experiment_5_v0,2023.2.2,Win32,85.47008547,,,,,,,,,,,,,,,,234.6682,235.7152,235.7154,237.3975,return,0.1414,,12.5,,,,,,FBP-YG-81.png,0.37,1.2,22,0.25,0,5,5,21,1,,,,,,,,,,,,,,,,,,,,,,,,,,,,,,,,,,,,,,,,
,,,,,SPR24_098,19,F,2024-04-26_09h04.13.956,jersey_experiment_5_v0,2023.2.2,Win32,85.47008547,,,,,,,,,,,,,,,,237.3977,238.6966,238.6968,240.1742,return,0.1336,,49.34895833,,,,,,FBP-RB-81.png,0.37,1.2,37,0.5,0,6,6,36,1,,,,,,,,,,,,,,,,,,,,,,,,,,,,,,,,,,,,,,,,
,,,,,SPR24_098,19,F,2024-04-26_09h04.13.956,jersey_experiment_5_v0,2023.2.2,Win32,85.47008547,,,,,,,,,,,,,,,,240.1744,241.2213,241.2214,242.6964,return,0.2592,,83.46354167,,,,,,FBP-YG-91.png,0.43,1.2,29,0.25,0,7,7,28,1,,,,,,,,,,,,,,,,,,,,,,,,,,,,,,,,,,,,,,,,
,,,,,SPR24_098,19,F,2024-04-26_09h04.13.956,jersey_experiment_5_v0,2023.2.2,Win32,85.47008547,,,,,,,,,,,,,,,,242.6966,244.0011,244.0011,244.801,return,0.1519,,74.73958333,,,,,,FBP-OG-17.png,0.4,1.2,3,0.5,0,8,8,2,1,,,,,,,,,,,,,,,,,,,,,,,,,,,,,,,,,,,,,,,,
,,,,,SPR24_098,19,F,2024-04-26_09h04.13.956,jersey_experiment_5_v0,2023.2.2,Win32,85.47008547,,,,,,,,,,,,,,,,244.8012,246.1038,246.104,248.2033,return,0.4142,,49.609375,,,,,,FBP-OG-17.png,0.37,1.2,2,0.5,0,9,9,1,1,,,,,,,,,,,,,,,,,,,,,,,,,,,,,,,,,,,,,,,,
,,,,,SPR24_098,19,F,2024-04-26_09h04.13.956,jersey_experiment_5_v0,2023.2.2,Win32,85.47008547,,,,,,,,,,,,,,,,248.2034,249.5071,249.5073,250.5392,return,0.2558,,81.640625,,,,,,FBP-RB-71.png,0.45,1.2,35,0.5,0,10,10,34,1,,,,,,,,,,,,,,,,,,,,,,,,,,,,,,,,,,,,,,,,
,,,,,SPR24_098,19,F,2024-04-26_09h04.13.956,jersey_experiment_5_v0,2023.2.2,Win32,85.47008547,,,,,,,,,,,,,,,,250.5395,251.5862,251.5864,252.6687,return,0.1822,,85.02604167,,,,,,FBP-YG-81.png,0.45,1.2,25,0.25,0,11,11,24,1,,,,,,,,,,,,,,,,,,,,,,,,,,,,,,,,,,,,,,,,
,,,,,SPR24_098,19,F,2024-04-26_09h04.13.956,jersey_experiment_5_v0,2023.2.2,Win32,85.47008547,,,,,,,,,,,,,,,,252.6688,253.7158,253.716,254.8379,return,0.1779,,67.83854167,,,,,,FBP-YG-91.png,0.4,1.2,28,0.25,0,12,12,27,1,,,,,,,,,,,,,,,,,,,,,,,,,,,,,,,,,,,,,,,,
,,,,,SPR24_098,19,F,2024-04-26_09h04.13.956,jersey_experiment_5_v0,2023.2.2,Win32,85.47008547,,,,,,,,,,,,,,,,254.838,255.8806,255.8807,256.9793,return,0.1547,,75.78125,,,,,,FBP-PT-71.png,0.43,1.2,49,0.25,0,13,13,48,1,,,,,,,,,,,,,,,,,,,,,,,,,,,,,,,,,,,,,,,,
,,,,,SPR24_098,19,F,2024-04-26_09h04.13.956,jersey_experiment_5_v0,2023.2.2,Win32,85.47008547,,,,,,,,,,,,,,,,256.9794,258.2807,258.2809,259.4263,return,0.2247,,76.30208333,,,,,,FBP-RB-81.png,0.4,1.2,38,0.5,0,14,14,37,1,,,,,,,,,,,,,,,,,,,,,,,,,,,,,,,,,,,,,,,,
,,,,,SPR24_098,19,F,2024-04-26_09h04.13.956,jersey_experiment_5_v0,2023.2.2,Win32,85.47008547,,,,,,,,,,,,,,,,259.4264,260.7278,260.728,262.496,return,1.3757,,33.59375,,,,,,FBP-OG-17.png,0.35,1.2,1,0.5,0,15,15,0,1,,,,,,,,,,,,,,,,,,,,,,,,,,,,,,,,,,,,,,,,
,,,,,SPR24_098,19,F,2024-04-26_09h04.13.956,jersey_experiment_5_v0,2023.2.2,Win32,85.47008547,,,,,,,,,,,,,,,,262.4962,263.5395,263.5396,265.4608,return,0.3163,,84.50520833,,,,,,FBP-PT-71.png,0.45,1.2,50,0.25,0,16,16,49,1,,,,,,,,,,,,,,,,,,,,,,,,,,,,,,,,,,,,,,,,
,,,,,SPR24_098,19,F,2024-04-26_09h04.13.956,jersey_experiment_5_v0,2023.2.2,Win32,85.47008547,,,,,,,,,,,,,,,,265.461,266.5044,266.5046,267.9985,return,0.2051,,18.48958333,,,,,,FBP-YG-71.png,0.35,1.2,16,0.25,0,17,17,15,1,,,,,,,,,,,,,,,,,,,,,,,,,,,,,,,,,,,,,,,,
,,,,,SPR24_098,19,F,2024-04-26_09h04.13.956,jersey_experiment_5_v0,2023.2.2,Win32,85.47008547,,,,,,,,,,,,,,,,267.9988,269.2958,269.296,271.7198,return,0.7063,,74.08854167,,,,,,FBP-RB-81.png,0.43,1.2,39,0.5,0,18,18,38,1,,,,,,,,,,,,,,,,,,,,,,,,,,,,,,,,,,,,,,,,
,,,,,SPR24_098,19,F,2024-04-26_09h04.13.956,jersey_experiment_5_v0,2023.2.2,Win32,85.47008547,,,,,,,,,,,,,,,,271.7199,272.7679,272.768,276.4459,return,2.3,,35.41666667,,,,,,FBP-PT-71.png,0.4,1.2,48,0.25,0,19,19,47,1,,,,,,,,,,,,,,,,,,,,,,,,,,,,,,,,,,,,,,,,
,,,,,SPR24_098,19,F,2024-04-26_09h04.13.956,jersey_experiment_5_v0,2023.2.2,Win32,85.47008547,,,,,,,,,,,,,,,,276.446,277.7433,277.7434,278.5328,return,0.1069,,25.78125,,,,,,FBP-RB-81.png,0.35,1.2,36,0.5,0,20,20,35,1,,,,,,,,,,,,,,,,,,,,,,,,,,,,,,,,,,,,,,,,
,,,,,SPR24_098,19,F,2024-04-26_09h04.13.956,jersey_experiment_5_v0,2023.2.2,Win32,85.47008547,,,,,,,,,,,,,,,,278.5328,279.5755,279.5757,280.6696,return,0.1472,,83.203125,,,,,,FBP-YG-71.png,0.43,1.2,19,0.25,0,21,21,18,1,,,,,,,,,,,,,,,,,,,,,,,,,,,,,,,,,,,,,,,,
,,,,,SPR24_098,19,F,2024-04-26_09h04.13.956,jersey_experiment_5_v0,2023.2.2,Win32,85.47008547,,,,,,,,,,,,,,,,280.6698,281.7166,281.7169,283.0379,return,0.2358,,22.52604167,,,,,,FBP-YG-81.png,0.35,1.2,21,0.25,0,22,22,20,1,,,,,,,,,,,,,,,,,,,,,,,,,,,,,,,,,,,,,,,,
,,,,,SPR24_098,19,F,2024-04-26_09h04.13.956,jersey_experiment_5_v0,2023.2.2,Win32,85.47008547,,,,,,,,,,,,,,,,283.038,284.0813,284.0815,285.3905,return,0.1884,,98.30729167,,,,,,FBP-YG-91.png,0.45,1.2,30,0.25,0,23,23,29,1,,,,,,,,,,,,,,,,,,,,,,,,,,,,,,,,,,,,,,,,
,,,,,SPR24_098,19,F,2024-04-26_09h04.13.956,jersey_experiment_5_v0,2023.2.2,Win32,85.47008547,,,,,,,,,,,,,,,,285.3907,286.4388,286.4389,288.4966,return,0.1885,,87.5,,,,,,FBP-PT-91.png,0.4,1.2,58,0.25,0,24,24,57,1,,,,,,,,,,,,,,,,,,,,,,,,,,,,,,,,,,,,,,,,
,,,,,SPR24_098,19,F,2024-04-26_09h04.13.956,jersey_experiment_5_v0,2023.2.2,Win32,85.47008547,,,,,,,,,,,,,,,,288.4968,289.7993,289.7995,291.192,return,0.1883,,43.61979167,,,,,,FBP-OG-19.png,0.37,1.2,12,0.5,0,25,25,11,1,,,,,,,,,,,,,,,,,,,,,,,,,,,,,,,,,,,,,,,,
,,,,,SPR24_098,19,F,2024-04-26_09h04.13.956,jersey_experiment_5_v0,2023.2.2,Win32,85.47008547,,,,,,,,,,,,,,,,291.1921,292.2376,292.2377,293.3568,return,0.1413,,60.28645833,,,,,,FBP-PT-81.png,0.4,1.2,53,0.25,0,26,26,52,1,,,,,,,,,,,,,,,,,,,,,,,,,,,,,,,,,,,,,,,,
,,,,,SPR24_098,19,F,2024-04-26_09h04.13.956,jersey_experiment_5_v0,2023.2.2,Win32,85.47008547,,,,,,,,,,,,,,,,293.357,294.6614,294.6615,295.9171,return,0.1475,,82.16145833,,,,,,FBP-OG-17.png,0.45,1.2,5,0.5,0,27,27,4,1,,,,,,,,,,,,,,,,,,,,,,,,,,,,,,,,,,,,,,,,
,,,,,SPR24_098,19,F,2024-04-26_09h04.13.956,jersey_experiment_5_v0,2023.2.2,Win32,85.47008547,,,,,,,,,,,,,,,,295.9174,297.2113,297.2114,298.9644,return,0.1309,,59.24479167,,,,,,FBP-OG-18.png,0.4,1.2,8,0.5,0,28,28,7,1,,,,,,,,,,,,,,,,,,,,,,,,,,,,,,,,,,,,,,,,
,,,,,SPR24_098,19,F,2024-04-26_09h04.13.956,jersey_experiment_5_v0,2023.2.2,Win32,85.47008547,,,,,,,,,,,,,,,,298.9645,300.0113,300.0115,300.9339,return,0.1887,,59.24479167,,,,,,FBP-YG-91.png,0.37,1.2,27,0.25,0,29,29,26,1,,,,,,,,,,,,,,,,,,,,,,,,,,,,,,,,,,,,,,,,
,,,,,SPR24_098,19,F,2024-04-26_09h04.13.956,jersey_experiment_5_v0,2023.2.2,Win32,85.47008547,,,,,,,,,,,,,,,,300.934,301.9795,301.9797,303.156,return,0.1884,,70.3125,,,,,,FBP-YG-81.png,0.43,1.2,24,0.25,0,30,30,23,1,,,,,,,,,,,,,,,,,,,,,,,,,,,,,,,,,,,,,,,,
,,,,,SPR24_098,19,F,2024-04-26_09h04.13.956,jersey_experiment_5_v0,2023.2.2,Win32,85.47008547,,,,,,,,,,,,,,,,303.1561,304.4501,304.4502,305.5175,return,0.1575,,25.91145833,,,,,,FBP-OG-19.png,0.35,1.2,11,0.5,0,31,31,10,1,,,,,,,,,,,,,,,,,,,,,,,,,,,,,,,,,,,,,,,,
,,,,,SPR24_098,19,F,2024-04-26_09h04.13.956,jersey_experiment_5_v0,2023.2.2,Win32,85.47008547,,,,,,,,,,,,,,,,305.5178,306.5646,306.5648,307.6973,return,0.2924,,23.69791667,,,,,,FBP-YG-71.png,0.37,1.2,17,0.25,0,32,32,16,1,,,,,,,,,,,,,,,,,,,,,,,,,,,,,,,,,,,,,,,,
,,,,,SPR24_098,19,F,2024-04-26_09h04.13.956,jersey_experiment_5_v0,2023.2.2,Win32,85.47008547,,,,,,,,,,,,,,,,307.6976,308.7411,308.7413,310.0118,return,0.1829,,13.93229167,,,,,,FBP-PT-91.png,0.35,1.2,56,0.25,0,33,33,55,1,,,,,,,,,,,,,,,,,,,,,,,,,,,,,,,,,,,,,,,,
,,,,,SPR24_098,19,F,2024-04-26_09h04.13.956,jersey_experiment_5_v0,2023.2.2,Win32,85.47008547,,,,,,,,,,,,,,,,310.012,311.0589,311.059,312.2235,return,0.5557,,12.76041667,,,,,,FBP-PT-91.png,0.37,1.2,57,0.25,0,34,34,56,1,,,,,,,,,,,,,,,,,,,,,,,,,,,,,,,,,,,,,,,,
,,,,,SPR24_098,19,F,2024-04-26_09h04.13.956,jersey_experiment_5_v0,2023.2.2,Win32,85.47008547,,,,,,,,,,,,,,,,312.2237,313.2707,313.2709,314.659,return,0.1079,,23.4375,,,,,,FBP-PT-91.png,0.43,1.2,59,0.25,0,35,35,58,1,,,,,,,,,,,,,,,,,,,,,,,,,,,,,,,,,,,,,,,,
,,,,,SPR24_098,19,F,2024-04-26_09h04.13.956,jersey_experiment_5_v0,2023.2.2,Win32,85.47008547,,,,,,,,,,,,,,,,314.6592,315.9533,315.9534,316.8944,return,0.1452,,80.078125,,,,,,FBP-RB-71.png,0.43,1.2,34,0.5,0,36,36,33,1,,,,,,,,,,,,,,,,,,,,,,,,,,,,,,,,,,,,,,,,
,,,,,SPR24_098,19,F,2024-04-26_09h04.13.956,jersey_experiment_5_v0,2023.2.2,Win32,85.47008547,,,,,,,,,,,,,,,,316.8946,318.1886,318.1888,319.392,return,0.1518,,81.77083333,,,,,,FBP-RB-91.png,0.4,1.2,43,0.5,0,37,37,42,1,,,,,,,,,,,,,,,,,,,,,,,,,,,,,,,,,,,,,,,,
,,,,,SPR24_098,19,F,2024-04-26_09h04.13.956,jersey_experiment_5_v0,2023.2.2,Win32,85.47008547,,,,,,,,,,,,,,,,319.3921,320.6945,320.6947,322.0004,return,0.1189,,68.88020833,,,,,,FBP-OG-19.png,0.4,1.2,13,0.5,0,38,38,12,1,,,,,,,,,,,,,,,,,,,,,,,,,,,,,,,,,,,,,,,,
,,,,,SPR24_098,19,F,2024-04-26_09h04.13.956,jersey_experiment_5_v0,2023.2.2,Win32,85.47008547,,,,,,,,,,,,,,,,322.0007,323.2945,323.2947,324.4827,return,0.1523,,20.57291667,,,,,,FBP-RB-71.png,0.35,1.2,31,0.5,0,39,39,30,1,,,,,,,,,,,,,,,,,,,,,,,,,,,,,,,,,,,,,,,,
,,,,,SPR24_098,19,F,2024-04-26_09h04.13.956,jersey_experiment_5_v0,2023.2.2,Win32,85.47008547,,,,,,,,,,,,,,,,324.4831,325.777,325.7772,327.5097,return,1.1059,,39.71354167,,,,,,FBP-RB-71.png,0.4,1.2,33,0.5,0,40,40,32,1,,,,,,,,,,,,,,,,,,,,,,,,,,,,,,,,,,,,,,,,
,,,,,SPR24_098,19,F,2024-04-26_09h04.13.956,jersey_experiment_5_v0,2023.2.2,Win32,85.47008547,,,,,,,,,,,,,,,,327.51,328.8163,328.8164,329.9466,return,0.188,,77.86458333,,,,,,FBP-OG-19.png,0.45,1.2,15,0.5,0,41,41,14,1,,,,,,,,,,,,,,,,,,,,,,,,,,,,,,,,,,,,,,,,
,,,,,SPR24_098,19,F,2024-04-26_09h04.13.956,jersey_experiment_5_v0,2023.2.2,Win32,85.47008547,,,,,,,,,,,,,,,,329.9467,331.2478,331.248,332.263,return,0.1415,,83.59375,,,,,,FBP-RB-91.png,0.43,1.2,44,0.5,0,42,42,43,1,,,,,,,,,,,,,,,,,,,,,,,,,,,,,,,,,,,,,,,,
,,,,,SPR24_098,19,F,2024-04-26_09h04.13.956,jersey_experiment_5_v0,2023.2.2,Win32,85.47008547,,,,,,,,,,,,,,,,332.2631,333.3066,333.3068,334.5451,return,0.2119,,85.28645833,,,,,,FBP-YG-71.png,0.45,1.2,20,0.25,0,43,43,19,1,,,,,,,,,,,,,,,,,,,,,,,,,,,,,,,,,,,,,,,,
,,,,,SPR24_098,19,F,2024-04-26_09h04.13.956,jersey_experiment_5_v0,2023.2.2,Win32,85.47008547,,,,,,,,,,,,,,,,334.5452,335.5891,335.5892,336.7231,return,0.165,,33.07291667,,,,,,FBP-PT-71.png,0.37,1.2,47,0.25,0,44,44,46,1,,,,,,,,,,,,,,,,,,,,,,,,,,,,,,,,,,,,,,,,
,,,,,SPR24_098,19,F,2024-04-26_09h04.13.956,jersey_experiment_5_v0,2023.2.2,Win32,85.47008547,,,,,,,,,,,,,,,,336.7233,338.0245,338.0246,339.1701,return,0.1781,,82.421875,,,,,,FBP-OG-18.png,0.43,1.2,9,0.5,0,45,45,8,1,,,,,,,,,,,,,,,,,,,,,,,,,,,,,,,,,,,,,,,,
,,,,,SPR24_098,19,F,2024-04-26_09h04.13.956,jersey_experiment_5_v0,2023.2.2,Win32,85.47008547,,,,,,,,,,,,,,,,339.1703,340.2161,340.2162,341.6645,return,0.6958,,84.50520833,,,,,,FBP-YG-71.png,0.4,1.2,18,0.25,0,46,46,17,1,,,,,,,,,,,,,,,,,,,,,,,,,,,,,,,,,,,,,,,,
,,,,,SPR24_098,19,F,2024-04-26_09h04.13.956,jersey_experiment_5_v0,2023.2.2,Win32,85.47008547,,,,,,,,,,,,,,,,341.6646,342.7104,342.7105,344.3808,return,0.4002,,20.57291667,,,,,,FBP-PT-81.png,0.37,1.2,52,0.25,0,47,47,51,1,,,,,,,,,,,,,,,,,,,,,,,,,,,,,,,,,,,,,,,,
,,,,,SPR24_098,19,F,2024-04-26_09h04.13.956,jersey_experiment_5_v0,2023.2.2,Win32,85.47008547,,,,,,,,,,,,,,,,344.381,345.6879,345.688,347.0292,return,0.4133,,13.54166667,,,,,,FBP-RB-91.png,0.35,1.2,41,0.5,0,48,48,40,1,,,,,,,,,,,,,,,,,,,,,,,,,,,,,,,,,,,,,,,,
,,,,,SPR24_098,19,F,2024-04-26_09h04.13.956,jersey_experiment_5_v0,2023.2.2,Win32,85.47008547,,,,,,,,,,,,,,,,347.0295,348.3233,348.3234,349.7459,return,0.2933,,74.609375,,,,,,FBP-OG-17.png,0.43,1.2,4,0.5,0,49,49,3,1,,,,,,,,,,,,,,,,,,,,,,,,,,,,,,,,,,,,,,,,
,,,,,SPR24_098,19,F,2024-04-26_09h04.13.956,jersey_experiment_5_v0,2023.2.2,Win32,85.47008547,,,,,,,,,,,,,,,,349.746,351.0523,351.0524,351.9811,return,0.165,,26.953125,,,,,,FBP-RB-71.png,0.37,1.2,32,0.5,0,50,50,31,1,,,,,,,,,,,,,,,,,,,,,,,,,,,,,,,,,,,,,,,,
,,,,,SPR24_098,19,F,2024-04-26_09h04.13.956,jersey_experiment_5_v0,2023.2.2,Win32,85.47008547,,,,,,,,,,,,,,,,351.9813,353.2882,353.2883,354.272,return,0.2622,,88.671875,,,,,,FBP-RB-91.png,0.45,1.2,45,0.5,0,51,51,44,1,,,,,,,,,,,,,,,,,,,,,,,,,,,,,,,,,,,,,,,,
,,,,,SPR24_098,19,F,2024-04-26_09h04.13.956,jersey_experiment_5_v0,2023.2.2,Win32,85.47008547,,,,,,,,,,,,,,,,354.2722,355.5662,355.5664,356.5073,return,0.2067,,94.40104167,,,,,,FBP-OG-18.png,0.45,1.2,10,0.5,0,52,52,9,1,,,,,,,,,,,,,,,,,,,,,,,,,,,,,,,,,,,,,,,,
,,,,,SPR24_098,19,F,2024-04-26_09h04.13.956,jersey_experiment_5_v0,2023.2.2,Win32,85.47008547,,,,,,,,,,,,,,,,356.5075,357.8062,357.8063,358.9461,return,0.1755,,24.47916667,,,,,,FBP-OG-18.png,0.37,1.2,7,0.5,0,53,53,6,1,,,,,,,,,,,,,,,,,,,,,,,,,,,,,,,,,,,,,,,,
,,,,,SPR24_098,19,F,2024-04-26_09h04.13.956,jersey_experiment_5_v0,2023.2.2,Win32,85.47008547,,,,,,,,,,,,,,,,358.9462,359.9898,359.9901,361.3311,return,0.1997,,82.8125,,,,,,FBP-PT-81.png,0.45,1.2,55,0.25,0,54,54,54,1,,,,,,,,,,,,,,,,,,,,,,,,,,,,,,,,,,,,,,,,
,,,,,SPR24_098,19,F,2024-04-26_09h04.13.956,jersey_experiment_5_v0,2023.2.2,Win32,85.47008547,,,,,,,,,,,,,,,,361.3313,362.6291,362.6293,363.4641,return,0.1521,,90.49479167,,,,,,FBP-RB-81.png,0.45,1.2,40,0.5,0,55,55,39,1,,,,,,,,,,,,,,,,,,,,,,,,,,,,,,,,,,,,,,,,
,,,,,SPR24_098,19,F,2024-04-26_09h04.13.956,jersey_experiment_5_v0,2023.2.2,Win32,85.47008547,,,,,,,,,,,,,,,,363.4642,364.5076,364.5078,365.8768,return,0.295,,26.04166667,,,,,,FBP-PT-81.png,0.35,1.2,51,0.25,0,56,56,50,1,,,,,,,,,,,,,,,,,,,,,,,,,,,,,,,,,,,,,,,,
,,,,,SPR24_098,19,F,2024-04-26_09h04.13.956,jersey_experiment_5_v0,2023.2.2,Win32,85.47008547,,,,,,,,,,,,,,,,365.877,367.1713,367.1715,368.4138,return,0.1575,,6.901041667,,,,,,FBP-OG-18.png,0.35,1.2,6,0.5,0,57,57,5,1,,,,,,,,,,,,,,,,,,,,,,,,,,,,,,,,,,,,,,,,
,,,,,SPR24_098,19,F,2024-04-26_09h04.13.956,jersey_experiment_5_v0,2023.2.2,Win32,85.47008547,,,,,,,,,,,,,,,,368.414,369.7121,369.7123,371.0537,return,0.165,,51.953125,,,,,,FBP-OG-19.png,0.43,1.2,14,0.5,0,58,58,13,1,,,,,,,,,,,,,,,,,,,,,,,,,,,,,,,,,,,,,,,,
,,,,,SPR24_098,19,F,2024-04-26_09h04.13.956,jersey_experiment_5_v0,2023.2.2,Win32,85.47008547,,,,,,,,,,,,,,,,371.0539,372.0961,372.0962,372.9603,return,0.1075,,33.984375,,,,,,FBP-YG-91.png,0.35,1.2,26,0.25,0,59,59,25,1,,,,,,,,,,,,,,,,,,,,,,,,,,,,,,,,,,,,,,,,
,,,,,SPR24_098,19,F,2024-04-26_09h04.13.956,jersey_experiment_5_v0,2023.2.2,Win32,85.47008547,,,,,,,,,,,,,,,,,,,,,,,,,,,,,,,,,,,,,,,372.9608,492.9595,,,,,,,,,,,,,,,,,,,,,,,,,,,,,,,,,,,,,,
,,,,,SPR24_098,19,F,2024-04-26_09h04.13.956,jersey_experiment_5_v0,2023.2.2,Win32,85.47008547,,,,,,,,,,,,,,,,,,,,,,,,,,,,,,,,,,,,,,,,,492.9595,496.0768,return,3.1004,,,,,,,,,,,,,,,,,,,,,,,,,,,,,,,,,,
,,,,,SPR24_098,19,F,2024-04-26_09h04.13.956,jersey_experiment_5_v0,2023.2.2,Win32,85.47008547,,,,,,,,,,,,,,,,496.0827,497.3745,497.3747,499.4682,return,0.8939,,52.21354167,,,,,,FBP-PT-18.png,0.43,1.2,54,0.5,,,,,,,,,,,,,0,0,0,53,1,,,,,,,,,,,,,,,,,,,,,,,,,,,,
,,,,,SPR24_098,19,F,2024-04-26_09h04.13.956,jersey_experiment_5_v0,2023.2.2,Win32,85.47008547,,,,,,,,,,,,,,,,499.4685,500.7624,500.7625,501.6704,return,0.2022,,48.17708333,,,,,,FBP-PT-19.png,0.43,1.2,59,0.5,,,,,,,,,,,,,0,1,1,58,1,,,,,,,,,,,,,,,,,,,,,,,,,,,,
,,,,,SPR24_098,19,F,2024-04-26_09h04.13.956,jersey_experiment_5_v0,2023.2.2,Win32,85.47008547,,,,,,,,,,,,,,,,501.6705,502.9745,502.9747,504.2889,return,0.1087,,57.16145833,,,,,,FBP-YG-19.png,0.43,1.2,29,0.5,,,,,,,,,,,,,0,2,2,28,1,,,,,,,,,,,,,,,,,,,,,,,,,,,,
,,,,,SPR24_098,19,F,2024-04-26_09h04.13.956,jersey_experiment_5_v0,2023.2.2,Win32,85.47008547,,,,,,,,,,,,,,,,504.2891,505.336,505.3362,506.3947,return,0.1831,,33.984375,,,,,,FBP-RB-19.png,0.35,1.2,41,0.25,,,,,,,,,,,,,0,3,3,40,1,,,,,,,,,,,,,,,,,,,,,,,,,,,,
,,,,,SPR24_098,19,F,2024-04-26_09h04.13.956,jersey_experiment_5_v0,2023.2.2,Win32,85.47008547,,,,,,,,,,,,,,,,506.3949,507.689,507.6892,508.9984,return,0.1287,,68.61979167,,,,,,FBP-YG-18.png,0.43,1.2,24,0.5,,,,,,,,,,,,,0,4,4,23,1,,,,,,,,,,,,,,,,,,,,,,,,,,,,
,,,,,SPR24_098,19,F,2024-04-26_09h04.13.956,jersey_experiment_5_v0,2023.2.2,Win32,85.47008547,,,,,,,,,,,,,,,,508.9985,510.2924,510.2925,511.3405,return,0.1073,,29.81770833,,,,,,FBP-PT-17.png,0.37,1.2,47,0.5,,,,,,,,,,,,,0,5,5,46,1,,,,,,,,,,,,,,,,,,,,,,,,,,,,
,,,,,SPR24_098,19,F,2024-04-26_09h04.13.956,jersey_experiment_5_v0,2023.2.2,Win32,85.47008547,,,,,,,,,,,,,,,,511.3407,512.6346,512.6347,513.4454,return,0.118,,17.578125,,,,,,FBP-PT-17.png,0.35,1.2,46,0.5,,,,,,,,,,,,,0,6,6,45,1,,,,,,,,,,,,,,,,,,,,,,,,,,,,
,,,,,SPR24_098,19,F,2024-04-26_09h04.13.956,jersey_experiment_5_v0,2023.2.2,Win32,85.47008547,,,,,,,,,,,,,,,,513.4456,514.7526,514.7528,515.5998,return,0.0711,,78.125,,,,,,FBP-YG-19.png,0.45,1.2,30,0.5,,,,,,,,,,,,,0,7,7,29,1,,,,,,,,,,,,,,,,,,,,,,,,,,,,
,,,,,SPR24_098,19,F,2024-04-26_09h04.13.956,jersey_experiment_5_v0,2023.2.2,Win32,85.47008547,,,,,,,,,,,,,,,,515.6,516.6422,516.6425,517.7245,return,0.099,,35.9375,,,,,,FBP-RB-19.png,0.37,1.2,42,0.25,,,,,,,,,,,,,0,8,8,41,1,,,,,,,,,,,,,,,,,,,,,,,,,,,,
,,,,,SPR24_098,19,F,2024-04-26_09h04.13.956,jersey_experiment_5_v0,2023.2.2,Win32,85.47008547,,,,,,,,,,,,,,,,517.7247,518.7761,518.7763,519.9952,return,0.1492,,32.94270833,,,,,,FBP-RB-17.png,0.37,1.2,32,0.25,,,,,,,,,,,,,0,9,9,31,1,,,,,,,,,,,,,,,,,,,,,,,,,,,,
,,,,,SPR24_098,19,F,2024-04-26_09h04.13.956,jersey_experiment_5_v0,2023.2.2,Win32,85.47008547,,,,,,,,,,,,,,,,519.9955,521.0456,521.0457,522.1282,return,0.1177,,51.43229167,,,,,,FBP-OG-91.png,0.4,1.2,13,0.25,,,,,,,,,,,,,0,10,10,12,1,,,,,,,,,,,,,,,,,,,,,,,,,,,,
,,,,,SPR24_098,19,F,2024-04-26_09h04.13.956,jersey_experiment_5_v0,2023.2.2,Win32,85.47008547,,,,,,,,,,,,,,,,522.1284,523.4222,523.4223,524.2822,return,0.1179,,90.36458333,,,,,,FBP-PT-18.png,0.45,1.2,55,0.5,,,,,,,,,,,,,0,11,11,54,1,,,,,,,,,,,,,,,,,,,,,,,,,,,,
,,,,,SPR24_098,19,F,2024-04-26_09h04.13.956,jersey_experiment_5_v0,2023.2.2,Win32,85.47008547,,,,,,,,,,,,,,,,524.2824,525.325,525.3251,526.1044,return,0.1647,,84.89583333,,,,,,FBP-RB-18.png,0.43,1.2,39,0.25,,,,,,,,,,,,,0,12,12,38,1,,,,,,,,,,,,,,,,,,,,,,,,,,,,
,,,,,SPR24_098,19,F,2024-04-26_09h04.13.956,jersey_experiment_5_v0,2023.2.2,Win32,85.47008547,,,,,,,,,,,,,,,,526.1046,527.3987,527.3989,528.4236,return,0.1545,,39.58333333,,,,,,FBP-YG-19.png,0.37,1.2,27,0.5,,,,,,,,,,,,,0,13,13,26,1,,,,,,,,,,,,,,,,,,,,,,,,,,,,
,,,,,SPR24_098,19,F,2024-04-26_09h04.13.956,jersey_experiment_5_v0,2023.2.2,Win32,85.47008547,,,,,,,,,,,,,,,,528.4237,529.4662,529.4664,530.2931,return,0.0579,,57.29166667,,,,,,FBP-RB-18.png,0.4,1.2,38,0.25,,,,,,,,,,,,,0,14,14,37,1,,,,,,,,,,,,,,,,,,,,,,,,,,,,
,,,,,SPR24_098,19,F,2024-04-26_09h04.13.956,jersey_experiment_5_v0,2023.2.2,Win32,85.47008547,,,,,,,,,,,,,,,,530.2934,531.3412,531.3414,532.2192,return,0.0902,,29.16666667,,,,,,FBP-RB-18.png,0.35,1.2,36,0.25,,,,,,,,,,,,,0,15,15,35,1,,,,,,,,,,,,,,,,,,,,,,,,,,,,
,,,,,SPR24_098,19,F,2024-04-26_09h04.13.956,jersey_experiment_5_v0,2023.2.2,Win32,85.47008547,,,,,,,,,,,,,,,,532.2195,533.2663,533.2665,534.4109,return,0.0556,,34.24479167,,,,,,FBP-OG-71.png,0.37,1.2,2,0.25,,,,,,,,,,,,,0,16,16,1,1,,,,,,,,,,,,,,,,,,,,,,,,,,,,
,,,,,SPR24_098,19,F,2024-04-26_09h04.13.956,jersey_experiment_5_v0,2023.2.2,Win32,85.47008547,,,,,,,,,,,,,,,,534.4111,535.459,535.4591,536.384,return,0.1098,,80.72916667,,,,,,FBP-OG-91.png,0.45,1.2,15,0.25,,,,,,,,,,,,,0,17,17,14,1,,,,,,,,,,,,,,,,,,,,,,,,,,,,
,,,,,SPR24_098,19,F,2024-04-26_09h04.13.956,jersey_experiment_5_v0,2023.2.2,Win32,85.47008547,,,,,,,,,,,,,,,,536.3843,537.4363,537.4364,538.2195,return,0.0901,,82.55208333,,,,,,FBP-OG-81.png,0.43,1.2,9,0.25,,,,,,,,,,,,,0,18,18,8,1,,,,,,,,,,,,,,,,,,,,,,,,,,,,
,,,,,SPR24_098,19,F,2024-04-26_09h04.13.956,jersey_experiment_5_v0,2023.2.2,Win32,85.47008547,,,,,,,,,,,,,,,,538.2197,539.5171,539.5173,541.0123,return,1.0355,,80.20833333,,,,,,FBP-PT-17.png,0.43,1.2,49,0.5,,,,,,,,,,,,,0,19,19,48,1,,,,,,,,,,,,,,,,,,,,,,,,,,,,
,,,,,SPR24_098,19,F,2024-04-26_09h04.13.956,jersey_experiment_5_v0,2023.2.2,Win32,85.47008547,,,,,,,,,,,,,,,,541.0124,542.317,542.317,543.2712,return,0.084,,22.78645833,,,,,,FBP-YG-18.png,0.37,1.2,22,0.5,,,,,,,,,,,,,0,20,20,21,1,,,,,,,,,,,,,,,,,,,,,,,,,,,,
,,,,,SPR24_098,19,F,2024-04-26_09h04.13.956,jersey_experiment_5_v0,2023.2.2,Win32,85.47008547,,,,,,,,,,,,,,,,543.2714,544.5757,544.5759,545.2113,return,0.0945,,28.125,,,,,,FBP-PT-19.png,0.37,1.2,57,0.5,,,,,,,,,,,,,0,21,21,56,1,,,,,,,,,,,,,,,,,,,,,,,,,,,,
,,,,,SPR24_098,19,F,2024-04-26_09h04.13.956,jersey_experiment_5_v0,2023.2.2,Win32,85.47008547,,,,,,,,,,,,,,,,545.2114,546.5179,546.5182,547.361,return,0.0492,,57.16145833,,,,,,FBP-YG-17.png,0.4,1.2,18,0.5,,,,,,,,,,,,,0,22,22,17,1,,,,,,,,,,,,,,,,,,,,,,,,,,,,
,,,,,SPR24_098,19,F,2024-04-26_09h04.13.956,jersey_experiment_5_v0,2023.2.2,Win32,85.47008547,,,,,,,,,,,,,,,,547.3612,548.6551,548.6553,549.235,return,0.0946,,61.19791667,,,,,,FBP-YG-19.png,0.4,1.2,28,0.5,,,,,,,,,,,,,0,23,23,27,1,,,,,,,,,,,,,,,,,,,,,,,,,,,,
,,,,,SPR24_098,19,F,2024-04-26_09h04.13.956,jersey_experiment_5_v0,2023.2.2,Win32,85.47008547,,,,,,,,,,,,,,,,549.2351,550.283,550.2831,551.0199,return,0.0896,,71.484375,,,,,,FBP-RB-17.png,0.43,1.2,34,0.25,,,,,,,,,,,,,0,24,24,33,1,,,,,,,,,,,,,,,,,,,,,,,,,,,,
,,,,,SPR24_098,19,F,2024-04-26_09h04.13.956,jersey_experiment_5_v0,2023.2.2,Win32,85.47008547,,,,,,,,,,,,,,,,551.0201,552.0715,552.0716,552.7646,return,0.0712,,81.51041667,,,,,,FBP-RB-17.png,0.45,1.2,35,0.25,,,,,,,,,,,,,0,25,25,34,1,,,,,,,,,,,,,,,,,,,,,,,,,,,,
,,,,,SPR24_098,19,F,2024-04-26_09h04.13.956,jersey_experiment_5_v0,2023.2.2,Win32,85.47008547,,,,,,,,,,,,,,,,552.7647,553.808,553.8083,554.835,return,0.2695,,82.8125,,,,,,FBP-RB-19.png,0.4,1.2,43,0.25,,,,,,,,,,,,,0,26,26,42,1,,,,,,,,,,,,,,,,,,,,,,,,,,,,
,,,,,SPR24_098,19,F,2024-04-26_09h04.13.956,jersey_experiment_5_v0,2023.2.2,Win32,85.47008547,,,,,,,,,,,,,,,,554.8353,556.1376,556.1377,557.0834,return,0.024,,66.53645833,,,,,,FBP-YG-18.png,0.4,1.2,23,0.5,,,,,,,,,,,,,0,27,27,22,1,,,,,,,,,,,,,,,,,,,,,,,,,,,,
,,,,,SPR24_098,19,F,2024-04-26_09h04.13.956,jersey_experiment_5_v0,2023.2.2,Win32,85.47008547,,,,,,,,,,,,,,,,557.0837,558.126,558.1263,560.2203,return,0.9836,,35.28645833,,,,,,FBP-OG-91.png,0.35,1.2,11,0.25,,,,,,,,,,,,,0,28,28,10,1,,,,,,,,,,,,,,,,,,,,,,,,,,,,
,,,,,SPR24_098,19,F,2024-04-26_09h04.13.956,jersey_experiment_5_v0,2023.2.2,Win32,85.47008547,,,,,,,,,,,,,,,,560.2204,561.2672,561.2674,562.1659,return,0.0603,,28.25520833,,,,,,FBP-RB-17.png,0.35,1.2,31,0.25,,,,,,,,,,,,,0,29,29,30,1,,,,,,,,,,,,,,,,,,,,,,,,,,,,
,,,,,SPR24_098,19,F,2024-04-26_09h04.13.956,jersey_experiment_5_v0,2023.2.2,Win32,85.47008547,,,,,,,,,,,,,,,,562.166,563.4613,563.4614,564.0485,return,0.0839,,77.34375,,,,,,FBP-PT-19.png,0.45,1.2,60,0.5,,,,,,,,,,,,,0,30,30,59,1,,,,,,,,,,,,,,,,,,,,,,,,,,,,
,,,,,SPR24_098,19,F,2024-04-26_09h04.13.956,jersey_experiment_5_v0,2023.2.2,Win32,85.47008547,,,,,,,,,,,,,,,,564.0485,565.091,565.0912,565.7498,return,0.0479,,78.38541667,,,,,,FBP-RB-17.png,0.4,1.2,33,0.25,,,,,,,,,,,,,0,31,31,32,1,,,,,,,,,,,,,,,,,,,,,,,,,,,,
,,,,,SPR24_098,19,F,2024-04-26_09h04.13.956,jersey_experiment_5_v0,2023.2.2,Win32,85.47008547,,,,,,,,,,,,,,,,565.75,566.8007,566.8009,568.0826,return,0.0944,,88.93229167,,,,,,FBP-RB-19.png,0.45,1.2,45,0.25,,,,,,,,,,,,,0,32,32,44,1,,,,,,,,,,,,,,,,,,,,,,,,,,,,
,,,,,SPR24_098,19,F,2024-04-26_09h04.13.956,jersey_experiment_5_v0,2023.2.2,Win32,85.47008547,,,,,,,,,,,,,,,,568.0828,569.1307,569.1309,569.8206,return,0.1123,,89.84375,,,,,,FBP-OG-91.png,0.43,1.2,14,0.25,,,,,,,,,,,,,0,33,33,13,1,,,,,,,,,,,,,,,,,,,,,,,,,,,,
,,,,,SPR24_098,19,F,2024-04-26_09h04.13.956,jersey_experiment_5_v0,2023.2.2,Win32,85.47008547,,,,,,,,,,,,,,,,569.8208,571.1178,571.1179,572.2911,return,0.0471,,20.57291667,,,,,,FBP-PT-18.png,0.37,1.2,52,0.5,,,,,,,,,,,,,0,34,34,51,1,,,,,,,,,,,,,,,,,,,,,,,,,,,,
,,,,,SPR24_098,19,F,2024-04-26_09h04.13.956,jersey_experiment_5_v0,2023.2.2,Win32,85.47008547,,,,,,,,,,,,,,,,572.2913,573.5889,573.5891,574.6007,return,0.1182,,6.510416667,,,,,,FBP-PT-19.png,0.35,1.2,56,0.5,,,,,,,,,,,,,0,35,35,55,1,,,,,,,,,,,,,,,,,,,,,,,,,,,,
,,,,,SPR24_098,19,F,2024-04-26_09h04.13.956,jersey_experiment_5_v0,2023.2.2,Win32,85.47008547,,,,,,,,,,,,,,,,574.6008,575.8946,575.8947,576.8253,return,0.2252,,12.63020833,,,,,,FBP-PT-18.png,0.4,1.2,53,0.5,,,,,,,,,,,,,0,36,36,52,1,,,,,,,,,,,,,,,,,,,,,,,,,,,,
,,,,,SPR24_098,19,F,2024-04-26_09h04.13.956,jersey_experiment_5_v0,2023.2.2,Win32,85.47008547,,,,,,,,,,,,,,,,576.8254,577.8677,577.8679,578.9429,return,0.0708,,76.82291667,,,,,,FBP-RB-18.png,0.45,1.2,40,0.25,,,,,,,,,,,,,0,37,37,39,1,,,,,,,,,,,,,,,,,,,,,,,,,,,,
,,,,,SPR24_098,19,F,2024-04-26_09h04.13.956,jersey_experiment_5_v0,2023.2.2,Win32,85.47008547,,,,,,,,,,,,,,,,578.9431,580.2367,580.2369,581.155,return,0.024,,34.375,,,,,,FBP-PT-17.png,0.4,1.2,48,0.5,,,,,,,,,,,,,0,38,38,47,1,,,,,,,,,,,,,,,,,,,,,,,,,,,,
,,,,,SPR24_098,19,F,2024-04-26_09h04.13.956,jersey_experiment_5_v0,2023.2.2,Win32,85.47008547,,,,,,,,,,,,,,,,581.1552,582.4596,582.4597,583.2597,return,0.0946,,22.65625,,,,,,FBP-YG-18.png,0.35,1.2,21,0.5,,,,,,,,,,,,,0,39,39,20,1,,,,,,,,,,,,,,,,,,,,,,,,,,,,
,,,,,SPR24_098,19,F,2024-04-26_09h04.13.956,jersey_experiment_5_v0,2023.2.2,Win32,85.47008547,,,,,,,,,,,,,,,,583.2599,584.3033,584.3035,586.7034,return,0.8145,,37.76041667,,,,,,FBP-OG-71.png,0.4,1.2,3,0.25,,,,,,,,,,,,,0,40,40,2,1,,,,,,,,,,,,,,,,,,,,,,,,,,,,
,,,,,SPR24_098,19,F,2024-04-26_09h04.13.956,jersey_experiment_5_v0,2023.2.2,Win32,85.47008547,,,,,,,,,,,,,,,,586.7035,587.7506,587.7508,588.9433,return,0.0599,,44.140625,,,,,,FBP-OG-81.png,0.37,1.2,7,0.25,,,,,,,,,,,,,0,41,41,6,1,,,,,,,,,,,,,,,,,,,,,,,,,,,,
,,,,,SPR24_098,19,F,2024-04-26_09h04.13.956,jersey_experiment_5_v0,2023.2.2,Win32,85.47008547,,,,,,,,,,,,,,,,588.9435,590.2375,590.2377,590.9669,return,0.178,,34.11458333,,,,,,FBP-PT-18.png,0.35,1.2,51,0.5,,,,,,,,,,,,,0,42,42,50,1,,,,,,,,,,,,,,,,,,,,,,,,,,,,
,,,,,SPR24_098,19,F,2024-04-26_09h04.13.956,jersey_experiment_5_v0,2023.2.2,Win32,85.47008547,,,,,,,,,,,,,,,,590.9671,592.2613,592.2614,593.539,return,0.6827,,75.390625,,,,,,FBP-YG-18.png,0.45,1.2,25,0.5,,,,,,,,,,,,,0,43,43,24,1,,,,,,,,,,,,,,,,,,,,,,,,,,,,
,,,,,SPR24_098,19,F,2024-04-26_09h04.13.956,jersey_experiment_5_v0,2023.2.2,Win32,85.47008547,,,,,,,,,,,,,,,,593.5392,594.5905,594.5905,595.939,return,0.3055,,68.75,,,,,,FBP-OG-81.png,0.4,1.2,8,0.25,,,,,,,,,,,,,0,44,44,7,1,,,,,,,,,,,,,,,,,,,,,,,,,,,,
,,,,,SPR24_098,19,F,2024-04-26_09h04.13.956,jersey_experiment_5_v0,2023.2.2,Win32,85.47008547,,,,,,,,,,,,,,,,595.9392,596.9861,596.9863,597.8921,return,0.1185,,81.38020833,,,,,,FBP-OG-71.png,0.43,1.2,4,0.25,,,,,,,,,,,,,0,45,45,3,1,,,,,,,,,,,,,,,,,,,,,,,,,,,,
,,,,,SPR24_098,19,F,2024-04-26_09h04.13.956,jersey_experiment_5_v0,2023.2.2,Win32,85.47008547,,,,,,,,,,,,,,,,597.8923,598.9392,598.9392,599.8848,return,0.1883,,94.79166667,,,,,,FBP-OG-81.png,0.45,1.2,10,0.25,,,,,,,,,,,,,0,46,46,9,1,,,,,,,,,,,,,,,,,,,,,,,,,,,,
,,,,,SPR24_098,19,F,2024-04-26_09h04.13.956,jersey_experiment_5_v0,2023.2.2,Win32,85.47008547,,,,,,,,,,,,,,,,599.8849,601.1791,601.1792,602.2488,return,0.1275,,36.71875,,,,,,FBP-YG-17.png,0.37,1.2,17,0.5,,,,,,,,,,,,,0,47,47,16,1,,,,,,,,,,,,,,,,,,,,,,,,,,,,
,,,,,SPR24_098,19,F,2024-04-26_09h04.13.956,jersey_experiment_5_v0,2023.2.2,Win32,85.47008547,,,,,,,,,,,,,,,,602.2489,603.2921,603.2924,604.6569,return,0.1066,,22.39583333,,,,,,FBP-OG-81.png,0.35,1.2,6,0.25,,,,,,,,,,,,,0,48,48,5,1,,,,,,,,,,,,,,,,,,,,,,,,,,,,
,,,,,SPR24_098,19,F,2024-04-26_09h04.13.956,jersey_experiment_5_v0,2023.2.2,Win32,85.47008547,,,,,,,,,,,,,,,,604.6571,605.7041,605.7043,606.8734,return,0.1884,,78.515625,,,,,,FBP-OG-71.png,0.45,1.2,5,0.25,,,,,,,,,,,,,0,49,49,4,1,,,,,,,,,,,,,,,,,,,,,,,,,,,,
,,,,,SPR24_098,19,F,2024-04-26_09h04.13.956,jersey_experiment_5_v0,2023.2.2,Win32,85.47008547,,,,,,,,,,,,,,,,606.8734,607.9159,607.916,609.1042,return,0.167,,14.97395833,,,,,,FBP-OG-71.png,0.35,1.2,1,0.25,,,,,,,,,,,,,0,50,50,0,1,,,,,,,,,,,,,,,,,,,,,,,,,,,,
,,,,,SPR24_098,19,F,2024-04-26_09h04.13.956,jersey_experiment_5_v0,2023.2.2,Win32,85.47008547,,,,,,,,,,,,,,,,609.1044,610.1513,610.1515,611.2337,return,0.1416,,79.42708333,,,,,,FBP-RB-19.png,0.43,1.2,44,0.25,,,,,,,,,,,,,0,51,51,43,1,,,,,,,,,,,,,,,,,,,,,,,,,,,,
,,,,,SPR24_098,19,F,2024-04-26_09h04.13.956,jersey_experiment_5_v0,2023.2.2,Win32,85.47008547,,,,,,,,,,,,,,,,611.2338,612.2808,612.2808,613.2925,return,0.1005,,31.11979167,,,,,,FBP-OG-91.png,0.37,1.2,12,0.25,,,,,,,,,,,,,0,52,52,11,1,,,,,,,,,,,,,,,,,,,,,,,,,,,,
,,,,,SPR24_098,19,F,2024-04-26_09h04.13.956,jersey_experiment_5_v0,2023.2.2,Win32,85.47008547,,,,,,,,,,,,,,,,613.2926,614.3396,614.3397,616.4733,return,1.307,,15.49479167,,,,,,FBP-RB-18.png,0.37,1.2,37,0.25,,,,,,,,,,,,,0,53,53,36,1,,,,,,,,,,,,,,,,,,,,,,,,,,,,
,,,,,SPR24_098,19,F,2024-04-26_09h04.13.956,jersey_experiment_5_v0,2023.2.2,Win32,85.47008547,,,,,,,,,,,,,,,,616.4735,617.7678,617.768,618.6693,return,0.1115,,5.46875,,,,,,FBP-YG-19.png,0.35,1.2,26,0.5,,,,,,,,,,,,,0,54,54,25,1,,,,,,,,,,,,,,,,,,,,,,,,,,,,
,,,,,SPR24_098,19,F,2024-04-26_09h04.13.956,jersey_experiment_5_v0,2023.2.2,Win32,85.47008547,,,,,,,,,,,,,,,,618.6694,619.9665,619.9667,621.8492,return,0.8579,,83.984375,,,,,,FBP-PT-17.png,0.45,1.2,50,0.5,,,,,,,,,,,,,0,55,55,49,1,,,,,,,,,,,,,,,,,,,,,,,,,,,,
,,,,,SPR24_098,19,F,2024-04-26_09h04.13.956,jersey_experiment_5_v0,2023.2.2,Win32,85.47008547,,,,,,,,,,,,,,,,621.8494,623.1561,623.1563,624.2929,return,0.1312,,40.36458333,,,,,,FBP-YG-17.png,0.35,1.2,16,0.5,,,,,,,,,,,,,0,56,56,15,1,,,,,,,,,,,,,,,,,,,,,,,,,,,,
,,,,,SPR24_098,19,F,2024-04-26_09h04.13.956,jersey_experiment_5_v0,2023.2.2,Win32,85.47008547,,,,,,,,,,,,,,,,624.2932,625.5901,625.5903,626.5552,return,0.2355,,81.77083333,,,,,,FBP-YG-17.png,0.43,1.2,19,0.5,,,,,,,,,,,,,0,57,57,18,1,,,,,,,,,,,,,,,,,,,,,,,,,,,,
,,,,,SPR24_098,19,F,2024-04-26_09h04.13.956,jersey_experiment_5_v0,2023.2.2,Win32,85.47008547,,,,,,,,,,,,,,,,626.5553,627.8491,627.8492,628.8272,return,0.1546,,87.63020833,,,,,,FBP-YG-17.png,0.45,1.2,20,0.5,,,,,,,,,,,,,0,58,58,19,1,,,,,,,,,,,,,,,,,,,,,,,,,,,,
,,,,,SPR24_098,19,F,2024-04-26_09h04.13.956,jersey_experiment_5_v0,2023.2.2,Win32,85.47008547,,,,,,,,,,,,,,,,628.8273,630.1318,630.1319,631.0579,return,0.2837,,86.84895833,,,,,,FBP-PT-19.png,0.4,1.2,58,0.5,,,,,,,,,,,,,0,59,59,57,1,,,,,,,,,,,,,,,,,,,,,,,,,,,,
,,,,,SPR24_098,19,F,2024-04-26_09h04.13.956,jersey_experiment_5_v0,2023.2.2,Win32,85.47008547,,,,,,,,,,,,,,,,631.0593,632.3566,632.3566,632.9285,return,0.1182,,92.578125,,,,,,FBP-PT-81.png,0.45,1.2,55,0.5,,,,,,,,,,,,,,,,,,0,0,0,54,1,,,,,,,,,,,,,,,,,,,,,,,
,,,,,SPR24_098,19,F,2024-04-26_09h04.13.956,jersey_experiment_5_v0,2023.2.2,Win32,85.47008547,,,,,,,,,,,,,,,,632.9287,634.226,634.2261,634.9874,return,0.1593,,84.765625,,,,,,FBP-PT-81.png,0.4,1.2,53,0.5,,,,,,,,,,,,,,,,,,0,1,1,52,1,,,,,,,,,,,,,,,,,,,,,,,
,,,,,SPR24_098,19,F,2024-04-26_09h04.13.956,jersey_experiment_5_v0,2023.2.2,Win32,85.47008547,,,,,,,,,,,,,,,,634.9876,636.0346,636.0348,637.2743,return,0.1645,,35.9375,,,,,,FBP-OG-19.png,0.35,1.2,11,0.25,,,,,,,,,,,,,,,,,,0,2,2,10,1,,,,,,,,,,,,,,,,,,,,,,,
,,,,,SPR24_098,19,F,2024-04-26_09h04.13.956,jersey_experiment_5_v0,2023.2.2,Win32,85.47008547,,,,,,,,,,,,,,,,637.2744,638.317,638.3171,639.2742,return,0.2116,,70.83333333,,,,,,FBP-RB-71.png,0.45,1.2,35,0.25,,,,,,,,,,,,,,,,,,0,3,3,34,1,,,,,,,,,,,,,,,,,,,,,,,
,,,,,SPR24_098,19,F,2024-04-26_09h04.13.956,jersey_experiment_5_v0,2023.2.2,Win32,85.47008547,,,,,,,,,,,,,,,,639.2743,640.317,640.3171,641.4861,return,0.0706,,23.828125,,,,,,FBP-RB-91.png,0.35,1.2,41,0.25,,,,,,,,,,,,,,,,,,0,4,4,40,1,,,,,,,,,,,,,,,,,,,,,,,
,,,,,SPR24_098,19,F,2024-04-26_09h04.13.956,jersey_experiment_5_v0,2023.2.2,Win32,85.47008547,,,,,,,,,,,,,,,,641.4863,642.7876,642.7879,643.5054,return,0.1423,,48.56770833,,,,,,FBP-YG-81.png,0.4,1.2,23,0.5,,,,,,,,,,,,,,,,,,0,5,5,22,1,,,,,,,,,,,,,,,,,,,,,,,
,,,,,SPR24_098,19,F,2024-04-26_09h04.13.956,jersey_experiment_5_v0,2023.2.2,Win32,85.47008547,,,,,,,,,,,,,,,,643.5056,644.7995,644.7996,646.1761,return,0.6976,,28.64583333,,,,,,FBP-PT-81.png,0.35,1.2,51,0.5,,,,,,,,,,,,,,,,,,0,6,6,50,1,,,,,,,,,,,,,,,,,,,,,,,
,,,,,SPR24_098,19,F,2024-04-26_09h04.13.956,jersey_experiment_5_v0,2023.2.2,Win32,85.47008547,,,,,,,,,,,,,,,,646.1763,647.4733,647.4734,648.7441,return,0.7638,,72.39583333,,,,,,FBP-PT-91.png,0.45,1.2,60,0.5,,,,,,,,,,,,,,,,,,0,7,7,59,1,,,,,,,,,,,,,,,,,,,,,,,
,,,,,SPR24_098,19,F,2024-04-26_09h04.13.956,jersey_experiment_5_v0,2023.2.2,Win32,85.47008547,,,,,,,,,,,,,,,,648.7442,649.7879,649.788,650.9219,return,0.0943,,25,,,,,,FBP-OG-18.png,0.37,1.2,7,0.25,,,,,,,,,,,,,,,,,,0,8,8,6,1,,,,,,,,,,,,,,,,,,,,,,,
,,,,,SPR24_098,19,F,2024-04-26_09h04.13.956,jersey_experiment_5_v0,2023.2.2,Win32,85.47008547,,,,,,,,,,,,,,,,650.9221,652.2164,652.2165,652.9293,return,0.1308,,25.390625,,,,,,FBP-YG-71.png,0.4,1.2,18,0.5,,,,,,,,,,,,,,,,,,0,9,9,17,1,,,,,,,,,,,,,,,,,,,,,,,
,,,,,SPR24_098,19,F,2024-04-26_09h04.13.956,jersey_experiment_5_v0,2023.2.2,Win32,85.47008547,,,,,,,,,,,,,,,,652.9295,653.9807,653.9808,654.694,return,0.1779,,25.390625,,,,,,FBP-OG-19.png,0.37,1.2,12,0.25,,,,,,,,,,,,,,,,,,0,10,10,11,1,,,,,,,,,,,,,,,,,,,,,,,
,,,,,SPR24_098,19,F,2024-04-26_09h04.13.956,jersey_experiment_5_v0,2023.2.2,Win32,85.47008547,,,,,,,,,,,,,,,,654.6943,655.741,655.7412,657.3233,return,0.0614,,39.32291667,,,,,,FBP-OG-17.png,0.4,1.2,3,0.25,,,,,,,,,,,,,,,,,,0,11,11,2,1,,,,,,,,,,,,,,,,,,,,,,,
,,,,,SPR24_098,19,F,2024-04-26_09h04.13.956,jersey_experiment_5_v0,2023.2.2,Win32,85.47008547,,,,,,,,,,,,,,,,657.3234,658.627,658.6271,659.4116,return,0.1179,,73.828125,,,,,,FBP-YG-81.png,0.45,1.2,25,0.5,,,,,,,,,,,,,,,,,,0,12,12,24,1,,,,,,,,,,,,,,,,,,,,,,,
,,,,,SPR24_098,19,F,2024-04-26_09h04.13.956,jersey_experiment_5_v0,2023.2.2,Win32,85.47008547,,,,,,,,,,,,,,,,659.4118,660.459,660.4591,662.2707,return,0.9101,,69.27083333,,,,,,FBP-OG-19.png,0.4,1.2,13,0.25,,,,,,,,,,,,,,,,,,0,13,13,12,1,,,,,,,,,,,,,,,,,,,,,,,
,,,,,SPR24_098,19,F,2024-04-26_09h04.13.956,jersey_experiment_5_v0,2023.2.2,Win32,85.47008547,,,,,,,,,,,,,,,,662.2709,663.3178,663.3179,664.059,return,0.0774,,73.95833333,,,,,,FBP-RB-71.png,0.4,1.2,33,0.25,,,,,,,,,,,,,,,,,,0,14,14,32,1,,,,,,,,,,,,,,,,,,,,,,,
,,,,,SPR24_098,19,F,2024-04-26_09h04.13.956,jersey_experiment_5_v0,2023.2.2,Win32,85.47008547,,,,,,,,,,,,,,,,664.0592,665.106,665.1061,666.734,return,0.0234,,82.68229167,,,,,,FBP-OG-17.png,0.43,1.2,4,0.25,,,,,,,,,,,,,,,,,,0,15,15,3,1,,,,,,,,,,,,,,,,,,,,,,,
,,,,,SPR24_098,19,F,2024-04-26_09h04.13.956,jersey_experiment_5_v0,2023.2.2,Win32,85.47008547,,,,,,,,,,,,,,,,666.7341,667.7796,667.7798,668.9414,return,0.123,,28.90625,,,,,,FBP-OG-18.png,0.35,1.2,6,0.25,,,,,,,,,,,,,,,,,,0,16,16,5,1,,,,,,,,,,,,,,,,,,,,,,,
,,,,,SPR24_098,19,F,2024-04-26_09h04.13.956,jersey_experiment_5_v0,2023.2.2,Win32,85.47008547,,,,,,,,,,,,,,,,668.9416,670.2356,670.2358,671.1451,return,0.1286,,22.91666667,,,,,,FBP-PT-71.png,0.37,1.2,47,0.5,,,,,,,,,,,,,,,,,,0,17,17,46,1,,,,,,,,,,,,,,,,,,,,,,,
,,,,,SPR24_098,19,F,2024-04-26_09h04.13.956,jersey_experiment_5_v0,2023.2.2,Win32,85.47008547,,,,,,,,,,,,,,,,671.1453,672.452,672.4522,673.2287,return,0.2357,,44.40104167,,,,,,FBP-YG-91.png,0.4,1.2,28,0.5,,,,,,,,,,,,,,,,,,0,18,18,27,1,,,,,,,,,,,,,,,,,,,,,,,
,,,,,SPR24_098,19,F,2024-04-26_09h04.13.956,jersey_experiment_5_v0,2023.2.2,Win32,85.47008547,,,,,,,,,,,,,,,,673.2289,674.5226,674.5228,676.2359,return,0.9484,,74.609375,,,,,,FBP-YG-91.png,0.45,1.2,30,0.5,,,,,,,,,,,,,,,,,,0,19,19,29,1,,,,,,,,,,,,,,,,,,,,,,,
,,,,,SPR24_098,19,F,2024-04-26_09h04.13.956,jersey_experiment_5_v0,2023.2.2,Win32,85.47008547,,,,,,,,,,,,,,,,676.236,677.283,677.2831,678.2876,return,0.131,,84.63541667,,,,,,FBP-OG-18.png,0.45,1.2,10,0.25,,,,,,,,,,,,,,,,,,0,20,20,9,1,,,,,,,,,,,,,,,,,,,,,,,
,,,,,SPR24_098,19,F,2024-04-26_09h04.13.956,jersey_experiment_5_v0,2023.2.2,Win32,85.47008547,,,,,,,,,,,,,,,,678.2878,679.5815,679.5817,680.4477,return,0.1312,,40.234375,,,,,,FBP-YG-91.png,0.37,1.2,27,0.5,,,,,,,,,,,,,,,,,,0,21,21,26,1,,,,,,,,,,,,,,,,,,,,,,,
,,,,,SPR24_098,19,F,2024-04-26_09h04.13.956,jersey_experiment_5_v0,2023.2.2,Win32,85.47008547,,,,,,,,,,,,,,,,680.4478,681.495,681.4951,682.4479,return,0.0501,,72.78645833,,,,,,FBP-RB-91.png,0.43,1.2,44,0.25,,,,,,,,,,,,,,,,,,0,22,22,43,1,,,,,,,,,,,,,,,,,,,,,,,
,,,,,SPR24_098,19,F,2024-04-26_09h04.13.956,jersey_experiment_5_v0,2023.2.2,Win32,85.47008547,,,,,,,,,,,,,,,,682.448,683.7419,683.7421,684.7538,return,0.1051,,24.73958333,,,,,,FBP-PT-91.png,0.37,1.2,57,0.5,,,,,,,,,,,,,,,,,,0,23,23,56,1,,,,,,,,,,,,,,,,,,,,,,,
,,,,,SPR24_098,19,F,2024-04-26_09h04.13.956,jersey_experiment_5_v0,2023.2.2,Win32,85.47008547,,,,,,,,,,,,,,,,684.754,686.0531,686.0533,686.848,return,0.0369,,84.375,,,,,,FBP-YG-71.png,0.45,1.2,20,0.5,,,,,,,,,,,,,,,,,,0,24,24,19,1,,,,,,,,,,,,,,,,,,,,,,,
,,,,,SPR24_098,19,F,2024-04-26_09h04.13.956,jersey_experiment_5_v0,2023.2.2,Win32,85.47008547,,,,,,,,,,,,,,,,686.8481,687.8952,687.8954,688.8833,return,0.0479,,76.171875,,,,,,FBP-OG-19.png,0.45,1.2,15,0.25,,,,,,,,,,,,,,,,,,0,25,25,14,1,,,,,,,,,,,,,,,,,,,,,,,
,,,,,SPR24_098,19,F,2024-04-26_09h04.13.956,jersey_experiment_5_v0,2023.2.2,Win32,85.47008547,,,,,,,,,,,,,,,,688.8835,689.9305,689.9306,691.2762,return,0.0708,,29.16666667,,,,,,FBP-RB-91.png,0.37,1.2,42,0.25,,,,,,,,,,,,,,,,,,0,26,26,41,1,,,,,,,,,,,,,,,,,,,,,,,
,,,,,SPR24_098,19,F,2024-04-26_09h04.13.956,jersey_experiment_5_v0,2023.2.2,Win32,85.47008547,,,,,,,,,,,,,,,,691.2763,692.5777,692.5778,693.6766,return,0.1417,,75.91145833,,,,,,FBP-YG-71.png,0.43,1.2,19,0.5,,,,,,,,,,,,,,,,,,0,27,27,18,1,,,,,,,,,,,,,,,,,,,,,,,
,,,,,SPR24_098,19,F,2024-04-26_09h04.13.956,jersey_experiment_5_v0,2023.2.2,Win32,85.47008547,,,,,,,,,,,,,,,,693.6768,694.7189,694.719,695.8516,return,0.1178,,14.19270833,,,,,,FBP-RB-71.png,0.35,1.2,31,0.25,,,,,,,,,,,,,,,,,,0,28,28,30,1,,,,,,,,,,,,,,,,,,,,,,,
,,,,,SPR24_098,19,F,2024-04-26_09h04.13.956,jersey_experiment_5_v0,2023.2.2,Win32,85.47008547,,,,,,,,,,,,,,,,695.8518,697.1587,697.1588,697.8178,return,0.1177,,8.203125,,,,,,FBP-PT-91.png,0.35,1.2,56,0.5,,,,,,,,,,,,,,,,,,0,29,29,55,1,,,,,,,,,,,,,,,,,,,,,,,
,,,,,SPR24_098,19,F,2024-04-26_09h04.13.956,jersey_experiment_5_v0,2023.2.2,Win32,85.47008547,,,,,,,,,,,,,,,,697.8179,698.8602,698.8604,700.4131,return,0.1114,,82.03125,,,,,,FBP-OG-18.png,0.43,1.2,9,0.25,,,,,,,,,,,,,,,,,,0,30,30,8,1,,,,,,,,,,,,,,,,,,,,,,,
,,,,,SPR24_098,19,F,2024-04-26_09h04.13.956,jersey_experiment_5_v0,2023.2.2,Win32,85.47008547,,,,,,,,,,,,,,,,700.4132,701.4647,701.4648,703.0991,return,0.1182,,32.55208333,,,,,,FBP-RB-71.png,0.37,1.2,32,0.25,,,,,,,,,,,,,,,,,,0,31,31,31,1,,,,,,,,,,,,,,,,,,,,,,,
,,,,,SPR24_098,19,F,2024-04-26_09h04.13.956,jersey_experiment_5_v0,2023.2.2,Win32,85.47008547,,,,,,,,,,,,,,,,703.0992,704.1427,704.1428,705.131,return,0.0891,,29.296875,,,,,,FBP-RB-81.png,0.4,1.2,38,0.25,,,,,,,,,,,,,,,,,,0,32,32,37,1,,,,,,,,,,,,,,,,,,,,,,,
,,,,,SPR24_098,19,F,2024-04-26_09h04.13.956,jersey_experiment_5_v0,2023.2.2,Win32,85.47008547,,,,,,,,,,,,,,,,705.1311,706.4296,706.4298,707.1664,return,0.1208,,70.96354167,,,,,,FBP-YG-91.png,0.43,1.2,29,0.5,,,,,,,,,,,,,,,,,,0,33,33,28,1,,,,,,,,,,,,,,,,,,,,,,,
,,,,,SPR24_098,19,F,2024-04-26_09h04.13.956,jersey_experiment_5_v0,2023.2.2,Win32,85.47008547,,,,,,,,,,,,,,,,707.1666,708.4606,708.4607,709.4417,return,0.0946,,58.33333333,,,,,,FBP-PT-81.png,0.37,1.2,52,0.5,,,,,,,,,,,,,,,,,,0,34,34,51,1,,,,,,,,,,,,,,,,,,,,,,,
,,,,,SPR24_098,19,F,2024-04-26_09h04.13.956,jersey_experiment_5_v0,2023.2.2,Win32,85.47008547,,,,,,,,,,,,,,,,709.4418,710.4841,710.4844,711.7784,return,0.07,,75.390625,,,,,,FBP-RB-81.png,0.45,1.2,40,0.25,,,,,,,,,,,,,,,,,,0,35,35,39,1,,,,,,,,,,,,,,,,,,,,,,,
,,,,,SPR24_098,19,F,2024-04-26_09h04.13.956,jersey_experiment_5_v0,2023.2.2,Win32,85.47008547,,,,,,,,,,,,,,,,711.7785,713.0724,713.0725,714.4642,return,0.6592,,37.36979167,,,,,,FBP-YG-91.png,0.35,1.2,26,0.5,,,,,,,,,,,,,,,,,,0,36,36,25,1,,,,,,,,,,,,,,,,,,,,,,,
,,,,,SPR24_098,19,F,2024-04-26_09h04.13.956,jersey_experiment_5_v0,2023.2.2,Win32,85.47008547,,,,,,,,,,,,,,,,714.4644,715.7579,715.758,716.6843,return,0.1005,,83.46354167,,,,,,FBP-PT-71.png,0.45,1.2,50,0.5,,,,,,,,,,,,,,,,,,0,37,37,49,1,,,,,,,,,,,,,,,,,,,,,,,
,,,,,SPR24_098,19,F,2024-04-26_09h04.13.956,jersey_experiment_5_v0,2023.2.2,Win32,85.47008547,,,,,,,,,,,,,,,,716.6845,717.7315,717.7317,719.1667,return,0.1675,,50.78125,,,,,,FBP-RB-81.png,0.37,1.2,37,0.25,,,,,,,,,,,,,,,,,,0,38,38,36,1,,,,,,,,,,,,,,,,,,,,,,,
,,,,,SPR24_098,19,F,2024-04-26_09h04.13.956,jersey_experiment_5_v0,2023.2.2,Win32,85.47008547,,,,,,,,,,,,,,,,719.1669,720.4642,720.4644,721.7904,return,0.1927,,53.77604167,,,,,,FBP-PT-71.png,0.4,1.2,48,0.5,,,,,,,,,,,,,,,,,,0,39,39,47,1,,,,,,,,,,,,,,,,,,,,,,,
,,,,,SPR24_098,19,F,2024-04-26_09h04.13.956,jersey_experiment_5_v0,2023.2.2,Win32,85.47008547,,,,,,,,,,,,,,,,721.7906,723.0845,723.0847,724.1434,return,0.3198,,53.77604167,,,,,,FBP-PT-91.png,0.4,1.2,58,0.5,,,,,,,,,,,,,,,,,,0,40,40,57,1,,,,,,,,,,,,,,,,,,,,,,,
,,,,,SPR24_098,19,F,2024-04-26_09h04.13.956,jersey_experiment_5_v0,2023.2.2,Win32,85.47008547,,,,,,,,,,,,,,,,724.1436,725.1905,725.1906,726.4411,return,0.1649,,73.17708333,,,,,,FBP-RB-71.png,0.43,1.2,34,0.25,,,,,,,,,,,,,,,,,,0,41,41,33,1,,,,,,,,,,,,,,,,,,,,,,,
,,,,,SPR24_098,19,F,2024-04-26_09h04.13.956,jersey_experiment_5_v0,2023.2.2,Win32,85.47008547,,,,,,,,,,,,,,,,726.4412,727.7354,727.7355,729.2965,return,0.0831,,77.08333333,,,,,,FBP-PT-71.png,0.43,1.2,49,0.5,,,,,,,,,,,,,,,,,,0,42,42,48,1,,,,,,,,,,,,,,,,,,,,,,,
,,,,,SPR24_098,19,F,2024-04-26_09h04.13.956,jersey_experiment_5_v0,2023.2.2,Win32,85.47008547,,,,,,,,,,,,,,,,729.2967,730.5957,730.5959,731.9202,return,0.0959,,49.34895833,,,,,,FBP-PT-71.png,0.35,1.2,46,0.5,,,,,,,,,,,,,,,,,,0,43,43,45,1,,,,,,,,,,,,,,,,,,,,,,,
,,,,,SPR24_098,19,F,2024-04-26_09h04.13.956,jersey_experiment_5_v0,2023.2.2,Win32,85.47008547,,,,,,,,,,,,,,,,731.9203,732.9672,732.9673,734.085,return,0.1172,,61.71875,,,,,,FBP-RB-81.png,0.43,1.2,39,0.25,,,,,,,,,,,,,,,,,,0,44,44,38,1,,,,,,,,,,,,,,,,,,,,,,,
,,,,,SPR24_098,19,F,2024-04-26_09h04.13.956,jersey_experiment_5_v0,2023.2.2,Win32,85.47008547,,,,,,,,,,,,,,,,734.0852,735.3826,735.3827,736.4073,return,0.084,,27.99479167,,,,,,FBP-YG-71.png,0.35,1.2,16,0.5,,,,,,,,,,,,,,,,,,0,45,45,15,1,,,,,,,,,,,,,,,,,,,,,,,
,,,,,SPR24_098,19,F,2024-04-26_09h04.13.956,jersey_experiment_5_v0,2023.2.2,Win32,85.47008547,,,,,,,,,,,,,,,,736.4074,737.4497,737.4498,738.6061,return,0.1413,,37.5,,,,,,FBP-OG-18.png,0.4,1.2,8,0.25,,,,,,,,,,,,,,,,,,0,46,46,7,1,,,,,,,,,,,,,,,,,,,,,,,
,,,,,SPR24_098,19,F,2024-04-26_09h04.13.956,jersey_experiment_5_v0,2023.2.2,Win32,85.47008547,,,,,,,,,,,,,,,,738.6061,739.6497,739.6498,740.7242,return,0.1035,,38.80208333,,,,,,FBP-RB-91.png,0.4,1.2,43,0.25,,,,,,,,,,,,,,,,,,0,47,47,42,1,,,,,,,,,,,,,,,,,,,,,,,
,,,,,SPR24_098,19,F,2024-04-26_09h04.13.956,jersey_experiment_5_v0,2023.2.2,Win32,85.47008547,,,,,,,,,,,,,,,,740.7243,742.0314,742.0315,743.1794,return,0.1591,,25.26041667,,,,,,FBP-YG-71.png,0.37,1.2,17,0.5,,,,,,,,,,,,,,,,,,0,48,48,16,1,,,,,,,,,,,,,,,,,,,,,,,
,,,,,SPR24_098,19,F,2024-04-26_09h04.13.956,jersey_experiment_5_v0,2023.2.2,Win32,85.47008547,,,,,,,,,,,,,,,,743.1795,744.2265,744.2266,744.8889,return,0.1518,,25.26041667,,,,,,FBP-OG-17.png,0.37,1.2,2,0.25,,,,,,,,,,,,,,,,,,0,49,49,1,1,,,,,,,,,,,,,,,,,,,,,,,
,,,,,SPR24_098,19,F,2024-04-26_09h04.13.956,jersey_experiment_5_v0,2023.2.2,Win32,85.47008547,,,,,,,,,,,,,,,,744.889,745.9323,745.9326,747.0267,return,0.0941,,71.22395833,,,,,,FBP-OG-19.png,0.43,1.2,14,0.25,,,,,,,,,,,,,,,,,,0,50,50,13,1,,,,,,,,,,,,,,,,,,,,,,,
,,,,,SPR24_098,19,F,2024-04-26_09h04.13.956,jersey_experiment_5_v0,2023.2.2,Win32,85.47008547,,,,,,,,,,,,,,,,747.0269,748.0736,748.0737,751.156,return,2.1047,,22.52604167,,,,,,FBP-RB-81.png,0.35,1.2,36,0.25,,,,,,,,,,,,,,,,,,0,51,51,35,1,,,,,,,,,,,,,,,,,,,,,,,
,,,,,SPR24_098,19,F,2024-04-26_09h04.13.956,jersey_experiment_5_v0,2023.2.2,Win32,85.47008547,,,,,,,,,,,,,,,,751.1562,752.2031,752.2032,753.2973,return,0.1281,,79.16666667,,,,,,FBP-RB-91.png,0.45,1.2,45,0.25,,,,,,,,,,,,,,,,,,0,52,52,44,1,,,,,,,,,,,,,,,,,,,,,,,
,,,,,SPR24_098,19,F,2024-04-26_09h04.13.956,jersey_experiment_5_v0,2023.2.2,Win32,85.47008547,,,,,,,,,,,,,,,,753.2975,754.5963,754.5964,755.7092,return,0.1348,,17.578125,,,,,,FBP-YG-81.png,0.35,1.2,21,0.5,,,,,,,,,,,,,,,,,,0,53,53,20,1,,,,,,,,,,,,,,,,,,,,,,,
,,,,,SPR24_098,19,F,2024-04-26_09h04.13.956,jersey_experiment_5_v0,2023.2.2,Win32,85.47008547,,,,,,,,,,,,,,,,755.7094,757.0033,757.0034,757.9138,return,0.1414,,17.70833333,,,,,,FBP-YG-81.png,0.37,1.2,22,0.5,,,,,,,,,,,,,,,,,,0,54,54,21,1,,,,,,,,,,,,,,,,,,,,,,,
,,,,,SPR24_098,19,F,2024-04-26_09h04.13.956,jersey_experiment_5_v0,2023.2.2,Win32,85.47008547,,,,,,,,,,,,,,,,757.9139,759.2078,759.208,760.2858,return,0.1325,,75.13020833,,,,,,FBP-PT-91.png,0.43,1.2,59,0.5,,,,,,,,,,,,,,,,,,0,55,55,58,1,,,,,,,,,,,,,,,,,,,,,,,
,,,,,SPR24_098,19,F,2024-04-26_09h04.13.956,jersey_experiment_5_v0,2023.2.2,Win32,85.47008547,,,,,,,,,,,,,,,,760.286,761.3328,761.3331,762.607,return,0.2209,,85.41666667,,,,,,FBP-OG-17.png,0.45,1.2,5,0.25,,,,,,,,,,,,,,,,,,0,56,56,4,1,,,,,,,,,,,,,,,,,,,,,,,
,,,,,SPR24_098,19,F,2024-04-26_09h04.13.956,jersey_experiment_5_v0,2023.2.2,Win32,85.47008547,,,,,,,,,,,,,,,,762.6071,763.9008,763.901,764.5365,return,0.1291,,86.328125,,,,,,FBP-YG-81.png,0.43,1.2,24,0.5,,,,,,,,,,,,,,,,,,0,57,57,23,1,,,,,,,,,,,,,,,,,,,,,,,
,,,,,SPR24_098,19,F,2024-04-26_09h04.13.956,jersey_experiment_5_v0,2023.2.2,Win32,85.47008547,,,,,,,,,,,,,,,,764.5367,765.585,765.5852,766.9966,return,0.1178,,38.41145833,,,,,,FBP-OG-17.png,0.35,1.2,1,0.25,,,,,,,,,,,,,,,,,,0,58,58,0,1,,,,,,,,,,,,,,,,,,,,,,,
,,,,,SPR24_098,19,F,2024-04-26_09h04.13.956,jersey_experiment_5_v0,2023.2.2,Win32,85.47008547,,,,,,,,,,,,,,,,766.9968,768.2912,768.2914,769.2156,return,0.0854,,70.05208333,,,,,,FBP-PT-81.png,0.43,1.2,54,0.5,,,,,,,,,,,,,,,,,,0,59,59,53,1,,,,,,,,,,,,,,,,,,,,,,,
,,,,,SPR24_098,19,F,2024-04-26_09h04.13.956,jersey_experiment_5_v0,2023.2.2,Win32,85.47008547,,,,,,,,,,,,,,,,,,,,,,,,,,,,,,,,,,,,,,,,,,,,,,,,,,,,,,,,769.2158,773.357,return,4.1217,,,,,,,,,,,,,,,,,,,
,,,,,SPR24_098,19,F,2024-04-26_09h04.13.956,jersey_experiment_5_v0,2023.2.2,Win32,85.47008547,,,,,,,,,,,,,,,,,,,,,,,,,,,,,,,,,,,,,,,,,,,,,,,,,,,,,,,,,,,,,773.3571,777.4545,1,2.6819,return,1.3986,,,,,,,,,,,,
,,,,,SPR24_098,19,F,2024-04-26_09h04.13.956,jersey_experiment_5_v0,2023.2.2,Win32,85.47008547,,,,,,,,,,,,,,,,,,,,,,,,,,,,,,,,,,,,,,,,,,,,,,,,,,,,,,,,,,,,,,,,,,,,777.4545,817.6618,I think it either relates to overall size as a factor in perceiving proportion or jersey color as a factor,right,34.7904,,,,,,
,,,,,SPR24_098,19,F,2024-04-26_09h04.13.956,jersey_experiment_5_v0,2023.2.2,Win32,85.47008547,,,,,,,,,,,,,,,,,,,,,,,,,,,,,,,,,,,,,,,,,,,,,,,,,,,,,,,,,,,,,,,,,,,,,,,,,,817.6619,821.469,return,3.8013,