requirements.started,requirements.stopped,key_resp_3.keys,key_resp_3.rt,key_resp_3.duration,Subject ID,Age,Gender,date,expName,psychopyVersion,OS,frameRate,instructions1.started,instructions1.stopped,key_resp.keys,key_resp.rt,key_resp.duration,example.started,example.stopped,enter_2.keys,enter_2.rt,enter_2.duration,instructions2.started,instructions2.stopped,enter_3.keys,enter_3.rt,enter_3.duration,image.started,image.stopped,slider_2.started,slider_2.stopped,next.keys,next.rt,next.duration,slider.response,trial_block_1.thisRepN,trial_block_1.thisTrialN,trial_block_1.thisN,trial_block_1.thisIndex,trial_block_1.ran,Path,Width,Height,Index,Duration,trial_block_2.thisRepN,trial_block_2.thisTrialN,trial_block_2.thisN,trial_block_2.thisIndex,trial_block_2.ran,rest_break.started,rest_break.stopped,end_break.started,end_break.stopped,key_resp_5.keys,key_resp_5.rt,key_resp_5.duration,trial_block_3.thisRepN,trial_block_3.thisTrialN,trial_block_3.thisN,trial_block_3.thisIndex,trial_block_3.ran,trial_block_4.thisRepN,trial_block_4.thisTrialN,trial_block_4.thisN,trial_block_4.thisIndex,trial_block_4.ran,questions_intro.started,questions_intro.stopped,enter_12.keys,enter_12.rt,enter_12.duration,question2.started,question2.stopped,question_doingbest.response,question_doingbest.rt,enter_15.keys,enter_15.rt,enter_15.duration,pattern.started,pattern.stopped,pattern_2.text,enter_17.keys,enter_17.rt,enter_17.duration,thankyou.started,thankyou.stopped,enter_14.keys,enter_14.rt,enter_14.duration
9.99999E-05,11.4586,return,11.4495,,SPR24_006,18,F,2024-04-05_10h27.02.537,jersey_experiment_5_v0,2023.2.2,Win32,86.20689655,,,,,,,,,,,,,,,,,,,,,,,,,,,,,,,,,,,,,,,,,,,,,,,,,,,,,,,,,,,,,,,,,,,,,,,,,,,,,,
,,,,,SPR24_006,18,F,2024-04-05_10h27.02.537,jersey_experiment_5_v0,2023.2.2,Win32,86.20689655,11.4587,12.4465,return,0.9725,,,,,,,,,,,,,,,,,,,,,,,,,,,,,,,,,,,,,,,,,,,,,,,,,,,,,,,,,,,,,,,,,,,,,,,,,,
,,,,,SPR24_006,18,F,2024-04-05_10h27.02.537,jersey_experiment_5_v0,2023.2.2,Win32,86.20689655,,,,,,12.4466,18.5647,return,6.0882,,,,,,,,,,,,,,,,,,,,,,,,,,,,,,,,,,,,,,,,,,,,,,,,,,,,,,,,,,,,,,,,,,,,,
,,,,,SPR24_006,18,F,2024-04-05_10h27.02.537,jersey_experiment_5_v0,2023.2.2,Win32,86.20689655,,,,,,,,,,,18.5647,46.7424,return,28.1655,,,,,,,,,,,,,,,,,,,,,,,,,,,,,,,,,,,,,,,,,,,,,,,,,,,,,,,,,,,,,,,,
,,,,,SPR24_006,18,F,2024-04-05_10h27.02.537,jersey_experiment_5_v0,2023.2.2,Win32,86.20689655,,,,,,,,,,,,,,,,46.7485,47.8007,47.8007,63.2484,return,3.7711,,24.73958333,0,0,0,56,1,FBP-PT-19.png,0.37,1.2,57,0.25,,,,,,,,,,,,,,,,,,,,,,,,,,,,,,,,,,,,,,,,,,,,,
,,,,,SPR24_006,18,F,2024-04-05_10h27.02.537,jersey_experiment_5_v0,2023.2.2,Win32,86.20689655,,,,,,,,,,,,,,,,63.2486,64.2956,64.2956,70.3193,return,1.5003,,99.73958333,0,1,1,24,1,FBP-YG-18.png,0.45,1.2,25,0.25,,,,,,,,,,,,,,,,,,,,,,,,,,,,,,,,,,,,,,,,,,,,,
,,,,,SPR24_006,18,F,2024-04-05_10h27.02.537,jersey_experiment_5_v0,2023.2.2,Win32,86.20689655,,,,,,,,,,,,,,,,70.3195,71.3662,71.3663,75.496,return,1.6233,,99.609375,0,2,2,29,1,FBP-YG-19.png,0.45,1.2,30,0.25,,,,,,,,,,,,,,,,,,,,,,,,,,,,,,,,,,,,,,,,,,,,,
,,,,,SPR24_006,18,F,2024-04-05_10h27.02.537,jersey_experiment_5_v0,2023.2.2,Win32,86.20689655,,,,,,,,,,,,,,,,75.4963,76.5431,76.5431,78.4725,return,0.306,,49.47916667,0,3,3,57,1,FBP-PT-19.png,0.4,1.2,58,0.25,,,,,,,,,,,,,,,,,,,,,,,,,,,,,,,,,,,,,,,,,,,,,
,,,,,SPR24_006,18,F,2024-04-05_10h27.02.537,jersey_experiment_5_v0,2023.2.2,Win32,86.20689655,,,,,,,,,,,,,,,,78.4727,79.7667,79.7667,81.0137,return,0.2112,,49.609375,0,4,4,12,1,FBP-OG-91.png,0.4,1.2,13,0.5,,,,,,,,,,,,,,,,,,,,,,,,,,,,,,,,,,,,,,,,,,,,,
,,,,,SPR24_006,18,F,2024-04-05_10h27.02.537,jersey_experiment_5_v0,2023.2.2,Win32,86.20689655,,,,,,,,,,,,,,,,81.014,82.3079,82.3079,83.7433,return,0.2422,,73.95833333,0,5,5,4,1,FBP-OG-71.png,0.45,1.2,5,0.5,,,,,,,,,,,,,,,,,,,,,,,,,,,,,,,,,,,,,,,,,,,,,
,,,,,SPR24_006,18,F,2024-04-05_10h27.02.537,jersey_experiment_5_v0,2023.2.2,Win32,86.20689655,,,,,,,,,,,,,,,,83.7435,85.0375,85.0376,86.0022,return,0.1912,,74.34895833,0,6,6,14,1,FBP-OG-91.png,0.45,1.2,15,0.5,,,,,,,,,,,,,,,,,,,,,,,,,,,,,,,,,,,,,,,,,,,,,
,,,,,SPR24_006,18,F,2024-04-05_10h27.02.537,jersey_experiment_5_v0,2023.2.2,Win32,86.20689655,,,,,,,,,,,,,,,,86.0023,87.0494,87.0495,88.5316,return,0.532,,74.73958333,0,7,7,19,1,FBP-YG-17.png,0.45,1.2,20,0.25,,,,,,,,,,,,,,,,,,,,,,,,,,,,,,,,,,,,,,,,,,,,,
,,,,,SPR24_006,18,F,2024-04-05_10h27.02.537,jersey_experiment_5_v0,2023.2.2,Win32,86.20689655,,,,,,,,,,,,,,,,88.5318,89.826,89.8261,91.3319,return,0.1779,,73.828125,0,8,8,7,1,FBP-OG-81.png,0.4,1.2,8,0.5,,,,,,,,,,,,,,,,,,,,,,,,,,,,,,,,,,,,,,,,,,,,,
,,,,,SPR24_006,18,F,2024-04-05_10h27.02.537,jersey_experiment_5_v0,2023.2.2,Win32,86.20689655,,,,,,,,,,,,,,,,91.3321,92.6259,92.6259,94.1435,return,0.1818,,49.609375,0,9,9,40,1,FBP-RB-19.png,0.35,1.2,41,0.5,,,,,,,,,,,,,,,,,,,,,,,,,,,,,,,,,,,,,,,,,,,,,
,,,,,SPR24_006,18,F,2024-04-05_10h27.02.537,jersey_experiment_5_v0,2023.2.2,Win32,86.20689655,,,,,,,,,,,,,,,,94.1438,95.4378,95.4378,96.3084,return,0.1535,,49.609375,0,10,10,2,1,FBP-OG-71.png,0.4,1.2,3,0.5,,,,,,,,,,,,,,,,,,,,,,,,,,,,,,,,,,,,,,,,,,,,,
,,,,,SPR24_006,18,F,2024-04-05_10h27.02.537,jersey_experiment_5_v0,2023.2.2,Win32,86.20689655,,,,,,,,,,,,,,,,96.3087,97.6025,97.6027,99.191,return,0.2007,,74.08854167,0,11,11,44,1,FBP-RB-19.png,0.45,1.2,45,0.5,,,,,,,,,,,,,,,,,,,,,,,,,,,,,,,,,,,,,,,,,,,,,
,,,,,SPR24_006,18,F,2024-04-05_10h27.02.537,jersey_experiment_5_v0,2023.2.2,Win32,86.20689655,,,,,,,,,,,,,,,,99.1912,100.485,100.4851,102.391,return,0.6118,,27.34375,0,12,12,30,1,FBP-RB-17.png,0.35,1.2,31,0.5,,,,,,,,,,,,,,,,,,,,,,,,,,,,,,,,,,,,,,,,,,,,,
,,,,,SPR24_006,18,F,2024-04-05_10h27.02.537,jersey_experiment_5_v0,2023.2.2,Win32,86.20689655,,,,,,,,,,,,,,,,102.3913,103.4381,103.4381,104.8854,return,0.2824,,39.19270833,0,13,13,53,1,FBP-PT-18.png,0.43,1.2,54,0.25,,,,,,,,,,,,,,,,,,,,,,,,,,,,,,,,,,,,,,,,,,,,,
,,,,,SPR24_006,18,F,2024-04-05_10h27.02.537,jersey_experiment_5_v0,2023.2.2,Win32,86.20689655,,,,,,,,,,,,,,,,104.8857,105.9324,105.9325,107.5206,return,0.2292,,56.90104167,0,14,14,16,1,FBP-YG-17.png,0.37,1.2,17,0.25,,,,,,,,,,,,,,,,,,,,,,,,,,,,,,,,,,,,,,,,,,,,,
,,,,,SPR24_006,18,F,2024-04-05_10h27.02.537,jersey_experiment_5_v0,2023.2.2,Win32,86.20689655,,,,,,,,,,,,,,,,107.5209,108.5677,108.5677,109.8738,return,0.1907,,49.86979167,0,15,15,20,1,FBP-YG-18.png,0.35,1.2,21,0.25,,,,,,,,,,,,,,,,,,,,,,,,,,,,,,,,,,,,,,,,,,,,,
,,,,,SPR24_006,18,F,2024-04-05_10h27.02.537,jersey_experiment_5_v0,2023.2.2,Win32,86.20689655,,,,,,,,,,,,,,,,109.874,111.1678,111.1679,112.6386,return,0.3943,,46.74479167,0,16,16,8,1,FBP-OG-81.png,0.43,1.2,9,0.5,,,,,,,,,,,,,,,,,,,,,,,,,,,,,,,,,,,,,,,,,,,,,
,,,,,SPR24_006,18,F,2024-04-05_10h27.02.537,jersey_experiment_5_v0,2023.2.2,Win32,86.20689655,,,,,,,,,,,,,,,,112.6389,113.9326,113.9327,115.2625,return,0.1481,,50.13020833,0,17,17,32,1,FBP-RB-17.png,0.4,1.2,33,0.5,,,,,,,,,,,,,,,,,,,,,,,,,,,,,,,,,,,,,,,,,,,,,
,,,,,SPR24_006,18,F,2024-04-05_10h27.02.537,jersey_experiment_5_v0,2023.2.2,Win32,86.20689655,,,,,,,,,,,,,,,,115.2626,116.5563,116.5564,118.7211,return,0.1922,,40.10416667,0,18,18,41,1,FBP-RB-19.png,0.37,1.2,42,0.5,,,,,,,,,,,,,,,,,,,,,,,,,,,,,,,,,,,,,,,,,,,,,
,,,,,SPR24_006,18,F,2024-04-05_10h27.02.537,jersey_experiment_5_v0,2023.2.2,Win32,86.20689655,,,,,,,,,,,,,,,,118.7213,120.0153,120.0153,122.1213,return,0.2452,,74.47916667,0,19,19,9,1,FBP-OG-81.png,0.45,1.2,10,0.5,,,,,,,,,,,,,,,,,,,,,,,,,,,,,,,,,,,,,,,,,,,,,
,,,,,SPR24_006,18,F,2024-04-05_10h27.02.537,jersey_experiment_5_v0,2023.2.2,Win32,86.20689655,,,,,,,,,,,,,,,,122.1214,123.1685,123.1685,124.851,return,0.2247,,57.03125,0,20,20,47,1,FBP-PT-17.png,0.4,1.2,48,0.25,,,,,,,,,,,,,,,,,,,,,,,,,,,,,,,,,,,,,,,,,,,,,
,,,,,SPR24_006,18,F,2024-04-05_10h27.02.537,jersey_experiment_5_v0,2023.2.2,Win32,86.20689655,,,,,,,,,,,,,,,,124.8512,126.1449,126.1449,127.9567,return,0.1296,,75.91145833,0,21,21,13,1,FBP-OG-91.png,0.43,1.2,14,0.5,,,,,,,,,,,,,,,,,,,,,,,,,,,,,,,,,,,,,,,,,,,,,
,,,,,SPR24_006,18,F,2024-04-05_10h27.02.537,jersey_experiment_5_v0,2023.2.2,Win32,86.20689655,,,,,,,,,,,,,,,,127.957,129.2508,129.2508,131.169,return,0.1823,,25.91145833,0,22,22,35,1,FBP-RB-18.png,0.35,1.2,36,0.5,,,,,,,,,,,,,,,,,,,,,,,,,,,,,,,,,,,,,,,,,,,,,
,,,,,SPR24_006,18,F,2024-04-05_10h27.02.537,jersey_experiment_5_v0,2023.2.2,Win32,86.20689655,,,,,,,,,,,,,,,,131.1692,132.2158,132.2158,133.6392,return,0.3675,,48.56770833,0,23,23,23,1,FBP-YG-18.png,0.43,1.2,24,0.25,,,,,,,,,,,,,,,,,,,,,,,,,,,,,,,,,,,,,,,,,,,,,
,,,,,SPR24_006,18,F,2024-04-05_10h27.02.537,jersey_experiment_5_v0,2023.2.2,Win32,86.20689655,,,,,,,,,,,,,,,,133.6394,134.9334,134.9334,136.0629,return,0.1464,,38.41145833,0,24,24,31,1,FBP-RB-17.png,0.37,1.2,32,0.5,,,,,,,,,,,,,,,,,,,,,,,,,,,,,,,,,,,,,,,,,,,,,
,,,,,SPR24_006,18,F,2024-04-05_10h27.02.537,jersey_experiment_5_v0,2023.2.2,Win32,86.20689655,,,,,,,,,,,,,,,,136.0631,137.1101,137.1101,138.1806,return,0.2017,,35.67708333,0,25,25,45,1,FBP-PT-17.png,0.35,1.2,46,0.25,,,,,,,,,,,,,,,,,,,,,,,,,,,,,,,,,,,,,,,,,,,,,
,,,,,SPR24_006,18,F,2024-04-05_10h27.02.537,jersey_experiment_5_v0,2023.2.2,Win32,86.20689655,,,,,,,,,,,,,,,,138.181,139.4747,139.4747,140.6631,return,0.1889,,74.08854167,0,26,26,3,1,FBP-OG-71.png,0.43,1.2,4,0.5,,,,,,,,,,,,,,,,,,,,,,,,,,,,,,,,,,,,,,,,,,,,,
,,,,,SPR24_006,18,F,2024-04-05_10h27.02.537,jersey_experiment_5_v0,2023.2.2,Win32,86.20689655,,,,,,,,,,,,,,,,140.6633,141.7101,141.7102,143.0278,return,0.1559,,49.47916667,0,27,27,21,1,FBP-YG-18.png,0.37,1.2,22,0.25,,,,,,,,,,,,,,,,,,,,,,,,,,,,,,,,,,,,,,,,,,,,,
,,,,,SPR24_006,18,F,2024-04-05_10h27.02.537,jersey_experiment_5_v0,2023.2.2,Win32,86.20689655,,,,,,,,,,,,,,,,143.0281,144.322,144.322,145.5694,return,0.1452,,28.90625,0,28,28,5,1,FBP-OG-81.png,0.35,1.2,6,0.5,,,,,,,,,,,,,,,,,,,,,,,,,,,,,,,,,,,,,,,,,,,,,
,,,,,SPR24_006,18,F,2024-04-05_10h27.02.537,jersey_experiment_5_v0,2023.2.2,Win32,86.20689655,,,,,,,,,,,,,,,,145.5697,146.6163,146.6163,147.7692,return,0.1181,,34.11458333,0,29,29,22,1,FBP-YG-18.png,0.4,1.2,23,0.25,,,,,,,,,,,,,,,,,,,,,,,,,,,,,,,,,,,,,,,,,,,,,
,,,,,SPR24_006,18,F,2024-04-05_10h27.02.537,jersey_experiment_5_v0,2023.2.2,Win32,86.20689655,,,,,,,,,,,,,,,,147.7695,149.0634,149.0634,149.9575,return,0.1051,,27.86458333,0,30,30,11,1,FBP-OG-91.png,0.37,1.2,12,0.5,,,,,,,,,,,,,,,,,,,,,,,,,,,,,,,,,,,,,,,,,,,,,
,,,,,SPR24_006,18,F,2024-04-05_10h27.02.537,jersey_experiment_5_v0,2023.2.2,Win32,86.20689655,,,,,,,,,,,,,,,,149.9578,151.2516,151.2517,152.2752,return,0.1562,,25.390625,0,31,31,1,1,FBP-OG-71.png,0.37,1.2,2,0.5,,,,,,,,,,,,,,,,,,,,,,,,,,,,,,,,,,,,,,,,,,,,,
,,,,,SPR24_006,18,F,2024-04-05_10h27.02.537,jersey_experiment_5_v0,2023.2.2,Win32,86.20689655,,,,,,,,,,,,,,,,152.2754,153.3223,153.3223,156.2753,return,0.1561,,63.41145833,0,32,32,52,1,FBP-PT-18.png,0.4,1.2,53,0.25,,,,,,,,,,,,,,,,,,,,,,,,,,,,,,,,,,,,,,,,,,,,,
,,,,,SPR24_006,18,F,2024-04-05_10h27.02.537,jersey_experiment_5_v0,2023.2.2,Win32,86.20689655,,,,,,,,,,,,,,,,156.2755,157.3223,157.3223,158.852,return,0.1304,,75.52083333,0,33,33,48,1,FBP-PT-17.png,0.43,1.2,49,0.25,,,,,,,,,,,,,,,,,,,,,,,,,,,,,,,,,,,,,,,,,,,,,
,,,,,SPR24_006,18,F,2024-04-05_10h27.02.537,jersey_experiment_5_v0,2023.2.2,Win32,86.20689655,,,,,,,,,,,,,,,,158.8522,159.899,159.899,162.8991,return,2.2141,,89.32291667,0,34,34,49,1,FBP-PT-17.png,0.45,1.2,50,0.25,,,,,,,,,,,,,,,,,,,,,,,,,,,,,,,,,,,,,,,,,,,,,
,,,,,SPR24_006,18,F,2024-04-05_10h27.02.537,jersey_experiment_5_v0,2023.2.2,Win32,86.20689655,,,,,,,,,,,,,,,,162.8992,164.1933,164.1934,165.264,return,0.1697,,99.73958333,0,35,35,38,1,FBP-RB-18.png,0.43,1.2,39,0.5,,,,,,,,,,,,,,,,,,,,,,,,,,,,,,,,,,,,,,,,,,,,,
,,,,,SPR24_006,18,F,2024-04-05_10h27.02.537,jersey_experiment_5_v0,2023.2.2,Win32,86.20689655,,,,,,,,,,,,,,,,165.2642,166.3109,166.311,168.464,return,0.146,,50.52083333,0,36,36,15,1,FBP-YG-17.png,0.35,1.2,16,0.25,,,,,,,,,,,,,,,,,,,,,,,,,,,,,,,,,,,,,,,,,,,,,
,,,,,SPR24_006,18,F,2024-04-05_10h27.02.537,jersey_experiment_5_v0,2023.2.2,Win32,86.20689655,,,,,,,,,,,,,,,,168.4642,169.7584,169.7584,171.5112,return,0.1419,,35.546875,0,37,37,0,1,FBP-OG-71.png,0.35,1.2,1,0.5,,,,,,,,,,,,,,,,,,,,,,,,,,,,,,,,,,,,,,,,,,,,,
,,,,,SPR24_006,18,F,2024-04-05_10h27.02.537,jersey_experiment_5_v0,2023.2.2,Win32,86.20689655,,,,,,,,,,,,,,,,171.5115,172.5583,172.5584,173.6175,return,0.121,,33.33333333,0,38,38,51,1,FBP-PT-18.png,0.37,1.2,52,0.25,,,,,,,,,,,,,,,,,,,,,,,,,,,,,,,,,,,,,,,,,,,,,
,,,,,SPR24_006,18,F,2024-04-05_10h27.02.537,jersey_experiment_5_v0,2023.2.2,Win32,86.20689655,,,,,,,,,,,,,,,,173.6177,174.6642,174.6644,176.0057,return,0.152,,50.13020833,0,39,39,27,1,FBP-YG-19.png,0.4,1.2,28,0.25,,,,,,,,,,,,,,,,,,,,,,,,,,,,,,,,,,,,,,,,,,,,,
,,,,,SPR24_006,18,F,2024-04-05_10h27.02.537,jersey_experiment_5_v0,2023.2.2,Win32,86.20689655,,,,,,,,,,,,,,,,176.0058,177.2998,177.2998,178.3116,return,0.1034,,26.43229167,0,40,40,10,1,FBP-OG-91.png,0.35,1.2,11,0.5,,,,,,,,,,,,,,,,,,,,,,,,,,,,,,,,,,,,,,,,,,,,,
,,,,,SPR24_006,18,F,2024-04-05_10h27.02.537,jersey_experiment_5_v0,2023.2.2,Win32,86.20689655,,,,,,,,,,,,,,,,178.3118,179.6058,179.6059,180.9116,return,0.17,,99.08854167,0,41,41,34,1,FBP-RB-17.png,0.45,1.2,35,0.5,,,,,,,,,,,,,,,,,,,,,,,,,,,,,,,,,,,,,,,,,,,,,
,,,,,SPR24_006,18,F,2024-04-05_10h27.02.537,jersey_experiment_5_v0,2023.2.2,Win32,86.20689655,,,,,,,,,,,,,,,,180.9119,181.9586,181.9587,183.0294,return,0.2353,,99.21875,0,42,42,28,1,FBP-YG-19.png,0.43,1.2,29,0.25,,,,,,,,,,,,,,,,,,,,,,,,,,,,,,,,,,,,,,,,,,,,,
,,,,,SPR24_006,18,F,2024-04-05_10h27.02.537,jersey_experiment_5_v0,2023.2.2,Win32,86.20689655,,,,,,,,,,,,,,,,183.0296,184.3235,184.3235,185.0764,return,0.2019,,97.91666667,0,43,43,33,1,FBP-RB-17.png,0.43,1.2,34,0.5,,,,,,,,,,,,,,,,,,,,,,,,,,,,,,,,,,,,,,,,,,,,,
,,,,,SPR24_006,18,F,2024-04-05_10h27.02.537,jersey_experiment_5_v0,2023.2.2,Win32,86.20689655,,,,,,,,,,,,,,,,185.0767,186.1236,186.1236,187.7355,return,0.4708,,99.73958333,0,44,44,54,1,FBP-PT-18.png,0.45,1.2,55,0.25,,,,,,,,,,,,,,,,,,,,,,,,,,,,,,,,,,,,,,,,,,,,,
,,,,,SPR24_006,18,F,2024-04-05_10h27.02.537,jersey_experiment_5_v0,2023.2.2,Win32,86.20689655,,,,,,,,,,,,,,,,187.7357,189.0296,189.0296,190.6651,return,0.1988,,99.21875,0,45,45,43,1,FBP-RB-19.png,0.43,1.2,44,0.5,,,,,,,,,,,,,,,,,,,,,,,,,,,,,,,,,,,,,,,,,,,,,
,,,,,SPR24_006,18,F,2024-04-05_10h27.02.537,jersey_experiment_5_v0,2023.2.2,Win32,86.20689655,,,,,,,,,,,,,,,,190.6653,191.712,191.712,193.7356,return,0.1649,,99.34895833,0,46,46,18,1,FBP-YG-17.png,0.43,1.2,19,0.25,,,,,,,,,,,,,,,,,,,,,,,,,,,,,,,,,,,,,,,,,,,,,
,,,,,SPR24_006,18,F,2024-04-05_10h27.02.537,jersey_experiment_5_v0,2023.2.2,Win32,86.20689655,,,,,,,,,,,,,,,,193.7359,194.7827,194.7828,196.2772,return,0.2023,,50.65104167,0,47,47,26,1,FBP-YG-19.png,0.37,1.2,27,0.25,,,,,,,,,,,,,,,,,,,,,,,,,,,,,,,,,,,,,,,,,,,,,
,,,,,SPR24_006,18,F,2024-04-05_10h27.02.537,jersey_experiment_5_v0,2023.2.2,Win32,86.20689655,,,,,,,,,,,,,,,,196.2774,197.324,197.3241,199.03,return,0.1551,,37.36979167,0,48,48,50,1,FBP-PT-18.png,0.35,1.2,51,0.25,,,,,,,,,,,,,,,,,,,,,,,,,,,,,,,,,,,,,,,,,,,,,
,,,,,SPR24_006,18,F,2024-04-05_10h27.02.537,jersey_experiment_5_v0,2023.2.2,Win32,86.20689655,,,,,,,,,,,,,,,,199.0303,200.3243,200.3243,202.1594,return,0.0887,,49.609375,0,49,49,37,1,FBP-RB-18.png,0.4,1.2,38,0.5,,,,,,,,,,,,,,,,,,,,,,,,,,,,,,,,,,,,,,,,,,,,,
,,,,,SPR24_006,18,F,2024-04-05_10h27.02.537,jersey_experiment_5_v0,2023.2.2,Win32,86.20689655,,,,,,,,,,,,,,,,202.1596,203.2065,203.2065,204.3714,return,0.1429,,75,0,50,50,58,1,FBP-PT-19.png,0.43,1.2,59,0.25,,,,,,,,,,,,,,,,,,,,,,,,,,,,,,,,,,,,,,,,,,,,,
,,,,,SPR24_006,18,F,2024-04-05_10h27.02.537,jersey_experiment_5_v0,2023.2.2,Win32,86.20689655,,,,,,,,,,,,,,,,204.3716,205.6657,205.6657,206.8891,return,0.2116,,98.56770833,0,51,51,39,1,FBP-RB-18.png,0.45,1.2,40,0.5,,,,,,,,,,,,,,,,,,,,,,,,,,,,,,,,,,,,,,,,,,,,,
,,,,,SPR24_006,18,F,2024-04-05_10h27.02.537,jersey_experiment_5_v0,2023.2.2,Win32,86.20689655,,,,,,,,,,,,,,,,206.8893,207.936,207.936,209.1128,return,0.1404,,50.390625,0,52,52,55,1,FBP-PT-19.png,0.35,1.2,56,0.25,,,,,,,,,,,,,,,,,,,,,,,,,,,,,,,,,,,,,,,,,,,,,
,,,,,SPR24_006,18,F,2024-04-05_10h27.02.537,jersey_experiment_5_v0,2023.2.2,Win32,86.20689655,,,,,,,,,,,,,,,,209.113,210.4067,210.4068,211.3597,return,0.1359,,50.26041667,0,53,53,36,1,FBP-RB-18.png,0.37,1.2,37,0.5,,,,,,,,,,,,,,,,,,,,,,,,,,,,,,,,,,,,,,,,,,,,,
,,,,,SPR24_006,18,F,2024-04-05_10h27.02.537,jersey_experiment_5_v0,2023.2.2,Win32,86.20689655,,,,,,,,,,,,,,,,211.3599,212.4069,212.407,214.3128,return,0.188,,25.91145833,0,54,54,25,1,FBP-YG-19.png,0.35,1.2,26,0.25,,,,,,,,,,,,,,,,,,,,,,,,,,,,,,,,,,,,,,,,,,,,,
,,,,,SPR24_006,18,F,2024-04-05_10h27.02.537,jersey_experiment_5_v0,2023.2.2,Win32,86.20689655,,,,,,,,,,,,,,,,214.3129,215.607,215.6071,216.4896,return,0.1545,,26.82291667,0,55,55,6,1,FBP-OG-81.png,0.37,1.2,7,0.5,,,,,,,,,,,,,,,,,,,,,,,,,,,,,,,,,,,,,,,,,,,,,
,,,,,SPR24_006,18,F,2024-04-05_10h27.02.537,jersey_experiment_5_v0,2023.2.2,Win32,86.20689655,,,,,,,,,,,,,,,,216.4898,217.5364,217.5365,218.6308,return,0.0953,,37.36979167,0,56,56,46,1,FBP-PT-17.png,0.37,1.2,47,0.25,,,,,,,,,,,,,,,,,,,,,,,,,,,,,,,,,,,,,,,,,,,,,
,,,,,SPR24_006,18,F,2024-04-05_10h27.02.537,jersey_experiment_5_v0,2023.2.2,Win32,86.20689655,,,,,,,,,,,,,,,,218.6311,219.6778,219.6778,221.4779,return,0.1641,,66.40625,0,57,57,17,1,FBP-YG-17.png,0.4,1.2,18,0.25,,,,,,,,,,,,,,,,,,,,,,,,,,,,,,,,,,,,,,,,,,,,,
,,,,,SPR24_006,18,F,2024-04-05_10h27.02.537,jersey_experiment_5_v0,2023.2.2,Win32,86.20689655,,,,,,,,,,,,,,,,221.4781,222.5249,222.525,224.725,return,0.1777,,98.30729167,0,58,58,59,1,FBP-PT-19.png,0.45,1.2,60,0.25,,,,,,,,,,,,,,,,,,,,,,,,,,,,,,,,,,,,,,,,,,,,,
,,,,,SPR24_006,18,F,2024-04-05_10h27.02.537,jersey_experiment_5_v0,2023.2.2,Win32,86.20689655,,,,,,,,,,,,,,,,224.7252,226.0195,226.0196,227.1722,return,0.1649,,77.08333333,0,59,59,42,1,FBP-RB-19.png,0.4,1.2,43,0.5,,,,,,,,,,,,,,,,,,,,,,,,,,,,,,,,,,,,,,,,,,,,,
,,,,,SPR24_006,18,F,2024-04-05_10h27.02.537,jersey_experiment_5_v0,2023.2.2,Win32,86.20689655,,,,,,,,,,,,,,,,227.1741,228.4663,228.4663,229.537,return,0.17,,27.60416667,,,,,,FBP-OG-19.png,0.35,1.2,11,0.5,0,0,0,10,1,,,,,,,,,,,,,,,,,,,,,,,,,,,,,,,,,,,,,,,,
,,,,,SPR24_006,18,F,2024-04-05_10h27.02.537,jersey_experiment_5_v0,2023.2.2,Win32,86.20689655,,,,,,,,,,,,,,,,229.5373,230.584,230.5841,231.3843,return,0.1181,,24.86979167,,,,,,FBP-YG-91.png,0.37,1.2,27,0.25,0,1,1,26,1,,,,,,,,,,,,,,,,,,,,,,,,,,,,,,,,,,,,,,,,
,,,,,SPR24_006,18,F,2024-04-05_10h27.02.537,jersey_experiment_5_v0,2023.2.2,Win32,86.20689655,,,,,,,,,,,,,,,,231.3845,232.6784,232.6784,233.2782,return,0.102,,22.65625,,,,,,FBP-RB-91.png,0.35,1.2,41,0.5,0,2,2,40,1,,,,,,,,,,,,,,,,,,,,,,,,,,,,,,,,,,,,,,,,
,,,,,SPR24_006,18,F,2024-04-05_10h27.02.537,jersey_experiment_5_v0,2023.2.2,Win32,86.20689655,,,,,,,,,,,,,,,,233.2785,234.3254,234.3256,235.5371,return,0.1569,,75,,,,,,FBP-PT-91.png,0.43,1.2,59,0.25,0,3,3,58,1,,,,,,,,,,,,,,,,,,,,,,,,,,,,,,,,,,,,,,,,
,,,,,SPR24_006,18,F,2024-04-05_10h27.02.537,jersey_experiment_5_v0,2023.2.2,Win32,86.20689655,,,,,,,,,,,,,,,,235.5375,236.5842,236.5843,237.6668,return,0.1443,,51.82291667,,,,,,FBP-YG-81.png,0.37,1.2,22,0.25,0,4,4,21,1,,,,,,,,,,,,,,,,,,,,,,,,,,,,,,,,,,,,,,,,
,,,,,SPR24_006,18,F,2024-04-05_10h27.02.537,jersey_experiment_5_v0,2023.2.2,Win32,86.20689655,,,,,,,,,,,,,,,,237.667,238.7138,238.7138,240.1846,return,0.1553,,11.97916667,,,,,,FBP-YG-81.png,0.35,1.2,21,0.25,0,5,5,20,1,,,,,,,,,,,,,,,,,,,,,,,,,,,,,,,,,,,,,,,,
,,,,,SPR24_006,18,F,2024-04-05_10h27.02.537,jersey_experiment_5_v0,2023.2.2,Win32,86.20689655,,,,,,,,,,,,,,,,240.1847,241.4788,241.4789,242.9846,return,0.1419,,73.828125,,,,,,FBP-RB-81.png,0.43,1.2,39,0.5,0,6,6,38,1,,,,,,,,,,,,,,,,,,,,,,,,,,,,,,,,,,,,,,,,
,,,,,SPR24_006,18,F,2024-04-05_10h27.02.537,jersey_experiment_5_v0,2023.2.2,Win32,86.20689655,,,,,,,,,,,,,,,,242.9849,244.0317,244.0317,245.8906,return,0.1208,,97.78645833,,,,,,FBP-YG-81.png,0.45,1.2,25,0.25,0,7,7,24,1,,,,,,,,,,,,,,,,,,,,,,,,,,,,,,,,,,,,,,,,
,,,,,SPR24_006,18,F,2024-04-05_10h27.02.537,jersey_experiment_5_v0,2023.2.2,Win32,86.20689655,,,,,,,,,,,,,,,,245.8908,246.9375,246.9375,249.1847,return,0.1101,,45.57291667,,,,,,FBP-YG-71.png,0.37,1.2,17,0.25,0,8,8,16,1,,,,,,,,,,,,,,,,,,,,,,,,,,,,,,,,,,,,,,,,
,,,,,SPR24_006,18,F,2024-04-05_10h27.02.537,jersey_experiment_5_v0,2023.2.2,Win32,86.20689655,,,,,,,,,,,,,,,,249.1849,250.2319,250.2319,251.7496,return,0.1183,,75.26041667,,,,,,FBP-YG-91.png,0.4,1.2,28,0.25,0,9,9,27,1,,,,,,,,,,,,,,,,,,,,,,,,,,,,,,,,,,,,,,,,
,,,,,SPR24_006,18,F,2024-04-05_10h27.02.537,jersey_experiment_5_v0,2023.2.2,Win32,86.20689655,,,,,,,,,,,,,,,,251.7498,252.7966,252.7967,254.1968,return,0.1428,,50.78125,,,,,,FBP-YG-71.png,0.35,1.2,16,0.25,0,10,10,15,1,,,,,,,,,,,,,,,,,,,,,,,,,,,,,,,,,,,,,,,,
,,,,,SPR24_006,18,F,2024-04-05_10h27.02.537,jersey_experiment_5_v0,2023.2.2,Win32,86.20689655,,,,,,,,,,,,,,,,254.197,255.2439,255.2439,256.7733,return,0.131,,37.76041667,,,,,,FBP-PT-91.png,0.35,1.2,56,0.25,0,11,11,55,1,,,,,,,,,,,,,,,,,,,,,,,,,,,,,,,,,,,,,,,,
,,,,,SPR24_006,18,F,2024-04-05_10h27.02.537,jersey_experiment_5_v0,2023.2.2,Win32,86.20689655,,,,,,,,,,,,,,,,256.7735,258.0677,258.0677,259.0911,return,0.0608,,41.796875,,,,,,FBP-RB-91.png,0.37,1.2,42,0.5,0,12,12,41,1,,,,,,,,,,,,,,,,,,,,,,,,,,,,,,,,,,,,,,,,
,,,,,SPR24_006,18,F,2024-04-05_10h27.02.537,jersey_experiment_5_v0,2023.2.2,Win32,86.20689655,,,,,,,,,,,,,,,,259.0913,260.3851,260.3852,261.7617,return,0.1111,,99.47916667,,,,,,FBP-OG-18.png,0.45,1.2,10,0.5,0,13,13,9,1,,,,,,,,,,,,,,,,,,,,,,,,,,,,,,,,,,,,,,,,
,,,,,SPR24_006,18,F,2024-04-05_10h27.02.537,jersey_experiment_5_v0,2023.2.2,Win32,86.20689655,,,,,,,,,,,,,,,,261.762,263.0562,263.0562,263.844,return,0.1057,,99.86979167,,,,,,FBP-OG-18.png,0.43,1.2,9,0.5,0,14,14,8,1,,,,,,,,,,,,,,,,,,,,,,,,,,,,,,,,,,,,,,,,
,,,,,SPR24_006,18,F,2024-04-05_10h27.02.537,jersey_experiment_5_v0,2023.2.2,Win32,86.20689655,,,,,,,,,,,,,,,,263.8443,265.1383,265.1384,268.0679,return,0.1318,,74.08854167,,,,,,FBP-RB-81.png,0.37,1.2,37,0.5,0,15,15,36,1,,,,,,,,,,,,,,,,,,,,,,,,,,,,,,,,,,,,,,,,
,,,,,SPR24_006,18,F,2024-04-05_10h27.02.537,jersey_experiment_5_v0,2023.2.2,Win32,86.20689655,,,,,,,,,,,,,,,,268.068,269.115,269.115,271.0327,return,0.1087,,98.69791667,,,,,,FBP-PT-71.png,0.45,1.2,50,0.25,0,16,16,49,1,,,,,,,,,,,,,,,,,,,,,,,,,,,,,,,,,,,,,,,,
,,,,,SPR24_006,18,F,2024-04-05_10h27.02.537,jersey_experiment_5_v0,2023.2.2,Win32,86.20689655,,,,,,,,,,,,,,,,271.0329,272.0797,272.0797,273.4799,return,0.1317,,52.34375,,,,,,FBP-PT-81.png,0.37,1.2,52,0.25,0,17,17,51,1,,,,,,,,,,,,,,,,,,,,,,,,,,,,,,,,,,,,,,,,
,,,,,SPR24_006,18,F,2024-04-05_10h27.02.537,jersey_experiment_5_v0,2023.2.2,Win32,86.20689655,,,,,,,,,,,,,,,,273.4802,274.774,274.7741,276.186,return,0.095,,27.34375,,,,,,FBP-OG-17.png,0.37,1.2,2,0.5,0,18,18,1,1,,,,,,,,,,,,,,,,,,,,,,,,,,,,,,,,,,,,,,,,
,,,,,SPR24_006,18,F,2024-04-05_10h27.02.537,jersey_experiment_5_v0,2023.2.2,Win32,86.20689655,,,,,,,,,,,,,,,,276.1861,277.4802,277.4803,278.3857,return,0.0986,,50.52083333,,,,,,FBP-RB-81.png,0.4,1.2,38,0.5,0,19,19,37,1,,,,,,,,,,,,,,,,,,,,,,,,,,,,,,,,,,,,,,,,
,,,,,SPR24_006,18,F,2024-04-05_10h27.02.537,jersey_experiment_5_v0,2023.2.2,Win32,86.20689655,,,,,,,,,,,,,,,,278.386,279.433,279.433,280.5977,return,0.0476,,74.34895833,,,,,,FBP-YG-71.png,0.4,1.2,18,0.25,0,20,20,17,1,,,,,,,,,,,,,,,,,,,,,,,,,,,,,,,,,,,,,,,,
,,,,,SPR24_006,18,F,2024-04-05_10h27.02.537,jersey_experiment_5_v0,2023.2.2,Win32,86.20689655,,,,,,,,,,,,,,,,280.5979,281.892,281.8921,282.7507,return,0.1945,,58.203125,,,,,,FBP-RB-71.png,0.37,1.2,32,0.5,0,21,21,31,1,,,,,,,,,,,,,,,,,,,,,,,,,,,,,,,,,,,,,,,,
,,,,,SPR24_006,18,F,2024-04-05_10h27.02.537,jersey_experiment_5_v0,2023.2.2,Win32,86.20689655,,,,,,,,,,,,,,,,282.7509,283.7977,283.7977,285.3154,return,0.0955,,98.17708333,,,,,,FBP-YG-71.png,0.43,1.2,19,0.25,0,22,22,18,1,,,,,,,,,,,,,,,,,,,,,,,,,,,,,,,,,,,,,,,,
,,,,,SPR24_006,18,F,2024-04-05_10h27.02.537,jersey_experiment_5_v0,2023.2.2,Win32,86.20689655,,,,,,,,,,,,,,,,285.3157,286.6098,286.6098,287.5981,return,0.1481,,99.21875,,,,,,FBP-RB-81.png,0.45,1.2,40,0.5,0,23,23,39,1,,,,,,,,,,,,,,,,,,,,,,,,,,,,,,,,,,,,,,,,
,,,,,SPR24_006,18,F,2024-04-05_10h27.02.537,jersey_experiment_5_v0,2023.2.2,Win32,86.20689655,,,,,,,,,,,,,,,,287.5983,288.6449,288.6449,289.3744,return,0.1596,,99.08854167,,,,,,FBP-PT-81.png,0.43,1.2,54,0.25,0,24,24,53,1,,,,,,,,,,,,,,,,,,,,,,,,,,,,,,,,,,,,,,,,
,,,,,SPR24_006,18,F,2024-04-05_10h27.02.537,jersey_experiment_5_v0,2023.2.2,Win32,86.20689655,,,,,,,,,,,,,,,,289.3746,290.6688,290.6688,292.5276,return,0.0775,,75.13020833,,,,,,FBP-RB-71.png,0.45,1.2,35,0.5,0,25,25,34,1,,,,,,,,,,,,,,,,,,,,,,,,,,,,,,,,,,,,,,,,
,,,,,SPR24_006,18,F,2024-04-05_10h27.02.537,jersey_experiment_5_v0,2023.2.2,Win32,86.20689655,,,,,,,,,,,,,,,,292.5279,293.8216,293.8217,295.6805,return,0.1225,,98.4375,,,,,,FBP-RB-91.png,0.43,1.2,44,0.5,0,26,26,43,1,,,,,,,,,,,,,,,,,,,,,,,,,,,,,,,,,,,,,,,,
,,,,,SPR24_006,18,F,2024-04-05_10h27.02.537,jersey_experiment_5_v0,2023.2.2,Win32,86.20689655,,,,,,,,,,,,,,,,295.6807,296.9748,296.9749,297.763,return,0.1893,,95.57291667,,,,,,FBP-RB-71.png,0.43,1.2,34,0.5,0,27,27,33,1,,,,,,,,,,,,,,,,,,,,,,,,,,,,,,,,,,,,,,,,
,,,,,SPR24_006,18,F,2024-04-05_10h27.02.537,jersey_experiment_5_v0,2023.2.2,Win32,86.20689655,,,,,,,,,,,,,,,,297.7633,298.8101,298.8101,299.7631,return,0.1331,,98.4375,,,,,,FBP-YG-91.png,0.43,1.2,29,0.25,0,28,28,28,1,,,,,,,,,,,,,,,,,,,,,,,,,,,,,,,,,,,,,,,,
,,,,,SPR24_006,18,F,2024-04-05_10h27.02.537,jersey_experiment_5_v0,2023.2.2,Win32,86.20689655,,,,,,,,,,,,,,,,299.7633,301.0572,301.0572,302.2928,return,0.1533,,83.85416667,,,,,,FBP-OG-17.png,0.43,1.2,4,0.5,0,29,29,3,1,,,,,,,,,,,,,,,,,,,,,,,,,,,,,,,,,,,,,,,,
,,,,,SPR24_006,18,F,2024-04-05_10h27.02.537,jersey_experiment_5_v0,2023.2.2,Win32,86.20689655,,,,,,,,,,,,,,,,302.2931,303.3398,303.3399,304.9751,return,0.1959,,98.4375,,,,,,FBP-PT-71.png,0.43,1.2,49,0.25,0,30,30,48,1,,,,,,,,,,,,,,,,,,,,,,,,,,,,,,,,,,,,,,,,
,,,,,SPR24_006,18,F,2024-04-05_10h27.02.537,jersey_experiment_5_v0,2023.2.2,Win32,86.20689655,,,,,,,,,,,,,,,,304.9753,306.2692,306.2693,307.1986,return,0.1135,,73.4375,,,,,,FBP-RB-71.png,0.4,1.2,33,0.5,0,31,31,32,1,,,,,,,,,,,,,,,,,,,,,,,,,,,,,,,,,,,,,,,,
,,,,,SPR24_006,18,F,2024-04-05_10h27.02.537,jersey_experiment_5_v0,2023.2.2,Win32,86.20689655,,,,,,,,,,,,,,,,307.1989,308.4932,308.4932,310.5636,return,0.2731,,7.552083333,,,,,,FBP-OG-18.png,0.35,1.2,6,0.5,0,32,32,5,1,,,,,,,,,,,,,,,,,,,,,,,,,,,,,,,,,,,,,,,,
,,,,,SPR24_006,18,F,2024-04-05_10h27.02.537,jersey_experiment_5_v0,2023.2.2,Win32,86.20689655,,,,,,,,,,,,,,,,310.5639,311.8581,311.8581,313.2343,return,0.0989,,75.65104167,,,,,,FBP-RB-91.png,0.4,1.2,43,0.5,0,33,33,42,1,,,,,,,,,,,,,,,,,,,,,,,,,,,,,,,,,,,,,,,,
,,,,,SPR24_006,18,F,2024-04-05_10h27.02.537,jersey_experiment_5_v0,2023.2.2,Win32,86.20689655,,,,,,,,,,,,,,,,313.2345,314.5283,314.5284,315.9521,return,0.0746,,48.828125,,,,,,FBP-OG-18.png,0.4,1.2,8,0.5,0,34,34,7,1,,,,,,,,,,,,,,,,,,,,,,,,,,,,,,,,,,,,,,,,
,,,,,SPR24_006,18,F,2024-04-05_10h27.02.537,jersey_experiment_5_v0,2023.2.2,Win32,86.20689655,,,,,,,,,,,,,,,,315.9523,317.2462,317.2463,318.199,return,0.1184,,30.20833333,,,,,,FBP-OG-17.png,0.35,1.2,1,0.5,0,35,35,0,1,,,,,,,,,,,,,,,,,,,,,,,,,,,,,,,,,,,,,,,,
,,,,,SPR24_006,18,F,2024-04-05_10h27.02.537,jersey_experiment_5_v0,2023.2.2,Win32,86.20689655,,,,,,,,,,,,,,,,318.1993,319.2463,319.2464,319.9992,return,0.0895,,30.98958333,,,,,,FBP-PT-91.png,0.37,1.2,57,0.25,0,36,36,56,1,,,,,,,,,,,,,,,,,,,,,,,,,,,,,,,,,,,,,,,,
,,,,,SPR24_006,18,F,2024-04-05_10h27.02.537,jersey_experiment_5_v0,2023.2.2,Win32,86.20689655,,,,,,,,,,,,,,,,319.9996,321.0463,321.0464,321.9289,return,0.1655,,26.43229167,,,,,,FBP-PT-71.png,0.37,1.2,47,0.25,0,37,37,46,1,,,,,,,,,,,,,,,,,,,,,,,,,,,,,,,,,,,,,,,,
,,,,,SPR24_006,18,F,2024-04-05_10h27.02.537,jersey_experiment_5_v0,2023.2.2,Win32,86.20689655,,,,,,,,,,,,,,,,321.9291,322.9758,322.9758,324.9524,return,0.1274,,60.41666667,,,,,,FBP-PT-71.png,0.4,1.2,48,0.25,0,38,38,47,1,,,,,,,,,,,,,,,,,,,,,,,,,,,,,,,,,,,,,,,,
,,,,,SPR24_006,18,F,2024-04-05_10h27.02.537,jersey_experiment_5_v0,2023.2.2,Win32,86.20689655,,,,,,,,,,,,,,,,324.9527,326.2463,326.2464,327.6465,return,0.1141,,99.47916667,,,,,,FBP-RB-91.png,0.45,1.2,45,0.5,0,39,39,44,1,,,,,,,,,,,,,,,,,,,,,,,,,,,,,,,,,,,,,,,,
,,,,,SPR24_006,18,F,2024-04-05_10h27.02.537,jersey_experiment_5_v0,2023.2.2,Win32,86.20689655,,,,,,,,,,,,,,,,327.6467,328.9407,328.9407,331.1765,return,0.1887,,67.1875,,,,,,FBP-OG-17.png,0.4,1.2,3,0.5,0,40,40,2,1,,,,,,,,,,,,,,,,,,,,,,,,,,,,,,,,,,,,,,,,
,,,,,SPR24_006,18,F,2024-04-05_10h27.02.537,jersey_experiment_5_v0,2023.2.2,Win32,86.20689655,,,,,,,,,,,,,,,,331.1767,332.2232,332.2232,333.4937,return,0.1521,,29.16666667,,,,,,FBP-YG-91.png,0.35,1.2,26,0.25,0,41,41,25,1,,,,,,,,,,,,,,,,,,,,,,,,,,,,,,,,,,,,,,,,
,,,,,SPR24_006,18,F,2024-04-05_10h27.02.537,jersey_experiment_5_v0,2023.2.2,Win32,86.20689655,,,,,,,,,,,,,,,,333.4939,334.7878,334.7879,336.7291,return,0.1179,,99.08854167,,,,,,FBP-OG-17.png,0.45,1.2,5,0.5,0,42,42,4,1,,,,,,,,,,,,,,,,,,,,,,,,,,,,,,,,,,,,,,,,
,,,,,SPR24_006,18,F,2024-04-05_10h27.02.537,jersey_experiment_5_v0,2023.2.2,Win32,86.20689655,,,,,,,,,,,,,,,,336.7293,337.7762,337.7763,339.2001,return,0.0647,,23.95833333,,,,,,FBP-PT-81.png,0.35,1.2,51,0.25,0,43,43,50,1,,,,,,,,,,,,,,,,,,,,,,,,,,,,,,,,,,,,,,,,
,,,,,SPR24_006,18,F,2024-04-05_10h27.02.537,jersey_experiment_5_v0,2023.2.2,Win32,86.20689655,,,,,,,,,,,,,,,,339.2003,340.4942,340.4943,341.3295,return,0.1462,,23.17708333,,,,,,FBP-OG-19.png,0.4,1.2,13,0.5,0,44,44,12,1,,,,,,,,,,,,,,,,,,,,,,,,,,,,,,,,,,,,,,,,
,,,,,SPR24_006,18,F,2024-04-05_10h27.02.537,jersey_experiment_5_v0,2023.2.2,Win32,86.20689655,,,,,,,,,,,,,,,,341.3296,342.3764,342.3764,344.5529,return,0.3761,,98.4375,,,,,,FBP-PT-91.png,0.45,1.2,60,0.25,0,45,45,59,1,,,,,,,,,,,,,,,,,,,,,,,,,,,,,,,,,,,,,,,,
,,,,,SPR24_006,18,F,2024-04-05_10h27.02.537,jersey_experiment_5_v0,2023.2.2,Win32,86.20689655,,,,,,,,,,,,,,,,344.5531,345.8472,345.8473,347.5417,return,0.1045,,45.05208333,,,,,,FBP-OG-18.png,0.37,1.2,7,0.5,0,46,46,6,1,,,,,,,,,,,,,,,,,,,,,,,,,,,,,,,,,,,,,,,,
,,,,,SPR24_006,18,F,2024-04-05_10h27.02.537,jersey_experiment_5_v0,2023.2.2,Win32,86.20689655,,,,,,,,,,,,,,,,347.5419,348.5884,348.5885,349.5767,return,0.1403,,78.38541667,,,,,,FBP-YG-81.png,0.43,1.2,24,0.25,0,47,47,23,1,,,,,,,,,,,,,,,,,,,,,,,,,,,,,,,,,,,,,,,,
,,,,,SPR24_006,18,F,2024-04-05_10h27.02.537,jersey_experiment_5_v0,2023.2.2,Win32,86.20689655,,,,,,,,,,,,,,,,349.577,350.6238,350.6238,351.5062,return,0.0395,,43.75,,,,,,FBP-PT-71.png,0.35,1.2,46,0.25,0,48,48,45,1,,,,,,,,,,,,,,,,,,,,,,,,,,,,,,,,,,,,,,,,
,,,,,SPR24_006,18,F,2024-04-05_10h27.02.537,jersey_experiment_5_v0,2023.2.2,Win32,86.20689655,,,,,,,,,,,,,,,,351.5064,352.5534,352.5535,353.4595,return,0.0383,,46.22395833,,,,,,FBP-PT-91.png,0.4,1.2,58,0.25,0,49,49,57,1,,,,,,,,,,,,,,,,,,,,,,,,,,,,,,,,,,,,,,,,
,,,,,SPR24_006,18,F,2024-04-05_10h27.02.537,jersey_experiment_5_v0,2023.2.2,Win32,86.20689655,,,,,,,,,,,,,,,,353.4597,354.7535,354.7535,356.5184,return,0.071,,25.52083333,,,,,,FBP-OG-19.png,0.37,1.2,12,0.5,0,50,50,11,1,,,,,,,,,,,,,,,,,,,,,,,,,,,,,,,,,,,,,,,,
,,,,,SPR24_006,18,F,2024-04-05_10h27.02.537,jersey_experiment_5_v0,2023.2.2,Win32,86.20689655,,,,,,,,,,,,,,,,356.5185,357.8124,357.8126,358.6476,return,0.0713,,81.51041667,,,,,,FBP-OG-19.png,0.43,1.2,14,0.5,0,51,51,13,1,,,,,,,,,,,,,,,,,,,,,,,,,,,,,,,,,,,,,,,,
,,,,,SPR24_006,18,F,2024-04-05_10h27.02.537,jersey_experiment_5_v0,2023.2.2,Win32,86.20689655,,,,,,,,,,,,,,,,358.6478,359.9418,359.9419,360.8714,return,0.1884,,96.09375,,,,,,FBP-OG-19.png,0.45,1.2,15,0.5,0,52,52,14,1,,,,,,,,,,,,,,,,,,,,,,,,,,,,,,,,,,,,,,,,
,,,,,SPR24_006,18,F,2024-04-05_10h27.02.537,jersey_experiment_5_v0,2023.2.2,Win32,86.20689655,,,,,,,,,,,,,,,,360.8716,361.9182,361.9183,362.848,return,0.1699,,92.1875,,,,,,FBP-YG-81.png,0.4,1.2,23,0.25,0,53,53,22,1,,,,,,,,,,,,,,,,,,,,,,,,,,,,,,,,,,,,,,,,
,,,,,SPR24_006,18,F,2024-04-05_10h27.02.537,jersey_experiment_5_v0,2023.2.2,Win32,86.20689655,,,,,,,,,,,,,,,,362.8482,363.8949,363.8949,365.1537,return,0.1681,,99.08854167,,,,,,FBP-YG-71.png,0.45,1.2,20,0.25,0,54,54,19,1,,,,,,,,,,,,,,,,,,,,,,,,,,,,,,,,,,,,,,,,
,,,,,SPR24_006,18,F,2024-04-05_10h27.02.537,jersey_experiment_5_v0,2023.2.2,Win32,86.20689655,,,,,,,,,,,,,,,,365.1539,366.4479,366.448,369.5072,return,1.1217,,46.484375,,,,,,FBP-RB-81.png,0.35,1.2,36,0.5,0,55,55,35,1,,,,,,,,,,,,,,,,,,,,,,,,,,,,,,,,,,,,,,,,
,,,,,SPR24_006,18,F,2024-04-05_10h27.02.537,jersey_experiment_5_v0,2023.2.2,Win32,86.20689655,,,,,,,,,,,,,,,,369.5075,370.5541,370.5541,372.0011,return,0.1338,,56.38020833,,,,,,FBP-PT-81.png,0.4,1.2,53,0.25,0,56,56,52,1,,,,,,,,,,,,,,,,,,,,,,,,,,,,,,,,,,,,,,,,
,,,,,SPR24_006,18,F,2024-04-05_10h27.02.537,jersey_experiment_5_v0,2023.2.2,Win32,86.20689655,,,,,,,,,,,,,,,,372.0012,373.2953,373.2953,374.3893,return,0.1188,,27.08333333,,,,,,FBP-RB-71.png,0.35,1.2,31,0.5,0,57,57,30,1,,,,,,,,,,,,,,,,,,,,,,,,,,,,,,,,,,,,,,,,
,,,,,SPR24_006,18,F,2024-04-05_10h27.02.537,jersey_experiment_5_v0,2023.2.2,Win32,86.20689655,,,,,,,,,,,,,,,,374.3895,375.4366,375.4366,377.0013,return,0.1637,,99.73958333,,,,,,FBP-PT-81.png,0.45,1.2,55,0.25,0,58,58,54,1,,,,,,,,,,,,,,,,,,,,,,,,,,,,,,,,,,,,,,,,
,,,,,SPR24_006,18,F,2024-04-05_10h27.02.537,jersey_experiment_5_v0,2023.2.2,Win32,86.20689655,,,,,,,,,,,,,,,,377.0015,378.0484,378.0484,379.0721,return,0.1108,,98.828125,,,,,,FBP-YG-91.png,0.45,1.2,30,0.25,0,59,59,29,1,,,,,,,,,,,,,,,,,,,,,,,,,,,,,,,,,,,,,,,,
,,,,,SPR24_006,18,F,2024-04-05_10h27.02.537,jersey_experiment_5_v0,2023.2.2,Win32,86.20689655,,,,,,,,,,,,,,,,,,,,,,,,,,,,,,,,,,,,,,,379.0724,499.065,,,,,,,,,,,,,,,,,,,,,,,,,,,,,,,,,,,,,,
,,,,,SPR24_006,18,F,2024-04-05_10h27.02.537,jersey_experiment_5_v0,2023.2.2,Win32,86.20689655,,,,,,,,,,,,,,,,,,,,,,,,,,,,,,,,,,,,,,,,,499.0651,502.2182,return,3.1433,,,,,,,,,,,,,,,,,,,,,,,,,,,,,,,,,,
,,,,,SPR24_006,18,F,2024-04-05_10h27.02.537,jersey_experiment_5_v0,2023.2.2,Win32,86.20689655,,,,,,,,,,,,,,,,502.2242,503.5238,503.5238,505.0651,return,0.165,,33.984375,,,,,,FBP-YG-18.png,0.37,1.2,22,0.5,,,,,,,,,,,,,0,0,0,21,1,,,,,,,,,,,,,,,,,,,,,,,,,,,,
,,,,,SPR24_006,18,F,2024-04-05_10h27.02.537,jersey_experiment_5_v0,2023.2.2,Win32,86.20689655,,,,,,,,,,,,,,,,505.0653,506.112,506.1121,507.3827,return,0.0943,,75,,,,,,FBP-OG-71.png,0.43,1.2,4,0.25,,,,,,,,,,,,,0,1,1,3,1,,,,,,,,,,,,,,,,,,,,,,,,,,,,
,,,,,SPR24_006,18,F,2024-04-05_10h27.02.537,jersey_experiment_5_v0,2023.2.2,Win32,86.20689655,,,,,,,,,,,,,,,,507.3829,508.43,508.43,509.1239,return,0.1297,,74.86979167,,,,,,FBP-OG-91.png,0.4,1.2,13,0.25,,,,,,,,,,,,,0,2,2,12,1,,,,,,,,,,,,,,,,,,,,,,,,,,,,
,,,,,SPR24_006,18,F,2024-04-05_10h27.02.537,jersey_experiment_5_v0,2023.2.2,Win32,86.20689655,,,,,,,,,,,,,,,,509.124,510.171,510.1711,511.9357,return,0.1364,,99.47916667,,,,,,FBP-RB-19.png,0.43,1.2,44,0.25,,,,,,,,,,,,,0,3,3,43,1,,,,,,,,,,,,,,,,,,,,,,,,,,,,
,,,,,SPR24_006,18,F,2024-04-05_10h27.02.537,jersey_experiment_5_v0,2023.2.2,Win32,86.20689655,,,,,,,,,,,,,,,,511.936,513.2302,513.2302,514.3828,return,0.1137,,25,,,,,,FBP-PT-18.png,0.35,1.2,51,0.5,,,,,,,,,,,,,0,4,4,50,1,,,,,,,,,,,,,,,,,,,,,,,,,,,,
,,,,,SPR24_006,18,F,2024-04-05_10h27.02.537,jersey_experiment_5_v0,2023.2.2,Win32,86.20689655,,,,,,,,,,,,,,,,514.383,515.43,515.43,516.9007,return,0.1181,,11.84895833,,,,,,FBP-OG-81.png,0.35,1.2,6,0.25,,,,,,,,,,,,,0,5,5,5,1,,,,,,,,,,,,,,,,,,,,,,,,,,,,
,,,,,SPR24_006,18,F,2024-04-05_10h27.02.537,jersey_experiment_5_v0,2023.2.2,Win32,86.20689655,,,,,,,,,,,,,,,,516.901,518.1948,518.1949,518.8538,return,0.1782,,13.02083333,,,,,,FBP-PT-18.png,0.37,1.2,52,0.5,,,,,,,,,,,,,0,6,6,51,1,,,,,,,,,,,,,,,,,,,,,,,,,,,,
,,,,,SPR24_006,18,F,2024-04-05_10h27.02.537,jersey_experiment_5_v0,2023.2.2,Win32,86.20689655,,,,,,,,,,,,,,,,518.8541,519.9007,519.9008,521.8421,return,0.1677,,76.171875,,,,,,FBP-OG-71.png,0.45,1.2,5,0.25,,,,,,,,,,,,,0,7,7,4,1,,,,,,,,,,,,,,,,,,,,,,,,,,,,
,,,,,SPR24_006,18,F,2024-04-05_10h27.02.537,jersey_experiment_5_v0,2023.2.2,Win32,86.20689655,,,,,,,,,,,,,,,,521.8423,523.1363,523.1363,524.4656,return,0.0994,,25.65104167,,,,,,FBP-YG-18.png,0.35,1.2,21,0.5,,,,,,,,,,,,,0,8,8,20,1,,,,,,,,,,,,,,,,,,,,,,,,,,,,
,,,,,SPR24_006,18,F,2024-04-05_10h27.02.537,jersey_experiment_5_v0,2023.2.2,Win32,86.20689655,,,,,,,,,,,,,,,,524.4658,525.513,525.513,526.5011,return,0.1776,,25.52083333,,,,,,FBP-RB-19.png,0.35,1.2,41,0.25,,,,,,,,,,,,,0,9,9,40,1,,,,,,,,,,,,,,,,,,,,,,,,,,,,
,,,,,SPR24_006,18,F,2024-04-05_10h27.02.537,jersey_experiment_5_v0,2023.2.2,Win32,86.20689655,,,,,,,,,,,,,,,,526.5014,527.7952,527.7953,529.5128,return,0.1648,,99.73958333,,,,,,FBP-YG-18.png,0.45,1.2,25,0.5,,,,,,,,,,,,,0,10,10,24,1,,,,,,,,,,,,,,,,,,,,,,,,,,,,
,,,,,SPR24_006,18,F,2024-04-05_10h27.02.537,jersey_experiment_5_v0,2023.2.2,Win32,86.20689655,,,,,,,,,,,,,,,,529.5131,530.807,530.8071,531.4306,return,0.128,,99.73958333,,,,,,FBP-PT-18.png,0.45,1.2,55,0.5,,,,,,,,,,,,,0,11,11,54,1,,,,,,,,,,,,,,,,,,,,,,,,,,,,
,,,,,SPR24_006,18,F,2024-04-05_10h27.02.537,jersey_experiment_5_v0,2023.2.2,Win32,86.20689655,,,,,,,,,,,,,,,,531.4308,532.4777,532.4777,533.1838,return,0.0524,,99.86979167,,,,,,FBP-OG-81.png,0.45,1.2,10,0.25,,,,,,,,,,,,,0,12,12,9,1,,,,,,,,,,,,,,,,,,,,,,,,,,,,
,,,,,SPR24_006,18,F,2024-04-05_10h27.02.537,jersey_experiment_5_v0,2023.2.2,Win32,86.20689655,,,,,,,,,,,,,,,,533.184,534.4778,534.4778,535.5248,return,0.0725,,74.86979167,,,,,,FBP-YG-19.png,0.4,1.2,28,0.5,,,,,,,,,,,,,0,13,13,27,1,,,,,,,,,,,,,,,,,,,,,,,,,,,,
,,,,,SPR24_006,18,F,2024-04-05_10h27.02.537,jersey_experiment_5_v0,2023.2.2,Win32,86.20689655,,,,,,,,,,,,,,,,535.5251,536.8191,536.8191,537.8073,return,0.1118,,99.73958333,,,,,,FBP-YG-18.png,0.43,1.2,24,0.5,,,,,,,,,,,,,0,14,14,23,1,,,,,,,,,,,,,,,,,,,,,,,,,,,,
,,,,,SPR24_006,18,F,2024-04-05_10h27.02.537,jersey_experiment_5_v0,2023.2.2,Win32,86.20689655,,,,,,,,,,,,,,,,537.8075,538.8545,538.8545,539.478,return,0.0581,,99.609375,,,,,,FBP-OG-91.png,0.45,1.2,15,0.25,,,,,,,,,,,,,0,15,15,14,1,,,,,,,,,,,,,,,,,,,,,,,,,,,,
,,,,,SPR24_006,18,F,2024-04-05_10h27.02.537,jersey_experiment_5_v0,2023.2.2,Win32,86.20689655,,,,,,,,,,,,,,,,539.4782,540.7721,540.7721,541.3016,return,0.1551,,99.609375,,,,,,FBP-PT-19.png,0.45,1.2,60,0.5,,,,,,,,,,,,,0,16,16,59,1,,,,,,,,,,,,,,,,,,,,,,,,,,,,
,,,,,SPR24_006,18,F,2024-04-05_10h27.02.537,jersey_experiment_5_v0,2023.2.2,Win32,86.20689655,,,,,,,,,,,,,,,,541.3019,542.3486,542.3486,544.0193,return,0.2019,,24.609375,,,,,,FBP-OG-71.png,0.35,1.2,1,0.25,,,,,,,,,,,,,0,17,17,0,1,,,,,,,,,,,,,,,,,,,,,,,,,,,,
,,,,,SPR24_006,18,F,2024-04-05_10h27.02.537,jersey_experiment_5_v0,2023.2.2,Win32,86.20689655,,,,,,,,,,,,,,,,544.0194,545.3135,545.3135,547.5723,return,0.6243,,3.515625,,,,,,FBP-PT-19.png,0.35,1.2,56,0.5,,,,,,,,,,,,,0,18,18,55,1,,,,,,,,,,,,,,,,,,,,,,,,,,,,
,,,,,SPR24_006,18,F,2024-04-05_10h27.02.537,jersey_experiment_5_v0,2023.2.2,Win32,86.20689655,,,,,,,,,,,,,,,,547.5725,548.6195,548.6195,550.1372,return,0.1178,,75.26041667,,,,,,FBP-RB-17.png,0.43,1.2,34,0.25,,,,,,,,,,,,,0,19,19,33,1,,,,,,,,,,,,,,,,,,,,,,,,,,,,
,,,,,SPR24_006,18,F,2024-04-05_10h27.02.537,jersey_experiment_5_v0,2023.2.2,Win32,86.20689655,,,,,,,,,,,,,,,,550.1374,551.4315,551.4315,552.8666,return,0.0744,,48.828125,,,,,,FBP-YG-17.png,0.37,1.2,17,0.5,,,,,,,,,,,,,0,20,20,16,1,,,,,,,,,,,,,,,,,,,,,,,,,,,,
,,,,,SPR24_006,18,F,2024-04-05_10h27.02.537,jersey_experiment_5_v0,2023.2.2,Win32,86.20689655,,,,,,,,,,,,,,,,552.8669,554.1611,554.1612,555.0314,return,0.1521,,47.13541667,,,,,,FBP-PT-18.png,0.4,1.2,53,0.5,,,,,,,,,,,,,0,21,21,52,1,,,,,,,,,,,,,,,,,,,,,,,,,,,,
,,,,,SPR24_006,18,F,2024-04-05_10h27.02.537,jersey_experiment_5_v0,2023.2.2,Win32,86.20689655,,,,,,,,,,,,,,,,555.0316,556.0787,556.0787,557.7846,return,0.1046,,56.77083333,,,,,,FBP-OG-71.png,0.4,1.2,3,0.25,,,,,,,,,,,,,0,22,22,2,1,,,,,,,,,,,,,,,,,,,,,,,,,,,,
,,,,,SPR24_006,18,F,2024-04-05_10h27.02.537,jersey_experiment_5_v0,2023.2.2,Win32,86.20689655,,,,,,,,,,,,,,,,557.7847,559.0787,559.0788,560.0199,return,0.1437,,76.30208333,,,,,,FBP-PT-19.png,0.43,1.2,59,0.5,,,,,,,,,,,,,0,23,23,58,1,,,,,,,,,,,,,,,,,,,,,,,,,,,,
,,,,,SPR24_006,18,F,2024-04-05_10h27.02.537,jersey_experiment_5_v0,2023.2.2,Win32,86.20689655,,,,,,,,,,,,,,,,560.0201,561.314,561.314,562.7612,return,0.1414,,99.47916667,,,,,,FBP-YG-17.png,0.45,1.2,20,0.5,,,,,,,,,,,,,0,24,24,19,1,,,,,,,,,,,,,,,,,,,,,,,,,,,,
,,,,,SPR24_006,18,F,2024-04-05_10h27.02.537,jersey_experiment_5_v0,2023.2.2,Win32,86.20689655,,,,,,,,,,,,,,,,562.7615,564.0553,564.0554,565.9259,return,0.2357,,4.427083333,,,,,,FBP-PT-17.png,0.37,1.2,47,0.5,,,,,,,,,,,,,0,25,25,46,1,,,,,,,,,,,,,,,,,,,,,,,,,,,,
,,,,,SPR24_006,18,F,2024-04-05_10h27.02.537,jersey_experiment_5_v0,2023.2.2,Win32,86.20689655,,,,,,,,,,,,,,,,565.9262,566.9731,566.9732,568.1027,return,0.2356,,16.92708333,,,,,,FBP-RB-19.png,0.37,1.2,42,0.25,,,,,,,,,,,,,0,26,26,41,1,,,,,,,,,,,,,,,,,,,,,,,,,,,,
,,,,,SPR24_006,18,F,2024-04-05_10h27.02.537,jersey_experiment_5_v0,2023.2.2,Win32,86.20689655,,,,,,,,,,,,,,,,568.1029,569.397,569.397,571.7971,return,0.1541,,0.78125,,,,,,FBP-PT-17.png,0.35,1.2,46,0.5,,,,,,,,,,,,,0,27,27,45,1,,,,,,,,,,,,,,,,,,,,,,,,,,,,
,,,,,SPR24_006,18,F,2024-04-05_10h27.02.537,jersey_experiment_5_v0,2023.2.2,Win32,86.20689655,,,,,,,,,,,,,,,,571.7973,572.8441,572.8441,573.6323,return,0.1225,,9.765625,,,,,,FBP-RB-18.png,0.35,1.2,36,0.25,,,,,,,,,,,,,0,28,28,35,1,,,,,,,,,,,,,,,,,,,,,,,,,,,,
,,,,,SPR24_006,18,F,2024-04-05_10h27.02.537,jersey_experiment_5_v0,2023.2.2,Win32,86.20689655,,,,,,,,,,,,,,,,573.6324,574.6793,574.6793,575.7029,return,0.1547,,36.06770833,,,,,,FBP-OG-71.png,0.37,1.2,2,0.25,,,,,,,,,,,,,0,29,29,1,1,,,,,,,,,,,,,,,,,,,,,,,,,,,,
,,,,,SPR24_006,18,F,2024-04-05_10h27.02.537,jersey_experiment_5_v0,2023.2.2,Win32,86.20689655,,,,,,,,,,,,,,,,575.7033,576.997,576.997,578.6794,return,0.5413,,25.52083333,,,,,,FBP-YG-19.png,0.35,1.2,26,0.5,,,,,,,,,,,,,0,30,30,25,1,,,,,,,,,,,,,,,,,,,,,,,,,,,,
,,,,,SPR24_006,18,F,2024-04-05_10h27.02.537,jersey_experiment_5_v0,2023.2.2,Win32,86.20689655,,,,,,,,,,,,,,,,578.6796,579.9738,579.9739,581.7149,return,0.0744,,98.95833333,,,,,,FBP-YG-19.png,0.45,1.2,30,0.5,,,,,,,,,,,,,0,31,31,29,1,,,,,,,,,,,,,,,,,,,,,,,,,,,,
,,,,,SPR24_006,18,F,2024-04-05_10h27.02.537,jersey_experiment_5_v0,2023.2.2,Win32,86.20689655,,,,,,,,,,,,,,,,581.7152,582.7619,582.762,584.3386,return,0.096,,41.53645833,,,,,,FBP-OG-91.png,0.35,1.2,11,0.25,,,,,,,,,,,,,0,32,32,10,1,,,,,,,,,,,,,,,,,,,,,,,,,,,,
,,,,,SPR24_006,18,F,2024-04-05_10h27.02.537,jersey_experiment_5_v0,2023.2.2,Win32,86.20689655,,,,,,,,,,,,,,,,584.3389,585.6328,585.6328,587.4561,return,0.157,,96.74479167,,,,,,FBP-YG-17.png,0.43,1.2,19,0.5,,,,,,,,,,,,,0,33,33,18,1,,,,,,,,,,,,,,,,,,,,,,,,,,,,
,,,,,SPR24_006,18,F,2024-04-05_10h27.02.537,jersey_experiment_5_v0,2023.2.2,Win32,86.20689655,,,,,,,,,,,,,,,,587.4564,588.5033,588.5034,589.974,return,0.1522,,45.05208333,,,,,,FBP-RB-18.png,0.37,1.2,37,0.25,,,,,,,,,,,,,0,34,34,36,1,,,,,,,,,,,,,,,,,,,,,,,,,,,,
,,,,,SPR24_006,18,F,2024-04-05_10h27.02.537,jersey_experiment_5_v0,2023.2.2,Win32,86.20689655,,,,,,,,,,,,,,,,589.9742,591.2682,591.2682,592.5152,return,0.0272,,75.52083333,,,,,,FBP-YG-18.png,0.4,1.2,23,0.5,,,,,,,,,,,,,0,35,35,22,1,,,,,,,,,,,,,,,,,,,,,,,,,,,,
,,,,,SPR24_006,18,F,2024-04-05_10h27.02.537,jersey_experiment_5_v0,2023.2.2,Win32,86.20689655,,,,,,,,,,,,,,,,592.5154,593.8094,593.8094,594.9038,return,0.0231,,69.01041667,,,,,,FBP-PT-19.png,0.37,1.2,57,0.5,,,,,,,,,,,,,0,36,36,56,1,,,,,,,,,,,,,,,,,,,,,,,,,,,,
,,,,,SPR24_006,18,F,2024-04-05_10h27.02.537,jersey_experiment_5_v0,2023.2.2,Win32,86.20689655,,,,,,,,,,,,,,,,594.9039,595.9506,595.9506,597.5271,return,0.1516,,97.00520833,,,,,,FBP-RB-18.png,0.45,1.2,40,0.25,,,,,,,,,,,,,0,37,37,39,1,,,,,,,,,,,,,,,,,,,,,,,,,,,,
,,,,,SPR24_006,18,F,2024-04-05_10h27.02.537,jersey_experiment_5_v0,2023.2.2,Win32,86.20689655,,,,,,,,,,,,,,,,597.5273,598.8213,598.8214,599.8567,return,0.2507,,99.34895833,,,,,,FBP-YG-19.png,0.43,1.2,29,0.5,,,,,,,,,,,,,0,38,38,28,1,,,,,,,,,,,,,,,,,,,,,,,,,,,,
,,,,,SPR24_006,18,F,2024-04-05_10h27.02.537,jersey_experiment_5_v0,2023.2.2,Win32,86.20689655,,,,,,,,,,,,,,,,599.857,600.9039,600.9039,601.6567,return,0.108,,99.86979167,,,,,,FBP-RB-18.png,0.4,1.2,38,0.25,,,,,,,,,,,,,0,39,39,37,1,,,,,,,,,,,,,,,,,,,,,,,,,,,,
,,,,,SPR24_006,18,F,2024-04-05_10h27.02.537,jersey_experiment_5_v0,2023.2.2,Win32,86.20689655,,,,,,,,,,,,,,,,601.657,602.9509,602.951,604.0332,return,0.0274,,50.13020833,,,,,,FBP-YG-17.png,0.4,1.2,18,0.5,,,,,,,,,,,,,0,40,40,17,1,,,,,,,,,,,,,,,,,,,,,,,,,,,,
,,,,,SPR24_006,18,F,2024-04-05_10h27.02.537,jersey_experiment_5_v0,2023.2.2,Win32,86.20689655,,,,,,,,,,,,,,,,604.0335,605.0805,605.0806,605.9747,return,0.1285,,34.11458333,,,,,,FBP-OG-81.png,0.37,1.2,7,0.25,,,,,,,,,,,,,0,41,41,6,1,,,,,,,,,,,,,,,,,,,,,,,,,,,,
,,,,,SPR24_006,18,F,2024-04-05_10h27.02.537,jersey_experiment_5_v0,2023.2.2,Win32,86.20689655,,,,,,,,,,,,,,,,605.9748,607.2687,607.2688,608.4688,return,0.1773,,48.95833333,,,,,,FBP-YG-19.png,0.37,1.2,27,0.5,,,,,,,,,,,,,0,42,42,26,1,,,,,,,,,,,,,,,,,,,,,,,,,,,,
,,,,,SPR24_006,18,F,2024-04-05_10h27.02.537,jersey_experiment_5_v0,2023.2.2,Win32,86.20689655,,,,,,,,,,,,,,,,608.469,609.5159,609.516,611.3278,return,0.8898,,63.15104167,,,,,,FBP-OG-81.png,0.4,1.2,8,0.25,,,,,,,,,,,,,0,43,43,7,1,,,,,,,,,,,,,,,,,,,,,,,,,,,,
,,,,,SPR24_006,18,F,2024-04-05_10h27.02.537,jersey_experiment_5_v0,2023.2.2,Win32,86.20689655,,,,,,,,,,,,,,,,611.3281,612.3748,612.3749,613.3279,return,0.1469,,43.48958333,,,,,,FBP-OG-91.png,0.37,1.2,12,0.25,,,,,,,,,,,,,0,44,44,11,1,,,,,,,,,,,,,,,,,,,,,,,,,,,,
,,,,,SPR24_006,18,F,2024-04-05_10h27.02.537,jersey_experiment_5_v0,2023.2.2,Win32,86.20689655,,,,,,,,,,,,,,,,613.3281,614.3749,614.375,615.2336,return,0.1099,,75,,,,,,FBP-OG-91.png,0.43,1.2,14,0.25,,,,,,,,,,,,,0,45,45,13,1,,,,,,,,,,,,,,,,,,,,,,,,,,,,
,,,,,SPR24_006,18,F,2024-04-05_10h27.02.537,jersey_experiment_5_v0,2023.2.2,Win32,86.20689655,,,,,,,,,,,,,,,,615.2339,616.2809,616.2809,617.0223,return,0.1379,,75.13020833,,,,,,FBP-OG-81.png,0.43,1.2,9,0.25,,,,,,,,,,,,,0,46,46,8,1,,,,,,,,,,,,,,,,,,,,,,,,,,,,
,,,,,SPR24_006,18,F,2024-04-05_10h27.02.537,jersey_experiment_5_v0,2023.2.2,Win32,86.20689655,,,,,,,,,,,,,,,,617.0225,618.0691,618.0692,618.9163,return,0.1436,,75.26041667,,,,,,FBP-RB-17.png,0.4,1.2,33,0.25,,,,,,,,,,,,,0,47,47,32,1,,,,,,,,,,,,,,,,,,,,,,,,,,,,
,,,,,SPR24_006,18,F,2024-04-05_10h27.02.537,jersey_experiment_5_v0,2023.2.2,Win32,86.20689655,,,,,,,,,,,,,,,,618.9164,620.2104,620.2105,620.8575,return,0.131,,75.52083333,,,,,,FBP-PT-18.png,0.43,1.2,54,0.5,,,,,,,,,,,,,0,48,48,53,1,,,,,,,,,,,,,,,,,,,,,,,,,,,,
,,,,,SPR24_006,18,F,2024-04-05_10h27.02.537,jersey_experiment_5_v0,2023.2.2,Win32,86.20689655,,,,,,,,,,,,,,,,620.8578,622.1517,622.1518,623.3047,return,0.1544,,92.31770833,,,,,,FBP-PT-17.png,0.43,1.2,49,0.5,,,,,,,,,,,,,0,49,49,48,1,,,,,,,,,,,,,,,,,,,,,,,,,,,,
,,,,,SPR24_006,18,F,2024-04-05_10h27.02.537,jersey_experiment_5_v0,2023.2.2,Win32,86.20689655,,,,,,,,,,,,,,,,623.305,624.3516,624.3517,625.505,return,0.0625,,30.59895833,,,,,,FBP-RB-17.png,0.35,1.2,31,0.25,,,,,,,,,,,,,0,50,50,30,1,,,,,,,,,,,,,,,,,,,,,,,,,,,,
,,,,,SPR24_006,18,F,2024-04-05_10h27.02.537,jersey_experiment_5_v0,2023.2.2,Win32,86.20689655,,,,,,,,,,,,,,,,625.5051,626.7989,626.7989,627.5752,return,0.0473,,77.08333333,,,,,,FBP-PT-19.png,0.4,1.2,58,0.5,,,,,,,,,,,,,0,51,51,57,1,,,,,,,,,,,,,,,,,,,,,,,,,,,,
,,,,,SPR24_006,18,F,2024-04-05_10h27.02.537,jersey_experiment_5_v0,2023.2.2,Win32,86.20689655,,,,,,,,,,,,,,,,627.5755,628.8697,628.8698,629.7756,return,0.1705,,71.74479167,,,,,,FBP-PT-17.png,0.4,1.2,48,0.5,,,,,,,,,,,,,0,52,52,47,1,,,,,,,,,,,,,,,,,,,,,,,,,,,,
,,,,,SPR24_006,18,F,2024-04-05_10h27.02.537,jersey_experiment_5_v0,2023.2.2,Win32,86.20689655,,,,,,,,,,,,,,,,629.7758,630.8226,630.8226,631.7991,return,0.0239,,75.78125,,,,,,FBP-RB-19.png,0.4,1.2,43,0.25,,,,,,,,,,,,,0,53,53,42,1,,,,,,,,,,,,,,,,,,,,,,,,,,,,
,,,,,SPR24_006,18,F,2024-04-05_10h27.02.537,jersey_experiment_5_v0,2023.2.2,Win32,86.20689655,,,,,,,,,,,,,,,,631.7993,632.8463,632.8463,634.2816,return,0.0822,,92.44791667,,,,,,FBP-RB-18.png,0.43,1.2,39,0.25,,,,,,,,,,,,,0,54,54,38,1,,,,,,,,,,,,,,,,,,,,,,,,,,,,
,,,,,SPR24_006,18,F,2024-04-05_10h27.02.537,jersey_experiment_5_v0,2023.2.2,Win32,86.20689655,,,,,,,,,,,,,,,,634.2817,635.5758,635.5758,636.611,return,0.0611,,22.265625,,,,,,FBP-YG-17.png,0.35,1.2,16,0.5,,,,,,,,,,,,,0,55,55,15,1,,,,,,,,,,,,,,,,,,,,,,,,,,,,
,,,,,SPR24_006,18,F,2024-04-05_10h27.02.537,jersey_experiment_5_v0,2023.2.2,Win32,86.20689655,,,,,,,,,,,,,,,,636.6112,637.9055,637.9055,639.4582,return,0.1689,,75.65104167,,,,,,FBP-PT-17.png,0.45,1.2,50,0.5,,,,,,,,,,,,,0,56,56,49,1,,,,,,,,,,,,,,,,,,,,,,,,,,,,
,,,,,SPR24_006,18,F,2024-04-05_10h27.02.537,jersey_experiment_5_v0,2023.2.2,Win32,86.20689655,,,,,,,,,,,,,,,,639.4585,640.5053,640.5054,641.9526,return,0.1813,,24.08854167,,,,,,FBP-RB-17.png,0.37,1.2,32,0.25,,,,,,,,,,,,,0,57,57,31,1,,,,,,,,,,,,,,,,,,,,,,,,,,,,
,,,,,SPR24_006,18,F,2024-04-05_10h27.02.537,jersey_experiment_5_v0,2023.2.2,Win32,86.20689655,,,,,,,,,,,,,,,,641.9527,642.9996,642.9997,643.8936,return,0.2015,,72.39583333,,,,,,FBP-RB-17.png,0.45,1.2,35,0.25,,,,,,,,,,,,,0,58,58,34,1,,,,,,,,,,,,,,,,,,,,,,,,,,,,
,,,,,SPR24_006,18,F,2024-04-05_10h27.02.537,jersey_experiment_5_v0,2023.2.2,Win32,86.20689655,,,,,,,,,,,,,,,,643.8939,644.9407,644.9407,646.2704,return,0.1003,,94.79166667,,,,,,FBP-RB-19.png,0.45,1.2,45,0.25,,,,,,,,,,,,,0,59,59,44,1,,,,,,,,,,,,,,,,,,,,,,,,,,,,
,,,,,SPR24_006,18,F,2024-04-05_10h27.02.537,jersey_experiment_5_v0,2023.2.2,Win32,86.20689655,,,,,,,,,,,,,,,,646.2715,647.3174,647.3175,648.6704,return,0.1953,,98.69791667,,,,,,FBP-OG-18.png,0.45,1.2,10,0.25,,,,,,,,,,,,,,,,,,0,0,0,9,1,,,,,,,,,,,,,,,,,,,,,,,
,,,,,SPR24_006,18,F,2024-04-05_10h27.02.537,jersey_experiment_5_v0,2023.2.2,Win32,86.20689655,,,,,,,,,,,,,,,,648.6706,649.9645,649.9645,651.6703,return,1.1634,,28.38541667,,,,,,FBP-YG-81.png,0.35,1.2,21,0.5,,,,,,,,,,,,,,,,,,0,1,1,20,1,,,,,,,,,,,,,,,,,,,,,,,
,,,,,SPR24_006,18,F,2024-04-05_10h27.02.537,jersey_experiment_5_v0,2023.2.2,Win32,86.20689655,,,,,,,,,,,,,,,,651.6704,652.7176,652.7177,654.1176,return,0.4251,,72.00520833,,,,,,FBP-OG-17.png,0.43,1.2,4,0.25,,,,,,,,,,,,,,,,,,0,2,2,3,1,,,,,,,,,,,,,,,,,,,,,,,
,,,,,SPR24_006,18,F,2024-04-05_10h27.02.537,jersey_experiment_5_v0,2023.2.2,Win32,86.20689655,,,,,,,,,,,,,,,,654.1179,655.1647,655.1648,656.5295,return,0.145,,54.16666667,,,,,,FBP-RB-91.png,0.37,1.2,42,0.25,,,,,,,,,,,,,,,,,,0,3,3,41,1,,,,,,,,,,,,,,,,,,,,,,,
,,,,,SPR24_006,18,F,2024-04-05_10h27.02.537,jersey_experiment_5_v0,2023.2.2,Win32,86.20689655,,,,,,,,,,,,,,,,656.5298,657.5765,657.5766,658.9649,return,0.1063,,23.828125,,,,,,FBP-OG-19.png,0.35,1.2,11,0.25,,,,,,,,,,,,,,,,,,0,4,4,10,1,,,,,,,,,,,,,,,,,,,,,,,
,,,,,SPR24_006,18,F,2024-04-05_10h27.02.537,jersey_experiment_5_v0,2023.2.2,Win32,86.20689655,,,,,,,,,,,,,,,,658.9651,660.0118,660.0119,661.2239,return,0.1183,,91.796875,,,,,,FBP-RB-71.png,0.45,1.2,35,0.25,,,,,,,,,,,,,,,,,,0,5,5,34,1,,,,,,,,,,,,,,,,,,,,,,,
,,,,,SPR24_006,18,F,2024-04-05_10h27.02.537,jersey_experiment_5_v0,2023.2.2,Win32,86.20689655,,,,,,,,,,,,,,,,661.2241,662.5181,662.5181,663.6356,return,0.3544,,96.74479167,,,,,,FBP-PT-81.png,0.43,1.2,54,0.5,,,,,,,,,,,,,,,,,,0,6,6,53,1,,,,,,,,,,,,,,,,,,,,,,,
,,,,,SPR24_006,18,F,2024-04-05_10h27.02.537,jersey_experiment_5_v0,2023.2.2,Win32,86.20689655,,,,,,,,,,,,,,,,663.6358,664.6826,664.6827,665.6709,return,0.1047,,99.86979167,,,,,,FBP-RB-81.png,0.45,1.2,40,0.25,,,,,,,,,,,,,,,,,,0,7,7,39,1,,,,,,,,,,,,,,,,,,,,,,,
,,,,,SPR24_006,18,F,2024-04-05_10h27.02.537,jersey_experiment_5_v0,2023.2.2,Win32,86.20689655,,,,,,,,,,,,,,,,665.6711,666.7181,666.7181,668.1536,return,0.2119,,64.58333333,,,,,,FBP-RB-81.png,0.37,1.2,37,0.25,,,,,,,,,,,,,,,,,,0,8,8,36,1,,,,,,,,,,,,,,,,,,,,,,,
,,,,,SPR24_006,18,F,2024-04-05_10h27.02.537,jersey_experiment_5_v0,2023.2.2,Win32,86.20689655,,,,,,,,,,,,,,,,668.1538,669.2003,669.2003,670.036,return,0.109,,60.28645833,,,,,,FBP-RB-91.png,0.4,1.2,43,0.25,,,,,,,,,,,,,,,,,,0,9,9,42,1,,,,,,,,,,,,,,,,,,,,,,,
,,,,,SPR24_006,18,F,2024-04-05_10h27.02.537,jersey_experiment_5_v0,2023.2.2,Win32,86.20689655,,,,,,,,,,,,,,,,670.0362,671.083,671.083,671.9185,return,0.0908,,51.953125,,,,,,FBP-RB-71.png,0.4,1.2,33,0.25,,,,,,,,,,,,,,,,,,0,10,10,32,1,,,,,,,,,,,,,,,,,,,,,,,
,,,,,SPR24_006,18,F,2024-04-05_10h27.02.537,jersey_experiment_5_v0,2023.2.2,Win32,86.20689655,,,,,,,,,,,,,,,,671.9186,673.2125,673.2125,674.0361,return,0.165,,53.90625,,,,,,FBP-YG-71.png,0.37,1.2,17,0.5,,,,,,,,,,,,,,,,,,0,11,11,16,1,,,,,,,,,,,,,,,,,,,,,,,
,,,,,SPR24_006,18,F,2024-04-05_10h27.02.537,jersey_experiment_5_v0,2023.2.2,Win32,86.20689655,,,,,,,,,,,,,,,,674.0363,675.083,675.083,676.4478,return,0.1481,,28.25520833,,,,,,FBP-RB-81.png,0.35,1.2,36,0.25,,,,,,,,,,,,,,,,,,0,12,12,35,1,,,,,,,,,,,,,,,,,,,,,,,
,,,,,SPR24_006,18,F,2024-04-05_10h27.02.537,jersey_experiment_5_v0,2023.2.2,Win32,86.20689655,,,,,,,,,,,,,,,,676.4481,677.7419,677.742,678.4244,return,0.1396,,33.46354167,,,,,,FBP-PT-71.png,0.35,1.2,46,0.5,,,,,,,,,,,,,,,,,,0,13,13,45,1,,,,,,,,,,,,,,,,,,,,,,,
,,,,,SPR24_006,18,F,2024-04-05_10h27.02.537,jersey_experiment_5_v0,2023.2.2,Win32,86.20689655,,,,,,,,,,,,,,,,678.4246,679.7185,679.7186,681.0597,return,0.2248,,77.734375,,,,,,FBP-PT-91.png,0.43,1.2,59,0.5,,,,,,,,,,,,,,,,,,0,14,14,58,1,,,,,,,,,,,,,,,,,,,,,,,
,,,,,SPR24_006,18,F,2024-04-05_10h27.02.537,jersey_experiment_5_v0,2023.2.2,Win32,86.20689655,,,,,,,,,,,,,,,,681.0599,682.354,682.354,683.1185,return,0.0667,,78.64583333,,,,,,FBP-PT-71.png,0.37,1.2,47,0.5,,,,,,,,,,,,,,,,,,0,15,15,46,1,,,,,,,,,,,,,,,,,,,,,,,
,,,,,SPR24_006,18,F,2024-04-05_10h27.02.537,jersey_experiment_5_v0,2023.2.2,Win32,86.20689655,,,,,,,,,,,,,,,,683.1188,684.4131,684.4131,684.9423,return,0.0783,,86.71875,,,,,,FBP-PT-81.png,0.45,1.2,55,0.5,,,,,,,,,,,,,,,,,,0,16,16,54,1,,,,,,,,,,,,,,,,,,,,,,,
,,,,,SPR24_006,18,F,2024-04-05_10h27.02.537,jersey_experiment_5_v0,2023.2.2,Win32,86.20689655,,,,,,,,,,,,,,,,684.9425,686.2364,686.2364,687.3189,return,0.2118,,26.30208333,,,,,,FBP-PT-81.png,0.35,1.2,51,0.5,,,,,,,,,,,,,,,,,,0,17,17,50,1,,,,,,,,,,,,,,,,,,,,,,,
,,,,,SPR24_006,18,F,2024-04-05_10h27.02.537,jersey_experiment_5_v0,2023.2.2,Win32,86.20689655,,,,,,,,,,,,,,,,687.319,688.613,688.613,690.0484,return,0.1238,,93.09895833,,,,,,FBP-YG-91.png,0.43,1.2,29,0.5,,,,,,,,,,,,,,,,,,0,18,18,28,1,,,,,,,,,,,,,,,,,,,,,,,
,,,,,SPR24_006,18,F,2024-04-05_10h27.02.537,jersey_experiment_5_v0,2023.2.2,Win32,86.20689655,,,,,,,,,,,,,,,,690.0486,691.3425,691.3425,692.0368,return,0.1318,,95.96354167,,,,,,FBP-PT-71.png,0.45,1.2,50,0.5,,,,,,,,,,,,,,,,,,0,19,19,49,1,,,,,,,,,,,,,,,,,,,,,,,
,,,,,SPR24_006,18,F,2024-04-05_10h27.02.537,jersey_experiment_5_v0,2023.2.2,Win32,86.20689655,,,,,,,,,,,,,,,,692.0369,693.3307,693.3308,694.3543,return,0.1694,,22.78645833,,,,,,FBP-PT-91.png,0.35,1.2,56,0.5,,,,,,,,,,,,,,,,,,0,20,20,55,1,,,,,,,,,,,,,,,,,,,,,,,
,,,,,SPR24_006,18,F,2024-04-05_10h27.02.537,jersey_experiment_5_v0,2023.2.2,Win32,86.20689655,,,,,,,,,,,,,,,,694.3545,695.4015,695.4015,697.2015,return,0.8055,,50.26041667,,,,,,FBP-OG-17.png,0.4,1.2,3,0.25,,,,,,,,,,,,,,,,,,0,21,21,2,1,,,,,,,,,,,,,,,,,,,,,,,
,,,,,SPR24_006,18,F,2024-04-05_10h27.02.537,jersey_experiment_5_v0,2023.2.2,Win32,86.20689655,,,,,,,,,,,,,,,,697.2018,698.4956,698.4957,699.2251,return,0.1747,,50.52083333,,,,,,FBP-YG-71.png,0.35,1.2,16,0.5,,,,,,,,,,,,,,,,,,0,22,22,15,1,,,,,,,,,,,,,,,,,,,,,,,
,,,,,SPR24_006,18,F,2024-04-05_10h27.02.537,jersey_experiment_5_v0,2023.2.2,Win32,86.20689655,,,,,,,,,,,,,,,,699.2253,700.5193,700.5193,702.0722,return,0.2122,,94.01041667,,,,,,FBP-YG-81.png,0.45,1.2,25,0.5,,,,,,,,,,,,,,,,,,0,23,23,24,1,,,,,,,,,,,,,,,,,,,,,,,
,,,,,SPR24_006,18,F,2024-04-05_10h27.02.537,jersey_experiment_5_v0,2023.2.2,Win32,86.20689655,,,,,,,,,,,,,,,,702.0725,703.3664,703.3664,704.4724,return,0.1279,,98.046875,,,,,,FBP-PT-91.png,0.45,1.2,60,0.5,,,,,,,,,,,,,,,,,,0,24,24,59,1,,,,,,,,,,,,,,,,,,,,,,,
,,,,,SPR24_006,18,F,2024-04-05_10h27.02.537,jersey_experiment_5_v0,2023.2.2,Win32,86.20689655,,,,,,,,,,,,,,,,704.4726,705.7665,705.7665,707.2961,return,0.1808,,74.08854167,,,,,,FBP-YG-81.png,0.37,1.2,22,0.5,,,,,,,,,,,,,,,,,,0,25,25,21,1,,,,,,,,,,,,,,,,,,,,,,,
,,,,,SPR24_006,18,F,2024-04-05_10h27.02.537,jersey_experiment_5_v0,2023.2.2,Win32,86.20689655,,,,,,,,,,,,,,,,707.2962,708.3432,708.3433,711.0964,return,1.5524,,46.875,,,,,,FBP-RB-71.png,0.43,1.2,34,0.25,,,,,,,,,,,,,,,,,,0,26,26,33,1,,,,,,,,,,,,,,,,,,,,,,,
,,,,,SPR24_006,18,F,2024-04-05_10h27.02.537,jersey_experiment_5_v0,2023.2.2,Win32,86.20689655,,,,,,,,,,,,,,,,711.0966,712.1433,712.1433,713.9199,return,0.1239,,50.26041667,,,,,,FBP-OG-17.png,0.37,1.2,2,0.25,,,,,,,,,,,,,,,,,,0,27,27,1,1,,,,,,,,,,,,,,,,,,,,,,,
,,,,,SPR24_006,18,F,2024-04-05_10h27.02.537,jersey_experiment_5_v0,2023.2.2,Win32,86.20689655,,,,,,,,,,,,,,,,713.9201,714.9668,714.9669,715.8258,return,0.1447,,49.609375,,,,,,FBP-RB-71.png,0.37,1.2,32,0.25,,,,,,,,,,,,,,,,,,0,28,28,31,1,,,,,,,,,,,,,,,,,,,,,,,
,,,,,SPR24_006,18,F,2024-04-05_10h27.02.537,jersey_experiment_5_v0,2023.2.2,Win32,86.20689655,,,,,,,,,,,,,,,,715.826,717.1199,717.12,718.12,return,0.1193,,70.83333333,,,,,,FBP-PT-81.png,0.4,1.2,53,0.5,,,,,,,,,,,,,,,,,,0,29,29,52,1,,,,,,,,,,,,,,,,,,,,,,,
,,,,,SPR24_006,18,F,2024-04-05_10h27.02.537,jersey_experiment_5_v0,2023.2.2,Win32,86.20689655,,,,,,,,,,,,,,,,718.1202,719.4141,719.4142,720.4024,return,0.4983,,75.13020833,,,,,,FBP-PT-91.png,0.4,1.2,58,0.5,,,,,,,,,,,,,,,,,,0,30,30,57,1,,,,,,,,,,,,,,,,,,,,,,,
,,,,,SPR24_006,18,F,2024-04-05_10h27.02.537,jersey_experiment_5_v0,2023.2.2,Win32,86.20689655,,,,,,,,,,,,,,,,720.4026,721.4495,721.4496,722.7438,return,0.2122,,99.08854167,,,,,,FBP-RB-91.png,0.45,1.2,45,0.25,,,,,,,,,,,,,,,,,,0,31,31,44,1,,,,,,,,,,,,,,,,,,,,,,,
,,,,,SPR24_006,18,F,2024-04-05_10h27.02.537,jersey_experiment_5_v0,2023.2.2,Win32,86.20689655,,,,,,,,,,,,,,,,722.744,723.7907,723.7907,725.5201,return,0.1695,,57.55208333,,,,,,FBP-OG-17.png,0.35,1.2,1,0.25,,,,,,,,,,,,,,,,,,0,32,32,0,1,,,,,,,,,,,,,,,,,,,,,,,
,,,,,SPR24_006,18,F,2024-04-05_10h27.02.537,jersey_experiment_5_v0,2023.2.2,Win32,86.20689655,,,,,,,,,,,,,,,,725.5204,726.5671,726.5672,728.1322,return,0.6128,,34.765625,,,,,,FBP-OG-18.png,0.35,1.2,6,0.25,,,,,,,,,,,,,,,,,,0,33,33,5,1,,,,,,,,,,,,,,,,,,,,,,,
,,,,,SPR24_006,18,F,2024-04-05_10h27.02.537,jersey_experiment_5_v0,2023.2.2,Win32,86.20689655,,,,,,,,,,,,,,,,728.1324,729.4264,729.4264,730.838,return,0.5315,,74.86979167,,,,,,FBP-YG-71.png,0.43,1.2,19,0.5,,,,,,,,,,,,,,,,,,0,34,34,18,1,,,,,,,,,,,,,,,,,,,,,,,
,,,,,SPR24_006,18,F,2024-04-05_10h27.02.537,jersey_experiment_5_v0,2023.2.2,Win32,86.20689655,,,,,,,,,,,,,,,,730.8383,732.1324,732.1324,733.4146,return,0.1413,,56.90104167,,,,,,FBP-YG-91.png,0.4,1.2,28,0.5,,,,,,,,,,,,,,,,,,0,35,35,27,1,,,,,,,,,,,,,,,,,,,,,,,
,,,,,SPR24_006,18,F,2024-04-05_10h27.02.537,jersey_experiment_5_v0,2023.2.2,Win32,86.20689655,,,,,,,,,,,,,,,,733.4148,734.7088,734.7088,735.3912,return,0.1722,,60.546875,,,,,,FBP-PT-71.png,0.4,1.2,48,0.5,,,,,,,,,,,,,,,,,,0,36,36,47,1,,,,,,,,,,,,,,,,,,,,,,,
,,,,,SPR24_006,18,F,2024-04-05_10h27.02.537,jersey_experiment_5_v0,2023.2.2,Win32,86.20689655,,,,,,,,,,,,,,,,735.3913,736.4383,736.4384,737.4384,return,0.1253,,95.57291667,,,,,,FBP-OG-19.png,0.45,1.2,15,0.25,,,,,,,,,,,,,,,,,,0,37,37,14,1,,,,,,,,,,,,,,,,,,,,,,,
,,,,,SPR24_006,18,F,2024-04-05_10h27.02.537,jersey_experiment_5_v0,2023.2.2,Win32,86.20689655,,,,,,,,,,,,,,,,737.4386,738.4854,738.4855,739.5678,return,0.1458,,31.51041667,,,,,,FBP-RB-91.png,0.35,1.2,41,0.25,,,,,,,,,,,,,,,,,,0,38,38,40,1,,,,,,,,,,,,,,,,,,,,,,,
,,,,,SPR24_006,18,F,2024-04-05_10h27.02.537,jersey_experiment_5_v0,2023.2.2,Win32,86.20689655,,,,,,,,,,,,,,,,739.5681,740.6149,740.615,741.9444,return,0.0937,,92.83854167,,,,,,FBP-RB-81.png,0.43,1.2,39,0.25,,,,,,,,,,,,,,,,,,0,39,39,38,1,,,,,,,,,,,,,,,,,,,,,,,
,,,,,SPR24_006,18,F,2024-04-05_10h27.02.537,jersey_experiment_5_v0,2023.2.2,Win32,86.20689655,,,,,,,,,,,,,,,,741.9447,743.2387,743.2387,744.18,return,0.0947,,35.28645833,,,,,,FBP-PT-91.png,0.37,1.2,57,0.5,,,,,,,,,,,,,,,,,,0,40,40,56,1,,,,,,,,,,,,,,,,,,,,,,,
,,,,,SPR24_006,18,F,2024-04-05_10h27.02.537,jersey_experiment_5_v0,2023.2.2,Win32,86.20689655,,,,,,,,,,,,,,,,744.1802,745.474,745.474,746.0626,return,0.1609,,37.5,,,,,,FBP-YG-81.png,0.4,1.2,23,0.5,,,,,,,,,,,,,,,,,,0,41,41,22,1,,,,,,,,,,,,,,,,,,,,,,,
,,,,,SPR24_006,18,F,2024-04-05_10h27.02.537,jersey_experiment_5_v0,2023.2.2,Win32,86.20689655,,,,,,,,,,,,,,,,746.0628,747.1094,747.1094,748.1682,return,0.1648,,50.91145833,,,,,,FBP-OG-19.png,0.37,1.2,12,0.25,,,,,,,,,,,,,,,,,,0,42,42,11,1,,,,,,,,,,,,,,,,,,,,,,,
,,,,,SPR24_006,18,F,2024-04-05_10h27.02.537,jersey_experiment_5_v0,2023.2.2,Win32,86.20689655,,,,,,,,,,,,,,,,748.1684,749.2153,749.2153,750.0034,return,0.1539,,50.26041667,,,,,,FBP-OG-18.png,0.37,1.2,7,0.25,,,,,,,,,,,,,,,,,,0,43,43,6,1,,,,,,,,,,,,,,,,,,,,,,,
,,,,,SPR24_006,18,F,2024-04-05_10h27.02.537,jersey_experiment_5_v0,2023.2.2,Win32,86.20689655,,,,,,,,,,,,,,,,750.0036,751.0506,751.0506,752.2155,return,0.34,,79.81770833,,,,,,FBP-OG-18.png,0.43,1.2,9,0.25,,,,,,,,,,,,,,,,,,0,44,44,8,1,,,,,,,,,,,,,,,,,,,,,,,
,,,,,SPR24_006,18,F,2024-04-05_10h27.02.537,jersey_experiment_5_v0,2023.2.2,Win32,86.20689655,,,,,,,,,,,,,,,,752.2156,753.2625,753.2626,754.2742,return,0.1449,,75.390625,,,,,,FBP-RB-81.png,0.4,1.2,38,0.25,,,,,,,,,,,,,,,,,,0,45,45,37,1,,,,,,,,,,,,,,,,,,,,,,,
,,,,,SPR24_006,18,F,2024-04-05_10h27.02.537,jersey_experiment_5_v0,2023.2.2,Win32,86.20689655,,,,,,,,,,,,,,,,754.2745,755.5686,755.5687,756.4038,return,0.2241,,89.453125,,,,,,FBP-PT-71.png,0.43,1.2,49,0.5,,,,,,,,,,,,,,,,,,0,46,46,48,1,,,,,,,,,,,,,,,,,,,,,,,
,,,,,SPR24_006,18,F,2024-04-05_10h27.02.537,jersey_experiment_5_v0,2023.2.2,Win32,86.20689655,,,,,,,,,,,,,,,,756.404,757.4509,757.4509,758.4625,return,0.1243,,99.34895833,,,,,,FBP-OG-17.png,0.45,1.2,5,0.25,,,,,,,,,,,,,,,,,,0,47,47,4,1,,,,,,,,,,,,,,,,,,,,,,,
,,,,,SPR24_006,18,F,2024-04-05_10h27.02.537,jersey_experiment_5_v0,2023.2.2,Win32,86.20689655,,,,,,,,,,,,,,,,758.4629,759.5098,759.5098,760.8392,return,0.1301,,52.60416667,,,,,,FBP-OG-18.png,0.4,1.2,8,0.25,,,,,,,,,,,,,,,,,,0,48,48,7,1,,,,,,,,,,,,,,,,,,,,,,,
,,,,,SPR24_006,18,F,2024-04-05_10h27.02.537,jersey_experiment_5_v0,2023.2.2,Win32,86.20689655,,,,,,,,,,,,,,,,760.8394,762.1333,762.1333,762.9687,return,0.2223,,51.82291667,,,,,,FBP-YG-91.png,0.37,1.2,27,0.5,,,,,,,,,,,,,,,,,,0,49,49,26,1,,,,,,,,,,,,,,,,,,,,,,,
,,,,,SPR24_006,18,F,2024-04-05_10h27.02.537,jersey_experiment_5_v0,2023.2.2,Win32,86.20689655,,,,,,,,,,,,,,,,762.9689,764.2629,764.2629,765.8749,return,0.1572,,95.703125,,,,,,FBP-YG-81.png,0.43,1.2,24,0.5,,,,,,,,,,,,,,,,,,0,50,50,23,1,,,,,,,,,,,,,,,,,,,,,,,
,,,,,SPR24_006,18,F,2024-04-05_10h27.02.537,jersey_experiment_5_v0,2023.2.2,Win32,86.20689655,,,,,,,,,,,,,,,,765.8751,767.1689,767.1689,768.1452,return,0.1335,,72.265625,,,,,,FBP-PT-81.png,0.37,1.2,52,0.5,,,,,,,,,,,,,,,,,,0,51,51,51,1,,,,,,,,,,,,,,,,,,,,,,,
,,,,,SPR24_006,18,F,2024-04-05_10h27.02.537,jersey_experiment_5_v0,2023.2.2,Win32,86.20689655,,,,,,,,,,,,,,,,768.1454,769.1926,769.1927,770.969,return,0.1517,,99.73958333,,,,,,FBP-RB-91.png,0.43,1.2,44,0.25,,,,,,,,,,,,,,,,,,0,52,52,43,1,,,,,,,,,,,,,,,,,,,,,,,
,,,,,SPR24_006,18,F,2024-04-05_10h27.02.537,jersey_experiment_5_v0,2023.2.2,Win32,86.20689655,,,,,,,,,,,,,,,,770.9692,772.0161,772.0161,774.0161,return,0.123,,30.859375,,,,,,FBP-RB-71.png,0.35,1.2,31,0.25,,,,,,,,,,,,,,,,,,0,53,53,30,1,,,,,,,,,,,,,,,,,,,,,,,
,,,,,SPR24_006,18,F,2024-04-05_10h27.02.537,jersey_experiment_5_v0,2023.2.2,Win32,86.20689655,,,,,,,,,,,,,,,,774.0164,775.3105,775.3106,775.9457,return,0.1878,,28.64583333,,,,,,FBP-YG-91.png,0.35,1.2,26,0.5,,,,,,,,,,,,,,,,,,0,54,54,25,1,,,,,,,,,,,,,,,,,,,,,,,
,,,,,SPR24_006,18,F,2024-04-05_10h27.02.537,jersey_experiment_5_v0,2023.2.2,Win32,86.20689655,,,,,,,,,,,,,,,,775.946,777.2399,777.24,778.3104,return,0.034,,94.140625,,,,,,FBP-YG-91.png,0.45,1.2,30,0.5,,,,,,,,,,,,,,,,,,0,55,55,29,1,,,,,,,,,,,,,,,,,,,,,,,
,,,,,SPR24_006,18,F,2024-04-05_10h27.02.537,jersey_experiment_5_v0,2023.2.2,Win32,86.20689655,,,,,,,,,,,,,,,,778.3106,779.3575,779.3576,781.3694,return,0.8949,,54.42708333,,,,,,FBP-OG-19.png,0.4,1.2,13,0.25,,,,,,,,,,,,,,,,,,0,56,56,12,1,,,,,,,,,,,,,,,,,,,,,,,
,,,,,SPR24_006,18,F,2024-04-05_10h27.02.537,jersey_experiment_5_v0,2023.2.2,Win32,86.20689655,,,,,,,,,,,,,,,,781.3696,782.6634,782.6635,784.2871,return,0.7844,,65.36458333,,,,,,FBP-YG-71.png,0.4,1.2,18,0.5,,,,,,,,,,,,,,,,,,0,57,57,17,1,,,,,,,,,,,,,,,,,,,,,,,
,,,,,SPR24_006,18,F,2024-04-05_10h27.02.537,jersey_experiment_5_v0,2023.2.2,Win32,86.20689655,,,,,,,,,,,,,,,,784.2874,785.3342,785.3342,786.3931,return,0.2353,,71.09375,,,,,,FBP-OG-19.png,0.43,1.2,14,0.25,,,,,,,,,,,,,,,,,,0,58,58,13,1,,,,,,,,,,,,,,,,,,,,,,,
,,,,,SPR24_006,18,F,2024-04-05_10h27.02.537,jersey_experiment_5_v0,2023.2.2,Win32,86.20689655,,,,,,,,,,,,,,,,786.3935,787.6873,787.6873,789.1343,return,0.3846,,97.13541667,,,,,,FBP-YG-71.png,0.45,1.2,20,0.5,,,,,,,,,,,,,,,,,,0,59,59,19,1,,,,,,,,,,,,,,,,,,,,,,,
,,,,,SPR24_006,18,F,2024-04-05_10h27.02.537,jersey_experiment_5_v0,2023.2.2,Win32,86.20689655,,,,,,,,,,,,,,,,,,,,,,,,,,,,,,,,,,,,,,,,,,,,,,,,,,,,,,,,789.1346,794.1466,return,5.0036,,,,,,,,,,,,,,,,,,,
,,,,,SPR24_006,18,F,2024-04-05_10h27.02.537,jersey_experiment_5_v0,2023.2.2,Win32,86.20689655,,,,,,,,,,,,,,,,,,,,,,,,,,,,,,,,,,,,,,,,,,,,,,,,,,,,,,,,,,,,,794.1467,797.1232,1,2.5911,return,0.3684,,,,,,,,,,,,
,,,,,SPR24_006,18,F,2024-04-05_10h27.02.537,jersey_experiment_5_v0,2023.2.2,Win32,86.20689655,,,,,,,,,,,,,,,,,,,,,,,,,,,,,,,,,,,,,,,,,,,,,,,,,,,,,,,,,,,,,,,,,,,,797.1234,899.4144,The numbers and color jerseys were changing. There was 2 races but I dont think that there was differances between them. The slim poeple seemed longer while the husky people seemed wider. ,right,96.1351,,,,,,
,,,,,SPR24_006,18,F,2024-04-05_10h27.02.537,jersey_experiment_5_v0,2023.2.2,Win32,86.20689655,,,,,,,,,,,,,,,,,,,,,,,,,,,,,,,,,,,,,,,,,,,,,,,,,,,,,,,,,,,,,,,,,,,,,,,,,,899.4145,904.1624,return,4.7404,