requirements.started,requirements.stopped,key_resp_3.keys,key_resp_3.rt,key_resp_3.duration,Subject ID,Age,Gender,date,expName,psychopyVersion,OS,frameRate,instructions1.started,instructions1.stopped,key_resp.keys,key_resp.rt,key_resp.duration,example.started,example.stopped,enter_2.keys,enter_2.rt,enter_2.duration,instructions2.started,instructions2.stopped,enter_3.keys,enter_3.rt,enter_3.duration,image.started,image.stopped,slider_2.started,slider_2.stopped,next.keys,next.rt,next.duration,slider.response,trial_block_1.thisRepN,trial_block_1.thisTrialN,trial_block_1.thisN,trial_block_1.thisIndex,trial_block_1.ran,Path,Width,Height,Index,Duration,trial_block_2.thisRepN,trial_block_2.thisTrialN,trial_block_2.thisN,trial_block_2.thisIndex,trial_block_2.ran,rest_break.started,rest_break.stopped,end_break.started,end_break.stopped,key_resp_5.keys,key_resp_5.rt,key_resp_5.duration,trial_block_3.thisRepN,trial_block_3.thisTrialN,trial_block_3.thisN,trial_block_3.thisIndex,trial_block_3.ran,trial_block_4.thisRepN,trial_block_4.thisTrialN,trial_block_4.thisN,trial_block_4.thisIndex,trial_block_4.ran,questions_intro.started,questions_intro.stopped,enter_12.keys,enter_12.rt,enter_12.duration,question2.started,question2.stopped,question_doingbest.response,question_doingbest.rt,enter_15.keys,enter_15.rt,enter_15.duration,pattern.started,pattern.stopped,pattern_2.text,enter_17.keys,enter_17.rt,enter_17.duration,thankyou.started,thankyou.stopped,enter_14.keys,enter_14.rt,enter_14.duration
0.0001,11.7771,return,11.7668,,SPR24_025,21,Male,2024-04-10_09h32.15.000,jersey_experiment_5_v0,2023.2.2,Win32,84.74576271,,,,,,,,,,,,,,,,,,,,,,,,,,,,,,,,,,,,,,,,,,,,,,,,,,,,,,,,,,,,,,,,,,,,,,,,,,,,,,
,,,,,SPR24_025,21,Male,2024-04-10_09h32.15.000,jersey_experiment_5_v0,2023.2.2,Win32,84.74576271,11.7771,24.6629,return,12.8711,,,,,,,,,,,,,,,,,,,,,,,,,,,,,,,,,,,,,,,,,,,,,,,,,,,,,,,,,,,,,,,,,,,,,,,,,,
,,,,,SPR24_025,21,Male,2024-04-10_09h32.15.000,jersey_experiment_5_v0,2023.2.2,Win32,84.74576271,,,,,,24.663,31.2366,return,6.5395,,,,,,,,,,,,,,,,,,,,,,,,,,,,,,,,,,,,,,,,,,,,,,,,,,,,,,,,,,,,,,,,,,,,,
,,,,,SPR24_025,21,Male,2024-04-10_09h32.15.000,jersey_experiment_5_v0,2023.2.2,Win32,84.74576271,,,,,,,,,,,31.2366,62.8141,return,31.5681,,,,,,,,,,,,,,,,,,,,,,,,,,,,,,,,,,,,,,,,,,,,,,,,,,,,,,,,,,,,,,,,
,,,,,SPR24_025,21,Male,2024-04-10_09h32.15.000,jersey_experiment_5_v0,2023.2.2,Win32,84.74576271,,,,,,,,,,,,,,,,62.8211,63.8726,63.8727,70.3318,return,2.6633,,50.13020833,0,0,0,50,1,FBP-PT-18.png,0.35,1.2,51,0.25,,,,,,,,,,,,,,,,,,,,,,,,,,,,,,,,,,,,,,,,,,,,,
,,,,,SPR24_025,21,Male,2024-04-10_09h32.15.000,jersey_experiment_5_v0,2023.2.2,Win32,84.74576271,,,,,,,,,,,,,,,,70.3322,71.3787,71.3788,78.3555,return,1.5908,,49.73958333,0,1,1,21,1,FBP-YG-18.png,0.37,1.2,22,0.25,,,,,,,,,,,,,,,,,,,,,,,,,,,,,,,,,,,,,,,,,,,,,
,,,,,SPR24_025,21,Male,2024-04-10_09h32.15.000,jersey_experiment_5_v0,2023.2.2,Win32,84.74576271,,,,,,,,,,,,,,,,78.3557,79.6499,79.65,84.3325,return,2.3945,,74.609375,0,2,2,12,1,FBP-OG-91.png,0.4,1.2,13,0.5,,,,,,,,,,,,,,,,,,,,,,,,,,,,,,,,,,,,,,,,,,,,,
,,,,,SPR24_025,21,Male,2024-04-10_09h32.15.000,jersey_experiment_5_v0,2023.2.2,Win32,84.74576271,,,,,,,,,,,,,,,,84.3328,85.6266,85.6266,88.7679,return,1.4848,,75.390625,0,3,3,7,1,FBP-OG-81.png,0.4,1.2,8,0.5,,,,,,,,,,,,,,,,,,,,,,,,,,,,,,,,,,,,,,,,,,,,,
,,,,,SPR24_025,21,Male,2024-04-10_09h32.15.000,jersey_experiment_5_v0,2023.2.2,Win32,84.74576271,,,,,,,,,,,,,,,,88.768,90.062,90.062,104.8509,return,12.062,,88.02083333,0,4,4,9,1,FBP-OG-81.png,0.45,1.2,10,0.5,,,,,,,,,,,,,,,,,,,,,,,,,,,,,,,,,,,,,,,,,,,,,
,,,,,SPR24_025,21,Male,2024-04-10_09h32.15.000,jersey_experiment_5_v0,2023.2.2,Win32,84.74576271,,,,,,,,,,,,,,,,104.8511,105.898,105.898,115.8866,return,3.2247,,86.84895833,0,5,5,24,1,FBP-YG-18.png,0.45,1.2,25,0.25,,,,,,,,,,,,,,,,,,,,,,,,,,,,,,,,,,,,,,,,,,,,,
,,,,,SPR24_025,21,Male,2024-04-10_09h32.15.000,jersey_experiment_5_v0,2023.2.2,Win32,84.74576271,,,,,,,,,,,,,,,,115.8868,117.1807,117.1808,122.7809,return,1.6271,,86.84895833,0,6,6,8,1,FBP-OG-81.png,0.43,1.2,9,0.5,,,,,,,,,,,,,,,,,,,,,,,,,,,,,,,,,,,,,,,,,,,,,
,,,,,SPR24_025,21,Male,2024-04-10_09h32.15.000,jersey_experiment_5_v0,2023.2.2,Win32,84.74576271,,,,,,,,,,,,,,,,122.781,123.828,123.828,128.8636,return,1.6027,,71.484375,0,7,7,23,1,FBP-YG-18.png,0.43,1.2,24,0.25,,,,,,,,,,,,,,,,,,,,,,,,,,,,,,,,,,,,,,,,,,,,,
,,,,,SPR24_025,21,Male,2024-04-10_09h32.15.000,jersey_experiment_5_v0,2023.2.2,Win32,84.74576271,,,,,,,,,,,,,,,,128.8639,130.1577,130.1577,133.9344,return,1.4509,,57.421875,0,8,8,37,1,FBP-RB-18.png,0.4,1.2,38,0.5,,,,,,,,,,,,,,,,,,,,,,,,,,,,,,,,,,,,,,,,,,,,,
,,,,,SPR24_025,21,Male,2024-04-10_09h32.15.000,jersey_experiment_5_v0,2023.2.2,Win32,84.74576271,,,,,,,,,,,,,,,,133.9346,134.9814,134.9814,139.0403,return,1.6383,,25.390625,0,9,9,46,1,FBP-PT-17.png,0.37,1.2,47,0.25,,,,,,,,,,,,,,,,,,,,,,,,,,,,,,,,,,,,,,,,,,,,,
,,,,,SPR24_025,21,Male,2024-04-10_09h32.15.000,jersey_experiment_5_v0,2023.2.2,Win32,84.74576271,,,,,,,,,,,,,,,,139.0405,140.0874,140.0875,145.0759,return,1.4588,,71.61458333,0,10,10,49,1,FBP-PT-17.png,0.45,1.2,50,0.25,,,,,,,,,,,,,,,,,,,,,,,,,,,,,,,,,,,,,,,,,,,,,
,,,,,SPR24_025,21,Male,2024-04-10_09h32.15.000,jersey_experiment_5_v0,2023.2.2,Win32,84.74576271,,,,,,,,,,,,,,,,145.0761,146.123,146.123,150.4173,return,1.3187,,15.10416667,0,11,11,55,1,FBP-PT-19.png,0.35,1.2,56,0.25,,,,,,,,,,,,,,,,,,,,,,,,,,,,,,,,,,,,,,,,,,,,,
,,,,,SPR24_025,21,Male,2024-04-10_09h32.15.000,jersey_experiment_5_v0,2023.2.2,Win32,84.74576271,,,,,,,,,,,,,,,,150.4176,151.7113,151.7114,155.947,return,1.8289,,44.53125,0,12,12,1,1,FBP-OG-71.png,0.37,1.2,2,0.5,,,,,,,,,,,,,,,,,,,,,,,,,,,,,,,,,,,,,,,,,,,,,
,,,,,SPR24_025,21,Male,2024-04-10_09h32.15.000,jersey_experiment_5_v0,2023.2.2,Win32,84.74576271,,,,,,,,,,,,,,,,155.9473,157.2411,157.2411,164.9119,return,5.5087,,15.88541667,0,13,13,10,1,FBP-OG-91.png,0.35,1.2,11,0.5,,,,,,,,,,,,,,,,,,,,,,,,,,,,,,,,,,,,,,,,,,,,,
,,,,,SPR24_025,21,Male,2024-04-10_09h32.15.000,jersey_experiment_5_v0,2023.2.2,Win32,84.74576271,,,,,,,,,,,,,,,,164.9169,166.2179,166.2179,169.4886,return,1.4818,,21.22395833,0,14,14,35,1,FBP-RB-18.png,0.35,1.2,36,0.5,,,,,,,,,,,,,,,,,,,,,,,,,,,,,,,,,,,,,,,,,,,,,
,,,,,SPR24_025,21,Male,2024-04-10_09h32.15.000,jersey_experiment_5_v0,2023.2.2,Win32,84.74576271,,,,,,,,,,,,,,,,169.4889,170.5356,170.5357,174.5594,return,1.6503,,69.27083333,0,15,15,27,1,FBP-YG-19.png,0.4,1.2,28,0.25,,,,,,,,,,,,,,,,,,,,,,,,,,,,,,,,,,,,,,,,,,,,,
,,,,,SPR24_025,21,Male,2024-04-10_09h32.15.000,jersey_experiment_5_v0,2023.2.2,Win32,84.74576271,,,,,,,,,,,,,,,,174.5595,175.8534,175.8534,183.7128,return,1.4372,,64.71354167,0,16,16,42,1,FBP-RB-19.png,0.4,1.2,43,0.5,,,,,,,,,,,,,,,,,,,,,,,,,,,,,,,,,,,,,,,,,,,,,
,,,,,SPR24_025,21,Male,2024-04-10_09h32.15.000,jersey_experiment_5_v0,2023.2.2,Win32,84.74576271,,,,,,,,,,,,,,,,183.7131,184.7597,184.7598,188.9482,return,1.1443,,63.15104167,0,17,17,22,1,FBP-YG-18.png,0.4,1.2,23,0.25,,,,,,,,,,,,,,,,,,,,,,,,,,,,,,,,,,,,,,,,,,,,,
,,,,,SPR24_025,21,Male,2024-04-10_09h32.15.000,jersey_experiment_5_v0,2023.2.2,Win32,84.74576271,,,,,,,,,,,,,,,,188.9484,190.2423,190.2424,194.4426,return,1.773,,25,0,18,18,0,1,FBP-OG-71.png,0.35,1.2,1,0.5,,,,,,,,,,,,,,,,,,,,,,,,,,,,,,,,,,,,,,,,,,,,,
,,,,,SPR24_025,21,Male,2024-04-10_09h32.15.000,jersey_experiment_5_v0,2023.2.2,Win32,84.74576271,,,,,,,,,,,,,,,,194.4429,195.7366,195.7366,200.9252,return,1.9797,,62.63020833,0,19,19,36,1,FBP-RB-18.png,0.37,1.2,37,0.5,,,,,,,,,,,,,,,,,,,,,,,,,,,,,,,,,,,,,,,,,,,,,
,,,,,SPR24_025,21,Male,2024-04-10_09h32.15.000,jersey_experiment_5_v0,2023.2.2,Win32,84.74576271,,,,,,,,,,,,,,,,200.9255,202.2192,202.2193,205.2782,return,1.3335,,49.73958333,0,20,20,30,1,FBP-RB-17.png,0.35,1.2,31,0.5,,,,,,,,,,,,,,,,,,,,,,,,,,,,,,,,,,,,,,,,,,,,,
,,,,,SPR24_025,21,Male,2024-04-10_09h32.15.000,jersey_experiment_5_v0,2023.2.2,Win32,84.74576271,,,,,,,,,,,,,,,,205.2785,206.3252,206.3252,217.4552,return,4.639,,50.52083333,0,21,21,25,1,FBP-YG-19.png,0.35,1.2,26,0.25,,,,,,,,,,,,,,,,,,,,,,,,,,,,,,,,,,,,,,,,,,,,,
,,,,,SPR24_025,21,Male,2024-04-10_09h32.15.000,jersey_experiment_5_v0,2023.2.2,Win32,84.74576271,,,,,,,,,,,,,,,,217.4594,218.7611,218.7611,222.0318,return,1.4587,,100,0,22,22,39,1,FBP-RB-18.png,0.45,1.2,40,0.5,,,,,,,,,,,,,,,,,,,,,,,,,,,,,,,,,,,,,,,,,,,,,
,,,,,SPR24_025,21,Male,2024-04-10_09h32.15.000,jersey_experiment_5_v0,2023.2.2,Win32,84.74576271,,,,,,,,,,,,,,,,222.032,223.0789,223.0789,227.3379,return,1.7498,,43.75,0,23,23,15,1,FBP-YG-17.png,0.35,1.2,16,0.25,,,,,,,,,,,,,,,,,,,,,,,,,,,,,,,,,,,,,,,,,,,,,
,,,,,SPR24_025,21,Male,2024-04-10_09h32.15.000,jersey_experiment_5_v0,2023.2.2,Win32,84.74576271,,,,,,,,,,,,,,,,227.3382,228.6321,228.6321,232.6912,return,2.3204,,95.05208333,0,24,24,4,1,FBP-OG-71.png,0.45,1.2,5,0.5,,,,,,,,,,,,,,,,,,,,,,,,,,,,,,,,,,,,,,,,,,,,,
,,,,,SPR24_025,21,Male,2024-04-10_09h32.15.000,jersey_experiment_5_v0,2023.2.2,Win32,84.74576271,,,,,,,,,,,,,,,,232.6954,233.738,233.7381,237.0913,return,1.1672,,46.875,0,25,25,51,1,FBP-PT-18.png,0.37,1.2,52,0.25,,,,,,,,,,,,,,,,,,,,,,,,,,,,,,,,,,,,,,,,,,,,,
,,,,,SPR24_025,21,Male,2024-04-10_09h32.15.000,jersey_experiment_5_v0,2023.2.2,Win32,84.74576271,,,,,,,,,,,,,,,,237.0915,238.3856,238.3856,241.8915,return,1.6618,,88.02083333,0,26,26,33,1,FBP-RB-17.png,0.43,1.2,34,0.5,,,,,,,,,,,,,,,,,,,,,,,,,,,,,,,,,,,,,,,,,,,,,
,,,,,SPR24_025,21,Male,2024-04-10_09h32.15.000,jersey_experiment_5_v0,2023.2.2,Win32,84.74576271,,,,,,,,,,,,,,,,241.8918,242.9384,242.9384,247.0681,return,2.6629,,82.68229167,0,27,27,48,1,FBP-PT-17.png,0.43,1.2,49,0.25,,,,,,,,,,,,,,,,,,,,,,,,,,,,,,,,,,,,,,,,,,,,,
,,,,,SPR24_025,21,Male,2024-04-10_09h32.15.000,jersey_experiment_5_v0,2023.2.2,Win32,84.74576271,,,,,,,,,,,,,,,,247.0683,248.1151,248.1151,251.7623,return,1.3412,,100,0,28,28,19,1,FBP-YG-17.png,0.45,1.2,20,0.25,,,,,,,,,,,,,,,,,,,,,,,,,,,,,,,,,,,,,,,,,,,,,
,,,,,SPR24_025,21,Male,2024-04-10_09h32.15.000,jersey_experiment_5_v0,2023.2.2,Win32,84.74576271,,,,,,,,,,,,,,,,251.7625,253.0566,253.0567,256.6331,return,1.2894,,75.26041667,0,29,29,2,1,FBP-OG-71.png,0.4,1.2,3,0.5,,,,,,,,,,,,,,,,,,,,,,,,,,,,,,,,,,,,,,,,,,,,,
,,,,,SPR24_025,21,Male,2024-04-10_09h32.15.000,jersey_experiment_5_v0,2023.2.2,Win32,84.74576271,,,,,,,,,,,,,,,,256.6334,257.6803,257.6804,261.1041,return,1.9186,,80.33854167,0,30,30,53,1,FBP-PT-18.png,0.43,1.2,54,0.25,,,,,,,,,,,,,,,,,,,,,,,,,,,,,,,,,,,,,,,,,,,,,
,,,,,SPR24_025,21,Male,2024-04-10_09h32.15.000,jersey_experiment_5_v0,2023.2.2,Win32,84.74576271,,,,,,,,,,,,,,,,261.1043,262.3979,262.398,266.1747,return,1.7803,,92.05729167,0,31,31,43,1,FBP-RB-19.png,0.43,1.2,44,0.5,,,,,,,,,,,,,,,,,,,,,,,,,,,,,,,,,,,,,,,,,,,,,
,,,,,SPR24_025,21,Male,2024-04-10_09h32.15.000,jersey_experiment_5_v0,2023.2.2,Win32,84.74576271,,,,,,,,,,,,,,,,266.175,267.2219,267.2219,271.6101,return,1.4648,,24.86979167,0,32,32,56,1,FBP-PT-19.png,0.37,1.2,57,0.25,,,,,,,,,,,,,,,,,,,,,,,,,,,,,,,,,,,,,,,,,,,,,
,,,,,SPR24_025,21,Male,2024-04-10_09h32.15.000,jersey_experiment_5_v0,2023.2.2,Win32,84.74576271,,,,,,,,,,,,,,,,271.6105,272.9044,272.9045,279.6106,return,2.3259,,97.78645833,0,33,33,3,1,FBP-OG-71.png,0.43,1.2,4,0.5,,,,,,,,,,,,,,,,,,,,,,,,,,,,,,,,,,,,,,,,,,,,,
,,,,,SPR24_025,21,Male,2024-04-10_09h32.15.000,jersey_experiment_5_v0,2023.2.2,Win32,84.74576271,,,,,,,,,,,,,,,,279.6107,280.6574,280.6575,289.6345,return,3.6715,,14.97395833,0,34,34,45,1,FBP-PT-17.png,0.35,1.2,46,0.25,,,,,,,,,,,,,,,,,,,,,,,,,,,,,,,,,,,,,,,,,,,,,
,,,,,SPR24_025,21,Male,2024-04-10_09h32.15.000,jersey_experiment_5_v0,2023.2.2,Win32,84.74576271,,,,,,,,,,,,,,,,289.6347,290.6815,290.6815,294.2581,return,1.3743,,62.76041667,0,35,35,57,1,FBP-PT-19.png,0.4,1.2,58,0.25,,,,,,,,,,,,,,,,,,,,,,,,,,,,,,,,,,,,,,,,,,,,,
,,,,,SPR24_025,21,Male,2024-04-10_09h32.15.000,jersey_experiment_5_v0,2023.2.2,Win32,84.74576271,,,,,,,,,,,,,,,,294.2584,295.5524,295.5524,299.5995,return,1.3533,,28.38541667,0,36,36,5,1,FBP-OG-81.png,0.35,1.2,6,0.5,,,,,,,,,,,,,,,,,,,,,,,,,,,,,,,,,,,,,,,,,,,,,
,,,,,SPR24_025,21,Male,2024-04-10_09h32.15.000,jersey_experiment_5_v0,2023.2.2,Win32,84.74576271,,,,,,,,,,,,,,,,299.5998,300.6468,300.6468,303.3879,return,1.5217,,100,0,37,37,54,1,FBP-PT-18.png,0.45,1.2,55,0.25,,,,,,,,,,,,,,,,,,,,,,,,,,,,,,,,,,,,,,,,,,,,,
,,,,,SPR24_025,21,Male,2024-04-10_09h32.15.000,jersey_experiment_5_v0,2023.2.2,Win32,84.74576271,,,,,,,,,,,,,,,,303.3882,304.4351,304.4351,307.6116,return,1.4399,,100,0,38,38,29,1,FBP-YG-19.png,0.45,1.2,30,0.25,,,,,,,,,,,,,,,,,,,,,,,,,,,,,,,,,,,,,,,,,,,,,
,,,,,SPR24_025,21,Male,2024-04-10_09h32.15.000,jersey_experiment_5_v0,2023.2.2,Win32,84.74576271,,,,,,,,,,,,,,,,307.6119,308.9057,308.9057,311.6823,return,1.4263,,100,0,39,39,13,1,FBP-OG-91.png,0.43,1.2,14,0.5,,,,,,,,,,,,,,,,,,,,,,,,,,,,,,,,,,,,,,,,,,,,,
,,,,,SPR24_025,21,Male,2024-04-10_09h32.15.000,jersey_experiment_5_v0,2023.2.2,Win32,84.74576271,,,,,,,,,,,,,,,,311.6826,312.7293,312.7294,315.9649,return,1.6266,,69.921875,0,40,40,16,1,FBP-YG-17.png,0.37,1.2,17,0.25,,,,,,,,,,,,,,,,,,,,,,,,,,,,,,,,,,,,,,,,,,,,,
,,,,,SPR24_025,21,Male,2024-04-10_09h32.15.000,jersey_experiment_5_v0,2023.2.2,Win32,84.74576271,,,,,,,,,,,,,,,,315.9652,317.2592,317.2592,321.6591,return,1.7136,,100,0,41,41,38,1,FBP-RB-18.png,0.43,1.2,39,0.5,,,,,,,,,,,,,,,,,,,,,,,,,,,,,,,,,,,,,,,,,,,,,
,,,,,SPR24_025,21,Male,2024-04-10_09h32.15.000,jersey_experiment_5_v0,2023.2.2,Win32,84.74576271,,,,,,,,,,,,,,,,321.6594,322.9534,322.9535,327.1183,return,1.861,,100,0,42,42,34,1,FBP-RB-17.png,0.45,1.2,35,0.5,,,,,,,,,,,,,,,,,,,,,,,,,,,,,,,,,,,,,,,,,,,,,
,,,,,SPR24_025,21,Male,2024-04-10_09h32.15.000,jersey_experiment_5_v0,2023.2.2,Win32,84.74576271,,,,,,,,,,,,,,,,327.1185,328.1652,328.1653,332.5066,return,1.5495,,50.13020833,0,43,43,52,1,FBP-PT-18.png,0.4,1.2,53,0.25,,,,,,,,,,,,,,,,,,,,,,,,,,,,,,,,,,,,,,,,,,,,,
,,,,,SPR24_025,21,Male,2024-04-10_09h32.15.000,jersey_experiment_5_v0,2023.2.2,Win32,84.74576271,,,,,,,,,,,,,,,,332.507,333.5537,333.5537,339.0833,return,1.2545,,30.98958333,0,44,44,47,1,FBP-PT-17.png,0.4,1.2,48,0.25,,,,,,,,,,,,,,,,,,,,,,,,,,,,,,,,,,,,,,,,,,,,,
,,,,,SPR24_025,21,Male,2024-04-10_09h32.15.000,jersey_experiment_5_v0,2023.2.2,Win32,84.74576271,,,,,,,,,,,,,,,,339.0835,340.3775,340.3776,343.26,return,1.2283,,30.859375,0,45,45,31,1,FBP-RB-17.png,0.37,1.2,32,0.5,,,,,,,,,,,,,,,,,,,,,,,,,,,,,,,,,,,,,,,,,,,,,
,,,,,SPR24_025,21,Male,2024-04-10_09h32.15.000,jersey_experiment_5_v0,2023.2.2,Win32,84.74576271,,,,,,,,,,,,,,,,343.2602,344.5543,344.5544,348.6367,return,1.3473,,100,0,46,46,44,1,FBP-RB-19.png,0.45,1.2,45,0.5,,,,,,,,,,,,,,,,,,,,,,,,,,,,,,,,,,,,,,,,,,,,,
,,,,,SPR24_025,21,Male,2024-04-10_09h32.15.000,jersey_experiment_5_v0,2023.2.2,Win32,84.74576271,,,,,,,,,,,,,,,,348.637,349.6839,349.6839,353.531,return,1.7019,,74.21875,0,47,47,17,1,FBP-YG-17.png,0.4,1.2,18,0.25,,,,,,,,,,,,,,,,,,,,,,,,,,,,,,,,,,,,,,,,,,,,,
,,,,,SPR24_025,21,Male,2024-04-10_09h32.15.000,jersey_experiment_5_v0,2023.2.2,Win32,84.74576271,,,,,,,,,,,,,,,,353.5313,354.8252,354.8252,357.8841,return,1.4037,,75,0,48,48,41,1,FBP-RB-19.png,0.37,1.2,42,0.5,,,,,,,,,,,,,,,,,,,,,,,,,,,,,,,,,,,,,,,,,,,,,
,,,,,SPR24_025,21,Male,2024-04-10_09h32.15.000,jersey_experiment_5_v0,2023.2.2,Win32,84.74576271,,,,,,,,,,,,,,,,357.8845,359.1785,359.1785,363.1079,return,1.3743,,50.13020833,0,49,49,40,1,FBP-RB-19.png,0.35,1.2,41,0.5,,,,,,,,,,,,,,,,,,,,,,,,,,,,,,,,,,,,,,,,,,,,,
,,,,,SPR24_025,21,Male,2024-04-10_09h32.15.000,jersey_experiment_5_v0,2023.2.2,Win32,84.74576271,,,,,,,,,,,,,,,,363.1081,364.1549,364.155,367.661,return,1.5938,,100,0,50,50,58,1,FBP-PT-19.png,0.43,1.2,59,0.25,,,,,,,,,,,,,,,,,,,,,,,,,,,,,,,,,,,,,,,,,,,,,
,,,,,SPR24_025,21,Male,2024-04-10_09h32.15.000,jersey_experiment_5_v0,2023.2.2,Win32,84.74576271,,,,,,,,,,,,,,,,367.6612,368.9551,368.9551,372.4024,return,1.365,,59.89583333,0,51,51,6,1,FBP-OG-81.png,0.37,1.2,7,0.5,,,,,,,,,,,,,,,,,,,,,,,,,,,,,,,,,,,,,,,,,,,,,
,,,,,SPR24_025,21,Male,2024-04-10_09h32.15.000,jersey_experiment_5_v0,2023.2.2,Win32,84.74576271,,,,,,,,,,,,,,,,372.4026,373.6965,373.6965,377.473,return,1.897,,79.55729167,0,52,52,32,1,FBP-RB-17.png,0.4,1.2,33,0.5,,,,,,,,,,,,,,,,,,,,,,,,,,,,,,,,,,,,,,,,,,,,,
,,,,,SPR24_025,21,Male,2024-04-10_09h32.15.000,jersey_experiment_5_v0,2023.2.2,Win32,84.74576271,,,,,,,,,,,,,,,,377.4733,378.5204,378.5204,381.6498,return,1.248,,50.26041667,0,53,53,26,1,FBP-YG-19.png,0.37,1.2,27,0.25,,,,,,,,,,,,,,,,,,,,,,,,,,,,,,,,,,,,,,,,,,,,,
,,,,,SPR24_025,21,Male,2024-04-10_09h32.15.000,jersey_experiment_5_v0,2023.2.2,Win32,84.74576271,,,,,,,,,,,,,,,,381.6499,382.6971,382.6972,385.8735,return,1.4115,,94.66145833,0,54,54,28,1,FBP-YG-19.png,0.43,1.2,29,0.25,,,,,,,,,,,,,,,,,,,,,,,,,,,,,,,,,,,,,,,,,,,,,
,,,,,SPR24_025,21,Male,2024-04-10_09h32.15.000,jersey_experiment_5_v0,2023.2.2,Win32,84.74576271,,,,,,,,,,,,,,,,385.8737,386.9204,386.9204,390.5561,return,1.0396,,53.90625,0,55,55,20,1,FBP-YG-18.png,0.35,1.2,21,0.25,,,,,,,,,,,,,,,,,,,,,,,,,,,,,,,,,,,,,,,,,,,,,
,,,,,SPR24_025,21,Male,2024-04-10_09h32.15.000,jersey_experiment_5_v0,2023.2.2,Win32,84.74576271,,,,,,,,,,,,,,,,390.5563,391.8502,391.8502,395.6032,return,2.4943,,41.796875,0,56,56,11,1,FBP-OG-91.png,0.37,1.2,12,0.5,,,,,,,,,,,,,,,,,,,,,,,,,,,,,,,,,,,,,,,,,,,,,
,,,,,SPR24_025,21,Male,2024-04-10_09h32.15.000,jersey_experiment_5_v0,2023.2.2,Win32,84.74576271,,,,,,,,,,,,,,,,395.6033,396.6503,396.6503,400.027,return,1.3487,,81.25,0,57,57,18,1,FBP-YG-17.png,0.43,1.2,19,0.25,,,,,,,,,,,,,,,,,,,,,,,,,,,,,,,,,,,,,,,,,,,,,
,,,,,SPR24_025,21,Male,2024-04-10_09h32.15.000,jersey_experiment_5_v0,2023.2.2,Win32,84.74576271,,,,,,,,,,,,,,,,400.0272,401.0738,401.0739,405.5566,return,3.4684,,100,0,58,58,59,1,FBP-PT-19.png,0.45,1.2,60,0.25,,,,,,,,,,,,,,,,,,,,,,,,,,,,,,,,,,,,,,,,,,,,,
,,,,,SPR24_025,21,Male,2024-04-10_09h32.15.000,jersey_experiment_5_v0,2023.2.2,Win32,84.74576271,,,,,,,,,,,,,,,,405.5612,406.8624,406.8624,412.851,return,1.2005,,89.58333333,0,59,59,14,1,FBP-OG-91.png,0.45,1.2,15,0.5,,,,,,,,,,,,,,,,,,,,,,,,,,,,,,,,,,,,,,,,,,,,,
,,,,,SPR24_025,21,Male,2024-04-10_09h32.15.000,jersey_experiment_5_v0,2023.2.2,Win32,84.74576271,,,,,,,,,,,,,,,,412.853,413.8981,413.8981,418.5099,return,2.567,,93.22916667,,,,,,FBP-YG-71.png,0.43,1.2,19,0.25,0,0,0,18,1,,,,,,,,,,,,,,,,,,,,,,,,,,,,,,,,,,,,,,,,
,,,,,SPR24_025,21,Male,2024-04-10_09h32.15.000,jersey_experiment_5_v0,2023.2.2,Win32,84.74576271,,,,,,,,,,,,,,,,418.5102,419.5571,419.5572,422.9809,return,1.5673,,25.26041667,,,,,,FBP-YG-71.png,0.37,1.2,17,0.25,0,1,1,16,1,,,,,,,,,,,,,,,,,,,,,,,,,,,,,,,,,,,,,,,,
,,,,,SPR24_025,21,Male,2024-04-10_09h32.15.000,jersey_experiment_5_v0,2023.2.2,Win32,84.74576271,,,,,,,,,,,,,,,,422.9811,424.2748,424.275,427.9692,return,1.2941,,11.84895833,,,,,,FBP-OG-19.png,0.37,1.2,12,0.5,0,2,2,11,1,,,,,,,,,,,,,,,,,,,,,,,,,,,,,,,,,,,,,,,,
,,,,,SPR24_025,21,Male,2024-04-10_09h32.15.000,jersey_experiment_5_v0,2023.2.2,Win32,84.74576271,,,,,,,,,,,,,,,,427.9694,429.2635,429.2636,432.2869,return,1.2981,,19.140625,,,,,,FBP-RB-81.png,0.37,1.2,37,0.5,0,3,3,36,1,,,,,,,,,,,,,,,,,,,,,,,,,,,,,,,,,,,,,,,,
,,,,,SPR24_025,21,Male,2024-04-10_09h32.15.000,jersey_experiment_5_v0,2023.2.2,Win32,84.74576271,,,,,,,,,,,,,,,,432.2872,433.3341,433.3341,437.3225,return,2.724,,28.90625,,,,,,FBP-PT-81.png,0.4,1.2,53,0.25,0,4,4,52,1,,,,,,,,,,,,,,,,,,,,,,,,,,,,,,,,,,,,,,,,
,,,,,SPR24_025,21,Male,2024-04-10_09h32.15.000,jersey_experiment_5_v0,2023.2.2,Win32,84.74576271,,,,,,,,,,,,,,,,437.3227,438.6165,438.6166,442.3227,return,1.2853,,50.13020833,,,,,,FBP-OG-19.png,0.43,1.2,14,0.5,0,5,5,13,1,,,,,,,,,,,,,,,,,,,,,,,,,,,,,,,,,,,,,,,,
,,,,,SPR24_025,21,Male,2024-04-10_09h32.15.000,jersey_experiment_5_v0,2023.2.2,Win32,84.74576271,,,,,,,,,,,,,,,,442.3229,443.3697,443.3697,446.7465,return,1.6302,,16.14583333,,,,,,FBP-YG-91.png,0.35,1.2,26,0.25,0,6,6,25,1,,,,,,,,,,,,,,,,,,,,,,,,,,,,,,,,,,,,,,,,
,,,,,SPR24_025,21,Male,2024-04-10_09h32.15.000,jersey_experiment_5_v0,2023.2.2,Win32,84.74576271,,,,,,,,,,,,,,,,446.7467,447.7934,447.7934,450.6054,return,1.0857,,88.93229167,,,,,,FBP-PT-71.png,0.43,1.2,49,0.25,0,7,7,48,1,,,,,,,,,,,,,,,,,,,,,,,,,,,,,,,,,,,,,,,,
,,,,,SPR24_025,21,Male,2024-04-10_09h32.15.000,jersey_experiment_5_v0,2023.2.2,Win32,84.74576271,,,,,,,,,,,,,,,,450.6057,451.8995,451.8996,455.5232,return,1.2856,,87.76041667,,,,,,FBP-RB-81.png,0.4,1.2,38,0.5,0,8,8,37,1,,,,,,,,,,,,,,,,,,,,,,,,,,,,,,,,,,,,,,,,
,,,,,SPR24_025,21,Male,2024-04-10_09h32.15.000,jersey_experiment_5_v0,2023.2.2,Win32,84.74576271,,,,,,,,,,,,,,,,455.5235,456.5702,456.5702,459.6174,return,1.0824,,5.078125,,,,,,FBP-PT-71.png,0.37,1.2,47,0.25,0,9,9,46,1,,,,,,,,,,,,,,,,,,,,,,,,,,,,,,,,,,,,,,,,
,,,,,SPR24_025,21,Male,2024-04-10_09h32.15.000,jersey_experiment_5_v0,2023.2.2,Win32,84.74576271,,,,,,,,,,,,,,,,459.6178,460.6646,460.6647,478.5946,return,4.1653,,2.864583333,,,,,,FBP-PT-71.png,0.35,1.2,46,0.25,0,10,10,45,1,,,,,,,,,,,,,,,,,,,,,,,,,,,,,,,,,,,,,,,,
,,,,,SPR24_025,21,Male,2024-04-10_09h32.15.000,jersey_experiment_5_v0,2023.2.2,Win32,84.74576271,,,,,,,,,,,,,,,,478.6007,479.9005,479.9006,483.3126,return,1.661,,100,,,,,,FBP-OG-17.png,0.45,1.2,5,0.5,0,11,11,4,1,,,,,,,,,,,,,,,,,,,,,,,,,,,,,,,,,,,,,,,,
,,,,,SPR24_025,21,Male,2024-04-10_09h32.15.000,jersey_experiment_5_v0,2023.2.2,Win32,84.74576271,,,,,,,,,,,,,,,,483.3129,484.6068,484.6068,487.7714,return,1.1132,,20.18229167,,,,,,FBP-OG-19.png,0.35,1.2,11,0.5,0,12,12,10,1,,,,,,,,,,,,,,,,,,,,,,,,,,,,,,,,,,,,,,,,
,,,,,SPR24_025,21,Male,2024-04-10_09h32.15.000,jersey_experiment_5_v0,2023.2.2,Win32,84.74576271,,,,,,,,,,,,,,,,487.7717,488.8185,488.8186,492.4188,return,1.5673,,94.79166667,,,,,,FBP-YG-91.png,0.43,1.2,29,0.25,0,13,13,28,1,,,,,,,,,,,,,,,,,,,,,,,,,,,,,,,,,,,,,,,,
,,,,,SPR24_025,21,Male,2024-04-10_09h32.15.000,jersey_experiment_5_v0,2023.2.2,Win32,84.74576271,,,,,,,,,,,,,,,,492.4191,493.4657,493.4658,496.9601,return,1.4822,,100,,,,,,FBP-PT-71.png,0.45,1.2,50,0.25,0,14,14,49,1,,,,,,,,,,,,,,,,,,,,,,,,,,,,,,,,,,,,,,,,
,,,,,SPR24_025,21,Male,2024-04-10_09h32.15.000,jersey_experiment_5_v0,2023.2.2,Win32,84.74576271,,,,,,,,,,,,,,,,496.9603,498.2542,498.2542,501.1484,return,1.4774,,100,,,,,,FBP-RB-91.png,0.45,1.2,45,0.5,0,15,15,44,1,,,,,,,,,,,,,,,,,,,,,,,,,,,,,,,,,,,,,,,,
,,,,,SPR24_025,21,Male,2024-04-10_09h32.15.000,jersey_experiment_5_v0,2023.2.2,Win32,84.74576271,,,,,,,,,,,,,,,,501.1487,502.1956,502.1956,505.2897,return,1.0891,,50.26041667,,,,,,FBP-PT-71.png,0.4,1.2,48,0.25,0,16,16,47,1,,,,,,,,,,,,,,,,,,,,,,,,,,,,,,,,,,,,,,,,
,,,,,SPR24_025,21,Male,2024-04-10_09h32.15.000,jersey_experiment_5_v0,2023.2.2,Win32,84.74576271,,,,,,,,,,,,,,,,505.29,506.3368,506.3368,510.4431,return,1.0878,,53.64583333,,,,,,FBP-PT-91.png,0.43,1.2,59,0.25,0,17,17,58,1,,,,,,,,,,,,,,,,,,,,,,,,,,,,,,,,,,,,,,,,
,,,,,SPR24_025,21,Male,2024-04-10_09h32.15.000,jersey_experiment_5_v0,2023.2.2,Win32,84.74576271,,,,,,,,,,,,,,,,510.4433,511.7371,511.7372,514.5137,return,1.6851,,49.86979167,,,,,,FBP-RB-81.png,0.35,1.2,36,0.5,0,18,18,35,1,,,,,,,,,,,,,,,,,,,,,,,,,,,,,,,,,,,,,,,,
,,,,,SPR24_025,21,Male,2024-04-10_09h32.15.000,jersey_experiment_5_v0,2023.2.2,Win32,84.74576271,,,,,,,,,,,,,,,,514.5139,515.5608,515.5608,518.3136,return,1.2091,,68.61979167,,,,,,FBP-PT-81.png,0.43,1.2,54,0.25,0,19,19,53,1,,,,,,,,,,,,,,,,,,,,,,,,,,,,,,,,,,,,,,,,
,,,,,SPR24_025,21,Male,2024-04-10_09h32.15.000,jersey_experiment_5_v0,2023.2.2,Win32,84.74576271,,,,,,,,,,,,,,,,518.3139,519.3609,519.361,522.161,return,1.2853,,50.26041667,,,,,,FBP-YG-71.png,0.35,1.2,16,0.25,0,20,20,15,1,,,,,,,,,,,,,,,,,,,,,,,,,,,,,,,,,,,,,,,,
,,,,,SPR24_025,21,Male,2024-04-10_09h32.15.000,jersey_experiment_5_v0,2023.2.2,Win32,84.74576271,,,,,,,,,,,,,,,,522.1612,523.2081,523.2082,525.9022,return,1.4047,,50,,,,,,FBP-PT-91.png,0.35,1.2,56,0.25,0,21,21,55,1,,,,,,,,,,,,,,,,,,,,,,,,,,,,,,,,,,,,,,,,
,,,,,SPR24_025,21,Male,2024-04-10_09h32.15.000,jersey_experiment_5_v0,2023.2.2,Win32,84.74576271,,,,,,,,,,,,,,,,525.9025,526.9493,526.9493,530.2555,return,1.2258,,88.93229167,,,,,,FBP-YG-81.png,0.43,1.2,24,0.25,0,22,22,23,1,,,,,,,,,,,,,,,,,,,,,,,,,,,,,,,,,,,,,,,,
,,,,,SPR24_025,21,Male,2024-04-10_09h32.15.000,jersey_experiment_5_v0,2023.2.2,Win32,84.74576271,,,,,,,,,,,,,,,,530.2557,531.5498,531.5499,535.3145,return,2.1085,,87.63020833,,,,,,FBP-OG-17.png,0.4,1.2,3,0.5,0,23,23,2,1,,,,,,,,,,,,,,,,,,,,,,,,,,,,,,,,,,,,,,,,
,,,,,SPR24_025,21,Male,2024-04-10_09h32.15.000,jersey_experiment_5_v0,2023.2.2,Win32,84.74576271,,,,,,,,,,,,,,,,535.3148,536.6086,536.6086,541.2323,return,1.1792,,88.15104167,,,,,,FBP-OG-18.png,0.45,1.2,10,0.5,0,24,24,9,1,,,,,,,,,,,,,,,,,,,,,,,,,,,,,,,,,,,,,,,,
,,,,,SPR24_025,21,Male,2024-04-10_09h32.15.000,jersey_experiment_5_v0,2023.2.2,Win32,84.74576271,,,,,,,,,,,,,,,,541.2326,542.2794,542.2794,545.7267,return,1.237,,88.54166667,,,,,,FBP-YG-71.png,0.4,1.2,18,0.25,0,25,25,17,1,,,,,,,,,,,,,,,,,,,,,,,,,,,,,,,,,,,,,,,,
,,,,,SPR24_025,21,Male,2024-04-10_09h32.15.000,jersey_experiment_5_v0,2023.2.2,Win32,84.74576271,,,,,,,,,,,,,,,,545.7271,546.7737,546.7737,549.5504,return,1.0842,,62.109375,,,,,,FBP-YG-81.png,0.37,1.2,22,0.25,0,26,26,21,1,,,,,,,,,,,,,,,,,,,,,,,,,,,,,,,,,,,,,,,,
,,,,,SPR24_025,21,Male,2024-04-10_09h32.15.000,jersey_experiment_5_v0,2023.2.2,Win32,84.74576271,,,,,,,,,,,,,,,,549.5507,550.8447,550.8447,553.7389,return,1.5024,,100,,,,,,FBP-RB-71.png,0.45,1.2,35,0.5,0,27,27,34,1,,,,,,,,,,,,,,,,,,,,,,,,,,,,,,,,,,,,,,,,
,,,,,SPR24_025,21,Male,2024-04-10_09h32.15.000,jersey_experiment_5_v0,2023.2.2,Win32,84.74576271,,,,,,,,,,,,,,,,553.7391,554.7857,554.7858,557.7742,return,1.3228,,100,,,,,,FBP-YG-91.png,0.45,1.2,30,0.25,0,28,28,29,1,,,,,,,,,,,,,,,,,,,,,,,,,,,,,,,,,,,,,,,,
,,,,,SPR24_025,21,Male,2024-04-10_09h32.15.000,jersey_experiment_5_v0,2023.2.2,Win32,84.74576271,,,,,,,,,,,,,,,,557.7743,559.0682,559.0683,561.6684,return,1.2613,,100,,,,,,FBP-RB-71.png,0.43,1.2,34,0.5,0,29,29,33,1,,,,,,,,,,,,,,,,,,,,,,,,,,,,,,,,,,,,,,,,
,,,,,SPR24_025,21,Male,2024-04-10_09h32.15.000,jersey_experiment_5_v0,2023.2.2,Win32,84.74576271,,,,,,,,,,,,,,,,561.6686,562.7155,562.7155,568.0098,return,1.3831,,72.13541667,,,,,,FBP-YG-81.png,0.4,1.2,23,0.25,0,30,30,22,1,,,,,,,,,,,,,,,,,,,,,,,,,,,,,,,,,,,,,,,,
,,,,,SPR24_025,21,Male,2024-04-10_09h32.15.000,jersey_experiment_5_v0,2023.2.2,Win32,84.74576271,,,,,,,,,,,,,,,,568.01,569.3039,569.3039,572.8453,return,1.3914,,62.36979167,,,,,,FBP-OG-18.png,0.37,1.2,7,0.5,0,31,31,6,1,,,,,,,,,,,,,,,,,,,,,,,,,,,,,,,,,,,,,,,,
,,,,,SPR24_025,21,Male,2024-04-10_09h32.15.000,jersey_experiment_5_v0,2023.2.2,Win32,84.74576271,,,,,,,,,,,,,,,,572.8456,574.1396,574.1397,577.0338,return,1.1739,,88.41145833,,,,,,FBP-RB-91.png,0.43,1.2,44,0.5,0,32,32,43,1,,,,,,,,,,,,,,,,,,,,,,,,,,,,,,,,,,,,,,,,
,,,,,SPR24_025,21,Male,2024-04-10_09h32.15.000,jersey_experiment_5_v0,2023.2.2,Win32,84.74576271,,,,,,,,,,,,,,,,577.034,578.328,578.328,581.8575,return,1.389,,88.02083333,,,,,,FBP-OG-19.png,0.45,1.2,15,0.5,0,33,33,14,1,,,,,,,,,,,,,,,,,,,,,,,,,,,,,,,,,,,,,,,,
,,,,,SPR24_025,21,Male,2024-04-10_09h32.15.000,jersey_experiment_5_v0,2023.2.2,Win32,84.74576271,,,,,,,,,,,,,,,,581.8578,583.1518,583.1519,585.8108,return,1.1912,,20.05208333,,,,,,FBP-OG-17.png,0.35,1.2,1,0.5,0,34,34,0,1,,,,,,,,,,,,,,,,,,,,,,,,,,,,,,,,,,,,,,,,
,,,,,SPR24_025,21,Male,2024-04-10_09h32.15.000,jersey_experiment_5_v0,2023.2.2,Win32,84.74576271,,,,,,,,,,,,,,,,585.8109,587.1049,587.105,589.999,return,1.3333,,31.90104167,,,,,,FBP-OG-17.png,0.37,1.2,2,0.5,0,35,35,1,1,,,,,,,,,,,,,,,,,,,,,,,,,,,,,,,,,,,,,,,,
,,,,,SPR24_025,21,Male,2024-04-10_09h32.15.000,jersey_experiment_5_v0,2023.2.2,Win32,84.74576271,,,,,,,,,,,,,,,,589.9992,591.2933,591.2934,595.1167,return,1.2158,,62.76041667,,,,,,FBP-OG-17.png,0.43,1.2,4,0.5,0,36,36,3,1,,,,,,,,,,,,,,,,,,,,,,,,,,,,,,,,,,,,,,,,
,,,,,SPR24_025,21,Male,2024-04-10_09h32.15.000,jersey_experiment_5_v0,2023.2.2,Win32,84.74576271,,,,,,,,,,,,,,,,595.117,596.1639,596.1639,599.5052,return,1.2847,,87.890625,,,,,,FBP-PT-81.png,0.45,1.2,55,0.25,0,37,37,54,1,,,,,,,,,,,,,,,,,,,,,,,,,,,,,,,,,,,,,,,,
,,,,,SPR24_025,21,Male,2024-04-10_09h32.15.000,jersey_experiment_5_v0,2023.2.2,Win32,84.74576271,,,,,,,,,,,,,,,,599.5054,600.5521,600.5521,603.6347,return,1.4921,,88.28125,,,,,,FBP-YG-91.png,0.4,1.2,28,0.25,0,38,38,27,1,,,,,,,,,,,,,,,,,,,,,,,,,,,,,,,,,,,,,,,,
,,,,,SPR24_025,21,Male,2024-04-10_09h32.15.000,jersey_experiment_5_v0,2023.2.2,Win32,84.74576271,,,,,,,,,,,,,,,,603.6349,604.929,604.9291,608.4349,return,1.2708,,54.6875,,,,,,FBP-RB-71.png,0.35,1.2,31,0.5,0,39,39,30,1,,,,,,,,,,,,,,,,,,,,,,,,,,,,,,,,,,,,,,,,
,,,,,SPR24_025,21,Male,2024-04-10_09h32.15.000,jersey_experiment_5_v0,2023.2.2,Win32,84.74576271,,,,,,,,,,,,,,,,608.4352,609.7289,609.729,612.0586,return,1.1464,,49.86979167,,,,,,FBP-OG-18.png,0.35,1.2,6,0.5,0,40,40,5,1,,,,,,,,,,,,,,,,,,,,,,,,,,,,,,,,,,,,,,,,
,,,,,SPR24_025,21,Male,2024-04-10_09h32.15.000,jersey_experiment_5_v0,2023.2.2,Win32,84.74576271,,,,,,,,,,,,,,,,612.0589,613.3531,613.3531,617.4353,return,0.9229,,55.078125,,,,,,FBP-RB-71.png,0.37,1.2,32,0.5,0,41,41,31,1,,,,,,,,,,,,,,,,,,,,,,,,,,,,,,,,,,,,,,,,
,,,,,SPR24_025,21,Male,2024-04-10_09h32.15.000,jersey_experiment_5_v0,2023.2.2,Win32,84.74576271,,,,,,,,,,,,,,,,617.4355,618.4823,618.4824,621.6473,return,1.0831,,61.58854167,,,,,,FBP-PT-81.png,0.35,1.2,51,0.25,0,42,42,50,1,,,,,,,,,,,,,,,,,,,,,,,,,,,,,,,,,,,,,,,,
,,,,,SPR24_025,21,Male,2024-04-10_09h32.15.000,jersey_experiment_5_v0,2023.2.2,Win32,84.74576271,,,,,,,,,,,,,,,,621.6476,622.9413,622.9414,625.0708,return,1.0721,,62.5,,,,,,FBP-RB-91.png,0.37,1.2,42,0.5,0,43,43,41,1,,,,,,,,,,,,,,,,,,,,,,,,,,,,,,,,,,,,,,,,
,,,,,SPR24_025,21,Male,2024-04-10_09h32.15.000,jersey_experiment_5_v0,2023.2.2,Win32,84.74576271,,,,,,,,,,,,,,,,625.071,626.365,626.365,628.6709,return,1.0251,,69.53125,,,,,,FBP-OG-19.png,0.4,1.2,13,0.5,0,44,44,12,1,,,,,,,,,,,,,,,,,,,,,,,,,,,,,,,,,,,,,,,,
,,,,,SPR24_025,21,Male,2024-04-10_09h32.15.000,jersey_experiment_5_v0,2023.2.2,Win32,84.74576271,,,,,,,,,,,,,,,,628.6711,629.718,629.718,631.9887,return,1.1155,,75.13020833,,,,,,FBP-PT-91.png,0.4,1.2,58,0.25,0,45,45,57,1,,,,,,,,,,,,,,,,,,,,,,,,,,,,,,,,,,,,,,,,
,,,,,SPR24_025,21,Male,2024-04-10_09h32.15.000,jersey_experiment_5_v0,2023.2.2,Win32,84.74576271,,,,,,,,,,,,,,,,631.989,633.0359,633.0359,635.2947,return,1.2491,,75,,,,,,FBP-YG-91.png,0.37,1.2,27,0.25,0,46,46,26,1,,,,,,,,,,,,,,,,,,,,,,,,,,,,,,,,,,,,,,,,
,,,,,SPR24_025,21,Male,2024-04-10_09h32.15.000,jersey_experiment_5_v0,2023.2.2,Win32,84.74576271,,,,,,,,,,,,,,,,635.2949,636.5891,636.5892,639.0244,return,0.9439,,74.86979167,,,,,,FBP-RB-91.png,0.4,1.2,43,0.5,0,47,47,42,1,,,,,,,,,,,,,,,,,,,,,,,,,,,,,,,,,,,,,,,,
,,,,,SPR24_025,21,Male,2024-04-10_09h32.15.000,jersey_experiment_5_v0,2023.2.2,Win32,84.74576271,,,,,,,,,,,,,,,,639.0246,640.3185,640.3185,643.0244,return,0.9063,,75.65104167,,,,,,FBP-OG-18.png,0.4,1.2,8,0.5,0,48,48,7,1,,,,,,,,,,,,,,,,,,,,,,,,,,,,,,,,,,,,,,,,
,,,,,SPR24_025,21,Male,2024-04-10_09h32.15.000,jersey_experiment_5_v0,2023.2.2,Win32,84.74576271,,,,,,,,,,,,,,,,643.0247,644.0717,644.0718,646.5305,return,0.9888,,75.26041667,,,,,,FBP-PT-81.png,0.37,1.2,52,0.25,0,49,49,51,1,,,,,,,,,,,,,,,,,,,,,,,,,,,,,,,,,,,,,,,,
,,,,,SPR24_025,21,Male,2024-04-10_09h32.15.000,jersey_experiment_5_v0,2023.2.2,Win32,84.74576271,,,,,,,,,,,,,,,,646.5308,647.5775,647.5775,650.0602,return,1.4659,,75.13020833,,,,,,FBP-YG-81.png,0.35,1.2,21,0.25,0,50,50,20,1,,,,,,,,,,,,,,,,,,,,,,,,,,,,,,,,,,,,,,,,
,,,,,SPR24_025,21,Male,2024-04-10_09h32.15.000,jersey_experiment_5_v0,2023.2.2,Win32,84.74576271,,,,,,,,,,,,,,,,650.0604,651.1071,651.1072,653.7895,return,0.8644,,50.13020833,,,,,,FBP-PT-91.png,0.37,1.2,57,0.25,0,51,51,56,1,,,,,,,,,,,,,,,,,,,,,,,,,,,,,,,,,,,,,,,,
,,,,,SPR24_025,21,Male,2024-04-10_09h32.15.000,jersey_experiment_5_v0,2023.2.2,Win32,84.74576271,,,,,,,,,,,,,,,,653.7898,654.8366,654.8367,657.3898,return,0.9678,,95.703125,,,,,,FBP-YG-71.png,0.45,1.2,20,0.25,0,52,52,19,1,,,,,,,,,,,,,,,,,,,,,,,,,,,,,,,,,,,,,,,,
,,,,,SPR24_025,21,Male,2024-04-10_09h32.15.000,jersey_experiment_5_v0,2023.2.2,Win32,84.74576271,,,,,,,,,,,,,,,,657.3899,658.4369,658.4369,660.531,return,1.1619,,100,,,,,,FBP-YG-81.png,0.45,1.2,25,0.25,0,53,53,24,1,,,,,,,,,,,,,,,,,,,,,,,,,,,,,,,,,,,,,,,,
,,,,,SPR24_025,21,Male,2024-04-10_09h32.15.000,jersey_experiment_5_v0,2023.2.2,Win32,84.74576271,,,,,,,,,,,,,,,,660.5312,661.8251,661.8252,665.3076,return,1.2312,,75.13020833,,,,,,FBP-RB-71.png,0.4,1.2,33,0.5,0,54,54,32,1,,,,,,,,,,,,,,,,,,,,,,,,,,,,,,,,,,,,,,,,
,,,,,SPR24_025,21,Male,2024-04-10_09h32.15.000,jersey_experiment_5_v0,2023.2.2,Win32,84.74576271,,,,,,,,,,,,,,,,665.3079,666.6018,666.6018,669.4256,return,0.9523,,70.57291667,,,,,,FBP-RB-91.png,0.35,1.2,41,0.5,0,55,55,40,1,,,,,,,,,,,,,,,,,,,,,,,,,,,,,,,,,,,,,,,,
,,,,,SPR24_025,21,Male,2024-04-10_09h32.15.000,jersey_experiment_5_v0,2023.2.2,Win32,84.74576271,,,,,,,,,,,,,,,,669.4257,670.7195,670.7195,672.7315,return,1.041,,75,,,,,,FBP-OG-18.png,0.43,1.2,9,0.5,0,56,56,8,1,,,,,,,,,,,,,,,,,,,,,,,,,,,,,,,,,,,,,,,,
,,,,,SPR24_025,21,Male,2024-04-10_09h32.15.000,jersey_experiment_5_v0,2023.2.2,Win32,84.74576271,,,,,,,,,,,,,,,,672.7317,674.0257,674.0257,676.3199,return,1.0476,,100,,,,,,FBP-RB-81.png,0.45,1.2,40,0.5,0,57,57,39,1,,,,,,,,,,,,,,,,,,,,,,,,,,,,,,,,,,,,,,,,
,,,,,SPR24_025,21,Male,2024-04-10_09h32.15.000,jersey_experiment_5_v0,2023.2.2,Win32,84.74576271,,,,,,,,,,,,,,,,676.3201,677.6141,677.6142,679.52,return,0.9538,,92.96875,,,,,,FBP-RB-81.png,0.43,1.2,39,0.5,0,58,58,38,1,,,,,,,,,,,,,,,,,,,,,,,,,,,,,,,,,,,,,,,,
,,,,,SPR24_025,21,Male,2024-04-10_09h32.15.000,jersey_experiment_5_v0,2023.2.2,Win32,84.74576271,,,,,,,,,,,,,,,,679.5202,680.5671,680.5672,682.7791,return,1.4888,,100,,,,,,FBP-PT-91.png,0.45,1.2,60,0.25,0,59,59,59,1,,,,,,,,,,,,,,,,,,,,,,,,,,,,,,,,,,,,,,,,
,,,,,SPR24_025,21,Male,2024-04-10_09h32.15.000,jersey_experiment_5_v0,2023.2.2,Win32,84.74576271,,,,,,,,,,,,,,,,,,,,,,,,,,,,,,,,,,,,,,,682.7795,802.7721,,,,,,,,,,,,,,,,,,,,,,,,,,,,,,,,,,,,,,
,,,,,SPR24_025,21,Male,2024-04-10_09h32.15.000,jersey_experiment_5_v0,2023.2.2,Win32,84.74576271,,,,,,,,,,,,,,,,,,,,,,,,,,,,,,,,,,,,,,,,,802.7722,805.2424,return,2.4653,,,,,,,,,,,,,,,,,,,,,,,,,,,,,,,,,,
,,,,,SPR24_025,21,Male,2024-04-10_09h32.15.000,jersey_experiment_5_v0,2023.2.2,Win32,84.74576271,,,,,,,,,,,,,,,,805.2505,806.3013,806.3014,809.6661,return,0.9982,,68.61979167,,,,,,FBP-RB-19.png,0.4,1.2,43,0.25,,,,,,,,,,,,,0,0,0,42,1,,,,,,,,,,,,,,,,,,,,,,,,,,,,
,,,,,SPR24_025,21,Male,2024-04-10_09h32.15.000,jersey_experiment_5_v0,2023.2.2,Win32,84.74576271,,,,,,,,,,,,,,,,809.6664,810.7136,810.7136,812.831,return,0.6983,,100,,,,,,FBP-RB-18.png,0.45,1.2,40,0.25,,,,,,,,,,,,,0,1,1,39,1,,,,,,,,,,,,,,,,,,,,,,,,,,,,
,,,,,SPR24_025,21,Male,2024-04-10_09h32.15.000,jersey_experiment_5_v0,2023.2.2,Win32,84.74576271,,,,,,,,,,,,,,,,812.8313,813.8781,813.8781,816.4194,return,0.2686,,62.5,,,,,,FBP-OG-71.png,0.37,1.2,2,0.25,,,,,,,,,,,,,0,2,2,1,1,,,,,,,,,,,,,,,,,,,,,,,,,,,,
,,,,,SPR24_025,21,Male,2024-04-10_09h32.15.000,jersey_experiment_5_v0,2023.2.2,Win32,84.74576271,,,,,,,,,,,,,,,,816.4198,817.4665,817.4665,819.2785,return,0.3316,,75.13020833,,,,,,FBP-OG-81.png,0.43,1.2,9,0.25,,,,,,,,,,,,,0,3,3,8,1,,,,,,,,,,,,,,,,,,,,,,,,,,,,
,,,,,SPR24_025,21,Male,2024-04-10_09h32.15.000,jersey_experiment_5_v0,2023.2.2,Win32,84.74576271,,,,,,,,,,,,,,,,819.2788,820.5726,820.5728,822.8198,return,0.3858,,50.26041667,,,,,,FBP-PT-17.png,0.4,1.2,48,0.5,,,,,,,,,,,,,0,4,4,47,1,,,,,,,,,,,,,,,,,,,,,,,,,,,,
,,,,,SPR24_025,21,Male,2024-04-10_09h32.15.000,jersey_experiment_5_v0,2023.2.2,Win32,84.74576271,,,,,,,,,,,,,,,,822.82,824.1138,824.1138,825.6902,return,0.2762,,44.27083333,,,,,,FBP-PT-18.png,0.37,1.2,52,0.5,,,,,,,,,,,,,0,5,5,51,1,,,,,,,,,,,,,,,,,,,,,,,,,,,,
,,,,,SPR24_025,21,Male,2024-04-10_09h32.15.000,jersey_experiment_5_v0,2023.2.2,Win32,84.74576271,,,,,,,,,,,,,,,,825.6905,826.9845,826.9846,828.1963,return,0.2968,,43.09895833,,,,,,FBP-PT-19.png,0.4,1.2,58,0.5,,,,,,,,,,,,,0,6,6,57,1,,,,,,,,,,,,,,,,,,,,,,,,,,,,
,,,,,SPR24_025,21,Male,2024-04-10_09h32.15.000,jersey_experiment_5_v0,2023.2.2,Win32,84.74576271,,,,,,,,,,,,,,,,828.1965,829.4906,829.4907,830.9141,return,0.4108,,56.90104167,,,,,,FBP-YG-19.png,0.4,1.2,28,0.5,,,,,,,,,,,,,0,7,7,27,1,,,,,,,,,,,,,,,,,,,,,,,,,,,,
,,,,,SPR24_025,21,Male,2024-04-10_09h32.15.000,jersey_experiment_5_v0,2023.2.2,Win32,84.74576271,,,,,,,,,,,,,,,,830.9143,831.9612,831.9612,833.4672,return,0.2176,,74.609375,,,,,,FBP-OG-81.png,0.45,1.2,10,0.25,,,,,,,,,,,,,0,8,8,9,1,,,,,,,,,,,,,,,,,,,,,,,,,,,,
,,,,,SPR24_025,21,Male,2024-04-10_09h32.15.000,jersey_experiment_5_v0,2023.2.2,Win32,84.74576271,,,,,,,,,,,,,,,,833.4674,834.7613,834.7613,836.5262,return,0.2753,,79.81770833,,,,,,FBP-PT-18.png,0.43,1.2,54,0.5,,,,,,,,,,,,,0,9,9,53,1,,,,,,,,,,,,,,,,,,,,,,,,,,,,
,,,,,SPR24_025,21,Male,2024-04-10_09h32.15.000,jersey_experiment_5_v0,2023.2.2,Win32,84.74576271,,,,,,,,,,,,,,,,836.5264,837.5732,837.5732,839.2674,return,0.2359,,75.390625,,,,,,FBP-RB-19.png,0.43,1.2,44,0.25,,,,,,,,,,,,,0,10,10,43,1,,,,,,,,,,,,,,,,,,,,,,,,,,,,
,,,,,SPR24_025,21,Male,2024-04-10_09h32.15.000,jersey_experiment_5_v0,2023.2.2,Win32,84.74576271,,,,,,,,,,,,,,,,839.2678,840.3145,840.3145,841.4205,return,0.2632,,84.63541667,,,,,,FBP-RB-17.png,0.4,1.2,33,0.25,,,,,,,,,,,,,0,11,11,32,1,,,,,,,,,,,,,,,,,,,,,,,,,,,,
,,,,,SPR24_025,21,Male,2024-04-10_09h32.15.000,jersey_experiment_5_v0,2023.2.2,Win32,84.74576271,,,,,,,,,,,,,,,,841.4206,842.7146,842.7146,843.9498,return,0.3204,,92.05729167,,,,,,FBP-PT-17.png,0.45,1.2,50,0.5,,,,,,,,,,,,,0,12,12,49,1,,,,,,,,,,,,,,,,,,,,,,,,,,,,
,,,,,SPR24_025,21,Male,2024-04-10_09h32.15.000,jersey_experiment_5_v0,2023.2.2,Win32,84.74576271,,,,,,,,,,,,,,,,843.9501,845.244,845.2441,847.644,return,0.5013,,71.22395833,,,,,,FBP-PT-18.png,0.4,1.2,53,0.5,,,,,,,,,,,,,0,13,13,52,1,,,,,,,,,,,,,,,,,,,,,,,,,,,,
,,,,,SPR24_025,21,Male,2024-04-10_09h32.15.000,jersey_experiment_5_v0,2023.2.2,Win32,84.74576271,,,,,,,,,,,,,,,,847.6442,848.9383,848.9384,850.2912,return,0.2826,,88.02083333,,,,,,FBP-YG-18.png,0.43,1.2,24,0.5,,,,,,,,,,,,,0,14,14,23,1,,,,,,,,,,,,,,,,,,,,,,,,,,,,
,,,,,SPR24_025,21,Male,2024-04-10_09h32.15.000,jersey_experiment_5_v0,2023.2.2,Win32,84.74576271,,,,,,,,,,,,,,,,850.2914,851.5855,851.5855,853.2326,return,0.3303,,56.77083333,,,,,,FBP-PT-19.png,0.35,1.2,56,0.5,,,,,,,,,,,,,0,15,15,55,1,,,,,,,,,,,,,,,,,,,,,,,,,,,,
,,,,,SPR24_025,21,Male,2024-04-10_09h32.15.000,jersey_experiment_5_v0,2023.2.2,Win32,84.74576271,,,,,,,,,,,,,,,,853.2329,854.2797,854.2797,855.7386,return,0.2908,,74.86979167,,,,,,FBP-RB-18.png,0.43,1.2,39,0.25,,,,,,,,,,,,,0,16,16,38,1,,,,,,,,,,,,,,,,,,,,,,,,,,,,
,,,,,SPR24_025,21,Male,2024-04-10_09h32.15.000,jersey_experiment_5_v0,2023.2.2,Win32,84.74576271,,,,,,,,,,,,,,,,855.7388,856.7857,856.7858,858.1739,return,0.4407,,75.390625,,,,,,FBP-OG-71.png,0.43,1.2,4,0.25,,,,,,,,,,,,,0,17,17,3,1,,,,,,,,,,,,,,,,,,,,,,,,,,,,
,,,,,SPR24_025,21,Male,2024-04-10_09h32.15.000,jersey_experiment_5_v0,2023.2.2,Win32,84.74576271,,,,,,,,,,,,,,,,858.1742,859.2211,859.2211,860.7505,return,0.2726,,88.28125,,,,,,FBP-OG-91.png,0.45,1.2,15,0.25,,,,,,,,,,,,,0,18,18,14,1,,,,,,,,,,,,,,,,,,,,,,,,,,,,
,,,,,SPR24_025,21,Male,2024-04-10_09h32.15.000,jersey_experiment_5_v0,2023.2.2,Win32,84.74576271,,,,,,,,,,,,,,,,860.7508,861.7976,861.7976,864.739,return,0.1559,,92.1875,,,,,,FBP-RB-19.png,0.45,1.2,45,0.25,,,,,,,,,,,,,0,19,19,44,1,,,,,,,,,,,,,,,,,,,,,,,,,,,,
,,,,,SPR24_025,21,Male,2024-04-10_09h32.15.000,jersey_experiment_5_v0,2023.2.2,Win32,84.74576271,,,,,,,,,,,,,,,,864.7392,866.0331,866.0332,867.7273,return,1.0981,,100,,,,,,FBP-YG-18.png,0.45,1.2,25,0.5,,,,,,,,,,,,,0,20,20,24,1,,,,,,,,,,,,,,,,,,,,,,,,,,,,
,,,,,SPR24_025,21,Male,2024-04-10_09h32.15.000,jersey_experiment_5_v0,2023.2.2,Win32,84.74576271,,,,,,,,,,,,,,,,867.7275,868.7745,868.7745,870.0685,return,0.1978,,93.48958333,,,,,,FBP-OG-91.png,0.43,1.2,14,0.25,,,,,,,,,,,,,0,21,21,13,1,,,,,,,,,,,,,,,,,,,,,,,,,,,,
,,,,,SPR24_025,21,Male,2024-04-10_09h32.15.000,jersey_experiment_5_v0,2023.2.2,Win32,84.74576271,,,,,,,,,,,,,,,,870.0688,871.1156,871.1156,872.6687,return,0.3951,,74.73958333,,,,,,FBP-RB-18.png,0.37,1.2,37,0.25,,,,,,,,,,,,,0,22,22,36,1,,,,,,,,,,,,,,,,,,,,,,,,,,,,
,,,,,SPR24_025,21,Male,2024-04-10_09h32.15.000,jersey_experiment_5_v0,2023.2.2,Win32,84.74576271,,,,,,,,,,,,,,,,872.6689,873.7156,873.7157,875.9981,return,0.2727,,40.49479167,,,,,,FBP-OG-91.png,0.35,1.2,11,0.25,,,,,,,,,,,,,0,23,23,10,1,,,,,,,,,,,,,,,,,,,,,,,,,,,,
,,,,,SPR24_025,21,Male,2024-04-10_09h32.15.000,jersey_experiment_5_v0,2023.2.2,Win32,84.74576271,,,,,,,,,,,,,,,,875.9983,877.0453,877.0454,878.6924,return,0.3207,,50.13020833,,,,,,FBP-OG-71.png,0.4,1.2,3,0.25,,,,,,,,,,,,,0,24,24,2,1,,,,,,,,,,,,,,,,,,,,,,,,,,,,
,,,,,SPR24_025,21,Male,2024-04-10_09h32.15.000,jersey_experiment_5_v0,2023.2.2,Win32,84.74576271,,,,,,,,,,,,,,,,878.6926,879.7394,879.7395,881.3396,return,0.4176,,39.84375,,,,,,FBP-OG-91.png,0.37,1.2,12,0.25,,,,,,,,,,,,,0,25,25,11,1,,,,,,,,,,,,,,,,,,,,,,,,,,,,
,,,,,SPR24_025,21,Male,2024-04-10_09h32.15.000,jersey_experiment_5_v0,2023.2.2,Win32,84.74576271,,,,,,,,,,,,,,,,881.3398,882.6337,882.6337,884.3985,return,0.3577,,49.73958333,,,,,,FBP-YG-18.png,0.35,1.2,21,0.5,,,,,,,,,,,,,0,26,26,20,1,,,,,,,,,,,,,,,,,,,,,,,,,,,,
,,,,,SPR24_025,21,Male,2024-04-10_09h32.15.000,jersey_experiment_5_v0,2023.2.2,Win32,84.74576271,,,,,,,,,,,,,,,,884.3988,885.6926,885.6927,887.5398,return,0.3671,,95.44270833,,,,,,FBP-PT-18.png,0.45,1.2,55,0.5,,,,,,,,,,,,,0,27,27,54,1,,,,,,,,,,,,,,,,,,,,,,,,,,,,
,,,,,SPR24_025,21,Male,2024-04-10_09h32.15.000,jersey_experiment_5_v0,2023.2.2,Win32,84.74576271,,,,,,,,,,,,,,,,887.5401,888.587,888.587,890.0813,return,0.2592,,44.140625,,,,,,FBP-OG-81.png,0.35,1.2,6,0.25,,,,,,,,,,,,,0,28,28,5,1,,,,,,,,,,,,,,,,,,,,,,,,,,,,
,,,,,SPR24_025,21,Male,2024-04-10_09h32.15.000,jersey_experiment_5_v0,2023.2.2,Win32,84.74576271,,,,,,,,,,,,,,,,890.0816,891.1281,891.1281,892.4458,return,0.2267,,54.42708333,,,,,,FBP-RB-17.png,0.37,1.2,32,0.25,,,,,,,,,,,,,0,29,29,31,1,,,,,,,,,,,,,,,,,,,,,,,,,,,,
,,,,,SPR24_025,21,Male,2024-04-10_09h32.15.000,jersey_experiment_5_v0,2023.2.2,Win32,84.74576271,,,,,,,,,,,,,,,,892.4461,893.7399,893.7399,895.5636,return,0.1468,,45.3125,,,,,,FBP-PT-18.png,0.35,1.2,51,0.5,,,,,,,,,,,,,0,30,30,50,1,,,,,,,,,,,,,,,,,,,,,,,,,,,,
,,,,,SPR24_025,21,Male,2024-04-10_09h32.15.000,jersey_experiment_5_v0,2023.2.2,Win32,84.74576271,,,,,,,,,,,,,,,,895.5638,896.8578,896.8579,898.2931,return,0.2496,,65.36458333,,,,,,FBP-YG-17.png,0.4,1.2,18,0.5,,,,,,,,,,,,,0,31,31,17,1,,,,,,,,,,,,,,,,,,,,,,,,,,,,
,,,,,SPR24_025,21,Male,2024-04-10_09h32.15.000,jersey_experiment_5_v0,2023.2.2,Win32,84.74576271,,,,,,,,,,,,,,,,898.2934,899.5872,899.5873,900.9757,return,0.2136,,61.06770833,,,,,,FBP-PT-17.png,0.37,1.2,47,0.5,,,,,,,,,,,,,0,32,32,46,1,,,,,,,,,,,,,,,,,,,,,,,,,,,,
,,,,,SPR24_025,21,Male,2024-04-10_09h32.15.000,jersey_experiment_5_v0,2023.2.2,Win32,84.74576271,,,,,,,,,,,,,,,,900.976,902.2699,902.27,903.7639,return,0.2826,,49.73958333,,,,,,FBP-YG-19.png,0.35,1.2,26,0.5,,,,,,,,,,,,,0,33,33,25,1,,,,,,,,,,,,,,,,,,,,,,,,,,,,
,,,,,SPR24_025,21,Male,2024-04-10_09h32.15.000,jersey_experiment_5_v0,2023.2.2,Win32,84.74576271,,,,,,,,,,,,,,,,903.7641,905.0581,905.0581,906.8935,return,0.1095,,76.953125,,,,,,FBP-PT-17.png,0.43,1.2,49,0.5,,,,,,,,,,,,,0,34,34,48,1,,,,,,,,,,,,,,,,,,,,,,,,,,,,
,,,,,SPR24_025,21,Male,2024-04-10_09h32.15.000,jersey_experiment_5_v0,2023.2.2,Win32,84.74576271,,,,,,,,,,,,,,,,906.8938,908.1876,908.1877,909.6466,return,0.1788,,57.55208333,,,,,,FBP-YG-17.png,0.35,1.2,16,0.5,,,,,,,,,,,,,0,35,35,15,1,,,,,,,,,,,,,,,,,,,,,,,,,,,,
,,,,,SPR24_025,21,Male,2024-04-10_09h32.15.000,jersey_experiment_5_v0,2023.2.2,Win32,84.74576271,,,,,,,,,,,,,,,,909.6468,910.9405,910.9405,912.576,return,0.1423,,56.77083333,,,,,,FBP-YG-17.png,0.37,1.2,17,0.5,,,,,,,,,,,,,0,36,36,16,1,,,,,,,,,,,,,,,,,,,,,,,,,,,,
,,,,,SPR24_025,21,Male,2024-04-10_09h32.15.000,jersey_experiment_5_v0,2023.2.2,Win32,84.74576271,,,,,,,,,,,,,,,,912.5762,913.8702,913.8702,915.5056,return,0.152,,79.03645833,,,,,,FBP-YG-18.png,0.4,1.2,23,0.5,,,,,,,,,,,,,0,37,37,22,1,,,,,,,,,,,,,,,,,,,,,,,,,,,,
,,,,,SPR24_025,21,Male,2024-04-10_09h32.15.000,jersey_experiment_5_v0,2023.2.2,Win32,84.74576271,,,,,,,,,,,,,,,,915.5059,916.5527,916.5527,918.8117,return,1.1491,,79.03645833,,,,,,FBP-OG-91.png,0.4,1.2,13,0.25,,,,,,,,,,,,,0,38,38,12,1,,,,,,,,,,,,,,,,,,,,,,,,,,,,
,,,,,SPR24_025,21,Male,2024-04-10_09h32.15.000,jersey_experiment_5_v0,2023.2.2,Win32,84.74576271,,,,,,,,,,,,,,,,918.8119,920.1056,920.1057,921.2469,return,0.202,,87.36979167,,,,,,FBP-YG-17.png,0.43,1.2,19,0.5,,,,,,,,,,,,,0,39,39,18,1,,,,,,,,,,,,,,,,,,,,,,,,,,,,
,,,,,SPR24_025,21,Male,2024-04-10_09h32.15.000,jersey_experiment_5_v0,2023.2.2,Win32,84.74576271,,,,,,,,,,,,,,,,921.2472,922.2941,922.2941,923.8705,return,0.1901,,85.15625,,,,,,FBP-OG-81.png,0.4,1.2,8,0.25,,,,,,,,,,,,,0,40,40,7,1,,,,,,,,,,,,,,,,,,,,,,,,,,,,
,,,,,SPR24_025,21,Male,2024-04-10_09h32.15.000,jersey_experiment_5_v0,2023.2.2,Win32,84.74576271,,,,,,,,,,,,,,,,923.8708,924.9176,924.9176,926.3179,return,0.1678,,99.86979167,,,,,,FBP-RB-17.png,0.43,1.2,34,0.25,,,,,,,,,,,,,0,41,41,33,1,,,,,,,,,,,,,,,,,,,,,,,,,,,,
,,,,,SPR24_025,21,Male,2024-04-10_09h32.15.000,jersey_experiment_5_v0,2023.2.2,Win32,84.74576271,,,,,,,,,,,,,,,,926.3181,927.365,927.365,930.0357,return,0.2734,,56.25,,,,,,FBP-RB-18.png,0.35,1.2,36,0.25,,,,,,,,,,,,,0,42,42,35,1,,,,,,,,,,,,,,,,,,,,,,,,,,,,
,,,,,SPR24_025,21,Male,2024-04-10_09h32.15.000,jersey_experiment_5_v0,2023.2.2,Win32,84.74576271,,,,,,,,,,,,,,,,930.0358,931.3296,931.3296,932.3416,return,0.2018,,65.75520833,,,,,,FBP-YG-19.png,0.37,1.2,27,0.5,,,,,,,,,,,,,0,43,43,26,1,,,,,,,,,,,,,,,,,,,,,,,,,,,,
,,,,,SPR24_025,21,Male,2024-04-10_09h32.15.000,jersey_experiment_5_v0,2023.2.2,Win32,84.74576271,,,,,,,,,,,,,,,,932.3418,933.3885,933.3886,935.0122,return,0.2355,,66.53645833,,,,,,FBP-RB-19.png,0.37,1.2,42,0.25,,,,,,,,,,,,,0,44,44,41,1,,,,,,,,,,,,,,,,,,,,,,,,,,,,
,,,,,SPR24_025,21,Male,2024-04-10_09h32.15.000,jersey_experiment_5_v0,2023.2.2,Win32,84.74576271,,,,,,,,,,,,,,,,935.0125,936.0592,936.0592,937.5652,return,0.2294,,63.28125,,,,,,FBP-OG-81.png,0.37,1.2,7,0.25,,,,,,,,,,,,,0,45,45,6,1,,,,,,,,,,,,,,,,,,,,,,,,,,,,
,,,,,SPR24_025,21,Male,2024-04-10_09h32.15.000,jersey_experiment_5_v0,2023.2.2,Win32,84.74576271,,,,,,,,,,,,,,,,937.5655,938.6124,938.6124,939.9535,return,0.3545,,62.109375,,,,,,FBP-RB-17.png,0.35,1.2,31,0.25,,,,,,,,,,,,,0,46,46,30,1,,,,,,,,,,,,,,,,,,,,,,,,,,,,
,,,,,SPR24_025,21,Male,2024-04-10_09h32.15.000,jersey_experiment_5_v0,2023.2.2,Win32,84.74576271,,,,,,,,,,,,,,,,939.9538,941.2477,941.2477,943.3301,return,0.8378,,78.90625,,,,,,FBP-YG-19.png,0.43,1.2,29,0.5,,,,,,,,,,,,,0,47,47,28,1,,,,,,,,,,,,,,,,,,,,,,,,,,,,
,,,,,SPR24_025,21,Male,2024-04-10_09h32.15.000,jersey_experiment_5_v0,2023.2.2,Win32,84.74576271,,,,,,,,,,,,,,,,943.3303,944.6243,944.6244,946.6245,return,1.2479,,87.5,,,,,,FBP-YG-17.png,0.45,1.2,20,0.5,,,,,,,,,,,,,0,48,48,19,1,,,,,,,,,,,,,,,,,,,,,,,,,,,,
,,,,,SPR24_025,21,Male,2024-04-10_09h32.15.000,jersey_experiment_5_v0,2023.2.2,Win32,84.74576271,,,,,,,,,,,,,,,,946.6247,947.6714,947.6715,948.8951,return,0.3574,,100,,,,,,FBP-RB-17.png,0.45,1.2,35,0.25,,,,,,,,,,,,,0,49,49,34,1,,,,,,,,,,,,,,,,,,,,,,,,,,,,
,,,,,SPR24_025,21,Male,2024-04-10_09h32.15.000,jersey_experiment_5_v0,2023.2.2,Win32,84.74576271,,,,,,,,,,,,,,,,948.8953,949.9422,949.9423,951.2601,return,0.4898,,99.21875,,,,,,FBP-OG-71.png,0.45,1.2,5,0.25,,,,,,,,,,,,,0,50,50,4,1,,,,,,,,,,,,,,,,,,,,,,,,,,,,
,,,,,SPR24_025,21,Male,2024-04-10_09h32.15.000,jersey_experiment_5_v0,2023.2.2,Win32,84.74576271,,,,,,,,,,,,,,,,951.2602,952.5541,952.5542,954.0014,return,0.1755,,99.08854167,,,,,,FBP-PT-19.png,0.43,1.2,59,0.5,,,,,,,,,,,,,0,51,51,58,1,,,,,,,,,,,,,,,,,,,,,,,,,,,,
,,,,,SPR24_025,21,Male,2024-04-10_09h32.15.000,jersey_experiment_5_v0,2023.2.2,Win32,84.74576271,,,,,,,,,,,,,,,,954.0017,955.2954,955.2954,956.8601,return,0.2545,,79.94791667,,,,,,FBP-YG-18.png,0.37,1.2,22,0.5,,,,,,,,,,,,,0,52,52,21,1,,,,,,,,,,,,,,,,,,,,,,,,,,,,
,,,,,SPR24_025,21,Male,2024-04-10_09h32.15.000,jersey_experiment_5_v0,2023.2.2,Win32,84.74576271,,,,,,,,,,,,,,,,956.8604,958.1543,958.1543,959.3074,return,0.2178,,93.88020833,,,,,,FBP-PT-19.png,0.45,1.2,60,0.5,,,,,,,,,,,,,0,53,53,59,1,,,,,,,,,,,,,,,,,,,,,,,,,,,,
,,,,,SPR24_025,21,Male,2024-04-10_09h32.15.000,jersey_experiment_5_v0,2023.2.2,Win32,84.74576271,,,,,,,,,,,,,,,,959.3076,960.3542,960.3543,961.8838,return,0.384,,68.22916667,,,,,,FBP-RB-19.png,0.35,1.2,41,0.25,,,,,,,,,,,,,0,54,54,40,1,,,,,,,,,,,,,,,,,,,,,,,,,,,,
,,,,,SPR24_025,21,Male,2024-04-10_09h32.15.000,jersey_experiment_5_v0,2023.2.2,Win32,84.74576271,,,,,,,,,,,,,,,,961.884,962.9309,962.931,964.9312,return,0.2732,,49.34895833,,,,,,FBP-OG-71.png,0.35,1.2,1,0.25,,,,,,,,,,,,,0,55,55,0,1,,,,,,,,,,,,,,,,,,,,,,,,,,,,
,,,,,SPR24_025,21,Male,2024-04-10_09h32.15.000,jersey_experiment_5_v0,2023.2.2,Win32,84.74576271,,,,,,,,,,,,,,,,964.9314,965.978,965.9781,969.0369,return,1.7712,,64.0625,,,,,,FBP-RB-18.png,0.4,1.2,38,0.25,,,,,,,,,,,,,0,56,56,37,1,,,,,,,,,,,,,,,,,,,,,,,,,,,,
,,,,,SPR24_025,21,Male,2024-04-10_09h32.15.000,jersey_experiment_5_v0,2023.2.2,Win32,84.74576271,,,,,,,,,,,,,,,,969.0372,970.3311,970.3311,972.0373,return,0.1644,,94.27083333,,,,,,FBP-YG-19.png,0.45,1.2,30,0.5,,,,,,,,,,,,,0,57,57,29,1,,,,,,,,,,,,,,,,,,,,,,,,,,,,
,,,,,SPR24_025,21,Male,2024-04-10_09h32.15.000,jersey_experiment_5_v0,2023.2.2,Win32,84.74576271,,,,,,,,,,,,,,,,972.0375,973.3315,973.3315,974.814,return,0.2058,,39.453125,,,,,,FBP-PT-17.png,0.35,1.2,46,0.5,,,,,,,,,,,,,0,58,58,45,1,,,,,,,,,,,,,,,,,,,,,,,,,,,,
,,,,,SPR24_025,21,Male,2024-04-10_09h32.15.000,jersey_experiment_5_v0,2023.2.2,Win32,84.74576271,,,,,,,,,,,,,,,,974.8143,976.1081,976.1081,978.8139,return,0.2762,,45.44270833,,,,,,FBP-PT-19.png,0.37,1.2,57,0.5,,,,,,,,,,,,,0,59,59,56,1,,,,,,,,,,,,,,,,,,,,,,,,,,,,
,,,,,SPR24_025,21,Male,2024-04-10_09h32.15.000,jersey_experiment_5_v0,2023.2.2,Win32,84.74576271,,,,,,,,,,,,,,,,978.8157,979.8611,979.8611,981.5669,return,0.1433,,44.53125,,,,,,FBP-RB-81.png,0.35,1.2,36,0.25,,,,,,,,,,,,,,,,,,0,0,0,35,1,,,,,,,,,,,,,,,,,,,,,,,
,,,,,SPR24_025,21,Male,2024-04-10_09h32.15.000,jersey_experiment_5_v0,2023.2.2,Win32,84.74576271,,,,,,,,,,,,,,,,981.5672,982.8611,982.8611,984.3317,return,0.196,,94.53125,,,,,,FBP-YG-81.png,0.45,1.2,25,0.5,,,,,,,,,,,,,,,,,,0,1,1,24,1,,,,,,,,,,,,,,,,,,,,,,,
,,,,,SPR24_025,21,Male,2024-04-10_09h32.15.000,jersey_experiment_5_v0,2023.2.2,Win32,84.74576271,,,,,,,,,,,,,,,,984.3319,985.6259,985.6259,987.1318,return,0.2998,,59.50520833,,,,,,FBP-YG-91.png,0.37,1.2,27,0.5,,,,,,,,,,,,,,,,,,0,2,2,26,1,,,,,,,,,,,,,,,,,,,,,,,
,,,,,SPR24_025,21,Male,2024-04-10_09h32.15.000,jersey_experiment_5_v0,2023.2.2,Win32,84.74576271,,,,,,,,,,,,,,,,987.1321,988.426,988.426,989.9085,return,0.3053,,61.328125,,,,,,FBP-YG-71.png,0.37,1.2,17,0.5,,,,,,,,,,,,,,,,,,0,3,3,16,1,,,,,,,,,,,,,,,,,,,,,,,
,,,,,SPR24_025,21,Male,2024-04-10_09h32.15.000,jersey_experiment_5_v0,2023.2.2,Win32,84.74576271,,,,,,,,,,,,,,,,989.9087,991.2025,991.2025,992.6262,return,0.141,,81.90104167,,,,,,FBP-YG-81.png,0.43,1.2,24,0.5,,,,,,,,,,,,,,,,,,0,4,4,23,1,,,,,,,,,,,,,,,,,,,,,,,
,,,,,SPR24_025,21,Male,2024-04-10_09h32.15.000,jersey_experiment_5_v0,2023.2.2,Win32,84.74576271,,,,,,,,,,,,,,,,992.6264,993.6732,993.6732,995.2262,return,0.2773,,50.390625,,,,,,FBP-OG-18.png,0.37,1.2,7,0.25,,,,,,,,,,,,,,,,,,0,5,5,6,1,,,,,,,,,,,,,,,,,,,,,,,
,,,,,SPR24_025,21,Male,2024-04-10_09h32.15.000,jersey_experiment_5_v0,2023.2.2,Win32,84.74576271,,,,,,,,,,,,,,,,995.2264,996.2736,996.2736,997.8618,return,0.3298,,32.03125,,,,,,FBP-OG-18.png,0.35,1.2,6,0.25,,,,,,,,,,,,,,,,,,0,6,6,5,1,,,,,,,,,,,,,,,,,,,,,,,
,,,,,SPR24_025,21,Male,2024-04-10_09h32.15.000,jersey_experiment_5_v0,2023.2.2,Win32,84.74576271,,,,,,,,,,,,,,,,997.8622,999.1558,999.1559,1000.4031,return,0.2594,,37.5,,,,,,FBP-PT-71.png,0.35,1.2,46,0.5,,,,,,,,,,,,,,,,,,0,7,7,45,1,,,,,,,,,,,,,,,,,,,,,,,
,,,,,SPR24_025,21,Male,2024-04-10_09h32.15.000,jersey_experiment_5_v0,2023.2.2,Win32,84.74576271,,,,,,,,,,,,,,,,1000.4033,1001.45,1001.45,1003.5561,return,0.1738,,44.27083333,,,,,,FBP-RB-91.png,0.35,1.2,41,0.25,,,,,,,,,,,,,,,,,,0,8,8,40,1,,,,,,,,,,,,,,,,,,,,,,,
,,,,,SPR24_025,21,Male,2024-04-10_09h32.15.000,jersey_experiment_5_v0,2023.2.2,Win32,84.74576271,,,,,,,,,,,,,,,,1003.5562,1004.8501,1004.8501,1006.8502,return,0.213,,82.94270833,,,,,,FBP-PT-91.png,0.45,1.2,60,0.5,,,,,,,,,,,,,,,,,,0,9,9,59,1,,,,,,,,,,,,,,,,,,,,,,,
,,,,,SPR24_025,21,Male,2024-04-10_09h32.15.000,jersey_experiment_5_v0,2023.2.2,Win32,84.74576271,,,,,,,,,,,,,,,,1006.8504,1007.8974,1007.8974,1009.2856,return,0.2254,,63.41145833,,,,,,FBP-OG-19.png,0.4,1.2,13,0.25,,,,,,,,,,,,,,,,,,0,10,10,12,1,,,,,,,,,,,,,,,,,,,,,,,
,,,,,SPR24_025,21,Male,2024-04-10_09h32.15.000,jersey_experiment_5_v0,2023.2.2,Win32,84.74576271,,,,,,,,,,,,,,,,1009.2858,1010.5799,1010.5799,1013.4036,return,0.2175,,33.72395833,,,,,,FBP-PT-81.png,0.35,1.2,51,0.5,,,,,,,,,,,,,,,,,,0,11,11,50,1,,,,,,,,,,,,,,,,,,,,,,,
,,,,,SPR24_025,21,Male,2024-04-10_09h32.15.000,jersey_experiment_5_v0,2023.2.2,Win32,84.74576271,,,,,,,,,,,,,,,,1013.4038,1014.4507,1014.4507,1016.4624,return,0.2047,,49.86979167,,,,,,FBP-OG-17.png,0.37,1.2,2,0.25,,,,,,,,,,,,,,,,,,0,12,12,1,1,,,,,,,,,,,,,,,,,,,,,,,
,,,,,SPR24_025,21,Male,2024-04-10_09h32.15.000,jersey_experiment_5_v0,2023.2.2,Win32,84.74576271,,,,,,,,,,,,,,,,1016.4626,1017.7567,1017.7567,1019.2037,return,0.259,,74.609375,,,,,,FBP-PT-81.png,0.43,1.2,54,0.5,,,,,,,,,,,,,,,,,,0,13,13,53,1,,,,,,,,,,,,,,,,,,,,,,,
,,,,,SPR24_025,21,Male,2024-04-10_09h32.15.000,jersey_experiment_5_v0,2023.2.2,Win32,84.74576271,,,,,,,,,,,,,,,,1019.204,1020.2506,1020.2507,1021.7919,return,0.4602,,74.34895833,,,,,,FBP-OG-17.png,0.45,1.2,5,0.25,,,,,,,,,,,,,,,,,,0,14,14,4,1,,,,,,,,,,,,,,,,,,,,,,,
,,,,,SPR24_025,21,Male,2024-04-10_09h32.15.000,jersey_experiment_5_v0,2023.2.2,Win32,84.74576271,,,,,,,,,,,,,,,,1021.7922,1023.0861,1023.0861,1024.145,return,0.1765,,67.70833333,,,,,,FBP-YG-81.png,0.37,1.2,22,0.5,,,,,,,,,,,,,,,,,,0,15,15,21,1,,,,,,,,,,,,,,,,,,,,,,,
,,,,,SPR24_025,21,Male,2024-04-10_09h32.15.000,jersey_experiment_5_v0,2023.2.2,Win32,84.74576271,,,,,,,,,,,,,,,,1024.1453,1025.1921,1025.1921,1026.957,return,0.2302,,93.75,,,,,,FBP-RB-91.png,0.43,1.2,44,0.25,,,,,,,,,,,,,,,,,,0,16,16,43,1,,,,,,,,,,,,,,,,,,,,,,,
,,,,,SPR24_025,21,Male,2024-04-10_09h32.15.000,jersey_experiment_5_v0,2023.2.2,Win32,84.74576271,,,,,,,,,,,,,,,,1026.9572,1028.0039,1028.004,1029.3101,return,0.1212,,95.57291667,,,,,,FBP-RB-81.png,0.45,1.2,40,0.25,,,,,,,,,,,,,,,,,,0,17,17,39,1,,,,,,,,,,,,,,,,,,,,,,,
,,,,,SPR24_025,21,Male,2024-04-10_09h32.15.000,jersey_experiment_5_v0,2023.2.2,Win32,84.74576271,,,,,,,,,,,,,,,,1029.3104,1030.604,1030.6041,1032.0159,return,0.1331,,88.93229167,,,,,,FBP-PT-91.png,0.43,1.2,59,0.5,,,,,,,,,,,,,,,,,,0,18,18,58,1,,,,,,,,,,,,,,,,,,,,,,,
,,,,,SPR24_025,21,Male,2024-04-10_09h32.15.000,jersey_experiment_5_v0,2023.2.2,Win32,84.74576271,,,,,,,,,,,,,,,,1032.0161,1033.3102,1033.3102,1034.7693,return,0.2264,,49.47916667,,,,,,FBP-PT-91.png,0.37,1.2,57,0.5,,,,,,,,,,,,,,,,,,0,19,19,56,1,,,,,,,,,,,,,,,,,,,,,,,
,,,,,SPR24_025,21,Male,2024-04-10_09h32.15.000,jersey_experiment_5_v0,2023.2.2,Win32,84.74576271,,,,,,,,,,,,,,,,1034.7695,1036.0633,1036.0633,1040.2869,return,3.0024,,56.640625,,,,,,FBP-YG-91.png,0.4,1.2,28,0.5,,,,,,,,,,,,,,,,,,0,20,20,27,1,,,,,,,,,,,,,,,,,,,,,,,
,,,,,SPR24_025,21,Male,2024-04-10_09h32.15.000,jersey_experiment_5_v0,2023.2.2,Win32,84.74576271,,,,,,,,,,,,,,,,1040.2872,1041.5809,1041.581,1043.2515,return,0.1648,,88.41145833,,,,,,FBP-PT-81.png,0.45,1.2,55,0.5,,,,,,,,,,,,,,,,,,0,21,21,54,1,,,,,,,,,,,,,,,,,,,,,,,
,,,,,SPR24_025,21,Male,2024-04-10_09h32.15.000,jersey_experiment_5_v0,2023.2.2,Win32,84.74576271,,,,,,,,,,,,,,,,1043.2517,1044.5457,1044.5457,1045.6046,return,0.2827,,93.61979167,,,,,,FBP-YG-71.png,0.45,1.2,20,0.5,,,,,,,,,,,,,,,,,,0,22,22,19,1,,,,,,,,,,,,,,,,,,,,,,,
,,,,,SPR24_025,21,Male,2024-04-10_09h32.15.000,jersey_experiment_5_v0,2023.2.2,Win32,84.74576271,,,,,,,,,,,,,,,,1045.6049,1046.6518,1046.6518,1048.2756,return,0.2593,,49.73958333,,,,,,FBP-RB-91.png,0.37,1.2,42,0.25,,,,,,,,,,,,,,,,,,0,23,23,41,1,,,,,,,,,,,,,,,,,,,,,,,
,,,,,SPR24_025,21,Male,2024-04-10_09h32.15.000,jersey_experiment_5_v0,2023.2.2,Win32,84.74576271,,,,,,,,,,,,,,,,1048.2758,1049.3223,1049.3224,1051.9227,return,0.6036,,63.93229167,,,,,,FBP-RB-71.png,0.4,1.2,33,0.25,,,,,,,,,,,,,,,,,,0,24,24,32,1,,,,,,,,,,,,,,,,,,,,,,,
,,,,,SPR24_025,21,Male,2024-04-10_09h32.15.000,jersey_experiment_5_v0,2023.2.2,Win32,84.74576271,,,,,,,,,,,,,,,,1051.9229,1052.9697,1052.9697,1054.3227,return,0.2347,,50,,,,,,FBP-RB-91.png,0.4,1.2,43,0.25,,,,,,,,,,,,,,,,,,0,25,25,42,1,,,,,,,,,,,,,,,,,,,,,,,
,,,,,SPR24_025,21,Male,2024-04-10_09h32.15.000,jersey_experiment_5_v0,2023.2.2,Win32,84.74576271,,,,,,,,,,,,,,,,1054.3229,1055.6169,1055.6169,1057.358,return,0.888,,43.75,,,,,,FBP-YG-81.png,0.35,1.2,21,0.5,,,,,,,,,,,,,,,,,,0,26,26,20,1,,,,,,,,,,,,,,,,,,,,,,,
,,,,,SPR24_025,21,Male,2024-04-10_09h32.15.000,jersey_experiment_5_v0,2023.2.2,Win32,84.74576271,,,,,,,,,,,,,,,,1057.3583,1058.4053,1058.4053,1060.4171,return,0.25,,50.13020833,,,,,,FBP-OG-17.png,0.4,1.2,3,0.25,,,,,,,,,,,,,,,,,,0,27,27,2,1,,,,,,,,,,,,,,,,,,,,,,,
,,,,,SPR24_025,21,Male,2024-04-10_09h32.15.000,jersey_experiment_5_v0,2023.2.2,Win32,84.74576271,,,,,,,,,,,,,,,,1060.4173,1061.464,1061.464,1062.723,return,0.2131,,60.9375,,,,,,FBP-OG-17.png,0.43,1.2,4,0.25,,,,,,,,,,,,,,,,,,0,28,28,3,1,,,,,,,,,,,,,,,,,,,,,,,
,,,,,SPR24_025,21,Male,2024-04-10_09h32.15.000,jersey_experiment_5_v0,2023.2.2,Win32,84.74576271,,,,,,,,,,,,,,,,1062.7233,1064.0173,1064.0173,1065.4057,return,0.2625,,49.47916667,,,,,,FBP-PT-71.png,0.4,1.2,48,0.5,,,,,,,,,,,,,,,,,,0,29,29,47,1,,,,,,,,,,,,,,,,,,,,,,,
,,,,,SPR24_025,21,Male,2024-04-10_09h32.15.000,jersey_experiment_5_v0,2023.2.2,Win32,84.74576271,,,,,,,,,,,,,,,,1065.4059,1066.4523,1066.4524,1067.7938,return,0.2137,,75.13020833,,,,,,FBP-RB-91.png,0.45,1.2,45,0.25,,,,,,,,,,,,,,,,,,0,30,30,44,1,,,,,,,,,,,,,,,,,,,,,,,
,,,,,SPR24_025,21,Male,2024-04-10_09h32.15.000,jersey_experiment_5_v0,2023.2.2,Win32,84.74576271,,,,,,,,,,,,,,,,1067.794,1068.8408,1068.8409,1070.5115,return,0.2603,,79.296875,,,,,,FBP-OG-18.png,0.45,1.2,10,0.25,,,,,,,,,,,,,,,,,,0,31,31,9,1,,,,,,,,,,,,,,,,,,,,,,,
,,,,,SPR24_025,21,Male,2024-04-10_09h32.15.000,jersey_experiment_5_v0,2023.2.2,Win32,84.74576271,,,,,,,,,,,,,,,,1070.5118,1071.8057,1071.8058,1073.4881,return,0.3093,,61.97916667,,,,,,FBP-PT-91.png,0.4,1.2,58,0.5,,,,,,,,,,,,,,,,,,0,32,32,57,1,,,,,,,,,,,,,,,,,,,,,,,
,,,,,SPR24_025,21,Male,2024-04-10_09h32.15.000,jersey_experiment_5_v0,2023.2.2,Win32,84.74576271,,,,,,,,,,,,,,,,1073.4883,1074.5353,1074.5353,1076.0997,return,0.2212,,69.921875,,,,,,FBP-OG-19.png,0.43,1.2,14,0.25,,,,,,,,,,,,,,,,,,0,33,33,13,1,,,,,,,,,,,,,,,,,,,,,,,
,,,,,SPR24_025,21,Male,2024-04-10_09h32.15.000,jersey_experiment_5_v0,2023.2.2,Win32,84.74576271,,,,,,,,,,,,,,,,1076.1,1077.3942,1077.3942,1078.5118,return,0.1569,,63.80208333,,,,,,FBP-PT-71.png,0.43,1.2,49,0.5,,,,,,,,,,,,,,,,,,0,34,34,48,1,,,,,,,,,,,,,,,,,,,,,,,
,,,,,SPR24_025,21,Male,2024-04-10_09h32.15.000,jersey_experiment_5_v0,2023.2.2,Win32,84.74576271,,,,,,,,,,,,,,,,1078.5121,1079.8061,1079.8061,1081.0883,return,0.2857,,65.88541667,,,,,,FBP-YG-71.png,0.43,1.2,19,0.5,,,,,,,,,,,,,,,,,,0,35,35,18,1,,,,,,,,,,,,,,,,,,,,,,,
,,,,,SPR24_025,21,Male,2024-04-10_09h32.15.000,jersey_experiment_5_v0,2023.2.2,Win32,84.74576271,,,,,,,,,,,,,,,,1081.0886,1082.3827,1082.3827,1084.0182,return,0.33,,35.80729167,,,,,,FBP-YG-91.png,0.35,1.2,26,0.5,,,,,,,,,,,,,,,,,,0,36,36,25,1,,,,,,,,,,,,,,,,,,,,,,,
,,,,,SPR24_025,21,Male,2024-04-10_09h32.15.000,jersey_experiment_5_v0,2023.2.2,Win32,84.74576271,,,,,,,,,,,,,,,,1084.0185,1085.312,1085.3121,1086.771,return,0.1881,,50,,,,,,FBP-YG-71.png,0.4,1.2,18,0.5,,,,,,,,,,,,,,,,,,0,37,37,17,1,,,,,,,,,,,,,,,,,,,,,,,
,,,,,SPR24_025,21,Male,2024-04-10_09h32.15.000,jersey_experiment_5_v0,2023.2.2,Win32,84.74576271,,,,,,,,,,,,,,,,1086.7713,1088.0652,1088.0653,1091.6535,return,0.2209,,69.01041667,,,,,,FBP-YG-91.png,0.43,1.2,29,0.5,,,,,,,,,,,,,,,,,,0,38,38,28,1,,,,,,,,,,,,,,,,,,,,,,,
,,,,,SPR24_025,21,Male,2024-04-10_09h32.15.000,jersey_experiment_5_v0,2023.2.2,Win32,84.74576271,,,,,,,,,,,,,,,,1091.6537,1092.7007,1092.7007,1094.2772,return,0.2595,,49.73958333,,,,,,FBP-RB-81.png,0.37,1.2,37,0.25,,,,,,,,,,,,,,,,,,0,39,39,36,1,,,,,,,,,,,,,,,,,,,,,,,
,,,,,SPR24_025,21,Male,2024-04-10_09h32.15.000,jersey_experiment_5_v0,2023.2.2,Win32,84.74576271,,,,,,,,,,,,,,,,1094.2774,1095.5712,1095.5713,1096.7948,return,0.1944,,50.13020833,,,,,,FBP-PT-71.png,0.37,1.2,47,0.5,,,,,,,,,,,,,,,,,,0,40,40,46,1,,,,,,,,,,,,,,,,,,,,,,,
,,,,,SPR24_025,21,Male,2024-04-10_09h32.15.000,jersey_experiment_5_v0,2023.2.2,Win32,84.74576271,,,,,,,,,,,,,,,,1096.7951,1097.8419,1097.842,1099.3715,return,0.2437,,49.609375,,,,,,FBP-RB-71.png,0.37,1.2,32,0.25,,,,,,,,,,,,,,,,,,0,41,41,31,1,,,,,,,,,,,,,,,,,,,,,,,
,,,,,SPR24_025,21,Male,2024-04-10_09h32.15.000,jersey_experiment_5_v0,2023.2.2,Win32,84.74576271,,,,,,,,,,,,,,,,1099.3718,1100.4185,1100.4185,1102.0774,return,0.1944,,74.47916667,,,,,,FBP-RB-71.png,0.43,1.2,34,0.25,,,,,,,,,,,,,,,,,,0,42,42,33,1,,,,,,,,,,,,,,,,,,,,,,,
,,,,,SPR24_025,21,Male,2024-04-10_09h32.15.000,jersey_experiment_5_v0,2023.2.2,Win32,84.74576271,,,,,,,,,,,,,,,,1102.0777,1103.1245,1103.1245,1104.5246,return,0.1574,,86.45833333,,,,,,FBP-RB-71.png,0.45,1.2,35,0.25,,,,,,,,,,,,,,,,,,0,43,43,34,1,,,,,,,,,,,,,,,,,,,,,,,
,,,,,SPR24_025,21,Male,2024-04-10_09h32.15.000,jersey_experiment_5_v0,2023.2.2,Win32,84.74576271,,,,,,,,,,,,,,,,1104.5249,1105.5717,1105.5717,1107.6304,return,0.1464,,24.86979167,,,,,,FBP-OG-17.png,0.35,1.2,1,0.25,,,,,,,,,,,,,,,,,,0,44,44,0,1,,,,,,,,,,,,,,,,,,,,,,,
,,,,,SPR24_025,21,Male,2024-04-10_09h32.15.000,jersey_experiment_5_v0,2023.2.2,Win32,84.74576271,,,,,,,,,,,,,,,,1107.6307,1108.9249,1108.9249,1111.6779,return,0.1798,,44.27083333,,,,,,FBP-YG-71.png,0.35,1.2,16,0.5,,,,,,,,,,,,,,,,,,0,45,45,15,1,,,,,,,,,,,,,,,,,,,,,,,
,,,,,SPR24_025,21,Male,2024-04-10_09h32.15.000,jersey_experiment_5_v0,2023.2.2,Win32,84.74576271,,,,,,,,,,,,,,,,1111.6781,1112.7249,1112.725,1113.9957,return,0.2642,,49.86979167,,,,,,FBP-OG-18.png,0.4,1.2,8,0.25,,,,,,,,,,,,,,,,,,0,46,46,7,1,,,,,,,,,,,,,,,,,,,,,,,
,,,,,SPR24_025,21,Male,2024-04-10_09h32.15.000,jersey_experiment_5_v0,2023.2.2,Win32,84.74576271,,,,,,,,,,,,,,,,1113.996,1115.0425,1115.0425,1116.2544,return,0.2285,,64.32291667,,,,,,FBP-OG-18.png,0.43,1.2,9,0.25,,,,,,,,,,,,,,,,,,0,47,47,8,1,,,,,,,,,,,,,,,,,,,,,,,
,,,,,SPR24_025,21,Male,2024-04-10_09h32.15.000,jersey_experiment_5_v0,2023.2.2,Win32,84.74576271,,,,,,,,,,,,,,,,1116.2546,1117.5485,1117.5485,1119.3485,return,0.2353,,82.03125,,,,,,FBP-PT-71.png,0.45,1.2,50,0.5,,,,,,,,,,,,,,,,,,0,48,48,49,1,,,,,,,,,,,,,,,,,,,,,,,
,,,,,SPR24_025,21,Male,2024-04-10_09h32.15.000,jersey_experiment_5_v0,2023.2.2,Win32,84.74576271,,,,,,,,,,,,,,,,1119.3486,1120.3957,1120.3957,1121.7016,return,0.2685,,75.13020833,,,,,,FBP-RB-81.png,0.4,1.2,38,0.25,,,,,,,,,,,,,,,,,,0,49,49,37,1,,,,,,,,,,,,,,,,,,,,,,,
,,,,,SPR24_025,21,Male,2024-04-10_09h32.15.000,jersey_experiment_5_v0,2023.2.2,Win32,84.74576271,,,,,,,,,,,,,,,,1121.7018,1122.7487,1122.7488,1125.4195,return,0.173,,54.16666667,,,,,,FBP-RB-71.png,0.35,1.2,31,0.25,,,,,,,,,,,,,,,,,,0,50,50,30,1,,,,,,,,,,,,,,,,,,,,,,,
,,,,,SPR24_025,21,Male,2024-04-10_09h32.15.000,jersey_experiment_5_v0,2023.2.2,Win32,84.74576271,,,,,,,,,,,,,,,,1125.4198,1126.4668,1126.4668,1128.2549,return,0.2144,,81.38020833,,,,,,FBP-OG-19.png,0.45,1.2,15,0.25,,,,,,,,,,,,,,,,,,0,51,51,14,1,,,,,,,,,,,,,,,,,,,,,,,
,,,,,SPR24_025,21,Male,2024-04-10_09h32.15.000,jersey_experiment_5_v0,2023.2.2,Win32,84.74576271,,,,,,,,,,,,,,,,1128.2552,1129.5491,1129.5491,1131.3256,return,0.2034,,54.6875,,,,,,FBP-PT-81.png,0.37,1.2,52,0.5,,,,,,,,,,,,,,,,,,0,52,52,51,1,,,,,,,,,,,,,,,,,,,,,,,
,,,,,SPR24_025,21,Male,2024-04-10_09h32.15.000,jersey_experiment_5_v0,2023.2.2,Win32,84.74576271,,,,,,,,,,,,,,,,1131.3258,1132.6197,1132.6197,1133.5021,return,0.1676,,63.671875,,,,,,FBP-PT-81.png,0.4,1.2,53,0.5,,,,,,,,,,,,,,,,,,0,53,53,52,1,,,,,,,,,,,,,,,,,,,,,,,
,,,,,SPR24_025,21,Male,2024-04-10_09h32.15.000,jersey_experiment_5_v0,2023.2.2,Win32,84.74576271,,,,,,,,,,,,,,,,1133.5023,1134.5492,1134.5492,1136.0198,return,0.2263,,75.390625,,,,,,FBP-RB-81.png,0.43,1.2,39,0.25,,,,,,,,,,,,,,,,,,0,54,54,38,1,,,,,,,,,,,,,,,,,,,,,,,
,,,,,SPR24_025,21,Male,2024-04-10_09h32.15.000,jersey_experiment_5_v0,2023.2.2,Win32,84.74576271,,,,,,,,,,,,,,,,1136.0201,1137.3141,1137.3141,1139.6436,return,0.2641,,38.80208333,,,,,,FBP-PT-91.png,0.35,1.2,56,0.5,,,,,,,,,,,,,,,,,,0,55,55,55,1,,,,,,,,,,,,,,,,,,,,,,,
,,,,,SPR24_025,21,Male,2024-04-10_09h32.15.000,jersey_experiment_5_v0,2023.2.2,Win32,84.74576271,,,,,,,,,,,,,,,,1139.6439,1140.6907,1140.6908,1141.8672,return,0.1827,,32.8125,,,,,,FBP-OG-19.png,0.35,1.2,11,0.25,,,,,,,,,,,,,,,,,,0,56,56,10,1,,,,,,,,,,,,,,,,,,,,,,,
,,,,,SPR24_025,21,Male,2024-04-10_09h32.15.000,jersey_experiment_5_v0,2023.2.2,Win32,84.74576271,,,,,,,,,,,,,,,,1141.8674,1142.9143,1142.9144,1144.1145,return,0.3306,,49.34895833,,,,,,FBP-OG-19.png,0.37,1.2,12,0.25,,,,,,,,,,,,,,,,,,0,57,57,11,1,,,,,,,,,,,,,,,,,,,,,,,
,,,,,SPR24_025,21,Male,2024-04-10_09h32.15.000,jersey_experiment_5_v0,2023.2.2,Win32,84.74576271,,,,,,,,,,,,,,,,1144.1146,1145.4086,1145.4086,1147.5143,return,0.7149,,74.86979167,,,,,,FBP-YG-91.png,0.45,1.2,30,0.5,,,,,,,,,,,,,,,,,,0,58,58,29,1,,,,,,,,,,,,,,,,,,,,,,,
,,,,,SPR24_025,21,Male,2024-04-10_09h32.15.000,jersey_experiment_5_v0,2023.2.2,Win32,84.74576271,,,,,,,,,,,,,,,,1147.5146,1148.8087,1148.8087,1150.1969,return,0.4236,,74.609375,,,,,,FBP-YG-81.png,0.4,1.2,23,0.5,,,,,,,,,,,,,,,,,,0,59,59,22,1,,,,,,,,,,,,,,,,,,,,,,,
,,,,,SPR24_025,21,Male,2024-04-10_09h32.15.000,jersey_experiment_5_v0,2023.2.2,Win32,84.74576271,,,,,,,,,,,,,,,,,,,,,,,,,,,,,,,,,,,,,,,,,,,,,,,,,,,,,,,,1150.1974,1157.0681,return,6.8647,,,,,,,,,,,,,,,,,,,
,,,,,SPR24_025,21,Male,2024-04-10_09h32.15.000,jersey_experiment_5_v0,2023.2.2,Win32,84.74576271,,,,,,,,,,,,,,,,,,,,,,,,,,,,,,,,,,,,,,,,,,,,,,,,,,,,,,,,,,,,,1157.0682,1165.7744,1,4.9694,return,3.723,,,,,,,,,,,,
,,,,,SPR24_025,21,Male,2024-04-10_09h32.15.000,jersey_experiment_5_v0,2023.2.2,Win32,84.74576271,,,,,,,,,,,,,,,,,,,,,,,,,,,,,,,,,,,,,,,,,,,,,,,,,,,,,,,,,,,,,,,,,,,,1165.7786,1249.347,How people interpret size based on race possibly. I think similar sized football players were shown of both skin colors back to back to see if we change huskiness.,right,74.6883,,,,,,
,,,,,SPR24_025,21,Male,2024-04-10_09h32.15.000,jersey_experiment_5_v0,2023.2.2,Win32,84.74576271,,,,,,,,,,,,,,,,,,,,,,,,,,,,,,,,,,,,,,,,,,,,,,,,,,,,,,,,,,,,,,,,,,,,,,,,,,1249.3471,1258.5779,return,9.2195,