requirements.started,requirements.stopped,key_resp_3.keys,key_resp_3.rt,key_resp_3.duration,Subject ID,Age,Gender,date,expName,psychopyVersion,OS,frameRate,instructions1.started,instructions1.stopped,key_resp.keys,key_resp.rt,key_resp.duration,example.started,example.stopped,enter_2.keys,enter_2.rt,enter_2.duration,instructions2.started,instructions2.stopped,enter_3.keys,enter_3.rt,enter_3.duration,image.started,image.stopped,slider_2.started,slider_2.stopped,next.keys,next.rt,next.duration,slider.response,trial_block_1.thisRepN,trial_block_1.thisTrialN,trial_block_1.thisN,trial_block_1.thisIndex,trial_block_1.ran,Path,Width,Height,Index,Duration,trial_block_2.thisRepN,trial_block_2.thisTrialN,trial_block_2.thisN,trial_block_2.thisIndex,trial_block_2.ran,rest_break.started,rest_break.stopped,end_break.started,end_break.stopped,key_resp_5.keys,key_resp_5.rt,key_resp_5.duration,trial_block_3.thisRepN,trial_block_3.thisTrialN,trial_block_3.thisN,trial_block_3.thisIndex,trial_block_3.ran,trial_block_4.thisRepN,trial_block_4.thisTrialN,trial_block_4.thisN,trial_block_4.thisIndex,trial_block_4.ran,questions_intro.started,questions_intro.stopped,enter_12.keys,enter_12.rt,enter_12.duration,question2.started,question2.stopped,question_doingbest.response,question_doingbest.rt,enter_15.keys,enter_15.rt,enter_15.duration,pattern.started,pattern.stopped,pattern_2.text,enter_17.keys,enter_17.rt,enter_17.duration,thankyou.started,thankyou.stopped,enter_14.keys,enter_14.rt,enter_14.duration
1E-04,8.6396,return,8.6356,,SPR24_100,19,female,2024-04-26_10h32.37.283,jersey_experiment_5_v0,2023.2.2,Win32,84.74576271,,,,,,,,,,,,,,,,,,,,,,,,,,,,,,,,,,,,,,,,,,,,,,,,,,,,,,,,,,,,,,,,,,,,,,,,,,,,,,
,,,,,SPR24_100,19,female,2024-04-26_10h32.37.283,jersey_experiment_5_v0,2023.2.2,Win32,84.74576271,8.6397,14.5539,return,5.8998,,,,,,,,,,,,,,,,,,,,,,,,,,,,,,,,,,,,,,,,,,,,,,,,,,,,,,,,,,,,,,,,,,,,,,,,,,
,,,,,SPR24_100,19,female,2024-04-26_10h32.37.283,jersey_experiment_5_v0,2023.2.2,Win32,84.74576271,,,,,,14.554,23.7427,return,9.1505,,,,,,,,,,,,,,,,,,,,,,,,,,,,,,,,,,,,,,,,,,,,,,,,,,,,,,,,,,,,,,,,,,,,,
,,,,,SPR24_100,19,female,2024-04-26_10h32.37.283,jersey_experiment_5_v0,2023.2.2,Win32,84.74576271,,,,,,,,,,,23.7428,40.402,return,16.6485,,,,,,,,,,,,,,,,,,,,,,,,,,,,,,,,,,,,,,,,,,,,,,,,,,,,,,,,,,,,,,,,
,,,,,SPR24_100,19,female,2024-04-26_10h32.37.283,jersey_experiment_5_v0,2023.2.2,Win32,84.74576271,,,,,,,,,,,,,,,,40.4083,41.7078,41.7079,59.179,return,4.5358,,41.66666667,0,0,0,7,1,FBP-OG-81.png,0.4,1.2,8,0.5,,,,,,,,,,,,,,,,,,,,,,,,,,,,,,,,,,,,,,,,,,,,,
,,,,,SPR24_100,19,female,2024-04-26_10h32.37.283,jersey_experiment_5_v0,2023.2.2,Win32,84.74576271,,,,,,,,,,,,,,,,59.1793,60.4732,60.4732,65.6027,return,1.1295,,68.22916667,0,1,1,8,1,FBP-OG-81.png,0.43,1.2,9,0.5,,,,,,,,,,,,,,,,,,,,,,,,,,,,,,,,,,,,,,,,,,,,,
,,,,,SPR24_100,19,female,2024-04-26_10h32.37.283,jersey_experiment_5_v0,2023.2.2,Win32,84.74576271,,,,,,,,,,,,,,,,65.6029,66.6498,66.6498,73.7913,return,2.461,,28.77604167,0,2,2,25,1,FBP-YG-19.png,0.35,1.2,26,0.25,,,,,,,,,,,,,,,,,,,,,,,,,,,,,,,,,,,,,,,,,,,,,
,,,,,SPR24_100,19,female,2024-04-26_10h32.37.283,jersey_experiment_5_v0,2023.2.2,Win32,84.74576271,,,,,,,,,,,,,,,,73.7916,74.8384,74.8384,77.709,return,1.0627,,24.609375,0,3,3,56,1,FBP-PT-19.png,0.37,1.2,57,0.25,,,,,,,,,,,,,,,,,,,,,,,,,,,,,,,,,,,,,,,,,,,,,
,,,,,SPR24_100,19,female,2024-04-26_10h32.37.283,jersey_experiment_5_v0,2023.2.2,Win32,84.74576271,,,,,,,,,,,,,,,,77.7092,79.0031,79.0032,89.7918,return,7.789,,83.984375,0,4,4,39,1,FBP-RB-18.png,0.45,1.2,40,0.5,,,,,,,,,,,,,,,,,,,,,,,,,,,,,,,,,,,,,,,,,,,,,
,,,,,SPR24_100,19,female,2024-04-26_10h32.37.283,jersey_experiment_5_v0,2023.2.2,Win32,84.74576271,,,,,,,,,,,,,,,,89.7967,91.0977,91.0977,94.298,return,1.2868,,69.79166667,0,5,5,3,1,FBP-OG-71.png,0.43,1.2,4,0.5,,,,,,,,,,,,,,,,,,,,,,,,,,,,,,,,,,,,,,,,,,,,,
,,,,,SPR24_100,19,female,2024-04-26_10h32.37.283,jersey_experiment_5_v0,2023.2.2,Win32,84.74576271,,,,,,,,,,,,,,,,94.2981,95.592,95.592,106.169,return,4.4434,,46.74479167,0,6,6,32,1,FBP-RB-17.png,0.4,1.2,33,0.5,,,,,,,,,,,,,,,,,,,,,,,,,,,,,,,,,,,,,,,,,,,,,
,,,,,SPR24_100,19,female,2024-04-26_10h32.37.283,jersey_experiment_5_v0,2023.2.2,Win32,84.74576271,,,,,,,,,,,,,,,,106.1691,107.4631,107.4631,110.675,return,1.0458,,24.47916667,0,7,7,1,1,FBP-OG-71.png,0.37,1.2,2,0.5,,,,,,,,,,,,,,,,,,,,,,,,,,,,,,,,,,,,,,,,,,,,,
,,,,,SPR24_100,19,female,2024-04-26_10h32.37.283,jersey_experiment_5_v0,2023.2.2,Win32,84.74576271,,,,,,,,,,,,,,,,110.6751,111.9691,111.9691,116.3458,return,2.054,,15.625,0,8,8,36,1,FBP-RB-18.png,0.37,1.2,37,0.5,,,,,,,,,,,,,,,,,,,,,,,,,,,,,,,,,,,,,,,,,,,,,
,,,,,SPR24_100,19,female,2024-04-26_10h32.37.283,jersey_experiment_5_v0,2023.2.2,Win32,84.74576271,,,,,,,,,,,,,,,,116.3461,117.6398,117.6399,123.0873,return,3.0123,,73.828125,0,9,9,37,1,FBP-RB-18.png,0.4,1.2,38,0.5,,,,,,,,,,,,,,,,,,,,,,,,,,,,,,,,,,,,,,,,,,,,,
,,,,,SPR24_100,19,female,2024-04-26_10h32.37.283,jersey_experiment_5_v0,2023.2.2,Win32,84.74576271,,,,,,,,,,,,,,,,123.0875,124.1342,124.1342,129.0992,return,0.8295,,12.109375,0,10,10,45,1,FBP-PT-17.png,0.35,1.2,46,0.25,,,,,,,,,,,,,,,,,,,,,,,,,,,,,,,,,,,,,,,,,,,,,
,,,,,SPR24_100,19,female,2024-04-26_10h32.37.283,jersey_experiment_5_v0,2023.2.2,Win32,84.74576271,,,,,,,,,,,,,,,,129.0993,130.3933,130.3933,134.6522,return,1.4164,,63.02083333,0,11,11,2,1,FBP-OG-71.png,0.4,1.2,3,0.5,,,,,,,,,,,,,,,,,,,,,,,,,,,,,,,,,,,,,,,,,,,,,
,,,,,SPR24_100,19,female,2024-04-26_10h32.37.283,jersey_experiment_5_v0,2023.2.2,Win32,84.74576271,,,,,,,,,,,,,,,,134.6525,135.6994,135.6995,140.8643,return,1.0696,,85.28645833,0,12,12,28,1,FBP-YG-19.png,0.43,1.2,29,0.25,,,,,,,,,,,,,,,,,,,,,,,,,,,,,,,,,,,,,,,,,,,,,
,,,,,SPR24_100,19,female,2024-04-26_10h32.37.283,jersey_experiment_5_v0,2023.2.2,Win32,84.74576271,,,,,,,,,,,,,,,,140.8645,141.9113,141.9113,148.3704,return,4.4102,,95.18229167,0,13,13,24,1,FBP-YG-18.png,0.45,1.2,25,0.25,,,,,,,,,,,,,,,,,,,,,,,,,,,,,,,,,,,,,,,,,,,,,
,,,,,SPR24_100,19,female,2024-04-26_10h32.37.283,jersey_experiment_5_v0,2023.2.2,Win32,84.74576271,,,,,,,,,,,,,,,,148.3752,149.4175,149.4175,161.3239,return,3.8526,,44.140625,0,14,14,51,1,FBP-PT-18.png,0.37,1.2,52,0.25,,,,,,,,,,,,,,,,,,,,,,,,,,,,,,,,,,,,,,,,,,,,,
,,,,,SPR24_100,19,female,2024-04-26_10h32.37.283,jersey_experiment_5_v0,2023.2.2,Win32,84.74576271,,,,,,,,,,,,,,,,161.3285,162.6298,162.6299,166.2182,return,0.57,,80.20833333,0,15,15,4,1,FBP-OG-71.png,0.45,1.2,5,0.5,,,,,,,,,,,,,,,,,,,,,,,,,,,,,,,,,,,,,,,,,,,,,
,,,,,SPR24_100,19,female,2024-04-26_10h32.37.283,jersey_experiment_5_v0,2023.2.2,Win32,84.74576271,,,,,,,,,,,,,,,,166.2183,167.2652,167.2653,171.0064,return,0.6476,,47.00520833,0,16,16,57,1,FBP-PT-19.png,0.4,1.2,58,0.25,,,,,,,,,,,,,,,,,,,,,,,,,,,,,,,,,,,,,,,,,,,,,
,,,,,SPR24_100,19,female,2024-04-26_10h32.37.283,jersey_experiment_5_v0,2023.2.2,Win32,84.74576271,,,,,,,,,,,,,,,,171.0067,172.3006,172.3007,174.8655,return,0.5648,,37.63020833,0,17,17,11,1,FBP-OG-91.png,0.37,1.2,12,0.5,,,,,,,,,,,,,,,,,,,,,,,,,,,,,,,,,,,,,,,,,,,,,
,,,,,SPR24_100,19,female,2024-04-26_10h32.37.283,jersey_experiment_5_v0,2023.2.2,Win32,84.74576271,,,,,,,,,,,,,,,,174.8658,175.9127,175.9127,179.6657,return,0.6221,,25,0,18,18,15,1,FBP-YG-17.png,0.35,1.2,16,0.25,,,,,,,,,,,,,,,,,,,,,,,,,,,,,,,,,,,,,,,,,,,,,
,,,,,SPR24_100,19,female,2024-04-26_10h32.37.283,jersey_experiment_5_v0,2023.2.2,Win32,84.74576271,,,,,,,,,,,,,,,,179.666,180.7127,180.7128,195.4548,return,8.1204,,75.390625,0,19,19,23,1,FBP-YG-18.png,0.43,1.2,24,0.25,,,,,,,,,,,,,,,,,,,,,,,,,,,,,,,,,,,,,,,,,,,,,
,,,,,SPR24_100,19,female,2024-04-26_10h32.37.283,jersey_experiment_5_v0,2023.2.2,Win32,84.74576271,,,,,,,,,,,,,,,,195.4549,196.5016,196.5017,199.9958,return,1.3562,,83.72395833,0,20,20,59,1,FBP-PT-19.png,0.45,1.2,60,0.25,,,,,,,,,,,,,,,,,,,,,,,,,,,,,,,,,,,,,,,,,,,,,
,,,,,SPR24_100,19,female,2024-04-26_10h32.37.283,jersey_experiment_5_v0,2023.2.2,Win32,84.74576271,,,,,,,,,,,,,,,,199.9961,201.0429,201.043,205.1373,return,1.8499,,78.515625,0,21,21,29,1,FBP-YG-19.png,0.45,1.2,30,0.25,,,,,,,,,,,,,,,,,,,,,,,,,,,,,,,,,,,,,,,,,,,,,
,,,,,SPR24_100,19,female,2024-04-26_10h32.37.283,jersey_experiment_5_v0,2023.2.2,Win32,84.74576271,,,,,,,,,,,,,,,,205.1375,206.4313,206.4313,212.3609,return,1.2766,,83.33333333,0,22,22,44,1,FBP-RB-19.png,0.45,1.2,45,0.5,,,,,,,,,,,,,,,,,,,,,,,,,,,,,,,,,,,,,,,,,,,,,
,,,,,SPR24_100,19,female,2024-04-26_10h32.37.283,jersey_experiment_5_v0,2023.2.2,Win32,84.74576271,,,,,,,,,,,,,,,,212.3612,213.4079,213.408,217.3611,return,0.6349,,68.61979167,0,23,23,52,1,FBP-PT-18.png,0.4,1.2,53,0.25,,,,,,,,,,,,,,,,,,,,,,,,,,,,,,,,,,,,,,,,,,,,,
,,,,,SPR24_100,19,female,2024-04-26_10h32.37.283,jersey_experiment_5_v0,2023.2.2,Win32,84.74576271,,,,,,,,,,,,,,,,217.3611,218.6553,218.6553,221.0672,return,1.3821,,74.34895833,0,24,24,34,1,FBP-RB-17.png,0.45,1.2,35,0.5,,,,,,,,,,,,,,,,,,,,,,,,,,,,,,,,,,,,,,,,,,,,,
,,,,,SPR24_100,19,female,2024-04-26_10h32.37.283,jersey_experiment_5_v0,2023.2.2,Win32,84.74576271,,,,,,,,,,,,,,,,221.0674,222.1141,222.1142,226.2085,return,0.6827,,50,0,25,25,27,1,FBP-YG-19.png,0.4,1.2,28,0.25,,,,,,,,,,,,,,,,,,,,,,,,,,,,,,,,,,,,,,,,,,,,,
,,,,,SPR24_100,19,female,2024-04-26_10h32.37.283,jersey_experiment_5_v0,2023.2.2,Win32,84.74576271,,,,,,,,,,,,,,,,226.2086,227.5026,227.5026,230.5264,return,0.7297,,30.72916667,0,26,26,5,1,FBP-OG-81.png,0.35,1.2,6,0.5,,,,,,,,,,,,,,,,,,,,,,,,,,,,,,,,,,,,,,,,,,,,,
,,,,,SPR24_100,19,female,2024-04-26_10h32.37.283,jersey_experiment_5_v0,2023.2.2,Win32,84.74576271,,,,,,,,,,,,,,,,230.5265,231.8204,231.8204,237.9619,return,4.3719,,20.3125,0,27,27,30,1,FBP-RB-17.png,0.35,1.2,31,0.5,,,,,,,,,,,,,,,,,,,,,,,,,,,,,,,,,,,,,,,,,,,,,
,,,,,SPR24_100,19,female,2024-04-26_10h32.37.283,jersey_experiment_5_v0,2023.2.2,Win32,84.74576271,,,,,,,,,,,,,,,,237.9621,239.0088,239.0089,242.8092,return,1.0643,,74.609375,0,28,28,18,1,FBP-YG-17.png,0.43,1.2,19,0.25,,,,,,,,,,,,,,,,,,,,,,,,,,,,,,,,,,,,,,,,,,,,,
,,,,,SPR24_100,19,female,2024-04-26_10h32.37.283,jersey_experiment_5_v0,2023.2.2,Win32,84.74576271,,,,,,,,,,,,,,,,242.8093,243.8561,243.8561,249.4682,return,0.652,,46.22395833,0,29,29,21,1,FBP-YG-18.png,0.37,1.2,22,0.25,,,,,,,,,,,,,,,,,,,,,,,,,,,,,,,,,,,,,,,,,,,,,
,,,,,SPR24_100,19,female,2024-04-26_10h32.37.283,jersey_experiment_5_v0,2023.2.2,Win32,84.74576271,,,,,,,,,,,,,,,,249.4685,250.5152,250.5152,253.9036,return,0.9423,,29.55729167,0,30,30,55,1,FBP-PT-19.png,0.35,1.2,56,0.25,,,,,,,,,,,,,,,,,,,,,,,,,,,,,,,,,,,,,,,,,,,,,
,,,,,SPR24_100,19,female,2024-04-26_10h32.37.283,jersey_experiment_5_v0,2023.2.2,Win32,84.74576271,,,,,,,,,,,,,,,,253.9038,254.9507,254.9508,259.0802,return,0.7939,,32.03125,0,31,31,16,1,FBP-YG-17.png,0.37,1.2,17,0.25,,,,,,,,,,,,,,,,,,,,,,,,,,,,,,,,,,,,,,,,,,,,,
,,,,,SPR24_100,19,female,2024-04-26_10h32.37.283,jersey_experiment_5_v0,2023.2.2,Win32,84.74576271,,,,,,,,,,,,,,,,259.0803,260.3744,260.3744,264.3864,return,1.2854,,36.19791667,0,32,32,41,1,FBP-RB-19.png,0.37,1.2,42,0.5,,,,,,,,,,,,,,,,,,,,,,,,,,,,,,,,,,,,,,,,,,,,,
,,,,,SPR24_100,19,female,2024-04-26_10h32.37.283,jersey_experiment_5_v0,2023.2.2,Win32,84.74576271,,,,,,,,,,,,,,,,264.3865,265.4333,265.4333,270.5631,return,2.7064,,79.55729167,0,33,33,53,1,FBP-PT-18.png,0.43,1.2,54,0.25,,,,,,,,,,,,,,,,,,,,,,,,,,,,,,,,,,,,,,,,,,,,,
,,,,,SPR24_100,19,female,2024-04-26_10h32.37.283,jersey_experiment_5_v0,2023.2.2,Win32,84.74576271,,,,,,,,,,,,,,,,270.5633,271.6103,271.6103,277.3044,return,3.2201,,28.90625,0,34,34,50,1,FBP-PT-18.png,0.35,1.2,51,0.25,,,,,,,,,,,,,,,,,,,,,,,,,,,,,,,,,,,,,,,,,,,,,
,,,,,SPR24_100,19,female,2024-04-26_10h32.37.283,jersey_experiment_5_v0,2023.2.2,Win32,84.74576271,,,,,,,,,,,,,,,,277.3047,278.5986,278.5986,281.4105,return,0.7862,,49.47916667,0,35,35,12,1,FBP-OG-91.png,0.4,1.2,13,0.5,,,,,,,,,,,,,,,,,,,,,,,,,,,,,,,,,,,,,,,,,,,,,
,,,,,SPR24_100,19,female,2024-04-26_10h32.37.283,jersey_experiment_5_v0,2023.2.2,Win32,84.74576271,,,,,,,,,,,,,,,,281.4107,282.7046,282.7046,286.0931,return,1.0954,,68.09895833,0,36,36,43,1,FBP-RB-19.png,0.43,1.2,44,0.5,,,,,,,,,,,,,,,,,,,,,,,,,,,,,,,,,,,,,,,,,,,,,
,,,,,SPR24_100,19,female,2024-04-26_10h32.37.283,jersey_experiment_5_v0,2023.2.2,Win32,84.74576271,,,,,,,,,,,,,,,,286.0933,287.3871,287.3871,289.7403,return,1.003,,68.09895833,0,37,37,42,1,FBP-RB-19.png,0.4,1.2,43,0.5,,,,,,,,,,,,,,,,,,,,,,,,,,,,,,,,,,,,,,,,,,,,,
,,,,,SPR24_100,19,female,2024-04-26_10h32.37.283,jersey_experiment_5_v0,2023.2.2,Win32,84.74576271,,,,,,,,,,,,,,,,289.7405,290.7874,290.7874,293.258,return,1.0644,,68.09895833,0,38,38,47,1,FBP-PT-17.png,0.4,1.2,48,0.25,,,,,,,,,,,,,,,,,,,,,,,,,,,,,,,,,,,,,,,,,,,,,
,,,,,SPR24_100,19,female,2024-04-26_10h32.37.283,jersey_experiment_5_v0,2023.2.2,Win32,84.74576271,,,,,,,,,,,,,,,,293.2583,294.305,294.3051,298.8935,return,3.1797,,82.55208333,0,39,39,49,1,FBP-PT-17.png,0.45,1.2,50,0.25,,,,,,,,,,,,,,,,,,,,,,,,,,,,,,,,,,,,,,,,,,,,,
,,,,,SPR24_100,19,female,2024-04-26_10h32.37.283,jersey_experiment_5_v0,2023.2.2,Win32,84.74576271,,,,,,,,,,,,,,,,298.8937,299.9406,299.9407,306.435,return,0.6349,,41.66666667,0,40,40,46,1,FBP-PT-17.png,0.37,1.2,47,0.25,,,,,,,,,,,,,,,,,,,,,,,,,,,,,,,,,,,,,,,,,,,,,
,,,,,SPR24_100,19,female,2024-04-26_10h32.37.283,jersey_experiment_5_v0,2023.2.2,Win32,84.74576271,,,,,,,,,,,,,,,,306.4353,307.4819,307.482,310.8469,return,1.1879,,82.421875,0,41,41,19,1,FBP-YG-17.png,0.45,1.2,20,0.25,,,,,,,,,,,,,,,,,,,,,,,,,,,,,,,,,,,,,,,,,,,,,
,,,,,SPR24_100,19,female,2024-04-26_10h32.37.283,jersey_experiment_5_v0,2023.2.2,Win32,84.74576271,,,,,,,,,,,,,,,,310.8471,311.894,311.894,314.8234,return,1.4304,,66.015625,0,42,42,17,1,FBP-YG-17.png,0.4,1.2,18,0.25,,,,,,,,,,,,,,,,,,,,,,,,,,,,,,,,,,,,,,,,,,,,,
,,,,,SPR24_100,19,female,2024-04-26_10h32.37.283,jersey_experiment_5_v0,2023.2.2,Win32,84.74576271,,,,,,,,,,,,,,,,314.8236,316.1177,316.1177,320.6589,return,0.9413,,78.515625,0,43,43,9,1,FBP-OG-81.png,0.45,1.2,10,0.5,,,,,,,,,,,,,,,,,,,,,,,,,,,,,,,,,,,,,,,,,,,,,
,,,,,SPR24_100,19,female,2024-04-26_10h32.37.283,jersey_experiment_5_v0,2023.2.2,Win32,84.74576271,,,,,,,,,,,,,,,,320.6591,321.7061,321.7061,323.9179,return,0.707,,78.38541667,0,44,44,58,1,FBP-PT-19.png,0.43,1.2,59,0.25,,,,,,,,,,,,,,,,,,,,,,,,,,,,,,,,,,,,,,,,,,,,,
,,,,,SPR24_100,19,female,2024-04-26_10h32.37.283,jersey_experiment_5_v0,2023.2.2,Win32,84.74576271,,,,,,,,,,,,,,,,323.9181,325.2121,325.2121,331.4829,return,3.9823,,19.921875,0,45,45,10,1,FBP-OG-91.png,0.35,1.2,11,0.5,,,,,,,,,,,,,,,,,,,,,,,,,,,,,,,,,,,,,,,,,,,,,
,,,,,SPR24_100,19,female,2024-04-26_10h32.37.283,jersey_experiment_5_v0,2023.2.2,Win32,84.74576271,,,,,,,,,,,,,,,,331.4832,332.777,332.777,335.836,return,0.7908,,55.98958333,0,46,46,38,1,FBP-RB-18.png,0.43,1.2,39,0.5,,,,,,,,,,,,,,,,,,,,,,,,,,,,,,,,,,,,,,,,,,,,,
,,,,,SPR24_100,19,female,2024-04-26_10h32.37.283,jersey_experiment_5_v0,2023.2.2,Win32,84.74576271,,,,,,,,,,,,,,,,335.8362,337.1301,337.1301,340.6831,return,1.6761,,36.97916667,0,47,47,31,1,FBP-RB-17.png,0.37,1.2,32,0.5,,,,,,,,,,,,,,,,,,,,,,,,,,,,,,,,,,,,,,,,,,,,,
,,,,,SPR24_100,19,female,2024-04-26_10h32.37.283,jersey_experiment_5_v0,2023.2.2,Win32,84.74576271,,,,,,,,,,,,,,,,340.6834,341.9773,341.9773,346.7071,return,0.7621,,69.53125,0,48,48,13,1,FBP-OG-91.png,0.43,1.2,14,0.5,,,,,,,,,,,,,,,,,,,,,,,,,,,,,,,,,,,,,,,,,,,,,
,,,,,SPR24_100,19,female,2024-04-26_10h32.37.283,jersey_experiment_5_v0,2023.2.2,Win32,84.74576271,,,,,,,,,,,,,,,,346.7072,348.0011,348.0011,351.9778,return,0.8873,,29.16666667,0,49,49,40,1,FBP-RB-19.png,0.35,1.2,41,0.5,,,,,,,,,,,,,,,,,,,,,,,,,,,,,,,,,,,,,,,,,,,,,
,,,,,SPR24_100,19,female,2024-04-26_10h32.37.283,jersey_experiment_5_v0,2023.2.2,Win32,84.74576271,,,,,,,,,,,,,,,,351.978,353.0248,353.0248,356.7543,return,0.8004,,59.24479167,0,50,50,48,1,FBP-PT-17.png,0.43,1.2,49,0.25,,,,,,,,,,,,,,,,,,,,,,,,,,,,,,,,,,,,,,,,,,,,,
,,,,,SPR24_100,19,female,2024-04-26_10h32.37.283,jersey_experiment_5_v0,2023.2.2,Win32,84.74576271,,,,,,,,,,,,,,,,356.7546,357.8015,357.8016,360.3544,return,0.8092,,75,0,51,51,54,1,FBP-PT-18.png,0.45,1.2,55,0.25,,,,,,,,,,,,,,,,,,,,,,,,,,,,,,,,,,,,,,,,,,,,,
,,,,,SPR24_100,19,female,2024-04-26_10h32.37.283,jersey_experiment_5_v0,2023.2.2,Win32,84.74576271,,,,,,,,,,,,,,,,360.3547,361.6487,361.6487,366.0606,return,0.6978,,55.46875,0,52,52,33,1,FBP-RB-17.png,0.43,1.2,34,0.5,,,,,,,,,,,,,,,,,,,,,,,,,,,,,,,,,,,,,,,,,,,,,
,,,,,SPR24_100,19,female,2024-04-26_10h32.37.283,jersey_experiment_5_v0,2023.2.2,Win32,84.74576271,,,,,,,,,,,,,,,,366.0608,367.1076,367.1076,370.649,return,1.6901,,36.06770833,0,53,53,26,1,FBP-YG-19.png,0.37,1.2,27,0.25,,,,,,,,,,,,,,,,,,,,,,,,,,,,,,,,,,,,,,,,,,,,,
,,,,,SPR24_100,19,female,2024-04-26_10h32.37.283,jersey_experiment_5_v0,2023.2.2,Win32,84.74576271,,,,,,,,,,,,,,,,370.6493,371.696,371.696,376.4139,return,2.9888,,29.03645833,0,54,54,20,1,FBP-YG-18.png,0.35,1.2,21,0.25,,,,,,,,,,,,,,,,,,,,,,,,,,,,,,,,,,,,,,,,,,,,,
,,,,,SPR24_100,19,female,2024-04-26_10h32.37.283,jersey_experiment_5_v0,2023.2.2,Win32,84.74576271,,,,,,,,,,,,,,,,376.414,377.7081,377.7081,381.6494,return,0.6212,,62.76041667,0,55,55,14,1,FBP-OG-91.png,0.45,1.2,15,0.5,,,,,,,,,,,,,,,,,,,,,,,,,,,,,,,,,,,,,,,,,,,,,
,,,,,SPR24_100,19,female,2024-04-26_10h32.37.283,jersey_experiment_5_v0,2023.2.2,Win32,84.74576271,,,,,,,,,,,,,,,,381.6496,382.9435,382.9435,386.1905,return,0.8577,,25.26041667,0,56,56,0,1,FBP-OG-71.png,0.35,1.2,1,0.5,,,,,,,,,,,,,,,,,,,,,,,,,,,,,,,,,,,,,,,,,,,,,
,,,,,SPR24_100,19,female,2024-04-26_10h32.37.283,jersey_experiment_5_v0,2023.2.2,Win32,84.74576271,,,,,,,,,,,,,,,,386.1908,387.4848,387.4849,389.2615,return,0.7542,,24.73958333,0,57,57,6,1,FBP-OG-81.png,0.37,1.2,7,0.5,,,,,,,,,,,,,,,,,,,,,,,,,,,,,,,,,,,,,,,,,,,,,
,,,,,SPR24_100,19,female,2024-04-26_10h32.37.283,jersey_experiment_5_v0,2023.2.2,Win32,84.74576271,,,,,,,,,,,,,,,,389.2617,390.5556,390.5556,394.0968,return,2.4002,,18.48958333,0,58,58,35,1,FBP-RB-18.png,0.35,1.2,36,0.5,,,,,,,,,,,,,,,,,,,,,,,,,,,,,,,,,,,,,,,,,,,,,
,,,,,SPR24_100,19,female,2024-04-26_10h32.37.283,jersey_experiment_5_v0,2023.2.2,Win32,84.74576271,,,,,,,,,,,,,,,,394.0971,395.144,395.144,398.7441,return,0.5484,,58.85416667,0,59,59,22,1,FBP-YG-18.png,0.4,1.2,23,0.25,,,,,,,,,,,,,,,,,,,,,,,,,,,,,,,,,,,,,,,,,,,,,
,,,,,SPR24_100,19,female,2024-04-26_10h32.37.283,jersey_experiment_5_v0,2023.2.2,Win32,84.74576271,,,,,,,,,,,,,,,,398.746,399.7911,399.7912,402.1208,return,0.7476,,74.47916667,,,,,,FBP-YG-81.png,0.45,1.2,25,0.25,0,0,0,24,1,,,,,,,,,,,,,,,,,,,,,,,,,,,,,,,,,,,,,,,,
,,,,,SPR24_100,19,female,2024-04-26_10h32.37.283,jersey_experiment_5_v0,2023.2.2,Win32,84.74576271,,,,,,,,,,,,,,,,402.121,403.4148,403.4148,407.4856,return,0.8266,,79.55729167,,,,,,FBP-RB-91.png,0.43,1.2,44,0.5,0,1,1,43,1,,,,,,,,,,,,,,,,,,,,,,,,,,,,,,,,,,,,,,,,
,,,,,SPR24_100,19,female,2024-04-26_10h32.37.283,jersey_experiment_5_v0,2023.2.2,Win32,84.74576271,,,,,,,,,,,,,,,,407.4858,408.7797,408.7798,411.6974,return,0.6219,,43.48958333,,,,,,FBP-RB-91.png,0.35,1.2,41,0.5,0,2,2,40,1,,,,,,,,,,,,,,,,,,,,,,,,,,,,,,,,,,,,,,,,
,,,,,SPR24_100,19,female,2024-04-26_10h32.37.283,jersey_experiment_5_v0,2023.2.2,Win32,84.74576271,,,,,,,,,,,,,,,,411.6976,412.7447,412.7447,416.7448,return,0.7256,,81.25,,,,,,FBP-YG-71.png,0.45,1.2,20,0.25,0,3,3,19,1,,,,,,,,,,,,,,,,,,,,,,,,,,,,,,,,,,,,,,,,
,,,,,SPR24_100,19,female,2024-04-26_10h32.37.283,jersey_experiment_5_v0,2023.2.2,Win32,84.74576271,,,,,,,,,,,,,,,,416.7451,418.0389,418.0389,424.9098,return,1.0026,,69.53125,,,,,,FBP-RB-91.png,0.37,1.2,42,0.5,0,4,4,41,1,,,,,,,,,,,,,,,,,,,,,,,,,,,,,,,,,,,,,,,,
,,,,,SPR24_100,19,female,2024-04-26_10h32.37.283,jersey_experiment_5_v0,2023.2.2,Win32,84.74576271,,,,,,,,,,,,,,,,424.91,426.2039,426.2039,429.1451,return,0.5455,,32.421875,,,,,,FBP-OG-19.png,0.35,1.2,11,0.5,0,5,5,10,1,,,,,,,,,,,,,,,,,,,,,,,,,,,,,,,,,,,,,,,,
,,,,,SPR24_100,19,female,2024-04-26_10h32.37.283,jersey_experiment_5_v0,2023.2.2,Win32,84.74576271,,,,,,,,,,,,,,,,429.1454,430.1922,430.1923,437.0044,return,4.0738,,80.859375,,,,,,FBP-YG-71.png,0.43,1.2,19,0.25,0,6,6,18,1,,,,,,,,,,,,,,,,,,,,,,,,,,,,,,,,,,,,,,,,
,,,,,SPR24_100,19,female,2024-04-26_10h32.37.283,jersey_experiment_5_v0,2023.2.2,Win32,84.74576271,,,,,,,,,,,,,,,,437.0089,438.0512,438.0513,441.3221,return,0.5002,,20.3125,,,,,,FBP-PT-71.png,0.35,1.2,46,0.25,0,7,7,45,1,,,,,,,,,,,,,,,,,,,,,,,,,,,,,,,,,,,,,,,,
,,,,,SPR24_100,19,female,2024-04-26_10h32.37.283,jersey_experiment_5_v0,2023.2.2,Win32,84.74576271,,,,,,,,,,,,,,,,441.3223,442.6162,442.6162,444.9105,return,0.3192,,63.54166667,,,,,,FBP-OG-18.png,0.45,1.2,10,0.5,0,8,8,9,1,,,,,,,,,,,,,,,,,,,,,,,,,,,,,,,,,,,,,,,,
,,,,,SPR24_100,19,female,2024-04-26_10h32.37.283,jersey_experiment_5_v0,2023.2.2,Win32,84.74576271,,,,,,,,,,,,,,,,444.9106,445.9575,445.9575,449.6873,return,0.5387,,55.078125,,,,,,FBP-PT-91.png,0.4,1.2,58,0.25,0,9,9,57,1,,,,,,,,,,,,,,,,,,,,,,,,,,,,,,,,,,,,,,,,
,,,,,SPR24_100,19,female,2024-04-26_10h32.37.283,jersey_experiment_5_v0,2023.2.2,Win32,84.74576271,,,,,,,,,,,,,,,,449.6874,450.9813,450.9813,454.6991,return,0.3463,,53.90625,,,,,,FBP-RB-71.png,0.43,1.2,34,0.5,0,10,10,33,1,,,,,,,,,,,,,,,,,,,,,,,,,,,,,,,,,,,,,,,,
,,,,,SPR24_100,19,female,2024-04-26_10h32.37.283,jersey_experiment_5_v0,2023.2.2,Win32,84.74576271,,,,,,,,,,,,,,,,454.6993,455.746,455.7461,460.4873,return,0.2423,,36.97916667,,,,,,FBP-YG-81.png,0.35,1.2,21,0.25,0,11,11,20,1,,,,,,,,,,,,,,,,,,,,,,,,,,,,,,,,,,,,,,,,
,,,,,SPR24_100,19,female,2024-04-26_10h32.37.283,jersey_experiment_5_v0,2023.2.2,Win32,84.74576271,,,,,,,,,,,,,,,,460.4875,461.5345,461.5345,464.6523,return,0.3554,,69.66145833,,,,,,FBP-YG-91.png,0.45,1.2,30,0.25,0,12,12,29,1,,,,,,,,,,,,,,,,,,,,,,,,,,,,,,,,,,,,,,,,
,,,,,SPR24_100,19,female,2024-04-26_10h32.37.283,jersey_experiment_5_v0,2023.2.2,Win32,84.74576271,,,,,,,,,,,,,,,,464.6526,465.9465,465.9465,468.6527,return,0.1666,,53.90625,,,,,,FBP-OG-17.png,0.43,1.2,4,0.5,0,13,13,3,1,,,,,,,,,,,,,,,,,,,,,,,,,,,,,,,,,,,,,,,,
,,,,,SPR24_100,19,female,2024-04-26_10h32.37.283,jersey_experiment_5_v0,2023.2.2,Win32,84.74576271,,,,,,,,,,,,,,,,468.6528,469.9467,469.9467,471.7467,return,0.2592,,54.296875,,,,,,FBP-OG-19.png,0.45,1.2,15,0.5,0,14,14,14,1,,,,,,,,,,,,,,,,,,,,,,,,,,,,,,,,,,,,,,,,
,,,,,SPR24_100,19,female,2024-04-26_10h32.37.283,jersey_experiment_5_v0,2023.2.2,Win32,84.74576271,,,,,,,,,,,,,,,,471.7469,472.7938,472.7939,474.9116,return,0.5889,,55.98958333,,,,,,FBP-PT-71.png,0.43,1.2,49,0.25,0,15,15,48,1,,,,,,,,,,,,,,,,,,,,,,,,,,,,,,,,,,,,,,,,
,,,,,SPR24_100,19,female,2024-04-26_10h32.37.283,jersey_experiment_5_v0,2023.2.2,Win32,84.74576271,,,,,,,,,,,,,,,,474.9119,476.2056,476.2056,479.7119,return,0.3061,,47.265625,,,,,,FBP-RB-91.png,0.4,1.2,43,0.5,0,16,16,42,1,,,,,,,,,,,,,,,,,,,,,,,,,,,,,,,,,,,,,,,,
,,,,,SPR24_100,19,female,2024-04-26_10h32.37.283,jersey_experiment_5_v0,2023.2.2,Win32,84.74576271,,,,,,,,,,,,,,,,479.712,480.7586,480.7587,483.2296,return,0.201,,29.81770833,,,,,,FBP-PT-81.png,0.35,1.2,51,0.25,0,17,17,50,1,,,,,,,,,,,,,,,,,,,,,,,,,,,,,,,,,,,,,,,,
,,,,,SPR24_100,19,female,2024-04-26_10h32.37.283,jersey_experiment_5_v0,2023.2.2,Win32,84.74576271,,,,,,,,,,,,,,,,483.2298,484.2766,484.2766,495.5358,return,7.0933,,46.22395833,,,,,,FBP-YG-81.png,0.4,1.2,23,0.25,0,18,18,22,1,,,,,,,,,,,,,,,,,,,,,,,,,,,,,,,,,,,,,,,,
,,,,,SPR24_100,19,female,2024-04-26_10h32.37.283,jersey_experiment_5_v0,2023.2.2,Win32,84.74576271,,,,,,,,,,,,,,,,495.5402,496.8419,496.842,499.4066,return,0.6357,,43.09895833,,,,,,FBP-OG-19.png,0.4,1.2,13,0.5,0,19,19,12,1,,,,,,,,,,,,,,,,,,,,,,,,,,,,,,,,,,,,,,,,
,,,,,SPR24_100,19,female,2024-04-26_10h32.37.283,jersey_experiment_5_v0,2023.2.2,Win32,84.74576271,,,,,,,,,,,,,,,,499.4069,500.7006,500.7007,505.1361,return,0.3534,,37.76041667,,,,,,FBP-OG-18.png,0.37,1.2,7,0.5,0,20,20,6,1,,,,,,,,,,,,,,,,,,,,,,,,,,,,,,,,,,,,,,,,
,,,,,SPR24_100,19,female,2024-04-26_10h32.37.283,jersey_experiment_5_v0,2023.2.2,Win32,84.74576271,,,,,,,,,,,,,,,,505.1364,506.1833,506.1833,508.8422,return,0.4988,,47.265625,,,,,,FBP-YG-71.png,0.4,1.2,18,0.25,0,21,21,17,1,,,,,,,,,,,,,,,,,,,,,,,,,,,,,,,,,,,,,,,,
,,,,,SPR24_100,19,female,2024-04-26_10h32.37.283,jersey_experiment_5_v0,2023.2.2,Win32,84.74576271,,,,,,,,,,,,,,,,508.8423,509.8892,509.8893,512.8424,return,0.371,,30.46875,,,,,,FBP-YG-81.png,0.37,1.2,22,0.25,0,22,22,21,1,,,,,,,,,,,,,,,,,,,,,,,,,,,,,,,,,,,,,,,,
,,,,,SPR24_100,19,female,2024-04-26_10h32.37.283,jersey_experiment_5_v0,2023.2.2,Win32,84.74576271,,,,,,,,,,,,,,,,512.8426,513.8893,513.8893,517.066,return,0.6412,,60.80729167,,,,,,FBP-PT-81.png,0.43,1.2,54,0.25,0,23,23,53,1,,,,,,,,,,,,,,,,,,,,,,,,,,,,,,,,,,,,,,,,
,,,,,SPR24_100,19,female,2024-04-26_10h32.37.283,jersey_experiment_5_v0,2023.2.2,Win32,84.74576271,,,,,,,,,,,,,,,,517.0662,518.1131,518.1131,520.8898,return,0.4276,,41.14583333,,,,,,FBP-PT-91.png,0.35,1.2,56,0.25,0,24,24,55,1,,,,,,,,,,,,,,,,,,,,,,,,,,,,,,,,,,,,,,,,
,,,,,SPR24_100,19,female,2024-04-26_10h32.37.283,jersey_experiment_5_v0,2023.2.2,Win32,84.74576271,,,,,,,,,,,,,,,,520.8899,522.1839,522.1839,524.6426,return,0.5882,,50,,,,,,FBP-RB-71.png,0.4,1.2,33,0.5,0,25,25,32,1,,,,,,,,,,,,,,,,,,,,,,,,,,,,,,,,,,,,,,,,
,,,,,SPR24_100,19,female,2024-04-26_10h32.37.283,jersey_experiment_5_v0,2023.2.2,Win32,84.74576271,,,,,,,,,,,,,,,,524.6429,525.6898,525.6899,529.2665,return,2.2825,,53.125,,,,,,FBP-PT-81.png,0.4,1.2,53,0.25,0,26,26,52,1,,,,,,,,,,,,,,,,,,,,,,,,,,,,,,,,,,,,,,,,
,,,,,SPR24_100,19,female,2024-04-26_10h32.37.283,jersey_experiment_5_v0,2023.2.2,Win32,84.74576271,,,,,,,,,,,,,,,,529.2667,530.3135,530.3136,532.7135,return,0.3697,,46.09375,,,,,,FBP-PT-81.png,0.37,1.2,52,0.25,0,27,27,51,1,,,,,,,,,,,,,,,,,,,,,,,,,,,,,,,,,,,,,,,,
,,,,,SPR24_100,19,female,2024-04-26_10h32.37.283,jersey_experiment_5_v0,2023.2.2,Win32,84.74576271,,,,,,,,,,,,,,,,532.7137,534.0076,534.0077,536.9726,return,0.2863,,47.13541667,,,,,,FBP-OG-18.png,0.4,1.2,8,0.5,0,28,28,7,1,,,,,,,,,,,,,,,,,,,,,,,,,,,,,,,,,,,,,,,,
,,,,,SPR24_100,19,female,2024-04-26_10h32.37.283,jersey_experiment_5_v0,2023.2.2,Win32,84.74576271,,,,,,,,,,,,,,,,536.9728,538.0197,538.0197,539.9139,return,0.1947,,42.96875,,,,,,FBP-YG-91.png,0.37,1.2,27,0.25,0,29,29,26,1,,,,,,,,,,,,,,,,,,,,,,,,,,,,,,,,,,,,,,,,
,,,,,SPR24_100,19,female,2024-04-26_10h32.37.283,jersey_experiment_5_v0,2023.2.2,Win32,84.74576271,,,,,,,,,,,,,,,,539.9142,541.208,541.208,542.9846,return,0.24,,49.47916667,,,,,,FBP-OG-17.png,0.4,1.2,3,0.5,0,30,30,2,1,,,,,,,,,,,,,,,,,,,,,,,,,,,,,,,,,,,,,,,,
,,,,,SPR24_100,19,female,2024-04-26_10h32.37.283,jersey_experiment_5_v0,2023.2.2,Win32,84.74576271,,,,,,,,,,,,,,,,542.9848,544.2787,544.2787,548.6082,return,0.3069,,44.53125,,,,,,FBP-RB-81.png,0.4,1.2,38,0.5,0,31,31,37,1,,,,,,,,,,,,,,,,,,,,,,,,,,,,,,,,,,,,,,,,
,,,,,SPR24_100,19,female,2024-04-26_10h32.37.283,jersey_experiment_5_v0,2023.2.2,Win32,84.74576271,,,,,,,,,,,,,,,,548.6085,549.9024,549.9024,554.8438,return,0.2375,,53.64583333,,,,,,FBP-RB-81.png,0.43,1.2,39,0.5,0,32,32,38,1,,,,,,,,,,,,,,,,,,,,,,,,,,,,,,,,,,,,,,,,
,,,,,SPR24_100,19,female,2024-04-26_10h32.37.283,jersey_experiment_5_v0,2023.2.2,Win32,84.74576271,,,,,,,,,,,,,,,,554.8441,556.138,556.138,558.4439,return,0.2379,,54.42708333,,,,,,FBP-OG-17.png,0.45,1.2,5,0.5,0,33,33,4,1,,,,,,,,,,,,,,,,,,,,,,,,,,,,,,,,,,,,,,,,
,,,,,SPR24_100,19,female,2024-04-26_10h32.37.283,jersey_experiment_5_v0,2023.2.2,Win32,84.74576271,,,,,,,,,,,,,,,,558.4442,559.7381,559.7381,561.7852,return,0.5932,,63.28125,,,,,,FBP-RB-71.png,0.45,1.2,35,0.5,0,34,34,34,1,,,,,,,,,,,,,,,,,,,,,,,,,,,,,,,,,,,,,,,,
,,,,,SPR24_100,19,female,2024-04-26_10h32.37.283,jersey_experiment_5_v0,2023.2.2,Win32,84.74576271,,,,,,,,,,,,,,,,561.7854,562.8323,562.8323,567.0326,return,0.4191,,29.42708333,,,,,,FBP-YG-91.png,0.35,1.2,26,0.25,0,35,35,25,1,,,,,,,,,,,,,,,,,,,,,,,,,,,,,,,,,,,,,,,,
,,,,,SPR24_100,19,female,2024-04-26_10h32.37.283,jersey_experiment_5_v0,2023.2.2,Win32,84.74576271,,,,,,,,,,,,,,,,567.0329,568.0795,568.0795,571.6445,return,0.6139,,69.53125,,,,,,FBP-YG-91.png,0.43,1.2,29,0.25,0,36,36,28,1,,,,,,,,,,,,,,,,,,,,,,,,,,,,,,,,,,,,,,,,
,,,,,SPR24_100,19,female,2024-04-26_10h32.37.283,jersey_experiment_5_v0,2023.2.2,Win32,84.74576271,,,,,,,,,,,,,,,,571.6446,572.9385,572.9385,574.7858,return,0.2226,,74.73958333,,,,,,FBP-OG-19.png,0.43,1.2,14,0.5,0,37,37,13,1,,,,,,,,,,,,,,,,,,,,,,,,,,,,,,,,,,,,,,,,
,,,,,SPR24_100,19,female,2024-04-26_10h32.37.283,jersey_experiment_5_v0,2023.2.2,Win32,84.74576271,,,,,,,,,,,,,,,,574.786,576.0797,576.0798,577.5859,return,0.2828,,24.08854167,,,,,,FBP-OG-18.png,0.35,1.2,6,0.5,0,38,38,5,1,,,,,,,,,,,,,,,,,,,,,,,,,,,,,,,,,,,,,,,,
,,,,,SPR24_100,19,female,2024-04-26_10h32.37.283,jersey_experiment_5_v0,2023.2.2,Win32,84.74576271,,,,,,,,,,,,,,,,577.5861,578.633,578.633,581.5036,return,0.1892,,69.66145833,,,,,,FBP-PT-71.png,0.45,1.2,50,0.25,0,39,39,49,1,,,,,,,,,,,,,,,,,,,,,,,,,,,,,,,,,,,,,,,,
,,,,,SPR24_100,19,female,2024-04-26_10h32.37.283,jersey_experiment_5_v0,2023.2.2,Win32,84.74576271,,,,,,,,,,,,,,,,581.5038,582.5506,582.5506,585.339,return,0.2151,,42.578125,,,,,,FBP-YG-91.png,0.4,1.2,28,0.25,0,40,40,27,1,,,,,,,,,,,,,,,,,,,,,,,,,,,,,,,,,,,,,,,,
,,,,,SPR24_100,19,female,2024-04-26_10h32.37.283,jersey_experiment_5_v0,2023.2.2,Win32,84.74576271,,,,,,,,,,,,,,,,585.3392,586.3861,586.3861,588.3629,return,0.2408,,24.73958333,,,,,,FBP-YG-71.png,0.37,1.2,17,0.25,0,41,41,16,1,,,,,,,,,,,,,,,,,,,,,,,,,,,,,,,,,,,,,,,,
,,,,,SPR24_100,19,female,2024-04-26_10h32.37.283,jersey_experiment_5_v0,2023.2.2,Win32,84.74576271,,,,,,,,,,,,,,,,588.3631,589.4097,589.4097,590.9274,return,0.3394,,17.70833333,,,,,,FBP-PT-71.png,0.37,1.2,47,0.25,0,42,42,46,1,,,,,,,,,,,,,,,,,,,,,,,,,,,,,,,,,,,,,,,,
,,,,,SPR24_100,19,female,2024-04-26_10h32.37.283,jersey_experiment_5_v0,2023.2.2,Win32,84.74576271,,,,,,,,,,,,,,,,590.9276,591.9745,591.9746,593.7511,return,0.7148,,9.635416667,,,,,,FBP-YG-71.png,0.35,1.2,16,0.25,0,43,43,15,1,,,,,,,,,,,,,,,,,,,,,,,,,,,,,,,,,,,,,,,,
,,,,,SPR24_100,19,female,2024-04-26_10h32.37.283,jersey_experiment_5_v0,2023.2.2,Win32,84.74576271,,,,,,,,,,,,,,,,593.7513,595.0451,595.0452,598.7042,return,0.4844,,6.119791667,,,,,,FBP-RB-81.png,0.35,1.2,36,0.5,0,44,44,35,1,,,,,,,,,,,,,,,,,,,,,,,,,,,,,,,,,,,,,,,,
,,,,,SPR24_100,19,female,2024-04-26_10h32.37.283,jersey_experiment_5_v0,2023.2.2,Win32,84.74576271,,,,,,,,,,,,,,,,598.7044,599.7513,599.7513,602.9278,return,0.222,,71.875,,,,,,FBP-PT-91.png,0.45,1.2,60,0.25,0,45,45,59,1,,,,,,,,,,,,,,,,,,,,,,,,,,,,,,,,,,,,,,,,
,,,,,SPR24_100,19,female,2024-04-26_10h32.37.283,jersey_experiment_5_v0,2023.2.2,Win32,84.74576271,,,,,,,,,,,,,,,,602.928,603.9749,603.9749,606.8926,return,0.1798,,81.25,,,,,,FBP-PT-81.png,0.45,1.2,55,0.25,0,46,46,54,1,,,,,,,,,,,,,,,,,,,,,,,,,,,,,,,,,,,,,,,,
,,,,,SPR24_100,19,female,2024-04-26_10h32.37.283,jersey_experiment_5_v0,2023.2.2,Win32,84.74576271,,,,,,,,,,,,,,,,606.8928,608.1869,608.1869,611.681,return,1.4681,,68.22916667,,,,,,FBP-RB-91.png,0.45,1.2,45,0.5,0,47,47,44,1,,,,,,,,,,,,,,,,,,,,,,,,,,,,,,,,,,,,,,,,
,,,,,SPR24_100,19,female,2024-04-26_10h32.37.283,jersey_experiment_5_v0,2023.2.2,Win32,84.74576271,,,,,,,,,,,,,,,,611.6813,612.7283,612.7283,614.8341,return,0.1885,,56.51041667,,,,,,FBP-YG-81.png,0.43,1.2,24,0.25,0,48,48,23,1,,,,,,,,,,,,,,,,,,,,,,,,,,,,,,,,,,,,,,,,
,,,,,SPR24_100,19,female,2024-04-26_10h32.37.283,jersey_experiment_5_v0,2023.2.2,Win32,84.74576271,,,,,,,,,,,,,,,,614.8343,616.1283,616.1283,618.0106,return,0.2876,,49.609375,,,,,,FBP-OG-18.png,0.43,1.2,9,0.5,0,49,49,8,1,,,,,,,,,,,,,,,,,,,,,,,,,,,,,,,,,,,,,,,,
,,,,,SPR24_100,19,female,2024-04-26_10h32.37.283,jersey_experiment_5_v0,2023.2.2,Win32,84.74576271,,,,,,,,,,,,,,,,618.0108,619.3049,619.3049,621.4229,return,0.1752,,24.73958333,,,,,,FBP-RB-71.png,0.35,1.2,31,0.5,0,50,50,30,1,,,,,,,,,,,,,,,,,,,,,,,,,,,,,,,,,,,,,,,,
,,,,,SPR24_100,19,female,2024-04-26_10h32.37.283,jersey_experiment_5_v0,2023.2.2,Win32,84.74576271,,,,,,,,,,,,,,,,621.4231,622.7168,622.7168,625.5639,return,0.1453,,30.078125,,,,,,FBP-RB-81.png,0.37,1.2,37,0.5,0,51,51,36,1,,,,,,,,,,,,,,,,,,,,,,,,,,,,,,,,,,,,,,,,
,,,,,SPR24_100,19,female,2024-04-26_10h32.37.283,jersey_experiment_5_v0,2023.2.2,Win32,84.74576271,,,,,,,,,,,,,,,,625.5641,626.8582,626.8582,628.5405,return,0.1665,,20.05208333,,,,,,FBP-RB-71.png,0.37,1.2,32,0.5,0,52,52,31,1,,,,,,,,,,,,,,,,,,,,,,,,,,,,,,,,,,,,,,,,
,,,,,SPR24_100,19,female,2024-04-26_10h32.37.283,jersey_experiment_5_v0,2023.2.2,Win32,84.74576271,,,,,,,,,,,,,,,,628.5407,629.8348,629.8348,631.5055,return,0.1885,,20.05208333,,,,,,FBP-OG-19.png,0.37,1.2,12,0.5,0,53,53,11,1,,,,,,,,,,,,,,,,,,,,,,,,,,,,,,,,,,,,,,,,
,,,,,SPR24_100,19,female,2024-04-26_10h32.37.283,jersey_experiment_5_v0,2023.2.2,Win32,84.74576271,,,,,,,,,,,,,,,,631.5057,632.5522,632.5523,635.2583,return,0.1802,,55.33854167,,,,,,FBP-PT-91.png,0.43,1.2,59,0.25,0,54,54,58,1,,,,,,,,,,,,,,,,,,,,,,,,,,,,,,,,,,,,,,,,
,,,,,SPR24_100,19,female,2024-04-26_10h32.37.283,jersey_experiment_5_v0,2023.2.2,Win32,84.74576271,,,,,,,,,,,,,,,,635.2585,636.5526,636.5526,639.6586,return,1.0502,,60.9375,,,,,,FBP-RB-81.png,0.45,1.2,40,0.5,0,55,55,39,1,,,,,,,,,,,,,,,,,,,,,,,,,,,,,,,,,,,,,,,,
,,,,,SPR24_100,19,female,2024-04-26_10h32.37.283,jersey_experiment_5_v0,2023.2.2,Win32,84.74576271,,,,,,,,,,,,,,,,639.6588,640.9526,640.9526,643.1174,return,0.45,,25.13020833,,,,,,FBP-OG-17.png,0.35,1.2,1,0.5,0,56,56,0,1,,,,,,,,,,,,,,,,,,,,,,,,,,,,,,,,,,,,,,,,
,,,,,SPR24_100,19,female,2024-04-26_10h32.37.283,jersey_experiment_5_v0,2023.2.2,Win32,84.74576271,,,,,,,,,,,,,,,,643.1176,644.1646,644.1646,646.3295,return,0.1226,,29.42708333,,,,,,FBP-PT-91.png,0.37,1.2,57,0.25,0,57,57,56,1,,,,,,,,,,,,,,,,,,,,,,,,,,,,,,,,,,,,,,,,
,,,,,SPR24_100,19,female,2024-04-26_10h32.37.283,jersey_experiment_5_v0,2023.2.2,Win32,84.74576271,,,,,,,,,,,,,,,,646.3296,647.3764,647.3764,649.3765,return,0.2115,,37.76041667,,,,,,FBP-PT-71.png,0.4,1.2,48,0.25,0,58,58,47,1,,,,,,,,,,,,,,,,,,,,,,,,,,,,,,,,,,,,,,,,
,,,,,SPR24_100,19,female,2024-04-26_10h32.37.283,jersey_experiment_5_v0,2023.2.2,Win32,84.74576271,,,,,,,,,,,,,,,,649.3767,650.6707,650.6707,653.4826,return,1.4526,,30.59895833,,,,,,FBP-OG-17.png,0.37,1.2,2,0.5,0,59,59,1,1,,,,,,,,,,,,,,,,,,,,,,,,,,,,,,,,,,,,,,,,
,,,,,SPR24_100,19,female,2024-04-26_10h32.37.283,jersey_experiment_5_v0,2023.2.2,Win32,84.74576271,,,,,,,,,,,,,,,,,,,,,,,,,,,,,,,,,,,,,,,653.4829,773.4754,,,,,,,,,,,,,,,,,,,,,,,,,,,,,,,,,,,,,,
,,,,,SPR24_100,19,female,2024-04-26_10h32.37.283,jersey_experiment_5_v0,2023.2.2,Win32,84.74576271,,,,,,,,,,,,,,,,,,,,,,,,,,,,,,,,,,,,,,,,,773.4755,776.4635,return,2.9741,,,,,,,,,,,,,,,,,,,,,,,,,,,,,,,,,,
,,,,,SPR24_100,19,female,2024-04-26_10h32.37.283,jersey_experiment_5_v0,2023.2.2,Win32,84.74576271,,,,,,,,,,,,,,,,776.4699,777.7693,777.7693,781.4988,return,0.8991,,47.00520833,,,,,,FBP-PT-18.png,0.43,1.2,54,0.5,,,,,,,,,,,,,0,0,0,53,1,,,,,,,,,,,,,,,,,,,,,,,,,,,,
,,,,,SPR24_100,19,female,2024-04-26_10h32.37.283,jersey_experiment_5_v0,2023.2.2,Win32,84.74576271,,,,,,,,,,,,,,,,781.4991,782.546,782.5461,784.3813,return,0.3432,,29.6875,,,,,,FBP-OG-81.png,0.35,1.2,6,0.25,,,,,,,,,,,,,0,1,1,5,1,,,,,,,,,,,,,,,,,,,,,,,,,,,,
,,,,,SPR24_100,19,female,2024-04-26_10h32.37.283,jersey_experiment_5_v0,2023.2.2,Win32,84.74576271,,,,,,,,,,,,,,,,784.3815,785.6755,785.6755,787.358,return,0.166,,57.421875,,,,,,FBP-YG-18.png,0.43,1.2,24,0.5,,,,,,,,,,,,,0,2,2,23,1,,,,,,,,,,,,,,,,,,,,,,,,,,,,
,,,,,SPR24_100,19,female,2024-04-26_10h32.37.283,jersey_experiment_5_v0,2023.2.2,Win32,84.74576271,,,,,,,,,,,,,,,,787.3582,788.6521,788.6521,790.2168,return,0.3008,,70.83333333,,,,,,FBP-PT-19.png,0.45,1.2,60,0.5,,,,,,,,,,,,,0,3,3,59,1,,,,,,,,,,,,,,,,,,,,,,,,,,,,
,,,,,SPR24_100,19,female,2024-04-26_10h32.37.283,jersey_experiment_5_v0,2023.2.2,Win32,84.74576271,,,,,,,,,,,,,,,,790.2171,791.2639,791.2639,793.1817,return,0.2028,,30.72916667,,,,,,FBP-RB-19.png,0.35,1.2,41,0.25,,,,,,,,,,,,,0,4,4,40,1,,,,,,,,,,,,,,,,,,,,,,,,,,,,
,,,,,SPR24_100,19,female,2024-04-26_10h32.37.283,jersey_experiment_5_v0,2023.2.2,Win32,84.74576271,,,,,,,,,,,,,,,,793.1819,794.2286,794.2287,796.4759,return,0.2275,,75.26041667,,,,,,FBP-RB-17.png,0.45,1.2,35,0.25,,,,,,,,,,,,,0,5,5,34,1,,,,,,,,,,,,,,,,,,,,,,,,,,,,
,,,,,SPR24_100,19,female,2024-04-26_10h32.37.283,jersey_experiment_5_v0,2023.2.2,Win32,84.74576271,,,,,,,,,,,,,,,,796.4763,797.5229,797.5229,801.7938,return,0.9178,,46.74479167,,,,,,FBP-RB-19.png,0.4,1.2,43,0.25,,,,,,,,,,,,,0,6,6,42,1,,,,,,,,,,,,,,,,,,,,,,,,,,,,
,,,,,SPR24_100,19,female,2024-04-26_10h32.37.283,jersey_experiment_5_v0,2023.2.2,Win32,84.74576271,,,,,,,,,,,,,,,,801.794,802.8408,802.8409,804.2411,return,0.132,,30.72916667,,,,,,FBP-OG-91.png,0.37,1.2,12,0.25,,,,,,,,,,,,,0,7,7,11,1,,,,,,,,,,,,,,,,,,,,,,,,,,,,
,,,,,SPR24_100,19,female,2024-04-26_10h32.37.283,jersey_experiment_5_v0,2023.2.2,Win32,84.74576271,,,,,,,,,,,,,,,,804.2413,805.2879,805.2879,806.6999,return,0.1688,,24.34895833,,,,,,FBP-RB-18.png,0.35,1.2,36,0.25,,,,,,,,,,,,,0,8,8,35,1,,,,,,,,,,,,,,,,,,,,,,,,,,,,
,,,,,SPR24_100,19,female,2024-04-26_10h32.37.283,jersey_experiment_5_v0,2023.2.2,Win32,84.74576271,,,,,,,,,,,,,,,,806.7001,807.9938,807.9938,810.4764,return,0.2028,,47.265625,,,,,,FBP-YG-17.png,0.4,1.2,18,0.5,,,,,,,,,,,,,0,9,9,17,1,,,,,,,,,,,,,,,,,,,,,,,,,,,,
,,,,,SPR24_100,19,female,2024-04-26_10h32.37.283,jersey_experiment_5_v0,2023.2.2,Win32,84.74576271,,,,,,,,,,,,,,,,810.4766,811.7706,811.7706,813.9354,return,0.2113,,25.26041667,,,,,,FBP-YG-17.png,0.35,1.2,16,0.5,,,,,,,,,,,,,0,10,10,15,1,,,,,,,,,,,,,,,,,,,,,,,,,,,,
,,,,,SPR24_100,19,female,2024-04-26_10h32.37.283,jersey_experiment_5_v0,2023.2.2,Win32,84.74576271,,,,,,,,,,,,,,,,813.9356,814.9824,814.9825,816.8767,return,0.2733,,21.484375,,,,,,FBP-RB-17.png,0.35,1.2,31,0.25,,,,,,,,,,,,,0,11,11,30,1,,,,,,,,,,,,,,,,,,,,,,,,,,,,
,,,,,SPR24_100,19,female,2024-04-26_10h32.37.283,jersey_experiment_5_v0,2023.2.2,Win32,84.74576271,,,,,,,,,,,,,,,,816.877,817.9237,817.9237,821.4063,return,0.1287,,20.703125,,,,,,FBP-RB-18.png,0.37,1.2,37,0.25,,,,,,,,,,,,,0,12,12,36,1,,,,,,,,,,,,,,,,,,,,,,,,,,,,
,,,,,SPR24_100,19,female,2024-04-26_10h32.37.283,jersey_experiment_5_v0,2023.2.2,Win32,84.74576271,,,,,,,,,,,,,,,,821.4064,822.7003,822.7003,827.277,return,2.0004,,69.40104167,,,,,,FBP-YG-18.png,0.45,1.2,25,0.5,,,,,,,,,,,,,0,13,13,24,1,,,,,,,,,,,,,,,,,,,,,,,,,,,,
,,,,,SPR24_100,19,female,2024-04-26_10h32.37.283,jersey_experiment_5_v0,2023.2.2,Win32,84.74576271,,,,,,,,,,,,,,,,827.2772,828.3242,828.3243,829.9359,return,0.1419,,49.73958333,,,,,,FBP-OG-71.png,0.43,1.2,4,0.25,,,,,,,,,,,,,0,14,14,3,1,,,,,,,,,,,,,,,,,,,,,,,,,,,,
,,,,,SPR24_100,19,female,2024-04-26_10h32.37.283,jersey_experiment_5_v0,2023.2.2,Win32,84.74576271,,,,,,,,,,,,,,,,829.9362,831.2301,831.2301,832.7595,return,0.3024,,36.45833333,,,,,,FBP-PT-17.png,0.37,1.2,47,0.5,,,,,,,,,,,,,0,15,15,46,1,,,,,,,,,,,,,,,,,,,,,,,,,,,,
,,,,,SPR24_100,19,female,2024-04-26_10h32.37.283,jersey_experiment_5_v0,2023.2.2,Win32,84.74576271,,,,,,,,,,,,,,,,832.7598,834.0537,834.0537,835.2773,return,0.0859,,43.88020833,,,,,,FBP-PT-18.png,0.4,1.2,53,0.5,,,,,,,,,,,,,0,16,16,52,1,,,,,,,,,,,,,,,,,,,,,,,,,,,,
,,,,,SPR24_100,19,female,2024-04-26_10h32.37.283,jersey_experiment_5_v0,2023.2.2,Win32,84.74576271,,,,,,,,,,,,,,,,835.2775,836.3244,836.3244,838.2656,return,0.145,,58.984375,,,,,,FBP-RB-18.png,0.43,1.2,39,0.25,,,,,,,,,,,,,0,17,17,38,1,,,,,,,,,,,,,,,,,,,,,,,,,,,,
,,,,,SPR24_100,19,female,2024-04-26_10h32.37.283,jersey_experiment_5_v0,2023.2.2,Win32,84.74576271,,,,,,,,,,,,,,,,838.2659,839.3127,839.3127,841.148,return,0.0976,,69.53125,,,,,,FBP-RB-19.png,0.45,1.2,45,0.25,,,,,,,,,,,,,0,18,18,44,1,,,,,,,,,,,,,,,,,,,,,,,,,,,,
,,,,,SPR24_100,19,female,2024-04-26_10h32.37.283,jersey_experiment_5_v0,2023.2.2,Win32,84.74576271,,,,,,,,,,,,,,,,841.1482,842.4422,842.4422,844.1247,return,0.0954,,43.359375,,,,,,FBP-YG-19.png,0.4,1.2,28,0.5,,,,,,,,,,,,,0,19,19,27,1,,,,,,,,,,,,,,,,,,,,,,,,,,,,
,,,,,SPR24_100,19,female,2024-04-26_10h32.37.283,jersey_experiment_5_v0,2023.2.2,Win32,84.74576271,,,,,,,,,,,,,,,,844.1249,845.1717,845.1718,846.8071,return,0.1143,,29.55729167,,,,,,FBP-RB-19.png,0.37,1.2,42,0.25,,,,,,,,,,,,,0,20,20,41,1,,,,,,,,,,,,,,,,,,,,,,,,,,,,
,,,,,SPR24_100,19,female,2024-04-26_10h32.37.283,jersey_experiment_5_v0,2023.2.2,Win32,84.74576271,,,,,,,,,,,,,,,,846.8073,848.1013,848.1014,849.1954,return,0.1216,,28.125,,,,,,FBP-PT-17.png,0.4,1.2,48,0.5,,,,,,,,,,,,,0,21,21,47,1,,,,,,,,,,,,,,,,,,,,,,,,,,,,
,,,,,SPR24_100,19,female,2024-04-26_10h32.37.283,jersey_experiment_5_v0,2023.2.2,Win32,84.74576271,,,,,,,,,,,,,,,,849.1955,850.4895,850.4895,853.725,return,0.085,,53.25520833,,,,,,FBP-PT-17.png,0.43,1.2,49,0.5,,,,,,,,,,,,,0,22,22,48,1,,,,,,,,,,,,,,,,,,,,,,,,,,,,
,,,,,SPR24_100,19,female,2024-04-26_10h32.37.283,jersey_experiment_5_v0,2023.2.2,Win32,84.74576271,,,,,,,,,,,,,,,,853.7252,854.772,854.7721,856.2193,return,0.0496,,64.19270833,,,,,,FBP-OG-91.png,0.45,1.2,15,0.25,,,,,,,,,,,,,0,23,23,14,1,,,,,,,,,,,,,,,,,,,,,,,,,,,,
,,,,,SPR24_100,19,female,2024-04-26_10h32.37.283,jersey_experiment_5_v0,2023.2.2,Win32,84.74576271,,,,,,,,,,,,,,,,856.2194,857.5134,857.5134,859.3253,return,0.1316,,49.86979167,,,,,,FBP-PT-19.png,0.43,1.2,59,0.5,,,,,,,,,,,,,0,24,24,58,1,,,,,,,,,,,,,,,,,,,,,,,,,,,,
,,,,,SPR24_100,19,female,2024-04-26_10h32.37.283,jersey_experiment_5_v0,2023.2.2,Win32,84.74576271,,,,,,,,,,,,,,,,859.3254,860.6193,860.6193,861.6545,return,0.1001,,50.13020833,,,,,,FBP-YG-17.png,0.43,1.2,19,0.5,,,,,,,,,,,,,0,25,25,18,1,,,,,,,,,,,,,,,,,,,,,,,,,,,,
,,,,,SPR24_100,19,female,2024-04-26_10h32.37.283,jersey_experiment_5_v0,2023.2.2,Win32,84.74576271,,,,,,,,,,,,,,,,861.6548,862.7018,862.7018,865.9371,return,0.1646,,59.89583333,,,,,,FBP-OG-71.png,0.45,1.2,5,0.25,,,,,,,,,,,,,0,26,26,4,1,,,,,,,,,,,,,,,,,,,,,,,,,,,,
,,,,,SPR24_100,19,female,2024-04-26_10h32.37.283,jersey_experiment_5_v0,2023.2.2,Win32,84.74576271,,,,,,,,,,,,,,,,865.9373,867.2314,867.2314,869.8315,return,0.3237,,49.609375,,,,,,FBP-PT-18.png,0.45,1.2,55,0.5,,,,,,,,,,,,,0,27,27,54,1,,,,,,,,,,,,,,,,,,,,,,,,,,,,
,,,,,SPR24_100,19,female,2024-04-26_10h32.37.283,jersey_experiment_5_v0,2023.2.2,Win32,84.74576271,,,,,,,,,,,,,,,,869.8316,870.8785,870.8786,873.0552,return,0.1517,,31.25,,,,,,FBP-RB-17.png,0.37,1.2,32,0.25,,,,,,,,,,,,,0,28,28,31,1,,,,,,,,,,,,,,,,,,,,,,,,,,,,
,,,,,SPR24_100,19,female,2024-04-26_10h32.37.283,jersey_experiment_5_v0,2023.2.2,Win32,84.74576271,,,,,,,,,,,,,,,,873.0553,874.1023,874.1023,876.6785,return,0.0415,,44.01041667,,,,,,FBP-OG-91.png,0.4,1.2,13,0.25,,,,,,,,,,,,,0,29,29,12,1,,,,,,,,,,,,,,,,,,,,,,,,,,,,
,,,,,SPR24_100,19,female,2024-04-26_10h32.37.283,jersey_experiment_5_v0,2023.2.2,Win32,84.74576271,,,,,,,,,,,,,,,,876.6787,877.9729,877.9729,879.373,return,0.2597,,50.26041667,,,,,,FBP-YG-19.png,0.43,1.2,29,0.5,,,,,,,,,,,,,0,30,30,28,1,,,,,,,,,,,,,,,,,,,,,,,,,,,,
,,,,,SPR24_100,19,female,2024-04-26_10h32.37.283,jersey_experiment_5_v0,2023.2.2,Win32,84.74576271,,,,,,,,,,,,,,,,879.3733,880.42,880.4201,881.7613,return,0.3765,,50.13020833,,,,,,FBP-OG-81.png,0.43,1.2,9,0.25,,,,,,,,,,,,,0,31,31,8,1,,,,,,,,,,,,,,,,,,,,,,,,,,,,
,,,,,SPR24_100,19,female,2024-04-26_10h32.37.283,jersey_experiment_5_v0,2023.2.2,Win32,84.74576271,,,,,,,,,,,,,,,,881.7614,882.8084,882.8084,888.0087,return,0.1466,,70.05208333,,,,,,FBP-RB-18.png,0.45,1.2,40,0.25,,,,,,,,,,,,,0,32,32,39,1,,,,,,,,,,,,,,,,,,,,,,,,,,,,
,,,,,SPR24_100,19,female,2024-04-26_10h32.37.283,jersey_experiment_5_v0,2023.2.2,Win32,84.74576271,,,,,,,,,,,,,,,,888.0088,889.0556,889.0556,890.9851,return,0.1239,,29.03645833,,,,,,FBP-OG-91.png,0.35,1.2,11,0.25,,,,,,,,,,,,,0,33,33,10,1,,,,,,,,,,,,,,,,,,,,,,,,,,,,
,,,,,SPR24_100,19,female,2024-04-26_10h32.37.283,jersey_experiment_5_v0,2023.2.2,Win32,84.74576271,,,,,,,,,,,,,,,,890.9852,892.2793,892.2793,893.6324,return,0.2583,,25,,,,,,FBP-YG-19.png,0.37,1.2,27,0.5,,,,,,,,,,,,,0,34,34,26,1,,,,,,,,,,,,,,,,,,,,,,,,,,,,
,,,,,SPR24_100,19,female,2024-04-26_10h32.37.283,jersey_experiment_5_v0,2023.2.2,Win32,84.74576271,,,,,,,,,,,,,,,,893.6326,894.6794,894.6794,904.7621,return,3.6501,,44.40104167,,,,,,FBP-OG-81.png,0.4,1.2,8,0.25,,,,,,,,,,,,,0,35,35,7,1,,,,,,,,,,,,,,,,,,,,,,,,,,,,
,,,,,SPR24_100,19,female,2024-04-26_10h32.37.283,jersey_experiment_5_v0,2023.2.2,Win32,84.74576271,,,,,,,,,,,,,,,,904.7665,906.0681,906.0681,907.4563,return,0.1275,,28.25520833,,,,,,FBP-YG-19.png,0.35,1.2,26,0.5,,,,,,,,,,,,,0,36,36,25,1,,,,,,,,,,,,,,,,,,,,,,,,,,,,
,,,,,SPR24_100,19,female,2024-04-26_10h32.37.283,jersey_experiment_5_v0,2023.2.2,Win32,84.74576271,,,,,,,,,,,,,,,,907.4564,908.5034,908.5034,911.6801,return,0.1424,,70.05208333,,,,,,FBP-OG-91.png,0.43,1.2,14,0.25,,,,,,,,,,,,,0,37,37,13,1,,,,,,,,,,,,,,,,,,,,,,,,,,,,
,,,,,SPR24_100,19,female,2024-04-26_10h32.37.283,jersey_experiment_5_v0,2023.2.2,Win32,84.74576271,,,,,,,,,,,,,,,,911.6802,912.7271,912.7271,942.5047,return,27.8315,,43.88020833,,,,,,FBP-OG-81.png,0.37,1.2,7,0.25,,,,,,,,,,,,,0,38,38,6,1,,,,,,,,,,,,,,,,,,,,,,,,,,,,
,,,,,SPR24_100,19,female,2024-04-26_10h32.37.283,jersey_experiment_5_v0,2023.2.2,Win32,84.74576271,,,,,,,,,,,,,,,,942.5092,943.8107,943.8107,946.2577,return,0.8004,,37.23958333,,,,,,FBP-PT-19.png,0.4,1.2,58,0.5,,,,,,,,,,,,,0,39,39,57,1,,,,,,,,,,,,,,,,,,,,,,,,,,,,
,,,,,SPR24_100,19,female,2024-04-26_10h32.37.283,jersey_experiment_5_v0,2023.2.2,Win32,84.74576271,,,,,,,,,,,,,,,,946.2579,947.3047,947.3047,949.5284,return,0.4397,,56.51041667,,,,,,FBP-RB-19.png,0.43,1.2,44,0.25,,,,,,,,,,,,,0,40,40,43,1,,,,,,,,,,,,,,,,,,,,,,,,,,,,
,,,,,SPR24_100,19,female,2024-04-26_10h32.37.283,jersey_experiment_5_v0,2023.2.2,Win32,84.74576271,,,,,,,,,,,,,,,,949.5286,950.8225,950.8226,952.2815,return,0.0767,,29.55729167,,,,,,FBP-PT-17.png,0.35,1.2,46,0.5,,,,,,,,,,,,,0,41,41,45,1,,,,,,,,,,,,,,,,,,,,,,,,,,,,
,,,,,SPR24_100,19,female,2024-04-26_10h32.37.283,jersey_experiment_5_v0,2023.2.2,Win32,84.74576271,,,,,,,,,,,,,,,,952.2817,953.5756,953.5756,955.611,return,0.1196,,55.46875,,,,,,FBP-YG-17.png,0.45,1.2,20,0.5,,,,,,,,,,,,,0,42,42,19,1,,,,,,,,,,,,,,,,,,,,,,,,,,,,
,,,,,SPR24_100,19,female,2024-04-26_10h32.37.283,jersey_experiment_5_v0,2023.2.2,Win32,84.74576271,,,,,,,,,,,,,,,,955.6112,956.6581,956.6581,959.4699,return,0.1553,,35.67708333,,,,,,FBP-OG-71.png,0.35,1.2,1,0.25,,,,,,,,,,,,,0,43,43,0,1,,,,,,,,,,,,,,,,,,,,,,,,,,,,
,,,,,SPR24_100,19,female,2024-04-26_10h32.37.283,jersey_experiment_5_v0,2023.2.2,Win32,84.74576271,,,,,,,,,,,,,,,,959.4703,960.5171,960.5171,961.7524,return,0.0896,,37.890625,,,,,,FBP-OG-71.png,0.37,1.2,2,0.25,,,,,,,,,,,,,0,44,44,1,1,,,,,,,,,,,,,,,,,,,,,,,,,,,,
,,,,,SPR24_100,19,female,2024-04-26_10h32.37.283,jersey_experiment_5_v0,2023.2.2,Win32,84.74576271,,,,,,,,,,,,,,,,961.7526,962.7995,962.7995,964.6819,return,0.0851,,53.90625,,,,,,FBP-RB-17.png,0.43,1.2,34,0.25,,,,,,,,,,,,,0,45,45,33,1,,,,,,,,,,,,,,,,,,,,,,,,,,,,
,,,,,SPR24_100,19,female,2024-04-26_10h32.37.283,jersey_experiment_5_v0,2023.2.2,Win32,84.74576271,,,,,,,,,,,,,,,,964.6821,965.729,965.7291,967.435,return,0.1084,,68.359375,,,,,,FBP-OG-81.png,0.45,1.2,10,0.25,,,,,,,,,,,,,0,46,46,9,1,,,,,,,,,,,,,,,,,,,,,,,,,,,,
,,,,,SPR24_100,19,female,2024-04-26_10h32.37.283,jersey_experiment_5_v0,2023.2.2,Win32,84.74576271,,,,,,,,,,,,,,,,967.4351,968.7292,968.7292,970.4116,return,0.1432,,24.609375,,,,,,FBP-PT-18.png,0.35,1.2,51,0.5,,,,,,,,,,,,,0,47,47,50,1,,,,,,,,,,,,,,,,,,,,,,,,,,,,
,,,,,SPR24_100,19,female,2024-04-26_10h32.37.283,jersey_experiment_5_v0,2023.2.2,Win32,84.74576271,,,,,,,,,,,,,,,,970.4117,971.7057,971.7057,973.0821,return,0.0612,,32.421875,,,,,,FBP-PT-19.png,0.37,1.2,57,0.5,,,,,,,,,,,,,0,48,48,56,1,,,,,,,,,,,,,,,,,,,,,,,,,,,,
,,,,,SPR24_100,19,female,2024-04-26_10h32.37.283,jersey_experiment_5_v0,2023.2.2,Win32,84.74576271,,,,,,,,,,,,,,,,973.0822,974.1293,974.1293,975.4,return,0.0664,,38.93229167,,,,,,FBP-OG-71.png,0.4,1.2,3,0.25,,,,,,,,,,,,,0,49,49,2,1,,,,,,,,,,,,,,,,,,,,,,,,,,,,
,,,,,SPR24_100,19,female,2024-04-26_10h32.37.283,jersey_experiment_5_v0,2023.2.2,Win32,84.74576271,,,,,,,,,,,,,,,,975.4003,976.447,976.447,978.2824,return,0.3908,,46.61458333,,,,,,FBP-RB-17.png,0.4,1.2,33,0.25,,,,,,,,,,,,,0,50,50,32,1,,,,,,,,,,,,,,,,,,,,,,,,,,,,
,,,,,SPR24_100,19,female,2024-04-26_10h32.37.283,jersey_experiment_5_v0,2023.2.2,Win32,84.74576271,,,,,,,,,,,,,,,,978.2825,979.5764,979.5765,981.8825,return,0.8387,,46.61458333,,,,,,FBP-YG-18.png,0.4,1.2,23,0.5,,,,,,,,,,,,,0,51,51,22,1,,,,,,,,,,,,,,,,,,,,,,,,,,,,
,,,,,SPR24_100,19,female,2024-04-26_10h32.37.283,jersey_experiment_5_v0,2023.2.2,Win32,84.74576271,,,,,,,,,,,,,,,,981.8827,983.1766,983.1766,984.8708,return,0.1127,,55.20833333,,,,,,FBP-YG-19.png,0.45,1.2,30,0.5,,,,,,,,,,,,,0,52,52,29,1,,,,,,,,,,,,,,,,,,,,,,,,,,,,
,,,,,SPR24_100,19,female,2024-04-26_10h32.37.283,jersey_experiment_5_v0,2023.2.2,Win32,84.74576271,,,,,,,,,,,,,,,,984.871,986.1649,986.165,987.7532,return,0.0511,,41.66666667,,,,,,FBP-YG-17.png,0.37,1.2,17,0.5,,,,,,,,,,,,,0,53,53,16,1,,,,,,,,,,,,,,,,,,,,,,,,,,,,
,,,,,SPR24_100,19,female,2024-04-26_10h32.37.283,jersey_experiment_5_v0,2023.2.2,Win32,84.74576271,,,,,,,,,,,,,,,,987.7535,989.0474,989.0475,990.2945,return,0.0304,,46.74479167,,,,,,FBP-YG-18.png,0.37,1.2,22,0.5,,,,,,,,,,,,,0,54,54,21,1,,,,,,,,,,,,,,,,,,,,,,,,,,,,
,,,,,SPR24_100,19,female,2024-04-26_10h32.37.283,jersey_experiment_5_v0,2023.2.2,Win32,84.74576271,,,,,,,,,,,,,,,,990.2947,991.5888,991.5888,992.6476,return,0.3724,,46.61458333,,,,,,FBP-YG-18.png,0.35,1.2,21,0.5,,,,,,,,,,,,,0,55,55,20,1,,,,,,,,,,,,,,,,,,,,,,,,,,,,
,,,,,SPR24_100,19,female,2024-04-26_10h32.37.283,jersey_experiment_5_v0,2023.2.2,Win32,84.74576271,,,,,,,,,,,,,,,,992.6479,993.6948,993.6948,995.1771,return,0.1001,,53.64583333,,,,,,FBP-RB-18.png,0.4,1.2,38,0.25,,,,,,,,,,,,,0,56,56,37,1,,,,,,,,,,,,,,,,,,,,,,,,,,,,
,,,,,SPR24_100,19,female,2024-04-26_10h32.37.283,jersey_experiment_5_v0,2023.2.2,Win32,84.74576271,,,,,,,,,,,,,,,,995.1773,996.4713,996.4713,998.3301,return,0.1228,,69.921875,,,,,,FBP-PT-17.png,0.45,1.2,50,0.5,,,,,,,,,,,,,0,57,57,49,1,,,,,,,,,,,,,,,,,,,,,,,,,,,,
,,,,,SPR24_100,19,female,2024-04-26_10h32.37.283,jersey_experiment_5_v0,2023.2.2,Win32,84.74576271,,,,,,,,,,,,,,,,998.3303,999.6243,999.6244,1003.8245,return,0.3066,,45.96354167,,,,,,FBP-PT-18.png,0.37,1.2,52,0.5,,,,,,,,,,,,,0,58,58,51,1,,,,,,,,,,,,,,,,,,,,,,,,,,,,
,,,,,SPR24_100,19,female,2024-04-26_10h32.37.283,jersey_experiment_5_v0,2023.2.2,Win32,84.74576271,,,,,,,,,,,,,,,,1003.8247,1005.1186,1005.1187,1007.1776,return,0.0293,,33.33333333,,,,,,FBP-PT-19.png,0.35,1.2,56,0.5,,,,,,,,,,,,,0,59,59,55,1,,,,,,,,,,,,,,,,,,,,,,,,,,,,
,,,,,SPR24_100,19,female,2024-04-26_10h32.37.283,jersey_experiment_5_v0,2023.2.2,Win32,84.74576271,,,,,,,,,,,,,,,,1007.1794,1008.4716,1008.4717,1011.9189,return,0.0614,,57.68229167,,,,,,FBP-YG-71.png,0.45,1.2,20,0.5,,,,,,,,,,,,,,,,,,0,0,0,19,1,,,,,,,,,,,,,,,,,,,,,,,
,,,,,SPR24_100,19,female,2024-04-26_10h32.37.283,jersey_experiment_5_v0,2023.2.2,Win32,84.74576271,,,,,,,,,,,,,,,,1011.9192,1013.2129,1013.2129,1016.4484,return,0.1039,,43.75,,,,,,FBP-YG-71.png,0.37,1.2,17,0.5,,,,,,,,,,,,,,,,,,0,1,1,16,1,,,,,,,,,,,,,,,,,,,,,,,
,,,,,SPR24_100,19,female,2024-04-26_10h32.37.283,jersey_experiment_5_v0,2023.2.2,Win32,84.74576271,,,,,,,,,,,,,,,,1016.4487,1017.7426,1017.7426,1019.0721,return,0.118,,32.16145833,,,,,,FBP-PT-71.png,0.37,1.2,47,0.5,,,,,,,,,,,,,,,,,,0,2,2,46,1,,,,,,,,,,,,,,,,,,,,,,,
,,,,,SPR24_100,19,female,2024-04-26_10h32.37.283,jersey_experiment_5_v0,2023.2.2,Win32,84.74576271,,,,,,,,,,,,,,,,1019.0724,1020.119,1020.119,1021.3428,return,0.1176,,23.95833333,,,,,,FBP-RB-91.png,0.35,1.2,41,0.25,,,,,,,,,,,,,,,,,,0,3,3,40,1,,,,,,,,,,,,,,,,,,,,,,,
,,,,,SPR24_100,19,female,2024-04-26_10h32.37.283,jersey_experiment_5_v0,2023.2.2,Win32,84.74576271,,,,,,,,,,,,,,,,1021.3431,1022.6369,1022.6369,1024.0486,return,0.0798,,14.58333333,,,,,,FBP-PT-91.png,0.35,1.2,56,0.5,,,,,,,,,,,,,,,,,,0,4,4,55,1,,,,,,,,,,,,,,,,,,,,,,,
,,,,,SPR24_100,19,female,2024-04-26_10h32.37.283,jersey_experiment_5_v0,2023.2.2,Win32,84.74576271,,,,,,,,,,,,,,,,1024.0489,1025.0958,1025.0959,1028.1901,return,0.0716,,71.61458333,,,,,,FBP-OG-17.png,0.43,1.2,4,0.25,,,,,,,,,,,,,,,,,,0,5,5,3,1,,,,,,,,,,,,,,,,,,,,,,,
,,,,,SPR24_100,19,female,2024-04-26_10h32.37.283,jersey_experiment_5_v0,2023.2.2,Win32,84.74576271,,,,,,,,,,,,,,,,1028.1903,1029.2372,1029.2372,1033.1667,return,0.1082,,41.40625,,,,,,FBP-RB-81.png,0.37,1.2,37,0.25,,,,,,,,,,,,,,,,,,0,6,6,36,1,,,,,,,,,,,,,,,,,,,,,,,
,,,,,SPR24_100,19,female,2024-04-26_10h32.37.283,jersey_experiment_5_v0,2023.2.2,Win32,84.74576271,,,,,,,,,,,,,,,,1033.1669,1034.4608,1034.4608,1037.5434,return,1.9121,,45.703125,,,,,,FBP-PT-71.png,0.4,1.2,48,0.5,,,,,,,,,,,,,,,,,,0,7,7,47,1,,,,,,,,,,,,,,,,,,,,,,,
,,,,,SPR24_100,19,female,2024-04-26_10h32.37.283,jersey_experiment_5_v0,2023.2.2,Win32,84.74576271,,,,,,,,,,,,,,,,1037.5436,1038.5903,1038.5904,1041.0494,return,0.2154,,74.47916667,,,,,,FBP-OG-18.png,0.45,1.2,10,0.25,,,,,,,,,,,,,,,,,,0,8,8,9,1,,,,,,,,,,,,,,,,,,,,,,,
,,,,,SPR24_100,19,female,2024-04-26_10h32.37.283,jersey_experiment_5_v0,2023.2.2,Win32,84.74576271,,,,,,,,,,,,,,,,1041.0496,1042.3433,1042.3434,1044.4728,return,0.3445,,37.5,,,,,,FBP-YG-71.png,0.35,1.2,16,0.5,,,,,,,,,,,,,,,,,,0,9,9,15,1,,,,,,,,,,,,,,,,,,,,,,,
,,,,,SPR24_100,19,female,2024-04-26_10h32.37.283,jersey_experiment_5_v0,2023.2.2,Win32,84.74576271,,,,,,,,,,,,,,,,1044.4731,1045.52,1045.5201,1051.5908,return,2.0909,,78.90625,,,,,,FBP-RB-91.png,0.45,1.2,45,0.25,,,,,,,,,,,,,,,,,,0,10,10,44,1,,,,,,,,,,,,,,,,,,,,,,,
,,,,,SPR24_100,19,female,2024-04-26_10h32.37.283,jersey_experiment_5_v0,2023.2.2,Win32,84.74576271,,,,,,,,,,,,,,,,1051.591,1052.638,1052.638,1054.5909,return,0.1036,,56.90104167,,,,,,FBP-RB-71.png,0.43,1.2,34,0.25,,,,,,,,,,,,,,,,,,0,11,11,33,1,,,,,,,,,,,,,,,,,,,,,,,
,,,,,SPR24_100,19,female,2024-04-26_10h32.37.283,jersey_experiment_5_v0,2023.2.2,Win32,84.74576271,,,,,,,,,,,,,,,,1054.5911,1055.8852,1055.8852,1058.7912,return,0.1844,,47.265625,,,,,,FBP-YG-71.png,0.4,1.2,18,0.5,,,,,,,,,,,,,,,,,,0,12,12,17,1,,,,,,,,,,,,,,,,,,,,,,,
,,,,,SPR24_100,19,female,2024-04-26_10h32.37.283,jersey_experiment_5_v0,2023.2.2,Win32,84.74576271,,,,,,,,,,,,,,,,1058.7913,1059.8382,1059.8382,1062.0383,return,0.1147,,37.63020833,,,,,,FBP-RB-91.png,0.37,1.2,42,0.25,,,,,,,,,,,,,,,,,,0,13,13,41,1,,,,,,,,,,,,,,,,,,,,,,,
,,,,,SPR24_100,19,female,2024-04-26_10h32.37.283,jersey_experiment_5_v0,2023.2.2,Win32,84.74576271,,,,,,,,,,,,,,,,1062.0385,1063.0854,1063.0854,1065.0854,return,0.1054,,29.42708333,,,,,,FBP-OG-18.png,0.35,1.2,6,0.25,,,,,,,,,,,,,,,,,,0,14,14,5,1,,,,,,,,,,,,,,,,,,,,,,,
,,,,,SPR24_100,19,female,2024-04-26_10h32.37.283,jersey_experiment_5_v0,2023.2.2,Win32,84.74576271,,,,,,,,,,,,,,,,1065.0856,1066.3795,1066.3796,1068.1091,return,0.1794,,49.86979167,,,,,,FBP-YG-91.png,0.43,1.2,29,0.5,,,,,,,,,,,,,,,,,,0,15,15,28,1,,,,,,,,,,,,,,,,,,,,,,,
,,,,,SPR24_100,19,female,2024-04-26_10h32.37.283,jersey_experiment_5_v0,2023.2.2,Win32,84.74576271,,,,,,,,,,,,,,,,1068.1094,1069.4032,1069.4033,1071.0622,return,0.2914,,52.99479167,,,,,,FBP-YG-81.png,0.43,1.2,24,0.5,,,,,,,,,,,,,,,,,,0,16,16,23,1,,,,,,,,,,,,,,,,,,,,,,,
,,,,,SPR24_100,19,female,2024-04-26_10h32.37.283,jersey_experiment_5_v0,2023.2.2,Win32,84.74576271,,,,,,,,,,,,,,,,1071.0625,1072.1093,1072.1093,1073.9329,return,0.0826,,47.00520833,,,,,,FBP-OG-17.png,0.4,1.2,3,0.25,,,,,,,,,,,,,,,,,,0,17,17,2,1,,,,,,,,,,,,,,,,,,,,,,,
,,,,,SPR24_100,19,female,2024-04-26_10h32.37.283,jersey_experiment_5_v0,2023.2.2,Win32,84.74576271,,,,,,,,,,,,,,,,1073.9331,1075.2271,1075.2271,1077.8625,return,0.1499,,62.890625,,,,,,FBP-PT-91.png,0.45,1.2,60,0.5,,,,,,,,,,,,,,,,,,0,18,18,59,1,,,,,,,,,,,,,,,,,,,,,,,
,,,,,SPR24_100,19,female,2024-04-26_10h32.37.283,jersey_experiment_5_v0,2023.2.2,Win32,84.74576271,,,,,,,,,,,,,,,,1077.8627,1079.1565,1079.1566,1090.6628,return,8.2207,,36.97916667,,,,,,FBP-PT-81.png,0.37,1.2,52,0.5,,,,,,,,,,,,,,,,,,0,19,19,51,1,,,,,,,,,,,,,,,,,,,,,,,
,,,,,SPR24_100,19,female,2024-04-26_10h32.37.283,jersey_experiment_5_v0,2023.2.2,Win32,84.74576271,,,,,,,,,,,,,,,,1090.6675,1091.9688,1091.9688,1093.5806,return,0.0499,,42.578125,,,,,,FBP-PT-81.png,0.4,1.2,53,0.5,,,,,,,,,,,,,,,,,,0,20,20,52,1,,,,,,,,,,,,,,,,,,,,,,,
,,,,,SPR24_100,19,female,2024-04-26_10h32.37.283,jersey_experiment_5_v0,2023.2.2,Win32,84.74576271,,,,,,,,,,,,,,,,1093.5808,1094.8747,1094.8748,1104.122,return,7.6054,,49.86979167,,,,,,FBP-PT-81.png,0.45,1.2,55,0.5,,,,,,,,,,,,,,,,,,0,21,21,54,1,,,,,,,,,,,,,,,,,,,,,,,
,,,,,SPR24_100,19,female,2024-04-26_10h32.37.283,jersey_experiment_5_v0,2023.2.2,Win32,84.74576271,,,,,,,,,,,,,,,,1104.1264,1105.4281,1105.4281,1107.134,return,0.1989,,37.23958333,,,,,,FBP-PT-91.png,0.37,1.2,57,0.5,,,,,,,,,,,,,,,,,,0,22,22,56,1,,,,,,,,,,,,,,,,,,,,,,,
,,,,,SPR24_100,19,female,2024-04-26_10h32.37.283,jersey_experiment_5_v0,2023.2.2,Win32,84.74576271,,,,,,,,,,,,,,,,1107.1342,1108.1811,1108.1811,1110.9223,return,0.9785,,55.33854167,,,,,,FBP-RB-91.png,0.43,1.2,44,0.25,,,,,,,,,,,,,,,,,,0,23,23,43,1,,,,,,,,,,,,,,,,,,,,,,,
,,,,,SPR24_100,19,female,2024-04-26_10h32.37.283,jersey_experiment_5_v0,2023.2.2,Win32,84.74576271,,,,,,,,,,,,,,,,1110.9225,1112.2164,1112.2164,1115.5814,return,0.1429,,40.88541667,,,,,,FBP-PT-91.png,0.4,1.2,58,0.5,,,,,,,,,,,,,,,,,,0,24,24,57,1,,,,,,,,,,,,,,,,,,,,,,,
,,,,,SPR24_100,19,female,2024-04-26_10h32.37.283,jersey_experiment_5_v0,2023.2.2,Win32,84.74576271,,,,,,,,,,,,,,,,1115.5817,1116.6284,1116.6285,1118.3343,return,0.3062,,25.13020833,,,,,,FBP-OG-19.png,0.35,1.2,11,0.25,,,,,,,,,,,,,,,,,,0,25,25,10,1,,,,,,,,,,,,,,,,,,,,,,,
,,,,,SPR24_100,19,female,2024-04-26_10h32.37.283,jersey_experiment_5_v0,2023.2.2,Win32,84.74576271,,,,,,,,,,,,,,,,1118.3346,1119.6286,1119.6286,1121.2639,return,0.1554,,21.09375,,,,,,FBP-YG-81.png,0.35,1.2,21,0.5,,,,,,,,,,,,,,,,,,0,26,26,20,1,,,,,,,,,,,,,,,,,,,,,,,
,,,,,SPR24_100,19,female,2024-04-26_10h32.37.283,jersey_experiment_5_v0,2023.2.2,Win32,84.74576271,,,,,,,,,,,,,,,,1121.2641,1122.311,1122.311,1124.8288,return,0.1302,,43.09895833,,,,,,FBP-RB-71.png,0.37,1.2,32,0.25,,,,,,,,,,,,,,,,,,0,27,27,31,1,,,,,,,,,,,,,,,,,,,,,,,
,,,,,SPR24_100,19,female,2024-04-26_10h32.37.283,jersey_experiment_5_v0,2023.2.2,Win32,84.74576271,,,,,,,,,,,,,,,,1124.829,1126.1228,1126.1229,1128.6877,return,0.1182,,56.90104167,,,,,,FBP-YG-71.png,0.43,1.2,19,0.5,,,,,,,,,,,,,,,,,,0,28,28,18,1,,,,,,,,,,,,,,,,,,,,,,,
,,,,,SPR24_100,19,female,2024-04-26_10h32.37.283,jersey_experiment_5_v0,2023.2.2,Win32,84.74576271,,,,,,,,,,,,,,,,1128.6879,1129.9818,1129.9819,1131.229,return,0.1294,,49.73958333,,,,,,FBP-PT-91.png,0.43,1.2,59,0.5,,,,,,,,,,,,,,,,,,0,29,29,58,1,,,,,,,,,,,,,,,,,,,,,,,
,,,,,SPR24_100,19,female,2024-04-26_10h32.37.283,jersey_experiment_5_v0,2023.2.2,Win32,84.74576271,,,,,,,,,,,,,,,,1131.2292,1132.2763,1132.2764,1134.1586,return,0.3302,,69.140625,,,,,,FBP-RB-81.png,0.43,1.2,39,0.25,,,,,,,,,,,,,,,,,,0,30,30,38,1,,,,,,,,,,,,,,,,,,,,,,,
,,,,,SPR24_100,19,female,2024-04-26_10h32.37.283,jersey_experiment_5_v0,2023.2.2,Win32,84.74576271,,,,,,,,,,,,,,,,1134.1588,1135.2055,1135.2055,1138.2529,return,0.061,,43.48958333,,,,,,FBP-OG-17.png,0.37,1.2,2,0.25,,,,,,,,,,,,,,,,,,0,31,31,1,1,,,,,,,,,,,,,,,,,,,,,,,
,,,,,SPR24_100,19,female,2024-04-26_10h32.37.283,jersey_experiment_5_v0,2023.2.2,Win32,84.74576271,,,,,,,,,,,,,,,,1138.2532,1139.5471,1139.5471,1141.8176,return,0.0994,,55.72916667,,,,,,FBP-PT-71.png,0.43,1.2,49,0.5,,,,,,,,,,,,,,,,,,0,32,32,48,1,,,,,,,,,,,,,,,,,,,,,,,
,,,,,SPR24_100,19,female,2024-04-26_10h32.37.283,jersey_experiment_5_v0,2023.2.2,Win32,84.74576271,,,,,,,,,,,,,,,,1141.8179,1143.1118,1143.1118,1145.1944,return,0.2386,,24.47916667,,,,,,FBP-PT-81.png,0.35,1.2,51,0.5,,,,,,,,,,,,,,,,,,0,33,33,50,1,,,,,,,,,,,,,,,,,,,,,,,
,,,,,SPR24_100,19,female,2024-04-26_10h32.37.283,jersey_experiment_5_v0,2023.2.2,Win32,84.74576271,,,,,,,,,,,,,,,,1145.1947,1146.4884,1146.4884,1147.5355,return,0.1646,,25.26041667,,,,,,FBP-PT-71.png,0.35,1.2,46,0.5,,,,,,,,,,,,,,,,,,0,34,34,45,1,,,,,,,,,,,,,,,,,,,,,,,
,,,,,SPR24_100,19,female,2024-04-26_10h32.37.283,jersey_experiment_5_v0,2023.2.2,Win32,84.74576271,,,,,,,,,,,,,,,,1147.5358,1148.8296,1148.8296,1151.1003,return,0.2835,,63.15104167,,,,,,FBP-YG-81.png,0.45,1.2,25,0.5,,,,,,,,,,,,,,,,,,0,35,35,24,1,,,,,,,,,,,,,,,,,,,,,,,
,,,,,SPR24_100,19,female,2024-04-26_10h32.37.283,jersey_experiment_5_v0,2023.2.2,Win32,84.74576271,,,,,,,,,,,,,,,,1151.1005,1152.1474,1152.1474,1154.1357,return,0.1705,,70.83333333,,,,,,FBP-RB-71.png,0.45,1.2,35,0.25,,,,,,,,,,,,,,,,,,0,36,36,34,1,,,,,,,,,,,,,,,,,,,,,,,
,,,,,SPR24_100,19,female,2024-04-26_10h32.37.283,jersey_experiment_5_v0,2023.2.2,Win32,84.74576271,,,,,,,,,,,,,,,,1154.1359,1155.1828,1155.1828,1157.7829,return,0.336,,56.38020833,,,,,,FBP-OG-19.png,0.43,1.2,14,0.25,,,,,,,,,,,,,,,,,,0,37,37,13,1,,,,,,,,,,,,,,,,,,,,,,,
,,,,,SPR24_100,19,female,2024-04-26_10h32.37.283,jersey_experiment_5_v0,2023.2.2,Win32,84.74576271,,,,,,,,,,,,,,,,1157.7831,1158.8298,1158.8299,1161.5125,return,0.0635,,44.01041667,,,,,,FBP-OG-18.png,0.37,1.2,7,0.25,,,,,,,,,,,,,,,,,,0,38,38,6,1,,,,,,,,,,,,,,,,,,,,,,,
,,,,,SPR24_100,19,female,2024-04-26_10h32.37.283,jersey_experiment_5_v0,2023.2.2,Win32,84.74576271,,,,,,,,,,,,,,,,1161.5126,1162.5595,1162.5596,1165.983,return,0.6679,,34.63541667,,,,,,FBP-RB-81.png,0.35,1.2,36,0.25,,,,,,,,,,,,,,,,,,0,39,39,35,1,,,,,,,,,,,,,,,,,,,,,,,
,,,,,SPR24_100,19,female,2024-04-26_10h32.37.283,jersey_experiment_5_v0,2023.2.2,Win32,84.74576271,,,,,,,,,,,,,,,,1165.9831,1167.2774,1167.2775,1168.6188,return,0.0749,,24.86979167,,,,,,FBP-YG-91.png,0.35,1.2,26,0.5,,,,,,,,,,,,,,,,,,0,40,40,25,1,,,,,,,,,,,,,,,,,,,,,,,
,,,,,SPR24_100,19,female,2024-04-26_10h32.37.283,jersey_experiment_5_v0,2023.2.2,Win32,84.74576271,,,,,,,,,,,,,,,,1168.619,1169.6657,1169.6658,1172.8893,return,0.3001,,62.36979167,,,,,,FBP-OG-18.png,0.43,1.2,9,0.25,,,,,,,,,,,,,,,,,,0,41,41,8,1,,,,,,,,,,,,,,,,,,,,,,,
,,,,,SPR24_100,19,female,2024-04-26_10h32.37.283,jersey_experiment_5_v0,2023.2.2,Win32,84.74576271,,,,,,,,,,,,,,,,1172.8895,1173.9363,1173.9363,1191.0194,return,14.0134,,44.40104167,,,,,,FBP-RB-71.png,0.35,1.2,31,0.25,,,,,,,,,,,,,,,,,,0,42,42,30,1,,,,,,,,,,,,,,,,,,,,,,,
,,,,,SPR24_100,19,female,2024-04-26_10h32.37.283,jersey_experiment_5_v0,2023.2.2,Win32,84.74576271,,,,,,,,,,,,,,,,1191.024,1192.3253,1192.3253,1193.7724,return,0.1069,,57.8125,,,,,,FBP-YG-81.png,0.4,1.2,23,0.5,,,,,,,,,,,,,,,,,,0,43,43,22,1,,,,,,,,,,,,,,,,,,,,,,,
,,,,,SPR24_100,19,female,2024-04-26_10h32.37.283,jersey_experiment_5_v0,2023.2.2,Win32,84.74576271,,,,,,,,,,,,,,,,1193.7725,1194.8195,1194.8195,1196.2194,return,0.0364,,52.734375,,,,,,FBP-RB-81.png,0.4,1.2,38,0.25,,,,,,,,,,,,,,,,,,0,44,44,37,1,,,,,,,,,,,,,,,,,,,,,,,
,,,,,SPR24_100,19,female,2024-04-26_10h32.37.283,jersey_experiment_5_v0,2023.2.2,Win32,84.74576271,,,,,,,,,,,,,,,,1196.2197,1197.2666,1197.2667,1199.8196,return,0.8591,,69.40104167,,,,,,FBP-OG-17.png,0.45,1.2,5,0.25,,,,,,,,,,,,,,,,,,0,45,45,4,1,,,,,,,,,,,,,,,,,,,,,,,
,,,,,SPR24_100,19,female,2024-04-26_10h32.37.283,jersey_experiment_5_v0,2023.2.2,Win32,84.74576271,,,,,,,,,,,,,,,,1199.8198,1200.8668,1200.8668,1252.0922,return,45.6162,,44.140625,,,,,,FBP-OG-17.png,0.35,1.2,1,0.25,,,,,,,,,,,,,,,,,,0,46,46,0,1,,,,,,,,,,,,,,,,,,,,,,,
,,,,,SPR24_100,19,female,2024-04-26_10h32.37.283,jersey_experiment_5_v0,2023.2.2,Win32,84.74576271,,,,,,,,,,,,,,,,1252.0966,1253.1393,1253.1393,1259.1277,return,0.5465,,44.27083333,,,,,,FBP-RB-91.png,0.4,1.2,43,0.25,,,,,,,,,,,,,,,,,,0,47,47,42,1,,,,,,,,,,,,,,,,,,,,,,,
,,,,,SPR24_100,19,female,2024-04-26_10h32.37.283,jersey_experiment_5_v0,2023.2.2,Win32,84.74576271,,,,,,,,,,,,,,,,1259.1278,1260.1746,1260.1747,1261.5983,return,0.0845,,63.15104167,,,,,,FBP-RB-81.png,0.45,1.2,40,0.25,,,,,,,,,,,,,,,,,,0,48,48,39,1,,,,,,,,,,,,,,,,,,,,,,,
,,,,,SPR24_100,19,female,2024-04-26_10h32.37.283,jersey_experiment_5_v0,2023.2.2,Win32,84.74576271,,,,,,,,,,,,,,,,1261.5985,1262.8925,1262.8925,1264.0219,return,0.0542,,54.296875,,,,,,FBP-PT-81.png,0.43,1.2,54,0.5,,,,,,,,,,,,,,,,,,0,49,49,53,1,,,,,,,,,,,,,,,,,,,,,,,
,,,,,SPR24_100,19,female,2024-04-26_10h32.37.283,jersey_experiment_5_v0,2023.2.2,Win32,84.74576271,,,,,,,,,,,,,,,,1264.0222,1265.3161,1265.3162,1267.2103,return,0.2029,,40.234375,,,,,,FBP-YG-81.png,0.37,1.2,22,0.5,,,,,,,,,,,,,,,,,,0,50,50,21,1,,,,,,,,,,,,,,,,,,,,,,,
,,,,,SPR24_100,19,female,2024-04-26_10h32.37.283,jersey_experiment_5_v0,2023.2.2,Win32,84.74576271,,,,,,,,,,,,,,,,1267.2105,1268.5044,1268.5045,1270.528,return,0.1178,,63.28125,,,,,,FBP-PT-71.png,0.45,1.2,50,0.5,,,,,,,,,,,,,,,,,,0,51,51,49,1,,,,,,,,,,,,,,,,,,,,,,,
,,,,,SPR24_100,19,female,2024-04-26_10h32.37.283,jersey_experiment_5_v0,2023.2.2,Win32,84.74576271,,,,,,,,,,,,,,,,1270.5282,1271.575,1271.5752,1273.2222,return,0.1715,,70.703125,,,,,,FBP-OG-19.png,0.45,1.2,15,0.25,,,,,,,,,,,,,,,,,,0,52,52,14,1,,,,,,,,,,,,,,,,,,,,,,,
,,,,,SPR24_100,19,female,2024-04-26_10h32.37.283,jersey_experiment_5_v0,2023.2.2,Win32,84.74576271,,,,,,,,,,,,,,,,1273.2224,1274.2693,1274.2693,1276.3989,return,0.1083,,46.61458333,,,,,,FBP-OG-18.png,0.4,1.2,8,0.25,,,,,,,,,,,,,,,,,,0,53,53,7,1,,,,,,,,,,,,,,,,,,,,,,,
,,,,,SPR24_100,19,female,2024-04-26_10h32.37.283,jersey_experiment_5_v0,2023.2.2,Win32,84.74576271,,,,,,,,,,,,,,,,1276.3992,1277.693,1277.693,1279.2811,return,0.2449,,57.8125,,,,,,FBP-YG-91.png,0.45,1.2,30,0.5,,,,,,,,,,,,,,,,,,0,54,54,29,1,,,,,,,,,,,,,,,,,,,,,,,
,,,,,SPR24_100,19,female,2024-04-26_10h32.37.283,jersey_experiment_5_v0,2023.2.2,Win32,84.74576271,,,,,,,,,,,,,,,,1279.2814,1280.5754,1280.5754,1283.3285,return,0.1882,,43.48958333,,,,,,FBP-YG-91.png,0.4,1.2,28,0.5,,,,,,,,,,,,,,,,,,0,55,55,27,1,,,,,,,,,,,,,,,,,,,,,,,
,,,,,SPR24_100,19,female,2024-04-26_10h32.37.283,jersey_experiment_5_v0,2023.2.2,Win32,84.74576271,,,,,,,,,,,,,,,,1283.3286,1284.3757,1284.3757,1285.9168,return,0.2237,,36.97916667,,,,,,FBP-OG-19.png,0.37,1.2,12,0.25,,,,,,,,,,,,,,,,,,0,56,56,11,1,,,,,,,,,,,,,,,,,,,,,,,
,,,,,SPR24_100,19,female,2024-04-26_10h32.37.283,jersey_experiment_5_v0,2023.2.2,Win32,84.74576271,,,,,,,,,,,,,,,,1285.917,1286.9638,1286.9639,1288.7993,return,0.1783,,46.875,,,,,,FBP-OG-19.png,0.4,1.2,13,0.25,,,,,,,,,,,,,,,,,,0,57,57,12,1,,,,,,,,,,,,,,,,,,,,,,,
,,,,,SPR24_100,19,female,2024-04-26_10h32.37.283,jersey_experiment_5_v0,2023.2.2,Win32,84.74576271,,,,,,,,,,,,,,,,1288.7995,1290.0935,1290.0935,1291.4463,return,0.1026,,42.1875,,,,,,FBP-YG-91.png,0.37,1.2,27,0.5,,,,,,,,,,,,,,,,,,0,58,58,26,1,,,,,,,,,,,,,,,,,,,,,,,
,,,,,SPR24_100,19,female,2024-04-26_10h32.37.283,jersey_experiment_5_v0,2023.2.2,Win32,84.74576271,,,,,,,,,,,,,,,,1291.4466,1292.4935,1292.4935,1294.9997,return,0.0643,,47.00520833,,,,,,FBP-RB-71.png,0.4,1.2,33,0.25,,,,,,,,,,,,,,,,,,0,59,59,32,1,,,,,,,,,,,,,,,,,,,,,,,
,,,,,SPR24_100,19,female,2024-04-26_10h32.37.283,jersey_experiment_5_v0,2023.2.2,Win32,84.74576271,,,,,,,,,,,,,,,,,,,,,,,,,,,,,,,,,,,,,,,,,,,,,,,,,,,,,,,,1295,1299.7413,return,4.7284,,,,,,,,,,,,,,,,,,,
,,,,,SPR24_100,19,female,2024-04-26_10h32.37.283,jersey_experiment_5_v0,2023.2.2,Win32,84.74576271,,,,,,,,,,,,,,,,,,,,,,,,,,,,,,,,,,,,,,,,,,,,,,,,,,,,,,,,,,,,,1299.7414,1305.9646,1,4.9877,return,1.2118,,,,,,,,,,,,
,,,,,SPR24_100,19,female,2024-04-26_10h32.37.283,jersey_experiment_5_v0,2023.2.2,Win32,84.74576271,,,,,,,,,,,,,,,,,,,,,,,,,,,,,,,,,,,,,,,,,,,,,,,,,,,,,,,,,,,,,,,,,,,,1305.9647,1377.6306,Nope!,right,43.3187,,,,,,
,,,,,SPR24_100,19,female,2024-04-26_10h32.37.283,jersey_experiment_5_v0,2023.2.2,Win32,84.74576271,,,,,,,,,,,,,,,,,,,,,,,,,,,,,,,,,,,,,,,,,,,,,,,,,,,,,,,,,,,,,,,,,,,,,,,,,,1377.6306,1382.6379,return,4.9969,