requirements.started,requirements.stopped,key_resp_3.keys,key_resp_3.rt,key_resp_3.duration,Subject ID,Age,Gender,date,expName,psychopyVersion,OS,frameRate,instructions1.started,instructions1.stopped,key_resp.keys,key_resp.rt,key_resp.duration,example.started,example.stopped,enter_2.keys,enter_2.rt,enter_2.duration,instructions2.started,instructions2.stopped,enter_3.keys,enter_3.rt,enter_3.duration,image.started,image.stopped,slider_2.started,slider_2.stopped,next.keys,next.rt,next.duration,slider.response,trial_block_1.thisRepN,trial_block_1.thisTrialN,trial_block_1.thisN,trial_block_1.thisIndex,trial_block_1.ran,Path,Width,Height,Index,Duration,trial_block_2.thisRepN,trial_block_2.thisTrialN,trial_block_2.thisN,trial_block_2.thisIndex,trial_block_2.ran,rest_break.started,rest_break.stopped,end_break.started,end_break.stopped,key_resp_5.keys,key_resp_5.rt,key_resp_5.duration,trial_block_3.thisRepN,trial_block_3.thisTrialN,trial_block_3.thisN,trial_block_3.thisIndex,trial_block_3.ran,trial_block_4.thisRepN,trial_block_4.thisTrialN,trial_block_4.thisN,trial_block_4.thisIndex,trial_block_4.ran,questions_intro.started,questions_intro.stopped,enter_12.keys,enter_12.rt,enter_12.duration,question2.started,question2.stopped,question_doingbest.response,question_doingbest.rt,enter_15.keys,enter_15.rt,enter_15.duration,pattern.started,pattern.stopped,pattern_2.text,enter_17.keys,enter_17.rt,enter_17.duration,thankyou.started,thankyou.stopped,enter_14.keys,enter_14.rt,enter_14.duration
0.0002,11.5099,return,11.5051,,SPR24_085,21,female,2024-04-24_09h26.22.594,jersey_experiment_5_v0,2023.2.2,Win32,85.47008547,,,,,,,,,,,,,,,,,,,,,,,,,,,,,,,,,,,,,,,,,,,,,,,,,,,,,,,,,,,,,,,,,,,,,,,,,,,,,,
,,,,,SPR24_085,21,female,2024-04-24_09h26.22.594,jersey_experiment_5_v0,2023.2.2,Win32,85.47008547,11.5101,20.3365,return,8.8176,,,,,,,,,,,,,,,,,,,,,,,,,,,,,,,,,,,,,,,,,,,,,,,,,,,,,,,,,,,,,,,,,,,,,,,,,,
,,,,,SPR24_085,21,female,2024-04-24_09h26.22.594,jersey_experiment_5_v0,2023.2.2,Win32,85.47008547,,,,,,20.3365,29.4898,return,9.1163,,,,,,,,,,,,,,,,,,,,,,,,,,,,,,,,,,,,,,,,,,,,,,,,,,,,,,,,,,,,,,,,,,,,,
,,,,,SPR24_085,21,female,2024-04-24_09h26.22.594,jersey_experiment_5_v0,2023.2.2,Win32,85.47008547,,,,,,,,,,,29.4899,50.467,return,20.9672,,,,,,,,,,,,,,,,,,,,,,,,,,,,,,,,,,,,,,,,,,,,,,,,,,,,,,,,,,,,,,,,
,,,,,SPR24_085,21,female,2024-04-24_09h26.22.594,jersey_experiment_5_v0,2023.2.2,Win32,85.47008547,,,,,,,,,,,,,,,,50.4741,51.7727,51.7729,59.479,return,1.7505,,59.375,0,0,0,37,1,FBP-RB-18.png,0.4,1.2,38,0.5,,,,,,,,,,,,,,,,,,,,,,,,,,,,,,,,,,,,,,,,,,,,,
,,,,,SPR24_085,21,female,2024-04-24_09h26.22.594,jersey_experiment_5_v0,2023.2.2,Win32,85.47008547,,,,,,,,,,,,,,,,59.4793,60.526,60.526,65.7496,return,2.2122,,74.73958333,0,1,1,48,1,FBP-PT-17.png,0.43,1.2,49,0.25,,,,,,,,,,,,,,,,,,,,,,,,,,,,,,,,,,,,,,,,,,,,,
,,,,,SPR24_085,21,female,2024-04-24_09h26.22.594,jersey_experiment_5_v0,2023.2.2,Win32,85.47008547,,,,,,,,,,,,,,,,65.7499,66.7967,66.7968,68.7027,return,0.69,,84.89583333,0,2,2,23,1,FBP-YG-18.png,0.43,1.2,24,0.25,,,,,,,,,,,,,,,,,,,,,,,,,,,,,,,,,,,,,,,,,,,,,
,,,,,SPR24_085,21,female,2024-04-24_09h26.22.594,jersey_experiment_5_v0,2023.2.2,Win32,85.47008547,,,,,,,,,,,,,,,,68.7029,69.7497,69.7498,73.0556,return,0.8065,,28.125,0,3,3,55,1,FBP-PT-19.png,0.35,1.2,56,0.25,,,,,,,,,,,,,,,,,,,,,,,,,,,,,,,,,,,,,,,,,,,,,
,,,,,SPR24_085,21,female,2024-04-24_09h26.22.594,jersey_experiment_5_v0,2023.2.2,Win32,85.47008547,,,,,,,,,,,,,,,,73.0559,74.3498,74.3498,77.7265,return,0.8533,,73.828125,0,4,4,12,1,FBP-OG-91.png,0.4,1.2,13,0.5,,,,,,,,,,,,,,,,,,,,,,,,,,,,,,,,,,,,,,,,,,,,,
,,,,,SPR24_085,21,female,2024-04-24_09h26.22.594,jersey_experiment_5_v0,2023.2.2,Win32,85.47008547,,,,,,,,,,,,,,,,77.7267,79.0236,79.0236,81.6592,return,0.8005,,69.140625,0,5,5,10,1,FBP-OG-91.png,0.35,1.2,11,0.5,,,,,,,,,,,,,,,,,,,,,,,,,,,,,,,,,,,,,,,,,,,,,
,,,,,SPR24_085,21,female,2024-04-24_09h26.22.594,jersey_experiment_5_v0,2023.2.2,Win32,85.47008547,,,,,,,,,,,,,,,,81.6594,82.9532,82.9532,86.2135,return,0.871,,99.73958333,0,6,6,9,1,FBP-OG-81.png,0.45,1.2,10,0.5,,,,,,,,,,,,,,,,,,,,,,,,,,,,,,,,,,,,,,,,,,,,,
,,,,,SPR24_085,21,female,2024-04-24_09h26.22.594,jersey_experiment_5_v0,2023.2.2,Win32,85.47008547,,,,,,,,,,,,,,,,86.2136,87.5074,87.5074,90.4255,return,0.6592,,32.03125,0,7,7,5,1,FBP-OG-81.png,0.35,1.2,6,0.5,,,,,,,,,,,,,,,,,,,,,,,,,,,,,,,,,,,,,,,,,,,,,
,,,,,SPR24_085,21,female,2024-04-24_09h26.22.594,jersey_experiment_5_v0,2023.2.2,Win32,85.47008547,,,,,,,,,,,,,,,,90.4256,91.7193,91.7193,94.3652,return,0.6351,,57.29166667,0,8,8,1,1,FBP-OG-71.png,0.37,1.2,2,0.5,,,,,,,,,,,,,,,,,,,,,,,,,,,,,,,,,,,,,,,,,,,,,
,,,,,SPR24_085,21,female,2024-04-24_09h26.22.594,jersey_experiment_5_v0,2023.2.2,Win32,85.47008547,,,,,,,,,,,,,,,,94.3654,95.6595,95.6596,98.0329,return,1.0152,,99.609375,0,9,9,14,1,FBP-OG-91.png,0.45,1.2,15,0.5,,,,,,,,,,,,,,,,,,,,,,,,,,,,,,,,,,,,,,,,,,,,,
,,,,,SPR24_085,21,female,2024-04-24_09h26.22.594,jersey_experiment_5_v0,2023.2.2,Win32,85.47008547,,,,,,,,,,,,,,,,98.0332,99.0801,99.0802,101.3205,return,0.5785,,97.78645833,0,10,10,28,1,FBP-YG-19.png,0.43,1.2,29,0.25,,,,,,,,,,,,,,,,,,,,,,,,,,,,,,,,,,,,,,,,,,,,,
,,,,,SPR24_085,21,female,2024-04-24_09h26.22.594,jersey_experiment_5_v0,2023.2.2,Win32,85.47008547,,,,,,,,,,,,,,,,101.3208,102.6215,102.6215,104.5627,return,0.7798,,98.56770833,0,11,11,34,1,FBP-RB-17.png,0.45,1.2,35,0.5,,,,,,,,,,,,,,,,,,,,,,,,,,,,,,,,,,,,,,,,,,,,,
,,,,,SPR24_085,21,female,2024-04-24_09h26.22.594,jersey_experiment_5_v0,2023.2.2,Win32,85.47008547,,,,,,,,,,,,,,,,104.563,105.8569,105.8569,108.379,return,0.6487,,9.765625,0,12,12,0,1,FBP-OG-71.png,0.35,1.2,1,0.5,,,,,,,,,,,,,,,,,,,,,,,,,,,,,,,,,,,,,,,,,,,,,
,,,,,SPR24_085,21,female,2024-04-24_09h26.22.594,jersey_experiment_5_v0,2023.2.2,Win32,85.47008547,,,,,,,,,,,,,,,,108.3791,109.4247,109.4247,111.3512,return,0.542,,92.96875,0,13,13,54,1,FBP-PT-18.png,0.45,1.2,55,0.25,,,,,,,,,,,,,,,,,,,,,,,,,,,,,,,,,,,,,,,,,,,,,
,,,,,SPR24_085,21,female,2024-04-24_09h26.22.594,jersey_experiment_5_v0,2023.2.2,Win32,85.47008547,,,,,,,,,,,,,,,,111.3513,112.6453,112.6454,114.3567,return,0.6027,,93.88020833,0,14,14,44,1,FBP-RB-19.png,0.45,1.2,45,0.5,,,,,,,,,,,,,,,,,,,,,,,,,,,,,,,,,,,,,,,,,,,,,
,,,,,SPR24_085,21,female,2024-04-24_09h26.22.594,jersey_experiment_5_v0,2023.2.2,Win32,85.47008547,,,,,,,,,,,,,,,,114.3568,115.3983,115.3984,118.1632,return,1.3206,,97.91666667,0,15,15,59,1,FBP-PT-19.png,0.45,1.2,60,0.25,,,,,,,,,,,,,,,,,,,,,,,,,,,,,,,,,,,,,,,,,,,,,
,,,,,SPR24_085,21,female,2024-04-24_09h26.22.594,jersey_experiment_5_v0,2023.2.2,Win32,85.47008547,,,,,,,,,,,,,,,,118.1634,119.2102,119.2103,121.909,return,0.6488,,90.49479167,0,16,16,24,1,FBP-YG-18.png,0.45,1.2,25,0.25,,,,,,,,,,,,,,,,,,,,,,,,,,,,,,,,,,,,,,,,,,,,,
,,,,,SPR24_085,21,female,2024-04-24_09h26.22.594,jersey_experiment_5_v0,2023.2.2,Win32,85.47008547,,,,,,,,,,,,,,,,121.9091,122.9516,122.9517,125.2694,return,0.7418,,28.90625,0,17,17,52,1,FBP-PT-18.png,0.4,1.2,53,0.25,,,,,,,,,,,,,,,,,,,,,,,,,,,,,,,,,,,,,,,,,,,,,
,,,,,SPR24_085,21,female,2024-04-24_09h26.22.594,jersey_experiment_5_v0,2023.2.2,Win32,85.47008547,,,,,,,,,,,,,,,,125.2696,126.5636,126.5636,128.9212,return,1.1432,,25,0,18,18,42,1,FBP-RB-19.png,0.4,1.2,43,0.5,,,,,,,,,,,,,,,,,,,,,,,,,,,,,,,,,,,,,,,,,,,,,
,,,,,SPR24_085,21,female,2024-04-24_09h26.22.594,jersey_experiment_5_v0,2023.2.2,Win32,85.47008547,,,,,,,,,,,,,,,,128.9214,129.9637,129.9637,132.2493,return,0.824,,28.90625,0,19,19,25,1,FBP-YG-19.png,0.35,1.2,26,0.25,,,,,,,,,,,,,,,,,,,,,,,,,,,,,,,,,,,,,,,,,,,,,
,,,,,SPR24_085,21,female,2024-04-24_09h26.22.594,jersey_experiment_5_v0,2023.2.2,Win32,85.47008547,,,,,,,,,,,,,,,,132.2494,133.2974,133.2974,135.5873,return,0.6733,,56.25,0,20,20,26,1,FBP-YG-19.png,0.37,1.2,27,0.25,,,,,,,,,,,,,,,,,,,,,,,,,,,,,,,,,,,,,,,,,,,,,
,,,,,SPR24_085,21,female,2024-04-24_09h26.22.594,jersey_experiment_5_v0,2023.2.2,Win32,85.47008547,,,,,,,,,,,,,,,,135.5876,136.8815,136.8815,140.7523,return,0.7825,,0.78125,0,21,21,40,1,FBP-RB-19.png,0.35,1.2,41,0.5,,,,,,,,,,,,,,,,,,,,,,,,,,,,,,,,,,,,,,,,,,,,,
,,,,,SPR24_085,21,female,2024-04-24_09h26.22.594,jersey_experiment_5_v0,2023.2.2,Win32,85.47008547,,,,,,,,,,,,,,,,140.7525,142.0464,142.0465,144.4977,return,1.2836,,87.890625,0,22,22,3,1,FBP-OG-71.png,0.43,1.2,4,0.5,,,,,,,,,,,,,,,,,,,,,,,,,,,,,,,,,,,,,,,,,,,,,
,,,,,SPR24_085,21,female,2024-04-24_09h26.22.594,jersey_experiment_5_v0,2023.2.2,Win32,85.47008547,,,,,,,,,,,,,,,,144.4979,145.7914,145.7914,147.5569,return,0.6121,,63.15104167,0,23,23,36,1,FBP-RB-18.png,0.37,1.2,37,0.5,,,,,,,,,,,,,,,,,,,,,,,,,,,,,,,,,,,,,,,,,,,,,
,,,,,SPR24_085,21,female,2024-04-24_09h26.22.594,jersey_experiment_5_v0,2023.2.2,Win32,85.47008547,,,,,,,,,,,,,,,,147.5572,148.5995,148.5996,150.451,return,0.7192,,74.609375,0,24,24,17,1,FBP-YG-17.png,0.4,1.2,18,0.25,,,,,,,,,,,,,,,,,,,,,,,,,,,,,,,,,,,,,,,,,,,,,
,,,,,SPR24_085,21,female,2024-04-24_09h26.22.594,jersey_experiment_5_v0,2023.2.2,Win32,85.47008547,,,,,,,,,,,,,,,,150.4512,151.7524,151.7525,155.1913,return,0.6357,,36.97916667,0,25,25,31,1,FBP-RB-17.png,0.37,1.2,32,0.5,,,,,,,,,,,,,,,,,,,,,,,,,,,,,,,,,,,,,,,,,,,,,
,,,,,SPR24_085,21,female,2024-04-24_09h26.22.594,jersey_experiment_5_v0,2023.2.2,Win32,85.47008547,,,,,,,,,,,,,,,,155.1914,156.2349,156.235,159.1206,return,0.6697,,5.208333333,0,26,26,56,1,FBP-PT-19.png,0.37,1.2,57,0.25,,,,,,,,,,,,,,,,,,,,,,,,,,,,,,,,,,,,,,,,,,,,,
,,,,,SPR24_085,21,female,2024-04-24_09h26.22.594,jersey_experiment_5_v0,2023.2.2,Win32,85.47008547,,,,,,,,,,,,,,,,159.1208,160.1691,160.1692,162.2032,return,0.6827,,2.083333333,0,27,27,45,1,FBP-PT-17.png,0.35,1.2,46,0.25,,,,,,,,,,,,,,,,,,,,,,,,,,,,,,,,,,,,,,,,,,,,,
,,,,,SPR24_085,21,female,2024-04-24_09h26.22.594,jersey_experiment_5_v0,2023.2.2,Win32,85.47008547,,,,,,,,,,,,,,,,162.2034,163.5059,163.506,165.9766,return,0.8812,,99.86979167,0,28,28,13,1,FBP-OG-91.png,0.43,1.2,14,0.5,,,,,,,,,,,,,,,,,,,,,,,,,,,,,,,,,,,,,,,,,,,,,
,,,,,SPR24_085,21,female,2024-04-24_09h26.22.594,jersey_experiment_5_v0,2023.2.2,Win32,85.47008547,,,,,,,,,,,,,,,,165.9768,167.2708,167.2708,168.8623,return,0.8944,,98.30729167,0,29,29,38,1,FBP-RB-18.png,0.43,1.2,39,0.5,,,,,,,,,,,,,,,,,,,,,,,,,,,,,,,,,,,,,,,,,,,,,
,,,,,SPR24_085,21,female,2024-04-24_09h26.22.594,jersey_experiment_5_v0,2023.2.2,Win32,85.47008547,,,,,,,,,,,,,,,,168.8624,170.165,170.165,172.4757,return,0.7193,,0.520833333,0,30,30,30,1,FBP-RB-17.png,0.35,1.2,31,0.5,,,,,,,,,,,,,,,,,,,,,,,,,,,,,,,,,,,,,,,,,,,,,
,,,,,SPR24_085,21,female,2024-04-24_09h26.22.594,jersey_experiment_5_v0,2023.2.2,Win32,85.47008547,,,,,,,,,,,,,,,,172.4759,173.7799,173.78,176.9803,return,1.9299,,99.73958333,0,31,31,4,1,FBP-OG-71.png,0.45,1.2,5,0.5,,,,,,,,,,,,,,,,,,,,,,,,,,,,,,,,,,,,,,,,,,,,,
,,,,,SPR24_085,21,female,2024-04-24_09h26.22.594,jersey_experiment_5_v0,2023.2.2,Win32,85.47008547,,,,,,,,,,,,,,,,176.9803,178.0281,178.0281,180.3214,return,0.6587,,94.40104167,0,32,32,53,1,FBP-PT-18.png,0.43,1.2,54,0.25,,,,,,,,,,,,,,,,,,,,,,,,,,,,,,,,,,,,,,,,,,,,,
,,,,,SPR24_085,21,female,2024-04-24_09h26.22.594,jersey_experiment_5_v0,2023.2.2,Win32,85.47008547,,,,,,,,,,,,,,,,180.3215,181.3654,181.3654,183.051,return,0.6357,,80.72916667,0,33,33,57,1,FBP-PT-19.png,0.4,1.2,58,0.25,,,,,,,,,,,,,,,,,,,,,,,,,,,,,,,,,,,,,,,,,,,,,
,,,,,SPR24_085,21,female,2024-04-24_09h26.22.594,jersey_experiment_5_v0,2023.2.2,Win32,85.47008547,,,,,,,,,,,,,,,,183.0512,184.0949,184.0949,187.9583,return,2.8602,,50.13020833,0,34,34,47,1,FBP-PT-17.png,0.4,1.2,48,0.25,,,,,,,,,,,,,,,,,,,,,,,,,,,,,,,,,,,,,,,,,,,,,
,,,,,SPR24_085,21,female,2024-04-24_09h26.22.594,jersey_experiment_5_v0,2023.2.2,Win32,85.47008547,,,,,,,,,,,,,,,,187.9586,189.0011,189.0011,191.2523,return,0.8839,,99.21875,0,35,35,49,1,FBP-PT-17.png,0.45,1.2,50,0.25,,,,,,,,,,,,,,,,,,,,,,,,,,,,,,,,,,,,,,,,,,,,,
,,,,,SPR24_085,21,female,2024-04-24_09h26.22.594,jersey_experiment_5_v0,2023.2.2,Win32,85.47008547,,,,,,,,,,,,,,,,191.2525,192.2952,192.2952,193.9929,return,0.2359,,1.041666667,0,36,36,46,1,FBP-PT-17.png,0.37,1.2,47,0.25,,,,,,,,,,,,,,,,,,,,,,,,,,,,,,,,,,,,,,,,,,,,,
,,,,,SPR24_085,21,female,2024-04-24_09h26.22.594,jersey_experiment_5_v0,2023.2.2,Win32,85.47008547,,,,,,,,,,,,,,,,193.993,195.0364,195.0365,196.4759,return,0.1883,,1.302083333,0,37,37,15,1,FBP-YG-17.png,0.35,1.2,16,0.25,,,,,,,,,,,,,,,,,,,,,,,,,,,,,,,,,,,,,,,,,,,,,
,,,,,SPR24_085,21,female,2024-04-24_09h26.22.594,jersey_experiment_5_v0,2023.2.2,Win32,85.47008547,,,,,,,,,,,,,,,,196.476,197.7702,197.7703,199.5543,return,0.2154,,77.86458333,0,38,38,43,1,FBP-RB-19.png,0.43,1.2,44,0.5,,,,,,,,,,,,,,,,,,,,,,,,,,,,,,,,,,,,,,,,,,,,,
,,,,,SPR24_085,21,female,2024-04-24_09h26.22.594,jersey_experiment_5_v0,2023.2.2,Win32,85.47008547,,,,,,,,,,,,,,,,199.5545,200.8486,200.8487,201.9587,return,0.1884,,83.07291667,0,39,39,32,1,FBP-RB-17.png,0.4,1.2,33,0.5,,,,,,,,,,,,,,,,,,,,,,,,,,,,,,,,,,,,,,,,,,,,,
,,,,,SPR24_085,21,female,2024-04-24_09h26.22.594,jersey_experiment_5_v0,2023.2.2,Win32,85.47008547,,,,,,,,,,,,,,,,201.9588,203.0044,203.0045,204.6485,return,0.5886,,83.33333333,0,40,40,22,1,FBP-YG-18.png,0.4,1.2,23,0.25,,,,,,,,,,,,,,,,,,,,,,,,,,,,,,,,,,,,,,,,,,,,,
,,,,,SPR24_085,21,female,2024-04-24_09h26.22.594,jersey_experiment_5_v0,2023.2.2,Win32,85.47008547,,,,,,,,,,,,,,,,204.6486,205.9429,205.9429,206.7459,return,0.2355,,88.02083333,0,41,41,33,1,FBP-RB-17.png,0.43,1.2,34,0.5,,,,,,,,,,,,,,,,,,,,,,,,,,,,,,,,,,,,,,,,,,,,,
,,,,,SPR24_085,21,female,2024-04-24_09h26.22.594,jersey_experiment_5_v0,2023.2.2,Win32,85.47008547,,,,,,,,,,,,,,,,206.7461,207.7898,207.7899,209.5548,return,0.2623,,1.953125,0,42,42,20,1,FBP-YG-18.png,0.35,1.2,21,0.25,,,,,,,,,,,,,,,,,,,,,,,,,,,,,,,,,,,,,,,,,,,,,
,,,,,SPR24_085,21,female,2024-04-24_09h26.22.594,jersey_experiment_5_v0,2023.2.2,Win32,85.47008547,,,,,,,,,,,,,,,,209.555,210.8529,210.853,212.0767,return,0.1545,,79.296875,0,43,43,8,1,FBP-OG-81.png,0.43,1.2,9,0.5,,,,,,,,,,,,,,,,,,,,,,,,,,,,,,,,,,,,,,,,,,,,,
,,,,,SPR24_085,21,female,2024-04-24_09h26.22.594,jersey_experiment_5_v0,2023.2.2,Win32,85.47008547,,,,,,,,,,,,,,,,212.0768,213.1195,213.1195,214.0018,return,0.131,,82.16145833,0,44,44,58,1,FBP-PT-19.png,0.43,1.2,59,0.25,,,,,,,,,,,,,,,,,,,,,,,,,,,,,,,,,,,,,,,,,,,,,
,,,,,SPR24_085,21,female,2024-04-24_09h26.22.594,jersey_experiment_5_v0,2023.2.2,Win32,85.47008547,,,,,,,,,,,,,,,,214.0018,215.049,215.049,216.1784,return,0.1563,,67.96875,0,45,45,27,1,FBP-YG-19.png,0.4,1.2,28,0.25,,,,,,,,,,,,,,,,,,,,,,,,,,,,,,,,,,,,,,,,,,,,,
,,,,,SPR24_085,21,female,2024-04-24_09h26.22.594,jersey_experiment_5_v0,2023.2.2,Win32,85.47008547,,,,,,,,,,,,,,,,216.1786,217.2254,217.2255,219.0961,return,0.2835,,30.33854167,0,46,46,21,1,FBP-YG-18.png,0.37,1.2,22,0.25,,,,,,,,,,,,,,,,,,,,,,,,,,,,,,,,,,,,,,,,,,,,,
,,,,,SPR24_085,21,female,2024-04-24_09h26.22.594,jersey_experiment_5_v0,2023.2.2,Win32,85.47008547,,,,,,,,,,,,,,,,219.0964,220.3903,220.3904,221.2771,return,0.225,,21.61458333,0,47,47,41,1,FBP-RB-19.png,0.37,1.2,42,0.5,,,,,,,,,,,,,,,,,,,,,,,,,,,,,,,,,,,,,,,,,,,,,
,,,,,SPR24_085,21,female,2024-04-24_09h26.22.594,jersey_experiment_5_v0,2023.2.2,Win32,85.47008547,,,,,,,,,,,,,,,,221.2773,222.3198,222.3199,224.0065,return,0.3656,,21.22395833,0,48,48,51,1,FBP-PT-18.png,0.37,1.2,52,0.25,,,,,,,,,,,,,,,,,,,,,,,,,,,,,,,,,,,,,,,,,,,,,
,,,,,SPR24_085,21,female,2024-04-24_09h26.22.594,jersey_experiment_5_v0,2023.2.2,Win32,85.47008547,,,,,,,,,,,,,,,,224.0067,225.3006,225.3006,226.7129,return,0.2489,,4.947916667,0,49,49,35,1,FBP-RB-18.png,0.35,1.2,36,0.5,,,,,,,,,,,,,,,,,,,,,,,,,,,,,,,,,,,,,,,,,,,,,
,,,,,SPR24_085,21,female,2024-04-24_09h26.22.594,jersey_experiment_5_v0,2023.2.2,Win32,85.47008547,,,,,,,,,,,,,,,,226.7131,227.7583,227.7584,228.6759,return,0.1987,,8.723958333,0,50,50,16,1,FBP-YG-17.png,0.37,1.2,17,0.25,,,,,,,,,,,,,,,,,,,,,,,,,,,,,,,,,,,,,,,,,,,,,
,,,,,SPR24_085,21,female,2024-04-24_09h26.22.594,jersey_experiment_5_v0,2023.2.2,Win32,85.47008547,,,,,,,,,,,,,,,,228.6761,229.9699,229.9699,230.7126,return,0.225,,13.54166667,0,51,51,11,1,FBP-OG-91.png,0.37,1.2,12,0.5,,,,,,,,,,,,,,,,,,,,,,,,,,,,,,,,,,,,,,,,,,,,,
,,,,,SPR24_085,21,female,2024-04-24_09h26.22.594,jersey_experiment_5_v0,2023.2.2,Win32,85.47008547,,,,,,,,,,,,,,,,230.7128,232.0143,232.0143,232.8848,return,0.2126,,13.671875,0,52,52,6,1,FBP-OG-81.png,0.37,1.2,7,0.5,,,,,,,,,,,,,,,,,,,,,,,,,,,,,,,,,,,,,,,,,,,,,
,,,,,SPR24_085,21,female,2024-04-24_09h26.22.594,jersey_experiment_5_v0,2023.2.2,Win32,85.47008547,,,,,,,,,,,,,,,,232.8851,234.1791,234.1791,236.441,return,0.3393,,99.08854167,0,53,53,39,1,FBP-RB-18.png,0.45,1.2,40,0.5,,,,,,,,,,,,,,,,,,,,,,,,,,,,,,,,,,,,,,,,,,,,,
,,,,,SPR24_085,21,female,2024-04-24_09h26.22.594,jersey_experiment_5_v0,2023.2.2,Win32,85.47008547,,,,,,,,,,,,,,,,236.4412,237.485,237.4851,238.5204,return,0.1885,,98.17708333,0,54,54,18,1,FBP-YG-17.png,0.43,1.2,19,0.25,,,,,,,,,,,,,,,,,,,,,,,,,,,,,,,,,,,,,,,,,,,,,
,,,,,SPR24_085,21,female,2024-04-24_09h26.22.594,jersey_experiment_5_v0,2023.2.2,Win32,85.47008547,,,,,,,,,,,,,,,,238.5206,239.5674,239.5674,240.4498,return,0.1922,,98.828125,0,55,55,29,1,FBP-YG-19.png,0.45,1.2,30,0.25,,,,,,,,,,,,,,,,,,,,,,,,,,,,,,,,,,,,,,,,,,,,,
,,,,,SPR24_085,21,female,2024-04-24_09h26.22.594,jersey_experiment_5_v0,2023.2.2,Win32,85.47008547,,,,,,,,,,,,,,,,240.4501,241.7441,241.7441,242.5119,return,0.1651,,92.1875,0,56,56,2,1,FBP-OG-71.png,0.4,1.2,3,0.5,,,,,,,,,,,,,,,,,,,,,,,,,,,,,,,,,,,,,,,,,,,,,
,,,,,SPR24_085,21,female,2024-04-24_09h26.22.594,jersey_experiment_5_v0,2023.2.2,Win32,85.47008547,,,,,,,,,,,,,,,,242.5121,243.8147,243.8147,244.4176,return,0.0707,,93.22916667,0,57,57,7,1,FBP-OG-81.png,0.4,1.2,8,0.5,,,,,,,,,,,,,,,,,,,,,,,,,,,,,,,,,,,,,,,,,,,,,
,,,,,SPR24_085,21,female,2024-04-24_09h26.22.594,jersey_experiment_5_v0,2023.2.2,Win32,85.47008547,,,,,,,,,,,,,,,,244.4177,245.4618,245.4619,246.6296,return,0.1518,,95.44270833,0,58,58,50,1,FBP-PT-18.png,0.35,1.2,51,0.25,,,,,,,,,,,,,,,,,,,,,,,,,,,,,,,,,,,,,,,,,,,,,
,,,,,SPR24_085,21,female,2024-04-24_09h26.22.594,jersey_experiment_5_v0,2023.2.2,Win32,85.47008547,,,,,,,,,,,,,,,,246.6298,247.6735,247.6735,248.8782,return,0.6722,,99.08854167,0,59,59,19,1,FBP-YG-17.png,0.45,1.2,20,0.25,,,,,,,,,,,,,,,,,,,,,,,,,,,,,,,,,,,,,,,,,,,,,
,,,,,SPR24_085,21,female,2024-04-24_09h26.22.594,jersey_experiment_5_v0,2023.2.2,Win32,85.47008547,,,,,,,,,,,,,,,,248.8804,250.1797,250.1797,252.724,return,1.1635,,41.53645833,,,,,,FBP-RB-71.png,0.37,1.2,32,0.5,0,0,0,31,1,,,,,,,,,,,,,,,,,,,,,,,,,,,,,,,,,,,,,,,,
,,,,,SPR24_085,21,female,2024-04-24_09h26.22.594,jersey_experiment_5_v0,2023.2.2,Win32,85.47008547,,,,,,,,,,,,,,,,252.7244,253.7679,253.768,255.3445,return,0.2406,,1.171875,,,,,,FBP-PT-81.png,0.35,1.2,51,0.25,0,1,1,50,1,,,,,,,,,,,,,,,,,,,,,,,,,,,,,,,,,,,,,,,,
,,,,,SPR24_085,21,female,2024-04-24_09h26.22.594,jersey_experiment_5_v0,2023.2.2,Win32,85.47008547,,,,,,,,,,,,,,,,255.3448,256.3916,256.3916,260.0152,return,1.2054,,46.35416667,,,,,,FBP-YG-71.png,0.37,1.2,17,0.25,0,2,2,16,1,,,,,,,,,,,,,,,,,,,,,,,,,,,,,,,,,,,,,,,,
,,,,,SPR24_085,21,female,2024-04-24_09h26.22.594,jersey_experiment_5_v0,2023.2.2,Win32,85.47008547,,,,,,,,,,,,,,,,260.0155,261.0624,261.0624,263.2153,return,1.1711,,99.86979167,,,,,,FBP-PT-71.png,0.45,1.2,50,0.25,0,3,3,49,1,,,,,,,,,,,,,,,,,,,,,,,,,,,,,,,,,,,,,,,,
,,,,,SPR24_085,21,female,2024-04-24_09h26.22.594,jersey_experiment_5_v0,2023.2.2,Win32,85.47008547,,,,,,,,,,,,,,,,263.2156,264.2624,264.2624,266.6435,return,0.3895,,10.02604167,,,,,,FBP-PT-71.png,0.37,1.2,47,0.25,0,4,4,46,1,,,,,,,,,,,,,,,,,,,,,,,,,,,,,,,,,,,,,,,,
,,,,,SPR24_085,21,female,2024-04-24_09h26.22.594,jersey_experiment_5_v0,2023.2.2,Win32,85.47008547,,,,,,,,,,,,,,,,266.6436,267.6891,267.6892,268.9025,return,0.1547,,0.520833333,,,,,,FBP-PT-81.png,0.37,1.2,52,0.25,0,5,5,51,1,,,,,,,,,,,,,,,,,,,,,,,,,,,,,,,,,,,,,,,,
,,,,,SPR24_085,21,female,2024-04-24_09h26.22.594,jersey_experiment_5_v0,2023.2.2,Win32,85.47008547,,,,,,,,,,,,,,,,268.9028,269.9448,269.9449,272.127,return,0.5085,,98.69791667,,,,,,FBP-PT-71.png,0.43,1.2,49,0.25,0,6,6,48,1,,,,,,,,,,,,,,,,,,,,,,,,,,,,,,,,,,,,,,,,
,,,,,SPR24_085,21,female,2024-04-24_09h26.22.594,jersey_experiment_5_v0,2023.2.2,Win32,85.47008547,,,,,,,,,,,,,,,,272.1271,273.1711,273.1711,274.2746,return,0.25,,97.78645833,,,,,,FBP-PT-91.png,0.43,1.2,59,0.25,0,7,7,58,1,,,,,,,,,,,,,,,,,,,,,,,,,,,,,,,,,,,,,,,,
,,,,,SPR24_085,21,female,2024-04-24_09h26.22.594,jersey_experiment_5_v0,2023.2.2,Win32,85.47008547,,,,,,,,,,,,,,,,274.2747,275.3259,275.3259,276.4085,return,0.3758,,100,,,,,,FBP-PT-81.png,0.43,1.2,54,0.25,0,8,8,53,1,,,,,,,,,,,,,,,,,,,,,,,,,,,,,,,,,,,,,,,,
,,,,,SPR24_085,21,female,2024-04-24_09h26.22.594,jersey_experiment_5_v0,2023.2.2,Win32,85.47008547,,,,,,,,,,,,,,,,276.4087,277.7027,277.7027,278.5838,return,0.1652,,99.21875,,,,,,FBP-RB-81.png,0.45,1.2,40,0.5,0,9,9,39,1,,,,,,,,,,,,,,,,,,,,,,,,,,,,,,,,,,,,,,,,
,,,,,SPR24_085,21,female,2024-04-24_09h26.22.594,jersey_experiment_5_v0,2023.2.2,Win32,85.47008547,,,,,,,,,,,,,,,,278.5839,279.8865,279.8865,280.9972,return,0.2961,,93.48958333,,,,,,FBP-RB-81.png,0.43,1.2,39,0.5,0,10,10,38,1,,,,,,,,,,,,,,,,,,,,,,,,,,,,,,,,,,,,,,,,
,,,,,SPR24_085,21,female,2024-04-24_09h26.22.594,jersey_experiment_5_v0,2023.2.2,Win32,85.47008547,,,,,,,,,,,,,,,,280.9974,282.2983,282.2984,284.5838,return,0.9283,,25.26041667,,,,,,FBP-OG-17.png,0.35,1.2,1,0.5,0,11,11,0,1,,,,,,,,,,,,,,,,,,,,,,,,,,,,,,,,,,,,,,,,
,,,,,SPR24_085,21,female,2024-04-24_09h26.22.594,jersey_experiment_5_v0,2023.2.2,Win32,85.47008547,,,,,,,,,,,,,,,,284.584,285.628,285.628,287.2899,return,0.2592,,99.73958333,,,,,,FBP-YG-81.png,0.45,1.2,25,0.25,0,12,12,24,1,,,,,,,,,,,,,,,,,,,,,,,,,,,,,,,,,,,,,,,,
,,,,,SPR24_085,21,female,2024-04-24_09h26.22.594,jersey_experiment_5_v0,2023.2.2,Win32,85.47008547,,,,,,,,,,,,,,,,287.29,288.3338,288.3338,289.7928,return,0.2637,,86.06770833,,,,,,FBP-YG-91.png,0.37,1.2,27,0.25,0,13,13,26,1,,,,,,,,,,,,,,,,,,,,,,,,,,,,,,,,,,,,,,,,
,,,,,SPR24_085,21,female,2024-04-24_09h26.22.594,jersey_experiment_5_v0,2023.2.2,Win32,85.47008547,,,,,,,,,,,,,,,,289.793,290.8429,290.8429,292.5273,return,0.2596,,10.9375,,,,,,FBP-YG-81.png,0.35,1.2,21,0.25,0,14,14,20,1,,,,,,,,,,,,,,,,,,,,,,,,,,,,,,,,,,,,,,,,
,,,,,SPR24_085,21,female,2024-04-24_09h26.22.594,jersey_experiment_5_v0,2023.2.2,Win32,85.47008547,,,,,,,,,,,,,,,,292.5275,293.5694,293.5694,295.4871,return,0.1243,,24.47916667,,,,,,FBP-PT-91.png,0.4,1.2,58,0.25,0,15,15,57,1,,,,,,,,,,,,,,,,,,,,,,,,,,,,,,,,,,,,,,,,
,,,,,SPR24_085,21,female,2024-04-24_09h26.22.594,jersey_experiment_5_v0,2023.2.2,Win32,85.47008547,,,,,,,,,,,,,,,,295.4873,296.5342,296.5342,298.6446,return,0.1777,,84.24479167,,,,,,FBP-YG-91.png,0.4,1.2,28,0.25,0,16,16,27,1,,,,,,,,,,,,,,,,,,,,,,,,,,,,,,,,,,,,,,,,
,,,,,SPR24_085,21,female,2024-04-24_09h26.22.594,jersey_experiment_5_v0,2023.2.2,Win32,85.47008547,,,,,,,,,,,,,,,,298.6447,299.6872,299.6872,302.974,return,0.518,,25,,,,,,FBP-PT-91.png,0.35,1.2,56,0.25,0,17,17,55,1,,,,,,,,,,,,,,,,,,,,,,,,,,,,,,,,,,,,,,,,
,,,,,SPR24_085,21,female,2024-04-24_09h26.22.594,jersey_experiment_5_v0,2023.2.2,Win32,85.47008547,,,,,,,,,,,,,,,,302.9742,304.0168,304.0169,305.4697,return,0.3439,,97.91666667,,,,,,FBP-YG-71.png,0.45,1.2,20,0.25,0,18,18,19,1,,,,,,,,,,,,,,,,,,,,,,,,,,,,,,,,,,,,,,,,
,,,,,SPR24_085,21,female,2024-04-24_09h26.22.594,jersey_experiment_5_v0,2023.2.2,Win32,85.47008547,,,,,,,,,,,,,,,,305.4699,306.5138,306.5138,309.3272,return,0.5073,,63.41145833,,,,,,FBP-YG-91.png,0.35,1.2,26,0.25,0,19,19,25,1,,,,,,,,,,,,,,,,,,,,,,,,,,,,,,,,,,,,,,,,
,,,,,SPR24_085,21,female,2024-04-24_09h26.22.594,jersey_experiment_5_v0,2023.2.2,Win32,85.47008547,,,,,,,,,,,,,,,,309.3275,310.37,310.3701,312.0097,return,0.753,,78.77604167,,,,,,FBP-PT-81.png,0.4,1.2,53,0.25,0,20,20,52,1,,,,,,,,,,,,,,,,,,,,,,,,,,,,,,,,,,,,,,,,
,,,,,SPR24_085,21,female,2024-04-24_09h26.22.594,jersey_experiment_5_v0,2023.2.2,Win32,85.47008547,,,,,,,,,,,,,,,,312.0098,313.3113,313.3114,314.9046,return,0.3774,,98.69791667,,,,,,FBP-OG-19.png,0.43,1.2,14,0.5,0,21,21,13,1,,,,,,,,,,,,,,,,,,,,,,,,,,,,,,,,,,,,,,,,
,,,,,SPR24_085,21,female,2024-04-24_09h26.22.594,jersey_experiment_5_v0,2023.2.2,Win32,85.47008547,,,,,,,,,,,,,,,,314.9047,315.9497,315.9498,316.8676,return,0.4002,,96.875,,,,,,FBP-YG-71.png,0.43,1.2,19,0.25,0,22,22,18,1,,,,,,,,,,,,,,,,,,,,,,,,,,,,,,,,,,,,,,,,
,,,,,SPR24_085,21,female,2024-04-24_09h26.22.594,jersey_experiment_5_v0,2023.2.2,Win32,85.47008547,,,,,,,,,,,,,,,,316.8677,318.1614,318.1615,318.9381,return,0.2228,,97.52604167,,,,,,FBP-OG-18.png,0.43,1.2,9,0.5,0,23,23,8,1,,,,,,,,,,,,,,,,,,,,,,,,,,,,,,,,,,,,,,,,
,,,,,SPR24_085,21,female,2024-04-24_09h26.22.594,jersey_experiment_5_v0,2023.2.2,Win32,85.47008547,,,,,,,,,,,,,,,,318.9383,320.2409,320.2409,321.0409,return,0.2739,,97.00520833,,,,,,FBP-OG-18.png,0.45,1.2,10,0.5,0,24,24,9,1,,,,,,,,,,,,,,,,,,,,,,,,,,,,,,,,,,,,,,,,
,,,,,SPR24_085,21,female,2024-04-24_09h26.22.594,jersey_experiment_5_v0,2023.2.2,Win32,85.47008547,,,,,,,,,,,,,,,,321.0412,322.3351,322.3351,323.103,return,0.4566,,97.13541667,,,,,,FBP-OG-17.png,0.45,1.2,5,0.5,0,25,25,4,1,,,,,,,,,,,,,,,,,,,,,,,,,,,,,,,,,,,,,,,,
,,,,,SPR24_085,21,female,2024-04-24_09h26.22.594,jersey_experiment_5_v0,2023.2.2,Win32,85.47008547,,,,,,,,,,,,,,,,323.1031,324.1469,324.1469,326.0999,return,0.5062,,24.73958333,,,,,,FBP-PT-91.png,0.37,1.2,57,0.25,0,26,26,56,1,,,,,,,,,,,,,,,,,,,,,,,,,,,,,,,,,,,,,,,,
,,,,,SPR24_085,21,female,2024-04-24_09h26.22.594,jersey_experiment_5_v0,2023.2.2,Win32,85.47008547,,,,,,,,,,,,,,,,326.1002,327.3983,327.3984,328.5047,return,0.4944,,24.86979167,,,,,,FBP-RB-81.png,0.35,1.2,36,0.5,0,27,27,35,1,,,,,,,,,,,,,,,,,,,,,,,,,,,,,,,,,,,,,,,,
,,,,,SPR24_085,21,female,2024-04-24_09h26.22.594,jersey_experiment_5_v0,2023.2.2,Win32,85.47008547,,,,,,,,,,,,,,,,328.5049,329.8061,329.8062,330.853,return,0.284,,49.73958333,,,,,,FBP-RB-71.png,0.4,1.2,33,0.5,0,28,28,32,1,,,,,,,,,,,,,,,,,,,,,,,,,,,,,,,,,,,,,,,,
,,,,,SPR24_085,21,female,2024-04-24_09h26.22.594,jersey_experiment_5_v0,2023.2.2,Win32,85.47008547,,,,,,,,,,,,,,,,330.8533,332.1472,332.1472,333.5164,return,0.1887,,24.73958333,,,,,,FBP-RB-91.png,0.35,1.2,41,0.5,0,29,29,40,1,,,,,,,,,,,,,,,,,,,,,,,,,,,,,,,,,,,,,,,,
,,,,,SPR24_085,21,female,2024-04-24_09h26.22.594,jersey_experiment_5_v0,2023.2.2,Win32,85.47008547,,,,,,,,,,,,,,,,333.5166,334.5589,334.5589,335.927,return,0.1287,,98.828125,,,,,,FBP-PT-91.png,0.45,1.2,60,0.25,0,30,30,59,1,,,,,,,,,,,,,,,,,,,,,,,,,,,,,,,,,,,,,,,,
,,,,,SPR24_085,21,female,2024-04-24_09h26.22.594,jersey_experiment_5_v0,2023.2.2,Win32,85.47008547,,,,,,,,,,,,,,,,335.9272,336.9751,336.9751,337.7987,return,0.2591,,98.30729167,,,,,,FBP-PT-71.png,0.4,1.2,48,0.25,0,31,31,47,1,,,,,,,,,,,,,,,,,,,,,,,,,,,,,,,,,,,,,,,,
,,,,,SPR24_085,21,female,2024-04-24_09h26.22.594,jersey_experiment_5_v0,2023.2.2,Win32,85.47008547,,,,,,,,,,,,,,,,337.7989,339.1031,339.1033,340.1154,return,0.259,,99.47916667,,,,,,FBP-RB-81.png,0.4,1.2,38,0.5,0,32,32,37,1,,,,,,,,,,,,,,,,,,,,,,,,,,,,,,,,,,,,,,,,
,,,,,SPR24_085,21,female,2024-04-24_09h26.22.594,jersey_experiment_5_v0,2023.2.2,Win32,85.47008547,,,,,,,,,,,,,,,,340.1156,341.4088,341.4088,342.6417,return,0.2263,,25.65104167,,,,,,FBP-OG-19.png,0.35,1.2,11,0.5,0,33,33,10,1,,,,,,,,,,,,,,,,,,,,,,,,,,,,,,,,,,,,,,,,
,,,,,SPR24_085,21,female,2024-04-24_09h26.22.594,jersey_experiment_5_v0,2023.2.2,Win32,85.47008547,,,,,,,,,,,,,,,,342.6419,343.9416,343.9416,345.4566,return,0.1757,,73.17708333,,,,,,FBP-OG-17.png,0.43,1.2,4,0.5,0,34,34,3,1,,,,,,,,,,,,,,,,,,,,,,,,,,,,,,,,,,,,,,,,
,,,,,SPR24_085,21,female,2024-04-24_09h26.22.594,jersey_experiment_5_v0,2023.2.2,Win32,85.47008547,,,,,,,,,,,,,,,,345.4568,346.5006,346.5007,347.7056,return,0.1415,,97.91666667,,,,,,FBP-YG-91.png,0.45,1.2,30,0.25,0,35,35,29,1,,,,,,,,,,,,,,,,,,,,,,,,,,,,,,,,,,,,,,,,
,,,,,SPR24_085,21,female,2024-04-24_09h26.22.594,jersey_experiment_5_v0,2023.2.2,Win32,85.47008547,,,,,,,,,,,,,,,,347.7058,348.7478,348.7479,350.364,return,0.165,,98.046875,,,,,,FBP-PT-81.png,0.45,1.2,55,0.25,0,36,36,54,1,,,,,,,,,,,,,,,,,,,,,,,,,,,,,,,,,,,,,,,,
,,,,,SPR24_085,21,female,2024-04-24_09h26.22.594,jersey_experiment_5_v0,2023.2.2,Win32,85.47008547,,,,,,,,,,,,,,,,350.3641,351.6683,351.6683,353.598,return,0.5048,,25.390625,,,,,,FBP-OG-19.png,0.37,1.2,12,0.5,0,37,37,11,1,,,,,,,,,,,,,,,,,,,,,,,,,,,,,,,,,,,,,,,,
,,,,,SPR24_085,21,female,2024-04-24_09h26.22.594,jersey_experiment_5_v0,2023.2.2,Win32,85.47008547,,,,,,,,,,,,,,,,353.5981,354.8893,354.8894,356.0774,return,0.1727,,98.828125,,,,,,FBP-RB-91.png,0.45,1.2,45,0.5,0,38,38,44,1,,,,,,,,,,,,,,,,,,,,,,,,,,,,,,,,,,,,,,,,
,,,,,SPR24_085,21,female,2024-04-24_09h26.22.594,jersey_experiment_5_v0,2023.2.2,Win32,85.47008547,,,,,,,,,,,,,,,,356.0775,357.1275,357.1276,359.4218,return,0.2118,,49.34895833,,,,,,FBP-YG-81.png,0.4,1.2,23,0.25,0,39,39,22,1,,,,,,,,,,,,,,,,,,,,,,,,,,,,,,,,,,,,,,,,
,,,,,SPR24_085,21,female,2024-04-24_09h26.22.594,jersey_experiment_5_v0,2023.2.2,Win32,85.47008547,,,,,,,,,,,,,,,,359.4219,360.7159,360.7159,362.622,return,0.7298,,25,,,,,,FBP-OG-19.png,0.4,1.2,13,0.5,0,40,40,12,1,,,,,,,,,,,,,,,,,,,,,,,,,,,,,,,,,,,,,,,,
,,,,,SPR24_085,21,female,2024-04-24_09h26.22.594,jersey_experiment_5_v0,2023.2.2,Win32,85.47008547,,,,,,,,,,,,,,,,362.6221,363.9248,363.9248,364.9749,return,0.3533,,24.609375,,,,,,FBP-OG-18.png,0.37,1.2,7,0.5,0,41,41,6,1,,,,,,,,,,,,,,,,,,,,,,,,,,,,,,,,,,,,,,,,
,,,,,SPR24_085,21,female,2024-04-24_09h26.22.594,jersey_experiment_5_v0,2023.2.2,Win32,85.47008547,,,,,,,,,,,,,,,,364.9751,366.2689,366.269,367.6,return,0.6723,,75.390625,,,,,,FBP-RB-71.png,0.43,1.2,34,0.5,0,42,42,33,1,,,,,,,,,,,,,,,,,,,,,,,,,,,,,,,,,,,,,,,,
,,,,,SPR24_085,21,female,2024-04-24_09h26.22.594,jersey_experiment_5_v0,2023.2.2,Win32,85.47008547,,,,,,,,,,,,,,,,367.6001,368.6455,368.6455,369.5721,return,0.1898,,73.95833333,,,,,,FBP-YG-71.png,0.4,1.2,18,0.25,0,43,43,17,1,,,,,,,,,,,,,,,,,,,,,,,,,,,,,,,,,,,,,,,,
,,,,,SPR24_085,21,female,2024-04-24_09h26.22.594,jersey_experiment_5_v0,2023.2.2,Win32,85.47008547,,,,,,,,,,,,,,,,369.5724,370.8662,370.8662,372.9134,return,0.71,,38.15104167,,,,,,FBP-RB-71.png,0.35,1.2,31,0.5,0,44,44,30,1,,,,,,,,,,,,,,,,,,,,,,,,,,,,,,,,,,,,,,,,
,,,,,SPR24_085,21,female,2024-04-24_09h26.22.594,jersey_experiment_5_v0,2023.2.2,Win32,85.47008547,,,,,,,,,,,,,,,,372.9136,374.2075,374.2075,375.2813,return,0.2122,,98.046875,,,,,,FBP-OG-19.png,0.45,1.2,15,0.5,0,45,45,14,1,,,,,,,,,,,,,,,,,,,,,,,,,,,,,,,,,,,,,,,,
,,,,,SPR24_085,21,female,2024-04-24_09h26.22.594,jersey_experiment_5_v0,2023.2.2,Win32,85.47008547,,,,,,,,,,,,,,,,375.2815,376.3252,376.3252,377.046,return,0.1755,,99.86979167,,,,,,FBP-YG-81.png,0.43,1.2,24,0.25,0,46,46,23,1,,,,,,,,,,,,,,,,,,,,,,,,,,,,,,,,,,,,,,,,
,,,,,SPR24_085,21,female,2024-04-24_09h26.22.594,jersey_experiment_5_v0,2023.2.2,Win32,85.47008547,,,,,,,,,,,,,,,,377.0462,378.353,378.353,380.1253,return,0.1246,,26.04166667,,,,,,FBP-RB-81.png,0.37,1.2,37,0.5,0,47,47,36,1,,,,,,,,,,,,,,,,,,,,,,,,,,,,,,,,,,,,,,,,
,,,,,SPR24_085,21,female,2024-04-24_09h26.22.594,jersey_experiment_5_v0,2023.2.2,Win32,85.47008547,,,,,,,,,,,,,,,,380.1255,381.1725,381.1725,381.9875,return,0.3403,,26.171875,,,,,,FBP-PT-71.png,0.35,1.2,46,0.25,0,48,48,45,1,,,,,,,,,,,,,,,,,,,,,,,,,,,,,,,,,,,,,,,,
,,,,,SPR24_085,21,female,2024-04-24_09h26.22.594,jersey_experiment_5_v0,2023.2.2,Win32,85.47008547,,,,,,,,,,,,,,,,381.9878,383.0314,383.0315,384.5137,return,0.2627,,42.05729167,,,,,,FBP-YG-91.png,0.43,1.2,29,0.25,0,49,49,28,1,,,,,,,,,,,,,,,,,,,,,,,,,,,,,,,,,,,,,,,,
,,,,,SPR24_085,21,female,2024-04-24_09h26.22.594,jersey_experiment_5_v0,2023.2.2,Win32,85.47008547,,,,,,,,,,,,,,,,384.5139,385.808,385.8081,387.4904,return,1.0505,,75.390625,,,,,,FBP-RB-71.png,0.45,1.2,35,0.5,0,50,50,34,1,,,,,,,,,,,,,,,,,,,,,,,,,,,,,,,,,,,,,,,,
,,,,,SPR24_085,21,female,2024-04-24_09h26.22.594,jersey_experiment_5_v0,2023.2.2,Win32,85.47008547,,,,,,,,,,,,,,,,387.4906,388.7845,388.7846,390.2434,return,0.3206,,23.30729167,,,,,,FBP-OG-17.png,0.4,1.2,3,0.5,0,51,51,2,1,,,,,,,,,,,,,,,,,,,,,,,,,,,,,,,,,,,,,,,,
,,,,,SPR24_085,21,female,2024-04-24_09h26.22.594,jersey_experiment_5_v0,2023.2.2,Win32,85.47008547,,,,,,,,,,,,,,,,390.2436,391.5376,391.5376,392.6467,return,0.2226,,24.47916667,,,,,,FBP-RB-91.png,0.4,1.2,43,0.5,0,52,52,42,1,,,,,,,,,,,,,,,,,,,,,,,,,,,,,,,,,,,,,,,,
,,,,,SPR24_085,21,female,2024-04-24_09h26.22.594,jersey_experiment_5_v0,2023.2.2,Win32,85.47008547,,,,,,,,,,,,,,,,392.6468,393.9495,393.9496,395.1173,return,0.1415,,0.260416667,,,,,,FBP-RB-91.png,0.37,1.2,42,0.5,0,53,53,41,1,,,,,,,,,,,,,,,,,,,,,,,,,,,,,,,,,,,,,,,,
,,,,,SPR24_085,21,female,2024-04-24_09h26.22.594,jersey_experiment_5_v0,2023.2.2,Win32,85.47008547,,,,,,,,,,,,,,,,395.1175,396.4112,396.4113,397.6586,return,0.199,,99.21875,,,,,,FBP-RB-91.png,0.43,1.2,44,0.5,0,54,54,43,1,,,,,,,,,,,,,,,,,,,,,,,,,,,,,,,,,,,,,,,,
,,,,,SPR24_085,21,female,2024-04-24_09h26.22.594,jersey_experiment_5_v0,2023.2.2,Win32,85.47008547,,,,,,,,,,,,,,,,397.6587,398.9613,398.9614,405.259,return,1.2947,,25.26041667,,,,,,FBP-OG-18.png,0.35,1.2,6,0.5,0,55,55,5,1,,,,,,,,,,,,,,,,,,,,,,,,,,,,,,,,,,,,,,,,
,,,,,SPR24_085,21,female,2024-04-24_09h26.22.594,jersey_experiment_5_v0,2023.2.2,Win32,85.47008547,,,,,,,,,,,,,,,,405.2592,406.5615,406.5615,407.8086,return,0.1694,,34.24479167,,,,,,FBP-OG-18.png,0.4,1.2,8,0.5,0,56,56,7,1,,,,,,,,,,,,,,,,,,,,,,,,,,,,,,,,,,,,,,,,
,,,,,SPR24_085,21,female,2024-04-24_09h26.22.594,jersey_experiment_5_v0,2023.2.2,Win32,85.47008547,,,,,,,,,,,,,,,,407.8088,408.8587,408.8587,410.2087,return,0.2402,,1.822916667,,,,,,FBP-YG-71.png,0.35,1.2,16,0.25,0,57,57,15,1,,,,,,,,,,,,,,,,,,,,,,,,,,,,,,,,,,,,,,,,
,,,,,SPR24_085,21,female,2024-04-24_09h26.22.594,jersey_experiment_5_v0,2023.2.2,Win32,85.47008547,,,,,,,,,,,,,,,,410.2089,411.5029,411.5029,412.5765,return,0.1884,,5.338541667,,,,,,FBP-OG-17.png,0.37,1.2,2,0.5,0,58,58,1,1,,,,,,,,,,,,,,,,,,,,,,,,,,,,,,,,,,,,,,,,
,,,,,SPR24_085,21,female,2024-04-24_09h26.22.594,jersey_experiment_5_v0,2023.2.2,Win32,85.47008547,,,,,,,,,,,,,,,,412.5767,413.6206,413.6206,414.7384,return,0.627,,11.45833333,,,,,,FBP-YG-81.png,0.37,1.2,22,0.25,0,59,59,21,1,,,,,,,,,,,,,,,,,,,,,,,,,,,,,,,,,,,,,,,,
,,,,,SPR24_085,21,female,2024-04-24_09h26.22.594,jersey_experiment_5_v0,2023.2.2,Win32,85.47008547,,,,,,,,,,,,,,,,,,,,,,,,,,,,,,,,,,,,,,,414.7387,534.7354,,,,,,,,,,,,,,,,,,,,,,,,,,,,,,,,,,,,,,
,,,,,SPR24_085,21,female,2024-04-24_09h26.22.594,jersey_experiment_5_v0,2023.2.2,Win32,85.47008547,,,,,,,,,,,,,,,,,,,,,,,,,,,,,,,,,,,,,,,,,534.7355,563.7247,return,28.979,,,,,,,,,,,,,,,,,,,,,,,,,,,,,,,,,,
,,,,,SPR24_085,21,female,2024-04-24_09h26.22.594,jersey_experiment_5_v0,2023.2.2,Win32,85.47008547,,,,,,,,,,,,,,,,563.7312,565.029,565.029,569.5825,return,2.7184,,75.390625,,,,,,FBP-PT-17.png,0.45,1.2,50,0.5,,,,,,,,,,,,,0,0,0,49,1,,,,,,,,,,,,,,,,,,,,,,,,,,,,
,,,,,SPR24_085,21,female,2024-04-24_09h26.22.594,jersey_experiment_5_v0,2023.2.2,Win32,85.47008547,,,,,,,,,,,,,,,,569.5828,570.8883,570.8884,571.7792,return,0.1319,,75.26041667,,,,,,FBP-PT-17.png,0.43,1.2,49,0.5,,,,,,,,,,,,,0,1,1,48,1,,,,,,,,,,,,,,,,,,,,,,,,,,,,
,,,,,SPR24_085,21,female,2024-04-24_09h26.22.594,jersey_experiment_5_v0,2023.2.2,Win32,85.47008547,,,,,,,,,,,,,,,,571.7794,573.0734,573.0734,573.6615,return,0.0534,,75.13020833,,,,,,FBP-YG-17.png,0.4,1.2,18,0.5,,,,,,,,,,,,,0,2,2,17,1,,,,,,,,,,,,,,,,,,,,,,,,,,,,
,,,,,SPR24_085,21,female,2024-04-24_09h26.22.594,jersey_experiment_5_v0,2023.2.2,Win32,85.47008547,,,,,,,,,,,,,,,,573.6618,574.9557,574.9558,575.5236,return,0.1287,,75.13020833,,,,,,FBP-PT-18.png,0.4,1.2,53,0.5,,,,,,,,,,,,,0,3,3,52,1,,,,,,,,,,,,,,,,,,,,,,,,,,,,
,,,,,SPR24_085,21,female,2024-04-24_09h26.22.594,jersey_experiment_5_v0,2023.2.2,Win32,85.47008547,,,,,,,,,,,,,,,,575.5237,576.5676,576.5676,578.2531,return,0.0942,,24.47916667,,,,,,FBP-RB-17.png,0.37,1.2,32,0.25,,,,,,,,,,,,,0,4,4,31,1,,,,,,,,,,,,,,,,,,,,,,,,,,,,
,,,,,SPR24_085,21,female,2024-04-24_09h26.22.594,jersey_experiment_5_v0,2023.2.2,Win32,85.47008547,,,,,,,,,,,,,,,,578.2533,579.5473,579.5473,581.8384,return,0.3125,,1.432291667,,,,,,FBP-YG-17.png,0.35,1.2,16,0.5,,,,,,,,,,,,,0,5,5,15,1,,,,,,,,,,,,,,,,,,,,,,,,,,,,
,,,,,SPR24_085,21,female,2024-04-24_09h26.22.594,jersey_experiment_5_v0,2023.2.2,Win32,85.47008547,,,,,,,,,,,,,,,,581.8386,582.8882,582.8882,584.2661,return,0.1308,,99.21875,,,,,,FBP-OG-71.png,0.43,1.2,4,0.25,,,,,,,,,,,,,0,6,6,3,1,,,,,,,,,,,,,,,,,,,,,,,,,,,,
,,,,,SPR24_085,21,female,2024-04-24_09h26.22.594,jersey_experiment_5_v0,2023.2.2,Win32,85.47008547,,,,,,,,,,,,,,,,584.2663,585.3091,585.3091,587.0768,return,0.1414,,25.26041667,,,,,,FBP-RB-18.png,0.35,1.2,36,0.25,,,,,,,,,,,,,0,7,7,35,1,,,,,,,,,,,,,,,,,,,,,,,,,,,,
,,,,,SPR24_085,21,female,2024-04-24_09h26.22.594,jersey_experiment_5_v0,2023.2.2,Win32,85.47008547,,,,,,,,,,,,,,,,587.077,588.371,588.371,589.2654,return,0.0946,,99.73958333,,,,,,FBP-YG-18.png,0.45,1.2,25,0.5,,,,,,,,,,,,,0,8,8,24,1,,,,,,,,,,,,,,,,,,,,,,,,,,,,
,,,,,SPR24_085,21,female,2024-04-24_09h26.22.594,jersey_experiment_5_v0,2023.2.2,Win32,85.47008547,,,,,,,,,,,,,,,,589.2656,590.5681,590.5681,591.9242,return,0.0938,,25,,,,,,FBP-YG-17.png,0.37,1.2,17,0.5,,,,,,,,,,,,,0,9,9,16,1,,,,,,,,,,,,,,,,,,,,,,,,,,,,
,,,,,SPR24_085,21,female,2024-04-24_09h26.22.594,jersey_experiment_5_v0,2023.2.2,Win32,85.47008547,,,,,,,,,,,,,,,,591.9244,592.9682,592.9682,594.1595,return,0.1646,,23.95833333,,,,,,FBP-RB-19.png,0.37,1.2,42,0.25,,,,,,,,,,,,,0,10,10,41,1,,,,,,,,,,,,,,,,,,,,,,,,,,,,
,,,,,SPR24_085,21,female,2024-04-24_09h26.22.594,jersey_experiment_5_v0,2023.2.2,Win32,85.47008547,,,,,,,,,,,,,,,,594.1598,595.2035,595.2036,596.0623,return,0.0657,,0.651041667,,,,,,FBP-OG-81.png,0.35,1.2,6,0.25,,,,,,,,,,,,,0,11,11,5,1,,,,,,,,,,,,,,,,,,,,,,,,,,,,
,,,,,SPR24_085,21,female,2024-04-24_09h26.22.594,jersey_experiment_5_v0,2023.2.2,Win32,85.47008547,,,,,,,,,,,,,,,,596.0625,597.3565,597.3566,598.333,return,0.1021,,24.609375,,,,,,FBP-PT-19.png,0.37,1.2,57,0.5,,,,,,,,,,,,,0,12,12,56,1,,,,,,,,,,,,,,,,,,,,,,,,,,,,
,,,,,SPR24_085,21,female,2024-04-24_09h26.22.594,jersey_experiment_5_v0,2023.2.2,Win32,85.47008547,,,,,,,,,,,,,,,,598.3333,599.6273,599.6273,600.5729,return,0.1546,,98.17708333,,,,,,FBP-PT-19.png,0.45,1.2,60,0.5,,,,,,,,,,,,,0,13,13,59,1,,,,,,,,,,,,,,,,,,,,,,,,,,,,
,,,,,SPR24_085,21,female,2024-04-24_09h26.22.594,jersey_experiment_5_v0,2023.2.2,Win32,85.47008547,,,,,,,,,,,,,,,,600.573,601.8775,601.8775,604.22,return,0.3767,,24.73958333,,,,,,FBP-YG-18.png,0.35,1.2,21,0.5,,,,,,,,,,,,,0,14,14,20,1,,,,,,,,,,,,,,,,,,,,,,,,,,,,
,,,,,SPR24_085,21,female,2024-04-24_09h26.22.594,jersey_experiment_5_v0,2023.2.2,Win32,85.47008547,,,,,,,,,,,,,,,,604.2202,605.5245,605.5246,607.4276,return,0.5091,,98.69791667,,,,,,FBP-YG-18.png,0.43,1.2,24,0.5,,,,,,,,,,,,,0,15,15,23,1,,,,,,,,,,,,,,,,,,,,,,,,,,,,
,,,,,SPR24_085,21,female,2024-04-24_09h26.22.594,jersey_experiment_5_v0,2023.2.2,Win32,85.47008547,,,,,,,,,,,,,,,,607.4277,608.7216,608.7217,609.3836,return,0.2122,,98.30729167,,,,,,FBP-YG-17.png,0.45,1.2,20,0.5,,,,,,,,,,,,,0,16,16,19,1,,,,,,,,,,,,,,,,,,,,,,,,,,,,
,,,,,SPR24_085,21,female,2024-04-24_09h26.22.594,jersey_experiment_5_v0,2023.2.2,Win32,85.47008547,,,,,,,,,,,,,,,,609.3838,610.6907,610.6908,611.6425,return,0.199,,52.99479167,,,,,,FBP-PT-17.png,0.37,1.2,47,0.5,,,,,,,,,,,,,0,17,17,46,1,,,,,,,,,,,,,,,,,,,,,,,,,,,,
,,,,,SPR24_085,21,female,2024-04-24_09h26.22.594,jersey_experiment_5_v0,2023.2.2,Win32,85.47008547,,,,,,,,,,,,,,,,611.6427,612.9455,612.9455,614.0086,return,0.1311,,98.17708333,,,,,,FBP-PT-18.png,0.43,1.2,54,0.5,,,,,,,,,,,,,0,18,18,53,1,,,,,,,,,,,,,,,,,,,,,,,,,,,,
,,,,,SPR24_085,21,female,2024-04-24_09h26.22.594,jersey_experiment_5_v0,2023.2.2,Win32,85.47008547,,,,,,,,,,,,,,,,614.0087,615.0542,615.0543,615.9616,return,0.4367,,97.78645833,,,,,,FBP-OG-91.png,0.43,1.2,14,0.25,,,,,,,,,,,,,0,19,19,13,1,,,,,,,,,,,,,,,,,,,,,,,,,,,,
,,,,,SPR24_085,21,female,2024-04-24_09h26.22.594,jersey_experiment_5_v0,2023.2.2,Win32,85.47008547,,,,,,,,,,,,,,,,615.9618,617.0074,617.0075,617.6042,return,0.1525,,97.91666667,,,,,,FBP-RB-19.png,0.43,1.2,44,0.25,,,,,,,,,,,,,0,20,20,43,1,,,,,,,,,,,,,,,,,,,,,,,,,,,,
,,,,,SPR24_085,21,female,2024-04-24_09h26.22.594,jersey_experiment_5_v0,2023.2.2,Win32,85.47008547,,,,,,,,,,,,,,,,617.6044,618.6515,618.6515,619.8546,return,0.0709,,76.30208333,,,,,,FBP-RB-18.png,0.43,1.2,39,0.25,,,,,,,,,,,,,0,21,21,38,1,,,,,,,,,,,,,,,,,,,,,,,,,,,,
,,,,,SPR24_085,21,female,2024-04-24_09h26.22.594,jersey_experiment_5_v0,2023.2.2,Win32,85.47008547,,,,,,,,,,,,,,,,619.8548,620.8985,620.8985,622.3383,return,0.2114,,4.036458333,,,,,,FBP-OG-71.png,0.35,1.2,1,0.25,,,,,,,,,,,,,0,22,22,0,1,,,,,,,,,,,,,,,,,,,,,,,,,,,,
,,,,,SPR24_085,21,female,2024-04-24_09h26.22.594,jersey_experiment_5_v0,2023.2.2,Win32,85.47008547,,,,,,,,,,,,,,,,622.3384,623.643,623.6431,624.7809,return,0.1727,,28.125,,,,,,FBP-PT-19.png,0.43,1.2,59,0.5,,,,,,,,,,,,,0,23,23,58,1,,,,,,,,,,,,,,,,,,,,,,,,,,,,
,,,,,SPR24_085,21,female,2024-04-24_09h26.22.594,jersey_experiment_5_v0,2023.2.2,Win32,85.47008547,,,,,,,,,,,,,,,,624.7811,626.0802,626.0802,628.4089,return,1.2236,,61.06770833,,,,,,FBP-YG-19.png,0.45,1.2,30,0.5,,,,,,,,,,,,,0,24,24,29,1,,,,,,,,,,,,,,,,,,,,,,,,,,,,
,,,,,SPR24_085,21,female,2024-04-24_09h26.22.594,jersey_experiment_5_v0,2023.2.2,Win32,85.47008547,,,,,,,,,,,,,,,,628.4091,629.4518,629.4518,630.1268,return,0.0237,,63.54166667,,,,,,FBP-OG-71.png,0.4,1.2,3,0.25,,,,,,,,,,,,,0,25,25,2,1,,,,,,,,,,,,,,,,,,,,,,,,,,,,
,,,,,SPR24_085,21,female,2024-04-24_09h26.22.594,jersey_experiment_5_v0,2023.2.2,Win32,85.47008547,,,,,,,,,,,,,,,,630.127,631.4315,631.4315,632.2755,return,0.071,,86.84895833,,,,,,FBP-YG-18.png,0.4,1.2,23,0.5,,,,,,,,,,,,,0,26,26,22,1,,,,,,,,,,,,,,,,,,,,,,,,,,,,
,,,,,SPR24_085,21,female,2024-04-24_09h26.22.594,jersey_experiment_5_v0,2023.2.2,Win32,85.47008547,,,,,,,,,,,,,,,,632.2756,633.5726,633.5727,634.0199,return,0.1991,,89.84375,,,,,,FBP-YG-19.png,0.4,1.2,28,0.5,,,,,,,,,,,,,0,27,27,27,1,,,,,,,,,,,,,,,,,,,,,,,,,,,,
,,,,,SPR24_085,21,female,2024-04-24_09h26.22.594,jersey_experiment_5_v0,2023.2.2,Win32,85.47008547,,,,,,,,,,,,,,,,634.02,635.0637,635.0638,636.1374,return,0.199,,98.17708333,,,,,,FBP-RB-17.png,0.45,1.2,35,0.25,,,,,,,,,,,,,0,28,28,34,1,,,,,,,,,,,,,,,,,,,,,,,,,,,,
,,,,,SPR24_085,21,female,2024-04-24_09h26.22.594,jersey_experiment_5_v0,2023.2.2,Win32,85.47008547,,,,,,,,,,,,,,,,636.1376,637.4314,637.4314,638.4285,return,0.0791,,4.817708333,,,,,,FBP-PT-18.png,0.35,1.2,51,0.5,,,,,,,,,,,,,0,29,29,50,1,,,,,,,,,,,,,,,,,,,,,,,,,,,,
,,,,,SPR24_085,21,female,2024-04-24_09h26.22.594,jersey_experiment_5_v0,2023.2.2,Win32,85.47008547,,,,,,,,,,,,,,,,638.4288,639.7278,639.7278,640.373,return,0.0942,,59.11458333,,,,,,FBP-PT-17.png,0.4,1.2,48,0.5,,,,,,,,,,,,,0,30,30,47,1,,,,,,,,,,,,,,,,,,,,,,,,,,,,
,,,,,SPR24_085,21,female,2024-04-24_09h26.22.594,jersey_experiment_5_v0,2023.2.2,Win32,85.47008547,,,,,,,,,,,,,,,,640.3732,641.4169,641.417,642.5583,return,0.0423,,6.640625,,,,,,FBP-OG-91.png,0.35,1.2,11,0.25,,,,,,,,,,,,,0,31,31,10,1,,,,,,,,,,,,,,,,,,,,,,,,,,,,
,,,,,SPR24_085,21,female,2024-04-24_09h26.22.594,jersey_experiment_5_v0,2023.2.2,Win32,85.47008547,,,,,,,,,,,,,,,,642.5585,643.6053,643.6053,645.5229,return,1.3788,,30.46875,,,,,,FBP-RB-18.png,0.37,1.2,37,0.25,,,,,,,,,,,,,0,32,32,36,1,,,,,,,,,,,,,,,,,,,,,,,,,,,,
,,,,,SPR24_085,21,female,2024-04-24_09h26.22.594,jersey_experiment_5_v0,2023.2.2,Win32,85.47008547,,,,,,,,,,,,,,,,645.5232,646.8171,646.8171,647.8289,return,0.211,,9.895833333,,,,,,FBP-YG-19.png,0.35,1.2,26,0.5,,,,,,,,,,,,,0,33,33,25,1,,,,,,,,,,,,,,,,,,,,,,,,,,,,
,,,,,SPR24_085,21,female,2024-04-24_09h26.22.594,jersey_experiment_5_v0,2023.2.2,Win32,85.47008547,,,,,,,,,,,,,,,,647.8292,648.876,648.876,650.5467,return,0.9909,,35.15625,,,,,,FBP-OG-81.png,0.37,1.2,7,0.25,,,,,,,,,,,,,0,34,34,6,1,,,,,,,,,,,,,,,,,,,,,,,,,,,,
,,,,,SPR24_085,21,female,2024-04-24_09h26.22.594,jersey_experiment_5_v0,2023.2.2,Win32,85.47008547,,,,,,,,,,,,,,,,650.5469,651.5938,651.5939,652.8206,return,0.1654,,6.380208333,,,,,,FBP-RB-19.png,0.35,1.2,41,0.25,,,,,,,,,,,,,0,35,35,40,1,,,,,,,,,,,,,,,,,,,,,,,,,,,,
,,,,,SPR24_085,21,female,2024-04-24_09h26.22.594,jersey_experiment_5_v0,2023.2.2,Win32,85.47008547,,,,,,,,,,,,,,,,652.8208,653.8644,653.8645,655.1264,return,0.1884,,87.23958333,,,,,,FBP-OG-81.png,0.4,1.2,8,0.25,,,,,,,,,,,,,0,36,36,7,1,,,,,,,,,,,,,,,,,,,,,,,,,,,,
,,,,,SPR24_085,21,female,2024-04-24_09h26.22.594,jersey_experiment_5_v0,2023.2.2,Win32,85.47008547,,,,,,,,,,,,,,,,655.1266,656.1704,656.1704,656.8998,return,0.049,,80.859375,,,,,,FBP-OG-71.png,0.37,1.2,2,0.25,,,,,,,,,,,,,0,37,37,1,1,,,,,,,,,,,,,,,,,,,,,,,,,,,,
,,,,,SPR24_085,21,female,2024-04-24_09h26.22.594,jersey_experiment_5_v0,2023.2.2,Win32,85.47008547,,,,,,,,,,,,,,,,656.8999,657.9469,657.9469,659.1267,return,0.2438,,91.40625,,,,,,FBP-RB-19.png,0.4,1.2,43,0.25,,,,,,,,,,,,,0,38,38,42,1,,,,,,,,,,,,,,,,,,,,,,,,,,,,
,,,,,SPR24_085,21,female,2024-04-24_09h26.22.594,jersey_experiment_5_v0,2023.2.2,Win32,85.47008547,,,,,,,,,,,,,,,,659.1268,660.4208,660.4208,662.5149,return,1.059,,25.390625,,,,,,FBP-YG-18.png,0.37,1.2,22,0.5,,,,,,,,,,,,,0,39,39,21,1,,,,,,,,,,,,,,,,,,,,,,,,,,,,
,,,,,SPR24_085,21,female,2024-04-24_09h26.22.594,jersey_experiment_5_v0,2023.2.2,Win32,85.47008547,,,,,,,,,,,,,,,,662.515,663.5627,663.5627,664.6092,return,0.1285,,4.6875,,,,,,FBP-RB-17.png,0.35,1.2,31,0.25,,,,,,,,,,,,,0,40,40,30,1,,,,,,,,,,,,,,,,,,,,,,,,,,,,
,,,,,SPR24_085,21,female,2024-04-24_09h26.22.594,jersey_experiment_5_v0,2023.2.2,Win32,85.47008547,,,,,,,,,,,,,,,,664.6093,665.6531,665.6532,666.7973,return,0.0708,,98.30729167,,,,,,FBP-RB-17.png,0.43,1.2,34,0.25,,,,,,,,,,,,,0,41,41,33,1,,,,,,,,,,,,,,,,,,,,,,,,,,,,
,,,,,SPR24_085,21,female,2024-04-24_09h26.22.594,jersey_experiment_5_v0,2023.2.2,Win32,85.47008547,,,,,,,,,,,,,,,,666.7975,667.8414,667.8414,668.9152,return,0.2358,,99.73958333,,,,,,FBP-RB-18.png,0.45,1.2,40,0.25,,,,,,,,,,,,,0,42,42,39,1,,,,,,,,,,,,,,,,,,,,,,,,,,,,
,,,,,SPR24_085,21,female,2024-04-24_09h26.22.594,jersey_experiment_5_v0,2023.2.2,Win32,85.47008547,,,,,,,,,,,,,,,,668.9153,670.2092,670.2092,671.517,return,0.2361,,0.260416667,,,,,,FBP-PT-19.png,0.35,1.2,56,0.5,,,,,,,,,,,,,0,43,43,55,1,,,,,,,,,,,,,,,,,,,,,,,,,,,,
,,,,,SPR24_085,21,female,2024-04-24_09h26.22.594,jersey_experiment_5_v0,2023.2.2,Win32,85.47008547,,,,,,,,,,,,,,,,671.5171,672.8104,672.8105,673.8886,return,0.1092,,98.56770833,,,,,,FBP-YG-19.png,0.43,1.2,29,0.5,,,,,,,,,,,,,0,44,44,28,1,,,,,,,,,,,,,,,,,,,,,,,,,,,,
,,,,,SPR24_085,21,female,2024-04-24_09h26.22.594,jersey_experiment_5_v0,2023.2.2,Win32,85.47008547,,,,,,,,,,,,,,,,673.8888,674.9388,674.9388,675.6213,return,0.2589,,98.69791667,,,,,,FBP-RB-19.png,0.45,1.2,45,0.25,,,,,,,,,,,,,0,45,45,44,1,,,,,,,,,,,,,,,,,,,,,,,,,,,,
,,,,,SPR24_085,21,female,2024-04-24_09h26.22.594,jersey_experiment_5_v0,2023.2.2,Win32,85.47008547,,,,,,,,,,,,,,,,675.6215,676.9278,676.9278,678.2065,return,0.5831,,98.828125,,,,,,FBP-YG-17.png,0.43,1.2,19,0.5,,,,,,,,,,,,,0,46,46,18,1,,,,,,,,,,,,,,,,,,,,,,,,,,,,
,,,,,SPR24_085,21,female,2024-04-24_09h26.22.594,jersey_experiment_5_v0,2023.2.2,Win32,85.47008547,,,,,,,,,,,,,,,,678.2067,679.2582,679.2582,679.8535,return,0.2179,,98.828125,,,,,,FBP-OG-81.png,0.45,1.2,10,0.25,,,,,,,,,,,,,0,47,47,9,1,,,,,,,,,,,,,,,,,,,,,,,,,,,,
,,,,,SPR24_085,21,female,2024-04-24_09h26.22.594,jersey_experiment_5_v0,2023.2.2,Win32,85.47008547,,,,,,,,,,,,,,,,679.8537,681.1477,681.1478,681.6822,return,0.0951,,96.875,,,,,,FBP-PT-18.png,0.45,1.2,55,0.5,,,,,,,,,,,,,0,48,48,54,1,,,,,,,,,,,,,,,,,,,,,,,,,,,,
,,,,,SPR24_085,21,female,2024-04-24_09h26.22.594,jersey_experiment_5_v0,2023.2.2,Win32,85.47008547,,,,,,,,,,,,,,,,681.6824,682.7242,682.7243,684.1993,return,0.0602,,74.73958333,,,,,,FBP-RB-17.png,0.4,1.2,33,0.25,,,,,,,,,,,,,0,49,49,32,1,,,,,,,,,,,,,,,,,,,,,,,,,,,,
,,,,,SPR24_085,21,female,2024-04-24_09h26.22.594,jersey_experiment_5_v0,2023.2.2,Win32,85.47008547,,,,,,,,,,,,,,,,684.1995,685.245,685.245,687.1978,return,0.9046,,24.73958333,,,,,,FBP-OG-91.png,0.4,1.2,13,0.25,,,,,,,,,,,,,0,50,50,12,1,,,,,,,,,,,,,,,,,,,,,,,,,,,,
,,,,,SPR24_085,21,female,2024-04-24_09h26.22.594,jersey_experiment_5_v0,2023.2.2,Win32,85.47008547,,,,,,,,,,,,,,,,687.198,688.4919,688.492,690.1297,return,0.6493,,24.609375,,,,,,FBP-PT-19.png,0.4,1.2,58,0.5,,,,,,,,,,,,,0,51,51,57,1,,,,,,,,,,,,,,,,,,,,,,,,,,,,
,,,,,SPR24_085,21,female,2024-04-24_09h26.22.594,jersey_experiment_5_v0,2023.2.2,Win32,85.47008547,,,,,,,,,,,,,,,,690.1299,691.4305,691.4305,693.054,return,0.1361,,4.427083333,,,,,,FBP-YG-19.png,0.37,1.2,27,0.5,,,,,,,,,,,,,0,52,52,26,1,,,,,,,,,,,,,,,,,,,,,,,,,,,,
,,,,,SPR24_085,21,female,2024-04-24_09h26.22.594,jersey_experiment_5_v0,2023.2.2,Win32,85.47008547,,,,,,,,,,,,,,,,693.0543,694.3481,694.3481,695.8925,return,0.4235,,4.6875,,,,,,FBP-PT-18.png,0.37,1.2,52,0.5,,,,,,,,,,,,,0,53,53,51,1,,,,,,,,,,,,,,,,,,,,,,,,,,,,
,,,,,SPR24_085,21,female,2024-04-24_09h26.22.594,jersey_experiment_5_v0,2023.2.2,Win32,85.47008547,,,,,,,,,,,,,,,,695.8926,696.9408,696.9408,702.7719,return,4.2368,,61.45833333,,,,,,FBP-OG-71.png,0.45,1.2,5,0.25,,,,,,,,,,,,,0,54,54,4,1,,,,,,,,,,,,,,,,,,,,,,,,,,,,
,,,,,SPR24_085,21,female,2024-04-24_09h26.22.594,jersey_experiment_5_v0,2023.2.2,Win32,85.47008547,,,,,,,,,,,,,,,,702.7722,703.8221,703.8221,705.1368,return,0.4394,,97.265625,,,,,,FBP-OG-91.png,0.45,1.2,15,0.25,,,,,,,,,,,,,0,55,55,14,1,,,,,,,,,,,,,,,,,,,,,,,,,,,,
,,,,,SPR24_085,21,female,2024-04-24_09h26.22.594,jersey_experiment_5_v0,2023.2.2,Win32,85.47008547,,,,,,,,,,,,,,,,705.137,706.4341,706.4342,708.4664,return,1.0954,,2.213541667,,,,,,FBP-PT-17.png,0.35,1.2,46,0.5,,,,,,,,,,,,,0,56,56,45,1,,,,,,,,,,,,,,,,,,,,,,,,,,,,
,,,,,SPR24_085,21,female,2024-04-24_09h26.22.594,jersey_experiment_5_v0,2023.2.2,Win32,85.47008547,,,,,,,,,,,,,,,,708.4665,709.5165,709.5165,711.2708,return,0.6015,,98.30729167,,,,,,FBP-OG-81.png,0.43,1.2,9,0.25,,,,,,,,,,,,,0,57,57,8,1,,,,,,,,,,,,,,,,,,,,,,,,,,,,
,,,,,SPR24_085,21,female,2024-04-24_09h26.22.594,jersey_experiment_5_v0,2023.2.2,Win32,85.47008547,,,,,,,,,,,,,,,,711.271,712.3136,712.3136,713.7286,return,0.3867,,11.97916667,,,,,,FBP-OG-91.png,0.37,1.2,12,0.25,,,,,,,,,,,,,0,58,58,11,1,,,,,,,,,,,,,,,,,,,,,,,,,,,,
,,,,,SPR24_085,21,female,2024-04-24_09h26.22.594,jersey_experiment_5_v0,2023.2.2,Win32,85.47008547,,,,,,,,,,,,,,,,713.7287,714.7723,714.7723,715.5371,return,0.1801,,13.80208333,,,,,,FBP-RB-18.png,0.4,1.2,38,0.25,,,,,,,,,,,,,0,59,59,37,1,,,,,,,,,,,,,,,,,,,,,,,,,,,,
,,,,,SPR24_085,21,female,2024-04-24_09h26.22.594,jersey_experiment_5_v0,2023.2.2,Win32,85.47008547,,,,,,,,,,,,,,,,715.539,716.8314,716.8315,717.9639,return,0.2827,,98.69791667,,,,,,FBP-YG-91.png,0.45,1.2,30,0.5,,,,,,,,,,,,,,,,,,0,0,0,29,1,,,,,,,,,,,,,,,,,,,,,,,
,,,,,SPR24_085,21,female,2024-04-24_09h26.22.594,jersey_experiment_5_v0,2023.2.2,Win32,85.47008547,,,,,,,,,,,,,,,,717.9642,719.0118,719.0118,719.7138,return,0.1774,,98.69791667,,,,,,FBP-RB-91.png,0.43,1.2,44,0.25,,,,,,,,,,,,,,,,,,0,1,1,43,1,,,,,,,,,,,,,,,,,,,,,,,
,,,,,SPR24_085,21,female,2024-04-24_09h26.22.594,jersey_experiment_5_v0,2023.2.2,Win32,85.47008547,,,,,,,,,,,,,,,,719.7139,721.008,721.008,722.095,return,0.1416,,36.328125,,,,,,FBP-PT-81.png,0.37,1.2,52,0.5,,,,,,,,,,,,,,,,,,0,2,2,51,1,,,,,,,,,,,,,,,,,,,,,,,
,,,,,SPR24_085,21,female,2024-04-24_09h26.22.594,jersey_experiment_5_v0,2023.2.2,Win32,85.47008547,,,,,,,,,,,,,,,,722.0952,723.1405,723.1405,725.0552,return,0.9104,,86.328125,,,,,,FBP-OG-18.png,0.4,1.2,8,0.25,,,,,,,,,,,,,,,,,,0,3,3,7,1,,,,,,,,,,,,,,,,,,,,,,,
,,,,,SPR24_085,21,female,2024-04-24_09h26.22.594,jersey_experiment_5_v0,2023.2.2,Win32,85.47008547,,,,,,,,,,,,,,,,725.0555,726.1022,726.1022,727.714,return,0.0968,,11.58854167,,,,,,FBP-OG-19.png,0.35,1.2,11,0.25,,,,,,,,,,,,,,,,,,0,4,4,10,1,,,,,,,,,,,,,,,,,,,,,,,
,,,,,SPR24_085,21,female,2024-04-24_09h26.22.594,jersey_experiment_5_v0,2023.2.2,Win32,85.47008547,,,,,,,,,,,,,,,,727.7143,728.7641,728.7641,729.6483,return,0.0842,,5.729166667,,,,,,FBP-OG-17.png,0.37,1.2,2,0.25,,,,,,,,,,,,,,,,,,0,5,5,1,1,,,,,,,,,,,,,,,,,,,,,,,
,,,,,SPR24_085,21,female,2024-04-24_09h26.22.594,jersey_experiment_5_v0,2023.2.2,Win32,85.47008547,,,,,,,,,,,,,,,,729.6484,730.6908,730.6909,731.8467,return,0.1415,,1.5625,,,,,,FBP-OG-19.png,0.37,1.2,12,0.25,,,,,,,,,,,,,,,,,,0,6,6,11,1,,,,,,,,,,,,,,,,,,,,,,,
,,,,,SPR24_085,21,female,2024-04-24_09h26.22.594,jersey_experiment_5_v0,2023.2.2,Win32,85.47008547,,,,,,,,,,,,,,,,731.847,732.8957,732.8959,735.4609,return,1.3895,,56.90104167,,,,,,FBP-RB-71.png,0.35,1.2,31,0.25,,,,,,,,,,,,,,,,,,0,7,7,30,1,,,,,,,,,,,,,,,,,,,,,,,
,,,,,SPR24_085,21,female,2024-04-24_09h26.22.594,jersey_experiment_5_v0,2023.2.2,Win32,85.47008547,,,,,,,,,,,,,,,,735.4612,736.5053,736.5053,737.6673,return,0.1194,,97.91666667,,,,,,FBP-OG-18.png,0.45,1.2,10,0.25,,,,,,,,,,,,,,,,,,0,8,8,9,1,,,,,,,,,,,,,,,,,,,,,,,
,,,,,SPR24_085,21,female,2024-04-24_09h26.22.594,jersey_experiment_5_v0,2023.2.2,Win32,85.47008547,,,,,,,,,,,,,,,,737.6676,738.9672,738.9673,739.9497,return,0.182,,74.21875,,,,,,FBP-YG-81.png,0.37,1.2,22,0.5,,,,,,,,,,,,,,,,,,0,9,9,21,1,,,,,,,,,,,,,,,,,,,,,,,
,,,,,SPR24_085,21,female,2024-04-24_09h26.22.594,jersey_experiment_5_v0,2023.2.2,Win32,85.47008547,,,,,,,,,,,,,,,,739.95,741.2482,741.2483,741.8849,return,0.1899,,74.08854167,,,,,,FBP-PT-71.png,0.4,1.2,48,0.5,,,,,,,,,,,,,,,,,,0,10,10,47,1,,,,,,,,,,,,,,,,,,,,,,,
,,,,,SPR24_085,21,female,2024-04-24_09h26.22.594,jersey_experiment_5_v0,2023.2.2,Win32,85.47008547,,,,,,,,,,,,,,,,741.8851,743.1777,743.1778,745.0913,return,0.1196,,23.95833333,,,,,,FBP-YG-91.png,0.35,1.2,26,0.5,,,,,,,,,,,,,,,,,,0,11,11,25,1,,,,,,,,,,,,,,,,,,,,,,,
,,,,,SPR24_085,21,female,2024-04-24_09h26.22.594,jersey_experiment_5_v0,2023.2.2,Win32,85.47008547,,,,,,,,,,,,,,,,745.0915,746.3881,746.3882,747.8133,return,0.1544,,75.390625,,,,,,FBP-PT-71.png,0.43,1.2,49,0.5,,,,,,,,,,,,,,,,,,0,12,12,48,1,,,,,,,,,,,,,,,,,,,,,,,
,,,,,SPR24_085,21,female,2024-04-24_09h26.22.594,jersey_experiment_5_v0,2023.2.2,Win32,85.47008547,,,,,,,,,,,,,,,,747.8134,749.1183,749.1184,749.8369,return,0.0839,,98.69791667,,,,,,FBP-PT-91.png,0.45,1.2,60,0.5,,,,,,,,,,,,,,,,,,0,13,13,59,1,,,,,,,,,,,,,,,,,,,,,,,
,,,,,SPR24_085,21,female,2024-04-24_09h26.22.594,jersey_experiment_5_v0,2023.2.2,Win32,85.47008547,,,,,,,,,,,,,,,,749.8371,751.1415,751.1415,751.7149,return,0.3784,,98.56770833,,,,,,FBP-YG-81.png,0.43,1.2,24,0.5,,,,,,,,,,,,,,,,,,0,14,14,23,1,,,,,,,,,,,,,,,,,,,,,,,
,,,,,SPR24_085,21,female,2024-04-24_09h26.22.594,jersey_experiment_5_v0,2023.2.2,Win32,85.47008547,,,,,,,,,,,,,,,,751.7151,752.765,752.7651,753.4209,return,0.1138,,98.30729167,,,,,,FBP-RB-81.png,0.45,1.2,40,0.25,,,,,,,,,,,,,,,,,,0,15,15,39,1,,,,,,,,,,,,,,,,,,,,,,,
,,,,,SPR24_085,21,female,2024-04-24_09h26.22.594,jersey_experiment_5_v0,2023.2.2,Win32,85.47008547,,,,,,,,,,,,,,,,753.4211,754.4679,754.468,755.0369,return,0.1306,,97.39583333,,,,,,FBP-RB-81.png,0.43,1.2,39,0.25,,,,,,,,,,,,,,,,,,0,16,16,38,1,,,,,,,,,,,,,,,,,,,,,,,
,,,,,SPR24_085,21,female,2024-04-24_09h26.22.594,jersey_experiment_5_v0,2023.2.2,Win32,85.47008547,,,,,,,,,,,,,,,,755.037,756.083,756.083,757.4612,return,0.1079,,25.390625,,,,,,FBP-OG-18.png,0.35,1.2,6,0.25,,,,,,,,,,,,,,,,,,0,17,17,5,1,,,,,,,,,,,,,,,,,,,,,,,
,,,,,SPR24_085,21,female,2024-04-24_09h26.22.594,jersey_experiment_5_v0,2023.2.2,Win32,85.47008547,,,,,,,,,,,,,,,,757.4614,758.7548,758.7548,759.4479,return,0.0712,,97.00520833,,,,,,FBP-YG-71.png,0.45,1.2,20,0.5,,,,,,,,,,,,,,,,,,0,18,18,19,1,,,,,,,,,,,,,,,,,,,,,,,
,,,,,SPR24_085,21,female,2024-04-24_09h26.22.594,jersey_experiment_5_v0,2023.2.2,Win32,85.47008547,,,,,,,,,,,,,,,,759.448,760.7503,760.7503,761.3067,return,0.1886,,97.00520833,,,,,,FBP-YG-91.png,0.43,1.2,29,0.5,,,,,,,,,,,,,,,,,,0,19,19,28,1,,,,,,,,,,,,,,,,,,,,,,,
,,,,,SPR24_085,21,female,2024-04-24_09h26.22.594,jersey_experiment_5_v0,2023.2.2,Win32,85.47008547,,,,,,,,,,,,,,,,761.3068,762.6094,762.6094,764.295,return,0.1884,,65.234375,,,,,,FBP-YG-71.png,0.35,1.2,16,0.5,,,,,,,,,,,,,,,,,,0,20,20,15,1,,,,,,,,,,,,,,,,,,,,,,,
,,,,,SPR24_085,21,female,2024-04-24_09h26.22.594,jersey_experiment_5_v0,2023.2.2,Win32,85.47008547,,,,,,,,,,,,,,,,764.2951,765.3389,765.3389,766.8021,return,0.5781,,86.19791667,,,,,,FBP-OG-17.png,0.43,1.2,4,0.25,,,,,,,,,,,,,,,,,,0,21,21,3,1,,,,,,,,,,,,,,,,,,,,,,,
,,,,,SPR24_085,21,female,2024-04-24_09h26.22.594,jersey_experiment_5_v0,2023.2.2,Win32,85.47008547,,,,,,,,,,,,,,,,766.8022,767.8477,767.8478,768.9906,return,0.0943,,86.328125,,,,,,FBP-OG-19.png,0.43,1.2,14,0.25,,,,,,,,,,,,,,,,,,0,22,22,13,1,,,,,,,,,,,,,,,,,,,,,,,
,,,,,SPR24_085,21,female,2024-04-24_09h26.22.594,jersey_experiment_5_v0,2023.2.2,Win32,85.47008547,,,,,,,,,,,,,,,,768.9907,770.0361,770.0361,770.7508,return,0.0873,,96.74479167,,,,,,FBP-RB-71.png,0.45,1.2,35,0.25,,,,,,,,,,,,,,,,,,0,23,23,34,1,,,,,,,,,,,,,,,,,,,,,,,
,,,,,SPR24_085,21,female,2024-04-24_09h26.22.594,jersey_experiment_5_v0,2023.2.2,Win32,85.47008547,,,,,,,,,,,,,,,,770.751,772.0452,772.0452,772.8491,return,0.0833,,14.97395833,,,,,,FBP-PT-91.png,0.35,1.2,56,0.5,,,,,,,,,,,,,,,,,,0,24,24,55,1,,,,,,,,,,,,,,,,,,,,,,,
,,,,,SPR24_085,21,female,2024-04-24_09h26.22.594,jersey_experiment_5_v0,2023.2.2,Win32,85.47008547,,,,,,,,,,,,,,,,772.8492,773.8955,773.8955,774.6954,return,0.0579,,91.53645833,,,,,,FBP-OG-18.png,0.43,1.2,9,0.25,,,,,,,,,,,,,,,,,,0,25,25,8,1,,,,,,,,,,,,,,,,,,,,,,,
,,,,,SPR24_085,21,female,2024-04-24_09h26.22.594,jersey_experiment_5_v0,2023.2.2,Win32,85.47008547,,,,,,,,,,,,,,,,774.6956,775.9893,775.9893,776.9276,return,0.1579,,14.58333333,,,,,,FBP-PT-81.png,0.35,1.2,51,0.5,,,,,,,,,,,,,,,,,,0,26,26,50,1,,,,,,,,,,,,,,,,,,,,,,,
,,,,,SPR24_085,21,female,2024-04-24_09h26.22.594,jersey_experiment_5_v0,2023.2.2,Win32,85.47008547,,,,,,,,,,,,,,,,776.9278,777.9788,777.979,778.9276,return,0.1451,,89.0625,,,,,,FBP-RB-71.png,0.43,1.2,34,0.25,,,,,,,,,,,,,,,,,,0,27,27,33,1,,,,,,,,,,,,,,,,,,,,,,,
,,,,,SPR24_085,21,female,2024-04-24_09h26.22.594,jersey_experiment_5_v0,2023.2.2,Win32,85.47008547,,,,,,,,,,,,,,,,778.9278,780.2248,780.2248,781.1086,return,0.1075,,35.67708333,,,,,,FBP-PT-71.png,0.37,1.2,47,0.5,,,,,,,,,,,,,,,,,,0,28,28,46,1,,,,,,,,,,,,,,,,,,,,,,,
,,,,,SPR24_085,21,female,2024-04-24_09h26.22.594,jersey_experiment_5_v0,2023.2.2,Win32,85.47008547,,,,,,,,,,,,,,,,781.1088,782.4132,782.4132,783.5427,return,0.5754,,71.484375,,,,,,FBP-PT-91.png,0.4,1.2,58,0.5,,,,,,,,,,,,,,,,,,0,29,29,57,1,,,,,,,,,,,,,,,,,,,,,,,
,,,,,SPR24_085,21,female,2024-04-24_09h26.22.594,jersey_experiment_5_v0,2023.2.2,Win32,85.47008547,,,,,,,,,,,,,,,,783.5429,784.5867,784.5867,785.3308,return,0.0944,,73.046875,,,,,,FBP-OG-18.png,0.37,1.2,7,0.25,,,,,,,,,,,,,,,,,,0,30,30,6,1,,,,,,,,,,,,,,,,,,,,,,,
,,,,,SPR24_085,21,female,2024-04-24_09h26.22.594,jersey_experiment_5_v0,2023.2.2,Win32,85.47008547,,,,,,,,,,,,,,,,785.3309,786.6376,786.6377,787.2926,return,0.2304,,83.46354167,,,,,,FBP-PT-81.png,0.45,1.2,55,0.5,,,,,,,,,,,,,,,,,,0,31,31,54,1,,,,,,,,,,,,,,,,,,,,,,,
,,,,,SPR24_085,21,female,2024-04-24_09h26.22.594,jersey_experiment_5_v0,2023.2.2,Win32,85.47008547,,,,,,,,,,,,,,,,787.2928,788.3425,788.3426,789.4854,return,0.1074,,18.48958333,,,,,,FBP-OG-17.png,0.35,1.2,1,0.25,,,,,,,,,,,,,,,,,,0,32,32,0,1,,,,,,,,,,,,,,,,,,,,,,,
,,,,,SPR24_085,21,female,2024-04-24_09h26.22.594,jersey_experiment_5_v0,2023.2.2,Win32,85.47008547,,,,,,,,,,,,,,,,789.4855,790.7795,790.7796,791.6607,return,0.118,,97.78645833,,,,,,FBP-PT-71.png,0.45,1.2,50,0.5,,,,,,,,,,,,,,,,,,0,33,33,49,1,,,,,,,,,,,,,,,,,,,,,,,
,,,,,SPR24_085,21,female,2024-04-24_09h26.22.594,jersey_experiment_5_v0,2023.2.2,Win32,85.47008547,,,,,,,,,,,,,,,,791.6608,792.9544,792.9544,795.0224,return,1.1478,,96.61458333,,,,,,FBP-YG-71.png,0.43,1.2,19,0.5,,,,,,,,,,,,,,,,,,0,34,34,18,1,,,,,,,,,,,,,,,,,,,,,,,
,,,,,SPR24_085,21,female,2024-04-24_09h26.22.594,jersey_experiment_5_v0,2023.2.2,Win32,85.47008547,,,,,,,,,,,,,,,,795.0226,796.0738,796.0739,798.6151,return,0.1885,,92.70833333,,,,,,FBP-OG-19.png,0.45,1.2,15,0.25,,,,,,,,,,,,,,,,,,0,35,35,14,1,,,,,,,,,,,,,,,,,,,,,,,
,,,,,SPR24_085,21,female,2024-04-24_09h26.22.594,jersey_experiment_5_v0,2023.2.2,Win32,85.47008547,,,,,,,,,,,,,,,,798.6153,799.9196,799.9196,801.1326,return,0.1647,,36.45833333,,,,,,FBP-PT-81.png,0.4,1.2,53,0.5,,,,,,,,,,,,,,,,,,0,36,36,52,1,,,,,,,,,,,,,,,,,,,,,,,
,,,,,SPR24_085,21,female,2024-04-24_09h26.22.594,jersey_experiment_5_v0,2023.2.2,Win32,85.47008547,,,,,,,,,,,,,,,,801.1327,802.4267,802.4267,803.1329,return,0.0839,,55.33854167,,,,,,FBP-PT-91.png,0.43,1.2,59,0.5,,,,,,,,,,,,,,,,,,0,37,37,58,1,,,,,,,,,,,,,,,,,,,,,,,
,,,,,SPR24_085,21,female,2024-04-24_09h26.22.594,jersey_experiment_5_v0,2023.2.2,Win32,85.47008547,,,,,,,,,,,,,,,,803.1332,804.4271,804.4271,805.3638,return,0.2123,,14.0625,,,,,,FBP-YG-91.png,0.37,1.2,27,0.5,,,,,,,,,,,,,,,,,,0,38,38,26,1,,,,,,,,,,,,,,,,,,,,,,,
,,,,,SPR24_085,21,female,2024-04-24_09h26.22.594,jersey_experiment_5_v0,2023.2.2,Win32,85.47008547,,,,,,,,,,,,,,,,805.3639,806.414,806.414,807.2611,return,0.2827,,79.6875,,,,,,FBP-RB-71.png,0.37,1.2,32,0.25,,,,,,,,,,,,,,,,,,0,39,39,31,1,,,,,,,,,,,,,,,,,,,,,,,
,,,,,SPR24_085,21,female,2024-04-24_09h26.22.594,jersey_experiment_5_v0,2023.2.2,Win32,85.47008547,,,,,,,,,,,,,,,,807.2612,808.309,808.309,808.9757,return,0.1209,,96.74479167,,,,,,FBP-OG-19.png,0.4,1.2,13,0.25,,,,,,,,,,,,,,,,,,0,40,40,12,1,,,,,,,,,,,,,,,,,,,,,,,
,,,,,SPR24_085,21,female,2024-04-24_09h26.22.594,jersey_experiment_5_v0,2023.2.2,Win32,85.47008547,,,,,,,,,,,,,,,,808.9759,810.0228,810.0228,810.8983,return,0.2591,,91.66666667,,,,,,FBP-OG-17.png,0.4,1.2,3,0.25,,,,,,,,,,,,,,,,,,0,41,41,2,1,,,,,,,,,,,,,,,,,,,,,,,
,,,,,SPR24_085,21,female,2024-04-24_09h26.22.594,jersey_experiment_5_v0,2023.2.2,Win32,85.47008547,,,,,,,,,,,,,,,,810.8986,812.1914,812.1915,813.823,return,0.4642,,16.53645833,,,,,,FBP-PT-71.png,0.35,1.2,46,0.5,,,,,,,,,,,,,,,,,,0,42,42,45,1,,,,,,,,,,,,,,,,,,,,,,,
,,,,,SPR24_085,21,female,2024-04-24_09h26.22.594,jersey_experiment_5_v0,2023.2.2,Win32,85.47008547,,,,,,,,,,,,,,,,813.8232,815.1203,815.1203,816.6113,return,0.5431,,89.453125,,,,,,FBP-YG-91.png,0.4,1.2,28,0.5,,,,,,,,,,,,,,,,,,0,43,43,27,1,,,,,,,,,,,,,,,,,,,,,,,
,,,,,SPR24_085,21,female,2024-04-24_09h26.22.594,jersey_experiment_5_v0,2023.2.2,Win32,85.47008547,,,,,,,,,,,,,,,,816.6116,817.6612,817.6613,818.8851,return,0.6827,,98.30729167,,,,,,FBP-RB-91.png,0.45,1.2,45,0.25,,,,,,,,,,,,,,,,,,0,44,44,44,1,,,,,,,,,,,,,,,,,,,,,,,
,,,,,SPR24_085,21,female,2024-04-24_09h26.22.594,jersey_experiment_5_v0,2023.2.2,Win32,85.47008547,,,,,,,,,,,,,,,,818.8852,819.9291,819.9291,821.1569,return,0.06,,13.93229167,,,,,,FBP-RB-91.png,0.35,1.2,41,0.25,,,,,,,,,,,,,,,,,,0,45,45,40,1,,,,,,,,,,,,,,,,,,,,,,,
,,,,,SPR24_085,21,female,2024-04-24_09h26.22.594,jersey_experiment_5_v0,2023.2.2,Win32,85.47008547,,,,,,,,,,,,,,,,821.1571,822.4616,822.4616,823.3323,return,0.1754,,4.6875,,,,,,FBP-YG-81.png,0.35,1.2,21,0.5,,,,,,,,,,,,,,,,,,0,46,46,20,1,,,,,,,,,,,,,,,,,,,,,,,
,,,,,SPR24_085,21,female,2024-04-24_09h26.22.594,jersey_experiment_5_v0,2023.2.2,Win32,85.47008547,,,,,,,,,,,,,,,,823.3323,824.3763,824.3763,825.6982,return,0.1541,,97.265625,,,,,,FBP-OG-17.png,0.45,1.2,5,0.25,,,,,,,,,,,,,,,,,,0,47,47,4,1,,,,,,,,,,,,,,,,,,,,,,,
,,,,,SPR24_085,21,female,2024-04-24_09h26.22.594,jersey_experiment_5_v0,2023.2.2,Win32,85.47008547,,,,,,,,,,,,,,,,825.6984,826.9925,826.9925,827.8117,return,0.0111,,74.86979167,,,,,,FBP-YG-81.png,0.4,1.2,23,0.5,,,,,,,,,,,,,,,,,,0,48,48,22,1,,,,,,,,,,,,,,,,,,,,,,,
,,,,,SPR24_085,21,female,2024-04-24_09h26.22.594,jersey_experiment_5_v0,2023.2.2,Win32,85.47008547,,,,,,,,,,,,,,,,827.8118,828.8619,828.8619,830.353,return,0.602,,24.86979167,,,,,,FBP-RB-81.png,0.35,1.2,36,0.25,,,,,,,,,,,,,,,,,,0,49,49,35,1,,,,,,,,,,,,,,,,,,,,,,,
,,,,,SPR24_085,21,female,2024-04-24_09h26.22.594,jersey_experiment_5_v0,2023.2.2,Win32,85.47008547,,,,,,,,,,,,,,,,830.3532,831.6514,831.6514,832.7105,return,0.1177,,98.56770833,,,,,,FBP-PT-81.png,0.43,1.2,54,0.5,,,,,,,,,,,,,,,,,,0,50,50,53,1,,,,,,,,,,,,,,,,,,,,,,,
,,,,,SPR24_085,21,female,2024-04-24_09h26.22.594,jersey_experiment_5_v0,2023.2.2,Win32,85.47008547,,,,,,,,,,,,,,,,832.7107,833.753,833.753,835.7559,return,0.6352,,49.08854167,,,,,,FBP-RB-91.png,0.37,1.2,42,0.25,,,,,,,,,,,,,,,,,,0,51,51,41,1,,,,,,,,,,,,,,,,,,,,,,,
,,,,,SPR24_085,21,female,2024-04-24_09h26.22.594,jersey_experiment_5_v0,2023.2.2,Win32,85.47008547,,,,,,,,,,,,,,,,835.756,836.805,836.8051,837.9062,return,0.0496,,75.26041667,,,,,,FBP-RB-71.png,0.4,1.2,33,0.25,,,,,,,,,,,,,,,,,,0,52,52,32,1,,,,,,,,,,,,,,,,,,,,,,,
,,,,,SPR24_085,21,female,2024-04-24_09h26.22.594,jersey_experiment_5_v0,2023.2.2,Win32,85.47008547,,,,,,,,,,,,,,,,837.9065,838.9559,838.9559,839.9919,return,0.0809,,49.47916667,,,,,,FBP-RB-81.png,0.37,1.2,37,0.25,,,,,,,,,,,,,,,,,,0,53,53,36,1,,,,,,,,,,,,,,,,,,,,,,,
,,,,,SPR24_085,21,female,2024-04-24_09h26.22.594,jersey_experiment_5_v0,2023.2.2,Win32,85.47008547,,,,,,,,,,,,,,,,839.9921,841.2856,841.2856,842.1416,return,0.1347,,99.08854167,,,,,,FBP-YG-81.png,0.45,1.2,25,0.5,,,,,,,,,,,,,,,,,,0,54,54,24,1,,,,,,,,,,,,,,,,,,,,,,,
,,,,,SPR24_085,21,female,2024-04-24_09h26.22.594,jersey_experiment_5_v0,2023.2.2,Win32,85.47008547,,,,,,,,,,,,,,,,842.1418,843.1886,843.1887,844.6507,return,0.6122,,75.52083333,,,,,,FBP-RB-81.png,0.4,1.2,38,0.25,,,,,,,,,,,,,,,,,,0,55,55,37,1,,,,,,,,,,,,,,,,,,,,,,,
,,,,,SPR24_085,21,female,2024-04-24_09h26.22.594,jersey_experiment_5_v0,2023.2.2,Win32,85.47008547,,,,,,,,,,,,,,,,844.6509,845.9537,845.9537,847.6393,return,1.0121,,48.95833333,,,,,,FBP-YG-71.png,0.4,1.2,18,0.5,,,,,,,,,,,,,,,,,,0,56,56,17,1,,,,,,,,,,,,,,,,,,,,,,,
,,,,,SPR24_085,21,female,2024-04-24_09h26.22.594,jersey_experiment_5_v0,2023.2.2,Win32,85.47008547,,,,,,,,,,,,,,,,847.6395,848.946,848.946,849.8744,return,0.2354,,73.828125,,,,,,FBP-YG-71.png,0.37,1.2,17,0.5,,,,,,,,,,,,,,,,,,0,57,57,16,1,,,,,,,,,,,,,,,,,,,,,,,
,,,,,SPR24_085,21,female,2024-04-24_09h26.22.594,jersey_experiment_5_v0,2023.2.2,Win32,85.47008547,,,,,,,,,,,,,,,,849.8745,851.1684,851.1684,853.4171,return,0.5781,,50.390625,,,,,,FBP-PT-91.png,0.37,1.2,57,0.5,,,,,,,,,,,,,,,,,,0,58,58,56,1,,,,,,,,,,,,,,,,,,,,,,,
,,,,,SPR24_085,21,female,2024-04-24_09h26.22.594,jersey_experiment_5_v0,2023.2.2,Win32,85.47008547,,,,,,,,,,,,,,,,853.4173,854.4625,854.4625,855.676,return,0.0708,,74.47916667,,,,,,FBP-RB-91.png,0.4,1.2,43,0.25,,,,,,,,,,,,,,,,,,0,59,59,42,1,,,,,,,,,,,,,,,,,,,,,,,
,,,,,SPR24_085,21,female,2024-04-24_09h26.22.594,jersey_experiment_5_v0,2023.2.2,Win32,85.47008547,,,,,,,,,,,,,,,,,,,,,,,,,,,,,,,,,,,,,,,,,,,,,,,,,,,,,,,,855.6763,863.9544,return,8.2614,,,,,,,,,,,,,,,,,,,
,,,,,SPR24_085,21,female,2024-04-24_09h26.22.594,jersey_experiment_5_v0,2023.2.2,Win32,85.47008547,,,,,,,,,,,,,,,,,,,,,,,,,,,,,,,,,,,,,,,,,,,,,,,,,,,,,,,,,,,,,863.9545,870.0135,1,4.4805,return,1.5589,,,,,,,,,,,,
,,,,,SPR24_085,21,female,2024-04-24_09h26.22.594,jersey_experiment_5_v0,2023.2.2,Win32,85.47008547,,,,,,,,,,,,,,,,,,,,,,,,,,,,,,,,,,,,,,,,,,,,,,,,,,,,,,,,,,,,,,,,,,,,870.0135,887.1601,not sure,right,10.4827,,,,,,
,,,,,SPR24_085,21,female,2024-04-24_09h26.22.594,jersey_experiment_5_v0,2023.2.2,Win32,85.47008547,,,,,,,,,,,,,,,,,,,,,,,,,,,,,,,,,,,,,,,,,,,,,,,,,,,,,,,,,,,,,,,,,,,,,,,,,,887.1602,892.0141,return,4.842,