requirements.started,requirements.stopped,key_resp_3.keys,key_resp_3.rt,key_resp_3.duration,Subject ID,Age,Gender,date,expName,psychopyVersion,OS,frameRate,instructions1.started,instructions1.stopped,key_resp.keys,key_resp.rt,key_resp.duration,example.started,example.stopped,enter_2.keys,enter_2.rt,enter_2.duration,instructions2.started,instructions2.stopped,enter_3.keys,enter_3.rt,enter_3.duration,image.started,image.stopped,slider_2.started,slider_2.stopped,next.keys,next.rt,next.duration,slider.response,trial_block_1.thisRepN,trial_block_1.thisTrialN,trial_block_1.thisN,trial_block_1.thisIndex,trial_block_1.ran,Path,Width,Height,Index,Duration,trial_block_2.thisRepN,trial_block_2.thisTrialN,trial_block_2.thisN,trial_block_2.thisIndex,trial_block_2.ran,rest_break.started,rest_break.stopped,end_break.started,end_break.stopped,key_resp_5.keys,key_resp_5.rt,key_resp_5.duration,trial_block_3.thisRepN,trial_block_3.thisTrialN,trial_block_3.thisN,trial_block_3.thisIndex,trial_block_3.ran,trial_block_4.thisRepN,trial_block_4.thisTrialN,trial_block_4.thisN,trial_block_4.thisIndex,trial_block_4.ran,questions_intro.started,questions_intro.stopped,enter_12.keys,enter_12.rt,enter_12.duration,question2.started,question2.stopped,question_doingbest.response,question_doingbest.rt,enter_15.keys,enter_15.rt,enter_15.duration,pattern.started,pattern.stopped,pattern_2.text,enter_17.keys,enter_17.rt,enter_17.duration,thankyou.started,thankyou.stopped,enter_14.keys,enter_14.rt,enter_14.duration
1E-04,12.4721,return,12.4655,,SPR24_063,21,female,2024-04-18_09h06.52.817,jersey_experiment_5_v0,2023.2.2,Win32,84.74576271,,,,,,,,,,,,,,,,,,,,,,,,,,,,,,,,,,,,,,,,,,,,,,,,,,,,,,,,,,,,,,,,,,,,,,,,,,,,,,
,,,,,SPR24_063,21,female,2024-04-18_09h06.52.817,jersey_experiment_5_v0,2023.2.2,Win32,84.74576271,12.4721,19.181,return,6.6954,,,,,,,,,,,,,,,,,,,,,,,,,,,,,,,,,,,,,,,,,,,,,,,,,,,,,,,,,,,,,,,,,,,,,,,,,,
,,,,,SPR24_063,21,female,2024-04-18_09h06.52.817,jersey_experiment_5_v0,2023.2.2,Win32,84.74576271,,,,,,19.1811,23.7653,return,4.5573,,,,,,,,,,,,,,,,,,,,,,,,,,,,,,,,,,,,,,,,,,,,,,,,,,,,,,,,,,,,,,,,,,,,,
,,,,,SPR24_063,21,female,2024-04-18_09h06.52.817,jersey_experiment_5_v0,2023.2.2,Win32,84.74576271,,,,,,,,,,,23.7655,46.3898,return,22.6168,,,,,,,,,,,,,,,,,,,,,,,,,,,,,,,,,,,,,,,,,,,,,,,,,,,,,,,,,,,,,,,,
,,,,,SPR24_063,21,female,2024-04-18_09h06.52.817,jersey_experiment_5_v0,2023.2.2,Win32,84.74576271,,,,,,,,,,,,,,,,46.3974,47.6952,47.6954,65.8138,return,1.1461,,25.52083333,0,0,0,1,1,FBP-OG-71.png,0.37,1.2,2,0.5,,,,,,,,,,,,,,,,,,,,,,,,,,,,,,,,,,,,,,,,,,,,,
,,,,,SPR24_063,21,female,2024-04-18_09h06.52.817,jersey_experiment_5_v0,2023.2.2,Win32,84.74576271,,,,,,,,,,,,,,,,65.8142,67.1077,67.1077,71.8373,return,1.257,,48.95833333,0,1,1,12,1,FBP-OG-91.png,0.4,1.2,13,0.5,,,,,,,,,,,,,,,,,,,,,,,,,,,,,,,,,,,,,,,,,,,,,
,,,,,SPR24_063,21,female,2024-04-18_09h06.52.817,jersey_experiment_5_v0,2023.2.2,Win32,84.74576271,,,,,,,,,,,,,,,,71.8375,73.1315,73.1315,75.0375,return,0.6591,,49.21875,0,2,2,37,1,FBP-RB-18.png,0.4,1.2,38,0.5,,,,,,,,,,,,,,,,,,,,,,,,,,,,,,,,,,,,,,,,,,,,,
,,,,,SPR24_063,21,female,2024-04-18_09h06.52.817,jersey_experiment_5_v0,2023.2.2,Win32,84.74576271,,,,,,,,,,,,,,,,75.0377,76.0846,76.0846,79.3083,return,0.1891,,72.65625,0,3,3,23,1,FBP-YG-18.png,0.43,1.2,24,0.25,,,,,,,,,,,,,,,,,,,,,,,,,,,,,,,,,,,,,,,,,,,,,
,,,,,SPR24_063,21,female,2024-04-18_09h06.52.817,jersey_experiment_5_v0,2023.2.2,Win32,84.74576271,,,,,,,,,,,,,,,,79.3086,80.3554,80.3555,83.8142,return,0.6039,,15.234375,0,4,4,15,1,FBP-YG-17.png,0.35,1.2,16,0.25,,,,,,,,,,,,,,,,,,,,,,,,,,,,,,,,,,,,,,,,,,,,,
,,,,,SPR24_063,21,female,2024-04-18_09h06.52.817,jersey_experiment_5_v0,2023.2.2,Win32,84.74576271,,,,,,,,,,,,,,,,83.8144,84.8613,84.8615,86.9554,return,0.2809,,22.13541667,0,5,5,47,1,FBP-PT-17.png,0.4,1.2,48,0.25,,,,,,,,,,,,,,,,,,,,,,,,,,,,,,,,,,,,,,,,,,,,,
,,,,,SPR24_063,21,female,2024-04-18_09h06.52.817,jersey_experiment_5_v0,2023.2.2,Win32,84.74576271,,,,,,,,,,,,,,,,86.9557,88.0026,88.0026,90.3439,return,0.1905,,44.27083333,0,6,6,22,1,FBP-YG-18.png,0.4,1.2,23,0.25,,,,,,,,,,,,,,,,,,,,,,,,,,,,,,,,,,,,,,,,,,,,,
,,,,,SPR24_063,21,female,2024-04-18_09h06.52.817,jersey_experiment_5_v0,2023.2.2,Win32,84.74576271,,,,,,,,,,,,,,,,90.3441,91.3909,91.3909,94.0735,return,0.709,,9.375,0,7,7,55,1,FBP-PT-19.png,0.35,1.2,56,0.25,,,,,,,,,,,,,,,,,,,,,,,,,,,,,,,,,,,,,,,,,,,,,
,,,,,SPR24_063,21,female,2024-04-18_09h06.52.817,jersey_experiment_5_v0,2023.2.2,Win32,84.74576271,,,,,,,,,,,,,,,,94.0738,95.3676,95.3676,98.9205,return,0.6391,,71.09375,0,8,8,2,1,FBP-OG-71.png,0.4,1.2,3,0.5,,,,,,,,,,,,,,,,,,,,,,,,,,,,,,,,,,,,,,,,,,,,,
,,,,,SPR24_063,21,female,2024-04-18_09h06.52.817,jersey_experiment_5_v0,2023.2.2,Win32,84.74576271,,,,,,,,,,,,,,,,98.9208,100.2147,100.2148,102.1092,return,0.367,,70.57291667,0,9,9,11,1,FBP-OG-91.png,0.37,1.2,12,0.5,,,,,,,,,,,,,,,,,,,,,,,,,,,,,,,,,,,,,,,,,,,,,
,,,,,SPR24_063,21,female,2024-04-18_09h06.52.817,jersey_experiment_5_v0,2023.2.2,Win32,84.74576271,,,,,,,,,,,,,,,,102.1093,103.1561,103.1562,106.2034,return,0.8248,,23.4375,0,10,10,20,1,FBP-YG-18.png,0.35,1.2,21,0.25,,,,,,,,,,,,,,,,,,,,,,,,,,,,,,,,,,,,,,,,,,,,,
,,,,,SPR24_063,21,female,2024-04-18_09h06.52.817,jersey_experiment_5_v0,2023.2.2,Win32,84.74576271,,,,,,,,,,,,,,,,106.2037,107.4975,107.4975,110.2505,return,0.6965,,95.44270833,0,11,11,38,1,FBP-RB-18.png,0.43,1.2,39,0.5,,,,,,,,,,,,,,,,,,,,,,,,,,,,,,,,,,,,,,,,,,,,,
,,,,,SPR24_063,21,female,2024-04-18_09h06.52.817,jersey_experiment_5_v0,2023.2.2,Win32,84.74576271,,,,,,,,,,,,,,,,110.2508,111.5446,111.5446,113.5565,return,0.747,,99.47916667,0,12,12,14,1,FBP-OG-91.png,0.45,1.2,15,0.5,,,,,,,,,,,,,,,,,,,,,,,,,,,,,,,,,,,,,,,,,,,,,
,,,,,SPR24_063,21,female,2024-04-18_09h06.52.817,jersey_experiment_5_v0,2023.2.2,Win32,84.74576271,,,,,,,,,,,,,,,,113.5566,114.6036,114.6037,116.2978,return,0.356,,99.47916667,0,13,13,49,1,FBP-PT-17.png,0.45,1.2,50,0.25,,,,,,,,,,,,,,,,,,,,,,,,,,,,,,,,,,,,,,,,,,,,,
,,,,,SPR24_063,21,female,2024-04-18_09h06.52.817,jersey_experiment_5_v0,2023.2.2,Win32,84.74576271,,,,,,,,,,,,,,,,116.2981,117.3449,117.3449,120.9804,return,0.6176,,17.83854167,0,14,14,26,1,FBP-YG-19.png,0.37,1.2,27,0.25,,,,,,,,,,,,,,,,,,,,,,,,,,,,,,,,,,,,,,,,,,,,,
,,,,,SPR24_063,21,female,2024-04-18_09h06.52.817,jersey_experiment_5_v0,2023.2.2,Win32,84.74576271,,,,,,,,,,,,,,,,120.9805,122.0275,122.0275,124.9099,return,0.3203,,17.70833333,0,15,15,21,1,FBP-YG-18.png,0.37,1.2,22,0.25,,,,,,,,,,,,,,,,,,,,,,,,,,,,,,,,,,,,,,,,,,,,,
,,,,,SPR24_063,21,female,2024-04-18_09h06.52.817,jersey_experiment_5_v0,2023.2.2,Win32,84.74576271,,,,,,,,,,,,,,,,124.9102,125.9567,125.9568,129.0042,return,0.2347,,66.92708333,0,16,16,58,1,FBP-PT-19.png,0.43,1.2,59,0.25,,,,,,,,,,,,,,,,,,,,,,,,,,,,,,,,,,,,,,,,,,,,,
,,,,,SPR24_063,21,female,2024-04-18_09h06.52.817,jersey_experiment_5_v0,2023.2.2,Win32,84.74576271,,,,,,,,,,,,,,,,129.0045,130.2983,130.2984,132.7337,return,0.362,,76.30208333,0,17,17,3,1,FBP-OG-71.png,0.43,1.2,4,0.5,,,,,,,,,,,,,,,,,,,,,,,,,,,,,,,,,,,,,,,,,,,,,
,,,,,SPR24_063,21,female,2024-04-18_09h06.52.817,jersey_experiment_5_v0,2023.2.2,Win32,84.74576271,,,,,,,,,,,,,,,,132.7339,133.7807,133.7808,136.875,return,0.7402,,64.97395833,0,18,18,57,1,FBP-PT-19.png,0.4,1.2,58,0.25,,,,,,,,,,,,,,,,,,,,,,,,,,,,,,,,,,,,,,,,,,,,,
,,,,,SPR24_063,21,female,2024-04-18_09h06.52.817,jersey_experiment_5_v0,2023.2.2,Win32,84.74576271,,,,,,,,,,,,,,,,136.8752,138.169,138.1691,140.581,return,0.2541,,25.91145833,0,19,19,31,1,FBP-RB-17.png,0.37,1.2,32,0.5,,,,,,,,,,,,,,,,,,,,,,,,,,,,,,,,,,,,,,,,,,,,,
,,,,,SPR24_063,21,female,2024-04-18_09h06.52.817,jersey_experiment_5_v0,2023.2.2,Win32,84.74576271,,,,,,,,,,,,,,,,140.5812,141.875,141.8751,143.9577,return,0.6418,,78.38541667,0,20,20,43,1,FBP-RB-19.png,0.43,1.2,44,0.5,,,,,,,,,,,,,,,,,,,,,,,,,,,,,,,,,,,,,,,,,,,,,
,,,,,SPR24_063,21,female,2024-04-18_09h06.52.817,jersey_experiment_5_v0,2023.2.2,Win32,84.74576271,,,,,,,,,,,,,,,,143.9579,145.0047,145.0047,147.5577,return,0.4771,,52.47395833,0,21,21,27,1,FBP-YG-19.png,0.4,1.2,28,0.25,,,,,,,,,,,,,,,,,,,,,,,,,,,,,,,,,,,,,,,,,,,,,
,,,,,SPR24_063,21,female,2024-04-18_09h06.52.817,jersey_experiment_5_v0,2023.2.2,Win32,84.74576271,,,,,,,,,,,,,,,,147.5579,148.6048,148.6048,150.8753,return,0.589,,91.27604167,0,22,22,53,1,FBP-PT-18.png,0.43,1.2,54,0.25,,,,,,,,,,,,,,,,,,,,,,,,,,,,,,,,,,,,,,,,,,,,,
,,,,,SPR24_063,21,female,2024-04-18_09h06.52.817,jersey_experiment_5_v0,2023.2.2,Win32,84.74576271,,,,,,,,,,,,,,,,150.8755,151.9225,151.9226,154.6168,return,0.4268,,23.046875,0,23,23,56,1,FBP-PT-19.png,0.37,1.2,57,0.25,,,,,,,,,,,,,,,,,,,,,,,,,,,,,,,,,,,,,,,,,,,,,
,,,,,SPR24_063,21,female,2024-04-18_09h06.52.817,jersey_experiment_5_v0,2023.2.2,Win32,84.74576271,,,,,,,,,,,,,,,,154.6171,155.9109,155.9109,157.8287,return,0.4664,,99.86979167,0,24,24,4,1,FBP-OG-71.png,0.45,1.2,5,0.5,,,,,,,,,,,,,,,,,,,,,,,,,,,,,,,,,,,,,,,,,,,,,
,,,,,SPR24_063,21,female,2024-04-18_09h06.52.817,jersey_experiment_5_v0,2023.2.2,Win32,84.74576271,,,,,,,,,,,,,,,,157.829,158.8758,158.8758,160.3817,return,0.363,,89.84375,0,25,25,18,1,FBP-YG-17.png,0.43,1.2,19,0.25,,,,,,,,,,,,,,,,,,,,,,,,,,,,,,,,,,,,,,,,,,,,,
,,,,,SPR24_063,21,female,2024-04-18_09h06.52.817,jersey_experiment_5_v0,2023.2.2,Win32,84.74576271,,,,,,,,,,,,,,,,160.382,161.4287,161.4288,162.8054,return,0.2745,,97.52604167,0,26,26,29,1,FBP-YG-19.png,0.45,1.2,30,0.25,,,,,,,,,,,,,,,,,,,,,,,,,,,,,,,,,,,,,,,,,,,,,
,,,,,SPR24_063,21,female,2024-04-18_09h06.52.817,jersey_experiment_5_v0,2023.2.2,Win32,84.74576271,,,,,,,,,,,,,,,,162.8056,164.0994,164.0995,166.7467,return,0.4375,,1.822916667,0,27,27,6,1,FBP-OG-81.png,0.37,1.2,7,0.5,,,,,,,,,,,,,,,,,,,,,,,,,,,,,,,,,,,,,,,,,,,,,
,,,,,SPR24_063,21,female,2024-04-18_09h06.52.817,jersey_experiment_5_v0,2023.2.2,Win32,84.74576271,,,,,,,,,,,,,,,,166.747,167.7937,167.7937,171.6409,return,0.5895,,0.390625,0,28,28,45,1,FBP-PT-17.png,0.35,1.2,46,0.25,,,,,,,,,,,,,,,,,,,,,,,,,,,,,,,,,,,,,,,,,,,,,
,,,,,SPR24_063,21,female,2024-04-18_09h06.52.817,jersey_experiment_5_v0,2023.2.2,Win32,84.74576271,,,,,,,,,,,,,,,,171.6411,172.935,172.935,175.2529,return,0.3135,,99.86979167,0,29,29,39,1,FBP-RB-18.png,0.45,1.2,40,0.5,,,,,,,,,,,,,,,,,,,,,,,,,,,,,,,,,,,,,,,,,,,,,
,,,,,SPR24_063,21,female,2024-04-18_09h06.52.817,jersey_experiment_5_v0,2023.2.2,Win32,84.74576271,,,,,,,,,,,,,,,,175.2531,176.5469,176.547,178.5823,return,0.1927,,0.651041667,0,30,30,0,1,FBP-OG-71.png,0.35,1.2,1,0.5,,,,,,,,,,,,,,,,,,,,,,,,,,,,,,,,,,,,,,,,,,,,,
,,,,,SPR24_063,21,female,2024-04-18_09h06.52.817,jersey_experiment_5_v0,2023.2.2,Win32,84.74576271,,,,,,,,,,,,,,,,178.5825,179.8765,179.8765,181.406,return,0.3903,,3.255208333,0,31,31,40,1,FBP-RB-19.png,0.35,1.2,41,0.5,,,,,,,,,,,,,,,,,,,,,,,,,,,,,,,,,,,,,,,,,,,,,
,,,,,SPR24_063,21,female,2024-04-18_09h06.52.817,jersey_experiment_5_v0,2023.2.2,Win32,84.74576271,,,,,,,,,,,,,,,,181.4061,182.7001,182.7002,184.1355,return,0.2149,,5.338541667,0,32,32,5,1,FBP-OG-81.png,0.35,1.2,6,0.5,,,,,,,,,,,,,,,,,,,,,,,,,,,,,,,,,,,,,,,,,,,,,
,,,,,SPR24_063,21,female,2024-04-18_09h06.52.817,jersey_experiment_5_v0,2023.2.2,Win32,84.74576271,,,,,,,,,,,,,,,,184.1357,185.4299,185.4299,187.2886,return,0.2139,,71.22395833,0,33,33,32,1,FBP-RB-17.png,0.4,1.2,33,0.5,,,,,,,,,,,,,,,,,,,,,,,,,,,,,,,,,,,,,,,,,,,,,
,,,,,SPR24_063,21,female,2024-04-18_09h06.52.817,jersey_experiment_5_v0,2023.2.2,Win32,84.74576271,,,,,,,,,,,,,,,,187.2888,188.3356,188.3356,190.1709,return,0.1765,,26.171875,0,34,34,25,1,FBP-YG-19.png,0.35,1.2,26,0.25,,,,,,,,,,,,,,,,,,,,,,,,,,,,,,,,,,,,,,,,,,,,,
,,,,,SPR24_063,21,female,2024-04-18_09h06.52.817,jersey_experiment_5_v0,2023.2.2,Win32,84.74576271,,,,,,,,,,,,,,,,190.1711,191.4653,191.4653,193.724,return,0.3061,,99.34895833,0,35,35,34,1,FBP-RB-17.png,0.45,1.2,35,0.5,,,,,,,,,,,,,,,,,,,,,,,,,,,,,,,,,,,,,,,,,,,,,
,,,,,SPR24_063,21,female,2024-04-18_09h06.52.817,jersey_experiment_5_v0,2023.2.2,Win32,84.74576271,,,,,,,,,,,,,,,,193.7241,194.7712,194.7712,198.8065,return,1.9435,,0.520833333,0,36,36,50,1,FBP-PT-18.png,0.35,1.2,51,0.25,,,,,,,,,,,,,,,,,,,,,,,,,,,,,,,,,,,,,,,,,,,,,
,,,,,SPR24_063,21,female,2024-04-18_09h06.52.817,jersey_experiment_5_v0,2023.2.2,Win32,84.74576271,,,,,,,,,,,,,,,,198.8067,199.8538,199.8538,201.9949,return,0.5787,,5.46875,0,37,37,51,1,FBP-PT-18.png,0.37,1.2,52,0.25,,,,,,,,,,,,,,,,,,,,,,,,,,,,,,,,,,,,,,,,,,,,,
,,,,,SPR24_063,21,female,2024-04-18_09h06.52.817,jersey_experiment_5_v0,2023.2.2,Win32,84.74576271,,,,,,,,,,,,,,,,201.9952,203.042,203.0421,205.0656,return,0.426,,2.864583333,0,38,38,46,1,FBP-PT-17.png,0.37,1.2,47,0.25,,,,,,,,,,,,,,,,,,,,,,,,,,,,,,,,,,,,,,,,,,,,,
,,,,,SPR24_063,21,female,2024-04-18_09h06.52.817,jersey_experiment_5_v0,2023.2.2,Win32,84.74576271,,,,,,,,,,,,,,,,205.0659,206.1127,206.1128,208.8069,return,0.2497,,99.86979167,0,39,39,19,1,FBP-YG-17.png,0.45,1.2,20,0.25,,,,,,,,,,,,,,,,,,,,,,,,,,,,,,,,,,,,,,,,,,,,,
,,,,,SPR24_063,21,female,2024-04-18_09h06.52.817,jersey_experiment_5_v0,2023.2.2,Win32,84.74576271,,,,,,,,,,,,,,,,208.8072,210.1011,210.1011,211.3365,return,0.2511,,87.36979167,0,40,40,42,1,FBP-RB-19.png,0.4,1.2,43,0.5,,,,,,,,,,,,,,,,,,,,,,,,,,,,,,,,,,,,,,,,,,,,,
,,,,,SPR24_063,21,female,2024-04-18_09h06.52.817,jersey_experiment_5_v0,2023.2.2,Win32,84.74576271,,,,,,,,,,,,,,,,211.3367,212.3836,212.3836,216.1485,return,0.8312,,72.78645833,0,41,41,48,1,FBP-PT-17.png,0.43,1.2,49,0.25,,,,,,,,,,,,,,,,,,,,,,,,,,,,,,,,,,,,,,,,,,,,,
,,,,,SPR24_063,21,female,2024-04-18_09h06.52.817,jersey_experiment_5_v0,2023.2.2,Win32,84.74576271,,,,,,,,,,,,,,,,216.1487,217.1957,217.1957,220.5015,return,1.4985,,7.291666667,0,42,42,16,1,FBP-YG-17.png,0.37,1.2,17,0.25,,,,,,,,,,,,,,,,,,,,,,,,,,,,,,,,,,,,,,,,,,,,,
,,,,,SPR24_063,21,female,2024-04-18_09h06.52.817,jersey_experiment_5_v0,2023.2.2,Win32,84.74576271,,,,,,,,,,,,,,,,220.5017,221.5485,221.5485,223.9723,return,0.406,,98.828125,0,43,43,54,1,FBP-PT-18.png,0.45,1.2,55,0.25,,,,,,,,,,,,,,,,,,,,,,,,,,,,,,,,,,,,,,,,,,,,,
,,,,,SPR24_063,21,female,2024-04-18_09h06.52.817,jersey_experiment_5_v0,2023.2.2,Win32,84.74576271,,,,,,,,,,,,,,,,223.9725,225.0194,225.0194,227.2193,return,0.2087,,39.58333333,0,44,44,52,1,FBP-PT-18.png,0.4,1.2,53,0.25,,,,,,,,,,,,,,,,,,,,,,,,,,,,,,,,,,,,,,,,,,,,,
,,,,,SPR24_063,21,female,2024-04-18_09h06.52.817,jersey_experiment_5_v0,2023.2.2,Win32,84.74576271,,,,,,,,,,,,,,,,227.2195,228.5136,228.5136,231.549,return,0.367,,49.47916667,0,45,45,36,1,FBP-RB-18.png,0.37,1.2,37,0.5,,,,,,,,,,,,,,,,,,,,,,,,,,,,,,,,,,,,,,,,,,,,,
,,,,,SPR24_063,21,female,2024-04-18_09h06.52.817,jersey_experiment_5_v0,2023.2.2,Win32,84.74576271,,,,,,,,,,,,,,,,231.5492,232.8432,232.8432,234.7609,return,0.3561,,12.23958333,0,46,46,35,1,FBP-RB-18.png,0.35,1.2,36,0.5,,,,,,,,,,,,,,,,,,,,,,,,,,,,,,,,,,,,,,,,,,,,,
,,,,,SPR24_063,21,female,2024-04-18_09h06.52.817,jersey_experiment_5_v0,2023.2.2,Win32,84.74576271,,,,,,,,,,,,,,,,234.761,236.0548,236.0549,237.1493,return,0.1889,,11.71875,0,47,47,30,1,FBP-RB-17.png,0.35,1.2,31,0.5,,,,,,,,,,,,,,,,,,,,,,,,,,,,,,,,,,,,,,,,,,,,,
,,,,,SPR24_063,21,female,2024-04-18_09h06.52.817,jersey_experiment_5_v0,2023.2.2,Win32,84.74576271,,,,,,,,,,,,,,,,237.1497,238.1964,238.1964,240.2669,return,0.1287,,99.86979167,0,48,48,24,1,FBP-YG-18.png,0.45,1.2,25,0.25,,,,,,,,,,,,,,,,,,,,,,,,,,,,,,,,,,,,,,,,,,,,,
,,,,,SPR24_063,21,female,2024-04-18_09h06.52.817,jersey_experiment_5_v0,2023.2.2,Win32,84.74576271,,,,,,,,,,,,,,,,240.2671,241.561,241.561,242.4789,return,0.2218,,99.86979167,0,49,49,13,1,FBP-OG-91.png,0.43,1.2,14,0.5,,,,,,,,,,,,,,,,,,,,,,,,,,,,,,,,,,,,,,,,,,,,,
,,,,,SPR24_063,21,female,2024-04-18_09h06.52.817,jersey_experiment_5_v0,2023.2.2,Win32,84.74576271,,,,,,,,,,,,,,,,242.479,243.7729,243.7729,245.5494,return,0.2962,,49.21875,0,50,50,41,1,FBP-RB-19.png,0.37,1.2,42,0.5,,,,,,,,,,,,,,,,,,,,,,,,,,,,,,,,,,,,,,,,,,,,,
,,,,,SPR24_063,21,female,2024-04-18_09h06.52.817,jersey_experiment_5_v0,2023.2.2,Win32,84.74576271,,,,,,,,,,,,,,,,245.5497,246.8439,246.8439,248.7261,return,0.159,,8.333333333,0,51,51,10,1,FBP-OG-91.png,0.35,1.2,11,0.5,,,,,,,,,,,,,,,,,,,,,,,,,,,,,,,,,,,,,,,,,,,,,
,,,,,SPR24_063,21,female,2024-04-18_09h06.52.817,jersey_experiment_5_v0,2023.2.2,Win32,84.74576271,,,,,,,,,,,,,,,,248.7264,250.0204,250.0205,251.7262,return,0.2829,,94.40104167,0,52,52,8,1,FBP-OG-81.png,0.43,1.2,9,0.5,,,,,,,,,,,,,,,,,,,,,,,,,,,,,,,,,,,,,,,,,,,,,
,,,,,SPR24_063,21,female,2024-04-18_09h06.52.817,jersey_experiment_5_v0,2023.2.2,Win32,84.74576271,,,,,,,,,,,,,,,,251.7264,252.7733,252.7733,254.1262,return,0.1508,,98.17708333,0,53,53,28,1,FBP-YG-19.png,0.43,1.2,29,0.25,,,,,,,,,,,,,,,,,,,,,,,,,,,,,,,,,,,,,,,,,,,,,
,,,,,SPR24_063,21,female,2024-04-18_09h06.52.817,jersey_experiment_5_v0,2023.2.2,Win32,84.74576271,,,,,,,,,,,,,,,,254.1264,255.4205,255.4205,256.4442,return,0.2498,,99.609375,0,54,54,33,1,FBP-RB-17.png,0.43,1.2,34,0.5,,,,,,,,,,,,,,,,,,,,,,,,,,,,,,,,,,,,,,,,,,,,,
,,,,,SPR24_063,21,female,2024-04-18_09h06.52.817,jersey_experiment_5_v0,2023.2.2,Win32,84.74576271,,,,,,,,,,,,,,,,256.4445,257.7383,257.7384,259.3028,return,0.2408,,83.46354167,0,55,55,7,1,FBP-OG-81.png,0.4,1.2,8,0.5,,,,,,,,,,,,,,,,,,,,,,,,,,,,,,,,,,,,,,,,,,,,,
,,,,,SPR24_063,21,female,2024-04-18_09h06.52.817,jersey_experiment_5_v0,2023.2.2,Win32,84.74576271,,,,,,,,,,,,,,,,259.3031,260.35,260.35,261.6442,return,0.1884,,74.34895833,0,56,56,17,1,FBP-YG-17.png,0.4,1.2,18,0.25,,,,,,,,,,,,,,,,,,,,,,,,,,,,,,,,,,,,,,,,,,,,,
,,,,,SPR24_063,21,female,2024-04-18_09h06.52.817,jersey_experiment_5_v0,2023.2.2,Win32,84.74576271,,,,,,,,,,,,,,,,261.6444,262.9384,262.9384,263.9619,return,0.1062,,98.69791667,0,57,57,9,1,FBP-OG-81.png,0.45,1.2,10,0.5,,,,,,,,,,,,,,,,,,,,,,,,,,,,,,,,,,,,,,,,,,,,,
,,,,,SPR24_063,21,female,2024-04-18_09h06.52.817,jersey_experiment_5_v0,2023.2.2,Win32,84.74576271,,,,,,,,,,,,,,,,263.9622,265.0091,265.0091,266.0679,return,0.0436,,98.95833333,0,58,58,59,1,FBP-PT-19.png,0.45,1.2,60,0.25,,,,,,,,,,,,,,,,,,,,,,,,,,,,,,,,,,,,,,,,,,,,,
,,,,,SPR24_063,21,female,2024-04-18_09h06.52.817,jersey_experiment_5_v0,2023.2.2,Win32,84.74576271,,,,,,,,,,,,,,,,266.0682,267.3621,267.3621,268.2798,return,0.0498,,99.47916667,0,59,59,44,1,FBP-RB-19.png,0.45,1.2,45,0.5,,,,,,,,,,,,,,,,,,,,,,,,,,,,,,,,,,,,,,,,,,,,,
,,,,,SPR24_063,21,female,2024-04-18_09h06.52.817,jersey_experiment_5_v0,2023.2.2,Win32,84.74576271,,,,,,,,,,,,,,,,268.2819,269.3267,269.3268,271.8682,return,0.7161,,18.22916667,,,,,,FBP-YG-71.png,0.35,1.2,16,0.25,0,0,0,15,1,,,,,,,,,,,,,,,,,,,,,,,,,,,,,,,,,,,,,,,,
,,,,,SPR24_063,21,female,2024-04-18_09h06.52.817,jersey_experiment_5_v0,2023.2.2,Win32,84.74576271,,,,,,,,,,,,,,,,271.8687,273.1622,273.1623,274.3505,return,0.165,,13.02083333,,,,,,FBP-RB-81.png,0.37,1.2,37,0.5,0,1,1,36,1,,,,,,,,,,,,,,,,,,,,,,,,,,,,,,,,,,,,,,,,
,,,,,SPR24_063,21,female,2024-04-18_09h06.52.817,jersey_experiment_5_v0,2023.2.2,Win32,84.74576271,,,,,,,,,,,,,,,,274.3508,275.6446,275.6446,277.4801,return,0.1572,,75.52083333,,,,,,FBP-RB-81.png,0.4,1.2,38,0.5,0,2,2,37,1,,,,,,,,,,,,,,,,,,,,,,,,,,,,,,,,,,,,,,,,
,,,,,SPR24_063,21,female,2024-04-18_09h06.52.817,jersey_experiment_5_v0,2023.2.2,Win32,84.74576271,,,,,,,,,,,,,,,,277.4803,278.527,278.5271,280.492,return,0.1883,,4.036458333,,,,,,FBP-PT-91.png,0.35,1.2,56,0.25,0,3,3,55,1,,,,,,,,,,,,,,,,,,,,,,,,,,,,,,,,,,,,,,,,
,,,,,SPR24_063,21,female,2024-04-18_09h06.52.817,jersey_experiment_5_v0,2023.2.2,Win32,84.74576271,,,,,,,,,,,,,,,,280.4923,281.539,281.5391,283.2685,return,0.161,,99.47916667,,,,,,FBP-YG-71.png,0.43,1.2,19,0.25,0,4,4,18,1,,,,,,,,,,,,,,,,,,,,,,,,,,,,,,,,,,,,,,,,
,,,,,SPR24_063,21,female,2024-04-18_09h06.52.817,jersey_experiment_5_v0,2023.2.2,Win32,84.74576271,,,,,,,,,,,,,,,,283.2688,284.5629,284.5629,286.2451,return,0.2993,,72.65625,,,,,,FBP-OG-19.png,0.4,1.2,13,0.5,0,5,5,12,1,,,,,,,,,,,,,,,,,,,,,,,,,,,,,,,,,,,,,,,,
,,,,,SPR24_063,21,female,2024-04-18_09h06.52.817,jersey_experiment_5_v0,2023.2.2,Win32,84.74576271,,,,,,,,,,,,,,,,286.2453,287.5392,287.5392,288.5157,return,0.1379,,55.46875,,,,,,FBP-OG-18.png,0.37,1.2,7,0.5,0,6,6,6,1,,,,,,,,,,,,,,,,,,,,,,,,,,,,,,,,,,,,,,,,
,,,,,SPR24_063,21,female,2024-04-18_09h06.52.817,jersey_experiment_5_v0,2023.2.2,Win32,84.74576271,,,,,,,,,,,,,,,,288.5161,289.8099,289.81,290.5157,return,0.1246,,55.46875,,,,,,FBP-OG-18.png,0.35,1.2,6,0.5,0,7,7,5,1,,,,,,,,,,,,,,,,,,,,,,,,,,,,,,,,,,,,,,,,
,,,,,SPR24_063,21,female,2024-04-18_09h06.52.817,jersey_experiment_5_v0,2023.2.2,Win32,84.74576271,,,,,,,,,,,,,,,,290.516,291.81,291.81,293.116,return,0.1887,,99.47916667,,,,,,FBP-OG-18.png,0.43,1.2,9,0.5,0,8,8,8,1,,,,,,,,,,,,,,,,,,,,,,,,,,,,,,,,,,,,,,,,
,,,,,SPR24_063,21,female,2024-04-18_09h06.52.817,jersey_experiment_5_v0,2023.2.2,Win32,84.74576271,,,,,,,,,,,,,,,,293.1161,294.1631,294.1631,295.2456,return,0.2354,,94.01041667,,,,,,FBP-YG-91.png,0.4,1.2,28,0.25,0,9,9,27,1,,,,,,,,,,,,,,,,,,,,,,,,,,,,,,,,,,,,,,,,
,,,,,SPR24_063,21,female,2024-04-18_09h06.52.817,jersey_experiment_5_v0,2023.2.2,Win32,84.74576271,,,,,,,,,,,,,,,,295.2458,296.2924,296.2925,297.3631,return,0.0914,,92.05729167,,,,,,FBP-PT-91.png,0.43,1.2,59,0.25,0,10,10,58,1,,,,,,,,,,,,,,,,,,,,,,,,,,,,,,,,,,,,,,,,
,,,,,SPR24_063,21,female,2024-04-18_09h06.52.817,jersey_experiment_5_v0,2023.2.2,Win32,84.74576271,,,,,,,,,,,,,,,,297.3634,298.6573,298.6573,299.6692,return,0.0289,,99.21875,,,,,,FBP-RB-71.png,0.43,1.2,34,0.5,0,11,11,33,1,,,,,,,,,,,,,,,,,,,,,,,,,,,,,,,,,,,,,,,,
,,,,,SPR24_063,21,female,2024-04-18_09h06.52.817,jersey_experiment_5_v0,2023.2.2,Win32,84.74576271,,,,,,,,,,,,,,,,299.6695,300.9633,300.9634,301.8222,return,0.2919,,99.08854167,,,,,,FBP-RB-91.png,0.43,1.2,44,0.5,0,12,12,43,1,,,,,,,,,,,,,,,,,,,,,,,,,,,,,,,,,,,,,,,,
,,,,,SPR24_063,21,female,2024-04-18_09h06.52.817,jersey_experiment_5_v0,2023.2.2,Win32,84.74576271,,,,,,,,,,,,,,,,301.8224,303.1162,303.1162,305.0928,return,0.0867,,2.994791667,,,,,,FBP-OG-17.png,0.35,1.2,1,0.5,0,13,13,0,1,,,,,,,,,,,,,,,,,,,,,,,,,,,,,,,,,,,,,,,,
,,,,,SPR24_063,21,female,2024-04-18_09h06.52.817,jersey_experiment_5_v0,2023.2.2,Win32,84.74576271,,,,,,,,,,,,,,,,305.0929,306.1399,306.1399,307.9163,return,0.2218,,25.52083333,,,,,,FBP-PT-91.png,0.4,1.2,58,0.25,0,14,14,57,1,,,,,,,,,,,,,,,,,,,,,,,,,,,,,,,,,,,,,,,,
,,,,,SPR24_063,21,female,2024-04-18_09h06.52.817,jersey_experiment_5_v0,2023.2.2,Win32,84.74576271,,,,,,,,,,,,,,,,307.9165,308.9636,308.9637,310.1871,return,0.1882,,25,,,,,,FBP-YG-81.png,0.35,1.2,21,0.25,0,15,15,20,1,,,,,,,,,,,,,,,,,,,,,,,,,,,,,,,,,,,,,,,,
,,,,,SPR24_063,21,female,2024-04-18_09h06.52.817,jersey_experiment_5_v0,2023.2.2,Win32,84.74576271,,,,,,,,,,,,,,,,310.1874,311.2341,311.2341,313.3873,return,0.166,,99.47916667,,,,,,FBP-PT-71.png,0.45,1.2,50,0.25,0,16,16,49,1,,,,,,,,,,,,,,,,,,,,,,,,,,,,,,,,,,,,,,,,
,,,,,SPR24_063,21,female,2024-04-18_09h06.52.817,jersey_experiment_5_v0,2023.2.2,Win32,84.74576271,,,,,,,,,,,,,,,,313.3875,314.4342,314.4343,317.3875,return,0.2263,,25.52083333,,,,,,FBP-PT-91.png,0.37,1.2,57,0.25,0,17,17,56,1,,,,,,,,,,,,,,,,,,,,,,,,,,,,,,,,,,,,,,,,
,,,,,SPR24_063,21,female,2024-04-18_09h06.52.817,jersey_experiment_5_v0,2023.2.2,Win32,84.74576271,,,,,,,,,,,,,,,,317.3877,318.6816,318.6816,320.7287,return,0.5193,,98.828125,,,,,,FBP-OG-17.png,0.45,1.2,5,0.5,0,18,18,4,1,,,,,,,,,,,,,,,,,,,,,,,,,,,,,,,,,,,,,,,,
,,,,,SPR24_063,21,female,2024-04-18_09h06.52.817,jersey_experiment_5_v0,2023.2.2,Win32,84.74576271,,,,,,,,,,,,,,,,320.7289,321.7757,321.7758,324.1054,return,0.5678,,6.25,,,,,,FBP-PT-81.png,0.35,1.2,51,0.25,0,19,19,50,1,,,,,,,,,,,,,,,,,,,,,,,,,,,,,,,,,,,,,,,,
,,,,,SPR24_063,21,female,2024-04-18_09h06.52.817,jersey_experiment_5_v0,2023.2.2,Win32,84.74576271,,,,,,,,,,,,,,,,324.1056,325.3994,325.3995,327.4819,return,0.2498,,22.78645833,,,,,,FBP-RB-91.png,0.37,1.2,42,0.5,0,20,20,41,1,,,,,,,,,,,,,,,,,,,,,,,,,,,,,,,,,,,,,,,,
,,,,,SPR24_063,21,female,2024-04-18_09h06.52.817,jersey_experiment_5_v0,2023.2.2,Win32,84.74576271,,,,,,,,,,,,,,,,327.4822,328.776,328.776,330.388,return,0.2292,,94.140625,,,,,,FBP-OG-19.png,0.43,1.2,14,0.5,0,21,21,13,1,,,,,,,,,,,,,,,,,,,,,,,,,,,,,,,,,,,,,,,,
,,,,,SPR24_063,21,female,2024-04-18_09h06.52.817,jersey_experiment_5_v0,2023.2.2,Win32,84.74576271,,,,,,,,,,,,,,,,330.3882,331.4351,331.4352,333.0938,return,0.1711,,50.390625,,,,,,FBP-YG-81.png,0.37,1.2,22,0.25,0,22,22,21,1,,,,,,,,,,,,,,,,,,,,,,,,,,,,,,,,,,,,,,,,
,,,,,SPR24_063,21,female,2024-04-18_09h06.52.817,jersey_experiment_5_v0,2023.2.2,Win32,84.74576271,,,,,,,,,,,,,,,,333.0939,334.141,334.141,335.4352,return,0.1788,,76.5625,,,,,,FBP-YG-91.png,0.43,1.2,29,0.25,0,23,23,28,1,,,,,,,,,,,,,,,,,,,,,,,,,,,,,,,,,,,,,,,,
,,,,,SPR24_063,21,female,2024-04-18_09h06.52.817,jersey_experiment_5_v0,2023.2.2,Win32,84.74576271,,,,,,,,,,,,,,,,335.4353,336.4822,336.4822,337.5175,return,0.1417,,89.71354167,,,,,,FBP-YG-91.png,0.45,1.2,30,0.25,0,24,24,29,1,,,,,,,,,,,,,,,,,,,,,,,,,,,,,,,,,,,,,,,,
,,,,,SPR24_063,21,female,2024-04-18_09h06.52.817,jersey_experiment_5_v0,2023.2.2,Win32,84.74576271,,,,,,,,,,,,,,,,337.5178,338.5647,338.5648,339.4939,return,0.0529,,92.31770833,,,,,,FBP-PT-71.png,0.43,1.2,49,0.25,0,25,25,48,1,,,,,,,,,,,,,,,,,,,,,,,,,,,,,,,,,,,,,,,,
,,,,,SPR24_063,21,female,2024-04-18_09h06.52.817,jersey_experiment_5_v0,2023.2.2,Win32,84.74576271,,,,,,,,,,,,,,,,339.4942,340.5411,340.5412,341.2236,return,0.1206,,92.31770833,,,,,,FBP-PT-81.png,0.4,1.2,53,0.25,0,26,26,52,1,,,,,,,,,,,,,,,,,,,,,,,,,,,,,,,,,,,,,,,,
,,,,,SPR24_063,21,female,2024-04-18_09h06.52.817,jersey_experiment_5_v0,2023.2.2,Win32,84.74576271,,,,,,,,,,,,,,,,341.2239,342.2706,342.2707,345.0356,return,0.1878,,27.34375,,,,,,FBP-PT-71.png,0.37,1.2,47,0.25,0,27,27,46,1,,,,,,,,,,,,,,,,,,,,,,,,,,,,,,,,,,,,,,,,
,,,,,SPR24_063,21,female,2024-04-18_09h06.52.817,jersey_experiment_5_v0,2023.2.2,Win32,84.74576271,,,,,,,,,,,,,,,,345.0358,346.0825,346.0826,348.1179,return,0.1692,,71.875,,,,,,FBP-PT-81.png,0.43,1.2,54,0.25,0,28,28,53,1,,,,,,,,,,,,,,,,,,,,,,,,,,,,,,,,,,,,,,,,
,,,,,SPR24_063,21,female,2024-04-18_09h06.52.817,jersey_experiment_5_v0,2023.2.2,Win32,84.74576271,,,,,,,,,,,,,,,,348.1181,349.1649,349.165,350.6591,return,0.0913,,52.21354167,,,,,,FBP-PT-81.png,0.37,1.2,52,0.25,0,29,29,51,1,,,,,,,,,,,,,,,,,,,,,,,,,,,,,,,,,,,,,,,,
,,,,,SPR24_063,21,female,2024-04-18_09h06.52.817,jersey_experiment_5_v0,2023.2.2,Win32,84.74576271,,,,,,,,,,,,,,,,350.6593,351.7063,351.7063,352.9653,return,0.1463,,77.08333333,,,,,,FBP-YG-71.png,0.4,1.2,18,0.25,0,30,30,17,1,,,,,,,,,,,,,,,,,,,,,,,,,,,,,,,,,,,,,,,,
,,,,,SPR24_063,21,female,2024-04-18_09h06.52.817,jersey_experiment_5_v0,2023.2.2,Win32,84.74576271,,,,,,,,,,,,,,,,352.9656,354.2593,354.2594,355.4006,return,0.0745,,99.21875,,,,,,FBP-RB-91.png,0.45,1.2,45,0.5,0,31,31,44,1,,,,,,,,,,,,,,,,,,,,,,,,,,,,,,,,,,,,,,,,
,,,,,SPR24_063,21,female,2024-04-18_09h06.52.817,jersey_experiment_5_v0,2023.2.2,Win32,84.74576271,,,,,,,,,,,,,,,,355.4008,356.6946,356.6947,358.8359,return,0.1026,,73.828125,,,,,,FBP-OG-17.png,0.4,1.2,3,0.5,0,32,32,2,1,,,,,,,,,,,,,,,,,,,,,,,,,,,,,,,,,,,,,,,,
,,,,,SPR24_063,21,female,2024-04-18_09h06.52.817,jersey_experiment_5_v0,2023.2.2,Win32,84.74576271,,,,,,,,,,,,,,,,358.8361,360.1303,360.1303,361.3655,return,0.0421,,33.72395833,,,,,,FBP-OG-19.png,0.35,1.2,11,0.5,0,33,33,10,1,,,,,,,,,,,,,,,,,,,,,,,,,,,,,,,,,,,,,,,,
,,,,,SPR24_063,21,female,2024-04-18_09h06.52.817,jersey_experiment_5_v0,2023.2.2,Win32,84.74576271,,,,,,,,,,,,,,,,361.3658,362.4125,362.4126,363.7185,return,0.0265,,98.828125,,,,,,FBP-YG-81.png,0.45,1.2,25,0.25,0,34,34,24,1,,,,,,,,,,,,,,,,,,,,,,,,,,,,,,,,,,,,,,,,
,,,,,SPR24_063,21,female,2024-04-18_09h06.52.817,jersey_experiment_5_v0,2023.2.2,Win32,84.74576271,,,,,,,,,,,,,,,,363.7187,364.7657,364.7658,365.9186,return,0.0708,,99.21875,,,,,,FBP-YG-71.png,0.45,1.2,20,0.25,0,35,35,19,1,,,,,,,,,,,,,,,,,,,,,,,,,,,,,,,,,,,,,,,,
,,,,,SPR24_063,21,female,2024-04-18_09h06.52.817,jersey_experiment_5_v0,2023.2.2,Win32,84.74576271,,,,,,,,,,,,,,,,365.9188,367.2127,367.2127,368.6598,return,0.0763,,45.57291667,,,,,,FBP-RB-71.png,0.35,1.2,31,0.5,0,36,36,30,1,,,,,,,,,,,,,,,,,,,,,,,,,,,,,,,,,,,,,,,,
,,,,,SPR24_063,21,female,2024-04-18_09h06.52.817,jersey_experiment_5_v0,2023.2.2,Win32,84.74576271,,,,,,,,,,,,,,,,368.6601,369.9541,369.9541,371.3188,return,0.1211,,43.75,,,,,,FBP-OG-19.png,0.37,1.2,12,0.5,0,37,37,11,1,,,,,,,,,,,,,,,,,,,,,,,,,,,,,,,,,,,,,,,,
,,,,,SPR24_063,21,female,2024-04-18_09h06.52.817,jersey_experiment_5_v0,2023.2.2,Win32,84.74576271,,,,,,,,,,,,,,,,371.319,372.613,372.613,373.66,return,0.0805,,99.34895833,,,,,,FBP-RB-71.png,0.45,1.2,35,0.5,0,38,38,34,1,,,,,,,,,,,,,,,,,,,,,,,,,,,,,,,,,,,,,,,,
,,,,,SPR24_063,21,female,2024-04-18_09h06.52.817,jersey_experiment_5_v0,2023.2.2,Win32,84.74576271,,,,,,,,,,,,,,,,373.6602,374.7071,374.7071,376.5662,return,0.1122,,37.109375,,,,,,FBP-YG-91.png,0.37,1.2,27,0.25,0,39,39,26,1,,,,,,,,,,,,,,,,,,,,,,,,,,,,,,,,,,,,,,,,
,,,,,SPR24_063,21,female,2024-04-18_09h06.52.817,jersey_experiment_5_v0,2023.2.2,Win32,84.74576271,,,,,,,,,,,,,,,,376.5664,377.8603,377.8604,379.4955,return,0.6163,,99.21875,,,,,,FBP-RB-81.png,0.43,1.2,39,0.5,0,40,40,38,1,,,,,,,,,,,,,,,,,,,,,,,,,,,,,,,,,,,,,,,,
,,,,,SPR24_063,21,female,2024-04-18_09h06.52.817,jersey_experiment_5_v0,2023.2.2,Win32,84.74576271,,,,,,,,,,,,,,,,379.4957,380.5427,380.5427,382.0133,return,0.0568,,45.96354167,,,,,,FBP-YG-71.png,0.37,1.2,17,0.25,0,41,41,16,1,,,,,,,,,,,,,,,,,,,,,,,,,,,,,,,,,,,,,,,,
,,,,,SPR24_063,21,female,2024-04-18_09h06.52.817,jersey_experiment_5_v0,2023.2.2,Win32,84.74576271,,,,,,,,,,,,,,,,382.0135,383.3074,383.3075,384.6605,return,0.2312,,98.69791667,,,,,,FBP-OG-18.png,0.45,1.2,10,0.5,0,42,42,9,1,,,,,,,,,,,,,,,,,,,,,,,,,,,,,,,,,,,,,,,,
,,,,,SPR24_063,21,female,2024-04-18_09h06.52.817,jersey_experiment_5_v0,2023.2.2,Win32,84.74576271,,,,,,,,,,,,,,,,384.6607,385.7075,385.7075,390.308,return,0.2881,,69.79166667,,,,,,FBP-YG-81.png,0.4,1.2,23,0.25,0,43,43,22,1,,,,,,,,,,,,,,,,,,,,,,,,,,,,,,,,,,,,,,,,
,,,,,SPR24_063,21,female,2024-04-18_09h06.52.817,jersey_experiment_5_v0,2023.2.2,Win32,84.74576271,,,,,,,,,,,,,,,,390.3083,391.3548,391.3548,392.9549,return,0.0719,,90.36458333,,,,,,FBP-YG-81.png,0.43,1.2,24,0.25,0,44,44,23,1,,,,,,,,,,,,,,,,,,,,,,,,,,,,,,,,,,,,,,,,
,,,,,SPR24_063,21,female,2024-04-18_09h06.52.817,jersey_experiment_5_v0,2023.2.2,Win32,84.74576271,,,,,,,,,,,,,,,,392.9552,394.2489,394.2489,395.4844,return,0.188,,96.09375,,,,,,FBP-OG-18.png,0.4,1.2,8,0.5,0,45,45,7,1,,,,,,,,,,,,,,,,,,,,,,,,,,,,,,,,,,,,,,,,
,,,,,SPR24_063,21,female,2024-04-18_09h06.52.817,jersey_experiment_5_v0,2023.2.2,Win32,84.74576271,,,,,,,,,,,,,,,,395.4847,396.7787,396.7787,398.3786,return,0.1783,,50.91145833,,,,,,FBP-RB-71.png,0.37,1.2,32,0.5,0,46,46,31,1,,,,,,,,,,,,,,,,,,,,,,,,,,,,,,,,,,,,,,,,
,,,,,SPR24_063,21,female,2024-04-18_09h06.52.817,jersey_experiment_5_v0,2023.2.2,Win32,84.74576271,,,,,,,,,,,,,,,,398.3788,399.6727,399.6727,400.3317,return,0.1079,,51.04166667,,,,,,FBP-RB-91.png,0.35,1.2,41,0.5,0,47,47,40,1,,,,,,,,,,,,,,,,,,,,,,,,,,,,,,,,,,,,,,,,
,,,,,SPR24_063,21,female,2024-04-18_09h06.52.817,jersey_experiment_5_v0,2023.2.2,Win32,84.74576271,,,,,,,,,,,,,,,,400.3319,401.6258,401.6258,402.2612,return,0.1943,,51.04166667,,,,,,FBP-RB-81.png,0.35,1.2,36,0.5,0,48,48,35,1,,,,,,,,,,,,,,,,,,,,,,,,,,,,,,,,,,,,,,,,
,,,,,SPR24_063,21,female,2024-04-18_09h06.52.817,jersey_experiment_5_v0,2023.2.2,Win32,84.74576271,,,,,,,,,,,,,,,,402.2615,403.5553,403.5553,404.6375,return,0.1088,,52.99479167,,,,,,FBP-OG-17.png,0.37,1.2,2,0.5,0,49,49,1,1,,,,,,,,,,,,,,,,,,,,,,,,,,,,,,,,,,,,,,,,
,,,,,SPR24_063,21,female,2024-04-18_09h06.52.817,jersey_experiment_5_v0,2023.2.2,Win32,84.74576271,,,,,,,,,,,,,,,,404.6378,405.932,405.932,407.2142,return,0.1747,,99.34895833,,,,,,FBP-OG-19.png,0.45,1.2,15,0.5,0,50,50,14,1,,,,,,,,,,,,,,,,,,,,,,,,,,,,,,,,,,,,,,,,
,,,,,SPR24_063,21,female,2024-04-18_09h06.52.817,jersey_experiment_5_v0,2023.2.2,Win32,84.74576271,,,,,,,,,,,,,,,,407.2145,408.5083,408.5083,409.1436,return,0.2399,,99.34895833,,,,,,FBP-OG-17.png,0.43,1.2,4,0.5,0,51,51,3,1,,,,,,,,,,,,,,,,,,,,,,,,,,,,,,,,,,,,,,,,
,,,,,SPR24_063,21,female,2024-04-18_09h06.52.817,jersey_experiment_5_v0,2023.2.2,Win32,84.74576271,,,,,,,,,,,,,,,,409.1439,410.1907,410.1908,410.8614,return,0.0942,,99.34895833,,,,,,FBP-PT-91.png,0.45,1.2,60,0.25,0,52,52,59,1,,,,,,,,,,,,,,,,,,,,,,,,,,,,,,,,,,,,,,,,
,,,,,SPR24_063,21,female,2024-04-18_09h06.52.817,jersey_experiment_5_v0,2023.2.2,Win32,84.74576271,,,,,,,,,,,,,,,,410.8615,411.9085,411.9086,414.3321,return,1.0114,,74.08854167,,,,,,FBP-YG-91.png,0.35,1.2,26,0.25,0,53,53,25,1,,,,,,,,,,,,,,,,,,,,,,,,,,,,,,,,,,,,,,,,
,,,,,SPR24_063,21,female,2024-04-18_09h06.52.817,jersey_experiment_5_v0,2023.2.2,Win32,84.74576271,,,,,,,,,,,,,,,,414.3324,415.6263,415.6263,416.3792,return,0.0717,,74.08854167,,,,,,FBP-RB-71.png,0.4,1.2,33,0.5,0,54,54,32,1,,,,,,,,,,,,,,,,,,,,,,,,,,,,,,,,,,,,,,,,
,,,,,SPR24_063,21,female,2024-04-18_09h06.52.817,jersey_experiment_5_v0,2023.2.2,Win32,84.74576271,,,,,,,,,,,,,,,,416.3794,417.4262,417.4262,419.144,return,0.122,,49.21875,,,,,,FBP-PT-71.png,0.35,1.2,46,0.25,0,55,55,45,1,,,,,,,,,,,,,,,,,,,,,,,,,,,,,,,,,,,,,,,,
,,,,,SPR24_063,21,female,2024-04-18_09h06.52.817,jersey_experiment_5_v0,2023.2.2,Win32,84.74576271,,,,,,,,,,,,,,,,419.1442,420.4383,420.4383,421.6383,return,0.2174,,95.05208333,,,,,,FBP-RB-91.png,0.4,1.2,43,0.5,0,56,56,42,1,,,,,,,,,,,,,,,,,,,,,,,,,,,,,,,,,,,,,,,,
,,,,,SPR24_063,21,female,2024-04-18_09h06.52.817,jersey_experiment_5_v0,2023.2.2,Win32,84.74576271,,,,,,,,,,,,,,,,421.6385,422.6854,422.6855,423.5795,return,0.1079,,98.4375,,,,,,FBP-PT-81.png,0.45,1.2,55,0.25,0,57,57,54,1,,,,,,,,,,,,,,,,,,,,,,,,,,,,,,,,,,,,,,,,
,,,,,SPR24_063,21,female,2024-04-18_09h06.52.817,jersey_experiment_5_v0,2023.2.2,Win32,84.74576271,,,,,,,,,,,,,,,,423.5797,424.8736,424.8737,425.6737,return,0.354,,98.4375,,,,,,FBP-RB-81.png,0.45,1.2,40,0.5,0,58,58,39,1,,,,,,,,,,,,,,,,,,,,,,,,,,,,,,,,,,,,,,,,
,,,,,SPR24_063,21,female,2024-04-18_09h06.52.817,jersey_experiment_5_v0,2023.2.2,Win32,84.74576271,,,,,,,,,,,,,,,,425.674,426.7207,426.7208,427.8856,return,0.0372,,76.30208333,,,,,,FBP-PT-71.png,0.4,1.2,48,0.25,0,59,59,47,1,,,,,,,,,,,,,,,,,,,,,,,,,,,,,,,,,,,,,,,,
,,,,,SPR24_063,21,female,2024-04-18_09h06.52.817,jersey_experiment_5_v0,2023.2.2,Win32,84.74576271,,,,,,,,,,,,,,,,,,,,,,,,,,,,,,,,,,,,,,,427.8859,547.8785,,,,,,,,,,,,,,,,,,,,,,,,,,,,,,,,,,,,,,
,,,,,SPR24_063,21,female,2024-04-18_09h06.52.817,jersey_experiment_5_v0,2023.2.2,Win32,84.74576271,,,,,,,,,,,,,,,,,,,,,,,,,,,,,,,,,,,,,,,,,547.8786,556.1963,return,8.3132,,,,,,,,,,,,,,,,,,,,,,,,,,,,,,,,,,
,,,,,SPR24_063,21,female,2024-04-18_09h06.52.817,jersey_experiment_5_v0,2023.2.2,Win32,84.74576271,,,,,,,,,,,,,,,,556.2024,557.2548,557.2549,562.279,return,1.8527,,68.48958333,,,,,,FBP-RB-18.png,0.4,1.2,38,0.25,,,,,,,,,,,,,0,0,0,37,1,,,,,,,,,,,,,,,,,,,,,,,,,,,,
,,,,,SPR24_063,21,female,2024-04-18_09h06.52.817,jersey_experiment_5_v0,2023.2.2,Win32,84.74576271,,,,,,,,,,,,,,,,562.2795,563.3258,563.3259,564.9376,return,0.2025,,84.11458333,,,,,,FBP-OG-91.png,0.4,1.2,13,0.25,,,,,,,,,,,,,0,1,1,12,1,,,,,,,,,,,,,,,,,,,,,,,,,,,,
,,,,,SPR24_063,21,female,2024-04-18_09h06.52.817,jersey_experiment_5_v0,2023.2.2,Win32,84.74576271,,,,,,,,,,,,,,,,564.9378,565.9846,565.9847,566.7731,return,0.0185,,90.36458333,,,,,,FBP-RB-19.png,0.43,1.2,44,0.25,,,,,,,,,,,,,0,2,2,43,1,,,,,,,,,,,,,,,,,,,,,,,,,,,,
,,,,,SPR24_063,21,female,2024-04-18_09h06.52.817,jersey_experiment_5_v0,2023.2.2,Win32,84.74576271,,,,,,,,,,,,,,,,566.7734,567.82,567.82,568.9729,return,0.0333,,72.00520833,,,,,,FBP-OG-81.png,0.4,1.2,8,0.25,,,,,,,,,,,,,0,3,3,7,1,,,,,,,,,,,,,,,,,,,,,,,,,,,,
,,,,,SPR24_063,21,female,2024-04-18_09h06.52.817,jersey_experiment_5_v0,2023.2.2,Win32,84.74576271,,,,,,,,,,,,,,,,568.9732,570.0202,570.0202,571.0201,return,0.0105,,95.703125,,,,,,FBP-RB-18.png,0.43,1.2,39,0.25,,,,,,,,,,,,,0,4,4,38,1,,,,,,,,,,,,,,,,,,,,,,,,,,,,
,,,,,SPR24_063,21,female,2024-04-18_09h06.52.817,jersey_experiment_5_v0,2023.2.2,Win32,84.74576271,,,,,,,,,,,,,,,,571.0204,572.3143,572.3143,572.9849,return,0.0721,,99.34895833,,,,,,FBP-YG-18.png,0.45,1.2,25,0.5,,,,,,,,,,,,,0,5,5,24,1,,,,,,,,,,,,,,,,,,,,,,,,,,,,
,,,,,SPR24_063,21,female,2024-04-18_09h06.52.817,jersey_experiment_5_v0,2023.2.2,Win32,84.74576271,,,,,,,,,,,,,,,,572.9851,574.2793,574.2793,575.6439,return,0.0372,,9.765625,,,,,,FBP-PT-19.png,0.35,1.2,56,0.5,,,,,,,,,,,,,0,6,6,55,1,,,,,,,,,,,,,,,,,,,,,,,,,,,,
,,,,,SPR24_063,21,female,2024-04-18_09h06.52.817,jersey_experiment_5_v0,2023.2.2,Win32,84.74576271,,,,,,,,,,,,,,,,575.6441,576.6909,576.691,578.2205,return,0.7865,,8.333333333,,,,,,FBP-OG-81.png,0.35,1.2,6,0.25,,,,,,,,,,,,,0,7,7,5,1,,,,,,,,,,,,,,,,,,,,,,,,,,,,
,,,,,SPR24_063,21,female,2024-04-18_09h06.52.817,jersey_experiment_5_v0,2023.2.2,Win32,84.74576271,,,,,,,,,,,,,,,,578.2208,579.5148,579.5148,580.6324,return,0.0717,,27.734375,,,,,,FBP-PT-19.png,0.37,1.2,57,0.5,,,,,,,,,,,,,0,8,8,56,1,,,,,,,,,,,,,,,,,,,,,,,,,,,,
,,,,,SPR24_063,21,female,2024-04-18_09h06.52.817,jersey_experiment_5_v0,2023.2.2,Win32,84.74576271,,,,,,,,,,,,,,,,580.6327,581.6794,581.6795,582.9384,return,0.0384,,72.13541667,,,,,,FBP-OG-91.png,0.43,1.2,14,0.25,,,,,,,,,,,,,0,9,9,13,1,,,,,,,,,,,,,,,,,,,,,,,,,,,,
,,,,,SPR24_063,21,female,2024-04-18_09h06.52.817,jersey_experiment_5_v0,2023.2.2,Win32,84.74576271,,,,,,,,,,,,,,,,582.9387,583.9852,583.9852,585.2443,return,0.0237,,94.66145833,,,,,,FBP-OG-71.png,0.45,1.2,5,0.25,,,,,,,,,,,,,0,10,10,4,1,,,,,,,,,,,,,,,,,,,,,,,,,,,,
,,,,,SPR24_063,21,female,2024-04-18_09h06.52.817,jersey_experiment_5_v0,2023.2.2,Win32,84.74576271,,,,,,,,,,,,,,,,585.2446,586.2913,586.2913,587.0327,return,0.0013,,97.13541667,,,,,,FBP-OG-71.png,0.43,1.2,4,0.25,,,,,,,,,,,,,0,11,11,3,1,,,,,,,,,,,,,,,,,,,,,,,,,,,,
,,,,,SPR24_063,21,female,2024-04-18_09h06.52.817,jersey_experiment_5_v0,2023.2.2,Win32,84.74576271,,,,,,,,,,,,,,,,587.0329,588.0796,588.0797,590.0208,return,0.147,,12.63020833,,,,,,FBP-RB-17.png,0.37,1.2,32,0.25,,,,,,,,,,,,,0,12,12,31,1,,,,,,,,,,,,,,,,,,,,,,,,,,,,
,,,,,SPR24_063,21,female,2024-04-18_09h06.52.817,jersey_experiment_5_v0,2023.2.2,Win32,84.74576271,,,,,,,,,,,,,,,,590.0211,591.3153,591.3153,592.7622,return,0.0018,,92.05729167,,,,,,FBP-PT-17.png,0.43,1.2,49,0.5,,,,,,,,,,,,,0,13,13,48,1,,,,,,,,,,,,,,,,,,,,,,,,,,,,
,,,,,SPR24_063,21,female,2024-04-18_09h06.52.817,jersey_experiment_5_v0,2023.2.2,Win32,84.74576271,,,,,,,,,,,,,,,,592.7625,593.8092,593.8092,595.2917,return,0.5316,,97.91666667,,,,,,FBP-RB-17.png,0.45,1.2,35,0.25,,,,,,,,,,,,,0,14,14,34,1,,,,,,,,,,,,,,,,,,,,,,,,,,,,
,,,,,SPR24_063,21,female,2024-04-18_09h06.52.817,jersey_experiment_5_v0,2023.2.2,Win32,84.74576271,,,,,,,,,,,,,,,,595.2919,596.5862,596.5862,600.4919,return,0.4386,,27.47395833,,,,,,FBP-YG-19.png,0.35,1.2,26,0.5,,,,,,,,,,,,,0,15,15,25,1,,,,,,,,,,,,,,,,,,,,,,,,,,,,
,,,,,SPR24_063,21,female,2024-04-18_09h06.52.817,jersey_experiment_5_v0,2023.2.2,Win32,84.74576271,,,,,,,,,,,,,,,,600.4921,601.7861,601.7861,603.3978,return,0.1944,,96.74479167,,,,,,FBP-PT-19.png,0.45,1.2,60,0.5,,,,,,,,,,,,,0,16,16,59,1,,,,,,,,,,,,,,,,,,,,,,,,,,,,
,,,,,SPR24_063,21,female,2024-04-18_09h06.52.817,jersey_experiment_5_v0,2023.2.2,Win32,84.74576271,,,,,,,,,,,,,,,,603.3981,604.692,604.692,605.9275,return,0.1106,,86.328125,,,,,,FBP-PT-19.png,0.4,1.2,58,0.5,,,,,,,,,,,,,0,17,17,57,1,,,,,,,,,,,,,,,,,,,,,,,,,,,,
,,,,,SPR24_063,21,female,2024-04-18_09h06.52.817,jersey_experiment_5_v0,2023.2.2,Win32,84.74576271,,,,,,,,,,,,,,,,605.9277,607.2217,607.2218,608.8687,return,0.1702,,21.61458333,,,,,,FBP-PT-18.png,0.35,1.2,51,0.5,,,,,,,,,,,,,0,18,18,50,1,,,,,,,,,,,,,,,,,,,,,,,,,,,,
,,,,,SPR24_063,21,female,2024-04-18_09h06.52.817,jersey_experiment_5_v0,2023.2.2,Win32,84.74576271,,,,,,,,,,,,,,,,608.8689,610.1629,610.163,611.5746,return,0.2388,,87.23958333,,,,,,FBP-PT-17.png,0.45,1.2,50,0.5,,,,,,,,,,,,,0,19,19,49,1,,,,,,,,,,,,,,,,,,,,,,,,,,,,
,,,,,SPR24_063,21,female,2024-04-18_09h06.52.817,jersey_experiment_5_v0,2023.2.2,Win32,84.74576271,,,,,,,,,,,,,,,,611.5748,612.6217,612.6217,613.963,return,0.0006,,38.93229167,,,,,,FBP-RB-18.png,0.37,1.2,37,0.25,,,,,,,,,,,,,0,20,20,36,1,,,,,,,,,,,,,,,,,,,,,,,,,,,,
,,,,,SPR24_063,21,female,2024-04-18_09h06.52.817,jersey_experiment_5_v0,2023.2.2,Win32,84.74576271,,,,,,,,,,,,,,,,613.9631,615.0103,615.0103,615.9983,return,0.0473,,36.06770833,,,,,,FBP-RB-17.png,0.35,1.2,31,0.25,,,,,,,,,,,,,0,21,21,30,1,,,,,,,,,,,,,,,,,,,,,,,,,,,,
,,,,,SPR24_063,21,female,2024-04-18_09h06.52.817,jersey_experiment_5_v0,2023.2.2,Win32,84.74576271,,,,,,,,,,,,,,,,615.9985,617.0455,617.0455,618.8101,return,0.1766,,57.03125,,,,,,FBP-RB-19.png,0.4,1.2,43,0.25,,,,,,,,,,,,,0,22,22,42,1,,,,,,,,,,,,,,,,,,,,,,,,,,,,
,,,,,SPR24_063,21,female,2024-04-18_09h06.52.817,jersey_experiment_5_v0,2023.2.2,Win32,84.74576271,,,,,,,,,,,,,,,,618.8103,620.1045,620.1045,621.3632,return,0.068,,93.359375,,,,,,FBP-PT-18.png,0.43,1.2,54,0.5,,,,,,,,,,,,,0,23,23,53,1,,,,,,,,,,,,,,,,,,,,,,,,,,,,
,,,,,SPR24_063,21,female,2024-04-18_09h06.52.817,jersey_experiment_5_v0,2023.2.2,Win32,84.74576271,,,,,,,,,,,,,,,,621.3635,622.6573,622.6573,624.2928,return,0.0163,,32.29166667,,,,,,FBP-YG-17.png,0.37,1.2,17,0.5,,,,,,,,,,,,,0,24,24,16,1,,,,,,,,,,,,,,,,,,,,,,,,,,,,
,,,,,SPR24_063,21,female,2024-04-18_09h06.52.817,jersey_experiment_5_v0,2023.2.2,Win32,84.74576271,,,,,,,,,,,,,,,,624.293,625.5868,625.5869,626.5517,return,0.0615,,94.40104167,,,,,,FBP-YG-19.png,0.43,1.2,29,0.5,,,,,,,,,,,,,0,25,25,28,1,,,,,,,,,,,,,,,,,,,,,,,,,,,,
,,,,,SPR24_063,21,female,2024-04-18_09h06.52.817,jersey_experiment_5_v0,2023.2.2,Win32,84.74576271,,,,,,,,,,,,,,,,626.5519,627.5987,627.5988,628.7282,return,0.049,,70.05208333,,,,,,FBP-OG-71.png,0.4,1.2,3,0.25,,,,,,,,,,,,,0,26,26,2,1,,,,,,,,,,,,,,,,,,,,,,,,,,,,
,,,,,SPR24_063,21,female,2024-04-18_09h06.52.817,jersey_experiment_5_v0,2023.2.2,Win32,84.74576271,,,,,,,,,,,,,,,,628.7284,629.7752,629.7753,631.1165,return,0.0095,,70.83333333,,,,,,FBP-RB-17.png,0.4,1.2,33,0.25,,,,,,,,,,,,,0,27,27,32,1,,,,,,,,,,,,,,,,,,,,,,,,,,,,
,,,,,SPR24_063,21,female,2024-04-18_09h06.52.817,jersey_experiment_5_v0,2023.2.2,Win32,84.74576271,,,,,,,,,,,,,,,,631.1167,632.4106,632.4106,633.093,return,0.0172,,79.81770833,,,,,,FBP-YG-17.png,0.43,1.2,19,0.5,,,,,,,,,,,,,0,28,28,18,1,,,,,,,,,,,,,,,,,,,,,,,,,,,,
,,,,,SPR24_063,21,female,2024-04-18_09h06.52.817,jersey_experiment_5_v0,2023.2.2,Win32,84.74576271,,,,,,,,,,,,,,,,633.0933,634.3871,634.3871,635.3519,return,0.0278,,30.46875,,,,,,FBP-PT-17.png,0.37,1.2,47,0.5,,,,,,,,,,,,,0,29,29,46,1,,,,,,,,,,,,,,,,,,,,,,,,,,,,
,,,,,SPR24_063,21,female,2024-04-18_09h06.52.817,jersey_experiment_5_v0,2023.2.2,Win32,84.74576271,,,,,,,,,,,,,,,,635.3522,636.646,636.6461,637.6934,return,0.0244,,43.09895833,,,,,,FBP-YG-19.png,0.4,1.2,28,0.5,,,,,,,,,,,,,0,30,30,27,1,,,,,,,,,,,,,,,,,,,,,,,,,,,,
,,,,,SPR24_063,21,female,2024-04-18_09h06.52.817,jersey_experiment_5_v0,2023.2.2,Win32,84.74576271,,,,,,,,,,,,,,,,637.6936,638.9874,638.9874,639.8817,return,0.0143,,29.81770833,,,,,,FBP-YG-17.png,0.35,1.2,16,0.5,,,,,,,,,,,,,0,31,31,15,1,,,,,,,,,,,,,,,,,,,,,,,,,,,,
,,,,,SPR24_063,21,female,2024-04-18_09h06.52.817,jersey_experiment_5_v0,2023.2.2,Win32,84.74576271,,,,,,,,,,,,,,,,639.8818,641.1758,641.1758,642.7405,return,0.4549,,30.20833333,,,,,,FBP-YG-18.png,0.37,1.2,22,0.5,,,,,,,,,,,,,0,32,32,21,1,,,,,,,,,,,,,,,,,,,,,,,,,,,,
,,,,,SPR24_063,21,female,2024-04-18_09h06.52.817,jersey_experiment_5_v0,2023.2.2,Win32,84.74576271,,,,,,,,,,,,,,,,642.7408,644.0346,644.0346,645.4817,return,0.179,,98.95833333,,,,,,FBP-YG-19.png,0.45,1.2,30,0.5,,,,,,,,,,,,,0,33,33,29,1,,,,,,,,,,,,,,,,,,,,,,,,,,,,
,,,,,SPR24_063,21,female,2024-04-18_09h06.52.817,jersey_experiment_5_v0,2023.2.2,Win32,84.74576271,,,,,,,,,,,,,,,,645.4819,646.5288,646.5288,648.6467,return,0.1563,,69.53125,,,,,,FBP-RB-19.png,0.37,1.2,42,0.25,,,,,,,,,,,,,0,34,34,41,1,,,,,,,,,,,,,,,,,,,,,,,,,,,,
,,,,,SPR24_063,21,female,2024-04-18_09h06.52.817,jersey_experiment_5_v0,2023.2.2,Win32,84.74576271,,,,,,,,,,,,,,,,648.647,649.6938,649.6939,651.0467,return,0.1938,,34.50520833,,,,,,FBP-RB-19.png,0.35,1.2,41,0.25,,,,,,,,,,,,,0,35,35,40,1,,,,,,,,,,,,,,,,,,,,,,,,,,,,
,,,,,SPR24_063,21,female,2024-04-18_09h06.52.817,jersey_experiment_5_v0,2023.2.2,Win32,84.74576271,,,,,,,,,,,,,,,,651.0469,652.3408,652.3408,653.6348,return,0.16,,76.04166667,,,,,,FBP-PT-19.png,0.43,1.2,59,0.5,,,,,,,,,,,,,0,36,36,58,1,,,,,,,,,,,,,,,,,,,,,,,,,,,,
,,,,,SPR24_063,21,female,2024-04-18_09h06.52.817,jersey_experiment_5_v0,2023.2.2,Win32,84.74576271,,,,,,,,,,,,,,,,653.635,654.9291,654.9291,655.6939,return,0.1889,,83.59375,,,,,,FBP-YG-18.png,0.43,1.2,24,0.5,,,,,,,,,,,,,0,37,37,23,1,,,,,,,,,,,,,,,,,,,,,,,,,,,,
,,,,,SPR24_063,21,female,2024-04-18_09h06.52.817,jersey_experiment_5_v0,2023.2.2,Win32,84.74576271,,,,,,,,,,,,,,,,655.6943,656.741,656.741,657.6115,return,0.1647,,88.54166667,,,,,,FBP-OG-81.png,0.43,1.2,9,0.25,,,,,,,,,,,,,0,38,38,8,1,,,,,,,,,,,,,,,,,,,,,,,,,,,,
,,,,,SPR24_063,21,female,2024-04-18_09h06.52.817,jersey_experiment_5_v0,2023.2.2,Win32,84.74576271,,,,,,,,,,,,,,,,657.6117,658.9058,658.9058,659.7529,return,0.1775,,98.828125,,,,,,FBP-YG-17.png,0.45,1.2,20,0.5,,,,,,,,,,,,,0,39,39,19,1,,,,,,,,,,,,,,,,,,,,,,,,,,,,
,,,,,SPR24_063,21,female,2024-04-18_09h06.52.817,jersey_experiment_5_v0,2023.2.2,Win32,84.74576271,,,,,,,,,,,,,,,,659.7532,661.0472,661.0472,663.4827,return,0.932,,8.203125,,,,,,FBP-PT-17.png,0.35,1.2,46,0.5,,,,,,,,,,,,,0,40,40,45,1,,,,,,,,,,,,,,,,,,,,,,,,,,,,
,,,,,SPR24_063,21,female,2024-04-18_09h06.52.817,jersey_experiment_5_v0,2023.2.2,Win32,84.74576271,,,,,,,,,,,,,,,,663.483,664.7766,664.7766,665.9767,return,0.2355,,5.729166667,,,,,,FBP-PT-18.png,0.37,1.2,52,0.5,,,,,,,,,,,,,0,41,41,51,1,,,,,,,,,,,,,,,,,,,,,,,,,,,,
,,,,,SPR24_063,21,female,2024-04-18_09h06.52.817,jersey_experiment_5_v0,2023.2.2,Win32,84.74576271,,,,,,,,,,,,,,,,665.9769,667.2708,667.2709,668.9533,return,0.3182,,44.40104167,,,,,,FBP-YG-18.png,0.4,1.2,23,0.5,,,,,,,,,,,,,0,42,42,22,1,,,,,,,,,,,,,,,,,,,,,,,,,,,,
,,,,,SPR24_063,21,female,2024-04-18_09h06.52.817,jersey_experiment_5_v0,2023.2.2,Win32,84.74576271,,,,,,,,,,,,,,,,668.9535,670.0004,670.0004,671.5769,return,0.2737,,87.76041667,,,,,,FBP-RB-17.png,0.43,1.2,34,0.25,,,,,,,,,,,,,0,43,43,33,1,,,,,,,,,,,,,,,,,,,,,,,,,,,,
,,,,,SPR24_063,21,female,2024-04-18_09h06.52.817,jersey_experiment_5_v0,2023.2.2,Win32,84.74576271,,,,,,,,,,,,,,,,671.5772,672.8712,672.8712,673.8829,return,0.1882,,80.20833333,,,,,,FBP-PT-17.png,0.4,1.2,48,0.5,,,,,,,,,,,,,0,44,44,47,1,,,,,,,,,,,,,,,,,,,,,,,,,,,,
,,,,,SPR24_063,21,female,2024-04-18_09h06.52.817,jersey_experiment_5_v0,2023.2.2,Win32,84.74576271,,,,,,,,,,,,,,,,673.8831,675.177,675.1771,676.5889,return,0.1875,,8.723958333,,,,,,FBP-YG-18.png,0.35,1.2,21,0.5,,,,,,,,,,,,,0,45,45,20,1,,,,,,,,,,,,,,,,,,,,,,,,,,,,
,,,,,SPR24_063,21,female,2024-04-18_09h06.52.817,jersey_experiment_5_v0,2023.2.2,Win32,84.74576271,,,,,,,,,,,,,,,,676.5892,677.6359,677.6359,679.2828,return,0.1969,,3.645833333,,,,,,FBP-OG-71.png,0.35,1.2,1,0.25,,,,,,,,,,,,,0,46,46,0,1,,,,,,,,,,,,,,,,,,,,,,,,,,,,
,,,,,SPR24_063,21,female,2024-04-18_09h06.52.817,jersey_experiment_5_v0,2023.2.2,Win32,84.74576271,,,,,,,,,,,,,,,,679.2831,680.3301,680.3301,681.9183,return,0.1887,,99.86979167,,,,,,FBP-OG-81.png,0.45,1.2,10,0.25,,,,,,,,,,,,,0,47,47,9,1,,,,,,,,,,,,,,,,,,,,,,,,,,,,
,,,,,SPR24_063,21,female,2024-04-18_09h06.52.817,jersey_experiment_5_v0,2023.2.2,Win32,84.74576271,,,,,,,,,,,,,,,,681.9185,682.9655,682.9656,684.7424,return,0.1005,,69.140625,,,,,,FBP-OG-91.png,0.37,1.2,12,0.25,,,,,,,,,,,,,0,48,48,11,1,,,,,,,,,,,,,,,,,,,,,,,,,,,,
,,,,,SPR24_063,21,female,2024-04-18_09h06.52.817,jersey_experiment_5_v0,2023.2.2,Win32,84.74576271,,,,,,,,,,,,,,,,684.7425,685.7891,685.7892,687.2127,return,0.071,,99.21875,,,,,,FBP-OG-91.png,0.45,1.2,15,0.25,,,,,,,,,,,,,0,49,49,14,1,,,,,,,,,,,,,,,,,,,,,,,,,,,,
,,,,,SPR24_063,21,female,2024-04-18_09h06.52.817,jersey_experiment_5_v0,2023.2.2,Win32,84.74576271,,,,,,,,,,,,,,,,687.213,688.5069,688.507,689.8951,return,0.0523,,89.453125,,,,,,FBP-YG-17.png,0.4,1.2,18,0.5,,,,,,,,,,,,,0,50,50,17,1,,,,,,,,,,,,,,,,,,,,,,,,,,,,
,,,,,SPR24_063,21,female,2024-04-18_09h06.52.817,jersey_experiment_5_v0,2023.2.2,Win32,84.74576271,,,,,,,,,,,,,,,,689.8953,690.9422,690.9422,692.1187,return,0.182,,99.609375,,,,,,FBP-RB-19.png,0.45,1.2,45,0.25,,,,,,,,,,,,,0,51,51,44,1,,,,,,,,,,,,,,,,,,,,,,,,,,,,
,,,,,SPR24_063,21,female,2024-04-18_09h06.52.817,jersey_experiment_5_v0,2023.2.2,Win32,84.74576271,,,,,,,,,,,,,,,,692.119,693.4132,693.4132,694.6482,return,0.145,,55.59895833,,,,,,FBP-YG-19.png,0.37,1.2,27,0.5,,,,,,,,,,,,,0,52,52,26,1,,,,,,,,,,,,,,,,,,,,,,,,,,,,
,,,,,SPR24_063,21,female,2024-04-18_09h06.52.817,jersey_experiment_5_v0,2023.2.2,Win32,84.74576271,,,,,,,,,,,,,,,,694.6485,695.6953,695.6953,697.4131,return,0.1464,,6.510416667,,,,,,FBP-OG-71.png,0.37,1.2,2,0.25,,,,,,,,,,,,,0,53,53,1,1,,,,,,,,,,,,,,,,,,,,,,,,,,,,
,,,,,SPR24_063,21,female,2024-04-18_09h06.52.817,jersey_experiment_5_v0,2023.2.2,Win32,84.74576271,,,,,,,,,,,,,,,,697.4133,698.7075,698.7075,700.0367,return,0.2052,,96.74479167,,,,,,FBP-PT-18.png,0.45,1.2,55,0.5,,,,,,,,,,,,,0,54,54,54,1,,,,,,,,,,,,,,,,,,,,,,,,,,,,
,,,,,SPR24_063,21,female,2024-04-18_09h06.52.817,jersey_experiment_5_v0,2023.2.2,Win32,84.74576271,,,,,,,,,,,,,,,,700.0369,701.084,701.084,702.9545,return,0.247,,5.989583333,,,,,,FBP-RB-18.png,0.35,1.2,36,0.25,,,,,,,,,,,,,0,55,55,35,1,,,,,,,,,,,,,,,,,,,,,,,,,,,,
,,,,,SPR24_063,21,female,2024-04-18_09h06.52.817,jersey_experiment_5_v0,2023.2.2,Win32,84.74576271,,,,,,,,,,,,,,,,702.9547,704.0016,704.0017,705.4017,return,0.2612,,25.78125,,,,,,FBP-OG-81.png,0.37,1.2,7,0.25,,,,,,,,,,,,,0,56,56,6,1,,,,,,,,,,,,,,,,,,,,,,,,,,,,
,,,,,SPR24_063,21,female,2024-04-18_09h06.52.817,jersey_experiment_5_v0,2023.2.2,Win32,84.74576271,,,,,,,,,,,,,,,,705.4019,706.4486,706.4486,707.9311,return,0.2356,,3.776041667,,,,,,FBP-OG-91.png,0.35,1.2,11,0.25,,,,,,,,,,,,,0,57,57,10,1,,,,,,,,,,,,,,,,,,,,,,,,,,,,
,,,,,SPR24_063,21,female,2024-04-18_09h06.52.817,jersey_experiment_5_v0,2023.2.2,Win32,84.74576271,,,,,,,,,,,,,,,,707.9314,709.2254,709.2254,710.5311,return,0.2208,,49.34895833,,,,,,FBP-PT-18.png,0.4,1.2,53,0.5,,,,,,,,,,,,,0,58,58,52,1,,,,,,,,,,,,,,,,,,,,,,,,,,,,
,,,,,SPR24_063,21,female,2024-04-18_09h06.52.817,jersey_experiment_5_v0,2023.2.2,Win32,84.74576271,,,,,,,,,,,,,,,,710.5314,711.5784,711.5784,713.1667,return,0.2118,,99.21875,,,,,,FBP-RB-18.png,0.45,1.2,40,0.25,,,,,,,,,,,,,0,59,59,39,1,,,,,,,,,,,,,,,,,,,,,,,,,,,,
,,,,,SPR24_063,21,female,2024-04-18_09h06.52.817,jersey_experiment_5_v0,2023.2.2,Win32,84.74576271,,,,,,,,,,,,,,,,713.1682,714.4607,714.4607,716.0726,return,0.2037,,88.41145833,,,,,,FBP-PT-91.png,0.4,1.2,58,0.5,,,,,,,,,,,,,,,,,,0,0,0,57,1,,,,,,,,,,,,,,,,,,,,,,,
,,,,,SPR24_063,21,female,2024-04-18_09h06.52.817,jersey_experiment_5_v0,2023.2.2,Win32,84.74576271,,,,,,,,,,,,,,,,716.0731,717.1197,717.1197,719.0139,return,0.3706,,66.40625,,,,,,FBP-OG-17.png,0.4,1.2,3,0.25,,,,,,,,,,,,,,,,,,0,1,1,2,1,,,,,,,,,,,,,,,,,,,,,,,
,,,,,SPR24_063,21,female,2024-04-18_09h06.52.817,jersey_experiment_5_v0,2023.2.2,Win32,84.74576271,,,,,,,,,,,,,,,,719.0142,720.061,720.061,721.308,return,0.165,,69.01041667,,,,,,FBP-RB-81.png,0.4,1.2,38,0.25,,,,,,,,,,,,,,,,,,0,2,2,37,1,,,,,,,,,,,,,,,,,,,,,,,
,,,,,SPR24_063,21,female,2024-04-18_09h06.52.817,jersey_experiment_5_v0,2023.2.2,Win32,84.74576271,,,,,,,,,,,,,,,,721.3083,722.3551,722.3552,723.2848,return,0.1349,,79.03645833,,,,,,FBP-RB-91.png,0.43,1.2,44,0.25,,,,,,,,,,,,,,,,,,0,3,3,43,1,,,,,,,,,,,,,,,,,,,,,,,
,,,,,SPR24_063,21,female,2024-04-18_09h06.52.817,jersey_experiment_5_v0,2023.2.2,Win32,84.74576271,,,,,,,,,,,,,,,,723.2849,724.5789,724.5789,725.1552,return,0.0912,,85.41666667,,,,,,FBP-PT-81.png,0.45,1.2,55,0.5,,,,,,,,,,,,,,,,,,0,4,4,54,1,,,,,,,,,,,,,,,,,,,,,,,
,,,,,SPR24_063,21,female,2024-04-18_09h06.52.817,jersey_experiment_5_v0,2023.2.2,Win32,84.74576271,,,,,,,,,,,,,,,,725.1554,726.2024,726.2025,727.7318,return,0.173,,16.015625,,,,,,FBP-OG-18.png,0.35,1.2,6,0.25,,,,,,,,,,,,,,,,,,0,5,5,5,1,,,,,,,,,,,,,,,,,,,,,,,
,,,,,SPR24_063,21,female,2024-04-18_09h06.52.817,jersey_experiment_5_v0,2023.2.2,Win32,84.74576271,,,,,,,,,,,,,,,,727.7319,728.7789,728.779,729.5907,return,0.0623,,15.75520833,,,,,,FBP-RB-71.png,0.37,1.2,32,0.25,,,,,,,,,,,,,,,,,,0,6,6,31,1,,,,,,,,,,,,,,,,,,,,,,,
,,,,,SPR24_063,21,female,2024-04-18_09h06.52.817,jersey_experiment_5_v0,2023.2.2,Win32,84.74576271,,,,,,,,,,,,,,,,729.5909,730.6379,730.638,731.7084,return,0.1416,,89.97395833,,,,,,FBP-RB-71.png,0.43,1.2,34,0.25,,,,,,,,,,,,,,,,,,0,7,7,33,1,,,,,,,,,,,,,,,,,,,,,,,
,,,,,SPR24_063,21,female,2024-04-18_09h06.52.817,jersey_experiment_5_v0,2023.2.2,Win32,84.74576271,,,,,,,,,,,,,,,,731.7086,732.7556,732.7556,734.179,return,0.5974,,96.09375,,,,,,FBP-OG-17.png,0.45,1.2,5,0.25,,,,,,,,,,,,,,,,,,0,8,8,4,1,,,,,,,,,,,,,,,,,,,,,,,
,,,,,SPR24_063,21,female,2024-04-18_09h06.52.817,jersey_experiment_5_v0,2023.2.2,Win32,84.74576271,,,,,,,,,,,,,,,,734.1792,735.2265,735.2266,736.1791,return,0.1265,,79.81770833,,,,,,FBP-RB-71.png,0.4,1.2,33,0.25,,,,,,,,,,,,,,,,,,0,9,9,32,1,,,,,,,,,,,,,,,,,,,,,,,
,,,,,SPR24_063,21,female,2024-04-18_09h06.52.817,jersey_experiment_5_v0,2023.2.2,Win32,84.74576271,,,,,,,,,,,,,,,,736.1794,737.4733,737.4734,740.4148,return,0.151,,73.046875,,,,,,FBP-YG-81.png,0.4,1.2,23,0.5,,,,,,,,,,,,,,,,,,0,10,10,22,1,,,,,,,,,,,,,,,,,,,,,,,
,,,,,SPR24_063,21,female,2024-04-18_09h06.52.817,jersey_experiment_5_v0,2023.2.2,Win32,84.74576271,,,,,,,,,,,,,,,,740.415,741.4617,741.4617,743.2853,return,0.1716,,27.08333333,,,,,,FBP-OG-17.png,0.37,1.2,2,0.25,,,,,,,,,,,,,,,,,,0,11,11,1,1,,,,,,,,,,,,,,,,,,,,,,,
,,,,,SPR24_063,21,female,2024-04-18_09h06.52.817,jersey_experiment_5_v0,2023.2.2,Win32,84.74576271,,,,,,,,,,,,,,,,743.2855,744.5796,744.5796,745.7326,return,0.1347,,98.828125,,,,,,FBP-YG-81.png,0.45,1.2,25,0.5,,,,,,,,,,,,,,,,,,0,12,12,24,1,,,,,,,,,,,,,,,,,,,,,,,
,,,,,SPR24_063,21,female,2024-04-18_09h06.52.817,jersey_experiment_5_v0,2023.2.2,Win32,84.74576271,,,,,,,,,,,,,,,,745.7329,746.7797,746.7797,747.4855,return,0.1414,,98.69791667,,,,,,FBP-OG-19.png,0.43,1.2,14,0.25,,,,,,,,,,,,,,,,,,0,13,13,13,1,,,,,,,,,,,,,,,,,,,,,,,
,,,,,SPR24_063,21,female,2024-04-18_09h06.52.817,jersey_experiment_5_v0,2023.2.2,Win32,84.74576271,,,,,,,,,,,,,,,,747.4859,748.7797,748.7798,750.3916,return,0.0988,,60.80729167,,,,,,FBP-PT-91.png,0.37,1.2,57,0.5,,,,,,,,,,,,,,,,,,0,14,14,56,1,,,,,,,,,,,,,,,,,,,,,,,
,,,,,SPR24_063,21,female,2024-04-18_09h06.52.817,jersey_experiment_5_v0,2023.2.2,Win32,84.74576271,,,,,,,,,,,,,,,,750.3918,751.6859,751.6859,752.568,return,0.2149,,35.67708333,,,,,,FBP-YG-81.png,0.35,1.2,21,0.5,,,,,,,,,,,,,,,,,,0,15,15,20,1,,,,,,,,,,,,,,,,,,,,,,,
,,,,,SPR24_063,21,female,2024-04-18_09h06.52.817,jersey_experiment_5_v0,2023.2.2,Win32,84.74576271,,,,,,,,,,,,,,,,752.5683,753.6151,753.6151,754.5563,return,0.1182,,38.54166667,,,,,,FBP-RB-71.png,0.35,1.2,31,0.25,,,,,,,,,,,,,,,,,,0,16,16,30,1,,,,,,,,,,,,,,,,,,,,,,,
,,,,,SPR24_063,21,female,2024-04-18_09h06.52.817,jersey_experiment_5_v0,2023.2.2,Win32,84.74576271,,,,,,,,,,,,,,,,754.5565,755.6036,755.6036,756.9213,return,0.2029,,99.609375,,,,,,FBP-RB-91.png,0.45,1.2,45,0.25,,,,,,,,,,,,,,,,,,0,17,17,44,1,,,,,,,,,,,,,,,,,,,,,,,
,,,,,SPR24_063,21,female,2024-04-18_09h06.52.817,jersey_experiment_5_v0,2023.2.2,Win32,84.74576271,,,,,,,,,,,,,,,,756.9215,758.2154,758.2154,758.8273,return,0.1547,,99.609375,,,,,,FBP-YG-71.png,0.45,1.2,20,0.5,,,,,,,,,,,,,,,,,,0,18,18,19,1,,,,,,,,,,,,,,,,,,,,,,,
,,,,,SPR24_063,21,female,2024-04-18_09h06.52.817,jersey_experiment_5_v0,2023.2.2,Win32,84.74576271,,,,,,,,,,,,,,,,758.8275,760.1214,760.1214,761.6743,return,0.0716,,2.864583333,,,,,,FBP-PT-71.png,0.35,1.2,46,0.5,,,,,,,,,,,,,,,,,,0,19,19,45,1,,,,,,,,,,,,,,,,,,,,,,,
,,,,,SPR24_063,21,female,2024-04-18_09h06.52.817,jersey_experiment_5_v0,2023.2.2,Win32,84.74576271,,,,,,,,,,,,,,,,761.6744,762.7213,762.7213,764.1685,return,0.6366,,2.864583333,,,,,,FBP-OG-17.png,0.35,1.2,1,0.25,,,,,,,,,,,,,,,,,,0,20,20,0,1,,,,,,,,,,,,,,,,,,,,,,,
,,,,,SPR24_063,21,female,2024-04-18_09h06.52.817,jersey_experiment_5_v0,2023.2.2,Win32,84.74576271,,,,,,,,,,,,,,,,764.1688,765.4628,765.4628,767.6039,return,0.1243,,99.86979167,,,,,,FBP-YG-91.png,0.43,1.2,29,0.5,,,,,,,,,,,,,,,,,,0,21,21,28,1,,,,,,,,,,,,,,,,,,,,,,,
,,,,,SPR24_063,21,female,2024-04-18_09h06.52.817,jersey_experiment_5_v0,2023.2.2,Win32,84.74576271,,,,,,,,,,,,,,,,767.6042,768.8983,768.8983,770.2039,return,0.165,,22.65625,,,,,,FBP-YG-81.png,0.37,1.2,22,0.5,,,,,,,,,,,,,,,,,,0,22,22,21,1,,,,,,,,,,,,,,,,,,,,,,,
,,,,,SPR24_063,21,female,2024-04-18_09h06.52.817,jersey_experiment_5_v0,2023.2.2,Win32,84.74576271,,,,,,,,,,,,,,,,770.2042,771.4982,771.4983,772.5805,return,0.1112,,95.05208333,,,,,,FBP-PT-91.png,0.45,1.2,60,0.5,,,,,,,,,,,,,,,,,,0,23,23,59,1,,,,,,,,,,,,,,,,,,,,,,,
,,,,,SPR24_063,21,female,2024-04-18_09h06.52.817,jersey_experiment_5_v0,2023.2.2,Win32,84.74576271,,,,,,,,,,,,,,,,772.5807,773.8748,773.8748,774.5219,return,0.085,,93.88020833,,,,,,FBP-PT-71.png,0.43,1.2,49,0.5,,,,,,,,,,,,,,,,,,0,24,24,48,1,,,,,,,,,,,,,,,,,,,,,,,
,,,,,SPR24_063,21,female,2024-04-18_09h06.52.817,jersey_experiment_5_v0,2023.2.2,Win32,84.74576271,,,,,,,,,,,,,,,,774.5221,775.569,775.569,777.0631,return,0.0736,,80.98958333,,,,,,FBP-OG-18.png,0.4,1.2,8,0.25,,,,,,,,,,,,,,,,,,0,25,25,7,1,,,,,,,,,,,,,,,,,,,,,,,
,,,,,SPR24_063,21,female,2024-04-18_09h06.52.817,jersey_experiment_5_v0,2023.2.2,Win32,84.74576271,,,,,,,,,,,,,,,,777.0633,778.3574,778.3575,779.2279,return,0.1087,,49.08854167,,,,,,FBP-YG-71.png,0.4,1.2,18,0.5,,,,,,,,,,,,,,,,,,0,26,26,17,1,,,,,,,,,,,,,,,,,,,,,,,
,,,,,SPR24_063,21,female,2024-04-18_09h06.52.817,jersey_experiment_5_v0,2023.2.2,Win32,84.74576271,,,,,,,,,,,,,,,,779.2281,780.2749,780.275,781.275,return,0.1557,,66.27604167,,,,,,FBP-OG-19.png,0.4,1.2,13,0.25,,,,,,,,,,,,,,,,,,0,27,27,12,1,,,,,,,,,,,,,,,,,,,,,,,
,,,,,SPR24_063,21,female,2024-04-18_09h06.52.817,jersey_experiment_5_v0,2023.2.2,Win32,84.74576271,,,,,,,,,,,,,,,,781.2753,782.5692,782.5692,783.9456,return,0.1437,,23.30729167,,,,,,FBP-YG-71.png,0.35,1.2,16,0.5,,,,,,,,,,,,,,,,,,0,28,28,15,1,,,,,,,,,,,,,,,,,,,,,,,
,,,,,SPR24_063,21,female,2024-04-18_09h06.52.817,jersey_experiment_5_v0,2023.2.2,Win32,84.74576271,,,,,,,,,,,,,,,,783.9458,784.9928,784.9929,786.0047,return,0.1703,,92.578125,,,,,,FBP-OG-18.png,0.45,1.2,10,0.25,,,,,,,,,,,,,,,,,,0,29,29,9,1,,,,,,,,,,,,,,,,,,,,,,,
,,,,,SPR24_063,21,female,2024-04-18_09h06.52.817,jersey_experiment_5_v0,2023.2.2,Win32,84.74576271,,,,,,,,,,,,,,,,786.005,787.2989,787.299,788.6166,return,0.1564,,25.65104167,,,,,,FBP-PT-81.png,0.35,1.2,51,0.5,,,,,,,,,,,,,,,,,,0,30,30,50,1,,,,,,,,,,,,,,,,,,,,,,,
,,,,,SPR24_063,21,female,2024-04-18_09h06.52.817,jersey_experiment_5_v0,2023.2.2,Win32,84.74576271,,,,,,,,,,,,,,,,788.6168,789.9109,789.9109,790.9341,return,0.0154,,26.171875,,,,,,FBP-YG-71.png,0.37,1.2,17,0.5,,,,,,,,,,,,,,,,,,0,31,31,16,1,,,,,,,,,,,,,,,,,,,,,,,
,,,,,SPR24_063,21,female,2024-04-18_09h06.52.817,jersey_experiment_5_v0,2023.2.2,Win32,84.74576271,,,,,,,,,,,,,,,,790.9344,792.2284,792.2284,793.205,return,0.0994,,98.4375,,,,,,FBP-PT-81.png,0.43,1.2,54,0.5,,,,,,,,,,,,,,,,,,0,32,32,53,1,,,,,,,,,,,,,,,,,,,,,,,
,,,,,SPR24_063,21,female,2024-04-18_09h06.52.817,jersey_experiment_5_v0,2023.2.2,Win32,84.74576271,,,,,,,,,,,,,,,,793.2052,794.499,794.499,795.4755,return,0.1028,,72.52604167,,,,,,FBP-PT-81.png,0.4,1.2,53,0.5,,,,,,,,,,,,,,,,,,0,33,33,52,1,,,,,,,,,,,,,,,,,,,,,,,
,,,,,SPR24_063,21,female,2024-04-18_09h06.52.817,jersey_experiment_5_v0,2023.2.2,Win32,84.74576271,,,,,,,,,,,,,,,,795.4758,796.7696,796.7697,797.405,return,0.1989,,71.22395833,,,,,,FBP-PT-71.png,0.4,1.2,48,0.5,,,,,,,,,,,,,,,,,,0,34,34,47,1,,,,,,,,,,,,,,,,,,,,,,,
,,,,,SPR24_063,21,female,2024-04-18_09h06.52.817,jersey_experiment_5_v0,2023.2.2,Win32,84.74576271,,,,,,,,,,,,,,,,797.4053,798.6991,798.6992,799.111,return,0.121,,71.22395833,,,,,,FBP-PT-71.png,0.37,1.2,47,0.5,,,,,,,,,,,,,,,,,,0,35,35,46,1,,,,,,,,,,,,,,,,,,,,,,,
,,,,,SPR24_063,21,female,2024-04-18_09h06.52.817,jersey_experiment_5_v0,2023.2.2,Win32,84.74576271,,,,,,,,,,,,,,,,799.1113,800.4051,800.4051,801.417,return,0.4616,,71.22395833,,,,,,FBP-PT-81.png,0.37,1.2,52,0.5,,,,,,,,,,,,,,,,,,0,36,36,51,1,,,,,,,,,,,,,,,,,,,,,,,
,,,,,SPR24_063,21,female,2024-04-18_09h06.52.817,jersey_experiment_5_v0,2023.2.2,Win32,84.74576271,,,,,,,,,,,,,,,,801.4172,802.464,802.464,804.2053,return,0.0707,,65.75520833,,,,,,FBP-RB-81.png,0.35,1.2,36,0.25,,,,,,,,,,,,,,,,,,0,37,37,35,1,,,,,,,,,,,,,,,,,,,,,,,
,,,,,SPR24_063,21,female,2024-04-18_09h06.52.817,jersey_experiment_5_v0,2023.2.2,Win32,84.74576271,,,,,,,,,,,,,,,,804.2055,805.4992,805.4993,806.2054,return,0.1047,,77.86458333,,,,,,FBP-YG-91.png,0.4,1.2,28,0.5,,,,,,,,,,,,,,,,,,0,38,38,27,1,,,,,,,,,,,,,,,,,,,,,,,
,,,,,SPR24_063,21,female,2024-04-18_09h06.52.817,jersey_experiment_5_v0,2023.2.2,Win32,84.74576271,,,,,,,,,,,,,,,,806.2057,807.2525,807.2525,808.4524,return,0.241,,92.70833333,,,,,,FBP-OG-18.png,0.43,1.2,9,0.25,,,,,,,,,,,,,,,,,,0,39,39,8,1,,,,,,,,,,,,,,,,,,,,,,,
,,,,,SPR24_063,21,female,2024-04-18_09h06.52.817,jersey_experiment_5_v0,2023.2.2,Win32,84.74576271,,,,,,,,,,,,,,,,808.4527,809.7467,809.7467,810.3114,return,0.0735,,96.09375,,,,,,FBP-YG-81.png,0.43,1.2,24,0.5,,,,,,,,,,,,,,,,,,0,40,40,23,1,,,,,,,,,,,,,,,,,,,,,,,
,,,,,SPR24_063,21,female,2024-04-18_09h06.52.817,jersey_experiment_5_v0,2023.2.2,Win32,84.74576271,,,,,,,,,,,,,,,,810.3116,811.6056,811.6057,812.0291,return,0.1886,,96.09375,,,,,,FBP-PT-91.png,0.43,1.2,59,0.5,,,,,,,,,,,,,,,,,,0,41,41,58,1,,,,,,,,,,,,,,,,,,,,,,,
,,,,,SPR24_063,21,female,2024-04-18_09h06.52.817,jersey_experiment_5_v0,2023.2.2,Win32,84.74576271,,,,,,,,,,,,,,,,812.0294,813.0762,813.0762,814.6056,return,0.1416,,85.28645833,,,,,,FBP-RB-91.png,0.4,1.2,43,0.25,,,,,,,,,,,,,,,,,,0,42,42,42,1,,,,,,,,,,,,,,,,,,,,,,,
,,,,,SPR24_063,21,female,2024-04-18_09h06.52.817,jersey_experiment_5_v0,2023.2.2,Win32,84.74576271,,,,,,,,,,,,,,,,814.6059,815.8998,815.8998,816.8998,return,0.1613,,95.44270833,,,,,,FBP-PT-71.png,0.45,1.2,50,0.5,,,,,,,,,,,,,,,,,,0,43,43,49,1,,,,,,,,,,,,,,,,,,,,,,,
,,,,,SPR24_063,21,female,2024-04-18_09h06.52.817,jersey_experiment_5_v0,2023.2.2,Win32,84.74576271,,,,,,,,,,,,,,,,816.8999,817.9468,817.947,819.1234,return,0.1029,,40.10416667,,,,,,FBP-OG-19.png,0.37,1.2,12,0.25,,,,,,,,,,,,,,,,,,0,44,44,11,1,,,,,,,,,,,,,,,,,,,,,,,
,,,,,SPR24_063,21,female,2024-04-18_09h06.52.817,jersey_experiment_5_v0,2023.2.2,Win32,84.74576271,,,,,,,,,,,,,,,,819.1236,820.1706,820.1706,821.1,return,0.1181,,39.19270833,,,,,,FBP-RB-91.png,0.35,1.2,41,0.25,,,,,,,,,,,,,,,,,,0,45,45,40,1,,,,,,,,,,,,,,,,,,,,,,,
,,,,,SPR24_063,21,female,2024-04-18_09h06.52.817,jersey_experiment_5_v0,2023.2.2,Win32,84.74576271,,,,,,,,,,,,,,,,821.1002,822.3942,822.3943,823.5118,return,0.1435,,95.05208333,,,,,,FBP-YG-91.png,0.45,1.2,30,0.5,,,,,,,,,,,,,,,,,,0,46,46,29,1,,,,,,,,,,,,,,,,,,,,,,,
,,,,,SPR24_063,21,female,2024-04-18_09h06.52.817,jersey_experiment_5_v0,2023.2.2,Win32,84.74576271,,,,,,,,,,,,,,,,823.512,824.5588,824.5589,826.1356,return,0.1555,,20.96354167,,,,,,FBP-OG-18.png,0.37,1.2,7,0.25,,,,,,,,,,,,,,,,,,0,47,47,6,1,,,,,,,,,,,,,,,,,,,,,,,
,,,,,SPR24_063,21,female,2024-04-18_09h06.52.817,jersey_experiment_5_v0,2023.2.2,Win32,84.74576271,,,,,,,,,,,,,,,,826.1358,827.1826,827.1826,827.912,return,0.0966,,20.96354167,,,,,,FBP-RB-91.png,0.37,1.2,42,0.25,,,,,,,,,,,,,,,,,,0,48,48,41,1,,,,,,,,,,,,,,,,,,,,,,,
,,,,,SPR24_063,21,female,2024-04-18_09h06.52.817,jersey_experiment_5_v0,2023.2.2,Win32,84.74576271,,,,,,,,,,,,,,,,827.9121,829.2062,829.2062,829.7826,return,0.1231,,20.57291667,,,,,,FBP-YG-91.png,0.37,1.2,27,0.5,,,,,,,,,,,,,,,,,,0,49,49,26,1,,,,,,,,,,,,,,,,,,,,,,,
,,,,,SPR24_063,21,female,2024-04-18_09h06.52.817,jersey_experiment_5_v0,2023.2.2,Win32,84.74576271,,,,,,,,,,,,,,,,829.7829,830.8297,830.8299,832.0887,return,0.1546,,79.55729167,,,,,,FBP-OG-17.png,0.43,1.2,4,0.25,,,,,,,,,,,,,,,,,,0,50,50,3,1,,,,,,,,,,,,,,,,,,,,,,,
,,,,,SPR24_063,21,female,2024-04-18_09h06.52.817,jersey_experiment_5_v0,2023.2.2,Win32,84.74576271,,,,,,,,,,,,,,,,832.0889,833.3827,833.3828,834.5475,return,0.1948,,39.58333333,,,,,,FBP-PT-91.png,0.35,1.2,56,0.5,,,,,,,,,,,,,,,,,,0,51,51,55,1,,,,,,,,,,,,,,,,,,,,,,,
,,,,,SPR24_063,21,female,2024-04-18_09h06.52.817,jersey_experiment_5_v0,2023.2.2,Win32,84.74576271,,,,,,,,,,,,,,,,834.5477,835.5946,835.5946,836.7006,return,0.1414,,94.01041667,,,,,,FBP-OG-19.png,0.45,1.2,15,0.25,,,,,,,,,,,,,,,,,,0,52,52,14,1,,,,,,,,,,,,,,,,,,,,,,,
,,,,,SPR24_063,21,female,2024-04-18_09h06.52.817,jersey_experiment_5_v0,2023.2.2,Win32,84.74576271,,,,,,,,,,,,,,,,836.7008,837.7477,837.7477,838.3595,return,0.1213,,94.01041667,,,,,,FBP-RB-71.png,0.45,1.2,35,0.25,,,,,,,,,,,,,,,,,,0,53,53,34,1,,,,,,,,,,,,,,,,,,,,,,,
,,,,,SPR24_063,21,female,2024-04-18_09h06.52.817,jersey_experiment_5_v0,2023.2.2,Win32,84.74576271,,,,,,,,,,,,,,,,838.3597,839.4066,839.4066,840.6301,return,0.2275,,93.09895833,,,,,,FBP-RB-81.png,0.43,1.2,39,0.25,,,,,,,,,,,,,,,,,,0,54,54,38,1,,,,,,,,,,,,,,,,,,,,,,,
,,,,,SPR24_063,21,female,2024-04-18_09h06.52.817,jersey_experiment_5_v0,2023.2.2,Win32,84.74576271,,,,,,,,,,,,,,,,840.6303,841.9243,841.9243,844.1831,return,0.1462,,26.5625,,,,,,FBP-YG-91.png,0.35,1.2,26,0.5,,,,,,,,,,,,,,,,,,0,55,55,25,1,,,,,,,,,,,,,,,,,,,,,,,
,,,,,SPR24_063,21,female,2024-04-18_09h06.52.817,jersey_experiment_5_v0,2023.2.2,Win32,84.74576271,,,,,,,,,,,,,,,,844.1833,845.2303,845.2304,846.4776,return,0.1192,,20.05208333,,,,,,FBP-OG-19.png,0.35,1.2,11,0.25,,,,,,,,,,,,,,,,,,0,56,56,10,1,,,,,,,,,,,,,,,,,,,,,,,
,,,,,SPR24_063,21,female,2024-04-18_09h06.52.817,jersey_experiment_5_v0,2023.2.2,Win32,84.74576271,,,,,,,,,,,,,,,,846.4778,847.5245,847.5245,848.4305,return,0.0941,,86.71875,,,,,,FBP-RB-81.png,0.45,1.2,40,0.25,,,,,,,,,,,,,,,,,,0,57,57,39,1,,,,,,,,,,,,,,,,,,,,,,,
,,,,,SPR24_063,21,female,2024-04-18_09h06.52.817,jersey_experiment_5_v0,2023.2.2,Win32,84.74576271,,,,,,,,,,,,,,,,848.4306,849.4774,849.4775,850.5012,return,0.099,,55.46875,,,,,,FBP-RB-81.png,0.37,1.2,37,0.25,,,,,,,,,,,,,,,,,,0,58,58,36,1,,,,,,,,,,,,,,,,,,,,,,,
,,,,,SPR24_063,21,female,2024-04-18_09h06.52.817,jersey_experiment_5_v0,2023.2.2,Win32,84.74576271,,,,,,,,,,,,,,,,850.5013,851.7954,851.7955,852.9719,return,0.1091,,75.13020833,,,,,,FBP-YG-71.png,0.43,1.2,19,0.5,,,,,,,,,,,,,,,,,,0,59,59,18,1,,,,,,,,,,,,,,,,,,,,,,,
,,,,,SPR24_063,21,female,2024-04-18_09h06.52.817,jersey_experiment_5_v0,2023.2.2,Win32,84.74576271,,,,,,,,,,,,,,,,,,,,,,,,,,,,,,,,,,,,,,,,,,,,,,,,,,,,,,,,852.9722,860.7137,return,7.7314,,,,,,,,,,,,,,,,,,,
,,,,,SPR24_063,21,female,2024-04-18_09h06.52.817,jersey_experiment_5_v0,2023.2.2,Win32,84.74576271,,,,,,,,,,,,,,,,,,,,,,,,,,,,,,,,,,,,,,,,,,,,,,,,,,,,,,,,,,,,,860.7137,866.9489,1,4.629,return,1.5951,,,,,,,,,,,,
,,,,,SPR24_063,21,female,2024-04-18_09h06.52.817,jersey_experiment_5_v0,2023.2.2,Win32,84.74576271,,,,,,,,,,,,,,,,,,,,,,,,,,,,,,,,,,,,,,,,,,,,,,,,,,,,,,,,,,,,,,,,,,,,866.9491,938.8626,"not really, sometimes it looked like the same football player was shown but in different colored jerseys right after each other, but I did not really recognize any other patterns.",right,65.8954,,,,,,
,,,,,SPR24_063,21,female,2024-04-18_09h06.52.817,jersey_experiment_5_v0,2023.2.2,Win32,84.74576271,,,,,,,,,,,,,,,,,,,,,,,,,,,,,,,,,,,,,,,,,,,,,,,,,,,,,,,,,,,,,,,,,,,,,,,,,,938.8626,944.0108,return,5.137,