requirements.started,requirements.stopped,key_resp_3.keys,key_resp_3.rt,key_resp_3.duration,Subject ID,Age,Gender,date,expName,psychopyVersion,OS,frameRate,instructions1.started,instructions1.stopped,key_resp.keys,key_resp.rt,key_resp.duration,example.started,example.stopped,enter_2.keys,enter_2.rt,enter_2.duration,instructions2.started,instructions2.stopped,enter_3.keys,enter_3.rt,enter_3.duration,image.started,image.stopped,slider_2.started,slider_2.stopped,next.keys,next.rt,next.duration,slider.response,trial_block_1.thisRepN,trial_block_1.thisTrialN,trial_block_1.thisN,trial_block_1.thisIndex,trial_block_1.ran,Path,Width,Height,Index,Duration,trial_block_2.thisRepN,trial_block_2.thisTrialN,trial_block_2.thisN,trial_block_2.thisIndex,trial_block_2.ran,rest_break.started,rest_break.stopped,end_break.started,end_break.stopped,key_resp_5.keys,key_resp_5.rt,key_resp_5.duration,trial_block_3.thisRepN,trial_block_3.thisTrialN,trial_block_3.thisN,trial_block_3.thisIndex,trial_block_3.ran,trial_block_4.thisRepN,trial_block_4.thisTrialN,trial_block_4.thisN,trial_block_4.thisIndex,trial_block_4.ran,questions_intro.started,questions_intro.stopped,enter_12.keys,enter_12.rt,enter_12.duration,question2.started,question2.stopped,question_doingbest.response,question_doingbest.rt,enter_15.keys,enter_15.rt,enter_15.duration,pattern.started,pattern.stopped,pattern_2.text,enter_17.keys,enter_17.rt,enter_17.duration,thankyou.started,thankyou.stopped,enter_14.keys,enter_14.rt,enter_14.duration
1E-04,32.6969,return,32.6837,,SPR24_038,19,Male,2024-04-11_15h01.47.049,jersey_experiment_5_v0,2023.2.2,Win32,84.74576271,,,,,,,,,,,,,,,,,,,,,,,,,,,,,,,,,,,,,,,,,,,,,,,,,,,,,,,,,,,,,,,,,,,,,,,,,,,,,,
,,,,,SPR24_038,19,Male,2024-04-11_15h01.47.049,jersey_experiment_5_v0,2023.2.2,Win32,84.74576271,32.697,39.156,return,6.4377,,,,,,,,,,,,,,,,,,,,,,,,,,,,,,,,,,,,,,,,,,,,,,,,,,,,,,,,,,,,,,,,,,,,,,,,,,
,,,,,SPR24_038,19,Male,2024-04-11_15h01.47.049,jersey_experiment_5_v0,2023.2.2,Win32,84.74576271,,,,,,39.1561,51.4267,return,12.2315,,,,,,,,,,,,,,,,,,,,,,,,,,,,,,,,,,,,,,,,,,,,,,,,,,,,,,,,,,,,,,,,,,,,,
,,,,,SPR24_038,19,Male,2024-04-11_15h01.47.049,jersey_experiment_5_v0,2023.2.2,Win32,84.74576271,,,,,,,,,,,51.4267,69.0394,return,17.5958,,,,,,,,,,,,,,,,,,,,,,,,,,,,,,,,,,,,,,,,,,,,,,,,,,,,,,,,,,,,,,,,
,,,,,SPR24_038,19,Male,2024-04-11_15h01.47.049,jersey_experiment_5_v0,2023.2.2,Win32,84.74576271,,,,,,,,,,,,,,,,69.0461,70.0978,70.0978,82.7101,return,7.0591,,25.26041667,0,0,0,50,1,FBP-PT-18.png,0.35,1.2,51,0.25,,,,,,,,,,,,,,,,,,,,,,,,,,,,,,,,,,,,,,,,,,,,,
,,,,,SPR24_038,19,Male,2024-04-11_15h01.47.049,jersey_experiment_5_v0,2023.2.2,Win32,84.74576271,,,,,,,,,,,,,,,,82.7105,83.7571,83.7571,89.075,return,2.6256,,25,0,1,1,46,1,FBP-PT-17.png,0.37,1.2,47,0.25,,,,,,,,,,,,,,,,,,,,,,,,,,,,,,,,,,,,,,,,,,,,,
,,,,,SPR24_038,19,Male,2024-04-11_15h01.47.049,jersey_experiment_5_v0,2023.2.2,Win32,84.74576271,,,,,,,,,,,,,,,,89.0797,90.122,90.1221,92.9339,return,1.1865,,75.13020833,0,2,2,58,1,FBP-PT-19.png,0.43,1.2,59,0.25,,,,,,,,,,,,,,,,,,,,,,,,,,,,,,,,,,,,,,,,,,,,,
,,,,,SPR24_038,19,Male,2024-04-11_15h01.47.049,jersey_experiment_5_v0,2023.2.2,Win32,84.74576271,,,,,,,,,,,,,,,,92.9342,93.981,93.981,99.1341,return,1.9835,,38.80208333,0,3,3,25,1,FBP-YG-19.png,0.35,1.2,26,0.25,,,,,,,,,,,,,,,,,,,,,,,,,,,,,,,,,,,,,,,,,,,,,
,,,,,SPR24_038,19,Male,2024-04-11_15h01.47.049,jersey_experiment_5_v0,2023.2.2,Win32,84.74576271,,,,,,,,,,,,,,,,99.1343,100.4282,100.4283,103.0637,return,1.2934,,66.92708333,0,4,4,36,1,FBP-RB-18.png,0.37,1.2,37,0.5,,,,,,,,,,,,,,,,,,,,,,,,,,,,,,,,,,,,,,,,,,,,,
,,,,,SPR24_038,19,Male,2024-04-11_15h01.47.049,jersey_experiment_5_v0,2023.2.2,Win32,84.74576271,,,,,,,,,,,,,,,,103.0639,104.1107,104.1107,106.2166,return,0.9415,,73.69791667,0,5,5,57,1,FBP-PT-19.png,0.4,1.2,58,0.25,,,,,,,,,,,,,,,,,,,,,,,,,,,,,,,,,,,,,,,,,,,,,
,,,,,SPR24_038,19,Male,2024-04-11_15h01.47.049,jersey_experiment_5_v0,2023.2.2,Win32,84.74576271,,,,,,,,,,,,,,,,106.2168,107.2636,107.2636,131.8292,return,10.2834,,50.65104167,0,6,6,20,1,FBP-YG-18.png,0.35,1.2,21,0.25,,,,,,,,,,,,,,,,,,,,,,,,,,,,,,,,,,,,,,,,,,,,,
,,,,,SPR24_038,19,Male,2024-04-11_15h01.47.049,jersey_experiment_5_v0,2023.2.2,Win32,84.74576271,,,,,,,,,,,,,,,,131.8337,132.8764,132.8764,142.6296,return,4.8815,,73.17708333,0,7,7,28,1,FBP-YG-19.png,0.43,1.2,29,0.25,,,,,,,,,,,,,,,,,,,,,,,,,,,,,,,,,,,,,,,,,,,,,
,,,,,SPR24_038,19,Male,2024-04-11_15h01.47.049,jersey_experiment_5_v0,2023.2.2,Win32,84.74576271,,,,,,,,,,,,,,,,142.6298,143.6765,143.6767,147.312,return,0.7686,,99.73958333,0,8,8,18,1,FBP-YG-17.png,0.43,1.2,19,0.25,,,,,,,,,,,,,,,,,,,,,,,,,,,,,,,,,,,,,,,,,,,,,
,,,,,SPR24_038,19,Male,2024-04-11_15h01.47.049,jersey_experiment_5_v0,2023.2.2,Win32,84.74576271,,,,,,,,,,,,,,,,147.3122,148.6064,148.6064,150.5122,return,0.9339,,99.86979167,0,9,9,3,1,FBP-OG-71.png,0.43,1.2,4,0.5,,,,,,,,,,,,,,,,,,,,,,,,,,,,,,,,,,,,,,,,,,,,,
,,,,,SPR24_038,19,Male,2024-04-11_15h01.47.049,jersey_experiment_5_v0,2023.2.2,Win32,84.74576271,,,,,,,,,,,,,,,,150.5125,151.8063,151.8064,153.5122,return,0.3066,,100,0,10,10,44,1,FBP-RB-19.png,0.45,1.2,45,0.5,,,,,,,,,,,,,,,,,,,,,,,,,,,,,,,,,,,,,,,,,,,,,
,,,,,SPR24_038,19,Male,2024-04-11_15h01.47.049,jersey_experiment_5_v0,2023.2.2,Win32,84.74576271,,,,,,,,,,,,,,,,153.5125,154.8065,154.8065,156.0653,return,0.3814,,95.83333333,0,11,11,9,1,FBP-OG-81.png,0.45,1.2,10,0.5,,,,,,,,,,,,,,,,,,,,,,,,,,,,,,,,,,,,,,,,,,,,,
,,,,,SPR24_038,19,Male,2024-04-11_15h01.47.049,jersey_experiment_5_v0,2023.2.2,Win32,84.74576271,,,,,,,,,,,,,,,,156.0656,157.1125,157.1125,158.7596,return,0.1784,,76.171875,0,12,12,47,1,FBP-PT-17.png,0.4,1.2,48,0.25,,,,,,,,,,,,,,,,,,,,,,,,,,,,,,,,,,,,,,,,,,,,,
,,,,,SPR24_038,19,Male,2024-04-11_15h01.47.049,jersey_experiment_5_v0,2023.2.2,Win32,84.74576271,,,,,,,,,,,,,,,,158.7597,160.0538,160.0538,160.995,return,0.1563,,76.171875,0,13,13,34,1,FBP-RB-17.png,0.45,1.2,35,0.5,,,,,,,,,,,,,,,,,,,,,,,,,,,,,,,,,,,,,,,,,,,,,
,,,,,SPR24_038,19,Male,2024-04-11_15h01.47.049,jersey_experiment_5_v0,2023.2.2,Win32,84.74576271,,,,,,,,,,,,,,,,160.9952,162.2892,162.2893,162.8772,return,0.1717,,76.171875,0,14,14,8,1,FBP-OG-81.png,0.43,1.2,9,0.5,,,,,,,,,,,,,,,,,,,,,,,,,,,,,,,,,,,,,,,,,,,,,
,,,,,SPR24_038,19,Male,2024-04-11_15h01.47.049,jersey_experiment_5_v0,2023.2.2,Win32,84.74576271,,,,,,,,,,,,,,,,162.8775,163.9243,163.9243,173.2307,return,5.1357,,75,0,15,15,22,1,FBP-YG-18.png,0.4,1.2,23,0.25,,,,,,,,,,,,,,,,,,,,,,,,,,,,,,,,,,,,,,,,,,,,,
,,,,,SPR24_038,19,Male,2024-04-11_15h01.47.049,jersey_experiment_5_v0,2023.2.2,Win32,84.74576271,,,,,,,,,,,,,,,,173.2351,174.2777,174.2777,176.0308,return,0.2411,,100,0,16,16,24,1,FBP-YG-18.png,0.45,1.2,25,0.25,,,,,,,,,,,,,,,,,,,,,,,,,,,,,,,,,,,,,,,,,,,,,
,,,,,SPR24_038,19,Male,2024-04-11_15h01.47.049,jersey_experiment_5_v0,2023.2.2,Win32,84.74576271,,,,,,,,,,,,,,,,176.031,177.0777,177.0778,178.4778,return,0.1616,,65.625,0,17,17,17,1,FBP-YG-17.png,0.4,1.2,18,0.25,,,,,,,,,,,,,,,,,,,,,,,,,,,,,,,,,,,,,,,,,,,,,
,,,,,SPR24_038,19,Male,2024-04-11_15h01.47.049,jersey_experiment_5_v0,2023.2.2,Win32,84.74576271,,,,,,,,,,,,,,,,178.478,179.7721,179.7721,181.7135,return,0.1227,,24.34895833,0,18,18,31,1,FBP-RB-17.png,0.37,1.2,32,0.5,,,,,,,,,,,,,,,,,,,,,,,,,,,,,,,,,,,,,,,,,,,,,
,,,,,SPR24_038,19,Male,2024-04-11_15h01.47.049,jersey_experiment_5_v0,2023.2.2,Win32,84.74576271,,,,,,,,,,,,,,,,181.7137,183.0075,183.0075,184.6546,return,0.1113,,73.828125,0,19,19,33,1,FBP-RB-17.png,0.43,1.2,34,0.5,,,,,,,,,,,,,,,,,,,,,,,,,,,,,,,,,,,,,,,,,,,,,
,,,,,SPR24_038,19,Male,2024-04-11_15h01.47.049,jersey_experiment_5_v0,2023.2.2,Win32,84.74576271,,,,,,,,,,,,,,,,184.6547,185.7019,185.7019,191.1725,return,0.4254,,100,0,20,20,54,1,FBP-PT-18.png,0.45,1.2,55,0.25,,,,,,,,,,,,,,,,,,,,,,,,,,,,,,,,,,,,,,,,,,,,,
,,,,,SPR24_038,19,Male,2024-04-11_15h01.47.049,jersey_experiment_5_v0,2023.2.2,Win32,84.74576271,,,,,,,,,,,,,,,,191.1727,192.4666,192.4666,226.0089,return,0.9159,,74.21875,0,21,21,10,1,FBP-OG-91.png,0.35,1.2,11,0.5,,,,,,,,,,,,,,,,,,,,,,,,,,,,,,,,,,,,,,,,,,,,,
,,,,,SPR24_038,19,Male,2024-04-11_15h01.47.049,jersey_experiment_5_v0,2023.2.2,Win32,84.74576271,,,,,,,,,,,,,,,,226.0091,227.0558,227.0559,228.1266,return,0.1708,,93.359375,0,22,22,49,1,FBP-PT-17.png,0.45,1.2,50,0.25,,,,,,,,,,,,,,,,,,,,,,,,,,,,,,,,,,,,,,,,,,,,,
,,,,,SPR24_038,19,Male,2024-04-11_15h01.47.049,jersey_experiment_5_v0,2023.2.2,Win32,84.74576271,,,,,,,,,,,,,,,,228.1268,229.4208,229.4209,230.2795,return,0.1182,,85.41666667,0,23,23,7,1,FBP-OG-81.png,0.4,1.2,8,0.5,,,,,,,,,,,,,,,,,,,,,,,,,,,,,,,,,,,,,,,,,,,,,
,,,,,SPR24_038,19,Male,2024-04-11_15h01.47.049,jersey_experiment_5_v0,2023.2.2,Win32,84.74576271,,,,,,,,,,,,,,,,230.2798,231.5737,231.5738,234.6447,return,1.8505,,32.03125,0,24,24,30,1,FBP-RB-17.png,0.35,1.2,31,0.5,,,,,,,,,,,,,,,,,,,,,,,,,,,,,,,,,,,,,,,,,,,,,
,,,,,SPR24_038,19,Male,2024-04-11_15h01.47.049,jersey_experiment_5_v0,2023.2.2,Win32,84.74576271,,,,,,,,,,,,,,,,234.645,235.9386,235.9387,237.9859,return,0.4974,,99.609375,0,25,25,4,1,FBP-OG-71.png,0.45,1.2,5,0.5,,,,,,,,,,,,,,,,,,,,,,,,,,,,,,,,,,,,,,,,,,,,,
,,,,,SPR24_038,19,Male,2024-04-11_15h01.47.049,jersey_experiment_5_v0,2023.2.2,Win32,84.74576271,,,,,,,,,,,,,,,,237.9861,239.2803,239.2803,241.5389,return,0.7312,,100,0,26,26,12,1,FBP-OG-91.png,0.4,1.2,13,0.5,,,,,,,,,,,,,,,,,,,,,,,,,,,,,,,,,,,,,,,,,,,,,
,,,,,SPR24_038,19,Male,2024-04-11_15h01.47.049,jersey_experiment_5_v0,2023.2.2,Win32,84.74576271,,,,,,,,,,,,,,,,241.539,242.833,242.833,244.5624,return,0.2026,,75.390625,0,27,27,32,1,FBP-RB-17.png,0.4,1.2,33,0.5,,,,,,,,,,,,,,,,,,,,,,,,,,,,,,,,,,,,,,,,,,,,,
,,,,,SPR24_038,19,Male,2024-04-11_15h01.47.049,jersey_experiment_5_v0,2023.2.2,Win32,84.74576271,,,,,,,,,,,,,,,,244.5627,245.6097,245.6097,247.2685,return,0.3549,,75,0,28,28,27,1,FBP-YG-19.png,0.4,1.2,28,0.25,,,,,,,,,,,,,,,,,,,,,,,,,,,,,,,,,,,,,,,,,,,,,
,,,,,SPR24_038,19,Male,2024-04-11_15h01.47.049,jersey_experiment_5_v0,2023.2.2,Win32,84.74576271,,,,,,,,,,,,,,,,247.2687,248.5626,248.5626,249.8098,return,0.0386,,99.86979167,0,29,29,39,1,FBP-RB-18.png,0.45,1.2,40,0.5,,,,,,,,,,,,,,,,,,,,,,,,,,,,,,,,,,,,,,,,,,,,,
,,,,,SPR24_038,19,Male,2024-04-11_15h01.47.049,jersey_experiment_5_v0,2023.2.2,Win32,84.74576271,,,,,,,,,,,,,,,,249.81,251.1038,251.1038,252.6099,return,0.1693,,25.26041667,0,30,30,5,1,FBP-OG-81.png,0.35,1.2,6,0.5,,,,,,,,,,,,,,,,,,,,,,,,,,,,,,,,,,,,,,,,,,,,,
,,,,,SPR24_038,19,Male,2024-04-11_15h01.47.049,jersey_experiment_5_v0,2023.2.2,Win32,84.74576271,,,,,,,,,,,,,,,,252.6102,253.9039,253.9039,255.363,return,0.1211,,55.33854167,0,31,31,42,1,FBP-RB-19.png,0.4,1.2,43,0.5,,,,,,,,,,,,,,,,,,,,,,,,,,,,,,,,,,,,,,,,,,,,,
,,,,,SPR24_038,19,Male,2024-04-11_15h01.47.049,jersey_experiment_5_v0,2023.2.2,Win32,84.74576271,,,,,,,,,,,,,,,,255.3633,256.6571,256.6572,258.5747,return,0.1605,,57.8125,0,32,32,38,1,FBP-RB-18.png,0.43,1.2,39,0.5,,,,,,,,,,,,,,,,,,,,,,,,,,,,,,,,,,,,,,,,,,,,,
,,,,,SPR24_038,19,Male,2024-04-11_15h01.47.049,jersey_experiment_5_v0,2023.2.2,Win32,84.74576271,,,,,,,,,,,,,,,,258.5749,259.8689,259.869,264.5279,return,0.1693,,72.78645833,0,33,33,2,1,FBP-OG-71.png,0.4,1.2,3,0.5,,,,,,,,,,,,,,,,,,,,,,,,,,,,,,,,,,,,,,,,,,,,,
,,,,,SPR24_038,19,Male,2024-04-11_15h01.47.049,jersey_experiment_5_v0,2023.2.2,Win32,84.74576271,,,,,,,,,,,,,,,,264.5281,265.8222,265.8222,266.9634,return,0.1779,,24.47916667,0,34,34,11,1,FBP-OG-91.png,0.37,1.2,12,0.5,,,,,,,,,,,,,,,,,,,,,,,,,,,,,,,,,,,,,,,,,,,,,
,,,,,SPR24_038,19,Male,2024-04-11_15h01.47.049,jersey_experiment_5_v0,2023.2.2,Win32,84.74576271,,,,,,,,,,,,,,,,266.9637,268.0103,268.0103,269.7515,return,0.1414,,50.65104167,0,35,35,51,1,FBP-PT-18.png,0.37,1.2,52,0.25,,,,,,,,,,,,,,,,,,,,,,,,,,,,,,,,,,,,,,,,,,,,,
,,,,,SPR24_038,19,Male,2024-04-11_15h01.47.049,jersey_experiment_5_v0,2023.2.2,Win32,84.74576271,,,,,,,,,,,,,,,,269.7517,270.7986,270.7986,272.5047,return,0.5312,,85.9375,0,36,36,59,1,FBP-PT-19.png,0.45,1.2,60,0.25,,,,,,,,,,,,,,,,,,,,,,,,,,,,,,,,,,,,,,,,,,,,,
,,,,,SPR24_038,19,Male,2024-04-11_15h01.47.049,jersey_experiment_5_v0,2023.2.2,Win32,84.74576271,,,,,,,,,,,,,,,,272.505,273.7988,273.7988,277.4694,return,0.2412,,24.609375,0,37,37,35,1,FBP-RB-18.png,0.35,1.2,36,0.5,,,,,,,,,,,,,,,,,,,,,,,,,,,,,,,,,,,,,,,,,,,,,
,,,,,SPR24_038,19,Male,2024-04-11_15h01.47.049,jersey_experiment_5_v0,2023.2.2,Win32,84.74576271,,,,,,,,,,,,,,,,277.4696,278.5164,278.5164,279.7755,return,0.1695,,92.70833333,0,38,38,23,1,FBP-YG-18.png,0.43,1.2,24,0.25,,,,,,,,,,,,,,,,,,,,,,,,,,,,,,,,,,,,,,,,,,,,,
,,,,,SPR24_038,19,Male,2024-04-11_15h01.47.049,jersey_experiment_5_v0,2023.2.2,Win32,84.74576271,,,,,,,,,,,,,,,,279.7758,281.0696,281.0696,290.1641,return,0.2372,,50.13020833,0,39,39,41,1,FBP-RB-19.png,0.37,1.2,42,0.5,,,,,,,,,,,,,,,,,,,,,,,,,,,,,,,,,,,,,,,,,,,,,
,,,,,SPR24_038,19,Male,2024-04-11_15h01.47.049,jersey_experiment_5_v0,2023.2.2,Win32,84.74576271,,,,,,,,,,,,,,,,290.1643,291.2111,291.2111,295.9877,return,0.7432,,49.47916667,0,40,40,16,1,FBP-YG-17.png,0.37,1.2,17,0.25,,,,,,,,,,,,,,,,,,,,,,,,,,,,,,,,,,,,,,,,,,,,,
,,,,,SPR24_038,19,Male,2024-04-11_15h01.47.049,jersey_experiment_5_v0,2023.2.2,Win32,84.74576271,,,,,,,,,,,,,,,,295.988,297.2819,297.2819,303.2822,return,1.7674,,100,0,41,41,14,1,FBP-OG-91.png,0.45,1.2,15,0.5,,,,,,,,,,,,,,,,,,,,,,,,,,,,,,,,,,,,,,,,,,,,,
,,,,,SPR24_038,19,Male,2024-04-11_15h01.47.049,jersey_experiment_5_v0,2023.2.2,Win32,84.74576271,,,,,,,,,,,,,,,,303.2825,304.3292,304.3293,305.8116,return,0.2848,,52.86458333,0,42,42,52,1,FBP-PT-18.png,0.4,1.2,53,0.25,,,,,,,,,,,,,,,,,,,,,,,,,,,,,,,,,,,,,,,,,,,,,
,,,,,SPR24_038,19,Male,2024-04-11_15h01.47.049,jersey_experiment_5_v0,2023.2.2,Win32,84.74576271,,,,,,,,,,,,,,,,305.8119,307.1056,307.1057,309.3177,return,0.2119,,23.046875,0,43,43,6,1,FBP-OG-81.png,0.37,1.2,7,0.5,,,,,,,,,,,,,,,,,,,,,,,,,,,,,,,,,,,,,,,,,,,,,
,,,,,SPR24_038,19,Male,2024-04-11_15h01.47.049,jersey_experiment_5_v0,2023.2.2,Win32,84.74576271,,,,,,,,,,,,,,,,309.3179,310.3648,310.3648,311.4708,return,0.0761,,24.86979167,0,44,44,56,1,FBP-PT-19.png,0.37,1.2,57,0.25,,,,,,,,,,,,,,,,,,,,,,,,,,,,,,,,,,,,,,,,,,,,,
,,,,,SPR24_038,19,Male,2024-04-11_15h01.47.049,jersey_experiment_5_v0,2023.2.2,Win32,84.74576271,,,,,,,,,,,,,,,,311.471,312.5177,312.5177,313.3296,return,0.2044,,25.78125,0,45,45,21,1,FBP-YG-18.png,0.37,1.2,22,0.25,,,,,,,,,,,,,,,,,,,,,,,,,,,,,,,,,,,,,,,,,,,,,
,,,,,SPR24_038,19,Male,2024-04-11_15h01.47.049,jersey_experiment_5_v0,2023.2.2,Win32,84.74576271,,,,,,,,,,,,,,,,313.3299,314.3765,314.3766,315.9414,return,0.2823,,74.86979167,0,46,46,48,1,FBP-PT-17.png,0.43,1.2,49,0.25,,,,,,,,,,,,,,,,,,,,,,,,,,,,,,,,,,,,,,,,,,,,,
,,,,,SPR24_038,19,Male,2024-04-11_15h01.47.049,jersey_experiment_5_v0,2023.2.2,Win32,84.74576271,,,,,,,,,,,,,,,,315.9417,317.2355,317.2355,317.6708,return,0.1181,,74.86979167,0,47,47,13,1,FBP-OG-91.png,0.43,1.2,14,0.5,,,,,,,,,,,,,,,,,,,,,,,,,,,,,,,,,,,,,,,,,,,,,
,,,,,SPR24_038,19,Male,2024-04-11_15h01.47.049,jersey_experiment_5_v0,2023.2.2,Win32,84.74576271,,,,,,,,,,,,,,,,317.671,318.718,318.7181,320.8829,return,0.1792,,63.671875,0,48,48,55,1,FBP-PT-19.png,0.35,1.2,56,0.25,,,,,,,,,,,,,,,,,,,,,,,,,,,,,,,,,,,,,,,,,,,,,
,,,,,SPR24_038,19,Male,2024-04-11_15h01.47.049,jersey_experiment_5_v0,2023.2.2,Win32,84.74576271,,,,,,,,,,,,,,,,320.8832,322.1768,322.1769,323.2006,return,0.0997,,25,0,49,49,0,1,FBP-OG-71.png,0.35,1.2,1,0.5,,,,,,,,,,,,,,,,,,,,,,,,,,,,,,,,,,,,,,,,,,,,,
,,,,,SPR24_038,19,Male,2024-04-11_15h01.47.049,jersey_experiment_5_v0,2023.2.2,Win32,84.74576271,,,,,,,,,,,,,,,,323.2008,324.2475,324.2476,325.4122,return,0.2369,,27.47395833,0,50,50,15,1,FBP-YG-17.png,0.35,1.2,16,0.25,,,,,,,,,,,,,,,,,,,,,,,,,,,,,,,,,,,,,,,,,,,,,
,,,,,SPR24_038,19,Male,2024-04-11_15h01.47.049,jersey_experiment_5_v0,2023.2.2,Win32,84.74576271,,,,,,,,,,,,,,,,325.4125,326.4594,326.4595,327.8596,return,0.271,,91.796875,0,51,51,29,1,FBP-YG-19.png,0.45,1.2,30,0.25,,,,,,,,,,,,,,,,,,,,,,,,,,,,,,,,,,,,,,,,,,,,,
,,,,,SPR24_038,19,Male,2024-04-11_15h01.47.049,jersey_experiment_5_v0,2023.2.2,Win32,84.74576271,,,,,,,,,,,,,,,,327.8599,328.9066,328.9067,330.0477,return,0.1568,,75.52083333,0,52,52,45,1,FBP-PT-17.png,0.35,1.2,46,0.25,,,,,,,,,,,,,,,,,,,,,,,,,,,,,,,,,,,,,,,,,,,,,
,,,,,SPR24_038,19,Male,2024-04-11_15h01.47.049,jersey_experiment_5_v0,2023.2.2,Win32,84.74576271,,,,,,,,,,,,,,,,330.0479,331.3419,331.3419,332.2126,return,0.106,,74.73958333,0,53,53,40,1,FBP-RB-19.png,0.35,1.2,41,0.5,,,,,,,,,,,,,,,,,,,,,,,,,,,,,,,,,,,,,,,,,,,,,
,,,,,SPR24_038,19,Male,2024-04-11_15h01.47.049,jersey_experiment_5_v0,2023.2.2,Win32,84.74576271,,,,,,,,,,,,,,,,332.2128,333.5065,333.5066,334.295,return,0.1886,,74.73958333,0,54,54,1,1,FBP-OG-71.png,0.37,1.2,2,0.5,,,,,,,,,,,,,,,,,,,,,,,,,,,,,,,,,,,,,,,,,,,,,
,,,,,SPR24_038,19,Male,2024-04-11_15h01.47.049,jersey_experiment_5_v0,2023.2.2,Win32,84.74576271,,,,,,,,,,,,,,,,334.2952,335.3418,335.3419,336.5889,return,0.0424,,99.609375,0,55,55,19,1,FBP-YG-17.png,0.45,1.2,20,0.25,,,,,,,,,,,,,,,,,,,,,,,,,,,,,,,,,,,,,,,,,,,,,
,,,,,SPR24_038,19,Male,2024-04-11_15h01.47.049,jersey_experiment_5_v0,2023.2.2,Win32,84.74576271,,,,,,,,,,,,,,,,336.5892,337.8832,337.8833,339.3422,return,0.1834,,74.73958333,0,56,56,37,1,FBP-RB-18.png,0.4,1.2,38,0.5,,,,,,,,,,,,,,,,,,,,,,,,,,,,,,,,,,,,,,,,,,,,,
,,,,,SPR24_038,19,Male,2024-04-11_15h01.47.049,jersey_experiment_5_v0,2023.2.2,Win32,84.74576271,,,,,,,,,,,,,,,,339.3424,340.3893,340.3893,344.6719,return,0.2065,,24.609375,0,57,57,26,1,FBP-YG-19.png,0.37,1.2,27,0.25,,,,,,,,,,,,,,,,,,,,,,,,,,,,,,,,,,,,,,,,,,,,,
,,,,,SPR24_038,19,Male,2024-04-11_15h01.47.049,jersey_experiment_5_v0,2023.2.2,Win32,84.74576271,,,,,,,,,,,,,,,,344.6721,345.9659,345.9659,349.2837,return,0.2126,,49.08854167,0,58,58,43,1,FBP-RB-19.png,0.43,1.2,44,0.5,,,,,,,,,,,,,,,,,,,,,,,,,,,,,,,,,,,,,,,,,,,,,
,,,,,SPR24_038,19,Male,2024-04-11_15h01.47.049,jersey_experiment_5_v0,2023.2.2,Win32,84.74576271,,,,,,,,,,,,,,,,349.2839,350.3307,350.3307,392.9441,return,40.8414,,99.73958333,0,59,59,53,1,FBP-PT-18.png,0.43,1.2,54,0.25,,,,,,,,,,,,,,,,,,,,,,,,,,,,,,,,,,,,,,,,,,,,,
,,,,,SPR24_038,19,Male,2024-04-11_15h01.47.049,jersey_experiment_5_v0,2023.2.2,Win32,84.74576271,,,,,,,,,,,,,,,,392.9508,394.003,394.003,395.2852,return,0.1074,,76.43229167,,,,,,FBP-YG-71.png,0.37,1.2,17,0.25,0,0,0,16,1,,,,,,,,,,,,,,,,,,,,,,,,,,,,,,,,,,,,,,,,
,,,,,SPR24_038,19,Male,2024-04-11_15h01.47.049,jersey_experiment_5_v0,2023.2.2,Win32,84.74576271,,,,,,,,,,,,,,,,395.2854,396.3326,396.3326,397.1206,return,0.0505,,75,,,,,,FBP-YG-91.png,0.37,1.2,27,0.25,0,1,1,26,1,,,,,,,,,,,,,,,,,,,,,,,,,,,,,,,,,,,,,,,,
,,,,,SPR24_038,19,Male,2024-04-11_15h01.47.049,jersey_experiment_5_v0,2023.2.2,Win32,84.74576271,,,,,,,,,,,,,,,,397.1209,398.4149,398.4149,400.3443,return,0.1787,,99.73958333,,,,,,FBP-RB-81.png,0.45,1.2,40,0.5,0,2,2,39,1,,,,,,,,,,,,,,,,,,,,,,,,,,,,,,,,,,,,,,,,
,,,,,SPR24_038,19,Male,2024-04-11_15h01.47.049,jersey_experiment_5_v0,2023.2.2,Win32,84.74576271,,,,,,,,,,,,,,,,400.3445,401.6384,401.6384,402.5442,return,0.194,,75,,,,,,FBP-RB-81.png,0.37,1.2,37,0.5,0,3,3,36,1,,,,,,,,,,,,,,,,,,,,,,,,,,,,,,,,,,,,,,,,
,,,,,SPR24_038,19,Male,2024-04-11_15h01.47.049,jersey_experiment_5_v0,2023.2.2,Win32,84.74576271,,,,,,,,,,,,,,,,402.5445,403.5914,403.5915,404.0503,return,0.0508,,75,,,,,,FBP-YG-81.png,0.35,1.2,21,0.25,0,4,4,20,1,,,,,,,,,,,,,,,,,,,,,,,,,,,,,,,,,,,,,,,,
,,,,,SPR24_038,19,Male,2024-04-11_15h01.47.049,jersey_experiment_5_v0,2023.2.2,Win32,84.74576271,,,,,,,,,,,,,,,,404.0505,405.0974,405.0974,406.2387,return,0.125,,99.21875,,,,,,FBP-YG-81.png,0.45,1.2,25,0.25,0,5,5,24,1,,,,,,,,,,,,,,,,,,,,,,,,,,,,,,,,,,,,,,,,
,,,,,SPR24_038,19,Male,2024-04-11_15h01.47.049,jersey_experiment_5_v0,2023.2.2,Win32,84.74576271,,,,,,,,,,,,,,,,406.2389,407.5327,407.5328,407.8858,return,0.1731,,99.08854167,,,,,,FBP-OG-19.png,0.45,1.2,15,0.5,0,6,6,14,1,,,,,,,,,,,,,,,,,,,,,,,,,,,,,,,,,,,,,,,,
,,,,,SPR24_038,19,Male,2024-04-11_15h01.47.049,jersey_experiment_5_v0,2023.2.2,Win32,84.74576271,,,,,,,,,,,,,,,,407.886,409.1797,409.1797,411.6622,return,0.2073,,75.52083333,,,,,,FBP-OG-17.png,0.37,1.2,2,0.5,0,7,7,1,1,,,,,,,,,,,,,,,,,,,,,,,,,,,,,,,,,,,,,,,,
,,,,,SPR24_038,19,Male,2024-04-11_15h01.47.049,jersey_experiment_5_v0,2023.2.2,Win32,84.74576271,,,,,,,,,,,,,,,,411.6625,412.7093,412.7093,413.9096,return,0.5651,,100,,,,,,FBP-PT-91.png,0.45,1.2,60,0.25,0,8,8,59,1,,,,,,,,,,,,,,,,,,,,,,,,,,,,,,,,,,,,,,,,
,,,,,SPR24_038,19,Male,2024-04-11_15h01.47.049,jersey_experiment_5_v0,2023.2.2,Win32,84.74576271,,,,,,,,,,,,,,,,413.9097,414.9564,414.9565,416.9099,return,0.2553,,100,,,,,,FBP-YG-91.png,0.4,1.2,28,0.25,0,9,9,27,1,,,,,,,,,,,,,,,,,,,,,,,,,,,,,,,,,,,,,,,,
,,,,,SPR24_038,19,Male,2024-04-11_15h01.47.049,jersey_experiment_5_v0,2023.2.2,Win32,84.74576271,,,,,,,,,,,,,,,,416.9101,417.9566,417.9566,419.0625,return,0.1887,,99.73958333,,,,,,FBP-PT-71.png,0.45,1.2,50,0.25,0,10,10,49,1,,,,,,,,,,,,,,,,,,,,,,,,,,,,,,,,,,,,,,,,
,,,,,SPR24_038,19,Male,2024-04-11_15h01.47.049,jersey_experiment_5_v0,2023.2.2,Win32,84.74576271,,,,,,,,,,,,,,,,419.0627,420.1096,420.1096,422.5098,return,0.0772,,50.78125,,,,,,FBP-YG-91.png,0.35,1.2,26,0.25,0,11,11,25,1,,,,,,,,,,,,,,,,,,,,,,,,,,,,,,,,,,,,,,,,
,,,,,SPR24_038,19,Male,2024-04-11_15h01.47.049,jersey_experiment_5_v0,2023.2.2,Win32,84.74576271,,,,,,,,,,,,,,,,422.51,423.804,423.804,424.8039,return,0.0831,,99.47916667,,,,,,FBP-OG-17.png,0.45,1.2,5,0.5,0,12,12,4,1,,,,,,,,,,,,,,,,,,,,,,,,,,,,,,,,,,,,,,,,
,,,,,SPR24_038,19,Male,2024-04-11_15h01.47.049,jersey_experiment_5_v0,2023.2.2,Win32,84.74576271,,,,,,,,,,,,,,,,424.8041,426.098,426.098,428.3922,return,1.2471,,19.921875,,,,,,FBP-OG-19.png,0.35,1.2,11,0.5,0,13,13,10,1,,,,,,,,,,,,,,,,,,,,,,,,,,,,,,,,,,,,,,,,
,,,,,SPR24_038,19,Male,2024-04-11_15h01.47.049,jersey_experiment_5_v0,2023.2.2,Win32,84.74576271,,,,,,,,,,,,,,,,428.3925,429.4393,429.4393,430.2747,return,0.0252,,23.69791667,,,,,,FBP-PT-71.png,0.37,1.2,47,0.25,0,14,14,46,1,,,,,,,,,,,,,,,,,,,,,,,,,,,,,,,,,,,,,,,,
,,,,,SPR24_038,19,Male,2024-04-11_15h01.47.049,jersey_experiment_5_v0,2023.2.2,Win32,84.74576271,,,,,,,,,,,,,,,,430.275,431.569,431.569,431.8628,return,0.0579,,27.21354167,,,,,,FBP-RB-71.png,0.35,1.2,31,0.5,0,15,15,30,1,,,,,,,,,,,,,,,,,,,,,,,,,,,,,,,,,,,,,,,,
,,,,,SPR24_038,19,Male,2024-04-11_15h01.47.049,jersey_experiment_5_v0,2023.2.2,Win32,84.74576271,,,,,,,,,,,,,,,,431.863,433.1571,433.1571,434.9337,return,0.1307,,27.21354167,,,,,,FBP-OG-19.png,0.37,1.2,12,0.5,0,16,16,11,1,,,,,,,,,,,,,,,,,,,,,,,,,,,,,,,,,,,,,,,,
,,,,,SPR24_038,19,Male,2024-04-11_15h01.47.049,jersey_experiment_5_v0,2023.2.2,Win32,84.74576271,,,,,,,,,,,,,,,,434.9339,435.9806,435.9806,437.4162,return,0.411,,100,,,,,,FBP-YG-71.png,0.45,1.2,20,0.25,0,17,17,19,1,,,,,,,,,,,,,,,,,,,,,,,,,,,,,,,,,,,,,,,,
,,,,,SPR24_038,19,Male,2024-04-11_15h01.47.049,jersey_experiment_5_v0,2023.2.2,Win32,84.74576271,,,,,,,,,,,,,,,,437.4165,438.7102,438.7102,441.2985,return,1.6833,,27.734375,,,,,,FBP-RB-81.png,0.35,1.2,36,0.5,0,18,18,35,1,,,,,,,,,,,,,,,,,,,,,,,,,,,,,,,,,,,,,,,,
,,,,,SPR24_038,19,Male,2024-04-11_15h01.47.049,jersey_experiment_5_v0,2023.2.2,Win32,84.74576271,,,,,,,,,,,,,,,,441.2988,442.3458,442.3458,461.3463,return,14.4379,,73.828125,,,,,,FBP-PT-91.png,0.35,1.2,56,0.25,0,19,19,55,1,,,,,,,,,,,,,,,,,,,,,,,,,,,,,,,,,,,,,,,,
,,,,,SPR24_038,19,Male,2024-04-11_15h01.47.049,jersey_experiment_5_v0,2023.2.2,Win32,84.74576271,,,,,,,,,,,,,,,,461.3512,462.6523,462.6523,465.6995,return,2.224,,40.10416667,,,,,,FBP-RB-81.png,0.4,1.2,38,0.5,0,20,20,37,1,,,,,,,,,,,,,,,,,,,,,,,,,,,,,,,,,,,,,,,,
,,,,,SPR24_038,19,Male,2024-04-11_15h01.47.049,jersey_experiment_5_v0,2023.2.2,Win32,84.74576271,,,,,,,,,,,,,,,,465.6996,466.9935,466.9935,470.0172,return,1.1561,,66.015625,,,,,,FBP-RB-71.png,0.45,1.2,35,0.5,0,21,21,34,1,,,,,,,,,,,,,,,,,,,,,,,,,,,,,,,,,,,,,,,,
,,,,,SPR24_038,19,Male,2024-04-11_15h01.47.049,jersey_experiment_5_v0,2023.2.2,Win32,84.74576271,,,,,,,,,,,,,,,,470.0175,471.3114,471.3115,473.5821,return,0.724,,76.82291667,,,,,,FBP-RB-81.png,0.43,1.2,39,0.5,0,22,22,38,1,,,,,,,,,,,,,,,,,,,,,,,,,,,,,,,,,,,,,,,,
,,,,,SPR24_038,19,Male,2024-04-11_15h01.47.049,jersey_experiment_5_v0,2023.2.2,Win32,84.74576271,,,,,,,,,,,,,,,,473.5822,474.8762,474.8762,477.6881,return,0.9878,,25.26041667,,,,,,FBP-RB-91.png,0.4,1.2,43,0.5,0,23,23,42,1,,,,,,,,,,,,,,,,,,,,,,,,,,,,,,,,,,,,,,,,
,,,,,SPR24_038,19,Male,2024-04-11_15h01.47.049,jersey_experiment_5_v0,2023.2.2,Win32,84.74576271,,,,,,,,,,,,,,,,477.6883,478.7351,478.7352,481.8059,return,1.3711,,75.26041667,,,,,,FBP-PT-71.png,0.4,1.2,48,0.25,0,24,24,47,1,,,,,,,,,,,,,,,,,,,,,,,,,,,,,,,,,,,,,,,,
,,,,,SPR24_038,19,Male,2024-04-11_15h01.47.049,jersey_experiment_5_v0,2023.2.2,Win32,84.74576271,,,,,,,,,,,,,,,,481.8062,483.1001,483.1001,485.265,return,1.0049,,100,,,,,,FBP-OG-18.png,0.43,1.2,9,0.5,0,25,25,8,1,,,,,,,,,,,,,,,,,,,,,,,,,,,,,,,,,,,,,,,,
,,,,,SPR24_038,19,Male,2024-04-11_15h01.47.049,jersey_experiment_5_v0,2023.2.2,Win32,84.74576271,,,,,,,,,,,,,,,,485.2652,486.3119,486.312,488.2296,return,0.7524,,97.52604167,,,,,,FBP-PT-71.png,0.43,1.2,49,0.25,0,26,26,48,1,,,,,,,,,,,,,,,,,,,,,,,,,,,,,,,,,,,,,,,,
,,,,,SPR24_038,19,Male,2024-04-11_15h01.47.049,jersey_experiment_5_v0,2023.2.2,Win32,84.74576271,,,,,,,,,,,,,,,,488.2298,489.5237,489.5237,493.5356,return,1.2167,,73.69791667,,,,,,FBP-OG-18.png,0.4,1.2,8,0.5,0,27,27,7,1,,,,,,,,,,,,,,,,,,,,,,,,,,,,,,,,,,,,,,,,
,,,,,SPR24_038,19,Male,2024-04-11_15h01.47.049,jersey_experiment_5_v0,2023.2.2,Win32,84.74576271,,,,,,,,,,,,,,,,493.5359,494.5828,494.5829,496.9358,return,0.8712,,99.609375,,,,,,FBP-YG-91.png,0.43,1.2,29,0.25,0,28,28,28,1,,,,,,,,,,,,,,,,,,,,,,,,,,,,,,,,,,,,,,,,
,,,,,SPR24_038,19,Male,2024-04-11_15h01.47.049,jersey_experiment_5_v0,2023.2.2,Win32,84.74576271,,,,,,,,,,,,,,,,496.936,497.9827,497.9827,500.4655,return,0.3223,,49.73958333,,,,,,FBP-PT-81.png,0.37,1.2,52,0.25,0,29,29,51,1,,,,,,,,,,,,,,,,,,,,,,,,,,,,,,,,,,,,,,,,
,,,,,SPR24_038,19,Male,2024-04-11_15h01.47.049,jersey_experiment_5_v0,2023.2.2,Win32,84.74576271,,,,,,,,,,,,,,,,500.4657,501.7595,501.7596,504.9478,return,2.6952,,24.86979167,,,,,,FBP-OG-18.png,0.37,1.2,7,0.5,0,30,30,6,1,,,,,,,,,,,,,,,,,,,,,,,,,,,,,,,,,,,,,,,,
,,,,,SPR24_038,19,Male,2024-04-11_15h01.47.049,jersey_experiment_5_v0,2023.2.2,Win32,84.74576271,,,,,,,,,,,,,,,,504.948,505.995,505.9951,507.2539,return,0.1044,,76.953125,,,,,,FBP-YG-71.png,0.4,1.2,18,0.25,0,31,31,17,1,,,,,,,,,,,,,,,,,,,,,,,,,,,,,,,,,,,,,,,,
,,,,,SPR24_038,19,Male,2024-04-11_15h01.47.049,jersey_experiment_5_v0,2023.2.2,Win32,84.74576271,,,,,,,,,,,,,,,,507.2542,508.301,508.301,508.7832,return,0.0063,,76.953125,,,,,,FBP-PT-91.png,0.4,1.2,58,0.25,0,32,32,57,1,,,,,,,,,,,,,,,,,,,,,,,,,,,,,,,,,,,,,,,,
,,,,,SPR24_038,19,Male,2024-04-11_15h01.47.049,jersey_experiment_5_v0,2023.2.2,Win32,84.74576271,,,,,,,,,,,,,,,,508.7834,509.8305,509.8306,513.5599,return,0.5176,,25.26041667,,,,,,FBP-PT-81.png,0.4,1.2,53,0.25,0,33,33,52,1,,,,,,,,,,,,,,,,,,,,,,,,,,,,,,,,,,,,,,,,
,,,,,SPR24_038,19,Male,2024-04-11_15h01.47.049,jersey_experiment_5_v0,2023.2.2,Win32,84.74576271,,,,,,,,,,,,,,,,513.56,514.6071,514.6071,519.4779,return,0.2356,,25.52083333,,,,,,FBP-YG-71.png,0.35,1.2,16,0.25,0,34,34,15,1,,,,,,,,,,,,,,,,,,,,,,,,,,,,,,,,,,,,,,,,
,,,,,SPR24_038,19,Male,2024-04-11_15h01.47.049,jersey_experiment_5_v0,2023.2.2,Win32,84.74576271,,,,,,,,,,,,,,,,519.4782,520.5248,520.5249,521.0778,return,0.0234,,25.52083333,,,,,,FBP-PT-71.png,0.35,1.2,46,0.25,0,35,35,45,1,,,,,,,,,,,,,,,,,,,,,,,,,,,,,,,,,,,,,,,,
,,,,,SPR24_038,19,Male,2024-04-11_15h01.47.049,jersey_experiment_5_v0,2023.2.2,Win32,84.74576271,,,,,,,,,,,,,,,,521.0781,522.372,522.372,523.4073,return,0.0982,,100,,,,,,FBP-OG-19.png,0.43,1.2,14,0.5,0,36,36,13,1,,,,,,,,,,,,,,,,,,,,,,,,,,,,,,,,,,,,,,,,
,,,,,SPR24_038,19,Male,2024-04-11_15h01.47.049,jersey_experiment_5_v0,2023.2.2,Win32,84.74576271,,,,,,,,,,,,,,,,523.4074,524.7015,524.7015,525.5249,return,0.0847,,100,,,,,,FBP-OG-18.png,0.45,1.2,10,0.5,0,37,37,9,1,,,,,,,,,,,,,,,,,,,,,,,,,,,,,,,,,,,,,,,,
,,,,,SPR24_038,19,Male,2024-04-11_15h01.47.049,jersey_experiment_5_v0,2023.2.2,Win32,84.74576271,,,,,,,,,,,,,,,,525.5252,526.8193,526.8194,527.8899,return,0.098,,75.26041667,,,,,,FBP-OG-19.png,0.4,1.2,13,0.5,0,38,38,12,1,,,,,,,,,,,,,,,,,,,,,,,,,,,,,,,,,,,,,,,,
,,,,,SPR24_038,19,Male,2024-04-11_15h01.47.049,jersey_experiment_5_v0,2023.2.2,Win32,84.74576271,,,,,,,,,,,,,,,,527.8901,529.1839,529.184,529.7607,return,0.0641,,100,,,,,,FBP-RB-91.png,0.43,1.2,44,0.5,0,39,39,43,1,,,,,,,,,,,,,,,,,,,,,,,,,,,,,,,,,,,,,,,,
,,,,,SPR24_038,19,Male,2024-04-11_15h01.47.049,jersey_experiment_5_v0,2023.2.2,Win32,84.74576271,,,,,,,,,,,,,,,,529.7609,531.0546,531.0546,532.1488,return,0.4114,,75.65104167,,,,,,FBP-OG-17.png,0.4,1.2,3,0.5,0,40,40,2,1,,,,,,,,,,,,,,,,,,,,,,,,,,,,,,,,,,,,,,,,
,,,,,SPR24_038,19,Male,2024-04-11_15h01.47.049,jersey_experiment_5_v0,2023.2.2,Win32,84.74576271,,,,,,,,,,,,,,,,532.1491,533.4428,533.4429,534.5843,return,0.0949,,100,,,,,,FBP-RB-91.png,0.45,1.2,45,0.5,0,41,41,44,1,,,,,,,,,,,,,,,,,,,,,,,,,,,,,,,,,,,,,,,,
,,,,,SPR24_038,19,Male,2024-04-11_15h01.47.049,jersey_experiment_5_v0,2023.2.2,Win32,84.74576271,,,,,,,,,,,,,,,,534.5845,535.8783,535.8784,537.7137,return,0.2275,,25.13020833,,,,,,FBP-OG-17.png,0.35,1.2,1,0.5,0,42,42,0,1,,,,,,,,,,,,,,,,,,,,,,,,,,,,,,,,,,,,,,,,
,,,,,SPR24_038,19,Male,2024-04-11_15h01.47.049,jersey_experiment_5_v0,2023.2.2,Win32,84.74576271,,,,,,,,,,,,,,,,537.7139,538.7607,538.7607,540.0669,return,0.0722,,100,,,,,,FBP-PT-91.png,0.43,1.2,59,0.25,0,43,43,58,1,,,,,,,,,,,,,,,,,,,,,,,,,,,,,,,,,,,,,,,,
,,,,,SPR24_038,19,Male,2024-04-11_15h01.47.049,jersey_experiment_5_v0,2023.2.2,Win32,84.74576271,,,,,,,,,,,,,,,,540.0671,541.3611,541.3612,546.8551,return,0.9178,,48.828125,,,,,,FBP-RB-91.png,0.37,1.2,42,0.5,0,44,44,41,1,,,,,,,,,,,,,,,,,,,,,,,,,,,,,,,,,,,,,,,,
,,,,,SPR24_038,19,Male,2024-04-11_15h01.47.049,jersey_experiment_5_v0,2023.2.2,Win32,84.74576271,,,,,,,,,,,,,,,,546.8553,547.9023,547.9024,549.4082,return,0.2865,,26.43229167,,,,,,FBP-YG-81.png,0.37,1.2,22,0.25,0,45,45,21,1,,,,,,,,,,,,,,,,,,,,,,,,,,,,,,,,,,,,,,,,
,,,,,SPR24_038,19,Male,2024-04-11_15h01.47.049,jersey_experiment_5_v0,2023.2.2,Win32,84.74576271,,,,,,,,,,,,,,,,549.4085,550.4554,550.4555,552.0554,return,0.0943,,99.08854167,,,,,,FBP-YG-71.png,0.43,1.2,19,0.25,0,46,46,18,1,,,,,,,,,,,,,,,,,,,,,,,,,,,,,,,,,,,,,,,,
,,,,,SPR24_038,19,Male,2024-04-11_15h01.47.049,jersey_experiment_5_v0,2023.2.2,Win32,84.74576271,,,,,,,,,,,,,,,,552.0556,553.3496,553.3496,555.8437,return,1.1075,,0,,,,,,FBP-RB-91.png,0.35,1.2,41,0.5,0,47,47,40,1,,,,,,,,,,,,,,,,,,,,,,,,,,,,,,,,,,,,,,,,
,,,,,SPR24_038,19,Male,2024-04-11_15h01.47.049,jersey_experiment_5_v0,2023.2.2,Win32,84.74576271,,,,,,,,,,,,,,,,555.8439,556.8909,556.891,558.5496,return,0.081,,75.13020833,,,,,,FBP-PT-81.png,0.43,1.2,54,0.25,0,48,48,53,1,,,,,,,,,,,,,,,,,,,,,,,,,,,,,,,,,,,,,,,,
,,,,,SPR24_038,19,Male,2024-04-11_15h01.47.049,jersey_experiment_5_v0,2023.2.2,Win32,84.74576271,,,,,,,,,,,,,,,,558.5498,559.8439,559.844,562.2323,return,0.8129,,63.80208333,,,,,,FBP-RB-71.png,0.37,1.2,32,0.5,0,49,49,31,1,,,,,,,,,,,,,,,,,,,,,,,,,,,,,,,,,,,,,,,,
,,,,,SPR24_038,19,Male,2024-04-11_15h01.47.049,jersey_experiment_5_v0,2023.2.2,Win32,84.74576271,,,,,,,,,,,,,,,,562.2325,563.5264,563.5264,564.2439,return,0.1515,,90.49479167,,,,,,FBP-RB-71.png,0.43,1.2,34,0.5,0,50,50,33,1,,,,,,,,,,,,,,,,,,,,,,,,,,,,,,,,,,,,,,,,
,,,,,SPR24_038,19,Male,2024-04-11_15h01.47.049,jersey_experiment_5_v0,2023.2.2,Win32,84.74576271,,,,,,,,,,,,,,,,564.2441,565.5384,565.5384,566.503,return,0.1183,,73.69791667,,,,,,FBP-RB-71.png,0.4,1.2,33,0.5,0,51,51,32,1,,,,,,,,,,,,,,,,,,,,,,,,,,,,,,,,,,,,,,,,
,,,,,SPR24_038,19,Male,2024-04-11_15h01.47.049,jersey_experiment_5_v0,2023.2.2,Win32,84.74576271,,,,,,,,,,,,,,,,566.5032,567.797,567.7971,569.5973,return,1.0185,,100,,,,,,FBP-OG-17.png,0.43,1.2,4,0.5,0,52,52,3,1,,,,,,,,,,,,,,,,,,,,,,,,,,,,,,,,,,,,,,,,
,,,,,SPR24_038,19,Male,2024-04-11_15h01.47.049,jersey_experiment_5_v0,2023.2.2,Win32,84.74576271,,,,,,,,,,,,,,,,569.5975,570.6443,570.6443,571.8915,return,0.086,,100,,,,,,FBP-YG-81.png,0.4,1.2,23,0.25,0,53,53,22,1,,,,,,,,,,,,,,,,,,,,,,,,,,,,,,,,,,,,,,,,
,,,,,SPR24_038,19,Male,2024-04-11_15h01.47.049,jersey_experiment_5_v0,2023.2.2,Win32,84.74576271,,,,,,,,,,,,,,,,571.8917,572.9384,572.9384,573.6679,return,0.0719,,100,,,,,,FBP-PT-81.png,0.45,1.2,55,0.25,0,54,54,54,1,,,,,,,,,,,,,,,,,,,,,,,,,,,,,,,,,,,,,,,,
,,,,,SPR24_038,19,Male,2024-04-11_15h01.47.049,jersey_experiment_5_v0,2023.2.2,Win32,84.74576271,,,,,,,,,,,,,,,,573.6681,574.7181,574.7182,575.4607,return,0.1179,,100,,,,,,FBP-YG-91.png,0.45,1.2,30,0.25,0,55,55,29,1,,,,,,,,,,,,,,,,,,,,,,,,,,,,,,,,,,,,,,,,
,,,,,SPR24_038,19,Male,2024-04-11_15h01.47.049,jersey_experiment_5_v0,2023.2.2,Win32,84.74576271,,,,,,,,,,,,,,,,575.4609,576.7656,576.7656,577.767,return,0.1415,,25.390625,,,,,,FBP-OG-18.png,0.35,1.2,6,0.5,0,56,56,5,1,,,,,,,,,,,,,,,,,,,,,,,,,,,,,,,,,,,,,,,,
,,,,,SPR24_038,19,Male,2024-04-11_15h01.47.049,jersey_experiment_5_v0,2023.2.2,Win32,84.74576271,,,,,,,,,,,,,,,,577.7672,578.8126,578.8126,579.7268,return,0.0883,,49.08854167,,,,,,FBP-PT-91.png,0.37,1.2,57,0.25,0,57,57,56,1,,,,,,,,,,,,,,,,,,,,,,,,,,,,,,,,,,,,,,,,
,,,,,SPR24_038,19,Male,2024-04-11_15h01.47.049,jersey_experiment_5_v0,2023.2.2,Win32,84.74576271,,,,,,,,,,,,,,,,579.727,580.7785,580.7785,581.9034,return,0.1706,,42.96875,,,,,,FBP-PT-81.png,0.35,1.2,51,0.25,0,58,58,50,1,,,,,,,,,,,,,,,,,,,,,,,,,,,,,,,,,,,,,,,,
,,,,,SPR24_038,19,Male,2024-04-11_15h01.47.049,jersey_experiment_5_v0,2023.2.2,Win32,84.74576271,,,,,,,,,,,,,,,,581.9037,582.9505,582.9506,583.673,return,0.165,,100,,,,,,FBP-YG-81.png,0.43,1.2,24,0.25,0,59,59,23,1,,,,,,,,,,,,,,,,,,,,,,,,,,,,,,,,,,,,,,,,
,,,,,SPR24_038,19,Male,2024-04-11_15h01.47.049,jersey_experiment_5_v0,2023.2.2,Win32,84.74576271,,,,,,,,,,,,,,,,,,,,,,,,,,,,,,,,,,,,,,,583.6733,703.6728,,,,,,,,,,,,,,,,,,,,,,,,,,,,,,,,,,,,,,
,,,,,SPR24_038,19,Male,2024-04-11_15h01.47.049,jersey_experiment_5_v0,2023.2.2,Win32,84.74576271,,,,,,,,,,,,,,,,,,,,,,,,,,,,,,,,,,,,,,,,,703.6729,709.5235,return,5.8356,,,,,,,,,,,,,,,,,,,,,,,,,,,,,,,,,,
,,,,,SPR24_038,19,Male,2024-04-11_15h01.47.049,jersey_experiment_5_v0,2023.2.2,Win32,84.74576271,,,,,,,,,,,,,,,,709.5293,710.5714,710.5715,712.6727,return,0.1337,,75,,,,,,FBP-OG-71.png,0.45,1.2,5,0.25,,,,,,,,,,,,,0,0,0,4,1,,,,,,,,,,,,,,,,,,,,,,,,,,,,
,,,,,SPR24_038,19,Male,2024-04-11_15h01.47.049,jersey_experiment_5_v0,2023.2.2,Win32,84.74576271,,,,,,,,,,,,,,,,712.6731,713.9704,713.9704,718.5953,return,2.2825,,25.26041667,,,,,,FBP-YG-18.png,0.37,1.2,22,0.5,,,,,,,,,,,,,0,1,1,21,1,,,,,,,,,,,,,,,,,,,,,,,,,,,,
,,,,,SPR24_038,19,Male,2024-04-11_15h01.47.049,jersey_experiment_5_v0,2023.2.2,Win32,84.74576271,,,,,,,,,,,,,,,,718.5955,719.9001,719.9002,720.4648,return,0.0708,,96.74479167,,,,,,FBP-YG-17.png,0.43,1.2,19,0.5,,,,,,,,,,,,,0,2,2,18,1,,,,,,,,,,,,,,,,,,,,,,,,,,,,
,,,,,SPR24_038,19,Male,2024-04-11_15h01.47.049,jersey_experiment_5_v0,2023.2.2,Win32,84.74576271,,,,,,,,,,,,,,,,720.465,721.5082,721.5083,723.2142,return,0.771,,74.34895833,,,,,,FBP-RB-17.png,0.37,1.2,32,0.25,,,,,,,,,,,,,0,3,3,31,1,,,,,,,,,,,,,,,,,,,,,,,,,,,,
,,,,,SPR24_038,19,Male,2024-04-11_15h01.47.049,jersey_experiment_5_v0,2023.2.2,Win32,84.74576271,,,,,,,,,,,,,,,,723.2145,724.2614,724.2614,724.8177,return,0.0944,,73.17708333,,,,,,FBP-RB-19.png,0.4,1.2,43,0.25,,,,,,,,,,,,,0,4,4,42,1,,,,,,,,,,,,,,,,,,,,,,,,,,,,
,,,,,SPR24_038,19,Male,2024-04-11_15h01.47.049,jersey_experiment_5_v0,2023.2.2,Win32,84.74576271,,,,,,,,,,,,,,,,724.8179,725.8661,725.8662,726.8074,return,0.2958,,26.30208333,,,,,,FBP-OG-71.png,0.37,1.2,2,0.25,,,,,,,,,,,,,0,5,5,1,1,,,,,,,,,,,,,,,,,,,,,,,,,,,,
,,,,,SPR24_038,19,Male,2024-04-11_15h01.47.049,jersey_experiment_5_v0,2023.2.2,Win32,84.74576271,,,,,,,,,,,,,,,,726.8076,728.1119,728.1119,730.238,return,0.0542,,25,,,,,,FBP-PT-18.png,0.35,1.2,51,0.5,,,,,,,,,,,,,0,6,6,50,1,,,,,,,,,,,,,,,,,,,,,,,,,,,,
,,,,,SPR24_038,19,Male,2024-04-11_15h01.47.049,jersey_experiment_5_v0,2023.2.2,Win32,84.74576271,,,,,,,,,,,,,,,,730.2383,731.2881,731.2881,734.2193,return,0.2825,,49.08854167,,,,,,FBP-OG-91.png,0.37,1.2,12,0.25,,,,,,,,,,,,,0,7,7,11,1,,,,,,,,,,,,,,,,,,,,,,,,,,,,
,,,,,SPR24_038,19,Male,2024-04-11_15h01.47.049,jersey_experiment_5_v0,2023.2.2,Win32,84.74576271,,,,,,,,,,,,,,,,734.2195,735.5137,735.5137,736.7841,return,0.5648,,98.95833333,,,,,,FBP-PT-19.png,0.45,1.2,60,0.5,,,,,,,,,,,,,0,8,8,59,1,,,,,,,,,,,,,,,,,,,,,,,,,,,,
,,,,,SPR24_038,19,Male,2024-04-11_15h01.47.049,jersey_experiment_5_v0,2023.2.2,Win32,84.74576271,,,,,,,,,,,,,,,,736.7843,738.0886,738.0886,740.196,return,0.7663,,75.52083333,,,,,,FBP-YG-17.png,0.4,1.2,18,0.5,,,,,,,,,,,,,0,9,9,17,1,,,,,,,,,,,,,,,,,,,,,,,,,,,,
,,,,,SPR24_038,19,Male,2024-04-11_15h01.47.049,jersey_experiment_5_v0,2023.2.2,Win32,84.74576271,,,,,,,,,,,,,,,,740.1962,741.2384,741.2384,743.0303,return,0.9178,,100,,,,,,FBP-RB-17.png,0.45,1.2,35,0.25,,,,,,,,,,,,,0,10,10,34,1,,,,,,,,,,,,,,,,,,,,,,,,,,,,
,,,,,SPR24_038,19,Male,2024-04-11_15h01.47.049,jersey_experiment_5_v0,2023.2.2,Win32,84.74576271,,,,,,,,,,,,,,,,743.0304,744.3328,744.3328,745.6892,return,0.1513,,51.953125,,,,,,FBP-PT-19.png,0.35,1.2,56,0.5,,,,,,,,,,,,,0,11,11,55,1,,,,,,,,,,,,,,,,,,,,,,,,,,,,
,,,,,SPR24_038,19,Male,2024-04-11_15h01.47.049,jersey_experiment_5_v0,2023.2.2,Win32,84.74576271,,,,,,,,,,,,,,,,745.6894,746.9916,746.9916,748.4153,return,0.135,,75.26041667,,,,,,FBP-PT-18.png,0.4,1.2,53,0.5,,,,,,,,,,,,,0,12,12,52,1,,,,,,,,,,,,,,,,,,,,,,,,,,,,
,,,,,SPR24_038,19,Male,2024-04-11_15h01.47.049,jersey_experiment_5_v0,2023.2.2,Win32,84.74576271,,,,,,,,,,,,,,,,748.4155,749.4623,749.4623,750.6387,return,0.2416,,45.18229167,,,,,,FBP-RB-18.png,0.35,1.2,36,0.25,,,,,,,,,,,,,0,13,13,35,1,,,,,,,,,,,,,,,,,,,,,,,,,,,,
,,,,,SPR24_038,19,Male,2024-04-11_15h01.47.049,jersey_experiment_5_v0,2023.2.2,Win32,84.74576271,,,,,,,,,,,,,,,,750.639,751.6859,751.6859,753.8679,return,0.0243,,73.828125,,,,,,FBP-OG-81.png,0.37,1.2,7,0.25,,,,,,,,,,,,,0,14,14,6,1,,,,,,,,,,,,,,,,,,,,,,,,,,,,
,,,,,SPR24_038,19,Male,2024-04-11_15h01.47.049,jersey_experiment_5_v0,2023.2.2,Win32,84.74576271,,,,,,,,,,,,,,,,753.8681,754.9095,754.9095,755.7919,return,0.0991,,73.30729167,,,,,,FBP-OG-81.png,0.43,1.2,9,0.25,,,,,,,,,,,,,0,15,15,8,1,,,,,,,,,,,,,,,,,,,,,,,,,,,,
,,,,,SPR24_038,19,Male,2024-04-11_15h01.47.049,jersey_experiment_5_v0,2023.2.2,Win32,84.74576271,,,,,,,,,,,,,,,,755.7921,756.839,756.8391,757.397,return,0.0476,,100,,,,,,FBP-RB-18.png,0.45,1.2,40,0.25,,,,,,,,,,,,,0,16,16,39,1,,,,,,,,,,,,,,,,,,,,,,,,,,,,
,,,,,SPR24_038,19,Male,2024-04-11_15h01.47.049,jersey_experiment_5_v0,2023.2.2,Win32,84.74576271,,,,,,,,,,,,,,,,757.3971,758.4422,758.4422,760.0427,return,0.0345,,24.86979167,,,,,,FBP-OG-81.png,0.35,1.2,6,0.25,,,,,,,,,,,,,0,17,17,5,1,,,,,,,,,,,,,,,,,,,,,,,,,,,,
,,,,,SPR24_038,19,Male,2024-04-11_15h01.47.049,jersey_experiment_5_v0,2023.2.2,Win32,84.74576271,,,,,,,,,,,,,,,,760.043,761.3364,761.3364,762.5736,return,0.0237,,75.390625,,,,,,FBP-PT-17.png,0.37,1.2,47,0.5,,,,,,,,,,,,,0,18,18,46,1,,,,,,,,,,,,,,,,,,,,,,,,,,,,
,,,,,SPR24_038,19,Male,2024-04-11_15h01.47.049,jersey_experiment_5_v0,2023.2.2,Win32,84.74576271,,,,,,,,,,,,,,,,762.5737,763.619,763.619,764.809,return,0.3534,,74.86979167,,,,,,FBP-OG-81.png,0.4,1.2,8,0.25,,,,,,,,,,,,,0,19,19,7,1,,,,,,,,,,,,,,,,,,,,,,,,,,,,
,,,,,SPR24_038,19,Male,2024-04-11_15h01.47.049,jersey_experiment_5_v0,2023.2.2,Win32,84.74576271,,,,,,,,,,,,,,,,764.8093,765.8511,765.8511,767.4208,return,0.377,,25.78125,,,,,,FBP-RB-19.png,0.35,1.2,41,0.25,,,,,,,,,,,,,0,20,20,40,1,,,,,,,,,,,,,,,,,,,,,,,,,,,,
,,,,,SPR24_038,19,Male,2024-04-11_15h01.47.049,jersey_experiment_5_v0,2023.2.2,Win32,84.74576271,,,,,,,,,,,,,,,,767.421,768.7147,768.7148,770.1925,return,0.0747,,100,,,,,,FBP-PT-17.png,0.45,1.2,50,0.5,,,,,,,,,,,,,0,21,21,49,1,,,,,,,,,,,,,,,,,,,,,,,,,,,,
,,,,,SPR24_038,19,Male,2024-04-11_15h01.47.049,jersey_experiment_5_v0,2023.2.2,Win32,84.74576271,,,,,,,,,,,,,,,,770.1927,771.2427,771.2428,772.3726,return,0.0713,,69.140625,,,,,,FBP-OG-71.png,0.4,1.2,3,0.25,,,,,,,,,,,,,0,22,22,2,1,,,,,,,,,,,,,,,,,,,,,,,,,,,,
,,,,,SPR24_038,19,Male,2024-04-11_15h01.47.049,jersey_experiment_5_v0,2023.2.2,Win32,84.74576271,,,,,,,,,,,,,,,,772.3728,773.6665,773.6665,775.068,return,0.0946,,89.32291667,,,,,,FBP-YG-18.png,0.43,1.2,24,0.5,,,,,,,,,,,,,0,23,23,23,1,,,,,,,,,,,,,,,,,,,,,,,,,,,,
,,,,,SPR24_038,19,Male,2024-04-11_15h01.47.049,jersey_experiment_5_v0,2023.2.2,Win32,84.74576271,,,,,,,,,,,,,,,,775.0682,776.3691,776.3691,776.8563,return,0.118,,85.546875,,,,,,FBP-YG-18.png,0.4,1.2,23,0.5,,,,,,,,,,,,,0,24,24,22,1,,,,,,,,,,,,,,,,,,,,,,,,,,,,
,,,,,SPR24_038,19,Male,2024-04-11_15h01.47.049,jersey_experiment_5_v0,2023.2.2,Win32,84.74576271,,,,,,,,,,,,,,,,776.8565,777.8984,777.8984,778.7859,return,0.0371,,27.21354167,,,,,,FBP-RB-19.png,0.37,1.2,42,0.25,,,,,,,,,,,,,0,25,25,41,1,,,,,,,,,,,,,,,,,,,,,,,,,,,,
,,,,,SPR24_038,19,Male,2024-04-11_15h01.47.049,jersey_experiment_5_v0,2023.2.2,Win32,84.74576271,,,,,,,,,,,,,,,,778.7861,780.0903,780.0904,780.9977,return,0.0474,,51.171875,,,,,,FBP-YG-17.png,0.37,1.2,17,0.5,,,,,,,,,,,,,0,26,26,16,1,,,,,,,,,,,,,,,,,,,,,,,,,,,,
,,,,,SPR24_038,19,Male,2024-04-11_15h01.47.049,jersey_experiment_5_v0,2023.2.2,Win32,84.74576271,,,,,,,,,,,,,,,,780.998,782.3021,782.3022,782.993,return,0.0143,,99.21875,,,,,,FBP-PT-18.png,0.43,1.2,54,0.5,,,,,,,,,,,,,0,27,27,53,1,,,,,,,,,,,,,,,,,,,,,,,,,,,,
,,,,,SPR24_038,19,Male,2024-04-11_15h01.47.049,jersey_experiment_5_v0,2023.2.2,Win32,84.74576271,,,,,,,,,,,,,,,,782.9932,784.0433,784.0433,787.3749,return,0.5185,,74.47916667,,,,,,FBP-RB-18.png,0.43,1.2,39,0.25,,,,,,,,,,,,,0,28,28,38,1,,,,,,,,,,,,,,,,,,,,,,,,,,,,
,,,,,SPR24_038,19,Male,2024-04-11_15h01.47.049,jersey_experiment_5_v0,2023.2.2,Win32,84.74576271,,,,,,,,,,,,,,,,787.375,788.6683,788.6683,791.6637,return,1.3347,,25.26041667,,,,,,FBP-PT-19.png,0.37,1.2,57,0.5,,,,,,,,,,,,,0,29,29,56,1,,,,,,,,,,,,,,,,,,,,,,,,,,,,
,,,,,SPR24_038,19,Male,2024-04-11_15h01.47.049,jersey_experiment_5_v0,2023.2.2,Win32,84.74576271,,,,,,,,,,,,,,,,791.664,792.7155,792.7155,795.3463,return,0.9672,,97.13541667,,,,,,FBP-RB-18.png,0.4,1.2,38,0.25,,,,,,,,,,,,,0,30,30,37,1,,,,,,,,,,,,,,,,,,,,,,,,,,,,
,,,,,SPR24_038,19,Male,2024-04-11_15h01.47.049,jersey_experiment_5_v0,2023.2.2,Win32,84.74576271,,,,,,,,,,,,,,,,795.3465,796.6453,796.6453,797.3983,return,0.2725,,48.828125,,,,,,FBP-YG-19.png,0.37,1.2,27,0.5,,,,,,,,,,,,,0,31,31,26,1,,,,,,,,,,,,,,,,,,,,,,,,,,,,
,,,,,SPR24_038,19,Male,2024-04-11_15h01.47.049,jersey_experiment_5_v0,2023.2.2,Win32,84.74576271,,,,,,,,,,,,,,,,797.3985,798.444,798.4441,799.1816,return,0.0884,,100,,,,,,FBP-RB-17.png,0.43,1.2,34,0.25,,,,,,,,,,,,,0,32,32,33,1,,,,,,,,,,,,,,,,,,,,,,,,,,,,
,,,,,SPR24_038,19,Male,2024-04-11_15h01.47.049,jersey_experiment_5_v0,2023.2.2,Win32,84.74576271,,,,,,,,,,,,,,,,799.1819,800.2322,800.2322,801.2337,return,0.0837,,100,,,,,,FBP-RB-17.png,0.4,1.2,33,0.25,,,,,,,,,,,,,0,33,33,32,1,,,,,,,,,,,,,,,,,,,,,,,,,,,,
,,,,,SPR24_038,19,Male,2024-04-11_15h01.47.049,jersey_experiment_5_v0,2023.2.2,Win32,84.74576271,,,,,,,,,,,,,,,,801.2338,802.2794,802.2794,803.8694,return,0.4141,,99.21875,,,,,,FBP-OG-91.png,0.45,1.2,15,0.25,,,,,,,,,,,,,0,34,34,14,1,,,,,,,,,,,,,,,,,,,,,,,,,,,,
,,,,,SPR24_038,19,Male,2024-04-11_15h01.47.049,jersey_experiment_5_v0,2023.2.2,Win32,84.74576271,,,,,,,,,,,,,,,,803.8696,805.1629,805.1629,805.5737,return,0.1412,,96.74479167,,,,,,FBP-PT-19.png,0.43,1.2,59,0.5,,,,,,,,,,,,,0,35,35,58,1,,,,,,,,,,,,,,,,,,,,,,,,,,,,
,,,,,SPR24_038,19,Male,2024-04-11_15h01.47.049,jersey_experiment_5_v0,2023.2.2,Win32,84.74576271,,,,,,,,,,,,,,,,805.5739,806.6172,806.6173,807.2525,return,0.0111,,100,,,,,,FBP-OG-91.png,0.43,1.2,14,0.25,,,,,,,,,,,,,0,36,36,13,1,,,,,,,,,,,,,,,,,,,,,,,,,,,,
,,,,,SPR24_038,19,Male,2024-04-11_15h01.47.049,jersey_experiment_5_v0,2023.2.2,Win32,84.74576271,,,,,,,,,,,,,,,,807.2526,808.3029,808.303,809.4056,return,0.0423,,100,,,,,,FBP-OG-81.png,0.45,1.2,10,0.25,,,,,,,,,,,,,0,37,37,9,1,,,,,,,,,,,,,,,,,,,,,,,,,,,,
,,,,,SPR24_038,19,Male,2024-04-11_15h01.47.049,jersey_experiment_5_v0,2023.2.2,Win32,84.74576271,,,,,,,,,,,,,,,,809.4057,810.4526,810.4526,810.9586,return,0.0991,,100,,,,,,FBP-OG-91.png,0.35,1.2,11,0.25,,,,,,,,,,,,,0,38,38,10,1,,,,,,,,,,,,,,,,,,,,,,,,,,,,
,,,,,SPR24_038,19,Male,2024-04-11_15h01.47.049,jersey_experiment_5_v0,2023.2.2,Win32,84.74576271,,,,,,,,,,,,,,,,810.9588,812.0102,812.0102,813.1166,return,0.6829,,74.73958333,,,,,,FBP-RB-18.png,0.37,1.2,37,0.25,,,,,,,,,,,,,0,39,39,36,1,,,,,,,,,,,,,,,,,,,,,,,,,,,,
,,,,,SPR24_038,19,Male,2024-04-11_15h01.47.049,jersey_experiment_5_v0,2023.2.2,Win32,84.74576271,,,,,,,,,,,,,,,,813.1167,814.4102,814.4103,814.8812,return,0.0708,,100,,,,,,FBP-YG-19.png,0.43,1.2,29,0.5,,,,,,,,,,,,,0,40,40,28,1,,,,,,,,,,,,,,,,,,,,,,,,,,,,
,,,,,SPR24_038,19,Male,2024-04-11_15h01.47.049,jersey_experiment_5_v0,2023.2.2,Win32,84.74576271,,,,,,,,,,,,,,,,814.8813,816.1754,816.1754,817.1978,return,0.4238,,21.875,,,,,,FBP-YG-18.png,0.35,1.2,21,0.5,,,,,,,,,,,,,0,41,41,20,1,,,,,,,,,,,,,,,,,,,,,,,,,,,,
,,,,,SPR24_038,19,Male,2024-04-11_15h01.47.049,jersey_experiment_5_v0,2023.2.2,Win32,84.74576271,,,,,,,,,,,,,,,,817.1979,818.5048,818.5049,819.1977,return,0.0813,,100,,,,,,FBP-YG-18.png,0.45,1.2,25,0.5,,,,,,,,,,,,,0,42,42,24,1,,,,,,,,,,,,,,,,,,,,,,,,,,,,
,,,,,SPR24_038,19,Male,2024-04-11_15h01.47.049,jersey_experiment_5_v0,2023.2.2,Win32,84.74576271,,,,,,,,,,,,,,,,819.1978,820.4913,820.4913,821.0529,return,0.0904,,100,,,,,,FBP-YG-19.png,0.45,1.2,30,0.5,,,,,,,,,,,,,0,43,43,29,1,,,,,,,,,,,,,,,,,,,,,,,,,,,,
,,,,,SPR24_038,19,Male,2024-04-11_15h01.47.049,jersey_experiment_5_v0,2023.2.2,Win32,84.74576271,,,,,,,,,,,,,,,,821.0531,822.1,822.1001,823.1508,return,0.0946,,26.171875,,,,,,FBP-RB-17.png,0.35,1.2,31,0.25,,,,,,,,,,,,,0,44,44,30,1,,,,,,,,,,,,,,,,,,,,,,,,,,,,
,,,,,SPR24_038,19,Male,2024-04-11_15h01.47.049,jersey_experiment_5_v0,2023.2.2,Win32,84.74576271,,,,,,,,,,,,,,,,823.151,824.4446,824.4446,825.3944,return,0.0726,,26.04166667,,,,,,FBP-PT-18.png,0.37,1.2,52,0.5,,,,,,,,,,,,,0,45,45,51,1,,,,,,,,,,,,,,,,,,,,,,,,,,,,
,,,,,SPR24_038,19,Male,2024-04-11_15h01.47.049,jersey_experiment_5_v0,2023.2.2,Win32,84.74576271,,,,,,,,,,,,,,,,825.3946,826.6933,826.6933,831.8063,return,4.5227,,21.22395833,,,,,,FBP-YG-19.png,0.35,1.2,26,0.5,,,,,,,,,,,,,0,46,46,25,1,,,,,,,,,,,,,,,,,,,,,,,,,,,,
,,,,,SPR24_038,19,Male,2024-04-11_15h01.47.049,jersey_experiment_5_v0,2023.2.2,Win32,84.74576271,,,,,,,,,,,,,,,,831.8066,832.8533,832.8534,834.3358,return,0.3214,,75.78125,,,,,,FBP-OG-91.png,0.4,1.2,13,0.25,,,,,,,,,,,,,0,47,47,12,1,,,,,,,,,,,,,,,,,,,,,,,,,,,,
,,,,,SPR24_038,19,Male,2024-04-11_15h01.47.049,jersey_experiment_5_v0,2023.2.2,Win32,84.74576271,,,,,,,,,,,,,,,,834.3361,835.3862,835.3863,836.2064,return,0.0652,,100,,,,,,FBP-RB-19.png,0.45,1.2,45,0.25,,,,,,,,,,,,,0,48,48,44,1,,,,,,,,,,,,,,,,,,,,,,,,,,,,
,,,,,SPR24_038,19,Male,2024-04-11_15h01.47.049,jersey_experiment_5_v0,2023.2.2,Win32,84.74576271,,,,,,,,,,,,,,,,836.2067,837.5006,837.5006,840.0113,return,0.2114,,67.44791667,,,,,,FBP-PT-18.png,0.45,1.2,55,0.5,,,,,,,,,,,,,0,49,49,54,1,,,,,,,,,,,,,,,,,,,,,,,,,,,,
,,,,,SPR24_038,19,Male,2024-04-11_15h01.47.049,jersey_experiment_5_v0,2023.2.2,Win32,84.74576271,,,,,,,,,,,,,,,,840.0114,841.3054,841.3054,842.3879,return,0.5074,,75.65104167,,,,,,FBP-PT-19.png,0.4,1.2,58,0.5,,,,,,,,,,,,,0,50,50,57,1,,,,,,,,,,,,,,,,,,,,,,,,,,,,
,,,,,SPR24_038,19,Male,2024-04-11_15h01.47.049,jersey_experiment_5_v0,2023.2.2,Win32,84.74576271,,,,,,,,,,,,,,,,842.3881,843.4303,843.4303,844.9479,return,0.0711,,83.46354167,,,,,,FBP-RB-19.png,0.43,1.2,44,0.25,,,,,,,,,,,,,0,51,51,43,1,,,,,,,,,,,,,,,,,,,,,,,,,,,,
,,,,,SPR24_038,19,Male,2024-04-11_15h01.47.049,jersey_experiment_5_v0,2023.2.2,Win32,84.74576271,,,,,,,,,,,,,,,,844.9481,846.2422,846.2422,847.3871,return,0.0818,,64.32291667,,,,,,FBP-YG-19.png,0.4,1.2,28,0.5,,,,,,,,,,,,,0,52,52,27,1,,,,,,,,,,,,,,,,,,,,,,,,,,,,
,,,,,SPR24_038,19,Male,2024-04-11_15h01.47.049,jersey_experiment_5_v0,2023.2.2,Win32,84.74576271,,,,,,,,,,,,,,,,847.3872,848.4305,848.4305,849.3529,return,0.0706,,12.23958333,,,,,,FBP-OG-71.png,0.35,1.2,1,0.25,,,,,,,,,,,,,0,53,53,0,1,,,,,,,,,,,,,,,,,,,,,,,,,,,,
,,,,,SPR24_038,19,Male,2024-04-11_15h01.47.049,jersey_experiment_5_v0,2023.2.2,Win32,84.74576271,,,,,,,,,,,,,,,,849.3529,850.647,850.647,855.9048,return,0.4711,,0,,,,,,FBP-YG-17.png,0.35,1.2,16,0.5,,,,,,,,,,,,,0,54,54,15,1,,,,,,,,,,,,,,,,,,,,,,,,,,,,
,,,,,SPR24_038,19,Male,2024-04-11_15h01.47.049,jersey_experiment_5_v0,2023.2.2,Win32,84.74576271,,,,,,,,,,,,,,,,855.9049,857.1988,857.1988,858.1248,return,0.0888,,75.26041667,,,,,,FBP-PT-17.png,0.43,1.2,49,0.5,,,,,,,,,,,,,0,55,55,48,1,,,,,,,,,,,,,,,,,,,,,,,,,,,,
,,,,,SPR24_038,19,Male,2024-04-11_15h01.47.049,jersey_experiment_5_v0,2023.2.2,Win32,84.74576271,,,,,,,,,,,,,,,,858.125,859.4191,859.4191,860.8662,return,0.0957,,49.08854167,,,,,,FBP-PT-17.png,0.35,1.2,46,0.5,,,,,,,,,,,,,0,56,56,45,1,,,,,,,,,,,,,,,,,,,,,,,,,,,,
,,,,,SPR24_038,19,Male,2024-04-11_15h01.47.049,jersey_experiment_5_v0,2023.2.2,Win32,84.74576271,,,,,,,,,,,,,,,,860.8663,862.1603,862.1603,862.6545,return,0.0183,,49.08854167,,,,,,FBP-PT-17.png,0.4,1.2,48,0.5,,,,,,,,,,,,,0,57,57,47,1,,,,,,,,,,,,,,,,,,,,,,,,,,,,
,,,,,SPR24_038,19,Male,2024-04-11_15h01.47.049,jersey_experiment_5_v0,2023.2.2,Win32,84.74576271,,,,,,,,,,,,,,,,862.6548,863.7015,863.7015,864.6074,return,0.0407,,48.69791667,,,,,,FBP-OG-71.png,0.43,1.2,4,0.25,,,,,,,,,,,,,0,58,58,3,1,,,,,,,,,,,,,,,,,,,,,,,,,,,,
,,,,,SPR24_038,19,Male,2024-04-11_15h01.47.049,jersey_experiment_5_v0,2023.2.2,Win32,84.74576271,,,,,,,,,,,,,,,,864.6077,865.9016,865.9017,867.5288,return,0.471,,74.73958333,,,,,,FBP-YG-17.png,0.45,1.2,20,0.5,,,,,,,,,,,,,0,59,59,19,1,,,,,,,,,,,,,,,,,,,,,,,,,,,,
,,,,,SPR24_038,19,Male,2024-04-11_15h01.47.049,jersey_experiment_5_v0,2023.2.2,Win32,84.74576271,,,,,,,,,,,,,,,,867.5304,868.836,868.836,870.3842,return,0.0856,,25,,,,,,FBP-PT-81.png,0.35,1.2,51,0.5,,,,,,,,,,,,,,,,,,0,0,0,50,1,,,,,,,,,,,,,,,,,,,,,,,
,,,,,SPR24_038,19,Male,2024-04-11_15h01.47.049,jersey_experiment_5_v0,2023.2.2,Win32,84.74576271,,,,,,,,,,,,,,,,870.3844,871.4312,871.4313,874.6113,return,1.5872,,98.69791667,,,,,,FBP-RB-91.png,0.43,1.2,44,0.25,,,,,,,,,,,,,,,,,,0,1,1,43,1,,,,,,,,,,,,,,,,,,,,,,,
,,,,,SPR24_038,19,Male,2024-04-11_15h01.47.049,jersey_experiment_5_v0,2023.2.2,Win32,84.74576271,,,,,,,,,,,,,,,,874.6114,875.9054,875.9054,876.8835,return,0.0004,,51.04166667,,,,,,FBP-PT-71.png,0.37,1.2,47,0.5,,,,,,,,,,,,,,,,,,0,2,2,46,1,,,,,,,,,,,,,,,,,,,,,,,
,,,,,SPR24_038,19,Male,2024-04-11_15h01.47.049,jersey_experiment_5_v0,2023.2.2,Win32,84.74576271,,,,,,,,,,,,,,,,876.8837,878.1774,878.1774,882.3492,return,3.4649,,24.86979167,,,,,,FBP-PT-71.png,0.35,1.2,46,0.5,,,,,,,,,,,,,,,,,,0,3,3,45,1,,,,,,,,,,,,,,,,,,,,,,,
,,,,,SPR24_038,19,Male,2024-04-11_15h01.47.049,jersey_experiment_5_v0,2023.2.2,Win32,84.74576271,,,,,,,,,,,,,,,,882.3495,883.6434,883.6434,884.6011,return,0.0942,,100,,,,,,FBP-PT-91.png,0.45,1.2,60,0.5,,,,,,,,,,,,,,,,,,0,4,4,59,1,,,,,,,,,,,,,,,,,,,,,,,
,,,,,SPR24_038,19,Male,2024-04-11_15h01.47.049,jersey_experiment_5_v0,2023.2.2,Win32,84.74576271,,,,,,,,,,,,,,,,884.6013,885.8952,885.8952,886.8133,return,0.5549,,73.56770833,,,,,,FBP-YG-71.png,0.37,1.2,17,0.5,,,,,,,,,,,,,,,,,,0,5,5,16,1,,,,,,,,,,,,,,,,,,,,,,,
,,,,,SPR24_038,19,Male,2024-04-11_15h01.47.049,jersey_experiment_5_v0,2023.2.2,Win32,84.74576271,,,,,,,,,,,,,,,,886.8135,887.8554,887.8555,888.5613,return,0.0387,,75.52083333,,,,,,FBP-RB-81.png,0.37,1.2,37,0.25,,,,,,,,,,,,,,,,,,0,6,6,36,1,,,,,,,,,,,,,,,,,,,,,,,
,,,,,SPR24_038,19,Male,2024-04-11_15h01.47.049,jersey_experiment_5_v0,2023.2.2,Win32,84.74576271,,,,,,,,,,,,,,,,888.5615,889.8554,889.8554,890.3533,return,0.2124,,75.390625,,,,,,FBP-YG-81.png,0.4,1.2,23,0.5,,,,,,,,,,,,,,,,,,0,7,7,22,1,,,,,,,,,,,,,,,,,,,,,,,
,,,,,SPR24_038,19,Male,2024-04-11_15h01.47.049,jersey_experiment_5_v0,2023.2.2,Win32,84.74576271,,,,,,,,,,,,,,,,890.3534,891.4012,891.4012,892.612,return,0.4712,,75.26041667,,,,,,FBP-OG-19.png,0.35,1.2,11,0.25,,,,,,,,,,,,,,,,,,0,8,8,10,1,,,,,,,,,,,,,,,,,,,,,,,
,,,,,SPR24_038,19,Male,2024-04-11_15h01.47.049,jersey_experiment_5_v0,2023.2.2,Win32,84.74576271,,,,,,,,,,,,,,,,892.6122,893.9188,893.9189,895.3182,return,0.0345,,47.00520833,,,,,,FBP-PT-81.png,0.37,1.2,52,0.5,,,,,,,,,,,,,,,,,,0,9,9,51,1,,,,,,,,,,,,,,,,,,,,,,,
,,,,,SPR24_038,19,Male,2024-04-11_15h01.47.049,jersey_experiment_5_v0,2023.2.2,Win32,84.74576271,,,,,,,,,,,,,,,,895.3184,896.3615,896.3615,897.9533,return,0.7769,,79.296875,,,,,,FBP-OG-19.png,0.37,1.2,12,0.25,,,,,,,,,,,,,,,,,,0,10,10,11,1,,,,,,,,,,,,,,,,,,,,,,,
,,,,,SPR24_038,19,Male,2024-04-11_15h01.47.049,jersey_experiment_5_v0,2023.2.2,Win32,84.74576271,,,,,,,,,,,,,,,,897.9534,899.0011,899.0012,899.7888,return,0.1181,,83.59375,,,,,,FBP-RB-71.png,0.43,1.2,34,0.25,,,,,,,,,,,,,,,,,,0,11,11,33,1,,,,,,,,,,,,,,,,,,,,,,,
,,,,,SPR24_038,19,Male,2024-04-11_15h01.47.049,jersey_experiment_5_v0,2023.2.2,Win32,84.74576271,,,,,,,,,,,,,,,,899.7889,901.0956,901.0956,902.2122,return,0.4474,,58.203125,,,,,,FBP-YG-81.png,0.37,1.2,22,0.5,,,,,,,,,,,,,,,,,,0,12,12,21,1,,,,,,,,,,,,,,,,,,,,,,,
,,,,,SPR24_038,19,Male,2024-04-11_15h01.47.049,jersey_experiment_5_v0,2023.2.2,Win32,84.74576271,,,,,,,,,,,,,,,,902.2123,903.5194,903.5194,904.4243,return,0.2461,,69.40104167,,,,,,FBP-PT-91.png,0.43,1.2,59,0.5,,,,,,,,,,,,,,,,,,0,13,13,58,1,,,,,,,,,,,,,,,,,,,,,,,
,,,,,SPR24_038,19,Male,2024-04-11_15h01.47.049,jersey_experiment_5_v0,2023.2.2,Win32,84.74576271,,,,,,,,,,,,,,,,904.4244,905.4677,905.4678,906.5148,return,0.3547,,52.47395833,,,,,,FBP-OG-17.png,0.35,1.2,1,0.25,,,,,,,,,,,,,,,,,,0,14,14,0,1,,,,,,,,,,,,,,,,,,,,,,,
,,,,,SPR24_038,19,Male,2024-04-11_15h01.47.049,jersey_experiment_5_v0,2023.2.2,Win32,84.74576271,,,,,,,,,,,,,,,,906.5151,907.5667,907.5667,908.3539,return,0.0813,,94.40104167,,,,,,FBP-RB-81.png,0.43,1.2,39,0.25,,,,,,,,,,,,,,,,,,0,15,15,38,1,,,,,,,,,,,,,,,,,,,,,,,
,,,,,SPR24_038,19,Male,2024-04-11_15h01.47.049,jersey_experiment_5_v0,2023.2.2,Win32,84.74576271,,,,,,,,,,,,,,,,908.3541,909.6478,909.6478,910.3204,return,0.155,,96.35416667,,,,,,FBP-YG-91.png,0.43,1.2,29,0.5,,,,,,,,,,,,,,,,,,0,16,16,28,1,,,,,,,,,,,,,,,,,,,,,,,
,,,,,SPR24_038,19,Male,2024-04-11_15h01.47.049,jersey_experiment_5_v0,2023.2.2,Win32,84.74576271,,,,,,,,,,,,,,,,910.3207,911.6139,911.6139,912.7033,return,0.3232,,86.45833333,,,,,,FBP-PT-91.png,0.4,1.2,58,0.5,,,,,,,,,,,,,,,,,,0,17,17,57,1,,,,,,,,,,,,,,,,,,,,,,,
,,,,,SPR24_038,19,Male,2024-04-11_15h01.47.049,jersey_experiment_5_v0,2023.2.2,Win32,84.74576271,,,,,,,,,,,,,,,,912.7035,913.7503,913.7503,915.7322,return,1.2714,,97.52604167,,,,,,FBP-OG-19.png,0.43,1.2,14,0.25,,,,,,,,,,,,,,,,,,0,18,18,13,1,,,,,,,,,,,,,,,,,,,,,,,
,,,,,SPR24_038,19,Male,2024-04-11_15h01.47.049,jersey_experiment_5_v0,2023.2.2,Win32,84.74576271,,,,,,,,,,,,,,,,915.7325,917.0365,917.0365,918.3506,return,0.3004,,98.56770833,,,,,,FBP-YG-81.png,0.43,1.2,24,0.5,,,,,,,,,,,,,,,,,,0,19,19,23,1,,,,,,,,,,,,,,,,,,,,,,,
,,,,,SPR24_038,19,Male,2024-04-11_15h01.47.049,jersey_experiment_5_v0,2023.2.2,Win32,84.74576271,,,,,,,,,,,,,,,,918.3508,919.3975,919.3975,920.7203,return,0.0606,,35.67708333,,,,,,FBP-OG-18.png,0.37,1.2,7,0.25,,,,,,,,,,,,,,,,,,0,20,20,6,1,,,,,,,,,,,,,,,,,,,,,,,
,,,,,SPR24_038,19,Male,2024-04-11_15h01.47.049,jersey_experiment_5_v0,2023.2.2,Win32,84.74576271,,,,,,,,,,,,,,,,920.7205,921.7659,921.7659,922.4143,return,0.071,,100,,,,,,FBP-RB-71.png,0.45,1.2,35,0.25,,,,,,,,,,,,,,,,,,0,21,21,34,1,,,,,,,,,,,,,,,,,,,,,,,
,,,,,SPR24_038,19,Male,2024-04-11_15h01.47.049,jersey_experiment_5_v0,2023.2.2,Win32,84.74576271,,,,,,,,,,,,,,,,922.4145,923.7191,923.7192,925.6449,return,0.0429,,100,,,,,,FBP-PT-71.png,0.45,1.2,50,0.5,,,,,,,,,,,,,,,,,,0,22,22,49,1,,,,,,,,,,,,,,,,,,,,,,,
,,,,,SPR24_038,19,Male,2024-04-11_15h01.47.049,jersey_experiment_5_v0,2023.2.2,Win32,84.74576271,,,,,,,,,,,,,,,,925.6451,926.697,926.697,927.5911,return,0.0366,,100,,,,,,FBP-OG-19.png,0.45,1.2,15,0.25,,,,,,,,,,,,,,,,,,0,23,23,14,1,,,,,,,,,,,,,,,,,,,,,,,
,,,,,SPR24_038,19,Male,2024-04-11_15h01.47.049,jersey_experiment_5_v0,2023.2.2,Win32,84.74576271,,,,,,,,,,,,,,,,927.5914,928.6332,928.6332,929.591,return,0.2591,,49.21875,,,,,,FBP-RB-71.png,0.37,1.2,32,0.25,,,,,,,,,,,,,,,,,,0,24,24,31,1,,,,,,,,,,,,,,,,,,,,,,,
,,,,,SPR24_038,19,Male,2024-04-11_15h01.47.049,jersey_experiment_5_v0,2023.2.2,Win32,84.74576271,,,,,,,,,,,,,,,,929.5913,930.8856,930.8856,931.3086,return,0.1545,,49.34895833,,,,,,FBP-YG-71.png,0.4,1.2,18,0.5,,,,,,,,,,,,,,,,,,0,25,25,17,1,,,,,,,,,,,,,,,,,,,,,,,
,,,,,SPR24_038,19,Male,2024-04-11_15h01.47.049,jersey_experiment_5_v0,2023.2.2,Win32,84.74576271,,,,,,,,,,,,,,,,931.3088,932.6098,932.6099,933.104,return,0.1578,,49.34895833,,,,,,FBP-PT-81.png,0.43,1.2,54,0.5,,,,,,,,,,,,,,,,,,0,26,26,53,1,,,,,,,,,,,,,,,,,,,,,,,
,,,,,SPR24_038,19,Male,2024-04-11_15h01.47.049,jersey_experiment_5_v0,2023.2.2,Win32,84.74576271,,,,,,,,,,,,,,,,933.1042,934.1552,934.1553,935.4099,return,0.0847,,41.14583333,,,,,,FBP-RB-71.png,0.4,1.2,33,0.25,,,,,,,,,,,,,,,,,,0,27,27,32,1,,,,,,,,,,,,,,,,,,,,,,,
,,,,,SPR24_038,19,Male,2024-04-11_15h01.47.049,jersey_experiment_5_v0,2023.2.2,Win32,84.74576271,,,,,,,,,,,,,,,,935.4102,936.7075,936.7075,937.4607,return,0.105,,25.26041667,,,,,,FBP-PT-91.png,0.35,1.2,56,0.5,,,,,,,,,,,,,,,,,,0,28,28,55,1,,,,,,,,,,,,,,,,,,,,,,,
,,,,,SPR24_038,19,Male,2024-04-11_15h01.47.049,jersey_experiment_5_v0,2023.2.2,Win32,84.74576271,,,,,,,,,,,,,,,,937.4609,938.5041,938.5041,939.8974,return,0.0708,,95.18229167,,,,,,FBP-RB-81.png,0.45,1.2,40,0.25,,,,,,,,,,,,,,,,,,0,29,29,39,1,,,,,,,,,,,,,,,,,,,,,,,
,,,,,SPR24_038,19,Male,2024-04-11_15h01.47.049,jersey_experiment_5_v0,2023.2.2,Win32,84.74576271,,,,,,,,,,,,,,,,939.8975,941.202,941.202,942.2269,return,0.0943,,78.64583333,,,,,,FBP-YG-91.png,0.4,1.2,28,0.5,,,,,,,,,,,,,,,,,,0,30,30,27,1,,,,,,,,,,,,,,,,,,,,,,,
,,,,,SPR24_038,19,Male,2024-04-11_15h01.47.049,jersey_experiment_5_v0,2023.2.2,Win32,84.74576271,,,,,,,,,,,,,,,,942.227,943.5203,943.5203,944.062,return,0.2482,,83.07291667,,,,,,FBP-PT-71.png,0.4,1.2,48,0.5,,,,,,,,,,,,,,,,,,0,31,31,47,1,,,,,,,,,,,,,,,,,,,,,,,
,,,,,SPR24_038,19,Male,2024-04-11_15h01.47.049,jersey_experiment_5_v0,2023.2.2,Win32,84.74576271,,,,,,,,,,,,,,,,944.0621,945.3568,945.3568,946.0157,return,0.3771,,89.19270833,,,,,,FBP-YG-81.png,0.45,1.2,25,0.5,,,,,,,,,,,,,,,,,,0,32,32,24,1,,,,,,,,,,,,,,,,,,,,,,,
,,,,,SPR24_038,19,Male,2024-04-11_15h01.47.049,jersey_experiment_5_v0,2023.2.2,Win32,84.74576271,,,,,,,,,,,,,,,,946.0159,947.3164,947.3164,949.2625,return,0.2123,,72.91666667,,,,,,FBP-PT-81.png,0.4,1.2,53,0.5,,,,,,,,,,,,,,,,,,0,33,33,52,1,,,,,,,,,,,,,,,,,,,,,,,
,,,,,SPR24_038,19,Male,2024-04-11_15h01.47.049,jersey_experiment_5_v0,2023.2.2,Win32,84.74576271,,,,,,,,,,,,,,,,949.2627,950.3081,950.3081,951.074,return,0.0473,,23.69791667,,,,,,FBP-OG-18.png,0.35,1.2,6,0.25,,,,,,,,,,,,,,,,,,0,34,34,5,1,,,,,,,,,,,,,,,,,,,,,,,
,,,,,SPR24_038,19,Male,2024-04-11_15h01.47.049,jersey_experiment_5_v0,2023.2.2,Win32,84.74576271,,,,,,,,,,,,,,,,951.0742,952.1165,952.1165,953.4694,return,0.1117,,73.4375,,,,,,FBP-OG-18.png,0.4,1.2,8,0.25,,,,,,,,,,,,,,,,,,0,35,35,7,1,,,,,,,,,,,,,,,,,,,,,,,
,,,,,SPR24_038,19,Male,2024-04-11_15h01.47.049,jersey_experiment_5_v0,2023.2.2,Win32,84.74576271,,,,,,,,,,,,,,,,953.4696,954.7636,954.7636,955.5452,return,0.0473,,24.73958333,,,,,,FBP-YG-81.png,0.35,1.2,21,0.5,,,,,,,,,,,,,,,,,,0,36,36,20,1,,,,,,,,,,,,,,,,,,,,,,,
,,,,,SPR24_038,19,Male,2024-04-11_15h01.47.049,jersey_experiment_5_v0,2023.2.2,Win32,84.74576271,,,,,,,,,,,,,,,,955.5454,956.5903,956.5903,957.3434,return,0.0473,,90.625,,,,,,FBP-OG-19.png,0.4,1.2,13,0.25,,,,,,,,,,,,,,,,,,0,37,37,12,1,,,,,,,,,,,,,,,,,,,,,,,
,,,,,SPR24_038,19,Male,2024-04-11_15h01.47.049,jersey_experiment_5_v0,2023.2.2,Win32,84.74576271,,,,,,,,,,,,,,,,957.3435,958.3872,958.3873,989.4754,return,1.1662,,49.609375,,,,,,FBP-OG-17.png,0.4,1.2,3,0.25,,,,,,,,,,,,,,,,,,0,38,38,2,1,,,,,,,,,,,,,,,,,,,,,,,
,,,,,SPR24_038,19,Male,2024-04-11_15h01.47.049,jersey_experiment_5_v0,2023.2.2,Win32,84.74576271,,,,,,,,,,,,,,,,989.4756,990.5178,990.5178,1001.471,return,2.1702,,49.47916667,,,,,,FBP-RB-81.png,0.4,1.2,38,0.25,,,,,,,,,,,,,,,,,,0,39,39,37,1,,,,,,,,,,,,,,,,,,,,,,,
,,,,,SPR24_038,19,Male,2024-04-11_15h01.47.049,jersey_experiment_5_v0,2023.2.2,Win32,84.74576271,,,,,,,,,,,,,,,,1001.4713,1002.5216,1002.5216,1003.4242,return,0.075,,93.88020833,,,,,,FBP-OG-17.png,0.45,1.2,5,0.25,,,,,,,,,,,,,,,,,,0,40,40,4,1,,,,,,,,,,,,,,,,,,,,,,,
,,,,,SPR24_038,19,Male,2024-04-11_15h01.47.049,jersey_experiment_5_v0,2023.2.2,Win32,84.74576271,,,,,,,,,,,,,,,,1003.4244,1004.723,1004.723,1005.2878,return,0.0602,,86.06770833,,,,,,FBP-PT-81.png,0.45,1.2,55,0.5,,,,,,,,,,,,,,,,,,0,41,41,54,1,,,,,,,,,,,,,,,,,,,,,,,
,,,,,SPR24_038,19,Male,2024-04-11_15h01.47.049,jersey_experiment_5_v0,2023.2.2,Win32,84.74576271,,,,,,,,,,,,,,,,1005.288,1006.3334,1006.3335,1006.6242,return,0.075,,85.80729167,,,,,,FBP-OG-18.png,0.43,1.2,9,0.25,,,,,,,,,,,,,,,,,,0,42,42,8,1,,,,,,,,,,,,,,,,,,,,,,,
,,,,,SPR24_038,19,Male,2024-04-11_15h01.47.049,jersey_experiment_5_v0,2023.2.2,Win32,84.74576271,,,,,,,,,,,,,,,,1006.6244,1007.6714,1007.6715,1010.0513,return,0.4944,,74.73958333,,,,,,FBP-RB-91.png,0.4,1.2,43,0.25,,,,,,,,,,,,,,,,,,0,43,43,42,1,,,,,,,,,,,,,,,,,,,,,,,
,,,,,SPR24_038,19,Male,2024-04-11_15h01.47.049,jersey_experiment_5_v0,2023.2.2,Win32,84.74576271,,,,,,,,,,,,,,,,1010.0514,1011.0996,1011.0996,1011.9573,return,0.4003,,74.73958333,,,,,,FBP-OG-17.png,0.43,1.2,4,0.25,,,,,,,,,,,,,,,,,,0,44,44,3,1,,,,,,,,,,,,,,,,,,,,,,,
,,,,,SPR24_038,19,Male,2024-04-11_15h01.47.049,jersey_experiment_5_v0,2023.2.2,Win32,84.74576271,,,,,,,,,,,,,,,,1011.9575,1013.0008,1013.0008,1013.6516,return,0.0579,,91.53645833,,,,,,FBP-RB-91.png,0.45,1.2,45,0.25,,,,,,,,,,,,,,,,,,0,45,45,44,1,,,,,,,,,,,,,,,,,,,,,,,
,,,,,SPR24_038,19,Male,2024-04-11_15h01.47.049,jersey_experiment_5_v0,2023.2.2,Win32,84.74576271,,,,,,,,,,,,,,,,1013.6519,1014.9592,1014.9592,1015.7928,return,0.1886,,11.71875,,,,,,FBP-YG-71.png,0.35,1.2,16,0.5,,,,,,,,,,,,,,,,,,0,46,46,15,1,,,,,,,,,,,,,,,,,,,,,,,
,,,,,SPR24_038,19,Male,2024-04-11_15h01.47.049,jersey_experiment_5_v0,2023.2.2,Win32,84.74576271,,,,,,,,,,,,,,,,1015.793,1016.8364,1016.8364,1017.3118,return,0.037,,8.984375,,,,,,FBP-RB-71.png,0.35,1.2,31,0.25,,,,,,,,,,,,,,,,,,0,47,47,30,1,,,,,,,,,,,,,,,,,,,,,,,
,,,,,SPR24_038,19,Male,2024-04-11_15h01.47.049,jersey_experiment_5_v0,2023.2.2,Win32,84.74576271,,,,,,,,,,,,,,,,1017.312,1018.606,1018.606,1019.5187,return,0.4766,,28.25520833,,,,,,FBP-PT-91.png,0.37,1.2,57,0.5,,,,,,,,,,,,,,,,,,0,48,48,56,1,,,,,,,,,,,,,,,,,,,,,,,
,,,,,SPR24_038,19,Male,2024-04-11_15h01.47.049,jersey_experiment_5_v0,2023.2.2,Win32,84.74576271,,,,,,,,,,,,,,,,1019.5189,1020.5659,1020.566,1021.0164,return,0.0944,,26.82291667,,,,,,FBP-RB-91.png,0.35,1.2,41,0.25,,,,,,,,,,,,,,,,,,0,49,49,40,1,,,,,,,,,,,,,,,,,,,,,,,
,,,,,SPR24_038,19,Male,2024-04-11_15h01.47.049,jersey_experiment_5_v0,2023.2.2,Win32,84.74576271,,,,,,,,,,,,,,,,1021.0166,1022.3237,1022.3237,1023.107,return,0.0004,,42.31770833,,,,,,FBP-YG-91.png,0.37,1.2,27,0.5,,,,,,,,,,,,,,,,,,0,50,50,26,1,,,,,,,,,,,,,,,,,,,,,,,
,,,,,SPR24_038,19,Male,2024-04-11_15h01.47.049,jersey_experiment_5_v0,2023.2.2,Win32,84.74576271,,,,,,,,,,,,,,,,1023.1072,1024.4046,1024.4046,1024.9896,return,0.0656,,60.41666667,,,,,,FBP-YG-91.png,0.45,1.2,30,0.5,,,,,,,,,,,,,,,,,,0,51,51,29,1,,,,,,,,,,,,,,,,,,,,,,,
,,,,,SPR24_038,19,Male,2024-04-11_15h01.47.049,jersey_experiment_5_v0,2023.2.2,Win32,84.74576271,,,,,,,,,,,,,,,,1024.9898,1026.2837,1026.2837,1026.7812,return,0.0344,,65.234375,,,,,,FBP-YG-71.png,0.43,1.2,19,0.5,,,,,,,,,,,,,,,,,,0,52,52,18,1,,,,,,,,,,,,,,,,,,,,,,,
,,,,,SPR24_038,19,Male,2024-04-11_15h01.47.049,jersey_experiment_5_v0,2023.2.2,Win32,84.74576271,,,,,,,,,,,,,,,,1026.7813,1027.8248,1027.8249,1028.5427,return,0.0281,,80.72916667,,,,,,FBP-OG-18.png,0.45,1.2,10,0.25,,,,,,,,,,,,,,,,,,0,53,53,9,1,,,,,,,,,,,,,,,,,,,,,,,
,,,,,SPR24_038,19,Male,2024-04-11_15h01.47.049,jersey_experiment_5_v0,2023.2.2,Win32,84.74576271,,,,,,,,,,,,,,,,1028.5429,1029.5897,1029.5897,1030.9428,return,0.1589,,26.30208333,,,,,,FBP-OG-17.png,0.37,1.2,2,0.25,,,,,,,,,,,,,,,,,,0,54,54,1,1,,,,,,,,,,,,,,,,,,,,,,,
,,,,,SPR24_038,19,Male,2024-04-11_15h01.47.049,jersey_experiment_5_v0,2023.2.2,Win32,84.74576271,,,,,,,,,,,,,,,,1030.943,1032.2367,1032.2368,1033.1711,return,0.037,,26.04166667,,,,,,FBP-YG-91.png,0.35,1.2,26,0.5,,,,,,,,,,,,,,,,,,0,55,55,25,1,,,,,,,,,,,,,,,,,,,,,,,
,,,,,SPR24_038,19,Male,2024-04-11_15h01.47.049,jersey_experiment_5_v0,2023.2.2,Win32,84.74576271,,,,,,,,,,,,,,,,1033.1714,1034.2134,1034.2135,1034.8887,return,0.0706,,43.09895833,,,,,,FBP-RB-91.png,0.37,1.2,42,0.25,,,,,,,,,,,,,,,,,,0,56,56,41,1,,,,,,,,,,,,,,,,,,,,,,,
,,,,,SPR24_038,19,Male,2024-04-11_15h01.47.049,jersey_experiment_5_v0,2023.2.2,Win32,84.74576271,,,,,,,,,,,,,,,,1034.8889,1036.1828,1036.1828,1036.7714,return,0.084,,59.375,,,,,,FBP-PT-71.png,0.43,1.2,49,0.5,,,,,,,,,,,,,,,,,,0,57,57,48,1,,,,,,,,,,,,,,,,,,,,,,,
,,,,,SPR24_038,19,Male,2024-04-11_15h01.47.049,jersey_experiment_5_v0,2023.2.2,Win32,84.74576271,,,,,,,,,,,,,,,,1036.7716,1038.0724,1038.0725,1038.6773,return,0.1077,,67.31770833,,,,,,FBP-YG-71.png,0.45,1.2,20,0.5,,,,,,,,,,,,,,,,,,0,58,58,19,1,,,,,,,,,,,,,,,,,,,,,,,
,,,,,SPR24_038,19,Male,2024-04-11_15h01.47.049,jersey_experiment_5_v0,2023.2.2,Win32,84.74576271,,,,,,,,,,,,,,,,1038.6774,1039.7196,1039.7196,1040.583,return,0.0469,,52.47395833,,,,,,FBP-RB-81.png,0.35,1.2,36,0.25,,,,,,,,,,,,,,,,,,0,59,59,35,1,,,,,,,,,,,,,,,,,,,,,,,
,,,,,SPR24_038,19,Male,2024-04-11_15h01.47.049,jersey_experiment_5_v0,2023.2.2,Win32,84.74576271,,,,,,,,,,,,,,,,,,,,,,,,,,,,,,,,,,,,,,,,,,,,,,,,,,,,,,,,1040.5833,1045.2188,return,4.6252,,,,,,,,,,,,,,,,,,,
,,,,,SPR24_038,19,Male,2024-04-11_15h01.47.049,jersey_experiment_5_v0,2023.2.2,Win32,84.74576271,,,,,,,,,,,,,,,,,,,,,,,,,,,,,,,,,,,,,,,,,,,,,,,,,,,,,,,,,,,,,1045.2189,1050.2075,1,4.241,return,0.7297,,,,,,,,,,,,
,,,,,SPR24_038,19,Male,2024-04-11_15h01.47.049,jersey_experiment_5_v0,2023.2.2,Win32,84.74576271,,,,,,,,,,,,,,,,,,,,,,,,,,,,,,,,,,,,,,,,,,,,,,,,,,,,,,,,,,,,,,,,,,,,1050.2075,1300.3386,"I think that this study could be about a lot of things. I if was recorded in conjunction with the computer analysis, really anything could be measured to reasonable serve as a predictor of anything else. However, since I was rating relative ""huskiness"" of football players, it probably has to do something with width. Because there were different skin colors there may be a test to see if there is a bias towards one skin color for a particular rating or not. I did not see really any patterns in the experiment other than that which I manufactured for myself. For example, for a while I saw a skinny guy always followed by a fat guy, but then I saw brown and white alternating skin colors... I think that there may have been some sort of color and size perception pattern going on, though I am not sure as I placed my fingers on the screen (while still looking at the cross) to see if that would give me a constant to which I could relatively compare.",right,245.0203,,,,,,
,,,,,SPR24_038,19,Male,2024-04-11_15h01.47.049,jersey_experiment_5_v0,2023.2.2,Win32,84.74576271,,,,,,,,,,,,,,,,,,,,,,,,,,,,,,,,,,,,,,,,,,,,,,,,,,,,,,,,,,,,,,,,,,,,,,,,,,1300.3387,1304.0751,return,3.7311,