requirements.started,requirements.stopped,key_resp_3.keys,key_resp_3.rt,key_resp_3.duration,Subject ID,Age,Gender,date,expName,psychopyVersion,OS,frameRate,instructions1.started,instructions1.stopped,key_resp.keys,key_resp.rt,key_resp.duration,example.started,example.stopped,enter_2.keys,enter_2.rt,enter_2.duration,instructions2.started,instructions2.stopped,enter_3.keys,enter_3.rt,enter_3.duration,image.started,image.stopped,slider_2.started,slider_2.stopped,next.keys,next.rt,next.duration,slider.response,trial_block_1.thisRepN,trial_block_1.thisTrialN,trial_block_1.thisN,trial_block_1.thisIndex,trial_block_1.ran,Path,Width,Height,Index,Duration,trial_block_2.thisRepN,trial_block_2.thisTrialN,trial_block_2.thisN,trial_block_2.thisIndex,trial_block_2.ran,rest_break.started,rest_break.stopped,end_break.started,end_break.stopped,key_resp_5.keys,key_resp_5.rt,key_resp_5.duration,trial_block_3.thisRepN,trial_block_3.thisTrialN,trial_block_3.thisN,trial_block_3.thisIndex,trial_block_3.ran,trial_block_4.thisRepN,trial_block_4.thisTrialN,trial_block_4.thisN,trial_block_4.thisIndex,trial_block_4.ran,questions_intro.started,questions_intro.stopped,enter_12.keys,enter_12.rt,enter_12.duration,question2.started,question2.stopped,question_doingbest.response,question_doingbest.rt,enter_15.keys,enter_15.rt,enter_15.duration,pattern.started,pattern.stopped,pattern_2.text,enter_17.keys,enter_17.rt,enter_17.duration,thankyou.started,thankyou.stopped,enter_14.keys,enter_14.rt,enter_14.duration
9.99999E-05,11.5054,return,11.4954,,SPR24_010,20,Female,2024-04-08_10h34.04.958,jersey_experiment_5_v0,2023.2.2,Win32,85.47008547,,,,,,,,,,,,,,,,,,,,,,,,,,,,,,,,,,,,,,,,,,,,,,,,,,,,,,,,,,,,,,,,,,,,,,,,,,,,,,
,,,,,SPR24_010,20,Female,2024-04-08_10h34.04.958,jersey_experiment_5_v0,2023.2.2,Win32,85.47008547,11.5055,20.4351,return,8.9076,,,,,,,,,,,,,,,,,,,,,,,,,,,,,,,,,,,,,,,,,,,,,,,,,,,,,,,,,,,,,,,,,,,,,,,,,,
,,,,,SPR24_010,20,Female,2024-04-08_10h34.04.958,jersey_experiment_5_v0,2023.2.2,Win32,85.47008547,,,,,,20.4352,25.6857,return,5.2168,,,,,,,,,,,,,,,,,,,,,,,,,,,,,,,,,,,,,,,,,,,,,,,,,,,,,,,,,,,,,,,,,,,,,
,,,,,SPR24_010,20,Female,2024-04-08_10h34.04.958,jersey_experiment_5_v0,2023.2.2,Win32,85.47008547,,,,,,,,,,,25.6858,51.7656,return,26.0584,,,,,,,,,,,,,,,,,,,,,,,,,,,,,,,,,,,,,,,,,,,,,,,,,,,,,,,,,,,,,,,,
,,,,,SPR24_010,20,Female,2024-04-08_10h34.04.958,jersey_experiment_5_v0,2023.2.2,Win32,85.47008547,,,,,,,,,,,,,,,,51.7725,52.8288,52.829,64.4012,return,2.144,,31.38020833,0,0,0,55,1,FBP-PT-19.png,0.35,1.2,56,0.25,,,,,,,,,,,,,,,,,,,,,,,,,,,,,,,,,,,,,,,,,,,,,
,,,,,SPR24_010,20,Female,2024-04-08_10h34.04.958,jersey_experiment_5_v0,2023.2.2,Win32,85.47008547,,,,,,,,,,,,,,,,64.4016,65.6952,65.6952,74.2602,return,1.9061,,60.67708333,0,1,1,0,1,FBP-OG-71.png,0.35,1.2,1,0.5,,,,,,,,,,,,,,,,,,,,,,,,,,,,,,,,,,,,,,,,,,,,,
,,,,,SPR24_010,20,Female,2024-04-08_10h34.04.958,jersey_experiment_5_v0,2023.2.2,Win32,85.47008547,,,,,,,,,,,,,,,,74.2604,75.3073,75.3074,82.4371,return,1.7892,,61.84895833,0,2,2,15,1,FBP-YG-17.png,0.35,1.2,16,0.25,,,,,,,,,,,,,,,,,,,,,,,,,,,,,,,,,,,,,,,,,,,,,
,,,,,SPR24_010,20,Female,2024-04-08_10h34.04.958,jersey_experiment_5_v0,2023.2.2,Win32,85.47008547,,,,,,,,,,,,,,,,82.4374,83.484,83.4841,89.6136,return,0.7716,,70.3125,0,3,3,45,1,FBP-PT-17.png,0.35,1.2,46,0.25,,,,,,,,,,,,,,,,,,,,,,,,,,,,,,,,,,,,,,,,,,,,,
,,,,,SPR24_010,20,Female,2024-04-08_10h34.04.958,jersey_experiment_5_v0,2023.2.2,Win32,85.47008547,,,,,,,,,,,,,,,,89.6139,90.6607,90.6608,95.4844,return,1.2189,,70.57291667,0,4,4,27,1,FBP-YG-19.png,0.4,1.2,28,0.25,,,,,,,,,,,,,,,,,,,,,,,,,,,,,,,,,,,,,,,,,,,,,
,,,,,SPR24_010,20,Female,2024-04-08_10h34.04.958,jersey_experiment_5_v0,2023.2.2,Win32,85.47008547,,,,,,,,,,,,,,,,95.4847,96.7787,96.7787,100.2259,return,1.1308,,80.33854167,0,5,5,13,1,FBP-OG-91.png,0.43,1.2,14,0.5,,,,,,,,,,,,,,,,,,,,,,,,,,,,,,,,,,,,,,,,,,,,,
,,,,,SPR24_010,20,Female,2024-04-08_10h34.04.958,jersey_experiment_5_v0,2023.2.2,Win32,85.47008547,,,,,,,,,,,,,,,,100.2262,101.2729,101.2729,106.085,return,1.318,,68.75,0,6,6,21,1,FBP-YG-18.png,0.37,1.2,22,0.25,,,,,,,,,,,,,,,,,,,,,,,,,,,,,,,,,,,,,,,,,,,,,
,,,,,SPR24_010,20,Female,2024-04-08_10h34.04.958,jersey_experiment_5_v0,2023.2.2,Win32,85.47008547,,,,,,,,,,,,,,,,106.0851,107.3791,107.3791,110.9791,return,0.6723,,84.11458333,0,7,7,9,1,FBP-OG-81.png,0.45,1.2,10,0.5,,,,,,,,,,,,,,,,,,,,,,,,,,,,,,,,,,,,,,,,,,,,,
,,,,,SPR24_010,20,Female,2024-04-08_10h34.04.958,jersey_experiment_5_v0,2023.2.2,Win32,85.47008547,,,,,,,,,,,,,,,,110.9793,112.2733,112.2735,115.4735,return,1.0506,,70.57291667,0,8,8,40,1,FBP-RB-19.png,0.35,1.2,41,0.5,,,,,,,,,,,,,,,,,,,,,,,,,,,,,,,,,,,,,,,,,,,,,
,,,,,SPR24_010,20,Female,2024-04-08_10h34.04.958,jersey_experiment_5_v0,2023.2.2,Win32,85.47008547,,,,,,,,,,,,,,,,115.4736,116.7677,116.7677,119.8384,return,0.8303,,88.15104167,0,9,9,3,1,FBP-OG-71.png,0.43,1.2,4,0.5,,,,,,,,,,,,,,,,,,,,,,,,,,,,,,,,,,,,,,,,,,,,,
,,,,,SPR24_010,20,Female,2024-04-08_10h34.04.958,jersey_experiment_5_v0,2023.2.2,Win32,85.47008547,,,,,,,,,,,,,,,,119.8386,120.8855,120.8855,124.2268,return,1.0255,,84.11458333,0,10,10,24,1,FBP-YG-18.png,0.45,1.2,25,0.25,,,,,,,,,,,,,,,,,,,,,,,,,,,,,,,,,,,,,,,,,,,,,
,,,,,SPR24_010,20,Female,2024-04-08_10h34.04.958,jersey_experiment_5_v0,2023.2.2,Win32,85.47008547,,,,,,,,,,,,,,,,124.227,125.5209,125.5209,133.8388,return,5.5696,,81.640625,0,11,11,37,1,FBP-RB-18.png,0.4,1.2,38,0.5,,,,,,,,,,,,,,,,,,,,,,,,,,,,,,,,,,,,,,,,,,,,,
,,,,,SPR24_010,20,Female,2024-04-08_10h34.04.958,jersey_experiment_5_v0,2023.2.2,Win32,85.47008547,,,,,,,,,,,,,,,,133.8391,134.886,134.886,137.3803,return,1.1062,,85.546875,0,12,12,22,1,FBP-YG-18.png,0.4,1.2,23,0.25,,,,,,,,,,,,,,,,,,,,,,,,,,,,,,,,,,,,,,,,,,,,,
,,,,,SPR24_010,20,Female,2024-04-08_10h34.04.958,jersey_experiment_5_v0,2023.2.2,Win32,85.47008547,,,,,,,,,,,,,,,,137.3805,138.4273,138.4273,142.2391,return,1.4174,,50,0,13,13,50,1,FBP-PT-18.png,0.35,1.2,51,0.25,,,,,,,,,,,,,,,,,,,,,,,,,,,,,,,,,,,,,,,,,,,,,
,,,,,SPR24_010,20,Female,2024-04-08_10h34.04.958,jersey_experiment_5_v0,2023.2.2,Win32,85.47008547,,,,,,,,,,,,,,,,142.2394,143.5333,143.5333,145.6157,return,0.9909,,55.33854167,0,14,14,5,1,FBP-OG-81.png,0.35,1.2,6,0.5,,,,,,,,,,,,,,,,,,,,,,,,,,,,,,,,,,,,,,,,,,,,,
,,,,,SPR24_010,20,Female,2024-04-08_10h34.04.958,jersey_experiment_5_v0,2023.2.2,Win32,85.47008547,,,,,,,,,,,,,,,,145.6161,146.6628,146.6629,150.0865,return,1.6961,,75,0,15,15,53,1,FBP-PT-18.png,0.43,1.2,54,0.25,,,,,,,,,,,,,,,,,,,,,,,,,,,,,,,,,,,,,,,,,,,,,
,,,,,SPR24_010,20,Female,2024-04-08_10h34.04.958,jersey_experiment_5_v0,2023.2.2,Win32,85.47008547,,,,,,,,,,,,,,,,150.0868,151.1336,151.1336,153.3455,return,0.7425,,81.25,0,16,16,54,1,FBP-PT-18.png,0.45,1.2,55,0.25,,,,,,,,,,,,,,,,,,,,,,,,,,,,,,,,,,,,,,,,,,,,,
,,,,,SPR24_010,20,Female,2024-04-08_10h34.04.958,jersey_experiment_5_v0,2023.2.2,Win32,85.47008547,,,,,,,,,,,,,,,,153.3457,154.3926,154.3926,156.9338,return,0.5074,,74.47916667,0,17,17,16,1,FBP-YG-17.png,0.37,1.2,17,0.25,,,,,,,,,,,,,,,,,,,,,,,,,,,,,,,,,,,,,,,,,,,,,
,,,,,SPR24_010,20,Female,2024-04-08_10h34.04.958,jersey_experiment_5_v0,2023.2.2,Win32,85.47008547,,,,,,,,,,,,,,,,156.934,157.9809,157.9809,160.828,return,0.6307,,70.83333333,0,18,18,25,1,FBP-YG-19.png,0.35,1.2,26,0.25,,,,,,,,,,,,,,,,,,,,,,,,,,,,,,,,,,,,,,,,,,,,,
,,,,,SPR24_010,20,Female,2024-04-08_10h34.04.958,jersey_experiment_5_v0,2023.2.2,Win32,85.47008547,,,,,,,,,,,,,,,,160.8282,162.1222,162.1223,165.9577,return,2.315,,86.06770833,0,19,19,34,1,FBP-RB-17.png,0.45,1.2,35,0.5,,,,,,,,,,,,,,,,,,,,,,,,,,,,,,,,,,,,,,,,,,,,,
,,,,,SPR24_010,20,Female,2024-04-08_10h34.04.958,jersey_experiment_5_v0,2023.2.2,Win32,85.47008547,,,,,,,,,,,,,,,,165.958,167.2518,167.2519,169.5108,return,0.518,,79.296875,0,20,20,32,1,FBP-RB-17.png,0.4,1.2,33,0.5,,,,,,,,,,,,,,,,,,,,,,,,,,,,,,,,,,,,,,,,,,,,,
,,,,,SPR24_010,20,Female,2024-04-08_10h34.04.958,jersey_experiment_5_v0,2023.2.2,Win32,85.47008547,,,,,,,,,,,,,,,,169.511,170.5579,170.5579,172.4638,return,0.652,,85.9375,0,21,21,28,1,FBP-YG-19.png,0.43,1.2,29,0.25,,,,,,,,,,,,,,,,,,,,,,,,,,,,,,,,,,,,,,,,,,,,,
,,,,,SPR24_010,20,Female,2024-04-08_10h34.04.958,jersey_experiment_5_v0,2023.2.2,Win32,85.47008547,,,,,,,,,,,,,,,,172.464,173.758,173.7581,177.5699,return,1.2856,,78.38541667,0,22,22,6,1,FBP-OG-81.png,0.37,1.2,7,0.5,,,,,,,,,,,,,,,,,,,,,,,,,,,,,,,,,,,,,,,,,,,,,
,,,,,SPR24_010,20,Female,2024-04-08_10h34.04.958,jersey_experiment_5_v0,2023.2.2,Win32,85.47008547,,,,,,,,,,,,,,,,177.5701,178.8641,178.8642,180.9936,return,0.8369,,91.40625,0,23,23,4,1,FBP-OG-71.png,0.45,1.2,5,0.5,,,,,,,,,,,,,,,,,,,,,,,,,,,,,,,,,,,,,,,,,,,,,
,,,,,SPR24_010,20,Female,2024-04-08_10h34.04.958,jersey_experiment_5_v0,2023.2.2,Win32,85.47008547,,,,,,,,,,,,,,,,180.9937,182.2876,182.2877,185.3114,return,0.3938,,81.77083333,0,24,24,42,1,FBP-RB-19.png,0.4,1.2,43,0.5,,,,,,,,,,,,,,,,,,,,,,,,,,,,,,,,,,,,,,,,,,,,,
,,,,,SPR24_010,20,Female,2024-04-08_10h34.04.958,jersey_experiment_5_v0,2023.2.2,Win32,85.47008547,,,,,,,,,,,,,,,,185.3117,186.3585,186.3585,188.4644,return,0.7795,,90.625,0,25,25,29,1,FBP-YG-19.png,0.45,1.2,30,0.25,,,,,,,,,,,,,,,,,,,,,,,,,,,,,,,,,,,,,,,,,,,,,
,,,,,SPR24_010,20,Female,2024-04-08_10h34.04.958,jersey_experiment_5_v0,2023.2.2,Win32,85.47008547,,,,,,,,,,,,,,,,188.4646,189.7586,189.7587,191.6528,return,0.5049,,84.50520833,0,26,26,7,1,FBP-OG-81.png,0.4,1.2,8,0.5,,,,,,,,,,,,,,,,,,,,,,,,,,,,,,,,,,,,,,,,,,,,,
,,,,,SPR24_010,20,Female,2024-04-08_10h34.04.958,jersey_experiment_5_v0,2023.2.2,Win32,85.47008547,,,,,,,,,,,,,,,,191.653,192.7,192.7,195.6764,return,0.489,,58.203125,0,27,27,26,1,FBP-YG-19.png,0.37,1.2,27,0.25,,,,,,,,,,,,,,,,,,,,,,,,,,,,,,,,,,,,,,,,,,,,,
,,,,,SPR24_010,20,Female,2024-04-08_10h34.04.958,jersey_experiment_5_v0,2023.2.2,Win32,85.47008547,,,,,,,,,,,,,,,,195.6766,196.7236,196.7237,198.5588,return,0.4751,,68.48958333,0,28,28,52,1,FBP-PT-18.png,0.4,1.2,53,0.25,,,,,,,,,,,,,,,,,,,,,,,,,,,,,,,,,,,,,,,,,,,,,
,,,,,SPR24_010,20,Female,2024-04-08_10h34.04.958,jersey_experiment_5_v0,2023.2.2,Win32,85.47008547,,,,,,,,,,,,,,,,198.559,199.8531,199.8532,202.0531,return,0.9178,,83.72395833,0,29,29,39,1,FBP-RB-18.png,0.45,1.2,40,0.5,,,,,,,,,,,,,,,,,,,,,,,,,,,,,,,,,,,,,,,,,,,,,
,,,,,SPR24_010,20,Female,2024-04-08_10h34.04.958,jersey_experiment_5_v0,2023.2.2,Win32,85.47008547,,,,,,,,,,,,,,,,202.0534,203.3473,203.3473,205.0768,return,0.3897,,70.57291667,0,30,30,41,1,FBP-RB-19.png,0.37,1.2,42,0.5,,,,,,,,,,,,,,,,,,,,,,,,,,,,,,,,,,,,,,,,,,,,,
,,,,,SPR24_010,20,Female,2024-04-08_10h34.04.958,jersey_experiment_5_v0,2023.2.2,Win32,85.47008547,,,,,,,,,,,,,,,,205.077,206.1238,206.1238,209.877,return,2.0368,,92.1875,0,31,31,59,1,FBP-PT-19.png,0.45,1.2,60,0.25,,,,,,,,,,,,,,,,,,,,,,,,,,,,,,,,,,,,,,,,,,,,,
,,,,,SPR24_010,20,Female,2024-04-08_10h34.04.958,jersey_experiment_5_v0,2023.2.2,Win32,85.47008547,,,,,,,,,,,,,,,,209.8773,210.9241,210.9241,213.8772,return,0.4481,,65.88541667,0,32,32,56,1,FBP-PT-19.png,0.37,1.2,57,0.25,,,,,,,,,,,,,,,,,,,,,,,,,,,,,,,,,,,,,,,,,,,,,
,,,,,SPR24_010,20,Female,2024-04-08_10h34.04.958,jersey_experiment_5_v0,2023.2.2,Win32,85.47008547,,,,,,,,,,,,,,,,213.8775,215.1713,215.1713,216.9832,return,0.3772,,82.03125,0,33,33,43,1,FBP-RB-19.png,0.43,1.2,44,0.5,,,,,,,,,,,,,,,,,,,,,,,,,,,,,,,,,,,,,,,,,,,,,
,,,,,SPR24_010,20,Female,2024-04-08_10h34.04.958,jersey_experiment_5_v0,2023.2.2,Win32,85.47008547,,,,,,,,,,,,,,,,216.9834,218.0302,218.0302,220.8303,return,1.1834,,85.41666667,0,34,34,47,1,FBP-PT-17.png,0.4,1.2,48,0.25,,,,,,,,,,,,,,,,,,,,,,,,,,,,,,,,,,,,,,,,,,,,,
,,,,,SPR24_010,20,Female,2024-04-08_10h34.04.958,jersey_experiment_5_v0,2023.2.2,Win32,85.47008547,,,,,,,,,,,,,,,,220.8305,222.1244,222.1245,224.9599,return,0.3465,,44.66145833,0,35,35,10,1,FBP-OG-91.png,0.35,1.2,11,0.5,,,,,,,,,,,,,,,,,,,,,,,,,,,,,,,,,,,,,,,,,,,,,
,,,,,SPR24_010,20,Female,2024-04-08_10h34.04.958,jersey_experiment_5_v0,2023.2.2,Win32,85.47008547,,,,,,,,,,,,,,,,224.9601,226.0068,226.0068,228.466,return,0.331,,70.18229167,0,36,36,58,1,FBP-PT-19.png,0.43,1.2,59,0.25,,,,,,,,,,,,,,,,,,,,,,,,,,,,,,,,,,,,,,,,,,,,,
,,,,,SPR24_010,20,Female,2024-04-08_10h34.04.958,jersey_experiment_5_v0,2023.2.2,Win32,85.47008547,,,,,,,,,,,,,,,,228.4662,229.7601,229.7601,231.666,return,0.2589,,73.95833333,0,37,37,12,1,FBP-OG-91.png,0.4,1.2,13,0.5,,,,,,,,,,,,,,,,,,,,,,,,,,,,,,,,,,,,,,,,,,,,,
,,,,,SPR24_010,20,Female,2024-04-08_10h34.04.958,jersey_experiment_5_v0,2023.2.2,Win32,85.47008547,,,,,,,,,,,,,,,,231.6663,232.9602,232.9602,234.9132,return,0.3317,,48.30729167,0,38,38,31,1,FBP-RB-17.png,0.37,1.2,32,0.5,,,,,,,,,,,,,,,,,,,,,,,,,,,,,,,,,,,,,,,,,,,,,
,,,,,SPR24_010,20,Female,2024-04-08_10h34.04.958,jersey_experiment_5_v0,2023.2.2,Win32,85.47008547,,,,,,,,,,,,,,,,234.9135,236.2074,236.2075,238.0309,return,0.6885,,75.390625,0,39,39,38,1,FBP-RB-18.png,0.43,1.2,39,0.5,,,,,,,,,,,,,,,,,,,,,,,,,,,,,,,,,,,,,,,,,,,,,
,,,,,SPR24_010,20,Female,2024-04-08_10h34.04.958,jersey_experiment_5_v0,2023.2.2,Win32,85.47008547,,,,,,,,,,,,,,,,238.0311,239.0781,239.0781,240.6782,return,0.2974,,81.77083333,0,40,40,23,1,FBP-YG-18.png,0.43,1.2,24,0.25,,,,,,,,,,,,,,,,,,,,,,,,,,,,,,,,,,,,,,,,,,,,,
,,,,,SPR24_010,20,Female,2024-04-08_10h34.04.958,jersey_experiment_5_v0,2023.2.2,Win32,85.47008547,,,,,,,,,,,,,,,,240.6784,241.7251,241.7251,243.5841,return,0.2635,,83.72395833,0,41,41,17,1,FBP-YG-17.png,0.4,1.2,18,0.25,,,,,,,,,,,,,,,,,,,,,,,,,,,,,,,,,,,,,,,,,,,,,
,,,,,SPR24_010,20,Female,2024-04-08_10h34.04.958,jersey_experiment_5_v0,2023.2.2,Win32,85.47008547,,,,,,,,,,,,,,,,243.5843,244.8782,244.8783,247.0784,return,0.4002,,92.05729167,0,42,42,8,1,FBP-OG-81.png,0.43,1.2,9,0.5,,,,,,,,,,,,,,,,,,,,,,,,,,,,,,,,,,,,,,,,,,,,,
,,,,,SPR24_010,20,Female,2024-04-08_10h34.04.958,jersey_experiment_5_v0,2023.2.2,Win32,85.47008547,,,,,,,,,,,,,,,,247.0787,248.3726,248.3726,250.6431,return,0.3165,,52.99479167,0,43,43,2,1,FBP-OG-71.png,0.4,1.2,3,0.5,,,,,,,,,,,,,,,,,,,,,,,,,,,,,,,,,,,,,,,,,,,,,
,,,,,SPR24_010,20,Female,2024-04-08_10h34.04.958,jersey_experiment_5_v0,2023.2.2,Win32,85.47008547,,,,,,,,,,,,,,,,250.6432,251.9373,251.9374,253.3609,return,0.322,,43.75,0,44,44,1,1,FBP-OG-71.png,0.37,1.2,2,0.5,,,,,,,,,,,,,,,,,,,,,,,,,,,,,,,,,,,,,,,,,,,,,
,,,,,SPR24_010,20,Female,2024-04-08_10h34.04.958,jersey_experiment_5_v0,2023.2.2,Win32,85.47008547,,,,,,,,,,,,,,,,253.3611,254.6551,254.6552,256.7493,return,0.3115,,73.4375,0,45,45,44,1,FBP-RB-19.png,0.45,1.2,45,0.5,,,,,,,,,,,,,,,,,,,,,,,,,,,,,,,,,,,,,,,,,,,,,
,,,,,SPR24_010,20,Female,2024-04-08_10h34.04.958,jersey_experiment_5_v0,2023.2.2,Win32,85.47008547,,,,,,,,,,,,,,,,256.7496,257.7964,257.7965,261.0905,return,1.3306,,88.671875,0,46,46,49,1,FBP-PT-17.png,0.45,1.2,50,0.25,,,,,,,,,,,,,,,,,,,,,,,,,,,,,,,,,,,,,,,,,,,,,
,,,,,SPR24_010,20,Female,2024-04-08_10h34.04.958,jersey_experiment_5_v0,2023.2.2,Win32,85.47008547,,,,,,,,,,,,,,,,261.0908,262.1377,262.1378,265.079,return,0.4241,,44.53125,0,47,47,46,1,FBP-PT-17.png,0.37,1.2,47,0.25,,,,,,,,,,,,,,,,,,,,,,,,,,,,,,,,,,,,,,,,,,,,,
,,,,,SPR24_010,20,Female,2024-04-08_10h34.04.958,jersey_experiment_5_v0,2023.2.2,Win32,85.47008547,,,,,,,,,,,,,,,,265.0793,266.1261,266.1261,268.7261,return,1.1998,,34.50520833,0,48,48,20,1,FBP-YG-18.png,0.35,1.2,21,0.25,,,,,,,,,,,,,,,,,,,,,,,,,,,,,,,,,,,,,,,,,,,,,
,,,,,SPR24_010,20,Female,2024-04-08_10h34.04.958,jersey_experiment_5_v0,2023.2.2,Win32,85.47008547,,,,,,,,,,,,,,,,268.7263,269.7732,269.7733,271.491,return,0.2228,,62.23958333,0,49,49,57,1,FBP-PT-19.png,0.4,1.2,58,0.25,,,,,,,,,,,,,,,,,,,,,,,,,,,,,,,,,,,,,,,,,,,,,
,,,,,SPR24_010,20,Female,2024-04-08_10h34.04.958,jersey_experiment_5_v0,2023.2.2,Win32,85.47008547,,,,,,,,,,,,,,,,271.4913,272.7852,272.7852,275.1383,return,1.2838,,81.640625,0,50,50,14,1,FBP-OG-91.png,0.45,1.2,15,0.5,,,,,,,,,,,,,,,,,,,,,,,,,,,,,,,,,,,,,,,,,,,,,
,,,,,SPR24_010,20,Female,2024-04-08_10h34.04.958,jersey_experiment_5_v0,2023.2.2,Win32,85.47008547,,,,,,,,,,,,,,,,275.1385,276.1853,276.1854,277.7147,return,0.3064,,89.97395833,0,51,51,18,1,FBP-YG-17.png,0.43,1.2,19,0.25,,,,,,,,,,,,,,,,,,,,,,,,,,,,,,,,,,,,,,,,,,,,,
,,,,,SPR24_010,20,Female,2024-04-08_10h34.04.958,jersey_experiment_5_v0,2023.2.2,Win32,85.47008547,,,,,,,,,,,,,,,,277.7151,279.009,279.009,282.1503,return,1.4351,,37.36979167,0,52,52,11,1,FBP-OG-91.png,0.37,1.2,12,0.5,,,,,,,,,,,,,,,,,,,,,,,,,,,,,,,,,,,,,,,,,,,,,
,,,,,SPR24_010,20,Female,2024-04-08_10h34.04.958,jersey_experiment_5_v0,2023.2.2,Win32,85.47008547,,,,,,,,,,,,,,,,282.1504,283.1974,283.1975,286.468,return,1.4356,,90.10416667,0,53,53,48,1,FBP-PT-17.png,0.43,1.2,49,0.25,,,,,,,,,,,,,,,,,,,,,,,,,,,,,,,,,,,,,,,,,,,,,
,,,,,SPR24_010,20,Female,2024-04-08_10h34.04.958,jersey_experiment_5_v0,2023.2.2,Win32,85.47008547,,,,,,,,,,,,,,,,286.4683,287.7623,287.7623,289.68,return,0.5316,,36.45833333,0,54,54,36,1,FBP-RB-18.png,0.37,1.2,37,0.5,,,,,,,,,,,,,,,,,,,,,,,,,,,,,,,,,,,,,,,,,,,,,
,,,,,SPR24_010,20,Female,2024-04-08_10h34.04.958,jersey_experiment_5_v0,2023.2.2,Win32,85.47008547,,,,,,,,,,,,,,,,289.6802,290.7271,290.7271,292.7977,return,1.0879,,35.9375,0,55,55,51,1,FBP-PT-18.png,0.37,1.2,52,0.25,,,,,,,,,,,,,,,,,,,,,,,,,,,,,,,,,,,,,,,,,,,,,
,,,,,SPR24_010,20,Female,2024-04-08_10h34.04.958,jersey_experiment_5_v0,2023.2.2,Win32,85.47008547,,,,,,,,,,,,,,,,292.7979,294.0919,294.0919,296.2683,return,0.2075,,74.609375,0,56,56,33,1,FBP-RB-17.png,0.43,1.2,34,0.5,,,,,,,,,,,,,,,,,,,,,,,,,,,,,,,,,,,,,,,,,,,,,
,,,,,SPR24_010,20,Female,2024-04-08_10h34.04.958,jersey_experiment_5_v0,2023.2.2,Win32,85.47008547,,,,,,,,,,,,,,,,296.2685,297.3155,297.3156,299.4097,return,0.2736,,88.54166667,0,57,57,19,1,FBP-YG-17.png,0.45,1.2,20,0.25,,,,,,,,,,,,,,,,,,,,,,,,,,,,,,,,,,,,,,,,,,,,,
,,,,,SPR24_010,20,Female,2024-04-08_10h34.04.958,jersey_experiment_5_v0,2023.2.2,Win32,85.47008547,,,,,,,,,,,,,,,,299.41,300.7038,300.7038,302.8688,return,0.2253,,28.64583333,0,58,58,35,1,FBP-RB-18.png,0.35,1.2,36,0.5,,,,,,,,,,,,,,,,,,,,,,,,,,,,,,,,,,,,,,,,,,,,,
,,,,,SPR24_010,20,Female,2024-04-08_10h34.04.958,jersey_experiment_5_v0,2023.2.2,Win32,85.47008547,,,,,,,,,,,,,,,,302.8691,304.1627,304.1628,307.8218,return,1.5227,,28.25520833,0,59,59,30,1,FBP-RB-17.png,0.35,1.2,31,0.5,,,,,,,,,,,,,,,,,,,,,,,,,,,,,,,,,,,,,,,,,,,,,
,,,,,SPR24_010,20,Female,2024-04-08_10h34.04.958,jersey_experiment_5_v0,2023.2.2,Win32,85.47008547,,,,,,,,,,,,,,,,307.8239,308.869,308.869,310.9631,return,0.2591,,36.328125,,,,,,FBP-YG-81.png,0.35,1.2,21,0.25,0,0,0,20,1,,,,,,,,,,,,,,,,,,,,,,,,,,,,,,,,,,,,,,,,
,,,,,SPR24_010,20,Female,2024-04-08_10h34.04.958,jersey_experiment_5_v0,2023.2.2,Win32,85.47008547,,,,,,,,,,,,,,,,310.9636,312.0102,312.0102,313.9514,return,0.2053,,63.54166667,,,,,,FBP-YG-91.png,0.45,1.2,30,0.25,0,1,1,29,1,,,,,,,,,,,,,,,,,,,,,,,,,,,,,,,,,,,,,,,,
,,,,,SPR24_010,20,Female,2024-04-08_10h34.04.958,jersey_experiment_5_v0,2023.2.2,Win32,85.47008547,,,,,,,,,,,,,,,,313.9517,314.9985,314.9986,318.1986,return,0.1885,,49.609375,,,,,,FBP-PT-71.png,0.35,1.2,46,0.25,0,2,2,45,1,,,,,,,,,,,,,,,,,,,,,,,,,,,,,,,,,,,,,,,,
,,,,,SPR24_010,20,Female,2024-04-08_10h34.04.958,jersey_experiment_5_v0,2023.2.2,Win32,85.47008547,,,,,,,,,,,,,,,,318.1989,319.2457,319.2457,321.4928,return,0.2121,,74.73958333,,,,,,FBP-YG-81.png,0.45,1.2,25,0.25,0,3,3,24,1,,,,,,,,,,,,,,,,,,,,,,,,,,,,,,,,,,,,,,,,
,,,,,SPR24_010,20,Female,2024-04-08_10h34.04.958,jersey_experiment_5_v0,2023.2.2,Win32,85.47008547,,,,,,,,,,,,,,,,321.493,322.787,322.787,326.0813,return,0.7431,,74.47916667,,,,,,FBP-OG-19.png,0.43,1.2,14,0.5,0,4,4,13,1,,,,,,,,,,,,,,,,,,,,,,,,,,,,,,,,,,,,,,,,
,,,,,SPR24_010,20,Female,2024-04-08_10h34.04.958,jersey_experiment_5_v0,2023.2.2,Win32,85.47008547,,,,,,,,,,,,,,,,326.0815,327.3754,327.3754,329.1402,return,0.4947,,50.13020833,,,,,,FBP-OG-19.png,0.35,1.2,11,0.5,0,5,5,10,1,,,,,,,,,,,,,,,,,,,,,,,,,,,,,,,,,,,,,,,,
,,,,,SPR24_010,20,Female,2024-04-08_10h34.04.958,jersey_experiment_5_v0,2023.2.2,Win32,85.47008547,,,,,,,,,,,,,,,,329.1405,330.4343,330.4343,332.3993,return,0.2396,,48.17708333,,,,,,FBP-RB-81.png,0.35,1.2,36,0.5,0,6,6,35,1,,,,,,,,,,,,,,,,,,,,,,,,,,,,,,,,,,,,,,,,
,,,,,SPR24_010,20,Female,2024-04-08_10h34.04.958,jersey_experiment_5_v0,2023.2.2,Win32,85.47008547,,,,,,,,,,,,,,,,332.3995,333.6933,333.6934,335.2933,return,0.1471,,75,,,,,,FBP-OG-17.png,0.43,1.2,4,0.5,0,7,7,3,1,,,,,,,,,,,,,,,,,,,,,,,,,,,,,,,,,,,,,,,,
,,,,,SPR24_010,20,Female,2024-04-08_10h34.04.958,jersey_experiment_5_v0,2023.2.2,Win32,85.47008547,,,,,,,,,,,,,,,,335.2936,336.5876,336.5876,337.7994,return,0.2352,,83.72395833,,,,,,FBP-OG-17.png,0.45,1.2,5,0.5,0,8,8,4,1,,,,,,,,,,,,,,,,,,,,,,,,,,,,,,,,,,,,,,,,
,,,,,SPR24_010,20,Female,2024-04-08_10h34.04.958,jersey_experiment_5_v0,2023.2.2,Win32,85.47008547,,,,,,,,,,,,,,,,337.7996,338.8467,338.8467,342.5995,return,0.3165,,48.046875,,,,,,FBP-PT-91.png,0.37,1.2,57,0.25,0,9,9,56,1,,,,,,,,,,,,,,,,,,,,,,,,,,,,,,,,,,,,,,,,
,,,,,SPR24_010,20,Female,2024-04-08_10h34.04.958,jersey_experiment_5_v0,2023.2.2,Win32,85.47008547,,,,,,,,,,,,,,,,342.5997,343.6466,343.6466,346.4232,return,0.7901,,46.35416667,,,,,,FBP-PT-81.png,0.35,1.2,51,0.25,0,10,10,50,1,,,,,,,,,,,,,,,,,,,,,,,,,,,,,,,,,,,,,,,,
,,,,,SPR24_010,20,Female,2024-04-08_10h34.04.958,jersey_experiment_5_v0,2023.2.2,Win32,85.47008547,,,,,,,,,,,,,,,,346.4235,347.7173,347.7174,349.2704,return,0.2109,,75,,,,,,FBP-RB-71.png,0.43,1.2,34,0.5,0,11,11,33,1,,,,,,,,,,,,,,,,,,,,,,,,,,,,,,,,,,,,,,,,
,,,,,SPR24_010,20,Female,2024-04-08_10h34.04.958,jersey_experiment_5_v0,2023.2.2,Win32,85.47008547,,,,,,,,,,,,,,,,349.2707,350.3175,350.3175,353.0118,return,0.1548,,49.86979167,,,,,,FBP-YG-91.png,0.35,1.2,26,0.25,0,12,12,25,1,,,,,,,,,,,,,,,,,,,,,,,,,,,,,,,,,,,,,,,,
,,,,,SPR24_010,20,Female,2024-04-08_10h34.04.958,jersey_experiment_5_v0,2023.2.2,Win32,85.47008547,,,,,,,,,,,,,,,,353.0119,354.3059,354.3059,356.1882,return,0.3366,,46.484375,,,,,,FBP-OG-17.png,0.35,1.2,1,0.5,0,13,13,0,1,,,,,,,,,,,,,,,,,,,,,,,,,,,,,,,,,,,,,,,,
,,,,,SPR24_010,20,Female,2024-04-08_10h34.04.958,jersey_experiment_5_v0,2023.2.2,Win32,85.47008547,,,,,,,,,,,,,,,,356.1884,357.2354,357.2354,358.9883,return,0.2184,,57.421875,,,,,,FBP-YG-91.png,0.4,1.2,28,0.25,0,14,14,27,1,,,,,,,,,,,,,,,,,,,,,,,,,,,,,,,,,,,,,,,,
,,,,,SPR24_010,20,Female,2024-04-08_10h34.04.958,jersey_experiment_5_v0,2023.2.2,Win32,85.47008547,,,,,,,,,,,,,,,,358.9886,360.0355,360.0355,361.9179,return,0.2425,,62.109375,,,,,,FBP-YG-81.png,0.4,1.2,23,0.25,0,15,15,22,1,,,,,,,,,,,,,,,,,,,,,,,,,,,,,,,,,,,,,,,,
,,,,,SPR24_010,20,Female,2024-04-08_10h34.04.958,jersey_experiment_5_v0,2023.2.2,Win32,85.47008547,,,,,,,,,,,,,,,,361.9181,363.212,363.2121,365.6004,return,0.1812,,60.67708333,,,,,,FBP-RB-91.png,0.37,1.2,42,0.5,0,16,16,41,1,,,,,,,,,,,,,,,,,,,,,,,,,,,,,,,,,,,,,,,,
,,,,,SPR24_010,20,Female,2024-04-08_10h34.04.958,jersey_experiment_5_v0,2023.2.2,Win32,85.47008547,,,,,,,,,,,,,,,,365.6006,366.8946,366.8946,368.4357,return,0.1897,,68.61979167,,,,,,FBP-RB-71.png,0.4,1.2,33,0.5,0,17,17,32,1,,,,,,,,,,,,,,,,,,,,,,,,,,,,,,,,,,,,,,,,
,,,,,SPR24_010,20,Female,2024-04-08_10h34.04.958,jersey_experiment_5_v0,2023.2.2,Win32,85.47008547,,,,,,,,,,,,,,,,368.4359,369.7299,369.73,371.4124,return,0.2591,,78.38541667,,,,,,FBP-OG-18.png,0.43,1.2,9,0.5,0,18,18,8,1,,,,,,,,,,,,,,,,,,,,,,,,,,,,,,,,,,,,,,,,
,,,,,SPR24_010,20,Female,2024-04-08_10h34.04.958,jersey_experiment_5_v0,2023.2.2,Win32,85.47008547,,,,,,,,,,,,,,,,371.4127,372.7065,372.7065,374.0359,return,0.2001,,82.55208333,,,,,,FBP-OG-19.png,0.4,1.2,13,0.5,0,19,19,12,1,,,,,,,,,,,,,,,,,,,,,,,,,,,,,,,,,,,,,,,,
,,,,,SPR24_010,20,Female,2024-04-08_10h34.04.958,jersey_experiment_5_v0,2023.2.2,Win32,85.47008547,,,,,,,,,,,,,,,,374.0362,375.0831,375.0832,376.5773,return,0.2725,,91.14583333,,,,,,FBP-PT-91.png,0.45,1.2,60,0.25,0,20,20,59,1,,,,,,,,,,,,,,,,,,,,,,,,,,,,,,,,,,,,,,,,
,,,,,SPR24_010,20,Female,2024-04-08_10h34.04.958,jersey_experiment_5_v0,2023.2.2,Win32,85.47008547,,,,,,,,,,,,,,,,376.5774,377.8715,377.8715,380.8715,return,1.9896,,61.84895833,,,,,,FBP-OG-17.png,0.37,1.2,2,0.5,0,21,21,1,1,,,,,,,,,,,,,,,,,,,,,,,,,,,,,,,,,,,,,,,,
,,,,,SPR24_010,20,Female,2024-04-08_10h34.04.958,jersey_experiment_5_v0,2023.2.2,Win32,85.47008547,,,,,,,,,,,,,,,,380.8718,382.1658,382.1658,383.9657,return,0.3,,72.91666667,,,,,,FBP-OG-17.png,0.4,1.2,3,0.5,0,22,22,2,1,,,,,,,,,,,,,,,,,,,,,,,,,,,,,,,,,,,,,,,,
,,,,,SPR24_010,20,Female,2024-04-08_10h34.04.958,jersey_experiment_5_v0,2023.2.2,Win32,85.47008547,,,,,,,,,,,,,,,,383.9659,385.2599,385.26,387.3895,return,0.5468,,83.85416667,,,,,,FBP-RB-81.png,0.43,1.2,39,0.5,0,23,23,38,1,,,,,,,,,,,,,,,,,,,,,,,,,,,,,,,,,,,,,,,,
,,,,,SPR24_010,20,Female,2024-04-08_10h34.04.958,jersey_experiment_5_v0,2023.2.2,Win32,85.47008547,,,,,,,,,,,,,,,,387.3897,388.4366,388.4366,390.1896,return,0.2545,,90.36458333,,,,,,FBP-YG-71.png,0.43,1.2,19,0.25,0,24,24,18,1,,,,,,,,,,,,,,,,,,,,,,,,,,,,,,,,,,,,,,,,
,,,,,SPR24_010,20,Female,2024-04-08_10h34.04.958,jersey_experiment_5_v0,2023.2.2,Win32,85.47008547,,,,,,,,,,,,,,,,390.1899,391.2365,391.2365,393.9191,return,0.3459,,69.921875,,,,,,FBP-YG-71.png,0.37,1.2,17,0.25,0,25,25,16,1,,,,,,,,,,,,,,,,,,,,,,,,,,,,,,,,,,,,,,,,
,,,,,SPR24_010,20,Female,2024-04-08_10h34.04.958,jersey_experiment_5_v0,2023.2.2,Win32,85.47008547,,,,,,,,,,,,,,,,393.9193,394.9662,394.9662,396.3663,return,0.2057,,79.94791667,,,,,,FBP-PT-81.png,0.4,1.2,53,0.25,0,26,26,52,1,,,,,,,,,,,,,,,,,,,,,,,,,,,,,,,,,,,,,,,,
,,,,,SPR24_010,20,Female,2024-04-08_10h34.04.958,jersey_experiment_5_v0,2023.2.2,Win32,85.47008547,,,,,,,,,,,,,,,,396.3664,397.6603,397.6603,399.6958,return,0.5348,,81.90104167,,,,,,FBP-OG-18.png,0.4,1.2,8,0.5,0,27,27,7,1,,,,,,,,,,,,,,,,,,,,,,,,,,,,,,,,,,,,,,,,
,,,,,SPR24_010,20,Female,2024-04-08_10h34.04.958,jersey_experiment_5_v0,2023.2.2,Win32,85.47008547,,,,,,,,,,,,,,,,399.696,400.7428,400.7428,402.5195,return,0.2955,,89.32291667,,,,,,FBP-PT-81.png,0.45,1.2,55,0.25,0,28,28,54,1,,,,,,,,,,,,,,,,,,,,,,,,,,,,,,,,,,,,,,,,
,,,,,SPR24_010,20,Female,2024-04-08_10h34.04.958,jersey_experiment_5_v0,2023.2.2,Win32,85.47008547,,,,,,,,,,,,,,,,402.5197,403.5663,403.5663,407.2137,return,1.5003,,54.94791667,,,,,,FBP-YG-81.png,0.37,1.2,22,0.25,0,29,29,21,1,,,,,,,,,,,,,,,,,,,,,,,,,,,,,,,,,,,,,,,,
,,,,,SPR24_010,20,Female,2024-04-08_10h34.04.958,jersey_experiment_5_v0,2023.2.2,Win32,85.47008547,,,,,,,,,,,,,,,,407.2139,408.2609,408.2609,410.5314,return,0.2134,,73.30729167,,,,,,FBP-PT-71.png,0.4,1.2,48,0.25,0,30,30,47,1,,,,,,,,,,,,,,,,,,,,,,,,,,,,,,,,,,,,,,,,
,,,,,SPR24_010,20,Female,2024-04-08_10h34.04.958,jersey_experiment_5_v0,2023.2.2,Win32,85.47008547,,,,,,,,,,,,,,,,410.5317,411.5786,411.5786,415.1199,return,0.3681,,69.921875,,,,,,FBP-YG-91.png,0.37,1.2,27,0.25,0,31,31,26,1,,,,,,,,,,,,,,,,,,,,,,,,,,,,,,,,,,,,,,,,
,,,,,SPR24_010,20,Female,2024-04-08_10h34.04.958,jersey_experiment_5_v0,2023.2.2,Win32,85.47008547,,,,,,,,,,,,,,,,415.1201,416.4139,416.4139,417.7787,return,0.2474,,79.42708333,,,,,,FBP-RB-81.png,0.4,1.2,38,0.5,0,32,32,37,1,,,,,,,,,,,,,,,,,,,,,,,,,,,,,,,,,,,,,,,,
,,,,,SPR24_010,20,Female,2024-04-08_10h34.04.958,jersey_experiment_5_v0,2023.2.2,Win32,85.47008547,,,,,,,,,,,,,,,,417.7789,419.073,419.073,420.2142,return,0.2012,,86.06770833,,,,,,FBP-RB-81.png,0.45,1.2,40,0.5,0,33,33,39,1,,,,,,,,,,,,,,,,,,,,,,,,,,,,,,,,,,,,,,,,
,,,,,SPR24_010,20,Female,2024-04-08_10h34.04.958,jersey_experiment_5_v0,2023.2.2,Win32,85.47008547,,,,,,,,,,,,,,,,420.2145,421.2612,421.2613,426.0614,return,3.5607,,62.5,,,,,,FBP-YG-71.png,0.35,1.2,16,0.25,0,34,34,15,1,,,,,,,,,,,,,,,,,,,,,,,,,,,,,,,,,,,,,,,,
,,,,,SPR24_010,20,Female,2024-04-08_10h34.04.958,jersey_experiment_5_v0,2023.2.2,Win32,85.47008547,,,,,,,,,,,,,,,,426.0616,427.1086,427.1086,429.7675,return,0.2486,,44.140625,,,,,,FBP-PT-91.png,0.35,1.2,56,0.25,0,35,35,55,1,,,,,,,,,,,,,,,,,,,,,,,,,,,,,,,,,,,,,,,,
,,,,,SPR24_010,20,Female,2024-04-08_10h34.04.958,jersey_experiment_5_v0,2023.2.2,Win32,85.47008547,,,,,,,,,,,,,,,,429.7678,431.0616,431.0617,433.6617,return,0.5111,,81.77083333,,,,,,FBP-RB-71.png,0.45,1.2,35,0.5,0,36,36,34,1,,,,,,,,,,,,,,,,,,,,,,,,,,,,,,,,,,,,,,,,
,,,,,SPR24_010,20,Female,2024-04-08_10h34.04.958,jersey_experiment_5_v0,2023.2.2,Win32,85.47008547,,,,,,,,,,,,,,,,433.6618,434.7089,434.7089,438.1678,return,0.1777,,81.77083333,,,,,,FBP-PT-91.png,0.43,1.2,59,0.25,0,37,37,58,1,,,,,,,,,,,,,,,,,,,,,,,,,,,,,,,,,,,,,,,,
,,,,,SPR24_010,20,Female,2024-04-08_10h34.04.958,jersey_experiment_5_v0,2023.2.2,Win32,85.47008547,,,,,,,,,,,,,,,,438.168,439.462,439.462,441.6505,return,0.3294,,68.09895833,,,,,,FBP-RB-91.png,0.4,1.2,43,0.5,0,38,38,42,1,,,,,,,,,,,,,,,,,,,,,,,,,,,,,,,,,,,,,,,,
,,,,,SPR24_010,20,Female,2024-04-08_10h34.04.958,jersey_experiment_5_v0,2023.2.2,Win32,85.47008547,,,,,,,,,,,,,,,,441.6506,442.9445,442.9445,444.5092,return,0.3374,,66.40625,,,,,,FBP-RB-71.png,0.37,1.2,32,0.5,0,39,39,31,1,,,,,,,,,,,,,,,,,,,,,,,,,,,,,,,,,,,,,,,,
,,,,,SPR24_010,20,Female,2024-04-08_10h34.04.958,jersey_experiment_5_v0,2023.2.2,Win32,85.47008547,,,,,,,,,,,,,,,,444.5095,445.8033,445.8033,447.9211,return,0.2486,,40.75520833,,,,,,FBP-RB-91.png,0.35,1.2,41,0.5,0,40,40,40,1,,,,,,,,,,,,,,,,,,,,,,,,,,,,,,,,,,,,,,,,
,,,,,SPR24_010,20,Female,2024-04-08_10h34.04.958,jersey_experiment_5_v0,2023.2.2,Win32,85.47008547,,,,,,,,,,,,,,,,447.9214,449.2152,449.2152,451.8154,return,0.743,,47.00520833,,,,,,FBP-OG-18.png,0.37,1.2,7,0.5,0,41,41,6,1,,,,,,,,,,,,,,,,,,,,,,,,,,,,,,,,,,,,,,,,
,,,,,SPR24_010,20,Female,2024-04-08_10h34.04.958,jersey_experiment_5_v0,2023.2.2,Win32,85.47008547,,,,,,,,,,,,,,,,451.8157,453.1096,453.1097,454.8155,return,0.2877,,58.72395833,,,,,,FBP-OG-19.png,0.37,1.2,12,0.5,0,42,42,11,1,,,,,,,,,,,,,,,,,,,,,,,,,,,,,,,,,,,,,,,,
,,,,,SPR24_010,20,Female,2024-04-08_10h34.04.958,jersey_experiment_5_v0,2023.2.2,Win32,85.47008547,,,,,,,,,,,,,,,,454.8158,455.8625,455.8625,461.1216,return,1.6978,,47.265625,,,,,,FBP-PT-71.png,0.37,1.2,47,0.25,0,43,43,46,1,,,,,,,,,,,,,,,,,,,,,,,,,,,,,,,,,,,,,,,,
,,,,,SPR24_010,20,Female,2024-04-08_10h34.04.958,jersey_experiment_5_v0,2023.2.2,Win32,85.47008547,,,,,,,,,,,,,,,,461.1218,462.4157,462.4157,464.6865,return,0.2643,,88.80208333,,,,,,FBP-OG-19.png,0.45,1.2,15,0.5,0,44,44,14,1,,,,,,,,,,,,,,,,,,,,,,,,,,,,,,,,,,,,,,,,
,,,,,SPR24_010,20,Female,2024-04-08_10h34.04.958,jersey_experiment_5_v0,2023.2.2,Win32,85.47008547,,,,,,,,,,,,,,,,464.6867,465.7335,465.7335,468.816,return,1.5581,,63.15104167,,,,,,FBP-PT-81.png,0.37,1.2,52,0.25,0,45,45,51,1,,,,,,,,,,,,,,,,,,,,,,,,,,,,,,,,,,,,,,,,
,,,,,SPR24_010,20,Female,2024-04-08_10h34.04.958,jersey_experiment_5_v0,2023.2.2,Win32,85.47008547,,,,,,,,,,,,,,,,468.8163,469.8631,469.8632,472.0161,return,0.6403,,85.02604167,,,,,,FBP-YG-81.png,0.43,1.2,24,0.25,0,46,46,23,1,,,,,,,,,,,,,,,,,,,,,,,,,,,,,,,,,,,,,,,,
,,,,,SPR24_010,20,Female,2024-04-08_10h34.04.958,jersey_experiment_5_v0,2023.2.2,Win32,85.47008547,,,,,,,,,,,,,,,,472.0163,473.3102,473.3103,477.9106,return,0.2497,,46.875,,,,,,FBP-RB-71.png,0.35,1.2,31,0.5,0,47,47,30,1,,,,,,,,,,,,,,,,,,,,,,,,,,,,,,,,,,,,,,,,
,,,,,SPR24_010,20,Female,2024-04-08_10h34.04.958,jersey_experiment_5_v0,2023.2.2,Win32,85.47008547,,,,,,,,,,,,,,,,477.9108,478.9574,478.9575,481.2517,return,0.3769,,90.625,,,,,,FBP-PT-71.png,0.45,1.2,50,0.25,0,48,48,49,1,,,,,,,,,,,,,,,,,,,,,,,,,,,,,,,,,,,,,,,,
,,,,,SPR24_010,20,Female,2024-04-08_10h34.04.958,jersey_experiment_5_v0,2023.2.2,Win32,85.47008547,,,,,,,,,,,,,,,,481.252,482.546,482.5461,484.3579,return,0.1884,,87.36979167,,,,,,FBP-OG-18.png,0.45,1.2,10,0.5,0,49,49,9,1,,,,,,,,,,,,,,,,,,,,,,,,,,,,,,,,,,,,,,,,
,,,,,SPR24_010,20,Female,2024-04-08_10h34.04.958,jersey_experiment_5_v0,2023.2.2,Win32,85.47008547,,,,,,,,,,,,,,,,484.3581,485.4048,485.4049,486.9108,return,0.2417,,79.16666667,,,,,,FBP-YG-71.png,0.4,1.2,18,0.25,0,50,50,17,1,,,,,,,,,,,,,,,,,,,,,,,,,,,,,,,,,,,,,,,,
,,,,,SPR24_010,20,Female,2024-04-08_10h34.04.958,jersey_experiment_5_v0,2023.2.2,Win32,85.47008547,,,,,,,,,,,,,,,,486.911,488.2049,488.205,490.2404,return,0.3226,,87.76041667,,,,,,FBP-RB-91.png,0.43,1.2,44,0.5,0,51,51,43,1,,,,,,,,,,,,,,,,,,,,,,,,,,,,,,,,,,,,,,,,
,,,,,SPR24_010,20,Female,2024-04-08_10h34.04.958,jersey_experiment_5_v0,2023.2.2,Win32,85.47008547,,,,,,,,,,,,,,,,490.2407,491.2875,491.2875,493.2286,return,0.2556,,93.88020833,,,,,,FBP-YG-91.png,0.43,1.2,29,0.25,0,52,52,28,1,,,,,,,,,,,,,,,,,,,,,,,,,,,,,,,,,,,,,,,,
,,,,,SPR24_010,20,Female,2024-04-08_10h34.04.958,jersey_experiment_5_v0,2023.2.2,Win32,85.47008547,,,,,,,,,,,,,,,,493.2289,494.2756,494.2756,497.5347,return,1.5112,,84.765625,,,,,,FBP-PT-91.png,0.4,1.2,58,0.25,0,53,53,57,1,,,,,,,,,,,,,,,,,,,,,,,,,,,,,,,,,,,,,,,,
,,,,,SPR24_010,20,Female,2024-04-08_10h34.04.958,jersey_experiment_5_v0,2023.2.2,Win32,85.47008547,,,,,,,,,,,,,,,,497.535,498.8289,498.829,500.9819,return,0.456,,91.015625,,,,,,FBP-RB-91.png,0.45,1.2,45,0.5,0,54,54,44,1,,,,,,,,,,,,,,,,,,,,,,,,,,,,,,,,,,,,,,,,
,,,,,SPR24_010,20,Female,2024-04-08_10h34.04.958,jersey_experiment_5_v0,2023.2.2,Win32,85.47008547,,,,,,,,,,,,,,,,500.9822,502.0291,502.0291,506.582,return,2.8342,,91.53645833,,,,,,FBP-PT-71.png,0.43,1.2,49,0.25,0,55,55,48,1,,,,,,,,,,,,,,,,,,,,,,,,,,,,,,,,,,,,,,,,
,,,,,SPR24_010,20,Female,2024-04-08_10h34.04.958,jersey_experiment_5_v0,2023.2.2,Win32,85.47008547,,,,,,,,,,,,,,,,506.5822,507.8763,507.8763,510.4528,return,0.2121,,47.78645833,,,,,,FBP-OG-18.png,0.35,1.2,6,0.5,0,56,56,5,1,,,,,,,,,,,,,,,,,,,,,,,,,,,,,,,,,,,,,,,,
,,,,,SPR24_010,20,Female,2024-04-08_10h34.04.958,jersey_experiment_5_v0,2023.2.2,Win32,85.47008547,,,,,,,,,,,,,,,,510.4531,511.4997,511.4998,513.7941,return,0.3912,,87.76041667,,,,,,FBP-YG-71.png,0.45,1.2,20,0.25,0,57,57,19,1,,,,,,,,,,,,,,,,,,,,,,,,,,,,,,,,,,,,,,,,
,,,,,SPR24_010,20,Female,2024-04-08_10h34.04.958,jersey_experiment_5_v0,2023.2.2,Win32,85.47008547,,,,,,,,,,,,,,,,513.7943,514.8413,514.8413,519.0296,return,0.3869,,56.51041667,,,,,,FBP-PT-81.png,0.43,1.2,54,0.25,0,58,58,53,1,,,,,,,,,,,,,,,,,,,,,,,,,,,,,,,,,,,,,,,,
,,,,,SPR24_010,20,Female,2024-04-08_10h34.04.958,jersey_experiment_5_v0,2023.2.2,Win32,85.47008547,,,,,,,,,,,,,,,,519.0299,520.3237,520.3238,523.2535,return,1.8124,,50.13020833,,,,,,FBP-RB-81.png,0.37,1.2,37,0.5,0,59,59,36,1,,,,,,,,,,,,,,,,,,,,,,,,,,,,,,,,,,,,,,,,
,,,,,SPR24_010,20,Female,2024-04-08_10h34.04.958,jersey_experiment_5_v0,2023.2.2,Win32,85.47008547,,,,,,,,,,,,,,,,,,,,,,,,,,,,,,,,,,,,,,,523.2539,643.2462,,,,,,,,,,,,,,,,,,,,,,,,,,,,,,,,,,,,,,
,,,,,SPR24_010,20,Female,2024-04-08_10h34.04.958,jersey_experiment_5_v0,2023.2.2,Win32,85.47008547,,,,,,,,,,,,,,,,,,,,,,,,,,,,,,,,,,,,,,,,,643.2464,646.5168,return,3.2572,,,,,,,,,,,,,,,,,,,,,,,,,,,,,,,,,,
,,,,,SPR24_010,20,Female,2024-04-08_10h34.04.958,jersey_experiment_5_v0,2023.2.2,Win32,85.47008547,,,,,,,,,,,,,,,,646.5232,647.8229,647.823,653.2465,return,3.0658,,46.35416667,,,,,,FBP-PT-18.png,0.37,1.2,52,0.5,,,,,,,,,,,,,0,0,0,51,1,,,,,,,,,,,,,,,,,,,,,,,,,,,,
,,,,,SPR24_010,20,Female,2024-04-08_10h34.04.958,jersey_experiment_5_v0,2023.2.2,Win32,85.47008547,,,,,,,,,,,,,,,,653.2469,654.5405,654.5405,656.1759,return,0.4173,,58.33333333,,,,,,FBP-PT-18.png,0.4,1.2,53,0.5,,,,,,,,,,,,,0,1,1,52,1,,,,,,,,,,,,,,,,,,,,,,,,,,,,
,,,,,SPR24_010,20,Female,2024-04-08_10h34.04.958,jersey_experiment_5_v0,2023.2.2,Win32,85.47008547,,,,,,,,,,,,,,,,656.1762,657.223,657.223,658.6584,return,0.3087,,62.890625,,,,,,FBP-OG-91.png,0.4,1.2,13,0.25,,,,,,,,,,,,,0,2,2,12,1,,,,,,,,,,,,,,,,,,,,,,,,,,,,
,,,,,SPR24_010,20,Female,2024-04-08_10h34.04.958,jersey_experiment_5_v0,2023.2.2,Win32,85.47008547,,,,,,,,,,,,,,,,658.6586,659.7055,659.7055,661.3408,return,0.2906,,75,,,,,,FBP-OG-71.png,0.43,1.2,4,0.25,,,,,,,,,,,,,0,3,3,3,1,,,,,,,,,,,,,,,,,,,,,,,,,,,,
,,,,,SPR24_010,20,Female,2024-04-08_10h34.04.958,jersey_experiment_5_v0,2023.2.2,Win32,85.47008547,,,,,,,,,,,,,,,,661.341,662.6348,662.6349,663.7292,return,0.2143,,81.77083333,,,,,,FBP-PT-17.png,0.45,1.2,50,0.5,,,,,,,,,,,,,0,4,4,49,1,,,,,,,,,,,,,,,,,,,,,,,,,,,,
,,,,,SPR24_010,20,Female,2024-04-08_10h34.04.958,jersey_experiment_5_v0,2023.2.2,Win32,85.47008547,,,,,,,,,,,,,,,,663.7294,665.0233,665.0234,667.9998,return,0.2876,,43.09895833,,,,,,FBP-YG-18.png,0.35,1.2,21,0.5,,,,,,,,,,,,,0,5,5,20,1,,,,,,,,,,,,,,,,,,,,,,,,,,,,
,,,,,SPR24_010,20,Female,2024-04-08_10h34.04.958,jersey_experiment_5_v0,2023.2.2,Win32,85.47008547,,,,,,,,,,,,,,,,668.0001,669.2941,669.2941,671.5412,return,1.1429,,56.38020833,,,,,,FBP-YG-18.png,0.4,1.2,23,0.5,,,,,,,,,,,,,0,6,6,22,1,,,,,,,,,,,,,,,,,,,,,,,,,,,,
,,,,,SPR24_010,20,Female,2024-04-08_10h34.04.958,jersey_experiment_5_v0,2023.2.2,Win32,85.47008547,,,,,,,,,,,,,,,,671.5415,672.8354,672.8355,674.8942,return,0.2047,,58.59375,,,,,,FBP-YG-18.png,0.37,1.2,22,0.5,,,,,,,,,,,,,0,7,7,21,1,,,,,,,,,,,,,,,,,,,,,,,,,,,,
,,,,,SPR24_010,20,Female,2024-04-08_10h34.04.958,jersey_experiment_5_v0,2023.2.2,Win32,85.47008547,,,,,,,,,,,,,,,,674.8945,676.1885,676.1885,678.1179,return,0.3064,,59.50520833,,,,,,FBP-YG-17.png,0.35,1.2,16,0.5,,,,,,,,,,,,,0,8,8,15,1,,,,,,,,,,,,,,,,,,,,,,,,,,,,
,,,,,SPR24_010,20,Female,2024-04-08_10h34.04.958,jersey_experiment_5_v0,2023.2.2,Win32,85.47008547,,,,,,,,,,,,,,,,678.1181,679.165,679.165,681.9888,return,0.8005,,74.609375,,,,,,FBP-OG-71.png,0.45,1.2,5,0.25,,,,,,,,,,,,,0,9,9,4,1,,,,,,,,,,,,,,,,,,,,,,,,,,,,
,,,,,SPR24_010,20,Female,2024-04-08_10h34.04.958,jersey_experiment_5_v0,2023.2.2,Win32,85.47008547,,,,,,,,,,,,,,,,681.989,683.2828,683.2828,685.7652,return,0.8812,,84.63541667,,,,,,FBP-YG-17.png,0.45,1.2,20,0.5,,,,,,,,,,,,,0,10,10,19,1,,,,,,,,,,,,,,,,,,,,,,,,,,,,
,,,,,SPR24_010,20,Female,2024-04-08_10h34.04.958,jersey_experiment_5_v0,2023.2.2,Win32,85.47008547,,,,,,,,,,,,,,,,685.7655,686.8124,686.8125,689.5536,return,0.2625,,47.265625,,,,,,FBP-OG-91.png,0.35,1.2,11,0.25,,,,,,,,,,,,,0,11,11,10,1,,,,,,,,,,,,,,,,,,,,,,,,,,,,
,,,,,SPR24_010,20,Female,2024-04-08_10h34.04.958,jersey_experiment_5_v0,2023.2.2,Win32,85.47008547,,,,,,,,,,,,,,,,689.5539,690.6006,690.6007,693.0245,return,0.1813,,72.13541667,,,,,,FBP-OG-81.png,0.45,1.2,10,0.25,,,,,,,,,,,,,0,12,12,9,1,,,,,,,,,,,,,,,,,,,,,,,,,,,,
,,,,,SPR24_010,20,Female,2024-04-08_10h34.04.958,jersey_experiment_5_v0,2023.2.2,Win32,85.47008547,,,,,,,,,,,,,,,,693.0247,694.3184,694.3186,700.2718,return,4.6055,,49.609375,,,,,,FBP-PT-19.png,0.37,1.2,57,0.5,,,,,,,,,,,,,0,13,13,56,1,,,,,,,,,,,,,,,,,,,,,,,,,,,,
,,,,,SPR24_010,20,Female,2024-04-08_10h34.04.958,jersey_experiment_5_v0,2023.2.2,Win32,85.47008547,,,,,,,,,,,,,,,,700.272,701.5658,701.5659,702.9305,return,0.2732,,44.66145833,,,,,,FBP-PT-19.png,0.35,1.2,56,0.5,,,,,,,,,,,,,0,14,14,55,1,,,,,,,,,,,,,,,,,,,,,,,,,,,,
,,,,,SPR24_010,20,Female,2024-04-08_10h34.04.958,jersey_experiment_5_v0,2023.2.2,Win32,85.47008547,,,,,,,,,,,,,,,,702.9308,703.9776,703.9777,707.6838,return,1.0826,,49.34895833,,,,,,FBP-OG-71.png,0.37,1.2,2,0.25,,,,,,,,,,,,,0,15,15,1,1,,,,,,,,,,,,,,,,,,,,,,,,,,,,
,,,,,SPR24_010,20,Female,2024-04-08_10h34.04.958,jersey_experiment_5_v0,2023.2.2,Win32,85.47008547,,,,,,,,,,,,,,,,707.684,708.7308,708.7308,710.6132,return,0.5038,,44.40104167,,,,,,FBP-OG-81.png,0.35,1.2,6,0.25,,,,,,,,,,,,,0,16,16,5,1,,,,,,,,,,,,,,,,,,,,,,,,,,,,
,,,,,SPR24_010,20,Female,2024-04-08_10h34.04.958,jersey_experiment_5_v0,2023.2.2,Win32,85.47008547,,,,,,,,,,,,,,,,710.6134,711.6604,711.6604,715.4369,return,1.3127,,58.72395833,,,,,,FBP-OG-91.png,0.43,1.2,14,0.25,,,,,,,,,,,,,0,17,17,13,1,,,,,,,,,,,,,,,,,,,,,,,,,,,,
,,,,,SPR24_010,20,Female,2024-04-08_10h34.04.958,jersey_experiment_5_v0,2023.2.2,Win32,85.47008547,,,,,,,,,,,,,,,,715.4372,716.4841,716.4841,718.6372,return,0.2197,,63.02083333,,,,,,FBP-RB-18.png,0.43,1.2,39,0.25,,,,,,,,,,,,,0,18,18,38,1,,,,,,,,,,,,,,,,,,,,,,,,,,,,
,,,,,SPR24_010,20,Female,2024-04-08_10h34.04.958,jersey_experiment_5_v0,2023.2.2,Win32,85.47008547,,,,,,,,,,,,,,,,718.6375,719.6842,719.6843,723.3196,return,1.8118,,48.30729167,,,,,,FBP-OG-71.png,0.35,1.2,1,0.25,,,,,,,,,,,,,0,19,19,0,1,,,,,,,,,,,,,,,,,,,,,,,,,,,,
,,,,,SPR24_010,20,Female,2024-04-08_10h34.04.958,jersey_experiment_5_v0,2023.2.2,Win32,85.47008547,,,,,,,,,,,,,,,,723.3199,724.6137,724.6138,726.3904,return,0.2123,,61.328125,,,,,,FBP-YG-19.png,0.37,1.2,27,0.5,,,,,,,,,,,,,0,20,20,26,1,,,,,,,,,,,,,,,,,,,,,,,,,,,,
,,,,,SPR24_010,20,Female,2024-04-08_10h34.04.958,jersey_experiment_5_v0,2023.2.2,Win32,85.47008547,,,,,,,,,,,,,,,,726.3906,727.6845,727.6846,729.3788,return,0.6355,,67.83854167,,,,,,FBP-YG-17.png,0.4,1.2,18,0.5,,,,,,,,,,,,,0,21,21,17,1,,,,,,,,,,,,,,,,,,,,,,,,,,,,
,,,,,SPR24_010,20,Female,2024-04-08_10h34.04.958,jersey_experiment_5_v0,2023.2.2,Win32,85.47008547,,,,,,,,,,,,,,,,729.379,730.6729,730.6729,732.6846,return,0.5734,,82.16145833,,,,,,FBP-PT-18.png,0.43,1.2,54,0.5,,,,,,,,,,,,,0,22,22,53,1,,,,,,,,,,,,,,,,,,,,,,,,,,,,
,,,,,SPR24_010,20,Female,2024-04-08_10h34.04.958,jersey_experiment_5_v0,2023.2.2,Win32,85.47008547,,,,,,,,,,,,,,,,732.6849,733.7317,733.7317,737.5083,return,0.6361,,50.26041667,,,,,,FBP-RB-18.png,0.35,1.2,36,0.25,,,,,,,,,,,,,0,23,23,35,1,,,,,,,,,,,,,,,,,,,,,,,,,,,,
,,,,,SPR24_010,20,Female,2024-04-08_10h34.04.958,jersey_experiment_5_v0,2023.2.2,Win32,85.47008547,,,,,,,,,,,,,,,,737.5085,738.5555,738.5556,742.4027,return,1.6023,,78.77604167,,,,,,FBP-OG-91.png,0.45,1.2,15,0.25,,,,,,,,,,,,,0,24,24,14,1,,,,,,,,,,,,,,,,,,,,,,,,,,,,
,,,,,SPR24_010,20,Female,2024-04-08_10h34.04.958,jersey_experiment_5_v0,2023.2.2,Win32,85.47008547,,,,,,,,,,,,,,,,742.4029,743.6968,743.6969,745.1557,return,0.331,,82.68229167,,,,,,FBP-PT-19.png,0.45,1.2,60,0.5,,,,,,,,,,,,,0,25,25,59,1,,,,,,,,,,,,,,,,,,,,,,,,,,,,
,,,,,SPR24_010,20,Female,2024-04-08_10h34.04.958,jersey_experiment_5_v0,2023.2.2,Win32,85.47008547,,,,,,,,,,,,,,,,745.1559,746.4498,746.4499,748.5439,return,0.8758,,89.453125,,,,,,FBP-PT-18.png,0.45,1.2,55,0.5,,,,,,,,,,,,,0,26,26,54,1,,,,,,,,,,,,,,,,,,,,,,,,,,,,
,,,,,SPR24_010,20,Female,2024-04-08_10h34.04.958,jersey_experiment_5_v0,2023.2.2,Win32,85.47008547,,,,,,,,,,,,,,,,748.5441,749.5913,749.5913,751.556,return,0.2601,,47.91666667,,,,,,FBP-RB-17.png,0.35,1.2,31,0.25,,,,,,,,,,,,,0,27,27,30,1,,,,,,,,,,,,,,,,,,,,,,,,,,,,
,,,,,SPR24_010,20,Female,2024-04-08_10h34.04.958,jersey_experiment_5_v0,2023.2.2,Win32,85.47008547,,,,,,,,,,,,,,,,751.5562,752.8501,752.8502,754.4857,return,0.2832,,57.421875,,,,,,FBP-PT-17.png,0.4,1.2,48,0.5,,,,,,,,,,,,,0,28,28,47,1,,,,,,,,,,,,,,,,,,,,,,,,,,,,
,,,,,SPR24_010,20,Female,2024-04-08_10h34.04.958,jersey_experiment_5_v0,2023.2.2,Win32,85.47008547,,,,,,,,,,,,,,,,754.4858,755.5324,755.5325,757.215,return,0.381,,68.75,,,,,,FBP-RB-17.png,0.45,1.2,35,0.25,,,,,,,,,,,,,0,29,29,34,1,,,,,,,,,,,,,,,,,,,,,,,,,,,,
,,,,,SPR24_010,20,Female,2024-04-08_10h34.04.958,jersey_experiment_5_v0,2023.2.2,Win32,85.47008547,,,,,,,,,,,,,,,,757.2153,758.5092,758.5092,760.627,return,0.6355,,79.6875,,,,,,FBP-PT-19.png,0.43,1.2,59,0.5,,,,,,,,,,,,,0,30,30,58,1,,,,,,,,,,,,,,,,,,,,,,,,,,,,
,,,,,SPR24_010,20,Female,2024-04-08_10h34.04.958,jersey_experiment_5_v0,2023.2.2,Win32,85.47008547,,,,,,,,,,,,,,,,760.6272,761.6739,761.6739,763.2034,return,0.2372,,67.31770833,,,,,,FBP-RB-18.png,0.4,1.2,38,0.25,,,,,,,,,,,,,0,31,31,37,1,,,,,,,,,,,,,,,,,,,,,,,,,,,,
,,,,,SPR24_010,20,Female,2024-04-08_10h34.04.958,jersey_experiment_5_v0,2023.2.2,Win32,85.47008547,,,,,,,,,,,,,,,,763.2037,764.4976,764.4976,767.4154,return,0.1987,,47.13541667,,,,,,FBP-PT-18.png,0.35,1.2,51,0.5,,,,,,,,,,,,,0,32,32,50,1,,,,,,,,,,,,,,,,,,,,,,,,,,,,
,,,,,SPR24_010,20,Female,2024-04-08_10h34.04.958,jersey_experiment_5_v0,2023.2.2,Win32,85.47008547,,,,,,,,,,,,,,,,767.4157,768.4624,768.4624,771.1214,return,1.2963,,67.70833333,,,,,,FBP-RB-19.png,0.4,1.2,43,0.25,,,,,,,,,,,,,0,33,33,42,1,,,,,,,,,,,,,,,,,,,,,,,,,,,,
,,,,,SPR24_010,20,Female,2024-04-08_10h34.04.958,jersey_experiment_5_v0,2023.2.2,Win32,85.47008547,,,,,,,,,,,,,,,,771.1216,772.1683,772.1684,776.2275,return,2.9643,,50.52083333,,,,,,FBP-RB-19.png,0.35,1.2,41,0.25,,,,,,,,,,,,,0,34,34,40,1,,,,,,,,,,,,,,,,,,,,,,,,,,,,
,,,,,SPR24_010,20,Female,2024-04-08_10h34.04.958,jersey_experiment_5_v0,2023.2.2,Win32,85.47008547,,,,,,,,,,,,,,,,776.2278,777.2746,777.2746,779.3335,return,0.5793,,84.89583333,,,,,,FBP-RB-19.png,0.45,1.2,45,0.25,,,,,,,,,,,,,0,35,35,44,1,,,,,,,,,,,,,,,,,,,,,,,,,,,,
,,,,,SPR24_010,20,Female,2024-04-08_10h34.04.958,jersey_experiment_5_v0,2023.2.2,Win32,85.47008547,,,,,,,,,,,,,,,,779.3338,780.3805,780.3805,781.863,return,0.2592,,86.97916667,,,,,,FBP-RB-19.png,0.43,1.2,44,0.25,,,,,,,,,,,,,0,36,36,43,1,,,,,,,,,,,,,,,,,,,,,,,,,,,,
,,,,,SPR24_010,20,Female,2024-04-08_10h34.04.958,jersey_experiment_5_v0,2023.2.2,Win32,85.47008547,,,,,,,,,,,,,,,,781.8632,782.9101,782.9101,785.1806,return,0.2441,,69.140625,,,,,,FBP-RB-17.png,0.4,1.2,33,0.25,,,,,,,,,,,,,0,37,37,32,1,,,,,,,,,,,,,,,,,,,,,,,,,,,,
,,,,,SPR24_010,20,Female,2024-04-08_10h34.04.958,jersey_experiment_5_v0,2023.2.2,Win32,85.47008547,,,,,,,,,,,,,,,,785.1808,786.4749,786.4749,790.0398,return,1.3786,,73.4375,,,,,,FBP-YG-19.png,0.4,1.2,28,0.5,,,,,,,,,,,,,0,38,38,27,1,,,,,,,,,,,,,,,,,,,,,,,,,,,,
,,,,,SPR24_010,20,Female,2024-04-08_10h34.04.958,jersey_experiment_5_v0,2023.2.2,Win32,85.47008547,,,,,,,,,,,,,,,,790.04,791.334,791.334,792.7223,return,0.2352,,79.55729167,,,,,,FBP-YG-19.png,0.43,1.2,29,0.5,,,,,,,,,,,,,0,39,39,28,1,,,,,,,,,,,,,,,,,,,,,,,,,,,,
,,,,,SPR24_010,20,Female,2024-04-08_10h34.04.958,jersey_experiment_5_v0,2023.2.2,Win32,85.47008547,,,,,,,,,,,,,,,,792.7224,793.7693,793.7693,796.7342,return,1.3251,,59.375,,,,,,FBP-OG-81.png,0.37,1.2,7,0.25,,,,,,,,,,,,,0,40,40,6,1,,,,,,,,,,,,,,,,,,,,,,,,,,,,
,,,,,SPR24_010,20,Female,2024-04-08_10h34.04.958,jersey_experiment_5_v0,2023.2.2,Win32,85.47008547,,,,,,,,,,,,,,,,796.7345,797.7813,797.7813,799.8873,return,0.2646,,72.13541667,,,,,,FBP-OG-71.png,0.4,1.2,3,0.25,,,,,,,,,,,,,0,41,41,2,1,,,,,,,,,,,,,,,,,,,,,,,,,,,,
,,,,,SPR24_010,20,Female,2024-04-08_10h34.04.958,jersey_experiment_5_v0,2023.2.2,Win32,85.47008547,,,,,,,,,,,,,,,,799.8874,800.9343,800.9343,803.2285,return,0.2677,,55.59895833,,,,,,FBP-OG-81.png,0.4,1.2,8,0.25,,,,,,,,,,,,,0,42,42,7,1,,,,,,,,,,,,,,,,,,,,,,,,,,,,
,,,,,SPR24_010,20,Female,2024-04-08_10h34.04.958,jersey_experiment_5_v0,2023.2.2,Win32,85.47008547,,,,,,,,,,,,,,,,803.2287,804.5227,804.5227,807.5228,return,1.0024,,37.76041667,,,,,,FBP-YG-19.png,0.35,1.2,26,0.5,,,,,,,,,,,,,0,43,43,25,1,,,,,,,,,,,,,,,,,,,,,,,,,,,,
,,,,,SPR24_010,20,Female,2024-04-08_10h34.04.958,jersey_experiment_5_v0,2023.2.2,Win32,85.47008547,,,,,,,,,,,,,,,,807.5232,808.5699,808.5699,813.2171,return,2.4503,,70.57291667,,,,,,FBP-OG-81.png,0.43,1.2,9,0.25,,,,,,,,,,,,,0,44,44,8,1,,,,,,,,,,,,,,,,,,,,,,,,,,,,
,,,,,SPR24_010,20,Female,2024-04-08_10h34.04.958,jersey_experiment_5_v0,2023.2.2,Win32,85.47008547,,,,,,,,,,,,,,,,813.2174,814.2641,814.2642,815.9702,return,0.1893,,63.671875,,,,,,FBP-RB-19.png,0.37,1.2,42,0.25,,,,,,,,,,,,,0,45,45,41,1,,,,,,,,,,,,,,,,,,,,,,,,,,,,
,,,,,SPR24_010,20,Female,2024-04-08_10h34.04.958,jersey_experiment_5_v0,2023.2.2,Win32,85.47008547,,,,,,,,,,,,,,,,815.9704,817.2644,817.2644,819.1349,return,0.5712,,76.30208333,,,,,,FBP-YG-18.png,0.43,1.2,24,0.5,,,,,,,,,,,,,0,46,46,23,1,,,,,,,,,,,,,,,,,,,,,,,,,,,,
,,,,,SPR24_010,20,Female,2024-04-08_10h34.04.958,jersey_experiment_5_v0,2023.2.2,Win32,85.47008547,,,,,,,,,,,,,,,,819.1351,820.1822,820.1822,823.4527,return,1.6434,,74.34895833,,,,,,FBP-RB-17.png,0.43,1.2,34,0.25,,,,,,,,,,,,,0,47,47,33,1,,,,,,,,,,,,,,,,,,,,,,,,,,,,
,,,,,SPR24_010,20,Female,2024-04-08_10h34.04.958,jersey_experiment_5_v0,2023.2.2,Win32,85.47008547,,,,,,,,,,,,,,,,823.4529,824.747,824.747,828.8529,return,2.2681,,74.34895833,,,,,,FBP-PT-17.png,0.37,1.2,47,0.5,,,,,,,,,,,,,0,48,48,46,1,,,,,,,,,,,,,,,,,,,,,,,,,,,,
,,,,,SPR24_010,20,Female,2024-04-08_10h34.04.958,jersey_experiment_5_v0,2023.2.2,Win32,85.47008547,,,,,,,,,,,,,,,,828.8532,830.1471,830.1471,833.2531,return,1.5768,,60.15625,,,,,,FBP-YG-17.png,0.37,1.2,17,0.5,,,,,,,,,,,,,0,49,49,16,1,,,,,,,,,,,,,,,,,,,,,,,,,,,,
,,,,,SPR24_010,20,Female,2024-04-08_10h34.04.958,jersey_experiment_5_v0,2023.2.2,Win32,85.47008547,,,,,,,,,,,,,,,,833.2533,834.5473,834.5474,836.6063,return,0.3245,,74.47916667,,,,,,FBP-PT-19.png,0.4,1.2,58,0.5,,,,,,,,,,,,,0,50,50,57,1,,,,,,,,,,,,,,,,,,,,,,,,,,,,
,,,,,SPR24_010,20,Female,2024-04-08_10h34.04.958,jersey_experiment_5_v0,2023.2.2,Win32,85.47008547,,,,,,,,,,,,,,,,836.6065,837.6533,837.6533,839.3592,return,0.1927,,86.45833333,,,,,,FBP-RB-18.png,0.45,1.2,40,0.25,,,,,,,,,,,,,0,51,51,39,1,,,,,,,,,,,,,,,,,,,,,,,,,,,,
,,,,,SPR24_010,20,Female,2024-04-08_10h34.04.958,jersey_experiment_5_v0,2023.2.2,Win32,85.47008547,,,,,,,,,,,,,,,,839.3594,840.6534,840.6534,841.8535,return,0.1468,,89.0625,,,,,,FBP-YG-17.png,0.43,1.2,19,0.5,,,,,,,,,,,,,0,52,52,18,1,,,,,,,,,,,,,,,,,,,,,,,,,,,,
,,,,,SPR24_010,20,Female,2024-04-08_10h34.04.958,jersey_experiment_5_v0,2023.2.2,Win32,85.47008547,,,,,,,,,,,,,,,,841.8538,842.9005,842.9005,844.9477,return,0.2473,,62.109375,,,,,,FBP-OG-91.png,0.37,1.2,12,0.25,,,,,,,,,,,,,0,53,53,11,1,,,,,,,,,,,,,,,,,,,,,,,,,,,,
,,,,,SPR24_010,20,Female,2024-04-08_10h34.04.958,jersey_experiment_5_v0,2023.2.2,Win32,85.47008547,,,,,,,,,,,,,,,,844.948,845.9947,845.9947,848.2889,return,0.4851,,67.31770833,,,,,,FBP-RB-18.png,0.37,1.2,37,0.25,,,,,,,,,,,,,0,54,54,36,1,,,,,,,,,,,,,,,,,,,,,,,,,,,,
,,,,,SPR24_010,20,Female,2024-04-08_10h34.04.958,jersey_experiment_5_v0,2023.2.2,Win32,85.47008547,,,,,,,,,,,,,,,,848.2892,849.3361,849.3362,851.6067,return,0.1286,,49.47916667,,,,,,FBP-RB-17.png,0.37,1.2,32,0.25,,,,,,,,,,,,,0,55,55,31,1,,,,,,,,,,,,,,,,,,,,,,,,,,,,
,,,,,SPR24_010,20,Female,2024-04-08_10h34.04.958,jersey_experiment_5_v0,2023.2.2,Win32,85.47008547,,,,,,,,,,,,,,,,851.607,852.9009,852.901,854.7363,return,0.1803,,68.22916667,,,,,,FBP-PT-17.png,0.43,1.2,49,0.5,,,,,,,,,,,,,0,56,56,48,1,,,,,,,,,,,,,,,,,,,,,,,,,,,,
,,,,,SPR24_010,20,Female,2024-04-08_10h34.04.958,jersey_experiment_5_v0,2023.2.2,Win32,85.47008547,,,,,,,,,,,,,,,,854.7365,856.0305,856.0306,858.0659,return,0.1801,,45.3125,,,,,,FBP-PT-17.png,0.35,1.2,46,0.5,,,,,,,,,,,,,0,57,57,45,1,,,,,,,,,,,,,,,,,,,,,,,,,,,,
,,,,,SPR24_010,20,Female,2024-04-08_10h34.04.958,jersey_experiment_5_v0,2023.2.2,Win32,85.47008547,,,,,,,,,,,,,,,,858.0661,859.3602,859.3602,861.0542,return,0.1599,,74.73958333,,,,,,FBP-YG-18.png,0.45,1.2,25,0.5,,,,,,,,,,,,,0,58,58,24,1,,,,,,,,,,,,,,,,,,,,,,,,,,,,
,,,,,SPR24_010,20,Female,2024-04-08_10h34.04.958,jersey_experiment_5_v0,2023.2.2,Win32,85.47008547,,,,,,,,,,,,,,,,861.0545,862.3483,862.3483,863.7013,return,0.1654,,90.10416667,,,,,,FBP-YG-19.png,0.45,1.2,30,0.5,,,,,,,,,,,,,0,59,59,29,1,,,,,,,,,,,,,,,,,,,,,,,,,,,,
,,,,,SPR24_010,20,Female,2024-04-08_10h34.04.958,jersey_experiment_5_v0,2023.2.2,Win32,85.47008547,,,,,,,,,,,,,,,,863.7035,864.7484,864.7484,866.1839,return,0.2352,,94.53125,,,,,,FBP-RB-71.png,0.45,1.2,35,0.25,,,,,,,,,,,,,,,,,,0,0,0,34,1,,,,,,,,,,,,,,,,,,,,,,,
,,,,,SPR24_010,20,Female,2024-04-08_10h34.04.958,jersey_experiment_5_v0,2023.2.2,Win32,85.47008547,,,,,,,,,,,,,,,,866.1843,867.2309,867.2309,868.5956,return,0.1766,,93.88020833,,,,,,FBP-OG-17.png,0.45,1.2,5,0.25,,,,,,,,,,,,,,,,,,0,1,1,4,1,,,,,,,,,,,,,,,,,,,,,,,
,,,,,SPR24_010,20,Female,2024-04-08_10h34.04.958,jersey_experiment_5_v0,2023.2.2,Win32,85.47008547,,,,,,,,,,,,,,,,868.5959,869.6429,869.6429,872.3017,return,0.218,,73.17708333,,,,,,FBP-RB-81.png,0.43,1.2,39,0.25,,,,,,,,,,,,,,,,,,0,2,2,38,1,,,,,,,,,,,,,,,,,,,,,,,
,,,,,SPR24_010,20,Female,2024-04-08_10h34.04.958,jersey_experiment_5_v0,2023.2.2,Win32,85.47008547,,,,,,,,,,,,,,,,872.302,873.3487,873.3487,875.4077,return,0.2292,,49.609375,,,,,,FBP-RB-81.png,0.35,1.2,36,0.25,,,,,,,,,,,,,,,,,,0,3,3,35,1,,,,,,,,,,,,,,,,,,,,,,,
,,,,,SPR24_010,20,Female,2024-04-08_10h34.04.958,jersey_experiment_5_v0,2023.2.2,Win32,85.47008547,,,,,,,,,,,,,,,,875.4079,876.4547,876.4547,877.9018,return,0.2407,,62.76041667,,,,,,FBP-OG-18.png,0.4,1.2,8,0.25,,,,,,,,,,,,,,,,,,0,4,4,7,1,,,,,,,,,,,,,,,,,,,,,,,
,,,,,SPR24_010,20,Female,2024-04-08_10h34.04.958,jersey_experiment_5_v0,2023.2.2,Win32,85.47008547,,,,,,,,,,,,,,,,877.902,879.1961,879.1961,880.9609,return,0.2375,,74.21875,,,,,,FBP-YG-71.png,0.45,1.2,20,0.5,,,,,,,,,,,,,,,,,,0,5,5,19,1,,,,,,,,,,,,,,,,,,,,,,,
,,,,,SPR24_010,20,Female,2024-04-08_10h34.04.958,jersey_experiment_5_v0,2023.2.2,Win32,85.47008547,,,,,,,,,,,,,,,,880.9611,882.255,882.255,883.4315,return,0.1409,,84.24479167,,,,,,FBP-YG-71.png,0.43,1.2,19,0.5,,,,,,,,,,,,,,,,,,0,6,6,18,1,,,,,,,,,,,,,,,,,,,,,,,
,,,,,SPR24_010,20,Female,2024-04-08_10h34.04.958,jersey_experiment_5_v0,2023.2.2,Win32,85.47008547,,,,,,,,,,,,,,,,883.4317,884.7258,884.7258,887.4552,return,0.1932,,71.09375,,,,,,FBP-PT-91.png,0.4,1.2,58,0.5,,,,,,,,,,,,,,,,,,0,7,7,57,1,,,,,,,,,,,,,,,,,,,,,,,
,,,,,SPR24_010,20,Female,2024-04-08_10h34.04.958,jersey_experiment_5_v0,2023.2.2,Win32,85.47008547,,,,,,,,,,,,,,,,887.4554,888.5022,888.5023,892.0671,return,2.1786,,49.86979167,,,,,,FBP-RB-91.png,0.35,1.2,41,0.25,,,,,,,,,,,,,,,,,,0,8,8,40,1,,,,,,,,,,,,,,,,,,,,,,,
,,,,,SPR24_010,20,Female,2024-04-08_10h34.04.958,jersey_experiment_5_v0,2023.2.2,Win32,85.47008547,,,,,,,,,,,,,,,,892.0673,893.1142,893.1143,895.5849,return,0.1925,,50,,,,,,FBP-OG-18.png,0.37,1.2,7,0.25,,,,,,,,,,,,,,,,,,0,9,9,6,1,,,,,,,,,,,,,,,,,,,,,,,
,,,,,SPR24_010,20,Female,2024-04-08_10h34.04.958,jersey_experiment_5_v0,2023.2.2,Win32,85.47008547,,,,,,,,,,,,,,,,895.5852,896.6319,896.6319,898.0791,return,0.1476,,70.44270833,,,,,,FBP-OG-19.png,0.45,1.2,15,0.25,,,,,,,,,,,,,,,,,,0,10,10,14,1,,,,,,,,,,,,,,,,,,,,,,,
,,,,,SPR24_010,20,Female,2024-04-08_10h34.04.958,jersey_experiment_5_v0,2023.2.2,Win32,85.47008547,,,,,,,,,,,,,,,,898.0794,899.1263,899.1263,901.444,return,0.1663,,47.91666667,,,,,,FBP-RB-71.png,0.37,1.2,32,0.25,,,,,,,,,,,,,,,,,,0,11,11,31,1,,,,,,,,,,,,,,,,,,,,,,,
,,,,,SPR24_010,20,Female,2024-04-08_10h34.04.958,jersey_experiment_5_v0,2023.2.2,Win32,85.47008547,,,,,,,,,,,,,,,,901.4442,902.491,902.4911,906.1264,return,0.9011,,49.47916667,,,,,,FBP-RB-71.png,0.35,1.2,31,0.25,,,,,,,,,,,,,,,,,,0,12,12,30,1,,,,,,,,,,,,,,,,,,,,,,,
,,,,,SPR24_010,20,Female,2024-04-08_10h34.04.958,jersey_experiment_5_v0,2023.2.2,Win32,85.47008547,,,,,,,,,,,,,,,,906.1267,907.1736,907.1736,910.3736,return,1.4018,,65.88541667,,,,,,FBP-RB-91.png,0.45,1.2,45,0.25,,,,,,,,,,,,,,,,,,0,13,13,44,1,,,,,,,,,,,,,,,,,,,,,,,
,,,,,SPR24_010,20,Female,2024-04-08_10h34.04.958,jersey_experiment_5_v0,2023.2.2,Win32,85.47008547,,,,,,,,,,,,,,,,910.3739,911.4207,911.4207,913.1031,return,0.2168,,82.94270833,,,,,,FBP-OG-17.png,0.43,1.2,4,0.25,,,,,,,,,,,,,,,,,,0,14,14,3,1,,,,,,,,,,,,,,,,,,,,,,,
,,,,,SPR24_010,20,Female,2024-04-08_10h34.04.958,jersey_experiment_5_v0,2023.2.2,Win32,85.47008547,,,,,,,,,,,,,,,,913.1034,914.3974,914.3974,915.5032,return,0.253,,92.1875,,,,,,FBP-YG-81.png,0.45,1.2,25,0.5,,,,,,,,,,,,,,,,,,0,15,15,24,1,,,,,,,,,,,,,,,,,,,,,,,
,,,,,SPR24_010,20,Female,2024-04-08_10h34.04.958,jersey_experiment_5_v0,2023.2.2,Win32,85.47008547,,,,,,,,,,,,,,,,915.5035,916.5504,916.5505,918.1269,return,0.1572,,75,,,,,,FBP-OG-19.png,0.43,1.2,14,0.25,,,,,,,,,,,,,,,,,,0,16,16,13,1,,,,,,,,,,,,,,,,,,,,,,,
,,,,,SPR24_010,20,Female,2024-04-08_10h34.04.958,jersey_experiment_5_v0,2023.2.2,Win32,85.47008547,,,,,,,,,,,,,,,,918.1272,919.4211,919.4211,920.6799,return,0.3425,,50.13020833,,,,,,FBP-PT-91.png,0.35,1.2,56,0.5,,,,,,,,,,,,,,,,,,0,17,17,55,1,,,,,,,,,,,,,,,,,,,,,,,
,,,,,SPR24_010,20,Female,2024-04-08_10h34.04.958,jersey_experiment_5_v0,2023.2.2,Win32,85.47008547,,,,,,,,,,,,,,,,920.6802,921.9741,921.9741,923.0566,return,0.2145,,62.76041667,,,,,,FBP-YG-91.png,0.37,1.2,27,0.5,,,,,,,,,,,,,,,,,,0,18,18,26,1,,,,,,,,,,,,,,,,,,,,,,,
,,,,,SPR24_010,20,Female,2024-04-08_10h34.04.958,jersey_experiment_5_v0,2023.2.2,Win32,85.47008547,,,,,,,,,,,,,,,,923.0569,924.1036,924.1036,926.3508,return,0.1595,,41.796875,,,,,,FBP-OG-17.png,0.37,1.2,2,0.25,,,,,,,,,,,,,,,,,,0,19,19,1,1,,,,,,,,,,,,,,,,,,,,,,,
,,,,,SPR24_010,20,Female,2024-04-08_10h34.04.958,jersey_experiment_5_v0,2023.2.2,Win32,85.47008547,,,,,,,,,,,,,,,,926.3511,927.645,927.645,929.4568,return,0.2044,,50,,,,,,FBP-YG-81.png,0.37,1.2,22,0.5,,,,,,,,,,,,,,,,,,0,20,20,21,1,,,,,,,,,,,,,,,,,,,,,,,
,,,,,SPR24_010,20,Female,2024-04-08_10h34.04.958,jersey_experiment_5_v0,2023.2.2,Win32,85.47008547,,,,,,,,,,,,,,,,929.4571,930.751,930.7511,932.4686,return,0.1884,,45.05208333,,,,,,FBP-PT-81.png,0.35,1.2,51,0.5,,,,,,,,,,,,,,,,,,0,21,21,50,1,,,,,,,,,,,,,,,,,,,,,,,
,,,,,SPR24_010,20,Female,2024-04-08_10h34.04.958,jersey_experiment_5_v0,2023.2.2,Win32,85.47008547,,,,,,,,,,,,,,,,932.4689,933.5158,933.5158,935.9513,return,0.2394,,59.375,,,,,,FBP-RB-71.png,0.4,1.2,33,0.25,,,,,,,,,,,,,,,,,,0,22,22,32,1,,,,,,,,,,,,,,,,,,,,,,,
,,,,,SPR24_010,20,Female,2024-04-08_10h34.04.958,jersey_experiment_5_v0,2023.2.2,Win32,85.47008547,,,,,,,,,,,,,,,,935.9514,936.9983,936.9983,938.1159,return,0.2111,,65.36458333,,,,,,FBP-RB-81.png,0.4,1.2,38,0.25,,,,,,,,,,,,,,,,,,0,23,23,37,1,,,,,,,,,,,,,,,,,,,,,,,
,,,,,SPR24_010,20,Female,2024-04-08_10h34.04.958,jersey_experiment_5_v0,2023.2.2,Win32,85.47008547,,,,,,,,,,,,,,,,938.1162,939.163,939.163,940.6219,return,0.1253,,74.47916667,,,,,,FBP-RB-91.png,0.43,1.2,44,0.25,,,,,,,,,,,,,,,,,,0,24,24,43,1,,,,,,,,,,,,,,,,,,,,,,,
,,,,,SPR24_010,20,Female,2024-04-08_10h34.04.958,jersey_experiment_5_v0,2023.2.2,Win32,85.47008547,,,,,,,,,,,,,,,,940.6221,941.9161,941.9161,943.2925,return,0.2326,,70.05208333,,,,,,FBP-PT-81.png,0.4,1.2,53,0.5,,,,,,,,,,,,,,,,,,0,25,25,52,1,,,,,,,,,,,,,,,,,,,,,,,
,,,,,SPR24_010,20,Female,2024-04-08_10h34.04.958,jersey_experiment_5_v0,2023.2.2,Win32,85.47008547,,,,,,,,,,,,,,,,943.2927,944.3397,944.3397,945.7515,return,0.1985,,74.86979167,,,,,,FBP-RB-81.png,0.37,1.2,37,0.25,,,,,,,,,,,,,,,,,,0,26,26,36,1,,,,,,,,,,,,,,,,,,,,,,,
,,,,,SPR24_010,20,Female,2024-04-08_10h34.04.958,jersey_experiment_5_v0,2023.2.2,Win32,85.47008547,,,,,,,,,,,,,,,,945.7517,947.0457,947.0457,948.222,return,0.182,,82.421875,,,,,,FBP-YG-91.png,0.45,1.2,30,0.5,,,,,,,,,,,,,,,,,,0,27,27,29,1,,,,,,,,,,,,,,,,,,,,,,,
,,,,,SPR24_010,20,Female,2024-04-08_10h34.04.958,jersey_experiment_5_v0,2023.2.2,Win32,85.47008547,,,,,,,,,,,,,,,,948.2223,949.5164,949.5165,952.1282,return,0.1931,,57.68229167,,,,,,FBP-PT-71.png,0.37,1.2,47,0.5,,,,,,,,,,,,,,,,,,0,28,28,46,1,,,,,,,,,,,,,,,,,,,,,,,
,,,,,SPR24_010,20,Female,2024-04-08_10h34.04.958,jersey_experiment_5_v0,2023.2.2,Win32,85.47008547,,,,,,,,,,,,,,,,952.1284,953.4223,953.4224,954.6695,return,0.136,,54.16666667,,,,,,FBP-PT-81.png,0.37,1.2,52,0.5,,,,,,,,,,,,,,,,,,0,29,29,51,1,,,,,,,,,,,,,,,,,,,,,,,
,,,,,SPR24_010,20,Female,2024-04-08_10h34.04.958,jersey_experiment_5_v0,2023.2.2,Win32,85.47008547,,,,,,,,,,,,,,,,954.6697,955.9637,955.9637,957.5755,return,0.1779,,68.48958333,,,,,,FBP-PT-71.png,0.43,1.2,49,0.5,,,,,,,,,,,,,,,,,,0,30,30,48,1,,,,,,,,,,,,,,,,,,,,,,,
,,,,,SPR24_010,20,Female,2024-04-08_10h34.04.958,jersey_experiment_5_v0,2023.2.2,Win32,85.47008547,,,,,,,,,,,,,,,,957.5757,958.6225,958.6225,960.0344,return,0.1675,,79.296875,,,,,,FBP-OG-18.png,0.45,1.2,10,0.25,,,,,,,,,,,,,,,,,,0,31,31,9,1,,,,,,,,,,,,,,,,,,,,,,,
,,,,,SPR24_010,20,Female,2024-04-08_10h34.04.958,jersey_experiment_5_v0,2023.2.2,Win32,85.47008547,,,,,,,,,,,,,,,,960.0346,961.0817,961.0818,963.2346,return,0.2238,,46.09375,,,,,,FBP-OG-18.png,0.35,1.2,6,0.25,,,,,,,,,,,,,,,,,,0,32,32,5,1,,,,,,,,,,,,,,,,,,,,,,,
,,,,,SPR24_010,20,Female,2024-04-08_10h34.04.958,jersey_experiment_5_v0,2023.2.2,Win32,85.47008547,,,,,,,,,,,,,,,,963.2347,964.5286,964.5286,966.517,return,0.2484,,69.921875,,,,,,FBP-YG-91.png,0.4,1.2,28,0.5,,,,,,,,,,,,,,,,,,0,33,33,27,1,,,,,,,,,,,,,,,,,,,,,,,
,,,,,SPR24_010,20,Female,2024-04-08_10h34.04.958,jersey_experiment_5_v0,2023.2.2,Win32,85.47008547,,,,,,,,,,,,,,,,966.5172,967.8112,967.8112,969.8112,return,1.0256,,78.64583333,,,,,,FBP-YG-81.png,0.43,1.2,24,0.5,,,,,,,,,,,,,,,,,,0,34,34,23,1,,,,,,,,,,,,,,,,,,,,,,,
,,,,,SPR24_010,20,Female,2024-04-08_10h34.04.958,jersey_experiment_5_v0,2023.2.2,Win32,85.47008547,,,,,,,,,,,,,,,,969.8115,971.1053,971.1054,972.7172,return,0.2066,,46.875,,,,,,FBP-YG-81.png,0.35,1.2,21,0.5,,,,,,,,,,,,,,,,,,0,35,35,20,1,,,,,,,,,,,,,,,,,,,,,,,
,,,,,SPR24_010,20,Female,2024-04-08_10h34.04.958,jersey_experiment_5_v0,2023.2.2,Win32,85.47008547,,,,,,,,,,,,,,,,972.7174,973.7643,973.7644,975.4702,return,0.1953,,51.171875,,,,,,FBP-RB-91.png,0.37,1.2,42,0.25,,,,,,,,,,,,,,,,,,0,36,36,41,1,,,,,,,,,,,,,,,,,,,,,,,
,,,,,SPR24_010,20,Female,2024-04-08_10h34.04.958,jersey_experiment_5_v0,2023.2.2,Win32,85.47008547,,,,,,,,,,,,,,,,975.4704,976.7645,976.7645,978.8469,return,0.2062,,52.34375,,,,,,FBP-YG-71.png,0.37,1.2,17,0.5,,,,,,,,,,,,,,,,,,0,37,37,16,1,,,,,,,,,,,,,,,,,,,,,,,
,,,,,SPR24_010,20,Female,2024-04-08_10h34.04.958,jersey_experiment_5_v0,2023.2.2,Win32,85.47008547,,,,,,,,,,,,,,,,978.847,979.894,979.894,981.3176,return,0.2016,,58.85416667,,,,,,FBP-RB-91.png,0.4,1.2,43,0.25,,,,,,,,,,,,,,,,,,0,38,38,42,1,,,,,,,,,,,,,,,,,,,,,,,
,,,,,SPR24_010,20,Female,2024-04-08_10h34.04.958,jersey_experiment_5_v0,2023.2.2,Win32,85.47008547,,,,,,,,,,,,,,,,981.3178,982.3646,982.3647,984.2588,return,0.1893,,55.078125,,,,,,FBP-OG-19.png,0.35,1.2,11,0.25,,,,,,,,,,,,,,,,,,0,39,39,10,1,,,,,,,,,,,,,,,,,,,,,,,
,,,,,SPR24_010,20,Female,2024-04-08_10h34.04.958,jersey_experiment_5_v0,2023.2.2,Win32,85.47008547,,,,,,,,,,,,,,,,984.2591,985.5531,985.5531,988.271,return,0.1949,,52.60416667,,,,,,FBP-YG-91.png,0.35,1.2,26,0.5,,,,,,,,,,,,,,,,,,0,40,40,25,1,,,,,,,,,,,,,,,,,,,,,,,
,,,,,SPR24_010,20,Female,2024-04-08_10h34.04.958,jersey_experiment_5_v0,2023.2.2,Win32,85.47008547,,,,,,,,,,,,,,,,988.2711,989.3179,989.3179,990.8002,return,0.3096,,55.078125,,,,,,FBP-OG-19.png,0.37,1.2,12,0.25,,,,,,,,,,,,,,,,,,0,41,41,11,1,,,,,,,,,,,,,,,,,,,,,,,
,,,,,SPR24_010,20,Female,2024-04-08_10h34.04.958,jersey_experiment_5_v0,2023.2.2,Win32,85.47008547,,,,,,,,,,,,,,,,990.8005,992.0943,992.0944,993.2239,return,0.1778,,60.80729167,,,,,,FBP-PT-81.png,0.43,1.2,54,0.5,,,,,,,,,,,,,,,,,,0,42,42,53,1,,,,,,,,,,,,,,,,,,,,,,,
,,,,,SPR24_010,20,Female,2024-04-08_10h34.04.958,jersey_experiment_5_v0,2023.2.2,Win32,85.47008547,,,,,,,,,,,,,,,,993.2242,994.271,994.271,995.5062,return,0.203,,64.19270833,,,,,,FBP-OG-19.png,0.4,1.2,13,0.25,,,,,,,,,,,,,,,,,,0,43,43,12,1,,,,,,,,,,,,,,,,,,,,,,,
,,,,,SPR24_010,20,Female,2024-04-08_10h34.04.958,jersey_experiment_5_v0,2023.2.2,Win32,85.47008547,,,,,,,,,,,,,,,,995.5065,996.8006,996.8006,999.4476,return,1.1865,,49.73958333,,,,,,FBP-YG-71.png,0.35,1.2,16,0.5,,,,,,,,,,,,,,,,,,0,44,44,15,1,,,,,,,,,,,,,,,,,,,,,,,
,,,,,SPR24_010,20,Female,2024-04-08_10h34.04.958,jersey_experiment_5_v0,2023.2.2,Win32,85.47008547,,,,,,,,,,,,,,,,999.4478,1000.7418,1000.7419,1002.2242,return,0.1464,,62.5,,,,,,FBP-PT-91.png,0.45,1.2,60,0.5,,,,,,,,,,,,,,,,,,0,45,45,59,1,,,,,,,,,,,,,,,,,,,,,,,
,,,,,SPR24_010,20,Female,2024-04-08_10h34.04.958,jersey_experiment_5_v0,2023.2.2,Win32,85.47008547,,,,,,,,,,,,,,,,1002.2243,1003.5184,1003.5184,1004.4361,return,0.1048,,69.27083333,,,,,,FBP-PT-81.png,0.45,1.2,55,0.5,,,,,,,,,,,,,,,,,,0,46,46,54,1,,,,,,,,,,,,,,,,,,,,,,,
,,,,,SPR24_010,20,Female,2024-04-08_10h34.04.958,jersey_experiment_5_v0,2023.2.2,Win32,85.47008547,,,,,,,,,,,,,,,,1004.4362,1005.7301,1005.7302,1006.4832,return,0.1532,,75.78125,,,,,,FBP-PT-71.png,0.45,1.2,50,0.5,,,,,,,,,,,,,,,,,,0,47,47,49,1,,,,,,,,,,,,,,,,,,,,,,,
,,,,,SPR24_010,20,Female,2024-04-08_10h34.04.958,jersey_experiment_5_v0,2023.2.2,Win32,85.47008547,,,,,,,,,,,,,,,,1006.4834,1007.7773,1007.7773,1009.9068,return,1.0491,,37.23958333,,,,,,FBP-PT-71.png,0.35,1.2,46,0.5,,,,,,,,,,,,,,,,,,0,48,48,45,1,,,,,,,,,,,,,,,,,,,,,,,
,,,,,SPR24_010,20,Female,2024-04-08_10h34.04.958,jersey_experiment_5_v0,2023.2.2,Win32,85.47008547,,,,,,,,,,,,,,,,1009.9071,1011.2011,1011.2011,1013.6129,return,0.9592,,62.76041667,,,,,,FBP-YG-91.png,0.43,1.2,29,0.5,,,,,,,,,,,,,,,,,,0,49,49,28,1,,,,,,,,,,,,,,,,,,,,,,,
,,,,,SPR24_010,20,Female,2024-04-08_10h34.04.958,jersey_experiment_5_v0,2023.2.2,Win32,85.47008547,,,,,,,,,,,,,,,,1013.6131,1014.9069,1014.907,1017.672,return,0.1656,,58.984375,,,,,,FBP-PT-91.png,0.37,1.2,57,0.5,,,,,,,,,,,,,,,,,,0,50,50,56,1,,,,,,,,,,,,,,,,,,,,,,,
,,,,,SPR24_010,20,Female,2024-04-08_10h34.04.958,jersey_experiment_5_v0,2023.2.2,Win32,85.47008547,,,,,,,,,,,,,,,,1017.6722,1018.966,1018.9661,1021.0366,return,0.1951,,57.8125,,,,,,FBP-PT-71.png,0.4,1.2,48,0.5,,,,,,,,,,,,,,,,,,0,51,51,47,1,,,,,,,,,,,,,,,,,,,,,,,
,,,,,SPR24_010,20,Female,2024-04-08_10h34.04.958,jersey_experiment_5_v0,2023.2.2,Win32,85.47008547,,,,,,,,,,,,,,,,1021.0369,1022.0837,1022.0837,1025.6957,return,1.2506,,67.83854167,,,,,,FBP-RB-71.png,0.43,1.2,34,0.25,,,,,,,,,,,,,,,,,,0,52,52,33,1,,,,,,,,,,,,,,,,,,,,,,,
,,,,,SPR24_010,20,Female,2024-04-08_10h34.04.958,jersey_experiment_5_v0,2023.2.2,Win32,85.47008547,,,,,,,,,,,,,,,,1025.6959,1026.9899,1026.99,1029.3428,return,0.1699,,58.203125,,,,,,FBP-YG-81.png,0.4,1.2,23,0.5,,,,,,,,,,,,,,,,,,0,53,53,22,1,,,,,,,,,,,,,,,,,,,,,,,
,,,,,SPR24_010,20,Female,2024-04-08_10h34.04.958,jersey_experiment_5_v0,2023.2.2,Win32,85.47008547,,,,,,,,,,,,,,,,1029.3431,1030.3899,1030.3899,1031.8135,return,0.2111,,65.88541667,,,,,,FBP-RB-81.png,0.45,1.2,40,0.25,,,,,,,,,,,,,,,,,,0,54,54,39,1,,,,,,,,,,,,,,,,,,,,,,,
,,,,,SPR24_010,20,Female,2024-04-08_10h34.04.958,jersey_experiment_5_v0,2023.2.2,Win32,85.47008547,,,,,,,,,,,,,,,,1031.8137,1033.1077,1033.1078,1035.2136,return,0.2429,,66.40625,,,,,,FBP-PT-91.png,0.43,1.2,59,0.5,,,,,,,,,,,,,,,,,,0,55,55,58,1,,,,,,,,,,,,,,,,,,,,,,,
,,,,,SPR24_010,20,Female,2024-04-08_10h34.04.958,jersey_experiment_5_v0,2023.2.2,Win32,85.47008547,,,,,,,,,,,,,,,,1035.2139,1036.2608,1036.2609,1039.3315,return,1.8611,,50,,,,,,FBP-OG-17.png,0.4,1.2,3,0.25,,,,,,,,,,,,,,,,,,0,56,56,2,1,,,,,,,,,,,,,,,,,,,,,,,
,,,,,SPR24_010,20,Female,2024-04-08_10h34.04.958,jersey_experiment_5_v0,2023.2.2,Win32,85.47008547,,,,,,,,,,,,,,,,1039.3317,1040.3786,1040.3786,1042.5905,return,0.1598,,27.99479167,,,,,,FBP-OG-17.png,0.35,1.2,1,0.25,,,,,,,,,,,,,,,,,,0,57,57,0,1,,,,,,,,,,,,,,,,,,,,,,,
,,,,,SPR24_010,20,Female,2024-04-08_10h34.04.958,jersey_experiment_5_v0,2023.2.2,Win32,85.47008547,,,,,,,,,,,,,,,,1042.5906,1043.6375,1043.6375,1045.6965,return,0.2517,,59.375,,,,,,FBP-OG-18.png,0.43,1.2,9,0.25,,,,,,,,,,,,,,,,,,0,58,58,8,1,,,,,,,,,,,,,,,,,,,,,,,
,,,,,SPR24_010,20,Female,2024-04-08_10h34.04.958,jersey_experiment_5_v0,2023.2.2,Win32,85.47008547,,,,,,,,,,,,,,,,1045.6967,1046.9906,1046.9906,1049.3789,return,0.1769,,61.71875,,,,,,FBP-YG-71.png,0.4,1.2,18,0.5,,,,,,,,,,,,,,,,,,0,59,59,17,1,,,,,,,,,,,,,,,,,,,,,,,
,,,,,SPR24_010,20,Female,2024-04-08_10h34.04.958,jersey_experiment_5_v0,2023.2.2,Win32,85.47008547,,,,,,,,,,,,,,,,,,,,,,,,,,,,,,,,,,,,,,,,,,,,,,,,,,,,,,,,1049.3794,1054.3441,return,4.9509,,,,,,,,,,,,,,,,,,,
,,,,,SPR24_010,20,Female,2024-04-08_10h34.04.958,jersey_experiment_5_v0,2023.2.2,Win32,85.47008547,,,,,,,,,,,,,,,,,,,,,,,,,,,,,,,,,,,,,,,,,,,,,,,,,,,,,,,,,,,,,1054.3442,1058.6148,1,2.7531,return,1.4959,,,,,,,,,,,,
,,,,,SPR24_010,20,Female,2024-04-08_10h34.04.958,jersey_experiment_5_v0,2023.2.2,Win32,85.47008547,,,,,,,,,,,,,,,,,,,,,,,,,,,,,,,,,,,,,,,,,,,,,,,,,,,,,,,,,,,,,,,,,,,,1058.6149,1122.9397,The study might be trying to compare how black vs white football players are perceived in terms of huskiness/slenderness,right,52.2001,,,,,,
,,,,,SPR24_010,20,Female,2024-04-08_10h34.04.958,jersey_experiment_5_v0,2023.2.2,Win32,85.47008547,,,,,,,,,,,,,,,,,,,,,,,,,,,,,,,,,,,,,,,,,,,,,,,,,,,,,,,,,,,,,,,,,,,,,,,,,,1122.9397,1126.4642,return,3.5107,