requirements.started,requirements.stopped,key_resp_3.keys,key_resp_3.rt,key_resp_3.duration,Subject ID,Age,Gender,date,expName,psychopyVersion,OS,frameRate,instructions1.started,instructions1.stopped,key_resp.keys,key_resp.rt,key_resp.duration,example.started,example.stopped,enter_2.keys,enter_2.rt,enter_2.duration,instructions2.started,instructions2.stopped,enter_3.keys,enter_3.rt,enter_3.duration,image.started,image.stopped,slider_2.started,slider_2.stopped,next.keys,next.rt,next.duration,slider.response,trial_block_1.thisRepN,trial_block_1.thisTrialN,trial_block_1.thisN,trial_block_1.thisIndex,trial_block_1.ran,Path,Width,Height,Index,Duration,trial_block_2.thisRepN,trial_block_2.thisTrialN,trial_block_2.thisN,trial_block_2.thisIndex,trial_block_2.ran,rest_break.started,rest_break.stopped,end_break.started,end_break.stopped,key_resp_5.keys,key_resp_5.rt,key_resp_5.duration,trial_block_3.thisRepN,trial_block_3.thisTrialN,trial_block_3.thisN,trial_block_3.thisIndex,trial_block_3.ran,trial_block_4.thisRepN,trial_block_4.thisTrialN,trial_block_4.thisN,trial_block_4.thisIndex,trial_block_4.ran,questions_intro.started,questions_intro.stopped,enter_12.keys,enter_12.rt,enter_12.duration,question2.started,question2.stopped,question_doingbest.response,question_doingbest.rt,enter_15.keys,enter_15.rt,enter_15.duration,pattern.started,pattern.stopped,pattern_2.text,enter_17.keys,enter_17.rt,enter_17.duration,thankyou.started,thankyou.stopped,enter_14.keys,enter_14.rt,enter_14.duration
0.0001,9.7568,return,9.7477,,SPR24_053,20,Female,2024-04-16_15h36.41.866,jersey_experiment_5_v0,2023.2.2,Win32,84.03361345,,,,,,,,,,,,,,,,,,,,,,,,,,,,,,,,,,,,,,,,,,,,,,,,,,,,,,,,,,,,,,,,,,,,,,,,,,,,,,
,,,,,SPR24_053,20,Female,2024-04-16_15h36.41.866,jersey_experiment_5_v0,2023.2.2,Win32,84.03361345,9.7569,20.463,return,10.6924,,,,,,,,,,,,,,,,,,,,,,,,,,,,,,,,,,,,,,,,,,,,,,,,,,,,,,,,,,,,,,,,,,,,,,,,,,
,,,,,SPR24_053,20,Female,2024-04-16_15h36.41.866,jersey_experiment_5_v0,2023.2.2,Win32,84.03361345,,,,,,20.4631,26.0866,return,5.594,,,,,,,,,,,,,,,,,,,,,,,,,,,,,,,,,,,,,,,,,,,,,,,,,,,,,,,,,,,,,,,,,,,,,
,,,,,SPR24_053,20,Female,2024-04-16_15h36.41.866,jersey_experiment_5_v0,2023.2.2,Win32,84.03361345,,,,,,,,,,,26.0868,45.3698,return,19.2719,,,,,,,,,,,,,,,,,,,,,,,,,,,,,,,,,,,,,,,,,,,,,,,,,,,,,,,,,,,,,,,,
,,,,,SPR24_053,20,Female,2024-04-16_15h36.41.866,jersey_experiment_5_v0,2023.2.2,Win32,84.03361345,,,,,,,,,,,,,,,,45.3766,46.4285,46.4286,60.6997,return,2.3885,,64.32291667,0,0,0,24,1,FBP-YG-18.png,0.45,1.2,25,0.25,,,,,,,,,,,,,,,,,,,,,,,,,,,,,,,,,,,,,,,,,,,,,
,,,,,SPR24_053,20,Female,2024-04-16_15h36.41.866,jersey_experiment_5_v0,2023.2.2,Win32,84.03361345,,,,,,,,,,,,,,,,60.7,61.9935,61.9937,64.8054,return,1.9836,,63.80208333,0,1,1,6,1,FBP-OG-81.png,0.37,1.2,7,0.5,,,,,,,,,,,,,,,,,,,,,,,,,,,,,,,,,,,,,,,,,,,,,
,,,,,SPR24_053,20,Female,2024-04-16_15h36.41.866,jersey_experiment_5_v0,2023.2.2,Win32,84.03361345,,,,,,,,,,,,,,,,64.8056,66.0996,66.0997,67.8526,return,1.1069,,63.80208333,0,2,2,11,1,FBP-OG-91.png,0.37,1.2,12,0.5,,,,,,,,,,,,,,,,,,,,,,,,,,,,,,,,,,,,,,,,,,,,,
,,,,,SPR24_053,20,Female,2024-04-16_15h36.41.866,jersey_experiment_5_v0,2023.2.2,Win32,84.03361345,,,,,,,,,,,,,,,,67.8529,69.1467,69.1467,71.241,return,1.4491,,63.80208333,0,3,3,1,1,FBP-OG-71.png,0.37,1.2,2,0.5,,,,,,,,,,,,,,,,,,,,,,,,,,,,,,,,,,,,,,,,,,,,,
,,,,,SPR24_053,20,Female,2024-04-16_15h36.41.866,jersey_experiment_5_v0,2023.2.2,Win32,84.03361345,,,,,,,,,,,,,,,,71.2412,72.2881,72.2882,74.4647,return,0.6924,,73.828125,0,4,4,19,1,FBP-YG-17.png,0.45,1.2,20,0.25,,,,,,,,,,,,,,,,,,,,,,,,,,,,,,,,,,,,,,,,,,,,,
,,,,,SPR24_053,20,Female,2024-04-16_15h36.41.866,jersey_experiment_5_v0,2023.2.2,Win32,84.03361345,,,,,,,,,,,,,,,,74.465,75.5117,75.5118,77.4177,return,0.9671,,73.828125,0,5,5,54,1,FBP-PT-18.png,0.45,1.2,55,0.25,,,,,,,,,,,,,,,,,,,,,,,,,,,,,,,,,,,,,,,,,,,,,
,,,,,SPR24_053,20,Female,2024-04-16_15h36.41.866,jersey_experiment_5_v0,2023.2.2,Win32,84.03361345,,,,,,,,,,,,,,,,77.4179,78.4647,78.4648,80.7825,return,0.6727,,44.40104167,0,6,6,46,1,FBP-PT-17.png,0.37,1.2,47,0.25,,,,,,,,,,,,,,,,,,,,,,,,,,,,,,,,,,,,,,,,,,,,,
,,,,,SPR24_053,20,Female,2024-04-16_15h36.41.866,jersey_experiment_5_v0,2023.2.2,Win32,84.03361345,,,,,,,,,,,,,,,,80.7828,81.8295,81.8295,83.5357,return,0.4239,,31.38020833,0,7,7,50,1,FBP-PT-18.png,0.35,1.2,51,0.25,,,,,,,,,,,,,,,,,,,,,,,,,,,,,,,,,,,,,,,,,,,,,
,,,,,SPR24_053,20,Female,2024-04-16_15h36.41.866,jersey_experiment_5_v0,2023.2.2,Win32,84.03361345,,,,,,,,,,,,,,,,83.5359,84.8296,84.8296,86.5356,return,0.5108,,29.6875,0,8,8,41,1,FBP-RB-19.png,0.37,1.2,42,0.5,,,,,,,,,,,,,,,,,,,,,,,,,,,,,,,,,,,,,,,,,,,,,
,,,,,SPR24_053,20,Female,2024-04-16_15h36.41.866,jersey_experiment_5_v0,2023.2.2,Win32,84.03361345,,,,,,,,,,,,,,,,86.5357,87.5827,87.5828,89.8181,return,0.3309,,47.52604167,0,9,9,56,1,FBP-PT-19.png,0.37,1.2,57,0.25,,,,,,,,,,,,,,,,,,,,,,,,,,,,,,,,,,,,,,,,,,,,,
,,,,,SPR24_053,20,Female,2024-04-16_15h36.41.866,jersey_experiment_5_v0,2023.2.2,Win32,84.03361345,,,,,,,,,,,,,,,,89.8182,91.1122,91.1123,92.7947,return,0.5537,,47.265625,0,10,10,32,1,FBP-RB-17.png,0.4,1.2,33,0.5,,,,,,,,,,,,,,,,,,,,,,,,,,,,,,,,,,,,,,,,,,,,,
,,,,,SPR24_053,20,Female,2024-04-16_15h36.41.866,jersey_experiment_5_v0,2023.2.2,Win32,84.03361345,,,,,,,,,,,,,,,,92.7949,94.0888,94.0889,95.1948,return,0.2725,,48.95833333,0,11,11,7,1,FBP-OG-81.png,0.4,1.2,8,0.5,,,,,,,,,,,,,,,,,,,,,,,,,,,,,,,,,,,,,,,,,,,,,
,,,,,SPR24_053,20,Female,2024-04-16_15h36.41.866,jersey_experiment_5_v0,2023.2.2,Win32,84.03361345,,,,,,,,,,,,,,,,95.195,96.4889,96.4889,98.0889,return,0.3212,,26.69270833,0,12,12,0,1,FBP-OG-71.png,0.35,1.2,1,0.5,,,,,,,,,,,,,,,,,,,,,,,,,,,,,,,,,,,,,,,,,,,,,
,,,,,SPR24_053,20,Female,2024-04-16_15h36.41.866,jersey_experiment_5_v0,2023.2.2,Win32,84.03361345,,,,,,,,,,,,,,,,98.0892,99.1361,99.1362,100.8421,return,0.2966,,63.41145833,0,13,13,48,1,FBP-PT-17.png,0.43,1.2,49,0.25,,,,,,,,,,,,,,,,,,,,,,,,,,,,,,,,,,,,,,,,,,,,,
,,,,,SPR24_053,20,Female,2024-04-16_15h36.41.866,jersey_experiment_5_v0,2023.2.2,Win32,84.03361345,,,,,,,,,,,,,,,,100.8423,102.1362,102.1362,103.254,return,0.1951,,75.52083333,0,14,14,33,1,FBP-RB-17.png,0.43,1.2,34,0.5,,,,,,,,,,,,,,,,,,,,,,,,,,,,,,,,,,,,,,,,,,,,,
,,,,,SPR24_053,20,Female,2024-04-16_15h36.41.866,jersey_experiment_5_v0,2023.2.2,Win32,84.03361345,,,,,,,,,,,,,,,,103.2542,104.3009,104.3009,105.4306,return,0.1335,,69.53125,0,15,15,28,1,FBP-YG-19.png,0.43,1.2,29,0.25,,,,,,,,,,,,,,,,,,,,,,,,,,,,,,,,,,,,,,,,,,,,,
,,,,,SPR24_053,20,Female,2024-04-16_15h36.41.866,jersey_experiment_5_v0,2023.2.2,Win32,84.03361345,,,,,,,,,,,,,,,,105.4307,106.4776,106.4776,108.0071,return,0.1231,,37.890625,0,16,16,26,1,FBP-YG-19.png,0.37,1.2,27,0.25,,,,,,,,,,,,,,,,,,,,,,,,,,,,,,,,,,,,,,,,,,,,,
,,,,,SPR24_053,20,Female,2024-04-16_15h36.41.866,jersey_experiment_5_v0,2023.2.2,Win32,84.03361345,,,,,,,,,,,,,,,,108.0074,109.3012,109.3012,110.5011,return,0.1017,,33.07291667,0,17,17,31,1,FBP-RB-17.png,0.37,1.2,32,0.5,,,,,,,,,,,,,,,,,,,,,,,,,,,,,,,,,,,,,,,,,,,,,
,,,,,SPR24_053,20,Female,2024-04-16_15h36.41.866,jersey_experiment_5_v0,2023.2.2,Win32,84.03361345,,,,,,,,,,,,,,,,110.5014,111.5483,111.5484,113.2073,return,0.2068,,82.55208333,0,18,18,59,1,FBP-PT-19.png,0.45,1.2,60,0.25,,,,,,,,,,,,,,,,,,,,,,,,,,,,,,,,,,,,,,,,,,,,,
,,,,,SPR24_053,20,Female,2024-04-16_15h36.41.866,jersey_experiment_5_v0,2023.2.2,Win32,84.03361345,,,,,,,,,,,,,,,,113.2074,114.5013,114.5013,115.2309,return,0.2356,,81.90104167,0,19,19,38,1,FBP-RB-18.png,0.43,1.2,39,0.5,,,,,,,,,,,,,,,,,,,,,,,,,,,,,,,,,,,,,,,,,,,,,
,,,,,SPR24_053,20,Female,2024-04-16_15h36.41.866,jersey_experiment_5_v0,2023.2.2,Win32,84.03361345,,,,,,,,,,,,,,,,115.2311,116.525,116.5251,117.7369,return,0.1464,,32.55208333,0,20,20,10,1,FBP-OG-91.png,0.35,1.2,11,0.5,,,,,,,,,,,,,,,,,,,,,,,,,,,,,,,,,,,,,,,,,,,,,
,,,,,SPR24_053,20,Female,2024-04-16_15h36.41.866,jersey_experiment_5_v0,2023.2.2,Win32,84.03361345,,,,,,,,,,,,,,,,117.7372,119.0309,119.0311,120.125,return,0.6494,,33.46354167,0,21,21,30,1,FBP-RB-17.png,0.35,1.2,31,0.5,,,,,,,,,,,,,,,,,,,,,,,,,,,,,,,,,,,,,,,,,,,,,
,,,,,SPR24_053,20,Female,2024-04-16_15h36.41.866,jersey_experiment_5_v0,2023.2.2,Win32,84.03361345,,,,,,,,,,,,,,,,120.1253,121.1722,121.1722,122.9605,return,0.669,,37.109375,0,22,22,21,1,FBP-YG-18.png,0.37,1.2,22,0.25,,,,,,,,,,,,,,,,,,,,,,,,,,,,,,,,,,,,,,,,,,,,,
,,,,,SPR24_053,20,Female,2024-04-16_15h36.41.866,jersey_experiment_5_v0,2023.2.2,Win32,84.03361345,,,,,,,,,,,,,,,,122.9607,124.0076,124.0076,125.4196,return,0.5887,,37.23958333,0,23,23,27,1,FBP-YG-19.png,0.4,1.2,28,0.25,,,,,,,,,,,,,,,,,,,,,,,,,,,,,,,,,,,,,,,,,,,,,
,,,,,SPR24_053,20,Female,2024-04-16_15h36.41.866,jersey_experiment_5_v0,2023.2.2,Win32,84.03361345,,,,,,,,,,,,,,,,125.4198,126.7136,126.7136,127.5959,return,0.224,,58.203125,0,24,24,8,1,FBP-OG-81.png,0.43,1.2,9,0.5,,,,,,,,,,,,,,,,,,,,,,,,,,,,,,,,,,,,,,,,,,,,,
,,,,,SPR24_053,20,Female,2024-04-16_15h36.41.866,jersey_experiment_5_v0,2023.2.2,Win32,84.03361345,,,,,,,,,,,,,,,,127.5962,128.8901,128.8901,130.0901,return,0.1781,,27.34375,0,25,25,40,1,FBP-RB-19.png,0.35,1.2,41,0.5,,,,,,,,,,,,,,,,,,,,,,,,,,,,,,,,,,,,,,,,,,,,,
,,,,,SPR24_053,20,Female,2024-04-16_15h36.41.866,jersey_experiment_5_v0,2023.2.2,Win32,84.03361345,,,,,,,,,,,,,,,,130.0903,131.1374,131.1374,132.5373,return,0.1456,,69.140625,0,26,26,18,1,FBP-YG-17.png,0.43,1.2,19,0.25,,,,,,,,,,,,,,,,,,,,,,,,,,,,,,,,,,,,,,,,,,,,,
,,,,,SPR24_053,20,Female,2024-04-16_15h36.41.866,jersey_experiment_5_v0,2023.2.2,Win32,84.03361345,,,,,,,,,,,,,,,,132.5374,133.8314,133.8315,135.1139,return,0.1571,,29.55729167,0,27,27,5,1,FBP-OG-81.png,0.35,1.2,6,0.5,,,,,,,,,,,,,,,,,,,,,,,,,,,,,,,,,,,,,,,,,,,,,
,,,,,SPR24_053,20,Female,2024-04-16_15h36.41.866,jersey_experiment_5_v0,2023.2.2,Win32,84.03361345,,,,,,,,,,,,,,,,135.1141,136.4082,136.4083,137.408,return,0.1651,,84.24479167,0,28,28,39,1,FBP-RB-18.png,0.45,1.2,40,0.5,,,,,,,,,,,,,,,,,,,,,,,,,,,,,,,,,,,,,,,,,,,,,
,,,,,SPR24_053,20,Female,2024-04-16_15h36.41.866,jersey_experiment_5_v0,2023.2.2,Win32,84.03361345,,,,,,,,,,,,,,,,137.4082,138.4553,138.4553,139.8552,return,0.1884,,58.203125,0,29,29,47,1,FBP-PT-17.png,0.4,1.2,48,0.25,,,,,,,,,,,,,,,,,,,,,,,,,,,,,,,,,,,,,,,,,,,,,
,,,,,SPR24_053,20,Female,2024-04-16_15h36.41.866,jersey_experiment_5_v0,2023.2.2,Win32,84.03361345,,,,,,,,,,,,,,,,139.8553,140.9023,140.9024,142.3024,return,0.1888,,50,0,30,30,52,1,FBP-PT-18.png,0.4,1.2,53,0.25,,,,,,,,,,,,,,,,,,,,,,,,,,,,,,,,,,,,,,,,,,,,,
,,,,,SPR24_053,20,Female,2024-04-16_15h36.41.866,jersey_experiment_5_v0,2023.2.2,Win32,84.03361345,,,,,,,,,,,,,,,,142.3026,143.3495,143.3495,144.4554,return,0.193,,65.10416667,0,31,31,57,1,FBP-PT-19.png,0.4,1.2,58,0.25,,,,,,,,,,,,,,,,,,,,,,,,,,,,,,,,,,,,,,,,,,,,,
,,,,,SPR24_053,20,Female,2024-04-16_15h36.41.866,jersey_experiment_5_v0,2023.2.2,Win32,84.03361345,,,,,,,,,,,,,,,,144.4556,145.5025,145.5026,146.938,return,0.1454,,27.47395833,0,32,32,45,1,FBP-PT-17.png,0.35,1.2,46,0.25,,,,,,,,,,,,,,,,,,,,,,,,,,,,,,,,,,,,,,,,,,,,,
,,,,,SPR24_053,20,Female,2024-04-16_15h36.41.866,jersey_experiment_5_v0,2023.2.2,Win32,84.03361345,,,,,,,,,,,,,,,,146.9382,147.9849,147.9851,148.8908,return,0.2255,,45.703125,0,33,33,17,1,FBP-YG-17.png,0.4,1.2,18,0.25,,,,,,,,,,,,,,,,,,,,,,,,,,,,,,,,,,,,,,,,,,,,,
,,,,,SPR24_053,20,Female,2024-04-16_15h36.41.866,jersey_experiment_5_v0,2023.2.2,Win32,84.03361345,,,,,,,,,,,,,,,,148.891,149.938,149.938,150.9498,return,0.1707,,29.42708333,0,34,34,55,1,FBP-PT-19.png,0.35,1.2,56,0.25,,,,,,,,,,,,,,,,,,,,,,,,,,,,,,,,,,,,,,,,,,,,,
,,,,,SPR24_053,20,Female,2024-04-16_15h36.41.866,jersey_experiment_5_v0,2023.2.2,Win32,84.03361345,,,,,,,,,,,,,,,,150.95,151.9969,151.9969,153.1264,return,0.1354,,29.16666667,0,35,35,15,1,FBP-YG-17.png,0.35,1.2,16,0.25,,,,,,,,,,,,,,,,,,,,,,,,,,,,,,,,,,,,,,,,,,,,,
,,,,,SPR24_053,20,Female,2024-04-16_15h36.41.866,jersey_experiment_5_v0,2023.2.2,Win32,84.03361345,,,,,,,,,,,,,,,,153.1266,154.4209,154.4209,155.6325,return,0.1784,,76.30208333,0,36,36,34,1,FBP-RB-17.png,0.45,1.2,35,0.5,,,,,,,,,,,,,,,,,,,,,,,,,,,,,,,,,,,,,,,,,,,,,
,,,,,SPR24_053,20,Female,2024-04-16_15h36.41.866,jersey_experiment_5_v0,2023.2.2,Win32,84.03361345,,,,,,,,,,,,,,,,155.6327,156.9265,156.9265,157.6088,return,0.1443,,74.47916667,0,37,37,42,1,FBP-RB-19.png,0.4,1.2,43,0.5,,,,,,,,,,,,,,,,,,,,,,,,,,,,,,,,,,,,,,,,,,,,,
,,,,,SPR24_053,20,Female,2024-04-16_15h36.41.866,jersey_experiment_5_v0,2023.2.2,Win32,84.03361345,,,,,,,,,,,,,,,,157.6091,158.903,158.9031,159.5972,return,0.1419,,85.02604167,0,38,38,9,1,FBP-OG-81.png,0.45,1.2,10,0.5,,,,,,,,,,,,,,,,,,,,,,,,,,,,,,,,,,,,,,,,,,,,,
,,,,,SPR24_053,20,Female,2024-04-16_15h36.41.866,jersey_experiment_5_v0,2023.2.2,Win32,84.03361345,,,,,,,,,,,,,,,,159.5975,160.8913,160.8913,161.3972,return,0.2318,,85.02604167,0,39,39,43,1,FBP-RB-19.png,0.43,1.2,44,0.5,,,,,,,,,,,,,,,,,,,,,,,,,,,,,,,,,,,,,,,,,,,,,
,,,,,SPR24_053,20,Female,2024-04-16_15h36.41.866,jersey_experiment_5_v0,2023.2.2,Win32,84.03361345,,,,,,,,,,,,,,,,161.3975,162.4443,162.4444,163.1621,return,0.1191,,85.02604167,0,40,40,58,1,FBP-PT-19.png,0.43,1.2,59,0.25,,,,,,,,,,,,,,,,,,,,,,,,,,,,,,,,,,,,,,,,,,,,,
,,,,,SPR24_053,20,Female,2024-04-16_15h36.41.866,jersey_experiment_5_v0,2023.2.2,Win32,84.03361345,,,,,,,,,,,,,,,,163.1623,164.209,164.209,165.2798,return,0.1651,,38.41145833,0,41,41,16,1,FBP-YG-17.png,0.37,1.2,17,0.25,,,,,,,,,,,,,,,,,,,,,,,,,,,,,,,,,,,,,,,,,,,,,
,,,,,SPR24_053,20,Female,2024-04-16_15h36.41.866,jersey_experiment_5_v0,2023.2.2,Win32,84.03361345,,,,,,,,,,,,,,,,165.2799,166.5742,166.5742,167.6327,return,0.2116,,50.78125,0,42,42,2,1,FBP-OG-71.png,0.4,1.2,3,0.5,,,,,,,,,,,,,,,,,,,,,,,,,,,,,,,,,,,,,,,,,,,,,
,,,,,SPR24_053,20,Female,2024-04-16_15h36.41.866,jersey_experiment_5_v0,2023.2.2,Win32,84.03361345,,,,,,,,,,,,,,,,167.6329,168.6797,168.6798,169.88,return,0.2176,,32.421875,0,43,43,25,1,FBP-YG-19.png,0.35,1.2,26,0.25,,,,,,,,,,,,,,,,,,,,,,,,,,,,,,,,,,,,,,,,,,,,,
,,,,,SPR24_053,20,Female,2024-04-16_15h36.41.866,jersey_experiment_5_v0,2023.2.2,Win32,84.03361345,,,,,,,,,,,,,,,,169.8802,170.9271,170.9272,172.0801,return,0.1411,,70.57291667,0,44,44,23,1,FBP-YG-18.png,0.43,1.2,24,0.25,,,,,,,,,,,,,,,,,,,,,,,,,,,,,,,,,,,,,,,,,,,,,
,,,,,SPR24_053,20,Female,2024-04-16_15h36.41.866,jersey_experiment_5_v0,2023.2.2,Win32,84.03361345,,,,,,,,,,,,,,,,172.0803,173.3743,173.3743,174.68,return,0.2044,,60.546875,0,45,45,12,1,FBP-OG-91.png,0.4,1.2,13,0.5,,,,,,,,,,,,,,,,,,,,,,,,,,,,,,,,,,,,,,,,,,,,,
,,,,,SPR24_053,20,Female,2024-04-16_15h36.41.866,jersey_experiment_5_v0,2023.2.2,Win32,84.03361345,,,,,,,,,,,,,,,,174.6803,175.7272,175.7272,176.7508,return,0.1756,,68.75,0,46,46,53,1,FBP-PT-18.png,0.43,1.2,54,0.25,,,,,,,,,,,,,,,,,,,,,,,,,,,,,,,,,,,,,,,,,,,,,
,,,,,SPR24_053,20,Female,2024-04-16_15h36.41.866,jersey_experiment_5_v0,2023.2.2,Win32,84.03361345,,,,,,,,,,,,,,,,176.7511,177.7977,177.7977,179.3861,return,0.6026,,41.53645833,0,47,47,51,1,FBP-PT-18.png,0.37,1.2,52,0.25,,,,,,,,,,,,,,,,,,,,,,,,,,,,,,,,,,,,,,,,,,,,,
,,,,,SPR24_053,20,Female,2024-04-16_15h36.41.866,jersey_experiment_5_v0,2023.2.2,Win32,84.03361345,,,,,,,,,,,,,,,,179.3863,180.6802,180.6802,181.7274,return,0.155,,76.953125,0,48,48,44,1,FBP-RB-19.png,0.45,1.2,45,0.5,,,,,,,,,,,,,,,,,,,,,,,,,,,,,,,,,,,,,,,,,,,,,
,,,,,SPR24_053,20,Female,2024-04-16_15h36.41.866,jersey_experiment_5_v0,2023.2.2,Win32,84.03361345,,,,,,,,,,,,,,,,181.7277,183.0217,183.0217,184.0569,return,0.064,,77.34375,0,49,49,37,1,FBP-RB-18.png,0.4,1.2,38,0.5,,,,,,,,,,,,,,,,,,,,,,,,,,,,,,,,,,,,,,,,,,,,,
,,,,,SPR24_053,20,Female,2024-04-16_15h36.41.866,jersey_experiment_5_v0,2023.2.2,Win32,84.03361345,,,,,,,,,,,,,,,,184.0572,185.104,185.104,186.4219,return,0.136,,49.47916667,0,50,50,22,1,FBP-YG-18.png,0.4,1.2,23,0.25,,,,,,,,,,,,,,,,,,,,,,,,,,,,,,,,,,,,,,,,,,,,,
,,,,,SPR24_053,20,Female,2024-04-16_15h36.41.866,jersey_experiment_5_v0,2023.2.2,Win32,84.03361345,,,,,,,,,,,,,,,,186.4221,187.7159,187.7159,188.6689,return,0.1783,,44.01041667,0,51,51,36,1,FBP-RB-18.png,0.37,1.2,37,0.5,,,,,,,,,,,,,,,,,,,,,,,,,,,,,,,,,,,,,,,,,,,,,
,,,,,SPR24_053,20,Female,2024-04-16_15h36.41.866,jersey_experiment_5_v0,2023.2.2,Win32,84.03361345,,,,,,,,,,,,,,,,188.6692,189.7159,189.716,190.7279,return,0.0766,,20.3125,0,52,52,20,1,FBP-YG-18.png,0.35,1.2,21,0.25,,,,,,,,,,,,,,,,,,,,,,,,,,,,,,,,,,,,,,,,,,,,,
,,,,,SPR24_053,20,Female,2024-04-16_15h36.41.866,jersey_experiment_5_v0,2023.2.2,Win32,84.03361345,,,,,,,,,,,,,,,,190.7281,192.0221,192.0221,192.9514,return,0.0759,,73.30729167,0,53,53,13,1,FBP-OG-91.png,0.43,1.2,14,0.5,,,,,,,,,,,,,,,,,,,,,,,,,,,,,,,,,,,,,,,,,,,,,
,,,,,SPR24_053,20,Female,2024-04-16_15h36.41.866,jersey_experiment_5_v0,2023.2.2,Win32,84.03361345,,,,,,,,,,,,,,,,192.9517,193.9983,193.9984,194.9985,return,0.1227,,85.546875,0,54,54,29,1,FBP-YG-19.png,0.45,1.2,30,0.25,,,,,,,,,,,,,,,,,,,,,,,,,,,,,,,,,,,,,,,,,,,,,
,,,,,SPR24_053,20,Female,2024-04-16_15h36.41.866,jersey_experiment_5_v0,2023.2.2,Win32,84.03361345,,,,,,,,,,,,,,,,194.9987,196.2926,196.2927,197.5044,return,0.0947,,86.97916667,0,55,55,4,1,FBP-OG-71.png,0.45,1.2,5,0.5,,,,,,,,,,,,,,,,,,,,,,,,,,,,,,,,,,,,,,,,,,,,,
,,,,,SPR24_053,20,Female,2024-04-16_15h36.41.866,jersey_experiment_5_v0,2023.2.2,Win32,84.03361345,,,,,,,,,,,,,,,,197.5046,198.7986,198.7986,199.528,return,0.5471,,86.97916667,0,56,56,3,1,FBP-OG-71.png,0.43,1.2,4,0.5,,,,,,,,,,,,,,,,,,,,,,,,,,,,,,,,,,,,,,,,,,,,,
,,,,,SPR24_053,20,Female,2024-04-16_15h36.41.866,jersey_experiment_5_v0,2023.2.2,Win32,84.03361345,,,,,,,,,,,,,,,,199.5283,200.5751,200.5752,201.5165,return,0.1078,,86.97916667,0,57,57,49,1,FBP-PT-17.png,0.45,1.2,50,0.25,,,,,,,,,,,,,,,,,,,,,,,,,,,,,,,,,,,,,,,,,,,,,
,,,,,SPR24_053,20,Female,2024-04-16_15h36.41.866,jersey_experiment_5_v0,2023.2.2,Win32,84.03361345,,,,,,,,,,,,,,,,201.5167,202.8104,202.8104,203.2458,return,0.152,,86.97916667,0,58,58,14,1,FBP-OG-91.png,0.45,1.2,15,0.5,,,,,,,,,,,,,,,,,,,,,,,,,,,,,,,,,,,,,,,,,,,,,
,,,,,SPR24_053,20,Female,2024-04-16_15h36.41.866,jersey_experiment_5_v0,2023.2.2,Win32,84.03361345,,,,,,,,,,,,,,,,203.2459,204.5401,204.5401,205.3049,return,0.0978,,32.8125,0,59,59,35,1,FBP-RB-18.png,0.35,1.2,36,0.5,,,,,,,,,,,,,,,,,,,,,,,,,,,,,,,,,,,,,,,,,,,,,
,,,,,SPR24_053,20,Female,2024-04-16_15h36.41.866,jersey_experiment_5_v0,2023.2.2,Win32,84.03361345,,,,,,,,,,,,,,,,205.3065,206.3517,206.3517,207.4224,return,0.1422,,68.75,,,,,,FBP-YG-81.png,0.45,1.2,25,0.25,0,0,0,24,1,,,,,,,,,,,,,,,,,,,,,,,,,,,,,,,,,,,,,,,,
,,,,,SPR24_053,20,Female,2024-04-16_15h36.41.866,jersey_experiment_5_v0,2023.2.2,Win32,84.03361345,,,,,,,,,,,,,,,,207.4228,208.4695,208.4695,209.5991,return,0.1986,,27.60416667,,,,,,FBP-PT-71.png,0.35,1.2,46,0.25,0,1,1,45,1,,,,,,,,,,,,,,,,,,,,,,,,,,,,,,,,,,,,,,,,
,,,,,SPR24_053,20,Female,2024-04-16_15h36.41.866,jersey_experiment_5_v0,2023.2.2,Win32,84.03361345,,,,,,,,,,,,,,,,209.5993,210.6461,210.6462,211.4932,return,0.1382,,31.11979167,,,,,,FBP-YG-71.png,0.35,1.2,16,0.25,0,2,2,15,1,,,,,,,,,,,,,,,,,,,,,,,,,,,,,,,,,,,,,,,,
,,,,,SPR24_053,20,Female,2024-04-16_15h36.41.866,jersey_experiment_5_v0,2023.2.2,Win32,84.03361345,,,,,,,,,,,,,,,,211.4933,212.5402,212.5402,213.7286,return,0.1306,,73.17708333,,,,,,FBP-YG-91.png,0.43,1.2,29,0.25,0,3,3,28,1,,,,,,,,,,,,,,,,,,,,,,,,,,,,,,,,,,,,,,,,
,,,,,SPR24_053,20,Female,2024-04-16_15h36.41.866,jersey_experiment_5_v0,2023.2.2,Win32,84.03361345,,,,,,,,,,,,,,,,213.7289,214.7757,214.7758,215.9993,return,0.0709,,63.15104167,,,,,,FBP-YG-81.png,0.43,1.2,24,0.25,0,4,4,23,1,,,,,,,,,,,,,,,,,,,,,,,,,,,,,,,,,,,,,,,,
,,,,,SPR24_053,20,Female,2024-04-16_15h36.41.866,jersey_experiment_5_v0,2023.2.2,Win32,84.03361345,,,,,,,,,,,,,,,,215.9995,217.0462,217.0463,217.6935,return,0.1182,,63.15104167,,,,,,FBP-YG-71.png,0.4,1.2,18,0.25,0,5,5,17,1,,,,,,,,,,,,,,,,,,,,,,,,,,,,,,,,,,,,,,,,
,,,,,SPR24_053,20,Female,2024-04-16_15h36.41.866,jersey_experiment_5_v0,2023.2.2,Win32,84.03361345,,,,,,,,,,,,,,,,217.6938,218.9875,218.9875,219.7875,return,0.0965,,76.43229167,,,,,,FBP-OG-19.png,0.45,1.2,15,0.5,0,6,6,14,1,,,,,,,,,,,,,,,,,,,,,,,,,,,,,,,,,,,,,,,,
,,,,,SPR24_053,20,Female,2024-04-16_15h36.41.866,jersey_experiment_5_v0,2023.2.2,Win32,84.03361345,,,,,,,,,,,,,,,,219.7878,221.0817,221.0818,221.6113,return,0.0493,,76.04166667,,,,,,FBP-OG-19.png,0.43,1.2,14,0.5,0,7,7,13,1,,,,,,,,,,,,,,,,,,,,,,,,,,,,,,,,,,,,,,,,
,,,,,SPR24_053,20,Female,2024-04-16_15h36.41.866,jersey_experiment_5_v0,2023.2.2,Win32,84.03361345,,,,,,,,,,,,,,,,221.6116,222.6582,222.6584,223.5759,return,0.053,,83.59375,,,,,,FBP-PT-81.png,0.43,1.2,54,0.25,0,8,8,53,1,,,,,,,,,,,,,,,,,,,,,,,,,,,,,,,,,,,,,,,,
,,,,,SPR24_053,20,Female,2024-04-16_15h36.41.866,jersey_experiment_5_v0,2023.2.2,Win32,84.03361345,,,,,,,,,,,,,,,,223.5761,224.8701,224.8702,225.0819,return,0.0743,,83.33333333,,,,,,FBP-RB-91.png,0.43,1.2,44,0.5,0,9,9,43,1,,,,,,,,,,,,,,,,,,,,,,,,,,,,,,,,,,,,,,,,
,,,,,SPR24_053,20,Female,2024-04-16_15h36.41.866,jersey_experiment_5_v0,2023.2.2,Win32,84.03361345,,,,,,,,,,,,,,,,225.0821,226.376,226.3761,227.0937,return,0.0905,,85.02604167,,,,,,FBP-RB-81.png,0.45,1.2,40,0.5,0,10,10,39,1,,,,,,,,,,,,,,,,,,,,,,,,,,,,,,,,,,,,,,,,
,,,,,SPR24_053,20,Female,2024-04-16_15h36.41.866,jersey_experiment_5_v0,2023.2.2,Win32,84.03361345,,,,,,,,,,,,,,,,227.0941,228.388,228.388,229.2939,return,0.0815,,87.23958333,,,,,,FBP-RB-91.png,0.45,1.2,45,0.5,0,11,11,44,1,,,,,,,,,,,,,,,,,,,,,,,,,,,,,,,,,,,,,,,,
,,,,,SPR24_053,20,Female,2024-04-16_15h36.41.866,jersey_experiment_5_v0,2023.2.2,Win32,84.03361345,,,,,,,,,,,,,,,,229.2942,230.5881,230.5881,231.7411,return,0.1892,,20.44270833,,,,,,FBP-OG-18.png,0.35,1.2,6,0.5,0,12,12,5,1,,,,,,,,,,,,,,,,,,,,,,,,,,,,,,,,,,,,,,,,
,,,,,SPR24_053,20,Female,2024-04-16_15h36.41.866,jersey_experiment_5_v0,2023.2.2,Win32,84.03361345,,,,,,,,,,,,,,,,231.7412,232.7882,232.7882,233.5294,return,0.0988,,16.53645833,,,,,,FBP-YG-91.png,0.35,1.2,26,0.25,0,13,13,25,1,,,,,,,,,,,,,,,,,,,,,,,,,,,,,,,,,,,,,,,,
,,,,,SPR24_053,20,Female,2024-04-16_15h36.41.866,jersey_experiment_5_v0,2023.2.2,Win32,84.03361345,,,,,,,,,,,,,,,,233.5297,234.8235,234.8235,235.7412,return,0.0711,,77.47395833,,,,,,FBP-RB-71.png,0.45,1.2,35,0.5,0,14,14,34,1,,,,,,,,,,,,,,,,,,,,,,,,,,,,,,,,,,,,,,,,
,,,,,SPR24_053,20,Female,2024-04-16_15h36.41.866,jersey_experiment_5_v0,2023.2.2,Win32,84.03361345,,,,,,,,,,,,,,,,235.7414,236.7882,236.7883,238.1413,return,0.1283,,15.625,,,,,,FBP-YG-81.png,0.35,1.2,21,0.25,0,15,15,20,1,,,,,,,,,,,,,,,,,,,,,,,,,,,,,,,,,,,,,,,,
,,,,,SPR24_053,20,Female,2024-04-16_15h36.41.866,jersey_experiment_5_v0,2023.2.2,Win32,84.03361345,,,,,,,,,,,,,,,,238.1415,239.4354,239.4355,240.2827,return,0.003,,15.75520833,,,,,,FBP-RB-71.png,0.35,1.2,31,0.5,0,16,16,30,1,,,,,,,,,,,,,,,,,,,,,,,,,,,,,,,,,,,,,,,,
,,,,,SPR24_053,20,Female,2024-04-16_15h36.41.866,jersey_experiment_5_v0,2023.2.2,Win32,84.03361345,,,,,,,,,,,,,,,,240.2828,241.5766,241.5766,242.3297,return,0.4139,,16.14583333,,,,,,FBP-OG-17.png,0.37,1.2,2,0.5,0,17,17,1,1,,,,,,,,,,,,,,,,,,,,,,,,,,,,,,,,,,,,,,,,
,,,,,SPR24_053,20,Female,2024-04-16_15h36.41.866,jersey_experiment_5_v0,2023.2.2,Win32,84.03361345,,,,,,,,,,,,,,,,242.3299,243.6239,243.624,244.4592,return,0.0473,,11.84895833,,,,,,FBP-RB-91.png,0.35,1.2,41,0.5,0,18,18,40,1,,,,,,,,,,,,,,,,,,,,,,,,,,,,,,,,,,,,,,,,
,,,,,SPR24_053,20,Female,2024-04-16_15h36.41.866,jersey_experiment_5_v0,2023.2.2,Win32,84.03361345,,,,,,,,,,,,,,,,244.4594,245.7533,245.7533,246.0592,return,0.071,,12.63020833,,,,,,FBP-OG-17.png,0.35,1.2,1,0.5,0,19,19,0,1,,,,,,,,,,,,,,,,,,,,,,,,,,,,,,,,,,,,,,,,
,,,,,SPR24_053,20,Female,2024-04-16_15h36.41.866,jersey_experiment_5_v0,2023.2.2,Win32,84.03361345,,,,,,,,,,,,,,,,246.0594,247.3534,247.3534,249.0711,return,0.8012,,55.59895833,,,,,,FBP-OG-17.png,0.43,1.2,4,0.5,0,20,20,3,1,,,,,,,,,,,,,,,,,,,,,,,,,,,,,,,,,,,,,,,,
,,,,,SPR24_053,20,Female,2024-04-16_15h36.41.866,jersey_experiment_5_v0,2023.2.2,Win32,84.03361345,,,,,,,,,,,,,,,,249.0713,250.1181,250.1182,251.8242,return,0.1904,,33.07291667,,,,,,FBP-YG-71.png,0.37,1.2,17,0.25,0,21,21,16,1,,,,,,,,,,,,,,,,,,,,,,,,,,,,,,,,,,,,,,,,
,,,,,SPR24_053,20,Female,2024-04-16_15h36.41.866,jersey_experiment_5_v0,2023.2.2,Win32,84.03361345,,,,,,,,,,,,,,,,251.8244,253.1183,253.1183,254.4947,return,0.1886,,57.421875,,,,,,FBP-OG-17.png,0.4,1.2,3,0.5,0,22,22,2,1,,,,,,,,,,,,,,,,,,,,,,,,,,,,,,,,,,,,,,,,
,,,,,SPR24_053,20,Female,2024-04-16_15h36.41.866,jersey_experiment_5_v0,2023.2.2,Win32,84.03361345,,,,,,,,,,,,,,,,254.4949,255.5419,255.5419,256.7185,return,0.0371,,50.78125,,,,,,FBP-PT-71.png,0.37,1.2,47,0.25,0,23,23,46,1,,,,,,,,,,,,,,,,,,,,,,,,,,,,,,,,,,,,,,,,
,,,,,SPR24_053,20,Female,2024-04-16_15h36.41.866,jersey_experiment_5_v0,2023.2.2,Win32,84.03361345,,,,,,,,,,,,,,,,256.7187,257.7654,257.7655,258.6244,return,0.0613,,65.88541667,,,,,,FBP-YG-91.png,0.4,1.2,28,0.25,0,24,24,27,1,,,,,,,,,,,,,,,,,,,,,,,,,,,,,,,,,,,,,,,,
,,,,,SPR24_053,20,Female,2024-04-16_15h36.41.866,jersey_experiment_5_v0,2023.2.2,Win32,84.03361345,,,,,,,,,,,,,,,,258.6247,259.6713,259.6713,260.4128,return,0.0371,,78.38541667,,,,,,FBP-PT-81.png,0.45,1.2,55,0.25,0,25,25,54,1,,,,,,,,,,,,,,,,,,,,,,,,,,,,,,,,,,,,,,,,
,,,,,SPR24_053,20,Female,2024-04-16_15h36.41.866,jersey_experiment_5_v0,2023.2.2,Win32,84.03361345,,,,,,,,,,,,,,,,260.4131,261.7068,261.7069,262.5188,return,0.0875,,64.19270833,,,,,,FBP-RB-71.png,0.37,1.2,32,0.5,0,26,26,31,1,,,,,,,,,,,,,,,,,,,,,,,,,,,,,,,,,,,,,,,,
,,,,,SPR24_053,20,Female,2024-04-16_15h36.41.866,jersey_experiment_5_v0,2023.2.2,Win32,84.03361345,,,,,,,,,,,,,,,,262.519,263.5657,263.5658,264.3892,return,0.1015,,86.06770833,,,,,,FBP-PT-91.png,0.43,1.2,59,0.25,0,27,27,58,1,,,,,,,,,,,,,,,,,,,,,,,,,,,,,,,,,,,,,,,,
,,,,,SPR24_053,20,Female,2024-04-16_15h36.41.866,jersey_experiment_5_v0,2023.2.2,Win32,84.03361345,,,,,,,,,,,,,,,,264.3895,265.4363,265.4363,266.2128,return,0.0184,,86.97916667,,,,,,FBP-PT-91.png,0.45,1.2,60,0.25,0,28,28,59,1,,,,,,,,,,,,,,,,,,,,,,,,,,,,,,,,,,,,,,,,
,,,,,SPR24_053,20,Female,2024-04-16_15h36.41.866,jersey_experiment_5_v0,2023.2.2,Win32,84.03361345,,,,,,,,,,,,,,,,266.2129,267.5068,267.5069,267.7894,return,0.0946,,86.19791667,,,,,,FBP-RB-81.png,0.43,1.2,39,0.5,0,29,29,38,1,,,,,,,,,,,,,,,,,,,,,,,,,,,,,,,,,,,,,,,,
,,,,,SPR24_053,20,Female,2024-04-16_15h36.41.866,jersey_experiment_5_v0,2023.2.2,Win32,84.03361345,,,,,,,,,,,,,,,,267.7896,268.8365,268.8366,269.2483,return,0.0235,,86.06770833,,,,,,FBP-PT-71.png,0.45,1.2,50,0.25,0,30,30,49,1,,,,,,,,,,,,,,,,,,,,,,,,,,,,,,,,,,,,,,,,
,,,,,SPR24_053,20,Female,2024-04-16_15h36.41.866,jersey_experiment_5_v0,2023.2.2,Win32,84.03361345,,,,,,,,,,,,,,,,269.2484,270.5425,270.5426,271.2485,return,0.1284,,76.04166667,,,,,,FBP-RB-91.png,0.4,1.2,43,0.5,0,31,31,42,1,,,,,,,,,,,,,,,,,,,,,,,,,,,,,,,,,,,,,,,,
,,,,,SPR24_053,20,Female,2024-04-16_15h36.41.866,jersey_experiment_5_v0,2023.2.2,Win32,84.03361345,,,,,,,,,,,,,,,,271.2487,272.2954,272.2954,273.413,return,0.0659,,62.109375,,,,,,FBP-PT-71.png,0.4,1.2,48,0.25,0,32,32,47,1,,,,,,,,,,,,,,,,,,,,,,,,,,,,,,,,,,,,,,,,
,,,,,SPR24_053,20,Female,2024-04-16_15h36.41.866,jersey_experiment_5_v0,2023.2.2,Win32,84.03361345,,,,,,,,,,,,,,,,273.4132,274.7073,274.7073,275.2603,return,0.0605,,61.84895833,,,,,,FBP-OG-18.png,0.37,1.2,7,0.5,0,33,33,6,1,,,,,,,,,,,,,,,,,,,,,,,,,,,,,,,,,,,,,,,,
,,,,,SPR24_053,20,Female,2024-04-16_15h36.41.866,jersey_experiment_5_v0,2023.2.2,Win32,84.03361345,,,,,,,,,,,,,,,,275.2605,276.3073,276.3074,277.3896,return,0.0235,,50.78125,,,,,,FBP-PT-81.png,0.4,1.2,53,0.25,0,34,34,52,1,,,,,,,,,,,,,,,,,,,,,,,,,,,,,,,,,,,,,,,,
,,,,,SPR24_053,20,Female,2024-04-16_15h36.41.866,jersey_experiment_5_v0,2023.2.2,Win32,84.03361345,,,,,,,,,,,,,,,,277.3899,278.6839,278.684,279.978,return,0.1077,,41.796875,,,,,,FBP-RB-91.png,0.37,1.2,42,0.5,0,35,35,41,1,,,,,,,,,,,,,,,,,,,,,,,,,,,,,,,,,,,,,,,,
,,,,,SPR24_053,20,Female,2024-04-16_15h36.41.866,jersey_experiment_5_v0,2023.2.2,Win32,84.03361345,,,,,,,,,,,,,,,,279.9782,281.2721,281.2721,281.943,return,0.1129,,40.88541667,,,,,,FBP-OG-19.png,0.37,1.2,12,0.5,0,36,36,11,1,,,,,,,,,,,,,,,,,,,,,,,,,,,,,,,,,,,,,,,,
,,,,,SPR24_053,20,Female,2024-04-16_15h36.41.866,jersey_experiment_5_v0,2023.2.2,Win32,84.03361345,,,,,,,,,,,,,,,,281.9432,282.9899,282.9899,284.2371,return,0.151,,79.03645833,,,,,,FBP-YG-71.png,0.45,1.2,20,0.25,0,37,37,19,1,,,,,,,,,,,,,,,,,,,,,,,,,,,,,,,,,,,,,,,,
,,,,,SPR24_053,20,Female,2024-04-16_15h36.41.866,jersey_experiment_5_v0,2023.2.2,Win32,84.03361345,,,,,,,,,,,,,,,,284.2374,285.2841,285.2842,287.39,return,0.8944,,35.02604167,,,,,,FBP-YG-81.png,0.37,1.2,22,0.25,0,38,38,21,1,,,,,,,,,,,,,,,,,,,,,,,,,,,,,,,,,,,,,,,,
,,,,,SPR24_053,20,Female,2024-04-16_15h36.41.866,jersey_experiment_5_v0,2023.2.2,Win32,84.03361345,,,,,,,,,,,,,,,,287.3903,288.6841,288.6841,289.5434,return,0.0995,,35.67708333,,,,,,FBP-RB-81.png,0.35,1.2,36,0.5,0,39,39,35,1,,,,,,,,,,,,,,,,,,,,,,,,,,,,,,,,,,,,,,,,
,,,,,SPR24_053,20,Female,2024-04-16_15h36.41.866,jersey_experiment_5_v0,2023.2.2,Win32,84.03361345,,,,,,,,,,,,,,,,289.5436,290.5902,290.5902,292.4609,return,1.177,,36.328125,,,,,,FBP-PT-91.png,0.37,1.2,57,0.25,0,40,40,56,1,,,,,,,,,,,,,,,,,,,,,,,,,,,,,,,,,,,,,,,,
,,,,,SPR24_053,20,Female,2024-04-16_15h36.41.866,jersey_experiment_5_v0,2023.2.2,Win32,84.03361345,,,,,,,,,,,,,,,,292.4612,293.755,293.7551,294.6375,return,0.1049,,34.63541667,,,,,,FBP-RB-81.png,0.37,1.2,37,0.5,0,41,41,36,1,,,,,,,,,,,,,,,,,,,,,,,,,,,,,,,,,,,,,,,,
,,,,,SPR24_053,20,Female,2024-04-16_15h36.41.866,jersey_experiment_5_v0,2023.2.2,Win32,84.03361345,,,,,,,,,,,,,,,,294.6377,295.9314,295.9315,296.9551,return,0.2495,,63.93229167,,,,,,FBP-OG-18.png,0.43,1.2,9,0.5,0,42,42,8,1,,,,,,,,,,,,,,,,,,,,,,,,,,,,,,,,,,,,,,,,
,,,,,SPR24_053,20,Female,2024-04-16_15h36.41.866,jersey_experiment_5_v0,2023.2.2,Win32,84.03361345,,,,,,,,,,,,,,,,296.9553,298.2494,298.2494,299.1905,return,0.1458,,85.546875,,,,,,FBP-OG-17.png,0.45,1.2,5,0.5,0,43,43,4,1,,,,,,,,,,,,,,,,,,,,,,,,,,,,,,,,,,,,,,,,
,,,,,SPR24_053,20,Female,2024-04-16_15h36.41.866,jersey_experiment_5_v0,2023.2.2,Win32,84.03361345,,,,,,,,,,,,,,,,299.1907,300.4848,300.4848,301.5909,return,0.1469,,10.9375,,,,,,FBP-OG-19.png,0.35,1.2,11,0.5,0,44,44,10,1,,,,,,,,,,,,,,,,,,,,,,,,,,,,,,,,,,,,,,,,
,,,,,SPR24_053,20,Female,2024-04-16_15h36.41.866,jersey_experiment_5_v0,2023.2.2,Win32,84.03361345,,,,,,,,,,,,,,,,301.5911,302.6376,302.6377,304.4614,return,0.7306,,21.35416667,,,,,,FBP-PT-81.png,0.37,1.2,52,0.25,0,45,45,51,1,,,,,,,,,,,,,,,,,,,,,,,,,,,,,,,,,,,,,,,,
,,,,,SPR24_053,20,Female,2024-04-16_15h36.41.866,jersey_experiment_5_v0,2023.2.2,Win32,84.03361345,,,,,,,,,,,,,,,,304.4616,305.5085,305.5086,307.1799,return,0.2239,,88.02083333,,,,,,FBP-YG-91.png,0.45,1.2,30,0.25,0,46,46,29,1,,,,,,,,,,,,,,,,,,,,,,,,,,,,,,,,,,,,,,,,
,,,,,SPR24_053,20,Female,2024-04-16_15h36.41.866,jersey_experiment_5_v0,2023.2.2,Win32,84.03361345,,,,,,,,,,,,,,,,307.1801,308.4732,308.4732,309.2733,return,0.0988,,86.06770833,,,,,,FBP-RB-71.png,0.43,1.2,34,0.5,0,47,47,33,1,,,,,,,,,,,,,,,,,,,,,,,,,,,,,,,,,,,,,,,,
,,,,,SPR24_053,20,Female,2024-04-16_15h36.41.866,jersey_experiment_5_v0,2023.2.2,Win32,84.03361345,,,,,,,,,,,,,,,,309.2735,310.5675,310.5676,311.1205,return,0.0936,,86.06770833,,,,,,FBP-OG-19.png,0.4,1.2,13,0.5,0,48,48,12,1,,,,,,,,,,,,,,,,,,,,,,,,,,,,,,,,,,,,,,,,
,,,,,SPR24_053,20,Female,2024-04-16_15h36.41.866,jersey_experiment_5_v0,2023.2.2,Win32,84.03361345,,,,,,,,,,,,,,,,311.1207,312.1675,312.1675,313.5913,return,0.1218,,17.44791667,,,,,,FBP-PT-91.png,0.35,1.2,56,0.25,0,49,49,55,1,,,,,,,,,,,,,,,,,,,,,,,,,,,,,,,,,,,,,,,,
,,,,,SPR24_053,20,Female,2024-04-16_15h36.41.866,jersey_experiment_5_v0,2023.2.2,Win32,84.03361345,,,,,,,,,,,,,,,,313.5915,314.6381,314.6381,315.6382,return,0.2073,,30.59895833,,,,,,FBP-YG-81.png,0.4,1.2,23,0.25,0,50,50,22,1,,,,,,,,,,,,,,,,,,,,,,,,,,,,,,,,,,,,,,,,
,,,,,SPR24_053,20,Female,2024-04-16_15h36.41.866,jersey_experiment_5_v0,2023.2.2,Win32,84.03361345,,,,,,,,,,,,,,,,315.6384,316.9327,316.9327,317.7441,return,0.1514,,65.625,,,,,,FBP-OG-18.png,0.45,1.2,10,0.5,0,51,51,9,1,,,,,,,,,,,,,,,,,,,,,,,,,,,,,,,,,,,,,,,,
,,,,,SPR24_053,20,Female,2024-04-16_15h36.41.866,jersey_experiment_5_v0,2023.2.2,Win32,84.03361345,,,,,,,,,,,,,,,,317.7444,318.7911,318.7912,319.9679,return,0.3424,,81.640625,,,,,,FBP-YG-71.png,0.43,1.2,19,0.25,0,52,52,18,1,,,,,,,,,,,,,,,,,,,,,,,,,,,,,,,,,,,,,,,,
,,,,,SPR24_053,20,Female,2024-04-16_15h36.41.866,jersey_experiment_5_v0,2023.2.2,Win32,84.03361345,,,,,,,,,,,,,,,,319.9681,321.0148,321.0149,321.7913,return,0.0945,,81.77083333,,,,,,FBP-PT-71.png,0.43,1.2,49,0.25,0,53,53,48,1,,,,,,,,,,,,,,,,,,,,,,,,,,,,,,,,,,,,,,,,
,,,,,SPR24_053,20,Female,2024-04-16_15h36.41.866,jersey_experiment_5_v0,2023.2.2,Win32,84.03361345,,,,,,,,,,,,,,,,321.7916,322.8385,322.8386,324.3797,return,0.1287,,37.109375,,,,,,FBP-YG-91.png,0.37,1.2,27,0.25,0,54,54,26,1,,,,,,,,,,,,,,,,,,,,,,,,,,,,,,,,,,,,,,,,
,,,,,SPR24_053,20,Female,2024-04-16_15h36.41.866,jersey_experiment_5_v0,2023.2.2,Win32,84.03361345,,,,,,,,,,,,,,,,324.3799,325.6741,325.6742,326.9094,return,0.6018,,40.49479167,,,,,,FBP-OG-18.png,0.4,1.2,8,0.5,0,55,55,7,1,,,,,,,,,,,,,,,,,,,,,,,,,,,,,,,,,,,,,,,,
,,,,,SPR24_053,20,Female,2024-04-16_15h36.41.866,jersey_experiment_5_v0,2023.2.2,Win32,84.03361345,,,,,,,,,,,,,,,,326.9096,327.9563,327.9563,328.7918,return,0.0179,,33.85416667,,,,,,FBP-PT-81.png,0.35,1.2,51,0.25,0,56,56,50,1,,,,,,,,,,,,,,,,,,,,,,,,,,,,,,,,,,,,,,,,
,,,,,SPR24_053,20,Female,2024-04-16_15h36.41.866,jersey_experiment_5_v0,2023.2.2,Win32,84.03361345,,,,,,,,,,,,,,,,328.792,330.0859,330.0859,331.0507,return,0.0723,,47.78645833,,,,,,FBP-RB-71.png,0.4,1.2,33,0.5,0,57,57,32,1,,,,,,,,,,,,,,,,,,,,,,,,,,,,,,,,,,,,,,,,
,,,,,SPR24_053,20,Female,2024-04-16_15h36.41.866,jersey_experiment_5_v0,2023.2.2,Win32,84.03361345,,,,,,,,,,,,,,,,331.051,332.3447,332.3448,333.2742,return,0.0272,,48.828125,,,,,,FBP-RB-81.png,0.4,1.2,38,0.5,0,58,58,37,1,,,,,,,,,,,,,,,,,,,,,,,,,,,,,,,,,,,,,,,,
,,,,,SPR24_053,20,Female,2024-04-16_15h36.41.866,jersey_experiment_5_v0,2023.2.2,Win32,84.03361345,,,,,,,,,,,,,,,,333.2745,334.3213,334.3213,334.8742,return,0.0508,,48.828125,,,,,,FBP-PT-91.png,0.4,1.2,58,0.25,0,59,59,57,1,,,,,,,,,,,,,,,,,,,,,,,,,,,,,,,,,,,,,,,,
,,,,,SPR24_053,20,Female,2024-04-16_15h36.41.866,jersey_experiment_5_v0,2023.2.2,Win32,84.03361345,,,,,,,,,,,,,,,,,,,,,,,,,,,,,,,,,,,,,,,334.8746,454.8672,,,,,,,,,,,,,,,,,,,,,,,,,,,,,,,,,,,,,,
,,,,,SPR24_053,20,Female,2024-04-16_15h36.41.866,jersey_experiment_5_v0,2023.2.2,Win32,84.03361345,,,,,,,,,,,,,,,,,,,,,,,,,,,,,,,,,,,,,,,,,454.8673,456.6672,return,1.7906,,,,,,,,,,,,,,,,,,,,,,,,,,,,,,,,,,
,,,,,SPR24_053,20,Female,2024-04-16_15h36.41.866,jersey_experiment_5_v0,2023.2.2,Win32,84.03361345,,,,,,,,,,,,,,,,456.6755,457.973,457.973,460.4554,return,0.1813,,25.91145833,,,,,,FBP-PT-18.png,0.37,1.2,52,0.5,,,,,,,,,,,,,0,0,0,51,1,,,,,,,,,,,,,,,,,,,,,,,,,,,,
,,,,,SPR24_053,20,Female,2024-04-16_15h36.41.866,jersey_experiment_5_v0,2023.2.2,Win32,84.03361345,,,,,,,,,,,,,,,,460.4557,461.5025,461.5025,462.8083,return,0.0288,,69.53125,,,,,,FBP-RB-18.png,0.45,1.2,40,0.25,,,,,,,,,,,,,0,1,1,39,1,,,,,,,,,,,,,,,,,,,,,,,,,,,,
,,,,,SPR24_053,20,Female,2024-04-16_15h36.41.866,jersey_experiment_5_v0,2023.2.2,Win32,84.03361345,,,,,,,,,,,,,,,,462.8086,463.8555,463.8556,465.4791,return,0.0422,,23.95833333,,,,,,FBP-RB-19.png,0.35,1.2,41,0.25,,,,,,,,,,,,,0,2,2,40,1,,,,,,,,,,,,,,,,,,,,,,,,,,,,
,,,,,SPR24_053,20,Female,2024-04-16_15h36.41.866,jersey_experiment_5_v0,2023.2.2,Win32,84.03361345,,,,,,,,,,,,,,,,465.4793,466.5261,466.5262,466.9378,return,0.0026,,24.47916667,,,,,,FBP-OG-71.png,0.35,1.2,1,0.25,,,,,,,,,,,,,0,3,3,0,1,,,,,,,,,,,,,,,,,,,,,,,,,,,,
,,,,,SPR24_053,20,Female,2024-04-16_15h36.41.866,jersey_experiment_5_v0,2023.2.2,Win32,84.03361345,,,,,,,,,,,,,,,,466.9381,467.985,467.985,468.9852,return,0.0738,,67.1875,,,,,,FBP-OG-91.png,0.43,1.2,14,0.25,,,,,,,,,,,,,0,4,4,13,1,,,,,,,,,,,,,,,,,,,,,,,,,,,,
,,,,,SPR24_053,20,Female,2024-04-16_15h36.41.866,jersey_experiment_5_v0,2023.2.2,Win32,84.03361345,,,,,,,,,,,,,,,,468.9853,470.0322,470.0322,470.8558,return,0.0061,,77.08333333,,,,,,FBP-OG-71.png,0.43,1.2,4,0.25,,,,,,,,,,,,,0,5,5,3,1,,,,,,,,,,,,,,,,,,,,,,,,,,,,
,,,,,SPR24_053,20,Female,2024-04-16_15h36.41.866,jersey_experiment_5_v0,2023.2.2,Win32,84.03361345,,,,,,,,,,,,,,,,470.856,471.9029,471.9029,472.5968,return,0.0185,,83.203125,,,,,,FBP-OG-91.png,0.45,1.2,15,0.25,,,,,,,,,,,,,0,6,6,14,1,,,,,,,,,,,,,,,,,,,,,,,,,,,,
,,,,,SPR24_053,20,Female,2024-04-16_15h36.41.866,jersey_experiment_5_v0,2023.2.2,Win32,84.03361345,,,,,,,,,,,,,,,,472.5971,473.8912,473.8913,475.1617,return,0.0507,,22.91666667,,,,,,FBP-PT-19.png,0.35,1.2,56,0.5,,,,,,,,,,,,,0,7,7,55,1,,,,,,,,,,,,,,,,,,,,,,,,,,,,
,,,,,SPR24_053,20,Female,2024-04-16_15h36.41.866,jersey_experiment_5_v0,2023.2.2,Win32,84.03361345,,,,,,,,,,,,,,,,475.1619,476.2089,476.2089,476.8323,return,0.0339,,31.11979167,,,,,,FBP-OG-81.png,0.37,1.2,7,0.25,,,,,,,,,,,,,0,8,8,6,1,,,,,,,,,,,,,,,,,,,,,,,,,,,,
,,,,,SPR24_053,20,Female,2024-04-16_15h36.41.866,jersey_experiment_5_v0,2023.2.2,Win32,84.03361345,,,,,,,,,,,,,,,,476.8326,477.8794,477.8794,478.3619,return,0.0275,,31.11979167,,,,,,FBP-OG-81.png,0.35,1.2,6,0.25,,,,,,,,,,,,,0,9,9,5,1,,,,,,,,,,,,,,,,,,,,,,,,,,,,
,,,,,SPR24_053,20,Female,2024-04-16_15h36.41.866,jersey_experiment_5_v0,2023.2.2,Win32,84.03361345,,,,,,,,,,,,,,,,478.3621,479.6561,479.6561,480.4443,return,0.0604,,72.65625,,,,,,FBP-PT-17.png,0.43,1.2,49,0.5,,,,,,,,,,,,,0,10,10,48,1,,,,,,,,,,,,,,,,,,,,,,,,,,,,
,,,,,SPR24_053,20,Female,2024-04-16_15h36.41.866,jersey_experiment_5_v0,2023.2.2,Win32,84.03361345,,,,,,,,,,,,,,,,480.4445,481.4913,481.4913,482.3269,return,0.1233,,84.24479167,,,,,,FBP-OG-81.png,0.45,1.2,10,0.25,,,,,,,,,,,,,0,11,11,9,1,,,,,,,,,,,,,,,,,,,,,,,,,,,,
,,,,,SPR24_053,20,Female,2024-04-16_15h36.41.866,jersey_experiment_5_v0,2023.2.2,Win32,84.03361345,,,,,,,,,,,,,,,,482.3271,483.621,483.621,484.3504,return,0.0614,,44.921875,,,,,,FBP-YG-19.png,0.37,1.2,27,0.5,,,,,,,,,,,,,0,12,12,26,1,,,,,,,,,,,,,,,,,,,,,,,,,,,,
,,,,,SPR24_053,20,Female,2024-04-16_15h36.41.866,jersey_experiment_5_v0,2023.2.2,Win32,84.03361345,,,,,,,,,,,,,,,,484.3508,485.6445,485.6445,486.3269,return,0.1364,,51.30208333,,,,,,FBP-PT-19.png,0.4,1.2,58,0.5,,,,,,,,,,,,,0,13,13,57,1,,,,,,,,,,,,,,,,,,,,,,,,,,,,
,,,,,SPR24_053,20,Female,2024-04-16_15h36.41.866,jersey_experiment_5_v0,2023.2.2,Win32,84.03361345,,,,,,,,,,,,,,,,486.3272,487.6211,487.6212,488.0918,return,0.0842,,51.30208333,,,,,,FBP-PT-17.png,0.37,1.2,47,0.5,,,,,,,,,,,,,0,14,14,46,1,,,,,,,,,,,,,,,,,,,,,,,,,,,,
,,,,,SPR24_053,20,Female,2024-04-16_15h36.41.866,jersey_experiment_5_v0,2023.2.2,Win32,84.03361345,,,,,,,,,,,,,,,,488.0921,489.3859,489.3859,490.1506,return,0.0636,,63.15104167,,,,,,FBP-PT-18.png,0.4,1.2,53,0.5,,,,,,,,,,,,,0,15,15,52,1,,,,,,,,,,,,,,,,,,,,,,,,,,,,
,,,,,SPR24_053,20,Female,2024-04-16_15h36.41.866,jersey_experiment_5_v0,2023.2.2,Win32,84.03361345,,,,,,,,,,,,,,,,490.1508,491.4448,491.4448,492.1389,return,0.025,,38.28125,,,,,,FBP-YG-17.png,0.35,1.2,16,0.5,,,,,,,,,,,,,0,16,16,15,1,,,,,,,,,,,,,,,,,,,,,,,,,,,,
,,,,,SPR24_053,20,Female,2024-04-16_15h36.41.866,jersey_experiment_5_v0,2023.2.2,Win32,84.03361345,,,,,,,,,,,,,,,,492.1391,493.433,493.4331,494.045,return,0.0229,,79.03645833,,,,,,FBP-YG-19.png,0.43,1.2,29,0.5,,,,,,,,,,,,,0,17,17,28,1,,,,,,,,,,,,,,,,,,,,,,,,,,,,
,,,,,SPR24_053,20,Female,2024-04-16_15h36.41.866,jersey_experiment_5_v0,2023.2.2,Win32,84.03361345,,,,,,,,,,,,,,,,494.0452,495.0919,495.092,495.9507,return,0.0705,,56.51041667,,,,,,FBP-OG-71.png,0.37,1.2,2,0.25,,,,,,,,,,,,,0,18,18,1,1,,,,,,,,,,,,,,,,,,,,,,,,,,,,
,,,,,SPR24_053,20,Female,2024-04-16_15h36.41.866,jersey_experiment_5_v0,2023.2.2,Win32,84.03361345,,,,,,,,,,,,,,,,495.9509,497.245,497.245,498.1039,return,0.0531,,95.3125,,,,,,FBP-YG-17.png,0.45,1.2,20,0.5,,,,,,,,,,,,,0,19,19,19,1,,,,,,,,,,,,,,,,,,,,,,,,,,,,
,,,,,SPR24_053,20,Female,2024-04-16_15h36.41.866,jersey_experiment_5_v0,2023.2.2,Win32,84.03361345,,,,,,,,,,,,,,,,498.1041,499.1509,499.1509,499.9509,return,0.0483,,77.99479167,,,,,,FBP-OG-81.png,0.4,1.2,8,0.25,,,,,,,,,,,,,0,20,20,7,1,,,,,,,,,,,,,,,,,,,,,,,,,,,,
,,,,,SPR24_053,20,Female,2024-04-16_15h36.41.866,jersey_experiment_5_v0,2023.2.2,Win32,84.03361345,,,,,,,,,,,,,,,,499.9512,501.2452,501.2452,501.7744,return,0.0002,,83.203125,,,,,,FBP-YG-18.png,0.45,1.2,25,0.5,,,,,,,,,,,,,0,21,21,24,1,,,,,,,,,,,,,,,,,,,,,,,,,,,,
,,,,,SPR24_053,20,Female,2024-04-16_15h36.41.866,jersey_experiment_5_v0,2023.2.2,Win32,84.03361345,,,,,,,,,,,,,,,,501.7745,503.0686,503.0686,504.1393,return,0.0706,,47.52604167,,,,,,FBP-PT-17.png,0.35,1.2,46,0.5,,,,,,,,,,,,,0,22,22,45,1,,,,,,,,,,,,,,,,,,,,,,,,,,,,
,,,,,SPR24_053,20,Female,2024-04-16_15h36.41.866,jersey_experiment_5_v0,2023.2.2,Win32,84.03361345,,,,,,,,,,,,,,,,504.1396,505.1863,505.1864,506.057,return,0.0624,,54.94791667,,,,,,FBP-OG-91.png,0.4,1.2,13,0.25,,,,,,,,,,,,,0,23,23,12,1,,,,,,,,,,,,,,,,,,,,,,,,,,,,
,,,,,SPR24_053,20,Female,2024-04-16_15h36.41.866,jersey_experiment_5_v0,2023.2.2,Win32,84.03361345,,,,,,,,,,,,,,,,506.0572,507.1043,507.1043,507.7748,return,0.0235,,53.90625,,,,,,FBP-RB-17.png,0.4,1.2,33,0.25,,,,,,,,,,,,,0,24,24,32,1,,,,,,,,,,,,,,,,,,,,,,,,,,,,
,,,,,SPR24_053,20,Female,2024-04-16_15h36.41.866,jersey_experiment_5_v0,2023.2.2,Win32,84.03361345,,,,,,,,,,,,,,,,507.7749,508.8218,508.8218,509.7041,return,0.0292,,81.38020833,,,,,,FBP-OG-81.png,0.43,1.2,9,0.25,,,,,,,,,,,,,0,25,25,8,1,,,,,,,,,,,,,,,,,,,,,,,,,,,,
,,,,,SPR24_053,20,Female,2024-04-16_15h36.41.866,jersey_experiment_5_v0,2023.2.2,Win32,84.03361345,,,,,,,,,,,,,,,,509.7043,510.7513,510.7513,512.1396,return,0.7911,,79.03645833,,,,,,FBP-RB-18.png,0.4,1.2,38,0.25,,,,,,,,,,,,,0,26,26,37,1,,,,,,,,,,,,,,,,,,,,,,,,,,,,
,,,,,SPR24_053,20,Female,2024-04-16_15h36.41.866,jersey_experiment_5_v0,2023.2.2,Win32,84.03361345,,,,,,,,,,,,,,,,512.1399,513.4338,513.4339,514.0456,return,0.0604,,84.50520833,,,,,,FBP-YG-18.png,0.43,1.2,24,0.5,,,,,,,,,,,,,0,27,27,23,1,,,,,,,,,,,,,,,,,,,,,,,,,,,,
,,,,,SPR24_053,20,Female,2024-04-16_15h36.41.866,jersey_experiment_5_v0,2023.2.2,Win32,84.03361345,,,,,,,,,,,,,,,,514.0458,515.0926,515.0927,515.5514,return,0.0615,,84.50520833,,,,,,FBP-RB-18.png,0.43,1.2,39,0.25,,,,,,,,,,,,,0,28,28,38,1,,,,,,,,,,,,,,,,,,,,,,,,,,,,
,,,,,SPR24_053,20,Female,2024-04-16_15h36.41.866,jersey_experiment_5_v0,2023.2.2,Win32,84.03361345,,,,,,,,,,,,,,,,515.5516,516.8457,516.8457,518.281,return,0.5917,,88.28125,,,,,,FBP-PT-17.png,0.45,1.2,50,0.5,,,,,,,,,,,,,0,29,29,49,1,,,,,,,,,,,,,,,,,,,,,,,,,,,,
,,,,,SPR24_053,20,Female,2024-04-16_15h36.41.866,jersey_experiment_5_v0,2023.2.2,Win32,84.03361345,,,,,,,,,,,,,,,,518.2813,519.5751,519.5751,521.4459,return,0.1825,,34.63541667,,,,,,FBP-YG-17.png,0.37,1.2,17,0.5,,,,,,,,,,,,,0,30,30,16,1,,,,,,,,,,,,,,,,,,,,,,,,,,,,
,,,,,SPR24_053,20,Female,2024-04-16_15h36.41.866,jersey_experiment_5_v0,2023.2.2,Win32,84.03361345,,,,,,,,,,,,,,,,521.4461,522.493,522.493,523.3518,return,0.0398,,22.00520833,,,,,,FBP-RB-17.png,0.35,1.2,31,0.25,,,,,,,,,,,,,0,31,31,30,1,,,,,,,,,,,,,,,,,,,,,,,,,,,,
,,,,,SPR24_053,20,Female,2024-04-16_15h36.41.866,jersey_experiment_5_v0,2023.2.2,Win32,84.03361345,,,,,,,,,,,,,,,,523.352,524.3989,524.399,525.3401,return,0.0846,,30.59895833,,,,,,FBP-RB-19.png,0.4,1.2,43,0.25,,,,,,,,,,,,,0,32,32,42,1,,,,,,,,,,,,,,,,,,,,,,,,,,,,
,,,,,SPR24_053,20,Female,2024-04-16_15h36.41.866,jersey_experiment_5_v0,2023.2.2,Win32,84.03361345,,,,,,,,,,,,,,,,525.3403,526.6342,526.6342,529.6933,return,2.4137,,18.22916667,,,,,,FBP-PT-18.png,0.35,1.2,51,0.5,,,,,,,,,,,,,0,33,33,50,1,,,,,,,,,,,,,,,,,,,,,,,,,,,,
,,,,,SPR24_053,20,Female,2024-04-16_15h36.41.866,jersey_experiment_5_v0,2023.2.2,Win32,84.03361345,,,,,,,,,,,,,,,,529.6935,530.7404,530.7404,532.5876,return,0.1885,,46.875,,,,,,FBP-OG-71.png,0.4,1.2,3,0.25,,,,,,,,,,,,,0,34,34,2,1,,,,,,,,,,,,,,,,,,,,,,,,,,,,
,,,,,SPR24_053,20,Female,2024-04-16_15h36.41.866,jersey_experiment_5_v0,2023.2.2,Win32,84.03361345,,,,,,,,,,,,,,,,532.5878,533.8815,533.8815,534.6345,return,0.0962,,64.32291667,,,,,,FBP-YG-19.png,0.45,1.2,30,0.5,,,,,,,,,,,,,0,35,35,29,1,,,,,,,,,,,,,,,,,,,,,,,,,,,,
,,,,,SPR24_053,20,Female,2024-04-16_15h36.41.866,jersey_experiment_5_v0,2023.2.2,Win32,84.03361345,,,,,,,,,,,,,,,,534.6348,535.9288,535.9288,536.8701,return,0.09,,56.25,,,,,,FBP-YG-19.png,0.4,1.2,28,0.5,,,,,,,,,,,,,0,36,36,27,1,,,,,,,,,,,,,,,,,,,,,,,,,,,,
,,,,,SPR24_053,20,Female,2024-04-16_15h36.41.866,jersey_experiment_5_v0,2023.2.2,Win32,84.03361345,,,,,,,,,,,,,,,,536.8703,538.1641,538.1642,538.9169,return,0.031,,50.13020833,,,,,,FBP-YG-17.png,0.4,1.2,18,0.5,,,,,,,,,,,,,0,37,37,17,1,,,,,,,,,,,,,,,,,,,,,,,,,,,,
,,,,,SPR24_053,20,Female,2024-04-16_15h36.41.866,jersey_experiment_5_v0,2023.2.2,Win32,84.03361345,,,,,,,,,,,,,,,,538.9172,540.2111,540.2112,541.1289,return,0.0634,,73.4375,,,,,,FBP-PT-18.png,0.43,1.2,54,0.5,,,,,,,,,,,,,0,38,38,53,1,,,,,,,,,,,,,,,,,,,,,,,,,,,,
,,,,,SPR24_053,20,Female,2024-04-16_15h36.41.866,jersey_experiment_5_v0,2023.2.2,Win32,84.03361345,,,,,,,,,,,,,,,,541.1291,542.4231,542.4231,542.8584,return,0.0502,,84.89583333,,,,,,FBP-YG-17.png,0.43,1.2,19,0.5,,,,,,,,,,,,,0,39,39,18,1,,,,,,,,,,,,,,,,,,,,,,,,,,,,
,,,,,SPR24_053,20,Female,2024-04-16_15h36.41.866,jersey_experiment_5_v0,2023.2.2,Win32,84.03361345,,,,,,,,,,,,,,,,542.8586,543.9054,543.9055,545.2586,return,0.2149,,51.04166667,,,,,,FBP-RB-18.png,0.37,1.2,37,0.25,,,,,,,,,,,,,0,40,40,36,1,,,,,,,,,,,,,,,,,,,,,,,,,,,,
,,,,,SPR24_053,20,Female,2024-04-16_15h36.41.866,jersey_experiment_5_v0,2023.2.2,Win32,84.03361345,,,,,,,,,,,,,,,,545.2587,546.5525,546.5525,547.341,return,0.1164,,38.28125,,,,,,FBP-YG-18.png,0.37,1.2,22,0.5,,,,,,,,,,,,,0,41,41,21,1,,,,,,,,,,,,,,,,,,,,,,,,,,,,
,,,,,SPR24_053,20,Female,2024-04-16_15h36.41.866,jersey_experiment_5_v0,2023.2.2,Win32,84.03361345,,,,,,,,,,,,,,,,547.3411,548.388,548.388,549.1999,return,0.1082,,45.57291667,,,,,,FBP-RB-17.png,0.43,1.2,34,0.25,,,,,,,,,,,,,0,42,42,33,1,,,,,,,,,,,,,,,,,,,,,,,,,,,,
,,,,,SPR24_053,20,Female,2024-04-16_15h36.41.866,jersey_experiment_5_v0,2023.2.2,Win32,84.03361345,,,,,,,,,,,,,,,,549.2001,550.2468,550.2469,551.1763,return,0.0739,,32.29166667,,,,,,FBP-OG-91.png,0.35,1.2,11,0.25,,,,,,,,,,,,,0,43,43,10,1,,,,,,,,,,,,,,,,,,,,,,,,,,,,
,,,,,SPR24_053,20,Female,2024-04-16_15h36.41.866,jersey_experiment_5_v0,2023.2.2,Win32,84.03361345,,,,,,,,,,,,,,,,551.1765,552.2233,552.2234,553.4823,return,0.2037,,66.66666667,,,,,,FBP-RB-19.png,0.43,1.2,44,0.25,,,,,,,,,,,,,0,44,44,43,1,,,,,,,,,,,,,,,,,,,,,,,,,,,,
,,,,,SPR24_053,20,Female,2024-04-16_15h36.41.866,jersey_experiment_5_v0,2023.2.2,Win32,84.03361345,,,,,,,,,,,,,,,,553.4826,554.7765,554.7765,556.3295,return,0.0245,,20.18229167,,,,,,FBP-YG-18.png,0.35,1.2,21,0.5,,,,,,,,,,,,,0,45,45,20,1,,,,,,,,,,,,,,,,,,,,,,,,,,,,
,,,,,SPR24_053,20,Female,2024-04-16_15h36.41.866,jersey_experiment_5_v0,2023.2.2,Win32,84.03361345,,,,,,,,,,,,,,,,556.3298,557.3767,557.3767,558.3179,return,0.0004,,16.40625,,,,,,FBP-RB-18.png,0.35,1.2,36,0.25,,,,,,,,,,,,,0,46,46,35,1,,,,,,,,,,,,,,,,,,,,,,,,,,,,
,,,,,SPR24_053,20,Female,2024-04-16_15h36.41.866,jersey_experiment_5_v0,2023.2.2,Win32,84.03361345,,,,,,,,,,,,,,,,558.3182,559.3649,559.3649,560.4592,return,0.0264,,90.88541667,,,,,,FBP-RB-17.png,0.45,1.2,35,0.25,,,,,,,,,,,,,0,47,47,34,1,,,,,,,,,,,,,,,,,,,,,,,,,,,,
,,,,,SPR24_053,20,Female,2024-04-16_15h36.41.866,jersey_experiment_5_v0,2023.2.2,Win32,84.03361345,,,,,,,,,,,,,,,,560.4595,561.5061,561.5061,562.5887,return,0.0386,,34.24479167,,,,,,FBP-RB-19.png,0.37,1.2,42,0.25,,,,,,,,,,,,,0,48,48,41,1,,,,,,,,,,,,,,,,,,,,,,,,,,,,
,,,,,SPR24_053,20,Female,2024-04-16_15h36.41.866,jersey_experiment_5_v0,2023.2.2,Win32,84.03361345,,,,,,,,,,,,,,,,562.589,563.6358,563.6358,564.565,return,0.0541,,83.984375,,,,,,FBP-RB-19.png,0.45,1.2,45,0.25,,,,,,,,,,,,,0,49,49,44,1,,,,,,,,,,,,,,,,,,,,,,,,,,,,
,,,,,SPR24_053,20,Female,2024-04-16_15h36.41.866,jersey_experiment_5_v0,2023.2.2,Win32,84.03361345,,,,,,,,,,,,,,,,564.5652,565.8595,565.8595,566.8122,return,0.0595,,15.625,,,,,,FBP-YG-19.png,0.35,1.2,26,0.5,,,,,,,,,,,,,0,50,50,25,1,,,,,,,,,,,,,,,,,,,,,,,,,,,,
,,,,,SPR24_053,20,Female,2024-04-16_15h36.41.866,jersey_experiment_5_v0,2023.2.2,Win32,84.03361345,,,,,,,,,,,,,,,,566.8124,568.1065,568.1065,570.2947,return,1.0425,,32.16145833,,,,,,FBP-YG-18.png,0.4,1.2,23,0.5,,,,,,,,,,,,,0,51,51,22,1,,,,,,,,,,,,,,,,,,,,,,,,,,,,
,,,,,SPR24_053,20,Female,2024-04-16_15h36.41.866,jersey_experiment_5_v0,2023.2.2,Win32,84.03361345,,,,,,,,,,,,,,,,570.2949,571.5889,571.589,573.8478,return,0.0858,,92.83854167,,,,,,FBP-PT-18.png,0.45,1.2,55,0.5,,,,,,,,,,,,,0,52,52,54,1,,,,,,,,,,,,,,,,,,,,,,,,,,,,
,,,,,SPR24_053,20,Female,2024-04-16_15h36.41.866,jersey_experiment_5_v0,2023.2.2,Win32,84.03361345,,,,,,,,,,,,,,,,573.848,575.1418,575.1418,575.7067,return,0.05,,83.85416667,,,,,,FBP-PT-19.png,0.43,1.2,59,0.5,,,,,,,,,,,,,0,53,53,58,1,,,,,,,,,,,,,,,,,,,,,,,,,,,,
,,,,,SPR24_053,20,Female,2024-04-16_15h36.41.866,jersey_experiment_5_v0,2023.2.2,Win32,84.03361345,,,,,,,,,,,,,,,,575.7069,576.7539,576.754,578.095,return,0.2116,,43.48958333,,,,,,FBP-OG-91.png,0.37,1.2,12,0.25,,,,,,,,,,,,,0,54,54,11,1,,,,,,,,,,,,,,,,,,,,,,,,,,,,
,,,,,SPR24_053,20,Female,2024-04-16_15h36.41.866,jersey_experiment_5_v0,2023.2.2,Win32,84.03361345,,,,,,,,,,,,,,,,578.0951,579.142,579.1421,580.5656,return,0.2412,,80.078125,,,,,,FBP-OG-71.png,0.45,1.2,5,0.25,,,,,,,,,,,,,0,55,55,4,1,,,,,,,,,,,,,,,,,,,,,,,,,,,,
,,,,,SPR24_053,20,Female,2024-04-16_15h36.41.866,jersey_experiment_5_v0,2023.2.2,Win32,84.03361345,,,,,,,,,,,,,,,,580.5659,581.6127,581.6128,582.6836,return,0.0244,,32.421875,,,,,,FBP-RB-17.png,0.37,1.2,32,0.25,,,,,,,,,,,,,0,56,56,31,1,,,,,,,,,,,,,,,,,,,,,,,,,,,,
,,,,,SPR24_053,20,Female,2024-04-16_15h36.41.866,jersey_experiment_5_v0,2023.2.2,Win32,84.03361345,,,,,,,,,,,,,,,,582.6838,583.9778,583.9778,586.1541,return,0.0268,,84.89583333,,,,,,FBP-PT-19.png,0.45,1.2,60,0.5,,,,,,,,,,,,,0,57,57,59,1,,,,,,,,,,,,,,,,,,,,,,,,,,,,
,,,,,SPR24_053,20,Female,2024-04-16_15h36.41.866,jersey_experiment_5_v0,2023.2.2,Win32,84.03361345,,,,,,,,,,,,,,,,586.1543,587.4483,587.4484,588.3307,return,0.0618,,63.54166667,,,,,,FBP-PT-17.png,0.4,1.2,48,0.5,,,,,,,,,,,,,0,58,58,47,1,,,,,,,,,,,,,,,,,,,,,,,,,,,,
,,,,,SPR24_053,20,Female,2024-04-16_15h36.41.866,jersey_experiment_5_v0,2023.2.2,Win32,84.03361345,,,,,,,,,,,,,,,,588.3309,589.6249,589.6249,590.2719,return,0.0106,,49.86979167,,,,,,FBP-PT-19.png,0.37,1.2,57,0.5,,,,,,,,,,,,,0,59,59,56,1,,,,,,,,,,,,,,,,,,,,,,,,,,,,
,,,,,SPR24_053,20,Female,2024-04-16_15h36.41.866,jersey_experiment_5_v0,2023.2.2,Win32,84.03361345,,,,,,,,,,,,,,,,590.2733,591.319,591.3191,592.6721,return,0.6125,,53.38541667,,,,,,FBP-OG-19.png,0.4,1.2,13,0.25,,,,,,,,,,,,,,,,,,0,0,0,12,1,,,,,,,,,,,,,,,,,,,,,,,
,,,,,SPR24_053,20,Female,2024-04-16_15h36.41.866,jersey_experiment_5_v0,2023.2.2,Win32,84.03361345,,,,,,,,,,,,,,,,592.6723,593.7192,593.7192,594.7428,return,0.0647,,32.29166667,,,,,,FBP-OG-18.png,0.35,1.2,6,0.25,,,,,,,,,,,,,,,,,,0,1,1,5,1,,,,,,,,,,,,,,,,,,,,,,,
,,,,,SPR24_053,20,Female,2024-04-16_15h36.41.866,jersey_experiment_5_v0,2023.2.2,Win32,84.03361345,,,,,,,,,,,,,,,,594.7431,596.0368,596.0368,597.0132,return,0.0545,,26.953125,,,,,,FBP-YG-71.png,0.35,1.2,16,0.5,,,,,,,,,,,,,,,,,,0,2,2,15,1,,,,,,,,,,,,,,,,,,,,,,,
,,,,,SPR24_053,20,Female,2024-04-16_15h36.41.866,jersey_experiment_5_v0,2023.2.2,Win32,84.03361345,,,,,,,,,,,,,,,,597.0135,598.3076,598.3076,600.3192,return,0.0809,,61.97916667,,,,,,FBP-PT-91.png,0.43,1.2,59,0.5,,,,,,,,,,,,,,,,,,0,3,3,58,1,,,,,,,,,,,,,,,,,,,,,,,
,,,,,SPR24_053,20,Female,2024-04-16_15h36.41.866,jersey_experiment_5_v0,2023.2.2,Win32,84.03361345,,,,,,,,,,,,,,,,600.3195,601.6135,601.6135,602.4959,return,0.0712,,57.421875,,,,,,FBP-YG-91.png,0.4,1.2,28,0.5,,,,,,,,,,,,,,,,,,0,4,4,27,1,,,,,,,,,,,,,,,,,,,,,,,
,,,,,SPR24_053,20,Female,2024-04-16_15h36.41.866,jersey_experiment_5_v0,2023.2.2,Win32,84.03361345,,,,,,,,,,,,,,,,602.4961,603.543,603.543,604.6724,return,0.024,,34.375,,,,,,FBP-RB-91.png,0.35,1.2,41,0.25,,,,,,,,,,,,,,,,,,0,5,5,40,1,,,,,,,,,,,,,,,,,,,,,,,
,,,,,SPR24_053,20,Female,2024-04-16_15h36.41.866,jersey_experiment_5_v0,2023.2.2,Win32,84.03361345,,,,,,,,,,,,,,,,604.6727,605.9667,605.9667,606.8726,return,0.0169,,56.25,,,,,,FBP-PT-81.png,0.43,1.2,54,0.5,,,,,,,,,,,,,,,,,,0,6,6,53,1,,,,,,,,,,,,,,,,,,,,,,,
,,,,,SPR24_053,20,Female,2024-04-16_15h36.41.866,jersey_experiment_5_v0,2023.2.2,Win32,84.03361345,,,,,,,,,,,,,,,,606.8727,608.1669,608.167,608.7785,return,0.0236,,50.390625,,,,,,FBP-PT-71.png,0.37,1.2,47,0.5,,,,,,,,,,,,,,,,,,0,7,7,46,1,,,,,,,,,,,,,,,,,,,,,,,
,,,,,SPR24_053,20,Female,2024-04-16_15h36.41.866,jersey_experiment_5_v0,2023.2.2,Win32,84.03361345,,,,,,,,,,,,,,,,608.7788,609.8255,609.8255,610.3903,return,0.0177,,50.13020833,,,,,,FBP-RB-91.png,0.37,1.2,42,0.25,,,,,,,,,,,,,,,,,,0,8,8,41,1,,,,,,,,,,,,,,,,,,,,,,,
,,,,,SPR24_053,20,Female,2024-04-16_15h36.41.866,jersey_experiment_5_v0,2023.2.2,Win32,84.03361345,,,,,,,,,,,,,,,,610.3906,611.6843,611.6843,612.7316,return,0.1078,,66.27604167,,,,,,FBP-PT-71.png,0.43,1.2,49,0.5,,,,,,,,,,,,,,,,,,0,9,9,48,1,,,,,,,,,,,,,,,,,,,,,,,
,,,,,SPR24_053,20,Female,2024-04-16_15h36.41.866,jersey_experiment_5_v0,2023.2.2,Win32,84.03361345,,,,,,,,,,,,,,,,612.7318,614.0256,614.0257,614.5905,return,0.014,,74.34895833,,,,,,FBP-YG-71.png,0.45,1.2,20,0.5,,,,,,,,,,,,,,,,,,0,10,10,19,1,,,,,,,,,,,,,,,,,,,,,,,
,,,,,SPR24_053,20,Female,2024-04-16_15h36.41.866,jersey_experiment_5_v0,2023.2.2,Win32,84.03361345,,,,,,,,,,,,,,,,614.5907,615.6375,615.6375,616.92,return,0.1455,,75.13020833,,,,,,FBP-RB-81.png,0.43,1.2,39,0.25,,,,,,,,,,,,,,,,,,0,11,11,38,1,,,,,,,,,,,,,,,,,,,,,,,
,,,,,SPR24_053,20,Female,2024-04-16_15h36.41.866,jersey_experiment_5_v0,2023.2.2,Win32,84.03361345,,,,,,,,,,,,,,,,616.9202,617.967,617.967,618.7906,return,0.1483,,74.86979167,,,,,,FBP-OG-18.png,0.43,1.2,9,0.25,,,,,,,,,,,,,,,,,,0,12,12,8,1,,,,,,,,,,,,,,,,,,,,,,,
,,,,,SPR24_053,20,Female,2024-04-16_15h36.41.866,jersey_experiment_5_v0,2023.2.2,Win32,84.03361345,,,,,,,,,,,,,,,,618.7908,620.0847,620.0847,620.5907,return,0.0368,,81.25,,,,,,FBP-PT-71.png,0.45,1.2,50,0.5,,,,,,,,,,,,,,,,,,0,13,13,49,1,,,,,,,,,,,,,,,,,,,,,,,
,,,,,SPR24_053,20,Female,2024-04-16_15h36.41.866,jersey_experiment_5_v0,2023.2.2,Win32,84.03361345,,,,,,,,,,,,,,,,620.5909,621.8847,621.8847,622.379,return,0.0721,,78.90625,,,,,,FBP-PT-81.png,0.4,1.2,53,0.5,,,,,,,,,,,,,,,,,,0,14,14,52,1,,,,,,,,,,,,,,,,,,,,,,,
,,,,,SPR24_053,20,Female,2024-04-16_15h36.41.866,jersey_experiment_5_v0,2023.2.2,Win32,84.03361345,,,,,,,,,,,,,,,,622.3792,623.6732,623.6732,624.1908,return,0.0604,,82.421875,,,,,,FBP-YG-81.png,0.45,1.2,25,0.5,,,,,,,,,,,,,,,,,,0,15,15,24,1,,,,,,,,,,,,,,,,,,,,,,,
,,,,,SPR24_053,20,Female,2024-04-16_15h36.41.866,jersey_experiment_5_v0,2023.2.2,Win32,84.03361345,,,,,,,,,,,,,,,,624.191,625.485,625.4851,626.1908,return,0.0006,,81.90104167,,,,,,FBP-PT-91.png,0.45,1.2,60,0.5,,,,,,,,,,,,,,,,,,0,16,16,59,1,,,,,,,,,,,,,,,,,,,,,,,
,,,,,SPR24_053,20,Female,2024-04-16_15h36.41.866,jersey_experiment_5_v0,2023.2.2,Win32,84.03361345,,,,,,,,,,,,,,,,626.1909,627.2379,627.2379,628.391,return,0.1248,,31.90104167,,,,,,FBP-OG-17.png,0.37,1.2,2,0.25,,,,,,,,,,,,,,,,,,0,17,17,1,1,,,,,,,,,,,,,,,,,,,,,,,
,,,,,SPR24_053,20,Female,2024-04-16_15h36.41.866,jersey_experiment_5_v0,2023.2.2,Win32,84.03361345,,,,,,,,,,,,,,,,628.3912,629.6851,629.6851,630.6969,return,0.0857,,67.96875,,,,,,FBP-YG-91.png,0.45,1.2,30,0.5,,,,,,,,,,,,,,,,,,0,18,18,29,1,,,,,,,,,,,,,,,,,,,,,,,
,,,,,SPR24_053,20,Female,2024-04-16_15h36.41.866,jersey_experiment_5_v0,2023.2.2,Win32,84.03361345,,,,,,,,,,,,,,,,630.6972,631.744,631.744,632.6854,return,0.0367,,83.33333333,,,,,,FBP-RB-81.png,0.45,1.2,40,0.25,,,,,,,,,,,,,,,,,,0,19,19,39,1,,,,,,,,,,,,,,,,,,,,,,,
,,,,,SPR24_053,20,Female,2024-04-16_15h36.41.866,jersey_experiment_5_v0,2023.2.2,Win32,84.03361345,,,,,,,,,,,,,,,,632.6856,633.9793,633.9794,635.0971,return,0.0749,,39.97395833,,,,,,FBP-YG-71.png,0.37,1.2,17,0.5,,,,,,,,,,,,,,,,,,0,20,20,16,1,,,,,,,,,,,,,,,,,,,,,,,
,,,,,SPR24_053,20,Female,2024-04-16_15h36.41.866,jersey_experiment_5_v0,2023.2.2,Win32,84.03361345,,,,,,,,,,,,,,,,635.0974,636.1444,636.1444,637.062,return,0.0999,,49.73958333,,,,,,FBP-RB-91.png,0.43,1.2,44,0.25,,,,,,,,,,,,,,,,,,0,21,21,43,1,,,,,,,,,,,,,,,,,,,,,,,
,,,,,SPR24_053,20,Female,2024-04-16_15h36.41.866,jersey_experiment_5_v0,2023.2.2,Win32,84.03361345,,,,,,,,,,,,,,,,637.0622,638.356,638.3561,639.0974,return,0.0752,,31.25,,,,,,FBP-PT-91.png,0.35,1.2,56,0.5,,,,,,,,,,,,,,,,,,0,22,22,55,1,,,,,,,,,,,,,,,,,,,,,,,
,,,,,SPR24_053,20,Female,2024-04-16_15h36.41.866,jersey_experiment_5_v0,2023.2.2,Win32,84.03361345,,,,,,,,,,,,,,,,639.0976,640.3913,640.3914,641.3561,return,0.0723,,67.44791667,,,,,,FBP-PT-81.png,0.45,1.2,55,0.5,,,,,,,,,,,,,,,,,,0,23,23,54,1,,,,,,,,,,,,,,,,,,,,,,,
,,,,,SPR24_053,20,Female,2024-04-16_15h36.41.866,jersey_experiment_5_v0,2023.2.2,Win32,84.03361345,,,,,,,,,,,,,,,,641.3563,642.4033,642.4033,643.6739,return,0.0393,,57.03125,,,,,,FBP-RB-71.png,0.43,1.2,34,0.25,,,,,,,,,,,,,,,,,,0,24,24,33,1,,,,,,,,,,,,,,,,,,,,,,,
,,,,,SPR24_053,20,Female,2024-04-16_15h36.41.866,jersey_experiment_5_v0,2023.2.2,Win32,84.03361345,,,,,,,,,,,,,,,,643.6741,644.7208,644.7208,645.6623,return,0.0003,,49.73958333,,,,,,FBP-RB-91.png,0.4,1.2,43,0.25,,,,,,,,,,,,,,,,,,0,25,25,42,1,,,,,,,,,,,,,,,,,,,,,,,
,,,,,SPR24_053,20,Female,2024-04-16_15h36.41.866,jersey_experiment_5_v0,2023.2.2,Win32,84.03361345,,,,,,,,,,,,,,,,645.6625,646.7092,646.7093,648.5564,return,0.8712,,21.875,,,,,,FBP-OG-17.png,0.35,1.2,1,0.25,,,,,,,,,,,,,,,,,,0,26,26,0,1,,,,,,,,,,,,,,,,,,,,,,,
,,,,,SPR24_053,20,Female,2024-04-16_15h36.41.866,jersey_experiment_5_v0,2023.2.2,Win32,84.03361345,,,,,,,,,,,,,,,,648.5566,649.8505,649.8505,650.7095,return,0.0198,,20.05208333,,,,,,FBP-YG-81.png,0.35,1.2,21,0.5,,,,,,,,,,,,,,,,,,0,27,27,20,1,,,,,,,,,,,,,,,,,,,,,,,
,,,,,SPR24_053,20,Female,2024-04-16_15h36.41.866,jersey_experiment_5_v0,2023.2.2,Win32,84.03361345,,,,,,,,,,,,,,,,650.7098,652.0036,652.0037,653.2388,return,0.101,,68.359375,,,,,,FBP-YG-91.png,0.43,1.2,29,0.5,,,,,,,,,,,,,,,,,,0,28,28,28,1,,,,,,,,,,,,,,,,,,,,,,,
,,,,,SPR24_053,20,Female,2024-04-16_15h36.41.866,jersey_experiment_5_v0,2023.2.2,Win32,84.03361345,,,,,,,,,,,,,,,,653.2391,654.286,654.286,655.2625,return,0.0574,,84.89583333,,,,,,FBP-OG-19.png,0.45,1.2,15,0.25,,,,,,,,,,,,,,,,,,0,29,29,14,1,,,,,,,,,,,,,,,,,,,,,,,
,,,,,SPR24_053,20,Female,2024-04-16_15h36.41.866,jersey_experiment_5_v0,2023.2.2,Win32,84.03361345,,,,,,,,,,,,,,,,655.2627,656.5567,656.5567,657.4862,return,0.1543,,75.13020833,,,,,,FBP-PT-71.png,0.4,1.2,48,0.5,,,,,,,,,,,,,,,,,,0,30,30,47,1,,,,,,,,,,,,,,,,,,,,,,,
,,,,,SPR24_053,20,Female,2024-04-16_15h36.41.866,jersey_experiment_5_v0,2023.2.2,Win32,84.03361345,,,,,,,,,,,,,,,,657.4864,658.7802,658.7802,659.5452,return,0.0281,,30.72916667,,,,,,FBP-YG-91.png,0.35,1.2,26,0.5,,,,,,,,,,,,,,,,,,0,31,31,25,1,,,,,,,,,,,,,,,,,,,,,,,
,,,,,SPR24_053,20,Female,2024-04-16_15h36.41.866,jersey_experiment_5_v0,2023.2.2,Win32,84.03361345,,,,,,,,,,,,,,,,659.5454,660.5922,660.5922,661.8158,return,0.0752,,50.65104167,,,,,,FBP-RB-81.png,0.4,1.2,38,0.25,,,,,,,,,,,,,,,,,,0,32,32,37,1,,,,,,,,,,,,,,,,,,,,,,,
,,,,,SPR24_053,20,Female,2024-04-16_15h36.41.866,jersey_experiment_5_v0,2023.2.2,Win32,84.03361345,,,,,,,,,,,,,,,,661.816,663.1099,663.11,663.7925,return,0.0942,,44.27083333,,,,,,FBP-PT-91.png,0.37,1.2,57,0.5,,,,,,,,,,,,,,,,,,0,33,33,56,1,,,,,,,,,,,,,,,,,,,,,,,
,,,,,SPR24_053,20,Female,2024-04-16_15h36.41.866,jersey_experiment_5_v0,2023.2.2,Win32,84.03361345,,,,,,,,,,,,,,,,663.7928,665.0863,665.0864,665.851,return,0.0837,,64.0625,,,,,,FBP-YG-71.png,0.43,1.2,19,0.5,,,,,,,,,,,,,,,,,,0,34,34,18,1,,,,,,,,,,,,,,,,,,,,,,,
,,,,,SPR24_053,20,Female,2024-04-16_15h36.41.866,jersey_experiment_5_v0,2023.2.2,Win32,84.03361345,,,,,,,,,,,,,,,,665.8513,667.1453,667.1453,667.7924,return,0.0468,,71.22395833,,,,,,FBP-YG-81.png,0.43,1.2,24,0.5,,,,,,,,,,,,,,,,,,0,35,35,23,1,,,,,,,,,,,,,,,,,,,,,,,
,,,,,SPR24_053,20,Female,2024-04-16_15h36.41.866,jersey_experiment_5_v0,2023.2.2,Win32,84.03361345,,,,,,,,,,,,,,,,667.7927,668.8394,668.8395,669.7689,return,0.0503,,41.66666667,,,,,,FBP-RB-71.png,0.35,1.2,31,0.25,,,,,,,,,,,,,,,,,,0,36,36,30,1,,,,,,,,,,,,,,,,,,,,,,,
,,,,,SPR24_053,20,Female,2024-04-16_15h36.41.866,jersey_experiment_5_v0,2023.2.2,Win32,84.03361345,,,,,,,,,,,,,,,,669.7692,670.8161,670.8162,671.9926,return,0.1461,,32.8125,,,,,,FBP-OG-19.png,0.35,1.2,11,0.25,,,,,,,,,,,,,,,,,,0,37,37,10,1,,,,,,,,,,,,,,,,,,,,,,,
,,,,,SPR24_053,20,Female,2024-04-16_15h36.41.866,jersey_experiment_5_v0,2023.2.2,Win32,84.03361345,,,,,,,,,,,,,,,,671.9928,673.0396,673.0397,674.8869,return,0.2997,,63.93229167,,,,,,FBP-OG-17.png,0.4,1.2,3,0.25,,,,,,,,,,,,,,,,,,0,38,38,2,1,,,,,,,,,,,,,,,,,,,,,,,
,,,,,SPR24_053,20,Female,2024-04-16_15h36.41.866,jersey_experiment_5_v0,2023.2.2,Win32,84.03361345,,,,,,,,,,,,,,,,674.8871,676.1809,676.1809,677.2751,return,0.0952,,39.71354167,,,,,,FBP-PT-71.png,0.35,1.2,46,0.5,,,,,,,,,,,,,,,,,,0,39,39,45,1,,,,,,,,,,,,,,,,,,,,,,,
,,,,,SPR24_053,20,Female,2024-04-16_15h36.41.866,jersey_experiment_5_v0,2023.2.2,Win32,84.03361345,,,,,,,,,,,,,,,,677.2753,678.3221,678.3221,679.0871,return,0.0603,,39.58333333,,,,,,FBP-RB-81.png,0.35,1.2,36,0.25,,,,,,,,,,,,,,,,,,0,40,40,35,1,,,,,,,,,,,,,,,,,,,,,,,
,,,,,SPR24_053,20,Female,2024-04-16_15h36.41.866,jersey_experiment_5_v0,2023.2.2,Win32,84.03361345,,,,,,,,,,,,,,,,679.0873,680.1339,680.134,680.7577,return,0.0295,,39.71354167,,,,,,FBP-RB-81.png,0.37,1.2,37,0.25,,,,,,,,,,,,,,,,,,0,41,41,36,1,,,,,,,,,,,,,,,,,,,,,,,
,,,,,SPR24_053,20,Female,2024-04-16_15h36.41.866,jersey_experiment_5_v0,2023.2.2,Win32,84.03361345,,,,,,,,,,,,,,,,680.7579,681.8046,681.8046,682.8282,return,0.0622,,83.984375,,,,,,FBP-RB-91.png,0.45,1.2,45,0.25,,,,,,,,,,,,,,,,,,0,42,42,44,1,,,,,,,,,,,,,,,,,,,,,,,
,,,,,SPR24_053,20,Female,2024-04-16_15h36.41.866,jersey_experiment_5_v0,2023.2.2,Win32,84.03361345,,,,,,,,,,,,,,,,682.8284,684.1224,684.1224,685.6638,return,0.0473,,70.44270833,,,,,,FBP-YG-81.png,0.4,1.2,23,0.5,,,,,,,,,,,,,,,,,,0,43,43,22,1,,,,,,,,,,,,,,,,,,,,,,,
,,,,,SPR24_053,20,Female,2024-04-16_15h36.41.866,jersey_experiment_5_v0,2023.2.2,Win32,84.03361345,,,,,,,,,,,,,,,,685.664,686.9578,686.9578,688.2049,return,0.1653,,42.05729167,,,,,,FBP-YG-91.png,0.37,1.2,27,0.5,,,,,,,,,,,,,,,,,,0,44,44,26,1,,,,,,,,,,,,,,,,,,,,,,,
,,,,,SPR24_053,20,Female,2024-04-16_15h36.41.866,jersey_experiment_5_v0,2023.2.2,Win32,84.03361345,,,,,,,,,,,,,,,,688.2052,689.252,689.252,690.2991,return,0.0598,,63.02083333,,,,,,FBP-OG-19.png,0.43,1.2,14,0.25,,,,,,,,,,,,,,,,,,0,45,45,13,1,,,,,,,,,,,,,,,,,,,,,,,
,,,,,SPR24_053,20,Female,2024-04-16_15h36.41.866,jersey_experiment_5_v0,2023.2.2,Win32,84.03361345,,,,,,,,,,,,,,,,690.2994,691.3462,691.3462,692.3581,return,0.0666,,60.9375,,,,,,FBP-RB-71.png,0.37,1.2,32,0.25,,,,,,,,,,,,,,,,,,0,46,46,31,1,,,,,,,,,,,,,,,,,,,,,,,
,,,,,SPR24_053,20,Female,2024-04-16_15h36.41.866,jersey_experiment_5_v0,2023.2.2,Win32,84.03361345,,,,,,,,,,,,,,,,692.3582,693.4051,693.4051,694.1699,return,0.0159,,68.88020833,,,,,,FBP-OG-17.png,0.43,1.2,4,0.25,,,,,,,,,,,,,,,,,,0,47,47,3,1,,,,,,,,,,,,,,,,,,,,,,,
,,,,,SPR24_053,20,Female,2024-04-16_15h36.41.866,jersey_experiment_5_v0,2023.2.2,Win32,84.03361345,,,,,,,,,,,,,,,,694.1701,695.2171,695.2172,696.8288,return,0.0603,,49.73958333,,,,,,FBP-RB-71.png,0.4,1.2,33,0.25,,,,,,,,,,,,,,,,,,0,48,48,32,1,,,,,,,,,,,,,,,,,,,,,,,
,,,,,SPR24_053,20,Female,2024-04-16_15h36.41.866,jersey_experiment_5_v0,2023.2.2,Win32,84.03361345,,,,,,,,,,,,,,,,696.8291,698.1229,698.1229,699.0524,return,0.0016,,54.03645833,,,,,,FBP-YG-71.png,0.4,1.2,18,0.5,,,,,,,,,,,,,,,,,,0,49,49,17,1,,,,,,,,,,,,,,,,,,,,,,,
,,,,,SPR24_053,20,Female,2024-04-16_15h36.41.866,jersey_experiment_5_v0,2023.2.2,Win32,84.03361345,,,,,,,,,,,,,,,,699.0527,700.3465,700.3465,701.4054,return,0.0005,,53.38541667,,,,,,FBP-YG-81.png,0.37,1.2,22,0.5,,,,,,,,,,,,,,,,,,0,50,50,21,1,,,,,,,,,,,,,,,,,,,,,,,
,,,,,SPR24_053,20,Female,2024-04-16_15h36.41.866,jersey_experiment_5_v0,2023.2.2,Win32,84.03361345,,,,,,,,,,,,,,,,701.4056,702.4525,702.4525,703.2408,return,0.0145,,52.99479167,,,,,,FBP-OG-18.png,0.37,1.2,7,0.25,,,,,,,,,,,,,,,,,,0,51,51,6,1,,,,,,,,,,,,,,,,,,,,,,,
,,,,,SPR24_053,20,Female,2024-04-16_15h36.41.866,jersey_experiment_5_v0,2023.2.2,Win32,84.03361345,,,,,,,,,,,,,,,,703.2409,704.5349,704.5349,705.0175,return,0.05,,52.99479167,,,,,,FBP-PT-81.png,0.37,1.2,52,0.5,,,,,,,,,,,,,,,,,,0,52,52,51,1,,,,,,,,,,,,,,,,,,,,,,,
,,,,,SPR24_053,20,Female,2024-04-16_15h36.41.866,jersey_experiment_5_v0,2023.2.2,Win32,84.03361345,,,,,,,,,,,,,,,,705.0178,706.0643,706.0644,706.8762,return,0.0007,,80.72916667,,,,,,FBP-OG-18.png,0.45,1.2,10,0.25,,,,,,,,,,,,,,,,,,0,53,53,9,1,,,,,,,,,,,,,,,,,,,,,,,
,,,,,SPR24_053,20,Female,2024-04-16_15h36.41.866,jersey_experiment_5_v0,2023.2.2,Win32,84.03361345,,,,,,,,,,,,,,,,706.8763,708.1704,708.1704,708.9705,return,0.0255,,67.44791667,,,,,,FBP-PT-91.png,0.4,1.2,58,0.5,,,,,,,,,,,,,,,,,,0,54,54,57,1,,,,,,,,,,,,,,,,,,,,,,,
,,,,,SPR24_053,20,Female,2024-04-16_15h36.41.866,jersey_experiment_5_v0,2023.2.2,Win32,84.03361345,,,,,,,,,,,,,,,,708.9708,710.0175,710.0175,710.5586,return,0.0344,,66.796875,,,,,,FBP-OG-18.png,0.4,1.2,8,0.25,,,,,,,,,,,,,,,,,,0,55,55,7,1,,,,,,,,,,,,,,,,,,,,,,,
,,,,,SPR24_053,20,Female,2024-04-16_15h36.41.866,jersey_experiment_5_v0,2023.2.2,Win32,84.03361345,,,,,,,,,,,,,,,,710.5589,711.8528,711.8529,712.5589,return,0.0236,,42.578125,,,,,,FBP-PT-81.png,0.35,1.2,51,0.5,,,,,,,,,,,,,,,,,,0,56,56,50,1,,,,,,,,,,,,,,,,,,,,,,,
,,,,,SPR24_053,20,Female,2024-04-16_15h36.41.866,jersey_experiment_5_v0,2023.2.2,Win32,84.03361345,,,,,,,,,,,,,,,,712.5591,713.6059,713.6059,714.3941,return,0.0142,,78.515625,,,,,,FBP-RB-71.png,0.45,1.2,35,0.25,,,,,,,,,,,,,,,,,,0,57,57,34,1,,,,,,,,,,,,,,,,,,,,,,,
,,,,,SPR24_053,20,Female,2024-04-16_15h36.41.866,jersey_experiment_5_v0,2023.2.2,Win32,84.03361345,,,,,,,,,,,,,,,,714.3944,715.4412,715.4413,717.3357,return,0.0768,,50.390625,,,,,,FBP-OG-19.png,0.37,1.2,12,0.25,,,,,,,,,,,,,,,,,,0,58,58,11,1,,,,,,,,,,,,,,,,,,,,,,,
,,,,,SPR24_053,20,Female,2024-04-16_15h36.41.866,jersey_experiment_5_v0,2023.2.2,Win32,84.03361345,,,,,,,,,,,,,,,,717.3358,718.3825,718.3826,719.1474,return,0.0025,,81.640625,,,,,,FBP-OG-17.png,0.45,1.2,5,0.25,,,,,,,,,,,,,,,,,,0,59,59,4,1,,,,,,,,,,,,,,,,,,,,,,,
,,,,,SPR24_053,20,Female,2024-04-16_15h36.41.866,jersey_experiment_5_v0,2023.2.2,Win32,84.03361345,,,,,,,,,,,,,,,,,,,,,,,,,,,,,,,,,,,,,,,,,,,,,,,,,,,,,,,,719.1479,726.5361,return,7.3803,,,,,,,,,,,,,,,,,,,
,,,,,SPR24_053,20,Female,2024-04-16_15h36.41.866,jersey_experiment_5_v0,2023.2.2,Win32,84.03361345,,,,,,,,,,,,,,,,,,,,,,,,,,,,,,,,,,,,,,,,,,,,,,,,,,,,,,,,,,,,,726.5361,733.3364,1,5.2964,return,1.4877,,,,,,,,,,,,
,,,,,SPR24_053,20,Female,2024-04-16_15h36.41.866,jersey_experiment_5_v0,2023.2.2,Win32,84.03361345,,,,,,,,,,,,,,,,,,,,,,,,,,,,,,,,,,,,,,,,,,,,,,,,,,,,,,,,,,,,,,,,,,,,733.3365,776.6843,different skin color and color of the jerseys to see if people would respond differently through their perception. ,right,37.077,,,,,,
,,,,,SPR24_053,20,Female,2024-04-16_15h36.41.866,jersey_experiment_5_v0,2023.2.2,Win32,84.03361345,,,,,,,,,,,,,,,,,,,,,,,,,,,,,,,,,,,,,,,,,,,,,,,,,,,,,,,,,,,,,,,,,,,,,,,,,,776.6844,782.2791,return,5.5887,