requirements.started,requirements.stopped,key_resp_3.keys,key_resp_3.rt,key_resp_3.duration,Subject ID,Age,Gender,date,expName,psychopyVersion,OS,frameRate,instructions1.started,instructions1.stopped,key_resp.keys,key_resp.rt,key_resp.duration,example.started,example.stopped,enter_2.keys,enter_2.rt,enter_2.duration,instructions2.started,instructions2.stopped,enter_3.keys,enter_3.rt,enter_3.duration,image.started,image.stopped,slider_2.started,slider_2.stopped,next.keys,next.rt,next.duration,slider.response,trial_block_1.thisRepN,trial_block_1.thisTrialN,trial_block_1.thisN,trial_block_1.thisIndex,trial_block_1.ran,Path,Width,Height,Index,Duration,trial_block_2.thisRepN,trial_block_2.thisTrialN,trial_block_2.thisN,trial_block_2.thisIndex,trial_block_2.ran,rest_break.started,rest_break.stopped,end_break.started,end_break.stopped,key_resp_5.keys,key_resp_5.rt,key_resp_5.duration,trial_block_3.thisRepN,trial_block_3.thisTrialN,trial_block_3.thisN,trial_block_3.thisIndex,trial_block_3.ran,trial_block_4.thisRepN,trial_block_4.thisTrialN,trial_block_4.thisN,trial_block_4.thisIndex,trial_block_4.ran,questions_intro.started,questions_intro.stopped,enter_12.keys,enter_12.rt,enter_12.duration,question2.started,question2.stopped,question_doingbest.response,question_doingbest.rt,enter_15.keys,enter_15.rt,enter_15.duration,pattern.started,pattern.stopped,pattern_2.text,enter_17.keys,enter_17.rt,enter_17.duration,thankyou.started,thankyou.stopped,enter_14.keys,enter_14.rt,enter_14.duration
0.0001,13.8925,return,13.8861,,SPR24_061,18,Male,2024-04-17_15h35.16.200,jersey_experiment_5_v0,2023.2.2,Win32,84.74576271,,,,,,,,,,,,,,,,,,,,,,,,,,,,,,,,,,,,,,,,,,,,,,,,,,,,,,,,,,,,,,,,,,,,,,,,,,,,,,
,,,,,SPR24_061,18,Male,2024-04-17_15h35.16.200,jersey_experiment_5_v0,2023.2.2,Win32,84.74576271,13.8925,20.7857,return,6.8869,,,,,,,,,,,,,,,,,,,,,,,,,,,,,,,,,,,,,,,,,,,,,,,,,,,,,,,,,,,,,,,,,,,,,,,,,,
,,,,,SPR24_061,18,Male,2024-04-17_15h35.16.200,jersey_experiment_5_v0,2023.2.2,Win32,84.74576271,,,,,,20.7858,27.2095,return,6.3904,,,,,,,,,,,,,,,,,,,,,,,,,,,,,,,,,,,,,,,,,,,,,,,,,,,,,,,,,,,,,,,,,,,,,
,,,,,SPR24_061,18,Male,2024-04-17_15h35.16.200,jersey_experiment_5_v0,2023.2.2,Win32,84.74576271,,,,,,,,,,,27.2095,51.1044,return,23.8899,,,,,,,,,,,,,,,,,,,,,,,,,,,,,,,,,,,,,,,,,,,,,,,,,,,,,,,,,,,,,,,,
,,,,,SPR24_061,18,Male,2024-04-17_15h35.16.200,jersey_experiment_5_v0,2023.2.2,Win32,84.74576271,,,,,,,,,,,,,,,,51.1129,52.4103,52.4104,60.9517,return,3.661,,75,0,0,0,13,1,FBP-OG-91.png,0.43,1.2,14,0.5,,,,,,,,,,,,,,,,,,,,,,,,,,,,,,,,,,,,,,,,,,,,,
,,,,,SPR24_061,18,Male,2024-04-17_15h35.16.200,jersey_experiment_5_v0,2023.2.2,Win32,84.74576271,,,,,,,,,,,,,,,,60.9521,62.2458,62.2458,66.1635,return,1.1813,,75.65104167,0,1,1,10,1,FBP-OG-91.png,0.35,1.2,11,0.5,,,,,,,,,,,,,,,,,,,,,,,,,,,,,,,,,,,,,,,,,,,,,
,,,,,SPR24_061,18,Male,2024-04-17_15h35.16.200,jersey_experiment_5_v0,2023.2.2,Win32,84.74576271,,,,,,,,,,,,,,,,66.1638,67.2106,67.2106,71.1401,return,1.5797,,75.65104167,0,2,2,45,1,FBP-PT-17.png,0.35,1.2,46,0.25,,,,,,,,,,,,,,,,,,,,,,,,,,,,,,,,,,,,,,,,,,,,,
,,,,,SPR24_061,18,Male,2024-04-17_15h35.16.200,jersey_experiment_5_v0,2023.2.2,Win32,84.74576271,,,,,,,,,,,,,,,,71.1403,72.1871,72.1871,76.5167,return,0.9775,,75.52083333,0,3,3,18,1,FBP-YG-17.png,0.43,1.2,19,0.25,,,,,,,,,,,,,,,,,,,,,,,,,,,,,,,,,,,,,,,,,,,,,
,,,,,SPR24_061,18,Male,2024-04-17_15h35.16.200,jersey_experiment_5_v0,2023.2.2,Win32,84.74576271,,,,,,,,,,,,,,,,76.5168,77.5638,77.5638,88.6818,return,4.7161,,59.50520833,0,4,4,57,1,FBP-PT-19.png,0.4,1.2,58,0.25,,,,,,,,,,,,,,,,,,,,,,,,,,,,,,,,,,,,,,,,,,,,,
,,,,,SPR24_061,18,Male,2024-04-17_15h35.16.200,jersey_experiment_5_v0,2023.2.2,Win32,84.74576271,,,,,,,,,,,,,,,,88.6819,89.976,89.976,94.2939,return,1.9303,,31.640625,0,5,5,1,1,FBP-OG-71.png,0.37,1.2,2,0.5,,,,,,,,,,,,,,,,,,,,,,,,,,,,,,,,,,,,,,,,,,,,,
,,,,,SPR24_061,18,Male,2024-04-17_15h35.16.200,jersey_experiment_5_v0,2023.2.2,Win32,84.74576271,,,,,,,,,,,,,,,,94.2942,95.341,95.341,98.7528,return,1.4193,,37.5,0,6,6,26,1,FBP-YG-19.png,0.37,1.2,27,0.25,,,,,,,,,,,,,,,,,,,,,,,,,,,,,,,,,,,,,,,,,,,,,
,,,,,SPR24_061,18,Male,2024-04-17_15h35.16.200,jersey_experiment_5_v0,2023.2.2,Win32,84.74576271,,,,,,,,,,,,,,,,98.7529,99.8,99.8,102.5294,return,0.8188,,91.92708333,0,7,7,54,1,FBP-PT-18.png,0.45,1.2,55,0.25,,,,,,,,,,,,,,,,,,,,,,,,,,,,,,,,,,,,,,,,,,,,,
,,,,,SPR24_061,18,Male,2024-04-17_15h35.16.200,jersey_experiment_5_v0,2023.2.2,Win32,84.74576271,,,,,,,,,,,,,,,,102.5295,103.5764,103.5764,109.6473,return,1.1248,,63.41145833,0,8,8,47,1,FBP-PT-17.png,0.4,1.2,48,0.25,,,,,,,,,,,,,,,,,,,,,,,,,,,,,,,,,,,,,,,,,,,,,
,,,,,SPR24_061,18,Male,2024-04-17_15h35.16.200,jersey_experiment_5_v0,2023.2.2,Win32,84.74576271,,,,,,,,,,,,,,,,109.6475,110.9414,110.9415,115.224,return,1.3889,,100,0,9,9,44,1,FBP-RB-19.png,0.45,1.2,45,0.5,,,,,,,,,,,,,,,,,,,,,,,,,,,,,,,,,,,,,,,,,,,,,
,,,,,SPR24_061,18,Male,2024-04-17_15h35.16.200,jersey_experiment_5_v0,2023.2.2,Win32,84.74576271,,,,,,,,,,,,,,,,115.2243,116.5181,116.5181,121.5536,return,3.1704,,82.29166667,0,10,10,3,1,FBP-OG-71.png,0.43,1.2,4,0.5,,,,,,,,,,,,,,,,,,,,,,,,,,,,,,,,,,,,,,,,,,,,,
,,,,,SPR24_061,18,Male,2024-04-17_15h35.16.200,jersey_experiment_5_v0,2023.2.2,Win32,84.74576271,,,,,,,,,,,,,,,,121.5589,122.8597,122.8597,127.3186,return,1.141,,69.27083333,0,11,11,31,1,FBP-RB-17.png,0.37,1.2,32,0.5,,,,,,,,,,,,,,,,,,,,,,,,,,,,,,,,,,,,,,,,,,,,,
,,,,,SPR24_061,18,Male,2024-04-17_15h35.16.200,jersey_experiment_5_v0,2023.2.2,Win32,84.74576271,,,,,,,,,,,,,,,,127.3187,128.3657,128.3657,132.6482,return,0.9411,,43.88020833,0,12,12,56,1,FBP-PT-19.png,0.37,1.2,57,0.25,,,,,,,,,,,,,,,,,,,,,,,,,,,,,,,,,,,,,,,,,,,,,
,,,,,SPR24_061,18,Male,2024-04-17_15h35.16.200,jersey_experiment_5_v0,2023.2.2,Win32,84.74576271,,,,,,,,,,,,,,,,132.6484,133.9423,133.9423,142.0839,return,4.9441,,26.5625,0,13,13,40,1,FBP-RB-19.png,0.35,1.2,41,0.5,,,,,,,,,,,,,,,,,,,,,,,,,,,,,,,,,,,,,,,,,,,,,
,,,,,SPR24_061,18,Male,2024-04-17_15h35.16.200,jersey_experiment_5_v0,2023.2.2,Win32,84.74576271,,,,,,,,,,,,,,,,142.0841,143.378,143.3781,148.9547,return,2.1422,,89.71354167,0,14,14,4,1,FBP-OG-71.png,0.45,1.2,5,0.5,,,,,,,,,,,,,,,,,,,,,,,,,,,,,,,,,,,,,,,,,,,,,
,,,,,SPR24_061,18,Male,2024-04-17_15h35.16.200,jersey_experiment_5_v0,2023.2.2,Win32,84.74576271,,,,,,,,,,,,,,,,148.955,150.2488,150.2488,153.7195,return,1.187,,99.73958333,0,15,15,34,1,FBP-RB-17.png,0.45,1.2,35,0.5,,,,,,,,,,,,,,,,,,,,,,,,,,,,,,,,,,,,,,,,,,,,,
,,,,,SPR24_061,18,Male,2024-04-17_15h35.16.200,jersey_experiment_5_v0,2023.2.2,Win32,84.74576271,,,,,,,,,,,,,,,,153.7197,155.0137,155.0137,158.6607,return,0.8131,,33.72395833,0,16,16,36,1,FBP-RB-18.png,0.37,1.2,37,0.5,,,,,,,,,,,,,,,,,,,,,,,,,,,,,,,,,,,,,,,,,,,,,
,,,,,SPR24_061,18,Male,2024-04-17_15h35.16.200,jersey_experiment_5_v0,2023.2.2,Win32,84.74576271,,,,,,,,,,,,,,,,158.6609,159.708,159.708,162.261,return,0.6716,,24.08854167,0,17,17,21,1,FBP-YG-18.png,0.37,1.2,22,0.25,,,,,,,,,,,,,,,,,,,,,,,,,,,,,,,,,,,,,,,,,,,,,
,,,,,SPR24_061,18,Male,2024-04-17_15h35.16.200,jersey_experiment_5_v0,2023.2.2,Win32,84.74576271,,,,,,,,,,,,,,,,162.2612,163.5551,163.5551,166.8258,return,0.5881,,32.68229167,0,18,18,37,1,FBP-RB-18.png,0.4,1.2,38,0.5,,,,,,,,,,,,,,,,,,,,,,,,,,,,,,,,,,,,,,,,,,,,,
,,,,,SPR24_061,18,Male,2024-04-17_15h35.16.200,jersey_experiment_5_v0,2023.2.2,Win32,84.74576271,,,,,,,,,,,,,,,,166.826,168.1198,168.1199,171.5789,return,1.3412,,100,0,19,19,43,1,FBP-RB-19.png,0.43,1.2,44,0.5,,,,,,,,,,,,,,,,,,,,,,,,,,,,,,,,,,,,,,,,,,,,,
,,,,,SPR24_061,18,Male,2024-04-17_15h35.16.200,jersey_experiment_5_v0,2023.2.2,Win32,84.74576271,,,,,,,,,,,,,,,,171.5792,172.6261,172.6262,176.4379,return,0.707,,99.34895833,0,20,20,28,1,FBP-YG-19.png,0.43,1.2,29,0.25,,,,,,,,,,,,,,,,,,,,,,,,,,,,,,,,,,,,,,,,,,,,,
,,,,,SPR24_061,18,Male,2024-04-17_15h35.16.200,jersey_experiment_5_v0,2023.2.2,Win32,84.74576271,,,,,,,,,,,,,,,,176.438,177.7322,177.7322,180.0029,return,1.027,,19.27083333,0,21,21,35,1,FBP-RB-18.png,0.35,1.2,36,0.5,,,,,,,,,,,,,,,,,,,,,,,,,,,,,,,,,,,,,,,,,,,,,
,,,,,SPR24_061,18,Male,2024-04-17_15h35.16.200,jersey_experiment_5_v0,2023.2.2,Win32,84.74576271,,,,,,,,,,,,,,,,180.0031,181.2969,181.2969,184.1795,return,0.6619,,100,0,22,22,14,1,FBP-OG-91.png,0.45,1.2,15,0.5,,,,,,,,,,,,,,,,,,,,,,,,,,,,,,,,,,,,,,,,,,,,,
,,,,,SPR24_061,18,Male,2024-04-17_15h35.16.200,jersey_experiment_5_v0,2023.2.2,Win32,84.74576271,,,,,,,,,,,,,,,,184.1797,185.2265,185.2266,190.6973,return,2.1408,,36.328125,0,23,23,15,1,FBP-YG-17.png,0.35,1.2,16,0.25,,,,,,,,,,,,,,,,,,,,,,,,,,,,,,,,,,,,,,,,,,,,,
,,,,,SPR24_061,18,Male,2024-04-17_15h35.16.200,jersey_experiment_5_v0,2023.2.2,Win32,84.74576271,,,,,,,,,,,,,,,,190.6976,191.9914,191.9914,195.121,return,0.7482,,85.9375,0,24,24,2,1,FBP-OG-71.png,0.4,1.2,3,0.5,,,,,,,,,,,,,,,,,,,,,,,,,,,,,,,,,,,,,,,,,,,,,
,,,,,SPR24_061,18,Male,2024-04-17_15h35.16.200,jersey_experiment_5_v0,2023.2.2,Win32,84.74576271,,,,,,,,,,,,,,,,195.1212,196.1679,196.1681,198.474,return,0.6121,,89.97395833,0,25,25,17,1,FBP-YG-17.png,0.4,1.2,18,0.25,,,,,,,,,,,,,,,,,,,,,,,,,,,,,,,,,,,,,,,,,,,,,
,,,,,SPR24_061,18,Male,2024-04-17_15h35.16.200,jersey_experiment_5_v0,2023.2.2,Win32,84.74576271,,,,,,,,,,,,,,,,198.4742,199.5212,199.5212,202.7446,return,1.0257,,25,0,26,26,25,1,FBP-YG-19.png,0.35,1.2,26,0.25,,,,,,,,,,,,,,,,,,,,,,,,,,,,,,,,,,,,,,,,,,,,,
,,,,,SPR24_061,18,Male,2024-04-17_15h35.16.200,jersey_experiment_5_v0,2023.2.2,Win32,84.74576271,,,,,,,,,,,,,,,,202.7448,204.0389,204.0389,207.8156,return,1.0925,,34.63541667,0,27,27,30,1,FBP-RB-17.png,0.35,1.2,31,0.5,,,,,,,,,,,,,,,,,,,,,,,,,,,,,,,,,,,,,,,,,,,,,
,,,,,SPR24_061,18,Male,2024-04-17_15h35.16.200,jersey_experiment_5_v0,2023.2.2,Win32,84.74576271,,,,,,,,,,,,,,,,207.8158,209.1096,209.1096,211.6392,return,0.6111,,11.328125,0,28,28,5,1,FBP-OG-81.png,0.35,1.2,6,0.5,,,,,,,,,,,,,,,,,,,,,,,,,,,,,,,,,,,,,,,,,,,,,
,,,,,SPR24_061,18,Male,2024-04-17_15h35.16.200,jersey_experiment_5_v0,2023.2.2,Win32,84.74576271,,,,,,,,,,,,,,,,211.6395,212.6863,212.6863,216.3453,return,0.7901,,75,0,29,29,52,1,FBP-PT-18.png,0.4,1.2,53,0.25,,,,,,,,,,,,,,,,,,,,,,,,,,,,,,,,,,,,,,,,,,,,,
,,,,,SPR24_061,18,Male,2024-04-17_15h35.16.200,jersey_experiment_5_v0,2023.2.2,Win32,84.74576271,,,,,,,,,,,,,,,,216.3454,217.3923,217.3924,220.2394,return,0.7473,,87.5,0,30,30,23,1,FBP-YG-18.png,0.43,1.2,24,0.25,,,,,,,,,,,,,,,,,,,,,,,,,,,,,,,,,,,,,,,,,,,,,
,,,,,SPR24_061,18,Male,2024-04-17_15h35.16.200,jersey_experiment_5_v0,2023.2.2,Win32,84.74576271,,,,,,,,,,,,,,,,220.2396,221.2864,221.2865,226.8514,return,3.5815,,94.66145833,0,31,31,24,1,FBP-YG-18.png,0.45,1.2,25,0.25,,,,,,,,,,,,,,,,,,,,,,,,,,,,,,,,,,,,,,,,,,,,,
,,,,,SPR24_061,18,Male,2024-04-17_15h35.16.200,jersey_experiment_5_v0,2023.2.2,Win32,84.74576271,,,,,,,,,,,,,,,,226.8517,227.8986,227.8987,231.1458,return,0.7181,,100,0,32,32,29,1,FBP-YG-19.png,0.45,1.2,30,0.25,,,,,,,,,,,,,,,,,,,,,,,,,,,,,,,,,,,,,,,,,,,,,
,,,,,SPR24_061,18,Male,2024-04-17_15h35.16.200,jersey_experiment_5_v0,2023.2.2,Win32,84.74576271,,,,,,,,,,,,,,,,231.1459,232.1928,232.1928,237.2048,return,2.9315,,17.44791667,0,33,33,16,1,FBP-YG-17.png,0.37,1.2,17,0.25,,,,,,,,,,,,,,,,,,,,,,,,,,,,,,,,,,,,,,,,,,,,,
,,,,,SPR24_061,18,Male,2024-04-17_15h35.16.200,jersey_experiment_5_v0,2023.2.2,Win32,84.74576271,,,,,,,,,,,,,,,,237.2052,238.2519,238.2519,241.9462,return,0.7065,,100,0,34,34,53,1,FBP-PT-18.png,0.43,1.2,54,0.25,,,,,,,,,,,,,,,,,,,,,,,,,,,,,,,,,,,,,,,,,,,,,
,,,,,SPR24_061,18,Male,2024-04-17_15h35.16.200,jersey_experiment_5_v0,2023.2.2,Win32,84.74576271,,,,,,,,,,,,,,,,241.9464,243.2403,243.2404,252.1348,return,5.601,,15.49479167,0,35,35,0,1,FBP-OG-71.png,0.35,1.2,1,0.5,,,,,,,,,,,,,,,,,,,,,,,,,,,,,,,,,,,,,,,,,,,,,
,,,,,SPR24_061,18,Male,2024-04-17_15h35.16.200,jersey_experiment_5_v0,2023.2.2,Win32,84.74576271,,,,,,,,,,,,,,,,252.1351,253.1818,253.1818,257.3702,return,0.6354,,11.06770833,0,36,36,20,1,FBP-YG-18.png,0.35,1.2,21,0.25,,,,,,,,,,,,,,,,,,,,,,,,,,,,,,,,,,,,,,,,,,,,,
,,,,,SPR24_061,18,Male,2024-04-17_15h35.16.200,jersey_experiment_5_v0,2023.2.2,Win32,84.74576271,,,,,,,,,,,,,,,,257.3704,258.4173,258.4173,260.8998,return,0.602,,38.15104167,0,37,37,51,1,FBP-PT-18.png,0.37,1.2,52,0.25,,,,,,,,,,,,,,,,,,,,,,,,,,,,,,,,,,,,,,,,,,,,,
,,,,,SPR24_061,18,Male,2024-04-17_15h35.16.200,jersey_experiment_5_v0,2023.2.2,Win32,84.74576271,,,,,,,,,,,,,,,,260.8999,262.1938,262.1939,264.6175,return,0.7165,,73.69791667,0,38,38,12,1,FBP-OG-91.png,0.4,1.2,13,0.5,,,,,,,,,,,,,,,,,,,,,,,,,,,,,,,,,,,,,,,,,,,,,
,,,,,SPR24_061,18,Male,2024-04-17_15h35.16.200,jersey_experiment_5_v0,2023.2.2,Win32,84.74576271,,,,,,,,,,,,,,,,264.6176,265.6645,265.6646,267.3469,return,0.6172,,88.02083333,0,39,39,49,1,FBP-PT-17.png,0.45,1.2,50,0.25,,,,,,,,,,,,,,,,,,,,,,,,,,,,,,,,,,,,,,,,,,,,,
,,,,,SPR24_061,18,Male,2024-04-17_15h35.16.200,jersey_experiment_5_v0,2023.2.2,Win32,84.74576271,,,,,,,,,,,,,,,,267.3471,268.6413,268.6413,270.5825,return,0.6019,,100,0,40,40,8,1,FBP-OG-81.png,0.43,1.2,9,0.5,,,,,,,,,,,,,,,,,,,,,,,,,,,,,,,,,,,,,,,,,,,,,
,,,,,SPR24_061,18,Male,2024-04-17_15h35.16.200,jersey_experiment_5_v0,2023.2.2,Win32,84.74576271,,,,,,,,,,,,,,,,270.5827,271.8767,271.8767,274.1355,return,0.7199,,6.25,0,41,41,41,1,FBP-RB-19.png,0.37,1.2,42,0.5,,,,,,,,,,,,,,,,,,,,,,,,,,,,,,,,,,,,,,,,,,,,,
,,,,,SPR24_061,18,Male,2024-04-17_15h35.16.200,jersey_experiment_5_v0,2023.2.2,Win32,84.74576271,,,,,,,,,,,,,,,,274.1358,275.4297,275.4297,279.1946,return,2.3025,,2.734375,0,42,42,6,1,FBP-OG-81.png,0.37,1.2,7,0.5,,,,,,,,,,,,,,,,,,,,,,,,,,,,,,,,,,,,,,,,,,,,,
,,,,,SPR24_061,18,Male,2024-04-17_15h35.16.200,jersey_experiment_5_v0,2023.2.2,Win32,84.74576271,,,,,,,,,,,,,,,,279.1948,280.2416,280.2416,281.8652,return,0.6357,,0.260416667,0,43,43,55,1,FBP-PT-19.png,0.35,1.2,56,0.25,,,,,,,,,,,,,,,,,,,,,,,,,,,,,,,,,,,,,,,,,,,,,
,,,,,SPR24_061,18,Male,2024-04-17_15h35.16.200,jersey_experiment_5_v0,2023.2.2,Win32,84.74576271,,,,,,,,,,,,,,,,281.8654,282.9124,282.9124,297.4892,return,2.1355,,3.645833333,0,44,44,50,1,FBP-PT-18.png,0.35,1.2,51,0.25,,,,,,,,,,,,,,,,,,,,,,,,,,,,,,,,,,,,,,,,,,,,,
,,,,,SPR24_061,18,Male,2024-04-17_15h35.16.200,jersey_experiment_5_v0,2023.2.2,Win32,84.74576271,,,,,,,,,,,,,,,,297.4893,298.5363,298.5363,304.5131,return,3.6768,,91.796875,0,45,45,48,1,FBP-PT-17.png,0.43,1.2,49,0.25,,,,,,,,,,,,,,,,,,,,,,,,,,,,,,,,,,,,,,,,,,,,,
,,,,,SPR24_061,18,Male,2024-04-17_15h35.16.200,jersey_experiment_5_v0,2023.2.2,Win32,84.74576271,,,,,,,,,,,,,,,,304.5132,305.8074,305.8074,307.7013,return,0.6957,,83.33333333,0,46,46,7,1,FBP-OG-81.png,0.4,1.2,8,0.5,,,,,,,,,,,,,,,,,,,,,,,,,,,,,,,,,,,,,,,,,,,,,
,,,,,SPR24_061,18,Male,2024-04-17_15h35.16.200,jersey_experiment_5_v0,2023.2.2,Win32,84.74576271,,,,,,,,,,,,,,,,307.7014,308.9955,308.9955,310.725,return,0.6837,,91.92708333,0,47,47,9,1,FBP-OG-81.png,0.45,1.2,10,0.5,,,,,,,,,,,,,,,,,,,,,,,,,,,,,,,,,,,,,,,,,,,,,
,,,,,SPR24_061,18,Male,2024-04-17_15h35.16.200,jersey_experiment_5_v0,2023.2.2,Win32,84.74576271,,,,,,,,,,,,,,,,310.7253,311.772,311.772,313.5723,return,0.722,,98.30729167,0,48,48,59,1,FBP-PT-19.png,0.45,1.2,60,0.25,,,,,,,,,,,,,,,,,,,,,,,,,,,,,,,,,,,,,,,,,,,,,
,,,,,SPR24_061,18,Male,2024-04-17_15h35.16.200,jersey_experiment_5_v0,2023.2.2,Win32,84.74576271,,,,,,,,,,,,,,,,313.5726,314.6193,314.6193,321.5255,return,2.1088,,79.03645833,0,49,49,22,1,FBP-YG-18.png,0.4,1.2,23,0.25,,,,,,,,,,,,,,,,,,,,,,,,,,,,,,,,,,,,,,,,,,,,,
,,,,,SPR24_061,18,Male,2024-04-17_15h35.16.200,jersey_experiment_5_v0,2023.2.2,Win32,84.74576271,,,,,,,,,,,,,,,,321.5257,322.8198,322.8198,324.5491,return,0.5682,,69.01041667,0,50,50,33,1,FBP-RB-17.png,0.43,1.2,34,0.5,,,,,,,,,,,,,,,,,,,,,,,,,,,,,,,,,,,,,,,,,,,,,
,,,,,SPR24_061,18,Male,2024-04-17_15h35.16.200,jersey_experiment_5_v0,2023.2.2,Win32,84.74576271,,,,,,,,,,,,,,,,324.5493,325.8431,325.8431,327.7374,return,0.9315,,99.34895833,0,51,51,39,1,FBP-RB-18.png,0.45,1.2,40,0.5,,,,,,,,,,,,,,,,,,,,,,,,,,,,,,,,,,,,,,,,,,,,,
,,,,,SPR24_061,18,Male,2024-04-17_15h35.16.200,jersey_experiment_5_v0,2023.2.2,Win32,84.74576271,,,,,,,,,,,,,,,,327.7377,329.0316,329.0317,332.9964,return,2.3672,,69.01041667,0,52,52,42,1,FBP-RB-19.png,0.4,1.2,43,0.5,,,,,,,,,,,,,,,,,,,,,,,,,,,,,,,,,,,,,,,,,,,,,
,,,,,SPR24_061,18,Male,2024-04-17_15h35.16.200,jersey_experiment_5_v0,2023.2.2,Win32,84.74576271,,,,,,,,,,,,,,,,332.9966,334.2906,334.2906,337.1142,return,0.7395,,24.609375,0,53,53,11,1,FBP-OG-91.png,0.37,1.2,12,0.5,,,,,,,,,,,,,,,,,,,,,,,,,,,,,,,,,,,,,,,,,,,,,
,,,,,SPR24_061,18,Male,2024-04-17_15h35.16.200,jersey_experiment_5_v0,2023.2.2,Win32,84.74576271,,,,,,,,,,,,,,,,337.1144,338.1613,338.1614,340.1143,return,0.7003,,24.86979167,0,54,54,27,1,FBP-YG-19.png,0.4,1.2,28,0.25,,,,,,,,,,,,,,,,,,,,,,,,,,,,,,,,,,,,,,,,,,,,,
,,,,,SPR24_061,18,Male,2024-04-17_15h35.16.200,jersey_experiment_5_v0,2023.2.2,Win32,84.74576271,,,,,,,,,,,,,,,,340.1146,341.4085,341.4085,344.8204,return,1.0043,,84.63541667,0,55,55,32,1,FBP-RB-17.png,0.4,1.2,33,0.5,,,,,,,,,,,,,,,,,,,,,,,,,,,,,,,,,,,,,,,,,,,,,
,,,,,SPR24_061,18,Male,2024-04-17_15h35.16.200,jersey_experiment_5_v0,2023.2.2,Win32,84.74576271,,,,,,,,,,,,,,,,344.8206,345.8674,345.8674,350.0558,return,1.9628,,100,0,56,56,19,1,FBP-YG-17.png,0.45,1.2,20,0.25,,,,,,,,,,,,,,,,,,,,,,,,,,,,,,,,,,,,,,,,,,,,,
,,,,,SPR24_061,18,Male,2024-04-17_15h35.16.200,jersey_experiment_5_v0,2023.2.2,Win32,84.74576271,,,,,,,,,,,,,,,,350.0561,351.103,351.103,357.4914,return,0.6502,,94.921875,0,57,57,46,1,FBP-PT-17.png,0.37,1.2,47,0.25,,,,,,,,,,,,,,,,,,,,,,,,,,,,,,,,,,,,,,,,,,,,,
,,,,,SPR24_061,18,Male,2024-04-17_15h35.16.200,jersey_experiment_5_v0,2023.2.2,Win32,84.74576271,,,,,,,,,,,,,,,,357.4915,358.7856,358.7856,360.8561,return,0.7061,,99.34895833,0,58,58,38,1,FBP-RB-18.png,0.43,1.2,39,0.5,,,,,,,,,,,,,,,,,,,,,,,,,,,,,,,,,,,,,,,,,,,,,
,,,,,SPR24_061,18,Male,2024-04-17_15h35.16.200,jersey_experiment_5_v0,2023.2.2,Win32,84.74576271,,,,,,,,,,,,,,,,360.8564,361.9033,361.9034,365.3858,return,0.8476,,94.27083333,0,59,59,58,1,FBP-PT-19.png,0.43,1.2,59,0.25,,,,,,,,,,,,,,,,,,,,,,,,,,,,,,,,,,,,,,,,,,,,,
,,,,,SPR24_061,18,Male,2024-04-17_15h35.16.200,jersey_experiment_5_v0,2023.2.2,Win32,84.74576271,,,,,,,,,,,,,,,,365.388,366.68,366.6801,369.2682,return,1.0371,,9.635416667,,,,,,FBP-OG-19.png,0.35,1.2,11,0.5,0,0,0,10,1,,,,,,,,,,,,,,,,,,,,,,,,,,,,,,,,,,,,,,,,
,,,,,SPR24_061,18,Male,2024-04-17_15h35.16.200,jersey_experiment_5_v0,2023.2.2,Win32,84.74576271,,,,,,,,,,,,,,,,369.2686,370.3153,370.3153,373.2567,return,0.7164,,99.73958333,,,,,,FBP-YG-91.png,0.45,1.2,30,0.25,0,1,1,29,1,,,,,,,,,,,,,,,,,,,,,,,,,,,,,,,,,,,,,,,,
,,,,,SPR24_061,18,Male,2024-04-17_15h35.16.200,jersey_experiment_5_v0,2023.2.2,Win32,84.74576271,,,,,,,,,,,,,,,,373.257,374.5508,374.5508,376.4686,return,0.6742,,96.22395833,,,,,,FBP-OG-18.png,0.45,1.2,10,0.5,0,2,2,9,1,,,,,,,,,,,,,,,,,,,,,,,,,,,,,,,,,,,,,,,,
,,,,,SPR24_061,18,Male,2024-04-17_15h35.16.200,jersey_experiment_5_v0,2023.2.2,Win32,84.74576271,,,,,,,,,,,,,,,,376.4688,377.5155,377.5156,379.7039,return,0.5886,,79.81770833,,,,,,FBP-YG-91.png,0.4,1.2,28,0.25,0,3,3,27,1,,,,,,,,,,,,,,,,,,,,,,,,,,,,,,,,,,,,,,,,
,,,,,SPR24_061,18,Male,2024-04-17_15h35.16.200,jersey_experiment_5_v0,2023.2.2,Win32,84.74576271,,,,,,,,,,,,,,,,379.7042,380.9982,380.9982,385.0923,return,0.6867,,88.02083333,,,,,,FBP-RB-91.png,0.4,1.2,43,0.5,0,4,4,42,1,,,,,,,,,,,,,,,,,,,,,,,,,,,,,,,,,,,,,,,,
,,,,,SPR24_061,18,Male,2024-04-17_15h35.16.200,jersey_experiment_5_v0,2023.2.2,Win32,84.74576271,,,,,,,,,,,,,,,,385.0925,386.1397,386.1397,407.4461,return,6.9906,,0,,,,,,FBP-PT-71.png,0.35,1.2,46,0.25,0,5,5,45,1,,,,,,,,,,,,,,,,,,,,,,,,,,,,,,,,,,,,,,,,
,,,,,SPR24_061,18,Male,2024-04-17_15h35.16.200,jersey_experiment_5_v0,2023.2.2,Win32,84.74576271,,,,,,,,,,,,,,,,407.4463,408.4934,408.4934,415.4346,return,3.6936,,81.38020833,,,,,,FBP-YG-81.png,0.43,1.2,24,0.25,0,6,6,23,1,,,,,,,,,,,,,,,,,,,,,,,,,,,,,,,,,,,,,,,,
,,,,,SPR24_061,18,Male,2024-04-17_15h35.16.200,jersey_experiment_5_v0,2023.2.2,Win32,84.74576271,,,,,,,,,,,,,,,,415.4393,416.7406,416.7406,423.6821,return,4.0868,,36.71875,,,,,,FBP-RB-71.png,0.4,1.2,33,0.5,0,7,7,32,1,,,,,,,,,,,,,,,,,,,,,,,,,,,,,,,,,,,,,,,,
,,,,,SPR24_061,18,Male,2024-04-17_15h35.16.200,jersey_experiment_5_v0,2023.2.2,Win32,84.74576271,,,,,,,,,,,,,,,,423.6823,424.7291,424.7292,427.6586,return,0.692,,24.34895833,,,,,,FBP-YG-71.png,0.35,1.2,16,0.25,0,8,8,15,1,,,,,,,,,,,,,,,,,,,,,,,,,,,,,,,,,,,,,,,,
,,,,,SPR24_061,18,Male,2024-04-17_15h35.16.200,jersey_experiment_5_v0,2023.2.2,Win32,84.74576271,,,,,,,,,,,,,,,,427.6588,428.9527,428.9528,431.6351,return,0.617,,50.26041667,,,,,,FBP-OG-19.png,0.37,1.2,12,0.5,0,9,9,11,1,,,,,,,,,,,,,,,,,,,,,,,,,,,,,,,,,,,,,,,,
,,,,,SPR24_061,18,Male,2024-04-17_15h35.16.200,jersey_experiment_5_v0,2023.2.2,Win32,84.74576271,,,,,,,,,,,,,,,,431.6355,432.6822,432.6823,435.9765,return,0.6725,,100,,,,,,FBP-PT-71.png,0.45,1.2,50,0.25,0,10,10,49,1,,,,,,,,,,,,,,,,,,,,,,,,,,,,,,,,,,,,,,,,
,,,,,SPR24_061,18,Male,2024-04-17_15h35.16.200,jersey_experiment_5_v0,2023.2.2,Win32,84.74576271,,,,,,,,,,,,,,,,435.9768,437.0238,437.0238,439.6592,return,0.8095,,99.609375,,,,,,FBP-YG-71.png,0.45,1.2,20,0.25,0,11,11,19,1,,,,,,,,,,,,,,,,,,,,,,,,,,,,,,,,,,,,,,,,
,,,,,SPR24_061,18,Male,2024-04-17_15h35.16.200,jersey_experiment_5_v0,2023.2.2,Win32,84.74576271,,,,,,,,,,,,,,,,439.6594,440.9532,440.9532,442.871,return,0.6724,,99.34895833,,,,,,FBP-OG-17.png,0.45,1.2,5,0.5,0,12,12,4,1,,,,,,,,,,,,,,,,,,,,,,,,,,,,,,,,,,,,,,,,
,,,,,SPR24_061,18,Male,2024-04-17_15h35.16.200,jersey_experiment_5_v0,2023.2.2,Win32,84.74576271,,,,,,,,,,,,,,,,442.8712,444.1651,444.1651,446.024,return,0.6728,,99.86979167,,,,,,FBP-RB-91.png,0.43,1.2,44,0.5,0,13,13,43,1,,,,,,,,,,,,,,,,,,,,,,,,,,,,,,,,,,,,,,,,
,,,,,SPR24_061,18,Male,2024-04-17_15h35.16.200,jersey_experiment_5_v0,2023.2.2,Win32,84.74576271,,,,,,,,,,,,,,,,446.0243,447.0711,447.0711,451.9066,return,0.7939,,75,,,,,,FBP-YG-91.png,0.35,1.2,26,0.25,0,14,14,25,1,,,,,,,,,,,,,,,,,,,,,,,,,,,,,,,,,,,,,,,,
,,,,,SPR24_061,18,Male,2024-04-17_15h35.16.200,jersey_experiment_5_v0,2023.2.2,Win32,84.74576271,,,,,,,,,,,,,,,,451.9068,452.9535,452.9536,456.6714,return,0.6209,,68.22916667,,,,,,FBP-PT-71.png,0.4,1.2,48,0.25,0,15,15,47,1,,,,,,,,,,,,,,,,,,,,,,,,,,,,,,,,,,,,,,,,
,,,,,SPR24_061,18,Male,2024-04-17_15h35.16.200,jersey_experiment_5_v0,2023.2.2,Win32,84.74576271,,,,,,,,,,,,,,,,456.6716,457.9656,457.9656,460.1538,return,0.6827,,80.59895833,,,,,,FBP-RB-71.png,0.43,1.2,34,0.5,0,16,16,33,1,,,,,,,,,,,,,,,,,,,,,,,,,,,,,,,,,,,,,,,,
,,,,,SPR24_061,18,Male,2024-04-17_15h35.16.200,jersey_experiment_5_v0,2023.2.2,Win32,84.74576271,,,,,,,,,,,,,,,,460.154,461.4481,461.4481,464.1304,return,0.7353,,91.92708333,,,,,,FBP-RB-91.png,0.45,1.2,45,0.5,0,17,17,44,1,,,,,,,,,,,,,,,,,,,,,,,,,,,,,,,,,,,,,,,,
,,,,,SPR24_061,18,Male,2024-04-17_15h35.16.200,jersey_experiment_5_v0,2023.2.2,Win32,84.74576271,,,,,,,,,,,,,,,,464.1307,465.4246,465.4247,469.2365,return,1.3313,,74.86979167,,,,,,FBP-OG-17.png,0.43,1.2,4,0.5,0,18,18,3,1,,,,,,,,,,,,,,,,,,,,,,,,,,,,,,,,,,,,,,,,
,,,,,SPR24_061,18,Male,2024-04-17_15h35.16.200,jersey_experiment_5_v0,2023.2.2,Win32,84.74576271,,,,,,,,,,,,,,,,469.2367,470.2837,470.2837,472.6484,return,0.9878,,90.234375,,,,,,FBP-YG-71.png,0.43,1.2,19,0.25,0,19,19,18,1,,,,,,,,,,,,,,,,,,,,,,,,,,,,,,,,,,,,,,,,
,,,,,SPR24_061,18,Male,2024-04-17_15h35.16.200,jersey_experiment_5_v0,2023.2.2,Win32,84.74576271,,,,,,,,,,,,,,,,472.6485,473.6956,473.6956,477.1782,return,0.8711,,88.54166667,,,,,,FBP-PT-91.png,0.4,1.2,58,0.25,0,20,20,57,1,,,,,,,,,,,,,,,,,,,,,,,,,,,,,,,,,,,,,,,,
,,,,,SPR24_061,18,Male,2024-04-17_15h35.16.200,jersey_experiment_5_v0,2023.2.2,Win32,84.74576271,,,,,,,,,,,,,,,,477.1785,478.2252,478.2253,482.2606,return,0.7212,,18.88020833,,,,,,FBP-YG-81.png,0.35,1.2,21,0.25,0,21,21,20,1,,,,,,,,,,,,,,,,,,,,,,,,,,,,,,,,,,,,,,,,
,,,,,SPR24_061,18,Male,2024-04-17_15h35.16.200,jersey_experiment_5_v0,2023.2.2,Win32,84.74576271,,,,,,,,,,,,,,,,482.2608,483.5548,483.5548,487.8255,return,2.948,,91.92708333,,,,,,FBP-RB-71.png,0.45,1.2,35,0.5,0,22,22,34,1,,,,,,,,,,,,,,,,,,,,,,,,,,,,,,,,,,,,,,,,
,,,,,SPR24_061,18,Male,2024-04-17_15h35.16.200,jersey_experiment_5_v0,2023.2.2,Win32,84.74576271,,,,,,,,,,,,,,,,487.8256,489.1196,489.1197,491.9551,return,0.8169,,2.604166667,,,,,,FBP-RB-91.png,0.37,1.2,42,0.5,0,23,23,41,1,,,,,,,,,,,,,,,,,,,,,,,,,,,,,,,,,,,,,,,,
,,,,,SPR24_061,18,Male,2024-04-17_15h35.16.200,jersey_experiment_5_v0,2023.2.2,Win32,84.74576271,,,,,,,,,,,,,,,,491.9552,493.0021,493.0021,514.7913,return,0.8822,,1.302083333,,,,,,FBP-PT-91.png,0.37,1.2,57,0.25,0,24,24,56,1,,,,,,,,,,,,,,,,,,,,,,,,,,,,,,,,,,,,,,,,
,,,,,SPR24_061,18,Male,2024-04-17_15h35.16.200,jersey_experiment_5_v0,2023.2.2,Win32,84.74576271,,,,,,,,,,,,,,,,514.7915,516.0854,516.0854,519.3796,return,1.1107,,90.88541667,,,,,,FBP-RB-81.png,0.4,1.2,38,0.5,0,25,25,37,1,,,,,,,,,,,,,,,,,,,,,,,,,,,,,,,,,,,,,,,,
,,,,,SPR24_061,18,Male,2024-04-17_15h35.16.200,jersey_experiment_5_v0,2023.2.2,Win32,84.74576271,,,,,,,,,,,,,,,,519.3798,520.6737,520.6737,522.5444,return,0.608,,96.61458333,,,,,,FBP-RB-81.png,0.45,1.2,40,0.5,0,26,26,39,1,,,,,,,,,,,,,,,,,,,,,,,,,,,,,,,,,,,,,,,,
,,,,,SPR24_061,18,Male,2024-04-17_15h35.16.200,jersey_experiment_5_v0,2023.2.2,Win32,84.74576271,,,,,,,,,,,,,,,,522.5447,523.5914,523.5915,525.7446,return,0.6641,,74.34895833,,,,,,FBP-YG-71.png,0.4,1.2,18,0.25,0,27,27,17,1,,,,,,,,,,,,,,,,,,,,,,,,,,,,,,,,,,,,,,,,
,,,,,SPR24_061,18,Male,2024-04-17_15h35.16.200,jersey_experiment_5_v0,2023.2.2,Win32,84.74576271,,,,,,,,,,,,,,,,525.7449,527.0386,527.0386,530.1212,return,0.8703,,86.71875,,,,,,FBP-OG-19.png,0.43,1.2,14,0.5,0,28,28,13,1,,,,,,,,,,,,,,,,,,,,,,,,,,,,,,,,,,,,,,,,
,,,,,SPR24_061,18,Male,2024-04-17_15h35.16.200,jersey_experiment_5_v0,2023.2.2,Win32,84.74576271,,,,,,,,,,,,,,,,530.1214,531.4153,531.4154,533.8507,return,0.824,,74.86979167,,,,,,FBP-RB-81.png,0.43,1.2,39,0.5,0,29,29,38,1,,,,,,,,,,,,,,,,,,,,,,,,,,,,,,,,,,,,,,,,
,,,,,SPR24_061,18,Male,2024-04-17_15h35.16.200,jersey_experiment_5_v0,2023.2.2,Win32,84.74576271,,,,,,,,,,,,,,,,533.8508,534.8978,534.8978,539.1097,return,1.0733,,25,,,,,,FBP-PT-81.png,0.37,1.2,52,0.25,0,30,30,51,1,,,,,,,,,,,,,,,,,,,,,,,,,,,,,,,,,,,,,,,,
,,,,,SPR24_061,18,Male,2024-04-17_15h35.16.200,jersey_experiment_5_v0,2023.2.2,Win32,84.74576271,,,,,,,,,,,,,,,,539.11,540.1566,540.1566,543.8274,return,1.0162,,66.66666667,,,,,,FBP-PT-81.png,0.4,1.2,53,0.25,0,31,31,52,1,,,,,,,,,,,,,,,,,,,,,,,,,,,,,,,,,,,,,,,,
,,,,,SPR24_061,18,Male,2024-04-17_15h35.16.200,jersey_experiment_5_v0,2023.2.2,Win32,84.74576271,,,,,,,,,,,,,,,,543.8276,545.1216,545.1217,548.2746,return,0.7209,,71.61458333,,,,,,FBP-RB-81.png,0.37,1.2,37,0.5,0,32,32,36,1,,,,,,,,,,,,,,,,,,,,,,,,,,,,,,,,,,,,,,,,
,,,,,SPR24_061,18,Male,2024-04-17_15h35.16.200,jersey_experiment_5_v0,2023.2.2,Win32,84.74576271,,,,,,,,,,,,,,,,548.2748,549.5688,549.5689,553.7337,return,0.883,,20.57291667,,,,,,FBP-RB-71.png,0.35,1.2,31,0.5,0,33,33,30,1,,,,,,,,,,,,,,,,,,,,,,,,,,,,,,,,,,,,,,,,
,,,,,SPR24_061,18,Male,2024-04-17_15h35.16.200,jersey_experiment_5_v0,2023.2.2,Win32,84.74576271,,,,,,,,,,,,,,,,553.7339,554.7808,554.7809,557.6986,return,0.6528,,94.01041667,,,,,,FBP-YG-81.png,0.45,1.2,25,0.25,0,34,34,24,1,,,,,,,,,,,,,,,,,,,,,,,,,,,,,,,,,,,,,,,,
,,,,,SPR24_061,18,Male,2024-04-17_15h35.16.200,jersey_experiment_5_v0,2023.2.2,Win32,84.74576271,,,,,,,,,,,,,,,,557.6988,558.9928,558.9928,562.1223,return,0.7677,,32.55208333,,,,,,FBP-OG-18.png,0.35,1.2,6,0.5,0,35,35,5,1,,,,,,,,,,,,,,,,,,,,,,,,,,,,,,,,,,,,,,,,
,,,,,SPR24_061,18,Male,2024-04-17_15h35.16.200,jersey_experiment_5_v0,2023.2.2,Win32,84.74576271,,,,,,,,,,,,,,,,562.1225,563.4164,563.4165,566.04,return,0.6217,,2.864583333,,,,,,FBP-RB-81.png,0.35,1.2,36,0.5,0,36,36,35,1,,,,,,,,,,,,,,,,,,,,,,,,,,,,,,,,,,,,,,,,
,,,,,SPR24_061,18,Male,2024-04-17_15h35.16.200,jersey_experiment_5_v0,2023.2.2,Win32,84.74576271,,,,,,,,,,,,,,,,566.0402,567.087,567.0871,572.4166,return,1.1001,,24.21875,,,,,,FBP-YG-81.png,0.37,1.2,22,0.25,0,37,37,21,1,,,,,,,,,,,,,,,,,,,,,,,,,,,,,,,,,,,,,,,,
,,,,,SPR24_061,18,Male,2024-04-17_15h35.16.200,jersey_experiment_5_v0,2023.2.2,Win32,84.74576271,,,,,,,,,,,,,,,,572.4168,573.7108,573.7108,576.3461,return,0.8708,,84.765625,,,,,,FBP-OG-17.png,0.4,1.2,3,0.5,0,38,38,2,1,,,,,,,,,,,,,,,,,,,,,,,,,,,,,,,,,,,,,,,,
,,,,,SPR24_061,18,Male,2024-04-17_15h35.16.200,jersey_experiment_5_v0,2023.2.2,Win32,84.74576271,,,,,,,,,,,,,,,,576.3464,577.3935,577.3935,580.9935,return,1.441,,72.265625,,,,,,FBP-YG-91.png,0.37,1.2,27,0.25,0,39,39,26,1,,,,,,,,,,,,,,,,,,,,,,,,,,,,,,,,,,,,,,,,
,,,,,SPR24_061,18,Male,2024-04-17_15h35.16.200,jersey_experiment_5_v0,2023.2.2,Win32,84.74576271,,,,,,,,,,,,,,,,580.9937,582.0406,582.0407,585.5114,return,2.2345,,89.19270833,,,,,,FBP-PT-81.png,0.43,1.2,54,0.25,0,40,40,53,1,,,,,,,,,,,,,,,,,,,,,,,,,,,,,,,,,,,,,,,,
,,,,,SPR24_061,18,Male,2024-04-17_15h35.16.200,jersey_experiment_5_v0,2023.2.2,Win32,84.74576271,,,,,,,,,,,,,,,,585.5115,586.5584,586.5584,590.994,return,2.2642,,19.140625,,,,,,FBP-PT-91.png,0.35,1.2,56,0.25,0,41,41,55,1,,,,,,,,,,,,,,,,,,,,,,,,,,,,,,,,,,,,,,,,
,,,,,SPR24_061,18,Male,2024-04-17_15h35.16.200,jersey_experiment_5_v0,2023.2.2,Win32,84.74576271,,,,,,,,,,,,,,,,590.9941,592.041,592.0411,603.4886,return,2.2413,,32.03125,,,,,,FBP-PT-71.png,0.37,1.2,47,0.25,0,42,42,46,1,,,,,,,,,,,,,,,,,,,,,,,,,,,,,,,,,,,,,,,,
,,,,,SPR24_061,18,Male,2024-04-17_15h35.16.200,jersey_experiment_5_v0,2023.2.2,Win32,84.74576271,,,,,,,,,,,,,,,,603.4888,604.7826,604.7826,607.418,return,0.6258,,83.59375,,,,,,FBP-RB-71.png,0.37,1.2,32,0.5,0,43,43,31,1,,,,,,,,,,,,,,,,,,,,,,,,,,,,,,,,,,,,,,,,
,,,,,SPR24_061,18,Male,2024-04-17_15h35.16.200,jersey_experiment_5_v0,2023.2.2,Win32,84.74576271,,,,,,,,,,,,,,,,607.4183,608.7123,608.7123,615.7478,return,5.1225,,20.05208333,,,,,,FBP-RB-91.png,0.35,1.2,41,0.5,0,44,44,40,1,,,,,,,,,,,,,,,,,,,,,,,,,,,,,,,,,,,,,,,,
,,,,,SPR24_061,18,Male,2024-04-17_15h35.16.200,jersey_experiment_5_v0,2023.2.2,Win32,84.74576271,,,,,,,,,,,,,,,,615.748,616.7948,616.7949,619.7361,return,0.5887,,83.984375,,,,,,FBP-PT-91.png,0.43,1.2,59,0.25,0,45,45,58,1,,,,,,,,,,,,,,,,,,,,,,,,,,,,,,,,,,,,,,,,
,,,,,SPR24_061,18,Male,2024-04-17_15h35.16.200,jersey_experiment_5_v0,2023.2.2,Win32,84.74576271,,,,,,,,,,,,,,,,619.7363,620.7832,620.7832,623.8892,return,1.2758,,15.10416667,,,,,,FBP-PT-81.png,0.35,1.2,51,0.25,0,46,46,50,1,,,,,,,,,,,,,,,,,,,,,,,,,,,,,,,,,,,,,,,,
,,,,,SPR24_061,18,Male,2024-04-17_15h35.16.200,jersey_experiment_5_v0,2023.2.2,Win32,84.74576271,,,,,,,,,,,,,,,,623.8894,625.1835,625.1836,628.0424,return,0.6941,,63.93229167,,,,,,FBP-OG-18.png,0.4,1.2,8,0.5,0,47,47,7,1,,,,,,,,,,,,,,,,,,,,,,,,,,,,,,,,,,,,,,,,
,,,,,SPR24_061,18,Male,2024-04-17_15h35.16.200,jersey_experiment_5_v0,2023.2.2,Win32,84.74576271,,,,,,,,,,,,,,,,628.0425,629.3365,629.3365,631.0188,return,0.7161,,4.557291667,,,,,,FBP-OG-17.png,0.35,1.2,1,0.5,0,48,48,0,1,,,,,,,,,,,,,,,,,,,,,,,,,,,,,,,,,,,,,,,,
,,,,,SPR24_061,18,Male,2024-04-17_15h35.16.200,jersey_experiment_5_v0,2023.2.2,Win32,84.74576271,,,,,,,,,,,,,,,,631.019,632.3132,632.3132,634.5131,return,0.6544,,1.822916667,,,,,,FBP-OG-17.png,0.37,1.2,2,0.5,0,49,49,1,1,,,,,,,,,,,,,,,,,,,,,,,,,,,,,,,,,,,,,,,,
,,,,,SPR24_061,18,Male,2024-04-17_15h35.16.200,jersey_experiment_5_v0,2023.2.2,Win32,84.74576271,,,,,,,,,,,,,,,,634.5133,635.8074,635.8074,637.4661,return,0.588,,94.66145833,,,,,,FBP-OG-19.png,0.45,1.2,15,0.5,0,50,50,14,1,,,,,,,,,,,,,,,,,,,,,,,,,,,,,,,,,,,,,,,,
,,,,,SPR24_061,18,Male,2024-04-17_15h35.16.200,jersey_experiment_5_v0,2023.2.2,Win32,84.74576271,,,,,,,,,,,,,,,,637.4662,638.5133,638.5133,641.3485,return,0.7802,,11.58854167,,,,,,FBP-YG-71.png,0.37,1.2,17,0.25,0,51,51,16,1,,,,,,,,,,,,,,,,,,,,,,,,,,,,,,,,,,,,,,,,
,,,,,SPR24_061,18,Male,2024-04-17_15h35.16.200,jersey_experiment_5_v0,2023.2.2,Win32,84.74576271,,,,,,,,,,,,,,,,641.3487,642.3957,642.3957,646.0665,return,1.7219,,95.44270833,,,,,,FBP-YG-81.png,0.4,1.2,23,0.25,0,52,52,22,1,,,,,,,,,,,,,,,,,,,,,,,,,,,,,,,,,,,,,,,,
,,,,,SPR24_061,18,Male,2024-04-17_15h35.16.200,jersey_experiment_5_v0,2023.2.2,Win32,84.74576271,,,,,,,,,,,,,,,,646.0667,647.3606,647.3607,650.2784,return,1.1299,,91.40625,,,,,,FBP-OG-19.png,0.4,1.2,13,0.5,0,53,53,12,1,,,,,,,,,,,,,,,,,,,,,,,,,,,,,,,,,,,,,,,,
,,,,,SPR24_061,18,Male,2024-04-17_15h35.16.200,jersey_experiment_5_v0,2023.2.2,Win32,84.74576271,,,,,,,,,,,,,,,,650.2786,651.3254,651.3254,653.2313,return,0.7005,,97.65625,,,,,,FBP-PT-81.png,0.45,1.2,55,0.25,0,54,54,54,1,,,,,,,,,,,,,,,,,,,,,,,,,,,,,,,,,,,,,,,,
,,,,,SPR24_061,18,Male,2024-04-17_15h35.16.200,jersey_experiment_5_v0,2023.2.2,Win32,84.74576271,,,,,,,,,,,,,,,,653.2314,654.5256,654.5257,656.3728,return,0.5892,,18.88020833,,,,,,FBP-OG-18.png,0.37,1.2,7,0.5,0,55,55,6,1,,,,,,,,,,,,,,,,,,,,,,,,,,,,,,,,,,,,,,,,
,,,,,SPR24_061,18,Male,2024-04-17_15h35.16.200,jersey_experiment_5_v0,2023.2.2,Win32,84.74576271,,,,,,,,,,,,,,,,656.373,657.4199,657.42,660.5848,return,0.6253,,97.65625,,,,,,FBP-PT-91.png,0.45,1.2,60,0.25,0,56,56,59,1,,,,,,,,,,,,,,,,,,,,,,,,,,,,,,,,,,,,,,,,
,,,,,SPR24_061,18,Male,2024-04-17_15h35.16.200,jersey_experiment_5_v0,2023.2.2,Win32,84.74576271,,,,,,,,,,,,,,,,660.585,661.6318,661.6318,665.0554,return,0.5147,,70.44270833,,,,,,FBP-PT-71.png,0.43,1.2,49,0.25,0,57,57,48,1,,,,,,,,,,,,,,,,,,,,,,,,,,,,,,,,,,,,,,,,
,,,,,SPR24_061,18,Male,2024-04-17_15h35.16.200,jersey_experiment_5_v0,2023.2.2,Win32,84.74576271,,,,,,,,,,,,,,,,665.0557,666.3495,666.3495,668.6084,return,0.5468,,70.44270833,,,,,,FBP-OG-18.png,0.43,1.2,9,0.5,0,58,58,8,1,,,,,,,,,,,,,,,,,,,,,,,,,,,,,,,,,,,,,,,,
,,,,,SPR24_061,18,Male,2024-04-17_15h35.16.200,jersey_experiment_5_v0,2023.2.2,Win32,84.74576271,,,,,,,,,,,,,,,,668.6087,669.6555,669.6555,670.9145,return,0.4883,,70.96354167,,,,,,FBP-YG-91.png,0.43,1.2,29,0.25,0,59,59,28,1,,,,,,,,,,,,,,,,,,,,,,,,,,,,,,,,,,,,,,,,
,,,,,SPR24_061,18,Male,2024-04-17_15h35.16.200,jersey_experiment_5_v0,2023.2.2,Win32,84.74576271,,,,,,,,,,,,,,,,,,,,,,,,,,,,,,,,,,,,,,,670.9149,790.9073,,,,,,,,,,,,,,,,,,,,,,,,,,,,,,,,,,,,,,
,,,,,SPR24_061,18,Male,2024-04-17_15h35.16.200,jersey_experiment_5_v0,2023.2.2,Win32,84.74576271,,,,,,,,,,,,,,,,,,,,,,,,,,,,,,,,,,,,,,,,,790.9074,794.5307,return,3.6157,,,,,,,,,,,,,,,,,,,,,,,,,,,,,,,,,,
,,,,,SPR24_061,18,Male,2024-04-17_15h35.16.200,jersey_experiment_5_v0,2023.2.2,Win32,84.74576271,,,,,,,,,,,,,,,,794.5372,795.5894,795.5895,799.2015,return,1.1952,,94.01041667,,,,,,FBP-RB-18.png,0.45,1.2,40,0.25,,,,,,,,,,,,,0,0,0,39,1,,,,,,,,,,,,,,,,,,,,,,,,,,,,
,,,,,SPR24_061,18,Male,2024-04-17_15h35.16.200,jersey_experiment_5_v0,2023.2.2,Win32,84.74576271,,,,,,,,,,,,,,,,799.2018,800.4957,800.4957,803.2016,return,0.7952,,29.81770833,,,,,,FBP-YG-18.png,0.37,1.2,22,0.5,,,,,,,,,,,,,0,1,1,21,1,,,,,,,,,,,,,,,,,,,,,,,,,,,,
,,,,,SPR24_061,18,Male,2024-04-17_15h35.16.200,jersey_experiment_5_v0,2023.2.2,Win32,84.74576271,,,,,,,,,,,,,,,,803.2018,804.4957,804.4957,805.9076,return,0.5443,,92.578125,,,,,,FBP-PT-17.png,0.43,1.2,49,0.5,,,,,,,,,,,,,0,2,2,48,1,,,,,,,,,,,,,,,,,,,,,,,,,,,,
,,,,,SPR24_061,18,Male,2024-04-17_15h35.16.200,jersey_experiment_5_v0,2023.2.2,Win32,84.74576271,,,,,,,,,,,,,,,,805.9078,806.9546,806.9546,809.2958,return,0.5949,,96.875,,,,,,FBP-OG-71.png,0.43,1.2,4,0.25,,,,,,,,,,,,,0,3,3,3,1,,,,,,,,,,,,,,,,,,,,,,,,,,,,
,,,,,SPR24_061,18,Male,2024-04-17_15h35.16.200,jersey_experiment_5_v0,2023.2.2,Win32,84.74576271,,,,,,,,,,,,,,,,809.2961,810.5901,810.5901,813.7785,return,0.6412,,31.77083333,,,,,,FBP-YG-17.png,0.37,1.2,17,0.5,,,,,,,,,,,,,0,4,4,16,1,,,,,,,,,,,,,,,,,,,,,,,,,,,,
,,,,,SPR24_061,18,Male,2024-04-17_15h35.16.200,jersey_experiment_5_v0,2023.2.2,Win32,84.74576271,,,,,,,,,,,,,,,,813.7787,815.0725,815.0725,818.1315,return,0.6498,,81.640625,,,,,,FBP-PT-18.png,0.43,1.2,54,0.5,,,,,,,,,,,,,0,5,5,53,1,,,,,,,,,,,,,,,,,,,,,,,,,,,,
,,,,,SPR24_061,18,Male,2024-04-17_15h35.16.200,jersey_experiment_5_v0,2023.2.2,Win32,84.74576271,,,,,,,,,,,,,,,,818.1317,819.4257,819.4257,821.0257,return,0.7689,,87.76041667,,,,,,FBP-YG-18.png,0.45,1.2,25,0.5,,,,,,,,,,,,,0,6,6,24,1,,,,,,,,,,,,,,,,,,,,,,,,,,,,
,,,,,SPR24_061,18,Male,2024-04-17_15h35.16.200,jersey_experiment_5_v0,2023.2.2,Win32,84.74576271,,,,,,,,,,,,,,,,821.0258,822.0729,822.0729,825.6259,return,1.1192,,21.74479167,,,,,,FBP-OG-91.png,0.35,1.2,11,0.25,,,,,,,,,,,,,0,7,7,10,1,,,,,,,,,,,,,,,,,,,,,,,,,,,,
,,,,,SPR24_061,18,Male,2024-04-17_15h35.16.200,jersey_experiment_5_v0,2023.2.2,Win32,84.74576271,,,,,,,,,,,,,,,,825.6261,826.673,826.673,828.3907,return,0.5191,,16.015625,,,,,,FBP-RB-17.png,0.35,1.2,31,0.25,,,,,,,,,,,,,0,8,8,30,1,,,,,,,,,,,,,,,,,,,,,,,,,,,,
,,,,,SPR24_061,18,Male,2024-04-17_15h35.16.200,jersey_experiment_5_v0,2023.2.2,Win32,84.74576271,,,,,,,,,,,,,,,,828.3909,829.4378,829.4379,831.6968,return,1.2529,,11.328125,,,,,,FBP-OG-81.png,0.37,1.2,7,0.25,,,,,,,,,,,,,0,9,9,6,1,,,,,,,,,,,,,,,,,,,,,,,,,,,,
,,,,,SPR24_061,18,Male,2024-04-17_15h35.16.200,jersey_experiment_5_v0,2023.2.2,Win32,84.74576271,,,,,,,,,,,,,,,,831.697,832.7437,832.7437,835.2381,return,0.7316,,7.942708333,,,,,,FBP-OG-91.png,0.37,1.2,12,0.25,,,,,,,,,,,,,0,10,10,11,1,,,,,,,,,,,,,,,,,,,,,,,,,,,,
,,,,,SPR24_061,18,Male,2024-04-17_15h35.16.200,jersey_experiment_5_v0,2023.2.2,Win32,84.74576271,,,,,,,,,,,,,,,,835.2383,836.2852,836.2852,838.9323,return,0.7195,,90.234375,,,,,,FBP-RB-17.png,0.43,1.2,34,0.25,,,,,,,,,,,,,0,11,11,33,1,,,,,,,,,,,,,,,,,,,,,,,,,,,,
,,,,,SPR24_061,18,Male,2024-04-17_15h35.16.200,jersey_experiment_5_v0,2023.2.2,Win32,84.74576271,,,,,,,,,,,,,,,,838.9324,840.2263,840.2263,842.0737,return,0.5182,,93.75,,,,,,FBP-YG-19.png,0.45,1.2,30,0.5,,,,,,,,,,,,,0,12,12,29,1,,,,,,,,,,,,,,,,,,,,,,,,,,,,
,,,,,SPR24_061,18,Male,2024-04-17_15h35.16.200,jersey_experiment_5_v0,2023.2.2,Win32,84.74576271,,,,,,,,,,,,,,,,842.0739,843.1207,843.1208,844.7561,return,0.5338,,93.75,,,,,,FBP-RB-17.png,0.45,1.2,35,0.25,,,,,,,,,,,,,0,13,13,34,1,,,,,,,,,,,,,,,,,,,,,,,,,,,,
,,,,,SPR24_061,18,Male,2024-04-17_15h35.16.200,jersey_experiment_5_v0,2023.2.2,Win32,84.74576271,,,,,,,,,,,,,,,,844.7562,846.0502,846.0503,848.2269,return,0.5702,,38.02083333,,,,,,FBP-YG-17.png,0.4,1.2,18,0.5,,,,,,,,,,,,,0,14,14,17,1,,,,,,,,,,,,,,,,,,,,,,,,,,,,
,,,,,SPR24_061,18,Male,2024-04-17_15h35.16.200,jersey_experiment_5_v0,2023.2.2,Win32,84.74576271,,,,,,,,,,,,,,,,848.2271,849.5208,849.5208,851.6857,return,0.5771,,100,,,,,,FBP-YG-17.png,0.45,1.2,20,0.5,,,,,,,,,,,,,0,15,15,19,1,,,,,,,,,,,,,,,,,,,,,,,,,,,,
,,,,,SPR24_061,18,Male,2024-04-17_15h35.16.200,jersey_experiment_5_v0,2023.2.2,Win32,84.74576271,,,,,,,,,,,,,,,,851.686,852.733,852.7331,856.0858,return,1.626,,30.20833333,,,,,,FBP-OG-71.png,0.37,1.2,2,0.25,,,,,,,,,,,,,0,16,16,1,1,,,,,,,,,,,,,,,,,,,,,,,,,,,,
,,,,,SPR24_061,18,Male,2024-04-17_15h35.16.200,jersey_experiment_5_v0,2023.2.2,Win32,84.74576271,,,,,,,,,,,,,,,,856.0861,857.133,857.1331,860.6743,return,0.5941,,100,,,,,,FBP-RB-19.png,0.45,1.2,45,0.25,,,,,,,,,,,,,0,17,17,44,1,,,,,,,,,,,,,,,,,,,,,,,,,,,,
,,,,,SPR24_061,18,Male,2024-04-17_15h35.16.200,jersey_experiment_5_v0,2023.2.2,Win32,84.74576271,,,,,,,,,,,,,,,,860.6746,861.9683,861.9683,864.4509,return,0.6859,,6.510416667,,,,,,FBP-PT-17.png,0.37,1.2,47,0.5,,,,,,,,,,,,,0,18,18,46,1,,,,,,,,,,,,,,,,,,,,,,,,,,,,
,,,,,SPR24_061,18,Male,2024-04-17_15h35.16.200,jersey_experiment_5_v0,2023.2.2,Win32,84.74576271,,,,,,,,,,,,,,,,864.4512,865.4979,865.4979,868.2745,return,0.8055,,100,,,,,,FBP-OG-81.png,0.45,1.2,10,0.25,,,,,,,,,,,,,0,19,19,9,1,,,,,,,,,,,,,,,,,,,,,,,,,,,,
,,,,,SPR24_061,18,Male,2024-04-17_15h35.16.200,jersey_experiment_5_v0,2023.2.2,Win32,84.74576271,,,,,,,,,,,,,,,,868.2746,869.3219,869.3219,872.4747,return,0.7672,,99.609375,,,,,,FBP-RB-19.png,0.43,1.2,44,0.25,,,,,,,,,,,,,0,20,20,43,1,,,,,,,,,,,,,,,,,,,,,,,,,,,,
,,,,,SPR24_061,18,Male,2024-04-17_15h35.16.200,jersey_experiment_5_v0,2023.2.2,Win32,84.74576271,,,,,,,,,,,,,,,,872.475,873.5217,873.5218,877.4631,return,0.7536,,93.88020833,,,,,,FBP-OG-91.png,0.4,1.2,13,0.25,,,,,,,,,,,,,0,21,21,12,1,,,,,,,,,,,,,,,,,,,,,,,,,,,,
,,,,,SPR24_061,18,Male,2024-04-17_15h35.16.200,jersey_experiment_5_v0,2023.2.2,Win32,84.74576271,,,,,,,,,,,,,,,,877.4634,878.51,878.5102,880.122,return,0.7201,,95.83333333,,,,,,FBP-RB-18.png,0.4,1.2,38,0.25,,,,,,,,,,,,,0,22,22,37,1,,,,,,,,,,,,,,,,,,,,,,,,,,,,
,,,,,SPR24_061,18,Male,2024-04-17_15h35.16.200,jersey_experiment_5_v0,2023.2.2,Win32,84.74576271,,,,,,,,,,,,,,,,880.1223,881.4164,881.4164,883.3928,return,0.712,,82.94270833,,,,,,FBP-YG-18.png,0.4,1.2,23,0.5,,,,,,,,,,,,,0,23,23,22,1,,,,,,,,,,,,,,,,,,,,,,,,,,,,
,,,,,SPR24_061,18,Male,2024-04-17_15h35.16.200,jersey_experiment_5_v0,2023.2.2,Win32,84.74576271,,,,,,,,,,,,,,,,883.393,884.6871,884.6872,887.793,return,0.5699,,3.515625,,,,,,FBP-YG-18.png,0.35,1.2,21,0.5,,,,,,,,,,,,,0,24,24,20,1,,,,,,,,,,,,,,,,,,,,,,,,,,,,
,,,,,SPR24_061,18,Male,2024-04-17_15h35.16.200,jersey_experiment_5_v0,2023.2.2,Win32,84.74576271,,,,,,,,,,,,,,,,887.7932,889.0871,889.0871,890.9225,return,0.5655,,49.86979167,,,,,,FBP-YG-19.png,0.4,1.2,28,0.5,,,,,,,,,,,,,0,25,25,27,1,,,,,,,,,,,,,,,,,,,,,,,,,,,,
,,,,,SPR24_061,18,Male,2024-04-17_15h35.16.200,jersey_experiment_5_v0,2023.2.2,Win32,84.74576271,,,,,,,,,,,,,,,,890.9227,892.2166,892.2166,893.7343,return,0.5899,,38.93229167,,,,,,FBP-PT-18.png,0.35,1.2,51,0.5,,,,,,,,,,,,,0,26,26,50,1,,,,,,,,,,,,,,,,,,,,,,,,,,,,
,,,,,SPR24_061,18,Male,2024-04-17_15h35.16.200,jersey_experiment_5_v0,2023.2.2,Win32,84.74576271,,,,,,,,,,,,,,,,893.7345,895.0285,895.0285,897.8404,return,1.5488,,95.703125,,,,,,FBP-PT-17.png,0.45,1.2,50,0.5,,,,,,,,,,,,,0,27,27,49,1,,,,,,,,,,,,,,,,,,,,,,,,,,,,
,,,,,SPR24_061,18,Male,2024-04-17_15h35.16.200,jersey_experiment_5_v0,2023.2.2,Win32,84.74576271,,,,,,,,,,,,,,,,897.8406,899.1344,899.1345,901.1227,return,0.5699,,95.57291667,,,,,,FBP-PT-19.png,0.43,1.2,59,0.5,,,,,,,,,,,,,0,28,28,58,1,,,,,,,,,,,,,,,,,,,,,,,,,,,,
,,,,,SPR24_061,18,Male,2024-04-17_15h35.16.200,jersey_experiment_5_v0,2023.2.2,Win32,84.74576271,,,,,,,,,,,,,,,,901.1229,902.1699,902.17,905.1465,return,0.7876,,35.80729167,,,,,,FBP-RB-19.png,0.37,1.2,42,0.25,,,,,,,,,,,,,0,29,29,41,1,,,,,,,,,,,,,,,,,,,,,,,,,,,,
,,,,,SPR24_061,18,Male,2024-04-17_15h35.16.200,jersey_experiment_5_v0,2023.2.2,Win32,84.74576271,,,,,,,,,,,,,,,,905.1467,906.4406,906.4406,908.9937,return,1.0636,,3.515625,,,,,,FBP-PT-19.png,0.35,1.2,56,0.5,,,,,,,,,,,,,0,30,30,55,1,,,,,,,,,,,,,,,,,,,,,,,,,,,,
,,,,,SPR24_061,18,Male,2024-04-17_15h35.16.200,jersey_experiment_5_v0,2023.2.2,Win32,84.74576271,,,,,,,,,,,,,,,,908.9939,910.2878,910.2878,912.4644,return,1.147,,98.69791667,,,,,,FBP-YG-19.png,0.43,1.2,29,0.5,,,,,,,,,,,,,0,31,31,28,1,,,,,,,,,,,,,,,,,,,,,,,,,,,,
,,,,,SPR24_061,18,Male,2024-04-17_15h35.16.200,jersey_experiment_5_v0,2023.2.2,Win32,84.74576271,,,,,,,,,,,,,,,,912.4646,913.5114,913.5114,915.735,return,0.542,,3.90625,,,,,,FBP-RB-18.png,0.37,1.2,37,0.25,,,,,,,,,,,,,0,32,32,36,1,,,,,,,,,,,,,,,,,,,,,,,,,,,,
,,,,,SPR24_061,18,Male,2024-04-17_15h35.16.200,jersey_experiment_5_v0,2023.2.2,Win32,84.74576271,,,,,,,,,,,,,,,,915.7353,916.7822,916.7822,918.4645,return,0.5114,,1.692708333,,,,,,FBP-RB-19.png,0.35,1.2,41,0.25,,,,,,,,,,,,,0,33,33,40,1,,,,,,,,,,,,,,,,,,,,,,,,,,,,
,,,,,SPR24_061,18,Male,2024-04-17_15h35.16.200,jersey_experiment_5_v0,2023.2.2,Win32,84.74576271,,,,,,,,,,,,,,,,918.4648,919.5116,919.5117,922.1,return,1.2256,,97.00520833,,,,,,FBP-OG-91.png,0.45,1.2,15,0.25,,,,,,,,,,,,,0,34,34,14,1,,,,,,,,,,,,,,,,,,,,,,,,,,,,
,,,,,SPR24_061,18,Male,2024-04-17_15h35.16.200,jersey_experiment_5_v0,2023.2.2,Win32,84.74576271,,,,,,,,,,,,,,,,922.1002,923.3944,923.3944,925.5237,return,0.546,,33.46354167,,,,,,FBP-PT-18.png,0.4,1.2,53,0.5,,,,,,,,,,,,,0,35,35,52,1,,,,,,,,,,,,,,,,,,,,,,,,,,,,
,,,,,SPR24_061,18,Male,2024-04-17_15h35.16.200,jersey_experiment_5_v0,2023.2.2,Win32,84.74576271,,,,,,,,,,,,,,,,925.5239,926.5709,926.5709,928.5943,return,0.6159,,95.96354167,,,,,,FBP-RB-18.png,0.43,1.2,39,0.25,,,,,,,,,,,,,0,36,36,38,1,,,,,,,,,,,,,,,,,,,,,,,,,,,,
,,,,,SPR24_061,18,Male,2024-04-17_15h35.16.200,jersey_experiment_5_v0,2023.2.2,Win32,84.74576271,,,,,,,,,,,,,,,,928.5946,929.8885,929.8886,931.8297,return,0.6247,,7.552083333,,,,,,FBP-PT-18.png,0.37,1.2,52,0.5,,,,,,,,,,,,,0,37,37,51,1,,,,,,,,,,,,,,,,,,,,,,,,,,,,
,,,,,SPR24_061,18,Male,2024-04-17_15h35.16.200,jersey_experiment_5_v0,2023.2.2,Win32,84.74576271,,,,,,,,,,,,,,,,931.8301,932.8768,932.8768,934.9475,return,0.6852,,0.390625,,,,,,FBP-RB-18.png,0.35,1.2,36,0.25,,,,,,,,,,,,,0,38,38,35,1,,,,,,,,,,,,,,,,,,,,,,,,,,,,
,,,,,SPR24_061,18,Male,2024-04-17_15h35.16.200,jersey_experiment_5_v0,2023.2.2,Win32,84.74576271,,,,,,,,,,,,,,,,934.9477,935.9946,935.9946,938.4182,return,0.8764,,95.703125,,,,,,FBP-OG-81.png,0.4,1.2,8,0.25,,,,,,,,,,,,,0,39,39,7,1,,,,,,,,,,,,,,,,,,,,,,,,,,,,
,,,,,SPR24_061,18,Male,2024-04-17_15h35.16.200,jersey_experiment_5_v0,2023.2.2,Win32,84.74576271,,,,,,,,,,,,,,,,938.4184,939.7125,939.7125,941.1124,return,0.8238,,95.3125,,,,,,FBP-PT-19.png,0.45,1.2,60,0.5,,,,,,,,,,,,,0,40,40,59,1,,,,,,,,,,,,,,,,,,,,,,,,,,,,
,,,,,SPR24_061,18,Male,2024-04-17_15h35.16.200,jersey_experiment_5_v0,2023.2.2,Win32,84.74576271,,,,,,,,,,,,,,,,941.1127,942.1595,942.1596,944.2655,return,0.5891,,5.989583333,,,,,,FBP-OG-71.png,0.35,1.2,1,0.25,,,,,,,,,,,,,0,41,41,0,1,,,,,,,,,,,,,,,,,,,,,,,,,,,,
,,,,,SPR24_061,18,Male,2024-04-17_15h35.16.200,jersey_experiment_5_v0,2023.2.2,Win32,84.74576271,,,,,,,,,,,,,,,,944.2656,945.5597,945.5597,948.5127,return,0.6899,,73.95833333,,,,,,FBP-YG-18.png,0.43,1.2,24,0.5,,,,,,,,,,,,,0,42,42,23,1,,,,,,,,,,,,,,,,,,,,,,,,,,,,
,,,,,SPR24_061,18,Male,2024-04-17_15h35.16.200,jersey_experiment_5_v0,2023.2.2,Win32,84.74576271,,,,,,,,,,,,,,,,948.5129,949.5598,949.5598,950.9127,return,0.6056,,73.30729167,,,,,,FBP-OG-71.png,0.4,1.2,3,0.25,,,,,,,,,,,,,0,43,43,2,1,,,,,,,,,,,,,,,,,,,,,,,,,,,,
,,,,,SPR24_061,18,Male,2024-04-17_15h35.16.200,jersey_experiment_5_v0,2023.2.2,Win32,84.74576271,,,,,,,,,,,,,,,,950.9129,952.207,952.207,954.0071,return,0.5554,,11.84895833,,,,,,FBP-YG-19.png,0.37,1.2,27,0.5,,,,,,,,,,,,,0,44,44,26,1,,,,,,,,,,,,,,,,,,,,,,,,,,,,
,,,,,SPR24_061,18,Male,2024-04-17_15h35.16.200,jersey_experiment_5_v0,2023.2.2,Win32,84.74576271,,,,,,,,,,,,,,,,954.0074,955.3014,955.3015,957.066,return,0.5884,,1.692708333,,,,,,FBP-YG-19.png,0.35,1.2,26,0.5,,,,,,,,,,,,,0,45,45,25,1,,,,,,,,,,,,,,,,,,,,,,,,,,,,
,,,,,SPR24_061,18,Male,2024-04-17_15h35.16.200,jersey_experiment_5_v0,2023.2.2,Win32,84.74576271,,,,,,,,,,,,,,,,957.0663,958.113,958.1131,960.0544,return,0.4941,,49.47916667,,,,,,FBP-RB-19.png,0.4,1.2,43,0.25,,,,,,,,,,,,,0,46,46,42,1,,,,,,,,,,,,,,,,,,,,,,,,,,,,
,,,,,SPR24_061,18,Male,2024-04-17_15h35.16.200,jersey_experiment_5_v0,2023.2.2,Win32,84.74576271,,,,,,,,,,,,,,,,960.0546,961.3485,961.3485,963.1133,return,0.8007,,96.74479167,,,,,,FBP-PT-18.png,0.45,1.2,55,0.5,,,,,,,,,,,,,0,47,47,54,1,,,,,,,,,,,,,,,,,,,,,,,,,,,,
,,,,,SPR24_061,18,Male,2024-04-17_15h35.16.200,jersey_experiment_5_v0,2023.2.2,Win32,84.74576271,,,,,,,,,,,,,,,,963.1135,964.4076,964.4076,966.8899,return,1.4924,,5.46875,,,,,,FBP-PT-17.png,0.35,1.2,46,0.5,,,,,,,,,,,,,0,48,48,45,1,,,,,,,,,,,,,,,,,,,,,,,,,,,,
,,,,,SPR24_061,18,Male,2024-04-17_15h35.16.200,jersey_experiment_5_v0,2023.2.2,Win32,84.74576271,,,,,,,,,,,,,,,,966.8901,968.184,968.184,970.6782,return,1.0846,,1.953125,,,,,,FBP-PT-19.png,0.37,1.2,57,0.5,,,,,,,,,,,,,0,49,49,56,1,,,,,,,,,,,,,,,,,,,,,,,,,,,,
,,,,,SPR24_061,18,Male,2024-04-17_15h35.16.200,jersey_experiment_5_v0,2023.2.2,Win32,84.74576271,,,,,,,,,,,,,,,,970.6785,971.7254,971.7254,973.3841,return,0.6697,,0.651041667,,,,,,FBP-OG-81.png,0.35,1.2,6,0.25,,,,,,,,,,,,,0,50,50,5,1,,,,,,,,,,,,,,,,,,,,,,,,,,,,
,,,,,SPR24_061,18,Male,2024-04-17_15h35.16.200,jersey_experiment_5_v0,2023.2.2,Win32,84.74576271,,,,,,,,,,,,,,,,973.3843,974.6785,974.6785,976.4902,return,0.5982,,38.80208333,,,,,,FBP-PT-19.png,0.4,1.2,58,0.5,,,,,,,,,,,,,0,51,51,57,1,,,,,,,,,,,,,,,,,,,,,,,,,,,,
,,,,,SPR24_061,18,Male,2024-04-17_15h35.16.200,jersey_experiment_5_v0,2023.2.2,Win32,84.74576271,,,,,,,,,,,,,,,,976.4903,977.5373,977.5373,982.3728,return,2.6247,,62.890625,,,,,,FBP-OG-91.png,0.43,1.2,14,0.25,,,,,,,,,,,,,0,52,52,13,1,,,,,,,,,,,,,,,,,,,,,,,,,,,,
,,,,,SPR24_061,18,Male,2024-04-17_15h35.16.200,jersey_experiment_5_v0,2023.2.2,Win32,84.74576271,,,,,,,,,,,,,,,,982.373,983.4199,983.42,986.4671,return,2.3345,,49.73958333,,,,,,FBP-RB-17.png,0.4,1.2,33,0.25,,,,,,,,,,,,,0,53,53,32,1,,,,,,,,,,,,,,,,,,,,,,,,,,,,
,,,,,SPR24_061,18,Male,2024-04-17_15h35.16.200,jersey_experiment_5_v0,2023.2.2,Win32,84.74576271,,,,,,,,,,,,,,,,986.4673,987.7612,987.7612,992.3731,return,0.7895,,50.52083333,,,,,,FBP-YG-17.png,0.43,1.2,19,0.5,,,,,,,,,,,,,0,54,54,18,1,,,,,,,,,,,,,,,,,,,,,,,,,,,,
,,,,,SPR24_061,18,Male,2024-04-17_15h35.16.200,jersey_experiment_5_v0,2023.2.2,Win32,84.74576271,,,,,,,,,,,,,,,,992.3733,993.6674,993.6674,995.9616,return,0.8469,,15.49479167,,,,,,FBP-YG-17.png,0.35,1.2,16,0.5,,,,,,,,,,,,,0,55,55,15,1,,,,,,,,,,,,,,,,,,,,,,,,,,,,
,,,,,SPR24_061,18,Male,2024-04-17_15h35.16.200,jersey_experiment_5_v0,2023.2.2,Win32,84.74576271,,,,,,,,,,,,,,,,995.9618,997.0085,997.0086,999.2205,return,0.6492,,93.61979167,,,,,,FBP-OG-81.png,0.43,1.2,9,0.25,,,,,,,,,,,,,0,56,56,8,1,,,,,,,,,,,,,,,,,,,,,,,,,,,,
,,,,,SPR24_061,18,Male,2024-04-17_15h35.16.200,jersey_experiment_5_v0,2023.2.2,Win32,84.74576271,,,,,,,,,,,,,,,,999.2207,1000.5146,1000.5146,1005.1618,return,1.3413,,34.89583333,,,,,,FBP-PT-17.png,0.4,1.2,48,0.5,,,,,,,,,,,,,0,57,57,47,1,,,,,,,,,,,,,,,,,,,,,,,,,,,,
,,,,,SPR24_061,18,Male,2024-04-17_15h35.16.200,jersey_experiment_5_v0,2023.2.2,Win32,84.74576271,,,,,,,,,,,,,,,,1005.162,1006.209,1006.209,1007.7502,return,0.5555,,33.85416667,,,,,,FBP-RB-17.png,0.37,1.2,32,0.25,,,,,,,,,,,,,0,58,58,31,1,,,,,,,,,,,,,,,,,,,,,,,,,,,,
,,,,,SPR24_061,18,Male,2024-04-17_15h35.16.200,jersey_experiment_5_v0,2023.2.2,Win32,84.74576271,,,,,,,,,,,,,,,,1007.7504,1008.7972,1008.7972,1010.7266,return,0.8585,,95.83333333,,,,,,FBP-OG-71.png,0.45,1.2,5,0.25,,,,,,,,,,,,,0,59,59,4,1,,,,,,,,,,,,,,,,,,,,,,,,,,,,
,,,,,SPR24_061,18,Male,2024-04-17_15h35.16.200,jersey_experiment_5_v0,2023.2.2,Win32,84.74576271,,,,,,,,,,,,,,,,1010.7286,1012.021,1012.021,1012.8798,return,0.5949,,95.83333333,,,,,,FBP-YG-91.png,0.45,1.2,30,0.5,,,,,,,,,,,,,,,,,,0,0,0,29,1,,,,,,,,,,,,,,,,,,,,,,,
,,,,,SPR24_061,18,Male,2024-04-17_15h35.16.200,jersey_experiment_5_v0,2023.2.2,Win32,84.74576271,,,,,,,,,,,,,,,,1012.88,1013.9267,1013.9267,1014.8681,return,0.5454,,95.57291667,,,,,,FBP-RB-81.png,0.43,1.2,39,0.25,,,,,,,,,,,,,,,,,,0,1,1,38,1,,,,,,,,,,,,,,,,,,,,,,,
,,,,,SPR24_061,18,Male,2024-04-17_15h35.16.200,jersey_experiment_5_v0,2023.2.2,Win32,84.74576271,,,,,,,,,,,,,,,,1014.8683,1015.9152,1015.9152,1017.7153,return,0.5796,,98.4375,,,,,,FBP-RB-71.png,0.43,1.2,34,0.25,,,,,,,,,,,,,,,,,,0,2,2,33,1,,,,,,,,,,,,,,,,,,,,,,,
,,,,,SPR24_061,18,Male,2024-04-17_15h35.16.200,jersey_experiment_5_v0,2023.2.2,Win32,84.74576271,,,,,,,,,,,,,,,,1017.7155,1018.7623,1018.7623,1019.9389,return,0.7702,,98.30729167,,,,,,FBP-RB-91.png,0.45,1.2,45,0.25,,,,,,,,,,,,,,,,,,0,3,3,44,1,,,,,,,,,,,,,,,,,,,,,,,
,,,,,SPR24_061,18,Male,2024-04-17_15h35.16.200,jersey_experiment_5_v0,2023.2.2,Win32,84.74576271,,,,,,,,,,,,,,,,1019.9391,1020.986,1020.986,1022.6096,return,0.6291,,98.4375,,,,,,FBP-OG-19.png,0.43,1.2,14,0.25,,,,,,,,,,,,,,,,,,0,4,4,13,1,,,,,,,,,,,,,,,,,,,,,,,
,,,,,SPR24_061,18,Male,2024-04-17_15h35.16.200,jersey_experiment_5_v0,2023.2.2,Win32,84.74576271,,,,,,,,,,,,,,,,1022.6098,1023.6566,1023.6566,1024.8685,return,0.5794,,98.56770833,,,,,,FBP-OG-19.png,0.45,1.2,15,0.25,,,,,,,,,,,,,,,,,,0,5,5,14,1,,,,,,,,,,,,,,,,,,,,,,,
,,,,,SPR24_061,18,Male,2024-04-17_15h35.16.200,jersey_experiment_5_v0,2023.2.2,Win32,84.74576271,,,,,,,,,,,,,,,,1024.8686,1026.1627,1026.1627,1027.7861,return,0.5412,,100,,,,,,FBP-PT-91.png,0.43,1.2,59,0.5,,,,,,,,,,,,,,,,,,0,6,6,58,1,,,,,,,,,,,,,,,,,,,,,,,
,,,,,SPR24_061,18,Male,2024-04-17_15h35.16.200,jersey_experiment_5_v0,2023.2.2,Win32,84.74576271,,,,,,,,,,,,,,,,1027.7863,1029.0805,1029.0805,1031.4097,return,0.7356,,10.9375,,,,,,FBP-YG-71.png,0.37,1.2,17,0.5,,,,,,,,,,,,,,,,,,0,7,7,16,1,,,,,,,,,,,,,,,,,,,,,,,
,,,,,SPR24_061,18,Male,2024-04-17_15h35.16.200,jersey_experiment_5_v0,2023.2.2,Win32,84.74576271,,,,,,,,,,,,,,,,1031.4099,1032.7042,1032.7042,1034.8688,return,0.6857,,99.609375,,,,,,FBP-PT-71.png,0.45,1.2,50,0.5,,,,,,,,,,,,,,,,,,0,8,8,49,1,,,,,,,,,,,,,,,,,,,,,,,
,,,,,SPR24_061,18,Male,2024-04-17_15h35.16.200,jersey_experiment_5_v0,2023.2.2,Win32,84.74576271,,,,,,,,,,,,,,,,1034.8691,1035.916,1035.916,1037.9043,return,0.7239,,11.71875,,,,,,FBP-OG-18.png,0.37,1.2,7,0.25,,,,,,,,,,,,,,,,,,0,9,9,6,1,,,,,,,,,,,,,,,,,,,,,,,
,,,,,SPR24_061,18,Male,2024-04-17_15h35.16.200,jersey_experiment_5_v0,2023.2.2,Win32,84.74576271,,,,,,,,,,,,,,,,1037.9045,1039.1987,1039.1987,1041.4456,return,0.7204,,2.994791667,,,,,,FBP-YG-81.png,0.35,1.2,21,0.5,,,,,,,,,,,,,,,,,,0,10,10,20,1,,,,,,,,,,,,,,,,,,,,,,,
,,,,,SPR24_061,18,Male,2024-04-17_15h35.16.200,jersey_experiment_5_v0,2023.2.2,Win32,84.74576271,,,,,,,,,,,,,,,,1041.4458,1042.4927,1042.4927,1044.1632,return,0.6499,,98.046875,,,,,,FBP-RB-81.png,0.45,1.2,40,0.25,,,,,,,,,,,,,,,,,,0,11,11,39,1,,,,,,,,,,,,,,,,,,,,,,,
,,,,,SPR24_061,18,Male,2024-04-17_15h35.16.200,jersey_experiment_5_v0,2023.2.2,Win32,84.74576271,,,,,,,,,,,,,,,,1044.1635,1045.4574,1045.4574,1046.6457,return,0.6835,,98.56770833,,,,,,FBP-YG-81.png,0.45,1.2,25,0.5,,,,,,,,,,,,,,,,,,0,12,12,24,1,,,,,,,,,,,,,,,,,,,,,,,
,,,,,SPR24_061,18,Male,2024-04-17_15h35.16.200,jersey_experiment_5_v0,2023.2.2,Win32,84.74576271,,,,,,,,,,,,,,,,1046.646,1047.6927,1047.6928,1050.6341,return,0.7291,,24.47916667,,,,,,FBP-OG-19.png,0.4,1.2,13,0.25,,,,,,,,,,,,,,,,,,0,13,13,12,1,,,,,,,,,,,,,,,,,,,,,,,
,,,,,SPR24_061,18,Male,2024-04-17_15h35.16.200,jersey_experiment_5_v0,2023.2.2,Win32,84.74576271,,,,,,,,,,,,,,,,1050.6344,1051.6811,1051.6811,1053.2813,return,0.6165,,0.390625,,,,,,FBP-OG-19.png,0.35,1.2,11,0.25,,,,,,,,,,,,,,,,,,0,14,14,10,1,,,,,,,,,,,,,,,,,,,,,,,
,,,,,SPR24_061,18,Male,2024-04-17_15h35.16.200,jersey_experiment_5_v0,2023.2.2,Win32,84.74576271,,,,,,,,,,,,,,,,1053.2815,1054.5754,1054.5754,1057.2696,return,0.5437,,39.84375,,,,,,FBP-PT-81.png,0.4,1.2,53,0.5,,,,,,,,,,,,,,,,,,0,15,15,52,1,,,,,,,,,,,,,,,,,,,,,,,
,,,,,SPR24_061,18,Male,2024-04-17_15h35.16.200,jersey_experiment_5_v0,2023.2.2,Win32,84.74576271,,,,,,,,,,,,,,,,1057.2698,1058.564,1058.564,1060.2463,return,0.649,,95.57291667,,,,,,FBP-YG-71.png,0.45,1.2,20,0.5,,,,,,,,,,,,,,,,,,0,16,16,19,1,,,,,,,,,,,,,,,,,,,,,,,
,,,,,SPR24_061,18,Male,2024-04-17_15h35.16.200,jersey_experiment_5_v0,2023.2.2,Win32,84.74576271,,,,,,,,,,,,,,,,1060.2466,1061.5406,1061.5407,1063.0934,return,0.5662,,8.072916667,,,,,,FBP-YG-71.png,0.35,1.2,16,0.5,,,,,,,,,,,,,,,,,,0,17,17,15,1,,,,,,,,,,,,,,,,,,,,,,,
,,,,,SPR24_061,18,Male,2024-04-17_15h35.16.200,jersey_experiment_5_v0,2023.2.2,Win32,84.74576271,,,,,,,,,,,,,,,,1063.0936,1064.1404,1064.1405,1065.9992,return,0.5128,,86.97916667,,,,,,FBP-RB-81.png,0.4,1.2,38,0.25,,,,,,,,,,,,,,,,,,0,18,18,37,1,,,,,,,,,,,,,,,,,,,,,,,
,,,,,SPR24_061,18,Male,2024-04-17_15h35.16.200,jersey_experiment_5_v0,2023.2.2,Win32,84.74576271,,,,,,,,,,,,,,,,1065.9995,1067.0467,1067.0467,1068.5759,return,0.5615,,92.1875,,,,,,FBP-RB-71.png,0.45,1.2,35,0.25,,,,,,,,,,,,,,,,,,0,19,19,34,1,,,,,,,,,,,,,,,,,,,,,,,
,,,,,SPR24_061,18,Male,2024-04-17_15h35.16.200,jersey_experiment_5_v0,2023.2.2,Win32,84.74576271,,,,,,,,,,,,,,,,1068.5761,1069.8701,1069.8702,1072.482,return,0.5695,,5.729166667,,,,,,FBP-PT-81.png,0.35,1.2,51,0.5,,,,,,,,,,,,,,,,,,0,20,20,50,1,,,,,,,,,,,,,,,,,,,,,,,
,,,,,SPR24_061,18,Male,2024-04-17_15h35.16.200,jersey_experiment_5_v0,2023.2.2,Win32,84.74576271,,,,,,,,,,,,,,,,1072.4822,1073.5293,1073.5293,1075.5291,return,0.5274,,86.45833333,,,,,,FBP-RB-91.png,0.43,1.2,44,0.25,,,,,,,,,,,,,,,,,,0,21,21,43,1,,,,,,,,,,,,,,,,,,,,,,,
,,,,,SPR24_061,18,Male,2024-04-17_15h35.16.200,jersey_experiment_5_v0,2023.2.2,Win32,84.74576271,,,,,,,,,,,,,,,,1075.5294,1076.8232,1076.8232,1077.8587,return,0.4863,,65.234375,,,,,,FBP-YG-81.png,0.43,1.2,24,0.5,,,,,,,,,,,,,,,,,,0,22,22,23,1,,,,,,,,,,,,,,,,,,,,,,,
,,,,,SPR24_061,18,Male,2024-04-17_15h35.16.200,jersey_experiment_5_v0,2023.2.2,Win32,84.74576271,,,,,,,,,,,,,,,,1077.8589,1078.9057,1078.9057,1082.6236,return,2.2191,,1.302083333,,,,,,FBP-RB-91.png,0.35,1.2,41,0.25,,,,,,,,,,,,,,,,,,0,23,23,40,1,,,,,,,,,,,,,,,,,,,,,,,
,,,,,SPR24_061,18,Male,2024-04-17_15h35.16.200,jersey_experiment_5_v0,2023.2.2,Win32,84.74576271,,,,,,,,,,,,,,,,1082.6238,1083.918,1083.918,1085.7177,return,0.567,,91.27604167,,,,,,FBP-PT-81.png,0.45,1.2,55,0.5,,,,,,,,,,,,,,,,,,0,24,24,54,1,,,,,,,,,,,,,,,,,,,,,,,
,,,,,SPR24_061,18,Male,2024-04-17_15h35.16.200,jersey_experiment_5_v0,2023.2.2,Win32,84.74576271,,,,,,,,,,,,,,,,1085.7179,1087.0118,1087.0119,1088.8708,return,0.5061,,71.484375,,,,,,FBP-PT-71.png,0.43,1.2,49,0.5,,,,,,,,,,,,,,,,,,0,25,25,48,1,,,,,,,,,,,,,,,,,,,,,,,
,,,,,SPR24_061,18,Male,2024-04-17_15h35.16.200,jersey_experiment_5_v0,2023.2.2,Win32,84.74576271,,,,,,,,,,,,,,,,1088.8711,1090.1649,1090.1649,1091.2357,return,0.474,,64.71354167,,,,,,FBP-YG-71.png,0.43,1.2,19,0.5,,,,,,,,,,,,,,,,,,0,26,26,18,1,,,,,,,,,,,,,,,,,,,,,,,
,,,,,SPR24_061,18,Male,2024-04-17_15h35.16.200,jersey_experiment_5_v0,2023.2.2,Win32,84.74576271,,,,,,,,,,,,,,,,1091.2358,1092.2826,1092.2826,1094.3298,return,1.036,,64.71354167,,,,,,FBP-OG-18.png,0.43,1.2,9,0.25,,,,,,,,,,,,,,,,,,0,27,27,8,1,,,,,,,,,,,,,,,,,,,,,,,
,,,,,SPR24_061,18,Male,2024-04-17_15h35.16.200,jersey_experiment_5_v0,2023.2.2,Win32,84.74576271,,,,,,,,,,,,,,,,1094.33,1095.6239,1095.624,1097.7064,return,0.5429,,64.71354167,,,,,,FBP-YG-91.png,0.43,1.2,29,0.5,,,,,,,,,,,,,,,,,,0,28,28,28,1,,,,,,,,,,,,,,,,,,,,,,,
,,,,,SPR24_061,18,Male,2024-04-17_15h35.16.200,jersey_experiment_5_v0,2023.2.2,Win32,84.74576271,,,,,,,,,,,,,,,,1097.7067,1098.7535,1098.7535,1100.1537,return,0.4841,,32.94270833,,,,,,FBP-RB-81.png,0.35,1.2,36,0.25,,,,,,,,,,,,,,,,,,0,29,29,35,1,,,,,,,,,,,,,,,,,,,,,,,
,,,,,SPR24_061,18,Male,2024-04-17_15h35.16.200,jersey_experiment_5_v0,2023.2.2,Win32,84.74576271,,,,,,,,,,,,,,,,1100.1539,1101.4478,1101.4478,1102.6712,return,0.5145,,14.32291667,,,,,,FBP-YG-81.png,0.37,1.2,22,0.5,,,,,,,,,,,,,,,,,,0,30,30,21,1,,,,,,,,,,,,,,,,,,,,,,,
,,,,,SPR24_061,18,Male,2024-04-17_15h35.16.200,jersey_experiment_5_v0,2023.2.2,Win32,84.74576271,,,,,,,,,,,,,,,,1102.6714,1103.9657,1103.9657,1105.4244,return,0.5476,,84.89583333,,,,,,FBP-PT-91.png,0.4,1.2,58,0.5,,,,,,,,,,,,,,,,,,0,31,31,57,1,,,,,,,,,,,,,,,,,,,,,,,
,,,,,SPR24_061,18,Male,2024-04-17_15h35.16.200,jersey_experiment_5_v0,2023.2.2,Win32,84.74576271,,,,,,,,,,,,,,,,1105.4246,1106.4714,1106.4714,1108.9655,return,0.9908,,88.93229167,,,,,,FBP-OG-17.png,0.43,1.2,4,0.25,,,,,,,,,,,,,,,,,,0,32,32,3,1,,,,,,,,,,,,,,,,,,,,,,,
,,,,,SPR24_061,18,Male,2024-04-17_15h35.16.200,jersey_experiment_5_v0,2023.2.2,Win32,84.74576271,,,,,,,,,,,,,,,,1108.9658,1110.0128,1110.0129,1113.9541,return,2.4765,,60.9375,,,,,,FBP-RB-91.png,0.4,1.2,43,0.25,,,,,,,,,,,,,,,,,,0,33,33,42,1,,,,,,,,,,,,,,,,,,,,,,,
,,,,,SPR24_061,18,Male,2024-04-17_15h35.16.200,jersey_experiment_5_v0,2023.2.2,Win32,84.74576271,,,,,,,,,,,,,,,,1113.9543,1115.2484,1115.2484,1118.6485,return,1.7077,,65.36458333,,,,,,FBP-YG-91.png,0.4,1.2,28,0.5,,,,,,,,,,,,,,,,,,0,34,34,27,1,,,,,,,,,,,,,,,,,,,,,,,
,,,,,SPR24_061,18,Male,2024-04-17_15h35.16.200,jersey_experiment_5_v0,2023.2.2,Win32,84.74576271,,,,,,,,,,,,,,,,1118.6488,1119.9427,1119.9427,1123.1428,return,1.0131,,29.03645833,,,,,,FBP-PT-71.png,0.35,1.2,46,0.5,,,,,,,,,,,,,,,,,,0,35,35,45,1,,,,,,,,,,,,,,,,,,,,,,,
,,,,,SPR24_061,18,Male,2024-04-17_15h35.16.200,jersey_experiment_5_v0,2023.2.2,Win32,84.74576271,,,,,,,,,,,,,,,,1123.143,1124.4369,1124.4369,1126.8251,return,0.7628,,15.49479167,,,,,,FBP-PT-71.png,0.37,1.2,47,0.5,,,,,,,,,,,,,,,,,,0,36,36,46,1,,,,,,,,,,,,,,,,,,,,,,,
,,,,,SPR24_061,18,Male,2024-04-17_15h35.16.200,jersey_experiment_5_v0,2023.2.2,Win32,84.74576271,,,,,,,,,,,,,,,,1126.8254,1127.8723,1127.8723,1132.9785,return,2.8884,,2.994791667,,,,,,FBP-OG-19.png,0.37,1.2,12,0.25,,,,,,,,,,,,,,,,,,0,37,37,11,1,,,,,,,,,,,,,,,,,,,,,,,
,,,,,SPR24_061,18,Male,2024-04-17_15h35.16.200,jersey_experiment_5_v0,2023.2.2,Win32,84.74576271,,,,,,,,,,,,,,,,1132.9787,1134.2726,1134.2726,1136.449,return,0.6189,,5.46875,,,,,,FBP-YG-81.png,0.4,1.2,23,0.5,,,,,,,,,,,,,,,,,,0,38,38,22,1,,,,,,,,,,,,,,,,,,,,,,,
,,,,,SPR24_061,18,Male,2024-04-17_15h35.16.200,jersey_experiment_5_v0,2023.2.2,Win32,84.74576271,,,,,,,,,,,,,,,,1136.4493,1137.7432,1137.7432,1139.6256,return,0.8568,,96.35416667,,,,,,FBP-PT-81.png,0.43,1.2,54,0.5,,,,,,,,,,,,,,,,,,0,39,39,53,1,,,,,,,,,,,,,,,,,,,,,,,
,,,,,SPR24_061,18,Male,2024-04-17_15h35.16.200,jersey_experiment_5_v0,2023.2.2,Win32,84.74576271,,,,,,,,,,,,,,,,1139.6258,1140.9197,1140.9198,1142.3905,return,1.0588,,93.359375,,,,,,FBP-PT-91.png,0.45,1.2,60,0.5,,,,,,,,,,,,,,,,,,0,40,40,59,1,,,,,,,,,,,,,,,,,,,,,,,
,,,,,SPR24_061,18,Male,2024-04-17_15h35.16.200,jersey_experiment_5_v0,2023.2.2,Win32,84.74576271,,,,,,,,,,,,,,,,1142.3907,1143.4374,1143.4374,1146.4377,return,0.8007,,4.6875,,,,,,FBP-RB-71.png,0.35,1.2,31,0.25,,,,,,,,,,,,,,,,,,0,41,41,30,1,,,,,,,,,,,,,,,,,,,,,,,
,,,,,SPR24_061,18,Male,2024-04-17_15h35.16.200,jersey_experiment_5_v0,2023.2.2,Win32,84.74576271,,,,,,,,,,,,,,,,1146.4379,1147.7317,1147.7317,1149.4966,return,0.7898,,5.338541667,,,,,,FBP-PT-71.png,0.4,1.2,48,0.5,,,,,,,,,,,,,,,,,,0,42,42,47,1,,,,,,,,,,,,,,,,,,,,,,,
,,,,,SPR24_061,18,Male,2024-04-17_15h35.16.200,jersey_experiment_5_v0,2023.2.2,Win32,84.74576271,,,,,,,,,,,,,,,,1149.4969,1150.5435,1150.5436,1153.7321,return,2.0962,,29.03645833,,,,,,FBP-OG-17.png,0.4,1.2,3,0.25,,,,,,,,,,,,,,,,,,0,43,43,2,1,,,,,,,,,,,,,,,,,,,,,,,
,,,,,SPR24_061,18,Male,2024-04-17_15h35.16.200,jersey_experiment_5_v0,2023.2.2,Win32,84.74576271,,,,,,,,,,,,,,,,1153.7323,1155.0263,1155.0263,1158.0851,return,1.2481,,19.79166667,,,,,,FBP-YG-71.png,0.4,1.2,18,0.5,,,,,,,,,,,,,,,,,,0,44,44,17,1,,,,,,,,,,,,,,,,,,,,,,,
,,,,,SPR24_061,18,Male,2024-04-17_15h35.16.200,jersey_experiment_5_v0,2023.2.2,Win32,84.74576271,,,,,,,,,,,,,,,,1158.0853,1159.1322,1159.1323,1161.0734,return,0.5691,,12.76041667,,,,,,FBP-RB-71.png,0.4,1.2,33,0.25,,,,,,,,,,,,,,,,,,0,45,45,32,1,,,,,,,,,,,,,,,,,,,,,,,
,,,,,SPR24_061,18,Male,2024-04-17_15h35.16.200,jersey_experiment_5_v0,2023.2.2,Win32,84.74576271,,,,,,,,,,,,,,,,1161.0736,1162.1204,1162.1205,1164.0265,return,0.74,,9.505208333,,,,,,FBP-OG-17.png,0.35,1.2,1,0.25,,,,,,,,,,,,,,,,,,0,46,46,0,1,,,,,,,,,,,,,,,,,,,,,,,
,,,,,SPR24_061,18,Male,2024-04-17_15h35.16.200,jersey_experiment_5_v0,2023.2.2,Win32,84.74576271,,,,,,,,,,,,,,,,1164.0267,1165.3208,1165.3208,1167.5207,return,0.8764,,2.734375,,,,,,FBP-PT-91.png,0.37,1.2,57,0.5,,,,,,,,,,,,,,,,,,0,47,47,56,1,,,,,,,,,,,,,,,,,,,,,,,
,,,,,SPR24_061,18,Male,2024-04-17_15h35.16.200,jersey_experiment_5_v0,2023.2.2,Win32,84.74576271,,,,,,,,,,,,,,,,1167.521,1168.5677,1168.5678,1172.4386,return,1.5301,,30.98958333,,,,,,FBP-RB-71.png,0.37,1.2,32,0.25,,,,,,,,,,,,,,,,,,0,48,48,31,1,,,,,,,,,,,,,,,,,,,,,,,
,,,,,SPR24_061,18,Male,2024-04-17_15h35.16.200,jersey_experiment_5_v0,2023.2.2,Win32,84.74576271,,,,,,,,,,,,,,,,1172.4388,1173.7328,1173.7328,1175.5446,return,0.6829,,6.510416667,,,,,,FBP-YG-91.png,0.35,1.2,26,0.5,,,,,,,,,,,,,,,,,,0,49,49,25,1,,,,,,,,,,,,,,,,,,,,,,,
,,,,,SPR24_061,18,Male,2024-04-17_15h35.16.200,jersey_experiment_5_v0,2023.2.2,Win32,84.74576271,,,,,,,,,,,,,,,,1175.5448,1176.8387,1176.8388,1179.2154,return,0.8773,,1.432291667,,,,,,FBP-PT-91.png,0.35,1.2,56,0.5,,,,,,,,,,,,,,,,,,0,50,50,55,1,,,,,,,,,,,,,,,,,,,,,,,
,,,,,SPR24_061,18,Male,2024-04-17_15h35.16.200,jersey_experiment_5_v0,2023.2.2,Win32,84.74576271,,,,,,,,,,,,,,,,1179.2155,1180.5096,1180.5096,1182.8506,return,0.5939,,11.84895833,,,,,,FBP-YG-91.png,0.37,1.2,27,0.5,,,,,,,,,,,,,,,,,,0,51,51,26,1,,,,,,,,,,,,,,,,,,,,,,,
,,,,,SPR24_061,18,Male,2024-04-17_15h35.16.200,jersey_experiment_5_v0,2023.2.2,Win32,84.74576271,,,,,,,,,,,,,,,,1182.8508,1183.8978,1183.8978,1186.698,return,1.3079,,96.61458333,,,,,,FBP-OG-17.png,0.45,1.2,5,0.25,,,,,,,,,,,,,,,,,,0,52,52,4,1,,,,,,,,,,,,,,,,,,,,,,,
,,,,,SPR24_061,18,Male,2024-04-17_15h35.16.200,jersey_experiment_5_v0,2023.2.2,Win32,84.74576271,,,,,,,,,,,,,,,,1186.6981,1187.7449,1187.745,1191.8392,return,0.597,,9.895833333,,,,,,FBP-RB-91.png,0.37,1.2,42,0.25,,,,,,,,,,,,,,,,,,0,53,53,41,1,,,,,,,,,,,,,,,,,,,,,,,
,,,,,SPR24_061,18,Male,2024-04-17_15h35.16.200,jersey_experiment_5_v0,2023.2.2,Win32,84.74576271,,,,,,,,,,,,,,,,1191.8394,1192.8864,1192.8864,1195.3923,return,1.1374,,98.30729167,,,,,,FBP-OG-18.png,0.45,1.2,10,0.25,,,,,,,,,,,,,,,,,,0,54,54,9,1,,,,,,,,,,,,,,,,,,,,,,,
,,,,,SPR24_061,18,Male,2024-04-17_15h35.16.200,jersey_experiment_5_v0,2023.2.2,Win32,84.74576271,,,,,,,,,,,,,,,,1195.3925,1196.4395,1196.4396,1198.5453,return,0.5713,,95.83333333,,,,,,FBP-RB-81.png,0.37,1.2,37,0.25,,,,,,,,,,,,,,,,,,0,55,55,36,1,,,,,,,,,,,,,,,,,,,,,,,
,,,,,SPR24_061,18,Male,2024-04-17_15h35.16.200,jersey_experiment_5_v0,2023.2.2,Win32,84.74576271,,,,,,,,,,,,,,,,1198.5455,1199.8395,1199.8395,1201.769,return,0.7294,,13.02083333,,,,,,FBP-PT-81.png,0.37,1.2,52,0.5,,,,,,,,,,,,,,,,,,0,56,56,51,1,,,,,,,,,,,,,,,,,,,,,,,
,,,,,SPR24_061,18,Male,2024-04-17_15h35.16.200,jersey_experiment_5_v0,2023.2.2,Win32,84.74576271,,,,,,,,,,,,,,,,1201.7692,1202.8162,1202.8163,1205.0281,return,0.5571,,38.671875,,,,,,FBP-OG-18.png,0.4,1.2,8,0.25,,,,,,,,,,,,,,,,,,0,57,57,7,1,,,,,,,,,,,,,,,,,,,,,,,
,,,,,SPR24_061,18,Male,2024-04-17_15h35.16.200,jersey_experiment_5_v0,2023.2.2,Win32,84.74576271,,,,,,,,,,,,,,,,1205.0284,1206.075,1206.075,1208.534,return,0.6257,,2.734375,,,,,,FBP-OG-17.png,0.37,1.2,2,0.25,,,,,,,,,,,,,,,,,,0,58,58,1,1,,,,,,,,,,,,,,,,,,,,,,,
,,,,,SPR24_061,18,Male,2024-04-17_15h35.16.200,jersey_experiment_5_v0,2023.2.2,Win32,84.74576271,,,,,,,,,,,,,,,,1208.5342,1209.5811,1209.5811,1211.3929,return,0.9343,,0.651041667,,,,,,FBP-OG-18.png,0.35,1.2,6,0.25,,,,,,,,,,,,,,,,,,0,59,59,5,1,,,,,,,,,,,,,,,,,,,,,,,
,,,,,SPR24_061,18,Male,2024-04-17_15h35.16.200,jersey_experiment_5_v0,2023.2.2,Win32,84.74576271,,,,,,,,,,,,,,,,,,,,,,,,,,,,,,,,,,,,,,,,,,,,,,,,,,,,,,,,1211.3932,1217.0639,return,5.6572,,,,,,,,,,,,,,,,,,,
,,,,,SPR24_061,18,Male,2024-04-17_15h35.16.200,jersey_experiment_5_v0,2023.2.2,Win32,84.74576271,,,,,,,,,,,,,,,,,,,,,,,,,,,,,,,,,,,,,,,,,,,,,,,,,,,,,,,,,,,,,1217.064,1221.3463,1,3.2349,return,1.027,,,,,,,,,,,,
,,,,,SPR24_061,18,Male,2024-04-17_15h35.16.200,jersey_experiment_5_v0,2023.2.2,Win32,84.74576271,,,,,,,,,,,,,,,,,,,,,,,,,,,,,,,,,,,,,,,,,,,,,,,,,,,,,,,,,,,,,,,,,,,,1221.3465,1263.612,The only pattern I think I noticed was a POC would follow after a Non-POC would appear.,right,34.6708,,,,,,
,,,,,SPR24_061,18,Male,2024-04-17_15h35.16.200,jersey_experiment_5_v0,2023.2.2,Win32,84.74576271,,,,,,,,,,,,,,,,,,,,,,,,,,,,,,,,,,,,,,,,,,,,,,,,,,,,,,,,,,,,,,,,,,,,,,,,,,1263.6121,1267.9717,return,4.3512,