requirements.started,requirements.stopped,key_resp_3.keys,key_resp_3.rt,key_resp_3.duration,Subject ID,Age,Gender,date,expName,psychopyVersion,OS,frameRate,instructions1.started,instructions1.stopped,key_resp.keys,key_resp.rt,key_resp.duration,example.started,example.stopped,enter_2.keys,enter_2.rt,enter_2.duration,instructions2.started,instructions2.stopped,enter_3.keys,enter_3.rt,enter_3.duration,image.started,image.stopped,slider_2.started,slider_2.stopped,next.keys,next.rt,next.duration,slider.response,trial_block_1.thisRepN,trial_block_1.thisTrialN,trial_block_1.thisN,trial_block_1.thisIndex,trial_block_1.ran,Path,Width,Height,Index,Duration,trial_block_2.thisRepN,trial_block_2.thisTrialN,trial_block_2.thisN,trial_block_2.thisIndex,trial_block_2.ran,rest_break.started,rest_break.stopped,end_break.started,end_break.stopped,key_resp_5.keys,key_resp_5.rt,key_resp_5.duration,trial_block_3.thisRepN,trial_block_3.thisTrialN,trial_block_3.thisN,trial_block_3.thisIndex,trial_block_3.ran,trial_block_4.thisRepN,trial_block_4.thisTrialN,trial_block_4.thisN,trial_block_4.thisIndex,trial_block_4.ran,questions_intro.started,questions_intro.stopped,enter_12.keys,enter_12.rt,enter_12.duration,question2.started,question2.stopped,question_doingbest.response,question_doingbest.rt,enter_15.keys,enter_15.rt,enter_15.duration,pattern.started,pattern.stopped,pattern_2.text,enter_17.keys,enter_17.rt,enter_17.duration,thankyou.started,thankyou.stopped,enter_14.keys,enter_14.rt,enter_14.duration
9.99999E-05,14.4304,return,14.4256,,SPR24_015,21,Female,2024-04-08_15h00.32.205,jersey_experiment_5_v0,2023.2.2,Win32,84.74576271,,,,,,,,,,,,,,,,,,,,,,,,,,,,,,,,,,,,,,,,,,,,,,,,,,,,,,,,,,,,,,,,,,,,,,,,,,,,,,
,,,,,SPR24_015,21,Female,2024-04-08_15h00.32.205,jersey_experiment_5_v0,2023.2.2,Win32,84.74576271,14.4305,32.1244,return,17.6756,,,,,,,,,,,,,,,,,,,,,,,,,,,,,,,,,,,,,,,,,,,,,,,,,,,,,,,,,,,,,,,,,,,,,,,,,,
,,,,,SPR24_015,21,Female,2024-04-08_15h00.32.205,jersey_experiment_5_v0,2023.2.2,Win32,84.74576271,,,,,,32.1244,36.4657,return,4.3009,,,,,,,,,,,,,,,,,,,,,,,,,,,,,,,,,,,,,,,,,,,,,,,,,,,,,,,,,,,,,,,,,,,,,
,,,,,SPR24_015,21,Female,2024-04-08_15h00.32.205,jersey_experiment_5_v0,2023.2.2,Win32,84.74576271,,,,,,,,,,,36.4657,59.2783,return,22.8024,,,,,,,,,,,,,,,,,,,,,,,,,,,,,,,,,,,,,,,,,,,,,,,,,,,,,,,,,,,,,,,,
,,,,,SPR24_015,21,Female,2024-04-08_15h00.32.205,jersey_experiment_5_v0,2023.2.2,Win32,84.74576271,,,,,,,,,,,,,,,,59.2855,60.5841,60.5841,73.1023,return,5.7691,,74.34895833,0,0,0,3,1,FBP-OG-71.png,0.43,1.2,4,0.5,,,,,,,,,,,,,,,,,,,,,,,,,,,,,,,,,,,,,,,,,,,,,
,,,,,SPR24_015,21,Female,2024-04-08_15h00.32.205,jersey_experiment_5_v0,2023.2.2,Win32,84.74576271,,,,,,,,,,,,,,,,73.1068,74.408,74.4082,78.4788,return,2.0859,,51.82291667,0,1,1,9,1,FBP-OG-81.png,0.45,1.2,10,0.5,,,,,,,,,,,,,,,,,,,,,,,,,,,,,,,,,,,,,,,,,,,,,
,,,,,SPR24_015,21,Female,2024-04-08_15h00.32.205,jersey_experiment_5_v0,2023.2.2,Win32,84.74576271,,,,,,,,,,,,,,,,78.4791,79.5259,79.5259,81.7378,return,0.4323,,26.171875,0,2,2,51,1,FBP-PT-18.png,0.37,1.2,52,0.25,,,,,,,,,,,,,,,,,,,,,,,,,,,,,,,,,,,,,,,,,,,,,
,,,,,SPR24_015,21,Female,2024-04-08_15h00.32.205,jersey_experiment_5_v0,2023.2.2,Win32,84.74576271,,,,,,,,,,,,,,,,81.7381,83.0319,83.0319,84.2203,return,0.4035,,25.78125,0,3,3,1,1,FBP-OG-71.png,0.37,1.2,2,0.5,,,,,,,,,,,,,,,,,,,,,,,,,,,,,,,,,,,,,,,,,,,,,
,,,,,SPR24_015,21,Female,2024-04-08_15h00.32.205,jersey_experiment_5_v0,2023.2.2,Win32,84.74576271,,,,,,,,,,,,,,,,84.2206,85.5144,85.5144,90.0204,return,1.5159,,51.171875,0,4,4,37,1,FBP-RB-18.png,0.4,1.2,38,0.5,,,,,,,,,,,,,,,,,,,,,,,,,,,,,,,,,,,,,,,,,,,,,
,,,,,SPR24_015,21,Female,2024-04-08_15h00.32.205,jersey_experiment_5_v0,2023.2.2,Win32,84.74576271,,,,,,,,,,,,,,,,90.0206,91.0674,91.0675,93.3852,return,0.4563,,88.54166667,0,5,5,49,1,FBP-PT-17.png,0.45,1.2,50,0.25,,,,,,,,,,,,,,,,,,,,,,,,,,,,,,,,,,,,,,,,,,,,,
,,,,,SPR24_015,21,Female,2024-04-08_15h00.32.205,jersey_experiment_5_v0,2023.2.2,Win32,84.74576271,,,,,,,,,,,,,,,,93.3853,94.4323,94.4324,97.562,return,0.5141,,69.66145833,0,6,6,28,1,FBP-YG-19.png,0.43,1.2,29,0.25,,,,,,,,,,,,,,,,,,,,,,,,,,,,,,,,,,,,,,,,,,,,,
,,,,,SPR24_015,21,Female,2024-04-08_15h00.32.205,jersey_experiment_5_v0,2023.2.2,Win32,84.74576271,,,,,,,,,,,,,,,,97.5621,98.6089,98.609,103.727,return,0.9656,,73.69791667,0,7,7,18,1,FBP-YG-17.png,0.43,1.2,19,0.25,,,,,,,,,,,,,,,,,,,,,,,,,,,,,,,,,,,,,,,,,,,,,
,,,,,SPR24_015,21,Female,2024-04-08_15h00.32.205,jersey_experiment_5_v0,2023.2.2,Win32,84.74576271,,,,,,,,,,,,,,,,103.7272,105.0211,105.0211,107.6446,return,1.1588,,23.4375,0,8,8,35,1,FBP-RB-18.png,0.35,1.2,36,0.5,,,,,,,,,,,,,,,,,,,,,,,,,,,,,,,,,,,,,,,,,,,,,
,,,,,SPR24_015,21,Female,2024-04-08_15h00.32.205,jersey_experiment_5_v0,2023.2.2,Win32,84.74576271,,,,,,,,,,,,,,,,107.6448,108.6916,108.6916,112.3155,return,0.9702,,68.22916667,0,9,9,23,1,FBP-YG-18.png,0.43,1.2,24,0.25,,,,,,,,,,,,,,,,,,,,,,,,,,,,,,,,,,,,,,,,,,,,,
,,,,,SPR24_015,21,Female,2024-04-08_15h00.32.205,jersey_experiment_5_v0,2023.2.2,Win32,84.74576271,,,,,,,,,,,,,,,,112.3157,113.3624,113.3624,115.5979,return,0.8043,,95.96354167,0,10,10,48,1,FBP-PT-17.png,0.43,1.2,49,0.25,,,,,,,,,,,,,,,,,,,,,,,,,,,,,,,,,,,,,,,,,,,,,
,,,,,SPR24_015,21,Female,2024-04-08_15h00.32.205,jersey_experiment_5_v0,2023.2.2,Win32,84.74576271,,,,,,,,,,,,,,,,115.5981,116.8919,116.892,123.3276,return,2.0854,,69.27083333,0,11,11,43,1,FBP-RB-19.png,0.43,1.2,44,0.5,,,,,,,,,,,,,,,,,,,,,,,,,,,,,,,,,,,,,,,,,,,,,
,,,,,SPR24_015,21,Female,2024-04-08_15h00.32.205,jersey_experiment_5_v0,2023.2.2,Win32,84.74576271,,,,,,,,,,,,,,,,123.3322,124.6334,124.6334,127.8218,return,1.9315,,83.984375,0,12,12,13,1,FBP-OG-91.png,0.43,1.2,14,0.5,,,,,,,,,,,,,,,,,,,,,,,,,,,,,,,,,,,,,,,,,,,,,
,,,,,SPR24_015,21,Female,2024-04-08_15h00.32.205,jersey_experiment_5_v0,2023.2.2,Win32,84.74576271,,,,,,,,,,,,,,,,127.822,129.116,129.116,130.9396,return,0.6278,,96.74479167,0,13,13,14,1,FBP-OG-91.png,0.45,1.2,15,0.5,,,,,,,,,,,,,,,,,,,,,,,,,,,,,,,,,,,,,,,,,,,,,
,,,,,SPR24_015,21,Female,2024-04-08_15h00.32.205,jersey_experiment_5_v0,2023.2.2,Win32,84.74576271,,,,,,,,,,,,,,,,130.9398,132.2337,132.2337,135.3398,return,0.7696,,25.26041667,0,14,14,5,1,FBP-OG-81.png,0.35,1.2,6,0.5,,,,,,,,,,,,,,,,,,,,,,,,,,,,,,,,,,,,,,,,,,,,,
,,,,,SPR24_015,21,Female,2024-04-08_15h00.32.205,jersey_experiment_5_v0,2023.2.2,Win32,84.74576271,,,,,,,,,,,,,,,,135.3399,136.3869,136.387,139.4694,return,0.6522,,36.19791667,0,15,15,46,1,FBP-PT-17.png,0.37,1.2,47,0.25,,,,,,,,,,,,,,,,,,,,,,,,,,,,,,,,,,,,,,,,,,,,,
,,,,,SPR24_015,21,Female,2024-04-08_15h00.32.205,jersey_experiment_5_v0,2023.2.2,Win32,84.74576271,,,,,,,,,,,,,,,,139.4697,140.7637,140.7637,142.5753,return,0.721,,28.515625,0,16,16,11,1,FBP-OG-91.png,0.37,1.2,12,0.5,,,,,,,,,,,,,,,,,,,,,,,,,,,,,,,,,,,,,,,,,,,,,
,,,,,SPR24_015,21,Female,2024-04-08_15h00.32.205,jersey_experiment_5_v0,2023.2.2,Win32,84.74576271,,,,,,,,,,,,,,,,142.5755,143.6225,143.6225,145.7874,return,1.4428,,22.13541667,0,17,17,45,1,FBP-PT-17.png,0.35,1.2,46,0.25,,,,,,,,,,,,,,,,,,,,,,,,,,,,,,,,,,,,,,,,,,,,,
,,,,,SPR24_015,21,Female,2024-04-08_15h00.32.205,jersey_experiment_5_v0,2023.2.2,Win32,84.74576271,,,,,,,,,,,,,,,,145.7875,147.0813,147.0813,149.0579,return,0.6594,,4.036458333,0,18,18,40,1,FBP-RB-19.png,0.35,1.2,41,0.5,,,,,,,,,,,,,,,,,,,,,,,,,,,,,,,,,,,,,,,,,,,,,
,,,,,SPR24_015,21,Female,2024-04-08_15h00.32.205,jersey_experiment_5_v0,2023.2.2,Win32,84.74576271,,,,,,,,,,,,,,,,149.0581,150.352,150.3521,153.4227,return,0.6507,,92.1875,0,19,19,44,1,FBP-RB-19.png,0.45,1.2,45,0.5,,,,,,,,,,,,,,,,,,,,,,,,,,,,,,,,,,,,,,,,,,,,,
,,,,,SPR24_015,21,Female,2024-04-08_15h00.32.205,jersey_experiment_5_v0,2023.2.2,Win32,84.74576271,,,,,,,,,,,,,,,,153.4231,154.717,154.717,156.0934,return,0.7681,,92.31770833,0,20,20,33,1,FBP-RB-17.png,0.43,1.2,34,0.5,,,,,,,,,,,,,,,,,,,,,,,,,,,,,,,,,,,,,,,,,,,,,
,,,,,SPR24_015,21,Female,2024-04-08_15h00.32.205,jersey_experiment_5_v0,2023.2.2,Win32,84.74576271,,,,,,,,,,,,,,,,156.0936,157.1405,157.1405,160.2819,return,0.7382,,42.05729167,0,21,21,21,1,FBP-YG-18.png,0.37,1.2,22,0.25,,,,,,,,,,,,,,,,,,,,,,,,,,,,,,,,,,,,,,,,,,,,,
,,,,,SPR24_015,21,Female,2024-04-08_15h00.32.205,jersey_experiment_5_v0,2023.2.2,Win32,84.74576271,,,,,,,,,,,,,,,,160.282,161.576,161.576,163.682,return,0.6961,,61.97916667,0,22,22,7,1,FBP-OG-81.png,0.4,1.2,8,0.5,,,,,,,,,,,,,,,,,,,,,,,,,,,,,,,,,,,,,,,,,,,,,
,,,,,SPR24_015,21,Female,2024-04-08_15h00.32.205,jersey_experiment_5_v0,2023.2.2,Win32,84.74576271,,,,,,,,,,,,,,,,163.6822,164.9762,164.9762,169.5527,return,1.0369,,90.88541667,0,23,23,34,1,FBP-RB-17.png,0.45,1.2,35,0.5,,,,,,,,,,,,,,,,,,,,,,,,,,,,,,,,,,,,,,,,,,,,,
,,,,,SPR24_015,21,Female,2024-04-08_15h00.32.205,jersey_experiment_5_v0,2023.2.2,Win32,84.74576271,,,,,,,,,,,,,,,,169.553,170.8469,170.8469,173.4588,return,0.6217,,51.5625,0,24,24,2,1,FBP-OG-71.png,0.4,1.2,3,0.5,,,,,,,,,,,,,,,,,,,,,,,,,,,,,,,,,,,,,,,,,,,,,
,,,,,SPR24_015,21,Female,2024-04-08_15h00.32.205,jersey_experiment_5_v0,2023.2.2,Win32,84.74576271,,,,,,,,,,,,,,,,173.4591,174.506,174.5061,177.1531,return,0.5657,,67.83854167,0,25,25,47,1,FBP-PT-17.png,0.4,1.2,48,0.25,,,,,,,,,,,,,,,,,,,,,,,,,,,,,,,,,,,,,,,,,,,,,
,,,,,SPR24_015,21,Female,2024-04-08_15h00.32.205,jersey_experiment_5_v0,2023.2.2,Win32,84.74576271,,,,,,,,,,,,,,,,177.1533,178.2003,178.2003,180.4002,return,0.5525,,90.88541667,0,26,26,24,1,FBP-YG-18.png,0.45,1.2,25,0.25,,,,,,,,,,,,,,,,,,,,,,,,,,,,,,,,,,,,,,,,,,,,,
,,,,,SPR24_015,21,Female,2024-04-08_15h00.32.205,jersey_experiment_5_v0,2023.2.2,Win32,84.74576271,,,,,,,,,,,,,,,,180.4004,181.6945,181.6945,183.7066,return,0.6551,,14.58333333,0,27,27,30,1,FBP-RB-17.png,0.35,1.2,31,0.5,,,,,,,,,,,,,,,,,,,,,,,,,,,,,,,,,,,,,,,,,,,,,
,,,,,SPR24_015,21,Female,2024-04-08_15h00.32.205,jersey_experiment_5_v0,2023.2.2,Win32,84.74576271,,,,,,,,,,,,,,,,183.7067,185.0005,185.0005,188.4006,return,0.8961,,99.86979167,0,28,28,39,1,FBP-RB-18.png,0.45,1.2,40,0.5,,,,,,,,,,,,,,,,,,,,,,,,,,,,,,,,,,,,,,,,,,,,,
,,,,,SPR24_015,21,Female,2024-04-08_15h00.32.205,jersey_experiment_5_v0,2023.2.2,Win32,84.74576271,,,,,,,,,,,,,,,,188.4008,189.6947,189.6947,192.2713,return,0.6831,,11.97916667,0,29,29,41,1,FBP-RB-19.png,0.37,1.2,42,0.5,,,,,,,,,,,,,,,,,,,,,,,,,,,,,,,,,,,,,,,,,,,,,
,,,,,SPR24_015,21,Female,2024-04-08_15h00.32.205,jersey_experiment_5_v0,2023.2.2,Win32,84.74576271,,,,,,,,,,,,,,,,192.2716,193.3183,193.3183,195.7302,return,0.7062,,98.046875,0,30,30,58,1,FBP-PT-19.png,0.43,1.2,59,0.25,,,,,,,,,,,,,,,,,,,,,,,,,,,,,,,,,,,,,,,,,,,,,
,,,,,SPR24_015,21,Female,2024-04-08_15h00.32.205,jersey_experiment_5_v0,2023.2.2,Win32,84.74576271,,,,,,,,,,,,,,,,195.7303,196.7774,196.7774,198.5775,return,0.6732,,98.046875,0,31,31,29,1,FBP-YG-19.png,0.45,1.2,30,0.25,,,,,,,,,,,,,,,,,,,,,,,,,,,,,,,,,,,,,,,,,,,,,
,,,,,SPR24_015,21,Female,2024-04-08_15h00.32.205,jersey_experiment_5_v0,2023.2.2,Win32,84.74576271,,,,,,,,,,,,,,,,198.5777,199.6246,199.6246,201.7423,return,0.5783,,87.23958333,0,32,32,19,1,FBP-YG-17.png,0.45,1.2,20,0.25,,,,,,,,,,,,,,,,,,,,,,,,,,,,,,,,,,,,,,,,,,,,,
,,,,,SPR24_015,21,Female,2024-04-08_15h00.32.205,jersey_experiment_5_v0,2023.2.2,Win32,84.74576271,,,,,,,,,,,,,,,,201.7424,202.7894,202.7895,205.66,return,0.677,,25.52083333,0,33,33,26,1,FBP-YG-19.png,0.37,1.2,27,0.25,,,,,,,,,,,,,,,,,,,,,,,,,,,,,,,,,,,,,,,,,,,,,
,,,,,SPR24_015,21,Female,2024-04-08_15h00.32.205,jersey_experiment_5_v0,2023.2.2,Win32,84.74576271,,,,,,,,,,,,,,,,205.6602,206.7072,206.7072,208.8838,return,0.6271,,27.21354167,0,34,34,55,1,FBP-PT-19.png,0.35,1.2,56,0.25,,,,,,,,,,,,,,,,,,,,,,,,,,,,,,,,,,,,,,,,,,,,,
,,,,,SPR24_015,21,Female,2024-04-08_15h00.32.205,jersey_experiment_5_v0,2023.2.2,Win32,84.74576271,,,,,,,,,,,,,,,,208.884,210.1779,210.1779,211.9545,return,0.6122,,4.166666667,0,35,35,10,1,FBP-OG-91.png,0.35,1.2,11,0.5,,,,,,,,,,,,,,,,,,,,,,,,,,,,,,,,,,,,,,,,,,,,,
,,,,,SPR24_015,21,Female,2024-04-08_15h00.32.205,jersey_experiment_5_v0,2023.2.2,Win32,84.74576271,,,,,,,,,,,,,,,,211.9547,213.2485,213.2486,214.4135,return,0.6051,,7.552083333,0,36,36,36,1,FBP-RB-18.png,0.37,1.2,37,0.5,,,,,,,,,,,,,,,,,,,,,,,,,,,,,,,,,,,,,,,,,,,,,
,,,,,SPR24_015,21,Female,2024-04-08_15h00.32.205,jersey_experiment_5_v0,2023.2.2,Win32,84.74576271,,,,,,,,,,,,,,,,214.4136,215.4604,215.4604,219.4252,return,0.6586,,76.171875,0,37,37,52,1,FBP-PT-18.png,0.4,1.2,53,0.25,,,,,,,,,,,,,,,,,,,,,,,,,,,,,,,,,,,,,,,,,,,,,
,,,,,SPR24_015,21,Female,2024-04-08_15h00.32.205,jersey_experiment_5_v0,2023.2.2,Win32,84.74576271,,,,,,,,,,,,,,,,219.4254,220.4724,220.4724,222.6373,return,0.7817,,98.828125,0,38,38,59,1,FBP-PT-19.png,0.45,1.2,60,0.25,,,,,,,,,,,,,,,,,,,,,,,,,,,,,,,,,,,,,,,,,,,,,
,,,,,SPR24_015,21,Female,2024-04-08_15h00.32.205,jersey_experiment_5_v0,2023.2.2,Win32,84.74576271,,,,,,,,,,,,,,,,222.6374,223.9314,223.9314,229.2023,return,0.5742,,66.40625,0,39,39,31,1,FBP-RB-17.png,0.37,1.2,32,0.5,,,,,,,,,,,,,,,,,,,,,,,,,,,,,,,,,,,,,,,,,,,,,
,,,,,SPR24_015,21,Female,2024-04-08_15h00.32.205,jersey_experiment_5_v0,2023.2.2,Win32,84.74576271,,,,,,,,,,,,,,,,229.2025,230.4962,230.4963,231.967,return,0.6508,,75.390625,0,40,40,42,1,FBP-RB-19.png,0.4,1.2,43,0.5,,,,,,,,,,,,,,,,,,,,,,,,,,,,,,,,,,,,,,,,,,,,,
,,,,,SPR24_015,21,Female,2024-04-08_15h00.32.205,jersey_experiment_5_v0,2023.2.2,Win32,84.74576271,,,,,,,,,,,,,,,,231.9673,233.014,233.014,236.0142,return,0.6133,,75.52083333,0,41,41,57,1,FBP-PT-19.png,0.4,1.2,58,0.25,,,,,,,,,,,,,,,,,,,,,,,,,,,,,,,,,,,,,,,,,,,,,
,,,,,SPR24_015,21,Female,2024-04-08_15h00.32.205,jersey_experiment_5_v0,2023.2.2,Win32,84.74576271,,,,,,,,,,,,,,,,236.0143,237.0611,237.0611,239.1673,return,0.5796,,17.70833333,0,42,42,20,1,FBP-YG-18.png,0.35,1.2,21,0.25,,,,,,,,,,,,,,,,,,,,,,,,,,,,,,,,,,,,,,,,,,,,,
,,,,,SPR24_015,21,Female,2024-04-08_15h00.32.205,jersey_experiment_5_v0,2023.2.2,Win32,84.74576271,,,,,,,,,,,,,,,,239.1675,240.4614,240.4614,244.5557,return,0.7338,,99.47916667,0,43,43,4,1,FBP-OG-71.png,0.45,1.2,5,0.5,,,,,,,,,,,,,,,,,,,,,,,,,,,,,,,,,,,,,,,,,,,,,
,,,,,SPR24_015,21,Female,2024-04-08_15h00.32.205,jersey_experiment_5_v0,2023.2.2,Win32,84.74576271,,,,,,,,,,,,,,,,244.5558,245.8498,245.8498,248.5324,return,0.6506,,87.5,0,44,44,8,1,FBP-OG-81.png,0.43,1.2,9,0.5,,,,,,,,,,,,,,,,,,,,,,,,,,,,,,,,,,,,,,,,,,,,,
,,,,,SPR24_015,21,Female,2024-04-08_15h00.32.205,jersey_experiment_5_v0,2023.2.2,Win32,84.74576271,,,,,,,,,,,,,,,,248.5326,249.5794,249.5794,253.6736,return,0.6536,,31.77083333,0,45,45,25,1,FBP-YG-19.png,0.35,1.2,26,0.25,,,,,,,,,,,,,,,,,,,,,,,,,,,,,,,,,,,,,,,,,,,,,
,,,,,SPR24_015,21,Female,2024-04-08_15h00.32.205,jersey_experiment_5_v0,2023.2.2,Win32,84.74576271,,,,,,,,,,,,,,,,253.6739,254.9678,254.9678,257.8268,return,0.7068,,97.13541667,0,46,46,38,1,FBP-RB-18.png,0.43,1.2,39,0.5,,,,,,,,,,,,,,,,,,,,,,,,,,,,,,,,,,,,,,,,,,,,,
,,,,,SPR24_015,21,Female,2024-04-08_15h00.32.205,jersey_experiment_5_v0,2023.2.2,Win32,84.74576271,,,,,,,,,,,,,,,,257.827,258.8738,258.8738,262.2035,return,0.664,,71.61458333,0,47,47,22,1,FBP-YG-18.png,0.4,1.2,23,0.25,,,,,,,,,,,,,,,,,,,,,,,,,,,,,,,,,,,,,,,,,,,,,
,,,,,SPR24_015,21,Female,2024-04-08_15h00.32.205,jersey_experiment_5_v0,2023.2.2,Win32,84.74576271,,,,,,,,,,,,,,,,262.2038,263.4976,263.4977,265.8978,return,0.7124,,52.99479167,0,48,48,32,1,FBP-RB-17.png,0.4,1.2,33,0.5,,,,,,,,,,,,,,,,,,,,,,,,,,,,,,,,,,,,,,,,,,,,,
,,,,,SPR24_015,21,Female,2024-04-08_15h00.32.205,jersey_experiment_5_v0,2023.2.2,Win32,84.74576271,,,,,,,,,,,,,,,,265.8979,266.9447,266.9448,269.5213,return,0.5889,,52.99479167,0,49,49,27,1,FBP-YG-19.png,0.4,1.2,28,0.25,,,,,,,,,,,,,,,,,,,,,,,,,,,,,,,,,,,,,,,,,,,,,
,,,,,SPR24_015,21,Female,2024-04-08_15h00.32.205,jersey_experiment_5_v0,2023.2.2,Win32,84.74576271,,,,,,,,,,,,,,,,269.5214,270.8156,270.8156,277.251,return,3.9292,,62.890625,0,50,50,6,1,FBP-OG-81.png,0.37,1.2,7,0.5,,,,,,,,,,,,,,,,,,,,,,,,,,,,,,,,,,,,,,,,,,,,,
,,,,,SPR24_015,21,Female,2024-04-08_15h00.32.205,jersey_experiment_5_v0,2023.2.2,Win32,84.74576271,,,,,,,,,,,,,,,,277.2512,278.2981,278.2981,281.1805,return,0.674,,25,0,51,51,15,1,FBP-YG-17.png,0.35,1.2,16,0.25,,,,,,,,,,,,,,,,,,,,,,,,,,,,,,,,,,,,,,,,,,,,,
,,,,,SPR24_015,21,Female,2024-04-08_15h00.32.205,jersey_experiment_5_v0,2023.2.2,Win32,84.74576271,,,,,,,,,,,,,,,,281.1808,282.2276,282.2276,284.2514,return,0.7013,,25,0,52,52,16,1,FBP-YG-17.png,0.37,1.2,17,0.25,,,,,,,,,,,,,,,,,,,,,,,,,,,,,,,,,,,,,,,,,,,,,
,,,,,SPR24_015,21,Female,2024-04-08_15h00.32.205,jersey_experiment_5_v0,2023.2.2,Win32,84.74576271,,,,,,,,,,,,,,,,284.2516,285.5454,285.5454,287.8516,return,0.6641,,0.260416667,0,53,53,0,1,FBP-OG-71.png,0.35,1.2,1,0.5,,,,,,,,,,,,,,,,,,,,,,,,,,,,,,,,,,,,,,,,,,,,,
,,,,,SPR24_015,21,Female,2024-04-08_15h00.32.205,jersey_experiment_5_v0,2023.2.2,Win32,84.74576271,,,,,,,,,,,,,,,,287.8517,288.8985,288.8986,292.1575,return,0.6993,,71.61458333,0,54,54,53,1,FBP-PT-18.png,0.43,1.2,54,0.25,,,,,,,,,,,,,,,,,,,,,,,,,,,,,,,,,,,,,,,,,,,,,
,,,,,SPR24_015,21,Female,2024-04-08_15h00.32.205,jersey_experiment_5_v0,2023.2.2,Win32,84.74576271,,,,,,,,,,,,,,,,292.1577,293.4518,293.4518,297.6518,return,0.5981,,63.54166667,0,55,55,12,1,FBP-OG-91.png,0.4,1.2,13,0.5,,,,,,,,,,,,,,,,,,,,,,,,,,,,,,,,,,,,,,,,,,,,,
,,,,,SPR24_015,21,Female,2024-04-08_15h00.32.205,jersey_experiment_5_v0,2023.2.2,Win32,84.74576271,,,,,,,,,,,,,,,,297.652,298.6989,298.699,301.1813,return,0.6172,,91.796875,0,56,56,54,1,FBP-PT-18.png,0.45,1.2,55,0.25,,,,,,,,,,,,,,,,,,,,,,,,,,,,,,,,,,,,,,,,,,,,,
,,,,,SPR24_015,21,Female,2024-04-08_15h00.32.205,jersey_experiment_5_v0,2023.2.2,Win32,84.74576271,,,,,,,,,,,,,,,,301.1815,302.2285,302.2285,304.7932,return,0.6092,,65.625,0,57,57,17,1,FBP-YG-17.png,0.4,1.2,18,0.25,,,,,,,,,,,,,,,,,,,,,,,,,,,,,,,,,,,,,,,,,,,,,
,,,,,SPR24_015,21,Female,2024-04-08_15h00.32.205,jersey_experiment_5_v0,2023.2.2,Win32,84.74576271,,,,,,,,,,,,,,,,304.7935,305.8402,305.8402,308.37,return,0.6734,,48.828125,0,58,58,50,1,FBP-PT-18.png,0.35,1.2,51,0.25,,,,,,,,,,,,,,,,,,,,,,,,,,,,,,,,,,,,,,,,,,,,,
,,,,,SPR24_015,21,Female,2024-04-08_15h00.32.205,jersey_experiment_5_v0,2023.2.2,Win32,84.74576271,,,,,,,,,,,,,,,,308.3702,309.4169,309.4169,311.7935,return,0.6595,,60.9375,0,59,59,56,1,FBP-PT-19.png,0.37,1.2,57,0.25,,,,,,,,,,,,,,,,,,,,,,,,,,,,,,,,,,,,,,,,,,,,,
,,,,,SPR24_015,21,Female,2024-04-08_15h00.32.205,jersey_experiment_5_v0,2023.2.2,Win32,84.74576271,,,,,,,,,,,,,,,,311.7955,313.0877,313.0877,315.4996,return,0.617,,24.86979167,,,,,,FBP-RB-91.png,0.35,1.2,41,0.5,0,0,0,40,1,,,,,,,,,,,,,,,,,,,,,,,,,,,,,,,,,,,,,,,,
,,,,,SPR24_015,21,Female,2024-04-08_15h00.32.205,jersey_experiment_5_v0,2023.2.2,Win32,84.74576271,,,,,,,,,,,,,,,,315.5,316.5467,316.5467,319.4172,return,0.7153,,60.9375,,,,,,FBP-PT-91.png,0.4,1.2,58,0.25,0,1,1,57,1,,,,,,,,,,,,,,,,,,,,,,,,,,,,,,,,,,,,,,,,
,,,,,SPR24_015,21,Female,2024-04-08_15h00.32.205,jersey_experiment_5_v0,2023.2.2,Win32,84.74576271,,,,,,,,,,,,,,,,319.4174,320.7116,320.7116,322.6529,return,0.6626,,98.17708333,,,,,,FBP-RB-91.png,0.45,1.2,45,0.5,0,2,2,44,1,,,,,,,,,,,,,,,,,,,,,,,,,,,,,,,,,,,,,,,,
,,,,,SPR24_015,21,Female,2024-04-08_15h00.32.205,jersey_experiment_5_v0,2023.2.2,Win32,84.74576271,,,,,,,,,,,,,,,,322.6531,323.9468,323.9468,326.6763,return,0.8472,,49.34895833,,,,,,FBP-OG-17.png,0.35,1.2,1,0.5,0,3,3,0,1,,,,,,,,,,,,,,,,,,,,,,,,,,,,,,,,,,,,,,,,
,,,,,SPR24_015,21,Female,2024-04-08_15h00.32.205,jersey_experiment_5_v0,2023.2.2,Win32,84.74576271,,,,,,,,,,,,,,,,326.6766,327.9705,327.9705,331.7709,return,0.6523,,45.703125,,,,,,FBP-RB-71.png,0.4,1.2,33,0.5,0,4,4,32,1,,,,,,,,,,,,,,,,,,,,,,,,,,,,,,,,,,,,,,,,
,,,,,SPR24_015,21,Female,2024-04-08_15h00.32.205,jersey_experiment_5_v0,2023.2.2,Win32,84.74576271,,,,,,,,,,,,,,,,331.771,332.8178,332.8179,335.0061,return,0.5668,,25.390625,,,,,,FBP-YG-81.png,0.35,1.2,21,0.25,0,5,5,20,1,,,,,,,,,,,,,,,,,,,,,,,,,,,,,,,,,,,,,,,,
,,,,,SPR24_015,21,Female,2024-04-08_15h00.32.205,jersey_experiment_5_v0,2023.2.2,Win32,84.74576271,,,,,,,,,,,,,,,,335.0064,336.3004,336.3004,338.7828,return,0.6248,,85.67708333,,,,,,FBP-OG-18.png,0.43,1.2,9,0.5,0,6,6,8,1,,,,,,,,,,,,,,,,,,,,,,,,,,,,,,,,,,,,,,,,
,,,,,SPR24_015,21,Female,2024-04-08_15h00.32.205,jersey_experiment_5_v0,2023.2.2,Win32,84.74576271,,,,,,,,,,,,,,,,338.7829,340.0769,340.0769,344.2183,return,0.6201,,51.43229167,,,,,,FBP-OG-19.png,0.4,1.2,13,0.5,0,7,7,12,1,,,,,,,,,,,,,,,,,,,,,,,,,,,,,,,,,,,,,,,,
,,,,,SPR24_015,21,Female,2024-04-08_15h00.32.205,jersey_experiment_5_v0,2023.2.2,Win32,84.74576271,,,,,,,,,,,,,,,,344.2185,345.5123,345.5124,349.4539,return,1.3343,,61.71875,,,,,,FBP-RB-81.png,0.4,1.2,38,0.5,0,8,8,37,1,,,,,,,,,,,,,,,,,,,,,,,,,,,,,,,,,,,,,,,,
,,,,,SPR24_015,21,Female,2024-04-08_15h00.32.205,jersey_experiment_5_v0,2023.2.2,Win32,84.74576271,,,,,,,,,,,,,,,,349.4541,350.748,350.748,353.3245,return,1.0741,,61.84895833,,,,,,FBP-OG-18.png,0.4,1.2,8,0.5,0,9,9,7,1,,,,,,,,,,,,,,,,,,,,,,,,,,,,,,,,,,,,,,,,
,,,,,SPR24_015,21,Female,2024-04-08_15h00.32.205,jersey_experiment_5_v0,2023.2.2,Win32,84.74576271,,,,,,,,,,,,,,,,353.3248,354.3715,354.3715,356.2187,return,0.6764,,97.65625,,,,,,FBP-PT-91.png,0.43,1.2,59,0.25,0,10,10,58,1,,,,,,,,,,,,,,,,,,,,,,,,,,,,,,,,,,,,,,,,
,,,,,SPR24_015,21,Female,2024-04-08_15h00.32.205,jersey_experiment_5_v0,2023.2.2,Win32,84.74576271,,,,,,,,,,,,,,,,356.2189,357.2659,357.2659,359.3485,return,0.659,,57.03125,,,,,,FBP-YG-91.png,0.37,1.2,27,0.25,0,11,11,26,1,,,,,,,,,,,,,,,,,,,,,,,,,,,,,,,,,,,,,,,,
,,,,,SPR24_015,21,Female,2024-04-08_15h00.32.205,jersey_experiment_5_v0,2023.2.2,Win32,84.74576271,,,,,,,,,,,,,,,,359.3487,360.6424,360.6424,362.513,return,0.6501,,96.09375,,,,,,FBP-OG-19.png,0.43,1.2,14,0.5,0,12,12,13,1,,,,,,,,,,,,,,,,,,,,,,,,,,,,,,,,,,,,,,,,
,,,,,SPR24_015,21,Female,2024-04-08_15h00.32.205,jersey_experiment_5_v0,2023.2.2,Win32,84.74576271,,,,,,,,,,,,,,,,362.5132,363.8073,363.8074,365.9368,return,0.6464,,33.203125,,,,,,FBP-RB-91.png,0.37,1.2,42,0.5,0,13,13,41,1,,,,,,,,,,,,,,,,,,,,,,,,,,,,,,,,,,,,,,,,
,,,,,SPR24_015,21,Female,2024-04-08_15h00.32.205,jersey_experiment_5_v0,2023.2.2,Win32,84.74576271,,,,,,,,,,,,,,,,365.9369,366.9838,366.9838,369.3958,return,0.5984,,99.609375,,,,,,FBP-YG-91.png,0.45,1.2,30,0.25,0,14,14,29,1,,,,,,,,,,,,,,,,,,,,,,,,,,,,,,,,,,,,,,,,
,,,,,SPR24_015,21,Female,2024-04-08_15h00.32.205,jersey_experiment_5_v0,2023.2.2,Win32,84.74576271,,,,,,,,,,,,,,,,369.3959,370.6897,370.6898,373.1723,return,0.5885,,58.07291667,,,,,,FBP-OG-17.png,0.4,1.2,3,0.5,0,15,15,2,1,,,,,,,,,,,,,,,,,,,,,,,,,,,,,,,,,,,,,,,,
,,,,,SPR24_015,21,Female,2024-04-08_15h00.32.205,jersey_experiment_5_v0,2023.2.2,Win32,84.74576271,,,,,,,,,,,,,,,,373.1726,374.2194,374.2195,376.1959,return,0.6208,,42.96875,,,,,,FBP-PT-91.png,0.37,1.2,57,0.25,0,16,16,56,1,,,,,,,,,,,,,,,,,,,,,,,,,,,,,,,,,,,,,,,,
,,,,,SPR24_015,21,Female,2024-04-08_15h00.32.205,jersey_experiment_5_v0,2023.2.2,Win32,84.74576271,,,,,,,,,,,,,,,,376.1961,377.4901,377.4902,379.1372,return,0.5898,,81.25,,,,,,FBP-RB-71.png,0.43,1.2,34,0.5,0,17,17,33,1,,,,,,,,,,,,,,,,,,,,,,,,,,,,,,,,,,,,,,,,
,,,,,SPR24_015,21,Female,2024-04-08_15h00.32.205,jersey_experiment_5_v0,2023.2.2,Win32,84.74576271,,,,,,,,,,,,,,,,379.1375,380.4313,380.4315,383.1963,return,0.9216,,63.02083333,,,,,,FBP-RB-91.png,0.4,1.2,43,0.5,0,18,18,42,1,,,,,,,,,,,,,,,,,,,,,,,,,,,,,,,,,,,,,,,,
,,,,,SPR24_015,21,Female,2024-04-08_15h00.32.205,jersey_experiment_5_v0,2023.2.2,Win32,84.74576271,,,,,,,,,,,,,,,,383.1966,384.2432,384.2433,385.9375,return,0.5893,,94.140625,,,,,,FBP-PT-71.png,0.43,1.2,49,0.25,0,19,19,48,1,,,,,,,,,,,,,,,,,,,,,,,,,,,,,,,,,,,,,,,,
,,,,,SPR24_015,21,Female,2024-04-08_15h00.32.205,jersey_experiment_5_v0,2023.2.2,Win32,84.74576271,,,,,,,,,,,,,,,,385.9378,386.9846,386.9847,390.0906,return,1.7138,,54.94791667,,,,,,FBP-YG-91.png,0.35,1.2,26,0.25,0,20,20,25,1,,,,,,,,,,,,,,,,,,,,,,,,,,,,,,,,,,,,,,,,
,,,,,SPR24_015,21,Female,2024-04-08_15h00.32.205,jersey_experiment_5_v0,2023.2.2,Win32,84.74576271,,,,,,,,,,,,,,,,390.0908,391.1376,391.1377,392.9731,return,0.556,,50.13020833,,,,,,FBP-PT-71.png,0.37,1.2,47,0.25,0,21,21,46,1,,,,,,,,,,,,,,,,,,,,,,,,,,,,,,,,,,,,,,,,
,,,,,SPR24_015,21,Female,2024-04-08_15h00.32.205,jersey_experiment_5_v0,2023.2.2,Win32,84.74576271,,,,,,,,,,,,,,,,392.9732,394.0202,394.0202,395.9143,return,0.5491,,98.95833333,,,,,,FBP-PT-71.png,0.45,1.2,50,0.25,0,22,22,49,1,,,,,,,,,,,,,,,,,,,,,,,,,,,,,,,,,,,,,,,,
,,,,,SPR24_015,21,Female,2024-04-08_15h00.32.205,jersey_experiment_5_v0,2023.2.2,Win32,84.74576271,,,,,,,,,,,,,,,,395.9145,396.9615,396.9615,402.0206,return,2.3431,,54.03645833,,,,,,FBP-PT-71.png,0.35,1.2,46,0.25,0,23,23,45,1,,,,,,,,,,,,,,,,,,,,,,,,,,,,,,,,,,,,,,,,
,,,,,SPR24_015,21,Female,2024-04-08_15h00.32.205,jersey_experiment_5_v0,2023.2.2,Win32,84.74576271,,,,,,,,,,,,,,,,402.0209,403.0674,403.0674,405.1381,return,0.6352,,86.97916667,,,,,,FBP-YG-81.png,0.43,1.2,24,0.25,0,24,24,23,1,,,,,,,,,,,,,,,,,,,,,,,,,,,,,,,,,,,,,,,,
,,,,,SPR24_015,21,Female,2024-04-08_15h00.32.205,jersey_experiment_5_v0,2023.2.2,Win32,84.74576271,,,,,,,,,,,,,,,,405.1384,406.1854,406.1854,407.5971,return,0.5108,,99.08854167,,,,,,FBP-PT-81.png,0.45,1.2,55,0.25,0,25,25,54,1,,,,,,,,,,,,,,,,,,,,,,,,,,,,,,,,,,,,,,,,
,,,,,SPR24_015,21,Female,2024-04-08_15h00.32.205,jersey_experiment_5_v0,2023.2.2,Win32,84.74576271,,,,,,,,,,,,,,,,407.5975,408.8913,408.8913,410.8795,return,0.5768,,4.557291667,,,,,,FBP-OG-19.png,0.35,1.2,11,0.5,0,26,26,10,1,,,,,,,,,,,,,,,,,,,,,,,,,,,,,,,,,,,,,,,,
,,,,,SPR24_015,21,Female,2024-04-08_15h00.32.205,jersey_experiment_5_v0,2023.2.2,Win32,84.74576271,,,,,,,,,,,,,,,,410.8798,412.1737,412.1737,418.6564,return,1.8969,,67.05729167,,,,,,FBP-RB-81.png,0.43,1.2,39,0.5,0,27,27,38,1,,,,,,,,,,,,,,,,,,,,,,,,,,,,,,,,,,,,,,,,
,,,,,SPR24_015,21,Female,2024-04-08_15h00.32.205,jersey_experiment_5_v0,2023.2.2,Win32,84.74576271,,,,,,,,,,,,,,,,418.6568,419.9505,419.9505,422.08,return,0.685,,0.260416667,,,,,,FBP-OG-18.png,0.35,1.2,6,0.5,0,28,28,5,1,,,,,,,,,,,,,,,,,,,,,,,,,,,,,,,,,,,,,,,,
,,,,,SPR24_015,21,Female,2024-04-08_15h00.32.205,jersey_experiment_5_v0,2023.2.2,Win32,84.74576271,,,,,,,,,,,,,,,,422.0802,423.3741,423.3742,426.4802,return,0.6465,,80.98958333,,,,,,FBP-OG-18.png,0.45,1.2,10,0.5,0,29,29,9,1,,,,,,,,,,,,,,,,,,,,,,,,,,,,,,,,,,,,,,,,
,,,,,SPR24_015,21,Female,2024-04-08_15h00.32.205,jersey_experiment_5_v0,2023.2.2,Win32,84.74576271,,,,,,,,,,,,,,,,426.4803,427.5273,427.5273,429.551,return,0.6355,,10.15625,,,,,,FBP-YG-71.png,0.37,1.2,17,0.25,0,30,30,16,1,,,,,,,,,,,,,,,,,,,,,,,,,,,,,,,,,,,,,,,,
,,,,,SPR24_015,21,Female,2024-04-08_15h00.32.205,jersey_experiment_5_v0,2023.2.2,Win32,84.74576271,,,,,,,,,,,,,,,,429.5512,430.5981,430.5981,435.6806,return,2.4256,,70.703125,,,,,,FBP-PT-71.png,0.4,1.2,48,0.25,0,31,31,47,1,,,,,,,,,,,,,,,,,,,,,,,,,,,,,,,,,,,,,,,,
,,,,,SPR24_015,21,Female,2024-04-08_15h00.32.205,jersey_experiment_5_v0,2023.2.2,Win32,84.74576271,,,,,,,,,,,,,,,,435.6807,436.9748,436.9748,438.7043,return,0.5555,,95.18229167,,,,,,FBP-OG-17.png,0.45,1.2,5,0.5,0,32,32,4,1,,,,,,,,,,,,,,,,,,,,,,,,,,,,,,,,,,,,,,,,
,,,,,SPR24_015,21,Female,2024-04-08_15h00.32.205,jersey_experiment_5_v0,2023.2.2,Win32,84.74576271,,,,,,,,,,,,,,,,438.7044,439.9985,439.9985,442.4926,return,0.5916,,51.04166667,,,,,,FBP-OG-19.png,0.37,1.2,12,0.5,0,33,33,11,1,,,,,,,,,,,,,,,,,,,,,,,,,,,,,,,,,,,,,,,,
,,,,,SPR24_015,21,Female,2024-04-08_15h00.32.205,jersey_experiment_5_v0,2023.2.2,Win32,84.74576271,,,,,,,,,,,,,,,,442.4928,443.5397,443.5397,445.8692,return,0.6273,,40.234375,,,,,,FBP-YG-81.png,0.37,1.2,22,0.25,0,34,34,21,1,,,,,,,,,,,,,,,,,,,,,,,,,,,,,,,,,,,,,,,,
,,,,,SPR24_015,21,Female,2024-04-08_15h00.32.205,jersey_experiment_5_v0,2023.2.2,Win32,84.74576271,,,,,,,,,,,,,,,,445.8694,446.9162,446.9163,448.6341,return,0.5617,,34.50520833,,,,,,FBP-YG-71.png,0.35,1.2,16,0.25,0,35,35,15,1,,,,,,,,,,,,,,,,,,,,,,,,,,,,,,,,,,,,,,,,
,,,,,SPR24_015,21,Female,2024-04-08_15h00.32.205,jersey_experiment_5_v0,2023.2.2,Win32,84.74576271,,,,,,,,,,,,,,,,448.6343,449.9282,449.9282,451.4929,return,0.6216,,26.171875,,,,,,FBP-RB-81.png,0.37,1.2,37,0.5,0,36,36,36,1,,,,,,,,,,,,,,,,,,,,,,,,,,,,,,,,,,,,,,,,
,,,,,SPR24_015,21,Female,2024-04-08_15h00.32.205,jersey_experiment_5_v0,2023.2.2,Win32,84.74576271,,,,,,,,,,,,,,,,451.4932,452.54,452.54,456.705,return,2.438,,53.77604167,,,,,,FBP-YG-91.png,0.4,1.2,28,0.25,0,37,37,27,1,,,,,,,,,,,,,,,,,,,,,,,,,,,,,,,,,,,,,,,,
,,,,,SPR24_015,21,Female,2024-04-08_15h00.32.205,jersey_experiment_5_v0,2023.2.2,Win32,84.74576271,,,,,,,,,,,,,,,,456.7051,457.7519,457.7519,460.9873,return,0.6401,,53.515625,,,,,,FBP-PT-81.png,0.35,1.2,51,0.25,0,38,38,50,1,,,,,,,,,,,,,,,,,,,,,,,,,,,,,,,,,,,,,,,,
,,,,,SPR24_015,21,Female,2024-04-08_15h00.32.205,jersey_experiment_5_v0,2023.2.2,Win32,84.74576271,,,,,,,,,,,,,,,,460.9876,462.0344,462.0345,464.0111,return,0.5723,,92.44791667,,,,,,FBP-YG-71.png,0.45,1.2,20,0.25,0,39,39,19,1,,,,,,,,,,,,,,,,,,,,,,,,,,,,,,,,,,,,,,,,
,,,,,SPR24_015,21,Female,2024-04-08_15h00.32.205,jersey_experiment_5_v0,2023.2.2,Win32,84.74576271,,,,,,,,,,,,,,,,464.0112,465.3051,465.3051,470.176,return,1.2119,,43.48958333,,,,,,FBP-OG-17.png,0.37,1.2,2,0.5,0,40,40,1,1,,,,,,,,,,,,,,,,,,,,,,,,,,,,,,,,,,,,,,,,
,,,,,SPR24_015,21,Female,2024-04-08_15h00.32.205,jersey_experiment_5_v0,2023.2.2,Win32,84.74576271,,,,,,,,,,,,,,,,470.1762,471.4701,471.4702,473.1172,return,0.5793,,91.14583333,,,,,,FBP-OG-19.png,0.45,1.2,15,0.5,0,41,41,14,1,,,,,,,,,,,,,,,,,,,,,,,,,,,,,,,,,,,,,,,,
,,,,,SPR24_015,21,Female,2024-04-08_15h00.32.205,jersey_experiment_5_v0,2023.2.2,Win32,84.74576271,,,,,,,,,,,,,,,,473.1175,474.1644,474.1644,476.7528,return,0.5558,,54.42708333,,,,,,FBP-PT-81.png,0.37,1.2,52,0.25,0,42,42,51,1,,,,,,,,,,,,,,,,,,,,,,,,,,,,,,,,,,,,,,,,
,,,,,SPR24_015,21,Female,2024-04-08_15h00.32.205,jersey_experiment_5_v0,2023.2.2,Win32,84.74576271,,,,,,,,,,,,,,,,476.753,477.7997,477.7997,479.6588,return,0.5491,,40.10416667,,,,,,FBP-PT-91.png,0.35,1.2,56,0.25,0,43,43,55,1,,,,,,,,,,,,,,,,,,,,,,,,,,,,,,,,,,,,,,,,
,,,,,SPR24_015,21,Female,2024-04-08_15h00.32.205,jersey_experiment_5_v0,2023.2.2,Win32,84.74576271,,,,,,,,,,,,,,,,479.6589,480.7058,480.7058,483.7766,return,0.6703,,83.59375,,,,,,FBP-YG-71.png,0.43,1.2,19,0.25,0,44,44,18,1,,,,,,,,,,,,,,,,,,,,,,,,,,,,,,,,,,,,,,,,
,,,,,SPR24_015,21,Female,2024-04-08_15h00.32.205,jersey_experiment_5_v0,2023.2.2,Win32,84.74576271,,,,,,,,,,,,,,,,483.7768,485.0706,485.0707,488.765,return,0.5098,,49.609375,,,,,,FBP-RB-71.png,0.37,1.2,32,0.5,0,45,45,31,1,,,,,,,,,,,,,,,,,,,,,,,,,,,,,,,,,,,,,,,,
,,,,,SPR24_015,21,Female,2024-04-08_15h00.32.205,jersey_experiment_5_v0,2023.2.2,Win32,84.74576271,,,,,,,,,,,,,,,,488.7652,489.8121,489.8121,491.5181,return,0.5223,,66.14583333,,,,,,FBP-YG-71.png,0.4,1.2,18,0.25,0,46,46,17,1,,,,,,,,,,,,,,,,,,,,,,,,,,,,,,,,,,,,,,,,
,,,,,SPR24_015,21,Female,2024-04-08_15h00.32.205,jersey_experiment_5_v0,2023.2.2,Win32,84.74576271,,,,,,,,,,,,,,,,491.5182,492.5651,492.5651,494.2241,return,0.5905,,89.0625,,,,,,FBP-PT-81.png,0.4,1.2,53,0.25,0,47,47,52,1,,,,,,,,,,,,,,,,,,,,,,,,,,,,,,,,,,,,,,,,
,,,,,SPR24_015,21,Female,2024-04-08_15h00.32.205,jersey_experiment_5_v0,2023.2.2,Win32,84.74576271,,,,,,,,,,,,,,,,494.2243,495.5181,495.5181,501.1183,return,2.4751,,65.625,,,,,,FBP-RB-81.png,0.35,1.2,36,0.5,0,48,48,35,1,,,,,,,,,,,,,,,,,,,,,,,,,,,,,,,,,,,,,,,,
,,,,,SPR24_015,21,Female,2024-04-08_15h00.32.205,jersey_experiment_5_v0,2023.2.2,Win32,84.74576271,,,,,,,,,,,,,,,,501.1184,502.1655,502.1655,503.5775,return,0.5387,,86.06770833,,,,,,FBP-PT-81.png,0.43,1.2,54,0.25,0,49,49,53,1,,,,,,,,,,,,,,,,,,,,,,,,,,,,,,,,,,,,,,,,
,,,,,SPR24_015,21,Female,2024-04-08_15h00.32.205,jersey_experiment_5_v0,2023.2.2,Win32,84.74576271,,,,,,,,,,,,,,,,503.5777,504.6244,504.6244,505.7539,return,0.5359,,86.06770833,,,,,,FBP-PT-91.png,0.45,1.2,60,0.25,0,50,50,59,1,,,,,,,,,,,,,,,,,,,,,,,,,,,,,,,,,,,,,,,,
,,,,,SPR24_015,21,Female,2024-04-08_15h00.32.205,jersey_experiment_5_v0,2023.2.2,Win32,84.74576271,,,,,,,,,,,,,,,,505.7541,507.0479,507.0479,508.9775,return,0.5892,,10.28645833,,,,,,FBP-OG-18.png,0.37,1.2,7,0.5,0,51,51,6,1,,,,,,,,,,,,,,,,,,,,,,,,,,,,,,,,,,,,,,,,
,,,,,SPR24_015,21,Female,2024-04-08_15h00.32.205,jersey_experiment_5_v0,2023.2.2,Win32,84.74576271,,,,,,,,,,,,,,,,508.9776,510.2714,510.2715,512.26,return,0.5647,,85.9375,,,,,,FBP-RB-71.png,0.45,1.2,35,0.5,0,52,52,34,1,,,,,,,,,,,,,,,,,,,,,,,,,,,,,,,,,,,,,,,,
,,,,,SPR24_015,21,Female,2024-04-08_15h00.32.205,jersey_experiment_5_v0,2023.2.2,Win32,84.74576271,,,,,,,,,,,,,,,,512.2602,513.5542,513.5542,514.9306,return,0.6822,,87.63020833,,,,,,FBP-RB-91.png,0.43,1.2,44,0.5,0,53,53,43,1,,,,,,,,,,,,,,,,,,,,,,,,,,,,,,,,,,,,,,,,
,,,,,SPR24_015,21,Female,2024-04-08_15h00.32.205,jersey_experiment_5_v0,2023.2.2,Win32,84.74576271,,,,,,,,,,,,,,,,514.9308,515.9776,515.9777,517.4602,return,0.5319,,89.19270833,,,,,,FBP-YG-91.png,0.43,1.2,29,0.25,0,54,54,28,1,,,,,,,,,,,,,,,,,,,,,,,,,,,,,,,,,,,,,,,,
,,,,,SPR24_015,21,Female,2024-04-08_15h00.32.205,jersey_experiment_5_v0,2023.2.2,Win32,84.74576271,,,,,,,,,,,,,,,,517.4605,518.5072,518.5072,523.5544,return,2.5177,,48.69791667,,,,,,FBP-YG-81.png,0.4,1.2,23,0.25,0,55,55,22,1,,,,,,,,,,,,,,,,,,,,,,,,,,,,,,,,,,,,,,,,
,,,,,SPR24_015,21,Female,2024-04-08_15h00.32.205,jersey_experiment_5_v0,2023.2.2,Win32,84.74576271,,,,,,,,,,,,,,,,523.5547,524.8486,524.8486,526.9075,return,0.6422,,76.43229167,,,,,,FBP-OG-17.png,0.43,1.2,4,0.5,0,56,56,3,1,,,,,,,,,,,,,,,,,,,,,,,,,,,,,,,,,,,,,,,,
,,,,,SPR24_015,21,Female,2024-04-08_15h00.32.205,jersey_experiment_5_v0,2023.2.2,Win32,84.74576271,,,,,,,,,,,,,,,,526.9076,527.9546,527.9547,529.4724,return,0.5531,,79.296875,,,,,,FBP-YG-81.png,0.45,1.2,25,0.25,0,57,57,24,1,,,,,,,,,,,,,,,,,,,,,,,,,,,,,,,,,,,,,,,,
,,,,,SPR24_015,21,Female,2024-04-08_15h00.32.205,jersey_experiment_5_v0,2023.2.2,Win32,84.74576271,,,,,,,,,,,,,,,,529.4725,530.7664,530.7665,532.7783,return,0.5469,,42.96875,,,,,,FBP-RB-71.png,0.35,1.2,31,0.5,0,58,58,30,1,,,,,,,,,,,,,,,,,,,,,,,,,,,,,,,,,,,,,,,,
,,,,,SPR24_015,21,Female,2024-04-08_15h00.32.205,jersey_experiment_5_v0,2023.2.2,Win32,84.74576271,,,,,,,,,,,,,,,,532.7786,534.0726,534.0726,537.9199,return,0.7321,,99.47916667,,,,,,FBP-RB-81.png,0.45,1.2,40,0.5,0,59,59,39,1,,,,,,,,,,,,,,,,,,,,,,,,,,,,,,,,,,,,,,,,
,,,,,SPR24_015,21,Female,2024-04-08_15h00.32.205,jersey_experiment_5_v0,2023.2.2,Win32,84.74576271,,,,,,,,,,,,,,,,,,,,,,,,,,,,,,,,,,,,,,,537.9202,657.9128,,,,,,,,,,,,,,,,,,,,,,,,,,,,,,,,,,,,,,
,,,,,SPR24_015,21,Female,2024-04-08_15h00.32.205,jersey_experiment_5_v0,2023.2.2,Win32,84.74576271,,,,,,,,,,,,,,,,,,,,,,,,,,,,,,,,,,,,,,,,,657.9129,660.4656,return,2.5406,,,,,,,,,,,,,,,,,,,,,,,,,,,,,,,,,,
,,,,,SPR24_015,21,Female,2024-04-08_15h00.32.205,jersey_experiment_5_v0,2023.2.2,Win32,84.74576271,,,,,,,,,,,,,,,,660.4717,661.5244,661.5244,664.9951,return,0.7438,,26.82291667,,,,,,FBP-RB-19.png,0.37,1.2,42,0.25,,,,,,,,,,,,,0,0,0,41,1,,,,,,,,,,,,,,,,,,,,,,,,,,,,
,,,,,SPR24_015,21,Female,2024-04-08_15h00.32.205,jersey_experiment_5_v0,2023.2.2,Win32,84.74576271,,,,,,,,,,,,,,,,664.9955,666.2893,666.2894,669.6306,return,0.5803,,53.64583333,,,,,,FBP-PT-17.png,0.37,1.2,47,0.5,,,,,,,,,,,,,0,1,1,46,1,,,,,,,,,,,,,,,,,,,,,,,,,,,,
,,,,,SPR24_015,21,Female,2024-04-08_15h00.32.205,jersey_experiment_5_v0,2023.2.2,Win32,84.74576271,,,,,,,,,,,,,,,,669.6308,670.6776,670.6777,673.0071,return,0.6011,,45.05208333,,,,,,FBP-OG-91.png,0.35,1.2,11,0.25,,,,,,,,,,,,,0,2,2,10,1,,,,,,,,,,,,,,,,,,,,,,,,,,,,
,,,,,SPR24_015,21,Female,2024-04-08_15h00.32.205,jersey_experiment_5_v0,2023.2.2,Win32,84.74576271,,,,,,,,,,,,,,,,673.0072,674.0542,674.0542,676.8426,return,0.6058,,74.86979167,,,,,,FBP-RB-19.png,0.43,1.2,44,0.25,,,,,,,,,,,,,0,3,3,43,1,,,,,,,,,,,,,,,,,,,,,,,,,,,,
,,,,,SPR24_015,21,Female,2024-04-08_15h00.32.205,jersey_experiment_5_v0,2023.2.2,Win32,84.74576271,,,,,,,,,,,,,,,,676.8428,678.1367,678.1367,679.8545,return,0.569,,97.39583333,,,,,,FBP-PT-19.png,0.4,1.2,58,0.5,,,,,,,,,,,,,0,4,4,57,1,,,,,,,,,,,,,,,,,,,,,,,,,,,,
,,,,,SPR24_015,21,Female,2024-04-08_15h00.32.205,jersey_experiment_5_v0,2023.2.2,Win32,84.74576271,,,,,,,,,,,,,,,,679.8547,681.1486,681.1487,683.7488,return,0.6353,,29.16666667,,,,,,FBP-YG-18.png,0.35,1.2,21,0.5,,,,,,,,,,,,,0,5,5,20,1,,,,,,,,,,,,,,,,,,,,,,,,,,,,
,,,,,SPR24_015,21,Female,2024-04-08_15h00.32.205,jersey_experiment_5_v0,2023.2.2,Win32,84.74576271,,,,,,,,,,,,,,,,683.749,684.7958,684.7958,686.6432,return,0.5549,,29.94791667,,,,,,FBP-OG-71.png,0.35,1.2,1,0.25,,,,,,,,,,,,,0,6,6,0,1,,,,,,,,,,,,,,,,,,,,,,,,,,,,
,,,,,SPR24_015,21,Female,2024-04-08_15h00.32.205,jersey_experiment_5_v0,2023.2.2,Win32,84.74576271,,,,,,,,,,,,,,,,686.6435,687.6901,687.6901,689.6901,return,0.5119,,48.4375,,,,,,FBP-RB-18.png,0.4,1.2,38,0.25,,,,,,,,,,,,,0,7,7,37,1,,,,,,,,,,,,,,,,,,,,,,,,,,,,
,,,,,SPR24_015,21,Female,2024-04-08_15h00.32.205,jersey_experiment_5_v0,2023.2.2,Win32,84.74576271,,,,,,,,,,,,,,,,689.6903,690.9844,690.9844,692.8903,return,0.6294,,99.21875,,,,,,FBP-PT-19.png,0.45,1.2,60,0.5,,,,,,,,,,,,,0,8,8,59,1,,,,,,,,,,,,,,,,,,,,,,,,,,,,
,,,,,SPR24_015,21,Female,2024-04-08_15h00.32.205,jersey_experiment_5_v0,2023.2.2,Win32,84.74576271,,,,,,,,,,,,,,,,692.8905,694.1843,694.1843,697.2787,return,0.604,,70.57291667,,,,,,FBP-PT-19.png,0.37,1.2,57,0.5,,,,,,,,,,,,,0,9,9,56,1,,,,,,,,,,,,,,,,,,,,,,,,,,,,
,,,,,SPR24_015,21,Female,2024-04-08_15h00.32.205,jersey_experiment_5_v0,2023.2.2,Win32,84.74576271,,,,,,,,,,,,,,,,697.2789,698.5728,698.5728,700.1964,return,0.5184,,76.5625,,,,,,FBP-YG-17.png,0.43,1.2,19,0.5,,,,,,,,,,,,,0,10,10,18,1,,,,,,,,,,,,,,,,,,,,,,,,,,,,
,,,,,SPR24_015,21,Female,2024-04-08_15h00.32.205,jersey_experiment_5_v0,2023.2.2,Win32,84.74576271,,,,,,,,,,,,,,,,700.1967,701.2436,701.2436,702.8907,return,0.5115,,86.45833333,,,,,,FBP-RB-18.png,0.43,1.2,39,0.25,,,,,,,,,,,,,0,11,11,38,1,,,,,,,,,,,,,,,,,,,,,,,,,,,,
,,,,,SPR24_015,21,Female,2024-04-08_15h00.32.205,jersey_experiment_5_v0,2023.2.2,Win32,84.74576271,,,,,,,,,,,,,,,,702.8909,704.1849,704.1849,705.4671,return,0.616,,96.875,,,,,,FBP-YG-18.png,0.45,1.2,25,0.5,,,,,,,,,,,,,0,12,12,24,1,,,,,,,,,,,,,,,,,,,,,,,,,,,,
,,,,,SPR24_015,21,Female,2024-04-08_15h00.32.205,jersey_experiment_5_v0,2023.2.2,Win32,84.74576271,,,,,,,,,,,,,,,,705.4674,706.5142,706.5142,708.9968,return,0.6832,,99.86979167,,,,,,FBP-RB-17.png,0.43,1.2,34,0.25,,,,,,,,,,,,,0,13,13,33,1,,,,,,,,,,,,,,,,,,,,,,,,,,,,
,,,,,SPR24_015,21,Female,2024-04-08_15h00.32.205,jersey_experiment_5_v0,2023.2.2,Win32,84.74576271,,,,,,,,,,,,,,,,708.997,710.0439,710.044,714.2677,return,2.5691,,48.828125,,,,,,FBP-OG-81.png,0.4,1.2,8,0.25,,,,,,,,,,,,,0,14,14,7,1,,,,,,,,,,,,,,,,,,,,,,,,,,,,
,,,,,SPR24_015,21,Female,2024-04-08_15h00.32.205,jersey_experiment_5_v0,2023.2.2,Win32,84.74576271,,,,,,,,,,,,,,,,714.2679,715.5618,715.5618,717.3265,return,0.7322,,33.85416667,,,,,,FBP-PT-18.png,0.37,1.2,52,0.5,,,,,,,,,,,,,0,15,15,51,1,,,,,,,,,,,,,,,,,,,,,,,,,,,,
,,,,,SPR24_015,21,Female,2024-04-08_15h00.32.205,jersey_experiment_5_v0,2023.2.2,Win32,84.74576271,,,,,,,,,,,,,,,,717.3267,718.6206,718.6207,720.2443,return,0.5882,,82.68229167,,,,,,FBP-PT-17.png,0.43,1.2,49,0.5,,,,,,,,,,,,,0,16,16,48,1,,,,,,,,,,,,,,,,,,,,,,,,,,,,
,,,,,SPR24_015,21,Female,2024-04-08_15h00.32.205,jersey_experiment_5_v0,2023.2.2,Win32,84.74576271,,,,,,,,,,,,,,,,720.2445,721.5385,721.5385,723.8914,return,0.5792,,45.57291667,,,,,,FBP-YG-19.png,0.37,1.2,27,0.5,,,,,,,,,,,,,0,17,17,26,1,,,,,,,,,,,,,,,,,,,,,,,,,,,,
,,,,,SPR24_015,21,Female,2024-04-08_15h00.32.205,jersey_experiment_5_v0,2023.2.2,Win32,84.74576271,,,,,,,,,,,,,,,,723.8917,724.9386,724.9386,728.0093,return,1.9836,,74.08854167,,,,,,FBP-RB-19.png,0.4,1.2,43,0.25,,,,,,,,,,,,,0,18,18,42,1,,,,,,,,,,,,,,,,,,,,,,,,,,,,
,,,,,SPR24_015,21,Female,2024-04-08_15h00.32.205,jersey_experiment_5_v0,2023.2.2,Win32,84.74576271,,,,,,,,,,,,,,,,728.0096,729.0563,729.0563,730.6093,return,0.5524,,98.046875,,,,,,FBP-OG-81.png,0.45,1.2,10,0.25,,,,,,,,,,,,,0,19,19,9,1,,,,,,,,,,,,,,,,,,,,,,,,,,,,
,,,,,SPR24_015,21,Female,2024-04-08_15h00.32.205,jersey_experiment_5_v0,2023.2.2,Win32,84.74576271,,,,,,,,,,,,,,,,730.6095,731.6565,731.6565,732.9859,return,0.597,,98.046875,,,,,,FBP-RB-17.png,0.45,1.2,35,0.25,,,,,,,,,,,,,0,20,20,34,1,,,,,,,,,,,,,,,,,,,,,,,,,,,,
,,,,,SPR24_015,21,Female,2024-04-08_15h00.32.205,jersey_experiment_5_v0,2023.2.2,Win32,84.74576271,,,,,,,,,,,,,,,,732.9862,734.0331,734.0331,738.7979,return,1.6622,,53.515625,,,,,,FBP-OG-81.png,0.37,1.2,7,0.25,,,,,,,,,,,,,0,21,21,6,1,,,,,,,,,,,,,,,,,,,,,,,,,,,,
,,,,,SPR24_015,21,Female,2024-04-08_15h00.32.205,jersey_experiment_5_v0,2023.2.2,Win32,84.74576271,,,,,,,,,,,,,,,,738.7981,740.0921,740.0921,741.8216,return,0.5918,,26.30208333,,,,,,FBP-YG-17.png,0.35,1.2,16,0.5,,,,,,,,,,,,,0,22,22,15,1,,,,,,,,,,,,,,,,,,,,,,,,,,,,
,,,,,SPR24_015,21,Female,2024-04-08_15h00.32.205,jersey_experiment_5_v0,2023.2.2,Win32,84.74576271,,,,,,,,,,,,,,,,741.8218,743.1156,743.1157,745.8687,return,1.5709,,32.55208333,,,,,,FBP-PT-17.png,0.35,1.2,46,0.5,,,,,,,,,,,,,0,23,23,45,1,,,,,,,,,,,,,,,,,,,,,,,,,,,,
,,,,,SPR24_015,21,Female,2024-04-08_15h00.32.205,jersey_experiment_5_v0,2023.2.2,Win32,84.74576271,,,,,,,,,,,,,,,,745.869,746.9156,746.9157,749.1159,return,0.536,,59.11458333,,,,,,FBP-OG-91.png,0.4,1.2,13,0.25,,,,,,,,,,,,,0,24,24,12,1,,,,,,,,,,,,,,,,,,,,,,,,,,,,
,,,,,SPR24_015,21,Female,2024-04-08_15h00.32.205,jersey_experiment_5_v0,2023.2.2,Win32,84.74576271,,,,,,,,,,,,,,,,749.1162,750.4102,750.4102,751.8101,return,0.5652,,95.703125,,,,,,FBP-PT-19.png,0.43,1.2,59,0.5,,,,,,,,,,,,,0,25,25,58,1,,,,,,,,,,,,,,,,,,,,,,,,,,,,
,,,,,SPR24_015,21,Female,2024-04-08_15h00.32.205,jersey_experiment_5_v0,2023.2.2,Win32,84.74576271,,,,,,,,,,,,,,,,751.8103,753.1043,753.1043,756.7044,return,0.5763,,77.34375,,,,,,FBP-YG-18.png,0.4,1.2,23,0.5,,,,,,,,,,,,,0,26,26,22,1,,,,,,,,,,,,,,,,,,,,,,,,,,,,
,,,,,SPR24_015,21,Female,2024-04-08_15h00.32.205,jersey_experiment_5_v0,2023.2.2,Win32,84.74576271,,,,,,,,,,,,,,,,756.7046,757.7515,757.7516,759.9515,return,0.6247,,17.05729167,,,,,,FBP-OG-81.png,0.35,1.2,6,0.25,,,,,,,,,,,,,0,27,27,5,1,,,,,,,,,,,,,,,,,,,,,,,,,,,,
,,,,,SPR24_015,21,Female,2024-04-08_15h00.32.205,jersey_experiment_5_v0,2023.2.2,Win32,84.74576271,,,,,,,,,,,,,,,,759.9517,761.2457,761.2458,766.34,return,0.9323,,0.651041667,,,,,,FBP-PT-19.png,0.35,1.2,56,0.5,,,,,,,,,,,,,0,28,28,55,1,,,,,,,,,,,,,,,,,,,,,,,,,,,,
,,,,,SPR24_015,21,Female,2024-04-08_15h00.32.205,jersey_experiment_5_v0,2023.2.2,Win32,84.74576271,,,,,,,,,,,,,,,,766.3402,767.3871,767.3872,769.5403,return,0.6358,,96.74479167,,,,,,FBP-OG-71.png,0.45,1.2,5,0.25,,,,,,,,,,,,,0,29,29,4,1,,,,,,,,,,,,,,,,,,,,,,,,,,,,
,,,,,SPR24_015,21,Female,2024-04-08_15h00.32.205,jersey_experiment_5_v0,2023.2.2,Win32,84.74576271,,,,,,,,,,,,,,,,769.5405,770.8344,770.8344,773.2815,return,0.5084,,25.26041667,,,,,,FBP-YG-18.png,0.37,1.2,22,0.5,,,,,,,,,,,,,0,30,30,21,1,,,,,,,,,,,,,,,,,,,,,,,,,,,,
,,,,,SPR24_015,21,Female,2024-04-08_15h00.32.205,jersey_experiment_5_v0,2023.2.2,Win32,84.74576271,,,,,,,,,,,,,,,,773.2818,774.5759,774.5759,776.211,return,0.5506,,58.59375,,,,,,FBP-YG-17.png,0.4,1.2,18,0.5,,,,,,,,,,,,,0,31,31,17,1,,,,,,,,,,,,,,,,,,,,,,,,,,,,
,,,,,SPR24_015,21,Female,2024-04-08_15h00.32.205,jersey_experiment_5_v0,2023.2.2,Win32,84.74576271,,,,,,,,,,,,,,,,776.2112,777.5052,777.5053,778.6816,return,0.5596,,58.72395833,,,,,,FBP-PT-17.png,0.4,1.2,48,0.5,,,,,,,,,,,,,0,32,32,47,1,,,,,,,,,,,,,,,,,,,,,,,,,,,,
,,,,,SPR24_015,21,Female,2024-04-08_15h00.32.205,jersey_experiment_5_v0,2023.2.2,Win32,84.74576271,,,,,,,,,,,,,,,,778.6819,779.9758,779.9758,782.0583,return,0.5708,,94.53125,,,,,,FBP-YG-17.png,0.45,1.2,20,0.5,,,,,,,,,,,,,0,33,33,19,1,,,,,,,,,,,,,,,,,,,,,,,,,,,,
,,,,,SPR24_015,21,Female,2024-04-08_15h00.32.205,jersey_experiment_5_v0,2023.2.2,Win32,84.74576271,,,,,,,,,,,,,,,,782.0585,783.3525,783.3525,784.4468,return,0.6024,,94.53125,,,,,,FBP-PT-18.png,0.43,1.2,54,0.5,,,,,,,,,,,,,0,34,34,53,1,,,,,,,,,,,,,,,,,,,,,,,,,,,,
,,,,,SPR24_015,21,Female,2024-04-08_15h00.32.205,jersey_experiment_5_v0,2023.2.2,Win32,84.74576271,,,,,,,,,,,,,,,,784.447,785.4938,785.4939,788.6822,return,0.6531,,61.84895833,,,,,,FBP-RB-17.png,0.37,1.2,32,0.25,,,,,,,,,,,,,0,35,35,31,1,,,,,,,,,,,,,,,,,,,,,,,,,,,,
,,,,,SPR24_015,21,Female,2024-04-08_15h00.32.205,jersey_experiment_5_v0,2023.2.2,Win32,84.74576271,,,,,,,,,,,,,,,,788.6824,789.9763,789.9763,791.7057,return,0.5722,,61.84895833,,,,,,FBP-YG-19.png,0.43,1.2,29,0.5,,,,,,,,,,,,,0,36,36,28,1,,,,,,,,,,,,,,,,,,,,,,,,,,,,
,,,,,SPR24_015,21,Female,2024-04-08_15h00.32.205,jersey_experiment_5_v0,2023.2.2,Win32,84.74576271,,,,,,,,,,,,,,,,791.7058,793,793,796.5647,return,1.8117,,32.421875,,,,,,FBP-PT-18.png,0.35,1.2,51,0.5,,,,,,,,,,,,,0,37,37,50,1,,,,,,,,,,,,,,,,,,,,,,,,,,,,
,,,,,SPR24_015,21,Female,2024-04-08_15h00.32.205,jersey_experiment_5_v0,2023.2.2,Win32,84.74576271,,,,,,,,,,,,,,,,796.565,797.6118,797.6118,799.6473,return,0.5448,,32.421875,,,,,,FBP-OG-71.png,0.4,1.2,3,0.25,,,,,,,,,,,,,0,38,38,2,1,,,,,,,,,,,,,,,,,,,,,,,,,,,,
,,,,,SPR24_015,21,Female,2024-04-08_15h00.32.205,jersey_experiment_5_v0,2023.2.2,Win32,84.74576271,,,,,,,,,,,,,,,,799.6474,800.6944,800.6944,802.9768,return,0.4943,,85.41666667,,,,,,FBP-RB-18.png,0.45,1.2,40,0.25,,,,,,,,,,,,,0,39,39,39,1,,,,,,,,,,,,,,,,,,,,,,,,,,,,
,,,,,SPR24_015,21,Female,2024-04-08_15h00.32.205,jersey_experiment_5_v0,2023.2.2,Win32,84.74576271,,,,,,,,,,,,,,,,802.977,804.2711,804.2711,806.4004,return,0.5766,,36.19791667,,,,,,FBP-YG-17.png,0.37,1.2,17,0.5,,,,,,,,,,,,,0,40,40,16,1,,,,,,,,,,,,,,,,,,,,,,,,,,,,
,,,,,SPR24_015,21,Female,2024-04-08_15h00.32.205,jersey_experiment_5_v0,2023.2.2,Win32,84.74576271,,,,,,,,,,,,,,,,806.4006,807.6945,807.6946,808.8594,return,0.5367,,36.328125,,,,,,FBP-YG-19.png,0.4,1.2,28,0.5,,,,,,,,,,,,,0,41,41,27,1,,,,,,,,,,,,,,,,,,,,,,,,,,,,
,,,,,SPR24_015,21,Female,2024-04-08_15h00.32.205,jersey_experiment_5_v0,2023.2.2,Win32,84.74576271,,,,,,,,,,,,,,,,808.8597,809.9064,809.9065,812.13,return,0.5409,,99.21875,,,,,,FBP-OG-91.png,0.43,1.2,14,0.25,,,,,,,,,,,,,0,42,42,13,1,,,,,,,,,,,,,,,,,,,,,,,,,,,,
,,,,,SPR24_015,21,Female,2024-04-08_15h00.32.205,jersey_experiment_5_v0,2023.2.2,Win32,84.74576271,,,,,,,,,,,,,,,,812.1302,813.4243,813.4243,815.7068,return,0.5711,,76.43229167,,,,,,FBP-PT-18.png,0.4,1.2,53,0.5,,,,,,,,,,,,,0,43,43,52,1,,,,,,,,,,,,,,,,,,,,,,,,,,,,
,,,,,SPR24_015,21,Female,2024-04-08_15h00.32.205,jersey_experiment_5_v0,2023.2.2,Win32,84.74576271,,,,,,,,,,,,,,,,815.7069,816.7537,816.7537,819.2128,return,0.5589,,99.47916667,,,,,,FBP-OG-91.png,0.45,1.2,15,0.25,,,,,,,,,,,,,0,44,44,14,1,,,,,,,,,,,,,,,,,,,,,,,,,,,,
,,,,,SPR24_015,21,Female,2024-04-08_15h00.32.205,jersey_experiment_5_v0,2023.2.2,Win32,84.74576271,,,,,,,,,,,,,,,,819.213,820.2597,820.2598,822.1539,return,0.5382,,12.109375,,,,,,FBP-RB-19.png,0.35,1.2,41,0.25,,,,,,,,,,,,,0,45,45,40,1,,,,,,,,,,,,,,,,,,,,,,,,,,,,
,,,,,SPR24_015,21,Female,2024-04-08_15h00.32.205,jersey_experiment_5_v0,2023.2.2,Win32,84.74576271,,,,,,,,,,,,,,,,822.1541,823.2011,823.2011,824.5541,return,0.4997,,12.36979167,,,,,,FBP-RB-18.png,0.37,1.2,37,0.25,,,,,,,,,,,,,0,46,46,36,1,,,,,,,,,,,,,,,,,,,,,,,,,,,,
,,,,,SPR24_015,21,Female,2024-04-08_15h00.32.205,jersey_experiment_5_v0,2023.2.2,Win32,84.74576271,,,,,,,,,,,,,,,,824.5544,825.6011,825.6011,827.2365,return,0.4941,,6.380208333,,,,,,FBP-RB-17.png,0.35,1.2,31,0.25,,,,,,,,,,,,,0,47,47,30,1,,,,,,,,,,,,,,,,,,,,,,,,,,,,
,,,,,SPR24_015,21,Female,2024-04-08_15h00.32.205,jersey_experiment_5_v0,2023.2.2,Win32,84.74576271,,,,,,,,,,,,,,,,827.2368,828.2836,828.2837,830.272,return,0.5555,,28.515625,,,,,,FBP-RB-17.png,0.4,1.2,33,0.25,,,,,,,,,,,,,0,48,48,32,1,,,,,,,,,,,,,,,,,,,,,,,,,,,,
,,,,,SPR24_015,21,Female,2024-04-08_15h00.32.205,jersey_experiment_5_v0,2023.2.2,Win32,84.74576271,,,,,,,,,,,,,,,,830.2722,831.5661,831.5661,833.778,return,0.7913,,99.86979167,,,,,,FBP-PT-17.png,0.45,1.2,50,0.5,,,,,,,,,,,,,0,49,49,49,1,,,,,,,,,,,,,,,,,,,,,,,,,,,,
,,,,,SPR24_015,21,Female,2024-04-08_15h00.32.205,jersey_experiment_5_v0,2023.2.2,Win32,84.74576271,,,,,,,,,,,,,,,,833.7783,835.0721,835.0721,836.9781,return,0.6267,,99.34895833,,,,,,FBP-PT-18.png,0.45,1.2,55,0.5,,,,,,,,,,,,,0,50,50,54,1,,,,,,,,,,,,,,,,,,,,,,,,,,,,
,,,,,SPR24_015,21,Female,2024-04-08_15h00.32.205,jersey_experiment_5_v0,2023.2.2,Win32,84.74576271,,,,,,,,,,,,,,,,836.9783,838.025,838.0251,843.2017,return,3.0831,,5.729166667,,,,,,FBP-OG-91.png,0.37,1.2,12,0.25,,,,,,,,,,,,,0,51,51,11,1,,,,,,,,,,,,,,,,,,,,,,,,,,,,
,,,,,SPR24_015,21,Female,2024-04-08_15h00.32.205,jersey_experiment_5_v0,2023.2.2,Win32,84.74576271,,,,,,,,,,,,,,,,843.2019,844.249,844.249,846.5431,return,0.5211,,29.55729167,,,,,,FBP-OG-71.png,0.37,1.2,2,0.25,,,,,,,,,,,,,0,52,52,1,1,,,,,,,,,,,,,,,,,,,,,,,,,,,,
,,,,,SPR24_015,21,Female,2024-04-08_15h00.32.205,jersey_experiment_5_v0,2023.2.2,Win32,84.74576271,,,,,,,,,,,,,,,,846.5433,847.5903,847.5903,849.9198,return,0.7205,,20.18229167,,,,,,FBP-RB-18.png,0.35,1.2,36,0.25,,,,,,,,,,,,,0,53,53,35,1,,,,,,,,,,,,,,,,,,,,,,,,,,,,
,,,,,SPR24_015,21,Female,2024-04-08_15h00.32.205,jersey_experiment_5_v0,2023.2.2,Win32,84.74576271,,,,,,,,,,,,,,,,849.92,851.214,851.214,854.1552,return,0.8901,,99.86979167,,,,,,FBP-YG-19.png,0.45,1.2,30,0.5,,,,,,,,,,,,,0,54,54,29,1,,,,,,,,,,,,,,,,,,,,,,,,,,,,
,,,,,SPR24_015,21,Female,2024-04-08_15h00.32.205,jersey_experiment_5_v0,2023.2.2,Win32,84.74576271,,,,,,,,,,,,,,,,854.1554,855.2022,855.2023,860.7319,return,0.5806,,53.77604167,,,,,,FBP-OG-71.png,0.43,1.2,4,0.25,,,,,,,,,,,,,0,55,55,3,1,,,,,,,,,,,,,,,,,,,,,,,,,,,,
,,,,,SPR24_015,21,Female,2024-04-08_15h00.32.205,jersey_experiment_5_v0,2023.2.2,Win32,84.74576271,,,,,,,,,,,,,,,,860.732,861.7789,861.7789,863.9675,return,0.6131,,93.09895833,,,,,,FBP-RB-19.png,0.45,1.2,45,0.25,,,,,,,,,,,,,0,56,56,44,1,,,,,,,,,,,,,,,,,,,,,,,,,,,,
,,,,,SPR24_015,21,Female,2024-04-08_15h00.32.205,jersey_experiment_5_v0,2023.2.2,Win32,84.74576271,,,,,,,,,,,,,,,,863.9678,865.2615,865.2615,866.991,return,0.6248,,23.17708333,,,,,,FBP-YG-19.png,0.35,1.2,26,0.5,,,,,,,,,,,,,0,57,57,25,1,,,,,,,,,,,,,,,,,,,,,,,,,,,,
,,,,,SPR24_015,21,Female,2024-04-08_15h00.32.205,jersey_experiment_5_v0,2023.2.2,Win32,84.74576271,,,,,,,,,,,,,,,,866.9911,868.038,868.0381,870.0264,return,0.5728,,97.78645833,,,,,,FBP-OG-81.png,0.43,1.2,9,0.25,,,,,,,,,,,,,0,58,58,8,1,,,,,,,,,,,,,,,,,,,,,,,,,,,,
,,,,,SPR24_015,21,Female,2024-04-08_15h00.32.205,jersey_experiment_5_v0,2023.2.2,Win32,84.74576271,,,,,,,,,,,,,,,,870.0264,871.3205,871.3205,873.3088,return,1.453,,90.36458333,,,,,,FBP-YG-18.png,0.43,1.2,24,0.5,,,,,,,,,,,,,0,59,59,23,1,,,,,,,,,,,,,,,,,,,,,,,,,,,,
,,,,,SPR24_015,21,Female,2024-04-08_15h00.32.205,jersey_experiment_5_v0,2023.2.2,Win32,84.74576271,,,,,,,,,,,,,,,,873.3108,874.6031,874.6032,877.7443,return,1.179,,53.25520833,,,,,,FBP-PT-91.png,0.35,1.2,56,0.5,,,,,,,,,,,,,,,,,,0,0,0,55,1,,,,,,,,,,,,,,,,,,,,,,,
,,,,,SPR24_015,21,Female,2024-04-08_15h00.32.205,jersey_experiment_5_v0,2023.2.2,Win32,84.74576271,,,,,,,,,,,,,,,,877.7448,879.0384,879.0384,881.8739,return,2.1322,,47.52604167,,,,,,FBP-PT-71.png,0.35,1.2,46,0.5,,,,,,,,,,,,,,,,,,0,1,1,45,1,,,,,,,,,,,,,,,,,,,,,,,
,,,,,SPR24_015,21,Female,2024-04-08_15h00.32.205,jersey_experiment_5_v0,2023.2.2,Win32,84.74576271,,,,,,,,,,,,,,,,881.874,882.921,882.921,884.8033,return,0.541,,95.18229167,,,,,,FBP-OG-17.png,0.45,1.2,5,0.25,,,,,,,,,,,,,,,,,,0,2,2,4,1,,,,,,,,,,,,,,,,,,,,,,,
,,,,,SPR24_015,21,Female,2024-04-08_15h00.32.205,jersey_experiment_5_v0,2023.2.2,Win32,84.74576271,,,,,,,,,,,,,,,,884.8034,886.0975,886.0976,887.8506,return,0.5376,,48.828125,,,,,,FBP-PT-81.png,0.35,1.2,51,0.5,,,,,,,,,,,,,,,,,,0,3,3,50,1,,,,,,,,,,,,,,,,,,,,,,,
,,,,,SPR24_015,21,Female,2024-04-08_15h00.32.205,jersey_experiment_5_v0,2023.2.2,Win32,84.74576271,,,,,,,,,,,,,,,,887.8508,889.1447,889.1448,891.2741,return,0.6204,,48.828125,,,,,,FBP-YG-71.png,0.35,1.2,16,0.5,,,,,,,,,,,,,,,,,,0,4,4,15,1,,,,,,,,,,,,,,,,,,,,,,,
,,,,,SPR24_015,21,Female,2024-04-08_15h00.32.205,jersey_experiment_5_v0,2023.2.2,Win32,84.74576271,,,,,,,,,,,,,,,,891.2744,892.5685,892.5685,895.086,return,1.3084,,97.65625,,,,,,FBP-PT-81.png,0.4,1.2,53,0.5,,,,,,,,,,,,,,,,,,0,5,5,52,1,,,,,,,,,,,,,,,,,,,,,,,
,,,,,SPR24_015,21,Female,2024-04-08_15h00.32.205,jersey_experiment_5_v0,2023.2.2,Win32,84.74576271,,,,,,,,,,,,,,,,895.0863,896.3803,896.3803,899.6509,return,0.6593,,47.65625,,,,,,FBP-YG-81.png,0.35,1.2,21,0.5,,,,,,,,,,,,,,,,,,0,6,6,20,1,,,,,,,,,,,,,,,,,,,,,,,
,,,,,SPR24_015,21,Female,2024-04-08_15h00.32.205,jersey_experiment_5_v0,2023.2.2,Win32,84.74576271,,,,,,,,,,,,,,,,899.6511,900.6982,900.6982,902.557,return,0.5921,,47.65625,,,,,,FBP-RB-91.png,0.37,1.2,42,0.25,,,,,,,,,,,,,,,,,,0,7,7,41,1,,,,,,,,,,,,,,,,,,,,,,,
,,,,,SPR24_015,21,Female,2024-04-08_15h00.32.205,jersey_experiment_5_v0,2023.2.2,Win32,84.74576271,,,,,,,,,,,,,,,,902.5572,903.6041,903.6042,905.4043,return,0.6634,,78.125,,,,,,FBP-RB-81.png,0.43,1.2,39,0.25,,,,,,,,,,,,,,,,,,0,8,8,38,1,,,,,,,,,,,,,,,,,,,,,,,
,,,,,SPR24_015,21,Female,2024-04-08_15h00.32.205,jersey_experiment_5_v0,2023.2.2,Win32,84.74576271,,,,,,,,,,,,,,,,905.4045,906.4512,906.4513,907.9807,return,0.5803,,78.125,,,,,,FBP-OG-19.png,0.37,1.2,12,0.25,,,,,,,,,,,,,,,,,,0,9,9,11,1,,,,,,,,,,,,,,,,,,,,,,,
,,,,,SPR24_015,21,Female,2024-04-08_15h00.32.205,jersey_experiment_5_v0,2023.2.2,Win32,84.74576271,,,,,,,,,,,,,,,,907.9812,909.2748,909.2748,912.2045,return,1.9478,,81.77083333,,,,,,FBP-YG-71.png,0.4,1.2,18,0.5,,,,,,,,,,,,,,,,,,0,10,10,17,1,,,,,,,,,,,,,,,,,,,,,,,
,,,,,SPR24_015,21,Female,2024-04-08_15h00.32.205,jersey_experiment_5_v0,2023.2.2,Win32,84.74576271,,,,,,,,,,,,,,,,912.2047,913.2515,913.2515,914.5927,return,0.5193,,83.203125,,,,,,FBP-OG-19.png,0.4,1.2,13,0.25,,,,,,,,,,,,,,,,,,0,11,11,12,1,,,,,,,,,,,,,,,,,,,,,,,
,,,,,SPR24_015,21,Female,2024-04-08_15h00.32.205,jersey_experiment_5_v0,2023.2.2,Win32,84.74576271,,,,,,,,,,,,,,,,914.593,915.8868,915.8868,917.7222,return,0.6061,,95.703125,,,,,,FBP-YG-91.png,0.43,1.2,29,0.5,,,,,,,,,,,,,,,,,,0,12,12,28,1,,,,,,,,,,,,,,,,,,,,,,,
,,,,,SPR24_015,21,Female,2024-04-08_15h00.32.205,jersey_experiment_5_v0,2023.2.2,Win32,84.74576271,,,,,,,,,,,,,,,,917.7223,919.0164,919.0164,920.4282,return,0.5579,,98.56770833,,,,,,FBP-YG-91.png,0.45,1.2,30,0.5,,,,,,,,,,,,,,,,,,0,13,13,29,1,,,,,,,,,,,,,,,,,,,,,,,
,,,,,SPR24_015,21,Female,2024-04-08_15h00.32.205,jersey_experiment_5_v0,2023.2.2,Win32,84.74576271,,,,,,,,,,,,,,,,920.4285,921.7223,921.7223,923.6284,return,0.7692,,99.609375,,,,,,FBP-PT-81.png,0.45,1.2,55,0.5,,,,,,,,,,,,,,,,,,0,14,14,54,1,,,,,,,,,,,,,,,,,,,,,,,
,,,,,SPR24_015,21,Female,2024-04-08_15h00.32.205,jersey_experiment_5_v0,2023.2.2,Win32,84.74576271,,,,,,,,,,,,,,,,923.6285,924.9224,924.9225,925.9814,return,0.5463,,99.47916667,,,,,,FBP-PT-71.png,0.45,1.2,50,0.5,,,,,,,,,,,,,,,,,,0,15,15,49,1,,,,,,,,,,,,,,,,,,,,,,,
,,,,,SPR24_015,21,Female,2024-04-08_15h00.32.205,jersey_experiment_5_v0,2023.2.2,Win32,84.74576271,,,,,,,,,,,,,,,,925.9816,927.0285,927.0286,929.6169,return,0.6257,,99.73958333,,,,,,FBP-OG-17.png,0.43,1.2,4,0.25,,,,,,,,,,,,,,,,,,0,16,16,3,1,,,,,,,,,,,,,,,,,,,,,,,
,,,,,SPR24_015,21,Female,2024-04-08_15h00.32.205,jersey_experiment_5_v0,2023.2.2,Win32,84.74576271,,,,,,,,,,,,,,,,929.617,930.9111,930.9111,933.4524,return,1.0997,,25.78125,,,,,,FBP-YG-71.png,0.37,1.2,17,0.5,,,,,,,,,,,,,,,,,,0,17,17,16,1,,,,,,,,,,,,,,,,,,,,,,,
,,,,,SPR24_015,21,Female,2024-04-08_15h00.32.205,jersey_experiment_5_v0,2023.2.2,Win32,84.74576271,,,,,,,,,,,,,,,,933.4526,934.4993,934.4993,936.2759,return,0.6494,,25.26041667,,,,,,FBP-OG-17.png,0.37,1.2,2,0.25,,,,,,,,,,,,,,,,,,0,18,18,1,1,,,,,,,,,,,,,,,,,,,,,,,
,,,,,SPR24_015,21,Female,2024-04-08_15h00.32.205,jersey_experiment_5_v0,2023.2.2,Win32,84.74576271,,,,,,,,,,,,,,,,936.2761,937.5701,937.5701,939.829,return,0.6496,,94.140625,,,,,,FBP-YG-81.png,0.45,1.2,25,0.5,,,,,,,,,,,,,,,,,,0,19,19,24,1,,,,,,,,,,,,,,,,,,,,,,,
,,,,,SPR24_015,21,Female,2024-04-08_15h00.32.205,jersey_experiment_5_v0,2023.2.2,Win32,84.74576271,,,,,,,,,,,,,,,,939.8292,941.1232,941.1232,942.2998,return,0.5931,,98.69791667,,,,,,FBP-PT-81.png,0.43,1.2,54,0.5,,,,,,,,,,,,,,,,,,0,20,20,53,1,,,,,,,,,,,,,,,,,,,,,,,
,,,,,SPR24_015,21,Female,2024-04-08_15h00.32.205,jersey_experiment_5_v0,2023.2.2,Win32,84.74576271,,,,,,,,,,,,,,,,942.3001,943.3468,943.3468,945.4998,return,0.6779,,66.796875,,,,,,FBP-OG-18.png,0.4,1.2,8,0.25,,,,,,,,,,,,,,,,,,0,21,21,7,1,,,,,,,,,,,,,,,,,,,,,,,
,,,,,SPR24_015,21,Female,2024-04-08_15h00.32.205,jersey_experiment_5_v0,2023.2.2,Win32,84.74576271,,,,,,,,,,,,,,,,945.5,946.5468,946.5468,948.3351,return,0.6155,,99.34895833,,,,,,FBP-RB-71.png,0.45,1.2,35,0.25,,,,,,,,,,,,,,,,,,0,22,22,34,1,,,,,,,,,,,,,,,,,,,,,,,
,,,,,SPR24_015,21,Female,2024-04-08_15h00.32.205,jersey_experiment_5_v0,2023.2.2,Win32,84.74576271,,,,,,,,,,,,,,,,948.3353,949.6293,949.6293,951.6765,return,0.5712,,24.08854167,,,,,,FBP-YG-81.png,0.4,1.2,23,0.5,,,,,,,,,,,,,,,,,,0,23,23,22,1,,,,,,,,,,,,,,,,,,,,,,,
,,,,,SPR24_015,21,Female,2024-04-08_15h00.32.205,jersey_experiment_5_v0,2023.2.2,Win32,84.74576271,,,,,,,,,,,,,,,,951.6768,952.7237,952.7237,954.5235,return,0.6661,,3.90625,,,,,,FBP-OG-18.png,0.35,1.2,6,0.25,,,,,,,,,,,,,,,,,,0,24,24,5,1,,,,,,,,,,,,,,,,,,,,,,,
,,,,,SPR24_015,21,Female,2024-04-08_15h00.32.205,jersey_experiment_5_v0,2023.2.2,Win32,84.74576271,,,,,,,,,,,,,,,,954.5237,955.5709,955.5709,959.0768,return,0.6502,,50.65104167,,,,,,FBP-RB-91.png,0.43,1.2,44,0.25,,,,,,,,,,,,,,,,,,0,25,25,43,1,,,,,,,,,,,,,,,,,,,,,,,
,,,,,SPR24_015,21,Female,2024-04-08_15h00.32.205,jersey_experiment_5_v0,2023.2.2,Win32,84.74576271,,,,,,,,,,,,,,,,959.0771,960.1237,960.1238,962.171,return,0.5725,,50.91145833,,,,,,FBP-RB-91.png,0.4,1.2,43,0.25,,,,,,,,,,,,,,,,,,0,26,26,42,1,,,,,,,,,,,,,,,,,,,,,,,
,,,,,SPR24_015,21,Female,2024-04-08_15h00.32.205,jersey_experiment_5_v0,2023.2.2,Win32,84.74576271,,,,,,,,,,,,,,,,962.1712,963.2182,963.2182,965.1241,return,0.5785,,45.18229167,,,,,,FBP-RB-91.png,0.35,1.2,41,0.25,,,,,,,,,,,,,,,,,,0,27,27,40,1,,,,,,,,,,,,,,,,,,,,,,,
,,,,,SPR24_015,21,Female,2024-04-08_15h00.32.205,jersey_experiment_5_v0,2023.2.2,Win32,84.74576271,,,,,,,,,,,,,,,,965.1243,966.1711,966.1712,967.8772,return,0.6594,,39.0625,,,,,,FBP-RB-81.png,0.37,1.2,37,0.25,,,,,,,,,,,,,,,,,,0,28,28,36,1,,,,,,,,,,,,,,,,,,,,,,,
,,,,,SPR24_015,21,Female,2024-04-08_15h00.32.205,jersey_experiment_5_v0,2023.2.2,Win32,84.74576271,,,,,,,,,,,,,,,,967.8775,969.1714,969.1714,971.136,return,0.8971,,80.98958333,,,,,,FBP-YG-71.png,0.45,1.2,20,0.5,,,,,,,,,,,,,,,,,,0,29,29,19,1,,,,,,,,,,,,,,,,,,,,,,,
,,,,,SPR24_015,21,Female,2024-04-08_15h00.32.205,jersey_experiment_5_v0,2023.2.2,Win32,84.74576271,,,,,,,,,,,,,,,,971.1363,972.4302,972.4303,974.642,return,0.8106,,44.40104167,,,,,,FBP-YG-81.png,0.37,1.2,22,0.5,,,,,,,,,,,,,,,,,,0,30,30,21,1,,,,,,,,,,,,,,,,,,,,,,,
,,,,,SPR24_015,21,Female,2024-04-08_15h00.32.205,jersey_experiment_5_v0,2023.2.2,Win32,84.74576271,,,,,,,,,,,,,,,,974.6421,975.9362,975.9362,977.101,return,0.5452,,44.66145833,,,,,,FBP-PT-71.png,0.37,1.2,47,0.5,,,,,,,,,,,,,,,,,,0,31,31,46,1,,,,,,,,,,,,,,,,,,,,,,,
,,,,,SPR24_015,21,Female,2024-04-08_15h00.32.205,jersey_experiment_5_v0,2023.2.2,Win32,84.74576271,,,,,,,,,,,,,,,,977.1012,978.3952,978.3952,979.4656,return,0.513,,44.66145833,,,,,,FBP-PT-91.png,0.37,1.2,57,0.5,,,,,,,,,,,,,,,,,,0,32,32,56,1,,,,,,,,,,,,,,,,,,,,,,,
,,,,,SPR24_015,21,Female,2024-04-08_15h00.32.205,jersey_experiment_5_v0,2023.2.2,Win32,84.74576271,,,,,,,,,,,,,,,,979.4657,980.5129,980.5129,982.9248,return,0.581,,80.20833333,,,,,,FBP-RB-71.png,0.43,1.2,34,0.25,,,,,,,,,,,,,,,,,,0,33,33,33,1,,,,,,,,,,,,,,,,,,,,,,,
,,,,,SPR24_015,21,Female,2024-04-08_15h00.32.205,jersey_experiment_5_v0,2023.2.2,Win32,84.74576271,,,,,,,,,,,,,,,,982.925,984.2188,984.2189,986.2425,return,0.5412,,4.6875,,,,,,FBP-YG-91.png,0.35,1.2,26,0.5,,,,,,,,,,,,,,,,,,0,34,34,25,1,,,,,,,,,,,,,,,,,,,,,,,
,,,,,SPR24_015,21,Female,2024-04-08_15h00.32.205,jersey_experiment_5_v0,2023.2.2,Win32,84.74576271,,,,,,,,,,,,,,,,986.2426,987.2895,987.2896,988.8191,return,0.565,,8.723958333,,,,,,FBP-OG-18.png,0.37,1.2,7,0.25,,,,,,,,,,,,,,,,,,0,35,35,6,1,,,,,,,,,,,,,,,,,,,,,,,
,,,,,SPR24_015,21,Female,2024-04-08_15h00.32.205,jersey_experiment_5_v0,2023.2.2,Win32,84.74576271,,,,,,,,,,,,,,,,988.8193,989.8661,989.8661,992.5132,return,0.6597,,58.203125,,,,,,FBP-RB-71.png,0.4,1.2,33,0.25,,,,,,,,,,,,,,,,,,0,36,36,32,1,,,,,,,,,,,,,,,,,,,,,,,
,,,,,SPR24_015,21,Female,2024-04-08_15h00.32.205,jersey_experiment_5_v0,2023.2.2,Win32,84.74576271,,,,,,,,,,,,,,,,992.5134,993.8076,993.8076,996.337,return,0.7548,,75.52083333,,,,,,FBP-PT-91.png,0.43,1.2,59,0.5,,,,,,,,,,,,,,,,,,0,37,37,58,1,,,,,,,,,,,,,,,,,,,,,,,
,,,,,SPR24_015,21,Female,2024-04-08_15h00.32.205,jersey_experiment_5_v0,2023.2.2,Win32,84.74576271,,,,,,,,,,,,,,,,996.3372,997.3842,997.3842,999.2431,return,0.6787,,28.38541667,,,,,,FBP-RB-81.png,0.35,1.2,36,0.25,,,,,,,,,,,,,,,,,,0,38,38,35,1,,,,,,,,,,,,,,,,,,,,,,,
,,,,,SPR24_015,21,Female,2024-04-08_15h00.32.205,jersey_experiment_5_v0,2023.2.2,Win32,84.74576271,,,,,,,,,,,,,,,,999.2434,1000.2901,1000.2902,1002.3842,return,0.6705,,77.08333333,,,,,,FBP-OG-18.png,0.45,1.2,10,0.25,,,,,,,,,,,,,,,,,,0,39,39,9,1,,,,,,,,,,,,,,,,,,,,,,,
,,,,,SPR24_015,21,Female,2024-04-08_15h00.32.205,jersey_experiment_5_v0,2023.2.2,Win32,84.74576271,,,,,,,,,,,,,,,,1002.3845,1003.6784,1003.6784,1006.2903,return,0.5887,,83.72395833,,,,,,FBP-YG-81.png,0.43,1.2,24,0.5,,,,,,,,,,,,,,,,,,0,40,40,23,1,,,,,,,,,,,,,,,,,,,,,,,
,,,,,SPR24_015,21,Female,2024-04-08_15h00.32.205,jersey_experiment_5_v0,2023.2.2,Win32,84.74576271,,,,,,,,,,,,,,,,1006.2905,1007.5844,1007.5844,1009.0201,return,0.5574,,98.69791667,,,,,,FBP-PT-71.png,0.43,1.2,49,0.5,,,,,,,,,,,,,,,,,,0,41,41,48,1,,,,,,,,,,,,,,,,,,,,,,,
,,,,,SPR24_015,21,Female,2024-04-08_15h00.32.205,jersey_experiment_5_v0,2023.2.2,Win32,84.74576271,,,,,,,,,,,,,,,,1009.0203,1010.314,1010.314,1015.2436,return,0.5462,,74.609375,,,,,,FBP-YG-71.png,0.43,1.2,19,0.5,,,,,,,,,,,,,,,,,,0,42,42,18,1,,,,,,,,,,,,,,,,,,,,,,,
,,,,,SPR24_015,21,Female,2024-04-08_15h00.32.205,jersey_experiment_5_v0,2023.2.2,Win32,84.74576271,,,,,,,,,,,,,,,,1015.2438,1016.2907,1016.2907,1018.1377,return,0.6092,,25,,,,,,FBP-OG-19.png,0.35,1.2,11,0.25,,,,,,,,,,,,,,,,,,0,43,43,10,1,,,,,,,,,,,,,,,,,,,,,,,
,,,,,SPR24_015,21,Female,2024-04-08_15h00.32.205,jersey_experiment_5_v0,2023.2.2,Win32,84.74576271,,,,,,,,,,,,,,,,1018.138,1019.1848,1019.1849,1023.3262,return,0.8518,,50.13020833,,,,,,FBP-OG-17.png,0.4,1.2,3,0.25,,,,,,,,,,,,,,,,,,0,44,44,2,1,,,,,,,,,,,,,,,,,,,,,,,
,,,,,SPR24_015,21,Female,2024-04-08_15h00.32.205,jersey_experiment_5_v0,2023.2.2,Win32,84.74576271,,,,,,,,,,,,,,,,1023.3263,1024.3734,1024.3734,1026.2205,return,0.8159,,70.18229167,,,,,,FBP-OG-19.png,0.43,1.2,14,0.25,,,,,,,,,,,,,,,,,,0,45,45,13,1,,,,,,,,,,,,,,,,,,,,,,,
,,,,,SPR24_015,21,Female,2024-04-08_15h00.32.205,jersey_experiment_5_v0,2023.2.2,Win32,84.74576271,,,,,,,,,,,,,,,,1026.2206,1027.5147,1027.5147,1030.4208,return,0.5662,,29.296875,,,,,,FBP-PT-71.png,0.4,1.2,48,0.5,,,,,,,,,,,,,,,,,,0,46,46,47,1,,,,,,,,,,,,,,,,,,,,,,,
,,,,,SPR24_015,21,Female,2024-04-08_15h00.32.205,jersey_experiment_5_v0,2023.2.2,Win32,84.74576271,,,,,,,,,,,,,,,,1030.421,1031.7148,1031.7148,1034.0913,return,1.5253,,24.21875,,,,,,FBP-YG-91.png,0.37,1.2,27,0.5,,,,,,,,,,,,,,,,,,0,47,47,26,1,,,,,,,,,,,,,,,,,,,,,,,
,,,,,SPR24_015,21,Female,2024-04-08_15h00.32.205,jersey_experiment_5_v0,2023.2.2,Win32,84.74576271,,,,,,,,,,,,,,,,1034.0916,1035.1385,1035.1386,1037.7387,return,1.2774,,87.23958333,,,,,,FBP-OG-18.png,0.43,1.2,9,0.25,,,,,,,,,,,,,,,,,,0,48,48,8,1,,,,,,,,,,,,,,,,,,,,,,,
,,,,,SPR24_015,21,Female,2024-04-08_15h00.32.205,jersey_experiment_5_v0,2023.2.2,Win32,84.74576271,,,,,,,,,,,,,,,,1037.7388,1038.7856,1038.7857,1040.6446,return,0.5652,,85.15625,,,,,,FBP-RB-81.png,0.4,1.2,38,0.25,,,,,,,,,,,,,,,,,,0,49,49,37,1,,,,,,,,,,,,,,,,,,,,,,,
,,,,,SPR24_015,21,Female,2024-04-08_15h00.32.205,jersey_experiment_5_v0,2023.2.2,Win32,84.74576271,,,,,,,,,,,,,,,,1040.6447,1041.6917,1041.6917,1045.1859,return,2.1421,,54.81770833,,,,,,FBP-RB-71.png,0.37,1.2,32,0.25,,,,,,,,,,,,,,,,,,0,50,50,31,1,,,,,,,,,,,,,,,,,,,,,,,
,,,,,SPR24_015,21,Female,2024-04-08_15h00.32.205,jersey_experiment_5_v0,2023.2.2,Win32,84.74576271,,,,,,,,,,,,,,,,1045.1861,1046.233,1046.233,1047.7859,return,0.9385,,54.03645833,,,,,,FBP-OG-17.png,0.35,1.2,1,0.25,,,,,,,,,,,,,,,,,,0,51,51,0,1,,,,,,,,,,,,,,,,,,,,,,,
,,,,,SPR24_015,21,Female,2024-04-08_15h00.32.205,jersey_experiment_5_v0,2023.2.2,Win32,84.74576271,,,,,,,,,,,,,,,,1047.7861,1048.8331,1048.8331,1050.7626,return,0.6436,,87.890625,,,,,,FBP-RB-91.png,0.45,1.2,45,0.25,,,,,,,,,,,,,,,,,,0,52,52,44,1,,,,,,,,,,,,,,,,,,,,,,,
,,,,,SPR24_015,21,Female,2024-04-08_15h00.32.205,jersey_experiment_5_v0,2023.2.2,Win32,84.74576271,,,,,,,,,,,,,,,,1050.7627,1052.0568,1052.0568,1054.1627,return,0.5883,,83.07291667,,,,,,FBP-YG-91.png,0.4,1.2,28,0.5,,,,,,,,,,,,,,,,,,0,53,53,27,1,,,,,,,,,,,,,,,,,,,,,,,
,,,,,SPR24_015,21,Female,2024-04-08_15h00.32.205,jersey_experiment_5_v0,2023.2.2,Win32,84.74576271,,,,,,,,,,,,,,,,1054.1628,1055.2098,1055.2098,1056.9158,return,0.6736,,99.73958333,,,,,,FBP-RB-81.png,0.45,1.2,40,0.25,,,,,,,,,,,,,,,,,,0,54,54,39,1,,,,,,,,,,,,,,,,,,,,,,,
,,,,,SPR24_015,21,Female,2024-04-08_15h00.32.205,jersey_experiment_5_v0,2023.2.2,Win32,84.74576271,,,,,,,,,,,,,,,,1056.9159,1057.9628,1057.9628,1064.8102,return,2.95,,58.07291667,,,,,,FBP-RB-71.png,0.35,1.2,31,0.25,,,,,,,,,,,,,,,,,,0,55,55,30,1,,,,,,,,,,,,,,,,,,,,,,,
,,,,,SPR24_015,21,Female,2024-04-08_15h00.32.205,jersey_experiment_5_v0,2023.2.2,Win32,84.74576271,,,,,,,,,,,,,,,,1064.8104,1066.1042,1066.1042,1068.1279,return,0.6856,,57.94270833,,,,,,FBP-PT-91.png,0.4,1.2,58,0.5,,,,,,,,,,,,,,,,,,0,56,56,57,1,,,,,,,,,,,,,,,,,,,,,,,
,,,,,SPR24_015,21,Female,2024-04-08_15h00.32.205,jersey_experiment_5_v0,2023.2.2,Win32,84.74576271,,,,,,,,,,,,,,,,1068.128,1069.4221,1069.4221,1071.1398,return,0.5885,,98.30729167,,,,,,FBP-PT-91.png,0.45,1.2,60,0.5,,,,,,,,,,,,,,,,,,0,57,57,59,1,,,,,,,,,,,,,,,,,,,,,,,
,,,,,SPR24_015,21,Female,2024-04-08_15h00.32.205,jersey_experiment_5_v0,2023.2.2,Win32,84.74576271,,,,,,,,,,,,,,,,1071.14,1072.434,1072.4341,1075.2575,return,0.6444,,50.91145833,,,,,,FBP-PT-81.png,0.37,1.2,52,0.5,,,,,,,,,,,,,,,,,,0,58,58,51,1,,,,,,,,,,,,,,,,,,,,,,,
,,,,,SPR24_015,21,Female,2024-04-08_15h00.32.205,jersey_experiment_5_v0,2023.2.2,Win32,84.74576271,,,,,,,,,,,,,,,,1075.2577,1076.3047,1076.3047,1079.7754,return,0.7798,,98.828125,,,,,,FBP-OG-19.png,0.45,1.2,15,0.25,,,,,,,,,,,,,,,,,,0,59,59,14,1,,,,,,,,,,,,,,,,,,,,,,,
,,,,,SPR24_015,21,Female,2024-04-08_15h00.32.205,jersey_experiment_5_v0,2023.2.2,Win32,84.74576271,,,,,,,,,,,,,,,,,,,,,,,,,,,,,,,,,,,,,,,,,,,,,,,,,,,,,,,,1079.7758,1087.0586,return,7.2712,,,,,,,,,,,,,,,,,,,
,,,,,SPR24_015,21,Female,2024-04-08_15h00.32.205,jersey_experiment_5_v0,2023.2.2,Win32,84.74576271,,,,,,,,,,,,,,,,,,,,,,,,,,,,,,,,,,,,,,,,,,,,,,,,,,,,,,,,,,,,,1087.0586,1095.0351,1,4.3463,return,3.6189,,,,,,,,,,,,
,,,,,SPR24_015,21,Female,2024-04-08_15h00.32.205,jersey_experiment_5_v0,2023.2.2,Win32,84.74576271,,,,,,,,,,,,,,,,,,,,,,,,,,,,,,,,,,,,,,,,,,,,,,,,,,,,,,,,,,,,,,,,,,,,1095.0352,1130.4412,I recognized that their were two colored shirts (green and red) and both black and white partici,right,31.1871,,,,,,
,,,,,SPR24_015,21,Female,2024-04-08_15h00.32.205,jersey_experiment_5_v0,2023.2.2,Win32,84.74576271,,,,,,,,,,,,,,,,,,,,,,,,,,,,,,,,,,,,,,,,,,,,,,,,,,,,,,,,,,,,,,,,,,,,,,,,,,1130.4413,1138.6721,return,8.2204,