requirements.started,requirements.stopped,key_resp_3.keys,key_resp_3.rt,key_resp_3.duration,Subject ID,Age,Gender,date,expName,psychopyVersion,OS,frameRate,instructions1.started,instructions1.stopped,key_resp.keys,key_resp.rt,key_resp.duration,example.started,example.stopped,enter_2.keys,enter_2.rt,enter_2.duration,instructions2.started,instructions2.stopped,enter_3.keys,enter_3.rt,enter_3.duration,image.started,image.stopped,slider_2.started,slider_2.stopped,next.keys,next.rt,next.duration,slider.response,trial_block_1.thisRepN,trial_block_1.thisTrialN,trial_block_1.thisN,trial_block_1.thisIndex,trial_block_1.ran,Path,Width,Height,Index,Duration,trial_block_2.thisRepN,trial_block_2.thisTrialN,trial_block_2.thisN,trial_block_2.thisIndex,trial_block_2.ran,rest_break.started,rest_break.stopped,end_break.started,end_break.stopped,key_resp_5.keys,key_resp_5.rt,key_resp_5.duration,trial_block_3.thisRepN,trial_block_3.thisTrialN,trial_block_3.thisN,trial_block_3.thisIndex,trial_block_3.ran,trial_block_4.thisRepN,trial_block_4.thisTrialN,trial_block_4.thisN,trial_block_4.thisIndex,trial_block_4.ran,questions_intro.started,questions_intro.stopped,enter_12.keys,enter_12.rt,enter_12.duration,question2.started,question2.stopped,question_doingbest.response,question_doingbest.rt,enter_15.keys,enter_15.rt,enter_15.duration,pattern.started,pattern.stopped,pattern_2.text,enter_17.keys,enter_17.rt,enter_17.duration,thankyou.started,thankyou.stopped,enter_14.keys,enter_14.rt,enter_14.duration
1E-04,6.687,return,6.6773,,SPR24_055,19,F,2024-04-16_16h36.41.802,jersey_experiment_5_v0,2023.2.2,Win32,84.74576271,,,,,,,,,,,,,,,,,,,,,,,,,,,,,,,,,,,,,,,,,,,,,,,,,,,,,,,,,,,,,,,,,,,,,,,,,,,,,,
,,,,,SPR24_055,19,F,2024-04-16_16h36.41.802,jersey_experiment_5_v0,2023.2.2,Win32,84.74576271,6.6872,13.2983,return,6.5976,,,,,,,,,,,,,,,,,,,,,,,,,,,,,,,,,,,,,,,,,,,,,,,,,,,,,,,,,,,,,,,,,,,,,,,,,,
,,,,,SPR24_055,19,F,2024-04-16_16h36.41.802,jersey_experiment_5_v0,2023.2.2,Win32,84.74576271,,,,,,13.2984,17.9807,return,4.6486,,,,,,,,,,,,,,,,,,,,,,,,,,,,,,,,,,,,,,,,,,,,,,,,,,,,,,,,,,,,,,,,,,,,,
,,,,,SPR24_055,19,F,2024-04-16_16h36.41.802,jersey_experiment_5_v0,2023.2.2,Win32,84.74576271,,,,,,,,,,,17.9808,31.805,return,13.814,,,,,,,,,,,,,,,,,,,,,,,,,,,,,,,,,,,,,,,,,,,,,,,,,,,,,,,,,,,,,,,,
,,,,,SPR24_055,19,F,2024-04-16_16h36.41.802,jersey_experiment_5_v0,2023.2.2,Win32,84.74576271,,,,,,,,,,,,,,,,31.8118,33.1105,33.1107,39.6405,return,3.0643,,24.73958333,0,0,0,6,1,FBP-OG-81.png,0.37,1.2,7,0.5,,,,,,,,,,,,,,,,,,,,,,,,,,,,,,,,,,,,,,,,,,,,,
,,,,,SPR24_055,19,F,2024-04-16_16h36.41.802,jersey_experiment_5_v0,2023.2.2,Win32,84.74576271,,,,,,,,,,,,,,,,39.6409,40.6872,40.6874,43.4521,return,1.1088,,49.08854167,0,1,1,56,1,FBP-PT-19.png,0.37,1.2,57,0.25,,,,,,,,,,,,,,,,,,,,,,,,,,,,,,,,,,,,,,,,,,,,,
,,,,,SPR24_055,19,F,2024-04-16_16h36.41.802,jersey_experiment_5_v0,2023.2.2,Win32,84.74576271,,,,,,,,,,,,,,,,43.4524,44.7463,44.7463,47.8052,return,1.3553,,86.71875,0,2,2,39,1,FBP-RB-18.png,0.45,1.2,40,0.5,,,,,,,,,,,,,,,,,,,,,,,,,,,,,,,,,,,,,,,,,,,,,
,,,,,SPR24_055,19,F,2024-04-16_16h36.41.802,jersey_experiment_5_v0,2023.2.2,Win32,84.74576271,,,,,,,,,,,,,,,,47.8056,49.0994,49.0994,51.9348,return,1.0362,,81.25,0,3,3,9,1,FBP-OG-81.png,0.45,1.2,10,0.5,,,,,,,,,,,,,,,,,,,,,,,,,,,,,,,,,,,,,,,,,,,,,
,,,,,SPR24_055,19,F,2024-04-16_16h36.41.802,jersey_experiment_5_v0,2023.2.2,Win32,84.74576271,,,,,,,,,,,,,,,,51.935,52.9818,52.9818,55.8527,return,0.6836,,36.328125,0,4,4,16,1,FBP-YG-17.png,0.37,1.2,17,0.25,,,,,,,,,,,,,,,,,,,,,,,,,,,,,,,,,,,,,,,,,,,,,
,,,,,SPR24_055,19,F,2024-04-16_16h36.41.802,jersey_experiment_5_v0,2023.2.2,Win32,84.74576271,,,,,,,,,,,,,,,,55.8529,56.8996,56.8997,59.6409,return,0.819,,57.16145833,0,5,5,53,1,FBP-PT-18.png,0.43,1.2,54,0.25,,,,,,,,,,,,,,,,,,,,,,,,,,,,,,,,,,,,,,,,,,,,,
,,,,,SPR24_055,19,F,2024-04-16_16h36.41.802,jersey_experiment_5_v0,2023.2.2,Win32,84.74576271,,,,,,,,,,,,,,,,59.6412,60.6879,60.688,63.3117,return,0.6027,,80.859375,0,6,6,29,1,FBP-YG-19.png,0.45,1.2,30,0.25,,,,,,,,,,,,,,,,,,,,,,,,,,,,,,,,,,,,,,,,,,,,,
,,,,,SPR24_055,19,F,2024-04-16_16h36.41.802,jersey_experiment_5_v0,2023.2.2,Win32,84.74576271,,,,,,,,,,,,,,,,63.3119,64.6059,64.6059,66.7119,return,0.5963,,74.08854167,0,7,7,14,1,FBP-OG-91.png,0.45,1.2,15,0.5,,,,,,,,,,,,,,,,,,,,,,,,,,,,,,,,,,,,,,,,,,,,,
,,,,,SPR24_055,19,F,2024-04-16_16h36.41.802,jersey_experiment_5_v0,2023.2.2,Win32,84.74576271,,,,,,,,,,,,,,,,66.7121,68.0059,68.0059,69.4179,return,0.5473,,48.95833333,0,8,8,11,1,FBP-OG-91.png,0.37,1.2,12,0.5,,,,,,,,,,,,,,,,,,,,,,,,,,,,,,,,,,,,,,,,,,,,,
,,,,,SPR24_055,19,F,2024-04-16_16h36.41.802,jersey_experiment_5_v0,2023.2.2,Win32,84.74576271,,,,,,,,,,,,,,,,69.4182,70.7119,70.7119,71.9944,return,0.4751,,40.625,0,9,9,32,1,FBP-RB-17.png,0.4,1.2,33,0.5,,,,,,,,,,,,,,,,,,,,,,,,,,,,,,,,,,,,,,,,,,,,,
,,,,,SPR24_055,19,F,2024-04-16_16h36.41.802,jersey_experiment_5_v0,2023.2.2,Win32,84.74576271,,,,,,,,,,,,,,,,71.9947,73.0413,73.0415,74.865,return,0.6492,,63.28125,0,10,10,18,1,FBP-YG-17.png,0.43,1.2,19,0.25,,,,,,,,,,,,,,,,,,,,,,,,,,,,,,,,,,,,,,,,,,,,,
,,,,,SPR24_055,19,F,2024-04-16_16h36.41.802,jersey_experiment_5_v0,2023.2.2,Win32,84.74576271,,,,,,,,,,,,,,,,74.8652,75.9122,75.9122,78.2652,return,0.7936,,61.84895833,0,11,11,27,1,FBP-YG-19.png,0.4,1.2,28,0.25,,,,,,,,,,,,,,,,,,,,,,,,,,,,,,,,,,,,,,,,,,,,,
,,,,,SPR24_055,19,F,2024-04-16_16h36.41.802,jersey_experiment_5_v0,2023.2.2,Win32,84.74576271,,,,,,,,,,,,,,,,78.2655,79.3122,79.3122,81.6771,return,0.6959,,44.79166667,0,12,12,57,1,FBP-PT-19.png,0.4,1.2,58,0.25,,,,,,,,,,,,,,,,,,,,,,,,,,,,,,,,,,,,,,,,,,,,,
,,,,,SPR24_055,19,F,2024-04-16_16h36.41.802,jersey_experiment_5_v0,2023.2.2,Win32,84.74576271,,,,,,,,,,,,,,,,81.6773,82.7242,82.7242,85.489,return,1.3651,,63.93229167,0,13,13,58,1,FBP-PT-19.png,0.43,1.2,59,0.25,,,,,,,,,,,,,,,,,,,,,,,,,,,,,,,,,,,,,,,,,,,,,
,,,,,SPR24_055,19,F,2024-04-16_16h36.41.802,jersey_experiment_5_v0,2023.2.2,Win32,84.74576271,,,,,,,,,,,,,,,,85.4893,86.5361,86.5361,88.5361,return,0.5241,,20.96354167,0,14,14,26,1,FBP-YG-19.png,0.37,1.2,27,0.25,,,,,,,,,,,,,,,,,,,,,,,,,,,,,,,,,,,,,,,,,,,,,
,,,,,SPR24_055,19,F,2024-04-16_16h36.41.802,jersey_experiment_5_v0,2023.2.2,Win32,84.74576271,,,,,,,,,,,,,,,,88.5364,89.8303,89.8304,91.8893,return,0.5031,,47.65625,0,15,15,37,1,FBP-RB-18.png,0.4,1.2,38,0.5,,,,,,,,,,,,,,,,,,,,,,,,,,,,,,,,,,,,,,,,,,,,,
,,,,,SPR24_055,19,F,2024-04-16_16h36.41.802,jersey_experiment_5_v0,2023.2.2,Win32,84.74576271,,,,,,,,,,,,,,,,91.8895,93.1833,93.1833,95.16,return,0.6298,,82.421875,0,16,16,34,1,FBP-RB-17.png,0.45,1.2,35,0.5,,,,,,,,,,,,,,,,,,,,,,,,,,,,,,,,,,,,,,,,,,,,,
,,,,,SPR24_055,19,F,2024-04-16_16h36.41.802,jersey_experiment_5_v0,2023.2.2,Win32,84.74576271,,,,,,,,,,,,,,,,95.1601,96.454,96.4541,97.9601,return,0.6666,,31.77083333,0,17,17,36,1,FBP-RB-18.png,0.37,1.2,37,0.5,,,,,,,,,,,,,,,,,,,,,,,,,,,,,,,,,,,,,,,,,,,,,
,,,,,SPR24_055,19,F,2024-04-16_16h36.41.802,jersey_experiment_5_v0,2023.2.2,Win32,84.74576271,,,,,,,,,,,,,,,,97.9603,99.2541,99.2541,101.5955,return,1.578,,13.671875,0,18,18,35,1,FBP-RB-18.png,0.35,1.2,36,0.5,,,,,,,,,,,,,,,,,,,,,,,,,,,,,,,,,,,,,,,,,,,,,
,,,,,SPR24_055,19,F,2024-04-16_16h36.41.802,jersey_experiment_5_v0,2023.2.2,Win32,84.74576271,,,,,,,,,,,,,,,,101.5958,102.6426,102.6426,104.2661,return,0.5104,,38.671875,0,19,19,52,1,FBP-PT-18.png,0.4,1.2,53,0.25,,,,,,,,,,,,,,,,,,,,,,,,,,,,,,,,,,,,,,,,,,,,,
,,,,,SPR24_055,19,F,2024-04-16_16h36.41.802,jersey_experiment_5_v0,2023.2.2,Win32,84.74576271,,,,,,,,,,,,,,,,104.2663,105.5602,105.5602,106.9838,return,0.3352,,19.140625,0,20,20,5,1,FBP-OG-81.png,0.35,1.2,6,0.5,,,,,,,,,,,,,,,,,,,,,,,,,,,,,,,,,,,,,,,,,,,,,
,,,,,SPR24_055,19,F,2024-04-16_16h36.41.802,jersey_experiment_5_v0,2023.2.2,Win32,84.74576271,,,,,,,,,,,,,,,,106.9841,108.278,108.278,109.4546,return,0.438,,20.44270833,0,21,21,30,1,FBP-RB-17.png,0.35,1.2,31,0.5,,,,,,,,,,,,,,,,,,,,,,,,,,,,,,,,,,,,,,,,,,,,,
,,,,,SPR24_055,19,F,2024-04-16_16h36.41.802,jersey_experiment_5_v0,2023.2.2,Win32,84.74576271,,,,,,,,,,,,,,,,109.4548,110.7487,110.7488,112.6311,return,0.4915,,47.39583333,0,22,22,2,1,FBP-OG-71.png,0.4,1.2,3,0.5,,,,,,,,,,,,,,,,,,,,,,,,,,,,,,,,,,,,,,,,,,,,,
,,,,,SPR24_055,19,F,2024-04-16_16h36.41.802,jersey_experiment_5_v0,2023.2.2,Win32,84.74576271,,,,,,,,,,,,,,,,112.6313,113.9253,113.9254,115.3725,return,0.4504,,70.83333333,0,23,23,8,1,FBP-OG-81.png,0.43,1.2,9,0.5,,,,,,,,,,,,,,,,,,,,,,,,,,,,,,,,,,,,,,,,,,,,,
,,,,,SPR24_055,19,F,2024-04-16_16h36.41.802,jersey_experiment_5_v0,2023.2.2,Win32,84.74576271,,,,,,,,,,,,,,,,115.3726,116.4193,116.4195,117.996,return,0.6981,,90.88541667,0,24,24,59,1,FBP-PT-19.png,0.45,1.2,60,0.25,,,,,,,,,,,,,,,,,,,,,,,,,,,,,,,,,,,,,,,,,,,,,
,,,,,SPR24_055,19,F,2024-04-16_16h36.41.802,jersey_experiment_5_v0,2023.2.2,Win32,84.74576271,,,,,,,,,,,,,,,,117.9963,119.2902,119.2902,120.655,return,0.4931,,20.703125,0,25,25,10,1,FBP-OG-91.png,0.35,1.2,11,0.5,,,,,,,,,,,,,,,,,,,,,,,,,,,,,,,,,,,,,,,,,,,,,
,,,,,SPR24_055,19,F,2024-04-16_16h36.41.802,jersey_experiment_5_v0,2023.2.2,Win32,84.74576271,,,,,,,,,,,,,,,,120.6552,121.9491,121.9492,124.4785,return,0.4811,,51.43229167,0,26,26,7,1,FBP-OG-81.png,0.4,1.2,8,0.5,,,,,,,,,,,,,,,,,,,,,,,,,,,,,,,,,,,,,,,,,,,,,
,,,,,SPR24_055,19,F,2024-04-16_16h36.41.802,jersey_experiment_5_v0,2023.2.2,Win32,84.74576271,,,,,,,,,,,,,,,,124.4788,125.5258,125.5258,127.1493,return,0.4484,,86.97916667,0,27,27,19,1,FBP-YG-17.png,0.45,1.2,20,0.25,,,,,,,,,,,,,,,,,,,,,,,,,,,,,,,,,,,,,,,,,,,,,
,,,,,SPR24_055,19,F,2024-04-16_16h36.41.802,jersey_experiment_5_v0,2023.2.2,Win32,84.74576271,,,,,,,,,,,,,,,,127.1495,128.1964,128.1964,130.0316,return,0.6358,,72.00520833,0,28,28,22,1,FBP-YG-18.png,0.4,1.2,23,0.25,,,,,,,,,,,,,,,,,,,,,,,,,,,,,,,,,,,,,,,,,,,,,
,,,,,SPR24_055,19,F,2024-04-16_16h36.41.802,jersey_experiment_5_v0,2023.2.2,Win32,84.74576271,,,,,,,,,,,,,,,,130.0318,131.0791,131.0792,132.5849,return,0.4423,,44.01041667,0,29,29,46,1,FBP-PT-17.png,0.37,1.2,47,0.25,,,,,,,,,,,,,,,,,,,,,,,,,,,,,,,,,,,,,,,,,,,,,
,,,,,SPR24_055,19,F,2024-04-16_16h36.41.802,jersey_experiment_5_v0,2023.2.2,Win32,84.74576271,,,,,,,,,,,,,,,,132.5851,133.6319,133.632,135.1026,return,0.4844,,50.390625,0,30,30,47,1,FBP-PT-17.png,0.4,1.2,48,0.25,,,,,,,,,,,,,,,,,,,,,,,,,,,,,,,,,,,,,,,,,,,,,
,,,,,SPR24_055,19,F,2024-04-16_16h36.41.802,jersey_experiment_5_v0,2023.2.2,Win32,84.74576271,,,,,,,,,,,,,,,,135.1028,136.3966,136.3967,139.6911,return,2.5112,,76.953125,0,31,31,4,1,FBP-OG-71.png,0.45,1.2,5,0.5,,,,,,,,,,,,,,,,,,,,,,,,,,,,,,,,,,,,,,,,,,,,,
,,,,,SPR24_055,19,F,2024-04-16_16h36.41.802,jersey_experiment_5_v0,2023.2.2,Win32,84.74576271,,,,,,,,,,,,,,,,139.6913,140.7381,140.7382,142.0088,return,0.4772,,73.56770833,0,32,32,48,1,FBP-PT-17.png,0.43,1.2,49,0.25,,,,,,,,,,,,,,,,,,,,,,,,,,,,,,,,,,,,,,,,,,,,,
,,,,,SPR24_055,19,F,2024-04-16_16h36.41.802,jersey_experiment_5_v0,2023.2.2,Win32,84.74576271,,,,,,,,,,,,,,,,142.009,143.0558,143.0558,144.609,return,0.4847,,28.515625,0,33,33,25,1,FBP-YG-19.png,0.35,1.2,26,0.25,,,,,,,,,,,,,,,,,,,,,,,,,,,,,,,,,,,,,,,,,,,,,
,,,,,SPR24_055,19,F,2024-04-16_16h36.41.802,jersey_experiment_5_v0,2023.2.2,Win32,84.74576271,,,,,,,,,,,,,,,,144.6092,145.9029,145.9029,148.3383,return,1.2322,,68.22916667,0,34,34,13,1,FBP-OG-91.png,0.43,1.2,14,0.5,,,,,,,,,,,,,,,,,,,,,,,,,,,,,,,,,,,,,,,,,,,,,
,,,,,SPR24_055,19,F,2024-04-16_16h36.41.802,jersey_experiment_5_v0,2023.2.2,Win32,84.74576271,,,,,,,,,,,,,,,,148.3384,149.3855,149.3855,152.0445,return,1.2256,,30.078125,0,35,35,45,1,FBP-PT-17.png,0.35,1.2,46,0.25,,,,,,,,,,,,,,,,,,,,,,,,,,,,,,,,,,,,,,,,,,,,,
,,,,,SPR24_055,19,F,2024-04-16_16h36.41.802,jersey_experiment_5_v0,2023.2.2,Win32,84.74576271,,,,,,,,,,,,,,,,152.0447,153.0914,153.0915,154.8798,return,0.4577,,83.85416667,0,36,36,54,1,FBP-PT-18.png,0.45,1.2,55,0.25,,,,,,,,,,,,,,,,,,,,,,,,,,,,,,,,,,,,,,,,,,,,,
,,,,,SPR24_055,19,F,2024-04-16_16h36.41.802,jersey_experiment_5_v0,2023.2.2,Win32,84.74576271,,,,,,,,,,,,,,,,154.8799,155.9268,155.9269,157.4329,return,0.4276,,12.5,0,37,37,50,1,FBP-PT-18.png,0.35,1.2,51,0.25,,,,,,,,,,,,,,,,,,,,,,,,,,,,,,,,,,,,,,,,,,,,,
,,,,,SPR24_055,19,F,2024-04-16_16h36.41.802,jersey_experiment_5_v0,2023.2.2,Win32,84.74576271,,,,,,,,,,,,,,,,157.4332,158.4799,158.4799,163.3271,return,3.4457,,76.5625,0,38,38,23,1,FBP-YG-18.png,0.43,1.2,24,0.25,,,,,,,,,,,,,,,,,,,,,,,,,,,,,,,,,,,,,,,,,,,,,
,,,,,SPR24_055,19,F,2024-04-16_16h36.41.802,jersey_experiment_5_v0,2023.2.2,Win32,84.74576271,,,,,,,,,,,,,,,,163.3274,164.6214,164.6215,166.0097,return,0.5478,,29.81770833,0,39,39,0,1,FBP-OG-71.png,0.35,1.2,1,0.5,,,,,,,,,,,,,,,,,,,,,,,,,,,,,,,,,,,,,,,,,,,,,
,,,,,SPR24_055,19,F,2024-04-16_16h36.41.802,jersey_experiment_5_v0,2023.2.2,Win32,84.74576271,,,,,,,,,,,,,,,,166.0099,167.3038,167.3039,169.5861,return,0.4328,,57.421875,0,40,40,42,1,FBP-RB-19.png,0.4,1.2,43,0.5,,,,,,,,,,,,,,,,,,,,,,,,,,,,,,,,,,,,,,,,,,,,,
,,,,,SPR24_055,19,F,2024-04-16_16h36.41.802,jersey_experiment_5_v0,2023.2.2,Win32,84.74576271,,,,,,,,,,,,,,,,169.5864,170.6334,170.6334,173.2805,return,1.6109,,47.65625,0,41,41,21,1,FBP-YG-18.png,0.37,1.2,22,0.25,,,,,,,,,,,,,,,,,,,,,,,,,,,,,,,,,,,,,,,,,,,,,
,,,,,SPR24_055,19,F,2024-04-16_16h36.41.802,jersey_experiment_5_v0,2023.2.2,Win32,84.74576271,,,,,,,,,,,,,,,,173.2807,174.3276,174.3276,177.0807,return,1.3472,,66.66666667,0,42,42,28,1,FBP-YG-19.png,0.43,1.2,29,0.25,,,,,,,,,,,,,,,,,,,,,,,,,,,,,,,,,,,,,,,,,,,,,
,,,,,SPR24_055,19,F,2024-04-16_16h36.41.802,jersey_experiment_5_v0,2023.2.2,Win32,84.74576271,,,,,,,,,,,,,,,,177.0809,178.1276,178.1277,180.5277,return,0.5176,,67.44791667,0,43,43,17,1,FBP-YG-17.png,0.4,1.2,18,0.25,,,,,,,,,,,,,,,,,,,,,,,,,,,,,,,,,,,,,,,,,,,,,
,,,,,SPR24_055,19,F,2024-04-16_16h36.41.802,jersey_experiment_5_v0,2023.2.2,Win32,84.74576271,,,,,,,,,,,,,,,,180.528,181.822,181.822,183.7045,return,0.8079,,51.43229167,0,44,44,41,1,FBP-RB-19.png,0.37,1.2,42,0.5,,,,,,,,,,,,,,,,,,,,,,,,,,,,,,,,,,,,,,,,,,,,,
,,,,,SPR24_055,19,F,2024-04-16_16h36.41.802,jersey_experiment_5_v0,2023.2.2,Win32,84.74576271,,,,,,,,,,,,,,,,183.7047,184.9986,184.9987,186.728,return,0.5464,,76.82291667,0,45,45,33,1,FBP-RB-17.png,0.43,1.2,34,0.5,,,,,,,,,,,,,,,,,,,,,,,,,,,,,,,,,,,,,,,,,,,,,
,,,,,SPR24_055,19,F,2024-04-16_16h36.41.802,jersey_experiment_5_v0,2023.2.2,Win32,84.74576271,,,,,,,,,,,,,,,,186.7283,187.775,187.7751,190.7636,return,0.9547,,52.21354167,0,46,46,51,1,FBP-PT-18.png,0.37,1.2,52,0.25,,,,,,,,,,,,,,,,,,,,,,,,,,,,,,,,,,,,,,,,,,,,,
,,,,,SPR24_055,19,F,2024-04-16_16h36.41.802,jersey_experiment_5_v0,2023.2.2,Win32,84.74576271,,,,,,,,,,,,,,,,190.7638,192.0575,192.0575,193.4694,return,0.7557,,48.95833333,0,47,47,1,1,FBP-OG-71.png,0.37,1.2,2,0.5,,,,,,,,,,,,,,,,,,,,,,,,,,,,,,,,,,,,,,,,,,,,,
,,,,,SPR24_055,19,F,2024-04-16_16h36.41.802,jersey_experiment_5_v0,2023.2.2,Win32,84.74576271,,,,,,,,,,,,,,,,193.4695,194.5165,194.5166,195.8344,return,0.5119,,41.66666667,0,48,48,55,1,FBP-PT-19.png,0.35,1.2,56,0.25,,,,,,,,,,,,,,,,,,,,,,,,,,,,,,,,,,,,,,,,,,,,,
,,,,,SPR24_055,19,F,2024-04-16_16h36.41.802,jersey_experiment_5_v0,2023.2.2,Win32,84.74576271,,,,,,,,,,,,,,,,195.8347,196.8813,196.8813,199.0696,return,0.3886,,73.56770833,0,49,49,49,1,FBP-PT-17.png,0.45,1.2,50,0.25,,,,,,,,,,,,,,,,,,,,,,,,,,,,,,,,,,,,,,,,,,,,,
,,,,,SPR24_055,19,F,2024-04-16_16h36.41.802,jersey_experiment_5_v0,2023.2.2,Win32,84.74576271,,,,,,,,,,,,,,,,199.0699,200.1167,200.1167,201.5167,return,0.4267,,85.41666667,0,50,50,24,1,FBP-YG-18.png,0.45,1.2,25,0.25,,,,,,,,,,,,,,,,,,,,,,,,,,,,,,,,,,,,,,,,,,,,,
,,,,,SPR24_055,19,F,2024-04-16_16h36.41.802,jersey_experiment_5_v0,2023.2.2,Win32,84.74576271,,,,,,,,,,,,,,,,201.517,202.5637,202.5638,204.2581,return,0.4947,,48.4375,0,51,51,20,1,FBP-YG-18.png,0.35,1.2,21,0.25,,,,,,,,,,,,,,,,,,,,,,,,,,,,,,,,,,,,,,,,,,,,,
,,,,,SPR24_055,19,F,2024-04-16_16h36.41.802,jersey_experiment_5_v0,2023.2.2,Win32,84.74576271,,,,,,,,,,,,,,,,204.2583,205.5523,205.5523,207.6582,return,1.5929,,74.47916667,0,52,52,44,1,FBP-RB-19.png,0.45,1.2,45,0.5,,,,,,,,,,,,,,,,,,,,,,,,,,,,,,,,,,,,,,,,,,,,,
,,,,,SPR24_055,19,F,2024-04-16_16h36.41.802,jersey_experiment_5_v0,2023.2.2,Win32,84.74576271,,,,,,,,,,,,,,,,207.6584,208.9524,208.9525,210.7525,return,0.6365,,55.46875,0,53,53,31,1,FBP-RB-17.png,0.37,1.2,32,0.5,,,,,,,,,,,,,,,,,,,,,,,,,,,,,,,,,,,,,,,,,,,,,
,,,,,SPR24_055,19,F,2024-04-16_16h36.41.802,jersey_experiment_5_v0,2023.2.2,Win32,84.74576271,,,,,,,,,,,,,,,,210.7527,212.047,212.047,213.7289,return,0.7532,,58.85416667,0,54,54,38,1,FBP-RB-18.png,0.43,1.2,39,0.5,,,,,,,,,,,,,,,,,,,,,,,,,,,,,,,,,,,,,,,,,,,,,
,,,,,SPR24_055,19,F,2024-04-16_16h36.41.802,jersey_experiment_5_v0,2023.2.2,Win32,84.74576271,,,,,,,,,,,,,,,,213.7291,215.023,215.0231,216.3997,return,0.4837,,48.69791667,0,55,55,40,1,FBP-RB-19.png,0.35,1.2,41,0.5,,,,,,,,,,,,,,,,,,,,,,,,,,,,,,,,,,,,,,,,,,,,,
,,,,,SPR24_055,19,F,2024-04-16_16h36.41.802,jersey_experiment_5_v0,2023.2.2,Win32,84.74576271,,,,,,,,,,,,,,,,216.3999,217.6939,217.694,219.035,return,0.5577,,58.59375,0,56,56,12,1,FBP-OG-91.png,0.4,1.2,13,0.5,,,,,,,,,,,,,,,,,,,,,,,,,,,,,,,,,,,,,,,,,,,,,
,,,,,SPR24_055,19,F,2024-04-16_16h36.41.802,jersey_experiment_5_v0,2023.2.2,Win32,84.74576271,,,,,,,,,,,,,,,,219.0353,220.3294,220.3294,221.5764,return,0.4428,,76.43229167,0,57,57,43,1,FBP-RB-19.png,0.43,1.2,44,0.5,,,,,,,,,,,,,,,,,,,,,,,,,,,,,,,,,,,,,,,,,,,,,
,,,,,SPR24_055,19,F,2024-04-16_16h36.41.802,jersey_experiment_5_v0,2023.2.2,Win32,84.74576271,,,,,,,,,,,,,,,,221.5767,222.6235,222.6235,224.9294,return,1.3283,,48.95833333,0,58,58,15,1,FBP-YG-17.png,0.35,1.2,16,0.25,,,,,,,,,,,,,,,,,,,,,,,,,,,,,,,,,,,,,,,,,,,,,
,,,,,SPR24_055,19,F,2024-04-16_16h36.41.802,jersey_experiment_5_v0,2023.2.2,Win32,84.74576271,,,,,,,,,,,,,,,,224.9296,226.2237,226.2237,227.6942,return,0.6818,,60.02604167,0,59,59,3,1,FBP-OG-71.png,0.43,1.2,4,0.5,,,,,,,,,,,,,,,,,,,,,,,,,,,,,,,,,,,,,,,,,,,,,
,,,,,SPR24_055,19,F,2024-04-16_16h36.41.802,jersey_experiment_5_v0,2023.2.2,Win32,84.74576271,,,,,,,,,,,,,,,,227.6964,228.7413,228.7413,229.8706,return,0.425,,61.84895833,,,,,,FBP-YG-71.png,0.37,1.2,17,0.25,0,0,0,16,1,,,,,,,,,,,,,,,,,,,,,,,,,,,,,,,,,,,,,,,,
,,,,,SPR24_055,19,F,2024-04-16_16h36.41.802,jersey_experiment_5_v0,2023.2.2,Win32,84.74576271,,,,,,,,,,,,,,,,229.8709,231.1649,231.1649,232.5415,return,0.4484,,78.77604167,,,,,,FBP-OG-18.png,0.45,1.2,10,0.5,0,1,1,9,1,,,,,,,,,,,,,,,,,,,,,,,,,,,,,,,,,,,,,,,,
,,,,,SPR24_055,19,F,2024-04-16_16h36.41.802,jersey_experiment_5_v0,2023.2.2,Win32,84.74576271,,,,,,,,,,,,,,,,232.5418,233.8356,233.8356,234.8709,return,0.4999,,88.28125,,,,,,FBP-OG-19.png,0.45,1.2,15,0.5,0,2,2,14,1,,,,,,,,,,,,,,,,,,,,,,,,,,,,,,,,,,,,,,,,
,,,,,SPR24_055,19,F,2024-04-16_16h36.41.802,jersey_experiment_5_v0,2023.2.2,Win32,84.74576271,,,,,,,,,,,,,,,,234.871,236.1655,236.1655,237.5769,return,0.7248,,45.3125,,,,,,FBP-RB-81.png,0.37,1.2,37,0.5,0,3,3,36,1,,,,,,,,,,,,,,,,,,,,,,,,,,,,,,,,,,,,,,,,
,,,,,SPR24_055,19,F,2024-04-16_16h36.41.802,jersey_experiment_5_v0,2023.2.2,Win32,84.74576271,,,,,,,,,,,,,,,,237.5772,238.6239,238.624,240.0593,return,0.5325,,68.61979167,,,,,,FBP-PT-71.png,0.43,1.2,49,0.25,0,4,4,48,1,,,,,,,,,,,,,,,,,,,,,,,,,,,,,,,,,,,,,,,,
,,,,,SPR24_055,19,F,2024-04-16_16h36.41.802,jersey_experiment_5_v0,2023.2.2,Win32,84.74576271,,,,,,,,,,,,,,,,240.0596,241.1064,241.1065,242.7183,return,0.4338,,29.16666667,,,,,,FBP-YG-91.png,0.37,1.2,27,0.25,0,5,5,26,1,,,,,,,,,,,,,,,,,,,,,,,,,,,,,,,,,,,,,,,,
,,,,,SPR24_055,19,F,2024-04-16_16h36.41.802,jersey_experiment_5_v0,2023.2.2,Win32,84.74576271,,,,,,,,,,,,,,,,242.7184,243.7654,243.7655,245.5772,return,0.9467,,54.81770833,,,,,,FBP-PT-81.png,0.43,1.2,54,0.25,0,6,6,53,1,,,,,,,,,,,,,,,,,,,,,,,,,,,,,,,,,,,,,,,,
,,,,,SPR24_055,19,F,2024-04-16_16h36.41.802,jersey_experiment_5_v0,2023.2.2,Win32,84.74576271,,,,,,,,,,,,,,,,245.5775,246.6243,246.6243,248.6362,return,0.6979,,21.35416667,,,,,,FBP-PT-91.png,0.35,1.2,56,0.25,0,7,7,55,1,,,,,,,,,,,,,,,,,,,,,,,,,,,,,,,,,,,,,,,,
,,,,,SPR24_055,19,F,2024-04-16_16h36.41.802,jersey_experiment_5_v0,2023.2.2,Win32,84.74576271,,,,,,,,,,,,,,,,248.6364,249.6831,249.6832,251.3775,return,1.1402,,24.47916667,,,,,,FBP-YG-81.png,0.35,1.2,21,0.25,0,8,8,20,1,,,,,,,,,,,,,,,,,,,,,,,,,,,,,,,,,,,,,,,,
,,,,,SPR24_055,19,F,2024-04-16_16h36.41.802,jersey_experiment_5_v0,2023.2.2,Win32,84.74576271,,,,,,,,,,,,,,,,251.3777,252.6715,252.6715,254.3776,return,0.617,,63.671875,,,,,,FBP-RB-71.png,0.45,1.2,35,0.5,0,9,9,34,1,,,,,,,,,,,,,,,,,,,,,,,,,,,,,,,,,,,,,,,,
,,,,,SPR24_055,19,F,2024-04-16_16h36.41.802,jersey_experiment_5_v0,2023.2.2,Win32,84.74576271,,,,,,,,,,,,,,,,254.3779,255.4246,255.4247,256.8129,return,0.5442,,79.94791667,,,,,,FBP-YG-71.png,0.45,1.2,20,0.25,0,10,10,19,1,,,,,,,,,,,,,,,,,,,,,,,,,,,,,,,,,,,,,,,,
,,,,,SPR24_055,19,F,2024-04-16_16h36.41.802,jersey_experiment_5_v0,2023.2.2,Win32,84.74576271,,,,,,,,,,,,,,,,256.8131,257.86,257.86,258.9306,return,0.4341,,79.03645833,,,,,,FBP-YG-91.png,0.43,1.2,29,0.25,0,11,11,28,1,,,,,,,,,,,,,,,,,,,,,,,,,,,,,,,,,,,,,,,,
,,,,,SPR24_055,19,F,2024-04-16_16h36.41.802,jersey_experiment_5_v0,2023.2.2,Win32,84.74576271,,,,,,,,,,,,,,,,258.9309,259.9778,259.9778,261.9188,return,0.8332,,44.53125,,,,,,FBP-YG-91.png,0.35,1.2,26,0.25,0,12,12,25,1,,,,,,,,,,,,,,,,,,,,,,,,,,,,,,,,,,,,,,,,
,,,,,SPR24_055,19,F,2024-04-16_16h36.41.802,jersey_experiment_5_v0,2023.2.2,Win32,84.74576271,,,,,,,,,,,,,,,,261.9191,262.9661,262.9661,265.5545,return,0.4606,,78.515625,,,,,,FBP-PT-81.png,0.45,1.2,55,0.25,0,13,13,54,1,,,,,,,,,,,,,,,,,,,,,,,,,,,,,,,,,,,,,,,,
,,,,,SPR24_055,19,F,2024-04-16_16h36.41.802,jersey_experiment_5_v0,2023.2.2,Win32,84.74576271,,,,,,,,,,,,,,,,265.5547,266.6016,266.6016,268.0722,return,0.4532,,58.984375,,,,,,FBP-PT-91.png,0.4,1.2,58,0.25,0,14,14,57,1,,,,,,,,,,,,,,,,,,,,,,,,,,,,,,,,,,,,,,,,
,,,,,SPR24_055,19,F,2024-04-16_16h36.41.802,jersey_experiment_5_v0,2023.2.2,Win32,84.74576271,,,,,,,,,,,,,,,,268.0724,269.1192,269.1193,270.4252,return,0.6171,,36.71875,,,,,,FBP-PT-81.png,0.37,1.2,52,0.25,0,15,15,51,1,,,,,,,,,,,,,,,,,,,,,,,,,,,,,,,,,,,,,,,,
,,,,,SPR24_055,19,F,2024-04-16_16h36.41.802,jersey_experiment_5_v0,2023.2.2,Win32,84.74576271,,,,,,,,,,,,,,,,270.4255,271.7194,271.7196,272.8136,return,0.4026,,45.703125,,,,,,FBP-RB-91.png,0.37,1.2,42,0.5,0,16,16,41,1,,,,,,,,,,,,,,,,,,,,,,,,,,,,,,,,,,,,,,,,
,,,,,SPR24_055,19,F,2024-04-16_16h36.41.802,jersey_experiment_5_v0,2023.2.2,Win32,84.74576271,,,,,,,,,,,,,,,,272.8139,274.1076,274.1077,275.3194,return,0.9718,,31.77083333,,,,,,FBP-RB-91.png,0.35,1.2,41,0.5,0,17,17,40,1,,,,,,,,,,,,,,,,,,,,,,,,,,,,,,,,,,,,,,,,
,,,,,SPR24_055,19,F,2024-04-16_16h36.41.802,jersey_experiment_5_v0,2023.2.2,Win32,84.74576271,,,,,,,,,,,,,,,,275.3197,276.3665,276.3666,277.649,return,0.4843,,23.828125,,,,,,FBP-PT-91.png,0.37,1.2,57,0.25,0,18,18,56,1,,,,,,,,,,,,,,,,,,,,,,,,,,,,,,,,,,,,,,,,
,,,,,SPR24_055,19,F,2024-04-16_16h36.41.802,jersey_experiment_5_v0,2023.2.2,Win32,84.74576271,,,,,,,,,,,,,,,,277.6492,278.696,278.696,281.3549,return,0.6402,,70.05208333,,,,,,FBP-PT-91.png,0.43,1.2,59,0.25,0,19,19,58,1,,,,,,,,,,,,,,,,,,,,,,,,,,,,,,,,,,,,,,,,
,,,,,SPR24_055,19,F,2024-04-16_16h36.41.802,jersey_experiment_5_v0,2023.2.2,Win32,84.74576271,,,,,,,,,,,,,,,,281.3551,282.6492,282.6493,284.6023,return,1.1117,,30.46875,,,,,,FBP-OG-17.png,0.35,1.2,1,0.5,0,20,20,0,1,,,,,,,,,,,,,,,,,,,,,,,,,,,,,,,,,,,,,,,,
,,,,,SPR24_055,19,F,2024-04-16_16h36.41.802,jersey_experiment_5_v0,2023.2.2,Win32,84.74576271,,,,,,,,,,,,,,,,284.6026,285.8961,285.8962,290.0496,return,1.6945,,66.66666667,,,,,,FBP-RB-91.png,0.43,1.2,44,0.5,0,21,21,43,1,,,,,,,,,,,,,,,,,,,,,,,,,,,,,,,,,,,,,,,,
,,,,,SPR24_055,19,F,2024-04-16_16h36.41.802,jersey_experiment_5_v0,2023.2.2,Win32,84.74576271,,,,,,,,,,,,,,,,290.0498,291.0965,291.0966,292.7673,return,0.5522,,25.91145833,,,,,,FBP-PT-71.png,0.37,1.2,47,0.25,0,22,22,46,1,,,,,,,,,,,,,,,,,,,,,,,,,,,,,,,,,,,,,,,,
,,,,,SPR24_055,19,F,2024-04-16_16h36.41.802,jersey_experiment_5_v0,2023.2.2,Win32,84.74576271,,,,,,,,,,,,,,,,292.7675,293.8143,293.8143,296.3673,return,0.8097,,57.55208333,,,,,,FBP-YG-91.png,0.4,1.2,28,0.25,0,23,23,27,1,,,,,,,,,,,,,,,,,,,,,,,,,,,,,,,,,,,,,,,,
,,,,,SPR24_055,19,F,2024-04-16_16h36.41.802,jersey_experiment_5_v0,2023.2.2,Win32,84.74576271,,,,,,,,,,,,,,,,296.3675,297.4147,297.4148,300.6852,return,2.2598,,48.17708333,,,,,,FBP-YG-81.png,0.37,1.2,22,0.25,0,24,24,21,1,,,,,,,,,,,,,,,,,,,,,,,,,,,,,,,,,,,,,,,,
,,,,,SPR24_055,19,F,2024-04-16_16h36.41.802,jersey_experiment_5_v0,2023.2.2,Win32,84.74576271,,,,,,,,,,,,,,,,300.6854,301.7322,301.7322,303.344,return,0.5403,,25.390625,,,,,,FBP-YG-71.png,0.35,1.2,16,0.25,0,25,25,15,1,,,,,,,,,,,,,,,,,,,,,,,,,,,,,,,,,,,,,,,,
,,,,,SPR24_055,19,F,2024-04-16_16h36.41.802,jersey_experiment_5_v0,2023.2.2,Win32,84.74576271,,,,,,,,,,,,,,,,303.3442,304.6385,304.6386,306.0971,return,0.588,,72.265625,,,,,,FBP-RB-91.png,0.45,1.2,45,0.5,0,26,26,44,1,,,,,,,,,,,,,,,,,,,,,,,,,,,,,,,,,,,,,,,,
,,,,,SPR24_055,19,F,2024-04-16_16h36.41.802,jersey_experiment_5_v0,2023.2.2,Win32,84.74576271,,,,,,,,,,,,,,,,306.0973,307.1442,307.1442,308.6736,return,0.518,,27.34375,,,,,,FBP-PT-81.png,0.35,1.2,51,0.25,0,27,27,50,1,,,,,,,,,,,,,,,,,,,,,,,,,,,,,,,,,,,,,,,,
,,,,,SPR24_055,19,F,2024-04-16_16h36.41.802,jersey_experiment_5_v0,2023.2.2,Win32,84.74576271,,,,,,,,,,,,,,,,308.6739,309.968,309.968,311.0738,return,0.387,,72.91666667,,,,,,FBP-OG-17.png,0.43,1.2,4,0.5,0,28,28,3,1,,,,,,,,,,,,,,,,,,,,,,,,,,,,,,,,,,,,,,,,
,,,,,SPR24_055,19,F,2024-04-16_16h36.41.802,jersey_experiment_5_v0,2023.2.2,Win32,84.74576271,,,,,,,,,,,,,,,,311.074,312.3681,312.3681,314.368,return,0.4706,,48.828125,,,,,,FBP-RB-71.png,0.37,1.2,32,0.5,0,29,29,31,1,,,,,,,,,,,,,,,,,,,,,,,,,,,,,,,,,,,,,,,,
,,,,,SPR24_055,19,F,2024-04-16_16h36.41.802,jersey_experiment_5_v0,2023.2.2,Win32,84.74576271,,,,,,,,,,,,,,,,314.3683,315.6621,315.6621,317.8151,return,1.1369,,46.09375,,,,,,FBP-OG-19.png,0.37,1.2,12,0.5,0,30,30,11,1,,,,,,,,,,,,,,,,,,,,,,,,,,,,,,,,,,,,,,,,
,,,,,SPR24_055,19,F,2024-04-16_16h36.41.802,jersey_experiment_5_v0,2023.2.2,Win32,84.74576271,,,,,,,,,,,,,,,,317.8154,318.8622,318.8622,320.4741,return,0.5826,,85.67708333,,,,,,FBP-PT-71.png,0.45,1.2,50,0.25,0,31,31,49,1,,,,,,,,,,,,,,,,,,,,,,,,,,,,,,,,,,,,,,,,
,,,,,SPR24_055,19,F,2024-04-16_16h36.41.802,jersey_experiment_5_v0,2023.2.2,Win32,84.74576271,,,,,,,,,,,,,,,,320.4743,321.7685,321.7685,323.2978,return,0.4706,,21.09375,,,,,,FBP-RB-71.png,0.35,1.2,31,0.5,0,32,32,30,1,,,,,,,,,,,,,,,,,,,,,,,,,,,,,,,,,,,,,,,,
,,,,,SPR24_055,19,F,2024-04-16_16h36.41.802,jersey_experiment_5_v0,2023.2.2,Win32,84.74576271,,,,,,,,,,,,,,,,323.2981,324.3449,324.3449,325.7214,return,0.4656,,69.79166667,,,,,,FBP-YG-91.png,0.45,1.2,30,0.25,0,33,33,29,1,,,,,,,,,,,,,,,,,,,,,,,,,,,,,,,,,,,,,,,,
,,,,,SPR24_055,19,F,2024-04-16_16h36.41.802,jersey_experiment_5_v0,2023.2.2,Win32,84.74576271,,,,,,,,,,,,,,,,325.7217,327.0158,327.0158,328.4274,return,0.4503,,51.04166667,,,,,,FBP-OG-18.png,0.4,1.2,8,0.5,0,34,34,7,1,,,,,,,,,,,,,,,,,,,,,,,,,,,,,,,,,,,,,,,,
,,,,,SPR24_055,19,F,2024-04-16_16h36.41.802,jersey_experiment_5_v0,2023.2.2,Win32,84.74576271,,,,,,,,,,,,,,,,328.4277,329.7217,329.7218,330.9921,return,0.4609,,42.578125,,,,,,FBP-RB-81.png,0.35,1.2,36,0.5,0,35,35,35,1,,,,,,,,,,,,,,,,,,,,,,,,,,,,,,,,,,,,,,,,
,,,,,SPR24_055,19,F,2024-04-16_16h36.41.802,jersey_experiment_5_v0,2023.2.2,Win32,84.74576271,,,,,,,,,,,,,,,,330.9924,332.2866,332.2866,333.8746,return,0.377,,74.47916667,,,,,,FBP-RB-81.png,0.43,1.2,39,0.5,0,36,36,38,1,,,,,,,,,,,,,,,,,,,,,,,,,,,,,,,,,,,,,,,,
,,,,,SPR24_055,19,F,2024-04-16_16h36.41.802,jersey_experiment_5_v0,2023.2.2,Win32,84.74576271,,,,,,,,,,,,,,,,333.8748,335.1689,335.169,337.3688,return,0.8426,,27.34375,,,,,,FBP-OG-18.png,0.35,1.2,6,0.5,0,37,37,5,1,,,,,,,,,,,,,,,,,,,,,,,,,,,,,,,,,,,,,,,,
,,,,,SPR24_055,19,F,2024-04-16_16h36.41.802,jersey_experiment_5_v0,2023.2.2,Win32,84.74576271,,,,,,,,,,,,,,,,337.3691,338.4159,338.4159,340.863,return,0.9513,,53.64583333,,,,,,FBP-YG-81.png,0.4,1.2,23,0.25,0,38,38,22,1,,,,,,,,,,,,,,,,,,,,,,,,,,,,,,,,,,,,,,,,
,,,,,SPR24_055,19,F,2024-04-16_16h36.41.802,jersey_experiment_5_v0,2023.2.2,Win32,84.74576271,,,,,,,,,,,,,,,,340.8633,341.9103,341.9104,343.0397,return,0.3523,,67.578125,,,,,,FBP-YG-71.png,0.4,1.2,18,0.25,0,39,39,17,1,,,,,,,,,,,,,,,,,,,,,,,,,,,,,,,,,,,,,,,,
,,,,,SPR24_055,19,F,2024-04-16_16h36.41.802,jersey_experiment_5_v0,2023.2.2,Win32,84.74576271,,,,,,,,,,,,,,,,343.0399,344.0868,344.0868,345.4868,return,0.5308,,77.734375,,,,,,FBP-YG-71.png,0.43,1.2,19,0.25,0,40,40,18,1,,,,,,,,,,,,,,,,,,,,,,,,,,,,,,,,,,,,,,,,
,,,,,SPR24_055,19,F,2024-04-16_16h36.41.802,jersey_experiment_5_v0,2023.2.2,Win32,84.74576271,,,,,,,,,,,,,,,,345.4872,346.5338,346.5338,347.8871,return,0.4461,,70.18229167,,,,,,FBP-PT-81.png,0.4,1.2,53,0.25,0,41,41,52,1,,,,,,,,,,,,,,,,,,,,,,,,,,,,,,,,,,,,,,,,
,,,,,SPR24_055,19,F,2024-04-16_16h36.41.802,jersey_experiment_5_v0,2023.2.2,Win32,84.74576271,,,,,,,,,,,,,,,,347.8872,348.9338,348.9338,350.8634,return,1.1166,,61.71875,,,,,,FBP-PT-71.png,0.4,1.2,48,0.25,0,42,42,47,1,,,,,,,,,,,,,,,,,,,,,,,,,,,,,,,,,,,,,,,,
,,,,,SPR24_055,19,F,2024-04-16_16h36.41.802,jersey_experiment_5_v0,2023.2.2,Win32,84.74576271,,,,,,,,,,,,,,,,350.8635,352.1577,352.1578,353.1458,return,0.4632,,74.47916667,,,,,,FBP-RB-81.png,0.45,1.2,40,0.5,0,43,43,39,1,,,,,,,,,,,,,,,,,,,,,,,,,,,,,,,,,,,,,,,,
,,,,,SPR24_055,19,F,2024-04-16_16h36.41.802,jersey_experiment_5_v0,2023.2.2,Win32,84.74576271,,,,,,,,,,,,,,,,353.146,354.1931,354.1932,355.7461,return,0.8724,,71.22395833,,,,,,FBP-PT-91.png,0.45,1.2,60,0.25,0,44,44,59,1,,,,,,,,,,,,,,,,,,,,,,,,,,,,,,,,,,,,,,,,
,,,,,SPR24_055,19,F,2024-04-16_16h36.41.802,jersey_experiment_5_v0,2023.2.2,Win32,84.74576271,,,,,,,,,,,,,,,,355.7463,356.793,356.793,358.3814,return,0.4006,,38.28125,,,,,,FBP-PT-71.png,0.35,1.2,46,0.25,0,45,45,45,1,,,,,,,,,,,,,,,,,,,,,,,,,,,,,,,,,,,,,,,,
,,,,,SPR24_055,19,F,2024-04-16_16h36.41.802,jersey_experiment_5_v0,2023.2.2,Win32,84.74576271,,,,,,,,,,,,,,,,358.3816,359.6756,359.6757,362.2403,return,0.4001,,51.69270833,,,,,,FBP-OG-18.png,0.43,1.2,9,0.5,0,46,46,8,1,,,,,,,,,,,,,,,,,,,,,,,,,,,,,,,,,,,,,,,,
,,,,,SPR24_055,19,F,2024-04-16_16h36.41.802,jersey_experiment_5_v0,2023.2.2,Win32,84.74576271,,,,,,,,,,,,,,,,362.2405,363.5345,363.5346,364.4406,return,0.3698,,54.03645833,,,,,,FBP-RB-91.png,0.4,1.2,43,0.5,0,47,47,42,1,,,,,,,,,,,,,,,,,,,,,,,,,,,,,,,,,,,,,,,,
,,,,,SPR24_055,19,F,2024-04-16_16h36.41.802,jersey_experiment_5_v0,2023.2.2,Win32,84.74576271,,,,,,,,,,,,,,,,364.4408,365.7346,365.7346,366.8641,return,0.3863,,59.24479167,,,,,,FBP-OG-19.png,0.4,1.2,13,0.5,0,48,48,12,1,,,,,,,,,,,,,,,,,,,,,,,,,,,,,,,,,,,,,,,,
,,,,,SPR24_055,19,F,2024-04-16_16h36.41.802,jersey_experiment_5_v0,2023.2.2,Win32,84.74576271,,,,,,,,,,,,,,,,366.8643,368.1582,368.1582,370.5467,return,1.8019,,81.38020833,,,,,,FBP-OG-17.png,0.45,1.2,5,0.5,0,49,49,4,1,,,,,,,,,,,,,,,,,,,,,,,,,,,,,,,,,,,,,,,,
,,,,,SPR24_055,19,F,2024-04-16_16h36.41.802,jersey_experiment_5_v0,2023.2.2,Win32,84.74576271,,,,,,,,,,,,,,,,370.5469,371.8408,371.8408,372.7937,return,0.4166,,74.34895833,,,,,,FBP-RB-71.png,0.43,1.2,34,0.5,0,50,50,33,1,,,,,,,,,,,,,,,,,,,,,,,,,,,,,,,,,,,,,,,,
,,,,,SPR24_055,19,F,2024-04-16_16h36.41.802,jersey_experiment_5_v0,2023.2.2,Win32,84.74576271,,,,,,,,,,,,,,,,372.7938,373.8408,373.8408,374.9114,return,0.4476,,77.734375,,,,,,FBP-YG-81.png,0.43,1.2,24,0.25,0,51,51,23,1,,,,,,,,,,,,,,,,,,,,,,,,,,,,,,,,,,,,,,,,
,,,,,SPR24_055,19,F,2024-04-16_16h36.41.802,jersey_experiment_5_v0,2023.2.2,Win32,84.74576271,,,,,,,,,,,,,,,,374.9116,376.2056,376.2056,377.4998,return,0.5218,,69.921875,,,,,,FBP-OG-19.png,0.43,1.2,14,0.5,0,52,52,13,1,,,,,,,,,,,,,,,,,,,,,,,,,,,,,,,,,,,,,,,,
,,,,,SPR24_055,19,F,2024-04-16_16h36.41.802,jersey_experiment_5_v0,2023.2.2,Win32,84.74576271,,,,,,,,,,,,,,,,377.5,378.7939,378.794,379.794,return,0.5663,,76.04166667,,,,,,FBP-RB-81.png,0.4,1.2,38,0.5,0,53,53,37,1,,,,,,,,,,,,,,,,,,,,,,,,,,,,,,,,,,,,,,,,
,,,,,SPR24_055,19,F,2024-04-16_16h36.41.802,jersey_experiment_5_v0,2023.2.2,Win32,84.74576271,,,,,,,,,,,,,,,,379.7943,381.0884,381.0884,382.3939,return,0.4294,,73.30729167,,,,,,FBP-RB-71.png,0.4,1.2,33,0.5,0,54,54,32,1,,,,,,,,,,,,,,,,,,,,,,,,,,,,,,,,,,,,,,,,
,,,,,SPR24_055,19,F,2024-04-16_16h36.41.802,jersey_experiment_5_v0,2023.2.2,Win32,84.74576271,,,,,,,,,,,,,,,,382.3941,383.6883,383.6884,384.8176,return,0.4104,,72.39583333,,,,,,FBP-OG-17.png,0.4,1.2,3,0.5,0,55,55,2,1,,,,,,,,,,,,,,,,,,,,,,,,,,,,,,,,,,,,,,,,
,,,,,SPR24_055,19,F,2024-04-16_16h36.41.802,jersey_experiment_5_v0,2023.2.2,Win32,84.74576271,,,,,,,,,,,,,,,,384.8179,386.1118,386.1119,387.5,return,0.4746,,33.46354167,,,,,,FBP-OG-19.png,0.35,1.2,11,0.5,0,56,56,10,1,,,,,,,,,,,,,,,,,,,,,,,,,,,,,,,,,,,,,,,,
,,,,,SPR24_055,19,F,2024-04-16_16h36.41.802,jersey_experiment_5_v0,2023.2.2,Win32,84.74576271,,,,,,,,,,,,,,,,387.5003,388.7944,388.7944,389.8414,return,0.4002,,24.86979167,,,,,,FBP-OG-18.png,0.37,1.2,7,0.5,0,57,57,6,1,,,,,,,,,,,,,,,,,,,,,,,,,,,,,,,,,,,,,,,,
,,,,,SPR24_055,19,F,2024-04-16_16h36.41.802,jersey_experiment_5_v0,2023.2.2,Win32,84.74576271,,,,,,,,,,,,,,,,389.8417,391.1357,391.1357,392.1356,return,0.5129,,29.03645833,,,,,,FBP-OG-17.png,0.37,1.2,2,0.5,0,58,58,1,1,,,,,,,,,,,,,,,,,,,,,,,,,,,,,,,,,,,,,,,,
,,,,,SPR24_055,19,F,2024-04-16_16h36.41.802,jersey_experiment_5_v0,2023.2.2,Win32,84.74576271,,,,,,,,,,,,,,,,392.1357,393.1827,393.1827,394.818,return,0.5413,,86.328125,,,,,,FBP-YG-81.png,0.45,1.2,25,0.25,0,59,59,24,1,,,,,,,,,,,,,,,,,,,,,,,,,,,,,,,,,,,,,,,,
,,,,,SPR24_055,19,F,2024-04-16_16h36.41.802,jersey_experiment_5_v0,2023.2.2,Win32,84.74576271,,,,,,,,,,,,,,,,,,,,,,,,,,,,,,,,,,,,,,,394.8183,514.8111,,,,,,,,,,,,,,,,,,,,,,,,,,,,,,,,,,,,,,
,,,,,SPR24_055,19,F,2024-04-16_16h36.41.802,jersey_experiment_5_v0,2023.2.2,Win32,84.74576271,,,,,,,,,,,,,,,,,,,,,,,,,,,,,,,,,,,,,,,,,514.8113,518.2226,return,3.4014,,,,,,,,,,,,,,,,,,,,,,,,,,,,,,,,,,
,,,,,SPR24_055,19,F,2024-04-16_16h36.41.802,jersey_experiment_5_v0,2023.2.2,Win32,84.74576271,,,,,,,,,,,,,,,,518.2287,519.2817,519.2817,524.3288,return,1.9469,,47.91666667,,,,,,FBP-RB-17.png,0.4,1.2,33,0.25,,,,,,,,,,,,,0,0,0,32,1,,,,,,,,,,,,,,,,,,,,,,,,,,,,
,,,,,SPR24_055,19,F,2024-04-16_16h36.41.802,jersey_experiment_5_v0,2023.2.2,Win32,84.74576271,,,,,,,,,,,,,,,,524.3293,525.6229,525.623,527.6935,return,0.9305,,55.078125,,,,,,FBP-PT-18.png,0.4,1.2,53,0.5,,,,,,,,,,,,,0,1,1,52,1,,,,,,,,,,,,,,,,,,,,,,,,,,,,
,,,,,SPR24_055,19,F,2024-04-16_16h36.41.802,jersey_experiment_5_v0,2023.2.2,Win32,84.74576271,,,,,,,,,,,,,,,,527.6938,528.7408,528.7408,530.5408,return,0.2622,,69.79166667,,,,,,FBP-OG-81.png,0.45,1.2,10,0.25,,,,,,,,,,,,,0,2,2,9,1,,,,,,,,,,,,,,,,,,,,,,,,,,,,
,,,,,SPR24_055,19,F,2024-04-16_16h36.41.802,jersey_experiment_5_v0,2023.2.2,Win32,84.74576271,,,,,,,,,,,,,,,,530.541,531.588,531.588,532.5995,return,0.0672,,28.38541667,,,,,,FBP-OG-81.png,0.35,1.2,6,0.25,,,,,,,,,,,,,0,3,3,5,1,,,,,,,,,,,,,,,,,,,,,,,,,,,,
,,,,,SPR24_055,19,F,2024-04-16_16h36.41.802,jersey_experiment_5_v0,2023.2.2,Win32,84.74576271,,,,,,,,,,,,,,,,532.5998,533.894,533.8941,534.7056,return,0.1182,,25.52083333,,,,,,FBP-PT-18.png,0.37,1.2,52,0.5,,,,,,,,,,,,,0,4,4,51,1,,,,,,,,,,,,,,,,,,,,,,,,,,,,
,,,,,SPR24_055,19,F,2024-04-16_16h36.41.802,jersey_experiment_5_v0,2023.2.2,Win32,84.74576271,,,,,,,,,,,,,,,,534.7059,535.9997,535.9998,536.6585,return,0.0099,,30.59895833,,,,,,FBP-YG-17.png,0.37,1.2,17,0.5,,,,,,,,,,,,,0,5,5,16,1,,,,,,,,,,,,,,,,,,,,,,,,,,,,
,,,,,SPR24_055,19,F,2024-04-16_16h36.41.802,jersey_experiment_5_v0,2023.2.2,Win32,84.74576271,,,,,,,,,,,,,,,,536.6586,537.7057,537.7057,538.9527,return,0.4518,,35.02604167,,,,,,FBP-OG-71.png,0.37,1.2,2,0.25,,,,,,,,,,,,,0,6,6,1,1,,,,,,,,,,,,,,,,,,,,,,,,,,,,
,,,,,SPR24_055,19,F,2024-04-16_16h36.41.802,jersey_experiment_5_v0,2023.2.2,Win32,84.74576271,,,,,,,,,,,,,,,,538.9529,539.9998,539.9998,542.2235,return,1.7316,,45.18229167,,,,,,FBP-RB-19.png,0.37,1.2,42,0.25,,,,,,,,,,,,,0,7,7,41,1,,,,,,,,,,,,,,,,,,,,,,,,,,,,
,,,,,SPR24_055,19,F,2024-04-16_16h36.41.802,jersey_experiment_5_v0,2023.2.2,Win32,84.74576271,,,,,,,,,,,,,,,,542.2237,543.5176,543.5177,544.3648,return,0.1435,,55.33854167,,,,,,FBP-YG-19.png,0.4,1.2,28,0.5,,,,,,,,,,,,,0,8,8,27,1,,,,,,,,,,,,,,,,,,,,,,,,,,,,
,,,,,SPR24_055,19,F,2024-04-16_16h36.41.802,jersey_experiment_5_v0,2023.2.2,Win32,84.74576271,,,,,,,,,,,,,,,,544.365,545.6589,545.6589,546.3648,return,0.2126,,58.203125,,,,,,FBP-PT-17.png,0.37,1.2,47,0.5,,,,,,,,,,,,,0,9,9,46,1,,,,,,,,,,,,,,,,,,,,,,,,,,,,
,,,,,SPR24_055,19,F,2024-04-16_16h36.41.802,jersey_experiment_5_v0,2023.2.2,Win32,84.74576271,,,,,,,,,,,,,,,,546.365,547.6592,547.6592,548.4119,return,0.1098,,45.3125,,,,,,FBP-YG-17.png,0.35,1.2,16,0.5,,,,,,,,,,,,,0,10,10,15,1,,,,,,,,,,,,,,,,,,,,,,,,,,,,
,,,,,SPR24_055,19,F,2024-04-16_16h36.41.802,jersey_experiment_5_v0,2023.2.2,Win32,84.74576271,,,,,,,,,,,,,,,,548.4122,549.4589,549.4589,550.7063,return,0.1415,,73.828125,,,,,,FBP-RB-18.png,0.43,1.2,39,0.25,,,,,,,,,,,,,0,11,11,38,1,,,,,,,,,,,,,,,,,,,,,,,,,,,,
,,,,,SPR24_055,19,F,2024-04-16_16h36.41.802,jersey_experiment_5_v0,2023.2.2,Win32,84.74576271,,,,,,,,,,,,,,,,550.7065,552.0004,552.0004,553.2712,return,0.5841,,70.57291667,,,,,,FBP-YG-18.png,0.4,1.2,23,0.5,,,,,,,,,,,,,0,12,12,22,1,,,,,,,,,,,,,,,,,,,,,,,,,,,,
,,,,,SPR24_055,19,F,2024-04-16_16h36.41.802,jersey_experiment_5_v0,2023.2.2,Win32,84.74576271,,,,,,,,,,,,,,,,553.2714,554.5651,554.5653,555.1181,return,0.093,,83.46354167,,,,,,FBP-YG-18.png,0.43,1.2,24,0.5,,,,,,,,,,,,,0,13,13,23,1,,,,,,,,,,,,,,,,,,,,,,,,,,,,
,,,,,SPR24_055,19,F,2024-04-16_16h36.41.802,jersey_experiment_5_v0,2023.2.2,Win32,84.74576271,,,,,,,,,,,,,,,,555.1183,556.4122,556.4123,557.0475,return,0.0307,,72.39583333,,,,,,FBP-PT-19.png,0.4,1.2,58,0.5,,,,,,,,,,,,,0,14,14,57,1,,,,,,,,,,,,,,,,,,,,,,,,,,,,
,,,,,SPR24_055,19,F,2024-04-16_16h36.41.802,jersey_experiment_5_v0,2023.2.2,Win32,84.74576271,,,,,,,,,,,,,,,,557.0478,558.0946,558.0946,558.93,return,0.1327,,60.28645833,,,,,,FBP-OG-91.png,0.4,1.2,13,0.25,,,,,,,,,,,,,0,15,15,12,1,,,,,,,,,,,,,,,,,,,,,,,,,,,,
,,,,,SPR24_055,19,F,2024-04-16_16h36.41.802,jersey_experiment_5_v0,2023.2.2,Win32,84.74576271,,,,,,,,,,,,,,,,558.9303,560.2243,560.2243,561.2242,return,0.1122,,41.53645833,,,,,,FBP-PT-17.png,0.35,1.2,46,0.5,,,,,,,,,,,,,0,16,16,45,1,,,,,,,,,,,,,,,,,,,,,,,,,,,,
,,,,,SPR24_055,19,F,2024-04-16_16h36.41.802,jersey_experiment_5_v0,2023.2.2,Win32,84.74576271,,,,,,,,,,,,,,,,561.2244,562.2712,562.2714,563.4246,return,0.1084,,87.23958333,,,,,,FBP-RB-17.png,0.45,1.2,35,0.25,,,,,,,,,,,,,0,17,17,34,1,,,,,,,,,,,,,,,,,,,,,,,,,,,,
,,,,,SPR24_055,19,F,2024-04-16_16h36.41.802,jersey_experiment_5_v0,2023.2.2,Win32,84.74576271,,,,,,,,,,,,,,,,563.4248,564.7187,564.7187,565.4007,return,0.0297,,89.19270833,,,,,,FBP-YG-18.png,0.45,1.2,25,0.5,,,,,,,,,,,,,0,18,18,24,1,,,,,,,,,,,,,,,,,,,,,,,,,,,,
,,,,,SPR24_055,19,F,2024-04-16_16h36.41.802,jersey_experiment_5_v0,2023.2.2,Win32,84.74576271,,,,,,,,,,,,,,,,565.4009,566.4479,566.448,567.6128,return,0.1662,,85.546875,,,,,,FBP-RB-18.png,0.45,1.2,40,0.25,,,,,,,,,,,,,0,19,19,39,1,,,,,,,,,,,,,,,,,,,,,,,,,,,,
,,,,,SPR24_055,19,F,2024-04-16_16h36.41.802,jersey_experiment_5_v0,2023.2.2,Win32,84.74576271,,,,,,,,,,,,,,,,567.613,568.907,568.907,570.5069,return,0.0266,,50.13020833,,,,,,FBP-YG-19.png,0.37,1.2,27,0.5,,,,,,,,,,,,,0,20,20,26,1,,,,,,,,,,,,,,,,,,,,,,,,,,,,
,,,,,SPR24_055,19,F,2024-04-16_16h36.41.802,jersey_experiment_5_v0,2023.2.2,Win32,84.74576271,,,,,,,,,,,,,,,,570.5071,571.554,571.554,572.6951,return,0.0074,,53.515625,,,,,,FBP-OG-81.png,0.4,1.2,8,0.25,,,,,,,,,,,,,0,21,21,7,1,,,,,,,,,,,,,,,,,,,,,,,,,,,,
,,,,,SPR24_055,19,F,2024-04-16_16h36.41.802,jersey_experiment_5_v0,2023.2.2,Win32,84.74576271,,,,,,,,,,,,,,,,572.6953,573.9893,573.9894,575.0364,return,0.2953,,49.08854167,,,,,,FBP-PT-18.png,0.43,1.2,54,0.5,,,,,,,,,,,,,0,22,22,53,1,,,,,,,,,,,,,,,,,,,,,,,,,,,,
,,,,,SPR24_055,19,F,2024-04-16_16h36.41.802,jersey_experiment_5_v0,2023.2.2,Win32,84.74576271,,,,,,,,,,,,,,,,575.0367,576.3307,576.3307,577.8365,return,0.0376,,47.265625,,,,,,FBP-PT-17.png,0.4,1.2,48,0.5,,,,,,,,,,,,,0,23,23,47,1,,,,,,,,,,,,,,,,,,,,,,,,,,,,
,,,,,SPR24_055,19,F,2024-04-16_16h36.41.802,jersey_experiment_5_v0,2023.2.2,Win32,84.74576271,,,,,,,,,,,,,,,,577.8367,578.8837,578.8837,579.9307,return,0.1462,,35.15625,,,,,,FBP-OG-81.png,0.37,1.2,7,0.25,,,,,,,,,,,,,0,24,24,6,1,,,,,,,,,,,,,,,,,,,,,,,,,,,,
,,,,,SPR24_055,19,F,2024-04-16_16h36.41.802,jersey_experiment_5_v0,2023.2.2,Win32,84.74576271,,,,,,,,,,,,,,,,579.9309,580.978,580.9781,582.4602,return,0.4961,,8.723958333,,,,,,FBP-OG-71.png,0.35,1.2,1,0.25,,,,,,,,,,,,,0,25,25,0,1,,,,,,,,,,,,,,,,,,,,,,,,,,,,
,,,,,SPR24_055,19,F,2024-04-16_16h36.41.802,jersey_experiment_5_v0,2023.2.2,Win32,84.74576271,,,,,,,,,,,,,,,,582.4604,583.7547,583.7547,585.0367,return,0.0738,,72.91666667,,,,,,FBP-YG-19.png,0.45,1.2,30,0.5,,,,,,,,,,,,,0,26,26,29,1,,,,,,,,,,,,,,,,,,,,,,,,,,,,
,,,,,SPR24_055,19,F,2024-04-16_16h36.41.802,jersey_experiment_5_v0,2023.2.2,Win32,84.74576271,,,,,,,,,,,,,,,,585.0369,586.084,586.0841,587.0016,return,0.0184,,31.90104167,,,,,,FBP-OG-91.png,0.37,1.2,12,0.25,,,,,,,,,,,,,0,27,27,11,1,,,,,,,,,,,,,,,,,,,,,,,,,,,,
,,,,,SPR24_055,19,F,2024-04-16_16h36.41.802,jersey_experiment_5_v0,2023.2.2,Win32,84.74576271,,,,,,,,,,,,,,,,587.002,588.296,588.296,589.0841,return,0.1211,,70.703125,,,,,,FBP-PT-17.png,0.43,1.2,49,0.5,,,,,,,,,,,,,0,28,28,48,1,,,,,,,,,,,,,,,,,,,,,,,,,,,,
,,,,,SPR24_055,19,F,2024-04-16_16h36.41.802,jersey_experiment_5_v0,2023.2.2,Win32,84.74576271,,,,,,,,,,,,,,,,589.0843,590.1311,590.1311,591.449,return,0.0657,,29.6875,,,,,,FBP-RB-17.png,0.37,1.2,32,0.25,,,,,,,,,,,,,0,29,29,31,1,,,,,,,,,,,,,,,,,,,,,,,,,,,,
,,,,,SPR24_055,19,F,2024-04-16_16h36.41.802,jersey_experiment_5_v0,2023.2.2,Win32,84.74576271,,,,,,,,,,,,,,,,591.4493,592.743,592.7431,594.508,return,0.4262,,77.734375,,,,,,FBP-YG-17.png,0.45,1.2,20,0.5,,,,,,,,,,,,,0,30,30,19,1,,,,,,,,,,,,,,,,,,,,,,,,,,,,
,,,,,SPR24_055,19,F,2024-04-16_16h36.41.802,jersey_experiment_5_v0,2023.2.2,Win32,84.74576271,,,,,,,,,,,,,,,,594.5082,595.5549,595.555,597.0257,return,0.1177,,19.40104167,,,,,,FBP-RB-18.png,0.35,1.2,36,0.25,,,,,,,,,,,,,0,31,31,35,1,,,,,,,,,,,,,,,,,,,,,,,,,,,,
,,,,,SPR24_055,19,F,2024-04-16_16h36.41.802,jersey_experiment_5_v0,2023.2.2,Win32,84.74576271,,,,,,,,,,,,,,,,597.0259,598.0726,598.0727,599.4727,return,0.2342,,69.79166667,,,,,,FBP-RB-19.png,0.43,1.2,44,0.25,,,,,,,,,,,,,0,32,32,43,1,,,,,,,,,,,,,,,,,,,,,,,,,,,,
,,,,,SPR24_055,19,F,2024-04-16_16h36.41.802,jersey_experiment_5_v0,2023.2.2,Win32,84.74576271,,,,,,,,,,,,,,,,599.4729,600.5197,600.5197,601.2022,return,0.0942,,82.94270833,,,,,,FBP-RB-19.png,0.45,1.2,45,0.25,,,,,,,,,,,,,0,33,33,44,1,,,,,,,,,,,,,,,,,,,,,,,,,,,,
,,,,,SPR24_055,19,F,2024-04-16_16h36.41.802,jersey_experiment_5_v0,2023.2.2,Win32,84.74576271,,,,,,,,,,,,,,,,601.2025,602.4964,602.4964,603.52,return,0.1074,,9.114583333,,,,,,FBP-YG-18.png,0.35,1.2,21,0.5,,,,,,,,,,,,,0,34,34,20,1,,,,,,,,,,,,,,,,,,,,,,,,,,,,
,,,,,SPR24_055,19,F,2024-04-16_16h36.41.802,jersey_experiment_5_v0,2023.2.2,Win32,84.74576271,,,,,,,,,,,,,,,,603.5204,604.8142,604.8142,606.0141,return,0.5077,,15.88541667,,,,,,FBP-PT-19.png,0.37,1.2,57,0.5,,,,,,,,,,,,,0,35,35,56,1,,,,,,,,,,,,,,,,,,,,,,,,,,,,
,,,,,SPR24_055,19,F,2024-04-16_16h36.41.802,jersey_experiment_5_v0,2023.2.2,Win32,84.74576271,,,,,,,,,,,,,,,,606.0143,607.061,607.0611,608.567,return,0.4425,,38.15104167,,,,,,FBP-RB-19.png,0.4,1.2,43,0.25,,,,,,,,,,,,,0,36,36,42,1,,,,,,,,,,,,,,,,,,,,,,,,,,,,
,,,,,SPR24_055,19,F,2024-04-16_16h36.41.802,jersey_experiment_5_v0,2023.2.2,Win32,84.74576271,,,,,,,,,,,,,,,,608.5672,609.6142,609.6142,610.7672,return,0.2493,,70.3125,,,,,,FBP-OG-71.png,0.43,1.2,4,0.25,,,,,,,,,,,,,0,37,37,3,1,,,,,,,,,,,,,,,,,,,,,,,,,,,,
,,,,,SPR24_055,19,F,2024-04-16_16h36.41.802,jersey_experiment_5_v0,2023.2.2,Win32,84.74576271,,,,,,,,,,,,,,,,610.7674,611.8141,611.8142,612.4966,return,0.0339,,70.3125,,,,,,FBP-RB-18.png,0.4,1.2,38,0.25,,,,,,,,,,,,,0,38,38,37,1,,,,,,,,,,,,,,,,,,,,,,,,,,,,
,,,,,SPR24_055,19,F,2024-04-16_16h36.41.802,jersey_experiment_5_v0,2023.2.2,Win32,84.74576271,,,,,,,,,,,,,,,,612.4969,613.7908,613.7909,614.9087,return,0.0249,,34.765625,,,,,,FBP-PT-19.png,0.35,1.2,56,0.5,,,,,,,,,,,,,0,39,39,55,1,,,,,,,,,,,,,,,,,,,,,,,,,,,,
,,,,,SPR24_055,19,F,2024-04-16_16h36.41.802,jersey_experiment_5_v0,2023.2.2,Win32,84.74576271,,,,,,,,,,,,,,,,614.9089,615.9558,615.9558,617.1439,return,0.0065,,19.27083333,,,,,,FBP-OG-91.png,0.35,1.2,11,0.25,,,,,,,,,,,,,0,40,40,10,1,,,,,,,,,,,,,,,,,,,,,,,,,,,,
,,,,,SPR24_055,19,F,2024-04-16_16h36.41.802,jersey_experiment_5_v0,2023.2.2,Win32,84.74576271,,,,,,,,,,,,,,,,617.1442,618.1909,618.191,619.4852,return,0.154,,67.96875,,,,,,FBP-OG-81.png,0.43,1.2,9,0.25,,,,,,,,,,,,,0,41,41,8,1,,,,,,,,,,,,,,,,,,,,,,,,,,,,
,,,,,SPR24_055,19,F,2024-04-16_16h36.41.802,jersey_experiment_5_v0,2023.2.2,Win32,84.74576271,,,,,,,,,,,,,,,,619.4854,620.7793,620.7793,621.4852,return,0.1673,,60.9375,,,,,,FBP-PT-19.png,0.43,1.2,59,0.5,,,,,,,,,,,,,0,42,42,58,1,,,,,,,,,,,,,,,,,,,,,,,,,,,,
,,,,,SPR24_055,19,F,2024-04-16_16h36.41.802,jersey_experiment_5_v0,2023.2.2,Win32,84.74576271,,,,,,,,,,,,,,,,621.4854,622.5323,622.5323,624.1443,return,0.2357,,75.26041667,,,,,,FBP-OG-91.png,0.43,1.2,14,0.25,,,,,,,,,,,,,0,43,43,13,1,,,,,,,,,,,,,,,,,,,,,,,,,,,,
,,,,,SPR24_055,19,F,2024-04-16_16h36.41.802,jersey_experiment_5_v0,2023.2.2,Win32,84.74576271,,,,,,,,,,,,,,,,624.1446,625.4384,625.4385,626.0618,return,0.0374,,73.95833333,,,,,,FBP-PT-19.png,0.45,1.2,60,0.5,,,,,,,,,,,,,0,44,44,59,1,,,,,,,,,,,,,,,,,,,,,,,,,,,,
,,,,,SPR24_055,19,F,2024-04-16_16h36.41.802,jersey_experiment_5_v0,2023.2.2,Win32,84.74576271,,,,,,,,,,,,,,,,626.0621,627.356,627.3561,627.7207,return,0.1012,,73.95833333,,,,,,FBP-YG-19.png,0.43,1.2,29,0.5,,,,,,,,,,,,,0,45,45,28,1,,,,,,,,,,,,,,,,,,,,,,,,,,,,
,,,,,SPR24_055,19,F,2024-04-16_16h36.41.802,jersey_experiment_5_v0,2023.2.2,Win32,84.74576271,,,,,,,,,,,,,,,,627.721,629.0148,629.0148,629.6973,return,0.1045,,30.46875,,,,,,FBP-YG-18.png,0.37,1.2,22,0.5,,,,,,,,,,,,,0,46,46,21,1,,,,,,,,,,,,,,,,,,,,,,,,,,,,
,,,,,SPR24_055,19,F,2024-04-16_16h36.41.802,jersey_experiment_5_v0,2023.2.2,Win32,84.74576271,,,,,,,,,,,,,,,,629.6975,630.7443,630.7444,631.8504,return,0.088,,65.49479167,,,,,,FBP-OG-71.png,0.45,1.2,5,0.25,,,,,,,,,,,,,0,47,47,4,1,,,,,,,,,,,,,,,,,,,,,,,,,,,,
,,,,,SPR24_055,19,F,2024-04-16_16h36.41.802,jersey_experiment_5_v0,2023.2.2,Win32,84.74576271,,,,,,,,,,,,,,,,631.8506,633.1445,633.1445,633.9445,return,0.0053,,29.296875,,,,,,FBP-YG-19.png,0.35,1.2,26,0.5,,,,,,,,,,,,,0,48,48,25,1,,,,,,,,,,,,,,,,,,,,,,,,,,,,
,,,,,SPR24_055,19,F,2024-04-16_16h36.41.802,jersey_experiment_5_v0,2023.2.2,Win32,84.74576271,,,,,,,,,,,,,,,,633.9448,635.2388,635.2388,636.0977,return,0.0238,,53.515625,,,,,,FBP-YG-17.png,0.43,1.2,19,0.5,,,,,,,,,,,,,0,49,49,18,1,,,,,,,,,,,,,,,,,,,,,,,,,,,,
,,,,,SPR24_055,19,F,2024-04-16_16h36.41.802,jersey_experiment_5_v0,2023.2.2,Win32,84.74576271,,,,,,,,,,,,,,,,636.0979,637.3918,637.3918,638.0505,return,0.1175,,62.76041667,,,,,,FBP-PT-18.png,0.45,1.2,55,0.5,,,,,,,,,,,,,0,50,50,54,1,,,,,,,,,,,,,,,,,,,,,,,,,,,,
,,,,,SPR24_055,19,F,2024-04-16_16h36.41.802,jersey_experiment_5_v0,2023.2.2,Win32,84.74576271,,,,,,,,,,,,,,,,638.0507,639.3448,639.3448,639.9682,return,0.1081,,71.35416667,,,,,,FBP-PT-17.png,0.45,1.2,50,0.5,,,,,,,,,,,,,0,51,51,49,1,,,,,,,,,,,,,,,,,,,,,,,,,,,,
,,,,,SPR24_055,19,F,2024-04-16_16h36.41.802,jersey_experiment_5_v0,2023.2.2,Win32,84.74576271,,,,,,,,,,,,,,,,639.9685,641.2624,641.2624,642.9567,return,0.0254,,25.91145833,,,,,,FBP-PT-18.png,0.35,1.2,51,0.5,,,,,,,,,,,,,0,52,52,50,1,,,,,,,,,,,,,,,,,,,,,,,,,,,,
,,,,,SPR24_055,19,F,2024-04-16_16h36.41.802,jersey_experiment_5_v0,2023.2.2,Win32,84.74576271,,,,,,,,,,,,,,,,642.9569,644.0037,644.0037,645.3449,return,0.0099,,66.14583333,,,,,,FBP-RB-17.png,0.43,1.2,34,0.25,,,,,,,,,,,,,0,53,53,33,1,,,,,,,,,,,,,,,,,,,,,,,,,,,,
,,,,,SPR24_055,19,F,2024-04-16_16h36.41.802,jersey_experiment_5_v0,2023.2.2,Win32,84.74576271,,,,,,,,,,,,,,,,645.3451,646.392,646.392,648.0274,return,0.4986,,71.74479167,,,,,,FBP-OG-71.png,0.4,1.2,3,0.25,,,,,,,,,,,,,0,54,54,2,1,,,,,,,,,,,,,,,,,,,,,,,,,,,,
,,,,,SPR24_055,19,F,2024-04-16_16h36.41.802,jersey_experiment_5_v0,2023.2.2,Win32,84.74576271,,,,,,,,,,,,,,,,648.0276,649.0744,649.0745,650.145,return,0.1413,,25.78125,,,,,,FBP-RB-17.png,0.35,1.2,31,0.25,,,,,,,,,,,,,0,55,55,30,1,,,,,,,,,,,,,,,,,,,,,,,,,,,,
,,,,,SPR24_055,19,F,2024-04-16_16h36.41.802,jersey_experiment_5_v0,2023.2.2,Win32,84.74576271,,,,,,,,,,,,,,,,650.1452,651.1923,651.1923,651.8394,return,0.0806,,31.11979167,,,,,,FBP-RB-18.png,0.37,1.2,37,0.25,,,,,,,,,,,,,0,56,56,36,1,,,,,,,,,,,,,,,,,,,,,,,,,,,,
,,,,,SPR24_055,19,F,2024-04-16_16h36.41.802,jersey_experiment_5_v0,2023.2.2,Win32,84.74576271,,,,,,,,,,,,,,,,651.8396,652.8864,652.8864,653.9335,return,0.1776,,12.36979167,,,,,,FBP-RB-19.png,0.35,1.2,41,0.25,,,,,,,,,,,,,0,57,57,40,1,,,,,,,,,,,,,,,,,,,,,,,,,,,,
,,,,,SPR24_055,19,F,2024-04-16_16h36.41.802,jersey_experiment_5_v0,2023.2.2,Win32,84.74576271,,,,,,,,,,,,,,,,653.9336,654.9805,654.9805,656.0983,return,0.152,,77.99479167,,,,,,FBP-OG-91.png,0.45,1.2,15,0.25,,,,,,,,,,,,,0,58,58,14,1,,,,,,,,,,,,,,,,,,,,,,,,,,,,
,,,,,SPR24_055,19,F,2024-04-16_16h36.41.802,jersey_experiment_5_v0,2023.2.2,Win32,84.74576271,,,,,,,,,,,,,,,,656.0986,657.3926,657.3926,658.3691,return,0.2115,,61.19791667,,,,,,FBP-YG-17.png,0.4,1.2,18,0.5,,,,,,,,,,,,,0,59,59,17,1,,,,,,,,,,,,,,,,,,,,,,,,,,,,
,,,,,SPR24_055,19,F,2024-04-16_16h36.41.802,jersey_experiment_5_v0,2023.2.2,Win32,84.74576271,,,,,,,,,,,,,,,,658.3712,659.4162,659.4162,660.3339,return,0.0255,,78.90625,,,,,,FBP-OG-18.png,0.45,1.2,10,0.25,,,,,,,,,,,,,,,,,,0,0,0,9,1,,,,,,,,,,,,,,,,,,,,,,,
,,,,,SPR24_055,19,F,2024-04-16_16h36.41.802,jersey_experiment_5_v0,2023.2.2,Win32,84.74576271,,,,,,,,,,,,,,,,660.3342,661.3809,661.3809,662.5574,return,0.1083,,62.890625,,,,,,FBP-OG-17.png,0.43,1.2,4,0.25,,,,,,,,,,,,,,,,,,0,1,1,3,1,,,,,,,,,,,,,,,,,,,,,,,
,,,,,SPR24_055,19,F,2024-04-16_16h36.41.802,jersey_experiment_5_v0,2023.2.2,Win32,84.74576271,,,,,,,,,,,,,,,,662.5576,663.8516,663.8517,664.44,return,0.0908,,80.33854167,,,,,,FBP-YG-91.png,0.45,1.2,30,0.5,,,,,,,,,,,,,,,,,,0,2,2,29,1,,,,,,,,,,,,,,,,,,,,,,,
,,,,,SPR24_055,19,F,2024-04-16_16h36.41.802,jersey_experiment_5_v0,2023.2.2,Win32,84.74576271,,,,,,,,,,,,,,,,664.4403,665.7339,665.7339,666.9927,return,0.1413,,22.13541667,,,,,,FBP-YG-71.png,0.37,1.2,17,0.5,,,,,,,,,,,,,,,,,,0,3,3,16,1,,,,,,,,,,,,,,,,,,,,,,,
,,,,,SPR24_055,19,F,2024-04-16_16h36.41.802,jersey_experiment_5_v0,2023.2.2,Win32,84.74576271,,,,,,,,,,,,,,,,666.9929,668.0402,668.0402,668.64,return,0.0104,,27.47395833,,,,,,FBP-RB-81.png,0.35,1.2,36,0.25,,,,,,,,,,,,,,,,,,0,4,4,35,1,,,,,,,,,,,,,,,,,,,,,,,
,,,,,SPR24_055,19,F,2024-04-16_16h36.41.802,jersey_experiment_5_v0,2023.2.2,Win32,84.74576271,,,,,,,,,,,,,,,,668.6401,669.6869,669.687,671.9931,return,0.1231,,53.90625,,,,,,FBP-RB-91.png,0.4,1.2,43,0.25,,,,,,,,,,,,,,,,,,0,5,5,42,1,,,,,,,,,,,,,,,,,,,,,,,
,,,,,SPR24_055,19,F,2024-04-16_16h36.41.802,jersey_experiment_5_v0,2023.2.2,Win32,84.74576271,,,,,,,,,,,,,,,,671.9934,673.0401,673.0401,674.3342,return,0.0721,,30.59895833,,,,,,FBP-RB-91.png,0.35,1.2,41,0.25,,,,,,,,,,,,,,,,,,0,6,6,40,1,,,,,,,,,,,,,,,,,,,,,,,
,,,,,SPR24_055,19,F,2024-04-16_16h36.41.802,jersey_experiment_5_v0,2023.2.2,Win32,84.74576271,,,,,,,,,,,,,,,,674.3344,675.3813,675.3813,676.7225,return,0.0703,,75.390625,,,,,,FBP-OG-19.png,0.45,1.2,15,0.25,,,,,,,,,,,,,,,,,,0,7,7,14,1,,,,,,,,,,,,,,,,,,,,,,,
,,,,,SPR24_055,19,F,2024-04-16_16h36.41.802,jersey_experiment_5_v0,2023.2.2,Win32,84.74576271,,,,,,,,,,,,,,,,676.7227,678.0167,678.0167,678.7461,return,0.0985,,83.72395833,,,,,,FBP-YG-71.png,0.45,1.2,20,0.5,,,,,,,,,,,,,,,,,,0,8,8,19,1,,,,,,,,,,,,,,,,,,,,,,,
,,,,,SPR24_055,19,F,2024-04-16_16h36.41.802,jersey_experiment_5_v0,2023.2.2,Win32,84.74576271,,,,,,,,,,,,,,,,678.7464,679.7931,679.7931,680.9934,return,0.1413,,69.66145833,,,,,,FBP-RB-71.png,0.45,1.2,35,0.25,,,,,,,,,,,,,,,,,,0,9,9,34,1,,,,,,,,,,,,,,,,,,,,,,,
,,,,,SPR24_055,19,F,2024-04-16_16h36.41.802,jersey_experiment_5_v0,2023.2.2,Win32,84.74576271,,,,,,,,,,,,,,,,680.9936,682.2876,682.2876,683.0992,return,0.0495,,67.70833333,,,,,,FBP-PT-71.png,0.43,1.2,49,0.5,,,,,,,,,,,,,,,,,,0,10,10,48,1,,,,,,,,,,,,,,,,,,,,,,,
,,,,,SPR24_055,19,F,2024-04-16_16h36.41.802,jersey_experiment_5_v0,2023.2.2,Win32,84.74576271,,,,,,,,,,,,,,,,683.0995,684.3934,684.3934,687.1817,return,0.0119,,30.46875,,,,,,FBP-YG-71.png,0.35,1.2,16,0.5,,,,,,,,,,,,,,,,,,0,11,11,15,1,,,,,,,,,,,,,,,,,,,,,,,
,,,,,SPR24_055,19,F,2024-04-16_16h36.41.802,jersey_experiment_5_v0,2023.2.2,Win32,84.74576271,,,,,,,,,,,,,,,,687.1819,688.4759,688.4759,689.1818,return,0.036,,25.78125,,,,,,FBP-YG-81.png,0.35,1.2,21,0.5,,,,,,,,,,,,,,,,,,0,12,12,20,1,,,,,,,,,,,,,,,,,,,,,,,
,,,,,SPR24_055,19,F,2024-04-16_16h36.41.802,jersey_experiment_5_v0,2023.2.2,Win32,84.74576271,,,,,,,,,,,,,,,,689.182,690.229,690.229,691.3702,return,0.063,,78.90625,,,,,,FBP-RB-81.png,0.45,1.2,40,0.25,,,,,,,,,,,,,,,,,,0,13,13,39,1,,,,,,,,,,,,,,,,,,,,,,,
,,,,,SPR24_055,19,F,2024-04-16_16h36.41.802,jersey_experiment_5_v0,2023.2.2,Win32,84.74576271,,,,,,,,,,,,,,,,691.3704,692.4173,692.4174,693.8407,return,0.0799,,30.078125,,,,,,FBP-RB-71.png,0.35,1.2,31,0.25,,,,,,,,,,,,,,,,,,0,14,14,30,1,,,,,,,,,,,,,,,,,,,,,,,
,,,,,SPR24_055,19,F,2024-04-16_16h36.41.802,jersey_experiment_5_v0,2023.2.2,Win32,84.74576271,,,,,,,,,,,,,,,,693.8409,694.8881,694.8881,696.7703,return,0.4957,,60.9375,,,,,,FBP-OG-17.png,0.4,1.2,3,0.25,,,,,,,,,,,,,,,,,,0,15,15,2,1,,,,,,,,,,,,,,,,,,,,,,,
,,,,,SPR24_055,19,F,2024-04-16_16h36.41.802,jersey_experiment_5_v0,2023.2.2,Win32,84.74576271,,,,,,,,,,,,,,,,696.7705,697.8174,697.8174,699.1352,return,0.2126,,83.85416667,,,,,,FBP-RB-91.png,0.45,1.2,45,0.25,,,,,,,,,,,,,,,,,,0,16,16,44,1,,,,,,,,,,,,,,,,,,,,,,,
,,,,,SPR24_055,19,F,2024-04-16_16h36.41.802,jersey_experiment_5_v0,2023.2.2,Win32,84.74576271,,,,,,,,,,,,,,,,699.1354,700.1823,700.1824,701.5706,return,0.3669,,26.69270833,,,,,,FBP-OG-18.png,0.37,1.2,7,0.25,,,,,,,,,,,,,,,,,,0,17,17,6,1,,,,,,,,,,,,,,,,,,,,,,,
,,,,,SPR24_055,19,F,2024-04-16_16h36.41.802,jersey_experiment_5_v0,2023.2.2,Win32,84.74576271,,,,,,,,,,,,,,,,701.5707,702.8647,702.8647,703.8058,return,0.1077,,75.65104167,,,,,,FBP-YG-81.png,0.45,1.2,25,0.5,,,,,,,,,,,,,,,,,,0,18,18,24,1,,,,,,,,,,,,,,,,,,,,,,,
,,,,,SPR24_055,19,F,2024-04-16_16h36.41.802,jersey_experiment_5_v0,2023.2.2,Win32,84.74576271,,,,,,,,,,,,,,,,703.8059,704.8532,704.8532,705.5943,return,0.0982,,65.10416667,,,,,,FBP-OG-17.png,0.45,1.2,5,0.25,,,,,,,,,,,,,,,,,,0,19,19,4,1,,,,,,,,,,,,,,,,,,,,,,,
,,,,,SPR24_055,19,F,2024-04-16_16h36.41.802,jersey_experiment_5_v0,2023.2.2,Win32,84.74576271,,,,,,,,,,,,,,,,705.5944,706.8885,706.8886,707.6414,return,0.0284,,22.13541667,,,,,,FBP-PT-91.png,0.35,1.2,56,0.5,,,,,,,,,,,,,,,,,,0,20,20,55,1,,,,,,,,,,,,,,,,,,,,,,,
,,,,,SPR24_055,19,F,2024-04-16_16h36.41.802,jersey_experiment_5_v0,2023.2.2,Win32,84.74576271,,,,,,,,,,,,,,,,707.6416,708.9358,708.9359,710.1357,return,0.3259,,41.14583333,,,,,,FBP-PT-71.png,0.4,1.2,48,0.5,,,,,,,,,,,,,,,,,,0,21,21,47,1,,,,,,,,,,,,,,,,,,,,,,,
,,,,,SPR24_055,19,F,2024-04-16_16h36.41.802,jersey_experiment_5_v0,2023.2.2,Win32,84.74576271,,,,,,,,,,,,,,,,710.1359,711.1826,711.1826,712.0415,return,0.0647,,39.0625,,,,,,FBP-OG-19.png,0.43,1.2,14,0.25,,,,,,,,,,,,,,,,,,0,22,22,13,1,,,,,,,,,,,,,,,,,,,,,,,
,,,,,SPR24_055,19,F,2024-04-16_16h36.41.802,jersey_experiment_5_v0,2023.2.2,Win32,84.74576271,,,,,,,,,,,,,,,,712.0417,713.3358,713.3359,714.1358,return,0.1843,,61.06770833,,,,,,FBP-YG-91.png,0.4,1.2,28,0.5,,,,,,,,,,,,,,,,,,0,23,23,27,1,,,,,,,,,,,,,,,,,,,,,,,
,,,,,SPR24_055,19,F,2024-04-16_16h36.41.802,jersey_experiment_5_v0,2023.2.2,Win32,84.74576271,,,,,,,,,,,,,,,,714.136,715.4301,715.4301,716.4769,return,0.5911,,69.27083333,,,,,,FBP-YG-91.png,0.43,1.2,29,0.5,,,,,,,,,,,,,,,,,,0,24,24,28,1,,,,,,,,,,,,,,,,,,,,,,,
,,,,,SPR24_055,19,F,2024-04-16_16h36.41.802,jersey_experiment_5_v0,2023.2.2,Win32,84.74576271,,,,,,,,,,,,,,,,716.4772,717.5241,717.5241,718.2653,return,0.0302,,76.5625,,,,,,FBP-RB-71.png,0.43,1.2,34,0.25,,,,,,,,,,,,,,,,,,0,25,25,33,1,,,,,,,,,,,,,,,,,,,,,,,
,,,,,SPR24_055,19,F,2024-04-16_16h36.41.802,jersey_experiment_5_v0,2023.2.2,Win32,84.74576271,,,,,,,,,,,,,,,,718.2655,719.3125,719.3125,720.0656,return,0.1171,,71.09375,,,,,,FBP-RB-71.png,0.4,1.2,33,0.25,,,,,,,,,,,,,,,,,,0,26,26,32,1,,,,,,,,,,,,,,,,,,,,,,,
,,,,,SPR24_055,19,F,2024-04-16_16h36.41.802,jersey_experiment_5_v0,2023.2.2,Win32,84.74576271,,,,,,,,,,,,,,,,720.0659,721.1122,721.1123,722.9596,return,0.6598,,51.43229167,,,,,,FBP-OG-19.png,0.37,1.2,12,0.25,,,,,,,,,,,,,,,,,,0,27,27,11,1,,,,,,,,,,,,,,,,,,,,,,,
,,,,,SPR24_055,19,F,2024-04-16_16h36.41.802,jersey_experiment_5_v0,2023.2.2,Win32,84.74576271,,,,,,,,,,,,,,,,722.9599,724.254,724.254,725.4423,return,0.471,,58.984375,,,,,,FBP-YG-71.png,0.43,1.2,19,0.5,,,,,,,,,,,,,,,,,,0,28,28,18,1,,,,,,,,,,,,,,,,,,,,,,,
,,,,,SPR24_055,19,F,2024-04-16_16h36.41.802,jersey_experiment_5_v0,2023.2.2,Win32,84.74576271,,,,,,,,,,,,,,,,725.4424,726.4892,726.4892,728.3129,return,1.1455,,50.78125,,,,,,FBP-OG-19.png,0.4,1.2,13,0.25,,,,,,,,,,,,,,,,,,0,29,29,12,1,,,,,,,,,,,,,,,,,,,,,,,
,,,,,SPR24_055,19,F,2024-04-16_16h36.41.802,jersey_experiment_5_v0,2023.2.2,Win32,84.74576271,,,,,,,,,,,,,,,,728.3131,729.6068,729.6068,730.6421,return,0.0339,,46.484375,,,,,,FBP-YG-91.png,0.37,1.2,27,0.5,,,,,,,,,,,,,,,,,,0,30,30,26,1,,,,,,,,,,,,,,,,,,,,,,,
,,,,,SPR24_055,19,F,2024-04-16_16h36.41.802,jersey_experiment_5_v0,2023.2.2,Win32,84.74576271,,,,,,,,,,,,,,,,730.6424,731.9365,731.9366,733.0422,return,0.5647,,62.76041667,,,,,,FBP-PT-91.png,0.43,1.2,59,0.5,,,,,,,,,,,,,,,,,,0,31,31,58,1,,,,,,,,,,,,,,,,,,,,,,,
,,,,,SPR24_055,19,F,2024-04-16_16h36.41.802,jersey_experiment_5_v0,2023.2.2,Win32,84.74576271,,,,,,,,,,,,,,,,733.0425,734.3363,734.3364,736.0659,return,0.7432,,48.69791667,,,,,,FBP-PT-81.png,0.37,1.2,52,0.5,,,,,,,,,,,,,,,,,,0,32,32,51,1,,,,,,,,,,,,,,,,,,,,,,,
,,,,,SPR24_055,19,F,2024-04-16_16h36.41.802,jersey_experiment_5_v0,2023.2.2,Win32,84.74576271,,,,,,,,,,,,,,,,736.0662,737.1132,737.1133,738.1365,return,0.1227,,60.80729167,,,,,,FBP-OG-18.png,0.43,1.2,9,0.25,,,,,,,,,,,,,,,,,,0,33,33,8,1,,,,,,,,,,,,,,,,,,,,,,,
,,,,,SPR24_055,19,F,2024-04-16_16h36.41.802,jersey_experiment_5_v0,2023.2.2,Win32,84.74576271,,,,,,,,,,,,,,,,738.1368,739.1837,739.1837,740.1131,return,0.1551,,53.90625,,,,,,FBP-OG-18.png,0.4,1.2,8,0.25,,,,,,,,,,,,,,,,,,0,34,34,7,1,,,,,,,,,,,,,,,,,,,,,,,
,,,,,SPR24_055,19,F,2024-04-16_16h36.41.802,jersey_experiment_5_v0,2023.2.2,Win32,84.74576271,,,,,,,,,,,,,,,,740.1134,741.4073,741.4073,742.6427,return,0.2226,,76.5625,,,,,,FBP-PT-91.png,0.45,1.2,60,0.5,,,,,,,,,,,,,,,,,,0,35,35,59,1,,,,,,,,,,,,,,,,,,,,,,,
,,,,,SPR24_055,19,F,2024-04-16_16h36.41.802,jersey_experiment_5_v0,2023.2.2,Win32,84.74576271,,,,,,,,,,,,,,,,742.6428,743.9368,743.9368,744.9369,return,0.0996,,41.66666667,,,,,,FBP-YG-81.png,0.37,1.2,22,0.5,,,,,,,,,,,,,,,,,,0,36,36,21,1,,,,,,,,,,,,,,,,,,,,,,,
,,,,,SPR24_055,19,F,2024-04-16_16h36.41.802,jersey_experiment_5_v0,2023.2.2,Win32,84.74576271,,,,,,,,,,,,,,,,744.9371,745.984,745.984,746.9607,return,0.1556,,58.85416667,,,,,,FBP-RB-91.png,0.43,1.2,44,0.25,,,,,,,,,,,,,,,,,,0,37,37,43,1,,,,,,,,,,,,,,,,,,,,,,,
,,,,,SPR24_055,19,F,2024-04-16_16h36.41.802,jersey_experiment_5_v0,2023.2.2,Win32,84.74576271,,,,,,,,,,,,,,,,746.9609,748.0075,748.0075,748.7134,return,0.077,,35.67708333,,,,,,FBP-OG-17.png,0.37,1.2,2,0.25,,,,,,,,,,,,,,,,,,0,38,38,1,1,,,,,,,,,,,,,,,,,,,,,,,
,,,,,SPR24_055,19,F,2024-04-16_16h36.41.802,jersey_experiment_5_v0,2023.2.2,Win32,84.74576271,,,,,,,,,,,,,,,,748.7137,750.0078,750.0078,750.6902,return,0.2228,,64.19270833,,,,,,FBP-YG-81.png,0.43,1.2,24,0.5,,,,,,,,,,,,,,,,,,0,39,39,23,1,,,,,,,,,,,,,,,,,,,,,,,
,,,,,SPR24_055,19,F,2024-04-16_16h36.41.802,jersey_experiment_5_v0,2023.2.2,Win32,84.74576271,,,,,,,,,,,,,,,,750.6904,751.9842,751.9843,752.6666,return,0.0626,,36.45833333,,,,,,FBP-PT-91.png,0.37,1.2,57,0.5,,,,,,,,,,,,,,,,,,0,40,40,56,1,,,,,,,,,,,,,,,,,,,,,,,
,,,,,SPR24_055,19,F,2024-04-16_16h36.41.802,jersey_experiment_5_v0,2023.2.2,Win32,84.74576271,,,,,,,,,,,,,,,,752.6668,753.9608,753.9609,754.702,return,0.0244,,21.875,,,,,,FBP-PT-81.png,0.35,1.2,51,0.5,,,,,,,,,,,,,,,,,,0,41,41,50,1,,,,,,,,,,,,,,,,,,,,,,,
,,,,,SPR24_055,19,F,2024-04-16_16h36.41.802,jersey_experiment_5_v0,2023.2.2,Win32,84.74576271,,,,,,,,,,,,,,,,754.7022,755.9961,755.9961,756.8668,return,0.1776,,57.94270833,,,,,,FBP-YG-71.png,0.4,1.2,18,0.5,,,,,,,,,,,,,,,,,,0,42,42,17,1,,,,,,,,,,,,,,,,,,,,,,,
,,,,,SPR24_055,19,F,2024-04-16_16h36.41.802,jersey_experiment_5_v0,2023.2.2,Win32,84.74576271,,,,,,,,,,,,,,,,756.867,757.914,757.914,758.5609,return,0.037,,56.77083333,,,,,,FBP-RB-81.png,0.4,1.2,38,0.25,,,,,,,,,,,,,,,,,,0,43,43,37,1,,,,,,,,,,,,,,,,,,,,,,,
,,,,,SPR24_055,19,F,2024-04-16_16h36.41.802,jersey_experiment_5_v0,2023.2.2,Win32,84.74576271,,,,,,,,,,,,,,,,758.5612,759.855,759.8551,760.808,return,0.4885,,27.86458333,,,,,,FBP-PT-71.png,0.35,1.2,46,0.5,,,,,,,,,,,,,,,,,,0,44,44,45,1,,,,,,,,,,,,,,,,,,,,,,,
,,,,,SPR24_055,19,F,2024-04-16_16h36.41.802,jersey_experiment_5_v0,2023.2.2,Win32,84.74576271,,,,,,,,,,,,,,,,760.8082,762.1022,762.1023,762.7493,return,0.1423,,53.64583333,,,,,,FBP-PT-81.png,0.45,1.2,55,0.5,,,,,,,,,,,,,,,,,,0,45,45,54,1,,,,,,,,,,,,,,,,,,,,,,,
,,,,,SPR24_055,19,F,2024-04-16_16h36.41.802,jersey_experiment_5_v0,2023.2.2,Win32,84.74576271,,,,,,,,,,,,,,,,762.7495,764.0434,764.0436,764.9258,return,0.5064,,67.44791667,,,,,,FBP-PT-81.png,0.43,1.2,54,0.5,,,,,,,,,,,,,,,,,,0,46,46,53,1,,,,,,,,,,,,,,,,,,,,,,,
,,,,,SPR24_055,19,F,2024-04-16_16h36.41.802,jersey_experiment_5_v0,2023.2.2,Win32,84.74576271,,,,,,,,,,,,,,,,764.926,765.973,765.9731,767.2437,return,0.4264,,70.44270833,,,,,,FBP-RB-81.png,0.43,1.2,39,0.25,,,,,,,,,,,,,,,,,,0,47,47,38,1,,,,,,,,,,,,,,,,,,,,,,,
,,,,,SPR24_055,19,F,2024-04-16_16h36.41.802,jersey_experiment_5_v0,2023.2.2,Win32,84.74576271,,,,,,,,,,,,,,,,767.2439,768.2905,768.2906,769.9612,return,0.8873,,32.421875,,,,,,FBP-OG-18.png,0.35,1.2,6,0.25,,,,,,,,,,,,,,,,,,0,48,48,5,1,,,,,,,,,,,,,,,,,,,,,,,
,,,,,SPR24_055,19,F,2024-04-16_16h36.41.802,jersey_experiment_5_v0,2023.2.2,Win32,84.74576271,,,,,,,,,,,,,,,,769.9615,771.2555,771.2555,772.3497,return,0.3537,,29.55729167,,,,,,FBP-PT-71.png,0.37,1.2,47,0.5,,,,,,,,,,,,,,,,,,0,49,49,46,1,,,,,,,,,,,,,,,,,,,,,,,
,,,,,SPR24_055,19,F,2024-04-16_16h36.41.802,jersey_experiment_5_v0,2023.2.2,Win32,84.74576271,,,,,,,,,,,,,,,,772.3499,773.644,773.644,774.8085,return,0.5013,,63.28125,,,,,,FBP-PT-71.png,0.45,1.2,50,0.5,,,,,,,,,,,,,,,,,,0,50,50,49,1,,,,,,,,,,,,,,,,,,,,,,,
,,,,,SPR24_055,19,F,2024-04-16_16h36.41.802,jersey_experiment_5_v0,2023.2.2,Win32,84.74576271,,,,,,,,,,,,,,,,774.8087,776.1026,776.1027,776.9616,return,0.6727,,56.77083333,,,,,,FBP-YG-81.png,0.4,1.2,23,0.5,,,,,,,,,,,,,,,,,,0,51,51,22,1,,,,,,,,,,,,,,,,,,,,,,,
,,,,,SPR24_055,19,F,2024-04-16_16h36.41.802,jersey_experiment_5_v0,2023.2.2,Win32,84.74576271,,,,,,,,,,,,,,,,776.9617,778.2557,778.2558,779.0323,return,0.171,,38.671875,,,,,,FBP-YG-91.png,0.35,1.2,26,0.5,,,,,,,,,,,,,,,,,,0,52,52,25,1,,,,,,,,,,,,,,,,,,,,,,,
,,,,,SPR24_055,19,F,2024-04-16_16h36.41.802,jersey_experiment_5_v0,2023.2.2,Win32,84.74576271,,,,,,,,,,,,,,,,779.0325,780.3264,780.3264,780.9266,return,0.1191,,60.67708333,,,,,,FBP-PT-91.png,0.4,1.2,58,0.5,,,,,,,,,,,,,,,,,,0,53,53,57,1,,,,,,,,,,,,,,,,,,,,,,,
,,,,,SPR24_055,19,F,2024-04-16_16h36.41.802,jersey_experiment_5_v0,2023.2.2,Win32,84.74576271,,,,,,,,,,,,,,,,780.9269,782.2206,782.2206,783.0206,return,0.0503,,55.078125,,,,,,FBP-PT-81.png,0.4,1.2,53,0.5,,,,,,,,,,,,,,,,,,0,54,54,52,1,,,,,,,,,,,,,,,,,,,,,,,
,,,,,SPR24_055,19,F,2024-04-16_16h36.41.802,jersey_experiment_5_v0,2023.2.2,Win32,84.74576271,,,,,,,,,,,,,,,,783.0207,784.0678,784.0679,785.3855,return,0.7475,,26.171875,,,,,,FBP-OG-17.png,0.35,1.2,1,0.25,,,,,,,,,,,,,,,,,,0,55,55,0,1,,,,,,,,,,,,,,,,,,,,,,,
,,,,,SPR24_055,19,F,2024-04-16_16h36.41.802,jersey_experiment_5_v0,2023.2.2,Win32,84.74576271,,,,,,,,,,,,,,,,785.3857,786.4326,786.4327,787.1972,return,0.0951,,34.765625,,,,,,FBP-OG-19.png,0.35,1.2,11,0.25,,,,,,,,,,,,,,,,,,0,56,56,10,1,,,,,,,,,,,,,,,,,,,,,,,
,,,,,SPR24_055,19,F,2024-04-16_16h36.41.802,jersey_experiment_5_v0,2023.2.2,Win32,84.74576271,,,,,,,,,,,,,,,,787.1973,788.2442,788.2442,788.9267,return,0.0583,,28.64583333,,,,,,FBP-RB-71.png,0.37,1.2,32,0.25,,,,,,,,,,,,,,,,,,0,57,57,31,1,,,,,,,,,,,,,,,,,,,,,,,
,,,,,SPR24_055,19,F,2024-04-16_16h36.41.802,jersey_experiment_5_v0,2023.2.2,Win32,84.74576271,,,,,,,,,,,,,,,,788.927,789.9738,789.9739,790.3855,return,0.0236,,27.47395833,,,,,,FBP-RB-91.png,0.37,1.2,42,0.25,,,,,,,,,,,,,,,,,,0,58,58,41,1,,,,,,,,,,,,,,,,,,,,,,,
,,,,,SPR24_055,19,F,2024-04-16_16h36.41.802,jersey_experiment_5_v0,2023.2.2,Win32,84.74576271,,,,,,,,,,,,,,,,790.3858,791.4325,791.4326,791.8209,return,0.0735,,26.69270833,,,,,,FBP-RB-81.png,0.37,1.2,37,0.25,,,,,,,,,,,,,,,,,,0,59,59,36,1,,,,,,,,,,,,,,,,,,,,,,,
,,,,,SPR24_055,19,F,2024-04-16_16h36.41.802,jersey_experiment_5_v0,2023.2.2,Win32,84.74576271,,,,,,,,,,,,,,,,,,,,,,,,,,,,,,,,,,,,,,,,,,,,,,,,,,,,,,,,791.8214,793.48,return,1.652,,,,,,,,,,,,,,,,,,,
,,,,,SPR24_055,19,F,2024-04-16_16h36.41.802,jersey_experiment_5_v0,2023.2.2,Win32,84.74576271,,,,,,,,,,,,,,,,,,,,,,,,,,,,,,,,,,,,,,,,,,,,,,,,,,,,,,,,,,,,,793.4801,797.8098,1,2.3266,return,1.9902,,,,,,,,,,,,
,,,,,SPR24_055,19,F,2024-04-16_16h36.41.802,jersey_experiment_5_v0,2023.2.2,Win32,84.74576271,,,,,,,,,,,,,,,,,,,,,,,,,,,,,,,,,,,,,,,,,,,,,,,,,,,,,,,,,,,,,,,,,,,,797.81,815.0386,No,right,7.5236,,,,,,
,,,,,SPR24_055,19,F,2024-04-16_16h36.41.802,jersey_experiment_5_v0,2023.2.2,Win32,84.74576271,,,,,,,,,,,,,,,,,,,,,,,,,,,,,,,,,,,,,,,,,,,,,,,,,,,,,,,,,,,,,,,,,,,,,,,,,,815.0387,817.2572,return,2.2122,