requirements.started,requirements.stopped,key_resp_3.keys,key_resp_3.rt,key_resp_3.duration,Subject ID,Age,Gender,date,expName,psychopyVersion,OS,frameRate,instructions1.started,instructions1.stopped,key_resp.keys,key_resp.rt,key_resp.duration,example.started,example.stopped,enter_2.keys,enter_2.rt,enter_2.duration,instructions2.started,instructions2.stopped,enter_3.keys,enter_3.rt,enter_3.duration,image.started,image.stopped,slider_2.started,slider_2.stopped,next.keys,next.rt,next.duration,slider.response,trial_block_1.thisRepN,trial_block_1.thisTrialN,trial_block_1.thisN,trial_block_1.thisIndex,trial_block_1.ran,Path,Width,Height,Index,Duration,trial_block_2.thisRepN,trial_block_2.thisTrialN,trial_block_2.thisN,trial_block_2.thisIndex,trial_block_2.ran,rest_break.started,rest_break.stopped,end_break.started,end_break.stopped,key_resp_5.keys,key_resp_5.rt,key_resp_5.duration,trial_block_3.thisRepN,trial_block_3.thisTrialN,trial_block_3.thisN,trial_block_3.thisIndex,trial_block_3.ran,trial_block_4.thisRepN,trial_block_4.thisTrialN,trial_block_4.thisN,trial_block_4.thisIndex,trial_block_4.ran,questions_intro.started,questions_intro.stopped,enter_12.keys,enter_12.rt,enter_12.duration,question2.started,question2.stopped,question_doingbest.response,question_doingbest.rt,enter_15.keys,enter_15.rt,enter_15.duration,pattern.started,pattern.stopped,pattern_2.text,enter_17.keys,enter_17.rt,enter_17.duration,thankyou.started,thankyou.stopped,enter_14.keys,enter_14.rt,enter_14.duration
0.0001,9.2125,return,9.2041,,SPR24_068,21,male,2024-04-18_16h38.08.512,jersey_experiment_5_v0,2023.2.2,Win32,84.74576271,,,,,,,,,,,,,,,,,,,,,,,,,,,,,,,,,,,,,,,,,,,,,,,,,,,,,,,,,,,,,,,,,,,,,,,,,,,,,,
,,,,,SPR24_068,21,male,2024-04-18_16h38.08.512,jersey_experiment_5_v0,2023.2.2,Win32,84.74576271,9.2126,16.0243,return,6.8026,,,,,,,,,,,,,,,,,,,,,,,,,,,,,,,,,,,,,,,,,,,,,,,,,,,,,,,,,,,,,,,,,,,,,,,,,,
,,,,,SPR24_068,21,male,2024-04-18_16h38.08.512,jersey_experiment_5_v0,2023.2.2,Win32,84.74576271,,,,,,16.0244,19.7892,return,3.7309,,,,,,,,,,,,,,,,,,,,,,,,,,,,,,,,,,,,,,,,,,,,,,,,,,,,,,,,,,,,,,,,,,,,,
,,,,,SPR24_068,21,male,2024-04-18_16h38.08.512,jersey_experiment_5_v0,2023.2.2,Win32,84.74576271,,,,,,,,,,,19.7892,36.1897,return,16.3859,,,,,,,,,,,,,,,,,,,,,,,,,,,,,,,,,,,,,,,,,,,,,,,,,,,,,,,,,,,,,,,,
,,,,,SPR24_068,21,male,2024-04-18_16h38.08.512,jersey_experiment_5_v0,2023.2.2,Win32,84.74576271,,,,,,,,,,,,,,,,36.1969,37.4955,37.4957,50.9549,return,2.1406,,75,0,0,0,35,1,FBP-RB-18.png,0.35,1.2,36,0.5,,,,,,,,,,,,,,,,,,,,,,,,,,,,,,,,,,,,,,,,,,,,,
,,,,,SPR24_068,21,male,2024-04-18_16h38.08.512,jersey_experiment_5_v0,2023.2.2,Win32,84.74576271,,,,,,,,,,,,,,,,50.9552,52.0017,52.0017,57.6138,return,1.7179,,75,0,1,1,21,1,FBP-YG-18.png,0.37,1.2,22,0.25,,,,,,,,,,,,,,,,,,,,,,,,,,,,,,,,,,,,,,,,,,,,,
,,,,,SPR24_068,21,male,2024-04-18_16h38.08.512,jersey_experiment_5_v0,2023.2.2,Win32,84.74576271,,,,,,,,,,,,,,,,57.6142,58.6609,58.661,67.32,return,1.651,,49.609375,0,2,2,16,1,FBP-YG-17.png,0.37,1.2,17,0.25,,,,,,,,,,,,,,,,,,,,,,,,,,,,,,,,,,,,,,,,,,,,,
,,,,,SPR24_068,21,male,2024-04-18_16h38.08.512,jersey_experiment_5_v0,2023.2.2,Win32,84.74576271,,,,,,,,,,,,,,,,67.3203,68.3671,68.3672,72.979,return,1.2438,,99.609375,0,3,3,57,1,FBP-PT-19.png,0.4,1.2,58,0.25,,,,,,,,,,,,,,,,,,,,,,,,,,,,,,,,,,,,,,,,,,,,,
,,,,,SPR24_068,21,male,2024-04-18_16h38.08.512,jersey_experiment_5_v0,2023.2.2,Win32,84.74576271,,,,,,,,,,,,,,,,72.9793,74.2732,74.2733,78.5086,return,1.238,,74.609375,0,4,4,8,1,FBP-OG-81.png,0.43,1.2,9,0.5,,,,,,,,,,,,,,,,,,,,,,,,,,,,,,,,,,,,,,,,,,,,,
,,,,,SPR24_068,21,male,2024-04-18_16h38.08.512,jersey_experiment_5_v0,2023.2.2,Win32,84.74576271,,,,,,,,,,,,,,,,78.5088,79.8028,79.8029,84.5794,return,2.2182,,99.08854167,0,5,5,34,1,FBP-RB-17.png,0.45,1.2,35,0.5,,,,,,,,,,,,,,,,,,,,,,,,,,,,,,,,,,,,,,,,,,,,,
,,,,,SPR24_068,21,male,2024-04-18_16h38.08.512,jersey_experiment_5_v0,2023.2.2,Win32,84.74576271,,,,,,,,,,,,,,,,84.5797,85.6265,85.6266,88.7795,return,1.3182,,97.52604167,0,6,6,54,1,FBP-PT-18.png,0.45,1.2,55,0.25,,,,,,,,,,,,,,,,,,,,,,,,,,,,,,,,,,,,,,,,,,,,,
,,,,,SPR24_068,21,male,2024-04-18_16h38.08.512,jersey_experiment_5_v0,2023.2.2,Win32,84.74576271,,,,,,,,,,,,,,,,88.7798,90.0737,90.0738,93.5445,return,0.8859,,98.69791667,0,7,7,14,1,FBP-OG-91.png,0.45,1.2,15,0.5,,,,,,,,,,,,,,,,,,,,,,,,,,,,,,,,,,,,,,,,,,,,,
,,,,,SPR24_068,21,male,2024-04-18_16h38.08.512,jersey_experiment_5_v0,2023.2.2,Win32,84.74576271,,,,,,,,,,,,,,,,93.5447,94.5915,94.5915,97.9329,return,0.9043,,24.86979167,0,8,8,51,1,FBP-PT-18.png,0.37,1.2,52,0.25,,,,,,,,,,,,,,,,,,,,,,,,,,,,,,,,,,,,,,,,,,,,,
,,,,,SPR24_068,21,male,2024-04-18_16h38.08.512,jersey_experiment_5_v0,2023.2.2,Win32,84.74576271,,,,,,,,,,,,,,,,97.9331,99.227,99.227,104.6271,return,1.889,,34.765625,0,9,9,7,1,FBP-OG-81.png,0.4,1.2,8,0.5,,,,,,,,,,,,,,,,,,,,,,,,,,,,,,,,,,,,,,,,,,,,,
,,,,,SPR24_068,21,male,2024-04-18_16h38.08.512,jersey_experiment_5_v0,2023.2.2,Win32,84.74576271,,,,,,,,,,,,,,,,104.6274,105.6742,105.6744,108.4275,return,0.9272,,80.72916667,0,10,10,28,1,FBP-YG-19.png,0.43,1.2,29,0.25,,,,,,,,,,,,,,,,,,,,,,,,,,,,,,,,,,,,,,,,,,,,,
,,,,,SPR24_068,21,male,2024-04-18_16h38.08.512,jersey_experiment_5_v0,2023.2.2,Win32,84.74576271,,,,,,,,,,,,,,,,108.4277,109.7216,109.7216,112.1568,return,1.0355,,82.55208333,0,11,11,13,1,FBP-OG-91.png,0.43,1.2,14,0.5,,,,,,,,,,,,,,,,,,,,,,,,,,,,,,,,,,,,,,,,,,,,,
,,,,,SPR24_068,21,male,2024-04-18_16h38.08.512,jersey_experiment_5_v0,2023.2.2,Win32,84.74576271,,,,,,,,,,,,,,,,112.157,113.4511,113.4512,115.7218,return,0.7315,,89.84375,0,12,12,33,1,FBP-RB-17.png,0.43,1.2,34,0.5,,,,,,,,,,,,,,,,,,,,,,,,,,,,,,,,,,,,,,,,,,,,,
,,,,,SPR24_068,21,male,2024-04-18_16h38.08.512,jersey_experiment_5_v0,2023.2.2,Win32,84.74576271,,,,,,,,,,,,,,,,115.7221,117.0158,117.0158,125.5926,return,6.2832,,3.385416667,0,13,13,10,1,FBP-OG-91.png,0.35,1.2,11,0.5,,,,,,,,,,,,,,,,,,,,,,,,,,,,,,,,,,,,,,,,,,,,,
,,,,,SPR24_068,21,male,2024-04-18_16h38.08.512,jersey_experiment_5_v0,2023.2.2,Win32,84.74576271,,,,,,,,,,,,,,,,125.597,126.6397,126.6399,129.4635,return,0.6966,,91.40625,0,14,14,23,1,FBP-YG-18.png,0.43,1.2,24,0.25,,,,,,,,,,,,,,,,,,,,,,,,,,,,,,,,,,,,,,,,,,,,,
,,,,,SPR24_068,21,male,2024-04-18_16h38.08.512,jersey_experiment_5_v0,2023.2.2,Win32,84.74576271,,,,,,,,,,,,,,,,129.4637,130.7575,130.7575,133.7342,return,0.921,,85.80729167,0,15,15,32,1,FBP-RB-17.png,0.4,1.2,33,0.5,,,,,,,,,,,,,,,,,,,,,,,,,,,,,,,,,,,,,,,,,,,,,
,,,,,SPR24_068,21,male,2024-04-18_16h38.08.512,jersey_experiment_5_v0,2023.2.2,Win32,84.74576271,,,,,,,,,,,,,,,,133.7343,135.0283,135.0283,137.899,return,0.5558,,4.947916667,0,16,16,1,1,FBP-OG-71.png,0.37,1.2,2,0.5,,,,,,,,,,,,,,,,,,,,,,,,,,,,,,,,,,,,,,,,,,,,,
,,,,,SPR24_068,21,male,2024-04-18_16h38.08.512,jersey_experiment_5_v0,2023.2.2,Win32,84.74576271,,,,,,,,,,,,,,,,137.8992,139.193,139.1931,141.4169,return,0.7321,,78.125,0,17,17,37,1,FBP-RB-18.png,0.4,1.2,38,0.5,,,,,,,,,,,,,,,,,,,,,,,,,,,,,,,,,,,,,,,,,,,,,
,,,,,SPR24_068,21,male,2024-04-18_16h38.08.512,jersey_experiment_5_v0,2023.2.2,Win32,84.74576271,,,,,,,,,,,,,,,,141.4171,142.7109,142.7109,145.558,return,0.8762,,59.24479167,0,18,18,36,1,FBP-RB-18.png,0.37,1.2,37,0.5,,,,,,,,,,,,,,,,,,,,,,,,,,,,,,,,,,,,,,,,,,,,,
,,,,,SPR24_068,21,male,2024-04-18_16h38.08.512,jersey_experiment_5_v0,2023.2.2,Win32,84.74576271,,,,,,,,,,,,,,,,145.5582,146.8522,146.8523,150.0525,return,1.2638,,88.671875,0,19,19,3,1,FBP-OG-71.png,0.43,1.2,4,0.5,,,,,,,,,,,,,,,,,,,,,,,,,,,,,,,,,,,,,,,,,,,,,
,,,,,SPR24_068,21,male,2024-04-18_16h38.08.512,jersey_experiment_5_v0,2023.2.2,Win32,84.74576271,,,,,,,,,,,,,,,,150.0526,151.0996,151.0996,153.5821,return,0.8709,,98.828125,0,20,20,49,1,FBP-PT-17.png,0.45,1.2,50,0.25,,,,,,,,,,,,,,,,,,,,,,,,,,,,,,,,,,,,,,,,,,,,,
,,,,,SPR24_068,21,male,2024-04-18_16h38.08.512,jersey_experiment_5_v0,2023.2.2,Win32,84.74576271,,,,,,,,,,,,,,,,153.5823,154.876,154.8761,157.6291,return,0.8705,,74.34895833,0,21,21,42,1,FBP-RB-19.png,0.4,1.2,43,0.5,,,,,,,,,,,,,,,,,,,,,,,,,,,,,,,,,,,,,,,,,,,,,
,,,,,SPR24_068,21,male,2024-04-18_16h38.08.512,jersey_experiment_5_v0,2023.2.2,Win32,84.74576271,,,,,,,,,,,,,,,,157.6293,158.6762,158.6763,161.2763,return,0.8563,,27.08333333,0,22,22,45,1,FBP-PT-17.png,0.35,1.2,46,0.25,,,,,,,,,,,,,,,,,,,,,,,,,,,,,,,,,,,,,,,,,,,,,
,,,,,SPR24_068,21,male,2024-04-18_16h38.08.512,jersey_experiment_5_v0,2023.2.2,Win32,84.74576271,,,,,,,,,,,,,,,,161.2766,162.3234,162.3234,165.5117,return,0.8982,,91.015625,0,23,23,48,1,FBP-PT-17.png,0.43,1.2,49,0.25,,,,,,,,,,,,,,,,,,,,,,,,,,,,,,,,,,,,,,,,,,,,,
,,,,,SPR24_068,21,male,2024-04-18_16h38.08.512,jersey_experiment_5_v0,2023.2.2,Win32,84.74576271,,,,,,,,,,,,,,,,165.512,166.5588,166.5589,169.0177,return,0.9061,,97.52604167,0,24,24,18,1,FBP-YG-17.png,0.43,1.2,19,0.25,,,,,,,,,,,,,,,,,,,,,,,,,,,,,,,,,,,,,,,,,,,,,
,,,,,SPR24_068,21,male,2024-04-18_16h38.08.512,jersey_experiment_5_v0,2023.2.2,Win32,84.74576271,,,,,,,,,,,,,,,,169.0179,170.3118,170.3119,172.2179,return,0.7079,,97.65625,0,25,25,9,1,FBP-OG-81.png,0.45,1.2,10,0.5,,,,,,,,,,,,,,,,,,,,,,,,,,,,,,,,,,,,,,,,,,,,,
,,,,,SPR24_068,21,male,2024-04-18_16h38.08.512,jersey_experiment_5_v0,2023.2.2,Win32,84.74576271,,,,,,,,,,,,,,,,172.2182,173.5119,173.512,176.0888,return,0.6834,,26.04166667,0,26,26,6,1,FBP-OG-81.png,0.37,1.2,7,0.5,,,,,,,,,,,,,,,,,,,,,,,,,,,,,,,,,,,,,,,,,,,,,
,,,,,SPR24_068,21,male,2024-04-18_16h38.08.512,jersey_experiment_5_v0,2023.2.2,Win32,84.74576271,,,,,,,,,,,,,,,,176.0889,177.1357,177.1357,179.7475,return,0.7005,,95.3125,0,27,27,24,1,FBP-YG-18.png,0.45,1.2,25,0.25,,,,,,,,,,,,,,,,,,,,,,,,,,,,,,,,,,,,,,,,,,,,,
,,,,,SPR24_068,21,male,2024-04-18_16h38.08.512,jersey_experiment_5_v0,2023.2.2,Win32,84.74576271,,,,,,,,,,,,,,,,179.7478,181.0417,181.0417,183.2536,return,0.6743,,26.04166667,0,28,28,11,1,FBP-OG-91.png,0.37,1.2,12,0.5,,,,,,,,,,,,,,,,,,,,,,,,,,,,,,,,,,,,,,,,,,,,,
,,,,,SPR24_068,21,male,2024-04-18_16h38.08.512,jersey_experiment_5_v0,2023.2.2,Win32,84.74576271,,,,,,,,,,,,,,,,183.2538,184.5477,184.5477,187.0183,return,0.7307,,0.651041667,0,29,29,30,1,FBP-RB-17.png,0.35,1.2,31,0.5,,,,,,,,,,,,,,,,,,,,,,,,,,,,,,,,,,,,,,,,,,,,,
,,,,,SPR24_068,21,male,2024-04-18_16h38.08.512,jersey_experiment_5_v0,2023.2.2,Win32,84.74576271,,,,,,,,,,,,,,,,187.0185,188.0655,188.0656,190.1362,return,0.7679,,9.244791667,0,30,30,20,1,FBP-YG-18.png,0.35,1.2,21,0.25,,,,,,,,,,,,,,,,,,,,,,,,,,,,,,,,,,,,,,,,,,,,,
,,,,,SPR24_068,21,male,2024-04-18_16h38.08.512,jersey_experiment_5_v0,2023.2.2,Win32,84.74576271,,,,,,,,,,,,,,,,190.1365,191.1832,191.1832,193.5951,return,0.7058,,75.26041667,0,31,31,47,1,FBP-PT-17.png,0.4,1.2,48,0.25,,,,,,,,,,,,,,,,,,,,,,,,,,,,,,,,,,,,,,,,,,,,,
,,,,,SPR24_068,21,male,2024-04-18_16h38.08.512,jersey_experiment_5_v0,2023.2.2,Win32,84.74576271,,,,,,,,,,,,,,,,193.5953,194.8892,194.8893,196.4775,return,0.2824,,70.96354167,0,32,32,41,1,FBP-RB-19.png,0.37,1.2,42,0.5,,,,,,,,,,,,,,,,,,,,,,,,,,,,,,,,,,,,,,,,,,,,,
,,,,,SPR24_068,21,male,2024-04-18_16h38.08.512,jersey_experiment_5_v0,2023.2.2,Win32,84.74576271,,,,,,,,,,,,,,,,196.4778,197.7718,197.7719,199.5483,return,0.5408,,97.78645833,0,33,33,39,1,FBP-RB-18.png,0.45,1.2,40,0.5,,,,,,,,,,,,,,,,,,,,,,,,,,,,,,,,,,,,,,,,,,,,,
,,,,,SPR24_068,21,male,2024-04-18_16h38.08.512,jersey_experiment_5_v0,2023.2.2,Win32,84.74576271,,,,,,,,,,,,,,,,199.5485,200.8424,200.8425,201.9484,return,0.4852,,97.39583333,0,34,34,4,1,FBP-OG-71.png,0.45,1.2,5,0.5,,,,,,,,,,,,,,,,,,,,,,,,,,,,,,,,,,,,,,,,,,,,,
,,,,,SPR24_068,21,male,2024-04-18_16h38.08.512,jersey_experiment_5_v0,2023.2.2,Win32,84.74576271,,,,,,,,,,,,,,,,201.9487,202.9954,202.9954,205.2778,return,0.6219,,49.08854167,0,35,35,50,1,FBP-PT-18.png,0.35,1.2,51,0.25,,,,,,,,,,,,,,,,,,,,,,,,,,,,,,,,,,,,,,,,,,,,,
,,,,,SPR24_068,21,male,2024-04-18_16h38.08.512,jersey_experiment_5_v0,2023.2.2,Win32,84.74576271,,,,,,,,,,,,,,,,205.2781,206.325,206.3251,207.9252,return,0.4756,,77.08333333,0,36,36,58,1,FBP-PT-19.png,0.43,1.2,59,0.25,,,,,,,,,,,,,,,,,,,,,,,,,,,,,,,,,,,,,,,,,,,,,
,,,,,SPR24_068,21,male,2024-04-18_16h38.08.512,jersey_experiment_5_v0,2023.2.2,Win32,84.74576271,,,,,,,,,,,,,,,,207.9255,208.972,208.972,210.9486,return,0.2188,,49.609375,0,37,37,46,1,FBP-PT-17.png,0.37,1.2,47,0.25,,,,,,,,,,,,,,,,,,,,,,,,,,,,,,,,,,,,,,,,,,,,,
,,,,,SPR24_068,21,male,2024-04-18_16h38.08.512,jersey_experiment_5_v0,2023.2.2,Win32,84.74576271,,,,,,,,,,,,,,,,210.9488,212.2428,212.2429,213.9489,return,0.2364,,91.53645833,0,38,38,38,1,FBP-RB-18.png,0.43,1.2,39,0.5,,,,,,,,,,,,,,,,,,,,,,,,,,,,,,,,,,,,,,,,,,,,,
,,,,,SPR24_068,21,male,2024-04-18_16h38.08.512,jersey_experiment_5_v0,2023.2.2,Win32,84.74576271,,,,,,,,,,,,,,,,213.9491,215.2429,215.243,216.596,return,0.3001,,98.56770833,0,39,39,44,1,FBP-RB-19.png,0.45,1.2,45,0.5,,,,,,,,,,,,,,,,,,,,,,,,,,,,,,,,,,,,,,,,,,,,,
,,,,,SPR24_068,21,male,2024-04-18_16h38.08.512,jersey_experiment_5_v0,2023.2.2,Win32,84.74576271,,,,,,,,,,,,,,,,216.5962,217.6431,217.6431,219.043,return,0.244,,84.375,0,40,40,59,1,FBP-PT-19.png,0.45,1.2,60,0.25,,,,,,,,,,,,,,,,,,,,,,,,,,,,,,,,,,,,,,,,,,,,,
,,,,,SPR24_068,21,male,2024-04-18_16h38.08.512,jersey_experiment_5_v0,2023.2.2,Win32,84.74576271,,,,,,,,,,,,,,,,219.0432,220.3372,220.3372,222.1021,return,0.3587,,71.875,0,41,41,12,1,FBP-OG-91.png,0.4,1.2,13,0.5,,,,,,,,,,,,,,,,,,,,,,,,,,,,,,,,,,,,,,,,,,,,,
,,,,,SPR24_068,21,male,2024-04-18_16h38.08.512,jersey_experiment_5_v0,2023.2.2,Win32,84.74576271,,,,,,,,,,,,,,,,222.1023,223.149,223.1491,224.3139,return,0.2608,,74.08854167,0,42,42,22,1,FBP-YG-18.png,0.4,1.2,23,0.25,,,,,,,,,,,,,,,,,,,,,,,,,,,,,,,,,,,,,,,,,,,,,
,,,,,SPR24_068,21,male,2024-04-18_16h38.08.512,jersey_experiment_5_v0,2023.2.2,Win32,84.74576271,,,,,,,,,,,,,,,,224.3141,225.6081,225.6081,227.4668,return,0.1888,,26.5625,0,43,43,5,1,FBP-OG-81.png,0.35,1.2,6,0.5,,,,,,,,,,,,,,,,,,,,,,,,,,,,,,,,,,,,,,,,,,,,,
,,,,,SPR24_068,21,male,2024-04-18_16h38.08.512,jersey_experiment_5_v0,2023.2.2,Win32,84.74576271,,,,,,,,,,,,,,,,227.4671,228.5141,228.5141,230.2435,return,0.2065,,16.53645833,0,44,44,55,1,FBP-PT-19.png,0.35,1.2,56,0.25,,,,,,,,,,,,,,,,,,,,,,,,,,,,,,,,,,,,,,,,,,,,,
,,,,,SPR24_068,21,male,2024-04-18_16h38.08.512,jersey_experiment_5_v0,2023.2.2,Win32,84.74576271,,,,,,,,,,,,,,,,230.2437,231.2906,231.2906,233.573,return,0.2538,,26.69270833,0,45,45,25,1,FBP-YG-19.png,0.35,1.2,26,0.25,,,,,,,,,,,,,,,,,,,,,,,,,,,,,,,,,,,,,,,,,,,,,
,,,,,SPR24_068,21,male,2024-04-18_16h38.08.512,jersey_experiment_5_v0,2023.2.2,Win32,84.74576271,,,,,,,,,,,,,,,,233.5733,234.8671,234.8672,236.5496,return,0.1704,,85.15625,0,46,46,43,1,FBP-RB-19.png,0.43,1.2,44,0.5,,,,,,,,,,,,,,,,,,,,,,,,,,,,,,,,,,,,,,,,,,,,,
,,,,,SPR24_068,21,male,2024-04-18_16h38.08.512,jersey_experiment_5_v0,2023.2.2,Win32,84.74576271,,,,,,,,,,,,,,,,236.5498,237.8438,237.8438,239.7732,return,0.2352,,54.42708333,0,47,47,31,1,FBP-RB-17.png,0.37,1.2,32,0.5,,,,,,,,,,,,,,,,,,,,,,,,,,,,,,,,,,,,,,,,,,,,,
,,,,,SPR24_068,21,male,2024-04-18_16h38.08.512,jersey_experiment_5_v0,2023.2.2,Win32,84.74576271,,,,,,,,,,,,,,,,239.7735,240.8204,240.8204,242.4558,return,0.2019,,97.65625,0,48,48,19,1,FBP-YG-17.png,0.45,1.2,20,0.25,,,,,,,,,,,,,,,,,,,,,,,,,,,,,,,,,,,,,,,,,,,,,
,,,,,SPR24_068,21,male,2024-04-18_16h38.08.512,jersey_experiment_5_v0,2023.2.2,Win32,84.74576271,,,,,,,,,,,,,,,,242.456,243.7497,243.7497,245.0795,return,0.1908,,75.13020833,0,49,49,2,1,FBP-OG-71.png,0.4,1.2,3,0.5,,,,,,,,,,,,,,,,,,,,,,,,,,,,,,,,,,,,,,,,,,,,,
,,,,,SPR24_068,21,male,2024-04-18_16h38.08.512,jersey_experiment_5_v0,2023.2.2,Win32,84.74576271,,,,,,,,,,,,,,,,245.0796,246.1263,246.1263,247.4205,return,0.1416,,49.609375,0,50,50,56,1,FBP-PT-19.png,0.37,1.2,57,0.25,,,,,,,,,,,,,,,,,,,,,,,,,,,,,,,,,,,,,,,,,,,,,
,,,,,SPR24_068,21,male,2024-04-18_16h38.08.512,jersey_experiment_5_v0,2023.2.2,Win32,84.74576271,,,,,,,,,,,,,,,,247.4208,248.4676,248.4676,249.8794,return,0.1807,,61.84895833,0,51,51,27,1,FBP-YG-19.png,0.4,1.2,28,0.25,,,,,,,,,,,,,,,,,,,,,,,,,,,,,,,,,,,,,,,,,,,,,
,,,,,SPR24_068,21,male,2024-04-18_16h38.08.512,jersey_experiment_5_v0,2023.2.2,Win32,84.74576271,,,,,,,,,,,,,,,,249.8797,250.9265,250.9265,253.4208,return,0.2589,,74.08854167,0,52,52,17,1,FBP-YG-17.png,0.4,1.2,18,0.25,,,,,,,,,,,,,,,,,,,,,,,,,,,,,,,,,,,,,,,,,,,,,
,,,,,SPR24_068,21,male,2024-04-18_16h38.08.512,jersey_experiment_5_v0,2023.2.2,Win32,84.74576271,,,,,,,,,,,,,,,,253.4211,254.7149,254.7149,256.068,return,0.1707,,25.13020833,0,53,53,40,1,FBP-RB-19.png,0.35,1.2,41,0.5,,,,,,,,,,,,,,,,,,,,,,,,,,,,,,,,,,,,,,,,,,,,,
,,,,,SPR24_068,21,male,2024-04-18_16h38.08.512,jersey_experiment_5_v0,2023.2.2,Win32,84.74576271,,,,,,,,,,,,,,,,256.0683,257.1151,257.1151,258.3739,return,0.2058,,14.58333333,0,54,54,15,1,FBP-YG-17.png,0.35,1.2,16,0.25,,,,,,,,,,,,,,,,,,,,,,,,,,,,,,,,,,,,,,,,,,,,,
,,,,,SPR24_068,21,male,2024-04-18_16h38.08.512,jersey_experiment_5_v0,2023.2.2,Win32,84.74576271,,,,,,,,,,,,,,,,258.3741,259.4209,259.4209,261.2211,return,0.1832,,62.5,0,55,55,52,1,FBP-PT-18.png,0.4,1.2,53,0.25,,,,,,,,,,,,,,,,,,,,,,,,,,,,,,,,,,,,,,,,,,,,,
,,,,,SPR24_068,21,male,2024-04-18_16h38.08.512,jersey_experiment_5_v0,2023.2.2,Win32,84.74576271,,,,,,,,,,,,,,,,261.2215,262.2681,262.2682,263.3153,return,0.2084,,50.78125,0,56,56,26,1,FBP-YG-19.png,0.37,1.2,27,0.25,,,,,,,,,,,,,,,,,,,,,,,,,,,,,,,,,,,,,,,,,,,,,
,,,,,SPR24_068,21,male,2024-04-18_16h38.08.512,jersey_experiment_5_v0,2023.2.2,Win32,84.74576271,,,,,,,,,,,,,,,,263.3155,264.6094,264.6094,265.7154,return,0.2176,,35.546875,0,57,57,0,1,FBP-OG-71.png,0.35,1.2,1,0.5,,,,,,,,,,,,,,,,,,,,,,,,,,,,,,,,,,,,,,,,,,,,,
,,,,,SPR24_068,21,male,2024-04-18_16h38.08.512,jersey_experiment_5_v0,2023.2.2,Win32,84.74576271,,,,,,,,,,,,,,,,265.7156,266.7624,266.7624,268.2213,return,0.1751,,99.34895833,0,58,58,29,1,FBP-YG-19.png,0.45,1.2,30,0.25,,,,,,,,,,,,,,,,,,,,,,,,,,,,,,,,,,,,,,,,,,,,,
,,,,,SPR24_068,21,male,2024-04-18_16h38.08.512,jersey_experiment_5_v0,2023.2.2,Win32,84.74576271,,,,,,,,,,,,,,,,268.2215,269.2685,269.2686,270.5389,return,0.179,,86.97916667,0,59,59,53,1,FBP-PT-18.png,0.43,1.2,54,0.25,,,,,,,,,,,,,,,,,,,,,,,,,,,,,,,,,,,,,,,,,,,,,
,,,,,SPR24_068,21,male,2024-04-18_16h38.08.512,jersey_experiment_5_v0,2023.2.2,Win32,84.74576271,,,,,,,,,,,,,,,,270.5411,271.8333,271.8333,273.4451,return,0.1949,,63.80208333,,,,,,FBP-OG-18.png,0.4,1.2,8,0.5,0,0,0,7,1,,,,,,,,,,,,,,,,,,,,,,,,,,,,,,,,,,,,,,,,
,,,,,SPR24_068,21,male,2024-04-18_16h38.08.512,jersey_experiment_5_v0,2023.2.2,Win32,84.74576271,,,,,,,,,,,,,,,,273.4455,274.4921,274.4921,275.6097,return,0.2371,,77.34375,,,,,,FBP-YG-71.png,0.4,1.2,18,0.25,0,1,1,17,1,,,,,,,,,,,,,,,,,,,,,,,,,,,,,,,,,,,,,,,,
,,,,,SPR24_068,21,male,2024-04-18_16h38.08.512,jersey_experiment_5_v0,2023.2.2,Win32,84.74576271,,,,,,,,,,,,,,,,275.6099,276.904,276.904,278.0923,return,0.2261,,98.56770833,,,,,,FBP-RB-91.png,0.43,1.2,44,0.5,0,2,2,43,1,,,,,,,,,,,,,,,,,,,,,,,,,,,,,,,,,,,,,,,,
,,,,,SPR24_068,21,male,2024-04-18_16h38.08.512,jersey_experiment_5_v0,2023.2.2,Win32,84.74576271,,,,,,,,,,,,,,,,278.0926,279.3864,279.3865,280.9983,return,0.2966,,23.95833333,,,,,,FBP-OG-18.png,0.35,1.2,6,0.5,0,3,3,5,1,,,,,,,,,,,,,,,,,,,,,,,,,,,,,,,,,,,,,,,,
,,,,,SPR24_068,21,male,2024-04-18_16h38.08.512,jersey_experiment_5_v0,2023.2.2,Win32,84.74576271,,,,,,,,,,,,,,,,280.9985,282.2924,282.2925,284.6455,return,0.1709,,49.34895833,,,,,,FBP-RB-71.png,0.37,1.2,32,0.5,0,4,4,31,1,,,,,,,,,,,,,,,,,,,,,,,,,,,,,,,,,,,,,,,,
,,,,,SPR24_068,21,male,2024-04-18_16h38.08.512,jersey_experiment_5_v0,2023.2.2,Win32,84.74576271,,,,,,,,,,,,,,,,284.6458,285.6926,285.6926,287.2573,return,0.1435,,86.84895833,,,,,,FBP-PT-91.png,0.43,1.2,59,0.25,0,5,5,58,1,,,,,,,,,,,,,,,,,,,,,,,,,,,,,,,,,,,,,,,,
,,,,,SPR24_068,21,male,2024-04-18_16h38.08.512,jersey_experiment_5_v0,2023.2.2,Win32,84.74576271,,,,,,,,,,,,,,,,287.2575,288.3044,288.3045,289.7044,return,0.1775,,61.06770833,,,,,,FBP-PT-81.png,0.4,1.2,53,0.25,0,6,6,52,1,,,,,,,,,,,,,,,,,,,,,,,,,,,,,,,,,,,,,,,,
,,,,,SPR24_068,21,male,2024-04-18_16h38.08.512,jersey_experiment_5_v0,2023.2.2,Win32,84.74576271,,,,,,,,,,,,,,,,289.7047,290.7515,290.7515,291.9399,return,0.2429,,50.52083333,,,,,,FBP-PT-81.png,0.37,1.2,52,0.25,0,7,7,51,1,,,,,,,,,,,,,,,,,,,,,,,,,,,,,,,,,,,,,,,,
,,,,,SPR24_068,21,male,2024-04-18_16h38.08.512,jersey_experiment_5_v0,2023.2.2,Win32,84.74576271,,,,,,,,,,,,,,,,291.9401,293.2339,293.2339,294.6692,return,0.2358,,90.49479167,,,,,,FBP-OG-19.png,0.45,1.2,15,0.5,0,8,8,14,1,,,,,,,,,,,,,,,,,,,,,,,,,,,,,,,,,,,,,,,,
,,,,,SPR24_068,21,male,2024-04-18_16h38.08.512,jersey_experiment_5_v0,2023.2.2,Win32,84.74576271,,,,,,,,,,,,,,,,294.6694,295.9635,295.9635,297.046,return,0.2172,,75.26041667,,,,,,FBP-OG-18.png,0.43,1.2,9,0.5,0,9,9,8,1,,,,,,,,,,,,,,,,,,,,,,,,,,,,,,,,,,,,,,,,
,,,,,SPR24_068,21,male,2024-04-18_16h38.08.512,jersey_experiment_5_v0,2023.2.2,Win32,84.74576271,,,,,,,,,,,,,,,,297.0462,298.093,298.093,298.9518,return,0.1684,,75.26041667,,,,,,FBP-YG-81.png,0.43,1.2,24,0.25,0,10,10,23,1,,,,,,,,,,,,,,,,,,,,,,,,,,,,,,,,,,,,,,,,
,,,,,SPR24_068,21,male,2024-04-18_16h38.08.512,jersey_experiment_5_v0,2023.2.2,Win32,84.74576271,,,,,,,,,,,,,,,,298.952,299.999,299.999,301.046,return,0.2642,,96.61458333,,,,,,FBP-PT-91.png,0.45,1.2,60,0.25,0,11,11,59,1,,,,,,,,,,,,,,,,,,,,,,,,,,,,,,,,,,,,,,,,
,,,,,SPR24_068,21,male,2024-04-18_16h38.08.512,jersey_experiment_5_v0,2023.2.2,Win32,84.74576271,,,,,,,,,,,,,,,,301.0463,302.0932,302.0932,303.6697,return,0.1924,,75.91145833,,,,,,FBP-YG-91.png,0.4,1.2,28,0.25,0,12,12,27,1,,,,,,,,,,,,,,,,,,,,,,,,,,,,,,,,,,,,,,,,
,,,,,SPR24_068,21,male,2024-04-18_16h38.08.512,jersey_experiment_5_v0,2023.2.2,Win32,84.74576271,,,,,,,,,,,,,,,,303.6699,304.9639,304.9639,305.7168,return,0.2537,,75.78125,,,,,,FBP-RB-81.png,0.4,1.2,38,0.5,0,13,13,37,1,,,,,,,,,,,,,,,,,,,,,,,,,,,,,,,,,,,,,,,,
,,,,,SPR24_068,21,male,2024-04-18_16h38.08.512,jersey_experiment_5_v0,2023.2.2,Win32,84.74576271,,,,,,,,,,,,,,,,305.7171,307.0109,307.011,307.7639,return,0.2173,,75.78125,,,,,,FBP-RB-71.png,0.4,1.2,33,0.5,0,14,14,32,1,,,,,,,,,,,,,,,,,,,,,,,,,,,,,,,,,,,,,,,,
,,,,,SPR24_068,21,male,2024-04-18_16h38.08.512,jersey_experiment_5_v0,2023.2.2,Win32,84.74576271,,,,,,,,,,,,,,,,307.7641,308.8109,308.8109,310.6463,return,0.8757,,52.60416667,,,,,,FBP-YG-81.png,0.35,1.2,21,0.25,0,15,15,20,1,,,,,,,,,,,,,,,,,,,,,,,,,,,,,,,,,,,,,,,,
,,,,,SPR24_068,21,male,2024-04-18_16h38.08.512,jersey_experiment_5_v0,2023.2.2,Win32,84.74576271,,,,,,,,,,,,,,,,310.6464,311.9405,311.9405,313.7877,return,0.1885,,29.94791667,,,,,,FBP-OG-19.png,0.35,1.2,11,0.5,0,16,16,10,1,,,,,,,,,,,,,,,,,,,,,,,,,,,,,,,,,,,,,,,,
,,,,,SPR24_068,21,male,2024-04-18_16h38.08.512,jersey_experiment_5_v0,2023.2.2,Win32,84.74576271,,,,,,,,,,,,,,,,313.7879,315.082,315.0821,316.1407,return,0.1658,,85.41666667,,,,,,FBP-RB-91.png,0.45,1.2,45,0.5,0,17,17,44,1,,,,,,,,,,,,,,,,,,,,,,,,,,,,,,,,,,,,,,,,
,,,,,SPR24_068,21,male,2024-04-18_16h38.08.512,jersey_experiment_5_v0,2023.2.2,Win32,84.74576271,,,,,,,,,,,,,,,,316.1409,317.1879,317.1879,318.6585,return,0.1857,,22.52604167,,,,,,FBP-YG-91.png,0.35,1.2,26,0.25,0,18,18,25,1,,,,,,,,,,,,,,,,,,,,,,,,,,,,,,,,,,,,,,,,
,,,,,SPR24_068,21,male,2024-04-18_16h38.08.512,jersey_experiment_5_v0,2023.2.2,Win32,84.74576271,,,,,,,,,,,,,,,,318.6586,319.7056,319.7056,320.9056,return,0.19,,1.692708333,,,,,,FBP-YG-71.png,0.35,1.2,16,0.25,0,19,19,15,1,,,,,,,,,,,,,,,,,,,,,,,,,,,,,,,,,,,,,,,,
,,,,,SPR24_068,21,male,2024-04-18_16h38.08.512,jersey_experiment_5_v0,2023.2.2,Win32,84.74576271,,,,,,,,,,,,,,,,320.9058,321.9527,321.9527,323.3997,return,0.1918,,87.36979167,,,,,,FBP-YG-71.png,0.45,1.2,20,0.25,0,20,20,19,1,,,,,,,,,,,,,,,,,,,,,,,,,,,,,,,,,,,,,,,,
,,,,,SPR24_068,21,male,2024-04-18_16h38.08.512,jersey_experiment_5_v0,2023.2.2,Win32,84.74576271,,,,,,,,,,,,,,,,323.4,324.6939,324.6939,325.6234,return,0.1572,,71.35416667,,,,,,FBP-OG-19.png,0.4,1.2,13,0.5,0,21,21,12,1,,,,,,,,,,,,,,,,,,,,,,,,,,,,,,,,,,,,,,,,
,,,,,SPR24_068,21,male,2024-04-18_16h38.08.512,jersey_experiment_5_v0,2023.2.2,Win32,84.74576271,,,,,,,,,,,,,,,,325.6237,326.9176,326.9176,327.9176,return,0.1748,,49.34895833,,,,,,FBP-RB-91.png,0.37,1.2,42,0.5,0,22,22,41,1,,,,,,,,,,,,,,,,,,,,,,,,,,,,,,,,,,,,,,,,
,,,,,SPR24_068,21,male,2024-04-18_16h38.08.512,jersey_experiment_5_v0,2023.2.2,Win32,84.74576271,,,,,,,,,,,,,,,,327.9177,328.9647,328.9648,330.4235,return,0.2275,,41.796875,,,,,,FBP-YG-81.png,0.37,1.2,22,0.25,0,23,23,21,1,,,,,,,,,,,,,,,,,,,,,,,,,,,,,,,,,,,,,,,,
,,,,,SPR24_068,21,male,2024-04-18_16h38.08.512,jersey_experiment_5_v0,2023.2.2,Win32,84.74576271,,,,,,,,,,,,,,,,330.4239,331.7178,331.7178,332.7766,return,0.1657,,87.890625,,,,,,FBP-RB-71.png,0.45,1.2,35,0.5,0,24,24,34,1,,,,,,,,,,,,,,,,,,,,,,,,,,,,,,,,,,,,,,,,
,,,,,SPR24_068,21,male,2024-04-18_16h38.08.512,jersey_experiment_5_v0,2023.2.2,Win32,84.74576271,,,,,,,,,,,,,,,,332.7769,333.8236,333.8236,334.7179,return,0.1512,,75.65104167,,,,,,FBP-PT-81.png,0.43,1.2,54,0.25,0,25,25,53,1,,,,,,,,,,,,,,,,,,,,,,,,,,,,,,,,,,,,,,,,
,,,,,SPR24_068,21,male,2024-04-18_16h38.08.512,jersey_experiment_5_v0,2023.2.2,Win32,84.74576271,,,,,,,,,,,,,,,,334.7181,336.0121,336.0121,336.8238,return,0.1668,,89.71354167,,,,,,FBP-RB-71.png,0.43,1.2,34,0.5,0,26,26,33,1,,,,,,,,,,,,,,,,,,,,,,,,,,,,,,,,,,,,,,,,
,,,,,SPR24_068,21,male,2024-04-18_16h38.08.512,jersey_experiment_5_v0,2023.2.2,Win32,84.74576271,,,,,,,,,,,,,,,,336.824,338.118,338.118,338.918,return,0.168,,99.08854167,,,,,,FBP-OG-17.png,0.45,1.2,5,0.5,0,27,27,4,1,,,,,,,,,,,,,,,,,,,,,,,,,,,,,,,,,,,,,,,,
,,,,,SPR24_068,21,male,2024-04-18_16h38.08.512,jersey_experiment_5_v0,2023.2.2,Win32,84.74576271,,,,,,,,,,,,,,,,338.9182,339.9651,339.9651,341.5651,return,0.1888,,0.130208333,,,,,,FBP-PT-81.png,0.35,1.2,51,0.25,0,28,28,50,1,,,,,,,,,,,,,,,,,,,,,,,,,,,,,,,,,,,,,,,,
,,,,,SPR24_068,21,male,2024-04-18_16h38.08.512,jersey_experiment_5_v0,2023.2.2,Win32,84.74576271,,,,,,,,,,,,,,,,341.5653,342.8593,342.8594,344.1063,return,0.2126,,27.99479167,,,,,,FBP-RB-81.png,0.37,1.2,37,0.5,0,29,29,36,1,,,,,,,,,,,,,,,,,,,,,,,,,,,,,,,,,,,,,,,,
,,,,,SPR24_068,21,male,2024-04-18_16h38.08.512,jersey_experiment_5_v0,2023.2.2,Win32,84.74576271,,,,,,,,,,,,,,,,344.1066,345.4004,345.4005,347.8477,return,0.1542,,50.91145833,,,,,,FBP-OG-18.png,0.37,1.2,7,0.5,0,30,30,6,1,,,,,,,,,,,,,,,,,,,,,,,,,,,,,,,,,,,,,,,,
,,,,,SPR24_068,21,male,2024-04-18_16h38.08.512,jersey_experiment_5_v0,2023.2.2,Win32,84.74576271,,,,,,,,,,,,,,,,347.8481,348.8948,348.8949,350.036,return,0.1721,,25.78125,,,,,,FBP-PT-71.png,0.35,1.2,46,0.25,0,31,31,45,1,,,,,,,,,,,,,,,,,,,,,,,,,,,,,,,,,,,,,,,,
,,,,,SPR24_068,21,male,2024-04-18_16h38.08.512,jersey_experiment_5_v0,2023.2.2,Win32,84.74576271,,,,,,,,,,,,,,,,350.0362,351.0832,351.0833,352.6832,return,0.2123,,49.73958333,,,,,,FBP-YG-81.png,0.4,1.2,23,0.25,0,32,32,22,1,,,,,,,,,,,,,,,,,,,,,,,,,,,,,,,,,,,,,,,,
,,,,,SPR24_068,21,male,2024-04-18_16h38.08.512,jersey_experiment_5_v0,2023.2.2,Win32,84.74576271,,,,,,,,,,,,,,,,352.6834,353.7303,353.7304,355.2832,return,0.2059,,75.91145833,,,,,,FBP-PT-71.png,0.43,1.2,49,0.25,0,33,33,48,1,,,,,,,,,,,,,,,,,,,,,,,,,,,,,,,,,,,,,,,,
,,,,,SPR24_068,21,male,2024-04-18_16h38.08.512,jersey_experiment_5_v0,2023.2.2,Win32,84.74576271,,,,,,,,,,,,,,,,355.2835,356.3304,356.3304,357.4951,return,0.1924,,75.13020833,,,,,,FBP-YG-71.png,0.43,1.2,19,0.25,0,34,34,18,1,,,,,,,,,,,,,,,,,,,,,,,,,,,,,,,,,,,,,,,,
,,,,,SPR24_068,21,male,2024-04-18_16h38.08.512,jersey_experiment_5_v0,2023.2.2,Win32,84.74576271,,,,,,,,,,,,,,,,357.4952,358.7892,358.7892,359.5305,return,0.2018,,75.13020833,,,,,,FBP-RB-91.png,0.4,1.2,43,0.5,0,35,35,42,1,,,,,,,,,,,,,,,,,,,,,,,,,,,,,,,,,,,,,,,,
,,,,,SPR24_068,21,male,2024-04-18_16h38.08.512,jersey_experiment_5_v0,2023.2.2,Win32,84.74576271,,,,,,,,,,,,,,,,359.5308,360.5775,360.5776,361.6129,return,0.2119,,92.1875,,,,,,FBP-PT-71.png,0.45,1.2,50,0.25,0,36,36,49,1,,,,,,,,,,,,,,,,,,,,,,,,,,,,,,,,,,,,,,,,
,,,,,SPR24_068,21,male,2024-04-18_16h38.08.512,jersey_experiment_5_v0,2023.2.2,Win32,84.74576271,,,,,,,,,,,,,,,,361.6132,362.9071,362.9071,363.8012,return,0.1764,,78.515625,,,,,,FBP-OG-19.png,0.43,1.2,14,0.5,0,37,37,13,1,,,,,,,,,,,,,,,,,,,,,,,,,,,,,,,,,,,,,,,,
,,,,,SPR24_068,21,male,2024-04-18_16h38.08.512,jersey_experiment_5_v0,2023.2.2,Win32,84.74576271,,,,,,,,,,,,,,,,363.8014,364.8484,364.8484,366.1072,return,0.2356,,53.38541667,,,,,,FBP-YG-91.png,0.37,1.2,27,0.25,0,38,38,26,1,,,,,,,,,,,,,,,,,,,,,,,,,,,,,,,,,,,,,,,,
,,,,,SPR24_068,21,male,2024-04-18_16h38.08.512,jersey_experiment_5_v0,2023.2.2,Win32,84.74576271,,,,,,,,,,,,,,,,366.1074,367.4013,367.4013,368.3074,return,0.1941,,32.29166667,,,,,,FBP-RB-91.png,0.35,1.2,41,0.5,0,39,39,40,1,,,,,,,,,,,,,,,,,,,,,,,,,,,,,,,,,,,,,,,,
,,,,,SPR24_068,21,male,2024-04-18_16h38.08.512,jersey_experiment_5_v0,2023.2.2,Win32,84.74576271,,,,,,,,,,,,,,,,368.3076,369.6015,369.6015,370.3543,return,0.2326,,30.59895833,,,,,,FBP-RB-71.png,0.35,1.2,31,0.5,0,40,40,30,1,,,,,,,,,,,,,,,,,,,,,,,,,,,,,,,,,,,,,,,,
,,,,,SPR24_068,21,male,2024-04-18_16h38.08.512,jersey_experiment_5_v0,2023.2.2,Win32,84.74576271,,,,,,,,,,,,,,,,370.3545,371.6487,371.6488,372.8132,return,0.1508,,52.34375,,,,,,FBP-OG-17.png,0.37,1.2,2,0.5,0,41,41,1,1,,,,,,,,,,,,,,,,,,,,,,,,,,,,,,,,,,,,,,,,
,,,,,SPR24_068,21,male,2024-04-18_16h38.08.512,jersey_experiment_5_v0,2023.2.2,Win32,84.74576271,,,,,,,,,,,,,,,,372.8134,374.1074,374.1075,374.8605,return,0.165,,50.26041667,,,,,,FBP-OG-19.png,0.37,1.2,12,0.5,0,42,42,11,1,,,,,,,,,,,,,,,,,,,,,,,,,,,,,,,,,,,,,,,,
,,,,,SPR24_068,21,male,2024-04-18_16h38.08.512,jersey_experiment_5_v0,2023.2.2,Win32,84.74576271,,,,,,,,,,,,,,,,374.8608,375.9075,375.9076,377.7311,return,0.1965,,99.86979167,,,,,,FBP-PT-81.png,0.45,1.2,55,0.25,0,43,43,54,1,,,,,,,,,,,,,,,,,,,,,,,,,,,,,,,,,,,,,,,,
,,,,,SPR24_068,21,male,2024-04-18_16h38.08.512,jersey_experiment_5_v0,2023.2.2,Win32,84.74576271,,,,,,,,,,,,,,,,377.7313,379.0251,379.0251,381.0489,return,0.1436,,29.94791667,,,,,,FBP-RB-81.png,0.35,1.2,36,0.5,0,44,44,35,1,,,,,,,,,,,,,,,,,,,,,,,,,,,,,,,,,,,,,,,,
,,,,,SPR24_068,21,male,2024-04-18_16h38.08.512,jersey_experiment_5_v0,2023.2.2,Win32,84.74576271,,,,,,,,,,,,,,,,381.0491,382.096,382.0961,383.4843,return,0.2018,,35.80729167,,,,,,FBP-PT-71.png,0.37,1.2,47,0.25,0,45,45,46,1,,,,,,,,,,,,,,,,,,,,,,,,,,,,,,,,,,,,,,,,
,,,,,SPR24_068,21,male,2024-04-18_16h38.08.512,jersey_experiment_5_v0,2023.2.2,Win32,84.74576271,,,,,,,,,,,,,,,,383.4846,384.7784,384.7785,386.5197,return,0.8255,,89.71354167,,,,,,FBP-OG-18.png,0.45,1.2,10,0.5,0,46,46,9,1,,,,,,,,,,,,,,,,,,,,,,,,,,,,,,,,,,,,,,,,
,,,,,SPR24_068,21,male,2024-04-18_16h38.08.512,jersey_experiment_5_v0,2023.2.2,Win32,84.74576271,,,,,,,,,,,,,,,,386.52,387.8139,387.8139,389.014,return,0.1683,,86.328125,,,,,,FBP-OG-17.png,0.43,1.2,4,0.5,0,47,47,3,1,,,,,,,,,,,,,,,,,,,,,,,,,,,,,,,,,,,,,,,,
,,,,,SPR24_068,21,male,2024-04-18_16h38.08.512,jersey_experiment_5_v0,2023.2.2,Win32,84.74576271,,,,,,,,,,,,,,,,389.0142,390.3079,390.3079,390.955,return,0.1745,,86.328125,,,,,,FBP-RB-81.png,0.43,1.2,39,0.5,0,48,48,38,1,,,,,,,,,,,,,,,,,,,,,,,,,,,,,,,,,,,,,,,,
,,,,,SPR24_068,21,male,2024-04-18_16h38.08.512,jersey_experiment_5_v0,2023.2.2,Win32,84.74576271,,,,,,,,,,,,,,,,390.9552,392.2492,392.2493,393.1434,return,0.1547,,96.22395833,,,,,,FBP-RB-81.png,0.45,1.2,40,0.5,0,49,49,39,1,,,,,,,,,,,,,,,,,,,,,,,,,,,,,,,,,,,,,,,,
,,,,,SPR24_068,21,male,2024-04-18_16h38.08.512,jersey_experiment_5_v0,2023.2.2,Win32,84.74576271,,,,,,,,,,,,,,,,393.1436,394.4375,394.4376,395.9906,return,0.1461,,25.13020833,,,,,,FBP-OG-17.png,0.35,1.2,1,0.5,0,50,50,0,1,,,,,,,,,,,,,,,,,,,,,,,,,,,,,,,,,,,,,,,,
,,,,,SPR24_068,21,male,2024-04-18_16h38.08.512,jersey_experiment_5_v0,2023.2.2,Win32,84.74576271,,,,,,,,,,,,,,,,395.9908,397.0377,397.0377,398.9554,return,1.0355,,88.28125,,,,,,FBP-YG-91.png,0.45,1.2,30,0.25,0,51,51,29,1,,,,,,,,,,,,,,,,,,,,,,,,,,,,,,,,,,,,,,,,
,,,,,SPR24_068,21,male,2024-04-18_16h38.08.512,jersey_experiment_5_v0,2023.2.2,Win32,84.74576271,,,,,,,,,,,,,,,,398.9557,400.0025,400.0025,401.3791,return,0.2198,,69.01041667,,,,,,FBP-PT-71.png,0.4,1.2,48,0.25,0,52,52,47,1,,,,,,,,,,,,,,,,,,,,,,,,,,,,,,,,,,,,,,,,
,,,,,SPR24_068,21,male,2024-04-18_16h38.08.512,jersey_experiment_5_v0,2023.2.2,Win32,84.74576271,,,,,,,,,,,,,,,,401.3793,402.4263,402.4263,404.1204,return,0.1791,,60.80729167,,,,,,FBP-YG-71.png,0.37,1.2,17,0.25,0,53,53,16,1,,,,,,,,,,,,,,,,,,,,,,,,,,,,,,,,,,,,,,,,
,,,,,SPR24_068,21,male,2024-04-18_16h38.08.512,jersey_experiment_5_v0,2023.2.2,Win32,84.74576271,,,,,,,,,,,,,,,,404.1206,405.1674,405.1674,406.4263,return,0.2252,,54.42708333,,,,,,FBP-PT-91.png,0.37,1.2,57,0.25,0,54,54,56,1,,,,,,,,,,,,,,,,,,,,,,,,,,,,,,,,,,,,,,,,
,,,,,SPR24_068,21,male,2024-04-18_16h38.08.512,jersey_experiment_5_v0,2023.2.2,Win32,84.74576271,,,,,,,,,,,,,,,,406.4265,407.4733,407.4733,408.7087,return,0.1445,,87.5,,,,,,FBP-YG-81.png,0.45,1.2,25,0.25,0,55,55,24,1,,,,,,,,,,,,,,,,,,,,,,,,,,,,,,,,,,,,,,,,
,,,,,SPR24_068,21,male,2024-04-18_16h38.08.512,jersey_experiment_5_v0,2023.2.2,Win32,84.74576271,,,,,,,,,,,,,,,,408.709,409.7558,409.7558,410.7442,return,0.2015,,91.015625,,,,,,FBP-YG-91.png,0.43,1.2,29,0.25,0,56,56,28,1,,,,,,,,,,,,,,,,,,,,,,,,,,,,,,,,,,,,,,,,
,,,,,SPR24_068,21,male,2024-04-18_16h38.08.512,jersey_experiment_5_v0,2023.2.2,Win32,84.74576271,,,,,,,,,,,,,,,,410.7444,412.0382,412.0383,413.05,return,0.2227,,71.875,,,,,,FBP-OG-17.png,0.4,1.2,3,0.5,0,57,57,2,1,,,,,,,,,,,,,,,,,,,,,,,,,,,,,,,,,,,,,,,,
,,,,,SPR24_068,21,male,2024-04-18_16h38.08.512,jersey_experiment_5_v0,2023.2.2,Win32,84.74576271,,,,,,,,,,,,,,,,413.0503,414.0972,414.0972,416.6501,return,1.2345,,56.77083333,,,,,,FBP-PT-91.png,0.35,1.2,56,0.25,0,58,58,55,1,,,,,,,,,,,,,,,,,,,,,,,,,,,,,,,,,,,,,,,,
,,,,,SPR24_068,21,male,2024-04-18_16h38.08.512,jersey_experiment_5_v0,2023.2.2,Win32,84.74576271,,,,,,,,,,,,,,,,416.6503,417.6973,417.6973,418.5324,return,0.1573,,54.296875,,,,,,FBP-PT-91.png,0.4,1.2,58,0.25,0,59,59,57,1,,,,,,,,,,,,,,,,,,,,,,,,,,,,,,,,,,,,,,,,
,,,,,SPR24_068,21,male,2024-04-18_16h38.08.512,jersey_experiment_5_v0,2023.2.2,Win32,84.74576271,,,,,,,,,,,,,,,,,,,,,,,,,,,,,,,,,,,,,,,418.5329,538.5255,,,,,,,,,,,,,,,,,,,,,,,,,,,,,,,,,,,,,,
,,,,,SPR24_068,21,male,2024-04-18_16h38.08.512,jersey_experiment_5_v0,2023.2.2,Win32,84.74576271,,,,,,,,,,,,,,,,,,,,,,,,,,,,,,,,,,,,,,,,,538.5256,542.9021,return,4.3696,,,,,,,,,,,,,,,,,,,,,,,,,,,,,,,,,,
,,,,,SPR24_068,21,male,2024-04-18_16h38.08.512,jersey_experiment_5_v0,2023.2.2,Win32,84.74576271,,,,,,,,,,,,,,,,542.9084,543.9605,543.9605,546.2313,return,0.2485,,51.69270833,,,,,,FBP-RB-17.png,0.37,1.2,32,0.25,,,,,,,,,,,,,0,0,0,31,1,,,,,,,,,,,,,,,,,,,,,,,,,,,,
,,,,,SPR24_068,21,male,2024-04-18_16h38.08.512,jersey_experiment_5_v0,2023.2.2,Win32,84.74576271,,,,,,,,,,,,,,,,546.2316,547.2783,547.2783,548.3724,return,0.1242,,46.74479167,,,,,,FBP-OG-71.png,0.37,1.2,2,0.25,,,,,,,,,,,,,0,1,1,1,1,,,,,,,,,,,,,,,,,,,,,,,,,,,,
,,,,,SPR24_068,21,male,2024-04-18_16h38.08.512,jersey_experiment_5_v0,2023.2.2,Win32,84.74576271,,,,,,,,,,,,,,,,548.3727,549.4195,549.4196,550.8667,return,0.1729,,66.40625,,,,,,FBP-OG-81.png,0.4,1.2,8,0.25,,,,,,,,,,,,,0,2,2,7,1,,,,,,,,,,,,,,,,,,,,,,,,,,,,
,,,,,SPR24_068,21,male,2024-04-18_16h38.08.512,jersey_experiment_5_v0,2023.2.2,Win32,84.74576271,,,,,,,,,,,,,,,,550.867,551.9138,551.9139,552.9728,return,0.1894,,48.69791667,,,,,,FBP-RB-17.png,0.35,1.2,31,0.25,,,,,,,,,,,,,0,3,3,30,1,,,,,,,,,,,,,,,,,,,,,,,,,,,,
,,,,,SPR24_068,21,male,2024-04-18_16h38.08.512,jersey_experiment_5_v0,2023.2.2,Win32,84.74576271,,,,,,,,,,,,,,,,552.9731,554.0197,554.0197,555.1963,return,0.1513,,78.64583333,,,,,,FBP-OG-91.png,0.43,1.2,14,0.25,,,,,,,,,,,,,0,4,4,13,1,,,,,,,,,,,,,,,,,,,,,,,,,,,,
,,,,,SPR24_068,21,male,2024-04-18_16h38.08.512,jersey_experiment_5_v0,2023.2.2,Win32,84.74576271,,,,,,,,,,,,,,,,555.1966,556.2433,556.2434,557.3847,return,0.1768,,53.515625,,,,,,FBP-RB-18.png,0.37,1.2,37,0.25,,,,,,,,,,,,,0,5,5,36,1,,,,,,,,,,,,,,,,,,,,,,,,,,,,
,,,,,SPR24_068,21,male,2024-04-18_16h38.08.512,jersey_experiment_5_v0,2023.2.2,Win32,84.74576271,,,,,,,,,,,,,,,,557.3848,558.4317,558.4318,559.573,return,0.171,,91.796875,,,,,,FBP-RB-18.png,0.45,1.2,40,0.25,,,,,,,,,,,,,0,6,6,39,1,,,,,,,,,,,,,,,,,,,,,,,,,,,,
,,,,,SPR24_068,21,male,2024-04-18_16h38.08.512,jersey_experiment_5_v0,2023.2.2,Win32,84.74576271,,,,,,,,,,,,,,,,559.5732,560.6199,560.62,561.8905,return,0.1846,,48.69791667,,,,,,FBP-OG-71.png,0.35,1.2,1,0.25,,,,,,,,,,,,,0,7,7,0,1,,,,,,,,,,,,,,,,,,,,,,,,,,,,
,,,,,SPR24_068,21,male,2024-04-18_16h38.08.512,jersey_experiment_5_v0,2023.2.2,Win32,84.74576271,,,,,,,,,,,,,,,,561.8907,562.9378,562.9378,564.1732,return,0.1319,,39.71354167,,,,,,FBP-RB-18.png,0.35,1.2,36,0.25,,,,,,,,,,,,,0,8,8,35,1,,,,,,,,,,,,,,,,,,,,,,,,,,,,
,,,,,SPR24_068,21,male,2024-04-18_16h38.08.512,jersey_experiment_5_v0,2023.2.2,Win32,84.74576271,,,,,,,,,,,,,,,,564.1735,565.4675,565.4675,566.4556,return,0.1563,,90.625,,,,,,FBP-PT-19.png,0.45,1.2,60,0.5,,,,,,,,,,,,,0,9,9,59,1,,,,,,,,,,,,,,,,,,,,,,,,,,,,
,,,,,SPR24_068,21,male,2024-04-18_16h38.08.512,jersey_experiment_5_v0,2023.2.2,Win32,84.74576271,,,,,,,,,,,,,,,,566.4559,567.5025,567.5026,568.5027,return,0.2151,,72.13541667,,,,,,FBP-OG-71.png,0.43,1.2,4,0.25,,,,,,,,,,,,,0,10,10,3,1,,,,,,,,,,,,,,,,,,,,,,,,,,,,
,,,,,SPR24_068,21,male,2024-04-18_16h38.08.512,jersey_experiment_5_v0,2023.2.2,Win32,84.74576271,,,,,,,,,,,,,,,,568.5029,569.7968,569.7968,570.5851,return,0.1527,,62.890625,,,,,,FBP-PT-17.png,0.4,1.2,48,0.5,,,,,,,,,,,,,0,11,11,47,1,,,,,,,,,,,,,,,,,,,,,,,,,,,,
,,,,,SPR24_068,21,male,2024-04-18_16h38.08.512,jersey_experiment_5_v0,2023.2.2,Win32,84.74576271,,,,,,,,,,,,,,,,570.5853,571.6322,571.6322,572.4675,return,0.2292,,62.890625,,,,,,FBP-RB-17.png,0.4,1.2,33,0.25,,,,,,,,,,,,,0,12,12,32,1,,,,,,,,,,,,,,,,,,,,,,,,,,,,
,,,,,SPR24_068,21,male,2024-04-18_16h38.08.512,jersey_experiment_5_v0,2023.2.2,Win32,84.74576271,,,,,,,,,,,,,,,,572.4677,573.7615,573.7616,574.5382,return,0.1422,,70.3125,,,,,,FBP-YG-18.png,0.4,1.2,23,0.5,,,,,,,,,,,,,0,13,13,22,1,,,,,,,,,,,,,,,,,,,,,,,,,,,,
,,,,,SPR24_068,21,male,2024-04-18_16h38.08.512,jersey_experiment_5_v0,2023.2.2,Win32,84.74576271,,,,,,,,,,,,,,,,574.5384,575.5853,575.5853,576.397,return,0.2458,,70.3125,,,,,,FBP-RB-19.png,0.4,1.2,43,0.25,,,,,,,,,,,,,0,14,14,42,1,,,,,,,,,,,,,,,,,,,,,,,,,,,,
,,,,,SPR24_068,21,male,2024-04-18_16h38.08.512,jersey_experiment_5_v0,2023.2.2,Win32,84.74576271,,,,,,,,,,,,,,,,576.3971,577.6911,577.6912,579.0207,return,0.1559,,51.43229167,,,,,,FBP-YG-18.png,0.37,1.2,22,0.5,,,,,,,,,,,,,0,15,15,21,1,,,,,,,,,,,,,,,,,,,,,,,,,,,,
,,,,,SPR24_068,21,male,2024-04-18_16h38.08.512,jersey_experiment_5_v0,2023.2.2,Win32,84.74576271,,,,,,,,,,,,,,,,579.021,580.315,580.3151,581.1265,return,0.1926,,49.21875,,,,,,FBP-YG-18.png,0.35,1.2,21,0.5,,,,,,,,,,,,,0,16,16,20,1,,,,,,,,,,,,,,,,,,,,,,,,,,,,
,,,,,SPR24_068,21,male,2024-04-18_16h38.08.512,jersey_experiment_5_v0,2023.2.2,Win32,84.74576271,,,,,,,,,,,,,,,,581.1267,582.1737,582.1738,583.6208,return,0.1473,,50.65104167,,,,,,FBP-OG-81.png,0.37,1.2,7,0.25,,,,,,,,,,,,,0,17,17,6,1,,,,,,,,,,,,,,,,,,,,,,,,,,,,
,,,,,SPR24_068,21,male,2024-04-18_16h38.08.512,jersey_experiment_5_v0,2023.2.2,Win32,84.74576271,,,,,,,,,,,,,,,,583.621,584.915,584.915,585.6444,return,0.1649,,50.65104167,,,,,,FBP-YG-19.png,0.37,1.2,27,0.5,,,,,,,,,,,,,0,18,18,26,1,,,,,,,,,,,,,,,,,,,,,,,,,,,,
,,,,,SPR24_068,21,male,2024-04-18_16h38.08.512,jersey_experiment_5_v0,2023.2.2,Win32,84.74576271,,,,,,,,,,,,,,,,585.6446,586.9386,586.9387,588.3152,return,0.636,,61.58854167,,,,,,FBP-YG-19.png,0.4,1.2,28,0.5,,,,,,,,,,,,,0,19,19,27,1,,,,,,,,,,,,,,,,,,,,,,,,,,,,
,,,,,SPR24_068,21,male,2024-04-18_16h38.08.512,jersey_experiment_5_v0,2023.2.2,Win32,84.74576271,,,,,,,,,,,,,,,,588.3153,589.6092,589.6092,590.3152,return,0.1643,,51.69270833,,,,,,FBP-PT-18.png,0.37,1.2,52,0.5,,,,,,,,,,,,,0,20,20,51,1,,,,,,,,,,,,,,,,,,,,,,,,,,,,
,,,,,SPR24_068,21,male,2024-04-18_16h38.08.512,jersey_experiment_5_v0,2023.2.2,Win32,84.74576271,,,,,,,,,,,,,,,,590.3154,591.3622,591.3622,592.3388,return,0.1379,,72.265625,,,,,,FBP-RB-18.png,0.4,1.2,38,0.25,,,,,,,,,,,,,0,21,21,37,1,,,,,,,,,,,,,,,,,,,,,,,,,,,,
,,,,,SPR24_068,21,male,2024-04-18_16h38.08.512,jersey_experiment_5_v0,2023.2.2,Win32,84.74576271,,,,,,,,,,,,,,,,592.339,593.6329,593.633,594.6448,return,0.1353,,99.08854167,,,,,,FBP-YG-17.png,0.43,1.2,19,0.5,,,,,,,,,,,,,0,22,22,18,1,,,,,,,,,,,,,,,,,,,,,,,,,,,,
,,,,,SPR24_068,21,male,2024-04-18_16h38.08.512,jersey_experiment_5_v0,2023.2.2,Win32,84.74576271,,,,,,,,,,,,,,,,594.6449,595.6918,595.6918,596.8447,return,0.1178,,97.91666667,,,,,,FBP-RB-17.png,0.43,1.2,34,0.25,,,,,,,,,,,,,0,23,23,33,1,,,,,,,,,,,,,,,,,,,,,,,,,,,,
,,,,,SPR24_068,21,male,2024-04-18_16h38.08.512,jersey_experiment_5_v0,2023.2.2,Win32,84.74576271,,,,,,,,,,,,,,,,596.845,598.139,598.1391,598.9625,return,0.15,,75,,,,,,FBP-PT-19.png,0.37,1.2,57,0.5,,,,,,,,,,,,,0,24,24,56,1,,,,,,,,,,,,,,,,,,,,,,,,,,,,
,,,,,SPR24_068,21,male,2024-04-18_16h38.08.512,jersey_experiment_5_v0,2023.2.2,Win32,84.74576271,,,,,,,,,,,,,,,,598.9626,600.0096,600.0096,600.939,return,0.1179,,96.875,,,,,,FBP-OG-91.png,0.45,1.2,15,0.25,,,,,,,,,,,,,0,25,25,14,1,,,,,,,,,,,,,,,,,,,,,,,,,,,,
,,,,,SPR24_068,21,male,2024-04-18_16h38.08.512,jersey_experiment_5_v0,2023.2.2,Win32,84.74576271,,,,,,,,,,,,,,,,600.9392,601.9863,601.9863,602.986,return,0.1418,,75.390625,,,,,,FBP-OG-81.png,0.43,1.2,9,0.25,,,,,,,,,,,,,0,26,26,8,1,,,,,,,,,,,,,,,,,,,,,,,,,,,,
,,,,,SPR24_068,21,male,2024-04-18_16h38.08.512,jersey_experiment_5_v0,2023.2.2,Win32,84.74576271,,,,,,,,,,,,,,,,602.9863,604.2803,604.2804,604.857,return,0.1319,,74.47916667,,,,,,FBP-YG-17.png,0.4,1.2,18,0.5,,,,,,,,,,,,,0,27,27,17,1,,,,,,,,,,,,,,,,,,,,,,,,,,,,
,,,,,SPR24_068,21,male,2024-04-18_16h38.08.512,jersey_experiment_5_v0,2023.2.2,Win32,84.74576271,,,,,,,,,,,,,,,,604.8572,606.151,606.1511,606.7275,return,0.1305,,74.47916667,,,,,,FBP-YG-19.png,0.43,1.2,29,0.5,,,,,,,,,,,,,0,28,28,28,1,,,,,,,,,,,,,,,,,,,,,,,,,,,,
,,,,,SPR24_068,21,male,2024-04-18_16h38.08.512,jersey_experiment_5_v0,2023.2.2,Win32,84.74576271,,,,,,,,,,,,,,,,606.7277,608.0217,608.0217,608.6099,return,0.1128,,74.47916667,,,,,,FBP-PT-17.png,0.43,1.2,49,0.5,,,,,,,,,,,,,0,29,29,48,1,,,,,,,,,,,,,,,,,,,,,,,,,,,,
,,,,,SPR24_068,21,male,2024-04-18_16h38.08.512,jersey_experiment_5_v0,2023.2.2,Win32,84.74576271,,,,,,,,,,,,,,,,608.6101,609.9041,609.9041,610.4454,return,0.141,,74.47916667,,,,,,FBP-PT-18.png,0.43,1.2,54,0.5,,,,,,,,,,,,,0,30,30,53,1,,,,,,,,,,,,,,,,,,,,,,,,,,,,
,,,,,SPR24_068,21,male,2024-04-18_16h38.08.512,jersey_experiment_5_v0,2023.2.2,Win32,84.74576271,,,,,,,,,,,,,,,,610.4457,611.4924,611.4924,612.5865,return,0.1045,,56.38020833,,,,,,FBP-OG-91.png,0.37,1.2,12,0.25,,,,,,,,,,,,,0,31,31,11,1,,,,,,,,,,,,,,,,,,,,,,,,,,,,
,,,,,SPR24_068,21,male,2024-04-18_16h38.08.512,jersey_experiment_5_v0,2023.2.2,Win32,84.74576271,,,,,,,,,,,,,,,,612.5868,613.8807,613.8807,614.7277,return,0.1542,,37.109375,,,,,,FBP-YG-17.png,0.35,1.2,16,0.5,,,,,,,,,,,,,0,32,32,15,1,,,,,,,,,,,,,,,,,,,,,,,,,,,,
,,,,,SPR24_068,21,male,2024-04-18_16h38.08.512,jersey_experiment_5_v0,2023.2.2,Win32,84.74576271,,,,,,,,,,,,,,,,614.728,615.775,615.7751,617.0338,return,0.0582,,74.47916667,,,,,,FBP-RB-17.png,0.45,1.2,35,0.25,,,,,,,,,,,,,0,33,33,34,1,,,,,,,,,,,,,,,,,,,,,,,,,,,,
,,,,,SPR24_068,21,male,2024-04-18_16h38.08.512,jersey_experiment_5_v0,2023.2.2,Win32,84.74576271,,,,,,,,,,,,,,,,617.0339,618.3278,618.3278,619.0457,return,0.0873,,74.609375,,,,,,FBP-YG-18.png,0.43,1.2,24,0.5,,,,,,,,,,,,,0,34,34,23,1,,,,,,,,,,,,,,,,,,,,,,,,,,,,
,,,,,SPR24_068,21,male,2024-04-18_16h38.08.512,jersey_experiment_5_v0,2023.2.2,Win32,84.74576271,,,,,,,,,,,,,,,,619.046,620.3398,620.3398,621.3162,return,0.1338,,49.08854167,,,,,,FBP-PT-19.png,0.4,1.2,58,0.5,,,,,,,,,,,,,0,35,35,57,1,,,,,,,,,,,,,,,,,,,,,,,,,,,,
,,,,,SPR24_068,21,male,2024-04-18_16h38.08.512,jersey_experiment_5_v0,2023.2.2,Win32,84.74576271,,,,,,,,,,,,,,,,621.3165,622.6103,622.6104,623.587,return,0.1234,,78.77604167,,,,,,FBP-YG-17.png,0.45,1.2,20,0.5,,,,,,,,,,,,,0,36,36,19,1,,,,,,,,,,,,,,,,,,,,,,,,,,,,
,,,,,SPR24_068,21,male,2024-04-18_16h38.08.512,jersey_experiment_5_v0,2023.2.2,Win32,84.74576271,,,,,,,,,,,,,,,,623.5873,624.634,624.634,626.0107,return,0.1643,,19.140625,,,,,,FBP-OG-91.png,0.35,1.2,11,0.25,,,,,,,,,,,,,0,37,37,10,1,,,,,,,,,,,,,,,,,,,,,,,,,,,,
,,,,,SPR24_068,21,male,2024-04-18_16h38.08.512,jersey_experiment_5_v0,2023.2.2,Win32,84.74576271,,,,,,,,,,,,,,,,626.011,627.3048,627.3048,628.3753,return,0.1451,,0.130208333,,,,,,FBP-PT-18.png,0.35,1.2,51,0.5,,,,,,,,,,,,,0,38,38,50,1,,,,,,,,,,,,,,,,,,,,,,,,,,,,
,,,,,SPR24_068,21,male,2024-04-18_16h38.08.512,jersey_experiment_5_v0,2023.2.2,Win32,84.74576271,,,,,,,,,,,,,,,,628.3756,629.6695,629.6696,630.552,return,0.1085,,23.4375,,,,,,FBP-PT-17.png,0.37,1.2,47,0.5,,,,,,,,,,,,,0,39,39,46,1,,,,,,,,,,,,,,,,,,,,,,,,,,,,
,,,,,SPR24_068,21,male,2024-04-18_16h38.08.512,jersey_experiment_5_v0,2023.2.2,Win32,84.74576271,,,,,,,,,,,,,,,,630.5522,631.846,631.846,632.4226,return,0.131,,23.4375,,,,,,FBP-PT-17.png,0.35,1.2,46,0.5,,,,,,,,,,,,,0,40,40,45,1,,,,,,,,,,,,,,,,,,,,,,,,,,,,
,,,,,SPR24_068,21,male,2024-04-18_16h38.08.512,jersey_experiment_5_v0,2023.2.2,Win32,84.74576271,,,,,,,,,,,,,,,,632.4228,633.7167,633.7167,634.5637,return,0.1112,,74.609375,,,,,,FBP-PT-19.png,0.43,1.2,59,0.5,,,,,,,,,,,,,0,41,41,58,1,,,,,,,,,,,,,,,,,,,,,,,,,,,,
,,,,,SPR24_068,21,male,2024-04-18_16h38.08.512,jersey_experiment_5_v0,2023.2.2,Win32,84.74576271,,,,,,,,,,,,,,,,634.564,635.858,635.858,637.0345,return,0.6826,,87.76041667,,,,,,FBP-PT-18.png,0.45,1.2,55,0.5,,,,,,,,,,,,,0,42,42,54,1,,,,,,,,,,,,,,,,,,,,,,,,,,,,
,,,,,SPR24_068,21,male,2024-04-18_16h38.08.512,jersey_experiment_5_v0,2023.2.2,Win32,84.74576271,,,,,,,,,,,,,,,,637.0347,638.0817,638.0817,639.5758,return,0.5776,,48.828125,,,,,,FBP-RB-19.png,0.37,1.2,42,0.25,,,,,,,,,,,,,0,43,43,41,1,,,,,,,,,,,,,,,,,,,,,,,,,,,,
,,,,,SPR24_068,21,male,2024-04-18_16h38.08.512,jersey_experiment_5_v0,2023.2.2,Win32,84.74576271,,,,,,,,,,,,,,,,639.5759,640.8698,640.8698,642.2817,return,0.1522,,1.822916667,,,,,,FBP-PT-19.png,0.35,1.2,56,0.5,,,,,,,,,,,,,0,44,44,55,1,,,,,,,,,,,,,,,,,,,,,,,,,,,,
,,,,,SPR24_068,21,male,2024-04-18_16h38.08.512,jersey_experiment_5_v0,2023.2.2,Win32,84.74576271,,,,,,,,,,,,,,,,642.282,643.5758,643.5758,644.517,return,0.0998,,17.1875,,,,,,FBP-YG-19.png,0.35,1.2,26,0.5,,,,,,,,,,,,,0,45,45,25,1,,,,,,,,,,,,,,,,,,,,,,,,,,,,
,,,,,SPR24_068,21,male,2024-04-18_16h38.08.512,jersey_experiment_5_v0,2023.2.2,Win32,84.74576271,,,,,,,,,,,,,,,,644.5173,645.5642,645.5643,647.3173,return,0.7208,,92.44791667,,,,,,FBP-RB-19.png,0.45,1.2,45,0.25,,,,,,,,,,,,,0,46,46,44,1,,,,,,,,,,,,,,,,,,,,,,,,,,,,
,,,,,SPR24_068,21,male,2024-04-18_16h38.08.512,jersey_experiment_5_v0,2023.2.2,Win32,84.74576271,,,,,,,,,,,,,,,,647.3174,648.6114,648.6114,649.6703,return,0.1223,,90.234375,,,,,,FBP-YG-19.png,0.45,1.2,30,0.5,,,,,,,,,,,,,0,47,47,29,1,,,,,,,,,,,,,,,,,,,,,,,,,,,,
,,,,,SPR24_068,21,male,2024-04-18_16h38.08.512,jersey_experiment_5_v0,2023.2.2,Win32,84.74576271,,,,,,,,,,,,,,,,649.6706,650.9644,650.9644,652.388,return,0.0895,,66.27604167,,,,,,FBP-PT-18.png,0.4,1.2,53,0.5,,,,,,,,,,,,,0,48,48,52,1,,,,,,,,,,,,,,,,,,,,,,,,,,,,
,,,,,SPR24_068,21,male,2024-04-18_16h38.08.512,jersey_experiment_5_v0,2023.2.2,Win32,84.74576271,,,,,,,,,,,,,,,,652.3882,653.435,653.4351,654.941,return,0.1269,,17.05729167,,,,,,FBP-RB-19.png,0.35,1.2,41,0.25,,,,,,,,,,,,,0,49,49,40,1,,,,,,,,,,,,,,,,,,,,,,,,,,,,
,,,,,SPR24_068,21,male,2024-04-18_16h38.08.512,jersey_experiment_5_v0,2023.2.2,Win32,84.74576271,,,,,,,,,,,,,,,,654.9412,656.2351,656.2352,657.2353,return,0.1232,,89.0625,,,,,,FBP-PT-17.png,0.45,1.2,50,0.5,,,,,,,,,,,,,0,50,50,49,1,,,,,,,,,,,,,,,,,,,,,,,,,,,,
,,,,,SPR24_068,21,male,2024-04-18_16h38.08.512,jersey_experiment_5_v0,2023.2.2,Win32,84.74576271,,,,,,,,,,,,,,,,657.2355,658.2823,658.2823,659.5293,return,0.19,,71.35416667,,,,,,FBP-OG-91.png,0.4,1.2,13,0.25,,,,,,,,,,,,,0,51,51,12,1,,,,,,,,,,,,,,,,,,,,,,,,,,,,
,,,,,SPR24_068,21,male,2024-04-18_16h38.08.512,jersey_experiment_5_v0,2023.2.2,Win32,84.74576271,,,,,,,,,,,,,,,,659.5294,660.8236,660.8236,661.8001,return,0.1792,,51.953125,,,,,,FBP-YG-17.png,0.37,1.2,17,0.5,,,,,,,,,,,,,0,52,52,16,1,,,,,,,,,,,,,,,,,,,,,,,,,,,,
,,,,,SPR24_068,21,male,2024-04-18_16h38.08.512,jersey_experiment_5_v0,2023.2.2,Win32,84.74576271,,,,,,,,,,,,,,,,661.8003,663.0944,663.0945,664.106,return,0.1649,,98.4375,,,,,,FBP-YG-18.png,0.45,1.2,25,0.5,,,,,,,,,,,,,0,53,53,24,1,,,,,,,,,,,,,,,,,,,,,,,,,,,,
,,,,,SPR24_068,21,male,2024-04-18_16h38.08.512,jersey_experiment_5_v0,2023.2.2,Win32,84.74576271,,,,,,,,,,,,,,,,664.1063,665.1531,665.1531,666.365,return,0.1653,,74.73958333,,,,,,FBP-OG-71.png,0.4,1.2,3,0.25,,,,,,,,,,,,,0,54,54,2,1,,,,,,,,,,,,,,,,,,,,,,,,,,,,
,,,,,SPR24_068,21,male,2024-04-18_16h38.08.512,jersey_experiment_5_v0,2023.2.2,Win32,84.74576271,,,,,,,,,,,,,,,,666.3652,667.4119,667.4119,668.7651,return,0.1654,,96.22395833,,,,,,FBP-RB-18.png,0.43,1.2,39,0.25,,,,,,,,,,,,,0,55,55,38,1,,,,,,,,,,,,,,,,,,,,,,,,,,,,
,,,,,SPR24_068,21,male,2024-04-18_16h38.08.512,jersey_experiment_5_v0,2023.2.2,Win32,84.74576271,,,,,,,,,,,,,,,,668.7653,669.8121,669.8122,670.9181,return,0.1695,,70.18229167,,,,,,FBP-OG-81.png,0.35,1.2,6,0.25,,,,,,,,,,,,,0,56,56,5,1,,,,,,,,,,,,,,,,,,,,,,,,,,,,
,,,,,SPR24_068,21,male,2024-04-18_16h38.08.512,jersey_experiment_5_v0,2023.2.2,Win32,84.74576271,,,,,,,,,,,,,,,,670.9183,671.9651,671.9652,672.8829,return,0.1474,,99.609375,,,,,,FBP-OG-81.png,0.45,1.2,10,0.25,,,,,,,,,,,,,0,57,57,9,1,,,,,,,,,,,,,,,,,,,,,,,,,,,,
,,,,,SPR24_068,21,male,2024-04-18_16h38.08.512,jersey_experiment_5_v0,2023.2.2,Win32,84.74576271,,,,,,,,,,,,,,,,672.8833,673.9299,673.93,674.8711,return,0.1447,,77.60416667,,,,,,FBP-OG-71.png,0.45,1.2,5,0.25,,,,,,,,,,,,,0,58,58,4,1,,,,,,,,,,,,,,,,,,,,,,,,,,,,
,,,,,SPR24_068,21,male,2024-04-18_16h38.08.512,jersey_experiment_5_v0,2023.2.2,Win32,84.74576271,,,,,,,,,,,,,,,,674.8713,675.9182,675.9183,677.3066,return,0.1317,,79.94791667,,,,,,FBP-RB-19.png,0.43,1.2,44,0.25,,,,,,,,,,,,,0,59,59,43,1,,,,,,,,,,,,,,,,,,,,,,,,,,,,
,,,,,SPR24_068,21,male,2024-04-18_16h38.08.512,jersey_experiment_5_v0,2023.2.2,Win32,84.74576271,,,,,,,,,,,,,,,,677.3082,678.6007,678.6007,679.5655,return,0.1646,,73.69791667,,,,,,FBP-YG-71.png,0.4,1.2,18,0.5,,,,,,,,,,,,,,,,,,0,0,0,17,1,,,,,,,,,,,,,,,,,,,,,,,
,,,,,SPR24_068,21,male,2024-04-18_16h38.08.512,jersey_experiment_5_v0,2023.2.2,Win32,84.74576271,,,,,,,,,,,,,,,,679.5659,680.6125,680.6125,682.0243,return,0.1536,,25.390625,,,,,,FBP-OG-19.png,0.35,1.2,11,0.25,,,,,,,,,,,,,,,,,,0,1,1,10,1,,,,,,,,,,,,,,,,,,,,,,,
,,,,,SPR24_068,21,male,2024-04-18_16h38.08.512,jersey_experiment_5_v0,2023.2.2,Win32,84.74576271,,,,,,,,,,,,,,,,682.0246,683.3184,683.3185,684.2126,return,0.1475,,0.911458333,,,,,,FBP-YG-81.png,0.35,1.2,21,0.5,,,,,,,,,,,,,,,,,,0,2,2,20,1,,,,,,,,,,,,,,,,,,,,,,,
,,,,,SPR24_068,21,male,2024-04-18_16h38.08.512,jersey_experiment_5_v0,2023.2.2,Win32,84.74576271,,,,,,,,,,,,,,,,684.2129,685.2598,685.2599,686.6596,return,0.125,,98.046875,,,,,,FBP-RB-81.png,0.43,1.2,39,0.25,,,,,,,,,,,,,,,,,,0,3,3,38,1,,,,,,,,,,,,,,,,,,,,,,,
,,,,,SPR24_068,21,male,2024-04-18_16h38.08.512,jersey_experiment_5_v0,2023.2.2,Win32,84.74576271,,,,,,,,,,,,,,,,686.6599,687.7069,687.707,690.4836,return,1.0546,,25.52083333,,,,,,FBP-RB-71.png,0.35,1.2,31,0.25,,,,,,,,,,,,,,,,,,0,4,4,30,1,,,,,,,,,,,,,,,,,,,,,,,
,,,,,SPR24_068,21,male,2024-04-18_16h38.08.512,jersey_experiment_5_v0,2023.2.2,Win32,84.74576271,,,,,,,,,,,,,,,,690.4837,691.5306,691.5306,692.754,return,0.065,,88.671875,,,,,,FBP-RB-71.png,0.43,1.2,34,0.25,,,,,,,,,,,,,,,,,,0,5,5,33,1,,,,,,,,,,,,,,,,,,,,,,,
,,,,,SPR24_068,21,male,2024-04-18_16h38.08.512,jersey_experiment_5_v0,2023.2.2,Win32,84.74576271,,,,,,,,,,,,,,,,692.7543,693.8012,693.8012,695.0954,return,0.1329,,24.86979167,,,,,,FBP-RB-91.png,0.35,1.2,41,0.25,,,,,,,,,,,,,,,,,,0,6,6,40,1,,,,,,,,,,,,,,,,,,,,,,,
,,,,,SPR24_068,21,male,2024-04-18_16h38.08.512,jersey_experiment_5_v0,2023.2.2,Win32,84.74576271,,,,,,,,,,,,,,,,695.0957,696.1424,696.1424,696.9308,return,0.1141,,24.86979167,,,,,,FBP-OG-17.png,0.37,1.2,2,0.25,,,,,,,,,,,,,,,,,,0,7,7,1,1,,,,,,,,,,,,,,,,,,,,,,,
,,,,,SPR24_068,21,male,2024-04-18_16h38.08.512,jersey_experiment_5_v0,2023.2.2,Win32,84.74576271,,,,,,,,,,,,,,,,696.931,697.9778,697.9779,699.2839,return,0.1226,,98.046875,,,,,,FBP-RB-71.png,0.45,1.2,35,0.25,,,,,,,,,,,,,,,,,,0,8,8,34,1,,,,,,,,,,,,,,,,,,,,,,,
,,,,,SPR24_068,21,male,2024-04-18_16h38.08.512,jersey_experiment_5_v0,2023.2.2,Win32,84.74576271,,,,,,,,,,,,,,,,699.2841,700.3308,700.3308,701.1309,return,0.1508,,97.52604167,,,,,,FBP-OG-18.png,0.43,1.2,9,0.25,,,,,,,,,,,,,,,,,,0,9,9,8,1,,,,,,,,,,,,,,,,,,,,,,,
,,,,,SPR24_068,21,male,2024-04-18_16h38.08.512,jersey_experiment_5_v0,2023.2.2,Win32,84.74576271,,,,,,,,,,,,,,,,701.1311,702.178,702.178,703.4486,return,0.1319,,75.13020833,,,,,,FBP-OG-17.png,0.43,1.2,4,0.25,,,,,,,,,,,,,,,,,,0,10,10,3,1,,,,,,,,,,,,,,,,,,,,,,,
,,,,,SPR24_068,21,male,2024-04-18_16h38.08.512,jersey_experiment_5_v0,2023.2.2,Win32,84.74576271,,,,,,,,,,,,,,,,703.4489,704.7428,704.7429,705.6369,return,0.112,,92.70833333,,,,,,FBP-PT-81.png,0.45,1.2,55,0.5,,,,,,,,,,,,,,,,,,0,11,11,54,1,,,,,,,,,,,,,,,,,,,,,,,
,,,,,SPR24_068,21,male,2024-04-18_16h38.08.512,jersey_experiment_5_v0,2023.2.2,Win32,84.74576271,,,,,,,,,,,,,,,,705.6372,706.9311,706.9312,708.2018,return,0.1068,,91.53645833,,,,,,FBP-PT-91.png,0.43,1.2,59,0.5,,,,,,,,,,,,,,,,,,0,12,12,58,1,,,,,,,,,,,,,,,,,,,,,,,
,,,,,SPR24_068,21,male,2024-04-18_16h38.08.512,jersey_experiment_5_v0,2023.2.2,Win32,84.74576271,,,,,,,,,,,,,,,,708.202,709.2488,709.2488,710.5194,return,0.1311,,79.94791667,,,,,,FBP-OG-18.png,0.4,1.2,8,0.25,,,,,,,,,,,,,,,,,,0,13,13,7,1,,,,,,,,,,,,,,,,,,,,,,,
,,,,,SPR24_068,21,male,2024-04-18_16h38.08.512,jersey_experiment_5_v0,2023.2.2,Win32,84.74576271,,,,,,,,,,,,,,,,710.5196,711.8135,711.8135,712.8017,return,0.1355,,49.86979167,,,,,,FBP-YG-91.png,0.37,1.2,27,0.5,,,,,,,,,,,,,,,,,,0,14,14,26,1,,,,,,,,,,,,,,,,,,,,,,,
,,,,,SPR24_068,21,male,2024-04-18_16h38.08.512,jersey_experiment_5_v0,2023.2.2,Win32,84.74576271,,,,,,,,,,,,,,,,712.802,714.0962,714.0962,714.9079,return,0.1551,,80.46875,,,,,,FBP-YG-71.png,0.45,1.2,20,0.5,,,,,,,,,,,,,,,,,,0,15,15,19,1,,,,,,,,,,,,,,,,,,,,,,,
,,,,,SPR24_068,21,male,2024-04-18_16h38.08.512,jersey_experiment_5_v0,2023.2.2,Win32,84.74576271,,,,,,,,,,,,,,,,714.9081,716.202,716.202,717.2375,return,0.1455,,23.56770833,,,,,,FBP-PT-71.png,0.35,1.2,46,0.5,,,,,,,,,,,,,,,,,,0,16,16,45,1,,,,,,,,,,,,,,,,,,,,,,,
,,,,,SPR24_068,21,male,2024-04-18_16h38.08.512,jersey_experiment_5_v0,2023.2.2,Win32,84.74576271,,,,,,,,,,,,,,,,717.2377,718.2844,718.2844,719.4373,return,0.1176,,78.77604167,,,,,,FBP-RB-91.png,0.4,1.2,43,0.25,,,,,,,,,,,,,,,,,,0,17,17,42,1,,,,,,,,,,,,,,,,,,,,,,,
,,,,,SPR24_068,21,male,2024-04-18_16h38.08.512,jersey_experiment_5_v0,2023.2.2,Win32,84.74576271,,,,,,,,,,,,,,,,719.4375,720.4845,720.4846,721.6258,return,0.1281,,25.65104167,,,,,,FBP-OG-18.png,0.35,1.2,6,0.25,,,,,,,,,,,,,,,,,,0,18,18,5,1,,,,,,,,,,,,,,,,,,,,,,,
,,,,,SPR24_068,21,male,2024-04-18_16h38.08.512,jersey_experiment_5_v0,2023.2.2,Win32,84.74576271,,,,,,,,,,,,,,,,721.626,722.9198,722.9198,723.9788,return,0.1031,,61.19791667,,,,,,FBP-YG-81.png,0.4,1.2,23,0.5,,,,,,,,,,,,,,,,,,0,19,19,22,1,,,,,,,,,,,,,,,,,,,,,,,
,,,,,SPR24_068,21,male,2024-04-18_16h38.08.512,jersey_experiment_5_v0,2023.2.2,Win32,84.74576271,,,,,,,,,,,,,,,,723.979,725.0259,725.0259,726.4612,return,0.895,,56.77083333,,,,,,FBP-RB-91.png,0.37,1.2,42,0.25,,,,,,,,,,,,,,,,,,0,20,20,41,1,,,,,,,,,,,,,,,,,,,,,,,
,,,,,SPR24_068,21,male,2024-04-18_16h38.08.512,jersey_experiment_5_v0,2023.2.2,Win32,84.74576271,,,,,,,,,,,,,,,,726.4615,727.5083,727.5083,728.5084,return,0.1654,,91.796875,,,,,,FBP-OG-19.png,0.45,1.2,15,0.25,,,,,,,,,,,,,,,,,,0,21,21,14,1,,,,,,,,,,,,,,,,,,,,,,,
,,,,,SPR24_068,21,male,2024-04-18_16h38.08.512,jersey_experiment_5_v0,2023.2.2,Win32,84.74576271,,,,,,,,,,,,,,,,728.5086,729.5554,729.5555,730.7789,return,0.1887,,43.09895833,,,,,,FBP-OG-17.png,0.35,1.2,1,0.25,,,,,,,,,,,,,,,,,,0,22,22,0,1,,,,,,,,,,,,,,,,,,,,,,,
,,,,,SPR24_068,21,male,2024-04-18_16h38.08.512,jersey_experiment_5_v0,2023.2.2,Win32,84.74576271,,,,,,,,,,,,,,,,730.7792,732.0732,732.0733,732.7321,return,0.1179,,80.078125,,,,,,FBP-PT-71.png,0.43,1.2,49,0.5,,,,,,,,,,,,,,,,,,0,23,23,48,1,,,,,,,,,,,,,,,,,,,,,,,
,,,,,SPR24_068,21,male,2024-04-18_16h38.08.512,jersey_experiment_5_v0,2023.2.2,Win32,84.74576271,,,,,,,,,,,,,,,,732.7322,733.7791,733.7792,734.791,return,0.1806,,57.421875,,,,,,FBP-OG-18.png,0.37,1.2,7,0.25,,,,,,,,,,,,,,,,,,0,24,24,6,1,,,,,,,,,,,,,,,,,,,,,,,
,,,,,SPR24_068,21,male,2024-04-18_16h38.08.512,jersey_experiment_5_v0,2023.2.2,Win32,84.74576271,,,,,,,,,,,,,,,,734.7912,736.0854,736.0854,736.9087,return,0.155,,50.52083333,,,,,,FBP-YG-71.png,0.37,1.2,17,0.5,,,,,,,,,,,,,,,,,,0,25,25,16,1,,,,,,,,,,,,,,,,,,,,,,,
,,,,,SPR24_068,21,male,2024-04-18_16h38.08.512,jersey_experiment_5_v0,2023.2.2,Win32,84.74576271,,,,,,,,,,,,,,,,736.9089,738.2029,738.2029,738.8381,return,0.1578,,49.86979167,,,,,,FBP-PT-71.png,0.37,1.2,47,0.5,,,,,,,,,,,,,,,,,,0,26,26,46,1,,,,,,,,,,,,,,,,,,,,,,,
,,,,,SPR24_068,21,male,2024-04-18_16h38.08.512,jersey_experiment_5_v0,2023.2.2,Win32,84.74576271,,,,,,,,,,,,,,,,738.8384,740.1323,740.1323,741.1441,return,0.1655,,60.41666667,,,,,,FBP-PT-81.png,0.4,1.2,53,0.5,,,,,,,,,,,,,,,,,,0,27,27,52,1,,,,,,,,,,,,,,,,,,,,,,,
,,,,,SPR24_068,21,male,2024-04-18_16h38.08.512,jersey_experiment_5_v0,2023.2.2,Win32,84.74576271,,,,,,,,,,,,,,,,741.1443,742.4382,742.4383,743.1088,return,0.1472,,50.78125,,,,,,FBP-PT-81.png,0.37,1.2,52,0.5,,,,,,,,,,,,,,,,,,0,28,28,51,1,,,,,,,,,,,,,,,,,,,,,,,
,,,,,SPR24_068,21,male,2024-04-18_16h38.08.512,jersey_experiment_5_v0,2023.2.2,Win32,84.74576271,,,,,,,,,,,,,,,,743.109,744.403,744.4031,745.003,return,0.1317,,50.65104167,,,,,,FBP-PT-91.png,0.37,1.2,57,0.5,,,,,,,,,,,,,,,,,,0,29,29,56,1,,,,,,,,,,,,,,,,,,,,,,,
,,,,,SPR24_068,21,male,2024-04-18_16h38.08.512,jersey_experiment_5_v0,2023.2.2,Win32,84.74576271,,,,,,,,,,,,,,,,745.0033,746.0501,746.0502,747.2738,return,0.1277,,99.86979167,,,,,,FBP-OG-17.png,0.45,1.2,5,0.25,,,,,,,,,,,,,,,,,,0,30,30,4,1,,,,,,,,,,,,,,,,,,,,,,,
,,,,,SPR24_068,21,male,2024-04-18_16h38.08.512,jersey_experiment_5_v0,2023.2.2,Win32,84.74576271,,,,,,,,,,,,,,,,747.274,748.3207,748.3207,749.2738,return,0.1188,,92.31770833,,,,,,FBP-RB-81.png,0.45,1.2,40,0.25,,,,,,,,,,,,,,,,,,0,31,31,39,1,,,,,,,,,,,,,,,,,,,,,,,
,,,,,SPR24_068,21,male,2024-04-18_16h38.08.512,jersey_experiment_5_v0,2023.2.2,Win32,84.74576271,,,,,,,,,,,,,,,,749.274,750.5679,750.5679,751.5917,return,0.1092,,92.70833333,,,,,,FBP-YG-81.png,0.45,1.2,25,0.5,,,,,,,,,,,,,,,,,,0,32,32,24,1,,,,,,,,,,,,,,,,,,,,,,,
,,,,,SPR24_068,21,male,2024-04-18_16h38.08.512,jersey_experiment_5_v0,2023.2.2,Win32,84.74576271,,,,,,,,,,,,,,,,751.5919,752.8857,752.8857,753.9446,return,0.1653,,82.03125,,,,,,FBP-YG-91.png,0.43,1.2,29,0.5,,,,,,,,,,,,,,,,,,0,33,33,28,1,,,,,,,,,,,,,,,,,,,,,,,
,,,,,SPR24_068,21,male,2024-04-18_16h38.08.512,jersey_experiment_5_v0,2023.2.2,Win32,84.74576271,,,,,,,,,,,,,,,,753.9449,755.239,755.239,756.8504,return,0.1118,,35.67708333,,,,,,FBP-YG-91.png,0.35,1.2,26,0.5,,,,,,,,,,,,,,,,,,0,34,34,25,1,,,,,,,,,,,,,,,,,,,,,,,
,,,,,SPR24_068,21,male,2024-04-18_16h38.08.512,jersey_experiment_5_v0,2023.2.2,Win32,84.74576271,,,,,,,,,,,,,,,,756.8507,757.8977,757.8977,759.0508,return,0.1085,,84.89583333,,,,,,FBP-OG-18.png,0.45,1.2,10,0.25,,,,,,,,,,,,,,,,,,0,35,35,9,1,,,,,,,,,,,,,,,,,,,,,,,
,,,,,SPR24_068,21,male,2024-04-18_16h38.08.512,jersey_experiment_5_v0,2023.2.2,Win32,84.74576271,,,,,,,,,,,,,,,,759.0509,760.345,760.345,761.3684,return,0.1296,,53.125,,,,,,FBP-YG-81.png,0.37,1.2,22,0.5,,,,,,,,,,,,,,,,,,0,36,36,21,1,,,,,,,,,,,,,,,,,,,,,,,
,,,,,SPR24_068,21,male,2024-04-18_16h38.08.512,jersey_experiment_5_v0,2023.2.2,Win32,84.74576271,,,,,,,,,,,,,,,,761.3686,762.4155,762.4155,763.3567,return,0.0855,,51.04166667,,,,,,FBP-OG-17.png,0.4,1.2,3,0.25,,,,,,,,,,,,,,,,,,0,37,37,2,1,,,,,,,,,,,,,,,,,,,,,,,
,,,,,SPR24_068,21,male,2024-04-18_16h38.08.512,jersey_experiment_5_v0,2023.2.2,Win32,84.74576271,,,,,,,,,,,,,,,,763.3569,764.4037,764.4037,765.4508,return,0.1405,,60.28645833,,,,,,FBP-RB-71.png,0.4,1.2,33,0.25,,,,,,,,,,,,,,,,,,0,38,38,32,1,,,,,,,,,,,,,,,,,,,,,,,
,,,,,SPR24_068,21,male,2024-04-18_16h38.08.512,jersey_experiment_5_v0,2023.2.2,Win32,84.74576271,,,,,,,,,,,,,,,,765.451,766.7451,766.7451,767.4509,return,0.1082,,83.203125,,,,,,FBP-PT-71.png,0.45,1.2,50,0.5,,,,,,,,,,,,,,,,,,0,39,39,49,1,,,,,,,,,,,,,,,,,,,,,,,
,,,,,SPR24_068,21,male,2024-04-18_16h38.08.512,jersey_experiment_5_v0,2023.2.2,Win32,84.74576271,,,,,,,,,,,,,,,,767.4512,768.498,768.498,769.5569,return,0.1235,,48.69791667,,,,,,FBP-RB-81.png,0.35,1.2,36,0.25,,,,,,,,,,,,,,,,,,0,40,40,35,1,,,,,,,,,,,,,,,,,,,,,,,
,,,,,SPR24_068,21,male,2024-04-18_16h38.08.512,jersey_experiment_5_v0,2023.2.2,Win32,84.74576271,,,,,,,,,,,,,,,,769.5571,770.851,770.851,771.9923,return,0.6029,,62.5,,,,,,FBP-PT-91.png,0.4,1.2,58,0.5,,,,,,,,,,,,,,,,,,0,41,41,57,1,,,,,,,,,,,,,,,,,,,,,,,
,,,,,SPR24_068,21,male,2024-04-18_16h38.08.512,jersey_experiment_5_v0,2023.2.2,Win32,84.74576271,,,,,,,,,,,,,,,,771.9925,773.0393,773.0393,774.0275,return,0.1883,,88.93229167,,,,,,FBP-RB-91.png,0.45,1.2,45,0.25,,,,,,,,,,,,,,,,,,0,42,42,44,1,,,,,,,,,,,,,,,,,,,,,,,
,,,,,SPR24_068,21,male,2024-04-18_16h38.08.512,jersey_experiment_5_v0,2023.2.2,Win32,84.74576271,,,,,,,,,,,,,,,,774.0277,775.3217,775.3217,776.4746,return,0.2925,,53.38541667,,,,,,FBP-YG-71.png,0.35,1.2,16,0.5,,,,,,,,,,,,,,,,,,0,43,43,15,1,,,,,,,,,,,,,,,,,,,,,,,
,,,,,SPR24_068,21,male,2024-04-18_16h38.08.512,jersey_experiment_5_v0,2023.2.2,Win32,84.74576271,,,,,,,,,,,,,,,,776.4749,777.7688,777.7688,778.7572,return,0.1468,,71.22395833,,,,,,FBP-PT-81.png,0.43,1.2,54,0.5,,,,,,,,,,,,,,,,,,0,44,44,53,1,,,,,,,,,,,,,,,,,,,,,,,
,,,,,SPR24_068,21,male,2024-04-18_16h38.08.512,jersey_experiment_5_v0,2023.2.2,Win32,84.74576271,,,,,,,,,,,,,,,,778.7574,780.0512,780.0513,781.0279,return,0.1461,,40.88541667,,,,,,FBP-PT-81.png,0.35,1.2,51,0.5,,,,,,,,,,,,,,,,,,0,45,45,50,1,,,,,,,,,,,,,,,,,,,,,,,
,,,,,SPR24_068,21,male,2024-04-18_16h38.08.512,jersey_experiment_5_v0,2023.2.2,Win32,84.74576271,,,,,,,,,,,,,,,,781.0281,782.0749,782.0749,783.628,return,0.1885,,38.15104167,,,,,,FBP-RB-81.png,0.37,1.2,37,0.25,,,,,,,,,,,,,,,,,,0,46,46,36,1,,,,,,,,,,,,,,,,,,,,,,,
,,,,,SPR24_068,21,male,2024-04-18_16h38.08.512,jersey_experiment_5_v0,2023.2.2,Win32,84.74576271,,,,,,,,,,,,,,,,783.6282,784.6752,784.6752,785.8045,return,0.1418,,73.69791667,,,,,,FBP-RB-91.png,0.43,1.2,44,0.25,,,,,,,,,,,,,,,,,,0,47,47,43,1,,,,,,,,,,,,,,,,,,,,,,,
,,,,,SPR24_068,21,male,2024-04-18_16h38.08.512,jersey_experiment_5_v0,2023.2.2,Win32,84.74576271,,,,,,,,,,,,,,,,785.8048,787.0987,787.0988,787.8046,return,0.1875,,61.328125,,,,,,FBP-PT-71.png,0.4,1.2,48,0.5,,,,,,,,,,,,,,,,,,0,48,48,47,1,,,,,,,,,,,,,,,,,,,,,,,
,,,,,SPR24_068,21,male,2024-04-18_16h38.08.512,jersey_experiment_5_v0,2023.2.2,Win32,84.74576271,,,,,,,,,,,,,,,,787.8048,789.0987,789.0988,790.0988,return,0.1588,,50.13020833,,,,,,FBP-PT-91.png,0.35,1.2,56,0.5,,,,,,,,,,,,,,,,,,0,49,49,55,1,,,,,,,,,,,,,,,,,,,,,,,
,,,,,SPR24_068,21,male,2024-04-18_16h38.08.512,jersey_experiment_5_v0,2023.2.2,Win32,84.74576271,,,,,,,,,,,,,,,,790.099,791.146,791.1461,792.4518,return,0.101,,59.375,,,,,,FBP-OG-19.png,0.4,1.2,13,0.25,,,,,,,,,,,,,,,,,,0,50,50,12,1,,,,,,,,,,,,,,,,,,,,,,,
,,,,,SPR24_068,21,male,2024-04-18_16h38.08.512,jersey_experiment_5_v0,2023.2.2,Win32,84.74576271,,,,,,,,,,,,,,,,792.452,793.7458,793.7459,794.3931,return,0.1175,,71.61458333,,,,,,FBP-YG-91.png,0.4,1.2,28,0.5,,,,,,,,,,,,,,,,,,0,51,51,27,1,,,,,,,,,,,,,,,,,,,,,,,
,,,,,SPR24_068,21,male,2024-04-18_16h38.08.512,jersey_experiment_5_v0,2023.2.2,Win32,84.74576271,,,,,,,,,,,,,,,,794.3933,795.4402,795.4402,796.252,return,0.1418,,59.89583333,,,,,,FBP-OG-19.png,0.37,1.2,12,0.25,,,,,,,,,,,,,,,,,,0,52,52,11,1,,,,,,,,,,,,,,,,,,,,,,,
,,,,,SPR24_068,21,male,2024-04-18_16h38.08.512,jersey_experiment_5_v0,2023.2.2,Win32,84.74576271,,,,,,,,,,,,,,,,796.2522,797.299,797.299,798.3461,return,0.1656,,63.93229167,,,,,,FBP-RB-81.png,0.4,1.2,38,0.25,,,,,,,,,,,,,,,,,,0,53,53,37,1,,,,,,,,,,,,,,,,,,,,,,,
,,,,,SPR24_068,21,male,2024-04-18_16h38.08.512,jersey_experiment_5_v0,2023.2.2,Win32,84.74576271,,,,,,,,,,,,,,,,798.3464,799.3931,799.3931,800.6991,return,0.1413,,65.49479167,,,,,,FBP-RB-71.png,0.37,1.2,32,0.25,,,,,,,,,,,,,,,,,,0,54,54,31,1,,,,,,,,,,,,,,,,,,,,,,,
,,,,,SPR24_068,21,male,2024-04-18_16h38.08.512,jersey_experiment_5_v0,2023.2.2,Win32,84.74576271,,,,,,,,,,,,,,,,800.6993,801.9933,801.9933,802.7579,return,0.1784,,82.8125,,,,,,FBP-YG-91.png,0.45,1.2,30,0.5,,,,,,,,,,,,,,,,,,0,55,55,29,1,,,,,,,,,,,,,,,,,,,,,,,
,,,,,SPR24_068,21,male,2024-04-18_16h38.08.512,jersey_experiment_5_v0,2023.2.2,Win32,84.74576271,,,,,,,,,,,,,,,,802.7582,804.0521,804.0521,804.7582,return,0.1222,,91.40625,,,,,,FBP-PT-91.png,0.45,1.2,60,0.5,,,,,,,,,,,,,,,,,,0,56,56,59,1,,,,,,,,,,,,,,,,,,,,,,,
,,,,,SPR24_068,21,male,2024-04-18_16h38.08.512,jersey_experiment_5_v0,2023.2.2,Win32,84.74576271,,,,,,,,,,,,,,,,804.7584,806.0523,806.0523,806.8524,return,0.1237,,92.578125,,,,,,FBP-YG-81.png,0.43,1.2,24,0.5,,,,,,,,,,,,,,,,,,0,57,57,23,1,,,,,,,,,,,,,,,,,,,,,,,
,,,,,SPR24_068,21,male,2024-04-18_16h38.08.512,jersey_experiment_5_v0,2023.2.2,Win32,84.74576271,,,,,,,,,,,,,,,,806.8526,808.1466,808.1467,808.9229,return,0.0805,,87.63020833,,,,,,FBP-YG-71.png,0.43,1.2,19,0.5,,,,,,,,,,,,,,,,,,0,58,58,18,1,,,,,,,,,,,,,,,,,,,,,,,
,,,,,SPR24_068,21,male,2024-04-18_16h38.08.512,jersey_experiment_5_v0,2023.2.2,Win32,84.74576271,,,,,,,,,,,,,,,,808.9231,809.97,809.97,810.9231,return,0.1179,,85.41666667,,,,,,FBP-OG-19.png,0.43,1.2,14,0.25,,,,,,,,,,,,,,,,,,0,59,59,13,1,,,,,,,,,,,,,,,,,,,,,,,
,,,,,SPR24_068,21,male,2024-04-18_16h38.08.512,jersey_experiment_5_v0,2023.2.2,Win32,84.74576271,,,,,,,,,,,,,,,,,,,,,,,,,,,,,,,,,,,,,,,,,,,,,,,,,,,,,,,,810.9235,816.3588,return,5.4255,,,,,,,,,,,,,,,,,,,
,,,,,SPR24_068,21,male,2024-04-18_16h38.08.512,jersey_experiment_5_v0,2023.2.2,Win32,84.74576271,,,,,,,,,,,,,,,,,,,,,,,,,,,,,,,,,,,,,,,,,,,,,,,,,,,,,,,,,,,,,816.3588,821.5707,1,3.8064,return,1.3934,,,,,,,,,,,,
,,,,,SPR24_068,21,male,2024-04-18_16h38.08.512,jersey_experiment_5_v0,2023.2.2,Win32,84.74576271,,,,,,,,,,,,,,,,,,,,,,,,,,,,,,,,,,,,,,,,,,,,,,,,,,,,,,,,,,,,,,,,,,,,821.5709,861.0003,"something to do with time of image exposure, or player color (skin or clothes)",right,33.57,,,,,,
,,,,,SPR24_068,21,male,2024-04-18_16h38.08.512,jersey_experiment_5_v0,2023.2.2,Win32,84.74576271,,,,,,,,,,,,,,,,,,,,,,,,,,,,,,,,,,,,,,,,,,,,,,,,,,,,,,,,,,,,,,,,,,,,,,,,,,861.0004,864.0898,return,3.0789,