requirements.started,requirements.stopped,key_resp_3.keys,key_resp_3.rt,key_resp_3.duration,Subject ID,Age,Gender,date,expName,psychopyVersion,OS,frameRate,instructions1.started,instructions1.stopped,key_resp.keys,key_resp.rt,key_resp.duration,example.started,example.stopped,enter_2.keys,enter_2.rt,enter_2.duration,instructions2.started,instructions2.stopped,enter_3.keys,enter_3.rt,enter_3.duration,image.started,image.stopped,slider_2.started,slider_2.stopped,next.keys,next.rt,next.duration,slider.response,trial_block_1.thisRepN,trial_block_1.thisTrialN,trial_block_1.thisN,trial_block_1.thisIndex,trial_block_1.ran,Path,Width,Height,Index,Duration,trial_block_2.thisRepN,trial_block_2.thisTrialN,trial_block_2.thisN,trial_block_2.thisIndex,trial_block_2.ran,rest_break.started,rest_break.stopped,end_break.started,end_break.stopped,key_resp_5.keys,key_resp_5.rt,key_resp_5.duration,trial_block_3.thisRepN,trial_block_3.thisTrialN,trial_block_3.thisN,trial_block_3.thisIndex,trial_block_3.ran,trial_block_4.thisRepN,trial_block_4.thisTrialN,trial_block_4.thisN,trial_block_4.thisIndex,trial_block_4.ran,questions_intro.started,questions_intro.stopped,enter_12.keys,enter_12.rt,enter_12.duration,question2.started,question2.stopped,question_doingbest.response,question_doingbest.rt,enter_15.keys,enter_15.rt,enter_15.duration,pattern.started,pattern.stopped,pattern_2.text,enter_17.keys,enter_17.rt,enter_17.duration,thankyou.started,thankyou.stopped,enter_14.keys,enter_14.rt,enter_14.duration
0.0002,6.1747,return,6.166,,SPR24_062,20,F,2024-04-17_16h31.28.031,jersey_experiment_5_v0,2023.2.2,Win32,85.47008547,,,,,,,,,,,,,,,,,,,,,,,,,,,,,,,,,,,,,,,,,,,,,,,,,,,,,,,,,,,,,,,,,,,,,,,,,,,,,,
,,,,,SPR24_062,20,F,2024-04-17_16h31.28.031,jersey_experiment_5_v0,2023.2.2,Win32,85.47008547,6.1748,23.8811,return,17.6995,,,,,,,,,,,,,,,,,,,,,,,,,,,,,,,,,,,,,,,,,,,,,,,,,,,,,,,,,,,,,,,,,,,,,,,,,,
,,,,,SPR24_062,20,F,2024-04-17_16h31.28.031,jersey_experiment_5_v0,2023.2.2,Win32,85.47008547,,,,,,23.8812,26.4928,return,2.5791,,,,,,,,,,,,,,,,,,,,,,,,,,,,,,,,,,,,,,,,,,,,,,,,,,,,,,,,,,,,,,,,,,,,,
,,,,,SPR24_062,20,F,2024-04-17_16h31.28.031,jersey_experiment_5_v0,2023.2.2,Win32,85.47008547,,,,,,,,,,,26.4929,36.2227,return,9.7178,,,,,,,,,,,,,,,,,,,,,,,,,,,,,,,,,,,,,,,,,,,,,,,,,,,,,,,,,,,,,,,,
,,,,,SPR24_062,20,F,2024-04-17_16h31.28.031,jersey_experiment_5_v0,2023.2.2,Win32,85.47008547,,,,,,,,,,,,,,,,36.2302,37.5284,37.5285,43.8229,return,1.9535,,24.47916667,0,0,0,31,1,FBP-RB-17.png,0.37,1.2,32,0.5,,,,,,,,,,,,,,,,,,,,,,,,,,,,,,,,,,,,,,,,,,,,,
,,,,,SPR24_062,20,F,2024-04-17_16h31.28.031,jersey_experiment_5_v0,2023.2.2,Win32,85.47008547,,,,,,,,,,,,,,,,43.8232,44.8699,44.87,48.5524,return,1.1001,,25,0,1,1,20,1,FBP-YG-18.png,0.35,1.2,21,0.25,,,,,,,,,,,,,,,,,,,,,,,,,,,,,,,,,,,,,,,,,,,,,
,,,,,SPR24_062,20,F,2024-04-17_16h31.28.031,jersey_experiment_5_v0,2023.2.2,Win32,85.47008547,,,,,,,,,,,,,,,,48.5526,49.8464,49.8466,52.9523,return,0.9954,,75.13020833,0,2,2,1,1,FBP-OG-71.png,0.37,1.2,2,0.5,,,,,,,,,,,,,,,,,,,,,,,,,,,,,,,,,,,,,,,,,,,,,
,,,,,SPR24_062,20,F,2024-04-17_16h31.28.031,jersey_experiment_5_v0,2023.2.2,Win32,85.47008547,,,,,,,,,,,,,,,,52.9526,54.2467,54.2468,57.035,return,0.7323,,74.47916667,0,3,3,11,1,FBP-OG-91.png,0.37,1.2,12,0.5,,,,,,,,,,,,,,,,,,,,,,,,,,,,,,,,,,,,,,,,,,,,,
,,,,,SPR24_062,20,F,2024-04-17_16h31.28.031,jersey_experiment_5_v0,2023.2.2,Win32,85.47008547,,,,,,,,,,,,,,,,57.0352,58.082,58.082,60.3646,return,0.944,,74.47916667,0,4,4,25,1,FBP-YG-19.png,0.35,1.2,26,0.25,,,,,,,,,,,,,,,,,,,,,,,,,,,,,,,,,,,,,,,,,,,,,
,,,,,SPR24_062,20,F,2024-04-17_16h31.28.031,jersey_experiment_5_v0,2023.2.2,Win32,85.47008547,,,,,,,,,,,,,,,,60.3649,61.6586,61.6586,64.2469,return,0.8084,,99.08854167,0,5,5,37,1,FBP-RB-18.png,0.4,1.2,38,0.5,,,,,,,,,,,,,,,,,,,,,,,,,,,,,,,,,,,,,,,,,,,,,
,,,,,SPR24_062,20,F,2024-04-17_16h31.28.031,jersey_experiment_5_v0,2023.2.2,Win32,85.47008547,,,,,,,,,,,,,,,,64.2472,65.294,65.2941,68.1411,return,0.7669,,74.47916667,0,6,6,26,1,FBP-YG-19.png,0.37,1.2,27,0.25,,,,,,,,,,,,,,,,,,,,,,,,,,,,,,,,,,,,,,,,,,,,,
,,,,,SPR24_062,20,F,2024-04-17_16h31.28.031,jersey_experiment_5_v0,2023.2.2,Win32,85.47008547,,,,,,,,,,,,,,,,68.1412,69.4355,69.4355,71.4355,return,0.6512,,74.47916667,0,7,7,35,1,FBP-RB-18.png,0.35,1.2,36,0.5,,,,,,,,,,,,,,,,,,,,,,,,,,,,,,,,,,,,,,,,,,,,,
,,,,,SPR24_062,20,F,2024-04-17_16h31.28.031,jersey_experiment_5_v0,2023.2.2,Win32,85.47008547,,,,,,,,,,,,,,,,71.4357,72.4825,72.4825,76.0593,return,0.7336,,99.609375,0,8,8,53,1,FBP-PT-18.png,0.43,1.2,54,0.25,,,,,,,,,,,,,,,,,,,,,,,,,,,,,,,,,,,,,,,,,,,,,
,,,,,SPR24_062,20,F,2024-04-17_16h31.28.031,jersey_experiment_5_v0,2023.2.2,Win32,85.47008547,,,,,,,,,,,,,,,,76.0595,77.1063,77.1063,80.0593,return,0.6973,,74.73958333,0,9,9,18,1,FBP-YG-17.png,0.43,1.2,19,0.25,,,,,,,,,,,,,,,,,,,,,,,,,,,,,,,,,,,,,,,,,,,,,
,,,,,SPR24_062,20,F,2024-04-17_16h31.28.031,jersey_experiment_5_v0,2023.2.2,Win32,85.47008547,,,,,,,,,,,,,,,,80.0596,81.3533,81.3534,84.3655,return,0.8592,,99.73958333,0,10,10,34,1,FBP-RB-17.png,0.45,1.2,35,0.5,,,,,,,,,,,,,,,,,,,,,,,,,,,,,,,,,,,,,,,,,,,,,
,,,,,SPR24_062,20,F,2024-04-17_16h31.28.031,jersey_experiment_5_v0,2023.2.2,Win32,85.47008547,,,,,,,,,,,,,,,,84.3657,85.4123,85.4124,88.2479,return,0.6429,,73.95833333,0,11,11,57,1,FBP-PT-19.png,0.4,1.2,58,0.25,,,,,,,,,,,,,,,,,,,,,,,,,,,,,,,,,,,,,,,,,,,,,
,,,,,SPR24_062,20,F,2024-04-17_16h31.28.031,jersey_experiment_5_v0,2023.2.2,Win32,85.47008547,,,,,,,,,,,,,,,,88.2482,89.5419,89.5419,92.0715,return,0.6892,,99.73958333,0,12,12,14,1,FBP-OG-91.png,0.45,1.2,15,0.5,,,,,,,,,,,,,,,,,,,,,,,,,,,,,,,,,,,,,,,,,,,,,
,,,,,SPR24_062,20,F,2024-04-17_16h31.28.031,jersey_experiment_5_v0,2023.2.2,Win32,85.47008547,,,,,,,,,,,,,,,,92.0717,93.3657,93.3658,95.6246,return,0.5833,,75.52083333,0,13,13,32,1,FBP-RB-17.png,0.4,1.2,33,0.5,,,,,,,,,,,,,,,,,,,,,,,,,,,,,,,,,,,,,,,,,,,,,
,,,,,SPR24_062,20,F,2024-04-17_16h31.28.031,jersey_experiment_5_v0,2023.2.2,Win32,85.47008547,,,,,,,,,,,,,,,,95.6248,96.6716,96.6716,99.3777,return,0.7637,,99.609375,0,14,14,29,1,FBP-YG-19.png,0.45,1.2,30,0.25,,,,,,,,,,,,,,,,,,,,,,,,,,,,,,,,,,,,,,,,,,,,,
,,,,,SPR24_062,20,F,2024-04-17_16h31.28.031,jersey_experiment_5_v0,2023.2.2,Win32,85.47008547,,,,,,,,,,,,,,,,99.378,100.4248,100.4249,102.3779,return,0.5921,,99.609375,0,15,15,24,1,FBP-YG-18.png,0.45,1.2,25,0.25,,,,,,,,,,,,,,,,,,,,,,,,,,,,,,,,,,,,,,,,,,,,,
,,,,,SPR24_062,20,F,2024-04-17_16h31.28.031,jersey_experiment_5_v0,2023.2.2,Win32,85.47008547,,,,,,,,,,,,,,,,102.3781,103.672,103.672,105.5662,return,0.5756,,99.609375,0,16,16,3,1,FBP-OG-71.png,0.43,1.2,4,0.5,,,,,,,,,,,,,,,,,,,,,,,,,,,,,,,,,,,,,,,,,,,,,
,,,,,SPR24_062,20,F,2024-04-17_16h31.28.031,jersey_experiment_5_v0,2023.2.2,Win32,85.47008547,,,,,,,,,,,,,,,,105.5664,106.6133,106.6134,109.0839,return,0.6847,,25.52083333,0,17,17,50,1,FBP-PT-18.png,0.35,1.2,51,0.25,,,,,,,,,,,,,,,,,,,,,,,,,,,,,,,,,,,,,,,,,,,,,
,,,,,SPR24_062,20,F,2024-04-17_16h31.28.031,jersey_experiment_5_v0,2023.2.2,Win32,85.47008547,,,,,,,,,,,,,,,,109.0843,110.1309,110.131,112.0603,return,0.615,,25.52083333,0,18,18,55,1,FBP-PT-19.png,0.35,1.2,56,0.25,,,,,,,,,,,,,,,,,,,,,,,,,,,,,,,,,,,,,,,,,,,,,
,,,,,SPR24_062,20,F,2024-04-17_16h31.28.031,jersey_experiment_5_v0,2023.2.2,Win32,85.47008547,,,,,,,,,,,,,,,,112.0605,113.3547,113.3547,116.9547,return,1.7459,,73.69791667,0,19,19,33,1,FBP-RB-17.png,0.43,1.2,34,0.5,,,,,,,,,,,,,,,,,,,,,,,,,,,,,,,,,,,,,,,,,,,,,
,,,,,SPR24_062,20,F,2024-04-17_16h31.28.031,jersey_experiment_5_v0,2023.2.2,Win32,85.47008547,,,,,,,,,,,,,,,,116.955,118.249,118.2491,120.9667,return,0.6654,,25.52083333,0,20,20,40,1,FBP-RB-19.png,0.35,1.2,41,0.5,,,,,,,,,,,,,,,,,,,,,,,,,,,,,,,,,,,,,,,,,,,,,
,,,,,SPR24_062,20,F,2024-04-17_16h31.28.031,jersey_experiment_5_v0,2023.2.2,Win32,85.47008547,,,,,,,,,,,,,,,,120.9669,122.2609,122.261,124.6728,return,0.6588,,74.73958333,0,21,21,4,1,FBP-OG-71.png,0.45,1.2,5,0.5,,,,,,,,,,,,,,,,,,,,,,,,,,,,,,,,,,,,,,,,,,,,,
,,,,,SPR24_062,20,F,2024-04-17_16h31.28.031,jersey_experiment_5_v0,2023.2.2,Win32,85.47008547,,,,,,,,,,,,,,,,124.6731,125.9668,125.9669,128.2258,return,0.7166,,25.13020833,0,22,22,30,1,FBP-RB-17.png,0.35,1.2,31,0.5,,,,,,,,,,,,,,,,,,,,,,,,,,,,,,,,,,,,,,,,,,,,,
,,,,,SPR24_062,20,F,2024-04-17_16h31.28.031,jersey_experiment_5_v0,2023.2.2,Win32,85.47008547,,,,,,,,,,,,,,,,128.226,129.52,129.52,134.1438,return,0.5891,,50,0,23,23,41,1,FBP-RB-19.png,0.37,1.2,42,0.5,,,,,,,,,,,,,,,,,,,,,,,,,,,,,,,,,,,,,,,,,,,,,
,,,,,SPR24_062,20,F,2024-04-17_16h31.28.031,jersey_experiment_5_v0,2023.2.2,Win32,85.47008547,,,,,,,,,,,,,,,,134.144,135.1907,135.1907,136.8143,return,0.5421,,50,0,24,24,52,1,FBP-PT-18.png,0.4,1.2,53,0.25,,,,,,,,,,,,,,,,,,,,,,,,,,,,,,,,,,,,,,,,,,,,,
,,,,,SPR24_062,20,F,2024-04-17_16h31.28.031,jersey_experiment_5_v0,2023.2.2,Win32,85.47008547,,,,,,,,,,,,,,,,136.8145,137.8615,137.8616,141.5676,return,0.565,,49.609375,0,25,25,17,1,FBP-YG-17.png,0.4,1.2,18,0.25,,,,,,,,,,,,,,,,,,,,,,,,,,,,,,,,,,,,,,,,,,,,,
,,,,,SPR24_062,20,F,2024-04-17_16h31.28.031,jersey_experiment_5_v0,2023.2.2,Win32,85.47008547,,,,,,,,,,,,,,,,141.5677,142.6146,142.6146,144.6029,return,0.5327,,74.21875,0,26,26,27,1,FBP-YG-19.png,0.4,1.2,28,0.25,,,,,,,,,,,,,,,,,,,,,,,,,,,,,,,,,,,,,,,,,,,,,
,,,,,SPR24_062,20,F,2024-04-17_16h31.28.031,jersey_experiment_5_v0,2023.2.2,Win32,85.47008547,,,,,,,,,,,,,,,,144.6031,145.65,145.6501,147.2619,return,0.5769,,74.21875,0,27,27,51,1,FBP-PT-18.png,0.37,1.2,52,0.25,,,,,,,,,,,,,,,,,,,,,,,,,,,,,,,,,,,,,,,,,,,,,
,,,,,SPR24_062,20,F,2024-04-17_16h31.28.031,jersey_experiment_5_v0,2023.2.2,Win32,85.47008547,,,,,,,,,,,,,,,,147.262,148.556,148.556,150.5679,return,0.548,,99.73958333,0,28,28,43,1,FBP-RB-19.png,0.43,1.2,44,0.5,,,,,,,,,,,,,,,,,,,,,,,,,,,,,,,,,,,,,,,,,,,,,
,,,,,SPR24_062,20,F,2024-04-17_16h31.28.031,jersey_experiment_5_v0,2023.2.2,Win32,85.47008547,,,,,,,,,,,,,,,,150.5682,151.6149,151.6149,154.9563,return,0.8843,,50.390625,0,29,29,47,1,FBP-PT-17.png,0.4,1.2,48,0.25,,,,,,,,,,,,,,,,,,,,,,,,,,,,,,,,,,,,,,,,,,,,,
,,,,,SPR24_062,20,F,2024-04-17_16h31.28.031,jersey_experiment_5_v0,2023.2.2,Win32,85.47008547,,,,,,,,,,,,,,,,154.9564,156.2503,156.2505,157.7211,return,0.4985,,50.13020833,0,30,30,5,1,FBP-OG-81.png,0.35,1.2,6,0.5,,,,,,,,,,,,,,,,,,,,,,,,,,,,,,,,,,,,,,,,,,,,,
,,,,,SPR24_062,20,F,2024-04-17_16h31.28.031,jersey_experiment_5_v0,2023.2.2,Win32,85.47008547,,,,,,,,,,,,,,,,157.7213,159.0153,159.0153,160.9094,return,0.5536,,24.86979167,0,31,31,10,1,FBP-OG-91.png,0.35,1.2,11,0.5,,,,,,,,,,,,,,,,,,,,,,,,,,,,,,,,,,,,,,,,,,,,,
,,,,,SPR24_062,20,F,2024-04-17_16h31.28.031,jersey_experiment_5_v0,2023.2.2,Win32,85.47008547,,,,,,,,,,,,,,,,160.9096,162.2035,162.2035,164.2038,return,0.4977,,49.86979167,0,32,32,36,1,FBP-RB-18.png,0.37,1.2,37,0.5,,,,,,,,,,,,,,,,,,,,,,,,,,,,,,,,,,,,,,,,,,,,,
,,,,,SPR24_062,20,F,2024-04-17_16h31.28.031,jersey_experiment_5_v0,2023.2.2,Win32,85.47008547,,,,,,,,,,,,,,,,164.204,165.2507,165.2507,167.4743,return,0.4941,,99.34895833,0,33,33,28,1,FBP-YG-19.png,0.43,1.2,29,0.25,,,,,,,,,,,,,,,,,,,,,,,,,,,,,,,,,,,,,,,,,,,,,
,,,,,SPR24_062,20,F,2024-04-17_16h31.28.031,jersey_experiment_5_v0,2023.2.2,Win32,85.47008547,,,,,,,,,,,,,,,,167.4746,168.7685,168.7685,169.9333,return,0.4611,,99.34895833,0,34,34,9,1,FBP-OG-81.png,0.45,1.2,10,0.5,,,,,,,,,,,,,,,,,,,,,,,,,,,,,,,,,,,,,,,,,,,,,
,,,,,SPR24_062,20,F,2024-04-17_16h31.28.031,jersey_experiment_5_v0,2023.2.2,Win32,85.47008547,,,,,,,,,,,,,,,,169.9336,170.9804,170.9805,172.6629,return,0.4773,,99.34895833,0,35,35,23,1,FBP-YG-18.png,0.43,1.2,24,0.25,,,,,,,,,,,,,,,,,,,,,,,,,,,,,,,,,,,,,,,,,,,,,
,,,,,SPR24_062,20,F,2024-04-17_16h31.28.031,jersey_experiment_5_v0,2023.2.2,Win32,85.47008547,,,,,,,,,,,,,,,,172.6631,173.7099,173.7099,175.6393,return,0.5359,,49.609375,0,36,36,15,1,FBP-YG-17.png,0.35,1.2,16,0.25,,,,,,,,,,,,,,,,,,,,,,,,,,,,,,,,,,,,,,,,,,,,,
,,,,,SPR24_062,20,F,2024-04-17_16h31.28.031,jersey_experiment_5_v0,2023.2.2,Win32,85.47008547,,,,,,,,,,,,,,,,175.6395,176.9335,176.9335,179.0983,return,0.5933,,99.609375,0,37,37,38,1,FBP-RB-18.png,0.43,1.2,39,0.5,,,,,,,,,,,,,,,,,,,,,,,,,,,,,,,,,,,,,,,,,,,,,
,,,,,SPR24_062,20,F,2024-04-17_16h31.28.031,jersey_experiment_5_v0,2023.2.2,Win32,85.47008547,,,,,,,,,,,,,,,,179.0985,180.3923,180.3924,184.1457,return,2.1424,,50.390625,0,38,38,6,1,FBP-OG-81.png,0.37,1.2,7,0.5,,,,,,,,,,,,,,,,,,,,,,,,,,,,,,,,,,,,,,,,,,,,,
,,,,,SPR24_062,20,F,2024-04-17_16h31.28.031,jersey_experiment_5_v0,2023.2.2,Win32,85.47008547,,,,,,,,,,,,,,,,184.1459,185.4396,185.4396,187.4516,return,0.9547,,50.390625,0,39,39,12,1,FBP-OG-91.png,0.4,1.2,13,0.5,,,,,,,,,,,,,,,,,,,,,,,,,,,,,,,,,,,,,,,,,,,,,
,,,,,SPR24_062,20,F,2024-04-17_16h31.28.031,jersey_experiment_5_v0,2023.2.2,Win32,85.47008547,,,,,,,,,,,,,,,,187.4519,188.7457,188.7458,190.8281,return,0.508,,74.21875,0,40,40,42,1,FBP-RB-19.png,0.4,1.2,43,0.5,,,,,,,,,,,,,,,,,,,,,,,,,,,,,,,,,,,,,,,,,,,,,
,,,,,SPR24_062,20,F,2024-04-17_16h31.28.031,jersey_experiment_5_v0,2023.2.2,Win32,85.47008547,,,,,,,,,,,,,,,,190.8283,191.8753,191.8753,193.3224,return,0.4759,,74.21875,0,41,41,46,1,FBP-PT-17.png,0.37,1.2,47,0.25,,,,,,,,,,,,,,,,,,,,,,,,,,,,,,,,,,,,,,,,,,,,,
,,,,,SPR24_062,20,F,2024-04-17_16h31.28.031,jersey_experiment_5_v0,2023.2.2,Win32,85.47008547,,,,,,,,,,,,,,,,193.3226,194.3695,194.3695,195.9932,return,0.4996,,74.21875,0,42,42,16,1,FBP-YG-17.png,0.37,1.2,17,0.25,,,,,,,,,,,,,,,,,,,,,,,,,,,,,,,,,,,,,,,,,,,,,
,,,,,SPR24_062,20,F,2024-04-17_16h31.28.031,jersey_experiment_5_v0,2023.2.2,Win32,85.47008547,,,,,,,,,,,,,,,,195.9934,197.0402,197.0402,199.311,return,0.7667,,25.91145833,0,43,43,21,1,FBP-YG-18.png,0.37,1.2,22,0.25,,,,,,,,,,,,,,,,,,,,,,,,,,,,,,,,,,,,,,,,,,,,,
,,,,,SPR24_062,20,F,2024-04-17_16h31.28.031,jersey_experiment_5_v0,2023.2.2,Win32,85.47008547,,,,,,,,,,,,,,,,199.3112,200.3579,200.3579,202.958,return,0.6362,,99.08854167,0,44,44,58,1,FBP-PT-19.png,0.43,1.2,59,0.25,,,,,,,,,,,,,,,,,,,,,,,,,,,,,,,,,,,,,,,,,,,,,
,,,,,SPR24_062,20,F,2024-04-17_16h31.28.031,jersey_experiment_5_v0,2023.2.2,Win32,85.47008547,,,,,,,,,,,,,,,,202.9583,204.2521,204.2522,205.4405,return,0.5033,,99.08854167,0,45,45,44,1,FBP-RB-19.png,0.45,1.2,45,0.5,,,,,,,,,,,,,,,,,,,,,,,,,,,,,,,,,,,,,,,,,,,,,
,,,,,SPR24_062,20,F,2024-04-17_16h31.28.031,jersey_experiment_5_v0,2023.2.2,Win32,85.47008547,,,,,,,,,,,,,,,,205.4406,206.7346,206.7346,209.1465,return,0.78,,50.26041667,0,46,46,2,1,FBP-OG-71.png,0.4,1.2,3,0.5,,,,,,,,,,,,,,,,,,,,,,,,,,,,,,,,,,,,,,,,,,,,,
,,,,,SPR24_062,20,F,2024-04-17_16h31.28.031,jersey_experiment_5_v0,2023.2.2,Win32,85.47008547,,,,,,,,,,,,,,,,209.1467,210.1935,210.1935,212.7468,return,0.5911,,99.08854167,0,47,47,59,1,FBP-PT-19.png,0.45,1.2,60,0.25,,,,,,,,,,,,,,,,,,,,,,,,,,,,,,,,,,,,,,,,,,,,,
,,,,,SPR24_062,20,F,2024-04-17_16h31.28.031,jersey_experiment_5_v0,2023.2.2,Win32,85.47008547,,,,,,,,,,,,,,,,212.7469,213.7937,213.7937,215.9467,return,0.5578,,25,0,48,48,45,1,FBP-PT-17.png,0.35,1.2,46,0.25,,,,,,,,,,,,,,,,,,,,,,,,,,,,,,,,,,,,,,,,,,,,,
,,,,,SPR24_062,20,F,2024-04-17_16h31.28.031,jersey_experiment_5_v0,2023.2.2,Win32,85.47008547,,,,,,,,,,,,,,,,215.947,216.9938,216.9939,218.9234,return,0.4985,,99.47916667,0,49,49,49,1,FBP-PT-17.png,0.45,1.2,50,0.25,,,,,,,,,,,,,,,,,,,,,,,,,,,,,,,,,,,,,,,,,,,,,
,,,,,SPR24_062,20,F,2024-04-17_16h31.28.031,jersey_experiment_5_v0,2023.2.2,Win32,85.47008547,,,,,,,,,,,,,,,,218.9237,220.2174,220.2174,221.7589,return,0.484,,99.86979167,0,50,50,13,1,FBP-OG-91.png,0.43,1.2,14,0.5,,,,,,,,,,,,,,,,,,,,,,,,,,,,,,,,,,,,,,,,,,,,,
,,,,,SPR24_062,20,F,2024-04-17_16h31.28.031,jersey_experiment_5_v0,2023.2.2,Win32,85.47008547,,,,,,,,,,,,,,,,221.7591,222.8058,222.8058,224.3116,return,0.5018,,99.86979167,0,51,51,48,1,FBP-PT-17.png,0.43,1.2,49,0.25,,,,,,,,,,,,,,,,,,,,,,,,,,,,,,,,,,,,,,,,,,,,,
,,,,,SPR24_062,20,F,2024-04-17_16h31.28.031,jersey_experiment_5_v0,2023.2.2,Win32,85.47008547,,,,,,,,,,,,,,,,224.3119,225.3589,225.359,226.9707,return,0.5464,,99.86979167,0,52,52,54,1,FBP-PT-18.png,0.45,1.2,55,0.25,,,,,,,,,,,,,,,,,,,,,,,,,,,,,,,,,,,,,,,,,,,,,
,,,,,SPR24_062,20,F,2024-04-17_16h31.28.031,jersey_experiment_5_v0,2023.2.2,Win32,85.47008547,,,,,,,,,,,,,,,,226.9709,228.0177,228.0178,230.0885,return,0.5701,,75.13020833,0,53,53,22,1,FBP-YG-18.png,0.4,1.2,23,0.25,,,,,,,,,,,,,,,,,,,,,,,,,,,,,,,,,,,,,,,,,,,,,
,,,,,SPR24_062,20,F,2024-04-17_16h31.28.031,jersey_experiment_5_v0,2023.2.2,Win32,85.47008547,,,,,,,,,,,,,,,,230.0888,231.3825,231.3826,232.6885,return,0.4807,,75.13020833,0,54,54,7,1,FBP-OG-81.png,0.4,1.2,8,0.5,,,,,,,,,,,,,,,,,,,,,,,,,,,,,,,,,,,,,,,,,,,,,
,,,,,SPR24_062,20,F,2024-04-17_16h31.28.031,jersey_experiment_5_v0,2023.2.2,Win32,85.47008547,,,,,,,,,,,,,,,,232.6887,233.9826,233.9827,235.9357,return,0.5745,,98.95833333,0,55,55,39,1,FBP-RB-18.png,0.45,1.2,40,0.5,,,,,,,,,,,,,,,,,,,,,,,,,,,,,,,,,,,,,,,,,,,,,
,,,,,SPR24_062,20,F,2024-04-17_16h31.28.031,jersey_experiment_5_v0,2023.2.2,Win32,85.47008547,,,,,,,,,,,,,,,,235.936,236.9828,236.9828,238.3947,return,0.4739,,98.95833333,0,56,56,19,1,FBP-YG-17.png,0.45,1.2,20,0.25,,,,,,,,,,,,,,,,,,,,,,,,,,,,,,,,,,,,,,,,,,,,,
,,,,,SPR24_062,20,F,2024-04-17_16h31.28.031,jersey_experiment_5_v0,2023.2.2,Win32,85.47008547,,,,,,,,,,,,,,,,238.395,239.6887,239.6888,240.8419,return,0.4519,,98.95833333,0,57,57,8,1,FBP-OG-81.png,0.43,1.2,9,0.5,,,,,,,,,,,,,,,,,,,,,,,,,,,,,,,,,,,,,,,,,,,,,
,,,,,SPR24_062,20,F,2024-04-17_16h31.28.031,jersey_experiment_5_v0,2023.2.2,Win32,85.47008547,,,,,,,,,,,,,,,,240.8421,242.1359,242.1359,244.2535,return,0.6348,,24.73958333,0,58,58,0,1,FBP-OG-71.png,0.35,1.2,1,0.5,,,,,,,,,,,,,,,,,,,,,,,,,,,,,,,,,,,,,,,,,,,,,
,,,,,SPR24_062,20,F,2024-04-17_16h31.28.031,jersey_experiment_5_v0,2023.2.2,Win32,85.47008547,,,,,,,,,,,,,,,,244.2538,245.3007,245.3007,247.9479,return,0.5198,,73.95833333,0,59,59,56,1,FBP-PT-19.png,0.37,1.2,57,0.25,,,,,,,,,,,,,,,,,,,,,,,,,,,,,,,,,,,,,,,,,,,,,
,,,,,SPR24_062,20,F,2024-04-17_16h31.28.031,jersey_experiment_5_v0,2023.2.2,Win32,85.47008547,,,,,,,,,,,,,,,,247.95,248.9949,248.995,251.1833,return,0.5885,,98.56770833,,,,,,FBP-PT-71.png,0.43,1.2,49,0.25,0,0,0,48,1,,,,,,,,,,,,,,,,,,,,,,,,,,,,,,,,,,,,,,,,
,,,,,SPR24_062,20,F,2024-04-17_16h31.28.031,jersey_experiment_5_v0,2023.2.2,Win32,85.47008547,,,,,,,,,,,,,,,,251.1838,252.4775,252.4775,254.2893,return,0.5044,,74.34895833,,,,,,FBP-OG-19.png,0.4,1.2,13,0.5,0,1,1,12,1,,,,,,,,,,,,,,,,,,,,,,,,,,,,,,,,,,,,,,,,
,,,,,SPR24_062,20,F,2024-04-17_16h31.28.031,jersey_experiment_5_v0,2023.2.2,Win32,85.47008547,,,,,,,,,,,,,,,,254.2896,255.5834,255.5834,257.207,return,0.513,,49.21875,,,,,,FBP-RB-71.png,0.37,1.2,32,0.5,0,2,2,31,1,,,,,,,,,,,,,,,,,,,,,,,,,,,,,,,,,,,,,,,,
,,,,,SPR24_062,20,F,2024-04-17_16h31.28.031,jersey_experiment_5_v0,2023.2.2,Win32,85.47008547,,,,,,,,,,,,,,,,257.2072,258.5011,258.5011,259.5602,return,0.4647,,49.21875,,,,,,FBP-RB-81.png,0.35,1.2,36,0.5,0,3,3,35,1,,,,,,,,,,,,,,,,,,,,,,,,,,,,,,,,,,,,,,,,
,,,,,SPR24_062,20,F,2024-04-17_16h31.28.031,jersey_experiment_5_v0,2023.2.2,Win32,85.47008547,,,,,,,,,,,,,,,,259.5603,260.6072,260.6073,262.984,return,0.6319,,98.828125,,,,,,FBP-PT-71.png,0.45,1.2,50,0.25,0,4,4,49,1,,,,,,,,,,,,,,,,,,,,,,,,,,,,,,,,,,,,,,,,
,,,,,SPR24_062,20,F,2024-04-17_16h31.28.031,jersey_experiment_5_v0,2023.2.2,Win32,85.47008547,,,,,,,,,,,,,,,,262.9842,264.278,264.278,265.2899,return,0.5691,,98.828125,,,,,,FBP-OG-17.png,0.45,1.2,5,0.5,0,5,5,4,1,,,,,,,,,,,,,,,,,,,,,,,,,,,,,,,,,,,,,,,,
,,,,,SPR24_062,20,F,2024-04-17_16h31.28.031,jersey_experiment_5_v0,2023.2.2,Win32,85.47008547,,,,,,,,,,,,,,,,265.2901,266.3367,266.3368,268.5369,return,0.7713,,25,,,,,,FBP-PT-81.png,0.35,1.2,51,0.25,0,6,6,50,1,,,,,,,,,,,,,,,,,,,,,,,,,,,,,,,,,,,,,,,,
,,,,,SPR24_062,20,F,2024-04-17_16h31.28.031,jersey_experiment_5_v0,2023.2.2,Win32,85.47008547,,,,,,,,,,,,,,,,268.5372,269.8311,269.8311,271.5488,return,0.5322,,49.73958333,,,,,,FBP-RB-81.png,0.4,1.2,38,0.5,0,7,7,37,1,,,,,,,,,,,,,,,,,,,,,,,,,,,,,,,,,,,,,,,,
,,,,,SPR24_062,20,F,2024-04-17_16h31.28.031,jersey_experiment_5_v0,2023.2.2,Win32,85.47008547,,,,,,,,,,,,,,,,271.549,272.596,272.596,274.0783,return,0.4816,,49.73958333,,,,,,FBP-YG-81.png,0.4,1.2,23,0.25,0,8,8,22,1,,,,,,,,,,,,,,,,,,,,,,,,,,,,,,,,,,,,,,,,
,,,,,SPR24_062,20,F,2024-04-17_16h31.28.031,jersey_experiment_5_v0,2023.2.2,Win32,85.47008547,,,,,,,,,,,,,,,,274.0786,275.3723,275.3723,276.6196,return,0.5318,,49.47916667,,,,,,FBP-OG-18.png,0.4,1.2,8,0.5,0,9,9,7,1,,,,,,,,,,,,,,,,,,,,,,,,,,,,,,,,,,,,,,,,
,,,,,SPR24_062,20,F,2024-04-17_16h31.28.031,jersey_experiment_5_v0,2023.2.2,Win32,85.47008547,,,,,,,,,,,,,,,,276.6199,277.6665,277.6666,279.7374,return,0.5221,,74.86979167,,,,,,FBP-YG-81.png,0.43,1.2,24,0.25,0,10,10,23,1,,,,,,,,,,,,,,,,,,,,,,,,,,,,,,,,,,,,,,,,
,,,,,SPR24_062,20,F,2024-04-17_16h31.28.031,jersey_experiment_5_v0,2023.2.2,Win32,85.47008547,,,,,,,,,,,,,,,,279.7376,281.0314,281.0314,283.9847,return,0.9888,,25.13020833,,,,,,FBP-OG-17.png,0.37,1.2,2,0.5,0,11,11,1,1,,,,,,,,,,,,,,,,,,,,,,,,,,,,,,,,,,,,,,,,
,,,,,SPR24_062,20,F,2024-04-17_16h31.28.031,jersey_experiment_5_v0,2023.2.2,Win32,85.47008547,,,,,,,,,,,,,,,,283.9849,285.0317,285.0317,287.5846,return,0.4943,,74.73958333,,,,,,FBP-YG-71.png,0.4,1.2,18,0.25,0,12,12,17,1,,,,,,,,,,,,,,,,,,,,,,,,,,,,,,,,,,,,,,,,
,,,,,SPR24_062,20,F,2024-04-17_16h31.28.031,jersey_experiment_5_v0,2023.2.2,Win32,85.47008547,,,,,,,,,,,,,,,,287.5848,288.8787,288.8787,290.2555,return,0.4613,,99.609375,,,,,,FBP-OG-19.png,0.45,1.2,15,0.5,0,13,13,14,1,,,,,,,,,,,,,,,,,,,,,,,,,,,,,,,,,,,,,,,,
,,,,,SPR24_062,20,F,2024-04-17_16h31.28.031,jersey_experiment_5_v0,2023.2.2,Win32,85.47008547,,,,,,,,,,,,,,,,290.2557,291.5496,291.5496,292.7377,return,0.4333,,99.609375,,,,,,FBP-OG-19.png,0.43,1.2,14,0.5,0,14,14,13,1,,,,,,,,,,,,,,,,,,,,,,,,,,,,,,,,,,,,,,,,
,,,,,SPR24_062,20,F,2024-04-17_16h31.28.031,jersey_experiment_5_v0,2023.2.2,Win32,85.47008547,,,,,,,,,,,,,,,,292.7379,293.7849,293.7849,295.6556,return,0.4654,,74.21875,,,,,,FBP-YG-91.png,0.4,1.2,28,0.25,0,15,15,27,1,,,,,,,,,,,,,,,,,,,,,,,,,,,,,,,,,,,,,,,,
,,,,,SPR24_062,20,F,2024-04-17_16h31.28.031,jersey_experiment_5_v0,2023.2.2,Win32,85.47008547,,,,,,,,,,,,,,,,295.6559,296.7026,296.7027,297.7261,return,0.412,,74.21875,,,,,,FBP-YG-81.png,0.37,1.2,22,0.25,0,16,16,21,1,,,,,,,,,,,,,,,,,,,,,,,,,,,,,,,,,,,,,,,,
,,,,,SPR24_062,20,F,2024-04-17_16h31.28.031,jersey_experiment_5_v0,2023.2.2,Win32,85.47008547,,,,,,,,,,,,,,,,297.7264,298.7733,298.7734,300.4086,return,0.5104,,98.95833333,,,,,,FBP-YG-81.png,0.45,1.2,25,0.25,0,17,17,24,1,,,,,,,,,,,,,,,,,,,,,,,,,,,,,,,,,,,,,,,,
,,,,,SPR24_062,20,F,2024-04-17_16h31.28.031,jersey_experiment_5_v0,2023.2.2,Win32,85.47008547,,,,,,,,,,,,,,,,300.4088,301.4558,301.4558,303.55,return,0.6025,,98.95833333,,,,,,FBP-PT-81.png,0.45,1.2,55,0.25,0,18,18,54,1,,,,,,,,,,,,,,,,,,,,,,,,,,,,,,,,,,,,,,,,
,,,,,SPR24_062,20,F,2024-04-17_16h31.28.031,jersey_experiment_5_v0,2023.2.2,Win32,85.47008547,,,,,,,,,,,,,,,,303.5501,304.8441,304.8441,306.1266,return,0.4344,,99.21875,,,,,,FBP-OG-18.png,0.43,1.2,9,0.5,0,19,19,8,1,,,,,,,,,,,,,,,,,,,,,,,,,,,,,,,,,,,,,,,,
,,,,,SPR24_062,20,F,2024-04-17_16h31.28.031,jersey_experiment_5_v0,2023.2.2,Win32,85.47008547,,,,,,,,,,,,,,,,306.1268,307.1736,307.1737,309.1972,return,0.518,,25,,,,,,FBP-YG-81.png,0.35,1.2,21,0.25,0,20,20,20,1,,,,,,,,,,,,,,,,,,,,,,,,,,,,,,,,,,,,,,,,
,,,,,SPR24_062,20,F,2024-04-17_16h31.28.031,jersey_experiment_5_v0,2023.2.2,Win32,85.47008547,,,,,,,,,,,,,,,,309.1975,310.2443,310.2443,311.9974,return,0.4137,,74.47916667,,,,,,FBP-PT-91.png,0.43,1.2,59,0.25,0,21,21,58,1,,,,,,,,,,,,,,,,,,,,,,,,,,,,,,,,,,,,,,,,
,,,,,SPR24_062,20,F,2024-04-17_16h31.28.031,jersey_experiment_5_v0,2023.2.2,Win32,85.47008547,,,,,,,,,,,,,,,,311.9976,313.0444,313.0445,315.0328,return,0.5698,,98.56770833,,,,,,FBP-YG-71.png,0.43,1.2,19,0.25,0,22,22,18,1,,,,,,,,,,,,,,,,,,,,,,,,,,,,,,,,,,,,,,,,
,,,,,SPR24_062,20,F,2024-04-17_16h31.28.031,jersey_experiment_5_v0,2023.2.2,Win32,85.47008547,,,,,,,,,,,,,,,,315.0329,316.0798,316.0799,317.4209,return,0.7085,,98.69791667,,,,,,FBP-YG-91.png,0.43,1.2,29,0.25,0,23,23,28,1,,,,,,,,,,,,,,,,,,,,,,,,,,,,,,,,,,,,,,,,
,,,,,SPR24_062,20,F,2024-04-17_16h31.28.031,jersey_experiment_5_v0,2023.2.2,Win32,85.47008547,,,,,,,,,,,,,,,,317.4212,318.4682,318.4682,319.8566,return,0.4616,,98.828125,,,,,,FBP-PT-81.png,0.4,1.2,53,0.25,0,24,24,52,1,,,,,,,,,,,,,,,,,,,,,,,,,,,,,,,,,,,,,,,,
,,,,,SPR24_062,20,F,2024-04-17_16h31.28.031,jersey_experiment_5_v0,2023.2.2,Win32,85.47008547,,,,,,,,,,,,,,,,319.8569,320.9035,320.9036,323.0095,return,0.4613,,99.21875,,,,,,FBP-YG-71.png,0.45,1.2,20,0.25,0,25,25,19,1,,,,,,,,,,,,,,,,,,,,,,,,,,,,,,,,,,,,,,,,
,,,,,SPR24_062,20,F,2024-04-17_16h31.28.031,jersey_experiment_5_v0,2023.2.2,Win32,85.47008547,,,,,,,,,,,,,,,,323.0097,324.3037,324.3037,326.0334,return,0.598,,25.78125,,,,,,FBP-OG-18.png,0.37,1.2,7,0.5,0,26,26,6,1,,,,,,,,,,,,,,,,,,,,,,,,,,,,,,,,,,,,,,,,
,,,,,SPR24_062,20,F,2024-04-17_16h31.28.031,jersey_experiment_5_v0,2023.2.2,Win32,85.47008547,,,,,,,,,,,,,,,,326.0336,327.0802,327.0803,329.8686,return,0.5445,,50.13020833,,,,,,FBP-YG-91.png,0.35,1.2,26,0.25,0,27,27,25,1,,,,,,,,,,,,,,,,,,,,,,,,,,,,,,,,,,,,,,,,
,,,,,SPR24_062,20,F,2024-04-17_16h31.28.031,jersey_experiment_5_v0,2023.2.2,Win32,85.47008547,,,,,,,,,,,,,,,,329.8688,330.9157,330.9157,332.7628,return,0.4617,,24.34895833,,,,,,FBP-PT-71.png,0.35,1.2,46,0.25,0,28,28,45,1,,,,,,,,,,,,,,,,,,,,,,,,,,,,,,,,,,,,,,,,
,,,,,SPR24_062,20,F,2024-04-17_16h31.28.031,jersey_experiment_5_v0,2023.2.2,Win32,85.47008547,,,,,,,,,,,,,,,,332.7631,334.0569,334.057,335.6454,return,0.462,,99.609375,,,,,,FBP-RB-71.png,0.43,1.2,34,0.5,0,29,29,33,1,,,,,,,,,,,,,,,,,,,,,,,,,,,,,,,,,,,,,,,,
,,,,,SPR24_062,20,F,2024-04-17_16h31.28.031,jersey_experiment_5_v0,2023.2.2,Win32,85.47008547,,,,,,,,,,,,,,,,335.6457,336.6922,336.6923,338.5864,return,0.4874,,49.34895833,,,,,,FBP-PT-71.png,0.37,1.2,47,0.25,0,30,30,46,1,,,,,,,,,,,,,,,,,,,,,,,,,,,,,,,,,,,,,,,,
,,,,,SPR24_062,20,F,2024-04-17_16h31.28.031,jersey_experiment_5_v0,2023.2.2,Win32,85.47008547,,,,,,,,,,,,,,,,338.5867,339.8807,339.8807,341.3396,return,0.4629,,99.34895833,,,,,,FBP-RB-81.png,0.45,1.2,40,0.5,0,31,31,39,1,,,,,,,,,,,,,,,,,,,,,,,,,,,,,,,,,,,,,,,,
,,,,,SPR24_062,20,F,2024-04-17_16h31.28.031,jersey_experiment_5_v0,2023.2.2,Win32,85.47008547,,,,,,,,,,,,,,,,341.3399,342.3865,342.3866,343.8691,return,0.4365,,74.47916667,,,,,,FBP-YG-71.png,0.35,1.2,16,0.25,0,32,32,15,1,,,,,,,,,,,,,,,,,,,,,,,,,,,,,,,,,,,,,,,,
,,,,,SPR24_062,20,F,2024-04-17_16h31.28.031,jersey_experiment_5_v0,2023.2.2,Win32,85.47008547,,,,,,,,,,,,,,,,343.8693,344.9162,344.9163,346.4339,return,0.4942,,49.47916667,,,,,,FBP-PT-91.png,0.35,1.2,56,0.25,0,33,33,55,1,,,,,,,,,,,,,,,,,,,,,,,,,,,,,,,,,,,,,,,,
,,,,,SPR24_062,20,F,2024-04-17_16h31.28.031,jersey_experiment_5_v0,2023.2.2,Win32,85.47008547,,,,,,,,,,,,,,,,346.4341,347.728,347.7281,349.4693,return,1.3763,,25.26041667,,,,,,FBP-RB-71.png,0.35,1.2,31,0.5,0,34,34,30,1,,,,,,,,,,,,,,,,,,,,,,,,,,,,,,,,,,,,,,,,
,,,,,SPR24_062,20,F,2024-04-17_16h31.28.031,jersey_experiment_5_v0,2023.2.2,Win32,85.47008547,,,,,,,,,,,,,,,,349.4695,350.5164,350.5164,354.0931,return,2.8479,,50.26041667,,,,,,FBP-YG-91.png,0.37,1.2,27,0.25,0,35,35,26,1,,,,,,,,,,,,,,,,,,,,,,,,,,,,,,,,,,,,,,,,
,,,,,SPR24_062,20,F,2024-04-17_16h31.28.031,jersey_experiment_5_v0,2023.2.2,Win32,85.47008547,,,,,,,,,,,,,,,,354.0933,355.3871,355.3871,356.8814,return,0.4711,,99.08854167,,,,,,FBP-OG-18.png,0.45,1.2,10,0.5,0,36,36,9,1,,,,,,,,,,,,,,,,,,,,,,,,,,,,,,,,,,,,,,,,
,,,,,SPR24_062,20,F,2024-04-17_16h31.28.031,jersey_experiment_5_v0,2023.2.2,Win32,85.47008547,,,,,,,,,,,,,,,,356.8816,358.1755,358.1755,359.6932,return,0.5554,,26.171875,,,,,,FBP-OG-19.png,0.35,1.2,11,0.5,0,37,37,10,1,,,,,,,,,,,,,,,,,,,,,,,,,,,,,,,,,,,,,,,,
,,,,,SPR24_062,20,F,2024-04-17_16h31.28.031,jersey_experiment_5_v0,2023.2.2,Win32,85.47008547,,,,,,,,,,,,,,,,359.6934,360.7403,360.7403,362.3757,return,0.4902,,98.30729167,,,,,,FBP-PT-91.png,0.45,1.2,60,0.25,0,38,38,59,1,,,,,,,,,,,,,,,,,,,,,,,,,,,,,,,,,,,,,,,,
,,,,,SPR24_062,20,F,2024-04-17_16h31.28.031,jersey_experiment_5_v0,2023.2.2,Win32,85.47008547,,,,,,,,,,,,,,,,362.376,363.6698,363.6698,365.3405,return,0.5311,,25.26041667,,,,,,FBP-OG-19.png,0.37,1.2,12,0.5,0,39,39,11,1,,,,,,,,,,,,,,,,,,,,,,,,,,,,,,,,,,,,,,,,
,,,,,SPR24_062,20,F,2024-04-17_16h31.28.031,jersey_experiment_5_v0,2023.2.2,Win32,85.47008547,,,,,,,,,,,,,,,,365.3407,366.6346,366.6346,368.3053,return,0.5553,,50,,,,,,FBP-OG-17.png,0.4,1.2,3,0.5,0,40,40,2,1,,,,,,,,,,,,,,,,,,,,,,,,,,,,,,,,,,,,,,,,
,,,,,SPR24_062,20,F,2024-04-17_16h31.28.031,jersey_experiment_5_v0,2023.2.2,Win32,85.47008547,,,,,,,,,,,,,,,,368.3056,369.5996,369.5996,370.8936,return,0.532,,98.828125,,,,,,FBP-RB-81.png,0.43,1.2,39,0.5,0,41,41,38,1,,,,,,,,,,,,,,,,,,,,,,,,,,,,,,,,,,,,,,,,
,,,,,SPR24_062,20,F,2024-04-17_16h31.28.031,jersey_experiment_5_v0,2023.2.2,Win32,85.47008547,,,,,,,,,,,,,,,,370.8939,372.1877,372.1877,375.682,return,1.446,,50.390625,,,,,,FBP-RB-81.png,0.37,1.2,37,0.5,0,42,42,36,1,,,,,,,,,,,,,,,,,,,,,,,,,,,,,,,,,,,,,,,,
,,,,,SPR24_062,20,F,2024-04-17_16h31.28.031,jersey_experiment_5_v0,2023.2.2,Win32,85.47008547,,,,,,,,,,,,,,,,375.6823,376.9762,376.9762,379.2115,return,0.6261,,99.08854167,,,,,,FBP-RB-71.png,0.45,1.2,35,0.5,0,43,43,34,1,,,,,,,,,,,,,,,,,,,,,,,,,,,,,,,,,,,,,,,,
,,,,,SPR24_062,20,F,2024-04-17_16h31.28.031,jersey_experiment_5_v0,2023.2.2,Win32,85.47008547,,,,,,,,,,,,,,,,379.2116,380.5057,380.5057,381.9646,return,0.803,,97.65625,,,,,,FBP-RB-91.png,0.4,1.2,43,0.5,0,44,44,42,1,,,,,,,,,,,,,,,,,,,,,,,,,,,,,,,,,,,,,,,,
,,,,,SPR24_062,20,F,2024-04-17_16h31.28.031,jersey_experiment_5_v0,2023.2.2,Win32,85.47008547,,,,,,,,,,,,,,,,381.9648,383.2588,383.2589,385.2001,return,0.5645,,24.609375,,,,,,FBP-OG-17.png,0.35,1.2,1,0.5,0,45,45,0,1,,,,,,,,,,,,,,,,,,,,,,,,,,,,,,,,,,,,,,,,
,,,,,SPR24_062,20,F,2024-04-17_16h31.28.031,jersey_experiment_5_v0,2023.2.2,Win32,85.47008547,,,,,,,,,,,,,,,,385.2003,386.2471,386.2472,388.1532,return,0.4769,,74.609375,,,,,,FBP-PT-71.png,0.4,1.2,48,0.25,0,46,46,47,1,,,,,,,,,,,,,,,,,,,,,,,,,,,,,,,,,,,,,,,,
,,,,,SPR24_062,20,F,2024-04-17_16h31.28.031,jersey_experiment_5_v0,2023.2.2,Win32,85.47008547,,,,,,,,,,,,,,,,388.1534,389.4472,389.4472,392.1886,return,0.6598,,0.390625,,,,,,FBP-OG-18.png,0.35,1.2,6,0.5,0,47,47,5,1,,,,,,,,,,,,,,,,,,,,,,,,,,,,,,,,,,,,,,,,
,,,,,SPR24_062,20,F,2024-04-17_16h31.28.031,jersey_experiment_5_v0,2023.2.2,Win32,85.47008547,,,,,,,,,,,,,,,,392.1888,393.4829,393.483,395.1652,return,0.5767,,25,,,,,,FBP-RB-91.png,0.35,1.2,41,0.5,0,48,48,40,1,,,,,,,,,,,,,,,,,,,,,,,,,,,,,,,,,,,,,,,,
,,,,,SPR24_062,20,F,2024-04-17_16h31.28.031,jersey_experiment_5_v0,2023.2.2,Win32,85.47008547,,,,,,,,,,,,,,,,395.1653,396.2121,396.2122,398.1065,return,0.5225,,50.13020833,,,,,,FBP-YG-71.png,0.37,1.2,17,0.25,0,49,49,16,1,,,,,,,,,,,,,,,,,,,,,,,,,,,,,,,,,,,,,,,,
,,,,,SPR24_062,20,F,2024-04-17_16h31.28.031,jersey_experiment_5_v0,2023.2.2,Win32,85.47008547,,,,,,,,,,,,,,,,398.1067,399.1534,399.1535,400.777,return,0.4654,,99.86979167,,,,,,FBP-PT-81.png,0.43,1.2,54,0.25,0,50,50,53,1,,,,,,,,,,,,,,,,,,,,,,,,,,,,,,,,,,,,,,,,
,,,,,SPR24_062,20,F,2024-04-17_16h31.28.031,jersey_experiment_5_v0,2023.2.2,Win32,85.47008547,,,,,,,,,,,,,,,,400.7772,402.0712,402.0712,403.2595,return,0.6489,,98.4375,,,,,,FBP-RB-71.png,0.4,1.2,33,0.5,0,51,51,32,1,,,,,,,,,,,,,,,,,,,,,,,,,,,,,,,,,,,,,,,,
,,,,,SPR24_062,20,F,2024-04-17_16h31.28.031,jersey_experiment_5_v0,2023.2.2,Win32,85.47008547,,,,,,,,,,,,,,,,403.2596,404.3066,404.3067,405.4244,return,0.4567,,99.08854167,,,,,,FBP-PT-81.png,0.37,1.2,52,0.25,0,52,52,51,1,,,,,,,,,,,,,,,,,,,,,,,,,,,,,,,,,,,,,,,,
,,,,,SPR24_062,20,F,2024-04-17_16h31.28.031,jersey_experiment_5_v0,2023.2.2,Win32,85.47008547,,,,,,,,,,,,,,,,405.4246,406.7184,406.7185,409.1656,return,2.0726,,75.390625,,,,,,FBP-RB-91.png,0.37,1.2,42,0.5,0,53,53,41,1,,,,,,,,,,,,,,,,,,,,,,,,,,,,,,,,,,,,,,,,
,,,,,SPR24_062,20,F,2024-04-17_16h31.28.031,jersey_experiment_5_v0,2023.2.2,Win32,85.47008547,,,,,,,,,,,,,,,,409.1658,410.4598,410.4598,411.7774,return,0.457,,98.828125,,,,,,FBP-RB-91.png,0.43,1.2,44,0.5,0,54,54,43,1,,,,,,,,,,,,,,,,,,,,,,,,,,,,,,,,,,,,,,,,
,,,,,SPR24_062,20,F,2024-04-17_16h31.28.031,jersey_experiment_5_v0,2023.2.2,Win32,85.47008547,,,,,,,,,,,,,,,,411.7776,413.0716,413.0717,413.8246,return,0.4338,,98.95833333,,,,,,FBP-OG-17.png,0.43,1.2,4,0.5,0,55,55,3,1,,,,,,,,,,,,,,,,,,,,,,,,,,,,,,,,,,,,,,,,
,,,,,SPR24_062,20,F,2024-04-17_16h31.28.031,jersey_experiment_5_v0,2023.2.2,Win32,85.47008547,,,,,,,,,,,,,,,,413.8248,414.8717,414.8718,416.9777,return,1.624,,75.52083333,,,,,,FBP-PT-91.png,0.4,1.2,58,0.25,0,56,56,57,1,,,,,,,,,,,,,,,,,,,,,,,,,,,,,,,,,,,,,,,,
,,,,,SPR24_062,20,F,2024-04-17_16h31.28.031,jersey_experiment_5_v0,2023.2.2,Win32,85.47008547,,,,,,,,,,,,,,,,416.9779,418.2717,418.2718,419.3543,return,0.4395,,99.21875,,,,,,FBP-RB-91.png,0.45,1.2,45,0.5,0,57,57,44,1,,,,,,,,,,,,,,,,,,,,,,,,,,,,,,,,,,,,,,,,
,,,,,SPR24_062,20,F,2024-04-17_16h31.28.031,jersey_experiment_5_v0,2023.2.2,Win32,85.47008547,,,,,,,,,,,,,,,,419.3546,420.4014,420.4014,421.2602,return,0.38,,99.34895833,,,,,,FBP-YG-91.png,0.45,1.2,30,0.25,0,58,58,29,1,,,,,,,,,,,,,,,,,,,,,,,,,,,,,,,,,,,,,,,,
,,,,,SPR24_062,20,F,2024-04-17_16h31.28.031,jersey_experiment_5_v0,2023.2.2,Win32,85.47008547,,,,,,,,,,,,,,,,421.2604,422.3071,422.3072,425.0017,return,1.3089,,49.86979167,,,,,,FBP-PT-91.png,0.37,1.2,57,0.25,0,59,59,56,1,,,,,,,,,,,,,,,,,,,,,,,,,,,,,,,,,,,,,,,,
,,,,,SPR24_062,20,F,2024-04-17_16h31.28.031,jersey_experiment_5_v0,2023.2.2,Win32,85.47008547,,,,,,,,,,,,,,,,,,,,,,,,,,,,,,,,,,,,,,,425.002,544.9946,,,,,,,,,,,,,,,,,,,,,,,,,,,,,,,,,,,,,,
,,,,,SPR24_062,20,F,2024-04-17_16h31.28.031,jersey_experiment_5_v0,2023.2.2,Win32,85.47008547,,,,,,,,,,,,,,,,,,,,,,,,,,,,,,,,,,,,,,,,,544.9947,551.4653,return,6.4651,,,,,,,,,,,,,,,,,,,,,,,,,,,,,,,,,,
,,,,,SPR24_062,20,F,2024-04-17_16h31.28.031,jersey_experiment_5_v0,2023.2.2,Win32,85.47008547,,,,,,,,,,,,,,,,551.4716,552.5239,552.524,555.0533,return,0.624,,24.609375,,,,,,FBP-OG-91.png,0.37,1.2,12,0.25,,,,,,,,,,,,,0,0,0,11,1,,,,,,,,,,,,,,,,,,,,,,,,,,,,
,,,,,SPR24_062,20,F,2024-04-17_16h31.28.031,jersey_experiment_5_v0,2023.2.2,Win32,85.47008547,,,,,,,,,,,,,,,,555.0538,556.1003,556.1004,558.2417,return,0.5413,,74.47916667,,,,,,FBP-OG-91.png,0.45,1.2,15,0.25,,,,,,,,,,,,,0,1,1,14,1,,,,,,,,,,,,,,,,,,,,,,,,,,,,
,,,,,SPR24_062,20,F,2024-04-17_16h31.28.031,jersey_experiment_5_v0,2023.2.2,Win32,85.47008547,,,,,,,,,,,,,,,,558.2419,559.2888,559.2888,560.6888,return,0.4602,,74.47916667,,,,,,FBP-OG-81.png,0.4,1.2,8,0.25,,,,,,,,,,,,,0,2,2,7,1,,,,,,,,,,,,,,,,,,,,,,,,,,,,
,,,,,SPR24_062,20,F,2024-04-17_16h31.28.031,jersey_experiment_5_v0,2023.2.2,Win32,85.47008547,,,,,,,,,,,,,,,,560.689,561.7359,561.7359,563.1948,return,0.452,,74.47916667,,,,,,FBP-RB-17.png,0.4,1.2,33,0.25,,,,,,,,,,,,,0,3,3,32,1,,,,,,,,,,,,,,,,,,,,,,,,,,,,
,,,,,SPR24_062,20,F,2024-04-17_16h31.28.031,jersey_experiment_5_v0,2023.2.2,Win32,85.47008547,,,,,,,,,,,,,,,,563.1951,564.2419,564.242,566.7008,return,0.591,,99.609375,,,,,,FBP-RB-17.png,0.45,1.2,35,0.25,,,,,,,,,,,,,0,4,4,34,1,,,,,,,,,,,,,,,,,,,,,,,,,,,,
,,,,,SPR24_062,20,F,2024-04-17_16h31.28.031,jersey_experiment_5_v0,2023.2.2,Win32,85.47008547,,,,,,,,,,,,,,,,566.7011,567.9949,567.995,569.9951,return,0.4984,,74.73958333,,,,,,FBP-YG-19.png,0.4,1.2,28,0.5,,,,,,,,,,,,,0,5,5,27,1,,,,,,,,,,,,,,,,,,,,,,,,,,,,
,,,,,SPR24_062,20,F,2024-04-17_16h31.28.031,jersey_experiment_5_v0,2023.2.2,Win32,85.47008547,,,,,,,,,,,,,,,,569.9953,571.2891,571.2891,573.4187,return,0.5343,,99.609375,,,,,,FBP-PT-19.png,0.45,1.2,60,0.5,,,,,,,,,,,,,0,6,6,59,1,,,,,,,,,,,,,,,,,,,,,,,,,,,,
,,,,,SPR24_062,20,F,2024-04-17_16h31.28.031,jersey_experiment_5_v0,2023.2.2,Win32,85.47008547,,,,,,,,,,,,,,,,573.419,574.4658,574.4658,576.0895,return,0.4533,,99.609375,,,,,,FBP-RB-18.png,0.45,1.2,40,0.25,,,,,,,,,,,,,0,7,7,39,1,,,,,,,,,,,,,,,,,,,,,,,,,,,,
,,,,,SPR24_062,20,F,2024-04-17_16h31.28.031,jersey_experiment_5_v0,2023.2.2,Win32,85.47008547,,,,,,,,,,,,,,,,576.0897,577.3835,577.3835,581.1132,return,2.3239,,75.26041667,,,,,,FBP-PT-19.png,0.4,1.2,58,0.5,,,,,,,,,,,,,0,8,8,57,1,,,,,,,,,,,,,,,,,,,,,,,,,,,,
,,,,,SPR24_062,20,F,2024-04-17_16h31.28.031,jersey_experiment_5_v0,2023.2.2,Win32,85.47008547,,,,,,,,,,,,,,,,581.1176,582.1601,582.1602,584.1722,return,0.627,,23.95833333,,,,,,FBP-RB-19.png,0.35,1.2,41,0.25,,,,,,,,,,,,,0,9,9,40,1,,,,,,,,,,,,,,,,,,,,,,,,,,,,
,,,,,SPR24_062,20,F,2024-04-17_16h31.28.031,jersey_experiment_5_v0,2023.2.2,Win32,85.47008547,,,,,,,,,,,,,,,,584.1726,585.4663,585.4663,587.2311,return,0.4604,,99.86979167,,,,,,FBP-YG-18.png,0.45,1.2,25,0.5,,,,,,,,,,,,,0,10,10,24,1,,,,,,,,,,,,,,,,,,,,,,,,,,,,
,,,,,SPR24_062,20,F,2024-04-17_16h31.28.031,jersey_experiment_5_v0,2023.2.2,Win32,85.47008547,,,,,,,,,,,,,,,,587.2312,588.5252,588.5252,590.3959,return,0.5314,,24.73958333,,,,,,FBP-PT-19.png,0.35,1.2,56,0.5,,,,,,,,,,,,,0,11,11,55,1,,,,,,,,,,,,,,,,,,,,,,,,,,,,
,,,,,SPR24_062,20,F,2024-04-17_16h31.28.031,jersey_experiment_5_v0,2023.2.2,Win32,85.47008547,,,,,,,,,,,,,,,,590.3961,591.4429,591.4429,594.0431,return,1.5202,,0,,,,,,FBP-OG-91.png,0.35,1.2,11,0.25,,,,,,,,,,,,,0,12,12,10,1,,,,,,,,,,,,,,,,,,,,,,,,,,,,
,,,,,SPR24_062,20,F,2024-04-17_16h31.28.031,jersey_experiment_5_v0,2023.2.2,Win32,85.47008547,,,,,,,,,,,,,,,,594.0434,595.0902,595.0902,597.2903,return,0.5231,,74.34895833,,,,,,FBP-RB-17.png,0.43,1.2,34,0.25,,,,,,,,,,,,,0,13,13,33,1,,,,,,,,,,,,,,,,,,,,,,,,,,,,
,,,,,SPR24_062,20,F,2024-04-17_16h31.28.031,jersey_experiment_5_v0,2023.2.2,Win32,85.47008547,,,,,,,,,,,,,,,,597.2905,598.5842,598.5843,600.349,return,0.5303,,24.47916667,,,,,,FBP-YG-18.png,0.37,1.2,22,0.5,,,,,,,,,,,,,0,14,14,21,1,,,,,,,,,,,,,,,,,,,,,,,,,,,,
,,,,,SPR24_062,20,F,2024-04-17_16h31.28.031,jersey_experiment_5_v0,2023.2.2,Win32,85.47008547,,,,,,,,,,,,,,,,600.3493,601.3963,601.3963,603.4316,return,0.4787,,74.21875,,,,,,FBP-OG-91.png,0.43,1.2,14,0.25,,,,,,,,,,,,,0,15,15,13,1,,,,,,,,,,,,,,,,,,,,,,,,,,,,
,,,,,SPR24_062,20,F,2024-04-17_16h31.28.031,jersey_experiment_5_v0,2023.2.2,Win32,85.47008547,,,,,,,,,,,,,,,,603.4319,604.4786,604.4786,606.3493,return,0.4836,,24.73958333,,,,,,FBP-RB-17.png,0.35,1.2,31,0.25,,,,,,,,,,,,,0,16,16,30,1,,,,,,,,,,,,,,,,,,,,,,,,,,,,
,,,,,SPR24_062,20,F,2024-04-17_16h31.28.031,jersey_experiment_5_v0,2023.2.2,Win32,85.47008547,,,,,,,,,,,,,,,,606.3496,607.6435,607.6435,608.9141,return,0.6689,,24.73958333,,,,,,FBP-YG-18.png,0.35,1.2,21,0.5,,,,,,,,,,,,,0,17,17,20,1,,,,,,,,,,,,,,,,,,,,,,,,,,,,
,,,,,SPR24_062,20,F,2024-04-17_16h31.28.031,jersey_experiment_5_v0,2023.2.2,Win32,85.47008547,,,,,,,,,,,,,,,,608.9144,610.2083,610.2083,612.2672,return,0.4971,,50,,,,,,FBP-PT-18.png,0.37,1.2,52,0.5,,,,,,,,,,,,,0,18,18,51,1,,,,,,,,,,,,,,,,,,,,,,,,,,,,
,,,,,SPR24_062,20,F,2024-04-17_16h31.28.031,jersey_experiment_5_v0,2023.2.2,Win32,85.47008547,,,,,,,,,,,,,,,,612.2675,613.3142,613.3142,615.079,return,0.4649,,74.609375,,,,,,FBP-RB-19.png,0.37,1.2,42,0.25,,,,,,,,,,,,,0,19,19,41,1,,,,,,,,,,,,,,,,,,,,,,,,,,,,
,,,,,SPR24_062,20,F,2024-04-17_16h31.28.031,jersey_experiment_5_v0,2023.2.2,Win32,85.47008547,,,,,,,,,,,,,,,,615.0792,616.3731,616.3732,618.0557,return,0.5605,,98.69791667,,,,,,FBP-PT-19.png,0.43,1.2,59,0.5,,,,,,,,,,,,,0,20,20,58,1,,,,,,,,,,,,,,,,,,,,,,,,,,,,
,,,,,SPR24_062,20,F,2024-04-17_16h31.28.031,jersey_experiment_5_v0,2023.2.2,Win32,85.47008547,,,,,,,,,,,,,,,,618.0559,619.3498,619.3499,621.0557,return,0.5647,,75,,,,,,FBP-YG-19.png,0.37,1.2,27,0.5,,,,,,,,,,,,,0,21,21,26,1,,,,,,,,,,,,,,,,,,,,,,,,,,,,
,,,,,SPR24_062,20,F,2024-04-17_16h31.28.031,jersey_experiment_5_v0,2023.2.2,Win32,85.47008547,,,,,,,,,,,,,,,,621.0559,622.3499,622.35,623.5382,return,0.5166,,75.78125,,,,,,FBP-PT-19.png,0.37,1.2,57,0.5,,,,,,,,,,,,,0,22,22,56,1,,,,,,,,,,,,,,,,,,,,,,,,,,,,
,,,,,SPR24_062,20,F,2024-04-17_16h31.28.031,jersey_experiment_5_v0,2023.2.2,Win32,85.47008547,,,,,,,,,,,,,,,,623.5384,624.8324,624.8324,626.256,return,0.4342,,99.47916667,,,,,,FBP-YG-19.png,0.43,1.2,29,0.5,,,,,,,,,,,,,0,23,23,28,1,,,,,,,,,,,,,,,,,,,,,,,,,,,,
,,,,,SPR24_062,20,F,2024-04-17_16h31.28.031,jersey_experiment_5_v0,2023.2.2,Win32,85.47008547,,,,,,,,,,,,,,,,626.2562,627.55,627.5501,629.2561,return,0.4526,,25.52083333,,,,,,FBP-PT-17.png,0.35,1.2,46,0.5,,,,,,,,,,,,,0,24,24,45,1,,,,,,,,,,,,,,,,,,,,,,,,,,,,
,,,,,SPR24_062,20,F,2024-04-17_16h31.28.031,jersey_experiment_5_v0,2023.2.2,Win32,85.47008547,,,,,,,,,,,,,,,,629.2563,630.3031,630.3032,632.3033,return,1.3887,,98.56770833,,,,,,FBP-RB-18.png,0.43,1.2,39,0.25,,,,,,,,,,,,,0,25,25,38,1,,,,,,,,,,,,,,,,,,,,,,,,,,,,
,,,,,SPR24_062,20,F,2024-04-17_16h31.28.031,jersey_experiment_5_v0,2023.2.2,Win32,85.47008547,,,,,,,,,,,,,,,,632.3035,633.3504,633.3505,635.1976,return,0.4488,,24.86979167,,,,,,FBP-OG-81.png,0.37,1.2,7,0.25,,,,,,,,,,,,,0,26,26,6,1,,,,,,,,,,,,,,,,,,,,,,,,,,,,
,,,,,SPR24_062,20,F,2024-04-17_16h31.28.031,jersey_experiment_5_v0,2023.2.2,Win32,85.47008547,,,,,,,,,,,,,,,,635.1977,636.2445,636.2446,638.1388,return,0.4382,,74.21875,,,,,,FBP-RB-18.png,0.37,1.2,37,0.25,,,,,,,,,,,,,0,27,27,36,1,,,,,,,,,,,,,,,,,,,,,,,,,,,,
,,,,,SPR24_062,20,F,2024-04-17_16h31.28.031,jersey_experiment_5_v0,2023.2.2,Win32,85.47008547,,,,,,,,,,,,,,,,638.139,639.1859,639.1859,640.3624,return,0.4263,,74.34895833,,,,,,FBP-RB-18.png,0.4,1.2,38,0.25,,,,,,,,,,,,,0,28,28,37,1,,,,,,,,,,,,,,,,,,,,,,,,,,,,
,,,,,SPR24_062,20,F,2024-04-17_16h31.28.031,jersey_experiment_5_v0,2023.2.2,Win32,85.47008547,,,,,,,,,,,,,,,,640.3627,641.6566,641.6566,643.2921,return,0.4609,,99.21875,,,,,,FBP-PT-17.png,0.43,1.2,49,0.5,,,,,,,,,,,,,0,29,29,48,1,,,,,,,,,,,,,,,,,,,,,,,,,,,,
,,,,,SPR24_062,20,F,2024-04-17_16h31.28.031,jersey_experiment_5_v0,2023.2.2,Win32,85.47008547,,,,,,,,,,,,,,,,643.2922,644.586,644.5861,645.8215,return,0.3908,,99.34895833,,,,,,FBP-YG-18.png,0.43,1.2,24,0.5,,,,,,,,,,,,,0,30,30,23,1,,,,,,,,,,,,,,,,,,,,,,,,,,,,
,,,,,SPR24_062,20,F,2024-04-17_16h31.28.031,jersey_experiment_5_v0,2023.2.2,Win32,85.47008547,,,,,,,,,,,,,,,,645.8218,647.1156,647.1157,648.1861,return,0.4148,,99.34895833,,,,,,FBP-PT-18.png,0.45,1.2,55,0.5,,,,,,,,,,,,,0,31,31,54,1,,,,,,,,,,,,,,,,,,,,,,,,,,,,
,,,,,SPR24_062,20,F,2024-04-17_16h31.28.031,jersey_experiment_5_v0,2023.2.2,Win32,85.47008547,,,,,,,,,,,,,,,,648.1864,649.4804,649.4804,651.8218,return,0.5081,,75.52083333,,,,,,FBP-PT-17.png,0.4,1.2,48,0.5,,,,,,,,,,,,,0,32,32,47,1,,,,,,,,,,,,,,,,,,,,,,,,,,,,
,,,,,SPR24_062,20,F,2024-04-17_16h31.28.031,jersey_experiment_5_v0,2023.2.2,Win32,85.47008547,,,,,,,,,,,,,,,,651.8219,653.1158,653.1159,654.6807,return,0.6658,,25.26041667,,,,,,FBP-PT-18.png,0.35,1.2,51,0.5,,,,,,,,,,,,,0,33,33,50,1,,,,,,,,,,,,,,,,,,,,,,,,,,,,
,,,,,SPR24_062,20,F,2024-04-17_16h31.28.031,jersey_experiment_5_v0,2023.2.2,Win32,85.47008547,,,,,,,,,,,,,,,,654.6809,655.7277,655.7277,657.3865,return,0.4285,,50.13020833,,,,,,FBP-OG-71.png,0.37,1.2,2,0.25,,,,,,,,,,,,,0,34,34,1,1,,,,,,,,,,,,,,,,,,,,,,,,,,,,
,,,,,SPR24_062,20,F,2024-04-17_16h31.28.031,jersey_experiment_5_v0,2023.2.2,Win32,85.47008547,,,,,,,,,,,,,,,,657.3868,658.6807,658.6808,660.7748,return,1.2886,,99.609375,,,,,,FBP-YG-19.png,0.45,1.2,30,0.5,,,,,,,,,,,,,0,35,35,29,1,,,,,,,,,,,,,,,,,,,,,,,,,,,,
,,,,,SPR24_062,20,F,2024-04-17_16h31.28.031,jersey_experiment_5_v0,2023.2.2,Win32,85.47008547,,,,,,,,,,,,,,,,660.775,661.822,661.822,662.9866,return,0.4281,,99.609375,,,,,,FBP-OG-71.png,0.43,1.2,4,0.25,,,,,,,,,,,,,0,36,36,3,1,,,,,,,,,,,,,,,,,,,,,,,,,,,,
,,,,,SPR24_062,20,F,2024-04-17_16h31.28.031,jersey_experiment_5_v0,2023.2.2,Win32,85.47008547,,,,,,,,,,,,,,,,662.9868,664.2808,664.2809,666.4105,return,0.9208,,99.609375,,,,,,FBP-PT-17.png,0.45,1.2,50,0.5,,,,,,,,,,,,,0,37,37,49,1,,,,,,,,,,,,,,,,,,,,,,,,,,,,
,,,,,SPR24_062,20,F,2024-04-17_16h31.28.031,jersey_experiment_5_v0,2023.2.2,Win32,85.47008547,,,,,,,,,,,,,,,,666.4108,667.7044,667.7044,669.3987,return,0.4677,,24.609375,,,,,,FBP-YG-19.png,0.35,1.2,26,0.5,,,,,,,,,,,,,0,38,38,25,1,,,,,,,,,,,,,,,,,,,,,,,,,,,,
,,,,,SPR24_062,20,F,2024-04-17_16h31.28.031,jersey_experiment_5_v0,2023.2.2,Win32,85.47008547,,,,,,,,,,,,,,,,669.3989,670.4458,670.4459,671.5754,return,0.4186,,24.609375,,,,,,FBP-OG-81.png,0.35,1.2,6,0.25,,,,,,,,,,,,,0,39,39,5,1,,,,,,,,,,,,,,,,,,,,,,,,,,,,
,,,,,SPR24_062,20,F,2024-04-17_16h31.28.031,jersey_experiment_5_v0,2023.2.2,Win32,85.47008547,,,,,,,,,,,,,,,,671.5756,672.8694,672.8694,676.3518,return,2.4568,,24.609375,,,,,,FBP-YG-17.png,0.37,1.2,17,0.5,,,,,,,,,,,,,0,40,40,16,1,,,,,,,,,,,,,,,,,,,,,,,,,,,,
,,,,,SPR24_062,20,F,2024-04-17_16h31.28.031,jersey_experiment_5_v0,2023.2.2,Win32,85.47008547,,,,,,,,,,,,,,,,676.3521,677.399,677.399,680.505,return,2.23,,0.390625,,,,,,FBP-RB-18.png,0.35,1.2,36,0.25,,,,,,,,,,,,,0,41,41,35,1,,,,,,,,,,,,,,,,,,,,,,,,,,,,
,,,,,SPR24_062,20,F,2024-04-17_16h31.28.031,jersey_experiment_5_v0,2023.2.2,Win32,85.47008547,,,,,,,,,,,,,,,,680.5053,681.7992,681.7993,683.4698,return,0.5548,,74.73958333,,,,,,FBP-YG-18.png,0.4,1.2,23,0.5,,,,,,,,,,,,,0,42,42,22,1,,,,,,,,,,,,,,,,,,,,,,,,,,,,
,,,,,SPR24_062,20,F,2024-04-17_16h31.28.031,jersey_experiment_5_v0,2023.2.2,Win32,85.47008547,,,,,,,,,,,,,,,,683.4701,684.5169,684.5169,686.7758,return,0.525,,99.47916667,,,,,,FBP-RB-19.png,0.43,1.2,44,0.25,,,,,,,,,,,,,0,43,43,43,1,,,,,,,,,,,,,,,,,,,,,,,,,,,,
,,,,,SPR24_062,20,F,2024-04-17_16h31.28.031,jersey_experiment_5_v0,2023.2.2,Win32,85.47008547,,,,,,,,,,,,,,,,686.776,687.8229,687.823,689.729,return,0.4937,,25.78125,,,,,,FBP-RB-17.png,0.37,1.2,32,0.25,,,,,,,,,,,,,0,44,44,31,1,,,,,,,,,,,,,,,,,,,,,,,,,,,,
,,,,,SPR24_062,20,F,2024-04-17_16h31.28.031,jersey_experiment_5_v0,2023.2.2,Win32,85.47008547,,,,,,,,,,,,,,,,689.7293,691.023,691.023,692.8938,return,0.481,,24.47916667,,,,,,FBP-YG-17.png,0.35,1.2,16,0.5,,,,,,,,,,,,,0,45,45,15,1,,,,,,,,,,,,,,,,,,,,,,,,,,,,
,,,,,SPR24_062,20,F,2024-04-17_16h31.28.031,jersey_experiment_5_v0,2023.2.2,Win32,85.47008547,,,,,,,,,,,,,,,,692.894,693.9407,693.9407,695.623,return,0.4179,,74.47916667,,,,,,FBP-RB-19.png,0.4,1.2,43,0.25,,,,,,,,,,,,,0,46,46,42,1,,,,,,,,,,,,,,,,,,,,,,,,,,,,
,,,,,SPR24_062,20,F,2024-04-17_16h31.28.031,jersey_experiment_5_v0,2023.2.2,Win32,85.47008547,,,,,,,,,,,,,,,,695.6233,696.9174,696.9174,699.5057,return,1.1625,,98.30729167,,,,,,FBP-YG-17.png,0.43,1.2,19,0.5,,,,,,,,,,,,,0,47,47,18,1,,,,,,,,,,,,,,,,,,,,,,,,,,,,
,,,,,SPR24_062,20,F,2024-04-17_16h31.28.031,jersey_experiment_5_v0,2023.2.2,Win32,85.47008547,,,,,,,,,,,,,,,,699.5059,700.7998,700.7998,702.447,return,0.4577,,74.73958333,,,,,,FBP-PT-18.png,0.4,1.2,53,0.5,,,,,,,,,,,,,0,48,48,52,1,,,,,,,,,,,,,,,,,,,,,,,,,,,,
,,,,,SPR24_062,20,F,2024-04-17_16h31.28.031,jersey_experiment_5_v0,2023.2.2,Win32,85.47008547,,,,,,,,,,,,,,,,702.4473,703.7412,703.7412,704.7765,return,0.4069,,74.73958333,,,,,,FBP-YG-17.png,0.4,1.2,18,0.5,,,,,,,,,,,,,0,49,49,17,1,,,,,,,,,,,,,,,,,,,,,,,,,,,,
,,,,,SPR24_062,20,F,2024-04-17_16h31.28.031,jersey_experiment_5_v0,2023.2.2,Win32,85.47008547,,,,,,,,,,,,,,,,704.7768,705.8236,705.8236,707.4473,return,0.4434,,75.65104167,,,,,,FBP-OG-91.png,0.4,1.2,13,0.25,,,,,,,,,,,,,0,50,50,12,1,,,,,,,,,,,,,,,,,,,,,,,,,,,,
,,,,,SPR24_062,20,F,2024-04-17_16h31.28.031,jersey_experiment_5_v0,2023.2.2,Win32,85.47008547,,,,,,,,,,,,,,,,707.4475,708.4942,708.4943,710.2473,return,0.4669,,99.73958333,,,,,,FBP-OG-71.png,0.45,1.2,5,0.25,,,,,,,,,,,,,0,51,51,4,1,,,,,,,,,,,,,,,,,,,,,,,,,,,,
,,,,,SPR24_062,20,F,2024-04-17_16h31.28.031,jersey_experiment_5_v0,2023.2.2,Win32,85.47008547,,,,,,,,,,,,,,,,710.2475,711.2943,711.2943,712.4472,return,0.3297,,99.73958333,,,,,,FBP-OG-81.png,0.43,1.2,9,0.25,,,,,,,,,,,,,0,52,52,8,1,,,,,,,,,,,,,,,,,,,,,,,,,,,,
,,,,,SPR24_062,20,F,2024-04-17_16h31.28.031,jersey_experiment_5_v0,2023.2.2,Win32,85.47008547,,,,,,,,,,,,,,,,712.4475,713.4944,713.4945,715.7535,return,0.6299,,24.21875,,,,,,FBP-OG-71.png,0.35,1.2,1,0.25,,,,,,,,,,,,,0,53,53,0,1,,,,,,,,,,,,,,,,,,,,,,,,,,,,
,,,,,SPR24_062,20,F,2024-04-17_16h31.28.031,jersey_experiment_5_v0,2023.2.2,Win32,85.47008547,,,,,,,,,,,,,,,,715.7537,716.8004,716.8005,718.7299,return,0.4632,,99.34895833,,,,,,FBP-OG-81.png,0.45,1.2,10,0.25,,,,,,,,,,,,,0,54,54,9,1,,,,,,,,,,,,,,,,,,,,,,,,,,,,
,,,,,SPR24_062,20,F,2024-04-17_16h31.28.031,jersey_experiment_5_v0,2023.2.2,Win32,85.47008547,,,,,,,,,,,,,,,,718.7302,720.024,720.024,721.1654,return,0.353,,99.34895833,,,,,,FBP-PT-18.png,0.43,1.2,54,0.5,,,,,,,,,,,,,0,55,55,53,1,,,,,,,,,,,,,,,,,,,,,,,,,,,,
,,,,,SPR24_062,20,F,2024-04-17_16h31.28.031,jersey_experiment_5_v0,2023.2.2,Win32,85.47008547,,,,,,,,,,,,,,,,721.1656,722.4595,722.4596,723.4243,return,0.3665,,99.34895833,,,,,,FBP-YG-17.png,0.45,1.2,20,0.5,,,,,,,,,,,,,0,56,56,19,1,,,,,,,,,,,,,,,,,,,,,,,,,,,,
,,,,,SPR24_062,20,F,2024-04-17_16h31.28.031,jersey_experiment_5_v0,2023.2.2,Win32,85.47008547,,,,,,,,,,,,,,,,723.4246,724.4712,724.4713,727.4362,return,0.7425,,49.609375,,,,,,FBP-OG-71.png,0.4,1.2,3,0.25,,,,,,,,,,,,,0,57,57,2,1,,,,,,,,,,,,,,,,,,,,,,,,,,,,
,,,,,SPR24_062,20,F,2024-04-17_16h31.28.031,jersey_experiment_5_v0,2023.2.2,Win32,85.47008547,,,,,,,,,,,,,,,,727.4364,728.4831,728.4831,730.1069,return,0.4265,,98.69791667,,,,,,FBP-RB-19.png,0.45,1.2,45,0.25,,,,,,,,,,,,,0,58,58,44,1,,,,,,,,,,,,,,,,,,,,,,,,,,,,
,,,,,SPR24_062,20,F,2024-04-17_16h31.28.031,jersey_experiment_5_v0,2023.2.2,Win32,85.47008547,,,,,,,,,,,,,,,,730.1071,731.4009,731.401,734.0951,return,1.5867,,25.13020833,,,,,,FBP-PT-17.png,0.37,1.2,47,0.5,,,,,,,,,,,,,0,59,59,46,1,,,,,,,,,,,,,,,,,,,,,,,,,,,,
,,,,,SPR24_062,20,F,2024-04-17_16h31.28.031,jersey_experiment_5_v0,2023.2.2,Win32,85.47008547,,,,,,,,,,,,,,,,734.0967,735.1421,735.1422,737.5307,return,0.452,,75.26041667,,,,,,FBP-OG-17.png,0.4,1.2,3,0.25,,,,,,,,,,,,,,,,,,0,0,0,2,1,,,,,,,,,,,,,,,,,,,,,,,
,,,,,SPR24_062,20,F,2024-04-17_16h31.28.031,jersey_experiment_5_v0,2023.2.2,Win32,85.47008547,,,,,,,,,,,,,,,,737.5312,738.8248,738.8248,740.5072,return,0.4731,,99.609375,,,,,,FBP-PT-91.png,0.43,1.2,59,0.5,,,,,,,,,,,,,,,,,,0,1,1,58,1,,,,,,,,,,,,,,,,,,,,,,,
,,,,,SPR24_062,20,F,2024-04-17_16h31.28.031,jersey_experiment_5_v0,2023.2.2,Win32,85.47008547,,,,,,,,,,,,,,,,740.5076,741.5542,741.5543,743.6014,return,0.8811,,24.609375,,,,,,FBP-RB-91.png,0.37,1.2,42,0.25,,,,,,,,,,,,,,,,,,0,2,2,41,1,,,,,,,,,,,,,,,,,,,,,,,
,,,,,SPR24_062,20,F,2024-04-17_16h31.28.031,jersey_experiment_5_v0,2023.2.2,Win32,85.47008547,,,,,,,,,,,,,,,,743.6017,744.6486,744.6486,746.1191,return,0.3943,,99.47916667,,,,,,FBP-RB-91.png,0.45,1.2,45,0.25,,,,,,,,,,,,,,,,,,0,3,3,44,1,,,,,,,,,,,,,,,,,,,,,,,
,,,,,SPR24_062,20,F,2024-04-17_16h31.28.031,jersey_experiment_5_v0,2023.2.2,Win32,85.47008547,,,,,,,,,,,,,,,,746.1194,747.1663,747.1663,748.5545,return,0.3088,,74.73958333,,,,,,FBP-RB-71.png,0.4,1.2,33,0.25,,,,,,,,,,,,,,,,,,0,4,4,32,1,,,,,,,,,,,,,,,,,,,,,,,
,,,,,SPR24_062,20,F,2024-04-17_16h31.28.031,jersey_experiment_5_v0,2023.2.2,Win32,85.47008547,,,,,,,,,,,,,,,,748.5548,749.6016,749.6017,751.0958,return,0.3957,,25.390625,,,,,,FBP-OG-19.png,0.37,1.2,12,0.25,,,,,,,,,,,,,,,,,,0,5,5,11,1,,,,,,,,,,,,,,,,,,,,,,,
,,,,,SPR24_062,20,F,2024-04-17_16h31.28.031,jersey_experiment_5_v0,2023.2.2,Win32,85.47008547,,,,,,,,,,,,,,,,751.0959,752.1429,752.1429,754.0959,return,0.6114,,73.69791667,,,,,,FBP-OG-18.png,0.43,1.2,9,0.25,,,,,,,,,,,,,,,,,,0,6,6,8,1,,,,,,,,,,,,,,,,,,,,,,,
,,,,,SPR24_062,20,F,2024-04-17_16h31.28.031,jersey_experiment_5_v0,2023.2.2,Win32,85.47008547,,,,,,,,,,,,,,,,754.0962,755.3901,755.3901,756.8255,return,0.3691,,49.86979167,,,,,,FBP-YG-71.png,0.4,1.2,18,0.5,,,,,,,,,,,,,,,,,,0,7,7,17,1,,,,,,,,,,,,,,,,,,,,,,,
,,,,,SPR24_062,20,F,2024-04-17_16h31.28.031,jersey_experiment_5_v0,2023.2.2,Win32,85.47008547,,,,,,,,,,,,,,,,756.8257,758.1196,758.1196,759.1314,return,0.3568,,50.390625,,,,,,FBP-YG-81.png,0.4,1.2,23,0.5,,,,,,,,,,,,,,,,,,0,8,8,22,1,,,,,,,,,,,,,,,,,,,,,,,
,,,,,SPR24_062,20,F,2024-04-17_16h31.28.031,jersey_experiment_5_v0,2023.2.2,Win32,85.47008547,,,,,,,,,,,,,,,,759.1316,760.1786,760.1786,761.4963,return,0.3249,,50,,,,,,FBP-RB-81.png,0.37,1.2,37,0.25,,,,,,,,,,,,,,,,,,0,9,9,36,1,,,,,,,,,,,,,,,,,,,,,,,
,,,,,SPR24_062,20,F,2024-04-17_16h31.28.031,jersey_experiment_5_v0,2023.2.2,Win32,85.47008547,,,,,,,,,,,,,,,,761.4966,762.5431,762.5431,763.9316,return,0.357,,99.08854167,,,,,,FBP-OG-17.png,0.43,1.2,4,0.25,,,,,,,,,,,,,,,,,,0,10,10,3,1,,,,,,,,,,,,,,,,,,,,,,,
,,,,,SPR24_062,20,F,2024-04-17_16h31.28.031,jersey_experiment_5_v0,2023.2.2,Win32,85.47008547,,,,,,,,,,,,,,,,763.9318,764.9787,764.9787,767.32,return,0.3472,,49.08854167,,,,,,FBP-OG-18.png,0.35,1.2,6,0.25,,,,,,,,,,,,,,,,,,0,11,11,5,1,,,,,,,,,,,,,,,,,,,,,,,
,,,,,SPR24_062,20,F,2024-04-17_16h31.28.031,jersey_experiment_5_v0,2023.2.2,Win32,85.47008547,,,,,,,,,,,,,,,,767.3202,768.614,768.614,769.8731,return,0.3536,,25.91145833,,,,,,FBP-PT-71.png,0.35,1.2,46,0.5,,,,,,,,,,,,,,,,,,0,12,12,45,1,,,,,,,,,,,,,,,,,,,,,,,
,,,,,SPR24_062,20,F,2024-04-17_16h31.28.031,jersey_experiment_5_v0,2023.2.2,Win32,85.47008547,,,,,,,,,,,,,,,,769.8733,770.9201,770.9201,772.7789,return,0.3813,,50.26041667,,,,,,FBP-OG-18.png,0.4,1.2,8,0.25,,,,,,,,,,,,,,,,,,0,13,13,7,1,,,,,,,,,,,,,,,,,,,,,,,
,,,,,SPR24_062,20,F,2024-04-17_16h31.28.031,jersey_experiment_5_v0,2023.2.2,Win32,85.47008547,,,,,,,,,,,,,,,,772.7791,774.0731,774.0732,775.4027,return,0.3932,,99.609375,,,,,,FBP-YG-81.png,0.45,1.2,25,0.5,,,,,,,,,,,,,,,,,,0,14,14,24,1,,,,,,,,,,,,,,,,,,,,,,,
,,,,,SPR24_062,20,F,2024-04-17_16h31.28.031,jersey_experiment_5_v0,2023.2.2,Win32,85.47008547,,,,,,,,,,,,,,,,775.4029,776.4496,776.4496,778.0498,return,0.3527,,99.47916667,,,,,,FBP-RB-71.png,0.43,1.2,34,0.25,,,,,,,,,,,,,,,,,,0,15,15,33,1,,,,,,,,,,,,,,,,,,,,,,,
,,,,,SPR24_062,20,F,2024-04-17_16h31.28.031,jersey_experiment_5_v0,2023.2.2,Win32,85.47008547,,,,,,,,,,,,,,,,778.0501,779.3439,779.3439,780.2144,return,0.3476,,99.34895833,,,,,,FBP-YG-71.png,0.45,1.2,20,0.5,,,,,,,,,,,,,,,,,,0,16,16,19,1,,,,,,,,,,,,,,,,,,,,,,,
,,,,,SPR24_062,20,F,2024-04-17_16h31.28.031,jersey_experiment_5_v0,2023.2.2,Win32,85.47008547,,,,,,,,,,,,,,,,780.2146,781.5087,781.5088,782.4734,return,0.3358,,99.21875,,,,,,FBP-YG-71.png,0.43,1.2,19,0.5,,,,,,,,,,,,,,,,,,0,17,17,18,1,,,,,,,,,,,,,,,,,,,,,,,
,,,,,SPR24_062,20,F,2024-04-17_16h31.28.031,jersey_experiment_5_v0,2023.2.2,Win32,85.47008547,,,,,,,,,,,,,,,,782.4736,783.7675,783.7675,786.1912,return,0.3395,,75,,,,,,FBP-PT-71.png,0.43,1.2,49,0.5,,,,,,,,,,,,,,,,,,0,18,18,48,1,,,,,,,,,,,,,,,,,,,,,,,
,,,,,SPR24_062,20,F,2024-04-17_16h31.28.031,jersey_experiment_5_v0,2023.2.2,Win32,85.47008547,,,,,,,,,,,,,,,,786.1914,787.2384,787.2384,789.0384,return,0.3777,,99.08854167,,,,,,FBP-OG-17.png,0.45,1.2,5,0.25,,,,,,,,,,,,,,,,,,0,19,19,4,1,,,,,,,,,,,,,,,,,,,,,,,
,,,,,SPR24_062,20,F,2024-04-17_16h31.28.031,jersey_experiment_5_v0,2023.2.2,Win32,85.47008547,,,,,,,,,,,,,,,,789.0386,790.0856,790.0856,791.1326,return,0.3656,,99.08854167,,,,,,FBP-RB-81.png,0.43,1.2,39,0.25,,,,,,,,,,,,,,,,,,0,20,20,38,1,,,,,,,,,,,,,,,,,,,,,,,
,,,,,SPR24_062,20,F,2024-04-17_16h31.28.031,jersey_experiment_5_v0,2023.2.2,Win32,85.47008547,,,,,,,,,,,,,,,,791.1329,792.1797,792.1797,793.6268,return,0.3343,,74.73958333,,,,,,FBP-RB-91.png,0.4,1.2,43,0.25,,,,,,,,,,,,,,,,,,0,21,21,42,1,,,,,,,,,,,,,,,,,,,,,,,
,,,,,SPR24_062,20,F,2024-04-17_16h31.28.031,jersey_experiment_5_v0,2023.2.2,Win32,85.47008547,,,,,,,,,,,,,,,,793.627,794.6741,794.6741,796.6741,return,0.3426,,49.609375,,,,,,FBP-OG-17.png,0.37,1.2,2,0.25,,,,,,,,,,,,,,,,,,0,22,22,1,1,,,,,,,,,,,,,,,,,,,,,,,
,,,,,SPR24_062,20,F,2024-04-17_16h31.28.031,jersey_experiment_5_v0,2023.2.2,Win32,85.47008547,,,,,,,,,,,,,,,,796.6744,797.9682,797.9682,799.0741,return,0.3439,,24.609375,,,,,,FBP-PT-81.png,0.35,1.2,51,0.5,,,,,,,,,,,,,,,,,,0,23,23,50,1,,,,,,,,,,,,,,,,,,,,,,,
,,,,,SPR24_062,20,F,2024-04-17_16h31.28.031,jersey_experiment_5_v0,2023.2.2,Win32,85.47008547,,,,,,,,,,,,,,,,799.0743,800.3683,800.3684,801.7213,return,0.3594,,50.13020833,,,,,,FBP-PT-81.png,0.4,1.2,53,0.5,,,,,,,,,,,,,,,,,,0,24,24,52,1,,,,,,,,,,,,,,,,,,,,,,,
,,,,,SPR24_062,20,F,2024-04-17_16h31.28.031,jersey_experiment_5_v0,2023.2.2,Win32,85.47008547,,,,,,,,,,,,,,,,801.7216,803.0153,803.0154,804.1449,return,0.3165,,25.390625,,,,,,FBP-YG-81.png,0.35,1.2,21,0.5,,,,,,,,,,,,,,,,,,0,25,25,20,1,,,,,,,,,,,,,,,,,,,,,,,
,,,,,SPR24_062,20,F,2024-04-17_16h31.28.031,jersey_experiment_5_v0,2023.2.2,Win32,85.47008547,,,,,,,,,,,,,,,,804.1451,805.1918,805.1918,806.2038,return,0.298,,25.52083333,,,,,,FBP-RB-91.png,0.35,1.2,41,0.25,,,,,,,,,,,,,,,,,,0,26,26,40,1,,,,,,,,,,,,,,,,,,,,,,,
,,,,,SPR24_062,20,F,2024-04-17_16h31.28.031,jersey_experiment_5_v0,2023.2.2,Win32,85.47008547,,,,,,,,,,,,,,,,806.2041,807.4979,807.498,808.651,return,0.2752,,25.390625,,,,,,FBP-YG-71.png,0.37,1.2,17,0.5,,,,,,,,,,,,,,,,,,0,27,27,16,1,,,,,,,,,,,,,,,,,,,,,,,
,,,,,SPR24_062,20,F,2024-04-17_16h31.28.031,jersey_experiment_5_v0,2023.2.2,Win32,85.47008547,,,,,,,,,,,,,,,,808.6512,809.6979,809.698,811.8863,return,1.0364,,24.73958333,,,,,,FBP-RB-81.png,0.35,1.2,36,0.25,,,,,,,,,,,,,,,,,,0,28,28,35,1,,,,,,,,,,,,,,,,,,,,,,,
,,,,,SPR24_062,20,F,2024-04-17_16h31.28.031,jersey_experiment_5_v0,2023.2.2,Win32,85.47008547,,,,,,,,,,,,,,,,811.8864,812.9337,812.9337,814.9217,return,0.406,,73.69791667,,,,,,FBP-RB-71.png,0.37,1.2,32,0.25,,,,,,,,,,,,,,,,,,0,29,29,31,1,,,,,,,,,,,,,,,,,,,,,,,
,,,,,SPR24_062,20,F,2024-04-17_16h31.28.031,jersey_experiment_5_v0,2023.2.2,Win32,85.47008547,,,,,,,,,,,,,,,,814.9219,815.9688,815.9689,816.9219,return,0.335,,73.56770833,,,,,,FBP-OG-19.png,0.4,1.2,13,0.25,,,,,,,,,,,,,,,,,,0,30,30,12,1,,,,,,,,,,,,,,,,,,,,,,,
,,,,,SPR24_062,20,F,2024-04-17_16h31.28.031,jersey_experiment_5_v0,2023.2.2,Win32,85.47008547,,,,,,,,,,,,,,,,816.9221,818.2159,818.2159,819.4396,return,0.3634,,99.08854167,,,,,,FBP-PT-91.png,0.45,1.2,60,0.5,,,,,,,,,,,,,,,,,,0,31,31,59,1,,,,,,,,,,,,,,,,,,,,,,,
,,,,,SPR24_062,20,F,2024-04-17_16h31.28.031,jersey_experiment_5_v0,2023.2.2,Win32,85.47008547,,,,,,,,,,,,,,,,819.4398,820.7336,820.7336,822.8162,return,0.8938,,24.08854167,,,,,,FBP-YG-91.png,0.35,1.2,26,0.5,,,,,,,,,,,,,,,,,,0,32,32,25,1,,,,,,,,,,,,,,,,,,,,,,,
,,,,,SPR24_062,20,F,2024-04-17_16h31.28.031,jersey_experiment_5_v0,2023.2.2,Win32,85.47008547,,,,,,,,,,,,,,,,822.8164,824.1103,824.1104,827.2867,return,1.7145,,74.47916667,,,,,,FBP-PT-91.png,0.4,1.2,58,0.5,,,,,,,,,,,,,,,,,,0,33,33,57,1,,,,,,,,,,,,,,,,,,,,,,,
,,,,,SPR24_062,20,F,2024-04-17_16h31.28.031,jersey_experiment_5_v0,2023.2.2,Win32,85.47008547,,,,,,,,,,,,,,,,827.287,828.5812,828.5812,829.8869,return,0.4101,,50.13020833,,,,,,FBP-PT-71.png,0.4,1.2,48,0.5,,,,,,,,,,,,,,,,,,0,34,34,47,1,,,,,,,,,,,,,,,,,,,,,,,
,,,,,SPR24_062,20,F,2024-04-17_16h31.28.031,jersey_experiment_5_v0,2023.2.2,Win32,85.47008547,,,,,,,,,,,,,,,,829.8871,830.9341,830.9341,832.1459,return,0.3627,,23.828125,,,,,,FBP-OG-17.png,0.35,1.2,1,0.25,,,,,,,,,,,,,,,,,,0,35,35,0,1,,,,,,,,,,,,,,,,,,,,,,,
,,,,,SPR24_062,20,F,2024-04-17_16h31.28.031,jersey_experiment_5_v0,2023.2.2,Win32,85.47008547,,,,,,,,,,,,,,,,832.1462,833.1931,833.1931,834.7931,return,1.1948,,74.47916667,,,,,,FBP-OG-19.png,0.43,1.2,14,0.25,,,,,,,,,,,,,,,,,,0,36,36,13,1,,,,,,,,,,,,,,,,,,,,,,,
,,,,,SPR24_062,20,F,2024-04-17_16h31.28.031,jersey_experiment_5_v0,2023.2.2,Win32,85.47008547,,,,,,,,,,,,,,,,834.7933,835.84,835.8402,837.2755,return,0.357,,25.390625,,,,,,FBP-RB-71.png,0.35,1.2,31,0.25,,,,,,,,,,,,,,,,,,0,37,37,30,1,,,,,,,,,,,,,,,,,,,,,,,
,,,,,SPR24_062,20,F,2024-04-17_16h31.28.031,jersey_experiment_5_v0,2023.2.2,Win32,85.47008547,,,,,,,,,,,,,,,,837.2757,838.3226,838.3226,839.9933,return,0.371,,99.34895833,,,,,,FBP-RB-91.png,0.43,1.2,44,0.25,,,,,,,,,,,,,,,,,,0,38,38,43,1,,,,,,,,,,,,,,,,,,,,,,,
,,,,,SPR24_062,20,F,2024-04-17_16h31.28.031,jersey_experiment_5_v0,2023.2.2,Win32,85.47008547,,,,,,,,,,,,,,,,839.9935,841.2874,841.2874,843.1346,return,0.9753,,74.34895833,,,,,,FBP-YG-91.png,0.4,1.2,28,0.5,,,,,,,,,,,,,,,,,,0,39,39,27,1,,,,,,,,,,,,,,,,,,,,,,,
,,,,,SPR24_062,20,F,2024-04-17_16h31.28.031,jersey_experiment_5_v0,2023.2.2,Win32,85.47008547,,,,,,,,,,,,,,,,843.1348,844.1815,844.1815,845.8994,return,0.3552,,99.47916667,,,,,,FBP-OG-18.png,0.45,1.2,10,0.25,,,,,,,,,,,,,,,,,,0,40,40,9,1,,,,,,,,,,,,,,,,,,,,,,,
,,,,,SPR24_062,20,F,2024-04-17_16h31.28.031,jersey_experiment_5_v0,2023.2.2,Win32,85.47008547,,,,,,,,,,,,,,,,845.8995,847.1934,847.1935,848.0759,return,0.3092,,99.73958333,,,,,,FBP-PT-81.png,0.45,1.2,55,0.5,,,,,,,,,,,,,,,,,,0,41,41,54,1,,,,,,,,,,,,,,,,,,,,,,,
,,,,,SPR24_062,20,F,2024-04-17_16h31.28.031,jersey_experiment_5_v0,2023.2.2,Win32,85.47008547,,,,,,,,,,,,,,,,848.0762,849.37,849.3701,850.923,return,0.381,,24.73958333,,,,,,FBP-YG-91.png,0.37,1.2,27,0.5,,,,,,,,,,,,,,,,,,0,42,42,26,1,,,,,,,,,,,,,,,,,,,,,,,
,,,,,SPR24_062,20,F,2024-04-17_16h31.28.031,jersey_experiment_5_v0,2023.2.2,Win32,85.47008547,,,,,,,,,,,,,,,,850.9233,852.2171,852.2171,853.5467,return,0.3559,,98.828125,,,,,,FBP-YG-91.png,0.45,1.2,30,0.5,,,,,,,,,,,,,,,,,,0,43,43,29,1,,,,,,,,,,,,,,,,,,,,,,,
,,,,,SPR24_062,20,F,2024-04-17_16h31.28.031,jersey_experiment_5_v0,2023.2.2,Win32,85.47008547,,,,,,,,,,,,,,,,853.5469,854.8408,854.8409,856.3703,return,0.4145,,25.390625,,,,,,FBP-PT-81.png,0.37,1.2,52,0.5,,,,,,,,,,,,,,,,,,0,44,44,51,1,,,,,,,,,,,,,,,,,,,,,,,
,,,,,SPR24_062,20,F,2024-04-17_16h31.28.031,jersey_experiment_5_v0,2023.2.2,Win32,85.47008547,,,,,,,,,,,,,,,,856.3704,857.4173,857.4173,859.8411,return,0.3867,,99.34895833,,,,,,FBP-RB-71.png,0.45,1.2,35,0.25,,,,,,,,,,,,,,,,,,0,45,45,34,1,,,,,,,,,,,,,,,,,,,,,,,
,,,,,SPR24_062,20,F,2024-04-17_16h31.28.031,jersey_experiment_5_v0,2023.2.2,Win32,85.47008547,,,,,,,,,,,,,,,,859.8414,861.1352,861.1353,862.5117,return,0.3672,,75.26041667,,,,,,FBP-PT-81.png,0.43,1.2,54,0.5,,,,,,,,,,,,,,,,,,0,46,46,53,1,,,,,,,,,,,,,,,,,,,,,,,
,,,,,SPR24_062,20,F,2024-04-17_16h31.28.031,jersey_experiment_5_v0,2023.2.2,Win32,85.47008547,,,,,,,,,,,,,,,,862.5119,863.8059,863.8059,864.8649,return,0.3193,,24.08854167,,,,,,FBP-PT-91.png,0.35,1.2,56,0.5,,,,,,,,,,,,,,,,,,0,47,47,55,1,,,,,,,,,,,,,,,,,,,,,,,
,,,,,SPR24_062,20,F,2024-04-17_16h31.28.031,jersey_experiment_5_v0,2023.2.2,Win32,85.47008547,,,,,,,,,,,,,,,,864.865,865.9116,865.9116,867.5473,return,0.3927,,73.56770833,,,,,,FBP-RB-81.png,0.4,1.2,38,0.25,,,,,,,,,,,,,,,,,,0,48,48,37,1,,,,,,,,,,,,,,,,,,,,,,,
,,,,,SPR24_062,20,F,2024-04-17_16h31.28.031,jersey_experiment_5_v0,2023.2.2,Win32,85.47008547,,,,,,,,,,,,,,,,867.5476,868.8414,868.8414,870.1943,return,0.363,,75.26041667,,,,,,FBP-PT-71.png,0.45,1.2,50,0.5,,,,,,,,,,,,,,,,,,0,49,49,49,1,,,,,,,,,,,,,,,,,,,,,,,
,,,,,SPR24_062,20,F,2024-04-17_16h31.28.031,jersey_experiment_5_v0,2023.2.2,Win32,85.47008547,,,,,,,,,,,,,,,,870.1946,871.2413,871.2414,872.959,return,0.3199,,24.609375,,,,,,FBP-OG-18.png,0.37,1.2,7,0.25,,,,,,,,,,,,,,,,,,0,50,50,6,1,,,,,,,,,,,,,,,,,,,,,,,
,,,,,SPR24_062,20,F,2024-04-17_16h31.28.031,jersey_experiment_5_v0,2023.2.2,Win32,85.47008547,,,,,,,,,,,,,,,,872.9592,874.0061,874.0061,875.5358,return,0.4335,,99.47916667,,,,,,FBP-RB-81.png,0.45,1.2,40,0.25,,,,,,,,,,,,,,,,,,0,51,51,39,1,,,,,,,,,,,,,,,,,,,,,,,
,,,,,SPR24_062,20,F,2024-04-17_16h31.28.031,jersey_experiment_5_v0,2023.2.2,Win32,85.47008547,,,,,,,,,,,,,,,,875.5359,876.8297,876.8297,878.1711,return,0.5457,,26.82291667,,,,,,FBP-YG-71.png,0.35,1.2,16,0.5,,,,,,,,,,,,,,,,,,0,52,52,15,1,,,,,,,,,,,,,,,,,,,,,,,
,,,,,SPR24_062,20,F,2024-04-17_16h31.28.031,jersey_experiment_5_v0,2023.2.2,Win32,85.47008547,,,,,,,,,,,,,,,,878.1714,879.4653,879.4653,881.0887,return,0.4105,,75.26041667,,,,,,FBP-YG-91.png,0.43,1.2,29,0.5,,,,,,,,,,,,,,,,,,0,53,53,28,1,,,,,,,,,,,,,,,,,,,,,,,
,,,,,SPR24_062,20,F,2024-04-17_16h31.28.031,jersey_experiment_5_v0,2023.2.2,Win32,85.47008547,,,,,,,,,,,,,,,,881.089,882.1359,882.136,884.2183,return,0.97,,98.4375,,,,,,FBP-OG-19.png,0.45,1.2,15,0.25,,,,,,,,,,,,,,,,,,0,54,54,14,1,,,,,,,,,,,,,,,,,,,,,,,
,,,,,SPR24_062,20,F,2024-04-17_16h31.28.031,jersey_experiment_5_v0,2023.2.2,Win32,85.47008547,,,,,,,,,,,,,,,,884.2186,885.5124,885.5125,886.8772,return,0.3791,,25.78125,,,,,,FBP-PT-71.png,0.37,1.2,47,0.5,,,,,,,,,,,,,,,,,,0,55,55,46,1,,,,,,,,,,,,,,,,,,,,,,,
,,,,,SPR24_062,20,F,2024-04-17_16h31.28.031,jersey_experiment_5_v0,2023.2.2,Win32,85.47008547,,,,,,,,,,,,,,,,886.8774,888.1713,888.1713,889.2302,return,0.3644,,23.69791667,,,,,,FBP-PT-91.png,0.37,1.2,57,0.5,,,,,,,,,,,,,,,,,,0,56,56,56,1,,,,,,,,,,,,,,,,,,,,,,,
,,,,,SPR24_062,20,F,2024-04-17_16h31.28.031,jersey_experiment_5_v0,2023.2.2,Win32,85.47008547,,,,,,,,,,,,,,,,889.2305,890.2773,890.2774,891.3126,return,0.3422,,25.65104167,,,,,,FBP-OG-19.png,0.35,1.2,11,0.25,,,,,,,,,,,,,,,,,,0,57,57,10,1,,,,,,,,,,,,,,,,,,,,,,,
,,,,,SPR24_062,20,F,2024-04-17_16h31.28.031,jersey_experiment_5_v0,2023.2.2,Win32,85.47008547,,,,,,,,,,,,,,,,891.3129,892.607,892.6071,893.6069,return,0.3379,,24.73958333,,,,,,FBP-YG-81.png,0.37,1.2,22,0.5,,,,,,,,,,,,,,,,,,0,58,58,21,1,,,,,,,,,,,,,,,,,,,,,,,
,,,,,SPR24_062,20,F,2024-04-17_16h31.28.031,jersey_experiment_5_v0,2023.2.2,Win32,85.47008547,,,,,,,,,,,,,,,,893.6071,894.901,894.901,896.1366,return,0.5472,,74.21875,,,,,,FBP-YG-81.png,0.43,1.2,24,0.5,,,,,,,,,,,,,,,,,,0,59,59,23,1,,,,,,,,,,,,,,,,,,,,,,,
,,,,,SPR24_062,20,F,2024-04-17_16h31.28.031,jersey_experiment_5_v0,2023.2.2,Win32,85.47008547,,,,,,,,,,,,,,,,,,,,,,,,,,,,,,,,,,,,,,,,,,,,,,,,,,,,,,,,896.1369,899.6665,return,3.5194,,,,,,,,,,,,,,,,,,,
,,,,,SPR24_062,20,F,2024-04-17_16h31.28.031,jersey_experiment_5_v0,2023.2.2,Win32,85.47008547,,,,,,,,,,,,,,,,,,,,,,,,,,,,,,,,,,,,,,,,,,,,,,,,,,,,,,,,,,,,,899.6665,903.4193,1,2.5437,return,1.1901,,,,,,,,,,,,
,,,,,SPR24_062,20,F,2024-04-17_16h31.28.031,jersey_experiment_5_v0,2023.2.2,Win32,85.47008547,,,,,,,,,,,,,,,,,,,,,,,,,,,,,,,,,,,,,,,,,,,,,,,,,,,,,,,,,,,,,,,,,,,,903.4194,1007.4049,"I think the study may be about how context affections perception. A figure following a very husky one always seems leaner to me, even if it might not necessarily be lean or very lean. Comparison tends to exaggerate the sizing, if that makes sense. So I was assuming the study was on how prior figures influence your ranking on how husky the next one was.",right,100.2336,,,,,,
,,,,,SPR24_062,20,F,2024-04-17_16h31.28.031,jersey_experiment_5_v0,2023.2.2,Win32,85.47008547,,,,,,,,,,,,,,,,,,,,,,,,,,,,,,,,,,,,,,,,,,,,,,,,,,,,,,,,,,,,,,,,,,,,,,,,,,1007.405,1008.9524,return,1.5411,