requirements.started,requirements.stopped,key_resp_3.keys,key_resp_3.rt,key_resp_3.duration,Subject ID,Age,Gender,date,expName,psychopyVersion,OS,frameRate,instructions1.started,instructions1.stopped,key_resp.keys,key_resp.rt,key_resp.duration,example.started,example.stopped,enter_2.keys,enter_2.rt,enter_2.duration,instructions2.started,instructions2.stopped,enter_3.keys,enter_3.rt,enter_3.duration,image.started,image.stopped,slider_2.started,slider_2.stopped,next.keys,next.rt,next.duration,slider.response,trial_block_1.thisRepN,trial_block_1.thisTrialN,trial_block_1.thisN,trial_block_1.thisIndex,trial_block_1.ran,Path,Width,Height,Index,Duration,trial_block_2.thisRepN,trial_block_2.thisTrialN,trial_block_2.thisN,trial_block_2.thisIndex,trial_block_2.ran,rest_break.started,rest_break.stopped,end_break.started,end_break.stopped,key_resp_5.keys,key_resp_5.rt,key_resp_5.duration,trial_block_3.thisRepN,trial_block_3.thisTrialN,trial_block_3.thisN,trial_block_3.thisIndex,trial_block_3.ran,trial_block_4.thisRepN,trial_block_4.thisTrialN,trial_block_4.thisN,trial_block_4.thisIndex,trial_block_4.ran,questions_intro.started,questions_intro.stopped,enter_12.keys,enter_12.rt,enter_12.duration,question2.started,question2.stopped,question_doingbest.response,question_doingbest.rt,enter_15.keys,enter_15.rt,enter_15.duration,pattern.started,pattern.stopped,pattern_2.text,enter_17.keys,enter_17.rt,enter_17.duration,thankyou.started,thankyou.stopped,enter_14.keys,enter_14.rt,enter_14.duration
1E-04,9.0509,return,9.0395,,SPR24_051,19,F,2024-04-16_14h26.37.087,jersey_experiment_5_v0,2023.2.2,Win32,84.03361345,,,,,,,,,,,,,,,,,,,,,,,,,,,,,,,,,,,,,,,,,,,,,,,,,,,,,,,,,,,,,,,,,,,,,,,,,,,,,,
,,,,,SPR24_051,19,F,2024-04-16_14h26.37.087,jersey_experiment_5_v0,2023.2.2,Win32,84.03361345,9.051,14.2509,return,5.1767,,,,,,,,,,,,,,,,,,,,,,,,,,,,,,,,,,,,,,,,,,,,,,,,,,,,,,,,,,,,,,,,,,,,,,,,,,
,,,,,SPR24_051,19,F,2024-04-16_14h26.37.087,jersey_experiment_5_v0,2023.2.2,Win32,84.03361345,,,,,,14.251,17.3335,return,3.0439,,,,,,,,,,,,,,,,,,,,,,,,,,,,,,,,,,,,,,,,,,,,,,,,,,,,,,,,,,,,,,,,,,,,,
,,,,,SPR24_051,19,F,2024-04-16_14h26.37.087,jersey_experiment_5_v0,2023.2.2,Win32,84.03361345,,,,,,,,,,,17.3335,31.8166,return,14.4701,,,,,,,,,,,,,,,,,,,,,,,,,,,,,,,,,,,,,,,,,,,,,,,,,,,,,,,,,,,,,,,,
,,,,,SPR24_051,19,F,2024-04-16_14h26.37.087,jersey_experiment_5_v0,2023.2.2,Win32,84.03361345,,,,,,,,,,,,,,,,31.8244,33.1223,33.1223,38.1696,return,3.1431,,76.04166667,0,0,0,34,1,FBP-RB-17.png,0.45,1.2,35,0.5,,,,,,,,,,,,,,,,,,,,,,,,,,,,,,,,,,,,,,,,,,,,,
,,,,,SPR24_051,19,F,2024-04-16_14h26.37.087,jersey_experiment_5_v0,2023.2.2,Win32,84.03361345,,,,,,,,,,,,,,,,38.1738,39.4754,39.4754,42.4401,return,1.2711,,25.52083333,0,1,1,30,1,FBP-RB-17.png,0.35,1.2,31,0.5,,,,,,,,,,,,,,,,,,,,,,,,,,,,,,,,,,,,,,,,,,,,,
,,,,,SPR24_051,19,F,2024-04-16_14h26.37.087,jersey_experiment_5_v0,2023.2.2,Win32,84.03361345,,,,,,,,,,,,,,,,42.4403,43.4872,43.4873,45.605,return,0.7078,,25.52083333,0,2,2,16,1,FBP-YG-17.png,0.37,1.2,17,0.25,,,,,,,,,,,,,,,,,,,,,,,,,,,,,,,,,,,,,,,,,,,,,
,,,,,SPR24_051,19,F,2024-04-16_14h26.37.087,jersey_experiment_5_v0,2023.2.2,Win32,84.03361345,,,,,,,,,,,,,,,,45.6052,46.8992,46.8992,50.5933,return,2.1603,,50.26041667,0,3,3,42,1,FBP-RB-19.png,0.4,1.2,43,0.5,,,,,,,,,,,,,,,,,,,,,,,,,,,,,,,,,,,,,,,,,,,,,
,,,,,SPR24_051,19,F,2024-04-16_14h26.37.087,jersey_experiment_5_v0,2023.2.2,Win32,84.03361345,,,,,,,,,,,,,,,,50.5936,51.8875,51.8876,54.1347,return,0.8259,,74.609375,0,4,4,14,1,FBP-OG-91.png,0.45,1.2,15,0.5,,,,,,,,,,,,,,,,,,,,,,,,,,,,,,,,,,,,,,,,,,,,,
,,,,,SPR24_051,19,F,2024-04-16_14h26.37.087,jersey_experiment_5_v0,2023.2.2,Win32,84.03361345,,,,,,,,,,,,,,,,54.1348,55.4286,55.4287,57.5231,return,1.1683,,75.52083333,0,5,5,9,1,FBP-OG-81.png,0.45,1.2,10,0.5,,,,,,,,,,,,,,,,,,,,,,,,,,,,,,,,,,,,,,,,,,,,,
,,,,,SPR24_051,19,F,2024-04-16_14h26.37.087,jersey_experiment_5_v0,2023.2.2,Win32,84.03361345,,,,,,,,,,,,,,,,57.5233,58.5701,58.5701,60.9819,return,0.7191,,74.73958333,0,6,6,18,1,FBP-YG-17.png,0.43,1.2,19,0.25,,,,,,,,,,,,,,,,,,,,,,,,,,,,,,,,,,,,,,,,,,,,,
,,,,,SPR24_051,19,F,2024-04-16_14h26.37.087,jersey_experiment_5_v0,2023.2.2,Win32,84.03361345,,,,,,,,,,,,,,,,60.9822,62.0289,62.0289,64.3586,return,0.8611,,24.609375,0,7,7,45,1,FBP-PT-17.png,0.35,1.2,46,0.25,,,,,,,,,,,,,,,,,,,,,,,,,,,,,,,,,,,,,,,,,,,,,
,,,,,SPR24_051,19,F,2024-04-16_14h26.37.087,jersey_experiment_5_v0,2023.2.2,Win32,84.03361345,,,,,,,,,,,,,,,,64.3588,65.4056,65.4057,68.1468,return,0.7936,,75.26041667,0,8,8,49,1,FBP-PT-17.png,0.45,1.2,50,0.25,,,,,,,,,,,,,,,,,,,,,,,,,,,,,,,,,,,,,,,,,,,,,
,,,,,SPR24_051,19,F,2024-04-16_14h26.37.087,jersey_experiment_5_v0,2023.2.2,Win32,84.03361345,,,,,,,,,,,,,,,,68.147,69.4411,69.4411,71.6647,return,0.8403,,25.26041667,0,9,9,10,1,FBP-OG-91.png,0.35,1.2,11,0.5,,,,,,,,,,,,,,,,,,,,,,,,,,,,,,,,,,,,,,,,,,,,,
,,,,,SPR24_051,19,F,2024-04-16_14h26.37.087,jersey_experiment_5_v0,2023.2.2,Win32,84.03361345,,,,,,,,,,,,,,,,71.6649,72.9589,72.9589,74.6411,return,0.7576,,25.26041667,0,10,10,11,1,FBP-OG-91.png,0.37,1.2,12,0.5,,,,,,,,,,,,,,,,,,,,,,,,,,,,,,,,,,,,,,,,,,,,,
,,,,,SPR24_051,19,F,2024-04-16_14h26.37.087,jersey_experiment_5_v0,2023.2.2,Win32,84.03361345,,,,,,,,,,,,,,,,74.6414,75.6882,75.6882,79.0885,return,1.2061,,74.86979167,0,11,11,19,1,FBP-YG-17.png,0.45,1.2,20,0.25,,,,,,,,,,,,,,,,,,,,,,,,,,,,,,,,,,,,,,,,,,,,,
,,,,,SPR24_051,19,F,2024-04-16_14h26.37.087,jersey_experiment_5_v0,2023.2.2,Win32,84.03361345,,,,,,,,,,,,,,,,79.0887,80.3826,80.3827,82.4886,return,0.7163,,74.86979167,0,12,12,8,1,FBP-OG-81.png,0.43,1.2,9,0.5,,,,,,,,,,,,,,,,,,,,,,,,,,,,,,,,,,,,,,,,,,,,,
,,,,,SPR24_051,19,F,2024-04-16_14h26.37.087,jersey_experiment_5_v0,2023.2.2,Win32,84.03361345,,,,,,,,,,,,,,,,82.4887,83.5356,83.5358,85.971,return,1.0974,,74.86979167,0,13,13,47,1,FBP-PT-17.png,0.4,1.2,48,0.25,,,,,,,,,,,,,,,,,,,,,,,,,,,,,,,,,,,,,,,,,,,,,
,,,,,SPR24_051,19,F,2024-04-16_14h26.37.087,jersey_experiment_5_v0,2023.2.2,Win32,84.03361345,,,,,,,,,,,,,,,,85.9712,87.0181,87.0182,88.9358,return,0.7394,,74.86979167,0,14,14,54,1,FBP-PT-18.png,0.45,1.2,55,0.25,,,,,,,,,,,,,,,,,,,,,,,,,,,,,,,,,,,,,,,,,,,,,
,,,,,SPR24_051,19,F,2024-04-16_14h26.37.087,jersey_experiment_5_v0,2023.2.2,Win32,84.03361345,,,,,,,,,,,,,,,,88.9361,89.983,89.983,91.7829,return,0.5902,,49.86979167,0,15,15,27,1,FBP-YG-19.png,0.4,1.2,28,0.25,,,,,,,,,,,,,,,,,,,,,,,,,,,,,,,,,,,,,,,,,,,,,
,,,,,SPR24_051,19,F,2024-04-16_14h26.37.087,jersey_experiment_5_v0,2023.2.2,Win32,84.03361345,,,,,,,,,,,,,,,,91.7832,92.83,92.8301,95.1713,return,0.8055,,74.47916667,0,16,16,24,1,FBP-YG-18.png,0.45,1.2,25,0.25,,,,,,,,,,,,,,,,,,,,,,,,,,,,,,,,,,,,,,,,,,,,,
,,,,,SPR24_051,19,F,2024-04-16_14h26.37.087,jersey_experiment_5_v0,2023.2.2,Win32,84.03361345,,,,,,,,,,,,,,,,95.1714,96.4654,96.4654,99.1715,return,0.6172,,74.47916667,0,17,17,44,1,FBP-RB-19.png,0.45,1.2,45,0.5,,,,,,,,,,,,,,,,,,,,,,,,,,,,,,,,,,,,,,,,,,,,,
,,,,,SPR24_051,19,F,2024-04-16_14h26.37.087,jersey_experiment_5_v0,2023.2.2,Win32,84.03361345,,,,,,,,,,,,,,,,99.1718,100.4657,100.4657,101.9244,return,0.6021,,74.47916667,0,18,18,38,1,FBP-RB-18.png,0.43,1.2,39,0.5,,,,,,,,,,,,,,,,,,,,,,,,,,,,,,,,,,,,,,,,,,,,,
,,,,,SPR24_051,19,F,2024-04-16_14h26.37.087,jersey_experiment_5_v0,2023.2.2,Win32,84.03361345,,,,,,,,,,,,,,,,101.9247,102.9715,102.9716,105.1131,return,0.6581,,24.47916667,0,19,19,25,1,FBP-YG-19.png,0.35,1.2,26,0.25,,,,,,,,,,,,,,,,,,,,,,,,,,,,,,,,,,,,,,,,,,,,,
,,,,,SPR24_051,19,F,2024-04-16_14h26.37.087,jersey_experiment_5_v0,2023.2.2,Win32,84.03361345,,,,,,,,,,,,,,,,105.1132,106.4071,106.4072,108.666,return,0.6732,,50.390625,0,20,20,2,1,FBP-OG-71.png,0.4,1.2,3,0.5,,,,,,,,,,,,,,,,,,,,,,,,,,,,,,,,,,,,,,,,,,,,,
,,,,,SPR24_051,19,F,2024-04-16_14h26.37.087,jersey_experiment_5_v0,2023.2.2,Win32,84.03361345,,,,,,,,,,,,,,,,108.6663,109.713,109.713,111.9603,return,0.6973,,24.86979167,0,21,21,15,1,FBP-YG-17.png,0.35,1.2,16,0.25,,,,,,,,,,,,,,,,,,,,,,,,,,,,,,,,,,,,,,,,,,,,,
,,,,,SPR24_051,19,F,2024-04-16_14h26.37.087,jersey_experiment_5_v0,2023.2.2,Win32,84.03361345,,,,,,,,,,,,,,,,111.9606,113.0071,113.0072,115.4897,return,0.5837,,75.78125,0,22,22,22,1,FBP-YG-18.png,0.4,1.2,23,0.25,,,,,,,,,,,,,,,,,,,,,,,,,,,,,,,,,,,,,,,,,,,,,
,,,,,SPR24_051,19,F,2024-04-16_14h26.37.087,jersey_experiment_5_v0,2023.2.2,Win32,84.03361345,,,,,,,,,,,,,,,,115.4899,116.5368,116.5368,118.5488,return,0.7314,,75.78125,0,23,23,53,1,FBP-PT-18.png,0.43,1.2,54,0.25,,,,,,,,,,,,,,,,,,,,,,,,,,,,,,,,,,,,,,,,,,,,,
,,,,,SPR24_051,19,F,2024-04-16_14h26.37.087,jersey_experiment_5_v0,2023.2.2,Win32,84.03361345,,,,,,,,,,,,,,,,118.549,119.5958,119.5958,122.384,return,0.6324,,49.86979167,0,24,24,55,1,FBP-PT-19.png,0.35,1.2,56,0.25,,,,,,,,,,,,,,,,,,,,,,,,,,,,,,,,,,,,,,,,,,,,,
,,,,,SPR24_051,19,F,2024-04-16_14h26.37.087,jersey_experiment_5_v0,2023.2.2,Win32,84.03361345,,,,,,,,,,,,,,,,122.3843,123.6782,123.6782,125.5724,return,0.6727,,50,0,25,25,7,1,FBP-OG-81.png,0.4,1.2,8,0.5,,,,,,,,,,,,,,,,,,,,,,,,,,,,,,,,,,,,,,,,,,,,,
,,,,,SPR24_051,19,F,2024-04-16_14h26.37.087,jersey_experiment_5_v0,2023.2.2,Win32,84.03361345,,,,,,,,,,,,,,,,125.5726,126.6195,126.6196,128.902,return,0.6031,,25.52083333,0,26,26,21,1,FBP-YG-18.png,0.37,1.2,22,0.25,,,,,,,,,,,,,,,,,,,,,,,,,,,,,,,,,,,,,,,,,,,,,
,,,,,SPR24_051,19,F,2024-04-16_14h26.37.087,jersey_experiment_5_v0,2023.2.2,Win32,84.03361345,,,,,,,,,,,,,,,,128.9022,130.1961,130.1962,132.5139,return,0.6188,,74.609375,0,27,27,39,1,FBP-RB-18.png,0.45,1.2,40,0.5,,,,,,,,,,,,,,,,,,,,,,,,,,,,,,,,,,,,,,,,,,,,,
,,,,,SPR24_051,19,F,2024-04-16_14h26.37.087,jersey_experiment_5_v0,2023.2.2,Win32,84.03361345,,,,,,,,,,,,,,,,132.5141,133.808,133.808,135.561,return,0.6729,,49.86979167,0,28,28,1,1,FBP-OG-71.png,0.37,1.2,2,0.5,,,,,,,,,,,,,,,,,,,,,,,,,,,,,,,,,,,,,,,,,,,,,
,,,,,SPR24_051,19,F,2024-04-16_14h26.37.087,jersey_experiment_5_v0,2023.2.2,Win32,84.03361345,,,,,,,,,,,,,,,,135.5612,136.8552,136.8552,138.5493,return,0.5194,,49.86979167,0,29,29,36,1,FBP-RB-18.png,0.37,1.2,37,0.5,,,,,,,,,,,,,,,,,,,,,,,,,,,,,,,,,,,,,,,,,,,,,
,,,,,SPR24_051,19,F,2024-04-16_14h26.37.087,jersey_experiment_5_v0,2023.2.2,Win32,84.03361345,,,,,,,,,,,,,,,,138.5495,139.5964,139.5964,141.8082,return,0.6524,,74.609375,0,30,30,59,1,FBP-PT-19.png,0.45,1.2,60,0.25,,,,,,,,,,,,,,,,,,,,,,,,,,,,,,,,,,,,,,,,,,,,,
,,,,,SPR24_051,19,F,2024-04-16_14h26.37.087,jersey_experiment_5_v0,2023.2.2,Win32,84.03361345,,,,,,,,,,,,,,,,141.8084,143.1024,143.1024,144.3732,return,0.6013,,74.609375,0,31,31,3,1,FBP-OG-71.png,0.43,1.2,4,0.5,,,,,,,,,,,,,,,,,,,,,,,,,,,,,,,,,,,,,,,,,,,,,
,,,,,SPR24_051,19,F,2024-04-16_14h26.37.087,jersey_experiment_5_v0,2023.2.2,Win32,84.03361345,,,,,,,,,,,,,,,,144.3735,145.4202,145.4202,147.8085,return,0.7144,,49.73958333,0,32,32,56,1,FBP-PT-19.png,0.37,1.2,57,0.25,,,,,,,,,,,,,,,,,,,,,,,,,,,,,,,,,,,,,,,,,,,,,
,,,,,SPR24_051,19,F,2024-04-16_14h26.37.087,jersey_experiment_5_v0,2023.2.2,Win32,84.03361345,,,,,,,,,,,,,,,,147.8087,149.1026,149.1026,150.8203,return,0.5554,,49.73958333,0,33,33,32,1,FBP-RB-17.png,0.4,1.2,33,0.5,,,,,,,,,,,,,,,,,,,,,,,,,,,,,,,,,,,,,,,,,,,,,
,,,,,SPR24_051,19,F,2024-04-16_14h26.37.087,jersey_experiment_5_v0,2023.2.2,Win32,84.03361345,,,,,,,,,,,,,,,,150.8205,152.1144,152.1144,153.5147,return,0.6116,,49.73958333,0,34,34,35,1,FBP-RB-18.png,0.35,1.2,36,0.5,,,,,,,,,,,,,,,,,,,,,,,,,,,,,,,,,,,,,,,,,,,,,
,,,,,SPR24_051,19,F,2024-04-16_14h26.37.087,jersey_experiment_5_v0,2023.2.2,Win32,84.03361345,,,,,,,,,,,,,,,,153.5148,154.5616,154.5616,157.0323,return,0.6212,,49.609375,0,35,35,57,1,FBP-PT-19.png,0.4,1.2,58,0.25,,,,,,,,,,,,,,,,,,,,,,,,,,,,,,,,,,,,,,,,,,,,,
,,,,,SPR24_051,19,F,2024-04-16_14h26.37.087,jersey_experiment_5_v0,2023.2.2,Win32,84.03361345,,,,,,,,,,,,,,,,157.0325,158.3265,158.3265,160.2089,return,0.6431,,75.13020833,0,36,36,33,1,FBP-RB-17.png,0.43,1.2,34,0.5,,,,,,,,,,,,,,,,,,,,,,,,,,,,,,,,,,,,,,,,,,,,,
,,,,,SPR24_051,19,F,2024-04-16_14h26.37.087,jersey_experiment_5_v0,2023.2.2,Win32,84.03361345,,,,,,,,,,,,,,,,160.2091,161.256,161.256,163.6091,return,0.6029,,49.86979167,0,37,37,26,1,FBP-YG-19.png,0.37,1.2,27,0.25,,,,,,,,,,,,,,,,,,,,,,,,,,,,,,,,,,,,,,,,,,,,,
,,,,,SPR24_051,19,F,2024-04-16_14h26.37.087,jersey_experiment_5_v0,2023.2.2,Win32,84.03361345,,,,,,,,,,,,,,,,163.6093,164.9033,164.9033,166.7622,return,0.6256,,74.47916667,0,38,38,13,1,FBP-OG-91.png,0.43,1.2,14,0.5,,,,,,,,,,,,,,,,,,,,,,,,,,,,,,,,,,,,,,,,,,,,,
,,,,,SPR24_051,19,F,2024-04-16_14h26.37.087,jersey_experiment_5_v0,2023.2.2,Win32,84.03361345,,,,,,,,,,,,,,,,166.7623,167.8092,167.8092,169.268,return,0.5695,,74.47916667,0,39,39,28,1,FBP-YG-19.png,0.43,1.2,29,0.25,,,,,,,,,,,,,,,,,,,,,,,,,,,,,,,,,,,,,,,,,,,,,
,,,,,SPR24_051,19,F,2024-04-16_14h26.37.087,jersey_experiment_5_v0,2023.2.2,Win32,84.03361345,,,,,,,,,,,,,,,,169.2683,170.5621,170.5622,171.974,return,0.5911,,50.26041667,0,40,40,6,1,FBP-OG-81.png,0.37,1.2,7,0.5,,,,,,,,,,,,,,,,,,,,,,,,,,,,,,,,,,,,,,,,,,,,,
,,,,,SPR24_051,19,F,2024-04-16_14h26.37.087,jersey_experiment_5_v0,2023.2.2,Win32,84.03361345,,,,,,,,,,,,,,,,171.9741,173.2681,173.2682,176.4566,return,0.5888,,63.28125,0,41,41,37,1,FBP-RB-18.png,0.4,1.2,38,0.5,,,,,,,,,,,,,,,,,,,,,,,,,,,,,,,,,,,,,,,,,,,,,
,,,,,SPR24_051,19,F,2024-04-16_14h26.37.087,jersey_experiment_5_v0,2023.2.2,Win32,84.03361345,,,,,,,,,,,,,,,,176.4568,177.5035,177.5036,179.8096,return,0.7694,,36.71875,0,42,42,50,1,FBP-PT-18.png,0.35,1.2,51,0.25,,,,,,,,,,,,,,,,,,,,,,,,,,,,,,,,,,,,,,,,,,,,,
,,,,,SPR24_051,19,F,2024-04-16_14h26.37.087,jersey_experiment_5_v0,2023.2.2,Win32,84.03361345,,,,,,,,,,,,,,,,179.8097,181.1037,181.1037,182.692,return,0.5813,,25.65104167,0,43,43,40,1,FBP-RB-19.png,0.35,1.2,41,0.5,,,,,,,,,,,,,,,,,,,,,,,,,,,,,,,,,,,,,,,,,,,,,
,,,,,SPR24_051,19,F,2024-04-16_14h26.37.087,jersey_experiment_5_v0,2023.2.2,Win32,84.03361345,,,,,,,,,,,,,,,,182.6923,183.7391,183.7391,186.4098,return,0.565,,50.26041667,0,44,44,48,1,FBP-PT-17.png,0.43,1.2,49,0.25,,,,,,,,,,,,,,,,,,,,,,,,,,,,,,,,,,,,,,,,,,,,,
,,,,,SPR24_051,19,F,2024-04-16_14h26.37.087,jersey_experiment_5_v0,2023.2.2,Win32,84.03361345,,,,,,,,,,,,,,,,186.4101,187.7041,187.7041,189.8924,return,0.6042,,49.86979167,0,45,45,0,1,FBP-OG-71.png,0.35,1.2,1,0.5,,,,,,,,,,,,,,,,,,,,,,,,,,,,,,,,,,,,,,,,,,,,,
,,,,,SPR24_051,19,F,2024-04-16_14h26.37.087,jersey_experiment_5_v0,2023.2.2,Win32,84.03361345,,,,,,,,,,,,,,,,189.8926,190.9394,190.9394,192.1158,return,0.6262,,49.86979167,0,46,46,20,1,FBP-YG-18.png,0.35,1.2,21,0.25,,,,,,,,,,,,,,,,,,,,,,,,,,,,,,,,,,,,,,,,,,,,,
,,,,,SPR24_051,19,F,2024-04-16_14h26.37.087,jersey_experiment_5_v0,2023.2.2,Win32,84.03361345,,,,,,,,,,,,,,,,192.116,193.1631,193.1631,194.8336,return,0.5702,,75.52083333,0,47,47,58,1,FBP-PT-19.png,0.43,1.2,59,0.25,,,,,,,,,,,,,,,,,,,,,,,,,,,,,,,,,,,,,,,,,,,,,
,,,,,SPR24_051,19,F,2024-04-16_14h26.37.087,jersey_experiment_5_v0,2023.2.2,Win32,84.03361345,,,,,,,,,,,,,,,,194.8339,195.8807,195.8807,197.6102,return,1.1203,,75.52083333,0,48,48,29,1,FBP-YG-19.png,0.45,1.2,30,0.25,,,,,,,,,,,,,,,,,,,,,,,,,,,,,,,,,,,,,,,,,,,,,
,,,,,SPR24_051,19,F,2024-04-16_14h26.37.087,jersey_experiment_5_v0,2023.2.2,Win32,84.03361345,,,,,,,,,,,,,,,,197.6105,198.9043,198.9044,200.3399,return,0.5815,,49.47916667,0,49,49,5,1,FBP-OG-81.png,0.35,1.2,6,0.5,,,,,,,,,,,,,,,,,,,,,,,,,,,,,,,,,,,,,,,,,,,,,
,,,,,SPR24_051,19,F,2024-04-16_14h26.37.087,jersey_experiment_5_v0,2023.2.2,Win32,84.03361345,,,,,,,,,,,,,,,,200.3402,201.3867,201.3868,202.787,return,0.7,,49.47916667,0,50,50,46,1,FBP-PT-17.png,0.37,1.2,47,0.25,,,,,,,,,,,,,,,,,,,,,,,,,,,,,,,,,,,,,,,,,,,,,
,,,,,SPR24_051,19,F,2024-04-16_14h26.37.087,jersey_experiment_5_v0,2023.2.2,Win32,84.03361345,,,,,,,,,,,,,,,,202.7871,203.8339,203.8339,206.9282,return,0.7358,,61.84895833,0,51,51,17,1,FBP-YG-17.png,0.4,1.2,18,0.25,,,,,,,,,,,,,,,,,,,,,,,,,,,,,,,,,,,,,,,,,,,,,
,,,,,SPR24_051,19,F,2024-04-16_14h26.37.087,jersey_experiment_5_v0,2023.2.2,Win32,84.03361345,,,,,,,,,,,,,,,,206.9284,208.2224,208.2225,209.893,return,0.6743,,61.84895833,0,52,52,41,1,FBP-RB-19.png,0.37,1.2,42,0.5,,,,,,,,,,,,,,,,,,,,,,,,,,,,,,,,,,,,,,,,,,,,,
,,,,,SPR24_051,19,F,2024-04-16_14h26.37.087,jersey_experiment_5_v0,2023.2.2,Win32,84.03361345,,,,,,,,,,,,,,,,209.8932,210.9401,210.9401,213.0931,return,1.0509,,74.73958333,0,53,53,52,1,FBP-PT-18.png,0.4,1.2,53,0.25,,,,,,,,,,,,,,,,,,,,,,,,,,,,,,,,,,,,,,,,,,,,,
,,,,,SPR24_051,19,F,2024-04-16_14h26.37.087,jersey_experiment_5_v0,2023.2.2,Win32,84.03361345,,,,,,,,,,,,,,,,213.0933,214.3873,214.3873,217.0934,return,1.6251,,59.765625,0,54,54,12,1,FBP-OG-91.png,0.4,1.2,13,0.5,,,,,,,,,,,,,,,,,,,,,,,,,,,,,,,,,,,,,,,,,,,,,
,,,,,SPR24_051,19,F,2024-04-16_14h26.37.087,jersey_experiment_5_v0,2023.2.2,Win32,84.03361345,,,,,,,,,,,,,,,,217.0936,218.3873,218.3874,219.8346,return,0.5984,,49.34895833,0,55,55,31,1,FBP-RB-17.png,0.37,1.2,32,0.5,,,,,,,,,,,,,,,,,,,,,,,,,,,,,,,,,,,,,,,,,,,,,
,,,,,SPR24_051,19,F,2024-04-16_14h26.37.087,jersey_experiment_5_v0,2023.2.2,Win32,84.03361345,,,,,,,,,,,,,,,,219.8347,221.1286,221.1286,222.5053,return,0.6133,,73.69791667,0,56,56,4,1,FBP-OG-71.png,0.45,1.2,5,0.5,,,,,,,,,,,,,,,,,,,,,,,,,,,,,,,,,,,,,,,,,,,,,
,,,,,SPR24_051,19,F,2024-04-16_14h26.37.087,jersey_experiment_5_v0,2023.2.2,Win32,84.03361345,,,,,,,,,,,,,,,,222.5055,223.7994,223.7994,225.2229,return,0.6372,,74.86979167,0,57,57,43,1,FBP-RB-19.png,0.43,1.2,44,0.5,,,,,,,,,,,,,,,,,,,,,,,,,,,,,,,,,,,,,,,,,,,,,
,,,,,SPR24_051,19,F,2024-04-16_14h26.37.087,jersey_experiment_5_v0,2023.2.2,Win32,84.03361345,,,,,,,,,,,,,,,,225.2231,226.2701,226.2701,227.5408,return,0.628,,74.86979167,0,58,58,23,1,FBP-YG-18.png,0.43,1.2,24,0.25,,,,,,,,,,,,,,,,,,,,,,,,,,,,,,,,,,,,,,,,,,,,,
,,,,,SPR24_051,19,F,2024-04-16_14h26.37.087,jersey_experiment_5_v0,2023.2.2,Win32,84.03361345,,,,,,,,,,,,,,,,227.5411,228.5878,228.5878,230.6584,return,0.7223,,50,0,59,59,51,1,FBP-PT-18.png,0.37,1.2,52,0.25,,,,,,,,,,,,,,,,,,,,,,,,,,,,,,,,,,,,,,,,,,,,,
,,,,,SPR24_051,19,F,2024-04-16_14h26.37.087,jersey_experiment_5_v0,2023.2.2,Win32,84.03361345,,,,,,,,,,,,,,,,230.6604,231.9527,231.9527,233.1997,return,0.6683,,50,,,,,,FBP-RB-91.png,0.37,1.2,42,0.5,0,0,0,41,1,,,,,,,,,,,,,,,,,,,,,,,,,,,,,,,,,,,,,,,,
,,,,,SPR24_051,19,F,2024-04-16_14h26.37.087,jersey_experiment_5_v0,2023.2.2,Win32,84.03361345,,,,,,,,,,,,,,,,233.2,234.2468,234.2468,236.1644,return,0.8279,,50,,,,,,FBP-PT-91.png,0.35,1.2,56,0.25,0,1,1,55,1,,,,,,,,,,,,,,,,,,,,,,,,,,,,,,,,,,,,,,,,
,,,,,SPR24_051,19,F,2024-04-16_14h26.37.087,jersey_experiment_5_v0,2023.2.2,Win32,84.03361345,,,,,,,,,,,,,,,,236.1647,237.4587,237.4587,239.1529,return,0.6534,,75.26041667,,,,,,FBP-OG-19.png,0.43,1.2,14,0.5,0,2,2,13,1,,,,,,,,,,,,,,,,,,,,,,,,,,,,,,,,,,,,,,,,
,,,,,SPR24_051,19,F,2024-04-16_14h26.37.087,jersey_experiment_5_v0,2023.2.2,Win32,84.03361345,,,,,,,,,,,,,,,,239.1531,240.2001,240.2001,242.0354,return,0.5821,,49.609375,,,,,,FBP-PT-81.png,0.35,1.2,51,0.25,0,3,3,50,1,,,,,,,,,,,,,,,,,,,,,,,,,,,,,,,,,,,,,,,,
,,,,,SPR24_051,19,F,2024-04-16_14h26.37.087,jersey_experiment_5_v0,2023.2.2,Win32,84.03361345,,,,,,,,,,,,,,,,242.0357,243.3296,243.3296,245.0589,return,0.6505,,61.328125,,,,,,FBP-RB-91.png,0.4,1.2,43,0.5,0,4,4,42,1,,,,,,,,,,,,,,,,,,,,,,,,,,,,,,,,,,,,,,,,
,,,,,SPR24_051,19,F,2024-04-16_14h26.37.087,jersey_experiment_5_v0,2023.2.2,Win32,84.03361345,,,,,,,,,,,,,,,,245.0592,246.353,246.3531,248.1062,return,0.6113,,75,,,,,,FBP-OG-17.png,0.4,1.2,3,0.5,0,5,5,2,1,,,,,,,,,,,,,,,,,,,,,,,,,,,,,,,,,,,,,,,,
,,,,,SPR24_051,19,F,2024-04-16_14h26.37.087,jersey_experiment_5_v0,2023.2.2,Win32,84.03361345,,,,,,,,,,,,,,,,248.1063,249.4003,249.4003,250.5768,return,0.6649,,75,,,,,,FBP-OG-17.png,0.45,1.2,5,0.5,0,6,6,4,1,,,,,,,,,,,,,,,,,,,,,,,,,,,,,,,,,,,,,,,,
,,,,,SPR24_051,19,F,2024-04-16_14h26.37.087,jersey_experiment_5_v0,2023.2.2,Win32,84.03361345,,,,,,,,,,,,,,,,250.577,251.8709,251.871,253.4239,return,0.6795,,50.13020833,,,,,,FBP-OG-17.png,0.37,1.2,2,0.5,0,7,7,1,1,,,,,,,,,,,,,,,,,,,,,,,,,,,,,,,,,,,,,,,,
,,,,,SPR24_051,19,F,2024-04-16_14h26.37.087,jersey_experiment_5_v0,2023.2.2,Win32,84.03361345,,,,,,,,,,,,,,,,253.4242,254.471,254.471,256.5772,return,0.688,,39.32291667,,,,,,FBP-PT-81.png,0.37,1.2,52,0.25,0,8,8,51,1,,,,,,,,,,,,,,,,,,,,,,,,,,,,,,,,,,,,,,,,
,,,,,SPR24_051,19,F,2024-04-16_14h26.37.087,jersey_experiment_5_v0,2023.2.2,Win32,84.03361345,,,,,,,,,,,,,,,,256.5773,257.8713,257.8713,259.8595,return,0.5702,,74.609375,,,,,,FBP-RB-91.png,0.43,1.2,44,0.5,0,9,9,43,1,,,,,,,,,,,,,,,,,,,,,,,,,,,,,,,,,,,,,,,,
,,,,,SPR24_051,19,F,2024-04-16_14h26.37.087,jersey_experiment_5_v0,2023.2.2,Win32,84.03361345,,,,,,,,,,,,,,,,259.8597,261.1536,261.1537,262.7302,return,0.5883,,49.86979167,,,,,,FBP-RB-71.png,0.35,1.2,31,0.5,0,10,10,30,1,,,,,,,,,,,,,,,,,,,,,,,,,,,,,,,,,,,,,,,,
,,,,,SPR24_051,19,F,2024-04-16_14h26.37.087,jersey_experiment_5_v0,2023.2.2,Win32,84.03361345,,,,,,,,,,,,,,,,262.7303,264.0243,264.0243,266.0244,return,0.6355,,38.41145833,,,,,,FBP-OG-19.png,0.37,1.2,12,0.5,0,11,11,11,1,,,,,,,,,,,,,,,,,,,,,,,,,,,,,,,,,,,,,,,,
,,,,,SPR24_051,19,F,2024-04-16_14h26.37.087,jersey_experiment_5_v0,2023.2.2,Win32,84.03361345,,,,,,,,,,,,,,,,266.0246,267.3186,267.3186,269.2011,return,0.7703,,74.47916667,,,,,,FBP-RB-91.png,0.45,1.2,45,0.5,0,12,12,44,1,,,,,,,,,,,,,,,,,,,,,,,,,,,,,,,,,,,,,,,,
,,,,,SPR24_051,19,F,2024-04-16_14h26.37.087,jersey_experiment_5_v0,2023.2.2,Win32,84.03361345,,,,,,,,,,,,,,,,269.2012,270.4951,270.4951,273.1424,return,1.7416,,61.19791667,,,,,,FBP-OG-18.png,0.43,1.2,9,0.5,0,13,13,8,1,,,,,,,,,,,,,,,,,,,,,,,,,,,,,,,,,,,,,,,,
,,,,,SPR24_051,19,F,2024-04-16_14h26.37.087,jersey_experiment_5_v0,2023.2.2,Win32,84.03361345,,,,,,,,,,,,,,,,273.1426,274.1894,274.1894,275.7542,return,0.6027,,49.86979167,,,,,,FBP-YG-81.png,0.37,1.2,22,0.25,0,14,14,21,1,,,,,,,,,,,,,,,,,,,,,,,,,,,,,,,,,,,,,,,,
,,,,,SPR24_051,19,F,2024-04-16_14h26.37.087,jersey_experiment_5_v0,2023.2.2,Win32,84.03361345,,,,,,,,,,,,,,,,275.7543,276.8012,276.8012,279.013,return,0.5778,,74.73958333,,,,,,FBP-YG-91.png,0.45,1.2,30,0.25,0,15,15,29,1,,,,,,,,,,,,,,,,,,,,,,,,,,,,,,,,,,,,,,,,
,,,,,SPR24_051,19,F,2024-04-16_14h26.37.087,jersey_experiment_5_v0,2023.2.2,Win32,84.03361345,,,,,,,,,,,,,,,,279.0132,280.0602,280.0602,281.5778,return,0.6118,,49.34895833,,,,,,FBP-PT-71.png,0.35,1.2,46,0.25,0,16,16,45,1,,,,,,,,,,,,,,,,,,,,,,,,,,,,,,,,,,,,,,,,
,,,,,SPR24_051,19,F,2024-04-16_14h26.37.087,jersey_experiment_5_v0,2023.2.2,Win32,84.03361345,,,,,,,,,,,,,,,,281.578,282.8722,282.8722,284.3074,return,0.617,,62.63020833,,,,,,FBP-RB-71.png,0.4,1.2,33,0.5,0,17,17,32,1,,,,,,,,,,,,,,,,,,,,,,,,,,,,,,,,,,,,,,,,
,,,,,SPR24_051,19,F,2024-04-16_14h26.37.087,jersey_experiment_5_v0,2023.2.2,Win32,84.03361345,,,,,,,,,,,,,,,,284.3076,285.3546,285.3546,286.8841,return,0.5814,,74.47916667,,,,,,FBP-YG-81.png,0.45,1.2,25,0.25,0,18,18,24,1,,,,,,,,,,,,,,,,,,,,,,,,,,,,,,,,,,,,,,,,
,,,,,SPR24_051,19,F,2024-04-16_14h26.37.087,jersey_experiment_5_v0,2023.2.2,Win32,84.03361345,,,,,,,,,,,,,,,,286.8842,288.1782,288.1782,289.8487,return,0.6594,,61.328125,,,,,,FBP-OG-19.png,0.4,1.2,13,0.5,0,19,19,12,1,,,,,,,,,,,,,,,,,,,,,,,,,,,,,,,,,,,,,,,,
,,,,,SPR24_051,19,F,2024-04-16_14h26.37.087,jersey_experiment_5_v0,2023.2.2,Win32,84.03361345,,,,,,,,,,,,,,,,289.849,290.8958,290.8958,292.0018,return,0.548,,61.328125,,,,,,FBP-YG-71.png,0.4,1.2,18,0.25,0,20,20,17,1,,,,,,,,,,,,,,,,,,,,,,,,,,,,,,,,,,,,,,,,
,,,,,SPR24_051,19,F,2024-04-16_14h26.37.087,jersey_experiment_5_v0,2023.2.2,Win32,84.03361345,,,,,,,,,,,,,,,,292.002,293.2959,293.296,295.0254,return,0.6401,,74.609375,,,,,,FBP-OG-19.png,0.45,1.2,15,0.5,0,21,21,14,1,,,,,,,,,,,,,,,,,,,,,,,,,,,,,,,,,,,,,,,,
,,,,,SPR24_051,19,F,2024-04-16_14h26.37.087,jersey_experiment_5_v0,2023.2.2,Win32,84.03361345,,,,,,,,,,,,,,,,295.0257,296.3196,296.3198,297.4962,return,0.7286,,74.609375,,,,,,FBP-RB-81.png,0.43,1.2,39,0.5,0,22,22,38,1,,,,,,,,,,,,,,,,,,,,,,,,,,,,,,,,,,,,,,,,
,,,,,SPR24_051,19,F,2024-04-16_14h26.37.087,jersey_experiment_5_v0,2023.2.2,Win32,84.03361345,,,,,,,,,,,,,,,,297.4964,298.7904,298.7904,300.2492,return,0.5646,,49.73958333,,,,,,FBP-OG-19.png,0.35,1.2,11,0.5,0,23,23,10,1,,,,,,,,,,,,,,,,,,,,,,,,,,,,,,,,,,,,,,,,
,,,,,SPR24_051,19,F,2024-04-16_14h26.37.087,jersey_experiment_5_v0,2023.2.2,Win32,84.03361345,,,,,,,,,,,,,,,,300.2494,301.5435,301.5435,303.2022,return,0.5951,,49.21875,,,,,,FBP-RB-81.png,0.4,1.2,38,0.5,0,24,24,37,1,,,,,,,,,,,,,,,,,,,,,,,,,,,,,,,,,,,,,,,,
,,,,,SPR24_051,19,F,2024-04-16_14h26.37.087,jersey_experiment_5_v0,2023.2.2,Win32,84.03361345,,,,,,,,,,,,,,,,303.2024,304.4963,304.4964,305.8729,return,0.5703,,36.71875,,,,,,FBP-OG-17.png,0.35,1.2,1,0.5,0,25,25,0,1,,,,,,,,,,,,,,,,,,,,,,,,,,,,,,,,,,,,,,,,
,,,,,SPR24_051,19,F,2024-04-16_14h26.37.087,jersey_experiment_5_v0,2023.2.2,Win32,84.03361345,,,,,,,,,,,,,,,,305.8731,307.1669,307.1669,308.1672,return,0.5191,,36.71875,,,,,,FBP-RB-81.png,0.37,1.2,37,0.5,0,26,26,36,1,,,,,,,,,,,,,,,,,,,,,,,,,,,,,,,,,,,,,,,,
,,,,,SPR24_051,19,F,2024-04-16_14h26.37.087,jersey_experiment_5_v0,2023.2.2,Win32,84.03361345,,,,,,,,,,,,,,,,308.1674,309.2142,309.2143,310.8967,return,0.5024,,62.890625,,,,,,FBP-PT-71.png,0.43,1.2,49,0.25,0,27,27,48,1,,,,,,,,,,,,,,,,,,,,,,,,,,,,,,,,,,,,,,,,
,,,,,SPR24_051,19,F,2024-04-16_14h26.37.087,jersey_experiment_5_v0,2023.2.2,Win32,84.03361345,,,,,,,,,,,,,,,,310.8968,312.1907,312.1907,313.2261,return,0.5179,,62.890625,,,,,,FBP-OG-17.png,0.43,1.2,4,0.5,0,28,28,3,1,,,,,,,,,,,,,,,,,,,,,,,,,,,,,,,,,,,,,,,,
,,,,,SPR24_051,19,F,2024-04-16_14h26.37.087,jersey_experiment_5_v0,2023.2.2,Win32,84.03361345,,,,,,,,,,,,,,,,313.2264,314.2733,314.2733,315.8026,return,0.6121,,73.828125,,,,,,FBP-PT-91.png,0.45,1.2,60,0.25,0,29,29,59,1,,,,,,,,,,,,,,,,,,,,,,,,,,,,,,,,,,,,,,,,
,,,,,SPR24_051,19,F,2024-04-16_14h26.37.087,jersey_experiment_5_v0,2023.2.2,Win32,84.03361345,,,,,,,,,,,,,,,,315.8028,316.8497,316.8497,318.5438,return,0.9126,,61.97916667,,,,,,FBP-YG-91.png,0.37,1.2,27,0.25,0,30,30,26,1,,,,,,,,,,,,,,,,,,,,,,,,,,,,,,,,,,,,,,,,
,,,,,SPR24_051,19,F,2024-04-16_14h26.37.087,jersey_experiment_5_v0,2023.2.2,Win32,84.03361345,,,,,,,,,,,,,,,,318.544,319.5909,319.591,321.2499,return,0.6518,,50.26041667,,,,,,FBP-PT-71.png,0.37,1.2,47,0.25,0,31,31,46,1,,,,,,,,,,,,,,,,,,,,,,,,,,,,,,,,,,,,,,,,
,,,,,SPR24_051,19,F,2024-04-16_14h26.37.087,jersey_experiment_5_v0,2023.2.2,Win32,84.03361345,,,,,,,,,,,,,,,,321.2501,322.297,322.297,324.0383,return,0.5318,,74.47916667,,,,,,FBP-PT-71.png,0.45,1.2,50,0.25,0,32,32,49,1,,,,,,,,,,,,,,,,,,,,,,,,,,,,,,,,,,,,,,,,
,,,,,SPR24_051,19,F,2024-04-16_14h26.37.087,jersey_experiment_5_v0,2023.2.2,Win32,84.03361345,,,,,,,,,,,,,,,,324.0385,325.3325,325.3325,327.1677,return,0.6088,,49.609375,,,,,,FBP-RB-81.png,0.35,1.2,36,0.5,0,33,33,35,1,,,,,,,,,,,,,,,,,,,,,,,,,,,,,,,,,,,,,,,,
,,,,,SPR24_051,19,F,2024-04-16_14h26.37.087,jersey_experiment_5_v0,2023.2.2,Win32,84.03361345,,,,,,,,,,,,,,,,327.1679,328.2148,328.2148,330.0385,return,0.5887,,60.02604167,,,,,,FBP-PT-81.png,0.4,1.2,53,0.25,0,34,34,52,1,,,,,,,,,,,,,,,,,,,,,,,,,,,,,,,,,,,,,,,,
,,,,,SPR24_051,19,F,2024-04-16_14h26.37.087,jersey_experiment_5_v0,2023.2.2,Win32,84.03361345,,,,,,,,,,,,,,,,330.0387,331.0855,331.0855,332.9209,return,0.5652,,75.13020833,,,,,,FBP-PT-91.png,0.43,1.2,59,0.25,0,35,35,58,1,,,,,,,,,,,,,,,,,,,,,,,,,,,,,,,,,,,,,,,,
,,,,,SPR24_051,19,F,2024-04-16_14h26.37.087,jersey_experiment_5_v0,2023.2.2,Win32,84.03361345,,,,,,,,,,,,,,,,332.9211,334.2151,334.2152,336.4034,return,0.5699,,74.609375,,,,,,FBP-RB-71.png,0.43,1.2,34,0.5,0,36,36,33,1,,,,,,,,,,,,,,,,,,,,,,,,,,,,,,,,,,,,,,,,
,,,,,SPR24_051,19,F,2024-04-16_14h26.37.087,jersey_experiment_5_v0,2023.2.2,Win32,84.03361345,,,,,,,,,,,,,,,,336.4037,337.4505,337.4505,338.6506,return,0.5794,,74.609375,,,,,,FBP-YG-91.png,0.43,1.2,29,0.25,0,37,37,28,1,,,,,,,,,,,,,,,,,,,,,,,,,,,,,,,,,,,,,,,,
,,,,,SPR24_051,19,F,2024-04-16_14h26.37.087,jersey_experiment_5_v0,2023.2.2,Win32,84.03361345,,,,,,,,,,,,,,,,338.6508,339.6975,339.6975,340.839,return,0.6352,,74.609375,,,,,,FBP-YG-81.png,0.43,1.2,24,0.25,0,38,38,23,1,,,,,,,,,,,,,,,,,,,,,,,,,,,,,,,,,,,,,,,,
,,,,,SPR24_051,19,F,2024-04-16_14h26.37.087,jersey_experiment_5_v0,2023.2.2,Win32,84.03361345,,,,,,,,,,,,,,,,340.8392,341.8859,341.8859,343.8272,return,1.3587,,61.84895833,,,,,,FBP-PT-71.png,0.4,1.2,48,0.25,0,39,39,47,1,,,,,,,,,,,,,,,,,,,,,,,,,,,,,,,,,,,,,,,,
,,,,,SPR24_051,19,F,2024-04-16_14h26.37.087,jersey_experiment_5_v0,2023.2.2,Win32,84.03361345,,,,,,,,,,,,,,,,343.8275,345.1212,345.1213,349.2156,return,1.4655,,74.47916667,,,,,,FBP-RB-71.png,0.45,1.2,35,0.5,0,40,40,34,1,,,,,,,,,,,,,,,,,,,,,,,,,,,,,,,,,,,,,,,,
,,,,,SPR24_051,19,F,2024-04-16_14h26.37.087,jersey_experiment_5_v0,2023.2.2,Win32,84.03361345,,,,,,,,,,,,,,,,349.2158,350.2627,350.2627,352.3453,return,0.7429,,23.56770833,,,,,,FBP-YG-81.png,0.35,1.2,21,0.25,0,41,41,20,1,,,,,,,,,,,,,,,,,,,,,,,,,,,,,,,,,,,,,,,,
,,,,,SPR24_051,19,F,2024-04-16_14h26.37.087,jersey_experiment_5_v0,2023.2.2,Win32,84.03361345,,,,,,,,,,,,,,,,352.3455,353.3921,353.3921,355.2394,return,0.6732,,38.80208333,,,,,,FBP-PT-91.png,0.4,1.2,58,0.25,0,42,42,57,1,,,,,,,,,,,,,,,,,,,,,,,,,,,,,,,,,,,,,,,,
,,,,,SPR24_051,19,F,2024-04-16_14h26.37.087,jersey_experiment_5_v0,2023.2.2,Win32,84.03361345,,,,,,,,,,,,,,,,355.2395,356.2864,356.2864,358.0158,return,0.5618,,64.71354167,,,,,,FBP-PT-81.png,0.45,1.2,55,0.25,0,43,43,54,1,,,,,,,,,,,,,,,,,,,,,,,,,,,,,,,,,,,,,,,,
,,,,,SPR24_051,19,F,2024-04-16_14h26.37.087,jersey_experiment_5_v0,2023.2.2,Win32,84.03361345,,,,,,,,,,,,,,,,358.0162,359.3102,359.3103,361.3454,return,0.5485,,74.609375,,,,,,FBP-OG-18.png,0.45,1.2,10,0.5,0,44,44,9,1,,,,,,,,,,,,,,,,,,,,,,,,,,,,,,,,,,,,,,,,
,,,,,SPR24_051,19,F,2024-04-16_14h26.37.087,jersey_experiment_5_v0,2023.2.2,Win32,84.03361345,,,,,,,,,,,,,,,,361.3456,362.3925,362.3926,364.2396,return,0.4797,,50.65104167,,,,,,FBP-YG-91.png,0.35,1.2,26,0.25,0,45,45,25,1,,,,,,,,,,,,,,,,,,,,,,,,,,,,,,,,,,,,,,,,
,,,,,SPR24_051,19,F,2024-04-16_14h26.37.087,jersey_experiment_5_v0,2023.2.2,Win32,84.03361345,,,,,,,,,,,,,,,,364.2399,365.5337,365.5338,367.1224,return,0.5686,,49.73958333,,,,,,FBP-OG-18.png,0.4,1.2,8,0.5,0,46,46,7,1,,,,,,,,,,,,,,,,,,,,,,,,,,,,,,,,,,,,,,,,
,,,,,SPR24_051,19,F,2024-04-16_14h26.37.087,jersey_experiment_5_v0,2023.2.2,Win32,84.03361345,,,,,,,,,,,,,,,,367.1225,368.1692,368.1692,370.0869,return,0.5883,,63.80208333,,,,,,FBP-YG-71.png,0.43,1.2,19,0.25,0,47,47,18,1,,,,,,,,,,,,,,,,,,,,,,,,,,,,,,,,,,,,,,,,
,,,,,SPR24_051,19,F,2024-04-16_14h26.37.087,jersey_experiment_5_v0,2023.2.2,Win32,84.03361345,,,,,,,,,,,,,,,,370.0872,371.381,371.381,373.193,return,0.5879,,38.02083333,,,,,,FBP-RB-91.png,0.35,1.2,41,0.5,0,48,48,40,1,,,,,,,,,,,,,,,,,,,,,,,,,,,,,,,,,,,,,,,,
,,,,,SPR24_051,19,F,2024-04-16_14h26.37.087,jersey_experiment_5_v0,2023.2.2,Win32,84.03361345,,,,,,,,,,,,,,,,373.1933,374.24,374.24,376.6755,return,0.5674,,36.06770833,,,,,,FBP-YG-71.png,0.37,1.2,17,0.25,0,49,49,16,1,,,,,,,,,,,,,,,,,,,,,,,,,,,,,,,,,,,,,,,,
,,,,,SPR24_051,19,F,2024-04-16_14h26.37.087,jersey_experiment_5_v0,2023.2.2,Win32,84.03361345,,,,,,,,,,,,,,,,376.6756,377.9696,377.9696,380.3107,return,0.4252,,24.73958333,,,,,,FBP-OG-18.png,0.35,1.2,6,0.5,0,50,50,5,1,,,,,,,,,,,,,,,,,,,,,,,,,,,,,,,,,,,,,,,,
,,,,,SPR24_051,19,F,2024-04-16_14h26.37.087,jersey_experiment_5_v0,2023.2.2,Win32,84.03361345,,,,,,,,,,,,,,,,380.3108,381.3579,381.358,382.8639,return,0.2564,,75.26041667,,,,,,FBP-YG-71.png,0.45,1.2,20,0.25,0,51,51,19,1,,,,,,,,,,,,,,,,,,,,,,,,,,,,,,,,,,,,,,,,
,,,,,SPR24_051,19,F,2024-04-16_14h26.37.087,jersey_experiment_5_v0,2023.2.2,Win32,84.03361345,,,,,,,,,,,,,,,,382.8643,383.911,383.911,385.511,return,0.2606,,49.73958333,,,,,,FBP-PT-91.png,0.37,1.2,57,0.25,0,52,52,56,1,,,,,,,,,,,,,,,,,,,,,,,,,,,,,,,,,,,,,,,,
,,,,,SPR24_051,19,F,2024-04-16_14h26.37.087,jersey_experiment_5_v0,2023.2.2,Win32,84.03361345,,,,,,,,,,,,,,,,385.5112,386.8051,386.8051,388.3109,return,0.0103,,49.73958333,,,,,,FBP-OG-18.png,0.37,1.2,7,0.5,0,53,53,6,1,,,,,,,,,,,,,,,,,,,,,,,,,,,,,,,,,,,,,,,,
,,,,,SPR24_051,19,F,2024-04-16_14h26.37.087,jersey_experiment_5_v0,2023.2.2,Win32,84.03361345,,,,,,,,,,,,,,,,388.3112,389.6051,389.6052,390.8994,return,0.2036,,74.34895833,,,,,,FBP-RB-81.png,0.45,1.2,40,0.5,0,54,54,39,1,,,,,,,,,,,,,,,,,,,,,,,,,,,,,,,,,,,,,,,,
,,,,,SPR24_051,19,F,2024-04-16_14h26.37.087,jersey_experiment_5_v0,2023.2.2,Win32,84.03361345,,,,,,,,,,,,,,,,390.8996,391.9467,391.9468,394.0644,return,0.1613,,61.45833333,,,,,,FBP-YG-81.png,0.4,1.2,23,0.25,0,55,55,22,1,,,,,,,,,,,,,,,,,,,,,,,,,,,,,,,,,,,,,,,,
,,,,,SPR24_051,19,F,2024-04-16_14h26.37.087,jersey_experiment_5_v0,2023.2.2,Win32,84.03361345,,,,,,,,,,,,,,,,394.0647,395.1113,395.1113,396.4055,return,0.1681,,50.52083333,,,,,,FBP-YG-71.png,0.35,1.2,16,0.25,0,56,56,15,1,,,,,,,,,,,,,,,,,,,,,,,,,,,,,,,,,,,,,,,,
,,,,,SPR24_051,19,F,2024-04-16_14h26.37.087,jersey_experiment_5_v0,2023.2.2,Win32,84.03361345,,,,,,,,,,,,,,,,396.4057,397.4527,397.4528,398.7115,return,0.1661,,74.86979167,,,,,,FBP-YG-91.png,0.4,1.2,28,0.25,0,57,57,27,1,,,,,,,,,,,,,,,,,,,,,,,,,,,,,,,,,,,,,,,,
,,,,,SPR24_051,19,F,2024-04-16_14h26.37.087,jersey_experiment_5_v0,2023.2.2,Win32,84.03361345,,,,,,,,,,,,,,,,398.7116,399.7586,399.7587,400.4881,return,0.1562,,74.609375,,,,,,FBP-PT-81.png,0.43,1.2,54,0.25,0,58,58,53,1,,,,,,,,,,,,,,,,,,,,,,,,,,,,,,,,,,,,,,,,
,,,,,SPR24_051,19,F,2024-04-16_14h26.37.087,jersey_experiment_5_v0,2023.2.2,Win32,84.03361345,,,,,,,,,,,,,,,,400.4883,401.7824,401.7824,402.7705,return,0.0183,,62.63020833,,,,,,FBP-RB-71.png,0.37,1.2,32,0.5,0,59,59,31,1,,,,,,,,,,,,,,,,,,,,,,,,,,,,,,,,,,,,,,,,
,,,,,SPR24_051,19,F,2024-04-16_14h26.37.087,jersey_experiment_5_v0,2023.2.2,Win32,84.03361345,,,,,,,,,,,,,,,,,,,,,,,,,,,,,,,,,,,,,,,402.7707,522.7633,,,,,,,,,,,,,,,,,,,,,,,,,,,,,,,,,,,,,,
,,,,,SPR24_051,19,F,2024-04-16_14h26.37.087,jersey_experiment_5_v0,2023.2.2,Win32,84.03361345,,,,,,,,,,,,,,,,,,,,,,,,,,,,,,,,,,,,,,,,,522.7633,524.6926,return,1.9194,,,,,,,,,,,,,,,,,,,,,,,,,,,,,,,,,,
,,,,,SPR24_051,19,F,2024-04-16_14h26.37.087,jersey_experiment_5_v0,2023.2.2,Win32,84.03361345,,,,,,,,,,,,,,,,524.699,525.9984,525.9985,530.2927,return,1.9336,,49.73958333,,,,,,FBP-PT-19.png,0.35,1.2,56,0.5,,,,,,,,,,,,,0,0,0,55,1,,,,,,,,,,,,,,,,,,,,,,,,,,,,
,,,,,SPR24_051,19,F,2024-04-16_14h26.37.087,jersey_experiment_5_v0,2023.2.2,Win32,84.03361345,,,,,,,,,,,,,,,,530.293,531.3399,531.3399,532.9869,return,0.0939,,37.63020833,,,,,,FBP-OG-71.png,0.35,1.2,1,0.25,,,,,,,,,,,,,0,1,1,0,1,,,,,,,,,,,,,,,,,,,,,,,,,,,,
,,,,,SPR24_051,19,F,2024-04-16_14h26.37.087,jersey_experiment_5_v0,2023.2.2,Win32,84.03361345,,,,,,,,,,,,,,,,532.987,534.0339,534.0339,535.328,return,0.1116,,75,,,,,,FBP-RB-19.png,0.45,1.2,45,0.25,,,,,,,,,,,,,0,2,2,44,1,,,,,,,,,,,,,,,,,,,,,,,,,,,,
,,,,,SPR24_051,19,F,2024-04-16_14h26.37.087,jersey_experiment_5_v0,2023.2.2,Win32,84.03361345,,,,,,,,,,,,,,,,535.3283,536.3755,536.3755,538.4694,return,0.1091,,49.73958333,,,,,,FBP-RB-18.png,0.4,1.2,38,0.25,,,,,,,,,,,,,0,3,3,37,1,,,,,,,,,,,,,,,,,,,,,,,,,,,,
,,,,,SPR24_051,19,F,2024-04-16_14h26.37.087,jersey_experiment_5_v0,2023.2.2,Win32,84.03361345,,,,,,,,,,,,,,,,538.4698,539.5164,539.5165,540.4695,return,0.0481,,61.06770833,,,,,,FBP-RB-17.png,0.43,1.2,34,0.25,,,,,,,,,,,,,0,4,4,33,1,,,,,,,,,,,,,,,,,,,,,,,,,,,,
,,,,,SPR24_051,19,F,2024-04-16_14h26.37.087,jersey_experiment_5_v0,2023.2.2,Win32,84.03361345,,,,,,,,,,,,,,,,540.4697,541.5166,541.5166,542.5167,return,0.0629,,50,,,,,,FBP-OG-71.png,0.37,1.2,2,0.25,,,,,,,,,,,,,0,5,5,1,1,,,,,,,,,,,,,,,,,,,,,,,,,,,,
,,,,,SPR24_051,19,F,2024-04-16_14h26.37.087,jersey_experiment_5_v0,2023.2.2,Win32,84.03361345,,,,,,,,,,,,,,,,542.5169,543.8108,543.8109,545.2343,return,0.1242,,75.26041667,,,,,,FBP-YG-18.png,0.45,1.2,25,0.5,,,,,,,,,,,,,0,6,6,24,1,,,,,,,,,,,,,,,,,,,,,,,,,,,,
,,,,,SPR24_051,19,F,2024-04-16_14h26.37.087,jersey_experiment_5_v0,2023.2.2,Win32,84.03361345,,,,,,,,,,,,,,,,545.2345,546.5285,546.5286,548.1521,return,0.339,,62.63020833,,,,,,FBP-YG-18.png,0.37,1.2,22,0.5,,,,,,,,,,,,,0,7,7,21,1,,,,,,,,,,,,,,,,,,,,,,,,,,,,
,,,,,SPR24_051,19,F,2024-04-16_14h26.37.087,jersey_experiment_5_v0,2023.2.2,Win32,84.03361345,,,,,,,,,,,,,,,,548.1523,549.4462,549.4462,550.6463,return,0.7553,,62.36979167,,,,,,FBP-YG-18.png,0.4,1.2,23,0.5,,,,,,,,,,,,,0,8,8,22,1,,,,,,,,,,,,,,,,,,,,,,,,,,,,
,,,,,SPR24_051,19,F,2024-04-16_14h26.37.087,jersey_experiment_5_v0,2023.2.2,Win32,84.03361345,,,,,,,,,,,,,,,,550.6465,551.9406,551.9406,553.1406,return,0.1551,,49.47916667,,,,,,FBP-PT-19.png,0.37,1.2,57,0.5,,,,,,,,,,,,,0,9,9,56,1,,,,,,,,,,,,,,,,,,,,,,,,,,,,
,,,,,SPR24_051,19,F,2024-04-16_14h26.37.087,jersey_experiment_5_v0,2023.2.2,Win32,84.03361345,,,,,,,,,,,,,,,,553.1408,554.4347,554.4348,555.5524,return,0.2316,,36.06770833,,,,,,FBP-PT-18.png,0.35,1.2,51,0.5,,,,,,,,,,,,,0,10,10,50,1,,,,,,,,,,,,,,,,,,,,,,,,,,,,
,,,,,SPR24_051,19,F,2024-04-16_14h26.37.087,jersey_experiment_5_v0,2023.2.2,Win32,84.03361345,,,,,,,,,,,,,,,,555.5527,556.5994,556.5995,557.5994,return,0.0446,,25.13020833,,,,,,FBP-OG-91.png,0.37,1.2,12,0.25,,,,,,,,,,,,,0,11,11,11,1,,,,,,,,,,,,,,,,,,,,,,,,,,,,
,,,,,SPR24_051,19,F,2024-04-16_14h26.37.087,jersey_experiment_5_v0,2023.2.2,Win32,84.03361345,,,,,,,,,,,,,,,,557.5997,558.6466,558.6466,559.8937,return,0.1064,,36.45833333,,,,,,FBP-RB-17.png,0.37,1.2,32,0.25,,,,,,,,,,,,,0,12,12,31,1,,,,,,,,,,,,,,,,,,,,,,,,,,,,
,,,,,SPR24_051,19,F,2024-04-16_14h26.37.087,jersey_experiment_5_v0,2023.2.2,Win32,84.03361345,,,,,,,,,,,,,,,,559.894,560.9409,560.9409,562.3409,return,0.1214,,61.97916667,,,,,,FBP-RB-19.png,0.4,1.2,43,0.25,,,,,,,,,,,,,0,13,13,42,1,,,,,,,,,,,,,,,,,,,,,,,,,,,,
,,,,,SPR24_051,19,F,2024-04-16_14h26.37.087,jersey_experiment_5_v0,2023.2.2,Win32,84.03361345,,,,,,,,,,,,,,,,562.341,563.6351,563.6351,564.4822,return,0.1712,,73.828125,,,,,,FBP-PT-18.png,0.45,1.2,55,0.5,,,,,,,,,,,,,0,14,14,54,1,,,,,,,,,,,,,,,,,,,,,,,,,,,,
,,,,,SPR24_051,19,F,2024-04-16_14h26.37.087,jersey_experiment_5_v0,2023.2.2,Win32,84.03361345,,,,,,,,,,,,,,,,564.4823,565.7764,565.7764,566.4587,return,0.0942,,63.02083333,,,,,,FBP-YG-18.png,0.35,1.2,21,0.5,,,,,,,,,,,,,0,15,15,20,1,,,,,,,,,,,,,,,,,,,,,,,,,,,,
,,,,,SPR24_051,19,F,2024-04-16_14h26.37.087,jersey_experiment_5_v0,2023.2.2,Win32,84.03361345,,,,,,,,,,,,,,,,566.4589,567.7528,567.7528,568.5293,return,0.0634,,74.73958333,,,,,,FBP-PT-17.png,0.45,1.2,50,0.5,,,,,,,,,,,,,0,16,16,49,1,,,,,,,,,,,,,,,,,,,,,,,,,,,,
,,,,,SPR24_051,19,F,2024-04-16_14h26.37.087,jersey_experiment_5_v0,2023.2.2,Win32,84.03361345,,,,,,,,,,,,,,,,568.5295,569.8234,569.8234,570.9294,return,0.5014,,74.73958333,,,,,,FBP-YG-17.png,0.45,1.2,20,0.5,,,,,,,,,,,,,0,17,17,19,1,,,,,,,,,,,,,,,,,,,,,,,,,,,,
,,,,,SPR24_051,19,F,2024-04-16_14h26.37.087,jersey_experiment_5_v0,2023.2.2,Win32,84.03361345,,,,,,,,,,,,,,,,570.9296,572.2236,572.2237,574.2589,return,1.5236,,50.390625,,,,,,FBP-YG-19.png,0.35,1.2,26,0.5,,,,,,,,,,,,,0,18,18,25,1,,,,,,,,,,,,,,,,,,,,,,,,,,,,
,,,,,SPR24_051,19,F,2024-04-16_14h26.37.087,jersey_experiment_5_v0,2023.2.2,Win32,84.03361345,,,,,,,,,,,,,,,,574.2592,575.5532,575.5532,576.6237,return,0.0655,,74.73958333,,,,,,FBP-PT-19.png,0.45,1.2,60,0.5,,,,,,,,,,,,,0,19,19,59,1,,,,,,,,,,,,,,,,,,,,,,,,,,,,
,,,,,SPR24_051,19,F,2024-04-16_14h26.37.087,jersey_experiment_5_v0,2023.2.2,Win32,84.03361345,,,,,,,,,,,,,,,,576.6239,577.9178,577.9178,579.5767,return,0.2117,,50,,,,,,FBP-YG-17.png,0.35,1.2,16,0.5,,,,,,,,,,,,,0,20,20,15,1,,,,,,,,,,,,,,,,,,,,,,,,,,,,
,,,,,SPR24_051,19,F,2024-04-16_14h26.37.087,jersey_experiment_5_v0,2023.2.2,Win32,84.03361345,,,,,,,,,,,,,,,,579.5769,580.871,580.871,581.5415,return,0.2242,,50.390625,,,,,,FBP-PT-18.png,0.37,1.2,52,0.5,,,,,,,,,,,,,0,21,21,51,1,,,,,,,,,,,,,,,,,,,,,,,,,,,,
,,,,,SPR24_051,19,F,2024-04-16_14h26.37.087,jersey_experiment_5_v0,2023.2.2,Win32,84.03361345,,,,,,,,,,,,,,,,581.5417,582.5887,582.5887,584.0358,return,0.099,,75,,,,,,FBP-OG-71.png,0.43,1.2,4,0.25,,,,,,,,,,,,,0,22,22,3,1,,,,,,,,,,,,,,,,,,,,,,,,,,,,
,,,,,SPR24_051,19,F,2024-04-16_14h26.37.087,jersey_experiment_5_v0,2023.2.2,Win32,84.03361345,,,,,,,,,,,,,,,,584.0362,585.083,585.083,585.8475,return,0.105,,75,,,,,,FBP-RB-18.png,0.43,1.2,39,0.25,,,,,,,,,,,,,0,23,23,38,1,,,,,,,,,,,,,,,,,,,,,,,,,,,,
,,,,,SPR24_051,19,F,2024-04-16_14h26.37.087,jersey_experiment_5_v0,2023.2.2,Win32,84.03361345,,,,,,,,,,,,,,,,585.8477,586.8946,586.8946,587.4714,return,0.0892,,75,,,,,,FBP-OG-91.png,0.4,1.2,13,0.25,,,,,,,,,,,,,0,24,24,12,1,,,,,,,,,,,,,,,,,,,,,,,,,,,,
,,,,,SPR24_051,19,F,2024-04-16_14h26.37.087,jersey_experiment_5_v0,2023.2.2,Win32,84.03361345,,,,,,,,,,,,,,,,587.4715,588.5184,588.5184,589.3654,return,0.1187,,63.93229167,,,,,,FBP-OG-91.png,0.35,1.2,11,0.25,,,,,,,,,,,,,0,25,25,10,1,,,,,,,,,,,,,,,,,,,,,,,,,,,,
,,,,,SPR24_051,19,F,2024-04-16_14h26.37.087,jersey_experiment_5_v0,2023.2.2,Win32,84.03361345,,,,,,,,,,,,,,,,589.3656,590.4124,590.4124,591.7302,return,0.1241,,75.26041667,,,,,,FBP-OG-81.png,0.45,1.2,10,0.25,,,,,,,,,,,,,0,26,26,9,1,,,,,,,,,,,,,,,,,,,,,,,,,,,,
,,,,,SPR24_051,19,F,2024-04-16_14h26.37.087,jersey_experiment_5_v0,2023.2.2,Win32,84.03361345,,,,,,,,,,,,,,,,591.7303,592.7773,592.7774,593.542,return,0.106,,62.76041667,,,,,,FBP-RB-17.png,0.4,1.2,33,0.25,,,,,,,,,,,,,0,27,27,32,1,,,,,,,,,,,,,,,,,,,,,,,,,,,,
,,,,,SPR24_051,19,F,2024-04-16_14h26.37.087,jersey_experiment_5_v0,2023.2.2,Win32,84.03361345,,,,,,,,,,,,,,,,593.5422,594.8361,594.8361,595.2715,return,0.1657,,62.76041667,,,,,,FBP-PT-19.png,0.4,1.2,58,0.5,,,,,,,,,,,,,0,28,28,57,1,,,,,,,,,,,,,,,,,,,,,,,,,,,,
,,,,,SPR24_051,19,F,2024-04-16_14h26.37.087,jersey_experiment_5_v0,2023.2.2,Win32,84.03361345,,,,,,,,,,,,,,,,595.2717,596.5657,596.5657,597.5541,return,0.0748,,75,,,,,,FBP-PT-18.png,0.43,1.2,54,0.5,,,,,,,,,,,,,0,29,29,53,1,,,,,,,,,,,,,,,,,,,,,,,,,,,,
,,,,,SPR24_051,19,F,2024-04-16_14h26.37.087,jersey_experiment_5_v0,2023.2.2,Win32,84.03361345,,,,,,,,,,,,,,,,597.5544,598.8481,598.8481,599.5422,return,0.3553,,75,,,,,,FBP-PT-17.png,0.4,1.2,48,0.5,,,,,,,,,,,,,0,30,30,47,1,,,,,,,,,,,,,,,,,,,,,,,,,,,,
,,,,,SPR24_051,19,F,2024-04-16_14h26.37.087,jersey_experiment_5_v0,2023.2.2,Win32,84.03361345,,,,,,,,,,,,,,,,599.5425,600.5894,600.5894,601.307,return,0.1739,,75,,,,,,FBP-OG-81.png,0.43,1.2,9,0.25,,,,,,,,,,,,,0,31,31,8,1,,,,,,,,,,,,,,,,,,,,,,,,,,,,
,,,,,SPR24_051,19,F,2024-04-16_14h26.37.087,jersey_experiment_5_v0,2023.2.2,Win32,84.03361345,,,,,,,,,,,,,,,,601.3072,602.601,602.6011,603.3071,return,0.1273,,75,,,,,,FBP-YG-19.png,0.45,1.2,30,0.5,,,,,,,,,,,,,0,32,32,29,1,,,,,,,,,,,,,,,,,,,,,,,,,,,,
,,,,,SPR24_051,19,F,2024-04-16_14h26.37.087,jersey_experiment_5_v0,2023.2.2,Win32,84.03361345,,,,,,,,,,,,,,,,603.3073,604.6012,604.6013,605.0717,return,0.2209,,75,,,,,,FBP-PT-19.png,0.43,1.2,59,0.5,,,,,,,,,,,,,0,33,33,58,1,,,,,,,,,,,,,,,,,,,,,,,,,,,,
,,,,,SPR24_051,19,F,2024-04-16_14h26.37.087,jersey_experiment_5_v0,2023.2.2,Win32,84.03361345,,,,,,,,,,,,,,,,605.0719,606.3661,606.3661,607.3661,return,0.0615,,61.71875,,,,,,FBP-PT-18.png,0.4,1.2,53,0.5,,,,,,,,,,,,,0,34,34,52,1,,,,,,,,,,,,,,,,,,,,,,,,,,,,
,,,,,SPR24_051,19,F,2024-04-16_14h26.37.087,jersey_experiment_5_v0,2023.2.2,Win32,84.03361345,,,,,,,,,,,,,,,,607.3663,608.6601,608.6602,610.0837,return,0.711,,61.71875,,,,,,FBP-YG-19.png,0.37,1.2,27,0.5,,,,,,,,,,,,,0,35,35,26,1,,,,,,,,,,,,,,,,,,,,,,,,,,,,
,,,,,SPR24_051,19,F,2024-04-16_14h26.37.087,jersey_experiment_5_v0,2023.2.2,Win32,84.03361345,,,,,,,,,,,,,,,,610.0839,611.1308,611.1308,612.5193,return,0.1406,,75.26041667,,,,,,FBP-RB-19.png,0.43,1.2,44,0.25,,,,,,,,,,,,,0,36,36,43,1,,,,,,,,,,,,,,,,,,,,,,,,,,,,
,,,,,SPR24_051,19,F,2024-04-16_14h26.37.087,jersey_experiment_5_v0,2023.2.2,Win32,84.03361345,,,,,,,,,,,,,,,,612.5195,613.5662,613.5663,614.2134,return,0.0949,,75.26041667,,,,,,FBP-RB-18.png,0.45,1.2,40,0.25,,,,,,,,,,,,,0,37,37,39,1,,,,,,,,,,,,,,,,,,,,,,,,,,,,
,,,,,SPR24_051,19,F,2024-04-16_14h26.37.087,jersey_experiment_5_v0,2023.2.2,Win32,84.03361345,,,,,,,,,,,,,,,,614.2136,615.5075,615.5076,616.0722,return,0.0713,,74.47916667,,,,,,FBP-YG-17.png,0.4,1.2,18,0.5,,,,,,,,,,,,,0,38,38,17,1,,,,,,,,,,,,,,,,,,,,,,,,,,,,
,,,,,SPR24_051,19,F,2024-04-16_14h26.37.087,jersey_experiment_5_v0,2023.2.2,Win32,84.03361345,,,,,,,,,,,,,,,,616.0724,617.1192,617.1193,617.99,return,0.1201,,74.34895833,,,,,,FBP-RB-17.png,0.45,1.2,35,0.25,,,,,,,,,,,,,0,39,39,34,1,,,,,,,,,,,,,,,,,,,,,,,,,,,,
,,,,,SPR24_051,19,F,2024-04-16_14h26.37.087,jersey_experiment_5_v0,2023.2.2,Win32,84.03361345,,,,,,,,,,,,,,,,617.9902,619.0371,619.0372,620.7078,return,0.12,,75.13020833,,,,,,FBP-OG-91.png,0.43,1.2,14,0.25,,,,,,,,,,,,,0,40,40,13,1,,,,,,,,,,,,,,,,,,,,,,,,,,,,
,,,,,SPR24_051,19,F,2024-04-16_14h26.37.087,jersey_experiment_5_v0,2023.2.2,Win32,84.03361345,,,,,,,,,,,,,,,,620.7079,621.7548,621.7548,623.4019,return,0.0004,,50,,,,,,FBP-OG-81.png,0.37,1.2,7,0.25,,,,,,,,,,,,,0,41,41,6,1,,,,,,,,,,,,,,,,,,,,,,,,,,,,
,,,,,SPR24_051,19,F,2024-04-16_14h26.37.087,jersey_experiment_5_v0,2023.2.2,Win32,84.03361345,,,,,,,,,,,,,,,,623.4021,624.449,624.449,627.0138,return,0.1321,,24.47916667,,,,,,FBP-OG-81.png,0.35,1.2,6,0.25,,,,,,,,,,,,,0,42,42,5,1,,,,,,,,,,,,,,,,,,,,,,,,,,,,
,,,,,SPR24_051,19,F,2024-04-16_14h26.37.087,jersey_experiment_5_v0,2023.2.2,Win32,84.03361345,,,,,,,,,,,,,,,,627.014,628.0608,628.0608,629.6257,return,0.0713,,25.26041667,,,,,,FBP-RB-19.png,0.35,1.2,41,0.25,,,,,,,,,,,,,0,43,43,40,1,,,,,,,,,,,,,,,,,,,,,,,,,,,,
,,,,,SPR24_051,19,F,2024-04-16_14h26.37.087,jersey_experiment_5_v0,2023.2.2,Win32,84.03361345,,,,,,,,,,,,,,,,629.6259,630.6728,630.6729,631.7435,return,0.0914,,37.76041667,,,,,,FBP-RB-18.png,0.37,1.2,37,0.25,,,,,,,,,,,,,0,44,44,36,1,,,,,,,,,,,,,,,,,,,,,,,,,,,,
,,,,,SPR24_051,19,F,2024-04-16_14h26.37.087,jersey_experiment_5_v0,2023.2.2,Win32,84.03361345,,,,,,,,,,,,,,,,631.7436,632.7905,632.7905,633.8258,return,0.1103,,49.47916667,,,,,,FBP-RB-17.png,0.35,1.2,31,0.25,,,,,,,,,,,,,0,45,45,30,1,,,,,,,,,,,,,,,,,,,,,,,,,,,,
,,,,,SPR24_051,19,F,2024-04-16_14h26.37.087,jersey_experiment_5_v0,2023.2.2,Win32,84.03361345,,,,,,,,,,,,,,,,633.8261,635.1198,635.1198,636.473,return,0.0608,,74.609375,,,,,,FBP-YG-17.png,0.43,1.2,19,0.5,,,,,,,,,,,,,0,46,46,18,1,,,,,,,,,,,,,,,,,,,,,,,,,,,,
,,,,,SPR24_051,19,F,2024-04-16_14h26.37.087,jersey_experiment_5_v0,2023.2.2,Win32,84.03361345,,,,,,,,,,,,,,,,636.4733,637.52,637.52,638.2494,return,0.1889,,73.69791667,,,,,,FBP-OG-71.png,0.45,1.2,5,0.25,,,,,,,,,,,,,0,47,47,4,1,,,,,,,,,,,,,,,,,,,,,,,,,,,,
,,,,,SPR24_051,19,F,2024-04-16_14h26.37.087,jersey_experiment_5_v0,2023.2.2,Win32,84.03361345,,,,,,,,,,,,,,,,638.2496,639.2966,639.2967,640.6144,return,0.2028,,50.52083333,,,,,,FBP-OG-71.png,0.4,1.2,3,0.25,,,,,,,,,,,,,0,48,48,2,1,,,,,,,,,,,,,,,,,,,,,,,,,,,,
,,,,,SPR24_051,19,F,2024-04-16_14h26.37.087,jersey_experiment_5_v0,2023.2.2,Win32,84.03361345,,,,,,,,,,,,,,,,640.6145,641.9085,641.9086,643.3791,return,0.0996,,62.63020833,,,,,,FBP-YG-18.png,0.43,1.2,24,0.5,,,,,,,,,,,,,0,49,49,23,1,,,,,,,,,,,,,,,,,,,,,,,,,,,,
,,,,,SPR24_051,19,F,2024-04-16_14h26.37.087,jersey_experiment_5_v0,2023.2.2,Win32,84.03361345,,,,,,,,,,,,,,,,643.3793,644.4262,644.4262,645.5556,return,0.0965,,49.73958333,,,,,,FBP-RB-19.png,0.37,1.2,42,0.25,,,,,,,,,,,,,0,50,50,41,1,,,,,,,,,,,,,,,,,,,,,,,,,,,,
,,,,,SPR24_051,19,F,2024-04-16_14h26.37.087,jersey_experiment_5_v0,2023.2.2,Win32,84.03361345,,,,,,,,,,,,,,,,645.5558,646.6027,646.6027,647.344,return,0.1146,,49.73958333,,,,,,FBP-RB-18.png,0.35,1.2,36,0.25,,,,,,,,,,,,,0,51,51,35,1,,,,,,,,,,,,,,,,,,,,,,,,,,,,
,,,,,SPR24_051,19,F,2024-04-16_14h26.37.087,jersey_experiment_5_v0,2023.2.2,Win32,84.03361345,,,,,,,,,,,,,,,,647.3441,648.6381,648.6381,650.0972,return,0.0897,,74.609375,,,,,,FBP-YG-19.png,0.4,1.2,28,0.5,,,,,,,,,,,,,0,52,52,27,1,,,,,,,,,,,,,,,,,,,,,,,,,,,,
,,,,,SPR24_051,19,F,2024-04-16_14h26.37.087,jersey_experiment_5_v0,2023.2.2,Win32,84.03361345,,,,,,,,,,,,,,,,650.0975,651.3912,651.3913,652.4029,return,0.1118,,74.73958333,,,,,,FBP-YG-19.png,0.43,1.2,29,0.5,,,,,,,,,,,,,0,53,53,28,1,,,,,,,,,,,,,,,,,,,,,,,,,,,,
,,,,,SPR24_051,19,F,2024-04-16_14h26.37.087,jersey_experiment_5_v0,2023.2.2,Win32,84.03361345,,,,,,,,,,,,,,,,652.4032,653.6972,653.6972,655.3795,return,0.0991,,62.5,,,,,,FBP-YG-17.png,0.37,1.2,17,0.5,,,,,,,,,,,,,0,54,54,16,1,,,,,,,,,,,,,,,,,,,,,,,,,,,,
,,,,,SPR24_051,19,F,2024-04-16_14h26.37.087,jersey_experiment_5_v0,2023.2.2,Win32,84.03361345,,,,,,,,,,,,,,,,655.3796,656.6736,656.6736,657.6973,return,0.2173,,50.13020833,,,,,,FBP-PT-17.png,0.35,1.2,46,0.5,,,,,,,,,,,,,0,55,55,45,1,,,,,,,,,,,,,,,,,,,,,,,,,,,,
,,,,,SPR24_051,19,F,2024-04-16_14h26.37.087,jersey_experiment_5_v0,2023.2.2,Win32,84.03361345,,,,,,,,,,,,,,,,657.6975,658.9916,658.9916,659.7679,return,0.1555,,50.13020833,,,,,,FBP-PT-17.png,0.37,1.2,47,0.5,,,,,,,,,,,,,0,56,56,46,1,,,,,,,,,,,,,,,,,,,,,,,,,,,,
,,,,,SPR24_051,19,F,2024-04-16_14h26.37.087,jersey_experiment_5_v0,2023.2.2,Win32,84.03361345,,,,,,,,,,,,,,,,659.768,660.8149,660.8149,663.0622,return,0.0474,,63.54166667,,,,,,FBP-OG-81.png,0.4,1.2,8,0.25,,,,,,,,,,,,,0,57,57,7,1,,,,,,,,,,,,,,,,,,,,,,,,,,,,
,,,,,SPR24_051,19,F,2024-04-16_14h26.37.087,jersey_experiment_5_v0,2023.2.2,Win32,84.03361345,,,,,,,,,,,,,,,,663.0624,664.3564,664.3564,665.3682,return,0.2023,,73.95833333,,,,,,FBP-PT-17.png,0.43,1.2,49,0.5,,,,,,,,,,,,,0,58,58,48,1,,,,,,,,,,,,,,,,,,,,,,,,,,,,
,,,,,SPR24_051,19,F,2024-04-16_14h26.37.087,jersey_experiment_5_v0,2023.2.2,Win32,84.03361345,,,,,,,,,,,,,,,,665.3685,666.4152,666.4152,667.5565,return,0.1194,,74.86979167,,,,,,FBP-OG-91.png,0.45,1.2,15,0.25,,,,,,,,,,,,,0,59,59,14,1,,,,,,,,,,,,,,,,,,,,,,,,,,,,
,,,,,SPR24_051,19,F,2024-04-16_14h26.37.087,jersey_experiment_5_v0,2023.2.2,Win32,84.03361345,,,,,,,,,,,,,,,,667.558,668.8508,668.8509,670.1918,return,0.1617,,49.73958333,,,,,,FBP-PT-91.png,0.35,1.2,56,0.5,,,,,,,,,,,,,,,,,,0,0,0,55,1,,,,,,,,,,,,,,,,,,,,,,,
,,,,,SPR24_051,19,F,2024-04-16_14h26.37.087,jersey_experiment_5_v0,2023.2.2,Win32,84.03361345,,,,,,,,,,,,,,,,670.192,671.2389,671.2389,672.7684,return,0.1494,,74.86979167,,,,,,FBP-OG-17.png,0.45,1.2,5,0.25,,,,,,,,,,,,,,,,,,0,1,1,4,1,,,,,,,,,,,,,,,,,,,,,,,
,,,,,SPR24_051,19,F,2024-04-16_14h26.37.087,jersey_experiment_5_v0,2023.2.2,Win32,84.03361345,,,,,,,,,,,,,,,,672.7685,673.8155,673.8155,674.9684,return,0.094,,74.609375,,,,,,FBP-OG-19.png,0.43,1.2,14,0.25,,,,,,,,,,,,,,,,,,0,2,2,13,1,,,,,,,,,,,,,,,,,,,,,,,
,,,,,SPR24_051,19,F,2024-04-16_14h26.37.087,jersey_experiment_5_v0,2023.2.2,Win32,84.03361345,,,,,,,,,,,,,,,,674.9686,676.0155,676.0156,677.2511,return,0.1584,,75.26041667,,,,,,FBP-RB-91.png,0.45,1.2,45,0.25,,,,,,,,,,,,,,,,,,0,3,3,44,1,,,,,,,,,,,,,,,,,,,,,,,
,,,,,SPR24_051,19,F,2024-04-16_14h26.37.087,jersey_experiment_5_v0,2023.2.2,Win32,84.03361345,,,,,,,,,,,,,,,,677.2513,678.5454,678.5454,679.9451,return,0.0004,,74.73958333,,,,,,FBP-PT-91.png,0.43,1.2,59,0.5,,,,,,,,,,,,,,,,,,0,4,4,58,1,,,,,,,,,,,,,,,,,,,,,,,
,,,,,SPR24_051,19,F,2024-04-16_14h26.37.087,jersey_experiment_5_v0,2023.2.2,Win32,84.03361345,,,,,,,,,,,,,,,,679.9452,680.9923,680.9923,682.051,return,0.1445,,63.15104167,,,,,,FBP-OG-18.png,0.37,1.2,7,0.25,,,,,,,,,,,,,,,,,,0,5,5,6,1,,,,,,,,,,,,,,,,,,,,,,,
,,,,,SPR24_051,19,F,2024-04-16_14h26.37.087,jersey_experiment_5_v0,2023.2.2,Win32,84.03361345,,,,,,,,,,,,,,,,682.0512,683.3455,683.3455,684.7217,return,0.0774,,74.609375,,,,,,FBP-YG-71.png,0.45,1.2,20,0.5,,,,,,,,,,,,,,,,,,0,6,6,19,1,,,,,,,,,,,,,,,,,,,,,,,
,,,,,SPR24_051,19,F,2024-04-16_14h26.37.087,jersey_experiment_5_v0,2023.2.2,Win32,84.03361345,,,,,,,,,,,,,,,,684.722,686.016,686.016,687.969,return,0.1489,,63.02083333,,,,,,FBP-YG-71.png,0.37,1.2,17,0.5,,,,,,,,,,,,,,,,,,0,7,7,16,1,,,,,,,,,,,,,,,,,,,,,,,
,,,,,SPR24_051,19,F,2024-04-16_14h26.37.087,jersey_experiment_5_v0,2023.2.2,Win32,84.03361345,,,,,,,,,,,,,,,,687.9691,689.0161,689.0161,689.7927,return,0.0903,,62.23958333,,,,,,FBP-OG-17.png,0.4,1.2,3,0.25,,,,,,,,,,,,,,,,,,0,8,8,2,1,,,,,,,,,,,,,,,,,,,,,,,
,,,,,SPR24_051,19,F,2024-04-16_14h26.37.087,jersey_experiment_5_v0,2023.2.2,Win32,84.03361345,,,,,,,,,,,,,,,,689.7928,691.0867,691.0867,692.1338,return,0.1534,,74.609375,,,,,,FBP-YG-81.png,0.45,1.2,25,0.5,,,,,,,,,,,,,,,,,,0,9,9,24,1,,,,,,,,,,,,,,,,,,,,,,,
,,,,,SPR24_051,19,F,2024-04-16_14h26.37.087,jersey_experiment_5_v0,2023.2.2,Win32,84.03361345,,,,,,,,,,,,,,,,692.1339,693.181,693.181,695.7341,return,1.1416,,74.21875,,,,,,FBP-OG-18.png,0.43,1.2,9,0.25,,,,,,,,,,,,,,,,,,0,10,10,8,1,,,,,,,,,,,,,,,,,,,,,,,
,,,,,SPR24_051,19,F,2024-04-16_14h26.37.087,jersey_experiment_5_v0,2023.2.2,Win32,84.03361345,,,,,,,,,,,,,,,,695.7343,697.0282,697.0282,697.6516,return,0.0966,,75.13020833,,,,,,FBP-YG-81.png,0.43,1.2,24,0.5,,,,,,,,,,,,,,,,,,0,11,11,23,1,,,,,,,,,,,,,,,,,,,,,,,
,,,,,SPR24_051,19,F,2024-04-16_14h26.37.087,jersey_experiment_5_v0,2023.2.2,Win32,84.03361345,,,,,,,,,,,,,,,,697.6519,698.946,698.946,700.5696,return,0.3674,,50.390625,,,,,,FBP-PT-91.png,0.37,1.2,57,0.5,,,,,,,,,,,,,,,,,,0,12,12,56,1,,,,,,,,,,,,,,,,,,,,,,,
,,,,,SPR24_051,19,F,2024-04-16_14h26.37.087,jersey_experiment_5_v0,2023.2.2,Win32,84.03361345,,,,,,,,,,,,,,,,700.5698,701.8636,701.8636,702.9811,return,0.2011,,49.73958333,,,,,,FBP-YG-81.png,0.37,1.2,22,0.5,,,,,,,,,,,,,,,,,,0,13,13,21,1,,,,,,,,,,,,,,,,,,,,,,,
,,,,,SPR24_051,19,F,2024-04-16_14h26.37.087,jersey_experiment_5_v0,2023.2.2,Win32,84.03361345,,,,,,,,,,,,,,,,702.9814,704.0283,704.0284,704.6401,return,0.1006,,49.73958333,,,,,,FBP-OG-19.png,0.4,1.2,13,0.25,,,,,,,,,,,,,,,,,,0,14,14,12,1,,,,,,,,,,,,,,,,,,,,,,,
,,,,,SPR24_051,19,F,2024-04-16_14h26.37.087,jersey_experiment_5_v0,2023.2.2,Win32,84.03361345,,,,,,,,,,,,,,,,704.6403,705.6872,705.6872,707.205,return,0.1331,,75,,,,,,FBP-RB-71.png,0.43,1.2,34,0.25,,,,,,,,,,,,,,,,,,0,15,15,33,1,,,,,,,,,,,,,,,,,,,,,,,
,,,,,SPR24_051,19,F,2024-04-16_14h26.37.087,jersey_experiment_5_v0,2023.2.2,Win32,84.03361345,,,,,,,,,,,,,,,,707.2053,708.2519,708.252,709.1697,return,0.1482,,75,,,,,,FBP-OG-17.png,0.43,1.2,4,0.25,,,,,,,,,,,,,,,,,,0,16,16,3,1,,,,,,,,,,,,,,,,,,,,,,,
,,,,,SPR24_051,19,F,2024-04-16_14h26.37.087,jersey_experiment_5_v0,2023.2.2,Win32,84.03361345,,,,,,,,,,,,,,,,709.1698,710.4638,710.4639,711.2051,return,0.1658,,75,,,,,,FBP-YG-91.png,0.4,1.2,28,0.5,,,,,,,,,,,,,,,,,,0,17,17,27,1,,,,,,,,,,,,,,,,,,,,,,,
,,,,,SPR24_051,19,F,2024-04-16_14h26.37.087,jersey_experiment_5_v0,2023.2.2,Win32,84.03361345,,,,,,,,,,,,,,,,711.2053,712.4993,712.4993,713.5698,return,0.1108,,49.609375,,,,,,FBP-PT-81.png,0.35,1.2,51,0.5,,,,,,,,,,,,,,,,,,0,18,18,50,1,,,,,,,,,,,,,,,,,,,,,,,
,,,,,SPR24_051,19,F,2024-04-16_14h26.37.087,jersey_experiment_5_v0,2023.2.2,Win32,84.03361345,,,,,,,,,,,,,,,,713.57,714.617,714.617,715.2993,return,0.1209,,49.609375,,,,,,FBP-OG-17.png,0.37,1.2,2,0.25,,,,,,,,,,,,,,,,,,0,19,19,1,1,,,,,,,,,,,,,,,,,,,,,,,
,,,,,SPR24_051,19,F,2024-04-16_14h26.37.087,jersey_experiment_5_v0,2023.2.2,Win32,84.03361345,,,,,,,,,,,,,,,,715.2996,716.3464,716.3465,716.9937,return,0.0758,,49.609375,,,,,,FBP-OG-18.png,0.35,1.2,6,0.25,,,,,,,,,,,,,,,,,,0,20,20,5,1,,,,,,,,,,,,,,,,,,,,,,,
,,,,,SPR24_051,19,F,2024-04-16_14h26.37.087,jersey_experiment_5_v0,2023.2.2,Win32,84.03361345,,,,,,,,,,,,,,,,716.9939,718.2877,718.2877,719.4761,return,0.1458,,62.5,,,,,,FBP-PT-91.png,0.4,1.2,58,0.5,,,,,,,,,,,,,,,,,,0,21,21,57,1,,,,,,,,,,,,,,,,,,,,,,,
,,,,,SPR24_051,19,F,2024-04-16_14h26.37.087,jersey_experiment_5_v0,2023.2.2,Win32,84.03361345,,,,,,,,,,,,,,,,719.4762,720.77,720.77,722.1466,return,0.1219,,74.86979167,,,,,,FBP-PT-71.png,0.45,1.2,50,0.5,,,,,,,,,,,,,,,,,,0,22,22,49,1,,,,,,,,,,,,,,,,,,,,,,,
,,,,,SPR24_051,19,F,2024-04-16_14h26.37.087,jersey_experiment_5_v0,2023.2.2,Win32,84.03361345,,,,,,,,,,,,,,,,722.1468,723.1938,723.1938,724.4879,return,0.189,,50,,,,,,FBP-RB-81.png,0.37,1.2,37,0.25,,,,,,,,,,,,,,,,,,0,23,23,36,1,,,,,,,,,,,,,,,,,,,,,,,
,,,,,SPR24_051,19,F,2024-04-16_14h26.37.087,jersey_experiment_5_v0,2023.2.2,Win32,84.03361345,,,,,,,,,,,,,,,,724.4881,725.535,725.535,726.441,return,0.104,,61.97916667,,,,,,FBP-RB-81.png,0.4,1.2,38,0.25,,,,,,,,,,,,,,,,,,0,24,24,37,1,,,,,,,,,,,,,,,,,,,,,,,
,,,,,SPR24_051,19,F,2024-04-16_14h26.37.087,jersey_experiment_5_v0,2023.2.2,Win32,84.03361345,,,,,,,,,,,,,,,,726.4412,727.735,727.7351,728.9116,return,0.1596,,75.26041667,,,,,,FBP-YG-91.png,0.43,1.2,29,0.5,,,,,,,,,,,,,,,,,,0,25,25,28,1,,,,,,,,,,,,,,,,,,,,,,,
,,,,,SPR24_051,19,F,2024-04-16_14h26.37.087,jersey_experiment_5_v0,2023.2.2,Win32,84.03361345,,,,,,,,,,,,,,,,728.9117,729.9588,729.9588,732.9823,return,0.2007,,62.23958333,,,,,,FBP-OG-19.png,0.37,1.2,12,0.25,,,,,,,,,,,,,,,,,,0,26,26,11,1,,,,,,,,,,,,,,,,,,,,,,,
,,,,,SPR24_051,19,F,2024-04-16_14h26.37.087,jersey_experiment_5_v0,2023.2.2,Win32,84.03361345,,,,,,,,,,,,,,,,732.9825,734.2765,734.2765,735.5589,return,0.2255,,74.34895833,,,,,,FBP-PT-71.png,0.43,1.2,49,0.5,,,,,,,,,,,,,,,,,,0,27,27,48,1,,,,,,,,,,,,,,,,,,,,,,,
,,,,,SPR24_051,19,F,2024-04-16_14h26.37.087,jersey_experiment_5_v0,2023.2.2,Win32,84.03361345,,,,,,,,,,,,,,,,735.5591,736.853,736.8531,737.7003,return,0.2141,,74.08854167,,,,,,FBP-PT-81.png,0.43,1.2,54,0.5,,,,,,,,,,,,,,,,,,0,28,28,53,1,,,,,,,,,,,,,,,,,,,,,,,
,,,,,SPR24_051,19,F,2024-04-16_14h26.37.087,jersey_experiment_5_v0,2023.2.2,Win32,84.03361345,,,,,,,,,,,,,,,,737.7005,738.9944,738.9944,739.7826,return,0.1762,,74.609375,,,,,,FBP-PT-81.png,0.4,1.2,53,0.5,,,,,,,,,,,,,,,,,,0,29,29,52,1,,,,,,,,,,,,,,,,,,,,,,,
,,,,,SPR24_051,19,F,2024-04-16_14h26.37.087,jersey_experiment_5_v0,2023.2.2,Win32,84.03361345,,,,,,,,,,,,,,,,739.7827,740.8298,740.8299,741.4768,return,0.1689,,74.47916667,,,,,,FBP-RB-81.png,0.45,1.2,40,0.25,,,,,,,,,,,,,,,,,,0,30,30,39,1,,,,,,,,,,,,,,,,,,,,,,,
,,,,,SPR24_051,19,F,2024-04-16_14h26.37.087,jersey_experiment_5_v0,2023.2.2,Win32,84.03361345,,,,,,,,,,,,,,,,741.477,742.5238,742.5239,744.1945,return,0.1119,,74.73958333,,,,,,FBP-OG-18.png,0.4,1.2,8,0.25,,,,,,,,,,,,,,,,,,0,31,31,7,1,,,,,,,,,,,,,,,,,,,,,,,
,,,,,SPR24_051,19,F,2024-04-16_14h26.37.087,jersey_experiment_5_v0,2023.2.2,Win32,84.03361345,,,,,,,,,,,,,,,,744.1947,745.4886,745.4886,746.4651,return,0.1017,,62.5,,,,,,FBP-PT-71.png,0.35,1.2,46,0.5,,,,,,,,,,,,,,,,,,0,32,32,45,1,,,,,,,,,,,,,,,,,,,,,,,
,,,,,SPR24_051,19,F,2024-04-16_14h26.37.087,jersey_experiment_5_v0,2023.2.2,Win32,84.03361345,,,,,,,,,,,,,,,,746.4654,747.5123,747.5123,748.4535,return,0.1327,,62.36979167,,,,,,FBP-RB-71.png,0.4,1.2,33,0.25,,,,,,,,,,,,,,,,,,0,33,33,32,1,,,,,,,,,,,,,,,,,,,,,,,
,,,,,SPR24_051,19,F,2024-04-16_14h26.37.087,jersey_experiment_5_v0,2023.2.2,Win32,84.03361345,,,,,,,,,,,,,,,,748.4537,749.5006,749.5006,750.983,return,0.1287,,49.21875,,,,,,FBP-RB-91.png,0.35,1.2,41,0.25,,,,,,,,,,,,,,,,,,0,34,34,40,1,,,,,,,,,,,,,,,,,,,,,,,
,,,,,SPR24_051,19,F,2024-04-16_14h26.37.087,jersey_experiment_5_v0,2023.2.2,Win32,84.03361345,,,,,,,,,,,,,,,,750.9832,752.0303,752.0303,753.0773,return,0.0835,,61.97916667,,,,,,FBP-RB-91.png,0.4,1.2,43,0.25,,,,,,,,,,,,,,,,,,0,35,35,42,1,,,,,,,,,,,,,,,,,,,,,,,
,,,,,SPR24_051,19,F,2024-04-16_14h26.37.087,jersey_experiment_5_v0,2023.2.2,Win32,84.03361345,,,,,,,,,,,,,,,,753.0774,754.1243,754.1243,755.242,return,0.1504,,50.13020833,,,,,,FBP-OG-17.png,0.35,1.2,1,0.25,,,,,,,,,,,,,,,,,,0,36,36,0,1,,,,,,,,,,,,,,,,,,,,,,,
,,,,,SPR24_051,19,F,2024-04-16_14h26.37.087,jersey_experiment_5_v0,2023.2.2,Win32,84.03361345,,,,,,,,,,,,,,,,755.2423,756.5361,756.5361,757.2891,return,0.1271,,50.78125,,,,,,FBP-PT-81.png,0.37,1.2,52,0.5,,,,,,,,,,,,,,,,,,0,37,37,51,1,,,,,,,,,,,,,,,,,,,,,,,
,,,,,SPR24_051,19,F,2024-04-16_14h26.37.087,jersey_experiment_5_v0,2023.2.2,Win32,84.03361345,,,,,,,,,,,,,,,,757.2893,758.3362,758.3362,758.9952,return,0.1208,,50.78125,,,,,,FBP-OG-19.png,0.35,1.2,11,0.25,,,,,,,,,,,,,,,,,,0,38,38,10,1,,,,,,,,,,,,,,,,,,,,,,,
,,,,,SPR24_051,19,F,2024-04-16_14h26.37.087,jersey_experiment_5_v0,2023.2.2,Win32,84.03361345,,,,,,,,,,,,,,,,758.9955,760.0422,760.0423,760.8659,return,0.1573,,50.26041667,,,,,,FBP-RB-71.png,0.37,1.2,32,0.25,,,,,,,,,,,,,,,,,,0,39,39,31,1,,,,,,,,,,,,,,,,,,,,,,,
,,,,,SPR24_051,19,F,2024-04-16_14h26.37.087,jersey_experiment_5_v0,2023.2.2,Win32,84.03361345,,,,,,,,,,,,,,,,760.8661,762.1599,762.1599,762.9833,return,0.1283,,61.58854167,,,,,,FBP-YG-71.png,0.4,1.2,18,0.5,,,,,,,,,,,,,,,,,,0,40,40,17,1,,,,,,,,,,,,,,,,,,,,,,,
,,,,,SPR24_051,19,F,2024-04-16_14h26.37.087,jersey_experiment_5_v0,2023.2.2,Win32,84.03361345,,,,,,,,,,,,,,,,762.9834,764.0306,764.0307,765.2892,return,0.1414,,74.609375,,,,,,FBP-RB-81.png,0.43,1.2,39,0.25,,,,,,,,,,,,,,,,,,0,41,41,38,1,,,,,,,,,,,,,,,,,,,,,,,
,,,,,SPR24_051,19,F,2024-04-16_14h26.37.087,jersey_experiment_5_v0,2023.2.2,Win32,84.03361345,,,,,,,,,,,,,,,,765.2895,766.3366,766.3367,766.9835,return,0.1285,,74.86979167,,,,,,FBP-RB-91.png,0.43,1.2,44,0.25,,,,,,,,,,,,,,,,,,0,42,42,43,1,,,,,,,,,,,,,,,,,,,,,,,
,,,,,SPR24_051,19,F,2024-04-16_14h26.37.087,jersey_experiment_5_v0,2023.2.2,Win32,84.03361345,,,,,,,,,,,,,,,,766.9837,768.2778,768.2778,769.619,return,0.1233,,74.609375,,,,,,FBP-PT-71.png,0.4,1.2,48,0.5,,,,,,,,,,,,,,,,,,0,43,43,47,1,,,,,,,,,,,,,,,,,,,,,,,
,,,,,SPR24_051,19,F,2024-04-16_14h26.37.087,jersey_experiment_5_v0,2023.2.2,Win32,84.03361345,,,,,,,,,,,,,,,,769.6191,770.9133,770.9134,772.2897,return,0.1454,,74.86979167,,,,,,FBP-YG-81.png,0.4,1.2,23,0.5,,,,,,,,,,,,,,,,,,0,44,44,22,1,,,,,,,,,,,,,,,,,,,,,,,
,,,,,SPR24_051,19,F,2024-04-16_14h26.37.087,jersey_experiment_5_v0,2023.2.2,Win32,84.03361345,,,,,,,,,,,,,,,,772.2899,773.3367,773.3368,774.0429,return,0.1742,,74.73958333,,,,,,FBP-RB-81.png,0.35,1.2,36,0.25,,,,,,,,,,,,,,,,,,0,45,45,35,1,,,,,,,,,,,,,,,,,,,,,,,
,,,,,SPR24_051,19,F,2024-04-16_14h26.37.087,jersey_experiment_5_v0,2023.2.2,Win32,84.03361345,,,,,,,,,,,,,,,,774.0431,775.0899,775.0899,776.0546,return,0.1315,,74.47916667,,,,,,FBP-OG-19.png,0.45,1.2,15,0.25,,,,,,,,,,,,,,,,,,0,46,46,14,1,,,,,,,,,,,,,,,,,,,,,,,
,,,,,SPR24_051,19,F,2024-04-16_14h26.37.087,jersey_experiment_5_v0,2023.2.2,Win32,84.03361345,,,,,,,,,,,,,,,,776.0547,777.3487,777.3488,777.843,return,0.1586,,74.47916667,,,,,,FBP-YG-91.png,0.45,1.2,30,0.5,,,,,,,,,,,,,,,,,,0,47,47,29,1,,,,,,,,,,,,,,,,,,,,,,,
,,,,,SPR24_051,19,F,2024-04-16_14h26.37.087,jersey_experiment_5_v0,2023.2.2,Win32,84.03361345,,,,,,,,,,,,,,,,777.8432,779.1371,779.1371,779.6193,return,0.1566,,74.47916667,,,,,,FBP-PT-91.png,0.45,1.2,60,0.5,,,,,,,,,,,,,,,,,,0,48,48,59,1,,,,,,,,,,,,,,,,,,,,,,,
,,,,,SPR24_051,19,F,2024-04-16_14h26.37.087,jersey_experiment_5_v0,2023.2.2,Win32,84.03361345,,,,,,,,,,,,,,,,779.6195,780.6665,780.6665,781.4664,return,0.2126,,74.47916667,,,,,,FBP-RB-71.png,0.45,1.2,35,0.25,,,,,,,,,,,,,,,,,,0,49,49,34,1,,,,,,,,,,,,,,,,,,,,,,,
,,,,,SPR24_051,19,F,2024-04-16_14h26.37.087,jersey_experiment_5_v0,2023.2.2,Win32,84.03361345,,,,,,,,,,,,,,,,781.4667,782.7606,782.7606,784.9137,return,0.1715,,62.63020833,,,,,,FBP-YG-91.png,0.35,1.2,26,0.5,,,,,,,,,,,,,,,,,,0,50,50,25,1,,,,,,,,,,,,,,,,,,,,,,,
,,,,,SPR24_051,19,F,2024-04-16_14h26.37.087,jersey_experiment_5_v0,2023.2.2,Win32,84.03361345,,,,,,,,,,,,,,,,784.9139,786.2078,786.2078,787.8433,return,0.2518,,74.86979167,,,,,,FBP-PT-81.png,0.45,1.2,55,0.5,,,,,,,,,,,,,,,,,,0,51,51,54,1,,,,,,,,,,,,,,,,,,,,,,,
,,,,,SPR24_051,19,F,2024-04-16_14h26.37.087,jersey_experiment_5_v0,2023.2.2,Win32,84.03361345,,,,,,,,,,,,,,,,787.8435,789.1374,789.1374,790.2904,return,0.1452,,63.02083333,,,,,,FBP-YG-91.png,0.37,1.2,27,0.5,,,,,,,,,,,,,,,,,,0,52,52,26,1,,,,,,,,,,,,,,,,,,,,,,,
,,,,,SPR24_051,19,F,2024-04-16_14h26.37.087,jersey_experiment_5_v0,2023.2.2,Win32,84.03361345,,,,,,,,,,,,,,,,790.2908,791.5846,791.5847,793.6903,return,0.0943,,63.41145833,,,,,,FBP-YG-71.png,0.35,1.2,16,0.5,,,,,,,,,,,,,,,,,,0,53,53,15,1,,,,,,,,,,,,,,,,,,,,,,,
,,,,,SPR24_051,19,F,2024-04-16_14h26.37.087,jersey_experiment_5_v0,2023.2.2,Win32,84.03361345,,,,,,,,,,,,,,,,793.6905,794.9844,794.9845,796.6082,return,0.1115,,74.47916667,,,,,,FBP-YG-81.png,0.35,1.2,21,0.5,,,,,,,,,,,,,,,,,,0,54,54,20,1,,,,,,,,,,,,,,,,,,,,,,,
,,,,,SPR24_051,19,F,2024-04-16_14h26.37.087,jersey_experiment_5_v0,2023.2.2,Win32,84.03361345,,,,,,,,,,,,,,,,796.6085,797.9025,797.9026,798.8671,return,0.0856,,74.73958333,,,,,,FBP-YG-71.png,0.43,1.2,19,0.5,,,,,,,,,,,,,,,,,,0,55,55,18,1,,,,,,,,,,,,,,,,,,,,,,,
,,,,,SPR24_051,19,F,2024-04-16_14h26.37.087,jersey_experiment_5_v0,2023.2.2,Win32,84.03361345,,,,,,,,,,,,,,,,798.8673,800.1614,800.1615,801.2201,return,0.1548,,49.21875,,,,,,FBP-PT-71.png,0.37,1.2,47,0.5,,,,,,,,,,,,,,,,,,0,56,56,46,1,,,,,,,,,,,,,,,,,,,,,,,
,,,,,SPR24_051,19,F,2024-04-16_14h26.37.087,jersey_experiment_5_v0,2023.2.2,Win32,84.03361345,,,,,,,,,,,,,,,,801.2203,802.2673,802.2673,804.2908,return,0.7096,,50.26041667,,,,,,FBP-RB-71.png,0.35,1.2,31,0.25,,,,,,,,,,,,,,,,,,0,57,57,30,1,,,,,,,,,,,,,,,,,,,,,,,
,,,,,SPR24_051,19,F,2024-04-16_14h26.37.087,jersey_experiment_5_v0,2023.2.2,Win32,84.03361345,,,,,,,,,,,,,,,,804.291,805.3381,805.3381,806.5498,return,0.2029,,61.19791667,,,,,,FBP-RB-91.png,0.37,1.2,42,0.25,,,,,,,,,,,,,,,,,,0,58,58,41,1,,,,,,,,,,,,,,,,,,,,,,,
,,,,,SPR24_051,19,F,2024-04-16_14h26.37.087,jersey_experiment_5_v0,2023.2.2,Win32,84.03361345,,,,,,,,,,,,,,,,806.5501,807.5968,807.5968,809.0322,return,0.212,,75.26041667,,,,,,FBP-OG-18.png,0.45,1.2,10,0.25,,,,,,,,,,,,,,,,,,0,59,59,9,1,,,,,,,,,,,,,,,,,,,,,,,
,,,,,SPR24_051,19,F,2024-04-16_14h26.37.087,jersey_experiment_5_v0,2023.2.2,Win32,84.03361345,,,,,,,,,,,,,,,,,,,,,,,,,,,,,,,,,,,,,,,,,,,,,,,,,,,,,,,,809.0325,813.562,return,4.5171,,,,,,,,,,,,,,,,,,,
,,,,,SPR24_051,19,F,2024-04-16_14h26.37.087,jersey_experiment_5_v0,2023.2.2,Win32,84.03361345,,,,,,,,,,,,,,,,,,,,,,,,,,,,,,,,,,,,,,,,,,,,,,,,,,,,,,,,,,,,,813.5621,817.8561,1,3.0009,return,1.2786,,,,,,,,,,,,
,,,,,SPR24_051,19,F,2024-04-16_14h26.37.087,jersey_experiment_5_v0,2023.2.2,Win32,84.03361345,,,,,,,,,,,,,,,,,,,,,,,,,,,,,,,,,,,,,,,,,,,,,,,,,,,,,,,,,,,,,,,,,,,,817.8563,825.7551,nope,right,3.9896,,,,,,
,,,,,SPR24_051,19,F,2024-04-16_14h26.37.087,jersey_experiment_5_v0,2023.2.2,Win32,84.03361345,,,,,,,,,,,,,,,,,,,,,,,,,,,,,,,,,,,,,,,,,,,,,,,,,,,,,,,,,,,,,,,,,,,,,,,,,,825.7551,829.3978,return,3.6321,