requirements.started,requirements.stopped,key_resp_3.keys,key_resp_3.rt,key_resp_3.duration,Subject ID,Age,Gender,date,expName,psychopyVersion,OS,frameRate,instructions1.started,instructions1.stopped,key_resp.keys,key_resp.rt,key_resp.duration,example.started,example.stopped,enter_2.keys,enter_2.rt,enter_2.duration,instructions2.started,instructions2.stopped,enter_3.keys,enter_3.rt,enter_3.duration,image.started,image.stopped,slider_2.started,slider_2.stopped,next.keys,next.rt,next.duration,slider.response,trial_block_1.thisRepN,trial_block_1.thisTrialN,trial_block_1.thisN,trial_block_1.thisIndex,trial_block_1.ran,Path,Width,Height,Index,Duration,trial_block_2.thisRepN,trial_block_2.thisTrialN,trial_block_2.thisN,trial_block_2.thisIndex,trial_block_2.ran,rest_break.started,rest_break.stopped,end_break.started,end_break.stopped,key_resp_5.keys,key_resp_5.rt,key_resp_5.duration,trial_block_3.thisRepN,trial_block_3.thisTrialN,trial_block_3.thisN,trial_block_3.thisIndex,trial_block_3.ran,trial_block_4.thisRepN,trial_block_4.thisTrialN,trial_block_4.thisN,trial_block_4.thisIndex,trial_block_4.ran,questions_intro.started,questions_intro.stopped,enter_12.keys,enter_12.rt,enter_12.duration,question2.started,question2.stopped,question_doingbest.response,question_doingbest.rt,enter_15.keys,enter_15.rt,enter_15.duration,pattern.started,pattern.stopped,pattern_2.text,enter_17.keys,enter_17.rt,enter_17.duration,thankyou.started,thankyou.stopped,enter_14.keys,enter_14.rt,enter_14.duration
1E-04,11.223,return,11.217,,SPR24_047,19,Female,2024-04-15_14h30.03.970,jersey_experiment_5_v0,2023.2.2,Win32,84.74576271,,,,,,,,,,,,,,,,,,,,,,,,,,,,,,,,,,,,,,,,,,,,,,,,,,,,,,,,,,,,,,,,,,,,,,,,,,,,,,
,,,,,SPR24_047,19,Female,2024-04-15_14h30.03.970,jersey_experiment_5_v0,2023.2.2,Win32,84.74576271,11.2231,19.2698,return,8.028,,,,,,,,,,,,,,,,,,,,,,,,,,,,,,,,,,,,,,,,,,,,,,,,,,,,,,,,,,,,,,,,,,,,,,,,,,
,,,,,SPR24_047,19,Female,2024-04-15_14h30.03.970,jersey_experiment_5_v0,2023.2.2,Win32,84.74576271,,,,,,19.2698,24.3172,return,5.0065,,,,,,,,,,,,,,,,,,,,,,,,,,,,,,,,,,,,,,,,,,,,,,,,,,,,,,,,,,,,,,,,,,,,,
,,,,,SPR24_047,19,Female,2024-04-15_14h30.03.970,jersey_experiment_5_v0,2023.2.2,Win32,84.74576271,,,,,,,,,,,24.3172,54.1565,return,29.8232,,,,,,,,,,,,,,,,,,,,,,,,,,,,,,,,,,,,,,,,,,,,,,,,,,,,,,,,,,,,,,,,
,,,,,SPR24_047,19,Female,2024-04-15_14h30.03.970,jersey_experiment_5_v0,2023.2.2,Win32,84.74576271,,,,,,,,,,,,,,,,54.1654,55.4592,55.4593,62.0595,return,2.2257,,14.84375,0,0,0,5,1,FBP-OG-81.png,0.35,1.2,6,0.5,,,,,,,,,,,,,,,,,,,,,,,,,,,,,,,,,,,,,,,,,,,,,
,,,,,SPR24_047,19,Female,2024-04-15_14h30.03.970,jersey_experiment_5_v0,2023.2.2,Win32,84.74576271,,,,,,,,,,,,,,,,62.0598,63.3536,63.3536,67.5535,return,1.4672,,68.48958333,0,1,1,13,1,FBP-OG-91.png,0.43,1.2,14,0.5,,,,,,,,,,,,,,,,,,,,,,,,,,,,,,,,,,,,,,,,,,,,,
,,,,,SPR24_047,19,Female,2024-04-15_14h30.03.970,jersey_experiment_5_v0,2023.2.2,Win32,84.74576271,,,,,,,,,,,,,,,,67.5538,68.8477,68.8478,73.0008,return,1.2374,,65.10416667,0,2,2,44,1,FBP-RB-19.png,0.45,1.2,45,0.5,,,,,,,,,,,,,,,,,,,,,,,,,,,,,,,,,,,,,,,,,,,,,
,,,,,SPR24_047,19,Female,2024-04-15_14h30.03.970,jersey_experiment_5_v0,2023.2.2,Win32,84.74576271,,,,,,,,,,,,,,,,73.0012,74.0479,74.048,77.9775,return,1.012,,74.73958333,0,3,3,24,1,FBP-YG-18.png,0.45,1.2,25,0.25,,,,,,,,,,,,,,,,,,,,,,,,,,,,,,,,,,,,,,,,,,,,,
,,,,,SPR24_047,19,Female,2024-04-15_14h30.03.970,jersey_experiment_5_v0,2023.2.2,Win32,84.74576271,,,,,,,,,,,,,,,,77.9777,79.2716,79.2717,82.2012,return,0.9792,,73.69791667,0,4,4,34,1,FBP-RB-17.png,0.45,1.2,35,0.5,,,,,,,,,,,,,,,,,,,,,,,,,,,,,,,,,,,,,,,,,,,,,
,,,,,SPR24_047,19,Female,2024-04-15_14h30.03.970,jersey_experiment_5_v0,2023.2.2,Win32,84.74576271,,,,,,,,,,,,,,,,82.2014,83.2482,83.2483,86.4605,return,0.7533,,49.73958333,0,5,5,50,1,FBP-PT-18.png,0.35,1.2,51,0.25,,,,,,,,,,,,,,,,,,,,,,,,,,,,,,,,,,,,,,,,,,,,,
,,,,,SPR24_047,19,Female,2024-04-15_14h30.03.970,jersey_experiment_5_v0,2023.2.2,Win32,84.74576271,,,,,,,,,,,,,,,,86.4608,87.5073,87.5073,90.7309,return,0.715,,75.26041667,0,6,6,48,1,FBP-PT-17.png,0.43,1.2,49,0.25,,,,,,,,,,,,,,,,,,,,,,,,,,,,,,,,,,,,,,,,,,,,,
,,,,,SPR24_047,19,Female,2024-04-15_14h30.03.970,jersey_experiment_5_v0,2023.2.2,Win32,84.74576271,,,,,,,,,,,,,,,,90.7311,91.7781,91.7782,94.3074,return,0.7358,,75.13020833,0,7,7,19,1,FBP-YG-17.png,0.45,1.2,20,0.25,,,,,,,,,,,,,,,,,,,,,,,,,,,,,,,,,,,,,,,,,,,,,
,,,,,SPR24_047,19,Female,2024-04-15_14h30.03.970,jersey_experiment_5_v0,2023.2.2,Win32,84.74576271,,,,,,,,,,,,,,,,94.3076,95.3545,95.3545,98.3547,return,0.6191,,29.42708333,0,8,8,46,1,FBP-PT-17.png,0.37,1.2,47,0.25,,,,,,,,,,,,,,,,,,,,,,,,,,,,,,,,,,,,,,,,,,,,,
,,,,,SPR24_047,19,Female,2024-04-15_14h30.03.970,jersey_experiment_5_v0,2023.2.2,Win32,84.74576271,,,,,,,,,,,,,,,,98.3548,99.4018,99.4018,102.3078,return,0.6037,,64.84375,0,9,9,53,1,FBP-PT-18.png,0.43,1.2,54,0.25,,,,,,,,,,,,,,,,,,,,,,,,,,,,,,,,,,,,,,,,,,,,,
,,,,,SPR24_047,19,Female,2024-04-15_14h30.03.970,jersey_experiment_5_v0,2023.2.2,Win32,84.74576271,,,,,,,,,,,,,,,,102.3079,103.602,103.602,106.402,return,0.8549,,83.203125,0,10,10,33,1,FBP-RB-17.png,0.43,1.2,34,0.5,,,,,,,,,,,,,,,,,,,,,,,,,,,,,,,,,,,,,,,,,,,,,
,,,,,SPR24_047,19,Female,2024-04-15_14h30.03.970,jersey_experiment_5_v0,2023.2.2,Win32,84.74576271,,,,,,,,,,,,,,,,106.4023,107.6962,107.6962,110.6259,return,0.6789,,75.52083333,0,11,11,8,1,FBP-OG-81.png,0.43,1.2,9,0.5,,,,,,,,,,,,,,,,,,,,,,,,,,,,,,,,,,,,,,,,,,,,,
,,,,,SPR24_047,19,Female,2024-04-15_14h30.03.970,jersey_experiment_5_v0,2023.2.2,Win32,84.74576271,,,,,,,,,,,,,,,,110.6261,111.6729,111.6729,114.9319,return,0.7336,,24.08854167,0,12,12,16,1,FBP-YG-17.png,0.37,1.2,17,0.25,,,,,,,,,,,,,,,,,,,,,,,,,,,,,,,,,,,,,,,,,,,,,
,,,,,SPR24_047,19,Female,2024-04-15_14h30.03.970,jersey_experiment_5_v0,2023.2.2,Win32,84.74576271,,,,,,,,,,,,,,,,114.9321,115.9789,115.9789,118.779,return,0.7858,,17.83854167,0,13,13,25,1,FBP-YG-19.png,0.35,1.2,26,0.25,,,,,,,,,,,,,,,,,,,,,,,,,,,,,,,,,,,,,,,,,,,,,
,,,,,SPR24_047,19,Female,2024-04-15_14h30.03.970,jersey_experiment_5_v0,2023.2.2,Win32,84.74576271,,,,,,,,,,,,,,,,118.7792,120.0731,120.0731,122.6732,return,0.6417,,61.71875,0,14,14,12,1,FBP-OG-91.png,0.4,1.2,13,0.5,,,,,,,,,,,,,,,,,,,,,,,,,,,,,,,,,,,,,,,,,,,,,
,,,,,SPR24_047,19,Female,2024-04-15_14h30.03.970,jersey_experiment_5_v0,2023.2.2,Win32,84.74576271,,,,,,,,,,,,,,,,122.6733,123.9673,123.9673,126.8027,return,0.7933,,86.06770833,0,15,15,14,1,FBP-OG-91.png,0.45,1.2,15,0.5,,,,,,,,,,,,,,,,,,,,,,,,,,,,,,,,,,,,,,,,,,,,,
,,,,,SPR24_047,19,Female,2024-04-15_14h30.03.970,jersey_experiment_5_v0,2023.2.2,Win32,84.74576271,,,,,,,,,,,,,,,,126.803,127.85,127.85,130.1205,return,0.6367,,32.8125,0,16,16,21,1,FBP-YG-18.png,0.37,1.2,22,0.25,,,,,,,,,,,,,,,,,,,,,,,,,,,,,,,,,,,,,,,,,,,,,
,,,,,SPR24_047,19,Female,2024-04-15_14h30.03.970,jersey_experiment_5_v0,2023.2.2,Win32,84.74576271,,,,,,,,,,,,,,,,130.1207,131.4146,131.4146,133.6501,return,0.5961,,49.47916667,0,17,17,32,1,FBP-RB-17.png,0.4,1.2,33,0.5,,,,,,,,,,,,,,,,,,,,,,,,,,,,,,,,,,,,,,,,,,,,,
,,,,,SPR24_047,19,Female,2024-04-15_14h30.03.970,jersey_experiment_5_v0,2023.2.2,Win32,84.74576271,,,,,,,,,,,,,,,,133.6502,134.9442,134.9443,137.0266,return,0.6076,,64.19270833,0,18,18,43,1,FBP-RB-19.png,0.43,1.2,44,0.5,,,,,,,,,,,,,,,,,,,,,,,,,,,,,,,,,,,,,,,,,,,,,
,,,,,SPR24_047,19,Female,2024-04-15_14h30.03.970,jersey_experiment_5_v0,2023.2.2,Win32,84.74576271,,,,,,,,,,,,,,,,137.0268,138.3208,138.3209,140.2151,return,0.5767,,48.69791667,0,19,19,31,1,FBP-RB-17.png,0.37,1.2,32,0.5,,,,,,,,,,,,,,,,,,,,,,,,,,,,,,,,,,,,,,,,,,,,,
,,,,,SPR24_047,19,Female,2024-04-15_14h30.03.970,jersey_experiment_5_v0,2023.2.2,Win32,84.74576271,,,,,,,,,,,,,,,,140.2152,141.2621,141.2621,143.7681,return,0.7551,,44.921875,0,20,20,20,1,FBP-YG-18.png,0.35,1.2,21,0.25,,,,,,,,,,,,,,,,,,,,,,,,,,,,,,,,,,,,,,,,,,,,,
,,,,,SPR24_047,19,Female,2024-04-15_14h30.03.970,jersey_experiment_5_v0,2023.2.2,Win32,84.74576271,,,,,,,,,,,,,,,,143.7683,145.0623,145.0623,147.2741,return,0.8331,,11.71875,0,21,21,10,1,FBP-OG-91.png,0.35,1.2,11,0.5,,,,,,,,,,,,,,,,,,,,,,,,,,,,,,,,,,,,,,,,,,,,,
,,,,,SPR24_047,19,Female,2024-04-15_14h30.03.970,jersey_experiment_5_v0,2023.2.2,Win32,84.74576271,,,,,,,,,,,,,,,,147.2742,148.3216,148.3216,150.2743,return,0.6641,,15.10416667,0,22,22,45,1,FBP-PT-17.png,0.35,1.2,46,0.25,,,,,,,,,,,,,,,,,,,,,,,,,,,,,,,,,,,,,,,,,,,,,
,,,,,SPR24_047,19,Female,2024-04-15_14h30.03.970,jersey_experiment_5_v0,2023.2.2,Win32,84.74576271,,,,,,,,,,,,,,,,150.2745,151.3215,151.3216,153.1213,return,0.736,,78.38541667,0,23,23,59,1,FBP-PT-19.png,0.45,1.2,60,0.25,,,,,,,,,,,,,,,,,,,,,,,,,,,,,,,,,,,,,,,,,,,,,
,,,,,SPR24_047,19,Female,2024-04-15_14h30.03.970,jersey_experiment_5_v0,2023.2.2,Win32,84.74576271,,,,,,,,,,,,,,,,153.1215,154.1684,154.1684,156.0273,return,0.7058,,87.36979167,0,24,24,49,1,FBP-PT-17.png,0.45,1.2,50,0.25,,,,,,,,,,,,,,,,,,,,,,,,,,,,,,,,,,,,,,,,,,,,,
,,,,,SPR24_047,19,Female,2024-04-15_14h30.03.970,jersey_experiment_5_v0,2023.2.2,Win32,84.74576271,,,,,,,,,,,,,,,,156.0275,157.3214,157.3215,158.7922,return,0.6022,,79.16666667,0,25,25,2,1,FBP-OG-71.png,0.4,1.2,3,0.5,,,,,,,,,,,,,,,,,,,,,,,,,,,,,,,,,,,,,,,,,,,,,
,,,,,SPR24_047,19,Female,2024-04-15_14h30.03.970,jersey_experiment_5_v0,2023.2.2,Win32,84.74576271,,,,,,,,,,,,,,,,158.7924,159.8392,159.8392,163.2395,return,1.0598,,87.76041667,0,26,26,54,1,FBP-PT-18.png,0.45,1.2,55,0.25,,,,,,,,,,,,,,,,,,,,,,,,,,,,,,,,,,,,,,,,,,,,,
,,,,,SPR24_047,19,Female,2024-04-15_14h30.03.970,jersey_experiment_5_v0,2023.2.2,Win32,84.74576271,,,,,,,,,,,,,,,,163.2398,164.5337,164.5338,168.3571,return,0.7342,,23.69791667,0,27,27,11,1,FBP-OG-91.png,0.37,1.2,12,0.5,,,,,,,,,,,,,,,,,,,,,,,,,,,,,,,,,,,,,,,,,,,,,
,,,,,SPR24_047,19,Female,2024-04-15_14h30.03.970,jersey_experiment_5_v0,2023.2.2,Win32,84.74576271,,,,,,,,,,,,,,,,168.3573,169.6513,169.6513,172.7221,return,0.6639,,20.703125,0,28,28,40,1,FBP-RB-19.png,0.35,1.2,41,0.5,,,,,,,,,,,,,,,,,,,,,,,,,,,,,,,,,,,,,,,,,,,,,
,,,,,SPR24_047,19,Female,2024-04-15_14h30.03.970,jersey_experiment_5_v0,2023.2.2,Win32,84.74576271,,,,,,,,,,,,,,,,172.7223,173.7691,173.7691,175.993,return,0.6356,,45.05208333,0,29,29,17,1,FBP-YG-17.png,0.4,1.2,18,0.25,,,,,,,,,,,,,,,,,,,,,,,,,,,,,,,,,,,,,,,,,,,,,
,,,,,SPR24_047,19,Female,2024-04-15_14h30.03.970,jersey_experiment_5_v0,2023.2.2,Win32,84.74576271,,,,,,,,,,,,,,,,175.9932,177.287,177.287,179.7342,return,0.6274,,94.40104167,0,30,30,39,1,FBP-RB-18.png,0.45,1.2,40,0.5,,,,,,,,,,,,,,,,,,,,,,,,,,,,,,,,,,,,,,,,,,,,,
,,,,,SPR24_047,19,Female,2024-04-15_14h30.03.970,jersey_experiment_5_v0,2023.2.2,Win32,84.74576271,,,,,,,,,,,,,,,,179.7344,180.7811,180.7812,182.8402,return,0.6259,,42.578125,0,31,31,26,1,FBP-YG-19.png,0.37,1.2,27,0.25,,,,,,,,,,,,,,,,,,,,,,,,,,,,,,,,,,,,,,,,,,,,,
,,,,,SPR24_047,19,Female,2024-04-15_14h30.03.970,jersey_experiment_5_v0,2023.2.2,Win32,84.74576271,,,,,,,,,,,,,,,,182.8402,183.8872,183.8872,185.5699,return,0.5945,,42.1875,0,32,32,47,1,FBP-PT-17.png,0.4,1.2,48,0.25,,,,,,,,,,,,,,,,,,,,,,,,,,,,,,,,,,,,,,,,,,,,,
,,,,,SPR24_047,19,Female,2024-04-15_14h30.03.970,jersey_experiment_5_v0,2023.2.2,Win32,84.74576271,,,,,,,,,,,,,,,,185.5701,186.6167,186.6167,188.5932,return,0.8415,,73.4375,0,33,33,28,1,FBP-YG-19.png,0.43,1.2,29,0.25,,,,,,,,,,,,,,,,,,,,,,,,,,,,,,,,,,,,,,,,,,,,,
,,,,,SPR24_047,19,Female,2024-04-15_14h30.03.970,jersey_experiment_5_v0,2023.2.2,Win32,84.74576271,,,,,,,,,,,,,,,,188.5934,189.8874,189.8875,191.8169,return,0.6833,,73.30729167,0,34,34,42,1,FBP-RB-19.png,0.4,1.2,43,0.5,,,,,,,,,,,,,,,,,,,,,,,,,,,,,,,,,,,,,,,,,,,,,
,,,,,SPR24_047,19,Female,2024-04-15_14h30.03.970,jersey_experiment_5_v0,2023.2.2,Win32,84.74576271,,,,,,,,,,,,,,,,191.817,193.1111,193.1111,195.617,return,0.7594,,96.61458333,0,35,35,9,1,FBP-OG-81.png,0.45,1.2,10,0.5,,,,,,,,,,,,,,,,,,,,,,,,,,,,,,,,,,,,,,,,,,,,,
,,,,,SPR24_047,19,Female,2024-04-15_14h30.03.970,jersey_experiment_5_v0,2023.2.2,Win32,84.74576271,,,,,,,,,,,,,,,,195.6173,196.9113,196.9113,199.5468,return,1.0499,,29.42708333,0,36,36,30,1,FBP-RB-17.png,0.35,1.2,31,0.5,,,,,,,,,,,,,,,,,,,,,,,,,,,,,,,,,,,,,,,,,,,,,
,,,,,SPR24_047,19,Female,2024-04-15_14h30.03.970,jersey_experiment_5_v0,2023.2.2,Win32,84.74576271,,,,,,,,,,,,,,,,199.547,200.5937,200.5937,202.7468,return,0.65,,40.88541667,0,37,37,57,1,FBP-PT-19.png,0.4,1.2,58,0.25,,,,,,,,,,,,,,,,,,,,,,,,,,,,,,,,,,,,,,,,,,,,,
,,,,,SPR24_047,19,Female,2024-04-15_14h30.03.970,jersey_experiment_5_v0,2023.2.2,Win32,84.74576271,,,,,,,,,,,,,,,,202.747,204.0409,204.0409,206.594,return,0.5823,,63.93229167,0,38,38,7,1,FBP-OG-81.png,0.4,1.2,8,0.5,,,,,,,,,,,,,,,,,,,,,,,,,,,,,,,,,,,,,,,,,,,,,
,,,,,SPR24_047,19,Female,2024-04-15_14h30.03.970,jersey_experiment_5_v0,2023.2.2,Win32,84.74576271,,,,,,,,,,,,,,,,206.5943,207.6413,207.6413,209.5941,return,0.6963,,89.97395833,0,39,39,29,1,FBP-YG-19.png,0.45,1.2,30,0.25,,,,,,,,,,,,,,,,,,,,,,,,,,,,,,,,,,,,,,,,,,,,,
,,,,,SPR24_047,19,Female,2024-04-15_14h30.03.970,jersey_experiment_5_v0,2023.2.2,Win32,84.74576271,,,,,,,,,,,,,,,,209.5943,210.8883,210.8884,212.1824,return,0.5892,,68.359375,0,40,40,37,1,FBP-RB-18.png,0.4,1.2,38,0.5,,,,,,,,,,,,,,,,,,,,,,,,,,,,,,,,,,,,,,,,,,,,,
,,,,,SPR24_047,19,Female,2024-04-15_14h30.03.970,jersey_experiment_5_v0,2023.2.2,Win32,84.74576271,,,,,,,,,,,,,,,,212.1826,213.4766,213.4766,215.5589,return,0.6714,,68.359375,0,41,41,38,1,FBP-RB-18.png,0.43,1.2,39,0.5,,,,,,,,,,,,,,,,,,,,,,,,,,,,,,,,,,,,,,,,,,,,,
,,,,,SPR24_047,19,Female,2024-04-15_14h30.03.970,jersey_experiment_5_v0,2023.2.2,Win32,84.74576271,,,,,,,,,,,,,,,,215.5591,216.6062,216.6063,218.2769,return,0.6993,,59.50520833,0,42,42,52,1,FBP-PT-18.png,0.4,1.2,53,0.25,,,,,,,,,,,,,,,,,,,,,,,,,,,,,,,,,,,,,,,,,,,,,
,,,,,SPR24_047,19,Female,2024-04-15_14h30.03.970,jersey_experiment_5_v0,2023.2.2,Win32,84.74576271,,,,,,,,,,,,,,,,218.277,219.5709,219.5709,221.724,return,0.5981,,28.125,0,43,43,35,1,FBP-RB-18.png,0.35,1.2,36,0.5,,,,,,,,,,,,,,,,,,,,,,,,,,,,,,,,,,,,,,,,,,,,,
,,,,,SPR24_047,19,Female,2024-04-15_14h30.03.970,jersey_experiment_5_v0,2023.2.2,Win32,84.74576271,,,,,,,,,,,,,,,,221.7242,222.7712,222.7712,225.6183,return,1.6201,,88.41145833,0,44,44,58,1,FBP-PT-19.png,0.43,1.2,59,0.25,,,,,,,,,,,,,,,,,,,,,,,,,,,,,,,,,,,,,,,,,,,,,
,,,,,SPR24_047,19,Female,2024-04-15_14h30.03.970,jersey_experiment_5_v0,2023.2.2,Win32,84.74576271,,,,,,,,,,,,,,,,225.6185,226.9123,226.9124,228.9477,return,0.6042,,19.27083333,0,45,45,6,1,FBP-OG-81.png,0.37,1.2,7,0.5,,,,,,,,,,,,,,,,,,,,,,,,,,,,,,,,,,,,,,,,,,,,,
,,,,,SPR24_047,19,Female,2024-04-15_14h30.03.970,jersey_experiment_5_v0,2023.2.2,Win32,84.74576271,,,,,,,,,,,,,,,,228.9479,230.2418,230.2418,231.689,return,0.6025,,19.40104167,0,46,46,0,1,FBP-OG-71.png,0.35,1.2,1,0.5,,,,,,,,,,,,,,,,,,,,,,,,,,,,,,,,,,,,,,,,,,,,,
,,,,,SPR24_047,19,Female,2024-04-15_14h30.03.970,jersey_experiment_5_v0,2023.2.2,Win32,84.74576271,,,,,,,,,,,,,,,,231.6892,232.9832,232.9832,236.3596,return,1.0231,,19.40104167,0,47,47,41,1,FBP-RB-19.png,0.37,1.2,42,0.5,,,,,,,,,,,,,,,,,,,,,,,,,,,,,,,,,,,,,,,,,,,,,
,,,,,SPR24_047,19,Female,2024-04-15_14h30.03.970,jersey_experiment_5_v0,2023.2.2,Win32,84.74576271,,,,,,,,,,,,,,,,236.3598,237.4073,237.4074,238.6422,return,0.3138,,27.99479167,0,48,48,15,1,FBP-YG-17.png,0.35,1.2,16,0.25,,,,,,,,,,,,,,,,,,,,,,,,,,,,,,,,,,,,,,,,,,,,,
,,,,,SPR24_047,19,Female,2024-04-15_14h30.03.970,jersey_experiment_5_v0,2023.2.2,Win32,84.74576271,,,,,,,,,,,,,,,,238.6424,239.9367,239.9367,240.7484,return,0.2123,,37.23958333,0,49,49,1,1,FBP-OG-71.png,0.37,1.2,2,0.5,,,,,,,,,,,,,,,,,,,,,,,,,,,,,,,,,,,,,,,,,,,,,
,,,,,SPR24_047,19,Female,2024-04-15_14h30.03.970,jersey_experiment_5_v0,2023.2.2,Win32,84.74576271,,,,,,,,,,,,,,,,240.7486,241.7952,241.7953,243.066,return,0.2827,,51.43229167,0,50,50,51,1,FBP-PT-18.png,0.37,1.2,52,0.25,,,,,,,,,,,,,,,,,,,,,,,,,,,,,,,,,,,,,,,,,,,,,
,,,,,SPR24_047,19,Female,2024-04-15_14h30.03.970,jersey_experiment_5_v0,2023.2.2,Win32,84.74576271,,,,,,,,,,,,,,,,243.0662,244.113,244.1131,245.1601,return,0.2936,,79.03645833,0,51,51,23,1,FBP-YG-18.png,0.43,1.2,24,0.25,,,,,,,,,,,,,,,,,,,,,,,,,,,,,,,,,,,,,,,,,,,,,
,,,,,SPR24_047,19,Female,2024-04-15_14h30.03.970,jersey_experiment_5_v0,2023.2.2,Win32,84.74576271,,,,,,,,,,,,,,,,245.1603,246.4542,246.4543,247.4188,return,0.3059,,67.44791667,0,52,52,36,1,FBP-RB-18.png,0.37,1.2,37,0.5,,,,,,,,,,,,,,,,,,,,,,,,,,,,,,,,,,,,,,,,,,,,,
,,,,,SPR24_047,19,Female,2024-04-15_14h30.03.970,jersey_experiment_5_v0,2023.2.2,Win32,84.74576271,,,,,,,,,,,,,,,,247.4191,248.4661,248.4662,249.6546,return,0.3188,,78.515625,0,53,53,18,1,FBP-YG-17.png,0.43,1.2,19,0.25,,,,,,,,,,,,,,,,,,,,,,,,,,,,,,,,,,,,,,,,,,,,,
,,,,,SPR24_047,19,Female,2024-04-15_14h30.03.970,jersey_experiment_5_v0,2023.2.2,Win32,84.74576271,,,,,,,,,,,,,,,,249.6549,250.7014,250.7015,251.8899,return,0.2436,,48.69791667,0,54,54,55,1,FBP-PT-19.png,0.35,1.2,56,0.25,,,,,,,,,,,,,,,,,,,,,,,,,,,,,,,,,,,,,,,,,,,,,
,,,,,SPR24_047,19,Female,2024-04-15_14h30.03.970,jersey_experiment_5_v0,2023.2.2,Win32,84.74576271,,,,,,,,,,,,,,,,251.8901,253.1841,253.1841,254.29,return,0.2668,,89.97395833,0,55,55,4,1,FBP-OG-71.png,0.45,1.2,5,0.5,,,,,,,,,,,,,,,,,,,,,,,,,,,,,,,,,,,,,,,,,,,,,
,,,,,SPR24_047,19,Female,2024-04-15_14h30.03.970,jersey_experiment_5_v0,2023.2.2,Win32,84.74576271,,,,,,,,,,,,,,,,254.2902,255.3369,255.337,256.4667,return,0.1843,,72.52604167,0,56,56,56,1,FBP-PT-19.png,0.37,1.2,57,0.25,,,,,,,,,,,,,,,,,,,,,,,,,,,,,,,,,,,,,,,,,,,,,
,,,,,SPR24_047,19,Female,2024-04-15_14h30.03.970,jersey_experiment_5_v0,2023.2.2,Win32,84.74576271,,,,,,,,,,,,,,,,256.4669,257.5135,257.5135,258.396,return,0.2152,,77.34375,0,57,57,27,1,FBP-YG-19.png,0.4,1.2,28,0.25,,,,,,,,,,,,,,,,,,,,,,,,,,,,,,,,,,,,,,,,,,,,,
,,,,,SPR24_047,19,Female,2024-04-15_14h30.03.970,jersey_experiment_5_v0,2023.2.2,Win32,84.74576271,,,,,,,,,,,,,,,,258.3962,259.6902,259.6903,260.6902,return,0.1258,,91.92708333,0,58,58,3,1,FBP-OG-71.png,0.43,1.2,4,0.5,,,,,,,,,,,,,,,,,,,,,,,,,,,,,,,,,,,,,,,,,,,,,
,,,,,SPR24_047,19,Female,2024-04-15_14h30.03.970,jersey_experiment_5_v0,2023.2.2,Win32,84.74576271,,,,,,,,,,,,,,,,260.6903,261.7372,261.7373,262.5846,return,0.2031,,92.31770833,0,59,59,22,1,FBP-YG-18.png,0.4,1.2,23,0.25,,,,,,,,,,,,,,,,,,,,,,,,,,,,,,,,,,,,,,,,,,,,,
,,,,,SPR24_047,19,Female,2024-04-15_14h30.03.970,jersey_experiment_5_v0,2023.2.2,Win32,84.74576271,,,,,,,,,,,,,,,,262.5883,263.6313,263.6313,264.9022,return,0.2252,,72.265625,,,,,,FBP-YG-91.png,0.37,1.2,27,0.25,0,0,0,26,1,,,,,,,,,,,,,,,,,,,,,,,,,,,,,,,,,,,,,,,,
,,,,,SPR24_047,19,Female,2024-04-15_14h30.03.970,jersey_experiment_5_v0,2023.2.2,Win32,84.74576271,,,,,,,,,,,,,,,,264.9025,265.9491,265.9492,266.9848,return,0.1891,,84.11458333,,,,,,FBP-YG-71.png,0.37,1.2,17,0.25,0,1,1,16,1,,,,,,,,,,,,,,,,,,,,,,,,,,,,,,,,,,,,,,,,
,,,,,SPR24_047,19,Female,2024-04-15_14h30.03.970,jersey_experiment_5_v0,2023.2.2,Win32,84.74576271,,,,,,,,,,,,,,,,266.985,268.0316,268.0316,270.1139,return,0.4431,,42.83854167,,,,,,FBP-YG-71.png,0.35,1.2,16,0.25,0,2,2,15,1,,,,,,,,,,,,,,,,,,,,,,,,,,,,,,,,,,,,,,,,
,,,,,SPR24_047,19,Female,2024-04-15_14h30.03.970,jersey_experiment_5_v0,2023.2.2,Win32,84.74576271,,,,,,,,,,,,,,,,270.1142,271.1611,271.1611,272.0201,return,0.2061,,71.875,,,,,,FBP-PT-81.png,0.35,1.2,51,0.25,0,3,3,50,1,,,,,,,,,,,,,,,,,,,,,,,,,,,,,,,,,,,,,,,,
,,,,,SPR24_047,19,Female,2024-04-15_14h30.03.970,jersey_experiment_5_v0,2023.2.2,Win32,84.74576271,,,,,,,,,,,,,,,,272.0204,273.067,273.0671,274.0552,return,0.2237,,68.48958333,,,,,,FBP-PT-91.png,0.37,1.2,57,0.25,0,4,4,56,1,,,,,,,,,,,,,,,,,,,,,,,,,,,,,,,,,,,,,,,,
,,,,,SPR24_047,19,Female,2024-04-15_14h30.03.970,jersey_experiment_5_v0,2023.2.2,Win32,84.74576271,,,,,,,,,,,,,,,,274.0555,275.1023,275.1024,276.0203,return,0.1921,,51.69270833,,,,,,FBP-YG-91.png,0.35,1.2,26,0.25,0,5,5,25,1,,,,,,,,,,,,,,,,,,,,,,,,,,,,,,,,,,,,,,,,
,,,,,SPR24_047,19,Female,2024-04-15_14h30.03.970,jersey_experiment_5_v0,2023.2.2,Win32,84.74576271,,,,,,,,,,,,,,,,276.0205,277.0672,277.0672,278.0085,return,0.1898,,56.11979167,,,,,,FBP-YG-81.png,0.35,1.2,21,0.25,0,6,6,20,1,,,,,,,,,,,,,,,,,,,,,,,,,,,,,,,,,,,,,,,,
,,,,,SPR24_047,19,Female,2024-04-15_14h30.03.970,jersey_experiment_5_v0,2023.2.2,Win32,84.74576271,,,,,,,,,,,,,,,,278.0087,279.3026,279.3027,279.8908,return,0.1714,,66.796875,,,,,,FBP-RB-81.png,0.35,1.2,36,0.5,0,7,7,35,1,,,,,,,,,,,,,,,,,,,,,,,,,,,,,,,,,,,,,,,,
,,,,,SPR24_047,19,Female,2024-04-15_14h30.03.970,jersey_experiment_5_v0,2023.2.2,Win32,84.74576271,,,,,,,,,,,,,,,,279.891,280.9379,280.9379,281.7145,return,0.2171,,74.73958333,,,,,,FBP-PT-71.png,0.35,1.2,46,0.25,0,8,8,45,1,,,,,,,,,,,,,,,,,,,,,,,,,,,,,,,,,,,,,,,,
,,,,,SPR24_047,19,Female,2024-04-15_14h30.03.970,jersey_experiment_5_v0,2023.2.2,Win32,84.74576271,,,,,,,,,,,,,,,,281.7147,283.0087,283.0087,283.9735,return,0.2049,,98.4375,,,,,,FBP-RB-91.png,0.43,1.2,44,0.5,0,9,9,43,1,,,,,,,,,,,,,,,,,,,,,,,,,,,,,,,,,,,,,,,,
,,,,,SPR24_047,19,Female,2024-04-15_14h30.03.970,jersey_experiment_5_v0,2023.2.2,Win32,84.74576271,,,,,,,,,,,,,,,,283.9738,285.2676,285.2676,286.7381,return,1.2886,,97.265625,,,,,,FBP-OG-18.png,0.45,1.2,10,0.5,0,10,10,9,1,,,,,,,,,,,,,,,,,,,,,,,,,,,,,,,,,,,,,,,,
,,,,,SPR24_047,19,Female,2024-04-15_14h30.03.970,jersey_experiment_5_v0,2023.2.2,Win32,84.74576271,,,,,,,,,,,,,,,,286.7383,287.7853,287.7853,288.8442,return,0.2359,,97.91666667,,,,,,FBP-PT-81.png,0.45,1.2,55,0.25,0,11,11,54,1,,,,,,,,,,,,,,,,,,,,,,,,,,,,,,,,,,,,,,,,
,,,,,SPR24_047,19,Female,2024-04-15_14h30.03.970,jersey_experiment_5_v0,2023.2.2,Win32,84.74576271,,,,,,,,,,,,,,,,288.8444,290.1384,290.1384,290.9618,return,0.2414,,98.046875,,,,,,FBP-RB-71.png,0.45,1.2,35,0.5,0,12,12,34,1,,,,,,,,,,,,,,,,,,,,,,,,,,,,,,,,,,,,,,,,
,,,,,SPR24_047,19,Female,2024-04-15_14h30.03.970,jersey_experiment_5_v0,2023.2.2,Win32,84.74576271,,,,,,,,,,,,,,,,290.9619,292.256,292.256,292.9148,return,0.2166,,97.91666667,,,,,,FBP-OG-19.png,0.45,1.2,15,0.5,0,13,13,14,1,,,,,,,,,,,,,,,,,,,,,,,,,,,,,,,,,,,,,,,,
,,,,,SPR24_047,19,Female,2024-04-15_14h30.03.970,jersey_experiment_5_v0,2023.2.2,Win32,84.74576271,,,,,,,,,,,,,,,,292.915,294.209,294.209,295.3149,return,0.193,,97.78645833,,,,,,FBP-RB-91.png,0.45,1.2,45,0.5,0,14,14,44,1,,,,,,,,,,,,,,,,,,,,,,,,,,,,,,,,,,,,,,,,
,,,,,SPR24_047,19,Female,2024-04-15_14h30.03.970,jersey_experiment_5_v0,2023.2.2,Win32,84.74576271,,,,,,,,,,,,,,,,295.3151,296.609,296.609,297.9738,return,0.2373,,74.34895833,,,,,,FBP-OG-19.png,0.37,1.2,12,0.5,0,15,15,11,1,,,,,,,,,,,,,,,,,,,,,,,,,,,,,,,,,,,,,,,,
,,,,,SPR24_047,19,Female,2024-04-15_14h30.03.970,jersey_experiment_5_v0,2023.2.2,Win32,84.74576271,,,,,,,,,,,,,,,,297.974,299.0208,299.0208,300.2914,return,0.1945,,98.69791667,,,,,,FBP-YG-91.png,0.45,1.2,30,0.25,0,16,16,29,1,,,,,,,,,,,,,,,,,,,,,,,,,,,,,,,,,,,,,,,,
,,,,,SPR24_047,19,Female,2024-04-15_14h30.03.970,jersey_experiment_5_v0,2023.2.2,Win32,84.74576271,,,,,,,,,,,,,,,,300.2917,301.5857,301.5857,303.115,return,0.1649,,99.08854167,,,,,,FBP-RB-81.png,0.43,1.2,39,0.5,0,17,17,38,1,,,,,,,,,,,,,,,,,,,,,,,,,,,,,,,,,,,,,,,,
,,,,,SPR24_047,19,Female,2024-04-15_14h30.03.970,jersey_experiment_5_v0,2023.2.2,Win32,84.74576271,,,,,,,,,,,,,,,,303.1151,304.4092,304.4093,305.0799,return,0.1654,,98.69791667,,,,,,FBP-RB-71.png,0.43,1.2,34,0.5,0,18,18,33,1,,,,,,,,,,,,,,,,,,,,,,,,,,,,,,,,,,,,,,,,
,,,,,SPR24_047,19,Female,2024-04-15_14h30.03.970,jersey_experiment_5_v0,2023.2.2,Win32,84.74576271,,,,,,,,,,,,,,,,305.0802,306.3741,306.3741,307.1153,return,0.3144,,98.17708333,,,,,,FBP-OG-19.png,0.43,1.2,14,0.5,0,19,19,13,1,,,,,,,,,,,,,,,,,,,,,,,,,,,,,,,,,,,,,,,,
,,,,,SPR24_047,19,Female,2024-04-15_14h30.03.970,jersey_experiment_5_v0,2023.2.2,Win32,84.74576271,,,,,,,,,,,,,,,,307.1155,308.1625,308.1625,309.5861,return,0.4409,,98.17708333,,,,,,FBP-PT-71.png,0.4,1.2,48,0.25,0,20,20,47,1,,,,,,,,,,,,,,,,,,,,,,,,,,,,,,,,,,,,,,,,
,,,,,SPR24_047,19,Female,2024-04-15_14h30.03.970,jersey_experiment_5_v0,2023.2.2,Win32,84.74576271,,,,,,,,,,,,,,,,309.5862,310.88,310.88,311.8333,return,0.5322,,98.046875,,,,,,FBP-RB-81.png,0.45,1.2,40,0.5,0,21,21,39,1,,,,,,,,,,,,,,,,,,,,,,,,,,,,,,,,,,,,,,,,
,,,,,SPR24_047,19,Female,2024-04-15_14h30.03.970,jersey_experiment_5_v0,2023.2.2,Win32,84.74576271,,,,,,,,,,,,,,,,311.8334,313.1274,313.1274,314.8096,return,0.2683,,77.60416667,,,,,,FBP-RB-91.png,0.37,1.2,42,0.5,0,22,22,41,1,,,,,,,,,,,,,,,,,,,,,,,,,,,,,,,,,,,,,,,,
,,,,,SPR24_047,19,Female,2024-04-15_14h30.03.970,jersey_experiment_5_v0,2023.2.2,Win32,84.74576271,,,,,,,,,,,,,,,,314.8097,315.8568,315.8569,316.6334,return,0.179,,77.47395833,,,,,,FBP-YG-71.png,0.4,1.2,18,0.25,0,23,23,17,1,,,,,,,,,,,,,,,,,,,,,,,,,,,,,,,,,,,,,,,,
,,,,,SPR24_047,19,Female,2024-04-15_14h30.03.970,jersey_experiment_5_v0,2023.2.2,Win32,84.74576271,,,,,,,,,,,,,,,,316.6336,317.6803,317.6804,318.8099,return,0.2119,,97.78645833,,,,,,FBP-YG-81.png,0.45,1.2,25,0.25,0,24,24,24,1,,,,,,,,,,,,,,,,,,,,,,,,,,,,,,,,,,,,,,,,
,,,,,SPR24_047,19,Female,2024-04-15_14h30.03.970,jersey_experiment_5_v0,2023.2.2,Win32,84.74576271,,,,,,,,,,,,,,,,318.8101,319.857,319.857,320.5394,return,0.0853,,97.52604167,,,,,,FBP-YG-81.png,0.43,1.2,24,0.25,0,25,25,23,1,,,,,,,,,,,,,,,,,,,,,,,,,,,,,,,,,,,,,,,,
,,,,,SPR24_047,19,Female,2024-04-15_14h30.03.970,jersey_experiment_5_v0,2023.2.2,Win32,84.74576271,,,,,,,,,,,,,,,,320.5397,321.5864,321.5864,322.81,return,0.1883,,79.03645833,,,,,,FBP-PT-81.png,0.37,1.2,52,0.25,0,26,26,51,1,,,,,,,,,,,,,,,,,,,,,,,,,,,,,,,,,,,,,,,,
,,,,,SPR24_047,19,Female,2024-04-15_14h30.03.970,jersey_experiment_5_v0,2023.2.2,Win32,84.74576271,,,,,,,,,,,,,,,,322.8103,324.1042,324.1042,324.7394,return,0.1478,,79.55729167,,,,,,FBP-RB-71.png,0.35,1.2,31,0.5,0,27,27,30,1,,,,,,,,,,,,,,,,,,,,,,,,,,,,,,,,,,,,,,,,
,,,,,SPR24_047,19,Female,2024-04-15_14h30.03.970,jersey_experiment_5_v0,2023.2.2,Win32,84.74576271,,,,,,,,,,,,,,,,324.7396,326.0336,326.0336,326.8572,return,0.2359,,94.40104167,,,,,,FBP-OG-17.png,0.43,1.2,4,0.5,0,28,28,3,1,,,,,,,,,,,,,,,,,,,,,,,,,,,,,,,,,,,,,,,,
,,,,,SPR24_047,19,Female,2024-04-15_14h30.03.970,jersey_experiment_5_v0,2023.2.2,Win32,84.74576271,,,,,,,,,,,,,,,,326.8574,327.9044,327.9044,328.6572,return,0.2187,,97.00520833,,,,,,FBP-PT-91.png,0.43,1.2,59,0.25,0,29,29,58,1,,,,,,,,,,,,,,,,,,,,,,,,,,,,,,,,,,,,,,,,
,,,,,SPR24_047,19,Female,2024-04-15_14h30.03.970,jersey_experiment_5_v0,2023.2.2,Win32,84.74576271,,,,,,,,,,,,,,,,328.6574,329.9515,329.9515,330.6926,return,0.1936,,96.875,,,,,,FBP-OG-19.png,0.4,1.2,13,0.5,0,30,30,12,1,,,,,,,,,,,,,,,,,,,,,,,,,,,,,,,,,,,,,,,,
,,,,,SPR24_047,19,Female,2024-04-15_14h30.03.970,jersey_experiment_5_v0,2023.2.2,Win32,84.74576271,,,,,,,,,,,,,,,,330.6927,331.7397,331.7398,332.2573,return,0.1855,,96.61458333,,,,,,FBP-PT-91.png,0.4,1.2,58,0.25,0,31,31,57,1,,,,,,,,,,,,,,,,,,,,,,,,,,,,,,,,,,,,,,,,
,,,,,SPR24_047,19,Female,2024-04-15_14h30.03.970,jersey_experiment_5_v0,2023.2.2,Win32,84.74576271,,,,,,,,,,,,,,,,332.2576,333.5515,333.5516,334.5164,return,0.1589,,81.11979167,,,,,,FBP-OG-17.png,0.37,1.2,2,0.5,0,32,32,1,1,,,,,,,,,,,,,,,,,,,,,,,,,,,,,,,,,,,,,,,,
,,,,,SPR24_047,19,Female,2024-04-15_14h30.03.970,jersey_experiment_5_v0,2023.2.2,Win32,84.74576271,,,,,,,,,,,,,,,,334.5166,335.5634,335.5634,336.187,return,0.2824,,81.25,,,,,,FBP-YG-91.png,0.4,1.2,28,0.25,0,33,33,27,1,,,,,,,,,,,,,,,,,,,,,,,,,,,,,,,,,,,,,,,,
,,,,,SPR24_047,19,Female,2024-04-15_14h30.03.970,jersey_experiment_5_v0,2023.2.2,Win32,84.74576271,,,,,,,,,,,,,,,,336.1871,337.2341,337.2342,337.9047,return,0.1715,,81.25,,,,,,FBP-PT-71.png,0.37,1.2,47,0.25,0,34,34,46,1,,,,,,,,,,,,,,,,,,,,,,,,,,,,,,,,,,,,,,,,
,,,,,SPR24_047,19,Female,2024-04-15_14h30.03.970,jersey_experiment_5_v0,2023.2.2,Win32,84.74576271,,,,,,,,,,,,,,,,337.905,339.1989,339.1989,340.0341,return,0.2196,,96.22395833,,,,,,FBP-OG-17.png,0.45,1.2,5,0.5,0,35,35,4,1,,,,,,,,,,,,,,,,,,,,,,,,,,,,,,,,,,,,,,,,
,,,,,SPR24_047,19,Female,2024-04-15_14h30.03.970,jersey_experiment_5_v0,2023.2.2,Win32,84.74576271,,,,,,,,,,,,,,,,340.0343,341.0813,341.0813,341.9871,return,0.1248,,95.3125,,,,,,FBP-PT-71.png,0.45,1.2,50,0.25,0,36,36,49,1,,,,,,,,,,,,,,,,,,,,,,,,,,,,,,,,,,,,,,,,
,,,,,SPR24_047,19,Female,2024-04-15_14h30.03.970,jersey_experiment_5_v0,2023.2.2,Win32,84.74576271,,,,,,,,,,,,,,,,341.9873,343.2815,343.2816,344.2815,return,0.1555,,78.77604167,,,,,,FBP-OG-18.png,0.35,1.2,6,0.5,0,37,37,5,1,,,,,,,,,,,,,,,,,,,,,,,,,,,,,,,,,,,,,,,,
,,,,,SPR24_047,19,Female,2024-04-15_14h30.03.970,jersey_experiment_5_v0,2023.2.2,Win32,84.74576271,,,,,,,,,,,,,,,,344.2817,345.5756,345.5756,346.5874,return,0.3204,,93.75,,,,,,FBP-RB-71.png,0.4,1.2,33,0.5,0,38,38,32,1,,,,,,,,,,,,,,,,,,,,,,,,,,,,,,,,,,,,,,,,
,,,,,SPR24_047,19,Female,2024-04-15_14h30.03.970,jersey_experiment_5_v0,2023.2.2,Win32,84.74576271,,,,,,,,,,,,,,,,346.5877,347.8817,347.8817,349.3521,return,0.7643,,76.953125,,,,,,FBP-OG-17.png,0.35,1.2,1,0.5,0,39,39,0,1,,,,,,,,,,,,,,,,,,,,,,,,,,,,,,,,,,,,,,,,
,,,,,SPR24_047,19,Female,2024-04-15_14h30.03.970,jersey_experiment_5_v0,2023.2.2,Win32,84.74576271,,,,,,,,,,,,,,,,349.3522,350.6462,350.6463,352.1286,return,0.1833,,96.35416667,,,,,,FBP-RB-91.png,0.4,1.2,43,0.5,0,40,40,42,1,,,,,,,,,,,,,,,,,,,,,,,,,,,,,,,,,,,,,,,,
,,,,,SPR24_047,19,Female,2024-04-15_14h30.03.970,jersey_experiment_5_v0,2023.2.2,Win32,84.74576271,,,,,,,,,,,,,,,,352.1288,353.1759,353.176,354.9641,return,0.1921,,95.3125,,,,,,FBP-YG-91.png,0.43,1.2,29,0.25,0,41,41,28,1,,,,,,,,,,,,,,,,,,,,,,,,,,,,,,,,,,,,,,,,
,,,,,SPR24_047,19,Female,2024-04-15_14h30.03.970,jersey_experiment_5_v0,2023.2.2,Win32,84.74576271,,,,,,,,,,,,,,,,354.9644,356.2585,356.2586,356.8818,return,0.1261,,97.13541667,,,,,,FBP-OG-18.png,0.43,1.2,9,0.5,0,42,42,8,1,,,,,,,,,,,,,,,,,,,,,,,,,,,,,,,,,,,,,,,,
,,,,,SPR24_047,19,Female,2024-04-15_14h30.03.970,jersey_experiment_5_v0,2023.2.2,Win32,84.74576271,,,,,,,,,,,,,,,,356.882,357.9289,357.929,358.8701,return,0.133,,85.80729167,,,,,,FBP-YG-81.png,0.37,1.2,22,0.25,0,43,43,21,1,,,,,,,,,,,,,,,,,,,,,,,,,,,,,,,,,,,,,,,,
,,,,,SPR24_047,19,Female,2024-04-15_14h30.03.970,jersey_experiment_5_v0,2023.2.2,Win32,84.74576271,,,,,,,,,,,,,,,,358.8704,359.9171,359.9172,361.0466,return,0.1919,,92.44791667,,,,,,FBP-YG-71.png,0.45,1.2,20,0.25,0,44,44,19,1,,,,,,,,,,,,,,,,,,,,,,,,,,,,,,,,,,,,,,,,
,,,,,SPR24_047,19,Female,2024-04-15_14h30.03.970,jersey_experiment_5_v0,2023.2.2,Win32,84.74576271,,,,,,,,,,,,,,,,361.0468,362.094,362.094,362.9997,return,0.1672,,96.35416667,,,,,,FBP-PT-81.png,0.43,1.2,54,0.25,0,45,45,53,1,,,,,,,,,,,,,,,,,,,,,,,,,,,,,,,,,,,,,,,,
,,,,,SPR24_047,19,Female,2024-04-15_14h30.03.970,jersey_experiment_5_v0,2023.2.2,Win32,84.74576271,,,,,,,,,,,,,,,,362.9999,364.2938,364.2938,365.6115,return,0.2351,,69.53125,,,,,,FBP-RB-91.png,0.35,1.2,41,0.5,0,46,46,40,1,,,,,,,,,,,,,,,,,,,,,,,,,,,,,,,,,,,,,,,,
,,,,,SPR24_047,19,Female,2024-04-15_14h30.03.970,jersey_experiment_5_v0,2023.2.2,Win32,84.74576271,,,,,,,,,,,,,,,,365.6116,366.9057,366.9057,367.3998,return,0.2468,,69.66145833,,,,,,FBP-OG-18.png,0.4,1.2,8,0.5,0,47,47,7,1,,,,,,,,,,,,,,,,,,,,,,,,,,,,,,,,,,,,,,,,
,,,,,SPR24_047,19,Female,2024-04-15_14h30.03.970,jersey_experiment_5_v0,2023.2.2,Win32,84.74576271,,,,,,,,,,,,,,,,367.4,368.6941,368.6941,369.6235,return,0.3997,,69.66145833,,,,,,FBP-OG-19.png,0.35,1.2,11,0.5,0,48,48,10,1,,,,,,,,,,,,,,,,,,,,,,,,,,,,,,,,,,,,,,,,
,,,,,SPR24_047,19,Female,2024-04-15_14h30.03.970,jersey_experiment_5_v0,2023.2.2,Win32,84.74576271,,,,,,,,,,,,,,,,369.6237,370.6706,370.6707,371.7648,return,0.1437,,90.36458333,,,,,,FBP-YG-71.png,0.43,1.2,19,0.25,0,49,49,18,1,,,,,,,,,,,,,,,,,,,,,,,,,,,,,,,,,,,,,,,,
,,,,,SPR24_047,19,Female,2024-04-15_14h30.03.970,jersey_experiment_5_v0,2023.2.2,Win32,84.74576271,,,,,,,,,,,,,,,,371.765,373.059,373.059,374.2942,return,0.2484,,59.11458333,,,,,,FBP-OG-18.png,0.37,1.2,7,0.5,0,50,50,6,1,,,,,,,,,,,,,,,,,,,,,,,,,,,,,,,,,,,,,,,,
,,,,,SPR24_047,19,Female,2024-04-15_14h30.03.970,jersey_experiment_5_v0,2023.2.2,Win32,84.74576271,,,,,,,,,,,,,,,,374.2944,375.3414,375.3414,376.1531,return,0.1276,,60.28645833,,,,,,FBP-PT-81.png,0.4,1.2,53,0.25,0,51,51,52,1,,,,,,,,,,,,,,,,,,,,,,,,,,,,,,,,,,,,,,,,
,,,,,SPR24_047,19,Female,2024-04-15_14h30.03.970,jersey_experiment_5_v0,2023.2.2,Win32,84.74576271,,,,,,,,,,,,,,,,376.1532,377.4473,377.4474,378.2122,return,0.2298,,72.91666667,,,,,,FBP-RB-81.png,0.37,1.2,37,0.5,0,52,52,36,1,,,,,,,,,,,,,,,,,,,,,,,,,,,,,,,,,,,,,,,,
,,,,,SPR24_047,19,Female,2024-04-15_14h30.03.970,jersey_experiment_5_v0,2023.2.2,Win32,84.74576271,,,,,,,,,,,,,,,,378.2125,379.5064,379.5064,380.3063,return,0.1938,,73.30729167,,,,,,FBP-RB-81.png,0.4,1.2,38,0.5,0,53,53,37,1,,,,,,,,,,,,,,,,,,,,,,,,,,,,,,,,,,,,,,,,
,,,,,SPR24_047,19,Female,2024-04-15_14h30.03.970,jersey_experiment_5_v0,2023.2.2,Win32,84.74576271,,,,,,,,,,,,,,,,380.3065,381.3533,381.3533,382.3771,return,0.1878,,59.375,,,,,,FBP-PT-91.png,0.35,1.2,56,0.25,0,54,54,55,1,,,,,,,,,,,,,,,,,,,,,,,,,,,,,,,,,,,,,,,,
,,,,,SPR24_047,19,Female,2024-04-15_14h30.03.970,jersey_experiment_5_v0,2023.2.2,Win32,84.74576271,,,,,,,,,,,,,,,,382.3773,383.671,383.671,385.0831,return,0.2033,,89.71354167,,,,,,FBP-OG-17.png,0.4,1.2,3,0.5,0,55,55,2,1,,,,,,,,,,,,,,,,,,,,,,,,,,,,,,,,,,,,,,,,
,,,,,SPR24_047,19,Female,2024-04-15_14h30.03.970,jersey_experiment_5_v0,2023.2.2,Win32,84.74576271,,,,,,,,,,,,,,,,385.0834,386.13,386.13,388.0243,return,0.2023,,98.56770833,,,,,,FBP-PT-71.png,0.43,1.2,49,0.25,0,56,56,48,1,,,,,,,,,,,,,,,,,,,,,,,,,,,,,,,,,,,,,,,,
,,,,,SPR24_047,19,Female,2024-04-15_14h30.03.970,jersey_experiment_5_v0,2023.2.2,Win32,84.74576271,,,,,,,,,,,,,,,,388.0245,389.0711,389.0712,392.0596,return,0.1972,,97.91666667,,,,,,FBP-PT-91.png,0.45,1.2,60,0.25,0,57,57,59,1,,,,,,,,,,,,,,,,,,,,,,,,,,,,,,,,,,,,,,,,
,,,,,SPR24_047,19,Female,2024-04-15_14h30.03.970,jersey_experiment_5_v0,2023.2.2,Win32,84.74576271,,,,,,,,,,,,,,,,392.0597,393.354,393.354,394.9185,return,0.5422,,61.84895833,,,,,,FBP-RB-71.png,0.37,1.2,32,0.5,0,58,58,31,1,,,,,,,,,,,,,,,,,,,,,,,,,,,,,,,,,,,,,,,,
,,,,,SPR24_047,19,Female,2024-04-15_14h30.03.970,jersey_experiment_5_v0,2023.2.2,Win32,84.74576271,,,,,,,,,,,,,,,,394.9187,395.9656,395.9656,399.4365,return,0.2964,,61.45833333,,,,,,FBP-YG-81.png,0.4,1.2,23,0.25,0,59,59,22,1,,,,,,,,,,,,,,,,,,,,,,,,,,,,,,,,,,,,,,,,
,,,,,SPR24_047,19,Female,2024-04-15_14h30.03.970,jersey_experiment_5_v0,2023.2.2,Win32,84.74576271,,,,,,,,,,,,,,,,,,,,,,,,,,,,,,,,,,,,,,,399.4367,519.4293,,,,,,,,,,,,,,,,,,,,,,,,,,,,,,,,,,,,,,
,,,,,SPR24_047,19,Female,2024-04-15_14h30.03.970,jersey_experiment_5_v0,2023.2.2,Win32,84.74576271,,,,,,,,,,,,,,,,,,,,,,,,,,,,,,,,,,,,,,,,,519.4294,610.5147,return,91.0789,,,,,,,,,,,,,,,,,,,,,,,,,,,,,,,,,,
,,,,,SPR24_047,19,Female,2024-04-15_14h30.03.970,jersey_experiment_5_v0,2023.2.2,Win32,84.74576271,,,,,,,,,,,,,,,,610.5211,611.5734,611.5735,615.2916,return,1.492,,31.11979167,,,,,,FBP-OG-71.png,0.35,1.2,1,0.25,,,,,,,,,,,,,0,0,0,0,1,,,,,,,,,,,,,,,,,,,,,,,,,,,,
,,,,,SPR24_047,19,Female,2024-04-15_14h30.03.970,jersey_experiment_5_v0,2023.2.2,Win32,84.74576271,,,,,,,,,,,,,,,,615.2919,616.5855,616.5855,617.8679,return,0.4943,,94.79166667,,,,,,FBP-PT-19.png,0.45,1.2,60,0.5,,,,,,,,,,,,,0,1,1,59,1,,,,,,,,,,,,,,,,,,,,,,,,,,,,
,,,,,SPR24_047,19,Female,2024-04-15_14h30.03.970,jersey_experiment_5_v0,2023.2.2,Win32,84.74576271,,,,,,,,,,,,,,,,617.8681,619.162,619.162,620.2681,return,0.3906,,70.83333333,,,,,,FBP-YG-18.png,0.37,1.2,22,0.5,,,,,,,,,,,,,0,2,2,21,1,,,,,,,,,,,,,,,,,,,,,,,,,,,,
,,,,,SPR24_047,19,Female,2024-04-15_14h30.03.970,jersey_experiment_5_v0,2023.2.2,Win32,84.74576271,,,,,,,,,,,,,,,,620.2683,621.315,621.315,622.2091,return,0.2204,,88.80208333,,,,,,FBP-RB-18.png,0.43,1.2,39,0.25,,,,,,,,,,,,,0,3,3,38,1,,,,,,,,,,,,,,,,,,,,,,,,,,,,
,,,,,SPR24_047,19,Female,2024-04-15_14h30.03.970,jersey_experiment_5_v0,2023.2.2,Win32,84.74576271,,,,,,,,,,,,,,,,622.2094,623.5035,623.5036,624.2682,return,0.3439,,80.20833333,,,,,,FBP-YG-17.png,0.37,1.2,17,0.5,,,,,,,,,,,,,0,4,4,16,1,,,,,,,,,,,,,,,,,,,,,,,,,,,,
,,,,,SPR24_047,19,Female,2024-04-15_14h30.03.970,jersey_experiment_5_v0,2023.2.2,Win32,84.74576271,,,,,,,,,,,,,,,,624.2685,625.5624,625.5625,626.8211,return,0.1784,,99.609375,,,,,,FBP-YG-19.png,0.43,1.2,29,0.5,,,,,,,,,,,,,0,5,5,28,1,,,,,,,,,,,,,,,,,,,,,,,,,,,,
,,,,,SPR24_047,19,Female,2024-04-15_14h30.03.970,jersey_experiment_5_v0,2023.2.2,Win32,84.74576271,,,,,,,,,,,,,,,,626.8213,627.8683,627.8683,628.4564,return,0.1792,,97.00520833,,,,,,FBP-RB-17.png,0.45,1.2,35,0.25,,,,,,,,,,,,,0,6,6,34,1,,,,,,,,,,,,,,,,,,,,,,,,,,,,
,,,,,SPR24_047,19,Female,2024-04-15_14h30.03.970,jersey_experiment_5_v0,2023.2.2,Win32,84.74576271,,,,,,,,,,,,,,,,628.4566,629.5035,629.5035,630.0919,return,0.3527,,96.09375,,,,,,FBP-RB-19.png,0.43,1.2,44,0.25,,,,,,,,,,,,,0,7,7,43,1,,,,,,,,,,,,,,,,,,,,,,,,,,,,
,,,,,SPR24_047,19,Female,2024-04-15_14h30.03.970,jersey_experiment_5_v0,2023.2.2,Win32,84.74576271,,,,,,,,,,,,,,,,630.092,631.3861,631.3861,632.5037,return,0.2263,,60.67708333,,,,,,FBP-PT-19.png,0.37,1.2,57,0.5,,,,,,,,,,,,,0,8,8,56,1,,,,,,,,,,,,,,,,,,,,,,,,,,,,
,,,,,SPR24_047,19,Female,2024-04-15_14h30.03.970,jersey_experiment_5_v0,2023.2.2,Win32,84.74576271,,,,,,,,,,,,,,,,632.5039,633.5507,633.5508,635.3511,return,0.1425,,98.95833333,,,,,,FBP-OG-71.png,0.45,1.2,5,0.25,,,,,,,,,,,,,0,9,9,4,1,,,,,,,,,,,,,,,,,,,,,,,,,,,,
,,,,,SPR24_047,19,Female,2024-04-15_14h30.03.970,jersey_experiment_5_v0,2023.2.2,Win32,84.74576271,,,,,,,,,,,,,,,,635.3514,636.6451,636.6451,637.6922,return,0.1745,,98.56770833,,,,,,FBP-PT-17.png,0.43,1.2,49,0.5,,,,,,,,,,,,,0,10,10,48,1,,,,,,,,,,,,,,,,,,,,,,,,,,,,
,,,,,SPR24_047,19,Female,2024-04-15_14h30.03.970,jersey_experiment_5_v0,2023.2.2,Win32,84.74576271,,,,,,,,,,,,,,,,637.6925,638.9864,638.9864,639.5275,return,0.1297,,97.91666667,,,,,,FBP-YG-17.png,0.4,1.2,18,0.5,,,,,,,,,,,,,0,11,11,17,1,,,,,,,,,,,,,,,,,,,,,,,,,,,,
,,,,,SPR24_047,19,Female,2024-04-15_14h30.03.970,jersey_experiment_5_v0,2023.2.2,Win32,84.74576271,,,,,,,,,,,,,,,,639.5277,640.8216,640.8216,641.7159,return,0.1333,,97.00520833,,,,,,FBP-PT-19.png,0.43,1.2,59,0.5,,,,,,,,,,,,,0,12,12,58,1,,,,,,,,,,,,,,,,,,,,,,,,,,,,
,,,,,SPR24_047,19,Female,2024-04-15_14h30.03.970,jersey_experiment_5_v0,2023.2.2,Win32,84.74576271,,,,,,,,,,,,,,,,641.716,642.7629,642.763,643.4571,return,0.2442,,95.57291667,,,,,,FBP-RB-19.png,0.45,1.2,45,0.25,,,,,,,,,,,,,0,13,13,44,1,,,,,,,,,,,,,,,,,,,,,,,,,,,,
,,,,,SPR24_047,19,Female,2024-04-15_14h30.03.970,jersey_experiment_5_v0,2023.2.2,Win32,84.74576271,,,,,,,,,,,,,,,,643.4572,644.7512,644.7512,645.6691,return,0.2168,,70.05208333,,,,,,FBP-PT-18.png,0.37,1.2,52,0.5,,,,,,,,,,,,,0,14,14,51,1,,,,,,,,,,,,,,,,,,,,,,,,,,,,
,,,,,SPR24_047,19,Female,2024-04-15_14h30.03.970,jersey_experiment_5_v0,2023.2.2,Win32,84.74576271,,,,,,,,,,,,,,,,645.6692,646.716,646.716,647.3865,return,0.1888,,69.01041667,,,,,,FBP-OG-81.png,0.4,1.2,8,0.25,,,,,,,,,,,,,0,15,15,7,1,,,,,,,,,,,,,,,,,,,,,,,,,,,,
,,,,,SPR24_047,19,Female,2024-04-15_14h30.03.970,jersey_experiment_5_v0,2023.2.2,Win32,84.74576271,,,,,,,,,,,,,,,,647.3867,648.4337,648.4337,649.5396,return,0.2537,,64.453125,,,,,,FBP-RB-19.png,0.35,1.2,41,0.25,,,,,,,,,,,,,0,16,16,40,1,,,,,,,,,,,,,,,,,,,,,,,,,,,,
,,,,,SPR24_047,19,Female,2024-04-15_14h30.03.970,jersey_experiment_5_v0,2023.2.2,Win32,84.74576271,,,,,,,,,,,,,,,,649.5399,650.5867,650.5868,652.1398,return,0.1417,,94.140625,,,,,,FBP-OG-91.png,0.45,1.2,15,0.25,,,,,,,,,,,,,0,17,17,14,1,,,,,,,,,,,,,,,,,,,,,,,,,,,,
,,,,,SPR24_047,19,Female,2024-04-15_14h30.03.970,jersey_experiment_5_v0,2023.2.2,Win32,84.74576271,,,,,,,,,,,,,,,,652.14,653.4338,653.4338,654.0809,return,0.2089,,97.265625,,,,,,FBP-YG-18.png,0.43,1.2,24,0.5,,,,,,,,,,,,,0,18,18,23,1,,,,,,,,,,,,,,,,,,,,,,,,,,,,
,,,,,SPR24_047,19,Female,2024-04-15_14h30.03.970,jersey_experiment_5_v0,2023.2.2,Win32,84.74576271,,,,,,,,,,,,,,,,654.081,655.3753,655.3753,656.0222,return,0.2022,,97.52604167,,,,,,FBP-YG-17.png,0.43,1.2,19,0.5,,,,,,,,,,,,,0,19,19,18,1,,,,,,,,,,,,,,,,,,,,,,,,,,,,
,,,,,SPR24_047,19,Female,2024-04-15_14h30.03.970,jersey_experiment_5_v0,2023.2.2,Win32,84.74576271,,,,,,,,,,,,,,,,656.0223,657.3164,657.3164,658.0108,return,0.1413,,97.00520833,,,,,,FBP-PT-18.png,0.4,1.2,53,0.5,,,,,,,,,,,,,0,20,20,52,1,,,,,,,,,,,,,,,,,,,,,,,,,,,,
,,,,,SPR24_047,19,Female,2024-04-15_14h30.03.970,jersey_experiment_5_v0,2023.2.2,Win32,84.74576271,,,,,,,,,,,,,,,,658.0109,659.0577,659.0577,660.8109,return,0.25,,66.92708333,,,,,,FBP-RB-17.png,0.37,1.2,32,0.25,,,,,,,,,,,,,0,21,21,31,1,,,,,,,,,,,,,,,,,,,,,,,,,,,,
,,,,,SPR24_047,19,Female,2024-04-15_14h30.03.970,jersey_experiment_5_v0,2023.2.2,Win32,84.74576271,,,,,,,,,,,,,,,,660.811,662.1049,662.1049,667.2108,return,0.72,,35.28645833,,,,,,FBP-PT-18.png,0.35,1.2,51,0.5,,,,,,,,,,,,,0,22,22,50,1,,,,,,,,,,,,,,,,,,,,,,,,,,,,
,,,,,SPR24_047,19,Female,2024-04-15_14h30.03.970,jersey_experiment_5_v0,2023.2.2,Win32,84.74576271,,,,,,,,,,,,,,,,667.2111,668.505,668.5051,669.2225,return,0.2624,,33.984375,,,,,,FBP-YG-18.png,0.35,1.2,21,0.5,,,,,,,,,,,,,0,23,23,20,1,,,,,,,,,,,,,,,,,,,,,,,,,,,,
,,,,,SPR24_047,19,Female,2024-04-15_14h30.03.970,jersey_experiment_5_v0,2023.2.2,Win32,84.74576271,,,,,,,,,,,,,,,,669.2228,670.2698,670.2698,670.9638,return,0.2744,,33.59375,,,,,,FBP-RB-17.png,0.35,1.2,31,0.25,,,,,,,,,,,,,0,24,24,30,1,,,,,,,,,,,,,,,,,,,,,,,,,,,,
,,,,,SPR24_047,19,Female,2024-04-15_14h30.03.970,jersey_experiment_5_v0,2023.2.2,Win32,84.74576271,,,,,,,,,,,,,,,,670.9639,672.2582,672.2582,673.2228,return,0.2244,,33.59375,,,,,,FBP-YG-19.png,0.35,1.2,26,0.5,,,,,,,,,,,,,0,25,25,25,1,,,,,,,,,,,,,,,,,,,,,,,,,,,,
,,,,,SPR24_047,19,Female,2024-04-15_14h30.03.970,jersey_experiment_5_v0,2023.2.2,Win32,84.74576271,,,,,,,,,,,,,,,,673.2231,674.2699,674.2699,675.8581,return,0.182,,93.359375,,,,,,FBP-RB-19.png,0.4,1.2,43,0.25,,,,,,,,,,,,,0,26,26,42,1,,,,,,,,,,,,,,,,,,,,,,,,,,,,
,,,,,SPR24_047,19,Female,2024-04-15_14h30.03.970,jersey_experiment_5_v0,2023.2.2,Win32,84.74576271,,,,,,,,,,,,,,,,675.8584,677.1523,677.1524,678.2584,return,0.1488,,29.94791667,,,,,,FBP-PT-17.png,0.35,1.2,46,0.5,,,,,,,,,,,,,0,27,27,45,1,,,,,,,,,,,,,,,,,,,,,,,,,,,,
,,,,,SPR24_047,19,Female,2024-04-15_14h30.03.970,jersey_experiment_5_v0,2023.2.2,Win32,84.74576271,,,,,,,,,,,,,,,,678.2585,679.3054,679.3055,682.7644,return,1.9435,,97.78645833,,,,,,FBP-RB-18.png,0.4,1.2,38,0.25,,,,,,,,,,,,,0,28,28,37,1,,,,,,,,,,,,,,,,,,,,,,,,,,,,
,,,,,SPR24_047,19,Female,2024-04-15_14h30.03.970,jersey_experiment_5_v0,2023.2.2,Win32,84.74576271,,,,,,,,,,,,,,,,682.7646,683.8114,683.8114,685.2233,return,0.1062,,32.55208333,,,,,,FBP-RB-18.png,0.37,1.2,37,0.25,,,,,,,,,,,,,0,29,29,36,1,,,,,,,,,,,,,,,,,,,,,,,,,,,,
,,,,,SPR24_047,19,Female,2024-04-15_14h30.03.970,jersey_experiment_5_v0,2023.2.2,Win32,84.74576271,,,,,,,,,,,,,,,,685.2234,686.2705,686.2706,687.4118,return,0.2179,,98.56770833,,,,,,FBP-OG-71.png,0.43,1.2,4,0.25,,,,,,,,,,,,,0,30,30,3,1,,,,,,,,,,,,,,,,,,,,,,,,,,,,
,,,,,SPR24_047,19,Female,2024-04-15_14h30.03.970,jersey_experiment_5_v0,2023.2.2,Win32,84.74576271,,,,,,,,,,,,,,,,687.412,688.4588,688.4588,689.5528,return,0.1363,,51.69270833,,,,,,FBP-OG-71.png,0.37,1.2,2,0.25,,,,,,,,,,,,,0,31,31,1,1,,,,,,,,,,,,,,,,,,,,,,,,,,,,
,,,,,SPR24_047,19,Female,2024-04-15_14h30.03.970,jersey_experiment_5_v0,2023.2.2,Win32,84.74576271,,,,,,,,,,,,,,,,689.5529,690.6001,690.6001,691.5412,return,0.1434,,46.74479167,,,,,,FBP-OG-81.png,0.37,1.2,7,0.25,,,,,,,,,,,,,0,32,32,6,1,,,,,,,,,,,,,,,,,,,,,,,,,,,,
,,,,,SPR24_047,19,Female,2024-04-15_14h30.03.970,jersey_experiment_5_v0,2023.2.2,Win32,84.74576271,,,,,,,,,,,,,,,,691.5414,692.5882,692.5882,693.7294,return,0.2416,,95.05208333,,,,,,FBP-OG-81.png,0.45,1.2,10,0.25,,,,,,,,,,,,,0,33,33,9,1,,,,,,,,,,,,,,,,,,,,,,,,,,,,
,,,,,SPR24_047,19,Female,2024-04-15_14h30.03.970,jersey_experiment_5_v0,2023.2.2,Win32,84.74576271,,,,,,,,,,,,,,,,693.7296,695.0237,695.0237,695.8118,return,0.2273,,93.75,,,,,,FBP-YG-17.png,0.45,1.2,20,0.5,,,,,,,,,,,,,0,34,34,19,1,,,,,,,,,,,,,,,,,,,,,,,,,,,,
,,,,,SPR24_047,19,Female,2024-04-15_14h30.03.970,jersey_experiment_5_v0,2023.2.2,Win32,84.74576271,,,,,,,,,,,,,,,,695.812,697.106,697.1061,698.0591,return,0.2732,,93.22916667,,,,,,FBP-PT-17.png,0.45,1.2,50,0.5,,,,,,,,,,,,,0,35,35,49,1,,,,,,,,,,,,,,,,,,,,,,,,,,,,
,,,,,SPR24_047,19,Female,2024-04-15_14h30.03.970,jersey_experiment_5_v0,2023.2.2,Win32,84.74576271,,,,,,,,,,,,,,,,698.0593,699.1063,699.1063,699.7651,return,0.1557,,93.61979167,,,,,,FBP-OG-71.png,0.4,1.2,3,0.25,,,,,,,,,,,,,0,36,36,2,1,,,,,,,,,,,,,,,,,,,,,,,,,,,,
,,,,,SPR24_047,19,Female,2024-04-15_14h30.03.970,jersey_experiment_5_v0,2023.2.2,Win32,84.74576271,,,,,,,,,,,,,,,,699.7652,701.0591,701.0592,701.4475,return,0.1886,,91.14583333,,,,,,FBP-PT-19.png,0.4,1.2,58,0.5,,,,,,,,,,,,,0,37,37,57,1,,,,,,,,,,,,,,,,,,,,,,,,,,,,
,,,,,SPR24_047,19,Female,2024-04-15_14h30.03.970,jersey_experiment_5_v0,2023.2.2,Win32,84.74576271,,,,,,,,,,,,,,,,701.4478,702.7417,702.7418,703.7533,return,0.391,,91.27604167,,,,,,FBP-YG-19.png,0.45,1.2,30,0.5,,,,,,,,,,,,,0,38,38,29,1,,,,,,,,,,,,,,,,,,,,,,,,,,,,
,,,,,SPR24_047,19,Female,2024-04-15_14h30.03.970,jersey_experiment_5_v0,2023.2.2,Win32,84.74576271,,,,,,,,,,,,,,,,703.7536,705.0477,705.0477,706.4358,return,0.23,,99.34895833,,,,,,FBP-YG-18.png,0.4,1.2,23,0.5,,,,,,,,,,,,,0,39,39,22,1,,,,,,,,,,,,,,,,,,,,,,,,,,,,
,,,,,SPR24_047,19,Female,2024-04-15_14h30.03.970,jersey_experiment_5_v0,2023.2.2,Win32,84.74576271,,,,,,,,,,,,,,,,706.4362,707.7301,707.7301,708.471,return,0.3086,,97.39583333,,,,,,FBP-YG-18.png,0.45,1.2,25,0.5,,,,,,,,,,,,,0,40,40,24,1,,,,,,,,,,,,,,,,,,,,,,,,,,,,
,,,,,SPR24_047,19,Female,2024-04-15_14h30.03.970,jersey_experiment_5_v0,2023.2.2,Win32,84.74576271,,,,,,,,,,,,,,,,708.4713,709.5183,709.5183,710.6949,return,0.1797,,99.47916667,,,,,,FBP-RB-17.png,0.43,1.2,34,0.25,,,,,,,,,,,,,0,41,41,33,1,,,,,,,,,,,,,,,,,,,,,,,,,,,,
,,,,,SPR24_047,19,Female,2024-04-15_14h30.03.970,jersey_experiment_5_v0,2023.2.2,Win32,84.74576271,,,,,,,,,,,,,,,,710.695,711.9892,711.9892,712.8833,return,0.1922,,97.65625,,,,,,FBP-PT-18.png,0.45,1.2,55,0.5,,,,,,,,,,,,,0,42,42,54,1,,,,,,,,,,,,,,,,,,,,,,,,,,,,
,,,,,SPR24_047,19,Female,2024-04-15_14h30.03.970,jersey_experiment_5_v0,2023.2.2,Win32,84.74576271,,,,,,,,,,,,,,,,712.8836,714.1776,714.1776,715.3775,return,0.1705,,55.20833333,,,,,,FBP-PT-17.png,0.37,1.2,47,0.5,,,,,,,,,,,,,0,43,43,46,1,,,,,,,,,,,,,,,,,,,,,,,,,,,,
,,,,,SPR24_047,19,Female,2024-04-15_14h30.03.970,jersey_experiment_5_v0,2023.2.2,Win32,84.74576271,,,,,,,,,,,,,,,,715.3777,716.6717,716.6717,717.4013,return,0.2595,,62.5,,,,,,FBP-PT-17.png,0.4,1.2,48,0.5,,,,,,,,,,,,,0,44,44,47,1,,,,,,,,,,,,,,,,,,,,,,,,,,,,
,,,,,SPR24_047,19,Female,2024-04-15_14h30.03.970,jersey_experiment_5_v0,2023.2.2,Win32,84.74576271,,,,,,,,,,,,,,,,717.4014,718.448,718.448,719.9777,return,1.2473,,42.578125,,,,,,FBP-OG-81.png,0.35,1.2,6,0.25,,,,,,,,,,,,,0,45,45,5,1,,,,,,,,,,,,,,,,,,,,,,,,,,,,
,,,,,SPR24_047,19,Female,2024-04-15_14h30.03.970,jersey_experiment_5_v0,2023.2.2,Win32,84.74576271,,,,,,,,,,,,,,,,719.978,721.0247,721.0247,721.8482,return,0.1553,,59.24479167,,,,,,FBP-OG-81.png,0.43,1.2,9,0.25,,,,,,,,,,,,,0,46,46,8,1,,,,,,,,,,,,,,,,,,,,,,,,,,,,
,,,,,SPR24_047,19,Female,2024-04-15_14h30.03.970,jersey_experiment_5_v0,2023.2.2,Win32,84.74576271,,,,,,,,,,,,,,,,721.8486,722.8954,722.8955,723.6248,return,0.1892,,74.34895833,,,,,,FBP-RB-17.png,0.4,1.2,33,0.25,,,,,,,,,,,,,0,47,47,32,1,,,,,,,,,,,,,,,,,,,,,,,,,,,,
,,,,,SPR24_047,19,Female,2024-04-15_14h30.03.970,jersey_experiment_5_v0,2023.2.2,Win32,84.74576271,,,,,,,,,,,,,,,,723.625,724.9189,724.9189,725.6249,return,0.3537,,71.61458333,,,,,,FBP-YG-19.png,0.4,1.2,28,0.5,,,,,,,,,,,,,0,48,48,27,1,,,,,,,,,,,,,,,,,,,,,,,,,,,,
,,,,,SPR24_047,19,Female,2024-04-15_14h30.03.970,jersey_experiment_5_v0,2023.2.2,Win32,84.74576271,,,,,,,,,,,,,,,,725.6251,726.6719,726.6719,728.0838,return,0.2156,,94.79166667,,,,,,FBP-RB-18.png,0.45,1.2,40,0.25,,,,,,,,,,,,,0,49,49,39,1,,,,,,,,,,,,,,,,,,,,,,,,,,,,
,,,,,SPR24_047,19,Female,2024-04-15_14h30.03.970,jersey_experiment_5_v0,2023.2.2,Win32,84.74576271,,,,,,,,,,,,,,,,728.0841,729.3779,729.3779,730.2131,return,0.3107,,93.09895833,,,,,,FBP-PT-18.png,0.43,1.2,54,0.5,,,,,,,,,,,,,0,50,50,53,1,,,,,,,,,,,,,,,,,,,,,,,,,,,,
,,,,,SPR24_047,19,Female,2024-04-15_14h30.03.970,jersey_experiment_5_v0,2023.2.2,Win32,84.74576271,,,,,,,,,,,,,,,,730.2133,731.2603,731.2604,732.2604,return,0.1703,,97.91666667,,,,,,FBP-OG-91.png,0.4,1.2,13,0.25,,,,,,,,,,,,,0,51,51,12,1,,,,,,,,,,,,,,,,,,,,,,,,,,,,
,,,,,SPR24_047,19,Female,2024-04-15_14h30.03.970,jersey_experiment_5_v0,2023.2.2,Win32,84.74576271,,,,,,,,,,,,,,,,732.2607,733.3075,733.3076,734.4487,return,0.1502,,58.85416667,,,,,,FBP-OG-91.png,0.37,1.2,12,0.25,,,,,,,,,,,,,0,52,52,11,1,,,,,,,,,,,,,,,,,,,,,,,,,,,,
,,,,,SPR24_047,19,Female,2024-04-15_14h30.03.970,jersey_experiment_5_v0,2023.2.2,Win32,84.74576271,,,,,,,,,,,,,,,,734.4489,735.7428,735.7429,736.3429,return,0.2736,,60.02604167,,,,,,FBP-YG-17.png,0.35,1.2,16,0.5,,,,,,,,,,,,,0,53,53,15,1,,,,,,,,,,,,,,,,,,,,,,,,,,,,
,,,,,SPR24_047,19,Female,2024-04-15_14h30.03.970,jersey_experiment_5_v0,2023.2.2,Win32,84.74576271,,,,,,,,,,,,,,,,736.3431,737.3901,737.3902,738.343,return,0.2123,,56.11979167,,,,,,FBP-RB-19.png,0.37,1.2,42,0.25,,,,,,,,,,,,,0,54,54,41,1,,,,,,,,,,,,,,,,,,,,,,,,,,,,
,,,,,SPR24_047,19,Female,2024-04-15_14h30.03.970,jersey_experiment_5_v0,2023.2.2,Win32,84.74576271,,,,,,,,,,,,,,,,738.3432,739.3901,739.3901,739.9901,return,0.3773,,57.29166667,,,,,,FBP-RB-18.png,0.35,1.2,36,0.25,,,,,,,,,,,,,0,55,55,35,1,,,,,,,,,,,,,,,,,,,,,,,,,,,,
,,,,,SPR24_047,19,Female,2024-04-15_14h30.03.970,jersey_experiment_5_v0,2023.2.2,Win32,84.74576271,,,,,,,,,,,,,,,,739.9903,741.2843,741.2844,742.2136,return,0.2017,,51.69270833,,,,,,FBP-YG-19.png,0.37,1.2,27,0.5,,,,,,,,,,,,,0,56,56,26,1,,,,,,,,,,,,,,,,,,,,,,,,,,,,
,,,,,SPR24_047,19,Female,2024-04-15_14h30.03.970,jersey_experiment_5_v0,2023.2.2,Win32,84.74576271,,,,,,,,,,,,,,,,742.214,743.261,743.2611,744.5785,return,0.2875,,53.90625,,,,,,FBP-OG-91.png,0.35,1.2,11,0.25,,,,,,,,,,,,,0,57,57,10,1,,,,,,,,,,,,,,,,,,,,,,,,,,,,
,,,,,SPR24_047,19,Female,2024-04-15_14h30.03.970,jersey_experiment_5_v0,2023.2.2,Win32,84.74576271,,,,,,,,,,,,,,,,744.5787,745.6256,745.6256,746.8491,return,0.0413,,98.17708333,,,,,,FBP-OG-91.png,0.43,1.2,14,0.25,,,,,,,,,,,,,0,58,58,13,1,,,,,,,,,,,,,,,,,,,,,,,,,,,,
,,,,,SPR24_047,19,Female,2024-04-15_14h30.03.970,jersey_experiment_5_v0,2023.2.2,Win32,84.74576271,,,,,,,,,,,,,,,,746.8493,748.1432,748.1432,748.9667,return,0.0971,,76.5625,,,,,,FBP-PT-19.png,0.35,1.2,56,0.5,,,,,,,,,,,,,0,59,59,55,1,,,,,,,,,,,,,,,,,,,,,,,,,,,,
,,,,,SPR24_047,19,Female,2024-04-15_14h30.03.970,jersey_experiment_5_v0,2023.2.2,Win32,84.74576271,,,,,,,,,,,,,,,,748.9683,750.0141,750.0141,751.2375,return,0.0252,,99.73958333,,,,,,FBP-RB-91.png,0.45,1.2,45,0.25,,,,,,,,,,,,,,,,,,0,0,0,44,1,,,,,,,,,,,,,,,,,,,,,,,
,,,,,SPR24_047,19,Female,2024-04-15_14h30.03.970,jersey_experiment_5_v0,2023.2.2,Win32,84.74576271,,,,,,,,,,,,,,,,751.2379,752.5319,752.5319,753.1318,return,0.2121,,88.28125,,,,,,FBP-PT-71.png,0.35,1.2,46,0.5,,,,,,,,,,,,,,,,,,0,1,1,45,1,,,,,,,,,,,,,,,,,,,,,,,
,,,,,SPR24_047,19,Female,2024-04-15_14h30.03.970,jersey_experiment_5_v0,2023.2.2,Win32,84.74576271,,,,,,,,,,,,,,,,753.132,754.1788,754.1788,755.4025,return,0.1645,,96.35416667,,,,,,FBP-RB-71.png,0.43,1.2,34,0.25,,,,,,,,,,,,,,,,,,0,2,2,33,1,,,,,,,,,,,,,,,,,,,,,,,
,,,,,SPR24_047,19,Female,2024-04-15_14h30.03.970,jersey_experiment_5_v0,2023.2.2,Win32,84.74576271,,,,,,,,,,,,,,,,755.4027,756.6966,756.6967,757.673,return,0.2124,,96.22395833,,,,,,FBP-PT-71.png,0.43,1.2,49,0.5,,,,,,,,,,,,,,,,,,0,3,3,48,1,,,,,,,,,,,,,,,,,,,,,,,
,,,,,SPR24_047,19,Female,2024-04-15_14h30.03.970,jersey_experiment_5_v0,2023.2.2,Win32,84.74576271,,,,,,,,,,,,,,,,757.6732,758.9671,758.9671,760.332,return,0.1504,,57.55208333,,,,,,FBP-YG-91.png,0.37,1.2,27,0.5,,,,,,,,,,,,,,,,,,0,4,4,26,1,,,,,,,,,,,,,,,,,,,,,,,
,,,,,SPR24_047,19,Female,2024-04-15_14h30.03.970,jersey_experiment_5_v0,2023.2.2,Win32,84.74576271,,,,,,,,,,,,,,,,760.3322,761.626,761.626,762.1554,return,0.2819,,58.203125,,,,,,FBP-YG-71.png,0.35,1.2,16,0.5,,,,,,,,,,,,,,,,,,0,5,5,15,1,,,,,,,,,,,,,,,,,,,,,,,
,,,,,SPR24_047,19,Female,2024-04-15_14h30.03.970,jersey_experiment_5_v0,2023.2.2,Win32,84.74576271,,,,,,,,,,,,,,,,762.1556,763.2026,763.2026,763.8143,return,0.2241,,58.203125,,,,,,FBP-RB-91.png,0.35,1.2,41,0.25,,,,,,,,,,,,,,,,,,0,6,6,40,1,,,,,,,,,,,,,,,,,,,,,,,
,,,,,SPR24_047,19,Female,2024-04-15_14h30.03.970,jersey_experiment_5_v0,2023.2.2,Win32,84.74576271,,,,,,,,,,,,,,,,763.8145,765.1085,765.1086,766.2146,return,0.2484,,72.52604167,,,,,,FBP-YG-71.png,0.4,1.2,18,0.5,,,,,,,,,,,,,,,,,,0,7,7,17,1,,,,,,,,,,,,,,,,,,,,,,,
,,,,,SPR24_047,19,Female,2024-04-15_14h30.03.970,jersey_experiment_5_v0,2023.2.2,Win32,84.74576271,,,,,,,,,,,,,,,,766.2148,767.2617,767.2617,769.0735,return,0.1706,,98.4375,,,,,,FBP-RB-71.png,0.45,1.2,35,0.25,,,,,,,,,,,,,,,,,,0,8,8,34,1,,,,,,,,,,,,,,,,,,,,,,,
,,,,,SPR24_047,19,Female,2024-04-15_14h30.03.970,jersey_experiment_5_v0,2023.2.2,Win32,84.74576271,,,,,,,,,,,,,,,,769.0737,770.3675,770.3676,770.6618,return,0.2015,,98.17708333,,,,,,FBP-YG-71.png,0.37,1.2,17,0.5,,,,,,,,,,,,,,,,,,0,9,9,16,1,,,,,,,,,,,,,,,,,,,,,,,
,,,,,SPR24_047,19,Female,2024-04-15_14h30.03.970,jersey_experiment_5_v0,2023.2.2,Win32,84.74576271,,,,,,,,,,,,,,,,770.662,771.7088,771.7089,772.3207,return,0.2185,,98.17708333,,,,,,FBP-RB-71.png,0.4,1.2,33,0.25,,,,,,,,,,,,,,,,,,0,10,10,32,1,,,,,,,,,,,,,,,,,,,,,,,
,,,,,SPR24_047,19,Female,2024-04-15_14h30.03.970,jersey_experiment_5_v0,2023.2.2,Win32,84.74576271,,,,,,,,,,,,,,,,772.3209,773.3676,773.3677,773.9913,return,0.25,,98.17708333,,,,,,FBP-RB-91.png,0.43,1.2,44,0.25,,,,,,,,,,,,,,,,,,0,11,11,43,1,,,,,,,,,,,,,,,,,,,,,,,
,,,,,SPR24_047,19,Female,2024-04-15_14h30.03.970,jersey_experiment_5_v0,2023.2.2,Win32,84.74576271,,,,,,,,,,,,,,,,773.9915,775.2855,775.2856,775.6382,return,0.2504,,98.17708333,,,,,,FBP-PT-91.png,0.43,1.2,59,0.5,,,,,,,,,,,,,,,,,,0,12,12,58,1,,,,,,,,,,,,,,,,,,,,,,,
,,,,,SPR24_047,19,Female,2024-04-15_14h30.03.970,jersey_experiment_5_v0,2023.2.2,Win32,84.74576271,,,,,,,,,,,,,,,,775.6385,776.9325,776.9326,777.5561,return,0.297,,98.69791667,,,,,,FBP-PT-81.png,0.43,1.2,54,0.5,,,,,,,,,,,,,,,,,,0,13,13,53,1,,,,,,,,,,,,,,,,,,,,,,,
,,,,,SPR24_047,19,Female,2024-04-15_14h30.03.970,jersey_experiment_5_v0,2023.2.2,Win32,84.74576271,,,,,,,,,,,,,,,,777.5563,778.6032,778.6033,779.2857,return,0.2751,,98.69791667,,,,,,FBP-OG-18.png,0.37,1.2,7,0.25,,,,,,,,,,,,,,,,,,0,14,14,6,1,,,,,,,,,,,,,,,,,,,,,,,
,,,,,SPR24_047,19,Female,2024-04-15_14h30.03.970,jersey_experiment_5_v0,2023.2.2,Win32,84.74576271,,,,,,,,,,,,,,,,779.286,780.3328,780.3328,781.2386,return,0.4624,,98.69791667,,,,,,FBP-OG-19.png,0.37,1.2,12,0.25,,,,,,,,,,,,,,,,,,0,15,15,11,1,,,,,,,,,,,,,,,,,,,,,,,
,,,,,SPR24_047,19,Female,2024-04-15_14h30.03.970,jersey_experiment_5_v0,2023.2.2,Win32,84.74576271,,,,,,,,,,,,,,,,781.2388,782.5328,782.5329,782.9327,return,0.2055,,98.69791667,,,,,,FBP-YG-81.png,0.45,1.2,25,0.5,,,,,,,,,,,,,,,,,,0,16,16,24,1,,,,,,,,,,,,,,,,,,,,,,,
,,,,,SPR24_047,19,Female,2024-04-15_14h30.03.970,jersey_experiment_5_v0,2023.2.2,Win32,84.74576271,,,,,,,,,,,,,,,,782.933,784.2269,784.2269,785.4621,return,0.2255,,98.69791667,,,,,,FBP-PT-71.png,0.4,1.2,48,0.5,,,,,,,,,,,,,,,,,,0,17,17,47,1,,,,,,,,,,,,,,,,,,,,,,,
,,,,,SPR24_047,19,Female,2024-04-15_14h30.03.970,jersey_experiment_5_v0,2023.2.2,Win32,84.74576271,,,,,,,,,,,,,,,,785.4623,786.7564,786.7564,787.2859,return,0.2275,,98.69791667,,,,,,FBP-PT-91.png,0.45,1.2,60,0.5,,,,,,,,,,,,,,,,,,0,18,18,59,1,,,,,,,,,,,,,,,,,,,,,,,
,,,,,SPR24_047,19,Female,2024-04-15_14h30.03.970,jersey_experiment_5_v0,2023.2.2,Win32,84.74576271,,,,,,,,,,,,,,,,787.286,788.3328,788.3329,789.4509,return,0.2969,,98.69791667,,,,,,FBP-OG-18.png,0.4,1.2,8,0.25,,,,,,,,,,,,,,,,,,0,19,19,7,1,,,,,,,,,,,,,,,,,,,,,,,
,,,,,SPR24_047,19,Female,2024-04-15_14h30.03.970,jersey_experiment_5_v0,2023.2.2,Win32,84.74576271,,,,,,,,,,,,,,,,789.451,790.7449,790.745,792.4508,return,0.4644,,76.5625,,,,,,FBP-PT-81.png,0.45,1.2,55,0.5,,,,,,,,,,,,,,,,,,0,20,20,54,1,,,,,,,,,,,,,,,,,,,,,,,
,,,,,SPR24_047,19,Female,2024-04-15_14h30.03.970,jersey_experiment_5_v0,2023.2.2,Win32,84.74576271,,,,,,,,,,,,,,,,792.4512,793.4978,793.4979,794.498,return,0.1832,,89.71354167,,,,,,FBP-OG-17.png,0.43,1.2,4,0.25,,,,,,,,,,,,,,,,,,0,21,21,3,1,,,,,,,,,,,,,,,,,,,,,,,
,,,,,SPR24_047,19,Female,2024-04-15_14h30.03.970,jersey_experiment_5_v0,2023.2.2,Win32,84.74576271,,,,,,,,,,,,,,,,794.4983,795.7919,795.7921,796.8392,return,0.2498,,90.88541667,,,,,,FBP-YG-81.png,0.43,1.2,24,0.5,,,,,,,,,,,,,,,,,,0,22,22,23,1,,,,,,,,,,,,,,,,,,,,,,,
,,,,,SPR24_047,19,Female,2024-04-15_14h30.03.970,jersey_experiment_5_v0,2023.2.2,Win32,84.74576271,,,,,,,,,,,,,,,,796.8394,797.8862,797.8863,799.8511,return,0.1796,,46.09375,,,,,,FBP-OG-17.png,0.35,1.2,1,0.25,,,,,,,,,,,,,,,,,,0,23,23,0,1,,,,,,,,,,,,,,,,,,,,,,,
,,,,,SPR24_047,19,Female,2024-04-15_14h30.03.970,jersey_experiment_5_v0,2023.2.2,Win32,84.74576271,,,,,,,,,,,,,,,,799.8514,800.8982,800.8982,802.6631,return,0.1912,,99.47916667,,,,,,FBP-OG-18.png,0.45,1.2,10,0.25,,,,,,,,,,,,,,,,,,0,24,24,9,1,,,,,,,,,,,,,,,,,,,,,,,
,,,,,SPR24_047,19,Female,2024-04-15_14h30.03.970,jersey_experiment_5_v0,2023.2.2,Win32,84.74576271,,,,,,,,,,,,,,,,802.6634,803.71,803.71,804.3219,return,0.1467,,97.39583333,,,,,,FBP-OG-17.png,0.4,1.2,3,0.25,,,,,,,,,,,,,,,,,,0,25,25,2,1,,,,,,,,,,,,,,,,,,,,,,,
,,,,,SPR24_047,19,Female,2024-04-15_14h30.03.970,jersey_experiment_5_v0,2023.2.2,Win32,84.74576271,,,,,,,,,,,,,,,,804.3221,805.616,805.616,806.5807,return,0.3464,,96.61458333,,,,,,FBP-YG-81.png,0.4,1.2,23,0.5,,,,,,,,,,,,,,,,,,0,26,26,22,1,,,,,,,,,,,,,,,,,,,,,,,
,,,,,SPR24_047,19,Female,2024-04-15_14h30.03.970,jersey_experiment_5_v0,2023.2.2,Win32,84.74576271,,,,,,,,,,,,,,,,806.5808,807.6277,807.6277,808.322,return,0.2175,,96.61458333,,,,,,FBP-RB-71.png,0.37,1.2,32,0.25,,,,,,,,,,,,,,,,,,0,27,27,31,1,,,,,,,,,,,,,,,,,,,,,,,
,,,,,SPR24_047,19,Female,2024-04-15_14h30.03.970,jersey_experiment_5_v0,2023.2.2,Win32,84.74576271,,,,,,,,,,,,,,,,808.3222,809.3691,809.3692,810.0985,return,0.2428,,75.26041667,,,,,,FBP-OG-18.png,0.43,1.2,9,0.25,,,,,,,,,,,,,,,,,,0,28,28,8,1,,,,,,,,,,,,,,,,,,,,,,,
,,,,,SPR24_047,19,Female,2024-04-15_14h30.03.970,jersey_experiment_5_v0,2023.2.2,Win32,84.74576271,,,,,,,,,,,,,,,,810.0988,811.1457,811.1457,812.369,return,0.1853,,99.21875,,,,,,FBP-RB-81.png,0.45,1.2,40,0.25,,,,,,,,,,,,,,,,,,0,29,29,39,1,,,,,,,,,,,,,,,,,,,,,,,
,,,,,SPR24_047,19,Female,2024-04-15_14h30.03.970,jersey_experiment_5_v0,2023.2.2,Win32,84.74576271,,,,,,,,,,,,,,,,812.3692,813.6634,813.6634,814.3691,return,0.1946,,97.91666667,,,,,,FBP-YG-91.png,0.43,1.2,29,0.5,,,,,,,,,,,,,,,,,,0,30,30,28,1,,,,,,,,,,,,,,,,,,,,,,,
,,,,,SPR24_047,19,Female,2024-04-15_14h30.03.970,jersey_experiment_5_v0,2023.2.2,Win32,84.74576271,,,,,,,,,,,,,,,,814.3694,815.4162,815.4162,815.9928,return,0.2121,,97.78645833,,,,,,FBP-RB-91.png,0.4,1.2,43,0.25,,,,,,,,,,,,,,,,,,0,31,31,42,1,,,,,,,,,,,,,,,,,,,,,,,
,,,,,SPR24_047,19,Female,2024-04-15_14h30.03.970,jersey_experiment_5_v0,2023.2.2,Win32,84.74576271,,,,,,,,,,,,,,,,815.993,817.287,817.287,818.1457,return,0.3479,,97.78645833,,,,,,FBP-YG-71.png,0.45,1.2,20,0.5,,,,,,,,,,,,,,,,,,0,32,32,19,1,,,,,,,,,,,,,,,,,,,,,,,
,,,,,SPR24_047,19,Female,2024-04-15_14h30.03.970,jersey_experiment_5_v0,2023.2.2,Win32,84.74576271,,,,,,,,,,,,,,,,818.1459,819.1929,819.193,819.8518,return,0.1884,,97.265625,,,,,,FBP-RB-81.png,0.43,1.2,39,0.25,,,,,,,,,,,,,,,,,,0,33,33,38,1,,,,,,,,,,,,,,,,,,,,,,,
,,,,,SPR24_047,19,Female,2024-04-15_14h30.03.970,jersey_experiment_5_v0,2023.2.2,Win32,84.74576271,,,,,,,,,,,,,,,,819.852,821.1459,821.146,822.5224,return,0.1651,,51.171875,,,,,,FBP-YG-81.png,0.35,1.2,21,0.5,,,,,,,,,,,,,,,,,,0,34,34,20,1,,,,,,,,,,,,,,,,,,,,,,,
,,,,,SPR24_047,19,Female,2024-04-15_14h30.03.970,jersey_experiment_5_v0,2023.2.2,Win32,84.74576271,,,,,,,,,,,,,,,,822.5226,823.8166,823.8166,824.6285,return,0.1206,,50.65104167,,,,,,FBP-YG-91.png,0.35,1.2,26,0.5,,,,,,,,,,,,,,,,,,0,35,35,25,1,,,,,,,,,,,,,,,,,,,,,,,
,,,,,SPR24_047,19,Female,2024-04-15_14h30.03.970,jersey_experiment_5_v0,2023.2.2,Win32,84.74576271,,,,,,,,,,,,,,,,824.6286,825.9226,825.9226,827.064,return,0.2373,,76.43229167,,,,,,FBP-PT-81.png,0.4,1.2,53,0.5,,,,,,,,,,,,,,,,,,0,36,36,52,1,,,,,,,,,,,,,,,,,,,,,,,
,,,,,SPR24_047,19,Female,2024-04-15_14h30.03.970,jersey_experiment_5_v0,2023.2.2,Win32,84.74576271,,,,,,,,,,,,,,,,827.0641,828.358,828.358,830.2757,return,0.1927,,47.52604167,,,,,,FBP-PT-91.png,0.37,1.2,57,0.5,,,,,,,,,,,,,,,,,,0,37,37,56,1,,,,,,,,,,,,,,,,,,,,,,,
,,,,,SPR24_047,19,Female,2024-04-15_14h30.03.970,jersey_experiment_5_v0,2023.2.2,Win32,84.74576271,,,,,,,,,,,,,,,,830.276,831.3228,831.3228,833.0995,return,0.1648,,99.73958333,,,,,,FBP-OG-19.png,0.45,1.2,15,0.25,,,,,,,,,,,,,,,,,,0,38,38,14,1,,,,,,,,,,,,,,,,,,,,,,,
,,,,,SPR24_047,19,Female,2024-04-15_14h30.03.970,jersey_experiment_5_v0,2023.2.2,Win32,84.74576271,,,,,,,,,,,,,,,,833.0997,834.3935,834.3936,835.3465,return,0.1957,,81.90104167,,,,,,FBP-YG-91.png,0.4,1.2,28,0.5,,,,,,,,,,,,,,,,,,0,39,39,27,1,,,,,,,,,,,,,,,,,,,,,,,
,,,,,SPR24_047,19,Female,2024-04-15_14h30.03.970,jersey_experiment_5_v0,2023.2.2,Win32,84.74576271,,,,,,,,,,,,,,,,835.3467,836.6406,836.6406,837.2877,return,0.2026,,84.50520833,,,,,,FBP-PT-71.png,0.37,1.2,47,0.5,,,,,,,,,,,,,,,,,,0,40,40,46,1,,,,,,,,,,,,,,,,,,,,,,,
,,,,,SPR24_047,19,Female,2024-04-15_14h30.03.970,jersey_experiment_5_v0,2023.2.2,Win32,84.74576271,,,,,,,,,,,,,,,,837.2879,838.5821,838.5822,839.323,return,0.2824,,80.33854167,,,,,,FBP-PT-91.png,0.4,1.2,58,0.5,,,,,,,,,,,,,,,,,,0,41,41,57,1,,,,,,,,,,,,,,,,,,,,,,,
,,,,,SPR24_047,19,Female,2024-04-15_14h30.03.970,jersey_experiment_5_v0,2023.2.2,Win32,84.74576271,,,,,,,,,,,,,,,,839.3232,840.3702,840.3702,841.029,return,0.2377,,79.81770833,,,,,,FBP-OG-17.png,0.37,1.2,2,0.25,,,,,,,,,,,,,,,,,,0,42,42,1,1,,,,,,,,,,,,,,,,,,,,,,,
,,,,,SPR24_047,19,Female,2024-04-15_14h30.03.970,jersey_experiment_5_v0,2023.2.2,Win32,84.74576271,,,,,,,,,,,,,,,,841.0292,842.0762,842.0762,842.3584,return,0.1068,,79.6875,,,,,,FBP-OG-18.png,0.35,1.2,6,0.25,,,,,,,,,,,,,,,,,,0,43,43,5,1,,,,,,,,,,,,,,,,,,,,,,,
,,,,,SPR24_047,19,Female,2024-04-15_14h30.03.970,jersey_experiment_5_v0,2023.2.2,Win32,84.74576271,,,,,,,,,,,,,,,,842.3586,843.4055,843.4055,845.1115,return,1.5319,,97.13541667,,,,,,FBP-OG-19.png,0.43,1.2,14,0.25,,,,,,,,,,,,,,,,,,0,44,44,13,1,,,,,,,,,,,,,,,,,,,,,,,
,,,,,SPR24_047,19,Female,2024-04-15_14h30.03.970,jersey_experiment_5_v0,2023.2.2,Win32,84.74576271,,,,,,,,,,,,,,,,845.1118,846.1587,846.1588,847.2527,return,0.1556,,67.05729167,,,,,,FBP-OG-19.png,0.35,1.2,11,0.25,,,,,,,,,,,,,,,,,,0,45,45,10,1,,,,,,,,,,,,,,,,,,,,,,,
,,,,,SPR24_047,19,Female,2024-04-15_14h30.03.970,jersey_experiment_5_v0,2023.2.2,Win32,84.74576271,,,,,,,,,,,,,,,,847.2529,848.547,848.547,849.7234,return,0.4341,,97.265625,,,,,,FBP-PT-71.png,0.45,1.2,50,0.5,,,,,,,,,,,,,,,,,,0,46,46,49,1,,,,,,,,,,,,,,,,,,,,,,,
,,,,,SPR24_047,19,Female,2024-04-15_14h30.03.970,jersey_experiment_5_v0,2023.2.2,Win32,84.74576271,,,,,,,,,,,,,,,,849.7236,850.7707,850.7707,851.7355,return,0.0475,,93.61979167,,,,,,FBP-OG-19.png,0.4,1.2,13,0.25,,,,,,,,,,,,,,,,,,0,47,47,12,1,,,,,,,,,,,,,,,,,,,,,,,
,,,,,SPR24_047,19,Female,2024-04-15_14h30.03.970,jersey_experiment_5_v0,2023.2.2,Win32,84.74576271,,,,,,,,,,,,,,,,851.7357,853.0295,853.0295,855.1474,return,1.0836,,55.33854167,,,,,,FBP-PT-81.png,0.35,1.2,51,0.5,,,,,,,,,,,,,,,,,,0,48,48,50,1,,,,,,,,,,,,,,,,,,,,,,,
,,,,,SPR24_047,19,Female,2024-04-15_14h30.03.970,jersey_experiment_5_v0,2023.2.2,Win32,84.74576271,,,,,,,,,,,,,,,,855.1477,856.4413,856.4414,861.7829,return,1.1772,,54.03645833,,,,,,FBP-PT-81.png,0.37,1.2,52,0.5,,,,,,,,,,,,,,,,,,0,49,49,51,1,,,,,,,,,,,,,,,,,,,,,,,
,,,,,SPR24_047,19,Female,2024-04-15_14h30.03.970,jersey_experiment_5_v0,2023.2.2,Win32,84.74576271,,,,,,,,,,,,,,,,861.7831,862.8298,862.8298,865.6064,return,0.9307,,56.640625,,,,,,FBP-RB-81.png,0.35,1.2,36,0.25,,,,,,,,,,,,,,,,,,0,50,50,35,1,,,,,,,,,,,,,,,,,,,,,,,
,,,,,SPR24_047,19,Female,2024-04-15_14h30.03.970,jersey_experiment_5_v0,2023.2.2,Win32,84.74576271,,,,,,,,,,,,,,,,865.6066,866.6535,866.6535,869.5124,return,0.8111,,93.61979167,,,,,,FBP-OG-17.png,0.45,1.2,5,0.25,,,,,,,,,,,,,,,,,,0,51,51,4,1,,,,,,,,,,,,,,,,,,,,,,,
,,,,,SPR24_047,19,Female,2024-04-15_14h30.03.970,jersey_experiment_5_v0,2023.2.2,Win32,84.74576271,,,,,,,,,,,,,,,,869.5126,870.8065,870.8067,871.9595,return,0.106,,95.3125,,,,,,FBP-YG-91.png,0.45,1.2,30,0.5,,,,,,,,,,,,,,,,,,0,52,52,29,1,,,,,,,,,,,,,,,,,,,,,,,
,,,,,SPR24_047,19,Female,2024-04-15_14h30.03.970,jersey_experiment_5_v0,2023.2.2,Win32,84.74576271,,,,,,,,,,,,,,,,871.9598,873.0067,873.0067,873.4772,return,0.1437,,96.484375,,,,,,FBP-RB-91.png,0.37,1.2,42,0.25,,,,,,,,,,,,,,,,,,0,53,53,41,1,,,,,,,,,,,,,,,,,,,,,,,
,,,,,SPR24_047,19,Female,2024-04-15_14h30.03.970,jersey_experiment_5_v0,2023.2.2,Win32,84.74576271,,,,,,,,,,,,,,,,873.4774,874.5243,874.5243,874.9362,return,0.1792,,96.484375,,,,,,FBP-RB-81.png,0.37,1.2,37,0.25,,,,,,,,,,,,,,,,,,0,54,54,36,1,,,,,,,,,,,,,,,,,,,,,,,
,,,,,SPR24_047,19,Female,2024-04-15_14h30.03.970,jersey_experiment_5_v0,2023.2.2,Win32,84.74576271,,,,,,,,,,,,,,,,874.9363,876.2304,876.2304,876.995,return,0.1954,,96.484375,,,,,,FBP-YG-71.png,0.43,1.2,19,0.5,,,,,,,,,,,,,,,,,,0,55,55,18,1,,,,,,,,,,,,,,,,,,,,,,,
,,,,,SPR24_047,19,Female,2024-04-15_14h30.03.970,jersey_experiment_5_v0,2023.2.2,Win32,84.74576271,,,,,,,,,,,,,,,,876.9952,878.2893,878.2893,879.5246,return,0.0969,,45.44270833,,,,,,FBP-PT-91.png,0.35,1.2,56,0.5,,,,,,,,,,,,,,,,,,0,56,56,55,1,,,,,,,,,,,,,,,,,,,,,,,
,,,,,SPR24_047,19,Female,2024-04-15_14h30.03.970,jersey_experiment_5_v0,2023.2.2,Win32,84.74576271,,,,,,,,,,,,,,,,879.5248,880.8188,880.8188,881.4657,return,0.1884,,49.34895833,,,,,,FBP-YG-81.png,0.37,1.2,22,0.5,,,,,,,,,,,,,,,,,,0,57,57,21,1,,,,,,,,,,,,,,,,,,,,,,,
,,,,,SPR24_047,19,Female,2024-04-15_14h30.03.970,jersey_experiment_5_v0,2023.2.2,Win32,84.74576271,,,,,,,,,,,,,,,,881.466,882.5128,882.5128,883.1718,return,0.3334,,49.34895833,,,,,,FBP-RB-71.png,0.35,1.2,31,0.25,,,,,,,,,,,,,,,,,,0,58,58,30,1,,,,,,,,,,,,,,,,,,,,,,,
,,,,,SPR24_047,19,Female,2024-04-15_14h30.03.970,jersey_experiment_5_v0,2023.2.2,Win32,84.74576271,,,,,,,,,,,,,,,,883.1721,884.2189,884.2189,885.4659,return,0.8707,,49.34895833,,,,,,FBP-RB-81.png,0.4,1.2,38,0.25,,,,,,,,,,,,,,,,,,0,59,59,37,1,,,,,,,,,,,,,,,,,,,,,,,
,,,,,SPR24_047,19,Female,2024-04-15_14h30.03.970,jersey_experiment_5_v0,2023.2.2,Win32,84.74576271,,,,,,,,,,,,,,,,,,,,,,,,,,,,,,,,,,,,,,,,,,,,,,,,,,,,,,,,885.4661,887.2191,return,1.7454,,,,,,,,,,,,,,,,,,,
,,,,,SPR24_047,19,Female,2024-04-15_14h30.03.970,jersey_experiment_5_v0,2023.2.2,Win32,84.74576271,,,,,,,,,,,,,,,,,,,,,,,,,,,,,,,,,,,,,,,,,,,,,,,,,,,,,,,,,,,,,887.2192,894.1372,1,2.934,return,3.9668,,,,,,,,,,,,
,,,,,SPR24_047,19,Female,2024-04-15_14h30.03.970,jersey_experiment_5_v0,2023.2.2,Win32,84.74576271,,,,,,,,,,,,,,,,,,,,,,,,,,,,,,,,,,,,,,,,,,,,,,,,,,,,,,,,,,,,,,,,,,,,894.1413,978.4861,the skin tone of the football players varied between images. there were a lot of husky football player images displayed in a row towards the end with one slim one mixed in occasionally. ,right,77.8453,,,,,,
,,,,,SPR24_047,19,Female,2024-04-15_14h30.03.970,jersey_experiment_5_v0,2023.2.2,Win32,84.74576271,,,,,,,,,,,,,,,,,,,,,,,,,,,,,,,,,,,,,,,,,,,,,,,,,,,,,,,,,,,,,,,,,,,,,,,,,,978.4862,985.6818,return,7.1902,