requirements.started,requirements.stopped,key_resp_3.keys,key_resp_3.rt,key_resp_3.duration,Subject ID,Age,Gender,date,expName,psychopyVersion,OS,frameRate,instructions1.started,instructions1.stopped,key_resp.keys,key_resp.rt,key_resp.duration,example.started,example.stopped,enter_2.keys,enter_2.rt,enter_2.duration,instructions2.started,instructions2.stopped,enter_3.keys,enter_3.rt,enter_3.duration,image.started,image.stopped,slider_2.started,slider_2.stopped,next.keys,next.rt,next.duration,slider.response,trial_block_1.thisRepN,trial_block_1.thisTrialN,trial_block_1.thisN,trial_block_1.thisIndex,trial_block_1.ran,Path,Width,Height,Index,Duration,trial_block_2.thisRepN,trial_block_2.thisTrialN,trial_block_2.thisN,trial_block_2.thisIndex,trial_block_2.ran,rest_break.started,rest_break.stopped,end_break.started,end_break.stopped,key_resp_5.keys,key_resp_5.rt,key_resp_5.duration,trial_block_3.thisRepN,trial_block_3.thisTrialN,trial_block_3.thisN,trial_block_3.thisIndex,trial_block_3.ran,trial_block_4.thisRepN,trial_block_4.thisTrialN,trial_block_4.thisN,trial_block_4.thisIndex,trial_block_4.ran,questions_intro.started,questions_intro.stopped,enter_12.keys,enter_12.rt,enter_12.duration,question2.started,question2.stopped,question_doingbest.response,question_doingbest.rt,enter_15.keys,enter_15.rt,enter_15.duration,pattern.started,pattern.stopped,pattern_2.text,enter_17.keys,enter_17.rt,enter_17.duration,thankyou.started,thankyou.stopped,enter_14.keys,enter_14.rt,enter_14.duration
0.0001,7.7186,return,7.7128,,SPR24_079,19,female,2024-04-23_12h29.08.403,jersey_experiment_5_v0,2023.2.2,Win32,84.74576271,,,,,,,,,,,,,,,,,,,,,,,,,,,,,,,,,,,,,,,,,,,,,,,,,,,,,,,,,,,,,,,,,,,,,,,,,,,,,,
,,,,,SPR24_079,19,female,2024-04-23_12h29.08.403,jersey_experiment_5_v0,2023.2.2,Win32,84.74576271,7.7188,13.9707,return,6.2359,,,,,,,,,,,,,,,,,,,,,,,,,,,,,,,,,,,,,,,,,,,,,,,,,,,,,,,,,,,,,,,,,,,,,,,,,,
,,,,,SPR24_079,19,female,2024-04-23_12h29.08.403,jersey_experiment_5_v0,2023.2.2,Win32,84.74576271,,,,,,13.9708,17.9073,return,3.9066,,,,,,,,,,,,,,,,,,,,,,,,,,,,,,,,,,,,,,,,,,,,,,,,,,,,,,,,,,,,,,,,,,,,,
,,,,,SPR24_079,19,female,2024-04-23_12h29.08.403,jersey_experiment_5_v0,2023.2.2,Win32,84.74576271,,,,,,,,,,,17.9074,40.2966,return,22.3759,,,,,,,,,,,,,,,,,,,,,,,,,,,,,,,,,,,,,,,,,,,,,,,,,,,,,,,,,,,,,,,,
,,,,,SPR24_079,19,female,2024-04-23_12h29.08.403,jersey_experiment_5_v0,2023.2.2,Win32,84.74576271,,,,,,,,,,,,,,,,40.2996,41.602,41.6021,45.2492,return,1.9032,,49.34895833,0,0,0,2,1,FBP-OG-71.png,0.4,1.2,3,0.5,,,,,,,,,,,,,,,,,,,,,,,,,,,,,,,,,,,,,,,,,,,,,
,,,,,SPR24_079,19,female,2024-04-23_12h29.08.403,jersey_experiment_5_v0,2023.2.2,Win32,84.74576271,,,,,,,,,,,,,,,,45.2494,46.5433,46.5433,48.3081,return,0.2769,,74.86979167,0,1,1,37,1,FBP-RB-18.png,0.4,1.2,38,0.5,,,,,,,,,,,,,,,,,,,,,,,,,,,,,,,,,,,,,,,,,,,,,
,,,,,SPR24_079,19,female,2024-04-23_12h29.08.403,jersey_experiment_5_v0,2023.2.2,Win32,84.74576271,,,,,,,,,,,,,,,,48.3083,49.6022,49.6022,51.9081,return,0.3095,,99.47916667,0,2,2,33,1,FBP-RB-17.png,0.43,1.2,34,0.5,,,,,,,,,,,,,,,,,,,,,,,,,,,,,,,,,,,,,,,,,,,,,
,,,,,SPR24_079,19,female,2024-04-23_12h29.08.403,jersey_experiment_5_v0,2023.2.2,Win32,84.74576271,,,,,,,,,,,,,,,,51.9083,52.9552,52.9552,54.92,return,0.2829,,74.86979167,0,3,3,27,1,FBP-YG-19.png,0.4,1.2,28,0.25,,,,,,,,,,,,,,,,,,,,,,,,,,,,,,,,,,,,,,,,,,,,,
,,,,,SPR24_079,19,female,2024-04-23_12h29.08.403,jersey_experiment_5_v0,2023.2.2,Win32,84.74576271,,,,,,,,,,,,,,,,54.9201,55.967,55.967,57.4494,return,0.2923,,74.86979167,0,4,4,24,1,FBP-YG-18.png,0.45,1.2,25,0.25,,,,,,,,,,,,,,,,,,,,,,,,,,,,,,,,,,,,,,,,,,,,,
,,,,,SPR24_079,19,female,2024-04-23_12h29.08.403,jersey_experiment_5_v0,2023.2.2,Win32,84.74576271,,,,,,,,,,,,,,,,57.4496,58.7435,58.7436,60.8496,return,0.5378,,99.86979167,0,5,5,9,1,FBP-OG-81.png,0.45,1.2,10,0.5,,,,,,,,,,,,,,,,,,,,,,,,,,,,,,,,,,,,,,,,,,,,,
,,,,,SPR24_079,19,female,2024-04-23_12h29.08.403,jersey_experiment_5_v0,2023.2.2,Win32,84.74576271,,,,,,,,,,,,,,,,60.8499,61.8966,61.8966,65.2498,return,0.5236,,36.97916667,0,6,6,15,1,FBP-YG-17.png,0.35,1.2,16,0.25,,,,,,,,,,,,,,,,,,,,,,,,,,,,,,,,,,,,,,,,,,,,,
,,,,,SPR24_079,19,female,2024-04-23_12h29.08.403,jersey_experiment_5_v0,2023.2.2,Win32,84.74576271,,,,,,,,,,,,,,,,65.25,66.2968,66.2968,69.2735,return,0.3535,,75.390625,0,7,7,58,1,FBP-PT-19.png,0.43,1.2,59,0.25,,,,,,,,,,,,,,,,,,,,,,,,,,,,,,,,,,,,,,,,,,,,,
,,,,,SPR24_079,19,female,2024-04-23_12h29.08.403,jersey_experiment_5_v0,2023.2.2,Win32,84.74576271,,,,,,,,,,,,,,,,69.2736,70.3204,70.3204,72.3443,return,0.341,,25.13020833,0,8,8,16,1,FBP-YG-17.png,0.37,1.2,17,0.25,,,,,,,,,,,,,,,,,,,,,,,,,,,,,,,,,,,,,,,,,,,,,
,,,,,SPR24_079,19,female,2024-04-23_12h29.08.403,jersey_experiment_5_v0,2023.2.2,Win32,84.74576271,,,,,,,,,,,,,,,,72.3445,73.6384,73.6384,77.2267,return,0.438,,99.21875,0,9,9,14,1,FBP-OG-91.png,0.45,1.2,15,0.5,,,,,,,,,,,,,,,,,,,,,,,,,,,,,,,,,,,,,,,,,,,,,
,,,,,SPR24_079,19,female,2024-04-23_12h29.08.403,jersey_experiment_5_v0,2023.2.2,Win32,84.74576271,,,,,,,,,,,,,,,,77.2268,78.5208,78.521,80.7442,return,0.6604,,24.73958333,0,10,10,6,1,FBP-OG-81.png,0.37,1.2,7,0.5,,,,,,,,,,,,,,,,,,,,,,,,,,,,,,,,,,,,,,,,,,,,,
,,,,,SPR24_079,19,female,2024-04-23_12h29.08.403,jersey_experiment_5_v0,2023.2.2,Win32,84.74576271,,,,,,,,,,,,,,,,80.7444,81.7915,81.7915,83.8151,return,0.4629,,74.86979167,0,11,11,28,1,FBP-YG-19.png,0.43,1.2,29,0.25,,,,,,,,,,,,,,,,,,,,,,,,,,,,,,,,,,,,,,,,,,,,,
,,,,,SPR24_079,19,female,2024-04-23_12h29.08.403,jersey_experiment_5_v0,2023.2.2,Win32,84.74576271,,,,,,,,,,,,,,,,83.8154,84.8622,84.8622,86.5798,return,0.2179,,35.41666667,0,12,12,46,1,FBP-PT-17.png,0.37,1.2,47,0.25,,,,,,,,,,,,,,,,,,,,,,,,,,,,,,,,,,,,,,,,,,,,,
,,,,,SPR24_079,19,female,2024-04-23_12h29.08.403,jersey_experiment_5_v0,2023.2.2,Win32,84.74576271,,,,,,,,,,,,,,,,86.58,87.8741,87.8741,89.9446,return,0.2365,,74.86979167,0,13,13,8,1,FBP-OG-81.png,0.43,1.2,9,0.5,,,,,,,,,,,,,,,,,,,,,,,,,,,,,,,,,,,,,,,,,,,,,
,,,,,SPR24_079,19,female,2024-04-23_12h29.08.403,jersey_experiment_5_v0,2023.2.2,Win32,84.74576271,,,,,,,,,,,,,,,,89.9447,90.9919,90.9919,92.3802,return,0.2353,,99.73958333,0,14,14,54,1,FBP-PT-18.png,0.45,1.2,55,0.25,,,,,,,,,,,,,,,,,,,,,,,,,,,,,,,,,,,,,,,,,,,,,
,,,,,SPR24_079,19,female,2024-04-23_12h29.08.403,jersey_experiment_5_v0,2023.2.2,Win32,84.74576271,,,,,,,,,,,,,,,,92.3803,93.4271,93.4271,94.8039,return,0.1922,,75.26041667,0,15,15,17,1,FBP-YG-17.png,0.4,1.2,18,0.25,,,,,,,,,,,,,,,,,,,,,,,,,,,,,,,,,,,,,,,,,,,,,
,,,,,SPR24_079,19,female,2024-04-23_12h29.08.403,jersey_experiment_5_v0,2023.2.2,Win32,84.74576271,,,,,,,,,,,,,,,,94.8041,96.0979,96.0979,98.0862,return,0.2393,,0.260416667,0,16,16,10,1,FBP-OG-91.png,0.35,1.2,11,0.5,,,,,,,,,,,,,,,,,,,,,,,,,,,,,,,,,,,,,,,,,,,,,
,,,,,SPR24_079,19,female,2024-04-23_12h29.08.403,jersey_experiment_5_v0,2023.2.2,Win32,84.74576271,,,,,,,,,,,,,,,,98.0864,99.1333,99.1334,115.4515,return,2.0941,,0.130208333,0,17,17,25,1,FBP-YG-19.png,0.35,1.2,26,0.25,,,,,,,,,,,,,,,,,,,,,,,,,,,,,,,,,,,,,,,,,,,,,
,,,,,SPR24_079,19,female,2024-04-23_12h29.08.403,jersey_experiment_5_v0,2023.2.2,Win32,84.74576271,,,,,,,,,,,,,,,,115.4517,116.4986,116.4986,119.0517,return,1.1392,,74.21875,0,18,18,53,1,FBP-PT-18.png,0.43,1.2,54,0.25,,,,,,,,,,,,,,,,,,,,,,,,,,,,,,,,,,,,,,,,,,,,,
,,,,,SPR24_079,19,female,2024-04-23_12h29.08.403,jersey_experiment_5_v0,2023.2.2,Win32,84.74576271,,,,,,,,,,,,,,,,119.0519,120.0988,120.0989,122.7222,return,0.9486,,9.765625,0,19,19,20,1,FBP-YG-18.png,0.35,1.2,21,0.25,,,,,,,,,,,,,,,,,,,,,,,,,,,,,,,,,,,,,,,,,,,,,
,,,,,SPR24_079,19,female,2024-04-23_12h29.08.403,jersey_experiment_5_v0,2023.2.2,Win32,84.74576271,,,,,,,,,,,,,,,,122.7225,123.7696,123.7696,125.2047,return,0.229,,24.08854167,0,20,20,56,1,FBP-PT-19.png,0.37,1.2,57,0.25,,,,,,,,,,,,,,,,,,,,,,,,,,,,,,,,,,,,,,,,,,,,,
,,,,,SPR24_079,19,female,2024-04-23_12h29.08.403,jersey_experiment_5_v0,2023.2.2,Win32,84.74576271,,,,,,,,,,,,,,,,125.205,126.4989,126.499,127.699,return,0.2397,,14.58333333,0,21,21,40,1,FBP-RB-19.png,0.35,1.2,41,0.5,,,,,,,,,,,,,,,,,,,,,,,,,,,,,,,,,,,,,,,,,,,,,
,,,,,SPR24_079,19,female,2024-04-23_12h29.08.403,jersey_experiment_5_v0,2023.2.2,Win32,84.74576271,,,,,,,,,,,,,,,,127.6993,128.9932,128.9932,129.8991,return,0.2123,,12.63020833,0,22,22,35,1,FBP-RB-18.png,0.35,1.2,36,0.5,,,,,,,,,,,,,,,,,,,,,,,,,,,,,,,,,,,,,,,,,,,,,
,,,,,SPR24_079,19,female,2024-04-23_12h29.08.403,jersey_experiment_5_v0,2023.2.2,Win32,84.74576271,,,,,,,,,,,,,,,,129.8993,131.1932,131.1932,133.0756,return,0.3121,,34.375,0,23,23,31,1,FBP-RB-17.png,0.37,1.2,32,0.5,,,,,,,,,,,,,,,,,,,,,,,,,,,,,,,,,,,,,,,,,,,,,
,,,,,SPR24_079,19,female,2024-04-23_12h29.08.403,jersey_experiment_5_v0,2023.2.2,Win32,84.74576271,,,,,,,,,,,,,,,,133.0758,134.1228,134.1228,135.8757,return,0.2181,,62.36979167,0,24,24,47,1,FBP-PT-17.png,0.4,1.2,48,0.25,,,,,,,,,,,,,,,,,,,,,,,,,,,,,,,,,,,,,,,,,,,,,
,,,,,SPR24_079,19,female,2024-04-23_12h29.08.403,jersey_experiment_5_v0,2023.2.2,Win32,84.74576271,,,,,,,,,,,,,,,,135.8758,136.9228,136.9229,137.9699,return,0.2196,,62.36979167,0,25,25,26,1,FBP-YG-19.png,0.37,1.2,27,0.25,,,,,,,,,,,,,,,,,,,,,,,,,,,,,,,,,,,,,,,,,,,,,
,,,,,SPR24_079,19,female,2024-04-23_12h29.08.403,jersey_experiment_5_v0,2023.2.2,Win32,84.74576271,,,,,,,,,,,,,,,,137.9702,139.2641,139.2641,141.2406,return,0.2452,,5.338541667,0,26,26,30,1,FBP-RB-17.png,0.35,1.2,31,0.5,,,,,,,,,,,,,,,,,,,,,,,,,,,,,,,,,,,,,,,,,,,,,
,,,,,SPR24_079,19,female,2024-04-23_12h29.08.403,jersey_experiment_5_v0,2023.2.2,Win32,84.74576271,,,,,,,,,,,,,,,,141.2408,142.2878,142.2879,144.6173,return,0.3677,,0.130208333,0,27,27,45,1,FBP-PT-17.png,0.35,1.2,46,0.25,,,,,,,,,,,,,,,,,,,,,,,,,,,,,,,,,,,,,,,,,,,,,
,,,,,SPR24_079,19,female,2024-04-23_12h29.08.403,jersey_experiment_5_v0,2023.2.2,Win32,84.74576271,,,,,,,,,,,,,,,,144.6174,145.6644,145.6645,147.6055,return,0.2513,,4.557291667,0,28,28,55,1,FBP-PT-19.png,0.35,1.2,56,0.25,,,,,,,,,,,,,,,,,,,,,,,,,,,,,,,,,,,,,,,,,,,,,
,,,,,SPR24_079,19,female,2024-04-23_12h29.08.403,jersey_experiment_5_v0,2023.2.2,Win32,84.74576271,,,,,,,,,,,,,,,,147.6057,148.6526,148.6526,150.5234,return,0.2023,,49.47916667,0,29,29,52,1,FBP-PT-18.png,0.4,1.2,53,0.25,,,,,,,,,,,,,,,,,,,,,,,,,,,,,,,,,,,,,,,,,,,,,
,,,,,SPR24_079,19,female,2024-04-23_12h29.08.403,jersey_experiment_5_v0,2023.2.2,Win32,84.74576271,,,,,,,,,,,,,,,,150.5236,151.8174,151.8174,152.8174,return,0.1823,,49.73958333,0,30,30,36,1,FBP-RB-18.png,0.37,1.2,37,0.5,,,,,,,,,,,,,,,,,,,,,,,,,,,,,,,,,,,,,,,,,,,,,
,,,,,SPR24_079,19,female,2024-04-23_12h29.08.403,jersey_experiment_5_v0,2023.2.2,Win32,84.74576271,,,,,,,,,,,,,,,,152.8176,153.8646,153.8647,155.7471,return,0.2633,,99.609375,0,31,31,18,1,FBP-YG-17.png,0.43,1.2,19,0.25,,,,,,,,,,,,,,,,,,,,,,,,,,,,,,,,,,,,,,,,,,,,,
,,,,,SPR24_079,19,female,2024-04-23_12h29.08.403,jersey_experiment_5_v0,2023.2.2,Win32,84.74576271,,,,,,,,,,,,,,,,155.7472,157.0413,157.0413,157.8999,return,0.2351,,99.609375,0,32,32,3,1,FBP-OG-71.png,0.43,1.2,4,0.5,,,,,,,,,,,,,,,,,,,,,,,,,,,,,,,,,,,,,,,,,,,,,
,,,,,SPR24_079,19,female,2024-04-23_12h29.08.403,jersey_experiment_5_v0,2023.2.2,Win32,84.74576271,,,,,,,,,,,,,,,,157.9002,158.9471,158.9471,160.9236,return,0.2261,,50.65104167,0,33,33,22,1,FBP-YG-18.png,0.4,1.2,23,0.25,,,,,,,,,,,,,,,,,,,,,,,,,,,,,,,,,,,,,,,,,,,,,
,,,,,SPR24_079,19,female,2024-04-23_12h29.08.403,jersey_experiment_5_v0,2023.2.2,Win32,84.74576271,,,,,,,,,,,,,,,,160.9239,162.2177,162.2178,164.4885,return,0.2458,,35.67708333,0,34,34,5,1,FBP-OG-81.png,0.35,1.2,6,0.5,,,,,,,,,,,,,,,,,,,,,,,,,,,,,,,,,,,,,,,,,,,,,
,,,,,SPR24_079,19,female,2024-04-23_12h29.08.403,jersey_experiment_5_v0,2023.2.2,Win32,84.74576271,,,,,,,,,,,,,,,,164.4887,165.5357,165.5357,167.3712,return,0.4707,,99.21875,0,35,35,23,1,FBP-YG-18.png,0.43,1.2,24,0.25,,,,,,,,,,,,,,,,,,,,,,,,,,,,,,,,,,,,,,,,,,,,,
,,,,,SPR24_079,19,female,2024-04-23_12h29.08.403,jersey_experiment_5_v0,2023.2.2,Win32,84.74576271,,,,,,,,,,,,,,,,167.3714,168.6652,168.6652,170.124,return,0.2264,,99.73958333,0,36,36,39,1,FBP-RB-18.png,0.45,1.2,40,0.5,,,,,,,,,,,,,,,,,,,,,,,,,,,,,,,,,,,,,,,,,,,,,
,,,,,SPR24_079,19,female,2024-04-23_12h29.08.403,jersey_experiment_5_v0,2023.2.2,Win32,84.74576271,,,,,,,,,,,,,,,,170.1242,171.4182,171.4182,172.9714,return,0.2596,,25.390625,0,37,37,0,1,FBP-OG-71.png,0.35,1.2,1,0.5,,,,,,,,,,,,,,,,,,,,,,,,,,,,,,,,,,,,,,,,,,,,,
,,,,,SPR24_079,19,female,2024-04-23_12h29.08.403,jersey_experiment_5_v0,2023.2.2,Win32,84.74576271,,,,,,,,,,,,,,,,172.9716,174.0182,174.0183,175.2888,return,0.2597,,25.13020833,0,38,38,50,1,FBP-PT-18.png,0.35,1.2,51,0.25,,,,,,,,,,,,,,,,,,,,,,,,,,,,,,,,,,,,,,,,,,,,,
,,,,,SPR24_079,19,female,2024-04-23_12h29.08.403,jersey_experiment_5_v0,2023.2.2,Win32,84.74576271,,,,,,,,,,,,,,,,175.289,176.5835,176.5835,178.3244,return,0.1793,,39.453125,0,39,39,41,1,FBP-RB-19.png,0.37,1.2,42,0.5,,,,,,,,,,,,,,,,,,,,,,,,,,,,,,,,,,,,,,,,,,,,,
,,,,,SPR24_079,19,female,2024-04-23_12h29.08.403,jersey_experiment_5_v0,2023.2.2,Win32,84.74576271,,,,,,,,,,,,,,,,178.3245,179.3714,179.3714,180.9361,return,0.1991,,99.73958333,0,40,40,29,1,FBP-YG-19.png,0.45,1.2,30,0.25,,,,,,,,,,,,,,,,,,,,,,,,,,,,,,,,,,,,,,,,,,,,,
,,,,,SPR24_079,19,female,2024-04-23_12h29.08.403,jersey_experiment_5_v0,2023.2.2,Win32,84.74576271,,,,,,,,,,,,,,,,180.9363,181.9832,181.9832,183.2069,return,0.1558,,99.47916667,0,41,41,59,1,FBP-PT-19.png,0.45,1.2,60,0.25,,,,,,,,,,,,,,,,,,,,,,,,,,,,,,,,,,,,,,,,,,,,,
,,,,,SPR24_079,19,female,2024-04-23_12h29.08.403,jersey_experiment_5_v0,2023.2.2,Win32,84.74576271,,,,,,,,,,,,,,,,183.207,184.2538,184.2538,185.5128,return,0.1883,,89.71354167,0,42,42,19,1,FBP-YG-17.png,0.45,1.2,20,0.25,,,,,,,,,,,,,,,,,,,,,,,,,,,,,,,,,,,,,,,,,,,,,
,,,,,SPR24_079,19,female,2024-04-23_12h29.08.403,jersey_experiment_5_v0,2023.2.2,Win32,84.74576271,,,,,,,,,,,,,,,,185.513,186.807,186.8071,188.2658,return,0.2589,,75.390625,0,43,43,12,1,FBP-OG-91.png,0.4,1.2,13,0.5,,,,,,,,,,,,,,,,,,,,,,,,,,,,,,,,,,,,,,,,,,,,,
,,,,,SPR24_079,19,female,2024-04-23_12h29.08.403,jersey_experiment_5_v0,2023.2.2,Win32,84.74576271,,,,,,,,,,,,,,,,188.2659,189.56,189.56,191.1718,return,0.1939,,89.71354167,0,44,44,13,1,FBP-OG-91.png,0.43,1.2,14,0.5,,,,,,,,,,,,,,,,,,,,,,,,,,,,,,,,,,,,,,,,,,,,,
,,,,,SPR24_079,19,female,2024-04-23_12h29.08.403,jersey_experiment_5_v0,2023.2.2,Win32,84.74576271,,,,,,,,,,,,,,,,191.172,192.2189,192.2189,193.6189,return,0.1335,,50.13020833,0,45,45,51,1,FBP-PT-18.png,0.37,1.2,52,0.25,,,,,,,,,,,,,,,,,,,,,,,,,,,,,,,,,,,,,,,,,,,,,
,,,,,SPR24_079,19,female,2024-04-23_12h29.08.403,jersey_experiment_5_v0,2023.2.2,Win32,84.74576271,,,,,,,,,,,,,,,,193.619,194.6661,194.6661,195.5132,return,0.1084,,50.13020833,0,46,46,57,1,FBP-PT-19.png,0.4,1.2,58,0.25,,,,,,,,,,,,,,,,,,,,,,,,,,,,,,,,,,,,,,,,,,,,,
,,,,,SPR24_079,19,female,2024-04-23_12h29.08.403,jersey_experiment_5_v0,2023.2.2,Win32,84.74576271,,,,,,,,,,,,,,,,195.5134,196.8073,196.8074,197.8661,return,0.203,,74.86979167,0,47,47,32,1,FBP-RB-17.png,0.4,1.2,33,0.5,,,,,,,,,,,,,,,,,,,,,,,,,,,,,,,,,,,,,,,,,,,,,
,,,,,SPR24_079,19,female,2024-04-23_12h29.08.403,jersey_experiment_5_v0,2023.2.2,Win32,84.74576271,,,,,,,,,,,,,,,,197.8664,199.1604,199.1604,201.2074,return,0.2822,,99.34895833,0,48,48,43,1,FBP-RB-19.png,0.43,1.2,44,0.5,,,,,,,,,,,,,,,,,,,,,,,,,,,,,,,,,,,,,,,,,,,,,
,,,,,SPR24_079,19,female,2024-04-23_12h29.08.403,jersey_experiment_5_v0,2023.2.2,Win32,84.74576271,,,,,,,,,,,,,,,,201.2076,202.5017,202.5017,203.49,return,0.3116,,99.34895833,0,49,49,34,1,FBP-RB-17.png,0.45,1.2,35,0.5,,,,,,,,,,,,,,,,,,,,,,,,,,,,,,,,,,,,,,,,,,,,,
,,,,,SPR24_079,19,female,2024-04-23_12h29.08.403,jersey_experiment_5_v0,2023.2.2,Win32,84.74576271,,,,,,,,,,,,,,,,203.4901,204.7839,204.784,206.596,return,0.3236,,74.21875,0,50,50,11,1,FBP-OG-91.png,0.37,1.2,12,0.5,,,,,,,,,,,,,,,,,,,,,,,,,,,,,,,,,,,,,,,,,,,,,
,,,,,SPR24_079,19,female,2024-04-23_12h29.08.403,jersey_experiment_5_v0,2023.2.2,Win32,84.74576271,,,,,,,,,,,,,,,,206.5961,207.8901,207.8901,209.4783,return,0.2621,,99.73958333,0,51,51,44,1,FBP-RB-19.png,0.45,1.2,45,0.5,,,,,,,,,,,,,,,,,,,,,,,,,,,,,,,,,,,,,,,,,,,,,
,,,,,SPR24_079,19,female,2024-04-23_12h29.08.403,jersey_experiment_5_v0,2023.2.2,Win32,84.74576271,,,,,,,,,,,,,,,,209.4784,210.7724,210.7725,211.7137,return,0.2433,,99.73958333,0,52,52,7,1,FBP-OG-81.png,0.4,1.2,8,0.5,,,,,,,,,,,,,,,,,,,,,,,,,,,,,,,,,,,,,,,,,,,,,
,,,,,SPR24_079,19,female,2024-04-23_12h29.08.403,jersey_experiment_5_v0,2023.2.2,Win32,84.74576271,,,,,,,,,,,,,,,,211.7138,212.7608,212.7608,214.8667,return,0.2658,,99.34895833,0,53,53,49,1,FBP-PT-17.png,0.45,1.2,50,0.25,,,,,,,,,,,,,,,,,,,,,,,,,,,,,,,,,,,,,,,,,,,,,
,,,,,SPR24_079,19,female,2024-04-23_12h29.08.403,jersey_experiment_5_v0,2023.2.2,Win32,84.74576271,,,,,,,,,,,,,,,,214.8669,215.9137,215.9137,217.2668,return,0.2187,,87.36979167,0,54,54,21,1,FBP-YG-18.png,0.37,1.2,22,0.25,,,,,,,,,,,,,,,,,,,,,,,,,,,,,,,,,,,,,,,,,,,,,
,,,,,SPR24_079,19,female,2024-04-23_12h29.08.403,jersey_experiment_5_v0,2023.2.2,Win32,84.74576271,,,,,,,,,,,,,,,,217.267,218.561,218.5611,220.8084,return,0.2121,,49.86979167,0,55,55,1,1,FBP-OG-71.png,0.37,1.2,2,0.5,,,,,,,,,,,,,,,,,,,,,,,,,,,,,,,,,,,,,,,,,,,,,
,,,,,SPR24_079,19,female,2024-04-23_12h29.08.403,jersey_experiment_5_v0,2023.2.2,Win32,84.74576271,,,,,,,,,,,,,,,,220.8086,222.1024,222.1024,223.3964,return,0.2055,,49.34895833,0,56,56,42,1,FBP-RB-19.png,0.4,1.2,43,0.5,,,,,,,,,,,,,,,,,,,,,,,,,,,,,,,,,,,,,,,,,,,,,
,,,,,SPR24_079,19,female,2024-04-23_12h29.08.403,jersey_experiment_5_v0,2023.2.2,Win32,84.74576271,,,,,,,,,,,,,,,,223.3967,224.4437,224.4438,225.8436,return,0.2152,,75,0,57,57,48,1,FBP-PT-17.png,0.43,1.2,49,0.25,,,,,,,,,,,,,,,,,,,,,,,,,,,,,,,,,,,,,,,,,,,,,
,,,,,SPR24_079,19,female,2024-04-23_12h29.08.403,jersey_experiment_5_v0,2023.2.2,Win32,84.74576271,,,,,,,,,,,,,,,,225.8438,227.138,227.138,228.5613,return,0.2062,,88.93229167,0,58,58,38,1,FBP-RB-18.png,0.43,1.2,39,0.5,,,,,,,,,,,,,,,,,,,,,,,,,,,,,,,,,,,,,,,,,,,,,
,,,,,SPR24_079,19,female,2024-04-23_12h29.08.403,jersey_experiment_5_v0,2023.2.2,Win32,84.74576271,,,,,,,,,,,,,,,,228.5615,229.8554,229.8554,230.9967,return,0.2285,,99.73958333,0,59,59,4,1,FBP-OG-71.png,0.45,1.2,5,0.5,,,,,,,,,,,,,,,,,,,,,,,,,,,,,,,,,,,,,,,,,,,,,
,,,,,SPR24_079,19,female,2024-04-23_12h29.08.403,jersey_experiment_5_v0,2023.2.2,Win32,84.74576271,,,,,,,,,,,,,,,,230.9989,232.0438,232.0438,233.3498,return,0.5425,,99.47916667,,,,,,FBP-PT-71.png,0.45,1.2,50,0.25,0,0,0,49,1,,,,,,,,,,,,,,,,,,,,,,,,,,,,,,,,,,,,,,,,
,,,,,SPR24_079,19,female,2024-04-23_12h29.08.403,jersey_experiment_5_v0,2023.2.2,Win32,84.74576271,,,,,,,,,,,,,,,,233.3502,234.397,234.397,236.3734,return,0.1929,,24.47916667,,,,,,FBP-YG-81.png,0.35,1.2,21,0.25,0,1,1,20,1,,,,,,,,,,,,,,,,,,,,,,,,,,,,,,,,,,,,,,,,
,,,,,SPR24_079,19,female,2024-04-23_12h29.08.403,jersey_experiment_5_v0,2023.2.2,Win32,84.74576271,,,,,,,,,,,,,,,,236.3736,237.4205,237.4205,238.9146,return,0.1717,,24.609375,,,,,,FBP-PT-71.png,0.37,1.2,47,0.25,0,2,2,46,1,,,,,,,,,,,,,,,,,,,,,,,,,,,,,,,,,,,,,,,,
,,,,,SPR24_079,19,female,2024-04-23_12h29.08.403,jersey_experiment_5_v0,2023.2.2,Win32,84.74576271,,,,,,,,,,,,,,,,238.9148,239.9617,239.9617,241.9853,return,0.2083,,75.13020833,,,,,,FBP-PT-81.png,0.45,1.2,55,0.25,0,3,3,54,1,,,,,,,,,,,,,,,,,,,,,,,,,,,,,,,,,,,,,,,,
,,,,,SPR24_079,19,female,2024-04-23_12h29.08.403,jersey_experiment_5_v0,2023.2.2,Win32,84.74576271,,,,,,,,,,,,,,,,241.9855,243.2795,243.2795,245.1267,return,0.2006,,49.73958333,,,,,,FBP-OG-18.png,0.4,1.2,8,0.5,0,4,4,7,1,,,,,,,,,,,,,,,,,,,,,,,,,,,,,,,,,,,,,,,,
,,,,,SPR24_079,19,female,2024-04-23_12h29.08.403,jersey_experiment_5_v0,2023.2.2,Win32,84.74576271,,,,,,,,,,,,,,,,245.1269,246.4208,246.4208,247.2208,return,0.2029,,49.73958333,,,,,,FBP-RB-81.png,0.4,1.2,38,0.5,0,5,5,37,1,,,,,,,,,,,,,,,,,,,,,,,,,,,,,,,,,,,,,,,,
,,,,,SPR24_079,19,female,2024-04-23_12h29.08.403,jersey_experiment_5_v0,2023.2.2,Win32,84.74576271,,,,,,,,,,,,,,,,247.221,248.5149,248.515,250.0209,return,0.2258,,24.609375,,,,,,FBP-OG-18.png,0.35,1.2,6,0.5,0,6,6,5,1,,,,,,,,,,,,,,,,,,,,,,,,,,,,,,,,,,,,,,,,
,,,,,SPR24_079,19,female,2024-04-23_12h29.08.403,jersey_experiment_5_v0,2023.2.2,Win32,84.74576271,,,,,,,,,,,,,,,,250.0211,251.068,251.0681,253.2564,return,0.1326,,49.86979167,,,,,,FBP-PT-81.png,0.43,1.2,54,0.25,0,7,7,53,1,,,,,,,,,,,,,,,,,,,,,,,,,,,,,,,,,,,,,,,,
,,,,,SPR24_079,19,female,2024-04-23_12h29.08.403,jersey_experiment_5_v0,2023.2.2,Win32,84.74576271,,,,,,,,,,,,,,,,253.2566,254.3035,254.3035,256.1624,return,0.2427,,99.609375,,,,,,FBP-YG-81.png,0.45,1.2,25,0.25,0,8,8,24,1,,,,,,,,,,,,,,,,,,,,,,,,,,,,,,,,,,,,,,,,
,,,,,SPR24_079,19,female,2024-04-23_12h29.08.403,jersey_experiment_5_v0,2023.2.2,Win32,84.74576271,,,,,,,,,,,,,,,,256.1626,257.2094,257.2094,259.0564,return,0.2916,,75.13020833,,,,,,FBP-PT-81.png,0.4,1.2,53,0.25,0,9,9,52,1,,,,,,,,,,,,,,,,,,,,,,,,,,,,,,,,,,,,,,,,
,,,,,SPR24_079,19,female,2024-04-23_12h29.08.403,jersey_experiment_5_v0,2023.2.2,Win32,84.74576271,,,,,,,,,,,,,,,,259.0566,260.3507,260.3507,261.7861,return,0.2355,,24.609375,,,,,,FBP-RB-91.png,0.37,1.2,42,0.5,0,10,10,41,1,,,,,,,,,,,,,,,,,,,,,,,,,,,,,,,,,,,,,,,,
,,,,,SPR24_079,19,female,2024-04-23_12h29.08.403,jersey_experiment_5_v0,2023.2.2,Win32,84.74576271,,,,,,,,,,,,,,,,261.7864,263.0801,263.0802,264.2097,return,0.2193,,50.26041667,,,,,,FBP-RB-71.png,0.4,1.2,33,0.5,0,11,11,32,1,,,,,,,,,,,,,,,,,,,,,,,,,,,,,,,,,,,,,,,,
,,,,,SPR24_079,19,female,2024-04-23_12h29.08.403,jersey_experiment_5_v0,2023.2.2,Win32,84.74576271,,,,,,,,,,,,,,,,264.21,265.2567,265.2567,267.6568,return,0.235,,12.5,,,,,,FBP-YG-71.png,0.35,1.2,16,0.25,0,12,12,15,1,,,,,,,,,,,,,,,,,,,,,,,,,,,,,,,,,,,,,,,,
,,,,,SPR24_079,19,female,2024-04-23_12h29.08.403,jersey_experiment_5_v0,2023.2.2,Win32,84.74576271,,,,,,,,,,,,,,,,267.657,268.7038,268.7039,269.9864,return,0.1932,,74.609375,,,,,,FBP-YG-91.png,0.45,1.2,30,0.25,0,13,13,29,1,,,,,,,,,,,,,,,,,,,,,,,,,,,,,,,,,,,,,,,,
,,,,,SPR24_079,19,female,2024-04-23_12h29.08.403,jersey_experiment_5_v0,2023.2.2,Win32,84.74576271,,,,,,,,,,,,,,,,269.9865,271.2805,271.2805,273.0101,return,0.2192,,49.86979167,,,,,,FBP-RB-81.png,0.43,1.2,39,0.5,0,14,14,38,1,,,,,,,,,,,,,,,,,,,,,,,,,,,,,,,,,,,,,,,,
,,,,,SPR24_079,19,female,2024-04-23_12h29.08.403,jersey_experiment_5_v0,2023.2.2,Win32,84.74576271,,,,,,,,,,,,,,,,273.0103,274.0571,274.0571,275.3865,return,0.1884,,24.34895833,,,,,,FBP-PT-81.png,0.37,1.2,52,0.25,0,15,15,51,1,,,,,,,,,,,,,,,,,,,,,,,,,,,,,,,,,,,,,,,,
,,,,,SPR24_079,19,female,2024-04-23_12h29.08.403,jersey_experiment_5_v0,2023.2.2,Win32,84.74576271,,,,,,,,,,,,,,,,275.3867,276.4336,276.4337,278.2337,return,0.2117,,25,,,,,,FBP-YG-81.png,0.4,1.2,23,0.25,0,16,16,22,1,,,,,,,,,,,,,,,,,,,,,,,,,,,,,,,,,,,,,,,,
,,,,,SPR24_079,19,female,2024-04-23_12h29.08.403,jersey_experiment_5_v0,2023.2.2,Win32,84.74576271,,,,,,,,,,,,,,,,278.234,279.2806,279.2807,280.9043,return,0.2359,,74.47916667,,,,,,FBP-YG-91.png,0.43,1.2,29,0.25,0,17,17,28,1,,,,,,,,,,,,,,,,,,,,,,,,,,,,,,,,,,,,,,,,
,,,,,SPR24_079,19,female,2024-04-23_12h29.08.403,jersey_experiment_5_v0,2023.2.2,Win32,84.74576271,,,,,,,,,,,,,,,,280.9045,281.9514,281.9514,283.7515,return,0.2266,,24.86979167,,,,,,FBP-YG-81.png,0.37,1.2,22,0.25,0,18,18,21,1,,,,,,,,,,,,,,,,,,,,,,,,,,,,,,,,,,,,,,,,
,,,,,SPR24_079,19,female,2024-04-23_12h29.08.403,jersey_experiment_5_v0,2023.2.2,Win32,84.74576271,,,,,,,,,,,,,,,,283.7517,285.0457,285.0457,286.281,return,0.2359,,25.13020833,,,,,,FBP-OG-19.png,0.35,1.2,11,0.5,0,19,19,10,1,,,,,,,,,,,,,,,,,,,,,,,,,,,,,,,,,,,,,,,,
,,,,,SPR24_079,19,female,2024-04-23_12h29.08.403,jersey_experiment_5_v0,2023.2.2,Win32,84.74576271,,,,,,,,,,,,,,,,286.2811,287.3281,287.3281,288.5633,return,0.1329,,49.609375,,,,,,FBP-YG-71.png,0.43,1.2,19,0.25,0,20,20,18,1,,,,,,,,,,,,,,,,,,,,,,,,,,,,,,,,,,,,,,,,
,,,,,SPR24_079,19,female,2024-04-23_12h29.08.403,jersey_experiment_5_v0,2023.2.2,Win32,84.74576271,,,,,,,,,,,,,,,,288.5636,289.6106,289.6106,290.8577,return,0.1791,,74.47916667,,,,,,FBP-PT-71.png,0.43,1.2,49,0.25,0,21,21,48,1,,,,,,,,,,,,,,,,,,,,,,,,,,,,,,,,,,,,,,,,
,,,,,SPR24_079,19,female,2024-04-23_12h29.08.403,jersey_experiment_5_v0,2023.2.2,Win32,84.74576271,,,,,,,,,,,,,,,,290.858,291.9049,291.9049,293.3166,return,0.179,,49.34895833,,,,,,FBP-PT-91.png,0.35,1.2,56,0.25,0,22,22,55,1,,,,,,,,,,,,,,,,,,,,,,,,,,,,,,,,,,,,,,,,
,,,,,SPR24_079,19,female,2024-04-23_12h29.08.403,jersey_experiment_5_v0,2023.2.2,Win32,84.74576271,,,,,,,,,,,,,,,,293.3167,294.6109,294.611,295.8109,return,0.1949,,99.86979167,,,,,,FBP-OG-18.png,0.45,1.2,10,0.5,0,23,23,9,1,,,,,,,,,,,,,,,,,,,,,,,,,,,,,,,,,,,,,,,,
,,,,,SPR24_079,19,female,2024-04-23_12h29.08.403,jersey_experiment_5_v0,2023.2.2,Win32,84.74576271,,,,,,,,,,,,,,,,295.8112,296.858,296.8581,298.0579,return,0.165,,49.47916667,,,,,,FBP-YG-71.png,0.4,1.2,18,0.25,0,24,24,17,1,,,,,,,,,,,,,,,,,,,,,,,,,,,,,,,,,,,,,,,,
,,,,,SPR24_079,19,female,2024-04-23_12h29.08.403,jersey_experiment_5_v0,2023.2.2,Win32,84.74576271,,,,,,,,,,,,,,,,298.0581,299.3521,299.3522,300.6579,return,0.2427,,75.26041667,,,,,,FBP-RB-91.png,0.43,1.2,44,0.5,0,25,25,43,1,,,,,,,,,,,,,,,,,,,,,,,,,,,,,,,,,,,,,,,,
,,,,,SPR24_079,19,female,2024-04-23_12h29.08.403,jersey_experiment_5_v0,2023.2.2,Win32,84.74576271,,,,,,,,,,,,,,,,300.6581,301.9522,301.9522,302.9993,return,0.2027,,49.73958333,,,,,,FBP-RB-81.png,0.37,1.2,37,0.5,0,26,26,36,1,,,,,,,,,,,,,,,,,,,,,,,,,,,,,,,,,,,,,,,,
,,,,,SPR24_079,19,female,2024-04-23_12h29.08.403,jersey_experiment_5_v0,2023.2.2,Win32,84.74576271,,,,,,,,,,,,,,,,302.9995,304.0464,304.0464,305.7052,return,0.1788,,24.73958333,,,,,,FBP-YG-91.png,0.37,1.2,27,0.25,0,27,27,26,1,,,,,,,,,,,,,,,,,,,,,,,,,,,,,,,,,,,,,,,,
,,,,,SPR24_079,19,female,2024-04-23_12h29.08.403,jersey_experiment_5_v0,2023.2.2,Win32,84.74576271,,,,,,,,,,,,,,,,305.7055,306.9993,306.9994,308.3406,return,0.1437,,49.86979167,,,,,,FBP-OG-17.png,0.37,1.2,2,0.5,0,28,28,1,1,,,,,,,,,,,,,,,,,,,,,,,,,,,,,,,,,,,,,,,,
,,,,,SPR24_079,19,female,2024-04-23_12h29.08.403,jersey_experiment_5_v0,2023.2.2,Win32,84.74576271,,,,,,,,,,,,,,,,308.3409,309.3876,309.3877,310.376,return,0.1992,,49.86979167,,,,,,FBP-YG-91.png,0.4,1.2,28,0.25,0,29,29,27,1,,,,,,,,,,,,,,,,,,,,,,,,,,,,,,,,,,,,,,,,
,,,,,SPR24_079,19,female,2024-04-23_12h29.08.403,jersey_experiment_5_v0,2023.2.2,Win32,84.74576271,,,,,,,,,,,,,,,,310.3762,311.6702,311.6702,312.8585,return,0.1793,,75.390625,,,,,,FBP-OG-19.png,0.43,1.2,14,0.5,0,30,30,13,1,,,,,,,,,,,,,,,,,,,,,,,,,,,,,,,,,,,,,,,,
,,,,,SPR24_079,19,female,2024-04-23_12h29.08.403,jersey_experiment_5_v0,2023.2.2,Win32,84.74576271,,,,,,,,,,,,,,,,312.8588,313.9055,313.9055,315.3525,return,0.2111,,50.390625,,,,,,FBP-PT-71.png,0.4,1.2,48,0.25,0,31,31,47,1,,,,,,,,,,,,,,,,,,,,,,,,,,,,,,,,,,,,,,,,
,,,,,SPR24_079,19,female,2024-04-23_12h29.08.403,jersey_experiment_5_v0,2023.2.2,Win32,84.74576271,,,,,,,,,,,,,,,,315.3526,316.6467,316.6467,317.3528,return,0.2028,,50.390625,,,,,,FBP-OG-18.png,0.43,1.2,9,0.5,0,32,32,8,1,,,,,,,,,,,,,,,,,,,,,,,,,,,,,,,,,,,,,,,,
,,,,,SPR24_079,19,female,2024-04-23_12h29.08.403,jersey_experiment_5_v0,2023.2.2,Win32,84.74576271,,,,,,,,,,,,,,,,317.353,318.3998,318.3998,320.6116,return,0.194,,63.671875,,,,,,FBP-YG-81.png,0.43,1.2,24,0.25,0,33,33,23,1,,,,,,,,,,,,,,,,,,,,,,,,,,,,,,,,,,,,,,,,
,,,,,SPR24_079,19,female,2024-04-23_12h29.08.403,jersey_experiment_5_v0,2023.2.2,Win32,84.74576271,,,,,,,,,,,,,,,,320.6119,321.9057,321.9057,322.7295,return,0.2211,,63.671875,,,,,,FBP-OG-17.png,0.43,1.2,4,0.5,0,34,34,3,1,,,,,,,,,,,,,,,,,,,,,,,,,,,,,,,,,,,,,,,,
,,,,,SPR24_079,19,female,2024-04-23_12h29.08.403,jersey_experiment_5_v0,2023.2.2,Win32,84.74576271,,,,,,,,,,,,,,,,322.7296,324.0235,324.0235,325.5059,return,0.2196,,75.13020833,,,,,,FBP-RB-71.png,0.43,1.2,34,0.5,0,35,35,33,1,,,,,,,,,,,,,,,,,,,,,,,,,,,,,,,,,,,,,,,,
,,,,,SPR24_079,19,female,2024-04-23_12h29.08.403,jersey_experiment_5_v0,2023.2.2,Win32,84.74576271,,,,,,,,,,,,,,,,325.5061,326.7999,326.7999,328.3768,return,0.222,,0.260416667,,,,,,FBP-RB-71.png,0.35,1.2,31,0.5,0,36,36,30,1,,,,,,,,,,,,,,,,,,,,,,,,,,,,,,,,,,,,,,,,
,,,,,SPR24_079,19,female,2024-04-23_12h29.08.403,jersey_experiment_5_v0,2023.2.2,Win32,84.74576271,,,,,,,,,,,,,,,,328.377,329.6709,329.6709,331.0004,return,0.2263,,12.63020833,,,,,,FBP-RB-71.png,0.37,1.2,32,0.5,0,37,37,31,1,,,,,,,,,,,,,,,,,,,,,,,,,,,,,,,,,,,,,,,,
,,,,,SPR24_079,19,female,2024-04-23_12h29.08.403,jersey_experiment_5_v0,2023.2.2,Win32,84.74576271,,,,,,,,,,,,,,,,331.0006,332.2944,332.2945,333.73,return,0.2318,,11.06770833,,,,,,FBP-RB-81.png,0.35,1.2,36,0.5,0,38,38,35,1,,,,,,,,,,,,,,,,,,,,,,,,,,,,,,,,,,,,,,,,
,,,,,SPR24_079,19,female,2024-04-23_12h29.08.403,jersey_experiment_5_v0,2023.2.2,Win32,84.74576271,,,,,,,,,,,,,,,,333.7302,335.0242,335.0242,336.9651,return,0.2159,,75,,,,,,FBP-RB-71.png,0.45,1.2,35,0.5,0,39,39,34,1,,,,,,,,,,,,,,,,,,,,,,,,,,,,,,,,,,,,,,,,
,,,,,SPR24_079,19,female,2024-04-23_12h29.08.403,jersey_experiment_5_v0,2023.2.2,Win32,84.74576271,,,,,,,,,,,,,,,,336.9653,338.0121,338.0122,339.9416,return,0.1892,,25.13020833,,,,,,FBP-YG-71.png,0.37,1.2,17,0.25,0,40,40,16,1,,,,,,,,,,,,,,,,,,,,,,,,,,,,,,,,,,,,,,,,
,,,,,SPR24_079,19,female,2024-04-23_12h29.08.403,jersey_experiment_5_v0,2023.2.2,Win32,84.74576271,,,,,,,,,,,,,,,,339.9418,340.9888,340.9888,343.6714,return,0.3315,,0.78125,,,,,,FBP-PT-71.png,0.35,1.2,46,0.25,0,41,41,45,1,,,,,,,,,,,,,,,,,,,,,,,,,,,,,,,,,,,,,,,,
,,,,,SPR24_079,19,female,2024-04-23_12h29.08.403,jersey_experiment_5_v0,2023.2.2,Win32,84.74576271,,,,,,,,,,,,,,,,343.6716,344.9655,344.9655,347.1772,return,0.2122,,87.36979167,,,,,,FBP-OG-19.png,0.45,1.2,15,0.5,0,42,42,14,1,,,,,,,,,,,,,,,,,,,,,,,,,,,,,,,,,,,,,,,,
,,,,,SPR24_079,19,female,2024-04-23_12h29.08.403,jersey_experiment_5_v0,2023.2.2,Win32,84.74576271,,,,,,,,,,,,,,,,347.1775,348.2244,348.2245,349.9891,return,0.2137,,25,,,,,,FBP-PT-91.png,0.37,1.2,57,0.25,0,43,43,56,1,,,,,,,,,,,,,,,,,,,,,,,,,,,,,,,,,,,,,,,,
,,,,,SPR24_079,19,female,2024-04-23_12h29.08.403,jersey_experiment_5_v0,2023.2.2,Win32,84.74576271,,,,,,,,,,,,,,,,349.9894,351.2834,351.2834,353.0834,return,0.2206,,75.13020833,,,,,,FBP-OG-17.png,0.45,1.2,5,0.5,0,44,44,4,1,,,,,,,,,,,,,,,,,,,,,,,,,,,,,,,,,,,,,,,,
,,,,,SPR24_079,19,female,2024-04-23_12h29.08.403,jersey_experiment_5_v0,2023.2.2,Win32,84.74576271,,,,,,,,,,,,,,,,353.0836,354.1305,354.1305,355.9775,return,0.1408,,49.47916667,,,,,,FBP-PT-91.png,0.4,1.2,58,0.25,0,45,45,57,1,,,,,,,,,,,,,,,,,,,,,,,,,,,,,,,,,,,,,,,,
,,,,,SPR24_079,19,female,2024-04-23_12h29.08.403,jersey_experiment_5_v0,2023.2.2,Win32,84.74576271,,,,,,,,,,,,,,,,355.9777,357.0245,357.0246,361.4601,return,0.4524,,3.125,,,,,,FBP-PT-81.png,0.35,1.2,51,0.25,0,46,46,50,1,,,,,,,,,,,,,,,,,,,,,,,,,,,,,,,,,,,,,,,,
,,,,,SPR24_079,19,female,2024-04-23_12h29.08.403,jersey_experiment_5_v0,2023.2.2,Win32,84.74576271,,,,,,,,,,,,,,,,361.4603,362.7545,362.7545,364.0366,return,0.2051,,49.609375,,,,,,FBP-OG-17.png,0.4,1.2,3,0.5,0,47,47,2,1,,,,,,,,,,,,,,,,,,,,,,,,,,,,,,,,,,,,,,,,
,,,,,SPR24_079,19,female,2024-04-23_12h29.08.403,jersey_experiment_5_v0,2023.2.2,Win32,84.74576271,,,,,,,,,,,,,,,,364.0368,365.3311,365.3311,366.6015,return,0.202,,99.73958333,,,,,,FBP-RB-91.png,0.45,1.2,45,0.5,0,48,48,44,1,,,,,,,,,,,,,,,,,,,,,,,,,,,,,,,,,,,,,,,,
,,,,,SPR24_079,19,female,2024-04-23_12h29.08.403,jersey_experiment_5_v0,2023.2.2,Win32,84.74576271,,,,,,,,,,,,,,,,366.6016,367.6486,367.6487,369.3664,return,0.3094,,1.171875,,,,,,FBP-YG-91.png,0.35,1.2,26,0.25,0,49,49,25,1,,,,,,,,,,,,,,,,,,,,,,,,,,,,,,,,,,,,,,,,
,,,,,SPR24_079,19,female,2024-04-23_12h29.08.403,jersey_experiment_5_v0,2023.2.2,Win32,84.74576271,,,,,,,,,,,,,,,,369.3666,370.6603,370.6603,371.9545,return,0.2188,,25,,,,,,FBP-OG-19.png,0.37,1.2,12,0.5,0,50,50,11,1,,,,,,,,,,,,,,,,,,,,,,,,,,,,,,,,,,,,,,,,
,,,,,SPR24_079,19,female,2024-04-23_12h29.08.403,jersey_experiment_5_v0,2023.2.2,Win32,84.74576271,,,,,,,,,,,,,,,,371.9547,373.2491,373.2491,374.5193,return,0.3076,,75.390625,,,,,,FBP-RB-81.png,0.45,1.2,40,0.5,0,51,51,39,1,,,,,,,,,,,,,,,,,,,,,,,,,,,,,,,,,,,,,,,,
,,,,,SPR24_079,19,female,2024-04-23_12h29.08.403,jersey_experiment_5_v0,2023.2.2,Win32,84.74576271,,,,,,,,,,,,,,,,374.5194,375.8135,375.8135,378.2019,return,0.2495,,62.5,,,,,,FBP-RB-91.png,0.4,1.2,43,0.5,0,52,52,42,1,,,,,,,,,,,,,,,,,,,,,,,,,,,,,,,,,,,,,,,,
,,,,,SPR24_079,19,female,2024-04-23_12h29.08.403,jersey_experiment_5_v0,2023.2.2,Win32,84.74576271,,,,,,,,,,,,,,,,378.202,379.2488,379.2488,380.9667,return,0.2013,,90.10416667,,,,,,FBP-PT-91.png,0.45,1.2,60,0.25,0,53,53,59,1,,,,,,,,,,,,,,,,,,,,,,,,,,,,,,,,,,,,,,,,
,,,,,SPR24_079,19,female,2024-04-23_12h29.08.403,jersey_experiment_5_v0,2023.2.2,Win32,84.74576271,,,,,,,,,,,,,,,,380.9669,382.2608,382.2608,383.7315,return,0.2061,,25,,,,,,FBP-OG-17.png,0.35,1.2,1,0.5,0,54,54,0,1,,,,,,,,,,,,,,,,,,,,,,,,,,,,,,,,,,,,,,,,
,,,,,SPR24_079,19,female,2024-04-23_12h29.08.403,jersey_experiment_5_v0,2023.2.2,Win32,84.74576271,,,,,,,,,,,,,,,,383.7317,384.7786,384.7787,386.8492,return,0.2293,,66.40625,,,,,,FBP-PT-91.png,0.43,1.2,59,0.25,0,55,55,58,1,,,,,,,,,,,,,,,,,,,,,,,,,,,,,,,,,,,,,,,,
,,,,,SPR24_079,19,female,2024-04-23_12h29.08.403,jersey_experiment_5_v0,2023.2.2,Win32,84.74576271,,,,,,,,,,,,,,,,386.8494,387.8964,387.8964,389.4259,return,0.2405,,88.54166667,,,,,,FBP-YG-71.png,0.45,1.2,20,0.25,0,56,56,19,1,,,,,,,,,,,,,,,,,,,,,,,,,,,,,,,,,,,,,,,,
,,,,,SPR24_079,19,female,2024-04-23_12h29.08.403,jersey_experiment_5_v0,2023.2.2,Win32,84.74576271,,,,,,,,,,,,,,,,389.426,390.72,390.72,393.2848,return,0.2376,,55.59895833,,,,,,FBP-OG-18.png,0.37,1.2,7,0.5,0,57,57,6,1,,,,,,,,,,,,,,,,,,,,,,,,,,,,,,,,,,,,,,,,
,,,,,SPR24_079,19,female,2024-04-23_12h29.08.403,jersey_experiment_5_v0,2023.2.2,Win32,84.74576271,,,,,,,,,,,,,,,,393.2849,394.5788,394.5788,396.4731,return,0.2444,,49.08854167,,,,,,FBP-RB-91.png,0.35,1.2,41,0.5,0,58,58,40,1,,,,,,,,,,,,,,,,,,,,,,,,,,,,,,,,,,,,,,,,
,,,,,SPR24_079,19,female,2024-04-23_12h29.08.403,jersey_experiment_5_v0,2023.2.2,Win32,84.74576271,,,,,,,,,,,,,,,,396.4732,397.7673,397.7673,399.2731,return,0.2111,,75.13020833,,,,,,FBP-OG-19.png,0.4,1.2,13,0.5,0,59,59,12,1,,,,,,,,,,,,,,,,,,,,,,,,,,,,,,,,,,,,,,,,
,,,,,SPR24_079,19,female,2024-04-23_12h29.08.403,jersey_experiment_5_v0,2023.2.2,Win32,84.74576271,,,,,,,,,,,,,,,,,,,,,,,,,,,,,,,,,,,,,,,399.2736,519.2661,,,,,,,,,,,,,,,,,,,,,,,,,,,,,,,,,,,,,,
,,,,,SPR24_079,19,female,2024-04-23_12h29.08.403,jersey_experiment_5_v0,2023.2.2,Win32,84.74576271,,,,,,,,,,,,,,,,,,,,,,,,,,,,,,,,,,,,,,,,,519.2662,522.3952,return,3.1184,,,,,,,,,,,,,,,,,,,,,,,,,,,,,,,,,,
,,,,,SPR24_079,19,female,2024-04-23_12h29.08.403,jersey_experiment_5_v0,2023.2.2,Win32,84.74576271,,,,,,,,,,,,,,,,522.4014,523.7012,523.7012,524.9952,return,0.1801,,74.47916667,,,,,,FBP-PT-18.png,0.43,1.2,54,0.5,,,,,,,,,,,,,0,0,0,53,1,,,,,,,,,,,,,,,,,,,,,,,,,,,,
,,,,,SPR24_079,19,female,2024-04-23_12h29.08.403,jersey_experiment_5_v0,2023.2.2,Win32,84.74576271,,,,,,,,,,,,,,,,524.9955,526.0423,526.0424,527.7012,return,0.1923,,6.380208333,,,,,,FBP-RB-19.png,0.35,1.2,41,0.25,,,,,,,,,,,,,0,1,1,40,1,,,,,,,,,,,,,,,,,,,,,,,,,,,,
,,,,,SPR24_079,19,female,2024-04-23_12h29.08.403,jersey_experiment_5_v0,2023.2.2,Win32,84.74576271,,,,,,,,,,,,,,,,527.7014,528.9962,528.9963,530.5132,return,0.2081,,24.21875,,,,,,FBP-PT-19.png,0.37,1.2,57,0.5,,,,,,,,,,,,,0,2,2,56,1,,,,,,,,,,,,,,,,,,,,,,,,,,,,
,,,,,SPR24_079,19,female,2024-04-23_12h29.08.403,jersey_experiment_5_v0,2023.2.2,Win32,84.74576271,,,,,,,,,,,,,,,,530.5135,531.8076,531.8076,533.3602,return,0.1145,,49.47916667,,,,,,FBP-PT-17.png,0.37,1.2,47,0.5,,,,,,,,,,,,,0,3,3,46,1,,,,,,,,,,,,,,,,,,,,,,,,,,,,
,,,,,SPR24_079,19,female,2024-04-23_12h29.08.403,jersey_experiment_5_v0,2023.2.2,Win32,84.74576271,,,,,,,,,,,,,,,,533.3604,534.4072,534.4073,535.8309,return,0.1792,,65.88541667,,,,,,FBP-OG-91.png,0.43,1.2,14,0.25,,,,,,,,,,,,,0,4,4,13,1,,,,,,,,,,,,,,,,,,,,,,,,,,,,
,,,,,SPR24_079,19,female,2024-04-23_12h29.08.403,jersey_experiment_5_v0,2023.2.2,Win32,84.74576271,,,,,,,,,,,,,,,,535.8311,536.878,536.878,538.9604,return,0.2178,,90.75520833,,,,,,FBP-RB-18.png,0.45,1.2,40,0.25,,,,,,,,,,,,,0,5,5,39,1,,,,,,,,,,,,,,,,,,,,,,,,,,,,
,,,,,SPR24_079,19,female,2024-04-23_12h29.08.403,jersey_experiment_5_v0,2023.2.2,Win32,84.74576271,,,,,,,,,,,,,,,,538.9606,540.2545,540.2545,541.843,return,0.2418,,25,,,,,,FBP-YG-17.png,0.35,1.2,16,0.5,,,,,,,,,,,,,0,6,6,15,1,,,,,,,,,,,,,,,,,,,,,,,,,,,,
,,,,,SPR24_079,19,female,2024-04-23_12h29.08.403,jersey_experiment_5_v0,2023.2.2,Win32,84.74576271,,,,,,,,,,,,,,,,541.8433,543.137,543.137,544.0195,return,0.192,,24.609375,,,,,,FBP-PT-18.png,0.35,1.2,51,0.5,,,,,,,,,,,,,0,7,7,50,1,,,,,,,,,,,,,,,,,,,,,,,,,,,,
,,,,,SPR24_079,19,female,2024-04-23_12h29.08.403,jersey_experiment_5_v0,2023.2.2,Win32,84.74576271,,,,,,,,,,,,,,,,544.0197,545.3136,545.3136,546.7726,return,0.2143,,67.31770833,,,,,,FBP-YG-17.png,0.43,1.2,19,0.5,,,,,,,,,,,,,0,8,8,18,1,,,,,,,,,,,,,,,,,,,,,,,,,,,,
,,,,,SPR24_079,19,female,2024-04-23_12h29.08.403,jersey_experiment_5_v0,2023.2.2,Win32,84.74576271,,,,,,,,,,,,,,,,546.7727,548.0667,548.0667,549.4315,return,0.188,,87.890625,,,,,,FBP-YG-17.png,0.45,1.2,20,0.5,,,,,,,,,,,,,0,9,9,19,1,,,,,,,,,,,,,,,,,,,,,,,,,,,,
,,,,,SPR24_079,19,female,2024-04-23_12h29.08.403,jersey_experiment_5_v0,2023.2.2,Win32,84.74576271,,,,,,,,,,,,,,,,549.4317,550.4785,550.4785,552.6316,return,0.1788,,82.68229167,,,,,,FBP-RB-19.png,0.43,1.2,44,0.25,,,,,,,,,,,,,0,10,10,43,1,,,,,,,,,,,,,,,,,,,,,,,,,,,,
,,,,,SPR24_079,19,female,2024-04-23_12h29.08.403,jersey_experiment_5_v0,2023.2.2,Win32,84.74576271,,,,,,,,,,,,,,,,552.6318,553.6784,553.6784,555.4081,return,0.2415,,29.03645833,,,,,,FBP-RB-17.png,0.37,1.2,32,0.25,,,,,,,,,,,,,0,11,11,31,1,,,,,,,,,,,,,,,,,,,,,,,,,,,,
,,,,,SPR24_079,19,female,2024-04-23_12h29.08.403,jersey_experiment_5_v0,2023.2.2,Win32,84.74576271,,,,,,,,,,,,,,,,555.4082,556.4553,556.4553,559.0317,return,0.2119,,83.984375,,,,,,FBP-OG-91.png,0.45,1.2,15,0.25,,,,,,,,,,,,,0,12,12,14,1,,,,,,,,,,,,,,,,,,,,,,,,,,,,
,,,,,SPR24_079,19,female,2024-04-23_12h29.08.403,jersey_experiment_5_v0,2023.2.2,Win32,84.74576271,,,,,,,,,,,,,,,,559.0319,560.0788,560.0788,561.9613,return,0.2353,,54.42708333,,,,,,FBP-RB-17.png,0.4,1.2,33,0.25,,,,,,,,,,,,,0,13,13,32,1,,,,,,,,,,,,,,,,,,,,,,,,,,,,
,,,,,SPR24_079,19,female,2024-04-23_12h29.08.403,jersey_experiment_5_v0,2023.2.2,Win32,84.74576271,,,,,,,,,,,,,,,,561.9614,563.0083,563.0083,565.4321,return,0.509,,2.34375,,,,,,FBP-OG-71.png,0.35,1.2,1,0.25,,,,,,,,,,,,,0,14,14,0,1,,,,,,,,,,,,,,,,,,,,,,,,,,,,
,,,,,SPR24_079,19,female,2024-04-23_12h29.08.403,jersey_experiment_5_v0,2023.2.2,Win32,84.74576271,,,,,,,,,,,,,,,,565.4323,566.4789,566.4789,567.9143,return,0.1975,,10.80729167,,,,,,FBP-RB-18.png,0.35,1.2,36,0.25,,,,,,,,,,,,,0,15,15,35,1,,,,,,,,,,,,,,,,,,,,,,,,,,,,
,,,,,SPR24_079,19,female,2024-04-23_12h29.08.403,jersey_experiment_5_v0,2023.2.2,Win32,84.74576271,,,,,,,,,,,,,,,,567.9146,569.2087,569.2087,570.938,return,0.1647,,75.13020833,,,,,,FBP-YG-18.png,0.43,1.2,24,0.5,,,,,,,,,,,,,0,16,16,23,1,,,,,,,,,,,,,,,,,,,,,,,,,,,,
,,,,,SPR24_079,19,female,2024-04-23_12h29.08.403,jersey_experiment_5_v0,2023.2.2,Win32,84.74576271,,,,,,,,,,,,,,,,570.9383,572.2322,572.2323,573.8795,return,0.1322,,50,,,,,,FBP-YG-17.png,0.4,1.2,18,0.5,,,,,,,,,,,,,0,17,17,17,1,,,,,,,,,,,,,,,,,,,,,,,,,,,,
,,,,,SPR24_079,19,female,2024-04-23_12h29.08.403,jersey_experiment_5_v0,2023.2.2,Win32,84.74576271,,,,,,,,,,,,,,,,573.8797,574.9263,574.9263,576.5146,return,0.1922,,63.02083333,,,,,,FBP-RB-19.png,0.4,1.2,43,0.25,,,,,,,,,,,,,0,18,18,42,1,,,,,,,,,,,,,,,,,,,,,,,,,,,,
,,,,,SPR24_079,19,female,2024-04-23_12h29.08.403,jersey_experiment_5_v0,2023.2.2,Win32,84.74576271,,,,,,,,,,,,,,,,576.5149,577.5618,577.5619,578.9619,return,0.3014,,91.27604167,,,,,,FBP-RB-19.png,0.45,1.2,45,0.25,,,,,,,,,,,,,0,19,19,44,1,,,,,,,,,,,,,,,,,,,,,,,,,,,,
,,,,,SPR24_079,19,female,2024-04-23_12h29.08.403,jersey_experiment_5_v0,2023.2.2,Win32,84.74576271,,,,,,,,,,,,,,,,578.9621,580.2562,580.2562,581.7619,return,0.1695,,50.390625,,,,,,FBP-PT-19.png,0.4,1.2,58,0.5,,,,,,,,,,,,,0,20,20,57,1,,,,,,,,,,,,,,,,,,,,,,,,,,,,
,,,,,SPR24_079,19,female,2024-04-23_12h29.08.403,jersey_experiment_5_v0,2023.2.2,Win32,84.74576271,,,,,,,,,,,,,,,,581.762,582.8089,582.809,584.4208,return,0.1568,,74.86979167,,,,,,FBP-RB-17.png,0.43,1.2,34,0.25,,,,,,,,,,,,,0,21,21,33,1,,,,,,,,,,,,,,,,,,,,,,,,,,,,
,,,,,SPR24_079,19,female,2024-04-23_12h29.08.403,jersey_experiment_5_v0,2023.2.2,Win32,84.74576271,,,,,,,,,,,,,,,,584.4211,585.4678,585.4679,587.2564,return,0.6927,,83.59375,,,,,,FBP-OG-81.png,0.45,1.2,10,0.25,,,,,,,,,,,,,0,22,22,9,1,,,,,,,,,,,,,,,,,,,,,,,,,,,,
,,,,,SPR24_079,19,female,2024-04-23_12h29.08.403,jersey_experiment_5_v0,2023.2.2,Win32,84.74576271,,,,,,,,,,,,,,,,587.2565,588.5505,588.5505,590.5152,return,0.168,,8.463541667,,,,,,FBP-PT-17.png,0.35,1.2,46,0.5,,,,,,,,,,,,,0,23,23,45,1,,,,,,,,,,,,,,,,,,,,,,,,,,,,
,,,,,SPR24_079,19,female,2024-04-23_12h29.08.403,jersey_experiment_5_v0,2023.2.2,Win32,84.74576271,,,,,,,,,,,,,,,,590.5153,591.8095,591.8095,594.0566,return,0.1651,,78.515625,,,,,,FBP-PT-18.png,0.45,1.2,55,0.5,,,,,,,,,,,,,0,24,24,54,1,,,,,,,,,,,,,,,,,,,,,,,,,,,,
,,,,,SPR24_079,19,female,2024-04-23_12h29.08.403,jersey_experiment_5_v0,2023.2.2,Win32,84.74576271,,,,,,,,,,,,,,,,594.0567,595.3506,595.3506,598.5861,return,0.1648,,82.68229167,,,,,,FBP-PT-17.png,0.45,1.2,50,0.5,,,,,,,,,,,,,0,25,25,49,1,,,,,,,,,,,,,,,,,,,,,,,,,,,,
,,,,,SPR24_079,19,female,2024-04-23_12h29.08.403,jersey_experiment_5_v0,2023.2.2,Win32,84.74576271,,,,,,,,,,,,,,,,598.5862,599.8804,599.8804,600.8802,return,0.1592,,49.73958333,,,,,,FBP-PT-18.png,0.4,1.2,53,0.5,,,,,,,,,,,,,0,26,26,52,1,,,,,,,,,,,,,,,,,,,,,,,,,,,,
,,,,,SPR24_079,19,female,2024-04-23_12h29.08.403,jersey_experiment_5_v0,2023.2.2,Win32,84.74576271,,,,,,,,,,,,,,,,600.8804,601.9275,601.9275,603.7157,return,0.1678,,88.28125,,,,,,FBP-RB-17.png,0.45,1.2,35,0.25,,,,,,,,,,,,,0,27,27,34,1,,,,,,,,,,,,,,,,,,,,,,,,,,,,
,,,,,SPR24_079,19,female,2024-04-23_12h29.08.403,jersey_experiment_5_v0,2023.2.2,Win32,84.74576271,,,,,,,,,,,,,,,,603.7159,604.7626,604.7626,607.1394,return,0.1938,,63.28125,,,,,,FBP-RB-18.png,0.4,1.2,38,0.25,,,,,,,,,,,,,0,28,28,37,1,,,,,,,,,,,,,,,,,,,,,,,,,,,,
,,,,,SPR24_079,19,female,2024-04-23_12h29.08.403,jersey_experiment_5_v0,2023.2.2,Win32,84.74576271,,,,,,,,,,,,,,,,607.1396,608.4336,608.4337,609.8805,return,0.2356,,75.26041667,,,,,,FBP-YG-18.png,0.45,1.2,25,0.5,,,,,,,,,,,,,0,29,29,24,1,,,,,,,,,,,,,,,,,,,,,,,,,,,,
,,,,,SPR24_079,19,female,2024-04-23_12h29.08.403,jersey_experiment_5_v0,2023.2.2,Win32,84.74576271,,,,,,,,,,,,,,,,609.8807,611.1749,611.1749,612.3279,return,0.2263,,32.94270833,,,,,,FBP-YG-19.png,0.37,1.2,27,0.5,,,,,,,,,,,,,0,30,30,26,1,,,,,,,,,,,,,,,,,,,,,,,,,,,,
,,,,,SPR24_079,19,female,2024-04-23_12h29.08.403,jersey_experiment_5_v0,2023.2.2,Win32,84.74576271,,,,,,,,,,,,,,,,612.3281,613.6219,613.6219,615.0453,return,0.1681,,50,,,,,,FBP-YG-19.png,0.4,1.2,28,0.5,,,,,,,,,,,,,0,31,31,27,1,,,,,,,,,,,,,,,,,,,,,,,,,,,,
,,,,,SPR24_079,19,female,2024-04-23_12h29.08.403,jersey_experiment_5_v0,2023.2.2,Win32,84.74576271,,,,,,,,,,,,,,,,615.0455,616.0926,616.0926,617.3514,return,0.1988,,49.86979167,,,,,,FBP-OG-71.png,0.43,1.2,4,0.25,,,,,,,,,,,,,0,32,32,3,1,,,,,,,,,,,,,,,,,,,,,,,,,,,,
,,,,,SPR24_079,19,female,2024-04-23_12h29.08.403,jersey_experiment_5_v0,2023.2.2,Win32,84.74576271,,,,,,,,,,,,,,,,617.3515,618.3985,618.3986,619.9397,return,0.2024,,13.671875,,,,,,FBP-OG-71.png,0.37,1.2,2,0.25,,,,,,,,,,,,,0,33,33,1,1,,,,,,,,,,,,,,,,,,,,,,,,,,,,
,,,,,SPR24_079,19,female,2024-04-23_12h29.08.403,jersey_experiment_5_v0,2023.2.2,Win32,84.74576271,,,,,,,,,,,,,,,,619.9399,621.2339,621.2339,622.7045,return,0.2179,,9.505208333,,,,,,FBP-YG-18.png,0.35,1.2,21,0.5,,,,,,,,,,,,,0,34,34,20,1,,,,,,,,,,,,,,,,,,,,,,,,,,,,
,,,,,SPR24_079,19,female,2024-04-23_12h29.08.403,jersey_experiment_5_v0,2023.2.2,Win32,84.74576271,,,,,,,,,,,,,,,,622.7047,623.9988,623.9988,625.3517,return,0.1283,,50,,,,,,FBP-PT-17.png,0.4,1.2,48,0.5,,,,,,,,,,,,,0,35,35,47,1,,,,,,,,,,,,,,,,,,,,,,,,,,,,
,,,,,SPR24_079,19,female,2024-04-23_12h29.08.403,jersey_experiment_5_v0,2023.2.2,Win32,84.74576271,,,,,,,,,,,,,,,,625.3518,626.3987,626.3987,627.1517,return,0.1384,,50,,,,,,FBP-OG-91.png,0.4,1.2,13,0.25,,,,,,,,,,,,,0,36,36,12,1,,,,,,,,,,,,,,,,,,,,,,,,,,,,
,,,,,SPR24_079,19,female,2024-04-23_12h29.08.403,jersey_experiment_5_v0,2023.2.2,Win32,84.74576271,,,,,,,,,,,,,,,,627.1519,628.446,628.4461,629.6342,return,0.1714,,62.23958333,,,,,,FBP-PT-19.png,0.43,1.2,59,0.5,,,,,,,,,,,,,0,37,37,58,1,,,,,,,,,,,,,,,,,,,,,,,,,,,,
,,,,,SPR24_079,19,female,2024-04-23_12h29.08.403,jersey_experiment_5_v0,2023.2.2,Win32,84.74576271,,,,,,,,,,,,,,,,629.6345,630.9286,630.9286,632.0226,return,0.1557,,25,,,,,,FBP-PT-19.png,0.35,1.2,56,0.5,,,,,,,,,,,,,0,38,38,55,1,,,,,,,,,,,,,,,,,,,,,,,,,,,,
,,,,,SPR24_079,19,female,2024-04-23_12h29.08.403,jersey_experiment_5_v0,2023.2.2,Win32,84.74576271,,,,,,,,,,,,,,,,632.0228,633.3169,633.3169,634.4814,return,0.1489,,74.86979167,,,,,,FBP-YG-18.png,0.4,1.2,23,0.5,,,,,,,,,,,,,0,39,39,22,1,,,,,,,,,,,,,,,,,,,,,,,,,,,,
,,,,,SPR24_079,19,female,2024-04-23_12h29.08.403,jersey_experiment_5_v0,2023.2.2,Win32,84.74576271,,,,,,,,,,,,,,,,634.4817,635.5286,635.5287,637.0346,return,0.2033,,88.54166667,,,,,,FBP-OG-81.png,0.43,1.2,9,0.25,,,,,,,,,,,,,0,40,40,8,1,,,,,,,,,,,,,,,,,,,,,,,,,,,,
,,,,,SPR24_079,19,female,2024-04-23_12h29.08.403,jersey_experiment_5_v0,2023.2.2,Win32,84.74576271,,,,,,,,,,,,,,,,637.0348,638.3287,638.3287,639.5521,return,0.1241,,96.61458333,,,,,,FBP-PT-19.png,0.45,1.2,60,0.5,,,,,,,,,,,,,0,41,41,59,1,,,,,,,,,,,,,,,,,,,,,,,,,,,,
,,,,,SPR24_079,19,female,2024-04-23_12h29.08.403,jersey_experiment_5_v0,2023.2.2,Win32,84.74576271,,,,,,,,,,,,,,,,639.5523,640.8466,640.8467,642.7288,return,0.1649,,34.765625,,,,,,FBP-PT-18.png,0.37,1.2,52,0.5,,,,,,,,,,,,,0,42,42,51,1,,,,,,,,,,,,,,,,,,,,,,,,,,,,
,,,,,SPR24_079,19,female,2024-04-23_12h29.08.403,jersey_experiment_5_v0,2023.2.2,Win32,84.74576271,,,,,,,,,,,,,,,,642.729,643.7759,643.7759,644.9171,return,0.1333,,50,,,,,,FBP-OG-71.png,0.4,1.2,3,0.25,,,,,,,,,,,,,0,43,43,2,1,,,,,,,,,,,,,,,,,,,,,,,,,,,,
,,,,,SPR24_079,19,female,2024-04-23_12h29.08.403,jersey_experiment_5_v0,2023.2.2,Win32,84.74576271,,,,,,,,,,,,,,,,644.9174,646.2114,646.2114,647.129,return,0.1317,,69.140625,,,,,,FBP-PT-17.png,0.43,1.2,49,0.5,,,,,,,,,,,,,0,44,44,48,1,,,,,,,,,,,,,,,,,,,,,,,,,,,,
,,,,,SPR24_079,19,female,2024-04-23_12h29.08.403,jersey_experiment_5_v0,2023.2.2,Win32,84.74576271,,,,,,,,,,,,,,,,647.1292,648.176,648.176,650.7998,return,0.1618,,15.234375,,,,,,FBP-RB-17.png,0.35,1.2,31,0.25,,,,,,,,,,,,,0,45,45,30,1,,,,,,,,,,,,,,,,,,,,,,,,,,,,
,,,,,SPR24_079,19,female,2024-04-23_12h29.08.403,jersey_experiment_5_v0,2023.2.2,Win32,84.74576271,,,,,,,,,,,,,,,,650.7999,651.8468,651.8468,653.988,return,0.1461,,20.703125,,,,,,FBP-RB-19.png,0.37,1.2,42,0.25,,,,,,,,,,,,,0,46,46,41,1,,,,,,,,,,,,,,,,,,,,,,,,,,,,
,,,,,SPR24_079,19,female,2024-04-23_12h29.08.403,jersey_experiment_5_v0,2023.2.2,Win32,84.74576271,,,,,,,,,,,,,,,,653.9882,655.035,655.035,656.3529,return,0.1459,,49.73958333,,,,,,FBP-RB-18.png,0.43,1.2,39,0.25,,,,,,,,,,,,,0,47,47,38,1,,,,,,,,,,,,,,,,,,,,,,,,,,,,
,,,,,SPR24_079,19,female,2024-04-23_12h29.08.403,jersey_experiment_5_v0,2023.2.2,Win32,84.74576271,,,,,,,,,,,,,,,,656.353,657.647,657.647,659.0117,return,0.2154,,38.41145833,,,,,,FBP-YG-18.png,0.37,1.2,22,0.5,,,,,,,,,,,,,0,48,48,21,1,,,,,,,,,,,,,,,,,,,,,,,,,,,,
,,,,,SPR24_079,19,female,2024-04-23_12h29.08.403,jersey_experiment_5_v0,2023.2.2,Win32,84.74576271,,,,,,,,,,,,,,,,659.012,660.0588,660.0588,661.7177,return,0.1185,,13.80208333,,,,,,FBP-OG-81.png,0.35,1.2,6,0.25,,,,,,,,,,,,,0,49,49,5,1,,,,,,,,,,,,,,,,,,,,,,,,,,,,
,,,,,SPR24_079,19,female,2024-04-23_12h29.08.403,jersey_experiment_5_v0,2023.2.2,Win32,84.74576271,,,,,,,,,,,,,,,,661.7179,662.7646,662.7646,664.3412,return,0.1309,,21.35416667,,,,,,FBP-OG-91.png,0.37,1.2,12,0.25,,,,,,,,,,,,,0,50,50,11,1,,,,,,,,,,,,,,,,,,,,,,,,,,,,
,,,,,SPR24_079,19,female,2024-04-23_12h29.08.403,jersey_experiment_5_v0,2023.2.2,Win32,84.74576271,,,,,,,,,,,,,,,,664.3413,665.3885,665.3885,666.8826,return,0.1711,,1.692708333,,,,,,FBP-RB-18.png,0.37,1.2,37,0.25,,,,,,,,,,,,,0,51,51,36,1,,,,,,,,,,,,,,,,,,,,,,,,,,,,
,,,,,SPR24_079,19,female,2024-04-23_12h29.08.403,jersey_experiment_5_v0,2023.2.2,Win32,84.74576271,,,,,,,,,,,,,,,,666.8828,667.9299,667.93,669.177,return,0.0948,,11.328125,,,,,,FBP-OG-81.png,0.37,1.2,7,0.25,,,,,,,,,,,,,0,52,52,6,1,,,,,,,,,,,,,,,,,,,,,,,,,,,,
,,,,,SPR24_079,19,female,2024-04-23_12h29.08.403,jersey_experiment_5_v0,2023.2.2,Win32,84.74576271,,,,,,,,,,,,,,,,669.1772,670.471,670.471,671.6242,return,0.1088,,24.86979167,,,,,,FBP-YG-19.png,0.35,1.2,26,0.5,,,,,,,,,,,,,0,53,53,25,1,,,,,,,,,,,,,,,,,,,,,,,,,,,,
,,,,,SPR24_079,19,female,2024-04-23_12h29.08.403,jersey_experiment_5_v0,2023.2.2,Win32,84.74576271,,,,,,,,,,,,,,,,671.6244,672.918,672.9181,674.6475,return,0.152,,74.86979167,,,,,,FBP-YG-19.png,0.45,1.2,30,0.5,,,,,,,,,,,,,0,54,54,29,1,,,,,,,,,,,,,,,,,,,,,,,,,,,,
,,,,,SPR24_079,19,female,2024-04-23_12h29.08.403,jersey_experiment_5_v0,2023.2.2,Win32,84.74576271,,,,,,,,,,,,,,,,674.6477,675.6948,675.6948,677.8124,return,0.145,,5.859375,,,,,,FBP-OG-91.png,0.35,1.2,11,0.25,,,,,,,,,,,,,0,55,55,10,1,,,,,,,,,,,,,,,,,,,,,,,,,,,,
,,,,,SPR24_079,19,female,2024-04-23_12h29.08.403,jersey_experiment_5_v0,2023.2.2,Win32,84.74576271,,,,,,,,,,,,,,,,677.8126,678.8595,678.8596,680.0006,return,0.1124,,25,,,,,,FBP-OG-81.png,0.4,1.2,8,0.25,,,,,,,,,,,,,0,56,56,7,1,,,,,,,,,,,,,,,,,,,,,,,,,,,,
,,,,,SPR24_079,19,female,2024-04-23_12h29.08.403,jersey_experiment_5_v0,2023.2.2,Win32,84.74576271,,,,,,,,,,,,,,,,680.0009,681.2947,681.2948,682.389,return,0.1199,,50.13020833,,,,,,FBP-YG-19.png,0.43,1.2,29,0.5,,,,,,,,,,,,,0,57,57,28,1,,,,,,,,,,,,,,,,,,,,,,,,,,,,
,,,,,SPR24_079,19,female,2024-04-23_12h29.08.403,jersey_experiment_5_v0,2023.2.2,Win32,84.74576271,,,,,,,,,,,,,,,,682.3892,683.6832,683.6832,684.7214,return,0.1176,,25.13020833,,,,,,FBP-YG-17.png,0.37,1.2,17,0.5,,,,,,,,,,,,,0,58,58,16,1,,,,,,,,,,,,,,,,,,,,,,,,,,,,
,,,,,SPR24_079,19,female,2024-04-23_12h29.08.403,jersey_experiment_5_v0,2023.2.2,Win32,84.74576271,,,,,,,,,,,,,,,,684.7215,685.7655,685.7655,687.3805,return,0.3168,,66.27604167,,,,,,FBP-OG-71.png,0.45,1.2,5,0.25,,,,,,,,,,,,,0,59,59,4,1,,,,,,,,,,,,,,,,,,,,,,,,,,,,
,,,,,SPR24_079,19,female,2024-04-23_12h29.08.403,jersey_experiment_5_v0,2023.2.2,Win32,84.74576271,,,,,,,,,,,,,,,,687.3824,688.4287,688.4287,689.8716,return,0.1957,,72.265625,,,,,,FBP-RB-91.png,0.45,1.2,45,0.25,,,,,,,,,,,,,,,,,,0,0,0,44,1,,,,,,,,,,,,,,,,,,,,,,,
,,,,,SPR24_079,19,female,2024-04-23_12h29.08.403,jersey_experiment_5_v0,2023.2.2,Win32,84.74576271,,,,,,,,,,,,,,,,689.8719,690.9187,690.9188,692.8011,return,0.1722,,15.234375,,,,,,FBP-RB-91.png,0.35,1.2,41,0.25,,,,,,,,,,,,,,,,,,0,1,1,40,1,,,,,,,,,,,,,,,,,,,,,,,
,,,,,SPR24_079,19,female,2024-04-23_12h29.08.403,jersey_experiment_5_v0,2023.2.2,Win32,84.74576271,,,,,,,,,,,,,,,,692.8013,694.0952,694.0953,694.8398,return,0.1652,,5.729166667,,,,,,FBP-YG-91.png,0.35,1.2,26,0.5,,,,,,,,,,,,,,,,,,0,2,2,25,1,,,,,,,,,,,,,,,,,,,,,,,
,,,,,SPR24_079,19,female,2024-04-23_12h29.08.403,jersey_experiment_5_v0,2023.2.2,Win32,84.74576271,,,,,,,,,,,,,,,,694.84,695.8877,695.8877,696.9306,return,0.1218,,50,,,,,,FBP-OG-17.png,0.45,1.2,5,0.25,,,,,,,,,,,,,,,,,,0,3,3,4,1,,,,,,,,,,,,,,,,,,,,,,,
,,,,,SPR24_079,19,female,2024-04-23_12h29.08.403,jersey_experiment_5_v0,2023.2.2,Win32,84.74576271,,,,,,,,,,,,,,,,696.9309,698.2277,698.2277,699.3543,return,0.1184,,69.01041667,,,,,,FBP-YG-71.png,0.45,1.2,20,0.5,,,,,,,,,,,,,,,,,,0,4,4,19,1,,,,,,,,,,,,,,,,,,,,,,,
,,,,,SPR24_079,19,female,2024-04-23_12h29.08.403,jersey_experiment_5_v0,2023.2.2,Win32,84.74576271,,,,,,,,,,,,,,,,699.3545,700.4014,700.4015,701.472,return,0.1246,,24.73958333,,,,,,FBP-OG-18.png,0.35,1.2,6,0.25,,,,,,,,,,,,,,,,,,0,5,5,5,1,,,,,,,,,,,,,,,,,,,,,,,
,,,,,SPR24_079,19,female,2024-04-23_12h29.08.403,jersey_experiment_5_v0,2023.2.2,Win32,84.74576271,,,,,,,,,,,,,,,,701.4722,702.7691,702.7692,703.9897,return,0.142,,75,,,,,,FBP-PT-71.png,0.4,1.2,48,0.5,,,,,,,,,,,,,,,,,,0,6,6,47,1,,,,,,,,,,,,,,,,,,,,,,,
,,,,,SPR24_079,19,female,2024-04-23_12h29.08.403,jersey_experiment_5_v0,2023.2.2,Win32,84.74576271,,,,,,,,,,,,,,,,703.9899,705.0368,705.0368,706.7781,return,0.2224,,36.19791667,,,,,,FBP-OG-17.png,0.4,1.2,3,0.25,,,,,,,,,,,,,,,,,,0,7,7,2,1,,,,,,,,,,,,,,,,,,,,,,,
,,,,,SPR24_079,19,female,2024-04-23_12h29.08.403,jersey_experiment_5_v0,2023.2.2,Win32,84.74576271,,,,,,,,,,,,,,,,706.7783,708.0765,708.0766,709.2872,return,0.1885,,25,,,,,,FBP-PT-91.png,0.35,1.2,56,0.5,,,,,,,,,,,,,,,,,,0,8,8,55,1,,,,,,,,,,,,,,,,,,,,,,,
,,,,,SPR24_079,19,female,2024-04-23_12h29.08.403,jersey_experiment_5_v0,2023.2.2,Win32,84.74576271,,,,,,,,,,,,,,,,709.2874,710.595,710.595,711.6067,return,0.1415,,75,,,,,,FBP-PT-71.png,0.43,1.2,49,0.5,,,,,,,,,,,,,,,,,,0,9,9,48,1,,,,,,,,,,,,,,,,,,,,,,,
,,,,,SPR24_079,19,female,2024-04-23_12h29.08.403,jersey_experiment_5_v0,2023.2.2,Win32,84.74576271,,,,,,,,,,,,,,,,711.6068,712.9008,712.9008,713.8489,return,0.1885,,75,,,,,,FBP-PT-91.png,0.43,1.2,59,0.5,,,,,,,,,,,,,,,,,,0,10,10,58,1,,,,,,,,,,,,,,,,,,,,,,,
,,,,,SPR24_079,19,female,2024-04-23_12h29.08.403,jersey_experiment_5_v0,2023.2.2,Win32,84.74576271,,,,,,,,,,,,,,,,713.8492,715.1432,715.1432,716.1238,return,0.2017,,83.33333333,,,,,,FBP-PT-81.png,0.43,1.2,54,0.5,,,,,,,,,,,,,,,,,,0,11,11,53,1,,,,,,,,,,,,,,,,,,,,,,,
,,,,,SPR24_079,19,female,2024-04-23_12h29.08.403,jersey_experiment_5_v0,2023.2.2,Win32,84.74576271,,,,,,,,,,,,,,,,716.124,717.4185,717.4185,718.5196,return,0.1652,,27.99479167,,,,,,FBP-PT-71.png,0.37,1.2,47,0.5,,,,,,,,,,,,,,,,,,0,12,12,46,1,,,,,,,,,,,,,,,,,,,,,,,
,,,,,SPR24_079,19,female,2024-04-23_12h29.08.403,jersey_experiment_5_v0,2023.2.2,Win32,84.74576271,,,,,,,,,,,,,,,,718.5199,719.8138,719.8138,720.9668,return,0.2605,,49.34895833,,,,,,FBP-YG-91.png,0.4,1.2,28,0.5,,,,,,,,,,,,,,,,,,0,13,13,27,1,,,,,,,,,,,,,,,,,,,,,,,
,,,,,SPR24_079,19,female,2024-04-23_12h29.08.403,jersey_experiment_5_v0,2023.2.2,Win32,84.74576271,,,,,,,,,,,,,,,,720.967,722.261,722.261,723.4964,return,0.1879,,24.86979167,,,,,,FBP-YG-81.png,0.37,1.2,22,0.5,,,,,,,,,,,,,,,,,,0,14,14,21,1,,,,,,,,,,,,,,,,,,,,,,,
,,,,,SPR24_079,19,female,2024-04-23_12h29.08.403,jersey_experiment_5_v0,2023.2.2,Win32,84.74576271,,,,,,,,,,,,,,,,723.4966,724.5434,724.5434,726.1198,return,0.1286,,60.9375,,,,,,FBP-OG-19.png,0.45,1.2,15,0.25,,,,,,,,,,,,,,,,,,0,15,15,14,1,,,,,,,,,,,,,,,,,,,,,,,
,,,,,SPR24_079,19,female,2024-04-23_12h29.08.403,jersey_experiment_5_v0,2023.2.2,Win32,84.74576271,,,,,,,,,,,,,,,,726.12,727.167,727.1671,728.2768,return,0.1655,,68.359375,,,,,,FBP-RB-71.png,0.43,1.2,34,0.25,,,,,,,,,,,,,,,,,,0,16,16,33,1,,,,,,,,,,,,,,,,,,,,,,,
,,,,,SPR24_079,19,female,2024-04-23_12h29.08.403,jersey_experiment_5_v0,2023.2.2,Win32,84.74576271,,,,,,,,,,,,,,,,728.277,729.5832,729.5832,730.6657,return,0.1648,,57.94270833,,,,,,FBP-PT-81.png,0.4,1.2,53,0.5,,,,,,,,,,,,,,,,,,0,17,17,52,1,,,,,,,,,,,,,,,,,,,,,,,
,,,,,SPR24_079,19,female,2024-04-23_12h29.08.403,jersey_experiment_5_v0,2023.2.2,Win32,84.74576271,,,,,,,,,,,,,,,,730.6658,731.7082,731.7083,732.8496,return,0.0879,,50.52083333,,,,,,FBP-RB-91.png,0.4,1.2,43,0.25,,,,,,,,,,,,,,,,,,0,18,18,42,1,,,,,,,,,,,,,,,,,,,,,,,
,,,,,SPR24_079,19,female,2024-04-23_12h29.08.403,jersey_experiment_5_v0,2023.2.2,Win32,84.74576271,,,,,,,,,,,,,,,,732.8498,733.8966,733.8966,735.1085,return,0.132,,75.52083333,,,,,,FBP-OG-17.png,0.43,1.2,4,0.25,,,,,,,,,,,,,,,,,,0,19,19,3,1,,,,,,,,,,,,,,,,,,,,,,,
,,,,,SPR24_079,19,female,2024-04-23_12h29.08.403,jersey_experiment_5_v0,2023.2.2,Win32,84.74576271,,,,,,,,,,,,,,,,735.1086,736.1556,736.1556,737.3718,return,0.1779,,25.78125,,,,,,FBP-OG-17.png,0.37,1.2,2,0.25,,,,,,,,,,,,,,,,,,0,20,20,1,1,,,,,,,,,,,,,,,,,,,,,,,
,,,,,SPR24_079,19,female,2024-04-23_12h29.08.403,jersey_experiment_5_v0,2023.2.2,Win32,84.74576271,,,,,,,,,,,,,,,,737.3719,738.4145,738.4145,739.4969,return,0.0843,,25.13020833,,,,,,FBP-OG-17.png,0.35,1.2,1,0.25,,,,,,,,,,,,,,,,,,0,21,21,0,1,,,,,,,,,,,,,,,,,,,,,,,
,,,,,SPR24_079,19,female,2024-04-23_12h29.08.403,jersey_experiment_5_v0,2023.2.2,Win32,84.74576271,,,,,,,,,,,,,,,,739.4971,740.791,740.791,742.1826,return,0.0813,,75.390625,,,,,,FBP-PT-71.png,0.45,1.2,50,0.5,,,,,,,,,,,,,,,,,,0,22,22,49,1,,,,,,,,,,,,,,,,,,,,,,,
,,,,,SPR24_079,19,female,2024-04-23_12h29.08.403,jersey_experiment_5_v0,2023.2.2,Win32,84.74576271,,,,,,,,,,,,,,,,742.1828,743.4851,743.4851,744.8029,return,0.1101,,91.66666667,,,,,,FBP-YG-91.png,0.45,1.2,30,0.5,,,,,,,,,,,,,,,,,,0,23,23,29,1,,,,,,,,,,,,,,,,,,,,,,,
,,,,,SPR24_079,19,female,2024-04-23_12h29.08.403,jersey_experiment_5_v0,2023.2.2,Win32,84.74576271,,,,,,,,,,,,,,,,744.8031,746.1013,746.1013,747.1559,return,0.1088,,50,,,,,,FBP-PT-91.png,0.4,1.2,58,0.5,,,,,,,,,,,,,,,,,,0,24,24,57,1,,,,,,,,,,,,,,,,,,,,,,,
,,,,,SPR24_079,19,female,2024-04-23_12h29.08.403,jersey_experiment_5_v0,2023.2.2,Win32,84.74576271,,,,,,,,,,,,,,,,747.156,748.4502,748.4502,749.3325,return,0.0967,,74.08854167,,,,,,FBP-YG-91.png,0.43,1.2,29,0.5,,,,,,,,,,,,,,,,,,0,25,25,28,1,,,,,,,,,,,,,,,,,,,,,,,
,,,,,SPR24_079,19,female,2024-04-23_12h29.08.403,jersey_experiment_5_v0,2023.2.2,Win32,84.74576271,,,,,,,,,,,,,,,,749.3326,750.6295,750.6295,751.4738,return,0.0992,,75.390625,,,,,,FBP-YG-71.png,0.43,1.2,19,0.5,,,,,,,,,,,,,,,,,,0,26,26,18,1,,,,,,,,,,,,,,,,,,,,,,,
,,,,,SPR24_079,19,female,2024-04-23_12h29.08.403,jersey_experiment_5_v0,2023.2.2,Win32,84.74576271,,,,,,,,,,,,,,,,751.4741,752.5209,752.5209,754.1209,return,0.1647,,12.5,,,,,,FBP-RB-81.png,0.35,1.2,36,0.25,,,,,,,,,,,,,,,,,,0,27,27,35,1,,,,,,,,,,,,,,,,,,,,,,,
,,,,,SPR24_079,19,female,2024-04-23_12h29.08.403,jersey_experiment_5_v0,2023.2.2,Win32,84.74576271,,,,,,,,,,,,,,,,754.1211,755.168,755.168,756.6152,return,0.1057,,24.73958333,,,,,,FBP-OG-19.png,0.37,1.2,12,0.25,,,,,,,,,,,,,,,,,,0,28,28,11,1,,,,,,,,,,,,,,,,,,,,,,,
,,,,,SPR24_079,19,female,2024-04-23_12h29.08.403,jersey_experiment_5_v0,2023.2.2,Win32,84.74576271,,,,,,,,,,,,,,,,756.6153,757.9092,757.9092,759.8431,return,0.1415,,6.510416667,,,,,,FBP-PT-71.png,0.35,1.2,46,0.5,,,,,,,,,,,,,,,,,,0,29,29,45,1,,,,,,,,,,,,,,,,,,,,,,,
,,,,,SPR24_079,19,female,2024-04-23_12h29.08.403,jersey_experiment_5_v0,2023.2.2,Win32,84.74576271,,,,,,,,,,,,,,,,759.8433,761.1447,761.1447,762.7566,return,0.132,,24.47916667,,,,,,FBP-YG-71.png,0.37,1.2,17,0.5,,,,,,,,,,,,,,,,,,0,30,30,16,1,,,,,,,,,,,,,,,,,,,,,,,
,,,,,SPR24_079,19,female,2024-04-23_12h29.08.403,jersey_experiment_5_v0,2023.2.2,Win32,84.74576271,,,,,,,,,,,,,,,,762.7567,763.8037,763.8037,765.0742,return,0.2295,,11.19791667,,,,,,FBP-RB-71.png,0.35,1.2,31,0.25,,,,,,,,,,,,,,,,,,0,31,31,30,1,,,,,,,,,,,,,,,,,,,,,,,
,,,,,SPR24_079,19,female,2024-04-23_12h29.08.403,jersey_experiment_5_v0,2023.2.2,Win32,84.74576271,,,,,,,,,,,,,,,,765.0743,766.3685,766.3685,768.5919,return,0.1599,,74.34895833,,,,,,FBP-PT-91.png,0.45,1.2,60,0.5,,,,,,,,,,,,,,,,,,0,32,32,59,1,,,,,,,,,,,,,,,,,,,,,,,
,,,,,SPR24_079,19,female,2024-04-23_12h29.08.403,jersey_experiment_5_v0,2023.2.2,Win32,84.74576271,,,,,,,,,,,,,,,,768.5921,769.8905,769.8905,770.8789,return,0.1075,,49.73958333,,,,,,FBP-PT-91.png,0.37,1.2,57,0.5,,,,,,,,,,,,,,,,,,0,33,33,56,1,,,,,,,,,,,,,,,,,,,,,,,
,,,,,SPR24_079,19,female,2024-04-23_12h29.08.403,jersey_experiment_5_v0,2023.2.2,Win32,84.74576271,,,,,,,,,,,,,,,,770.8791,771.9216,771.9216,773.313,return,0.1412,,74.73958333,,,,,,FBP-RB-81.png,0.43,1.2,39,0.25,,,,,,,,,,,,,,,,,,0,34,34,38,1,,,,,,,,,,,,,,,,,,,,,,,
,,,,,SPR24_079,19,female,2024-04-23_12h29.08.403,jersey_experiment_5_v0,2023.2.2,Win32,84.74576271,,,,,,,,,,,,,,,,773.3132,774.3568,774.3568,775.7805,return,0.1436,,89.453125,,,,,,FBP-OG-18.png,0.45,1.2,10,0.25,,,,,,,,,,,,,,,,,,0,35,35,9,1,,,,,,,,,,,,,,,,,,,,,,,
,,,,,SPR24_079,19,female,2024-04-23_12h29.08.403,jersey_experiment_5_v0,2023.2.2,Win32,84.74576271,,,,,,,,,,,,,,,,775.7807,776.8275,776.8276,778.1924,return,0.159,,36.45833333,,,,,,FBP-OG-18.png,0.37,1.2,7,0.25,,,,,,,,,,,,,,,,,,0,36,36,6,1,,,,,,,,,,,,,,,,,,,,,,,
,,,,,SPR24_079,19,female,2024-04-23_12h29.08.403,jersey_experiment_5_v0,2023.2.2,Win32,84.74576271,,,,,,,,,,,,,,,,778.1925,779.4866,779.4867,781.1454,return,0.0714,,43.61979167,,,,,,FBP-PT-81.png,0.35,1.2,51,0.5,,,,,,,,,,,,,,,,,,0,37,37,50,1,,,,,,,,,,,,,,,,,,,,,,,
,,,,,SPR24_079,19,female,2024-04-23_12h29.08.403,jersey_experiment_5_v0,2023.2.2,Win32,84.74576271,,,,,,,,,,,,,,,,781.1456,782.1964,782.1964,783.6789,return,0.1175,,50.52083333,,,,,,FBP-RB-91.png,0.37,1.2,42,0.25,,,,,,,,,,,,,,,,,,0,38,38,41,1,,,,,,,,,,,,,,,,,,,,,,,
,,,,,SPR24_079,19,female,2024-04-23_12h29.08.403,jersey_experiment_5_v0,2023.2.2,Win32,84.74576271,,,,,,,,,,,,,,,,783.679,784.722,784.7221,786.1456,return,0.1006,,58.203125,,,,,,FBP-RB-71.png,0.4,1.2,33,0.25,,,,,,,,,,,,,,,,,,0,39,39,32,1,,,,,,,,,,,,,,,,,,,,,,,
,,,,,SPR24_079,19,female,2024-04-23_12h29.08.403,jersey_experiment_5_v0,2023.2.2,Win32,84.74576271,,,,,,,,,,,,,,,,786.1457,787.1926,787.1927,788.7927,return,0.0943,,62.890625,,,,,,FBP-OG-19.png,0.4,1.2,13,0.25,,,,,,,,,,,,,,,,,,0,40,40,12,1,,,,,,,,,,,,,,,,,,,,,,,
,,,,,SPR24_079,19,female,2024-04-23_12h29.08.403,jersey_experiment_5_v0,2023.2.2,Win32,84.74576271,,,,,,,,,,,,,,,,788.7929,790.0868,790.0868,791.8634,return,0.2155,,73.56770833,,,,,,FBP-PT-81.png,0.45,1.2,55,0.5,,,,,,,,,,,,,,,,,,0,41,41,54,1,,,,,,,,,,,,,,,,,,,,,,,
,,,,,SPR24_079,19,female,2024-04-23_12h29.08.403,jersey_experiment_5_v0,2023.2.2,Win32,84.74576271,,,,,,,,,,,,,,,,791.8636,792.9104,792.9104,794.5223,return,0.1413,,79.296875,,,,,,FBP-RB-91.png,0.43,1.2,44,0.25,,,,,,,,,,,,,,,,,,0,42,42,43,1,,,,,,,,,,,,,,,,,,,,,,,
,,,,,SPR24_079,19,female,2024-04-23_12h29.08.403,jersey_experiment_5_v0,2023.2.2,Win32,84.74576271,,,,,,,,,,,,,,,,794.5224,795.8165,795.8165,797.4284,return,0.1569,,77.86458333,,,,,,FBP-YG-81.png,0.4,1.2,23,0.5,,,,,,,,,,,,,,,,,,0,43,43,22,1,,,,,,,,,,,,,,,,,,,,,,,
,,,,,SPR24_079,19,female,2024-04-23_12h29.08.403,jersey_experiment_5_v0,2023.2.2,Win32,84.74576271,,,,,,,,,,,,,,,,797.4286,798.7224,798.7225,799.9461,return,0.1184,,87.5,,,,,,FBP-YG-81.png,0.43,1.2,24,0.5,,,,,,,,,,,,,,,,,,0,44,44,23,1,,,,,,,,,,,,,,,,,,,,,,,
,,,,,SPR24_079,19,female,2024-04-23_12h29.08.403,jersey_experiment_5_v0,2023.2.2,Win32,84.74576271,,,,,,,,,,,,,,,,799.9463,801.2402,801.2402,802.4637,return,0.1012,,36.45833333,,,,,,FBP-YG-71.png,0.35,1.2,16,0.5,,,,,,,,,,,,,,,,,,0,45,45,15,1,,,,,,,,,,,,,,,,,,,,,,,
,,,,,SPR24_079,19,female,2024-04-23_12h29.08.403,jersey_experiment_5_v0,2023.2.2,Win32,84.74576271,,,,,,,,,,,,,,,,802.464,803.5151,803.5152,804.9698,return,0.1048,,87.36979167,,,,,,FBP-RB-81.png,0.45,1.2,40,0.25,,,,,,,,,,,,,,,,,,0,46,46,39,1,,,,,,,,,,,,,,,,,,,,,,,
,,,,,SPR24_079,19,female,2024-04-23_12h29.08.403,jersey_experiment_5_v0,2023.2.2,Win32,84.74576271,,,,,,,,,,,,,,,,804.97,806.2639,806.2639,807.2051,return,0.1076,,91.14583333,,,,,,FBP-YG-81.png,0.45,1.2,25,0.5,,,,,,,,,,,,,,,,,,0,47,47,24,1,,,,,,,,,,,,,,,,,,,,,,,
,,,,,SPR24_079,19,female,2024-04-23_12h29.08.403,jersey_experiment_5_v0,2023.2.2,Win32,84.74576271,,,,,,,,,,,,,,,,807.2052,808.2522,808.2523,809.6993,return,0.1332,,50.52083333,,,,,,FBP-RB-81.png,0.37,1.2,37,0.25,,,,,,,,,,,,,,,,,,0,48,48,36,1,,,,,,,,,,,,,,,,,,,,,,,
,,,,,SPR24_079,19,female,2024-04-23_12h29.08.403,jersey_experiment_5_v0,2023.2.2,Win32,84.74576271,,,,,,,,,,,,,,,,809.6996,810.7463,810.7464,811.9936,return,0.0848,,63.15104167,,,,,,FBP-OG-18.png,0.4,1.2,8,0.25,,,,,,,,,,,,,,,,,,0,49,49,7,1,,,,,,,,,,,,,,,,,,,,,,,
,,,,,SPR24_079,19,female,2024-04-23_12h29.08.403,jersey_experiment_5_v0,2023.2.2,Win32,84.74576271,,,,,,,,,,,,,,,,811.9938,813.2878,813.2878,814.7231,return,0.1111,,50,,,,,,FBP-YG-91.png,0.37,1.2,27,0.5,,,,,,,,,,,,,,,,,,0,50,50,26,1,,,,,,,,,,,,,,,,,,,,,,,
,,,,,SPR24_079,19,female,2024-04-23_12h29.08.403,jersey_experiment_5_v0,2023.2.2,Win32,84.74576271,,,,,,,,,,,,,,,,814.7232,815.7701,815.7702,817.029,return,0.1326,,34.89583333,,,,,,FBP-OG-19.png,0.35,1.2,11,0.25,,,,,,,,,,,,,,,,,,0,51,51,10,1,,,,,,,,,,,,,,,,,,,,,,,
,,,,,SPR24_079,19,female,2024-04-23_12h29.08.403,jersey_experiment_5_v0,2023.2.2,Win32,84.74576271,,,,,,,,,,,,,,,,817.0292,818.3231,818.3232,819.4217,return,0.0943,,28.38541667,,,,,,FBP-YG-81.png,0.35,1.2,21,0.5,,,,,,,,,,,,,,,,,,0,52,52,20,1,,,,,,,,,,,,,,,,,,,,,,,
,,,,,SPR24_079,19,female,2024-04-23_12h29.08.403,jersey_experiment_5_v0,2023.2.2,Win32,84.74576271,,,,,,,,,,,,,,,,819.4219,820.4643,820.4643,821.7939,return,0.1339,,49.34895833,,,,,,FBP-OG-19.png,0.43,1.2,14,0.25,,,,,,,,,,,,,,,,,,0,53,53,13,1,,,,,,,,,,,,,,,,,,,,,,,
,,,,,SPR24_079,19,female,2024-04-23_12h29.08.403,jersey_experiment_5_v0,2023.2.2,Win32,84.74576271,,,,,,,,,,,,,,,,821.794,822.841,822.841,829.5268,return,0.2225,,37.23958333,,,,,,FBP-RB-71.png,0.37,1.2,32,0.25,,,,,,,,,,,,,,,,,,0,54,54,31,1,,,,,,,,,,,,,,,,,,,,,,,
,,,,,SPR24_079,19,female,2024-04-23_12h29.08.403,jersey_experiment_5_v0,2023.2.2,Win32,84.74576271,,,,,,,,,,,,,,,,829.527,830.8336,830.8336,831.9708,return,0.1225,,61.84895833,,,,,,FBP-YG-71.png,0.4,1.2,18,0.5,,,,,,,,,,,,,,,,,,0,55,55,17,1,,,,,,,,,,,,,,,,,,,,,,,
,,,,,SPR24_079,19,female,2024-04-23_12h29.08.403,jersey_experiment_5_v0,2023.2.2,Win32,84.74576271,,,,,,,,,,,,,,,,831.9711,833.0177,833.0178,834.5356,return,0.212,,65.88541667,,,,,,FBP-RB-81.png,0.4,1.2,38,0.25,,,,,,,,,,,,,,,,,,0,56,56,37,1,,,,,,,,,,,,,,,,,,,,,,,
,,,,,SPR24_079,19,female,2024-04-23_12h29.08.403,jersey_experiment_5_v0,2023.2.2,Win32,84.74576271,,,,,,,,,,,,,,,,834.5358,835.8297,835.8297,837.665,return,0.1464,,59.50520833,,,,,,FBP-PT-81.png,0.37,1.2,52,0.5,,,,,,,,,,,,,,,,,,0,57,57,51,1,,,,,,,,,,,,,,,,,,,,,,,
,,,,,SPR24_079,19,female,2024-04-23_12h29.08.403,jersey_experiment_5_v0,2023.2.2,Win32,84.74576271,,,,,,,,,,,,,,,,837.6652,838.7163,838.7163,840.3036,return,0.1651,,68.09895833,,,,,,FBP-OG-18.png,0.43,1.2,9,0.25,,,,,,,,,,,,,,,,,,0,58,58,8,1,,,,,,,,,,,,,,,,,,,,,,,
,,,,,SPR24_079,19,female,2024-04-23_12h29.08.403,jersey_experiment_5_v0,2023.2.2,Win32,84.74576271,,,,,,,,,,,,,,,,840.3037,841.3475,841.3475,842.5827,return,0.1419,,86.45833333,,,,,,FBP-RB-71.png,0.45,1.2,35,0.25,,,,,,,,,,,,,,,,,,0,59,59,34,1,,,,,,,,,,,,,,,,,,,,,,,
,,,,,SPR24_079,19,female,2024-04-23_12h29.08.403,jersey_experiment_5_v0,2023.2.2,Win32,84.74576271,,,,,,,,,,,,,,,,,,,,,,,,,,,,,,,,,,,,,,,,,,,,,,,,,,,,,,,,842.5831,846.4216,return,3.8225,,,,,,,,,,,,,,,,,,,
,,,,,SPR24_079,19,female,2024-04-23_12h29.08.403,jersey_experiment_5_v0,2023.2.2,Win32,84.74576271,,,,,,,,,,,,,,,,,,,,,,,,,,,,,,,,,,,,,,,,,,,,,,,,,,,,,,,,,,,,,846.4217,851.2588,1,3.985,return,0.8371,,,,,,,,,,,,
,,,,,SPR24_079,19,female,2024-04-23_12h29.08.403,jersey_experiment_5_v0,2023.2.2,Win32,84.74576271,,,,,,,,,,,,,,,,,,,,,,,,,,,,,,,,,,,,,,,,,,,,,,,,,,,,,,,,,,,,,,,,,,,,851.2589,909.0963,I noticed the colors of the jerseys changing and some colors seemed specific to size so maybe it was testing an association between color and size over several repeated trials. ,right,54.3829,,,,,,
,,,,,SPR24_079,19,female,2024-04-23_12h29.08.403,jersey_experiment_5_v0,2023.2.2,Win32,84.74576271,,,,,,,,,,,,,,,,,,,,,,,,,,,,,,,,,,,,,,,,,,,,,,,,,,,,,,,,,,,,,,,,,,,,,,,,,,909.0963,912.456,return,3.3412,