requirements.started,requirements.stopped,key_resp_3.keys,key_resp_3.rt,key_resp_3.duration,Subject ID,Age,Gender,date,expName,psychopyVersion,OS,frameRate,instructions1.started,instructions1.stopped,key_resp.keys,key_resp.rt,key_resp.duration,example.started,example.stopped,enter_2.keys,enter_2.rt,enter_2.duration,instructions2.started,instructions2.stopped,enter_3.keys,enter_3.rt,enter_3.duration,image.started,image.stopped,slider_2.started,slider_2.stopped,next.keys,next.rt,next.duration,slider.response,trial_block_1.thisRepN,trial_block_1.thisTrialN,trial_block_1.thisN,trial_block_1.thisIndex,trial_block_1.ran,Path,Width,Height,Index,Duration,trial_block_2.thisRepN,trial_block_2.thisTrialN,trial_block_2.thisN,trial_block_2.thisIndex,trial_block_2.ran,rest_break.started,rest_break.stopped,end_break.started,end_break.stopped,key_resp_5.keys,key_resp_5.rt,key_resp_5.duration,trial_block_3.thisRepN,trial_block_3.thisTrialN,trial_block_3.thisN,trial_block_3.thisIndex,trial_block_3.ran,trial_block_4.thisRepN,trial_block_4.thisTrialN,trial_block_4.thisN,trial_block_4.thisIndex,trial_block_4.ran,questions_intro.started,questions_intro.stopped,enter_12.keys,enter_12.rt,enter_12.duration,question2.started,question2.stopped,question_doingbest.response,question_doingbest.rt,enter_15.keys,enter_15.rt,enter_15.duration,pattern.started,pattern.stopped,pattern_2.text,enter_17.keys,enter_17.rt,enter_17.duration,thankyou.started,thankyou.stopped,enter_14.keys,enter_14.rt,enter_14.duration
1E-04,16.7682,return,16.7574,,SPR24_050,20,female,2024-04-16_10h27.42.853,jersey_experiment_5_v0,2023.2.2,Win32,85.47008547,,,,,,,,,,,,,,,,,,,,,,,,,,,,,,,,,,,,,,,,,,,,,,,,,,,,,,,,,,,,,,,,,,,,,,,,,,,,,,
,,,,,SPR24_050,20,female,2024-04-16_10h27.42.853,jersey_experiment_5_v0,2023.2.2,Win32,85.47008547,16.7682,24.0198,return,7.2365,,,,,,,,,,,,,,,,,,,,,,,,,,,,,,,,,,,,,,,,,,,,,,,,,,,,,,,,,,,,,,,,,,,,,,,,,,
,,,,,SPR24_050,20,female,2024-04-16_10h27.42.853,jersey_experiment_5_v0,2023.2.2,Win32,85.47008547,,,,,,24.02,30.0629,return,6.0093,,,,,,,,,,,,,,,,,,,,,,,,,,,,,,,,,,,,,,,,,,,,,,,,,,,,,,,,,,,,,,,,,,,,,
,,,,,SPR24_050,20,female,2024-04-16_10h27.42.853,jersey_experiment_5_v0,2023.2.2,Win32,85.47008547,,,,,,,,,,,30.063,60.6522,return,30.5813,,,,,,,,,,,,,,,,,,,,,,,,,,,,,,,,,,,,,,,,,,,,,,,,,,,,,,,,,,,,,,,,
,,,,,SPR24_050,20,female,2024-04-16_10h27.42.853,jersey_experiment_5_v0,2023.2.2,Win32,85.47008547,,,,,,,,,,,,,,,,60.6599,61.7109,61.7109,76.3821,return,4.8489,,50.13020833,0,0,0,22,1,FBP-YG-18.png,0.4,1.2,23,0.25,,,,,,,,,,,,,,,,,,,,,,,,,,,,,,,,,,,,,,,,,,,,,
,,,,,SPR24_050,20,female,2024-04-16_10h27.42.853,jersey_experiment_5_v0,2023.2.2,Win32,85.47008547,,,,,,,,,,,,,,,,76.3862,77.6877,77.6879,82.2644,return,0.9385,,99.86979167,0,1,1,39,1,FBP-RB-18.png,0.45,1.2,40,0.5,,,,,,,,,,,,,,,,,,,,,,,,,,,,,,,,,,,,,,,,,,,,,
,,,,,SPR24_050,20,female,2024-04-16_10h27.42.853,jersey_experiment_5_v0,2023.2.2,Win32,85.47008547,,,,,,,,,,,,,,,,82.2646,83.3116,83.3116,87.3,return,1.3071,,0.130208333,0,2,2,25,1,FBP-YG-19.png,0.35,1.2,26,0.25,,,,,,,,,,,,,,,,,,,,,,,,,,,,,,,,,,,,,,,,,,,,,
,,,,,SPR24_050,20,female,2024-04-16_10h27.42.853,jersey_experiment_5_v0,2023.2.2,Win32,85.47008547,,,,,,,,,,,,,,,,87.3003,88.5941,88.5942,91.5355,return,0.8721,,49.86979167,0,3,3,11,1,FBP-OG-91.png,0.37,1.2,12,0.5,,,,,,,,,,,,,,,,,,,,,,,,,,,,,,,,,,,,,,,,,,,,,
,,,,,SPR24_050,20,female,2024-04-16_10h27.42.853,jersey_experiment_5_v0,2023.2.2,Win32,85.47008547,,,,,,,,,,,,,,,,91.5357,92.8296,92.8296,95.8416,return,0.7908,,74.47916667,0,4,4,32,1,FBP-RB-17.png,0.4,1.2,33,0.5,,,,,,,,,,,,,,,,,,,,,,,,,,,,,,,,,,,,,,,,,,,,,
,,,,,SPR24_050,20,female,2024-04-16_10h27.42.853,jersey_experiment_5_v0,2023.2.2,Win32,85.47008547,,,,,,,,,,,,,,,,95.8418,97.1357,97.1357,99.8887,return,0.7292,,50,0,5,5,0,1,FBP-OG-71.png,0.35,1.2,1,0.5,,,,,,,,,,,,,,,,,,,,,,,,,,,,,,,,,,,,,,,,,,,,,
,,,,,SPR24_050,20,female,2024-04-16_10h27.42.853,jersey_experiment_5_v0,2023.2.2,Win32,85.47008547,,,,,,,,,,,,,,,,99.8889,100.9357,100.9357,104.1949,return,0.7062,,49.609375,0,6,6,16,1,FBP-YG-17.png,0.37,1.2,17,0.25,,,,,,,,,,,,,,,,,,,,,,,,,,,,,,,,,,,,,,,,,,,,,
,,,,,SPR24_050,20,female,2024-04-16_10h27.42.853,jersey_experiment_5_v0,2023.2.2,Win32,85.47008547,,,,,,,,,,,,,,,,104.1952,105.2418,105.2419,107.6889,return,0.7613,,98.56770833,0,7,7,53,1,FBP-PT-18.png,0.43,1.2,54,0.25,,,,,,,,,,,,,,,,,,,,,,,,,,,,,,,,,,,,,,,,,,,,,
,,,,,SPR24_050,20,female,2024-04-16_10h27.42.853,jersey_experiment_5_v0,2023.2.2,Win32,85.47008547,,,,,,,,,,,,,,,,107.6891,108.9832,108.9832,111.6655,return,1.2573,,98.4375,0,8,8,14,1,FBP-OG-91.png,0.45,1.2,15,0.5,,,,,,,,,,,,,,,,,,,,,,,,,,,,,,,,,,,,,,,,,,,,,
,,,,,SPR24_050,20,female,2024-04-16_10h27.42.853,jersey_experiment_5_v0,2023.2.2,Win32,85.47008547,,,,,,,,,,,,,,,,111.6659,112.9596,112.9597,116.207,return,1.2832,,76.30208333,0,9,9,42,1,FBP-RB-19.png,0.4,1.2,43,0.5,,,,,,,,,,,,,,,,,,,,,,,,,,,,,,,,,,,,,,,,,,,,,
,,,,,SPR24_050,20,female,2024-04-16_10h27.42.853,jersey_experiment_5_v0,2023.2.2,Win32,85.47008547,,,,,,,,,,,,,,,,116.2072,117.2539,117.254,122.2072,return,3.2259,,86.97916667,0,10,10,47,1,FBP-PT-17.png,0.4,1.2,48,0.25,,,,,,,,,,,,,,,,,,,,,,,,,,,,,,,,,,,,,,,,,,,,,
,,,,,SPR24_050,20,female,2024-04-16_10h27.42.853,jersey_experiment_5_v0,2023.2.2,Win32,85.47008547,,,,,,,,,,,,,,,,122.2073,123.2543,123.2543,126.4897,return,0.9123,,63.93229167,0,11,11,51,1,FBP-PT-18.png,0.37,1.2,52,0.25,,,,,,,,,,,,,,,,,,,,,,,,,,,,,,,,,,,,,,,,,,,,,
,,,,,SPR24_050,20,female,2024-04-16_10h27.42.853,jersey_experiment_5_v0,2023.2.2,Win32,85.47008547,,,,,,,,,,,,,,,,126.49,127.7838,127.7839,130.3369,return,1.191,,55.33854167,0,12,12,1,1,FBP-OG-71.png,0.37,1.2,2,0.5,,,,,,,,,,,,,,,,,,,,,,,,,,,,,,,,,,,,,,,,,,,,,
,,,,,SPR24_050,20,female,2024-04-16_10h27.42.853,jersey_experiment_5_v0,2023.2.2,Win32,85.47008547,,,,,,,,,,,,,,,,130.3371,131.384,131.384,133.6194,return,0.7627,,91.92708333,0,13,13,58,1,FBP-PT-19.png,0.43,1.2,59,0.25,,,,,,,,,,,,,,,,,,,,,,,,,,,,,,,,,,,,,,,,,,,,,
,,,,,SPR24_050,20,female,2024-04-16_10h27.42.853,jersey_experiment_5_v0,2023.2.2,Win32,85.47008547,,,,,,,,,,,,,,,,133.6196,134.6664,134.6664,136.8194,return,0.7629,,98.828125,0,14,14,54,1,FBP-PT-18.png,0.45,1.2,55,0.25,,,,,,,,,,,,,,,,,,,,,,,,,,,,,,,,,,,,,,,,,,,,,
,,,,,SPR24_050,20,female,2024-04-16_10h27.42.853,jersey_experiment_5_v0,2023.2.2,Win32,85.47008547,,,,,,,,,,,,,,,,136.8197,137.8667,137.8667,139.196,return,0.6744,,98.828125,0,15,15,24,1,FBP-YG-18.png,0.45,1.2,25,0.25,,,,,,,,,,,,,,,,,,,,,,,,,,,,,,,,,,,,,,,,,,,,,
,,,,,SPR24_050,20,female,2024-04-16_10h27.42.853,jersey_experiment_5_v0,2023.2.2,Win32,85.47008547,,,,,,,,,,,,,,,,139.1962,140.4903,140.4904,142.1372,return,0.8315,,99.08854167,0,16,16,9,1,FBP-OG-81.png,0.45,1.2,10,0.5,,,,,,,,,,,,,,,,,,,,,,,,,,,,,,,,,,,,,,,,,,,,,
,,,,,SPR24_050,20,female,2024-04-16_10h27.42.853,jersey_experiment_5_v0,2023.2.2,Win32,85.47008547,,,,,,,,,,,,,,,,142.1375,143.1845,143.1846,145.4903,return,0.6358,,99.21875,0,17,17,59,1,FBP-PT-19.png,0.45,1.2,60,0.25,,,,,,,,,,,,,,,,,,,,,,,,,,,,,,,,,,,,,,,,,,,,,
,,,,,SPR24_050,20,female,2024-04-16_10h27.42.853,jersey_experiment_5_v0,2023.2.2,Win32,85.47008547,,,,,,,,,,,,,,,,145.4906,146.5374,146.5375,150.3023,return,0.7089,,47.52604167,0,18,18,57,1,FBP-PT-19.png,0.4,1.2,58,0.25,,,,,,,,,,,,,,,,,,,,,,,,,,,,,,,,,,,,,,,,,,,,,
,,,,,SPR24_050,20,female,2024-04-16_10h27.42.853,jersey_experiment_5_v0,2023.2.2,Win32,85.47008547,,,,,,,,,,,,,,,,150.3026,151.5964,151.5964,155.6908,return,0.8163,,0.130208333,0,19,19,36,1,FBP-RB-18.png,0.37,1.2,37,0.5,,,,,,,,,,,,,,,,,,,,,,,,,,,,,,,,,,,,,,,,,,,,,
,,,,,SPR24_050,20,female,2024-04-16_10h27.42.853,jersey_experiment_5_v0,2023.2.2,Win32,85.47008547,,,,,,,,,,,,,,,,155.691,156.7379,156.7379,161.4676,return,0.7236,,88.02083333,0,20,20,23,1,FBP-YG-18.png,0.43,1.2,24,0.25,,,,,,,,,,,,,,,,,,,,,,,,,,,,,,,,,,,,,,,,,,,,,
,,,,,SPR24_050,20,female,2024-04-16_10h27.42.853,jersey_experiment_5_v0,2023.2.2,Win32,85.47008547,,,,,,,,,,,,,,,,161.4678,162.7617,162.7617,164.7381,return,0.6482,,99.47916667,0,21,21,44,1,FBP-RB-19.png,0.45,1.2,45,0.5,,,,,,,,,,,,,,,,,,,,,,,,,,,,,,,,,,,,,,,,,,,,,
,,,,,SPR24_050,20,female,2024-04-16_10h27.42.853,jersey_experiment_5_v0,2023.2.2,Win32,85.47008547,,,,,,,,,,,,,,,,164.7382,165.7852,165.7853,170.5855,return,0.7225,,0.390625,0,22,22,15,1,FBP-YG-17.png,0.35,1.2,16,0.25,,,,,,,,,,,,,,,,,,,,,,,,,,,,,,,,,,,,,,,,,,,,,
,,,,,SPR24_050,20,female,2024-04-16_10h27.42.853,jersey_experiment_5_v0,2023.2.2,Win32,85.47008547,,,,,,,,,,,,,,,,170.5857,171.6325,171.6325,174.1856,return,0.5959,,95.96354167,0,23,23,19,1,FBP-YG-17.png,0.45,1.2,20,0.25,,,,,,,,,,,,,,,,,,,,,,,,,,,,,,,,,,,,,,,,,,,,,
,,,,,SPR24_050,20,female,2024-04-16_10h27.42.853,jersey_experiment_5_v0,2023.2.2,Win32,85.47008547,,,,,,,,,,,,,,,,174.1858,175.4798,175.4798,178.0562,return,0.7266,,0.651041667,0,24,24,6,1,FBP-OG-81.png,0.37,1.2,7,0.5,,,,,,,,,,,,,,,,,,,,,,,,,,,,,,,,,,,,,,,,,,,,,
,,,,,SPR24_050,20,female,2024-04-16_10h27.42.853,jersey_experiment_5_v0,2023.2.2,Win32,85.47008547,,,,,,,,,,,,,,,,178.0565,179.3505,179.3506,181.4332,return,0.7248,,97.65625,0,25,25,33,1,FBP-RB-17.png,0.43,1.2,34,0.5,,,,,,,,,,,,,,,,,,,,,,,,,,,,,,,,,,,,,,,,,,,,,
,,,,,SPR24_050,20,female,2024-04-16_10h27.42.853,jersey_experiment_5_v0,2023.2.2,Win32,85.47008547,,,,,,,,,,,,,,,,181.4335,182.48,182.48,185.5037,return,0.8017,,21.09375,0,26,26,17,1,FBP-YG-17.png,0.4,1.2,18,0.25,,,,,,,,,,,,,,,,,,,,,,,,,,,,,,,,,,,,,,,,,,,,,
,,,,,SPR24_050,20,female,2024-04-16_10h27.42.853,jersey_experiment_5_v0,2023.2.2,Win32,85.47008547,,,,,,,,,,,,,,,,185.5038,186.5509,186.5509,188.6097,return,0.6455,,0.260416667,0,27,27,20,1,FBP-YG-18.png,0.35,1.2,21,0.25,,,,,,,,,,,,,,,,,,,,,,,,,,,,,,,,,,,,,,,,,,,,,
,,,,,SPR24_050,20,female,2024-04-16_10h27.42.853,jersey_experiment_5_v0,2023.2.2,Win32,85.47008547,,,,,,,,,,,,,,,,188.6099,189.9038,189.9038,191.8098,return,0.6121,,0.651041667,0,28,28,31,1,FBP-RB-17.png,0.37,1.2,32,0.5,,,,,,,,,,,,,,,,,,,,,,,,,,,,,,,,,,,,,,,,,,,,,
,,,,,SPR24_050,20,female,2024-04-16_10h27.42.853,jersey_experiment_5_v0,2023.2.2,Win32,85.47008547,,,,,,,,,,,,,,,,191.81,192.8568,192.8568,196.3511,return,1.6493,,98.828125,0,29,29,48,1,FBP-PT-17.png,0.43,1.2,49,0.25,,,,,,,,,,,,,,,,,,,,,,,,,,,,,,,,,,,,,,,,,,,,,
,,,,,SPR24_050,20,female,2024-04-16_10h27.42.853,jersey_experiment_5_v0,2023.2.2,Win32,85.47008547,,,,,,,,,,,,,,,,196.3514,197.6455,197.6455,199.7866,return,0.4406,,0.390625,0,30,30,41,1,FBP-RB-19.png,0.37,1.2,42,0.5,,,,,,,,,,,,,,,,,,,,,,,,,,,,,,,,,,,,,,,,,,,,,
,,,,,SPR24_050,20,female,2024-04-16_10h27.42.853,jersey_experiment_5_v0,2023.2.2,Win32,85.47008547,,,,,,,,,,,,,,,,199.7868,200.8337,200.8337,202.3512,return,0.2239,,73.95833333,0,31,31,49,1,FBP-PT-17.png,0.45,1.2,50,0.25,,,,,,,,,,,,,,,,,,,,,,,,,,,,,,,,,,,,,,,,,,,,,
,,,,,SPR24_050,20,female,2024-04-16_10h27.42.853,jersey_experiment_5_v0,2023.2.2,Win32,85.47008547,,,,,,,,,,,,,,,,202.3515,203.6455,203.6455,204.5044,return,0.3502,,73.95833333,0,32,32,13,1,FBP-OG-91.png,0.43,1.2,14,0.5,,,,,,,,,,,,,,,,,,,,,,,,,,,,,,,,,,,,,,,,,,,,,
,,,,,SPR24_050,20,female,2024-04-16_10h27.42.853,jersey_experiment_5_v0,2023.2.2,Win32,85.47008547,,,,,,,,,,,,,,,,204.5046,205.7985,205.7986,207.0574,return,0.2116,,88.54166667,0,33,33,4,1,FBP-OG-71.png,0.45,1.2,5,0.5,,,,,,,,,,,,,,,,,,,,,,,,,,,,,,,,,,,,,,,,,,,,,
,,,,,SPR24_050,20,female,2024-04-16_10h27.42.853,jersey_experiment_5_v0,2023.2.2,Win32,85.47008547,,,,,,,,,,,,,,,,207.0576,208.3515,208.3515,210.5869,return,0.1945,,4.036458333,0,34,34,37,1,FBP-RB-18.png,0.4,1.2,38,0.5,,,,,,,,,,,,,,,,,,,,,,,,,,,,,,,,,,,,,,,,,,,,,
,,,,,SPR24_050,20,female,2024-04-16_10h27.42.853,jersey_experiment_5_v0,2023.2.2,Win32,85.47008547,,,,,,,,,,,,,,,,210.5871,211.634,211.6341,214.3988,return,0.732,,71.09375,0,35,35,18,1,FBP-YG-17.png,0.43,1.2,19,0.25,,,,,,,,,,,,,,,,,,,,,,,,,,,,,,,,,,,,,,,,,,,,,
,,,,,SPR24_050,20,female,2024-04-16_10h27.42.853,jersey_experiment_5_v0,2023.2.2,Win32,85.47008547,,,,,,,,,,,,,,,,214.3991,215.6929,215.693,216.9636,return,0.2463,,72.91666667,0,36,36,8,1,FBP-OG-81.png,0.43,1.2,9,0.5,,,,,,,,,,,,,,,,,,,,,,,,,,,,,,,,,,,,,,,,,,,,,
,,,,,SPR24_050,20,female,2024-04-16_10h27.42.853,jersey_experiment_5_v0,2023.2.2,Win32,85.47008547,,,,,,,,,,,,,,,,216.9638,218.0108,218.0108,219.4108,return,0.1752,,0.130208333,0,37,37,50,1,FBP-PT-18.png,0.35,1.2,51,0.25,,,,,,,,,,,,,,,,,,,,,,,,,,,,,,,,,,,,,,,,,,,,,
,,,,,SPR24_050,20,female,2024-04-16_10h27.42.853,jersey_experiment_5_v0,2023.2.2,Win32,85.47008547,,,,,,,,,,,,,,,,219.411,220.7051,220.7052,222.705,return,0.175,,88.80208333,0,38,38,34,1,FBP-RB-17.png,0.45,1.2,35,0.5,,,,,,,,,,,,,,,,,,,,,,,,,,,,,,,,,,,,,,,,,,,,,
,,,,,SPR24_050,20,female,2024-04-16_10h27.42.853,jersey_experiment_5_v0,2023.2.2,Win32,85.47008547,,,,,,,,,,,,,,,,222.7052,223.7521,223.7522,225.7289,return,0.2254,,0.130208333,0,39,39,46,1,FBP-PT-17.png,0.37,1.2,47,0.25,,,,,,,,,,,,,,,,,,,,,,,,,,,,,,,,,,,,,,,,,,,,,
,,,,,SPR24_050,20,female,2024-04-16_10h27.42.853,jersey_experiment_5_v0,2023.2.2,Win32,85.47008547,,,,,,,,,,,,,,,,225.7291,226.7757,226.7758,228.223,return,0.1187,,92.44791667,0,40,40,29,1,FBP-YG-19.png,0.45,1.2,30,0.25,,,,,,,,,,,,,,,,,,,,,,,,,,,,,,,,,,,,,,,,,,,,,
,,,,,SPR24_050,20,female,2024-04-16_10h27.42.853,jersey_experiment_5_v0,2023.2.2,Win32,85.47008547,,,,,,,,,,,,,,,,228.2232,229.27,229.27,230.8583,return,0.9703,,81.77083333,0,41,41,28,1,FBP-YG-19.png,0.43,1.2,29,0.25,,,,,,,,,,,,,,,,,,,,,,,,,,,,,,,,,,,,,,,,,,,,,
,,,,,SPR24_050,20,female,2024-04-16_10h27.42.853,jersey_experiment_5_v0,2023.2.2,Win32,85.47008547,,,,,,,,,,,,,,,,230.8586,231.9053,231.9053,233.2583,return,0.1595,,0.390625,0,42,42,56,1,FBP-PT-19.png,0.37,1.2,57,0.25,,,,,,,,,,,,,,,,,,,,,,,,,,,,,,,,,,,,,,,,,,,,,
,,,,,SPR24_050,20,female,2024-04-16_10h27.42.853,jersey_experiment_5_v0,2023.2.2,Win32,85.47008547,,,,,,,,,,,,,,,,233.2585,234.5526,234.5527,236.5409,return,0.3809,,93.09895833,0,43,43,38,1,FBP-RB-18.png,0.43,1.2,39,0.5,,,,,,,,,,,,,,,,,,,,,,,,,,,,,,,,,,,,,,,,,,,,,
,,,,,SPR24_050,20,female,2024-04-16_10h27.42.853,jersey_experiment_5_v0,2023.2.2,Win32,85.47008547,,,,,,,,,,,,,,,,236.5411,237.835,237.8352,238.894,return,0.1915,,0.260416667,0,44,44,40,1,FBP-RB-19.png,0.35,1.2,41,0.5,,,,,,,,,,,,,,,,,,,,,,,,,,,,,,,,,,,,,,,,,,,,,
,,,,,SPR24_050,20,female,2024-04-16_10h27.42.853,jersey_experiment_5_v0,2023.2.2,Win32,85.47008547,,,,,,,,,,,,,,,,238.8941,240.1882,240.1883,242.3647,return,0.1447,,70.96354167,0,45,45,3,1,FBP-OG-71.png,0.43,1.2,4,0.5,,,,,,,,,,,,,,,,,,,,,,,,,,,,,,,,,,,,,,,,,,,,,
,,,,,SPR24_050,20,female,2024-04-16_10h27.42.853,jersey_experiment_5_v0,2023.2.2,Win32,85.47008547,,,,,,,,,,,,,,,,242.3649,243.6591,243.6591,245.0118,return,0.1751,,0.78125,0,46,46,10,1,FBP-OG-91.png,0.35,1.2,11,0.5,,,,,,,,,,,,,,,,,,,,,,,,,,,,,,,,,,,,,,,,,,,,,
,,,,,SPR24_050,20,female,2024-04-16_10h27.42.853,jersey_experiment_5_v0,2023.2.2,Win32,85.47008547,,,,,,,,,,,,,,,,245.012,246.3058,246.3059,250.5883,return,0.2034,,26.04166667,0,47,47,12,1,FBP-OG-91.png,0.4,1.2,13,0.5,,,,,,,,,,,,,,,,,,,,,,,,,,,,,,,,,,,,,,,,,,,,,
,,,,,SPR24_050,20,female,2024-04-16_10h27.42.853,jersey_experiment_5_v0,2023.2.2,Win32,85.47008547,,,,,,,,,,,,,,,,250.5887,251.8828,251.8829,252.7062,return,0.1413,,1.171875,0,48,48,5,1,FBP-OG-81.png,0.35,1.2,6,0.5,,,,,,,,,,,,,,,,,,,,,,,,,,,,,,,,,,,,,,,,,,,,,
,,,,,SPR24_050,20,female,2024-04-16_10h27.42.853,jersey_experiment_5_v0,2023.2.2,Win32,85.47008547,,,,,,,,,,,,,,,,252.7064,254.0003,254.0004,256.3652,return,0.7922,,72.13541667,0,49,49,2,1,FBP-OG-71.png,0.4,1.2,3,0.5,,,,,,,,,,,,,,,,,,,,,,,,,,,,,,,,,,,,,,,,,,,,,
,,,,,SPR24_050,20,female,2024-04-16_10h27.42.853,jersey_experiment_5_v0,2023.2.2,Win32,85.47008547,,,,,,,,,,,,,,,,256.3654,257.6593,257.6594,258.4477,return,0.1055,,71.22395833,0,50,50,7,1,FBP-OG-81.png,0.4,1.2,8,0.5,,,,,,,,,,,,,,,,,,,,,,,,,,,,,,,,,,,,,,,,,,,,,
,,,,,SPR24_050,20,female,2024-04-16_10h27.42.853,jersey_experiment_5_v0,2023.2.2,Win32,85.47008547,,,,,,,,,,,,,,,,258.4479,259.4946,259.4947,261.7887,return,0.0752,,44.66145833,0,51,51,27,1,FBP-YG-19.png,0.4,1.2,28,0.25,,,,,,,,,,,,,,,,,,,,,,,,,,,,,,,,,,,,,,,,,,,,,
,,,,,SPR24_050,20,female,2024-04-16_10h27.42.853,jersey_experiment_5_v0,2023.2.2,Win32,85.47008547,,,,,,,,,,,,,,,,261.7889,262.8359,262.836,264.8948,return,0.0829,,11.84895833,0,52,52,26,1,FBP-YG-19.png,0.37,1.2,27,0.25,,,,,,,,,,,,,,,,,,,,,,,,,,,,,,,,,,,,,,,,,,,,,
,,,,,SPR24_050,20,female,2024-04-16_10h27.42.853,jersey_experiment_5_v0,2023.2.2,Win32,85.47008547,,,,,,,,,,,,,,,,264.895,265.942,265.942,267.8596,return,0.2458,,36.71875,0,53,53,52,1,FBP-PT-18.png,0.4,1.2,53,0.25,,,,,,,,,,,,,,,,,,,,,,,,,,,,,,,,,,,,,,,,,,,,,
,,,,,SPR24_050,20,female,2024-04-16_10h27.42.853,jersey_experiment_5_v0,2023.2.2,Win32,85.47008547,,,,,,,,,,,,,,,,267.8598,269.1537,269.1537,270.2245,return,0.2018,,76.82291667,0,54,54,43,1,FBP-RB-19.png,0.43,1.2,44,0.5,,,,,,,,,,,,,,,,,,,,,,,,,,,,,,,,,,,,,,,,,,,,,
,,,,,SPR24_050,20,female,2024-04-16_10h27.42.853,jersey_experiment_5_v0,2023.2.2,Win32,85.47008547,,,,,,,,,,,,,,,,270.2248,271.5189,271.519,272.4481,return,0.1186,,0.78125,0,55,55,30,1,FBP-RB-17.png,0.35,1.2,31,0.5,,,,,,,,,,,,,,,,,,,,,,,,,,,,,,,,,,,,,,,,,,,,,
,,,,,SPR24_050,20,female,2024-04-16_10h27.42.853,jersey_experiment_5_v0,2023.2.2,Win32,85.47008547,,,,,,,,,,,,,,,,272.4483,273.4951,273.4952,274.4012,return,0.2826,,0.78125,0,56,56,21,1,FBP-YG-18.png,0.37,1.2,22,0.25,,,,,,,,,,,,,,,,,,,,,,,,,,,,,,,,,,,,,,,,,,,,,
,,,,,SPR24_050,20,female,2024-04-16_10h27.42.853,jersey_experiment_5_v0,2023.2.2,Win32,85.47008547,,,,,,,,,,,,,,,,274.4014,275.4482,275.4482,276.5542,return,0.1464,,0.651041667,0,57,57,55,1,FBP-PT-19.png,0.35,1.2,56,0.25,,,,,,,,,,,,,,,,,,,,,,,,,,,,,,,,,,,,,,,,,,,,,
,,,,,SPR24_050,20,female,2024-04-16_10h27.42.853,jersey_experiment_5_v0,2023.2.2,Win32,85.47008547,,,,,,,,,,,,,,,,276.5544,277.6011,277.6012,278.2248,return,0.1317,,0.651041667,0,58,58,45,1,FBP-PT-17.png,0.35,1.2,46,0.25,,,,,,,,,,,,,,,,,,,,,,,,,,,,,,,,,,,,,,,,,,,,,
,,,,,SPR24_050,20,female,2024-04-16_10h27.42.853,jersey_experiment_5_v0,2023.2.2,Win32,85.47008547,,,,,,,,,,,,,,,,278.225,279.5189,279.5189,280.3779,return,0.1826,,0.651041667,0,59,59,35,1,FBP-RB-18.png,0.35,1.2,36,0.5,,,,,,,,,,,,,,,,,,,,,,,,,,,,,,,,,,,,,,,,,,,,,
,,,,,SPR24_050,20,female,2024-04-16_10h27.42.853,jersey_experiment_5_v0,2023.2.2,Win32,85.47008547,,,,,,,,,,,,,,,,280.3797,281.4248,281.4248,282.1073,return,0.144,,0.651041667,,,,,,FBP-YG-91.png,0.35,1.2,26,0.25,0,0,0,25,1,,,,,,,,,,,,,,,,,,,,,,,,,,,,,,,,,,,,,,,,
,,,,,SPR24_050,20,female,2024-04-16_10h27.42.853,jersey_experiment_5_v0,2023.2.2,Win32,85.47008547,,,,,,,,,,,,,,,,282.1076,283.4014,283.4014,283.9309,return,0.158,,0.651041667,,,,,,FBP-RB-71.png,0.35,1.2,31,0.5,0,1,1,30,1,,,,,,,,,,,,,,,,,,,,,,,,,,,,,,,,,,,,,,,,
,,,,,SPR24_050,20,female,2024-04-16_10h27.42.853,jersey_experiment_5_v0,2023.2.2,Win32,85.47008547,,,,,,,,,,,,,,,,283.9312,284.9779,284.978,287.0017,return,0.2398,,95.3125,,,,,,FBP-YG-91.png,0.43,1.2,29,0.25,0,2,2,28,1,,,,,,,,,,,,,,,,,,,,,,,,,,,,,,,,,,,,,,,,
,,,,,SPR24_050,20,female,2024-04-16_10h27.42.853,jersey_experiment_5_v0,2023.2.2,Win32,85.47008547,,,,,,,,,,,,,,,,287.002,288.2958,288.2958,289.2251,return,0.2301,,92.578125,,,,,,FBP-OG-17.png,0.43,1.2,4,0.5,0,3,3,3,1,,,,,,,,,,,,,,,,,,,,,,,,,,,,,,,,,,,,,,,,
,,,,,SPR24_050,20,female,2024-04-16_10h27.42.853,jersey_experiment_5_v0,2023.2.2,Win32,85.47008547,,,,,,,,,,,,,,,,289.2254,290.5193,290.5193,291.8487,return,0.1612,,14.58333333,,,,,,FBP-RB-91.png,0.37,1.2,42,0.5,0,4,4,41,1,,,,,,,,,,,,,,,,,,,,,,,,,,,,,,,,,,,,,,,,
,,,,,SPR24_050,20,female,2024-04-16_10h27.42.853,jersey_experiment_5_v0,2023.2.2,Win32,85.47008547,,,,,,,,,,,,,,,,291.849,293.1432,293.1433,294.5313,return,0.1894,,99.34895833,,,,,,FBP-RB-91.png,0.45,1.2,45,0.5,0,5,5,44,1,,,,,,,,,,,,,,,,,,,,,,,,,,,,,,,,,,,,,,,,
,,,,,SPR24_050,20,female,2024-04-16_10h27.42.853,jersey_experiment_5_v0,2023.2.2,Win32,85.47008547,,,,,,,,,,,,,,,,294.5315,295.5782,295.5783,296.6491,return,0.1376,,99.21875,,,,,,FBP-YG-91.png,0.45,1.2,30,0.25,0,6,6,29,1,,,,,,,,,,,,,,,,,,,,,,,,,,,,,,,,,,,,,,,,
,,,,,SPR24_050,20,female,2024-04-16_10h27.42.853,jersey_experiment_5_v0,2023.2.2,Win32,85.47008547,,,,,,,,,,,,,,,,296.6492,297.9431,297.9432,298.402,return,0.2688,,98.69791667,,,,,,FBP-OG-18.png,0.43,1.2,9,0.5,0,7,7,8,1,,,,,,,,,,,,,,,,,,,,,,,,,,,,,,,,,,,,,,,,
,,,,,SPR24_050,20,female,2024-04-16_10h27.42.853,jersey_experiment_5_v0,2023.2.2,Win32,85.47008547,,,,,,,,,,,,,,,,298.4021,299.4491,299.4492,301.4258,return,0.1417,,2.213541667,,,,,,FBP-PT-91.png,0.37,1.2,57,0.25,0,8,8,56,1,,,,,,,,,,,,,,,,,,,,,,,,,,,,,,,,,,,,,,,,
,,,,,SPR24_050,20,female,2024-04-16_10h27.42.853,jersey_experiment_5_v0,2023.2.2,Win32,85.47008547,,,,,,,,,,,,,,,,301.426,302.4727,302.4727,303.1669,return,0.1316,,2.213541667,,,,,,FBP-PT-71.png,0.37,1.2,47,0.25,0,9,9,46,1,,,,,,,,,,,,,,,,,,,,,,,,,,,,,,,,,,,,,,,,
,,,,,SPR24_050,20,female,2024-04-16_10h27.42.853,jersey_experiment_5_v0,2023.2.2,Win32,85.47008547,,,,,,,,,,,,,,,,303.1671,304.4613,304.4614,307.6729,return,1.8434,,22.65625,,,,,,FBP-RB-71.png,0.4,1.2,33,0.5,0,10,10,32,1,,,,,,,,,,,,,,,,,,,,,,,,,,,,,,,,,,,,,,,,
,,,,,SPR24_050,20,female,2024-04-16_10h27.42.853,jersey_experiment_5_v0,2023.2.2,Win32,85.47008547,,,,,,,,,,,,,,,,307.6731,308.9671,308.9671,309.6965,return,0.1181,,23.046875,,,,,,FBP-OG-18.png,0.4,1.2,8,0.5,0,11,11,7,1,,,,,,,,,,,,,,,,,,,,,,,,,,,,,,,,,,,,,,,,
,,,,,SPR24_050,20,female,2024-04-16_10h27.42.853,jersey_experiment_5_v0,2023.2.2,Win32,85.47008547,,,,,,,,,,,,,,,,309.6967,310.7436,310.7437,311.9553,return,0.1283,,10.9375,,,,,,FBP-PT-71.png,0.35,1.2,46,0.25,0,12,12,45,1,,,,,,,,,,,,,,,,,,,,,,,,,,,,,,,,,,,,,,,,
,,,,,SPR24_050,20,female,2024-04-16_10h27.42.853,jersey_experiment_5_v0,2023.2.2,Win32,85.47008547,,,,,,,,,,,,,,,,311.9556,313.0025,313.0025,313.8967,return,0.1477,,3.645833333,,,,,,FBP-YG-81.png,0.37,1.2,22,0.25,0,13,13,21,1,,,,,,,,,,,,,,,,,,,,,,,,,,,,,,,,,,,,,,,,
,,,,,SPR24_050,20,female,2024-04-16_10h27.42.853,jersey_experiment_5_v0,2023.2.2,Win32,85.47008547,,,,,,,,,,,,,,,,313.8969,315.1911,315.1911,315.7438,return,0.1193,,1.171875,,,,,,FBP-OG-19.png,0.37,1.2,12,0.5,0,14,14,11,1,,,,,,,,,,,,,,,,,,,,,,,,,,,,,,,,,,,,,,,,
,,,,,SPR24_050,20,female,2024-04-16_10h27.42.853,jersey_experiment_5_v0,2023.2.2,Win32,85.47008547,,,,,,,,,,,,,,,,315.7441,317.0379,317.0379,317.7438,return,0.1521,,1.171875,,,,,,FBP-OG-17.png,0.37,1.2,2,0.5,0,15,15,1,1,,,,,,,,,,,,,,,,,,,,,,,,,,,,,,,,,,,,,,,,
,,,,,SPR24_050,20,female,2024-04-16_10h27.42.853,jersey_experiment_5_v0,2023.2.2,Win32,85.47008547,,,,,,,,,,,,,,,,317.7441,318.791,318.791,320.7676,return,0.1786,,79.81770833,,,,,,FBP-PT-91.png,0.43,1.2,59,0.25,0,16,16,58,1,,,,,,,,,,,,,,,,,,,,,,,,,,,,,,,,,,,,,,,,
,,,,,SPR24_050,20,female,2024-04-16_10h27.42.853,jersey_experiment_5_v0,2023.2.2,Win32,85.47008547,,,,,,,,,,,,,,,,320.7679,321.8147,321.8147,323.4029,return,0.075,,16.53645833,,,,,,FBP-PT-81.png,0.37,1.2,52,0.25,0,17,17,51,1,,,,,,,,,,,,,,,,,,,,,,,,,,,,,,,,,,,,,,,,
,,,,,SPR24_050,20,female,2024-04-16_10h27.42.853,jersey_experiment_5_v0,2023.2.2,Win32,85.47008547,,,,,,,,,,,,,,,,323.4031,324.6971,324.6972,327.7914,return,0.1287,,65.625,,,,,,FBP-RB-91.png,0.4,1.2,43,0.5,0,18,18,42,1,,,,,,,,,,,,,,,,,,,,,,,,,,,,,,,,,,,,,,,,
,,,,,SPR24_050,20,female,2024-04-16_10h27.42.853,jersey_experiment_5_v0,2023.2.2,Win32,85.47008547,,,,,,,,,,,,,,,,327.7917,328.8385,328.8385,330.0502,return,0.3153,,98.95833333,,,,,,FBP-YG-71.png,0.45,1.2,20,0.25,0,19,19,19,1,,,,,,,,,,,,,,,,,,,,,,,,,,,,,,,,,,,,,,,,
,,,,,SPR24_050,20,female,2024-04-16_10h27.42.853,jersey_experiment_5_v0,2023.2.2,Win32,85.47008547,,,,,,,,,,,,,,,,330.0505,331.3443,331.3444,332.521,return,0.7953,,92.1875,,,,,,FBP-OG-19.png,0.43,1.2,14,0.5,0,20,20,13,1,,,,,,,,,,,,,,,,,,,,,,,,,,,,,,,,,,,,,,,,
,,,,,SPR24_050,20,female,2024-04-16_10h27.42.853,jersey_experiment_5_v0,2023.2.2,Win32,85.47008547,,,,,,,,,,,,,,,,332.5212,333.815,333.815,335.0269,return,0.2956,,1.5625,,,,,,FBP-RB-71.png,0.37,1.2,32,0.5,0,21,21,31,1,,,,,,,,,,,,,,,,,,,,,,,,,,,,,,,,,,,,,,,,
,,,,,SPR24_050,20,female,2024-04-16_10h27.42.853,jersey_experiment_5_v0,2023.2.2,Win32,85.47008547,,,,,,,,,,,,,,,,335.0271,336.074,336.074,337.4034,return,0.0512,,94.40104167,,,,,,FBP-YG-81.png,0.45,1.2,25,0.25,0,22,22,24,1,,,,,,,,,,,,,,,,,,,,,,,,,,,,,,,,,,,,,,,,
,,,,,SPR24_050,20,female,2024-04-16_10h27.42.853,jersey_experiment_5_v0,2023.2.2,Win32,85.47008547,,,,,,,,,,,,,,,,337.4036,338.6979,338.6979,339.5329,return,0.1558,,1.5625,,,,,,FBP-RB-91.png,0.35,1.2,41,0.5,0,23,23,40,1,,,,,,,,,,,,,,,,,,,,,,,,,,,,,,,,,,,,,,,,
,,,,,SPR24_050,20,female,2024-04-16_10h27.42.853,jersey_experiment_5_v0,2023.2.2,Win32,85.47008547,,,,,,,,,,,,,,,,339.5332,340.58,340.5801,343.5684,return,0.1085,,14.0625,,,,,,FBP-YG-91.png,0.37,1.2,27,0.25,0,24,24,26,1,,,,,,,,,,,,,,,,,,,,,,,,,,,,,,,,,,,,,,,,
,,,,,SPR24_050,20,female,2024-04-16_10h27.42.853,jersey_experiment_5_v0,2023.2.2,Win32,85.47008547,,,,,,,,,,,,,,,,343.5686,344.6154,344.6155,346.192,return,0.1424,,98.69791667,,,,,,FBP-YG-71.png,0.43,1.2,19,0.25,0,25,25,18,1,,,,,,,,,,,,,,,,,,,,,,,,,,,,,,,,,,,,,,,,
,,,,,SPR24_050,20,female,2024-04-16_10h27.42.853,jersey_experiment_5_v0,2023.2.2,Win32,85.47008547,,,,,,,,,,,,,,,,346.1922,347.239,347.239,349.0745,return,0.0956,,17.05729167,,,,,,FBP-PT-91.png,0.4,1.2,58,0.25,0,26,26,57,1,,,,,,,,,,,,,,,,,,,,,,,,,,,,,,,,,,,,,,,,
,,,,,SPR24_050,20,female,2024-04-16_10h27.42.853,jersey_experiment_5_v0,2023.2.2,Win32,85.47008547,,,,,,,,,,,,,,,,349.0747,350.1216,350.1216,351.1804,return,0.1457,,1.041666667,,,,,,FBP-PT-91.png,0.35,1.2,56,0.25,0,27,27,55,1,,,,,,,,,,,,,,,,,,,,,,,,,,,,,,,,,,,,,,,,
,,,,,SPR24_050,20,female,2024-04-16_10h27.42.853,jersey_experiment_5_v0,2023.2.2,Win32,85.47008547,,,,,,,,,,,,,,,,351.1806,352.4745,352.4745,355.0512,return,0.0415,,24.609375,,,,,,FBP-OG-17.png,0.4,1.2,3,0.5,0,28,28,2,1,,,,,,,,,,,,,,,,,,,,,,,,,,,,,,,,,,,,,,,,
,,,,,SPR24_050,20,female,2024-04-16_10h27.42.853,jersey_experiment_5_v0,2023.2.2,Win32,85.47008547,,,,,,,,,,,,,,,,355.0513,356.0983,356.0983,356.769,return,0.0839,,24.47916667,,,,,,FBP-PT-71.png,0.4,1.2,48,0.25,0,29,29,47,1,,,,,,,,,,,,,,,,,,,,,,,,,,,,,,,,,,,,,,,,
,,,,,SPR24_050,20,female,2024-04-16_10h27.42.853,jersey_experiment_5_v0,2023.2.2,Win32,85.47008547,,,,,,,,,,,,,,,,356.7692,358.063,358.0631,359.216,return,0.2584,,72.13541667,,,,,,FBP-OG-19.png,0.45,1.2,15,0.5,0,30,30,14,1,,,,,,,,,,,,,,,,,,,,,,,,,,,,,,,,,,,,,,,,
,,,,,SPR24_050,20,female,2024-04-16_10h27.42.853,jersey_experiment_5_v0,2023.2.2,Win32,85.47008547,,,,,,,,,,,,,,,,359.2163,360.5103,360.5103,364.1576,return,0.1568,,34.375,,,,,,FBP-RB-81.png,0.4,1.2,38,0.5,0,31,31,37,1,,,,,,,,,,,,,,,,,,,,,,,,,,,,,,,,,,,,,,,,
,,,,,SPR24_050,20,female,2024-04-16_10h27.42.853,jersey_experiment_5_v0,2023.2.2,Win32,85.47008547,,,,,,,,,,,,,,,,364.1578,365.4516,365.4516,367.3927,return,0.1037,,69.53125,,,,,,FBP-RB-71.png,0.43,1.2,34,0.5,0,32,32,33,1,,,,,,,,,,,,,,,,,,,,,,,,,,,,,,,,,,,,,,,,
,,,,,SPR24_050,20,female,2024-04-16_10h27.42.853,jersey_experiment_5_v0,2023.2.2,Win32,85.47008547,,,,,,,,,,,,,,,,367.3929,368.6869,368.687,370.1928,return,0.175,,87.23958333,,,,,,FBP-RB-91.png,0.43,1.2,44,0.5,0,33,33,43,1,,,,,,,,,,,,,,,,,,,,,,,,,,,,,,,,,,,,,,,,
,,,,,SPR24_050,20,female,2024-04-16_10h27.42.853,jersey_experiment_5_v0,2023.2.2,Win32,85.47008547,,,,,,,,,,,,,,,,370.193,371.2401,371.2401,376.0638,return,0.3289,,0.260416667,,,,,,FBP-YG-71.png,0.35,1.2,16,0.25,0,34,34,15,1,,,,,,,,,,,,,,,,,,,,,,,,,,,,,,,,,,,,,,,,
,,,,,SPR24_050,20,female,2024-04-16_10h27.42.853,jersey_experiment_5_v0,2023.2.2,Win32,85.47008547,,,,,,,,,,,,,,,,376.064,377.1107,377.1108,379.4873,return,0.1291,,82.55208333,,,,,,FBP-PT-81.png,0.45,1.2,55,0.25,0,35,35,54,1,,,,,,,,,,,,,,,,,,,,,,,,,,,,,,,,,,,,,,,,
,,,,,SPR24_050,20,female,2024-04-16_10h27.42.853,jersey_experiment_5_v0,2023.2.2,Win32,85.47008547,,,,,,,,,,,,,,,,379.4875,380.5345,380.5345,381.1817,return,0.13,,82.421875,,,,,,FBP-PT-91.png,0.45,1.2,60,0.25,0,36,36,59,1,,,,,,,,,,,,,,,,,,,,,,,,,,,,,,,,,,,,,,,,
,,,,,SPR24_050,20,female,2024-04-16_10h27.42.853,jersey_experiment_5_v0,2023.2.2,Win32,85.47008547,,,,,,,,,,,,,,,,381.1818,382.2287,382.2288,382.8992,return,0.1413,,82.29166667,,,,,,FBP-YG-81.png,0.43,1.2,24,0.25,0,37,37,23,1,,,,,,,,,,,,,,,,,,,,,,,,,,,,,,,,,,,,,,,,
,,,,,SPR24_050,20,female,2024-04-16_10h27.42.853,jersey_experiment_5_v0,2023.2.2,Win32,85.47008547,,,,,,,,,,,,,,,,382.8994,384.1934,384.1934,385.2757,return,0.1466,,0.78125,,,,,,FBP-OG-17.png,0.35,1.2,1,0.5,0,38,38,0,1,,,,,,,,,,,,,,,,,,,,,,,,,,,,,,,,,,,,,,,,
,,,,,SPR24_050,20,female,2024-04-16_10h27.42.853,jersey_experiment_5_v0,2023.2.2,Win32,85.47008547,,,,,,,,,,,,,,,,385.2759,386.3229,386.3229,388.2172,return,0.1021,,65.625,,,,,,FBP-PT-81.png,0.43,1.2,54,0.25,0,39,39,53,1,,,,,,,,,,,,,,,,,,,,,,,,,,,,,,,,,,,,,,,,
,,,,,SPR24_050,20,female,2024-04-16_10h27.42.853,jersey_experiment_5_v0,2023.2.2,Win32,85.47008547,,,,,,,,,,,,,,,,388.2174,389.5113,389.5113,390.6172,return,0.1725,,1.302083333,,,,,,FBP-OG-18.png,0.37,1.2,7,0.5,0,40,40,6,1,,,,,,,,,,,,,,,,,,,,,,,,,,,,,,,,,,,,,,,,
,,,,,SPR24_050,20,female,2024-04-16_10h27.42.853,jersey_experiment_5_v0,2023.2.2,Win32,85.47008547,,,,,,,,,,,,,,,,390.6176,391.6643,391.6644,393.0643,return,0.1598,,63.54166667,,,,,,FBP-PT-71.png,0.43,1.2,49,0.25,0,41,41,48,1,,,,,,,,,,,,,,,,,,,,,,,,,,,,,,,,,,,,,,,,
,,,,,SPR24_050,20,female,2024-04-16_10h27.42.853,jersey_experiment_5_v0,2023.2.2,Win32,85.47008547,,,,,,,,,,,,,,,,393.0645,394.1115,394.1116,395.3939,return,0.1888,,0.520833333,,,,,,FBP-YG-81.png,0.35,1.2,21,0.25,0,42,42,20,1,,,,,,,,,,,,,,,,,,,,,,,,,,,,,,,,,,,,,,,,
,,,,,SPR24_050,20,female,2024-04-16_10h27.42.853,jersey_experiment_5_v0,2023.2.2,Win32,85.47008547,,,,,,,,,,,,,,,,395.3943,396.441,396.4411,397.1352,return,0.1534,,0.520833333,,,,,,FBP-YG-71.png,0.37,1.2,17,0.25,0,43,43,16,1,,,,,,,,,,,,,,,,,,,,,,,,,,,,,,,,,,,,,,,,
,,,,,SPR24_050,20,female,2024-04-16_10h27.42.853,jersey_experiment_5_v0,2023.2.2,Win32,85.47008547,,,,,,,,,,,,,,,,397.1354,398.4292,398.4293,398.8645,return,0.2118,,0.520833333,,,,,,FBP-OG-19.png,0.35,1.2,11,0.5,0,44,44,10,1,,,,,,,,,,,,,,,,,,,,,,,,,,,,,,,,,,,,,,,,
,,,,,SPR24_050,20,female,2024-04-16_10h27.42.853,jersey_experiment_5_v0,2023.2.2,Win32,85.47008547,,,,,,,,,,,,,,,,398.8647,400.1589,400.1589,400.7,return,0.2523,,0.520833333,,,,,,FBP-RB-81.png,0.35,1.2,36,0.5,0,45,45,35,1,,,,,,,,,,,,,,,,,,,,,,,,,,,,,,,,,,,,,,,,
,,,,,SPR24_050,20,female,2024-04-16_10h27.42.853,jersey_experiment_5_v0,2023.2.2,Win32,85.47008547,,,,,,,,,,,,,,,,400.7003,401.7471,401.7471,402.9706,return,0.2523,,98.17708333,,,,,,FBP-PT-71.png,0.45,1.2,50,0.25,0,46,46,49,1,,,,,,,,,,,,,,,,,,,,,,,,,,,,,,,,,,,,,,,,
,,,,,SPR24_050,20,female,2024-04-16_10h27.42.853,jersey_experiment_5_v0,2023.2.2,Win32,85.47008547,,,,,,,,,,,,,,,,402.9709,404.2648,404.2648,405.006,return,0.1902,,96.61458333,,,,,,FBP-OG-18.png,0.45,1.2,10,0.5,0,47,47,9,1,,,,,,,,,,,,,,,,,,,,,,,,,,,,,,,,,,,,,,,,
,,,,,SPR24_050,20,female,2024-04-16_10h27.42.853,jersey_experiment_5_v0,2023.2.2,Win32,85.47008547,,,,,,,,,,,,,,,,405.0062,406.3003,406.3003,407.9708,return,0.1547,,69.79166667,,,,,,FBP-RB-81.png,0.43,1.2,39,0.5,0,48,48,38,1,,,,,,,,,,,,,,,,,,,,,,,,,,,,,,,,,,,,,,,,
,,,,,SPR24_050,20,female,2024-04-16_10h27.42.853,jersey_experiment_5_v0,2023.2.2,Win32,85.47008547,,,,,,,,,,,,,,,,407.9711,409.2651,409.2652,410.7944,return,0.1233,,16.14583333,,,,,,FBP-RB-81.png,0.37,1.2,37,0.5,0,49,49,36,1,,,,,,,,,,,,,,,,,,,,,,,,,,,,,,,,,,,,,,,,
,,,,,SPR24_050,20,female,2024-04-16_10h27.42.853,jersey_experiment_5_v0,2023.2.2,Win32,85.47008547,,,,,,,,,,,,,,,,410.7948,412.0887,412.0888,413.5358,return,0.2369,,77.734375,,,,,,FBP-RB-71.png,0.45,1.2,35,0.5,0,50,50,34,1,,,,,,,,,,,,,,,,,,,,,,,,,,,,,,,,,,,,,,,,
,,,,,SPR24_050,20,female,2024-04-16_10h27.42.853,jersey_experiment_5_v0,2023.2.2,Win32,85.47008547,,,,,,,,,,,,,,,,413.536,414.5828,414.5828,417.1829,return,0.1305,,41.53645833,,,,,,FBP-YG-81.png,0.4,1.2,23,0.25,0,51,51,22,1,,,,,,,,,,,,,,,,,,,,,,,,,,,,,,,,,,,,,,,,
,,,,,SPR24_050,20,female,2024-04-16_10h27.42.853,jersey_experiment_5_v0,2023.2.2,Win32,85.47008547,,,,,,,,,,,,,,,,417.1831,418.23,418.2301,419.23,return,0.2015,,36.58854167,,,,,,FBP-YG-71.png,0.4,1.2,18,0.25,0,52,52,17,1,,,,,,,,,,,,,,,,,,,,,,,,,,,,,,,,,,,,,,,,
,,,,,SPR24_050,20,female,2024-04-16_10h27.42.853,jersey_experiment_5_v0,2023.2.2,Win32,85.47008547,,,,,,,,,,,,,,,,419.2301,420.5241,420.5242,422.0419,return,0.1132,,78.64583333,,,,,,FBP-OG-17.png,0.45,1.2,5,0.5,0,53,53,4,1,,,,,,,,,,,,,,,,,,,,,,,,,,,,,,,,,,,,,,,,
,,,,,SPR24_050,20,female,2024-04-16_10h27.42.853,jersey_experiment_5_v0,2023.2.2,Win32,85.47008547,,,,,,,,,,,,,,,,422.0421,423.336,423.3361,426.9479,return,0.4945,,51.171875,,,,,,FBP-OG-19.png,0.4,1.2,13,0.5,0,54,54,12,1,,,,,,,,,,,,,,,,,,,,,,,,,,,,,,,,,,,,,,,,
,,,,,SPR24_050,20,female,2024-04-16_10h27.42.853,jersey_experiment_5_v0,2023.2.2,Win32,85.47008547,,,,,,,,,,,,,,,,426.9481,428.2422,428.2422,430.2071,return,0.3776,,3.90625,,,,,,FBP-OG-18.png,0.35,1.2,6,0.5,0,55,55,5,1,,,,,,,,,,,,,,,,,,,,,,,,,,,,,,,,,,,,,,,,
,,,,,SPR24_050,20,female,2024-04-16_10h27.42.853,jersey_experiment_5_v0,2023.2.2,Win32,85.47008547,,,,,,,,,,,,,,,,430.2072,431.2541,431.2541,432.3953,return,0.206,,0.130208333,,,,,,FBP-PT-81.png,0.35,1.2,51,0.25,0,56,56,50,1,,,,,,,,,,,,,,,,,,,,,,,,,,,,,,,,,,,,,,,,
,,,,,SPR24_050,20,female,2024-04-16_10h27.42.853,jersey_experiment_5_v0,2023.2.2,Win32,85.47008547,,,,,,,,,,,,,,,,432.3956,433.4423,433.4423,435.9013,return,0.1198,,49.609375,,,,,,FBP-PT-81.png,0.4,1.2,53,0.25,0,57,57,52,1,,,,,,,,,,,,,,,,,,,,,,,,,,,,,,,,,,,,,,,,
,,,,,SPR24_050,20,female,2024-04-16_10h27.42.853,jersey_experiment_5_v0,2023.2.2,Win32,85.47008547,,,,,,,,,,,,,,,,435.9016,436.9483,436.9483,438.3014,return,0.2138,,42.31770833,,,,,,FBP-YG-91.png,0.4,1.2,28,0.25,0,58,58,27,1,,,,,,,,,,,,,,,,,,,,,,,,,,,,,,,,,,,,,,,,
,,,,,SPR24_050,20,female,2024-04-16_10h27.42.853,jersey_experiment_5_v0,2023.2.2,Win32,85.47008547,,,,,,,,,,,,,,,,438.3016,439.5955,439.5956,441.6309,return,0.7551,,76.171875,,,,,,FBP-RB-81.png,0.45,1.2,40,0.5,0,59,59,39,1,,,,,,,,,,,,,,,,,,,,,,,,,,,,,,,,,,,,,,,,
,,,,,SPR24_050,20,female,2024-04-16_10h27.42.853,jersey_experiment_5_v0,2023.2.2,Win32,85.47008547,,,,,,,,,,,,,,,,,,,,,,,,,,,,,,,,,,,,,,,441.6313,561.6238,,,,,,,,,,,,,,,,,,,,,,,,,,,,,,,,,,,,,,
,,,,,SPR24_050,20,female,2024-04-16_10h27.42.853,jersey_experiment_5_v0,2023.2.2,Win32,85.47008547,,,,,,,,,,,,,,,,,,,,,,,,,,,,,,,,,,,,,,,,,561.6239,564.8591,return,3.2295,,,,,,,,,,,,,,,,,,,,,,,,,,,,,,,,,,
,,,,,SPR24_050,20,female,2024-04-16_10h27.42.853,jersey_experiment_5_v0,2023.2.2,Win32,85.47008547,,,,,,,,,,,,,,,,564.8655,566.1652,566.1653,569.0592,return,0.7303,,50,,,,,,FBP-YG-18.png,0.43,1.2,24,0.5,,,,,,,,,,,,,0,0,0,23,1,,,,,,,,,,,,,,,,,,,,,,,,,,,,
,,,,,SPR24_050,20,female,2024-04-16_10h27.42.853,jersey_experiment_5_v0,2023.2.2,Win32,85.47008547,,,,,,,,,,,,,,,,569.0594,570.3533,570.3533,571.8004,return,0.3479,,70.18229167,,,,,,FBP-YG-17.png,0.45,1.2,20,0.5,,,,,,,,,,,,,0,1,1,19,1,,,,,,,,,,,,,,,,,,,,,,,,,,,,
,,,,,SPR24_050,20,female,2024-04-16_10h27.42.853,jersey_experiment_5_v0,2023.2.2,Win32,85.47008547,,,,,,,,,,,,,,,,571.8007,572.8475,572.8476,574.0829,return,0.5986,,63.41145833,,,,,,FBP-RB-19.png,0.43,1.2,44,0.25,,,,,,,,,,,,,0,2,2,43,1,,,,,,,,,,,,,,,,,,,,,,,,,,,,
,,,,,SPR24_050,20,female,2024-04-16_10h27.42.853,jersey_experiment_5_v0,2023.2.2,Win32,85.47008547,,,,,,,,,,,,,,,,574.0831,575.377,575.3771,576.5536,return,0.7475,,66.66666667,,,,,,FBP-YG-17.png,0.43,1.2,19,0.5,,,,,,,,,,,,,0,3,3,18,1,,,,,,,,,,,,,,,,,,,,,,,,,,,,
,,,,,SPR24_050,20,female,2024-04-16_10h27.42.853,jersey_experiment_5_v0,2023.2.2,Win32,85.47008547,,,,,,,,,,,,,,,,576.5538,577.8476,577.8478,579.683,return,0.0708,,13.54166667,,,,,,FBP-PT-17.png,0.35,1.2,46,0.5,,,,,,,,,,,,,0,4,4,45,1,,,,,,,,,,,,,,,,,,,,,,,,,,,,
,,,,,SPR24_050,20,female,2024-04-16_10h27.42.853,jersey_experiment_5_v0,2023.2.2,Win32,85.47008547,,,,,,,,,,,,,,,,579.6832,580.9772,580.9772,582.0597,return,0.0393,,70.05208333,,,,,,FBP-PT-17.png,0.43,1.2,49,0.5,,,,,,,,,,,,,0,5,5,48,1,,,,,,,,,,,,,,,,,,,,,,,,,,,,
,,,,,SPR24_050,20,female,2024-04-16_10h27.42.853,jersey_experiment_5_v0,2023.2.2,Win32,85.47008547,,,,,,,,,,,,,,,,582.0599,583.3539,583.354,584.2009,return,0.113,,0.260416667,,,,,,FBP-YG-19.png,0.35,1.2,26,0.5,,,,,,,,,,,,,0,6,6,25,1,,,,,,,,,,,,,,,,,,,,,,,,,,,,
,,,,,SPR24_050,20,female,2024-04-16_10h27.42.853,jersey_experiment_5_v0,2023.2.2,Win32,85.47008547,,,,,,,,,,,,,,,,584.2012,585.248,585.2481,586.3304,return,0.0282,,7.421875,,,,,,FBP-RB-17.png,0.37,1.2,32,0.25,,,,,,,,,,,,,0,7,7,31,1,,,,,,,,,,,,,,,,,,,,,,,,,,,,
,,,,,SPR24_050,20,female,2024-04-16_10h27.42.853,jersey_experiment_5_v0,2023.2.2,Win32,85.47008547,,,,,,,,,,,,,,,,586.3307,587.6246,587.6246,588.7541,return,0.1327,,94.40104167,,,,,,FBP-PT-18.png,0.45,1.2,55,0.5,,,,,,,,,,,,,0,8,8,54,1,,,,,,,,,,,,,,,,,,,,,,,,,,,,
,,,,,SPR24_050,20,female,2024-04-16_10h27.42.853,jersey_experiment_5_v0,2023.2.2,Win32,85.47008547,,,,,,,,,,,,,,,,588.7543,589.8011,589.8011,590.5424,return,0.0704,,94.79166667,,,,,,FBP-RB-17.png,0.43,1.2,34,0.25,,,,,,,,,,,,,0,9,9,33,1,,,,,,,,,,,,,,,,,,,,,,,,,,,,
,,,,,SPR24_050,20,female,2024-04-16_10h27.42.853,jersey_experiment_5_v0,2023.2.2,Win32,85.47008547,,,,,,,,,,,,,,,,590.5427,591.5893,591.5893,592.9072,return,0.0997,,10.02604167,,,,,,FBP-OG-71.png,0.37,1.2,2,0.25,,,,,,,,,,,,,0,10,10,1,1,,,,,,,,,,,,,,,,,,,,,,,,,,,,
,,,,,SPR24_050,20,female,2024-04-16_10h27.42.853,jersey_experiment_5_v0,2023.2.2,Win32,85.47008547,,,,,,,,,,,,,,,,592.9074,593.9543,593.9543,596.2248,return,0.1048,,47.265625,,,,,,FBP-RB-18.png,0.4,1.2,38,0.25,,,,,,,,,,,,,0,11,11,37,1,,,,,,,,,,,,,,,,,,,,,,,,,,,,
,,,,,SPR24_050,20,female,2024-04-16_10h27.42.853,jersey_experiment_5_v0,2023.2.2,Win32,85.47008547,,,,,,,,,,,,,,,,596.2251,597.5189,597.5189,598.9897,return,0.1429,,17.44791667,,,,,,FBP-PT-17.png,0.37,1.2,47,0.5,,,,,,,,,,,,,0,12,12,46,1,,,,,,,,,,,,,,,,,,,,,,,,,,,,
,,,,,SPR24_050,20,female,2024-04-16_10h27.42.853,jersey_experiment_5_v0,2023.2.2,Win32,85.47008547,,,,,,,,,,,,,,,,598.9898,600.0368,600.0368,601.0721,return,0.0817,,1.692708333,,,,,,FBP-RB-17.png,0.35,1.2,31,0.25,,,,,,,,,,,,,0,13,13,30,1,,,,,,,,,,,,,,,,,,,,,,,,,,,,
,,,,,SPR24_050,20,female,2024-04-16_10h27.42.853,jersey_experiment_5_v0,2023.2.2,Win32,85.47008547,,,,,,,,,,,,,,,,601.0723,602.3661,602.3662,603.6017,return,0.2603,,8.984375,,,,,,FBP-PT-18.png,0.37,1.2,52,0.5,,,,,,,,,,,,,0,14,14,51,1,,,,,,,,,,,,,,,,,,,,,,,,,,,,
,,,,,SPR24_050,20,female,2024-04-16_10h27.42.853,jersey_experiment_5_v0,2023.2.2,Win32,85.47008547,,,,,,,,,,,,,,,,603.602,604.8959,604.896,605.884,return,0.1204,,99.609375,,,,,,FBP-YG-19.png,0.45,1.2,30,0.5,,,,,,,,,,,,,0,15,15,29,1,,,,,,,,,,,,,,,,,,,,,,,,,,,,
,,,,,SPR24_050,20,female,2024-04-16_10h27.42.853,jersey_experiment_5_v0,2023.2.2,Win32,85.47008547,,,,,,,,,,,,,,,,605.8842,606.9311,606.9311,607.6254,return,0.1698,,97.39583333,,,,,,FBP-RB-18.png,0.45,1.2,40,0.25,,,,,,,,,,,,,0,16,16,39,1,,,,,,,,,,,,,,,,,,,,,,,,,,,,
,,,,,SPR24_050,20,female,2024-04-16_10h27.42.853,jersey_experiment_5_v0,2023.2.2,Win32,85.47008547,,,,,,,,,,,,,,,,607.6255,608.9198,608.9198,610.8608,return,0.7681,,12.36979167,,,,,,FBP-YG-17.png,0.37,1.2,17,0.5,,,,,,,,,,,,,0,17,17,16,1,,,,,,,,,,,,,,,,,,,,,,,,,,,,
,,,,,SPR24_050,20,female,2024-04-16_10h27.42.853,jersey_experiment_5_v0,2023.2.2,Win32,85.47008547,,,,,,,,,,,,,,,,610.8611,612.155,612.155,613.0845,return,0.0504,,99.86979167,,,,,,FBP-YG-18.png,0.45,1.2,25,0.5,,,,,,,,,,,,,0,18,18,24,1,,,,,,,,,,,,,,,,,,,,,,,,,,,,
,,,,,SPR24_050,20,female,2024-04-16_10h27.42.853,jersey_experiment_5_v0,2023.2.2,Win32,85.47008547,,,,,,,,,,,,,,,,613.0847,614.1314,614.1314,615.3904,return,0.1415,,5.729166667,,,,,,FBP-OG-71.png,0.35,1.2,1,0.25,,,,,,,,,,,,,0,19,19,0,1,,,,,,,,,,,,,,,,,,,,,,,,,,,,
,,,,,SPR24_050,20,female,2024-04-16_10h27.42.853,jersey_experiment_5_v0,2023.2.2,Win32,85.47008547,,,,,,,,,,,,,,,,615.3905,616.6845,616.6845,617.8729,return,0.0569,,0.390625,,,,,,FBP-PT-19.png,0.35,1.2,56,0.5,,,,,,,,,,,,,0,20,20,55,1,,,,,,,,,,,,,,,,,,,,,,,,,,,,
,,,,,SPR24_050,20,female,2024-04-16_10h27.42.853,jersey_experiment_5_v0,2023.2.2,Win32,85.47008547,,,,,,,,,,,,,,,,617.873,618.9198,618.9199,619.4376,return,0.0023,,0.390625,,,,,,FBP-RB-18.png,0.35,1.2,36,0.25,,,,,,,,,,,,,0,21,21,35,1,,,,,,,,,,,,,,,,,,,,,,,,,,,,
,,,,,SPR24_050,20,female,2024-04-16_10h27.42.853,jersey_experiment_5_v0,2023.2.2,Win32,85.47008547,,,,,,,,,,,,,,,,619.4378,620.7316,620.7317,623.3554,return,0.0867,,52.99479167,,,,,,FBP-YG-19.png,0.4,1.2,28,0.5,,,,,,,,,,,,,0,22,22,27,1,,,,,,,,,,,,,,,,,,,,,,,,,,,,
,,,,,SPR24_050,20,female,2024-04-16_10h27.42.853,jersey_experiment_5_v0,2023.2.2,Win32,85.47008547,,,,,,,,,,,,,,,,623.3556,624.4023,624.4024,626.2023,return,0.124,,36.71875,,,,,,FBP-RB-19.png,0.37,1.2,42,0.25,,,,,,,,,,,,,0,23,23,41,1,,,,,,,,,,,,,,,,,,,,,,,,,,,,
,,,,,SPR24_050,20,female,2024-04-16_10h27.42.853,jersey_experiment_5_v0,2023.2.2,Win32,85.47008547,,,,,,,,,,,,,,,,626.2025,627.2496,627.2496,628.9909,return,0.4846,,64.97395833,,,,,,FBP-RB-19.png,0.4,1.2,43,0.25,,,,,,,,,,,,,0,24,24,42,1,,,,,,,,,,,,,,,,,,,,,,,,,,,,
,,,,,SPR24_050,20,female,2024-04-16_10h27.42.853,jersey_experiment_5_v0,2023.2.2,Win32,85.47008547,,,,,,,,,,,,,,,,628.9911,630.0378,630.0379,631.1676,return,0.1766,,91.015625,,,,,,FBP-OG-81.png,0.43,1.2,9,0.25,,,,,,,,,,,,,0,25,25,8,1,,,,,,,,,,,,,,,,,,,,,,,,,,,,
,,,,,SPR24_050,20,female,2024-04-16_10h27.42.853,jersey_experiment_5_v0,2023.2.2,Win32,85.47008547,,,,,,,,,,,,,,,,631.1678,632.4616,632.4617,633.4267,return,0.0098,,98.4375,,,,,,FBP-PT-17.png,0.45,1.2,50,0.5,,,,,,,,,,,,,0,26,26,49,1,,,,,,,,,,,,,,,,,,,,,,,,,,,,
,,,,,SPR24_050,20,female,2024-04-16_10h27.42.853,jersey_experiment_5_v0,2023.2.2,Win32,85.47008547,,,,,,,,,,,,,,,,633.4268,634.7204,634.7205,635.8028,return,0.0388,,16.015625,,,,,,FBP-YG-18.png,0.37,1.2,22,0.5,,,,,,,,,,,,,0,27,27,21,1,,,,,,,,,,,,,,,,,,,,,,,,,,,,
,,,,,SPR24_050,20,female,2024-04-16_10h27.42.853,jersey_experiment_5_v0,2023.2.2,Win32,85.47008547,,,,,,,,,,,,,,,,635.803,636.8499,636.8499,638.2854,return,0.0968,,91.015625,,,,,,FBP-RB-18.png,0.43,1.2,39,0.25,,,,,,,,,,,,,0,28,28,38,1,,,,,,,,,,,,,,,,,,,,,,,,,,,,
,,,,,SPR24_050,20,female,2024-04-16_10h27.42.853,jersey_experiment_5_v0,2023.2.2,Win32,85.47008547,,,,,,,,,,,,,,,,638.2856,639.3325,639.3325,641.203,return,0.4949,,9.635416667,,,,,,FBP-RB-18.png,0.37,1.2,37,0.25,,,,,,,,,,,,,0,29,29,36,1,,,,,,,,,,,,,,,,,,,,,,,,,,,,
,,,,,SPR24_050,20,female,2024-04-16_10h27.42.853,jersey_experiment_5_v0,2023.2.2,Win32,85.47008547,,,,,,,,,,,,,,,,641.2033,642.4971,642.4972,643.2502,return,0.1175,,0.911458333,,,,,,FBP-YG-17.png,0.35,1.2,16,0.5,,,,,,,,,,,,,0,30,30,15,1,,,,,,,,,,,,,,,,,,,,,,,,,,,,
,,,,,SPR24_050,20,female,2024-04-16_10h27.42.853,jersey_experiment_5_v0,2023.2.2,Win32,85.47008547,,,,,,,,,,,,,,,,643.2505,644.2972,644.2972,645.8739,return,0.0802,,71.74479167,,,,,,FBP-OG-91.png,0.43,1.2,14,0.25,,,,,,,,,,,,,0,31,31,13,1,,,,,,,,,,,,,,,,,,,,,,,,,,,,
,,,,,SPR24_050,20,female,2024-04-16_10h27.42.853,jersey_experiment_5_v0,2023.2.2,Win32,85.47008547,,,,,,,,,,,,,,,,645.8741,647.168,647.168,648.6387,return,0.6024,,62.890625,,,,,,FBP-YG-17.png,0.4,1.2,18,0.5,,,,,,,,,,,,,0,32,32,17,1,,,,,,,,,,,,,,,,,,,,,,,,,,,,
,,,,,SPR24_050,20,female,2024-04-16_10h27.42.853,jersey_experiment_5_v0,2023.2.2,Win32,85.47008547,,,,,,,,,,,,,,,,648.639,649.6856,649.6857,650.9448,return,0.1885,,99.86979167,,,,,,FBP-OG-81.png,0.45,1.2,10,0.25,,,,,,,,,,,,,0,33,33,9,1,,,,,,,,,,,,,,,,,,,,,,,,,,,,
,,,,,SPR24_050,20,female,2024-04-16_10h27.42.853,jersey_experiment_5_v0,2023.2.2,Win32,85.47008547,,,,,,,,,,,,,,,,650.945,651.9918,651.9918,652.9448,return,0.1544,,98.4375,,,,,,FBP-OG-71.png,0.43,1.2,4,0.25,,,,,,,,,,,,,0,34,34,3,1,,,,,,,,,,,,,,,,,,,,,,,,,,,,
,,,,,SPR24_050,20,female,2024-04-16_10h27.42.853,jersey_experiment_5_v0,2023.2.2,Win32,85.47008547,,,,,,,,,,,,,,,,652.9449,654.2387,654.2388,655.8271,return,0.0709,,49.86979167,,,,,,FBP-PT-17.png,0.4,1.2,48,0.5,,,,,,,,,,,,,0,35,35,47,1,,,,,,,,,,,,,,,,,,,,,,,,,,,,
,,,,,SPR24_050,20,female,2024-04-16_10h27.42.853,jersey_experiment_5_v0,2023.2.2,Win32,85.47008547,,,,,,,,,,,,,,,,655.8273,656.8742,656.8742,658.4038,return,0.1543,,23.4375,,,,,,FBP-OG-71.png,0.4,1.2,3,0.25,,,,,,,,,,,,,0,36,36,2,1,,,,,,,,,,,,,,,,,,,,,,,,,,,,
,,,,,SPR24_050,20,female,2024-04-16_10h27.42.853,jersey_experiment_5_v0,2023.2.2,Win32,85.47008547,,,,,,,,,,,,,,,,658.4039,659.6978,659.6978,661.1214,return,0.763,,14.19270833,,,,,,FBP-PT-19.png,0.37,1.2,57,0.5,,,,,,,,,,,,,0,37,37,56,1,,,,,,,,,,,,,,,,,,,,,,,,,,,,
,,,,,SPR24_050,20,female,2024-04-16_10h27.42.853,jersey_experiment_5_v0,2023.2.2,Win32,85.47008547,,,,,,,,,,,,,,,,661.1216,662.1685,662.1685,663.498,return,0.1478,,87.5,,,,,,FBP-OG-91.png,0.45,1.2,15,0.25,,,,,,,,,,,,,0,38,38,14,1,,,,,,,,,,,,,,,,,,,,,,,,,,,,
,,,,,SPR24_050,20,female,2024-04-16_10h27.42.853,jersey_experiment_5_v0,2023.2.2,Win32,85.47008547,,,,,,,,,,,,,,,,663.4983,664.7922,664.7922,665.5806,return,0.2518,,90.625,,,,,,FBP-PT-19.png,0.45,1.2,60,0.5,,,,,,,,,,,,,0,39,39,59,1,,,,,,,,,,,,,,,,,,,,,,,,,,,,
,,,,,SPR24_050,20,female,2024-04-16_10h27.42.853,jersey_experiment_5_v0,2023.2.2,Win32,85.47008547,,,,,,,,,,,,,,,,665.5808,666.6276,666.6276,668.569,return,0.1377,,16.66666667,,,,,,FBP-RB-17.png,0.4,1.2,33,0.25,,,,,,,,,,,,,0,40,40,32,1,,,,,,,,,,,,,,,,,,,,,,,,,,,,
,,,,,SPR24_050,20,female,2024-04-16_10h27.42.853,jersey_experiment_5_v0,2023.2.2,Win32,85.47008547,,,,,,,,,,,,,,,,668.5692,669.8629,669.863,670.4513,return,0.1081,,16.66666667,,,,,,FBP-YG-18.png,0.4,1.2,23,0.5,,,,,,,,,,,,,0,41,41,22,1,,,,,,,,,,,,,,,,,,,,,,,,,,,,
,,,,,SPR24_050,20,female,2024-04-16_10h27.42.853,jersey_experiment_5_v0,2023.2.2,Win32,85.47008547,,,,,,,,,,,,,,,,670.4516,671.7453,671.7453,672.5454,return,0.1409,,3.515625,,,,,,FBP-YG-18.png,0.35,1.2,21,0.5,,,,,,,,,,,,,0,42,42,20,1,,,,,,,,,,,,,,,,,,,,,,,,,,,,
,,,,,SPR24_050,20,female,2024-04-16_10h27.42.853,jersey_experiment_5_v0,2023.2.2,Win32,85.47008547,,,,,,,,,,,,,,,,672.5456,673.5925,673.5926,674.9927,return,0.8386,,3.385416667,,,,,,FBP-OG-81.png,0.37,1.2,7,0.25,,,,,,,,,,,,,0,43,43,6,1,,,,,,,,,,,,,,,,,,,,,,,,,,,,
,,,,,SPR24_050,20,female,2024-04-16_10h27.42.853,jersey_experiment_5_v0,2023.2.2,Win32,85.47008547,,,,,,,,,,,,,,,,674.9929,676.0395,676.0396,678.0751,return,1.053,,11.328125,,,,,,FBP-OG-91.png,0.4,1.2,13,0.25,,,,,,,,,,,,,0,44,44,12,1,,,,,,,,,,,,,,,,,,,,,,,,,,,,
,,,,,SPR24_050,20,female,2024-04-16_10h27.42.853,jersey_experiment_5_v0,2023.2.2,Win32,85.47008547,,,,,,,,,,,,,,,,678.0754,679.3692,679.3693,681.169,return,0.0814,,67.70833333,,,,,,FBP-PT-18.png,0.43,1.2,54,0.5,,,,,,,,,,,,,0,45,45,53,1,,,,,,,,,,,,,,,,,,,,,,,,,,,,
,,,,,SPR24_050,20,female,2024-04-16_10h27.42.853,jersey_experiment_5_v0,2023.2.2,Win32,85.47008547,,,,,,,,,,,,,,,,681.1693,682.2164,682.2164,683.5459,return,0.1116,,2.604166667,,,,,,FBP-RB-19.png,0.35,1.2,41,0.25,,,,,,,,,,,,,0,46,46,40,1,,,,,,,,,,,,,,,,,,,,,,,,,,,,
,,,,,SPR24_050,20,female,2024-04-16_10h27.42.853,jersey_experiment_5_v0,2023.2.2,Win32,85.47008547,,,,,,,,,,,,,,,,683.5461,684.5929,684.5929,685.1693,return,0.0943,,2.864583333,,,,,,FBP-OG-81.png,0.35,1.2,6,0.25,,,,,,,,,,,,,0,47,47,5,1,,,,,,,,,,,,,,,,,,,,,,,,,,,,
,,,,,SPR24_050,20,female,2024-04-16_10h27.42.853,jersey_experiment_5_v0,2023.2.2,Win32,85.47008547,,,,,,,,,,,,,,,,685.1696,686.2165,686.2165,687.6991,return,0.0941,,97.78645833,,,,,,FBP-OG-71.png,0.45,1.2,5,0.25,,,,,,,,,,,,,0,48,48,4,1,,,,,,,,,,,,,,,,,,,,,,,,,,,,
,,,,,SPR24_050,20,female,2024-04-16_10h27.42.853,jersey_experiment_5_v0,2023.2.2,Win32,85.47008547,,,,,,,,,,,,,,,,687.6992,688.9931,688.9932,690.9579,return,0.7801,,6.901041667,,,,,,FBP-YG-19.png,0.37,1.2,27,0.5,,,,,,,,,,,,,0,49,49,26,1,,,,,,,,,,,,,,,,,,,,,,,,,,,,
,,,,,SPR24_050,20,female,2024-04-16_10h27.42.853,jersey_experiment_5_v0,2023.2.2,Win32,85.47008547,,,,,,,,,,,,,,,,690.9581,692.0049,692.005,693.4403,return,0.5188,,1.5625,,,,,,FBP-OG-91.png,0.37,1.2,12,0.25,,,,,,,,,,,,,0,50,50,11,1,,,,,,,,,,,,,,,,,,,,,,,,,,,,
,,,,,SPR24_050,20,female,2024-04-16_10h27.42.853,jersey_experiment_5_v0,2023.2.2,Win32,85.47008547,,,,,,,,,,,,,,,,693.4406,694.4873,694.4873,695.0755,return,0.1172,,1.692708333,,,,,,FBP-OG-91.png,0.35,1.2,11,0.25,,,,,,,,,,,,,0,51,51,10,1,,,,,,,,,,,,,,,,,,,,,,,,,,,,
,,,,,SPR24_050,20,female,2024-04-16_10h27.42.853,jersey_experiment_5_v0,2023.2.2,Win32,85.47008547,,,,,,,,,,,,,,,,695.0757,696.1228,696.1228,697.7581,return,0.0822,,50.52083333,,,,,,FBP-OG-81.png,0.4,1.2,8,0.25,,,,,,,,,,,,,0,52,52,7,1,,,,,,,,,,,,,,,,,,,,,,,,,,,,
,,,,,SPR24_050,20,female,2024-04-16_10h27.42.853,jersey_experiment_5_v0,2023.2.2,Win32,85.47008547,,,,,,,,,,,,,,,,697.7584,699.0522,699.0522,700.4994,return,0.0707,,85.9375,,,,,,FBP-YG-19.png,0.43,1.2,29,0.5,,,,,,,,,,,,,0,53,53,28,1,,,,,,,,,,,,,,,,,,,,,,,,,,,,
,,,,,SPR24_050,20,female,2024-04-16_10h27.42.853,jersey_experiment_5_v0,2023.2.2,Win32,85.47008547,,,,,,,,,,,,,,,,700.4995,701.7935,701.7935,703.6171,return,0.0239,,9.114583333,,,,,,FBP-PT-18.png,0.35,1.2,51,0.5,,,,,,,,,,,,,0,54,54,50,1,,,,,,,,,,,,,,,,,,,,,,,,,,,,
,,,,,SPR24_050,20,female,2024-04-16_10h27.42.853,jersey_experiment_5_v0,2023.2.2,Win32,85.47008547,,,,,,,,,,,,,,,,703.6174,704.9114,704.9114,706.5114,return,0.0358,,54.16666667,,,,,,FBP-PT-18.png,0.4,1.2,53,0.5,,,,,,,,,,,,,0,55,55,52,1,,,,,,,,,,,,,,,,,,,,,,,,,,,,
,,,,,SPR24_050,20,female,2024-04-16_10h27.42.853,jersey_experiment_5_v0,2023.2.2,Win32,85.47008547,,,,,,,,,,,,,,,,706.5117,707.8056,707.8056,708.5113,return,0.0584,,54.03645833,,,,,,FBP-PT-19.png,0.4,1.2,58,0.5,,,,,,,,,,,,,0,56,56,57,1,,,,,,,,,,,,,,,,,,,,,,,,,,,,
,,,,,SPR24_050,20,female,2024-04-16_10h27.42.853,jersey_experiment_5_v0,2023.2.2,Win32,85.47008547,,,,,,,,,,,,,,,,708.5116,709.5584,709.5584,711.0174,return,0.0516,,91.40625,,,,,,FBP-RB-19.png,0.45,1.2,45,0.25,,,,,,,,,,,,,0,57,57,44,1,,,,,,,,,,,,,,,,,,,,,,,,,,,,
,,,,,SPR24_050,20,female,2024-04-16_10h27.42.853,jersey_experiment_5_v0,2023.2.2,Win32,85.47008547,,,,,,,,,,,,,,,,711.0177,712.3118,712.3119,713.5352,return,0.0713,,91.27604167,,,,,,FBP-PT-19.png,0.43,1.2,59,0.5,,,,,,,,,,,,,0,58,58,58,1,,,,,,,,,,,,,,,,,,,,,,,,,,,,
,,,,,SPR24_050,20,female,2024-04-16_10h27.42.853,jersey_experiment_5_v0,2023.2.2,Win32,85.47008547,,,,,,,,,,,,,,,,713.5354,714.5822,714.5823,715.7118,return,0.0335,,96.09375,,,,,,FBP-RB-17.png,0.45,1.2,35,0.25,,,,,,,,,,,,,0,59,59,34,1,,,,,,,,,,,,,,,,,,,,,,,,,,,,
,,,,,SPR24_050,20,female,2024-04-16_10h27.42.853,jersey_experiment_5_v0,2023.2.2,Win32,85.47008547,,,,,,,,,,,,,,,,715.7131,717.0059,717.0059,717.5001,return,0.2977,,96.61458333,,,,,,FBP-PT-81.png,0.45,1.2,55,0.5,,,,,,,,,,,,,,,,,,0,0,0,54,1,,,,,,,,,,,,,,,,,,,,,,,
,,,,,SPR24_050,20,female,2024-04-16_10h27.42.853,jersey_experiment_5_v0,2023.2.2,Win32,85.47008547,,,,,,,,,,,,,,,,717.5003,718.547,718.5471,720.3236,return,0.1887,,10.80729167,,,,,,FBP-OG-19.png,0.37,1.2,12,0.25,,,,,,,,,,,,,,,,,,0,1,1,11,1,,,,,,,,,,,,,,,,,,,,,,,
,,,,,SPR24_050,20,female,2024-04-16_10h27.42.853,jersey_experiment_5_v0,2023.2.2,Win32,85.47008547,,,,,,,,,,,,,,,,720.3238,721.3707,721.3708,730.9243,return,0.6758,,2.083333333,,,,,,FBP-RB-71.png,0.35,1.2,31,0.25,,,,,,,,,,,,,,,,,,0,2,2,30,1,,,,,,,,,,,,,,,,,,,,,,,
,,,,,SPR24_050,20,female,2024-04-16_10h27.42.853,jersey_experiment_5_v0,2023.2.2,Win32,85.47008547,,,,,,,,,,,,,,,,730.9245,731.9711,731.9712,733.5359,return,0.132,,75.91145833,,,,,,FBP-RB-91.png,0.45,1.2,45,0.25,,,,,,,,,,,,,,,,,,0,3,3,44,1,,,,,,,,,,,,,,,,,,,,,,,
,,,,,SPR24_050,20,female,2024-04-16_10h27.42.853,jersey_experiment_5_v0,2023.2.2,Win32,85.47008547,,,,,,,,,,,,,,,,733.5361,734.583,734.583,735.7479,return,0.1416,,62.76041667,,,,,,FBP-OG-19.png,0.43,1.2,14,0.25,,,,,,,,,,,,,,,,,,0,4,4,13,1,,,,,,,,,,,,,,,,,,,,,,,
,,,,,SPR24_050,20,female,2024-04-16_10h27.42.853,jersey_experiment_5_v0,2023.2.2,Win32,85.47008547,,,,,,,,,,,,,,,,735.7481,736.7948,736.7948,738.4891,return,0.0655,,39.19270833,,,,,,FBP-RB-71.png,0.4,1.2,33,0.25,,,,,,,,,,,,,,,,,,0,5,5,32,1,,,,,,,,,,,,,,,,,,,,,,,
,,,,,SPR24_050,20,female,2024-04-16_10h27.42.853,jersey_experiment_5_v0,2023.2.2,Win32,85.47008547,,,,,,,,,,,,,,,,738.4894,739.7831,739.7831,741.0656,return,0.0658,,74.21875,,,,,,FBP-YG-71.png,0.43,1.2,19,0.5,,,,,,,,,,,,,,,,,,0,6,6,18,1,,,,,,,,,,,,,,,,,,,,,,,
,,,,,SPR24_050,20,female,2024-04-16_10h27.42.853,jersey_experiment_5_v0,2023.2.2,Win32,85.47008547,,,,,,,,,,,,,,,,741.0659,742.3599,742.36,743.4069,return,0.1196,,5.859375,,,,,,FBP-YG-81.png,0.35,1.2,21,0.5,,,,,,,,,,,,,,,,,,0,7,7,20,1,,,,,,,,,,,,,,,,,,,,,,,
,,,,,SPR24_050,20,female,2024-04-16_10h27.42.853,jersey_experiment_5_v0,2023.2.2,Win32,85.47008547,,,,,,,,,,,,,,,,743.4071,744.4544,744.4544,745.9952,return,0.1942,,92.44791667,,,,,,FBP-RB-81.png,0.45,1.2,40,0.25,,,,,,,,,,,,,,,,,,0,8,8,39,1,,,,,,,,,,,,,,,,,,,,,,,
,,,,,SPR24_050,20,female,2024-04-16_10h27.42.853,jersey_experiment_5_v0,2023.2.2,Win32,85.47008547,,,,,,,,,,,,,,,,745.9954,747.0422,747.0423,747.807,return,0.1769,,92.83854167,,,,,,FBP-RB-71.png,0.43,1.2,34,0.25,,,,,,,,,,,,,,,,,,0,9,9,33,1,,,,,,,,,,,,,,,,,,,,,,,
,,,,,SPR24_050,20,female,2024-04-16_10h27.42.853,jersey_experiment_5_v0,2023.2.2,Win32,85.47008547,,,,,,,,,,,,,,,,747.8072,749.1013,749.1014,750.2659,return,0.0288,,16.66666667,,,,,,FBP-YG-71.png,0.37,1.2,17,0.5,,,,,,,,,,,,,,,,,,0,10,10,16,1,,,,,,,,,,,,,,,,,,,,,,,
,,,,,SPR24_050,20,female,2024-04-16_10h27.42.853,jersey_experiment_5_v0,2023.2.2,Win32,85.47008547,,,,,,,,,,,,,,,,750.2661,751.3132,751.3132,752.6073,return,0.2239,,3.125,,,,,,FBP-RB-91.png,0.35,1.2,41,0.25,,,,,,,,,,,,,,,,,,0,11,11,40,1,,,,,,,,,,,,,,,,,,,,,,,
,,,,,SPR24_050,20,female,2024-04-16_10h27.42.853,jersey_experiment_5_v0,2023.2.2,Win32,85.47008547,,,,,,,,,,,,,,,,752.6075,753.9012,753.9012,755.4192,return,0.0986,,17.578125,,,,,,FBP-PT-71.png,0.37,1.2,47,0.5,,,,,,,,,,,,,,,,,,0,12,12,46,1,,,,,,,,,,,,,,,,,,,,,,,
,,,,,SPR24_050,20,female,2024-04-16_10h27.42.853,jersey_experiment_5_v0,2023.2.2,Win32,85.47008547,,,,,,,,,,,,,,,,755.4194,756.7133,756.7133,758.9252,return,0.5803,,42.44791667,,,,,,FBP-YG-81.png,0.43,1.2,24,0.5,,,,,,,,,,,,,,,,,,0,13,13,23,1,,,,,,,,,,,,,,,,,,,,,,,
,,,,,SPR24_050,20,female,2024-04-16_10h27.42.853,jersey_experiment_5_v0,2023.2.2,Win32,85.47008547,,,,,,,,,,,,,,,,758.9254,760.2193,760.2193,761.1369,return,0.0708,,38.80208333,,,,,,FBP-PT-71.png,0.4,1.2,48,0.5,,,,,,,,,,,,,,,,,,0,14,14,47,1,,,,,,,,,,,,,,,,,,,,,,,
,,,,,SPR24_050,20,female,2024-04-16_10h27.42.853,jersey_experiment_5_v0,2023.2.2,Win32,85.47008547,,,,,,,,,,,,,,,,761.1372,762.1841,762.1842,762.9958,return,0.2572,,39.97395833,,,,,,FBP-OG-18.png,0.4,1.2,8,0.25,,,,,,,,,,,,,,,,,,0,15,15,7,1,,,,,,,,,,,,,,,,,,,,,,,
,,,,,SPR24_050,20,female,2024-04-16_10h27.42.853,jersey_experiment_5_v0,2023.2.2,Win32,85.47008547,,,,,,,,,,,,,,,,762.996,764.0427,764.0429,765.8432,return,0.0716,,18.09895833,,,,,,FBP-OG-18.png,0.37,1.2,7,0.25,,,,,,,,,,,,,,,,,,0,16,16,6,1,,,,,,,,,,,,,,,,,,,,,,,
,,,,,SPR24_050,20,female,2024-04-16_10h27.42.853,jersey_experiment_5_v0,2023.2.2,Win32,85.47008547,,,,,,,,,,,,,,,,765.8434,766.8902,766.8902,768.2196,return,0.1445,,37.5,,,,,,FBP-OG-17.png,0.4,1.2,3,0.25,,,,,,,,,,,,,,,,,,0,17,17,2,1,,,,,,,,,,,,,,,,,,,,,,,
,,,,,SPR24_050,20,female,2024-04-16_10h27.42.853,jersey_experiment_5_v0,2023.2.2,Win32,85.47008547,,,,,,,,,,,,,,,,768.2197,769.5137,769.5138,770.4197,return,0.0236,,35.15625,,,,,,FBP-PT-91.png,0.37,1.2,57,0.5,,,,,,,,,,,,,,,,,,0,18,18,56,1,,,,,,,,,,,,,,,,,,,,,,,
,,,,,SPR24_050,20,female,2024-04-16_10h27.42.853,jersey_experiment_5_v0,2023.2.2,Win32,85.47008547,,,,,,,,,,,,,,,,770.4198,771.4667,771.4667,772.1609,return,0.1048,,35.15625,,,,,,FBP-RB-71.png,0.37,1.2,32,0.25,,,,,,,,,,,,,,,,,,0,19,19,31,1,,,,,,,,,,,,,,,,,,,,,,,
,,,,,SPR24_050,20,female,2024-04-16_10h27.42.853,jersey_experiment_5_v0,2023.2.2,Win32,85.47008547,,,,,,,,,,,,,,,,772.1611,773.455,773.455,775.0669,return,0.0741,,20.57291667,,,,,,FBP-PT-81.png,0.37,1.2,52,0.5,,,,,,,,,,,,,,,,,,0,20,20,51,1,,,,,,,,,,,,,,,,,,,,,,,
,,,,,SPR24_050,20,female,2024-04-16_10h27.42.853,jersey_experiment_5_v0,2023.2.2,Win32,85.47008547,,,,,,,,,,,,,,,,775.0671,776.3614,776.3614,778.067,return,0.7298,,63.93229167,,,,,,FBP-YG-91.png,0.43,1.2,29,0.5,,,,,,,,,,,,,,,,,,0,21,21,28,1,,,,,,,,,,,,,,,,,,,,,,,
,,,,,SPR24_050,20,female,2024-04-16_10h27.42.853,jersey_experiment_5_v0,2023.2.2,Win32,85.47008547,,,,,,,,,,,,,,,,778.0673,779.3611,779.3611,781.9026,return,1.273,,3.515625,,,,,,FBP-YG-91.png,0.37,1.2,27,0.5,,,,,,,,,,,,,,,,,,0,22,22,26,1,,,,,,,,,,,,,,,,,,,,,,,
,,,,,SPR24_050,20,female,2024-04-16_10h27.42.853,jersey_experiment_5_v0,2023.2.2,Win32,85.47008547,,,,,,,,,,,,,,,,781.9027,782.9497,782.9497,784.4319,return,0.5546,,6.119791667,,,,,,FBP-OG-17.png,0.37,1.2,2,0.25,,,,,,,,,,,,,,,,,,0,23,23,1,1,,,,,,,,,,,,,,,,,,,,,,,
,,,,,SPR24_050,20,female,2024-04-16_10h27.42.853,jersey_experiment_5_v0,2023.2.2,Win32,85.47008547,,,,,,,,,,,,,,,,784.4321,785.479,785.479,787.6909,return,0.3588,,73.17708333,,,,,,FBP-OG-17.png,0.43,1.2,4,0.25,,,,,,,,,,,,,,,,,,0,24,24,3,1,,,,,,,,,,,,,,,,,,,,,,,
,,,,,SPR24_050,20,female,2024-04-16_10h27.42.853,jersey_experiment_5_v0,2023.2.2,Win32,85.47008547,,,,,,,,,,,,,,,,787.6911,788.7381,788.7381,789.8912,return,0.1884,,3.255208333,,,,,,FBP-OG-19.png,0.35,1.2,11,0.25,,,,,,,,,,,,,,,,,,0,25,25,10,1,,,,,,,,,,,,,,,,,,,,,,,
,,,,,SPR24_050,20,female,2024-04-16_10h27.42.853,jersey_experiment_5_v0,2023.2.2,Win32,85.47008547,,,,,,,,,,,,,,,,789.8913,791.1852,791.1852,793.9617,return,0.994,,39.32291667,,,,,,FBP-YG-71.png,0.4,1.2,18,0.5,,,,,,,,,,,,,,,,,,0,26,26,17,1,,,,,,,,,,,,,,,,,,,,,,,
,,,,,SPR24_050,20,female,2024-04-16_10h27.42.853,jersey_experiment_5_v0,2023.2.2,Win32,85.47008547,,,,,,,,,,,,,,,,793.962,795.0086,795.0086,798.609,return,0.8572,,70.83333333,,,,,,FBP-RB-71.png,0.45,1.2,35,0.25,,,,,,,,,,,,,,,,,,0,27,27,34,1,,,,,,,,,,,,,,,,,,,,,,,
,,,,,SPR24_050,20,female,2024-04-16_10h27.42.853,jersey_experiment_5_v0,2023.2.2,Win32,85.47008547,,,,,,,,,,,,,,,,798.6092,799.9032,799.9032,801.2326,return,0.6484,,81.25,,,,,,FBP-PT-81.png,0.43,1.2,54,0.5,,,,,,,,,,,,,,,,,,0,28,28,53,1,,,,,,,,,,,,,,,,,,,,,,,
,,,,,SPR24_050,20,female,2024-04-16_10h27.42.853,jersey_experiment_5_v0,2023.2.2,Win32,85.47008547,,,,,,,,,,,,,,,,801.2328,802.5269,802.527,803.9503,return,0.1308,,11.06770833,,,,,,FBP-PT-91.png,0.35,1.2,56,0.5,,,,,,,,,,,,,,,,,,0,29,29,55,1,,,,,,,,,,,,,,,,,,,,,,,
,,,,,SPR24_050,20,female,2024-04-16_10h27.42.853,jersey_experiment_5_v0,2023.2.2,Win32,85.47008547,,,,,,,,,,,,,,,,803.9506,805.2444,805.2444,806.7387,return,0.1413,,72.65625,,,,,,FBP-PT-71.png,0.45,1.2,50,0.5,,,,,,,,,,,,,,,,,,0,30,30,49,1,,,,,,,,,,,,,,,,,,,,,,,
,,,,,SPR24_050,20,female,2024-04-16_10h27.42.853,jersey_experiment_5_v0,2023.2.2,Win32,85.47008547,,,,,,,,,,,,,,,,806.739,808.0328,808.0328,808.8444,return,0.2266,,66.53645833,,,,,,FBP-YG-81.png,0.4,1.2,23,0.5,,,,,,,,,,,,,,,,,,0,31,31,22,1,,,,,,,,,,,,,,,,,,,,,,,
,,,,,SPR24_050,20,female,2024-04-16_10h27.42.853,jersey_experiment_5_v0,2023.2.2,Win32,85.47008547,,,,,,,,,,,,,,,,808.8446,810.1388,810.1388,812.0095,return,0.0665,,15.625,,,,,,FBP-YG-71.png,0.35,1.2,16,0.5,,,,,,,,,,,,,,,,,,0,32,32,15,1,,,,,,,,,,,,,,,,,,,,,,,
,,,,,SPR24_050,20,female,2024-04-16_10h27.42.853,jersey_experiment_5_v0,2023.2.2,Win32,85.47008547,,,,,,,,,,,,,,,,812.0097,813.3036,813.3036,814.4449,return,0.1792,,95.18229167,,,,,,FBP-PT-91.png,0.45,1.2,60,0.5,,,,,,,,,,,,,,,,,,0,33,33,59,1,,,,,,,,,,,,,,,,,,,,,,,
,,,,,SPR24_050,20,female,2024-04-16_10h27.42.853,jersey_experiment_5_v0,2023.2.2,Win32,85.47008547,,,,,,,,,,,,,,,,814.4451,815.4919,815.492,818.2096,return,0.1649,,44.66145833,,,,,,FBP-OG-19.png,0.4,1.2,13,0.25,,,,,,,,,,,,,,,,,,0,34,34,12,1,,,,,,,,,,,,,,,,,,,,,,,
,,,,,SPR24_050,20,female,2024-04-16_10h27.42.853,jersey_experiment_5_v0,2023.2.2,Win32,85.47008547,,,,,,,,,,,,,,,,818.2098,819.5039,819.5039,820.7628,return,0.1914,,71.09375,,,,,,FBP-PT-91.png,0.43,1.2,59,0.5,,,,,,,,,,,,,,,,,,0,35,35,58,1,,,,,,,,,,,,,,,,,,,,,,,
,,,,,SPR24_050,20,female,2024-04-16_10h27.42.853,jersey_experiment_5_v0,2023.2.2,Win32,85.47008547,,,,,,,,,,,,,,,,820.763,822.0567,822.0567,823.2099,return,0.1232,,66.015625,,,,,,FBP-PT-91.png,0.4,1.2,58,0.5,,,,,,,,,,,,,,,,,,0,36,36,57,1,,,,,,,,,,,,,,,,,,,,,,,
,,,,,SPR24_050,20,female,2024-04-16_10h27.42.853,jersey_experiment_5_v0,2023.2.2,Win32,85.47008547,,,,,,,,,,,,,,,,823.2102,824.2568,824.2569,825.7629,return,0.1182,,21.61458333,,,,,,FBP-OG-18.png,0.35,1.2,6,0.25,,,,,,,,,,,,,,,,,,0,37,37,5,1,,,,,,,,,,,,,,,,,,,,,,,
,,,,,SPR24_050,20,female,2024-04-16_10h27.42.853,jersey_experiment_5_v0,2023.2.2,Win32,85.47008547,,,,,,,,,,,,,,,,825.7631,826.8101,826.8101,828.9395,return,0.194,,73.30729167,,,,,,FBP-OG-19.png,0.45,1.2,15,0.25,,,,,,,,,,,,,,,,,,0,38,38,14,1,,,,,,,,,,,,,,,,,,,,,,,
,,,,,SPR24_050,20,female,2024-04-16_10h27.42.853,jersey_experiment_5_v0,2023.2.2,Win32,85.47008547,,,,,,,,,,,,,,,,828.9396,829.9866,829.9866,831.3042,return,0.1379,,85.41666667,,,,,,FBP-OG-17.png,0.45,1.2,5,0.25,,,,,,,,,,,,,,,,,,0,39,39,4,1,,,,,,,,,,,,,,,,,,,,,,,
,,,,,SPR24_050,20,female,2024-04-16_10h27.42.853,jersey_experiment_5_v0,2023.2.2,Win32,85.47008547,,,,,,,,,,,,,,,,831.3045,832.3512,832.3513,833.5397,return,0.1188,,85.67708333,,,,,,FBP-OG-18.png,0.45,1.2,10,0.25,,,,,,,,,,,,,,,,,,0,40,40,9,1,,,,,,,,,,,,,,,,,,,,,,,
,,,,,SPR24_050,20,female,2024-04-16_10h27.42.853,jersey_experiment_5_v0,2023.2.2,Win32,85.47008547,,,,,,,,,,,,,,,,833.5398,834.5866,834.5867,835.3043,return,0.1017,,86.84895833,,,,,,FBP-OG-18.png,0.43,1.2,9,0.25,,,,,,,,,,,,,,,,,,0,41,41,8,1,,,,,,,,,,,,,,,,,,,,,,,
,,,,,SPR24_050,20,female,2024-04-16_10h27.42.853,jersey_experiment_5_v0,2023.2.2,Win32,85.47008547,,,,,,,,,,,,,,,,835.3045,836.5987,836.5988,837.4691,return,0.0497,,14.84375,,,,,,FBP-PT-81.png,0.35,1.2,51,0.5,,,,,,,,,,,,,,,,,,0,42,42,50,1,,,,,,,,,,,,,,,,,,,,,,,
,,,,,SPR24_050,20,female,2024-04-16_10h27.42.853,jersey_experiment_5_v0,2023.2.2,Win32,85.47008547,,,,,,,,,,,,,,,,837.4693,838.7633,838.7633,839.5985,return,0.0127,,9.114583333,,,,,,FBP-PT-71.png,0.35,1.2,46,0.5,,,,,,,,,,,,,,,,,,0,43,43,45,1,,,,,,,,,,,,,,,,,,,,,,,
,,,,,SPR24_050,20,female,2024-04-16_10h27.42.853,jersey_experiment_5_v0,2023.2.2,Win32,85.47008547,,,,,,,,,,,,,,,,839.5987,840.8928,840.8929,843.3399,return,1.0741,,73.046875,,,,,,FBP-YG-81.png,0.45,1.2,25,0.5,,,,,,,,,,,,,,,,,,0,44,44,24,1,,,,,,,,,,,,,,,,,,,,,,,
,,,,,SPR24_050,20,female,2024-04-16_10h27.42.853,jersey_experiment_5_v0,2023.2.2,Win32,85.47008547,,,,,,,,,,,,,,,,843.3401,844.387,844.3871,845.2813,return,0.0482,,77.08333333,,,,,,FBP-RB-81.png,0.4,1.2,38,0.25,,,,,,,,,,,,,,,,,,0,45,45,37,1,,,,,,,,,,,,,,,,,,,,,,,
,,,,,SPR24_050,20,female,2024-04-16_10h27.42.853,jersey_experiment_5_v0,2023.2.2,Win32,85.47008547,,,,,,,,,,,,,,,,845.2815,846.5754,846.5754,847.4107,return,0.1047,,77.08333333,,,,,,FBP-YG-91.png,0.4,1.2,28,0.5,,,,,,,,,,,,,,,,,,0,46,46,27,1,,,,,,,,,,,,,,,,,,,,,,,
,,,,,SPR24_050,20,female,2024-04-16_10h27.42.853,jersey_experiment_5_v0,2023.2.2,Win32,85.47008547,,,,,,,,,,,,,,,,847.4109,848.4579,848.4579,851.3756,return,1.4357,,40.88541667,,,,,,FBP-RB-91.png,0.37,1.2,42,0.25,,,,,,,,,,,,,,,,,,0,47,47,41,1,,,,,,,,,,,,,,,,,,,,,,,
,,,,,SPR24_050,20,female,2024-04-16_10h27.42.853,jersey_experiment_5_v0,2023.2.2,Win32,85.47008547,,,,,,,,,,,,,,,,851.3758,852.6698,852.6698,853.4581,return,0.1503,,40.88541667,,,,,,FBP-YG-81.png,0.37,1.2,22,0.5,,,,,,,,,,,,,,,,,,0,48,48,21,1,,,,,,,,,,,,,,,,,,,,,,,
,,,,,SPR24_050,20,female,2024-04-16_10h27.42.853,jersey_experiment_5_v0,2023.2.2,Win32,85.47008547,,,,,,,,,,,,,,,,853.4583,854.7521,854.7521,856.1405,return,0.0749,,91.015625,,,,,,FBP-YG-71.png,0.45,1.2,20,0.5,,,,,,,,,,,,,,,,,,0,49,49,19,1,,,,,,,,,,,,,,,,,,,,,,,
,,,,,SPR24_050,20,female,2024-04-16_10h27.42.853,jersey_experiment_5_v0,2023.2.2,Win32,85.47008547,,,,,,,,,,,,,,,,856.1408,857.4346,857.4346,860.2583,return,0.1283,,71.61458333,,,,,,FBP-PT-81.png,0.4,1.2,53,0.5,,,,,,,,,,,,,,,,,,0,50,50,52,1,,,,,,,,,,,,,,,,,,,,,,,
,,,,,SPR24_050,20,female,2024-04-16_10h27.42.853,jersey_experiment_5_v0,2023.2.2,Win32,85.47008547,,,,,,,,,,,,,,,,860.2585,861.3054,861.3054,862.2113,return,0.0939,,83.59375,,,,,,FBP-RB-91.png,0.43,1.2,44,0.25,,,,,,,,,,,,,,,,,,0,51,51,43,1,,,,,,,,,,,,,,,,,,,,,,,
,,,,,SPR24_050,20,female,2024-04-16_10h27.42.853,jersey_experiment_5_v0,2023.2.2,Win32,85.47008547,,,,,,,,,,,,,,,,862.2115,863.2583,863.2584,864.2583,return,0.1649,,94.27083333,,,,,,FBP-RB-81.png,0.43,1.2,39,0.25,,,,,,,,,,,,,,,,,,0,52,52,38,1,,,,,,,,,,,,,,,,,,,,,,,
,,,,,SPR24_050,20,female,2024-04-16_10h27.42.853,jersey_experiment_5_v0,2023.2.2,Win32,85.47008547,,,,,,,,,,,,,,,,864.2586,865.5528,865.5528,866.6113,return,0.3163,,32.55208333,,,,,,FBP-YG-91.png,0.35,1.2,26,0.5,,,,,,,,,,,,,,,,,,0,53,53,25,1,,,,,,,,,,,,,,,,,,,,,,,
,,,,,SPR24_050,20,female,2024-04-16_10h27.42.853,jersey_experiment_5_v0,2023.2.2,Win32,85.47008547,,,,,,,,,,,,,,,,866.6116,867.9055,867.9055,869.0233,return,0.0712,,86.06770833,,,,,,FBP-PT-71.png,0.43,1.2,49,0.5,,,,,,,,,,,,,,,,,,0,54,54,48,1,,,,,,,,,,,,,,,,,,,,,,,
,,,,,SPR24_050,20,female,2024-04-16_10h27.42.853,jersey_experiment_5_v0,2023.2.2,Win32,85.47008547,,,,,,,,,,,,,,,,869.0235,870.0703,870.0703,871.2821,return,0.1173,,10.28645833,,,,,,FBP-OG-17.png,0.35,1.2,1,0.25,,,,,,,,,,,,,,,,,,0,55,55,0,1,,,,,,,,,,,,,,,,,,,,,,,
,,,,,SPR24_050,20,female,2024-04-16_10h27.42.853,jersey_experiment_5_v0,2023.2.2,Win32,85.47008547,,,,,,,,,,,,,,,,871.2823,872.5763,872.5763,873.3411,return,0.0613,,91.53645833,,,,,,FBP-YG-91.png,0.45,1.2,30,0.5,,,,,,,,,,,,,,,,,,0,56,56,29,1,,,,,,,,,,,,,,,,,,,,,,,
,,,,,SPR24_050,20,female,2024-04-16_10h27.42.853,jersey_experiment_5_v0,2023.2.2,Win32,85.47008547,,,,,,,,,,,,,,,,873.3414,874.3882,874.3882,876.0471,return,0.0492,,6.640625,,,,,,FBP-RB-81.png,0.35,1.2,36,0.25,,,,,,,,,,,,,,,,,,0,57,57,35,1,,,,,,,,,,,,,,,,,,,,,,,
,,,,,SPR24_050,20,female,2024-04-16_10h27.42.853,jersey_experiment_5_v0,2023.2.2,Win32,85.47008547,,,,,,,,,,,,,,,,876.0473,877.0942,877.0942,878.2236,return,0.037,,63.15104167,,,,,,FBP-RB-91.png,0.4,1.2,43,0.25,,,,,,,,,,,,,,,,,,0,58,58,42,1,,,,,,,,,,,,,,,,,,,,,,,
,,,,,SPR24_050,20,female,2024-04-16_10h27.42.853,jersey_experiment_5_v0,2023.2.2,Win32,85.47008547,,,,,,,,,,,,,,,,878.2238,879.2706,879.2706,880.2356,return,0.0525,,35.546875,,,,,,FBP-RB-81.png,0.37,1.2,37,0.25,,,,,,,,,,,,,,,,,,0,59,59,36,1,,,,,,,,,,,,,,,,,,,,,,,
,,,,,SPR24_050,20,female,2024-04-16_10h27.42.853,jersey_experiment_5_v0,2023.2.2,Win32,85.47008547,,,,,,,,,,,,,,,,,,,,,,,,,,,,,,,,,,,,,,,,,,,,,,,,,,,,,,,,880.2359,890.2715,return,10.0243,,,,,,,,,,,,,,,,,,,
,,,,,SPR24_050,20,female,2024-04-16_10h27.42.853,jersey_experiment_5_v0,2023.2.2,Win32,85.47008547,,,,,,,,,,,,,,,,,,,,,,,,,,,,,,,,,,,,,,,,,,,,,,,,,,,,,,,,,,,,,890.2715,897.248,1,5.4945,return,1.4595,,,,,,,,,,,,
,,,,,SPR24_050,20,female,2024-04-16_10h27.42.853,jersey_experiment_5_v0,2023.2.2,Win32,85.47008547,,,,,,,,,,,,,,,,,,,,,,,,,,,,,,,,,,,,,,,,,,,,,,,,,,,,,,,,,,,,,,,,,,,,897.2481,974.1408,maybe how showing some slender players before you see a husky player infuence your rating on the husky player,right,70.6143,,,,,,
,,,,,SPR24_050,20,female,2024-04-16_10h27.42.853,jersey_experiment_5_v0,2023.2.2,Win32,85.47008547,,,,,,,,,,,,,,,,,,,,,,,,,,,,,,,,,,,,,,,,,,,,,,,,,,,,,,,,,,,,,,,,,,,,,,,,,,974.1409,978.6863,return,4.5299,