requirements.started,requirements.stopped,key_resp_3.keys,key_resp_3.rt,key_resp_3.duration,Subject ID,Age,Gender,date,expName,psychopyVersion,OS,frameRate,instructions1.started,instructions1.stopped,key_resp.keys,key_resp.rt,key_resp.duration,example.started,example.stopped,enter_2.keys,enter_2.rt,enter_2.duration,instructions2.started,instructions2.stopped,enter_3.keys,enter_3.rt,enter_3.duration,image.started,image.stopped,slider_2.started,slider_2.stopped,next.keys,next.rt,next.duration,slider.response,trial_block_1.thisRepN,trial_block_1.thisTrialN,trial_block_1.thisN,trial_block_1.thisIndex,trial_block_1.ran,Path,Width,Height,Index,Duration,trial_block_2.thisRepN,trial_block_2.thisTrialN,trial_block_2.thisN,trial_block_2.thisIndex,trial_block_2.ran,rest_break.started,rest_break.stopped,end_break.started,end_break.stopped,key_resp_5.keys,key_resp_5.rt,key_resp_5.duration,trial_block_3.thisRepN,trial_block_3.thisTrialN,trial_block_3.thisN,trial_block_3.thisIndex,trial_block_3.ran,trial_block_4.thisRepN,trial_block_4.thisTrialN,trial_block_4.thisN,trial_block_4.thisIndex,trial_block_4.ran,questions_intro.started,questions_intro.stopped,enter_12.keys,enter_12.rt,enter_12.duration,question2.started,question2.stopped,question_doingbest.response,question_doingbest.rt,enter_15.keys,enter_15.rt,enter_15.duration,pattern.started,pattern.stopped,pattern_2.text,enter_17.keys,enter_17.rt,enter_17.duration,thankyou.started,thankyou.stopped,enter_14.keys,enter_14.rt,enter_14.duration
0.0001,9.5226,return,9.5149,,SPR24_027,20,Female,2024-04-10_10h24.47.649,jersey_experiment_5_v0,2023.2.2,Win32,85.47008547,,,,,,,,,,,,,,,,,,,,,,,,,,,,,,,,,,,,,,,,,,,,,,,,,,,,,,,,,,,,,,,,,,,,,,,,,,,,,,
,,,,,SPR24_027,20,Female,2024-04-10_10h24.47.649,jersey_experiment_5_v0,2023.2.2,Win32,85.47008547,9.5227,17.8878,return,8.3455,,,,,,,,,,,,,,,,,,,,,,,,,,,,,,,,,,,,,,,,,,,,,,,,,,,,,,,,,,,,,,,,,,,,,,,,,,
,,,,,SPR24_027,20,Female,2024-04-10_10h24.47.649,jersey_experiment_5_v0,2023.2.2,Win32,85.47008547,,,,,,17.8879,23.6174,return,5.6901,,,,,,,,,,,,,,,,,,,,,,,,,,,,,,,,,,,,,,,,,,,,,,,,,,,,,,,,,,,,,,,,,,,,,
,,,,,SPR24_027,20,Female,2024-04-10_10h24.47.649,jersey_experiment_5_v0,2023.2.2,Win32,85.47008547,,,,,,,,,,,23.6175,38.4179,return,14.7786,,,,,,,,,,,,,,,,,,,,,,,,,,,,,,,,,,,,,,,,,,,,,,,,,,,,,,,,,,,,,,,,
,,,,,SPR24_027,20,Female,2024-04-10_10h24.47.649,jersey_experiment_5_v0,2023.2.2,Win32,85.47008547,,,,,,,,,,,,,,,,38.4251,39.4677,39.4677,46.1473,return,0.753,,24.73958333,0,0,0,50,1,FBP-PT-18.png,0.35,1.2,51,0.25,,,,,,,,,,,,,,,,,,,,,,,,,,,,,,,,,,,,,,,,,,,,,
,,,,,SPR24_027,20,Female,2024-04-10_10h24.47.649,jersey_experiment_5_v0,2023.2.2,Win32,85.47008547,,,,,,,,,,,,,,,,46.1477,47.1943,47.1943,49.8062,return,1.2994,,98.828125,0,1,1,29,1,FBP-YG-19.png,0.45,1.2,30,0.25,,,,,,,,,,,,,,,,,,,,,,,,,,,,,,,,,,,,,,,,,,,,,
,,,,,SPR24_027,20,Female,2024-04-10_10h24.47.649,jersey_experiment_5_v0,2023.2.2,Win32,85.47008547,,,,,,,,,,,,,,,,49.8065,50.8534,50.8536,54.1123,return,1.957,,89.19270833,0,2,2,54,1,FBP-PT-18.png,0.45,1.2,55,0.25,,,,,,,,,,,,,,,,,,,,,,,,,,,,,,,,,,,,,,,,,,,,,
,,,,,SPR24_027,20,Female,2024-04-10_10h24.47.649,jersey_experiment_5_v0,2023.2.2,Win32,85.47008547,,,,,,,,,,,,,,,,54.1126,55.4062,55.4064,58.2301,return,1.2942,,75.52083333,0,3,3,40,1,FBP-RB-19.png,0.35,1.2,41,0.5,,,,,,,,,,,,,,,,,,,,,,,,,,,,,,,,,,,,,,,,,,,,,
,,,,,SPR24_027,20,Female,2024-04-10_10h24.47.649,jersey_experiment_5_v0,2023.2.2,Win32,85.47008547,,,,,,,,,,,,,,,,58.2302,59.2772,59.2772,61.195,return,0.6917,,75.52083333,0,4,4,21,1,FBP-YG-18.png,0.37,1.2,22,0.25,,,,,,,,,,,,,,,,,,,,,,,,,,,,,,,,,,,,,,,,,,,,,
,,,,,SPR24_027,20,Female,2024-04-10_10h24.47.649,jersey_experiment_5_v0,2023.2.2,Win32,85.47008547,,,,,,,,,,,,,,,,61.1952,62.489,62.4891,65.3009,return,0.6357,,74.86979167,0,5,5,30,1,FBP-RB-17.png,0.35,1.2,31,0.5,,,,,,,,,,,,,,,,,,,,,,,,,,,,,,,,,,,,,,,,,,,,,
,,,,,SPR24_027,20,Female,2024-04-10_10h24.47.649,jersey_experiment_5_v0,2023.2.2,Win32,85.47008547,,,,,,,,,,,,,,,,65.3012,66.3481,66.3481,70.3248,return,0.7155,,99.609375,0,6,6,18,1,FBP-YG-17.png,0.43,1.2,19,0.25,,,,,,,,,,,,,,,,,,,,,,,,,,,,,,,,,,,,,,,,,,,,,
,,,,,SPR24_027,20,Female,2024-04-10_10h24.47.649,jersey_experiment_5_v0,2023.2.2,Win32,85.47008547,,,,,,,,,,,,,,,,70.325,71.3718,71.3718,73.2779,return,0.5594,,86.58854167,0,7,7,51,1,FBP-PT-18.png,0.37,1.2,52,0.25,,,,,,,,,,,,,,,,,,,,,,,,,,,,,,,,,,,,,,,,,,,,,
,,,,,SPR24_027,20,Female,2024-04-10_10h24.47.649,jersey_experiment_5_v0,2023.2.2,Win32,85.47008547,,,,,,,,,,,,,,,,73.2781,74.572,74.5721,76.419,return,0.7876,,68.48958333,0,8,8,0,1,FBP-OG-71.png,0.35,1.2,1,0.5,,,,,,,,,,,,,,,,,,,,,,,,,,,,,,,,,,,,,,,,,,,,,
,,,,,SPR24_027,20,Female,2024-04-10_10h24.47.649,jersey_experiment_5_v0,2023.2.2,Win32,85.47008547,,,,,,,,,,,,,,,,76.4192,77.7135,77.7135,79.3956,return,0.565,,79.81770833,0,9,9,2,1,FBP-OG-71.png,0.4,1.2,3,0.5,,,,,,,,,,,,,,,,,,,,,,,,,,,,,,,,,,,,,,,,,,,,,
,,,,,SPR24_027,20,Female,2024-04-10_10h24.47.649,jersey_experiment_5_v0,2023.2.2,Win32,85.47008547,,,,,,,,,,,,,,,,79.3959,80.6897,80.6897,81.984,return,0.6139,,92.31770833,0,10,10,32,1,FBP-RB-17.png,0.4,1.2,33,0.5,,,,,,,,,,,,,,,,,,,,,,,,,,,,,,,,,,,,,,,,,,,,,
,,,,,SPR24_027,20,Female,2024-04-10_10h24.47.649,jersey_experiment_5_v0,2023.2.2,Win32,85.47008547,,,,,,,,,,,,,,,,81.9841,83.0311,83.0311,84.6194,return,0.5145,,79.296875,0,11,11,46,1,FBP-PT-17.png,0.37,1.2,47,0.25,,,,,,,,,,,,,,,,,,,,,,,,,,,,,,,,,,,,,,,,,,,,,
,,,,,SPR24_027,20,Female,2024-04-10_10h24.47.649,jersey_experiment_5_v0,2023.2.2,Win32,85.47008547,,,,,,,,,,,,,,,,84.6196,85.9134,85.9135,87.137,return,0.5797,,80.46875,0,12,12,6,1,FBP-OG-81.png,0.37,1.2,7,0.5,,,,,,,,,,,,,,,,,,,,,,,,,,,,,,,,,,,,,,,,,,,,,
,,,,,SPR24_027,20,Female,2024-04-10_10h24.47.649,jersey_experiment_5_v0,2023.2.2,Win32,85.47008547,,,,,,,,,,,,,,,,87.1372,88.4313,88.4313,93.1019,return,3.851,,58.07291667,0,13,13,10,1,FBP-OG-91.png,0.35,1.2,11,0.5,,,,,,,,,,,,,,,,,,,,,,,,,,,,,,,,,,,,,,,,,,,,,
,,,,,SPR24_027,20,Female,2024-04-10_10h24.47.649,jersey_experiment_5_v0,2023.2.2,Win32,85.47008547,,,,,,,,,,,,,,,,93.1021,94.1492,94.1492,95.7727,return,0.5462,,74.609375,0,14,14,57,1,FBP-PT-19.png,0.4,1.2,58,0.25,,,,,,,,,,,,,,,,,,,,,,,,,,,,,,,,,,,,,,,,,,,,,
,,,,,SPR24_027,20,Female,2024-04-10_10h24.47.649,jersey_experiment_5_v0,2023.2.2,Win32,85.47008547,,,,,,,,,,,,,,,,95.7729,96.82,96.82,98.961,return,0.5209,,99.86979167,0,15,15,59,1,FBP-PT-19.png,0.45,1.2,60,0.25,,,,,,,,,,,,,,,,,,,,,,,,,,,,,,,,,,,,,,,,,,,,,
,,,,,SPR24_027,20,Female,2024-04-10_10h24.47.649,jersey_experiment_5_v0,2023.2.2,Win32,85.47008547,,,,,,,,,,,,,,,,98.9613,100.0084,100.0085,101.4906,return,0.485,,99.47916667,0,16,16,28,1,FBP-YG-19.png,0.43,1.2,29,0.25,,,,,,,,,,,,,,,,,,,,,,,,,,,,,,,,,,,,,,,,,,,,,
,,,,,SPR24_027,20,Female,2024-04-10_10h24.47.649,jersey_experiment_5_v0,2023.2.2,Win32,85.47008547,,,,,,,,,,,,,,,,101.4908,102.7846,102.7846,104.879,return,0.45,,75,0,17,17,1,1,FBP-OG-71.png,0.37,1.2,2,0.5,,,,,,,,,,,,,,,,,,,,,,,,,,,,,,,,,,,,,,,,,,,,,
,,,,,SPR24_027,20,Female,2024-04-10_10h24.47.649,jersey_experiment_5_v0,2023.2.2,Win32,85.47008547,,,,,,,,,,,,,,,,104.8792,105.926,105.926,107.5731,return,0.494,,99.47916667,0,18,18,19,1,FBP-YG-17.png,0.45,1.2,20,0.25,,,,,,,,,,,,,,,,,,,,,,,,,,,,,,,,,,,,,,,,,,,,,
,,,,,SPR24_027,20,Female,2024-04-10_10h24.47.649,jersey_experiment_5_v0,2023.2.2,Win32,85.47008547,,,,,,,,,,,,,,,,107.5733,108.6204,108.6204,110.7733,return,0.6352,,37.63020833,0,19,19,55,1,FBP-PT-19.png,0.35,1.2,56,0.25,,,,,,,,,,,,,,,,,,,,,,,,,,,,,,,,,,,,,,,,,,,,,
,,,,,SPR24_027,20,Female,2024-04-10_10h24.47.649,jersey_experiment_5_v0,2023.2.2,Win32,85.47008547,,,,,,,,,,,,,,,,110.7736,112.0676,112.0676,113.9381,return,0.5557,,99.08854167,0,20,20,9,1,FBP-OG-81.png,0.45,1.2,10,0.5,,,,,,,,,,,,,,,,,,,,,,,,,,,,,,,,,,,,,,,,,,,,,
,,,,,SPR24_027,20,Female,2024-04-10_10h24.47.649,jersey_experiment_5_v0,2023.2.2,Win32,85.47008547,,,,,,,,,,,,,,,,113.9383,114.9854,114.9855,116.4441,return,0.4646,,99.08854167,0,21,21,58,1,FBP-PT-19.png,0.43,1.2,59,0.25,,,,,,,,,,,,,,,,,,,,,,,,,,,,,,,,,,,,,,,,,,,,,
,,,,,SPR24_027,20,Female,2024-04-10_10h24.47.649,jersey_experiment_5_v0,2023.2.2,Win32,85.47008547,,,,,,,,,,,,,,,,116.4443,117.4915,117.4915,119.8442,return,0.518,,66.796875,0,22,22,25,1,FBP-YG-19.png,0.35,1.2,26,0.25,,,,,,,,,,,,,,,,,,,,,,,,,,,,,,,,,,,,,,,,,,,,,
,,,,,SPR24_027,20,Female,2024-04-10_10h24.47.649,jersey_experiment_5_v0,2023.2.2,Win32,85.47008547,,,,,,,,,,,,,,,,119.8445,121.1385,121.1385,122.1619,return,0.167,,50.13020833,0,23,23,5,1,FBP-OG-81.png,0.35,1.2,6,0.5,,,,,,,,,,,,,,,,,,,,,,,,,,,,,,,,,,,,,,,,,,,,,
,,,,,SPR24_027,20,Female,2024-04-10_10h24.47.649,jersey_experiment_5_v0,2023.2.2,Win32,85.47008547,,,,,,,,,,,,,,,,122.1621,123.2091,123.2092,124.5504,return,0.73,,74.34895833,0,24,24,27,1,FBP-YG-19.png,0.4,1.2,28,0.25,,,,,,,,,,,,,,,,,,,,,,,,,,,,,,,,,,,,,,,,,,,,,
,,,,,SPR24_027,20,Female,2024-04-10_10h24.47.649,jersey_experiment_5_v0,2023.2.2,Win32,85.47008547,,,,,,,,,,,,,,,,124.5506,125.5974,125.5975,127.1738,return,0.1505,,99.609375,0,25,25,48,1,FBP-PT-17.png,0.43,1.2,49,0.25,,,,,,,,,,,,,,,,,,,,,,,,,,,,,,,,,,,,,,,,,,,,,
,,,,,SPR24_027,20,Female,2024-04-10_10h24.47.649,jersey_experiment_5_v0,2023.2.2,Win32,85.47008547,,,,,,,,,,,,,,,,127.1741,128.4681,128.4682,129.7976,return,0.1652,,99.21875,0,26,26,13,1,FBP-OG-91.png,0.43,1.2,14,0.5,,,,,,,,,,,,,,,,,,,,,,,,,,,,,,,,,,,,,,,,,,,,,
,,,,,SPR24_027,20,Female,2024-04-10_10h24.47.649,jersey_experiment_5_v0,2023.2.2,Win32,85.47008547,,,,,,,,,,,,,,,,129.7978,130.8445,130.8445,132.5742,return,0.3001,,50,0,27,27,15,1,FBP-YG-17.png,0.35,1.2,16,0.25,,,,,,,,,,,,,,,,,,,,,,,,,,,,,,,,,,,,,,,,,,,,,
,,,,,SPR24_027,20,Female,2024-04-10_10h24.47.649,jersey_experiment_5_v0,2023.2.2,Win32,85.47008547,,,,,,,,,,,,,,,,132.5744,133.8685,133.8685,136.2566,return,0.239,,87.109375,0,28,28,43,1,FBP-RB-19.png,0.43,1.2,44,0.5,,,,,,,,,,,,,,,,,,,,,,,,,,,,,,,,,,,,,,,,,,,,,
,,,,,SPR24_027,20,Female,2024-04-10_10h24.47.649,jersey_experiment_5_v0,2023.2.2,Win32,85.47008547,,,,,,,,,,,,,,,,136.2569,137.5509,137.5509,138.4214,return,0.1883,,88.41145833,0,29,29,42,1,FBP-RB-19.png,0.4,1.2,43,0.5,,,,,,,,,,,,,,,,,,,,,,,,,,,,,,,,,,,,,,,,,,,,,
,,,,,SPR24_027,20,Female,2024-04-10_10h24.47.649,jersey_experiment_5_v0,2023.2.2,Win32,85.47008547,,,,,,,,,,,,,,,,138.4217,139.7157,139.7158,141.1744,return,0.1412,,60.546875,0,30,30,35,1,FBP-RB-18.png,0.35,1.2,36,0.5,,,,,,,,,,,,,,,,,,,,,,,,,,,,,,,,,,,,,,,,,,,,,
,,,,,SPR24_027,20,Female,2024-04-10_10h24.47.649,jersey_experiment_5_v0,2023.2.2,Win32,85.47008547,,,,,,,,,,,,,,,,141.1746,142.2216,142.2217,143.9042,return,0.1308,,89.32291667,0,31,31,22,1,FBP-YG-18.png,0.4,1.2,23,0.25,,,,,,,,,,,,,,,,,,,,,,,,,,,,,,,,,,,,,,,,,,,,,
,,,,,SPR24_027,20,Female,2024-04-10_10h24.47.649,jersey_experiment_5_v0,2023.2.2,Win32,85.47008547,,,,,,,,,,,,,,,,143.9043,144.9513,144.9513,146.3629,return,0.1949,,75,0,32,32,16,1,FBP-YG-17.png,0.37,1.2,17,0.25,,,,,,,,,,,,,,,,,,,,,,,,,,,,,,,,,,,,,,,,,,,,,
,,,,,SPR24_027,20,Female,2024-04-10_10h24.47.649,jersey_experiment_5_v0,2023.2.2,Win32,85.47008547,,,,,,,,,,,,,,,,146.363,147.6573,147.6574,148.422,return,0.0706,,99.34895833,0,33,33,8,1,FBP-OG-81.png,0.43,1.2,9,0.5,,,,,,,,,,,,,,,,,,,,,,,,,,,,,,,,,,,,,,,,,,,,,
,,,,,SPR24_027,20,Female,2024-04-10_10h24.47.649,jersey_experiment_5_v0,2023.2.2,Win32,85.47008547,,,,,,,,,,,,,,,,148.4221,149.4691,149.4691,150.4218,return,0.1504,,61.71875,0,34,34,17,1,FBP-YG-17.png,0.4,1.2,18,0.25,,,,,,,,,,,,,,,,,,,,,,,,,,,,,,,,,,,,,,,,,,,,,
,,,,,SPR24_027,20,Female,2024-04-10_10h24.47.649,jersey_experiment_5_v0,2023.2.2,Win32,85.47008547,,,,,,,,,,,,,,,,150.422,151.7162,151.7162,152.7162,return,0.2082,,98.69791667,0,35,35,34,1,FBP-RB-17.png,0.45,1.2,35,0.5,,,,,,,,,,,,,,,,,,,,,,,,,,,,,,,,,,,,,,,,,,,,,
,,,,,SPR24_027,20,Female,2024-04-10_10h24.47.649,jersey_experiment_5_v0,2023.2.2,Win32,85.47008547,,,,,,,,,,,,,,,,152.7165,153.7632,153.7632,154.9751,return,0.5909,,96.61458333,0,36,36,23,1,FBP-YG-18.png,0.43,1.2,24,0.25,,,,,,,,,,,,,,,,,,,,,,,,,,,,,,,,,,,,,,,,,,,,,
,,,,,SPR24_027,20,Female,2024-04-10_10h24.47.649,jersey_experiment_5_v0,2023.2.2,Win32,85.47008547,,,,,,,,,,,,,,,,154.9753,156.2693,156.2693,157.1514,return,0.0989,,95.57291667,0,37,37,33,1,FBP-RB-17.png,0.43,1.2,34,0.5,,,,,,,,,,,,,,,,,,,,,,,,,,,,,,,,,,,,,,,,,,,,,
,,,,,SPR24_027,20,Female,2024-04-10_10h24.47.649,jersey_experiment_5_v0,2023.2.2,Win32,85.47008547,,,,,,,,,,,,,,,,157.1518,158.4459,158.4459,159.6928,return,0.1488,,73.95833333,0,38,38,7,1,FBP-OG-81.png,0.4,1.2,8,0.5,,,,,,,,,,,,,,,,,,,,,,,,,,,,,,,,,,,,,,,,,,,,,
,,,,,SPR24_027,20,Female,2024-04-10_10h24.47.649,jersey_experiment_5_v0,2023.2.2,Win32,85.47008547,,,,,,,,,,,,,,,,159.6931,160.7402,160.7402,161.7635,return,0.1889,,73.95833333,0,39,39,52,1,FBP-PT-18.png,0.4,1.2,53,0.25,,,,,,,,,,,,,,,,,,,,,,,,,,,,,,,,,,,,,,,,,,,,,
,,,,,SPR24_027,20,Female,2024-04-10_10h24.47.649,jersey_experiment_5_v0,2023.2.2,Win32,85.47008547,,,,,,,,,,,,,,,,161.7637,162.8106,162.8106,163.7283,return,0.0956,,75.390625,0,40,40,47,1,FBP-PT-17.png,0.4,1.2,48,0.25,,,,,,,,,,,,,,,,,,,,,,,,,,,,,,,,,,,,,,,,,,,,,
,,,,,SPR24_027,20,Female,2024-04-10_10h24.47.649,jersey_experiment_5_v0,2023.2.2,Win32,85.47008547,,,,,,,,,,,,,,,,163.7286,165.0224,165.0224,165.999,return,0.0855,,99.73958333,0,41,41,38,1,FBP-RB-18.png,0.43,1.2,39,0.5,,,,,,,,,,,,,,,,,,,,,,,,,,,,,,,,,,,,,,,,,,,,,
,,,,,SPR24_027,20,Female,2024-04-10_10h24.47.649,jersey_experiment_5_v0,2023.2.2,Win32,85.47008547,,,,,,,,,,,,,,,,165.9992,167.2929,167.293,168.6225,return,0.262,,98.56770833,0,42,42,14,1,FBP-OG-91.png,0.45,1.2,15,0.5,,,,,,,,,,,,,,,,,,,,,,,,,,,,,,,,,,,,,,,,,,,,,
,,,,,SPR24_027,20,Female,2024-04-10_10h24.47.649,jersey_experiment_5_v0,2023.2.2,Win32,85.47008547,,,,,,,,,,,,,,,,168.6227,169.6697,169.6697,171.6697,return,0.0797,,57.94270833,0,43,43,56,1,FBP-PT-19.png,0.37,1.2,57,0.25,,,,,,,,,,,,,,,,,,,,,,,,,,,,,,,,,,,,,,,,,,,,,
,,,,,SPR24_027,20,Female,2024-04-10_10h24.47.649,jersey_experiment_5_v0,2023.2.2,Win32,85.47008547,,,,,,,,,,,,,,,,171.67,172.964,172.964,173.8698,return,0.0652,,99.08854167,0,44,44,44,1,FBP-RB-19.png,0.45,1.2,45,0.5,,,,,,,,,,,,,,,,,,,,,,,,,,,,,,,,,,,,,,,,,,,,,
,,,,,SPR24_027,20,Female,2024-04-10_10h24.47.649,jersey_experiment_5_v0,2023.2.2,Win32,85.47008547,,,,,,,,,,,,,,,,173.87,175.164,175.164,176.5171,return,0.1888,,24.609375,0,45,45,36,1,FBP-RB-18.png,0.37,1.2,37,0.5,,,,,,,,,,,,,,,,,,,,,,,,,,,,,,,,,,,,,,,,,,,,,
,,,,,SPR24_027,20,Female,2024-04-10_10h24.47.649,jersey_experiment_5_v0,2023.2.2,Win32,85.47008547,,,,,,,,,,,,,,,,176.5173,177.8111,177.8111,178.67,return,0.0987,,41.53645833,0,46,46,31,1,FBP-RB-17.png,0.37,1.2,32,0.5,,,,,,,,,,,,,,,,,,,,,,,,,,,,,,,,,,,,,,,,,,,,,
,,,,,SPR24_027,20,Female,2024-04-10_10h24.47.649,jersey_experiment_5_v0,2023.2.2,Win32,85.47008547,,,,,,,,,,,,,,,,178.6702,179.7173,179.7173,182.1879,return,0.0555,,75.52083333,0,47,47,53,1,FBP-PT-18.png,0.43,1.2,54,0.25,,,,,,,,,,,,,,,,,,,,,,,,,,,,,,,,,,,,,,,,,,,,,
,,,,,SPR24_027,20,Female,2024-04-10_10h24.47.649,jersey_experiment_5_v0,2023.2.2,Win32,85.47008547,,,,,,,,,,,,,,,,182.188,183.482,183.482,184.435,return,0.0939,,59.11458333,0,48,48,41,1,FBP-RB-19.png,0.37,1.2,42,0.5,,,,,,,,,,,,,,,,,,,,,,,,,,,,,,,,,,,,,,,,,,,,,
,,,,,SPR24_027,20,Female,2024-04-10_10h24.47.649,jersey_experiment_5_v0,2023.2.2,Win32,85.47008547,,,,,,,,,,,,,,,,184.4353,185.7292,185.7293,186.4938,return,0.171,,85.67708333,0,49,49,3,1,FBP-OG-71.png,0.43,1.2,4,0.5,,,,,,,,,,,,,,,,,,,,,,,,,,,,,,,,,,,,,,,,,,,,,
,,,,,SPR24_027,20,Female,2024-04-10_10h24.47.649,jersey_experiment_5_v0,2023.2.2,Win32,85.47008547,,,,,,,,,,,,,,,,186.4941,187.7881,187.7882,188.5411,return,0.1957,,98.828125,0,50,50,39,1,FBP-RB-18.png,0.45,1.2,40,0.5,,,,,,,,,,,,,,,,,,,,,,,,,,,,,,,,,,,,,,,,,,,,,
,,,,,SPR24_027,20,Female,2024-04-10_10h24.47.649,jersey_experiment_5_v0,2023.2.2,Win32,85.47008547,,,,,,,,,,,,,,,,188.5414,189.835,189.8351,190.8351,return,0.1322,,76.04166667,0,51,51,37,1,FBP-RB-18.png,0.4,1.2,38,0.5,,,,,,,,,,,,,,,,,,,,,,,,,,,,,,,,,,,,,,,,,,,,,
,,,,,SPR24_027,20,Female,2024-04-10_10h24.47.649,jersey_experiment_5_v0,2023.2.2,Win32,85.47008547,,,,,,,,,,,,,,,,190.8354,191.8822,191.8822,193.247,return,0.0291,,58.984375,0,52,52,26,1,FBP-YG-19.png,0.37,1.2,27,0.25,,,,,,,,,,,,,,,,,,,,,,,,,,,,,,,,,,,,,,,,,,,,,
,,,,,SPR24_027,20,Female,2024-04-10_10h24.47.649,jersey_experiment_5_v0,2023.2.2,Win32,85.47008547,,,,,,,,,,,,,,,,193.2472,194.2945,194.2945,195.2707,return,0.024,,98.046875,0,53,53,49,1,FBP-PT-17.png,0.45,1.2,50,0.25,,,,,,,,,,,,,,,,,,,,,,,,,,,,,,,,,,,,,,,,,,,,,
,,,,,SPR24_027,20,Female,2024-04-10_10h24.47.649,jersey_experiment_5_v0,2023.2.2,Win32,85.47008547,,,,,,,,,,,,,,,,195.2709,196.3179,196.318,198.0825,return,0.2119,,50.91145833,0,54,54,20,1,FBP-YG-18.png,0.35,1.2,21,0.25,,,,,,,,,,,,,,,,,,,,,,,,,,,,,,,,,,,,,,,,,,,,,
,,,,,SPR24_027,20,Female,2024-04-10_10h24.47.649,jersey_experiment_5_v0,2023.2.2,Win32,85.47008547,,,,,,,,,,,,,,,,198.0826,199.1297,199.1298,200.0591,return,0.1951,,35.28645833,0,55,55,45,1,FBP-PT-17.png,0.35,1.2,46,0.25,,,,,,,,,,,,,,,,,,,,,,,,,,,,,,,,,,,,,,,,,,,,,
,,,,,SPR24_027,20,Female,2024-04-10_10h24.47.649,jersey_experiment_5_v0,2023.2.2,Win32,85.47008547,,,,,,,,,,,,,,,,200.0594,201.3534,201.3534,202.1769,return,0.0481,,99.21875,0,56,56,4,1,FBP-OG-71.png,0.45,1.2,5,0.5,,,,,,,,,,,,,,,,,,,,,,,,,,,,,,,,,,,,,,,,,,,,,
,,,,,SPR24_027,20,Female,2024-04-10_10h24.47.649,jersey_experiment_5_v0,2023.2.2,Win32,85.47008547,,,,,,,,,,,,,,,,202.177,203.4712,203.4713,204.4122,return,0.1233,,75.52083333,0,57,57,12,1,FBP-OG-91.png,0.4,1.2,13,0.5,,,,,,,,,,,,,,,,,,,,,,,,,,,,,,,,,,,,,,,,,,,,,
,,,,,SPR24_027,20,Female,2024-04-10_10h24.47.649,jersey_experiment_5_v0,2023.2.2,Win32,85.47008547,,,,,,,,,,,,,,,,204.4125,205.7064,205.7064,208.1888,return,0.1254,,39.97395833,0,58,58,11,1,FBP-OG-91.png,0.37,1.2,12,0.5,,,,,,,,,,,,,,,,,,,,,,,,,,,,,,,,,,,,,,,,,,,,,
,,,,,SPR24_027,20,Female,2024-04-10_10h24.47.649,jersey_experiment_5_v0,2023.2.2,Win32,85.47008547,,,,,,,,,,,,,,,,208.1889,209.2362,209.2363,210.3536,return,0.0968,,76.04166667,0,59,59,24,1,FBP-YG-18.png,0.45,1.2,25,0.25,,,,,,,,,,,,,,,,,,,,,,,,,,,,,,,,,,,,,,,,,,,,,
,,,,,SPR24_027,20,Female,2024-04-10_10h24.47.649,jersey_experiment_5_v0,2023.2.2,Win32,85.47008547,,,,,,,,,,,,,,,,210.3554,211.4009,211.4009,213.4124,return,0.1885,,24.86979167,,,,,,FBP-PT-71.png,0.35,1.2,46,0.25,0,0,0,45,1,,,,,,,,,,,,,,,,,,,,,,,,,,,,,,,,,,,,,,,,
,,,,,SPR24_027,20,Female,2024-04-10_10h24.47.649,jersey_experiment_5_v0,2023.2.2,Win32,85.47008547,,,,,,,,,,,,,,,,213.4126,214.4598,214.4598,216.9421,return,1.5216,,35.15625,,,,,,FBP-YG-71.png,0.37,1.2,17,0.25,0,1,1,16,1,,,,,,,,,,,,,,,,,,,,,,,,,,,,,,,,,,,,,,,,
,,,,,SPR24_027,20,Female,2024-04-10_10h24.47.649,jersey_experiment_5_v0,2023.2.2,Win32,85.47008547,,,,,,,,,,,,,,,,216.9423,217.9892,217.9893,219.1539,return,0.1295,,76.5625,,,,,,FBP-YG-71.png,0.45,1.2,20,0.25,0,2,2,19,1,,,,,,,,,,,,,,,,,,,,,,,,,,,,,,,,,,,,,,,,
,,,,,SPR24_027,20,Female,2024-04-10_10h24.47.649,jersey_experiment_5_v0,2023.2.2,Win32,85.47008547,,,,,,,,,,,,,,,,219.1541,220.4482,220.4483,221.2131,return,0.0757,,40.75520833,,,,,,FBP-OG-19.png,0.37,1.2,12,0.5,0,3,3,11,1,,,,,,,,,,,,,,,,,,,,,,,,,,,,,,,,,,,,,,,,
,,,,,SPR24_027,20,Female,2024-04-10_10h24.47.649,jersey_experiment_5_v0,2023.2.2,Win32,85.47008547,,,,,,,,,,,,,,,,221.2134,222.2599,222.26,223.6365,return,0.0951,,88.02083333,,,,,,FBP-PT-71.png,0.43,1.2,49,0.25,0,4,4,48,1,,,,,,,,,,,,,,,,,,,,,,,,,,,,,,,,,,,,,,,,
,,,,,SPR24_027,20,Female,2024-04-10_10h24.47.649,jersey_experiment_5_v0,2023.2.2,Win32,85.47008547,,,,,,,,,,,,,,,,223.6367,224.9309,224.931,226.1778,return,0.1794,,99.86979167,,,,,,FBP-RB-91.png,0.45,1.2,45,0.5,0,5,5,44,1,,,,,,,,,,,,,,,,,,,,,,,,,,,,,,,,,,,,,,,,
,,,,,SPR24_027,20,Female,2024-04-10_10h24.47.649,jersey_experiment_5_v0,2023.2.2,Win32,85.47008547,,,,,,,,,,,,,,,,226.1781,227.4721,227.4721,228.3426,return,0.109,,44.921875,,,,,,FBP-RB-91.png,0.35,1.2,41,0.5,0,6,6,40,1,,,,,,,,,,,,,,,,,,,,,,,,,,,,,,,,,,,,,,,,
,,,,,SPR24_027,20,Female,2024-04-10_10h24.47.649,jersey_experiment_5_v0,2023.2.2,Win32,85.47008547,,,,,,,,,,,,,,,,228.343,229.6372,229.6372,230.2838,return,0.0653,,83.72395833,,,,,,FBP-RB-91.png,0.43,1.2,44,0.5,0,7,7,43,1,,,,,,,,,,,,,,,,,,,,,,,,,,,,,,,,,,,,,,,,
,,,,,SPR24_027,20,Female,2024-04-10_10h24.47.649,jersey_experiment_5_v0,2023.2.2,Win32,85.47008547,,,,,,,,,,,,,,,,230.284,231.5781,231.5781,232.3192,return,0.0405,,97.78645833,,,,,,FBP-OG-17.png,0.4,1.2,3,0.5,0,8,8,2,1,,,,,,,,,,,,,,,,,,,,,,,,,,,,,,,,,,,,,,,,
,,,,,SPR24_027,20,Female,2024-04-10_10h24.47.649,jersey_experiment_5_v0,2023.2.2,Win32,85.47008547,,,,,,,,,,,,,,,,232.3194,233.6134,233.6134,234.4956,return,0.1552,,75.26041667,,,,,,FBP-RB-91.png,0.37,1.2,42,0.5,0,9,9,41,1,,,,,,,,,,,,,,,,,,,,,,,,,,,,,,,,,,,,,,,,
,,,,,SPR24_027,20,Female,2024-04-10_10h24.47.649,jersey_experiment_5_v0,2023.2.2,Win32,85.47008547,,,,,,,,,,,,,,,,234.4958,235.543,235.543,237.1075,return,0.0336,,88.54166667,,,,,,FBP-PT-71.png,0.4,1.2,48,0.25,0,10,10,47,1,,,,,,,,,,,,,,,,,,,,,,,,,,,,,,,,,,,,,,,,
,,,,,SPR24_027,20,Female,2024-04-10_10h24.47.649,jersey_experiment_5_v0,2023.2.2,Win32,85.47008547,,,,,,,,,,,,,,,,237.1077,238.1547,238.1548,238.9314,return,0.0471,,90.10416667,,,,,,FBP-YG-81.png,0.4,1.2,23,0.25,0,11,11,22,1,,,,,,,,,,,,,,,,,,,,,,,,,,,,,,,,,,,,,,,,
,,,,,SPR24_027,20,Female,2024-04-10_10h24.47.649,jersey_experiment_5_v0,2023.2.2,Win32,85.47008547,,,,,,,,,,,,,,,,238.9316,240.2253,240.2254,241.3078,return,0.1711,,86.71875,,,,,,FBP-RB-91.png,0.4,1.2,43,0.5,0,12,12,42,1,,,,,,,,,,,,,,,,,,,,,,,,,,,,,,,,,,,,,,,,
,,,,,SPR24_027,20,Female,2024-04-10_10h24.47.649,jersey_experiment_5_v0,2023.2.2,Win32,85.47008547,,,,,,,,,,,,,,,,241.308,242.3549,242.3549,243.5313,return,0.0656,,50.390625,,,,,,FBP-YG-91.png,0.35,1.2,26,0.25,0,13,13,25,1,,,,,,,,,,,,,,,,,,,,,,,,,,,,,,,,,,,,,,,,
,,,,,SPR24_027,20,Female,2024-04-10_10h24.47.649,jersey_experiment_5_v0,2023.2.2,Win32,85.47008547,,,,,,,,,,,,,,,,243.5314,244.5786,244.5786,245.614,return,0.0889,,98.69791667,,,,,,FBP-PT-91.png,0.45,1.2,60,0.25,0,14,14,59,1,,,,,,,,,,,,,,,,,,,,,,,,,,,,,,,,,,,,,,,,
,,,,,SPR24_027,20,Female,2024-04-10_10h24.47.649,jersey_experiment_5_v0,2023.2.2,Win32,85.47008547,,,,,,,,,,,,,,,,245.6142,246.9081,246.9081,247.6374,return,0.0705,,99.73958333,,,,,,FBP-RB-81.png,0.45,1.2,40,0.5,0,15,15,39,1,,,,,,,,,,,,,,,,,,,,,,,,,,,,,,,,,,,,,,,,
,,,,,SPR24_027,20,Female,2024-04-10_10h24.47.649,jersey_experiment_5_v0,2023.2.2,Win32,85.47008547,,,,,,,,,,,,,,,,247.6375,248.6845,248.6846,249.6846,return,0.0381,,86.06770833,,,,,,FBP-PT-91.png,0.4,1.2,58,0.25,0,16,16,57,1,,,,,,,,,,,,,,,,,,,,,,,,,,,,,,,,,,,,,,,,
,,,,,SPR24_027,20,Female,2024-04-10_10h24.47.649,jersey_experiment_5_v0,2023.2.2,Win32,85.47008547,,,,,,,,,,,,,,,,249.6848,250.9791,250.9791,252.4964,return,0.0982,,44.40104167,,,,,,FBP-OG-19.png,0.35,1.2,11,0.5,0,17,17,10,1,,,,,,,,,,,,,,,,,,,,,,,,,,,,,,,,,,,,,,,,
,,,,,SPR24_027,20,Female,2024-04-10_10h24.47.649,jersey_experiment_5_v0,2023.2.2,Win32,85.47008547,,,,,,,,,,,,,,,,252.4965,253.5436,253.5436,254.8495,return,0.0265,,60.15625,,,,,,FBP-PT-81.png,0.43,1.2,54,0.25,0,18,18,53,1,,,,,,,,,,,,,,,,,,,,,,,,,,,,,,,,,,,,,,,,
,,,,,SPR24_027,20,Female,2024-04-10_10h24.47.649,jersey_experiment_5_v0,2023.2.2,Win32,85.47008547,,,,,,,,,,,,,,,,254.8497,256.1438,256.1438,256.8143,return,0.0177,,74.47916667,,,,,,FBP-OG-19.png,0.43,1.2,14,0.5,0,19,19,13,1,,,,,,,,,,,,,,,,,,,,,,,,,,,,,,,,,,,,,,,,
,,,,,SPR24_027,20,Female,2024-04-10_10h24.47.649,jersey_experiment_5_v0,2023.2.2,Win32,85.47008547,,,,,,,,,,,,,,,,256.8145,258.1087,258.1087,259.0378,return,0.1243,,99.08854167,,,,,,FBP-RB-71.png,0.43,1.2,34,0.5,0,20,20,33,1,,,,,,,,,,,,,,,,,,,,,,,,,,,,,,,,,,,,,,,,
,,,,,SPR24_027,20,Female,2024-04-10_10h24.47.649,jersey_experiment_5_v0,2023.2.2,Win32,85.47008547,,,,,,,,,,,,,,,,259.0381,260.0849,260.0849,261.4849,return,0.1722,,99.73958333,,,,,,FBP-PT-91.png,0.43,1.2,59,0.25,0,21,21,58,1,,,,,,,,,,,,,,,,,,,,,,,,,,,,,,,,,,,,,,,,
,,,,,SPR24_027,20,Female,2024-04-10_10h24.47.649,jersey_experiment_5_v0,2023.2.2,Win32,85.47008547,,,,,,,,,,,,,,,,261.4852,262.779,262.7791,264.0617,return,0.0422,,44.66145833,,,,,,FBP-RB-81.png,0.35,1.2,36,0.5,0,22,22,35,1,,,,,,,,,,,,,,,,,,,,,,,,,,,,,,,,,,,,,,,,
,,,,,SPR24_027,20,Female,2024-04-10_10h24.47.649,jersey_experiment_5_v0,2023.2.2,Win32,85.47008547,,,,,,,,,,,,,,,,264.0619,265.1085,265.1085,266.0497,return,0.1299,,80.72916667,,,,,,FBP-PT-81.png,0.45,1.2,55,0.25,0,23,23,54,1,,,,,,,,,,,,,,,,,,,,,,,,,,,,,,,,,,,,,,,,
,,,,,SPR24_027,20,Female,2024-04-10_10h24.47.649,jersey_experiment_5_v0,2023.2.2,Win32,85.47008547,,,,,,,,,,,,,,,,266.05,267.3441,267.3441,268.144,return,0.1551,,59.50520833,,,,,,FBP-OG-18.png,0.37,1.2,7,0.5,0,24,24,6,1,,,,,,,,,,,,,,,,,,,,,,,,,,,,,,,,,,,,,,,,
,,,,,SPR24_027,20,Female,2024-04-10_10h24.47.649,jersey_experiment_5_v0,2023.2.2,Win32,85.47008547,,,,,,,,,,,,,,,,268.1443,269.1912,269.1913,270.6265,return,0.1793,,25.91145833,,,,,,FBP-YG-71.png,0.35,1.2,16,0.25,0,25,25,15,1,,,,,,,,,,,,,,,,,,,,,,,,,,,,,,,,,,,,,,,,
,,,,,SPR24_027,20,Female,2024-04-10_10h24.47.649,jersey_experiment_5_v0,2023.2.2,Win32,85.47008547,,,,,,,,,,,,,,,,270.6268,271.9207,271.9207,274.0855,return,1.4594,,75.65104167,,,,,,FBP-RB-71.png,0.4,1.2,33,0.5,0,26,26,32,1,,,,,,,,,,,,,,,,,,,,,,,,,,,,,,,,,,,,,,,,
,,,,,SPR24_027,20,Female,2024-04-10_10h24.47.649,jersey_experiment_5_v0,2023.2.2,Win32,85.47008547,,,,,,,,,,,,,,,,274.0856,275.1325,275.1325,276.0856,return,0.0717,,98.56770833,,,,,,FBP-YG-91.png,0.45,1.2,30,0.25,0,27,27,29,1,,,,,,,,,,,,,,,,,,,,,,,,,,,,,,,,,,,,,,,,
,,,,,SPR24_027,20,Female,2024-04-10_10h24.47.649,jersey_experiment_5_v0,2023.2.2,Win32,85.47008547,,,,,,,,,,,,,,,,276.0859,277.1327,277.1327,278.1444,return,0.0513,,70.3125,,,,,,FBP-PT-81.png,0.35,1.2,51,0.25,0,28,28,50,1,,,,,,,,,,,,,,,,,,,,,,,,,,,,,,,,,,,,,,,,
,,,,,SPR24_027,20,Female,2024-04-10_10h24.47.649,jersey_experiment_5_v0,2023.2.2,Win32,85.47008547,,,,,,,,,,,,,,,,278.1447,279.1915,279.1916,280.0033,return,0.0572,,99.21875,,,,,,FBP-YG-81.png,0.45,1.2,25,0.25,0,29,29,24,1,,,,,,,,,,,,,,,,,,,,,,,,,,,,,,,,,,,,,,,,
,,,,,SPR24_027,20,Female,2024-04-10_10h24.47.649,jersey_experiment_5_v0,2023.2.2,Win32,85.47008547,,,,,,,,,,,,,,,,280.0035,281.2977,281.2977,282.0152,return,0.0407,,83.72395833,,,,,,FBP-RB-81.png,0.4,1.2,38,0.5,0,30,30,37,1,,,,,,,,,,,,,,,,,,,,,,,,,,,,,,,,,,,,,,,,
,,,,,SPR24_027,20,Female,2024-04-10_10h24.47.649,jersey_experiment_5_v0,2023.2.2,Win32,85.47008547,,,,,,,,,,,,,,,,282.0155,283.3095,283.3095,283.9329,return,0.0406,,75.13020833,,,,,,FBP-OG-17.png,0.37,1.2,2,0.5,0,31,31,1,1,,,,,,,,,,,,,,,,,,,,,,,,,,,,,,,,,,,,,,,,
,,,,,SPR24_027,20,Female,2024-04-10_10h24.47.649,jersey_experiment_5_v0,2023.2.2,Win32,85.47008547,,,,,,,,,,,,,,,,283.933,284.9801,284.9802,285.533,return,0.0073,,75.13020833,,,,,,FBP-PT-91.png,0.37,1.2,57,0.25,0,32,32,56,1,,,,,,,,,,,,,,,,,,,,,,,,,,,,,,,,,,,,,,,,
,,,,,SPR24_027,20,Female,2024-04-10_10h24.47.649,jersey_experiment_5_v0,2023.2.2,Win32,85.47008547,,,,,,,,,,,,,,,,285.5332,286.8272,286.8272,287.3802,return,0.1324,,75.13020833,,,,,,FBP-RB-71.png,0.35,1.2,31,0.5,0,33,33,30,1,,,,,,,,,,,,,,,,,,,,,,,,,,,,,,,,,,,,,,,,
,,,,,SPR24_027,20,Female,2024-04-10_10h24.47.649,jersey_experiment_5_v0,2023.2.2,Win32,85.47008547,,,,,,,,,,,,,,,,287.3805,288.6743,288.6743,289.5567,return,0.0472,,99.34895833,,,,,,FBP-RB-81.png,0.43,1.2,39,0.5,0,34,34,38,1,,,,,,,,,,,,,,,,,,,,,,,,,,,,,,,,,,,,,,,,
,,,,,SPR24_027,20,Female,2024-04-10_10h24.47.649,jersey_experiment_5_v0,2023.2.2,Win32,85.47008547,,,,,,,,,,,,,,,,289.5568,290.6038,290.6039,291.9568,return,0.1413,,86.06770833,,,,,,FBP-PT-81.png,0.37,1.2,52,0.25,0,35,35,51,1,,,,,,,,,,,,,,,,,,,,,,,,,,,,,,,,,,,,,,,,
,,,,,SPR24_027,20,Female,2024-04-10_10h24.47.649,jersey_experiment_5_v0,2023.2.2,Win32,85.47008547,,,,,,,,,,,,,,,,291.957,293.2508,293.2508,295.0392,return,0.711,,37.23958333,,,,,,FBP-OG-17.png,0.35,1.2,1,0.5,0,36,36,0,1,,,,,,,,,,,,,,,,,,,,,,,,,,,,,,,,,,,,,,,,
,,,,,SPR24_027,20,Female,2024-04-10_10h24.47.649,jersey_experiment_5_v0,2023.2.2,Win32,85.47008547,,,,,,,,,,,,,,,,295.0395,296.0864,296.0865,297.1334,return,0.1011,,90.75520833,,,,,,FBP-PT-71.png,0.45,1.2,50,0.25,0,37,37,49,1,,,,,,,,,,,,,,,,,,,,,,,,,,,,,,,,,,,,,,,,
,,,,,SPR24_027,20,Female,2024-04-10_10h24.47.649,jersey_experiment_5_v0,2023.2.2,Win32,85.47008547,,,,,,,,,,,,,,,,297.1336,298.4277,298.4277,299.2041,return,0.0333,,74.609375,,,,,,FBP-RB-71.png,0.37,1.2,32,0.5,0,38,38,31,1,,,,,,,,,,,,,,,,,,,,,,,,,,,,,,,,,,,,,,,,
,,,,,SPR24_027,20,Female,2024-04-10_10h24.47.649,jersey_experiment_5_v0,2023.2.2,Win32,85.47008547,,,,,,,,,,,,,,,,299.2042,300.2513,300.2513,302.016,return,0.6987,,83.203125,,,,,,FBP-PT-81.png,0.4,1.2,53,0.25,0,39,39,52,1,,,,,,,,,,,,,,,,,,,,,,,,,,,,,,,,,,,,,,,,
,,,,,SPR24_027,20,Female,2024-04-10_10h24.47.649,jersey_experiment_5_v0,2023.2.2,Win32,85.47008547,,,,,,,,,,,,,,,,302.0163,303.3103,303.3103,304.0631,return,0.1111,,95.44270833,,,,,,FBP-OG-19.png,0.45,1.2,15,0.5,0,40,40,14,1,,,,,,,,,,,,,,,,,,,,,,,,,,,,,,,,,,,,,,,,
,,,,,SPR24_027,20,Female,2024-04-10_10h24.47.649,jersey_experiment_5_v0,2023.2.2,Win32,85.47008547,,,,,,,,,,,,,,,,304.0634,305.1102,305.1103,306.016,return,0.0632,,73.17708333,,,,,,FBP-YG-91.png,0.37,1.2,27,0.25,0,41,41,26,1,,,,,,,,,,,,,,,,,,,,,,,,,,,,,,,,,,,,,,,,
,,,,,SPR24_027,20,Female,2024-04-10_10h24.47.649,jersey_experiment_5_v0,2023.2.2,Win32,85.47008547,,,,,,,,,,,,,,,,306.0163,307.0636,307.0636,310.1104,return,1.0856,,58.46354167,,,,,,FBP-YG-81.png,0.37,1.2,22,0.25,0,42,42,21,1,,,,,,,,,,,,,,,,,,,,,,,,,,,,,,,,,,,,,,,,
,,,,,SPR24_027,20,Female,2024-04-10_10h24.47.649,jersey_experiment_5_v0,2023.2.2,Win32,85.47008547,,,,,,,,,,,,,,,,310.1106,311.4047,311.4047,312.1576,return,0.0892,,50.91145833,,,,,,FBP-RB-81.png,0.37,1.2,37,0.5,0,43,43,36,1,,,,,,,,,,,,,,,,,,,,,,,,,,,,,,,,,,,,,,,,
,,,,,SPR24_027,20,Female,2024-04-10_10h24.47.649,jersey_experiment_5_v0,2023.2.2,Win32,85.47008547,,,,,,,,,,,,,,,,312.1578,313.2046,313.2047,314.0753,return,0.1976,,75.65104167,,,,,,FBP-YG-81.png,0.43,1.2,24,0.25,0,44,44,23,1,,,,,,,,,,,,,,,,,,,,,,,,,,,,,,,,,,,,,,,,
,,,,,SPR24_027,20,Female,2024-04-10_10h24.47.649,jersey_experiment_5_v0,2023.2.2,Win32,85.47008547,,,,,,,,,,,,,,,,314.0756,315.1224,315.1224,315.9106,return,0.0946,,55.72916667,,,,,,FBP-PT-91.png,0.35,1.2,56,0.25,0,45,45,55,1,,,,,,,,,,,,,,,,,,,,,,,,,,,,,,,,,,,,,,,,
,,,,,SPR24_027,20,Female,2024-04-10_10h24.47.649,jersey_experiment_5_v0,2023.2.2,Win32,85.47008547,,,,,,,,,,,,,,,,315.9108,316.9578,316.9578,317.8755,return,0.2025,,74.609375,,,,,,FBP-YG-71.png,0.4,1.2,18,0.25,0,46,46,17,1,,,,,,,,,,,,,,,,,,,,,,,,,,,,,,,,,,,,,,,,
,,,,,SPR24_027,20,Female,2024-04-10_10h24.47.649,jersey_experiment_5_v0,2023.2.2,Win32,85.47008547,,,,,,,,,,,,,,,,317.8757,318.9227,318.9227,319.793,return,0.1681,,85.80729167,,,,,,FBP-YG-91.png,0.43,1.2,29,0.25,0,47,47,28,1,,,,,,,,,,,,,,,,,,,,,,,,,,,,,,,,,,,,,,,,
,,,,,SPR24_027,20,Female,2024-04-10_10h24.47.649,jersey_experiment_5_v0,2023.2.2,Win32,85.47008547,,,,,,,,,,,,,,,,319.7932,321.0874,321.0874,321.852,return,0.138,,99.34895833,,,,,,FBP-RB-71.png,0.45,1.2,35,0.5,0,48,48,34,1,,,,,,,,,,,,,,,,,,,,,,,,,,,,,,,,,,,,,,,,
,,,,,SPR24_027,20,Female,2024-04-10_10h24.47.649,jersey_experiment_5_v0,2023.2.2,Win32,85.47008547,,,,,,,,,,,,,,,,321.8522,323.1465,323.1465,323.7344,return,0.0377,,97.52604167,,,,,,FBP-OG-17.png,0.45,1.2,5,0.5,0,49,49,4,1,,,,,,,,,,,,,,,,,,,,,,,,,,,,,,,,,,,,,,,,
,,,,,SPR24_027,20,Female,2024-04-10_10h24.47.649,jersey_experiment_5_v0,2023.2.2,Win32,85.47008547,,,,,,,,,,,,,,,,323.7347,325.0287,325.0287,325.711,return,0.2151,,87.5,,,,,,FBP-OG-18.png,0.4,1.2,8,0.5,0,50,50,7,1,,,,,,,,,,,,,,,,,,,,,,,,,,,,,,,,,,,,,,,,
,,,,,SPR24_027,20,Female,2024-04-10_10h24.47.649,jersey_experiment_5_v0,2023.2.2,Win32,85.47008547,,,,,,,,,,,,,,,,325.7112,327.0054,327.0054,328.5114,return,0.0737,,37.890625,,,,,,FBP-OG-18.png,0.35,1.2,6,0.5,0,51,51,5,1,,,,,,,,,,,,,,,,,,,,,,,,,,,,,,,,,,,,,,,,
,,,,,SPR24_027,20,Female,2024-04-10_10h24.47.649,jersey_experiment_5_v0,2023.2.2,Win32,85.47008547,,,,,,,,,,,,,,,,328.5115,329.5583,329.5584,330.1933,return,0.0596,,49.08854167,,,,,,FBP-YG-91.png,0.4,1.2,28,0.25,0,52,52,27,1,,,,,,,,,,,,,,,,,,,,,,,,,,,,,,,,,,,,,,,,
,,,,,SPR24_027,20,Female,2024-04-10_10h24.47.649,jersey_experiment_5_v0,2023.2.2,Win32,85.47008547,,,,,,,,,,,,,,,,330.1936,331.4879,331.4879,332.3703,return,0.0855,,79.42708333,,,,,,FBP-OG-18.png,0.45,1.2,10,0.5,0,53,53,9,1,,,,,,,,,,,,,,,,,,,,,,,,,,,,,,,,,,,,,,,,
,,,,,SPR24_027,20,Female,2024-04-10_10h24.47.649,jersey_experiment_5_v0,2023.2.2,Win32,85.47008547,,,,,,,,,,,,,,,,332.3705,333.4172,333.4172,334.2996,return,0.1145,,76.69270833,,,,,,FBP-YG-71.png,0.43,1.2,19,0.25,0,54,54,18,1,,,,,,,,,,,,,,,,,,,,,,,,,,,,,,,,,,,,,,,,
,,,,,SPR24_027,20,Female,2024-04-10_10h24.47.649,jersey_experiment_5_v0,2023.2.2,Win32,85.47008547,,,,,,,,,,,,,,,,334.2998,335.5937,335.5937,336.0643,return,0.0723,,76.69270833,,,,,,FBP-OG-19.png,0.4,1.2,13,0.5,0,55,55,12,1,,,,,,,,,,,,,,,,,,,,,,,,,,,,,,,,,,,,,,,,
,,,,,SPR24_027,20,Female,2024-04-10_10h24.47.649,jersey_experiment_5_v0,2023.2.2,Win32,85.47008547,,,,,,,,,,,,,,,,336.0646,337.1114,337.1115,337.9704,return,0.2028,,69.40104167,,,,,,FBP-PT-71.png,0.37,1.2,47,0.25,0,56,56,46,1,,,,,,,,,,,,,,,,,,,,,,,,,,,,,,,,,,,,,,,,
,,,,,SPR24_027,20,Female,2024-04-10_10h24.47.649,jersey_experiment_5_v0,2023.2.2,Win32,85.47008547,,,,,,,,,,,,,,,,337.9706,339.2647,339.2647,339.8409,return,0.1542,,87.23958333,,,,,,FBP-OG-17.png,0.43,1.2,4,0.5,0,57,57,3,1,,,,,,,,,,,,,,,,,,,,,,,,,,,,,,,,,,,,,,,,
,,,,,SPR24_027,20,Female,2024-04-10_10h24.47.649,jersey_experiment_5_v0,2023.2.2,Win32,85.47008547,,,,,,,,,,,,,,,,339.8411,341.1351,341.1352,341.4763,return,0.0377,,91.015625,,,,,,FBP-OG-18.png,0.43,1.2,9,0.5,0,58,58,8,1,,,,,,,,,,,,,,,,,,,,,,,,,,,,,,,,,,,,,,,,
,,,,,SPR24_027,20,Female,2024-04-10_10h24.47.649,jersey_experiment_5_v0,2023.2.2,Win32,85.47008547,,,,,,,,,,,,,,,,341.4765,342.5233,342.5233,344.1589,return,0.2058,,51.5625,,,,,,FBP-YG-81.png,0.35,1.2,21,0.25,0,59,59,20,1,,,,,,,,,,,,,,,,,,,,,,,,,,,,,,,,,,,,,,,,
,,,,,SPR24_027,20,Female,2024-04-10_10h24.47.649,jersey_experiment_5_v0,2023.2.2,Win32,85.47008547,,,,,,,,,,,,,,,,,,,,,,,,,,,,,,,,,,,,,,,344.1593,464.1521,,,,,,,,,,,,,,,,,,,,,,,,,,,,,,,,,,,,,,
,,,,,SPR24_027,20,Female,2024-04-10_10h24.47.649,jersey_experiment_5_v0,2023.2.2,Win32,85.47008547,,,,,,,,,,,,,,,,,,,,,,,,,,,,,,,,,,,,,,,,,464.1522,466.0696,return,1.9061,,,,,,,,,,,,,,,,,,,,,,,,,,,,,,,,,,
,,,,,SPR24_027,20,Female,2024-04-10_10h24.47.649,jersey_experiment_5_v0,2023.2.2,Win32,85.47008547,,,,,,,,,,,,,,,,466.0754,467.3755,467.3756,469.2341,return,0.5297,,49.609375,,,,,,FBP-YG-17.png,0.37,1.2,17,0.5,,,,,,,,,,,,,0,0,0,16,1,,,,,,,,,,,,,,,,,,,,,,,,,,,,
,,,,,SPR24_027,20,Female,2024-04-10_10h24.47.649,jersey_experiment_5_v0,2023.2.2,Win32,85.47008547,,,,,,,,,,,,,,,,469.2343,470.5283,470.5284,471.5049,return,0.1801,,66.40625,,,,,,FBP-PT-17.png,0.4,1.2,48,0.5,,,,,,,,,,,,,0,1,1,47,1,,,,,,,,,,,,,,,,,,,,,,,,,,,,
,,,,,SPR24_027,20,Female,2024-04-10_10h24.47.649,jersey_experiment_5_v0,2023.2.2,Win32,85.47008547,,,,,,,,,,,,,,,,471.5051,472.7991,472.7992,473.7639,return,0.1085,,50.91145833,,,,,,FBP-YG-18.png,0.37,1.2,22,0.5,,,,,,,,,,,,,0,2,2,21,1,,,,,,,,,,,,,,,,,,,,,,,,,,,,
,,,,,SPR24_027,20,Female,2024-04-10_10h24.47.649,jersey_experiment_5_v0,2023.2.2,Win32,85.47008547,,,,,,,,,,,,,,,,473.7641,474.8109,474.811,475.7404,return,0.0531,,74.73958333,,,,,,FBP-RB-18.png,0.4,1.2,38,0.25,,,,,,,,,,,,,0,3,3,37,1,,,,,,,,,,,,,,,,,,,,,,,,,,,,
,,,,,SPR24_027,20,Female,2024-04-10_10h24.47.649,jersey_experiment_5_v0,2023.2.2,Win32,85.47008547,,,,,,,,,,,,,,,,475.7408,476.7873,476.7874,477.3758,return,0.0988,,74.73958333,,,,,,FBP-OG-81.png,0.4,1.2,8,0.25,,,,,,,,,,,,,0,4,4,7,1,,,,,,,,,,,,,,,,,,,,,,,,,,,,
,,,,,SPR24_027,20,Female,2024-04-10_10h24.47.649,jersey_experiment_5_v0,2023.2.2,Win32,85.47008547,,,,,,,,,,,,,,,,477.376,478.4228,478.4228,479.1523,return,0.087,,83.33333333,,,,,,FBP-OG-81.png,0.43,1.2,9,0.25,,,,,,,,,,,,,0,5,5,8,1,,,,,,,,,,,,,,,,,,,,,,,,,,,,
,,,,,SPR24_027,20,Female,2024-04-10_10h24.47.649,jersey_experiment_5_v0,2023.2.2,Win32,85.47008547,,,,,,,,,,,,,,,,479.1525,480.4464,480.4465,480.9287,return,0.0131,,85.02604167,,,,,,FBP-PT-19.png,0.43,1.2,59,0.5,,,,,,,,,,,,,0,6,6,58,1,,,,,,,,,,,,,,,,,,,,,,,,,,,,
,,,,,SPR24_027,20,Female,2024-04-10_10h24.47.649,jersey_experiment_5_v0,2023.2.2,Win32,85.47008547,,,,,,,,,,,,,,,,480.929,482.2229,482.2229,482.7052,return,0.119,,90.625,,,,,,FBP-PT-18.png,0.43,1.2,54,0.5,,,,,,,,,,,,,0,7,7,53,1,,,,,,,,,,,,,,,,,,,,,,,,,,,,
,,,,,SPR24_027,20,Female,2024-04-10_10h24.47.649,jersey_experiment_5_v0,2023.2.2,Win32,85.47008547,,,,,,,,,,,,,,,,482.7055,483.9994,483.9995,484.4702,return,0.0379,,90.625,,,,,,FBP-YG-18.png,0.4,1.2,23,0.5,,,,,,,,,,,,,0,8,8,22,1,,,,,,,,,,,,,,,,,,,,,,,,,,,,
,,,,,SPR24_027,20,Female,2024-04-10_10h24.47.649,jersey_experiment_5_v0,2023.2.2,Win32,85.47008547,,,,,,,,,,,,,,,,484.4704,485.7644,485.7644,486.7172,return,0.7841,,97.265625,,,,,,FBP-YG-19.png,0.43,1.2,29,0.5,,,,,,,,,,,,,0,9,9,28,1,,,,,,,,,,,,,,,,,,,,,,,,,,,,
,,,,,SPR24_027,20,Female,2024-04-10_10h24.47.649,jersey_experiment_5_v0,2023.2.2,Win32,85.47008547,,,,,,,,,,,,,,,,486.7174,488.0114,488.0114,489.0117,return,0.4848,,95.44270833,,,,,,FBP-PT-19.png,0.4,1.2,58,0.5,,,,,,,,,,,,,0,10,10,57,1,,,,,,,,,,,,,,,,,,,,,,,,,,,,
,,,,,SPR24_027,20,Female,2024-04-10_10h24.47.649,jersey_experiment_5_v0,2023.2.2,Win32,85.47008547,,,,,,,,,,,,,,,,489.0119,490.3057,490.3057,491.0468,return,0.141,,75.78125,,,,,,FBP-YG-19.png,0.37,1.2,27,0.5,,,,,,,,,,,,,0,11,11,26,1,,,,,,,,,,,,,,,,,,,,,,,,,,,,
,,,,,SPR24_027,20,Female,2024-04-10_10h24.47.649,jersey_experiment_5_v0,2023.2.2,Win32,85.47008547,,,,,,,,,,,,,,,,491.0469,492.3411,492.3411,494.9412,return,0.6169,,60.9375,,,,,,FBP-PT-17.png,0.37,1.2,47,0.5,,,,,,,,,,,,,0,12,12,46,1,,,,,,,,,,,,,,,,,,,,,,,,,,,,
,,,,,SPR24_027,20,Female,2024-04-10_10h24.47.649,jersey_experiment_5_v0,2023.2.2,Win32,85.47008547,,,,,,,,,,,,,,,,494.9414,495.9882,495.9882,496.7882,return,0.024,,50.390625,,,,,,FBP-RB-19.png,0.37,1.2,42,0.25,,,,,,,,,,,,,0,13,13,41,1,,,,,,,,,,,,,,,,,,,,,,,,,,,,
,,,,,SPR24_027,20,Female,2024-04-10_10h24.47.649,jersey_experiment_5_v0,2023.2.2,Win32,85.47008547,,,,,,,,,,,,,,,,496.7884,497.8352,497.8352,498.5764,return,0.0279,,49.08854167,,,,,,FBP-OG-81.png,0.35,1.2,6,0.25,,,,,,,,,,,,,0,14,14,5,1,,,,,,,,,,,,,,,,,,,,,,,,,,,,
,,,,,SPR24_027,20,Female,2024-04-10_10h24.47.649,jersey_experiment_5_v0,2023.2.2,Win32,85.47008547,,,,,,,,,,,,,,,,498.5767,499.6236,499.6236,501.6825,return,1.1646,,97.52604167,,,,,,FBP-OG-71.png,0.43,1.2,4,0.25,,,,,,,,,,,,,0,15,15,3,1,,,,,,,,,,,,,,,,,,,,,,,,,,,,
,,,,,SPR24_027,20,Female,2024-04-10_10h24.47.649,jersey_experiment_5_v0,2023.2.2,Win32,85.47008547,,,,,,,,,,,,,,,,501.6827,502.7296,502.7297,503.9532,return,0.1194,,49.08854167,,,,,,FBP-RB-19.png,0.35,1.2,41,0.25,,,,,,,,,,,,,0,16,16,40,1,,,,,,,,,,,,,,,,,,,,,,,,,,,,
,,,,,SPR24_027,20,Female,2024-04-10_10h24.47.649,jersey_experiment_5_v0,2023.2.2,Win32,85.47008547,,,,,,,,,,,,,,,,503.9534,505.0002,505.0003,506.071,return,0.0706,,99.21875,,,,,,FBP-OG-71.png,0.45,1.2,5,0.25,,,,,,,,,,,,,0,17,17,4,1,,,,,,,,,,,,,,,,,,,,,,,,,,,,
,,,,,SPR24_027,20,Female,2024-04-10_10h24.47.649,jersey_experiment_5_v0,2023.2.2,Win32,85.47008547,,,,,,,,,,,,,,,,506.0712,507.3653,507.3654,509.3887,return,1.1726,,65.234375,,,,,,FBP-YG-17.png,0.35,1.2,16,0.5,,,,,,,,,,,,,0,18,18,15,1,,,,,,,,,,,,,,,,,,,,,,,,,,,,
,,,,,SPR24_027,20,Female,2024-04-10_10h24.47.649,jersey_experiment_5_v0,2023.2.2,Win32,85.47008547,,,,,,,,,,,,,,,,509.389,510.683,510.6831,511.3889,return,0.0429,,98.828125,,,,,,FBP-PT-18.png,0.45,1.2,55,0.5,,,,,,,,,,,,,0,19,19,54,1,,,,,,,,,,,,,,,,,,,,,,,,,,,,
,,,,,SPR24_027,20,Female,2024-04-10_10h24.47.649,jersey_experiment_5_v0,2023.2.2,Win32,85.47008547,,,,,,,,,,,,,,,,511.3891,512.4358,512.4358,513.6478,return,0.0493,,50.390625,,,,,,FBP-OG-91.png,0.35,1.2,11,0.25,,,,,,,,,,,,,0,20,20,10,1,,,,,,,,,,,,,,,,,,,,,,,,,,,,
,,,,,SPR24_027,20,Female,2024-04-10_10h24.47.649,jersey_experiment_5_v0,2023.2.2,Win32,85.47008547,,,,,,,,,,,,,,,,513.6479,514.6948,514.6948,515.6477,return,0.0262,,75.390625,,,,,,FBP-OG-91.png,0.4,1.2,13,0.25,,,,,,,,,,,,,0,21,21,12,1,,,,,,,,,,,,,,,,,,,,,,,,,,,,
,,,,,SPR24_027,20,Female,2024-04-10_10h24.47.649,jersey_experiment_5_v0,2023.2.2,Win32,85.47008547,,,,,,,,,,,,,,,,515.648,516.6948,516.6949,517.6008,return,0.4722,,75.390625,,,,,,FBP-OG-71.png,0.37,1.2,2,0.25,,,,,,,,,,,,,0,22,22,1,1,,,,,,,,,,,,,,,,,,,,,,,,,,,,
,,,,,SPR24_027,20,Female,2024-04-10_10h24.47.649,jersey_experiment_5_v0,2023.2.2,Win32,85.47008547,,,,,,,,,,,,,,,,517.601,518.8951,518.8951,519.3656,return,0.0579,,75.390625,,,,,,FBP-YG-18.png,0.35,1.2,21,0.5,,,,,,,,,,,,,0,23,23,20,1,,,,,,,,,,,,,,,,,,,,,,,,,,,,
,,,,,SPR24_027,20,Female,2024-04-10_10h24.47.649,jersey_experiment_5_v0,2023.2.2,Win32,85.47008547,,,,,,,,,,,,,,,,519.3658,520.4126,520.4126,521.4597,return,0.0145,,99.73958333,,,,,,FBP-OG-81.png,0.45,1.2,10,0.25,,,,,,,,,,,,,0,24,24,9,1,,,,,,,,,,,,,,,,,,,,,,,,,,,,
,,,,,SPR24_027,20,Female,2024-04-10_10h24.47.649,jersey_experiment_5_v0,2023.2.2,Win32,85.47008547,,,,,,,,,,,,,,,,521.4599,522.5068,522.507,523.6953,return,0.5352,,88.41145833,,,,,,FBP-RB-19.png,0.4,1.2,43,0.25,,,,,,,,,,,,,0,25,25,42,1,,,,,,,,,,,,,,,,,,,,,,,,,,,,
,,,,,SPR24_027,20,Female,2024-04-10_10h24.47.649,jersey_experiment_5_v0,2023.2.2,Win32,85.47008547,,,,,,,,,,,,,,,,523.6955,524.9893,524.9894,525.5658,return,0.0635,,98.95833333,,,,,,FBP-YG-17.png,0.43,1.2,19,0.5,,,,,,,,,,,,,0,26,26,18,1,,,,,,,,,,,,,,,,,,,,,,,,,,,,
,,,,,SPR24_027,20,Female,2024-04-10_10h24.47.649,jersey_experiment_5_v0,2023.2.2,Win32,85.47008547,,,,,,,,,,,,,,,,525.566,526.6129,526.6129,527.4952,return,0.2115,,77.34375,,,,,,FBP-RB-17.png,0.4,1.2,33,0.25,,,,,,,,,,,,,0,27,27,32,1,,,,,,,,,,,,,,,,,,,,,,,,,,,,
,,,,,SPR24_027,20,Female,2024-04-10_10h24.47.649,jersey_experiment_5_v0,2023.2.2,Win32,85.47008547,,,,,,,,,,,,,,,,527.4954,528.5423,528.5423,529.4717,return,0.0755,,50.65104167,,,,,,FBP-RB-17.png,0.35,1.2,31,0.25,,,,,,,,,,,,,0,28,28,30,1,,,,,,,,,,,,,,,,,,,,,,,,,,,,
,,,,,SPR24_027,20,Female,2024-04-10_10h24.47.649,jersey_experiment_5_v0,2023.2.2,Win32,85.47008547,,,,,,,,,,,,,,,,529.472,530.519,530.519,531.5542,return,0.1319,,92.70833333,,,,,,FBP-RB-19.png,0.43,1.2,44,0.25,,,,,,,,,,,,,0,29,29,43,1,,,,,,,,,,,,,,,,,,,,,,,,,,,,
,,,,,SPR24_027,20,Female,2024-04-10_10h24.47.649,jersey_experiment_5_v0,2023.2.2,Win32,85.47008547,,,,,,,,,,,,,,,,531.5544,532.6013,532.6013,533.5424,return,0.0707,,50.91145833,,,,,,FBP-OG-81.png,0.37,1.2,7,0.25,,,,,,,,,,,,,0,30,30,6,1,,,,,,,,,,,,,,,,,,,,,,,,,,,,
,,,,,SPR24_027,20,Female,2024-04-10_10h24.47.649,jersey_experiment_5_v0,2023.2.2,Win32,85.47008547,,,,,,,,,,,,,,,,533.5427,534.8369,534.8369,535.2956,return,0.0035,,64.97395833,,,,,,FBP-PT-19.png,0.37,1.2,57,0.5,,,,,,,,,,,,,0,31,31,56,1,,,,,,,,,,,,,,,,,,,,,,,,,,,,
,,,,,SPR24_027,20,Female,2024-04-10_10h24.47.649,jersey_experiment_5_v0,2023.2.2,Win32,85.47008547,,,,,,,,,,,,,,,,535.2957,536.5897,536.5898,537.7309,return,0.4346,,82.94270833,,,,,,FBP-YG-19.png,0.4,1.2,28,0.5,,,,,,,,,,,,,0,32,32,27,1,,,,,,,,,,,,,,,,,,,,,,,,,,,,
,,,,,SPR24_027,20,Female,2024-04-10_10h24.47.649,jersey_experiment_5_v0,2023.2.2,Win32,85.47008547,,,,,,,,,,,,,,,,537.7311,538.778,538.7781,539.6369,return,0.1272,,89.0625,,,,,,FBP-OG-71.png,0.4,1.2,3,0.25,,,,,,,,,,,,,0,33,33,2,1,,,,,,,,,,,,,,,,,,,,,,,,,,,,
,,,,,SPR24_027,20,Female,2024-04-10_10h24.47.649,jersey_experiment_5_v0,2023.2.2,Win32,85.47008547,,,,,,,,,,,,,,,,539.6371,540.6839,540.6839,541.331,return,0.0582,,98.828125,,,,,,FBP-RB-18.png,0.43,1.2,39,0.25,,,,,,,,,,,,,0,34,34,38,1,,,,,,,,,,,,,,,,,,,,,,,,,,,,
,,,,,SPR24_027,20,Female,2024-04-10_10h24.47.649,jersey_experiment_5_v0,2023.2.2,Win32,85.47008547,,,,,,,,,,,,,,,,541.3313,542.6252,542.6253,543.1664,return,0.3686,,97.78645833,,,,,,FBP-YG-18.png,0.43,1.2,24,0.5,,,,,,,,,,,,,0,35,35,23,1,,,,,,,,,,,,,,,,,,,,,,,,,,,,
,,,,,SPR24_027,20,Female,2024-04-10_10h24.47.649,jersey_experiment_5_v0,2023.2.2,Win32,85.47008547,,,,,,,,,,,,,,,,543.1666,544.4606,544.4607,545.1195,return,0.1791,,97.39583333,,,,,,FBP-YG-19.png,0.45,1.2,30,0.5,,,,,,,,,,,,,0,36,36,29,1,,,,,,,,,,,,,,,,,,,,,,,,,,,,
,,,,,SPR24_027,20,Female,2024-04-10_10h24.47.649,jersey_experiment_5_v0,2023.2.2,Win32,85.47008547,,,,,,,,,,,,,,,,545.1197,546.4134,546.4135,546.8843,return,0.1976,,97.39583333,,,,,,FBP-PT-17.png,0.45,1.2,50,0.5,,,,,,,,,,,,,0,37,37,49,1,,,,,,,,,,,,,,,,,,,,,,,,,,,,
,,,,,SPR24_027,20,Female,2024-04-10_10h24.47.649,jersey_experiment_5_v0,2023.2.2,Win32,85.47008547,,,,,,,,,,,,,,,,546.8845,547.9312,547.9313,548.4372,return,0.1648,,97.39583333,,,,,,FBP-RB-19.png,0.45,1.2,45,0.25,,,,,,,,,,,,,0,38,38,44,1,,,,,,,,,,,,,,,,,,,,,,,,,,,,
,,,,,SPR24_027,20,Female,2024-04-10_10h24.47.649,jersey_experiment_5_v0,2023.2.2,Win32,85.47008547,,,,,,,,,,,,,,,,548.4373,549.4844,549.4844,550.2727,return,0.0278,,87.23958333,,,,,,FBP-OG-91.png,0.43,1.2,14,0.25,,,,,,,,,,,,,0,39,39,13,1,,,,,,,,,,,,,,,,,,,,,,,,,,,,
,,,,,SPR24_027,20,Female,2024-04-10_10h24.47.649,jersey_experiment_5_v0,2023.2.2,Win32,85.47008547,,,,,,,,,,,,,,,,550.2729,551.3199,551.3199,552.4844,return,0.2118,,47.265625,,,,,,FBP-RB-18.png,0.35,1.2,36,0.25,,,,,,,,,,,,,0,40,40,35,1,,,,,,,,,,,,,,,,,,,,,,,,,,,,
,,,,,SPR24_027,20,Female,2024-04-10_10h24.47.649,jersey_experiment_5_v0,2023.2.2,Win32,85.47008547,,,,,,,,,,,,,,,,552.4846,553.7789,553.7789,554.2611,return,0.0849,,61.84895833,,,,,,FBP-PT-18.png,0.4,1.2,53,0.5,,,,,,,,,,,,,0,41,41,52,1,,,,,,,,,,,,,,,,,,,,,,,,,,,,
,,,,,SPR24_027,20,Female,2024-04-10_10h24.47.649,jersey_experiment_5_v0,2023.2.2,Win32,85.47008547,,,,,,,,,,,,,,,,554.2613,555.3082,555.3082,556.9435,return,0.7468,,97.13541667,,,,,,FBP-RB-17.png,0.43,1.2,34,0.25,,,,,,,,,,,,,0,42,42,33,1,,,,,,,,,,,,,,,,,,,,,,,,,,,,
,,,,,SPR24_027,20,Female,2024-04-10_10h24.47.649,jersey_experiment_5_v0,2023.2.2,Win32,85.47008547,,,,,,,,,,,,,,,,556.9437,558.2377,558.2378,558.9083,return,0.112,,82.55208333,,,,,,FBP-PT-18.png,0.37,1.2,52,0.5,,,,,,,,,,,,,0,43,43,51,1,,,,,,,,,,,,,,,,,,,,,,,,,,,,
,,,,,SPR24_027,20,Female,2024-04-10_10h24.47.649,jersey_experiment_5_v0,2023.2.2,Win32,85.47008547,,,,,,,,,,,,,,,,558.9086,560.2024,560.2024,560.8142,return,0.11,,97.91666667,,,,,,FBP-PT-17.png,0.43,1.2,49,0.5,,,,,,,,,,,,,0,44,44,48,1,,,,,,,,,,,,,,,,,,,,,,,,,,,,
,,,,,SPR24_027,20,Female,2024-04-10_10h24.47.649,jersey_experiment_5_v0,2023.2.2,Win32,85.47008547,,,,,,,,,,,,,,,,560.8144,562.1085,562.1086,563.4378,return,0.7951,,72.39583333,,,,,,FBP-PT-18.png,0.35,1.2,51,0.5,,,,,,,,,,,,,0,45,45,50,1,,,,,,,,,,,,,,,,,,,,,,,,,,,,
,,,,,SPR24_027,20,Female,2024-04-10_10h24.47.649,jersey_experiment_5_v0,2023.2.2,Win32,85.47008547,,,,,,,,,,,,,,,,563.438,564.485,564.4851,565.2849,return,0.1644,,74.08854167,,,,,,FBP-OG-91.png,0.37,1.2,12,0.25,,,,,,,,,,,,,0,46,46,11,1,,,,,,,,,,,,,,,,,,,,,,,,,,,,
,,,,,SPR24_027,20,Female,2024-04-10_10h24.47.649,jersey_experiment_5_v0,2023.2.2,Win32,85.47008547,,,,,,,,,,,,,,,,565.2851,566.332,566.332,568.2732,return,1.2366,,99.86979167,,,,,,FBP-RB-18.png,0.45,1.2,40,0.25,,,,,,,,,,,,,0,47,47,39,1,,,,,,,,,,,,,,,,,,,,,,,,,,,,
,,,,,SPR24_027,20,Female,2024-04-10_10h24.47.649,jersey_experiment_5_v0,2023.2.2,Win32,85.47008547,,,,,,,,,,,,,,,,568.2734,569.3204,569.3205,570.7204,return,0.0131,,73.828125,,,,,,FBP-RB-18.png,0.37,1.2,37,0.25,,,,,,,,,,,,,0,48,48,36,1,,,,,,,,,,,,,,,,,,,,,,,,,,,,
,,,,,SPR24_027,20,Female,2024-04-10_10h24.47.649,jersey_experiment_5_v0,2023.2.2,Win32,85.47008547,,,,,,,,,,,,,,,,570.7206,572.0147,572.0148,572.5557,return,0.0419,,85.67708333,,,,,,FBP-YG-17.png,0.4,1.2,18,0.5,,,,,,,,,,,,,0,49,49,17,1,,,,,,,,,,,,,,,,,,,,,,,,,,,,
,,,,,SPR24_027,20,Female,2024-04-10_10h24.47.649,jersey_experiment_5_v0,2023.2.2,Win32,85.47008547,,,,,,,,,,,,,,,,572.5559,573.6029,573.603,574.6265,return,0.5671,,97.00520833,,,,,,FBP-OG-91.png,0.45,1.2,15,0.25,,,,,,,,,,,,,0,50,50,14,1,,,,,,,,,,,,,,,,,,,,,,,,,,,,
,,,,,SPR24_027,20,Female,2024-04-10_10h24.47.649,jersey_experiment_5_v0,2023.2.2,Win32,85.47008547,,,,,,,,,,,,,,,,574.6267,575.9206,575.9206,576.8619,return,0.2188,,98.828125,,,,,,FBP-YG-17.png,0.45,1.2,20,0.5,,,,,,,,,,,,,0,51,51,19,1,,,,,,,,,,,,,,,,,,,,,,,,,,,,
,,,,,SPR24_027,20,Female,2024-04-10_10h24.47.649,jersey_experiment_5_v0,2023.2.2,Win32,85.47008547,,,,,,,,,,,,,,,,576.8621,578.1559,578.156,580.5445,return,1.569,,50.65104167,,,,,,FBP-PT-19.png,0.35,1.2,56,0.5,,,,,,,,,,,,,0,52,52,55,1,,,,,,,,,,,,,,,,,,,,,,,,,,,,
,,,,,SPR24_027,20,Female,2024-04-10_10h24.47.649,jersey_experiment_5_v0,2023.2.2,Win32,85.47008547,,,,,,,,,,,,,,,,580.5446,581.8387,581.8387,582.6387,return,0.1452,,98.046875,,,,,,FBP-PT-19.png,0.45,1.2,60,0.5,,,,,,,,,,,,,0,53,53,59,1,,,,,,,,,,,,,,,,,,,,,,,,,,,,
,,,,,SPR24_027,20,Female,2024-04-10_10h24.47.649,jersey_experiment_5_v0,2023.2.2,Win32,85.47008547,,,,,,,,,,,,,,,,582.6388,583.6858,583.6858,584.8621,return,0.1244,,98.95833333,,,,,,FBP-RB-17.png,0.45,1.2,35,0.25,,,,,,,,,,,,,0,54,54,34,1,,,,,,,,,,,,,,,,,,,,,,,,,,,,
,,,,,SPR24_027,20,Female,2024-04-10_10h24.47.649,jersey_experiment_5_v0,2023.2.2,Win32,85.47008547,,,,,,,,,,,,,,,,584.8624,586.1563,586.1564,586.5563,return,0.2908,,98.95833333,,,,,,FBP-YG-18.png,0.45,1.2,25,0.5,,,,,,,,,,,,,0,55,55,24,1,,,,,,,,,,,,,,,,,,,,,,,,,,,,
,,,,,SPR24_027,20,Female,2024-04-10_10h24.47.649,jersey_experiment_5_v0,2023.2.2,Win32,85.47008547,,,,,,,,,,,,,,,,586.5565,587.8505,587.8505,588.8388,return,0.0806,,25.52083333,,,,,,FBP-PT-17.png,0.35,1.2,46,0.5,,,,,,,,,,,,,0,56,56,45,1,,,,,,,,,,,,,,,,,,,,,,,,,,,,
,,,,,SPR24_027,20,Female,2024-04-10_10h24.47.649,jersey_experiment_5_v0,2023.2.2,Win32,85.47008547,,,,,,,,,,,,,,,,588.8391,589.8858,589.8858,591.5682,return,0.8514,,26.5625,,,,,,FBP-RB-17.png,0.37,1.2,32,0.25,,,,,,,,,,,,,0,57,57,31,1,,,,,,,,,,,,,,,,,,,,,,,,,,,,
,,,,,SPR24_027,20,Female,2024-04-10_10h24.47.649,jersey_experiment_5_v0,2023.2.2,Win32,85.47008547,,,,,,,,,,,,,,,,591.5685,592.8624,592.8625,593.3332,return,0.0561,,27.08333333,,,,,,FBP-YG-19.png,0.35,1.2,26,0.5,,,,,,,,,,,,,0,58,58,25,1,,,,,,,,,,,,,,,,,,,,,,,,,,,,
,,,,,SPR24_027,20,Female,2024-04-10_10h24.47.649,jersey_experiment_5_v0,2023.2.2,Win32,85.47008547,,,,,,,,,,,,,,,,593.3334,594.3802,594.3802,594.9568,return,0.1258,,27.08333333,,,,,,FBP-OG-71.png,0.35,1.2,1,0.25,,,,,,,,,,,,,0,59,59,0,1,,,,,,,,,,,,,,,,,,,,,,,,,,,,
,,,,,SPR24_027,20,Female,2024-04-10_10h24.47.649,jersey_experiment_5_v0,2023.2.2,Win32,85.47008547,,,,,,,,,,,,,,,,594.9579,596.2508,596.2509,597.6509,return,0.6589,,62.76041667,,,,,,FBP-YG-91.png,0.4,1.2,28,0.5,,,,,,,,,,,,,,,,,,0,0,0,27,1,,,,,,,,,,,,,,,,,,,,,,,
,,,,,SPR24_027,20,Female,2024-04-10_10h24.47.649,jersey_experiment_5_v0,2023.2.2,Win32,85.47008547,,,,,,,,,,,,,,,,597.6513,598.6978,598.6979,599.2509,return,0.094,,69.921875,,,,,,FBP-OG-17.png,0.4,1.2,3,0.25,,,,,,,,,,,,,,,,,,0,1,1,2,1,,,,,,,,,,,,,,,,,,,,,,,
,,,,,SPR24_027,20,Female,2024-04-10_10h24.47.649,jersey_experiment_5_v0,2023.2.2,Win32,85.47008547,,,,,,,,,,,,,,,,599.2511,600.5454,600.5454,601.7453,return,0.0957,,95.18229167,,,,,,FBP-YG-91.png,0.45,1.2,30,0.5,,,,,,,,,,,,,,,,,,0,2,2,29,1,,,,,,,,,,,,,,,,,,,,,,,
,,,,,SPR24_027,20,Female,2024-04-10_10h24.47.649,jersey_experiment_5_v0,2023.2.2,Win32,85.47008547,,,,,,,,,,,,,,,,601.7455,603.0394,603.0395,603.6041,return,0.1316,,86.97916667,,,,,,FBP-PT-91.png,0.4,1.2,58,0.5,,,,,,,,,,,,,,,,,,0,3,3,57,1,,,,,,,,,,,,,,,,,,,,,,,
,,,,,SPR24_027,20,Female,2024-04-10_10h24.47.649,jersey_experiment_5_v0,2023.2.2,Win32,85.47008547,,,,,,,,,,,,,,,,603.6044,604.6511,604.6512,605.2865,return,0.0806,,89.19270833,,,,,,FBP-RB-71.png,0.4,1.2,33,0.25,,,,,,,,,,,,,,,,,,0,4,4,32,1,,,,,,,,,,,,,,,,,,,,,,,
,,,,,SPR24_027,20,Female,2024-04-10_10h24.47.649,jersey_experiment_5_v0,2023.2.2,Win32,85.47008547,,,,,,,,,,,,,,,,605.2866,606.5808,606.5809,607.0747,return,0.0351,,97.13541667,,,,,,FBP-PT-81.png,0.43,1.2,54,0.5,,,,,,,,,,,,,,,,,,0,5,5,53,1,,,,,,,,,,,,,,,,,,,,,,,
,,,,,SPR24_027,20,Female,2024-04-10_10h24.47.649,jersey_experiment_5_v0,2023.2.2,Win32,85.47008547,,,,,,,,,,,,,,,,607.075,608.3689,608.369,608.8043,return,0.0851,,97.13541667,,,,,,FBP-YG-81.png,0.4,1.2,23,0.5,,,,,,,,,,,,,,,,,,0,6,6,22,1,,,,,,,,,,,,,,,,,,,,,,,
,,,,,SPR24_027,20,Female,2024-04-10_10h24.47.649,jersey_experiment_5_v0,2023.2.2,Win32,85.47008547,,,,,,,,,,,,,,,,608.8045,609.8513,609.8513,611.0748,return,0.0819,,58.85416667,,,,,,FBP-RB-71.png,0.37,1.2,32,0.25,,,,,,,,,,,,,,,,,,0,7,7,31,1,,,,,,,,,,,,,,,,,,,,,,,
,,,,,SPR24_027,20,Female,2024-04-10_10h24.47.649,jersey_experiment_5_v0,2023.2.2,Win32,85.47008547,,,,,,,,,,,,,,,,611.075,612.3692,612.3693,612.9103,return,0.1476,,76.69270833,,,,,,FBP-PT-81.png,0.4,1.2,53,0.5,,,,,,,,,,,,,,,,,,0,8,8,52,1,,,,,,,,,,,,,,,,,,,,,,,
,,,,,SPR24_027,20,Female,2024-04-10_10h24.47.649,jersey_experiment_5_v0,2023.2.2,Win32,85.47008547,,,,,,,,,,,,,,,,612.9105,613.9575,613.9575,614.7811,return,0.1702,,53.515625,,,,,,FBP-OG-17.png,0.37,1.2,2,0.25,,,,,,,,,,,,,,,,,,0,9,9,1,1,,,,,,,,,,,,,,,,,,,,,,,
,,,,,SPR24_027,20,Female,2024-04-10_10h24.47.649,jersey_experiment_5_v0,2023.2.2,Win32,85.47008547,,,,,,,,,,,,,,,,614.7813,616.0752,616.0752,616.5575,return,0.0396,,59.50520833,,,,,,FBP-YG-71.png,0.4,1.2,18,0.5,,,,,,,,,,,,,,,,,,0,10,10,17,1,,,,,,,,,,,,,,,,,,,,,,,
,,,,,SPR24_027,20,Female,2024-04-10_10h24.47.649,jersey_experiment_5_v0,2023.2.2,Win32,85.47008547,,,,,,,,,,,,,,,,616.5577,617.6047,617.6047,618.9575,return,0.0308,,40.88541667,,,,,,FBP-OG-19.png,0.35,1.2,11,0.25,,,,,,,,,,,,,,,,,,0,11,11,10,1,,,,,,,,,,,,,,,,,,,,,,,
,,,,,SPR24_027,20,Female,2024-04-10_10h24.47.649,jersey_experiment_5_v0,2023.2.2,Win32,85.47008547,,,,,,,,,,,,,,,,618.9578,620.2516,620.2516,621.393,return,0.6275,,48.95833333,,,,,,FBP-PT-91.png,0.37,1.2,57,0.5,,,,,,,,,,,,,,,,,,0,12,12,56,1,,,,,,,,,,,,,,,,,,,,,,,
,,,,,SPR24_027,20,Female,2024-04-10_10h24.47.649,jersey_experiment_5_v0,2023.2.2,Win32,85.47008547,,,,,,,,,,,,,,,,621.3932,622.4401,622.4401,623.2519,return,0.0833,,84.765625,,,,,,FBP-RB-81.png,0.43,1.2,39,0.25,,,,,,,,,,,,,,,,,,0,13,13,38,1,,,,,,,,,,,,,,,,,,,,,,,
,,,,,SPR24_027,20,Female,2024-04-10_10h24.47.649,jersey_experiment_5_v0,2023.2.2,Win32,85.47008547,,,,,,,,,,,,,,,,623.2521,624.5463,624.5463,625.0519,return,0.1359,,95.703125,,,,,,FBP-YG-91.png,0.43,1.2,29,0.5,,,,,,,,,,,,,,,,,,0,14,14,28,1,,,,,,,,,,,,,,,,,,,,,,,
,,,,,SPR24_027,20,Female,2024-04-10_10h24.47.649,jersey_experiment_5_v0,2023.2.2,Win32,85.47008547,,,,,,,,,,,,,,,,625.0522,626.3461,626.3461,626.9815,return,0.3061,,97.265625,,,,,,FBP-YG-81.png,0.45,1.2,25,0.5,,,,,,,,,,,,,,,,,,0,15,15,24,1,,,,,,,,,,,,,,,,,,,,,,,
,,,,,SPR24_027,20,Female,2024-04-10_10h24.47.649,jersey_experiment_5_v0,2023.2.2,Win32,85.47008547,,,,,,,,,,,,,,,,626.9816,628.2756,628.2756,629.1345,return,0.1449,,70.44270833,,,,,,FBP-YG-81.png,0.37,1.2,22,0.5,,,,,,,,,,,,,,,,,,0,16,16,21,1,,,,,,,,,,,,,,,,,,,,,,,
,,,,,SPR24_027,20,Female,2024-04-10_10h24.47.649,jersey_experiment_5_v0,2023.2.2,Win32,85.47008547,,,,,,,,,,,,,,,,629.1347,630.1815,630.1815,631.3815,return,0.4563,,64.32291667,,,,,,FBP-RB-81.png,0.35,1.2,36,0.25,,,,,,,,,,,,,,,,,,0,17,17,35,1,,,,,,,,,,,,,,,,,,,,,,,
,,,,,SPR24_027,20,Female,2024-04-10_10h24.47.649,jersey_experiment_5_v0,2023.2.2,Win32,85.47008547,,,,,,,,,,,,,,,,631.3819,632.4289,632.4289,633.1347,return,0.0747,,61.06770833,,,,,,FBP-RB-71.png,0.35,1.2,31,0.25,,,,,,,,,,,,,,,,,,0,18,18,30,1,,,,,,,,,,,,,,,,,,,,,,,
,,,,,SPR24_027,20,Female,2024-04-10_10h24.47.649,jersey_experiment_5_v0,2023.2.2,Win32,85.47008547,,,,,,,,,,,,,,,,633.1348,634.1816,634.1816,634.7229,return,0.049,,61.328125,,,,,,FBP-RB-91.png,0.35,1.2,41,0.25,,,,,,,,,,,,,,,,,,0,19,19,40,1,,,,,,,,,,,,,,,,,,,,,,,
,,,,,SPR24_027,20,Female,2024-04-10_10h24.47.649,jersey_experiment_5_v0,2023.2.2,Win32,85.47008547,,,,,,,,,,,,,,,,634.7231,636.017,636.0171,637.0523,return,0.1359,,61.45833333,,,,,,FBP-PT-91.png,0.35,1.2,56,0.5,,,,,,,,,,,,,,,,,,0,20,20,55,1,,,,,,,,,,,,,,,,,,,,,,,
,,,,,SPR24_027,20,Female,2024-04-10_10h24.47.649,jersey_experiment_5_v0,2023.2.2,Win32,85.47008547,,,,,,,,,,,,,,,,637.0524,638.3465,638.3465,638.8055,return,0.1185,,61.45833333,,,,,,FBP-PT-71.png,0.35,1.2,46,0.5,,,,,,,,,,,,,,,,,,0,21,21,45,1,,,,,,,,,,,,,,,,,,,,,,,
,,,,,SPR24_027,20,Female,2024-04-10_10h24.47.649,jersey_experiment_5_v0,2023.2.2,Win32,85.47008547,,,,,,,,,,,,,,,,638.8057,639.8525,639.8525,641.0761,return,0.1045,,86.97916667,,,,,,FBP-OG-18.png,0.45,1.2,10,0.25,,,,,,,,,,,,,,,,,,0,22,22,9,1,,,,,,,,,,,,,,,,,,,,,,,
,,,,,SPR24_027,20,Female,2024-04-10_10h24.47.649,jersey_experiment_5_v0,2023.2.2,Win32,85.47008547,,,,,,,,,,,,,,,,641.0764,642.3702,642.3702,643.582,return,0.1456,,92.44791667,,,,,,FBP-PT-71.png,0.45,1.2,50,0.5,,,,,,,,,,,,,,,,,,0,23,23,49,1,,,,,,,,,,,,,,,,,,,,,,,
,,,,,SPR24_027,20,Female,2024-04-10_10h24.47.649,jersey_experiment_5_v0,2023.2.2,Win32,85.47008547,,,,,,,,,,,,,,,,643.5823,644.8764,644.8764,645.5588,return,0.038,,71.09375,,,,,,FBP-YG-91.png,0.35,1.2,26,0.5,,,,,,,,,,,,,,,,,,0,24,24,25,1,,,,,,,,,,,,,,,,,,,,,,,
,,,,,SPR24_027,20,Female,2024-04-10_10h24.47.649,jersey_experiment_5_v0,2023.2.2,Win32,85.47008547,,,,,,,,,,,,,,,,645.559,646.8528,646.8528,647.6175,return,0.0505,,69.40104167,,,,,,FBP-YG-71.png,0.35,1.2,16,0.5,,,,,,,,,,,,,,,,,,0,25,25,15,1,,,,,,,,,,,,,,,,,,,,,,,
,,,,,SPR24_027,20,Female,2024-04-10_10h24.47.649,jersey_experiment_5_v0,2023.2.2,Win32,85.47008547,,,,,,,,,,,,,,,,647.6177,648.6646,648.6647,649.5353,return,0.0503,,80.20833333,,,,,,FBP-OG-18.png,0.4,1.2,8,0.25,,,,,,,,,,,,,,,,,,0,26,26,7,1,,,,,,,,,,,,,,,,,,,,,,,
,,,,,SPR24_027,20,Female,2024-04-10_10h24.47.649,jersey_experiment_5_v0,2023.2.2,Win32,85.47008547,,,,,,,,,,,,,,,,649.5355,650.8295,650.8295,651.653,return,0.0475,,80.98958333,,,,,,FBP-PT-71.png,0.37,1.2,47,0.5,,,,,,,,,,,,,,,,,,0,27,27,46,1,,,,,,,,,,,,,,,,,,,,,,,
,,,,,SPR24_027,20,Female,2024-04-10_10h24.47.649,jersey_experiment_5_v0,2023.2.2,Win32,85.47008547,,,,,,,,,,,,,,,,651.6532,652.9474,652.9475,653.3236,return,0.0213,,89.58333333,,,,,,FBP-PT-71.png,0.4,1.2,48,0.5,,,,,,,,,,,,,,,,,,0,28,28,47,1,,,,,,,,,,,,,,,,,,,,,,,
,,,,,SPR24_027,20,Female,2024-04-10_10h24.47.649,jersey_experiment_5_v0,2023.2.2,Win32,85.47008547,,,,,,,,,,,,,,,,653.3239,654.6179,654.6179,655.3473,return,0.1558,,89.58333333,,,,,,FBP-PT-81.png,0.37,1.2,52,0.5,,,,,,,,,,,,,,,,,,0,29,29,51,1,,,,,,,,,,,,,,,,,,,,,,,
,,,,,SPR24_027,20,Female,2024-04-10_10h24.47.649,jersey_experiment_5_v0,2023.2.2,Win32,85.47008547,,,,,,,,,,,,,,,,655.3474,656.3943,656.3944,657.1237,return,0.1515,,89.58333333,,,,,,FBP-RB-81.png,0.37,1.2,37,0.25,,,,,,,,,,,,,,,,,,0,30,30,36,1,,,,,,,,,,,,,,,,,,,,,,,
,,,,,SPR24_027,20,Female,2024-04-10_10h24.47.649,jersey_experiment_5_v0,2023.2.2,Win32,85.47008547,,,,,,,,,,,,,,,,657.1239,658.1709,658.1709,659.0886,return,0.1426,,97.78645833,,,,,,FBP-RB-91.png,0.45,1.2,45,0.25,,,,,,,,,,,,,,,,,,0,31,31,44,1,,,,,,,,,,,,,,,,,,,,,,,
,,,,,SPR24_027,20,Female,2024-04-10_10h24.47.649,jersey_experiment_5_v0,2023.2.2,Win32,85.47008547,,,,,,,,,,,,,,,,659.0888,660.3826,660.3827,660.9239,return,0.1946,,97.78645833,,,,,,FBP-PT-91.png,0.45,1.2,60,0.5,,,,,,,,,,,,,,,,,,0,32,32,59,1,,,,,,,,,,,,,,,,,,,,,,,
,,,,,SPR24_027,20,Female,2024-04-10_10h24.47.649,jersey_experiment_5_v0,2023.2.2,Win32,85.47008547,,,,,,,,,,,,,,,,660.9241,662.2182,662.2182,662.6416,return,0.1183,,97.78645833,,,,,,FBP-PT-81.png,0.45,1.2,55,0.5,,,,,,,,,,,,,,,,,,0,33,33,54,1,,,,,,,,,,,,,,,,,,,,,,,
,,,,,SPR24_027,20,Female,2024-04-10_10h24.47.649,jersey_experiment_5_v0,2023.2.2,Win32,85.47008547,,,,,,,,,,,,,,,,662.6419,663.6887,663.6887,665.5241,return,0.0478,,25,,,,,,FBP-OG-18.png,0.35,1.2,6,0.25,,,,,,,,,,,,,,,,,,0,34,34,5,1,,,,,,,,,,,,,,,,,,,,,,,
,,,,,SPR24_027,20,Female,2024-04-10_10h24.47.649,jersey_experiment_5_v0,2023.2.2,Win32,85.47008547,,,,,,,,,,,,,,,,665.5243,666.5712,666.5712,667.489,return,0.0391,,96.61458333,,,,,,FBP-OG-19.png,0.45,1.2,15,0.25,,,,,,,,,,,,,,,,,,0,35,35,14,1,,,,,,,,,,,,,,,,,,,,,,,
,,,,,SPR24_027,20,Female,2024-04-10_10h24.47.649,jersey_experiment_5_v0,2023.2.2,Win32,85.47008547,,,,,,,,,,,,,,,,667.4893,668.7832,668.7832,669.2772,return,0.1464,,96.35416667,,,,,,FBP-PT-91.png,0.43,1.2,59,0.5,,,,,,,,,,,,,,,,,,0,36,36,58,1,,,,,,,,,,,,,,,,,,,,,,,
,,,,,SPR24_027,20,Female,2024-04-10_10h24.47.649,jersey_experiment_5_v0,2023.2.2,Win32,85.47008547,,,,,,,,,,,,,,,,669.2774,670.3242,670.3243,671.701,return,0.1884,,50.390625,,,,,,FBP-RB-91.png,0.37,1.2,42,0.25,,,,,,,,,,,,,,,,,,0,37,37,41,1,,,,,,,,,,,,,,,,,,,,,,,
,,,,,SPR24_027,20,Female,2024-04-10_10h24.47.649,jersey_experiment_5_v0,2023.2.2,Win32,85.47008547,,,,,,,,,,,,,,,,671.7012,672.9951,672.9952,673.5479,return,0.1358,,73.4375,,,,,,FBP-YG-81.png,0.43,1.2,24,0.5,,,,,,,,,,,,,,,,,,0,38,38,23,1,,,,,,,,,,,,,,,,,,,,,,,
,,,,,SPR24_027,20,Female,2024-04-10_10h24.47.649,jersey_experiment_5_v0,2023.2.2,Win32,85.47008547,,,,,,,,,,,,,,,,673.5481,674.595,674.5952,675.0892,return,0.0007,,85.28645833,,,,,,FBP-OG-19.png,0.37,1.2,12,0.25,,,,,,,,,,,,,,,,,,0,39,39,11,1,,,,,,,,,,,,,,,,,,,,,,,
,,,,,SPR24_027,20,Female,2024-04-10_10h24.47.649,jersey_experiment_5_v0,2023.2.2,Win32,85.47008547,,,,,,,,,,,,,,,,675.0895,676.1362,676.1362,676.6539,return,0.0304,,88.671875,,,,,,FBP-OG-18.png,0.43,1.2,9,0.25,,,,,,,,,,,,,,,,,,0,40,40,8,1,,,,,,,,,,,,,,,,,,,,,,,
,,,,,SPR24_027,20,Female,2024-04-10_10h24.47.649,jersey_experiment_5_v0,2023.2.2,Win32,85.47008547,,,,,,,,,,,,,,,,676.6541,677.9483,677.9483,678.3364,return,0.0255,,96.22395833,,,,,,FBP-YG-71.png,0.43,1.2,19,0.5,,,,,,,,,,,,,,,,,,0,41,41,18,1,,,,,,,,,,,,,,,,,,,,,,,
,,,,,SPR24_027,20,Female,2024-04-10_10h24.47.649,jersey_experiment_5_v0,2023.2.2,Win32,85.47008547,,,,,,,,,,,,,,,,678.3366,679.6308,679.6308,680.2305,return,0.0475,,62.890625,,,,,,FBP-YG-81.png,0.35,1.2,21,0.5,,,,,,,,,,,,,,,,,,0,42,42,20,1,,,,,,,,,,,,,,,,,,,,,,,
,,,,,SPR24_027,20,Female,2024-04-10_10h24.47.649,jersey_experiment_5_v0,2023.2.2,Win32,85.47008547,,,,,,,,,,,,,,,,680.2308,681.2777,681.2778,682.0188,return,0.12,,56.25,,,,,,FBP-OG-18.png,0.37,1.2,7,0.25,,,,,,,,,,,,,,,,,,0,43,43,6,1,,,,,,,,,,,,,,,,,,,,,,,
,,,,,SPR24_027,20,Female,2024-04-10_10h24.47.649,jersey_experiment_5_v0,2023.2.2,Win32,85.47008547,,,,,,,,,,,,,,,,682.0191,683.3131,683.3131,683.7718,return,0.0915,,56.25,,,,,,FBP-YG-71.png,0.37,1.2,17,0.5,,,,,,,,,,,,,,,,,,0,44,44,16,1,,,,,,,,,,,,,,,,,,,,,,,
,,,,,SPR24_027,20,Female,2024-04-10_10h24.47.649,jersey_experiment_5_v0,2023.2.2,Win32,85.47008547,,,,,,,,,,,,,,,,683.7721,684.819,684.819,685.5369,return,0.0156,,80.33854167,,,,,,FBP-RB-81.png,0.4,1.2,38,0.25,,,,,,,,,,,,,,,,,,0,45,45,37,1,,,,,,,,,,,,,,,,,,,,,,,
,,,,,SPR24_027,20,Female,2024-04-10_10h24.47.649,jersey_experiment_5_v0,2023.2.2,Win32,85.47008547,,,,,,,,,,,,,,,,685.5372,686.831,686.831,687.2309,return,0.0177,,97.65625,,,,,,FBP-YG-71.png,0.45,1.2,20,0.5,,,,,,,,,,,,,,,,,,0,46,46,19,1,,,,,,,,,,,,,,,,,,,,,,,
,,,,,SPR24_027,20,Female,2024-04-10_10h24.47.649,jersey_experiment_5_v0,2023.2.2,Win32,85.47008547,,,,,,,,,,,,,,,,687.2311,688.2778,688.2779,688.6896,return,0.1558,,97.65625,,,,,,FBP-RB-81.png,0.45,1.2,40,0.25,,,,,,,,,,,,,,,,,,0,47,47,39,1,,,,,,,,,,,,,,,,,,,,,,,
,,,,,SPR24_027,20,Female,2024-04-10_10h24.47.649,jersey_experiment_5_v0,2023.2.2,Win32,85.47008547,,,,,,,,,,,,,,,,688.6898,689.7369,689.7369,690.9487,return,0.0243,,24.08854167,,,,,,FBP-OG-17.png,0.35,1.2,1,0.25,,,,,,,,,,,,,,,,,,0,48,48,0,1,,,,,,,,,,,,,,,,,,,,,,,
,,,,,SPR24_027,20,Female,2024-04-10_10h24.47.649,jersey_experiment_5_v0,2023.2.2,Win32,85.47008547,,,,,,,,,,,,,,,,690.9488,692.2428,692.2428,693.1957,return,0.1598,,25.390625,,,,,,FBP-YG-91.png,0.37,1.2,27,0.5,,,,,,,,,,,,,,,,,,0,49,49,26,1,,,,,,,,,,,,,,,,,,,,,,,
,,,,,SPR24_027,20,Female,2024-04-10_10h24.47.649,jersey_experiment_5_v0,2023.2.2,Win32,85.47008547,,,,,,,,,,,,,,,,693.1958,694.2428,694.2429,695.6546,return,0.5881,,75.52083333,,,,,,FBP-OG-19.png,0.43,1.2,14,0.25,,,,,,,,,,,,,,,,,,0,50,50,13,1,,,,,,,,,,,,,,,,,,,,,,,
,,,,,SPR24_027,20,Female,2024-04-10_10h24.47.649,jersey_experiment_5_v0,2023.2.2,Win32,85.47008547,,,,,,,,,,,,,,,,695.6549,696.9489,696.949,697.6313,return,0.2294,,95.05208333,,,,,,FBP-PT-71.png,0.43,1.2,49,0.5,,,,,,,,,,,,,,,,,,0,51,51,48,1,,,,,,,,,,,,,,,,,,,,,,,
,,,,,SPR24_027,20,Female,2024-04-10_10h24.47.649,jersey_experiment_5_v0,2023.2.2,Win32,85.47008547,,,,,,,,,,,,,,,,697.6316,698.6785,698.6785,699.3019,return,0.0471,,91.796875,,,,,,FBP-RB-91.png,0.43,1.2,44,0.25,,,,,,,,,,,,,,,,,,0,52,52,43,1,,,,,,,,,,,,,,,,,,,,,,,
,,,,,SPR24_027,20,Female,2024-04-10_10h24.47.649,jersey_experiment_5_v0,2023.2.2,Win32,85.47008547,,,,,,,,,,,,,,,,699.3022,700.3489,700.3489,700.8666,return,0.0824,,97.91666667,,,,,,FBP-RB-71.png,0.45,1.2,35,0.25,,,,,,,,,,,,,,,,,,0,53,53,34,1,,,,,,,,,,,,,,,,,,,,,,,
,,,,,SPR24_027,20,Female,2024-04-10_10h24.47.649,jersey_experiment_5_v0,2023.2.2,Win32,85.47008547,,,,,,,,,,,,,,,,700.8667,701.9138,701.9138,702.3725,return,0.0805,,97.91666667,,,,,,FBP-OG-17.png,0.45,1.2,5,0.25,,,,,,,,,,,,,,,,,,0,54,54,4,1,,,,,,,,,,,,,,,,,,,,,,,
,,,,,SPR24_027,20,Female,2024-04-10_10h24.47.649,jersey_experiment_5_v0,2023.2.2,Win32,85.47008547,,,,,,,,,,,,,,,,702.3729,703.4197,703.4197,703.9843,return,0.0637,,97.91666667,,,,,,FBP-OG-17.png,0.43,1.2,4,0.25,,,,,,,,,,,,,,,,,,0,55,55,3,1,,,,,,,,,,,,,,,,,,,,,,,
,,,,,SPR24_027,20,Female,2024-04-10_10h24.47.649,jersey_experiment_5_v0,2023.2.2,Win32,85.47008547,,,,,,,,,,,,,,,,703.9845,705.0313,705.0314,705.5726,return,0.1416,,97.91666667,,,,,,FBP-RB-71.png,0.43,1.2,34,0.25,,,,,,,,,,,,,,,,,,0,56,56,33,1,,,,,,,,,,,,,,,,,,,,,,,
,,,,,SPR24_027,20,Female,2024-04-10_10h24.47.649,jersey_experiment_5_v0,2023.2.2,Win32,85.47008547,,,,,,,,,,,,,,,,705.5729,706.8671,706.8671,707.5962,return,0.0652,,51.43229167,,,,,,FBP-PT-81.png,0.35,1.2,51,0.5,,,,,,,,,,,,,,,,,,0,57,57,50,1,,,,,,,,,,,,,,,,,,,,,,,
,,,,,SPR24_027,20,Female,2024-04-10_10h24.47.649,jersey_experiment_5_v0,2023.2.2,Win32,85.47008547,,,,,,,,,,,,,,,,707.5964,708.6436,708.6436,709.3728,return,0.0433,,66.015625,,,,,,FBP-RB-91.png,0.4,1.2,43,0.25,,,,,,,,,,,,,,,,,,0,58,58,42,1,,,,,,,,,,,,,,,,,,,,,,,
,,,,,SPR24_027,20,Female,2024-04-10_10h24.47.649,jersey_experiment_5_v0,2023.2.2,Win32,85.47008547,,,,,,,,,,,,,,,,709.3731,710.4199,710.4199,711.3024,return,0.0236,,61.328125,,,,,,FBP-OG-19.png,0.4,1.2,13,0.25,,,,,,,,,,,,,,,,,,0,59,59,12,1,,,,,,,,,,,,,,,,,,,,,,,
,,,,,SPR24_027,20,Female,2024-04-10_10h24.47.649,jersey_experiment_5_v0,2023.2.2,Win32,85.47008547,,,,,,,,,,,,,,,,,,,,,,,,,,,,,,,,,,,,,,,,,,,,,,,,,,,,,,,,711.3027,717.5735,return,6.2585,,,,,,,,,,,,,,,,,,,
,,,,,SPR24_027,20,Female,2024-04-10_10h24.47.649,jersey_experiment_5_v0,2023.2.2,Win32,85.47008547,,,,,,,,,,,,,,,,,,,,,,,,,,,,,,,,,,,,,,,,,,,,,,,,,,,,,,,,,,,,,717.5736,724.5971,1,5.9623,return,1.0353,,,,,,,,,,,,
,,,,,SPR24_027,20,Female,2024-04-10_10h24.47.649,jersey_experiment_5_v0,2023.2.2,Win32,85.47008547,,,,,,,,,,,,,,,,,,,,,,,,,,,,,,,,,,,,,,,,,,,,,,,,,,,,,,,,,,,,,,,,,,,,724.5973,813.653,"I do not know what the study is about. I noticed some patterns where I was given the same size player but they were of different race. Towards the second half, I noticed that I was given the same player multiple times and may have been so it can see if I noticed or would change my answer. ",right,84.6296,,,,,,
,,,,,SPR24_027,20,Female,2024-04-10_10h24.47.649,jersey_experiment_5_v0,2023.2.2,Win32,85.47008547,,,,,,,,,,,,,,,,,,,,,,,,,,,,,,,,,,,,,,,,,,,,,,,,,,,,,,,,,,,,,,,,,,,,,,,,,,813.6531,816.2947,return,2.6303,