requirements.started,requirements.stopped,key_resp_3.keys,key_resp_3.rt,key_resp_3.duration,Subject ID,Age,Gender,date,expName,psychopyVersion,OS,frameRate,instructions1.started,instructions1.stopped,key_resp.keys,key_resp.rt,key_resp.duration,example.started,example.stopped,enter_2.keys,enter_2.rt,enter_2.duration,instructions2.started,instructions2.stopped,enter_3.keys,enter_3.rt,enter_3.duration,image.started,image.stopped,slider_2.started,slider_2.stopped,next.keys,next.rt,next.duration,slider.response,trial_block_1.thisRepN,trial_block_1.thisTrialN,trial_block_1.thisN,trial_block_1.thisIndex,trial_block_1.ran,Path,Width,Height,Index,Duration,trial_block_2.thisRepN,trial_block_2.thisTrialN,trial_block_2.thisN,trial_block_2.thisIndex,trial_block_2.ran,rest_break.started,rest_break.stopped,end_break.started,end_break.stopped,key_resp_5.keys,key_resp_5.rt,key_resp_5.duration,trial_block_3.thisRepN,trial_block_3.thisTrialN,trial_block_3.thisN,trial_block_3.thisIndex,trial_block_3.ran,trial_block_4.thisRepN,trial_block_4.thisTrialN,trial_block_4.thisN,trial_block_4.thisIndex,trial_block_4.ran,questions_intro.started,questions_intro.stopped,enter_12.keys,enter_12.rt,enter_12.duration,question2.started,question2.stopped,question_doingbest.response,question_doingbest.rt,enter_15.keys,enter_15.rt,enter_15.duration,pattern.started,pattern.stopped,pattern_2.text,enter_17.keys,enter_17.rt,enter_17.duration,thankyou.started,thankyou.stopped,enter_14.keys,enter_14.rt,enter_14.duration
0,5.2004,return,5.1942,,SPR24_064,20,Female,2024-04-18_09h53.13.412,jersey_experiment_5_v0,2023.2.2,Win32,84.74576271,,,,,,,,,,,,,,,,,,,,,,,,,,,,,,,,,,,,,,,,,,,,,,,,,,,,,,,,,,,,,,,,,,,,,,,,,,,,,,
,,,,,SPR24_064,20,Female,2024-04-18_09h53.13.412,jersey_experiment_5_v0,2023.2.2,Win32,84.74576271,5.2005,10.4006,return,5.1833,,,,,,,,,,,,,,,,,,,,,,,,,,,,,,,,,,,,,,,,,,,,,,,,,,,,,,,,,,,,,,,,,,,,,,,,,,
,,,,,SPR24_064,20,Female,2024-04-18_09h53.13.412,jersey_experiment_5_v0,2023.2.2,Win32,84.74576271,,,,,,10.4008,13.3301,return,2.893,,,,,,,,,,,,,,,,,,,,,,,,,,,,,,,,,,,,,,,,,,,,,,,,,,,,,,,,,,,,,,,,,,,,,
,,,,,SPR24_064,20,Female,2024-04-18_09h53.13.412,jersey_experiment_5_v0,2023.2.2,Win32,84.74576271,,,,,,,,,,,13.3302,24.1542,return,10.8003,,,,,,,,,,,,,,,,,,,,,,,,,,,,,,,,,,,,,,,,,,,,,,,,,,,,,,,,,,,,,,,,
,,,,,SPR24_064,20,Female,2024-04-18_09h53.13.412,jersey_experiment_5_v0,2023.2.2,Win32,84.74576271,,,,,,,,,,,,,,,,24.1606,25.2128,25.2128,36.025,return,1.4821,,36.328125,0,0,0,54,1,FBP-PT-18.png,0.45,1.2,55,0.25,,,,,,,,,,,,,,,,,,,,,,,,,,,,,,,,,,,,,,,,,,,,,
,,,,,SPR24_064,20,Female,2024-04-18_09h53.13.412,jersey_experiment_5_v0,2023.2.2,Win32,84.74576271,,,,,,,,,,,,,,,,36.0252,37.0719,37.072,40.1426,return,1.3608,,52.60416667,0,1,1,17,1,FBP-YG-17.png,0.4,1.2,18,0.25,,,,,,,,,,,,,,,,,,,,,,,,,,,,,,,,,,,,,,,,,,,,,
,,,,,SPR24_064,20,Female,2024-04-18_09h53.13.412,jersey_experiment_5_v0,2023.2.2,Win32,84.74576271,,,,,,,,,,,,,,,,40.1427,41.4369,41.4369,44.7429,return,1.2851,,32.68229167,0,2,2,6,1,FBP-OG-81.png,0.37,1.2,7,0.5,,,,,,,,,,,,,,,,,,,,,,,,,,,,,,,,,,,,,,,,,,,,,
,,,,,SPR24_064,20,Female,2024-04-18_09h53.13.412,jersey_experiment_5_v0,2023.2.2,Win32,84.74576271,,,,,,,,,,,,,,,,44.7431,45.7898,45.7898,48.3548,return,0.7677,,25.13020833,0,3,3,51,1,FBP-PT-18.png,0.37,1.2,52,0.25,,,,,,,,,,,,,,,,,,,,,,,,,,,,,,,,,,,,,,,,,,,,,
,,,,,SPR24_064,20,Female,2024-04-18_09h53.13.412,jersey_experiment_5_v0,2023.2.2,Win32,84.74576271,,,,,,,,,,,,,,,,48.3551,49.6489,49.649,52.7903,return,1.0021,,57.94270833,0,4,4,42,1,FBP-RB-19.png,0.4,1.2,43,0.5,,,,,,,,,,,,,,,,,,,,,,,,,,,,,,,,,,,,,,,,,,,,,
,,,,,SPR24_064,20,Female,2024-04-18_09h53.13.412,jersey_experiment_5_v0,2023.2.2,Win32,84.74576271,,,,,,,,,,,,,,,,52.7905,53.8372,53.8372,56.4374,return,0.8236,,45.18229167,0,5,5,50,1,FBP-PT-18.png,0.35,1.2,51,0.25,,,,,,,,,,,,,,,,,,,,,,,,,,,,,,,,,,,,,,,,,,,,,
,,,,,SPR24_064,20,Female,2024-04-18_09h53.13.412,jersey_experiment_5_v0,2023.2.2,Win32,84.74576271,,,,,,,,,,,,,,,,56.4376,57.7317,57.7318,59.873,return,0.5926,,63.02083333,0,6,6,38,1,FBP-RB-18.png,0.43,1.2,39,0.5,,,,,,,,,,,,,,,,,,,,,,,,,,,,,,,,,,,,,,,,,,,,,
,,,,,SPR24_064,20,Female,2024-04-18_09h53.13.412,jersey_experiment_5_v0,2023.2.2,Win32,84.74576271,,,,,,,,,,,,,,,,59.8733,61.1672,61.1673,62.7435,return,0.3055,,31.90104167,0,7,7,0,1,FBP-OG-71.png,0.35,1.2,1,0.5,,,,,,,,,,,,,,,,,,,,,,,,,,,,,,,,,,,,,,,,,,,,,
,,,,,SPR24_064,20,Female,2024-04-18_09h53.13.412,jersey_experiment_5_v0,2023.2.2,Win32,84.74576271,,,,,,,,,,,,,,,,62.7437,64.0379,64.0379,65.026,return,0.45,,31.90104167,0,8,8,11,1,FBP-OG-91.png,0.37,1.2,12,0.5,,,,,,,,,,,,,,,,,,,,,,,,,,,,,,,,,,,,,,,,,,,,,
,,,,,SPR24_064,20,Female,2024-04-18_09h53.13.412,jersey_experiment_5_v0,2023.2.2,Win32,84.74576271,,,,,,,,,,,,,,,,65.0262,66.3204,66.3204,68.4261,return,0.4242,,52.60416667,0,9,9,8,1,FBP-OG-81.png,0.43,1.2,9,0.5,,,,,,,,,,,,,,,,,,,,,,,,,,,,,,,,,,,,,,,,,,,,,
,,,,,SPR24_064,20,Female,2024-04-18_09h53.13.412,jersey_experiment_5_v0,2023.2.2,Win32,84.74576271,,,,,,,,,,,,,,,,68.4263,69.7201,69.7202,71.6851,return,0.6028,,28.77604167,0,10,10,30,1,FBP-RB-17.png,0.35,1.2,31,0.5,,,,,,,,,,,,,,,,,,,,,,,,,,,,,,,,,,,,,,,,,,,,,
,,,,,SPR24_064,20,Female,2024-04-18_09h53.13.412,jersey_experiment_5_v0,2023.2.2,Win32,84.74576271,,,,,,,,,,,,,,,,71.6853,72.9792,72.9792,73.991,return,0.2597,,28.77604167,0,11,11,5,1,FBP-OG-81.png,0.35,1.2,6,0.5,,,,,,,,,,,,,,,,,,,,,,,,,,,,,,,,,,,,,,,,,,,,,
,,,,,SPR24_064,20,Female,2024-04-18_09h53.13.412,jersey_experiment_5_v0,2023.2.2,Win32,84.74576271,,,,,,,,,,,,,,,,73.9911,75.2851,75.2852,77.0616,return,0.4822,,70.44270833,0,12,12,3,1,FBP-OG-71.png,0.43,1.2,4,0.5,,,,,,,,,,,,,,,,,,,,,,,,,,,,,,,,,,,,,,,,,,,,,
,,,,,SPR24_064,20,Female,2024-04-18_09h53.13.412,jersey_experiment_5_v0,2023.2.2,Win32,84.74576271,,,,,,,,,,,,,,,,77.0619,78.1088,78.1088,79.9442,return,0.2492,,32.421875,0,13,13,56,1,FBP-PT-19.png,0.37,1.2,57,0.25,,,,,,,,,,,,,,,,,,,,,,,,,,,,,,,,,,,,,,,,,,,,,
,,,,,SPR24_064,20,Female,2024-04-18_09h53.13.412,jersey_experiment_5_v0,2023.2.2,Win32,84.74576271,,,,,,,,,,,,,,,,79.9443,81.2382,81.2383,82.7914,return,0.214,,40.75520833,0,14,14,31,1,FBP-RB-17.png,0.37,1.2,32,0.5,,,,,,,,,,,,,,,,,,,,,,,,,,,,,,,,,,,,,,,,,,,,,
,,,,,SPR24_064,20,Female,2024-04-18_09h53.13.412,jersey_experiment_5_v0,2023.2.2,Win32,84.74576271,,,,,,,,,,,,,,,,82.7917,83.8384,83.8385,85.2033,return,0.2147,,28.64583333,0,15,15,55,1,FBP-PT-19.png,0.35,1.2,56,0.25,,,,,,,,,,,,,,,,,,,,,,,,,,,,,,,,,,,,,,,,,,,,,
,,,,,SPR24_064,20,Female,2024-04-18_09h53.13.412,jersey_experiment_5_v0,2023.2.2,Win32,84.74576271,,,,,,,,,,,,,,,,85.2035,86.4974,86.4974,88.9915,return,0.2315,,75.26041667,0,16,16,13,1,FBP-OG-91.png,0.43,1.2,14,0.5,,,,,,,,,,,,,,,,,,,,,,,,,,,,,,,,,,,,,,,,,,,,,
,,,,,SPR24_064,20,Female,2024-04-18_09h53.13.412,jersey_experiment_5_v0,2023.2.2,Win32,84.74576271,,,,,,,,,,,,,,,,88.9917,90.0385,90.0386,91.568,return,0.1817,,82.94270833,0,17,17,29,1,FBP-YG-19.png,0.45,1.2,30,0.25,,,,,,,,,,,,,,,,,,,,,,,,,,,,,,,,,,,,,,,,,,,,,
,,,,,SPR24_064,20,Female,2024-04-18_09h53.13.412,jersey_experiment_5_v0,2023.2.2,Win32,84.74576271,,,,,,,,,,,,,,,,91.5682,92.6152,92.6153,93.8623,return,0.2956,,78.77604167,0,18,18,24,1,FBP-YG-18.png,0.45,1.2,25,0.25,,,,,,,,,,,,,,,,,,,,,,,,,,,,,,,,,,,,,,,,,,,,,
,,,,,SPR24_064,20,Female,2024-04-18_09h53.13.412,jersey_experiment_5_v0,2023.2.2,Win32,84.74576271,,,,,,,,,,,,,,,,93.8626,95.1565,95.1565,97.2388,return,0.2596,,56.25,0,19,19,36,1,FBP-RB-18.png,0.37,1.2,37,0.5,,,,,,,,,,,,,,,,,,,,,,,,,,,,,,,,,,,,,,,,,,,,,
,,,,,SPR24_064,20,Female,2024-04-18_09h53.13.412,jersey_experiment_5_v0,2023.2.2,Win32,84.74576271,,,,,,,,,,,,,,,,97.2391,98.533,98.5331,99.4155,return,0.2501,,56.25,0,20,20,41,1,FBP-RB-19.png,0.37,1.2,42,0.5,,,,,,,,,,,,,,,,,,,,,,,,,,,,,,,,,,,,,,,,,,,,,
,,,,,SPR24_064,20,Female,2024-04-18_09h53.13.412,jersey_experiment_5_v0,2023.2.2,Win32,84.74576271,,,,,,,,,,,,,,,,99.4157,100.4625,100.4625,102.1803,return,0.2486,,44.01041667,0,21,21,25,1,FBP-YG-19.png,0.35,1.2,26,0.25,,,,,,,,,,,,,,,,,,,,,,,,,,,,,,,,,,,,,,,,,,,,,
,,,,,SPR24_064,20,Female,2024-04-18_09h53.13.412,jersey_experiment_5_v0,2023.2.2,Win32,84.74576271,,,,,,,,,,,,,,,,102.1806,103.4747,103.4748,105.1921,return,0.2221,,65.36458333,0,22,22,37,1,FBP-RB-18.png,0.4,1.2,38,0.5,,,,,,,,,,,,,,,,,,,,,,,,,,,,,,,,,,,,,,,,,,,,,
,,,,,SPR24_064,20,Female,2024-04-18_09h53.13.412,jersey_experiment_5_v0,2023.2.2,Win32,84.74576271,,,,,,,,,,,,,,,,105.1924,106.4862,106.4862,107.8158,return,0.213,,83.59375,0,23,23,34,1,FBP-RB-17.png,0.45,1.2,35,0.5,,,,,,,,,,,,,,,,,,,,,,,,,,,,,,,,,,,,,,,,,,,,,
,,,,,SPR24_064,20,Female,2024-04-18_09h53.13.412,jersey_experiment_5_v0,2023.2.2,Win32,84.74576271,,,,,,,,,,,,,,,,107.8161,108.8628,108.8629,110.6276,return,0.414,,29.42708333,0,24,24,45,1,FBP-PT-17.png,0.35,1.2,46,0.25,,,,,,,,,,,,,,,,,,,,,,,,,,,,,,,,,,,,,,,,,,,,,
,,,,,SPR24_064,20,Female,2024-04-18_09h53.13.412,jersey_experiment_5_v0,2023.2.2,Win32,84.74576271,,,,,,,,,,,,,,,,110.6277,111.675,111.675,112.922,return,0.259,,31.25,0,25,25,26,1,FBP-YG-19.png,0.37,1.2,27,0.25,,,,,,,,,,,,,,,,,,,,,,,,,,,,,,,,,,,,,,,,,,,,,
,,,,,SPR24_064,20,Female,2024-04-18_09h53.13.412,jersey_experiment_5_v0,2023.2.2,Win32,84.74576271,,,,,,,,,,,,,,,,112.9222,114.216,114.216,115.1926,return,0.2583,,55.72916667,0,26,26,2,1,FBP-OG-71.png,0.4,1.2,3,0.5,,,,,,,,,,,,,,,,,,,,,,,,,,,,,,,,,,,,,,,,,,,,,
,,,,,SPR24_064,20,Female,2024-04-18_09h53.13.412,jersey_experiment_5_v0,2023.2.2,Win32,84.74576271,,,,,,,,,,,,,,,,115.1928,116.4867,116.4867,117.5455,return,0.1884,,71.35416667,0,27,27,12,1,FBP-OG-91.png,0.4,1.2,13,0.5,,,,,,,,,,,,,,,,,,,,,,,,,,,,,,,,,,,,,,,,,,,,,
,,,,,SPR24_064,20,Female,2024-04-18_09h53.13.412,jersey_experiment_5_v0,2023.2.2,Win32,84.74576271,,,,,,,,,,,,,,,,117.5457,118.5927,118.5927,119.9574,return,0.2022,,80.33854167,0,28,28,48,1,FBP-PT-17.png,0.43,1.2,49,0.25,,,,,,,,,,,,,,,,,,,,,,,,,,,,,,,,,,,,,,,,,,,,,
,,,,,SPR24_064,20,Female,2024-04-18_09h53.13.412,jersey_experiment_5_v0,2023.2.2,Win32,84.74576271,,,,,,,,,,,,,,,,119.9576,121.0044,121.0044,123.1457,return,0.4945,,27.60416667,0,29,29,20,1,FBP-YG-18.png,0.35,1.2,21,0.25,,,,,,,,,,,,,,,,,,,,,,,,,,,,,,,,,,,,,,,,,,,,,
,,,,,SPR24_064,20,Female,2024-04-18_09h53.13.412,jersey_experiment_5_v0,2023.2.2,Win32,84.74576271,,,,,,,,,,,,,,,,123.146,124.4399,124.44,125.8281,return,0.2246,,74.21875,0,30,30,43,1,FBP-RB-19.png,0.43,1.2,44,0.5,,,,,,,,,,,,,,,,,,,,,,,,,,,,,,,,,,,,,,,,,,,,,
,,,,,SPR24_064,20,Female,2024-04-18_09h53.13.412,jersey_experiment_5_v0,2023.2.2,Win32,84.74576271,,,,,,,,,,,,,,,,125.8284,126.8753,126.8754,128.3107,return,0.2499,,29.296875,0,31,31,15,1,FBP-YG-17.png,0.35,1.2,16,0.25,,,,,,,,,,,,,,,,,,,,,,,,,,,,,,,,,,,,,,,,,,,,,
,,,,,SPR24_064,20,Female,2024-04-18_09h53.13.412,jersey_experiment_5_v0,2023.2.2,Win32,84.74576271,,,,,,,,,,,,,,,,128.3108,129.3577,129.3578,130.8637,return,0.63,,29.296875,0,32,32,21,1,FBP-YG-18.png,0.37,1.2,22,0.25,,,,,,,,,,,,,,,,,,,,,,,,,,,,,,,,,,,,,,,,,,,,,
,,,,,SPR24_064,20,Female,2024-04-18_09h53.13.412,jersey_experiment_5_v0,2023.2.2,Win32,84.74576271,,,,,,,,,,,,,,,,130.864,131.9108,131.9108,133.5697,return,0.2978,,90.49479167,0,33,33,59,1,FBP-PT-19.png,0.45,1.2,60,0.25,,,,,,,,,,,,,,,,,,,,,,,,,,,,,,,,,,,,,,,,,,,,,
,,,,,SPR24_064,20,Female,2024-04-18_09h53.13.412,jersey_experiment_5_v0,2023.2.2,Win32,84.74576271,,,,,,,,,,,,,,,,133.5699,134.6167,134.6168,136.17,return,0.4148,,82.94270833,0,34,34,23,1,FBP-YG-18.png,0.43,1.2,24,0.25,,,,,,,,,,,,,,,,,,,,,,,,,,,,,,,,,,,,,,,,,,,,,
,,,,,SPR24_064,20,Female,2024-04-18_09h53.13.412,jersey_experiment_5_v0,2023.2.2,Win32,84.74576271,,,,,,,,,,,,,,,,136.1701,137.464,137.464,138.8403,return,0.1743,,26.953125,0,35,35,40,1,FBP-RB-19.png,0.35,1.2,41,0.5,,,,,,,,,,,,,,,,,,,,,,,,,,,,,,,,,,,,,,,,,,,,,
,,,,,SPR24_064,20,Female,2024-04-18_09h53.13.412,jersey_experiment_5_v0,2023.2.2,Win32,84.74576271,,,,,,,,,,,,,,,,138.8406,140.1345,140.1346,141.3699,return,0.1881,,32.94270833,0,36,36,1,1,FBP-OG-71.png,0.37,1.2,2,0.5,,,,,,,,,,,,,,,,,,,,,,,,,,,,,,,,,,,,,,,,,,,,,
,,,,,SPR24_064,20,Female,2024-04-18_09h53.13.412,jersey_experiment_5_v0,2023.2.2,Win32,84.74576271,,,,,,,,,,,,,,,,141.3701,142.6642,142.6642,143.9584,return,0.296,,88.02083333,0,37,37,39,1,FBP-RB-18.png,0.45,1.2,40,0.5,,,,,,,,,,,,,,,,,,,,,,,,,,,,,,,,,,,,,,,,,,,,,
,,,,,SPR24_064,20,Female,2024-04-18_09h53.13.412,jersey_experiment_5_v0,2023.2.2,Win32,84.74576271,,,,,,,,,,,,,,,,143.9587,145.2526,145.2527,146.6408,return,0.2634,,28.25520833,0,38,38,10,1,FBP-OG-91.png,0.35,1.2,11,0.5,,,,,,,,,,,,,,,,,,,,,,,,,,,,,,,,,,,,,,,,,,,,,
,,,,,SPR24_064,20,Female,2024-04-18_09h53.13.412,jersey_experiment_5_v0,2023.2.2,Win32,84.74576271,,,,,,,,,,,,,,,,146.641,147.6877,147.6878,148.9115,return,0.2297,,67.31770833,0,39,39,58,1,FBP-PT-19.png,0.43,1.2,59,0.25,,,,,,,,,,,,,,,,,,,,,,,,,,,,,,,,,,,,,,,,,,,,,
,,,,,SPR24_064,20,Female,2024-04-18_09h53.13.412,jersey_experiment_5_v0,2023.2.2,Win32,84.74576271,,,,,,,,,,,,,,,,148.9117,150.2055,150.2055,151.2057,return,0.2018,,80.72916667,0,40,40,4,1,FBP-OG-71.png,0.45,1.2,5,0.5,,,,,,,,,,,,,,,,,,,,,,,,,,,,,,,,,,,,,,,,,,,,,
,,,,,SPR24_064,20,Female,2024-04-18_09h53.13.412,jersey_experiment_5_v0,2023.2.2,Win32,84.74576271,,,,,,,,,,,,,,,,151.2059,152.4997,152.4997,153.3821,return,0.2129,,86.84895833,0,41,41,44,1,FBP-RB-19.png,0.45,1.2,45,0.5,,,,,,,,,,,,,,,,,,,,,,,,,,,,,,,,,,,,,,,,,,,,,
,,,,,SPR24_064,20,Female,2024-04-18_09h53.13.412,jersey_experiment_5_v0,2023.2.2,Win32,84.74576271,,,,,,,,,,,,,,,,153.3822,154.4293,154.4294,155.4883,return,0.2399,,86.84895833,0,42,42,53,1,FBP-PT-18.png,0.43,1.2,54,0.25,,,,,,,,,,,,,,,,,,,,,,,,,,,,,,,,,,,,,,,,,,,,,
,,,,,SPR24_064,20,Female,2024-04-18_09h53.13.412,jersey_experiment_5_v0,2023.2.2,Win32,84.74576271,,,,,,,,,,,,,,,,155.4885,156.5351,156.5352,158.0059,return,0.1785,,79.16666667,0,43,43,47,1,FBP-PT-17.png,0.4,1.2,48,0.25,,,,,,,,,,,,,,,,,,,,,,,,,,,,,,,,,,,,,,,,,,,,,
,,,,,SPR24_064,20,Female,2024-04-18_09h53.13.412,jersey_experiment_5_v0,2023.2.2,Win32,84.74576271,,,,,,,,,,,,,,,,158.0061,159.3002,159.3002,160.4061,return,0.2598,,79.94791667,0,44,44,14,1,FBP-OG-91.png,0.45,1.2,15,0.5,,,,,,,,,,,,,,,,,,,,,,,,,,,,,,,,,,,,,,,,,,,,,
,,,,,SPR24_064,20,Female,2024-04-18_09h53.13.412,jersey_experiment_5_v0,2023.2.2,Win32,84.74576271,,,,,,,,,,,,,,,,160.4063,161.7002,161.7002,163.1119,return,0.2363,,75.390625,0,45,45,33,1,FBP-RB-17.png,0.43,1.2,34,0.5,,,,,,,,,,,,,,,,,,,,,,,,,,,,,,,,,,,,,,,,,,,,,
,,,,,SPR24_064,20,Female,2024-04-18_09h53.13.412,jersey_experiment_5_v0,2023.2.2,Win32,84.74576271,,,,,,,,,,,,,,,,163.112,164.4061,164.4061,166.4531,return,0.2496,,33.85416667,0,46,46,35,1,FBP-RB-18.png,0.35,1.2,36,0.5,,,,,,,,,,,,,,,,,,,,,,,,,,,,,,,,,,,,,,,,,,,,,
,,,,,SPR24_064,20,Female,2024-04-18_09h53.13.412,jersey_experiment_5_v0,2023.2.2,Win32,84.74576271,,,,,,,,,,,,,,,,166.4534,167.5003,167.5003,169.6887,return,0.2214,,49.34895833,0,47,47,57,1,FBP-PT-19.png,0.4,1.2,58,0.25,,,,,,,,,,,,,,,,,,,,,,,,,,,,,,,,,,,,,,,,,,,,,
,,,,,SPR24_064,20,Female,2024-04-18_09h53.13.412,jersey_experiment_5_v0,2023.2.2,Win32,84.74576271,,,,,,,,,,,,,,,,169.689,170.7357,170.7358,172.3359,return,0.265,,66.14583333,0,48,48,49,1,FBP-PT-17.png,0.45,1.2,50,0.25,,,,,,,,,,,,,,,,,,,,,,,,,,,,,,,,,,,,,,,,,,,,,
,,,,,SPR24_064,20,Female,2024-04-18_09h53.13.412,jersey_experiment_5_v0,2023.2.2,Win32,84.74576271,,,,,,,,,,,,,,,,172.3361,173.3829,173.3829,175.1829,return,0.3264,,61.58854167,0,49,49,22,1,FBP-YG-18.png,0.4,1.2,23,0.25,,,,,,,,,,,,,,,,,,,,,,,,,,,,,,,,,,,,,,,,,,,,,
,,,,,SPR24_064,20,Female,2024-04-18_09h53.13.412,jersey_experiment_5_v0,2023.2.2,Win32,84.74576271,,,,,,,,,,,,,,,,175.1832,176.23,176.2301,177.5829,return,0.1853,,47.91666667,0,50,50,46,1,FBP-PT-17.png,0.37,1.2,47,0.25,,,,,,,,,,,,,,,,,,,,,,,,,,,,,,,,,,,,,,,,,,,,,
,,,,,SPR24_064,20,Female,2024-04-18_09h53.13.412,jersey_experiment_5_v0,2023.2.2,Win32,84.74576271,,,,,,,,,,,,,,,,177.5833,178.63,178.63,179.8302,return,0.3778,,47.91666667,0,51,51,52,1,FBP-PT-18.png,0.4,1.2,53,0.25,,,,,,,,,,,,,,,,,,,,,,,,,,,,,,,,,,,,,,,,,,,,,
,,,,,SPR24_064,20,Female,2024-04-18_09h53.13.412,jersey_experiment_5_v0,2023.2.2,Win32,84.74576271,,,,,,,,,,,,,,,,179.8303,180.8773,180.8774,182.2067,return,0.3148,,67.31770833,0,52,52,28,1,FBP-YG-19.png,0.43,1.2,29,0.25,,,,,,,,,,,,,,,,,,,,,,,,,,,,,,,,,,,,,,,,,,,,,
,,,,,SPR24_064,20,Female,2024-04-18_09h53.13.412,jersey_experiment_5_v0,2023.2.2,Win32,84.74576271,,,,,,,,,,,,,,,,182.207,183.2539,183.254,185.1128,return,0.3442,,48.17708333,0,53,53,16,1,FBP-YG-17.png,0.37,1.2,17,0.25,,,,,,,,,,,,,,,,,,,,,,,,,,,,,,,,,,,,,,,,,,,,,
,,,,,SPR24_064,20,Female,2024-04-18_09h53.13.412,jersey_experiment_5_v0,2023.2.2,Win32,84.74576271,,,,,,,,,,,,,,,,185.1131,186.1597,186.1598,187.4657,return,0.2261,,73.95833333,0,54,54,19,1,FBP-YG-17.png,0.45,1.2,20,0.25,,,,,,,,,,,,,,,,,,,,,,,,,,,,,,,,,,,,,,,,,,,,,
,,,,,SPR24_064,20,Female,2024-04-18_09h53.13.412,jersey_experiment_5_v0,2023.2.2,Win32,84.74576271,,,,,,,,,,,,,,,,187.466,188.5128,188.5128,189.5363,return,0.217,,74.08854167,0,55,55,18,1,FBP-YG-17.png,0.43,1.2,19,0.25,,,,,,,,,,,,,,,,,,,,,,,,,,,,,,,,,,,,,,,,,,,,,
,,,,,SPR24_064,20,Female,2024-04-18_09h53.13.412,jersey_experiment_5_v0,2023.2.2,Win32,84.74576271,,,,,,,,,,,,,,,,189.5366,190.8306,190.8306,192.2895,return,0.2401,,63.02083333,0,56,56,32,1,FBP-RB-17.png,0.4,1.2,33,0.5,,,,,,,,,,,,,,,,,,,,,,,,,,,,,,,,,,,,,,,,,,,,,
,,,,,SPR24_064,20,Female,2024-04-18_09h53.13.412,jersey_experiment_5_v0,2023.2.2,Win32,84.74576271,,,,,,,,,,,,,,,,192.2898,193.5836,193.5837,194.8544,return,0.2345,,80.72916667,0,57,57,9,1,FBP-OG-81.png,0.45,1.2,10,0.5,,,,,,,,,,,,,,,,,,,,,,,,,,,,,,,,,,,,,,,,,,,,,
,,,,,SPR24_064,20,Female,2024-04-18_09h53.13.412,jersey_experiment_5_v0,2023.2.2,Win32,84.74576271,,,,,,,,,,,,,,,,194.8546,196.1485,196.1485,197.4662,return,0.2964,,70.96354167,0,58,58,7,1,FBP-OG-81.png,0.4,1.2,8,0.5,,,,,,,,,,,,,,,,,,,,,,,,,,,,,,,,,,,,,,,,,,,,,
,,,,,SPR24_064,20,Female,2024-04-18_09h53.13.412,jersey_experiment_5_v0,2023.2.2,Win32,84.74576271,,,,,,,,,,,,,,,,197.4664,198.5132,198.5132,199.6662,return,0.1797,,64.58333333,0,59,59,27,1,FBP-YG-19.png,0.4,1.2,28,0.25,,,,,,,,,,,,,,,,,,,,,,,,,,,,,,,,,,,,,,,,,,,,,
,,,,,SPR24_064,20,Female,2024-04-18_09h53.13.412,jersey_experiment_5_v0,2023.2.2,Win32,84.74576271,,,,,,,,,,,,,,,,199.6677,200.7131,200.7132,203.2545,return,0.3557,,52.47395833,,,,,,FBP-YG-91.png,0.37,1.2,27,0.25,0,0,0,26,1,,,,,,,,,,,,,,,,,,,,,,,,,,,,,,,,,,,,,,,,
,,,,,SPR24_064,20,Female,2024-04-18_09h53.13.412,jersey_experiment_5_v0,2023.2.2,Win32,84.74576271,,,,,,,,,,,,,,,,203.2549,204.5487,204.5487,206.4548,return,0.3306,,42.1875,,,,,,FBP-OG-18.png,0.37,1.2,7,0.5,0,1,1,6,1,,,,,,,,,,,,,,,,,,,,,,,,,,,,,,,,,,,,,,,,
,,,,,SPR24_064,20,Female,2024-04-18_09h53.13.412,jersey_experiment_5_v0,2023.2.2,Win32,84.74576271,,,,,,,,,,,,,,,,206.4551,207.5019,207.5019,210.9609,return,1.77,,83.46354167,,,,,,FBP-PT-81.png,0.45,1.2,55,0.25,0,2,2,54,1,,,,,,,,,,,,,,,,,,,,,,,,,,,,,,,,,,,,,,,,
,,,,,SPR24_064,20,Female,2024-04-18_09h53.13.412,jersey_experiment_5_v0,2023.2.2,Win32,84.74576271,,,,,,,,,,,,,,,,210.9611,212.255,212.2551,213.7609,return,0.2637,,74.21875,,,,,,FBP-OG-17.png,0.4,1.2,3,0.5,0,3,3,2,1,,,,,,,,,,,,,,,,,,,,,,,,,,,,,,,,,,,,,,,,
,,,,,SPR24_064,20,Female,2024-04-18_09h53.13.412,jersey_experiment_5_v0,2023.2.2,Win32,84.74576271,,,,,,,,,,,,,,,,213.7612,214.8078,214.8078,216.4785,return,0.1833,,83.33333333,,,,,,FBP-PT-91.png,0.45,1.2,60,0.25,0,4,4,59,1,,,,,,,,,,,,,,,,,,,,,,,,,,,,,,,,,,,,,,,,
,,,,,SPR24_064,20,Female,2024-04-18_09h53.13.412,jersey_experiment_5_v0,2023.2.2,Win32,84.74576271,,,,,,,,,,,,,,,,216.4787,217.7729,217.7729,219.2317,return,0.2287,,33.72395833,,,,,,FBP-OG-18.png,0.35,1.2,6,0.5,0,5,5,5,1,,,,,,,,,,,,,,,,,,,,,,,,,,,,,,,,,,,,,,,,
,,,,,SPR24_064,20,Female,2024-04-18_09h53.13.412,jersey_experiment_5_v0,2023.2.2,Win32,84.74576271,,,,,,,,,,,,,,,,219.2318,220.2788,220.2788,221.7022,return,0.1658,,32.68229167,,,,,,FBP-YG-71.png,0.37,1.2,17,0.25,0,6,6,16,1,,,,,,,,,,,,,,,,,,,,,,,,,,,,,,,,,,,,,,,,
,,,,,SPR24_064,20,Female,2024-04-18_09h53.13.412,jersey_experiment_5_v0,2023.2.2,Win32,84.74576271,,,,,,,,,,,,,,,,221.7025,222.9965,222.9965,224.4789,return,0.1831,,75.52083333,,,,,,FBP-OG-19.png,0.45,1.2,15,0.5,0,7,7,14,1,,,,,,,,,,,,,,,,,,,,,,,,,,,,,,,,,,,,,,,,
,,,,,SPR24_064,20,Female,2024-04-18_09h53.13.412,jersey_experiment_5_v0,2023.2.2,Win32,84.74576271,,,,,,,,,,,,,,,,224.479,225.5261,225.5261,228.5026,return,0.6126,,42.44791667,,,,,,FBP-PT-71.png,0.4,1.2,48,0.25,0,8,8,47,1,,,,,,,,,,,,,,,,,,,,,,,,,,,,,,,,,,,,,,,,
,,,,,SPR24_064,20,Female,2024-04-18_09h53.13.412,jersey_experiment_5_v0,2023.2.2,Win32,84.74576271,,,,,,,,,,,,,,,,228.5028,229.7969,229.7969,231.1026,return,0.2558,,59.765625,,,,,,FBP-RB-91.png,0.43,1.2,44,0.5,0,9,9,43,1,,,,,,,,,,,,,,,,,,,,,,,,,,,,,,,,,,,,,,,,
,,,,,SPR24_064,20,Female,2024-04-18_09h53.13.412,jersey_experiment_5_v0,2023.2.2,Win32,84.74576271,,,,,,,,,,,,,,,,231.1028,232.397,232.397,233.5853,return,0.2654,,72.00520833,,,,,,FBP-OG-17.png,0.45,1.2,5,0.5,0,10,10,4,1,,,,,,,,,,,,,,,,,,,,,,,,,,,,,,,,,,,,,,,,
,,,,,SPR24_064,20,Female,2024-04-18_09h53.13.412,jersey_experiment_5_v0,2023.2.2,Win32,84.74576271,,,,,,,,,,,,,,,,233.5855,234.8793,234.8793,235.8441,return,0.3327,,72.00520833,,,,,,FBP-RB-71.png,0.43,1.2,34,0.5,0,11,11,33,1,,,,,,,,,,,,,,,,,,,,,,,,,,,,,,,,,,,,,,,,
,,,,,SPR24_064,20,Female,2024-04-18_09h53.13.412,jersey_experiment_5_v0,2023.2.2,Win32,84.74576271,,,,,,,,,,,,,,,,235.8444,237.1382,237.1382,238.962,return,0.3468,,76.04166667,,,,,,FBP-RB-81.png,0.43,1.2,39,0.5,0,12,12,38,1,,,,,,,,,,,,,,,,,,,,,,,,,,,,,,,,,,,,,,,,
,,,,,SPR24_064,20,Female,2024-04-18_09h53.13.412,jersey_experiment_5_v0,2023.2.2,Win32,84.74576271,,,,,,,,,,,,,,,,238.9621,240.256,240.256,241.103,return,0.266,,80.72916667,,,,,,FBP-RB-91.png,0.45,1.2,45,0.5,0,13,13,44,1,,,,,,,,,,,,,,,,,,,,,,,,,,,,,,,,,,,,,,,,
,,,,,SPR24_064,20,Female,2024-04-18_09h53.13.412,jersey_experiment_5_v0,2023.2.2,Win32,84.74576271,,,,,,,,,,,,,,,,241.1032,242.3972,242.3973,244.2443,return,1.062,,72.39583333,,,,,,FBP-RB-91.png,0.4,1.2,43,0.5,0,14,14,42,1,,,,,,,,,,,,,,,,,,,,,,,,,,,,,,,,,,,,,,,,
,,,,,SPR24_064,20,Female,2024-04-18_09h53.13.412,jersey_experiment_5_v0,2023.2.2,Win32,84.74576271,,,,,,,,,,,,,,,,244.2444,245.2914,245.2915,247.3503,return,0.3174,,42.83854167,,,,,,FBP-YG-81.png,0.35,1.2,21,0.25,0,15,15,20,1,,,,,,,,,,,,,,,,,,,,,,,,,,,,,,,,,,,,,,,,
,,,,,SPR24_064,20,Female,2024-04-18_09h53.13.412,jersey_experiment_5_v0,2023.2.2,Win32,84.74576271,,,,,,,,,,,,,,,,247.3505,248.6445,248.6445,250.5857,return,0.1412,,42.83854167,,,,,,FBP-OG-19.png,0.43,1.2,14,0.5,0,16,16,13,1,,,,,,,,,,,,,,,,,,,,,,,,,,,,,,,,,,,,,,,,
,,,,,SPR24_064,20,Female,2024-04-18_09h53.13.412,jersey_experiment_5_v0,2023.2.2,Win32,84.74576271,,,,,,,,,,,,,,,,250.586,251.6328,251.6329,253.0565,return,0.1939,,34.375,,,,,,FBP-PT-81.png,0.37,1.2,52,0.25,0,17,17,51,1,,,,,,,,,,,,,,,,,,,,,,,,,,,,,,,,,,,,,,,,
,,,,,SPR24_064,20,Female,2024-04-18_09h53.13.412,jersey_experiment_5_v0,2023.2.2,Win32,84.74576271,,,,,,,,,,,,,,,,253.0567,254.3505,254.3506,255.8095,return,0.2298,,37.890625,,,,,,FBP-RB-71.png,0.37,1.2,32,0.5,0,18,18,31,1,,,,,,,,,,,,,,,,,,,,,,,,,,,,,,,,,,,,,,,,
,,,,,SPR24_064,20,Female,2024-04-18_09h53.13.412,jersey_experiment_5_v0,2023.2.2,Win32,84.74576271,,,,,,,,,,,,,,,,255.8097,256.8566,256.8567,258.0096,return,0.2461,,37.890625,,,,,,FBP-PT-91.png,0.37,1.2,57,0.25,0,19,19,56,1,,,,,,,,,,,,,,,,,,,,,,,,,,,,,,,,,,,,,,,,
,,,,,SPR24_064,20,Female,2024-04-18_09h53.13.412,jersey_experiment_5_v0,2023.2.2,Win32,84.74576271,,,,,,,,,,,,,,,,258.0098,259.0566,259.0566,260.2801,return,0.2124,,29.16666667,,,,,,FBP-YG-71.png,0.35,1.2,16,0.25,0,20,20,15,1,,,,,,,,,,,,,,,,,,,,,,,,,,,,,,,,,,,,,,,,
,,,,,SPR24_064,20,Female,2024-04-18_09h53.13.412,jersey_experiment_5_v0,2023.2.2,Win32,84.74576271,,,,,,,,,,,,,,,,260.2804,261.5745,261.5745,262.8568,return,0.2679,,68.09895833,,,,,,FBP-OG-17.png,0.43,1.2,4,0.5,0,21,21,3,1,,,,,,,,,,,,,,,,,,,,,,,,,,,,,,,,,,,,,,,,
,,,,,SPR24_064,20,Female,2024-04-18_09h53.13.412,jersey_experiment_5_v0,2023.2.2,Win32,84.74576271,,,,,,,,,,,,,,,,262.8571,264.151,264.151,267.0101,return,1.5096,,30.98958333,,,,,,FBP-RB-81.png,0.35,1.2,36,0.5,0,22,22,35,1,,,,,,,,,,,,,,,,,,,,,,,,,,,,,,,,,,,,,,,,
,,,,,SPR24_064,20,Female,2024-04-18_09h53.13.412,jersey_experiment_5_v0,2023.2.2,Win32,84.74576271,,,,,,,,,,,,,,,,267.0102,268.0569,268.057,269.0571,return,0.2536,,29.16666667,,,,,,FBP-PT-71.png,0.37,1.2,47,0.25,0,23,23,46,1,,,,,,,,,,,,,,,,,,,,,,,,,,,,,,,,,,,,,,,,
,,,,,SPR24_064,20,Female,2024-04-18_09h53.13.412,jersey_experiment_5_v0,2023.2.2,Win32,84.74576271,,,,,,,,,,,,,,,,269.0573,270.1041,270.1042,271.8338,return,0.32,,23.69791667,,,,,,FBP-PT-91.png,0.35,1.2,56,0.25,0,24,24,55,1,,,,,,,,,,,,,,,,,,,,,,,,,,,,,,,,,,,,,,,,
,,,,,SPR24_064,20,Female,2024-04-18_09h53.13.412,jersey_experiment_5_v0,2023.2.2,Win32,84.74576271,,,,,,,,,,,,,,,,271.834,273.1279,273.1279,275.0808,return,0.2594,,48.046875,,,,,,FBP-RB-71.png,0.4,1.2,33,0.5,0,25,25,32,1,,,,,,,,,,,,,,,,,,,,,,,,,,,,,,,,,,,,,,,,
,,,,,SPR24_064,20,Female,2024-04-18_09h53.13.412,jersey_experiment_5_v0,2023.2.2,Win32,84.74576271,,,,,,,,,,,,,,,,275.0811,276.375,276.375,277.3516,return,0.3161,,46.09375,,,,,,FBP-OG-19.png,0.37,1.2,12,0.5,0,26,26,11,1,,,,,,,,,,,,,,,,,,,,,,,,,,,,,,,,,,,,,,,,
,,,,,SPR24_064,20,Female,2024-04-18_09h53.13.412,jersey_experiment_5_v0,2023.2.2,Win32,84.74576271,,,,,,,,,,,,,,,,277.3518,278.3987,278.3987,279.987,return,0.1791,,49.609375,,,,,,FBP-YG-91.png,0.4,1.2,28,0.25,0,27,27,27,1,,,,,,,,,,,,,,,,,,,,,,,,,,,,,,,,,,,,,,,,
,,,,,SPR24_064,20,Female,2024-04-18_09h53.13.412,jersey_experiment_5_v0,2023.2.2,Win32,84.74576271,,,,,,,,,,,,,,,,279.9872,281.034,281.034,282.2105,return,0.2054,,42.96875,,,,,,FBP-YG-91.png,0.35,1.2,26,0.25,0,28,28,25,1,,,,,,,,,,,,,,,,,,,,,,,,,,,,,,,,,,,,,,,,
,,,,,SPR24_064,20,Female,2024-04-18_09h53.13.412,jersey_experiment_5_v0,2023.2.2,Win32,84.74576271,,,,,,,,,,,,,,,,282.2107,283.5045,283.5046,285.1518,return,0.2176,,46.74479167,,,,,,FBP-RB-71.png,0.35,1.2,31,0.5,0,29,29,30,1,,,,,,,,,,,,,,,,,,,,,,,,,,,,,,,,,,,,,,,,
,,,,,SPR24_064,20,Female,2024-04-18_09h53.13.412,jersey_experiment_5_v0,2023.2.2,Win32,84.74576271,,,,,,,,,,,,,,,,285.1521,286.1989,286.1989,288.8226,return,0.3906,,75.52083333,,,,,,FBP-YG-91.png,0.45,1.2,30,0.25,0,30,30,29,1,,,,,,,,,,,,,,,,,,,,,,,,,,,,,,,,,,,,,,,,
,,,,,SPR24_064,20,Female,2024-04-18_09h53.13.412,jersey_experiment_5_v0,2023.2.2,Win32,84.74576271,,,,,,,,,,,,,,,,288.8229,290.1169,290.117,293.7522,return,2.1268,,39.71354167,,,,,,FBP-OG-17.png,0.35,1.2,1,0.5,0,31,31,0,1,,,,,,,,,,,,,,,,,,,,,,,,,,,,,,,,,,,,,,,,
,,,,,SPR24_064,20,Female,2024-04-18_09h53.13.412,jersey_experiment_5_v0,2023.2.2,Win32,84.74576271,,,,,,,,,,,,,,,,293.7524,294.7992,294.7992,296.3992,return,0.3023,,81.90104167,,,,,,FBP-YG-71.png,0.45,1.2,20,0.25,0,32,32,19,1,,,,,,,,,,,,,,,,,,,,,,,,,,,,,,,,,,,,,,,,
,,,,,SPR24_064,20,Female,2024-04-18_09h53.13.412,jersey_experiment_5_v0,2023.2.2,Win32,84.74576271,,,,,,,,,,,,,,,,296.3994,297.6934,297.6934,298.9759,return,0.3137,,76.30208333,,,,,,FBP-OG-18.png,0.43,1.2,9,0.5,0,33,33,8,1,,,,,,,,,,,,,,,,,,,,,,,,,,,,,,,,,,,,,,,,
,,,,,SPR24_064,20,Female,2024-04-18_09h53.13.412,jersey_experiment_5_v0,2023.2.2,Win32,84.74576271,,,,,,,,,,,,,,,,298.9762,300.27,300.27,301.2464,return,0.4779,,76.30208333,,,,,,FBP-RB-81.png,0.4,1.2,38,0.5,0,34,34,37,1,,,,,,,,,,,,,,,,,,,,,,,,,,,,,,,,,,,,,,,,
,,,,,SPR24_064,20,Female,2024-04-18_09h53.13.412,jersey_experiment_5_v0,2023.2.2,Win32,84.74576271,,,,,,,,,,,,,,,,301.2467,302.2936,302.2936,303.3641,return,0.274,,85.02604167,,,,,,FBP-YG-81.png,0.43,1.2,24,0.25,0,35,35,23,1,,,,,,,,,,,,,,,,,,,,,,,,,,,,,,,,,,,,,,,,
,,,,,SPR24_064,20,Female,2024-04-18_09h53.13.412,jersey_experiment_5_v0,2023.2.2,Win32,84.74576271,,,,,,,,,,,,,,,,303.3644,304.4112,304.4112,305.3291,return,0.2991,,85.02604167,,,,,,FBP-YG-71.png,0.4,1.2,18,0.25,0,36,36,17,1,,,,,,,,,,,,,,,,,,,,,,,,,,,,,,,,,,,,,,,,
,,,,,SPR24_064,20,Female,2024-04-18_09h53.13.412,jersey_experiment_5_v0,2023.2.2,Win32,84.74576271,,,,,,,,,,,,,,,,305.3292,306.6231,306.6231,307.9997,return,0.2884,,73.69791667,,,,,,FBP-OG-17.png,0.37,1.2,2,0.5,0,37,37,1,1,,,,,,,,,,,,,,,,,,,,,,,,,,,,,,,,,,,,,,,,
,,,,,SPR24_064,20,Female,2024-04-18_09h53.13.412,jersey_experiment_5_v0,2023.2.2,Win32,84.74576271,,,,,,,,,,,,,,,,307.9999,309.2938,309.2938,311.7997,return,1.8118,,71.22395833,,,,,,FBP-RB-91.png,0.37,1.2,42,0.5,0,38,38,41,1,,,,,,,,,,,,,,,,,,,,,,,,,,,,,,,,,,,,,,,,
,,,,,SPR24_064,20,Female,2024-04-18_09h53.13.412,jersey_experiment_5_v0,2023.2.2,Win32,84.74576271,,,,,,,,,,,,,,,,311.8,312.8469,312.847,314.2234,return,0.1582,,66.015625,,,,,,FBP-YG-71.png,0.43,1.2,19,0.25,0,39,39,18,1,,,,,,,,,,,,,,,,,,,,,,,,,,,,,,,,,,,,,,,,
,,,,,SPR24_064,20,Female,2024-04-18_09h53.13.412,jersey_experiment_5_v0,2023.2.2,Win32,84.74576271,,,,,,,,,,,,,,,,314.2237,315.2705,315.2705,316.6705,return,0.1736,,76.04166667,,,,,,FBP-YG-91.png,0.43,1.2,29,0.25,0,40,40,28,1,,,,,,,,,,,,,,,,,,,,,,,,,,,,,,,,,,,,,,,,
,,,,,SPR24_064,20,Female,2024-04-18_09h53.13.412,jersey_experiment_5_v0,2023.2.2,Win32,84.74576271,,,,,,,,,,,,,,,,316.6707,317.7178,317.7178,319.1767,return,0.2355,,86.97916667,,,,,,FBP-PT-71.png,0.45,1.2,50,0.25,0,41,41,49,1,,,,,,,,,,,,,,,,,,,,,,,,,,,,,,,,,,,,,,,,
,,,,,SPR24_064,20,Female,2024-04-18_09h53.13.412,jersey_experiment_5_v0,2023.2.2,Win32,84.74576271,,,,,,,,,,,,,,,,319.1769,320.2235,320.2236,321.8942,return,0.1286,,82.16145833,,,,,,FBP-YG-81.png,0.45,1.2,25,0.25,0,42,42,24,1,,,,,,,,,,,,,,,,,,,,,,,,,,,,,,,,,,,,,,,,
,,,,,SPR24_064,20,Female,2024-04-18_09h53.13.412,jersey_experiment_5_v0,2023.2.2,Win32,84.74576271,,,,,,,,,,,,,,,,321.8945,322.9414,322.9414,324.4709,return,0.2492,,78.515625,,,,,,FBP-PT-81.png,0.4,1.2,53,0.25,0,43,43,52,1,,,,,,,,,,,,,,,,,,,,,,,,,,,,,,,,,,,,,,,,
,,,,,SPR24_064,20,Female,2024-04-18_09h53.13.412,jersey_experiment_5_v0,2023.2.2,Win32,84.74576271,,,,,,,,,,,,,,,,324.4712,325.765,325.765,327.3534,return,0.2697,,55.46875,,,,,,FBP-OG-18.png,0.4,1.2,8,0.5,0,44,44,7,1,,,,,,,,,,,,,,,,,,,,,,,,,,,,,,,,,,,,,,,,
,,,,,SPR24_064,20,Female,2024-04-18_09h53.13.412,jersey_experiment_5_v0,2023.2.2,Win32,84.74576271,,,,,,,,,,,,,,,,327.3536,328.4005,328.4005,329.8709,return,0.22,,73.4375,,,,,,FBP-PT-81.png,0.43,1.2,54,0.25,0,45,45,53,1,,,,,,,,,,,,,,,,,,,,,,,,,,,,,,,,,,,,,,,,
,,,,,SPR24_064,20,Female,2024-04-18_09h53.13.412,jersey_experiment_5_v0,2023.2.2,Win32,84.74576271,,,,,,,,,,,,,,,,329.8712,330.9182,330.9182,333.2477,return,0.1943,,45.3125,,,,,,FBP-YG-81.png,0.37,1.2,22,0.25,0,46,46,21,1,,,,,,,,,,,,,,,,,,,,,,,,,,,,,,,,,,,,,,,,
,,,,,SPR24_064,20,Female,2024-04-18_09h53.13.412,jersey_experiment_5_v0,2023.2.2,Win32,84.74576271,,,,,,,,,,,,,,,,333.2479,334.2947,334.2947,335.6242,return,0.2727,,72.78645833,,,,,,FBP-PT-71.png,0.43,1.2,49,0.25,0,47,47,48,1,,,,,,,,,,,,,,,,,,,,,,,,,,,,,,,,,,,,,,,,
,,,,,SPR24_064,20,Female,2024-04-18_09h53.13.412,jersey_experiment_5_v0,2023.2.2,Win32,84.74576271,,,,,,,,,,,,,,,,335.6245,336.9185,336.9185,338.048,return,0.2069,,46.61458333,,,,,,FBP-RB-91.png,0.35,1.2,41,0.5,0,48,48,40,1,,,,,,,,,,,,,,,,,,,,,,,,,,,,,,,,,,,,,,,,
,,,,,SPR24_064,20,Female,2024-04-18_09h53.13.412,jersey_experiment_5_v0,2023.2.2,Win32,84.74576271,,,,,,,,,,,,,,,,338.0483,339.342,339.3421,340.9185,return,0.201,,75.78125,,,,,,FBP-RB-81.png,0.45,1.2,40,0.5,0,49,49,39,1,,,,,,,,,,,,,,,,,,,,,,,,,,,,,,,,,,,,,,,,
,,,,,SPR24_064,20,Female,2024-04-18_09h53.13.412,jersey_experiment_5_v0,2023.2.2,Win32,84.74576271,,,,,,,,,,,,,,,,340.9188,342.2128,342.2129,343.3775,return,0.228,,67.70833333,,,,,,FBP-OG-19.png,0.4,1.2,13,0.5,0,50,50,12,1,,,,,,,,,,,,,,,,,,,,,,,,,,,,,,,,,,,,,,,,
,,,,,SPR24_064,20,Female,2024-04-18_09h53.13.412,jersey_experiment_5_v0,2023.2.2,Win32,84.74576271,,,,,,,,,,,,,,,,343.3777,344.4245,344.4247,345.8717,return,0.243,,74.21875,,,,,,FBP-PT-91.png,0.43,1.2,59,0.25,0,51,51,58,1,,,,,,,,,,,,,,,,,,,,,,,,,,,,,,,,,,,,,,,,
,,,,,SPR24_064,20,Female,2024-04-18_09h53.13.412,jersey_experiment_5_v0,2023.2.2,Win32,84.74576271,,,,,,,,,,,,,,,,345.872,347.1658,347.1658,348.5541,return,0.5176,,74.34895833,,,,,,FBP-OG-18.png,0.45,1.2,10,0.5,0,52,52,9,1,,,,,,,,,,,,,,,,,,,,,,,,,,,,,,,,,,,,,,,,
,,,,,SPR24_064,20,Female,2024-04-18_09h53.13.412,jersey_experiment_5_v0,2023.2.2,Win32,84.74576271,,,,,,,,,,,,,,,,348.5543,349.8481,349.8482,350.7541,return,0.191,,79.6875,,,,,,FBP-RB-71.png,0.45,1.2,35,0.5,0,53,53,34,1,,,,,,,,,,,,,,,,,,,,,,,,,,,,,,,,,,,,,,,,
,,,,,SPR24_064,20,Female,2024-04-18_09h53.13.412,jersey_experiment_5_v0,2023.2.2,Win32,84.74576271,,,,,,,,,,,,,,,,350.7544,351.8012,351.8014,353.6249,return,0.2357,,47.00520833,,,,,,FBP-PT-71.png,0.35,1.2,46,0.25,0,54,54,45,1,,,,,,,,,,,,,,,,,,,,,,,,,,,,,,,,,,,,,,,,
,,,,,SPR24_064,20,Female,2024-04-18_09h53.13.412,jersey_experiment_5_v0,2023.2.2,Win32,84.74576271,,,,,,,,,,,,,,,,353.6251,354.919,354.9191,356.0367,return,0.1302,,50,,,,,,FBP-RB-81.png,0.37,1.2,37,0.5,0,55,55,36,1,,,,,,,,,,,,,,,,,,,,,,,,,,,,,,,,,,,,,,,,
,,,,,SPR24_064,20,Female,2024-04-18_09h53.13.412,jersey_experiment_5_v0,2023.2.2,Win32,84.74576271,,,,,,,,,,,,,,,,356.037,357.0838,357.0839,358.2956,return,0.1276,,50,,,,,,FBP-PT-91.png,0.4,1.2,58,0.25,0,56,56,57,1,,,,,,,,,,,,,,,,,,,,,,,,,,,,,,,,,,,,,,,,
,,,,,SPR24_064,20,Female,2024-04-18_09h53.13.412,jersey_experiment_5_v0,2023.2.2,Win32,84.74576271,,,,,,,,,,,,,,,,358.2959,359.5897,359.5897,360.8723,return,0.2492,,39.58333333,,,,,,FBP-OG-19.png,0.35,1.2,11,0.5,0,57,57,10,1,,,,,,,,,,,,,,,,,,,,,,,,,,,,,,,,,,,,,,,,
,,,,,SPR24_064,20,Female,2024-04-18_09h53.13.412,jersey_experiment_5_v0,2023.2.2,Win32,84.74576271,,,,,,,,,,,,,,,,360.8724,361.9194,361.9194,362.8488,return,0.2304,,34.765625,,,,,,FBP-PT-81.png,0.35,1.2,51,0.25,0,58,58,50,1,,,,,,,,,,,,,,,,,,,,,,,,,,,,,,,,,,,,,,,,
,,,,,SPR24_064,20,Female,2024-04-18_09h53.13.412,jersey_experiment_5_v0,2023.2.2,Win32,84.74576271,,,,,,,,,,,,,,,,362.849,363.8958,363.8958,365.1548,return,0.1443,,47.39583333,,,,,,FBP-YG-81.png,0.4,1.2,23,0.25,0,59,59,22,1,,,,,,,,,,,,,,,,,,,,,,,,,,,,,,,,,,,,,,,,
,,,,,SPR24_064,20,Female,2024-04-18_09h53.13.412,jersey_experiment_5_v0,2023.2.2,Win32,84.74576271,,,,,,,,,,,,,,,,,,,,,,,,,,,,,,,,,,,,,,,365.1553,485.1478,,,,,,,,,,,,,,,,,,,,,,,,,,,,,,,,,,,,,,
,,,,,SPR24_064,20,Female,2024-04-18_09h53.13.412,jersey_experiment_5_v0,2023.2.2,Win32,84.74576271,,,,,,,,,,,,,,,,,,,,,,,,,,,,,,,,,,,,,,,,,485.1478,487.83,return,2.6696,,,,,,,,,,,,,,,,,,,,,,,,,,,,,,,,,,
,,,,,SPR24_064,20,Female,2024-04-18_09h53.13.412,jersey_experiment_5_v0,2023.2.2,Win32,84.74576271,,,,,,,,,,,,,,,,487.8365,489.1358,489.1358,493.0891,return,0.1923,,44.40104167,,,,,,FBP-YG-19.png,0.35,1.2,26,0.5,,,,,,,,,,,,,0,0,0,25,1,,,,,,,,,,,,,,,,,,,,,,,,,,,,
,,,,,SPR24_064,20,Female,2024-04-18_09h53.13.412,jersey_experiment_5_v0,2023.2.2,Win32,84.74576271,,,,,,,,,,,,,,,,493.0893,494.383,494.3831,495.8891,return,0.1928,,43.22916667,,,,,,FBP-PT-17.png,0.35,1.2,46,0.5,,,,,,,,,,,,,0,1,1,45,1,,,,,,,,,,,,,,,,,,,,,,,,,,,,
,,,,,SPR24_064,20,Female,2024-04-18_09h53.13.412,jersey_experiment_5_v0,2023.2.2,Win32,84.74576271,,,,,,,,,,,,,,,,495.8894,497.1832,497.1832,498.2774,return,0.1671,,60.80729167,,,,,,FBP-PT-18.png,0.4,1.2,53,0.5,,,,,,,,,,,,,0,2,2,52,1,,,,,,,,,,,,,,,,,,,,,,,,,,,,
,,,,,SPR24_064,20,Female,2024-04-18_09h53.13.412,jersey_experiment_5_v0,2023.2.2,Win32,84.74576271,,,,,,,,,,,,,,,,498.2776,499.5714,499.5715,500.901,return,0.213,,45.3125,,,,,,FBP-YG-18.png,0.35,1.2,21,0.5,,,,,,,,,,,,,0,3,3,20,1,,,,,,,,,,,,,,,,,,,,,,,,,,,,
,,,,,SPR24_064,20,Female,2024-04-18_09h53.13.412,jersey_experiment_5_v0,2023.2.2,Win32,84.74576271,,,,,,,,,,,,,,,,500.9013,501.948,501.9481,503.254,return,0.1783,,48.828125,,,,,,FBP-RB-18.png,0.37,1.2,37,0.25,,,,,,,,,,,,,0,4,4,36,1,,,,,,,,,,,,,,,,,,,,,,,,,,,,
,,,,,SPR24_064,20,Female,2024-04-18_09h53.13.412,jersey_experiment_5_v0,2023.2.2,Win32,84.74576271,,,,,,,,,,,,,,,,503.2543,504.5482,504.5482,505.4894,return,0.1931,,62.76041667,,,,,,FBP-YG-19.png,0.4,1.2,28,0.5,,,,,,,,,,,,,0,5,5,27,1,,,,,,,,,,,,,,,,,,,,,,,,,,,,
,,,,,SPR24_064,20,Female,2024-04-18_09h53.13.412,jersey_experiment_5_v0,2023.2.2,Win32,84.74576271,,,,,,,,,,,,,,,,505.4895,506.7836,506.7836,507.7483,return,0.166,,69.66145833,,,,,,FBP-PT-17.png,0.4,1.2,48,0.5,,,,,,,,,,,,,0,6,6,47,1,,,,,,,,,,,,,,,,,,,,,,,,,,,,
,,,,,SPR24_064,20,Female,2024-04-18_09h53.13.412,jersey_experiment_5_v0,2023.2.2,Win32,84.74576271,,,,,,,,,,,,,,,,507.7486,508.7953,508.7954,510.113,return,0.2039,,73.56770833,,,,,,FBP-OG-91.png,0.4,1.2,13,0.25,,,,,,,,,,,,,0,7,7,12,1,,,,,,,,,,,,,,,,,,,,,,,,,,,,
,,,,,SPR24_064,20,Female,2024-04-18_09h53.13.412,jersey_experiment_5_v0,2023.2.2,Win32,84.74576271,,,,,,,,,,,,,,,,510.1133,511.1601,511.1601,512.9955,return,0.251,,46.61458333,,,,,,FBP-OG-71.png,0.35,1.2,1,0.25,,,,,,,,,,,,,0,8,8,0,1,,,,,,,,,,,,,,,,,,,,,,,,,,,,
,,,,,SPR24_064,20,Female,2024-04-18_09h53.13.412,jersey_experiment_5_v0,2023.2.2,Win32,84.74576271,,,,,,,,,,,,,,,,512.9958,514.2898,514.2898,516.2426,return,0.9682,,87.63020833,,,,,,FBP-YG-19.png,0.45,1.2,30,0.5,,,,,,,,,,,,,0,9,9,29,1,,,,,,,,,,,,,,,,,,,,,,,,,,,,
,,,,,SPR24_064,20,Female,2024-04-18_09h53.13.412,jersey_experiment_5_v0,2023.2.2,Win32,84.74576271,,,,,,,,,,,,,,,,516.2429,517.2897,517.2897,518.4075,return,0.2594,,88.93229167,,,,,,FBP-OG-71.png,0.45,1.2,5,0.25,,,,,,,,,,,,,0,10,10,4,1,,,,,,,,,,,,,,,,,,,,,,,,,,,,
,,,,,SPR24_064,20,Female,2024-04-18_09h53.13.412,jersey_experiment_5_v0,2023.2.2,Win32,84.74576271,,,,,,,,,,,,,,,,518.4077,519.7017,519.7018,520.4076,return,0.2362,,88.93229167,,,,,,FBP-PT-19.png,0.45,1.2,60,0.5,,,,,,,,,,,,,0,11,11,59,1,,,,,,,,,,,,,,,,,,,,,,,,,,,,
,,,,,SPR24_064,20,Female,2024-04-18_09h53.13.412,jersey_experiment_5_v0,2023.2.2,Win32,84.74576271,,,,,,,,,,,,,,,,520.4079,521.4546,521.4546,523.0547,return,0.197,,74.47916667,,,,,,FBP-RB-18.png,0.4,1.2,38,0.25,,,,,,,,,,,,,0,12,12,37,1,,,,,,,,,,,,,,,,,,,,,,,,,,,,
,,,,,SPR24_064,20,Female,2024-04-18_09h53.13.412,jersey_experiment_5_v0,2023.2.2,Win32,84.74576271,,,,,,,,,,,,,,,,523.0549,524.3489,524.3489,525.302,return,0.2029,,74.86979167,,,,,,FBP-YG-18.png,0.43,1.2,24,0.5,,,,,,,,,,,,,0,13,13,23,1,,,,,,,,,,,,,,,,,,,,,,,,,,,,
,,,,,SPR24_064,20,Female,2024-04-18_09h53.13.412,jersey_experiment_5_v0,2023.2.2,Win32,84.74576271,,,,,,,,,,,,,,,,525.3022,526.3489,526.349,527.4313,return,0.2115,,84.89583333,,,,,,FBP-RB-17.png,0.43,1.2,34,0.25,,,,,,,,,,,,,0,14,14,33,1,,,,,,,,,,,,,,,,,,,,,,,,,,,,
,,,,,SPR24_064,20,Female,2024-04-18_09h53.13.412,jersey_experiment_5_v0,2023.2.2,Win32,84.74576271,,,,,,,,,,,,,,,,527.4315,528.4786,528.4787,529.4904,return,0.2383,,89.71354167,,,,,,FBP-RB-19.png,0.45,1.2,45,0.25,,,,,,,,,,,,,0,15,15,44,1,,,,,,,,,,,,,,,,,,,,,,,,,,,,
,,,,,SPR24_064,20,Female,2024-04-18_09h53.13.412,jersey_experiment_5_v0,2023.2.2,Win32,84.74576271,,,,,,,,,,,,,,,,529.4906,530.7844,530.7845,531.8315,return,0.2353,,81.640625,,,,,,FBP-PT-19.png,0.43,1.2,59,0.5,,,,,,,,,,,,,0,16,16,58,1,,,,,,,,,,,,,,,,,,,,,,,,,,,,
,,,,,SPR24_064,20,Female,2024-04-18_09h53.13.412,jersey_experiment_5_v0,2023.2.2,Win32,84.74576271,,,,,,,,,,,,,,,,531.8317,532.8786,532.8786,534.8787,return,0.3598,,67.96875,,,,,,FBP-RB-17.png,0.4,1.2,33,0.25,,,,,,,,,,,,,0,17,17,32,1,,,,,,,,,,,,,,,,,,,,,,,,,,,,
,,,,,SPR24_064,20,Female,2024-04-18_09h53.13.412,jersey_experiment_5_v0,2023.2.2,Win32,84.74576271,,,,,,,,,,,,,,,,534.879,536.173,536.173,537.3613,return,0.2418,,77.08333333,,,,,,FBP-YG-17.png,0.43,1.2,19,0.5,,,,,,,,,,,,,0,18,18,18,1,,,,,,,,,,,,,,,,,,,,,,,,,,,,
,,,,,SPR24_064,20,Female,2024-04-18_09h53.13.412,jersey_experiment_5_v0,2023.2.2,Win32,84.74576271,,,,,,,,,,,,,,,,537.3615,538.4084,538.4084,539.3613,return,0.2183,,74.08854167,,,,,,FBP-OG-91.png,0.43,1.2,14,0.25,,,,,,,,,,,,,0,19,19,13,1,,,,,,,,,,,,,,,,,,,,,,,,,,,,
,,,,,SPR24_064,20,Female,2024-04-18_09h53.13.412,jersey_experiment_5_v0,2023.2.2,Win32,84.74576271,,,,,,,,,,,,,,,,539.3615,540.4083,540.4084,541.2319,return,0.3018,,74.08854167,,,,,,FBP-OG-81.png,0.43,1.2,9,0.25,,,,,,,,,,,,,0,20,20,8,1,,,,,,,,,,,,,,,,,,,,,,,,,,,,
,,,,,SPR24_064,20,Female,2024-04-18_09h53.13.412,jersey_experiment_5_v0,2023.2.2,Win32,84.74576271,,,,,,,,,,,,,,,,541.2322,542.2791,542.2791,547.7616,return,2.0162,,38.41145833,,,,,,FBP-OG-81.png,0.37,1.2,7,0.25,,,,,,,,,,,,,0,21,21,6,1,,,,,,,,,,,,,,,,,,,,,,,,,,,,
,,,,,SPR24_064,20,Female,2024-04-18_09h53.13.412,jersey_experiment_5_v0,2023.2.2,Win32,84.74576271,,,,,,,,,,,,,,,,547.7618,548.8087,548.8087,549.8087,return,0.1337,,26.5625,,,,,,FBP-OG-81.png,0.35,1.2,6,0.25,,,,,,,,,,,,,0,22,22,5,1,,,,,,,,,,,,,,,,,,,,,,,,,,,,
,,,,,SPR24_064,20,Female,2024-04-18_09h53.13.412,jersey_experiment_5_v0,2023.2.2,Win32,84.74576271,,,,,,,,,,,,,,,,549.809,551.1028,551.1028,553.056,return,0.5491,,86.97916667,,,,,,FBP-PT-17.png,0.43,1.2,49,0.5,,,,,,,,,,,,,0,23,23,48,1,,,,,,,,,,,,,,,,,,,,,,,,,,,,
,,,,,SPR24_064,20,Female,2024-04-18_09h53.13.412,jersey_experiment_5_v0,2023.2.2,Win32,84.74576271,,,,,,,,,,,,,,,,553.0562,554.3499,554.3499,558.0679,return,0.2718,,61.45833333,,,,,,FBP-PT-19.png,0.37,1.2,57,0.5,,,,,,,,,,,,,0,24,24,56,1,,,,,,,,,,,,,,,,,,,,,,,,,,,,
,,,,,SPR24_064,20,Female,2024-04-18_09h53.13.412,jersey_experiment_5_v0,2023.2.2,Win32,84.74576271,,,,,,,,,,,,,,,,558.0681,559.3619,559.3619,561.5739,return,0.1893,,36.71875,,,,,,FBP-YG-17.png,0.35,1.2,16,0.5,,,,,,,,,,,,,0,25,25,15,1,,,,,,,,,,,,,,,,,,,,,,,,,,,,
,,,,,SPR24_064,20,Female,2024-04-18_09h53.13.412,jersey_experiment_5_v0,2023.2.2,Win32,84.74576271,,,,,,,,,,,,,,,,561.5741,562.8679,562.8679,565.0328,return,0.3156,,37.5,,,,,,FBP-YG-17.png,0.37,1.2,17,0.5,,,,,,,,,,,,,0,26,26,16,1,,,,,,,,,,,,,,,,,,,,,,,,,,,,
,,,,,SPR24_064,20,Female,2024-04-18_09h53.13.412,jersey_experiment_5_v0,2023.2.2,Win32,84.74576271,,,,,,,,,,,,,,,,565.033,566.3268,566.3268,568.3741,return,0.2231,,81.90104167,,,,,,FBP-PT-18.png,0.43,1.2,54,0.5,,,,,,,,,,,,,0,27,27,53,1,,,,,,,,,,,,,,,,,,,,,,,,,,,,
,,,,,SPR24_064,20,Female,2024-04-18_09h53.13.412,jersey_experiment_5_v0,2023.2.2,Win32,84.74576271,,,,,,,,,,,,,,,,568.3743,569.4212,569.4213,573.045,return,0.3911,,42.96875,,,,,,FBP-OG-91.png,0.35,1.2,11,0.25,,,,,,,,,,,,,0,28,28,10,1,,,,,,,,,,,,,,,,,,,,,,,,,,,,
,,,,,SPR24_064,20,Female,2024-04-18_09h53.13.412,jersey_experiment_5_v0,2023.2.2,Win32,84.74576271,,,,,,,,,,,,,,,,573.0452,574.0919,574.0919,575.6567,return,0.1646,,92.31770833,,,,,,FBP-RB-18.png,0.45,1.2,40,0.25,,,,,,,,,,,,,0,29,29,39,1,,,,,,,,,,,,,,,,,,,,,,,,,,,,
,,,,,SPR24_064,20,Female,2024-04-18_09h53.13.412,jersey_experiment_5_v0,2023.2.2,Win32,84.74576271,,,,,,,,,,,,,,,,575.657,576.9509,576.9509,577.7039,return,0.1887,,92.31770833,,,,,,FBP-YG-18.png,0.45,1.2,25,0.5,,,,,,,,,,,,,0,30,30,24,1,,,,,,,,,,,,,,,,,,,,,,,,,,,,
,,,,,SPR24_064,20,Female,2024-04-18_09h53.13.412,jersey_experiment_5_v0,2023.2.2,Win32,84.74576271,,,,,,,,,,,,,,,,577.7041,578.9981,578.9981,579.8335,return,0.128,,83.07291667,,,,,,FBP-YG-17.png,0.4,1.2,18,0.5,,,,,,,,,,,,,0,31,31,17,1,,,,,,,,,,,,,,,,,,,,,,,,,,,,
,,,,,SPR24_064,20,Female,2024-04-18_09h53.13.412,jersey_experiment_5_v0,2023.2.2,Win32,84.74576271,,,,,,,,,,,,,,,,579.8337,580.8803,580.8803,583.257,return,0.9889,,59.89583333,,,,,,FBP-RB-19.png,0.35,1.2,41,0.25,,,,,,,,,,,,,0,32,32,40,1,,,,,,,,,,,,,,,,,,,,,,,,,,,,
,,,,,SPR24_064,20,Female,2024-04-18_09h53.13.412,jersey_experiment_5_v0,2023.2.2,Win32,84.74576271,,,,,,,,,,,,,,,,583.2571,584.5512,584.5512,586.5983,return,0.1556,,43.359375,,,,,,FBP-PT-19.png,0.35,1.2,56,0.5,,,,,,,,,,,,,0,33,33,55,1,,,,,,,,,,,,,,,,,,,,,,,,,,,,
,,,,,SPR24_064,20,Female,2024-04-18_09h53.13.412,jersey_experiment_5_v0,2023.2.2,Win32,84.74576271,,,,,,,,,,,,,,,,586.5985,587.6453,587.6454,588.6924,return,0.2129,,43.359375,,,,,,FBP-OG-71.png,0.37,1.2,2,0.25,,,,,,,,,,,,,0,34,34,1,1,,,,,,,,,,,,,,,,,,,,,,,,,,,,
,,,,,SPR24_064,20,Female,2024-04-18_09h53.13.412,jersey_experiment_5_v0,2023.2.2,Win32,84.74576271,,,,,,,,,,,,,,,,588.6926,589.7394,589.7395,591.222,return,0.237,,47.00520833,,,,,,FBP-OG-71.png,0.4,1.2,3,0.25,,,,,,,,,,,,,0,35,35,2,1,,,,,,,,,,,,,,,,,,,,,,,,,,,,
,,,,,SPR24_064,20,Female,2024-04-18_09h53.13.412,jersey_experiment_5_v0,2023.2.2,Win32,84.74576271,,,,,,,,,,,,,,,,591.2223,592.5161,592.5161,595.8103,return,0.6505,,52.86458333,,,,,,FBP-PT-19.png,0.4,1.2,58,0.5,,,,,,,,,,,,,0,36,36,57,1,,,,,,,,,,,,,,,,,,,,,,,,,,,,
,,,,,SPR24_064,20,Female,2024-04-18_09h53.13.412,jersey_experiment_5_v0,2023.2.2,Win32,84.74576271,,,,,,,,,,,,,,,,595.8106,596.8575,596.8575,599.7282,return,0.241,,40.36458333,,,,,,FBP-RB-17.png,0.35,1.2,31,0.25,,,,,,,,,,,,,0,37,37,30,1,,,,,,,,,,,,,,,,,,,,,,,,,,,,
,,,,,SPR24_064,20,Female,2024-04-18_09h53.13.412,jersey_experiment_5_v0,2023.2.2,Win32,84.74576271,,,,,,,,,,,,,,,,599.7285,600.7752,600.7752,602.2812,return,0.3532,,71.74479167,,,,,,FBP-OG-71.png,0.43,1.2,4,0.25,,,,,,,,,,,,,0,38,38,3,1,,,,,,,,,,,,,,,,,,,,,,,,,,,,
,,,,,SPR24_064,20,Female,2024-04-18_09h53.13.412,jersey_experiment_5_v0,2023.2.2,Win32,84.74576271,,,,,,,,,,,,,,,,602.2814,603.5753,603.5754,604.9755,return,0.4906,,84.11458333,,,,,,FBP-PT-17.png,0.45,1.2,50,0.5,,,,,,,,,,,,,0,39,39,49,1,,,,,,,,,,,,,,,,,,,,,,,,,,,,
,,,,,SPR24_064,20,Female,2024-04-18_09h53.13.412,jersey_experiment_5_v0,2023.2.2,Win32,84.74576271,,,,,,,,,,,,,,,,604.9757,606.0226,606.0226,607.7638,return,0.2497,,78.90625,,,,,,FBP-OG-81.png,0.4,1.2,8,0.25,,,,,,,,,,,,,0,40,40,7,1,,,,,,,,,,,,,,,,,,,,,,,,,,,,
,,,,,SPR24_064,20,Female,2024-04-18_09h53.13.412,jersey_experiment_5_v0,2023.2.2,Win32,84.74576271,,,,,,,,,,,,,,,,607.7639,608.8109,608.8109,610.3286,return,0.1746,,69.66145833,,,,,,FBP-RB-17.png,0.37,1.2,32,0.25,,,,,,,,,,,,,0,41,41,31,1,,,,,,,,,,,,,,,,,,,,,,,,,,,,
,,,,,SPR24_064,20,Female,2024-04-18_09h53.13.412,jersey_experiment_5_v0,2023.2.2,Win32,84.74576271,,,,,,,,,,,,,,,,610.3288,611.6227,611.6227,616.5169,return,0.5065,,48.30729167,,,,,,FBP-PT-18.png,0.35,1.2,51,0.5,,,,,,,,,,,,,0,42,42,50,1,,,,,,,,,,,,,,,,,,,,,,,,,,,,
,,,,,SPR24_064,20,Female,2024-04-18_09h53.13.412,jersey_experiment_5_v0,2023.2.2,Win32,84.74576271,,,,,,,,,,,,,,,,616.5172,617.564,617.564,619.5289,return,0.4329,,38.02083333,,,,,,FBP-RB-18.png,0.35,1.2,36,0.25,,,,,,,,,,,,,0,43,43,35,1,,,,,,,,,,,,,,,,,,,,,,,,,,,,
,,,,,SPR24_064,20,Female,2024-04-18_09h53.13.412,jersey_experiment_5_v0,2023.2.2,Win32,84.74576271,,,,,,,,,,,,,,,,619.5292,620.823,620.823,623.5527,return,1.0659,,75.52083333,,,,,,FBP-YG-18.png,0.4,1.2,23,0.5,,,,,,,,,,,,,0,44,44,22,1,,,,,,,,,,,,,,,,,,,,,,,,,,,,
,,,,,SPR24_064,20,Female,2024-04-18_09h53.13.412,jersey_experiment_5_v0,2023.2.2,Win32,84.74576271,,,,,,,,,,,,,,,,623.5529,624.8467,624.8467,625.9409,return,0.2262,,68.75,,,,,,FBP-YG-18.png,0.37,1.2,22,0.5,,,,,,,,,,,,,0,45,45,21,1,,,,,,,,,,,,,,,,,,,,,,,,,,,,
,,,,,SPR24_064,20,Female,2024-04-18_09h53.13.412,jersey_experiment_5_v0,2023.2.2,Win32,84.74576271,,,,,,,,,,,,,,,,625.9411,626.988,626.988,628.788,return,0.6033,,85.67708333,,,,,,FBP-RB-18.png,0.43,1.2,39,0.25,,,,,,,,,,,,,0,46,46,38,1,,,,,,,,,,,,,,,,,,,,,,,,,,,,
,,,,,SPR24_064,20,Female,2024-04-18_09h53.13.412,jersey_experiment_5_v0,2023.2.2,Win32,84.74576271,,,,,,,,,,,,,,,,628.7883,630.0822,630.0823,631.8118,return,0.4509,,76.5625,,,,,,FBP-PT-18.png,0.37,1.2,52,0.5,,,,,,,,,,,,,0,47,47,51,1,,,,,,,,,,,,,,,,,,,,,,,,,,,,
,,,,,SPR24_064,20,Female,2024-04-18_09h53.13.412,jersey_experiment_5_v0,2023.2.2,Win32,84.74576271,,,,,,,,,,,,,,,,631.8121,632.8588,632.8588,634.5766,return,0.419,,77.21354167,,,,,,FBP-RB-19.png,0.43,1.2,44,0.25,,,,,,,,,,,,,0,48,48,43,1,,,,,,,,,,,,,,,,,,,,,,,,,,,,
,,,,,SPR24_064,20,Female,2024-04-18_09h53.13.412,jersey_experiment_5_v0,2023.2.2,Win32,84.74576271,,,,,,,,,,,,,,,,634.5769,635.6235,635.6236,636.6706,return,0.1858,,84.11458333,,,,,,FBP-OG-81.png,0.45,1.2,10,0.25,,,,,,,,,,,,,0,49,49,9,1,,,,,,,,,,,,,,,,,,,,,,,,,,,,
,,,,,SPR24_064,20,Female,2024-04-18_09h53.13.412,jersey_experiment_5_v0,2023.2.2,Win32,84.74576271,,,,,,,,,,,,,,,,636.6709,637.7177,637.7178,639.2473,return,0.2291,,92.1875,,,,,,FBP-RB-17.png,0.45,1.2,35,0.25,,,,,,,,,,,,,0,50,50,34,1,,,,,,,,,,,,,,,,,,,,,,,,,,,,
,,,,,SPR24_064,20,Female,2024-04-18_09h53.13.412,jersey_experiment_5_v0,2023.2.2,Win32,84.74576271,,,,,,,,,,,,,,,,639.2475,640.5415,640.5415,641.4239,return,0.2409,,87.890625,,,,,,FBP-YG-17.png,0.45,1.2,20,0.5,,,,,,,,,,,,,0,51,51,19,1,,,,,,,,,,,,,,,,,,,,,,,,,,,,
,,,,,SPR24_064,20,Female,2024-04-18_09h53.13.412,jersey_experiment_5_v0,2023.2.2,Win32,84.74576271,,,,,,,,,,,,,,,,641.4241,642.4708,642.4709,643.6944,return,0.2543,,91.796875,,,,,,FBP-OG-91.png,0.45,1.2,15,0.25,,,,,,,,,,,,,0,52,52,14,1,,,,,,,,,,,,,,,,,,,,,,,,,,,,
,,,,,SPR24_064,20,Female,2024-04-18_09h53.13.412,jersey_experiment_5_v0,2023.2.2,Win32,84.74576271,,,,,,,,,,,,,,,,643.6946,644.7417,644.7417,646.4946,return,0.2306,,73.17708333,,,,,,FBP-RB-19.png,0.37,1.2,42,0.25,,,,,,,,,,,,,0,53,53,41,1,,,,,,,,,,,,,,,,,,,,,,,,,,,,
,,,,,SPR24_064,20,Female,2024-04-18_09h53.13.412,jersey_experiment_5_v0,2023.2.2,Win32,84.74576271,,,,,,,,,,,,,,,,646.4948,647.5417,647.5418,649.53,return,1.0586,,73.17708333,,,,,,FBP-OG-91.png,0.37,1.2,12,0.25,,,,,,,,,,,,,0,54,54,11,1,,,,,,,,,,,,,,,,,,,,,,,,,,,,
,,,,,SPR24_064,20,Female,2024-04-18_09h53.13.412,jersey_experiment_5_v0,2023.2.2,Win32,84.74576271,,,,,,,,,,,,,,,,649.5302,650.5772,650.5772,652.0713,return,0.41,,75.390625,,,,,,FBP-RB-19.png,0.4,1.2,43,0.25,,,,,,,,,,,,,0,55,55,42,1,,,,,,,,,,,,,,,,,,,,,,,,,,,,
,,,,,SPR24_064,20,Female,2024-04-18_09h53.13.412,jersey_experiment_5_v0,2023.2.2,Win32,84.74576271,,,,,,,,,,,,,,,,652.0714,653.3654,653.3654,655.1421,return,0.3761,,79.296875,,,,,,FBP-PT-18.png,0.45,1.2,55,0.5,,,,,,,,,,,,,0,56,56,54,1,,,,,,,,,,,,,,,,,,,,,,,,,,,,
,,,,,SPR24_064,20,Female,2024-04-18_09h53.13.412,jersey_experiment_5_v0,2023.2.2,Win32,84.74576271,,,,,,,,,,,,,,,,655.1423,656.4361,656.4361,659.0245,return,0.2398,,70.44270833,,,,,,FBP-PT-17.png,0.37,1.2,47,0.5,,,,,,,,,,,,,0,57,57,46,1,,,,,,,,,,,,,,,,,,,,,,,,,,,,
,,,,,SPR24_064,20,Female,2024-04-18_09h53.13.412,jersey_experiment_5_v0,2023.2.2,Win32,84.74576271,,,,,,,,,,,,,,,,659.0247,660.3186,660.3188,661.4482,return,0.2597,,60.67708333,,,,,,FBP-YG-19.png,0.37,1.2,27,0.5,,,,,,,,,,,,,0,58,58,26,1,,,,,,,,,,,,,,,,,,,,,,,,,,,,
,,,,,SPR24_064,20,Female,2024-04-18_09h53.13.412,jersey_experiment_5_v0,2023.2.2,Win32,84.74576271,,,,,,,,,,,,,,,,661.4484,662.7422,662.7423,663.8129,return,0.201,,76.43229167,,,,,,FBP-YG-19.png,0.43,1.2,29,0.5,,,,,,,,,,,,,0,59,59,28,1,,,,,,,,,,,,,,,,,,,,,,,,,,,,
,,,,,SPR24_064,20,Female,2024-04-18_09h53.13.412,jersey_experiment_5_v0,2023.2.2,Win32,84.74576271,,,,,,,,,,,,,,,,663.8146,664.86,664.86,667.0953,return,0.8848,,36.97916667,,,,,,FBP-RB-81.png,0.35,1.2,36,0.25,,,,,,,,,,,,,,,,,,0,0,0,35,1,,,,,,,,,,,,,,,,,,,,,,,
,,,,,SPR24_064,20,Female,2024-04-18_09h53.13.412,jersey_experiment_5_v0,2023.2.2,Win32,84.74576271,,,,,,,,,,,,,,,,667.0956,668.1424,668.1424,670.6014,return,1.0256,,70.96354167,,,,,,FBP-RB-81.png,0.43,1.2,39,0.25,,,,,,,,,,,,,,,,,,0,1,1,38,1,,,,,,,,,,,,,,,,,,,,,,,
,,,,,SPR24_064,20,Female,2024-04-18_09h53.13.412,jersey_experiment_5_v0,2023.2.2,Win32,84.74576271,,,,,,,,,,,,,,,,670.6016,671.6484,671.6484,674.9781,return,1.3353,,30.98958333,,,,,,FBP-OG-19.png,0.37,1.2,12,0.25,,,,,,,,,,,,,,,,,,0,2,2,11,1,,,,,,,,,,,,,,,,,,,,,,,
,,,,,SPR24_064,20,Female,2024-04-18_09h53.13.412,jersey_experiment_5_v0,2023.2.2,Win32,84.74576271,,,,,,,,,,,,,,,,674.9783,676.2722,676.2723,679.1546,return,0.7679,,37.23958333,,,,,,FBP-PT-91.png,0.35,1.2,56,0.5,,,,,,,,,,,,,,,,,,0,3,3,55,1,,,,,,,,,,,,,,,,,,,,,,,
,,,,,SPR24_064,20,Female,2024-04-18_09h53.13.412,jersey_experiment_5_v0,2023.2.2,Win32,84.74576271,,,,,,,,,,,,,,,,679.1549,680.2017,680.2018,682.2018,return,0.2254,,56.38020833,,,,,,FBP-OG-19.png,0.4,1.2,13,0.25,,,,,,,,,,,,,,,,,,0,4,4,12,1,,,,,,,,,,,,,,,,,,,,,,,
,,,,,SPR24_064,20,Female,2024-04-18_09h53.13.412,jersey_experiment_5_v0,2023.2.2,Win32,84.74576271,,,,,,,,,,,,,,,,682.2022,683.249,683.249,684.2136,return,0.0586,,43.359375,,,,,,FBP-OG-17.png,0.37,1.2,2,0.25,,,,,,,,,,,,,,,,,,0,5,5,1,1,,,,,,,,,,,,,,,,,,,,,,,
,,,,,SPR24_064,20,Female,2024-04-18_09h53.13.412,jersey_experiment_5_v0,2023.2.2,Win32,84.74576271,,,,,,,,,,,,,,,,684.2138,685.2607,685.2607,686.6962,return,0.8855,,38.15104167,,,,,,FBP-RB-91.png,0.35,1.2,41,0.25,,,,,,,,,,,,,,,,,,0,6,6,40,1,,,,,,,,,,,,,,,,,,,,,,,
,,,,,SPR24_064,20,Female,2024-04-18_09h53.13.412,jersey_experiment_5_v0,2023.2.2,Win32,84.74576271,,,,,,,,,,,,,,,,686.6963,687.9902,687.9902,689.9433,return,0.1889,,67.83854167,,,,,,FBP-PT-81.png,0.43,1.2,54,0.5,,,,,,,,,,,,,,,,,,0,7,7,53,1,,,,,,,,,,,,,,,,,,,,,,,
,,,,,SPR24_064,20,Female,2024-04-18_09h53.13.412,jersey_experiment_5_v0,2023.2.2,Win32,84.74576271,,,,,,,,,,,,,,,,689.9434,690.9903,690.9904,691.861,return,0.2718,,67.83854167,,,,,,FBP-OG-17.png,0.4,1.2,3,0.25,,,,,,,,,,,,,,,,,,0,8,8,2,1,,,,,,,,,,,,,,,,,,,,,,,
,,,,,SPR24_064,20,Female,2024-04-18_09h53.13.412,jersey_experiment_5_v0,2023.2.2,Win32,84.74576271,,,,,,,,,,,,,,,,691.8612,693.1551,693.1551,694.0727,return,0.1511,,74.34895833,,,,,,FBP-YG-91.png,0.45,1.2,30,0.5,,,,,,,,,,,,,,,,,,0,9,9,29,1,,,,,,,,,,,,,,,,,,,,,,,
,,,,,SPR24_064,20,Female,2024-04-18_09h53.13.412,jersey_experiment_5_v0,2023.2.2,Win32,84.74576271,,,,,,,,,,,,,,,,694.073,695.367,695.367,697.7789,return,0.3784,,72.39583333,,,,,,FBP-YG-81.png,0.37,1.2,22,0.5,,,,,,,,,,,,,,,,,,0,10,10,21,1,,,,,,,,,,,,,,,,,,,,,,,
,,,,,SPR24_064,20,Female,2024-04-18_09h53.13.412,jersey_experiment_5_v0,2023.2.2,Win32,84.74576271,,,,,,,,,,,,,,,,697.7791,698.8259,698.826,701.2967,return,0.219,,72.91666667,,,,,,FBP-OG-18.png,0.45,1.2,10,0.25,,,,,,,,,,,,,,,,,,0,11,11,9,1,,,,,,,,,,,,,,,,,,,,,,,
,,,,,SPR24_064,20,Female,2024-04-18_09h53.13.412,jersey_experiment_5_v0,2023.2.2,Win32,84.74576271,,,,,,,,,,,,,,,,701.2969,702.3436,702.3437,705.1675,return,0.1851,,73.95833333,,,,,,FBP-RB-71.png,0.43,1.2,34,0.25,,,,,,,,,,,,,,,,,,0,12,12,33,1,,,,,,,,,,,,,,,,,,,,,,,
,,,,,SPR24_064,20,Female,2024-04-18_09h53.13.412,jersey_experiment_5_v0,2023.2.2,Win32,84.74576271,,,,,,,,,,,,,,,,705.1677,706.4617,706.4618,708.8732,return,0.4102,,44.27083333,,,,,,FBP-YG-91.png,0.35,1.2,26,0.5,,,,,,,,,,,,,,,,,,0,13,13,25,1,,,,,,,,,,,,,,,,,,,,,,,
,,,,,SPR24_064,20,Female,2024-04-18_09h53.13.412,jersey_experiment_5_v0,2023.2.2,Win32,84.74576271,,,,,,,,,,,,,,,,708.8734,709.9205,709.9206,714.3444,return,0.2729,,73.69791667,,,,,,FBP-OG-19.png,0.43,1.2,14,0.25,,,,,,,,,,,,,,,,,,0,14,14,13,1,,,,,,,,,,,,,,,,,,,,,,,
,,,,,SPR24_064,20,Female,2024-04-18_09h53.13.412,jersey_experiment_5_v0,2023.2.2,Win32,84.74576271,,,,,,,,,,,,,,,,714.3446,715.6383,715.6383,717.4619,return,0.2604,,56.51041667,,,,,,FBP-YG-81.png,0.4,1.2,23,0.5,,,,,,,,,,,,,,,,,,0,15,15,22,1,,,,,,,,,,,,,,,,,,,,,,,
,,,,,SPR24_064,20,Female,2024-04-18_09h53.13.412,jersey_experiment_5_v0,2023.2.2,Win32,84.74576271,,,,,,,,,,,,,,,,717.4621,718.7562,718.7562,721.2972,return,0.2979,,71.875,,,,,,FBP-PT-91.png,0.45,1.2,60,0.5,,,,,,,,,,,,,,,,,,0,16,16,59,1,,,,,,,,,,,,,,,,,,,,,,,
,,,,,SPR24_064,20,Female,2024-04-18_09h53.13.412,jersey_experiment_5_v0,2023.2.2,Win32,84.74576271,,,,,,,,,,,,,,,,721.2975,722.5915,722.5916,725.8151,return,0.363,,48.30729167,,,,,,FBP-YG-71.png,0.37,1.2,17,0.5,,,,,,,,,,,,,,,,,,0,17,17,16,1,,,,,,,,,,,,,,,,,,,,,,,
,,,,,SPR24_064,20,Female,2024-04-18_09h53.13.412,jersey_experiment_5_v0,2023.2.2,Win32,84.74576271,,,,,,,,,,,,,,,,725.8153,726.8623,726.8623,728.8389,return,0.2586,,84.63541667,,,,,,FBP-RB-91.png,0.45,1.2,45,0.25,,,,,,,,,,,,,,,,,,0,18,18,44,1,,,,,,,,,,,,,,,,,,,,,,,
,,,,,SPR24_064,20,Female,2024-04-18_09h53.13.412,jersey_experiment_5_v0,2023.2.2,Win32,84.74576271,,,,,,,,,,,,,,,,728.8391,730.133,730.133,732.6624,return,0.189,,49.08854167,,,,,,FBP-PT-71.png,0.37,1.2,47,0.5,,,,,,,,,,,,,,,,,,0,19,19,46,1,,,,,,,,,,,,,,,,,,,,,,,
,,,,,SPR24_064,20,Female,2024-04-18_09h53.13.412,jersey_experiment_5_v0,2023.2.2,Win32,84.74576271,,,,,,,,,,,,,,,,732.6627,733.9566,733.9567,736.392,return,2.0008,,52.60416667,,,,,,FBP-PT-81.png,0.4,1.2,53,0.5,,,,,,,,,,,,,,,,,,0,20,20,52,1,,,,,,,,,,,,,,,,,,,,,,,
,,,,,SPR24_064,20,Female,2024-04-18_09h53.13.412,jersey_experiment_5_v0,2023.2.2,Win32,84.74576271,,,,,,,,,,,,,,,,736.3923,737.4391,737.4392,740.0511,return,0.2635,,47.65625,,,,,,FBP-OG-18.png,0.37,1.2,7,0.25,,,,,,,,,,,,,,,,,,0,21,21,6,1,,,,,,,,,,,,,,,,,,,,,,,
,,,,,SPR24_064,20,Female,2024-04-18_09h53.13.412,jersey_experiment_5_v0,2023.2.2,Win32,84.74576271,,,,,,,,,,,,,,,,740.0513,741.3452,741.3452,745.9462,return,0.2502,,74.47916667,,,,,,FBP-PT-81.png,0.45,1.2,55,0.5,,,,,,,,,,,,,,,,,,0,22,22,54,1,,,,,,,,,,,,,,,,,,,,,,,
,,,,,SPR24_064,20,Female,2024-04-18_09h53.13.412,jersey_experiment_5_v0,2023.2.2,Win32,84.74576271,,,,,,,,,,,,,,,,745.9463,747.2396,747.2396,748.722,return,0.3098,,61.19791667,,,,,,FBP-PT-91.png,0.37,1.2,57,0.5,,,,,,,,,,,,,,,,,,0,23,23,56,1,,,,,,,,,,,,,,,,,,,,,,,
,,,,,SPR24_064,20,Female,2024-04-18_09h53.13.412,jersey_experiment_5_v0,2023.2.2,Win32,84.74576271,,,,,,,,,,,,,,,,748.7222,749.7689,749.769,752.4986,return,1.4501,,80.20833333,,,,,,FBP-OG-17.png,0.45,1.2,5,0.25,,,,,,,,,,,,,,,,,,0,24,24,4,1,,,,,,,,,,,,,,,,,,,,,,,
,,,,,SPR24_064,20,Female,2024-04-18_09h53.13.412,jersey_experiment_5_v0,2023.2.2,Win32,84.74576271,,,,,,,,,,,,,,,,752.4989,753.7926,753.7926,755.4161,return,0.4328,,76.5625,,,,,,FBP-PT-71.png,0.43,1.2,49,0.5,,,,,,,,,,,,,,,,,,0,25,25,48,1,,,,,,,,,,,,,,,,,,,,,,,
,,,,,SPR24_064,20,Female,2024-04-18_09h53.13.412,jersey_experiment_5_v0,2023.2.2,Win32,84.74576271,,,,,,,,,,,,,,,,755.4164,756.7104,756.7104,759.4164,return,0.2931,,76.30208333,,,,,,FBP-YG-71.png,0.43,1.2,19,0.5,,,,,,,,,,,,,,,,,,0,26,26,18,1,,,,,,,,,,,,,,,,,,,,,,,
,,,,,SPR24_064,20,Female,2024-04-18_09h53.13.412,jersey_experiment_5_v0,2023.2.2,Win32,84.74576271,,,,,,,,,,,,,,,,759.4166,760.4636,760.4637,762.0047,return,0.4363,,76.30208333,,,,,,FBP-RB-81.png,0.45,1.2,40,0.25,,,,,,,,,,,,,,,,,,0,27,27,39,1,,,,,,,,,,,,,,,,,,,,,,,
,,,,,SPR24_064,20,Female,2024-04-18_09h53.13.412,jersey_experiment_5_v0,2023.2.2,Win32,84.74576271,,,,,,,,,,,,,,,,762.0049,763.0519,763.0519,765.0168,return,0.6588,,79.296875,,,,,,FBP-RB-71.png,0.45,1.2,35,0.25,,,,,,,,,,,,,,,,,,0,28,28,34,1,,,,,,,,,,,,,,,,,,,,,,,
,,,,,SPR24_064,20,Female,2024-04-18_09h53.13.412,jersey_experiment_5_v0,2023.2.2,Win32,84.74576271,,,,,,,,,,,,,,,,765.0171,766.0638,766.0639,768.7109,return,0.5279,,72.65625,,,,,,FBP-RB-71.png,0.37,1.2,32,0.25,,,,,,,,,,,,,,,,,,0,29,29,31,1,,,,,,,,,,,,,,,,,,,,,,,
,,,,,SPR24_064,20,Female,2024-04-18_09h53.13.412,jersey_experiment_5_v0,2023.2.2,Win32,84.74576271,,,,,,,,,,,,,,,,768.7112,770.005,770.0051,773.1345,return,0.5368,,74.08854167,,,,,,FBP-YG-91.png,0.43,1.2,29,0.5,,,,,,,,,,,,,,,,,,0,30,30,28,1,,,,,,,,,,,,,,,,,,,,,,,
,,,,,SPR24_064,20,Female,2024-04-18_09h53.13.412,jersey_experiment_5_v0,2023.2.2,Win32,84.74576271,,,,,,,,,,,,,,,,773.1347,774.1817,774.1818,775.6994,return,0.555,,73.17708333,,,,,,FBP-RB-91.png,0.4,1.2,43,0.25,,,,,,,,,,,,,,,,,,0,31,31,42,1,,,,,,,,,,,,,,,,,,,,,,,
,,,,,SPR24_064,20,Female,2024-04-18_09h53.13.412,jersey_experiment_5_v0,2023.2.2,Win32,84.74576271,,,,,,,,,,,,,,,,775.6996,776.7465,776.7465,779.0406,return,0.3223,,66.015625,,,,,,FBP-RB-91.png,0.37,1.2,42,0.25,,,,,,,,,,,,,,,,,,0,32,32,41,1,,,,,,,,,,,,,,,,,,,,,,,
,,,,,SPR24_064,20,Female,2024-04-18_09h53.13.412,jersey_experiment_5_v0,2023.2.2,Win32,84.74576271,,,,,,,,,,,,,,,,779.0409,780.3348,780.3348,784.0055,return,0.2135,,48.56770833,,,,,,FBP-PT-91.png,0.4,1.2,58,0.5,,,,,,,,,,,,,,,,,,0,33,33,57,1,,,,,,,,,,,,,,,,,,,,,,,
,,,,,SPR24_064,20,Female,2024-04-18_09h53.13.412,jersey_experiment_5_v0,2023.2.2,Win32,84.74576271,,,,,,,,,,,,,,,,784.0058,785.2997,785.2998,786.8175,return,0.8512,,42.44791667,,,,,,FBP-PT-71.png,0.35,1.2,46,0.5,,,,,,,,,,,,,,,,,,0,34,34,45,1,,,,,,,,,,,,,,,,,,,,,,,
,,,,,SPR24_064,20,Female,2024-04-18_09h53.13.412,jersey_experiment_5_v0,2023.2.2,Win32,84.74576271,,,,,,,,,,,,,,,,786.8177,787.8645,787.8645,789.3353,return,0.2362,,74.21875,,,,,,FBP-OG-19.png,0.45,1.2,15,0.25,,,,,,,,,,,,,,,,,,0,35,35,14,1,,,,,,,,,,,,,,,,,,,,,,,
,,,,,SPR24_064,20,Female,2024-04-18_09h53.13.412,jersey_experiment_5_v0,2023.2.2,Win32,84.74576271,,,,,,,,,,,,,,,,789.3355,790.6293,790.6293,791.7471,return,0.2728,,83.203125,,,,,,FBP-PT-71.png,0.45,1.2,50,0.5,,,,,,,,,,,,,,,,,,0,36,36,49,1,,,,,,,,,,,,,,,,,,,,,,,
,,,,,SPR24_064,20,Female,2024-04-18_09h53.13.412,jersey_experiment_5_v0,2023.2.2,Win32,84.74576271,,,,,,,,,,,,,,,,791.7474,792.7941,792.7942,794.6646,return,0.3628,,77.60416667,,,,,,FBP-OG-18.png,0.43,1.2,9,0.25,,,,,,,,,,,,,,,,,,0,37,37,8,1,,,,,,,,,,,,,,,,,,,,,,,
,,,,,SPR24_064,20,Female,2024-04-18_09h53.13.412,jersey_experiment_5_v0,2023.2.2,Win32,84.74576271,,,,,,,,,,,,,,,,794.6649,795.9589,795.9589,797.8178,return,0.2819,,45.57291667,,,,,,FBP-YG-81.png,0.35,1.2,21,0.5,,,,,,,,,,,,,,,,,,0,38,38,20,1,,,,,,,,,,,,,,,,,,,,,,,
,,,,,SPR24_064,20,Female,2024-04-18_09h53.13.412,jersey_experiment_5_v0,2023.2.2,Win32,84.74576271,,,,,,,,,,,,,,,,797.8181,799.112,799.112,801.8886,return,2.088,,42.1875,,,,,,FBP-YG-71.png,0.35,1.2,16,0.5,,,,,,,,,,,,,,,,,,0,39,39,15,1,,,,,,,,,,,,,,,,,,,,,,,
,,,,,SPR24_064,20,Female,2024-04-18_09h53.13.412,jersey_experiment_5_v0,2023.2.2,Win32,84.74576271,,,,,,,,,,,,,,,,801.8889,802.9357,802.9357,805.2651,return,0.3808,,26.171875,,,,,,FBP-RB-71.png,0.35,1.2,31,0.25,,,,,,,,,,,,,,,,,,0,40,40,30,1,,,,,,,,,,,,,,,,,,,,,,,
,,,,,SPR24_064,20,Female,2024-04-18_09h53.13.412,jersey_experiment_5_v0,2023.2.2,Win32,84.74576271,,,,,,,,,,,,,,,,805.2654,806.5594,806.5594,808.3242,return,0.4011,,44.921875,,,,,,FBP-YG-91.png,0.4,1.2,28,0.5,,,,,,,,,,,,,,,,,,0,41,41,27,1,,,,,,,,,,,,,,,,,,,,,,,
,,,,,SPR24_064,20,Female,2024-04-18_09h53.13.412,jersey_experiment_5_v0,2023.2.2,Win32,84.74576271,,,,,,,,,,,,,,,,808.3244,809.3713,809.3713,813.8302,return,0.3432,,61.06770833,,,,,,FBP-RB-91.png,0.43,1.2,44,0.25,,,,,,,,,,,,,,,,,,0,42,42,43,1,,,,,,,,,,,,,,,,,,,,,,,
,,,,,SPR24_064,20,Female,2024-04-18_09h53.13.412,jersey_experiment_5_v0,2023.2.2,Win32,84.74576271,,,,,,,,,,,,,,,,813.8305,814.8774,814.8774,817.0892,return,0.6886,,31.77083333,,,,,,FBP-OG-19.png,0.35,1.2,11,0.25,,,,,,,,,,,,,,,,,,0,43,43,10,1,,,,,,,,,,,,,,,,,,,,,,,
,,,,,SPR24_064,20,Female,2024-04-18_09h53.13.412,jersey_experiment_5_v0,2023.2.2,Win32,84.74576271,,,,,,,,,,,,,,,,817.0895,818.3832,818.3832,822.4188,return,2.0013,,38.02083333,,,,,,FBP-YG-91.png,0.37,1.2,27,0.5,,,,,,,,,,,,,,,,,,0,44,44,26,1,,,,,,,,,,,,,,,,,,,,,,,
,,,,,SPR24_064,20,Female,2024-04-18_09h53.13.412,jersey_experiment_5_v0,2023.2.2,Win32,84.74576271,,,,,,,,,,,,,,,,822.4191,823.4659,823.4659,830.2896,return,0.8997,,50,,,,,,FBP-RB-81.png,0.4,1.2,38,0.25,,,,,,,,,,,,,,,,,,0,45,45,37,1,,,,,,,,,,,,,,,,,,,,,,,
,,,,,SPR24_064,20,Female,2024-04-18_09h53.13.412,jersey_experiment_5_v0,2023.2.2,Win32,84.74576271,,,,,,,,,,,,,,,,830.2899,831.3368,831.3369,835.1838,return,2.2193,,62.76041667,,,,,,FBP-RB-71.png,0.4,1.2,33,0.25,,,,,,,,,,,,,,,,,,0,46,46,32,1,,,,,,,,,,,,,,,,,,,,,,,
,,,,,SPR24_064,20,Female,2024-04-18_09h53.13.412,jersey_experiment_5_v0,2023.2.2,Win32,84.74576271,,,,,,,,,,,,,,,,835.1841,836.478,836.478,839.3136,return,0.9819,,58.984375,,,,,,FBP-PT-81.png,0.37,1.2,52,0.5,,,,,,,,,,,,,,,,,,0,47,47,51,1,,,,,,,,,,,,,,,,,,,,,,,
,,,,,SPR24_064,20,Female,2024-04-18_09h53.13.412,jersey_experiment_5_v0,2023.2.2,Win32,84.74576271,,,,,,,,,,,,,,,,839.3138,840.6077,840.6078,845.2314,return,1.8198,,63.93229167,,,,,,FBP-PT-91.png,0.43,1.2,59,0.5,,,,,,,,,,,,,,,,,,0,48,48,58,1,,,,,,,,,,,,,,,,,,,,,,,
,,,,,SPR24_064,20,Female,2024-04-18_09h53.13.412,jersey_experiment_5_v0,2023.2.2,Win32,84.74576271,,,,,,,,,,,,,,,,845.2316,846.2785,846.2785,848.0317,return,0.2668,,27.08333333,,,,,,FBP-OG-17.png,0.35,1.2,1,0.25,,,,,,,,,,,,,,,,,,0,49,49,0,1,,,,,,,,,,,,,,,,,,,,,,,
,,,,,SPR24_064,20,Female,2024-04-18_09h53.13.412,jersey_experiment_5_v0,2023.2.2,Win32,84.74576271,,,,,,,,,,,,,,,,848.0319,849.3256,849.3256,851.667,return,1.2017,,79.6875,,,,,,FBP-YG-81.png,0.45,1.2,25,0.5,,,,,,,,,,,,,,,,,,0,50,50,24,1,,,,,,,,,,,,,,,,,,,,,,,
,,,,,SPR24_064,20,Female,2024-04-18_09h53.13.412,jersey_experiment_5_v0,2023.2.2,Win32,84.74576271,,,,,,,,,,,,,,,,851.6673,852.7141,852.7141,853.5258,return,0.2117,,79.55729167,,,,,,FBP-OG-17.png,0.43,1.2,4,0.25,,,,,,,,,,,,,,,,,,0,51,51,3,1,,,,,,,,,,,,,,,,,,,,,,,
,,,,,SPR24_064,20,Female,2024-04-18_09h53.13.412,jersey_experiment_5_v0,2023.2.2,Win32,84.74576271,,,,,,,,,,,,,,,,853.5259,854.8201,854.8201,857.3378,return,1.52,,86.97916667,,,,,,FBP-YG-71.png,0.45,1.2,20,0.5,,,,,,,,,,,,,,,,,,0,52,52,19,1,,,,,,,,,,,,,,,,,,,,,,,
,,,,,SPR24_064,20,Female,2024-04-18_09h53.13.412,jersey_experiment_5_v0,2023.2.2,Win32,84.74576271,,,,,,,,,,,,,,,,857.338,858.3847,858.3848,862.0672,return,2.0396,,80.59895833,,,,,,FBP-RB-81.png,0.37,1.2,37,0.25,,,,,,,,,,,,,,,,,,0,53,53,36,1,,,,,,,,,,,,,,,,,,,,,,,
,,,,,SPR24_064,20,Female,2024-04-18_09h53.13.412,jersey_experiment_5_v0,2023.2.2,Win32,84.74576271,,,,,,,,,,,,,,,,862.0675,863.1145,863.1145,864.644,return,0.2957,,28.38541667,,,,,,FBP-OG-18.png,0.35,1.2,6,0.25,,,,,,,,,,,,,,,,,,0,54,54,5,1,,,,,,,,,,,,,,,,,,,,,,,
,,,,,SPR24_064,20,Female,2024-04-18_09h53.13.412,jersey_experiment_5_v0,2023.2.2,Win32,84.74576271,,,,,,,,,,,,,,,,864.6442,865.938,865.938,876.0325,return,0.901,,77.08333333,,,,,,FBP-YG-81.png,0.43,1.2,24,0.5,,,,,,,,,,,,,,,,,,0,55,55,23,1,,,,,,,,,,,,,,,,,,,,,,,
,,,,,SPR24_064,20,Female,2024-04-18_09h53.13.412,jersey_experiment_5_v0,2023.2.2,Win32,84.74576271,,,,,,,,,,,,,,,,876.0327,877.3268,877.3269,881.2563,return,1.6571,,47.91666667,,,,,,FBP-PT-71.png,0.4,1.2,48,0.5,,,,,,,,,,,,,,,,,,0,56,56,47,1,,,,,,,,,,,,,,,,,,,,,,,
,,,,,SPR24_064,20,Female,2024-04-18_09h53.13.412,jersey_experiment_5_v0,2023.2.2,Win32,84.74576271,,,,,,,,,,,,,,,,881.2565,882.5505,882.5506,885.233,return,1.1693,,49.86979167,,,,,,FBP-YG-71.png,0.4,1.2,18,0.5,,,,,,,,,,,,,,,,,,0,57,57,17,1,,,,,,,,,,,,,,,,,,,,,,,
,,,,,SPR24_064,20,Female,2024-04-18_09h53.13.412,jersey_experiment_5_v0,2023.2.2,Win32,84.74576271,,,,,,,,,,,,,,,,885.2333,886.2799,886.28,887.833,return,0.6973,,49.609375,,,,,,FBP-OG-18.png,0.4,1.2,8,0.25,,,,,,,,,,,,,,,,,,0,58,58,7,1,,,,,,,,,,,,,,,,,,,,,,,
,,,,,SPR24_064,20,Female,2024-04-18_09h53.13.412,jersey_experiment_5_v0,2023.2.2,Win32,84.74576271,,,,,,,,,,,,,,,,887.8332,889.1272,889.1272,890.5036,return,0.7055,,41.66666667,,,,,,FBP-PT-81.png,0.35,1.2,51,0.5,,,,,,,,,,,,,,,,,,0,59,59,50,1,,,,,,,,,,,,,,,,,,,,,,,
,,,,,SPR24_064,20,Female,2024-04-18_09h53.13.412,jersey_experiment_5_v0,2023.2.2,Win32,84.74576271,,,,,,,,,,,,,,,,,,,,,,,,,,,,,,,,,,,,,,,,,,,,,,,,,,,,,,,,890.504,894.1982,return,3.6819,,,,,,,,,,,,,,,,,,,
,,,,,SPR24_064,20,Female,2024-04-18_09h53.13.412,jersey_experiment_5_v0,2023.2.2,Win32,84.74576271,,,,,,,,,,,,,,,,,,,,,,,,,,,,,,,,,,,,,,,,,,,,,,,,,,,,,,,,,,,,,894.1982,897.9864,1,2.204,return,1.5676,,,,,,,,,,,,
,,,,,SPR24_064,20,Female,2024-04-18_09h53.13.412,jersey_experiment_5_v0,2023.2.2,Win32,84.74576271,,,,,,,,,,,,,,,,,,,,,,,,,,,,,,,,,,,,,,,,,,,,,,,,,,,,,,,,,,,,,,,,,,,,897.9866,958.9818,Could be about perceptions of body size and whether our perceptions veer toward viewing images of people as skinner or huskier.,right,52.549,,,,,,
,,,,,SPR24_064,20,Female,2024-04-18_09h53.13.412,jersey_experiment_5_v0,2023.2.2,Win32,84.74576271,,,,,,,,,,,,,,,,,,,,,,,,,,,,,,,,,,,,,,,,,,,,,,,,,,,,,,,,,,,,,,,,,,,,,,,,,,958.9818,961.1063,return,2.1166,