requirements.started,requirements.stopped,key_resp_3.keys,key_resp_3.rt,key_resp_3.duration,Subject ID,Age,Gender,date,expName,psychopyVersion,OS,frameRate,instructions1.started,instructions1.stopped,key_resp.keys,key_resp.rt,key_resp.duration,example.started,example.stopped,enter_2.keys,enter_2.rt,enter_2.duration,instructions2.started,instructions2.stopped,enter_3.keys,enter_3.rt,enter_3.duration,image.started,image.stopped,slider_2.started,slider_2.stopped,next.keys,next.rt,next.duration,slider.response,trial_block_1.thisRepN,trial_block_1.thisTrialN,trial_block_1.thisN,trial_block_1.thisIndex,trial_block_1.ran,Path,Width,Height,Index,Duration,trial_block_2.thisRepN,trial_block_2.thisTrialN,trial_block_2.thisN,trial_block_2.thisIndex,trial_block_2.ran,rest_break.started,rest_break.stopped,end_break.started,end_break.stopped,key_resp_5.keys,key_resp_5.rt,key_resp_5.duration,trial_block_3.thisRepN,trial_block_3.thisTrialN,trial_block_3.thisN,trial_block_3.thisIndex,trial_block_3.ran,trial_block_4.thisRepN,trial_block_4.thisTrialN,trial_block_4.thisN,trial_block_4.thisIndex,trial_block_4.ran,questions_intro.started,questions_intro.stopped,enter_12.keys,enter_12.rt,enter_12.duration,question2.started,question2.stopped,question_doingbest.response,question_doingbest.rt,enter_15.keys,enter_15.rt,enter_15.duration,pattern.started,pattern.stopped,pattern_2.text,enter_17.keys,enter_17.rt,enter_17.duration,thankyou.started,thankyou.stopped,enter_14.keys,enter_14.rt,enter_14.duration
1E-04,13.7635,return,13.7514,,SPR24_095,21,female,2024-04-25_15h31.48.770,jersey_experiment_5_v0,2023.2.2,Win32,84.74576271,,,,,,,,,,,,,,,,,,,,,,,,,,,,,,,,,,,,,,,,,,,,,,,,,,,,,,,,,,,,,,,,,,,,,,,,,,,,,,
,,,,,SPR24_095,21,female,2024-04-25_15h31.48.770,jersey_experiment_5_v0,2023.2.2,Win32,84.74576271,13.7635,24.9167,return,11.1422,,,,,,,,,,,,,,,,,,,,,,,,,,,,,,,,,,,,,,,,,,,,,,,,,,,,,,,,,,,,,,,,,,,,,,,,,,
,,,,,SPR24_095,21,female,2024-04-25_15h31.48.770,jersey_experiment_5_v0,2023.2.2,Win32,84.74576271,,,,,,24.9167,30.3167,return,5.3701,,,,,,,,,,,,,,,,,,,,,,,,,,,,,,,,,,,,,,,,,,,,,,,,,,,,,,,,,,,,,,,,,,,,,
,,,,,SPR24_095,21,female,2024-04-25_15h31.48.770,jersey_experiment_5_v0,2023.2.2,Win32,84.74576271,,,,,,,,,,,30.3168,50.4352,return,20.1049,,,,,,,,,,,,,,,,,,,,,,,,,,,,,,,,,,,,,,,,,,,,,,,,,,,,,,,,,,,,,,,,
,,,,,SPR24_095,21,female,2024-04-25_15h31.48.770,jersey_experiment_5_v0,2023.2.2,Win32,84.74576271,,,,,,,,,,,,,,,,50.4456,51.4937,51.4938,65.6001,return,5.0251,,74.86979167,0,0,0,27,1,FBP-YG-19.png,0.4,1.2,28,0.25,,,,,,,,,,,,,,,,,,,,,,,,,,,,,,,,,,,,,,,,,,,,,
,,,,,SPR24_095,21,female,2024-04-25_15h31.48.770,jersey_experiment_5_v0,2023.2.2,Win32,84.74576271,,,,,,,,,,,,,,,,65.6043,66.906,66.906,68.9885,return,0.5452,,50.52083333,0,1,1,13,1,FBP-OG-91.png,0.43,1.2,14,0.5,,,,,,,,,,,,,,,,,,,,,,,,,,,,,,,,,,,,,,,,,,,,,
,,,,,SPR24_095,21,female,2024-04-25_15h31.48.770,jersey_experiment_5_v0,2023.2.2,Win32,84.74576271,,,,,,,,,,,,,,,,68.9886,70.0354,70.0355,73.2945,return,2.4151,,17.96875,0,2,2,46,1,FBP-PT-17.png,0.37,1.2,47,0.25,,,,,,,,,,,,,,,,,,,,,,,,,,,,,,,,,,,,,,,,,,,,,
,,,,,SPR24_095,21,female,2024-04-25_15h31.48.770,jersey_experiment_5_v0,2023.2.2,Win32,84.74576271,,,,,,,,,,,,,,,,73.2948,74.3414,74.3414,78.0475,return,1.2141,,63.15104167,0,3,3,20,1,FBP-YG-18.png,0.35,1.2,21,0.25,,,,,,,,,,,,,,,,,,,,,,,,,,,,,,,,,,,,,,,,,,,,,
,,,,,SPR24_095,21,female,2024-04-25_15h31.48.770,jersey_experiment_5_v0,2023.2.2,Win32,84.74576271,,,,,,,,,,,,,,,,78.0477,79.0946,79.0946,81.9536,return,1.6369,,70.57291667,0,4,4,18,1,FBP-YG-17.png,0.43,1.2,19,0.25,,,,,,,,,,,,,,,,,,,,,,,,,,,,,,,,,,,,,,,,,,,,,
,,,,,SPR24_095,21,female,2024-04-25_15h31.48.770,jersey_experiment_5_v0,2023.2.2,Win32,84.74576271,,,,,,,,,,,,,,,,81.9538,83.2476,83.2476,85.8242,return,0.3782,,49.47916667,0,5,5,31,1,FBP-RB-17.png,0.37,1.2,32,0.5,,,,,,,,,,,,,,,,,,,,,,,,,,,,,,,,,,,,,,,,,,,,,
,,,,,SPR24_095,21,female,2024-04-25_15h31.48.770,jersey_experiment_5_v0,2023.2.2,Win32,84.74576271,,,,,,,,,,,,,,,,85.8244,87.1184,87.1185,89.5656,return,1.2381,,62.23958333,0,6,6,37,1,FBP-RB-18.png,0.4,1.2,38,0.5,,,,,,,,,,,,,,,,,,,,,,,,,,,,,,,,,,,,,,,,,,,,,
,,,,,SPR24_095,21,female,2024-04-25_15h31.48.770,jersey_experiment_5_v0,2023.2.2,Win32,84.74576271,,,,,,,,,,,,,,,,89.5658,90.6126,90.6127,95.4597,return,1.1774,,56.25,0,7,7,17,1,FBP-YG-17.png,0.4,1.2,18,0.25,,,,,,,,,,,,,,,,,,,,,,,,,,,,,,,,,,,,,,,,,,,,,
,,,,,SPR24_095,21,female,2024-04-25_15h31.48.770,jersey_experiment_5_v0,2023.2.2,Win32,84.74576271,,,,,,,,,,,,,,,,95.4599,96.754,96.7541,98.5776,return,0.5652,,81.77083333,0,8,8,44,1,FBP-RB-19.png,0.45,1.2,45,0.5,,,,,,,,,,,,,,,,,,,,,,,,,,,,,,,,,,,,,,,,,,,,,
,,,,,SPR24_095,21,female,2024-04-25_15h31.48.770,jersey_experiment_5_v0,2023.2.2,Win32,84.74576271,,,,,,,,,,,,,,,,98.5778,99.6247,99.6247,101.7778,return,0.4241,,71.61458333,0,9,9,53,1,FBP-PT-18.png,0.43,1.2,54,0.25,,,,,,,,,,,,,,,,,,,,,,,,,,,,,,,,,,,,,,,,,,,,,
,,,,,SPR24_095,21,female,2024-04-25_15h31.48.770,jersey_experiment_5_v0,2023.2.2,Win32,84.74576271,,,,,,,,,,,,,,,,101.778,103.0719,103.0719,105.6837,return,0.4724,,39.97395833,0,10,10,40,1,FBP-RB-19.png,0.35,1.2,41,0.5,,,,,,,,,,,,,,,,,,,,,,,,,,,,,,,,,,,,,,,,,,,,,
,,,,,SPR24_095,21,female,2024-04-25_15h31.48.770,jersey_experiment_5_v0,2023.2.2,Win32,84.74576271,,,,,,,,,,,,,,,,105.6839,106.7308,106.7309,108.5427,return,0.509,,29.42708333,0,11,11,51,1,FBP-PT-18.png,0.37,1.2,52,0.25,,,,,,,,,,,,,,,,,,,,,,,,,,,,,,,,,,,,,,,,,,,,,
,,,,,SPR24_095,21,female,2024-04-25_15h31.48.770,jersey_experiment_5_v0,2023.2.2,Win32,84.74576271,,,,,,,,,,,,,,,,108.5429,109.5897,109.5898,112.3076,return,0.494,,68.48958333,0,12,12,28,1,FBP-YG-19.png,0.43,1.2,29,0.25,,,,,,,,,,,,,,,,,,,,,,,,,,,,,,,,,,,,,,,,,,,,,
,,,,,SPR24_095,21,female,2024-04-25_15h31.48.770,jersey_experiment_5_v0,2023.2.2,Win32,84.74576271,,,,,,,,,,,,,,,,112.3078,113.6017,113.6017,116.1547,return,1.4529,,89.0625,0,13,13,4,1,FBP-OG-71.png,0.45,1.2,5,0.5,,,,,,,,,,,,,,,,,,,,,,,,,,,,,,,,,,,,,,,,,,,,,
,,,,,SPR24_095,21,female,2024-04-25_15h31.48.770,jersey_experiment_5_v0,2023.2.2,Win32,84.74576271,,,,,,,,,,,,,,,,116.155,117.2017,117.2017,119.2959,return,0.8708,,84.63541667,0,14,14,49,1,FBP-PT-17.png,0.45,1.2,50,0.25,,,,,,,,,,,,,,,,,,,,,,,,,,,,,,,,,,,,,,,,,,,,,
,,,,,SPR24_095,21,female,2024-04-25_15h31.48.770,jersey_experiment_5_v0,2023.2.2,Win32,84.74576271,,,,,,,,,,,,,,,,119.2961,120.5902,120.5903,125.5316,return,0.3111,,63.28125,0,15,15,3,1,FBP-OG-71.png,0.43,1.2,4,0.5,,,,,,,,,,,,,,,,,,,,,,,,,,,,,,,,,,,,,,,,,,,,,
,,,,,SPR24_095,21,female,2024-04-25_15h31.48.770,jersey_experiment_5_v0,2023.2.2,Win32,84.74576271,,,,,,,,,,,,,,,,125.5318,126.8255,126.8256,128.3082,return,0.4007,,45.44270833,0,16,16,42,1,FBP-RB-19.png,0.4,1.2,43,0.5,,,,,,,,,,,,,,,,,,,,,,,,,,,,,,,,,,,,,,,,,,,,,
,,,,,SPR24_095,21,female,2024-04-25_15h31.48.770,jersey_experiment_5_v0,2023.2.2,Win32,84.74576271,,,,,,,,,,,,,,,,128.3083,129.3551,129.3551,131.4376,return,0.944,,9.635416667,0,17,17,50,1,FBP-PT-18.png,0.35,1.2,51,0.25,,,,,,,,,,,,,,,,,,,,,,,,,,,,,,,,,,,,,,,,,,,,,
,,,,,SPR24_095,21,female,2024-04-25_15h31.48.770,jersey_experiment_5_v0,2023.2.2,Win32,84.74576271,,,,,,,,,,,,,,,,131.4379,132.7317,132.7317,135.979,return,2.2776,,80.859375,0,18,18,9,1,FBP-OG-81.png,0.45,1.2,10,0.5,,,,,,,,,,,,,,,,,,,,,,,,,,,,,,,,,,,,,,,,,,,,,
,,,,,SPR24_095,21,female,2024-04-25_15h31.48.770,jersey_experiment_5_v0,2023.2.2,Win32,84.74576271,,,,,,,,,,,,,,,,135.9792,137.2731,137.2731,138.5083,return,0.2269,,80.859375,0,19,19,14,1,FBP-OG-91.png,0.45,1.2,15,0.5,,,,,,,,,,,,,,,,,,,,,,,,,,,,,,,,,,,,,,,,,,,,,
,,,,,SPR24_095,21,female,2024-04-25_15h31.48.770,jersey_experiment_5_v0,2023.2.2,Win32,84.74576271,,,,,,,,,,,,,,,,138.5085,139.5554,139.5555,141.2497,return,0.5428,,47.39583333,0,20,20,22,1,FBP-YG-18.png,0.4,1.2,23,0.25,,,,,,,,,,,,,,,,,,,,,,,,,,,,,,,,,,,,,,,,,,,,,
,,,,,SPR24_095,21,female,2024-04-25_15h31.48.770,jersey_experiment_5_v0,2023.2.2,Win32,84.74576271,,,,,,,,,,,,,,,,141.2499,142.5438,142.5439,143.7792,return,0.3403,,58.85416667,0,21,21,32,1,FBP-RB-17.png,0.4,1.2,33,0.5,,,,,,,,,,,,,,,,,,,,,,,,,,,,,,,,,,,,,,,,,,,,,
,,,,,SPR24_095,21,female,2024-04-25_15h31.48.770,jersey_experiment_5_v0,2023.2.2,Win32,84.74576271,,,,,,,,,,,,,,,,143.7794,145.0735,145.0735,146.4733,return,0.5233,,17.70833333,0,22,22,30,1,FBP-RB-17.png,0.35,1.2,31,0.5,,,,,,,,,,,,,,,,,,,,,,,,,,,,,,,,,,,,,,,,,,,,,
,,,,,SPR24_095,21,female,2024-04-25_15h31.48.770,jersey_experiment_5_v0,2023.2.2,Win32,84.74576271,,,,,,,,,,,,,,,,146.4736,147.7673,147.7674,150.1795,return,1.4695,,83.59375,0,23,23,43,1,FBP-RB-19.png,0.43,1.2,44,0.5,,,,,,,,,,,,,,,,,,,,,,,,,,,,,,,,,,,,,,,,,,,,,
,,,,,SPR24_095,21,female,2024-04-25_15h31.48.770,jersey_experiment_5_v0,2023.2.2,Win32,84.74576271,,,,,,,,,,,,,,,,150.1797,151.4734,151.4734,152.5914,return,0.4617,,74.21875,0,24,24,8,1,FBP-OG-81.png,0.43,1.2,9,0.5,,,,,,,,,,,,,,,,,,,,,,,,,,,,,,,,,,,,,,,,,,,,,
,,,,,SPR24_095,21,female,2024-04-25_15h31.48.770,jersey_experiment_5_v0,2023.2.2,Win32,84.74576271,,,,,,,,,,,,,,,,152.5917,153.6384,153.6384,155.7795,return,0.9742,,86.84895833,0,25,25,54,1,FBP-PT-18.png,0.45,1.2,55,0.25,,,,,,,,,,,,,,,,,,,,,,,,,,,,,,,,,,,,,,,,,,,,,
,,,,,SPR24_095,21,female,2024-04-25_15h31.48.770,jersey_experiment_5_v0,2023.2.2,Win32,84.74576271,,,,,,,,,,,,,,,,155.7797,157.0736,157.0736,158.4973,return,0.2819,,87.36979167,0,26,26,33,1,FBP-RB-17.png,0.43,1.2,34,0.5,,,,,,,,,,,,,,,,,,,,,,,,,,,,,,,,,,,,,,,,,,,,,
,,,,,SPR24_095,21,female,2024-04-25_15h31.48.770,jersey_experiment_5_v0,2023.2.2,Win32,84.74576271,,,,,,,,,,,,,,,,158.4975,159.7915,159.7916,161.3447,return,0.3063,,25.52083333,0,27,27,5,1,FBP-OG-81.png,0.35,1.2,6,0.5,,,,,,,,,,,,,,,,,,,,,,,,,,,,,,,,,,,,,,,,,,,,,
,,,,,SPR24_095,21,female,2024-04-25_15h31.48.770,jersey_experiment_5_v0,2023.2.2,Win32,84.74576271,,,,,,,,,,,,,,,,161.345,162.6386,162.6386,164.4506,return,1.0595,,32.03125,0,28,28,2,1,FBP-OG-71.png,0.4,1.2,3,0.5,,,,,,,,,,,,,,,,,,,,,,,,,,,,,,,,,,,,,,,,,,,,,
,,,,,SPR24_095,21,female,2024-04-25_15h31.48.770,jersey_experiment_5_v0,2023.2.2,Win32,84.74576271,,,,,,,,,,,,,,,,164.4508,165.4974,165.4974,166.9211,return,0.2882,,24.08854167,0,29,29,48,1,FBP-PT-17.png,0.43,1.2,49,0.25,,,,,,,,,,,,,,,,,,,,,,,,,,,,,,,,,,,,,,,,,,,,,
,,,,,SPR24_095,21,female,2024-04-25_15h31.48.770,jersey_experiment_5_v0,2023.2.2,Win32,84.74576271,,,,,,,,,,,,,,,,166.9214,168.2153,168.2153,170.9801,return,1.4696,,24.21875,0,30,30,35,1,FBP-RB-18.png,0.35,1.2,36,0.5,,,,,,,,,,,,,,,,,,,,,,,,,,,,,,,,,,,,,,,,,,,,,
,,,,,SPR24_095,21,female,2024-04-25_15h31.48.770,jersey_experiment_5_v0,2023.2.2,Win32,84.74576271,,,,,,,,,,,,,,,,170.9803,172.0272,172.0273,173.2625,return,0.2954,,18.359375,0,31,31,45,1,FBP-PT-17.png,0.35,1.2,46,0.25,,,,,,,,,,,,,,,,,,,,,,,,,,,,,,,,,,,,,,,,,,,,,
,,,,,SPR24_095,21,female,2024-04-25_15h31.48.770,jersey_experiment_5_v0,2023.2.2,Win32,84.74576271,,,,,,,,,,,,,,,,173.2627,174.3098,174.3098,181.0981,return,5.0433,,58.33333333,0,32,32,52,1,FBP-PT-18.png,0.4,1.2,53,0.25,,,,,,,,,,,,,,,,,,,,,,,,,,,,,,,,,,,,,,,,,,,,,
,,,,,SPR24_095,21,female,2024-04-25_15h31.48.770,jersey_experiment_5_v0,2023.2.2,Win32,84.74576271,,,,,,,,,,,,,,,,181.0983,182.1451,182.1452,184.1451,return,0.6013,,74.21875,0,33,33,59,1,FBP-PT-19.png,0.45,1.2,60,0.25,,,,,,,,,,,,,,,,,,,,,,,,,,,,,,,,,,,,,,,,,,,,,
,,,,,SPR24_095,21,female,2024-04-25_15h31.48.770,jersey_experiment_5_v0,2023.2.2,Win32,84.74576271,,,,,,,,,,,,,,,,184.1454,185.1923,185.1923,186.557,return,0.3811,,38.41145833,0,34,34,16,1,FBP-YG-17.png,0.37,1.2,17,0.25,,,,,,,,,,,,,,,,,,,,,,,,,,,,,,,,,,,,,,,,,,,,,
,,,,,SPR24_095,21,female,2024-04-25_15h31.48.770,jersey_experiment_5_v0,2023.2.2,Win32,84.74576271,,,,,,,,,,,,,,,,186.5572,187.6042,187.6042,190.2514,return,1.3817,,74.609375,0,35,35,24,1,FBP-YG-18.png,0.45,1.2,25,0.25,,,,,,,,,,,,,,,,,,,,,,,,,,,,,,,,,,,,,,,,,,,,,
,,,,,SPR24_095,21,female,2024-04-25_15h31.48.770,jersey_experiment_5_v0,2023.2.2,Win32,84.74576271,,,,,,,,,,,,,,,,190.2516,191.5454,191.5454,193.4278,return,0.8709,,50.26041667,0,36,36,7,1,FBP-OG-81.png,0.4,1.2,8,0.5,,,,,,,,,,,,,,,,,,,,,,,,,,,,,,,,,,,,,,,,,,,,,
,,,,,SPR24_095,21,female,2024-04-25_15h31.48.770,jersey_experiment_5_v0,2023.2.2,Win32,84.74576271,,,,,,,,,,,,,,,,193.428,194.475,194.4751,195.8987,return,0.2522,,78.25520833,0,37,37,19,1,FBP-YG-17.png,0.45,1.2,20,0.25,,,,,,,,,,,,,,,,,,,,,,,,,,,,,,,,,,,,,,,,,,,,,
,,,,,SPR24_095,21,female,2024-04-25_15h31.48.770,jersey_experiment_5_v0,2023.2.2,Win32,84.74576271,,,,,,,,,,,,,,,,195.8989,196.9457,196.9457,198.2987,return,0.3237,,79.94791667,0,38,38,29,1,FBP-YG-19.png,0.45,1.2,30,0.25,,,,,,,,,,,,,,,,,,,,,,,,,,,,,,,,,,,,,,,,,,,,,
,,,,,SPR24_095,21,female,2024-04-25_15h31.48.770,jersey_experiment_5_v0,2023.2.2,Win32,84.74576271,,,,,,,,,,,,,,,,198.2989,199.3455,199.3456,201.1693,return,0.7877,,20.57291667,0,39,39,15,1,FBP-YG-17.png,0.35,1.2,16,0.25,,,,,,,,,,,,,,,,,,,,,,,,,,,,,,,,,,,,,,,,,,,,,
,,,,,SPR24_095,21,female,2024-04-25_15h31.48.770,jersey_experiment_5_v0,2023.2.2,Win32,84.74576271,,,,,,,,,,,,,,,,201.1695,202.2164,202.2165,203.6164,return,0.4013,,21.875,0,40,40,25,1,FBP-YG-19.png,0.35,1.2,26,0.25,,,,,,,,,,,,,,,,,,,,,,,,,,,,,,,,,,,,,,,,,,,,,
,,,,,SPR24_095,21,female,2024-04-25_15h31.48.770,jersey_experiment_5_v0,2023.2.2,Win32,84.74576271,,,,,,,,,,,,,,,,203.6167,204.9107,204.9108,206.0756,return,0.3105,,32.68229167,0,41,41,41,1,FBP-RB-19.png,0.37,1.2,42,0.5,,,,,,,,,,,,,,,,,,,,,,,,,,,,,,,,,,,,,,,,,,,,,
,,,,,SPR24_095,21,female,2024-04-25_15h31.48.770,jersey_experiment_5_v0,2023.2.2,Win32,84.74576271,,,,,,,,,,,,,,,,206.0759,207.3695,207.3696,209.4051,return,0.2501,,31.51041667,0,42,42,1,1,FBP-OG-71.png,0.37,1.2,2,0.5,,,,,,,,,,,,,,,,,,,,,,,,,,,,,,,,,,,,,,,,,,,,,
,,,,,SPR24_095,21,female,2024-04-25_15h31.48.770,jersey_experiment_5_v0,2023.2.2,Win32,84.74576271,,,,,,,,,,,,,,,,209.4053,210.452,210.452,212.5699,return,1.0181,,76.69270833,0,43,43,58,1,FBP-PT-19.png,0.43,1.2,59,0.25,,,,,,,,,,,,,,,,,,,,,,,,,,,,,,,,,,,,,,,,,,,,,
,,,,,SPR24_095,21,female,2024-04-25_15h31.48.770,jersey_experiment_5_v0,2023.2.2,Win32,84.74576271,,,,,,,,,,,,,,,,212.5702,213.6167,213.6168,215.8168,return,0.3736,,23.95833333,0,44,44,55,1,FBP-PT-19.png,0.35,1.2,56,0.25,,,,,,,,,,,,,,,,,,,,,,,,,,,,,,,,,,,,,,,,,,,,,
,,,,,SPR24_095,21,female,2024-04-25_15h31.48.770,jersey_experiment_5_v0,2023.2.2,Win32,84.74576271,,,,,,,,,,,,,,,,215.817,216.8639,216.8639,218.5582,return,0.5784,,76.69270833,0,45,45,23,1,FBP-YG-18.png,0.43,1.2,24,0.25,,,,,,,,,,,,,,,,,,,,,,,,,,,,,,,,,,,,,,,,,,,,,
,,,,,SPR24_095,21,female,2024-04-25_15h31.48.770,jersey_experiment_5_v0,2023.2.2,Win32,84.74576271,,,,,,,,,,,,,,,,218.5584,219.8522,219.8522,221.4995,return,0.2178,,31.38020833,0,46,46,6,1,FBP-OG-81.png,0.37,1.2,7,0.5,,,,,,,,,,,,,,,,,,,,,,,,,,,,,,,,,,,,,,,,,,,,,
,,,,,SPR24_095,21,female,2024-04-25_15h31.48.770,jersey_experiment_5_v0,2023.2.2,Win32,84.74576271,,,,,,,,,,,,,,,,221.4998,222.7935,222.7936,225.3233,return,1.5478,,84.50520833,0,47,47,34,1,FBP-RB-17.png,0.45,1.2,35,0.5,,,,,,,,,,,,,,,,,,,,,,,,,,,,,,,,,,,,,,,,,,,,,
,,,,,SPR24_095,21,female,2024-04-25_15h31.48.770,jersey_experiment_5_v0,2023.2.2,Win32,84.74576271,,,,,,,,,,,,,,,,225.3235,226.6174,226.6174,230.0644,return,2.4117,,29.03645833,0,48,48,12,1,FBP-OG-91.png,0.4,1.2,13,0.5,,,,,,,,,,,,,,,,,,,,,,,,,,,,,,,,,,,,,,,,,,,,,
,,,,,SPR24_095,21,female,2024-04-25_15h31.48.770,jersey_experiment_5_v0,2023.2.2,Win32,84.74576271,,,,,,,,,,,,,,,,230.0646,231.3586,231.3587,232.4646,return,0.3304,,13.02083333,0,49,49,10,1,FBP-OG-91.png,0.35,1.2,11,0.5,,,,,,,,,,,,,,,,,,,,,,,,,,,,,,,,,,,,,,,,,,,,,
,,,,,SPR24_095,21,female,2024-04-25_15h31.48.770,jersey_experiment_5_v0,2023.2.2,Win32,84.74576271,,,,,,,,,,,,,,,,232.4647,233.7586,233.7587,236.5118,return,0.2843,,35.02604167,0,50,50,0,1,FBP-OG-71.png,0.35,1.2,1,0.5,,,,,,,,,,,,,,,,,,,,,,,,,,,,,,,,,,,,,,,,,,,,,
,,,,,SPR24_095,21,female,2024-04-25_15h31.48.770,jersey_experiment_5_v0,2023.2.2,Win32,84.74576271,,,,,,,,,,,,,,,,236.512,237.5588,237.5588,238.9473,return,0.2725,,49.34895833,0,51,51,57,1,FBP-PT-19.png,0.4,1.2,58,0.25,,,,,,,,,,,,,,,,,,,,,,,,,,,,,,,,,,,,,,,,,,,,,
,,,,,SPR24_095,21,female,2024-04-25_15h31.48.770,jersey_experiment_5_v0,2023.2.2,Win32,84.74576271,,,,,,,,,,,,,,,,238.9475,240.2412,240.2412,242.4647,return,0.4578,,95.3125,0,52,52,39,1,FBP-RB-18.png,0.45,1.2,40,0.5,,,,,,,,,,,,,,,,,,,,,,,,,,,,,,,,,,,,,,,,,,,,,
,,,,,SPR24_095,21,female,2024-04-25_15h31.48.770,jersey_experiment_5_v0,2023.2.2,Win32,84.74576271,,,,,,,,,,,,,,,,242.4649,243.512,243.512,245.8417,return,0.2829,,45.44270833,0,53,53,26,1,FBP-YG-19.png,0.37,1.2,27,0.25,,,,,,,,,,,,,,,,,,,,,,,,,,,,,,,,,,,,,,,,,,,,,
,,,,,SPR24_095,21,female,2024-04-25_15h31.48.770,jersey_experiment_5_v0,2023.2.2,Win32,84.74576271,,,,,,,,,,,,,,,,245.8419,247.1356,247.1356,249.4417,return,1.1282,,36.97916667,0,54,54,11,1,FBP-OG-91.png,0.37,1.2,12,0.5,,,,,,,,,,,,,,,,,,,,,,,,,,,,,,,,,,,,,,,,,,,,,
,,,,,SPR24_095,21,female,2024-04-25_15h31.48.770,jersey_experiment_5_v0,2023.2.2,Win32,84.74576271,,,,,,,,,,,,,,,,249.4418,250.4887,250.4887,252.8888,return,1.397,,29.296875,0,55,55,56,1,FBP-PT-19.png,0.37,1.2,57,0.25,,,,,,,,,,,,,,,,,,,,,,,,,,,,,,,,,,,,,,,,,,,,,
,,,,,SPR24_095,21,female,2024-04-25_15h31.48.770,jersey_experiment_5_v0,2023.2.2,Win32,84.74576271,,,,,,,,,,,,,,,,252.889,253.9358,253.9359,255.7123,return,0.2596,,49.73958333,0,56,56,47,1,FBP-PT-17.png,0.4,1.2,48,0.25,,,,,,,,,,,,,,,,,,,,,,,,,,,,,,,,,,,,,,,,,,,,,
,,,,,SPR24_095,21,female,2024-04-25_15h31.48.770,jersey_experiment_5_v0,2023.2.2,Win32,84.74576271,,,,,,,,,,,,,,,,255.7124,257.0066,257.0066,259.7124,return,1.2118,,49.08854167,0,57,57,36,1,FBP-RB-18.png,0.37,1.2,37,0.5,,,,,,,,,,,,,,,,,,,,,,,,,,,,,,,,,,,,,,,,,,,,,
,,,,,SPR24_095,21,female,2024-04-25_15h31.48.770,jersey_experiment_5_v0,2023.2.2,Win32,84.74576271,,,,,,,,,,,,,,,,259.7126,261.0065,261.0066,263.4538,return,0.3184,,70.703125,0,58,58,38,1,FBP-RB-18.png,0.43,1.2,39,0.5,,,,,,,,,,,,,,,,,,,,,,,,,,,,,,,,,,,,,,,,,,,,,
,,,,,SPR24_095,21,female,2024-04-25_15h31.48.770,jersey_experiment_5_v0,2023.2.2,Win32,84.74576271,,,,,,,,,,,,,,,,263.454,264.5009,264.5009,266.5952,return,0.6724,,43.75,0,59,59,21,1,FBP-YG-18.png,0.37,1.2,22,0.25,,,,,,,,,,,,,,,,,,,,,,,,,,,,,,,,,,,,,,,,,,,,,
,,,,,SPR24_095,21,female,2024-04-25_15h31.48.770,jersey_experiment_5_v0,2023.2.2,Win32,84.74576271,,,,,,,,,,,,,,,,266.5972,267.6422,267.6422,269.1954,return,0.4532,,88.671875,,,,,,FBP-PT-71.png,0.45,1.2,50,0.25,0,0,0,49,1,,,,,,,,,,,,,,,,,,,,,,,,,,,,,,,,,,,,,,,,
,,,,,SPR24_095,21,female,2024-04-25_15h31.48.770,jersey_experiment_5_v0,2023.2.2,Win32,84.74576271,,,,,,,,,,,,,,,,269.1956,270.2423,270.2424,274.4425,return,0.5245,,48.046875,,,,,,FBP-YG-81.png,0.37,1.2,22,0.25,0,1,1,21,1,,,,,,,,,,,,,,,,,,,,,,,,,,,,,,,,,,,,,,,,
,,,,,SPR24_095,21,female,2024-04-25_15h31.48.770,jersey_experiment_5_v0,2023.2.2,Win32,84.74576271,,,,,,,,,,,,,,,,274.4427,275.4895,275.4895,278.7484,return,1.6522,,49.21875,,,,,,FBP-YG-81.png,0.4,1.2,23,0.25,0,2,2,22,1,,,,,,,,,,,,,,,,,,,,,,,,,,,,,,,,,,,,,,,,
,,,,,SPR24_095,21,female,2024-04-25_15h31.48.770,jersey_experiment_5_v0,2023.2.2,Win32,84.74576271,,,,,,,,,,,,,,,,278.7487,280.0426,280.0427,281.4897,return,0.2372,,49.34895833,,,,,,FBP-RB-91.png,0.37,1.2,42,0.5,0,3,3,41,1,,,,,,,,,,,,,,,,,,,,,,,,,,,,,,,,,,,,,,,,
,,,,,SPR24_095,21,female,2024-04-25_15h31.48.770,jersey_experiment_5_v0,2023.2.2,Win32,84.74576271,,,,,,,,,,,,,,,,281.49,282.7837,282.7837,284.7368,return,0.4858,,99.21875,,,,,,FBP-RB-91.png,0.43,1.2,44,0.5,0,4,4,43,1,,,,,,,,,,,,,,,,,,,,,,,,,,,,,,,,,,,,,,,,
,,,,,SPR24_095,21,female,2024-04-25_15h31.48.770,jersey_experiment_5_v0,2023.2.2,Win32,84.74576271,,,,,,,,,,,,,,,,284.737,286.0311,286.0312,290.1724,return,0.2289,,83.07291667,,,,,,FBP-OG-19.png,0.4,1.2,13,0.5,0,5,5,12,1,,,,,,,,,,,,,,,,,,,,,,,,,,,,,,,,,,,,,,,,
,,,,,SPR24_095,21,female,2024-04-25_15h31.48.770,jersey_experiment_5_v0,2023.2.2,Win32,84.74576271,,,,,,,,,,,,,,,,290.1726,291.4666,291.4667,292.9962,return,0.3426,,25.65104167,,,,,,FBP-RB-81.png,0.37,1.2,37,0.5,0,6,6,36,1,,,,,,,,,,,,,,,,,,,,,,,,,,,,,,,,,,,,,,,,
,,,,,SPR24_095,21,female,2024-04-25_15h31.48.770,jersey_experiment_5_v0,2023.2.2,Win32,84.74576271,,,,,,,,,,,,,,,,292.9965,294.2901,294.2901,295.5608,return,0.2425,,88.02083333,,,,,,FBP-RB-81.png,0.45,1.2,40,0.5,0,7,7,39,1,,,,,,,,,,,,,,,,,,,,,,,,,,,,,,,,,,,,,,,,
,,,,,SPR24_095,21,female,2024-04-25_15h31.48.770,jersey_experiment_5_v0,2023.2.2,Win32,84.74576271,,,,,,,,,,,,,,,,295.5609,296.6078,296.6079,298.7961,return,1.2522,,50.13020833,,,,,,FBP-YG-81.png,0.35,1.2,21,0.25,0,8,8,20,1,,,,,,,,,,,,,,,,,,,,,,,,,,,,,,,,,,,,,,,,
,,,,,SPR24_095,21,female,2024-04-25_15h31.48.770,jersey_experiment_5_v0,2023.2.2,Win32,84.74576271,,,,,,,,,,,,,,,,298.7963,299.8433,299.8434,301.0906,return,0.2269,,25.390625,,,,,,FBP-PT-81.png,0.35,1.2,51,0.25,0,9,9,50,1,,,,,,,,,,,,,,,,,,,,,,,,,,,,,,,,,,,,,,,,
,,,,,SPR24_095,21,female,2024-04-25_15h31.48.770,jersey_experiment_5_v0,2023.2.2,Win32,84.74576271,,,,,,,,,,,,,,,,301.0908,302.1374,302.1374,304.9376,return,0.3138,,76.04166667,,,,,,FBP-PT-71.png,0.4,1.2,48,0.25,0,10,10,47,1,,,,,,,,,,,,,,,,,,,,,,,,,,,,,,,,,,,,,,,,
,,,,,SPR24_095,21,female,2024-04-25_15h31.48.770,jersey_experiment_5_v0,2023.2.2,Win32,84.74576271,,,,,,,,,,,,,,,,304.9378,305.9846,305.9846,306.914,return,0.1881,,87.5,,,,,,FBP-YG-81.png,0.43,1.2,24,0.25,0,11,11,23,1,,,,,,,,,,,,,,,,,,,,,,,,,,,,,,,,,,,,,,,,
,,,,,SPR24_095,21,female,2024-04-25_15h31.48.770,jersey_experiment_5_v0,2023.2.2,Win32,84.74576271,,,,,,,,,,,,,,,,306.9142,307.9612,307.9613,312.2907,return,2.6488,,49.86979167,,,,,,FBP-YG-71.png,0.37,1.2,17,0.25,0,12,12,16,1,,,,,,,,,,,,,,,,,,,,,,,,,,,,,,,,,,,,,,,,
,,,,,SPR24_095,21,female,2024-04-25_15h31.48.770,jersey_experiment_5_v0,2023.2.2,Win32,84.74576271,,,,,,,,,,,,,,,,312.291,313.585,313.5851,315.0438,return,0.5879,,89.97395833,,,,,,FBP-RB-71.png,0.45,1.2,35,0.5,0,13,13,34,1,,,,,,,,,,,,,,,,,,,,,,,,,,,,,,,,,,,,,,,,
,,,,,SPR24_095,21,female,2024-04-25_15h31.48.770,jersey_experiment_5_v0,2023.2.2,Win32,84.74576271,,,,,,,,,,,,,,,,315.0441,316.0908,316.0909,320.2205,return,2.7924,,74.47916667,,,,,,FBP-PT-91.png,0.37,1.2,57,0.25,0,14,14,56,1,,,,,,,,,,,,,,,,,,,,,,,,,,,,,,,,,,,,,,,,
,,,,,SPR24_095,21,female,2024-04-25_15h31.48.770,jersey_experiment_5_v0,2023.2.2,Win32,84.74576271,,,,,,,,,,,,,,,,320.2207,321.5147,321.5147,322.9617,return,0.2358,,57.421875,,,,,,FBP-OG-18.png,0.4,1.2,8,0.5,0,15,15,7,1,,,,,,,,,,,,,,,,,,,,,,,,,,,,,,,,,,,,,,,,
,,,,,SPR24_095,21,female,2024-04-25_15h31.48.770,jersey_experiment_5_v0,2023.2.2,Win32,84.74576271,,,,,,,,,,,,,,,,322.962,324.2561,324.2561,325.103,return,0.224,,41.14583333,,,,,,FBP-OG-18.png,0.35,1.2,6,0.5,0,16,16,5,1,,,,,,,,,,,,,,,,,,,,,,,,,,,,,,,,,,,,,,,,
,,,,,SPR24_095,21,female,2024-04-25_15h31.48.770,jersey_experiment_5_v0,2023.2.2,Win32,84.74576271,,,,,,,,,,,,,,,,325.1032,326.15,326.1501,327.8089,return,0.2355,,72.39583333,,,,,,FBP-PT-81.png,0.43,1.2,54,0.25,0,17,17,53,1,,,,,,,,,,,,,,,,,,,,,,,,,,,,,,,,,,,,,,,,
,,,,,SPR24_095,21,female,2024-04-25_15h31.48.770,jersey_experiment_5_v0,2023.2.2,Win32,84.74576271,,,,,,,,,,,,,,,,327.8091,329.103,329.103,332.7621,return,0.3822,,66.796875,,,,,,FBP-OG-18.png,0.45,1.2,10,0.5,0,18,18,9,1,,,,,,,,,,,,,,,,,,,,,,,,,,,,,,,,,,,,,,,,
,,,,,SPR24_095,21,female,2024-04-25_15h31.48.770,jersey_experiment_5_v0,2023.2.2,Win32,84.74576271,,,,,,,,,,,,,,,,332.7624,333.8091,333.8091,334.7856,return,0.1868,,79.94791667,,,,,,FBP-YG-91.png,0.45,1.2,30,0.25,0,19,19,29,1,,,,,,,,,,,,,,,,,,,,,,,,,,,,,,,,,,,,,,,,
,,,,,SPR24_095,21,female,2024-04-25_15h31.48.770,jersey_experiment_5_v0,2023.2.2,Win32,84.74576271,,,,,,,,,,,,,,,,334.7857,335.8327,335.8328,337.0326,return,0.1968,,84.765625,,,,,,FBP-YG-71.png,0.45,1.2,20,0.25,0,20,20,19,1,,,,,,,,,,,,,,,,,,,,,,,,,,,,,,,,,,,,,,,,
,,,,,SPR24_095,21,female,2024-04-25_15h31.48.770,jersey_experiment_5_v0,2023.2.2,Win32,84.74576271,,,,,,,,,,,,,,,,337.0328,338.08,338.08,340.5389,return,1.2407,,42.31770833,,,,,,FBP-YG-91.png,0.4,1.2,28,0.25,0,21,21,27,1,,,,,,,,,,,,,,,,,,,,,,,,,,,,,,,,,,,,,,,,
,,,,,SPR24_095,21,female,2024-04-25_15h31.48.770,jersey_experiment_5_v0,2023.2.2,Win32,84.74576271,,,,,,,,,,,,,,,,340.5392,341.833,341.8331,342.6328,return,0.2071,,67.96875,,,,,,FBP-OG-19.png,0.45,1.2,15,0.5,0,22,22,14,1,,,,,,,,,,,,,,,,,,,,,,,,,,,,,,,,,,,,,,,,
,,,,,SPR24_095,21,female,2024-04-25_15h31.48.770,jersey_experiment_5_v0,2023.2.2,Win32,84.74576271,,,,,,,,,,,,,,,,342.6331,343.6799,343.68,344.7624,return,0.2635,,41.27604167,,,,,,FBP-PT-81.png,0.37,1.2,52,0.25,0,23,23,51,1,,,,,,,,,,,,,,,,,,,,,,,,,,,,,,,,,,,,,,,,
,,,,,SPR24_095,21,female,2024-04-25_15h31.48.770,jersey_experiment_5_v0,2023.2.2,Win32,84.74576271,,,,,,,,,,,,,,,,344.7627,346.0567,346.0567,346.9626,return,0.27,,30.46875,,,,,,FBP-OG-19.png,0.35,1.2,11,0.5,0,24,24,10,1,,,,,,,,,,,,,,,,,,,,,,,,,,,,,,,,,,,,,,,,
,,,,,SPR24_095,21,female,2024-04-25_15h31.48.770,jersey_experiment_5_v0,2023.2.2,Win32,84.74576271,,,,,,,,,,,,,,,,346.9629,348.2566,348.2567,349.5508,return,0.2473,,86.84895833,,,,,,FBP-OG-17.png,0.45,1.2,5,0.5,0,25,25,4,1,,,,,,,,,,,,,,,,,,,,,,,,,,,,,,,,,,,,,,,,
,,,,,SPR24_095,21,female,2024-04-25_15h31.48.770,jersey_experiment_5_v0,2023.2.2,Win32,84.74576271,,,,,,,,,,,,,,,,349.5511,350.5981,350.5982,351.8097,return,0.1881,,81.77083333,,,,,,FBP-PT-91.png,0.43,1.2,59,0.25,0,26,26,58,1,,,,,,,,,,,,,,,,,,,,,,,,,,,,,,,,,,,,,,,,
,,,,,SPR24_095,21,female,2024-04-25_15h31.48.770,jersey_experiment_5_v0,2023.2.2,Win32,84.74576271,,,,,,,,,,,,,,,,351.8099,353.104,353.104,355.5981,return,1.8253,,25.52083333,,,,,,FBP-OG-18.png,0.37,1.2,7,0.5,0,27,27,6,1,,,,,,,,,,,,,,,,,,,,,,,,,,,,,,,,,,,,,,,,
,,,,,SPR24_095,21,female,2024-04-25_15h31.48.770,jersey_experiment_5_v0,2023.2.2,Win32,84.74576271,,,,,,,,,,,,,,,,355.5983,356.8923,356.8924,358.3982,return,0.2247,,59.11458333,,,,,,FBP-OG-18.png,0.43,1.2,9,0.5,0,28,28,8,1,,,,,,,,,,,,,,,,,,,,,,,,,,,,,,,,,,,,,,,,
,,,,,SPR24_095,21,female,2024-04-25_15h31.48.770,jersey_experiment_5_v0,2023.2.2,Win32,84.74576271,,,,,,,,,,,,,,,,358.3986,359.4453,359.4453,360.4808,return,0.2596,,22.13541667,,,,,,FBP-YG-91.png,0.37,1.2,27,0.25,0,29,29,26,1,,,,,,,,,,,,,,,,,,,,,,,,,,,,,,,,,,,,,,,,
,,,,,SPR24_095,21,female,2024-04-25_15h31.48.770,jersey_experiment_5_v0,2023.2.2,Win32,84.74576271,,,,,,,,,,,,,,,,360.481,361.5277,361.5277,362.4574,return,0.1944,,63.54166667,,,,,,FBP-PT-91.png,0.4,1.2,58,0.25,0,30,30,57,1,,,,,,,,,,,,,,,,,,,,,,,,,,,,,,,,,,,,,,,,
,,,,,SPR24_095,21,female,2024-04-25_15h31.48.770,jersey_experiment_5_v0,2023.2.2,Win32,84.74576271,,,,,,,,,,,,,,,,362.4577,363.5042,363.5042,364.8925,return,0.1452,,49.21875,,,,,,FBP-PT-81.png,0.4,1.2,53,0.25,0,31,31,52,1,,,,,,,,,,,,,,,,,,,,,,,,,,,,,,,,,,,,,,,,
,,,,,SPR24_095,21,female,2024-04-25_15h31.48.770,jersey_experiment_5_v0,2023.2.2,Win32,84.74576271,,,,,,,,,,,,,,,,364.8927,365.9396,365.9397,366.9632,return,0.2213,,27.86458333,,,,,,FBP-PT-91.png,0.35,1.2,56,0.25,0,32,32,55,1,,,,,,,,,,,,,,,,,,,,,,,,,,,,,,,,,,,,,,,,
,,,,,SPR24_095,21,female,2024-04-25_15h31.48.770,jersey_experiment_5_v0,2023.2.2,Win32,84.74576271,,,,,,,,,,,,,,,,366.9634,368.2573,368.2573,369.3398,return,0.2879,,25.91145833,,,,,,FBP-OG-17.png,0.35,1.2,1,0.5,0,33,33,0,1,,,,,,,,,,,,,,,,,,,,,,,,,,,,,,,,,,,,,,,,
,,,,,SPR24_095,21,female,2024-04-25_15h31.48.770,jersey_experiment_5_v0,2023.2.2,Win32,84.74576271,,,,,,,,,,,,,,,,369.34,370.3868,370.3868,377.246,return,5.5332,,72.65625,,,,,,FBP-YG-71.png,0.43,1.2,19,0.25,0,34,34,18,1,,,,,,,,,,,,,,,,,,,,,,,,,,,,,,,,,,,,,,,,
,,,,,SPR24_095,21,female,2024-04-25_15h31.48.770,jersey_experiment_5_v0,2023.2.2,Win32,84.74576271,,,,,,,,,,,,,,,,377.2461,378.54,378.5401,379.7285,return,0.3544,,46.61458333,,,,,,FBP-OG-19.png,0.37,1.2,12,0.5,0,35,35,11,1,,,,,,,,,,,,,,,,,,,,,,,,,,,,,,,,,,,,,,,,
,,,,,SPR24_095,21,female,2024-04-25_15h31.48.770,jersey_experiment_5_v0,2023.2.2,Win32,84.74576271,,,,,,,,,,,,,,,,379.7287,380.7755,380.7755,382.5286,return,0.306,,14.58333333,,,,,,FBP-PT-71.png,0.35,1.2,46,0.25,0,36,36,45,1,,,,,,,,,,,,,,,,,,,,,,,,,,,,,,,,,,,,,,,,
,,,,,SPR24_095,21,female,2024-04-25_15h31.48.770,jersey_experiment_5_v0,2023.2.2,Win32,84.74576271,,,,,,,,,,,,,,,,382.5288,383.8227,383.8228,384.9524,return,0.2562,,89.97395833,,,,,,FBP-RB-91.png,0.45,1.2,45,0.5,0,37,37,44,1,,,,,,,,,,,,,,,,,,,,,,,,,,,,,,,,,,,,,,,,
,,,,,SPR24_095,21,female,2024-04-25_15h31.48.770,jersey_experiment_5_v0,2023.2.2,Win32,84.74576271,,,,,,,,,,,,,,,,384.9526,385.9992,385.9993,387.3405,return,0.2034,,10.546875,,,,,,FBP-YG-71.png,0.35,1.2,16,0.25,0,38,38,15,1,,,,,,,,,,,,,,,,,,,,,,,,,,,,,,,,,,,,,,,,
,,,,,SPR24_095,21,female,2024-04-25_15h31.48.770,jersey_experiment_5_v0,2023.2.2,Win32,84.74576271,,,,,,,,,,,,,,,,387.3407,388.6346,388.6347,389.6936,return,0.3097,,29.296875,,,,,,FBP-OG-17.png,0.37,1.2,2,0.5,0,39,39,1,1,,,,,,,,,,,,,,,,,,,,,,,,,,,,,,,,,,,,,,,,
,,,,,SPR24_095,21,female,2024-04-25_15h31.48.770,jersey_experiment_5_v0,2023.2.2,Win32,84.74576271,,,,,,,,,,,,,,,,389.6938,390.9876,390.9876,394.3877,return,0.2825,,49.609375,,,,,,FBP-OG-17.png,0.4,1.2,3,0.5,0,40,40,2,1,,,,,,,,,,,,,,,,,,,,,,,,,,,,,,,,,,,,,,,,
,,,,,SPR24_095,21,female,2024-04-25_15h31.48.770,jersey_experiment_5_v0,2023.2.2,Win32,84.74576271,,,,,,,,,,,,,,,,394.388,395.6818,395.6819,396.8466,return,0.2145,,28.90625,,,,,,FBP-RB-91.png,0.35,1.2,41,0.5,0,41,41,40,1,,,,,,,,,,,,,,,,,,,,,,,,,,,,,,,,,,,,,,,,
,,,,,SPR24_095,21,female,2024-04-25_15h31.48.770,jersey_experiment_5_v0,2023.2.2,Win32,84.74576271,,,,,,,,,,,,,,,,396.8468,397.8937,397.8937,399.3291,return,0.2829,,94.140625,,,,,,FBP-YG-81.png,0.45,1.2,25,0.25,0,42,42,24,1,,,,,,,,,,,,,,,,,,,,,,,,,,,,,,,,,,,,,,,,
,,,,,SPR24_095,21,female,2024-04-25_15h31.48.770,jersey_experiment_5_v0,2023.2.2,Win32,84.74576271,,,,,,,,,,,,,,,,399.3292,400.6233,400.6233,402.5409,return,0.7667,,68.75,,,,,,FBP-RB-91.png,0.4,1.2,43,0.5,0,43,43,42,1,,,,,,,,,,,,,,,,,,,,,,,,,,,,,,,,,,,,,,,,
,,,,,SPR24_095,21,female,2024-04-25_15h31.48.770,jersey_experiment_5_v0,2023.2.2,Win32,84.74576271,,,,,,,,,,,,,,,,402.541,403.835,403.8351,404.988,return,0.2512,,63.28125,,,,,,FBP-RB-81.png,0.4,1.2,38,0.5,0,44,44,37,1,,,,,,,,,,,,,,,,,,,,,,,,,,,,,,,,,,,,,,,,
,,,,,SPR24_095,21,female,2024-04-25_15h31.48.770,jersey_experiment_5_v0,2023.2.2,Win32,84.74576271,,,,,,,,,,,,,,,,404.9882,406.0351,406.0351,407.6943,return,0.2854,,91.015625,,,,,,FBP-PT-71.png,0.43,1.2,49,0.25,0,45,45,48,1,,,,,,,,,,,,,,,,,,,,,,,,,,,,,,,,,,,,,,,,
,,,,,SPR24_095,21,female,2024-04-25_15h31.48.770,jersey_experiment_5_v0,2023.2.2,Win32,84.74576271,,,,,,,,,,,,,,,,407.6945,408.9882,408.9883,409.6943,return,0.2015,,68.22916667,,,,,,FBP-RB-71.png,0.4,1.2,33,0.5,0,46,46,32,1,,,,,,,,,,,,,,,,,,,,,,,,,,,,,,,,,,,,,,,,
,,,,,SPR24_095,21,female,2024-04-25_15h31.48.770,jersey_experiment_5_v0,2023.2.2,Win32,84.74576271,,,,,,,,,,,,,,,,409.6944,410.9884,410.9884,411.8118,return,0.2116,,82.68229167,,,,,,FBP-OG-19.png,0.43,1.2,14,0.5,0,47,47,13,1,,,,,,,,,,,,,,,,,,,,,,,,,,,,,,,,,,,,,,,,
,,,,,SPR24_095,21,female,2024-04-25_15h31.48.770,jersey_experiment_5_v0,2023.2.2,Win32,84.74576271,,,,,,,,,,,,,,,,411.8119,412.8592,412.8592,413.7412,return,0.1923,,91.66666667,,,,,,FBP-PT-81.png,0.45,1.2,55,0.25,0,48,48,54,1,,,,,,,,,,,,,,,,,,,,,,,,,,,,,,,,,,,,,,,,
,,,,,SPR24_095,21,female,2024-04-25_15h31.48.770,jersey_experiment_5_v0,2023.2.2,Win32,84.74576271,,,,,,,,,,,,,,,,413.7414,415.0356,415.0356,416.0826,return,0.1656,,69.27083333,,,,,,FBP-OG-17.png,0.43,1.2,4,0.5,0,49,49,3,1,,,,,,,,,,,,,,,,,,,,,,,,,,,,,,,,,,,,,,,,
,,,,,SPR24_095,21,female,2024-04-25_15h31.48.770,jersey_experiment_5_v0,2023.2.2,Win32,84.74576271,,,,,,,,,,,,,,,,416.0829,417.3767,417.3768,418.4002,return,0.2361,,36.71875,,,,,,FBP-RB-71.png,0.37,1.2,32,0.5,0,50,50,31,1,,,,,,,,,,,,,,,,,,,,,,,,,,,,,,,,,,,,,,,,
,,,,,SPR24_095,21,female,2024-04-25_15h31.48.770,jersey_experiment_5_v0,2023.2.2,Win32,84.74576271,,,,,,,,,,,,,,,,418.4005,419.4473,419.4474,420.5771,return,0.2581,,17.05729167,,,,,,FBP-YG-91.png,0.35,1.2,26,0.25,0,51,51,25,1,,,,,,,,,,,,,,,,,,,,,,,,,,,,,,,,,,,,,,,,
,,,,,SPR24_095,21,female,2024-04-25_15h31.48.770,jersey_experiment_5_v0,2023.2.2,Win32,84.74576271,,,,,,,,,,,,,,,,420.5772,421.8713,421.8714,422.8357,return,0.1398,,66.53645833,,,,,,FBP-RB-81.png,0.43,1.2,39,0.5,0,52,52,38,1,,,,,,,,,,,,,,,,,,,,,,,,,,,,,,,,,,,,,,,,
,,,,,SPR24_095,21,female,2024-04-25_15h31.48.770,jersey_experiment_5_v0,2023.2.2,Win32,84.74576271,,,,,,,,,,,,,,,,422.8359,423.8828,423.8828,425.4358,return,0.217,,37.63020833,,,,,,FBP-PT-71.png,0.37,1.2,47,0.25,0,53,53,46,1,,,,,,,,,,,,,,,,,,,,,,,,,,,,,,,,,,,,,,,,
,,,,,SPR24_095,21,female,2024-04-25_15h31.48.770,jersey_experiment_5_v0,2023.2.2,Win32,84.74576271,,,,,,,,,,,,,,,,425.436,426.73,426.73,427.789,return,0.2503,,23.30729167,,,,,,FBP-RB-71.png,0.35,1.2,31,0.5,0,54,54,30,1,,,,,,,,,,,,,,,,,,,,,,,,,,,,,,,,,,,,,,,,
,,,,,SPR24_095,21,female,2024-04-25_15h31.48.770,jersey_experiment_5_v0,2023.2.2,Win32,84.74576271,,,,,,,,,,,,,,,,427.7893,429.0832,429.0832,430.0007,return,0.2933,,72.39583333,,,,,,FBP-RB-71.png,0.43,1.2,34,0.5,0,55,55,33,1,,,,,,,,,,,,,,,,,,,,,,,,,,,,,,,,,,,,,,,,
,,,,,SPR24_095,21,female,2024-04-25_15h31.48.770,jersey_experiment_5_v0,2023.2.2,Win32,84.74576271,,,,,,,,,,,,,,,,430.0008,431.2949,431.2949,432.4007,return,0.1649,,8.463541667,,,,,,FBP-RB-81.png,0.35,1.2,36,0.5,0,56,56,35,1,,,,,,,,,,,,,,,,,,,,,,,,,,,,,,,,,,,,,,,,
,,,,,SPR24_095,21,female,2024-04-25_15h31.48.770,jersey_experiment_5_v0,2023.2.2,Win32,84.74576271,,,,,,,,,,,,,,,,432.4009,433.4477,433.4477,434.6715,return,0.1874,,68.22916667,,,,,,FBP-YG-71.png,0.4,1.2,18,0.25,0,57,57,17,1,,,,,,,,,,,,,,,,,,,,,,,,,,,,,,,,,,,,,,,,
,,,,,SPR24_095,21,female,2024-04-25_15h31.48.770,jersey_experiment_5_v0,2023.2.2,Win32,84.74576271,,,,,,,,,,,,,,,,434.6717,435.7185,435.7185,436.6598,return,0.1651,,85.67708333,,,,,,FBP-YG-91.png,0.43,1.2,29,0.25,0,58,58,28,1,,,,,,,,,,,,,,,,,,,,,,,,,,,,,,,,,,,,,,,,
,,,,,SPR24_095,21,female,2024-04-25_15h31.48.770,jersey_experiment_5_v0,2023.2.2,Win32,84.74576271,,,,,,,,,,,,,,,,436.6599,437.7069,437.7069,438.7187,return,0.1553,,91.796875,,,,,,FBP-PT-91.png,0.45,1.2,60,0.25,0,59,59,59,1,,,,,,,,,,,,,,,,,,,,,,,,,,,,,,,,,,,,,,,,
,,,,,SPR24_095,21,female,2024-04-25_15h31.48.770,jersey_experiment_5_v0,2023.2.2,Win32,84.74576271,,,,,,,,,,,,,,,,,,,,,,,,,,,,,,,,,,,,,,,438.7191,558.7144,,,,,,,,,,,,,,,,,,,,,,,,,,,,,,,,,,,,,,
,,,,,SPR24_095,21,female,2024-04-25_15h31.48.770,jersey_experiment_5_v0,2023.2.2,Win32,84.74576271,,,,,,,,,,,,,,,,,,,,,,,,,,,,,,,,,,,,,,,,,558.7144,562.8291,return,4.0965,,,,,,,,,,,,,,,,,,,,,,,,,,,,,,,,,,
,,,,,SPR24_095,21,female,2024-04-25_15h31.48.770,jersey_experiment_5_v0,2023.2.2,Win32,84.74576271,,,,,,,,,,,,,,,,562.8353,563.8911,563.8911,567.5617,return,2.0238,,60.80729167,,,,,,FBP-RB-19.png,0.45,1.2,45,0.25,,,,,,,,,,,,,0,0,0,44,1,,,,,,,,,,,,,,,,,,,,,,,,,,,,
,,,,,SPR24_095,21,female,2024-04-25_15h31.48.770,jersey_experiment_5_v0,2023.2.2,Win32,84.74576271,,,,,,,,,,,,,,,,567.5619,568.6055,568.6055,569.7265,return,0.2224,,55.20833333,,,,,,FBP-OG-91.png,0.43,1.2,14,0.25,,,,,,,,,,,,,0,1,1,13,1,,,,,,,,,,,,,,,,,,,,,,,,,,,,
,,,,,SPR24_095,21,female,2024-04-25_15h31.48.770,jersey_experiment_5_v0,2023.2.2,Win32,84.74576271,,,,,,,,,,,,,,,,569.7266,571.0207,571.0207,573.3632,return,1.8591,,25.26041667,,,,,,FBP-YG-19.png,0.37,1.2,27,0.5,,,,,,,,,,,,,0,2,2,26,1,,,,,,,,,,,,,,,,,,,,,,,,,,,,
,,,,,SPR24_095,21,female,2024-04-25_15h31.48.770,jersey_experiment_5_v0,2023.2.2,Win32,84.74576271,,,,,,,,,,,,,,,,573.3633,574.4056,574.4056,575.1622,return,0.1416,,23.17708333,,,,,,FBP-OG-91.png,0.37,1.2,12,0.25,,,,,,,,,,,,,0,3,3,11,1,,,,,,,,,,,,,,,,,,,,,,,,,,,,
,,,,,SPR24_095,21,female,2024-04-25_15h31.48.770,jersey_experiment_5_v0,2023.2.2,Win32,84.74576271,,,,,,,,,,,,,,,,575.1623,576.2102,576.2103,577.1387,return,0.2122,,28.515625,,,,,,FBP-RB-18.png,0.37,1.2,37,0.25,,,,,,,,,,,,,0,4,4,36,1,,,,,,,,,,,,,,,,,,,,,,,,,,,,
,,,,,SPR24_095,21,female,2024-04-25_15h31.48.770,jersey_experiment_5_v0,2023.2.2,Win32,84.74576271,,,,,,,,,,,,,,,,577.1389,578.1822,578.1822,579.2292,return,0.3913,,30.46875,,,,,,FBP-RB-17.png,0.37,1.2,32,0.25,,,,,,,,,,,,,0,5,5,31,1,,,,,,,,,,,,,,,,,,,,,,,,,,,,
,,,,,SPR24_095,21,female,2024-04-25_15h31.48.770,jersey_experiment_5_v0,2023.2.2,Win32,84.74576271,,,,,,,,,,,,,,,,579.2294,580.2765,580.2765,581.853,return,0.1678,,75.13020833,,,,,,FBP-RB-17.png,0.43,1.2,34,0.25,,,,,,,,,,,,,0,6,6,33,1,,,,,,,,,,,,,,,,,,,,,,,,,,,,
,,,,,SPR24_095,21,female,2024-04-25_15h31.48.770,jersey_experiment_5_v0,2023.2.2,Win32,84.74576271,,,,,,,,,,,,,,,,581.8531,583.147,583.147,584.4766,return,0.1564,,39.58333333,,,,,,FBP-YG-19.png,0.43,1.2,29,0.5,,,,,,,,,,,,,0,7,7,28,1,,,,,,,,,,,,,,,,,,,,,,,,,,,,
,,,,,SPR24_095,21,female,2024-04-25_15h31.48.770,jersey_experiment_5_v0,2023.2.2,Win32,84.74576271,,,,,,,,,,,,,,,,584.4768,585.7708,585.7709,586.611,return,0.178,,49.86979167,,,,,,FBP-PT-19.png,0.43,1.2,59,0.5,,,,,,,,,,,,,0,8,8,58,1,,,,,,,,,,,,,,,,,,,,,,,,,,,,
,,,,,SPR24_095,21,female,2024-04-25_15h31.48.770,jersey_experiment_5_v0,2023.2.2,Win32,84.74576271,,,,,,,,,,,,,,,,586.6112,587.9051,587.9052,588.7761,return,0.2489,,19.140625,,,,,,FBP-YG-17.png,0.35,1.2,16,0.5,,,,,,,,,,,,,0,9,9,15,1,,,,,,,,,,,,,,,,,,,,,,,,,,,,
,,,,,SPR24_095,21,female,2024-04-25_15h31.48.770,jersey_experiment_5_v0,2023.2.2,Win32,84.74576271,,,,,,,,,,,,,,,,588.7764,589.8212,589.8212,591.5627,return,0.1175,,42.31770833,,,,,,FBP-OG-71.png,0.37,1.2,2,0.25,,,,,,,,,,,,,0,10,10,1,1,,,,,,,,,,,,,,,,,,,,,,,,,,,,
,,,,,SPR24_095,21,female,2024-04-25_15h31.48.770,jersey_experiment_5_v0,2023.2.2,Win32,84.74576271,,,,,,,,,,,,,,,,591.5628,592.8568,592.8568,593.963,return,0.5284,,66.796875,,,,,,FBP-PT-17.png,0.45,1.2,50,0.5,,,,,,,,,,,,,0,11,11,49,1,,,,,,,,,,,,,,,,,,,,,,,,,,,,
,,,,,SPR24_095,21,female,2024-04-25_15h31.48.770,jersey_experiment_5_v0,2023.2.2,Win32,84.74576271,,,,,,,,,,,,,,,,593.9631,595.2566,595.2566,596.1357,return,0.16,,41.796875,,,,,,FBP-PT-17.png,0.4,1.2,48,0.5,,,,,,,,,,,,,0,12,12,47,1,,,,,,,,,,,,,,,,,,,,,,,,,,,,
,,,,,SPR24_095,21,female,2024-04-25_15h31.48.770,jersey_experiment_5_v0,2023.2.2,Win32,84.74576271,,,,,,,,,,,,,,,,596.136,597.4299,597.4299,598.3158,return,0.1754,,18.88020833,,,,,,FBP-PT-18.png,0.35,1.2,51,0.5,,,,,,,,,,,,,0,13,13,50,1,,,,,,,,,,,,,,,,,,,,,,,,,,,,
,,,,,SPR24_095,21,female,2024-04-25_15h31.48.770,jersey_experiment_5_v0,2023.2.2,Win32,84.74576271,,,,,,,,,,,,,,,,598.316,599.6183,599.6183,600.3948,return,0.1336,,4.817708333,,,,,,FBP-PT-19.png,0.35,1.2,56,0.5,,,,,,,,,,,,,0,14,14,55,1,,,,,,,,,,,,,,,,,,,,,,,,,,,,
,,,,,SPR24_095,21,female,2024-04-25_15h31.48.770,jersey_experiment_5_v0,2023.2.2,Win32,84.74576271,,,,,,,,,,,,,,,,600.3949,601.6891,601.6891,603.4587,return,1.2841,,5.208333333,,,,,,FBP-YG-18.png,0.35,1.2,21,0.5,,,,,,,,,,,,,0,15,15,20,1,,,,,,,,,,,,,,,,,,,,,,,,,,,,
,,,,,SPR24_095,21,female,2024-04-25_15h31.48.770,jersey_experiment_5_v0,2023.2.2,Win32,84.74576271,,,,,,,,,,,,,,,,603.4589,604.5009,604.5009,606.3299,return,0.6832,,13.80208333,,,,,,FBP-RB-19.png,0.37,1.2,42,0.25,,,,,,,,,,,,,0,16,16,41,1,,,,,,,,,,,,,,,,,,,,,,,,,,,,
,,,,,SPR24_095,21,female,2024-04-25_15h31.48.770,jersey_experiment_5_v0,2023.2.2,Win32,84.74576271,,,,,,,,,,,,,,,,606.33,607.3715,607.3716,608.9986,return,0.6122,,7.8125,,,,,,FBP-OG-81.png,0.37,1.2,7,0.25,,,,,,,,,,,,,0,17,17,6,1,,,,,,,,,,,,,,,,,,,,,,,,,,,,
,,,,,SPR24_095,21,female,2024-04-25_15h31.48.770,jersey_experiment_5_v0,2023.2.2,Win32,84.74576271,,,,,,,,,,,,,,,,608.9987,610.3058,610.3059,611.6107,return,0.1758,,83.72395833,,,,,,FBP-YG-17.png,0.4,1.2,18,0.5,,,,,,,,,,,,,0,18,18,17,1,,,,,,,,,,,,,,,,,,,,,,,,,,,,
,,,,,SPR24_095,21,female,2024-04-25_15h31.48.770,jersey_experiment_5_v0,2023.2.2,Win32,84.74576271,,,,,,,,,,,,,,,,611.6108,612.654,612.654,614.0105,return,0.5651,,33.33333333,,,,,,FBP-RB-18.png,0.35,1.2,36,0.25,,,,,,,,,,,,,0,19,19,35,1,,,,,,,,,,,,,,,,,,,,,,,,,,,,
,,,,,SPR24_095,21,female,2024-04-25_15h31.48.770,jersey_experiment_5_v0,2023.2.2,Win32,84.74576271,,,,,,,,,,,,,,,,614.0106,615.0583,615.0583,616.1751,return,0.2822,,86.84895833,,,,,,FBP-OG-91.png,0.45,1.2,15,0.25,,,,,,,,,,,,,0,20,20,14,1,,,,,,,,,,,,,,,,,,,,,,,,,,,,
,,,,,SPR24_095,21,female,2024-04-25_15h31.48.770,jersey_experiment_5_v0,2023.2.2,Win32,84.74576271,,,,,,,,,,,,,,,,616.1753,617.2189,617.2189,619.066,return,0.1697,,64.71354167,,,,,,FBP-RB-19.png,0.35,1.2,41,0.25,,,,,,,,,,,,,0,21,21,40,1,,,,,,,,,,,,,,,,,,,,,,,,,,,,
,,,,,SPR24_095,21,female,2024-04-25_15h31.48.770,jersey_experiment_5_v0,2023.2.2,Win32,84.74576271,,,,,,,,,,,,,,,,619.0662,620.3602,620.3602,621.1298,return,0.2253,,92.1875,,,,,,FBP-YG-19.png,0.45,1.2,30,0.5,,,,,,,,,,,,,0,22,22,29,1,,,,,,,,,,,,,,,,,,,,,,,,,,,,
,,,,,SPR24_095,21,female,2024-04-25_15h31.48.770,jersey_experiment_5_v0,2023.2.2,Win32,84.74576271,,,,,,,,,,,,,,,,621.1299,622.172,622.1721,623.1058,return,0.1882,,35.41666667,,,,,,FBP-RB-17.png,0.35,1.2,31,0.25,,,,,,,,,,,,,0,23,23,30,1,,,,,,,,,,,,,,,,,,,,,,,,,,,,
,,,,,SPR24_095,21,female,2024-04-25_15h31.48.770,jersey_experiment_5_v0,2023.2.2,Win32,84.74576271,,,,,,,,,,,,,,,,623.106,624.4009,624.4009,625.2006,return,0.2121,,81.25,,,,,,FBP-YG-17.png,0.45,1.2,20,0.5,,,,,,,,,,,,,0,24,24,19,1,,,,,,,,,,,,,,,,,,,,,,,,,,,,
,,,,,SPR24_095,21,female,2024-04-25_15h31.48.770,jersey_experiment_5_v0,2023.2.2,Win32,84.74576271,,,,,,,,,,,,,,,,625.2007,626.5047,626.5047,627.5638,return,0.1649,,36.06770833,,,,,,FBP-YG-18.png,0.37,1.2,22,0.5,,,,,,,,,,,,,0,25,25,21,1,,,,,,,,,,,,,,,,,,,,,,,,,,,,
,,,,,SPR24_095,21,female,2024-04-25_15h31.48.770,jersey_experiment_5_v0,2023.2.2,Win32,84.74576271,,,,,,,,,,,,,,,,627.5639,628.6076,628.6076,630.1722,return,0.191,,64.97395833,,,,,,FBP-OG-71.png,0.43,1.2,4,0.25,,,,,,,,,,,,,0,26,26,3,1,,,,,,,,,,,,,,,,,,,,,,,,,,,,
,,,,,SPR24_095,21,female,2024-04-25_15h31.48.770,jersey_experiment_5_v0,2023.2.2,Win32,84.74576271,,,,,,,,,,,,,,,,630.1725,631.4665,631.4666,632.024,return,0.1545,,66.66666667,,,,,,FBP-PT-18.png,0.4,1.2,53,0.5,,,,,,,,,,,,,0,27,27,52,1,,,,,,,,,,,,,,,,,,,,,,,,,,,,
,,,,,SPR24_095,21,female,2024-04-25_15h31.48.770,jersey_experiment_5_v0,2023.2.2,Win32,84.74576271,,,,,,,,,,,,,,,,632.0242,633.0665,633.0666,634.3488,return,0.202,,79.94791667,,,,,,FBP-RB-19.png,0.43,1.2,44,0.25,,,,,,,,,,,,,0,28,28,43,1,,,,,,,,,,,,,,,,,,,,,,,,,,,,
,,,,,SPR24_095,21,female,2024-04-25_15h31.48.770,jersey_experiment_5_v0,2023.2.2,Win32,84.74576271,,,,,,,,,,,,,,,,634.349,635.4009,635.4009,636.7773,return,0.3768,,81.38020833,,,,,,FBP-OG-71.png,0.45,1.2,5,0.25,,,,,,,,,,,,,0,29,29,4,1,,,,,,,,,,,,,,,,,,,,,,,,,,,,
,,,,,SPR24_095,21,female,2024-04-25_15h31.48.770,jersey_experiment_5_v0,2023.2.2,Win32,84.74576271,,,,,,,,,,,,,,,,636.7774,638.0818,638.0818,639.0702,return,0.2592,,20.57291667,,,,,,FBP-YG-19.png,0.35,1.2,26,0.5,,,,,,,,,,,,,0,30,30,25,1,,,,,,,,,,,,,,,,,,,,,,,,,,,,
,,,,,SPR24_095,21,female,2024-04-25_15h31.48.770,jersey_experiment_5_v0,2023.2.2,Win32,84.74576271,,,,,,,,,,,,,,,,639.0703,640.1184,640.1184,641.1174,return,0.2358,,5.729166667,,,,,,FBP-OG-71.png,0.35,1.2,1,0.25,,,,,,,,,,,,,0,31,31,0,1,,,,,,,,,,,,,,,,,,,,,,,,,,,,
,,,,,SPR24_095,21,female,2024-04-25_15h31.48.770,jersey_experiment_5_v0,2023.2.2,Win32,84.74576271,,,,,,,,,,,,,,,,641.1176,642.4115,642.4116,644.408,return,1.254,,30.859375,,,,,,FBP-PT-19.png,0.37,1.2,57,0.5,,,,,,,,,,,,,0,32,32,56,1,,,,,,,,,,,,,,,,,,,,,,,,,,,,
,,,,,SPR24_095,21,female,2024-04-25_15h31.48.770,jersey_experiment_5_v0,2023.2.2,Win32,84.74576271,,,,,,,,,,,,,,,,644.4082,645.7054,645.7054,646.9141,return,0.1989,,69.921875,,,,,,FBP-YG-18.png,0.43,1.2,24,0.5,,,,,,,,,,,,,0,33,33,23,1,,,,,,,,,,,,,,,,,,,,,,,,,,,,
,,,,,SPR24_095,21,female,2024-04-25_15h31.48.770,jersey_experiment_5_v0,2023.2.2,Win32,84.74576271,,,,,,,,,,,,,,,,646.9142,648.2131,648.2131,649.02,return,0.1912,,78.515625,,,,,,FBP-YG-18.png,0.45,1.2,25,0.5,,,,,,,,,,,,,0,34,34,24,1,,,,,,,,,,,,,,,,,,,,,,,,,,,,
,,,,,SPR24_095,21,female,2024-04-25_15h31.48.770,jersey_experiment_5_v0,2023.2.2,Win32,84.74576271,,,,,,,,,,,,,,,,649.0203,650.067,650.067,650.8955,return,0.2118,,89.0625,,,,,,FBP-RB-17.png,0.4,1.2,33,0.25,,,,,,,,,,,,,0,35,35,32,1,,,,,,,,,,,,,,,,,,,,,,,,,,,,
,,,,,SPR24_095,21,female,2024-04-25_15h31.48.770,jersey_experiment_5_v0,2023.2.2,Win32,84.74576271,,,,,,,,,,,,,,,,650.8957,651.9377,651.9378,653.7731,return,0.6376,,27.08333333,,,,,,FBP-OG-81.png,0.35,1.2,6,0.25,,,,,,,,,,,,,0,36,36,5,1,,,,,,,,,,,,,,,,,,,,,,,,,,,,
,,,,,SPR24_095,21,female,2024-04-25_15h31.48.770,jersey_experiment_5_v0,2023.2.2,Win32,84.74576271,,,,,,,,,,,,,,,,653.7733,654.8246,654.8247,655.6909,return,0.1803,,73.17708333,,,,,,FBP-RB-17.png,0.45,1.2,35,0.25,,,,,,,,,,,,,0,37,37,34,1,,,,,,,,,,,,,,,,,,,,,,,,,,,,
,,,,,SPR24_095,21,female,2024-04-25_15h31.48.770,jersey_experiment_5_v0,2023.2.2,Win32,84.74576271,,,,,,,,,,,,,,,,655.691,656.7413,656.7413,658.9263,return,1.3892,,58.46354167,,,,,,FBP-OG-81.png,0.45,1.2,10,0.25,,,,,,,,,,,,,0,38,38,9,1,,,,,,,,,,,,,,,,,,,,,,,,,,,,
,,,,,SPR24_095,21,female,2024-04-25_15h31.48.770,jersey_experiment_5_v0,2023.2.2,Win32,84.74576271,,,,,,,,,,,,,,,,658.9265,659.9733,659.9733,660.7969,return,0.1312,,63.54166667,,,,,,FBP-RB-18.png,0.4,1.2,38,0.25,,,,,,,,,,,,,0,39,39,37,1,,,,,,,,,,,,,,,,,,,,,,,,,,,,
,,,,,SPR24_095,21,female,2024-04-25_15h31.48.770,jersey_experiment_5_v0,2023.2.2,Win32,84.74576271,,,,,,,,,,,,,,,,660.797,662.0912,662.0912,663.3382,return,0.1474,,77.60416667,,,,,,FBP-PT-18.png,0.45,1.2,55,0.5,,,,,,,,,,,,,0,40,40,54,1,,,,,,,,,,,,,,,,,,,,,,,,,,,,
,,,,,SPR24_095,21,female,2024-04-25_15h31.48.770,jersey_experiment_5_v0,2023.2.2,Win32,84.74576271,,,,,,,,,,,,,,,,663.3385,664.6323,664.6323,665.5313,return,0.1409,,84.765625,,,,,,FBP-PT-19.png,0.45,1.2,60,0.5,,,,,,,,,,,,,0,41,41,59,1,,,,,,,,,,,,,,,,,,,,,,,,,,,,
,,,,,SPR24_095,21,female,2024-04-25_15h31.48.770,jersey_experiment_5_v0,2023.2.2,Win32,84.74576271,,,,,,,,,,,,,,,,665.5314,666.5734,666.5735,667.3197,return,0.165,,84.765625,,,,,,FBP-OG-81.png,0.43,1.2,9,0.25,,,,,,,,,,,,,0,42,42,8,1,,,,,,,,,,,,,,,,,,,,,,,,,,,,
,,,,,SPR24_095,21,female,2024-04-25_15h31.48.770,jersey_experiment_5_v0,2023.2.2,Win32,84.74576271,,,,,,,,,,,,,,,,667.3198,668.3619,668.362,669.4206,return,0.2038,,66.015625,,,,,,FBP-OG-71.png,0.4,1.2,3,0.25,,,,,,,,,,,,,0,43,43,2,1,,,,,,,,,,,,,,,,,,,,,,,,,,,,
,,,,,SPR24_095,21,female,2024-04-25_15h31.48.770,jersey_experiment_5_v0,2023.2.2,Win32,84.74576271,,,,,,,,,,,,,,,,669.4208,670.7182,670.7182,672.0443,return,0.1555,,62.890625,,,,,,FBP-PT-18.png,0.43,1.2,54,0.5,,,,,,,,,,,,,0,44,44,53,1,,,,,,,,,,,,,,,,,,,,,,,,,,,,
,,,,,SPR24_095,21,female,2024-04-25_15h31.48.770,jersey_experiment_5_v0,2023.2.2,Win32,84.74576271,,,,,,,,,,,,,,,,672.0445,673.0915,673.0915,675.4681,return,1.4987,,49.47916667,,,,,,FBP-OG-91.png,0.4,1.2,13,0.25,,,,,,,,,,,,,0,45,45,12,1,,,,,,,,,,,,,,,,,,,,,,,,,,,,
,,,,,SPR24_095,21,female,2024-04-25_15h31.48.770,jersey_experiment_5_v0,2023.2.2,Win32,84.74576271,,,,,,,,,,,,,,,,675.4684,676.7624,676.7624,677.3904,return,0.1414,,69.01041667,,,,,,FBP-PT-17.png,0.43,1.2,49,0.5,,,,,,,,,,,,,0,46,46,48,1,,,,,,,,,,,,,,,,,,,,,,,,,,,,
,,,,,SPR24_095,21,female,2024-04-25_15h31.48.770,jersey_experiment_5_v0,2023.2.2,Win32,84.74576271,,,,,,,,,,,,,,,,677.3906,678.695,678.695,680.083,return,0.353,,36.71875,,,,,,FBP-PT-19.png,0.4,1.2,58,0.5,,,,,,,,,,,,,0,47,47,57,1,,,,,,,,,,,,,,,,,,,,,,,,,,,,
,,,,,SPR24_095,21,female,2024-04-25_15h31.48.770,jersey_experiment_5_v0,2023.2.2,Win32,84.74576271,,,,,,,,,,,,,,,,680.0832,681.3859,681.3859,682.2618,return,0.1547,,19.27083333,,,,,,FBP-PT-17.png,0.35,1.2,46,0.5,,,,,,,,,,,,,0,48,48,45,1,,,,,,,,,,,,,,,,,,,,,,,,,,,,
,,,,,SPR24_095,21,female,2024-04-25_15h31.48.770,jersey_experiment_5_v0,2023.2.2,Win32,84.74576271,,,,,,,,,,,,,,,,682.2619,683.5658,683.5658,684.8801,return,0.8004,,17.70833333,,,,,,FBP-PT-18.png,0.37,1.2,52,0.5,,,,,,,,,,,,,0,49,49,51,1,,,,,,,,,,,,,,,,,,,,,,,,,,,,
,,,,,SPR24_095,21,female,2024-04-25_15h31.48.770,jersey_experiment_5_v0,2023.2.2,Win32,84.74576271,,,,,,,,,,,,,,,,684.8803,685.9271,685.9271,686.8367,return,0.1757,,18.61979167,,,,,,FBP-RB-19.png,0.4,1.2,43,0.25,,,,,,,,,,,,,0,50,50,42,1,,,,,,,,,,,,,,,,,,,,,,,,,,,,
,,,,,SPR24_095,21,female,2024-04-25_15h31.48.770,jersey_experiment_5_v0,2023.2.2,Win32,84.74576271,,,,,,,,,,,,,,,,686.8369,688.139,688.1391,689.1084,return,0.2251,,12.36979167,,,,,,FBP-YG-17.png,0.37,1.2,17,0.5,,,,,,,,,,,,,0,51,51,16,1,,,,,,,,,,,,,,,,,,,,,,,,,,,,
,,,,,SPR24_095,21,female,2024-04-25_15h31.48.770,jersey_experiment_5_v0,2023.2.2,Win32,84.74576271,,,,,,,,,,,,,,,,689.1086,690.1509,690.1509,691.4686,return,0.2608,,73.30729167,,,,,,FBP-RB-18.png,0.45,1.2,40,0.25,,,,,,,,,,,,,0,52,52,39,1,,,,,,,,,,,,,,,,,,,,,,,,,,,,
,,,,,SPR24_095,21,female,2024-04-25_15h31.48.770,jersey_experiment_5_v0,2023.2.2,Win32,84.74576271,,,,,,,,,,,,,,,,691.4686,692.5209,692.521,693.5325,return,0.1782,,33.203125,,,,,,FBP-OG-91.png,0.35,1.2,11,0.25,,,,,,,,,,,,,0,53,53,10,1,,,,,,,,,,,,,,,,,,,,,,,,,,,,
,,,,,SPR24_095,21,female,2024-04-25_15h31.48.770,jersey_experiment_5_v0,2023.2.2,Win32,84.74576271,,,,,,,,,,,,,,,,693.5326,694.5744,694.5744,696.1912,return,0.1885,,49.47916667,,,,,,FBP-OG-81.png,0.4,1.2,8,0.25,,,,,,,,,,,,,0,54,54,7,1,,,,,,,,,,,,,,,,,,,,,,,,,,,,
,,,,,SPR24_095,21,female,2024-04-25_15h31.48.770,jersey_experiment_5_v0,2023.2.2,Win32,84.74576271,,,,,,,,,,,,,,,,696.1913,697.4922,697.4923,698.3159,return,0.1339,,38.93229167,,,,,,FBP-PT-17.png,0.37,1.2,47,0.5,,,,,,,,,,,,,0,55,55,46,1,,,,,,,,,,,,,,,,,,,,,,,,,,,,
,,,,,SPR24_095,21,female,2024-04-25_15h31.48.770,jersey_experiment_5_v0,2023.2.2,Win32,84.74576271,,,,,,,,,,,,,,,,698.3161,699.6134,699.6134,700.6218,return,0.1565,,38.80208333,,,,,,FBP-YG-19.png,0.4,1.2,28,0.5,,,,,,,,,,,,,0,56,56,27,1,,,,,,,,,,,,,,,,,,,,,,,,,,,,
,,,,,SPR24_095,21,female,2024-04-25_15h31.48.770,jersey_experiment_5_v0,2023.2.2,Win32,84.74576271,,,,,,,,,,,,,,,,700.622,701.9192,701.9192,703.5196,return,0.129,,61.45833333,,,,,,FBP-YG-18.png,0.4,1.2,23,0.5,,,,,,,,,,,,,0,57,57,22,1,,,,,,,,,,,,,,,,,,,,,,,,,,,,
,,,,,SPR24_095,21,female,2024-04-25_15h31.48.770,jersey_experiment_5_v0,2023.2.2,Win32,84.74576271,,,,,,,,,,,,,,,,703.5197,704.5631,704.5632,705.4691,return,0.1666,,70.83333333,,,,,,FBP-RB-18.png,0.43,1.2,39,0.25,,,,,,,,,,,,,0,58,58,38,1,,,,,,,,,,,,,,,,,,,,,,,,,,,,
,,,,,SPR24_095,21,female,2024-04-25_15h31.48.770,jersey_experiment_5_v0,2023.2.2,Win32,84.74576271,,,,,,,,,,,,,,,,705.4693,706.7631,706.7632,707.5798,return,0.1781,,79.94791667,,,,,,FBP-YG-17.png,0.43,1.2,19,0.5,,,,,,,,,,,,,0,59,59,18,1,,,,,,,,,,,,,,,,,,,,,,,,,,,,
,,,,,SPR24_095,21,female,2024-04-25_15h31.48.770,jersey_experiment_5_v0,2023.2.2,Win32,84.74576271,,,,,,,,,,,,,,,,707.581,708.8739,708.8739,709.6376,return,0.1991,,26.43229167,,,,,,FBP-YG-91.png,0.37,1.2,27,0.5,,,,,,,,,,,,,,,,,,0,0,0,26,1,,,,,,,,,,,,,,,,,,,,,,,
,,,,,SPR24_095,21,female,2024-04-25_15h31.48.770,jersey_experiment_5_v0,2023.2.2,Win32,84.74576271,,,,,,,,,,,,,,,,709.6377,710.6858,710.6858,711.5634,return,0.1911,,60.9375,,,,,,FBP-OG-18.png,0.4,1.2,8,0.25,,,,,,,,,,,,,,,,,,0,1,1,7,1,,,,,,,,,,,,,,,,,,,,,,,
,,,,,SPR24_095,21,female,2024-04-25_15h31.48.770,jersey_experiment_5_v0,2023.2.2,Win32,84.74576271,,,,,,,,,,,,,,,,711.5637,712.6105,712.6105,713.7212,return,0.212,,74.47916667,,,,,,FBP-RB-71.png,0.45,1.2,35,0.25,,,,,,,,,,,,,,,,,,0,2,2,34,1,,,,,,,,,,,,,,,,,,,,,,,
,,,,,SPR24_095,21,female,2024-04-25_15h31.48.770,jersey_experiment_5_v0,2023.2.2,Win32,84.74576271,,,,,,,,,,,,,,,,713.7213,715.0157,715.0158,715.7753,return,0.1784,,38.671875,,,,,,FBP-PT-91.png,0.37,1.2,57,0.5,,,,,,,,,,,,,,,,,,0,3,3,56,1,,,,,,,,,,,,,,,,,,,,,,,
,,,,,SPR24_095,21,female,2024-04-25_15h31.48.770,jersey_experiment_5_v0,2023.2.2,Win32,84.74576271,,,,,,,,,,,,,,,,715.7755,717.0729,717.073,717.8388,return,0.1409,,47.91666667,,,,,,FBP-YG-71.png,0.4,1.2,18,0.5,,,,,,,,,,,,,,,,,,0,4,4,17,1,,,,,,,,,,,,,,,,,,,,,,,
,,,,,SPR24_095,21,female,2024-04-25_15h31.48.770,jersey_experiment_5_v0,2023.2.2,Win32,84.74576271,,,,,,,,,,,,,,,,717.8389,719.1402,719.1402,720.4108,return,0.1112,,64.71354167,,,,,,FBP-PT-91.png,0.43,1.2,59,0.5,,,,,,,,,,,,,,,,,,0,5,5,58,1,,,,,,,,,,,,,,,,,,,,,,,
,,,,,SPR24_095,21,female,2024-04-25_15h31.48.770,jersey_experiment_5_v0,2023.2.2,Win32,84.74576271,,,,,,,,,,,,,,,,720.4109,721.4623,721.4623,722.6579,return,0.1519,,69.140625,,,,,,FBP-RB-71.png,0.4,1.2,33,0.25,,,,,,,,,,,,,,,,,,0,6,6,32,1,,,,,,,,,,,,,,,,,,,,,,,
,,,,,SPR24_095,21,female,2024-04-25_15h31.48.770,jersey_experiment_5_v0,2023.2.2,Win32,84.74576271,,,,,,,,,,,,,,,,722.658,723.952,723.952,724.6698,return,0.1655,,88.28125,,,,,,FBP-PT-81.png,0.45,1.2,55,0.5,,,,,,,,,,,,,,,,,,0,7,7,54,1,,,,,,,,,,,,,,,,,,,,,,,
,,,,,SPR24_095,21,female,2024-04-25_15h31.48.770,jersey_experiment_5_v0,2023.2.2,Win32,84.74576271,,,,,,,,,,,,,,,,724.67,725.9676,725.9676,726.7521,return,0.1412,,28.64583333,,,,,,FBP-YG-91.png,0.35,1.2,26,0.5,,,,,,,,,,,,,,,,,,0,8,8,25,1,,,,,,,,,,,,,,,,,,,,,,,
,,,,,SPR24_095,21,female,2024-04-25_15h31.48.770,jersey_experiment_5_v0,2023.2.2,Win32,84.74576271,,,,,,,,,,,,,,,,726.7522,728.0516,728.0516,729.0816,return,0.2052,,42.70833333,,,,,,FBP-PT-71.png,0.4,1.2,48,0.5,,,,,,,,,,,,,,,,,,0,9,9,47,1,,,,,,,,,,,,,,,,,,,,,,,
,,,,,SPR24_095,21,female,2024-04-25_15h31.48.770,jersey_experiment_5_v0,2023.2.2,Win32,84.74576271,,,,,,,,,,,,,,,,729.0817,730.1287,730.1287,730.9924,return,0.1415,,67.96875,,,,,,FBP-RB-81.png,0.43,1.2,39,0.25,,,,,,,,,,,,,,,,,,0,10,10,38,1,,,,,,,,,,,,,,,,,,,,,,,
,,,,,SPR24_095,21,female,2024-04-25_15h31.48.770,jersey_experiment_5_v0,2023.2.2,Win32,84.74576271,,,,,,,,,,,,,,,,730.9925,732.0345,732.0346,732.8936,return,0.1542,,79.81770833,,,,,,FBP-OG-18.png,0.43,1.2,9,0.25,,,,,,,,,,,,,,,,,,0,11,11,8,1,,,,,,,,,,,,,,,,,,,,,,,
,,,,,SPR24_095,21,female,2024-04-25_15h31.48.770,jersey_experiment_5_v0,2023.2.2,Win32,84.74576271,,,,,,,,,,,,,,,,732.8938,733.9408,733.9408,734.7995,return,0.2123,,82.421875,,,,,,FBP-OG-18.png,0.45,1.2,10,0.25,,,,,,,,,,,,,,,,,,0,12,12,9,1,,,,,,,,,,,,,,,,,,,,,,,
,,,,,SPR24_095,21,female,2024-04-25_15h31.48.770,jersey_experiment_5_v0,2023.2.2,Win32,84.74576271,,,,,,,,,,,,,,,,734.7997,735.8501,735.8501,736.7289,return,0.1483,,54.55729167,,,,,,FBP-OG-17.png,0.4,1.2,3,0.25,,,,,,,,,,,,,,,,,,0,13,13,2,1,,,,,,,,,,,,,,,,,,,,,,,
,,,,,SPR24_095,21,female,2024-04-25_15h31.48.770,jersey_experiment_5_v0,2023.2.2,Win32,84.74576271,,,,,,,,,,,,,,,,736.7291,738.0233,738.0233,739.7691,return,1.1429,,52.99479167,,,,,,FBP-PT-81.png,0.4,1.2,53,0.5,,,,,,,,,,,,,,,,,,0,14,14,52,1,,,,,,,,,,,,,,,,,,,,,,,
,,,,,SPR24_095,21,female,2024-04-25_15h31.48.770,jersey_experiment_5_v0,2023.2.2,Win32,84.74576271,,,,,,,,,,,,,,,,739.7693,740.8113,740.8113,741.6618,return,0.1883,,41.796875,,,,,,FBP-RB-91.png,0.37,1.2,42,0.25,,,,,,,,,,,,,,,,,,0,15,15,41,1,,,,,,,,,,,,,,,,,,,,,,,
,,,,,SPR24_095,21,female,2024-04-25_15h31.48.770,jersey_experiment_5_v0,2023.2.2,Win32,84.74576271,,,,,,,,,,,,,,,,741.662,742.7055,742.7055,744.1458,return,0.3193,,42.578125,,,,,,FBP-OG-19.png,0.4,1.2,13,0.25,,,,,,,,,,,,,,,,,,0,16,16,12,1,,,,,,,,,,,,,,,,,,,,,,,
,,,,,SPR24_095,21,female,2024-04-25_15h31.48.770,jersey_experiment_5_v0,2023.2.2,Win32,84.74576271,,,,,,,,,,,,,,,,744.146,745.4399,745.4399,746.3762,return,0.1257,,67.96875,,,,,,FBP-YG-71.png,0.45,1.2,20,0.5,,,,,,,,,,,,,,,,,,0,17,17,19,1,,,,,,,,,,,,,,,,,,,,,,,
,,,,,SPR24_095,21,female,2024-04-25_15h31.48.770,jersey_experiment_5_v0,2023.2.2,Win32,84.74576271,,,,,,,,,,,,,,,,746.3764,747.4266,747.4266,748.2823,return,0.3223,,65.625,,,,,,FBP-OG-17.png,0.43,1.2,4,0.25,,,,,,,,,,,,,,,,,,0,18,18,3,1,,,,,,,,,,,,,,,,,,,,,,,
,,,,,SPR24_095,21,female,2024-04-25_15h31.48.770,jersey_experiment_5_v0,2023.2.2,Win32,84.74576271,,,,,,,,,,,,,,,,748.2824,749.5813,749.5813,750.3059,return,0.293,,38.671875,,,,,,FBP-PT-71.png,0.35,1.2,46,0.5,,,,,,,,,,,,,,,,,,0,19,19,45,1,,,,,,,,,,,,,,,,,,,,,,,
,,,,,SPR24_095,21,female,2024-04-25_15h31.48.770,jersey_experiment_5_v0,2023.2.2,Win32,84.74576271,,,,,,,,,,,,,,,,750.306,751.605,751.605,752.3918,return,0.1285,,31.25,,,,,,FBP-YG-81.png,0.35,1.2,21,0.5,,,,,,,,,,,,,,,,,,0,20,20,20,1,,,,,,,,,,,,,,,,,,,,,,,
,,,,,SPR24_095,21,female,2024-04-25_15h31.48.770,jersey_experiment_5_v0,2023.2.2,Win32,84.74576271,,,,,,,,,,,,,,,,752.392,753.4354,753.4354,754.3581,return,0.2017,,34.375,,,,,,FBP-RB-71.png,0.37,1.2,32,0.25,,,,,,,,,,,,,,,,,,0,21,21,31,1,,,,,,,,,,,,,,,,,,,,,,,
,,,,,SPR24_095,21,female,2024-04-25_15h31.48.770,jersey_experiment_5_v0,2023.2.2,Win32,84.74576271,,,,,,,,,,,,,,,,754.3583,755.6624,755.6624,757.0355,return,0.1326,,56.38020833,,,,,,FBP-YG-81.png,0.45,1.2,25,0.5,,,,,,,,,,,,,,,,,,0,22,22,24,1,,,,,,,,,,,,,,,,,,,,,,,
,,,,,SPR24_095,21,female,2024-04-25_15h31.48.770,jersey_experiment_5_v0,2023.2.2,Win32,84.74576271,,,,,,,,,,,,,,,,757.0357,758.0827,758.0827,759.2826,return,0.2492,,57.68229167,,,,,,FBP-RB-81.png,0.35,1.2,36,0.25,,,,,,,,,,,,,,,,,,0,23,23,35,1,,,,,,,,,,,,,,,,,,,,,,,
,,,,,SPR24_095,21,female,2024-04-25_15h31.48.770,jersey_experiment_5_v0,2023.2.2,Win32,84.74576271,,,,,,,,,,,,,,,,759.2828,760.3344,760.3344,762.0287,return,0.9179,,47.52604167,,,,,,FBP-OG-17.png,0.37,1.2,2,0.25,,,,,,,,,,,,,,,,,,0,24,24,1,1,,,,,,,,,,,,,,,,,,,,,,,
,,,,,SPR24_095,21,female,2024-04-25_15h31.48.770,jersey_experiment_5_v0,2023.2.2,Win32,84.74576271,,,,,,,,,,,,,,,,762.0288,763.3299,763.3299,764.3182,return,0.2359,,57.421875,,,,,,FBP-YG-91.png,0.43,1.2,29,0.5,,,,,,,,,,,,,,,,,,0,25,25,28,1,,,,,,,,,,,,,,,,,,,,,,,
,,,,,SPR24_095,21,female,2024-04-25_15h31.48.770,jersey_experiment_5_v0,2023.2.2,Win32,84.74576271,,,,,,,,,,,,,,,,764.3185,765.3652,765.3652,766.1889,return,0.1312,,66.796875,,,,,,FBP-OG-17.png,0.45,1.2,5,0.25,,,,,,,,,,,,,,,,,,0,26,26,4,1,,,,,,,,,,,,,,,,,,,,,,,
,,,,,SPR24_095,21,female,2024-04-25_15h31.48.770,jersey_experiment_5_v0,2023.2.2,Win32,84.74576271,,,,,,,,,,,,,,,,766.1891,767.236,767.236,768.3652,return,0.2132,,44.40104167,,,,,,FBP-RB-71.png,0.35,1.2,31,0.25,,,,,,,,,,,,,,,,,,0,27,27,30,1,,,,,,,,,,,,,,,,,,,,,,,
,,,,,SPR24_095,21,female,2024-04-25_15h31.48.770,jersey_experiment_5_v0,2023.2.2,Win32,84.74576271,,,,,,,,,,,,,,,,768.3653,769.6629,769.6629,771.7301,return,1.3652,,49.73958333,,,,,,FBP-YG-71.png,0.35,1.2,16,0.5,,,,,,,,,,,,,,,,,,0,28,28,15,1,,,,,,,,,,,,,,,,,,,,,,,
,,,,,SPR24_095,21,female,2024-04-25_15h31.48.770,jersey_experiment_5_v0,2023.2.2,Win32,84.74576271,,,,,,,,,,,,,,,,771.7304,773.0243,773.0243,773.6056,return,0.1546,,60.9375,,,,,,FBP-YG-71.png,0.43,1.2,19,0.5,,,,,,,,,,,,,,,,,,0,29,29,18,1,,,,,,,,,,,,,,,,,,,,,,,
,,,,,SPR24_095,21,female,2024-04-25_15h31.48.770,jersey_experiment_5_v0,2023.2.2,Win32,84.74576271,,,,,,,,,,,,,,,,773.6058,774.8996,774.8997,777.0412,return,1.1528,,49.609375,,,,,,FBP-PT-81.png,0.37,1.2,52,0.5,,,,,,,,,,,,,,,,,,0,30,30,51,1,,,,,,,,,,,,,,,,,,,,,,,
,,,,,SPR24_095,21,female,2024-04-25_15h31.48.770,jersey_experiment_5_v0,2023.2.2,Win32,84.74576271,,,,,,,,,,,,,,,,777.0413,778.0869,778.0869,781.8647,return,0.9883,,40.10416667,,,,,,FBP-OG-18.png,0.37,1.2,7,0.25,,,,,,,,,,,,,,,,,,0,31,31,6,1,,,,,,,,,,,,,,,,,,,,,,,
,,,,,SPR24_095,21,female,2024-04-25_15h31.48.770,jersey_experiment_5_v0,2023.2.2,Win32,84.74576271,,,,,,,,,,,,,,,,781.8649,783.1587,783.1588,784.0996,return,0.2351,,64.0625,,,,,,FBP-YG-81.png,0.43,1.2,24,0.5,,,,,,,,,,,,,,,,,,0,32,32,23,1,,,,,,,,,,,,,,,,,,,,,,,
,,,,,SPR24_095,21,female,2024-04-25_15h31.48.770,jersey_experiment_5_v0,2023.2.2,Win32,84.74576271,,,,,,,,,,,,,,,,784.0997,785.1424,785.1425,786.0129,return,0.19,,64.32291667,,,,,,FBP-RB-81.png,0.4,1.2,38,0.25,,,,,,,,,,,,,,,,,,0,33,33,37,1,,,,,,,,,,,,,,,,,,,,,,,
,,,,,SPR24_095,21,female,2024-04-25_15h31.48.770,jersey_experiment_5_v0,2023.2.2,Win32,84.74576271,,,,,,,,,,,,,,,,786.0132,787.0601,787.0602,787.9664,return,0.3196,,83.33333333,,,,,,FBP-RB-91.png,0.45,1.2,45,0.25,,,,,,,,,,,,,,,,,,0,34,34,44,1,,,,,,,,,,,,,,,,,,,,,,,
,,,,,SPR24_095,21,female,2024-04-25_15h31.48.770,jersey_experiment_5_v0,2023.2.2,Win32,84.74576271,,,,,,,,,,,,,,,,787.9666,789.0178,789.0178,789.9931,return,0.1282,,34.50520833,,,,,,FBP-RB-91.png,0.35,1.2,41,0.25,,,,,,,,,,,,,,,,,,0,35,35,40,1,,,,,,,,,,,,,,,,,,,,,,,
,,,,,SPR24_095,21,female,2024-04-25_15h31.48.770,jersey_experiment_5_v0,2023.2.2,Win32,84.74576271,,,,,,,,,,,,,,,,789.9932,791.2954,791.2955,792.83,return,0.0948,,54.6875,,,,,,FBP-PT-71.png,0.43,1.2,49,0.5,,,,,,,,,,,,,,,,,,0,36,36,48,1,,,,,,,,,,,,,,,,,,,,,,,
,,,,,SPR24_095,21,female,2024-04-25_15h31.48.770,jersey_experiment_5_v0,2023.2.2,Win32,84.74576271,,,,,,,,,,,,,,,,792.8302,794.1309,794.131,794.9004,return,0.2108,,57.421875,,,,,,FBP-PT-91.png,0.45,1.2,60,0.5,,,,,,,,,,,,,,,,,,0,37,37,59,1,,,,,,,,,,,,,,,,,,,,,,,
,,,,,SPR24_095,21,female,2024-04-25_15h31.48.770,jersey_experiment_5_v0,2023.2.2,Win32,84.74576271,,,,,,,,,,,,,,,,794.9006,796.2016,796.2016,800.7195,return,1.5297,,61.84895833,,,,,,FBP-YG-81.png,0.4,1.2,23,0.5,,,,,,,,,,,,,,,,,,0,38,38,22,1,,,,,,,,,,,,,,,,,,,,,,,
,,,,,SPR24_095,21,female,2024-04-25_15h31.48.770,jersey_experiment_5_v0,2023.2.2,Win32,84.74576271,,,,,,,,,,,,,,,,800.7197,802.017,802.017,802.6758,return,0.1648,,32.29166667,,,,,,FBP-PT-71.png,0.37,1.2,47,0.5,,,,,,,,,,,,,,,,,,0,39,39,46,1,,,,,,,,,,,,,,,,,,,,,,,
,,,,,SPR24_095,21,female,2024-04-25_15h31.48.770,jersey_experiment_5_v0,2023.2.2,Win32,84.74576271,,,,,,,,,,,,,,,,802.676,803.7242,803.7243,805.5831,return,0.3898,,42.1875,,,,,,FBP-OG-19.png,0.43,1.2,14,0.25,,,,,,,,,,,,,,,,,,0,40,40,13,1,,,,,,,,,,,,,,,,,,,,,,,
,,,,,SPR24_095,21,female,2024-04-25_15h31.48.770,jersey_experiment_5_v0,2023.2.2,Win32,84.74576271,,,,,,,,,,,,,,,,805.5832,806.8772,806.8773,807.7433,return,0.236,,31.77083333,,,,,,FBP-PT-81.png,0.35,1.2,51,0.5,,,,,,,,,,,,,,,,,,0,41,41,50,1,,,,,,,,,,,,,,,,,,,,,,,
,,,,,SPR24_095,21,female,2024-04-25_15h31.48.770,jersey_experiment_5_v0,2023.2.2,Win32,84.74576271,,,,,,,,,,,,,,,,807.7434,808.7904,808.7904,809.6139,return,0.1557,,23.56770833,,,,,,FBP-RB-81.png,0.37,1.2,37,0.25,,,,,,,,,,,,,,,,,,0,42,42,36,1,,,,,,,,,,,,,,,,,,,,,,,
,,,,,SPR24_095,21,female,2024-04-25_15h31.48.770,jersey_experiment_5_v0,2023.2.2,Win32,84.74576271,,,,,,,,,,,,,,,,809.614,810.6656,810.6657,811.6306,return,0.1884,,8.854166667,,,,,,FBP-OG-17.png,0.35,1.2,1,0.25,,,,,,,,,,,,,,,,,,0,43,43,0,1,,,,,,,,,,,,,,,,,,,,,,,
,,,,,SPR24_095,21,female,2024-04-25_15h31.48.770,jersey_experiment_5_v0,2023.2.2,Win32,84.74576271,,,,,,,,,,,,,,,,811.6308,812.6728,812.6729,813.641,return,0.1514,,12.23958333,,,,,,FBP-OG-19.png,0.37,1.2,12,0.25,,,,,,,,,,,,,,,,,,0,44,44,11,1,,,,,,,,,,,,,,,,,,,,,,,
,,,,,SPR24_095,21,female,2024-04-25_15h31.48.770,jersey_experiment_5_v0,2023.2.2,Win32,84.74576271,,,,,,,,,,,,,,,,813.6411,814.6846,814.6846,816.4778,return,0.6592,,75.78125,,,,,,FBP-RB-71.png,0.43,1.2,34,0.25,,,,,,,,,,,,,,,,,,0,45,45,33,1,,,,,,,,,,,,,,,,,,,,,,,
,,,,,SPR24_095,21,female,2024-04-25_15h31.48.770,jersey_experiment_5_v0,2023.2.2,Win32,84.74576271,,,,,,,,,,,,,,,,816.4779,817.5201,817.5201,818.3788,return,0.1227,,77.08333333,,,,,,FBP-RB-91.png,0.4,1.2,43,0.25,,,,,,,,,,,,,,,,,,0,46,46,42,1,,,,,,,,,,,,,,,,,,,,,,,
,,,,,SPR24_095,21,female,2024-04-25_15h31.48.770,jersey_experiment_5_v0,2023.2.2,Win32,84.74576271,,,,,,,,,,,,,,,,818.3791,819.6728,819.6729,821.0661,return,0.1649,,53.515625,,,,,,FBP-YG-81.png,0.37,1.2,22,0.5,,,,,,,,,,,,,,,,,,0,47,47,21,1,,,,,,,,,,,,,,,,,,,,,,,
,,,,,SPR24_095,21,female,2024-04-25_15h31.48.770,jersey_experiment_5_v0,2023.2.2,Win32,84.74576271,,,,,,,,,,,,,,,,821.0662,822.3672,822.3672,823.0261,return,0.1543,,40.36458333,,,,,,FBP-PT-91.png,0.35,1.2,56,0.5,,,,,,,,,,,,,,,,,,0,48,48,55,1,,,,,,,,,,,,,,,,,,,,,,,
,,,,,SPR24_095,21,female,2024-04-25_15h31.48.770,jersey_experiment_5_v0,2023.2.2,Win32,84.74576271,,,,,,,,,,,,,,,,823.0263,824.0731,824.0731,825.2732,return,0.1582,,75.65104167,,,,,,FBP-OG-19.png,0.45,1.2,15,0.25,,,,,,,,,,,,,,,,,,0,49,49,14,1,,,,,,,,,,,,,,,,,,,,,,,
,,,,,SPR24_095,21,female,2024-04-25_15h31.48.770,jersey_experiment_5_v0,2023.2.2,Win32,84.74576271,,,,,,,,,,,,,,,,825.2733,826.5673,826.5673,827.9437,return,0.208,,82.29166667,,,,,,FBP-PT-71.png,0.45,1.2,50,0.5,,,,,,,,,,,,,,,,,,0,50,50,49,1,,,,,,,,,,,,,,,,,,,,,,,
,,,,,SPR24_095,21,female,2024-04-25_15h31.48.770,jersey_experiment_5_v0,2023.2.2,Win32,84.74576271,,,,,,,,,,,,,,,,827.944,828.9909,828.9909,830.2735,return,0.3301,,91.14583333,,,,,,FBP-RB-81.png,0.45,1.2,40,0.25,,,,,,,,,,,,,,,,,,0,51,51,39,1,,,,,,,,,,,,,,,,,,,,,,,
,,,,,SPR24_095,21,female,2024-04-25_15h31.48.770,jersey_experiment_5_v0,2023.2.2,Win32,84.74576271,,,,,,,,,,,,,,,,830.2736,831.5676,831.5677,832.6029,return,0.1817,,36.97916667,,,,,,FBP-PT-91.png,0.4,1.2,58,0.5,,,,,,,,,,,,,,,,,,0,52,52,57,1,,,,,,,,,,,,,,,,,,,,,,,
,,,,,SPR24_095,21,female,2024-04-25_15h31.48.770,jersey_experiment_5_v0,2023.2.2,Win32,84.74576271,,,,,,,,,,,,,,,,832.6032,833.897,833.897,834.5963,return,0.1653,,67.1875,,,,,,FBP-YG-91.png,0.45,1.2,30,0.5,,,,,,,,,,,,,,,,,,0,53,53,29,1,,,,,,,,,,,,,,,,,,,,,,,
,,,,,SPR24_095,21,female,2024-04-25_15h31.48.770,jersey_experiment_5_v0,2023.2.2,Win32,84.74576271,,,,,,,,,,,,,,,,834.5964,835.6382,835.6382,836.6773,return,0.1418,,62.76041667,,,,,,FBP-RB-91.png,0.43,1.2,44,0.25,,,,,,,,,,,,,,,,,,0,54,54,43,1,,,,,,,,,,,,,,,,,,,,,,,
,,,,,SPR24_095,21,female,2024-04-25_15h31.48.770,jersey_experiment_5_v0,2023.2.2,Win32,84.74576271,,,,,,,,,,,,,,,,836.6775,837.9841,837.9842,839.2183,return,0.6461,,59.375,,,,,,FBP-YG-91.png,0.4,1.2,28,0.5,,,,,,,,,,,,,,,,,,0,55,55,27,1,,,,,,,,,,,,,,,,,,,,,,,
,,,,,SPR24_095,21,female,2024-04-25_15h31.48.770,jersey_experiment_5_v0,2023.2.2,Win32,84.74576271,,,,,,,,,,,,,,,,839.2185,840.2619,840.2619,841.4436,return,0.353,,34.50520833,,,,,,FBP-OG-18.png,0.35,1.2,6,0.25,,,,,,,,,,,,,,,,,,0,56,56,5,1,,,,,,,,,,,,,,,,,,,,,,,
,,,,,SPR24_095,21,female,2024-04-25_15h31.48.770,jersey_experiment_5_v0,2023.2.2,Win32,84.74576271,,,,,,,,,,,,,,,,841.4437,842.7446,842.7447,844.1444,return,0.1516,,38.02083333,,,,,,FBP-YG-71.png,0.37,1.2,17,0.5,,,,,,,,,,,,,,,,,,0,57,57,16,1,,,,,,,,,,,,,,,,,,,,,,,
,,,,,SPR24_095,21,female,2024-04-25_15h31.48.770,jersey_experiment_5_v0,2023.2.2,Win32,84.74576271,,,,,,,,,,,,,,,,844.1445,845.1915,845.1916,846.3478,return,0.6224,,25.52083333,,,,,,FBP-OG-19.png,0.35,1.2,11,0.25,,,,,,,,,,,,,,,,,,0,58,58,10,1,,,,,,,,,,,,,,,,,,,,,,,
,,,,,SPR24_095,21,female,2024-04-25_15h31.48.770,jersey_experiment_5_v0,2023.2.2,Win32,84.74576271,,,,,,,,,,,,,,,,846.3481,847.6423,847.6423,848.5731,return,0.1548,,70.57291667,,,,,,FBP-PT-81.png,0.43,1.2,54,0.5,,,,,,,,,,,,,,,,,,0,59,59,53,1,,,,,,,,,,,,,,,,,,,,,,,
,,,,,SPR24_095,21,female,2024-04-25_15h31.48.770,jersey_experiment_5_v0,2023.2.2,Win32,84.74576271,,,,,,,,,,,,,,,,,,,,,,,,,,,,,,,,,,,,,,,,,,,,,,,,,,,,,,,,848.5734,853.0391,return,4.4482,,,,,,,,,,,,,,,,,,,
,,,,,SPR24_095,21,female,2024-04-25_15h31.48.770,jersey_experiment_5_v0,2023.2.2,Win32,84.74576271,,,,,,,,,,,,,,,,,,,,,,,,,,,,,,,,,,,,,,,,,,,,,,,,,,,,,,,,,,,,,853.0392,859.0392,1,5.0599,return,0.9057,,,,,,,,,,,,
,,,,,SPR24_095,21,female,2024-04-25_15h31.48.770,jersey_experiment_5_v0,2023.2.2,Win32,84.74576271,,,,,,,,,,,,,,,,,,,,,,,,,,,,,,,,,,,,,,,,,,,,,,,,,,,,,,,,,,,,,,,,,,,,859.0393,912.8814,how color effects body size,right,39.6518,,,,,,
,,,,,SPR24_095,21,female,2024-04-25_15h31.48.770,jersey_experiment_5_v0,2023.2.2,Win32,84.74576271,,,,,,,,,,,,,,,,,,,,,,,,,,,,,,,,,,,,,,,,,,,,,,,,,,,,,,,,,,,,,,,,,,,,,,,,,,912.8815,917.4692,return,4.5775,