requirements.started,requirements.stopped,key_resp_3.keys,key_resp_3.rt,key_resp_3.duration,Subject ID,Age,Gender,date,expName,psychopyVersion,OS,frameRate,instructions1.started,instructions1.stopped,key_resp.keys,key_resp.rt,key_resp.duration,example.started,example.stopped,enter_2.keys,enter_2.rt,enter_2.duration,instructions2.started,instructions2.stopped,enter_3.keys,enter_3.rt,enter_3.duration,image.started,image.stopped,slider_2.started,slider_2.stopped,next.keys,next.rt,next.duration,slider.response,trial_block_1.thisRepN,trial_block_1.thisTrialN,trial_block_1.thisN,trial_block_1.thisIndex,trial_block_1.ran,Path,Width,Height,Index,Duration,trial_block_2.thisRepN,trial_block_2.thisTrialN,trial_block_2.thisN,trial_block_2.thisIndex,trial_block_2.ran,rest_break.started,rest_break.stopped,end_break.started,end_break.stopped,key_resp_5.keys,key_resp_5.rt,key_resp_5.duration,trial_block_3.thisRepN,trial_block_3.thisTrialN,trial_block_3.thisN,trial_block_3.thisIndex,trial_block_3.ran,trial_block_4.thisRepN,trial_block_4.thisTrialN,trial_block_4.thisN,trial_block_4.thisIndex,trial_block_4.ran,questions_intro.started,questions_intro.stopped,enter_12.keys,enter_12.rt,enter_12.duration,question2.started,question2.stopped,question_doingbest.response,question_doingbest.rt,enter_15.keys,enter_15.rt,enter_15.duration,pattern.started,pattern.stopped,pattern_2.text,enter_17.keys,enter_17.rt,enter_17.duration,thankyou.started,thankyou.stopped,enter_14.keys,enter_14.rt,enter_14.duration
0.0002,22.5024,return,22.4943,,SPR24_035,19,female,2024-04-11_09h28.10.766,jersey_experiment_5_v0,2023.2.2,Win32,84.74576271,,,,,,,,,,,,,,,,,,,,,,,,,,,,,,,,,,,,,,,,,,,,,,,,,,,,,,,,,,,,,,,,,,,,,,,,,,,,,,
,,,,,SPR24_035,19,female,2024-04-11_09h28.10.766,jersey_experiment_5_v0,2023.2.2,Win32,84.74576271,22.5025,31.0909,return,8.5683,,,,,,,,,,,,,,,,,,,,,,,,,,,,,,,,,,,,,,,,,,,,,,,,,,,,,,,,,,,,,,,,,,,,,,,,,,
,,,,,SPR24_035,19,female,2024-04-11_09h28.10.766,jersey_experiment_5_v0,2023.2.2,Win32,84.74576271,,,,,,31.091,35.9265,return,4.7954,,,,,,,,,,,,,,,,,,,,,,,,,,,,,,,,,,,,,,,,,,,,,,,,,,,,,,,,,,,,,,,,,,,,,
,,,,,SPR24_035,19,female,2024-04-11_09h28.10.766,jersey_experiment_5_v0,2023.2.2,Win32,84.74576271,,,,,,,,,,,35.9265,55.4917,return,19.5549,,,,,,,,,,,,,,,,,,,,,,,,,,,,,,,,,,,,,,,,,,,,,,,,,,,,,,,,,,,,,,,,
,,,,,SPR24_035,19,female,2024-04-11_09h28.10.766,jersey_experiment_5_v0,2023.2.2,Win32,84.74576271,,,,,,,,,,,,,,,,55.4986,56.5504,56.5506,59.9389,return,0.4399,,98.828125,0,0,0,23,1,FBP-YG-18.png,0.43,1.2,24,0.25,,,,,,,,,,,,,,,,,,,,,,,,,,,,,,,,,,,,,,,,,,,,,
,,,,,SPR24_035,19,female,2024-04-11_09h28.10.766,jersey_experiment_5_v0,2023.2.2,Win32,84.74576271,,,,,,,,,,,,,,,,59.9392,61.2328,61.2329,62.5506,return,0.2115,,75.91145833,0,1,1,35,1,FBP-RB-18.png,0.35,1.2,36,0.5,,,,,,,,,,,,,,,,,,,,,,,,,,,,,,,,,,,,,,,,,,,,,
,,,,,SPR24_035,19,female,2024-04-11_09h28.10.766,jersey_experiment_5_v0,2023.2.2,Win32,84.74576271,,,,,,,,,,,,,,,,62.5509,63.5976,63.5976,66.9509,return,1.7178,,75.78125,0,2,2,46,1,FBP-PT-17.png,0.37,1.2,47,0.25,,,,,,,,,,,,,,,,,,,,,,,,,,,,,,,,,,,,,,,,,,,,,
,,,,,SPR24_035,19,female,2024-04-11_09h28.10.766,jersey_experiment_5_v0,2023.2.2,Win32,84.74576271,,,,,,,,,,,,,,,,66.9511,68.2449,68.2449,74.5629,return,1.8636,,69.53125,0,3,3,0,1,FBP-OG-71.png,0.35,1.2,1,0.5,,,,,,,,,,,,,,,,,,,,,,,,,,,,,,,,,,,,,,,,,,,,,
,,,,,SPR24_035,19,female,2024-04-11_09h28.10.766,jersey_experiment_5_v0,2023.2.2,Win32,84.74576271,,,,,,,,,,,,,,,,74.5631,75.6099,75.6099,77.7158,return,0.5215,,97.65625,0,4,4,49,1,FBP-PT-17.png,0.45,1.2,50,0.25,,,,,,,,,,,,,,,,,,,,,,,,,,,,,,,,,,,,,,,,,,,,,
,,,,,SPR24_035,19,female,2024-04-11_09h28.10.766,jersey_experiment_5_v0,2023.2.2,Win32,84.74576271,,,,,,,,,,,,,,,,77.716,78.763,78.763,80.9042,return,0.4134,,86.58854167,0,5,5,19,1,FBP-YG-17.png,0.45,1.2,20,0.25,,,,,,,,,,,,,,,,,,,,,,,,,,,,,,,,,,,,,,,,,,,,,
,,,,,SPR24_035,19,female,2024-04-11_09h28.10.766,jersey_experiment_5_v0,2023.2.2,Win32,84.74576271,,,,,,,,,,,,,,,,80.9045,82.1984,82.1985,85.0337,return,0.8107,,77.60416667,0,6,6,33,1,FBP-RB-17.png,0.43,1.2,34,0.5,,,,,,,,,,,,,,,,,,,,,,,,,,,,,,,,,,,,,,,,,,,,,
,,,,,SPR24_035,19,female,2024-04-11_09h28.10.766,jersey_experiment_5_v0,2023.2.2,Win32,84.74576271,,,,,,,,,,,,,,,,85.034,86.0808,86.0808,88.3044,return,0.5485,,85.80729167,0,7,7,53,1,FBP-PT-18.png,0.43,1.2,54,0.25,,,,,,,,,,,,,,,,,,,,,,,,,,,,,,,,,,,,,,,,,,,,,
,,,,,SPR24_035,19,female,2024-04-11_09h28.10.766,jersey_experiment_5_v0,2023.2.2,Win32,84.74576271,,,,,,,,,,,,,,,,88.3047,89.3515,89.3515,91.3749,return,0.5249,,60.9375,0,8,8,26,1,FBP-YG-19.png,0.37,1.2,27,0.25,,,,,,,,,,,,,,,,,,,,,,,,,,,,,,,,,,,,,,,,,,,,,
,,,,,SPR24_035,19,female,2024-04-11_09h28.10.766,jersey_experiment_5_v0,2023.2.2,Win32,84.74576271,,,,,,,,,,,,,,,,91.3751,92.6692,92.6692,94.7987,return,0.7488,,71.22395833,0,9,9,42,1,FBP-RB-19.png,0.4,1.2,43,0.5,,,,,,,,,,,,,,,,,,,,,,,,,,,,,,,,,,,,,,,,,,,,,
,,,,,SPR24_035,19,female,2024-04-11_09h28.10.766,jersey_experiment_5_v0,2023.2.2,Win32,84.74576271,,,,,,,,,,,,,,,,94.7989,95.8459,95.8459,98.5635,return,1.2147,,72.00520833,0,10,10,52,1,FBP-PT-18.png,0.4,1.2,53,0.25,,,,,,,,,,,,,,,,,,,,,,,,,,,,,,,,,,,,,,,,,,,,,
,,,,,SPR24_035,19,female,2024-04-11_09h28.10.766,jersey_experiment_5_v0,2023.2.2,Win32,84.74576271,,,,,,,,,,,,,,,,98.5637,99.6107,99.6107,101.1048,return,0.5005,,73.046875,0,11,11,22,1,FBP-YG-18.png,0.4,1.2,23,0.25,,,,,,,,,,,,,,,,,,,,,,,,,,,,,,,,,,,,,,,,,,,,,
,,,,,SPR24_035,19,female,2024-04-11_09h28.10.766,jersey_experiment_5_v0,2023.2.2,Win32,84.74576271,,,,,,,,,,,,,,,,101.105,102.3989,102.399,103.7053,return,0.448,,96.09375,0,12,12,4,1,FBP-OG-71.png,0.45,1.2,5,0.5,,,,,,,,,,,,,,,,,,,,,,,,,,,,,,,,,,,,,,,,,,,,,
,,,,,SPR24_035,19,female,2024-04-11_09h28.10.766,jersey_experiment_5_v0,2023.2.2,Win32,84.74576271,,,,,,,,,,,,,,,,103.7055,104.752,104.7521,106.4697,return,0.4594,,48.56770833,0,13,13,50,1,FBP-PT-18.png,0.35,1.2,51,0.25,,,,,,,,,,,,,,,,,,,,,,,,,,,,,,,,,,,,,,,,,,,,,
,,,,,SPR24_035,19,female,2024-04-11_09h28.10.766,jersey_experiment_5_v0,2023.2.2,Win32,84.74576271,,,,,,,,,,,,,,,,106.4699,107.5168,107.5168,109.4935,return,0.3307,,98.69791667,0,14,14,24,1,FBP-YG-18.png,0.45,1.2,25,0.25,,,,,,,,,,,,,,,,,,,,,,,,,,,,,,,,,,,,,,,,,,,,,
,,,,,SPR24_035,19,female,2024-04-11_09h28.10.766,jersey_experiment_5_v0,2023.2.2,Win32,84.74576271,,,,,,,,,,,,,,,,109.4937,110.7876,110.7876,112.8699,return,0.6134,,57.03125,0,15,15,41,1,FBP-RB-19.png,0.37,1.2,42,0.5,,,,,,,,,,,,,,,,,,,,,,,,,,,,,,,,,,,,,,,,,,,,,
,,,,,SPR24_035,19,female,2024-04-11_09h28.10.766,jersey_experiment_5_v0,2023.2.2,Win32,84.74576271,,,,,,,,,,,,,,,,112.87,114.1641,114.1642,117.1052,return,0.3214,,62.109375,0,16,16,31,1,FBP-RB-17.png,0.37,1.2,32,0.5,,,,,,,,,,,,,,,,,,,,,,,,,,,,,,,,,,,,,,,,,,,,,
,,,,,SPR24_035,19,female,2024-04-11_09h28.10.766,jersey_experiment_5_v0,2023.2.2,Win32,84.74576271,,,,,,,,,,,,,,,,117.1054,118.3993,118.3995,120.1998,return,0.6727,,88.54166667,0,17,17,38,1,FBP-RB-18.png,0.43,1.2,39,0.5,,,,,,,,,,,,,,,,,,,,,,,,,,,,,,,,,,,,,,,,,,,,,
,,,,,SPR24_035,19,female,2024-04-11_09h28.10.766,jersey_experiment_5_v0,2023.2.2,Win32,84.74576271,,,,,,,,,,,,,,,,120.2001,121.2466,121.2467,123.5997,return,0.3607,,79.94791667,0,18,18,17,1,FBP-YG-17.png,0.4,1.2,18,0.25,,,,,,,,,,,,,,,,,,,,,,,,,,,,,,,,,,,,,,,,,,,,,
,,,,,SPR24_035,19,female,2024-04-11_09h28.10.766,jersey_experiment_5_v0,2023.2.2,Win32,84.74576271,,,,,,,,,,,,,,,,123.6,124.8937,124.8937,126.1646,return,0.3796,,95.05208333,0,19,19,13,1,FBP-OG-91.png,0.43,1.2,14,0.5,,,,,,,,,,,,,,,,,,,,,,,,,,,,,,,,,,,,,,,,,,,,,
,,,,,SPR24_035,19,female,2024-04-11_09h28.10.766,jersey_experiment_5_v0,2023.2.2,Win32,84.74576271,,,,,,,,,,,,,,,,126.1648,127.2116,127.2117,129.2235,return,0.3399,,39.19270833,0,20,20,15,1,FBP-YG-17.png,0.35,1.2,16,0.25,,,,,,,,,,,,,,,,,,,,,,,,,,,,,,,,,,,,,,,,,,,,,
,,,,,SPR24_035,19,female,2024-04-11_09h28.10.766,jersey_experiment_5_v0,2023.2.2,Win32,84.74576271,,,,,,,,,,,,,,,,129.2237,130.5175,130.5175,133.0235,return,0.3117,,47.91666667,0,21,21,11,1,FBP-OG-91.png,0.37,1.2,12,0.5,,,,,,,,,,,,,,,,,,,,,,,,,,,,,,,,,,,,,,,,,,,,,
,,,,,SPR24_035,19,female,2024-04-11_09h28.10.766,jersey_experiment_5_v0,2023.2.2,Win32,84.74576271,,,,,,,,,,,,,,,,133.0238,134.3177,134.3177,136.3295,return,0.246,,37.36979167,0,22,22,40,1,FBP-RB-19.png,0.35,1.2,41,0.5,,,,,,,,,,,,,,,,,,,,,,,,,,,,,,,,,,,,,,,,,,,,,
,,,,,SPR24_035,19,female,2024-04-11_09h28.10.766,jersey_experiment_5_v0,2023.2.2,Win32,84.74576271,,,,,,,,,,,,,,,,136.3297,137.6237,137.6238,138.9651,return,0.5306,,98.17708333,0,23,23,44,1,FBP-RB-19.png,0.45,1.2,45,0.5,,,,,,,,,,,,,,,,,,,,,,,,,,,,,,,,,,,,,,,,,,,,,
,,,,,SPR24_035,19,female,2024-04-11_09h28.10.766,jersey_experiment_5_v0,2023.2.2,Win32,84.74576271,,,,,,,,,,,,,,,,138.9653,140.259,140.2591,144.0711,return,2.3302,,59.375,0,24,24,5,1,FBP-OG-81.png,0.35,1.2,6,0.5,,,,,,,,,,,,,,,,,,,,,,,,,,,,,,,,,,,,,,,,,,,,,
,,,,,SPR24_035,19,female,2024-04-11_09h28.10.766,jersey_experiment_5_v0,2023.2.2,Win32,84.74576271,,,,,,,,,,,,,,,,144.0712,145.3649,145.365,147.0594,return,0.4039,,51.82291667,0,25,25,36,1,FBP-RB-18.png,0.37,1.2,37,0.5,,,,,,,,,,,,,,,,,,,,,,,,,,,,,,,,,,,,,,,,,,,,,
,,,,,SPR24_035,19,female,2024-04-11_09h28.10.766,jersey_experiment_5_v0,2023.2.2,Win32,84.74576271,,,,,,,,,,,,,,,,147.0595,148.3534,148.3535,150.0241,return,0.2116,,69.140625,0,26,26,6,1,FBP-OG-81.png,0.37,1.2,7,0.5,,,,,,,,,,,,,,,,,,,,,,,,,,,,,,,,,,,,,,,,,,,,,
,,,,,SPR24_035,19,female,2024-04-11_09h28.10.766,jersey_experiment_5_v0,2023.2.2,Win32,84.74576271,,,,,,,,,,,,,,,,150.0243,151.3181,151.3182,152.8008,return,0.4072,,96.484375,0,27,27,14,1,FBP-OG-91.png,0.45,1.2,15,0.5,,,,,,,,,,,,,,,,,,,,,,,,,,,,,,,,,,,,,,,,,,,,,
,,,,,SPR24_035,19,female,2024-04-11_09h28.10.766,jersey_experiment_5_v0,2023.2.2,Win32,84.74576271,,,,,,,,,,,,,,,,152.801,154.0948,154.0948,155.4246,return,0.372,,95.96354167,0,28,28,43,1,FBP-RB-19.png,0.43,1.2,44,0.5,,,,,,,,,,,,,,,,,,,,,,,,,,,,,,,,,,,,,,,,,,,,,
,,,,,SPR24_035,19,female,2024-04-11_09h28.10.766,jersey_experiment_5_v0,2023.2.2,Win32,84.74576271,,,,,,,,,,,,,,,,155.4247,156.7186,156.7186,158.4363,return,0.4954,,99.21875,0,29,29,34,1,FBP-RB-17.png,0.45,1.2,35,0.5,,,,,,,,,,,,,,,,,,,,,,,,,,,,,,,,,,,,,,,,,,,,,
,,,,,SPR24_035,19,female,2024-04-11_09h28.10.766,jersey_experiment_5_v0,2023.2.2,Win32,84.74576271,,,,,,,,,,,,,,,,158.4364,159.4833,159.4833,160.8246,return,0.2589,,97.13541667,0,30,30,28,1,FBP-YG-19.png,0.43,1.2,29,0.25,,,,,,,,,,,,,,,,,,,,,,,,,,,,,,,,,,,,,,,,,,,,,
,,,,,SPR24_035,19,female,2024-04-11_09h28.10.766,jersey_experiment_5_v0,2023.2.2,Win32,84.74576271,,,,,,,,,,,,,,,,160.8249,162.1186,162.1187,163.4247,return,0.2643,,92.578125,0,31,31,8,1,FBP-OG-81.png,0.43,1.2,9,0.5,,,,,,,,,,,,,,,,,,,,,,,,,,,,,,,,,,,,,,,,,,,,,
,,,,,SPR24_035,19,female,2024-04-11_09h28.10.766,jersey_experiment_5_v0,2023.2.2,Win32,84.74576271,,,,,,,,,,,,,,,,163.4249,164.7188,164.7188,167.1425,return,0.3299,,37.109375,0,32,32,30,1,FBP-RB-17.png,0.35,1.2,31,0.5,,,,,,,,,,,,,,,,,,,,,,,,,,,,,,,,,,,,,,,,,,,,,
,,,,,SPR24_035,19,female,2024-04-11_09h28.10.766,jersey_experiment_5_v0,2023.2.2,Win32,84.74576271,,,,,,,,,,,,,,,,167.1427,168.1895,168.1895,169.9427,return,0.2485,,48.30729167,0,33,33,51,1,FBP-PT-18.png,0.37,1.2,52,0.25,,,,,,,,,,,,,,,,,,,,,,,,,,,,,,,,,,,,,,,,,,,,,
,,,,,SPR24_035,19,female,2024-04-11_09h28.10.766,jersey_experiment_5_v0,2023.2.2,Win32,84.74576271,,,,,,,,,,,,,,,,169.9428,171.2366,171.2366,172.5425,return,0.3147,,97.91666667,0,34,34,39,1,FBP-RB-18.png,0.45,1.2,40,0.5,,,,,,,,,,,,,,,,,,,,,,,,,,,,,,,,,,,,,,,,,,,,,
,,,,,SPR24_035,19,female,2024-04-11_09h28.10.766,jersey_experiment_5_v0,2023.2.2,Win32,84.74576271,,,,,,,,,,,,,,,,172.5428,173.8366,173.8368,174.8369,return,0.1552,,76.171875,0,35,35,12,1,FBP-OG-91.png,0.4,1.2,13,0.5,,,,,,,,,,,,,,,,,,,,,,,,,,,,,,,,,,,,,,,,,,,,,
,,,,,SPR24_035,19,female,2024-04-11_09h28.10.766,jersey_experiment_5_v0,2023.2.2,Win32,84.74576271,,,,,,,,,,,,,,,,174.8371,176.131,176.1311,177.3665,return,0.2462,,29.81770833,0,36,36,10,1,FBP-OG-91.png,0.35,1.2,11,0.5,,,,,,,,,,,,,,,,,,,,,,,,,,,,,,,,,,,,,,,,,,,,,
,,,,,SPR24_035,19,female,2024-04-11_09h28.10.766,jersey_experiment_5_v0,2023.2.2,Win32,84.74576271,,,,,,,,,,,,,,,,177.3667,178.6604,178.6604,180.4957,return,0.2193,,75.26041667,0,37,37,3,1,FBP-OG-71.png,0.43,1.2,4,0.5,,,,,,,,,,,,,,,,,,,,,,,,,,,,,,,,,,,,,,,,,,,,,
,,,,,SPR24_035,19,female,2024-04-11_09h28.10.766,jersey_experiment_5_v0,2023.2.2,Win32,84.74576271,,,,,,,,,,,,,,,,180.4959,181.5429,181.5429,183.2491,return,0.1948,,52.99479167,0,38,38,16,1,FBP-YG-17.png,0.37,1.2,17,0.25,,,,,,,,,,,,,,,,,,,,,,,,,,,,,,,,,,,,,,,,,,,,,
,,,,,SPR24_035,19,female,2024-04-11_09h28.10.766,jersey_experiment_5_v0,2023.2.2,Win32,84.74576271,,,,,,,,,,,,,,,,183.2494,184.2959,184.2959,185.9431,return,0.4848,,73.95833333,0,39,39,47,1,FBP-PT-17.png,0.4,1.2,48,0.25,,,,,,,,,,,,,,,,,,,,,,,,,,,,,,,,,,,,,,,,,,,,,
,,,,,SPR24_035,19,female,2024-04-11_09h28.10.766,jersey_experiment_5_v0,2023.2.2,Win32,84.74576271,,,,,,,,,,,,,,,,185.9433,186.99,186.99,188.2491,return,0.1796,,73.95833333,0,40,40,56,1,FBP-PT-19.png,0.37,1.2,57,0.25,,,,,,,,,,,,,,,,,,,,,,,,,,,,,,,,,,,,,,,,,,,,,
,,,,,SPR24_035,19,female,2024-04-11_09h28.10.766,jersey_experiment_5_v0,2023.2.2,Win32,84.74576271,,,,,,,,,,,,,,,,188.2493,189.2961,189.2962,190.5317,return,0.2604,,97.65625,0,41,41,48,1,FBP-PT-17.png,0.43,1.2,49,0.25,,,,,,,,,,,,,,,,,,,,,,,,,,,,,,,,,,,,,,,,,,,,,
,,,,,SPR24_035,19,female,2024-04-11_09h28.10.766,jersey_experiment_5_v0,2023.2.2,Win32,84.74576271,,,,,,,,,,,,,,,,190.5319,191.5784,191.5785,192.6729,return,0.1125,,50.13020833,0,42,42,45,1,FBP-PT-17.png,0.35,1.2,46,0.25,,,,,,,,,,,,,,,,,,,,,,,,,,,,,,,,,,,,,,,,,,,,,
,,,,,SPR24_035,19,female,2024-04-11_09h28.10.766,jersey_experiment_5_v0,2023.2.2,Win32,84.74576271,,,,,,,,,,,,,,,,192.6732,193.7197,193.7198,195.6021,return,0.2271,,99.86979167,0,43,43,54,1,FBP-PT-18.png,0.45,1.2,55,0.25,,,,,,,,,,,,,,,,,,,,,,,,,,,,,,,,,,,,,,,,,,,,,
,,,,,SPR24_035,19,female,2024-04-11_09h28.10.766,jersey_experiment_5_v0,2023.2.2,Win32,84.74576271,,,,,,,,,,,,,,,,195.6024,196.6492,196.6492,197.6492,return,0.1575,,90.88541667,0,44,44,18,1,FBP-YG-17.png,0.43,1.2,19,0.25,,,,,,,,,,,,,,,,,,,,,,,,,,,,,,,,,,,,,,,,,,,,,
,,,,,SPR24_035,19,female,2024-04-11_09h28.10.766,jersey_experiment_5_v0,2023.2.2,Win32,84.74576271,,,,,,,,,,,,,,,,197.6495,198.6963,198.6963,199.8611,return,0.1301,,88.80208333,0,45,45,27,1,FBP-YG-19.png,0.4,1.2,28,0.25,,,,,,,,,,,,,,,,,,,,,,,,,,,,,,,,,,,,,,,,,,,,,
,,,,,SPR24_035,19,female,2024-04-11_09h28.10.766,jersey_experiment_5_v0,2023.2.2,Win32,84.74576271,,,,,,,,,,,,,,,,199.8614,200.9083,200.9083,203.826,return,1.5572,,82.55208333,0,46,46,57,1,FBP-PT-19.png,0.4,1.2,58,0.25,,,,,,,,,,,,,,,,,,,,,,,,,,,,,,,,,,,,,,,,,,,,,
,,,,,SPR24_035,19,female,2024-04-11_09h28.10.766,jersey_experiment_5_v0,2023.2.2,Win32,84.74576271,,,,,,,,,,,,,,,,203.8263,204.873,204.873,206.0261,return,0.2825,,98.30729167,0,47,47,29,1,FBP-YG-19.png,0.45,1.2,30,0.25,,,,,,,,,,,,,,,,,,,,,,,,,,,,,,,,,,,,,,,,,,,,,
,,,,,SPR24_035,19,female,2024-04-11_09h28.10.766,jersey_experiment_5_v0,2023.2.2,Win32,84.74576271,,,,,,,,,,,,,,,,206.0263,207.3202,207.3203,208.3205,return,0.1227,,76.82291667,0,48,48,37,1,FBP-RB-18.png,0.4,1.2,38,0.5,,,,,,,,,,,,,,,,,,,,,,,,,,,,,,,,,,,,,,,,,,,,,
,,,,,SPR24_035,19,female,2024-04-11_09h28.10.766,jersey_experiment_5_v0,2023.2.2,Win32,84.74576271,,,,,,,,,,,,,,,,208.3207,209.6146,209.6146,211.3439,return,0.1582,,58.85416667,0,49,49,1,1,FBP-OG-71.png,0.37,1.2,2,0.5,,,,,,,,,,,,,,,,,,,,,,,,,,,,,,,,,,,,,,,,,,,,,
,,,,,SPR24_035,19,female,2024-04-11_09h28.10.766,jersey_experiment_5_v0,2023.2.2,Win32,84.74576271,,,,,,,,,,,,,,,,211.3442,212.3911,212.3911,213.8501,return,0.084,,47.265625,0,50,50,25,1,FBP-YG-19.png,0.35,1.2,26,0.25,,,,,,,,,,,,,,,,,,,,,,,,,,,,,,,,,,,,,,,,,,,,,
,,,,,SPR24_035,19,female,2024-04-11_09h28.10.766,jersey_experiment_5_v0,2023.2.2,Win32,84.74576271,,,,,,,,,,,,,,,,213.8505,215.1441,215.1441,216.6146,return,0.1418,,66.796875,0,51,51,7,1,FBP-OG-81.png,0.4,1.2,8,0.5,,,,,,,,,,,,,,,,,,,,,,,,,,,,,,,,,,,,,,,,,,,,,
,,,,,SPR24_035,19,female,2024-04-11_09h28.10.766,jersey_experiment_5_v0,2023.2.2,Win32,84.74576271,,,,,,,,,,,,,,,,216.6148,217.9088,217.9088,219.0971,return,0.1412,,72.265625,0,52,52,32,1,FBP-RB-17.png,0.4,1.2,33,0.5,,,,,,,,,,,,,,,,,,,,,,,,,,,,,,,,,,,,,,,,,,,,,
,,,,,SPR24_035,19,female,2024-04-11_09h28.10.766,jersey_experiment_5_v0,2023.2.2,Win32,84.74576271,,,,,,,,,,,,,,,,219.0973,220.1441,220.1441,221.2854,return,0.155,,87.890625,0,53,53,58,1,FBP-PT-19.png,0.43,1.2,59,0.25,,,,,,,,,,,,,,,,,,,,,,,,,,,,,,,,,,,,,,,,,,,,,
,,,,,SPR24_035,19,female,2024-04-11_09h28.10.766,jersey_experiment_5_v0,2023.2.2,Win32,84.74576271,,,,,,,,,,,,,,,,221.2856,222.3324,222.3325,223.921,return,0.0522,,38.54166667,0,54,54,55,1,FBP-PT-19.png,0.35,1.2,56,0.25,,,,,,,,,,,,,,,,,,,,,,,,,,,,,,,,,,,,,,,,,,,,,
,,,,,SPR24_035,19,female,2024-04-11_09h28.10.766,jersey_experiment_5_v0,2023.2.2,Win32,84.74576271,,,,,,,,,,,,,,,,223.9213,224.9678,224.9679,226.1914,return,0.149,,98.30729167,0,55,55,59,1,FBP-PT-19.png,0.45,1.2,60,0.25,,,,,,,,,,,,,,,,,,,,,,,,,,,,,,,,,,,,,,,,,,,,,
,,,,,SPR24_035,19,female,2024-04-11_09h28.10.766,jersey_experiment_5_v0,2023.2.2,Win32,84.74576271,,,,,,,,,,,,,,,,226.1917,227.4855,227.4856,228.874,return,0.2452,,99.86979167,0,56,56,9,1,FBP-OG-81.png,0.45,1.2,10,0.5,,,,,,,,,,,,,,,,,,,,,,,,,,,,,,,,,,,,,,,,,,,,,
,,,,,SPR24_035,19,female,2024-04-11_09h28.10.766,jersey_experiment_5_v0,2023.2.2,Win32,84.74576271,,,,,,,,,,,,,,,,228.8744,230.168,230.168,231.474,return,0.0749,,74.73958333,0,57,57,2,1,FBP-OG-71.png,0.4,1.2,3,0.5,,,,,,,,,,,,,,,,,,,,,,,,,,,,,,,,,,,,,,,,,,,,,
,,,,,SPR24_035,19,female,2024-04-11_09h28.10.766,jersey_experiment_5_v0,2023.2.2,Win32,84.74576271,,,,,,,,,,,,,,,,231.4742,232.521,232.5211,233.3329,return,0.1658,,74.73958333,0,58,58,21,1,FBP-YG-18.png,0.37,1.2,22,0.25,,,,,,,,,,,,,,,,,,,,,,,,,,,,,,,,,,,,,,,,,,,,,
,,,,,SPR24_035,19,female,2024-04-11_09h28.10.766,jersey_experiment_5_v0,2023.2.2,Win32,84.74576271,,,,,,,,,,,,,,,,233.3332,234.3799,234.3799,236.2273,return,0.1435,,34.63541667,0,59,59,20,1,FBP-YG-18.png,0.35,1.2,21,0.25,,,,,,,,,,,,,,,,,,,,,,,,,,,,,,,,,,,,,,,,,,,,,
,,,,,SPR24_035,19,female,2024-04-11_09h28.10.766,jersey_experiment_5_v0,2023.2.2,Win32,84.74576271,,,,,,,,,,,,,,,,236.2289,237.2742,237.2742,240.545,return,1.5357,,100,,,,,,FBP-YG-91.png,0.45,1.2,30,0.25,0,0,0,29,1,,,,,,,,,,,,,,,,,,,,,,,,,,,,,,,,,,,,,,,,
,,,,,SPR24_035,19,female,2024-04-11_09h28.10.766,jersey_experiment_5_v0,2023.2.2,Win32,84.74576271,,,,,,,,,,,,,,,,240.5455,241.592,241.5921,243.651,return,0.8376,,87.890625,,,,,,FBP-YG-81.png,0.4,1.2,23,0.25,0,1,1,22,1,,,,,,,,,,,,,,,,,,,,,,,,,,,,,,,,,,,,,,,,
,,,,,SPR24_035,19,female,2024-04-11_09h28.10.766,jersey_experiment_5_v0,2023.2.2,Win32,84.74576271,,,,,,,,,,,,,,,,243.6513,244.698,244.698,247.4393,return,0.2775,,98.95833333,,,,,,FBP-YG-91.png,0.43,1.2,29,0.25,0,2,2,28,1,,,,,,,,,,,,,,,,,,,,,,,,,,,,,,,,,,,,,,,,
,,,,,SPR24_035,19,female,2024-04-11_09h28.10.766,jersey_experiment_5_v0,2023.2.2,Win32,84.74576271,,,,,,,,,,,,,,,,247.4396,248.4865,248.4865,250.016,return,0.4425,,98.4375,,,,,,FBP-YG-91.png,0.4,1.2,28,0.25,0,3,3,27,1,,,,,,,,,,,,,,,,,,,,,,,,,,,,,,,,,,,,,,,,
,,,,,SPR24_035,19,female,2024-04-11_09h28.10.766,jersey_experiment_5_v0,2023.2.2,Win32,84.74576271,,,,,,,,,,,,,,,,250.0161,251.0629,251.0629,253.8279,return,1.1922,,37.63020833,,,,,,FBP-PT-81.png,0.35,1.2,51,0.25,0,4,4,50,1,,,,,,,,,,,,,,,,,,,,,,,,,,,,,,,,,,,,,,,,
,,,,,SPR24_035,19,female,2024-04-11_09h28.10.766,jersey_experiment_5_v0,2023.2.2,Win32,84.74576271,,,,,,,,,,,,,,,,253.8281,254.8748,254.8748,256.8162,return,0.3249,,99.21875,,,,,,FBP-PT-81.png,0.45,1.2,55,0.25,0,5,5,54,1,,,,,,,,,,,,,,,,,,,,,,,,,,,,,,,,,,,,,,,,
,,,,,SPR24_035,19,female,2024-04-11_09h28.10.766,jersey_experiment_5_v0,2023.2.2,Win32,84.74576271,,,,,,,,,,,,,,,,256.8164,258.1102,258.1103,259.8162,return,0.1651,,99.609375,,,,,,FBP-OG-17.png,0.45,1.2,5,0.5,0,6,6,4,1,,,,,,,,,,,,,,,,,,,,,,,,,,,,,,,,,,,,,,,,
,,,,,SPR24_035,19,female,2024-04-11_09h28.10.766,jersey_experiment_5_v0,2023.2.2,Win32,84.74576271,,,,,,,,,,,,,,,,259.8164,260.8632,260.8632,262.593,return,0.1478,,34.24479167,,,,,,FBP-YG-81.png,0.35,1.2,21,0.25,0,7,7,20,1,,,,,,,,,,,,,,,,,,,,,,,,,,,,,,,,,,,,,,,,
,,,,,SPR24_035,19,female,2024-04-11_09h28.10.766,jersey_experiment_5_v0,2023.2.2,Win32,84.74576271,,,,,,,,,,,,,,,,262.5931,263.6398,263.6399,265.2402,return,0.1309,,42.1875,,,,,,FBP-PT-81.png,0.4,1.2,53,0.25,0,8,8,52,1,,,,,,,,,,,,,,,,,,,,,,,,,,,,,,,,,,,,,,,,
,,,,,SPR24_035,19,female,2024-04-11_09h28.10.766,jersey_experiment_5_v0,2023.2.2,Win32,84.74576271,,,,,,,,,,,,,,,,265.2404,266.534,266.534,268.3459,return,0.1899,,50.91145833,,,,,,FBP-RB-91.png,0.37,1.2,42,0.5,0,9,9,41,1,,,,,,,,,,,,,,,,,,,,,,,,,,,,,,,,,,,,,,,,
,,,,,SPR24_035,19,female,2024-04-11_09h28.10.766,jersey_experiment_5_v0,2023.2.2,Win32,84.74576271,,,,,,,,,,,,,,,,268.3462,269.64,269.6401,270.6285,return,0.0955,,25.65104167,,,,,,FBP-RB-91.png,0.35,1.2,41,0.5,0,10,10,40,1,,,,,,,,,,,,,,,,,,,,,,,,,,,,,,,,,,,,,,,,
,,,,,SPR24_035,19,female,2024-04-11_09h28.10.766,jersey_experiment_5_v0,2023.2.2,Win32,84.74576271,,,,,,,,,,,,,,,,270.6288,271.9225,271.9225,274.3697,return,1.3118,,77.34375,,,,,,FBP-OG-18.png,0.43,1.2,9,0.5,0,11,11,8,1,,,,,,,,,,,,,,,,,,,,,,,,,,,,,,,,,,,,,,,,
,,,,,SPR24_035,19,female,2024-04-11_09h28.10.766,jersey_experiment_5_v0,2023.2.2,Win32,84.74576271,,,,,,,,,,,,,,,,274.37,275.6639,275.6639,277.7462,return,0.7347,,100,,,,,,FBP-RB-81.png,0.43,1.2,39,0.5,0,12,12,38,1,,,,,,,,,,,,,,,,,,,,,,,,,,,,,,,,,,,,,,,,
,,,,,SPR24_035,19,female,2024-04-11_09h28.10.766,jersey_experiment_5_v0,2023.2.2,Win32,84.74576271,,,,,,,,,,,,,,,,277.7464,278.7933,278.7933,280.911,return,0.3965,,75.390625,,,,,,FBP-YG-71.png,0.37,1.2,17,0.25,0,13,13,16,1,,,,,,,,,,,,,,,,,,,,,,,,,,,,,,,,,,,,,,,,
,,,,,SPR24_035,19,female,2024-04-11_09h28.10.766,jersey_experiment_5_v0,2023.2.2,Win32,84.74576271,,,,,,,,,,,,,,,,280.9113,281.958,281.9581,283.0171,return,0.1179,,46.35416667,,,,,,FBP-PT-71.png,0.35,1.2,46,0.25,0,14,14,45,1,,,,,,,,,,,,,,,,,,,,,,,,,,,,,,,,,,,,,,,,
,,,,,SPR24_035,19,female,2024-04-11_09h28.10.766,jersey_experiment_5_v0,2023.2.2,Win32,84.74576271,,,,,,,,,,,,,,,,283.0173,284.0641,284.0641,285.9701,return,0.2291,,99.86979167,,,,,,FBP-YG-71.png,0.43,1.2,19,0.25,0,15,15,18,1,,,,,,,,,,,,,,,,,,,,,,,,,,,,,,,,,,,,,,,,
,,,,,SPR24_035,19,female,2024-04-11_09h28.10.766,jersey_experiment_5_v0,2023.2.2,Win32,84.74576271,,,,,,,,,,,,,,,,285.9703,287.2642,287.2642,288.4172,return,0.099,,73.69791667,,,,,,FBP-OG-17.png,0.4,1.2,3,0.5,0,16,16,2,1,,,,,,,,,,,,,,,,,,,,,,,,,,,,,,,,,,,,,,,,
,,,,,SPR24_035,19,female,2024-04-11_09h28.10.766,jersey_experiment_5_v0,2023.2.2,Win32,84.74576271,,,,,,,,,,,,,,,,288.4175,289.7112,289.7113,290.8526,return,0.1438,,99.34895833,,,,,,FBP-OG-17.png,0.43,1.2,4,0.5,0,17,17,3,1,,,,,,,,,,,,,,,,,,,,,,,,,,,,,,,,,,,,,,,,
,,,,,SPR24_035,19,female,2024-04-11_09h28.10.766,jersey_experiment_5_v0,2023.2.2,Win32,84.74576271,,,,,,,,,,,,,,,,290.8529,292.1468,292.1468,294.0883,return,0.1884,,73.17708333,,,,,,FBP-OG-17.png,0.37,1.2,2,0.5,0,18,18,1,1,,,,,,,,,,,,,,,,,,,,,,,,,,,,,,,,,,,,,,,,
,,,,,SPR24_035,19,female,2024-04-11_09h28.10.766,jersey_experiment_5_v0,2023.2.2,Win32,84.74576271,,,,,,,,,,,,,,,,294.0885,295.1353,295.1353,296.8526,return,0.0733,,73.17708333,,,,,,FBP-PT-81.png,0.37,1.2,52,0.25,0,19,19,51,1,,,,,,,,,,,,,,,,,,,,,,,,,,,,,,,,,,,,,,,,
,,,,,SPR24_035,19,female,2024-04-11_09h28.10.766,jersey_experiment_5_v0,2023.2.2,Win32,84.74576271,,,,,,,,,,,,,,,,296.8529,298.1469,298.1469,299.4882,return,0.1721,,99.47916667,,,,,,FBP-OG-18.png,0.45,1.2,10,0.5,0,20,20,9,1,,,,,,,,,,,,,,,,,,,,,,,,,,,,,,,,,,,,,,,,
,,,,,SPR24_035,19,female,2024-04-11_09h28.10.766,jersey_experiment_5_v0,2023.2.2,Win32,84.74576271,,,,,,,,,,,,,,,,299.4884,300.7823,300.7823,301.8765,return,0.1791,,99.21875,,,,,,FBP-RB-71.png,0.43,1.2,34,0.5,0,21,21,33,1,,,,,,,,,,,,,,,,,,,,,,,,,,,,,,,,,,,,,,,,
,,,,,SPR24_035,19,female,2024-04-11_09h28.10.766,jersey_experiment_5_v0,2023.2.2,Win32,84.74576271,,,,,,,,,,,,,,,,301.8767,302.9235,302.9235,304.1118,return,0.0897,,72.00520833,,,,,,FBP-PT-71.png,0.4,1.2,48,0.25,0,22,22,47,1,,,,,,,,,,,,,,,,,,,,,,,,,,,,,,,,,,,,,,,,
,,,,,SPR24_035,19,female,2024-04-11_09h28.10.766,jersey_experiment_5_v0,2023.2.2,Win32,84.74576271,,,,,,,,,,,,,,,,304.1121,305.406,305.4061,306.5119,return,0.0894,,92.05729167,,,,,,FBP-OG-19.png,0.45,1.2,15,0.5,0,23,23,14,1,,,,,,,,,,,,,,,,,,,,,,,,,,,,,,,,,,,,,,,,
,,,,,SPR24_035,19,female,2024-04-11_09h28.10.766,jersey_experiment_5_v0,2023.2.2,Win32,84.74576271,,,,,,,,,,,,,,,,306.5122,307.559,307.5591,310.1593,return,0.1718,,49.73958333,,,,,,FBP-YG-91.png,0.35,1.2,26,0.25,0,24,24,25,1,,,,,,,,,,,,,,,,,,,,,,,,,,,,,,,,,,,,,,,,
,,,,,SPR24_035,19,female,2024-04-11_09h28.10.766,jersey_experiment_5_v0,2023.2.2,Win32,84.74576271,,,,,,,,,,,,,,,,310.1595,311.2062,311.2063,313.5358,return,0.1489,,84.89583333,,,,,,FBP-PT-91.png,0.4,1.2,58,0.25,0,25,25,57,1,,,,,,,,,,,,,,,,,,,,,,,,,,,,,,,,,,,,,,,,
,,,,,SPR24_035,19,female,2024-04-11_09h28.10.766,jersey_experiment_5_v0,2023.2.2,Win32,84.74576271,,,,,,,,,,,,,,,,313.536,314.5828,314.5828,315.9122,return,0.622,,99.73958333,,,,,,FBP-PT-91.png,0.43,1.2,59,0.25,0,26,26,58,1,,,,,,,,,,,,,,,,,,,,,,,,,,,,,,,,,,,,,,,,
,,,,,SPR24_035,19,female,2024-04-11_09h28.10.766,jersey_experiment_5_v0,2023.2.2,Win32,84.74576271,,,,,,,,,,,,,,,,315.9125,316.9593,316.9594,319.3006,return,0.1205,,71.61458333,,,,,,FBP-PT-91.png,0.35,1.2,56,0.25,0,27,27,55,1,,,,,,,,,,,,,,,,,,,,,,,,,,,,,,,,,,,,,,,,
,,,,,SPR24_035,19,female,2024-04-11_09h28.10.766,jersey_experiment_5_v0,2023.2.2,Win32,84.74576271,,,,,,,,,,,,,,,,319.3009,320.3477,320.3478,321.9831,return,0.0888,,99.21875,,,,,,FBP-PT-71.png,0.45,1.2,50,0.25,0,28,28,49,1,,,,,,,,,,,,,,,,,,,,,,,,,,,,,,,,,,,,,,,,
,,,,,SPR24_035,19,female,2024-04-11_09h28.10.766,jersey_experiment_5_v0,2023.2.2,Win32,84.74576271,,,,,,,,,,,,,,,,321.9834,323.2772,323.2772,324.9834,return,0.1887,,45.83333333,,,,,,FBP-OG-18.png,0.35,1.2,6,0.5,0,29,29,5,1,,,,,,,,,,,,,,,,,,,,,,,,,,,,,,,,,,,,,,,,
,,,,,SPR24_035,19,female,2024-04-11_09h28.10.766,jersey_experiment_5_v0,2023.2.2,Win32,84.74576271,,,,,,,,,,,,,,,,324.9837,326.2772,326.2772,327.4305,return,0.1665,,47.265625,,,,,,FBP-OG-18.png,0.37,1.2,7,0.5,0,30,30,6,1,,,,,,,,,,,,,,,,,,,,,,,,,,,,,,,,,,,,,,,,
,,,,,SPR24_035,19,female,2024-04-11_09h28.10.766,jersey_experiment_5_v0,2023.2.2,Win32,84.74576271,,,,,,,,,,,,,,,,327.4308,328.7245,328.7245,329.8776,return,0.1406,,99.86979167,,,,,,FBP-RB-71.png,0.45,1.2,35,0.5,0,31,31,34,1,,,,,,,,,,,,,,,,,,,,,,,,,,,,,,,,,,,,,,,,
,,,,,SPR24_035,19,female,2024-04-11_09h28.10.766,jersey_experiment_5_v0,2023.2.2,Win32,84.74576271,,,,,,,,,,,,,,,,329.8778,330.9246,330.9246,331.5834,return,0.1257,,99.34895833,,,,,,FBP-YG-71.png,0.45,1.2,20,0.25,0,32,32,19,1,,,,,,,,,,,,,,,,,,,,,,,,,,,,,,,,,,,,,,,,
,,,,,SPR24_035,19,female,2024-04-11_09h28.10.766,jersey_experiment_5_v0,2023.2.2,Win32,84.74576271,,,,,,,,,,,,,,,,331.5837,332.6305,332.6305,333.9247,return,0.085,,85.67708333,,,,,,FBP-YG-71.png,0.4,1.2,18,0.25,0,33,33,17,1,,,,,,,,,,,,,,,,,,,,,,,,,,,,,,,,,,,,,,,,
,,,,,SPR24_035,19,female,2024-04-11_09h28.10.766,jersey_experiment_5_v0,2023.2.2,Win32,84.74576271,,,,,,,,,,,,,,,,333.9248,335.2188,335.2189,335.8542,return,0.1006,,85.546875,,,,,,FBP-RB-71.png,0.4,1.2,33,0.5,0,34,34,32,1,,,,,,,,,,,,,,,,,,,,,,,,,,,,,,,,,,,,,,,,
,,,,,SPR24_035,19,female,2024-04-11_09h28.10.766,jersey_experiment_5_v0,2023.2.2,Win32,84.74576271,,,,,,,,,,,,,,,,335.8544,336.9011,336.9012,337.9365,return,0.1477,,99.47916667,,,,,,FBP-PT-71.png,0.43,1.2,49,0.25,0,35,35,48,1,,,,,,,,,,,,,,,,,,,,,,,,,,,,,,,,,,,,,,,,
,,,,,SPR24_035,19,female,2024-04-11_09h28.10.766,jersey_experiment_5_v0,2023.2.2,Win32,84.74576271,,,,,,,,,,,,,,,,337.9367,338.9836,338.9837,339.6073,return,0.1654,,98.828125,,,,,,FBP-PT-91.png,0.45,1.2,60,0.25,0,36,36,59,1,,,,,,,,,,,,,,,,,,,,,,,,,,,,,,,,,,,,,,,,
,,,,,SPR24_035,19,female,2024-04-11_09h28.10.766,jersey_experiment_5_v0,2023.2.2,Win32,84.74576271,,,,,,,,,,,,,,,,339.6075,340.9014,340.9014,342.278,return,0.1079,,52.47395833,,,,,,FBP-OG-17.png,0.35,1.2,1,0.5,0,37,37,0,1,,,,,,,,,,,,,,,,,,,,,,,,,,,,,,,,,,,,,,,,
,,,,,SPR24_035,19,female,2024-04-11_09h28.10.766,jersey_experiment_5_v0,2023.2.2,Win32,84.74576271,,,,,,,,,,,,,,,,342.2783,343.325,343.325,345.2664,return,0.1437,,72.00520833,,,,,,FBP-PT-91.png,0.37,1.2,57,0.25,0,38,38,56,1,,,,,,,,,,,,,,,,,,,,,,,,,,,,,,,,,,,,,,,,
,,,,,SPR24_035,19,female,2024-04-11_09h28.10.766,jersey_experiment_5_v0,2023.2.2,Win32,84.74576271,,,,,,,,,,,,,,,,345.2667,346.5605,346.5605,347.3839,return,0.048,,99.21875,,,,,,FBP-RB-91.png,0.45,1.2,45,0.5,0,39,39,44,1,,,,,,,,,,,,,,,,,,,,,,,,,,,,,,,,,,,,,,,,
,,,,,SPR24_035,19,female,2024-04-11_09h28.10.766,jersey_experiment_5_v0,2023.2.2,Win32,84.74576271,,,,,,,,,,,,,,,,347.3841,348.6783,348.6784,350.137,return,0.1664,,95.96354167,,,,,,FBP-OG-19.png,0.43,1.2,14,0.5,0,40,40,13,1,,,,,,,,,,,,,,,,,,,,,,,,,,,,,,,,,,,,,,,,
,,,,,SPR24_035,19,female,2024-04-11_09h28.10.766,jersey_experiment_5_v0,2023.2.2,Win32,84.74576271,,,,,,,,,,,,,,,,350.1373,351.4311,351.4312,352.2782,return,0.3773,,92.70833333,,,,,,FBP-RB-91.png,0.43,1.2,44,0.5,0,41,41,43,1,,,,,,,,,,,,,,,,,,,,,,,,,,,,,,,,,,,,,,,,
,,,,,SPR24_035,19,female,2024-04-11_09h28.10.766,jersey_experiment_5_v0,2023.2.2,Win32,84.74576271,,,,,,,,,,,,,,,,352.2786,353.3253,353.3254,357.4785,return,2.8839,,45.57291667,,,,,,FBP-YG-71.png,0.35,1.2,16,0.25,0,42,42,15,1,,,,,,,,,,,,,,,,,,,,,,,,,,,,,,,,,,,,,,,,
,,,,,SPR24_035,19,female,2024-04-11_09h28.10.766,jersey_experiment_5_v0,2023.2.2,Win32,84.74576271,,,,,,,,,,,,,,,,357.4787,358.5255,358.5255,359.1726,return,0.2024,,45.703125,,,,,,FBP-YG-91.png,0.37,1.2,27,0.25,0,43,43,26,1,,,,,,,,,,,,,,,,,,,,,,,,,,,,,,,,,,,,,,,,
,,,,,SPR24_035,19,female,2024-04-11_09h28.10.766,jersey_experiment_5_v0,2023.2.2,Win32,84.74576271,,,,,,,,,,,,,,,,359.1728,360.2196,360.2197,361.1256,return,0.1548,,45.57291667,,,,,,FBP-PT-71.png,0.37,1.2,47,0.25,0,44,44,46,1,,,,,,,,,,,,,,,,,,,,,,,,,,,,,,,,,,,,,,,,
,,,,,SPR24_035,19,female,2024-04-11_09h28.10.766,jersey_experiment_5_v0,2023.2.2,Win32,84.74576271,,,,,,,,,,,,,,,,361.1258,362.4199,362.4199,363.4786,return,0.1548,,49.73958333,,,,,,FBP-RB-81.png,0.37,1.2,37,0.5,0,45,45,36,1,,,,,,,,,,,,,,,,,,,,,,,,,,,,,,,,,,,,,,,,
,,,,,SPR24_035,19,female,2024-04-11_09h28.10.766,jersey_experiment_5_v0,2023.2.2,Win32,84.74576271,,,,,,,,,,,,,,,,363.4789,364.5257,364.5258,366.0673,return,0.1808,,90.75520833,,,,,,FBP-YG-81.png,0.45,1.2,25,0.25,0,46,46,24,1,,,,,,,,,,,,,,,,,,,,,,,,,,,,,,,,,,,,,,,,
,,,,,SPR24_035,19,female,2024-04-11_09h28.10.766,jersey_experiment_5_v0,2023.2.2,Win32,84.74576271,,,,,,,,,,,,,,,,366.0675,367.114,367.1141,368.6318,return,0.2016,,93.88020833,,,,,,FBP-YG-81.png,0.43,1.2,24,0.25,0,47,47,23,1,,,,,,,,,,,,,,,,,,,,,,,,,,,,,,,,,,,,,,,,
,,,,,SPR24_035,19,female,2024-04-11_09h28.10.766,jersey_experiment_5_v0,2023.2.2,Win32,84.74576271,,,,,,,,,,,,,,,,368.632,369.9259,369.926,372.5495,return,0.1901,,75.78125,,,,,,FBP-RB-81.png,0.35,1.2,36,0.5,0,48,48,35,1,,,,,,,,,,,,,,,,,,,,,,,,,,,,,,,,,,,,,,,,
,,,,,SPR24_035,19,female,2024-04-11_09h28.10.766,jersey_experiment_5_v0,2023.2.2,Win32,84.74576271,,,,,,,,,,,,,,,,372.5497,373.8437,373.8438,374.3733,return,0.0471,,74.86979167,,,,,,FBP-RB-91.png,0.4,1.2,43,0.5,0,49,49,42,1,,,,,,,,,,,,,,,,,,,,,,,,,,,,,,,,,,,,,,,,
,,,,,SPR24_035,19,female,2024-04-11_09h28.10.766,jersey_experiment_5_v0,2023.2.2,Win32,84.74576271,,,,,,,,,,,,,,,,374.3736,375.4203,375.4203,376.7615,return,0.0096,,88.15104167,,,,,,FBP-PT-81.png,0.43,1.2,54,0.25,0,50,50,53,1,,,,,,,,,,,,,,,,,,,,,,,,,,,,,,,,,,,,,,,,
,,,,,SPR24_035,19,female,2024-04-11_09h28.10.766,jersey_experiment_5_v0,2023.2.2,Win32,84.74576271,,,,,,,,,,,,,,,,376.7617,377.8086,377.8087,378.9853,return,0.1182,,55.98958333,,,,,,FBP-YG-81.png,0.37,1.2,22,0.25,0,51,51,21,1,,,,,,,,,,,,,,,,,,,,,,,,,,,,,,,,,,,,,,,,
,,,,,SPR24_035,19,female,2024-04-11_09h28.10.766,jersey_experiment_5_v0,2023.2.2,Win32,84.74576271,,,,,,,,,,,,,,,,378.9855,380.2792,380.2793,381.6085,return,0.1753,,47.91666667,,,,,,FBP-OG-18.png,0.4,1.2,8,0.5,0,52,52,7,1,,,,,,,,,,,,,,,,,,,,,,,,,,,,,,,,,,,,,,,,
,,,,,SPR24_035,19,female,2024-04-11_09h28.10.766,jersey_experiment_5_v0,2023.2.2,Win32,84.74576271,,,,,,,,,,,,,,,,381.6088,382.9027,382.9028,383.856,return,0.1137,,32.55208333,,,,,,FBP-RB-71.png,0.35,1.2,31,0.5,0,53,53,30,1,,,,,,,,,,,,,,,,,,,,,,,,,,,,,,,,,,,,,,,,
,,,,,SPR24_035,19,female,2024-04-11_09h28.10.766,jersey_experiment_5_v0,2023.2.2,Win32,84.74576271,,,,,,,,,,,,,,,,383.8562,385.15,385.1501,385.7618,return,0.0983,,38.28125,,,,,,FBP-RB-81.png,0.4,1.2,38,0.5,0,54,54,37,1,,,,,,,,,,,,,,,,,,,,,,,,,,,,,,,,,,,,,,,,
,,,,,SPR24_035,19,female,2024-04-11_09h28.10.766,jersey_experiment_5_v0,2023.2.2,Win32,84.74576271,,,,,,,,,,,,,,,,385.762,387.0561,387.0561,387.9383,return,0.099,,25.26041667,,,,,,FBP-OG-19.png,0.35,1.2,11,0.5,0,55,55,10,1,,,,,,,,,,,,,,,,,,,,,,,,,,,,,,,,,,,,,,,,
,,,,,SPR24_035,19,female,2024-04-11_09h28.10.766,jersey_experiment_5_v0,2023.2.2,Win32,84.74576271,,,,,,,,,,,,,,,,387.9385,389.2324,389.2324,390.0678,return,0.2377,,28.38541667,,,,,,FBP-RB-71.png,0.37,1.2,32,0.5,0,56,56,31,1,,,,,,,,,,,,,,,,,,,,,,,,,,,,,,,,,,,,,,,,
,,,,,SPR24_035,19,female,2024-04-11_09h28.10.766,jersey_experiment_5_v0,2023.2.2,Win32,84.74576271,,,,,,,,,,,,,,,,390.0681,391.362,391.3621,392.2328,return,0.1074,,38.02083333,,,,,,FBP-OG-19.png,0.37,1.2,12,0.5,0,57,57,11,1,,,,,,,,,,,,,,,,,,,,,,,,,,,,,,,,,,,,,,,,
,,,,,SPR24_035,19,female,2024-04-11_09h28.10.766,jersey_experiment_5_v0,2023.2.2,Win32,84.74576271,,,,,,,,,,,,,,,,392.233,393.5266,393.5266,394.4327,return,0.0772,,62.76041667,,,,,,FBP-OG-19.png,0.4,1.2,13,0.5,0,58,58,12,1,,,,,,,,,,,,,,,,,,,,,,,,,,,,,,,,,,,,,,,,
,,,,,SPR24_035,19,female,2024-04-11_09h28.10.766,jersey_experiment_5_v0,2023.2.2,Win32,84.74576271,,,,,,,,,,,,,,,,394.4328,395.727,395.727,396.5269,return,0.1496,,98.69791667,,,,,,FBP-RB-81.png,0.45,1.2,40,0.5,0,59,59,39,1,,,,,,,,,,,,,,,,,,,,,,,,,,,,,,,,,,,,,,,,
,,,,,SPR24_035,19,female,2024-04-11_09h28.10.766,jersey_experiment_5_v0,2023.2.2,Win32,84.74576271,,,,,,,,,,,,,,,,,,,,,,,,,,,,,,,,,,,,,,,396.5273,516.5198,,,,,,,,,,,,,,,,,,,,,,,,,,,,,,,,,,,,,,
,,,,,SPR24_035,19,female,2024-04-11_09h28.10.766,jersey_experiment_5_v0,2023.2.2,Win32,84.74576271,,,,,,,,,,,,,,,,,,,,,,,,,,,,,,,,,,,,,,,,,516.5198,518.5783,return,2.0504,,,,,,,,,,,,,,,,,,,,,,,,,,,,,,,,,,
,,,,,SPR24_035,19,female,2024-04-11_09h28.10.766,jersey_experiment_5_v0,2023.2.2,Win32,84.74576271,,,,,,,,,,,,,,,,518.5846,519.8841,519.8841,522.743,return,1.0587,,57.421875,,,,,,FBP-YG-19.png,0.35,1.2,26,0.5,,,,,,,,,,,,,0,0,0,25,1,,,,,,,,,,,,,,,,,,,,,,,,,,,,
,,,,,SPR24_035,19,female,2024-04-11_09h28.10.766,jersey_experiment_5_v0,2023.2.2,Win32,84.74576271,,,,,,,,,,,,,,,,522.7435,523.7901,523.7902,525.2372,return,0.3545,,65.36458333,,,,,,FBP-OG-91.png,0.37,1.2,12,0.25,,,,,,,,,,,,,0,1,1,11,1,,,,,,,,,,,,,,,,,,,,,,,,,,,,
,,,,,SPR24_035,19,female,2024-04-11_09h28.10.766,jersey_experiment_5_v0,2023.2.2,Win32,84.74576271,,,,,,,,,,,,,,,,525.2375,526.5314,526.5314,527.449,return,0.2592,,68.75,,,,,,FBP-PT-19.png,0.4,1.2,58,0.5,,,,,,,,,,,,,0,2,2,57,1,,,,,,,,,,,,,,,,,,,,,,,,,,,,
,,,,,SPR24_035,19,female,2024-04-11_09h28.10.766,jersey_experiment_5_v0,2023.2.2,Win32,84.74576271,,,,,,,,,,,,,,,,527.4493,528.7432,528.7432,529.6258,return,0.2726,,88.80208333,,,,,,FBP-YG-18.png,0.43,1.2,24,0.5,,,,,,,,,,,,,0,3,3,23,1,,,,,,,,,,,,,,,,,,,,,,,,,,,,
,,,,,SPR24_035,19,female,2024-04-11_09h28.10.766,jersey_experiment_5_v0,2023.2.2,Win32,84.74576271,,,,,,,,,,,,,,,,529.626,530.6727,530.6727,531.9433,return,0.6121,,100,,,,,,FBP-RB-17.png,0.45,1.2,35,0.25,,,,,,,,,,,,,0,4,4,34,1,,,,,,,,,,,,,,,,,,,,,,,,,,,,
,,,,,SPR24_035,19,female,2024-04-11_09h28.10.766,jersey_experiment_5_v0,2023.2.2,Win32,84.74576271,,,,,,,,,,,,,,,,531.9436,533.2377,533.2378,534.2259,return,0.2255,,83.33333333,,,,,,FBP-YG-19.png,0.4,1.2,28,0.5,,,,,,,,,,,,,0,5,5,27,1,,,,,,,,,,,,,,,,,,,,,,,,,,,,
,,,,,SPR24_035,19,female,2024-04-11_09h28.10.766,jersey_experiment_5_v0,2023.2.2,Win32,84.74576271,,,,,,,,,,,,,,,,534.2261,535.273,535.273,536.4378,return,0.1518,,34.765625,,,,,,FBP-RB-17.png,0.35,1.2,31,0.25,,,,,,,,,,,,,0,6,6,30,1,,,,,,,,,,,,,,,,,,,,,,,,,,,,
,,,,,SPR24_035,19,female,2024-04-11_09h28.10.766,jersey_experiment_5_v0,2023.2.2,Win32,84.74576271,,,,,,,,,,,,,,,,536.438,537.4847,537.4848,538.5788,return,0.1686,,22.00520833,,,,,,FBP-RB-18.png,0.35,1.2,36,0.25,,,,,,,,,,,,,0,7,7,35,1,,,,,,,,,,,,,,,,,,,,,,,,,,,,
,,,,,SPR24_035,19,female,2024-04-11_09h28.10.766,jersey_experiment_5_v0,2023.2.2,Win32,84.74576271,,,,,,,,,,,,,,,,538.579,539.6259,539.626,540.8026,return,0.0969,,78.515625,,,,,,FBP-RB-19.png,0.43,1.2,44,0.25,,,,,,,,,,,,,0,8,8,43,1,,,,,,,,,,,,,,,,,,,,,,,,,,,,
,,,,,SPR24_035,19,female,2024-04-11_09h28.10.766,jersey_experiment_5_v0,2023.2.2,Win32,84.74576271,,,,,,,,,,,,,,,,540.8028,542.0967,542.0968,542.5674,return,0.084,,82.94270833,,,,,,FBP-PT-19.png,0.43,1.2,59,0.5,,,,,,,,,,,,,0,9,9,58,1,,,,,,,,,,,,,,,,,,,,,,,,,,,,
,,,,,SPR24_035,19,female,2024-04-11_09h28.10.766,jersey_experiment_5_v0,2023.2.2,Win32,84.74576271,,,,,,,,,,,,,,,,542.5677,543.6143,543.6144,544.1321,return,0.0264,,82.03125,,,,,,FBP-RB-17.png,0.43,1.2,34,0.25,,,,,,,,,,,,,0,10,10,33,1,,,,,,,,,,,,,,,,,,,,,,,,,,,,
,,,,,SPR24_035,19,female,2024-04-11_09h28.10.766,jersey_experiment_5_v0,2023.2.2,Win32,84.74576271,,,,,,,,,,,,,,,,544.1324,545.4264,545.4264,546.2262,return,0.1559,,66.14583333,,,,,,FBP-PT-17.png,0.4,1.2,48,0.5,,,,,,,,,,,,,0,11,11,47,1,,,,,,,,,,,,,,,,,,,,,,,,,,,,
,,,,,SPR24_035,19,female,2024-04-11_09h28.10.766,jersey_experiment_5_v0,2023.2.2,Win32,84.74576271,,,,,,,,,,,,,,,,546.2264,547.5205,547.5205,548.3088,return,0.3052,,92.1875,,,,,,FBP-PT-17.png,0.43,1.2,49,0.5,,,,,,,,,,,,,0,12,12,48,1,,,,,,,,,,,,,,,,,,,,,,,,,,,,
,,,,,SPR24_035,19,female,2024-04-11_09h28.10.766,jersey_experiment_5_v0,2023.2.2,Win32,84.74576271,,,,,,,,,,,,,,,,548.309,549.3558,549.3558,550.6146,return,0.1173,,18.61979167,,,,,,FBP-OG-81.png,0.35,1.2,6,0.25,,,,,,,,,,,,,0,13,13,5,1,,,,,,,,,,,,,,,,,,,,,,,,,,,,
,,,,,SPR24_035,19,female,2024-04-11_09h28.10.766,jersey_experiment_5_v0,2023.2.2,Win32,84.74576271,,,,,,,,,,,,,,,,550.6149,551.9089,551.9089,552.9206,return,0.509,,18.88020833,,,,,,FBP-PT-17.png,0.35,1.2,46,0.5,,,,,,,,,,,,,0,14,14,45,1,,,,,,,,,,,,,,,,,,,,,,,,,,,,
,,,,,SPR24_035,19,female,2024-04-11_09h28.10.766,jersey_experiment_5_v0,2023.2.2,Win32,84.74576271,,,,,,,,,,,,,,,,552.9209,554.2149,554.2149,555.8971,return,0.1176,,99.47916667,,,,,,FBP-PT-19.png,0.45,1.2,60,0.5,,,,,,,,,,,,,0,15,15,59,1,,,,,,,,,,,,,,,,,,,,,,,,,,,,
,,,,,SPR24_035,19,female,2024-04-11_09h28.10.766,jersey_experiment_5_v0,2023.2.2,Win32,84.74576271,,,,,,,,,,,,,,,,555.8974,556.9443,556.9443,558.4148,return,0.7138,,93.22916667,,,,,,FBP-RB-18.png,0.43,1.2,39,0.25,,,,,,,,,,,,,0,16,16,38,1,,,,,,,,,,,,,,,,,,,,,,,,,,,,
,,,,,SPR24_035,19,female,2024-04-11_09h28.10.766,jersey_experiment_5_v0,2023.2.2,Win32,84.74576271,,,,,,,,,,,,,,,,558.4151,559.462,559.4621,560.7561,return,0.1085,,73.30729167,,,,,,FBP-OG-71.png,0.35,1.2,1,0.25,,,,,,,,,,,,,0,17,17,0,1,,,,,,,,,,,,,,,,,,,,,,,,,,,,
,,,,,SPR24_035,19,female,2024-04-11_09h28.10.766,jersey_experiment_5_v0,2023.2.2,Win32,84.74576271,,,,,,,,,,,,,,,,560.7564,561.8032,561.8032,562.9445,return,0.1122,,53.77604167,,,,,,FBP-RB-19.png,0.35,1.2,41,0.25,,,,,,,,,,,,,0,18,18,40,1,,,,,,,,,,,,,,,,,,,,,,,,,,,,
,,,,,SPR24_035,19,female,2024-04-11_09h28.10.766,jersey_experiment_5_v0,2023.2.2,Win32,84.74576271,,,,,,,,,,,,,,,,562.9447,563.9916,563.9917,564.6975,return,0.0946,,77.21354167,,,,,,FBP-OG-81.png,0.4,1.2,8,0.25,,,,,,,,,,,,,0,19,19,7,1,,,,,,,,,,,,,,,,,,,,,,,,,,,,
,,,,,SPR24_035,19,female,2024-04-11_09h28.10.766,jersey_experiment_5_v0,2023.2.2,Win32,84.74576271,,,,,,,,,,,,,,,,564.6977,565.7445,565.7446,566.5328,return,0.06,,65.36458333,,,,,,FBP-OG-91.png,0.35,1.2,11,0.25,,,,,,,,,,,,,0,20,20,10,1,,,,,,,,,,,,,,,,,,,,,,,,,,,,
,,,,,SPR24_035,19,female,2024-04-11_09h28.10.766,jersey_experiment_5_v0,2023.2.2,Win32,84.74576271,,,,,,,,,,,,,,,,566.533,567.8271,567.8272,568.9681,return,0.108,,98.17708333,,,,,,FBP-YG-18.png,0.45,1.2,25,0.5,,,,,,,,,,,,,0,21,21,24,1,,,,,,,,,,,,,,,,,,,,,,,,,,,,
,,,,,SPR24_035,19,female,2024-04-11_09h28.10.766,jersey_experiment_5_v0,2023.2.2,Win32,84.74576271,,,,,,,,,,,,,,,,568.9683,570.0153,570.0153,570.5213,return,0.0371,,88.28125,,,,,,FBP-RB-18.png,0.37,1.2,37,0.25,,,,,,,,,,,,,0,22,22,36,1,,,,,,,,,,,,,,,,,,,,,,,,,,,,
,,,,,SPR24_035,19,female,2024-04-11_09h28.10.766,jersey_experiment_5_v0,2023.2.2,Win32,84.74576271,,,,,,,,,,,,,,,,570.5215,571.8154,571.8154,573.2391,return,0.1181,,22.65625,,,,,,FBP-PT-19.png,0.35,1.2,56,0.5,,,,,,,,,,,,,0,23,23,55,1,,,,,,,,,,,,,,,,,,,,,,,,,,,,
,,,,,SPR24_035,19,female,2024-04-11_09h28.10.766,jersey_experiment_5_v0,2023.2.2,Win32,84.74576271,,,,,,,,,,,,,,,,573.2393,574.5331,574.5331,575.6861,return,0.0344,,79.42708333,,,,,,FBP-PT-18.png,0.37,1.2,52,0.5,,,,,,,,,,,,,0,24,24,51,1,,,,,,,,,,,,,,,,,,,,,,,,,,,,
,,,,,SPR24_035,19,female,2024-04-11_09h28.10.766,jersey_experiment_5_v0,2023.2.2,Win32,84.74576271,,,,,,,,,,,,,,,,575.6864,576.9804,576.9804,577.698,return,0.0018,,49.73958333,,,,,,FBP-YG-17.png,0.35,1.2,16,0.5,,,,,,,,,,,,,0,25,25,15,1,,,,,,,,,,,,,,,,,,,,,,,,,,,,
,,,,,SPR24_035,19,female,2024-04-11_09h28.10.766,jersey_experiment_5_v0,2023.2.2,Win32,84.74576271,,,,,,,,,,,,,,,,577.6983,578.992,578.992,580.051,return,0.0729,,70.96354167,,,,,,FBP-PT-19.png,0.37,1.2,57,0.5,,,,,,,,,,,,,0,26,26,56,1,,,,,,,,,,,,,,,,,,,,,,,,,,,,
,,,,,SPR24_035,19,female,2024-04-11_09h28.10.766,jersey_experiment_5_v0,2023.2.2,Win32,84.74576271,,,,,,,,,,,,,,,,580.0512,581.3453,581.3453,581.8273,return,0.1543,,66.27604167,,,,,,FBP-YG-17.png,0.37,1.2,17,0.5,,,,,,,,,,,,,0,27,27,16,1,,,,,,,,,,,,,,,,,,,,,,,,,,,,
,,,,,SPR24_035,19,female,2024-04-11_09h28.10.766,jersey_experiment_5_v0,2023.2.2,Win32,84.74576271,,,,,,,,,,,,,,,,581.8276,583.1216,583.1216,584.3571,return,0.2358,,96.74479167,,,,,,FBP-YG-17.png,0.43,1.2,19,0.5,,,,,,,,,,,,,0,28,28,18,1,,,,,,,,,,,,,,,,,,,,,,,,,,,,
,,,,,SPR24_035,19,female,2024-04-11_09h28.10.766,jersey_experiment_5_v0,2023.2.2,Win32,84.74576271,,,,,,,,,,,,,,,,584.3573,585.4041,585.4042,586.2277,return,0.0973,,77.21354167,,,,,,FBP-RB-17.png,0.37,1.2,32,0.25,,,,,,,,,,,,,0,29,29,31,1,,,,,,,,,,,,,,,,,,,,,,,,,,,,
,,,,,SPR24_035,19,female,2024-04-11_09h28.10.766,jersey_experiment_5_v0,2023.2.2,Win32,84.74576271,,,,,,,,,,,,,,,,586.2278,587.5217,587.5218,588.2395,return,0.2546,,79.03645833,,,,,,FBP-PT-17.png,0.37,1.2,47,0.5,,,,,,,,,,,,,0,30,30,46,1,,,,,,,,,,,,,,,,,,,,,,,,,,,,
,,,,,SPR24_035,19,female,2024-04-11_09h28.10.766,jersey_experiment_5_v0,2023.2.2,Win32,84.74576271,,,,,,,,,,,,,,,,588.2398,589.5337,589.5338,589.9573,return,0.0484,,78.90625,,,,,,FBP-PT-18.png,0.35,1.2,51,0.5,,,,,,,,,,,,,0,31,31,50,1,,,,,,,,,,,,,,,,,,,,,,,,,,,,
,,,,,SPR24_035,19,female,2024-04-11_09h28.10.766,jersey_experiment_5_v0,2023.2.2,Win32,84.74576271,,,,,,,,,,,,,,,,589.9576,591.2514,591.2515,592.6396,return,0.6309,,100,,,,,,FBP-YG-19.png,0.45,1.2,30,0.5,,,,,,,,,,,,,0,32,32,29,1,,,,,,,,,,,,,,,,,,,,,,,,,,,,
,,,,,SPR24_035,19,female,2024-04-11_09h28.10.766,jersey_experiment_5_v0,2023.2.2,Win32,84.74576271,,,,,,,,,,,,,,,,592.6399,593.9339,593.934,594.8516,return,0.0945,,99.73958333,,,,,,FBP-PT-17.png,0.45,1.2,50,0.5,,,,,,,,,,,,,0,33,33,49,1,,,,,,,,,,,,,,,,,,,,,,,,,,,,
,,,,,SPR24_035,19,female,2024-04-11_09h28.10.766,jersey_experiment_5_v0,2023.2.2,Win32,84.74576271,,,,,,,,,,,,,,,,594.8518,595.8985,595.8985,597.5105,return,0.9545,,74.609375,,,,,,FBP-OG-81.png,0.37,1.2,7,0.25,,,,,,,,,,,,,0,34,34,6,1,,,,,,,,,,,,,,,,,,,,,,,,,,,,
,,,,,SPR24_035,19,female,2024-04-11_09h28.10.766,jersey_experiment_5_v0,2023.2.2,Win32,84.74576271,,,,,,,,,,,,,,,,597.5107,598.5574,598.5575,599.3104,return,0.1025,,93.09895833,,,,,,FBP-OG-91.png,0.43,1.2,14,0.25,,,,,,,,,,,,,0,35,35,13,1,,,,,,,,,,,,,,,,,,,,,,,,,,,,
,,,,,SPR24_035,19,female,2024-04-11_09h28.10.766,jersey_experiment_5_v0,2023.2.2,Win32,84.74576271,,,,,,,,,,,,,,,,599.3105,600.3575,600.3575,601.1105,return,0.0466,,77.08333333,,,,,,FBP-RB-19.png,0.4,1.2,43,0.25,,,,,,,,,,,,,0,36,36,42,1,,,,,,,,,,,,,,,,,,,,,,,,,,,,
,,,,,SPR24_035,19,female,2024-04-11_09h28.10.766,jersey_experiment_5_v0,2023.2.2,Win32,84.74576271,,,,,,,,,,,,,,,,601.1107,602.4048,602.4049,602.934,return,0.1284,,95.3125,,,,,,FBP-PT-18.png,0.45,1.2,55,0.5,,,,,,,,,,,,,0,37,37,54,1,,,,,,,,,,,,,,,,,,,,,,,,,,,,
,,,,,SPR24_035,19,female,2024-04-11_09h28.10.766,jersey_experiment_5_v0,2023.2.2,Win32,84.74576271,,,,,,,,,,,,,,,,602.9342,604.2282,604.2283,605.3344,return,0.118,,72.39583333,,,,,,FBP-YG-18.png,0.4,1.2,23,0.5,,,,,,,,,,,,,0,38,38,22,1,,,,,,,,,,,,,,,,,,,,,,,,,,,,
,,,,,SPR24_035,19,female,2024-04-11_09h28.10.766,jersey_experiment_5_v0,2023.2.2,Win32,84.74576271,,,,,,,,,,,,,,,,605.3346,606.3813,606.3813,607.1108,return,0.189,,85.9375,,,,,,FBP-OG-71.png,0.45,1.2,5,0.25,,,,,,,,,,,,,0,39,39,4,1,,,,,,,,,,,,,,,,,,,,,,,,,,,,
,,,,,SPR24_035,19,female,2024-04-11_09h28.10.766,jersey_experiment_5_v0,2023.2.2,Win32,84.74576271,,,,,,,,,,,,,,,,607.111,608.1576,608.1577,608.8521,return,0.1793,,86.84895833,,,,,,FBP-OG-71.png,0.43,1.2,4,0.25,,,,,,,,,,,,,0,40,40,3,1,,,,,,,,,,,,,,,,,,,,,,,,,,,,
,,,,,SPR24_035,19,female,2024-04-11_09h28.10.766,jersey_experiment_5_v0,2023.2.2,Win32,84.74576271,,,,,,,,,,,,,,,,608.8523,609.899,609.899,610.9462,return,0.1445,,74.86979167,,,,,,FBP-RB-19.png,0.37,1.2,42,0.25,,,,,,,,,,,,,0,41,41,41,1,,,,,,,,,,,,,,,,,,,,,,,,,,,,
,,,,,SPR24_035,19,female,2024-04-11_09h28.10.766,jersey_experiment_5_v0,2023.2.2,Win32,84.74576271,,,,,,,,,,,,,,,,610.9464,611.9933,611.9933,613.8168,return,0.3294,,84.89583333,,,,,,FBP-RB-18.png,0.4,1.2,38,0.25,,,,,,,,,,,,,0,42,42,37,1,,,,,,,,,,,,,,,,,,,,,,,,,,,,
,,,,,SPR24_035,19,female,2024-04-11_09h28.10.766,jersey_experiment_5_v0,2023.2.2,Win32,84.74576271,,,,,,,,,,,,,,,,613.817,615.1112,615.1112,616.217,return,0.0708,,51.04166667,,,,,,FBP-YG-18.png,0.37,1.2,22,0.5,,,,,,,,,,,,,0,43,43,21,1,,,,,,,,,,,,,,,,,,,,,,,,,,,,
,,,,,SPR24_035,19,female,2024-04-11_09h28.10.766,jersey_experiment_5_v0,2023.2.2,Win32,84.74576271,,,,,,,,,,,,,,,,616.2172,617.2641,617.2641,617.9348,return,0.0432,,70.703125,,,,,,FBP-OG-71.png,0.4,1.2,3,0.25,,,,,,,,,,,,,0,44,44,2,1,,,,,,,,,,,,,,,,,,,,,,,,,,,,
,,,,,SPR24_035,19,female,2024-04-11_09h28.10.766,jersey_experiment_5_v0,2023.2.2,Win32,84.74576271,,,,,,,,,,,,,,,,617.9349,618.982,618.982,620.7583,return,0.1546,,92.31770833,,,,,,FBP-OG-91.png,0.45,1.2,15,0.25,,,,,,,,,,,,,0,45,45,14,1,,,,,,,,,,,,,,,,,,,,,,,,,,,,
,,,,,SPR24_035,19,female,2024-04-11_09h28.10.766,jersey_experiment_5_v0,2023.2.2,Win32,84.74576271,,,,,,,,,,,,,,,,620.7586,621.8054,621.8054,622.6408,return,0.0412,,95.05208333,,,,,,FBP-OG-81.png,0.43,1.2,9,0.25,,,,,,,,,,,,,0,46,46,8,1,,,,,,,,,,,,,,,,,,,,,,,,,,,,
,,,,,SPR24_035,19,female,2024-04-11_09h28.10.766,jersey_experiment_5_v0,2023.2.2,Win32,84.74576271,,,,,,,,,,,,,,,,622.6411,623.9349,623.9349,624.3701,return,0.0154,,92.83854167,,,,,,FBP-YG-17.png,0.4,1.2,18,0.5,,,,,,,,,,,,,0,47,47,17,1,,,,,,,,,,,,,,,,,,,,,,,,,,,,
,,,,,SPR24_035,19,female,2024-04-11_09h28.10.766,jersey_experiment_5_v0,2023.2.2,Win32,84.74576271,,,,,,,,,,,,,,,,624.3703,625.4171,625.4171,626.8527,return,0.1421,,100,,,,,,FBP-RB-18.png,0.45,1.2,40,0.25,,,,,,,,,,,,,0,48,48,39,1,,,,,,,,,,,,,,,,,,,,,,,,,,,,
,,,,,SPR24_035,19,female,2024-04-11_09h28.10.766,jersey_experiment_5_v0,2023.2.2,Win32,84.74576271,,,,,,,,,,,,,,,,626.8529,628.1469,628.1469,629.2528,return,0.095,,78.125,,,,,,FBP-YG-19.png,0.43,1.2,29,0.5,,,,,,,,,,,,,0,49,49,28,1,,,,,,,,,,,,,,,,,,,,,,,,,,,,
,,,,,SPR24_035,19,female,2024-04-11_09h28.10.766,jersey_experiment_5_v0,2023.2.2,Win32,84.74576271,,,,,,,,,,,,,,,,629.2531,630.2997,630.2998,631.3469,return,0.0966,,62.5,,,,,,FBP-OG-71.png,0.37,1.2,2,0.25,,,,,,,,,,,,,0,50,50,1,1,,,,,,,,,,,,,,,,,,,,,,,,,,,,
,,,,,SPR24_035,19,female,2024-04-11_09h28.10.766,jersey_experiment_5_v0,2023.2.2,Win32,84.74576271,,,,,,,,,,,,,,,,631.3472,632.3939,632.3939,633.5352,return,0.4061,,77.21354167,,,,,,FBP-RB-17.png,0.4,1.2,33,0.25,,,,,,,,,,,,,0,51,51,32,1,,,,,,,,,,,,,,,,,,,,,,,,,,,,
,,,,,SPR24_035,19,female,2024-04-11_09h28.10.766,jersey_experiment_5_v0,2023.2.2,Win32,84.74576271,,,,,,,,,,,,,,,,633.5354,634.8293,634.8293,635.5706,return,0.2027,,74.21875,,,,,,FBP-YG-19.png,0.37,1.2,27,0.5,,,,,,,,,,,,,0,52,52,26,1,,,,,,,,,,,,,,,,,,,,,,,,,,,,
,,,,,SPR24_035,19,female,2024-04-11_09h28.10.766,jersey_experiment_5_v0,2023.2.2,Win32,84.74576271,,,,,,,,,,,,,,,,635.5708,636.6176,636.6176,638.3824,return,0.0776,,88.671875,,,,,,FBP-OG-91.png,0.4,1.2,13,0.25,,,,,,,,,,,,,0,53,53,12,1,,,,,,,,,,,,,,,,,,,,,,,,,,,,
,,,,,SPR24_035,19,female,2024-04-11_09h28.10.766,jersey_experiment_5_v0,2023.2.2,Win32,84.74576271,,,,,,,,,,,,,,,,638.3827,639.4295,639.4295,640.4061,return,0.1077,,100,,,,,,FBP-RB-19.png,0.45,1.2,45,0.25,,,,,,,,,,,,,0,54,54,44,1,,,,,,,,,,,,,,,,,,,,,,,,,,,,
,,,,,SPR24_035,19,female,2024-04-11_09h28.10.766,jersey_experiment_5_v0,2023.2.2,Win32,84.74576271,,,,,,,,,,,,,,,,640.4064,641.7001,641.7002,643.0767,return,0.1526,,99.73958333,,,,,,FBP-PT-18.png,0.43,1.2,54,0.5,,,,,,,,,,,,,0,55,55,53,1,,,,,,,,,,,,,,,,,,,,,,,,,,,,
,,,,,SPR24_035,19,female,2024-04-11_09h28.10.766,jersey_experiment_5_v0,2023.2.2,Win32,84.74576271,,,,,,,,,,,,,,,,643.0768,644.3708,644.3708,644.9004,return,0.3308,,99.21875,,,,,,FBP-YG-17.png,0.45,1.2,20,0.5,,,,,,,,,,,,,0,56,56,19,1,,,,,,,,,,,,,,,,,,,,,,,,,,,,
,,,,,SPR24_035,19,female,2024-04-11_09h28.10.766,jersey_experiment_5_v0,2023.2.2,Win32,84.74576271,,,,,,,,,,,,,,,,644.9006,645.9473,645.9473,646.3708,return,0.0131,,99.21875,,,,,,FBP-OG-81.png,0.45,1.2,10,0.25,,,,,,,,,,,,,0,57,57,9,1,,,,,,,,,,,,,,,,,,,,,,,,,,,,
,,,,,SPR24_035,19,female,2024-04-11_09h28.10.766,jersey_experiment_5_v0,2023.2.2,Win32,84.74576271,,,,,,,,,,,,,,,,646.3711,647.665,647.665,648.8182,return,0.0987,,48.046875,,,,,,FBP-YG-18.png,0.35,1.2,21,0.5,,,,,,,,,,,,,0,58,58,20,1,,,,,,,,,,,,,,,,,,,,,,,,,,,,
,,,,,SPR24_035,19,female,2024-04-11_09h28.10.766,jersey_experiment_5_v0,2023.2.2,Win32,84.74576271,,,,,,,,,,,,,,,,648.8185,650.1124,650.1125,651.03,return,0.1045,,88.80208333,,,,,,FBP-PT-18.png,0.4,1.2,53,0.5,,,,,,,,,,,,,0,59,59,52,1,,,,,,,,,,,,,,,,,,,,,,,,,,,,
,,,,,SPR24_035,19,female,2024-04-11_09h28.10.766,jersey_experiment_5_v0,2023.2.2,Win32,84.74576271,,,,,,,,,,,,,,,,651.032,652.077,652.077,653.5714,return,0.0828,,21.35416667,,,,,,FBP-RB-81.png,0.35,1.2,36,0.25,,,,,,,,,,,,,,,,,,0,0,0,35,1,,,,,,,,,,,,,,,,,,,,,,,
,,,,,SPR24_035,19,female,2024-04-11_09h28.10.766,jersey_experiment_5_v0,2023.2.2,Win32,84.74576271,,,,,,,,,,,,,,,,653.5716,654.8654,654.8654,656.0536,return,0.0839,,79.6875,,,,,,FBP-PT-91.png,0.43,1.2,59,0.5,,,,,,,,,,,,,,,,,,0,1,1,58,1,,,,,,,,,,,,,,,,,,,,,,,
,,,,,SPR24_035,19,female,2024-04-11_09h28.10.766,jersey_experiment_5_v0,2023.2.2,Win32,84.74576271,,,,,,,,,,,,,,,,656.0539,657.1007,657.1007,658.5832,return,0.1884,,31.640625,,,,,,FBP-OG-19.png,0.35,1.2,11,0.25,,,,,,,,,,,,,,,,,,0,2,2,10,1,,,,,,,,,,,,,,,,,,,,,,,
,,,,,SPR24_035,19,female,2024-04-11_09h28.10.766,jersey_experiment_5_v0,2023.2.2,Win32,84.74576271,,,,,,,,,,,,,,,,658.5835,659.6303,659.6303,660.6303,return,0.0098,,86.19791667,,,,,,FBP-OG-17.png,0.45,1.2,5,0.25,,,,,,,,,,,,,,,,,,0,3,3,4,1,,,,,,,,,,,,,,,,,,,,,,,
,,,,,SPR24_035,19,female,2024-04-11_09h28.10.766,jersey_experiment_5_v0,2023.2.2,Win32,84.74576271,,,,,,,,,,,,,,,,660.6305,661.6774,661.6774,662.4893,return,0.0237,,38.15104167,,,,,,FBP-RB-71.png,0.35,1.2,31,0.25,,,,,,,,,,,,,,,,,,0,4,4,30,1,,,,,,,,,,,,,,,,,,,,,,,
,,,,,SPR24_035,19,female,2024-04-11_09h28.10.766,jersey_experiment_5_v0,2023.2.2,Win32,84.74576271,,,,,,,,,,,,,,,,662.4896,663.7833,663.7834,665.2186,return,0.5084,,18.61979167,,,,,,FBP-YG-81.png,0.35,1.2,21,0.5,,,,,,,,,,,,,,,,,,0,5,5,20,1,,,,,,,,,,,,,,,,,,,,,,,
,,,,,SPR24_035,19,female,2024-04-11_09h28.10.766,jersey_experiment_5_v0,2023.2.2,Win32,84.74576271,,,,,,,,,,,,,,,,665.2189,666.2658,666.2659,667.1365,return,0.0414,,77.734375,,,,,,FBP-RB-91.png,0.4,1.2,43,0.25,,,,,,,,,,,,,,,,,,0,6,6,42,1,,,,,,,,,,,,,,,,,,,,,,,
,,,,,SPR24_035,19,female,2024-04-11_09h28.10.766,jersey_experiment_5_v0,2023.2.2,Win32,84.74576271,,,,,,,,,,,,,,,,667.1367,668.1833,668.1834,668.9364,return,0.0711,,96.484375,,,,,,FBP-OG-18.png,0.45,1.2,10,0.25,,,,,,,,,,,,,,,,,,0,7,7,9,1,,,,,,,,,,,,,,,,,,,,,,,
,,,,,SPR24_035,19,female,2024-04-11_09h28.10.766,jersey_experiment_5_v0,2023.2.2,Win32,84.74576271,,,,,,,,,,,,,,,,668.9366,669.9835,669.9835,670.7366,return,0.2167,,85.28645833,,,,,,FBP-RB-71.png,0.4,1.2,33,0.25,,,,,,,,,,,,,,,,,,0,8,8,32,1,,,,,,,,,,,,,,,,,,,,,,,
,,,,,SPR24_035,19,female,2024-04-11_09h28.10.766,jersey_experiment_5_v0,2023.2.2,Win32,84.74576271,,,,,,,,,,,,,,,,670.7369,671.7835,671.7836,672.5484,return,0.0949,,86.97916667,,,,,,FBP-OG-17.png,0.4,1.2,3,0.25,,,,,,,,,,,,,,,,,,0,9,9,2,1,,,,,,,,,,,,,,,,,,,,,,,
,,,,,SPR24_035,19,female,2024-04-11_09h28.10.766,jersey_experiment_5_v0,2023.2.2,Win32,84.74576271,,,,,,,,,,,,,,,,672.5487,673.8424,673.8424,674.325,return,0.0357,,86.71875,,,,,,FBP-PT-71.png,0.4,1.2,48,0.5,,,,,,,,,,,,,,,,,,0,10,10,47,1,,,,,,,,,,,,,,,,,,,,,,,
,,,,,SPR24_035,19,female,2024-04-11_09h28.10.766,jersey_experiment_5_v0,2023.2.2,Win32,84.74576271,,,,,,,,,,,,,,,,674.3251,675.619,675.619,677.3602,return,0.2039,,69.66145833,,,,,,FBP-PT-91.png,0.37,1.2,57,0.5,,,,,,,,,,,,,,,,,,0,11,11,56,1,,,,,,,,,,,,,,,,,,,,,,,
,,,,,SPR24_035,19,female,2024-04-11_09h28.10.766,jersey_experiment_5_v0,2023.2.2,Win32,84.74576271,,,,,,,,,,,,,,,,677.3604,678.6543,678.6544,679.7488,return,0.2363,,33.984375,,,,,,FBP-PT-71.png,0.35,1.2,46,0.5,,,,,,,,,,,,,,,,,,0,12,12,45,1,,,,,,,,,,,,,,,,,,,,,,,
,,,,,SPR24_035,19,female,2024-04-11_09h28.10.766,jersey_experiment_5_v0,2023.2.2,Win32,84.74576271,,,,,,,,,,,,,,,,679.7489,680.7956,680.7956,682.0664,return,0.1087,,75.26041667,,,,,,FBP-OG-19.png,0.43,1.2,14,0.25,,,,,,,,,,,,,,,,,,0,13,13,13,1,,,,,,,,,,,,,,,,,,,,,,,
,,,,,SPR24_035,19,female,2024-04-11_09h28.10.766,jersey_experiment_5_v0,2023.2.2,Win32,84.74576271,,,,,,,,,,,,,,,,682.0666,683.1134,683.1134,684.949,return,0.1166,,26.171875,,,,,,FBP-OG-17.png,0.37,1.2,2,0.25,,,,,,,,,,,,,,,,,,0,14,14,1,1,,,,,,,,,,,,,,,,,,,,,,,
,,,,,SPR24_035,19,female,2024-04-11_09h28.10.766,jersey_experiment_5_v0,2023.2.2,Win32,84.74576271,,,,,,,,,,,,,,,,684.9493,685.9958,685.9959,686.7138,return,0.095,,32.421875,,,,,,FBP-OG-18.png,0.35,1.2,6,0.25,,,,,,,,,,,,,,,,,,0,15,15,5,1,,,,,,,,,,,,,,,,,,,,,,,
,,,,,SPR24_035,19,female,2024-04-11_09h28.10.766,jersey_experiment_5_v0,2023.2.2,Win32,84.74576271,,,,,,,,,,,,,,,,686.7139,688.0077,688.0078,688.9841,return,0.0327,,74.86979167,,,,,,FBP-PT-91.png,0.4,1.2,58,0.5,,,,,,,,,,,,,,,,,,0,16,16,57,1,,,,,,,,,,,,,,,,,,,,,,,
,,,,,SPR24_035,19,female,2024-04-11_09h28.10.766,jersey_experiment_5_v0,2023.2.2,Win32,84.74576271,,,,,,,,,,,,,,,,688.9844,690.2783,690.2784,691.0783,return,0.1515,,96.875,,,,,,FBP-PT-81.png,0.45,1.2,55,0.5,,,,,,,,,,,,,,,,,,0,17,17,54,1,,,,,,,,,,,,,,,,,,,,,,,
,,,,,SPR24_035,19,female,2024-04-11_09h28.10.766,jersey_experiment_5_v0,2023.2.2,Win32,84.74576271,,,,,,,,,,,,,,,,691.0785,692.1255,692.1255,693.3372,return,0.1176,,100,,,,,,FBP-RB-91.png,0.45,1.2,45,0.25,,,,,,,,,,,,,,,,,,0,18,18,44,1,,,,,,,,,,,,,,,,,,,,,,,
,,,,,SPR24_035,19,female,2024-04-11_09h28.10.766,jersey_experiment_5_v0,2023.2.2,Win32,84.74576271,,,,,,,,,,,,,,,,693.3374,694.6317,694.6317,695.9845,return,0.5922,,73.95833333,,,,,,FBP-YG-71.png,0.37,1.2,17,0.5,,,,,,,,,,,,,,,,,,0,19,19,16,1,,,,,,,,,,,,,,,,,,,,,,,
,,,,,SPR24_035,19,female,2024-04-11_09h28.10.766,jersey_experiment_5_v0,2023.2.2,Win32,84.74576271,,,,,,,,,,,,,,,,695.9847,697.2786,697.2786,698.3728,return,0.0492,,83.33333333,,,,,,FBP-PT-81.png,0.4,1.2,53,0.5,,,,,,,,,,,,,,,,,,0,20,20,52,1,,,,,,,,,,,,,,,,,,,,,,,
,,,,,SPR24_035,19,female,2024-04-11_09h28.10.766,jersey_experiment_5_v0,2023.2.2,Win32,84.74576271,,,,,,,,,,,,,,,,698.373,699.667,699.6671,700.1494,return,0.0933,,89.0625,,,,,,FBP-PT-71.png,0.43,1.2,49,0.5,,,,,,,,,,,,,,,,,,0,21,21,48,1,,,,,,,,,,,,,,,,,,,,,,,
,,,,,SPR24_035,19,female,2024-04-11_09h28.10.766,jersey_experiment_5_v0,2023.2.2,Win32,84.74576271,,,,,,,,,,,,,,,,700.1495,701.1963,701.1964,702.5846,return,0.0946,,73.046875,,,,,,FBP-OG-18.png,0.4,1.2,8,0.25,,,,,,,,,,,,,,,,,,0,22,22,7,1,,,,,,,,,,,,,,,,,,,,,,,
,,,,,SPR24_035,19,female,2024-04-11_09h28.10.766,jersey_experiment_5_v0,2023.2.2,Win32,84.74576271,,,,,,,,,,,,,,,,702.5848,703.6317,703.6318,704.5497,return,0.1082,,99.86979167,,,,,,FBP-RB-81.png,0.45,1.2,40,0.25,,,,,,,,,,,,,,,,,,0,23,23,39,1,,,,,,,,,,,,,,,,,,,,,,,
,,,,,SPR24_035,19,female,2024-04-11_09h28.10.766,jersey_experiment_5_v0,2023.2.2,Win32,84.74576271,,,,,,,,,,,,,,,,704.55,705.8436,705.8436,706.7378,return,0.0264,,91.66666667,,,,,,FBP-YG-91.png,0.4,1.2,28,0.5,,,,,,,,,,,,,,,,,,0,24,24,27,1,,,,,,,,,,,,,,,,,,,,,,,
,,,,,SPR24_035,19,female,2024-04-11_09h28.10.766,jersey_experiment_5_v0,2023.2.2,Win32,84.74576271,,,,,,,,,,,,,,,,706.738,708.0323,708.0323,708.9614,return,0.0861,,100,,,,,,FBP-YG-71.png,0.45,1.2,20,0.5,,,,,,,,,,,,,,,,,,0,25,25,19,1,,,,,,,,,,,,,,,,,,,,,,,
,,,,,SPR24_035,19,female,2024-04-11_09h28.10.766,jersey_experiment_5_v0,2023.2.2,Win32,84.74576271,,,,,,,,,,,,,,,,708.9617,710.0087,710.0087,712.2557,return,0.1585,,99.34895833,,,,,,FBP-RB-91.png,0.43,1.2,44,0.25,,,,,,,,,,,,,,,,,,0,26,26,43,1,,,,,,,,,,,,,,,,,,,,,,,
,,,,,SPR24_035,19,female,2024-04-11_09h28.10.766,jersey_experiment_5_v0,2023.2.2,Win32,84.74576271,,,,,,,,,,,,,,,,712.2559,713.3029,713.3029,714.3382,return,0.0269,,50,,,,,,FBP-RB-91.png,0.37,1.2,42,0.25,,,,,,,,,,,,,,,,,,0,27,27,41,1,,,,,,,,,,,,,,,,,,,,,,,
,,,,,SPR24_035,19,female,2024-04-11_09h28.10.766,jersey_experiment_5_v0,2023.2.2,Win32,84.74576271,,,,,,,,,,,,,,,,714.3384,715.6323,715.6324,717.2088,return,0.0248,,67.1875,,,,,,FBP-YG-71.png,0.4,1.2,18,0.5,,,,,,,,,,,,,,,,,,0,28,28,17,1,,,,,,,,,,,,,,,,,,,,,,,
,,,,,SPR24_035,19,female,2024-04-11_09h28.10.766,jersey_experiment_5_v0,2023.2.2,Win32,84.74576271,,,,,,,,,,,,,,,,717.209,718.5029,718.5029,720.6796,return,1.2105,,93.61979167,,,,,,FBP-YG-91.png,0.45,1.2,30,0.5,,,,,,,,,,,,,,,,,,0,29,29,29,1,,,,,,,,,,,,,,,,,,,,,,,
,,,,,SPR24_035,19,female,2024-04-11_09h28.10.766,jersey_experiment_5_v0,2023.2.2,Win32,84.74576271,,,,,,,,,,,,,,,,720.6798,721.7266,721.7266,724.3031,return,0.0635,,73.17708333,,,,,,FBP-OG-19.png,0.37,1.2,12,0.25,,,,,,,,,,,,,,,,,,0,30,30,11,1,,,,,,,,,,,,,,,,,,,,,,,
,,,,,SPR24_035,19,female,2024-04-11_09h28.10.766,jersey_experiment_5_v0,2023.2.2,Win32,84.74576271,,,,,,,,,,,,,,,,724.3033,725.5974,725.5974,726.1267,return,0.0665,,89.0625,,,,,,FBP-YG-81.png,0.43,1.2,24,0.5,,,,,,,,,,,,,,,,,,0,31,31,23,1,,,,,,,,,,,,,,,,,,,,,,,
,,,,,SPR24_035,19,female,2024-04-11_09h28.10.766,jersey_experiment_5_v0,2023.2.2,Win32,84.74576271,,,,,,,,,,,,,,,,726.127,727.1736,727.1737,728.0209,return,0.1667,,87.109375,,,,,,FBP-OG-17.png,0.43,1.2,4,0.25,,,,,,,,,,,,,,,,,,0,32,32,3,1,,,,,,,,,,,,,,,,,,,,,,,
,,,,,SPR24_035,19,female,2024-04-11_09h28.10.766,jersey_experiment_5_v0,2023.2.2,Win32,84.74576271,,,,,,,,,,,,,,,,728.0211,729.0679,729.0679,729.8326,return,0.0101,,90.75520833,,,,,,FBP-OG-18.png,0.43,1.2,9,0.25,,,,,,,,,,,,,,,,,,0,33,33,8,1,,,,,,,,,,,,,,,,,,,,,,,
,,,,,SPR24_035,19,female,2024-04-11_09h28.10.766,jersey_experiment_5_v0,2023.2.2,Win32,84.74576271,,,,,,,,,,,,,,,,729.8329,731.1269,731.127,731.6328,return,0.0044,,93.48958333,,,,,,FBP-YG-91.png,0.43,1.2,29,0.5,,,,,,,,,,,,,,,,,,0,34,34,28,1,,,,,,,,,,,,,,,,,,,,,,,
,,,,,SPR24_035,19,female,2024-04-11_09h28.10.766,jersey_experiment_5_v0,2023.2.2,Win32,84.74576271,,,,,,,,,,,,,,,,731.633,732.9271,732.9272,734.1037,return,0.0945,,33.07291667,,,,,,FBP-YG-81.png,0.37,1.2,22,0.5,,,,,,,,,,,,,,,,,,0,35,35,21,1,,,,,,,,,,,,,,,,,,,,,,,
,,,,,SPR24_035,19,female,2024-04-11_09h28.10.766,jersey_experiment_5_v0,2023.2.2,Win32,84.74576271,,,,,,,,,,,,,,,,734.1039,735.1505,735.1506,736.1625,return,0.0984,,22.65625,,,,,,FBP-RB-91.png,0.35,1.2,41,0.25,,,,,,,,,,,,,,,,,,0,36,36,40,1,,,,,,,,,,,,,,,,,,,,,,,
,,,,,SPR24_035,19,female,2024-04-11_09h28.10.766,jersey_experiment_5_v0,2023.2.2,Win32,84.74576271,,,,,,,,,,,,,,,,736.1627,737.2093,737.2093,738.5155,return,0.0739,,72.00520833,,,,,,FBP-RB-81.png,0.4,1.2,38,0.25,,,,,,,,,,,,,,,,,,0,37,37,37,1,,,,,,,,,,,,,,,,,,,,,,,
,,,,,SPR24_035,19,female,2024-04-11_09h28.10.766,jersey_experiment_5_v0,2023.2.2,Win32,84.74576271,,,,,,,,,,,,,,,,738.5156,739.8095,739.8095,740.3975,return,0.0187,,79.03645833,,,,,,FBP-YG-71.png,0.43,1.2,19,0.5,,,,,,,,,,,,,,,,,,0,38,38,18,1,,,,,,,,,,,,,,,,,,,,,,,
,,,,,SPR24_035,19,female,2024-04-11_09h28.10.766,jersey_experiment_5_v0,2023.2.2,Win32,84.74576271,,,,,,,,,,,,,,,,740.3978,741.445,741.445,742.1626,return,0.1919,,87.63020833,,,,,,FBP-RB-71.png,0.43,1.2,34,0.25,,,,,,,,,,,,,,,,,,0,39,39,33,1,,,,,,,,,,,,,,,,,,,,,,,
,,,,,SPR24_035,19,female,2024-04-11_09h28.10.766,jersey_experiment_5_v0,2023.2.2,Win32,84.74576271,,,,,,,,,,,,,,,,742.1628,743.2097,743.2097,744.257,return,0.0292,,61.84895833,,,,,,FBP-RB-71.png,0.37,1.2,32,0.25,,,,,,,,,,,,,,,,,,0,40,40,31,1,,,,,,,,,,,,,,,,,,,,,,,
,,,,,SPR24_035,19,female,2024-04-11_09h28.10.766,jersey_experiment_5_v0,2023.2.2,Win32,84.74576271,,,,,,,,,,,,,,,,744.2572,745.3038,745.3039,747.551,return,0.9593,,50.390625,,,,,,FBP-OG-19.png,0.4,1.2,13,0.25,,,,,,,,,,,,,,,,,,0,41,41,12,1,,,,,,,,,,,,,,,,,,,,,,,
,,,,,SPR24_035,19,female,2024-04-11_09h28.10.766,jersey_experiment_5_v0,2023.2.2,Win32,84.74576271,,,,,,,,,,,,,,,,747.5512,748.8452,748.8452,749.9277,return,0.0705,,27.21354167,,,,,,FBP-YG-91.png,0.37,1.2,27,0.5,,,,,,,,,,,,,,,,,,0,42,42,26,1,,,,,,,,,,,,,,,,,,,,,,,
,,,,,SPR24_035,19,female,2024-04-11_09h28.10.766,jersey_experiment_5_v0,2023.2.2,Win32,84.74576271,,,,,,,,,,,,,,,,749.9278,750.9746,750.9746,751.7277,return,0.0047,,26.5625,,,,,,FBP-RB-81.png,0.37,1.2,37,0.25,,,,,,,,,,,,,,,,,,0,43,43,36,1,,,,,,,,,,,,,,,,,,,,,,,
,,,,,SPR24_035,19,female,2024-04-11_09h28.10.766,jersey_experiment_5_v0,2023.2.2,Win32,84.74576271,,,,,,,,,,,,,,,,751.728,753.0218,753.0218,754.4808,return,0.0414,,9.765625,,,,,,FBP-PT-81.png,0.35,1.2,51,0.5,,,,,,,,,,,,,,,,,,0,44,44,50,1,,,,,,,,,,,,,,,,,,,,,,,
,,,,,SPR24_035,19,female,2024-04-11_09h28.10.766,jersey_experiment_5_v0,2023.2.2,Win32,84.74576271,,,,,,,,,,,,,,,,754.4811,755.7751,755.7751,756.9043,return,0.6118,,75.52083333,,,,,,FBP-YG-81.png,0.45,1.2,25,0.5,,,,,,,,,,,,,,,,,,0,45,45,24,1,,,,,,,,,,,,,,,,,,,,,,,
,,,,,SPR24_035,19,female,2024-04-11_09h28.10.766,jersey_experiment_5_v0,2023.2.2,Win32,84.74576271,,,,,,,,,,,,,,,,756.9044,757.9513,757.9514,759.1396,return,0.3781,,35.80729167,,,,,,FBP-OG-17.png,0.35,1.2,1,0.25,,,,,,,,,,,,,,,,,,0,46,46,0,1,,,,,,,,,,,,,,,,,,,,,,,
,,,,,SPR24_035,19,female,2024-04-11_09h28.10.766,jersey_experiment_5_v0,2023.2.2,Win32,84.74576271,,,,,,,,,,,,,,,,759.1398,760.4339,760.434,762.0459,return,0.6545,,83.33333333,,,,,,FBP-PT-91.png,0.45,1.2,60,0.5,,,,,,,,,,,,,,,,,,0,47,47,59,1,,,,,,,,,,,,,,,,,,,,,,,
,,,,,SPR24_035,19,female,2024-04-11_09h28.10.766,jersey_experiment_5_v0,2023.2.2,Win32,84.74576271,,,,,,,,,,,,,,,,762.046,763.3398,763.3398,763.8104,return,0.0511,,83.72395833,,,,,,FBP-YG-81.png,0.4,1.2,23,0.5,,,,,,,,,,,,,,,,,,0,48,48,22,1,,,,,,,,,,,,,,,,,,,,,,,
,,,,,SPR24_035,19,female,2024-04-11_09h28.10.766,jersey_experiment_5_v0,2023.2.2,Win32,84.74576271,,,,,,,,,,,,,,,,763.8107,765.1047,765.1047,766.0693,return,0.6134,,88.15104167,,,,,,FBP-PT-81.png,0.43,1.2,54,0.5,,,,,,,,,,,,,,,,,,0,49,49,53,1,,,,,,,,,,,,,,,,,,,,,,,
,,,,,SPR24_035,19,female,2024-04-11_09h28.10.766,jersey_experiment_5_v0,2023.2.2,Win32,84.74576271,,,,,,,,,,,,,,,,766.0696,767.1163,767.1163,768.2223,return,0.4543,,80.72916667,,,,,,FBP-OG-18.png,0.37,1.2,7,0.25,,,,,,,,,,,,,,,,,,0,50,50,6,1,,,,,,,,,,,,,,,,,,,,,,,
,,,,,SPR24_035,19,female,2024-04-11_09h28.10.766,jersey_experiment_5_v0,2023.2.2,Win32,84.74576271,,,,,,,,,,,,,,,,768.2225,769.2693,769.2693,770.5636,return,0.225,,92.96875,,,,,,FBP-OG-19.png,0.45,1.2,15,0.25,,,,,,,,,,,,,,,,,,0,51,51,14,1,,,,,,,,,,,,,,,,,,,,,,,
,,,,,SPR24_035,19,female,2024-04-11_09h28.10.766,jersey_experiment_5_v0,2023.2.2,Win32,84.74576271,,,,,,,,,,,,,,,,770.5638,771.6106,771.6107,772.4813,return,0.1452,,99.609375,,,,,,FBP-RB-71.png,0.45,1.2,35,0.25,,,,,,,,,,,,,,,,,,0,52,52,34,1,,,,,,,,,,,,,,,,,,,,,,,
,,,,,SPR24_035,19,female,2024-04-11_09h28.10.766,jersey_experiment_5_v0,2023.2.2,Win32,84.74576271,,,,,,,,,,,,,,,,772.4815,773.7754,773.7755,776.4227,return,0.1417,,72.91666667,,,,,,FBP-PT-91.png,0.35,1.2,56,0.5,,,,,,,,,,,,,,,,,,0,53,53,55,1,,,,,,,,,,,,,,,,,,,,,,,
,,,,,SPR24_035,19,female,2024-04-11_09h28.10.766,jersey_experiment_5_v0,2023.2.2,Win32,84.74576271,,,,,,,,,,,,,,,,776.4229,777.7167,777.7167,778.8346,return,0.0627,,75.13020833,,,,,,FBP-YG-91.png,0.35,1.2,26,0.5,,,,,,,,,,,,,,,,,,0,54,54,25,1,,,,,,,,,,,,,,,,,,,,,,,
,,,,,SPR24_035,19,female,2024-04-11_09h28.10.766,jersey_experiment_5_v0,2023.2.2,Win32,84.74576271,,,,,,,,,,,,,,,,778.8348,780.1287,780.1287,781.8228,return,0.0668,,60.67708333,,,,,,FBP-PT-81.png,0.37,1.2,52,0.5,,,,,,,,,,,,,,,,,,0,55,55,51,1,,,,,,,,,,,,,,,,,,,,,,,
,,,,,SPR24_035,19,female,2024-04-11_09h28.10.766,jersey_experiment_5_v0,2023.2.2,Win32,84.74576271,,,,,,,,,,,,,,,,781.8231,783.117,783.117,783.729,return,0.0881,,45.83333333,,,,,,FBP-YG-71.png,0.35,1.2,16,0.5,,,,,,,,,,,,,,,,,,0,56,56,15,1,,,,,,,,,,,,,,,,,,,,,,,
,,,,,SPR24_035,19,female,2024-04-11_09h28.10.766,jersey_experiment_5_v0,2023.2.2,Win32,84.74576271,,,,,,,,,,,,,,,,783.7292,785.0229,785.0229,785.6818,return,0.0739,,60.80729167,,,,,,FBP-PT-71.png,0.37,1.2,47,0.5,,,,,,,,,,,,,,,,,,0,57,57,46,1,,,,,,,,,,,,,,,,,,,,,,,
,,,,,SPR24_035,19,female,2024-04-11_09h28.10.766,jersey_experiment_5_v0,2023.2.2,Win32,84.74576271,,,,,,,,,,,,,,,,785.682,786.9761,786.9761,789.1994,return,0.5478,,81.77083333,,,,,,FBP-PT-71.png,0.45,1.2,50,0.5,,,,,,,,,,,,,,,,,,0,58,58,49,1,,,,,,,,,,,,,,,,,,,,,,,
,,,,,SPR24_035,19,female,2024-04-11_09h28.10.766,jersey_experiment_5_v0,2023.2.2,Win32,84.74576271,,,,,,,,,,,,,,,,789.1996,790.2467,790.2467,791.9055,return,0.344,,85.02604167,,,,,,FBP-RB-81.png,0.43,1.2,39,0.25,,,,,,,,,,,,,,,,,,0,59,59,38,1,,,,,,,,,,,,,,,,,,,,,,,
,,,,,SPR24_035,19,female,2024-04-11_09h28.10.766,jersey_experiment_5_v0,2023.2.2,Win32,84.74576271,,,,,,,,,,,,,,,,,,,,,,,,,,,,,,,,,,,,,,,,,,,,,,,,,,,,,,,,791.906,796.8942,return,4.9835,,,,,,,,,,,,,,,,,,,
,,,,,SPR24_035,19,female,2024-04-11_09h28.10.766,jersey_experiment_5_v0,2023.2.2,Win32,84.74576271,,,,,,,,,,,,,,,,,,,,,,,,,,,,,,,,,,,,,,,,,,,,,,,,,,,,,,,,,,,,,796.8943,803.9178,1,4.283,return,2.7259,,,,,,,,,,,,
,,,,,SPR24_035,19,female,2024-04-11_09h28.10.766,jersey_experiment_5_v0,2023.2.2,Win32,84.74576271,,,,,,,,,,,,,,,,,,,,,,,,,,,,,,,,,,,,,,,,,,,,,,,,,,,,,,,,,,,,,,,,,,,,803.918,986.7888,"It is easier to tell the super husky players compared to other sizes. It is also easier to make guesses about the size in comparison to the player shown previously. Some of my guesses were based off how much bigger or smaller the player was compared to the one shown previously. It was hard to tell which players were slender, because all of them seemed a bit husky in a way. The players had to be very slender for me to tell. It was also hard to remember the initial qualifications for slender or husky, so after a while it just became slender or husky compared to other players I had seen in the line-up instead of based off the original guidelines.",right,179.3776,,,,,,
,,,,,SPR24_035,19,female,2024-04-11_09h28.10.766,jersey_experiment_5_v0,2023.2.2,Win32,84.74576271,,,,,,,,,,,,,,,,,,,,,,,,,,,,,,,,,,,,,,,,,,,,,,,,,,,,,,,,,,,,,,,,,,,,,,,,,,986.7889,989.3007,return,2.5003,