requirements.started,requirements.stopped,key_resp_3.keys,key_resp_3.rt,key_resp_3.duration,Subject ID,Age,Gender,date,expName,psychopyVersion,OS,frameRate,instructions1.started,instructions1.stopped,key_resp.keys,key_resp.rt,key_resp.duration,example.started,example.stopped,enter_2.keys,enter_2.rt,enter_2.duration,instructions2.started,instructions2.stopped,enter_3.keys,enter_3.rt,enter_3.duration,image.started,image.stopped,slider_2.started,slider_2.stopped,next.keys,next.rt,next.duration,slider.response,trial_block_1.thisRepN,trial_block_1.thisTrialN,trial_block_1.thisN,trial_block_1.thisIndex,trial_block_1.ran,Path,Width,Height,Index,Duration,trial_block_2.thisRepN,trial_block_2.thisTrialN,trial_block_2.thisN,trial_block_2.thisIndex,trial_block_2.ran,rest_break.started,rest_break.stopped,end_break.started,end_break.stopped,key_resp_5.keys,key_resp_5.rt,key_resp_5.duration,trial_block_3.thisRepN,trial_block_3.thisTrialN,trial_block_3.thisN,trial_block_3.thisIndex,trial_block_3.ran,trial_block_4.thisRepN,trial_block_4.thisTrialN,trial_block_4.thisN,trial_block_4.thisIndex,trial_block_4.ran,questions_intro.started,questions_intro.stopped,enter_12.keys,enter_12.rt,enter_12.duration,question2.started,question2.stopped,question_doingbest.response,question_doingbest.rt,enter_15.keys,enter_15.rt,enter_15.duration,pattern.started,pattern.stopped,pattern_2.text,enter_17.keys,enter_17.rt,enter_17.duration,thankyou.started,thankyou.stopped,enter_14.keys,enter_14.rt,enter_14.duration
0.0001,16.9318,return,16.9275,,SPR24_043,20,Female,2024-04-12_12h53.57.458,jersey_experiment_5_v0,2023.2.2,Win32,84.74576271,,,,,,,,,,,,,,,,,,,,,,,,,,,,,,,,,,,,,,,,,,,,,,,,,,,,,,,,,,,,,,,,,,,,,,,,,,,,,,
,,,,,SPR24_043,20,Female,2024-04-12_12h53.57.458,jersey_experiment_5_v0,2023.2.2,Win32,84.74576271,16.9319,27.9115,return,10.965,,,,,,,,,,,,,,,,,,,,,,,,,,,,,,,,,,,,,,,,,,,,,,,,,,,,,,,,,,,,,,,,,,,,,,,,,,
,,,,,SPR24_043,20,Female,2024-04-12_12h53.57.458,jersey_experiment_5_v0,2023.2.2,Win32,84.74576271,,,,,,27.9116,33.0487,return,5.1013,,,,,,,,,,,,,,,,,,,,,,,,,,,,,,,,,,,,,,,,,,,,,,,,,,,,,,,,,,,,,,,,,,,,,
,,,,,SPR24_043,20,Female,2024-04-12_12h53.57.458,jersey_experiment_5_v0,2023.2.2,Win32,84.74576271,,,,,,,,,,,33.0487,53.0612,return,20.002,,,,,,,,,,,,,,,,,,,,,,,,,,,,,,,,,,,,,,,,,,,,,,,,,,,,,,,,,,,,,,,,
,,,,,SPR24_043,20,Female,2024-04-12_12h53.57.458,jersey_experiment_5_v0,2023.2.2,Win32,84.74576271,,,,,,,,,,,,,,,,53.0686,54.1196,54.1197,69.3202,return,5.9151,,68.88020833,0,0,0,25,1,FBP-YG-19.png,0.35,1.2,26,0.25,,,,,,,,,,,,,,,,,,,,,,,,,,,,,,,,,,,,,,,,,,,,,
,,,,,SPR24_043,20,Female,2024-04-12_12h53.57.458,jersey_experiment_5_v0,2023.2.2,Win32,84.74576271,,,,,,,,,,,,,,,,69.325,70.6263,70.6263,73.5439,return,1.2004,,79.16666667,0,1,1,6,1,FBP-OG-81.png,0.37,1.2,7,0.5,,,,,,,,,,,,,,,,,,,,,,,,,,,,,,,,,,,,,,,,,,,,,
,,,,,SPR24_043,20,Female,2024-04-12_12h53.57.458,jersey_experiment_5_v0,2023.2.2,Win32,84.74576271,,,,,,,,,,,,,,,,73.5442,74.8381,74.8382,77.4971,return,0.956,,39.19270833,0,2,2,1,1,FBP-OG-71.png,0.37,1.2,2,0.5,,,,,,,,,,,,,,,,,,,,,,,,,,,,,,,,,,,,,,,,,,,,,
,,,,,SPR24_043,20,Female,2024-04-12_12h53.57.458,jersey_experiment_5_v0,2023.2.2,Win32,84.74576271,,,,,,,,,,,,,,,,77.4974,78.7912,78.7912,81.0147,return,0.9286,,71.74479167,0,3,3,31,1,FBP-RB-17.png,0.37,1.2,32,0.5,,,,,,,,,,,,,,,,,,,,,,,,,,,,,,,,,,,,,,,,,,,,,
,,,,,SPR24_043,20,Female,2024-04-12_12h53.57.458,jersey_experiment_5_v0,2023.2.2,Win32,84.74576271,,,,,,,,,,,,,,,,81.015,82.0619,82.0619,84.7207,return,0.805,,72.91666667,0,4,4,15,1,FBP-YG-17.png,0.35,1.2,16,0.25,,,,,,,,,,,,,,,,,,,,,,,,,,,,,,,,,,,,,,,,,,,,,
,,,,,SPR24_043,20,Female,2024-04-12_12h53.57.458,jersey_experiment_5_v0,2023.2.2,Win32,84.74576271,,,,,,,,,,,,,,,,84.7209,86.0149,86.0149,88.4033,return,1.379,,68.88020833,0,5,5,40,1,FBP-RB-19.png,0.35,1.2,41,0.5,,,,,,,,,,,,,,,,,,,,,,,,,,,,,,,,,,,,,,,,,,,,,
,,,,,SPR24_043,20,Female,2024-04-12_12h53.57.458,jersey_experiment_5_v0,2023.2.2,Win32,84.74576271,,,,,,,,,,,,,,,,88.4036,89.4503,89.4503,94.1683,return,3.0593,,77.60416667,0,6,6,17,1,FBP-YG-17.png,0.4,1.2,18,0.25,,,,,,,,,,,,,,,,,,,,,,,,,,,,,,,,,,,,,,,,,,,,,
,,,,,SPR24_043,20,Female,2024-04-12_12h53.57.458,jersey_experiment_5_v0,2023.2.2,Win32,84.74576271,,,,,,,,,,,,,,,,94.1684,95.4622,95.4622,99.9215,return,3.1482,,91.53645833,0,7,7,34,1,FBP-RB-17.png,0.45,1.2,35,0.5,,,,,,,,,,,,,,,,,,,,,,,,,,,,,,,,,,,,,,,,,,,,,
,,,,,SPR24_043,20,Female,2024-04-12_12h53.57.458,jersey_experiment_5_v0,2023.2.2,Win32,84.74576271,,,,,,,,,,,,,,,,99.9217,101.2156,101.2157,102.7097,return,0.7555,,91.40625,0,8,8,4,1,FBP-OG-71.png,0.45,1.2,5,0.5,,,,,,,,,,,,,,,,,,,,,,,,,,,,,,,,,,,,,,,,,,,,,
,,,,,SPR24_043,20,Female,2024-04-12_12h53.57.458,jersey_experiment_5_v0,2023.2.2,Win32,84.74576271,,,,,,,,,,,,,,,,102.7099,103.7567,103.7567,108.4864,return,2.4706,,50.52083333,0,9,9,26,1,FBP-YG-19.png,0.37,1.2,27,0.25,,,,,,,,,,,,,,,,,,,,,,,,,,,,,,,,,,,,,,,,,,,,,
,,,,,SPR24_043,20,Female,2024-04-12_12h53.57.458,jersey_experiment_5_v0,2023.2.2,Win32,84.74576271,,,,,,,,,,,,,,,,108.4866,109.5334,109.5334,111.6159,return,0.8053,,83.33333333,0,10,10,28,1,FBP-YG-19.png,0.43,1.2,29,0.25,,,,,,,,,,,,,,,,,,,,,,,,,,,,,,,,,,,,,,,,,,,,,
,,,,,SPR24_043,20,Female,2024-04-12_12h53.57.458,jersey_experiment_5_v0,2023.2.2,Win32,84.74576271,,,,,,,,,,,,,,,,111.616,112.9101,112.9101,115.0749,return,1.4618,,81.77083333,0,11,11,13,1,FBP-OG-91.png,0.43,1.2,14,0.5,,,,,,,,,,,,,,,,,,,,,,,,,,,,,,,,,,,,,,,,,,,,,
,,,,,SPR24_043,20,Female,2024-04-12_12h53.57.458,jersey_experiment_5_v0,2023.2.2,Win32,84.74576271,,,,,,,,,,,,,,,,115.0751,116.1219,116.122,120.9692,return,3.1771,,61.84895833,0,12,12,22,1,FBP-YG-18.png,0.4,1.2,23,0.25,,,,,,,,,,,,,,,,,,,,,,,,,,,,,,,,,,,,,,,,,,,,,
,,,,,SPR24_043,20,Female,2024-04-12_12h53.57.458,jersey_experiment_5_v0,2023.2.2,Win32,84.74576271,,,,,,,,,,,,,,,,120.9694,122.2632,122.2633,125.4399,return,2.0884,,69.53125,0,13,13,42,1,FBP-RB-19.png,0.4,1.2,43,0.5,,,,,,,,,,,,,,,,,,,,,,,,,,,,,,,,,,,,,,,,,,,,,
,,,,,SPR24_043,20,Female,2024-04-12_12h53.57.458,jersey_experiment_5_v0,2023.2.2,Win32,84.74576271,,,,,,,,,,,,,,,,125.4401,126.487,126.4871,130.6401,return,2.197,,29.03645833,0,14,14,55,1,FBP-PT-19.png,0.35,1.2,56,0.25,,,,,,,,,,,,,,,,,,,,,,,,,,,,,,,,,,,,,,,,,,,,,
,,,,,SPR24_043,20,Female,2024-04-12_12h53.57.458,jersey_experiment_5_v0,2023.2.2,Win32,84.74576271,,,,,,,,,,,,,,,,130.6403,131.9342,131.9342,134.3109,return,0.9431,,36.06770833,0,15,15,32,1,FBP-RB-17.png,0.4,1.2,33,0.5,,,,,,,,,,,,,,,,,,,,,,,,,,,,,,,,,,,,,,,,,,,,,
,,,,,SPR24_043,20,Female,2024-04-12_12h53.57.458,jersey_experiment_5_v0,2023.2.2,Win32,84.74576271,,,,,,,,,,,,,,,,134.3112,135.358,135.358,138.1817,return,1.1533,,64.84375,0,16,16,48,1,FBP-PT-17.png,0.43,1.2,49,0.25,,,,,,,,,,,,,,,,,,,,,,,,,,,,,,,,,,,,,,,,,,,,,
,,,,,SPR24_043,20,Female,2024-04-12_12h53.57.458,jersey_experiment_5_v0,2023.2.2,Win32,84.74576271,,,,,,,,,,,,,,,,138.1819,139.2286,139.2286,141.3347,return,0.7063,,90.88541667,0,17,17,19,1,FBP-YG-17.png,0.45,1.2,20,0.25,,,,,,,,,,,,,,,,,,,,,,,,,,,,,,,,,,,,,,,,,,,,,
,,,,,SPR24_043,20,Female,2024-04-12_12h53.57.458,jersey_experiment_5_v0,2023.2.2,Win32,84.74576271,,,,,,,,,,,,,,,,141.3349,142.3816,142.3816,145.076,return,0.9106,,14.19270833,0,18,18,56,1,FBP-PT-19.png,0.37,1.2,57,0.25,,,,,,,,,,,,,,,,,,,,,,,,,,,,,,,,,,,,,,,,,,,,,
,,,,,SPR24_043,20,Female,2024-04-12_12h53.57.458,jersey_experiment_5_v0,2023.2.2,Win32,84.74576271,,,,,,,,,,,,,,,,145.0762,146.123,146.123,148.5701,return,0.7387,,32.8125,0,19,19,57,1,FBP-PT-19.png,0.4,1.2,58,0.25,,,,,,,,,,,,,,,,,,,,,,,,,,,,,,,,,,,,,,,,,,,,,
,,,,,SPR24_043,20,Female,2024-04-12_12h53.57.458,jersey_experiment_5_v0,2023.2.2,Win32,84.74576271,,,,,,,,,,,,,,,,148.5703,149.8643,149.8643,152.0526,return,0.7568,,28.64583333,0,20,20,5,1,FBP-OG-81.png,0.35,1.2,6,0.5,,,,,,,,,,,,,,,,,,,,,,,,,,,,,,,,,,,,,,,,,,,,,
,,,,,SPR24_043,20,Female,2024-04-12_12h53.57.458,jersey_experiment_5_v0,2023.2.2,Win32,84.74576271,,,,,,,,,,,,,,,,152.0528,153.0998,153.0998,155.4764,return,0.6275,,25.13020833,0,21,21,51,1,FBP-PT-18.png,0.37,1.2,52,0.25,,,,,,,,,,,,,,,,,,,,,,,,,,,,,,,,,,,,,,,,,,,,,
,,,,,SPR24_043,20,Female,2024-04-12_12h53.57.458,jersey_experiment_5_v0,2023.2.2,Win32,84.74576271,,,,,,,,,,,,,,,,155.4766,156.7705,156.7705,158.6763,return,0.6128,,76.30208333,0,22,22,43,1,FBP-RB-19.png,0.43,1.2,44,0.5,,,,,,,,,,,,,,,,,,,,,,,,,,,,,,,,,,,,,,,,,,,,,
,,,,,SPR24_043,20,Female,2024-04-12_12h53.57.458,jersey_experiment_5_v0,2023.2.2,Win32,84.74576271,,,,,,,,,,,,,,,,158.6765,159.7235,159.7235,164.0649,return,2.7348,,92.44791667,0,23,23,18,1,FBP-YG-17.png,0.43,1.2,19,0.25,,,,,,,,,,,,,,,,,,,,,,,,,,,,,,,,,,,,,,,,,,,,,
,,,,,SPR24_043,20,Female,2024-04-12_12h53.57.458,jersey_experiment_5_v0,2023.2.2,Win32,84.74576271,,,,,,,,,,,,,,,,164.0652,165.3591,165.3591,168.9358,return,1.8119,,67.83854167,0,24,24,12,1,FBP-OG-91.png,0.4,1.2,13,0.5,,,,,,,,,,,,,,,,,,,,,,,,,,,,,,,,,,,,,,,,,,,,,
,,,,,SPR24_043,20,Female,2024-04-12_12h53.57.458,jersey_experiment_5_v0,2023.2.2,Win32,84.74576271,,,,,,,,,,,,,,,,168.9359,170.2297,170.2297,173.1947,return,0.7208,,74.21875,0,25,25,33,1,FBP-RB-17.png,0.43,1.2,34,0.5,,,,,,,,,,,,,,,,,,,,,,,,,,,,,,,,,,,,,,,,,,,,,
,,,,,SPR24_043,20,Female,2024-04-12_12h53.57.458,jersey_experiment_5_v0,2023.2.2,Win32,84.74576271,,,,,,,,,,,,,,,,173.195,174.2416,174.2416,177.7476,return,1.1432,,46.35416667,0,26,26,52,1,FBP-PT-18.png,0.4,1.2,53,0.25,,,,,,,,,,,,,,,,,,,,,,,,,,,,,,,,,,,,,,,,,,,,,
,,,,,SPR24_043,20,Female,2024-04-12_12h53.57.458,jersey_experiment_5_v0,2023.2.2,Win32,84.74576271,,,,,,,,,,,,,,,,177.7479,179.0418,179.0419,180.5477,return,0.4989,,19.01041667,0,27,27,10,1,FBP-OG-91.png,0.35,1.2,11,0.5,,,,,,,,,,,,,,,,,,,,,,,,,,,,,,,,,,,,,,,,,,,,,
,,,,,SPR24_043,20,Female,2024-04-12_12h53.57.458,jersey_experiment_5_v0,2023.2.2,Win32,84.74576271,,,,,,,,,,,,,,,,180.5479,181.595,181.5951,182.9596,return,0.5248,,19.66145833,0,28,28,20,1,FBP-YG-18.png,0.35,1.2,21,0.25,,,,,,,,,,,,,,,,,,,,,,,,,,,,,,,,,,,,,,,,,,,,,
,,,,,SPR24_043,20,Female,2024-04-12_12h53.57.458,jersey_experiment_5_v0,2023.2.2,Win32,84.74576271,,,,,,,,,,,,,,,,182.9599,184.0068,184.0069,187.7128,return,0.9224,,72.65625,0,29,29,53,1,FBP-PT-18.png,0.43,1.2,54,0.25,,,,,,,,,,,,,,,,,,,,,,,,,,,,,,,,,,,,,,,,,,,,,
,,,,,SPR24_043,20,Female,2024-04-12_12h53.57.458,jersey_experiment_5_v0,2023.2.2,Win32,84.74576271,,,,,,,,,,,,,,,,187.713,188.7598,188.7598,193.4425,return,1.9906,,50.26041667,0,30,30,46,1,FBP-PT-17.png,0.37,1.2,47,0.25,,,,,,,,,,,,,,,,,,,,,,,,,,,,,,,,,,,,,,,,,,,,,
,,,,,SPR24_043,20,Female,2024-04-12_12h53.57.458,jersey_experiment_5_v0,2023.2.2,Win32,84.74576271,,,,,,,,,,,,,,,,193.4426,194.4895,194.4895,196.9602,return,0.7965,,91.40625,0,31,31,54,1,FBP-PT-18.png,0.45,1.2,55,0.25,,,,,,,,,,,,,,,,,,,,,,,,,,,,,,,,,,,,,,,,,,,,,
,,,,,SPR24_043,20,Female,2024-04-12_12h53.57.458,jersey_experiment_5_v0,2023.2.2,Win32,84.74576271,,,,,,,,,,,,,,,,196.9604,198.2543,198.2543,201.1839,return,0.3937,,60.80729167,0,32,32,36,1,FBP-RB-18.png,0.37,1.2,37,0.5,,,,,,,,,,,,,,,,,,,,,,,,,,,,,,,,,,,,,,,,,,,,,
,,,,,SPR24_043,20,Female,2024-04-12_12h53.57.458,jersey_experiment_5_v0,2023.2.2,Win32,84.74576271,,,,,,,,,,,,,,,,201.1841,202.2309,202.231,204.4544,return,0.6935,,91.92708333,0,33,33,24,1,FBP-YG-18.png,0.45,1.2,25,0.25,,,,,,,,,,,,,,,,,,,,,,,,,,,,,,,,,,,,,,,,,,,,,
,,,,,SPR24_043,20,Female,2024-04-12_12h53.57.458,jersey_experiment_5_v0,2023.2.2,Win32,84.74576271,,,,,,,,,,,,,,,,204.4547,205.5016,205.5017,208.9489,return,0.6154,,63.671875,0,34,34,47,1,FBP-PT-17.png,0.4,1.2,48,0.25,,,,,,,,,,,,,,,,,,,,,,,,,,,,,,,,,,,,,,,,,,,,,
,,,,,SPR24_043,20,Female,2024-04-12_12h53.57.458,jersey_experiment_5_v0,2023.2.2,Win32,84.74576271,,,,,,,,,,,,,,,,208.9491,210.2429,210.2429,213.2668,return,1.8296,,74.34895833,0,35,35,8,1,FBP-OG-81.png,0.43,1.2,9,0.5,,,,,,,,,,,,,,,,,,,,,,,,,,,,,,,,,,,,,,,,,,,,,
,,,,,SPR24_043,20,Female,2024-04-12_12h53.57.458,jersey_experiment_5_v0,2023.2.2,Win32,84.74576271,,,,,,,,,,,,,,,,213.267,214.5607,214.5608,217.9374,return,2.1484,,33.46354167,0,36,36,0,1,FBP-OG-71.png,0.35,1.2,1,0.5,,,,,,,,,,,,,,,,,,,,,,,,,,,,,,,,,,,,,,,,,,,,,
,,,,,SPR24_043,20,Female,2024-04-12_12h53.57.458,jersey_experiment_5_v0,2023.2.2,Win32,84.74576271,,,,,,,,,,,,,,,,217.9377,218.9843,218.9843,220.914,return,0.5216,,89.97395833,0,37,37,29,1,FBP-YG-19.png,0.45,1.2,30,0.25,,,,,,,,,,,,,,,,,,,,,,,,,,,,,,,,,,,,,,,,,,,,,
,,,,,SPR24_043,20,Female,2024-04-12_12h53.57.458,jersey_experiment_5_v0,2023.2.2,Win32,84.74576271,,,,,,,,,,,,,,,,220.9142,222.2082,222.2082,223.7377,return,0.5655,,87.890625,0,38,38,14,1,FBP-OG-91.png,0.45,1.2,15,0.5,,,,,,,,,,,,,,,,,,,,,,,,,,,,,,,,,,,,,,,,,,,,,
,,,,,SPR24_043,20,Female,2024-04-12_12h53.57.458,jersey_experiment_5_v0,2023.2.2,Win32,84.74576271,,,,,,,,,,,,,,,,223.7379,225.0317,225.0318,226.6319,return,0.5559,,93.09895833,0,39,39,3,1,FBP-OG-71.png,0.43,1.2,4,0.5,,,,,,,,,,,,,,,,,,,,,,,,,,,,,,,,,,,,,,,,,,,,,
,,,,,SPR24_043,20,Female,2024-04-12_12h53.57.458,jersey_experiment_5_v0,2023.2.2,Win32,84.74576271,,,,,,,,,,,,,,,,226.6322,227.6789,227.679,229.5613,return,0.574,,71.22395833,0,40,40,27,1,FBP-YG-19.png,0.4,1.2,28,0.25,,,,,,,,,,,,,,,,,,,,,,,,,,,,,,,,,,,,,,,,,,,,,
,,,,,SPR24_043,20,Female,2024-04-12_12h53.57.458,jersey_experiment_5_v0,2023.2.2,Win32,84.74576271,,,,,,,,,,,,,,,,229.5616,230.8555,230.8555,232.538,return,0.3672,,24.73958333,0,41,41,30,1,FBP-RB-17.png,0.35,1.2,31,0.5,,,,,,,,,,,,,,,,,,,,,,,,,,,,,,,,,,,,,,,,,,,,,
,,,,,SPR24_043,20,Female,2024-04-12_12h53.57.458,jersey_experiment_5_v0,2023.2.2,Win32,84.74576271,,,,,,,,,,,,,,,,232.5383,233.5849,233.585,235.3381,return,0.3537,,93.88020833,0,42,42,59,1,FBP-PT-19.png,0.45,1.2,60,0.25,,,,,,,,,,,,,,,,,,,,,,,,,,,,,,,,,,,,,,,,,,,,,
,,,,,SPR24_043,20,Female,2024-04-12_12h53.57.458,jersey_experiment_5_v0,2023.2.2,Win32,84.74576271,,,,,,,,,,,,,,,,235.3384,236.3849,236.385,237.5734,return,0.4244,,94.01041667,0,43,43,23,1,FBP-YG-18.png,0.43,1.2,24,0.25,,,,,,,,,,,,,,,,,,,,,,,,,,,,,,,,,,,,,,,,,,,,,
,,,,,SPR24_043,20,Female,2024-04-12_12h53.57.458,jersey_experiment_5_v0,2023.2.2,Win32,84.74576271,,,,,,,,,,,,,,,,237.5735,238.6204,238.6205,240.5853,return,0.9169,,49.34895833,0,44,44,16,1,FBP-YG-17.png,0.37,1.2,17,0.25,,,,,,,,,,,,,,,,,,,,,,,,,,,,,,,,,,,,,,,,,,,,,
,,,,,SPR24_043,20,Female,2024-04-12_12h53.57.458,jersey_experiment_5_v0,2023.2.2,Win32,84.74576271,,,,,,,,,,,,,,,,240.5856,241.6324,241.6324,246.9149,return,3.0293,,22.91666667,0,45,45,45,1,FBP-PT-17.png,0.35,1.2,46,0.25,,,,,,,,,,,,,,,,,,,,,,,,,,,,,,,,,,,,,,,,,,,,,
,,,,,SPR24_043,20,Female,2024-04-12_12h53.57.458,jersey_experiment_5_v0,2023.2.2,Win32,84.74576271,,,,,,,,,,,,,,,,246.9151,248.2092,248.2092,250.7621,return,1.3647,,26.953125,0,46,46,11,1,FBP-OG-91.png,0.37,1.2,12,0.5,,,,,,,,,,,,,,,,,,,,,,,,,,,,,,,,,,,,,,,,,,,,,
,,,,,SPR24_043,20,Female,2024-04-12_12h53.57.458,jersey_experiment_5_v0,2023.2.2,Win32,84.74576271,,,,,,,,,,,,,,,,250.7622,252.0561,252.0562,255.5623,return,2.6921,,31.90104167,0,47,47,35,1,FBP-RB-18.png,0.35,1.2,36,0.5,,,,,,,,,,,,,,,,,,,,,,,,,,,,,,,,,,,,,,,,,,,,,
,,,,,SPR24_043,20,Female,2024-04-12_12h53.57.458,jersey_experiment_5_v0,2023.2.2,Win32,84.74576271,,,,,,,,,,,,,,,,255.5625,256.8565,256.8565,258.527,return,0.3711,,87.23958333,0,48,48,39,1,FBP-RB-18.png,0.45,1.2,40,0.5,,,,,,,,,,,,,,,,,,,,,,,,,,,,,,,,,,,,,,,,,,,,,
,,,,,SPR24_043,20,Female,2024-04-12_12h53.57.458,jersey_experiment_5_v0,2023.2.2,Win32,84.74576271,,,,,,,,,,,,,,,,258.5273,259.5741,259.5741,261.4566,return,0.3345,,87.63020833,0,49,49,58,1,FBP-PT-19.png,0.43,1.2,59,0.25,,,,,,,,,,,,,,,,,,,,,,,,,,,,,,,,,,,,,,,,,,,,,
,,,,,SPR24_043,20,Female,2024-04-12_12h53.57.458,jersey_experiment_5_v0,2023.2.2,Win32,84.74576271,,,,,,,,,,,,,,,,261.4569,262.7507,262.7507,265.2567,return,1.2475,,69.01041667,0,50,50,37,1,FBP-RB-18.png,0.4,1.2,38,0.5,,,,,,,,,,,,,,,,,,,,,,,,,,,,,,,,,,,,,,,,,,,,,
,,,,,SPR24_043,20,Female,2024-04-12_12h53.57.458,jersey_experiment_5_v0,2023.2.2,Win32,84.74576271,,,,,,,,,,,,,,,,265.257,266.5509,266.5509,267.9274,return,0.7211,,64.453125,0,51,51,2,1,FBP-OG-71.png,0.4,1.2,3,0.5,,,,,,,,,,,,,,,,,,,,,,,,,,,,,,,,,,,,,,,,,,,,,
,,,,,SPR24_043,20,Female,2024-04-12_12h53.57.458,jersey_experiment_5_v0,2023.2.2,Win32,84.74576271,,,,,,,,,,,,,,,,267.9277,269.2217,269.2218,273.6571,return,2.0004,,68.75,0,52,52,7,1,FBP-OG-81.png,0.4,1.2,8,0.5,,,,,,,,,,,,,,,,,,,,,,,,,,,,,,,,,,,,,,,,,,,,,
,,,,,SPR24_043,20,Female,2024-04-12_12h53.57.458,jersey_experiment_5_v0,2023.2.2,Win32,84.74576271,,,,,,,,,,,,,,,,273.6573,274.9511,274.9512,276.7044,return,0.4437,,90.625,0,53,53,9,1,FBP-OG-81.png,0.45,1.2,10,0.5,,,,,,,,,,,,,,,,,,,,,,,,,,,,,,,,,,,,,,,,,,,,,
,,,,,SPR24_043,20,Female,2024-04-12_12h53.57.458,jersey_experiment_5_v0,2023.2.2,Win32,84.74576271,,,,,,,,,,,,,,,,276.7046,277.9984,277.9985,278.8338,return,0.2986,,90.234375,0,54,54,44,1,FBP-RB-19.png,0.45,1.2,45,0.5,,,,,,,,,,,,,,,,,,,,,,,,,,,,,,,,,,,,,,,,,,,,,
,,,,,SPR24_043,20,Female,2024-04-12_12h53.57.458,jersey_experiment_5_v0,2023.2.2,Win32,84.74576271,,,,,,,,,,,,,,,,278.8339,280.1278,280.1278,282.0222,return,0.2353,,49.34895833,0,55,55,41,1,FBP-RB-19.png,0.37,1.2,42,0.5,,,,,,,,,,,,,,,,,,,,,,,,,,,,,,,,,,,,,,,,,,,,,
,,,,,SPR24_043,20,Female,2024-04-12_12h53.57.458,jersey_experiment_5_v0,2023.2.2,Win32,84.74576271,,,,,,,,,,,,,,,,282.0224,283.3161,283.3161,284.7046,return,0.311,,61.06770833,0,56,56,38,1,FBP-RB-18.png,0.43,1.2,39,0.5,,,,,,,,,,,,,,,,,,,,,,,,,,,,,,,,,,,,,,,,,,,,,
,,,,,SPR24_043,20,Female,2024-04-12_12h53.57.458,jersey_experiment_5_v0,2023.2.2,Win32,84.74576271,,,,,,,,,,,,,,,,284.7048,285.7516,285.7516,289.1399,return,0.9548,,54.55729167,0,57,57,21,1,FBP-YG-18.png,0.37,1.2,22,0.25,,,,,,,,,,,,,,,,,,,,,,,,,,,,,,,,,,,,,,,,,,,,,
,,,,,SPR24_043,20,Female,2024-04-12_12h53.57.458,jersey_experiment_5_v0,2023.2.2,Win32,84.74576271,,,,,,,,,,,,,,,,289.1402,290.187,290.187,296.4226,return,5.0583,,39.19270833,0,58,58,50,1,FBP-PT-18.png,0.35,1.2,51,0.25,,,,,,,,,,,,,,,,,,,,,,,,,,,,,,,,,,,,,,,,,,,,,
,,,,,SPR24_043,20,Female,2024-04-12_12h53.57.458,jersey_experiment_5_v0,2023.2.2,Win32,84.74576271,,,,,,,,,,,,,,,,296.4228,297.4696,297.4696,300.2817,return,1.0124,,81.640625,0,59,59,49,1,FBP-PT-17.png,0.45,1.2,50,0.25,,,,,,,,,,,,,,,,,,,,,,,,,,,,,,,,,,,,,,,,,,,,,
,,,,,SPR24_043,20,Female,2024-04-12_12h53.57.458,jersey_experiment_5_v0,2023.2.2,Win32,84.74576271,,,,,,,,,,,,,,,,300.2837,301.3285,301.3285,303.0581,return,0.4978,,87.63020833,,,,,,FBP-YG-71.png,0.45,1.2,20,0.25,0,0,0,19,1,,,,,,,,,,,,,,,,,,,,,,,,,,,,,,,,,,,,,,,,
,,,,,SPR24_043,20,Female,2024-04-12_12h53.57.458,jersey_experiment_5_v0,2023.2.2,Win32,84.74576271,,,,,,,,,,,,,,,,303.0582,304.1052,304.1052,308.8583,return,0.2215,,34.24479167,,,,,,FBP-PT-71.png,0.37,1.2,47,0.25,0,1,1,46,1,,,,,,,,,,,,,,,,,,,,,,,,,,,,,,,,,,,,,,,,
,,,,,SPR24_043,20,Female,2024-04-12_12h53.57.458,jersey_experiment_5_v0,2023.2.2,Win32,84.74576271,,,,,,,,,,,,,,,,308.8586,309.9054,309.9055,311.3173,return,0.2968,,19.40104167,,,,,,FBP-PT-71.png,0.35,1.2,46,0.25,0,2,2,45,1,,,,,,,,,,,,,,,,,,,,,,,,,,,,,,,,,,,,,,,,
,,,,,SPR24_043,20,Female,2024-04-12_12h53.57.458,jersey_experiment_5_v0,2023.2.2,Win32,84.74576271,,,,,,,,,,,,,,,,311.3175,312.6114,312.6114,313.8,return,0.1976,,28.25520833,,,,,,FBP-RB-81.png,0.35,1.2,36,0.5,0,3,3,35,1,,,,,,,,,,,,,,,,,,,,,,,,,,,,,,,,,,,,,,,,
,,,,,SPR24_043,20,Female,2024-04-12_12h53.57.458,jersey_experiment_5_v0,2023.2.2,Win32,84.74576271,,,,,,,,,,,,,,,,313.8001,315.0938,315.0939,317.1882,return,0.4986,,66.66666667,,,,,,FBP-OG-19.png,0.4,1.2,13,0.5,0,4,4,12,1,,,,,,,,,,,,,,,,,,,,,,,,,,,,,,,,,,,,,,,,
,,,,,SPR24_043,20,Female,2024-04-12_12h53.57.458,jersey_experiment_5_v0,2023.2.2,Win32,84.74576271,,,,,,,,,,,,,,,,317.1884,318.4822,318.4822,319.6823,return,0.1944,,68.359375,,,,,,FBP-OG-17.png,0.4,1.2,3,0.5,0,5,5,2,1,,,,,,,,,,,,,,,,,,,,,,,,,,,,,,,,,,,,,,,,
,,,,,SPR24_043,20,Female,2024-04-12_12h53.57.458,jersey_experiment_5_v0,2023.2.2,Win32,84.74576271,,,,,,,,,,,,,,,,319.6825,320.9763,320.9763,322.5648,return,0.3536,,78.90625,,,,,,FBP-RB-91.png,0.45,1.2,45,0.5,0,6,6,44,1,,,,,,,,,,,,,,,,,,,,,,,,,,,,,,,,,,,,,,,,
,,,,,SPR24_043,20,Female,2024-04-12_12h53.57.458,jersey_experiment_5_v0,2023.2.2,Win32,84.74576271,,,,,,,,,,,,,,,,322.565,323.8588,323.8589,327.2238,return,1.215,,37.109375,,,,,,FBP-OG-18.png,0.35,1.2,6,0.5,0,7,7,5,1,,,,,,,,,,,,,,,,,,,,,,,,,,,,,,,,,,,,,,,,
,,,,,SPR24_043,20,Female,2024-04-12_12h53.57.458,jersey_experiment_5_v0,2023.2.2,Win32,84.74576271,,,,,,,,,,,,,,,,327.224,328.5179,328.5179,330.424,return,0.65,,89.32291667,,,,,,FBP-RB-71.png,0.45,1.2,35,0.5,0,8,8,34,1,,,,,,,,,,,,,,,,,,,,,,,,,,,,,,,,,,,,,,,,
,,,,,SPR24_043,20,Female,2024-04-12_12h53.57.458,jersey_experiment_5_v0,2023.2.2,Win32,84.74576271,,,,,,,,,,,,,,,,330.4242,331.718,331.7181,333.5064,return,0.4274,,29.55729167,,,,,,FBP-OG-19.png,0.35,1.2,11,0.5,0,9,9,10,1,,,,,,,,,,,,,,,,,,,,,,,,,,,,,,,,,,,,,,,,
,,,,,SPR24_043,20,Female,2024-04-12_12h53.57.458,jersey_experiment_5_v0,2023.2.2,Win32,84.74576271,,,,,,,,,,,,,,,,333.5066,334.5535,334.5536,337.5064,return,0.4029,,31.51041667,,,,,,FBP-YG-81.png,0.35,1.2,21,0.25,0,10,10,20,1,,,,,,,,,,,,,,,,,,,,,,,,,,,,,,,,,,,,,,,,
,,,,,SPR24_043,20,Female,2024-04-12_12h53.57.458,jersey_experiment_5_v0,2023.2.2,Win32,84.74576271,,,,,,,,,,,,,,,,337.5066,338.5535,338.5535,340.4831,return,0.1554,,49.21875,,,,,,FBP-YG-71.png,0.4,1.2,18,0.25,0,11,11,17,1,,,,,,,,,,,,,,,,,,,,,,,,,,,,,,,,,,,,,,,,
,,,,,SPR24_043,20,Female,2024-04-12_12h53.57.458,jersey_experiment_5_v0,2023.2.2,Win32,84.74576271,,,,,,,,,,,,,,,,340.4832,341.5301,341.5301,342.8831,return,0.193,,81.11979167,,,,,,FBP-YG-91.png,0.45,1.2,30,0.25,0,12,12,29,1,,,,,,,,,,,,,,,,,,,,,,,,,,,,,,,,,,,,,,,,
,,,,,SPR24_043,20,Female,2024-04-12_12h53.57.458,jersey_experiment_5_v0,2023.2.2,Win32,84.74576271,,,,,,,,,,,,,,,,342.8834,343.9302,343.9303,345.3302,return,0.2976,,87.36979167,,,,,,FBP-YG-81.png,0.43,1.2,24,0.25,0,13,13,23,1,,,,,,,,,,,,,,,,,,,,,,,,,,,,,,,,,,,,,,,,
,,,,,SPR24_043,20,Female,2024-04-12_12h53.57.458,jersey_experiment_5_v0,2023.2.2,Win32,84.74576271,,,,,,,,,,,,,,,,345.3304,346.3771,346.3772,349.0715,return,1.1708,,62.36979167,,,,,,FBP-YG-91.png,0.4,1.2,28,0.25,0,14,14,27,1,,,,,,,,,,,,,,,,,,,,,,,,,,,,,,,,,,,,,,,,
,,,,,SPR24_043,20,Female,2024-04-12_12h53.57.458,jersey_experiment_5_v0,2023.2.2,Win32,84.74576271,,,,,,,,,,,,,,,,349.0717,350.3656,350.3657,351.5777,return,0.1414,,61.328125,,,,,,FBP-OG-19.png,0.45,1.2,15,0.5,0,15,15,14,1,,,,,,,,,,,,,,,,,,,,,,,,,,,,,,,,,,,,,,,,
,,,,,SPR24_043,20,Female,2024-04-12_12h53.57.458,jersey_experiment_5_v0,2023.2.2,Win32,84.74576271,,,,,,,,,,,,,,,,351.578,352.6246,352.6247,354.2718,return,0.3148,,44.66145833,,,,,,FBP-YG-91.png,0.37,1.2,27,0.25,0,16,16,26,1,,,,,,,,,,,,,,,,,,,,,,,,,,,,,,,,,,,,,,,,
,,,,,SPR24_043,20,Female,2024-04-12_12h53.57.458,jersey_experiment_5_v0,2023.2.2,Win32,84.74576271,,,,,,,,,,,,,,,,354.272,355.5659,355.5659,358.0014,return,0.9928,,82.55208333,,,,,,FBP-OG-17.png,0.45,1.2,5,0.5,0,17,17,4,1,,,,,,,,,,,,,,,,,,,,,,,,,,,,,,,,,,,,,,,,
,,,,,SPR24_043,20,Female,2024-04-12_12h53.57.458,jersey_experiment_5_v0,2023.2.2,Win32,84.74576271,,,,,,,,,,,,,,,,358.0016,359.0483,359.0483,361.5074,return,0.1433,,37.63020833,,,,,,FBP-PT-71.png,0.4,1.2,48,0.25,0,18,18,47,1,,,,,,,,,,,,,,,,,,,,,,,,,,,,,,,,,,,,,,,,
,,,,,SPR24_043,20,Female,2024-04-12_12h53.57.458,jersey_experiment_5_v0,2023.2.2,Win32,84.74576271,,,,,,,,,,,,,,,,361.5077,362.5543,362.5544,367.5782,return,3.2388,,72.00520833,,,,,,FBP-PT-91.png,0.45,1.2,60,0.25,0,19,19,59,1,,,,,,,,,,,,,,,,,,,,,,,,,,,,,,,,,,,,,,,,
,,,,,SPR24_043,20,Female,2024-04-12_12h53.57.458,jersey_experiment_5_v0,2023.2.2,Win32,84.74576271,,,,,,,,,,,,,,,,367.5784,368.8723,368.8723,370.5783,return,1.2298,,73.95833333,,,,,,FBP-RB-81.png,0.43,1.2,39,0.5,0,20,20,38,1,,,,,,,,,,,,,,,,,,,,,,,,,,,,,,,,,,,,,,,,
,,,,,SPR24_043,20,Female,2024-04-12_12h53.57.458,jersey_experiment_5_v0,2023.2.2,Win32,84.74576271,,,,,,,,,,,,,,,,370.5785,371.6253,371.6254,373.002,return,0.2679,,80.33854167,,,,,,FBP-PT-91.png,0.43,1.2,59,0.25,0,21,21,58,1,,,,,,,,,,,,,,,,,,,,,,,,,,,,,,,,,,,,,,,,
,,,,,SPR24_043,20,Female,2024-04-12_12h53.57.458,jersey_experiment_5_v0,2023.2.2,Win32,84.74576271,,,,,,,,,,,,,,,,373.0021,374.2959,374.2959,376.1431,return,0.1385,,62.109375,,,,,,FBP-RB-91.png,0.4,1.2,43,0.5,0,22,22,42,1,,,,,,,,,,,,,,,,,,,,,,,,,,,,,,,,,,,,,,,,
,,,,,SPR24_043,20,Female,2024-04-12_12h53.57.458,jersey_experiment_5_v0,2023.2.2,Win32,84.74576271,,,,,,,,,,,,,,,,376.1433,377.4373,377.4373,379.4962,return,1.045,,71.484375,,,,,,FBP-OG-18.png,0.45,1.2,10,0.5,0,23,23,9,1,,,,,,,,,,,,,,,,,,,,,,,,,,,,,,,,,,,,,,,,
,,,,,SPR24_043,20,Female,2024-04-12_12h53.57.458,jersey_experiment_5_v0,2023.2.2,Win32,84.74576271,,,,,,,,,,,,,,,,379.4965,380.5432,380.5434,382.1787,return,0.2968,,35.9375,,,,,,FBP-YG-71.png,0.35,1.2,16,0.25,0,24,24,15,1,,,,,,,,,,,,,,,,,,,,,,,,,,,,,,,,,,,,,,,,
,,,,,SPR24_043,20,Female,2024-04-12_12h53.57.458,jersey_experiment_5_v0,2023.2.2,Win32,84.74576271,,,,,,,,,,,,,,,,382.1789,383.2258,383.2258,384.3904,return,0.128,,50.52083333,,,,,,FBP-PT-81.png,0.43,1.2,54,0.25,0,25,25,53,1,,,,,,,,,,,,,,,,,,,,,,,,,,,,,,,,,,,,,,,,
,,,,,SPR24_043,20,Female,2024-04-12_12h53.57.458,jersey_experiment_5_v0,2023.2.2,Win32,84.74576271,,,,,,,,,,,,,,,,384.3905,385.4376,385.4376,388.9436,return,0.9851,,57.421875,,,,,,FBP-PT-91.png,0.4,1.2,58,0.25,0,26,26,57,1,,,,,,,,,,,,,,,,,,,,,,,,,,,,,,,,,,,,,,,,
,,,,,SPR24_043,20,Female,2024-04-12_12h53.57.458,jersey_experiment_5_v0,2023.2.2,Win32,84.74576271,,,,,,,,,,,,,,,,388.9439,389.9906,389.9906,392.9319,return,1.6985,,77.08333333,,,,,,FBP-PT-81.png,0.45,1.2,55,0.25,0,27,27,54,1,,,,,,,,,,,,,,,,,,,,,,,,,,,,,,,,,,,,,,,,
,,,,,SPR24_043,20,Female,2024-04-12_12h53.57.458,jersey_experiment_5_v0,2023.2.2,Win32,84.74576271,,,,,,,,,,,,,,,,392.9321,394.2261,394.2261,395.8498,return,0.645,,57.94270833,,,,,,FBP-RB-71.png,0.4,1.2,33,0.5,0,28,28,32,1,,,,,,,,,,,,,,,,,,,,,,,,,,,,,,,,,,,,,,,,
,,,,,SPR24_043,20,Female,2024-04-12_12h53.57.458,jersey_experiment_5_v0,2023.2.2,Win32,84.74576271,,,,,,,,,,,,,,,,395.8501,396.8969,396.8969,398.8969,return,0.405,,18.09895833,,,,,,FBP-PT-91.png,0.35,1.2,56,0.25,0,29,29,55,1,,,,,,,,,,,,,,,,,,,,,,,,,,,,,,,,,,,,,,,,
,,,,,SPR24_043,20,Female,2024-04-12_12h53.57.458,jersey_experiment_5_v0,2023.2.2,Win32,84.74576271,,,,,,,,,,,,,,,,398.8971,400.191,400.1911,401.191,return,0.1277,,24.86979167,,,,,,FBP-RB-91.png,0.35,1.2,41,0.5,0,30,30,40,1,,,,,,,,,,,,,,,,,,,,,,,,,,,,,,,,,,,,,,,,
,,,,,SPR24_043,20,Female,2024-04-12_12h53.57.458,jersey_experiment_5_v0,2023.2.2,Win32,84.74576271,,,,,,,,,,,,,,,,401.1912,402.4852,402.4852,407.6503,return,0.8982,,69.53125,,,,,,FBP-OG-19.png,0.43,1.2,14,0.5,0,31,31,13,1,,,,,,,,,,,,,,,,,,,,,,,,,,,,,,,,,,,,,,,,
,,,,,SPR24_043,20,Female,2024-04-12_12h53.57.458,jersey_experiment_5_v0,2023.2.2,Win32,84.74576271,,,,,,,,,,,,,,,,407.6504,408.9443,408.9443,410.3562,return,0.2042,,88.15104167,,,,,,FBP-OG-17.png,0.43,1.2,4,0.5,0,32,32,3,1,,,,,,,,,,,,,,,,,,,,,,,,,,,,,,,,,,,,,,,,
,,,,,SPR24_043,20,Female,2024-04-12_12h53.57.458,jersey_experiment_5_v0,2023.2.2,Win32,84.74576271,,,,,,,,,,,,,,,,410.3564,411.6505,411.6506,413.8269,return,0.5087,,57.8125,,,,,,FBP-OG-18.png,0.4,1.2,8,0.5,0,33,33,7,1,,,,,,,,,,,,,,,,,,,,,,,,,,,,,,,,,,,,,,,,
,,,,,SPR24_043,20,Female,2024-04-12_12h53.57.458,jersey_experiment_5_v0,2023.2.2,Win32,84.74576271,,,,,,,,,,,,,,,,413.8272,414.8739,414.8739,416.1797,return,0.2016,,31.38020833,,,,,,FBP-YG-81.png,0.37,1.2,22,0.25,0,34,34,21,1,,,,,,,,,,,,,,,,,,,,,,,,,,,,,,,,,,,,,,,,
,,,,,SPR24_043,20,Female,2024-04-12_12h53.57.458,jersey_experiment_5_v0,2023.2.2,Win32,84.74576271,,,,,,,,,,,,,,,,416.1799,417.4739,417.4739,420.4741,return,0.188,,27.86458333,,,,,,FBP-OG-17.png,0.37,1.2,2,0.5,0,35,35,1,1,,,,,,,,,,,,,,,,,,,,,,,,,,,,,,,,,,,,,,,,
,,,,,SPR24_043,20,Female,2024-04-12_12h53.57.458,jersey_experiment_5_v0,2023.2.2,Win32,84.74576271,,,,,,,,,,,,,,,,420.4744,421.7684,421.7684,422.9684,return,0.1649,,41.27604167,,,,,,FBP-RB-71.png,0.35,1.2,31,0.5,0,36,36,30,1,,,,,,,,,,,,,,,,,,,,,,,,,,,,,,,,,,,,,,,,
,,,,,SPR24_043,20,Female,2024-04-12_12h53.57.458,jersey_experiment_5_v0,2023.2.2,Win32,84.74576271,,,,,,,,,,,,,,,,422.9686,424.2624,424.2625,425.1569,return,0.1798,,33.72395833,,,,,,FBP-OG-19.png,0.37,1.2,12,0.5,0,37,37,11,1,,,,,,,,,,,,,,,,,,,,,,,,,,,,,,,,,,,,,,,,
,,,,,SPR24_043,20,Female,2024-04-12_12h53.57.458,jersey_experiment_5_v0,2023.2.2,Win32,84.74576271,,,,,,,,,,,,,,,,425.1572,426.4507,426.4508,427.8157,return,0.438,,81.38020833,,,,,,FBP-RB-81.png,0.45,1.2,40,0.5,0,38,38,39,1,,,,,,,,,,,,,,,,,,,,,,,,,,,,,,,,,,,,,,,,
,,,,,SPR24_043,20,Female,2024-04-12_12h53.57.458,jersey_experiment_5_v0,2023.2.2,Win32,84.74576271,,,,,,,,,,,,,,,,427.816,429.1098,429.1098,430.2981,return,0.1648,,88.02083333,,,,,,FBP-RB-71.png,0.43,1.2,34,0.5,0,39,39,33,1,,,,,,,,,,,,,,,,,,,,,,,,,,,,,,,,,,,,,,,,
,,,,,SPR24_043,20,Female,2024-04-12_12h53.57.458,jersey_experiment_5_v0,2023.2.2,Win32,84.74576271,,,,,,,,,,,,,,,,430.2984,431.3451,431.3452,432.9332,return,0.4266,,28.90625,,,,,,FBP-PT-81.png,0.35,1.2,51,0.25,0,40,40,50,1,,,,,,,,,,,,,,,,,,,,,,,,,,,,,,,,,,,,,,,,
,,,,,SPR24_043,20,Female,2024-04-12_12h53.57.458,jersey_experiment_5_v0,2023.2.2,Win32,84.74576271,,,,,,,,,,,,,,,,432.9335,434.2277,434.2277,437.5687,return,1.1228,,77.734375,,,,,,FBP-RB-91.png,0.43,1.2,44,0.5,0,41,41,43,1,,,,,,,,,,,,,,,,,,,,,,,,,,,,,,,,,,,,,,,,
,,,,,SPR24_043,20,Female,2024-04-12_12h53.57.458,jersey_experiment_5_v0,2023.2.2,Win32,84.74576271,,,,,,,,,,,,,,,,437.5689,438.863,438.863,440.2632,return,0.3058,,46.74479167,,,,,,FBP-OG-18.png,0.37,1.2,7,0.5,0,42,42,6,1,,,,,,,,,,,,,,,,,,,,,,,,,,,,,,,,,,,,,,,,
,,,,,SPR24_043,20,Female,2024-04-12_12h53.57.458,jersey_experiment_5_v0,2023.2.2,Win32,84.74576271,,,,,,,,,,,,,,,,440.2633,441.5575,441.5575,443.1574,return,0.9089,,44.40104167,,,,,,FBP-RB-71.png,0.37,1.2,32,0.5,0,43,43,31,1,,,,,,,,,,,,,,,,,,,,,,,,,,,,,,,,,,,,,,,,
,,,,,SPR24_043,20,Female,2024-04-12_12h53.57.458,jersey_experiment_5_v0,2023.2.2,Win32,84.74576271,,,,,,,,,,,,,,,,443.1577,444.2044,444.2044,447.7694,return,2.0386,,85.9375,,,,,,FBP-PT-71.png,0.45,1.2,50,0.25,0,44,44,49,1,,,,,,,,,,,,,,,,,,,,,,,,,,,,,,,,,,,,,,,,
,,,,,SPR24_043,20,Female,2024-04-12_12h53.57.458,jersey_experiment_5_v0,2023.2.2,Win32,84.74576271,,,,,,,,,,,,,,,,447.7696,448.8165,448.8166,450.3106,return,0.3441,,94.66145833,,,,,,FBP-YG-71.png,0.43,1.2,19,0.25,0,45,45,18,1,,,,,,,,,,,,,,,,,,,,,,,,,,,,,,,,,,,,,,,,
,,,,,SPR24_043,20,Female,2024-04-12_12h53.57.458,jersey_experiment_5_v0,2023.2.2,Win32,84.74576271,,,,,,,,,,,,,,,,450.3109,451.6047,451.6048,452.9458,return,0.183,,71.35416667,,,,,,FBP-RB-81.png,0.4,1.2,38,0.5,0,46,46,37,1,,,,,,,,,,,,,,,,,,,,,,,,,,,,,,,,,,,,,,,,
,,,,,SPR24_043,20,Female,2024-04-12_12h53.57.458,jersey_experiment_5_v0,2023.2.2,Win32,84.74576271,,,,,,,,,,,,,,,,452.946,453.993,453.993,455.2049,return,0.109,,45.18229167,,,,,,FBP-YG-91.png,0.35,1.2,26,0.25,0,47,47,25,1,,,,,,,,,,,,,,,,,,,,,,,,,,,,,,,,,,,,,,,,
,,,,,SPR24_043,20,Female,2024-04-12_12h53.57.458,jersey_experiment_5_v0,2023.2.2,Win32,84.74576271,,,,,,,,,,,,,,,,455.2052,456.4991,456.4992,458.1228,return,0.39,,33.07291667,,,,,,FBP-OG-17.png,0.35,1.2,1,0.5,0,48,48,0,1,,,,,,,,,,,,,,,,,,,,,,,,,,,,,,,,,,,,,,,,
,,,,,SPR24_043,20,Female,2024-04-12_12h53.57.458,jersey_experiment_5_v0,2023.2.2,Win32,84.74576271,,,,,,,,,,,,,,,,458.123,459.1696,459.1696,461.2051,return,1.036,,34.89583333,,,,,,FBP-PT-91.png,0.37,1.2,57,0.25,0,49,49,56,1,,,,,,,,,,,,,,,,,,,,,,,,,,,,,,,,,,,,,,,,
,,,,,SPR24_043,20,Female,2024-04-12_12h53.57.458,jersey_experiment_5_v0,2023.2.2,Win32,84.74576271,,,,,,,,,,,,,,,,461.2053,462.252,462.252,463.8289,return,0.1772,,89.0625,,,,,,FBP-YG-81.png,0.45,1.2,25,0.25,0,50,50,24,1,,,,,,,,,,,,,,,,,,,,,,,,,,,,,,,,,,,,,,,,
,,,,,SPR24_043,20,Female,2024-04-12_12h53.57.458,jersey_experiment_5_v0,2023.2.2,Win32,84.74576271,,,,,,,,,,,,,,,,463.8291,465.1228,465.1229,466.3465,return,0.094,,49.86979167,,,,,,FBP-RB-91.png,0.37,1.2,42,0.5,0,51,51,41,1,,,,,,,,,,,,,,,,,,,,,,,,,,,,,,,,,,,,,,,,
,,,,,SPR24_043,20,Female,2024-04-12_12h53.57.458,jersey_experiment_5_v0,2023.2.2,Win32,84.74576271,,,,,,,,,,,,,,,,466.3467,467.3935,467.3935,469.3817,return,0.8028,,63.80208333,,,,,,FBP-PT-81.png,0.4,1.2,53,0.25,0,52,52,52,1,,,,,,,,,,,,,,,,,,,,,,,,,,,,,,,,,,,,,,,,
,,,,,SPR24_043,20,Female,2024-04-12_12h53.57.458,jersey_experiment_5_v0,2023.2.2,Win32,84.74576271,,,,,,,,,,,,,,,,469.382,470.6759,470.6759,476.2762,return,3.096,,83.72395833,,,,,,FBP-OG-18.png,0.43,1.2,9,0.5,0,53,53,8,1,,,,,,,,,,,,,,,,,,,,,,,,,,,,,,,,,,,,,,,,
,,,,,SPR24_043,20,Female,2024-04-12_12h53.57.458,jersey_experiment_5_v0,2023.2.2,Win32,84.74576271,,,,,,,,,,,,,,,,476.2808,477.3233,477.3233,478.8999,return,0.6508,,90.625,,,,,,FBP-YG-81.png,0.4,1.2,23,0.25,0,54,54,22,1,,,,,,,,,,,,,,,,,,,,,,,,,,,,,,,,,,,,,,,,
,,,,,SPR24_043,20,Female,2024-04-12_12h53.57.458,jersey_experiment_5_v0,2023.2.2,Win32,84.74576271,,,,,,,,,,,,,,,,478.9002,479.9468,479.9468,481.994,return,0.212,,48.95833333,,,,,,FBP-YG-71.png,0.37,1.2,17,0.25,0,55,55,16,1,,,,,,,,,,,,,,,,,,,,,,,,,,,,,,,,,,,,,,,,
,,,,,SPR24_043,20,Female,2024-04-12_12h53.57.458,jersey_experiment_5_v0,2023.2.2,Win32,84.74576271,,,,,,,,,,,,,,,,481.9942,483.0411,483.0412,484.2647,return,0.0848,,21.09375,,,,,,FBP-PT-81.png,0.37,1.2,52,0.25,0,56,56,51,1,,,,,,,,,,,,,,,,,,,,,,,,,,,,,,,,,,,,,,,,
,,,,,SPR24_043,20,Female,2024-04-12_12h53.57.458,jersey_experiment_5_v0,2023.2.2,Win32,84.74576271,,,,,,,,,,,,,,,,484.265,485.559,485.5591,486.5942,return,0.1355,,29.94791667,,,,,,FBP-RB-81.png,0.37,1.2,37,0.5,0,57,57,36,1,,,,,,,,,,,,,,,,,,,,,,,,,,,,,,,,,,,,,,,,
,,,,,SPR24_043,20,Female,2024-04-12_12h53.57.458,jersey_experiment_5_v0,2023.2.2,Win32,84.74576271,,,,,,,,,,,,,,,,486.5945,487.6413,487.6414,489.6532,return,0.3065,,56.90104167,,,,,,FBP-PT-71.png,0.43,1.2,49,0.25,0,58,58,48,1,,,,,,,,,,,,,,,,,,,,,,,,,,,,,,,,,,,,,,,,
,,,,,SPR24_043,20,Female,2024-04-12_12h53.57.458,jersey_experiment_5_v0,2023.2.2,Win32,84.74576271,,,,,,,,,,,,,,,,489.6534,490.7002,490.7002,492.4886,return,0.1976,,69.27083333,,,,,,FBP-YG-91.png,0.43,1.2,29,0.25,0,59,59,28,1,,,,,,,,,,,,,,,,,,,,,,,,,,,,,,,,,,,,,,,,
,,,,,SPR24_043,20,Female,2024-04-12_12h53.57.458,jersey_experiment_5_v0,2023.2.2,Win32,84.74576271,,,,,,,,,,,,,,,,,,,,,,,,,,,,,,,,,,,,,,,492.489,612.4817,,,,,,,,,,,,,,,,,,,,,,,,,,,,,,,,,,,,,,
,,,,,SPR24_043,20,Female,2024-04-12_12h53.57.458,jersey_experiment_5_v0,2023.2.2,Win32,84.74576271,,,,,,,,,,,,,,,,,,,,,,,,,,,,,,,,,,,,,,,,,612.4818,632.0352,return,19.5456,,,,,,,,,,,,,,,,,,,,,,,,,,,,,,,,,,
,,,,,SPR24_043,20,Female,2024-04-12_12h53.57.458,jersey_experiment_5_v0,2023.2.2,Win32,84.74576271,,,,,,,,,,,,,,,,632.0408,633.3406,633.3407,636.3409,return,0.7769,,36.97916667,,,,,,FBP-PT-18.png,0.4,1.2,53,0.5,,,,,,,,,,,,,0,0,0,52,1,,,,,,,,,,,,,,,,,,,,,,,,,,,,
,,,,,SPR24_043,20,Female,2024-04-12_12h53.57.458,jersey_experiment_5_v0,2023.2.2,Win32,84.74576271,,,,,,,,,,,,,,,,636.3412,637.388,637.388,640.341,return,1.5064,,71.74479167,,,,,,FBP-OG-71.png,0.43,1.2,4,0.25,,,,,,,,,,,,,0,1,1,3,1,,,,,,,,,,,,,,,,,,,,,,,,,,,,
,,,,,SPR24_043,20,Female,2024-04-12_12h53.57.458,jersey_experiment_5_v0,2023.2.2,Win32,84.74576271,,,,,,,,,,,,,,,,640.3413,641.6353,641.6354,642.7529,return,0.525,,65.234375,,,,,,FBP-PT-18.png,0.43,1.2,54,0.5,,,,,,,,,,,,,0,2,2,53,1,,,,,,,,,,,,,,,,,,,,,,,,,,,,
,,,,,SPR24_043,20,Female,2024-04-12_12h53.57.458,jersey_experiment_5_v0,2023.2.2,Win32,84.74576271,,,,,,,,,,,,,,,,642.7532,643.8002,643.8002,646.1295,return,0.3476,,37.5,,,,,,FBP-RB-18.png,0.35,1.2,36,0.25,,,,,,,,,,,,,0,3,3,35,1,,,,,,,,,,,,,,,,,,,,,,,,,,,,
,,,,,SPR24_043,20,Female,2024-04-12_12h53.57.458,jersey_experiment_5_v0,2023.2.2,Win32,84.74576271,,,,,,,,,,,,,,,,646.1298,647.4236,647.4237,648.6589,return,0.1793,,33.72395833,,,,,,FBP-YG-17.png,0.35,1.2,16,0.5,,,,,,,,,,,,,0,4,4,15,1,,,,,,,,,,,,,,,,,,,,,,,,,,,,
,,,,,SPR24_043,20,Female,2024-04-12_12h53.57.458,jersey_experiment_5_v0,2023.2.2,Win32,84.74576271,,,,,,,,,,,,,,,,648.6591,649.706,649.7061,652.1533,return,1.6146,,56.25,,,,,,FBP-RB-17.png,0.4,1.2,33,0.25,,,,,,,,,,,,,0,5,5,32,1,,,,,,,,,,,,,,,,,,,,,,,,,,,,
,,,,,SPR24_043,20,Female,2024-04-12_12h53.57.458,jersey_experiment_5_v0,2023.2.2,Win32,84.74576271,,,,,,,,,,,,,,,,652.1535,653.2004,653.2004,655.0708,return,0.7595,,75.13020833,,,,,,FBP-OG-91.png,0.45,1.2,15,0.25,,,,,,,,,,,,,0,6,6,14,1,,,,,,,,,,,,,,,,,,,,,,,,,,,,
,,,,,SPR24_043,20,Female,2024-04-12_12h53.57.458,jersey_experiment_5_v0,2023.2.2,Win32,84.74576271,,,,,,,,,,,,,,,,655.071,656.1182,656.1183,659.024,return,0.547,,73.95833333,,,,,,FBP-RB-17.png,0.45,1.2,35,0.25,,,,,,,,,,,,,0,7,7,34,1,,,,,,,,,,,,,,,,,,,,,,,,,,,,
,,,,,SPR24_043,20,Female,2024-04-12_12h53.57.458,jersey_experiment_5_v0,2023.2.2,Win32,84.74576271,,,,,,,,,,,,,,,,659.0243,660.3182,660.3183,663.5536,return,2.1713,,78.25520833,,,,,,FBP-YG-18.png,0.4,1.2,23,0.5,,,,,,,,,,,,,0,8,8,22,1,,,,,,,,,,,,,,,,,,,,,,,,,,,,
,,,,,SPR24_043,20,Female,2024-04-12_12h53.57.458,jersey_experiment_5_v0,2023.2.2,Win32,84.74576271,,,,,,,,,,,,,,,,663.5539,664.6006,664.6006,667.3776,return,1.1953,,32.94270833,,,,,,FBP-RB-17.png,0.35,1.2,31,0.25,,,,,,,,,,,,,0,9,9,30,1,,,,,,,,,,,,,,,,,,,,,,,,,,,,
,,,,,SPR24_043,20,Female,2024-04-12_12h53.57.458,jersey_experiment_5_v0,2023.2.2,Win32,84.74576271,,,,,,,,,,,,,,,,667.3778,668.6714,668.6715,671.142,return,1.6712,,84.63541667,,,,,,FBP-PT-19.png,0.43,1.2,59,0.5,,,,,,,,,,,,,0,10,10,58,1,,,,,,,,,,,,,,,,,,,,,,,,,,,,
,,,,,SPR24_043,20,Female,2024-04-12_12h53.57.458,jersey_experiment_5_v0,2023.2.2,Win32,84.74576271,,,,,,,,,,,,,,,,671.1423,672.1891,672.1892,673.3307,return,0.2386,,72.39583333,,,,,,FBP-RB-19.png,0.4,1.2,43,0.25,,,,,,,,,,,,,0,11,11,42,1,,,,,,,,,,,,,,,,,,,,,,,,,,,,
,,,,,SPR24_043,20,Female,2024-04-12_12h53.57.458,jersey_experiment_5_v0,2023.2.2,Win32,84.74576271,,,,,,,,,,,,,,,,673.3309,674.3776,674.3776,676.307,return,0.1466,,61.58854167,,,,,,FBP-RB-19.png,0.37,1.2,42,0.25,,,,,,,,,,,,,0,12,12,41,1,,,,,,,,,,,,,,,,,,,,,,,,,,,,
,,,,,SPR24_043,20,Female,2024-04-12_12h53.57.458,jersey_experiment_5_v0,2023.2.2,Win32,84.74576271,,,,,,,,,,,,,,,,676.3072,677.354,677.3541,678.4838,return,0.1577,,34.375,,,,,,FBP-OG-91.png,0.37,1.2,12,0.25,,,,,,,,,,,,,0,13,13,11,1,,,,,,,,,,,,,,,,,,,,,,,,,,,,
,,,,,SPR24_043,20,Female,2024-04-12_12h53.57.458,jersey_experiment_5_v0,2023.2.2,Win32,84.74576271,,,,,,,,,,,,,,,,678.484,679.5306,679.5306,681.0486,return,0.1091,,32.03125,,,,,,FBP-RB-18.png,0.37,1.2,37,0.25,,,,,,,,,,,,,0,14,14,36,1,,,,,,,,,,,,,,,,,,,,,,,,,,,,
,,,,,SPR24_043,20,Female,2024-04-12_12h53.57.458,jersey_experiment_5_v0,2023.2.2,Win32,84.74576271,,,,,,,,,,,,,,,,681.0489,682.3425,682.3425,684.4368,return,0.095,,58.72395833,,,,,,FBP-PT-19.png,0.4,1.2,58,0.5,,,,,,,,,,,,,0,15,15,57,1,,,,,,,,,,,,,,,,,,,,,,,,,,,,
,,,,,SPR24_043,20,Female,2024-04-12_12h53.57.458,jersey_experiment_5_v0,2023.2.2,Win32,84.74576271,,,,,,,,,,,,,,,,684.4371,685.4839,685.4839,686.7544,return,0.1558,,62.5,,,,,,FBP-OG-91.png,0.35,1.2,11,0.25,,,,,,,,,,,,,0,16,16,10,1,,,,,,,,,,,,,,,,,,,,,,,,,,,,
,,,,,SPR24_043,20,Female,2024-04-12_12h53.57.458,jersey_experiment_5_v0,2023.2.2,Win32,84.74576271,,,,,,,,,,,,,,,,686.7546,688.0487,688.0488,688.978,return,0.145,,57.55208333,,,,,,FBP-PT-17.png,0.37,1.2,47,0.5,,,,,,,,,,,,,0,17,17,46,1,,,,,,,,,,,,,,,,,,,,,,,,,,,,
,,,,,SPR24_043,20,Female,2024-04-12_12h53.57.458,jersey_experiment_5_v0,2023.2.2,Win32,84.74576271,,,,,,,,,,,,,,,,688.9783,690.2721,690.2722,692.5429,return,1.5011,,41.92708333,,,,,,FBP-YG-18.png,0.35,1.2,21,0.5,,,,,,,,,,,,,0,18,18,20,1,,,,,,,,,,,,,,,,,,,,,,,,,,,,
,,,,,SPR24_043,20,Female,2024-04-12_12h53.57.458,jersey_experiment_5_v0,2023.2.2,Win32,84.74576271,,,,,,,,,,,,,,,,692.5431,693.59,693.59,694.6959,return,0.3064,,41.92708333,,,,,,FBP-OG-81.png,0.35,1.2,6,0.25,,,,,,,,,,,,,0,19,19,5,1,,,,,,,,,,,,,,,,,,,,,,,,,,,,
,,,,,SPR24_043,20,Female,2024-04-12_12h53.57.458,jersey_experiment_5_v0,2023.2.2,Win32,84.74576271,,,,,,,,,,,,,,,,694.6961,695.7429,695.7429,697.7196,return,0.7534,,80.20833333,,,,,,FBP-RB-17.png,0.43,1.2,34,0.25,,,,,,,,,,,,,0,20,20,33,1,,,,,,,,,,,,,,,,,,,,,,,,,,,,
,,,,,SPR24_043,20,Female,2024-04-12_12h53.57.458,jersey_experiment_5_v0,2023.2.2,Win32,84.74576271,,,,,,,,,,,,,,,,697.7198,699.0136,699.0136,700.4022,return,0.3681,,88.80208333,,,,,,FBP-YG-18.png,0.45,1.2,25,0.5,,,,,,,,,,,,,0,21,21,24,1,,,,,,,,,,,,,,,,,,,,,,,,,,,,
,,,,,SPR24_043,20,Female,2024-04-12_12h53.57.458,jersey_experiment_5_v0,2023.2.2,Win32,84.74576271,,,,,,,,,,,,,,,,700.4024,701.6961,701.6962,702.7433,return,0.1324,,88.28125,,,,,,FBP-YG-18.png,0.43,1.2,24,0.5,,,,,,,,,,,,,0,22,22,23,1,,,,,,,,,,,,,,,,,,,,,,,,,,,,
,,,,,SPR24_043,20,Female,2024-04-12_12h53.57.458,jersey_experiment_5_v0,2023.2.2,Win32,84.74576271,,,,,,,,,,,,,,,,702.7435,703.7903,703.7903,705.2728,return,0.2916,,28.38541667,,,,,,FBP-OG-71.png,0.35,1.2,1,0.25,,,,,,,,,,,,,0,23,23,0,1,,,,,,,,,,,,,,,,,,,,,,,,,,,,
,,,,,SPR24_043,20,Female,2024-04-12_12h53.57.458,jersey_experiment_5_v0,2023.2.2,Win32,84.74576271,,,,,,,,,,,,,,,,705.2729,706.3198,706.3199,708.3435,return,0.8852,,38.41145833,,,,,,FBP-OG-71.png,0.37,1.2,2,0.25,,,,,,,,,,,,,0,24,24,1,1,,,,,,,,,,,,,,,,,,,,,,,,,,,,
,,,,,SPR24_043,20,Female,2024-04-12_12h53.57.458,jersey_experiment_5_v0,2023.2.2,Win32,84.74576271,,,,,,,,,,,,,,,,708.3439,709.6376,709.6376,710.9201,return,0.1415,,74.86979167,,,,,,FBP-PT-17.png,0.43,1.2,49,0.5,,,,,,,,,,,,,0,25,25,48,1,,,,,,,,,,,,,,,,,,,,,,,,,,,,
,,,,,SPR24_043,20,Female,2024-04-12_12h53.57.458,jersey_experiment_5_v0,2023.2.2,Win32,84.74576271,,,,,,,,,,,,,,,,710.9203,711.9672,711.9673,712.9671,return,0.1655,,74.86979167,,,,,,FBP-OG-81.png,0.45,1.2,10,0.25,,,,,,,,,,,,,0,26,26,9,1,,,,,,,,,,,,,,,,,,,,,,,,,,,,
,,,,,SPR24_043,20,Female,2024-04-12_12h53.57.458,jersey_experiment_5_v0,2023.2.2,Win32,84.74576271,,,,,,,,,,,,,,,,712.9673,714.0143,714.0143,715.2498,return,0.1478,,72.39583333,,,,,,FBP-OG-91.png,0.43,1.2,14,0.25,,,,,,,,,,,,,0,27,27,13,1,,,,,,,,,,,,,,,,,,,,,,,,,,,,
,,,,,SPR24_043,20,Female,2024-04-12_12h53.57.458,jersey_experiment_5_v0,2023.2.2,Win32,84.74576271,,,,,,,,,,,,,,,,715.25,716.5437,716.5437,717.5909,return,0.1417,,20.44270833,,,,,,FBP-PT-18.png,0.35,1.2,51,0.5,,,,,,,,,,,,,0,28,28,50,1,,,,,,,,,,,,,,,,,,,,,,,,,,,,
,,,,,SPR24_043,20,Female,2024-04-12_12h53.57.458,jersey_experiment_5_v0,2023.2.2,Win32,84.74576271,,,,,,,,,,,,,,,,717.5911,718.6379,718.638,722.2969,return,0.7914,,44.66145833,,,,,,FBP-OG-71.png,0.4,1.2,3,0.25,,,,,,,,,,,,,0,29,29,2,1,,,,,,,,,,,,,,,,,,,,,,,,,,,,
,,,,,SPR24_043,20,Female,2024-04-12_12h53.57.458,jersey_experiment_5_v0,2023.2.2,Win32,84.74576271,,,,,,,,,,,,,,,,722.2972,723.5911,723.5911,724.6737,return,0.2304,,14.0625,,,,,,FBP-PT-19.png,0.35,1.2,56,0.5,,,,,,,,,,,,,0,30,30,55,1,,,,,,,,,,,,,,,,,,,,,,,,,,,,
,,,,,SPR24_043,20,Female,2024-04-12_12h53.57.458,jersey_experiment_5_v0,2023.2.2,Win32,84.74576271,,,,,,,,,,,,,,,,724.6739,725.9679,725.9679,727.8265,return,0.8645,,76.953125,,,,,,FBP-PT-17.png,0.45,1.2,50,0.5,,,,,,,,,,,,,0,31,31,49,1,,,,,,,,,,,,,,,,,,,,,,,,,,,,
,,,,,SPR24_043,20,Female,2024-04-12_12h53.57.458,jersey_experiment_5_v0,2023.2.2,Win32,84.74576271,,,,,,,,,,,,,,,,727.8266,728.8736,728.8736,729.7796,return,0.1198,,83.07291667,,,,,,FBP-OG-71.png,0.45,1.2,5,0.25,,,,,,,,,,,,,0,32,32,4,1,,,,,,,,,,,,,,,,,,,,,,,,,,,,
,,,,,SPR24_043,20,Female,2024-04-12_12h53.57.458,jersey_experiment_5_v0,2023.2.2,Win32,84.74576271,,,,,,,,,,,,,,,,729.7799,731.0737,731.0737,731.8739,return,0.1687,,85.546875,,,,,,FBP-PT-19.png,0.45,1.2,60,0.5,,,,,,,,,,,,,0,33,33,59,1,,,,,,,,,,,,,,,,,,,,,,,,,,,,
,,,,,SPR24_043,20,Female,2024-04-12_12h53.57.458,jersey_experiment_5_v0,2023.2.2,Win32,84.74576271,,,,,,,,,,,,,,,,731.8741,732.9207,732.9208,735.5562,return,1.001,,16.40625,,,,,,FBP-OG-81.png,0.37,1.2,7,0.25,,,,,,,,,,,,,0,34,34,6,1,,,,,,,,,,,,,,,,,,,,,,,,,,,,
,,,,,SPR24_043,20,Female,2024-04-12_12h53.57.458,jersey_experiment_5_v0,2023.2.2,Win32,84.74576271,,,,,,,,,,,,,,,,735.5565,736.8506,736.8506,737.6975,return,0.0862,,85.80729167,,,,,,FBP-YG-17.png,0.43,1.2,19,0.5,,,,,,,,,,,,,0,35,35,18,1,,,,,,,,,,,,,,,,,,,,,,,,,,,,
,,,,,SPR24_043,20,Female,2024-04-12_12h53.57.458,jersey_experiment_5_v0,2023.2.2,Win32,84.74576271,,,,,,,,,,,,,,,,737.6977,738.7446,738.7446,741.733,return,1.4122,,35.02604167,,,,,,FBP-RB-17.png,0.37,1.2,32,0.25,,,,,,,,,,,,,0,36,36,31,1,,,,,,,,,,,,,,,,,,,,,,,,,,,,
,,,,,SPR24_043,20,Female,2024-04-12_12h53.57.458,jersey_experiment_5_v0,2023.2.2,Win32,84.74576271,,,,,,,,,,,,,,,,741.7334,743.0273,743.0273,743.8507,return,0.085,,41.14583333,,,,,,FBP-YG-19.png,0.37,1.2,27,0.5,,,,,,,,,,,,,0,37,37,26,1,,,,,,,,,,,,,,,,,,,,,,,,,,,,
,,,,,SPR24_043,20,Female,2024-04-12_12h53.57.458,jersey_experiment_5_v0,2023.2.2,Win32,84.74576271,,,,,,,,,,,,,,,,743.851,744.8977,744.8977,745.8743,return,0.0741,,87.36979167,,,,,,FBP-OG-81.png,0.43,1.2,9,0.25,,,,,,,,,,,,,0,38,38,8,1,,,,,,,,,,,,,,,,,,,,,,,,,,,,
,,,,,SPR24_043,20,Female,2024-04-12_12h53.57.458,jersey_experiment_5_v0,2023.2.2,Win32,84.74576271,,,,,,,,,,,,,,,,745.8745,747.1686,747.1686,748.451,return,0.217,,23.30729167,,,,,,FBP-PT-18.png,0.37,1.2,52,0.5,,,,,,,,,,,,,0,39,39,51,1,,,,,,,,,,,,,,,,,,,,,,,,,,,,
,,,,,SPR24_043,20,Female,2024-04-12_12h53.57.458,jersey_experiment_5_v0,2023.2.2,Win32,84.74576271,,,,,,,,,,,,,,,,748.4512,749.7451,749.7451,750.5802,return,0.0719,,92.70833333,,,,,,FBP-YG-19.png,0.45,1.2,30,0.5,,,,,,,,,,,,,0,40,40,29,1,,,,,,,,,,,,,,,,,,,,,,,,,,,,
,,,,,SPR24_043,20,Female,2024-04-12_12h53.57.458,jersey_experiment_5_v0,2023.2.2,Win32,84.74576271,,,,,,,,,,,,,,,,750.5805,751.6273,751.6274,752.3097,return,0.1527,,91.14583333,,,,,,FBP-RB-19.png,0.45,1.2,45,0.25,,,,,,,,,,,,,0,41,41,44,1,,,,,,,,,,,,,,,,,,,,,,,,,,,,
,,,,,SPR24_043,20,Female,2024-04-12_12h53.57.458,jersey_experiment_5_v0,2023.2.2,Win32,84.74576271,,,,,,,,,,,,,,,,752.3099,753.3569,753.3569,754.2276,return,0.1108,,92.578125,,,,,,FBP-RB-18.png,0.45,1.2,40,0.25,,,,,,,,,,,,,0,42,42,39,1,,,,,,,,,,,,,,,,,,,,,,,,,,,,
,,,,,SPR24_043,20,Female,2024-04-12_12h53.57.458,jersey_experiment_5_v0,2023.2.2,Win32,84.74576271,,,,,,,,,,,,,,,,754.2278,755.5216,755.5217,756.2158,return,0.1887,,94.27083333,,,,,,FBP-YG-17.png,0.45,1.2,20,0.5,,,,,,,,,,,,,0,43,43,19,1,,,,,,,,,,,,,,,,,,,,,,,,,,,,
,,,,,SPR24_043,20,Female,2024-04-12_12h53.57.458,jersey_experiment_5_v0,2023.2.2,Win32,84.74576271,,,,,,,,,,,,,,,,756.216,757.2629,757.263,758.7453,return,0.1647,,67.1875,,,,,,FBP-RB-18.png,0.4,1.2,38,0.25,,,,,,,,,,,,,0,44,44,37,1,,,,,,,,,,,,,,,,,,,,,,,,,,,,
,,,,,SPR24_043,20,Female,2024-04-12_12h53.57.458,jersey_experiment_5_v0,2023.2.2,Win32,84.74576271,,,,,,,,,,,,,,,,758.7456,760.0394,760.0394,762.3221,return,1.1,,15.88541667,,,,,,FBP-PT-17.png,0.35,1.2,46,0.5,,,,,,,,,,,,,0,45,45,45,1,,,,,,,,,,,,,,,,,,,,,,,,,,,,
,,,,,SPR24_043,20,Female,2024-04-12_12h53.57.458,jersey_experiment_5_v0,2023.2.2,Win32,84.74576271,,,,,,,,,,,,,,,,762.3223,763.3692,763.3693,764.6633,return,0.1654,,79.81770833,,,,,,FBP-RB-19.png,0.43,1.2,44,0.25,,,,,,,,,,,,,0,46,46,43,1,,,,,,,,,,,,,,,,,,,,,,,,,,,,
,,,,,SPR24_043,20,Female,2024-04-12_12h53.57.458,jersey_experiment_5_v0,2023.2.2,Win32,84.74576271,,,,,,,,,,,,,,,,764.6636,765.7103,765.7103,767.0752,return,0.1112,,41.92708333,,,,,,FBP-RB-19.png,0.35,1.2,41,0.25,,,,,,,,,,,,,0,47,47,40,1,,,,,,,,,,,,,,,,,,,,,,,,,,,,
,,,,,SPR24_043,20,Female,2024-04-12_12h53.57.458,jersey_experiment_5_v0,2023.2.2,Win32,84.74576271,,,,,,,,,,,,,,,,767.0754,768.3694,768.3695,769.2987,return,0.1322,,62.5,,,,,,FBP-YG-19.png,0.43,1.2,29,0.5,,,,,,,,,,,,,0,48,48,28,1,,,,,,,,,,,,,,,,,,,,,,,,,,,,
,,,,,SPR24_043,20,Female,2024-04-12_12h53.57.458,jersey_experiment_5_v0,2023.2.2,Win32,84.74576271,,,,,,,,,,,,,,,,769.299,770.5928,770.5928,771.8753,return,0.5434,,78.38541667,,,,,,FBP-PT-18.png,0.45,1.2,55,0.5,,,,,,,,,,,,,0,49,49,54,1,,,,,,,,,,,,,,,,,,,,,,,,,,,,
,,,,,SPR24_043,20,Female,2024-04-12_12h53.57.458,jersey_experiment_5_v0,2023.2.2,Win32,84.74576271,,,,,,,,,,,,,,,,771.8755,773.1694,773.1694,774.146,return,0.171,,65.75520833,,,,,,FBP-YG-17.png,0.4,1.2,18,0.5,,,,,,,,,,,,,0,50,50,17,1,,,,,,,,,,,,,,,,,,,,,,,,,,,,
,,,,,SPR24_043,20,Female,2024-04-12_12h53.57.458,jersey_experiment_5_v0,2023.2.2,Win32,84.74576271,,,,,,,,,,,,,,,,774.1461,775.1929,775.193,776.3929,return,0.2966,,63.80208333,,,,,,FBP-OG-91.png,0.4,1.2,13,0.25,,,,,,,,,,,,,0,51,51,12,1,,,,,,,,,,,,,,,,,,,,,,,,,,,,
,,,,,SPR24_043,20,Female,2024-04-12_12h53.57.458,jersey_experiment_5_v0,2023.2.2,Win32,84.74576271,,,,,,,,,,,,,,,,776.3931,777.4401,777.4401,778.6167,return,0.1037,,81.11979167,,,,,,FBP-RB-18.png,0.43,1.2,39,0.25,,,,,,,,,,,,,0,52,52,38,1,,,,,,,,,,,,,,,,,,,,,,,,,,,,
,,,,,SPR24_043,20,Female,2024-04-12_12h53.57.458,jersey_experiment_5_v0,2023.2.2,Win32,84.74576271,,,,,,,,,,,,,,,,778.6169,779.9109,779.9109,781.5464,return,0.297,,38.671875,,,,,,FBP-PT-19.png,0.37,1.2,57,0.5,,,,,,,,,,,,,0,53,53,56,1,,,,,,,,,,,,,,,,,,,,,,,,,,,,
,,,,,SPR24_043,20,Female,2024-04-12_12h53.57.458,jersey_experiment_5_v0,2023.2.2,Win32,84.74576271,,,,,,,,,,,,,,,,781.5466,782.8402,782.8403,783.9465,return,0.1409,,37.63020833,,,,,,FBP-YG-18.png,0.37,1.2,22,0.5,,,,,,,,,,,,,0,54,54,21,1,,,,,,,,,,,,,,,,,,,,,,,,,,,,
,,,,,SPR24_043,20,Female,2024-04-12_12h53.57.458,jersey_experiment_5_v0,2023.2.2,Win32,84.74576271,,,,,,,,,,,,,,,,783.9467,784.9933,784.9934,787.7228,return,0.1412,,55.46875,,,,,,FBP-OG-81.png,0.4,1.2,8,0.25,,,,,,,,,,,,,0,55,55,7,1,,,,,,,,,,,,,,,,,,,,,,,,,,,,
,,,,,SPR24_043,20,Female,2024-04-12_12h53.57.458,jersey_experiment_5_v0,2023.2.2,Win32,84.74576271,,,,,,,,,,,,,,,,787.723,789.0168,789.0169,789.9935,return,0.1554,,57.16145833,,,,,,FBP-YG-19.png,0.4,1.2,28,0.5,,,,,,,,,,,,,0,56,56,27,1,,,,,,,,,,,,,,,,,,,,,,,,,,,,
,,,,,SPR24_043,20,Female,2024-04-12_12h53.57.458,jersey_experiment_5_v0,2023.2.2,Win32,84.74576271,,,,,,,,,,,,,,,,789.9938,791.2877,791.2878,793.0878,return,0.244,,50,,,,,,FBP-PT-17.png,0.4,1.2,48,0.5,,,,,,,,,,,,,0,57,57,47,1,,,,,,,,,,,,,,,,,,,,,,,,,,,,
,,,,,SPR24_043,20,Female,2024-04-12_12h53.57.458,jersey_experiment_5_v0,2023.2.2,Win32,84.74576271,,,,,,,,,,,,,,,,793.088,794.3819,794.3819,795.0879,return,0.1965,,55.859375,,,,,,FBP-YG-17.png,0.37,1.2,17,0.5,,,,,,,,,,,,,0,58,58,16,1,,,,,,,,,,,,,,,,,,,,,,,,,,,,
,,,,,SPR24_043,20,Female,2024-04-12_12h53.57.458,jersey_experiment_5_v0,2023.2.2,Win32,84.74576271,,,,,,,,,,,,,,,,795.0881,796.3819,796.3819,797.0762,return,0.1802,,55.859375,,,,,,FBP-YG-19.png,0.35,1.2,26,0.5,,,,,,,,,,,,,0,59,59,25,1,,,,,,,,,,,,,,,,,,,,,,,,,,,,
,,,,,SPR24_043,20,Female,2024-04-12_12h53.57.458,jersey_experiment_5_v0,2023.2.2,Win32,84.74576271,,,,,,,,,,,,,,,,797.078,798.3703,798.3703,799.8765,return,0.6835,,31.51041667,,,,,,FBP-PT-91.png,0.35,1.2,56,0.5,,,,,,,,,,,,,,,,,,0,0,0,55,1,,,,,,,,,,,,,,,,,,,,,,,
,,,,,SPR24_043,20,Female,2024-04-12_12h53.57.458,jersey_experiment_5_v0,2023.2.2,Win32,84.74576271,,,,,,,,,,,,,,,,799.8767,801.1704,801.1704,802.8175,return,0.7714,,52.08333333,,,,,,FBP-PT-91.png,0.4,1.2,58,0.5,,,,,,,,,,,,,,,,,,0,1,1,57,1,,,,,,,,,,,,,,,,,,,,,,,
,,,,,SPR24_043,20,Female,2024-04-12_12h53.57.458,jersey_experiment_5_v0,2023.2.2,Win32,84.74576271,,,,,,,,,,,,,,,,802.8177,803.8645,803.8646,804.8529,return,0.1208,,56.77083333,,,,,,FBP-OG-18.png,0.4,1.2,8,0.25,,,,,,,,,,,,,,,,,,0,2,2,7,1,,,,,,,,,,,,,,,,,,,,,,,
,,,,,SPR24_043,20,Female,2024-04-12_12h53.57.458,jersey_experiment_5_v0,2023.2.2,Win32,84.74576271,,,,,,,,,,,,,,,,804.8532,806.1471,806.1472,808.0647,return,1.0871,,46.35416667,,,,,,FBP-PT-71.png,0.35,1.2,46,0.5,,,,,,,,,,,,,,,,,,0,3,3,45,1,,,,,,,,,,,,,,,,,,,,,,,
,,,,,SPR24_043,20,Female,2024-04-12_12h53.57.458,jersey_experiment_5_v0,2023.2.2,Win32,84.74576271,,,,,,,,,,,,,,,,808.0649,809.1117,809.1118,811.9591,return,0.9045,,46.61458333,,,,,,FBP-OG-17.png,0.37,1.2,2,0.25,,,,,,,,,,,,,,,,,,0,4,4,1,1,,,,,,,,,,,,,,,,,,,,,,,
,,,,,SPR24_043,20,Female,2024-04-12_12h53.57.458,jersey_experiment_5_v0,2023.2.2,Win32,84.74576271,,,,,,,,,,,,,,,,811.9593,813.0062,813.0062,815.5122,return,0.8941,,58.984375,,,,,,FBP-RB-71.png,0.37,1.2,32,0.25,,,,,,,,,,,,,,,,,,0,5,5,31,1,,,,,,,,,,,,,,,,,,,,,,,
,,,,,SPR24_043,20,Female,2024-04-12_12h53.57.458,jersey_experiment_5_v0,2023.2.2,Win32,84.74576271,,,,,,,,,,,,,,,,815.5123,816.8063,816.8064,818.0888,return,0.2822,,64.71354167,,,,,,FBP-PT-71.png,0.43,1.2,49,0.5,,,,,,,,,,,,,,,,,,0,6,6,48,1,,,,,,,,,,,,,,,,,,,,,,,
,,,,,SPR24_043,20,Female,2024-04-12_12h53.57.458,jersey_experiment_5_v0,2023.2.2,Win32,84.74576271,,,,,,,,,,,,,,,,818.089,819.1358,819.1358,820.7123,return,0.1886,,60.15625,,,,,,FBP-RB-81.png,0.37,1.2,37,0.25,,,,,,,,,,,,,,,,,,0,7,7,36,1,,,,,,,,,,,,,,,,,,,,,,,
,,,,,SPR24_043,20,Female,2024-04-12_12h53.57.458,jersey_experiment_5_v0,2023.2.2,Win32,84.74576271,,,,,,,,,,,,,,,,820.7125,821.7594,821.7594,822.8535,return,0.2003,,56.11979167,,,,,,FBP-RB-81.png,0.35,1.2,36,0.25,,,,,,,,,,,,,,,,,,0,8,8,35,1,,,,,,,,,,,,,,,,,,,,,,,
,,,,,SPR24_043,20,Female,2024-04-12_12h53.57.458,jersey_experiment_5_v0,2023.2.2,Win32,84.74576271,,,,,,,,,,,,,,,,822.8537,824.1478,824.1479,825.4889,return,0.3927,,76.5625,,,,,,FBP-YG-71.png,0.43,1.2,19,0.5,,,,,,,,,,,,,,,,,,0,9,9,18,1,,,,,,,,,,,,,,,,,,,,,,,
,,,,,SPR24_043,20,Female,2024-04-12_12h53.57.458,jersey_experiment_5_v0,2023.2.2,Win32,84.74576271,,,,,,,,,,,,,,,,825.489,826.783,826.783,828.7597,return,1.0588,,70.96354167,,,,,,FBP-YG-91.png,0.4,1.2,28,0.5,,,,,,,,,,,,,,,,,,0,10,10,27,1,,,,,,,,,,,,,,,,,,,,,,,
,,,,,SPR24_043,20,Female,2024-04-12_12h53.57.458,jersey_experiment_5_v0,2023.2.2,Win32,84.74576271,,,,,,,,,,,,,,,,828.7599,829.8066,829.8067,831.0775,return,0.1646,,27.47395833,,,,,,FBP-OG-17.png,0.35,1.2,1,0.25,,,,,,,,,,,,,,,,,,0,11,11,0,1,,,,,,,,,,,,,,,,,,,,,,,
,,,,,SPR24_043,20,Female,2024-04-12_12h53.57.458,jersey_experiment_5_v0,2023.2.2,Win32,84.74576271,,,,,,,,,,,,,,,,831.0777,832.3718,832.3718,834.5483,return,0.0983,,76.5625,,,,,,FBP-PT-81.png,0.43,1.2,54,0.5,,,,,,,,,,,,,,,,,,0,12,12,53,1,,,,,,,,,,,,,,,,,,,,,,,
,,,,,SPR24_043,20,Female,2024-04-12_12h53.57.458,jersey_experiment_5_v0,2023.2.2,Win32,84.74576271,,,,,,,,,,,,,,,,834.5484,835.5951,835.5952,836.7719,return,0.0962,,66.40625,,,,,,FBP-RB-71.png,0.4,1.2,33,0.25,,,,,,,,,,,,,,,,,,0,13,13,32,1,,,,,,,,,,,,,,,,,,,,,,,
,,,,,SPR24_043,20,Female,2024-04-12_12h53.57.458,jersey_experiment_5_v0,2023.2.2,Win32,84.74576271,,,,,,,,,,,,,,,,836.7721,837.8186,837.8187,838.9365,return,0.1179,,70.44270833,,,,,,FBP-RB-81.png,0.4,1.2,38,0.25,,,,,,,,,,,,,,,,,,0,14,14,37,1,,,,,,,,,,,,,,,,,,,,,,,
,,,,,SPR24_043,20,Female,2024-04-12_12h53.57.458,jersey_experiment_5_v0,2023.2.2,Win32,84.74576271,,,,,,,,,,,,,,,,838.9368,839.9833,839.9834,841.1131,return,0.0799,,53.77604167,,,,,,FBP-OG-18.png,0.37,1.2,7,0.25,,,,,,,,,,,,,,,,,,0,15,15,6,1,,,,,,,,,,,,,,,,,,,,,,,
,,,,,SPR24_043,20,Female,2024-04-12_12h53.57.458,jersey_experiment_5_v0,2023.2.2,Win32,84.74576271,,,,,,,,,,,,,,,,841.1133,842.4071,842.4071,843.9837,return,0.6671,,49.47916667,,,,,,FBP-PT-71.png,0.37,1.2,47,0.5,,,,,,,,,,,,,,,,,,0,16,16,46,1,,,,,,,,,,,,,,,,,,,,,,,
,,,,,SPR24_043,20,Female,2024-04-12_12h53.57.458,jersey_experiment_5_v0,2023.2.2,Win32,84.74576271,,,,,,,,,,,,,,,,843.9839,845.0308,845.0308,847.1133,return,0.1652,,73.828125,,,,,,FBP-OG-17.png,0.43,1.2,4,0.25,,,,,,,,,,,,,,,,,,0,17,17,3,1,,,,,,,,,,,,,,,,,,,,,,,
,,,,,SPR24_043,20,Female,2024-04-12_12h53.57.458,jersey_experiment_5_v0,2023.2.2,Win32,84.74576271,,,,,,,,,,,,,,,,847.1135,848.4074,848.4075,849.2664,return,0.0971,,77.734375,,,,,,FBP-YG-91.png,0.43,1.2,29,0.5,,,,,,,,,,,,,,,,,,0,18,18,28,1,,,,,,,,,,,,,,,,,,,,,,,
,,,,,SPR24_043,20,Female,2024-04-12_12h53.57.458,jersey_experiment_5_v0,2023.2.2,Win32,84.74576271,,,,,,,,,,,,,,,,849.2665,850.3133,850.3133,852.3605,return,0.9177,,86.84895833,,,,,,FBP-RB-81.png,0.45,1.2,40,0.25,,,,,,,,,,,,,,,,,,0,19,19,39,1,,,,,,,,,,,,,,,,,,,,,,,
,,,,,SPR24_043,20,Female,2024-04-12_12h53.57.458,jersey_experiment_5_v0,2023.2.2,Win32,84.74576271,,,,,,,,,,,,,,,,852.3607,853.6544,853.6545,854.3724,return,0.1801,,92.578125,,,,,,FBP-YG-71.png,0.45,1.2,20,0.5,,,,,,,,,,,,,,,,,,0,20,20,19,1,,,,,,,,,,,,,,,,,,,,,,,
,,,,,SPR24_043,20,Female,2024-04-12_12h53.57.458,jersey_experiment_5_v0,2023.2.2,Win32,84.74576271,,,,,,,,,,,,,,,,854.3726,855.6665,855.6665,857.3137,return,0.1592,,64.453125,,,,,,FBP-YG-81.png,0.35,1.2,21,0.5,,,,,,,,,,,,,,,,,,0,21,21,20,1,,,,,,,,,,,,,,,,,,,,,,,
,,,,,SPR24_043,20,Female,2024-04-12_12h53.57.458,jersey_experiment_5_v0,2023.2.2,Win32,84.74576271,,,,,,,,,,,,,,,,857.3139,858.3609,858.3609,859.6195,return,0.4489,,70.05208333,,,,,,FBP-RB-71.png,0.43,1.2,34,0.25,,,,,,,,,,,,,,,,,,0,22,22,33,1,,,,,,,,,,,,,,,,,,,,,,,
,,,,,SPR24_043,20,Female,2024-04-12_12h53.57.458,jersey_experiment_5_v0,2023.2.2,Win32,84.74576271,,,,,,,,,,,,,,,,859.6198,860.9137,860.9138,863.9374,return,0.1716,,72.265625,,,,,,FBP-YG-81.png,0.4,1.2,23,0.5,,,,,,,,,,,,,,,,,,0,23,23,22,1,,,,,,,,,,,,,,,,,,,,,,,
,,,,,SPR24_043,20,Female,2024-04-12_12h53.57.458,jersey_experiment_5_v0,2023.2.2,Win32,84.74576271,,,,,,,,,,,,,,,,863.9376,865.2315,865.2315,866.3728,return,0.1091,,61.58854167,,,,,,FBP-PT-71.png,0.4,1.2,48,0.5,,,,,,,,,,,,,,,,,,0,24,24,47,1,,,,,,,,,,,,,,,,,,,,,,,
,,,,,SPR24_043,20,Female,2024-04-12_12h53.57.458,jersey_experiment_5_v0,2023.2.2,Win32,84.74576271,,,,,,,,,,,,,,,,866.373,867.4198,867.4199,868.9612,return,0.0989,,31.90104167,,,,,,FBP-RB-91.png,0.35,1.2,41,0.25,,,,,,,,,,,,,,,,,,0,25,25,40,1,,,,,,,,,,,,,,,,,,,,,,,
,,,,,SPR24_043,20,Female,2024-04-12_12h53.57.458,jersey_experiment_5_v0,2023.2.2,Win32,84.74576271,,,,,,,,,,,,,,,,868.9615,870.0083,870.0084,871.8319,return,0.0609,,35.41666667,,,,,,FBP-RB-71.png,0.35,1.2,31,0.25,,,,,,,,,,,,,,,,,,0,26,26,30,1,,,,,,,,,,,,,,,,,,,,,,,
,,,,,SPR24_043,20,Female,2024-04-12_12h53.57.458,jersey_experiment_5_v0,2023.2.2,Win32,84.74576271,,,,,,,,,,,,,,,,871.8322,873.126,873.1261,875.2555,return,0.8802,,75.390625,,,,,,FBP-YG-81.png,0.43,1.2,24,0.5,,,,,,,,,,,,,,,,,,0,27,27,23,1,,,,,,,,,,,,,,,,,,,,,,,
,,,,,SPR24_043,20,Female,2024-04-12_12h53.57.458,jersey_experiment_5_v0,2023.2.2,Win32,84.74576271,,,,,,,,,,,,,,,,875.2557,876.3026,876.3026,878.2791,return,1.0022,,73.046875,,,,,,FBP-OG-19.png,0.45,1.2,15,0.25,,,,,,,,,,,,,,,,,,0,28,28,14,1,,,,,,,,,,,,,,,,,,,,,,,
,,,,,SPR24_043,20,Female,2024-04-12_12h53.57.458,jersey_experiment_5_v0,2023.2.2,Win32,84.74576271,,,,,,,,,,,,,,,,878.2794,879.5733,879.5733,882.0557,return,0.1279,,37.890625,,,,,,FBP-PT-91.png,0.37,1.2,57,0.5,,,,,,,,,,,,,,,,,,0,29,29,56,1,,,,,,,,,,,,,,,,,,,,,,,
,,,,,SPR24_043,20,Female,2024-04-12_12h53.57.458,jersey_experiment_5_v0,2023.2.2,Win32,84.74576271,,,,,,,,,,,,,,,,882.056,883.3499,883.3499,885.0441,return,0.8838,,58.07291667,,,,,,FBP-YG-71.png,0.37,1.2,17,0.5,,,,,,,,,,,,,,,,,,0,30,30,16,1,,,,,,,,,,,,,,,,,,,,,,,
,,,,,SPR24_043,20,Female,2024-04-12_12h53.57.458,jersey_experiment_5_v0,2023.2.2,Win32,84.74576271,,,,,,,,,,,,,,,,885.0444,886.091,886.0911,887.3147,return,0.238,,75.65104167,,,,,,FBP-OG-18.png,0.43,1.2,9,0.25,,,,,,,,,,,,,,,,,,0,31,31,8,1,,,,,,,,,,,,,,,,,,,,,,,
,,,,,SPR24_043,20,Female,2024-04-12_12h53.57.458,jersey_experiment_5_v0,2023.2.2,Win32,84.74576271,,,,,,,,,,,,,,,,887.3149,888.3617,888.3617,889.6324,return,0.0881,,77.47395833,,,,,,FBP-OG-18.png,0.45,1.2,10,0.25,,,,,,,,,,,,,,,,,,0,32,32,9,1,,,,,,,,,,,,,,,,,,,,,,,
,,,,,SPR24_043,20,Female,2024-04-12_12h53.57.458,jersey_experiment_5_v0,2023.2.2,Win32,84.74576271,,,,,,,,,,,,,,,,889.6326,890.9267,890.9268,891.5854,return,0.1246,,80.59895833,,,,,,FBP-PT-71.png,0.45,1.2,50,0.5,,,,,,,,,,,,,,,,,,0,33,33,49,1,,,,,,,,,,,,,,,,,,,,,,,
,,,,,SPR24_043,20,Female,2024-04-12_12h53.57.458,jersey_experiment_5_v0,2023.2.2,Win32,84.74576271,,,,,,,,,,,,,,,,891.5856,892.6327,892.6328,893.8564,return,0.1143,,42.70833333,,,,,,FBP-OG-19.png,0.37,1.2,12,0.25,,,,,,,,,,,,,,,,,,0,34,34,11,1,,,,,,,,,,,,,,,,,,,,,,,
,,,,,SPR24_043,20,Female,2024-04-12_12h53.57.458,jersey_experiment_5_v0,2023.2.2,Win32,84.74576271,,,,,,,,,,,,,,,,893.8565,894.9031,894.9031,896.3739,return,0.0947,,46.22395833,,,,,,FBP-OG-19.png,0.4,1.2,13,0.25,,,,,,,,,,,,,,,,,,0,35,35,12,1,,,,,,,,,,,,,,,,,,,,,,,
,,,,,SPR24_043,20,Female,2024-04-12_12h53.57.458,jersey_experiment_5_v0,2023.2.2,Win32,84.74576271,,,,,,,,,,,,,,,,896.3742,897.4209,897.421,898.4798,return,0.0552,,48.95833333,,,,,,FBP-OG-17.png,0.4,1.2,3,0.25,,,,,,,,,,,,,,,,,,0,36,36,2,1,,,,,,,,,,,,,,,,,,,,,,,
,,,,,SPR24_043,20,Female,2024-04-12_12h53.57.458,jersey_experiment_5_v0,2023.2.2,Win32,84.74576271,,,,,,,,,,,,,,,,898.48,899.7741,899.7742,900.7623,return,0.1738,,49.86979167,,,,,,FBP-YG-91.png,0.37,1.2,27,0.5,,,,,,,,,,,,,,,,,,0,37,37,26,1,,,,,,,,,,,,,,,,,,,,,,,
,,,,,SPR24_043,20,Female,2024-04-12_12h53.57.458,jersey_experiment_5_v0,2023.2.2,Win32,84.74576271,,,,,,,,,,,,,,,,900.7625,901.8094,901.8094,902.88,return,0.088,,54.42708333,,,,,,FBP-OG-19.png,0.43,1.2,14,0.25,,,,,,,,,,,,,,,,,,0,38,38,13,1,,,,,,,,,,,,,,,,,,,,,,,
,,,,,SPR24_043,20,Female,2024-04-12_12h53.57.458,jersey_experiment_5_v0,2023.2.2,Win32,84.74576271,,,,,,,,,,,,,,,,902.8801,903.9272,903.9272,911.6685,return,2.2508,,61.06770833,,,,,,FBP-RB-91.png,0.37,1.2,42,0.25,,,,,,,,,,,,,,,,,,0,39,39,41,1,,,,,,,,,,,,,,,,,,,,,,,
,,,,,SPR24_043,20,Female,2024-04-12_12h53.57.458,jersey_experiment_5_v0,2023.2.2,Win32,84.74576271,,,,,,,,,,,,,,,,911.6687,912.7155,912.7155,913.857,return,0.0898,,94.921875,,,,,,FBP-RB-71.png,0.45,1.2,35,0.25,,,,,,,,,,,,,,,,,,0,40,40,34,1,,,,,,,,,,,,,,,,,,,,,,,
,,,,,SPR24_043,20,Female,2024-04-12_12h53.57.458,jersey_experiment_5_v0,2023.2.2,Win32,84.74576271,,,,,,,,,,,,,,,,913.8572,915.1512,915.1512,917.0922,return,0.6954,,60.02604167,,,,,,FBP-YG-71.png,0.4,1.2,18,0.5,,,,,,,,,,,,,,,,,,0,41,41,17,1,,,,,,,,,,,,,,,,,,,,,,,
,,,,,SPR24_043,20,Female,2024-04-12_12h53.57.458,jersey_experiment_5_v0,2023.2.2,Win32,84.74576271,,,,,,,,,,,,,,,,917.0925,918.1394,918.1394,920.4219,return,0.2594,,64.453125,,,,,,FBP-RB-91.png,0.45,1.2,45,0.25,,,,,,,,,,,,,,,,,,0,42,42,44,1,,,,,,,,,,,,,,,,,,,,,,,
,,,,,SPR24_043,20,Female,2024-04-12_12h53.57.458,jersey_experiment_5_v0,2023.2.2,Win32,84.74576271,,,,,,,,,,,,,,,,920.4221,921.4688,921.4689,923.0806,return,0.4935,,75,,,,,,FBP-RB-81.png,0.43,1.2,39,0.25,,,,,,,,,,,,,,,,,,0,43,43,38,1,,,,,,,,,,,,,,,,,,,,,,,
,,,,,SPR24_043,20,Female,2024-04-12_12h53.57.458,jersey_experiment_5_v0,2023.2.2,Win32,84.74576271,,,,,,,,,,,,,,,,923.0808,924.375,924.375,926.6456,return,1.3997,,11.84895833,,,,,,FBP-PT-81.png,0.35,1.2,51,0.5,,,,,,,,,,,,,,,,,,0,44,44,50,1,,,,,,,,,,,,,,,,,,,,,,,
,,,,,SPR24_043,20,Female,2024-04-12_12h53.57.458,jersey_experiment_5_v0,2023.2.2,Win32,84.74576271,,,,,,,,,,,,,,,,926.6457,927.9398,927.9399,928.9986,return,0.1045,,25.390625,,,,,,FBP-PT-81.png,0.4,1.2,53,0.5,,,,,,,,,,,,,,,,,,0,45,45,52,1,,,,,,,,,,,,,,,,,,,,,,,
,,,,,SPR24_043,20,Female,2024-04-12_12h53.57.458,jersey_experiment_5_v0,2023.2.2,Win32,84.74576271,,,,,,,,,,,,,,,,928.9988,930.0458,930.0458,931.5398,return,0.1551,,39.84375,,,,,,FBP-OG-17.png,0.45,1.2,5,0.25,,,,,,,,,,,,,,,,,,0,46,46,4,1,,,,,,,,,,,,,,,,,,,,,,,
,,,,,SPR24_043,20,Female,2024-04-12_12h53.57.458,jersey_experiment_5_v0,2023.2.2,Win32,84.74576271,,,,,,,,,,,,,,,,931.54,932.834,932.834,934.234,return,0.5416,,64.71354167,,,,,,FBP-YG-91.png,0.45,1.2,30,0.5,,,,,,,,,,,,,,,,,,0,47,47,29,1,,,,,,,,,,,,,,,,,,,,,,,
,,,,,SPR24_043,20,Female,2024-04-12_12h53.57.458,jersey_experiment_5_v0,2023.2.2,Win32,84.74576271,,,,,,,,,,,,,,,,934.2344,935.5284,935.5284,936.6814,return,0.1558,,37.76041667,,,,,,FBP-YG-91.png,0.35,1.2,26,0.5,,,,,,,,,,,,,,,,,,0,48,48,25,1,,,,,,,,,,,,,,,,,,,,,,,
,,,,,SPR24_043,20,Female,2024-04-12_12h53.57.458,jersey_experiment_5_v0,2023.2.2,Win32,84.74576271,,,,,,,,,,,,,,,,936.6816,937.7283,937.7284,938.6815,return,0.1329,,50.13020833,,,,,,FBP-OG-19.png,0.35,1.2,11,0.25,,,,,,,,,,,,,,,,,,0,49,49,10,1,,,,,,,,,,,,,,,,,,,,,,,
,,,,,SPR24_043,20,Female,2024-04-12_12h53.57.458,jersey_experiment_5_v0,2023.2.2,Win32,84.74576271,,,,,,,,,,,,,,,,938.6817,939.7283,939.7283,940.752,return,0.0992,,50.52083333,,,,,,FBP-OG-18.png,0.35,1.2,6,0.25,,,,,,,,,,,,,,,,,,0,50,50,5,1,,,,,,,,,,,,,,,,,,,,,,,
,,,,,SPR24_043,20,Female,2024-04-12_12h53.57.458,jersey_experiment_5_v0,2023.2.2,Win32,84.74576271,,,,,,,,,,,,,,,,940.7521,941.7988,941.7989,943.9049,return,0.9368,,65.88541667,,,,,,FBP-RB-91.png,0.4,1.2,43,0.25,,,,,,,,,,,,,,,,,,0,51,51,42,1,,,,,,,,,,,,,,,,,,,,,,,
,,,,,SPR24_043,20,Female,2024-04-12_12h53.57.458,jersey_experiment_5_v0,2023.2.2,Win32,84.74576271,,,,,,,,,,,,,,,,943.9052,945.1993,945.1993,947.7641,return,1.6959,,87.890625,,,,,,FBP-YG-81.png,0.45,1.2,25,0.5,,,,,,,,,,,,,,,,,,0,52,52,24,1,,,,,,,,,,,,,,,,,,,,,,,
,,,,,SPR24_043,20,Female,2024-04-12_12h53.57.458,jersey_experiment_5_v0,2023.2.2,Win32,84.74576271,,,,,,,,,,,,,,,,947.7643,949.0584,949.0584,950.7404,return,0.1064,,76.953125,,,,,,FBP-PT-91.png,0.45,1.2,60,0.5,,,,,,,,,,,,,,,,,,0,53,53,59,1,,,,,,,,,,,,,,,,,,,,,,,
,,,,,SPR24_043,20,Female,2024-04-12_12h53.57.458,jersey_experiment_5_v0,2023.2.2,Win32,84.74576271,,,,,,,,,,,,,,,,950.7406,952.0348,952.0349,953.1877,return,0.1459,,82.29166667,,,,,,FBP-PT-81.png,0.45,1.2,55,0.5,,,,,,,,,,,,,,,,,,0,54,54,54,1,,,,,,,,,,,,,,,,,,,,,,,
,,,,,SPR24_043,20,Female,2024-04-12_12h53.57.458,jersey_experiment_5_v0,2023.2.2,Win32,84.74576271,,,,,,,,,,,,,,,,953.1879,954.4819,954.4819,955.3525,return,0.0802,,76.69270833,,,,,,FBP-PT-91.png,0.43,1.2,59,0.5,,,,,,,,,,,,,,,,,,0,55,55,58,1,,,,,,,,,,,,,,,,,,,,,,,
,,,,,SPR24_043,20,Female,2024-04-12_12h53.57.458,jersey_experiment_5_v0,2023.2.2,Win32,84.74576271,,,,,,,,,,,,,,,,955.3528,956.6466,956.6466,958.5291,return,0.1337,,65.625,,,,,,FBP-PT-81.png,0.37,1.2,52,0.5,,,,,,,,,,,,,,,,,,0,56,56,51,1,,,,,,,,,,,,,,,,,,,,,,,
,,,,,SPR24_043,20,Female,2024-04-12_12h53.57.458,jersey_experiment_5_v0,2023.2.2,Win32,84.74576271,,,,,,,,,,,,,,,,958.5293,959.5762,959.5763,961.2233,return,0.6828,,71.61458333,,,,,,FBP-RB-91.png,0.43,1.2,44,0.25,,,,,,,,,,,,,,,,,,0,57,57,43,1,,,,,,,,,,,,,,,,,,,,,,,
,,,,,SPR24_043,20,Female,2024-04-12_12h53.57.458,jersey_experiment_5_v0,2023.2.2,Win32,84.74576271,,,,,,,,,,,,,,,,961.2235,962.5174,962.5174,964.5527,return,0.1033,,48.4375,,,,,,FBP-YG-81.png,0.37,1.2,22,0.5,,,,,,,,,,,,,,,,,,0,58,58,21,1,,,,,,,,,,,,,,,,,,,,,,,
,,,,,SPR24_043,20,Female,2024-04-12_12h53.57.458,jersey_experiment_5_v0,2023.2.2,Win32,84.74576271,,,,,,,,,,,,,,,,964.5529,965.8469,965.847,967.647,return,0.1008,,58.72395833,,,,,,FBP-YG-71.png,0.35,1.2,16,0.5,,,,,,,,,,,,,,,,,,0,59,59,15,1,,,,,,,,,,,,,,,,,,,,,,,
,,,,,SPR24_043,20,Female,2024-04-12_12h53.57.458,jersey_experiment_5_v0,2023.2.2,Win32,84.74576271,,,,,,,,,,,,,,,,,,,,,,,,,,,,,,,,,,,,,,,,,,,,,,,,,,,,,,,,967.6474,972.8242,return,5.1663,,,,,,,,,,,,,,,,,,,
,,,,,SPR24_043,20,Female,2024-04-12_12h53.57.458,jersey_experiment_5_v0,2023.2.2,Win32,84.74576271,,,,,,,,,,,,,,,,,,,,,,,,,,,,,,,,,,,,,,,,,,,,,,,,,,,,,,,,,,,,,972.8242,977.3064,1,3.7223,return,0.7384,,,,,,,,,,,,
,,,,,SPR24_043,20,Female,2024-04-12_12h53.57.458,jersey_experiment_5_v0,2023.2.2,Win32,84.74576271,,,,,,,,,,,,,,,,,,,,,,,,,,,,,,,,,,,,,,,,,,,,,,,,,,,,,,,,,,,,,,,,,,,,977.3065,994.0298,Differences in races ,right,10.8139,,,,,,
,,,,,SPR24_043,20,Female,2024-04-12_12h53.57.458,jersey_experiment_5_v0,2023.2.2,Win32,84.74576271,,,,,,,,,,,,,,,,,,,,,,,,,,,,,,,,,,,,,,,,,,,,,,,,,,,,,,,,,,,,,,,,,,,,,,,,,,994.0299,997.107,return,3.0692,