requirements.started,requirements.stopped,key_resp_3.keys,key_resp_3.rt,key_resp_3.duration,Subject ID,Age,Gender,date,expName,psychopyVersion,OS,frameRate,instructions1.started,instructions1.stopped,key_resp.keys,key_resp.rt,key_resp.duration,example.started,example.stopped,enter_2.keys,enter_2.rt,enter_2.duration,instructions2.started,instructions2.stopped,enter_3.keys,enter_3.rt,enter_3.duration,image.started,image.stopped,slider_2.started,slider_2.stopped,next.keys,next.rt,next.duration,slider.response,trial_block_1.thisRepN,trial_block_1.thisTrialN,trial_block_1.thisN,trial_block_1.thisIndex,trial_block_1.ran,Path,Width,Height,Index,Duration,trial_block_2.thisRepN,trial_block_2.thisTrialN,trial_block_2.thisN,trial_block_2.thisIndex,trial_block_2.ran,rest_break.started,rest_break.stopped,end_break.started,end_break.stopped,key_resp_5.keys,key_resp_5.rt,key_resp_5.duration,trial_block_3.thisRepN,trial_block_3.thisTrialN,trial_block_3.thisN,trial_block_3.thisIndex,trial_block_3.ran,trial_block_4.thisRepN,trial_block_4.thisTrialN,trial_block_4.thisN,trial_block_4.thisIndex,trial_block_4.ran,questions_intro.started,questions_intro.stopped,enter_12.keys,enter_12.rt,enter_12.duration,question2.started,question2.stopped,question_doingbest.response,question_doingbest.rt,enter_15.keys,enter_15.rt,enter_15.duration,pattern.started,pattern.stopped,pattern_2.text,enter_17.keys,enter_17.rt,enter_17.duration,thankyou.started,thankyou.stopped,enter_14.keys,enter_14.rt,enter_14.duration
0.0001,23.0874,return,23.0799,,SPR24_088,21,Female,2024-04-24_15h32.05.268,jersey_experiment_5_v0,2023.2.2,Win32,84.74576271,,,,,,,,,,,,,,,,,,,,,,,,,,,,,,,,,,,,,,,,,,,,,,,,,,,,,,,,,,,,,,,,,,,,,,,,,,,,,,
,,,,,SPR24_088,21,Female,2024-04-24_15h32.05.268,jersey_experiment_5_v0,2023.2.2,Win32,84.74576271,23.0875,32.2759,return,9.1773,,,,,,,,,,,,,,,,,,,,,,,,,,,,,,,,,,,,,,,,,,,,,,,,,,,,,,,,,,,,,,,,,,,,,,,,,,
,,,,,SPR24_088,21,Female,2024-04-24_15h32.05.268,jersey_experiment_5_v0,2023.2.2,Win32,84.74576271,,,,,,32.276,36.3113,return,4.0054,,,,,,,,,,,,,,,,,,,,,,,,,,,,,,,,,,,,,,,,,,,,,,,,,,,,,,,,,,,,,,,,,,,,,
,,,,,SPR24_088,21,Female,2024-04-24_15h32.05.268,jersey_experiment_5_v0,2023.2.2,Win32,84.74576271,,,,,,,,,,,36.3114,63.7829,return,27.4586,,,,,,,,,,,,,,,,,,,,,,,,,,,,,,,,,,,,,,,,,,,,,,,,,,,,,,,,,,,,,,,,
,,,,,SPR24_088,21,Female,2024-04-24_15h32.05.268,jersey_experiment_5_v0,2023.2.2,Win32,84.74576271,,,,,,,,,,,,,,,,63.7893,64.8415,64.8415,81.9479,return,2.4655,,37.109375,0,0,0,28,1,FBP-YG-19.png,0.43,1.2,29,0.25,,,,,,,,,,,,,,,,,,,,,,,,,,,,,,,,,,,,,,,,,,,,,
,,,,,SPR24_088,21,Female,2024-04-24_15h32.05.268,jersey_experiment_5_v0,2023.2.2,Win32,84.74576271,,,,,,,,,,,,,,,,81.9481,82.9951,82.9951,89.007,return,1.2056,,75,0,1,1,29,1,FBP-YG-19.png,0.45,1.2,30,0.25,,,,,,,,,,,,,,,,,,,,,,,,,,,,,,,,,,,,,,,,,,,,,
,,,,,SPR24_088,21,Female,2024-04-24_15h32.05.268,jersey_experiment_5_v0,2023.2.2,Win32,84.74576271,,,,,,,,,,,,,,,,89.0073,90.3012,90.3013,96.078,return,1.6517,,0.260416667,0,2,2,40,1,FBP-RB-19.png,0.35,1.2,41,0.5,,,,,,,,,,,,,,,,,,,,,,,,,,,,,,,,,,,,,,,,,,,,,
,,,,,SPR24_088,21,Female,2024-04-24_15h32.05.268,jersey_experiment_5_v0,2023.2.2,Win32,84.74576271,,,,,,,,,,,,,,,,96.0783,97.3719,97.3719,100.8662,return,1.1786,,4.947916667,0,3,3,5,1,FBP-OG-81.png,0.35,1.2,6,0.5,,,,,,,,,,,,,,,,,,,,,,,,,,,,,,,,,,,,,,,,,,,,,
,,,,,SPR24_088,21,Female,2024-04-24_15h32.05.268,jersey_experiment_5_v0,2023.2.2,Win32,84.74576271,,,,,,,,,,,,,,,,100.8665,101.9132,101.9133,105.043,return,1.0499,,6.770833333,0,4,4,26,1,FBP-YG-19.png,0.37,1.2,27,0.25,,,,,,,,,,,,,,,,,,,,,,,,,,,,,,,,,,,,,,,,,,,,,
,,,,,SPR24_088,21,Female,2024-04-24_15h32.05.268,jersey_experiment_5_v0,2023.2.2,Win32,84.74576271,,,,,,,,,,,,,,,,105.0432,106.0899,106.0899,110.1255,return,1.6663,,4.296875,0,5,5,50,1,FBP-PT-18.png,0.35,1.2,51,0.25,,,,,,,,,,,,,,,,,,,,,,,,,,,,,,,,,,,,,,,,,,,,,
,,,,,SPR24_088,21,Female,2024-04-24_15h32.05.268,jersey_experiment_5_v0,2023.2.2,Win32,84.74576271,,,,,,,,,,,,,,,,110.1257,111.1724,111.1725,114.9494,return,1.3084,,87.23958333,0,6,6,59,1,FBP-PT-19.png,0.45,1.2,60,0.25,,,,,,,,,,,,,,,,,,,,,,,,,,,,,,,,,,,,,,,,,,,,,
,,,,,SPR24_088,21,Female,2024-04-24_15h32.05.268,jersey_experiment_5_v0,2023.2.2,Win32,84.74576271,,,,,,,,,,,,,,,,114.9495,116.2432,116.2432,119.6318,return,1.2493,,99.47916667,0,7,7,9,1,FBP-OG-81.png,0.45,1.2,10,0.5,,,,,,,,,,,,,,,,,,,,,,,,,,,,,,,,,,,,,,,,,,,,,
,,,,,SPR24_088,21,Female,2024-04-24_15h32.05.268,jersey_experiment_5_v0,2023.2.2,Win32,84.74576271,,,,,,,,,,,,,,,,119.6319,120.9257,120.9258,123.3141,return,0.8965,,99.609375,0,8,8,13,1,FBP-OG-91.png,0.43,1.2,14,0.5,,,,,,,,,,,,,,,,,,,,,,,,,,,,,,,,,,,,,,,,,,,,,
,,,,,SPR24_088,21,Female,2024-04-24_15h32.05.268,jersey_experiment_5_v0,2023.2.2,Win32,84.74576271,,,,,,,,,,,,,,,,123.3143,124.6082,124.6082,129.7498,return,1.2946,,16.40625,0,9,9,10,1,FBP-OG-91.png,0.35,1.2,11,0.5,,,,,,,,,,,,,,,,,,,,,,,,,,,,,,,,,,,,,,,,,,,,,
,,,,,SPR24_088,21,Female,2024-04-24_15h32.05.268,jersey_experiment_5_v0,2023.2.2,Win32,84.74576271,,,,,,,,,,,,,,,,129.75,131.0438,131.0439,135.3145,return,1.2116,,80.20833333,0,10,10,38,1,FBP-RB-18.png,0.43,1.2,39,0.5,,,,,,,,,,,,,,,,,,,,,,,,,,,,,,,,,,,,,,,,,,,,,
,,,,,SPR24_088,21,Female,2024-04-24_15h32.05.268,jersey_experiment_5_v0,2023.2.2,Win32,84.74576271,,,,,,,,,,,,,,,,135.3147,136.6088,136.6088,140.0206,return,1.4827,,24.609375,0,11,11,1,1,FBP-OG-71.png,0.37,1.2,2,0.5,,,,,,,,,,,,,,,,,,,,,,,,,,,,,,,,,,,,,,,,,,,,,
,,,,,SPR24_088,21,Female,2024-04-24_15h32.05.268,jersey_experiment_5_v0,2023.2.2,Win32,84.74576271,,,,,,,,,,,,,,,,140.0208,141.0677,141.0678,143.8089,return,0.9447,,90.234375,0,12,12,54,1,FBP-PT-18.png,0.45,1.2,55,0.25,,,,,,,,,,,,,,,,,,,,,,,,,,,,,,,,,,,,,,,,,,,,,
,,,,,SPR24_088,21,Female,2024-04-24_15h32.05.268,jersey_experiment_5_v0,2023.2.2,Win32,84.74576271,,,,,,,,,,,,,,,,143.809,144.8559,144.856,148.7504,return,0.9241,,69.53125,0,13,13,52,1,FBP-PT-18.png,0.4,1.2,53,0.25,,,,,,,,,,,,,,,,,,,,,,,,,,,,,,,,,,,,,,,,,,,,,
,,,,,SPR24_088,21,Female,2024-04-24_15h32.05.268,jersey_experiment_5_v0,2023.2.2,Win32,84.74576271,,,,,,,,,,,,,,,,148.7505,150.0445,150.0445,153.3625,return,1.579,,99.08854167,0,14,14,34,1,FBP-RB-17.png,0.45,1.2,35,0.5,,,,,,,,,,,,,,,,,,,,,,,,,,,,,,,,,,,,,,,,,,,,,
,,,,,SPR24_088,21,Female,2024-04-24_15h32.05.268,jersey_experiment_5_v0,2023.2.2,Win32,84.74576271,,,,,,,,,,,,,,,,153.3629,154.6564,154.6565,161.0213,return,1.323,,34.765625,0,15,15,42,1,FBP-RB-19.png,0.4,1.2,43,0.5,,,,,,,,,,,,,,,,,,,,,,,,,,,,,,,,,,,,,,,,,,,,,
,,,,,SPR24_088,21,Female,2024-04-24_15h32.05.268,jersey_experiment_5_v0,2023.2.2,Win32,84.74576271,,,,,,,,,,,,,,,,161.0216,162.0684,162.0684,165.445,return,0.7444,,0.260416667,0,16,16,55,1,FBP-PT-19.png,0.35,1.2,56,0.25,,,,,,,,,,,,,,,,,,,,,,,,,,,,,,,,,,,,,,,,,,,,,
,,,,,SPR24_088,21,Female,2024-04-24_15h32.05.268,jersey_experiment_5_v0,2023.2.2,Win32,84.74576271,,,,,,,,,,,,,,,,165.4452,166.7391,166.7392,170.8336,return,1.4738,,99.34895833,0,17,17,4,1,FBP-OG-71.png,0.45,1.2,5,0.5,,,,,,,,,,,,,,,,,,,,,,,,,,,,,,,,,,,,,,,,,,,,,
,,,,,SPR24_088,21,Female,2024-04-24_15h32.05.268,jersey_experiment_5_v0,2023.2.2,Win32,84.74576271,,,,,,,,,,,,,,,,170.8338,171.8806,171.8806,174.9278,return,0.7795,,0.390625,0,18,18,25,1,FBP-YG-19.png,0.35,1.2,26,0.25,,,,,,,,,,,,,,,,,,,,,,,,,,,,,,,,,,,,,,,,,,,,,
,,,,,SPR24_088,21,Female,2024-04-24_15h32.05.268,jersey_experiment_5_v0,2023.2.2,Win32,84.74576271,,,,,,,,,,,,,,,,174.928,176.222,176.222,179.3749,return,0.78,,24.86979167,0,19,19,7,1,FBP-OG-81.png,0.4,1.2,8,0.5,,,,,,,,,,,,,,,,,,,,,,,,,,,,,,,,,,,,,,,,,,,,,
,,,,,SPR24_088,21,Female,2024-04-24_15h32.05.268,jersey_experiment_5_v0,2023.2.2,Win32,84.74576271,,,,,,,,,,,,,,,,179.3751,180.6692,180.6693,183.0104,return,0.6942,,0.130208333,0,20,20,0,1,FBP-OG-71.png,0.35,1.2,1,0.5,,,,,,,,,,,,,,,,,,,,,,,,,,,,,,,,,,,,,,,,,,,,,
,,,,,SPR24_088,21,Female,2024-04-24_15h32.05.268,jersey_experiment_5_v0,2023.2.2,Win32,84.74576271,,,,,,,,,,,,,,,,183.0107,184.0576,184.0576,186.1398,return,0.6298,,0.260416667,0,21,21,15,1,FBP-YG-17.png,0.35,1.2,16,0.25,,,,,,,,,,,,,,,,,,,,,,,,,,,,,,,,,,,,,,,,,,,,,
,,,,,SPR24_088,21,Female,2024-04-24_15h32.05.268,jersey_experiment_5_v0,2023.2.2,Win32,84.74576271,,,,,,,,,,,,,,,,186.14,187.187,187.1871,189.9518,return,1.2284,,0.260416667,0,22,22,46,1,FBP-PT-17.png,0.37,1.2,47,0.25,,,,,,,,,,,,,,,,,,,,,,,,,,,,,,,,,,,,,,,,,,,,,
,,,,,SPR24_088,21,Female,2024-04-24_15h32.05.268,jersey_experiment_5_v0,2023.2.2,Win32,84.74576271,,,,,,,,,,,,,,,,189.9521,190.9989,190.999,194.6579,return,0.9765,,64.19270833,0,23,23,48,1,FBP-PT-17.png,0.43,1.2,49,0.25,,,,,,,,,,,,,,,,,,,,,,,,,,,,,,,,,,,,,,,,,,,,,
,,,,,SPR24_088,21,Female,2024-04-24_15h32.05.268,jersey_experiment_5_v0,2023.2.2,Win32,84.74576271,,,,,,,,,,,,,,,,194.6581,195.705,195.705,197.7169,return,0.7299,,64.19270833,0,24,24,47,1,FBP-PT-17.png,0.4,1.2,48,0.25,,,,,,,,,,,,,,,,,,,,,,,,,,,,,,,,,,,,,,,,,,,,,
,,,,,SPR24_088,21,Female,2024-04-24_15h32.05.268,jersey_experiment_5_v0,2023.2.2,Win32,84.74576271,,,,,,,,,,,,,,,,197.7171,198.7638,198.7639,202.2228,return,0.7467,,24.21875,0,25,25,21,1,FBP-YG-18.png,0.37,1.2,22,0.25,,,,,,,,,,,,,,,,,,,,,,,,,,,,,,,,,,,,,,,,,,,,,
,,,,,SPR24_088,21,Female,2024-04-24_15h32.05.268,jersey_experiment_5_v0,2023.2.2,Win32,84.74576271,,,,,,,,,,,,,,,,202.2231,203.2699,203.2699,205.5404,return,0.6583,,14.71354167,0,26,26,56,1,FBP-PT-19.png,0.37,1.2,57,0.25,,,,,,,,,,,,,,,,,,,,,,,,,,,,,,,,,,,,,,,,,,,,,
,,,,,SPR24_088,21,Female,2024-04-24_15h32.05.268,jersey_experiment_5_v0,2023.2.2,Win32,84.74576271,,,,,,,,,,,,,,,,205.5406,206.5877,206.5877,209.0113,return,1.036,,14.97395833,0,27,27,16,1,FBP-YG-17.png,0.37,1.2,17,0.25,,,,,,,,,,,,,,,,,,,,,,,,,,,,,,,,,,,,,,,,,,,,,
,,,,,SPR24_088,21,Female,2024-04-24_15h32.05.268,jersey_experiment_5_v0,2023.2.2,Win32,84.74576271,,,,,,,,,,,,,,,,209.0117,210.0585,210.0585,213.5998,return,0.8849,,71.61458333,0,28,28,18,1,FBP-YG-17.png,0.43,1.2,19,0.25,,,,,,,,,,,,,,,,,,,,,,,,,,,,,,,,,,,,,,,,,,,,,
,,,,,SPR24_088,21,Female,2024-04-24_15h32.05.268,jersey_experiment_5_v0,2023.2.2,Win32,84.74576271,,,,,,,,,,,,,,,,213.6,214.6469,214.6469,217.294,return,0.7222,,1.822916667,0,29,29,45,1,FBP-PT-17.png,0.35,1.2,46,0.25,,,,,,,,,,,,,,,,,,,,,,,,,,,,,,,,,,,,,,,,,,,,,
,,,,,SPR24_088,21,Female,2024-04-24_15h32.05.268,jersey_experiment_5_v0,2023.2.2,Win32,84.74576271,,,,,,,,,,,,,,,,217.2942,218.5881,218.5881,221.3295,return,0.7069,,0.130208333,0,30,30,31,1,FBP-RB-17.png,0.37,1.2,32,0.5,,,,,,,,,,,,,,,,,,,,,,,,,,,,,,,,,,,,,,,,,,,,,
,,,,,SPR24_088,21,Female,2024-04-24_15h32.05.268,jersey_experiment_5_v0,2023.2.2,Win32,84.74576271,,,,,,,,,,,,,,,,221.3297,222.3764,222.3764,224.3059,return,0.6704,,6.510416667,0,31,31,27,1,FBP-YG-19.png,0.4,1.2,28,0.25,,,,,,,,,,,,,,,,,,,,,,,,,,,,,,,,,,,,,,,,,,,,,
,,,,,SPR24_088,21,Female,2024-04-24_15h32.05.268,jersey_experiment_5_v0,2023.2.2,Win32,84.74576271,,,,,,,,,,,,,,,,224.3062,225.3531,225.3532,227.8354,return,1.162,,14.32291667,0,32,32,22,1,FBP-YG-18.png,0.4,1.2,23,0.25,,,,,,,,,,,,,,,,,,,,,,,,,,,,,,,,,,,,,,,,,,,,,
,,,,,SPR24_088,21,Female,2024-04-24_15h32.05.268,jersey_experiment_5_v0,2023.2.2,Win32,84.74576271,,,,,,,,,,,,,,,,227.8357,228.8826,228.8826,230.9297,return,0.6265,,75.26041667,0,33,33,24,1,FBP-YG-18.png,0.45,1.2,25,0.25,,,,,,,,,,,,,,,,,,,,,,,,,,,,,,,,,,,,,,,,,,,,,
,,,,,SPR24_088,21,Female,2024-04-24_15h32.05.268,jersey_experiment_5_v0,2023.2.2,Win32,84.74576271,,,,,,,,,,,,,,,,230.93,232.224,232.2241,234.9769,return,1.4741,,0.260416667,0,34,34,6,1,FBP-OG-81.png,0.37,1.2,7,0.5,,,,,,,,,,,,,,,,,,,,,,,,,,,,,,,,,,,,,,,,,,,,,
,,,,,SPR24_088,21,Female,2024-04-24_15h32.05.268,jersey_experiment_5_v0,2023.2.2,Win32,84.74576271,,,,,,,,,,,,,,,,234.9771,236.2711,236.2713,238.9301,return,0.8616,,76.171875,0,35,35,3,1,FBP-OG-71.png,0.43,1.2,4,0.5,,,,,,,,,,,,,,,,,,,,,,,,,,,,,,,,,,,,,,,,,,,,,
,,,,,SPR24_088,21,Female,2024-04-24_15h32.05.268,jersey_experiment_5_v0,2023.2.2,Win32,84.74576271,,,,,,,,,,,,,,,,238.9303,239.9771,239.9771,242.236,return,0.7849,,75.13020833,0,36,36,58,1,FBP-PT-19.png,0.43,1.2,59,0.25,,,,,,,,,,,,,,,,,,,,,,,,,,,,,,,,,,,,,,,,,,,,,
,,,,,SPR24_088,21,Female,2024-04-24_15h32.05.268,jersey_experiment_5_v0,2023.2.2,Win32,84.74576271,,,,,,,,,,,,,,,,242.2362,243.5302,243.5302,245.0597,return,0.6125,,67.05729167,0,37,37,32,1,FBP-RB-17.png,0.4,1.2,33,0.5,,,,,,,,,,,,,,,,,,,,,,,,,,,,,,,,,,,,,,,,,,,,,
,,,,,SPR24_088,21,Female,2024-04-24_15h32.05.268,jersey_experiment_5_v0,2023.2.2,Win32,84.74576271,,,,,,,,,,,,,,,,245.0599,246.3538,246.3538,247.9538,return,0.6611,,81.38020833,0,38,38,33,1,FBP-RB-17.png,0.43,1.2,34,0.5,,,,,,,,,,,,,,,,,,,,,,,,,,,,,,,,,,,,,,,,,,,,,
,,,,,SPR24_088,21,Female,2024-04-24_15h32.05.268,jersey_experiment_5_v0,2023.2.2,Win32,84.74576271,,,,,,,,,,,,,,,,247.9541,249.2482,249.2483,251.1068,return,0.6465,,99.08854167,0,39,39,44,1,FBP-RB-19.png,0.45,1.2,45,0.5,,,,,,,,,,,,,,,,,,,,,,,,,,,,,,,,,,,,,,,,,,,,,
,,,,,SPR24_088,21,Female,2024-04-24_15h32.05.268,jersey_experiment_5_v0,2023.2.2,Win32,84.74576271,,,,,,,,,,,,,,,,251.1071,252.1541,252.1541,253.8366,return,0.596,,98.828125,0,40,40,53,1,FBP-PT-18.png,0.43,1.2,54,0.25,,,,,,,,,,,,,,,,,,,,,,,,,,,,,,,,,,,,,,,,,,,,,
,,,,,SPR24_088,21,Female,2024-04-24_15h32.05.268,jersey_experiment_5_v0,2023.2.2,Win32,84.74576271,,,,,,,,,,,,,,,,253.8368,254.8836,254.8836,256.319,return,0.7228,,98.828125,0,41,41,49,1,FBP-PT-17.png,0.45,1.2,50,0.25,,,,,,,,,,,,,,,,,,,,,,,,,,,,,,,,,,,,,,,,,,,,,
,,,,,SPR24_088,21,Female,2024-04-24_15h32.05.268,jersey_experiment_5_v0,2023.2.2,Win32,84.74576271,,,,,,,,,,,,,,,,256.3192,257.6132,257.6132,260.1309,return,0.6818,,0.651041667,0,42,42,35,1,FBP-RB-18.png,0.35,1.2,36,0.5,,,,,,,,,,,,,,,,,,,,,,,,,,,,,,,,,,,,,,,,,,,,,
,,,,,SPR24_088,21,Female,2024-04-24_15h32.05.268,jersey_experiment_5_v0,2023.2.2,Win32,84.74576271,,,,,,,,,,,,,,,,260.1311,261.4249,261.4249,264.8487,return,0.6955,,1.041666667,0,43,43,36,1,FBP-RB-18.png,0.37,1.2,37,0.5,,,,,,,,,,,,,,,,,,,,,,,,,,,,,,,,,,,,,,,,,,,,,
,,,,,SPR24_088,21,Female,2024-04-24_15h32.05.268,jersey_experiment_5_v0,2023.2.2,Win32,84.74576271,,,,,,,,,,,,,,,,264.8489,265.8957,265.8958,268.4135,return,0.6868,,81.90104167,0,44,44,19,1,FBP-YG-17.png,0.45,1.2,20,0.25,,,,,,,,,,,,,,,,,,,,,,,,,,,,,,,,,,,,,,,,,,,,,
,,,,,SPR24_088,21,Female,2024-04-24_15h32.05.268,jersey_experiment_5_v0,2023.2.2,Win32,84.74576271,,,,,,,,,,,,,,,,268.4137,269.4606,269.4606,271.9902,return,0.744,,22.52604167,0,45,45,17,1,FBP-YG-17.png,0.4,1.2,18,0.25,,,,,,,,,,,,,,,,,,,,,,,,,,,,,,,,,,,,,,,,,,,,,
,,,,,SPR24_088,21,Female,2024-04-24_15h32.05.268,jersey_experiment_5_v0,2023.2.2,Win32,84.74576271,,,,,,,,,,,,,,,,271.9904,273.0372,273.0372,275.2844,return,0.8845,,85.28645833,0,46,46,23,1,FBP-YG-18.png,0.43,1.2,24,0.25,,,,,,,,,,,,,,,,,,,,,,,,,,,,,,,,,,,,,,,,,,,,,
,,,,,SPR24_088,21,Female,2024-04-24_15h32.05.268,jersey_experiment_5_v0,2023.2.2,Win32,84.74576271,,,,,,,,,,,,,,,,275.2846,276.5785,276.5785,279.0256,return,0.6595,,68.22916667,0,47,47,37,1,FBP-RB-18.png,0.4,1.2,38,0.5,,,,,,,,,,,,,,,,,,,,,,,,,,,,,,,,,,,,,,,,,,,,,
,,,,,SPR24_088,21,Female,2024-04-24_15h32.05.268,jersey_experiment_5_v0,2023.2.2,Win32,84.74576271,,,,,,,,,,,,,,,,279.0259,280.32,280.32,281.7081,return,0.6085,,67.31770833,0,48,48,12,1,FBP-OG-91.png,0.4,1.2,13,0.5,,,,,,,,,,,,,,,,,,,,,,,,,,,,,,,,,,,,,,,,,,,,,
,,,,,SPR24_088,21,Female,2024-04-24_15h32.05.268,jersey_experiment_5_v0,2023.2.2,Win32,84.74576271,,,,,,,,,,,,,,,,281.7084,283.0023,283.0024,285.12,return,0.604,,3.255208333,0,49,49,30,1,FBP-RB-17.png,0.35,1.2,31,0.5,,,,,,,,,,,,,,,,,,,,,,,,,,,,,,,,,,,,,,,,,,,,,
,,,,,SPR24_088,21,Female,2024-04-24_15h32.05.268,jersey_experiment_5_v0,2023.2.2,Win32,84.74576271,,,,,,,,,,,,,,,,285.1202,286.4145,286.4145,288.5084,return,0.7122,,94.40104167,0,50,50,8,1,FBP-OG-81.png,0.43,1.2,9,0.5,,,,,,,,,,,,,,,,,,,,,,,,,,,,,,,,,,,,,,,,,,,,,
,,,,,SPR24_088,21,Female,2024-04-24_15h32.05.268,jersey_experiment_5_v0,2023.2.2,Win32,84.74576271,,,,,,,,,,,,,,,,288.5087,289.8028,289.8028,292.9555,return,0.6422,,38.93229167,0,51,51,11,1,FBP-OG-91.png,0.37,1.2,12,0.5,,,,,,,,,,,,,,,,,,,,,,,,,,,,,,,,,,,,,,,,,,,,,
,,,,,SPR24_088,21,Female,2024-04-24_15h32.05.268,jersey_experiment_5_v0,2023.2.2,Win32,84.74576271,,,,,,,,,,,,,,,,292.9557,294.2498,294.2498,296.2733,return,0.6501,,88.15104167,0,52,52,43,1,FBP-RB-19.png,0.43,1.2,44,0.5,,,,,,,,,,,,,,,,,,,,,,,,,,,,,,,,,,,,,,,,,,,,,
,,,,,SPR24_088,21,Female,2024-04-24_15h32.05.268,jersey_experiment_5_v0,2023.2.2,Win32,84.74576271,,,,,,,,,,,,,,,,296.2735,297.5675,297.5675,299.0146,return,0.5886,,99.73958333,0,53,53,39,1,FBP-RB-18.png,0.45,1.2,40,0.5,,,,,,,,,,,,,,,,,,,,,,,,,,,,,,,,,,,,,,,,,,,,,
,,,,,SPR24_088,21,Female,2024-04-24_15h32.05.268,jersey_experiment_5_v0,2023.2.2,Win32,84.74576271,,,,,,,,,,,,,,,,299.0148,300.0616,300.0617,302.2617,return,0.8948,,1.953125,0,54,54,51,1,FBP-PT-18.png,0.37,1.2,52,0.25,,,,,,,,,,,,,,,,,,,,,,,,,,,,,,,,,,,,,,,,,,,,,
,,,,,SPR24_088,21,Female,2024-04-24_15h32.05.268,jersey_experiment_5_v0,2023.2.2,Win32,84.74576271,,,,,,,,,,,,,,,,302.2619,303.556,303.556,306.1326,return,0.5657,,29.03645833,0,55,55,2,1,FBP-OG-71.png,0.4,1.2,3,0.5,,,,,,,,,,,,,,,,,,,,,,,,,,,,,,,,,,,,,,,,,,,,,
,,,,,SPR24_088,21,Female,2024-04-24_15h32.05.268,jersey_experiment_5_v0,2023.2.2,Win32,84.74576271,,,,,,,,,,,,,,,,306.1328,307.4266,307.4266,309.109,return,0.565,,1.692708333,0,56,56,41,1,FBP-RB-19.png,0.37,1.2,42,0.5,,,,,,,,,,,,,,,,,,,,,,,,,,,,,,,,,,,,,,,,,,,,,
,,,,,SPR24_088,21,Female,2024-04-24_15h32.05.268,jersey_experiment_5_v0,2023.2.2,Win32,84.74576271,,,,,,,,,,,,,,,,309.1093,310.1563,310.1564,312.9798,return,0.6119,,0.390625,0,57,57,20,1,FBP-YG-18.png,0.35,1.2,21,0.25,,,,,,,,,,,,,,,,,,,,,,,,,,,,,,,,,,,,,,,,,,,,,
,,,,,SPR24_088,21,Female,2024-04-24_15h32.05.268,jersey_experiment_5_v0,2023.2.2,Win32,84.74576271,,,,,,,,,,,,,,,,312.98,314.0268,314.0269,316.3093,return,0.6592,,25.390625,0,58,58,57,1,FBP-PT-19.png,0.4,1.2,58,0.25,,,,,,,,,,,,,,,,,,,,,,,,,,,,,,,,,,,,,,,,,,,,,
,,,,,SPR24_088,21,Female,2024-04-24_15h32.05.268,jersey_experiment_5_v0,2023.2.2,Win32,84.74576271,,,,,,,,,,,,,,,,316.3095,317.6035,317.6035,319.7919,return,0.7808,,99.609375,0,59,59,14,1,FBP-OG-91.png,0.45,1.2,15,0.5,,,,,,,,,,,,,,,,,,,,,,,,,,,,,,,,,,,,,,,,,,,,,
,,,,,SPR24_088,21,Female,2024-04-24_15h32.05.268,jersey_experiment_5_v0,2023.2.2,Win32,84.74576271,,,,,,,,,,,,,,,,319.794,321.086,321.0862,323.8036,return,0.7124,,36.84895833,,,,,,FBP-RB-71.png,0.37,1.2,32,0.5,0,0,0,31,1,,,,,,,,,,,,,,,,,,,,,,,,,,,,,,,,,,,,,,,,
,,,,,SPR24_088,21,Female,2024-04-24_15h32.05.268,jersey_experiment_5_v0,2023.2.2,Win32,84.74576271,,,,,,,,,,,,,,,,323.804,325.0979,325.0979,327.4391,return,0.9226,,66.27604167,,,,,,FBP-OG-19.png,0.43,1.2,14,0.5,0,1,1,13,1,,,,,,,,,,,,,,,,,,,,,,,,,,,,,,,,,,,,,,,,
,,,,,SPR24_088,21,Female,2024-04-24_15h32.05.268,jersey_experiment_5_v0,2023.2.2,Win32,84.74576271,,,,,,,,,,,,,,,,327.4393,328.4861,328.4862,330.8864,return,0.6729,,31.11979167,,,,,,FBP-YG-91.png,0.37,1.2,27,0.25,0,2,2,26,1,,,,,,,,,,,,,,,,,,,,,,,,,,,,,,,,,,,,,,,,
,,,,,SPR24_088,21,Female,2024-04-24_15h32.05.268,jersey_experiment_5_v0,2023.2.2,Win32,84.74576271,,,,,,,,,,,,,,,,330.8865,331.9335,331.9335,333.3806,return,0.659,,27.34375,,,,,,FBP-PT-91.png,0.4,1.2,58,0.25,0,3,3,57,1,,,,,,,,,,,,,,,,,,,,,,,,,,,,,,,,,,,,,,,,
,,,,,SPR24_088,21,Female,2024-04-24_15h32.05.268,jersey_experiment_5_v0,2023.2.2,Win32,84.74576271,,,,,,,,,,,,,,,,333.3808,334.6746,334.6747,336.2043,return,0.6646,,79.42708333,,,,,,FBP-OG-18.png,0.45,1.2,10,0.5,0,4,4,9,1,,,,,,,,,,,,,,,,,,,,,,,,,,,,,,,,,,,,,,,,
,,,,,SPR24_088,21,Female,2024-04-24_15h32.05.268,jersey_experiment_5_v0,2023.2.2,Win32,84.74576271,,,,,,,,,,,,,,,,336.2045,337.2512,337.2512,339.0866,return,0.6508,,70.05208333,,,,,,FBP-PT-71.png,0.43,1.2,49,0.25,0,5,5,48,1,,,,,,,,,,,,,,,,,,,,,,,,,,,,,,,,,,,,,,,,
,,,,,SPR24_088,21,Female,2024-04-24_15h32.05.268,jersey_experiment_5_v0,2023.2.2,Win32,84.74576271,,,,,,,,,,,,,,,,339.0868,340.3807,340.3808,342.6044,return,0.608,,99.47916667,,,,,,FBP-RB-81.png,0.45,1.2,40,0.5,0,6,6,39,1,,,,,,,,,,,,,,,,,,,,,,,,,,,,,,,,,,,,,,,,
,,,,,SPR24_088,21,Female,2024-04-24_15h32.05.268,jersey_experiment_5_v0,2023.2.2,Win32,84.74576271,,,,,,,,,,,,,,,,342.6046,343.8987,343.8988,345.1339,return,0.628,,99.34895833,,,,,,FBP-RB-91.png,0.45,1.2,45,0.5,0,7,7,44,1,,,,,,,,,,,,,,,,,,,,,,,,,,,,,,,,,,,,,,,,
,,,,,SPR24_088,21,Female,2024-04-24_15h32.05.268,jersey_experiment_5_v0,2023.2.2,Win32,84.74576271,,,,,,,,,,,,,,,,345.1341,346.4281,346.4281,348.534,return,0.6732,,97.00520833,,,,,,FBP-OG-17.png,0.45,1.2,5,0.5,0,8,8,4,1,,,,,,,,,,,,,,,,,,,,,,,,,,,,,,,,,,,,,,,,
,,,,,SPR24_088,21,Female,2024-04-24_15h32.05.268,jersey_experiment_5_v0,2023.2.2,Win32,84.74576271,,,,,,,,,,,,,,,,348.5343,349.8281,349.8281,352.7224,return,0.7767,,66.14583333,,,,,,FBP-OG-17.png,0.4,1.2,3,0.5,0,9,9,2,1,,,,,,,,,,,,,,,,,,,,,,,,,,,,,,,,,,,,,,,,
,,,,,SPR24_088,21,Female,2024-04-24_15h32.05.268,jersey_experiment_5_v0,2023.2.2,Win32,84.74576271,,,,,,,,,,,,,,,,352.7226,353.7695,353.7696,355.6637,return,0.6376,,85.67708333,,,,,,FBP-PT-81.png,0.45,1.2,55,0.25,0,10,10,54,1,,,,,,,,,,,,,,,,,,,,,,,,,,,,,,,,,,,,,,,,
,,,,,SPR24_088,21,Female,2024-04-24_15h32.05.268,jersey_experiment_5_v0,2023.2.2,Win32,84.74576271,,,,,,,,,,,,,,,,355.664,356.9578,356.9578,359.1344,return,0.6646,,99.609375,,,,,,FBP-RB-71.png,0.45,1.2,35,0.5,0,11,11,34,1,,,,,,,,,,,,,,,,,,,,,,,,,,,,,,,,,,,,,,,,
,,,,,SPR24_088,21,Female,2024-04-24_15h32.05.268,jersey_experiment_5_v0,2023.2.2,Win32,84.74576271,,,,,,,,,,,,,,,,359.1346,360.4287,360.4287,362.2404,return,0.6726,,25,,,,,,FBP-RB-71.png,0.4,1.2,33,0.5,0,12,12,32,1,,,,,,,,,,,,,,,,,,,,,,,,,,,,,,,,,,,,,,,,
,,,,,SPR24_088,21,Female,2024-04-24_15h32.05.268,jersey_experiment_5_v0,2023.2.2,Win32,84.74576271,,,,,,,,,,,,,,,,362.2406,363.5345,363.5345,365.2992,return,0.7303,,83.46354167,,,,,,FBP-RB-71.png,0.43,1.2,34,0.5,0,13,13,33,1,,,,,,,,,,,,,,,,,,,,,,,,,,,,,,,,,,,,,,,,
,,,,,SPR24_088,21,Female,2024-04-24_15h32.05.268,jersey_experiment_5_v0,2023.2.2,Win32,84.74576271,,,,,,,,,,,,,,,,365.2994,366.3463,366.3464,368.417,return,0.6032,,0.78125,,,,,,FBP-YG-91.png,0.35,1.2,26,0.25,0,14,14,25,1,,,,,,,,,,,,,,,,,,,,,,,,,,,,,,,,,,,,,,,,
,,,,,SPR24_088,21,Female,2024-04-24_15h32.05.268,jersey_experiment_5_v0,2023.2.2,Win32,84.74576271,,,,,,,,,,,,,,,,368.4174,369.4641,369.4642,371.7114,return,1.0852,,16.015625,,,,,,FBP-YG-81.png,0.4,1.2,23,0.25,0,15,15,22,1,,,,,,,,,,,,,,,,,,,,,,,,,,,,,,,,,,,,,,,,
,,,,,SPR24_088,21,Female,2024-04-24_15h32.05.268,jersey_experiment_5_v0,2023.2.2,Win32,84.74576271,,,,,,,,,,,,,,,,371.7117,373.0056,373.0056,374.4761,return,0.6904,,1.041666667,,,,,,FBP-OG-19.png,0.37,1.2,12,0.5,0,16,16,11,1,,,,,,,,,,,,,,,,,,,,,,,,,,,,,,,,,,,,,,,,
,,,,,SPR24_088,21,Female,2024-04-24_15h32.05.268,jersey_experiment_5_v0,2023.2.2,Win32,84.74576271,,,,,,,,,,,,,,,,374.4764,375.7703,375.7703,377.4999,return,0.7025,,7.421875,,,,,,FBP-RB-81.png,0.4,1.2,38,0.5,0,17,17,37,1,,,,,,,,,,,,,,,,,,,,,,,,,,,,,,,,,,,,,,,,
,,,,,SPR24_088,21,Female,2024-04-24_15h32.05.268,jersey_experiment_5_v0,2023.2.2,Win32,84.74576271,,,,,,,,,,,,,,,,377.5002,378.547,378.547,380.2763,return,0.6591,,0.520833333,,,,,,FBP-YG-71.png,0.37,1.2,17,0.25,0,18,18,16,1,,,,,,,,,,,,,,,,,,,,,,,,,,,,,,,,,,,,,,,,
,,,,,SPR24_088,21,Female,2024-04-24_15h32.05.268,jersey_experiment_5_v0,2023.2.2,Win32,84.74576271,,,,,,,,,,,,,,,,380.2765,381.5704,381.5705,382.6764,return,0.6354,,0.520833333,,,,,,FBP-RB-81.png,0.35,1.2,36,0.5,0,19,19,35,1,,,,,,,,,,,,,,,,,,,,,,,,,,,,,,,,,,,,,,,,
,,,,,SPR24_088,21,Female,2024-04-24_15h32.05.268,jersey_experiment_5_v0,2023.2.2,Win32,84.74576271,,,,,,,,,,,,,,,,382.6766,383.7234,383.7236,386.2883,return,0.8274,,0.520833333,,,,,,FBP-YG-91.png,0.4,1.2,28,0.25,0,20,20,27,1,,,,,,,,,,,,,,,,,,,,,,,,,,,,,,,,,,,,,,,,
,,,,,SPR24_088,21,Female,2024-04-24_15h32.05.268,jersey_experiment_5_v0,2023.2.2,Win32,84.74576271,,,,,,,,,,,,,,,,386.2886,387.5826,387.5826,390.559,return,0.5911,,39.58333333,,,,,,FBP-RB-91.png,0.43,1.2,44,0.5,0,21,21,43,1,,,,,,,,,,,,,,,,,,,,,,,,,,,,,,,,,,,,,,,,
,,,,,SPR24_088,21,Female,2024-04-24_15h32.05.268,jersey_experiment_5_v0,2023.2.2,Win32,84.74576271,,,,,,,,,,,,,,,,390.5593,391.8532,391.8532,394.1239,return,1.3353,,19.01041667,,,,,,FBP-OG-17.png,0.37,1.2,2,0.5,0,22,22,1,1,,,,,,,,,,,,,,,,,,,,,,,,,,,,,,,,,,,,,,,,
,,,,,SPR24_088,21,Female,2024-04-24_15h32.05.268,jersey_experiment_5_v0,2023.2.2,Win32,84.74576271,,,,,,,,,,,,,,,,394.1242,395.418,395.4181,397.4771,return,0.8234,,1.171875,,,,,,FBP-RB-71.png,0.35,1.2,31,0.5,0,23,23,30,1,,,,,,,,,,,,,,,,,,,,,,,,,,,,,,,,,,,,,,,,
,,,,,SPR24_088,21,Female,2024-04-24_15h32.05.268,jersey_experiment_5_v0,2023.2.2,Win32,84.74576271,,,,,,,,,,,,,,,,397.4773,398.524,398.524,401.2652,return,0.6262,,60.80729167,,,,,,FBP-YG-91.png,0.43,1.2,29,0.25,0,24,24,28,1,,,,,,,,,,,,,,,,,,,,,,,,,,,,,,,,,,,,,,,,
,,,,,SPR24_088,21,Female,2024-04-24_15h32.05.268,jersey_experiment_5_v0,2023.2.2,Win32,84.74576271,,,,,,,,,,,,,,,,401.2655,402.5596,402.5597,404.2301,return,0.6588,,21.22395833,,,,,,FBP-RB-91.png,0.35,1.2,41,0.5,0,25,25,40,1,,,,,,,,,,,,,,,,,,,,,,,,,,,,,,,,,,,,,,,,
,,,,,SPR24_088,21,Female,2024-04-24_15h32.05.268,jersey_experiment_5_v0,2023.2.2,Win32,84.74576271,,,,,,,,,,,,,,,,404.2304,405.2772,405.2772,408.1598,return,0.6753,,24.34895833,,,,,,FBP-PT-91.png,0.37,1.2,57,0.25,0,26,26,56,1,,,,,,,,,,,,,,,,,,,,,,,,,,,,,,,,,,,,,,,,
,,,,,SPR24_088,21,Female,2024-04-24_15h32.05.268,jersey_experiment_5_v0,2023.2.2,Win32,84.74576271,,,,,,,,,,,,,,,,408.16,409.2068,409.2069,411.854,return,0.6631,,70.44270833,,,,,,FBP-YG-71.png,0.43,1.2,19,0.25,0,27,27,18,1,,,,,,,,,,,,,,,,,,,,,,,,,,,,,,,,,,,,,,,,
,,,,,SPR24_088,21,Female,2024-04-24_15h32.05.268,jersey_experiment_5_v0,2023.2.2,Win32,84.74576271,,,,,,,,,,,,,,,,411.8543,412.9009,412.901,414.8659,return,0.7763,,84.89583333,,,,,,FBP-PT-81.png,0.43,1.2,54,0.25,0,28,28,53,1,,,,,,,,,,,,,,,,,,,,,,,,,,,,,,,,,,,,,,,,
,,,,,SPR24_088,21,Female,2024-04-24_15h32.05.268,jersey_experiment_5_v0,2023.2.2,Win32,84.74576271,,,,,,,,,,,,,,,,414.866,415.9128,415.913,418.3484,return,0.89,,25.26041667,,,,,,FBP-PT-81.png,0.37,1.2,52,0.25,0,29,29,51,1,,,,,,,,,,,,,,,,,,,,,,,,,,,,,,,,,,,,,,,,
,,,,,SPR24_088,21,Female,2024-04-24_15h32.05.268,jersey_experiment_5_v0,2023.2.2,Win32,84.74576271,,,,,,,,,,,,,,,,418.3486,419.6427,419.6428,421.4072,return,0.214,,94.921875,,,,,,FBP-OG-19.png,0.45,1.2,15,0.5,0,30,30,14,1,,,,,,,,,,,,,,,,,,,,,,,,,,,,,,,,,,,,,,,,
,,,,,SPR24_088,21,Female,2024-04-24_15h32.05.268,jersey_experiment_5_v0,2023.2.2,Win32,84.74576271,,,,,,,,,,,,,,,,421.4074,422.7014,422.7014,424.5484,return,0.363,,24.47916667,,,,,,FBP-RB-91.png,0.37,1.2,42,0.5,0,31,31,41,1,,,,,,,,,,,,,,,,,,,,,,,,,,,,,,,,,,,,,,,,
,,,,,SPR24_088,21,Female,2024-04-24_15h32.05.268,jersey_experiment_5_v0,2023.2.2,Win32,84.74576271,,,,,,,,,,,,,,,,424.5486,425.5956,425.5957,435.1725,return,0.9795,,1.041666667,,,,,,FBP-YG-71.png,0.35,1.2,16,0.25,0,32,32,15,1,,,,,,,,,,,,,,,,,,,,,,,,,,,,,,,,,,,,,,,,
,,,,,SPR24_088,21,Female,2024-04-24_15h32.05.268,jersey_experiment_5_v0,2023.2.2,Win32,84.74576271,,,,,,,,,,,,,,,,435.1727,436.2195,436.2195,437.9843,return,0.3098,,80.20833333,,,,,,FBP-YG-81.png,0.45,1.2,25,0.25,0,33,33,24,1,,,,,,,,,,,,,,,,,,,,,,,,,,,,,,,,,,,,,,,,
,,,,,SPR24_088,21,Female,2024-04-24_15h32.05.268,jersey_experiment_5_v0,2023.2.2,Win32,84.74576271,,,,,,,,,,,,,,,,437.9845,439.0314,439.0314,440.5138,return,0.3767,,77.47395833,,,,,,FBP-YG-71.png,0.45,1.2,20,0.25,0,34,34,19,1,,,,,,,,,,,,,,,,,,,,,,,,,,,,,,,,,,,,,,,,
,,,,,SPR24_088,21,Female,2024-04-24_15h32.05.268,jersey_experiment_5_v0,2023.2.2,Win32,84.74576271,,,,,,,,,,,,,,,,440.5139,441.5607,441.5608,442.9727,return,0.1955,,98.69791667,,,,,,FBP-YG-91.png,0.45,1.2,30,0.25,0,35,35,29,1,,,,,,,,,,,,,,,,,,,,,,,,,,,,,,,,,,,,,,,,
,,,,,SPR24_088,21,Female,2024-04-24_15h32.05.268,jersey_experiment_5_v0,2023.2.2,Win32,84.74576271,,,,,,,,,,,,,,,,442.973,444.2668,444.2668,444.9493,return,0.1648,,98.69791667,,,,,,FBP-OG-18.png,0.43,1.2,9,0.5,0,36,36,8,1,,,,,,,,,,,,,,,,,,,,,,,,,,,,,,,,,,,,,,,,
,,,,,SPR24_088,21,Female,2024-04-24_15h32.05.268,jersey_experiment_5_v0,2023.2.2,Win32,84.74576271,,,,,,,,,,,,,,,,444.9495,445.9963,445.9964,447.573,return,0.2122,,28.515625,,,,,,FBP-PT-71.png,0.37,1.2,47,0.25,0,37,37,46,1,,,,,,,,,,,,,,,,,,,,,,,,,,,,,,,,,,,,,,,,
,,,,,SPR24_088,21,Female,2024-04-24_15h32.05.268,jersey_experiment_5_v0,2023.2.2,Win32,84.74576271,,,,,,,,,,,,,,,,447.5733,448.867,448.8671,450.1732,return,0.158,,0.78125,,,,,,FBP-OG-17.png,0.35,1.2,1,0.5,0,38,38,0,1,,,,,,,,,,,,,,,,,,,,,,,,,,,,,,,,,,,,,,,,
,,,,,SPR24_088,21,Female,2024-04-24_15h32.05.268,jersey_experiment_5_v0,2023.2.2,Win32,84.74576271,,,,,,,,,,,,,,,,450.1734,451.4671,451.4671,452.5259,return,0.1709,,5.338541667,,,,,,FBP-OG-19.png,0.4,1.2,13,0.5,0,39,39,12,1,,,,,,,,,,,,,,,,,,,,,,,,,,,,,,,,,,,,,,,,
,,,,,SPR24_088,21,Female,2024-04-24_15h32.05.268,jersey_experiment_5_v0,2023.2.2,Win32,84.74576271,,,,,,,,,,,,,,,,452.5262,453.5731,453.5732,454.6436,return,0.165,,5.46875,,,,,,FBP-YG-71.png,0.4,1.2,18,0.25,0,40,40,17,1,,,,,,,,,,,,,,,,,,,,,,,,,,,,,,,,,,,,,,,,
,,,,,SPR24_088,21,Female,2024-04-24_15h32.05.268,jersey_experiment_5_v0,2023.2.2,Win32,84.74576271,,,,,,,,,,,,,,,,454.6438,455.6908,455.6908,456.7379,return,0.2608,,5.46875,,,,,,FBP-YG-81.png,0.37,1.2,22,0.25,0,41,41,21,1,,,,,,,,,,,,,,,,,,,,,,,,,,,,,,,,,,,,,,,,
,,,,,SPR24_088,21,Female,2024-04-24_15h32.05.268,jersey_experiment_5_v0,2023.2.2,Win32,84.74576271,,,,,,,,,,,,,,,,456.7382,458.0319,458.032,459.3262,return,0.1705,,98.828125,,,,,,FBP-RB-81.png,0.43,1.2,39,0.5,0,42,42,38,1,,,,,,,,,,,,,,,,,,,,,,,,,,,,,,,,,,,,,,,,
,,,,,SPR24_088,21,Female,2024-04-24_15h32.05.268,jersey_experiment_5_v0,2023.2.2,Win32,84.74576271,,,,,,,,,,,,,,,,459.3263,460.3733,460.3733,461.0909,return,0.175,,98.30729167,,,,,,FBP-PT-91.png,0.43,1.2,59,0.25,0,43,43,58,1,,,,,,,,,,,,,,,,,,,,,,,,,,,,,,,,,,,,,,,,
,,,,,SPR24_088,21,Female,2024-04-24_15h32.05.268,jersey_experiment_5_v0,2023.2.2,Win32,84.74576271,,,,,,,,,,,,,,,,461.0912,462.3851,462.3851,463.9499,return,0.1589,,25.78125,,,,,,FBP-RB-81.png,0.37,1.2,37,0.5,0,44,44,36,1,,,,,,,,,,,,,,,,,,,,,,,,,,,,,,,,,,,,,,,,
,,,,,SPR24_088,21,Female,2024-04-24_15h32.05.268,jersey_experiment_5_v0,2023.2.2,Win32,84.74576271,,,,,,,,,,,,,,,,463.9502,465.2442,465.2442,466.0795,return,0.3673,,25.65104167,,,,,,FBP-RB-91.png,0.4,1.2,43,0.5,0,45,45,42,1,,,,,,,,,,,,,,,,,,,,,,,,,,,,,,,,,,,,,,,,
,,,,,SPR24_088,21,Female,2024-04-24_15h32.05.268,jersey_experiment_5_v0,2023.2.2,Win32,84.74576271,,,,,,,,,,,,,,,,466.0797,467.1265,467.1265,468.5266,return,0.1466,,74.34895833,,,,,,FBP-PT-71.png,0.45,1.2,50,0.25,0,46,46,49,1,,,,,,,,,,,,,,,,,,,,,,,,,,,,,,,,,,,,,,,,
,,,,,SPR24_088,21,Female,2024-04-24_15h32.05.268,jersey_experiment_5_v0,2023.2.2,Win32,84.74576271,,,,,,,,,,,,,,,,468.5269,469.5739,469.5739,471.9387,return,0.1754,,8.463541667,,,,,,FBP-PT-71.png,0.35,1.2,46,0.25,0,47,47,45,1,,,,,,,,,,,,,,,,,,,,,,,,,,,,,,,,,,,,,,,,
,,,,,SPR24_088,21,Female,2024-04-24_15h32.05.268,jersey_experiment_5_v0,2023.2.2,Win32,84.74576271,,,,,,,,,,,,,,,,471.939,472.9855,472.9856,474.3974,return,0.1828,,27.734375,,,,,,FBP-PT-81.png,0.4,1.2,53,0.25,0,48,48,52,1,,,,,,,,,,,,,,,,,,,,,,,,,,,,,,,,,,,,,,,,
,,,,,SPR24_088,21,Female,2024-04-24_15h32.05.268,jersey_experiment_5_v0,2023.2.2,Win32,84.74576271,,,,,,,,,,,,,,,,474.3976,475.4444,475.4444,478.0681,return,0.3436,,70.57291667,,,,,,FBP-PT-71.png,0.4,1.2,48,0.25,0,49,49,47,1,,,,,,,,,,,,,,,,,,,,,,,,,,,,,,,,,,,,,,,,
,,,,,SPR24_088,21,Female,2024-04-24_15h32.05.268,jersey_experiment_5_v0,2023.2.2,Win32,84.74576271,,,,,,,,,,,,,,,,478.0683,479.3623,479.3624,480.7152,return,0.2537,,97.13541667,,,,,,FBP-OG-17.png,0.43,1.2,4,0.5,0,50,50,3,1,,,,,,,,,,,,,,,,,,,,,,,,,,,,,,,,,,,,,,,,
,,,,,SPR24_088,21,Female,2024-04-24_15h32.05.268,jersey_experiment_5_v0,2023.2.2,Win32,84.74576271,,,,,,,,,,,,,,,,480.7154,481.7623,481.7623,483.2684,return,0.4147,,99.86979167,,,,,,FBP-YG-81.png,0.43,1.2,24,0.25,0,51,51,23,1,,,,,,,,,,,,,,,,,,,,,,,,,,,,,,,,,,,,,,,,
,,,,,SPR24_088,21,Female,2024-04-24_15h32.05.268,jersey_experiment_5_v0,2023.2.2,Win32,84.74576271,,,,,,,,,,,,,,,,483.2686,484.5626,484.5626,486.2096,return,0.3444,,1.041666667,,,,,,FBP-OG-18.png,0.35,1.2,6,0.5,0,52,52,5,1,,,,,,,,,,,,,,,,,,,,,,,,,,,,,,,,,,,,,,,,
,,,,,SPR24_088,21,Female,2024-04-24_15h32.05.268,jersey_experiment_5_v0,2023.2.2,Win32,84.74576271,,,,,,,,,,,,,,,,486.2098,487.5037,487.5038,488.8803,return,0.192,,11.97916667,,,,,,FBP-OG-18.png,0.4,1.2,8,0.5,0,53,53,7,1,,,,,,,,,,,,,,,,,,,,,,,,,,,,,,,,,,,,,,,,
,,,,,SPR24_088,21,Female,2024-04-24_15h32.05.268,jersey_experiment_5_v0,2023.2.2,Win32,84.74576271,,,,,,,,,,,,,,,,488.8806,490.1744,490.1744,491.8451,return,0.2917,,5.989583333,,,,,,FBP-OG-18.png,0.37,1.2,7,0.5,0,54,54,6,1,,,,,,,,,,,,,,,,,,,,,,,,,,,,,,,,,,,,,,,,
,,,,,SPR24_088,21,Female,2024-04-24_15h32.05.268,jersey_experiment_5_v0,2023.2.2,Win32,84.74576271,,,,,,,,,,,,,,,,491.8454,492.8921,492.8922,494.2451,return,0.1504,,1.171875,,,,,,FBP-YG-81.png,0.35,1.2,21,0.25,0,55,55,20,1,,,,,,,,,,,,,,,,,,,,,,,,,,,,,,,,,,,,,,,,
,,,,,SPR24_088,21,Female,2024-04-24_15h32.05.268,jersey_experiment_5_v0,2023.2.2,Win32,84.74576271,,,,,,,,,,,,,,,,494.2453,495.5393,495.5393,496.2922,return,0.1886,,1.5625,,,,,,FBP-OG-19.png,0.35,1.2,11,0.5,0,56,56,10,1,,,,,,,,,,,,,,,,,,,,,,,,,,,,,,,,,,,,,,,,
,,,,,SPR24_088,21,Female,2024-04-24_15h32.05.268,jersey_experiment_5_v0,2023.2.2,Win32,84.74576271,,,,,,,,,,,,,,,,496.2925,497.3394,497.3394,499.3983,return,0.2924,,97.78645833,,,,,,FBP-PT-91.png,0.45,1.2,60,0.25,0,57,57,59,1,,,,,,,,,,,,,,,,,,,,,,,,,,,,,,,,,,,,,,,,
,,,,,SPR24_088,21,Female,2024-04-24_15h32.05.268,jersey_experiment_5_v0,2023.2.2,Win32,84.74576271,,,,,,,,,,,,,,,,499.3985,500.4453,500.4454,502.5986,return,0.1884,,13.28125,,,,,,FBP-PT-91.png,0.35,1.2,56,0.25,0,58,58,55,1,,,,,,,,,,,,,,,,,,,,,,,,,,,,,,,,,,,,,,,,
,,,,,SPR24_088,21,Female,2024-04-24_15h32.05.268,jersey_experiment_5_v0,2023.2.2,Win32,84.74576271,,,,,,,,,,,,,,,,502.5988,503.6454,503.6454,504.9632,return,0.155,,7.8125,,,,,,FBP-PT-81.png,0.35,1.2,51,0.25,0,59,59,50,1,,,,,,,,,,,,,,,,,,,,,,,,,,,,,,,,,,,,,,,,
,,,,,SPR24_088,21,Female,2024-04-24_15h32.05.268,jersey_experiment_5_v0,2023.2.2,Win32,84.74576271,,,,,,,,,,,,,,,,,,,,,,,,,,,,,,,,,,,,,,,504.9636,624.9561,,,,,,,,,,,,,,,,,,,,,,,,,,,,,,,,,,,,,,
,,,,,SPR24_088,21,Female,2024-04-24_15h32.05.268,jersey_experiment_5_v0,2023.2.2,Win32,84.74576271,,,,,,,,,,,,,,,,,,,,,,,,,,,,,,,,,,,,,,,,,624.9562,634.1563,return,9.1942,,,,,,,,,,,,,,,,,,,,,,,,,,,,,,,,,,
,,,,,SPR24_088,21,Female,2024-04-24_15h32.05.268,jersey_experiment_5_v0,2023.2.2,Win32,84.74576271,,,,,,,,,,,,,,,,634.1624,635.4619,635.4619,642.9799,return,2.3864,,76.43229167,,,,,,FBP-YG-19.png,0.45,1.2,30,0.5,,,,,,,,,,,,,0,0,0,29,1,,,,,,,,,,,,,,,,,,,,,,,,,,,,
,,,,,SPR24_088,21,Female,2024-04-24_15h32.05.268,jersey_experiment_5_v0,2023.2.2,Win32,84.74576271,,,,,,,,,,,,,,,,642.9802,644.0269,644.0269,645.427,return,0.1984,,77.60416667,,,,,,FBP-RB-18.png,0.45,1.2,40,0.25,,,,,,,,,,,,,0,1,1,39,1,,,,,,,,,,,,,,,,,,,,,,,,,,,,
,,,,,SPR24_088,21,Female,2024-04-24_15h32.05.268,jersey_experiment_5_v0,2023.2.2,Win32,84.74576271,,,,,,,,,,,,,,,,645.4272,646.4741,646.4743,647.3448,return,0.2587,,77.60416667,,,,,,FBP-RB-17.png,0.43,1.2,34,0.25,,,,,,,,,,,,,0,2,2,33,1,,,,,,,,,,,,,,,,,,,,,,,,,,,,
,,,,,SPR24_088,21,Female,2024-04-24_15h32.05.268,jersey_experiment_5_v0,2023.2.2,Win32,84.74576271,,,,,,,,,,,,,,,,647.345,648.3919,648.3919,650.2506,return,0.2206,,15.49479167,,,,,,FBP-RB-17.png,0.35,1.2,31,0.25,,,,,,,,,,,,,0,3,3,30,1,,,,,,,,,,,,,,,,,,,,,,,,,,,,
,,,,,SPR24_088,21,Female,2024-04-24_15h32.05.268,jersey_experiment_5_v0,2023.2.2,Win32,84.74576271,,,,,,,,,,,,,,,,650.2508,651.2978,651.2979,653.0039,return,0.4786,,2.734375,,,,,,FBP-OG-91.png,0.37,1.2,12,0.25,,,,,,,,,,,,,0,4,4,11,1,,,,,,,,,,,,,,,,,,,,,,,,,,,,
,,,,,SPR24_088,21,Female,2024-04-24_15h32.05.268,jersey_experiment_5_v0,2023.2.2,Win32,84.74576271,,,,,,,,,,,,,,,,653.004,654.0509,654.0509,655.5569,return,0.1789,,84.11458333,,,,,,FBP-OG-81.png,0.45,1.2,10,0.25,,,,,,,,,,,,,0,5,5,9,1,,,,,,,,,,,,,,,,,,,,,,,,,,,,
,,,,,SPR24_088,21,Female,2024-04-24_15h32.05.268,jersey_experiment_5_v0,2023.2.2,Win32,84.74576271,,,,,,,,,,,,,,,,655.5572,656.8511,656.8511,658.204,return,0.1726,,23.95833333,,,,,,FBP-YG-18.png,0.37,1.2,22,0.5,,,,,,,,,,,,,0,6,6,21,1,,,,,,,,,,,,,,,,,,,,,,,,,,,,
,,,,,SPR24_088,21,Female,2024-04-24_15h32.05.268,jersey_experiment_5_v0,2023.2.2,Win32,84.74576271,,,,,,,,,,,,,,,,658.2043,659.2511,659.2512,660.7805,return,0.0894,,23.828125,,,,,,FBP-OG-71.png,0.4,1.2,3,0.25,,,,,,,,,,,,,0,7,7,2,1,,,,,,,,,,,,,,,,,,,,,,,,,,,,
,,,,,SPR24_088,21,Female,2024-04-24_15h32.05.268,jersey_experiment_5_v0,2023.2.2,Win32,84.74576271,,,,,,,,,,,,,,,,660.7807,661.8277,661.8277,665.4396,return,0.261,,0.78125,,,,,,FBP-RB-18.png,0.37,1.2,37,0.25,,,,,,,,,,,,,0,8,8,36,1,,,,,,,,,,,,,,,,,,,,,,,,,,,,
,,,,,SPR24_088,21,Female,2024-04-24_15h32.05.268,jersey_experiment_5_v0,2023.2.2,Win32,84.74576271,,,,,,,,,,,,,,,,665.4398,666.7337,666.7337,667.6985,return,0.1417,,4.947916667,,,,,,FBP-PT-19.png,0.4,1.2,58,0.5,,,,,,,,,,,,,0,9,9,57,1,,,,,,,,,,,,,,,,,,,,,,,,,,,,
,,,,,SPR24_088,21,Female,2024-04-24_15h32.05.268,jersey_experiment_5_v0,2023.2.2,Win32,84.74576271,,,,,,,,,,,,,,,,667.6987,668.9926,668.9926,670.2868,return,0.1441,,81.25,,,,,,FBP-PT-17.png,0.43,1.2,49,0.5,,,,,,,,,,,,,0,10,10,48,1,,,,,,,,,,,,,,,,,,,,,,,,,,,,
,,,,,SPR24_088,21,Female,2024-04-24_15h32.05.268,jersey_experiment_5_v0,2023.2.2,Win32,84.74576271,,,,,,,,,,,,,,,,670.287,671.3338,671.3339,672.7575,return,0.2122,,19.01041667,,,,,,FBP-RB-19.png,0.35,1.2,41,0.25,,,,,,,,,,,,,0,11,11,40,1,,,,,,,,,,,,,,,,,,,,,,,,,,,,
,,,,,SPR24_088,21,Female,2024-04-24_15h32.05.268,jersey_experiment_5_v0,2023.2.2,Win32,84.74576271,,,,,,,,,,,,,,,,672.7578,673.8045,673.8045,676.4162,return,0.2241,,34.375,,,,,,FBP-RB-19.png,0.4,1.2,43,0.25,,,,,,,,,,,,,0,12,12,42,1,,,,,,,,,,,,,,,,,,,,,,,,,,,,
,,,,,SPR24_088,21,Female,2024-04-24_15h32.05.268,jersey_experiment_5_v0,2023.2.2,Win32,84.74576271,,,,,,,,,,,,,,,,676.4165,677.7105,677.7105,678.8284,return,0.1932,,17.1875,,,,,,FBP-YG-17.png,0.35,1.2,16,0.5,,,,,,,,,,,,,0,13,13,15,1,,,,,,,,,,,,,,,,,,,,,,,,,,,,
,,,,,SPR24_088,21,Female,2024-04-24_15h32.05.268,jersey_experiment_5_v0,2023.2.2,Win32,84.74576271,,,,,,,,,,,,,,,,678.8286,680.1224,680.1225,681.605,return,0.2366,,1.692708333,,,,,,FBP-YG-19.png,0.35,1.2,26,0.5,,,,,,,,,,,,,0,14,14,25,1,,,,,,,,,,,,,,,,,,,,,,,,,,,,
,,,,,SPR24_088,21,Female,2024-04-24_15h32.05.268,jersey_experiment_5_v0,2023.2.2,Win32,84.74576271,,,,,,,,,,,,,,,,681.6053,682.8991,682.8991,685.0403,return,0.142,,71.484375,,,,,,FBP-YG-19.png,0.4,1.2,28,0.5,,,,,,,,,,,,,0,15,15,27,1,,,,,,,,,,,,,,,,,,,,,,,,,,,,
,,,,,SPR24_088,21,Female,2024-04-24_15h32.05.268,jersey_experiment_5_v0,2023.2.2,Win32,84.74576271,,,,,,,,,,,,,,,,685.0405,686.3344,686.3344,687.7581,return,0.2032,,29.81770833,,,,,,FBP-PT-17.png,0.37,1.2,47,0.5,,,,,,,,,,,,,0,16,16,46,1,,,,,,,,,,,,,,,,,,,,,,,,,,,,
,,,,,SPR24_088,21,Female,2024-04-24_15h32.05.268,jersey_experiment_5_v0,2023.2.2,Win32,84.74576271,,,,,,,,,,,,,,,,687.7583,688.8052,688.8052,691.0758,return,0.212,,4.166666667,,,,,,FBP-OG-71.png,0.35,1.2,1,0.25,,,,,,,,,,,,,0,17,17,0,1,,,,,,,,,,,,,,,,,,,,,,,,,,,,
,,,,,SPR24_088,21,Female,2024-04-24_15h32.05.268,jersey_experiment_5_v0,2023.2.2,Win32,84.74576271,,,,,,,,,,,,,,,,691.0761,692.3698,692.3699,694.6758,return,0.4473,,79.16666667,,,,,,FBP-YG-17.png,0.4,1.2,18,0.5,,,,,,,,,,,,,0,18,18,17,1,,,,,,,,,,,,,,,,,,,,,,,,,,,,
,,,,,SPR24_088,21,Female,2024-04-24_15h32.05.268,jersey_experiment_5_v0,2023.2.2,Win32,84.74576271,,,,,,,,,,,,,,,,694.676,695.723,695.723,697.0878,return,0.0962,,98.828125,,,,,,FBP-RB-19.png,0.45,1.2,45,0.25,,,,,,,,,,,,,0,19,19,44,1,,,,,,,,,,,,,,,,,,,,,,,,,,,,
,,,,,SPR24_088,21,Female,2024-04-24_15h32.05.268,jersey_experiment_5_v0,2023.2.2,Win32,84.74576271,,,,,,,,,,,,,,,,697.088,698.3817,698.3817,699.0407,return,0.1082,,98.95833333,,,,,,FBP-YG-18.png,0.45,1.2,25,0.5,,,,,,,,,,,,,0,20,20,24,1,,,,,,,,,,,,,,,,,,,,,,,,,,,,
,,,,,SPR24_088,21,Female,2024-04-24_15h32.05.268,jersey_experiment_5_v0,2023.2.2,Win32,84.74576271,,,,,,,,,,,,,,,,699.041,700.0877,700.0878,701.4056,return,0.1092,,28.125,,,,,,FBP-RB-17.png,0.37,1.2,32,0.25,,,,,,,,,,,,,0,21,21,31,1,,,,,,,,,,,,,,,,,,,,,,,,,,,,
,,,,,SPR24_088,21,Female,2024-04-24_15h32.05.268,jersey_experiment_5_v0,2023.2.2,Win32,84.74576271,,,,,,,,,,,,,,,,701.4059,702.4526,702.4526,704.335,return,0.134,,80.33854167,,,,,,FBP-RB-18.png,0.4,1.2,38,0.25,,,,,,,,,,,,,0,22,22,37,1,,,,,,,,,,,,,,,,,,,,,,,,,,,,
,,,,,SPR24_088,21,Female,2024-04-24_15h32.05.268,jersey_experiment_5_v0,2023.2.2,Win32,84.74576271,,,,,,,,,,,,,,,,704.3353,705.6292,705.6292,706.7468,return,0.1357,,98.17708333,,,,,,FBP-PT-17.png,0.45,1.2,50,0.5,,,,,,,,,,,,,0,23,23,49,1,,,,,,,,,,,,,,,,,,,,,,,,,,,,
,,,,,SPR24_088,21,Female,2024-04-24_15h32.05.268,jersey_experiment_5_v0,2023.2.2,Win32,84.74576271,,,,,,,,,,,,,,,,706.7471,707.794,707.794,709.053,return,0.1007,,87.36979167,,,,,,FBP-RB-17.png,0.4,1.2,33,0.25,,,,,,,,,,,,,0,24,24,32,1,,,,,,,,,,,,,,,,,,,,,,,,,,,,
,,,,,SPR24_088,21,Female,2024-04-24_15h32.05.268,jersey_experiment_5_v0,2023.2.2,Win32,84.74576271,,,,,,,,,,,,,,,,709.0532,710.3469,710.347,711.4294,return,0.1517,,90.49479167,,,,,,FBP-YG-19.png,0.43,1.2,29,0.5,,,,,,,,,,,,,0,25,25,28,1,,,,,,,,,,,,,,,,,,,,,,,,,,,,
,,,,,SPR24_088,21,Female,2024-04-24_15h32.05.268,jersey_experiment_5_v0,2023.2.2,Win32,84.74576271,,,,,,,,,,,,,,,,711.4296,712.4765,712.4766,713.4532,return,0.0865,,93.48958333,,,,,,FBP-OG-91.png,0.43,1.2,14,0.25,,,,,,,,,,,,,0,26,26,13,1,,,,,,,,,,,,,,,,,,,,,,,,,,,,
,,,,,SPR24_088,21,Female,2024-04-24_15h32.05.268,jersey_experiment_5_v0,2023.2.2,Win32,84.74576271,,,,,,,,,,,,,,,,713.4534,714.5001,714.5002,715.7943,return,0.1549,,1.171875,,,,,,FBP-OG-81.png,0.35,1.2,6,0.25,,,,,,,,,,,,,0,27,27,5,1,,,,,,,,,,,,,,,,,,,,,,,,,,,,
,,,,,SPR24_088,21,Female,2024-04-24_15h32.05.268,jersey_experiment_5_v0,2023.2.2,Win32,84.74576271,,,,,,,,,,,,,,,,715.7946,717.0884,717.0885,719.1473,return,0.1965,,99.609375,,,,,,FBP-YG-18.png,0.43,1.2,24,0.5,,,,,,,,,,,,,0,28,28,23,1,,,,,,,,,,,,,,,,,,,,,,,,,,,,
,,,,,SPR24_088,21,Female,2024-04-24_15h32.05.268,jersey_experiment_5_v0,2023.2.2,Win32,84.74576271,,,,,,,,,,,,,,,,719.1476,720.1945,720.1946,721.477,return,0.1417,,5.338541667,,,,,,FBP-OG-71.png,0.37,1.2,2,0.25,,,,,,,,,,,,,0,29,29,1,1,,,,,,,,,,,,,,,,,,,,,,,,,,,,
,,,,,SPR24_088,21,Female,2024-04-24_15h32.05.268,jersey_experiment_5_v0,2023.2.2,Win32,84.74576271,,,,,,,,,,,,,,,,721.4772,722.5239,722.5239,723.9709,return,0.1046,,95.44270833,,,,,,FBP-OG-81.png,0.43,1.2,9,0.25,,,,,,,,,,,,,0,30,30,8,1,,,,,,,,,,,,,,,,,,,,,,,,,,,,
,,,,,SPR24_088,21,Female,2024-04-24_15h32.05.268,jersey_experiment_5_v0,2023.2.2,Win32,84.74576271,,,,,,,,,,,,,,,,723.9712,725.0181,725.0181,726.3831,return,0.2517,,1.432291667,,,,,,FBP-OG-91.png,0.35,1.2,11,0.25,,,,,,,,,,,,,0,31,31,10,1,,,,,,,,,,,,,,,,,,,,,,,,,,,,
,,,,,SPR24_088,21,Female,2024-04-24_15h32.05.268,jersey_experiment_5_v0,2023.2.2,Win32,84.74576271,,,,,,,,,,,,,,,,726.3833,727.4299,727.43,728.6535,return,0.1334,,0.651041667,,,,,,FBP-RB-19.png,0.37,1.2,42,0.25,,,,,,,,,,,,,0,32,32,41,1,,,,,,,,,,,,,,,,,,,,,,,,,,,,
,,,,,SPR24_088,21,Female,2024-04-24_15h32.05.268,jersey_experiment_5_v0,2023.2.2,Win32,84.74576271,,,,,,,,,,,,,,,,728.6537,729.7006,729.7006,732.8304,return,1.6268,,5.208333333,,,,,,FBP-OG-91.png,0.4,1.2,13,0.25,,,,,,,,,,,,,0,33,33,12,1,,,,,,,,,,,,,,,,,,,,,,,,,,,,
,,,,,SPR24_088,21,Female,2024-04-24_15h32.05.268,jersey_experiment_5_v0,2023.2.2,Win32,84.74576271,,,,,,,,,,,,,,,,732.8306,734.1245,734.1246,735.6539,return,0.0713,,92.44791667,,,,,,FBP-PT-19.png,0.45,1.2,60,0.5,,,,,,,,,,,,,0,34,34,59,1,,,,,,,,,,,,,,,,,,,,,,,,,,,,
,,,,,SPR24_088,21,Female,2024-04-24_15h32.05.268,jersey_experiment_5_v0,2023.2.2,Win32,84.74576271,,,,,,,,,,,,,,,,735.6541,736.9484,736.9484,738.1009,return,0.0706,,75.65104167,,,,,,FBP-PT-17.png,0.4,1.2,48,0.5,,,,,,,,,,,,,0,35,35,47,1,,,,,,,,,,,,,,,,,,,,,,,,,,,,
,,,,,SPR24_088,21,Female,2024-04-24_15h32.05.268,jersey_experiment_5_v0,2023.2.2,Win32,84.74576271,,,,,,,,,,,,,,,,738.1012,739.1481,739.1482,740.454,return,0.141,,78.77604167,,,,,,FBP-RB-19.png,0.43,1.2,44,0.25,,,,,,,,,,,,,0,36,36,43,1,,,,,,,,,,,,,,,,,,,,,,,,,,,,
,,,,,SPR24_088,21,Female,2024-04-24_15h32.05.268,jersey_experiment_5_v0,2023.2.2,Win32,84.74576271,,,,,,,,,,,,,,,,740.4542,741.5011,741.5011,742.5247,return,0.1455,,83.46354167,,,,,,FBP-OG-91.png,0.45,1.2,15,0.25,,,,,,,,,,,,,0,37,37,14,1,,,,,,,,,,,,,,,,,,,,,,,,,,,,
,,,,,SPR24_088,21,Female,2024-04-24_15h32.05.268,jersey_experiment_5_v0,2023.2.2,Win32,84.74576271,,,,,,,,,,,,,,,,742.5249,743.8188,743.8189,745.4542,return,0.1092,,29.42708333,,,,,,FBP-YG-19.png,0.37,1.2,27,0.5,,,,,,,,,,,,,0,38,38,26,1,,,,,,,,,,,,,,,,,,,,,,,,,,,,
,,,,,SPR24_088,21,Female,2024-04-24_15h32.05.268,jersey_experiment_5_v0,2023.2.2,Win32,84.74576271,,,,,,,,,,,,,,,,745.4544,746.7486,746.7486,747.9366,return,0.1181,,88.02083333,,,,,,FBP-YG-17.png,0.43,1.2,19,0.5,,,,,,,,,,,,,0,39,39,18,1,,,,,,,,,,,,,,,,,,,,,,,,,,,,
,,,,,SPR24_088,21,Female,2024-04-24_15h32.05.268,jersey_experiment_5_v0,2023.2.2,Win32,84.74576271,,,,,,,,,,,,,,,,747.9368,749.2308,749.2308,750.5013,return,0.1558,,90.10416667,,,,,,FBP-YG-17.png,0.45,1.2,20,0.5,,,,,,,,,,,,,0,40,40,19,1,,,,,,,,,,,,,,,,,,,,,,,,,,,,
,,,,,SPR24_088,21,Female,2024-04-24_15h32.05.268,jersey_experiment_5_v0,2023.2.2,Win32,84.74576271,,,,,,,,,,,,,,,,750.5016,751.7956,751.7956,753.5841,return,0.4621,,3.645833333,,,,,,FBP-PT-18.png,0.35,1.2,51,0.5,,,,,,,,,,,,,0,41,41,50,1,,,,,,,,,,,,,,,,,,,,,,,,,,,,
,,,,,SPR24_088,21,Female,2024-04-24_15h32.05.268,jersey_experiment_5_v0,2023.2.2,Win32,84.74576271,,,,,,,,,,,,,,,,753.5843,754.6309,754.6309,755.9957,return,0.0546,,94.40104167,,,,,,FBP-RB-17.png,0.45,1.2,35,0.25,,,,,,,,,,,,,0,42,42,34,1,,,,,,,,,,,,,,,,,,,,,,,,,,,,
,,,,,SPR24_088,21,Female,2024-04-24_15h32.05.268,jersey_experiment_5_v0,2023.2.2,Win32,84.74576271,,,,,,,,,,,,,,,,755.9959,757.0427,757.0427,758.1605,return,0.073,,92.31770833,,,,,,FBP-OG-71.png,0.43,1.2,4,0.25,,,,,,,,,,,,,0,43,43,3,1,,,,,,,,,,,,,,,,,,,,,,,,,,,,
,,,,,SPR24_088,21,Female,2024-04-24_15h32.05.268,jersey_experiment_5_v0,2023.2.2,Win32,84.74576271,,,,,,,,,,,,,,,,758.1608,759.2076,759.2077,761.4902,return,0.0133,,67.1875,,,,,,FBP-OG-81.png,0.4,1.2,8,0.25,,,,,,,,,,,,,0,44,44,7,1,,,,,,,,,,,,,,,,,,,,,,,,,,,,
,,,,,SPR24_088,21,Female,2024-04-24_15h32.05.268,jersey_experiment_5_v0,2023.2.2,Win32,84.74576271,,,,,,,,,,,,,,,,761.4904,762.5373,762.5373,764.396,return,0.1485,,93.09895833,,,,,,FBP-RB-18.png,0.43,1.2,39,0.25,,,,,,,,,,,,,0,45,45,38,1,,,,,,,,,,,,,,,,,,,,,,,,,,,,
,,,,,SPR24_088,21,Female,2024-04-24_15h32.05.268,jersey_experiment_5_v0,2023.2.2,Win32,84.74576271,,,,,,,,,,,,,,,,764.3961,765.6902,765.6902,767.3962,return,0.3428,,22.265625,,,,,,FBP-YG-17.png,0.37,1.2,17,0.5,,,,,,,,,,,,,0,46,46,16,1,,,,,,,,,,,,,,,,,,,,,,,,,,,,
,,,,,SPR24_088,21,Female,2024-04-24_15h32.05.268,jersey_experiment_5_v0,2023.2.2,Win32,84.74576271,,,,,,,,,,,,,,,,767.3965,768.6903,768.6903,770.1727,return,0.2398,,89.0625,,,,,,FBP-PT-18.png,0.45,1.2,55,0.5,,,,,,,,,,,,,0,47,47,54,1,,,,,,,,,,,,,,,,,,,,,,,,,,,,
,,,,,SPR24_088,21,Female,2024-04-24_15h32.05.268,jersey_experiment_5_v0,2023.2.2,Win32,84.74576271,,,,,,,,,,,,,,,,770.1729,771.467,771.4671,772.4903,return,0.1124,,91.14583333,,,,,,FBP-PT-19.png,0.43,1.2,59,0.5,,,,,,,,,,,,,0,48,48,58,1,,,,,,,,,,,,,,,,,,,,,,,,,,,,
,,,,,SPR24_088,21,Female,2024-04-24_15h32.05.268,jersey_experiment_5_v0,2023.2.2,Win32,84.74576271,,,,,,,,,,,,,,,,772.4905,773.7847,773.7847,775.1376,return,0.1086,,1.692708333,,,,,,FBP-YG-18.png,0.35,1.2,21,0.5,,,,,,,,,,,,,0,49,49,20,1,,,,,,,,,,,,,,,,,,,,,,,,,,,,
,,,,,SPR24_088,21,Female,2024-04-24_15h32.05.268,jersey_experiment_5_v0,2023.2.2,Win32,84.74576271,,,,,,,,,,,,,,,,775.1377,776.1847,776.1847,777.8083,return,0.2002,,1.041666667,,,,,,FBP-RB-18.png,0.35,1.2,36,0.25,,,,,,,,,,,,,0,50,50,35,1,,,,,,,,,,,,,,,,,,,,,,,,,,,,
,,,,,SPR24_088,21,Female,2024-04-24_15h32.05.268,jersey_experiment_5_v0,2023.2.2,Win32,84.74576271,,,,,,,,,,,,,,,,777.8084,779.1023,779.1024,780.6908,return,0.2355,,90.88541667,,,,,,FBP-PT-18.png,0.43,1.2,54,0.5,,,,,,,,,,,,,0,51,51,53,1,,,,,,,,,,,,,,,,,,,,,,,,,,,,
,,,,,SPR24_088,21,Female,2024-04-24_15h32.05.268,jersey_experiment_5_v0,2023.2.2,Win32,84.74576271,,,,,,,,,,,,,,,,780.6911,781.9851,781.9852,783.4555,return,0.2018,,2.083333333,,,,,,FBP-PT-19.png,0.35,1.2,56,0.5,,,,,,,,,,,,,0,52,52,55,1,,,,,,,,,,,,,,,,,,,,,,,,,,,,
,,,,,SPR24_088,21,Female,2024-04-24_15h32.05.268,jersey_experiment_5_v0,2023.2.2,Win32,84.74576271,,,,,,,,,,,,,,,,783.4557,784.7498,784.7498,786.3027,return,0.5929,,1.692708333,,,,,,FBP-PT-18.png,0.37,1.2,52,0.5,,,,,,,,,,,,,0,53,53,51,1,,,,,,,,,,,,,,,,,,,,,,,,,,,,
,,,,,SPR24_088,21,Female,2024-04-24_15h32.05.268,jersey_experiment_5_v0,2023.2.2,Win32,84.74576271,,,,,,,,,,,,,,,,786.3029,787.5968,787.5968,789.5027,return,0.2027,,16.66666667,,,,,,FBP-YG-18.png,0.4,1.2,23,0.5,,,,,,,,,,,,,0,54,54,22,1,,,,,,,,,,,,,,,,,,,,,,,,,,,,
,,,,,SPR24_088,21,Female,2024-04-24_15h32.05.268,jersey_experiment_5_v0,2023.2.2,Win32,84.74576271,,,,,,,,,,,,,,,,789.5029,790.7972,790.7972,792.2206,return,0.1451,,0.260416667,,,,,,FBP-PT-17.png,0.35,1.2,46,0.5,,,,,,,,,,,,,0,55,55,45,1,,,,,,,,,,,,,,,,,,,,,,,,,,,,
,,,,,SPR24_088,21,Female,2024-04-24_15h32.05.268,jersey_experiment_5_v0,2023.2.2,Win32,84.74576271,,,,,,,,,,,,,,,,792.2208,793.5148,793.5149,796.3971,return,0.1561,,22.39583333,,,,,,FBP-PT-18.png,0.4,1.2,53,0.5,,,,,,,,,,,,,0,56,56,52,1,,,,,,,,,,,,,,,,,,,,,,,,,,,,
,,,,,SPR24_088,21,Female,2024-04-24_15h32.05.268,jersey_experiment_5_v0,2023.2.2,Win32,84.74576271,,,,,,,,,,,,,,,,796.3974,797.6913,797.6913,798.6444,return,0.0851,,5.338541667,,,,,,FBP-PT-19.png,0.37,1.2,57,0.5,,,,,,,,,,,,,0,57,57,56,1,,,,,,,,,,,,,,,,,,,,,,,,,,,,
,,,,,SPR24_088,21,Female,2024-04-24_15h32.05.268,jersey_experiment_5_v0,2023.2.2,Win32,84.74576271,,,,,,,,,,,,,,,,798.6446,799.6913,799.6914,801.4916,return,0.1891,,80.72916667,,,,,,FBP-OG-71.png,0.45,1.2,5,0.25,,,,,,,,,,,,,0,58,58,4,1,,,,,,,,,,,,,,,,,,,,,,,,,,,,
,,,,,SPR24_088,21,Female,2024-04-24_15h32.05.268,jersey_experiment_5_v0,2023.2.2,Win32,84.74576271,,,,,,,,,,,,,,,,801.4919,802.5385,802.5385,803.9975,return,0.1469,,16.14583333,,,,,,FBP-OG-81.png,0.37,1.2,7,0.25,,,,,,,,,,,,,0,59,59,6,1,,,,,,,,,,,,,,,,,,,,,,,,,,,,
,,,,,SPR24_088,21,Female,2024-04-24_15h32.05.268,jersey_experiment_5_v0,2023.2.2,Win32,84.74576271,,,,,,,,,,,,,,,,803.9992,805.0444,805.0445,806.4917,return,0.1488,,18.61979167,,,,,,FBP-OG-19.png,0.4,1.2,13,0.25,,,,,,,,,,,,,,,,,,0,0,0,12,1,,,,,,,,,,,,,,,,,,,,,,,
,,,,,SPR24_088,21,Female,2024-04-24_15h32.05.268,jersey_experiment_5_v0,2023.2.2,Win32,84.74576271,,,,,,,,,,,,,,,,806.4919,807.7858,807.7858,808.7977,return,0.2737,,18.359375,,,,,,FBP-PT-91.png,0.4,1.2,58,0.5,,,,,,,,,,,,,,,,,,0,1,1,57,1,,,,,,,,,,,,,,,,,,,,,,,
,,,,,SPR24_088,21,Female,2024-04-24_15h32.05.268,jersey_experiment_5_v0,2023.2.2,Win32,84.74576271,,,,,,,,,,,,,,,,808.7979,809.8447,809.8447,810.7036,return,0.0603,,19.01041667,,,,,,FBP-RB-91.png,0.4,1.2,43,0.25,,,,,,,,,,,,,,,,,,0,2,2,42,1,,,,,,,,,,,,,,,,,,,,,,,
,,,,,SPR24_088,21,Female,2024-04-24_15h32.05.268,jersey_experiment_5_v0,2023.2.2,Win32,84.74576271,,,,,,,,,,,,,,,,810.7038,811.9977,811.9977,814.2215,return,0.2999,,79.296875,,,,,,FBP-PT-81.png,0.43,1.2,54,0.5,,,,,,,,,,,,,,,,,,0,3,3,53,1,,,,,,,,,,,,,,,,,,,,,,,
,,,,,SPR24_088,21,Female,2024-04-24_15h32.05.268,jersey_experiment_5_v0,2023.2.2,Win32,84.74576271,,,,,,,,,,,,,,,,814.2216,815.2683,815.2683,816.2686,return,0.1224,,79.16666667,,,,,,FBP-RB-81.png,0.4,1.2,38,0.25,,,,,,,,,,,,,,,,,,0,4,4,37,1,,,,,,,,,,,,,,,,,,,,,,,
,,,,,SPR24_088,21,Female,2024-04-24_15h32.05.268,jersey_experiment_5_v0,2023.2.2,Win32,84.74576271,,,,,,,,,,,,,,,,816.2687,817.3155,817.3155,818.8333,return,0.1322,,28.77604167,,,,,,FBP-RB-71.png,0.35,1.2,31,0.25,,,,,,,,,,,,,,,,,,0,5,5,30,1,,,,,,,,,,,,,,,,,,,,,,,
,,,,,SPR24_088,21,Female,2024-04-24_15h32.05.268,jersey_experiment_5_v0,2023.2.2,Win32,84.74576271,,,,,,,,,,,,,,,,818.8336,820.1273,820.1274,823.3627,return,0.0806,,77.21354167,,,,,,FBP-PT-71.png,0.45,1.2,50,0.5,,,,,,,,,,,,,,,,,,0,6,6,49,1,,,,,,,,,,,,,,,,,,,,,,,
,,,,,SPR24_088,21,Female,2024-04-24_15h32.05.268,jersey_experiment_5_v0,2023.2.2,Win32,84.74576271,,,,,,,,,,,,,,,,823.363,824.6571,824.6571,826.7982,return,0.0755,,77.34375,,,,,,FBP-YG-71.png,0.4,1.2,18,0.5,,,,,,,,,,,,,,,,,,0,7,7,17,1,,,,,,,,,,,,,,,,,,,,,,,
,,,,,SPR24_088,21,Female,2024-04-24_15h32.05.268,jersey_experiment_5_v0,2023.2.2,Win32,84.74576271,,,,,,,,,,,,,,,,826.7984,827.8452,827.8453,830.3869,return,0.3535,,18.22916667,,,,,,FBP-RB-71.png,0.37,1.2,32,0.25,,,,,,,,,,,,,,,,,,0,8,8,31,1,,,,,,,,,,,,,,,,,,,,,,,
,,,,,SPR24_088,21,Female,2024-04-24_15h32.05.268,jersey_experiment_5_v0,2023.2.2,Win32,84.74576271,,,,,,,,,,,,,,,,830.387,831.6809,831.6809,832.9162,return,0.1039,,4.036458333,,,,,,FBP-PT-91.png,0.35,1.2,56,0.5,,,,,,,,,,,,,,,,,,0,9,9,55,1,,,,,,,,,,,,,,,,,,,,,,,
,,,,,SPR24_088,21,Female,2024-04-24_15h32.05.268,jersey_experiment_5_v0,2023.2.2,Win32,84.74576271,,,,,,,,,,,,,,,,832.9164,833.9633,833.9634,834.9397,return,0.3225,,4.6875,,,,,,FBP-RB-91.png,0.35,1.2,41,0.25,,,,,,,,,,,,,,,,,,0,10,10,40,1,,,,,,,,,,,,,,,,,,,,,,,
,,,,,SPR24_088,21,Female,2024-04-24_15h32.05.268,jersey_experiment_5_v0,2023.2.2,Win32,84.74576271,,,,,,,,,,,,,,,,834.94,836.234,836.2341,836.9751,return,0.1673,,0.911458333,,,,,,FBP-YG-71.png,0.35,1.2,16,0.5,,,,,,,,,,,,,,,,,,0,11,11,15,1,,,,,,,,,,,,,,,,,,,,,,,
,,,,,SPR24_088,21,Female,2024-04-24_15h32.05.268,jersey_experiment_5_v0,2023.2.2,Win32,84.74576271,,,,,,,,,,,,,,,,836.9753,838.2693,838.2694,839.3869,return,0.1347,,2.604166667,,,,,,FBP-PT-81.png,0.37,1.2,52,0.5,,,,,,,,,,,,,,,,,,0,12,12,51,1,,,,,,,,,,,,,,,,,,,,,,,
,,,,,SPR24_088,21,Female,2024-04-24_15h32.05.268,jersey_experiment_5_v0,2023.2.2,Win32,84.74576271,,,,,,,,,,,,,,,,839.3871,840.4341,840.4341,842.0343,return,0.1317,,83.33333333,,,,,,FBP-OG-18.png,0.43,1.2,9,0.25,,,,,,,,,,,,,,,,,,0,13,13,8,1,,,,,,,,,,,,,,,,,,,,,,,
,,,,,SPR24_088,21,Female,2024-04-24_15h32.05.268,jersey_experiment_5_v0,2023.2.2,Win32,84.74576271,,,,,,,,,,,,,,,,842.0345,843.0812,843.0812,845.1988,return,0.1454,,88.80208333,,,,,,FBP-RB-91.png,0.43,1.2,44,0.25,,,,,,,,,,,,,,,,,,0,14,14,43,1,,,,,,,,,,,,,,,,,,,,,,,
,,,,,SPR24_088,21,Female,2024-04-24_15h32.05.268,jersey_experiment_5_v0,2023.2.2,Win32,84.74576271,,,,,,,,,,,,,,,,845.1991,846.246,846.246,847.1518,return,0.0837,,91.92708333,,,,,,FBP-RB-71.png,0.43,1.2,34,0.25,,,,,,,,,,,,,,,,,,0,15,15,33,1,,,,,,,,,,,,,,,,,,,,,,,
,,,,,SPR24_088,21,Female,2024-04-24_15h32.05.268,jersey_experiment_5_v0,2023.2.2,Win32,84.74576271,,,,,,,,,,,,,,,,847.1521,848.1991,848.1991,850.1168,return,0.1745,,66.015625,,,,,,FBP-RB-81.png,0.37,1.2,37,0.25,,,,,,,,,,,,,,,,,,0,16,16,36,1,,,,,,,,,,,,,,,,,,,,,,,
,,,,,SPR24_088,21,Female,2024-04-24_15h32.05.268,jersey_experiment_5_v0,2023.2.2,Win32,84.74576271,,,,,,,,,,,,,,,,850.117,851.4109,851.411,852.4698,return,0.0328,,99.08854167,,,,,,FBP-PT-81.png,0.45,1.2,55,0.5,,,,,,,,,,,,,,,,,,0,17,17,54,1,,,,,,,,,,,,,,,,,,,,,,,
,,,,,SPR24_088,21,Female,2024-04-24_15h32.05.268,jersey_experiment_5_v0,2023.2.2,Win32,84.74576271,,,,,,,,,,,,,,,,852.47,853.5168,853.5168,854.8583,return,0.1148,,24.609375,,,,,,FBP-OG-19.png,0.37,1.2,12,0.25,,,,,,,,,,,,,,,,,,0,18,18,11,1,,,,,,,,,,,,,,,,,,,,,,,
,,,,,SPR24_088,21,Female,2024-04-24_15h32.05.268,jersey_experiment_5_v0,2023.2.2,Win32,84.74576271,,,,,,,,,,,,,,,,854.8585,855.9051,855.9051,857.5523,return,0.1296,,73.56770833,,,,,,FBP-OG-19.png,0.43,1.2,14,0.25,,,,,,,,,,,,,,,,,,0,19,19,13,1,,,,,,,,,,,,,,,,,,,,,,,
,,,,,SPR24_088,21,Female,2024-04-24_15h32.05.268,jersey_experiment_5_v0,2023.2.2,Win32,84.74576271,,,,,,,,,,,,,,,,857.5525,858.5993,858.5993,860.4466,return,0.0752,,26.04166667,,,,,,FBP-OG-17.png,0.35,1.2,1,0.25,,,,,,,,,,,,,,,,,,0,20,20,0,1,,,,,,,,,,,,,,,,,,,,,,,
,,,,,SPR24_088,21,Female,2024-04-24_15h32.05.268,jersey_experiment_5_v0,2023.2.2,Win32,84.74576271,,,,,,,,,,,,,,,,860.4467,861.4936,861.4936,863.3172,return,0.127,,78.125,,,,,,FBP-OG-17.png,0.43,1.2,4,0.25,,,,,,,,,,,,,,,,,,0,21,21,3,1,,,,,,,,,,,,,,,,,,,,,,,
,,,,,SPR24_088,21,Female,2024-04-24_15h32.05.268,jersey_experiment_5_v0,2023.2.2,Win32,84.74576271,,,,,,,,,,,,,,,,863.3173,864.3642,864.3643,865.7291,return,0.014,,70.44270833,,,,,,FBP-OG-17.png,0.4,1.2,3,0.25,,,,,,,,,,,,,,,,,,0,22,22,2,1,,,,,,,,,,,,,,,,,,,,,,,
,,,,,SPR24_088,21,Female,2024-04-24_15h32.05.268,jersey_experiment_5_v0,2023.2.2,Win32,84.74576271,,,,,,,,,,,,,,,,865.7293,867.0233,867.0233,868.4115,return,0.137,,92.05729167,,,,,,FBP-YG-91.png,0.45,1.2,30,0.5,,,,,,,,,,,,,,,,,,0,23,23,29,1,,,,,,,,,,,,,,,,,,,,,,,
,,,,,SPR24_088,21,Female,2024-04-24_15h32.05.268,jersey_experiment_5_v0,2023.2.2,Win32,84.74576271,,,,,,,,,,,,,,,,868.4118,869.7058,869.7058,870.7176,return,0.1681,,96.35416667,,,,,,FBP-YG-71.png,0.45,1.2,20,0.5,,,,,,,,,,,,,,,,,,0,24,24,19,1,,,,,,,,,,,,,,,,,,,,,,,
,,,,,SPR24_088,21,Female,2024-04-24_15h32.05.268,jersey_experiment_5_v0,2023.2.2,Win32,84.74576271,,,,,,,,,,,,,,,,870.7178,871.7646,871.7646,873.4118,return,0.1412,,21.61458333,,,,,,FBP-OG-18.png,0.35,1.2,6,0.25,,,,,,,,,,,,,,,,,,0,25,25,5,1,,,,,,,,,,,,,,,,,,,,,,,
,,,,,SPR24_088,21,Female,2024-04-24_15h32.05.268,jersey_experiment_5_v0,2023.2.2,Win32,84.74576271,,,,,,,,,,,,,,,,873.412,874.4588,874.4588,875.859,return,0.0803,,11.58854167,,,,,,FBP-RB-91.png,0.37,1.2,42,0.25,,,,,,,,,,,,,,,,,,0,26,26,41,1,,,,,,,,,,,,,,,,,,,,,,,
,,,,,SPR24_088,21,Female,2024-04-24_15h32.05.268,jersey_experiment_5_v0,2023.2.2,Win32,84.74576271,,,,,,,,,,,,,,,,875.8591,877.1532,877.1532,878.0589,return,0.0524,,1.5625,,,,,,FBP-YG-91.png,0.35,1.2,26,0.5,,,,,,,,,,,,,,,,,,0,27,27,25,1,,,,,,,,,,,,,,,,,,,,,,,
,,,,,SPR24_088,21,Female,2024-04-24_15h32.05.268,jersey_experiment_5_v0,2023.2.2,Win32,84.74576271,,,,,,,,,,,,,,,,878.0592,879.1059,879.1059,880.1296,return,0.1321,,0.651041667,,,,,,FBP-OG-17.png,0.37,1.2,2,0.25,,,,,,,,,,,,,,,,,,0,28,28,1,1,,,,,,,,,,,,,,,,,,,,,,,
,,,,,SPR24_088,21,Female,2024-04-24_15h32.05.268,jersey_experiment_5_v0,2023.2.2,Win32,84.74576271,,,,,,,,,,,,,,,,880.1298,881.1767,881.1767,883.0828,return,0.079,,79.296875,,,,,,FBP-OG-18.png,0.45,1.2,10,0.25,,,,,,,,,,,,,,,,,,0,29,29,9,1,,,,,,,,,,,,,,,,,,,,,,,
,,,,,SPR24_088,21,Female,2024-04-24_15h32.05.268,jersey_experiment_5_v0,2023.2.2,Win32,84.74576271,,,,,,,,,,,,,,,,883.0831,884.3769,884.3769,884.8474,return,0.0369,,79.296875,,,,,,FBP-PT-91.png,0.43,1.2,59,0.5,,,,,,,,,,,,,,,,,,0,30,30,58,1,,,,,,,,,,,,,,,,,,,,,,,
,,,,,SPR24_088,21,Female,2024-04-24_15h32.05.268,jersey_experiment_5_v0,2023.2.2,Win32,84.74576271,,,,,,,,,,,,,,,,884.8476,886.1416,886.1416,887.0711,return,0.1423,,81.77083333,,,,,,FBP-YG-71.png,0.43,1.2,19,0.5,,,,,,,,,,,,,,,,,,0,31,31,18,1,,,,,,,,,,,,,,,,,,,,,,,
,,,,,SPR24_088,21,Female,2024-04-24_15h32.05.268,jersey_experiment_5_v0,2023.2.2,Win32,84.74576271,,,,,,,,,,,,,,,,887.0713,888.3654,888.3654,889.0593,return,0.0805,,87.36979167,,,,,,FBP-YG-81.png,0.45,1.2,25,0.5,,,,,,,,,,,,,,,,,,0,32,32,24,1,,,,,,,,,,,,,,,,,,,,,,,
,,,,,SPR24_088,21,Female,2024-04-24_15h32.05.268,jersey_experiment_5_v0,2023.2.2,Win32,84.74576271,,,,,,,,,,,,,,,,889.0596,890.1065,890.1065,890.8595,return,0.0524,,87.36979167,,,,,,FBP-RB-81.png,0.43,1.2,39,0.25,,,,,,,,,,,,,,,,,,0,33,33,38,1,,,,,,,,,,,,,,,,,,,,,,,
,,,,,SPR24_088,21,Female,2024-04-24_15h32.05.268,jersey_experiment_5_v0,2023.2.2,Win32,84.74576271,,,,,,,,,,,,,,,,890.8597,891.9064,891.9064,895.5066,return,0.1044,,30.33854167,,,,,,FBP-RB-81.png,0.35,1.2,36,0.25,,,,,,,,,,,,,,,,,,0,34,34,35,1,,,,,,,,,,,,,,,,,,,,,,,
,,,,,SPR24_088,21,Female,2024-04-24_15h32.05.268,jersey_experiment_5_v0,2023.2.2,Win32,84.74576271,,,,,,,,,,,,,,,,895.5068,896.5537,896.5537,897.9655,return,0.1817,,89.84375,,,,,,FBP-OG-19.png,0.45,1.2,15,0.25,,,,,,,,,,,,,,,,,,0,35,35,14,1,,,,,,,,,,,,,,,,,,,,,,,
,,,,,SPR24_088,21,Female,2024-04-24_15h32.05.268,jersey_experiment_5_v0,2023.2.2,Win32,84.74576271,,,,,,,,,,,,,,,,897.9657,899.0127,899.0127,900.0127,return,0.0651,,94.53125,,,,,,FBP-RB-81.png,0.45,1.2,40,0.25,,,,,,,,,,,,,,,,,,0,36,36,39,1,,,,,,,,,,,,,,,,,,,,,,,
,,,,,SPR24_088,21,Female,2024-04-24_15h32.05.268,jersey_experiment_5_v0,2023.2.2,Win32,84.74576271,,,,,,,,,,,,,,,,900.0129,901.0598,901.0598,903.154,return,0.2833,,27.60416667,,,,,,FBP-OG-18.png,0.37,1.2,7,0.25,,,,,,,,,,,,,,,,,,0,37,37,6,1,,,,,,,,,,,,,,,,,,,,,,,
,,,,,SPR24_088,21,Female,2024-04-24_15h32.05.268,jersey_experiment_5_v0,2023.2.2,Win32,84.74576271,,,,,,,,,,,,,,,,903.1542,904.201,904.2011,905.7894,return,0.0291,,97.00520833,,,,,,FBP-RB-91.png,0.45,1.2,45,0.25,,,,,,,,,,,,,,,,,,0,38,38,44,1,,,,,,,,,,,,,,,,,,,,,,,
,,,,,SPR24_088,21,Female,2024-04-24_15h32.05.268,jersey_experiment_5_v0,2023.2.2,Win32,84.74576271,,,,,,,,,,,,,,,,905.7896,907.0835,907.0835,909.8835,return,0.2426,,27.34375,,,,,,FBP-YG-81.png,0.37,1.2,22,0.5,,,,,,,,,,,,,,,,,,0,39,39,21,1,,,,,,,,,,,,,,,,,,,,,,,
,,,,,SPR24_088,21,Female,2024-04-24_15h32.05.268,jersey_experiment_5_v0,2023.2.2,Win32,84.74576271,,,,,,,,,,,,,,,,909.8838,911.1779,911.1779,912.2248,return,0.1551,,30.98958333,,,,,,FBP-PT-71.png,0.37,1.2,47,0.5,,,,,,,,,,,,,,,,,,0,40,40,46,1,,,,,,,,,,,,,,,,,,,,,,,
,,,,,SPR24_088,21,Female,2024-04-24_15h32.05.268,jersey_experiment_5_v0,2023.2.2,Win32,84.74576271,,,,,,,,,,,,,,,,912.2249,913.519,913.5191,914.3661,return,0.1677,,30.46875,,,,,,FBP-YG-91.png,0.4,1.2,28,0.5,,,,,,,,,,,,,,,,,,0,41,41,27,1,,,,,,,,,,,,,,,,,,,,,,,
,,,,,SPR24_088,21,Female,2024-04-24_15h32.05.268,jersey_experiment_5_v0,2023.2.2,Win32,84.74576271,,,,,,,,,,,,,,,,914.3664,915.4133,915.4133,916.4015,return,0.1292,,29.94791667,,,,,,FBP-OG-18.png,0.4,1.2,8,0.25,,,,,,,,,,,,,,,,,,0,42,42,7,1,,,,,,,,,,,,,,,,,,,,,,,
,,,,,SPR24_088,21,Female,2024-04-24_15h32.05.268,jersey_experiment_5_v0,2023.2.2,Win32,84.74576271,,,,,,,,,,,,,,,,916.4017,917.4485,917.4486,918.5076,return,0.2402,,29.42708333,,,,,,FBP-RB-71.png,0.4,1.2,33,0.25,,,,,,,,,,,,,,,,,,0,43,43,32,1,,,,,,,,,,,,,,,,,,,,,,,
,,,,,SPR24_088,21,Female,2024-04-24_15h32.05.268,jersey_experiment_5_v0,2023.2.2,Win32,84.74576271,,,,,,,,,,,,,,,,918.5077,919.8017,919.8017,922.1782,return,0.6489,,86.19791667,,,,,,FBP-PT-71.png,0.43,1.2,49,0.5,,,,,,,,,,,,,,,,,,0,44,44,48,1,,,,,,,,,,,,,,,,,,,,,,,
,,,,,SPR24_088,21,Female,2024-04-24_15h32.05.268,jersey_experiment_5_v0,2023.2.2,Win32,84.74576271,,,,,,,,,,,,,,,,922.1784,923.4724,923.4724,925.9547,return,0.2446,,16.015625,,,,,,FBP-YG-71.png,0.37,1.2,17,0.5,,,,,,,,,,,,,,,,,,0,45,45,16,1,,,,,,,,,,,,,,,,,,,,,,,
,,,,,SPR24_088,21,Female,2024-04-24_15h32.05.268,jersey_experiment_5_v0,2023.2.2,Win32,84.74576271,,,,,,,,,,,,,,,,925.955,927.0019,927.002,928.6607,return,0.1645,,92.578125,,,,,,FBP-RB-71.png,0.45,1.2,35,0.25,,,,,,,,,,,,,,,,,,0,46,46,34,1,,,,,,,,,,,,,,,,,,,,,,,
,,,,,SPR24_088,21,Female,2024-04-24_15h32.05.268,jersey_experiment_5_v0,2023.2.2,Win32,84.74576271,,,,,,,,,,,,,,,,928.6609,929.955,929.955,932.2256,return,0.2586,,81.25,,,,,,FBP-PT-71.png,0.4,1.2,48,0.5,,,,,,,,,,,,,,,,,,0,47,47,47,1,,,,,,,,,,,,,,,,,,,,,,,
,,,,,SPR24_088,21,Female,2024-04-24_15h32.05.268,jersey_experiment_5_v0,2023.2.2,Win32,84.74576271,,,,,,,,,,,,,,,,932.2259,933.5197,933.5198,934.6375,return,0.1464,,69.40104167,,,,,,FBP-PT-81.png,0.4,1.2,53,0.5,,,,,,,,,,,,,,,,,,0,48,48,52,1,,,,,,,,,,,,,,,,,,,,,,,
,,,,,SPR24_088,21,Female,2024-04-24_15h32.05.268,jersey_experiment_5_v0,2023.2.2,Win32,84.74576271,,,,,,,,,,,,,,,,934.6376,935.9316,935.9317,937.2493,return,0.1054,,30.33854167,,,,,,FBP-YG-81.png,0.35,1.2,21,0.5,,,,,,,,,,,,,,,,,,0,49,49,20,1,,,,,,,,,,,,,,,,,,,,,,,
,,,,,SPR24_088,21,Female,2024-04-24_15h32.05.268,jersey_experiment_5_v0,2023.2.2,Win32,84.74576271,,,,,,,,,,,,,,,,937.2494,938.2964,938.2964,939.6023,return,0.0813,,92.578125,,,,,,FBP-OG-17.png,0.45,1.2,5,0.25,,,,,,,,,,,,,,,,,,0,50,50,4,1,,,,,,,,,,,,,,,,,,,,,,,
,,,,,SPR24_088,21,Female,2024-04-24_15h32.05.268,jersey_experiment_5_v0,2023.2.2,Win32,84.74576271,,,,,,,,,,,,,,,,939.6026,940.8965,940.8965,942.0143,return,0.0964,,31.11979167,,,,,,FBP-YG-91.png,0.37,1.2,27,0.5,,,,,,,,,,,,,,,,,,0,51,51,26,1,,,,,,,,,,,,,,,,,,,,,,,
,,,,,SPR24_088,21,Female,2024-04-24_15h32.05.268,jersey_experiment_5_v0,2023.2.2,Win32,84.74576271,,,,,,,,,,,,,,,,942.0146,943.3083,943.3084,943.8612,return,0.0799,,32.16145833,,,,,,FBP-YG-81.png,0.4,1.2,23,0.5,,,,,,,,,,,,,,,,,,0,52,52,22,1,,,,,,,,,,,,,,,,,,,,,,,
,,,,,SPR24_088,21,Female,2024-04-24_15h32.05.268,jersey_experiment_5_v0,2023.2.2,Win32,84.74576271,,,,,,,,,,,,,,,,943.8614,945.1554,945.1554,946.7204,return,0.1795,,83.72395833,,,,,,FBP-YG-81.png,0.43,1.2,24,0.5,,,,,,,,,,,,,,,,,,0,53,53,23,1,,,,,,,,,,,,,,,,,,,,,,,
,,,,,SPR24_088,21,Female,2024-04-24_15h32.05.268,jersey_experiment_5_v0,2023.2.2,Win32,84.74576271,,,,,,,,,,,,,,,,946.7206,948.0144,948.0145,949.3439,return,0.1769,,86.71875,,,,,,FBP-YG-91.png,0.43,1.2,29,0.5,,,,,,,,,,,,,,,,,,0,54,54,28,1,,,,,,,,,,,,,,,,,,,,,,,
,,,,,SPR24_088,21,Female,2024-04-24_15h32.05.268,jersey_experiment_5_v0,2023.2.2,Win32,84.74576271,,,,,,,,,,,,,,,,949.3441,950.6381,950.6381,951.791,return,0.2159,,18.75,,,,,,FBP-PT-71.png,0.35,1.2,46,0.5,,,,,,,,,,,,,,,,,,0,55,55,45,1,,,,,,,,,,,,,,,,,,,,,,,
,,,,,SPR24_088,21,Female,2024-04-24_15h32.05.268,jersey_experiment_5_v0,2023.2.2,Win32,84.74576271,,,,,,,,,,,,,,,,951.7912,953.0853,953.0853,954.8028,return,0.1751,,19.53125,,,,,,FBP-PT-81.png,0.35,1.2,51,0.5,,,,,,,,,,,,,,,,,,0,56,56,50,1,,,,,,,,,,,,,,,,,,,,,,,
,,,,,SPR24_088,21,Female,2024-04-24_15h32.05.268,jersey_experiment_5_v0,2023.2.2,Win32,84.74576271,,,,,,,,,,,,,,,,954.803,955.8498,955.8499,957.5677,return,0.2032,,13.54166667,,,,,,FBP-OG-19.png,0.35,1.2,11,0.25,,,,,,,,,,,,,,,,,,0,57,57,10,1,,,,,,,,,,,,,,,,,,,,,,,
,,,,,SPR24_088,21,Female,2024-04-24_15h32.05.268,jersey_experiment_5_v0,2023.2.2,Win32,84.74576271,,,,,,,,,,,,,,,,957.5679,958.8618,958.8619,959.6502,return,0.198,,11.45833333,,,,,,FBP-PT-91.png,0.37,1.2,57,0.5,,,,,,,,,,,,,,,,,,0,58,58,56,1,,,,,,,,,,,,,,,,,,,,,,,
,,,,,SPR24_088,21,Female,2024-04-24_15h32.05.268,jersey_experiment_5_v0,2023.2.2,Win32,84.74576271,,,,,,,,,,,,,,,,959.6504,960.9442,960.9442,962.3797,return,0.2187,,92.83854167,,,,,,FBP-PT-91.png,0.45,1.2,60,0.5,,,,,,,,,,,,,,,,,,0,59,59,59,1,,,,,,,,,,,,,,,,,,,,,,,
,,,,,SPR24_088,21,Female,2024-04-24_15h32.05.268,jersey_experiment_5_v0,2023.2.2,Win32,84.74576271,,,,,,,,,,,,,,,,,,,,,,,,,,,,,,,,,,,,,,,,,,,,,,,,,,,,,,,,962.3801,967.086,return,4.6963,,,,,,,,,,,,,,,,,,,
,,,,,SPR24_088,21,Female,2024-04-24_15h32.05.268,jersey_experiment_5_v0,2023.2.2,Win32,84.74576271,,,,,,,,,,,,,,,,,,,,,,,,,,,,,,,,,,,,,,,,,,,,,,,,,,,,,,,,,,,,,967.0862,974.0508,1,4.7113,return,2.235,,,,,,,,,,,,
,,,,,SPR24_088,21,Female,2024-04-24_15h32.05.268,jersey_experiment_5_v0,2023.2.2,Win32,84.74576271,,,,,,,,,,,,,,,,,,,,,,,,,,,,,,,,,,,,,,,,,,,,,,,,,,,,,,,,,,,,,,,,,,,,974.0509,1043.5877,I noticed the different skin tones but I am unsure what role they play in the experiment. I do not see any obvious patterns.,right,44.1791,,,,,,
,,,,,SPR24_088,21,Female,2024-04-24_15h32.05.268,jersey_experiment_5_v0,2023.2.2,Win32,84.74576271,,,,,,,,,,,,,,,,,,,,,,,,,,,,,,,,,,,,,,,,,,,,,,,,,,,,,,,,,,,,,,,,,,,,,,,,,,1043.5877,1047.4768,return,3.8721,