requirements.started,requirements.stopped,key_resp_3.keys,key_resp_3.rt,key_resp_3.duration,Subject ID,Age,Gender,date,expName,psychopyVersion,OS,frameRate,instructions1.started,instructions1.stopped,key_resp.keys,key_resp.rt,key_resp.duration,example.started,example.stopped,enter_2.keys,enter_2.rt,enter_2.duration,instructions2.started,instructions2.stopped,enter_3.keys,enter_3.rt,enter_3.duration,image.started,image.stopped,slider_2.started,slider_2.stopped,next.keys,next.rt,next.duration,slider.response,trial_block_1.thisRepN,trial_block_1.thisTrialN,trial_block_1.thisN,trial_block_1.thisIndex,trial_block_1.ran,Path,Width,Height,Index,Duration,trial_block_2.thisRepN,trial_block_2.thisTrialN,trial_block_2.thisN,trial_block_2.thisIndex,trial_block_2.ran,rest_break.started,rest_break.stopped,end_break.started,end_break.stopped,key_resp_5.keys,key_resp_5.rt,key_resp_5.duration,trial_block_3.thisRepN,trial_block_3.thisTrialN,trial_block_3.thisN,trial_block_3.thisIndex,trial_block_3.ran,trial_block_4.thisRepN,trial_block_4.thisTrialN,trial_block_4.thisN,trial_block_4.thisIndex,trial_block_4.ran,questions_intro.started,questions_intro.stopped,enter_12.keys,enter_12.rt,enter_12.duration,question2.started,question2.stopped,question_doingbest.response,question_doingbest.rt,enter_15.keys,enter_15.rt,enter_15.duration,pattern.started,pattern.stopped,pattern_2.text,enter_17.keys,enter_17.rt,enter_17.duration,thankyou.started,thankyou.stopped,enter_14.keys,enter_14.rt,enter_14.duration
9.99999E-05,6.6246,return,6.6199,,SPR24_016,20,Female,2024-04-08_16h05.31.846,jersey_experiment_5_v0,2023.2.2,Win32,85.47008547,,,,,,,,,,,,,,,,,,,,,,,,,,,,,,,,,,,,,,,,,,,,,,,,,,,,,,,,,,,,,,,,,,,,,,,,,,,,,,
,,,,,SPR24_016,20,Female,2024-04-08_16h05.31.846,jersey_experiment_5_v0,2023.2.2,Win32,85.47008547,6.6247,17.6356,return,10.9886,,,,,,,,,,,,,,,,,,,,,,,,,,,,,,,,,,,,,,,,,,,,,,,,,,,,,,,,,,,,,,,,,,,,,,,,,,
,,,,,SPR24_016,20,Female,2024-04-08_16h05.31.846,jersey_experiment_5_v0,2023.2.2,Win32,85.47008547,,,,,,17.6357,25.6122,return,7.9418,,,,,,,,,,,,,,,,,,,,,,,,,,,,,,,,,,,,,,,,,,,,,,,,,,,,,,,,,,,,,,,,,,,,,
,,,,,SPR24_016,20,Female,2024-04-08_16h05.31.846,jersey_experiment_5_v0,2023.2.2,Win32,85.47008547,,,,,,,,,,,25.6122,49.5426,return,23.9193,,,,,,,,,,,,,,,,,,,,,,,,,,,,,,,,,,,,,,,,,,,,,,,,,,,,,,,,,,,,,,,,
,,,,,SPR24_016,20,Female,2024-04-08_16h05.31.846,jersey_experiment_5_v0,2023.2.2,Win32,85.47008547,,,,,,,,,,,,,,,,49.5493,50.8483,50.8485,67.5666,return,2.5224,,67.70833333,0,0,0,7,1,FBP-OG-81.png,0.4,1.2,8,0.5,,,,,,,,,,,,,,,,,,,,,,,,,,,,,,,,,,,,,,,,,,,,,
,,,,,SPR24_016,20,Female,2024-04-08_16h05.31.846,jersey_experiment_5_v0,2023.2.2,Win32,85.47008547,,,,,,,,,,,,,,,,67.567,68.8607,68.8608,78.5081,return,3.9266,,64.58333333,0,1,1,13,1,FBP-OG-91.png,0.43,1.2,14,0.5,,,,,,,,,,,,,,,,,,,,,,,,,,,,,,,,,,,,,,,,,,,,,
,,,,,SPR24_016,20,Female,2024-04-08_16h05.31.846,jersey_experiment_5_v0,2023.2.2,Win32,85.47008547,,,,,,,,,,,,,,,,78.5083,79.5552,79.5553,91.638,return,6.8382,,31.90104167,0,2,2,47,1,FBP-PT-17.png,0.4,1.2,48,0.25,,,,,,,,,,,,,,,,,,,,,,,,,,,,,,,,,,,,,,,,,,,,,
,,,,,SPR24_016,20,Female,2024-04-08_16h05.31.846,jersey_experiment_5_v0,2023.2.2,Win32,85.47008547,,,,,,,,,,,,,,,,91.6421,92.6851,92.6851,107.9563,return,10.3543,,12.76041667,0,3,3,25,1,FBP-YG-19.png,0.35,1.2,26,0.25,,,,,,,,,,,,,,,,,,,,,,,,,,,,,,,,,,,,,,,,,,,,,
,,,,,SPR24_016,20,Female,2024-04-08_16h05.31.846,jersey_experiment_5_v0,2023.2.2,Win32,85.47008547,,,,,,,,,,,,,,,,107.9566,109.2505,109.2506,120.9921,return,8.0054,,87.890625,0,4,4,44,1,FBP-RB-19.png,0.45,1.2,45,0.5,,,,,,,,,,,,,,,,,,,,,,,,,,,,,,,,,,,,,,,,,,,,,
,,,,,SPR24_016,20,Female,2024-04-08_16h05.31.846,jersey_experiment_5_v0,2023.2.2,Win32,85.47008547,,,,,,,,,,,,,,,,120.9924,122.2862,122.2862,127.957,return,2.9424,,40.88541667,0,5,5,40,1,FBP-RB-19.png,0.35,1.2,41,0.5,,,,,,,,,,,,,,,,,,,,,,,,,,,,,,,,,,,,,,,,,,,,,
,,,,,SPR24_016,20,Female,2024-04-08_16h05.31.846,jersey_experiment_5_v0,2023.2.2,Win32,85.47008547,,,,,,,,,,,,,,,,127.9573,129.0042,129.0043,135.8751,return,4.1878,,59.765625,0,6,6,58,1,FBP-PT-19.png,0.43,1.2,59,0.25,,,,,,,,,,,,,,,,,,,,,,,,,,,,,,,,,,,,,,,,,,,,,
,,,,,SPR24_016,20,Female,2024-04-08_16h05.31.846,jersey_experiment_5_v0,2023.2.2,Win32,85.47008547,,,,,,,,,,,,,,,,135.8796,136.922,136.9222,144.0871,return,4.5324,,75.26041667,0,7,7,19,1,FBP-YG-17.png,0.45,1.2,20,0.25,,,,,,,,,,,,,,,,,,,,,,,,,,,,,,,,,,,,,,,,,,,,,
,,,,,SPR24_016,20,Female,2024-04-08_16h05.31.846,jersey_experiment_5_v0,2023.2.2,Win32,85.47008547,,,,,,,,,,,,,,,,144.0873,145.3812,145.3812,151.1697,return,3.0974,,49.86979167,0,8,8,37,1,FBP-RB-18.png,0.4,1.2,38,0.5,,,,,,,,,,,,,,,,,,,,,,,,,,,,,,,,,,,,,,,,,,,,,
,,,,,SPR24_016,20,Female,2024-04-08_16h05.31.846,jersey_experiment_5_v0,2023.2.2,Win32,85.47008547,,,,,,,,,,,,,,,,151.1742,152.2167,152.2167,158.311,return,3.1768,,41.40625,0,9,9,21,1,FBP-YG-18.png,0.37,1.2,22,0.25,,,,,,,,,,,,,,,,,,,,,,,,,,,,,,,,,,,,,,,,,,,,,
,,,,,SPR24_016,20,Female,2024-04-08_16h05.31.846,jersey_experiment_5_v0,2023.2.2,Win32,85.47008547,,,,,,,,,,,,,,,,158.3112,159.3583,159.3583,166.1819,return,3.85,,74.73958333,0,10,10,24,1,FBP-YG-18.png,0.45,1.2,25,0.25,,,,,,,,,,,,,,,,,,,,,,,,,,,,,,,,,,,,,,,,,,,,,
,,,,,SPR24_016,20,Female,2024-04-08_16h05.31.846,jersey_experiment_5_v0,2023.2.2,Win32,85.47008547,,,,,,,,,,,,,,,,166.1866,167.2291,167.2291,173.7586,return,2.9924,,84.24479167,0,11,11,49,1,FBP-PT-17.png,0.45,1.2,50,0.25,,,,,,,,,,,,,,,,,,,,,,,,,,,,,,,,,,,,,,,,,,,,,
,,,,,SPR24_016,20,Female,2024-04-08_16h05.31.846,jersey_experiment_5_v0,2023.2.2,Win32,85.47008547,,,,,,,,,,,,,,,,173.7628,174.8058,174.8058,178.8179,return,1.8975,,87.76041667,0,12,12,54,1,FBP-PT-18.png,0.45,1.2,55,0.25,,,,,,,,,,,,,,,,,,,,,,,,,,,,,,,,,,,,,,,,,,,,,
,,,,,SPR24_016,20,Female,2024-04-08_16h05.31.846,jersey_experiment_5_v0,2023.2.2,Win32,85.47008547,,,,,,,,,,,,,,,,178.8181,180.1119,180.1119,188.1474,return,2.6839,,75.390625,0,13,13,38,1,FBP-RB-18.png,0.43,1.2,39,0.5,,,,,,,,,,,,,,,,,,,,,,,,,,,,,,,,,,,,,,,,,,,,,
,,,,,SPR24_016,20,Female,2024-04-08_16h05.31.846,jersey_experiment_5_v0,2023.2.2,Win32,85.47008547,,,,,,,,,,,,,,,,188.1476,189.1948,189.1948,196.0773,return,1.735,,25,0,14,14,55,1,FBP-PT-19.png,0.35,1.2,56,0.25,,,,,,,,,,,,,,,,,,,,,,,,,,,,,,,,,,,,,,,,,,,,,
,,,,,SPR24_016,20,Female,2024-04-08_16h05.31.846,jersey_experiment_5_v0,2023.2.2,Win32,85.47008547,,,,,,,,,,,,,,,,196.0775,197.1244,197.1245,204.607,return,4.7945,,38.28125,0,15,15,51,1,FBP-PT-18.png,0.37,1.2,52,0.25,,,,,,,,,,,,,,,,,,,,,,,,,,,,,,,,,,,,,,,,,,,,,
,,,,,SPR24_016,20,Female,2024-04-08_16h05.31.846,jersey_experiment_5_v0,2023.2.2,Win32,85.47008547,,,,,,,,,,,,,,,,204.6073,205.9011,205.9011,208.4776,return,1.2399,,38.28125,0,16,16,10,1,FBP-OG-91.png,0.35,1.2,11,0.5,,,,,,,,,,,,,,,,,,,,,,,,,,,,,,,,,,,,,,,,,,,,,
,,,,,SPR24_016,20,Female,2024-04-08_16h05.31.846,jersey_experiment_5_v0,2023.2.2,Win32,85.47008547,,,,,,,,,,,,,,,,208.4778,209.7719,209.772,212.7015,return,1.3607,,38.28125,0,17,17,30,1,FBP-RB-17.png,0.35,1.2,31,0.5,,,,,,,,,,,,,,,,,,,,,,,,,,,,,,,,,,,,,,,,,,,,,
,,,,,SPR24_016,20,Female,2024-04-08_16h05.31.846,jersey_experiment_5_v0,2023.2.2,Win32,85.47008547,,,,,,,,,,,,,,,,212.7018,213.7483,213.7484,221.1254,return,5.121,,50.13020833,0,18,18,20,1,FBP-YG-18.png,0.35,1.2,21,0.25,,,,,,,,,,,,,,,,,,,,,,,,,,,,,,,,,,,,,,,,,,,,,
,,,,,SPR24_016,20,Female,2024-04-08_16h05.31.846,jersey_experiment_5_v0,2023.2.2,Win32,85.47008547,,,,,,,,,,,,,,,,221.1256,222.4194,222.4195,234.467,return,9.0122,,67.96875,0,19,19,43,1,FBP-RB-19.png,0.43,1.2,44,0.5,,,,,,,,,,,,,,,,,,,,,,,,,,,,,,,,,,,,,,,,,,,,,
,,,,,SPR24_016,20,Female,2024-04-08_16h05.31.846,jersey_experiment_5_v0,2023.2.2,Win32,85.47008547,,,,,,,,,,,,,,,,234.4672,235.7611,235.7611,242.4673,return,3.3074,,50.390625,0,20,20,31,1,FBP-RB-17.png,0.37,1.2,32,0.5,,,,,,,,,,,,,,,,,,,,,,,,,,,,,,,,,,,,,,,,,,,,,
,,,,,SPR24_016,20,Female,2024-04-08_16h05.31.846,jersey_experiment_5_v0,2023.2.2,Win32,85.47008547,,,,,,,,,,,,,,,,242.4676,243.5143,243.5144,248.2792,return,2.7674,,55.859375,0,21,21,22,1,FBP-YG-18.png,0.4,1.2,23,0.25,,,,,,,,,,,,,,,,,,,,,,,,,,,,,,,,,,,,,,,,,,,,,
,,,,,SPR24_016,20,Female,2024-04-08_16h05.31.846,jersey_experiment_5_v0,2023.2.2,Win32,85.47008547,,,,,,,,,,,,,,,,248.2794,249.3263,249.3263,254.0677,return,2.3294,,57.55208333,0,22,22,17,1,FBP-YG-17.png,0.4,1.2,18,0.25,,,,,,,,,,,,,,,,,,,,,,,,,,,,,,,,,,,,,,,,,,,,,
,,,,,SPR24_016,20,Female,2024-04-08_16h05.31.846,jersey_experiment_5_v0,2023.2.2,Win32,85.47008547,,,,,,,,,,,,,,,,254.0679,255.1148,255.1149,259.5855,return,2.2153,,67.83854167,0,23,23,23,1,FBP-YG-18.png,0.43,1.2,24,0.25,,,,,,,,,,,,,,,,,,,,,,,,,,,,,,,,,,,,,,,,,,,,,
,,,,,SPR24_016,20,Female,2024-04-08_16h05.31.846,jersey_experiment_5_v0,2023.2.2,Win32,85.47008547,,,,,,,,,,,,,,,,259.5857,260.8797,260.8798,268.4682,return,5.7548,,45.18229167,0,24,24,11,1,FBP-OG-91.png,0.37,1.2,12,0.5,,,,,,,,,,,,,,,,,,,,,,,,,,,,,,,,,,,,,,,,,,,,,
,,,,,SPR24_016,20,Female,2024-04-08_16h05.31.846,jersey_experiment_5_v0,2023.2.2,Win32,85.47008547,,,,,,,,,,,,,,,,268.4685,269.5152,269.5152,273.6801,return,2.2495,,45.703125,0,25,25,56,1,FBP-PT-19.png,0.37,1.2,57,0.25,,,,,,,,,,,,,,,,,,,,,,,,,,,,,,,,,,,,,,,,,,,,,
,,,,,SPR24_016,20,Female,2024-04-08_16h05.31.846,jersey_experiment_5_v0,2023.2.2,Win32,85.47008547,,,,,,,,,,,,,,,,273.6804,274.9743,274.9744,280.4333,return,3.7214,,62.5,0,26,26,3,1,FBP-OG-71.png,0.43,1.2,4,0.5,,,,,,,,,,,,,,,,,,,,,,,,,,,,,,,,,,,,,,,,,,,,,
,,,,,SPR24_016,20,Female,2024-04-08_16h05.31.846,jersey_experiment_5_v0,2023.2.2,Win32,85.47008547,,,,,,,,,,,,,,,,280.4335,281.7275,281.7276,287.0101,return,1.85,,65.10416667,0,27,27,8,1,FBP-OG-81.png,0.43,1.2,9,0.5,,,,,,,,,,,,,,,,,,,,,,,,,,,,,,,,,,,,,,,,,,,,,
,,,,,SPR24_016,20,Female,2024-04-08_16h05.31.846,jersey_experiment_5_v0,2023.2.2,Win32,85.47008547,,,,,,,,,,,,,,,,287.0104,288.0572,288.0572,291.2691,return,1.1535,,50,0,28,28,46,1,FBP-PT-17.png,0.37,1.2,47,0.25,,,,,,,,,,,,,,,,,,,,,,,,,,,,,,,,,,,,,,,,,,,,,
,,,,,SPR24_016,20,Female,2024-04-08_16h05.31.846,jersey_experiment_5_v0,2023.2.2,Win32,85.47008547,,,,,,,,,,,,,,,,291.2692,292.5633,292.5633,295.9517,return,1.499,,74.609375,0,29,29,9,1,FBP-OG-81.png,0.45,1.2,10,0.5,,,,,,,,,,,,,,,,,,,,,,,,,,,,,,,,,,,,,,,,,,,,,
,,,,,SPR24_016,20,Female,2024-04-08_16h05.31.846,jersey_experiment_5_v0,2023.2.2,Win32,85.47008547,,,,,,,,,,,,,,,,295.9519,297.2458,297.2459,304.293,return,4.7155,,33.59375,0,30,30,0,1,FBP-OG-71.png,0.35,1.2,1,0.5,,,,,,,,,,,,,,,,,,,,,,,,,,,,,,,,,,,,,,,,,,,,,
,,,,,SPR24_016,20,Female,2024-04-08_16h05.31.846,jersey_experiment_5_v0,2023.2.2,Win32,85.47008547,,,,,,,,,,,,,,,,304.2933,305.3404,305.3404,310.7051,return,3.1788,,46.22395833,0,31,31,16,1,FBP-YG-17.png,0.37,1.2,17,0.25,,,,,,,,,,,,,,,,,,,,,,,,,,,,,,,,,,,,,,,,,,,,,
,,,,,SPR24_016,20,Female,2024-04-08_16h05.31.846,jersey_experiment_5_v0,2023.2.2,Win32,85.47008547,,,,,,,,,,,,,,,,310.7053,311.9994,311.9994,316.1406,return,1.1121,,68.359375,0,32,32,34,1,FBP-RB-17.png,0.45,1.2,35,0.5,,,,,,,,,,,,,,,,,,,,,,,,,,,,,,,,,,,,,,,,,,,,,
,,,,,SPR24_016,20,Female,2024-04-08_16h05.31.846,jersey_experiment_5_v0,2023.2.2,Win32,85.47008547,,,,,,,,,,,,,,,,316.1408,317.435,317.435,321.0466,return,1.3416,,31.25,0,33,33,35,1,FBP-RB-18.png,0.35,1.2,36,0.5,,,,,,,,,,,,,,,,,,,,,,,,,,,,,,,,,,,,,,,,,,,,,
,,,,,SPR24_016,20,Female,2024-04-08_16h05.31.846,jersey_experiment_5_v0,2023.2.2,Win32,85.47008547,,,,,,,,,,,,,,,,321.0468,322.0938,322.0938,326.0234,return,2.0615,,68.48958333,0,34,34,28,1,FBP-YG-19.png,0.43,1.2,29,0.25,,,,,,,,,,,,,,,,,,,,,,,,,,,,,,,,,,,,,,,,,,,,,
,,,,,SPR24_016,20,Female,2024-04-08_16h05.31.846,jersey_experiment_5_v0,2023.2.2,Win32,85.47008547,,,,,,,,,,,,,,,,326.0236,327.3175,327.3176,330.7411,return,1.3884,,32.03125,0,35,35,5,1,FBP-OG-81.png,0.35,1.2,6,0.5,,,,,,,,,,,,,,,,,,,,,,,,,,,,,,,,,,,,,,,,,,,,,
,,,,,SPR24_016,20,Female,2024-04-08_16h05.31.846,jersey_experiment_5_v0,2023.2.2,Win32,85.47008547,,,,,,,,,,,,,,,,330.7413,332.0353,332.0353,336.9414,return,3.1591,,69.01041667,0,36,36,12,1,FBP-OG-91.png,0.4,1.2,13,0.5,,,,,,,,,,,,,,,,,,,,,,,,,,,,,,,,,,,,,,,,,,,,,
,,,,,SPR24_016,20,Female,2024-04-08_16h05.31.846,jersey_experiment_5_v0,2023.2.2,Win32,85.47008547,,,,,,,,,,,,,,,,336.9417,338.2356,338.2356,346.3065,return,5.8732,,70.18229167,0,37,37,32,1,FBP-RB-17.png,0.4,1.2,33,0.5,,,,,,,,,,,,,,,,,,,,,,,,,,,,,,,,,,,,,,,,,,,,,
,,,,,SPR24_016,20,Female,2024-04-08_16h05.31.846,jersey_experiment_5_v0,2023.2.2,Win32,85.47008547,,,,,,,,,,,,,,,,346.3068,347.6009,347.6009,359.8247,return,8.405,,29.16666667,0,38,38,6,1,FBP-OG-81.png,0.37,1.2,7,0.5,,,,,,,,,,,,,,,,,,,,,,,,,,,,,,,,,,,,,,,,,,,,,
,,,,,SPR24_016,20,Female,2024-04-08_16h05.31.846,jersey_experiment_5_v0,2023.2.2,Win32,85.47008547,,,,,,,,,,,,,,,,359.8249,360.8718,360.8718,368.4367,return,5.1869,,83.46354167,0,39,39,48,1,FBP-PT-17.png,0.43,1.2,49,0.25,,,,,,,,,,,,,,,,,,,,,,,,,,,,,,,,,,,,,,,,,,,,,
,,,,,SPR24_016,20,Female,2024-04-08_16h05.31.846,jersey_experiment_5_v0,2023.2.2,Win32,85.47008547,,,,,,,,,,,,,,,,368.4369,369.4838,369.4838,373.1545,return,1.1065,,6.119791667,0,40,40,15,1,FBP-YG-17.png,0.35,1.2,16,0.25,,,,,,,,,,,,,,,,,,,,,,,,,,,,,,,,,,,,,,,,,,,,,
,,,,,SPR24_016,20,Female,2024-04-08_16h05.31.846,jersey_experiment_5_v0,2023.2.2,Win32,85.47008547,,,,,,,,,,,,,,,,373.1546,374.4487,374.4487,382.6138,return,6.4385,,92.83854167,0,41,41,4,1,FBP-OG-71.png,0.45,1.2,5,0.5,,,,,,,,,,,,,,,,,,,,,,,,,,,,,,,,,,,,,,,,,,,,,
,,,,,SPR24_016,20,Female,2024-04-08_16h05.31.846,jersey_experiment_5_v0,2023.2.2,Win32,85.47008547,,,,,,,,,,,,,,,,382.6141,383.6606,383.6608,388.5314,return,2.1763,,8.072916667,0,42,42,26,1,FBP-YG-19.png,0.37,1.2,27,0.25,,,,,,,,,,,,,,,,,,,,,,,,,,,,,,,,,,,,,,,,,,,,,
,,,,,SPR24_016,20,Female,2024-04-08_16h05.31.846,jersey_experiment_5_v0,2023.2.2,Win32,85.47008547,,,,,,,,,,,,,,,,388.5315,389.8255,389.8255,395.5084,return,3.3559,,42.44791667,0,43,43,1,1,FBP-OG-71.png,0.37,1.2,2,0.5,,,,,,,,,,,,,,,,,,,,,,,,,,,,,,,,,,,,,,,,,,,,,
,,,,,SPR24_016,20,Female,2024-04-08_16h05.31.846,jersey_experiment_5_v0,2023.2.2,Win32,85.47008547,,,,,,,,,,,,,,,,395.5087,396.5554,396.5554,404.1441,return,3.7213,,57.55208333,0,44,44,57,1,FBP-PT-19.png,0.4,1.2,58,0.25,,,,,,,,,,,,,,,,,,,,,,,,,,,,,,,,,,,,,,,,,,,,,
,,,,,SPR24_016,20,Female,2024-04-08_16h05.31.846,jersey_experiment_5_v0,2023.2.2,Win32,85.47008547,,,,,,,,,,,,,,,,404.1443,405.1911,405.1912,410.6855,return,3.4647,,67.05729167,0,45,45,52,1,FBP-PT-18.png,0.4,1.2,53,0.25,,,,,,,,,,,,,,,,,,,,,,,,,,,,,,,,,,,,,,,,,,,,,
,,,,,SPR24_016,20,Female,2024-04-08_16h05.31.846,jersey_experiment_5_v0,2023.2.2,Win32,85.47008547,,,,,,,,,,,,,,,,410.6857,411.7325,411.7325,415.2855,return,1.116,,75.26041667,0,46,46,29,1,FBP-YG-19.png,0.45,1.2,30,0.25,,,,,,,,,,,,,,,,,,,,,,,,,,,,,,,,,,,,,,,,,,,,,
,,,,,SPR24_016,20,Female,2024-04-08_16h05.31.846,jersey_experiment_5_v0,2023.2.2,Win32,85.47008547,,,,,,,,,,,,,,,,415.2858,416.3327,416.3327,424.0036,return,4.4708,,9.765625,0,47,47,45,1,FBP-PT-17.png,0.35,1.2,46,0.25,,,,,,,,,,,,,,,,,,,,,,,,,,,,,,,,,,,,,,,,,,,,,
,,,,,SPR24_016,20,Female,2024-04-08_16h05.31.846,jersey_experiment_5_v0,2023.2.2,Win32,85.47008547,,,,,,,,,,,,,,,,424.0079,425.3093,425.3094,428.2626,return,1.0029,,49.86979167,0,48,48,2,1,FBP-OG-71.png,0.4,1.2,3,0.5,,,,,,,,,,,,,,,,,,,,,,,,,,,,,,,,,,,,,,,,,,,,,
,,,,,SPR24_016,20,Female,2024-04-08_16h05.31.846,jersey_experiment_5_v0,2023.2.2,Win32,85.47008547,,,,,,,,,,,,,,,,428.2629,429.5566,429.5567,434.0981,return,3.1535,,74.73958333,0,49,49,39,1,FBP-RB-18.png,0.45,1.2,40,0.5,,,,,,,,,,,,,,,,,,,,,,,,,,,,,,,,,,,,,,,,,,,,,
,,,,,SPR24_016,20,Female,2024-04-08_16h05.31.846,jersey_experiment_5_v0,2023.2.2,Win32,85.47008547,,,,,,,,,,,,,,,,434.0983,435.145,435.145,438.9571,return,0.9356,,24.86979167,0,50,50,50,1,FBP-PT-18.png,0.35,1.2,51,0.25,,,,,,,,,,,,,,,,,,,,,,,,,,,,,,,,,,,,,,,,,,,,,
,,,,,SPR24_016,20,Female,2024-04-08_16h05.31.846,jersey_experiment_5_v0,2023.2.2,Win32,85.47008547,,,,,,,,,,,,,,,,438.9574,440.2511,440.2512,442.8513,return,0.6256,,74.86979167,0,51,51,33,1,FBP-RB-17.png,0.43,1.2,34,0.5,,,,,,,,,,,,,,,,,,,,,,,,,,,,,,,,,,,,,,,,,,,,,
,,,,,SPR24_016,20,Female,2024-04-08_16h05.31.846,jersey_experiment_5_v0,2023.2.2,Win32,85.47008547,,,,,,,,,,,,,,,,442.8516,444.1455,444.1455,449.3927,return,2.5812,,32.94270833,0,52,52,36,1,FBP-RB-18.png,0.37,1.2,37,0.5,,,,,,,,,,,,,,,,,,,,,,,,,,,,,,,,,,,,,,,,,,,,,
,,,,,SPR24_016,20,Female,2024-04-08_16h05.31.846,jersey_experiment_5_v0,2023.2.2,Win32,85.47008547,,,,,,,,,,,,,,,,449.3972,450.4398,450.4399,453.3812,return,0.7767,,75.13020833,0,53,53,53,1,FBP-PT-18.png,0.43,1.2,54,0.25,,,,,,,,,,,,,,,,,,,,,,,,,,,,,,,,,,,,,,,,,,,,,
,,,,,SPR24_016,20,Female,2024-04-08_16h05.31.846,jersey_experiment_5_v0,2023.2.2,Win32,85.47008547,,,,,,,,,,,,,,,,453.3814,454.4282,454.4283,463.6991,return,6.4376,,50.26041667,0,54,54,27,1,FBP-YG-19.png,0.4,1.2,28,0.25,,,,,,,,,,,,,,,,,,,,,,,,,,,,,,,,,,,,,,,,,,,,,
,,,,,SPR24_016,20,Female,2024-04-08_16h05.31.846,jersey_experiment_5_v0,2023.2.2,Win32,85.47008547,,,,,,,,,,,,,,,,463.6995,464.9934,464.9934,469.3111,return,2.7455,,92.96875,0,55,55,14,1,FBP-OG-91.png,0.45,1.2,15,0.5,,,,,,,,,,,,,,,,,,,,,,,,,,,,,,,,,,,,,,,,,,,,,
,,,,,SPR24_016,20,Female,2024-04-08_16h05.31.846,jersey_experiment_5_v0,2023.2.2,Win32,85.47008547,,,,,,,,,,,,,,,,469.3113,470.6052,470.6052,473.6054,return,0.6587,,54.55729167,0,56,56,42,1,FBP-RB-19.png,0.4,1.2,43,0.5,,,,,,,,,,,,,,,,,,,,,,,,,,,,,,,,,,,,,,,,,,,,,
,,,,,SPR24_016,20,Female,2024-04-08_16h05.31.846,jersey_experiment_5_v0,2023.2.2,Win32,85.47008547,,,,,,,,,,,,,,,,473.6056,474.8996,474.8996,477.2291,return,0.6884,,50.13020833,0,57,57,41,1,FBP-RB-19.png,0.37,1.2,42,0.5,,,,,,,,,,,,,,,,,,,,,,,,,,,,,,,,,,,,,,,,,,,,,
,,,,,SPR24_016,20,Female,2024-04-08_16h05.31.846,jersey_experiment_5_v0,2023.2.2,Win32,85.47008547,,,,,,,,,,,,,,,,477.2294,478.2761,478.2761,480.6528,return,0.6201,,64.19270833,0,58,58,18,1,FBP-YG-17.png,0.43,1.2,19,0.25,,,,,,,,,,,,,,,,,,,,,,,,,,,,,,,,,,,,,,,,,,,,,
,,,,,SPR24_016,20,Female,2024-04-08_16h05.31.846,jersey_experiment_5_v0,2023.2.2,Win32,85.47008547,,,,,,,,,,,,,,,,480.653,481.6999,481.7,485.8294,return,2.4798,,91.796875,0,59,59,59,1,FBP-PT-19.png,0.45,1.2,60,0.25,,,,,,,,,,,,,,,,,,,,,,,,,,,,,,,,,,,,,,,,,,,,,
,,,,,SPR24_016,20,Female,2024-04-08_16h05.31.846,jersey_experiment_5_v0,2023.2.2,Win32,85.47008547,,,,,,,,,,,,,,,,485.8328,486.8766,486.8767,488.9472,return,0.7295,,94.79166667,,,,,,FBP-PT-81.png,0.43,1.2,54,0.25,0,0,0,53,1,,,,,,,,,,,,,,,,,,,,,,,,,,,,,,,,,,,,,,,,
,,,,,SPR24_016,20,Female,2024-04-08_16h05.31.846,jersey_experiment_5_v0,2023.2.2,Win32,85.47008547,,,,,,,,,,,,,,,,488.9476,489.9942,489.9942,492.9944,return,0.9088,,42.70833333,,,,,,FBP-PT-81.png,0.37,1.2,52,0.25,0,1,1,51,1,,,,,,,,,,,,,,,,,,,,,,,,,,,,,,,,,,,,,,,,
,,,,,SPR24_016,20,Female,2024-04-08_16h05.31.846,jersey_experiment_5_v0,2023.2.2,Win32,85.47008547,,,,,,,,,,,,,,,,492.9946,494.0414,494.0414,495.971,return,0.5532,,42.70833333,,,,,,FBP-PT-91.png,0.37,1.2,57,0.25,0,2,2,56,1,,,,,,,,,,,,,,,,,,,,,,,,,,,,,,,,,,,,,,,,
,,,,,SPR24_016,20,Female,2024-04-08_16h05.31.846,jersey_experiment_5_v0,2023.2.2,Win32,85.47008547,,,,,,,,,,,,,,,,495.9712,497.265,497.265,506.5831,return,7.2474,,45.57291667,,,,,,FBP-OG-17.png,0.4,1.2,3,0.5,0,3,3,2,1,,,,,,,,,,,,,,,,,,,,,,,,,,,,,,,,,,,,,,,,
,,,,,SPR24_016,20,Female,2024-04-08_16h05.31.846,jersey_experiment_5_v0,2023.2.2,Win32,85.47008547,,,,,,,,,,,,,,,,506.5834,507.6302,507.6303,512.3363,return,3.0386,,24.86979167,,,,,,FBP-PT-71.png,0.35,1.2,46,0.25,0,4,4,45,1,,,,,,,,,,,,,,,,,,,,,,,,,,,,,,,,,,,,,,,,
,,,,,SPR24_016,20,Female,2024-04-08_16h05.31.846,jersey_experiment_5_v0,2023.2.2,Win32,85.47008547,,,,,,,,,,,,,,,,512.3365,513.6304,513.6305,521.7483,return,5.2146,,29.81770833,,,,,,FBP-RB-91.png,0.35,1.2,41,0.5,0,5,5,40,1,,,,,,,,,,,,,,,,,,,,,,,,,,,,,,,,,,,,,,,,
,,,,,SPR24_016,20,Female,2024-04-08_16h05.31.846,jersey_experiment_5_v0,2023.2.2,Win32,85.47008547,,,,,,,,,,,,,,,,521.7486,523.0426,523.0427,526.419,return,1.6119,,28.38541667,,,,,,FBP-OG-18.png,0.35,1.2,6,0.5,0,6,6,5,1,,,,,,,,,,,,,,,,,,,,,,,,,,,,,,,,,,,,,,,,
,,,,,SPR24_016,20,Female,2024-04-08_16h05.31.846,jersey_experiment_5_v0,2023.2.2,Win32,85.47008547,,,,,,,,,,,,,,,,526.4192,527.4662,527.4662,530.4193,return,0.6937,,92.1875,,,,,,FBP-YG-81.png,0.45,1.2,25,0.25,0,7,7,24,1,,,,,,,,,,,,,,,,,,,,,,,,,,,,,,,,,,,,,,,,
,,,,,SPR24_016,20,Female,2024-04-08_16h05.31.846,jersey_experiment_5_v0,2023.2.2,Win32,85.47008547,,,,,,,,,,,,,,,,530.4195,531.7133,531.7133,533.3135,return,0.8744,,92.1875,,,,,,FBP-RB-91.png,0.45,1.2,45,0.5,0,8,8,44,1,,,,,,,,,,,,,,,,,,,,,,,,,,,,,,,,,,,,,,,,
,,,,,SPR24_016,20,Female,2024-04-08_16h05.31.846,jersey_experiment_5_v0,2023.2.2,Win32,85.47008547,,,,,,,,,,,,,,,,533.3138,534.3606,534.3608,536.5491,return,0.6834,,93.359375,,,,,,FBP-YG-71.png,0.45,1.2,20,0.25,0,9,9,19,1,,,,,,,,,,,,,,,,,,,,,,,,,,,,,,,,,,,,,,,,
,,,,,SPR24_016,20,Female,2024-04-08_16h05.31.846,jersey_experiment_5_v0,2023.2.2,Win32,85.47008547,,,,,,,,,,,,,,,,536.5492,537.8431,537.8431,542.2315,return,2.2824,,75.13020833,,,,,,FBP-RB-81.png,0.43,1.2,39,0.5,0,10,10,38,1,,,,,,,,,,,,,,,,,,,,,,,,,,,,,,,,,,,,,,,,
,,,,,SPR24_016,20,Female,2024-04-08_16h05.31.846,jersey_experiment_5_v0,2023.2.2,Win32,85.47008547,,,,,,,,,,,,,,,,542.2317,543.5256,543.5257,546.6553,return,0.8155,,50.13020833,,,,,,FBP-RB-81.png,0.37,1.2,37,0.5,0,11,11,36,1,,,,,,,,,,,,,,,,,,,,,,,,,,,,,,,,,,,,,,,,
,,,,,SPR24_016,20,Female,2024-04-08_16h05.31.846,jersey_experiment_5_v0,2023.2.2,Win32,85.47008547,,,,,,,,,,,,,,,,546.6555,547.7022,547.7023,552.4317,return,2.9439,,44.79166667,,,,,,FBP-YG-81.png,0.37,1.2,22,0.25,0,12,12,21,1,,,,,,,,,,,,,,,,,,,,,,,,,,,,,,,,,,,,,,,,
,,,,,SPR24_016,20,Female,2024-04-08_16h05.31.846,jersey_experiment_5_v0,2023.2.2,Win32,85.47008547,,,,,,,,,,,,,,,,552.432,553.7261,553.7262,558.1969,return,0.7672,,49.86979167,,,,,,FBP-OG-18.png,0.37,1.2,7,0.5,0,13,13,6,1,,,,,,,,,,,,,,,,,,,,,,,,,,,,,,,,,,,,,,,,
,,,,,SPR24_016,20,Female,2024-04-08_16h05.31.846,jersey_experiment_5_v0,2023.2.2,Win32,85.47008547,,,,,,,,,,,,,,,,558.1971,559.244,559.244,563.5264,return,2.2926,,82.29166667,,,,,,FBP-PT-91.png,0.45,1.2,60,0.25,0,14,14,59,1,,,,,,,,,,,,,,,,,,,,,,,,,,,,,,,,,,,,,,,,
,,,,,SPR24_016,20,Female,2024-04-08_16h05.31.846,jersey_experiment_5_v0,2023.2.2,Win32,85.47008547,,,,,,,,,,,,,,,,563.5267,564.5737,564.5737,567.5853,return,1.2152,,84.375,,,,,,FBP-YG-71.png,0.43,1.2,19,0.25,0,15,15,18,1,,,,,,,,,,,,,,,,,,,,,,,,,,,,,,,,,,,,,,,,
,,,,,SPR24_016,20,Female,2024-04-08_16h05.31.846,jersey_experiment_5_v0,2023.2.2,Win32,85.47008547,,,,,,,,,,,,,,,,567.5855,568.6324,568.6324,572.656,return,2.5322,,83.203125,,,,,,FBP-YG-91.png,0.45,1.2,30,0.25,0,16,16,29,1,,,,,,,,,,,,,,,,,,,,,,,,,,,,,,,,,,,,,,,,
,,,,,SPR24_016,20,Female,2024-04-08_16h05.31.846,jersey_experiment_5_v0,2023.2.2,Win32,85.47008547,,,,,,,,,,,,,,,,572.6563,573.9503,573.9504,576.5623,return,0.9776,,83.33333333,,,,,,FBP-RB-71.png,0.45,1.2,35,0.5,0,17,17,34,1,,,,,,,,,,,,,,,,,,,,,,,,,,,,,,,,,,,,,,,,
,,,,,SPR24_016,20,Female,2024-04-08_16h05.31.846,jersey_experiment_5_v0,2023.2.2,Win32,85.47008547,,,,,,,,,,,,,,,,576.5625,577.8564,577.8564,580.4921,return,0.6684,,42.83854167,,,,,,FBP-RB-71.png,0.37,1.2,32,0.5,0,18,18,31,1,,,,,,,,,,,,,,,,,,,,,,,,,,,,,,,,,,,,,,,,
,,,,,SPR24_016,20,Female,2024-04-08_16h05.31.846,jersey_experiment_5_v0,2023.2.2,Win32,85.47008547,,,,,,,,,,,,,,,,580.4923,581.786,581.786,584.8803,return,0.5813,,24.86979167,,,,,,FBP-OG-19.png,0.35,1.2,11,0.5,0,19,19,10,1,,,,,,,,,,,,,,,,,,,,,,,,,,,,,,,,,,,,,,,,
,,,,,SPR24_016,20,Female,2024-04-08_16h05.31.846,jersey_experiment_5_v0,2023.2.2,Win32,85.47008547,,,,,,,,,,,,,,,,584.8805,586.1744,586.1744,590.3744,return,2.6355,,25.13020833,,,,,,FBP-RB-91.png,0.37,1.2,42,0.5,0,20,20,41,1,,,,,,,,,,,,,,,,,,,,,,,,,,,,,,,,,,,,,,,,
,,,,,SPR24_016,20,Female,2024-04-08_16h05.31.846,jersey_experiment_5_v0,2023.2.2,Win32,85.47008547,,,,,,,,,,,,,,,,590.3745,591.6687,591.6687,593.8923,return,0.6491,,29.16666667,,,,,,FBP-OG-17.png,0.37,1.2,2,0.5,0,21,21,1,1,,,,,,,,,,,,,,,,,,,,,,,,,,,,,,,,,,,,,,,,
,,,,,SPR24_016,20,Female,2024-04-08_16h05.31.846,jersey_experiment_5_v0,2023.2.2,Win32,85.47008547,,,,,,,,,,,,,,,,593.8926,595.1865,595.1865,600.0924,return,0.6675,,50,,,,,,FBP-RB-71.png,0.43,1.2,34,0.5,0,22,22,33,1,,,,,,,,,,,,,,,,,,,,,,,,,,,,,,,,,,,,,,,,
,,,,,SPR24_016,20,Female,2024-04-08_16h05.31.846,jersey_experiment_5_v0,2023.2.2,Win32,85.47008547,,,,,,,,,,,,,,,,600.0926,601.1396,601.1396,607.1046,return,3.7694,,32.55208333,,,,,,FBP-YG-91.png,0.37,1.2,27,0.25,0,23,23,26,1,,,,,,,,,,,,,,,,,,,,,,,,,,,,,,,,,,,,,,,,
,,,,,SPR24_016,20,Female,2024-04-08_16h05.31.846,jersey_experiment_5_v0,2023.2.2,Win32,85.47008547,,,,,,,,,,,,,,,,607.1049,608.152,608.152,610.9635,return,0.9055,,5.46875,,,,,,FBP-PT-91.png,0.35,1.2,56,0.25,0,24,24,55,1,,,,,,,,,,,,,,,,,,,,,,,,,,,,,,,,,,,,,,,,
,,,,,SPR24_016,20,Female,2024-04-08_16h05.31.846,jersey_experiment_5_v0,2023.2.2,Win32,85.47008547,,,,,,,,,,,,,,,,610.9638,612.0107,612.0107,616.4814,return,0.896,,82.68229167,,,,,,FBP-PT-71.png,0.43,1.2,49,0.25,0,25,25,48,1,,,,,,,,,,,,,,,,,,,,,,,,,,,,,,,,,,,,,,,,
,,,,,SPR24_016,20,Female,2024-04-08_16h05.31.846,jersey_experiment_5_v0,2023.2.2,Win32,85.47008547,,,,,,,,,,,,,,,,616.4816,617.5284,617.5284,624.117,return,4.6927,,8.072916667,,,,,,FBP-PT-71.png,0.37,1.2,47,0.25,0,26,26,46,1,,,,,,,,,,,,,,,,,,,,,,,,,,,,,,,,,,,,,,,,
,,,,,SPR24_016,20,Female,2024-04-08_16h05.31.846,jersey_experiment_5_v0,2023.2.2,Win32,85.47008547,,,,,,,,,,,,,,,,624.1172,625.411,625.4111,629.5406,return,1.3558,,75,,,,,,FBP-RB-81.png,0.45,1.2,40,0.5,0,27,27,39,1,,,,,,,,,,,,,,,,,,,,,,,,,,,,,,,,,,,,,,,,
,,,,,SPR24_016,20,Female,2024-04-08_16h05.31.846,jersey_experiment_5_v0,2023.2.2,Win32,85.47008547,,,,,,,,,,,,,,,,629.5408,630.5878,630.5878,633.5879,return,1.7079,,93.09895833,,,,,,FBP-PT-81.png,0.45,1.2,55,0.25,0,28,28,54,1,,,,,,,,,,,,,,,,,,,,,,,,,,,,,,,,,,,,,,,,
,,,,,SPR24_016,20,Female,2024-04-08_16h05.31.846,jersey_experiment_5_v0,2023.2.2,Win32,85.47008547,,,,,,,,,,,,,,,,633.5882,634.8821,634.8822,637.3175,return,0.6452,,50.26041667,,,,,,FBP-OG-19.png,0.4,1.2,13,0.5,0,29,29,12,1,,,,,,,,,,,,,,,,,,,,,,,,,,,,,,,,,,,,,,,,
,,,,,SPR24_016,20,Female,2024-04-08_16h05.31.846,jersey_experiment_5_v0,2023.2.2,Win32,85.47008547,,,,,,,,,,,,,,,,637.3177,638.6115,638.6115,646.4472,return,5.6397,,35.9375,,,,,,FBP-RB-91.png,0.4,1.2,43,0.5,0,30,30,42,1,,,,,,,,,,,,,,,,,,,,,,,,,,,,,,,,,,,,,,,,
,,,,,SPR24_016,20,Female,2024-04-08_16h05.31.846,jersey_experiment_5_v0,2023.2.2,Win32,85.47008547,,,,,,,,,,,,,,,,646.4475,647.7413,647.7413,649.3414,return,0.6294,,50,,,,,,FBP-OG-18.png,0.4,1.2,8,0.5,0,31,31,7,1,,,,,,,,,,,,,,,,,,,,,,,,,,,,,,,,,,,,,,,,
,,,,,SPR24_016,20,Female,2024-04-08_16h05.31.846,jersey_experiment_5_v0,2023.2.2,Win32,85.47008547,,,,,,,,,,,,,,,,649.3416,650.3885,650.3885,653.0709,return,0.9692,,24.86979167,,,,,,FBP-PT-81.png,0.35,1.2,51,0.25,0,32,32,50,1,,,,,,,,,,,,,,,,,,,,,,,,,,,,,,,,,,,,,,,,
,,,,,SPR24_016,20,Female,2024-04-08_16h05.31.846,jersey_experiment_5_v0,2023.2.2,Win32,85.47008547,,,,,,,,,,,,,,,,653.0711,654.3653,654.3653,656.5416,return,0.6527,,49.86979167,,,,,,FBP-OG-17.png,0.43,1.2,4,0.5,0,33,33,3,1,,,,,,,,,,,,,,,,,,,,,,,,,,,,,,,,,,,,,,,,
,,,,,SPR24_016,20,Female,2024-04-08_16h05.31.846,jersey_experiment_5_v0,2023.2.2,Win32,85.47008547,,,,,,,,,,,,,,,,656.5419,657.5888,657.5889,662.4478,return,2.3349,,41.015625,,,,,,FBP-YG-81.png,0.4,1.2,23,0.25,0,34,34,22,1,,,,,,,,,,,,,,,,,,,,,,,,,,,,,,,,,,,,,,,,
,,,,,SPR24_016,20,Female,2024-04-08_16h05.31.846,jersey_experiment_5_v0,2023.2.2,Win32,85.47008547,,,,,,,,,,,,,,,,662.448,663.4949,663.4949,666.7186,return,1.6991,,17.1875,,,,,,FBP-YG-81.png,0.35,1.2,21,0.25,0,35,35,20,1,,,,,,,,,,,,,,,,,,,,,,,,,,,,,,,,,,,,,,,,
,,,,,SPR24_016,20,Female,2024-04-08_16h05.31.846,jersey_experiment_5_v0,2023.2.2,Win32,85.47008547,,,,,,,,,,,,,,,,666.7188,668.0126,668.0127,671.0599,return,0.9052,,80.98958333,,,,,,FBP-OG-18.png,0.45,1.2,10,0.5,0,36,36,9,1,,,,,,,,,,,,,,,,,,,,,,,,,,,,,,,,,,,,,,,,
,,,,,SPR24_016,20,Female,2024-04-08_16h05.31.846,jersey_experiment_5_v0,2023.2.2,Win32,85.47008547,,,,,,,,,,,,,,,,671.0601,672.354,672.3541,680.5779,return,6.4487,,10.546875,,,,,,FBP-RB-71.png,0.35,1.2,31,0.5,0,37,37,30,1,,,,,,,,,,,,,,,,,,,,,,,,,,,,,,,,,,,,,,,,
,,,,,SPR24_016,20,Female,2024-04-08_16h05.31.846,jersey_experiment_5_v0,2023.2.2,Win32,85.47008547,,,,,,,,,,,,,,,,680.5782,681.625,681.625,685.7429,return,0.9578,,58.33333333,,,,,,FBP-YG-71.png,0.4,1.2,18,0.25,0,38,38,17,1,,,,,,,,,,,,,,,,,,,,,,,,,,,,,,,,,,,,,,,,
,,,,,SPR24_016,20,Female,2024-04-08_16h05.31.846,jersey_experiment_5_v0,2023.2.2,Win32,85.47008547,,,,,,,,,,,,,,,,685.7432,686.7899,686.79,693.5902,return,4.658,,15.88541667,,,,,,FBP-YG-91.png,0.35,1.2,26,0.25,0,39,39,25,1,,,,,,,,,,,,,,,,,,,,,,,,,,,,,,,,,,,,,,,,
,,,,,SPR24_016,20,Female,2024-04-08_16h05.31.846,jersey_experiment_5_v0,2023.2.2,Win32,85.47008547,,,,,,,,,,,,,,,,693.5905,694.8844,694.8845,699.0728,return,2.5339,,91.27604167,,,,,,FBP-RB-91.png,0.43,1.2,44,0.5,0,40,40,43,1,,,,,,,,,,,,,,,,,,,,,,,,,,,,,,,,,,,,,,,,
,,,,,SPR24_016,20,Female,2024-04-08_16h05.31.846,jersey_experiment_5_v0,2023.2.2,Win32,85.47008547,,,,,,,,,,,,,,,,699.0731,700.3669,700.3669,702.5905,return,0.5715,,50.13020833,,,,,,FBP-RB-81.png,0.4,1.2,38,0.5,0,41,41,37,1,,,,,,,,,,,,,,,,,,,,,,,,,,,,,,,,,,,,,,,,
,,,,,SPR24_016,20,Female,2024-04-08_16h05.31.846,jersey_experiment_5_v0,2023.2.2,Win32,85.47008547,,,,,,,,,,,,,,,,702.5906,703.8846,703.8846,706.5907,return,0.5478,,67.578125,,,,,,FBP-OG-18.png,0.43,1.2,9,0.5,0,42,42,8,1,,,,,,,,,,,,,,,,,,,,,,,,,,,,,,,,,,,,,,,,
,,,,,SPR24_016,20,Female,2024-04-08_16h05.31.846,jersey_experiment_5_v0,2023.2.2,Win32,85.47008547,,,,,,,,,,,,,,,,706.5909,707.8847,707.8849,709.7906,return,0.6185,,74.609375,,,,,,FBP-OG-19.png,0.45,1.2,15,0.5,0,43,43,14,1,,,,,,,,,,,,,,,,,,,,,,,,,,,,,,,,,,,,,,,,
,,,,,SPR24_016,20,Female,2024-04-08_16h05.31.846,jersey_experiment_5_v0,2023.2.2,Win32,85.47008547,,,,,,,,,,,,,,,,709.7908,711.0849,711.0849,713.0614,return,0.6117,,49.609375,,,,,,FBP-RB-71.png,0.4,1.2,33,0.5,0,44,44,32,1,,,,,,,,,,,,,,,,,,,,,,,,,,,,,,,,,,,,,,,,
,,,,,SPR24_016,20,Female,2024-04-08_16h05.31.846,jersey_experiment_5_v0,2023.2.2,Win32,85.47008547,,,,,,,,,,,,,,,,713.0616,714.1085,714.1086,717.3439,return,1.4261,,19.01041667,,,,,,FBP-YG-71.png,0.35,1.2,16,0.25,0,45,45,15,1,,,,,,,,,,,,,,,,,,,,,,,,,,,,,,,,,,,,,,,,
,,,,,SPR24_016,20,Female,2024-04-08_16h05.31.846,jersey_experiment_5_v0,2023.2.2,Win32,85.47008547,,,,,,,,,,,,,,,,717.3441,718.3914,718.3914,720.8383,return,0.6588,,57.29166667,,,,,,FBP-PT-91.png,0.43,1.2,59,0.25,0,46,46,58,1,,,,,,,,,,,,,,,,,,,,,,,,,,,,,,,,,,,,,,,,
,,,,,SPR24_016,20,Female,2024-04-08_16h05.31.846,jersey_experiment_5_v0,2023.2.2,Win32,85.47008547,,,,,,,,,,,,,,,,720.8385,722.1326,722.1326,724.8856,return,0.6113,,24.73958333,,,,,,FBP-OG-19.png,0.37,1.2,12,0.5,0,47,47,11,1,,,,,,,,,,,,,,,,,,,,,,,,,,,,,,,,,,,,,,,,
,,,,,SPR24_016,20,Female,2024-04-08_16h05.31.846,jersey_experiment_5_v0,2023.2.2,Win32,85.47008547,,,,,,,,,,,,,,,,724.8858,726.1797,726.1797,729.7916,return,2.0999,,57.94270833,,,,,,FBP-OG-17.png,0.45,1.2,5,0.5,0,48,48,4,1,,,,,,,,,,,,,,,,,,,,,,,,,,,,,,,,,,,,,,,,
,,,,,SPR24_016,20,Female,2024-04-08_16h05.31.846,jersey_experiment_5_v0,2023.2.2,Win32,85.47008547,,,,,,,,,,,,,,,,729.7918,730.8386,730.8387,733.5802,return,0.6682,,49.73958333,,,,,,FBP-PT-71.png,0.4,1.2,48,0.25,0,49,49,47,1,,,,,,,,,,,,,,,,,,,,,,,,,,,,,,,,,,,,,,,,
,,,,,SPR24_016,20,Female,2024-04-08_16h05.31.846,jersey_experiment_5_v0,2023.2.2,Win32,85.47008547,,,,,,,,,,,,,,,,733.5803,734.6271,734.6271,736.8977,return,0.6153,,49.73958333,,,,,,FBP-YG-91.png,0.4,1.2,28,0.25,0,50,50,27,1,,,,,,,,,,,,,,,,,,,,,,,,,,,,,,,,,,,,,,,,
,,,,,SPR24_016,20,Female,2024-04-08_16h05.31.846,jersey_experiment_5_v0,2023.2.2,Win32,85.47008547,,,,,,,,,,,,,,,,736.8979,737.9448,737.945,740.8035,return,0.5998,,56.25,,,,,,FBP-YG-91.png,0.43,1.2,29,0.25,0,51,51,28,1,,,,,,,,,,,,,,,,,,,,,,,,,,,,,,,,,,,,,,,,
,,,,,SPR24_016,20,Female,2024-04-08_16h05.31.846,jersey_experiment_5_v0,2023.2.2,Win32,85.47008547,,,,,,,,,,,,,,,,740.8038,741.8509,741.8509,744.945,return,1.5438,,65.234375,,,,,,FBP-PT-71.png,0.45,1.2,50,0.25,0,52,52,49,1,,,,,,,,,,,,,,,,,,,,,,,,,,,,,,,,,,,,,,,,
,,,,,SPR24_016,20,Female,2024-04-08_16h05.31.846,jersey_experiment_5_v0,2023.2.2,Win32,85.47008547,,,,,,,,,,,,,,,,744.9453,745.9922,745.9922,748.3334,return,0.8787,,50,,,,,,FBP-PT-91.png,0.4,1.2,58,0.25,0,53,53,57,1,,,,,,,,,,,,,,,,,,,,,,,,,,,,,,,,,,,,,,,,
,,,,,SPR24_016,20,Female,2024-04-08_16h05.31.846,jersey_experiment_5_v0,2023.2.2,Win32,85.47008547,,,,,,,,,,,,,,,,748.3336,749.6275,749.6275,751.3924,return,0.6637,,56.77083333,,,,,,FBP-OG-19.png,0.43,1.2,14,0.5,0,54,54,13,1,,,,,,,,,,,,,,,,,,,,,,,,,,,,,,,,,,,,,,,,
,,,,,SPR24_016,20,Female,2024-04-08_16h05.31.846,jersey_experiment_5_v0,2023.2.2,Win32,85.47008547,,,,,,,,,,,,,,,,751.3926,752.6866,752.6866,756.816,return,2.6758,,32.16145833,,,,,,FBP-RB-81.png,0.35,1.2,36,0.5,0,55,55,35,1,,,,,,,,,,,,,,,,,,,,,,,,,,,,,,,,,,,,,,,,
,,,,,SPR24_016,20,Female,2024-04-08_16h05.31.846,jersey_experiment_5_v0,2023.2.2,Win32,85.47008547,,,,,,,,,,,,,,,,756.8163,758.1103,758.1104,762.6633,return,3.412,,8.333333333,,,,,,FBP-OG-17.png,0.35,1.2,1,0.5,0,56,56,0,1,,,,,,,,,,,,,,,,,,,,,,,,,,,,,,,,,,,,,,,,
,,,,,SPR24_016,20,Female,2024-04-08_16h05.31.846,jersey_experiment_5_v0,2023.2.2,Win32,85.47008547,,,,,,,,,,,,,,,,762.6635,763.7105,763.7105,766.5459,return,1.2741,,10.15625,,,,,,FBP-YG-71.png,0.37,1.2,17,0.25,0,57,57,16,1,,,,,,,,,,,,,,,,,,,,,,,,,,,,,,,,,,,,,,,,
,,,,,SPR24_016,20,Female,2024-04-08_16h05.31.846,jersey_experiment_5_v0,2023.2.2,Win32,85.47008547,,,,,,,,,,,,,,,,766.5461,767.593,767.593,769.4871,return,0.6043,,25.26041667,,,,,,FBP-PT-81.png,0.4,1.2,53,0.25,0,58,58,52,1,,,,,,,,,,,,,,,,,,,,,,,,,,,,,,,,,,,,,,,,
,,,,,SPR24_016,20,Female,2024-04-08_16h05.31.846,jersey_experiment_5_v0,2023.2.2,Win32,85.47008547,,,,,,,,,,,,,,,,769.4874,770.5343,770.5343,772.9814,return,0.5893,,49.47916667,,,,,,FBP-YG-81.png,0.43,1.2,24,0.25,0,59,59,23,1,,,,,,,,,,,,,,,,,,,,,,,,,,,,,,,,,,,,,,,,
,,,,,SPR24_016,20,Female,2024-04-08_16h05.31.846,jersey_experiment_5_v0,2023.2.2,Win32,85.47008547,,,,,,,,,,,,,,,,,,,,,,,,,,,,,,,,,,,,,,,772.9818,892.9744,,,,,,,,,,,,,,,,,,,,,,,,,,,,,,,,,,,,,,
,,,,,SPR24_016,20,Female,2024-04-08_16h05.31.846,jersey_experiment_5_v0,2023.2.2,Win32,85.47008547,,,,,,,,,,,,,,,,,,,,,,,,,,,,,,,,,,,,,,,,,892.9744,912.3283,return,19.3416,,,,,,,,,,,,,,,,,,,,,,,,,,,,,,,,,,
,,,,,SPR24_016,20,Female,2024-04-08_16h05.31.846,jersey_experiment_5_v0,2023.2.2,Win32,85.47008547,,,,,,,,,,,,,,,,912.3342,913.3867,913.3868,922.9403,return,5.9368,,25,,,,,,FBP-OG-91.png,0.35,1.2,11,0.25,,,,,,,,,,,,,0,0,0,10,1,,,,,,,,,,,,,,,,,,,,,,,,,,,,
,,,,,SPR24_016,20,Female,2024-04-08_16h05.31.846,jersey_experiment_5_v0,2023.2.2,Win32,85.47008547,,,,,,,,,,,,,,,,922.9449,924.2459,924.2459,926.3874,return,0.661,,25,,,,,,FBP-YG-18.png,0.35,1.2,21,0.5,,,,,,,,,,,,,0,1,1,20,1,,,,,,,,,,,,,,,,,,,,,,,,,,,,
,,,,,SPR24_016,20,Female,2024-04-08_16h05.31.846,jersey_experiment_5_v0,2023.2.2,Win32,85.47008547,,,,,,,,,,,,,,,,926.3877,927.6812,927.6813,931.8696,return,2.6664,,31.90104167,,,,,,FBP-PT-18.png,0.35,1.2,51,0.5,,,,,,,,,,,,,0,2,2,50,1,,,,,,,,,,,,,,,,,,,,,,,,,,,,
,,,,,SPR24_016,20,Female,2024-04-08_16h05.31.846,jersey_experiment_5_v0,2023.2.2,Win32,85.47008547,,,,,,,,,,,,,,,,931.8699,932.9169,932.917,936.3875,return,1.1314,,35.67708333,,,,,,FBP-OG-71.png,0.37,1.2,2,0.25,,,,,,,,,,,,,0,3,3,1,1,,,,,,,,,,,,,,,,,,,,,,,,,,,,
,,,,,SPR24_016,20,Female,2024-04-08_16h05.31.846,jersey_experiment_5_v0,2023.2.2,Win32,85.47008547,,,,,,,,,,,,,,,,936.3877,937.6817,937.6817,940.8229,return,0.7672,,91.796875,,,,,,FBP-PT-17.png,0.45,1.2,50,0.5,,,,,,,,,,,,,0,4,4,49,1,,,,,,,,,,,,,,,,,,,,,,,,,,,,
,,,,,SPR24_016,20,Female,2024-04-08_16h05.31.846,jersey_experiment_5_v0,2023.2.2,Win32,85.47008547,,,,,,,,,,,,,,,,940.8232,942.1172,942.1172,946.2585,return,1.2473,,44.27083333,,,,,,FBP-PT-19.png,0.37,1.2,57,0.5,,,,,,,,,,,,,0,5,5,56,1,,,,,,,,,,,,,,,,,,,,,,,,,,,,
,,,,,SPR24_016,20,Female,2024-04-08_16h05.31.846,jersey_experiment_5_v0,2023.2.2,Win32,85.47008547,,,,,,,,,,,,,,,,946.2587,947.5527,947.5528,950.6469,return,0.6353,,35.28645833,,,,,,FBP-YG-19.png,0.37,1.2,27,0.5,,,,,,,,,,,,,0,6,6,26,1,,,,,,,,,,,,,,,,,,,,,,,,,,,,
,,,,,SPR24_016,20,Female,2024-04-08_16h05.31.846,jersey_experiment_5_v0,2023.2.2,Win32,85.47008547,,,,,,,,,,,,,,,,950.6471,951.6941,951.6941,959.5414,return,5.8828,,91.92708333,,,,,,FBP-OG-91.png,0.45,1.2,15,0.25,,,,,,,,,,,,,0,7,7,14,1,,,,,,,,,,,,,,,,,,,,,,,,,,,,
,,,,,SPR24_016,20,Female,2024-04-08_16h05.31.846,jersey_experiment_5_v0,2023.2.2,Win32,85.47008547,,,,,,,,,,,,,,,,959.5416,960.8354,960.8355,963.4708,return,0.6889,,50.13020833,,,,,,FBP-YG-17.png,0.4,1.2,18,0.5,,,,,,,,,,,,,0,8,8,17,1,,,,,,,,,,,,,,,,,,,,,,,,,,,,
,,,,,SPR24_016,20,Female,2024-04-08_16h05.31.846,jersey_experiment_5_v0,2023.2.2,Win32,85.47008547,,,,,,,,,,,,,,,,963.4711,964.765,964.7651,967.7886,return,0.9935,,49.73958333,,,,,,FBP-YG-18.png,0.4,1.2,23,0.5,,,,,,,,,,,,,0,9,9,22,1,,,,,,,,,,,,,,,,,,,,,,,,,,,,
,,,,,SPR24_016,20,Female,2024-04-08_16h05.31.846,jersey_experiment_5_v0,2023.2.2,Win32,85.47008547,,,,,,,,,,,,,,,,967.7889,969.083,969.0832,973.3421,return,2.4667,,50,,,,,,FBP-YG-17.png,0.43,1.2,19,0.5,,,,,,,,,,,,,0,10,10,18,1,,,,,,,,,,,,,,,,,,,,,,,,,,,,
,,,,,SPR24_016,20,Female,2024-04-08_16h05.31.846,jersey_experiment_5_v0,2023.2.2,Win32,85.47008547,,,,,,,,,,,,,,,,973.3423,974.3888,974.3889,977.4949,return,0.8943,,65.88541667,,,,,,FBP-RB-17.png,0.43,1.2,34,0.25,,,,,,,,,,,,,0,11,11,33,1,,,,,,,,,,,,,,,,,,,,,,,,,,,,
,,,,,SPR24_016,20,Female,2024-04-08_16h05.31.846,jersey_experiment_5_v0,2023.2.2,Win32,85.47008547,,,,,,,,,,,,,,,,977.4951,978.542,978.5421,980.9186,return,0.6732,,66.14583333,,,,,,FBP-RB-18.png,0.45,1.2,40,0.25,,,,,,,,,,,,,0,12,12,39,1,,,,,,,,,,,,,,,,,,,,,,,,,,,,
,,,,,SPR24_016,20,Female,2024-04-08_16h05.31.846,jersey_experiment_5_v0,2023.2.2,Win32,85.47008547,,,,,,,,,,,,,,,,980.9189,982.2128,982.2129,986.2717,return,2.5937,,81.640625,,,,,,FBP-PT-19.png,0.45,1.2,60,0.5,,,,,,,,,,,,,0,13,13,59,1,,,,,,,,,,,,,,,,,,,,,,,,,,,,
,,,,,SPR24_016,20,Female,2024-04-08_16h05.31.846,jersey_experiment_5_v0,2023.2.2,Win32,85.47008547,,,,,,,,,,,,,,,,986.2719,987.566,987.566,989.2132,return,0.6528,,75.13020833,,,,,,FBP-PT-18.png,0.43,1.2,54,0.5,,,,,,,,,,,,,0,14,14,53,1,,,,,,,,,,,,,,,,,,,,,,,,,,,,
,,,,,SPR24_016,20,Female,2024-04-08_16h05.31.846,jersey_experiment_5_v0,2023.2.2,Win32,85.47008547,,,,,,,,,,,,,,,,989.2134,990.2603,990.2603,992.8013,return,0.8254,,50.26041667,,,,,,FBP-OG-91.png,0.4,1.2,13,0.25,,,,,,,,,,,,,0,15,15,12,1,,,,,,,,,,,,,,,,,,,,,,,,,,,,
,,,,,SPR24_016,20,Female,2024-04-08_16h05.31.846,jersey_experiment_5_v0,2023.2.2,Win32,85.47008547,,,,,,,,,,,,,,,,992.8016,993.8486,993.8487,995.4249,return,0.7576,,50.26041667,,,,,,FBP-RB-18.png,0.4,1.2,38,0.25,,,,,,,,,,,,,0,16,16,37,1,,,,,,,,,,,,,,,,,,,,,,,,,,,,
,,,,,SPR24_016,20,Female,2024-04-08_16h05.31.846,jersey_experiment_5_v0,2023.2.2,Win32,85.47008547,,,,,,,,,,,,,,,,995.425,996.7191,996.7192,998.884,return,0.5895,,50,,,,,,FBP-YG-19.png,0.43,1.2,29,0.5,,,,,,,,,,,,,0,17,17,28,1,,,,,,,,,,,,,,,,,,,,,,,,,,,,
,,,,,SPR24_016,20,Female,2024-04-08_16h05.31.846,jersey_experiment_5_v0,2023.2.2,Win32,85.47008547,,,,,,,,,,,,,,,,998.8842,1000.1781,1000.1781,1001.3312,return,0.6002,,50,,,,,,FBP-YG-19.png,0.4,1.2,28,0.5,,,,,,,,,,,,,0,18,18,27,1,,,,,,,,,,,,,,,,,,,,,,,,,,,,
,,,,,SPR24_016,20,Female,2024-04-08_16h05.31.846,jersey_experiment_5_v0,2023.2.2,Win32,85.47008547,,,,,,,,,,,,,,,,1001.3314,1002.6252,1002.6253,1006.402,return,2.7064,,32.421875,,,,,,FBP-PT-18.png,0.37,1.2,52,0.5,,,,,,,,,,,,,0,19,19,51,1,,,,,,,,,,,,,,,,,,,,,,,,,,,,
,,,,,SPR24_016,20,Female,2024-04-08_16h05.31.846,jersey_experiment_5_v0,2023.2.2,Win32,85.47008547,,,,,,,,,,,,,,,,1006.4022,1007.6962,1007.6962,1010.1904,return,0.9231,,25.26041667,,,,,,FBP-YG-19.png,0.35,1.2,26,0.5,,,,,,,,,,,,,0,20,20,25,1,,,,,,,,,,,,,,,,,,,,,,,,,,,,
,,,,,SPR24_016,20,Female,2024-04-08_16h05.31.846,jersey_experiment_5_v0,2023.2.2,Win32,85.47008547,,,,,,,,,,,,,,,,1010.1905,1011.2374,1011.2374,1016.7201,return,2.6971,,41.796875,,,,,,FBP-RB-18.png,0.37,1.2,37,0.25,,,,,,,,,,,,,0,21,21,36,1,,,,,,,,,,,,,,,,,,,,,,,,,,,,
,,,,,SPR24_016,20,Female,2024-04-08_16h05.31.846,jersey_experiment_5_v0,2023.2.2,Win32,85.47008547,,,,,,,,,,,,,,,,1016.7203,1017.7671,1017.7672,1020.3906,return,1.318,,18.75,,,,,,FBP-RB-17.png,0.35,1.2,31,0.25,,,,,,,,,,,,,0,22,22,30,1,,,,,,,,,,,,,,,,,,,,,,,,,,,,
,,,,,SPR24_016,20,Female,2024-04-08_16h05.31.846,jersey_experiment_5_v0,2023.2.2,Win32,85.47008547,,,,,,,,,,,,,,,,1020.3908,1021.6848,1021.6849,1028.0851,return,4.5985,,44.01041667,,,,,,FBP-PT-17.png,0.37,1.2,47,0.5,,,,,,,,,,,,,0,23,23,46,1,,,,,,,,,,,,,,,,,,,,,,,,,,,,
,,,,,SPR24_016,20,Female,2024-04-08_16h05.31.846,jersey_experiment_5_v0,2023.2.2,Win32,85.47008547,,,,,,,,,,,,,,,,1028.0854,1029.3793,1029.3793,1033.0854,return,0.843,,80.859375,,,,,,FBP-PT-19.png,0.43,1.2,59,0.5,,,,,,,,,,,,,0,24,24,58,1,,,,,,,,,,,,,,,,,,,,,,,,,,,,
,,,,,SPR24_016,20,Female,2024-04-08_16h05.31.846,jersey_experiment_5_v0,2023.2.2,Win32,85.47008547,,,,,,,,,,,,,,,,1033.0857,1034.1323,1034.1324,1036.1559,return,0.5742,,89.0625,,,,,,FBP-RB-19.png,0.43,1.2,44,0.25,,,,,,,,,,,,,0,25,25,43,1,,,,,,,,,,,,,,,,,,,,,,,,,,,,
,,,,,SPR24_016,20,Female,2024-04-08_16h05.31.846,jersey_experiment_5_v0,2023.2.2,Win32,85.47008547,,,,,,,,,,,,,,,,1036.1562,1037.2034,1037.2034,1040.5326,return,0.7166,,29.81770833,,,,,,FBP-RB-17.png,0.37,1.2,32,0.25,,,,,,,,,,,,,0,26,26,31,1,,,,,,,,,,,,,,,,,,,,,,,,,,,,
,,,,,SPR24_016,20,Female,2024-04-08_16h05.31.846,jersey_experiment_5_v0,2023.2.2,Win32,85.47008547,,,,,,,,,,,,,,,,1040.5329,1041.5797,1041.5797,1043.8388,return,1.0395,,14.71354167,,,,,,FBP-OG-81.png,0.35,1.2,6,0.25,,,,,,,,,,,,,0,27,27,5,1,,,,,,,,,,,,,,,,,,,,,,,,,,,,
,,,,,SPR24_016,20,Female,2024-04-08_16h05.31.846,jersey_experiment_5_v0,2023.2.2,Win32,85.47008547,,,,,,,,,,,,,,,,1043.839,1044.8857,1044.8857,1050.7565,return,2.3765,,66.14583333,,,,,,FBP-OG-71.png,0.43,1.2,4,0.25,,,,,,,,,,,,,0,28,28,3,1,,,,,,,,,,,,,,,,,,,,,,,,,,,,
,,,,,SPR24_016,20,Female,2024-04-08_16h05.31.846,jersey_experiment_5_v0,2023.2.2,Win32,85.47008547,,,,,,,,,,,,,,,,1050.7567,1052.0508,1052.0508,1054.7685,return,0.7343,,25,,,,,,FBP-YG-17.png,0.35,1.2,16,0.5,,,,,,,,,,,,,0,29,29,15,1,,,,,,,,,,,,,,,,,,,,,,,,,,,,
,,,,,SPR24_016,20,Female,2024-04-08_16h05.31.846,jersey_experiment_5_v0,2023.2.2,Win32,85.47008547,,,,,,,,,,,,,,,,1054.7687,1055.8155,1055.8155,1058.0627,return,0.6889,,33.46354167,,,,,,FBP-OG-81.png,0.37,1.2,7,0.25,,,,,,,,,,,,,0,30,30,6,1,,,,,,,,,,,,,,,,,,,,,,,,,,,,
,,,,,SPR24_016,20,Female,2024-04-08_16h05.31.846,jersey_experiment_5_v0,2023.2.2,Win32,85.47008547,,,,,,,,,,,,,,,,1058.063,1059.1098,1059.1099,1062.0628,return,1.4991,,33.33333333,,,,,,FBP-OG-91.png,0.37,1.2,12,0.25,,,,,,,,,,,,,0,31,31,11,1,,,,,,,,,,,,,,,,,,,,,,,,,,,,
,,,,,SPR24_016,20,Female,2024-04-08_16h05.31.846,jersey_experiment_5_v0,2023.2.2,Win32,85.47008547,,,,,,,,,,,,,,,,1062.063,1063.357,1063.3571,1068.2748,return,2.7657,,25.13020833,,,,,,FBP-PT-19.png,0.35,1.2,56,0.5,,,,,,,,,,,,,0,32,32,55,1,,,,,,,,,,,,,,,,,,,,,,,,,,,,
,,,,,SPR24_016,20,Female,2024-04-08_16h05.31.846,jersey_experiment_5_v0,2023.2.2,Win32,85.47008547,,,,,,,,,,,,,,,,1068.275,1069.3222,1069.3222,1071.5337,return,0.5697,,49.609375,,,,,,FBP-OG-81.png,0.4,1.2,8,0.25,,,,,,,,,,,,,0,33,33,7,1,,,,,,,,,,,,,,,,,,,,,,,,,,,,
,,,,,SPR24_016,20,Female,2024-04-08_16h05.31.846,jersey_experiment_5_v0,2023.2.2,Win32,85.47008547,,,,,,,,,,,,,,,,1071.5339,1072.5808,1072.5809,1075.84,return,0.7566,,74.86979167,,,,,,FBP-RB-17.png,0.45,1.2,35,0.25,,,,,,,,,,,,,0,34,34,34,1,,,,,,,,,,,,,,,,,,,,,,,,,,,,
,,,,,SPR24_016,20,Female,2024-04-08_16h05.31.846,jersey_experiment_5_v0,2023.2.2,Win32,85.47008547,,,,,,,,,,,,,,,,1075.8403,1077.134,1077.134,1079.9811,return,0.6651,,31.11979167,,,,,,FBP-PT-17.png,0.35,1.2,46,0.5,,,,,,,,,,,,,0,35,35,45,1,,,,,,,,,,,,,,,,,,,,,,,,,,,,
,,,,,SPR24_016,20,Female,2024-04-08_16h05.31.846,jersey_experiment_5_v0,2023.2.2,Win32,85.47008547,,,,,,,,,,,,,,,,1079.9813,1081.0282,1081.0283,1088.2639,return,3.5199,,66.796875,,,,,,FBP-RB-18.png,0.43,1.2,39,0.25,,,,,,,,,,,,,0,36,36,38,1,,,,,,,,,,,,,,,,,,,,,,,,,,,,
,,,,,SPR24_016,20,Female,2024-04-08_16h05.31.846,jersey_experiment_5_v0,2023.2.2,Win32,85.47008547,,,,,,,,,,,,,,,,1088.2642,1089.5579,1089.5579,1091.6641,return,0.829,,50,,,,,,FBP-PT-18.png,0.4,1.2,53,0.5,,,,,,,,,,,,,0,37,37,52,1,,,,,,,,,,,,,,,,,,,,,,,,,,,,
,,,,,SPR24_016,20,Female,2024-04-08_16h05.31.846,jersey_experiment_5_v0,2023.2.2,Win32,85.47008547,,,,,,,,,,,,,,,,1091.6643,1092.711,1092.7111,1095.6169,return,0.7574,,43.48958333,,,,,,FBP-RB-19.png,0.4,1.2,43,0.25,,,,,,,,,,,,,0,38,38,42,1,,,,,,,,,,,,,,,,,,,,,,,,,,,,
,,,,,SPR24_016,20,Female,2024-04-08_16h05.31.846,jersey_experiment_5_v0,2023.2.2,Win32,85.47008547,,,,,,,,,,,,,,,,1095.6172,1096.9112,1096.9112,1099.876,return,1.8603,,58.33333333,,,,,,FBP-YG-18.png,0.43,1.2,24,0.5,,,,,,,,,,,,,0,39,39,23,1,,,,,,,,,,,,,,,,,,,,,,,,,,,,
,,,,,SPR24_016,20,Female,2024-04-08_16h05.31.846,jersey_experiment_5_v0,2023.2.2,Win32,85.47008547,,,,,,,,,,,,,,,,1099.8763,1101.1703,1101.1703,1103.7349,return,1.4114,,63.41145833,,,,,,FBP-PT-17.png,0.43,1.2,49,0.5,,,,,,,,,,,,,0,40,40,48,1,,,,,,,,,,,,,,,,,,,,,,,,,,,,
,,,,,SPR24_016,20,Female,2024-04-08_16h05.31.846,jersey_experiment_5_v0,2023.2.2,Win32,85.47008547,,,,,,,,,,,,,,,,1103.7351,1105.0292,1105.0292,1107.0881,return,0.8171,,50.13020833,,,,,,FBP-PT-19.png,0.4,1.2,58,0.5,,,,,,,,,,,,,0,41,41,57,1,,,,,,,,,,,,,,,,,,,,,,,,,,,,
,,,,,SPR24_016,20,Female,2024-04-08_16h05.31.846,jersey_experiment_5_v0,2023.2.2,Win32,85.47008547,,,,,,,,,,,,,,,,1107.0883,1108.1351,1108.1351,1111.1704,return,0.7795,,29.42708333,,,,,,FBP-RB-18.png,0.35,1.2,36,0.25,,,,,,,,,,,,,0,42,42,35,1,,,,,,,,,,,,,,,,,,,,,,,,,,,,
,,,,,SPR24_016,20,Female,2024-04-08_16h05.31.846,jersey_experiment_5_v0,2023.2.2,Win32,85.47008547,,,,,,,,,,,,,,,,1111.1706,1112.2175,1112.2176,1115.1237,return,0.6607,,38.15104167,,,,,,FBP-OG-71.png,0.4,1.2,3,0.25,,,,,,,,,,,,,0,43,43,2,1,,,,,,,,,,,,,,,,,,,,,,,,,,,,
,,,,,SPR24_016,20,Female,2024-04-08_16h05.31.846,jersey_experiment_5_v0,2023.2.2,Win32,85.47008547,,,,,,,,,,,,,,,,1115.1239,1116.1708,1116.1708,1118.8768,return,1.0561,,32.421875,,,,,,FBP-OG-71.png,0.35,1.2,1,0.25,,,,,,,,,,,,,0,44,44,0,1,,,,,,,,,,,,,,,,,,,,,,,,,,,,
,,,,,SPR24_016,20,Female,2024-04-08_16h05.31.846,jersey_experiment_5_v0,2023.2.2,Win32,85.47008547,,,,,,,,,,,,,,,,1118.8771,1120.1708,1120.1708,1123.5003,return,0.9735,,34.89583333,,,,,,FBP-YG-17.png,0.37,1.2,17,0.5,,,,,,,,,,,,,0,45,45,16,1,,,,,,,,,,,,,,,,,,,,,,,,,,,,
,,,,,SPR24_016,20,Female,2024-04-08_16h05.31.846,jersey_experiment_5_v0,2023.2.2,Win32,85.47008547,,,,,,,,,,,,,,,,1123.5006,1124.7946,1124.7947,1128.8065,return,2.3672,,34.11458333,,,,,,FBP-YG-18.png,0.37,1.2,22,0.5,,,,,,,,,,,,,0,46,46,21,1,,,,,,,,,,,,,,,,,,,,,,,,,,,,
,,,,,SPR24_016,20,Female,2024-04-08_16h05.31.846,jersey_experiment_5_v0,2023.2.2,Win32,85.47008547,,,,,,,,,,,,,,,,1128.8067,1129.8536,1129.8536,1133.3008,return,1.7084,,64.97395833,,,,,,FBP-OG-81.png,0.45,1.2,10,0.25,,,,,,,,,,,,,0,47,47,9,1,,,,,,,,,,,,,,,,,,,,,,,,,,,,
,,,,,SPR24_016,20,Female,2024-04-08_16h05.31.846,jersey_experiment_5_v0,2023.2.2,Win32,85.47008547,,,,,,,,,,,,,,,,1133.3009,1134.3479,1134.3479,1138.9834,return,2.4237,,25.52083333,,,,,,FBP-RB-19.png,0.35,1.2,41,0.25,,,,,,,,,,,,,0,48,48,40,1,,,,,,,,,,,,,,,,,,,,,,,,,,,,
,,,,,SPR24_016,20,Female,2024-04-08_16h05.31.846,jersey_experiment_5_v0,2023.2.2,Win32,85.47008547,,,,,,,,,,,,,,,,1138.9837,1140.2776,1140.2776,1146.1483,return,3.5536,,66.92708333,,,,,,FBP-PT-18.png,0.45,1.2,55,0.5,,,,,,,,,,,,,0,49,49,54,1,,,,,,,,,,,,,,,,,,,,,,,,,,,,
,,,,,SPR24_016,20,Female,2024-04-08_16h05.31.846,jersey_experiment_5_v0,2023.2.2,Win32,85.47008547,,,,,,,,,,,,,,,,1146.1484,1147.4426,1147.4426,1149.4073,return,0.6748,,49.86979167,,,,,,FBP-PT-17.png,0.4,1.2,48,0.5,,,,,,,,,,,,,0,50,50,47,1,,,,,,,,,,,,,,,,,,,,,,,,,,,,
,,,,,SPR24_016,20,Female,2024-04-08_16h05.31.846,jersey_experiment_5_v0,2023.2.2,Win32,85.47008547,,,,,,,,,,,,,,,,1149.4075,1150.7014,1150.7014,1153.7957,return,1.5771,,66.66666667,,,,,,FBP-YG-18.png,0.45,1.2,25,0.5,,,,,,,,,,,,,0,51,51,24,1,,,,,,,,,,,,,,,,,,,,,,,,,,,,
,,,,,SPR24_016,20,Female,2024-04-08_16h05.31.846,jersey_experiment_5_v0,2023.2.2,Win32,85.47008547,,,,,,,,,,,,,,,,1153.7959,1154.8428,1154.8428,1157.1841,return,0.6386,,32.29166667,,,,,,FBP-RB-19.png,0.37,1.2,42,0.25,,,,,,,,,,,,,0,52,52,41,1,,,,,,,,,,,,,,,,,,,,,,,,,,,,
,,,,,SPR24_016,20,Female,2024-04-08_16h05.31.846,jersey_experiment_5_v0,2023.2.2,Win32,85.47008547,,,,,,,,,,,,,,,,1157.1844,1158.4784,1158.4784,1160.3017,return,0.5962,,66.27604167,,,,,,FBP-YG-19.png,0.45,1.2,30,0.5,,,,,,,,,,,,,0,53,53,29,1,,,,,,,,,,,,,,,,,,,,,,,,,,,,
,,,,,SPR24_016,20,Female,2024-04-08_16h05.31.846,jersey_experiment_5_v0,2023.2.2,Win32,85.47008547,,,,,,,,,,,,,,,,1160.3019,1161.596,1161.596,1162.9607,return,0.5458,,67.578125,,,,,,FBP-YG-17.png,0.45,1.2,20,0.5,,,,,,,,,,,,,0,54,54,19,1,,,,,,,,,,,,,,,,,,,,,,,,,,,,
,,,,,SPR24_016,20,Female,2024-04-08_16h05.31.846,jersey_experiment_5_v0,2023.2.2,Win32,85.47008547,,,,,,,,,,,,,,,,1162.9609,1164.0079,1164.0079,1166.055,return,0.6359,,50.390625,,,,,,FBP-RB-17.png,0.4,1.2,33,0.25,,,,,,,,,,,,,0,55,55,32,1,,,,,,,,,,,,,,,,,,,,,,,,,,,,
,,,,,SPR24_016,20,Female,2024-04-08_16h05.31.846,jersey_experiment_5_v0,2023.2.2,Win32,85.47008547,,,,,,,,,,,,,,,,1166.0552,1167.1021,1167.1022,1169.7023,return,1.4965,,54.55729167,,,,,,FBP-OG-81.png,0.43,1.2,9,0.25,,,,,,,,,,,,,0,56,56,8,1,,,,,,,,,,,,,,,,,,,,,,,,,,,,
,,,,,SPR24_016,20,Female,2024-04-08_16h05.31.846,jersey_experiment_5_v0,2023.2.2,Win32,85.47008547,,,,,,,,,,,,,,,,1169.7025,1170.7491,1170.7492,1172.8199,return,0.6233,,60.546875,,,,,,FBP-OG-91.png,0.43,1.2,14,0.25,,,,,,,,,,,,,0,57,57,13,1,,,,,,,,,,,,,,,,,,,,,,,,,,,,
,,,,,SPR24_016,20,Female,2024-04-08_16h05.31.846,jersey_experiment_5_v0,2023.2.2,Win32,85.47008547,,,,,,,,,,,,,,,,1172.8201,1173.8671,1173.8671,1176.2319,return,0.4706,,74.609375,,,,,,FBP-OG-71.png,0.45,1.2,5,0.25,,,,,,,,,,,,,0,58,58,4,1,,,,,,,,,,,,,,,,,,,,,,,,,,,,
,,,,,SPR24_016,20,Female,2024-04-08_16h05.31.846,jersey_experiment_5_v0,2023.2.2,Win32,85.47008547,,,,,,,,,,,,,,,,1176.2321,1177.2791,1177.2791,1179.726,return,0.4759,,69.66145833,,,,,,FBP-RB-19.png,0.45,1.2,45,0.25,,,,,,,,,,,,,0,59,59,44,1,,,,,,,,,,,,,,,,,,,,,,,,,,,,
,,,,,SPR24_016,20,Female,2024-04-08_16h05.31.846,jersey_experiment_5_v0,2023.2.2,Win32,85.47008547,,,,,,,,,,,,,,,,1179.7279,1180.773,1180.7732,1182.7025,return,0.4538,,49.609375,,,,,,FBP-RB-71.png,0.4,1.2,33,0.25,,,,,,,,,,,,,,,,,,0,0,0,32,1,,,,,,,,,,,,,,,,,,,,,,,
,,,,,SPR24_016,20,Female,2024-04-08_16h05.31.846,jersey_experiment_5_v0,2023.2.2,Win32,85.47008547,,,,,,,,,,,,,,,,1182.7028,1183.7499,1183.7499,1187.0086,return,0.461,,49.73958333,,,,,,FBP-OG-19.png,0.43,1.2,14,0.25,,,,,,,,,,,,,,,,,,0,1,1,13,1,,,,,,,,,,,,,,,,,,,,,,,
,,,,,SPR24_016,20,Female,2024-04-08_16h05.31.846,jersey_experiment_5_v0,2023.2.2,Win32,85.47008547,,,,,,,,,,,,,,,,1187.0088,1188.0558,1188.0558,1189.9735,return,0.612,,57.29166667,,,,,,FBP-OG-18.png,0.43,1.2,9,0.25,,,,,,,,,,,,,,,,,,0,2,2,8,1,,,,,,,,,,,,,,,,,,,,,,,
,,,,,SPR24_016,20,Female,2024-04-08_16h05.31.846,jersey_experiment_5_v0,2023.2.2,Win32,85.47008547,,,,,,,,,,,,,,,,1189.9736,1191.2679,1191.2679,1195.8561,return,1.5214,,41.53645833,,,,,,FBP-PT-91.png,0.37,1.2,57,0.5,,,,,,,,,,,,,,,,,,0,3,3,56,1,,,,,,,,,,,,,,,,,,,,,,,
,,,,,SPR24_016,20,Female,2024-04-08_16h05.31.846,jersey_experiment_5_v0,2023.2.2,Win32,85.47008547,,,,,,,,,,,,,,,,1195.8564,1197.1503,1197.1504,1199.28,return,0.7803,,24.73958333,,,,,,FBP-YG-71.png,0.37,1.2,17,0.5,,,,,,,,,,,,,,,,,,0,4,4,16,1,,,,,,,,,,,,,,,,,,,,,,,
,,,,,SPR24_016,20,Female,2024-04-08_16h05.31.846,jersey_experiment_5_v0,2023.2.2,Win32,85.47008547,,,,,,,,,,,,,,,,1199.2803,1200.3269,1200.3269,1202.5505,return,0.4938,,29.03645833,,,,,,FBP-RB-81.png,0.43,1.2,39,0.25,,,,,,,,,,,,,,,,,,0,5,5,38,1,,,,,,,,,,,,,,,,,,,,,,,
,,,,,SPR24_016,20,Female,2024-04-08_16h05.31.846,jersey_experiment_5_v0,2023.2.2,Win32,85.47008547,,,,,,,,,,,,,,,,1202.5508,1203.8448,1203.8448,1207.5978,return,1.9939,,57.29166667,,,,,,FBP-PT-71.png,0.45,1.2,50,0.5,,,,,,,,,,,,,,,,,,0,6,6,49,1,,,,,,,,,,,,,,,,,,,,,,,
,,,,,SPR24_016,20,Female,2024-04-08_16h05.31.846,jersey_experiment_5_v0,2023.2.2,Win32,85.47008547,,,,,,,,,,,,,,,,1207.598,1208.8919,1208.8919,1211.4097,return,1.0389,,29.81770833,,,,,,FBP-PT-71.png,0.35,1.2,46,0.5,,,,,,,,,,,,,,,,,,0,7,7,45,1,,,,,,,,,,,,,,,,,,,,,,,
,,,,,SPR24_016,20,Female,2024-04-08_16h05.31.846,jersey_experiment_5_v0,2023.2.2,Win32,85.47008547,,,,,,,,,,,,,,,,1211.4099,1212.4569,1212.4569,1214.6921,return,0.4843,,58.203125,,,,,,FBP-OG-19.png,0.45,1.2,15,0.25,,,,,,,,,,,,,,,,,,0,8,8,14,1,,,,,,,,,,,,,,,,,,,,,,,
,,,,,SPR24_016,20,Female,2024-04-08_16h05.31.846,jersey_experiment_5_v0,2023.2.2,Win32,85.47008547,,,,,,,,,,,,,,,,1214.6923,1215.9864,1215.9864,1219.551,return,1.2302,,35.80729167,,,,,,FBP-YG-81.png,0.4,1.2,23,0.5,,,,,,,,,,,,,,,,,,0,9,9,22,1,,,,,,,,,,,,,,,,,,,,,,,
,,,,,SPR24_016,20,Female,2024-04-08_16h05.31.846,jersey_experiment_5_v0,2023.2.2,Win32,85.47008547,,,,,,,,,,,,,,,,1219.5512,1220.8452,1220.8453,1222.9748,return,1.148,,19.53125,,,,,,FBP-YG-91.png,0.37,1.2,27,0.5,,,,,,,,,,,,,,,,,,0,10,10,26,1,,,,,,,,,,,,,,,,,,,,,,,
,,,,,SPR24_016,20,Female,2024-04-08_16h05.31.846,jersey_experiment_5_v0,2023.2.2,Win32,85.47008547,,,,,,,,,,,,,,,,1222.9751,1224.2693,1224.2694,1225.4926,return,0.4861,,20.96354167,,,,,,FBP-PT-91.png,0.35,1.2,56,0.5,,,,,,,,,,,,,,,,,,0,11,11,55,1,,,,,,,,,,,,,,,,,,,,,,,
,,,,,SPR24_016,20,Female,2024-04-08_16h05.31.846,jersey_experiment_5_v0,2023.2.2,Win32,85.47008547,,,,,,,,,,,,,,,,1225.4928,1226.7868,1226.7868,1228.422,return,0.9647,,20.3125,,,,,,FBP-PT-81.png,0.37,1.2,52,0.5,,,,,,,,,,,,,,,,,,0,12,12,51,1,,,,,,,,,,,,,,,,,,,,,,,
,,,,,SPR24_016,20,Female,2024-04-08_16h05.31.846,jersey_experiment_5_v0,2023.2.2,Win32,85.47008547,,,,,,,,,,,,,,,,1228.4223,1229.7161,1229.7162,1233.1399,return,1.0349,,56.77083333,,,,,,FBP-PT-91.png,0.45,1.2,60,0.5,,,,,,,,,,,,,,,,,,0,13,13,59,1,,,,,,,,,,,,,,,,,,,,,,,
,,,,,SPR24_016,20,Female,2024-04-08_16h05.31.846,jersey_experiment_5_v0,2023.2.2,Win32,85.47008547,,,,,,,,,,,,,,,,1233.1402,1234.1869,1234.187,1237.3283,return,2.2522,,64.0625,,,,,,FBP-OG-17.png,0.45,1.2,5,0.25,,,,,,,,,,,,,,,,,,0,14,14,4,1,,,,,,,,,,,,,,,,,,,,,,,
,,,,,SPR24_016,20,Female,2024-04-08_16h05.31.846,jersey_experiment_5_v0,2023.2.2,Win32,85.47008547,,,,,,,,,,,,,,,,1237.3285,1238.3753,1238.3754,1241.2815,return,0.6612,,25.26041667,,,,,,FBP-RB-81.png,0.35,1.2,36,0.25,,,,,,,,,,,,,,,,,,0,15,15,35,1,,,,,,,,,,,,,,,,,,,,,,,
,,,,,SPR24_016,20,Female,2024-04-08_16h05.31.846,jersey_experiment_5_v0,2023.2.2,Win32,85.47008547,,,,,,,,,,,,,,,,1241.2818,1242.5755,1242.5755,1246.2697,return,1.4785,,69.140625,,,,,,FBP-PT-81.png,0.45,1.2,55,0.5,,,,,,,,,,,,,,,,,,0,16,16,54,1,,,,,,,,,,,,,,,,,,,,,,,
,,,,,SPR24_016,20,Female,2024-04-08_16h05.31.846,jersey_experiment_5_v0,2023.2.2,Win32,85.47008547,,,,,,,,,,,,,,,,1246.27,1247.564,1247.5641,1249.5405,return,0.6363,,74.73958333,,,,,,FBP-YG-71.png,0.45,1.2,20,0.5,,,,,,,,,,,,,,,,,,0,17,17,19,1,,,,,,,,,,,,,,,,,,,,,,,
,,,,,SPR24_016,20,Female,2024-04-08_16h05.31.846,jersey_experiment_5_v0,2023.2.2,Win32,85.47008547,,,,,,,,,,,,,,,,1249.5408,1250.8348,1250.8348,1252.87,return,0.4709,,50.26041667,,,,,,FBP-PT-81.png,0.4,1.2,53,0.5,,,,,,,,,,,,,,,,,,0,18,18,52,1,,,,,,,,,,,,,,,,,,,,,,,
,,,,,SPR24_016,20,Female,2024-04-08_16h05.31.846,jersey_experiment_5_v0,2023.2.2,Win32,85.47008547,,,,,,,,,,,,,,,,1252.8702,1253.9172,1253.9172,1255.9172,return,0.4671,,25.65104167,,,,,,FBP-OG-19.png,0.35,1.2,11,0.25,,,,,,,,,,,,,,,,,,0,19,19,10,1,,,,,,,,,,,,,,,,,,,,,,,
,,,,,SPR24_016,20,Female,2024-04-08_16h05.31.846,jersey_experiment_5_v0,2023.2.2,Win32,85.47008547,,,,,,,,,,,,,,,,1255.9174,1256.9643,1256.9643,1258.6232,return,0.4181,,24.86979167,,,,,,FBP-OG-17.png,0.37,1.2,2,0.25,,,,,,,,,,,,,,,,,,0,20,20,1,1,,,,,,,,,,,,,,,,,,,,,,,
,,,,,SPR24_016,20,Female,2024-04-08_16h05.31.846,jersey_experiment_5_v0,2023.2.2,Win32,85.47008547,,,,,,,,,,,,,,,,1258.6235,1259.6701,1259.6701,1262.0351,return,0.8852,,42.31770833,,,,,,FBP-OG-17.png,0.4,1.2,3,0.25,,,,,,,,,,,,,,,,,,0,21,21,2,1,,,,,,,,,,,,,,,,,,,,,,,
,,,,,SPR24_016,20,Female,2024-04-08_16h05.31.846,jersey_experiment_5_v0,2023.2.2,Win32,85.47008547,,,,,,,,,,,,,,,,1262.0353,1263.082,1263.082,1264.8352,return,0.4614,,50,,,,,,FBP-RB-91.png,0.43,1.2,44,0.25,,,,,,,,,,,,,,,,,,0,22,22,43,1,,,,,,,,,,,,,,,,,,,,,,,
,,,,,SPR24_016,20,Female,2024-04-08_16h05.31.846,jersey_experiment_5_v0,2023.2.2,Win32,85.47008547,,,,,,,,,,,,,,,,1264.8354,1265.8824,1265.8824,1267.7764,return,0.6992,,25.26041667,,,,,,FBP-RB-91.png,0.35,1.2,41,0.25,,,,,,,,,,,,,,,,,,0,23,23,40,1,,,,,,,,,,,,,,,,,,,,,,,
,,,,,SPR24_016,20,Female,2024-04-08_16h05.31.846,jersey_experiment_5_v0,2023.2.2,Win32,85.47008547,,,,,,,,,,,,,,,,1267.7766,1269.0708,1269.0708,1270.7529,return,0.475,,68.75,,,,,,FBP-PT-91.png,0.43,1.2,59,0.5,,,,,,,,,,,,,,,,,,0,24,24,58,1,,,,,,,,,,,,,,,,,,,,,,,
,,,,,SPR24_016,20,Female,2024-04-08_16h05.31.846,jersey_experiment_5_v0,2023.2.2,Win32,85.47008547,,,,,,,,,,,,,,,,1270.753,1272.0474,1272.0475,1274.7532,return,1.6848,,30.078125,,,,,,FBP-YG-91.png,0.35,1.2,26,0.5,,,,,,,,,,,,,,,,,,0,25,25,25,1,,,,,,,,,,,,,,,,,,,,,,,
,,,,,SPR24_016,20,Female,2024-04-08_16h05.31.846,jersey_experiment_5_v0,2023.2.2,Win32,85.47008547,,,,,,,,,,,,,,,,1274.7534,1276.0473,1276.0473,1277.8711,return,0.4983,,65.625,,,,,,FBP-YG-81.png,0.45,1.2,25,0.5,,,,,,,,,,,,,,,,,,0,26,26,24,1,,,,,,,,,,,,,,,,,,,,,,,
,,,,,SPR24_016,20,Female,2024-04-08_16h05.31.846,jersey_experiment_5_v0,2023.2.2,Win32,85.47008547,,,,,,,,,,,,,,,,1277.8713,1279.1655,1279.1656,1282.53,return,2.2507,,14.84375,,,,,,FBP-YG-71.png,0.35,1.2,16,0.5,,,,,,,,,,,,,,,,,,0,27,27,15,1,,,,,,,,,,,,,,,,,,,,,,,
,,,,,SPR24_016,20,Female,2024-04-08_16h05.31.846,jersey_experiment_5_v0,2023.2.2,Win32,85.47008547,,,,,,,,,,,,,,,,1282.5302,1283.577,1283.577,1287.3654,return,2.2123,,24.21875,,,,,,FBP-OG-18.png,0.35,1.2,6,0.25,,,,,,,,,,,,,,,,,,0,28,28,5,1,,,,,,,,,,,,,,,,,,,,,,,
,,,,,SPR24_016,20,Female,2024-04-08_16h05.31.846,jersey_experiment_5_v0,2023.2.2,Win32,85.47008547,,,,,,,,,,,,,,,,1287.3655,1288.4126,1288.4126,1289.9656,return,0.594,,19.140625,,,,,,FBP-OG-17.png,0.35,1.2,1,0.25,,,,,,,,,,,,,,,,,,0,29,29,0,1,,,,,,,,,,,,,,,,,,,,,,,
,,,,,SPR24_016,20,Female,2024-04-08_16h05.31.846,jersey_experiment_5_v0,2023.2.2,Win32,85.47008547,,,,,,,,,,,,,,,,1289.9658,1291.0125,1291.0125,1293.5187,return,0.4184,,44.66145833,,,,,,FBP-OG-18.png,0.4,1.2,8,0.25,,,,,,,,,,,,,,,,,,0,30,30,7,1,,,,,,,,,,,,,,,,,,,,,,,
,,,,,SPR24_016,20,Female,2024-04-08_16h05.31.846,jersey_experiment_5_v0,2023.2.2,Win32,85.47008547,,,,,,,,,,,,,,,,1293.5189,1294.5656,1294.5656,1297.2716,return,1.0208,,57.03125,,,,,,FBP-OG-17.png,0.43,1.2,4,0.25,,,,,,,,,,,,,,,,,,0,31,31,3,1,,,,,,,,,,,,,,,,,,,,,,,
,,,,,SPR24_016,20,Female,2024-04-08_16h05.31.846,jersey_experiment_5_v0,2023.2.2,Win32,85.47008547,,,,,,,,,,,,,,,,1297.2719,1298.5659,1298.5659,1300.26,return,0.6929,,65.625,,,,,,FBP-YG-91.png,0.43,1.2,29,0.5,,,,,,,,,,,,,,,,,,0,32,32,28,1,,,,,,,,,,,,,,,,,,,,,,,
,,,,,SPR24_016,20,Female,2024-04-08_16h05.31.846,jersey_experiment_5_v0,2023.2.2,Win32,85.47008547,,,,,,,,,,,,,,,,1300.2602,1301.3072,1301.3073,1304.166,return,1.318,,74.73958333,,,,,,FBP-RB-71.png,0.45,1.2,35,0.25,,,,,,,,,,,,,,,,,,0,33,33,34,1,,,,,,,,,,,,,,,,,,,,,,,
,,,,,SPR24_016,20,Female,2024-04-08_16h05.31.846,jersey_experiment_5_v0,2023.2.2,Win32,85.47008547,,,,,,,,,,,,,,,,1304.1663,1305.4602,1305.4603,1308.3427,return,1.0729,,30.98958333,,,,,,FBP-YG-81.png,0.37,1.2,22,0.5,,,,,,,,,,,,,,,,,,0,34,34,21,1,,,,,,,,,,,,,,,,,,,,,,,
,,,,,SPR24_016,20,Female,2024-04-08_16h05.31.846,jersey_experiment_5_v0,2023.2.2,Win32,85.47008547,,,,,,,,,,,,,,,,1308.343,1309.6368,1309.6368,1311.9194,return,0.5926,,60.80729167,,,,,,FBP-PT-81.png,0.43,1.2,54,0.5,,,,,,,,,,,,,,,,,,0,35,35,53,1,,,,,,,,,,,,,,,,,,,,,,,
,,,,,SPR24_016,20,Female,2024-04-08_16h05.31.846,jersey_experiment_5_v0,2023.2.2,Win32,85.47008547,,,,,,,,,,,,,,,,1311.9196,1313.2135,1313.2135,1314.4959,return,0.429,,70.83333333,,,,,,FBP-YG-91.png,0.45,1.2,30,0.5,,,,,,,,,,,,,,,,,,0,36,36,29,1,,,,,,,,,,,,,,,,,,,,,,,
,,,,,SPR24_016,20,Female,2024-04-08_16h05.31.846,jersey_experiment_5_v0,2023.2.2,Win32,85.47008547,,,,,,,,,,,,,,,,1314.4961,1315.7899,1315.79,1317.8608,return,0.7775,,55.98958333,,,,,,FBP-PT-71.png,0.4,1.2,48,0.5,,,,,,,,,,,,,,,,,,0,37,37,47,1,,,,,,,,,,,,,,,,,,,,,,,
,,,,,SPR24_016,20,Female,2024-04-08_16h05.31.846,jersey_experiment_5_v0,2023.2.2,Win32,85.47008547,,,,,,,,,,,,,,,,1317.861,1318.9078,1318.9078,1321.2962,return,0.485,,25.26041667,,,,,,FBP-RB-71.png,0.35,1.2,31,0.25,,,,,,,,,,,,,,,,,,0,38,38,30,1,,,,,,,,,,,,,,,,,,,,,,,
,,,,,SPR24_016,20,Female,2024-04-08_16h05.31.846,jersey_experiment_5_v0,2023.2.2,Win32,85.47008547,,,,,,,,,,,,,,,,1321.2963,1322.3432,1322.3432,1326.2258,return,3.0979,,24.86979167,,,,,,FBP-RB-91.png,0.37,1.2,42,0.25,,,,,,,,,,,,,,,,,,0,39,39,41,1,,,,,,,,,,,,,,,,,,,,,,,
,,,,,SPR24_016,20,Female,2024-04-08_16h05.31.846,jersey_experiment_5_v0,2023.2.2,Win32,85.47008547,,,,,,,,,,,,,,,,1326.226,1327.5201,1327.5202,1329.2492,return,0.6491,,58.59375,,,,,,FBP-YG-71.png,0.43,1.2,19,0.5,,,,,,,,,,,,,,,,,,0,40,40,18,1,,,,,,,,,,,,,,,,,,,,,,,
,,,,,SPR24_016,20,Female,2024-04-08_16h05.31.846,jersey_experiment_5_v0,2023.2.2,Win32,85.47008547,,,,,,,,,,,,,,,,1329.2495,1330.2966,1330.2967,1334.9436,return,3.3943,,53.515625,,,,,,FBP-OG-19.png,0.4,1.2,13,0.25,,,,,,,,,,,,,,,,,,0,41,41,12,1,,,,,,,,,,,,,,,,,,,,,,,
,,,,,SPR24_016,20,Female,2024-04-08_16h05.31.846,jersey_experiment_5_v0,2023.2.2,Win32,85.47008547,,,,,,,,,,,,,,,,1334.9437,1335.9908,1335.9909,1337.791,return,0.4303,,50.13020833,,,,,,FBP-RB-81.png,0.4,1.2,38,0.25,,,,,,,,,,,,,,,,,,0,42,42,37,1,,,,,,,,,,,,,,,,,,,,,,,
,,,,,SPR24_016,20,Female,2024-04-08_16h05.31.846,jersey_experiment_5_v0,2023.2.2,Win32,85.47008547,,,,,,,,,,,,,,,,1337.7912,1339.085,1339.0851,1340.9086,return,0.4443,,58.72395833,,,,,,FBP-PT-71.png,0.43,1.2,49,0.5,,,,,,,,,,,,,,,,,,0,43,43,48,1,,,,,,,,,,,,,,,,,,,,,,,
,,,,,SPR24_016,20,Female,2024-04-08_16h05.31.846,jersey_experiment_5_v0,2023.2.2,Win32,85.47008547,,,,,,,,,,,,,,,,1340.9088,1341.9556,1341.9557,1343.4146,return,0.5177,,67.96875,,,,,,FBP-RB-71.png,0.43,1.2,34,0.25,,,,,,,,,,,,,,,,,,0,44,44,33,1,,,,,,,,,,,,,,,,,,,,,,,
,,,,,SPR24_016,20,Female,2024-04-08_16h05.31.846,jersey_experiment_5_v0,2023.2.2,Win32,85.47008547,,,,,,,,,,,,,,,,1343.4148,1344.7087,1344.7087,1346.4148,return,0.4752,,29.81770833,,,,,,FBP-PT-81.png,0.35,1.2,51,0.5,,,,,,,,,,,,,,,,,,0,45,45,50,1,,,,,,,,,,,,,,,,,,,,,,,
,,,,,SPR24_016,20,Female,2024-04-08_16h05.31.846,jersey_experiment_5_v0,2023.2.2,Win32,85.47008547,,,,,,,,,,,,,,,,1346.415,1347.4617,1347.4618,1349.6383,return,0.9403,,31.77083333,,,,,,FBP-RB-71.png,0.37,1.2,32,0.25,,,,,,,,,,,,,,,,,,0,46,46,31,1,,,,,,,,,,,,,,,,,,,,,,,
,,,,,SPR24_016,20,Female,2024-04-08_16h05.31.846,jersey_experiment_5_v0,2023.2.2,Win32,85.47008547,,,,,,,,,,,,,,,,1349.6385,1350.9328,1350.9328,1353.3679,return,0.4797,,37.23958333,,,,,,FBP-YG-91.png,0.4,1.2,28,0.5,,,,,,,,,,,,,,,,,,0,47,47,27,1,,,,,,,,,,,,,,,,,,,,,,,
,,,,,SPR24_016,20,Female,2024-04-08_16h05.31.846,jersey_experiment_5_v0,2023.2.2,Win32,85.47008547,,,,,,,,,,,,,,,,1353.368,1354.4151,1354.4151,1356.4385,return,0.6026,,67.1875,,,,,,FBP-OG-18.png,0.45,1.2,10,0.25,,,,,,,,,,,,,,,,,,0,48,48,9,1,,,,,,,,,,,,,,,,,,,,,,,
,,,,,SPR24_016,20,Female,2024-04-08_16h05.31.846,jersey_experiment_5_v0,2023.2.2,Win32,85.47008547,,,,,,,,,,,,,,,,1356.4388,1357.7326,1357.7327,1359.1327,return,0.4652,,50.65104167,,,,,,FBP-YG-71.png,0.4,1.2,18,0.5,,,,,,,,,,,,,,,,,,0,49,49,17,1,,,,,,,,,,,,,,,,,,,,,,,
,,,,,SPR24_016,20,Female,2024-04-08_16h05.31.846,jersey_experiment_5_v0,2023.2.2,Win32,85.47008547,,,,,,,,,,,,,,,,1359.1329,1360.18,1360.1801,1364.0505,return,0.8265,,31.90104167,,,,,,FBP-OG-19.png,0.37,1.2,12,0.25,,,,,,,,,,,,,,,,,,0,50,50,11,1,,,,,,,,,,,,,,,,,,,,,,,
,,,,,SPR24_016,20,Female,2024-04-08_16h05.31.846,jersey_experiment_5_v0,2023.2.2,Win32,85.47008547,,,,,,,,,,,,,,,,1364.0508,1365.0978,1365.0978,1366.733,return,0.4178,,33.984375,,,,,,FBP-OG-18.png,0.37,1.2,7,0.25,,,,,,,,,,,,,,,,,,0,51,51,6,1,,,,,,,,,,,,,,,,,,,,,,,
,,,,,SPR24_016,20,Female,2024-04-08_16h05.31.846,jersey_experiment_5_v0,2023.2.2,Win32,85.47008547,,,,,,,,,,,,,,,,1366.7333,1367.7803,1367.7803,1369.9214,return,0.4963,,45.57291667,,,,,,FBP-RB-91.png,0.4,1.2,43,0.25,,,,,,,,,,,,,,,,,,0,52,52,42,1,,,,,,,,,,,,,,,,,,,,,,,
,,,,,SPR24_016,20,Female,2024-04-08_16h05.31.846,jersey_experiment_5_v0,2023.2.2,Win32,85.47008547,,,,,,,,,,,,,,,,1369.9217,1371.2159,1371.216,1374.0982,return,0.4371,,55.46875,,,,,,FBP-YG-81.png,0.43,1.2,24,0.5,,,,,,,,,,,,,,,,,,0,53,53,23,1,,,,,,,,,,,,,,,,,,,,,,,
,,,,,SPR24_016,20,Female,2024-04-08_16h05.31.846,jersey_experiment_5_v0,2023.2.2,Win32,85.47008547,,,,,,,,,,,,,,,,1374.0984,1375.3925,1375.3925,1377.1335,return,0.7612,,40.75520833,,,,,,FBP-PT-71.png,0.37,1.2,47,0.5,,,,,,,,,,,,,,,,,,0,54,54,46,1,,,,,,,,,,,,,,,,,,,,,,,
,,,,,SPR24_016,20,Female,2024-04-08_16h05.31.846,jersey_experiment_5_v0,2023.2.2,Win32,85.47008547,,,,,,,,,,,,,,,,1377.1337,1378.1806,1378.1806,1380.2395,return,0.51,,66.40625,,,,,,FBP-RB-81.png,0.45,1.2,40,0.25,,,,,,,,,,,,,,,,,,0,55,55,39,1,,,,,,,,,,,,,,,,,,,,,,,
,,,,,SPR24_016,20,Female,2024-04-08_16h05.31.846,jersey_experiment_5_v0,2023.2.2,Win32,85.47008547,,,,,,,,,,,,,,,,1380.2397,1381.5337,1381.5337,1385.6514,return,2.7549,,60.67708333,,,,,,FBP-PT-91.png,0.4,1.2,58,0.5,,,,,,,,,,,,,,,,,,0,56,56,57,1,,,,,,,,,,,,,,,,,,,,,,,
,,,,,SPR24_016,20,Female,2024-04-08_16h05.31.846,jersey_experiment_5_v0,2023.2.2,Win32,85.47008547,,,,,,,,,,,,,,,,1385.6517,1386.6986,1386.6987,1388.7106,return,0.4943,,28.77604167,,,,,,FBP-RB-81.png,0.37,1.2,37,0.25,,,,,,,,,,,,,,,,,,0,57,57,36,1,,,,,,,,,,,,,,,,,,,,,,,
,,,,,SPR24_016,20,Female,2024-04-08_16h05.31.846,jersey_experiment_5_v0,2023.2.2,Win32,85.47008547,,,,,,,,,,,,,,,,1388.7108,1390.0046,1390.0046,1391.3105,return,0.466,,18.09895833,,,,,,FBP-YG-81.png,0.35,1.2,21,0.5,,,,,,,,,,,,,,,,,,0,58,58,20,1,,,,,,,,,,,,,,,,,,,,,,,
,,,,,SPR24_016,20,Female,2024-04-08_16h05.31.846,jersey_experiment_5_v0,2023.2.2,Win32,85.47008547,,,,,,,,,,,,,,,,1391.3107,1392.3575,1392.3576,1399.1108,return,5.2336,,62.23958333,,,,,,FBP-RB-91.png,0.45,1.2,45,0.25,,,,,,,,,,,,,,,,,,0,59,59,44,1,,,,,,,,,,,,,,,,,,,,,,,
,,,,,SPR24_016,20,Female,2024-04-08_16h05.31.846,jersey_experiment_5_v0,2023.2.2,Win32,85.47008547,,,,,,,,,,,,,,,,,,,,,,,,,,,,,,,,,,,,,,,,,,,,,,,,,,,,,,,,1399.1113,1402.311,return,3.1856,,,,,,,,,,,,,,,,,,,
,,,,,SPR24_016,20,Female,2024-04-08_16h05.31.846,jersey_experiment_5_v0,2023.2.2,Win32,85.47008547,,,,,,,,,,,,,,,,,,,,,,,,,,,,,,,,,,,,,,,,,,,,,,,,,,,,,,,,,,,,,1402.3111,1410.5351,1,6.301,return,1.9063,,,,,,,,,,,,
,,,,,SPR24_016,20,Female,2024-04-08_16h05.31.846,jersey_experiment_5_v0,2023.2.2,Win32,85.47008547,,,,,,,,,,,,,,,,,,,,,,,,,,,,,,,,,,,,,,,,,,,,,,,,,,,,,,,,,,,,,,,,,,,,1410.5351,1545.0157,I noticed that the football players wear different color jerseys and had different skin tones.,right,122.6169,,,,,,
,,,,,SPR24_016,20,Female,2024-04-08_16h05.31.846,jersey_experiment_5_v0,2023.2.2,Win32,85.47008547,,,,,,,,,,,,,,,,,,,,,,,,,,,,,,,,,,,,,,,,,,,,,,,,,,,,,,,,,,,,,,,,,,,,,,,,,,1545.0158,1552.7404,return,7.713,