requirements.started,requirements.stopped,key_resp_3.keys,key_resp_3.rt,key_resp_3.duration,Subject ID,Age,Gender,date,expName,psychopyVersion,OS,frameRate,instructions1.started,instructions1.stopped,key_resp.keys,key_resp.rt,key_resp.duration,example.started,example.stopped,enter_2.keys,enter_2.rt,enter_2.duration,instructions2.started,instructions2.stopped,enter_3.keys,enter_3.rt,enter_3.duration,image.started,image.stopped,slider_2.started,slider_2.stopped,next.keys,next.rt,next.duration,slider.response,trial_block_1.thisRepN,trial_block_1.thisTrialN,trial_block_1.thisN,trial_block_1.thisIndex,trial_block_1.ran,Path,Width,Height,Index,Duration,trial_block_2.thisRepN,trial_block_2.thisTrialN,trial_block_2.thisN,trial_block_2.thisIndex,trial_block_2.ran,rest_break.started,rest_break.stopped,end_break.started,end_break.stopped,key_resp_5.keys,key_resp_5.rt,key_resp_5.duration,trial_block_3.thisRepN,trial_block_3.thisTrialN,trial_block_3.thisN,trial_block_3.thisIndex,trial_block_3.ran,trial_block_4.thisRepN,trial_block_4.thisTrialN,trial_block_4.thisN,trial_block_4.thisIndex,trial_block_4.ran,questions_intro.started,questions_intro.stopped,enter_12.keys,enter_12.rt,enter_12.duration,question2.started,question2.stopped,question_doingbest.response,question_doingbest.rt,enter_15.keys,enter_15.rt,enter_15.duration,pattern.started,pattern.stopped,pattern_2.text,enter_17.keys,enter_17.rt,enter_17.duration,thankyou.started,thankyou.stopped,enter_14.keys,enter_14.rt,enter_14.duration
0,11.1458,return,11.1348,,SPR24_096,19,Female,2024-04-25_16h43.02.913,jersey_experiment_5_v0,2023.2.2,Win32,85.47008547,,,,,,,,,,,,,,,,,,,,,,,,,,,,,,,,,,,,,,,,,,,,,,,,,,,,,,,,,,,,,,,,,,,,,,,,,,,,,,
,,,,,SPR24_096,19,Female,2024-04-25_16h43.02.913,jersey_experiment_5_v0,2023.2.2,Win32,85.47008547,11.1458,30.0994,return,18.947,,,,,,,,,,,,,,,,,,,,,,,,,,,,,,,,,,,,,,,,,,,,,,,,,,,,,,,,,,,,,,,,,,,,,,,,,,
,,,,,SPR24_096,19,Female,2024-04-25_16h43.02.913,jersey_experiment_5_v0,2023.2.2,Win32,85.47008547,,,,,,30.0994,34.5934,return,4.4688,,,,,,,,,,,,,,,,,,,,,,,,,,,,,,,,,,,,,,,,,,,,,,,,,,,,,,,,,,,,,,,,,,,,,
,,,,,SPR24_096,19,Female,2024-04-25_16h43.02.913,jersey_experiment_5_v0,2023.2.2,Win32,85.47008547,,,,,,,,,,,34.5936,58.1005,return,23.4986,,,,,,,,,,,,,,,,,,,,,,,,,,,,,,,,,,,,,,,,,,,,,,,,,,,,,,,,,,,,,,,,
,,,,,SPR24_096,19,Female,2024-04-25_16h43.02.913,jersey_experiment_5_v0,2023.2.2,Win32,85.47008547,,,,,,,,,,,,,,,,58.1071,59.1589,59.1589,75.0301,return,1.3328,,40.10416667,0,0,0,57,1,FBP-PT-19.png,0.4,1.2,58,0.25,,,,,,,,,,,,,,,,,,,,,,,,,,,,,,,,,,,,,,,,,,,,,
,,,,,SPR24_096,19,Female,2024-04-25_16h43.02.913,jersey_experiment_5_v0,2023.2.2,Win32,85.47008547,,,,,,,,,,,,,,,,75.0304,76.3243,76.3243,79.4654,return,1.0694,,60.546875,0,1,1,2,1,FBP-OG-71.png,0.4,1.2,3,0.5,,,,,,,,,,,,,,,,,,,,,,,,,,,,,,,,,,,,,,,,,,,,,
,,,,,SPR24_096,19,Female,2024-04-25_16h43.02.913,jersey_experiment_5_v0,2023.2.2,Win32,85.47008547,,,,,,,,,,,,,,,,79.4656,80.7595,80.7595,84.7128,return,0.8709,,78.38541667,0,2,2,38,1,FBP-RB-18.png,0.43,1.2,39,0.5,,,,,,,,,,,,,,,,,,,,,,,,,,,,,,,,,,,,,,,,,,,,,
,,,,,SPR24_096,19,Female,2024-04-25_16h43.02.913,jersey_experiment_5_v0,2023.2.2,Win32,85.47008547,,,,,,,,,,,,,,,,84.7129,86.0069,86.0069,88.8659,return,1.1114,,77.99479167,0,3,3,13,1,FBP-OG-91.png,0.43,1.2,14,0.5,,,,,,,,,,,,,,,,,,,,,,,,,,,,,,,,,,,,,,,,,,,,,
,,,,,SPR24_096,19,Female,2024-04-25_16h43.02.913,jersey_experiment_5_v0,2023.2.2,Win32,85.47008547,,,,,,,,,,,,,,,,88.8661,89.9129,89.9129,93.6073,return,0.9667,,21.74479167,0,4,4,55,1,FBP-PT-19.png,0.35,1.2,56,0.25,,,,,,,,,,,,,,,,,,,,,,,,,,,,,,,,,,,,,,,,,,,,,
,,,,,SPR24_096,19,Female,2024-04-25_16h43.02.913,jersey_experiment_5_v0,2023.2.2,Win32,85.47008547,,,,,,,,,,,,,,,,93.6075,94.9014,94.9014,98.6661,return,0.9046,,46.484375,0,5,5,7,1,FBP-OG-81.png,0.4,1.2,8,0.5,,,,,,,,,,,,,,,,,,,,,,,,,,,,,,,,,,,,,,,,,,,,,
,,,,,SPR24_096,19,Female,2024-04-25_16h43.02.913,jersey_experiment_5_v0,2023.2.2,Win32,85.47008547,,,,,,,,,,,,,,,,98.6664,99.7132,99.7132,102.8899,return,0.8611,,69.140625,0,6,6,58,1,FBP-PT-19.png,0.43,1.2,59,0.25,,,,,,,,,,,,,,,,,,,,,,,,,,,,,,,,,,,,,,,,,,,,,
,,,,,SPR24_096,19,Female,2024-04-25_16h43.02.913,jersey_experiment_5_v0,2023.2.2,Win32,85.47008547,,,,,,,,,,,,,,,,102.8901,103.9369,103.9369,106.9372,return,0.9072,,74.73958333,0,7,7,23,1,FBP-YG-18.png,0.43,1.2,24,0.25,,,,,,,,,,,,,,,,,,,,,,,,,,,,,,,,,,,,,,,,,,,,,
,,,,,SPR24_096,19,Female,2024-04-25_16h43.02.913,jersey_experiment_5_v0,2023.2.2,Win32,85.47008547,,,,,,,,,,,,,,,,106.9374,108.2311,108.2311,112.4903,return,1.7872,,30.078125,0,8,8,30,1,FBP-RB-17.png,0.35,1.2,31,0.5,,,,,,,,,,,,,,,,,,,,,,,,,,,,,,,,,,,,,,,,,,,,,
,,,,,SPR24_096,19,Female,2024-04-25_16h43.02.913,jersey_experiment_5_v0,2023.2.2,Win32,85.47008547,,,,,,,,,,,,,,,,112.4905,113.7843,113.7844,117.0785,return,0.9659,,57.94270833,0,9,9,42,1,FBP-RB-19.png,0.4,1.2,43,0.5,,,,,,,,,,,,,,,,,,,,,,,,,,,,,,,,,,,,,,,,,,,,,
,,,,,SPR24_096,19,Female,2024-04-25_16h43.02.913,jersey_experiment_5_v0,2023.2.2,Win32,85.47008547,,,,,,,,,,,,,,,,117.0788,118.3728,118.3729,121.3611,return,0.7732,,73.046875,0,10,10,34,1,FBP-RB-17.png,0.45,1.2,35,0.5,,,,,,,,,,,,,,,,,,,,,,,,,,,,,,,,,,,,,,,,,,,,,
,,,,,SPR24_096,19,Female,2024-04-25_16h43.02.913,jersey_experiment_5_v0,2023.2.2,Win32,85.47008547,,,,,,,,,,,,,,,,121.3613,122.6552,122.6552,127.4672,return,0.8251,,29.94791667,0,11,11,1,1,FBP-OG-71.png,0.37,1.2,2,0.5,,,,,,,,,,,,,,,,,,,,,,,,,,,,,,,,,,,,,,,,,,,,,
,,,,,SPR24_096,19,Female,2024-04-25_16h43.02.913,jersey_experiment_5_v0,2023.2.2,Win32,85.47008547,,,,,,,,,,,,,,,,127.4674,128.5144,128.5144,131.4909,return,0.6886,,42.578125,0,12,12,46,1,FBP-PT-17.png,0.37,1.2,47,0.25,,,,,,,,,,,,,,,,,,,,,,,,,,,,,,,,,,,,,,,,,,,,,
,,,,,SPR24_096,19,Female,2024-04-25_16h43.02.913,jersey_experiment_5_v0,2023.2.2,Win32,85.47008547,,,,,,,,,,,,,,,,131.4911,132.538,132.538,135.0675,return,0.6692,,27.34375,0,13,13,50,1,FBP-PT-18.png,0.35,1.2,51,0.25,,,,,,,,,,,,,,,,,,,,,,,,,,,,,,,,,,,,,,,,,,,,,
,,,,,SPR24_096,19,Female,2024-04-25_16h43.02.913,jersey_experiment_5_v0,2023.2.2,Win32,85.47008547,,,,,,,,,,,,,,,,135.0677,136.1145,136.1146,138.9617,return,0.8431,,31.90104167,0,14,14,26,1,FBP-YG-19.png,0.37,1.2,27,0.25,,,,,,,,,,,,,,,,,,,,,,,,,,,,,,,,,,,,,,,,,,,,,
,,,,,SPR24_096,19,Female,2024-04-25_16h43.02.913,jersey_experiment_5_v0,2023.2.2,Win32,85.47008547,,,,,,,,,,,,,,,,138.9619,140.2558,140.2559,143.3971,return,1.3218,,91.015625,0,15,15,14,1,FBP-OG-91.png,0.45,1.2,15,0.5,,,,,,,,,,,,,,,,,,,,,,,,,,,,,,,,,,,,,,,,,,,,,
,,,,,SPR24_096,19,Female,2024-04-25_16h43.02.913,jersey_experiment_5_v0,2023.2.2,Win32,85.47008547,,,,,,,,,,,,,,,,143.3974,144.6912,144.6912,146.9973,return,0.6494,,60.80729167,0,16,16,37,1,FBP-RB-18.png,0.4,1.2,38,0.5,,,,,,,,,,,,,,,,,,,,,,,,,,,,,,,,,,,,,,,,,,,,,
,,,,,SPR24_096,19,Female,2024-04-25_16h43.02.913,jersey_experiment_5_v0,2023.2.2,Win32,85.47008547,,,,,,,,,,,,,,,,146.9975,148.2914,148.2915,151.0093,return,0.9374,,75.26041667,0,17,17,3,1,FBP-OG-71.png,0.43,1.2,4,0.5,,,,,,,,,,,,,,,,,,,,,,,,,,,,,,,,,,,,,,,,,,,,,
,,,,,SPR24_096,19,Female,2024-04-25_16h43.02.913,jersey_experiment_5_v0,2023.2.2,Win32,85.47008547,,,,,,,,,,,,,,,,151.0095,152.0563,152.0563,154.5859,return,0.8702,,55.33854167,0,18,18,17,1,FBP-YG-17.png,0.4,1.2,18,0.25,,,,,,,,,,,,,,,,,,,,,,,,,,,,,,,,,,,,,,,,,,,,,
,,,,,SPR24_096,19,Female,2024-04-25_16h43.02.913,jersey_experiment_5_v0,2023.2.2,Win32,85.47008547,,,,,,,,,,,,,,,,154.5862,155.6328,155.6328,158.0684,return,0.5682,,29.42708333,0,19,19,45,1,FBP-PT-17.png,0.35,1.2,46,0.25,,,,,,,,,,,,,,,,,,,,,,,,,,,,,,,,,,,,,,,,,,,,,
,,,,,SPR24_096,19,Female,2024-04-25_16h43.02.913,jersey_experiment_5_v0,2023.2.2,Win32,85.47008547,,,,,,,,,,,,,,,,158.0686,159.1151,159.1152,161.4447,return,0.6268,,29.94791667,0,20,20,51,1,FBP-PT-18.png,0.37,1.2,52,0.25,,,,,,,,,,,,,,,,,,,,,,,,,,,,,,,,,,,,,,,,,,,,,
,,,,,SPR24_096,19,Female,2024-04-25_16h43.02.913,jersey_experiment_5_v0,2023.2.2,Win32,85.47008547,,,,,,,,,,,,,,,,161.4449,162.739,162.739,165.9273,return,1.3315,,71.484375,0,21,21,33,1,FBP-RB-17.png,0.43,1.2,34,0.5,,,,,,,,,,,,,,,,,,,,,,,,,,,,,,,,,,,,,,,,,,,,,
,,,,,SPR24_096,19,Female,2024-04-25_16h43.02.913,jersey_experiment_5_v0,2023.2.2,Win32,85.47008547,,,,,,,,,,,,,,,,165.9276,166.9744,166.9744,169.4333,return,0.7189,,34.11458333,0,22,22,56,1,FBP-PT-19.png,0.37,1.2,57,0.25,,,,,,,,,,,,,,,,,,,,,,,,,,,,,,,,,,,,,,,,,,,,,
,,,,,SPR24_096,19,Female,2024-04-25_16h43.02.913,jersey_experiment_5_v0,2023.2.2,Win32,85.47008547,,,,,,,,,,,,,,,,169.4336,170.4804,170.4805,172.951,return,0.7656,,16.796875,0,23,23,20,1,FBP-YG-18.png,0.35,1.2,21,0.25,,,,,,,,,,,,,,,,,,,,,,,,,,,,,,,,,,,,,,,,,,,,,
,,,,,SPR24_096,19,Female,2024-04-25_16h43.02.913,jersey_experiment_5_v0,2023.2.2,Win32,85.47008547,,,,,,,,,,,,,,,,172.9513,174.2453,174.2453,176.8689,return,0.6614,,78.90625,0,24,24,9,1,FBP-OG-81.png,0.45,1.2,10,0.5,,,,,,,,,,,,,,,,,,,,,,,,,,,,,,,,,,,,,,,,,,,,,
,,,,,SPR24_096,19,Female,2024-04-25_16h43.02.913,jersey_experiment_5_v0,2023.2.2,Win32,85.47008547,,,,,,,,,,,,,,,,176.8691,177.916,177.916,180.3632,return,0.6589,,31.11979167,0,25,25,21,1,FBP-YG-18.png,0.37,1.2,22,0.25,,,,,,,,,,,,,,,,,,,,,,,,,,,,,,,,,,,,,,,,,,,,,
,,,,,SPR24_096,19,Female,2024-04-25_16h43.02.913,jersey_experiment_5_v0,2023.2.2,Win32,85.47008547,,,,,,,,,,,,,,,,180.3633,181.4101,181.4102,183.9396,return,0.8052,,78.64583333,0,26,26,18,1,FBP-YG-17.png,0.43,1.2,19,0.25,,,,,,,,,,,,,,,,,,,,,,,,,,,,,,,,,,,,,,,,,,,,,
,,,,,SPR24_096,19,Female,2024-04-25_16h43.02.913,jersey_experiment_5_v0,2023.2.2,Win32,85.47008547,,,,,,,,,,,,,,,,183.9398,185.2339,185.2339,187.7869,return,0.8132,,14.0625,0,27,27,40,1,FBP-RB-19.png,0.35,1.2,41,0.5,,,,,,,,,,,,,,,,,,,,,,,,,,,,,,,,,,,,,,,,,,,,,
,,,,,SPR24_096,19,Female,2024-04-25_16h43.02.913,jersey_experiment_5_v0,2023.2.2,Win32,85.47008547,,,,,,,,,,,,,,,,187.7872,188.834,188.834,191.7871,return,0.6134,,67.83854167,0,28,28,52,1,FBP-PT-18.png,0.4,1.2,53,0.25,,,,,,,,,,,,,,,,,,,,,,,,,,,,,,,,,,,,,,,,,,,,,
,,,,,SPR24_096,19,Female,2024-04-25_16h43.02.913,jersey_experiment_5_v0,2023.2.2,Win32,85.47008547,,,,,,,,,,,,,,,,191.7872,193.0812,193.0813,195.4109,return,0.7581,,30.33854167,0,29,29,35,1,FBP-RB-18.png,0.35,1.2,36,0.5,,,,,,,,,,,,,,,,,,,,,,,,,,,,,,,,,,,,,,,,,,,,,
,,,,,SPR24_096,19,Female,2024-04-25_16h43.02.913,jersey_experiment_5_v0,2023.2.2,Win32,85.47008547,,,,,,,,,,,,,,,,195.4111,196.7048,196.7048,199.3521,return,0.6361,,38.80208333,0,30,30,0,1,FBP-OG-71.png,0.35,1.2,1,0.5,,,,,,,,,,,,,,,,,,,,,,,,,,,,,,,,,,,,,,,,,,,,,
,,,,,SPR24_096,19,Female,2024-04-25_16h43.02.913,jersey_experiment_5_v0,2023.2.2,Win32,85.47008547,,,,,,,,,,,,,,,,199.3522,200.3992,200.3992,203.3286,return,0.7147,,87.23958333,0,31,31,49,1,FBP-PT-17.png,0.45,1.2,50,0.25,,,,,,,,,,,,,,,,,,,,,,,,,,,,,,,,,,,,,,,,,,,,,
,,,,,SPR24_096,19,Female,2024-04-25_16h43.02.913,jersey_experiment_5_v0,2023.2.2,Win32,85.47008547,,,,,,,,,,,,,,,,203.3288,204.3758,204.3759,206.6582,return,0.4986,,93.61979167,0,32,32,24,1,FBP-YG-18.png,0.45,1.2,25,0.25,,,,,,,,,,,,,,,,,,,,,,,,,,,,,,,,,,,,,,,,,,,,,
,,,,,SPR24_096,19,Female,2024-04-25_16h43.02.913,jersey_experiment_5_v0,2023.2.2,Win32,85.47008547,,,,,,,,,,,,,,,,206.6584,207.7052,207.7053,211.2819,return,1.3717,,60.02604167,0,33,33,47,1,FBP-PT-17.png,0.4,1.2,48,0.25,,,,,,,,,,,,,,,,,,,,,,,,,,,,,,,,,,,,,,,,,,,,,
,,,,,SPR24_096,19,Female,2024-04-25_16h43.02.913,jersey_experiment_5_v0,2023.2.2,Win32,85.47008547,,,,,,,,,,,,,,,,211.2821,212.329,212.329,214.7056,return,0.6168,,48.69791667,0,34,34,16,1,FBP-YG-17.png,0.37,1.2,17,0.25,,,,,,,,,,,,,,,,,,,,,,,,,,,,,,,,,,,,,,,,,,,,,
,,,,,SPR24_096,19,Female,2024-04-25_16h43.02.913,jersey_experiment_5_v0,2023.2.2,Win32,85.47008547,,,,,,,,,,,,,,,,214.7058,215.7526,215.7526,217.9527,return,0.5708,,60.9375,0,35,35,22,1,FBP-YG-18.png,0.4,1.2,23,0.25,,,,,,,,,,,,,,,,,,,,,,,,,,,,,,,,,,,,,,,,,,,,,
,,,,,SPR24_096,19,Female,2024-04-25_16h43.02.913,jersey_experiment_5_v0,2023.2.2,Win32,85.47008547,,,,,,,,,,,,,,,,217.9529,218.9997,218.9997,221.8117,return,1.1935,,73.56770833,0,36,36,53,1,FBP-PT-18.png,0.43,1.2,54,0.25,,,,,,,,,,,,,,,,,,,,,,,,,,,,,,,,,,,,,,,,,,,,,
,,,,,SPR24_096,19,Female,2024-04-25_16h43.02.913,jersey_experiment_5_v0,2023.2.2,Win32,85.47008547,,,,,,,,,,,,,,,,221.8119,223.1058,223.1058,225.8471,return,1.4139,,80.46875,0,37,37,8,1,FBP-OG-81.png,0.43,1.2,9,0.5,,,,,,,,,,,,,,,,,,,,,,,,,,,,,,,,,,,,,,,,,,,,,
,,,,,SPR24_096,19,Female,2024-04-25_16h43.02.913,jersey_experiment_5_v0,2023.2.2,Win32,85.47008547,,,,,,,,,,,,,,,,225.8473,227.1412,227.1413,230.5296,return,1.9711,,33.59375,0,38,38,41,1,FBP-RB-19.png,0.37,1.2,42,0.5,,,,,,,,,,,,,,,,,,,,,,,,,,,,,,,,,,,,,,,,,,,,,
,,,,,SPR24_096,19,Female,2024-04-25_16h43.02.913,jersey_experiment_5_v0,2023.2.2,Win32,85.47008547,,,,,,,,,,,,,,,,230.5298,231.8238,231.8238,233.9769,return,0.5312,,70.44270833,0,39,39,39,1,FBP-RB-18.png,0.45,1.2,40,0.5,,,,,,,,,,,,,,,,,,,,,,,,,,,,,,,,,,,,,,,,,,,,,
,,,,,SPR24_096,19,Female,2024-04-25_16h43.02.913,jersey_experiment_5_v0,2023.2.2,Win32,85.47008547,,,,,,,,,,,,,,,,233.977,235.0238,235.0238,236.9653,return,0.4718,,56.11979167,0,40,40,27,1,FBP-YG-19.png,0.4,1.2,28,0.25,,,,,,,,,,,,,,,,,,,,,,,,,,,,,,,,,,,,,,,,,,,,,
,,,,,SPR24_096,19,Female,2024-04-25_16h43.02.913,jersey_experiment_5_v0,2023.2.2,Win32,85.47008547,,,,,,,,,,,,,,,,236.9653,238.2593,238.2594,240.0241,return,0.484,,74.609375,0,41,41,4,1,FBP-OG-71.png,0.45,1.2,5,0.5,,,,,,,,,,,,,,,,,,,,,,,,,,,,,,,,,,,,,,,,,,,,,
,,,,,SPR24_096,19,Female,2024-04-25_16h43.02.913,jersey_experiment_5_v0,2023.2.2,Win32,85.47008547,,,,,,,,,,,,,,,,240.0242,241.3182,241.3182,243.8007,return,0.6592,,23.95833333,0,42,42,11,1,FBP-OG-91.png,0.37,1.2,12,0.5,,,,,,,,,,,,,,,,,,,,,,,,,,,,,,,,,,,,,,,,,,,,,
,,,,,SPR24_096,19,Female,2024-04-25_16h43.02.913,jersey_experiment_5_v0,2023.2.2,Win32,85.47008547,,,,,,,,,,,,,,,,243.8009,245.0949,245.0949,247.2245,return,0.5544,,24.47916667,0,43,43,6,1,FBP-OG-81.png,0.37,1.2,7,0.5,,,,,,,,,,,,,,,,,,,,,,,,,,,,,,,,,,,,,,,,,,,,,
,,,,,SPR24_096,19,Female,2024-04-25_16h43.02.913,jersey_experiment_5_v0,2023.2.2,Win32,85.47008547,,,,,,,,,,,,,,,,247.2246,248.5186,248.5186,250.7068,return,0.5215,,49.73958333,0,44,44,32,1,FBP-RB-17.png,0.4,1.2,33,0.5,,,,,,,,,,,,,,,,,,,,,,,,,,,,,,,,,,,,,,,,,,,,,
,,,,,SPR24_096,19,Female,2024-04-25_16h43.02.913,jersey_experiment_5_v0,2023.2.2,Win32,85.47008547,,,,,,,,,,,,,,,,250.7069,252.0009,252.0009,253.7068,return,0.552,,50.13020833,0,45,45,31,1,FBP-RB-17.png,0.37,1.2,32,0.5,,,,,,,,,,,,,,,,,,,,,,,,,,,,,,,,,,,,,,,,,,,,,
,,,,,SPR24_096,19,Female,2024-04-25_16h43.02.913,jersey_experiment_5_v0,2023.2.2,Win32,85.47008547,,,,,,,,,,,,,,,,253.707,255.0011,255.0011,256.7071,return,0.4755,,32.94270833,0,46,46,5,1,FBP-OG-81.png,0.35,1.2,6,0.5,,,,,,,,,,,,,,,,,,,,,,,,,,,,,,,,,,,,,,,,,,,,,
,,,,,SPR24_096,19,Female,2024-04-25_16h43.02.913,jersey_experiment_5_v0,2023.2.2,Win32,85.47008547,,,,,,,,,,,,,,,,256.7073,258.0012,258.0013,259.7189,return,0.5084,,32.29166667,0,47,47,12,1,FBP-OG-91.png,0.4,1.2,13,0.5,,,,,,,,,,,,,,,,,,,,,,,,,,,,,,,,,,,,,,,,,,,,,
,,,,,SPR24_096,19,Female,2024-04-25_16h43.02.913,jersey_experiment_5_v0,2023.2.2,Win32,85.47008547,,,,,,,,,,,,,,,,259.7192,261.0129,261.013,266.4368,return,4.0383,,74.47916667,0,48,48,44,1,FBP-RB-19.png,0.45,1.2,45,0.5,,,,,,,,,,,,,,,,,,,,,,,,,,,,,,,,,,,,,,,,,,,,,
,,,,,SPR24_096,19,Female,2024-04-25_16h43.02.913,jersey_experiment_5_v0,2023.2.2,Win32,85.47008547,,,,,,,,,,,,,,,,266.4369,267.4839,267.4839,269.3309,return,0.51,,76.82291667,0,49,49,19,1,FBP-YG-17.png,0.45,1.2,20,0.25,,,,,,,,,,,,,,,,,,,,,,,,,,,,,,,,,,,,,,,,,,,,,
,,,,,SPR24_096,19,Female,2024-04-25_16h43.02.913,jersey_experiment_5_v0,2023.2.2,Win32,85.47008547,,,,,,,,,,,,,,,,269.3311,270.3781,270.3781,272.6488,return,0.504,,27.34375,0,50,50,25,1,FBP-YG-19.png,0.35,1.2,26,0.25,,,,,,,,,,,,,,,,,,,,,,,,,,,,,,,,,,,,,,,,,,,,,
,,,,,SPR24_096,19,Female,2024-04-25_16h43.02.913,jersey_experiment_5_v0,2023.2.2,Win32,85.47008547,,,,,,,,,,,,,,,,272.6489,273.6959,273.6959,276.696,return,0.5292,,75.390625,0,51,51,29,1,FBP-YG-19.png,0.45,1.2,30,0.25,,,,,,,,,,,,,,,,,,,,,,,,,,,,,,,,,,,,,,,,,,,,,
,,,,,SPR24_096,19,Female,2024-04-25_16h43.02.913,jersey_experiment_5_v0,2023.2.2,Win32,85.47008547,,,,,,,,,,,,,,,,276.696,277.9902,277.9903,281.1548,return,0.4181,,33.59375,0,52,52,10,1,FBP-OG-91.png,0.35,1.2,11,0.5,,,,,,,,,,,,,,,,,,,,,,,,,,,,,,,,,,,,,,,,,,,,,
,,,,,SPR24_096,19,Female,2024-04-25_16h43.02.913,jersey_experiment_5_v0,2023.2.2,Win32,85.47008547,,,,,,,,,,,,,,,,281.155,282.202,282.202,284.7903,return,0.6478,,26.43229167,0,53,53,15,1,FBP-YG-17.png,0.35,1.2,16,0.25,,,,,,,,,,,,,,,,,,,,,,,,,,,,,,,,,,,,,,,,,,,,,
,,,,,SPR24_096,19,Female,2024-04-25_16h43.02.913,jersey_experiment_5_v0,2023.2.2,Win32,85.47008547,,,,,,,,,,,,,,,,284.7904,285.8374,285.8375,288.4259,return,0.5901,,64.32291667,0,54,54,28,1,FBP-YG-19.png,0.43,1.2,29,0.25,,,,,,,,,,,,,,,,,,,,,,,,,,,,,,,,,,,,,,,,,,,,,
,,,,,SPR24_096,19,Female,2024-04-25_16h43.02.913,jersey_experiment_5_v0,2023.2.2,Win32,85.47008547,,,,,,,,,,,,,,,,288.4261,289.4728,289.4728,291.5435,return,0.7779,,80.98958333,0,55,55,48,1,FBP-PT-17.png,0.43,1.2,49,0.25,,,,,,,,,,,,,,,,,,,,,,,,,,,,,,,,,,,,,,,,,,,,,
,,,,,SPR24_096,19,Female,2024-04-25_16h43.02.913,jersey_experiment_5_v0,2023.2.2,Win32,85.47008547,,,,,,,,,,,,,,,,291.5437,292.5907,292.5907,294.0847,return,0.6014,,84.89583333,0,56,56,59,1,FBP-PT-19.png,0.45,1.2,60,0.25,,,,,,,,,,,,,,,,,,,,,,,,,,,,,,,,,,,,,,,,,,,,,
,,,,,SPR24_096,19,Female,2024-04-25_16h43.02.913,jersey_experiment_5_v0,2023.2.2,Win32,85.47008547,,,,,,,,,,,,,,,,294.085,295.379,295.3791,297.1907,return,0.5522,,48.17708333,0,57,57,36,1,FBP-RB-18.png,0.37,1.2,37,0.5,,,,,,,,,,,,,,,,,,,,,,,,,,,,,,,,,,,,,,,,,,,,,
,,,,,SPR24_096,19,Female,2024-04-25_16h43.02.913,jersey_experiment_5_v0,2023.2.2,Win32,85.47008547,,,,,,,,,,,,,,,,297.1909,298.2379,298.238,300.2263,return,0.4642,,78.77604167,0,58,58,54,1,FBP-PT-18.png,0.45,1.2,55,0.25,,,,,,,,,,,,,,,,,,,,,,,,,,,,,,,,,,,,,,,,,,,,,
,,,,,SPR24_096,19,Female,2024-04-25_16h43.02.913,jersey_experiment_5_v0,2023.2.2,Win32,85.47008547,,,,,,,,,,,,,,,,300.2265,301.5202,301.5203,303.0027,return,0.588,,78.90625,0,59,59,43,1,FBP-RB-19.png,0.43,1.2,44,0.5,,,,,,,,,,,,,,,,,,,,,,,,,,,,,,,,,,,,,,,,,,,,,
,,,,,SPR24_096,19,Female,2024-04-25_16h43.02.913,jersey_experiment_5_v0,2023.2.2,Win32,85.47008547,,,,,,,,,,,,,,,,303.005,304.0498,304.0498,306.1677,return,1.0825,,79.03645833,,,,,,FBP-PT-81.png,0.43,1.2,54,0.25,0,0,0,53,1,,,,,,,,,,,,,,,,,,,,,,,,,,,,,,,,,,,,,,,,
,,,,,SPR24_096,19,Female,2024-04-25_16h43.02.913,jersey_experiment_5_v0,2023.2.2,Win32,85.47008547,,,,,,,,,,,,,,,,306.1678,307.4618,307.4618,309.6502,return,0.594,,73.4375,,,,,,FBP-RB-71.png,0.43,1.2,34,0.5,0,1,1,33,1,,,,,,,,,,,,,,,,,,,,,,,,,,,,,,,,,,,,,,,,
,,,,,SPR24_096,19,Female,2024-04-25_16h43.02.913,jersey_experiment_5_v0,2023.2.2,Win32,85.47008547,,,,,,,,,,,,,,,,309.6504,310.6971,310.6971,312.203,return,0.494,,78.90625,,,,,,FBP-PT-71.png,0.45,1.2,50,0.25,0,2,2,49,1,,,,,,,,,,,,,,,,,,,,,,,,,,,,,,,,,,,,,,,,
,,,,,SPR24_096,19,Female,2024-04-25_16h43.02.913,jersey_experiment_5_v0,2023.2.2,Win32,85.47008547,,,,,,,,,,,,,,,,312.2033,313.2502,313.2502,315.2385,return,0.5541,,48.95833333,,,,,,FBP-PT-81.png,0.37,1.2,52,0.25,0,3,3,51,1,,,,,,,,,,,,,,,,,,,,,,,,,,,,,,,,,,,,,,,,
,,,,,SPR24_096,19,Female,2024-04-25_16h43.02.913,jersey_experiment_5_v0,2023.2.2,Win32,85.47008547,,,,,,,,,,,,,,,,315.2387,316.5326,316.5327,318.6504,return,1.0118,,69.66145833,,,,,,FBP-RB-81.png,0.43,1.2,39,0.5,0,4,4,38,1,,,,,,,,,,,,,,,,,,,,,,,,,,,,,,,,,,,,,,,,
,,,,,SPR24_096,19,Female,2024-04-25_16h43.02.913,jersey_experiment_5_v0,2023.2.2,Win32,85.47008547,,,,,,,,,,,,,,,,318.6505,319.9447,319.9447,321.2741,return,0.6027,,80.859375,,,,,,FBP-OG-19.png,0.45,1.2,15,0.5,0,5,5,14,1,,,,,,,,,,,,,,,,,,,,,,,,,,,,,,,,,,,,,,,,
,,,,,SPR24_096,19,Female,2024-04-25_16h43.02.913,jersey_experiment_5_v0,2023.2.2,Win32,85.47008547,,,,,,,,,,,,,,,,321.2742,322.3211,322.3211,325.0506,return,0.5284,,71.74479167,,,,,,FBP-YG-71.png,0.4,1.2,18,0.25,0,6,6,17,1,,,,,,,,,,,,,,,,,,,,,,,,,,,,,,,,,,,,,,,,
,,,,,SPR24_096,19,Female,2024-04-25_16h43.02.913,jersey_experiment_5_v0,2023.2.2,Win32,85.47008547,,,,,,,,,,,,,,,,325.0507,326.3448,326.3448,327.8507,return,0.5177,,74.08854167,,,,,,FBP-RB-91.png,0.43,1.2,44,0.5,0,7,7,43,1,,,,,,,,,,,,,,,,,,,,,,,,,,,,,,,,,,,,,,,,
,,,,,SPR24_096,19,Female,2024-04-25_16h43.02.913,jersey_experiment_5_v0,2023.2.2,Win32,85.47008547,,,,,,,,,,,,,,,,327.8509,328.8978,328.8979,331.6273,return,0.5174,,72.65625,,,,,,FBP-YG-71.png,0.43,1.2,19,0.25,0,8,8,18,1,,,,,,,,,,,,,,,,,,,,,,,,,,,,,,,,,,,,,,,,
,,,,,SPR24_096,19,Female,2024-04-25_16h43.02.913,jersey_experiment_5_v0,2023.2.2,Win32,85.47008547,,,,,,,,,,,,,,,,331.6275,332.6744,332.6744,335.945,return,0.9413,,67.96875,,,,,,FBP-YG-81.png,0.43,1.2,24,0.25,0,9,9,23,1,,,,,,,,,,,,,,,,,,,,,,,,,,,,,,,,,,,,,,,,
,,,,,SPR24_096,19,Female,2024-04-25_16h43.02.913,jersey_experiment_5_v0,2023.2.2,Win32,85.47008547,,,,,,,,,,,,,,,,335.9453,336.9923,336.9923,338.8746,return,0.4608,,69.140625,,,,,,FBP-PT-71.png,0.43,1.2,49,0.25,0,10,10,48,1,,,,,,,,,,,,,,,,,,,,,,,,,,,,,,,,,,,,,,,,
,,,,,SPR24_096,19,Female,2024-04-25_16h43.02.913,jersey_experiment_5_v0,2023.2.2,Win32,85.47008547,,,,,,,,,,,,,,,,338.8749,340.1688,340.1689,343.7219,return,0.4934,,32.421875,,,,,,FBP-OG-18.png,0.37,1.2,7,0.5,0,11,11,6,1,,,,,,,,,,,,,,,,,,,,,,,,,,,,,,,,,,,,,,,,
,,,,,SPR24_096,19,Female,2024-04-25_16h43.02.913,jersey_experiment_5_v0,2023.2.2,Win32,85.47008547,,,,,,,,,,,,,,,,343.7221,344.7689,344.769,347.169,return,0.455,,74.609375,,,,,,FBP-PT-91.png,0.45,1.2,60,0.25,0,12,12,59,1,,,,,,,,,,,,,,,,,,,,,,,,,,,,,,,,,,,,,,,,
,,,,,SPR24_096,19,Female,2024-04-25_16h43.02.913,jersey_experiment_5_v0,2023.2.2,Win32,85.47008547,,,,,,,,,,,,,,,,347.1692,348.2162,348.2162,350.1457,return,0.5475,,75.52083333,,,,,,FBP-PT-81.png,0.45,1.2,55,0.25,0,13,13,54,1,,,,,,,,,,,,,,,,,,,,,,,,,,,,,,,,,,,,,,,,
,,,,,SPR24_096,19,Female,2024-04-25_16h43.02.913,jersey_experiment_5_v0,2023.2.2,Win32,85.47008547,,,,,,,,,,,,,,,,350.1459,351.4398,351.4398,352.4869,return,0.4832,,75,,,,,,FBP-RB-71.png,0.45,1.2,35,0.5,0,14,14,34,1,,,,,,,,,,,,,,,,,,,,,,,,,,,,,,,,,,,,,,,,
,,,,,SPR24_096,19,Female,2024-04-25_16h43.02.913,jersey_experiment_5_v0,2023.2.2,Win32,85.47008547,,,,,,,,,,,,,,,,352.487,353.7811,353.7812,357.4988,return,0.9647,,14.453125,,,,,,FBP-RB-71.png,0.37,1.2,32,0.5,0,15,15,31,1,,,,,,,,,,,,,,,,,,,,,,,,,,,,,,,,,,,,,,,,
,,,,,SPR24_096,19,Female,2024-04-25_16h43.02.913,jersey_experiment_5_v0,2023.2.2,Win32,85.47008547,,,,,,,,,,,,,,,,357.499,358.5458,358.5458,360.3224,return,0.5475,,66.015625,,,,,,FBP-YG-81.png,0.45,1.2,25,0.25,0,16,16,24,1,,,,,,,,,,,,,,,,,,,,,,,,,,,,,,,,,,,,,,,,
,,,,,SPR24_096,19,Female,2024-04-25_16h43.02.913,jersey_experiment_5_v0,2023.2.2,Win32,85.47008547,,,,,,,,,,,,,,,,360.3226,361.6166,361.6167,362.7697,return,0.4541,,70.3125,,,,,,FBP-RB-91.png,0.45,1.2,45,0.5,0,17,17,44,1,,,,,,,,,,,,,,,,,,,,,,,,,,,,,,,,,,,,,,,,
,,,,,SPR24_096,19,Female,2024-04-25_16h43.02.913,jersey_experiment_5_v0,2023.2.2,Win32,85.47008547,,,,,,,,,,,,,,,,362.7698,363.8167,363.8167,365.8168,return,0.5788,,33.46354167,,,,,,FBP-YG-81.png,0.35,1.2,21,0.25,0,18,18,20,1,,,,,,,,,,,,,,,,,,,,,,,,,,,,,,,,,,,,,,,,
,,,,,SPR24_096,19,Female,2024-04-25_16h43.02.913,jersey_experiment_5_v0,2023.2.2,Win32,85.47008547,,,,,,,,,,,,,,,,365.817,366.8638,366.8638,368.2755,return,0.4758,,32.03125,,,,,,FBP-YG-81.png,0.37,1.2,22,0.25,0,19,19,21,1,,,,,,,,,,,,,,,,,,,,,,,,,,,,,,,,,,,,,,,,
,,,,,SPR24_096,19,Female,2024-04-25_16h43.02.913,jersey_experiment_5_v0,2023.2.2,Win32,85.47008547,,,,,,,,,,,,,,,,368.2758,369.3229,369.3229,370.9229,return,0.7063,,29.296875,,,,,,FBP-PT-81.png,0.35,1.2,51,0.25,0,20,20,50,1,,,,,,,,,,,,,,,,,,,,,,,,,,,,,,,,,,,,,,,,
,,,,,SPR24_096,19,Female,2024-04-25_16h43.02.913,jersey_experiment_5_v0,2023.2.2,Win32,85.47008547,,,,,,,,,,,,,,,,370.9231,371.9699,371.97,373.6523,return,0.5342,,14.71354167,,,,,,FBP-YG-91.png,0.35,1.2,26,0.25,0,21,21,25,1,,,,,,,,,,,,,,,,,,,,,,,,,,,,,,,,,,,,,,,,
,,,,,SPR24_096,19,Female,2024-04-25_16h43.02.913,jersey_experiment_5_v0,2023.2.2,Win32,85.47008547,,,,,,,,,,,,,,,,373.6526,374.6998,374.6999,377.523,return,0.8869,,31.90104167,,,,,,FBP-PT-81.png,0.4,1.2,53,0.25,0,22,22,52,1,,,,,,,,,,,,,,,,,,,,,,,,,,,,,,,,,,,,,,,,
,,,,,SPR24_096,19,Female,2024-04-25_16h43.02.913,jersey_experiment_5_v0,2023.2.2,Win32,85.47008547,,,,,,,,,,,,,,,,377.5232,378.8171,378.8171,381.5231,return,0.9333,,24.86979167,,,,,,FBP-RB-91.png,0.35,1.2,41,0.5,0,23,23,40,1,,,,,,,,,,,,,,,,,,,,,,,,,,,,,,,,,,,,,,,,
,,,,,SPR24_096,19,Female,2024-04-25_16h43.02.913,jersey_experiment_5_v0,2023.2.2,Win32,85.47008547,,,,,,,,,,,,,,,,381.5234,382.8175,382.8175,384.7939,return,0.4579,,75.13020833,,,,,,FBP-OG-17.png,0.45,1.2,5,0.5,0,24,24,4,1,,,,,,,,,,,,,,,,,,,,,,,,,,,,,,,,,,,,,,,,
,,,,,SPR24_096,19,Female,2024-04-25_16h43.02.913,jersey_experiment_5_v0,2023.2.2,Win32,85.47008547,,,,,,,,,,,,,,,,384.7941,385.841,385.841,387.7941,return,0.4184,,44.40104167,,,,,,FBP-PT-91.png,0.37,1.2,57,0.25,0,25,25,56,1,,,,,,,,,,,,,,,,,,,,,,,,,,,,,,,,,,,,,,,,
,,,,,SPR24_096,19,Female,2024-04-25_16h43.02.913,jersey_experiment_5_v0,2023.2.2,Win32,85.47008547,,,,,,,,,,,,,,,,387.7943,389.0882,389.0882,390.453,return,0.6976,,42.05729167,,,,,,FBP-RB-81.png,0.37,1.2,37,0.5,0,26,26,36,1,,,,,,,,,,,,,,,,,,,,,,,,,,,,,,,,,,,,,,,,
,,,,,SPR24_096,19,Female,2024-04-25_16h43.02.913,jersey_experiment_5_v0,2023.2.2,Win32,85.47008547,,,,,,,,,,,,,,,,390.4532,391.4998,391.4999,392.9354,return,0.5058,,29.16666667,,,,,,FBP-PT-91.png,0.35,1.2,56,0.25,0,27,27,55,1,,,,,,,,,,,,,,,,,,,,,,,,,,,,,,,,,,,,,,,,
,,,,,SPR24_096,19,Female,2024-04-25_16h43.02.913,jersey_experiment_5_v0,2023.2.2,Win32,85.47008547,,,,,,,,,,,,,,,,392.9356,394.2295,394.2295,397.4179,return,1.4721,,67.578125,,,,,,FBP-OG-17.png,0.43,1.2,4,0.5,0,28,28,3,1,,,,,,,,,,,,,,,,,,,,,,,,,,,,,,,,,,,,,,,,
,,,,,SPR24_096,19,Female,2024-04-25_16h43.02.913,jersey_experiment_5_v0,2023.2.2,Win32,85.47008547,,,,,,,,,,,,,,,,397.4182,398.712,398.7121,399.818,return,0.4004,,68.61979167,,,,,,FBP-RB-71.png,0.4,1.2,33,0.5,0,29,29,32,1,,,,,,,,,,,,,,,,,,,,,,,,,,,,,,,,,,,,,,,,
,,,,,SPR24_096,19,Female,2024-04-25_16h43.02.913,jersey_experiment_5_v0,2023.2.2,Win32,85.47008547,,,,,,,,,,,,,,,,399.8182,401.1121,401.1121,402.3239,return,0.5462,,69.140625,,,,,,FBP-RB-81.png,0.4,1.2,38,0.5,0,30,30,37,1,,,,,,,,,,,,,,,,,,,,,,,,,,,,,,,,,,,,,,,,
,,,,,SPR24_096,19,Female,2024-04-25_16h43.02.913,jersey_experiment_5_v0,2023.2.2,Win32,85.47008547,,,,,,,,,,,,,,,,402.3241,403.6182,403.6182,406.5829,return,0.4961,,48.56770833,,,,,,FBP-RB-91.png,0.37,1.2,42,0.5,0,31,31,41,1,,,,,,,,,,,,,,,,,,,,,,,,,,,,,,,,,,,,,,,,
,,,,,SPR24_096,19,Female,2024-04-25_16h43.02.913,jersey_experiment_5_v0,2023.2.2,Win32,85.47008547,,,,,,,,,,,,,,,,406.5831,407.8771,407.8771,411.9596,return,3.082,,71.09375,,,,,,FBP-RB-81.png,0.45,1.2,40,0.5,0,32,32,39,1,,,,,,,,,,,,,,,,,,,,,,,,,,,,,,,,,,,,,,,,
,,,,,SPR24_096,19,Female,2024-04-25_16h43.02.913,jersey_experiment_5_v0,2023.2.2,Win32,85.47008547,,,,,,,,,,,,,,,,411.9598,413.0066,413.0066,415.1244,return,0.5795,,51.171875,,,,,,FBP-YG-81.png,0.4,1.2,23,0.25,0,33,33,22,1,,,,,,,,,,,,,,,,,,,,,,,,,,,,,,,,,,,,,,,,
,,,,,SPR24_096,19,Female,2024-04-25_16h43.02.913,jersey_experiment_5_v0,2023.2.2,Win32,85.47008547,,,,,,,,,,,,,,,,415.1246,416.4185,416.4185,418.1361,return,0.4476,,52.99479167,,,,,,FBP-OG-17.png,0.4,1.2,3,0.5,0,34,34,2,1,,,,,,,,,,,,,,,,,,,,,,,,,,,,,,,,,,,,,,,,
,,,,,SPR24_096,19,Female,2024-04-25_16h43.02.913,jersey_experiment_5_v0,2023.2.2,Win32,85.47008547,,,,,,,,,,,,,,,,418.1364,419.4304,419.4304,420.4424,return,0.4344,,53.25520833,,,,,,FBP-OG-19.png,0.4,1.2,13,0.5,0,35,35,12,1,,,,,,,,,,,,,,,,,,,,,,,,,,,,,,,,,,,,,,,,
,,,,,SPR24_096,19,Female,2024-04-25_16h43.02.913,jersey_experiment_5_v0,2023.2.2,Win32,85.47008547,,,,,,,,,,,,,,,,420.4425,421.7363,421.7364,423.2422,return,0.4941,,39.97395833,,,,,,FBP-OG-18.png,0.35,1.2,6,0.5,0,36,36,5,1,,,,,,,,,,,,,,,,,,,,,,,,,,,,,,,,,,,,,,,,
,,,,,SPR24_096,19,Female,2024-04-25_16h43.02.913,jersey_experiment_5_v0,2023.2.2,Win32,85.47008547,,,,,,,,,,,,,,,,423.2424,424.2895,424.2895,426.2896,return,0.4426,,34.765625,,,,,,FBP-YG-91.png,0.37,1.2,27,0.25,0,37,37,26,1,,,,,,,,,,,,,,,,,,,,,,,,,,,,,,,,,,,,,,,,
,,,,,SPR24_096,19,Female,2024-04-25_16h43.02.913,jersey_experiment_5_v0,2023.2.2,Win32,85.47008547,,,,,,,,,,,,,,,,426.2898,427.3365,427.3365,429.6661,return,1.0653,,68.22916667,,,,,,FBP-YG-91.png,0.43,1.2,29,0.25,0,38,38,28,1,,,,,,,,,,,,,,,,,,,,,,,,,,,,,,,,,,,,,,,,
,,,,,SPR24_096,19,Female,2024-04-25_16h43.02.913,jersey_experiment_5_v0,2023.2.2,Win32,85.47008547,,,,,,,,,,,,,,,,429.6663,430.7133,430.7133,432.4544,return,0.6966,,29.55729167,,,,,,FBP-PT-71.png,0.35,1.2,46,0.25,0,39,39,45,1,,,,,,,,,,,,,,,,,,,,,,,,,,,,,,,,,,,,,,,,
,,,,,SPR24_096,19,Female,2024-04-25_16h43.02.913,jersey_experiment_5_v0,2023.2.2,Win32,85.47008547,,,,,,,,,,,,,,,,432.4546,433.7485,433.7486,436.3134,return,0.6109,,79.42708333,,,,,,FBP-OG-19.png,0.43,1.2,14,0.5,0,40,40,13,1,,,,,,,,,,,,,,,,,,,,,,,,,,,,,,,,,,,,,,,,
,,,,,SPR24_096,19,Female,2024-04-25_16h43.02.913,jersey_experiment_5_v0,2023.2.2,Win32,85.47008547,,,,,,,,,,,,,,,,436.3137,437.6076,437.6077,439.0194,return,0.5074,,77.734375,,,,,,FBP-OG-18.png,0.43,1.2,9,0.5,0,41,41,8,1,,,,,,,,,,,,,,,,,,,,,,,,,,,,,,,,,,,,,,,,
,,,,,SPR24_096,19,Female,2024-04-25_16h43.02.913,jersey_experiment_5_v0,2023.2.2,Win32,85.47008547,,,,,,,,,,,,,,,,439.0196,440.0664,440.0664,442.7253,return,1.0021,,67.96875,,,,,,FBP-PT-91.png,0.43,1.2,59,0.25,0,42,42,58,1,,,,,,,,,,,,,,,,,,,,,,,,,,,,,,,,,,,,,,,,
,,,,,SPR24_096,19,Female,2024-04-25_16h43.02.913,jersey_experiment_5_v0,2023.2.2,Win32,85.47008547,,,,,,,,,,,,,,,,442.7255,444.0195,444.0195,445.3607,return,0.489,,36.45833333,,,,,,FBP-OG-17.png,0.37,1.2,2,0.5,0,43,43,1,1,,,,,,,,,,,,,,,,,,,,,,,,,,,,,,,,,,,,,,,,
,,,,,SPR24_096,19,Female,2024-04-25_16h43.02.913,jersey_experiment_5_v0,2023.2.2,Win32,85.47008547,,,,,,,,,,,,,,,,445.3609,446.4078,446.4078,449.9141,return,2.2031,,85.546875,,,,,,FBP-YG-91.png,0.45,1.2,30,0.25,0,44,44,29,1,,,,,,,,,,,,,,,,,,,,,,,,,,,,,,,,,,,,,,,,
,,,,,SPR24_096,19,Female,2024-04-25_16h43.02.913,jersey_experiment_5_v0,2023.2.2,Win32,85.47008547,,,,,,,,,,,,,,,,449.9142,451.2081,451.2082,453.3138,return,1.0653,,28.90625,,,,,,FBP-OG-19.png,0.37,1.2,12,0.5,0,45,45,11,1,,,,,,,,,,,,,,,,,,,,,,,,,,,,,,,,,,,,,,,,
,,,,,SPR24_096,19,Female,2024-04-25_16h43.02.913,jersey_experiment_5_v0,2023.2.2,Win32,85.47008547,,,,,,,,,,,,,,,,453.314,454.3611,454.3611,456.9141,return,0.5712,,33.85416667,,,,,,FBP-YG-71.png,0.37,1.2,17,0.25,0,46,46,16,1,,,,,,,,,,,,,,,,,,,,,,,,,,,,,,,,,,,,,,,,
,,,,,SPR24_096,19,Female,2024-04-25_16h43.02.913,jersey_experiment_5_v0,2023.2.2,Win32,85.47008547,,,,,,,,,,,,,,,,456.9143,458.2082,458.2083,460.0553,return,0.5319,,27.99479167,,,,,,FBP-OG-17.png,0.35,1.2,1,0.5,0,47,47,0,1,,,,,,,,,,,,,,,,,,,,,,,,,,,,,,,,,,,,,,,,
,,,,,SPR24_096,19,Female,2024-04-25_16h43.02.913,jersey_experiment_5_v0,2023.2.2,Win32,85.47008547,,,,,,,,,,,,,,,,460.0554,461.3494,461.3495,463.8672,return,0.5431,,51.5625,,,,,,FBP-OG-18.png,0.4,1.2,8,0.5,0,48,48,7,1,,,,,,,,,,,,,,,,,,,,,,,,,,,,,,,,,,,,,,,,
,,,,,SPR24_096,19,Female,2024-04-25_16h43.02.913,jersey_experiment_5_v0,2023.2.2,Win32,85.47008547,,,,,,,,,,,,,,,,463.8675,465.1615,465.1615,466.632,return,0.5181,,63.80208333,,,,,,FBP-OG-18.png,0.45,1.2,10,0.5,0,49,49,9,1,,,,,,,,,,,,,,,,,,,,,,,,,,,,,,,,,,,,,,,,
,,,,,SPR24_096,19,Female,2024-04-25_16h43.02.913,jersey_experiment_5_v0,2023.2.2,Win32,85.47008547,,,,,,,,,,,,,,,,466.6321,467.9263,467.9263,470.091,return,0.5882,,20.96354167,,,,,,FBP-RB-81.png,0.35,1.2,36,0.5,0,50,50,35,1,,,,,,,,,,,,,,,,,,,,,,,,,,,,,,,,,,,,,,,,
,,,,,SPR24_096,19,Female,2024-04-25_16h43.02.913,jersey_experiment_5_v0,2023.2.2,Win32,85.47008547,,,,,,,,,,,,,,,,470.0911,471.1381,471.1382,474.4087,return,0.4702,,53.515625,,,,,,FBP-YG-71.png,0.45,1.2,20,0.25,0,51,51,19,1,,,,,,,,,,,,,,,,,,,,,,,,,,,,,,,,,,,,,,,,
,,,,,SPR24_096,19,Female,2024-04-25_16h43.02.913,jersey_experiment_5_v0,2023.2.2,Win32,85.47008547,,,,,,,,,,,,,,,,474.409,475.4558,475.4559,478.0797,return,1.2207,,15.625,,,,,,FBP-YG-71.png,0.35,1.2,16,0.25,0,52,52,15,1,,,,,,,,,,,,,,,,,,,,,,,,,,,,,,,,,,,,,,,,
,,,,,SPR24_096,19,Female,2024-04-25_16h43.02.913,jersey_experiment_5_v0,2023.2.2,Win32,85.47008547,,,,,,,,,,,,,,,,478.0798,479.3737,479.3737,481.7032,return,0.6355,,9.375,,,,,,FBP-RB-71.png,0.35,1.2,31,0.5,0,53,53,30,1,,,,,,,,,,,,,,,,,,,,,,,,,,,,,,,,,,,,,,,,
,,,,,SPR24_096,19,Female,2024-04-25_16h43.02.913,jersey_experiment_5_v0,2023.2.2,Win32,85.47008547,,,,,,,,,,,,,,,,481.7034,482.9974,482.9975,485.1151,return,0.5319,,21.484375,,,,,,FBP-OG-19.png,0.35,1.2,11,0.5,0,54,54,10,1,,,,,,,,,,,,,,,,,,,,,,,,,,,,,,,,,,,,,,,,
,,,,,SPR24_096,19,Female,2024-04-25_16h43.02.913,jersey_experiment_5_v0,2023.2.2,Win32,85.47008547,,,,,,,,,,,,,,,,485.1153,486.1622,486.1622,489.6329,return,0.5008,,56.640625,,,,,,FBP-PT-91.png,0.4,1.2,58,0.25,0,55,55,57,1,,,,,,,,,,,,,,,,,,,,,,,,,,,,,,,,,,,,,,,,
,,,,,SPR24_096,19,Female,2024-04-25_16h43.02.913,jersey_experiment_5_v0,2023.2.2,Win32,85.47008547,,,,,,,,,,,,,,,,489.6332,490.6798,490.6799,495.7859,return,2.3158,,55.98958333,,,,,,FBP-PT-71.png,0.4,1.2,48,0.25,0,56,56,47,1,,,,,,,,,,,,,,,,,,,,,,,,,,,,,,,,,,,,,,,,
,,,,,SPR24_096,19,Female,2024-04-25_16h43.02.913,jersey_experiment_5_v0,2023.2.2,Win32,85.47008547,,,,,,,,,,,,,,,,495.7902,497.092,497.092,499.0332,return,0.7167,,60.15625,,,,,,FBP-RB-91.png,0.4,1.2,43,0.5,0,57,57,42,1,,,,,,,,,,,,,,,,,,,,,,,,,,,,,,,,,,,,,,,,
,,,,,SPR24_096,19,Female,2024-04-25_16h43.02.913,jersey_experiment_5_v0,2023.2.2,Win32,85.47008547,,,,,,,,,,,,,,,,499.0334,500.0804,500.0804,501.4804,return,0.5178,,42.1875,,,,,,FBP-PT-71.png,0.37,1.2,47,0.25,0,58,58,46,1,,,,,,,,,,,,,,,,,,,,,,,,,,,,,,,,,,,,,,,,
,,,,,SPR24_096,19,Female,2024-04-25_16h43.02.913,jersey_experiment_5_v0,2023.2.2,Win32,85.47008547,,,,,,,,,,,,,,,,501.4806,502.5274,502.5275,503.9274,return,0.5051,,59.24479167,,,,,,FBP-YG-91.png,0.4,1.2,28,0.25,0,59,59,27,1,,,,,,,,,,,,,,,,,,,,,,,,,,,,,,,,,,,,,,,,
,,,,,SPR24_096,19,Female,2024-04-25_16h43.02.913,jersey_experiment_5_v0,2023.2.2,Win32,85.47008547,,,,,,,,,,,,,,,,,,,,,,,,,,,,,,,,,,,,,,,503.9278,623.9201,,,,,,,,,,,,,,,,,,,,,,,,,,,,,,,,,,,,,,
,,,,,SPR24_096,19,Female,2024-04-25_16h43.02.913,jersey_experiment_5_v0,2023.2.2,Win32,85.47008547,,,,,,,,,,,,,,,,,,,,,,,,,,,,,,,,,,,,,,,,,623.9201,630.3794,return,6.447,,,,,,,,,,,,,,,,,,,,,,,,,,,,,,,,,,
,,,,,SPR24_096,19,Female,2024-04-25_16h43.02.913,jersey_experiment_5_v0,2023.2.2,Win32,85.47008547,,,,,,,,,,,,,,,,630.3853,631.685,631.685,633.5086,return,0.6022,,29.6875,,,,,,FBP-PT-18.png,0.35,1.2,51,0.5,,,,,,,,,,,,,0,0,0,50,1,,,,,,,,,,,,,,,,,,,,,,,,,,,,
,,,,,SPR24_096,19,Female,2024-04-25_16h43.02.913,jersey_experiment_5_v0,2023.2.2,Win32,85.47008547,,,,,,,,,,,,,,,,633.5088,634.8028,634.8028,635.8615,return,0.0968,,67.70833333,,,,,,FBP-YG-17.png,0.43,1.2,19,0.5,,,,,,,,,,,,,0,1,1,18,1,,,,,,,,,,,,,,,,,,,,,,,,,,,,
,,,,,SPR24_096,19,Female,2024-04-25_16h43.02.913,jersey_experiment_5_v0,2023.2.2,Win32,85.47008547,,,,,,,,,,,,,,,,635.8617,636.9086,636.9086,637.8029,return,0.1174,,66.66666667,,,,,,FBP-RB-17.png,0.4,1.2,33,0.25,,,,,,,,,,,,,0,2,2,32,1,,,,,,,,,,,,,,,,,,,,,,,,,,,,
,,,,,SPR24_096,19,Female,2024-04-25_16h43.02.913,jersey_experiment_5_v0,2023.2.2,Win32,85.47008547,,,,,,,,,,,,,,,,637.8031,638.8499,638.8499,639.7322,return,0.0494,,57.68229167,,,,,,FBP-OG-71.png,0.37,1.2,2,0.25,,,,,,,,,,,,,0,3,3,1,1,,,,,,,,,,,,,,,,,,,,,,,,,,,,
,,,,,SPR24_096,19,Female,2024-04-25_16h43.02.913,jersey_experiment_5_v0,2023.2.2,Win32,85.47008547,,,,,,,,,,,,,,,,639.7325,641.0265,641.0265,641.7914,return,0.0197,,41.40625,,,,,,FBP-YG-18.png,0.37,1.2,22,0.5,,,,,,,,,,,,,0,4,4,21,1,,,,,,,,,,,,,,,,,,,,,,,,,,,,
,,,,,SPR24_096,19,Female,2024-04-25_16h43.02.913,jersey_experiment_5_v0,2023.2.2,Win32,85.47008547,,,,,,,,,,,,,,,,641.7915,643.0853,643.0853,644.097,return,0.1337,,63.54166667,,,,,,FBP-PT-18.png,0.4,1.2,53,0.5,,,,,,,,,,,,,0,5,5,52,1,,,,,,,,,,,,,,,,,,,,,,,,,,,,
,,,,,SPR24_096,19,Female,2024-04-25_16h43.02.913,jersey_experiment_5_v0,2023.2.2,Win32,85.47008547,,,,,,,,,,,,,,,,644.0973,645.3913,645.3913,646.6503,return,0.0947,,47.65625,,,,,,FBP-YG-19.png,0.37,1.2,27,0.5,,,,,,,,,,,,,0,6,6,26,1,,,,,,,,,,,,,,,,,,,,,,,,,,,,
,,,,,SPR24_096,19,Female,2024-04-25_16h43.02.913,jersey_experiment_5_v0,2023.2.2,Win32,85.47008547,,,,,,,,,,,,,,,,646.6504,647.9444,647.9444,648.8268,return,0.188,,58.984375,,,,,,FBP-YG-17.png,0.4,1.2,18,0.5,,,,,,,,,,,,,0,7,7,17,1,,,,,,,,,,,,,,,,,,,,,,,,,,,,
,,,,,SPR24_096,19,Female,2024-04-25_16h43.02.913,jersey_experiment_5_v0,2023.2.2,Win32,85.47008547,,,,,,,,,,,,,,,,648.827,649.8738,649.8738,651.168,return,0.1471,,73.17708333,,,,,,FBP-RB-19.png,0.45,1.2,45,0.25,,,,,,,,,,,,,0,8,8,44,1,,,,,,,,,,,,,,,,,,,,,,,,,,,,
,,,,,SPR24_096,19,Female,2024-04-25_16h43.02.913,jersey_experiment_5_v0,2023.2.2,Win32,85.47008547,,,,,,,,,,,,,,,,651.1682,652.4622,652.4623,653.1445,return,0.166,,78.515625,,,,,,FBP-PT-17.png,0.45,1.2,50,0.5,,,,,,,,,,,,,0,9,9,49,1,,,,,,,,,,,,,,,,,,,,,,,,,,,,
,,,,,SPR24_096,19,Female,2024-04-25_16h43.02.913,jersey_experiment_5_v0,2023.2.2,Win32,85.47008547,,,,,,,,,,,,,,,,653.1448,654.1916,654.1916,655.0269,return,0.0513,,72.52604167,,,,,,FBP-OG-71.png,0.4,1.2,3,0.25,,,,,,,,,,,,,0,10,10,2,1,,,,,,,,,,,,,,,,,,,,,,,,,,,,
,,,,,SPR24_096,19,Female,2024-04-25_16h43.02.913,jersey_experiment_5_v0,2023.2.2,Win32,85.47008547,,,,,,,,,,,,,,,,655.0273,656.321,656.3212,657.5564,return,0.7334,,68.359375,,,,,,FBP-PT-19.png,0.4,1.2,58,0.5,,,,,,,,,,,,,0,11,11,57,1,,,,,,,,,,,,,,,,,,,,,,,,,,,,
,,,,,SPR24_096,19,Female,2024-04-25_16h43.02.913,jersey_experiment_5_v0,2023.2.2,Win32,85.47008547,,,,,,,,,,,,,,,,657.5567,658.6035,658.6035,659.5213,return,0.0654,,73.828125,,,,,,FBP-OG-91.png,0.43,1.2,14,0.25,,,,,,,,,,,,,0,12,12,13,1,,,,,,,,,,,,,,,,,,,,,,,,,,,,
,,,,,SPR24_096,19,Female,2024-04-25_16h43.02.913,jersey_experiment_5_v0,2023.2.2,Win32,85.47008547,,,,,,,,,,,,,,,,659.5215,660.5682,660.5683,661.4742,return,0.1352,,81.38020833,,,,,,FBP-RB-18.png,0.45,1.2,40,0.25,,,,,,,,,,,,,0,13,13,39,1,,,,,,,,,,,,,,,,,,,,,,,,,,,,
,,,,,SPR24_096,19,Female,2024-04-25_16h43.02.913,jersey_experiment_5_v0,2023.2.2,Win32,85.47008547,,,,,,,,,,,,,,,,661.4745,662.7682,662.7683,663.3921,return,0.0185,,83.46354167,,,,,,FBP-YG-19.png,0.45,1.2,30,0.5,,,,,,,,,,,,,0,14,14,29,1,,,,,,,,,,,,,,,,,,,,,,,,,,,,
,,,,,SPR24_096,19,Female,2024-04-25_16h43.02.913,jersey_experiment_5_v0,2023.2.2,Win32,85.47008547,,,,,,,,,,,,,,,,663.3923,664.4392,664.4393,665.0625,return,0.0593,,85.15625,,,,,,FBP-OG-81.png,0.43,1.2,9,0.25,,,,,,,,,,,,,0,15,15,8,1,,,,,,,,,,,,,,,,,,,,,,,,,,,,
,,,,,SPR24_096,19,Female,2024-04-25_16h43.02.913,jersey_experiment_5_v0,2023.2.2,Win32,85.47008547,,,,,,,,,,,,,,,,665.0629,666.3568,666.3569,667.6863,return,0.0842,,47.00520833,,,,,,FBP-PT-17.png,0.37,1.2,47,0.5,,,,,,,,,,,,,0,16,16,46,1,,,,,,,,,,,,,,,,,,,,,,,,,,,,
,,,,,SPR24_096,19,Female,2024-04-25_16h43.02.913,jersey_experiment_5_v0,2023.2.2,Win32,85.47008547,,,,,,,,,,,,,,,,667.6865,668.9804,668.9804,670.2984,return,0.1319,,29.55729167,,,,,,FBP-PT-17.png,0.35,1.2,46,0.5,,,,,,,,,,,,,0,17,17,45,1,,,,,,,,,,,,,,,,,,,,,,,,,,,,
,,,,,SPR24_096,19,Female,2024-04-25_16h43.02.913,jersey_experiment_5_v0,2023.2.2,Win32,85.47008547,,,,,,,,,,,,,,,,670.2986,671.5922,671.5922,672.7688,return,0.2184,,31.77083333,,,,,,FBP-PT-19.png,0.37,1.2,57,0.5,,,,,,,,,,,,,0,18,18,56,1,,,,,,,,,,,,,,,,,,,,,,,,,,,,
,,,,,SPR24_096,19,Female,2024-04-25_16h43.02.913,jersey_experiment_5_v0,2023.2.2,Win32,85.47008547,,,,,,,,,,,,,,,,672.7689,674.0629,674.0629,676.1806,return,0.8726,,77.21354167,,,,,,FBP-YG-17.png,0.45,1.2,20,0.5,,,,,,,,,,,,,0,19,19,19,1,,,,,,,,,,,,,,,,,,,,,,,,,,,,
,,,,,SPR24_096,19,Female,2024-04-25_16h43.02.913,jersey_experiment_5_v0,2023.2.2,Win32,85.47008547,,,,,,,,,,,,,,,,676.1808,677.4748,677.4749,679.0749,return,0.8988,,47.52604167,,,,,,FBP-YG-19.png,0.4,1.2,28,0.5,,,,,,,,,,,,,0,20,20,27,1,,,,,,,,,,,,,,,,,,,,,,,,,,,,
,,,,,SPR24_096,19,Female,2024-04-25_16h43.02.913,jersey_experiment_5_v0,2023.2.2,Win32,85.47008547,,,,,,,,,,,,,,,,679.0751,680.1219,680.1219,681.0749,return,0.0747,,72.65625,,,,,,FBP-OG-91.png,0.45,1.2,15,0.25,,,,,,,,,,,,,0,21,21,14,1,,,,,,,,,,,,,,,,,,,,,,,,,,,,
,,,,,SPR24_096,19,Female,2024-04-25_16h43.02.913,jersey_experiment_5_v0,2023.2.2,Win32,85.47008547,,,,,,,,,,,,,,,,681.0752,682.1218,682.1219,683.3812,return,0.0856,,32.29166667,,,,,,FBP-RB-19.png,0.35,1.2,41,0.25,,,,,,,,,,,,,0,22,22,40,1,,,,,,,,,,,,,,,,,,,,,,,,,,,,
,,,,,SPR24_096,19,Female,2024-04-25_16h43.02.913,jersey_experiment_5_v0,2023.2.2,Win32,85.47008547,,,,,,,,,,,,,,,,683.3814,684.4279,684.4279,685.687,return,0.0612,,35.546875,,,,,,FBP-OG-81.png,0.35,1.2,6,0.25,,,,,,,,,,,,,0,23,23,5,1,,,,,,,,,,,,,,,,,,,,,,,,,,,,
,,,,,SPR24_096,19,Female,2024-04-25_16h43.02.913,jersey_experiment_5_v0,2023.2.2,Win32,85.47008547,,,,,,,,,,,,,,,,685.6872,686.981,686.981,688.1459,return,0.0405,,17.70833333,,,,,,FBP-YG-18.png,0.35,1.2,21,0.5,,,,,,,,,,,,,0,24,24,20,1,,,,,,,,,,,,,,,,,,,,,,,,,,,,
,,,,,SPR24_096,19,Female,2024-04-25_16h43.02.913,jersey_experiment_5_v0,2023.2.2,Win32,85.47008547,,,,,,,,,,,,,,,,688.1461,689.4401,689.4401,690.7459,return,0.0929,,72.91666667,,,,,,FBP-PT-18.png,0.43,1.2,54,0.5,,,,,,,,,,,,,0,25,25,53,1,,,,,,,,,,,,,,,,,,,,,,,,,,,,
,,,,,SPR24_096,19,Female,2024-04-25_16h43.02.913,jersey_experiment_5_v0,2023.2.2,Win32,85.47008547,,,,,,,,,,,,,,,,690.7461,691.7931,691.7931,695.2992,return,2.4865,,36.71875,,,,,,FBP-RB-17.png,0.37,1.2,32,0.25,,,,,,,,,,,,,0,26,26,31,1,,,,,,,,,,,,,,,,,,,,,,,,,,,,
,,,,,SPR24_096,19,Female,2024-04-25_16h43.02.913,jersey_experiment_5_v0,2023.2.2,Win32,85.47008547,,,,,,,,,,,,,,,,695.2994,696.593,696.5931,697.4167,return,0.058,,73.17708333,,,,,,FBP-PT-17.png,0.43,1.2,49,0.5,,,,,,,,,,,,,0,27,27,48,1,,,,,,,,,,,,,,,,,,,,,,,,,,,,
,,,,,SPR24_096,19,Female,2024-04-25_16h43.02.913,jersey_experiment_5_v0,2023.2.2,Win32,85.47008547,,,,,,,,,,,,,,,,697.4169,698.7108,698.7108,699.6875,return,0.4942,,83.33333333,,,,,,FBP-PT-18.png,0.45,1.2,55,0.5,,,,,,,,,,,,,0,28,28,54,1,,,,,,,,,,,,,,,,,,,,,,,,,,,,
,,,,,SPR24_096,19,Female,2024-04-25_16h43.02.913,jersey_experiment_5_v0,2023.2.2,Win32,85.47008547,,,,,,,,,,,,,,,,699.6877,700.9815,700.9816,701.5109,return,0.058,,82.55208333,,,,,,FBP-PT-19.png,0.45,1.2,60,0.5,,,,,,,,,,,,,0,29,29,59,1,,,,,,,,,,,,,,,,,,,,,,,,,,,,
,,,,,SPR24_096,19,Female,2024-04-25_16h43.02.913,jersey_experiment_5_v0,2023.2.2,Win32,85.47008547,,,,,,,,,,,,,,,,701.5111,702.558,702.5581,703.2405,return,0.1074,,79.94791667,,,,,,FBP-OG-71.png,0.43,1.2,4,0.25,,,,,,,,,,,,,0,30,30,3,1,,,,,,,,,,,,,,,,,,,,,,,,,,,,
,,,,,SPR24_096,19,Female,2024-04-25_16h43.02.913,jersey_experiment_5_v0,2023.2.2,Win32,85.47008547,,,,,,,,,,,,,,,,703.2407,704.2874,704.2875,704.758,return,0.0593,,79.94791667,,,,,,FBP-OG-81.png,0.45,1.2,10,0.25,,,,,,,,,,,,,0,31,31,9,1,,,,,,,,,,,,,,,,,,,,,,,,,,,,
,,,,,SPR24_096,19,Female,2024-04-25_16h43.02.913,jersey_experiment_5_v0,2023.2.2,Win32,85.47008547,,,,,,,,,,,,,,,,704.7583,706.0523,706.0523,706.9465,return,0.0528,,49.34895833,,,,,,FBP-YG-17.png,0.37,1.2,17,0.5,,,,,,,,,,,,,0,32,32,16,1,,,,,,,,,,,,,,,,,,,,,,,,,,,,
,,,,,SPR24_096,19,Female,2024-04-25_16h43.02.913,jersey_experiment_5_v0,2023.2.2,Win32,85.47008547,,,,,,,,,,,,,,,,706.9467,708.2406,708.2406,709.0759,return,0.0394,,57.16145833,,,,,,FBP-YG-19.png,0.43,1.2,29,0.5,,,,,,,,,,,,,0,33,33,28,1,,,,,,,,,,,,,,,,,,,,,,,,,,,,
,,,,,SPR24_096,19,Female,2024-04-25_16h43.02.913,jersey_experiment_5_v0,2023.2.2,Win32,85.47008547,,,,,,,,,,,,,,,,709.0761,710.1229,710.1229,710.8173,return,0.1001,,57.16145833,,,,,,FBP-RB-19.png,0.4,1.2,43,0.25,,,,,,,,,,,,,0,34,34,42,1,,,,,,,,,,,,,,,,,,,,,,,,,,,,
,,,,,SPR24_096,19,Female,2024-04-25_16h43.02.913,jersey_experiment_5_v0,2023.2.2,Win32,85.47008547,,,,,,,,,,,,,,,,710.8174,712.1113,712.1114,712.7114,return,0.0713,,62.76041667,,,,,,FBP-YG-18.png,0.45,1.2,25,0.5,,,,,,,,,,,,,0,35,35,24,1,,,,,,,,,,,,,,,,,,,,,,,,,,,,
,,,,,SPR24_096,19,Female,2024-04-25_16h43.02.913,jersey_experiment_5_v0,2023.2.2,Win32,85.47008547,,,,,,,,,,,,,,,,712.7115,714.0054,714.0054,714.4526,return,0.0141,,62.76041667,,,,,,FBP-YG-18.png,0.43,1.2,24,0.5,,,,,,,,,,,,,0,36,36,23,1,,,,,,,,,,,,,,,,,,,,,,,,,,,,
,,,,,SPR24_096,19,Female,2024-04-25_16h43.02.913,jersey_experiment_5_v0,2023.2.2,Win32,85.47008547,,,,,,,,,,,,,,,,714.4528,715.4996,715.4996,716.641,return,0.1482,,34.63541667,,,,,,FBP-OG-71.png,0.35,1.2,1,0.25,,,,,,,,,,,,,0,37,37,0,1,,,,,,,,,,,,,,,,,,,,,,,,,,,,
,,,,,SPR24_096,19,Female,2024-04-25_16h43.02.913,jersey_experiment_5_v0,2023.2.2,Win32,85.47008547,,,,,,,,,,,,,,,,716.6412,717.688,717.688,719.3939,return,0.8765,,42.05729167,,,,,,FBP-OG-91.png,0.37,1.2,12,0.25,,,,,,,,,,,,,0,38,38,11,1,,,,,,,,,,,,,,,,,,,,,,,,,,,,
,,,,,SPR24_096,19,Female,2024-04-25_16h43.02.913,jersey_experiment_5_v0,2023.2.2,Win32,85.47008547,,,,,,,,,,,,,,,,719.3941,720.6881,720.6882,721.7117,return,0.0906,,22.78645833,,,,,,FBP-YG-17.png,0.35,1.2,16,0.5,,,,,,,,,,,,,0,39,39,15,1,,,,,,,,,,,,,,,,,,,,,,,,,,,,
,,,,,SPR24_096,19,Female,2024-04-25_16h43.02.913,jersey_experiment_5_v0,2023.2.2,Win32,85.47008547,,,,,,,,,,,,,,,,721.7119,722.7588,722.7588,724.3706,return,0.5117,,74.609375,,,,,,FBP-RB-17.png,0.43,1.2,34,0.25,,,,,,,,,,,,,0,40,40,33,1,,,,,,,,,,,,,,,,,,,,,,,,,,,,
,,,,,SPR24_096,19,Female,2024-04-25_16h43.02.913,jersey_experiment_5_v0,2023.2.2,Win32,85.47008547,,,,,,,,,,,,,,,,724.3707,725.4176,725.4176,726.1354,return,0.0837,,72.52604167,,,,,,FBP-OG-91.png,0.4,1.2,13,0.25,,,,,,,,,,,,,0,41,41,12,1,,,,,,,,,,,,,,,,,,,,,,,,,,,,
,,,,,SPR24_096,19,Female,2024-04-25_16h43.02.913,jersey_experiment_5_v0,2023.2.2,Win32,85.47008547,,,,,,,,,,,,,,,,726.1356,727.1824,727.1824,727.6531,return,0.0264,,72.39583333,,,,,,FBP-RB-19.png,0.43,1.2,44,0.25,,,,,,,,,,,,,0,42,42,43,1,,,,,,,,,,,,,,,,,,,,,,,,,,,,
,,,,,SPR24_096,19,Female,2024-04-25_16h43.02.913,jersey_experiment_5_v0,2023.2.2,Win32,85.47008547,,,,,,,,,,,,,,,,727.6533,728.7001,728.7001,729.2179,return,0.0652,,71.484375,,,,,,FBP-RB-18.png,0.4,1.2,38,0.25,,,,,,,,,,,,,0,43,43,37,1,,,,,,,,,,,,,,,,,,,,,,,,,,,,
,,,,,SPR24_096,19,Female,2024-04-25_16h43.02.913,jersey_experiment_5_v0,2023.2.2,Win32,85.47008547,,,,,,,,,,,,,,,,729.2182,730.5121,730.5121,731.7474,return,0.274,,26.43229167,,,,,,FBP-YG-19.png,0.35,1.2,26,0.5,,,,,,,,,,,,,0,44,44,25,1,,,,,,,,,,,,,,,,,,,,,,,,,,,,
,,,,,SPR24_096,19,Female,2024-04-25_16h43.02.913,jersey_experiment_5_v0,2023.2.2,Win32,85.47008547,,,,,,,,,,,,,,,,731.7476,732.7944,732.7944,734.0887,return,0.3669,,33.59375,,,,,,FBP-RB-19.png,0.37,1.2,42,0.25,,,,,,,,,,,,,0,45,45,41,1,,,,,,,,,,,,,,,,,,,,,,,,,,,,
,,,,,SPR24_096,19,Female,2024-04-25_16h43.02.913,jersey_experiment_5_v0,2023.2.2,Win32,85.47008547,,,,,,,,,,,,,,,,734.089,735.383,735.383,736.065,return,0.0188,,16.53645833,,,,,,FBP-PT-19.png,0.35,1.2,56,0.5,,,,,,,,,,,,,0,46,46,55,1,,,,,,,,,,,,,,,,,,,,,,,,,,,,
,,,,,SPR24_096,19,Female,2024-04-25_16h43.02.913,jersey_experiment_5_v0,2023.2.2,Win32,85.47008547,,,,,,,,,,,,,,,,736.0653,737.1121,737.1121,738.371,return,0.1431,,72.91666667,,,,,,FBP-RB-18.png,0.43,1.2,39,0.25,,,,,,,,,,,,,0,47,47,38,1,,,,,,,,,,,,,,,,,,,,,,,,,,,,
,,,,,SPR24_096,19,Female,2024-04-25_16h43.02.913,jersey_experiment_5_v0,2023.2.2,Win32,85.47008547,,,,,,,,,,,,,,,,738.3712,739.4181,739.4182,740.7359,return,0.0638,,51.04166667,,,,,,FBP-RB-18.png,0.37,1.2,37,0.25,,,,,,,,,,,,,0,48,48,36,1,,,,,,,,,,,,,,,,,,,,,,,,,,,,
,,,,,SPR24_096,19,Female,2024-04-25_16h43.02.913,jersey_experiment_5_v0,2023.2.2,Win32,85.47008547,,,,,,,,,,,,,,,,740.7361,742.0299,742.0299,742.983,return,0.0366,,42.31770833,,,,,,FBP-PT-18.png,0.37,1.2,52,0.5,,,,,,,,,,,,,0,49,49,51,1,,,,,,,,,,,,,,,,,,,,,,,,,,,,
,,,,,SPR24_096,19,Female,2024-04-25_16h43.02.913,jersey_experiment_5_v0,2023.2.2,Win32,85.47008547,,,,,,,,,,,,,,,,742.9833,744.2771,744.2772,745.3594,return,0.1142,,50.52083333,,,,,,FBP-YG-18.png,0.4,1.2,23,0.5,,,,,,,,,,,,,0,50,50,22,1,,,,,,,,,,,,,,,,,,,,,,,,,,,,
,,,,,SPR24_096,19,Female,2024-04-25_16h43.02.913,jersey_experiment_5_v0,2023.2.2,Win32,85.47008547,,,,,,,,,,,,,,,,745.3596,746.6536,746.6537,747.4303,return,0.0713,,49.609375,,,,,,FBP-PT-17.png,0.4,1.2,48,0.5,,,,,,,,,,,,,0,51,51,47,1,,,,,,,,,,,,,,,,,,,,,,,,,,,,
,,,,,SPR24_096,19,Female,2024-04-25_16h43.02.913,jersey_experiment_5_v0,2023.2.2,Win32,85.47008547,,,,,,,,,,,,,,,,747.4305,748.4772,748.4773,749.4186,return,0.2217,,56.640625,,,,,,FBP-OG-81.png,0.4,1.2,8,0.25,,,,,,,,,,,,,0,52,52,7,1,,,,,,,,,,,,,,,,,,,,,,,,,,,,
,,,,,SPR24_096,19,Female,2024-04-25_16h43.02.913,jersey_experiment_5_v0,2023.2.2,Win32,85.47008547,,,,,,,,,,,,,,,,749.4187,750.4656,750.4656,751.5598,return,0.0709,,40.75520833,,,,,,FBP-OG-91.png,0.35,1.2,11,0.25,,,,,,,,,,,,,0,53,53,10,1,,,,,,,,,,,,,,,,,,,,,,,,,,,,
,,,,,SPR24_096,19,Female,2024-04-25_16h43.02.913,jersey_experiment_5_v0,2023.2.2,Win32,85.47008547,,,,,,,,,,,,,,,,751.56,752.6068,752.6068,753.9718,return,0.0741,,29.03645833,,,,,,FBP-RB-17.png,0.35,1.2,31,0.25,,,,,,,,,,,,,0,54,54,30,1,,,,,,,,,,,,,,,,,,,,,,,,,,,,
,,,,,SPR24_096,19,Female,2024-04-25_16h43.02.913,jersey_experiment_5_v0,2023.2.2,Win32,85.47008547,,,,,,,,,,,,,,,,753.972,755.0188,755.0188,756.0069,return,0.1045,,73.95833333,,,,,,FBP-RB-17.png,0.45,1.2,35,0.25,,,,,,,,,,,,,0,55,55,34,1,,,,,,,,,,,,,,,,,,,,,,,,,,,,
,,,,,SPR24_096,19,Female,2024-04-25_16h43.02.913,jersey_experiment_5_v0,2023.2.2,Win32,85.47008547,,,,,,,,,,,,,,,,756.0071,757.0541,757.0542,758.8659,return,0.4183,,36.97916667,,,,,,FBP-RB-18.png,0.35,1.2,36,0.25,,,,,,,,,,,,,0,56,56,35,1,,,,,,,,,,,,,,,,,,,,,,,,,,,,
,,,,,SPR24_096,19,Female,2024-04-25_16h43.02.913,jersey_experiment_5_v0,2023.2.2,Win32,85.47008547,,,,,,,,,,,,,,,,758.8661,759.9129,759.9129,760.9366,return,0.1874,,75,,,,,,FBP-OG-71.png,0.45,1.2,5,0.25,,,,,,,,,,,,,0,57,57,4,1,,,,,,,,,,,,,,,,,,,,,,,,,,,,
,,,,,SPR24_096,19,Female,2024-04-25_16h43.02.913,jersey_experiment_5_v0,2023.2.2,Win32,85.47008547,,,,,,,,,,,,,,,,760.9368,762.2307,762.2308,762.9837,return,0.2364,,77.86458333,,,,,,FBP-PT-19.png,0.43,1.2,59,0.5,,,,,,,,,,,,,0,58,58,58,1,,,,,,,,,,,,,,,,,,,,,,,,,,,,
,,,,,SPR24_096,19,Female,2024-04-25_16h43.02.913,jersey_experiment_5_v0,2023.2.2,Win32,85.47008547,,,,,,,,,,,,,,,,762.9839,764.0305,764.0305,765.784,return,0.1324,,50.91145833,,,,,,FBP-OG-81.png,0.37,1.2,7,0.25,,,,,,,,,,,,,0,59,59,6,1,,,,,,,,,,,,,,,,,,,,,,,,,,,,
,,,,,SPR24_096,19,Female,2024-04-25_16h43.02.913,jersey_experiment_5_v0,2023.2.2,Win32,85.47008547,,,,,,,,,,,,,,,,765.7852,767.078,767.078,767.9253,return,0.038,,42.31770833,,,,,,FBP-YG-71.png,0.37,1.2,17,0.5,,,,,,,,,,,,,,,,,,0,0,0,16,1,,,,,,,,,,,,,,,,,,,,,,,
,,,,,SPR24_096,19,Female,2024-04-25_16h43.02.913,jersey_experiment_5_v0,2023.2.2,Win32,85.47008547,,,,,,,,,,,,,,,,767.9255,769.2192,769.2192,770.137,return,0.0253,,67.96875,,,,,,FBP-PT-71.png,0.45,1.2,50,0.5,,,,,,,,,,,,,,,,,,0,1,1,49,1,,,,,,,,,,,,,,,,,,,,,,,
,,,,,SPR24_096,19,Female,2024-04-25_16h43.02.913,jersey_experiment_5_v0,2023.2.2,Win32,85.47008547,,,,,,,,,,,,,,,,770.1371,771.4311,771.4311,772.3604,return,0.1029,,47.65625,,,,,,FBP-PT-81.png,0.35,1.2,51,0.5,,,,,,,,,,,,,,,,,,0,2,2,50,1,,,,,,,,,,,,,,,,,,,,,,,
,,,,,SPR24_096,19,Female,2024-04-25_16h43.02.913,jersey_experiment_5_v0,2023.2.2,Win32,85.47008547,,,,,,,,,,,,,,,,772.3606,773.4076,773.4076,774.6665,return,0.057,,25.78125,,,,,,FBP-OG-18.png,0.35,1.2,6,0.25,,,,,,,,,,,,,,,,,,0,3,3,5,1,,,,,,,,,,,,,,,,,,,,,,,
,,,,,SPR24_096,19,Female,2024-04-25_16h43.02.913,jersey_experiment_5_v0,2023.2.2,Win32,85.47008547,,,,,,,,,,,,,,,,774.6666,775.7135,775.7136,776.7842,return,0.0882,,49.08854167,,,,,,FBP-RB-91.png,0.4,1.2,43,0.25,,,,,,,,,,,,,,,,,,0,4,4,42,1,,,,,,,,,,,,,,,,,,,,,,,
,,,,,SPR24_096,19,Female,2024-04-25_16h43.02.913,jersey_experiment_5_v0,2023.2.2,Win32,85.47008547,,,,,,,,,,,,,,,,776.7843,778.0783,778.0783,778.9019,return,0.0599,,40.75520833,,,,,,FBP-PT-91.png,0.35,1.2,56,0.5,,,,,,,,,,,,,,,,,,0,5,5,55,1,,,,,,,,,,,,,,,,,,,,,,,
,,,,,SPR24_096,19,Female,2024-04-25_16h43.02.913,jersey_experiment_5_v0,2023.2.2,Win32,85.47008547,,,,,,,,,,,,,,,,778.9021,779.9489,779.949,781.1843,return,0.0655,,68.88020833,,,,,,FBP-RB-91.png,0.45,1.2,45,0.25,,,,,,,,,,,,,,,,,,0,6,6,44,1,,,,,,,,,,,,,,,,,,,,,,,
,,,,,SPR24_096,19,Female,2024-04-25_16h43.02.913,jersey_experiment_5_v0,2023.2.2,Win32,85.47008547,,,,,,,,,,,,,,,,781.1845,782.4784,782.4784,784.0199,return,0.0968,,24.34895833,,,,,,FBP-PT-71.png,0.35,1.2,46,0.5,,,,,,,,,,,,,,,,,,0,7,7,45,1,,,,,,,,,,,,,,,,,,,,,,,
,,,,,SPR24_096,19,Female,2024-04-25_16h43.02.913,jersey_experiment_5_v0,2023.2.2,Win32,85.47008547,,,,,,,,,,,,,,,,784.0201,785.0668,785.0668,786.7141,return,0.1756,,46.22395833,,,,,,FBP-OG-19.png,0.37,1.2,12,0.25,,,,,,,,,,,,,,,,,,0,8,8,11,1,,,,,,,,,,,,,,,,,,,,,,,
,,,,,SPR24_096,19,Female,2024-04-25_16h43.02.913,jersey_experiment_5_v0,2023.2.2,Win32,85.47008547,,,,,,,,,,,,,,,,786.7142,788.0081,788.0082,788.9962,return,0.1315,,61.97916667,,,,,,FBP-YG-71.png,0.4,1.2,18,0.5,,,,,,,,,,,,,,,,,,0,9,9,17,1,,,,,,,,,,,,,,,,,,,,,,,
,,,,,SPR24_096,19,Female,2024-04-25_16h43.02.913,jersey_experiment_5_v0,2023.2.2,Win32,85.47008547,,,,,,,,,,,,,,,,788.9964,790.0436,790.0436,791.5611,return,0.1049,,86.45833333,,,,,,FBP-OG-18.png,0.45,1.2,10,0.25,,,,,,,,,,,,,,,,,,0,10,10,9,1,,,,,,,,,,,,,,,,,,,,,,,
,,,,,SPR24_096,19,Female,2024-04-25_16h43.02.913,jersey_experiment_5_v0,2023.2.2,Win32,85.47008547,,,,,,,,,,,,,,,,791.5612,792.8554,792.8554,793.9377,return,0.1239,,85.67708333,,,,,,FBP-PT-81.png,0.45,1.2,55,0.5,,,,,,,,,,,,,,,,,,0,11,11,54,1,,,,,,,,,,,,,,,,,,,,,,,
,,,,,SPR24_096,19,Female,2024-04-25_16h43.02.913,jersey_experiment_5_v0,2023.2.2,Win32,85.47008547,,,,,,,,,,,,,,,,793.9379,795.2318,795.2318,795.7848,return,0.1551,,85.02604167,,,,,,FBP-PT-71.png,0.43,1.2,49,0.5,,,,,,,,,,,,,,,,,,0,12,12,48,1,,,,,,,,,,,,,,,,,,,,,,,
,,,,,SPR24_096,19,Female,2024-04-25_16h43.02.913,jersey_experiment_5_v0,2023.2.2,Win32,85.47008547,,,,,,,,,,,,,,,,795.785,796.8319,796.8319,798.2437,return,0.7202,,75.52083333,,,,,,FBP-OG-18.png,0.43,1.2,9,0.25,,,,,,,,,,,,,,,,,,0,13,13,8,1,,,,,,,,,,,,,,,,,,,,,,,
,,,,,SPR24_096,19,Female,2024-04-25_16h43.02.913,jersey_experiment_5_v0,2023.2.2,Win32,85.47008547,,,,,,,,,,,,,,,,798.2438,799.5379,799.5379,800.1616,return,0.1462,,75.52083333,,,,,,FBP-YG-81.png,0.43,1.2,24,0.5,,,,,,,,,,,,,,,,,,0,14,14,23,1,,,,,,,,,,,,,,,,,,,,,,,
,,,,,SPR24_096,19,Female,2024-04-25_16h43.02.913,jersey_experiment_5_v0,2023.2.2,Win32,85.47008547,,,,,,,,,,,,,,,,800.1618,801.4556,801.4556,802.0205,return,0.167,,75.52083333,,,,,,FBP-YG-71.png,0.45,1.2,20,0.5,,,,,,,,,,,,,,,,,,0,15,15,19,1,,,,,,,,,,,,,,,,,,,,,,,
,,,,,SPR24_096,19,Female,2024-04-25_16h43.02.913,jersey_experiment_5_v0,2023.2.2,Win32,85.47008547,,,,,,,,,,,,,,,,802.0206,803.0673,803.0675,804.6909,return,0.2038,,63.671875,,,,,,FBP-RB-81.png,0.4,1.2,38,0.25,,,,,,,,,,,,,,,,,,0,16,16,37,1,,,,,,,,,,,,,,,,,,,,,,,
,,,,,SPR24_096,19,Female,2024-04-25_16h43.02.913,jersey_experiment_5_v0,2023.2.2,Win32,85.47008547,,,,,,,,,,,,,,,,804.6912,805.9852,805.9852,806.8324,return,0.0547,,18.75,,,,,,FBP-YG-71.png,0.35,1.2,16,0.5,,,,,,,,,,,,,,,,,,0,17,17,15,1,,,,,,,,,,,,,,,,,,,,,,,
,,,,,SPR24_096,19,Female,2024-04-25_16h43.02.913,jersey_experiment_5_v0,2023.2.2,Win32,85.47008547,,,,,,,,,,,,,,,,806.8326,807.8793,807.8793,809.2087,return,0.0472,,28.38541667,,,,,,FBP-OG-19.png,0.4,1.2,13,0.25,,,,,,,,,,,,,,,,,,0,18,18,12,1,,,,,,,,,,,,,,,,,,,,,,,
,,,,,SPR24_096,19,Female,2024-04-25_16h43.02.913,jersey_experiment_5_v0,2023.2.2,Win32,85.47008547,,,,,,,,,,,,,,,,809.2089,810.503,810.503,811.5737,return,0.1089,,72.00520833,,,,,,FBP-PT-91.png,0.45,1.2,60,0.5,,,,,,,,,,,,,,,,,,0,19,19,59,1,,,,,,,,,,,,,,,,,,,,,,,
,,,,,SPR24_096,19,Female,2024-04-25_16h43.02.913,jersey_experiment_5_v0,2023.2.2,Win32,85.47008547,,,,,,,,,,,,,,,,811.5739,812.8678,812.8679,815.3385,return,0.0366,,52.60416667,,,,,,FBP-PT-81.png,0.37,1.2,52,0.5,,,,,,,,,,,,,,,,,,0,20,20,51,1,,,,,,,,,,,,,,,,,,,,,,,
,,,,,SPR24_096,19,Female,2024-04-25_16h43.02.913,jersey_experiment_5_v0,2023.2.2,Win32,85.47008547,,,,,,,,,,,,,,,,815.3386,816.633,816.633,817.7388,return,0.0942,,30.33854167,,,,,,FBP-YG-91.png,0.35,1.2,26,0.5,,,,,,,,,,,,,,,,,,0,21,21,25,1,,,,,,,,,,,,,,,,,,,,,,,
,,,,,SPR24_096,19,Female,2024-04-25_16h43.02.913,jersey_experiment_5_v0,2023.2.2,Win32,85.47008547,,,,,,,,,,,,,,,,817.7391,818.7855,818.7856,820.0683,return,0.0965,,21.74479167,,,,,,FBP-RB-71.png,0.35,1.2,31,0.25,,,,,,,,,,,,,,,,,,0,22,22,30,1,,,,,,,,,,,,,,,,,,,,,,,
,,,,,SPR24_096,19,Female,2024-04-25_16h43.02.913,jersey_experiment_5_v0,2023.2.2,Win32,85.47008547,,,,,,,,,,,,,,,,820.0685,821.3622,821.3622,822.2446,return,0.0504,,72.00520833,,,,,,FBP-YG-81.png,0.45,1.2,25,0.5,,,,,,,,,,,,,,,,,,0,23,23,24,1,,,,,,,,,,,,,,,,,,,,,,,
,,,,,SPR24_096,19,Female,2024-04-25_16h43.02.913,jersey_experiment_5_v0,2023.2.2,Win32,85.47008547,,,,,,,,,,,,,,,,822.2448,823.5389,823.539,824.7389,return,0.0756,,70.44270833,,,,,,FBP-YG-91.png,0.43,1.2,29,0.5,,,,,,,,,,,,,,,,,,0,24,24,28,1,,,,,,,,,,,,,,,,,,,,,,,
,,,,,SPR24_096,19,Female,2024-04-25_16h43.02.913,jersey_experiment_5_v0,2023.2.2,Win32,85.47008547,,,,,,,,,,,,,,,,824.739,825.7857,825.7857,827.2564,return,0.034,,45.96354167,,,,,,FBP-RB-81.png,0.35,1.2,36,0.25,,,,,,,,,,,,,,,,,,0,25,25,35,1,,,,,,,,,,,,,,,,,,,,,,,
,,,,,SPR24_096,19,Female,2024-04-25_16h43.02.913,jersey_experiment_5_v0,2023.2.2,Win32,85.47008547,,,,,,,,,,,,,,,,827.2566,828.3037,828.3037,829.327,return,0.0655,,70.18229167,,,,,,FBP-RB-71.png,0.45,1.2,35,0.25,,,,,,,,,,,,,,,,,,0,26,26,34,1,,,,,,,,,,,,,,,,,,,,,,,
,,,,,SPR24_096,19,Female,2024-04-25_16h43.02.913,jersey_experiment_5_v0,2023.2.2,Win32,85.47008547,,,,,,,,,,,,,,,,829.3272,830.6214,830.6214,833.2097,return,1.7176,,52.99479167,,,,,,FBP-PT-91.png,0.4,1.2,58,0.5,,,,,,,,,,,,,,,,,,0,27,27,57,1,,,,,,,,,,,,,,,,,,,,,,,
,,,,,SPR24_096,19,Female,2024-04-25_16h43.02.913,jersey_experiment_5_v0,2023.2.2,Win32,85.47008547,,,,,,,,,,,,,,,,833.2099,834.5038,834.5038,835.3158,return,0.3788,,56.77083333,,,,,,FBP-PT-81.png,0.43,1.2,54,0.5,,,,,,,,,,,,,,,,,,0,28,28,53,1,,,,,,,,,,,,,,,,,,,,,,,
,,,,,SPR24_096,19,Female,2024-04-25_16h43.02.913,jersey_experiment_5_v0,2023.2.2,Win32,85.47008547,,,,,,,,,,,,,,,,835.3159,836.3627,836.3628,837.2688,return,0.1327,,38.93229167,,,,,,FBP-RB-91.png,0.35,1.2,41,0.25,,,,,,,,,,,,,,,,,,0,29,29,40,1,,,,,,,,,,,,,,,,,,,,,,,
,,,,,SPR24_096,19,Female,2024-04-25_16h43.02.913,jersey_experiment_5_v0,2023.2.2,Win32,85.47008547,,,,,,,,,,,,,,,,837.269,838.3157,838.3157,839.3864,return,0.0711,,29.94791667,,,,,,FBP-OG-17.png,0.35,1.2,1,0.25,,,,,,,,,,,,,,,,,,0,30,30,0,1,,,,,,,,,,,,,,,,,,,,,,,
,,,,,SPR24_096,19,Female,2024-04-25_16h43.02.913,jersey_experiment_5_v0,2023.2.2,Win32,85.47008547,,,,,,,,,,,,,,,,839.3866,840.4335,840.4335,842.8806,return,0.8073,,55.98958333,,,,,,FBP-OG-17.png,0.4,1.2,3,0.25,,,,,,,,,,,,,,,,,,0,31,31,2,1,,,,,,,,,,,,,,,,,,,,,,,
,,,,,SPR24_096,19,Female,2024-04-25_16h43.02.913,jersey_experiment_5_v0,2023.2.2,Win32,85.47008547,,,,,,,,,,,,,,,,842.8808,844.1747,844.1748,845.1512,return,0.1619,,63.80208333,,,,,,FBP-PT-71.png,0.4,1.2,48,0.5,,,,,,,,,,,,,,,,,,0,32,32,47,1,,,,,,,,,,,,,,,,,,,,,,,
,,,,,SPR24_096,19,Female,2024-04-25_16h43.02.913,jersey_experiment_5_v0,2023.2.2,Win32,85.47008547,,,,,,,,,,,,,,,,845.1515,846.1983,846.1983,847.0807,return,0.1636,,44.66145833,,,,,,FBP-RB-81.png,0.37,1.2,37,0.25,,,,,,,,,,,,,,,,,,0,33,33,36,1,,,,,,,,,,,,,,,,,,,,,,,
,,,,,SPR24_096,19,Female,2024-04-25_16h43.02.913,jersey_experiment_5_v0,2023.2.2,Win32,85.47008547,,,,,,,,,,,,,,,,847.0811,848.3748,848.3748,849.1514,return,0.218,,55.59895833,,,,,,FBP-PT-81.png,0.4,1.2,53,0.5,,,,,,,,,,,,,,,,,,0,34,34,52,1,,,,,,,,,,,,,,,,,,,,,,,
,,,,,SPR24_096,19,Female,2024-04-25_16h43.02.913,jersey_experiment_5_v0,2023.2.2,Win32,85.47008547,,,,,,,,,,,,,,,,849.1516,850.4455,850.4455,851.4926,return,0.0737,,50.390625,,,,,,FBP-PT-91.png,0.37,1.2,57,0.5,,,,,,,,,,,,,,,,,,0,35,35,56,1,,,,,,,,,,,,,,,,,,,,,,,
,,,,,SPR24_096,19,Female,2024-04-25_16h43.02.913,jersey_experiment_5_v0,2023.2.2,Win32,85.47008547,,,,,,,,,,,,,,,,851.4928,852.5398,852.5398,854.1516,return,0.5648,,45.57291667,,,,,,FBP-RB-91.png,0.37,1.2,42,0.25,,,,,,,,,,,,,,,,,,0,36,36,41,1,,,,,,,,,,,,,,,,,,,,,,,
,,,,,SPR24_096,19,Female,2024-04-25_16h43.02.913,jersey_experiment_5_v0,2023.2.2,Win32,85.47008547,,,,,,,,,,,,,,,,854.1517,855.1987,855.1988,856.0223,return,0.1659,,42.96875,,,,,,FBP-OG-19.png,0.35,1.2,11,0.25,,,,,,,,,,,,,,,,,,0,37,37,10,1,,,,,,,,,,,,,,,,,,,,,,,
,,,,,SPR24_096,19,Female,2024-04-25_16h43.02.913,jersey_experiment_5_v0,2023.2.2,Win32,85.47008547,,,,,,,,,,,,,,,,856.0226,857.3164,857.3164,858.4341,return,0.1467,,63.15104167,,,,,,FBP-YG-71.png,0.43,1.2,19,0.5,,,,,,,,,,,,,,,,,,0,38,38,18,1,,,,,,,,,,,,,,,,,,,,,,,
,,,,,SPR24_096,19,Female,2024-04-25_16h43.02.913,jersey_experiment_5_v0,2023.2.2,Win32,85.47008547,,,,,,,,,,,,,,,,858.4343,859.4813,859.4813,860.7756,return,0.1643,,79.03645833,,,,,,FBP-RB-81.png,0.45,1.2,40,0.25,,,,,,,,,,,,,,,,,,0,39,39,39,1,,,,,,,,,,,,,,,,,,,,,,,
,,,,,SPR24_096,19,Female,2024-04-25_16h43.02.913,jersey_experiment_5_v0,2023.2.2,Win32,85.47008547,,,,,,,,,,,,,,,,860.7757,862.0696,862.0696,863.2342,return,0.0997,,71.74479167,,,,,,FBP-YG-81.png,0.4,1.2,23,0.5,,,,,,,,,,,,,,,,,,0,40,40,22,1,,,,,,,,,,,,,,,,,,,,,,,
,,,,,SPR24_096,19,Female,2024-04-25_16h43.02.913,jersey_experiment_5_v0,2023.2.2,Win32,85.47008547,,,,,,,,,,,,,,,,863.2343,864.5287,864.5287,865.5872,return,0.0854,,48.17708333,,,,,,FBP-YG-81.png,0.37,1.2,22,0.5,,,,,,,,,,,,,,,,,,0,41,41,21,1,,,,,,,,,,,,,,,,,,,,,,,
,,,,,SPR24_096,19,Female,2024-04-25_16h43.02.913,jersey_experiment_5_v0,2023.2.2,Win32,85.47008547,,,,,,,,,,,,,,,,865.5874,866.6344,866.6344,867.752,return,0.0569,,69.79166667,,,,,,FBP-OG-17.png,0.43,1.2,4,0.25,,,,,,,,,,,,,,,,,,0,42,42,3,1,,,,,,,,,,,,,,,,,,,,,,,
,,,,,SPR24_096,19,Female,2024-04-25_16h43.02.913,jersey_experiment_5_v0,2023.2.2,Win32,85.47008547,,,,,,,,,,,,,,,,867.7522,868.7992,868.7992,871.3169,return,0.1188,,50.78125,,,,,,FBP-OG-17.png,0.37,1.2,2,0.25,,,,,,,,,,,,,,,,,,0,43,43,1,1,,,,,,,,,,,,,,,,,,,,,,,
,,,,,SPR24_096,19,Female,2024-04-25_16h43.02.913,jersey_experiment_5_v0,2023.2.2,Win32,85.47008547,,,,,,,,,,,,,,,,871.317,872.3639,872.3639,873.6581,return,0.1276,,72.52604167,,,,,,FBP-OG-17.png,0.45,1.2,5,0.25,,,,,,,,,,,,,,,,,,0,44,44,4,1,,,,,,,,,,,,,,,,,,,,,,,
,,,,,SPR24_096,19,Female,2024-04-25_16h43.02.913,jersey_experiment_5_v0,2023.2.2,Win32,85.47008547,,,,,,,,,,,,,,,,873.6582,874.7053,874.7053,875.4464,return,0.0111,,72.13541667,,,,,,FBP-OG-19.png,0.43,1.2,14,0.25,,,,,,,,,,,,,,,,,,0,45,45,13,1,,,,,,,,,,,,,,,,,,,,,,,
,,,,,SPR24_096,19,Female,2024-04-25_16h43.02.913,jersey_experiment_5_v0,2023.2.2,Win32,85.47008547,,,,,,,,,,,,,,,,875.4466,876.7406,876.7406,877.4113,return,0.0734,,79.16666667,,,,,,FBP-YG-91.png,0.45,1.2,30,0.5,,,,,,,,,,,,,,,,,,0,46,46,29,1,,,,,,,,,,,,,,,,,,,,,,,
,,,,,SPR24_096,19,Female,2024-04-25_16h43.02.913,jersey_experiment_5_v0,2023.2.2,Win32,85.47008547,,,,,,,,,,,,,,,,877.4115,878.4583,878.4583,879.023,return,0.0427,,78.515625,,,,,,FBP-RB-91.png,0.43,1.2,44,0.25,,,,,,,,,,,,,,,,,,0,47,47,43,1,,,,,,,,,,,,,,,,,,,,,,,
,,,,,SPR24_096,19,Female,2024-04-25_16h43.02.913,jersey_experiment_5_v0,2023.2.2,Win32,85.47008547,,,,,,,,,,,,,,,,879.0232,880.3172,880.3172,881.647,return,0.6431,,65.75520833,,,,,,FBP-PT-91.png,0.43,1.2,59,0.5,,,,,,,,,,,,,,,,,,0,48,48,58,1,,,,,,,,,,,,,,,,,,,,,,,
,,,,,SPR24_096,19,Female,2024-04-25_16h43.02.913,jersey_experiment_5_v0,2023.2.2,Win32,85.47008547,,,,,,,,,,,,,,,,881.6471,882.6937,882.6938,883.682,return,0.0999,,77.21354167,,,,,,FBP-OG-19.png,0.45,1.2,15,0.25,,,,,,,,,,,,,,,,,,0,49,49,14,1,,,,,,,,,,,,,,,,,,,,,,,
,,,,,SPR24_096,19,Female,2024-04-25_16h43.02.913,jersey_experiment_5_v0,2023.2.2,Win32,85.47008547,,,,,,,,,,,,,,,,883.6822,884.7292,884.7292,885.7056,return,0.0811,,33.33333333,,,,,,FBP-RB-71.png,0.37,1.2,32,0.25,,,,,,,,,,,,,,,,,,0,50,50,31,1,,,,,,,,,,,,,,,,,,,,,,,
,,,,,SPR24_096,19,Female,2024-04-25_16h43.02.913,jersey_experiment_5_v0,2023.2.2,Win32,85.47008547,,,,,,,,,,,,,,,,885.7058,886.9997,886.9997,888.3411,return,0.1533,,49.34895833,,,,,,FBP-YG-91.png,0.4,1.2,28,0.5,,,,,,,,,,,,,,,,,,0,51,51,27,1,,,,,,,,,,,,,,,,,,,,,,,
,,,,,SPR24_096,19,Female,2024-04-25_16h43.02.913,jersey_experiment_5_v0,2023.2.2,Win32,85.47008547,,,,,,,,,,,,,,,,888.3414,889.6353,889.6353,890.5058,return,0.118,,38.15104167,,,,,,FBP-YG-81.png,0.35,1.2,21,0.5,,,,,,,,,,,,,,,,,,0,52,52,20,1,,,,,,,,,,,,,,,,,,,,,,,
,,,,,SPR24_096,19,Female,2024-04-25_16h43.02.913,jersey_experiment_5_v0,2023.2.2,Win32,85.47008547,,,,,,,,,,,,,,,,890.5061,891.5529,891.553,892.5648,return,0.0721,,66.92708333,,,,,,FBP-RB-81.png,0.43,1.2,39,0.25,,,,,,,,,,,,,,,,,,0,53,53,38,1,,,,,,,,,,,,,,,,,,,,,,,
,,,,,SPR24_096,19,Female,2024-04-25_16h43.02.913,jersey_experiment_5_v0,2023.2.2,Win32,85.47008547,,,,,,,,,,,,,,,,892.565,893.6118,893.6118,894.8002,return,0.0902,,36.58854167,,,,,,FBP-OG-18.png,0.37,1.2,7,0.25,,,,,,,,,,,,,,,,,,0,54,54,6,1,,,,,,,,,,,,,,,,,,,,,,,
,,,,,SPR24_096,19,Female,2024-04-25_16h43.02.913,jersey_experiment_5_v0,2023.2.2,Win32,85.47008547,,,,,,,,,,,,,,,,894.8004,896.0942,896.0943,897.4238,return,0.0651,,49.34895833,,,,,,FBP-PT-71.png,0.37,1.2,47,0.5,,,,,,,,,,,,,,,,,,0,55,55,46,1,,,,,,,,,,,,,,,,,,,,,,,
,,,,,SPR24_096,19,Female,2024-04-25_16h43.02.913,jersey_experiment_5_v0,2023.2.2,Win32,85.47008547,,,,,,,,,,,,,,,,897.424,898.4708,898.4708,899.2473,return,0.1145,,65.88541667,,,,,,FBP-RB-71.png,0.43,1.2,34,0.25,,,,,,,,,,,,,,,,,,0,56,56,33,1,,,,,,,,,,,,,,,,,,,,,,,
,,,,,SPR24_096,19,Female,2024-04-25_16h43.02.913,jersey_experiment_5_v0,2023.2.2,Win32,85.47008547,,,,,,,,,,,,,,,,899.2474,900.5414,900.5415,901.7064,return,0.118,,38.671875,,,,,,FBP-YG-91.png,0.37,1.2,27,0.5,,,,,,,,,,,,,,,,,,0,57,57,26,1,,,,,,,,,,,,,,,,,,,,,,,
,,,,,SPR24_096,19,Female,2024-04-25_16h43.02.913,jersey_experiment_5_v0,2023.2.2,Win32,85.47008547,,,,,,,,,,,,,,,,901.7065,902.7533,902.7533,904.7769,return,0.8604,,51.30208333,,,,,,FBP-RB-71.png,0.4,1.2,33,0.25,,,,,,,,,,,,,,,,,,0,58,58,32,1,,,,,,,,,,,,,,,,,,,,,,,
,,,,,SPR24_096,19,Female,2024-04-25_16h43.02.913,jersey_experiment_5_v0,2023.2.2,Win32,85.47008547,,,,,,,,,,,,,,,,904.7772,905.8241,905.8241,906.5298,return,0.0873,,57.29166667,,,,,,FBP-OG-18.png,0.4,1.2,8,0.25,,,,,,,,,,,,,,,,,,0,59,59,7,1,,,,,,,,,,,,,,,,,,,,,,,
,,,,,SPR24_096,19,Female,2024-04-25_16h43.02.913,jersey_experiment_5_v0,2023.2.2,Win32,85.47008547,,,,,,,,,,,,,,,,,,,,,,,,,,,,,,,,,,,,,,,,,,,,,,,,,,,,,,,,906.5302,912.048,return,5.5119,,,,,,,,,,,,,,,,,,,
,,,,,SPR24_096,19,Female,2024-04-25_16h43.02.913,jersey_experiment_5_v0,2023.2.2,Win32,85.47008547,,,,,,,,,,,,,,,,,,,,,,,,,,,,,,,,,,,,,,,,,,,,,,,,,,,,,,,,,,,,,912.048,916.6598,1,3.4422,return,1.1546,,,,,,,,,,,,
,,,,,SPR24_096,19,Female,2024-04-25_16h43.02.913,jersey_experiment_5_v0,2023.2.2,Win32,85.47008547,,,,,,,,,,,,,,,,,,,,,,,,,,,,,,,,,,,,,,,,,,,,,,,,,,,,,,,,,,,,,,,,,,,,916.66,960.7015,"I noticed changes in skin color, clothing color, and amount of time the football player was flashed.",right,38.3074,,,,,,
,,,,,SPR24_096,19,Female,2024-04-25_16h43.02.913,jersey_experiment_5_v0,2023.2.2,Win32,85.47008547,,,,,,,,,,,,,,,,,,,,,,,,,,,,,,,,,,,,,,,,,,,,,,,,,,,,,,,,,,,,,,,,,,,,,,,,,,960.7016,964.6261,return,3.9111,