requirements.started,requirements.stopped,key_resp_3.keys,key_resp_3.rt,key_resp_3.duration,Subject ID,Age,Gender,date,expName,psychopyVersion,OS,frameRate,instructions1.started,instructions1.stopped,key_resp.keys,key_resp.rt,key_resp.duration,example.started,example.stopped,enter_2.keys,enter_2.rt,enter_2.duration,instructions2.started,instructions2.stopped,enter_3.keys,enter_3.rt,enter_3.duration,image.started,image.stopped,slider_2.started,slider_2.stopped,next.keys,next.rt,next.duration,slider.response,trial_block_1.thisRepN,trial_block_1.thisTrialN,trial_block_1.thisN,trial_block_1.thisIndex,trial_block_1.ran,Path,Width,Height,Index,Duration,trial_block_2.thisRepN,trial_block_2.thisTrialN,trial_block_2.thisN,trial_block_2.thisIndex,trial_block_2.ran,rest_break.started,rest_break.stopped,end_break.started,end_break.stopped,key_resp_5.keys,key_resp_5.rt,key_resp_5.duration,trial_block_3.thisRepN,trial_block_3.thisTrialN,trial_block_3.thisN,trial_block_3.thisIndex,trial_block_3.ran,trial_block_4.thisRepN,trial_block_4.thisTrialN,trial_block_4.thisN,trial_block_4.thisIndex,trial_block_4.ran,questions_intro.started,questions_intro.stopped,enter_12.keys,enter_12.rt,enter_12.duration,question2.started,question2.stopped,question_doingbest.response,question_doingbest.rt,enter_15.keys,enter_15.rt,enter_15.duration,pattern.started,pattern.stopped,pattern_2.text,enter_17.keys,enter_17.rt,enter_17.duration,thankyou.started,thankyou.stopped,enter_14.keys,enter_14.rt,enter_14.duration
0.0003,13.7318,return,13.7248,,SPR24_085,21,male,2024-04-24_11h36.08.507,jersey_experiment_5_v0,2023.2.2,Win32,85.47008547,,,,,,,,,,,,,,,,,,,,,,,,,,,,,,,,,,,,,,,,,,,,,,,,,,,,,,,,,,,,,,,,,,,,,,,,,,,,,,
,,,,,SPR24_085,21,male,2024-04-24_11h36.08.507,jersey_experiment_5_v0,2023.2.2,Win32,85.47008547,13.732,19.6978,return,5.9527,,,,,,,,,,,,,,,,,,,,,,,,,,,,,,,,,,,,,,,,,,,,,,,,,,,,,,,,,,,,,,,,,,,,,,,,,,
,,,,,SPR24_085,21,male,2024-04-24_11h36.08.507,jersey_experiment_5_v0,2023.2.2,Win32,85.47008547,,,,,,19.6979,27.7531,return,8.02,,,,,,,,,,,,,,,,,,,,,,,,,,,,,,,,,,,,,,,,,,,,,,,,,,,,,,,,,,,,,,,,,,,,,
,,,,,SPR24_085,21,male,2024-04-24_11h36.08.507,jersey_experiment_5_v0,2023.2.2,Win32,85.47008547,,,,,,,,,,,27.7532,54.107,return,26.342,,,,,,,,,,,,,,,,,,,,,,,,,,,,,,,,,,,,,,,,,,,,,,,,,,,,,,,,,,,,,,,,
,,,,,SPR24_085,21,male,2024-04-24_11h36.08.507,jersey_experiment_5_v0,2023.2.2,Win32,85.47008547,,,,,,,,,,,,,,,,54.114,55.1656,55.1658,66.4839,return,3.8372,,76.171875,0,0,0,48,1,FBP-PT-17.png,0.43,1.2,49,0.25,,,,,,,,,,,,,,,,,,,,,,,,,,,,,,,,,,,,,,,,,,,,,
,,,,,SPR24_085,21,male,2024-04-24_11h36.08.507,jersey_experiment_5_v0,2023.2.2,Win32,85.47008547,,,,,,,,,,,,,,,,66.488,67.5306,67.5306,70.8014,return,1.3246,,70.57291667,0,1,1,22,1,FBP-YG-18.png,0.4,1.2,23,0.25,,,,,,,,,,,,,,,,,,,,,,,,,,,,,,,,,,,,,,,,,,,,,
,,,,,SPR24_085,21,male,2024-04-24_11h36.08.507,jersey_experiment_5_v0,2023.2.2,Win32,85.47008547,,,,,,,,,,,,,,,,70.8016,71.8485,71.8486,74.978,return,1.2265,,67.31770833,0,2,2,15,1,FBP-YG-17.png,0.35,1.2,16,0.25,,,,,,,,,,,,,,,,,,,,,,,,,,,,,,,,,,,,,,,,,,,,,
,,,,,SPR24_085,21,male,2024-04-24_11h36.08.507,jersey_experiment_5_v0,2023.2.2,Win32,85.47008547,,,,,,,,,,,,,,,,74.9782,76.0252,76.0252,79.9428,return,1.2843,,99.86979167,0,3,3,58,1,FBP-PT-19.png,0.43,1.2,59,0.25,,,,,,,,,,,,,,,,,,,,,,,,,,,,,,,,,,,,,,,,,,,,,
,,,,,SPR24_085,21,male,2024-04-24_11h36.08.507,jersey_experiment_5_v0,2023.2.2,Win32,85.47008547,,,,,,,,,,,,,,,,79.943,80.9898,80.9898,84.0252,return,1.3972,,95.703125,0,4,4,54,1,FBP-PT-18.png,0.45,1.2,55,0.25,,,,,,,,,,,,,,,,,,,,,,,,,,,,,,,,,,,,,,,,,,,,,
,,,,,SPR24_085,21,male,2024-04-24_11h36.08.507,jersey_experiment_5_v0,2023.2.2,Win32,85.47008547,,,,,,,,,,,,,,,,84.0255,85.3194,85.3195,88.6608,return,1.4246,,38.80208333,0,5,5,0,1,FBP-OG-71.png,0.35,1.2,1,0.5,,,,,,,,,,,,,,,,,,,,,,,,,,,,,,,,,,,,,,,,,,,,,
,,,,,SPR24_085,21,male,2024-04-24_11h36.08.507,jersey_experiment_5_v0,2023.2.2,Win32,85.47008547,,,,,,,,,,,,,,,,88.661,89.708,89.708,92.6727,return,1.384,,33.85416667,0,6,6,50,1,FBP-PT-18.png,0.35,1.2,51,0.25,,,,,,,,,,,,,,,,,,,,,,,,,,,,,,,,,,,,,,,,,,,,,
,,,,,SPR24_085,21,male,2024-04-24_11h36.08.507,jersey_experiment_5_v0,2023.2.2,Win32,85.47008547,,,,,,,,,,,,,,,,92.6729,93.9669,93.9669,96.6964,return,1.0017,,89.19270833,0,7,7,8,1,FBP-OG-81.png,0.43,1.2,9,0.5,,,,,,,,,,,,,,,,,,,,,,,,,,,,,,,,,,,,,,,,,,,,,
,,,,,SPR24_085,21,male,2024-04-24_11h36.08.507,jersey_experiment_5_v0,2023.2.2,Win32,85.47008547,,,,,,,,,,,,,,,,96.6967,97.7434,97.7434,101.2261,return,2.1416,,87.109375,0,8,8,23,1,FBP-YG-18.png,0.43,1.2,24,0.25,,,,,,,,,,,,,,,,,,,,,,,,,,,,,,,,,,,,,,,,,,,,,
,,,,,SPR24_085,21,male,2024-04-24_11h36.08.507,jersey_experiment_5_v0,2023.2.2,Win32,85.47008547,,,,,,,,,,,,,,,,101.2263,102.5201,102.5201,104.9201,return,0.8941,,96.74479167,0,9,9,13,1,FBP-OG-91.png,0.43,1.2,14,0.5,,,,,,,,,,,,,,,,,,,,,,,,,,,,,,,,,,,,,,,,,,,,,
,,,,,SPR24_085,21,male,2024-04-24_11h36.08.507,jersey_experiment_5_v0,2023.2.2,Win32,85.47008547,,,,,,,,,,,,,,,,104.9203,105.9673,105.9674,109.2381,return,1.035,,99.73958333,0,10,10,53,1,FBP-PT-18.png,0.43,1.2,54,0.25,,,,,,,,,,,,,,,,,,,,,,,,,,,,,,,,,,,,,,,,,,,,,
,,,,,SPR24_085,21,male,2024-04-24_11h36.08.507,jersey_experiment_5_v0,2023.2.2,Win32,85.47008547,,,,,,,,,,,,,,,,109.2382,110.285,110.285,113.1086,return,1.0253,,80.98958333,0,11,11,17,1,FBP-YG-17.png,0.4,1.2,18,0.25,,,,,,,,,,,,,,,,,,,,,,,,,,,,,,,,,,,,,,,,,,,,,
,,,,,SPR24_085,21,male,2024-04-24_11h36.08.507,jersey_experiment_5_v0,2023.2.2,Win32,85.47008547,,,,,,,,,,,,,,,,113.1087,114.4027,114.4028,116.9678,return,1.1296,,96.484375,0,12,12,14,1,FBP-OG-91.png,0.45,1.2,15,0.5,,,,,,,,,,,,,,,,,,,,,,,,,,,,,,,,,,,,,,,,,,,,,
,,,,,SPR24_085,21,male,2024-04-24_11h36.08.507,jersey_experiment_5_v0,2023.2.2,Win32,85.47008547,,,,,,,,,,,,,,,,116.968,118.0147,118.0148,122.4738,return,2.2448,,45.44270833,0,13,13,21,1,FBP-YG-18.png,0.37,1.2,22,0.25,,,,,,,,,,,,,,,,,,,,,,,,,,,,,,,,,,,,,,,,,,,,,
,,,,,SPR24_085,21,male,2024-04-24_11h36.08.507,jersey_experiment_5_v0,2023.2.2,Win32,85.47008547,,,,,,,,,,,,,,,,122.474,123.5208,123.5208,126.3917,return,1.38,,23.17708333,0,14,14,20,1,FBP-YG-18.png,0.35,1.2,21,0.25,,,,,,,,,,,,,,,,,,,,,,,,,,,,,,,,,,,,,,,,,,,,,
,,,,,SPR24_085,21,male,2024-04-24_11h36.08.507,jersey_experiment_5_v0,2023.2.2,Win32,85.47008547,,,,,,,,,,,,,,,,126.3918,127.4386,127.4386,129.9212,return,0.9221,,78.515625,0,15,15,19,1,FBP-YG-17.png,0.45,1.2,20,0.25,,,,,,,,,,,,,,,,,,,,,,,,,,,,,,,,,,,,,,,,,,,,,
,,,,,SPR24_085,21,male,2024-04-24_11h36.08.507,jersey_experiment_5_v0,2023.2.2,Win32,85.47008547,,,,,,,,,,,,,,,,129.9214,130.9681,130.9681,133.2741,return,0.8704,,91.53645833,0,16,16,29,1,FBP-YG-19.png,0.45,1.2,30,0.25,,,,,,,,,,,,,,,,,,,,,,,,,,,,,,,,,,,,,,,,,,,,,
,,,,,SPR24_085,21,male,2024-04-24_11h36.08.507,jersey_experiment_5_v0,2023.2.2,Win32,85.47008547,,,,,,,,,,,,,,,,133.2743,134.5683,134.5683,136.4507,return,0.829,,96.484375,0,17,17,39,1,FBP-RB-18.png,0.45,1.2,40,0.5,,,,,,,,,,,,,,,,,,,,,,,,,,,,,,,,,,,,,,,,,,,,,
,,,,,SPR24_085,21,male,2024-04-24_11h36.08.507,jersey_experiment_5_v0,2023.2.2,Win32,85.47008547,,,,,,,,,,,,,,,,136.4509,137.7448,137.7448,139.6979,return,0.7353,,60.67708333,0,18,18,32,1,FBP-RB-17.png,0.4,1.2,33,0.5,,,,,,,,,,,,,,,,,,,,,,,,,,,,,,,,,,,,,,,,,,,,,
,,,,,SPR24_085,21,male,2024-04-24_11h36.08.507,jersey_experiment_5_v0,2023.2.2,Win32,85.47008547,,,,,,,,,,,,,,,,139.6981,140.9919,140.992,143.4627,return,0.8577,,40.75520833,0,19,19,11,1,FBP-OG-91.png,0.37,1.2,12,0.5,,,,,,,,,,,,,,,,,,,,,,,,,,,,,,,,,,,,,,,,,,,,,
,,,,,SPR24_085,21,male,2024-04-24_11h36.08.507,jersey_experiment_5_v0,2023.2.2,Win32,85.47008547,,,,,,,,,,,,,,,,143.4629,144.7567,144.7568,146.7099,return,0.7874,,46.74479167,0,20,20,36,1,FBP-RB-18.png,0.37,1.2,37,0.5,,,,,,,,,,,,,,,,,,,,,,,,,,,,,,,,,,,,,,,,,,,,,
,,,,,SPR24_085,21,male,2024-04-24_11h36.08.507,jersey_experiment_5_v0,2023.2.2,Win32,85.47008547,,,,,,,,,,,,,,,,146.71,147.757,147.7571,150.4041,return,0.6863,,29.55729167,0,21,21,45,1,FBP-PT-17.png,0.35,1.2,46,0.25,,,,,,,,,,,,,,,,,,,,,,,,,,,,,,,,,,,,,,,,,,,,,
,,,,,SPR24_085,21,male,2024-04-24_11h36.08.507,jersey_experiment_5_v0,2023.2.2,Win32,85.47008547,,,,,,,,,,,,,,,,150.4043,151.4512,151.4513,153.3925,return,0.7232,,39.58333333,0,22,22,26,1,FBP-YG-19.png,0.37,1.2,27,0.25,,,,,,,,,,,,,,,,,,,,,,,,,,,,,,,,,,,,,,,,,,,,,
,,,,,SPR24_085,21,male,2024-04-24_11h36.08.507,jersey_experiment_5_v0,2023.2.2,Win32,85.47008547,,,,,,,,,,,,,,,,153.3927,154.4396,154.4396,155.9573,return,0.6852,,55.078125,0,23,23,27,1,FBP-YG-19.png,0.4,1.2,28,0.25,,,,,,,,,,,,,,,,,,,,,,,,,,,,,,,,,,,,,,,,,,,,,
,,,,,SPR24_085,21,male,2024-04-24_11h36.08.507,jersey_experiment_5_v0,2023.2.2,Win32,85.47008547,,,,,,,,,,,,,,,,155.9575,157.2514,157.2514,158.5221,return,0.6924,,67.96875,0,24,24,42,1,FBP-RB-19.png,0.4,1.2,43,0.5,,,,,,,,,,,,,,,,,,,,,,,,,,,,,,,,,,,,,,,,,,,,,
,,,,,SPR24_085,21,male,2024-04-24_11h36.08.507,jersey_experiment_5_v0,2023.2.2,Win32,85.47008547,,,,,,,,,,,,,,,,158.5223,159.5691,159.5691,161.2398,return,0.7666,,56.77083333,0,25,25,51,1,FBP-PT-18.png,0.37,1.2,52,0.25,,,,,,,,,,,,,,,,,,,,,,,,,,,,,,,,,,,,,,,,,,,,,
,,,,,SPR24_085,21,male,2024-04-24_11h36.08.507,jersey_experiment_5_v0,2023.2.2,Win32,85.47008547,,,,,,,,,,,,,,,,161.2401,162.534,162.5341,163.9105,return,0.5996,,95.96354167,0,26,26,4,1,FBP-OG-71.png,0.45,1.2,5,0.5,,,,,,,,,,,,,,,,,,,,,,,,,,,,,,,,,,,,,,,,,,,,,
,,,,,SPR24_085,21,male,2024-04-24_11h36.08.507,jersey_experiment_5_v0,2023.2.2,Win32,85.47008547,,,,,,,,,,,,,,,,163.9106,165.2045,165.2046,168.3577,return,0.5672,,80.46875,0,27,27,44,1,FBP-RB-19.png,0.45,1.2,45,0.5,,,,,,,,,,,,,,,,,,,,,,,,,,,,,,,,,,,,,,,,,,,,,
,,,,,SPR24_085,21,male,2024-04-24_11h36.08.507,jersey_experiment_5_v0,2023.2.2,Win32,85.47008547,,,,,,,,,,,,,,,,168.3578,169.4048,169.4048,170.5342,return,0.2113,,69.01041667,0,28,28,52,1,FBP-PT-18.png,0.4,1.2,53,0.25,,,,,,,,,,,,,,,,,,,,,,,,,,,,,,,,,,,,,,,,,,,,,
,,,,,SPR24_085,21,male,2024-04-24_11h36.08.507,jersey_experiment_5_v0,2023.2.2,Win32,85.47008547,,,,,,,,,,,,,,,,170.5344,171.8285,171.8285,173.1226,return,0.2526,,33.85416667,0,29,29,10,1,FBP-OG-91.png,0.35,1.2,11,0.5,,,,,,,,,,,,,,,,,,,,,,,,,,,,,,,,,,,,,,,,,,,,,
,,,,,SPR24_085,21,male,2024-04-24_11h36.08.507,jersey_experiment_5_v0,2023.2.2,Win32,85.47008547,,,,,,,,,,,,,,,,173.1229,174.4168,174.4168,175.6874,return,0.7433,,46.35416667,0,30,30,41,1,FBP-RB-19.png,0.37,1.2,42,0.5,,,,,,,,,,,,,,,,,,,,,,,,,,,,,,,,,,,,,,,,,,,,,
,,,,,SPR24_085,21,male,2024-04-24_11h36.08.507,jersey_experiment_5_v0,2023.2.2,Win32,85.47008547,,,,,,,,,,,,,,,,175.6877,176.7343,176.7343,178.0875,return,0.2355,,23.17708333,0,31,31,25,1,FBP-YG-19.png,0.35,1.2,26,0.25,,,,,,,,,,,,,,,,,,,,,,,,,,,,,,,,,,,,,,,,,,,,,
,,,,,SPR24_085,21,male,2024-04-24_11h36.08.507,jersey_experiment_5_v0,2023.2.2,Win32,85.47008547,,,,,,,,,,,,,,,,178.0877,179.3817,179.3817,180.3582,return,0.3076,,20.57291667,0,32,32,5,1,FBP-OG-81.png,0.35,1.2,6,0.5,,,,,,,,,,,,,,,,,,,,,,,,,,,,,,,,,,,,,,,,,,,,,
,,,,,SPR24_085,21,male,2024-04-24_11h36.08.507,jersey_experiment_5_v0,2023.2.2,Win32,85.47008547,,,,,,,,,,,,,,,,180.3584,181.4052,181.4053,182.7936,return,0.283,,97.39583333,0,33,33,28,1,FBP-YG-19.png,0.43,1.2,29,0.25,,,,,,,,,,,,,,,,,,,,,,,,,,,,,,,,,,,,,,,,,,,,,
,,,,,SPR24_085,21,male,2024-04-24_11h36.08.507,jersey_experiment_5_v0,2023.2.2,Win32,85.47008547,,,,,,,,,,,,,,,,182.7938,183.8407,183.8408,185.0643,return,0.1879,,47.265625,0,34,34,55,1,FBP-PT-19.png,0.35,1.2,56,0.25,,,,,,,,,,,,,,,,,,,,,,,,,,,,,,,,,,,,,,,,,,,,,
,,,,,SPR24_085,21,male,2024-04-24_11h36.08.507,jersey_experiment_5_v0,2023.2.2,Win32,85.47008547,,,,,,,,,,,,,,,,185.0644,186.1114,186.1114,186.9701,return,0.1647,,39.0625,0,35,35,16,1,FBP-YG-17.png,0.37,1.2,17,0.25,,,,,,,,,,,,,,,,,,,,,,,,,,,,,,,,,,,,,,,,,,,,,
,,,,,SPR24_085,21,male,2024-04-24_11h36.08.507,jersey_experiment_5_v0,2023.2.2,Win32,85.47008547,,,,,,,,,,,,,,,,186.9703,188.2644,188.2644,189.5586,return,0.2365,,94.01041667,0,36,36,3,1,FBP-OG-71.png,0.43,1.2,4,0.5,,,,,,,,,,,,,,,,,,,,,,,,,,,,,,,,,,,,,,,,,,,,,
,,,,,SPR24_085,21,male,2024-04-24_11h36.08.507,jersey_experiment_5_v0,2023.2.2,Win32,85.47008547,,,,,,,,,,,,,,,,189.5587,190.8527,190.8527,192.2762,return,0.2741,,99.609375,0,37,37,34,1,FBP-RB-17.png,0.45,1.2,35,0.5,,,,,,,,,,,,,,,,,,,,,,,,,,,,,,,,,,,,,,,,,,,,,
,,,,,SPR24_085,21,male,2024-04-24_11h36.08.507,jersey_experiment_5_v0,2023.2.2,Win32,85.47008547,,,,,,,,,,,,,,,,192.2764,193.3233,193.3233,194.5469,return,0.2026,,31.38020833,0,38,38,46,1,FBP-PT-17.png,0.37,1.2,47,0.25,,,,,,,,,,,,,,,,,,,,,,,,,,,,,,,,,,,,,,,,,,,,,
,,,,,SPR24_085,21,male,2024-04-24_11h36.08.507,jersey_experiment_5_v0,2023.2.2,Win32,85.47008547,,,,,,,,,,,,,,,,194.5472,195.841,195.841,196.7706,return,0.2289,,67.44791667,0,39,39,12,1,FBP-OG-91.png,0.4,1.2,13,0.5,,,,,,,,,,,,,,,,,,,,,,,,,,,,,,,,,,,,,,,,,,,,,
,,,,,SPR24_085,21,male,2024-04-24_11h36.08.507,jersey_experiment_5_v0,2023.2.2,Win32,85.47008547,,,,,,,,,,,,,,,,196.7708,197.8175,197.8176,198.9119,return,0.1467,,33.203125,0,40,40,56,1,FBP-PT-19.png,0.37,1.2,57,0.25,,,,,,,,,,,,,,,,,,,,,,,,,,,,,,,,,,,,,,,,,,,,,
,,,,,SPR24_085,21,male,2024-04-24_11h36.08.507,jersey_experiment_5_v0,2023.2.2,Win32,85.47008547,,,,,,,,,,,,,,,,198.9121,199.9589,199.9589,201.2648,return,0.2162,,95.18229167,0,41,41,24,1,FBP-YG-18.png,0.45,1.2,25,0.25,,,,,,,,,,,,,,,,,,,,,,,,,,,,,,,,,,,,,,,,,,,,,
,,,,,SPR24_085,21,male,2024-04-24_11h36.08.507,jersey_experiment_5_v0,2023.2.2,Win32,85.47008547,,,,,,,,,,,,,,,,201.265,202.3119,202.3119,203.5944,return,0.3298,,46.09375,0,42,42,57,1,FBP-PT-19.png,0.4,1.2,58,0.25,,,,,,,,,,,,,,,,,,,,,,,,,,,,,,,,,,,,,,,,,,,,,
,,,,,SPR24_085,21,male,2024-04-24_11h36.08.507,jersey_experiment_5_v0,2023.2.2,Win32,85.47008547,,,,,,,,,,,,,,,,203.5946,204.8887,204.8887,207.3945,return,1.6761,,18.61979167,0,43,43,35,1,FBP-RB-18.png,0.35,1.2,36,0.5,,,,,,,,,,,,,,,,,,,,,,,,,,,,,,,,,,,,,,,,,,,,,
,,,,,SPR24_085,21,male,2024-04-24_11h36.08.507,jersey_experiment_5_v0,2023.2.2,Win32,85.47008547,,,,,,,,,,,,,,,,207.3946,208.6885,208.6886,209.4885,return,0.2425,,83.984375,0,44,44,9,1,FBP-OG-81.png,0.45,1.2,10,0.5,,,,,,,,,,,,,,,,,,,,,,,,,,,,,,,,,,,,,,,,,,,,,
,,,,,SPR24_085,21,male,2024-04-24_11h36.08.507,jersey_experiment_5_v0,2023.2.2,Win32,85.47008547,,,,,,,,,,,,,,,,209.4887,210.7828,210.7828,212.2769,return,0.4006,,73.95833333,0,45,45,37,1,FBP-RB-18.png,0.4,1.2,38,0.5,,,,,,,,,,,,,,,,,,,,,,,,,,,,,,,,,,,,,,,,,,,,,
,,,,,SPR24_085,21,male,2024-04-24_11h36.08.507,jersey_experiment_5_v0,2023.2.2,Win32,85.47008547,,,,,,,,,,,,,,,,212.2772,213.5711,213.5711,214.3711,return,0.3081,,40.234375,0,46,46,6,1,FBP-OG-81.png,0.37,1.2,7,0.5,,,,,,,,,,,,,,,,,,,,,,,,,,,,,,,,,,,,,,,,,,,,,
,,,,,SPR24_085,21,male,2024-04-24_11h36.08.507,jersey_experiment_5_v0,2023.2.2,Win32,85.47008547,,,,,,,,,,,,,,,,214.3713,215.6654,215.6654,216.3123,return,0.1415,,64.97395833,0,47,47,43,1,FBP-RB-19.png,0.43,1.2,44,0.5,,,,,,,,,,,,,,,,,,,,,,,,,,,,,,,,,,,,,,,,,,,,,
,,,,,SPR24_085,21,male,2024-04-24_11h36.08.507,jersey_experiment_5_v0,2023.2.2,Win32,85.47008547,,,,,,,,,,,,,,,,216.3124,217.6064,217.6065,218.6418,return,0.1939,,37.5,0,48,48,31,1,FBP-RB-17.png,0.37,1.2,32,0.5,,,,,,,,,,,,,,,,,,,,,,,,,,,,,,,,,,,,,,,,,,,,,
,,,,,SPR24_085,21,male,2024-04-24_11h36.08.507,jersey_experiment_5_v0,2023.2.2,Win32,85.47008547,,,,,,,,,,,,,,,,218.642,219.9359,219.936,221.3949,return,0.7344,,24.609375,0,49,49,30,1,FBP-RB-17.png,0.35,1.2,31,0.5,,,,,,,,,,,,,,,,,,,,,,,,,,,,,,,,,,,,,,,,,,,,,
,,,,,SPR24_085,21,male,2024-04-24_11h36.08.507,jersey_experiment_5_v0,2023.2.2,Win32,85.47008547,,,,,,,,,,,,,,,,221.395,222.689,222.6891,223.8068,return,0.2421,,53.125,0,50,50,2,1,FBP-OG-71.png,0.4,1.2,3,0.5,,,,,,,,,,,,,,,,,,,,,,,,,,,,,,,,,,,,,,,,,,,,,
,,,,,SPR24_085,21,male,2024-04-24_11h36.08.507,jersey_experiment_5_v0,2023.2.2,Win32,85.47008547,,,,,,,,,,,,,,,,223.807,224.8539,224.8539,226.8423,return,0.2263,,99.21875,0,51,51,49,1,FBP-PT-17.png,0.45,1.2,50,0.25,,,,,,,,,,,,,,,,,,,,,,,,,,,,,,,,,,,,,,,,,,,,,
,,,,,SPR24_085,21,male,2024-04-24_11h36.08.507,jersey_experiment_5_v0,2023.2.2,Win32,85.47008547,,,,,,,,,,,,,,,,226.8425,227.8892,227.8892,229.1598,return,0.1646,,99.08854167,0,52,52,59,1,FBP-PT-19.png,0.45,1.2,60,0.25,,,,,,,,,,,,,,,,,,,,,,,,,,,,,,,,,,,,,,,,,,,,,
,,,,,SPR24_085,21,male,2024-04-24_11h36.08.507,jersey_experiment_5_v0,2023.2.2,Win32,85.47008547,,,,,,,,,,,,,,,,229.16,230.207,230.207,231.8894,return,0.806,,49.73958333,0,53,53,47,1,FBP-PT-17.png,0.4,1.2,48,0.25,,,,,,,,,,,,,,,,,,,,,,,,,,,,,,,,,,,,,,,,,,,,,
,,,,,SPR24_085,21,male,2024-04-24_11h36.08.507,jersey_experiment_5_v0,2023.2.2,Win32,85.47008547,,,,,,,,,,,,,,,,231.8895,233.1835,233.1835,234.1012,return,0.214,,82.68229167,0,54,54,38,1,FBP-RB-18.png,0.43,1.2,39,0.5,,,,,,,,,,,,,,,,,,,,,,,,,,,,,,,,,,,,,,,,,,,,,
,,,,,SPR24_085,21,male,2024-04-24_11h36.08.507,jersey_experiment_5_v0,2023.2.2,Win32,85.47008547,,,,,,,,,,,,,,,,234.1014,235.1484,235.1484,236.019,return,0.2753,,86.06770833,0,55,55,18,1,FBP-YG-17.png,0.43,1.2,19,0.25,,,,,,,,,,,,,,,,,,,,,,,,,,,,,,,,,,,,,,,,,,,,,
,,,,,SPR24_085,21,male,2024-04-24_11h36.08.507,jersey_experiment_5_v0,2023.2.2,Win32,85.47008547,,,,,,,,,,,,,,,,236.0192,237.3132,237.3133,238.4191,return,0.2045,,40.88541667,0,56,56,1,1,FBP-OG-71.png,0.37,1.2,2,0.5,,,,,,,,,,,,,,,,,,,,,,,,,,,,,,,,,,,,,,,,,,,,,
,,,,,SPR24_085,21,male,2024-04-24_11h36.08.507,jersey_experiment_5_v0,2023.2.2,Win32,85.47008547,,,,,,,,,,,,,,,,238.4193,239.7133,239.7134,240.7367,return,0.2988,,33.46354167,0,57,57,40,1,FBP-RB-19.png,0.35,1.2,41,0.5,,,,,,,,,,,,,,,,,,,,,,,,,,,,,,,,,,,,,,,,,,,,,
,,,,,SPR24_085,21,male,2024-04-24_11h36.08.507,jersey_experiment_5_v0,2023.2.2,Win32,85.47008547,,,,,,,,,,,,,,,,240.7368,242.0308,242.0308,243.6074,return,0.6353,,76.04166667,0,58,58,33,1,FBP-RB-17.png,0.43,1.2,34,0.5,,,,,,,,,,,,,,,,,,,,,,,,,,,,,,,,,,,,,,,,,,,,,
,,,,,SPR24_085,21,male,2024-04-24_11h36.08.507,jersey_experiment_5_v0,2023.2.2,Win32,85.47008547,,,,,,,,,,,,,,,,243.6076,244.9015,244.9015,246.6547,return,1.3953,,72.65625,0,59,59,7,1,FBP-OG-81.png,0.4,1.2,8,0.5,,,,,,,,,,,,,,,,,,,,,,,,,,,,,,,,,,,,,,,,,,,,,
,,,,,SPR24_085,21,male,2024-04-24_11h36.08.507,jersey_experiment_5_v0,2023.2.2,Win32,85.47008547,,,,,,,,,,,,,,,,246.6567,247.7016,247.7016,249.7606,return,1.2425,,93.22916667,,,,,,FBP-PT-91.png,0.43,1.2,59,0.25,0,0,0,58,1,,,,,,,,,,,,,,,,,,,,,,,,,,,,,,,,,,,,,,,,
,,,,,SPR24_085,21,male,2024-04-24_11h36.08.507,jersey_experiment_5_v0,2023.2.2,Win32,85.47008547,,,,,,,,,,,,,,,,249.7609,250.8078,250.8078,253.2196,return,0.8249,,50.52083333,,,,,,FBP-PT-71.png,0.37,1.2,47,0.25,0,1,1,46,1,,,,,,,,,,,,,,,,,,,,,,,,,,,,,,,,,,,,,,,,
,,,,,SPR24_085,21,male,2024-04-24_11h36.08.507,jersey_experiment_5_v0,2023.2.2,Win32,85.47008547,,,,,,,,,,,,,,,,253.2199,254.2666,254.2667,255.3489,return,0.2004,,82.16145833,,,,,,FBP-YG-71.png,0.45,1.2,20,0.25,0,2,2,19,1,,,,,,,,,,,,,,,,,,,,,,,,,,,,,,,,,,,,,,,,
,,,,,SPR24_085,21,male,2024-04-24_11h36.08.507,jersey_experiment_5_v0,2023.2.2,Win32,85.47008547,,,,,,,,,,,,,,,,255.3492,256.6431,256.6431,257.9374,return,0.2047,,62.5,,,,,,FBP-OG-18.png,0.4,1.2,8,0.5,0,3,3,7,1,,,,,,,,,,,,,,,,,,,,,,,,,,,,,,,,,,,,,,,,
,,,,,SPR24_085,21,male,2024-04-24_11h36.08.507,jersey_experiment_5_v0,2023.2.2,Win32,85.47008547,,,,,,,,,,,,,,,,257.9376,258.9845,258.9845,260.0668,return,0.2379,,48.17708333,,,,,,FBP-YG-91.png,0.35,1.2,26,0.25,0,4,4,25,1,,,,,,,,,,,,,,,,,,,,,,,,,,,,,,,,,,,,,,,,
,,,,,SPR24_085,21,male,2024-04-24_11h36.08.507,jersey_experiment_5_v0,2023.2.2,Win32,85.47008547,,,,,,,,,,,,,,,,260.067,261.1138,261.1138,262.114,return,0.3235,,42.70833333,,,,,,FBP-YG-71.png,0.37,1.2,17,0.25,0,5,5,16,1,,,,,,,,,,,,,,,,,,,,,,,,,,,,,,,,,,,,,,,,
,,,,,SPR24_085,21,male,2024-04-24_11h36.08.507,jersey_experiment_5_v0,2023.2.2,Win32,85.47008547,,,,,,,,,,,,,,,,262.1142,263.4083,263.4084,264.3024,return,0.2647,,66.27604167,,,,,,FBP-RB-81.png,0.4,1.2,38,0.5,0,6,6,37,1,,,,,,,,,,,,,,,,,,,,,,,,,,,,,,,,,,,,,,,,
,,,,,SPR24_085,21,male,2024-04-24_11h36.08.507,jersey_experiment_5_v0,2023.2.2,Win32,85.47008547,,,,,,,,,,,,,,,,264.3026,265.3494,265.3495,266.8082,return,0.2114,,41.14583333,,,,,,FBP-YG-81.png,0.37,1.2,22,0.25,0,7,7,21,1,,,,,,,,,,,,,,,,,,,,,,,,,,,,,,,,,,,,,,,,
,,,,,SPR24_085,21,male,2024-04-24_11h36.08.507,jersey_experiment_5_v0,2023.2.2,Win32,85.47008547,,,,,,,,,,,,,,,,266.8084,268.1024,268.1024,268.9966,return,0.2466,,27.60416667,,,,,,FBP-RB-81.png,0.37,1.2,37,0.5,0,8,8,36,1,,,,,,,,,,,,,,,,,,,,,,,,,,,,,,,,,,,,,,,,
,,,,,SPR24_085,21,male,2024-04-24_11h36.08.507,jersey_experiment_5_v0,2023.2.2,Win32,85.47008547,,,,,,,,,,,,,,,,268.9967,270.2907,270.2907,271.5849,return,0.6184,,70.57291667,,,,,,FBP-OG-19.png,0.43,1.2,14,0.5,0,9,9,13,1,,,,,,,,,,,,,,,,,,,,,,,,,,,,,,,,,,,,,,,,
,,,,,SPR24_085,21,male,2024-04-24_11h36.08.507,jersey_experiment_5_v0,2023.2.2,Win32,85.47008547,,,,,,,,,,,,,,,,271.5851,272.879,272.8791,273.8437,return,0.3661,,80.078125,,,,,,FBP-OG-17.png,0.4,1.2,3,0.5,0,10,10,2,1,,,,,,,,,,,,,,,,,,,,,,,,,,,,,,,,,,,,,,,,
,,,,,SPR24_085,21,male,2024-04-24_11h36.08.507,jersey_experiment_5_v0,2023.2.2,Win32,85.47008547,,,,,,,,,,,,,,,,273.844,275.138,275.1381,275.7027,return,0.1187,,85.02604167,,,,,,FBP-RB-91.png,0.43,1.2,44,0.5,0,11,11,43,1,,,,,,,,,,,,,,,,,,,,,,,,,,,,,,,,,,,,,,,,
,,,,,SPR24_085,21,male,2024-04-24_11h36.08.507,jersey_experiment_5_v0,2023.2.2,Win32,85.47008547,,,,,,,,,,,,,,,,275.7028,276.9968,276.9968,278.0557,return,0.1645,,38.15104167,,,,,,FBP-OG-17.png,0.37,1.2,2,0.5,0,12,12,1,1,,,,,,,,,,,,,,,,,,,,,,,,,,,,,,,,,,,,,,,,
,,,,,SPR24_085,21,male,2024-04-24_11h36.08.507,jersey_experiment_5_v0,2023.2.2,Win32,85.47008547,,,,,,,,,,,,,,,,278.0558,279.1029,279.103,280.0205,return,0.1561,,34.375,,,,,,FBP-PT-91.png,0.37,1.2,57,0.25,0,13,13,56,1,,,,,,,,,,,,,,,,,,,,,,,,,,,,,,,,,,,,,,,,
,,,,,SPR24_085,21,male,2024-04-24_11h36.08.507,jersey_experiment_5_v0,2023.2.2,Win32,85.47008547,,,,,,,,,,,,,,,,280.0208,281.3149,281.3149,281.8558,return,0.0902,,25.91145833,,,,,,FBP-RB-91.png,0.37,1.2,42,0.5,0,14,14,41,1,,,,,,,,,,,,,,,,,,,,,,,,,,,,,,,,,,,,,,,,
,,,,,SPR24_085,21,male,2024-04-24_11h36.08.507,jersey_experiment_5_v0,2023.2.2,Win32,85.47008547,,,,,,,,,,,,,,,,281.856,282.903,282.9031,283.8559,return,0.3955,,91.27604167,,,,,,FBP-YG-91.png,0.45,1.2,30,0.25,0,15,15,29,1,,,,,,,,,,,,,,,,,,,,,,,,,,,,,,,,,,,,,,,,
,,,,,SPR24_085,21,male,2024-04-24_11h36.08.507,jersey_experiment_5_v0,2023.2.2,Win32,85.47008547,,,,,,,,,,,,,,,,283.8561,284.9031,284.9031,285.4324,return,0.1183,,84.11458333,,,,,,FBP-PT-81.png,0.45,1.2,55,0.25,0,16,16,54,1,,,,,,,,,,,,,,,,,,,,,,,,,,,,,,,,,,,,,,,,
,,,,,SPR24_085,21,male,2024-04-24_11h36.08.507,jersey_experiment_5_v0,2023.2.2,Win32,85.47008547,,,,,,,,,,,,,,,,285.4327,286.7267,286.7267,287.5738,return,0.1652,,65.625,,,,,,FBP-RB-91.png,0.4,1.2,43,0.5,0,17,17,42,1,,,,,,,,,,,,,,,,,,,,,,,,,,,,,,,,,,,,,,,,
,,,,,SPR24_085,21,male,2024-04-24_11h36.08.507,jersey_experiment_5_v0,2023.2.2,Win32,85.47008547,,,,,,,,,,,,,,,,287.5741,288.6207,288.6207,289.4325,return,0.1327,,40.10416667,,,,,,FBP-YG-81.png,0.35,1.2,21,0.25,0,18,18,20,1,,,,,,,,,,,,,,,,,,,,,,,,,,,,,,,,,,,,,,,,
,,,,,SPR24_085,21,male,2024-04-24_11h36.08.507,jersey_experiment_5_v0,2023.2.2,Win32,85.47008547,,,,,,,,,,,,,,,,289.4329,290.4797,290.4797,291.4091,return,0.122,,67.44791667,,,,,,FBP-YG-91.png,0.4,1.2,28,0.25,0,19,19,27,1,,,,,,,,,,,,,,,,,,,,,,,,,,,,,,,,,,,,,,,,
,,,,,SPR24_085,21,male,2024-04-24_11h36.08.507,jersey_experiment_5_v0,2023.2.2,Win32,85.47008547,,,,,,,,,,,,,,,,291.4094,292.7033,292.7033,293.3621,return,0.1819,,86.71875,,,,,,FBP-RB-81.png,0.43,1.2,39,0.5,0,20,20,38,1,,,,,,,,,,,,,,,,,,,,,,,,,,,,,,,,,,,,,,,,
,,,,,SPR24_085,21,male,2024-04-24_11h36.08.507,jersey_experiment_5_v0,2023.2.2,Win32,85.47008547,,,,,,,,,,,,,,,,293.3623,294.6563,294.6563,295.4917,return,0.2492,,61.71875,,,,,,FBP-RB-71.png,0.37,1.2,32,0.5,0,21,21,31,1,,,,,,,,,,,,,,,,,,,,,,,,,,,,,,,,,,,,,,,,
,,,,,SPR24_085,21,male,2024-04-24_11h36.08.507,jersey_experiment_5_v0,2023.2.2,Win32,85.47008547,,,,,,,,,,,,,,,,295.4918,296.7858,296.7858,298.1153,return,0.934,,69.53125,,,,,,FBP-OG-19.png,0.4,1.2,13,0.5,0,22,22,12,1,,,,,,,,,,,,,,,,,,,,,,,,,,,,,,,,,,,,,,,,
,,,,,SPR24_085,21,male,2024-04-24_11h36.08.507,jersey_experiment_5_v0,2023.2.2,Win32,85.47008547,,,,,,,,,,,,,,,,298.1156,299.4096,299.4096,300.4684,return,0.5327,,93.359375,,,,,,FBP-OG-17.png,0.45,1.2,5,0.5,0,23,23,4,1,,,,,,,,,,,,,,,,,,,,,,,,,,,,,,,,,,,,,,,,
,,,,,SPR24_085,21,male,2024-04-24_11h36.08.507,jersey_experiment_5_v0,2023.2.2,Win32,85.47008547,,,,,,,,,,,,,,,,300.4686,301.7625,301.7626,302.4566,return,0.1408,,92.1875,,,,,,FBP-OG-19.png,0.45,1.2,15,0.5,0,24,24,14,1,,,,,,,,,,,,,,,,,,,,,,,,,,,,,,,,,,,,,,,,
,,,,,SPR24_085,21,male,2024-04-24_11h36.08.507,jersey_experiment_5_v0,2023.2.2,Win32,85.47008547,,,,,,,,,,,,,,,,302.4568,303.7507,303.7508,304.6568,return,0.1694,,99.08854167,,,,,,FBP-RB-71.png,0.45,1.2,35,0.5,0,25,25,34,1,,,,,,,,,,,,,,,,,,,,,,,,,,,,,,,,,,,,,,,,
,,,,,SPR24_085,21,male,2024-04-24_11h36.08.507,jersey_experiment_5_v0,2023.2.2,Win32,85.47008547,,,,,,,,,,,,,,,,304.657,305.9509,305.9509,307.2803,return,0.2663,,100,,,,,,FBP-OG-18.png,0.45,1.2,10,0.5,0,26,26,9,1,,,,,,,,,,,,,,,,,,,,,,,,,,,,,,,,,,,,,,,,
,,,,,SPR24_085,21,male,2024-04-24_11h36.08.507,jersey_experiment_5_v0,2023.2.2,Win32,85.47008547,,,,,,,,,,,,,,,,307.2806,308.5745,308.5746,309.7275,return,0.1825,,60.9375,,,,,,FBP-RB-71.png,0.4,1.2,33,0.5,0,27,27,32,1,,,,,,,,,,,,,,,,,,,,,,,,,,,,,,,,,,,,,,,,
,,,,,SPR24_085,21,male,2024-04-24_11h36.08.507,jersey_experiment_5_v0,2023.2.2,Win32,85.47008547,,,,,,,,,,,,,,,,309.7277,310.7746,310.7746,311.5393,return,0.1782,,87.63020833,,,,,,FBP-YG-81.png,0.45,1.2,25,0.25,0,28,28,24,1,,,,,,,,,,,,,,,,,,,,,,,,,,,,,,,,,,,,,,,,
,,,,,SPR24_085,21,male,2024-04-24_11h36.08.507,jersey_experiment_5_v0,2023.2.2,Win32,85.47008547,,,,,,,,,,,,,,,,311.5394,312.8334,312.8334,313.6217,return,0.2251,,47.13541667,,,,,,FBP-OG-18.png,0.35,1.2,6,0.5,0,29,29,5,1,,,,,,,,,,,,,,,,,,,,,,,,,,,,,,,,,,,,,,,,
,,,,,SPR24_085,21,male,2024-04-24_11h36.08.507,jersey_experiment_5_v0,2023.2.2,Win32,85.47008547,,,,,,,,,,,,,,,,313.6219,314.6687,314.6687,315.5394,return,0.1544,,36.58854167,,,,,,FBP-PT-81.png,0.35,1.2,51,0.25,0,30,30,50,1,,,,,,,,,,,,,,,,,,,,,,,,,,,,,,,,,,,,,,,,
,,,,,SPR24_085,21,male,2024-04-24_11h36.08.507,jersey_experiment_5_v0,2023.2.2,Win32,85.47008547,,,,,,,,,,,,,,,,315.5397,316.8334,316.8335,317.669,return,0.1416,,34.50520833,,,,,,FBP-OG-19.png,0.37,1.2,12,0.5,0,31,31,11,1,,,,,,,,,,,,,,,,,,,,,,,,,,,,,,,,,,,,,,,,
,,,,,SPR24_085,21,male,2024-04-24_11h36.08.507,jersey_experiment_5_v0,2023.2.2,Win32,85.47008547,,,,,,,,,,,,,,,,317.6691,318.7161,318.7162,319.4454,return,0.1526,,36.97916667,,,,,,FBP-YG-91.png,0.37,1.2,27,0.25,0,32,32,26,1,,,,,,,,,,,,,,,,,,,,,,,,,,,,,,,,,,,,,,,,
,,,,,SPR24_085,21,male,2024-04-24_11h36.08.507,jersey_experiment_5_v0,2023.2.2,Win32,85.47008547,,,,,,,,,,,,,,,,319.4457,320.7396,320.7396,322.1279,return,0.6664,,77.99479167,,,,,,FBP-RB-81.png,0.45,1.2,40,0.5,0,33,33,39,1,,,,,,,,,,,,,,,,,,,,,,,,,,,,,,,,,,,,,,,,
,,,,,SPR24_085,21,male,2024-04-24_11h36.08.507,jersey_experiment_5_v0,2023.2.2,Win32,85.47008547,,,,,,,,,,,,,,,,322.128,323.4221,323.4222,324.0809,return,0.148,,33.59375,,,,,,FBP-RB-81.png,0.35,1.2,36,0.5,0,34,34,35,1,,,,,,,,,,,,,,,,,,,,,,,,,,,,,,,,,,,,,,,,
,,,,,SPR24_085,21,male,2024-04-24_11h36.08.507,jersey_experiment_5_v0,2023.2.2,Win32,85.47008547,,,,,,,,,,,,,,,,324.081,325.3752,325.3753,326.1162,return,0.0619,,31.77083333,,,,,,FBP-RB-71.png,0.35,1.2,31,0.5,0,35,35,30,1,,,,,,,,,,,,,,,,,,,,,,,,,,,,,,,,,,,,,,,,
,,,,,SPR24_085,21,male,2024-04-24_11h36.08.507,jersey_experiment_5_v0,2023.2.2,Win32,85.47008547,,,,,,,,,,,,,,,,326.1165,327.1632,327.1632,328.2575,return,0.1212,,76.82291667,,,,,,FBP-YG-91.png,0.43,1.2,29,0.25,0,36,36,28,1,,,,,,,,,,,,,,,,,,,,,,,,,,,,,,,,,,,,,,,,
,,,,,SPR24_085,21,male,2024-04-24_11h36.08.507,jersey_experiment_5_v0,2023.2.2,Win32,85.47008547,,,,,,,,,,,,,,,,328.2578,329.3045,329.3046,330.5752,return,0.5119,,54.55729167,,,,,,FBP-PT-91.png,0.4,1.2,58,0.25,0,37,37,57,1,,,,,,,,,,,,,,,,,,,,,,,,,,,,,,,,,,,,,,,,
,,,,,SPR24_085,21,male,2024-04-24_11h36.08.507,jersey_experiment_5_v0,2023.2.2,Win32,85.47008547,,,,,,,,,,,,,,,,330.5754,331.6225,331.6225,332.3753,return,0.0617,,74.73958333,,,,,,FBP-YG-71.png,0.43,1.2,19,0.25,0,38,38,18,1,,,,,,,,,,,,,,,,,,,,,,,,,,,,,,,,,,,,,,,,
,,,,,SPR24_085,21,male,2024-04-24_11h36.08.507,jersey_experiment_5_v0,2023.2.2,Win32,85.47008547,,,,,,,,,,,,,,,,332.3755,333.6697,333.6697,334.3871,return,0.2723,,87.890625,,,,,,FBP-OG-18.png,0.43,1.2,9,0.5,0,39,39,8,1,,,,,,,,,,,,,,,,,,,,,,,,,,,,,,,,,,,,,,,,
,,,,,SPR24_085,21,male,2024-04-24_11h36.08.507,jersey_experiment_5_v0,2023.2.2,Win32,85.47008547,,,,,,,,,,,,,,,,334.3873,335.4343,335.4343,336.8813,return,0.5947,,35.02604167,,,,,,FBP-PT-71.png,0.35,1.2,46,0.25,0,40,40,45,1,,,,,,,,,,,,,,,,,,,,,,,,,,,,,,,,,,,,,,,,
,,,,,SPR24_085,21,male,2024-04-24_11h36.08.507,jersey_experiment_5_v0,2023.2.2,Win32,85.47008547,,,,,,,,,,,,,,,,336.8815,337.9287,337.9287,338.705,return,0.1923,,70.05208333,,,,,,FBP-PT-71.png,0.43,1.2,49,0.25,0,41,41,48,1,,,,,,,,,,,,,,,,,,,,,,,,,,,,,,,,,,,,,,,,
,,,,,SPR24_085,21,male,2024-04-24_11h36.08.507,jersey_experiment_5_v0,2023.2.2,Win32,85.47008547,,,,,,,,,,,,,,,,338.7051,339.9992,339.9992,341.3521,return,0.5651,,55.20833333,,,,,,FBP-OG-18.png,0.37,1.2,7,0.5,0,42,42,6,1,,,,,,,,,,,,,,,,,,,,,,,,,,,,,,,,,,,,,,,,
,,,,,SPR24_085,21,male,2024-04-24_11h36.08.507,jersey_experiment_5_v0,2023.2.2,Win32,85.47008547,,,,,,,,,,,,,,,,341.3524,342.3993,342.3993,343.3992,return,0.2211,,77.08333333,,,,,,FBP-PT-81.png,0.43,1.2,54,0.25,0,43,43,53,1,,,,,,,,,,,,,,,,,,,,,,,,,,,,,,,,,,,,,,,,
,,,,,SPR24_085,21,male,2024-04-24_11h36.08.507,jersey_experiment_5_v0,2023.2.2,Win32,85.47008547,,,,,,,,,,,,,,,,343.3995,344.4464,344.4464,345.5051,return,0.3241,,73.828125,,,,,,FBP-PT-81.png,0.4,1.2,53,0.25,0,44,44,52,1,,,,,,,,,,,,,,,,,,,,,,,,,,,,,,,,,,,,,,,,
,,,,,SPR24_085,21,male,2024-04-24_11h36.08.507,jersey_experiment_5_v0,2023.2.2,Win32,85.47008547,,,,,,,,,,,,,,,,345.5052,346.5522,346.5523,348.2583,return,0.7559,,54.03645833,,,,,,FBP-PT-81.png,0.37,1.2,52,0.25,0,45,45,51,1,,,,,,,,,,,,,,,,,,,,,,,,,,,,,,,,,,,,,,,,
,,,,,SPR24_085,21,male,2024-04-24_11h36.08.507,jersey_experiment_5_v0,2023.2.2,Win32,85.47008547,,,,,,,,,,,,,,,,348.2585,349.3052,349.3052,350.129,return,0.2046,,69.79166667,,,,,,FBP-YG-71.png,0.4,1.2,18,0.25,0,46,46,17,1,,,,,,,,,,,,,,,,,,,,,,,,,,,,,,,,,,,,,,,,
,,,,,SPR24_085,21,male,2024-04-24_11h36.08.507,jersey_experiment_5_v0,2023.2.2,Win32,85.47008547,,,,,,,,,,,,,,,,350.1293,351.176,351.176,353.2702,return,1.4583,,46.22395833,,,,,,FBP-YG-71.png,0.35,1.2,16,0.25,0,47,47,15,1,,,,,,,,,,,,,,,,,,,,,,,,,,,,,,,,,,,,,,,,
,,,,,SPR24_085,21,male,2024-04-24_11h36.08.507,jersey_experiment_5_v0,2023.2.2,Win32,85.47008547,,,,,,,,,,,,,,,,353.2704,354.5642,354.5642,355.8585,return,0.6051,,33.203125,,,,,,FBP-RB-91.png,0.35,1.2,41,0.5,0,48,48,40,1,,,,,,,,,,,,,,,,,,,,,,,,,,,,,,,,,,,,,,,,
,,,,,SPR24_085,21,male,2024-04-24_11h36.08.507,jersey_experiment_5_v0,2023.2.2,Win32,85.47008547,,,,,,,,,,,,,,,,355.8586,356.9056,356.9056,358.2938,return,0.637,,77.86458333,,,,,,FBP-PT-71.png,0.45,1.2,50,0.25,0,49,49,49,1,,,,,,,,,,,,,,,,,,,,,,,,,,,,,,,,,,,,,,,,
,,,,,SPR24_085,21,male,2024-04-24_11h36.08.507,jersey_experiment_5_v0,2023.2.2,Win32,85.47008547,,,,,,,,,,,,,,,,358.294,359.5882,359.5883,360.1764,return,0.1719,,86.97916667,,,,,,FBP-RB-71.png,0.43,1.2,34,0.5,0,50,50,33,1,,,,,,,,,,,,,,,,,,,,,,,,,,,,,,,,,,,,,,,,
,,,,,SPR24_085,21,male,2024-04-24_11h36.08.507,jersey_experiment_5_v0,2023.2.2,Win32,85.47008547,,,,,,,,,,,,,,,,360.1766,361.4706,361.4706,362.2704,return,0.3948,,92.05729167,,,,,,FBP-OG-17.png,0.43,1.2,4,0.5,0,51,51,3,1,,,,,,,,,,,,,,,,,,,,,,,,,,,,,,,,,,,,,,,,
,,,,,SPR24_085,21,male,2024-04-24_11h36.08.507,jersey_experiment_5_v0,2023.2.2,Win32,85.47008547,,,,,,,,,,,,,,,,362.2707,363.3176,363.3177,364.2116,return,0.2274,,97.13541667,,,,,,FBP-PT-91.png,0.45,1.2,60,0.25,0,52,52,59,1,,,,,,,,,,,,,,,,,,,,,,,,,,,,,,,,,,,,,,,,
,,,,,SPR24_085,21,male,2024-04-24_11h36.08.507,jersey_experiment_5_v0,2023.2.2,Win32,85.47008547,,,,,,,,,,,,,,,,364.2119,365.5059,365.5059,367.5412,return,0.7314,,43.22916667,,,,,,FBP-OG-19.png,0.35,1.2,11,0.5,0,53,53,10,1,,,,,,,,,,,,,,,,,,,,,,,,,,,,,,,,,,,,,,,,
,,,,,SPR24_085,21,male,2024-04-24_11h36.08.507,jersey_experiment_5_v0,2023.2.2,Win32,85.47008547,,,,,,,,,,,,,,,,367.5414,368.5884,368.5885,369.6001,return,0.396,,40.36458333,,,,,,FBP-PT-91.png,0.35,1.2,56,0.25,0,54,54,55,1,,,,,,,,,,,,,,,,,,,,,,,,,,,,,,,,,,,,,,,,
,,,,,SPR24_085,21,male,2024-04-24_11h36.08.507,jersey_experiment_5_v0,2023.2.2,Win32,85.47008547,,,,,,,,,,,,,,,,369.6003,370.6473,370.6474,371.4943,return,0.1891,,50.52083333,,,,,,FBP-YG-81.png,0.4,1.2,23,0.25,0,55,55,22,1,,,,,,,,,,,,,,,,,,,,,,,,,,,,,,,,,,,,,,,,
,,,,,SPR24_085,21,male,2024-04-24_11h36.08.507,jersey_experiment_5_v0,2023.2.2,Win32,85.47008547,,,,,,,,,,,,,,,,371.4945,372.5415,372.5415,373.4944,return,0.1659,,53.64583333,,,,,,FBP-PT-71.png,0.4,1.2,48,0.25,0,56,56,47,1,,,,,,,,,,,,,,,,,,,,,,,,,,,,,,,,,,,,,,,,
,,,,,SPR24_085,21,male,2024-04-24_11h36.08.507,jersey_experiment_5_v0,2023.2.2,Win32,85.47008547,,,,,,,,,,,,,,,,373.4946,374.7885,374.7885,376.2005,return,0.9885,,84.24479167,,,,,,FBP-RB-91.png,0.45,1.2,45,0.5,0,57,57,44,1,,,,,,,,,,,,,,,,,,,,,,,,,,,,,,,,,,,,,,,,
,,,,,SPR24_085,21,male,2024-04-24_11h36.08.507,jersey_experiment_5_v0,2023.2.2,Win32,85.47008547,,,,,,,,,,,,,,,,376.2008,377.4944,377.4945,378.6595,return,0.1663,,35.41666667,,,,,,FBP-OG-17.png,0.35,1.2,1,0.5,0,58,58,0,1,,,,,,,,,,,,,,,,,,,,,,,,,,,,,,,,,,,,,,,,
,,,,,SPR24_085,21,male,2024-04-24_11h36.08.507,jersey_experiment_5_v0,2023.2.2,Win32,85.47008547,,,,,,,,,,,,,,,,378.6597,379.7065,379.7065,381.2713,return,0.6264,,77.47395833,,,,,,FBP-YG-81.png,0.43,1.2,24,0.25,0,59,59,23,1,,,,,,,,,,,,,,,,,,,,,,,,,,,,,,,,,,,,,,,,
,,,,,SPR24_085,21,male,2024-04-24_11h36.08.507,jersey_experiment_5_v0,2023.2.2,Win32,85.47008547,,,,,,,,,,,,,,,,,,,,,,,,,,,,,,,,,,,,,,,381.2716,501.2638,,,,,,,,,,,,,,,,,,,,,,,,,,,,,,,,,,,,,,
,,,,,SPR24_085,21,male,2024-04-24_11h36.08.507,jersey_experiment_5_v0,2023.2.2,Win32,85.47008547,,,,,,,,,,,,,,,,,,,,,,,,,,,,,,,,,,,,,,,,,501.2638,503.7814,return,2.5052,,,,,,,,,,,,,,,,,,,,,,,,,,,,,,,,,,
,,,,,SPR24_085,21,male,2024-04-24_11h36.08.507,jersey_experiment_5_v0,2023.2.2,Win32,85.47008547,,,,,,,,,,,,,,,,503.7876,504.8403,504.8404,507.8169,return,1.6711,,36.58854167,,,,,,FBP-RB-19.png,0.35,1.2,41,0.25,,,,,,,,,,,,,0,0,0,40,1,,,,,,,,,,,,,,,,,,,,,,,,,,,,
,,,,,SPR24_085,21,male,2024-04-24_11h36.08.507,jersey_experiment_5_v0,2023.2.2,Win32,85.47008547,,,,,,,,,,,,,,,,507.8173,509.1111,509.1112,509.7463,return,0.1106,,35.9375,,,,,,FBP-YG-18.png,0.35,1.2,21,0.5,,,,,,,,,,,,,0,1,1,20,1,,,,,,,,,,,,,,,,,,,,,,,,,,,,
,,,,,SPR24_085,21,male,2024-04-24_11h36.08.507,jersey_experiment_5_v0,2023.2.2,Win32,85.47008547,,,,,,,,,,,,,,,,509.7466,511.0408,511.0408,511.9112,return,0.1412,,62.76041667,,,,,,FBP-YG-17.png,0.4,1.2,18,0.5,,,,,,,,,,,,,0,2,2,17,1,,,,,,,,,,,,,,,,,,,,,,,,,,,,
,,,,,SPR24_085,21,male,2024-04-24_11h36.08.507,jersey_experiment_5_v0,2023.2.2,Win32,85.47008547,,,,,,,,,,,,,,,,511.9115,513.2055,513.2056,514.0994,return,0.2038,,97.78645833,,,,,,FBP-PT-18.png,0.45,1.2,55,0.5,,,,,,,,,,,,,0,3,3,54,1,,,,,,,,,,,,,,,,,,,,,,,,,,,,
,,,,,SPR24_085,21,male,2024-04-24_11h36.08.507,jersey_experiment_5_v0,2023.2.2,Win32,85.47008547,,,,,,,,,,,,,,,,514.0997,515.1464,515.1464,515.7467,return,0.1109,,85.9375,,,,,,FBP-RB-17.png,0.45,1.2,35,0.25,,,,,,,,,,,,,0,4,4,34,1,,,,,,,,,,,,,,,,,,,,,,,,,,,,
,,,,,SPR24_085,21,male,2024-04-24_11h36.08.507,jersey_experiment_5_v0,2023.2.2,Win32,85.47008547,,,,,,,,,,,,,,,,515.7469,517.0409,517.0409,517.6643,return,0.1576,,71.09375,,,,,,FBP-YG-19.png,0.43,1.2,29,0.5,,,,,,,,,,,,,0,5,5,28,1,,,,,,,,,,,,,,,,,,,,,,,,,,,,
,,,,,SPR24_085,21,male,2024-04-24_11h36.08.507,jersey_experiment_5_v0,2023.2.2,Win32,85.47008547,,,,,,,,,,,,,,,,517.6646,518.9584,518.9585,519.6642,return,0.1243,,56.38020833,,,,,,FBP-YG-18.png,0.37,1.2,22,0.5,,,,,,,,,,,,,0,6,6,21,1,,,,,,,,,,,,,,,,,,,,,,,,,,,,
,,,,,SPR24_085,21,male,2024-04-24_11h36.08.507,jersey_experiment_5_v0,2023.2.2,Win32,85.47008547,,,,,,,,,,,,,,,,519.6645,520.9586,520.9587,521.4761,return,0.154,,71.484375,,,,,,FBP-PT-19.png,0.43,1.2,59,0.5,,,,,,,,,,,,,0,7,7,58,1,,,,,,,,,,,,,,,,,,,,,,,,,,,,
,,,,,SPR24_085,21,male,2024-04-24_11h36.08.507,jersey_experiment_5_v0,2023.2.2,Win32,85.47008547,,,,,,,,,,,,,,,,521.4764,522.5232,522.5233,523.5117,return,0.3198,,51.171875,,,,,,FBP-RB-18.png,0.35,1.2,36,0.25,,,,,,,,,,,,,0,8,8,35,1,,,,,,,,,,,,,,,,,,,,,,,,,,,,
,,,,,SPR24_085,21,male,2024-04-24_11h36.08.507,jersey_experiment_5_v0,2023.2.2,Win32,85.47008547,,,,,,,,,,,,,,,,523.5119,524.5588,524.5588,525.6174,return,0.1564,,56.38020833,,,,,,FBP-OG-91.png,0.4,1.2,13,0.25,,,,,,,,,,,,,0,9,9,12,1,,,,,,,,,,,,,,,,,,,,,,,,,,,,
,,,,,SPR24_085,21,male,2024-04-24_11h36.08.507,jersey_experiment_5_v0,2023.2.2,Win32,85.47008547,,,,,,,,,,,,,,,,525.6176,526.9117,526.9118,527.5821,return,0.1953,,60.80729167,,,,,,FBP-YG-18.png,0.4,1.2,23,0.5,,,,,,,,,,,,,0,10,10,22,1,,,,,,,,,,,,,,,,,,,,,,,,,,,,
,,,,,SPR24_085,21,male,2024-04-24_11h36.08.507,jersey_experiment_5_v0,2023.2.2,Win32,85.47008547,,,,,,,,,,,,,,,,527.5823,528.6293,528.6293,529.8411,return,0.7475,,80.59895833,,,,,,FBP-RB-19.png,0.43,1.2,44,0.25,,,,,,,,,,,,,0,11,11,43,1,,,,,,,,,,,,,,,,,,,,,,,,,,,,
,,,,,SPR24_085,21,male,2024-04-24_11h36.08.507,jersey_experiment_5_v0,2023.2.2,Win32,85.47008547,,,,,,,,,,,,,,,,529.8414,530.8881,530.8881,531.6061,return,0.2125,,97.39583333,,,,,,FBP-OG-91.png,0.45,1.2,15,0.25,,,,,,,,,,,,,0,12,12,14,1,,,,,,,,,,,,,,,,,,,,,,,,,,,,
,,,,,SPR24_085,21,male,2024-04-24_11h36.08.507,jersey_experiment_5_v0,2023.2.2,Win32,85.47008547,,,,,,,,,,,,,,,,531.6063,532.653,532.653,533.3823,return,0.1276,,85.15625,,,,,,FBP-RB-17.png,0.43,1.2,34,0.25,,,,,,,,,,,,,0,13,13,33,1,,,,,,,,,,,,,,,,,,,,,,,,,,,,
,,,,,SPR24_085,21,male,2024-04-24_11h36.08.507,jersey_experiment_5_v0,2023.2.2,Win32,85.47008547,,,,,,,,,,,,,,,,533.3825,534.6766,534.6766,535.3826,return,0.3063,,89.58333333,,,,,,FBP-YG-17.png,0.45,1.2,20,0.5,,,,,,,,,,,,,0,14,14,19,1,,,,,,,,,,,,,,,,,,,,,,,,,,,,
,,,,,SPR24_085,21,male,2024-04-24_11h36.08.507,jersey_experiment_5_v0,2023.2.2,Win32,85.47008547,,,,,,,,,,,,,,,,535.3828,536.6767,536.6767,537.7357,return,0.2351,,55.20833333,,,,,,FBP-YG-19.png,0.4,1.2,28,0.5,,,,,,,,,,,,,0,15,15,27,1,,,,,,,,,,,,,,,,,,,,,,,,,,,,
,,,,,SPR24_085,21,male,2024-04-24_11h36.08.507,jersey_experiment_5_v0,2023.2.2,Win32,85.47008547,,,,,,,,,,,,,,,,537.7358,539.0297,539.0297,539.8298,return,0.3072,,84.375,,,,,,FBP-PT-18.png,0.43,1.2,54,0.5,,,,,,,,,,,,,0,16,16,53,1,,,,,,,,,,,,,,,,,,,,,,,,,,,,
,,,,,SPR24_085,21,male,2024-04-24_11h36.08.507,jersey_experiment_5_v0,2023.2.2,Win32,85.47008547,,,,,,,,,,,,,,,,539.8301,540.8768,540.8768,541.9593,return,0.1186,,48.95833333,,,,,,FBP-RB-18.png,0.37,1.2,37,0.25,,,,,,,,,,,,,0,17,17,36,1,,,,,,,,,,,,,,,,,,,,,,,,,,,,
,,,,,SPR24_085,21,male,2024-04-24_11h36.08.507,jersey_experiment_5_v0,2023.2.2,Win32,85.47008547,,,,,,,,,,,,,,,,541.9596,543.0063,543.0063,544.0651,return,0.1096,,70.3125,,,,,,FBP-OG-71.png,0.43,1.2,4,0.25,,,,,,,,,,,,,0,18,18,3,1,,,,,,,,,,,,,,,,,,,,,,,,,,,,
,,,,,SPR24_085,21,male,2024-04-24_11h36.08.507,jersey_experiment_5_v0,2023.2.2,Win32,85.47008547,,,,,,,,,,,,,,,,544.0653,545.1122,545.1122,546.4537,return,0.6271,,88.80208333,,,,,,FBP-RB-19.png,0.45,1.2,45,0.25,,,,,,,,,,,,,0,19,19,44,1,,,,,,,,,,,,,,,,,,,,,,,,,,,,
,,,,,SPR24_085,21,male,2024-04-24_11h36.08.507,jersey_experiment_5_v0,2023.2.2,Win32,85.47008547,,,,,,,,,,,,,,,,546.4539,547.5005,547.5005,548.2419,return,0.1346,,93.48958333,,,,,,FBP-RB-18.png,0.45,1.2,40,0.25,,,,,,,,,,,,,0,20,20,39,1,,,,,,,,,,,,,,,,,,,,,,,,,,,,
,,,,,SPR24_085,21,male,2024-04-24_11h36.08.507,jersey_experiment_5_v0,2023.2.2,Win32,85.47008547,,,,,,,,,,,,,,,,548.2421,549.2888,549.2888,550.336,return,0.193,,71.61458333,,,,,,FBP-RB-18.png,0.4,1.2,38,0.25,,,,,,,,,,,,,0,21,21,37,1,,,,,,,,,,,,,,,,,,,,,,,,,,,,
,,,,,SPR24_085,21,male,2024-04-24_11h36.08.507,jersey_experiment_5_v0,2023.2.2,Win32,85.47008547,,,,,,,,,,,,,,,,550.3363,551.6303,551.6303,552.3243,return,0.1538,,39.453125,,,,,,FBP-PT-18.png,0.35,1.2,51,0.5,,,,,,,,,,,,,0,22,22,50,1,,,,,,,,,,,,,,,,,,,,,,,,,,,,
,,,,,SPR24_085,21,male,2024-04-24_11h36.08.507,jersey_experiment_5_v0,2023.2.2,Win32,85.47008547,,,,,,,,,,,,,,,,552.3246,553.6186,553.6186,554.195,return,0.1571,,74.08854167,,,,,,FBP-PT-19.png,0.45,1.2,60,0.5,,,,,,,,,,,,,0,23,23,59,1,,,,,,,,,,,,,,,,,,,,,,,,,,,,
,,,,,SPR24_085,21,male,2024-04-24_11h36.08.507,jersey_experiment_5_v0,2023.2.2,Win32,85.47008547,,,,,,,,,,,,,,,,554.1951,555.242,555.242,556.2421,return,0.1442,,50.13020833,,,,,,FBP-OG-81.png,0.4,1.2,8,0.25,,,,,,,,,,,,,0,24,24,7,1,,,,,,,,,,,,,,,,,,,,,,,,,,,,
,,,,,SPR24_085,21,male,2024-04-24_11h36.08.507,jersey_experiment_5_v0,2023.2.2,Win32,85.47008547,,,,,,,,,,,,,,,,556.2423,557.5363,557.5363,558.6424,return,0.5344,,71.35416667,,,,,,FBP-YG-18.png,0.45,1.2,25,0.5,,,,,,,,,,,,,0,25,25,24,1,,,,,,,,,,,,,,,,,,,,,,,,,,,,
,,,,,SPR24_085,21,male,2024-04-24_11h36.08.507,jersey_experiment_5_v0,2023.2.2,Win32,85.47008547,,,,,,,,,,,,,,,,558.6426,559.9365,559.9366,561.1364,return,0.6305,,57.29166667,,,,,,FBP-YG-19.png,0.37,1.2,27,0.5,,,,,,,,,,,,,0,26,26,26,1,,,,,,,,,,,,,,,,,,,,,,,,,,,,
,,,,,SPR24_085,21,male,2024-04-24_11h36.08.507,jersey_experiment_5_v0,2023.2.2,Win32,85.47008547,,,,,,,,,,,,,,,,561.1366,562.1835,562.1835,563.0422,return,0.1202,,47.265625,,,,,,FBP-OG-81.png,0.35,1.2,6,0.25,,,,,,,,,,,,,0,27,27,5,1,,,,,,,,,,,,,,,,,,,,,,,,,,,,
,,,,,SPR24_085,21,male,2024-04-24_11h36.08.507,jersey_experiment_5_v0,2023.2.2,Win32,85.47008547,,,,,,,,,,,,,,,,563.0424,564.0893,564.0893,564.807,return,0.1083,,78.25520833,,,,,,FBP-RB-18.png,0.43,1.2,39,0.25,,,,,,,,,,,,,0,28,28,38,1,,,,,,,,,,,,,,,,,,,,,,,,,,,,
,,,,,SPR24_085,21,male,2024-04-24_11h36.08.507,jersey_experiment_5_v0,2023.2.2,Win32,85.47008547,,,,,,,,,,,,,,,,564.8072,565.8541,565.8542,566.5367,return,0.1413,,92.83854167,,,,,,FBP-OG-71.png,0.45,1.2,5,0.25,,,,,,,,,,,,,0,29,29,4,1,,,,,,,,,,,,,,,,,,,,,,,,,,,,
,,,,,SPR24_085,21,male,2024-04-24_11h36.08.507,jersey_experiment_5_v0,2023.2.2,Win32,85.47008547,,,,,,,,,,,,,,,,566.5368,567.8308,567.8308,568.3365,return,0.1455,,82.94270833,,,,,,FBP-PT-18.png,0.4,1.2,53,0.5,,,,,,,,,,,,,0,30,30,52,1,,,,,,,,,,,,,,,,,,,,,,,,,,,,
,,,,,SPR24_085,21,male,2024-04-24_11h36.08.507,jersey_experiment_5_v0,2023.2.2,Win32,85.47008547,,,,,,,,,,,,,,,,568.3368,569.3836,569.3836,570.7603,return,0.7062,,58.07291667,,,,,,FBP-OG-71.png,0.37,1.2,2,0.25,,,,,,,,,,,,,0,31,31,1,1,,,,,,,,,,,,,,,,,,,,,,,,,,,,
,,,,,SPR24_085,21,male,2024-04-24_11h36.08.507,jersey_experiment_5_v0,2023.2.2,Win32,85.47008547,,,,,,,,,,,,,,,,570.7606,571.8073,571.8073,572.8545,return,0.1324,,48.17708333,,,,,,FBP-OG-71.png,0.35,1.2,1,0.25,,,,,,,,,,,,,0,32,32,0,1,,,,,,,,,,,,,,,,,,,,,,,,,,,,
,,,,,SPR24_085,21,male,2024-04-24_11h36.08.507,jersey_experiment_5_v0,2023.2.2,Win32,85.47008547,,,,,,,,,,,,,,,,572.8547,574.1486,574.1487,575.3604,return,0.3831,,70.96354167,,,,,,FBP-PT-17.png,0.4,1.2,48,0.5,,,,,,,,,,,,,0,33,33,47,1,,,,,,,,,,,,,,,,,,,,,,,,,,,,
,,,,,SPR24_085,21,male,2024-04-24_11h36.08.507,jersey_experiment_5_v0,2023.2.2,Win32,85.47008547,,,,,,,,,,,,,,,,575.3606,576.6546,576.6546,577.0899,return,0.0498,,80.59895833,,,,,,FBP-PT-19.png,0.4,1.2,58,0.5,,,,,,,,,,,,,0,34,34,57,1,,,,,,,,,,,,,,,,,,,,,,,,,,,,
,,,,,SPR24_085,21,male,2024-04-24_11h36.08.507,jersey_experiment_5_v0,2023.2.2,Win32,85.47008547,,,,,,,,,,,,,,,,577.0901,578.3842,578.3843,578.7605,return,0.038,,88.15104167,,,,,,FBP-YG-18.png,0.43,1.2,24,0.5,,,,,,,,,,,,,0,35,35,23,1,,,,,,,,,,,,,,,,,,,,,,,,,,,,
,,,,,SPR24_085,21,male,2024-04-24_11h36.08.507,jersey_experiment_5_v0,2023.2.2,Win32,85.47008547,,,,,,,,,,,,,,,,578.7609,579.8076,579.8076,580.4664,return,0.0609,,94.01041667,,,,,,FBP-OG-81.png,0.45,1.2,10,0.25,,,,,,,,,,,,,0,36,36,9,1,,,,,,,,,,,,,,,,,,,,,,,,,,,,
,,,,,SPR24_085,21,male,2024-04-24_11h36.08.507,jersey_experiment_5_v0,2023.2.2,Win32,85.47008547,,,,,,,,,,,,,,,,580.4666,581.7607,581.7608,582.5842,return,0.1274,,39.97395833,,,,,,FBP-YG-17.png,0.35,1.2,16,0.5,,,,,,,,,,,,,0,37,37,15,1,,,,,,,,,,,,,,,,,,,,,,,,,,,,
,,,,,SPR24_085,21,male,2024-04-24_11h36.08.507,jersey_experiment_5_v0,2023.2.2,Win32,85.47008547,,,,,,,,,,,,,,,,582.5844,583.8783,583.8783,584.5491,return,0.1088,,43.75,,,,,,FBP-YG-17.png,0.37,1.2,17,0.5,,,,,,,,,,,,,0,38,38,16,1,,,,,,,,,,,,,,,,,,,,,,,,,,,,
,,,,,SPR24_085,21,male,2024-04-24_11h36.08.507,jersey_experiment_5_v0,2023.2.2,Win32,85.47008547,,,,,,,,,,,,,,,,584.5492,585.596,585.596,586.8667,return,0.1074,,71.09375,,,,,,FBP-OG-71.png,0.4,1.2,3,0.25,,,,,,,,,,,,,0,39,39,2,1,,,,,,,,,,,,,,,,,,,,,,,,,,,,
,,,,,SPR24_085,21,male,2024-04-24_11h36.08.507,jersey_experiment_5_v0,2023.2.2,Win32,85.47008547,,,,,,,,,,,,,,,,586.8668,588.1609,588.1609,589.0785,return,0.1885,,67.83854167,,,,,,FBP-PT-19.png,0.35,1.2,56,0.5,,,,,,,,,,,,,0,40,40,55,1,,,,,,,,,,,,,,,,,,,,,,,,,,,,
,,,,,SPR24_085,21,male,2024-04-24_11h36.08.507,jersey_experiment_5_v0,2023.2.2,Win32,85.47008547,,,,,,,,,,,,,,,,589.0788,590.3727,590.3727,591.055,return,0.1496,,46.484375,,,,,,FBP-YG-19.png,0.35,1.2,26,0.5,,,,,,,,,,,,,0,41,41,25,1,,,,,,,,,,,,,,,,,,,,,,,,,,,,
,,,,,SPR24_085,21,male,2024-04-24_11h36.08.507,jersey_experiment_5_v0,2023.2.2,Win32,85.47008547,,,,,,,,,,,,,,,,591.0552,592.3493,592.3493,593.855,return,0.8079,,85.02604167,,,,,,FBP-PT-17.png,0.45,1.2,50,0.5,,,,,,,,,,,,,0,42,42,49,1,,,,,,,,,,,,,,,,,,,,,,,,,,,,
,,,,,SPR24_085,21,male,2024-04-24_11h36.08.507,jersey_experiment_5_v0,2023.2.2,Win32,85.47008547,,,,,,,,,,,,,,,,593.8552,594.9022,594.9022,595.7023,return,0.1176,,88.02083333,,,,,,FBP-OG-81.png,0.43,1.2,9,0.25,,,,,,,,,,,,,0,43,43,8,1,,,,,,,,,,,,,,,,,,,,,,,,,,,,
,,,,,SPR24_085,21,male,2024-04-24_11h36.08.507,jersey_experiment_5_v0,2023.2.2,Win32,85.47008547,,,,,,,,,,,,,,,,595.7026,596.9966,596.9966,598.4318,return,0.0754,,72.39583333,,,,,,FBP-PT-17.png,0.37,1.2,47,0.5,,,,,,,,,,,,,0,44,44,46,1,,,,,,,,,,,,,,,,,,,,,,,,,,,,
,,,,,SPR24_085,21,male,2024-04-24_11h36.08.507,jersey_experiment_5_v0,2023.2.2,Win32,85.47008547,,,,,,,,,,,,,,,,598.432,599.4788,599.4788,601.8437,return,1.7658,,74.34895833,,,,,,FBP-OG-91.png,0.37,1.2,12,0.25,,,,,,,,,,,,,0,45,45,11,1,,,,,,,,,,,,,,,,,,,,,,,,,,,,
,,,,,SPR24_085,21,male,2024-04-24_11h36.08.507,jersey_experiment_5_v0,2023.2.2,Win32,85.47008547,,,,,,,,,,,,,,,,601.844,602.8907,602.8907,603.6202,return,0.1066,,57.68229167,,,,,,FBP-OG-81.png,0.37,1.2,7,0.25,,,,,,,,,,,,,0,46,46,6,1,,,,,,,,,,,,,,,,,,,,,,,,,,,,
,,,,,SPR24_085,21,male,2024-04-24_11h36.08.507,jersey_experiment_5_v0,2023.2.2,Win32,85.47008547,,,,,,,,,,,,,,,,603.6205,604.9144,604.9144,605.7027,return,0.1409,,43.61979167,,,,,,FBP-PT-19.png,0.37,1.2,57,0.5,,,,,,,,,,,,,0,47,47,56,1,,,,,,,,,,,,,,,,,,,,,,,,,,,,
,,,,,SPR24_085,21,male,2024-04-24_11h36.08.507,jersey_experiment_5_v0,2023.2.2,Win32,85.47008547,,,,,,,,,,,,,,,,605.7028,606.7496,606.7496,607.8438,return,0.2499,,55.20833333,,,,,,FBP-RB-19.png,0.37,1.2,42,0.25,,,,,,,,,,,,,0,48,48,41,1,,,,,,,,,,,,,,,,,,,,,,,,,,,,
,,,,,SPR24_085,21,male,2024-04-24_11h36.08.507,jersey_experiment_5_v0,2023.2.2,Win32,85.47008547,,,,,,,,,,,,,,,,607.8441,608.891,608.891,610.1851,return,0.6213,,79.16666667,,,,,,FBP-RB-17.png,0.4,1.2,33,0.25,,,,,,,,,,,,,0,49,49,32,1,,,,,,,,,,,,,,,,,,,,,,,,,,,,
,,,,,SPR24_085,21,male,2024-04-24_11h36.08.507,jersey_experiment_5_v0,2023.2.2,Win32,85.47008547,,,,,,,,,,,,,,,,610.1853,611.4795,611.4795,611.8323,return,0.0586,,87.890625,,,,,,FBP-PT-17.png,0.43,1.2,49,0.5,,,,,,,,,,,,,0,50,50,48,1,,,,,,,,,,,,,,,,,,,,,,,,,,,,
,,,,,SPR24_085,21,male,2024-04-24_11h36.08.507,jersey_experiment_5_v0,2023.2.2,Win32,85.47008547,,,,,,,,,,,,,,,,611.8325,613.1264,613.1265,614.0205,return,0.1294,,46.22395833,,,,,,FBP-PT-17.png,0.35,1.2,46,0.5,,,,,,,,,,,,,0,51,51,45,1,,,,,,,,,,,,,,,,,,,,,,,,,,,,
,,,,,SPR24_085,21,male,2024-04-24_11h36.08.507,jersey_experiment_5_v0,2023.2.2,Win32,85.47008547,,,,,,,,,,,,,,,,614.0207,615.3147,615.3147,616.3736,return,0.2836,,64.97395833,,,,,,FBP-PT-18.png,0.37,1.2,52,0.5,,,,,,,,,,,,,0,52,52,51,1,,,,,,,,,,,,,,,,,,,,,,,,,,,,
,,,,,SPR24_085,21,male,2024-04-24_11h36.08.507,jersey_experiment_5_v0,2023.2.2,Win32,85.47008547,,,,,,,,,,,,,,,,616.3737,617.4209,617.4209,618.3265,return,0.1274,,60.67708333,,,,,,FBP-RB-17.png,0.37,1.2,32,0.25,,,,,,,,,,,,,0,53,53,31,1,,,,,,,,,,,,,,,,,,,,,,,,,,,,
,,,,,SPR24_085,21,male,2024-04-24_11h36.08.507,jersey_experiment_5_v0,2023.2.2,Win32,85.47008547,,,,,,,,,,,,,,,,618.3267,619.6208,619.6208,620.3031,return,0.149,,89.453125,,,,,,FBP-YG-19.png,0.45,1.2,30,0.5,,,,,,,,,,,,,0,54,54,29,1,,,,,,,,,,,,,,,,,,,,,,,,,,,,
,,,,,SPR24_085,21,male,2024-04-24_11h36.08.507,jersey_experiment_5_v0,2023.2.2,Win32,85.47008547,,,,,,,,,,,,,,,,620.3033,621.3504,621.3504,622.7267,return,0.0706,,55.078125,,,,,,FBP-OG-91.png,0.35,1.2,11,0.25,,,,,,,,,,,,,0,55,55,10,1,,,,,,,,,,,,,,,,,,,,,,,,,,,,
,,,,,SPR24_085,21,male,2024-04-24_11h36.08.507,jersey_experiment_5_v0,2023.2.2,Win32,85.47008547,,,,,,,,,,,,,,,,622.7269,624.0211,624.0211,624.4798,return,0.0986,,81.51041667,,,,,,FBP-YG-17.png,0.43,1.2,19,0.5,,,,,,,,,,,,,0,56,56,18,1,,,,,,,,,,,,,,,,,,,,,,,,,,,,
,,,,,SPR24_085,21,male,2024-04-24_11h36.08.507,jersey_experiment_5_v0,2023.2.2,Win32,85.47008547,,,,,,,,,,,,,,,,624.4801,625.527,625.527,626.3035,return,0.0874,,47.265625,,,,,,FBP-RB-17.png,0.35,1.2,31,0.25,,,,,,,,,,,,,0,57,57,30,1,,,,,,,,,,,,,,,,,,,,,,,,,,,,
,,,,,SPR24_085,21,male,2024-04-24_11h36.08.507,jersey_experiment_5_v0,2023.2.2,Win32,85.47008547,,,,,,,,,,,,,,,,626.3037,627.3505,627.3506,628.1505,return,0.1655,,54.81770833,,,,,,FBP-RB-19.png,0.4,1.2,43,0.25,,,,,,,,,,,,,0,58,58,42,1,,,,,,,,,,,,,,,,,,,,,,,,,,,,
,,,,,SPR24_085,21,male,2024-04-24_11h36.08.507,jersey_experiment_5_v0,2023.2.2,Win32,85.47008547,,,,,,,,,,,,,,,,628.1507,629.1975,629.1975,629.8919,return,0.0716,,83.46354167,,,,,,FBP-OG-91.png,0.43,1.2,14,0.25,,,,,,,,,,,,,0,59,59,13,1,,,,,,,,,,,,,,,,,,,,,,,,,,,,
,,,,,SPR24_085,21,male,2024-04-24_11h36.08.507,jersey_experiment_5_v0,2023.2.2,Win32,85.47008547,,,,,,,,,,,,,,,,629.8934,631.1861,631.1862,631.6565,return,0.1088,,65.234375,,,,,,FBP-PT-81.png,0.35,1.2,51,0.5,,,,,,,,,,,,,,,,,,0,0,0,50,1,,,,,,,,,,,,,,,,,,,,,,,
,,,,,SPR24_085,21,male,2024-04-24_11h36.08.507,jersey_experiment_5_v0,2023.2.2,Win32,85.47008547,,,,,,,,,,,,,,,,631.6568,632.7035,632.7035,633.3506,return,0.085,,69.40104167,,,,,,FBP-RB-91.png,0.37,1.2,42,0.25,,,,,,,,,,,,,,,,,,0,1,1,41,1,,,,,,,,,,,,,,,,,,,,,,,
,,,,,SPR24_085,21,male,2024-04-24_11h36.08.507,jersey_experiment_5_v0,2023.2.2,Win32,85.47008547,,,,,,,,,,,,,,,,633.3509,634.3977,634.3978,635.3743,return,0.3263,,83.72395833,,,,,,FBP-RB-81.png,0.4,1.2,38,0.25,,,,,,,,,,,,,,,,,,0,2,2,37,1,,,,,,,,,,,,,,,,,,,,,,,
,,,,,SPR24_085,21,male,2024-04-24_11h36.08.507,jersey_experiment_5_v0,2023.2.2,Win32,85.47008547,,,,,,,,,,,,,,,,635.3745,636.4215,636.4215,638.4214,return,1.3046,,59.765625,,,,,,FBP-OG-18.png,0.4,1.2,8,0.25,,,,,,,,,,,,,,,,,,0,3,3,7,1,,,,,,,,,,,,,,,,,,,,,,,
,,,,,SPR24_085,21,male,2024-04-24_11h36.08.507,jersey_experiment_5_v0,2023.2.2,Win32,85.47008547,,,,,,,,,,,,,,,,638.4216,639.7156,639.7156,640.5157,return,0.1916,,82.29166667,,,,,,FBP-YG-71.png,0.43,1.2,19,0.5,,,,,,,,,,,,,,,,,,0,4,4,18,1,,,,,,,,,,,,,,,,,,,,,,,
,,,,,SPR24_085,21,male,2024-04-24_11h36.08.507,jersey_experiment_5_v0,2023.2.2,Win32,85.47008547,,,,,,,,,,,,,,,,640.5158,641.5627,641.5628,642.5511,return,0.094,,46.22395833,,,,,,FBP-RB-81.png,0.37,1.2,37,0.25,,,,,,,,,,,,,,,,,,0,5,5,36,1,,,,,,,,,,,,,,,,,,,,,,,
,,,,,SPR24_085,21,male,2024-04-24_11h36.08.507,jersey_experiment_5_v0,2023.2.2,Win32,85.47008547,,,,,,,,,,,,,,,,642.5513,643.8453,643.8455,644.5159,return,0.0974,,70.3125,,,,,,FBP-PT-81.png,0.4,1.2,53,0.5,,,,,,,,,,,,,,,,,,0,6,6,52,1,,,,,,,,,,,,,,,,,,,,,,,
,,,,,SPR24_085,21,male,2024-04-24_11h36.08.507,jersey_experiment_5_v0,2023.2.2,Win32,85.47008547,,,,,,,,,,,,,,,,644.5161,645.8102,645.8102,646.257,return,0.0999,,90.49479167,,,,,,FBP-PT-71.png,0.4,1.2,48,0.5,,,,,,,,,,,,,,,,,,0,7,7,47,1,,,,,,,,,,,,,,,,,,,,,,,
,,,,,SPR24_085,21,male,2024-04-24_11h36.08.507,jersey_experiment_5_v0,2023.2.2,Win32,85.47008547,,,,,,,,,,,,,,,,646.2572,647.5512,647.5512,648.2219,return,0.1384,,57.94270833,,,,,,FBP-YG-91.png,0.35,1.2,26,0.5,,,,,,,,,,,,,,,,,,0,8,8,25,1,,,,,,,,,,,,,,,,,,,,,,,
,,,,,SPR24_085,21,male,2024-04-24_11h36.08.507,jersey_experiment_5_v0,2023.2.2,Win32,85.47008547,,,,,,,,,,,,,,,,648.222,649.516,649.516,649.9983,return,0.0887,,58.72395833,,,,,,FBP-YG-81.png,0.35,1.2,21,0.5,,,,,,,,,,,,,,,,,,0,9,9,20,1,,,,,,,,,,,,,,,,,,,,,,,
,,,,,SPR24_085,21,male,2024-04-24_11h36.08.507,jersey_experiment_5_v0,2023.2.2,Win32,85.47008547,,,,,,,,,,,,,,,,649.9985,651.2927,651.2927,651.8218,return,0.0678,,83.59375,,,,,,FBP-PT-81.png,0.43,1.2,54,0.5,,,,,,,,,,,,,,,,,,0,10,10,53,1,,,,,,,,,,,,,,,,,,,,,,,
,,,,,SPR24_085,21,male,2024-04-24_11h36.08.507,jersey_experiment_5_v0,2023.2.2,Win32,85.47008547,,,,,,,,,,,,,,,,651.8219,652.8689,652.8689,653.4103,return,0.0376,,80.59895833,,,,,,FBP-RB-81.png,0.43,1.2,39,0.25,,,,,,,,,,,,,,,,,,0,11,11,38,1,,,,,,,,,,,,,,,,,,,,,,,
,,,,,SPR24_085,21,male,2024-04-24_11h36.08.507,jersey_experiment_5_v0,2023.2.2,Win32,85.47008547,,,,,,,,,,,,,,,,653.4104,654.7044,654.7044,656.4219,return,1.2714,,100,,,,,,FBP-PT-91.png,0.45,1.2,60,0.5,,,,,,,,,,,,,,,,,,0,12,12,59,1,,,,,,,,,,,,,,,,,,,,,,,
,,,,,SPR24_085,21,male,2024-04-24_11h36.08.507,jersey_experiment_5_v0,2023.2.2,Win32,85.47008547,,,,,,,,,,,,,,,,656.4222,657.4692,657.4693,658.281,return,0.1269,,81.90104167,,,,,,FBP-OG-19.png,0.4,1.2,13,0.25,,,,,,,,,,,,,,,,,,0,13,13,12,1,,,,,,,,,,,,,,,,,,,,,,,
,,,,,SPR24_085,21,male,2024-04-24_11h36.08.507,jersey_experiment_5_v0,2023.2.2,Win32,85.47008547,,,,,,,,,,,,,,,,658.2812,659.328,659.3281,660.2458,return,0.0382,,60.02604167,,,,,,FBP-OG-18.png,0.37,1.2,7,0.25,,,,,,,,,,,,,,,,,,0,14,14,6,1,,,,,,,,,,,,,,,,,,,,,,,
,,,,,SPR24_085,21,male,2024-04-24_11h36.08.507,jersey_experiment_5_v0,2023.2.2,Win32,85.47008547,,,,,,,,,,,,,,,,660.246,661.5401,661.5402,662.0457,return,0.1126,,80.98958333,,,,,,FBP-YG-91.png,0.43,1.2,29,0.5,,,,,,,,,,,,,,,,,,0,15,15,28,1,,,,,,,,,,,,,,,,,,,,,,,
,,,,,SPR24_085,21,male,2024-04-24_11h36.08.507,jersey_experiment_5_v0,2023.2.2,Win32,85.47008547,,,,,,,,,,,,,,,,662.0458,663.0929,663.0929,663.8226,return,0.1719,,94.01041667,,,,,,FBP-OG-18.png,0.43,1.2,9,0.25,,,,,,,,,,,,,,,,,,0,16,16,8,1,,,,,,,,,,,,,,,,,,,,,,,
,,,,,SPR24_085,21,male,2024-04-24_11h36.08.507,jersey_experiment_5_v0,2023.2.2,Win32,85.47008547,,,,,,,,,,,,,,,,663.8228,665.1168,665.1168,665.6695,return,0.1997,,98.30729167,,,,,,FBP-YG-81.png,0.43,1.2,24,0.5,,,,,,,,,,,,,,,,,,0,17,17,23,1,,,,,,,,,,,,,,,,,,,,,,,
,,,,,SPR24_085,21,male,2024-04-24_11h36.08.507,jersey_experiment_5_v0,2023.2.2,Win32,85.47008547,,,,,,,,,,,,,,,,665.6697,666.9638,666.9638,667.5049,return,0.0619,,84.63541667,,,,,,FBP-YG-91.png,0.4,1.2,28,0.5,,,,,,,,,,,,,,,,,,0,18,18,27,1,,,,,,,,,,,,,,,,,,,,,,,
,,,,,SPR24_085,21,male,2024-04-24_11h36.08.507,jersey_experiment_5_v0,2023.2.2,Win32,85.47008547,,,,,,,,,,,,,,,,667.5051,668.5519,668.5519,669.352,return,0.0942,,58.984375,,,,,,FBP-RB-81.png,0.35,1.2,36,0.25,,,,,,,,,,,,,,,,,,0,19,19,35,1,,,,,,,,,,,,,,,,,,,,,,,
,,,,,SPR24_085,21,male,2024-04-24_11h36.08.507,jersey_experiment_5_v0,2023.2.2,Win32,85.47008547,,,,,,,,,,,,,,,,669.3523,670.3991,670.3991,671.0108,return,0.0371,,91.92708333,,,,,,FBP-OG-17.png,0.45,1.2,5,0.25,,,,,,,,,,,,,,,,,,0,20,20,4,1,,,,,,,,,,,,,,,,,,,,,,,
,,,,,SPR24_085,21,male,2024-04-24_11h36.08.507,jersey_experiment_5_v0,2023.2.2,Win32,85.47008547,,,,,,,,,,,,,,,,671.0109,672.305,672.3051,672.8816,return,0.111,,82.55208333,,,,,,FBP-YG-71.png,0.4,1.2,18,0.5,,,,,,,,,,,,,,,,,,0,21,21,17,1,,,,,,,,,,,,,,,,,,,,,,,
,,,,,SPR24_085,21,male,2024-04-24_11h36.08.507,jersey_experiment_5_v0,2023.2.2,Win32,85.47008547,,,,,,,,,,,,,,,,672.8818,673.9287,673.9287,674.9638,return,0.5302,,96.484375,,,,,,FBP-OG-18.png,0.45,1.2,10,0.25,,,,,,,,,,,,,,,,,,0,22,22,9,1,,,,,,,,,,,,,,,,,,,,,,,
,,,,,SPR24_085,21,male,2024-04-24_11h36.08.507,jersey_experiment_5_v0,2023.2.2,Win32,85.47008547,,,,,,,,,,,,,,,,674.9639,676.2582,676.2582,677.3289,return,0.1456,,45.83333333,,,,,,FBP-PT-71.png,0.37,1.2,47,0.5,,,,,,,,,,,,,,,,,,0,23,23,46,1,,,,,,,,,,,,,,,,,,,,,,,
,,,,,SPR24_085,21,male,2024-04-24_11h36.08.507,jersey_experiment_5_v0,2023.2.2,Win32,85.47008547,,,,,,,,,,,,,,,,677.329,678.3759,678.3759,679.2464,return,0.1124,,41.796875,,,,,,FBP-OG-19.png,0.37,1.2,12,0.25,,,,,,,,,,,,,,,,,,0,24,24,11,1,,,,,,,,,,,,,,,,,,,,,,,
,,,,,SPR24_085,21,male,2024-04-24_11h36.08.507,jersey_experiment_5_v0,2023.2.2,Win32,85.47008547,,,,,,,,,,,,,,,,679.2466,680.5406,680.5407,681.0114,return,0.145,,77.21354167,,,,,,FBP-PT-91.png,0.43,1.2,59,0.5,,,,,,,,,,,,,,,,,,0,25,25,58,1,,,,,,,,,,,,,,,,,,,,,,,
,,,,,SPR24_085,21,male,2024-04-24_11h36.08.507,jersey_experiment_5_v0,2023.2.2,Win32,85.47008547,,,,,,,,,,,,,,,,681.0115,682.0584,682.0584,682.7996,return,0.1016,,93.22916667,,,,,,FBP-OG-19.png,0.45,1.2,15,0.25,,,,,,,,,,,,,,,,,,0,26,26,14,1,,,,,,,,,,,,,,,,,,,,,,,
,,,,,SPR24_085,21,male,2024-04-24_11h36.08.507,jersey_experiment_5_v0,2023.2.2,Win32,85.47008547,,,,,,,,,,,,,,,,682.7999,683.8467,683.8467,684.8352,return,0.2142,,41.53645833,,,,,,FBP-OG-18.png,0.35,1.2,6,0.25,,,,,,,,,,,,,,,,,,0,27,27,5,1,,,,,,,,,,,,,,,,,,,,,,,
,,,,,SPR24_085,21,male,2024-04-24_11h36.08.507,jersey_experiment_5_v0,2023.2.2,Win32,85.47008547,,,,,,,,,,,,,,,,684.8354,686.1293,686.1294,687.0468,return,0.1075,,37.109375,,,,,,FBP-YG-71.png,0.35,1.2,16,0.5,,,,,,,,,,,,,,,,,,0,28,28,15,1,,,,,,,,,,,,,,,,,,,,,,,
,,,,,SPR24_085,21,male,2024-04-24_11h36.08.507,jersey_experiment_5_v0,2023.2.2,Win32,85.47008547,,,,,,,,,,,,,,,,687.047,688.0937,688.0937,689.9999,return,1.2161,,43.75,,,,,,FBP-OG-17.png,0.37,1.2,2,0.25,,,,,,,,,,,,,,,,,,0,29,29,1,1,,,,,,,,,,,,,,,,,,,,,,,
,,,,,SPR24_085,21,male,2024-04-24_11h36.08.507,jersey_experiment_5_v0,2023.2.2,Win32,85.47008547,,,,,,,,,,,,,,,,690.0001,691.294,691.2941,692.4352,return,0.4862,,65.49479167,,,,,,FBP-YG-81.png,0.4,1.2,23,0.5,,,,,,,,,,,,,,,,,,0,30,30,22,1,,,,,,,,,,,,,,,,,,,,,,,
,,,,,SPR24_085,21,male,2024-04-24_11h36.08.507,jersey_experiment_5_v0,2023.2.2,Win32,85.47008547,,,,,,,,,,,,,,,,692.4354,693.4821,693.4821,694.0352,return,0.0391,,90.234375,,,,,,FBP-RB-91.png,0.43,1.2,44,0.25,,,,,,,,,,,,,,,,,,0,31,31,43,1,,,,,,,,,,,,,,,,,,,,,,,
,,,,,SPR24_085,21,male,2024-04-24_11h36.08.507,jersey_experiment_5_v0,2023.2.2,Win32,85.47008547,,,,,,,,,,,,,,,,694.0354,695.3295,695.3296,696.1294,return,0.1442,,100,,,,,,FBP-PT-71.png,0.45,1.2,50,0.5,,,,,,,,,,,,,,,,,,0,32,32,49,1,,,,,,,,,,,,,,,,,,,,,,,
,,,,,SPR24_085,21,male,2024-04-24_11h36.08.507,jersey_experiment_5_v0,2023.2.2,Win32,85.47008547,,,,,,,,,,,,,,,,696.1296,697.1765,697.1766,699.0118,return,0.1778,,100,,,,,,FBP-RB-81.png,0.45,1.2,40,0.25,,,,,,,,,,,,,,,,,,0,33,33,39,1,,,,,,,,,,,,,,,,,,,,,,,
,,,,,SPR24_085,21,male,2024-04-24_11h36.08.507,jersey_experiment_5_v0,2023.2.2,Win32,85.47008547,,,,,,,,,,,,,,,,699.0119,700.0591,700.0591,701.1532,return,0.1233,,37.76041667,,,,,,FBP-RB-71.png,0.35,1.2,31,0.25,,,,,,,,,,,,,,,,,,0,34,34,30,1,,,,,,,,,,,,,,,,,,,,,,,
,,,,,SPR24_085,21,male,2024-04-24_11h36.08.507,jersey_experiment_5_v0,2023.2.2,Win32,85.47008547,,,,,,,,,,,,,,,,701.1533,702.4474,702.4475,703.1531,return,0.0999,,46.22395833,,,,,,FBP-YG-71.png,0.37,1.2,17,0.5,,,,,,,,,,,,,,,,,,0,35,35,16,1,,,,,,,,,,,,,,,,,,,,,,,
,,,,,SPR24_085,21,male,2024-04-24_11h36.08.507,jersey_experiment_5_v0,2023.2.2,Win32,85.47008547,,,,,,,,,,,,,,,,703.1533,704.2003,704.2003,705.1415,return,0.1088,,81.38020833,,,,,,FBP-OG-17.png,0.4,1.2,3,0.25,,,,,,,,,,,,,,,,,,0,36,36,2,1,,,,,,,,,,,,,,,,,,,,,,,
,,,,,SPR24_085,21,male,2024-04-24_11h36.08.507,jersey_experiment_5_v0,2023.2.2,Win32,85.47008547,,,,,,,,,,,,,,,,705.1417,706.1886,706.1887,707.0475,return,0.0945,,43.88020833,,,,,,FBP-RB-71.png,0.37,1.2,32,0.25,,,,,,,,,,,,,,,,,,0,37,37,31,1,,,,,,,,,,,,,,,,,,,,,,,
,,,,,SPR24_085,21,male,2024-04-24_11h36.08.507,jersey_experiment_5_v0,2023.2.2,Win32,85.47008547,,,,,,,,,,,,,,,,707.0476,708.3416,708.3417,708.9768,return,0.0273,,39.71354167,,,,,,FBP-PT-81.png,0.37,1.2,52,0.5,,,,,,,,,,,,,,,,,,0,38,38,51,1,,,,,,,,,,,,,,,,,,,,,,,
,,,,,SPR24_085,21,male,2024-04-24_11h36.08.507,jersey_experiment_5_v0,2023.2.2,Win32,85.47008547,,,,,,,,,,,,,,,,708.977,710.2713,710.2713,710.8005,return,0.0864,,89.0625,,,,,,FBP-PT-91.png,0.4,1.2,58,0.5,,,,,,,,,,,,,,,,,,0,39,39,57,1,,,,,,,,,,,,,,,,,,,,,,,
,,,,,SPR24_085,21,male,2024-04-24_11h36.08.507,jersey_experiment_5_v0,2023.2.2,Win32,85.47008547,,,,,,,,,,,,,,,,710.8007,711.8476,711.8476,712.6948,return,0.0607,,100,,,,,,FBP-RB-91.png,0.45,1.2,45,0.25,,,,,,,,,,,,,,,,,,0,40,40,44,1,,,,,,,,,,,,,,,,,,,,,,,
,,,,,SPR24_085,21,male,2024-04-24_11h36.08.507,jersey_experiment_5_v0,2023.2.2,Win32,85.47008547,,,,,,,,,,,,,,,,712.6949,713.7417,713.7418,715.4479,return,0.5553,,47.52604167,,,,,,FBP-OG-17.png,0.35,1.2,1,0.25,,,,,,,,,,,,,,,,,,0,41,41,0,1,,,,,,,,,,,,,,,,,,,,,,,
,,,,,SPR24_085,21,male,2024-04-24_11h36.08.507,jersey_experiment_5_v0,2023.2.2,Win32,85.47008547,,,,,,,,,,,,,,,,715.448,716.742,716.742,718.0831,return,0.7213,,89.453125,,,,,,FBP-YG-91.png,0.45,1.2,30,0.5,,,,,,,,,,,,,,,,,,0,42,42,29,1,,,,,,,,,,,,,,,,,,,,,,,
,,,,,SPR24_085,21,male,2024-04-24_11h36.08.507,jersey_experiment_5_v0,2023.2.2,Win32,85.47008547,,,,,,,,,,,,,,,,718.0834,719.1303,719.1303,720.1655,return,0.0584,,40.88541667,,,,,,FBP-OG-19.png,0.35,1.2,11,0.25,,,,,,,,,,,,,,,,,,0,43,43,10,1,,,,,,,,,,,,,,,,,,,,,,,
,,,,,SPR24_085,21,male,2024-04-24_11h36.08.507,jersey_experiment_5_v0,2023.2.2,Win32,85.47008547,,,,,,,,,,,,,,,,720.1657,721.4598,721.4598,722.0833,return,0.0858,,45.18229167,,,,,,FBP-PT-91.png,0.37,1.2,57,0.5,,,,,,,,,,,,,,,,,,0,44,44,56,1,,,,,,,,,,,,,,,,,,,,,,,
,,,,,SPR24_085,21,male,2024-04-24_11h36.08.507,jersey_experiment_5_v0,2023.2.2,Win32,85.47008547,,,,,,,,,,,,,,,,722.0834,723.3774,723.3775,724.0481,return,0.1105,,48.17708333,,,,,,FBP-YG-91.png,0.37,1.2,27,0.5,,,,,,,,,,,,,,,,,,0,45,45,26,1,,,,,,,,,,,,,,,,,,,,,,,
,,,,,SPR24_085,21,male,2024-04-24_11h36.08.507,jersey_experiment_5_v0,2023.2.2,Win32,85.47008547,,,,,,,,,,,,,,,,724.0482,725.3422,725.3423,725.8482,return,0.0473,,86.45833333,,,,,,FBP-YG-71.png,0.45,1.2,20,0.5,,,,,,,,,,,,,,,,,,0,46,46,19,1,,,,,,,,,,,,,,,,,,,,,,,
,,,,,SPR24_085,21,male,2024-04-24_11h36.08.507,jersey_experiment_5_v0,2023.2.2,Win32,85.47008547,,,,,,,,,,,,,,,,725.8484,726.8952,726.8952,727.6364,return,0.0478,,97.00520833,,,,,,FBP-OG-17.png,0.43,1.2,4,0.25,,,,,,,,,,,,,,,,,,0,47,47,3,1,,,,,,,,,,,,,,,,,,,,,,,
,,,,,SPR24_085,21,male,2024-04-24_11h36.08.507,jersey_experiment_5_v0,2023.2.2,Win32,85.47008547,,,,,,,,,,,,,,,,727.6366,728.6833,728.6834,729.3187,return,0.0704,,89.58333333,,,,,,FBP-RB-91.png,0.4,1.2,43,0.25,,,,,,,,,,,,,,,,,,0,48,48,42,1,,,,,,,,,,,,,,,,,,,,,,,
,,,,,SPR24_085,21,male,2024-04-24_11h36.08.507,jersey_experiment_5_v0,2023.2.2,Win32,85.47008547,,,,,,,,,,,,,,,,729.3189,730.613,730.613,731.2718,return,0.0563,,100,,,,,,FBP-YG-81.png,0.45,1.2,25,0.5,,,,,,,,,,,,,,,,,,0,49,49,24,1,,,,,,,,,,,,,,,,,,,,,,,
,,,,,SPR24_085,21,male,2024-04-24_11h36.08.507,jersey_experiment_5_v0,2023.2.2,Win32,85.47008547,,,,,,,,,,,,,,,,731.2719,732.319,732.319,733.0484,return,0.1084,,91.66666667,,,,,,FBP-OG-19.png,0.43,1.2,14,0.25,,,,,,,,,,,,,,,,,,0,50,50,13,1,,,,,,,,,,,,,,,,,,,,,,,
,,,,,SPR24_085,21,male,2024-04-24_11h36.08.507,jersey_experiment_5_v0,2023.2.2,Win32,85.47008547,,,,,,,,,,,,,,,,733.0487,734.0954,734.0954,737.3193,return,0.1883,,98.56770833,,,,,,FBP-RB-71.png,0.43,1.2,34,0.25,,,,,,,,,,,,,,,,,,0,51,51,33,1,,,,,,,,,,,,,,,,,,,,,,,
,,,,,SPR24_085,21,male,2024-04-24_11h36.08.507,jersey_experiment_5_v0,2023.2.2,Win32,85.47008547,,,,,,,,,,,,,,,,737.3195,738.3662,738.3662,739.8133,return,0.1051,,35.41666667,,,,,,FBP-RB-91.png,0.35,1.2,41,0.25,,,,,,,,,,,,,,,,,,0,52,52,40,1,,,,,,,,,,,,,,,,,,,,,,,
,,,,,SPR24_085,21,male,2024-04-24_11h36.08.507,jersey_experiment_5_v0,2023.2.2,Win32,85.47008547,,,,,,,,,,,,,,,,739.8136,741.1075,741.1075,741.9194,return,0.0518,,71.484375,,,,,,FBP-PT-81.png,0.45,1.2,55,0.5,,,,,,,,,,,,,,,,,,0,53,53,54,1,,,,,,,,,,,,,,,,,,,,,,,
,,,,,SPR24_085,21,male,2024-04-24_11h36.08.507,jersey_experiment_5_v0,2023.2.2,Win32,85.47008547,,,,,,,,,,,,,,,,741.9196,743.2134,743.2134,743.8961,return,0.1657,,44.79166667,,,,,,FBP-PT-91.png,0.35,1.2,56,0.5,,,,,,,,,,,,,,,,,,0,54,54,55,1,,,,,,,,,,,,,,,,,,,,,,,
,,,,,SPR24_085,21,male,2024-04-24_11h36.08.507,jersey_experiment_5_v0,2023.2.2,Win32,85.47008547,,,,,,,,,,,,,,,,743.8963,745.1901,745.1902,745.7429,return,0.1254,,46.35416667,,,,,,FBP-PT-71.png,0.35,1.2,46,0.5,,,,,,,,,,,,,,,,,,0,55,55,45,1,,,,,,,,,,,,,,,,,,,,,,,
,,,,,SPR24_085,21,male,2024-04-24_11h36.08.507,jersey_experiment_5_v0,2023.2.2,Win32,85.47008547,,,,,,,,,,,,,,,,745.7432,747.037,747.037,747.5901,return,0.1888,,46.35416667,,,,,,FBP-YG-81.png,0.37,1.2,22,0.5,,,,,,,,,,,,,,,,,,0,56,56,21,1,,,,,,,,,,,,,,,,,,,,,,,
,,,,,SPR24_085,21,male,2024-04-24_11h36.08.507,jersey_experiment_5_v0,2023.2.2,Win32,85.47008547,,,,,,,,,,,,,,,,747.5904,748.6371,748.6371,749.6138,return,0.186,,46.35416667,,,,,,FBP-RB-71.png,0.4,1.2,33,0.25,,,,,,,,,,,,,,,,,,0,57,57,32,1,,,,,,,,,,,,,,,,,,,,,,,
,,,,,SPR24_085,21,male,2024-04-24_11h36.08.507,jersey_experiment_5_v0,2023.2.2,Win32,85.47008547,,,,,,,,,,,,,,,,749.614,750.6606,750.6607,751.5549,return,0.0604,,94.53125,,,,,,FBP-RB-71.png,0.45,1.2,35,0.25,,,,,,,,,,,,,,,,,,0,58,58,34,1,,,,,,,,,,,,,,,,,,,,,,,
,,,,,SPR24_085,21,male,2024-04-24_11h36.08.507,jersey_experiment_5_v0,2023.2.2,Win32,85.47008547,,,,,,,,,,,,,,,,751.5551,752.8491,752.8491,753.5078,return,0.0738,,90.36458333,,,,,,FBP-PT-71.png,0.43,1.2,49,0.5,,,,,,,,,,,,,,,,,,0,59,59,48,1,,,,,,,,,,,,,,,,,,,,,,,
,,,,,SPR24_085,21,male,2024-04-24_11h36.08.507,jersey_experiment_5_v0,2023.2.2,Win32,85.47008547,,,,,,,,,,,,,,,,,,,,,,,,,,,,,,,,,,,,,,,,,,,,,,,,,,,,,,,,753.5083,760.038,return,6.5169,,,,,,,,,,,,,,,,,,,
,,,,,SPR24_085,21,male,2024-04-24_11h36.08.507,jersey_experiment_5_v0,2023.2.2,Win32,85.47008547,,,,,,,,,,,,,,,,,,,,,,,,,,,,,,,,,,,,,,,,,,,,,,,,,,,,,,,,,,,,,760.038,765.4615,1,4.1232,return,1.2808,,,,,,,,,,,,
,,,,,SPR24_085,21,male,2024-04-24_11h36.08.507,jersey_experiment_5_v0,2023.2.2,Win32,85.47008547,,,,,,,,,,,,,,,,,,,,,,,,,,,,,,,,,,,,,,,,,,,,,,,,,,,,,,,,,,,,,,,,,,,,765.4617,915.1657,"I was suspecting that the study may be about different colors on certain skin tones that may make one appear slimmer or heavier. I was also suspecting that perhaps it could be about being led to believe one is slimmer or heavier after immediately being presented after a variety of opposite stimuli (e.g., one could look slimmer if presented after a whole onslaught of heavier people). I believe too that darker skinned players were in red uniforms while lighter skinned players were in green and yellow uniforms.",right,139.6514,,,,,,
,,,,,SPR24_085,21,male,2024-04-24_11h36.08.507,jersey_experiment_5_v0,2023.2.2,Win32,85.47008547,,,,,,,,,,,,,,,,,,,,,,,,,,,,,,,,,,,,,,,,,,,,,,,,,,,,,,,,,,,,,,,,,,,,,,,,,,915.1658,918.7256,return,3.5487,