requirements.started,requirements.stopped,key_resp_3.keys,key_resp_3.rt,key_resp_3.duration,Subject ID,Age,Gender,date,expName,psychopyVersion,OS,frameRate,instructions1.started,instructions1.stopped,key_resp.keys,key_resp.rt,key_resp.duration,example.started,example.stopped,enter_2.keys,enter_2.rt,enter_2.duration,instructions2.started,instructions2.stopped,enter_3.keys,enter_3.rt,enter_3.duration,image.started,image.stopped,slider_2.started,slider_2.stopped,next.keys,next.rt,next.duration,slider.response,trial_block_1.thisRepN,trial_block_1.thisTrialN,trial_block_1.thisN,trial_block_1.thisIndex,trial_block_1.ran,Path,Width,Height,Index,Duration,trial_block_2.thisRepN,trial_block_2.thisTrialN,trial_block_2.thisN,trial_block_2.thisIndex,trial_block_2.ran,rest_break.started,rest_break.stopped,end_break.started,end_break.stopped,key_resp_5.keys,key_resp_5.rt,key_resp_5.duration,trial_block_3.thisRepN,trial_block_3.thisTrialN,trial_block_3.thisN,trial_block_3.thisIndex,trial_block_3.ran,trial_block_4.thisRepN,trial_block_4.thisTrialN,trial_block_4.thisN,trial_block_4.thisIndex,trial_block_4.ran,questions_intro.started,questions_intro.stopped,enter_12.keys,enter_12.rt,enter_12.duration,question2.started,question2.stopped,question_doingbest.response,question_doingbest.rt,enter_15.keys,enter_15.rt,enter_15.duration,pattern.started,pattern.stopped,pattern_2.text,enter_17.keys,enter_17.rt,enter_17.duration,thankyou.started,thankyou.stopped,enter_14.keys,enter_14.rt,enter_14.duration
9.99999E-05,8.8563,return,8.8519,,SPR24_017,19,Female,2024-04-08_16h33.02.775,jersey_experiment_5_v0,2023.2.2,Win32,84.74576271,,,,,,,,,,,,,,,,,,,,,,,,,,,,,,,,,,,,,,,,,,,,,,,,,,,,,,,,,,,,,,,,,,,,,,,,,,,,,,
,,,,,SPR24_017,19,Female,2024-04-08_16h33.02.775,jersey_experiment_5_v0,2023.2.2,Win32,84.74576271,8.8564,15.1533,return,6.2821,,,,,,,,,,,,,,,,,,,,,,,,,,,,,,,,,,,,,,,,,,,,,,,,,,,,,,,,,,,,,,,,,,,,,,,,,,
,,,,,SPR24_017,19,Female,2024-04-08_16h33.02.775,jersey_experiment_5_v0,2023.2.2,Win32,84.74576271,,,,,,15.1535,18.3298,return,3.1423,,,,,,,,,,,,,,,,,,,,,,,,,,,,,,,,,,,,,,,,,,,,,,,,,,,,,,,,,,,,,,,,,,,,,
,,,,,SPR24_017,19,Female,2024-04-08_16h33.02.775,jersey_experiment_5_v0,2023.2.2,Win32,84.74576271,,,,,,,,,,,18.3298,29.4008,return,11.0654,,,,,,,,,,,,,,,,,,,,,,,,,,,,,,,,,,,,,,,,,,,,,,,,,,,,,,,,,,,,,,,,
,,,,,SPR24_017,19,Female,2024-04-08_16h33.02.775,jersey_experiment_5_v0,2023.2.2,Win32,84.74576271,,,,,,,,,,,,,,,,29.4076,30.4597,30.4599,37.9069,return,2.0942,,66.27604167,0,0,0,45,1,FBP-PT-17.png,0.35,1.2,46,0.25,,,,,,,,,,,,,,,,,,,,,,,,,,,,,,,,,,,,,,,,,,,,,
,,,,,SPR24_017,19,Female,2024-04-08_16h33.02.775,jersey_experiment_5_v0,2023.2.2,Win32,84.74576271,,,,,,,,,,,,,,,,37.9072,38.9542,38.9542,41.0247,return,0.2357,,79.6875,0,1,1,49,1,FBP-PT-17.png,0.45,1.2,50,0.25,,,,,,,,,,,,,,,,,,,,,,,,,,,,,,,,,,,,,,,,,,,,,
,,,,,SPR24_017,19,Female,2024-04-08_16h33.02.775,jersey_experiment_5_v0,2023.2.2,Win32,84.74576271,,,,,,,,,,,,,,,,41.025,42.072,42.0721,43.4012,return,0.2175,,34.50520833,0,2,2,57,1,FBP-PT-19.png,0.4,1.2,58,0.25,,,,,,,,,,,,,,,,,,,,,,,,,,,,,,,,,,,,,,,,,,,,,
,,,,,SPR24_017,19,Female,2024-04-08_16h33.02.775,jersey_experiment_5_v0,2023.2.2,Win32,84.74576271,,,,,,,,,,,,,,,,43.4014,44.4481,44.4481,46.5072,return,0.5696,,79.16666667,0,3,3,19,1,FBP-YG-17.png,0.45,1.2,20,0.25,,,,,,,,,,,,,,,,,,,,,,,,,,,,,,,,,,,,,,,,,,,,,
,,,,,SPR24_017,19,Female,2024-04-08_16h33.02.775,jersey_experiment_5_v0,2023.2.2,Win32,84.74576271,,,,,,,,,,,,,,,,46.5074,47.5542,47.5542,49.3895,return,0.178,,27.34375,0,4,4,21,1,FBP-YG-18.png,0.37,1.2,22,0.25,,,,,,,,,,,,,,,,,,,,,,,,,,,,,,,,,,,,,,,,,,,,,
,,,,,SPR24_017,19,Female,2024-04-08_16h33.02.775,jersey_experiment_5_v0,2023.2.2,Win32,84.74576271,,,,,,,,,,,,,,,,49.3898,50.6837,50.6838,52.4721,return,0.1596,,46.22395833,0,5,5,37,1,FBP-RB-18.png,0.4,1.2,38,0.5,,,,,,,,,,,,,,,,,,,,,,,,,,,,,,,,,,,,,,,,,,,,,
,,,,,SPR24_017,19,Female,2024-04-08_16h33.02.775,jersey_experiment_5_v0,2023.2.2,Win32,84.74576271,,,,,,,,,,,,,,,,52.4723,53.7662,53.7662,55.5075,return,0.2589,,82.29166667,0,6,6,44,1,FBP-RB-19.png,0.45,1.2,45,0.5,,,,,,,,,,,,,,,,,,,,,,,,,,,,,,,,,,,,,,,,,,,,,
,,,,,SPR24_017,19,Female,2024-04-08_16h33.02.775,jersey_experiment_5_v0,2023.2.2,Win32,84.74576271,,,,,,,,,,,,,,,,55.5077,56.5547,56.5548,58.0136,return,0.3552,,81.38020833,0,7,7,54,1,FBP-PT-18.png,0.45,1.2,55,0.25,,,,,,,,,,,,,,,,,,,,,,,,,,,,,,,,,,,,,,,,,,,,,
,,,,,SPR24_017,19,Female,2024-04-08_16h33.02.775,jersey_experiment_5_v0,2023.2.2,Win32,84.74576271,,,,,,,,,,,,,,,,58.0138,59.3076,59.3076,61.0841,return,0.1564,,37.23958333,0,8,8,11,1,FBP-OG-91.png,0.37,1.2,12,0.5,,,,,,,,,,,,,,,,,,,,,,,,,,,,,,,,,,,,,,,,,,,,,
,,,,,SPR24_017,19,Female,2024-04-08_16h33.02.775,jersey_experiment_5_v0,2023.2.2,Win32,84.74576271,,,,,,,,,,,,,,,,61.0843,62.3783,62.3784,64.0724,return,0.3149,,32.94270833,0,9,9,30,1,FBP-RB-17.png,0.35,1.2,31,0.5,,,,,,,,,,,,,,,,,,,,,,,,,,,,,,,,,,,,,,,,,,,,,
,,,,,SPR24_017,19,Female,2024-04-08_16h33.02.775,jersey_experiment_5_v0,2023.2.2,Win32,84.74576271,,,,,,,,,,,,,,,,64.0726,65.1197,65.1197,66.3314,return,0.1802,,27.734375,0,10,10,55,1,FBP-PT-19.png,0.35,1.2,56,0.25,,,,,,,,,,,,,,,,,,,,,,,,,,,,,,,,,,,,,,,,,,,,,
,,,,,SPR24_017,19,Female,2024-04-08_16h33.02.775,jersey_experiment_5_v0,2023.2.2,Win32,84.74576271,,,,,,,,,,,,,,,,66.3316,67.3785,67.3785,68.2494,return,0.194,,27.734375,0,11,11,15,1,FBP-YG-17.png,0.35,1.2,16,0.25,,,,,,,,,,,,,,,,,,,,,,,,,,,,,,,,,,,,,,,,,,,,,
,,,,,SPR24_017,19,Female,2024-04-08_16h33.02.775,jersey_experiment_5_v0,2023.2.2,Win32,84.74576271,,,,,,,,,,,,,,,,68.2496,69.5433,69.5433,70.1903,return,0.1534,,27.734375,0,12,12,35,1,FBP-RB-18.png,0.35,1.2,36,0.5,,,,,,,,,,,,,,,,,,,,,,,,,,,,,,,,,,,,,,,,,,,,,
,,,,,SPR24_017,19,Female,2024-04-08_16h33.02.775,jersey_experiment_5_v0,2023.2.2,Win32,84.74576271,,,,,,,,,,,,,,,,70.1906,71.4845,71.4845,73.4846,return,0.1558,,63.28125,0,13,13,12,1,FBP-OG-91.png,0.4,1.2,13,0.5,,,,,,,,,,,,,,,,,,,,,,,,,,,,,,,,,,,,,,,,,,,,,
,,,,,SPR24_017,19,Female,2024-04-08_16h33.02.775,jersey_experiment_5_v0,2023.2.2,Win32,84.74576271,,,,,,,,,,,,,,,,73.4848,74.7787,74.7788,76.0728,return,0.1357,,27.86458333,0,14,14,36,1,FBP-RB-18.png,0.37,1.2,37,0.5,,,,,,,,,,,,,,,,,,,,,,,,,,,,,,,,,,,,,,,,,,,,,
,,,,,SPR24_017,19,Female,2024-04-08_16h33.02.775,jersey_experiment_5_v0,2023.2.2,Win32,84.74576271,,,,,,,,,,,,,,,,76.0731,77.367,77.367,78.3202,return,0.1642,,30.98958333,0,15,15,10,1,FBP-OG-91.png,0.35,1.2,11,0.5,,,,,,,,,,,,,,,,,,,,,,,,,,,,,,,,,,,,,,,,,,,,,
,,,,,SPR24_017,19,Female,2024-04-08_16h33.02.775,jersey_experiment_5_v0,2023.2.2,Win32,84.74576271,,,,,,,,,,,,,,,,78.3204,79.3672,79.3672,81.0967,return,0.138,,87.890625,0,16,16,23,1,FBP-YG-18.png,0.43,1.2,24,0.25,,,,,,,,,,,,,,,,,,,,,,,,,,,,,,,,,,,,,,,,,,,,,
,,,,,SPR24_017,19,Female,2024-04-08_16h33.02.775,jersey_experiment_5_v0,2023.2.2,Win32,84.74576271,,,,,,,,,,,,,,,,81.097,82.3911,82.3911,83.2615,return,0.0959,,80.72916667,0,17,17,41,1,FBP-RB-19.png,0.37,1.2,42,0.5,,,,,,,,,,,,,,,,,,,,,,,,,,,,,,,,,,,,,,,,,,,,,
,,,,,SPR24_017,19,Female,2024-04-08_16h33.02.775,jersey_experiment_5_v0,2023.2.2,Win32,84.74576271,,,,,,,,,,,,,,,,83.2617,84.5557,84.5557,86.297,return,0.0908,,32.421875,0,18,18,2,1,FBP-OG-71.png,0.4,1.2,3,0.5,,,,,,,,,,,,,,,,,,,,,,,,,,,,,,,,,,,,,,,,,,,,,
,,,,,SPR24_017,19,Female,2024-04-08_16h33.02.775,jersey_experiment_5_v0,2023.2.2,Win32,84.74576271,,,,,,,,,,,,,,,,86.2972,87.5911,87.5911,88.3205,return,0.1559,,32.55208333,0,19,19,32,1,FBP-RB-17.png,0.4,1.2,33,0.5,,,,,,,,,,,,,,,,,,,,,,,,,,,,,,,,,,,,,,,,,,,,,
,,,,,SPR24_017,19,Female,2024-04-08_16h33.02.775,jersey_experiment_5_v0,2023.2.2,Win32,84.74576271,,,,,,,,,,,,,,,,88.3207,89.3675,89.3675,91.2264,return,0.1247,,74.08854167,0,20,20,27,1,FBP-YG-19.png,0.4,1.2,28,0.25,,,,,,,,,,,,,,,,,,,,,,,,,,,,,,,,,,,,,,,,,,,,,
,,,,,SPR24_017,19,Female,2024-04-08_16h33.02.775,jersey_experiment_5_v0,2023.2.2,Win32,84.74576271,,,,,,,,,,,,,,,,91.2266,92.5206,92.5206,94.1206,return,0.1604,,80.72916667,0,21,21,8,1,FBP-OG-81.png,0.43,1.2,9,0.5,,,,,,,,,,,,,,,,,,,,,,,,,,,,,,,,,,,,,,,,,,,,,
,,,,,SPR24_017,19,Female,2024-04-08_16h33.02.775,jersey_experiment_5_v0,2023.2.2,Win32,84.74576271,,,,,,,,,,,,,,,,94.1208,95.4149,95.4149,96.5209,return,0.1261,,32.29166667,0,22,22,6,1,FBP-OG-81.png,0.37,1.2,7,0.5,,,,,,,,,,,,,,,,,,,,,,,,,,,,,,,,,,,,,,,,,,,,,
,,,,,SPR24_017,19,Female,2024-04-08_16h33.02.775,jersey_experiment_5_v0,2023.2.2,Win32,84.74576271,,,,,,,,,,,,,,,,96.521,97.5679,97.5679,98.7797,return,0.1467,,73.046875,0,23,23,28,1,FBP-YG-19.png,0.43,1.2,29,0.25,,,,,,,,,,,,,,,,,,,,,,,,,,,,,,,,,,,,,,,,,,,,,
,,,,,SPR24_017,19,Female,2024-04-08_16h33.02.775,jersey_experiment_5_v0,2023.2.2,Win32,84.74576271,,,,,,,,,,,,,,,,98.7798,100.0738,100.0739,101.1798,return,0.1327,,31.11979167,0,24,24,31,1,FBP-RB-17.png,0.37,1.2,32,0.5,,,,,,,,,,,,,,,,,,,,,,,,,,,,,,,,,,,,,,,,,,,,,
,,,,,SPR24_017,19,Female,2024-04-08_16h33.02.775,jersey_experiment_5_v0,2023.2.2,Win32,84.74576271,,,,,,,,,,,,,,,,101.1799,102.2269,102.2269,103.0857,return,0.1543,,31.11979167,0,25,25,20,1,FBP-YG-18.png,0.35,1.2,21,0.25,,,,,,,,,,,,,,,,,,,,,,,,,,,,,,,,,,,,,,,,,,,,,
,,,,,SPR24_017,19,Female,2024-04-08_16h33.02.775,jersey_experiment_5_v0,2023.2.2,Win32,84.74576271,,,,,,,,,,,,,,,,103.0859,104.3799,104.3799,105.8388,return,0.1308,,84.50520833,0,26,26,13,1,FBP-OG-91.png,0.43,1.2,14,0.5,,,,,,,,,,,,,,,,,,,,,,,,,,,,,,,,,,,,,,,,,,,,,
,,,,,SPR24_017,19,Female,2024-04-08_16h33.02.775,jersey_experiment_5_v0,2023.2.2,Win32,84.74576271,,,,,,,,,,,,,,,,105.839,106.8859,106.8859,108.2389,return,0.1769,,81.38020833,0,27,27,52,1,FBP-PT-18.png,0.4,1.2,53,0.25,,,,,,,,,,,,,,,,,,,,,,,,,,,,,,,,,,,,,,,,,,,,,
,,,,,SPR24_017,19,Female,2024-04-08_16h33.02.775,jersey_experiment_5_v0,2023.2.2,Win32,84.74576271,,,,,,,,,,,,,,,,108.239,109.533,109.533,110.6743,return,0.1179,,85.28645833,0,28,28,4,1,FBP-OG-71.png,0.45,1.2,5,0.5,,,,,,,,,,,,,,,,,,,,,,,,,,,,,,,,,,,,,,,,,,,,,
,,,,,SPR24_017,19,Female,2024-04-08_16h33.02.775,jersey_experiment_5_v0,2023.2.2,Win32,84.74576271,,,,,,,,,,,,,,,,110.6745,111.7213,111.7213,112.4626,return,0.1793,,85.15625,0,29,29,58,1,FBP-PT-19.png,0.43,1.2,59,0.25,,,,,,,,,,,,,,,,,,,,,,,,,,,,,,,,,,,,,,,,,,,,,
,,,,,SPR24_017,19,Female,2024-04-08_16h33.02.775,jersey_experiment_5_v0,2023.2.2,Win32,84.74576271,,,,,,,,,,,,,,,,112.4628,113.7568,113.7568,114.9568,return,0.167,,96.22395833,0,30,30,39,1,FBP-RB-18.png,0.45,1.2,40,0.5,,,,,,,,,,,,,,,,,,,,,,,,,,,,,,,,,,,,,,,,,,,,,
,,,,,SPR24_017,19,Female,2024-04-08_16h33.02.775,jersey_experiment_5_v0,2023.2.2,Win32,84.74576271,,,,,,,,,,,,,,,,114.957,116.0038,116.0039,117.604,return,0.0473,,55.859375,0,31,31,56,1,FBP-PT-19.png,0.37,1.2,57,0.25,,,,,,,,,,,,,,,,,,,,,,,,,,,,,,,,,,,,,,,,,,,,,
,,,,,SPR24_017,19,Female,2024-04-08_16h33.02.775,jersey_experiment_5_v0,2023.2.2,Win32,84.74576271,,,,,,,,,,,,,,,,117.6041,118.651,118.651,119.8277,return,0.0484,,37.5,0,32,32,46,1,FBP-PT-17.png,0.37,1.2,47,0.25,,,,,,,,,,,,,,,,,,,,,,,,,,,,,,,,,,,,,,,,,,,,,
,,,,,SPR24_017,19,Female,2024-04-08_16h33.02.775,jersey_experiment_5_v0,2023.2.2,Win32,84.74576271,,,,,,,,,,,,,,,,119.8279,121.1219,121.1219,122.4512,return,0.2353,,90.625,0,33,33,3,1,FBP-OG-71.png,0.43,1.2,4,0.5,,,,,,,,,,,,,,,,,,,,,,,,,,,,,,,,,,,,,,,,,,,,,
,,,,,SPR24_017,19,Female,2024-04-08_16h33.02.775,jersey_experiment_5_v0,2023.2.2,Win32,84.74576271,,,,,,,,,,,,,,,,122.4514,123.4982,123.4983,125.1924,return,0.1386,,34.50520833,0,34,34,16,1,FBP-YG-17.png,0.37,1.2,17,0.25,,,,,,,,,,,,,,,,,,,,,,,,,,,,,,,,,,,,,,,,,,,,,
,,,,,SPR24_017,19,Female,2024-04-08_16h33.02.775,jersey_experiment_5_v0,2023.2.2,Win32,84.74576271,,,,,,,,,,,,,,,,125.1925,126.4866,126.4867,127.4279,return,0.1648,,34.63541667,0,35,35,5,1,FBP-OG-81.png,0.35,1.2,6,0.5,,,,,,,,,,,,,,,,,,,,,,,,,,,,,,,,,,,,,,,,,,,,,
,,,,,SPR24_017,19,Female,2024-04-08_16h33.02.775,jersey_experiment_5_v0,2023.2.2,Win32,84.74576271,,,,,,,,,,,,,,,,127.4282,128.4748,128.4748,129.1691,return,0.1644,,34.63541667,0,36,36,53,1,FBP-PT-18.png,0.43,1.2,54,0.25,,,,,,,,,,,,,,,,,,,,,,,,,,,,,,,,,,,,,,,,,,,,,
,,,,,SPR24_017,19,Female,2024-04-08_16h33.02.775,jersey_experiment_5_v0,2023.2.2,Win32,84.74576271,,,,,,,,,,,,,,,,129.1693,130.4633,130.4633,131.8397,return,0.1429,,87.36979167,0,37,37,9,1,FBP-OG-81.png,0.45,1.2,10,0.5,,,,,,,,,,,,,,,,,,,,,,,,,,,,,,,,,,,,,,,,,,,,,
,,,,,SPR24_017,19,Female,2024-04-08_16h33.02.775,jersey_experiment_5_v0,2023.2.2,Win32,84.74576271,,,,,,,,,,,,,,,,131.8398,133.1339,133.1339,134.2869,return,0.1063,,28.25520833,0,38,38,1,1,FBP-OG-71.png,0.37,1.2,2,0.5,,,,,,,,,,,,,,,,,,,,,,,,,,,,,,,,,,,,,,,,,,,,,
,,,,,SPR24_017,19,Female,2024-04-08_16h33.02.775,jersey_experiment_5_v0,2023.2.2,Win32,84.74576271,,,,,,,,,,,,,,,,134.2871,135.5812,135.5813,136.64,return,0.1288,,91.66666667,0,39,39,33,1,FBP-RB-17.png,0.43,1.2,34,0.5,,,,,,,,,,,,,,,,,,,,,,,,,,,,,,,,,,,,,,,,,,,,,
,,,,,SPR24_017,19,Female,2024-04-08_16h33.02.775,jersey_experiment_5_v0,2023.2.2,Win32,84.74576271,,,,,,,,,,,,,,,,136.6401,137.687,137.6871,138.8753,return,0.0766,,74.21875,0,40,40,47,1,FBP-PT-17.png,0.4,1.2,48,0.25,,,,,,,,,,,,,,,,,,,,,,,,,,,,,,,,,,,,,,,,,,,,,
,,,,,SPR24_017,19,Female,2024-04-08_16h33.02.775,jersey_experiment_5_v0,2023.2.2,Win32,84.74576271,,,,,,,,,,,,,,,,138.8755,139.9225,139.9225,140.6991,return,0.1458,,74.21875,0,41,41,48,1,FBP-PT-17.png,0.43,1.2,49,0.25,,,,,,,,,,,,,,,,,,,,,,,,,,,,,,,,,,,,,,,,,,,,,
,,,,,SPR24_017,19,Female,2024-04-08_16h33.02.775,jersey_experiment_5_v0,2023.2.2,Win32,84.74576271,,,,,,,,,,,,,,,,140.6994,141.7459,141.746,142.346,return,0.1371,,74.21875,0,42,42,22,1,FBP-YG-18.png,0.4,1.2,23,0.25,,,,,,,,,,,,,,,,,,,,,,,,,,,,,,,,,,,,,,,,,,,,,
,,,,,SPR24_017,19,Female,2024-04-08_16h33.02.775,jersey_experiment_5_v0,2023.2.2,Win32,84.74576271,,,,,,,,,,,,,,,,142.3462,143.6401,143.6402,144.558,return,0.1193,,79.81770833,0,43,43,38,1,FBP-RB-18.png,0.43,1.2,39,0.5,,,,,,,,,,,,,,,,,,,,,,,,,,,,,,,,,,,,,,,,,,,,,
,,,,,SPR24_017,19,Female,2024-04-08_16h33.02.775,jersey_experiment_5_v0,2023.2.2,Win32,84.74576271,,,,,,,,,,,,,,,,144.5582,145.6049,145.6049,147.1697,return,0.1555,,88.41145833,0,44,44,29,1,FBP-YG-19.png,0.45,1.2,30,0.25,,,,,,,,,,,,,,,,,,,,,,,,,,,,,,,,,,,,,,,,,,,,,
,,,,,SPR24_017,19,Female,2024-04-08_16h33.02.775,jersey_experiment_5_v0,2023.2.2,Win32,84.74576271,,,,,,,,,,,,,,,,147.1699,148.464,148.464,149.1345,return,0.2239,,87.76041667,0,45,45,43,1,FBP-RB-19.png,0.43,1.2,44,0.5,,,,,,,,,,,,,,,,,,,,,,,,,,,,,,,,,,,,,,,,,,,,,
,,,,,SPR24_017,19,Female,2024-04-08_16h33.02.775,jersey_experiment_5_v0,2023.2.2,Win32,84.74576271,,,,,,,,,,,,,,,,149.1347,150.4288,150.4288,151.7229,return,0.1713,,66.015625,0,46,46,7,1,FBP-OG-81.png,0.4,1.2,8,0.5,,,,,,,,,,,,,,,,,,,,,,,,,,,,,,,,,,,,,,,,,,,,,
,,,,,SPR24_017,19,Female,2024-04-08_16h33.02.775,jersey_experiment_5_v0,2023.2.2,Win32,84.74576271,,,,,,,,,,,,,,,,151.723,152.7699,152.77,153.9818,return,0.0364,,81.11979167,0,47,47,24,1,FBP-YG-18.png,0.45,1.2,25,0.25,,,,,,,,,,,,,,,,,,,,,,,,,,,,,,,,,,,,,,,,,,,,,
,,,,,SPR24_017,19,Female,2024-04-08_16h33.02.775,jersey_experiment_5_v0,2023.2.2,Win32,84.74576271,,,,,,,,,,,,,,,,153.982,155.2758,155.2758,156.2406,return,0.1514,,85.9375,0,48,48,14,1,FBP-OG-91.png,0.45,1.2,15,0.5,,,,,,,,,,,,,,,,,,,,,,,,,,,,,,,,,,,,,,,,,,,,,
,,,,,SPR24_017,19,Female,2024-04-08_16h33.02.775,jersey_experiment_5_v0,2023.2.2,Win32,84.74576271,,,,,,,,,,,,,,,,156.2408,157.2877,157.2877,158.6642,return,0.1123,,32.94270833,0,49,49,51,1,FBP-PT-18.png,0.37,1.2,52,0.25,,,,,,,,,,,,,,,,,,,,,,,,,,,,,,,,,,,,,,,,,,,,,
,,,,,SPR24_017,19,Female,2024-04-08_16h33.02.775,jersey_experiment_5_v0,2023.2.2,Win32,84.74576271,,,,,,,,,,,,,,,,158.6644,159.9584,159.9584,160.6408,return,0.1182,,31.640625,0,50,50,40,1,FBP-RB-19.png,0.35,1.2,41,0.5,,,,,,,,,,,,,,,,,,,,,,,,,,,,,,,,,,,,,,,,,,,,,
,,,,,SPR24_017,19,Female,2024-04-08_16h33.02.775,jersey_experiment_5_v0,2023.2.2,Win32,84.74576271,,,,,,,,,,,,,,,,160.641,161.6879,161.688,162.4409,return,0.0912,,30.72916667,0,51,51,50,1,FBP-PT-18.png,0.35,1.2,51,0.25,,,,,,,,,,,,,,,,,,,,,,,,,,,,,,,,,,,,,,,,,,,,,
,,,,,SPR24_017,19,Female,2024-04-08_16h33.02.775,jersey_experiment_5_v0,2023.2.2,Win32,84.74576271,,,,,,,,,,,,,,,,162.4412,163.7351,163.7351,165.2998,return,0.0941,,65.625,0,52,52,42,1,FBP-RB-19.png,0.4,1.2,43,0.5,,,,,,,,,,,,,,,,,,,,,,,,,,,,,,,,,,,,,,,,,,,,,
,,,,,SPR24_017,19,Female,2024-04-08_16h33.02.775,jersey_experiment_5_v0,2023.2.2,Win32,84.74576271,,,,,,,,,,,,,,,,165.3001,166.3468,166.3469,167.394,return,0.0797,,36.19791667,0,53,53,25,1,FBP-YG-19.png,0.35,1.2,26,0.25,,,,,,,,,,,,,,,,,,,,,,,,,,,,,,,,,,,,,,,,,,,,,
,,,,,SPR24_017,19,Female,2024-04-08_16h33.02.775,jersey_experiment_5_v0,2023.2.2,Win32,84.74576271,,,,,,,,,,,,,,,,167.3942,168.4411,168.4412,169.0412,return,0.1179,,36.06770833,0,54,54,26,1,FBP-YG-19.png,0.37,1.2,27,0.25,,,,,,,,,,,,,,,,,,,,,,,,,,,,,,,,,,,,,,,,,,,,,
,,,,,SPR24_017,19,Female,2024-04-08_16h33.02.775,jersey_experiment_5_v0,2023.2.2,Win32,84.74576271,,,,,,,,,,,,,,,,169.0414,170.3352,170.3353,171.6765,return,0.1083,,90.88541667,0,55,55,34,1,FBP-RB-17.png,0.45,1.2,35,0.5,,,,,,,,,,,,,,,,,,,,,,,,,,,,,,,,,,,,,,,,,,,,,
,,,,,SPR24_017,19,Female,2024-04-08_16h33.02.775,jersey_experiment_5_v0,2023.2.2,Win32,84.74576271,,,,,,,,,,,,,,,,171.6767,172.9708,172.9709,174.3354,return,0.1427,,15.36458333,0,56,56,0,1,FBP-OG-71.png,0.35,1.2,1,0.5,,,,,,,,,,,,,,,,,,,,,,,,,,,,,,,,,,,,,,,,,,,,,
,,,,,SPR24_017,19,Female,2024-04-08_16h33.02.775,jersey_experiment_5_v0,2023.2.2,Win32,84.74576271,,,,,,,,,,,,,,,,174.3356,175.3825,175.3826,176.7943,return,0.1465,,82.03125,0,57,57,18,1,FBP-YG-17.png,0.43,1.2,19,0.25,,,,,,,,,,,,,,,,,,,,,,,,,,,,,,,,,,,,,,,,,,,,,
,,,,,SPR24_017,19,Female,2024-04-08_16h33.02.775,jersey_experiment_5_v0,2023.2.2,Win32,84.74576271,,,,,,,,,,,,,,,,176.7945,177.8414,177.8415,178.7475,return,0.0264,,78.90625,0,58,58,17,1,FBP-YG-17.png,0.4,1.2,18,0.25,,,,,,,,,,,,,,,,,,,,,,,,,,,,,,,,,,,,,,,,,,,,,
,,,,,SPR24_017,19,Female,2024-04-08_16h33.02.775,jersey_experiment_5_v0,2023.2.2,Win32,84.74576271,,,,,,,,,,,,,,,,178.7478,179.7945,179.7945,181.018,return,0.1251,,91.40625,0,59,59,59,1,FBP-PT-19.png,0.45,1.2,60,0.25,,,,,,,,,,,,,,,,,,,,,,,,,,,,,,,,,,,,,,,,,,,,,
,,,,,SPR24_017,19,Female,2024-04-08_16h33.02.775,jersey_experiment_5_v0,2023.2.2,Win32,84.74576271,,,,,,,,,,,,,,,,181.0196,182.3122,182.3122,182.9476,return,0.1747,,91.27604167,,,,,,FBP-RB-81.png,0.43,1.2,39,0.5,0,0,0,38,1,,,,,,,,,,,,,,,,,,,,,,,,,,,,,,,,,,,,,,,,
,,,,,SPR24_017,19,Female,2024-04-08_16h33.02.775,jersey_experiment_5_v0,2023.2.2,Win32,84.74576271,,,,,,,,,,,,,,,,182.9478,184.2417,184.2417,185.724,return,0.0993,,27.734375,,,,,,FBP-RB-91.png,0.35,1.2,41,0.5,0,1,1,40,1,,,,,,,,,,,,,,,,,,,,,,,,,,,,,,,,,,,,,,,,
,,,,,SPR24_017,19,Female,2024-04-08_16h33.02.775,jersey_experiment_5_v0,2023.2.2,Win32,84.74576271,,,,,,,,,,,,,,,,185.7243,187.0183,187.0184,188.042,return,0.0663,,69.01041667,,,,,,FBP-OG-17.png,0.4,1.2,3,0.5,0,2,2,2,1,,,,,,,,,,,,,,,,,,,,,,,,,,,,,,,,,,,,,,,,
,,,,,SPR24_017,19,Female,2024-04-08_16h33.02.775,jersey_experiment_5_v0,2023.2.2,Win32,84.74576271,,,,,,,,,,,,,,,,188.0423,189.3361,189.3361,190.442,return,0.1461,,82.68229167,,,,,,FBP-RB-81.png,0.4,1.2,38,0.5,0,3,3,37,1,,,,,,,,,,,,,,,,,,,,,,,,,,,,,,,,,,,,,,,,
,,,,,SPR24_017,19,Female,2024-04-08_16h33.02.775,jersey_experiment_5_v0,2023.2.2,Win32,84.74576271,,,,,,,,,,,,,,,,190.4422,191.7361,191.7361,192.5951,return,0.0944,,71.74479167,,,,,,FBP-RB-71.png,0.37,1.2,32,0.5,0,4,4,31,1,,,,,,,,,,,,,,,,,,,,,,,,,,,,,,,,,,,,,,,,
,,,,,SPR24_017,19,Female,2024-04-08_16h33.02.775,jersey_experiment_5_v0,2023.2.2,Win32,84.74576271,,,,,,,,,,,,,,,,192.5952,193.6421,193.6421,194.4304,return,0.1068,,71.74479167,,,,,,FBP-YG-71.png,0.43,1.2,19,0.25,0,5,5,18,1,,,,,,,,,,,,,,,,,,,,,,,,,,,,,,,,,,,,,,,,
,,,,,SPR24_017,19,Female,2024-04-08_16h33.02.775,jersey_experiment_5_v0,2023.2.2,Win32,84.74576271,,,,,,,,,,,,,,,,194.4305,195.4775,195.4775,196.1951,return,0.0803,,71.74479167,,,,,,FBP-YG-91.png,0.37,1.2,27,0.25,0,6,6,26,1,,,,,,,,,,,,,,,,,,,,,,,,,,,,,,,,,,,,,,,,
,,,,,SPR24_017,19,Female,2024-04-08_16h33.02.775,jersey_experiment_5_v0,2023.2.2,Win32,84.74576271,,,,,,,,,,,,,,,,196.1953,197.4892,197.4893,198.4775,return,0.1076,,90.49479167,,,,,,FBP-RB-91.png,0.45,1.2,45,0.5,0,7,7,44,1,,,,,,,,,,,,,,,,,,,,,,,,,,,,,,,,,,,,,,,,
,,,,,SPR24_017,19,Female,2024-04-08_16h33.02.775,jersey_experiment_5_v0,2023.2.2,Win32,84.74576271,,,,,,,,,,,,,,,,198.4777,199.5246,199.5246,200.0895,return,0.0525,,90.36458333,,,,,,FBP-PT-81.png,0.43,1.2,54,0.25,0,8,8,53,1,,,,,,,,,,,,,,,,,,,,,,,,,,,,,,,,,,,,,,,,
,,,,,SPR24_017,19,Female,2024-04-08_16h33.02.775,jersey_experiment_5_v0,2023.2.2,Win32,84.74576271,,,,,,,,,,,,,,,,200.0896,201.3835,201.3836,201.9365,return,0.128,,90.36458333,,,,,,FBP-RB-71.png,0.45,1.2,35,0.5,0,9,9,34,1,,,,,,,,,,,,,,,,,,,,,,,,,,,,,,,,,,,,,,,,
,,,,,SPR24_017,19,Female,2024-04-08_16h33.02.775,jersey_experiment_5_v0,2023.2.2,Win32,84.74576271,,,,,,,,,,,,,,,,201.9367,203.2307,203.2308,204.3133,return,0.1029,,31.51041667,,,,,,FBP-OG-19.png,0.35,1.2,11,0.5,0,10,10,10,1,,,,,,,,,,,,,,,,,,,,,,,,,,,,,,,,,,,,,,,,
,,,,,SPR24_017,19,Female,2024-04-08_16h33.02.775,jersey_experiment_5_v0,2023.2.2,Win32,84.74576271,,,,,,,,,,,,,,,,204.3135,205.6072,205.6072,206.3014,return,0.1807,,31.11979167,,,,,,FBP-RB-81.png,0.37,1.2,37,0.5,0,11,11,36,1,,,,,,,,,,,,,,,,,,,,,,,,,,,,,,,,,,,,,,,,
,,,,,SPR24_017,19,Female,2024-04-08_16h33.02.775,jersey_experiment_5_v0,2023.2.2,Win32,84.74576271,,,,,,,,,,,,,,,,206.3017,207.5956,207.5956,208.9367,return,0.0675,,89.0625,,,,,,FBP-OG-18.png,0.45,1.2,10,0.5,0,12,12,9,1,,,,,,,,,,,,,,,,,,,,,,,,,,,,,,,,,,,,,,,,
,,,,,SPR24_017,19,Female,2024-04-08_16h33.02.775,jersey_experiment_5_v0,2023.2.2,Win32,84.74576271,,,,,,,,,,,,,,,,208.937,209.9839,209.9839,210.7603,return,0.1367,,88.93229167,,,,,,FBP-YG-71.png,0.45,1.2,20,0.25,0,13,13,19,1,,,,,,,,,,,,,,,,,,,,,,,,,,,,,,,,,,,,,,,,
,,,,,SPR24_017,19,Female,2024-04-08_16h33.02.775,jersey_experiment_5_v0,2023.2.2,Win32,84.74576271,,,,,,,,,,,,,,,,210.7604,211.8075,211.8075,212.5134,return,0.1657,,88.93229167,,,,,,FBP-YG-81.png,0.4,1.2,23,0.25,0,14,14,22,1,,,,,,,,,,,,,,,,,,,,,,,,,,,,,,,,,,,,,,,,
,,,,,SPR24_017,19,Female,2024-04-08_16h33.02.775,jersey_experiment_5_v0,2023.2.2,Win32,84.74576271,,,,,,,,,,,,,,,,212.5137,213.5603,213.5604,214.3841,return,0.1426,,88.93229167,,,,,,FBP-PT-71.png,0.37,1.2,47,0.25,0,15,15,46,1,,,,,,,,,,,,,,,,,,,,,,,,,,,,,,,,,,,,,,,,
,,,,,SPR24_017,19,Female,2024-04-08_16h33.02.775,jersey_experiment_5_v0,2023.2.2,Win32,84.74576271,,,,,,,,,,,,,,,,214.3842,215.6781,215.6781,217.0078,return,0.2024,,29.296875,,,,,,FBP-OG-19.png,0.37,1.2,12,0.5,0,16,16,11,1,,,,,,,,,,,,,,,,,,,,,,,,,,,,,,,,,,,,,,,,
,,,,,SPR24_017,19,Female,2024-04-08_16h33.02.775,jersey_experiment_5_v0,2023.2.2,Win32,84.74576271,,,,,,,,,,,,,,,,217.008,218.0548,218.0548,219.49,return,0.1646,,87.63020833,,,,,,FBP-YG-91.png,0.45,1.2,30,0.25,0,17,17,29,1,,,,,,,,,,,,,,,,,,,,,,,,,,,,,,,,,,,,,,,,
,,,,,SPR24_017,19,Female,2024-04-08_16h33.02.775,jersey_experiment_5_v0,2023.2.2,Win32,84.74576271,,,,,,,,,,,,,,,,219.4903,220.7842,220.7842,221.3843,return,0.1005,,87.36979167,,,,,,FBP-OG-19.png,0.43,1.2,14,0.5,0,18,18,13,1,,,,,,,,,,,,,,,,,,,,,,,,,,,,,,,,,,,,,,,,
,,,,,SPR24_017,19,Female,2024-04-08_16h33.02.775,jersey_experiment_5_v0,2023.2.2,Win32,84.74576271,,,,,,,,,,,,,,,,221.3846,222.4314,222.4314,223.0195,return,0.1235,,87.36979167,,,,,,FBP-PT-91.png,0.45,1.2,60,0.25,0,19,19,59,1,,,,,,,,,,,,,,,,,,,,,,,,,,,,,,,,,,,,,,,,
,,,,,SPR24_017,19,Female,2024-04-08_16h33.02.775,jersey_experiment_5_v0,2023.2.2,Win32,84.74576271,,,,,,,,,,,,,,,,223.0197,224.0669,224.0669,224.7491,return,0.1198,,87.36979167,,,,,,FBP-PT-71.png,0.43,1.2,49,0.25,0,20,20,48,1,,,,,,,,,,,,,,,,,,,,,,,,,,,,,,,,,,,,,,,,
,,,,,SPR24_017,19,Female,2024-04-08_16h33.02.775,jersey_experiment_5_v0,2023.2.2,Win32,84.74576271,,,,,,,,,,,,,,,,224.7492,225.7963,225.7963,226.3139,return,0.0549,,87.36979167,,,,,,FBP-YG-71.png,0.37,1.2,17,0.25,0,21,21,16,1,,,,,,,,,,,,,,,,,,,,,,,,,,,,,,,,,,,,,,,,
,,,,,SPR24_017,19,Female,2024-04-08_16h33.02.775,jersey_experiment_5_v0,2023.2.2,Win32,84.74576271,,,,,,,,,,,,,,,,226.3141,227.3612,227.3612,227.9612,return,0.0651,,87.36979167,,,,,,FBP-YG-81.png,0.35,1.2,21,0.25,0,22,22,20,1,,,,,,,,,,,,,,,,,,,,,,,,,,,,,,,,,,,,,,,,
,,,,,SPR24_017,19,Female,2024-04-08_16h33.02.775,jersey_experiment_5_v0,2023.2.2,Win32,84.74576271,,,,,,,,,,,,,,,,227.9613,229.0081,229.0081,229.5963,return,0.097,,87.36979167,,,,,,FBP-PT-81.png,0.37,1.2,52,0.25,0,23,23,51,1,,,,,,,,,,,,,,,,,,,,,,,,,,,,,,,,,,,,,,,,
,,,,,SPR24_017,19,Female,2024-04-08_16h33.02.775,jersey_experiment_5_v0,2023.2.2,Win32,84.74576271,,,,,,,,,,,,,,,,229.5965,230.8906,230.8906,232.173,return,0.0379,,30.859375,,,,,,FBP-RB-71.png,0.35,1.2,31,0.5,0,24,24,30,1,,,,,,,,,,,,,,,,,,,,,,,,,,,,,,,,,,,,,,,,
,,,,,SPR24_017,19,Female,2024-04-08_16h33.02.775,jersey_experiment_5_v0,2023.2.2,Win32,84.74576271,,,,,,,,,,,,,,,,232.1732,233.2201,233.2201,233.7847,return,0.091,,30.859375,,,,,,FBP-PT-91.png,0.35,1.2,56,0.25,0,25,25,55,1,,,,,,,,,,,,,,,,,,,,,,,,,,,,,,,,,,,,,,,,
,,,,,SPR24_017,19,Female,2024-04-08_16h33.02.775,jersey_experiment_5_v0,2023.2.2,Win32,84.74576271,,,,,,,,,,,,,,,,233.7849,234.8319,234.8319,236.5378,return,0.1841,,90.36458333,,,,,,FBP-YG-81.png,0.45,1.2,25,0.25,0,26,26,24,1,,,,,,,,,,,,,,,,,,,,,,,,,,,,,,,,,,,,,,,,
,,,,,SPR24_017,19,Female,2024-04-08_16h33.02.775,jersey_experiment_5_v0,2023.2.2,Win32,84.74576271,,,,,,,,,,,,,,,,236.5381,237.5849,237.5849,238.4439,return,0.0736,,88.02083333,,,,,,FBP-PT-91.png,0.4,1.2,58,0.25,0,27,27,57,1,,,,,,,,,,,,,,,,,,,,,,,,,,,,,,,,,,,,,,,,
,,,,,SPR24_017,19,Female,2024-04-08_16h33.02.775,jersey_experiment_5_v0,2023.2.2,Win32,84.74576271,,,,,,,,,,,,,,,,238.4442,239.7379,239.7379,240.6203,return,0.1327,,90.234375,,,,,,FBP-OG-19.png,0.45,1.2,15,0.5,0,28,28,14,1,,,,,,,,,,,,,,,,,,,,,,,,,,,,,,,,,,,,,,,,
,,,,,SPR24_017,19,Female,2024-04-08_16h33.02.775,jersey_experiment_5_v0,2023.2.2,Win32,84.74576271,,,,,,,,,,,,,,,,240.6205,241.6675,241.6676,242.4674,return,0.18,,90.234375,,,,,,FBP-YG-91.png,0.35,1.2,26,0.25,0,29,29,25,1,,,,,,,,,,,,,,,,,,,,,,,,,,,,,,,,,,,,,,,,
,,,,,SPR24_017,19,Female,2024-04-08_16h33.02.775,jersey_experiment_5_v0,2023.2.2,Win32,84.74576271,,,,,,,,,,,,,,,,242.4677,243.7617,243.7617,244.6322,return,0.1389,,92.96875,,,,,,FBP-RB-71.png,0.43,1.2,34,0.5,0,30,30,33,1,,,,,,,,,,,,,,,,,,,,,,,,,,,,,,,,,,,,,,,,
,,,,,SPR24_017,19,Female,2024-04-08_16h33.02.775,jersey_experiment_5_v0,2023.2.2,Win32,84.74576271,,,,,,,,,,,,,,,,244.6325,245.9264,245.9264,246.6558,return,0.1083,,96.09375,,,,,,FBP-RB-91.png,0.43,1.2,44,0.5,0,31,31,43,1,,,,,,,,,,,,,,,,,,,,,,,,,,,,,,,,,,,,,,,,
,,,,,SPR24_017,19,Female,2024-04-08_16h33.02.775,jersey_experiment_5_v0,2023.2.2,Win32,84.74576271,,,,,,,,,,,,,,,,246.6561,247.7029,247.703,249.1618,return,0.1487,,82.421875,,,,,,FBP-PT-81.png,0.4,1.2,53,0.25,0,32,32,52,1,,,,,,,,,,,,,,,,,,,,,,,,,,,,,,,,,,,,,,,,
,,,,,SPR24_017,19,Female,2024-04-08_16h33.02.775,jersey_experiment_5_v0,2023.2.2,Win32,84.74576271,,,,,,,,,,,,,,,,249.1621,250.4559,250.4559,251.562,return,0.1254,,36.45833333,,,,,,FBP-OG-17.png,0.35,1.2,1,0.5,0,33,33,0,1,,,,,,,,,,,,,,,,,,,,,,,,,,,,,,,,,,,,,,,,
,,,,,SPR24_017,19,Female,2024-04-08_16h33.02.775,jersey_experiment_5_v0,2023.2.2,Win32,84.74576271,,,,,,,,,,,,,,,,251.5622,252.6091,252.6092,253.5856,return,0.047,,83.984375,,,,,,FBP-YG-81.png,0.43,1.2,24,0.25,0,34,34,23,1,,,,,,,,,,,,,,,,,,,,,,,,,,,,,,,,,,,,,,,,
,,,,,SPR24_017,19,Female,2024-04-08_16h33.02.775,jersey_experiment_5_v0,2023.2.2,Win32,84.74576271,,,,,,,,,,,,,,,,253.5858,254.6326,254.6328,256.8563,return,1.5621,,82.29166667,,,,,,FBP-PT-71.png,0.4,1.2,48,0.25,0,35,35,47,1,,,,,,,,,,,,,,,,,,,,,,,,,,,,,,,,,,,,,,,,
,,,,,SPR24_017,19,Female,2024-04-08_16h33.02.775,jersey_experiment_5_v0,2023.2.2,Win32,84.74576271,,,,,,,,,,,,,,,,256.8565,258.1504,258.1505,258.9387,return,0.1597,,80.72916667,,,,,,FBP-RB-91.png,0.4,1.2,43,0.5,0,36,36,42,1,,,,,,,,,,,,,,,,,,,,,,,,,,,,,,,,,,,,,,,,
,,,,,SPR24_017,19,Female,2024-04-08_16h33.02.775,jersey_experiment_5_v0,2023.2.2,Win32,84.74576271,,,,,,,,,,,,,,,,258.9389,260.2328,260.2329,260.7506,return,0.1559,,80.72916667,,,,,,FBP-OG-18.png,0.4,1.2,8,0.5,0,37,37,7,1,,,,,,,,,,,,,,,,,,,,,,,,,,,,,,,,,,,,,,,,
,,,,,SPR24_017,19,Female,2024-04-08_16h33.02.775,jersey_experiment_5_v0,2023.2.2,Win32,84.74576271,,,,,,,,,,,,,,,,260.7508,262.0447,262.0447,263.0212,return,0.0979,,37.109375,,,,,,FBP-OG-18.png,0.37,1.2,7,0.5,0,38,38,6,1,,,,,,,,,,,,,,,,,,,,,,,,,,,,,,,,,,,,,,,,
,,,,,SPR24_017,19,Female,2024-04-08_16h33.02.775,jersey_experiment_5_v0,2023.2.2,Win32,84.74576271,,,,,,,,,,,,,,,,263.0215,264.0683,264.0684,265.3271,return,0.1196,,89.0625,,,,,,FBP-PT-71.png,0.45,1.2,50,0.25,0,39,39,49,1,,,,,,,,,,,,,,,,,,,,,,,,,,,,,,,,,,,,,,,,
,,,,,SPR24_017,19,Female,2024-04-08_16h33.02.775,jersey_experiment_5_v0,2023.2.2,Win32,84.74576271,,,,,,,,,,,,,,,,265.3273,266.3742,266.3743,266.9389,return,0.0655,,88.93229167,,,,,,FBP-YG-71.png,0.4,1.2,18,0.25,0,40,40,17,1,,,,,,,,,,,,,,,,,,,,,,,,,,,,,,,,,,,,,,,,
,,,,,SPR24_017,19,Female,2024-04-08_16h33.02.775,jersey_experiment_5_v0,2023.2.2,Win32,84.74576271,,,,,,,,,,,,,,,,266.9392,267.9861,267.9861,268.5391,return,0.0745,,88.93229167,,,,,,FBP-YG-81.png,0.37,1.2,22,0.25,0,41,41,21,1,,,,,,,,,,,,,,,,,,,,,,,,,,,,,,,,,,,,,,,,
,,,,,SPR24_017,19,Female,2024-04-08_16h33.02.775,jersey_experiment_5_v0,2023.2.2,Win32,84.74576271,,,,,,,,,,,,,,,,268.5394,269.8332,269.8332,270.5392,return,0.0975,,86.97916667,,,,,,FBP-OG-17.png,0.43,1.2,4,0.5,0,42,42,3,1,,,,,,,,,,,,,,,,,,,,,,,,,,,,,,,,,,,,,,,,
,,,,,SPR24_017,19,Female,2024-04-08_16h33.02.775,jersey_experiment_5_v0,2023.2.2,Win32,84.74576271,,,,,,,,,,,,,,,,270.5395,271.5861,271.5861,272.0921,return,0.1116,,86.97916667,,,,,,FBP-YG-91.png,0.4,1.2,28,0.25,0,43,43,27,1,,,,,,,,,,,,,,,,,,,,,,,,,,,,,,,,,,,,,,,,
,,,,,SPR24_017,19,Female,2024-04-08_16h33.02.775,jersey_experiment_5_v0,2023.2.2,Win32,84.74576271,,,,,,,,,,,,,,,,272.0923,273.3863,273.3863,274.3981,return,0.133,,36.45833333,,,,,,FBP-OG-17.png,0.37,1.2,2,0.5,0,44,44,1,1,,,,,,,,,,,,,,,,,,,,,,,,,,,,,,,,,,,,,,,,
,,,,,SPR24_017,19,Female,2024-04-08_16h33.02.775,jersey_experiment_5_v0,2023.2.2,Win32,84.74576271,,,,,,,,,,,,,,,,274.3983,275.445,275.4451,276.5864,return,0.0992,,90.75520833,,,,,,FBP-PT-81.png,0.45,1.2,55,0.25,0,45,45,54,1,,,,,,,,,,,,,,,,,,,,,,,,,,,,,,,,,,,,,,,,
,,,,,SPR24_017,19,Female,2024-04-08_16h33.02.775,jersey_experiment_5_v0,2023.2.2,Win32,84.74576271,,,,,,,,,,,,,,,,276.5867,277.6334,277.6334,279.0571,return,0.1315,,30.20833333,,,,,,FBP-PT-81.png,0.35,1.2,51,0.25,0,46,46,50,1,,,,,,,,,,,,,,,,,,,,,,,,,,,,,,,,,,,,,,,,
,,,,,SPR24_017,19,Female,2024-04-08_16h33.02.775,jersey_experiment_5_v0,2023.2.2,Win32,84.74576271,,,,,,,,,,,,,,,,279.0574,280.1041,280.1041,281.363,return,0.0937,,94.79166667,,,,,,FBP-YG-91.png,0.43,1.2,29,0.25,0,47,47,28,1,,,,,,,,,,,,,,,,,,,,,,,,,,,,,,,,,,,,,,,,
,,,,,SPR24_017,19,Female,2024-04-08_16h33.02.775,jersey_experiment_5_v0,2023.2.2,Win32,84.74576271,,,,,,,,,,,,,,,,281.3633,282.6572,282.6573,283.5514,return,0.2262,,89.0625,,,,,,FBP-OG-18.png,0.43,1.2,9,0.5,0,48,48,8,1,,,,,,,,,,,,,,,,,,,,,,,,,,,,,,,,,,,,,,,,
,,,,,SPR24_017,19,Female,2024-04-08_16h33.02.775,jersey_experiment_5_v0,2023.2.2,Win32,84.74576271,,,,,,,,,,,,,,,,283.5516,284.8456,284.8456,286.175,return,0.0968,,34.765625,,,,,,FBP-RB-91.png,0.37,1.2,42,0.5,0,49,49,41,1,,,,,,,,,,,,,,,,,,,,,,,,,,,,,,,,,,,,,,,,
,,,,,SPR24_017,19,Female,2024-04-08_16h33.02.775,jersey_experiment_5_v0,2023.2.2,Win32,84.74576271,,,,,,,,,,,,,,,,286.1753,287.469,287.4691,288.1279,return,0.2603,,34.50520833,,,,,,FBP-RB-81.png,0.35,1.2,36,0.5,0,50,50,35,1,,,,,,,,,,,,,,,,,,,,,,,,,,,,,,,,,,,,,,,,
,,,,,SPR24_017,19,Female,2024-04-08_16h33.02.775,jersey_experiment_5_v0,2023.2.2,Win32,84.74576271,,,,,,,,,,,,,,,,288.1281,289.1751,289.1752,289.8692,return,0.1551,,34.11458333,,,,,,FBP-PT-71.png,0.35,1.2,46,0.25,0,51,51,45,1,,,,,,,,,,,,,,,,,,,,,,,,,,,,,,,,,,,,,,,,
,,,,,SPR24_017,19,Female,2024-04-08_16h33.02.775,jersey_experiment_5_v0,2023.2.2,Win32,84.74576271,,,,,,,,,,,,,,,,289.8694,290.9164,290.9165,291.481,return,0.1142,,33.984375,,,,,,FBP-YG-71.png,0.35,1.2,16,0.25,0,52,52,15,1,,,,,,,,,,,,,,,,,,,,,,,,,,,,,,,,,,,,,,,,
,,,,,SPR24_017,19,Female,2024-04-08_16h33.02.775,jersey_experiment_5_v0,2023.2.2,Win32,84.74576271,,,,,,,,,,,,,,,,291.4813,292.5281,292.5281,293.1283,return,0.1149,,33.85416667,,,,,,FBP-PT-91.png,0.37,1.2,57,0.25,0,53,53,56,1,,,,,,,,,,,,,,,,,,,,,,,,,,,,,,,,,,,,,,,,
,,,,,SPR24_017,19,Female,2024-04-08_16h33.02.775,jersey_experiment_5_v0,2023.2.2,Win32,84.74576271,,,,,,,,,,,,,,,,293.1285,294.4223,294.4223,295.0106,return,0.1316,,33.85416667,,,,,,FBP-OG-18.png,0.35,1.2,6,0.5,0,54,54,5,1,,,,,,,,,,,,,,,,,,,,,,,,,,,,,,,,,,,,,,,,
,,,,,SPR24_017,19,Female,2024-04-08_16h33.02.775,jersey_experiment_5_v0,2023.2.2,Win32,84.74576271,,,,,,,,,,,,,,,,295.0109,296.305,296.305,297.4342,return,0.1838,,93.09895833,,,,,,FBP-RB-81.png,0.45,1.2,40,0.5,0,55,55,39,1,,,,,,,,,,,,,,,,,,,,,,,,,,,,,,,,,,,,,,,,
,,,,,SPR24_017,19,Female,2024-04-08_16h33.02.775,jersey_experiment_5_v0,2023.2.2,Win32,84.74576271,,,,,,,,,,,,,,,,297.4345,298.7284,298.7285,299.4343,return,0.0895,,93.09895833,,,,,,FBP-OG-19.png,0.4,1.2,13,0.5,0,56,56,12,1,,,,,,,,,,,,,,,,,,,,,,,,,,,,,,,,,,,,,,,,
,,,,,SPR24_017,19,Female,2024-04-08_16h33.02.775,jersey_experiment_5_v0,2023.2.2,Win32,84.74576271,,,,,,,,,,,,,,,,299.4346,300.7285,300.7285,301.9168,return,0.1457,,80.20833333,,,,,,FBP-RB-71.png,0.4,1.2,33,0.5,0,57,57,32,1,,,,,,,,,,,,,,,,,,,,,,,,,,,,,,,,,,,,,,,,
,,,,,SPR24_017,19,Female,2024-04-08_16h33.02.775,jersey_experiment_5_v0,2023.2.2,Win32,84.74576271,,,,,,,,,,,,,,,,301.917,303.2109,303.2109,328.7648,return,0.2033,,81.25,,,,,,FBP-OG-17.png,0.45,1.2,5,0.5,0,58,58,4,1,,,,,,,,,,,,,,,,,,,,,,,,,,,,,,,,,,,,,,,,
,,,,,SPR24_017,19,Female,2024-04-08_16h33.02.775,jersey_experiment_5_v0,2023.2.2,Win32,84.74576271,,,,,,,,,,,,,,,,328.7649,329.8119,329.812,331.0236,return,0.1426,,88.02083333,,,,,,FBP-PT-91.png,0.43,1.2,59,0.25,0,59,59,58,1,,,,,,,,,,,,,,,,,,,,,,,,,,,,,,,,,,,,,,,,
,,,,,SPR24_017,19,Female,2024-04-08_16h33.02.775,jersey_experiment_5_v0,2023.2.2,Win32,84.74576271,,,,,,,,,,,,,,,,,,,,,,,,,,,,,,,,,,,,,,,331.0241,451.0168,,,,,,,,,,,,,,,,,,,,,,,,,,,,,,,,,,,,,,
,,,,,SPR24_017,19,Female,2024-04-08_16h33.02.775,jersey_experiment_5_v0,2023.2.2,Win32,84.74576271,,,,,,,,,,,,,,,,,,,,,,,,,,,,,,,,,,,,,,,,,451.0169,474.8411,return,23.82,,,,,,,,,,,,,,,,,,,,,,,,,,,,,,,,,,
,,,,,SPR24_017,19,Female,2024-04-08_16h33.02.775,jersey_experiment_5_v0,2023.2.2,Win32,84.74576271,,,,,,,,,,,,,,,,474.8474,476.1468,476.147,479.0527,return,1.2856,,33.33333333,,,,,,FBP-PT-18.png,0.35,1.2,51,0.5,,,,,,,,,,,,,0,0,0,50,1,,,,,,,,,,,,,,,,,,,,,,,,,,,,
,,,,,SPR24_017,19,Female,2024-04-08_16h33.02.775,jersey_experiment_5_v0,2023.2.2,Win32,84.74576271,,,,,,,,,,,,,,,,479.0531,480.3469,480.347,481.3,return,0.07,,32.55208333,,,,,,FBP-PT-19.png,0.37,1.2,57,0.5,,,,,,,,,,,,,0,1,1,56,1,,,,,,,,,,,,,,,,,,,,,,,,,,,,
,,,,,SPR24_017,19,Female,2024-04-08_16h33.02.775,jersey_experiment_5_v0,2023.2.2,Win32,84.74576271,,,,,,,,,,,,,,,,481.3002,482.5942,482.5942,483.7001,return,0.0471,,88.93229167,,,,,,FBP-YG-18.png,0.45,1.2,25,0.5,,,,,,,,,,,,,0,2,2,24,1,,,,,,,,,,,,,,,,,,,,,,,,,,,,
,,,,,SPR24_017,19,Female,2024-04-08_16h33.02.775,jersey_experiment_5_v0,2023.2.2,Win32,84.74576271,,,,,,,,,,,,,,,,483.7003,484.747,484.747,486.2531,return,0.0519,,28.25520833,,,,,,FBP-RB-18.png,0.4,1.2,38,0.25,,,,,,,,,,,,,0,3,3,37,1,,,,,,,,,,,,,,,,,,,,,,,,,,,,
,,,,,SPR24_017,19,Female,2024-04-08_16h33.02.775,jersey_experiment_5_v0,2023.2.2,Win32,84.74576271,,,,,,,,,,,,,,,,486.2533,487.3002,487.3003,488.7474,return,0.2746,,86.19791667,,,,,,FBP-RB-19.png,0.43,1.2,44,0.25,,,,,,,,,,,,,0,4,4,43,1,,,,,,,,,,,,,,,,,,,,,,,,,,,,
,,,,,SPR24_017,19,Female,2024-04-08_16h33.02.775,jersey_experiment_5_v0,2023.2.2,Win32,84.74576271,,,,,,,,,,,,,,,,488.7476,490.0413,490.0414,490.865,return,0.1038,,87.76041667,,,,,,FBP-PT-17.png,0.45,1.2,50,0.5,,,,,,,,,,,,,0,5,5,49,1,,,,,,,,,,,,,,,,,,,,,,,,,,,,
,,,,,SPR24_017,19,Female,2024-04-08_16h33.02.775,jersey_experiment_5_v0,2023.2.2,Win32,84.74576271,,,,,,,,,,,,,,,,490.8652,492.159,492.1591,492.924,return,0.0646,,28.515625,,,,,,FBP-YG-18.png,0.37,1.2,22,0.5,,,,,,,,,,,,,0,6,6,21,1,,,,,,,,,,,,,,,,,,,,,,,,,,,,
,,,,,SPR24_017,19,Female,2024-04-08_16h33.02.775,jersey_experiment_5_v0,2023.2.2,Win32,84.74576271,,,,,,,,,,,,,,,,492.9242,493.971,493.971,494.5592,return,0.106,,28.515625,,,,,,FBP-RB-17.png,0.35,1.2,31,0.25,,,,,,,,,,,,,0,7,7,30,1,,,,,,,,,,,,,,,,,,,,,,,,,,,,
,,,,,SPR24_017,19,Female,2024-04-08_16h33.02.775,jersey_experiment_5_v0,2023.2.2,Win32,84.74576271,,,,,,,,,,,,,,,,494.5593,495.8533,495.8533,496.3828,return,0.1091,,28.515625,,,,,,FBP-YG-19.png,0.37,1.2,27,0.5,,,,,,,,,,,,,0,8,8,26,1,,,,,,,,,,,,,,,,,,,,,,,,,,,,
,,,,,SPR24_017,19,Female,2024-04-08_16h33.02.775,jersey_experiment_5_v0,2023.2.2,Win32,84.74576271,,,,,,,,,,,,,,,,496.3831,497.6771,497.6771,498.8301,return,0.1097,,85.67708333,,,,,,FBP-YG-19.png,0.45,1.2,30,0.5,,,,,,,,,,,,,0,9,9,29,1,,,,,,,,,,,,,,,,,,,,,,,,,,,,
,,,,,SPR24_017,19,Female,2024-04-08_16h33.02.775,jersey_experiment_5_v0,2023.2.2,Win32,84.74576271,,,,,,,,,,,,,,,,498.8303,499.8771,499.8772,500.6654,return,0.1141,,88.15104167,,,,,,FBP-OG-71.png,0.45,1.2,5,0.25,,,,,,,,,,,,,0,10,10,4,1,,,,,,,,,,,,,,,,,,,,,,,,,,,,
,,,,,SPR24_017,19,Female,2024-04-08_16h33.02.775,jersey_experiment_5_v0,2023.2.2,Win32,84.74576271,,,,,,,,,,,,,,,,500.6656,501.9595,501.9595,503.1124,return,0.1621,,33.46354167,,,,,,FBP-YG-17.png,0.35,1.2,16,0.5,,,,,,,,,,,,,0,11,11,15,1,,,,,,,,,,,,,,,,,,,,,,,,,,,,
,,,,,SPR24_017,19,Female,2024-04-08_16h33.02.775,jersey_experiment_5_v0,2023.2.2,Win32,84.74576271,,,,,,,,,,,,,,,,503.1126,504.1597,504.1597,505.4421,return,0.1883,,89.97395833,,,,,,FBP-RB-18.png,0.43,1.2,39,0.25,,,,,,,,,,,,,0,12,12,38,1,,,,,,,,,,,,,,,,,,,,,,,,,,,,
,,,,,SPR24_017,19,Female,2024-04-08_16h33.02.775,jersey_experiment_5_v0,2023.2.2,Win32,84.74576271,,,,,,,,,,,,,,,,505.4423,506.4889,506.489,507.2891,return,0.1967,,86.45833333,,,,,,FBP-OG-91.png,0.45,1.2,15,0.25,,,,,,,,,,,,,0,13,13,14,1,,,,,,,,,,,,,,,,,,,,,,,,,,,,
,,,,,SPR24_017,19,Female,2024-04-08_16h33.02.775,jersey_experiment_5_v0,2023.2.2,Win32,84.74576271,,,,,,,,,,,,,,,,507.2893,508.5834,508.5834,509.501,return,0.0989,,30.078125,,,,,,FBP-PT-19.png,0.35,1.2,56,0.5,,,,,,,,,,,,,0,14,14,55,1,,,,,,,,,,,,,,,,,,,,,,,,,,,,
,,,,,SPR24_017,19,Female,2024-04-08_16h33.02.775,jersey_experiment_5_v0,2023.2.2,Win32,84.74576271,,,,,,,,,,,,,,,,509.5011,510.5481,510.5482,511.1482,return,0.1464,,30.078125,,,,,,FBP-OG-71.png,0.37,1.2,2,0.25,,,,,,,,,,,,,0,15,15,1,1,,,,,,,,,,,,,,,,,,,,,,,,,,,,
,,,,,SPR24_017,19,Female,2024-04-08_16h33.02.775,jersey_experiment_5_v0,2023.2.2,Win32,84.74576271,,,,,,,,,,,,,,,,511.1483,512.1952,512.1952,513.4422,return,0.1179,,91.015625,,,,,,FBP-RB-17.png,0.45,1.2,35,0.25,,,,,,,,,,,,,0,16,16,34,1,,,,,,,,,,,,,,,,,,,,,,,,,,,,
,,,,,SPR24_017,19,Female,2024-04-08_16h33.02.775,jersey_experiment_5_v0,2023.2.2,Win32,84.74576271,,,,,,,,,,,,,,,,513.4425,514.4894,514.4894,515.2189,return,0.1179,,91.015625,,,,,,FBP-RB-19.png,0.45,1.2,45,0.25,,,,,,,,,,,,,0,17,17,44,1,,,,,,,,,,,,,,,,,,,,,,,,,,,,
,,,,,SPR24_017,19,Female,2024-04-08_16h33.02.775,jersey_experiment_5_v0,2023.2.2,Win32,84.74576271,,,,,,,,,,,,,,,,515.2191,516.266,516.266,516.7953,return,0.0857,,91.015625,,,,,,FBP-OG-81.png,0.43,1.2,9,0.25,,,,,,,,,,,,,0,18,18,8,1,,,,,,,,,,,,,,,,,,,,,,,,,,,,
,,,,,SPR24_017,19,Female,2024-04-08_16h33.02.775,jersey_experiment_5_v0,2023.2.2,Win32,84.74576271,,,,,,,,,,,,,,,,516.7956,518.0895,518.0895,519.0896,return,0.1322,,30.59895833,,,,,,FBP-YG-19.png,0.35,1.2,26,0.5,,,,,,,,,,,,,0,19,19,25,1,,,,,,,,,,,,,,,,,,,,,,,,,,,,
,,,,,SPR24_017,19,Female,2024-04-08_16h33.02.775,jersey_experiment_5_v0,2023.2.2,Win32,84.74576271,,,,,,,,,,,,,,,,519.0898,520.3841,520.3842,521.572,return,0.1179,,91.27604167,,,,,,FBP-PT-18.png,0.43,1.2,54,0.5,,,,,,,,,,,,,0,20,20,53,1,,,,,,,,,,,,,,,,,,,,,,,,,,,,
,,,,,SPR24_017,19,Female,2024-04-08_16h33.02.775,jersey_experiment_5_v0,2023.2.2,Win32,84.74576271,,,,,,,,,,,,,,,,521.5722,522.8664,522.8665,523.7251,return,0.1669,,30.859375,,,,,,FBP-YG-18.png,0.35,1.2,21,0.5,,,,,,,,,,,,,0,21,21,20,1,,,,,,,,,,,,,,,,,,,,,,,,,,,,
,,,,,SPR24_017,19,Female,2024-04-08_16h33.02.775,jersey_experiment_5_v0,2023.2.2,Win32,84.74576271,,,,,,,,,,,,,,,,523.7252,524.7721,524.7722,525.6428,return,0.1244,,27.86458333,,,,,,FBP-OG-91.png,0.4,1.2,13,0.25,,,,,,,,,,,,,0,22,22,12,1,,,,,,,,,,,,,,,,,,,,,,,,,,,,
,,,,,SPR24_017,19,Female,2024-04-08_16h33.02.775,jersey_experiment_5_v0,2023.2.2,Win32,84.74576271,,,,,,,,,,,,,,,,525.6431,526.9369,526.937,529.3369,return,0.7474,,54.42708333,,,,,,FBP-PT-18.png,0.37,1.2,52,0.5,,,,,,,,,,,,,0,23,23,51,1,,,,,,,,,,,,,,,,,,,,,,,,,,,,
,,,,,SPR24_017,19,Female,2024-04-08_16h33.02.775,jersey_experiment_5_v0,2023.2.2,Win32,84.74576271,,,,,,,,,,,,,,,,529.3372,530.384,530.3841,531.5958,return,0.1799,,75.390625,,,,,,FBP-RB-19.png,0.4,1.2,43,0.25,,,,,,,,,,,,,0,24,24,42,1,,,,,,,,,,,,,,,,,,,,,,,,,,,,
,,,,,SPR24_017,19,Female,2024-04-08_16h33.02.775,jersey_experiment_5_v0,2023.2.2,Win32,84.74576271,,,,,,,,,,,,,,,,531.5961,532.8901,532.8902,534.2667,return,0.1834,,89.97395833,,,,,,FBP-YG-17.png,0.45,1.2,20,0.5,,,,,,,,,,,,,0,25,25,19,1,,,,,,,,,,,,,,,,,,,,,,,,,,,,
,,,,,SPR24_017,19,Female,2024-04-08_16h33.02.775,jersey_experiment_5_v0,2023.2.2,Win32,84.74576271,,,,,,,,,,,,,,,,534.2668,535.3135,535.3136,536.8668,return,0.2118,,78.38541667,,,,,,FBP-OG-81.png,0.4,1.2,8,0.25,,,,,,,,,,,,,0,26,26,7,1,,,,,,,,,,,,,,,,,,,,,,,,,,,,
,,,,,SPR24_017,19,Female,2024-04-08_16h33.02.775,jersey_experiment_5_v0,2023.2.2,Win32,84.74576271,,,,,,,,,,,,,,,,536.867,537.9139,537.914,538.9728,return,0.1579,,25.390625,,,,,,FBP-OG-71.png,0.35,1.2,1,0.25,,,,,,,,,,,,,0,27,27,0,1,,,,,,,,,,,,,,,,,,,,,,,,,,,,
,,,,,SPR24_017,19,Female,2024-04-08_16h33.02.775,jersey_experiment_5_v0,2023.2.2,Win32,84.74576271,,,,,,,,,,,,,,,,538.9729,540.2671,540.2671,541.055,return,0.1998,,60.67708333,,,,,,FBP-PT-19.png,0.4,1.2,58,0.5,,,,,,,,,,,,,0,28,28,57,1,,,,,,,,,,,,,,,,,,,,,,,,,,,,
,,,,,SPR24_017,19,Female,2024-04-08_16h33.02.775,jersey_experiment_5_v0,2023.2.2,Win32,84.74576271,,,,,,,,,,,,,,,,541.0553,542.1023,542.1024,543.6316,return,0.1658,,90.75520833,,,,,,FBP-OG-81.png,0.45,1.2,10,0.25,,,,,,,,,,,,,0,29,29,9,1,,,,,,,,,,,,,,,,,,,,,,,,,,,,
,,,,,SPR24_017,19,Female,2024-04-08_16h33.02.775,jersey_experiment_5_v0,2023.2.2,Win32,84.74576271,,,,,,,,,,,,,,,,543.6319,544.9258,544.9258,545.82,return,0.1916,,90.75520833,,,,,,FBP-PT-17.png,0.43,1.2,49,0.5,,,,,,,,,,,,,0,30,30,48,1,,,,,,,,,,,,,,,,,,,,,,,,,,,,
,,,,,SPR24_017,19,Female,2024-04-08_16h33.02.775,jersey_experiment_5_v0,2023.2.2,Win32,84.74576271,,,,,,,,,,,,,,,,545.8203,547.1143,547.1143,547.7612,return,0.1884,,90.75520833,,,,,,FBP-YG-17.png,0.43,1.2,19,0.5,,,,,,,,,,,,,0,31,31,18,1,,,,,,,,,,,,,,,,,,,,,,,,,,,,
,,,,,SPR24_017,19,Female,2024-04-08_16h33.02.775,jersey_experiment_5_v0,2023.2.2,Win32,84.74576271,,,,,,,,,,,,,,,,547.7614,548.8083,548.8084,550.1732,return,0.1574,,27.21354167,,,,,,FBP-OG-81.png,0.35,1.2,6,0.25,,,,,,,,,,,,,0,32,32,5,1,,,,,,,,,,,,,,,,,,,,,,,,,,,,
,,,,,SPR24_017,19,Female,2024-04-08_16h33.02.775,jersey_experiment_5_v0,2023.2.2,Win32,84.74576271,,,,,,,,,,,,,,,,550.1734,551.2202,551.2202,552.3381,return,0.2262,,30.98958333,,,,,,FBP-RB-17.png,0.37,1.2,32,0.25,,,,,,,,,,,,,0,33,33,31,1,,,,,,,,,,,,,,,,,,,,,,,,,,,,
,,,,,SPR24_017,19,Female,2024-04-08_16h33.02.775,jersey_experiment_5_v0,2023.2.2,Win32,84.74576271,,,,,,,,,,,,,,,,552.3383,553.6323,553.6323,554.6557,return,0.1528,,69.921875,,,,,,FBP-PT-18.png,0.4,1.2,53,0.5,,,,,,,,,,,,,0,34,34,52,1,,,,,,,,,,,,,,,,,,,,,,,,,,,,
,,,,,SPR24_017,19,Female,2024-04-08_16h33.02.775,jersey_experiment_5_v0,2023.2.2,Win32,84.74576271,,,,,,,,,,,,,,,,554.6559,555.9498,555.9498,556.6675,return,0.1357,,80.078125,,,,,,FBP-YG-17.png,0.4,1.2,18,0.5,,,,,,,,,,,,,0,35,35,17,1,,,,,,,,,,,,,,,,,,,,,,,,,,,,
,,,,,SPR24_017,19,Female,2024-04-08_16h33.02.775,jersey_experiment_5_v0,2023.2.2,Win32,84.74576271,,,,,,,,,,,,,,,,556.6678,557.7146,557.7146,558.9617,return,0.1179,,29.55729167,,,,,,FBP-OG-81.png,0.37,1.2,7,0.25,,,,,,,,,,,,,0,36,36,6,1,,,,,,,,,,,,,,,,,,,,,,,,,,,,
,,,,,SPR24_017,19,Female,2024-04-08_16h33.02.775,jersey_experiment_5_v0,2023.2.2,Win32,84.74576271,,,,,,,,,,,,,,,,558.9619,560.2559,560.256,561.2794,return,0.1081,,25,,,,,,FBP-PT-17.png,0.35,1.2,46,0.5,,,,,,,,,,,,,0,37,37,45,1,,,,,,,,,,,,,,,,,,,,,,,,,,,,
,,,,,SPR24_017,19,Female,2024-04-08_16h33.02.775,jersey_experiment_5_v0,2023.2.2,Win32,84.74576271,,,,,,,,,,,,,,,,561.2796,562.5739,562.5739,563.3854,return,0.1588,,90.10416667,,,,,,FBP-PT-19.png,0.45,1.2,60,0.5,,,,,,,,,,,,,0,38,38,59,1,,,,,,,,,,,,,,,,,,,,,,,,,,,,
,,,,,SPR24_017,19,Female,2024-04-08_16h33.02.775,jersey_experiment_5_v0,2023.2.2,Win32,84.74576271,,,,,,,,,,,,,,,,563.3855,564.4326,564.4326,565.0914,return,0.1323,,89.32291667,,,,,,FBP-OG-71.png,0.43,1.2,4,0.25,,,,,,,,,,,,,0,39,39,3,1,,,,,,,,,,,,,,,,,,,,,,,,,,,,
,,,,,SPR24_017,19,Female,2024-04-08_16h33.02.775,jersey_experiment_5_v0,2023.2.2,Win32,84.74576271,,,,,,,,,,,,,,,,565.0916,566.1384,566.1384,567.1032,return,0.0582,,68.88020833,,,,,,FBP-OG-71.png,0.4,1.2,3,0.25,,,,,,,,,,,,,0,40,40,2,1,,,,,,,,,,,,,,,,,,,,,,,,,,,,
,,,,,SPR24_017,19,Female,2024-04-08_16h33.02.775,jersey_experiment_5_v0,2023.2.2,Win32,84.74576271,,,,,,,,,,,,,,,,567.1033,568.3974,568.3974,568.962,return,0.1413,,76.82291667,,,,,,FBP-YG-18.png,0.4,1.2,23,0.5,,,,,,,,,,,,,0,41,41,22,1,,,,,,,,,,,,,,,,,,,,,,,,,,,,
,,,,,SPR24_017,19,Female,2024-04-08_16h33.02.775,jersey_experiment_5_v0,2023.2.2,Win32,84.74576271,,,,,,,,,,,,,,,,568.9621,570.2562,570.2562,571.1858,return,0.259,,95.57291667,,,,,,FBP-PT-18.png,0.45,1.2,55,0.5,,,,,,,,,,,,,0,42,42,54,1,,,,,,,,,,,,,,,,,,,,,,,,,,,,
,,,,,SPR24_017,19,Female,2024-04-08_16h33.02.775,jersey_experiment_5_v0,2023.2.2,Win32,84.74576271,,,,,,,,,,,,,,,,571.1859,572.2327,572.2328,573.3269,return,0.2029,,82.68229167,,,,,,FBP-RB-17.png,0.4,1.2,33,0.25,,,,,,,,,,,,,0,43,43,32,1,,,,,,,,,,,,,,,,,,,,,,,,,,,,
,,,,,SPR24_017,19,Female,2024-04-08_16h33.02.775,jersey_experiment_5_v0,2023.2.2,Win32,84.74576271,,,,,,,,,,,,,,,,573.3271,574.6211,574.6212,575.3623,return,0.212,,88.41145833,,,,,,FBP-YG-19.png,0.43,1.2,29,0.5,,,,,,,,,,,,,0,44,44,28,1,,,,,,,,,,,,,,,,,,,,,,,,,,,,
,,,,,SPR24_017,19,Female,2024-04-08_16h33.02.775,jersey_experiment_5_v0,2023.2.2,Win32,84.74576271,,,,,,,,,,,,,,,,575.3625,576.4093,576.4094,577.6447,return,0.1461,,45.05208333,,,,,,FBP-OG-91.png,0.37,1.2,12,0.25,,,,,,,,,,,,,0,45,45,11,1,,,,,,,,,,,,,,,,,,,,,,,,,,,,
,,,,,SPR24_017,19,Female,2024-04-08_16h33.02.775,jersey_experiment_5_v0,2023.2.2,Win32,84.74576271,,,,,,,,,,,,,,,,577.6449,578.939,578.939,580.2097,return,0.1503,,39.0625,,,,,,FBP-YG-17.png,0.37,1.2,17,0.5,,,,,,,,,,,,,0,46,46,16,1,,,,,,,,,,,,,,,,,,,,,,,,,,,,
,,,,,SPR24_017,19,Female,2024-04-08_16h33.02.775,jersey_experiment_5_v0,2023.2.2,Win32,84.74576271,,,,,,,,,,,,,,,,580.2099,581.2567,581.2567,581.9509,return,0.1529,,39.453125,,,,,,FBP-RB-18.png,0.35,1.2,36,0.25,,,,,,,,,,,,,0,47,47,35,1,,,,,,,,,,,,,,,,,,,,,,,,,,,,
,,,,,SPR24_017,19,Female,2024-04-08_16h33.02.775,jersey_experiment_5_v0,2023.2.2,Win32,84.74576271,,,,,,,,,,,,,,,,581.951,583.2449,583.245,584.9156,return,0.1412,,65.625,,,,,,FBP-PT-17.png,0.4,1.2,48,0.5,,,,,,,,,,,,,0,48,48,47,1,,,,,,,,,,,,,,,,,,,,,,,,,,,,
,,,,,SPR24_017,19,Female,2024-04-08_16h33.02.775,jersey_experiment_5_v0,2023.2.2,Win32,84.74576271,,,,,,,,,,,,,,,,584.9158,586.2097,586.2097,587.1158,return,0.1214,,88.54166667,,,,,,FBP-YG-18.png,0.43,1.2,24,0.5,,,,,,,,,,,,,0,49,49,23,1,,,,,,,,,,,,,,,,,,,,,,,,,,,,
,,,,,SPR24_017,19,Female,2024-04-08_16h33.02.775,jersey_experiment_5_v0,2023.2.2,Win32,84.74576271,,,,,,,,,,,,,,,,587.1159,588.1626,588.1627,589.7863,return,0.1487,,60.02604167,,,,,,FBP-OG-91.png,0.35,1.2,11,0.25,,,,,,,,,,,,,0,50,50,10,1,,,,,,,,,,,,,,,,,,,,,,,,,,,,
,,,,,SPR24_017,19,Female,2024-04-08_16h33.02.775,jersey_experiment_5_v0,2023.2.2,Win32,84.74576271,,,,,,,,,,,,,,,,589.7865,590.8335,590.8335,592.0453,return,0.202,,68.75,,,,,,FBP-OG-91.png,0.43,1.2,14,0.25,,,,,,,,,,,,,0,51,51,13,1,,,,,,,,,,,,,,,,,,,,,,,,,,,,
,,,,,SPR24_017,19,Female,2024-04-08_16h33.02.775,jersey_experiment_5_v0,2023.2.2,Win32,84.74576271,,,,,,,,,,,,,,,,592.0454,593.3394,593.3394,594.2689,return,0.1576,,70.3125,,,,,,FBP-YG-19.png,0.4,1.2,28,0.5,,,,,,,,,,,,,0,52,52,27,1,,,,,,,,,,,,,,,,,,,,,,,,,,,,
,,,,,SPR24_017,19,Female,2024-04-08_16h33.02.775,jersey_experiment_5_v0,2023.2.2,Win32,84.74576271,,,,,,,,,,,,,,,,594.2691,595.5631,595.5631,596.6102,return,0.1413,,60.28645833,,,,,,FBP-PT-17.png,0.37,1.2,47,0.5,,,,,,,,,,,,,0,53,53,46,1,,,,,,,,,,,,,,,,,,,,,,,,,,,,
,,,,,SPR24_017,19,Female,2024-04-08_16h33.02.775,jersey_experiment_5_v0,2023.2.2,Win32,84.74576271,,,,,,,,,,,,,,,,596.6103,597.6571,597.6571,598.2807,return,0.0795,,60.15625,,,,,,FBP-RB-18.png,0.37,1.2,37,0.25,,,,,,,,,,,,,0,54,54,36,1,,,,,,,,,,,,,,,,,,,,,,,,,,,,
,,,,,SPR24_017,19,Female,2024-04-08_16h33.02.775,jersey_experiment_5_v0,2023.2.2,Win32,84.74576271,,,,,,,,,,,,,,,,598.2808,599.575,599.5751,600.222,return,0.119,,71.484375,,,,,,FBP-PT-19.png,0.43,1.2,59,0.5,,,,,,,,,,,,,0,55,55,58,1,,,,,,,,,,,,,,,,,,,,,,,,,,,,
,,,,,SPR24_017,19,Female,2024-04-08_16h33.02.775,jersey_experiment_5_v0,2023.2.2,Win32,84.74576271,,,,,,,,,,,,,,,,600.2222,601.2692,601.2692,601.9399,return,0.0709,,71.484375,,,,,,FBP-RB-19.png,0.35,1.2,41,0.25,,,,,,,,,,,,,0,56,56,40,1,,,,,,,,,,,,,,,,,,,,,,,,,,,,
,,,,,SPR24_017,19,Female,2024-04-08_16h33.02.775,jersey_experiment_5_v0,2023.2.2,Win32,84.74576271,,,,,,,,,,,,,,,,601.9402,602.9868,602.9868,603.9516,return,0.0821,,89.84375,,,,,,FBP-RB-17.png,0.43,1.2,34,0.25,,,,,,,,,,,,,0,57,57,33,1,,,,,,,,,,,,,,,,,,,,,,,,,,,,
,,,,,SPR24_017,19,Female,2024-04-08_16h33.02.775,jersey_experiment_5_v0,2023.2.2,Win32,84.74576271,,,,,,,,,,,,,,,,603.9518,604.9988,604.9988,605.6457,return,0.0744,,89.71354167,,,,,,FBP-RB-19.png,0.37,1.2,42,0.25,,,,,,,,,,,,,0,58,58,41,1,,,,,,,,,,,,,,,,,,,,,,,,,,,,
,,,,,SPR24_017,19,Female,2024-04-08_16h33.02.775,jersey_experiment_5_v0,2023.2.2,Win32,84.74576271,,,,,,,,,,,,,,,,605.6459,606.6928,606.6929,607.6458,return,0.1545,,92.578125,,,,,,FBP-RB-18.png,0.45,1.2,40,0.25,,,,,,,,,,,,,0,59,59,39,1,,,,,,,,,,,,,,,,,,,,,,,,,,,,
,,,,,SPR24_017,19,Female,2024-04-08_16h33.02.775,jersey_experiment_5_v0,2023.2.2,Win32,84.74576271,,,,,,,,,,,,,,,,607.6474,608.9399,608.9399,609.9989,return,0.1295,,36.06770833,,,,,,FBP-PT-71.png,0.35,1.2,46,0.5,,,,,,,,,,,,,,,,,,0,0,0,45,1,,,,,,,,,,,,,,,,,,,,,,,
,,,,,SPR24_017,19,Female,2024-04-08_16h33.02.775,jersey_experiment_5_v0,2023.2.2,Win32,84.74576271,,,,,,,,,,,,,,,,609.9992,611.046,611.0461,611.6343,return,0.0473,,35.9375,,,,,,FBP-RB-91.png,0.35,1.2,41,0.25,,,,,,,,,,,,,,,,,,0,1,1,40,1,,,,,,,,,,,,,,,,,,,,,,,
,,,,,SPR24_017,19,Female,2024-04-08_16h33.02.775,jersey_experiment_5_v0,2023.2.2,Win32,84.74576271,,,,,,,,,,,,,,,,611.6346,612.9285,612.9286,613.905,return,0.1278,,78.25520833,,,,,,FBP-PT-81.png,0.43,1.2,54,0.5,,,,,,,,,,,,,,,,,,0,2,2,53,1,,,,,,,,,,,,,,,,,,,,,,,
,,,,,SPR24_017,19,Female,2024-04-08_16h33.02.775,jersey_experiment_5_v0,2023.2.2,Win32,84.74576271,,,,,,,,,,,,,,,,613.9052,615.1991,615.1991,616.1286,return,0.1315,,89.453125,,,,,,FBP-YG-91.png,0.45,1.2,30,0.5,,,,,,,,,,,,,,,,,,0,3,3,29,1,,,,,,,,,,,,,,,,,,,,,,,
,,,,,SPR24_017,19,Female,2024-04-08_16h33.02.775,jersey_experiment_5_v0,2023.2.2,Win32,84.74576271,,,,,,,,,,,,,,,,616.1289,617.4228,617.4228,617.9991,return,0.1297,,89.453125,,,,,,FBP-PT-81.png,0.45,1.2,55,0.5,,,,,,,,,,,,,,,,,,0,4,4,54,1,,,,,,,,,,,,,,,,,,,,,,,
,,,,,SPR24_017,19,Female,2024-04-08_16h33.02.775,jersey_experiment_5_v0,2023.2.2,Win32,84.74576271,,,,,,,,,,,,,,,,617.9993,619.0463,619.0464,619.5991,return,0.1201,,89.453125,,,,,,FBP-OG-19.png,0.43,1.2,14,0.25,,,,,,,,,,,,,,,,,,0,5,5,13,1,,,,,,,,,,,,,,,,,,,,,,,
,,,,,SPR24_017,19,Female,2024-04-08_16h33.02.775,jersey_experiment_5_v0,2023.2.2,Win32,84.74576271,,,,,,,,,,,,,,,,619.5993,620.8934,620.8934,621.9052,return,0.1981,,89.453125,,,,,,FBP-PT-71.png,0.43,1.2,49,0.5,,,,,,,,,,,,,,,,,,0,6,6,48,1,,,,,,,,,,,,,,,,,,,,,,,
,,,,,SPR24_017,19,Female,2024-04-08_16h33.02.775,jersey_experiment_5_v0,2023.2.2,Win32,84.74576271,,,,,,,,,,,,,,,,621.9054,622.9524,622.9524,624.0935,return,0.0609,,85.15625,,,,,,FBP-OG-18.png,0.35,1.2,6,0.25,,,,,,,,,,,,,,,,,,0,7,7,5,1,,,,,,,,,,,,,,,,,,,,,,,
,,,,,SPR24_017,19,Female,2024-04-08_16h33.02.775,jersey_experiment_5_v0,2023.2.2,Win32,84.74576271,,,,,,,,,,,,,,,,624.0937,625.3877,625.3877,625.9524,return,0.1189,,85.02604167,,,,,,FBP-PT-91.png,0.4,1.2,58,0.5,,,,,,,,,,,,,,,,,,0,8,8,57,1,,,,,,,,,,,,,,,,,,,,,,,
,,,,,SPR24_017,19,Female,2024-04-08_16h33.02.775,jersey_experiment_5_v0,2023.2.2,Win32,84.74576271,,,,,,,,,,,,,,,,625.9526,626.9994,626.9994,627.5994,return,0.1526,,85.02604167,,,,,,FBP-OG-18.png,0.43,1.2,9,0.25,,,,,,,,,,,,,,,,,,0,9,9,8,1,,,,,,,,,,,,,,,,,,,,,,,
,,,,,SPR24_017,19,Female,2024-04-08_16h33.02.775,jersey_experiment_5_v0,2023.2.2,Win32,84.74576271,,,,,,,,,,,,,,,,627.5998,628.6467,628.6467,629.5289,return,0.1592,,90.625,,,,,,FBP-RB-81.png,0.45,1.2,40,0.25,,,,,,,,,,,,,,,,,,0,10,10,39,1,,,,,,,,,,,,,,,,,,,,,,,
,,,,,SPR24_017,19,Female,2024-04-08_16h33.02.775,jersey_experiment_5_v0,2023.2.2,Win32,84.74576271,,,,,,,,,,,,,,,,629.5291,630.5761,630.5761,631.7057,return,0.1233,,73.17708333,,,,,,FBP-OG-18.png,0.37,1.2,7,0.25,,,,,,,,,,,,,,,,,,0,11,11,6,1,,,,,,,,,,,,,,,,,,,,,,,
,,,,,SPR24_017,19,Female,2024-04-08_16h33.02.775,jersey_experiment_5_v0,2023.2.2,Win32,84.74576271,,,,,,,,,,,,,,,,631.7058,632.9997,632.9997,633.6351,return,0.1648,,78.515625,,,,,,FBP-YG-71.png,0.4,1.2,18,0.5,,,,,,,,,,,,,,,,,,0,12,12,17,1,,,,,,,,,,,,,,,,,,,,,,,
,,,,,SPR24_017,19,Female,2024-04-08_16h33.02.775,jersey_experiment_5_v0,2023.2.2,Win32,84.74576271,,,,,,,,,,,,,,,,633.6353,634.6822,634.6822,635.2939,return,0.0978,,78.515625,,,,,,FBP-OG-17.png,0.37,1.2,2,0.25,,,,,,,,,,,,,,,,,,0,13,13,1,1,,,,,,,,,,,,,,,,,,,,,,,
,,,,,SPR24_017,19,Female,2024-04-08_16h33.02.775,jersey_experiment_5_v0,2023.2.2,Win32,84.74576271,,,,,,,,,,,,,,,,635.2941,636.5881,636.5881,637.5763,return,0.0659,,96.74479167,,,,,,FBP-YG-81.png,0.45,1.2,25,0.5,,,,,,,,,,,,,,,,,,0,14,14,24,1,,,,,,,,,,,,,,,,,,,,,,,
,,,,,SPR24_017,19,Female,2024-04-08_16h33.02.775,jersey_experiment_5_v0,2023.2.2,Win32,84.74576271,,,,,,,,,,,,,,,,637.5765,638.8707,638.8708,639.4236,return,0.1093,,83.33333333,,,,,,FBP-PT-91.png,0.35,1.2,56,0.5,,,,,,,,,,,,,,,,,,0,15,15,55,1,,,,,,,,,,,,,,,,,,,,,,,
,,,,,SPR24_017,19,Female,2024-04-08_16h33.02.775,jersey_experiment_5_v0,2023.2.2,Win32,84.74576271,,,,,,,,,,,,,,,,639.4238,640.4706,640.4706,641.9293,return,0.0424,,54.81770833,,,,,,FBP-OG-19.png,0.35,1.2,11,0.25,,,,,,,,,,,,,,,,,,0,16,16,10,1,,,,,,,,,,,,,,,,,,,,,,,
,,,,,SPR24_017,19,Female,2024-04-08_16h33.02.775,jersey_experiment_5_v0,2023.2.2,Win32,84.74576271,,,,,,,,,,,,,,,,641.9295,642.9765,642.9766,643.6589,return,0.1213,,65.88541667,,,,,,FBP-OG-19.png,0.37,1.2,12,0.25,,,,,,,,,,,,,,,,,,0,17,17,11,1,,,,,,,,,,,,,,,,,,,,,,,
,,,,,SPR24_017,19,Female,2024-04-08_16h33.02.775,jersey_experiment_5_v0,2023.2.2,Win32,84.74576271,,,,,,,,,,,,,,,,643.6592,644.9535,644.9535,645.5766,return,0.2068,,71.22395833,,,,,,FBP-YG-91.png,0.35,1.2,26,0.5,,,,,,,,,,,,,,,,,,0,18,18,25,1,,,,,,,,,,,,,,,,,,,,,,,
,,,,,SPR24_017,19,Female,2024-04-08_16h33.02.775,jersey_experiment_5_v0,2023.2.2,Win32,84.74576271,,,,,,,,,,,,,,,,645.5769,646.8708,646.8709,647.9062,return,0.1881,,69.921875,,,,,,FBP-PT-71.png,0.37,1.2,47,0.5,,,,,,,,,,,,,,,,,,0,19,19,46,1,,,,,,,,,,,,,,,,,,,,,,,
,,,,,SPR24_017,19,Female,2024-04-08_16h33.02.775,jersey_experiment_5_v0,2023.2.2,Win32,84.74576271,,,,,,,,,,,,,,,,647.9065,649.2004,649.2004,649.871,return,0.2029,,88.02083333,,,,,,FBP-YG-81.png,0.43,1.2,24,0.5,,,,,,,,,,,,,,,,,,0,20,20,23,1,,,,,,,,,,,,,,,,,,,,,,,
,,,,,SPR24_017,19,Female,2024-04-08_16h33.02.775,jersey_experiment_5_v0,2023.2.2,Win32,84.74576271,,,,,,,,,,,,,,,,649.8712,651.1652,651.1652,652.3299,return,0.1119,,35.80729167,,,,,,FBP-YG-71.png,0.35,1.2,16,0.5,,,,,,,,,,,,,,,,,,0,21,21,15,1,,,,,,,,,,,,,,,,,,,,,,,
,,,,,SPR24_017,19,Female,2024-04-08_16h33.02.775,jersey_experiment_5_v0,2023.2.2,Win32,84.74576271,,,,,,,,,,,,,,,,652.3301,653.624,653.624,654.4828,return,0.0471,,70.83333333,,,,,,FBP-YG-91.png,0.37,1.2,27,0.5,,,,,,,,,,,,,,,,,,0,22,22,26,1,,,,,,,,,,,,,,,,,,,,,,,
,,,,,SPR24_017,19,Female,2024-04-08_16h33.02.775,jersey_experiment_5_v0,2023.2.2,Win32,84.74576271,,,,,,,,,,,,,,,,654.4831,655.5299,655.5299,656.083,return,0.1182,,70.83333333,,,,,,FBP-OG-17.png,0.35,1.2,1,0.25,,,,,,,,,,,,,,,,,,0,23,23,0,1,,,,,,,,,,,,,,,,,,,,,,,
,,,,,SPR24_017,19,Female,2024-04-08_16h33.02.775,jersey_experiment_5_v0,2023.2.2,Win32,84.74576271,,,,,,,,,,,,,,,,656.0831,657.13,657.13,658.2008,return,0.1008,,85.15625,,,,,,FBP-OG-18.png,0.4,1.2,8,0.25,,,,,,,,,,,,,,,,,,0,24,24,7,1,,,,,,,,,,,,,,,,,,,,,,,
,,,,,SPR24_017,19,Female,2024-04-08_16h33.02.775,jersey_experiment_5_v0,2023.2.2,Win32,84.74576271,,,,,,,,,,,,,,,,658.201,659.2477,659.2478,660.2595,return,0.0808,,67.31770833,,,,,,FBP-RB-91.png,0.37,1.2,42,0.25,,,,,,,,,,,,,,,,,,0,25,25,41,1,,,,,,,,,,,,,,,,,,,,,,,
,,,,,SPR24_017,19,Female,2024-04-08_16h33.02.775,jersey_experiment_5_v0,2023.2.2,Win32,84.74576271,,,,,,,,,,,,,,,,660.2597,661.3067,661.3067,662.3302,return,0.0636,,94.140625,,,,,,FBP-OG-18.png,0.45,1.2,10,0.25,,,,,,,,,,,,,,,,,,0,26,26,9,1,,,,,,,,,,,,,,,,,,,,,,,
,,,,,SPR24_017,19,Female,2024-04-08_16h33.02.775,jersey_experiment_5_v0,2023.2.2,Win32,84.74576271,,,,,,,,,,,,,,,,662.3305,663.3774,663.3774,663.9538,return,0.104,,94.01041667,,,,,,FBP-RB-71.png,0.43,1.2,34,0.25,,,,,,,,,,,,,,,,,,0,27,27,33,1,,,,,,,,,,,,,,,,,,,,,,,
,,,,,SPR24_017,19,Female,2024-04-08_16h33.02.775,jersey_experiment_5_v0,2023.2.2,Win32,84.74576271,,,,,,,,,,,,,,,,663.9541,665.2481,665.2482,665.754,return,0.123,,91.796875,,,,,,FBP-PT-91.png,0.45,1.2,60,0.5,,,,,,,,,,,,,,,,,,0,28,28,59,1,,,,,,,,,,,,,,,,,,,,,,,
,,,,,SPR24_017,19,Female,2024-04-08_16h33.02.775,jersey_experiment_5_v0,2023.2.2,Win32,84.74576271,,,,,,,,,,,,,,,,665.7542,666.8009,666.8009,667.2598,return,0.0743,,91.015625,,,,,,FBP-RB-91.png,0.43,1.2,44,0.25,,,,,,,,,,,,,,,,,,0,29,29,43,1,,,,,,,,,,,,,,,,,,,,,,,
,,,,,SPR24_017,19,Female,2024-04-08_16h33.02.775,jersey_experiment_5_v0,2023.2.2,Win32,84.74576271,,,,,,,,,,,,,,,,667.26,668.5541,668.5541,669.0599,return,0.0946,,87.890625,,,,,,FBP-PT-81.png,0.4,1.2,53,0.5,,,,,,,,,,,,,,,,,,0,30,30,52,1,,,,,,,,,,,,,,,,,,,,,,,
,,,,,SPR24_017,19,Female,2024-04-08_16h33.02.775,jersey_experiment_5_v0,2023.2.2,Win32,84.74576271,,,,,,,,,,,,,,,,669.0602,670.3541,670.3541,671.3542,return,0.0664,,90.36458333,,,,,,FBP-PT-71.png,0.45,1.2,50,0.5,,,,,,,,,,,,,,,,,,0,31,31,49,1,,,,,,,,,,,,,,,,,,,,,,,
,,,,,SPR24_017,19,Female,2024-04-08_16h33.02.775,jersey_experiment_5_v0,2023.2.2,Win32,84.74576271,,,,,,,,,,,,,,,,671.3543,672.4011,672.4011,672.9542,return,0.1228,,90.36458333,,,,,,FBP-OG-19.png,0.45,1.2,15,0.25,,,,,,,,,,,,,,,,,,0,32,32,14,1,,,,,,,,,,,,,,,,,,,,,,,
,,,,,SPR24_017,19,Female,2024-04-08_16h33.02.775,jersey_experiment_5_v0,2023.2.2,Win32,84.74576271,,,,,,,,,,,,,,,,672.9543,674.2483,674.2483,674.9782,return,0.166,,89.453125,,,,,,FBP-YG-71.png,0.43,1.2,19,0.5,,,,,,,,,,,,,,,,,,0,33,33,18,1,,,,,,,,,,,,,,,,,,,,,,,
,,,,,SPR24_017,19,Female,2024-04-08_16h33.02.775,jersey_experiment_5_v0,2023.2.2,Win32,84.74576271,,,,,,,,,,,,,,,,674.9784,676.2721,676.2721,677.2133,return,0.0964,,37.5,,,,,,FBP-YG-81.png,0.37,1.2,22,0.5,,,,,,,,,,,,,,,,,,0,34,34,21,1,,,,,,,,,,,,,,,,,,,,,,,
,,,,,SPR24_017,19,Female,2024-04-08_16h33.02.775,jersey_experiment_5_v0,2023.2.2,Win32,84.74576271,,,,,,,,,,,,,,,,677.2134,678.5074,678.5075,679.2603,return,0.05,,68.61979167,,,,,,FBP-PT-91.png,0.43,1.2,59,0.5,,,,,,,,,,,,,,,,,,0,35,35,58,1,,,,,,,,,,,,,,,,,,,,,,,
,,,,,SPR24_017,19,Female,2024-04-08_16h33.02.775,jersey_experiment_5_v0,2023.2.2,Win32,84.74576271,,,,,,,,,,,,,,,,679.2605,680.5546,680.5546,681.2487,return,0.1187,,41.015625,,,,,,FBP-PT-81.png,0.35,1.2,51,0.5,,,,,,,,,,,,,,,,,,0,36,36,50,1,,,,,,,,,,,,,,,,,,,,,,,
,,,,,SPR24_017,19,Female,2024-04-08_16h33.02.775,jersey_experiment_5_v0,2023.2.2,Win32,84.74576271,,,,,,,,,,,,,,,,681.2489,682.2958,682.2958,683.2487,return,0.1283,,64.0625,,,,,,FBP-OG-17.png,0.43,1.2,4,0.25,,,,,,,,,,,,,,,,,,0,37,37,3,1,,,,,,,,,,,,,,,,,,,,,,,
,,,,,SPR24_017,19,Female,2024-04-08_16h33.02.775,jersey_experiment_5_v0,2023.2.2,Win32,84.74576271,,,,,,,,,,,,,,,,683.2488,684.5429,684.5429,685.2253,return,0.1356,,67.96875,,,,,,FBP-PT-71.png,0.4,1.2,48,0.5,,,,,,,,,,,,,,,,,,0,38,38,47,1,,,,,,,,,,,,,,,,,,,,,,,
,,,,,SPR24_017,19,Female,2024-04-08_16h33.02.775,jersey_experiment_5_v0,2023.2.2,Win32,84.74576271,,,,,,,,,,,,,,,,685.2254,686.2725,686.2725,687.1312,return,0.1571,,68.359375,,,,,,FBP-RB-71.png,0.37,1.2,32,0.25,,,,,,,,,,,,,,,,,,0,39,39,31,1,,,,,,,,,,,,,,,,,,,,,,,
,,,,,SPR24_017,19,Female,2024-04-08_16h33.02.775,jersey_experiment_5_v0,2023.2.2,Win32,84.74576271,,,,,,,,,,,,,,,,687.1313,688.4254,688.4254,689.1667,return,0.1796,,68.359375,,,,,,FBP-PT-81.png,0.37,1.2,52,0.5,,,,,,,,,,,,,,,,,,0,40,40,51,1,,,,,,,,,,,,,,,,,,,,,,,
,,,,,SPR24_017,19,Female,2024-04-08_16h33.02.775,jersey_experiment_5_v0,2023.2.2,Win32,84.74576271,,,,,,,,,,,,,,,,689.167,690.2136,690.2136,691.1783,return,0.1013,,68.359375,,,,,,FBP-OG-17.png,0.45,1.2,5,0.25,,,,,,,,,,,,,,,,,,0,41,41,4,1,,,,,,,,,,,,,,,,,,,,,,,
,,,,,SPR24_017,19,Female,2024-04-08_16h33.02.775,jersey_experiment_5_v0,2023.2.2,Win32,84.74576271,,,,,,,,,,,,,,,,691.1785,692.2256,692.2256,693.4491,return,0.1706,,92.83854167,,,,,,FBP-RB-91.png,0.45,1.2,45,0.25,,,,,,,,,,,,,,,,,,0,42,42,44,1,,,,,,,,,,,,,,,,,,,,,,,
,,,,,SPR24_017,19,Female,2024-04-08_16h33.02.775,jersey_experiment_5_v0,2023.2.2,Win32,84.74576271,,,,,,,,,,,,,,,,693.4493,694.7432,694.7433,695.308,return,0.0979,,92.31770833,,,,,,FBP-YG-81.png,0.35,1.2,21,0.5,,,,,,,,,,,,,,,,,,0,43,43,20,1,,,,,,,,,,,,,,,,,,,,,,,
,,,,,SPR24_017,19,Female,2024-04-08_16h33.02.775,jersey_experiment_5_v0,2023.2.2,Win32,84.74576271,,,,,,,,,,,,,,,,695.3083,696.3551,696.3551,697.3786,return,0.1649,,96.484375,,,,,,FBP-RB-71.png,0.45,1.2,35,0.25,,,,,,,,,,,,,,,,,,0,44,44,34,1,,,,,,,,,,,,,,,,,,,,,,,
,,,,,SPR24_017,19,Female,2024-04-08_16h33.02.775,jersey_experiment_5_v0,2023.2.2,Win32,84.74576271,,,,,,,,,,,,,,,,697.3787,698.4258,698.4258,699.0375,return,0.1316,,96.22395833,,,,,,FBP-RB-81.png,0.43,1.2,39,0.25,,,,,,,,,,,,,,,,,,0,45,45,38,1,,,,,,,,,,,,,,,,,,,,,,,
,,,,,SPR24_017,19,Female,2024-04-08_16h33.02.775,jersey_experiment_5_v0,2023.2.2,Win32,84.74576271,,,,,,,,,,,,,,,,699.0378,700.3316,700.3317,701.3318,return,0.3523,,96.22395833,,,,,,FBP-PT-91.png,0.37,1.2,57,0.5,,,,,,,,,,,,,,,,,,0,46,46,56,1,,,,,,,,,,,,,,,,,,,,,,,
,,,,,SPR24_017,19,Female,2024-04-08_16h33.02.775,jersey_experiment_5_v0,2023.2.2,Win32,84.74576271,,,,,,,,,,,,,,,,701.3321,702.626,702.626,703.3436,return,0.0962,,95.83333333,,,,,,FBP-YG-91.png,0.4,1.2,28,0.5,,,,,,,,,,,,,,,,,,0,47,47,27,1,,,,,,,,,,,,,,,,,,,,,,,
,,,,,SPR24_017,19,Female,2024-04-08_16h33.02.775,jersey_experiment_5_v0,2023.2.2,Win32,84.74576271,,,,,,,,,,,,,,,,703.3438,704.6376,704.6376,705.2495,return,0.1883,,95.83333333,,,,,,FBP-YG-81.png,0.4,1.2,23,0.5,,,,,,,,,,,,,,,,,,0,48,48,22,1,,,,,,,,,,,,,,,,,,,,,,,
,,,,,SPR24_017,19,Female,2024-04-08_16h33.02.775,jersey_experiment_5_v0,2023.2.2,Win32,84.74576271,,,,,,,,,,,,,,,,705.2497,706.2966,706.2967,706.8731,return,0.0887,,95.83333333,,,,,,FBP-RB-91.png,0.4,1.2,43,0.25,,,,,,,,,,,,,,,,,,0,49,49,42,1,,,,,,,,,,,,,,,,,,,,,,,
,,,,,SPR24_017,19,Female,2024-04-08_16h33.02.775,jersey_experiment_5_v0,2023.2.2,Win32,84.74576271,,,,,,,,,,,,,,,,706.8733,708.1672,708.1672,708.8497,return,0.0328,,95.703125,,,,,,FBP-YG-91.png,0.43,1.2,29,0.5,,,,,,,,,,,,,,,,,,0,50,50,28,1,,,,,,,,,,,,,,,,,,,,,,,
,,,,,SPR24_017,19,Female,2024-04-08_16h33.02.775,jersey_experiment_5_v0,2023.2.2,Win32,84.74576271,,,,,,,,,,,,,,,,708.8499,709.8967,709.8968,710.4263,return,0.1019,,95.703125,,,,,,FBP-RB-81.png,0.37,1.2,37,0.25,,,,,,,,,,,,,,,,,,0,51,51,36,1,,,,,,,,,,,,,,,,,,,,,,,
,,,,,SPR24_017,19,Female,2024-04-08_16h33.02.775,jersey_experiment_5_v0,2023.2.2,Win32,84.74576271,,,,,,,,,,,,,,,,710.4266,711.4733,711.4733,712.1086,return,0.1198,,95.703125,,,,,,FBP-RB-81.png,0.4,1.2,38,0.25,,,,,,,,,,,,,,,,,,0,52,52,37,1,,,,,,,,,,,,,,,,,,,,,,,
,,,,,SPR24_017,19,Female,2024-04-08_16h33.02.775,jersey_experiment_5_v0,2023.2.2,Win32,84.74576271,,,,,,,,,,,,,,,,712.1088,713.4028,713.4029,713.9203,return,0.1319,,95.703125,,,,,,FBP-YG-71.png,0.45,1.2,20,0.5,,,,,,,,,,,,,,,,,,0,53,53,19,1,,,,,,,,,,,,,,,,,,,,,,,
,,,,,SPR24_017,19,Female,2024-04-08_16h33.02.775,jersey_experiment_5_v0,2023.2.2,Win32,84.74576271,,,,,,,,,,,,,,,,713.9206,714.9674,714.9675,715.45,return,0.1236,,95.703125,,,,,,FBP-OG-17.png,0.4,1.2,3,0.25,,,,,,,,,,,,,,,,,,0,54,54,2,1,,,,,,,,,,,,,,,,,,,,,,,
,,,,,SPR24_017,19,Female,2024-04-08_16h33.02.775,jersey_experiment_5_v0,2023.2.2,Win32,84.74576271,,,,,,,,,,,,,,,,715.4503,716.497,716.497,717.1794,return,0.1477,,95.703125,,,,,,FBP-RB-71.png,0.4,1.2,33,0.25,,,,,,,,,,,,,,,,,,0,55,55,32,1,,,,,,,,,,,,,,,,,,,,,,,
,,,,,SPR24_017,19,Female,2024-04-08_16h33.02.775,jersey_experiment_5_v0,2023.2.2,Win32,84.74576271,,,,,,,,,,,,,,,,717.1796,718.2264,718.2264,718.8737,return,0.0875,,95.703125,,,,,,FBP-RB-81.png,0.35,1.2,36,0.25,,,,,,,,,,,,,,,,,,0,56,56,35,1,,,,,,,,,,,,,,,,,,,,,,,
,,,,,SPR24_017,19,Female,2024-04-08_16h33.02.775,jersey_experiment_5_v0,2023.2.2,Win32,84.74576271,,,,,,,,,,,,,,,,718.8739,720.1677,720.1677,720.7208,return,0.1893,,95.703125,,,,,,FBP-YG-71.png,0.37,1.2,17,0.5,,,,,,,,,,,,,,,,,,0,57,57,16,1,,,,,,,,,,,,,,,,,,,,,,,
,,,,,SPR24_017,19,Female,2024-04-08_16h33.02.775,jersey_experiment_5_v0,2023.2.2,Win32,84.74576271,,,,,,,,,,,,,,,,720.721,721.7677,721.7677,722.4501,return,0.1414,,95.57291667,,,,,,FBP-OG-19.png,0.4,1.2,13,0.25,,,,,,,,,,,,,,,,,,0,58,58,12,1,,,,,,,,,,,,,,,,,,,,,,,
,,,,,SPR24_017,19,Female,2024-04-08_16h33.02.775,jersey_experiment_5_v0,2023.2.2,Win32,84.74576271,,,,,,,,,,,,,,,,722.4504,723.4972,723.4973,724.0974,return,0.1268,,95.57291667,,,,,,FBP-RB-71.png,0.35,1.2,31,0.25,,,,,,,,,,,,,,,,,,0,59,59,30,1,,,,,,,,,,,,,,,,,,,,,,,
,,,,,SPR24_017,19,Female,2024-04-08_16h33.02.775,jersey_experiment_5_v0,2023.2.2,Win32,84.74576271,,,,,,,,,,,,,,,,,,,,,,,,,,,,,,,,,,,,,,,,,,,,,,,,,,,,,,,,724.0978,727.0742,return,2.9643,,,,,,,,,,,,,,,,,,,
,,,,,SPR24_017,19,Female,2024-04-08_16h33.02.775,jersey_experiment_5_v0,2023.2.2,Win32,84.74576271,,,,,,,,,,,,,,,,,,,,,,,,,,,,,,,,,,,,,,,,,,,,,,,,,,,,,,,,,,,,,727.0744,729.2504,1,1.692,return,0.456,,,,,,,,,,,,
,,,,,SPR24_017,19,Female,2024-04-08_16h33.02.775,jersey_experiment_5_v0,2023.2.2,Win32,84.74576271,,,,,,,,,,,,,,,,,,,,,,,,,,,,,,,,,,,,,,,,,,,,,,,,,,,,,,,,,,,,,,,,,,,,729.2507,758.4801,Not sure what the study is about. Some patterns I saw was the variation in different sizes,right,21.9691,,,,,,
,,,,,SPR24_017,19,Female,2024-04-08_16h33.02.775,jersey_experiment_5_v0,2023.2.2,Win32,84.74576271,,,,,,,,,,,,,,,,,,,,,,,,,,,,,,,,,,,,,,,,,,,,,,,,,,,,,,,,,,,,,,,,,,,,,,,,,,758.4802,760.1457,return,1.652,