requirements.started,requirements.stopped,key_resp_3.keys,key_resp_3.rt,key_resp_3.duration,Subject ID,Age,Gender,date,expName,psychopyVersion,OS,frameRate,instructions1.started,instructions1.stopped,key_resp.keys,key_resp.rt,key_resp.duration,example.started,example.stopped,enter_2.keys,enter_2.rt,enter_2.duration,instructions2.started,instructions2.stopped,enter_3.keys,enter_3.rt,enter_3.duration,image.started,image.stopped,slider_2.started,slider_2.stopped,next.keys,next.rt,next.duration,slider.response,trial_block_1.thisRepN,trial_block_1.thisTrialN,trial_block_1.thisN,trial_block_1.thisIndex,trial_block_1.ran,Path,Width,Height,Index,Duration,trial_block_2.thisRepN,trial_block_2.thisTrialN,trial_block_2.thisN,trial_block_2.thisIndex,trial_block_2.ran,rest_break.started,rest_break.stopped,end_break.started,end_break.stopped,key_resp_5.keys,key_resp_5.rt,key_resp_5.duration,trial_block_3.thisRepN,trial_block_3.thisTrialN,trial_block_3.thisN,trial_block_3.thisIndex,trial_block_3.ran,trial_block_4.thisRepN,trial_block_4.thisTrialN,trial_block_4.thisN,trial_block_4.thisIndex,trial_block_4.ran,questions_intro.started,questions_intro.stopped,enter_12.keys,enter_12.rt,enter_12.duration,question2.started,question2.stopped,question_doingbest.response,question_doingbest.rt,enter_15.keys,enter_15.rt,enter_15.duration,pattern.started,pattern.stopped,pattern_2.text,enter_17.keys,enter_17.rt,enter_17.duration,thankyou.started,thankyou.stopped,enter_14.keys,enter_14.rt,enter_14.duration
9.99999E-05,4.9181,return,4.9081,,SPR24_014,21,Nonbinary,2024-04-08_14h23.58.556,jersey_experiment_5_v0,2023.2.2,Win32,85.47008547,,,,,,,,,,,,,,,,,,,,,,,,,,,,,,,,,,,,,,,,,,,,,,,,,,,,,,,,,,,,,,,,,,,,,,,,,,,,,,
,,,,,SPR24_014,21,Nonbinary,2024-04-08_14h23.58.556,jersey_experiment_5_v0,2023.2.2,Win32,85.47008547,4.9181,9.6475,return,4.713,,,,,,,,,,,,,,,,,,,,,,,,,,,,,,,,,,,,,,,,,,,,,,,,,,,,,,,,,,,,,,,,,,,,,,,,,,
,,,,,SPR24_014,21,Nonbinary,2024-04-08_14h23.58.556,jersey_experiment_5_v0,2023.2.2,Win32,85.47008547,,,,,,9.6476,11.977,return,2.292,,,,,,,,,,,,,,,,,,,,,,,,,,,,,,,,,,,,,,,,,,,,,,,,,,,,,,,,,,,,,,,,,,,,,
,,,,,SPR24_014,21,Nonbinary,2024-04-08_14h23.58.556,jersey_experiment_5_v0,2023.2.2,Win32,85.47008547,,,,,,,,,,,11.9771,24.6127,return,12.6236,,,,,,,,,,,,,,,,,,,,,,,,,,,,,,,,,,,,,,,,,,,,,,,,,,,,,,,,,,,,,,,,
,,,,,SPR24_014,21,Nonbinary,2024-04-08_14h23.58.556,jersey_experiment_5_v0,2023.2.2,Win32,85.47008547,,,,,,,,,,,,,,,,24.62,25.6715,25.6715,36.8249,return,4.2678,,41.53645833,0,0,0,27,1,FBP-YG-19.png,0.4,1.2,28,0.25,,,,,,,,,,,,,,,,,,,,,,,,,,,,,,,,,,,,,,,,,,,,,
,,,,,SPR24_014,21,Nonbinary,2024-04-08_14h23.58.556,jersey_experiment_5_v0,2023.2.2,Win32,85.47008547,,,,,,,,,,,,,,,,36.8252,37.8718,37.8718,41.6013,return,1.733,,68.359375,0,1,1,24,1,FBP-YG-18.png,0.45,1.2,25,0.25,,,,,,,,,,,,,,,,,,,,,,,,,,,,,,,,,,,,,,,,,,,,,
,,,,,SPR24_014,21,Nonbinary,2024-04-08_14h23.58.556,jersey_experiment_5_v0,2023.2.2,Win32,85.47008547,,,,,,,,,,,,,,,,41.6015,42.8955,42.8957,46.6251,return,2.3,,24.08854167,0,2,2,41,1,FBP-RB-19.png,0.37,1.2,42,0.5,,,,,,,,,,,,,,,,,,,,,,,,,,,,,,,,,,,,,,,,,,,,,
,,,,,SPR24_014,21,Nonbinary,2024-04-08_14h23.58.556,jersey_experiment_5_v0,2023.2.2,Win32,85.47008547,,,,,,,,,,,,,,,,46.6253,47.672,47.6721,50.3663,return,0.844,,47.65625,0,3,3,52,1,FBP-PT-18.png,0.4,1.2,53,0.25,,,,,,,,,,,,,,,,,,,,,,,,,,,,,,,,,,,,,,,,,,,,,
,,,,,SPR24_014,21,Nonbinary,2024-04-08_14h23.58.556,jersey_experiment_5_v0,2023.2.2,Win32,85.47008547,,,,,,,,,,,,,,,,50.3665,51.4134,51.4134,53.743,return,0.7227,,68.75,0,4,4,53,1,FBP-PT-18.png,0.43,1.2,54,0.25,,,,,,,,,,,,,,,,,,,,,,,,,,,,,,,,,,,,,,,,,,,,,
,,,,,SPR24_014,21,Nonbinary,2024-04-08_14h23.58.556,jersey_experiment_5_v0,2023.2.2,Win32,85.47008547,,,,,,,,,,,,,,,,53.7432,55.0371,55.0371,57.0609,return,0.5763,,10.15625,0,5,5,40,1,FBP-RB-19.png,0.35,1.2,41,0.5,,,,,,,,,,,,,,,,,,,,,,,,,,,,,,,,,,,,,,,,,,,,,
,,,,,SPR24_014,21,Nonbinary,2024-04-08_14h23.58.556,jersey_experiment_5_v0,2023.2.2,Win32,85.47008547,,,,,,,,,,,,,,,,57.061,58.1078,58.1079,60.9432,return,1.2543,,49.21875,0,6,6,23,1,FBP-YG-18.png,0.43,1.2,24,0.25,,,,,,,,,,,,,,,,,,,,,,,,,,,,,,,,,,,,,,,,,,,,,
,,,,,SPR24_014,21,Nonbinary,2024-04-08_14h23.58.556,jersey_experiment_5_v0,2023.2.2,Win32,85.47008547,,,,,,,,,,,,,,,,60.9434,62.2373,62.2374,64.2493,return,0.555,,59.765625,0,7,7,12,1,FBP-OG-91.png,0.4,1.2,13,0.5,,,,,,,,,,,,,,,,,,,,,,,,,,,,,,,,,,,,,,,,,,,,,
,,,,,SPR24_014,21,Nonbinary,2024-04-08_14h23.58.556,jersey_experiment_5_v0,2023.2.2,Win32,85.47008547,,,,,,,,,,,,,,,,64.2496,65.5435,65.5435,67.1553,return,0.5918,,86.84895833,0,8,8,9,1,FBP-OG-81.png,0.45,1.2,10,0.5,,,,,,,,,,,,,,,,,,,,,,,,,,,,,,,,,,,,,,,,,,,,,
,,,,,SPR24_014,21,Nonbinary,2024-04-08_14h23.58.556,jersey_experiment_5_v0,2023.2.2,Win32,85.47008547,,,,,,,,,,,,,,,,67.1555,68.2023,68.2024,70.6966,return,1.0735,,59.89583333,0,9,9,57,1,FBP-PT-19.png,0.4,1.2,58,0.25,,,,,,,,,,,,,,,,,,,,,,,,,,,,,,,,,,,,,,,,,,,,,
,,,,,SPR24_014,21,Nonbinary,2024-04-08_14h23.58.556,jersey_experiment_5_v0,2023.2.2,Win32,85.47008547,,,,,,,,,,,,,,,,70.6968,71.7435,71.7435,74.3555,return,1.0718,,31.25,0,10,10,46,1,FBP-PT-17.png,0.37,1.2,47,0.25,,,,,,,,,,,,,,,,,,,,,,,,,,,,,,,,,,,,,,,,,,,,,
,,,,,SPR24_014,21,Nonbinary,2024-04-08_14h23.58.556,jersey_experiment_5_v0,2023.2.2,Win32,85.47008547,,,,,,,,,,,,,,,,74.3557,75.4026,75.4026,77.7792,return,1.0272,,48.4375,0,11,11,28,1,FBP-YG-19.png,0.43,1.2,29,0.25,,,,,,,,,,,,,,,,,,,,,,,,,,,,,,,,,,,,,,,,,,,,,
,,,,,SPR24_014,21,Nonbinary,2024-04-08_14h23.58.556,jersey_experiment_5_v0,2023.2.2,Win32,85.47008547,,,,,,,,,,,,,,,,77.7793,78.8262,78.8263,80.7087,return,0.6002,,42.1875,0,12,12,47,1,FBP-PT-17.png,0.4,1.2,48,0.25,,,,,,,,,,,,,,,,,,,,,,,,,,,,,,,,,,,,,,,,,,,,,
,,,,,SPR24_014,21,Nonbinary,2024-04-08_14h23.58.556,jersey_experiment_5_v0,2023.2.2,Win32,85.47008547,,,,,,,,,,,,,,,,80.7089,81.7557,81.7557,83.6146,return,0.5705,,32.68229167,0,13,13,17,1,FBP-YG-17.png,0.4,1.2,18,0.25,,,,,,,,,,,,,,,,,,,,,,,,,,,,,,,,,,,,,,,,,,,,,
,,,,,SPR24_014,21,Nonbinary,2024-04-08_14h23.58.556,jersey_experiment_5_v0,2023.2.2,Win32,85.47008547,,,,,,,,,,,,,,,,83.6149,84.6617,84.6618,86.8619,return,0.9482,,10.67708333,0,14,14,20,1,FBP-YG-18.png,0.35,1.2,21,0.25,,,,,,,,,,,,,,,,,,,,,,,,,,,,,,,,,,,,,,,,,,,,,
,,,,,SPR24_014,21,Nonbinary,2024-04-08_14h23.58.556,jersey_experiment_5_v0,2023.2.2,Win32,85.47008547,,,,,,,,,,,,,,,,86.862,88.1561,88.1561,90.4619,return,0.972,,10.9375,0,15,15,6,1,FBP-OG-81.png,0.37,1.2,7,0.5,,,,,,,,,,,,,,,,,,,,,,,,,,,,,,,,,,,,,,,,,,,,,
,,,,,SPR24_014,21,Nonbinary,2024-04-08_14h23.58.556,jersey_experiment_5_v0,2023.2.2,Win32,85.47008547,,,,,,,,,,,,,,,,90.4622,91.509,91.509,94.3917,return,1.2615,,61.06770833,0,16,16,19,1,FBP-YG-17.png,0.45,1.2,20,0.25,,,,,,,,,,,,,,,,,,,,,,,,,,,,,,,,,,,,,,,,,,,,,
,,,,,SPR24_014,21,Nonbinary,2024-04-08_14h23.58.556,jersey_experiment_5_v0,2023.2.2,Win32,85.47008547,,,,,,,,,,,,,,,,94.3918,95.6859,95.6859,97.3329,return,0.5791,,29.81770833,0,17,17,1,1,FBP-OG-71.png,0.37,1.2,2,0.5,,,,,,,,,,,,,,,,,,,,,,,,,,,,,,,,,,,,,,,,,,,,,
,,,,,SPR24_014,21,Nonbinary,2024-04-08_14h23.58.556,jersey_experiment_5_v0,2023.2.2,Win32,85.47008547,,,,,,,,,,,,,,,,97.3331,98.6269,98.627,100.7094,return,0.9517,,72.39583333,0,18,18,14,1,FBP-OG-91.png,0.45,1.2,15,0.5,,,,,,,,,,,,,,,,,,,,,,,,,,,,,,,,,,,,,,,,,,,,,
,,,,,SPR24_014,21,Nonbinary,2024-04-08_14h23.58.556,jersey_experiment_5_v0,2023.2.2,Win32,85.47008547,,,,,,,,,,,,,,,,100.7096,101.7565,101.7565,103.9213,return,1.0526,,16.14583333,0,19,19,50,1,FBP-PT-18.png,0.35,1.2,51,0.25,,,,,,,,,,,,,,,,,,,,,,,,,,,,,,,,,,,,,,,,,,,,,
,,,,,SPR24_014,21,Nonbinary,2024-04-08_14h23.58.556,jersey_experiment_5_v0,2023.2.2,Win32,85.47008547,,,,,,,,,,,,,,,,103.9216,105.2155,105.2155,107.0861,return,0.7245,,61.84895833,0,20,20,3,1,FBP-OG-71.png,0.43,1.2,4,0.5,,,,,,,,,,,,,,,,,,,,,,,,,,,,,,,,,,,,,,,,,,,,,
,,,,,SPR24_014,21,Nonbinary,2024-04-08_14h23.58.556,jersey_experiment_5_v0,2023.2.2,Win32,85.47008547,,,,,,,,,,,,,,,,107.0863,108.3802,108.3803,109.9569,return,0.5756,,82.421875,0,21,21,39,1,FBP-RB-18.png,0.45,1.2,40,0.5,,,,,,,,,,,,,,,,,,,,,,,,,,,,,,,,,,,,,,,,,,,,,
,,,,,SPR24_014,21,Nonbinary,2024-04-08_14h23.58.556,jersey_experiment_5_v0,2023.2.2,Win32,85.47008547,,,,,,,,,,,,,,,,109.9571,111.2509,111.251,114.3687,return,0.6768,,24.21875,0,22,22,35,1,FBP-RB-18.png,0.35,1.2,36,0.5,,,,,,,,,,,,,,,,,,,,,,,,,,,,,,,,,,,,,,,,,,,,,
,,,,,SPR24_014,21,Nonbinary,2024-04-08_14h23.58.556,jersey_experiment_5_v0,2023.2.2,Win32,85.47008547,,,,,,,,,,,,,,,,114.369,115.6629,115.6629,117.3689,return,0.5737,,9.375,0,23,23,30,1,FBP-RB-17.png,0.35,1.2,31,0.5,,,,,,,,,,,,,,,,,,,,,,,,,,,,,,,,,,,,,,,,,,,,,
,,,,,SPR24_014,21,Nonbinary,2024-04-08_14h23.58.556,jersey_experiment_5_v0,2023.2.2,Win32,85.47008547,,,,,,,,,,,,,,,,117.3691,118.416,118.416,120.1808,return,0.6027,,4.557291667,0,24,24,55,1,FBP-PT-19.png,0.35,1.2,56,0.25,,,,,,,,,,,,,,,,,,,,,,,,,,,,,,,,,,,,,,,,,,,,,
,,,,,SPR24_014,21,Nonbinary,2024-04-08_14h23.58.556,jersey_experiment_5_v0,2023.2.2,Win32,85.47008547,,,,,,,,,,,,,,,,120.181,121.2278,121.2279,123.2044,return,0.6001,,28.515625,0,25,25,26,1,FBP-YG-19.png,0.37,1.2,27,0.25,,,,,,,,,,,,,,,,,,,,,,,,,,,,,,,,,,,,,,,,,,,,,
,,,,,SPR24_014,21,Nonbinary,2024-04-08_14h23.58.556,jersey_experiment_5_v0,2023.2.2,Win32,85.47008547,,,,,,,,,,,,,,,,123.2047,124.4984,124.4985,127.2987,return,1.3085,,71.875,0,26,26,4,1,FBP-OG-71.png,0.45,1.2,5,0.5,,,,,,,,,,,,,,,,,,,,,,,,,,,,,,,,,,,,,,,,,,,,,
,,,,,SPR24_014,21,Nonbinary,2024-04-08_14h23.58.556,jersey_experiment_5_v0,2023.2.2,Win32,85.47008547,,,,,,,,,,,,,,,,127.2989,128.3457,128.3457,130.44,return,0.6355,,48.828125,0,27,27,22,1,FBP-YG-18.png,0.4,1.2,23,0.25,,,,,,,,,,,,,,,,,,,,,,,,,,,,,,,,,,,,,,,,,,,,,
,,,,,SPR24_014,21,Nonbinary,2024-04-08_14h23.58.556,jersey_experiment_5_v0,2023.2.2,Win32,85.47008547,,,,,,,,,,,,,,,,130.4402,131.4871,131.4871,134.5107,return,1.8553,,32.68229167,0,28,28,56,1,FBP-PT-19.png,0.37,1.2,57,0.25,,,,,,,,,,,,,,,,,,,,,,,,,,,,,,,,,,,,,,,,,,,,,
,,,,,SPR24_014,21,Nonbinary,2024-04-08_14h23.58.556,jersey_experiment_5_v0,2023.2.2,Win32,85.47008547,,,,,,,,,,,,,,,,134.511,135.5577,135.5578,137.4167,return,0.565,,62.36979167,0,29,29,18,1,FBP-YG-17.png,0.43,1.2,19,0.25,,,,,,,,,,,,,,,,,,,,,,,,,,,,,,,,,,,,,,,,,,,,,
,,,,,SPR24_014,21,Nonbinary,2024-04-08_14h23.58.556,jersey_experiment_5_v0,2023.2.2,Win32,85.47008547,,,,,,,,,,,,,,,,137.4168,138.4638,138.4638,140.405,return,0.6608,,66.015625,0,30,30,54,1,FBP-PT-18.png,0.45,1.2,55,0.25,,,,,,,,,,,,,,,,,,,,,,,,,,,,,,,,,,,,,,,,,,,,,
,,,,,SPR24_014,21,Nonbinary,2024-04-08_14h23.58.556,jersey_experiment_5_v0,2023.2.2,Win32,85.47008547,,,,,,,,,,,,,,,,140.4053,141.452,141.452,143.4287,return,0.5414,,37.890625,0,31,31,15,1,FBP-YG-17.png,0.35,1.2,16,0.25,,,,,,,,,,,,,,,,,,,,,,,,,,,,,,,,,,,,,,,,,,,,,
,,,,,SPR24_014,21,Nonbinary,2024-04-08_14h23.58.556,jersey_experiment_5_v0,2023.2.2,Win32,85.47008547,,,,,,,,,,,,,,,,143.4289,144.7229,144.7229,147.7465,return,1.9812,,23.828125,0,32,32,36,1,FBP-RB-18.png,0.37,1.2,37,0.5,,,,,,,,,,,,,,,,,,,,,,,,,,,,,,,,,,,,,,,,,,,,,
,,,,,SPR24_014,21,Nonbinary,2024-04-08_14h23.58.556,jersey_experiment_5_v0,2023.2.2,Win32,85.47008547,,,,,,,,,,,,,,,,147.7468,148.7936,148.7937,150.2761,return,0.5654,,25,0,33,33,51,1,FBP-PT-18.png,0.37,1.2,52,0.25,,,,,,,,,,,,,,,,,,,,,,,,,,,,,,,,,,,,,,,,,,,,,
,,,,,SPR24_014,21,Nonbinary,2024-04-08_14h23.58.556,jersey_experiment_5_v0,2023.2.2,Win32,85.47008547,,,,,,,,,,,,,,,,150.2763,151.5702,151.5702,153.935,return,0.6287,,50.390625,0,34,34,42,1,FBP-RB-19.png,0.4,1.2,43,0.5,,,,,,,,,,,,,,,,,,,,,,,,,,,,,,,,,,,,,,,,,,,,,
,,,,,SPR24_014,21,Nonbinary,2024-04-08_14h23.58.556,jersey_experiment_5_v0,2023.2.2,Win32,85.47008547,,,,,,,,,,,,,,,,153.9352,155.2291,155.2291,157.6527,return,0.5999,,52.34375,0,35,35,32,1,FBP-RB-17.png,0.4,1.2,33,0.5,,,,,,,,,,,,,,,,,,,,,,,,,,,,,,,,,,,,,,,,,,,,,
,,,,,SPR24_014,21,Nonbinary,2024-04-08_14h23.58.556,jersey_experiment_5_v0,2023.2.2,Win32,85.47008547,,,,,,,,,,,,,,,,157.6529,158.947,158.9471,160.4882,return,0.6589,,34.11458333,0,36,36,0,1,FBP-OG-71.png,0.35,1.2,1,0.5,,,,,,,,,,,,,,,,,,,,,,,,,,,,,,,,,,,,,,,,,,,,,
,,,,,SPR24_014,21,Nonbinary,2024-04-08_14h23.58.556,jersey_experiment_5_v0,2023.2.2,Win32,85.47008547,,,,,,,,,,,,,,,,160.4883,161.7824,161.7825,166.4178,return,2.6523,,50,0,37,37,8,1,FBP-OG-81.png,0.43,1.2,9,0.5,,,,,,,,,,,,,,,,,,,,,,,,,,,,,,,,,,,,,,,,,,,,,
,,,,,SPR24_014,21,Nonbinary,2024-04-08_14h23.58.556,jersey_experiment_5_v0,2023.2.2,Win32,85.47008547,,,,,,,,,,,,,,,,166.418,167.4647,167.4648,169.2531,return,0.7074,,66.53645833,0,38,38,49,1,FBP-PT-17.png,0.45,1.2,50,0.25,,,,,,,,,,,,,,,,,,,,,,,,,,,,,,,,,,,,,,,,,,,,,
,,,,,SPR24_014,21,Nonbinary,2024-04-08_14h23.58.556,jersey_experiment_5_v0,2023.2.2,Win32,85.47008547,,,,,,,,,,,,,,,,169.2534,170.5473,170.5474,172.4062,return,0.6453,,46.22395833,0,39,39,11,1,FBP-OG-91.png,0.37,1.2,12,0.5,,,,,,,,,,,,,,,,,,,,,,,,,,,,,,,,,,,,,,,,,,,,,
,,,,,SPR24_014,21,Nonbinary,2024-04-08_14h23.58.556,jersey_experiment_5_v0,2023.2.2,Win32,85.47008547,,,,,,,,,,,,,,,,172.4063,173.7002,173.7003,177.1592,return,2.5181,,25.91145833,0,40,40,31,1,FBP-RB-17.png,0.37,1.2,32,0.5,,,,,,,,,,,,,,,,,,,,,,,,,,,,,,,,,,,,,,,,,,,,,
,,,,,SPR24_014,21,Nonbinary,2024-04-08_14h23.58.556,jersey_experiment_5_v0,2023.2.2,Win32,85.47008547,,,,,,,,,,,,,,,,177.1594,178.2065,178.2066,179.6534,return,0.6129,,23.95833333,0,41,41,25,1,FBP-YG-19.png,0.35,1.2,26,0.25,,,,,,,,,,,,,,,,,,,,,,,,,,,,,,,,,,,,,,,,,,,,,
,,,,,SPR24_014,21,Nonbinary,2024-04-08_14h23.58.556,jersey_experiment_5_v0,2023.2.2,Win32,85.47008547,,,,,,,,,,,,,,,,179.6537,180.9478,180.9478,182.7596,return,0.6917,,50.91145833,0,42,42,33,1,FBP-RB-17.png,0.43,1.2,34,0.5,,,,,,,,,,,,,,,,,,,,,,,,,,,,,,,,,,,,,,,,,,,,,
,,,,,SPR24_014,21,Nonbinary,2024-04-08_14h23.58.556,jersey_experiment_5_v0,2023.2.2,Win32,85.47008547,,,,,,,,,,,,,,,,182.7598,183.8067,183.8068,185.9244,return,1.0592,,66.66666667,0,43,43,59,1,FBP-PT-19.png,0.45,1.2,60,0.25,,,,,,,,,,,,,,,,,,,,,,,,,,,,,,,,,,,,,,,,,,,,,
,,,,,SPR24_014,21,Nonbinary,2024-04-08_14h23.58.556,jersey_experiment_5_v0,2023.2.2,Win32,85.47008547,,,,,,,,,,,,,,,,185.9247,187.2186,187.2187,189.5364,return,0.5715,,71.35416667,0,44,44,13,1,FBP-OG-91.png,0.43,1.2,14,0.5,,,,,,,,,,,,,,,,,,,,,,,,,,,,,,,,,,,,,,,,,,,,,
,,,,,SPR24_014,21,Nonbinary,2024-04-08_14h23.58.556,jersey_experiment_5_v0,2023.2.2,Win32,85.47008547,,,,,,,,,,,,,,,,189.5366,190.8304,190.8305,192.9011,return,0.5762,,75,0,45,45,34,1,FBP-RB-17.png,0.45,1.2,35,0.5,,,,,,,,,,,,,,,,,,,,,,,,,,,,,,,,,,,,,,,,,,,,,
,,,,,SPR24_014,21,Nonbinary,2024-04-08_14h23.58.556,jersey_experiment_5_v0,2023.2.2,Win32,85.47008547,,,,,,,,,,,,,,,,192.9013,194.1952,194.1952,195.8778,return,0.6588,,77.47395833,0,46,46,44,1,FBP-RB-19.png,0.45,1.2,45,0.5,,,,,,,,,,,,,,,,,,,,,,,,,,,,,,,,,,,,,,,,,,,,,
,,,,,SPR24_014,21,Nonbinary,2024-04-08_14h23.58.556,jersey_experiment_5_v0,2023.2.2,Win32,85.47008547,,,,,,,,,,,,,,,,195.8781,197.1718,197.1719,198.6544,return,0.6558,,76.82291667,0,47,47,38,1,FBP-RB-18.png,0.43,1.2,39,0.5,,,,,,,,,,,,,,,,,,,,,,,,,,,,,,,,,,,,,,,,,,,,,
,,,,,SPR24_014,21,Nonbinary,2024-04-08_14h23.58.556,jersey_experiment_5_v0,2023.2.2,Win32,85.47008547,,,,,,,,,,,,,,,,198.6546,199.9483,199.9484,202.5955,return,1.5562,,78.25520833,0,48,48,43,1,FBP-RB-19.png,0.43,1.2,44,0.5,,,,,,,,,,,,,,,,,,,,,,,,,,,,,,,,,,,,,,,,,,,,,
,,,,,SPR24_014,21,Nonbinary,2024-04-08_14h23.58.556,jersey_experiment_5_v0,2023.2.2,Win32,85.47008547,,,,,,,,,,,,,,,,202.5958,203.6426,203.6426,206.6897,return,0.6266,,38.02083333,0,49,49,45,1,FBP-PT-17.png,0.35,1.2,46,0.25,,,,,,,,,,,,,,,,,,,,,,,,,,,,,,,,,,,,,,,,,,,,,
,,,,,SPR24_014,21,Nonbinary,2024-04-08_14h23.58.556,jersey_experiment_5_v0,2023.2.2,Win32,85.47008547,,,,,,,,,,,,,,,,206.6901,207.984,207.984,211.6197,return,1.2153,,25.26041667,0,50,50,10,1,FBP-OG-91.png,0.35,1.2,11,0.5,,,,,,,,,,,,,,,,,,,,,,,,,,,,,,,,,,,,,,,,,,,,,
,,,,,SPR24_014,21,Nonbinary,2024-04-08_14h23.58.556,jersey_experiment_5_v0,2023.2.2,Win32,85.47008547,,,,,,,,,,,,,,,,211.6199,212.6664,212.6665,214.4077,return,0.5647,,63.80208333,0,51,51,58,1,FBP-PT-19.png,0.43,1.2,59,0.25,,,,,,,,,,,,,,,,,,,,,,,,,,,,,,,,,,,,,,,,,,,,,
,,,,,SPR24_014,21,Nonbinary,2024-04-08_14h23.58.556,jersey_experiment_5_v0,2023.2.2,Win32,85.47008547,,,,,,,,,,,,,,,,214.408,215.4551,215.4551,217.3138,return,0.8737,,69.40104167,0,52,52,48,1,FBP-PT-17.png,0.43,1.2,49,0.25,,,,,,,,,,,,,,,,,,,,,,,,,,,,,,,,,,,,,,,,,,,,,
,,,,,SPR24_014,21,Nonbinary,2024-04-08_14h23.58.556,jersey_experiment_5_v0,2023.2.2,Win32,85.47008547,,,,,,,,,,,,,,,,217.3141,218.6079,218.608,222.8551,return,2.5881,,73.4375,0,53,53,7,1,FBP-OG-81.png,0.4,1.2,8,0.5,,,,,,,,,,,,,,,,,,,,,,,,,,,,,,,,,,,,,,,,,,,,,
,,,,,SPR24_014,21,Nonbinary,2024-04-08_14h23.58.556,jersey_experiment_5_v0,2023.2.2,Win32,85.47008547,,,,,,,,,,,,,,,,222.8553,223.9022,223.9024,232.2438,return,1.6123,,71.74479167,0,54,54,29,1,FBP-YG-19.png,0.45,1.2,30,0.25,,,,,,,,,,,,,,,,,,,,,,,,,,,,,,,,,,,,,,,,,,,,,
,,,,,SPR24_014,21,Nonbinary,2024-04-08_14h23.58.556,jersey_experiment_5_v0,2023.2.2,Win32,85.47008547,,,,,,,,,,,,,,,,232.2441,233.5379,233.538,234.9852,return,0.7286,,57.8125,0,55,55,2,1,FBP-OG-71.png,0.4,1.2,3,0.5,,,,,,,,,,,,,,,,,,,,,,,,,,,,,,,,,,,,,,,,,,,,,
,,,,,SPR24_014,21,Nonbinary,2024-04-08_14h23.58.556,jersey_experiment_5_v0,2023.2.2,Win32,85.47008547,,,,,,,,,,,,,,,,234.9854,236.0321,236.0321,237.6794,return,0.5489,,35.80729167,0,56,56,16,1,FBP-YG-17.png,0.37,1.2,17,0.25,,,,,,,,,,,,,,,,,,,,,,,,,,,,,,,,,,,,,,,,,,,,,
,,,,,SPR24_014,21,Nonbinary,2024-04-08_14h23.58.556,jersey_experiment_5_v0,2023.2.2,Win32,85.47008547,,,,,,,,,,,,,,,,237.6796,238.9734,238.9734,240.8558,return,1.0357,,45.703125,0,57,57,37,1,FBP-RB-18.png,0.4,1.2,38,0.5,,,,,,,,,,,,,,,,,,,,,,,,,,,,,,,,,,,,,,,,,,,,,
,,,,,SPR24_014,21,Nonbinary,2024-04-08_14h23.58.556,jersey_experiment_5_v0,2023.2.2,Win32,85.47008547,,,,,,,,,,,,,,,,240.8561,242.1499,242.15,244.3265,return,1.5289,,29.6875,0,58,58,5,1,FBP-OG-81.png,0.35,1.2,6,0.5,,,,,,,,,,,,,,,,,,,,,,,,,,,,,,,,,,,,,,,,,,,,,
,,,,,SPR24_014,21,Nonbinary,2024-04-08_14h23.58.556,jersey_experiment_5_v0,2023.2.2,Win32,85.47008547,,,,,,,,,,,,,,,,244.3268,245.3736,245.3736,247.3971,return,0.5899,,39.32291667,0,59,59,21,1,FBP-YG-18.png,0.37,1.2,22,0.25,,,,,,,,,,,,,,,,,,,,,,,,,,,,,,,,,,,,,,,,,,,,,
,,,,,SPR24_014,21,Nonbinary,2024-04-08_14h23.58.556,jersey_experiment_5_v0,2023.2.2,Win32,85.47008547,,,,,,,,,,,,,,,,247.3993,248.4444,248.4444,250.0562,return,0.5883,,67.44791667,,,,,,FBP-YG-71.png,0.45,1.2,20,0.25,0,0,0,19,1,,,,,,,,,,,,,,,,,,,,,,,,,,,,,,,,,,,,,,,,
,,,,,SPR24_014,21,Nonbinary,2024-04-08_14h23.58.556,jersey_experiment_5_v0,2023.2.2,Win32,85.47008547,,,,,,,,,,,,,,,,250.0565,251.3503,251.3503,253.2563,return,0.9882,,71.875,,,,,,FBP-RB-71.png,0.4,1.2,33,0.5,0,1,1,32,1,,,,,,,,,,,,,,,,,,,,,,,,,,,,,,,,,,,,,,,,
,,,,,SPR24_014,21,Nonbinary,2024-04-08_14h23.58.556,jersey_experiment_5_v0,2023.2.2,Win32,85.47008547,,,,,,,,,,,,,,,,253.2566,254.5504,254.5505,255.8916,return,0.568,,41.40625,,,,,,FBP-OG-18.png,0.37,1.2,7,0.5,0,2,2,6,1,,,,,,,,,,,,,,,,,,,,,,,,,,,,,,,,,,,,,,,,
,,,,,SPR24_014,21,Nonbinary,2024-04-08_14h23.58.556,jersey_experiment_5_v0,2023.2.2,Win32,85.47008547,,,,,,,,,,,,,,,,255.8918,257.1857,257.1858,259.727,return,1.2785,,64.19270833,,,,,,FBP-OG-17.png,0.43,1.2,4,0.5,0,3,3,3,1,,,,,,,,,,,,,,,,,,,,,,,,,,,,,,,,,,,,,,,,
,,,,,SPR24_014,21,Nonbinary,2024-04-08_14h23.58.556,jersey_experiment_5_v0,2023.2.2,Win32,85.47008547,,,,,,,,,,,,,,,,259.7273,261.0211,261.0211,262.3861,return,0.5554,,70.703125,,,,,,FBP-OG-18.png,0.43,1.2,9,0.5,0,4,4,8,1,,,,,,,,,,,,,,,,,,,,,,,,,,,,,,,,,,,,,,,,
,,,,,SPR24_014,21,Nonbinary,2024-04-08_14h23.58.556,jersey_experiment_5_v0,2023.2.2,Win32,85.47008547,,,,,,,,,,,,,,,,262.3863,263.433,263.4331,264.9039,return,0.6356,,46.875,,,,,,FBP-YG-81.png,0.35,1.2,21,0.25,0,5,5,20,1,,,,,,,,,,,,,,,,,,,,,,,,,,,,,,,,,,,,,,,,
,,,,,SPR24_014,21,Nonbinary,2024-04-08_14h23.58.556,jersey_experiment_5_v0,2023.2.2,Win32,85.47008547,,,,,,,,,,,,,,,,264.9042,265.9509,265.9509,268.9746,return,1.2085,,66.92708333,,,,,,FBP-PT-81.png,0.45,1.2,55,0.25,0,6,6,54,1,,,,,,,,,,,,,,,,,,,,,,,,,,,,,,,,,,,,,,,,
,,,,,SPR24_014,21,Nonbinary,2024-04-08_14h23.58.556,jersey_experiment_5_v0,2023.2.2,Win32,85.47008547,,,,,,,,,,,,,,,,268.9748,270.0216,270.0217,271.9864,return,0.6023,,25.52083333,,,,,,FBP-PT-71.png,0.37,1.2,47,0.25,0,7,7,46,1,,,,,,,,,,,,,,,,,,,,,,,,,,,,,,,,,,,,,,,,
,,,,,SPR24_014,21,Nonbinary,2024-04-08_14h23.58.556,jersey_experiment_5_v0,2023.2.2,Win32,85.47008547,,,,,,,,,,,,,,,,271.9867,273.2805,273.2805,274.5512,return,0.5746,,14.97395833,,,,,,FBP-OG-18.png,0.35,1.2,6,0.5,0,8,8,5,1,,,,,,,,,,,,,,,,,,,,,,,,,,,,,,,,,,,,,,,,
,,,,,SPR24_014,21,Nonbinary,2024-04-08_14h23.58.556,jersey_experiment_5_v0,2023.2.2,Win32,85.47008547,,,,,,,,,,,,,,,,274.5515,275.8454,275.8454,277.2573,return,0.7388,,5.46875,,,,,,FBP-OG-17.png,0.35,1.2,1,0.5,0,9,9,0,1,,,,,,,,,,,,,,,,,,,,,,,,,,,,,,,,,,,,,,,,
,,,,,SPR24_014,21,Nonbinary,2024-04-08_14h23.58.556,jersey_experiment_5_v0,2023.2.2,Win32,85.47008547,,,,,,,,,,,,,,,,277.2576,278.3043,278.3044,280.2927,return,0.614,,4.427083333,,,,,,FBP-YG-81.png,0.37,1.2,22,0.25,0,10,10,21,1,,,,,,,,,,,,,,,,,,,,,,,,,,,,,,,,,,,,,,,,
,,,,,SPR24_014,21,Nonbinary,2024-04-08_14h23.58.556,jersey_experiment_5_v0,2023.2.2,Win32,85.47008547,,,,,,,,,,,,,,,,280.2929,281.3397,281.3397,283.4927,return,0.6,,25.390625,,,,,,FBP-PT-81.png,0.4,1.2,53,0.25,0,11,11,52,1,,,,,,,,,,,,,,,,,,,,,,,,,,,,,,,,,,,,,,,,
,,,,,SPR24_014,21,Nonbinary,2024-04-08_14h23.58.556,jersey_experiment_5_v0,2023.2.2,Win32,85.47008547,,,,,,,,,,,,,,,,283.4932,284.5398,284.5398,286.7517,return,0.6072,,63.02083333,,,,,,FBP-YG-91.png,0.43,1.2,29,0.25,0,12,12,28,1,,,,,,,,,,,,,,,,,,,,,,,,,,,,,,,,,,,,,,,,
,,,,,SPR24_014,21,Nonbinary,2024-04-08_14h23.58.556,jersey_experiment_5_v0,2023.2.2,Win32,85.47008547,,,,,,,,,,,,,,,,286.752,288.0458,288.0458,290.2929,return,1.4372,,72.91666667,,,,,,FBP-RB-91.png,0.43,1.2,44,0.5,0,13,13,43,1,,,,,,,,,,,,,,,,,,,,,,,,,,,,,,,,,,,,,,,,
,,,,,SPR24_014,21,Nonbinary,2024-04-08_14h23.58.556,jersey_experiment_5_v0,2023.2.2,Win32,85.47008547,,,,,,,,,,,,,,,,290.2932,291.5872,291.5872,293.4812,return,0.9556,,32.8125,,,,,,FBP-RB-71.png,0.35,1.2,31,0.5,0,14,14,30,1,,,,,,,,,,,,,,,,,,,,,,,,,,,,,,,,,,,,,,,,
,,,,,SPR24_014,21,Nonbinary,2024-04-08_14h23.58.556,jersey_experiment_5_v0,2023.2.2,Win32,85.47008547,,,,,,,,,,,,,,,,293.4814,294.5283,294.5284,296.2814,return,0.7995,,24.08854167,,,,,,FBP-YG-91.png,0.37,1.2,27,0.25,0,15,15,26,1,,,,,,,,,,,,,,,,,,,,,,,,,,,,,,,,,,,,,,,,
,,,,,SPR24_014,21,Nonbinary,2024-04-08_14h23.58.556,jersey_experiment_5_v0,2023.2.2,Win32,85.47008547,,,,,,,,,,,,,,,,296.2816,297.5756,297.5757,298.9992,return,0.6214,,16.015625,,,,,,FBP-OG-17.png,0.37,1.2,2,0.5,0,16,16,1,1,,,,,,,,,,,,,,,,,,,,,,,,,,,,,,,,,,,,,,,,
,,,,,SPR24_014,21,Nonbinary,2024-04-08_14h23.58.556,jersey_experiment_5_v0,2023.2.2,Win32,85.47008547,,,,,,,,,,,,,,,,298.9994,300.2933,300.2934,302.423,return,1.5199,,11.328125,,,,,,FBP-RB-71.png,0.37,1.2,32,0.5,0,17,17,31,1,,,,,,,,,,,,,,,,,,,,,,,,,,,,,,,,,,,,,,,,
,,,,,SPR24_014,21,Nonbinary,2024-04-08_14h23.58.556,jersey_experiment_5_v0,2023.2.2,Win32,85.47008547,,,,,,,,,,,,,,,,302.4232,303.4698,303.4699,305.0935,return,0.6604,,13.41145833,,,,,,FBP-YG-71.png,0.35,1.2,16,0.25,0,18,18,15,1,,,,,,,,,,,,,,,,,,,,,,,,,,,,,,,,,,,,,,,,
,,,,,SPR24_014,21,Nonbinary,2024-04-08_14h23.58.556,jersey_experiment_5_v0,2023.2.2,Win32,85.47008547,,,,,,,,,,,,,,,,305.0937,306.3877,306.3877,308.2231,return,0.5491,,20.3125,,,,,,FBP-OG-19.png,0.37,1.2,12,0.5,0,19,19,11,1,,,,,,,,,,,,,,,,,,,,,,,,,,,,,,,,,,,,,,,,
,,,,,SPR24_014,21,Nonbinary,2024-04-08_14h23.58.556,jersey_experiment_5_v0,2023.2.2,Win32,85.47008547,,,,,,,,,,,,,,,,308.2233,309.2702,309.2702,311.3527,return,0.5973,,71.09375,,,,,,FBP-PT-71.png,0.45,1.2,50,0.25,0,20,20,49,1,,,,,,,,,,,,,,,,,,,,,,,,,,,,,,,,,,,,,,,,
,,,,,SPR24_014,21,Nonbinary,2024-04-08_14h23.58.556,jersey_experiment_5_v0,2023.2.2,Win32,85.47008547,,,,,,,,,,,,,,,,311.3529,312.3998,312.3998,314.2703,return,0.644,,80.20833333,,,,,,FBP-YG-91.png,0.45,1.2,30,0.25,0,21,21,29,1,,,,,,,,,,,,,,,,,,,,,,,,,,,,,,,,,,,,,,,,
,,,,,SPR24_014,21,Nonbinary,2024-04-08_14h23.58.556,jersey_experiment_5_v0,2023.2.2,Win32,85.47008547,,,,,,,,,,,,,,,,314.2706,315.5645,315.5645,318.9998,return,2.2119,,86.58854167,,,,,,FBP-RB-91.png,0.45,1.2,45,0.5,0,22,22,44,1,,,,,,,,,,,,,,,,,,,,,,,,,,,,,,,,,,,,,,,,
,,,,,SPR24_014,21,Nonbinary,2024-04-08_14h23.58.556,jersey_experiment_5_v0,2023.2.2,Win32,85.47008547,,,,,,,,,,,,,,,,319.0002,320.047,320.0471,321.5294,return,0.6025,,79.81770833,,,,,,FBP-PT-91.png,0.43,1.2,59,0.25,0,23,23,58,1,,,,,,,,,,,,,,,,,,,,,,,,,,,,,,,,,,,,,,,,
,,,,,SPR24_014,21,Nonbinary,2024-04-08_14h23.58.556,jersey_experiment_5_v0,2023.2.2,Win32,85.47008547,,,,,,,,,,,,,,,,321.5298,322.5765,322.5765,325.4944,return,0.5281,,65.75520833,,,,,,FBP-YG-81.png,0.4,1.2,23,0.25,0,24,24,22,1,,,,,,,,,,,,,,,,,,,,,,,,,,,,,,,,,,,,,,,,
,,,,,SPR24_014,21,Nonbinary,2024-04-08_14h23.58.556,jersey_experiment_5_v0,2023.2.2,Win32,85.47008547,,,,,,,,,,,,,,,,325.4946,326.7885,326.7885,328.4943,return,1.041,,84.765625,,,,,,FBP-OG-17.png,0.45,1.2,5,0.5,0,25,25,4,1,,,,,,,,,,,,,,,,,,,,,,,,,,,,,,,,,,,,,,,,
,,,,,SPR24_014,21,Nonbinary,2024-04-08_14h23.58.556,jersey_experiment_5_v0,2023.2.2,Win32,85.47008547,,,,,,,,,,,,,,,,328.4944,329.7888,329.7888,331.3534,return,0.6123,,34.375,,,,,,FBP-RB-91.png,0.35,1.2,41,0.5,0,26,26,40,1,,,,,,,,,,,,,,,,,,,,,,,,,,,,,,,,,,,,,,,,
,,,,,SPR24_014,21,Nonbinary,2024-04-08_14h23.58.556,jersey_experiment_5_v0,2023.2.2,Win32,85.47008547,,,,,,,,,,,,,,,,331.3536,332.4005,332.4006,334.424,return,1.1207,,66.66666667,,,,,,FBP-PT-71.png,0.43,1.2,49,0.25,0,27,27,48,1,,,,,,,,,,,,,,,,,,,,,,,,,,,,,,,,,,,,,,,,
,,,,,SPR24_014,21,Nonbinary,2024-04-08_14h23.58.556,jersey_experiment_5_v0,2023.2.2,Win32,85.47008547,,,,,,,,,,,,,,,,334.4243,335.4712,335.4712,337.8476,return,1.4923,,52.21354167,,,,,,FBP-PT-71.png,0.4,1.2,48,0.25,0,28,28,47,1,,,,,,,,,,,,,,,,,,,,,,,,,,,,,,,,,,,,,,,,
,,,,,SPR24_014,21,Nonbinary,2024-04-08_14h23.58.556,jersey_experiment_5_v0,2023.2.2,Win32,85.47008547,,,,,,,,,,,,,,,,337.8478,338.8946,338.8947,340.7773,return,0.603,,50,,,,,,FBP-YG-71.png,0.4,1.2,18,0.25,0,29,29,17,1,,,,,,,,,,,,,,,,,,,,,,,,,,,,,,,,,,,,,,,,
,,,,,SPR24_014,21,Nonbinary,2024-04-08_14h23.58.556,jersey_experiment_5_v0,2023.2.2,Win32,85.47008547,,,,,,,,,,,,,,,,340.7775,342.0714,342.0715,343.8713,return,0.6193,,33.46354167,,,,,,FBP-RB-81.png,0.35,1.2,36,0.5,0,30,30,35,1,,,,,,,,,,,,,,,,,,,,,,,,,,,,,,,,,,,,,,,,
,,,,,SPR24_014,21,Nonbinary,2024-04-08_14h23.58.556,jersey_experiment_5_v0,2023.2.2,Win32,85.47008547,,,,,,,,,,,,,,,,343.8715,345.1657,345.1657,346.8952,return,0.57,,69.66145833,,,,,,FBP-OG-19.png,0.45,1.2,15,0.5,0,31,31,14,1,,,,,,,,,,,,,,,,,,,,,,,,,,,,,,,,,,,,,,,,
,,,,,SPR24_014,21,Nonbinary,2024-04-08_14h23.58.556,jersey_experiment_5_v0,2023.2.2,Win32,85.47008547,,,,,,,,,,,,,,,,346.8954,347.9423,347.9423,349.4716,return,0.7132,,77.47395833,,,,,,FBP-PT-81.png,0.43,1.2,54,0.25,0,32,32,53,1,,,,,,,,,,,,,,,,,,,,,,,,,,,,,,,,,,,,,,,,
,,,,,SPR24_014,21,Nonbinary,2024-04-08_14h23.58.556,jersey_experiment_5_v0,2023.2.2,Win32,85.47008547,,,,,,,,,,,,,,,,349.4719,350.5187,350.5188,351.9894,return,0.5757,,71.875,,,,,,FBP-YG-71.png,0.43,1.2,19,0.25,0,33,33,18,1,,,,,,,,,,,,,,,,,,,,,,,,,,,,,,,,,,,,,,,,
,,,,,SPR24_014,21,Nonbinary,2024-04-08_14h23.58.556,jersey_experiment_5_v0,2023.2.2,Win32,85.47008547,,,,,,,,,,,,,,,,351.9896,353.0364,353.0364,354.5306,return,0.5311,,28.38541667,,,,,,FBP-PT-71.png,0.35,1.2,46,0.25,0,34,34,45,1,,,,,,,,,,,,,,,,,,,,,,,,,,,,,,,,,,,,,,,,
,,,,,SPR24_014,21,Nonbinary,2024-04-08_14h23.58.556,jersey_experiment_5_v0,2023.2.2,Win32,85.47008547,,,,,,,,,,,,,,,,354.5308,355.5778,355.5779,356.6131,return,0.4842,,28.38541667,,,,,,FBP-PT-91.png,0.35,1.2,56,0.25,0,35,35,55,1,,,,,,,,,,,,,,,,,,,,,,,,,,,,,,,,,,,,,,,,
,,,,,SPR24_014,21,Nonbinary,2024-04-08_14h23.58.556,jersey_experiment_5_v0,2023.2.2,Win32,85.47008547,,,,,,,,,,,,,,,,356.6133,357.9073,357.9073,359.9426,return,0.5415,,28.25520833,,,,,,FBP-RB-91.png,0.37,1.2,42,0.5,0,36,36,41,1,,,,,,,,,,,,,,,,,,,,,,,,,,,,,,,,,,,,,,,,
,,,,,SPR24_014,21,Nonbinary,2024-04-08_14h23.58.556,jersey_experiment_5_v0,2023.2.2,Win32,85.47008547,,,,,,,,,,,,,,,,359.9429,361.2367,361.2367,362.8251,return,0.5184,,50.13020833,,,,,,FBP-RB-91.png,0.4,1.2,43,0.5,0,37,37,42,1,,,,,,,,,,,,,,,,,,,,,,,,,,,,,,,,,,,,,,,,
,,,,,SPR24_014,21,Nonbinary,2024-04-08_14h23.58.556,jersey_experiment_5_v0,2023.2.2,Win32,85.47008547,,,,,,,,,,,,,,,,362.8252,364.1192,364.1193,365.0487,return,0.5413,,50.13020833,,,,,,FBP-OG-18.png,0.4,1.2,8,0.5,0,38,38,7,1,,,,,,,,,,,,,,,,,,,,,,,,,,,,,,,,,,,,,,,,
,,,,,SPR24_014,21,Nonbinary,2024-04-08_14h23.58.556,jersey_experiment_5_v0,2023.2.2,Win32,85.47008547,,,,,,,,,,,,,,,,365.0489,366.343,366.343,367.7195,return,0.5181,,60.546875,,,,,,FBP-RB-71.png,0.43,1.2,34,0.5,0,39,39,33,1,,,,,,,,,,,,,,,,,,,,,,,,,,,,,,,,,,,,,,,,
,,,,,SPR24_014,21,Nonbinary,2024-04-08_14h23.58.556,jersey_experiment_5_v0,2023.2.2,Win32,85.47008547,,,,,,,,,,,,,,,,367.7197,368.7665,368.7665,370.1782,return,0.6497,,67.31770833,,,,,,FBP-PT-91.png,0.45,1.2,60,0.25,0,40,40,59,1,,,,,,,,,,,,,,,,,,,,,,,,,,,,,,,,,,,,,,,,
,,,,,SPR24_014,21,Nonbinary,2024-04-08_14h23.58.556,jersey_experiment_5_v0,2023.2.2,Win32,85.47008547,,,,,,,,,,,,,,,,370.1784,371.4725,371.4725,373.9077,return,1.4971,,49.609375,,,,,,FBP-OG-17.png,0.4,1.2,3,0.5,0,41,41,2,1,,,,,,,,,,,,,,,,,,,,,,,,,,,,,,,,,,,,,,,,
,,,,,SPR24_014,21,Nonbinary,2024-04-08_14h23.58.556,jersey_experiment_5_v0,2023.2.2,Win32,85.47008547,,,,,,,,,,,,,,,,373.908,374.9548,374.9549,376.2727,return,0.5805,,61.71875,,,,,,FBP-YG-81.png,0.43,1.2,24,0.25,0,42,42,23,1,,,,,,,,,,,,,,,,,,,,,,,,,,,,,,,,,,,,,,,,
,,,,,SPR24_014,21,Nonbinary,2024-04-08_14h23.58.556,jersey_experiment_5_v0,2023.2.2,Win32,85.47008547,,,,,,,,,,,,,,,,376.2729,377.3199,377.3199,379.2374,return,0.9519,,39.19270833,,,,,,FBP-PT-81.png,0.35,1.2,51,0.25,0,43,43,50,1,,,,,,,,,,,,,,,,,,,,,,,,,,,,,,,,,,,,,,,,
,,,,,SPR24_014,21,Nonbinary,2024-04-08_14h23.58.556,jersey_experiment_5_v0,2023.2.2,Win32,85.47008547,,,,,,,,,,,,,,,,379.2376,380.2846,380.2846,382.5786,return,0.9224,,50.78125,,,,,,FBP-YG-91.png,0.4,1.2,28,0.25,0,44,44,27,1,,,,,,,,,,,,,,,,,,,,,,,,,,,,,,,,,,,,,,,,
,,,,,SPR24_014,21,Nonbinary,2024-04-08_14h23.58.556,jersey_experiment_5_v0,2023.2.2,Win32,85.47008547,,,,,,,,,,,,,,,,382.5789,383.8728,383.8728,385.2848,return,0.6004,,57.94270833,,,,,,FBP-OG-19.png,0.43,1.2,14,0.5,0,45,45,13,1,,,,,,,,,,,,,,,,,,,,,,,,,,,,,,,,,,,,,,,,
,,,,,SPR24_014,21,Nonbinary,2024-04-08_14h23.58.556,jersey_experiment_5_v0,2023.2.2,Win32,85.47008547,,,,,,,,,,,,,,,,385.285,386.3318,386.3319,387.9908,return,0.5415,,37.890625,,,,,,FBP-YG-91.png,0.35,1.2,26,0.25,0,46,46,25,1,,,,,,,,,,,,,,,,,,,,,,,,,,,,,,,,,,,,,,,,
,,,,,SPR24_014,21,Nonbinary,2024-04-08_14h23.58.556,jersey_experiment_5_v0,2023.2.2,Win32,85.47008547,,,,,,,,,,,,,,,,387.9911,389.2849,389.285,390.8378,return,0.6461,,29.42708333,,,,,,FBP-RB-81.png,0.37,1.2,37,0.5,0,47,47,36,1,,,,,,,,,,,,,,,,,,,,,,,,,,,,,,,,,,,,,,,,
,,,,,SPR24_014,21,Nonbinary,2024-04-08_14h23.58.556,jersey_experiment_5_v0,2023.2.2,Win32,85.47008547,,,,,,,,,,,,,,,,390.838,391.885,391.8851,393.3674,return,0.6357,,24.73958333,,,,,,FBP-PT-81.png,0.37,1.2,52,0.25,0,48,48,51,1,,,,,,,,,,,,,,,,,,,,,,,,,,,,,,,,,,,,,,,,
,,,,,SPR24_014,21,Nonbinary,2024-04-08_14h23.58.556,jersey_experiment_5_v0,2023.2.2,Win32,85.47008547,,,,,,,,,,,,,,,,393.3676,394.6616,394.6616,396.2264,return,0.7442,,15.49479167,,,,,,FBP-OG-19.png,0.35,1.2,11,0.5,0,49,49,10,1,,,,,,,,,,,,,,,,,,,,,,,,,,,,,,,,,,,,,,,,
,,,,,SPR24_014,21,Nonbinary,2024-04-08_14h23.58.556,jersey_experiment_5_v0,2023.2.2,Win32,85.47008547,,,,,,,,,,,,,,,,396.2266,397.5206,397.5207,398.8499,return,0.5914,,37.36979167,,,,,,FBP-OG-19.png,0.4,1.2,13,0.5,0,50,50,12,1,,,,,,,,,,,,,,,,,,,,,,,,,,,,,,,,,,,,,,,,
,,,,,SPR24_014,21,Nonbinary,2024-04-08_14h23.58.556,jersey_experiment_5_v0,2023.2.2,Win32,85.47008547,,,,,,,,,,,,,,,,398.8501,400.1443,400.1443,401.6974,return,0.8743,,62.76041667,,,,,,FBP-OG-18.png,0.45,1.2,10,0.5,0,51,51,9,1,,,,,,,,,,,,,,,,,,,,,,,,,,,,,,,,,,,,,,,,
,,,,,SPR24_014,21,Nonbinary,2024-04-08_14h23.58.556,jersey_experiment_5_v0,2023.2.2,Win32,85.47008547,,,,,,,,,,,,,,,,401.6977,402.7443,402.7443,404.0501,return,0.5106,,76.953125,,,,,,FBP-YG-81.png,0.45,1.2,25,0.25,0,52,52,24,1,,,,,,,,,,,,,,,,,,,,,,,,,,,,,,,,,,,,,,,,
,,,,,SPR24_014,21,Nonbinary,2024-04-08_14h23.58.556,jersey_experiment_5_v0,2023.2.2,Win32,85.47008547,,,,,,,,,,,,,,,,404.0504,405.3445,405.3446,406.5209,return,0.6114,,76.30208333,,,,,,FBP-RB-81.png,0.43,1.2,39,0.5,0,53,53,38,1,,,,,,,,,,,,,,,,,,,,,,,,,,,,,,,,,,,,,,,,
,,,,,SPR24_014,21,Nonbinary,2024-04-08_14h23.58.556,jersey_experiment_5_v0,2023.2.2,Win32,85.47008547,,,,,,,,,,,,,,,,406.5211,407.5677,407.5678,409.3917,return,0.5604,,33.85416667,,,,,,FBP-YG-71.png,0.37,1.2,17,0.25,0,54,54,16,1,,,,,,,,,,,,,,,,,,,,,,,,,,,,,,,,,,,,,,,,
,,,,,SPR24_014,21,Nonbinary,2024-04-08_14h23.58.556,jersey_experiment_5_v0,2023.2.2,Win32,85.47008547,,,,,,,,,,,,,,,,409.3919,410.6857,410.6857,412.0857,return,0.66,,75.13020833,,,,,,FBP-RB-81.png,0.45,1.2,40,0.5,0,55,55,39,1,,,,,,,,,,,,,,,,,,,,,,,,,,,,,,,,,,,,,,,,
,,,,,SPR24_014,21,Nonbinary,2024-04-08_14h23.58.556,jersey_experiment_5_v0,2023.2.2,Win32,85.47008547,,,,,,,,,,,,,,,,412.086,413.38,413.3801,414.6388,return,0.5611,,58.85416667,,,,,,FBP-RB-81.png,0.4,1.2,38,0.5,0,56,56,37,1,,,,,,,,,,,,,,,,,,,,,,,,,,,,,,,,,,,,,,,,
,,,,,SPR24_014,21,Nonbinary,2024-04-08_14h23.58.556,jersey_experiment_5_v0,2023.2.2,Win32,85.47008547,,,,,,,,,,,,,,,,414.639,415.933,415.933,417.4626,return,0.5656,,69.27083333,,,,,,FBP-RB-71.png,0.45,1.2,35,0.5,0,57,57,34,1,,,,,,,,,,,,,,,,,,,,,,,,,,,,,,,,,,,,,,,,
,,,,,SPR24_014,21,Nonbinary,2024-04-08_14h23.58.556,jersey_experiment_5_v0,2023.2.2,Win32,85.47008547,,,,,,,,,,,,,,,,417.4628,418.5095,418.5095,420.192,return,0.5926,,40.49479167,,,,,,FBP-PT-91.png,0.37,1.2,57,0.25,0,58,58,56,1,,,,,,,,,,,,,,,,,,,,,,,,,,,,,,,,,,,,,,,,
,,,,,SPR24_014,21,Nonbinary,2024-04-08_14h23.58.556,jersey_experiment_5_v0,2023.2.2,Win32,85.47008547,,,,,,,,,,,,,,,,420.1921,421.239,421.2391,422.5451,return,0.6867,,38.80208333,,,,,,FBP-PT-91.png,0.4,1.2,58,0.25,0,59,59,57,1,,,,,,,,,,,,,,,,,,,,,,,,,,,,,,,,,,,,,,,,
,,,,,SPR24_014,21,Nonbinary,2024-04-08_14h23.58.556,jersey_experiment_5_v0,2023.2.2,Win32,85.47008547,,,,,,,,,,,,,,,,,,,,,,,,,,,,,,,,,,,,,,,422.5455,542.538,,,,,,,,,,,,,,,,,,,,,,,,,,,,,,,,,,,,,,
,,,,,SPR24_014,21,Nonbinary,2024-04-08_14h23.58.556,jersey_experiment_5_v0,2023.2.2,Win32,85.47008547,,,,,,,,,,,,,,,,,,,,,,,,,,,,,,,,,,,,,,,,,542.5381,544.079,return,1.535,,,,,,,,,,,,,,,,,,,,,,,,,,,,,,,,,,
,,,,,SPR24_014,21,Nonbinary,2024-04-08_14h23.58.556,jersey_experiment_5_v0,2023.2.2,Win32,85.47008547,,,,,,,,,,,,,,,,544.0857,545.138,545.1381,547.8909,return,1.0374,,38.15104167,,,,,,FBP-OG-91.png,0.37,1.2,12,0.25,,,,,,,,,,,,,0,0,0,11,1,,,,,,,,,,,,,,,,,,,,,,,,,,,,
,,,,,SPR24_014,21,Nonbinary,2024-04-08_14h23.58.556,jersey_experiment_5_v0,2023.2.2,Win32,85.47008547,,,,,,,,,,,,,,,,547.8913,549.1851,549.1851,550.3499,return,0.2916,,21.09375,,,,,,FBP-PT-18.png,0.35,1.2,51,0.5,,,,,,,,,,,,,0,1,1,50,1,,,,,,,,,,,,,,,,,,,,,,,,,,,,
,,,,,SPR24_014,21,Nonbinary,2024-04-08_14h23.58.556,jersey_experiment_5_v0,2023.2.2,Win32,85.47008547,,,,,,,,,,,,,,,,550.35,551.3969,551.3969,552.9851,return,0.8476,,51.5625,,,,,,FBP-RB-18.png,0.43,1.2,39,0.25,,,,,,,,,,,,,0,2,2,38,1,,,,,,,,,,,,,,,,,,,,,,,,,,,,
,,,,,SPR24_014,21,Nonbinary,2024-04-08_14h23.58.556,jersey_experiment_5_v0,2023.2.2,Win32,85.47008547,,,,,,,,,,,,,,,,552.9854,554.2794,554.2794,554.8795,return,0.067,,67.96875,,,,,,FBP-PT-17.png,0.45,1.2,50,0.5,,,,,,,,,,,,,0,3,3,49,1,,,,,,,,,,,,,,,,,,,,,,,,,,,,
,,,,,SPR24_014,21,Nonbinary,2024-04-08_14h23.58.556,jersey_experiment_5_v0,2023.2.2,Win32,85.47008547,,,,,,,,,,,,,,,,554.8797,555.9263,555.9264,557.2795,return,0.4055,,76.04166667,,,,,,FBP-OG-81.png,0.45,1.2,10,0.25,,,,,,,,,,,,,0,4,4,9,1,,,,,,,,,,,,,,,,,,,,,,,,,,,,
,,,,,SPR24_014,21,Nonbinary,2024-04-08_14h23.58.556,jersey_experiment_5_v0,2023.2.2,Win32,85.47008547,,,,,,,,,,,,,,,,557.2797,558.3264,558.3264,559.3265,return,0.0068,,75.52083333,,,,,,FBP-RB-18.png,0.45,1.2,40,0.25,,,,,,,,,,,,,0,5,5,39,1,,,,,,,,,,,,,,,,,,,,,,,,,,,,
,,,,,SPR24_014,21,Nonbinary,2024-04-08_14h23.58.556,jersey_experiment_5_v0,2023.2.2,Win32,85.47008547,,,,,,,,,,,,,,,,559.3268,560.3736,560.3737,561.4442,return,0.0854,,40.10416667,,,,,,FBP-OG-81.png,0.37,1.2,7,0.25,,,,,,,,,,,,,0,6,6,6,1,,,,,,,,,,,,,,,,,,,,,,,,,,,,
,,,,,SPR24_014,21,Nonbinary,2024-04-08_14h23.58.556,jersey_experiment_5_v0,2023.2.2,Win32,85.47008547,,,,,,,,,,,,,,,,561.4445,562.4913,562.4913,563.1855,return,0.0646,,53.38541667,,,,,,FBP-OG-71.png,0.43,1.2,4,0.25,,,,,,,,,,,,,0,7,7,3,1,,,,,,,,,,,,,,,,,,,,,,,,,,,,
,,,,,SPR24_014,21,Nonbinary,2024-04-08_14h23.58.556,jersey_experiment_5_v0,2023.2.2,Win32,85.47008547,,,,,,,,,,,,,,,,563.1858,564.4798,564.48,565.0092,return,0.0061,,32.94270833,,,,,,FBP-PT-19.png,0.37,1.2,57,0.5,,,,,,,,,,,,,0,8,8,56,1,,,,,,,,,,,,,,,,,,,,,,,,,,,,
,,,,,SPR24_014,21,Nonbinary,2024-04-08_14h23.58.556,jersey_experiment_5_v0,2023.2.2,Win32,85.47008547,,,,,,,,,,,,,,,,565.0095,566.0565,566.0565,566.9505,return,0.0006,,28.77604167,,,,,,FBP-RB-19.png,0.35,1.2,41,0.25,,,,,,,,,,,,,0,9,9,40,1,,,,,,,,,,,,,,,,,,,,,,,,,,,,
,,,,,SPR24_014,21,Nonbinary,2024-04-08_14h23.58.556,jersey_experiment_5_v0,2023.2.2,Win32,85.47008547,,,,,,,,,,,,,,,,566.9508,568.2448,568.2448,569.0093,return,0.0058,,18.359375,,,,,,FBP-YG-17.png,0.35,1.2,16,0.5,,,,,,,,,,,,,0,10,10,15,1,,,,,,,,,,,,,,,,,,,,,,,,,,,,
,,,,,SPR24_014,21,Nonbinary,2024-04-08_14h23.58.556,jersey_experiment_5_v0,2023.2.2,Win32,85.47008547,,,,,,,,,,,,,,,,569.0095,570.0563,570.0565,571.433,return,0.5411,,17.1875,,,,,,FBP-RB-18.png,0.37,1.2,37,0.25,,,,,,,,,,,,,0,11,11,36,1,,,,,,,,,,,,,,,,,,,,,,,,,,,,
,,,,,SPR24_014,21,Nonbinary,2024-04-08_14h23.58.556,jersey_experiment_5_v0,2023.2.2,Win32,85.47008547,,,,,,,,,,,,,,,,571.4332,572.48,572.4801,573.2215,return,0.0119,,17.83854167,,,,,,FBP-OG-71.png,0.35,1.2,1,0.25,,,,,,,,,,,,,0,12,12,0,1,,,,,,,,,,,,,,,,,,,,,,,,,,,,
,,,,,SPR24_014,21,Nonbinary,2024-04-08_14h23.58.556,jersey_experiment_5_v0,2023.2.2,Win32,85.47008547,,,,,,,,,,,,,,,,573.2216,574.2683,574.2683,575.0449,return,0.0613,,38.93229167,,,,,,FBP-OG-71.png,0.4,1.2,3,0.25,,,,,,,,,,,,,0,13,13,2,1,,,,,,,,,,,,,,,,,,,,,,,,,,,,
,,,,,SPR24_014,21,Nonbinary,2024-04-08_14h23.58.556,jersey_experiment_5_v0,2023.2.2,Win32,85.47008547,,,,,,,,,,,,,,,,575.0451,576.0919,576.0919,576.998,return,0.0238,,30.59895833,,,,,,FBP-OG-81.png,0.35,1.2,6,0.25,,,,,,,,,,,,,0,14,14,5,1,,,,,,,,,,,,,,,,,,,,,,,,,,,,
,,,,,SPR24_014,21,Nonbinary,2024-04-08_14h23.58.556,jersey_experiment_5_v0,2023.2.2,Win32,85.47008547,,,,,,,,,,,,,,,,576.9981,578.0448,578.0449,579.1509,return,0.4314,,33.07291667,,,,,,FBP-RB-18.png,0.35,1.2,36,0.25,,,,,,,,,,,,,0,15,15,35,1,,,,,,,,,,,,,,,,,,,,,,,,,,,,
,,,,,SPR24_014,21,Nonbinary,2024-04-08_14h23.58.556,jersey_experiment_5_v0,2023.2.2,Win32,85.47008547,,,,,,,,,,,,,,,,579.1511,580.445,580.4451,581.7981,return,0.0244,,48.95833333,,,,,,FBP-PT-18.png,0.4,1.2,53,0.5,,,,,,,,,,,,,0,16,16,52,1,,,,,,,,,,,,,,,,,,,,,,,,,,,,
,,,,,SPR24_014,21,Nonbinary,2024-04-08_14h23.58.556,jersey_experiment_5_v0,2023.2.2,Win32,85.47008547,,,,,,,,,,,,,,,,581.7983,583.0922,583.0922,583.9275,return,0.0559,,50.390625,,,,,,FBP-YG-17.png,0.4,1.2,18,0.5,,,,,,,,,,,,,0,17,17,17,1,,,,,,,,,,,,,,,,,,,,,,,,,,,,
,,,,,SPR24_014,21,Nonbinary,2024-04-08_14h23.58.556,jersey_experiment_5_v0,2023.2.2,Win32,85.47008547,,,,,,,,,,,,,,,,583.9277,585.2216,585.2217,586.163,return,0.3807,,60.80729167,,,,,,FBP-PT-18.png,0.45,1.2,55,0.5,,,,,,,,,,,,,0,18,18,54,1,,,,,,,,,,,,,,,,,,,,,,,,,,,,
,,,,,SPR24_014,21,Nonbinary,2024-04-08_14h23.58.556,jersey_experiment_5_v0,2023.2.2,Win32,85.47008547,,,,,,,,,,,,,,,,586.1631,587.21,587.21,587.9394,return,0.0154,,69.140625,,,,,,FBP-OG-71.png,0.45,1.2,5,0.25,,,,,,,,,,,,,0,19,19,4,1,,,,,,,,,,,,,,,,,,,,,,,,,,,,
,,,,,SPR24_014,21,Nonbinary,2024-04-08_14h23.58.556,jersey_experiment_5_v0,2023.2.2,Win32,85.47008547,,,,,,,,,,,,,,,,587.9397,588.9864,588.9864,590.022,return,0.4338,,72.91666667,,,,,,FBP-OG-81.png,0.43,1.2,9,0.25,,,,,,,,,,,,,0,20,20,8,1,,,,,,,,,,,,,,,,,,,,,,,,,,,,
,,,,,SPR24_014,21,Nonbinary,2024-04-08_14h23.58.556,jersey_experiment_5_v0,2023.2.2,Win32,85.47008547,,,,,,,,,,,,,,,,590.0221,591.0689,591.0691,592.928,return,0.6406,,37.76041667,,,,,,FBP-OG-91.png,0.35,1.2,11,0.25,,,,,,,,,,,,,0,21,21,10,1,,,,,,,,,,,,,,,,,,,,,,,,,,,,
,,,,,SPR24_014,21,Nonbinary,2024-04-08_14h23.58.556,jersey_experiment_5_v0,2023.2.2,Win32,85.47008547,,,,,,,,,,,,,,,,592.9283,593.975,593.975,595.6809,return,0.028,,50.26041667,,,,,,FBP-OG-81.png,0.4,1.2,8,0.25,,,,,,,,,,,,,0,22,22,7,1,,,,,,,,,,,,,,,,,,,,,,,,,,,,
,,,,,SPR24_014,21,Nonbinary,2024-04-08_14h23.58.556,jersey_experiment_5_v0,2023.2.2,Win32,85.47008547,,,,,,,,,,,,,,,,595.6812,596.9751,596.9752,597.9281,return,0.0239,,40.49479167,,,,,,FBP-YG-18.png,0.37,1.2,22,0.5,,,,,,,,,,,,,0,23,23,21,1,,,,,,,,,,,,,,,,,,,,,,,,,,,,
,,,,,SPR24_014,21,Nonbinary,2024-04-08_14h23.58.556,jersey_experiment_5_v0,2023.2.2,Win32,85.47008547,,,,,,,,,,,,,,,,597.9282,599.2222,599.2223,600.3869,return,0.3924,,39.32291667,,,,,,FBP-PT-17.png,0.35,1.2,46,0.5,,,,,,,,,,,,,0,24,24,45,1,,,,,,,,,,,,,,,,,,,,,,,,,,,,
,,,,,SPR24_014,21,Nonbinary,2024-04-08_14h23.58.556,jersey_experiment_5_v0,2023.2.2,Win32,85.47008547,,,,,,,,,,,,,,,,600.3872,601.434,601.4341,602.7516,return,0.3466,,60.15625,,,,,,FBP-RB-17.png,0.45,1.2,35,0.25,,,,,,,,,,,,,0,25,25,34,1,,,,,,,,,,,,,,,,,,,,,,,,,,,,
,,,,,SPR24_014,21,Nonbinary,2024-04-08_14h23.58.556,jersey_experiment_5_v0,2023.2.2,Win32,85.47008547,,,,,,,,,,,,,,,,602.7519,604.0458,604.0458,605.14,return,0.1326,,61.84895833,,,,,,FBP-YG-18.png,0.45,1.2,25,0.5,,,,,,,,,,,,,0,26,26,24,1,,,,,,,,,,,,,,,,,,,,,,,,,,,,
,,,,,SPR24_014,21,Nonbinary,2024-04-08_14h23.58.556,jersey_experiment_5_v0,2023.2.2,Win32,85.47008547,,,,,,,,,,,,,,,,605.1402,606.4343,606.4344,608.4459,return,0.3952,,49.609375,,,,,,FBP-PT-19.png,0.4,1.2,58,0.5,,,,,,,,,,,,,0,27,27,57,1,,,,,,,,,,,,,,,,,,,,,,,,,,,,
,,,,,SPR24_014,21,Nonbinary,2024-04-08_14h23.58.556,jersey_experiment_5_v0,2023.2.2,Win32,85.47008547,,,,,,,,,,,,,,,,608.4462,609.7402,609.7403,610.4344,return,0.0726,,49.86979167,,,,,,FBP-YG-18.png,0.4,1.2,23,0.5,,,,,,,,,,,,,0,28,28,22,1,,,,,,,,,,,,,,,,,,,,,,,,,,,,
,,,,,SPR24_014,21,Nonbinary,2024-04-08_14h23.58.556,jersey_experiment_5_v0,2023.2.2,Win32,85.47008547,,,,,,,,,,,,,,,,610.4345,611.4813,611.4814,612.1167,return,0.0117,,49.86979167,,,,,,FBP-OG-91.png,0.4,1.2,13,0.25,,,,,,,,,,,,,0,29,29,12,1,,,,,,,,,,,,,,,,,,,,,,,,,,,,
,,,,,SPR24_014,21,Nonbinary,2024-04-08_14h23.58.556,jersey_experiment_5_v0,2023.2.2,Win32,85.47008547,,,,,,,,,,,,,,,,612.1169,613.1639,613.164,613.8933,return,0.0005,,44.01041667,,,,,,FBP-OG-71.png,0.37,1.2,2,0.25,,,,,,,,,,,,,0,30,30,1,1,,,,,,,,,,,,,,,,,,,,,,,,,,,,
,,,,,SPR24_014,21,Nonbinary,2024-04-08_14h23.58.556,jersey_experiment_5_v0,2023.2.2,Win32,85.47008547,,,,,,,,,,,,,,,,613.8936,614.9405,614.9405,616.1641,return,0.0123,,49.86979167,,,,,,FBP-OG-91.png,0.43,1.2,14,0.25,,,,,,,,,,,,,0,31,31,13,1,,,,,,,,,,,,,,,,,,,,,,,,,,,,
,,,,,SPR24_014,21,Nonbinary,2024-04-08_14h23.58.556,jersey_experiment_5_v0,2023.2.2,Win32,85.47008547,,,,,,,,,,,,,,,,616.1643,617.2111,617.2112,618.3759,return,0.3621,,62.76041667,,,,,,FBP-OG-91.png,0.45,1.2,15,0.25,,,,,,,,,,,,,0,32,32,14,1,,,,,,,,,,,,,,,,,,,,,,,,,,,,
,,,,,SPR24_014,21,Nonbinary,2024-04-08_14h23.58.556,jersey_experiment_5_v0,2023.2.2,Win32,85.47008547,,,,,,,,,,,,,,,,618.3762,619.67,619.67,620.3877,return,0.0474,,61.58854167,,,,,,FBP-PT-17.png,0.43,1.2,49,0.5,,,,,,,,,,,,,0,33,33,48,1,,,,,,,,,,,,,,,,,,,,,,,,,,,,
,,,,,SPR24_014,21,Nonbinary,2024-04-08_14h23.58.556,jersey_experiment_5_v0,2023.2.2,Win32,85.47008547,,,,,,,,,,,,,,,,620.388,621.6818,621.6819,622.8818,return,0.0173,,65.10416667,,,,,,FBP-YG-19.png,0.43,1.2,29,0.5,,,,,,,,,,,,,0,34,34,28,1,,,,,,,,,,,,,,,,,,,,,,,,,,,,
,,,,,SPR24_014,21,Nonbinary,2024-04-08_14h23.58.556,jersey_experiment_5_v0,2023.2.2,Win32,85.47008547,,,,,,,,,,,,,,,,622.8819,624.1761,624.1761,625.0583,return,0.0048,,66.40625,,,,,,FBP-PT-19.png,0.45,1.2,60,0.5,,,,,,,,,,,,,0,35,35,59,1,,,,,,,,,,,,,,,,,,,,,,,,,,,,
,,,,,SPR24_014,21,Nonbinary,2024-04-08_14h23.58.556,jersey_experiment_5_v0,2023.2.2,Win32,85.47008547,,,,,,,,,,,,,,,,625.0587,626.3527,626.3528,627.9881,return,0.0149,,46.484375,,,,,,FBP-PT-18.png,0.37,1.2,52,0.5,,,,,,,,,,,,,0,36,36,51,1,,,,,,,,,,,,,,,,,,,,,,,,,,,,
,,,,,SPR24_014,21,Nonbinary,2024-04-08_14h23.58.556,jersey_experiment_5_v0,2023.2.2,Win32,85.47008547,,,,,,,,,,,,,,,,627.9881,629.2824,629.2824,630.2115,return,0.0036,,42.96875,,,,,,FBP-YG-17.png,0.37,1.2,17,0.5,,,,,,,,,,,,,0,37,37,16,1,,,,,,,,,,,,,,,,,,,,,,,,,,,,
,,,,,SPR24_014,21,Nonbinary,2024-04-08_14h23.58.556,jersey_experiment_5_v0,2023.2.2,Win32,85.47008547,,,,,,,,,,,,,,,,630.2118,631.5056,631.5056,632.7528,return,0.1475,,40.49479167,,,,,,FBP-PT-17.png,0.4,1.2,48,0.5,,,,,,,,,,,,,0,38,38,47,1,,,,,,,,,,,,,,,,,,,,,,,,,,,,
,,,,,SPR24_014,21,Nonbinary,2024-04-08_14h23.58.556,jersey_experiment_5_v0,2023.2.2,Win32,85.47008547,,,,,,,,,,,,,,,,632.7531,633.8,633.8,635.1059,return,0.4052,,40.88541667,,,,,,FBP-RB-18.png,0.4,1.2,38,0.25,,,,,,,,,,,,,0,39,39,37,1,,,,,,,,,,,,,,,,,,,,,,,,,,,,
,,,,,SPR24_014,21,Nonbinary,2024-04-08_14h23.58.556,jersey_experiment_5_v0,2023.2.2,Win32,85.47008547,,,,,,,,,,,,,,,,635.106,636.4,636.4,637.4002,return,0.2029,,37.890625,,,,,,FBP-YG-18.png,0.35,1.2,21,0.5,,,,,,,,,,,,,0,40,40,20,1,,,,,,,,,,,,,,,,,,,,,,,,,,,,
,,,,,SPR24_014,21,Nonbinary,2024-04-08_14h23.58.556,jersey_experiment_5_v0,2023.2.2,Win32,85.47008547,,,,,,,,,,,,,,,,637.4004,638.6944,638.6945,639.6353,return,0.0391,,30.078125,,,,,,FBP-YG-19.png,0.37,1.2,27,0.5,,,,,,,,,,,,,0,41,41,26,1,,,,,,,,,,,,,,,,,,,,,,,,,,,,
,,,,,SPR24_014,21,Nonbinary,2024-04-08_14h23.58.556,jersey_experiment_5_v0,2023.2.2,Win32,85.47008547,,,,,,,,,,,,,,,,639.6357,640.6825,640.6825,641.9414,return,0.4143,,39.97395833,,,,,,FBP-RB-17.png,0.4,1.2,33,0.25,,,,,,,,,,,,,0,42,42,32,1,,,,,,,,,,,,,,,,,,,,,,,,,,,,
,,,,,SPR24_014,21,Nonbinary,2024-04-08_14h23.58.556,jersey_experiment_5_v0,2023.2.2,Win32,85.47008547,,,,,,,,,,,,,,,,641.9416,643.2356,643.2356,644.2238,return,0.0514,,50.13020833,,,,,,FBP-YG-17.png,0.43,1.2,19,0.5,,,,,,,,,,,,,0,43,43,18,1,,,,,,,,,,,,,,,,,,,,,,,,,,,,
,,,,,SPR24_014,21,Nonbinary,2024-04-08_14h23.58.556,jersey_experiment_5_v0,2023.2.2,Win32,85.47008547,,,,,,,,,,,,,,,,644.2241,645.5181,645.5181,646.1535,return,0.0854,,49.47916667,,,,,,FBP-YG-19.png,0.4,1.2,28,0.5,,,,,,,,,,,,,0,44,44,27,1,,,,,,,,,,,,,,,,,,,,,,,,,,,,
,,,,,SPR24_014,21,Nonbinary,2024-04-08_14h23.58.556,jersey_experiment_5_v0,2023.2.2,Win32,85.47008547,,,,,,,,,,,,,,,,646.1537,647.4476,647.4476,648.6594,return,0.4831,,57.29166667,,,,,,FBP-YG-19.png,0.45,1.2,30,0.5,,,,,,,,,,,,,0,45,45,29,1,,,,,,,,,,,,,,,,,,,,,,,,,,,,
,,,,,SPR24_014,21,Nonbinary,2024-04-08_14h23.58.556,jersey_experiment_5_v0,2023.2.2,Win32,85.47008547,,,,,,,,,,,,,,,,648.6597,649.9535,649.9536,650.742,return,0.0609,,41.015625,,,,,,FBP-PT-19.png,0.35,1.2,56,0.5,,,,,,,,,,,,,0,46,46,55,1,,,,,,,,,,,,,,,,,,,,,,,,,,,,
,,,,,SPR24_014,21,Nonbinary,2024-04-08_14h23.58.556,jersey_experiment_5_v0,2023.2.2,Win32,85.47008547,,,,,,,,,,,,,,,,650.7423,651.7888,651.7888,653.0596,return,0.1448,,51.04166667,,,,,,FBP-RB-17.png,0.43,1.2,34,0.25,,,,,,,,,,,,,0,47,47,33,1,,,,,,,,,,,,,,,,,,,,,,,,,,,,
,,,,,SPR24_014,21,Nonbinary,2024-04-08_14h23.58.556,jersey_experiment_5_v0,2023.2.2,Win32,85.47008547,,,,,,,,,,,,,,,,653.0597,654.1065,654.1066,655.0713,return,0.0196,,30.98958333,,,,,,FBP-RB-19.png,0.37,1.2,42,0.25,,,,,,,,,,,,,0,48,48,41,1,,,,,,,,,,,,,,,,,,,,,,,,,,,,
,,,,,SPR24_014,21,Nonbinary,2024-04-08_14h23.58.556,jersey_experiment_5_v0,2023.2.2,Win32,85.47008547,,,,,,,,,,,,,,,,655.0716,656.3655,656.3656,657.7304,return,0.402,,64.453125,,,,,,FBP-YG-18.png,0.43,1.2,24,0.5,,,,,,,,,,,,,0,49,49,23,1,,,,,,,,,,,,,,,,,,,,,,,,,,,,
,,,,,SPR24_014,21,Nonbinary,2024-04-08_14h23.58.556,jersey_experiment_5_v0,2023.2.2,Win32,85.47008547,,,,,,,,,,,,,,,,657.7306,659.0246,659.0247,660.1421,return,0.0654,,26.30208333,,,,,,FBP-YG-19.png,0.35,1.2,26,0.5,,,,,,,,,,,,,0,50,50,25,1,,,,,,,,,,,,,,,,,,,,,,,,,,,,
,,,,,SPR24_014,21,Nonbinary,2024-04-08_14h23.58.556,jersey_experiment_5_v0,2023.2.2,Win32,85.47008547,,,,,,,,,,,,,,,,660.1423,661.1893,661.1893,662.0835,return,0.0012,,25.26041667,,,,,,FBP-RB-17.png,0.35,1.2,31,0.25,,,,,,,,,,,,,0,51,51,30,1,,,,,,,,,,,,,,,,,,,,,,,,,,,,
,,,,,SPR24_014,21,Nonbinary,2024-04-08_14h23.58.556,jersey_experiment_5_v0,2023.2.2,Win32,85.47008547,,,,,,,,,,,,,,,,662.0837,663.1304,663.1304,664.7423,return,0.4004,,67.83854167,,,,,,FBP-RB-19.png,0.45,1.2,45,0.25,,,,,,,,,,,,,0,52,52,44,1,,,,,,,,,,,,,,,,,,,,,,,,,,,,
,,,,,SPR24_014,21,Nonbinary,2024-04-08_14h23.58.556,jersey_experiment_5_v0,2023.2.2,Win32,85.47008547,,,,,,,,,,,,,,,,664.7426,666.0365,666.0365,667.2482,return,0.5571,,78.77604167,,,,,,FBP-YG-17.png,0.45,1.2,20,0.5,,,,,,,,,,,,,0,53,53,19,1,,,,,,,,,,,,,,,,,,,,,,,,,,,,
,,,,,SPR24_014,21,Nonbinary,2024-04-08_14h23.58.556,jersey_experiment_5_v0,2023.2.2,Win32,85.47008547,,,,,,,,,,,,,,,,667.2484,668.5424,668.5424,670.2956,return,0.6733,,33.59375,,,,,,FBP-PT-17.png,0.37,1.2,47,0.5,,,,,,,,,,,,,0,54,54,46,1,,,,,,,,,,,,,,,,,,,,,,,,,,,,
,,,,,SPR24_014,21,Nonbinary,2024-04-08_14h23.58.556,jersey_experiment_5_v0,2023.2.2,Win32,85.47008547,,,,,,,,,,,,,,,,670.2958,671.3426,671.3426,672.8013,return,0.0524,,44.53125,,,,,,FBP-RB-19.png,0.4,1.2,43,0.25,,,,,,,,,,,,,0,55,55,42,1,,,,,,,,,,,,,,,,,,,,,,,,,,,,
,,,,,SPR24_014,21,Nonbinary,2024-04-08_14h23.58.556,jersey_experiment_5_v0,2023.2.2,Win32,85.47008547,,,,,,,,,,,,,,,,672.8016,673.8487,673.8488,675.2486,return,0.7355,,36.71875,,,,,,FBP-RB-17.png,0.37,1.2,32,0.25,,,,,,,,,,,,,0,56,56,31,1,,,,,,,,,,,,,,,,,,,,,,,,,,,,
,,,,,SPR24_014,21,Nonbinary,2024-04-08_14h23.58.556,jersey_experiment_5_v0,2023.2.2,Win32,85.47008547,,,,,,,,,,,,,,,,675.2488,676.2957,676.2958,677.4604,return,0.0493,,57.03125,,,,,,FBP-RB-19.png,0.43,1.2,44,0.25,,,,,,,,,,,,,0,57,57,43,1,,,,,,,,,,,,,,,,,,,,,,,,,,,,
,,,,,SPR24_014,21,Nonbinary,2024-04-08_14h23.58.556,jersey_experiment_5_v0,2023.2.2,Win32,85.47008547,,,,,,,,,,,,,,,,677.4606,678.7545,678.7545,680.4255,return,0.4239,,58.203125,,,,,,FBP-PT-19.png,0.43,1.2,59,0.5,,,,,,,,,,,,,0,58,58,58,1,,,,,,,,,,,,,,,,,,,,,,,,,,,,
,,,,,SPR24_014,21,Nonbinary,2024-04-08_14h23.58.556,jersey_experiment_5_v0,2023.2.2,Win32,85.47008547,,,,,,,,,,,,,,,,680.4256,681.7194,681.7194,682.3076,return,0.0506,,62.23958333,,,,,,FBP-PT-18.png,0.43,1.2,54,0.5,,,,,,,,,,,,,0,59,59,53,1,,,,,,,,,,,,,,,,,,,,,,,,,,,,
,,,,,SPR24_014,21,Nonbinary,2024-04-08_14h23.58.556,jersey_experiment_5_v0,2023.2.2,Win32,85.47008547,,,,,,,,,,,,,,,,682.3091,683.6018,683.6018,684.2605,return,0.0587,,61.97916667,,,,,,FBP-PT-81.png,0.43,1.2,54,0.5,,,,,,,,,,,,,,,,,,0,0,0,53,1,,,,,,,,,,,,,,,,,,,,,,,
,,,,,SPR24_014,21,Nonbinary,2024-04-08_14h23.58.556,jersey_experiment_5_v0,2023.2.2,Win32,85.47008547,,,,,,,,,,,,,,,,684.2608,685.5547,685.5548,686.9666,return,0.4337,,60.28645833,,,,,,FBP-PT-81.png,0.4,1.2,53,0.5,,,,,,,,,,,,,,,,,,0,1,1,52,1,,,,,,,,,,,,,,,,,,,,,,,
,,,,,SPR24_014,21,Nonbinary,2024-04-08_14h23.58.556,jersey_experiment_5_v0,2023.2.2,Win32,85.47008547,,,,,,,,,,,,,,,,686.9669,688.0138,688.0139,688.8021,return,0.0992,,60.15625,,,,,,FBP-RB-91.png,0.4,1.2,43,0.25,,,,,,,,,,,,,,,,,,0,2,2,42,1,,,,,,,,,,,,,,,,,,,,,,,
,,,,,SPR24_014,21,Nonbinary,2024-04-08_14h23.58.556,jersey_experiment_5_v0,2023.2.2,Win32,85.47008547,,,,,,,,,,,,,,,,688.8023,690.0962,690.0962,690.6492,return,0.156,,59.89583333,,,,,,FBP-YG-91.png,0.4,1.2,28,0.5,,,,,,,,,,,,,,,,,,0,3,3,27,1,,,,,,,,,,,,,,,,,,,,,,,
,,,,,SPR24_014,21,Nonbinary,2024-04-08_14h23.58.556,jersey_experiment_5_v0,2023.2.2,Win32,85.47008547,,,,,,,,,,,,,,,,690.6495,691.6961,691.6962,693.2376,return,0.0146,,50.13020833,,,,,,FBP-RB-81.png,0.37,1.2,37,0.25,,,,,,,,,,,,,,,,,,0,4,4,36,1,,,,,,,,,,,,,,,,,,,,,,,
,,,,,SPR24_014,21,Nonbinary,2024-04-08_14h23.58.556,jersey_experiment_5_v0,2023.2.2,Win32,85.47008547,,,,,,,,,,,,,,,,693.2379,694.2845,694.2845,695.5436,return,0.3671,,56.25,,,,,,FBP-RB-91.png,0.45,1.2,45,0.25,,,,,,,,,,,,,,,,,,0,5,5,44,1,,,,,,,,,,,,,,,,,,,,,,,
,,,,,SPR24_014,21,Nonbinary,2024-04-08_14h23.58.556,jersey_experiment_5_v0,2023.2.2,Win32,85.47008547,,,,,,,,,,,,,,,,695.5438,696.8375,696.8376,697.7905,return,0.0319,,49.86979167,,,,,,FBP-PT-91.png,0.37,1.2,57,0.5,,,,,,,,,,,,,,,,,,0,6,6,56,1,,,,,,,,,,,,,,,,,,,,,,,
,,,,,SPR24_014,21,Nonbinary,2024-04-08_14h23.58.556,jersey_experiment_5_v0,2023.2.2,Win32,85.47008547,,,,,,,,,,,,,,,,697.7909,698.8377,698.8377,700.2612,return,0.1046,,36.328125,,,,,,FBP-RB-91.png,0.35,1.2,41,0.25,,,,,,,,,,,,,,,,,,0,7,7,40,1,,,,,,,,,,,,,,,,,,,,,,,
,,,,,SPR24_014,21,Nonbinary,2024-04-08_14h23.58.556,jersey_experiment_5_v0,2023.2.2,Win32,85.47008547,,,,,,,,,,,,,,,,700.2615,701.3084,701.3084,703.4379,return,0.0186,,44.79166667,,,,,,FBP-OG-17.png,0.4,1.2,3,0.25,,,,,,,,,,,,,,,,,,0,8,8,2,1,,,,,,,,,,,,,,,,,,,,,,,
,,,,,SPR24_014,21,Nonbinary,2024-04-08_14h23.58.556,jersey_experiment_5_v0,2023.2.2,Win32,85.47008547,,,,,,,,,,,,,,,,703.4381,704.7319,704.732,706.1202,return,0.0943,,26.171875,,,,,,FBP-PT-91.png,0.35,1.2,56,0.5,,,,,,,,,,,,,,,,,,0,9,9,55,1,,,,,,,,,,,,,,,,,,,,,,,
,,,,,SPR24_014,21,Nonbinary,2024-04-08_14h23.58.556,jersey_experiment_5_v0,2023.2.2,Win32,85.47008547,,,,,,,,,,,,,,,,706.1205,707.4143,707.4144,708.4733,return,0.1177,,25.52083333,,,,,,FBP-PT-81.png,0.35,1.2,51,0.5,,,,,,,,,,,,,,,,,,0,10,10,50,1,,,,,,,,,,,,,,,,,,,,,,,
,,,,,SPR24_014,21,Nonbinary,2024-04-08_14h23.58.556,jersey_experiment_5_v0,2023.2.2,Win32,85.47008547,,,,,,,,,,,,,,,,708.4736,709.7673,709.7674,710.4147,return,0.1005,,25.390625,,,,,,FBP-PT-81.png,0.37,1.2,52,0.5,,,,,,,,,,,,,,,,,,0,11,11,51,1,,,,,,,,,,,,,,,,,,,,,,,
,,,,,SPR24_014,21,Nonbinary,2024-04-08_14h23.58.556,jersey_experiment_5_v0,2023.2.2,Win32,85.47008547,,,,,,,,,,,,,,,,710.4149,711.7088,711.7088,712.5324,return,0.1647,,27.60416667,,,,,,FBP-YG-81.png,0.35,1.2,21,0.5,,,,,,,,,,,,,,,,,,0,12,12,20,1,,,,,,,,,,,,,,,,,,,,,,,
,,,,,SPR24_014,21,Nonbinary,2024-04-08_14h23.58.556,jersey_experiment_5_v0,2023.2.2,Win32,85.47008547,,,,,,,,,,,,,,,,712.5327,713.8265,713.8266,715.7205,return,0.0565,,63.671875,,,,,,FBP-PT-71.png,0.45,1.2,50,0.5,,,,,,,,,,,,,,,,,,0,13,13,49,1,,,,,,,,,,,,,,,,,,,,,,,
,,,,,SPR24_014,21,Nonbinary,2024-04-08_14h23.58.556,jersey_experiment_5_v0,2023.2.2,Win32,85.47008547,,,,,,,,,,,,,,,,715.7206,717.015,717.0151,717.9914,return,0.071,,42.1875,,,,,,FBP-YG-81.png,0.37,1.2,22,0.5,,,,,,,,,,,,,,,,,,0,14,14,21,1,,,,,,,,,,,,,,,,,,,,,,,
,,,,,SPR24_014,21,Nonbinary,2024-04-08_14h23.58.556,jersey_experiment_5_v0,2023.2.2,Win32,85.47008547,,,,,,,,,,,,,,,,717.9917,719.0384,719.0384,721.0622,return,0.7071,,43.359375,,,,,,FBP-OG-17.png,0.37,1.2,2,0.25,,,,,,,,,,,,,,,,,,0,15,15,1,1,,,,,,,,,,,,,,,,,,,,,,,
,,,,,SPR24_014,21,Nonbinary,2024-04-08_14h23.58.556,jersey_experiment_5_v0,2023.2.2,Win32,85.47008547,,,,,,,,,,,,,,,,721.0624,722.1092,722.1093,723.38,return,0.1185,,36.06770833,,,,,,FBP-OG-19.png,0.35,1.2,11,0.25,,,,,,,,,,,,,,,,,,0,16,16,10,1,,,,,,,,,,,,,,,,,,,,,,,
,,,,,SPR24_014,21,Nonbinary,2024-04-08_14h23.58.556,jersey_experiment_5_v0,2023.2.2,Win32,85.47008547,,,,,,,,,,,,,,,,723.3802,724.4268,724.4268,725.5211,return,0.0045,,32.29166667,,,,,,FBP-OG-19.png,0.37,1.2,12,0.25,,,,,,,,,,,,,,,,,,0,17,17,11,1,,,,,,,,,,,,,,,,,,,,,,,
,,,,,SPR24_014,21,Nonbinary,2024-04-08_14h23.58.556,jersey_experiment_5_v0,2023.2.2,Win32,85.47008547,,,,,,,,,,,,,,,,725.5212,726.5682,726.5682,727.2388,return,0.0846,,32.68229167,,,,,,FBP-OG-18.png,0.37,1.2,7,0.25,,,,,,,,,,,,,,,,,,0,18,18,6,1,,,,,,,,,,,,,,,,,,,,,,,
,,,,,SPR24_014,21,Nonbinary,2024-04-08_14h23.58.556,jersey_experiment_5_v0,2023.2.2,Win32,85.47008547,,,,,,,,,,,,,,,,727.239,728.2858,728.2859,729.1918,return,0.037,,61.45833333,,,,,,FBP-RB-81.png,0.45,1.2,40,0.25,,,,,,,,,,,,,,,,,,0,19,19,39,1,,,,,,,,,,,,,,,,,,,,,,,
,,,,,SPR24_014,21,Nonbinary,2024-04-08_14h23.58.556,jersey_experiment_5_v0,2023.2.2,Win32,85.47008547,,,,,,,,,,,,,,,,729.1921,730.2388,730.2388,731.1566,return,0.0261,,59.24479167,,,,,,FBP-OG-19.png,0.43,1.2,14,0.25,,,,,,,,,,,,,,,,,,0,20,20,13,1,,,,,,,,,,,,,,,,,,,,,,,
,,,,,SPR24_014,21,Nonbinary,2024-04-08_14h23.58.556,jersey_experiment_5_v0,2023.2.2,Win32,85.47008547,,,,,,,,,,,,,,,,731.1568,732.4506,732.4507,732.9801,return,0.0009,,57.94270833,,,,,,FBP-YG-91.png,0.43,1.2,29,0.5,,,,,,,,,,,,,,,,,,0,21,21,28,1,,,,,,,,,,,,,,,,,,,,,,,
,,,,,SPR24_014,21,Nonbinary,2024-04-08_14h23.58.556,jersey_experiment_5_v0,2023.2.2,Win32,85.47008547,,,,,,,,,,,,,,,,732.9803,734.0273,734.0273,735.3687,return,0.5413,,43.61979167,,,,,,FBP-OG-17.png,0.35,1.2,1,0.25,,,,,,,,,,,,,,,,,,0,22,22,0,1,,,,,,,,,,,,,,,,,,,,,,,
,,,,,SPR24_014,21,Nonbinary,2024-04-08_14h23.58.556,jersey_experiment_5_v0,2023.2.2,Win32,85.47008547,,,,,,,,,,,,,,,,735.3688,736.4155,736.4155,737.5214,return,0.4413,,50,,,,,,FBP-RB-91.png,0.43,1.2,44,0.25,,,,,,,,,,,,,,,,,,0,23,23,43,1,,,,,,,,,,,,,,,,,,,,,,,
,,,,,SPR24_014,21,Nonbinary,2024-04-08_14h23.58.556,jersey_experiment_5_v0,2023.2.2,Win32,85.47008547,,,,,,,,,,,,,,,,737.5216,738.8157,738.8157,739.2863,return,0.0378,,50.26041667,,,,,,FBP-YG-71.png,0.43,1.2,19,0.5,,,,,,,,,,,,,,,,,,0,24,24,18,1,,,,,,,,,,,,,,,,,,,,,,,
,,,,,SPR24_014,21,Nonbinary,2024-04-08_14h23.58.556,jersey_experiment_5_v0,2023.2.2,Win32,85.47008547,,,,,,,,,,,,,,,,739.2865,740.3334,740.3334,740.8157,return,0.0429,,50.26041667,,,,,,FBP-RB-71.png,0.37,1.2,32,0.25,,,,,,,,,,,,,,,,,,0,25,25,31,1,,,,,,,,,,,,,,,,,,,,,,,
,,,,,SPR24_014,21,Nonbinary,2024-04-08_14h23.58.556,jersey_experiment_5_v0,2023.2.2,Win32,85.47008547,,,,,,,,,,,,,,,,740.8159,742.1099,742.1099,742.4864,return,0.0003,,50.26041667,,,,,,FBP-PT-71.png,0.4,1.2,48,0.5,,,,,,,,,,,,,,,,,,0,26,26,47,1,,,,,,,,,,,,,,,,,,,,,,,
,,,,,SPR24_014,21,Nonbinary,2024-04-08_14h23.58.556,jersey_experiment_5_v0,2023.2.2,Win32,85.47008547,,,,,,,,,,,,,,,,742.4866,743.5335,743.5335,744.5688,return,0.0091,,58.07291667,,,,,,FBP-OG-17.png,0.43,1.2,4,0.25,,,,,,,,,,,,,,,,,,0,27,27,3,1,,,,,,,,,,,,,,,,,,,,,,,
,,,,,SPR24_014,21,Nonbinary,2024-04-08_14h23.58.556,jersey_experiment_5_v0,2023.2.2,Win32,85.47008547,,,,,,,,,,,,,,,,744.569,745.8629,745.8629,746.5336,return,0.1314,,51.04166667,,,,,,FBP-PT-91.png,0.4,1.2,58,0.5,,,,,,,,,,,,,,,,,,0,28,28,57,1,,,,,,,,,,,,,,,,,,,,,,,
,,,,,SPR24_014,21,Nonbinary,2024-04-08_14h23.58.556,jersey_experiment_5_v0,2023.2.2,Win32,85.47008547,,,,,,,,,,,,,,,,746.5339,747.5806,747.5806,748.1925,return,0.0299,,50.390625,,,,,,FBP-RB-71.png,0.43,1.2,34,0.25,,,,,,,,,,,,,,,,,,0,29,29,33,1,,,,,,,,,,,,,,,,,,,,,,,
,,,,,SPR24_014,21,Nonbinary,2024-04-08_14h23.58.556,jersey_experiment_5_v0,2023.2.2,Win32,85.47008547,,,,,,,,,,,,,,,,748.1927,749.2397,749.2397,750.4397,return,0.0617,,60.9375,,,,,,FBP-OG-17.png,0.45,1.2,5,0.25,,,,,,,,,,,,,,,,,,0,30,30,4,1,,,,,,,,,,,,,,,,,,,,,,,
,,,,,SPR24_014,21,Nonbinary,2024-04-08_14h23.58.556,jersey_experiment_5_v0,2023.2.2,Win32,85.47008547,,,,,,,,,,,,,,,,750.4399,751.4869,751.4869,752.969,return,0.0335,,67.83854167,,,,,,FBP-RB-71.png,0.45,1.2,35,0.25,,,,,,,,,,,,,,,,,,0,31,31,34,1,,,,,,,,,,,,,,,,,,,,,,,
,,,,,SPR24_014,21,Nonbinary,2024-04-08_14h23.58.556,jersey_experiment_5_v0,2023.2.2,Win32,85.47008547,,,,,,,,,,,,,,,,752.9692,754.2631,754.2632,755.687,return,0.038,,50,,,,,,FBP-YG-81.png,0.4,1.2,23,0.5,,,,,,,,,,,,,,,,,,0,32,32,22,1,,,,,,,,,,,,,,,,,,,,,,,
,,,,,SPR24_014,21,Nonbinary,2024-04-08_14h23.58.556,jersey_experiment_5_v0,2023.2.2,Win32,85.47008547,,,,,,,,,,,,,,,,755.6872,756.734,756.7341,757.3457,return,0.0522,,50,,,,,,FBP-OG-19.png,0.4,1.2,13,0.25,,,,,,,,,,,,,,,,,,0,33,33,12,1,,,,,,,,,,,,,,,,,,,,,,,
,,,,,SPR24_014,21,Nonbinary,2024-04-08_14h23.58.556,jersey_experiment_5_v0,2023.2.2,Win32,85.47008547,,,,,,,,,,,,,,,,757.3459,758.6399,758.6399,759.5575,return,0.0721,,60.9375,,,,,,FBP-YG-71.png,0.45,1.2,20,0.5,,,,,,,,,,,,,,,,,,0,34,34,19,1,,,,,,,,,,,,,,,,,,,,,,,
,,,,,SPR24_014,21,Nonbinary,2024-04-08_14h23.58.556,jersey_experiment_5_v0,2023.2.2,Win32,85.47008547,,,,,,,,,,,,,,,,759.5578,760.8518,760.8519,761.4166,return,0.0003,,64.84375,,,,,,FBP-PT-91.png,0.43,1.2,59,0.5,,,,,,,,,,,,,,,,,,0,35,35,58,1,,,,,,,,,,,,,,,,,,,,,,,
,,,,,SPR24_014,21,Nonbinary,2024-04-08_14h23.58.556,jersey_experiment_5_v0,2023.2.2,Win32,85.47008547,,,,,,,,,,,,,,,,761.4167,762.7106,762.7107,763.6519,return,0.074,,39.19270833,,,,,,FBP-YG-91.png,0.35,1.2,26,0.5,,,,,,,,,,,,,,,,,,0,36,36,25,1,,,,,,,,,,,,,,,,,,,,,,,
,,,,,SPR24_014,21,Nonbinary,2024-04-08_14h23.58.556,jersey_experiment_5_v0,2023.2.2,Win32,85.47008547,,,,,,,,,,,,,,,,763.6521,764.9463,764.9463,765.8402,return,0.0309,,66.66666667,,,,,,FBP-PT-81.png,0.45,1.2,55,0.5,,,,,,,,,,,,,,,,,,0,37,37,54,1,,,,,,,,,,,,,,,,,,,,,,,
,,,,,SPR24_014,21,Nonbinary,2024-04-08_14h23.58.556,jersey_experiment_5_v0,2023.2.2,Win32,85.47008547,,,,,,,,,,,,,,,,765.8404,766.8873,766.8873,767.8286,return,0.0477,,69.01041667,,,,,,FBP-OG-19.png,0.45,1.2,15,0.25,,,,,,,,,,,,,,,,,,0,38,38,14,1,,,,,,,,,,,,,,,,,,,,,,,
,,,,,SPR24_014,21,Nonbinary,2024-04-08_14h23.58.556,jersey_experiment_5_v0,2023.2.2,Win32,85.47008547,,,,,,,,,,,,,,,,767.8288,769.1226,769.1227,769.7817,return,0.085,,70.3125,,,,,,FBP-YG-91.png,0.45,1.2,30,0.5,,,,,,,,,,,,,,,,,,0,39,39,29,1,,,,,,,,,,,,,,,,,,,,,,,
,,,,,SPR24_014,21,Nonbinary,2024-04-08_14h23.58.556,jersey_experiment_5_v0,2023.2.2,Win32,85.47008547,,,,,,,,,,,,,,,,769.782,771.0758,771.0758,771.6522,return,0.0355,,69.79166667,,,,,,FBP-YG-81.png,0.45,1.2,25,0.5,,,,,,,,,,,,,,,,,,0,40,40,24,1,,,,,,,,,,,,,,,,,,,,,,,
,,,,,SPR24_014,21,Nonbinary,2024-04-08_14h23.58.556,jersey_experiment_5_v0,2023.2.2,Win32,85.47008547,,,,,,,,,,,,,,,,771.6524,772.9465,772.9465,773.8405,return,0.0774,,43.75,,,,,,FBP-PT-71.png,0.37,1.2,47,0.5,,,,,,,,,,,,,,,,,,0,41,41,46,1,,,,,,,,,,,,,,,,,,,,,,,
,,,,,SPR24_014,21,Nonbinary,2024-04-08_14h23.58.556,jersey_experiment_5_v0,2023.2.2,Win32,85.47008547,,,,,,,,,,,,,,,,773.8407,775.1346,775.1346,775.8406,return,0.0536,,40.10416667,,,,,,FBP-YG-91.png,0.37,1.2,27,0.5,,,,,,,,,,,,,,,,,,0,42,42,26,1,,,,,,,,,,,,,,,,,,,,,,,
,,,,,SPR24_014,21,Nonbinary,2024-04-08_14h23.58.556,jersey_experiment_5_v0,2023.2.2,Win32,85.47008547,,,,,,,,,,,,,,,,775.8408,776.8877,776.8878,778.0054,return,0.0104,,49.73958333,,,,,,FBP-RB-81.png,0.43,1.2,39,0.25,,,,,,,,,,,,,,,,,,0,43,43,38,1,,,,,,,,,,,,,,,,,,,,,,,
,,,,,SPR24_014,21,Nonbinary,2024-04-08_14h23.58.556,jersey_experiment_5_v0,2023.2.2,Win32,85.47008547,,,,,,,,,,,,,,,,778.0056,779.0524,779.0525,779.4642,return,0.0003,,49.86979167,,,,,,FBP-OG-18.png,0.43,1.2,9,0.25,,,,,,,,,,,,,,,,,,0,44,44,8,1,,,,,,,,,,,,,,,,,,,,,,,
,,,,,SPR24_014,21,Nonbinary,2024-04-08_14h23.58.556,jersey_experiment_5_v0,2023.2.2,Win32,85.47008547,,,,,,,,,,,,,,,,779.4644,780.7582,780.7583,781.6055,return,0.0342,,60.546875,,,,,,FBP-PT-91.png,0.45,1.2,60,0.5,,,,,,,,,,,,,,,,,,0,45,45,59,1,,,,,,,,,,,,,,,,,,,,,,,
,,,,,SPR24_014,21,Nonbinary,2024-04-08_14h23.58.556,jersey_experiment_5_v0,2023.2.2,Win32,85.47008547,,,,,,,,,,,,,,,,781.6058,782.6525,782.6526,783.1938,return,0.1321,,60.67708333,,,,,,FBP-OG-18.png,0.45,1.2,10,0.25,,,,,,,,,,,,,,,,,,0,46,46,9,1,,,,,,,,,,,,,,,,,,,,,,,
,,,,,SPR24_014,21,Nonbinary,2024-04-08_14h23.58.556,jersey_experiment_5_v0,2023.2.2,Win32,85.47008547,,,,,,,,,,,,,,,,783.1942,784.4882,784.4882,785.3822,return,0.1413,,64.58333333,,,,,,FBP-PT-71.png,0.43,1.2,49,0.5,,,,,,,,,,,,,,,,,,0,47,47,48,1,,,,,,,,,,,,,,,,,,,,,,,
,,,,,SPR24_014,21,Nonbinary,2024-04-08_14h23.58.556,jersey_experiment_5_v0,2023.2.2,Win32,85.47008547,,,,,,,,,,,,,,,,785.3825,786.4292,786.4292,787.3354,return,0.0376,,45.05208333,,,,,,FBP-RB-91.png,0.37,1.2,42,0.25,,,,,,,,,,,,,,,,,,0,48,48,41,1,,,,,,,,,,,,,,,,,,,,,,,
,,,,,SPR24_014,21,Nonbinary,2024-04-08_14h23.58.556,jersey_experiment_5_v0,2023.2.2,Win32,85.47008547,,,,,,,,,,,,,,,,787.3357,788.6292,788.6293,789.5353,return,0.0316,,32.55208333,,,,,,FBP-YG-71.png,0.35,1.2,16,0.5,,,,,,,,,,,,,,,,,,0,49,49,15,1,,,,,,,,,,,,,,,,,,,,,,,
,,,,,SPR24_014,21,Nonbinary,2024-04-08_14h23.58.556,jersey_experiment_5_v0,2023.2.2,Win32,85.47008547,,,,,,,,,,,,,,,,789.5356,790.5824,790.5824,791.9707,return,0.0252,,41.796875,,,,,,FBP-RB-71.png,0.4,1.2,33,0.25,,,,,,,,,,,,,,,,,,0,50,50,32,1,,,,,,,,,,,,,,,,,,,,,,,
,,,,,SPR24_014,21,Nonbinary,2024-04-08_14h23.58.556,jersey_experiment_5_v0,2023.2.2,Win32,85.47008547,,,,,,,,,,,,,,,,791.9709,793.0177,793.0177,794.159,return,0.0054,,29.6875,,,,,,FBP-RB-71.png,0.35,1.2,31,0.25,,,,,,,,,,,,,,,,,,0,51,51,30,1,,,,,,,,,,,,,,,,,,,,,,,
,,,,,SPR24_014,21,Nonbinary,2024-04-08_14h23.58.556,jersey_experiment_5_v0,2023.2.2,Win32,85.47008547,,,,,,,,,,,,,,,,794.1591,795.206,795.206,796.7591,return,0.5037,,25.78125,,,,,,FBP-OG-18.png,0.35,1.2,6,0.25,,,,,,,,,,,,,,,,,,0,52,52,5,1,,,,,,,,,,,,,,,,,,,,,,,
,,,,,SPR24_014,21,Nonbinary,2024-04-08_14h23.58.556,jersey_experiment_5_v0,2023.2.2,Win32,85.47008547,,,,,,,,,,,,,,,,796.7593,798.0532,798.0533,799.2651,return,0.3947,,26.171875,,,,,,FBP-PT-71.png,0.35,1.2,46,0.5,,,,,,,,,,,,,,,,,,0,53,53,45,1,,,,,,,,,,,,,,,,,,,,,,,
,,,,,SPR24_014,21,Nonbinary,2024-04-08_14h23.58.556,jersey_experiment_5_v0,2023.2.2,Win32,85.47008547,,,,,,,,,,,,,,,,799.2653,800.5594,800.5594,802.5122,return,0.0427,,49.609375,,,,,,FBP-YG-81.png,0.43,1.2,24,0.5,,,,,,,,,,,,,,,,,,0,54,54,23,1,,,,,,,,,,,,,,,,,,,,,,,
,,,,,SPR24_014,21,Nonbinary,2024-04-08_14h23.58.556,jersey_experiment_5_v0,2023.2.2,Win32,85.47008547,,,,,,,,,,,,,,,,802.5124,803.8064,803.8064,804.4652,return,0.0175,,43.359375,,,,,,FBP-YG-71.png,0.37,1.2,17,0.5,,,,,,,,,,,,,,,,,,0,55,55,16,1,,,,,,,,,,,,,,,,,,,,,,,
,,,,,SPR24_014,21,Nonbinary,2024-04-08_14h23.58.556,jersey_experiment_5_v0,2023.2.2,Win32,85.47008547,,,,,,,,,,,,,,,,804.4654,805.5122,805.5122,806.9125,return,0.0419,,29.55729167,,,,,,FBP-RB-81.png,0.35,1.2,36,0.25,,,,,,,,,,,,,,,,,,0,56,56,35,1,,,,,,,,,,,,,,,,,,,,,,,
,,,,,SPR24_014,21,Nonbinary,2024-04-08_14h23.58.556,jersey_experiment_5_v0,2023.2.2,Win32,85.47008547,,,,,,,,,,,,,,,,806.9128,807.9595,807.9595,809.0065,return,0.0441,,40.88541667,,,,,,FBP-RB-81.png,0.4,1.2,38,0.25,,,,,,,,,,,,,,,,,,0,57,57,37,1,,,,,,,,,,,,,,,,,,,,,,,
,,,,,SPR24_014,21,Nonbinary,2024-04-08_14h23.58.556,jersey_experiment_5_v0,2023.2.2,Win32,85.47008547,,,,,,,,,,,,,,,,809.0068,810.0535,810.0536,810.736,return,0.0163,,41.53645833,,,,,,FBP-OG-18.png,0.4,1.2,8,0.25,,,,,,,,,,,,,,,,,,0,58,58,7,1,,,,,,,,,,,,,,,,,,,,,,,
,,,,,SPR24_014,21,Nonbinary,2024-04-08_14h23.58.556,jersey_experiment_5_v0,2023.2.2,Win32,85.47008547,,,,,,,,,,,,,,,,810.7361,812.03,812.0301,813.9831,return,1.4904,,49.73958333,,,,,,FBP-YG-71.png,0.4,1.2,18,0.5,,,,,,,,,,,,,,,,,,0,59,59,17,1,,,,,,,,,,,,,,,,,,,,,,,
,,,,,SPR24_014,21,Nonbinary,2024-04-08_14h23.58.556,jersey_experiment_5_v0,2023.2.2,Win32,85.47008547,,,,,,,,,,,,,,,,,,,,,,,,,,,,,,,,,,,,,,,,,,,,,,,,,,,,,,,,813.9836,816.5365,return,2.5414,,,,,,,,,,,,,,,,,,,
,,,,,SPR24_014,21,Nonbinary,2024-04-08_14h23.58.556,jersey_experiment_5_v0,2023.2.2,Win32,85.47008547,,,,,,,,,,,,,,,,,,,,,,,,,,,,,,,,,,,,,,,,,,,,,,,,,,,,,,,,,,,,,816.5366,818.9953,1,1.6399,return,0.8038,,,,,,,,,,,,
,,,,,SPR24_014,21,Nonbinary,2024-04-08_14h23.58.556,jersey_experiment_5_v0,2023.2.2,Win32,85.47008547,,,,,,,,,,,,,,,,,,,,,,,,,,,,,,,,,,,,,,,,,,,,,,,,,,,,,,,,,,,,,,,,,,,,818.9954,859.6608,"Sometimes the same numbers and shirt colors and sizes would be shown, just with different skin tone players.",right,29.6097,,,,,,
,,,,,SPR24_014,21,Nonbinary,2024-04-08_14h23.58.556,jersey_experiment_5_v0,2023.2.2,Win32,85.47008547,,,,,,,,,,,,,,,,,,,,,,,,,,,,,,,,,,,,,,,,,,,,,,,,,,,,,,,,,,,,,,,,,,,,,,,,,,859.6608,862.6557,return,2.9894,