requirements.started,requirements.stopped,key_resp_3.keys,key_resp_3.rt,key_resp_3.duration,Subject ID,Age,Gender,date,expName,psychopyVersion,OS,frameRate,instructions1.started,instructions1.stopped,key_resp.keys,key_resp.rt,key_resp.duration,example.started,example.stopped,enter_2.keys,enter_2.rt,enter_2.duration,instructions2.started,instructions2.stopped,enter_3.keys,enter_3.rt,enter_3.duration,image.started,image.stopped,slider_2.started,slider_2.stopped,next.keys,next.rt,next.duration,slider.response,trial_block_1.thisRepN,trial_block_1.thisTrialN,trial_block_1.thisN,trial_block_1.thisIndex,trial_block_1.ran,Path,Width,Height,Index,Duration,trial_block_2.thisRepN,trial_block_2.thisTrialN,trial_block_2.thisN,trial_block_2.thisIndex,trial_block_2.ran,rest_break.started,rest_break.stopped,end_break.started,end_break.stopped,key_resp_5.keys,key_resp_5.rt,key_resp_5.duration,trial_block_3.thisRepN,trial_block_3.thisTrialN,trial_block_3.thisN,trial_block_3.thisIndex,trial_block_3.ran,trial_block_4.thisRepN,trial_block_4.thisTrialN,trial_block_4.thisN,trial_block_4.thisIndex,trial_block_4.ran,questions_intro.started,questions_intro.stopped,enter_12.keys,enter_12.rt,enter_12.duration,question2.started,question2.stopped,question_doingbest.response,question_doingbest.rt,enter_15.keys,enter_15.rt,enter_15.duration,pattern.started,pattern.stopped,pattern_2.text,enter_17.keys,enter_17.rt,enter_17.duration,thankyou.started,thankyou.stopped,enter_14.keys,enter_14.rt,enter_14.duration
0.0001,9.4333,return,9.4245,,SPR24_002,18,female,2024-04-03_10h41.35.964,jersey_experiment_5_v0,2023.2.2,Win32,84.74576271,,,,,,,,,,,,,,,,,,,,,,,,,,,,,,,,,,,,,,,,,,,,,,,,,,,,,,,,,,,,,,,,,,,,,,,,,,,,,,
,,,,,SPR24_002,18,female,2024-04-03_10h41.35.964,jersey_experiment_5_v0,2023.2.2,Win32,84.74576271,9.4335,22.1442,return,12.6957,,,,,,,,,,,,,,,,,,,,,,,,,,,,,,,,,,,,,,,,,,,,,,,,,,,,,,,,,,,,,,,,,,,,,,,,,,
,,,,,SPR24_002,18,female,2024-04-03_10h41.35.964,jersey_experiment_5_v0,2023.2.2,Win32,84.74576271,,,,,,22.1443,27.7988,return,5.6253,,,,,,,,,,,,,,,,,,,,,,,,,,,,,,,,,,,,,,,,,,,,,,,,,,,,,,,,,,,,,,,,,,,,,
,,,,,SPR24_002,18,female,2024-04-03_10h41.35.964,jersey_experiment_5_v0,2023.2.2,Win32,84.74576271,,,,,,,,,,,27.799,50.7053,return,22.8926,,,,,,,,,,,,,,,,,,,,,,,,,,,,,,,,,,,,,,,,,,,,,,,,,,,,,,,,,,,,,,,,
,,,,,SPR24_002,18,female,2024-04-03_10h41.35.964,jersey_experiment_5_v0,2023.2.2,Win32,84.74576271,,,,,,,,,,,,,,,,50.7116,52.0111,52.0111,67.6469,return,0.8811,,68.359375,0,0,0,37,1,FBP-RB-18.png,0.4,1.2,38,0.5,,,,,,,,,,,,,,,,,,,,,,,,,,,,,,,,,,,,,,,,,,,,,
,,,,,SPR24_002,18,female,2024-04-03_10h41.35.964,jersey_experiment_5_v0,2023.2.2,Win32,84.74576271,,,,,,,,,,,,,,,,67.6473,68.9409,68.9409,73.1764,return,0.7922,,61.328125,0,1,1,42,1,FBP-RB-19.png,0.4,1.2,43,0.5,,,,,,,,,,,,,,,,,,,,,,,,,,,,,,,,,,,,,,,,,,,,,
,,,,,SPR24_002,18,female,2024-04-03_10h41.35.964,jersey_experiment_5_v0,2023.2.2,Win32,84.74576271,,,,,,,,,,,,,,,,73.1766,74.4705,74.4705,78.1413,return,0.2444,,37.36979167,0,2,2,11,1,FBP-OG-91.png,0.37,1.2,12,0.5,,,,,,,,,,,,,,,,,,,,,,,,,,,,,,,,,,,,,,,,,,,,,
,,,,,SPR24_002,18,female,2024-04-03_10h41.35.964,jersey_experiment_5_v0,2023.2.2,Win32,84.74576271,,,,,,,,,,,,,,,,78.1416,79.1885,79.1885,82.1061,return,0.3784,,94.66145833,0,3,3,49,1,FBP-PT-17.png,0.45,1.2,50,0.25,,,,,,,,,,,,,,,,,,,,,,,,,,,,,,,,,,,,,,,,,,,,,
,,,,,SPR24_002,18,female,2024-04-03_10h41.35.964,jersey_experiment_5_v0,2023.2.2,Win32,84.74576271,,,,,,,,,,,,,,,,82.1063,83.4004,83.4005,87.0241,return,0.2493,,74.73958333,0,4,4,12,1,FBP-OG-91.png,0.4,1.2,13,0.5,,,,,,,,,,,,,,,,,,,,,,,,,,,,,,,,,,,,,,,,,,,,,
,,,,,SPR24_002,18,female,2024-04-03_10h41.35.964,jersey_experiment_5_v0,2023.2.2,Win32,84.74576271,,,,,,,,,,,,,,,,87.0243,88.3182,88.3182,93.2125,return,0.3067,,49.86979167,0,5,5,5,1,FBP-OG-81.png,0.35,1.2,6,0.5,,,,,,,,,,,,,,,,,,,,,,,,,,,,,,,,,,,,,,,,,,,,,
,,,,,SPR24_002,18,female,2024-04-03_10h41.35.964,jersey_experiment_5_v0,2023.2.2,Win32,84.74576271,,,,,,,,,,,,,,,,93.2127,94.2596,94.2596,96.8245,return,0.3701,,74.73958333,0,6,6,20,1,FBP-YG-18.png,0.35,1.2,21,0.25,,,,,,,,,,,,,,,,,,,,,,,,,,,,,,,,,,,,,,,,,,,,,
,,,,,SPR24_002,18,female,2024-04-03_10h41.35.964,jersey_experiment_5_v0,2023.2.2,Win32,84.74576271,,,,,,,,,,,,,,,,96.8247,98.1185,98.1186,100.6834,return,0.2626,,97.13541667,0,7,7,9,1,FBP-OG-81.png,0.45,1.2,10,0.5,,,,,,,,,,,,,,,,,,,,,,,,,,,,,,,,,,,,,,,,,,,,,
,,,,,SPR24_002,18,female,2024-04-03_10h41.35.964,jersey_experiment_5_v0,2023.2.2,Win32,84.74576271,,,,,,,,,,,,,,,,100.6836,101.7305,101.7305,104.5777,return,1.0721,,88.02083333,0,8,8,17,1,FBP-YG-17.png,0.4,1.2,18,0.25,,,,,,,,,,,,,,,,,,,,,,,,,,,,,,,,,,,,,,,,,,,,,
,,,,,SPR24_002,18,female,2024-04-03_10h41.35.964,jersey_experiment_5_v0,2023.2.2,Win32,84.74576271,,,,,,,,,,,,,,,,104.5778,105.8718,105.8719,108.2837,return,0.2017,,95.18229167,0,9,9,39,1,FBP-RB-18.png,0.45,1.2,40,0.5,,,,,,,,,,,,,,,,,,,,,,,,,,,,,,,,,,,,,,,,,,,,,
,,,,,SPR24_002,18,female,2024-04-03_10h41.35.964,jersey_experiment_5_v0,2023.2.2,Win32,84.74576271,,,,,,,,,,,,,,,,108.2839,109.3308,109.3308,113.3074,return,0.1803,,75,0,10,10,27,1,FBP-YG-19.png,0.4,1.2,28,0.25,,,,,,,,,,,,,,,,,,,,,,,,,,,,,,,,,,,,,,,,,,,,,
,,,,,SPR24_002,18,female,2024-04-03_10h41.35.964,jersey_experiment_5_v0,2023.2.2,Win32,84.74576271,,,,,,,,,,,,,,,,113.3075,114.6014,114.6015,118.0721,return,1.8656,,75.26041667,0,11,11,13,1,FBP-OG-91.png,0.43,1.2,14,0.5,,,,,,,,,,,,,,,,,,,,,,,,,,,,,,,,,,,,,,,,,,,,,
,,,,,SPR24_002,18,female,2024-04-03_10h41.35.964,jersey_experiment_5_v0,2023.2.2,Win32,84.74576271,,,,,,,,,,,,,,,,118.0724,119.3663,119.3663,121.096,return,0.4288,,74.73958333,0,12,12,3,1,FBP-OG-71.png,0.43,1.2,4,0.5,,,,,,,,,,,,,,,,,,,,,,,,,,,,,,,,,,,,,,,,,,,,,
,,,,,SPR24_002,18,female,2024-04-03_10h41.35.964,jersey_experiment_5_v0,2023.2.2,Win32,84.74576271,,,,,,,,,,,,,,,,121.0962,122.143,122.143,123.7431,return,0.4001,,86.45833333,0,13,13,58,1,FBP-PT-19.png,0.43,1.2,59,0.25,,,,,,,,,,,,,,,,,,,,,,,,,,,,,,,,,,,,,,,,,,,,,
,,,,,SPR24_002,18,female,2024-04-03_10h41.35.964,jersey_experiment_5_v0,2023.2.2,Win32,84.74576271,,,,,,,,,,,,,,,,123.7432,124.7902,124.7902,127.0845,return,0.1305,,63.41145833,0,14,14,21,1,FBP-YG-18.png,0.37,1.2,22,0.25,,,,,,,,,,,,,,,,,,,,,,,,,,,,,,,,,,,,,,,,,,,,,
,,,,,SPR24_002,18,female,2024-04-03_10h41.35.964,jersey_experiment_5_v0,2023.2.2,Win32,84.74576271,,,,,,,,,,,,,,,,127.0847,128.3786,128.3786,132.2375,return,0.1662,,63.02083333,0,15,15,36,1,FBP-RB-18.png,0.37,1.2,37,0.5,,,,,,,,,,,,,,,,,,,,,,,,,,,,,,,,,,,,,,,,,,,,,
,,,,,SPR24_002,18,female,2024-04-03_10h41.35.964,jersey_experiment_5_v0,2023.2.2,Win32,84.74576271,,,,,,,,,,,,,,,,132.2377,133.5315,133.5317,135.2963,return,0.2118,,84.11458333,0,16,16,33,1,FBP-RB-17.png,0.43,1.2,34,0.5,,,,,,,,,,,,,,,,,,,,,,,,,,,,,,,,,,,,,,,,,,,,,
,,,,,SPR24_002,18,female,2024-04-03_10h41.35.964,jersey_experiment_5_v0,2023.2.2,Win32,84.74576271,,,,,,,,,,,,,,,,135.2966,136.3435,136.3435,141.2615,return,1.6134,,36.84895833,0,17,17,15,1,FBP-YG-17.png,0.35,1.2,16,0.25,,,,,,,,,,,,,,,,,,,,,,,,,,,,,,,,,,,,,,,,,,,,,
,,,,,SPR24_002,18,female,2024-04-03_10h41.35.964,jersey_experiment_5_v0,2023.2.2,Win32,84.74576271,,,,,,,,,,,,,,,,141.2617,142.5556,142.5556,145.1203,return,0.225,,54.55729167,0,18,18,32,1,FBP-RB-17.png,0.4,1.2,33,0.5,,,,,,,,,,,,,,,,,,,,,,,,,,,,,,,,,,,,,,,,,,,,,
,,,,,SPR24_002,18,female,2024-04-03_10h41.35.964,jersey_experiment_5_v0,2023.2.2,Win32,84.74576271,,,,,,,,,,,,,,,,145.1204,146.4145,146.4146,148.7675,return,0.2722,,95.3125,0,19,19,44,1,FBP-RB-19.png,0.45,1.2,45,0.5,,,,,,,,,,,,,,,,,,,,,,,,,,,,,,,,,,,,,,,,,,,,,
,,,,,SPR24_002,18,female,2024-04-03_10h41.35.964,jersey_experiment_5_v0,2023.2.2,Win32,84.74576271,,,,,,,,,,,,,,,,148.7677,150.0618,150.0618,153.9912,return,0.594,,99.609375,0,20,20,34,1,FBP-RB-17.png,0.45,1.2,35,0.5,,,,,,,,,,,,,,,,,,,,,,,,,,,,,,,,,,,,,,,,,,,,,
,,,,,SPR24_002,18,female,2024-04-03_10h41.35.964,jersey_experiment_5_v0,2023.2.2,Win32,84.74576271,,,,,,,,,,,,,,,,153.9914,155.2854,155.2855,157.5682,return,0.1646,,18.88020833,0,21,21,35,1,FBP-RB-18.png,0.35,1.2,36,0.5,,,,,,,,,,,,,,,,,,,,,,,,,,,,,,,,,,,,,,,,,,,,,
,,,,,SPR24_002,18,female,2024-04-03_10h41.35.964,jersey_experiment_5_v0,2023.2.2,Win32,84.74576271,,,,,,,,,,,,,,,,157.5684,158.615,158.6151,160.321,return,0.1873,,8.463541667,0,22,22,55,1,FBP-PT-19.png,0.35,1.2,56,0.25,,,,,,,,,,,,,,,,,,,,,,,,,,,,,,,,,,,,,,,,,,,,,
,,,,,SPR24_002,18,female,2024-04-03_10h41.35.964,jersey_experiment_5_v0,2023.2.2,Win32,84.74576271,,,,,,,,,,,,,,,,160.3211,161.368,161.3681,164.1209,return,0.0872,,32.29166667,0,23,23,26,1,FBP-YG-19.png,0.37,1.2,27,0.25,,,,,,,,,,,,,,,,,,,,,,,,,,,,,,,,,,,,,,,,,,,,,
,,,,,SPR24_002,18,female,2024-04-03_10h41.35.964,jersey_experiment_5_v0,2023.2.2,Win32,84.74576271,,,,,,,,,,,,,,,,164.1212,165.1681,165.1681,166.8977,return,0.1885,,31.90104167,0,24,24,46,1,FBP-PT-17.png,0.37,1.2,47,0.25,,,,,,,,,,,,,,,,,,,,,,,,,,,,,,,,,,,,,,,,,,,,,
,,,,,SPR24_002,18,female,2024-04-03_10h41.35.964,jersey_experiment_5_v0,2023.2.2,Win32,84.74576271,,,,,,,,,,,,,,,,166.8978,167.9448,167.9448,170.6388,return,1.013,,70.05208333,0,25,25,59,1,FBP-PT-19.png,0.45,1.2,60,0.25,,,,,,,,,,,,,,,,,,,,,,,,,,,,,,,,,,,,,,,,,,,,,
,,,,,SPR24_002,18,female,2024-04-03_10h41.35.964,jersey_experiment_5_v0,2023.2.2,Win32,84.74576271,,,,,,,,,,,,,,,,170.6391,171.933,171.9331,174.545,return,0.0941,,37.76041667,0,26,26,6,1,FBP-OG-81.png,0.37,1.2,7,0.5,,,,,,,,,,,,,,,,,,,,,,,,,,,,,,,,,,,,,,,,,,,,,
,,,,,SPR24_002,18,female,2024-04-03_10h41.35.964,jersey_experiment_5_v0,2023.2.2,Win32,84.74576271,,,,,,,,,,,,,,,,174.5451,175.5921,175.5922,177.6863,return,0.1382,,6.380208333,0,27,27,45,1,FBP-PT-17.png,0.35,1.2,46,0.25,,,,,,,,,,,,,,,,,,,,,,,,,,,,,,,,,,,,,,,,,,,,,
,,,,,SPR24_002,18,female,2024-04-03_10h41.35.964,jersey_experiment_5_v0,2023.2.2,Win32,84.74576271,,,,,,,,,,,,,,,,177.6865,178.9806,178.9807,182.3452,return,0.1219,,69.01041667,0,28,28,8,1,FBP-OG-81.png,0.43,1.2,9,0.5,,,,,,,,,,,,,,,,,,,,,,,,,,,,,,,,,,,,,,,,,,,,,
,,,,,SPR24_002,18,female,2024-04-03_10h41.35.964,jersey_experiment_5_v0,2023.2.2,Win32,84.74576271,,,,,,,,,,,,,,,,182.3453,183.3924,183.3924,185.5807,return,0.1529,,80.59895833,0,29,29,23,1,FBP-YG-18.png,0.43,1.2,24,0.25,,,,,,,,,,,,,,,,,,,,,,,,,,,,,,,,,,,,,,,,,,,,,
,,,,,SPR24_002,18,female,2024-04-03_10h41.35.964,jersey_experiment_5_v0,2023.2.2,Win32,84.74576271,,,,,,,,,,,,,,,,185.5808,186.628,186.628,190.5927,return,1.5145,,56.77083333,0,30,30,56,1,FBP-PT-19.png,0.37,1.2,57,0.25,,,,,,,,,,,,,,,,,,,,,,,,,,,,,,,,,,,,,,,,,,,,,
,,,,,SPR24_002,18,female,2024-04-03_10h41.35.964,jersey_experiment_5_v0,2023.2.2,Win32,84.74576271,,,,,,,,,,,,,,,,190.593,191.6398,191.6398,194.2634,return,0.2192,,97.13541667,0,31,31,24,1,FBP-YG-18.png,0.45,1.2,25,0.25,,,,,,,,,,,,,,,,,,,,,,,,,,,,,,,,,,,,,,,,,,,,,
,,,,,SPR24_002,18,female,2024-04-03_10h41.35.964,jersey_experiment_5_v0,2023.2.2,Win32,84.74576271,,,,,,,,,,,,,,,,194.2637,195.5575,195.5575,198.44,return,0.593,,78.38541667,0,32,32,41,1,FBP-RB-19.png,0.37,1.2,42,0.5,,,,,,,,,,,,,,,,,,,,,,,,,,,,,,,,,,,,,,,,,,,,,
,,,,,SPR24_002,18,female,2024-04-03_10h41.35.964,jersey_experiment_5_v0,2023.2.2,Win32,84.74576271,,,,,,,,,,,,,,,,198.4402,199.487,199.487,202.299,return,0.3552,,98.4375,0,33,33,28,1,FBP-YG-19.png,0.43,1.2,29,0.25,,,,,,,,,,,,,,,,,,,,,,,,,,,,,,,,,,,,,,,,,,,,,
,,,,,SPR24_002,18,female,2024-04-03_10h41.35.964,jersey_experiment_5_v0,2023.2.2,Win32,84.74576271,,,,,,,,,,,,,,,,202.2993,203.5932,203.5933,205.5462,return,0.097,,58.59375,0,34,34,31,1,FBP-RB-17.png,0.37,1.2,32,0.5,,,,,,,,,,,,,,,,,,,,,,,,,,,,,,,,,,,,,,,,,,,,,
,,,,,SPR24_002,18,female,2024-04-03_10h41.35.964,jersey_experiment_5_v0,2023.2.2,Win32,84.74576271,,,,,,,,,,,,,,,,205.5465,206.8404,206.8404,209.3581,return,0.1882,,24.73958333,0,35,35,40,1,FBP-RB-19.png,0.35,1.2,41,0.5,,,,,,,,,,,,,,,,,,,,,,,,,,,,,,,,,,,,,,,,,,,,,
,,,,,SPR24_002,18,female,2024-04-03_10h41.35.964,jersey_experiment_5_v0,2023.2.2,Win32,84.74576271,,,,,,,,,,,,,,,,209.3582,210.405,210.4051,213.5817,return,0.0815,,49.86979167,0,36,36,57,1,FBP-PT-19.png,0.4,1.2,58,0.25,,,,,,,,,,,,,,,,,,,,,,,,,,,,,,,,,,,,,,,,,,,,,
,,,,,SPR24_002,18,female,2024-04-03_10h41.35.964,jersey_experiment_5_v0,2023.2.2,Win32,84.74576271,,,,,,,,,,,,,,,,213.5819,214.6289,214.629,216.97,return,0.2736,,99.73958333,0,37,37,48,1,FBP-PT-17.png,0.43,1.2,49,0.25,,,,,,,,,,,,,,,,,,,,,,,,,,,,,,,,,,,,,,,,,,,,,
,,,,,SPR24_002,18,female,2024-04-03_10h41.35.964,jersey_experiment_5_v0,2023.2.2,Win32,84.74576271,,,,,,,,,,,,,,,,216.9704,218.0173,218.0173,222.2057,return,0.1425,,63.41145833,0,38,38,22,1,FBP-YG-18.png,0.4,1.2,23,0.25,,,,,,,,,,,,,,,,,,,,,,,,,,,,,,,,,,,,,,,,,,,,,
,,,,,SPR24_002,18,female,2024-04-03_10h41.35.964,jersey_experiment_5_v0,2023.2.2,Win32,84.74576271,,,,,,,,,,,,,,,,222.2059,223.4999,223.4999,225.4175,return,0.1936,,96.875,0,39,39,14,1,FBP-OG-91.png,0.45,1.2,15,0.5,,,,,,,,,,,,,,,,,,,,,,,,,,,,,,,,,,,,,,,,,,,,,
,,,,,SPR24_002,18,female,2024-04-03_10h41.35.964,jersey_experiment_5_v0,2023.2.2,Win32,84.74576271,,,,,,,,,,,,,,,,225.4176,226.7116,226.7117,229.3822,return,0.1614,,22.00520833,0,40,40,0,1,FBP-OG-71.png,0.35,1.2,1,0.5,,,,,,,,,,,,,,,,,,,,,,,,,,,,,,,,,,,,,,,,,,,,,
,,,,,SPR24_002,18,female,2024-04-03_10h41.35.964,jersey_experiment_5_v0,2023.2.2,Win32,84.74576271,,,,,,,,,,,,,,,,229.3825,230.6765,230.6766,232.0883,return,0.1218,,92.83854167,0,41,41,4,1,FBP-OG-71.png,0.45,1.2,5,0.5,,,,,,,,,,,,,,,,,,,,,,,,,,,,,,,,,,,,,,,,,,,,,
,,,,,SPR24_002,18,female,2024-04-03_10h41.35.964,jersey_experiment_5_v0,2023.2.2,Win32,84.74576271,,,,,,,,,,,,,,,,232.0885,233.1353,233.1353,235.3825,return,0.2558,,27.86458333,0,42,42,25,1,FBP-YG-19.png,0.35,1.2,26,0.25,,,,,,,,,,,,,,,,,,,,,,,,,,,,,,,,,,,,,,,,,,,,,
,,,,,SPR24_002,18,female,2024-04-03_10h41.35.964,jersey_experiment_5_v0,2023.2.2,Win32,84.74576271,,,,,,,,,,,,,,,,235.3827,236.6768,236.6768,239.2767,return,0.3787,,38.15104167,0,43,43,10,1,FBP-OG-91.png,0.35,1.2,11,0.5,,,,,,,,,,,,,,,,,,,,,,,,,,,,,,,,,,,,,,,,,,,,,
,,,,,SPR24_002,18,female,2024-04-03_10h41.35.964,jersey_experiment_5_v0,2023.2.2,Win32,84.74576271,,,,,,,,,,,,,,,,239.277,240.3241,240.3241,242.3122,return,0.2279,,37.23958333,0,44,44,50,1,FBP-PT-18.png,0.35,1.2,51,0.25,,,,,,,,,,,,,,,,,,,,,,,,,,,,,,,,,,,,,,,,,,,,,
,,,,,SPR24_002,18,female,2024-04-03_10h41.35.964,jersey_experiment_5_v0,2023.2.2,Win32,84.74576271,,,,,,,,,,,,,,,,242.3124,243.3593,243.3593,245.983,return,0.212,,98.828125,0,45,45,19,1,FBP-YG-17.png,0.45,1.2,20,0.25,,,,,,,,,,,,,,,,,,,,,,,,,,,,,,,,,,,,,,,,,,,,,
,,,,,SPR24_002,18,female,2024-04-03_10h41.35.964,jersey_experiment_5_v0,2023.2.2,Win32,84.74576271,,,,,,,,,,,,,,,,245.9832,247.03,247.03,249.289,return,0.216,,99.47916667,0,46,46,47,1,FBP-PT-17.png,0.4,1.2,48,0.25,,,,,,,,,,,,,,,,,,,,,,,,,,,,,,,,,,,,,,,,,,,,,
,,,,,SPR24_002,18,female,2024-04-03_10h41.35.964,jersey_experiment_5_v0,2023.2.2,Win32,84.74576271,,,,,,,,,,,,,,,,249.2893,250.3361,250.3361,251.4655,return,0.1702,,99.609375,0,47,47,18,1,FBP-YG-17.png,0.43,1.2,19,0.25,,,,,,,,,,,,,,,,,,,,,,,,,,,,,,,,,,,,,,,,,,,,,
,,,,,SPR24_002,18,female,2024-04-03_10h41.35.964,jersey_experiment_5_v0,2023.2.2,Win32,84.74576271,,,,,,,,,,,,,,,,251.4658,252.5127,252.5127,254.5598,return,0.1179,,96.35416667,0,48,48,53,1,FBP-PT-18.png,0.43,1.2,54,0.25,,,,,,,,,,,,,,,,,,,,,,,,,,,,,,,,,,,,,,,,,,,,,
,,,,,SPR24_002,18,female,2024-04-03_10h41.35.964,jersey_experiment_5_v0,2023.2.2,Win32,84.74576271,,,,,,,,,,,,,,,,254.56,255.854,255.854,257.9833,return,0.0458,,92.578125,0,49,49,43,1,FBP-RB-19.png,0.43,1.2,44,0.5,,,,,,,,,,,,,,,,,,,,,,,,,,,,,,,,,,,,,,,,,,,,,
,,,,,SPR24_002,18,female,2024-04-03_10h41.35.964,jersey_experiment_5_v0,2023.2.2,Win32,84.74576271,,,,,,,,,,,,,,,,257.9836,259.2775,259.2775,261.96,return,0.0068,,63.15104167,0,50,50,7,1,FBP-OG-81.png,0.4,1.2,8,0.5,,,,,,,,,,,,,,,,,,,,,,,,,,,,,,,,,,,,,,,,,,,,,
,,,,,SPR24_002,18,female,2024-04-03_10h41.35.964,jersey_experiment_5_v0,2023.2.2,Win32,84.74576271,,,,,,,,,,,,,,,,261.9602,263.2541,263.2542,265.1954,return,0.3781,,36.97916667,0,51,51,1,1,FBP-OG-71.png,0.37,1.2,2,0.5,,,,,,,,,,,,,,,,,,,,,,,,,,,,,,,,,,,,,,,,,,,,,
,,,,,SPR24_002,18,female,2024-04-03_10h41.35.964,jersey_experiment_5_v0,2023.2.2,Win32,84.74576271,,,,,,,,,,,,,,,,265.1956,266.2425,266.2427,267.6309,return,0.0816,,37.63020833,0,52,52,52,1,FBP-PT-18.png,0.4,1.2,53,0.25,,,,,,,,,,,,,,,,,,,,,,,,,,,,,,,,,,,,,,,,,,,,,
,,,,,SPR24_002,18,female,2024-04-03_10h41.35.964,jersey_experiment_5_v0,2023.2.2,Win32,84.74576271,,,,,,,,,,,,,,,,267.6312,268.678,268.678,269.8662,return,0.1087,,37.890625,0,53,53,16,1,FBP-YG-17.png,0.37,1.2,17,0.25,,,,,,,,,,,,,,,,,,,,,,,,,,,,,,,,,,,,,,,,,,,,,
,,,,,SPR24_002,18,female,2024-04-03_10h41.35.964,jersey_experiment_5_v0,2023.2.2,Win32,84.74576271,,,,,,,,,,,,,,,,269.8664,271.1603,271.1604,274.0898,return,0.1579,,49.73958333,0,54,54,2,1,FBP-OG-71.png,0.4,1.2,3,0.5,,,,,,,,,,,,,,,,,,,,,,,,,,,,,,,,,,,,,,,,,,,,,
,,,,,SPR24_002,18,female,2024-04-03_10h41.35.964,jersey_experiment_5_v0,2023.2.2,Win32,84.74576271,,,,,,,,,,,,,,,,274.09,275.384,275.384,276.09,return,0.0405,,49.86979167,0,55,55,30,1,FBP-RB-17.png,0.35,1.2,31,0.5,,,,,,,,,,,,,,,,,,,,,,,,,,,,,,,,,,,,,,,,,,,,,
,,,,,SPR24_002,18,female,2024-04-03_10h41.35.964,jersey_experiment_5_v0,2023.2.2,Win32,84.74576271,,,,,,,,,,,,,,,,276.0902,277.1369,277.1369,278.8549,return,0.1946,,74.609375,0,56,56,29,1,FBP-YG-19.png,0.45,1.2,30,0.25,,,,,,,,,,,,,,,,,,,,,,,,,,,,,,,,,,,,,,,,,,,,,
,,,,,SPR24_002,18,female,2024-04-03_10h41.35.964,jersey_experiment_5_v0,2023.2.2,Win32,84.74576271,,,,,,,,,,,,,,,,278.8551,279.902,279.902,281.4784,return,0.1009,,88.15104167,0,57,57,54,1,FBP-PT-18.png,0.45,1.2,55,0.25,,,,,,,,,,,,,,,,,,,,,,,,,,,,,,,,,,,,,,,,,,,,,
,,,,,SPR24_002,18,female,2024-04-03_10h41.35.964,jersey_experiment_5_v0,2023.2.2,Win32,84.74576271,,,,,,,,,,,,,,,,281.4786,282.7727,282.7727,284.0785,return,0.1514,,94.40104167,0,58,58,38,1,FBP-RB-18.png,0.43,1.2,39,0.5,,,,,,,,,,,,,,,,,,,,,,,,,,,,,,,,,,,,,,,,,,,,,
,,,,,SPR24_002,18,female,2024-04-03_10h41.35.964,jersey_experiment_5_v0,2023.2.2,Win32,84.74576271,,,,,,,,,,,,,,,,284.0787,285.1256,285.1257,288.3964,return,0.071,,50.13020833,0,59,59,51,1,FBP-PT-18.png,0.37,1.2,52,0.25,,,,,,,,,,,,,,,,,,,,,,,,,,,,,,,,,,,,,,,,,,,,,
,,,,,SPR24_002,18,female,2024-04-03_10h41.35.964,jersey_experiment_5_v0,2023.2.2,Win32,84.74576271,,,,,,,,,,,,,,,,288.3984,289.6904,289.6904,291.6552,return,0.1824,,49.47916667,,,,,,FBP-OG-19.png,0.4,1.2,13,0.5,0,0,0,12,1,,,,,,,,,,,,,,,,,,,,,,,,,,,,,,,,,,,,,,,,
,,,,,SPR24_002,18,female,2024-04-03_10h41.35.964,jersey_experiment_5_v0,2023.2.2,Win32,84.74576271,,,,,,,,,,,,,,,,291.6555,292.7024,292.7025,294.5848,return,0.1465,,15.75520833,,,,,,FBP-PT-81.png,0.35,1.2,51,0.25,0,1,1,50,1,,,,,,,,,,,,,,,,,,,,,,,,,,,,,,,,,,,,,,,,
,,,,,SPR24_002,18,female,2024-04-03_10h41.35.964,jersey_experiment_5_v0,2023.2.2,Win32,84.74576271,,,,,,,,,,,,,,,,294.5852,295.879,295.8791,298.3027,return,1.1049,,29.55729167,,,,,,FBP-RB-91.png,0.4,1.2,43,0.5,0,2,2,42,1,,,,,,,,,,,,,,,,,,,,,,,,,,,,,,,,,,,,,,,,
,,,,,SPR24_002,18,female,2024-04-03_10h41.35.964,jersey_experiment_5_v0,2023.2.2,Win32,84.74576271,,,,,,,,,,,,,,,,298.3029,299.3496,299.3497,301.679,return,0.151,,75,,,,,,FBP-PT-81.png,0.43,1.2,54,0.25,0,3,3,53,1,,,,,,,,,,,,,,,,,,,,,,,,,,,,,,,,,,,,,,,,
,,,,,SPR24_002,18,female,2024-04-03_10h41.35.964,jersey_experiment_5_v0,2023.2.2,Win32,84.74576271,,,,,,,,,,,,,,,,301.6793,302.9733,302.9733,304.2323,return,0.193,,49.73958333,,,,,,FBP-RB-81.png,0.37,1.2,37,0.5,0,4,4,36,1,,,,,,,,,,,,,,,,,,,,,,,,,,,,,,,,,,,,,,,,
,,,,,SPR24_002,18,female,2024-04-03_10h41.35.964,jersey_experiment_5_v0,2023.2.2,Win32,84.74576271,,,,,,,,,,,,,,,,304.2325,305.2792,305.2792,306.8795,return,0.0791,,37.76041667,,,,,,FBP-YG-81.png,0.35,1.2,21,0.25,0,5,5,20,1,,,,,,,,,,,,,,,,,,,,,,,,,,,,,,,,,,,,,,,,
,,,,,SPR24_002,18,female,2024-04-03_10h41.35.964,jersey_experiment_5_v0,2023.2.2,Win32,84.74576271,,,,,,,,,,,,,,,,306.8798,307.9264,307.9265,309.2913,return,0.1804,,37.5,,,,,,FBP-PT-71.png,0.35,1.2,46,0.25,0,6,6,45,1,,,,,,,,,,,,,,,,,,,,,,,,,,,,,,,,,,,,,,,,
,,,,,SPR24_002,18,female,2024-04-03_10h41.35.964,jersey_experiment_5_v0,2023.2.2,Win32,84.74576271,,,,,,,,,,,,,,,,309.2915,310.5854,310.5854,312.162,return,0.1182,,37.5,,,,,,FBP-RB-71.png,0.35,1.2,31,0.5,0,7,7,30,1,,,,,,,,,,,,,,,,,,,,,,,,,,,,,,,,,,,,,,,,
,,,,,SPR24_002,18,female,2024-04-03_10h41.35.964,jersey_experiment_5_v0,2023.2.2,Win32,84.74576271,,,,,,,,,,,,,,,,312.1622,313.4561,313.4561,316.362,return,0.2034,,87.5,,,,,,FBP-RB-91.png,0.43,1.2,44,0.5,0,8,8,43,1,,,,,,,,,,,,,,,,,,,,,,,,,,,,,,,,,,,,,,,,
,,,,,SPR24_002,18,female,2024-04-03_10h41.35.964,jersey_experiment_5_v0,2023.2.2,Win32,84.74576271,,,,,,,,,,,,,,,,316.3623,317.6562,317.6563,320.3269,return,0.5728,,50.13020833,,,,,,FBP-RB-71.png,0.37,1.2,32,0.5,0,9,9,31,1,,,,,,,,,,,,,,,,,,,,,,,,,,,,,,,,,,,,,,,,
,,,,,SPR24_002,18,female,2024-04-03_10h41.35.964,jersey_experiment_5_v0,2023.2.2,Win32,84.74576271,,,,,,,,,,,,,,,,320.3271,321.621,321.6211,323.4212,return,0.1885,,95.703125,,,,,,FBP-RB-91.png,0.45,1.2,45,0.5,0,10,10,44,1,,,,,,,,,,,,,,,,,,,,,,,,,,,,,,,,,,,,,,,,
,,,,,SPR24_002,18,female,2024-04-03_10h41.35.964,jersey_experiment_5_v0,2023.2.2,Win32,84.74576271,,,,,,,,,,,,,,,,323.4214,324.4682,324.4683,326.2095,return,0.0234,,37.5,,,,,,FBP-YG-91.png,0.37,1.2,27,0.25,0,11,11,26,1,,,,,,,,,,,,,,,,,,,,,,,,,,,,,,,,,,,,,,,,
,,,,,SPR24_002,18,female,2024-04-03_10h41.35.964,jersey_experiment_5_v0,2023.2.2,Win32,84.74576271,,,,,,,,,,,,,,,,326.2097,327.5036,327.5036,330.4333,return,0.3682,,99.609375,,,,,,FBP-OG-18.png,0.45,1.2,10,0.5,0,12,12,9,1,,,,,,,,,,,,,,,,,,,,,,,,,,,,,,,,,,,,,,,,
,,,,,SPR24_002,18,female,2024-04-03_10h41.35.964,jersey_experiment_5_v0,2023.2.2,Win32,84.74576271,,,,,,,,,,,,,,,,330.4334,331.4803,331.4804,335.4687,return,1.132,,99.609375,,,,,,FBP-PT-91.png,0.45,1.2,60,0.25,0,13,13,59,1,,,,,,,,,,,,,,,,,,,,,,,,,,,,,,,,,,,,,,,,
,,,,,SPR24_002,18,female,2024-04-03_10h41.35.964,jersey_experiment_5_v0,2023.2.2,Win32,84.74576271,,,,,,,,,,,,,,,,335.469,336.7629,336.7629,339.0569,return,0.2594,,88.54166667,,,,,,FBP-OG-18.png,0.43,1.2,9,0.5,0,14,14,8,1,,,,,,,,,,,,,,,,,,,,,,,,,,,,,,,,,,,,,,,,
,,,,,SPR24_002,18,female,2024-04-03_10h41.35.964,jersey_experiment_5_v0,2023.2.2,Win32,84.74576271,,,,,,,,,,,,,,,,339.0572,340.1041,340.1041,342.669,return,0.2827,,50,,,,,,FBP-YG-71.png,0.37,1.2,17,0.25,0,15,15,16,1,,,,,,,,,,,,,,,,,,,,,,,,,,,,,,,,,,,,,,,,
,,,,,SPR24_002,18,female,2024-04-03_10h41.35.964,jersey_experiment_5_v0,2023.2.2,Win32,84.74576271,,,,,,,,,,,,,,,,342.6692,343.716,343.716,345.7866,return,0.2628,,99.86979167,,,,,,FBP-YG-81.png,0.45,1.2,25,0.25,0,16,16,24,1,,,,,,,,,,,,,,,,,,,,,,,,,,,,,,,,,,,,,,,,
,,,,,SPR24_002,18,female,2024-04-03_10h41.35.964,jersey_experiment_5_v0,2023.2.2,Win32,84.74576271,,,,,,,,,,,,,,,,345.7869,347.0809,347.0809,348.8456,return,0.425,,63.02083333,,,,,,FBP-RB-81.png,0.4,1.2,38,0.5,0,17,17,37,1,,,,,,,,,,,,,,,,,,,,,,,,,,,,,,,,,,,,,,,,
,,,,,SPR24_002,18,female,2024-04-03_10h41.35.964,jersey_experiment_5_v0,2023.2.2,Win32,84.74576271,,,,,,,,,,,,,,,,348.8458,349.8927,349.8928,352.4341,return,0.377,,36.97916667,,,,,,FBP-YG-71.png,0.35,1.2,16,0.25,0,18,18,15,1,,,,,,,,,,,,,,,,,,,,,,,,,,,,,,,,,,,,,,,,
,,,,,SPR24_002,18,female,2024-04-03_10h41.35.964,jersey_experiment_5_v0,2023.2.2,Win32,84.74576271,,,,,,,,,,,,,,,,352.4342,353.481,353.481,355.4225,return,0.3436,,4.6875,,,,,,FBP-PT-91.png,0.35,1.2,56,0.25,0,19,19,55,1,,,,,,,,,,,,,,,,,,,,,,,,,,,,,,,,,,,,,,,,
,,,,,SPR24_002,18,female,2024-04-03_10h41.35.964,jersey_experiment_5_v0,2023.2.2,Win32,84.74576271,,,,,,,,,,,,,,,,355.4226,356.4694,356.4695,359.0225,return,0.2827,,99.21875,,,,,,FBP-PT-81.png,0.45,1.2,55,0.25,0,20,20,54,1,,,,,,,,,,,,,,,,,,,,,,,,,,,,,,,,,,,,,,,,
,,,,,SPR24_002,18,female,2024-04-03_10h41.35.964,jersey_experiment_5_v0,2023.2.2,Win32,84.74576271,,,,,,,,,,,,,,,,359.0227,360.0695,360.0696,362.3518,return,0.1282,,36.58854167,,,,,,FBP-PT-91.png,0.4,1.2,58,0.25,0,21,21,57,1,,,,,,,,,,,,,,,,,,,,,,,,,,,,,,,,,,,,,,,,
,,,,,SPR24_002,18,female,2024-04-03_10h41.35.964,jersey_experiment_5_v0,2023.2.2,Win32,84.74576271,,,,,,,,,,,,,,,,362.3521,363.3992,363.3993,364.9993,return,0.2176,,75.13020833,,,,,,FBP-YG-81.png,0.43,1.2,24,0.25,0,22,22,23,1,,,,,,,,,,,,,,,,,,,,,,,,,,,,,,,,,,,,,,,,
,,,,,SPR24_002,18,female,2024-04-03_10h41.35.964,jersey_experiment_5_v0,2023.2.2,Win32,84.74576271,,,,,,,,,,,,,,,,364.9995,366.2934,366.2934,367.8229,return,0.1309,,37.36979167,,,,,,FBP-OG-17.png,0.37,1.2,2,0.5,0,23,23,1,1,,,,,,,,,,,,,,,,,,,,,,,,,,,,,,,,,,,,,,,,
,,,,,SPR24_002,18,female,2024-04-03_10h41.35.964,jersey_experiment_5_v0,2023.2.2,Win32,84.74576271,,,,,,,,,,,,,,,,367.8232,369.1171,369.1171,370.8463,return,0.4584,,74.73958333,,,,,,FBP-RB-81.png,0.43,1.2,39,0.5,0,24,24,38,1,,,,,,,,,,,,,,,,,,,,,,,,,,,,,,,,,,,,,,,,
,,,,,SPR24_002,18,female,2024-04-03_10h41.35.964,jersey_experiment_5_v0,2023.2.2,Win32,84.74576271,,,,,,,,,,,,,,,,370.8465,371.8936,371.8936,373.7877,return,0.1055,,62.890625,,,,,,FBP-YG-91.png,0.4,1.2,28,0.25,0,25,25,27,1,,,,,,,,,,,,,,,,,,,,,,,,,,,,,,,,,,,,,,,,
,,,,,SPR24_002,18,female,2024-04-03_10h41.35.964,jersey_experiment_5_v0,2023.2.2,Win32,84.74576271,,,,,,,,,,,,,,,,373.7878,374.835,374.8351,376.3054,return,0.1041,,63.41145833,,,,,,FBP-PT-81.png,0.4,1.2,53,0.25,0,26,26,52,1,,,,,,,,,,,,,,,,,,,,,,,,,,,,,,,,,,,,,,,,
,,,,,SPR24_002,18,female,2024-04-03_10h41.35.964,jersey_experiment_5_v0,2023.2.2,Win32,84.74576271,,,,,,,,,,,,,,,,376.3057,377.5996,377.5996,379.7878,return,0.0739,,29.16666667,,,,,,FBP-RB-91.png,0.35,1.2,41,0.5,0,27,27,40,1,,,,,,,,,,,,,,,,,,,,,,,,,,,,,,,,,,,,,,,,
,,,,,SPR24_002,18,female,2024-04-03_10h41.35.964,jersey_experiment_5_v0,2023.2.2,Win32,84.74576271,,,,,,,,,,,,,,,,379.7881,381.0821,381.0822,382.6351,return,0.1789,,88.02083333,,,,,,FBP-OG-17.png,0.45,1.2,5,0.5,0,28,28,4,1,,,,,,,,,,,,,,,,,,,,,,,,,,,,,,,,,,,,,,,,
,,,,,SPR24_002,18,female,2024-04-03_10h41.35.964,jersey_experiment_5_v0,2023.2.2,Win32,84.74576271,,,,,,,,,,,,,,,,382.6353,383.9292,383.9292,385.3765,return,0.1892,,99.86979167,,,,,,FBP-OG-19.png,0.45,1.2,15,0.5,0,29,29,14,1,,,,,,,,,,,,,,,,,,,,,,,,,,,,,,,,,,,,,,,,
,,,,,SPR24_002,18,female,2024-04-03_10h41.35.964,jersey_experiment_5_v0,2023.2.2,Win32,84.74576271,,,,,,,,,,,,,,,,385.3766,386.4234,386.4235,387.8471,return,0.1844,,92.31770833,,,,,,FBP-YG-91.png,0.43,1.2,29,0.25,0,30,30,28,1,,,,,,,,,,,,,,,,,,,,,,,,,,,,,,,,,,,,,,,,
,,,,,SPR24_002,18,female,2024-04-03_10h41.35.964,jersey_experiment_5_v0,2023.2.2,Win32,84.74576271,,,,,,,,,,,,,,,,387.8473,389.1413,389.1414,392.2944,return,0.0679,,70.3125,,,,,,FBP-RB-71.png,0.4,1.2,33,0.5,0,31,31,32,1,,,,,,,,,,,,,,,,,,,,,,,,,,,,,,,,,,,,,,,,
,,,,,SPR24_002,18,female,2024-04-03_10h41.35.964,jersey_experiment_5_v0,2023.2.2,Win32,84.74576271,,,,,,,,,,,,,,,,392.2945,393.5885,393.5886,395.6003,return,0.3159,,37.23958333,,,,,,FBP-RB-81.png,0.35,1.2,36,0.5,0,32,32,35,1,,,,,,,,,,,,,,,,,,,,,,,,,,,,,,,,,,,,,,,,
,,,,,SPR24_002,18,female,2024-04-03_10h41.35.964,jersey_experiment_5_v0,2023.2.2,Win32,84.74576271,,,,,,,,,,,,,,,,395.6007,396.6474,396.6474,398.4945,return,0.1518,,33.203125,,,,,,FBP-YG-91.png,0.35,1.2,26,0.25,0,33,33,25,1,,,,,,,,,,,,,,,,,,,,,,,,,,,,,,,,,,,,,,,,
,,,,,SPR24_002,18,female,2024-04-03_10h41.35.964,jersey_experiment_5_v0,2023.2.2,Win32,84.74576271,,,,,,,,,,,,,,,,398.4948,399.5416,399.5417,401.9299,return,0.0992,,69.140625,,,,,,FBP-PT-91.png,0.43,1.2,59,0.25,0,34,34,58,1,,,,,,,,,,,,,,,,,,,,,,,,,,,,,,,,,,,,,,,,
,,,,,SPR24_002,18,female,2024-04-03_10h41.35.964,jersey_experiment_5_v0,2023.2.2,Win32,84.74576271,,,,,,,,,,,,,,,,401.9301,402.9771,402.9771,404.6713,return,0.1303,,69.53125,,,,,,FBP-YG-71.png,0.43,1.2,19,0.25,0,35,35,18,1,,,,,,,,,,,,,,,,,,,,,,,,,,,,,,,,,,,,,,,,
,,,,,SPR24_002,18,female,2024-04-03_10h41.35.964,jersey_experiment_5_v0,2023.2.2,Win32,84.74576271,,,,,,,,,,,,,,,,404.6716,405.9656,405.9657,407.5301,return,0.1331,,88.02083333,,,,,,FBP-RB-71.png,0.45,1.2,35,0.5,0,36,36,34,1,,,,,,,,,,,,,,,,,,,,,,,,,,,,,,,,,,,,,,,,
,,,,,SPR24_002,18,female,2024-04-03_10h41.35.964,jersey_experiment_5_v0,2023.2.2,Win32,84.74576271,,,,,,,,,,,,,,,,407.5305,408.8243,408.8244,410.6479,return,0.112,,37.63020833,,,,,,FBP-OG-18.png,0.37,1.2,7,0.5,0,37,37,6,1,,,,,,,,,,,,,,,,,,,,,,,,,,,,,,,,,,,,,,,,
,,,,,SPR24_002,18,female,2024-04-03_10h41.35.964,jersey_experiment_5_v0,2023.2.2,Win32,84.74576271,,,,,,,,,,,,,,,,410.6481,411.695,411.695,413.9657,return,0.1555,,73.4375,,,,,,FBP-PT-71.png,0.43,1.2,49,0.25,0,38,38,48,1,,,,,,,,,,,,,,,,,,,,,,,,,,,,,,,,,,,,,,,,
,,,,,SPR24_002,18,female,2024-04-03_10h41.35.964,jersey_experiment_5_v0,2023.2.2,Win32,84.74576271,,,,,,,,,,,,,,,,413.966,415.2599,415.26,416.7189,return,0.1895,,63.28125,,,,,,FBP-OG-19.png,0.37,1.2,12,0.5,0,39,39,11,1,,,,,,,,,,,,,,,,,,,,,,,,,,,,,,,,,,,,,,,,
,,,,,SPR24_002,18,female,2024-04-03_10h41.35.964,jersey_experiment_5_v0,2023.2.2,Win32,84.74576271,,,,,,,,,,,,,,,,416.7191,418.013,418.013,419.0248,return,0.1883,,54.94791667,,,,,,FBP-OG-17.png,0.4,1.2,3,0.5,0,40,40,2,1,,,,,,,,,,,,,,,,,,,,,,,,,,,,,,,,,,,,,,,,
,,,,,SPR24_002,18,female,2024-04-03_10h41.35.964,jersey_experiment_5_v0,2023.2.2,Win32,84.74576271,,,,,,,,,,,,,,,,419.025,420.319,420.319,421.4837,return,0.2721,,43.09895833,,,,,,FBP-OG-18.png,0.35,1.2,6,0.5,0,41,41,5,1,,,,,,,,,,,,,,,,,,,,,,,,,,,,,,,,,,,,,,,,
,,,,,SPR24_002,18,female,2024-04-03_10h41.35.964,jersey_experiment_5_v0,2023.2.2,Win32,84.74576271,,,,,,,,,,,,,,,,421.4839,422.5307,422.5308,423.2602,return,0.1553,,43.61979167,,,,,,FBP-PT-71.png,0.4,1.2,48,0.25,0,42,42,47,1,,,,,,,,,,,,,,,,,,,,,,,,,,,,,,,,,,,,,,,,
,,,,,SPR24_002,18,female,2024-04-03_10h41.35.964,jersey_experiment_5_v0,2023.2.2,Win32,84.74576271,,,,,,,,,,,,,,,,423.2605,424.5543,424.5544,426.9661,return,0.2206,,45.18229167,,,,,,FBP-OG-18.png,0.4,1.2,8,0.5,0,43,43,7,1,,,,,,,,,,,,,,,,,,,,,,,,,,,,,,,,,,,,,,,,
,,,,,SPR24_002,18,female,2024-04-03_10h41.35.964,jersey_experiment_5_v0,2023.2.2,Win32,84.74576271,,,,,,,,,,,,,,,,426.9664,428.2603,428.2604,429.2488,return,0.1176,,40.10416667,,,,,,FBP-RB-91.png,0.37,1.2,42,0.5,0,44,44,41,1,,,,,,,,,,,,,,,,,,,,,,,,,,,,,,,,,,,,,,,,
,,,,,SPR24_002,18,female,2024-04-03_10h41.35.964,jersey_experiment_5_v0,2023.2.2,Win32,84.74576271,,,,,,,,,,,,,,,,429.2491,430.5429,430.5429,431.7075,return,0.3313,,41.796875,,,,,,FBP-OG-17.png,0.35,1.2,1,0.5,0,45,45,0,1,,,,,,,,,,,,,,,,,,,,,,,,,,,,,,,,,,,,,,,,
,,,,,SPR24_002,18,female,2024-04-03_10h41.35.964,jersey_experiment_5_v0,2023.2.2,Win32,84.74576271,,,,,,,,,,,,,,,,431.7078,432.7546,432.7546,433.8723,return,0.3067,,41.66666667,,,,,,FBP-PT-91.png,0.37,1.2,57,0.25,0,46,46,56,1,,,,,,,,,,,,,,,,,,,,,,,,,,,,,,,,,,,,,,,,
,,,,,SPR24_002,18,female,2024-04-03_10h41.35.964,jersey_experiment_5_v0,2023.2.2,Win32,84.74576271,,,,,,,,,,,,,,,,433.8727,435.1665,435.1665,437.6489,return,0.612,,71.35416667,,,,,,FBP-RB-71.png,0.43,1.2,34,0.5,0,47,47,33,1,,,,,,,,,,,,,,,,,,,,,,,,,,,,,,,,,,,,,,,,
,,,,,SPR24_002,18,female,2024-04-03_10h41.35.964,jersey_experiment_5_v0,2023.2.2,Win32,84.74576271,,,,,,,,,,,,,,,,437.6491,438.6961,438.6961,440.4962,return,0.1988,,87.890625,,,,,,FBP-YG-71.png,0.45,1.2,20,0.25,0,48,48,19,1,,,,,,,,,,,,,,,,,,,,,,,,,,,,,,,,,,,,,,,,
,,,,,SPR24_002,18,female,2024-04-03_10h41.35.964,jersey_experiment_5_v0,2023.2.2,Win32,84.74576271,,,,,,,,,,,,,,,,440.4965,441.7901,441.7902,443.614,return,0.2583,,90.36458333,,,,,,FBP-OG-19.png,0.43,1.2,14,0.5,0,49,49,13,1,,,,,,,,,,,,,,,,,,,,,,,,,,,,,,,,,,,,,,,,
,,,,,SPR24_002,18,female,2024-04-03_10h41.35.964,jersey_experiment_5_v0,2023.2.2,Win32,84.74576271,,,,,,,,,,,,,,,,443.6142,444.661,444.661,446.1436,return,0.1181,,96.484375,,,,,,FBP-PT-71.png,0.45,1.2,50,0.25,0,50,50,49,1,,,,,,,,,,,,,,,,,,,,,,,,,,,,,,,,,,,,,,,,
,,,,,SPR24_002,18,female,2024-04-03_10h41.35.964,jersey_experiment_5_v0,2023.2.2,Win32,84.74576271,,,,,,,,,,,,,,,,446.1438,447.4375,447.4375,448.8611,return,0.2256,,93.75,,,,,,FBP-OG-17.png,0.43,1.2,4,0.5,0,51,51,3,1,,,,,,,,,,,,,,,,,,,,,,,,,,,,,,,,,,,,,,,,
,,,,,SPR24_002,18,female,2024-04-03_10h41.35.964,jersey_experiment_5_v0,2023.2.2,Win32,84.74576271,,,,,,,,,,,,,,,,448.8613,450.1554,450.1554,451.8848,return,0.1774,,96.35416667,,,,,,FBP-RB-81.png,0.45,1.2,40,0.5,0,52,52,39,1,,,,,,,,,,,,,,,,,,,,,,,,,,,,,,,,,,,,,,,,
,,,,,SPR24_002,18,female,2024-04-03_10h41.35.964,jersey_experiment_5_v0,2023.2.2,Win32,84.74576271,,,,,,,,,,,,,,,,451.885,452.9319,452.932,455.2496,return,0.0704,,62.63020833,,,,,,FBP-YG-81.png,0.37,1.2,22,0.25,0,53,53,21,1,,,,,,,,,,,,,,,,,,,,,,,,,,,,,,,,,,,,,,,,
,,,,,SPR24_002,18,female,2024-04-03_10h41.35.964,jersey_experiment_5_v0,2023.2.2,Win32,84.74576271,,,,,,,,,,,,,,,,455.2498,456.2968,456.2968,457.6262,return,0.0518,,64.0625,,,,,,FBP-YG-71.png,0.4,1.2,18,0.25,0,54,54,17,1,,,,,,,,,,,,,,,,,,,,,,,,,,,,,,,,,,,,,,,,
,,,,,SPR24_002,18,female,2024-04-03_10h41.35.964,jersey_experiment_5_v0,2023.2.2,Win32,84.74576271,,,,,,,,,,,,,,,,457.6264,458.6732,458.6733,460.8617,return,0.3215,,38.41145833,,,,,,FBP-PT-81.png,0.37,1.2,52,0.25,0,55,55,51,1,,,,,,,,,,,,,,,,,,,,,,,,,,,,,,,,,,,,,,,,
,,,,,SPR24_002,18,female,2024-04-03_10h41.35.964,jersey_experiment_5_v0,2023.2.2,Win32,84.74576271,,,,,,,,,,,,,,,,460.8619,461.9087,461.9088,463.8969,return,0.2768,,81.11979167,,,,,,FBP-YG-91.png,0.45,1.2,30,0.25,0,56,56,29,1,,,,,,,,,,,,,,,,,,,,,,,,,,,,,,,,,,,,,,,,
,,,,,SPR24_002,18,female,2024-04-03_10h41.35.964,jersey_experiment_5_v0,2023.2.2,Win32,84.74576271,,,,,,,,,,,,,,,,463.8972,465.1914,465.1915,467.5442,return,0.3008,,24.73958333,,,,,,FBP-OG-19.png,0.35,1.2,11,0.5,0,57,57,10,1,,,,,,,,,,,,,,,,,,,,,,,,,,,,,,,,,,,,,,,,
,,,,,SPR24_002,18,female,2024-04-03_10h41.35.964,jersey_experiment_5_v0,2023.2.2,Win32,84.74576271,,,,,,,,,,,,,,,,467.5445,468.5912,468.5913,469.7679,return,0.088,,25,,,,,,FBP-PT-71.png,0.37,1.2,47,0.25,0,58,58,46,1,,,,,,,,,,,,,,,,,,,,,,,,,,,,,,,,,,,,,,,,
,,,,,SPR24_002,18,female,2024-04-03_10h41.35.964,jersey_experiment_5_v0,2023.2.2,Win32,84.74576271,,,,,,,,,,,,,,,,469.7681,470.8149,470.8149,472.9445,return,0.9978,,55.98958333,,,,,,FBP-YG-81.png,0.4,1.2,23,0.25,0,59,59,22,1,,,,,,,,,,,,,,,,,,,,,,,,,,,,,,,,,,,,,,,,
,,,,,SPR24_002,18,female,2024-04-03_10h41.35.964,jersey_experiment_5_v0,2023.2.2,Win32,84.74576271,,,,,,,,,,,,,,,,,,,,,,,,,,,,,,,,,,,,,,,472.945,592.9376,,,,,,,,,,,,,,,,,,,,,,,,,,,,,,,,,,,,,,
,,,,,SPR24_002,18,female,2024-04-03_10h41.35.964,jersey_experiment_5_v0,2023.2.2,Win32,84.74576271,,,,,,,,,,,,,,,,,,,,,,,,,,,,,,,,,,,,,,,,,592.9376,595.3611,return,2.4134,,,,,,,,,,,,,,,,,,,,,,,,,,,,,,,,,,
,,,,,SPR24_002,18,female,2024-04-03_10h41.35.964,jersey_experiment_5_v0,2023.2.2,Win32,84.74576271,,,,,,,,,,,,,,,,595.3672,596.6667,596.6667,601.5846,return,2.0707,,57.421875,,,,,,FBP-PT-18.png,0.4,1.2,53,0.5,,,,,,,,,,,,,0,0,0,52,1,,,,,,,,,,,,,,,,,,,,,,,,,,,,
,,,,,SPR24_002,18,female,2024-04-03_10h41.35.964,jersey_experiment_5_v0,2023.2.2,Win32,84.74576271,,,,,,,,,,,,,,,,601.5849,602.6316,602.6317,604.1729,return,0.1202,,74.86979167,,,,,,FBP-RB-17.png,0.43,1.2,34,0.25,,,,,,,,,,,,,0,1,1,33,1,,,,,,,,,,,,,,,,,,,,,,,,,,,,
,,,,,SPR24_002,18,female,2024-04-03_10h41.35.964,jersey_experiment_5_v0,2023.2.2,Win32,84.74576271,,,,,,,,,,,,,,,,604.173,605.467,605.467,606.6318,return,0.0765,,74.73958333,,,,,,FBP-YG-18.png,0.4,1.2,23,0.5,,,,,,,,,,,,,0,2,2,22,1,,,,,,,,,,,,,,,,,,,,,,,,,,,,
,,,,,SPR24_002,18,female,2024-04-03_10h41.35.964,jersey_experiment_5_v0,2023.2.2,Win32,84.74576271,,,,,,,,,,,,,,,,606.6321,607.926,607.926,608.526,return,0.1996,,74.73958333,,,,,,FBP-YG-18.png,0.43,1.2,24,0.5,,,,,,,,,,,,,0,3,3,23,1,,,,,,,,,,,,,,,,,,,,,,,,,,,,
,,,,,SPR24_002,18,female,2024-04-03_10h41.35.964,jersey_experiment_5_v0,2023.2.2,Win32,84.74576271,,,,,,,,,,,,,,,,608.5262,609.8201,609.8202,610.7026,return,0.1101,,68.61979167,,,,,,FBP-PT-18.png,0.43,1.2,54,0.5,,,,,,,,,,,,,0,4,4,53,1,,,,,,,,,,,,,,,,,,,,,,,,,,,,
,,,,,SPR24_002,18,female,2024-04-03_10h41.35.964,jersey_experiment_5_v0,2023.2.2,Win32,84.74576271,,,,,,,,,,,,,,,,610.7028,611.9967,611.9967,613.385,return,0.0648,,80.20833333,,,,,,FBP-YG-18.png,0.45,1.2,25,0.5,,,,,,,,,,,,,0,5,5,24,1,,,,,,,,,,,,,,,,,,,,,,,,,,,,
,,,,,SPR24_002,18,female,2024-04-03_10h41.35.964,jersey_experiment_5_v0,2023.2.2,Win32,84.74576271,,,,,,,,,,,,,,,,613.3852,614.4321,614.4321,615.6085,return,0.0534,,75,,,,,,FBP-OG-81.png,0.45,1.2,10,0.25,,,,,,,,,,,,,0,6,6,9,1,,,,,,,,,,,,,,,,,,,,,,,,,,,,
,,,,,SPR24_002,18,female,2024-04-03_10h41.35.964,jersey_experiment_5_v0,2023.2.2,Win32,84.74576271,,,,,,,,,,,,,,,,615.6087,616.6558,616.6558,617.6793,return,0.4002,,75,,,,,,FBP-OG-81.png,0.43,1.2,9,0.25,,,,,,,,,,,,,0,7,7,8,1,,,,,,,,,,,,,,,,,,,,,,,,,,,,
,,,,,SPR24_002,18,female,2024-04-03_10h41.35.964,jersey_experiment_5_v0,2023.2.2,Win32,84.74576271,,,,,,,,,,,,,,,,617.6795,618.9734,618.9734,621.95,return,0.1551,,41.66666667,,,,,,FBP-PT-18.png,0.37,1.2,52,0.5,,,,,,,,,,,,,0,8,8,51,1,,,,,,,,,,,,,,,,,,,,,,,,,,,,
,,,,,SPR24_002,18,female,2024-04-03_10h41.35.964,jersey_experiment_5_v0,2023.2.2,Win32,84.74576271,,,,,,,,,,,,,,,,621.9502,622.997,622.9972,623.7031,return,0.0555,,42.05729167,,,,,,FBP-RB-17.png,0.37,1.2,32,0.25,,,,,,,,,,,,,0,9,9,31,1,,,,,,,,,,,,,,,,,,,,,,,,,,,,
,,,,,SPR24_002,18,female,2024-04-03_10h41.35.964,jersey_experiment_5_v0,2023.2.2,Win32,84.74576271,,,,,,,,,,,,,,,,623.7033,624.7501,624.7502,626.4915,return,1.357,,51.953125,,,,,,FBP-OG-91.png,0.4,1.2,13,0.25,,,,,,,,,,,,,0,10,10,12,1,,,,,,,,,,,,,,,,,,,,,,,,,,,,
,,,,,SPR24_002,18,female,2024-04-03_10h41.35.964,jersey_experiment_5_v0,2023.2.2,Win32,84.74576271,,,,,,,,,,,,,,,,626.4917,627.5384,627.5385,629.562,return,0.1452,,75.13020833,,,,,,FBP-RB-18.png,0.43,1.2,39,0.25,,,,,,,,,,,,,0,11,11,38,1,,,,,,,,,,,,,,,,,,,,,,,,,,,,
,,,,,SPR24_002,18,female,2024-04-03_10h41.35.964,jersey_experiment_5_v0,2023.2.2,Win32,84.74576271,,,,,,,,,,,,,,,,629.5622,630.6092,630.6093,632.7974,return,0.0833,,37.890625,,,,,,FBP-RB-18.png,0.37,1.2,37,0.25,,,,,,,,,,,,,0,12,12,36,1,,,,,,,,,,,,,,,,,,,,,,,,,,,,
,,,,,SPR24_002,18,female,2024-04-03_10h41.35.964,jersey_experiment_5_v0,2023.2.2,Win32,84.74576271,,,,,,,,,,,,,,,,632.7977,633.8445,633.8445,635.8801,return,0.1597,,88.15104167,,,,,,FBP-RB-19.png,0.45,1.2,45,0.25,,,,,,,,,,,,,0,13,13,44,1,,,,,,,,,,,,,,,,,,,,,,,,,,,,
,,,,,SPR24_002,18,female,2024-04-03_10h41.35.964,jersey_experiment_5_v0,2023.2.2,Win32,84.74576271,,,,,,,,,,,,,,,,635.8803,636.927,636.9271,639.1036,return,0.1779,,37.23958333,,,,,,FBP-OG-91.png,0.35,1.2,11,0.25,,,,,,,,,,,,,0,14,14,10,1,,,,,,,,,,,,,,,,,,,,,,,,,,,,
,,,,,SPR24_002,18,female,2024-04-03_10h41.35.964,jersey_experiment_5_v0,2023.2.2,Win32,84.74576271,,,,,,,,,,,,,,,,639.1039,640.3977,640.3977,642.127,return,0.0336,,53.25520833,,,,,,FBP-YG-19.png,0.4,1.2,28,0.5,,,,,,,,,,,,,0,15,15,27,1,,,,,,,,,,,,,,,,,,,,,,,,,,,,
,,,,,SPR24_002,18,female,2024-04-03_10h41.35.964,jersey_experiment_5_v0,2023.2.2,Win32,84.74576271,,,,,,,,,,,,,,,,642.1273,643.1743,643.1744,644.6214,return,0.059,,75.13020833,,,,,,FBP-RB-17.png,0.45,1.2,35,0.25,,,,,,,,,,,,,0,16,16,34,1,,,,,,,,,,,,,,,,,,,,,,,,,,,,
,,,,,SPR24_002,18,female,2024-04-03_10h41.35.964,jersey_experiment_5_v0,2023.2.2,Win32,84.74576271,,,,,,,,,,,,,,,,644.6217,645.6685,645.6686,646.9862,return,0.002,,25,,,,,,FBP-OG-71.png,0.37,1.2,2,0.25,,,,,,,,,,,,,0,17,17,1,1,,,,,,,,,,,,,,,,,,,,,,,,,,,,
,,,,,SPR24_002,18,female,2024-04-03_10h41.35.964,jersey_experiment_5_v0,2023.2.2,Win32,84.74576271,,,,,,,,,,,,,,,,646.9865,648.2804,648.2804,650.657,return,0.0844,,57.68229167,,,,,,FBP-YG-19.png,0.43,1.2,29,0.5,,,,,,,,,,,,,0,18,18,28,1,,,,,,,,,,,,,,,,,,,,,,,,,,,,
,,,,,SPR24_002,18,female,2024-04-03_10h41.35.964,jersey_experiment_5_v0,2023.2.2,Win32,84.74576271,,,,,,,,,,,,,,,,650.6574,651.9511,651.9511,653.0806,return,0.1233,,79.6875,,,,,,FBP-YG-19.png,0.45,1.2,30,0.5,,,,,,,,,,,,,0,19,19,29,1,,,,,,,,,,,,,,,,,,,,,,,,,,,,
,,,,,SPR24_002,18,female,2024-04-03_10h41.35.964,jersey_experiment_5_v0,2023.2.2,Win32,84.74576271,,,,,,,,,,,,,,,,653.0808,654.3748,654.3749,656.0455,return,0.5416,,62.63020833,,,,,,FBP-YG-18.png,0.37,1.2,22,0.5,,,,,,,,,,,,,0,20,20,21,1,,,,,,,,,,,,,,,,,,,,,,,,,,,,
,,,,,SPR24_002,18,female,2024-04-03_10h41.35.964,jersey_experiment_5_v0,2023.2.2,Win32,84.74576271,,,,,,,,,,,,,,,,656.0457,657.0924,657.0925,658.3749,return,0.2083,,74.86979167,,,,,,FBP-RB-18.png,0.4,1.2,38,0.25,,,,,,,,,,,,,0,21,21,37,1,,,,,,,,,,,,,,,,,,,,,,,,,,,,
,,,,,SPR24_002,18,female,2024-04-03_10h41.35.964,jersey_experiment_5_v0,2023.2.2,Win32,84.74576271,,,,,,,,,,,,,,,,658.375,659.4219,659.4221,660.8573,return,0.1941,,62.109375,,,,,,FBP-OG-71.png,0.35,1.2,1,0.25,,,,,,,,,,,,,0,22,22,0,1,,,,,,,,,,,,,,,,,,,,,,,,,,,,
,,,,,SPR24_002,18,female,2024-04-03_10h41.35.964,jersey_experiment_5_v0,2023.2.2,Win32,84.74576271,,,,,,,,,,,,,,,,660.8576,661.9044,661.9044,663.1632,return,0.5556,,62.109375,,,,,,FBP-OG-81.png,0.37,1.2,7,0.25,,,,,,,,,,,,,0,23,23,6,1,,,,,,,,,,,,,,,,,,,,,,,,,,,,
,,,,,SPR24_002,18,female,2024-04-03_10h41.35.964,jersey_experiment_5_v0,2023.2.2,Win32,84.74576271,,,,,,,,,,,,,,,,663.1634,664.4574,664.4574,665.3985,return,0.1359,,75,,,,,,FBP-PT-17.png,0.43,1.2,49,0.5,,,,,,,,,,,,,0,24,24,48,1,,,,,,,,,,,,,,,,,,,,,,,,,,,,
,,,,,SPR24_002,18,female,2024-04-03_10h41.35.964,jersey_experiment_5_v0,2023.2.2,Win32,84.74576271,,,,,,,,,,,,,,,,665.3987,666.4458,666.4458,668.9518,return,0.2429,,61.71875,,,,,,FBP-RB-17.png,0.35,1.2,31,0.25,,,,,,,,,,,,,0,25,25,30,1,,,,,,,,,,,,,,,,,,,,,,,,,,,,
,,,,,SPR24_002,18,female,2024-04-03_10h41.35.964,jersey_experiment_5_v0,2023.2.2,Win32,84.74576271,,,,,,,,,,,,,,,,668.952,670.2459,670.246,673.105,return,1.6713,,35.80729167,,,,,,FBP-YG-18.png,0.35,1.2,21,0.5,,,,,,,,,,,,,0,26,26,20,1,,,,,,,,,,,,,,,,,,,,,,,,,,,,
,,,,,SPR24_002,18,female,2024-04-03_10h41.35.964,jersey_experiment_5_v0,2023.2.2,Win32,84.74576271,,,,,,,,,,,,,,,,673.1052,674.399,674.3991,675.952,return,0.1628,,88.28125,,,,,,FBP-YG-17.png,0.43,1.2,19,0.5,,,,,,,,,,,,,0,27,27,18,1,,,,,,,,,,,,,,,,,,,,,,,,,,,,
,,,,,SPR24_002,18,female,2024-04-03_10h41.35.964,jersey_experiment_5_v0,2023.2.2,Win32,84.74576271,,,,,,,,,,,,,,,,675.9523,677.2461,677.2462,678.4933,return,0.249,,74.73958333,,,,,,FBP-YG-19.png,0.37,1.2,27,0.5,,,,,,,,,,,,,0,28,28,26,1,,,,,,,,,,,,,,,,,,,,,,,,,,,,
,,,,,SPR24_002,18,female,2024-04-03_10h41.35.964,jersey_experiment_5_v0,2023.2.2,Win32,84.74576271,,,,,,,,,,,,,,,,678.4935,679.5403,679.5403,681.164,return,0.1681,,94.79166667,,,,,,FBP-OG-71.png,0.43,1.2,4,0.25,,,,,,,,,,,,,0,29,29,3,1,,,,,,,,,,,,,,,,,,,,,,,,,,,,
,,,,,SPR24_002,18,female,2024-04-03_10h41.35.964,jersey_experiment_5_v0,2023.2.2,Win32,84.74576271,,,,,,,,,,,,,,,,681.1642,682.4583,682.4584,684.0229,return,0.5145,,34.765625,,,,,,FBP-PT-17.png,0.37,1.2,47,0.5,,,,,,,,,,,,,0,30,30,46,1,,,,,,,,,,,,,,,,,,,,,,,,,,,,
,,,,,SPR24_002,18,female,2024-04-03_10h41.35.964,jersey_experiment_5_v0,2023.2.2,Win32,84.74576271,,,,,,,,,,,,,,,,684.0232,685.07,685.07,685.9642,return,0.0735,,31.90104167,,,,,,FBP-RB-19.png,0.37,1.2,42,0.25,,,,,,,,,,,,,0,31,31,41,1,,,,,,,,,,,,,,,,,,,,,,,,,,,,
,,,,,SPR24_002,18,female,2024-04-03_10h41.35.964,jersey_experiment_5_v0,2023.2.2,Win32,84.74576271,,,,,,,,,,,,,,,,685.9642,687.0113,687.0114,688.8818,return,0.0942,,74.73958333,,,,,,FBP-RB-19.png,0.4,1.2,43,0.25,,,,,,,,,,,,,0,32,32,42,1,,,,,,,,,,,,,,,,,,,,,,,,,,,,
,,,,,SPR24_002,18,female,2024-04-03_10h41.35.964,jersey_experiment_5_v0,2023.2.2,Win32,84.74576271,,,,,,,,,,,,,,,,688.882,689.9289,689.9289,690.588,return,0.0486,,74.73958333,,,,,,FBP-OG-81.png,0.4,1.2,8,0.25,,,,,,,,,,,,,0,33,33,7,1,,,,,,,,,,,,,,,,,,,,,,,,,,,,
,,,,,SPR24_002,18,female,2024-04-03_10h41.35.964,jersey_experiment_5_v0,2023.2.2,Win32,84.74576271,,,,,,,,,,,,,,,,690.5882,691.8821,691.8821,692.9409,return,0.1537,,91.66666667,,,,,,FBP-PT-18.png,0.45,1.2,55,0.5,,,,,,,,,,,,,0,34,34,54,1,,,,,,,,,,,,,,,,,,,,,,,,,,,,
,,,,,SPR24_002,18,female,2024-04-03_10h41.35.964,jersey_experiment_5_v0,2023.2.2,Win32,84.74576271,,,,,,,,,,,,,,,,692.9412,693.988,693.988,694.6468,return,0.0402,,93.359375,,,,,,FBP-RB-18.png,0.45,1.2,40,0.25,,,,,,,,,,,,,0,35,35,39,1,,,,,,,,,,,,,,,,,,,,,,,,,,,,
,,,,,SPR24_002,18,female,2024-04-03_10h41.35.964,jersey_experiment_5_v0,2023.2.2,Win32,84.74576271,,,,,,,,,,,,,,,,694.6471,695.9411,695.9412,697.5646,return,0.0731,,38.28125,,,,,,FBP-YG-17.png,0.35,1.2,16,0.5,,,,,,,,,,,,,0,36,36,15,1,,,,,,,,,,,,,,,,,,,,,,,,,,,,
,,,,,SPR24_002,18,female,2024-04-03_10h41.35.964,jersey_experiment_5_v0,2023.2.2,Win32,84.74576271,,,,,,,,,,,,,,,,697.5648,698.8589,698.8589,699.8235,return,0.0324,,75,,,,,,FBP-PT-19.png,0.43,1.2,59,0.5,,,,,,,,,,,,,0,37,37,58,1,,,,,,,,,,,,,,,,,,,,,,,,,,,,
,,,,,SPR24_002,18,female,2024-04-03_10h41.35.964,jersey_experiment_5_v0,2023.2.2,Win32,84.74576271,,,,,,,,,,,,,,,,699.8237,700.8707,700.8707,701.8825,return,0.087,,62.36979167,,,,,,FBP-RB-18.png,0.35,1.2,36,0.25,,,,,,,,,,,,,0,38,38,35,1,,,,,,,,,,,,,,,,,,,,,,,,,,,,
,,,,,SPR24_002,18,female,2024-04-03_10h41.35.964,jersey_experiment_5_v0,2023.2.2,Win32,84.74576271,,,,,,,,,,,,,,,,701.8827,702.9295,702.9295,704.306,return,0.1151,,75,,,,,,FBP-OG-91.png,0.45,1.2,15,0.25,,,,,,,,,,,,,0,39,39,14,1,,,,,,,,,,,,,,,,,,,,,,,,,,,,
,,,,,SPR24_002,18,female,2024-04-03_10h41.35.964,jersey_experiment_5_v0,2023.2.2,Win32,84.74576271,,,,,,,,,,,,,,,,704.3062,705.353,705.3531,706.7296,return,0.0883,,63.28125,,,,,,FBP-OG-91.png,0.37,1.2,12,0.25,,,,,,,,,,,,,0,40,40,11,1,,,,,,,,,,,,,,,,,,,,,,,,,,,,
,,,,,SPR24_002,18,female,2024-04-03_10h41.35.964,jersey_experiment_5_v0,2023.2.2,Win32,84.74576271,,,,,,,,,,,,,,,,706.7299,708.0239,708.0239,709.6591,return,0.192,,88.15104167,,,,,,FBP-PT-17.png,0.45,1.2,50,0.5,,,,,,,,,,,,,0,41,41,49,1,,,,,,,,,,,,,,,,,,,,,,,,,,,,
,,,,,SPR24_002,18,female,2024-04-03_10h41.35.964,jersey_experiment_5_v0,2023.2.2,Win32,84.74576271,,,,,,,,,,,,,,,,709.6592,710.7063,710.7064,711.624,return,0.0745,,97.52604167,,,,,,FBP-RB-19.png,0.43,1.2,44,0.25,,,,,,,,,,,,,0,42,42,43,1,,,,,,,,,,,,,,,,,,,,,,,,,,,,
,,,,,SPR24_002,18,female,2024-04-03_10h41.35.964,jersey_experiment_5_v0,2023.2.2,Win32,84.74576271,,,,,,,,,,,,,,,,711.6242,712.9181,712.9181,714.6829,return,0.1436,,81.640625,,,,,,FBP-PT-19.png,0.4,1.2,58,0.5,,,,,,,,,,,,,0,43,43,57,1,,,,,,,,,,,,,,,,,,,,,,,,,,,,
,,,,,SPR24_002,18,female,2024-04-03_10h41.35.964,jersey_experiment_5_v0,2023.2.2,Win32,84.74576271,,,,,,,,,,,,,,,,714.6832,715.7299,715.73,717.73,return,0.3625,,62.23958333,,,,,,FBP-RB-19.png,0.35,1.2,41,0.25,,,,,,,,,,,,,0,44,44,40,1,,,,,,,,,,,,,,,,,,,,,,,,,,,,
,,,,,SPR24_002,18,female,2024-04-03_10h41.35.964,jersey_experiment_5_v0,2023.2.2,Win32,84.74576271,,,,,,,,,,,,,,,,717.7304,719.024,719.0241,720.7302,return,0.1817,,37.5,,,,,,FBP-PT-19.png,0.35,1.2,56,0.5,,,,,,,,,,,,,0,45,45,55,1,,,,,,,,,,,,,,,,,,,,,,,,,,,,
,,,,,SPR24_002,18,female,2024-04-03_10h41.35.964,jersey_experiment_5_v0,2023.2.2,Win32,84.74576271,,,,,,,,,,,,,,,,720.7304,722.0243,722.0244,723.3185,return,0.1145,,99.86979167,,,,,,FBP-PT-19.png,0.45,1.2,60,0.5,,,,,,,,,,,,,0,46,46,59,1,,,,,,,,,,,,,,,,,,,,,,,,,,,,
,,,,,SPR24_002,18,female,2024-04-03_10h41.35.964,jersey_experiment_5_v0,2023.2.2,Win32,84.74576271,,,,,,,,,,,,,,,,723.3188,724.6129,724.6129,725.9655,return,0.0348,,12.23958333,,,,,,FBP-PT-17.png,0.35,1.2,46,0.5,,,,,,,,,,,,,0,47,47,45,1,,,,,,,,,,,,,,,,,,,,,,,,,,,,
,,,,,SPR24_002,18,female,2024-04-03_10h41.35.964,jersey_experiment_5_v0,2023.2.2,Win32,84.74576271,,,,,,,,,,,,,,,,725.9657,727.2598,727.2599,728.5422,return,0.108,,49.86979167,,,,,,FBP-YG-17.png,0.4,1.2,18,0.5,,,,,,,,,,,,,0,48,48,17,1,,,,,,,,,,,,,,,,,,,,,,,,,,,,
,,,,,SPR24_002,18,female,2024-04-03_10h41.35.964,jersey_experiment_5_v0,2023.2.2,Win32,84.74576271,,,,,,,,,,,,,,,,728.5424,729.5893,729.5894,730.9069,return,0.0031,,2.864583333,,,,,,FBP-OG-81.png,0.35,1.2,6,0.25,,,,,,,,,,,,,0,49,49,5,1,,,,,,,,,,,,,,,,,,,,,,,,,,,,
,,,,,SPR24_002,18,female,2024-04-03_10h41.35.964,jersey_experiment_5_v0,2023.2.2,Win32,84.74576271,,,,,,,,,,,,,,,,730.9071,732.2013,732.2013,733.6248,return,0.0753,,25.13020833,,,,,,FBP-YG-17.png,0.37,1.2,17,0.5,,,,,,,,,,,,,0,50,50,16,1,,,,,,,,,,,,,,,,,,,,,,,,,,,,
,,,,,SPR24_002,18,female,2024-04-03_10h41.35.964,jersey_experiment_5_v0,2023.2.2,Win32,84.74576271,,,,,,,,,,,,,,,,733.6249,734.9191,734.9191,736.1073,return,0.0614,,99.73958333,,,,,,FBP-YG-17.png,0.45,1.2,20,0.5,,,,,,,,,,,,,0,51,51,19,1,,,,,,,,,,,,,,,,,,,,,,,,,,,,
,,,,,SPR24_002,18,female,2024-04-03_10h41.35.964,jersey_experiment_5_v0,2023.2.2,Win32,84.74576271,,,,,,,,,,,,,,,,736.1075,737.1544,737.1544,738.0248,return,0.0044,,99.609375,,,,,,FBP-OG-71.png,0.45,1.2,5,0.25,,,,,,,,,,,,,0,52,52,4,1,,,,,,,,,,,,,,,,,,,,,,,,,,,,
,,,,,SPR24_002,18,female,2024-04-03_10h41.35.964,jersey_experiment_5_v0,2023.2.2,Win32,84.74576271,,,,,,,,,,,,,,,,738.025,739.072,739.072,739.4955,return,0.0182,,99.609375,,,,,,FBP-OG-91.png,0.43,1.2,14,0.25,,,,,,,,,,,,,0,53,53,13,1,,,,,,,,,,,,,,,,,,,,,,,,,,,,
,,,,,SPR24_002,18,female,2024-04-03_10h41.35.964,jersey_experiment_5_v0,2023.2.2,Win32,84.74576271,,,,,,,,,,,,,,,,739.4957,740.7896,740.7897,742.825,return,0.6394,,37.23958333,,,,,,FBP-PT-19.png,0.37,1.2,57,0.5,,,,,,,,,,,,,0,54,54,56,1,,,,,,,,,,,,,,,,,,,,,,,,,,,,
,,,,,SPR24_002,18,female,2024-04-03_10h41.35.964,jersey_experiment_5_v0,2023.2.2,Win32,84.74576271,,,,,,,,,,,,,,,,742.8254,744.1193,744.1193,745.3429,return,0.1079,,74.86979167,,,,,,FBP-PT-17.png,0.4,1.2,48,0.5,,,,,,,,,,,,,0,55,55,47,1,,,,,,,,,,,,,,,,,,,,,,,,,,,,
,,,,,SPR24_002,18,female,2024-04-03_10h41.35.964,jersey_experiment_5_v0,2023.2.2,Win32,84.74576271,,,,,,,,,,,,,,,,745.3431,746.6372,746.6372,747.7194,return,0.2412,,50.26041667,,,,,,FBP-YG-19.png,0.35,1.2,26,0.5,,,,,,,,,,,,,0,56,56,25,1,,,,,,,,,,,,,,,,,,,,,,,,,,,,
,,,,,SPR24_002,18,female,2024-04-03_10h41.35.964,jersey_experiment_5_v0,2023.2.2,Win32,84.74576271,,,,,,,,,,,,,,,,747.7197,748.7666,748.7666,750.2843,return,0.1078,,74.609375,,,,,,FBP-OG-71.png,0.4,1.2,3,0.25,,,,,,,,,,,,,0,57,57,2,1,,,,,,,,,,,,,,,,,,,,,,,,,,,,
,,,,,SPR24_002,18,female,2024-04-03_10h41.35.964,jersey_experiment_5_v0,2023.2.2,Win32,84.74576271,,,,,,,,,,,,,,,,750.2844,751.5784,751.5785,752.449,return,0.0841,,61.328125,,,,,,FBP-PT-18.png,0.35,1.2,51,0.5,,,,,,,,,,,,,0,58,58,50,1,,,,,,,,,,,,,,,,,,,,,,,,,,,,
,,,,,SPR24_002,18,female,2024-04-03_10h41.35.964,jersey_experiment_5_v0,2023.2.2,Win32,84.74576271,,,,,,,,,,,,,,,,752.4492,753.496,753.4961,755.4255,return,0.1757,,62.36979167,,,,,,FBP-RB-17.png,0.4,1.2,33,0.25,,,,,,,,,,,,,0,59,59,32,1,,,,,,,,,,,,,,,,,,,,,,,,,,,,
,,,,,SPR24_002,18,female,2024-04-03_10h41.35.964,jersey_experiment_5_v0,2023.2.2,Win32,84.74576271,,,,,,,,,,,,,,,,755.4269,756.4729,756.4729,758.202,return,0.2256,,88.15104167,,,,,,FBP-OG-19.png,0.43,1.2,14,0.25,,,,,,,,,,,,,,,,,,0,0,0,13,1,,,,,,,,,,,,,,,,,,,,,,,
,,,,,SPR24_002,18,female,2024-04-03_10h41.35.964,jersey_experiment_5_v0,2023.2.2,Win32,84.74576271,,,,,,,,,,,,,,,,758.2023,759.4964,759.4964,760.5905,return,0.0373,,99.609375,,,,,,FBP-YG-71.png,0.45,1.2,20,0.5,,,,,,,,,,,,,,,,,,0,1,1,19,1,,,,,,,,,,,,,,,,,,,,,,,
,,,,,SPR24_002,18,female,2024-04-03_10h41.35.964,jersey_experiment_5_v0,2023.2.2,Win32,84.74576271,,,,,,,,,,,,,,,,760.5907,761.6376,761.6376,763.3906,return,0.037,,99.73958333,,,,,,FBP-RB-71.png,0.45,1.2,35,0.25,,,,,,,,,,,,,,,,,,0,2,2,34,1,,,,,,,,,,,,,,,,,,,,,,,
,,,,,SPR24_002,18,female,2024-04-03_10h41.35.964,jersey_experiment_5_v0,2023.2.2,Win32,84.74576271,,,,,,,,,,,,,,,,763.3909,764.6848,764.6849,766.2377,return,0.6367,,99.86979167,,,,,,FBP-YG-91.png,0.45,1.2,30,0.5,,,,,,,,,,,,,,,,,,0,3,3,29,1,,,,,,,,,,,,,,,,,,,,,,,
,,,,,SPR24_002,18,female,2024-04-03_10h41.35.964,jersey_experiment_5_v0,2023.2.2,Win32,84.74576271,,,,,,,,,,,,,,,,766.2379,767.2848,767.2848,768.9675,return,0.0435,,11.97916667,,,,,,FBP-RB-91.png,0.35,1.2,41,0.25,,,,,,,,,,,,,,,,,,0,4,4,40,1,,,,,,,,,,,,,,,,,,,,,,,
,,,,,SPR24_002,18,female,2024-04-03_10h41.35.964,jersey_experiment_5_v0,2023.2.2,Win32,84.74576271,,,,,,,,,,,,,,,,768.9678,770.0143,770.0143,771.6616,return,0.2009,,12.109375,,,,,,FBP-RB-81.png,0.35,1.2,36,0.25,,,,,,,,,,,,,,,,,,0,5,5,35,1,,,,,,,,,,,,,,,,,,,,,,,
,,,,,SPR24_002,18,female,2024-04-03_10h41.35.964,jersey_experiment_5_v0,2023.2.2,Win32,84.74576271,,,,,,,,,,,,,,,,771.6619,772.7084,772.7085,774.3793,return,0.157,,99.609375,,,,,,FBP-OG-17.png,0.43,1.2,4,0.25,,,,,,,,,,,,,,,,,,0,6,6,3,1,,,,,,,,,,,,,,,,,,,,,,,
,,,,,SPR24_002,18,female,2024-04-03_10h41.35.964,jersey_experiment_5_v0,2023.2.2,Win32,84.74576271,,,,,,,,,,,,,,,,774.3795,775.6735,775.6736,776.6145,return,0.2086,,99.73958333,,,,,,FBP-PT-71.png,0.43,1.2,49,0.5,,,,,,,,,,,,,,,,,,0,7,7,48,1,,,,,,,,,,,,,,,,,,,,,,,
,,,,,SPR24_002,18,female,2024-04-03_10h41.35.964,jersey_experiment_5_v0,2023.2.2,Win32,84.74576271,,,,,,,,,,,,,,,,776.6148,777.6617,777.6618,779.4736,return,0.3407,,63.80208333,,,,,,FBP-RB-71.png,0.4,1.2,33,0.25,,,,,,,,,,,,,,,,,,0,8,8,32,1,,,,,,,,,,,,,,,,,,,,,,,
,,,,,SPR24_002,18,female,2024-04-03_10h41.35.964,jersey_experiment_5_v0,2023.2.2,Win32,84.74576271,,,,,,,,,,,,,,,,779.4738,780.7677,780.7677,782.2854,return,0.0612,,49.609375,,,,,,FBP-PT-91.png,0.37,1.2,57,0.5,,,,,,,,,,,,,,,,,,0,9,9,56,1,,,,,,,,,,,,,,,,,,,,,,,
,,,,,SPR24_002,18,female,2024-04-03_10h41.35.964,jersey_experiment_5_v0,2023.2.2,Win32,84.74576271,,,,,,,,,,,,,,,,782.2857,783.5796,783.5796,784.2148,return,0.1377,,49.609375,,,,,,FBP-PT-71.png,0.35,1.2,46,0.5,,,,,,,,,,,,,,,,,,0,10,10,45,1,,,,,,,,,,,,,,,,,,,,,,,
,,,,,SPR24_002,18,female,2024-04-03_10h41.35.964,jersey_experiment_5_v0,2023.2.2,Win32,84.74576271,,,,,,,,,,,,,,,,784.215,785.5091,785.5091,786.9679,return,0.2077,,75.390625,,,,,,FBP-YG-71.png,0.4,1.2,18,0.5,,,,,,,,,,,,,,,,,,0,11,11,17,1,,,,,,,,,,,,,,,,,,,,,,,
,,,,,SPR24_002,18,female,2024-04-03_10h41.35.964,jersey_experiment_5_v0,2023.2.2,Win32,84.74576271,,,,,,,,,,,,,,,,786.9682,788.2622,788.2623,789.168,return,0.082,,86.06770833,,,,,,FBP-YG-81.png,0.4,1.2,23,0.5,,,,,,,,,,,,,,,,,,0,12,12,22,1,,,,,,,,,,,,,,,,,,,,,,,
,,,,,SPR24_002,18,female,2024-04-03_10h41.35.964,jersey_experiment_5_v0,2023.2.2,Win32,84.74576271,,,,,,,,,,,,,,,,789.1682,790.2152,790.2152,791.4859,return,0.1764,,73.95833333,,,,,,FBP-RB-91.png,0.4,1.2,43,0.25,,,,,,,,,,,,,,,,,,0,13,13,42,1,,,,,,,,,,,,,,,,,,,,,,,
,,,,,SPR24_002,18,female,2024-04-03_10h41.35.964,jersey_experiment_5_v0,2023.2.2,Win32,84.74576271,,,,,,,,,,,,,,,,791.4861,792.5328,792.5329,793.5682,return,0.1272,,89.0625,,,,,,FBP-RB-91.png,0.45,1.2,45,0.25,,,,,,,,,,,,,,,,,,0,14,14,44,1,,,,,,,,,,,,,,,,,,,,,,,
,,,,,SPR24_002,18,female,2024-04-03_10h41.35.964,jersey_experiment_5_v0,2023.2.2,Win32,84.74576271,,,,,,,,,,,,,,,,793.5685,794.8623,794.8623,796.0388,return,0.0418,,62.109375,,,,,,FBP-PT-81.png,0.4,1.2,53,0.5,,,,,,,,,,,,,,,,,,0,15,15,52,1,,,,,,,,,,,,,,,,,,,,,,,
,,,,,SPR24_002,18,female,2024-04-03_10h41.35.964,jersey_experiment_5_v0,2023.2.2,Win32,84.74576271,,,,,,,,,,,,,,,,796.039,797.333,797.3331,798.3801,return,0.1327,,94.53125,,,,,,FBP-YG-81.png,0.45,1.2,25,0.5,,,,,,,,,,,,,,,,,,0,16,16,24,1,,,,,,,,,,,,,,,,,,,,,,,
,,,,,SPR24_002,18,female,2024-04-03_10h41.35.964,jersey_experiment_5_v0,2023.2.2,Win32,84.74576271,,,,,,,,,,,,,,,,798.3804,799.6743,799.6744,800.8744,return,0.1577,,97.78645833,,,,,,FBP-PT-71.png,0.45,1.2,50,0.5,,,,,,,,,,,,,,,,,,0,17,17,49,1,,,,,,,,,,,,,,,,,,,,,,,
,,,,,SPR24_002,18,female,2024-04-03_10h41.35.964,jersey_experiment_5_v0,2023.2.2,Win32,84.74576271,,,,,,,,,,,,,,,,800.8746,801.9214,801.9214,803.6628,return,0.3147,,7.942708333,,,,,,FBP-OG-17.png,0.35,1.2,1,0.25,,,,,,,,,,,,,,,,,,0,18,18,0,1,,,,,,,,,,,,,,,,,,,,,,,
,,,,,SPR24_002,18,female,2024-04-03_10h41.35.964,jersey_experiment_5_v0,2023.2.2,Win32,84.74576271,,,,,,,,,,,,,,,,803.663,804.7097,804.7098,805.9921,return,0.086,,99.73958333,,,,,,FBP-RB-81.png,0.45,1.2,40,0.25,,,,,,,,,,,,,,,,,,0,19,19,39,1,,,,,,,,,,,,,,,,,,,,,,,
,,,,,SPR24_002,18,female,2024-04-03_10h41.35.964,jersey_experiment_5_v0,2023.2.2,Win32,84.74576271,,,,,,,,,,,,,,,,805.9924,807.2862,807.2862,808.6511,return,0.004,,40.36458333,,,,,,FBP-YG-91.png,0.37,1.2,27,0.5,,,,,,,,,,,,,,,,,,0,20,20,26,1,,,,,,,,,,,,,,,,,,,,,,,
,,,,,SPR24_002,18,female,2024-04-03_10h41.35.964,jersey_experiment_5_v0,2023.2.2,Win32,84.74576271,,,,,,,,,,,,,,,,808.6513,809.9454,809.9454,811.6748,return,0.3801,,49.609375,,,,,,FBP-PT-71.png,0.4,1.2,48,0.5,,,,,,,,,,,,,,,,,,0,21,21,47,1,,,,,,,,,,,,,,,,,,,,,,,
,,,,,SPR24_002,18,female,2024-04-03_10h41.35.964,jersey_experiment_5_v0,2023.2.2,Win32,84.74576271,,,,,,,,,,,,,,,,811.675,812.9689,812.9689,814.0278,return,0.0719,,74.86979167,,,,,,FBP-PT-81.png,0.45,1.2,55,0.5,,,,,,,,,,,,,,,,,,0,22,22,54,1,,,,,,,,,,,,,,,,,,,,,,,
,,,,,SPR24_002,18,female,2024-04-03_10h41.35.964,jersey_experiment_5_v0,2023.2.2,Win32,84.74576271,,,,,,,,,,,,,,,,814.028,815.0748,815.0749,816.5221,return,0.1441,,50.78125,,,,,,FBP-OG-17.png,0.37,1.2,2,0.25,,,,,,,,,,,,,,,,,,0,23,23,1,1,,,,,,,,,,,,,,,,,,,,,,,
,,,,,SPR24_002,18,female,2024-04-03_10h41.35.964,jersey_experiment_5_v0,2023.2.2,Win32,84.74576271,,,,,,,,,,,,,,,,816.5223,817.5689,817.5689,819.6866,return,0.0536,,39.97395833,,,,,,FBP-RB-71.png,0.35,1.2,31,0.25,,,,,,,,,,,,,,,,,,0,24,24,30,1,,,,,,,,,,,,,,,,,,,,,,,
,,,,,SPR24_002,18,female,2024-04-03_10h41.35.964,jersey_experiment_5_v0,2023.2.2,Win32,84.74576271,,,,,,,,,,,,,,,,819.6868,820.981,820.981,821.3927,return,0.014,,39.97395833,,,,,,FBP-PT-91.png,0.35,1.2,56,0.5,,,,,,,,,,,,,,,,,,0,25,25,55,1,,,,,,,,,,,,,,,,,,,,,,,
,,,,,SPR24_002,18,female,2024-04-03_10h41.35.964,jersey_experiment_5_v0,2023.2.2,Win32,84.74576271,,,,,,,,,,,,,,,,821.3932,822.6869,822.6869,823.3223,return,0.2132,,39.97395833,,,,,,FBP-PT-71.png,0.37,1.2,47,0.5,,,,,,,,,,,,,,,,,,0,26,26,46,1,,,,,,,,,,,,,,,,,,,,,,,
,,,,,SPR24_002,18,female,2024-04-03_10h41.35.964,jersey_experiment_5_v0,2023.2.2,Win32,84.74576271,,,,,,,,,,,,,,,,823.3225,824.6164,824.6164,825.887,return,0.5651,,39.97395833,,,,,,FBP-YG-91.png,0.35,1.2,26,0.5,,,,,,,,,,,,,,,,,,0,27,27,25,1,,,,,,,,,,,,,,,,,,,,,,,
,,,,,SPR24_002,18,female,2024-04-03_10h41.35.964,jersey_experiment_5_v0,2023.2.2,Win32,84.74576271,,,,,,,,,,,,,,,,825.8873,827.1812,827.1812,828.7812,return,0.2256,,75.26041667,,,,,,FBP-PT-81.png,0.43,1.2,54,0.5,,,,,,,,,,,,,,,,,,0,28,28,53,1,,,,,,,,,,,,,,,,,,,,,,,
,,,,,SPR24_002,18,female,2024-04-03_10h41.35.964,jersey_experiment_5_v0,2023.2.2,Win32,84.74576271,,,,,,,,,,,,,,,,828.7814,830.0758,830.0758,831.2756,return,0.2982,,98.828125,,,,,,FBP-PT-91.png,0.45,1.2,60,0.5,,,,,,,,,,,,,,,,,,0,29,29,59,1,,,,,,,,,,,,,,,,,,,,,,,
,,,,,SPR24_002,18,female,2024-04-03_10h41.35.964,jersey_experiment_5_v0,2023.2.2,Win32,84.74576271,,,,,,,,,,,,,,,,831.2759,832.3225,832.3225,833.405,return,0.0342,,74.86979167,,,,,,FBP-RB-81.png,0.4,1.2,38,0.25,,,,,,,,,,,,,,,,,,0,30,30,37,1,,,,,,,,,,,,,,,,,,,,,,,
,,,,,SPR24_002,18,female,2024-04-03_10h41.35.964,jersey_experiment_5_v0,2023.2.2,Win32,84.74576271,,,,,,,,,,,,,,,,833.4052,834.6992,834.6992,835.5933,return,0.0531,,82.94270833,,,,,,FBP-YG-71.png,0.43,1.2,19,0.5,,,,,,,,,,,,,,,,,,0,31,31,18,1,,,,,,,,,,,,,,,,,,,,,,,
,,,,,SPR24_002,18,female,2024-04-03_10h41.35.964,jersey_experiment_5_v0,2023.2.2,Win32,84.74576271,,,,,,,,,,,,,,,,835.5935,836.6404,836.6404,837.6404,return,0.1247,,97.00520833,,,,,,FBP-OG-17.png,0.45,1.2,5,0.25,,,,,,,,,,,,,,,,,,0,32,32,4,1,,,,,,,,,,,,,,,,,,,,,,,
,,,,,SPR24_002,18,female,2024-04-03_10h41.35.964,jersey_experiment_5_v0,2023.2.2,Win32,84.74576271,,,,,,,,,,,,,,,,837.6405,838.9346,838.9346,839.6641,return,0.0551,,84.375,,,,,,FBP-PT-91.png,0.43,1.2,59,0.5,,,,,,,,,,,,,,,,,,0,33,33,58,1,,,,,,,,,,,,,,,,,,,,,,,
,,,,,SPR24_002,18,female,2024-04-03_10h41.35.964,jersey_experiment_5_v0,2023.2.2,Win32,84.74576271,,,,,,,,,,,,,,,,839.6643,840.7112,840.7112,841.7345,return,0.196,,90.234375,,,,,,FBP-RB-91.png,0.43,1.2,44,0.25,,,,,,,,,,,,,,,,,,0,34,34,43,1,,,,,,,,,,,,,,,,,,,,,,,
,,,,,SPR24_002,18,female,2024-04-03_10h41.35.964,jersey_experiment_5_v0,2023.2.2,Win32,84.74576271,,,,,,,,,,,,,,,,841.7348,842.7817,842.7817,843.5818,return,0.1773,,90.234375,,,,,,FBP-RB-81.png,0.43,1.2,39,0.25,,,,,,,,,,,,,,,,,,0,35,35,38,1,,,,,,,,,,,,,,,,,,,,,,,
,,,,,SPR24_002,18,female,2024-04-03_10h41.35.964,jersey_experiment_5_v0,2023.2.2,Win32,84.74576271,,,,,,,,,,,,,,,,843.5821,844.6289,844.6289,846.3818,return,0.3753,,26.30208333,,,,,,FBP-OG-18.png,0.35,1.2,6,0.25,,,,,,,,,,,,,,,,,,0,36,36,5,1,,,,,,,,,,,,,,,,,,,,,,,
,,,,,SPR24_002,18,female,2024-04-03_10h41.35.964,jersey_experiment_5_v0,2023.2.2,Win32,84.74576271,,,,,,,,,,,,,,,,846.3821,847.429,847.429,848.9703,return,0.1681,,95.44270833,,,,,,FBP-RB-71.png,0.43,1.2,34,0.25,,,,,,,,,,,,,,,,,,0,37,37,33,1,,,,,,,,,,,,,,,,,,,,,,,
,,,,,SPR24_002,18,female,2024-04-03_10h41.35.964,jersey_experiment_5_v0,2023.2.2,Win32,84.74576271,,,,,,,,,,,,,,,,848.9706,850.0173,850.0173,851.1939,return,0.0153,,49.86979167,,,,,,FBP-OG-19.png,0.37,1.2,12,0.25,,,,,,,,,,,,,,,,,,0,38,38,11,1,,,,,,,,,,,,,,,,,,,,,,,
,,,,,SPR24_002,18,female,2024-04-03_10h41.35.964,jersey_experiment_5_v0,2023.2.2,Win32,84.74576271,,,,,,,,,,,,,,,,851.1942,852.241,852.2411,853.9939,return,0.0274,,57.421875,,,,,,FBP-OG-19.png,0.4,1.2,13,0.25,,,,,,,,,,,,,,,,,,0,39,39,12,1,,,,,,,,,,,,,,,,,,,,,,,
,,,,,SPR24_002,18,female,2024-04-03_10h41.35.964,jersey_experiment_5_v0,2023.2.2,Win32,84.74576271,,,,,,,,,,,,,,,,853.9942,855.0411,855.0412,855.8646,return,0.0752,,54.81770833,,,,,,FBP-OG-19.png,0.35,1.2,11,0.25,,,,,,,,,,,,,,,,,,0,40,40,10,1,,,,,,,,,,,,,,,,,,,,,,,
,,,,,SPR24_002,18,female,2024-04-03_10h41.35.964,jersey_experiment_5_v0,2023.2.2,Win32,84.74576271,,,,,,,,,,,,,,,,855.865,857.1588,857.1588,857.6294,return,0.108,,54.81770833,,,,,,FBP-YG-81.png,0.35,1.2,21,0.5,,,,,,,,,,,,,,,,,,0,41,41,20,1,,,,,,,,,,,,,,,,,,,,,,,
,,,,,SPR24_002,18,female,2024-04-03_10h41.35.964,jersey_experiment_5_v0,2023.2.2,Win32,84.74576271,,,,,,,,,,,,,,,,857.6297,858.6763,858.6763,859.7588,return,0.1511,,74.86979167,,,,,,FBP-OG-19.png,0.45,1.2,15,0.25,,,,,,,,,,,,,,,,,,0,42,42,14,1,,,,,,,,,,,,,,,,,,,,,,,
,,,,,SPR24_002,18,female,2024-04-03_10h41.35.964,jersey_experiment_5_v0,2023.2.2,Win32,84.74576271,,,,,,,,,,,,,,,,859.759,861.0529,861.053,861.9472,return,0.2258,,87.109375,,,,,,FBP-YG-91.png,0.43,1.2,29,0.5,,,,,,,,,,,,,,,,,,0,43,43,28,1,,,,,,,,,,,,,,,,,,,,,,,
,,,,,SPR24_002,18,female,2024-04-03_10h41.35.964,jersey_experiment_5_v0,2023.2.2,Win32,84.74576271,,,,,,,,,,,,,,,,861.9474,863.2413,863.2414,863.7825,return,0.1499,,87.23958333,,,,,,FBP-YG-91.png,0.4,1.2,28,0.5,,,,,,,,,,,,,,,,,,0,44,44,27,1,,,,,,,,,,,,,,,,,,,,,,,
,,,,,SPR24_002,18,female,2024-04-03_10h41.35.964,jersey_experiment_5_v0,2023.2.2,Win32,84.74576271,,,,,,,,,,,,,,,,863.7827,864.8298,864.8298,865.5593,return,0.1707,,87.23958333,,,,,,FBP-OG-17.png,0.4,1.2,3,0.25,,,,,,,,,,,,,,,,,,0,45,45,2,1,,,,,,,,,,,,,,,,,,,,,,,
,,,,,SPR24_002,18,female,2024-04-03_10h41.35.964,jersey_experiment_5_v0,2023.2.2,Win32,84.74576271,,,,,,,,,,,,,,,,865.5596,866.6062,866.6062,867.2768,return,0.252,,87.23958333,,,,,,FBP-OG-18.png,0.45,1.2,10,0.25,,,,,,,,,,,,,,,,,,0,46,46,9,1,,,,,,,,,,,,,,,,,,,,,,,
,,,,,SPR24_002,18,female,2024-04-03_10h41.35.964,jersey_experiment_5_v0,2023.2.2,Win32,84.74576271,,,,,,,,,,,,,,,,867.2769,868.5711,868.5711,870.03,return,0.2726,,37.63020833,,,,,,FBP-PT-81.png,0.35,1.2,51,0.5,,,,,,,,,,,,,,,,,,0,47,47,50,1,,,,,,,,,,,,,,,,,,,,,,,
,,,,,SPR24_002,18,female,2024-04-03_10h41.35.964,jersey_experiment_5_v0,2023.2.2,Win32,84.74576271,,,,,,,,,,,,,,,,870.0303,871.0769,871.0769,872.6065,return,0.3291,,85.9375,,,,,,FBP-OG-18.png,0.4,1.2,8,0.25,,,,,,,,,,,,,,,,,,0,48,48,7,1,,,,,,,,,,,,,,,,,,,,,,,
,,,,,SPR24_002,18,female,2024-04-03_10h41.35.964,jersey_experiment_5_v0,2023.2.2,Win32,84.74576271,,,,,,,,,,,,,,,,872.6067,873.9006,873.9006,875.9596,return,0.0429,,61.45833333,,,,,,FBP-PT-91.png,0.4,1.2,58,0.5,,,,,,,,,,,,,,,,,,0,49,49,57,1,,,,,,,,,,,,,,,,,,,,,,,
,,,,,SPR24_002,18,female,2024-04-03_10h41.35.964,jersey_experiment_5_v0,2023.2.2,Win32,84.74576271,,,,,,,,,,,,,,,,875.9598,877.0064,877.0065,878.4066,return,0.3341,,36.84895833,,,,,,FBP-RB-81.png,0.37,1.2,37,0.25,,,,,,,,,,,,,,,,,,0,50,50,36,1,,,,,,,,,,,,,,,,,,,,,,,
,,,,,SPR24_002,18,female,2024-04-03_10h41.35.964,jersey_experiment_5_v0,2023.2.2,Win32,84.74576271,,,,,,,,,,,,,,,,878.4068,879.7007,879.7008,880.5832,return,0.148,,37.5,,,,,,FBP-PT-81.png,0.37,1.2,52,0.5,,,,,,,,,,,,,,,,,,0,51,51,51,1,,,,,,,,,,,,,,,,,,,,,,,
,,,,,SPR24_002,18,female,2024-04-03_10h41.35.964,jersey_experiment_5_v0,2023.2.2,Win32,84.74576271,,,,,,,,,,,,,,,,880.5835,881.8773,881.8774,884.7364,return,0.2826,,62.23958333,,,,,,FBP-YG-71.png,0.37,1.2,17,0.5,,,,,,,,,,,,,,,,,,0,52,52,16,1,,,,,,,,,,,,,,,,,,,,,,,
,,,,,SPR24_002,18,female,2024-04-03_10h41.35.964,jersey_experiment_5_v0,2023.2.2,Win32,84.74576271,,,,,,,,,,,,,,,,884.7365,886.0305,886.0305,887.9953,return,0.0745,,37.76041667,,,,,,FBP-YG-81.png,0.37,1.2,22,0.5,,,,,,,,,,,,,,,,,,0,53,53,21,1,,,,,,,,,,,,,,,,,,,,,,,
,,,,,SPR24_002,18,female,2024-04-03_10h41.35.964,jersey_experiment_5_v0,2023.2.2,Win32,84.74576271,,,,,,,,,,,,,,,,887.9955,889.0424,889.0424,891.666,return,2.081,,60.67708333,,,,,,FBP-OG-18.png,0.37,1.2,7,0.25,,,,,,,,,,,,,,,,,,0,54,54,6,1,,,,,,,,,,,,,,,,,,,,,,,
,,,,,SPR24_002,18,female,2024-04-03_10h41.35.964,jersey_experiment_5_v0,2023.2.2,Win32,84.74576271,,,,,,,,,,,,,,,,891.6662,892.7131,892.7131,895.2309,return,0.1167,,55.33854167,,,,,,FBP-RB-91.png,0.37,1.2,42,0.25,,,,,,,,,,,,,,,,,,0,55,55,41,1,,,,,,,,,,,,,,,,,,,,,,,
,,,,,SPR24_002,18,female,2024-04-03_10h41.35.964,jersey_experiment_5_v0,2023.2.2,Win32,84.74576271,,,,,,,,,,,,,,,,895.2311,896.2779,896.2779,897.2309,return,0.059,,44.921875,,,,,,FBP-RB-71.png,0.37,1.2,32,0.25,,,,,,,,,,,,,,,,,,0,56,56,31,1,,,,,,,,,,,,,,,,,,,,,,,
,,,,,SPR24_002,18,female,2024-04-03_10h41.35.964,jersey_experiment_5_v0,2023.2.2,Win32,84.74576271,,,,,,,,,,,,,,,,897.2312,898.5253,898.5253,900.1723,return,0.1203,,80.46875,,,,,,FBP-YG-81.png,0.43,1.2,24,0.5,,,,,,,,,,,,,,,,,,0,57,57,23,1,,,,,,,,,,,,,,,,,,,,,,,
,,,,,SPR24_002,18,female,2024-04-03_10h41.35.964,jersey_experiment_5_v0,2023.2.2,Win32,84.74576271,,,,,,,,,,,,,,,,900.1725,901.2192,901.2192,902.7371,return,0.0958,,90.36458333,,,,,,FBP-OG-18.png,0.43,1.2,9,0.25,,,,,,,,,,,,,,,,,,0,58,58,8,1,,,,,,,,,,,,,,,,,,,,,,,
,,,,,SPR24_002,18,female,2024-04-03_10h41.35.964,jersey_experiment_5_v0,2023.2.2,Win32,84.74576271,,,,,,,,,,,,,,,,902.7373,904.0312,904.0313,905.0195,return,0.1085,,84.63541667,,,,,,FBP-YG-71.png,0.35,1.2,16,0.5,,,,,,,,,,,,,,,,,,0,59,59,15,1,,,,,,,,,,,,,,,,,,,,,,,
,,,,,SPR24_002,18,female,2024-04-03_10h41.35.964,jersey_experiment_5_v0,2023.2.2,Win32,84.74576271,,,,,,,,,,,,,,,,,,,,,,,,,,,,,,,,,,,,,,,,,,,,,,,,,,,,,,,,905.0199,909.5611,return,4.5359,,,,,,,,,,,,,,,,,,,
,,,,,SPR24_002,18,female,2024-04-03_10h41.35.964,jersey_experiment_5_v0,2023.2.2,Win32,84.74576271,,,,,,,,,,,,,,,,,,,,,,,,,,,,,,,,,,,,,,,,,,,,,,,,,,,,,,,,,,,,,909.5612,913.9847,1,3.0807,return,1.3176,,,,,,,,,,,,
,,,,,SPR24_002,18,female,2024-04-03_10h41.35.964,jersey_experiment_5_v0,2023.2.2,Win32,84.74576271,,,,,,,,,,,,,,,,,,,,,,,,,,,,,,,,,,,,,,,,,,,,,,,,,,,,,,,,,,,,,,,,,,,,913.9849,966.7625,"Sometimes I noticed the same size football players would pop up in a row and then a drastic switch to opposite size player would occur once, then it went back to the same size players.",right,45.4347,,,,,,
,,,,,SPR24_002,18,female,2024-04-03_10h41.35.964,jersey_experiment_5_v0,2023.2.2,Win32,84.74576271,,,,,,,,,,,,,,,,,,,,,,,,,,,,,,,,,,,,,,,,,,,,,,,,,,,,,,,,,,,,,,,,,,,,,,,,,,966.7626,970.5043,return,3.736,