requirements.started,requirements.stopped,key_resp_3.keys,key_resp_3.rt,key_resp_3.duration,Subject ID,Age,Gender,date,expName,psychopyVersion,OS,frameRate,instructions1.started,instructions1.stopped,key_resp.keys,key_resp.rt,key_resp.duration,example.started,example.stopped,enter_2.keys,enter_2.rt,enter_2.duration,instructions2.started,instructions2.stopped,enter_3.keys,enter_3.rt,enter_3.duration,image.started,image.stopped,slider_2.started,slider_2.stopped,next.keys,next.rt,next.duration,slider.response,trial_block_1.thisRepN,trial_block_1.thisTrialN,trial_block_1.thisN,trial_block_1.thisIndex,trial_block_1.ran,Path,Width,Height,Index,Duration,trial_block_2.thisRepN,trial_block_2.thisTrialN,trial_block_2.thisN,trial_block_2.thisIndex,trial_block_2.ran,rest_break.started,rest_break.stopped,end_break.started,end_break.stopped,key_resp_5.keys,key_resp_5.rt,key_resp_5.duration,trial_block_3.thisRepN,trial_block_3.thisTrialN,trial_block_3.thisN,trial_block_3.thisIndex,trial_block_3.ran,trial_block_4.thisRepN,trial_block_4.thisTrialN,trial_block_4.thisN,trial_block_4.thisIndex,trial_block_4.ran,questions_intro.started,questions_intro.stopped,enter_12.keys,enter_12.rt,enter_12.duration,question2.started,question2.stopped,question_doingbest.response,question_doingbest.rt,enter_15.keys,enter_15.rt,enter_15.duration,pattern.started,pattern.stopped,pattern_2.text,enter_17.keys,enter_17.rt,enter_17.duration,thankyou.started,thankyou.stopped,enter_14.keys,enter_14.rt,enter_14.duration
0,9.268,return,9.2641,,SPR24_005,20,Male,2024-04-05_10h00.08.974,jersey_experiment_5_v0,2023.2.2,Win32,84.74576271,,,,,,,,,,,,,,,,,,,,,,,,,,,,,,,,,,,,,,,,,,,,,,,,,,,,,,,,,,,,,,,,,,,,,,,,,,,,,,
,,,,,SPR24_005,20,Male,2024-04-05_10h00.08.974,jersey_experiment_5_v0,2023.2.2,Win32,84.74576271,9.268,15.0803,return,5.7988,,,,,,,,,,,,,,,,,,,,,,,,,,,,,,,,,,,,,,,,,,,,,,,,,,,,,,,,,,,,,,,,,,,,,,,,,,
,,,,,SPR24_005,20,Male,2024-04-05_10h00.08.974,jersey_experiment_5_v0,2023.2.2,Win32,84.74576271,,,,,,15.0803,20.9594,return,5.8465,,,,,,,,,,,,,,,,,,,,,,,,,,,,,,,,,,,,,,,,,,,,,,,,,,,,,,,,,,,,,,,,,,,,,
,,,,,SPR24_005,20,Male,2024-04-05_10h00.08.974,jersey_experiment_5_v0,2023.2.2,Win32,84.74576271,,,,,,,,,,,20.9595,35.7835,return,14.8003,,,,,,,,,,,,,,,,,,,,,,,,,,,,,,,,,,,,,,,,,,,,,,,,,,,,,,,,,,,,,,,,
,,,,,SPR24_005,20,Male,2024-04-05_10h00.08.974,jersey_experiment_5_v0,2023.2.2,Win32,84.74576271,,,,,,,,,,,,,,,,35.7897,36.8422,36.8423,49.09,return,9.6998,,74.47916667,0,0,0,49,1,FBP-PT-17.png,0.45,1.2,50,0.25,,,,,,,,,,,,,,,,,,,,,,,,,,,,,,,,,,,,,,,,,,,,,
,,,,,SPR24_005,20,Male,2024-04-05_10h00.08.974,jersey_experiment_5_v0,2023.2.2,Win32,84.74576271,,,,,,,,,,,,,,,,49.0902,50.1368,50.1368,52.2075,return,0.3823,,0.130208333,0,1,1,25,1,FBP-YG-19.png,0.35,1.2,26,0.25,,,,,,,,,,,,,,,,,,,,,,,,,,,,,,,,,,,,,,,,,,,,,
,,,,,SPR24_005,20,Male,2024-04-05_10h00.08.974,jersey_experiment_5_v0,2023.2.2,Win32,84.74576271,,,,,,,,,,,,,,,,52.2077,53.2545,53.2545,54.5488,return,0.2235,,44.27083333,0,2,2,21,1,FBP-YG-18.png,0.37,1.2,22,0.25,,,,,,,,,,,,,,,,,,,,,,,,,,,,,,,,,,,,,,,,,,,,,
,,,,,SPR24_005,20,Male,2024-04-05_10h00.08.974,jersey_experiment_5_v0,2023.2.2,Win32,84.74576271,,,,,,,,,,,,,,,,54.5489,55.5958,55.5958,56.6783,return,0.2599,,61.06770833,0,3,3,51,1,FBP-PT-18.png,0.37,1.2,52,0.25,,,,,,,,,,,,,,,,,,,,,,,,,,,,,,,,,,,,,,,,,,,,,
,,,,,SPR24_005,20,Male,2024-04-05_10h00.08.974,jersey_experiment_5_v0,2023.2.2,Win32,84.74576271,,,,,,,,,,,,,,,,56.6785,57.9723,57.9725,59.2666,return,0.3215,,68.88020833,0,4,4,36,1,FBP-RB-18.png,0.37,1.2,37,0.5,,,,,,,,,,,,,,,,,,,,,,,,,,,,,,,,,,,,,,,,,,,,,
,,,,,SPR24_005,20,Male,2024-04-05_10h00.08.974,jersey_experiment_5_v0,2023.2.2,Win32,84.74576271,,,,,,,,,,,,,,,,59.2668,60.3135,60.3135,62.0198,return,0.189,,99.86979167,0,5,5,29,1,FBP-YG-19.png,0.45,1.2,30,0.25,,,,,,,,,,,,,,,,,,,,,,,,,,,,,,,,,,,,,,,,,,,,,
,,,,,SPR24_005,20,Male,2024-04-05_10h00.08.974,jersey_experiment_5_v0,2023.2.2,Win32,84.74576271,,,,,,,,,,,,,,,,62.02,63.0666,63.0667,64.1141,return,0.1576,,92.05729167,0,6,6,23,1,FBP-YG-18.png,0.43,1.2,24,0.25,,,,,,,,,,,,,,,,,,,,,,,,,,,,,,,,,,,,,,,,,,,,,
,,,,,SPR24_005,20,Male,2024-04-05_10h00.08.974,jersey_experiment_5_v0,2023.2.2,Win32,84.74576271,,,,,,,,,,,,,,,,64.1143,65.4079,65.4079,67.8787,return,0.8474,,49.86979167,0,7,7,10,1,FBP-OG-91.png,0.35,1.2,11,0.5,,,,,,,,,,,,,,,,,,,,,,,,,,,,,,,,,,,,,,,,,,,,,
,,,,,SPR24_005,20,Male,2024-04-05_10h00.08.974,jersey_experiment_5_v0,2023.2.2,Win32,84.74576271,,,,,,,,,,,,,,,,67.8789,69.1728,69.1728,70.1612,return,0.1678,,99.21875,0,8,8,33,1,FBP-RB-17.png,0.43,1.2,34,0.5,,,,,,,,,,,,,,,,,,,,,,,,,,,,,,,,,,,,,,,,,,,,,
,,,,,SPR24_005,20,Male,2024-04-05_10h00.08.974,jersey_experiment_5_v0,2023.2.2,Win32,84.74576271,,,,,,,,,,,,,,,,70.1614,71.4552,71.4552,72.5022,return,0.1651,,73.17708333,0,9,9,30,1,FBP-RB-17.png,0.35,1.2,31,0.5,,,,,,,,,,,,,,,,,,,,,,,,,,,,,,,,,,,,,,,,,,,,,
,,,,,SPR24_005,20,Male,2024-04-05_10h00.08.974,jersey_experiment_5_v0,2023.2.2,Win32,84.74576271,,,,,,,,,,,,,,,,72.5023,73.7964,73.7964,74.8788,return,0.2431,,78.125,0,10,10,0,1,FBP-OG-71.png,0.35,1.2,1,0.5,,,,,,,,,,,,,,,,,,,,,,,,,,,,,,,,,,,,,,,,,,,,,
,,,,,SPR24_005,20,Male,2024-04-05_10h00.08.974,jersey_experiment_5_v0,2023.2.2,Win32,84.74576271,,,,,,,,,,,,,,,,74.8791,76.173,76.1731,77.4439,return,0.4499,,100,0,11,11,38,1,FBP-RB-18.png,0.43,1.2,39,0.5,,,,,,,,,,,,,,,,,,,,,,,,,,,,,,,,,,,,,,,,,,,,,
,,,,,SPR24_005,20,Male,2024-04-05_10h00.08.974,jersey_experiment_5_v0,2023.2.2,Win32,84.74576271,,,,,,,,,,,,,,,,77.4441,78.4907,78.4907,80.4084,return,0.1416,,82.03125,0,12,12,26,1,FBP-YG-19.png,0.37,1.2,27,0.25,,,,,,,,,,,,,,,,,,,,,,,,,,,,,,,,,,,,,,,,,,,,,
,,,,,SPR24_005,20,Male,2024-04-05_10h00.08.974,jersey_experiment_5_v0,2023.2.2,Win32,84.74576271,,,,,,,,,,,,,,,,80.4086,81.4554,81.4554,82.7028,return,0.114,,99.86979167,0,13,13,55,1,FBP-PT-19.png,0.35,1.2,56,0.25,,,,,,,,,,,,,,,,,,,,,,,,,,,,,,,,,,,,,,,,,,,,,
,,,,,SPR24_005,20,Male,2024-04-05_10h00.08.974,jersey_experiment_5_v0,2023.2.2,Win32,84.74576271,,,,,,,,,,,,,,,,82.703,83.997,83.9971,85.3029,return,0.1041,,99.73958333,0,14,14,8,1,FBP-OG-81.png,0.43,1.2,9,0.5,,,,,,,,,,,,,,,,,,,,,,,,,,,,,,,,,,,,,,,,,,,,,
,,,,,SPR24_005,20,Male,2024-04-05_10h00.08.974,jersey_experiment_5_v0,2023.2.2,Win32,84.74576271,,,,,,,,,,,,,,,,85.303,86.5969,86.5969,89.5029,return,1.5355,,92.96875,0,15,15,12,1,FBP-OG-91.png,0.4,1.2,13,0.5,,,,,,,,,,,,,,,,,,,,,,,,,,,,,,,,,,,,,,,,,,,,,
,,,,,SPR24_005,20,Male,2024-04-05_10h00.08.974,jersey_experiment_5_v0,2023.2.2,Win32,84.74576271,,,,,,,,,,,,,,,,89.503,90.797,90.797,91.9381,return,0.122,,78.25520833,0,16,16,43,1,FBP-RB-19.png,0.43,1.2,44,0.5,,,,,,,,,,,,,,,,,,,,,,,,,,,,,,,,,,,,,,,,,,,,,
,,,,,SPR24_005,20,Male,2024-04-05_10h00.08.974,jersey_experiment_5_v0,2023.2.2,Win32,84.74576271,,,,,,,,,,,,,,,,91.9383,92.9854,92.9854,96.5151,return,1.7899,,23.046875,0,17,17,50,1,FBP-PT-18.png,0.35,1.2,51,0.25,,,,,,,,,,,,,,,,,,,,,,,,,,,,,,,,,,,,,,,,,,,,,
,,,,,SPR24_005,20,Male,2024-04-05_10h00.08.974,jersey_experiment_5_v0,2023.2.2,Win32,84.74576271,,,,,,,,,,,,,,,,96.5154,97.8091,97.8092,98.8799,return,0.1007,,100,0,18,18,3,1,FBP-OG-71.png,0.43,1.2,4,0.5,,,,,,,,,,,,,,,,,,,,,,,,,,,,,,,,,,,,,,,,,,,,,
,,,,,SPR24_005,20,Male,2024-04-05_10h00.08.974,jersey_experiment_5_v0,2023.2.2,Win32,84.74576271,,,,,,,,,,,,,,,,98.8801,99.9267,99.9267,101.3034,return,0.212,,77.08333333,0,19,19,52,1,FBP-PT-18.png,0.4,1.2,53,0.25,,,,,,,,,,,,,,,,,,,,,,,,,,,,,,,,,,,,,,,,,,,,,
,,,,,SPR24_005,20,Male,2024-04-05_10h00.08.974,jersey_experiment_5_v0,2023.2.2,Win32,84.74576271,,,,,,,,,,,,,,,,101.3036,102.3504,102.3505,103.9741,return,0.3071,,49.86979167,0,20,20,56,1,FBP-PT-19.png,0.37,1.2,57,0.25,,,,,,,,,,,,,,,,,,,,,,,,,,,,,,,,,,,,,,,,,,,,,
,,,,,SPR24_005,20,Male,2024-04-05_10h00.08.974,jersey_experiment_5_v0,2023.2.2,Win32,84.74576271,,,,,,,,,,,,,,,,103.9743,105.268,105.2681,106.398,return,0.2088,,82.55208333,0,21,21,13,1,FBP-OG-91.png,0.43,1.2,14,0.5,,,,,,,,,,,,,,,,,,,,,,,,,,,,,,,,,,,,,,,,,,,,,
,,,,,SPR24_005,20,Male,2024-04-05_10h00.08.974,jersey_experiment_5_v0,2023.2.2,Win32,84.74576271,,,,,,,,,,,,,,,,106.3982,107.4447,107.4447,108.8564,return,0.1417,,75.91145833,0,22,22,53,1,FBP-PT-18.png,0.43,1.2,54,0.25,,,,,,,,,,,,,,,,,,,,,,,,,,,,,,,,,,,,,,,,,,,,,
,,,,,SPR24_005,20,Male,2024-04-05_10h00.08.974,jersey_experiment_5_v0,2023.2.2,Win32,84.74576271,,,,,,,,,,,,,,,,108.8565,109.9038,109.9038,111.1862,return,0.1455,,100,0,23,23,57,1,FBP-PT-19.png,0.4,1.2,58,0.25,,,,,,,,,,,,,,,,,,,,,,,,,,,,,,,,,,,,,,,,,,,,,
,,,,,SPR24_005,20,Male,2024-04-05_10h00.08.974,jersey_experiment_5_v0,2023.2.2,Win32,84.74576271,,,,,,,,,,,,,,,,111.1864,112.2332,112.2333,113.4919,return,0.1307,,72.13541667,0,24,24,27,1,FBP-YG-19.png,0.4,1.2,28,0.25,,,,,,,,,,,,,,,,,,,,,,,,,,,,,,,,,,,,,,,,,,,,,
,,,,,SPR24_005,20,Male,2024-04-05_10h00.08.974,jersey_experiment_5_v0,2023.2.2,Win32,84.74576271,,,,,,,,,,,,,,,,113.4922,114.7862,114.7863,115.5978,return,0.1145,,100,0,25,25,44,1,FBP-RB-19.png,0.45,1.2,45,0.5,,,,,,,,,,,,,,,,,,,,,,,,,,,,,,,,,,,,,,,,,,,,,
,,,,,SPR24_005,20,Male,2024-04-05_10h00.08.974,jersey_experiment_5_v0,2023.2.2,Win32,84.74576271,,,,,,,,,,,,,,,,115.5979,116.6449,116.6449,119.7039,return,1.5529,,72.39583333,0,26,26,16,1,FBP-YG-17.png,0.37,1.2,17,0.25,,,,,,,,,,,,,,,,,,,,,,,,,,,,,,,,,,,,,,,,,,,,,
,,,,,SPR24_005,20,Male,2024-04-05_10h00.08.974,jersey_experiment_5_v0,2023.2.2,Win32,84.74576271,,,,,,,,,,,,,,,,119.7041,120.9981,120.9982,122.9982,return,1.0122,,37.63020833,0,27,27,11,1,FBP-OG-91.png,0.37,1.2,12,0.5,,,,,,,,,,,,,,,,,,,,,,,,,,,,,,,,,,,,,,,,,,,,,
,,,,,SPR24_005,20,Male,2024-04-05_10h00.08.974,jersey_experiment_5_v0,2023.2.2,Win32,84.74576271,,,,,,,,,,,,,,,,122.9985,124.2922,124.2922,125.3279,return,0.11,,100,0,28,28,4,1,FBP-OG-71.png,0.45,1.2,5,0.5,,,,,,,,,,,,,,,,,,,,,,,,,,,,,,,,,,,,,,,,,,,,,
,,,,,SPR24_005,20,Male,2024-04-05_10h00.08.974,jersey_experiment_5_v0,2023.2.2,Win32,84.74576271,,,,,,,,,,,,,,,,125.3281,126.3748,126.3748,128.3867,return,0.2014,,99.86979167,0,29,29,59,1,FBP-PT-19.png,0.45,1.2,60,0.25,,,,,,,,,,,,,,,,,,,,,,,,,,,,,,,,,,,,,,,,,,,,,
,,,,,SPR24_005,20,Male,2024-04-05_10h00.08.974,jersey_experiment_5_v0,2023.2.2,Win32,84.74576271,,,,,,,,,,,,,,,,128.387,129.6811,129.6811,131.1279,return,0.5647,,74.73958333,0,30,30,14,1,FBP-OG-91.png,0.45,1.2,15,0.5,,,,,,,,,,,,,,,,,,,,,,,,,,,,,,,,,,,,,,,,,,,,,
,,,,,SPR24_005,20,Male,2024-04-05_10h00.08.974,jersey_experiment_5_v0,2023.2.2,Win32,84.74576271,,,,,,,,,,,,,,,,131.1282,132.4222,132.4222,134.3397,return,0.1069,,51.82291667,0,31,31,42,1,FBP-RB-19.png,0.4,1.2,43,0.5,,,,,,,,,,,,,,,,,,,,,,,,,,,,,,,,,,,,,,,,,,,,,
,,,,,SPR24_005,20,Male,2024-04-05_10h00.08.974,jersey_experiment_5_v0,2023.2.2,Win32,84.74576271,,,,,,,,,,,,,,,,134.34,135.634,135.634,136.834,return,0.1792,,85.41666667,0,32,32,34,1,FBP-RB-17.png,0.45,1.2,35,0.5,,,,,,,,,,,,,,,,,,,,,,,,,,,,,,,,,,,,,,,,,,,,,
,,,,,SPR24_005,20,Male,2024-04-05_10h00.08.974,jersey_experiment_5_v0,2023.2.2,Win32,84.74576271,,,,,,,,,,,,,,,,136.8342,138.128,138.128,140.3048,return,0.121,,8.984375,0,33,33,41,1,FBP-RB-19.png,0.37,1.2,42,0.5,,,,,,,,,,,,,,,,,,,,,,,,,,,,,,,,,,,,,,,,,,,,,
,,,,,SPR24_005,20,Male,2024-04-05_10h00.08.974,jersey_experiment_5_v0,2023.2.2,Win32,84.74576271,,,,,,,,,,,,,,,,140.305,141.5988,141.5989,150.7403,return,0.6475,,2.604166667,0,34,34,40,1,FBP-RB-19.png,0.35,1.2,41,0.5,,,,,,,,,,,,,,,,,,,,,,,,,,,,,,,,,,,,,,,,,,,,,
,,,,,SPR24_005,20,Male,2024-04-05_10h00.08.974,jersey_experiment_5_v0,2023.2.2,Win32,84.74576271,,,,,,,,,,,,,,,,150.7404,152.0347,152.0347,153.5288,return,0.2826,,28.515625,0,35,35,32,1,FBP-RB-17.png,0.4,1.2,33,0.5,,,,,,,,,,,,,,,,,,,,,,,,,,,,,,,,,,,,,,,,,,,,,
,,,,,SPR24_005,20,Male,2024-04-05_10h00.08.974,jersey_experiment_5_v0,2023.2.2,Win32,84.74576271,,,,,,,,,,,,,,,,153.5291,154.5757,154.5758,155.9052,return,0.0881,,69.01041667,0,36,36,19,1,FBP-YG-17.png,0.45,1.2,20,0.25,,,,,,,,,,,,,,,,,,,,,,,,,,,,,,,,,,,,,,,,,,,,,
,,,,,SPR24_005,20,Male,2024-04-05_10h00.08.974,jersey_experiment_5_v0,2023.2.2,Win32,84.74576271,,,,,,,,,,,,,,,,155.9054,156.9522,156.9522,158.0701,return,0.1308,,72.91666667,0,37,37,17,1,FBP-YG-17.png,0.4,1.2,18,0.25,,,,,,,,,,,,,,,,,,,,,,,,,,,,,,,,,,,,,,,,,,,,,
,,,,,SPR24_005,20,Male,2024-04-05_10h00.08.974,jersey_experiment_5_v0,2023.2.2,Win32,84.74576271,,,,,,,,,,,,,,,,158.0703,159.117,159.117,160.2113,return,0.0717,,89.84375,0,38,38,28,1,FBP-YG-19.png,0.43,1.2,29,0.25,,,,,,,,,,,,,,,,,,,,,,,,,,,,,,,,,,,,,,,,,,,,,
,,,,,SPR24_005,20,Male,2024-04-05_10h00.08.974,jersey_experiment_5_v0,2023.2.2,Win32,84.74576271,,,,,,,,,,,,,,,,160.2115,161.2582,161.2583,163.1293,return,0.7995,,24.08854167,0,39,39,20,1,FBP-YG-18.png,0.35,1.2,21,0.25,,,,,,,,,,,,,,,,,,,,,,,,,,,,,,,,,,,,,,,,,,,,,
,,,,,SPR24_005,20,Male,2024-04-05_10h00.08.974,jersey_experiment_5_v0,2023.2.2,Win32,84.74576271,,,,,,,,,,,,,,,,163.1295,164.1761,164.1761,165.1881,return,0.1538,,1.302083333,0,40,40,22,1,FBP-YG-18.png,0.4,1.2,23,0.25,,,,,,,,,,,,,,,,,,,,,,,,,,,,,,,,,,,,,,,,,,,,,
,,,,,SPR24_005,20,Male,2024-04-05_10h00.08.974,jersey_experiment_5_v0,2023.2.2,Win32,84.74576271,,,,,,,,,,,,,,,,165.1884,166.2351,166.2351,167.2823,return,0.1689,,99.609375,0,41,41,24,1,FBP-YG-18.png,0.45,1.2,25,0.25,,,,,,,,,,,,,,,,,,,,,,,,,,,,,,,,,,,,,,,,,,,,,
,,,,,SPR24_005,20,Male,2024-04-05_10h00.08.974,jersey_experiment_5_v0,2023.2.2,Win32,84.74576271,,,,,,,,,,,,,,,,167.2824,168.5765,168.5765,169.8233,return,0.1251,,50.26041667,0,42,42,2,1,FBP-OG-71.png,0.4,1.2,3,0.5,,,,,,,,,,,,,,,,,,,,,,,,,,,,,,,,,,,,,,,,,,,,,
,,,,,SPR24_005,20,Male,2024-04-05_10h00.08.974,jersey_experiment_5_v0,2023.2.2,Win32,84.74576271,,,,,,,,,,,,,,,,169.8236,171.1174,171.1174,173.553,return,0.1212,,46.09375,0,43,43,7,1,FBP-OG-81.png,0.4,1.2,8,0.5,,,,,,,,,,,,,,,,,,,,,,,,,,,,,,,,,,,,,,,,,,,,,
,,,,,SPR24_005,20,Male,2024-04-05_10h00.08.974,jersey_experiment_5_v0,2023.2.2,Win32,84.74576271,,,,,,,,,,,,,,,,173.5532,174.8472,174.8472,175.5767,return,0.1422,,94.79166667,0,44,44,9,1,FBP-OG-81.png,0.45,1.2,10,0.5,,,,,,,,,,,,,,,,,,,,,,,,,,,,,,,,,,,,,,,,,,,,,
,,,,,SPR24_005,20,Male,2024-04-05_10h00.08.974,jersey_experiment_5_v0,2023.2.2,Win32,84.74576271,,,,,,,,,,,,,,,,175.5769,176.6238,176.6238,177.9532,return,0.0975,,1.822916667,0,45,45,15,1,FBP-YG-17.png,0.35,1.2,16,0.25,,,,,,,,,,,,,,,,,,,,,,,,,,,,,,,,,,,,,,,,,,,,,
,,,,,SPR24_005,20,Male,2024-04-05_10h00.08.974,jersey_experiment_5_v0,2023.2.2,Win32,84.74576271,,,,,,,,,,,,,,,,177.9534,179.0004,179.0004,180.0709,return,0.1884,,32.94270833,0,46,46,46,1,FBP-PT-17.png,0.37,1.2,47,0.25,,,,,,,,,,,,,,,,,,,,,,,,,,,,,,,,,,,,,,,,,,,,,
,,,,,SPR24_005,20,Male,2024-04-05_10h00.08.974,jersey_experiment_5_v0,2023.2.2,Win32,84.74576271,,,,,,,,,,,,,,,,180.071,181.365,181.3651,182.4355,return,0.073,,1.432291667,0,47,47,35,1,FBP-RB-18.png,0.35,1.2,36,0.5,,,,,,,,,,,,,,,,,,,,,,,,,,,,,,,,,,,,,,,,,,,,,
,,,,,SPR24_005,20,Male,2024-04-05_10h00.08.974,jersey_experiment_5_v0,2023.2.2,Win32,84.74576271,,,,,,,,,,,,,,,,182.4358,183.4828,183.4828,184.5533,return,0.0473,,14.19270833,0,48,48,45,1,FBP-PT-17.png,0.35,1.2,46,0.25,,,,,,,,,,,,,,,,,,,,,,,,,,,,,,,,,,,,,,,,,,,,,
,,,,,SPR24_005,20,Male,2024-04-05_10h00.08.974,jersey_experiment_5_v0,2023.2.2,Win32,84.74576271,,,,,,,,,,,,,,,,184.5536,185.8476,185.8476,188.3771,return,0.4384,,2.083333333,0,49,49,5,1,FBP-OG-81.png,0.35,1.2,6,0.5,,,,,,,,,,,,,,,,,,,,,,,,,,,,,,,,,,,,,,,,,,,,,
,,,,,SPR24_005,20,Male,2024-04-05_10h00.08.974,jersey_experiment_5_v0,2023.2.2,Win32,84.74576271,,,,,,,,,,,,,,,,188.3773,189.424,189.424,190.8244,return,0.0946,,70.96354167,0,50,50,47,1,FBP-PT-17.png,0.4,1.2,48,0.25,,,,,,,,,,,,,,,,,,,,,,,,,,,,,,,,,,,,,,,,,,,,,
,,,,,SPR24_005,20,Male,2024-04-05_10h00.08.974,jersey_experiment_5_v0,2023.2.2,Win32,84.74576271,,,,,,,,,,,,,,,,190.8247,192.1185,192.1185,192.9655,return,0.0834,,99.34895833,0,51,51,39,1,FBP-RB-18.png,0.45,1.2,40,0.5,,,,,,,,,,,,,,,,,,,,,,,,,,,,,,,,,,,,,,,,,,,,,
,,,,,SPR24_005,20,Male,2024-04-05_10h00.08.974,jersey_experiment_5_v0,2023.2.2,Win32,84.74576271,,,,,,,,,,,,,,,,192.9656,194.0125,194.0125,194.9654,return,0.0849,,98.046875,0,52,52,58,1,FBP-PT-19.png,0.43,1.2,59,0.25,,,,,,,,,,,,,,,,,,,,,,,,,,,,,,,,,,,,,,,,,,,,,
,,,,,SPR24_005,20,Male,2024-04-05_10h00.08.974,jersey_experiment_5_v0,2023.2.2,Win32,84.74576271,,,,,,,,,,,,,,,,194.9657,196.2597,196.2597,197.2832,return,0.0742,,49.86979167,0,53,53,31,1,FBP-RB-17.png,0.37,1.2,32,0.5,,,,,,,,,,,,,,,,,,,,,,,,,,,,,,,,,,,,,,,,,,,,,
,,,,,SPR24_005,20,Male,2024-04-05_10h00.08.974,jersey_experiment_5_v0,2023.2.2,Win32,84.74576271,,,,,,,,,,,,,,,,197.2834,198.3303,198.3304,199.6009,return,0.4973,,76.953125,0,54,54,48,1,FBP-PT-17.png,0.43,1.2,49,0.25,,,,,,,,,,,,,,,,,,,,,,,,,,,,,,,,,,,,,,,,,,,,,
,,,,,SPR24_005,20,Male,2024-04-05_10h00.08.974,jersey_experiment_5_v0,2023.2.2,Win32,84.74576271,,,,,,,,,,,,,,,,199.6012,200.6479,200.648,201.5187,return,0.1123,,98.4375,0,55,55,54,1,FBP-PT-18.png,0.45,1.2,55,0.25,,,,,,,,,,,,,,,,,,,,,,,,,,,,,,,,,,,,,,,,,,,,,
,,,,,SPR24_005,20,Male,2024-04-05_10h00.08.974,jersey_experiment_5_v0,2023.2.2,Win32,84.74576271,,,,,,,,,,,,,,,,201.5189,202.5657,202.5657,203.5422,return,0.0574,,75.65104167,0,56,56,18,1,FBP-YG-17.png,0.43,1.2,19,0.25,,,,,,,,,,,,,,,,,,,,,,,,,,,,,,,,,,,,,,,,,,,,,
,,,,,SPR24_005,20,Male,2024-04-05_10h00.08.974,jersey_experiment_5_v0,2023.2.2,Win32,84.74576271,,,,,,,,,,,,,,,,203.5425,204.8363,204.8364,205.7424,return,0.0905,,26.953125,0,57,57,37,1,FBP-RB-18.png,0.4,1.2,38,0.5,,,,,,,,,,,,,,,,,,,,,,,,,,,,,,,,,,,,,,,,,,,,,
,,,,,SPR24_005,20,Male,2024-04-05_10h00.08.974,jersey_experiment_5_v0,2023.2.2,Win32,84.74576271,,,,,,,,,,,,,,,,205.7427,207.0367,207.0368,207.8483,return,0.0945,,4.427083333,0,58,58,1,1,FBP-OG-71.png,0.37,1.2,2,0.5,,,,,,,,,,,,,,,,,,,,,,,,,,,,,,,,,,,,,,,,,,,,,
,,,,,SPR24_005,20,Male,2024-04-05_10h00.08.974,jersey_experiment_5_v0,2023.2.2,Win32,84.74576271,,,,,,,,,,,,,,,,207.8486,209.1424,209.1424,210.1426,return,0.077,,24.73958333,0,59,59,6,1,FBP-OG-81.png,0.37,1.2,7,0.5,,,,,,,,,,,,,,,,,,,,,,,,,,,,,,,,,,,,,,,,,,,,,
,,,,,SPR24_005,20,Male,2024-04-05_10h00.08.974,jersey_experiment_5_v0,2023.2.2,Win32,84.74576271,,,,,,,,,,,,,,,,210.1446,211.4366,211.4367,212.9778,return,0.0521,,50.13020833,,,,,,FBP-OG-17.png,0.4,1.2,3,0.5,0,0,0,2,1,,,,,,,,,,,,,,,,,,,,,,,,,,,,,,,,,,,,,,,,
,,,,,SPR24_005,20,Male,2024-04-05_10h00.08.974,jersey_experiment_5_v0,2023.2.2,Win32,84.74576271,,,,,,,,,,,,,,,,212.9781,214.0249,214.025,215.1191,return,0.0644,,75.52083333,,,,,,FBP-YG-91.png,0.45,1.2,30,0.25,0,1,1,29,1,,,,,,,,,,,,,,,,,,,,,,,,,,,,,,,,,,,,,,,,
,,,,,SPR24_005,20,Male,2024-04-05_10h00.08.974,jersey_experiment_5_v0,2023.2.2,Win32,84.74576271,,,,,,,,,,,,,,,,215.1193,216.1662,216.1662,217.3192,return,0.0843,,76.30208333,,,,,,FBP-PT-81.png,0.4,1.2,53,0.25,0,2,2,52,1,,,,,,,,,,,,,,,,,,,,,,,,,,,,,,,,,,,,,,,,
,,,,,SPR24_005,20,Male,2024-04-05_10h00.08.974,jersey_experiment_5_v0,2023.2.2,Win32,84.74576271,,,,,,,,,,,,,,,,217.3195,218.6135,218.6135,219.3782,return,0.0367,,75.26041667,,,,,,FBP-RB-91.png,0.43,1.2,44,0.5,0,3,3,43,1,,,,,,,,,,,,,,,,,,,,,,,,,,,,,,,,,,,,,,,,
,,,,,SPR24_005,20,Male,2024-04-05_10h00.08.974,jersey_experiment_5_v0,2023.2.2,Win32,84.74576271,,,,,,,,,,,,,,,,219.3784,220.4251,220.4251,221.4957,return,0.0472,,75.13020833,,,,,,FBP-PT-91.png,0.4,1.2,58,0.25,0,4,4,57,1,,,,,,,,,,,,,,,,,,,,,,,,,,,,,,,,,,,,,,,,
,,,,,SPR24_005,20,Male,2024-04-05_10h00.08.974,jersey_experiment_5_v0,2023.2.2,Win32,84.74576271,,,,,,,,,,,,,,,,221.4959,222.5429,222.5429,223.3432,return,0.0525,,91.015625,,,,,,FBP-PT-71.png,0.43,1.2,49,0.25,0,5,5,48,1,,,,,,,,,,,,,,,,,,,,,,,,,,,,,,,,,,,,,,,,
,,,,,SPR24_005,20,Male,2024-04-05_10h00.08.974,jersey_experiment_5_v0,2023.2.2,Win32,84.74576271,,,,,,,,,,,,,,,,223.3434,224.6372,224.6372,225.555,return,0.0954,,15.10416667,,,,,,FBP-RB-71.png,0.35,1.2,31,0.5,0,6,6,30,1,,,,,,,,,,,,,,,,,,,,,,,,,,,,,,,,,,,,,,,,
,,,,,SPR24_005,20,Male,2024-04-05_10h00.08.974,jersey_experiment_5_v0,2023.2.2,Win32,84.74576271,,,,,,,,,,,,,,,,225.5552,226.849,226.849,227.8491,return,0.0943,,97.00520833,,,,,,FBP-OG-19.png,0.45,1.2,15,0.5,0,7,7,14,1,,,,,,,,,,,,,,,,,,,,,,,,,,,,,,,,,,,,,,,,
,,,,,SPR24_005,20,Male,2024-04-05_10h00.08.974,jersey_experiment_5_v0,2023.2.2,Win32,84.74576271,,,,,,,,,,,,,,,,227.8494,229.1432,229.1433,230.0023,return,0.0258,,92.1875,,,,,,FBP-OG-18.png,0.45,1.2,10,0.5,0,8,8,9,1,,,,,,,,,,,,,,,,,,,,,,,,,,,,,,,,,,,,,,,,
,,,,,SPR24_005,20,Male,2024-04-05_10h00.08.974,jersey_experiment_5_v0,2023.2.2,Win32,84.74576271,,,,,,,,,,,,,,,,230.0026,231.049,231.049,231.7903,return,0.0537,,98.95833333,,,,,,FBP-PT-71.png,0.45,1.2,50,0.25,0,9,9,49,1,,,,,,,,,,,,,,,,,,,,,,,,,,,,,,,,,,,,,,,,
,,,,,SPR24_005,20,Male,2024-04-05_10h00.08.974,jersey_experiment_5_v0,2023.2.2,Win32,84.74576271,,,,,,,,,,,,,,,,231.7906,232.8374,232.8374,233.8964,return,0.1282,,15.49479167,,,,,,FBP-YG-81.png,0.35,1.2,21,0.25,0,10,10,20,1,,,,,,,,,,,,,,,,,,,,,,,,,,,,,,,,,,,,,,,,
,,,,,SPR24_005,20,Male,2024-04-05_10h00.08.974,jersey_experiment_5_v0,2023.2.2,Win32,84.74576271,,,,,,,,,,,,,,,,233.8965,234.9434,234.9435,236.1907,return,0.0673,,76.953125,,,,,,FBP-YG-71.png,0.45,1.2,20,0.25,0,11,11,19,1,,,,,,,,,,,,,,,,,,,,,,,,,,,,,,,,,,,,,,,,
,,,,,SPR24_005,20,Male,2024-04-05_10h00.08.974,jersey_experiment_5_v0,2023.2.2,Win32,84.74576271,,,,,,,,,,,,,,,,236.1909,237.4845,237.4846,238.7671,return,0.0645,,51.04166667,,,,,,FBP-RB-91.png,0.4,1.2,43,0.5,0,12,12,42,1,,,,,,,,,,,,,,,,,,,,,,,,,,,,,,,,,,,,,,,,
,,,,,SPR24_005,20,Male,2024-04-05_10h00.08.974,jersey_experiment_5_v0,2023.2.2,Win32,84.74576271,,,,,,,,,,,,,,,,238.7672,240.0612,240.0612,240.6965,return,0.0472,,75.52083333,,,,,,FBP-RB-91.png,0.45,1.2,45,0.5,0,13,13,44,1,,,,,,,,,,,,,,,,,,,,,,,,,,,,,,,,,,,,,,,,
,,,,,SPR24_005,20,Male,2024-04-05_10h00.08.974,jersey_experiment_5_v0,2023.2.2,Win32,84.74576271,,,,,,,,,,,,,,,,240.6967,241.7437,241.7437,242.4731,return,0.0475,,75,,,,,,FBP-PT-91.png,0.45,1.2,60,0.25,0,14,14,59,1,,,,,,,,,,,,,,,,,,,,,,,,,,,,,,,,,,,,,,,,
,,,,,SPR24_005,20,Male,2024-04-05_10h00.08.974,jersey_experiment_5_v0,2023.2.2,Win32,84.74576271,,,,,,,,,,,,,,,,242.4734,243.52,243.5201,244.5319,return,0.0594,,97.78645833,,,,,,FBP-PT-81.png,0.45,1.2,55,0.25,0,15,15,54,1,,,,,,,,,,,,,,,,,,,,,,,,,,,,,,,,,,,,,,,,
,,,,,SPR24_005,20,Male,2024-04-05_10h00.08.974,jersey_experiment_5_v0,2023.2.2,Win32,84.74576271,,,,,,,,,,,,,,,,244.5321,245.8262,245.8262,247.6026,return,0.9204,,3.125,,,,,,FBP-OG-19.png,0.37,1.2,12,0.5,0,16,16,11,1,,,,,,,,,,,,,,,,,,,,,,,,,,,,,,,,,,,,,,,,
,,,,,SPR24_005,20,Male,2024-04-05_10h00.08.974,jersey_experiment_5_v0,2023.2.2,Win32,84.74576271,,,,,,,,,,,,,,,,247.6028,248.6498,248.6498,249.544,return,0.1411,,24.73958333,,,,,,FBP-PT-81.png,0.37,1.2,52,0.25,0,17,17,51,1,,,,,,,,,,,,,,,,,,,,,,,,,,,,,,,,,,,,,,,,
,,,,,SPR24_005,20,Male,2024-04-05_10h00.08.974,jersey_experiment_5_v0,2023.2.2,Win32,84.74576271,,,,,,,,,,,,,,,,249.5442,250.8384,250.8384,252.003,return,0.0624,,73.4375,,,,,,FBP-RB-71.png,0.43,1.2,34,0.5,0,18,18,33,1,,,,,,,,,,,,,,,,,,,,,,,,,,,,,,,,,,,,,,,,
,,,,,SPR24_005,20,Male,2024-04-05_10h00.08.974,jersey_experiment_5_v0,2023.2.2,Win32,84.74576271,,,,,,,,,,,,,,,,252.0031,253.2971,253.2971,254.1441,return,0.0989,,51.171875,,,,,,FBP-OG-19.png,0.4,1.2,13,0.5,0,19,19,12,1,,,,,,,,,,,,,,,,,,,,,,,,,,,,,,,,,,,,,,,,
,,,,,SPR24_005,20,Male,2024-04-05_10h00.08.974,jersey_experiment_5_v0,2023.2.2,Win32,84.74576271,,,,,,,,,,,,,,,,254.1443,255.4382,255.4383,255.8148,return,0.0613,,50.390625,,,,,,FBP-OG-17.png,0.37,1.2,2,0.5,0,20,20,1,1,,,,,,,,,,,,,,,,,,,,,,,,,,,,,,,,,,,,,,,,
,,,,,SPR24_005,20,Male,2024-04-05_10h00.08.974,jersey_experiment_5_v0,2023.2.2,Win32,84.74576271,,,,,,,,,,,,,,,,255.8151,257.1088,257.1088,257.6146,return,0.0784,,49.08854167,,,,,,FBP-OG-18.png,0.4,1.2,8,0.5,0,21,21,7,1,,,,,,,,,,,,,,,,,,,,,,,,,,,,,,,,,,,,,,,,
,,,,,SPR24_005,20,Male,2024-04-05_10h00.08.974,jersey_experiment_5_v0,2023.2.2,Win32,84.74576271,,,,,,,,,,,,,,,,257.6148,258.9089,258.9089,259.7208,return,0.1409,,26.5625,,,,,,FBP-OG-18.png,0.35,1.2,6,0.5,0,22,22,5,1,,,,,,,,,,,,,,,,,,,,,,,,,,,,,,,,,,,,,,,,
,,,,,SPR24_005,20,Male,2024-04-05_10h00.08.974,jersey_experiment_5_v0,2023.2.2,Win32,84.74576271,,,,,,,,,,,,,,,,259.721,261.0151,261.0151,262.1444,return,0.112,,59.11458333,,,,,,FBP-OG-18.png,0.43,1.2,9,0.5,0,23,23,8,1,,,,,,,,,,,,,,,,,,,,,,,,,,,,,,,,,,,,,,,,
,,,,,SPR24_005,20,Male,2024-04-05_10h00.08.974,jersey_experiment_5_v0,2023.2.2,Win32,84.74576271,,,,,,,,,,,,,,,,262.1447,263.1915,263.1915,264.3679,return,0.0539,,73.56770833,,,,,,FBP-PT-81.png,0.43,1.2,54,0.25,0,24,24,53,1,,,,,,,,,,,,,,,,,,,,,,,,,,,,,,,,,,,,,,,,
,,,,,SPR24_005,20,Male,2024-04-05_10h00.08.974,jersey_experiment_5_v0,2023.2.2,Win32,84.74576271,,,,,,,,,,,,,,,,264.3681,265.6622,265.6623,266.8621,return,0.0885,,41.27604167,,,,,,FBP-RB-91.png,0.37,1.2,42,0.5,0,25,25,41,1,,,,,,,,,,,,,,,,,,,,,,,,,,,,,,,,,,,,,,,,
,,,,,SPR24_005,20,Male,2024-04-05_10h00.08.974,jersey_experiment_5_v0,2023.2.2,Win32,84.74576271,,,,,,,,,,,,,,,,266.8623,267.9092,267.9092,268.9917,return,0.076,,22.00520833,,,,,,FBP-PT-81.png,0.35,1.2,51,0.25,0,26,26,50,1,,,,,,,,,,,,,,,,,,,,,,,,,,,,,,,,,,,,,,,,
,,,,,SPR24_005,20,Male,2024-04-05_10h00.08.974,jersey_experiment_5_v0,2023.2.2,Win32,84.74576271,,,,,,,,,,,,,,,,268.9918,270.0389,270.039,271.027,return,0.1553,,38.02083333,,,,,,FBP-YG-81.png,0.4,1.2,23,0.25,0,27,27,22,1,,,,,,,,,,,,,,,,,,,,,,,,,,,,,,,,,,,,,,,,
,,,,,SPR24_005,20,Male,2024-04-05_10h00.08.974,jersey_experiment_5_v0,2023.2.2,Win32,84.74576271,,,,,,,,,,,,,,,,271.0273,272.0742,272.0742,273.1918,return,0.0566,,26.30208333,,,,,,FBP-YG-71.png,0.37,1.2,17,0.25,0,28,28,16,1,,,,,,,,,,,,,,,,,,,,,,,,,,,,,,,,,,,,,,,,
,,,,,SPR24_005,20,Male,2024-04-05_10h00.08.974,jersey_experiment_5_v0,2023.2.2,Win32,84.74576271,,,,,,,,,,,,,,,,273.1919,274.4861,274.4861,275.2508,return,0.1193,,67.70833333,,,,,,FBP-RB-71.png,0.4,1.2,33,0.5,0,29,29,32,1,,,,,,,,,,,,,,,,,,,,,,,,,,,,,,,,,,,,,,,,
,,,,,SPR24_005,20,Male,2024-04-05_10h00.08.974,jersey_experiment_5_v0,2023.2.2,Win32,84.74576271,,,,,,,,,,,,,,,,275.251,276.2978,276.2978,277.7685,return,0.6732,,58.72395833,,,,,,FBP-YG-71.png,0.4,1.2,18,0.25,0,30,30,17,1,,,,,,,,,,,,,,,,,,,,,,,,,,,,,,,,,,,,,,,,
,,,,,SPR24_005,20,Male,2024-04-05_10h00.08.974,jersey_experiment_5_v0,2023.2.2,Win32,84.74576271,,,,,,,,,,,,,,,,277.7688,279.0627,279.0628,279.9095,return,0.0476,,84.11458333,,,,,,FBP-RB-81.png,0.45,1.2,40,0.5,0,31,31,39,1,,,,,,,,,,,,,,,,,,,,,,,,,,,,,,,,,,,,,,,,
,,,,,SPR24_005,20,Male,2024-04-05_10h00.08.974,jersey_experiment_5_v0,2023.2.2,Win32,84.74576271,,,,,,,,,,,,,,,,279.9098,280.9567,280.9568,281.957,return,0.0612,,51.04166667,,,,,,FBP-PT-71.png,0.4,1.2,48,0.25,0,32,32,47,1,,,,,,,,,,,,,,,,,,,,,,,,,,,,,,,,,,,,,,,,
,,,,,SPR24_005,20,Male,2024-04-05_10h00.08.974,jersey_experiment_5_v0,2023.2.2,Win32,84.74576271,,,,,,,,,,,,,,,,281.9573,283.2512,283.2512,284.1923,return,0.0749,,98.4375,,,,,,FBP-RB-71.png,0.45,1.2,35,0.5,0,33,33,34,1,,,,,,,,,,,,,,,,,,,,,,,,,,,,,,,,,,,,,,,,
,,,,,SPR24_005,20,Male,2024-04-05_10h00.08.974,jersey_experiment_5_v0,2023.2.2,Win32,84.74576271,,,,,,,,,,,,,,,,284.1925,285.2392,285.2393,286.1334,return,0.0951,,96.61458333,,,,,,FBP-YG-91.png,0.43,1.2,29,0.25,0,34,34,28,1,,,,,,,,,,,,,,,,,,,,,,,,,,,,,,,,,,,,,,,,
,,,,,SPR24_005,20,Male,2024-04-05_10h00.08.974,jersey_experiment_5_v0,2023.2.2,Win32,84.74576271,,,,,,,,,,,,,,,,286.1337,287.1807,287.1807,288.2746,return,0.0746,,49.08854167,,,,,,FBP-YG-71.png,0.35,1.2,16,0.25,0,35,35,15,1,,,,,,,,,,,,,,,,,,,,,,,,,,,,,,,,,,,,,,,,
,,,,,SPR24_005,20,Male,2024-04-05_10h00.08.974,jersey_experiment_5_v0,2023.2.2,Win32,84.74576271,,,,,,,,,,,,,,,,288.2749,289.3218,289.3218,290.1691,return,0.1167,,81.51041667,,,,,,FBP-PT-91.png,0.43,1.2,59,0.25,0,36,36,58,1,,,,,,,,,,,,,,,,,,,,,,,,,,,,,,,,,,,,,,,,
,,,,,SPR24_005,20,Male,2024-04-05_10h00.08.974,jersey_experiment_5_v0,2023.2.2,Win32,84.74576271,,,,,,,,,,,,,,,,290.1692,291.2159,291.2159,292.5338,return,0.0575,,49.08854167,,,,,,FBP-YG-91.png,0.37,1.2,27,0.25,0,37,37,26,1,,,,,,,,,,,,,,,,,,,,,,,,,,,,,,,,,,,,,,,,
,,,,,SPR24_005,20,Male,2024-04-05_10h00.08.974,jersey_experiment_5_v0,2023.2.2,Win32,84.74576271,,,,,,,,,,,,,,,,292.534,293.8279,293.8279,294.7221,return,0.3572,,51.82291667,,,,,,FBP-RB-81.png,0.37,1.2,37,0.5,0,38,38,36,1,,,,,,,,,,,,,,,,,,,,,,,,,,,,,,,,,,,,,,,,
,,,,,SPR24_005,20,Male,2024-04-05_10h00.08.974,jersey_experiment_5_v0,2023.2.2,Win32,84.74576271,,,,,,,,,,,,,,,,294.7223,295.7691,295.7692,296.9927,return,0.1353,,45.3125,,,,,,FBP-YG-91.png,0.35,1.2,26,0.25,0,39,39,25,1,,,,,,,,,,,,,,,,,,,,,,,,,,,,,,,,,,,,,,,,
,,,,,SPR24_005,20,Male,2024-04-05_10h00.08.974,jersey_experiment_5_v0,2023.2.2,Win32,84.74576271,,,,,,,,,,,,,,,,296.9929,298.2869,298.287,299.3456,return,0.1582,,63.93229167,,,,,,FBP-RB-81.png,0.4,1.2,38,0.5,0,40,40,37,1,,,,,,,,,,,,,,,,,,,,,,,,,,,,,,,,,,,,,,,,
,,,,,SPR24_005,20,Male,2024-04-05_10h00.08.974,jersey_experiment_5_v0,2023.2.2,Win32,84.74576271,,,,,,,,,,,,,,,,299.3459,300.3928,300.3928,301.6519,return,0.048,,69.66145833,,,,,,FBP-YG-81.png,0.37,1.2,22,0.25,0,41,41,21,1,,,,,,,,,,,,,,,,,,,,,,,,,,,,,,,,,,,,,,,,
,,,,,SPR24_005,20,Male,2024-04-05_10h00.08.974,jersey_experiment_5_v0,2023.2.2,Win32,84.74576271,,,,,,,,,,,,,,,,301.6521,302.6988,302.6988,303.5576,return,0.0939,,35.9375,,,,,,FBP-PT-71.png,0.35,1.2,46,0.25,0,42,42,45,1,,,,,,,,,,,,,,,,,,,,,,,,,,,,,,,,,,,,,,,,
,,,,,SPR24_005,20,Male,2024-04-05_10h00.08.974,jersey_experiment_5_v0,2023.2.2,Win32,84.74576271,,,,,,,,,,,,,,,,303.5578,304.6046,304.6046,306.8872,return,0.1652,,75.13020833,,,,,,FBP-PT-71.png,0.37,1.2,47,0.25,0,43,43,46,1,,,,,,,,,,,,,,,,,,,,,,,,,,,,,,,,,,,,,,,,
,,,,,SPR24_005,20,Male,2024-04-05_10h00.08.974,jersey_experiment_5_v0,2023.2.2,Win32,84.74576271,,,,,,,,,,,,,,,,306.8874,308.1814,308.1814,309.3107,return,0.0416,,98.4375,,,,,,FBP-OG-19.png,0.43,1.2,14,0.5,0,44,44,13,1,,,,,,,,,,,,,,,,,,,,,,,,,,,,,,,,,,,,,,,,
,,,,,SPR24_005,20,Male,2024-04-05_10h00.08.974,jersey_experiment_5_v0,2023.2.2,Win32,84.74576271,,,,,,,,,,,,,,,,309.311,310.3578,310.3579,311.6166,return,0.053,,97.52604167,,,,,,FBP-YG-71.png,0.43,1.2,19,0.25,0,45,45,18,1,,,,,,,,,,,,,,,,,,,,,,,,,,,,,,,,,,,,,,,,
,,,,,SPR24_005,20,Male,2024-04-05_10h00.08.974,jersey_experiment_5_v0,2023.2.2,Win32,84.74576271,,,,,,,,,,,,,,,,311.6168,312.6638,312.6639,314.217,return,0.0718,,45.44270833,,,,,,FBP-PT-91.png,0.35,1.2,56,0.25,0,46,46,55,1,,,,,,,,,,,,,,,,,,,,,,,,,,,,,,,,,,,,,,,,
,,,,,SPR24_005,20,Male,2024-04-05_10h00.08.974,jersey_experiment_5_v0,2023.2.2,Win32,84.74576271,,,,,,,,,,,,,,,,314.2172,315.2639,315.2639,316.4169,return,0.0762,,52.734375,,,,,,FBP-YG-91.png,0.4,1.2,28,0.25,0,47,47,27,1,,,,,,,,,,,,,,,,,,,,,,,,,,,,,,,,,,,,,,,,
,,,,,SPR24_005,20,Male,2024-04-05_10h00.08.974,jersey_experiment_5_v0,2023.2.2,Win32,84.74576271,,,,,,,,,,,,,,,,316.4172,317.711,317.711,318.5817,return,0.0815,,35.02604167,,,,,,FBP-OG-18.png,0.37,1.2,7,0.5,0,48,48,6,1,,,,,,,,,,,,,,,,,,,,,,,,,,,,,,,,,,,,,,,,
,,,,,SPR24_005,20,Male,2024-04-05_10h00.08.974,jersey_experiment_5_v0,2023.2.2,Win32,84.74576271,,,,,,,,,,,,,,,,318.5819,319.6288,319.6288,320.6171,return,0.0837,,72.65625,,,,,,FBP-YG-81.png,0.43,1.2,24,0.25,0,49,49,23,1,,,,,,,,,,,,,,,,,,,,,,,,,,,,,,,,,,,,,,,,
,,,,,SPR24_005,20,Male,2024-04-05_10h00.08.974,jersey_experiment_5_v0,2023.2.2,Win32,84.74576271,,,,,,,,,,,,,,,,320.6174,321.9113,321.9114,322.6289,return,0.082,,28.90625,,,,,,FBP-RB-71.png,0.37,1.2,32,0.5,0,50,50,31,1,,,,,,,,,,,,,,,,,,,,,,,,,,,,,,,,,,,,,,,,
,,,,,SPR24_005,20,Male,2024-04-05_10h00.08.974,jersey_experiment_5_v0,2023.2.2,Win32,84.74576271,,,,,,,,,,,,,,,,322.6292,323.9232,323.9232,324.7351,return,0.029,,73.69791667,,,,,,FBP-OG-17.png,0.43,1.2,4,0.5,0,51,51,3,1,,,,,,,,,,,,,,,,,,,,,,,,,,,,,,,,,,,,,,,,
,,,,,SPR24_005,20,Male,2024-04-05_10h00.08.974,jersey_experiment_5_v0,2023.2.2,Win32,84.74576271,,,,,,,,,,,,,,,,324.7352,326.0291,326.0292,327.3351,return,0.0945,,17.1875,,,,,,FBP-OG-19.png,0.35,1.2,11,0.5,0,52,52,10,1,,,,,,,,,,,,,,,,,,,,,,,,,,,,,,,,,,,,,,,,
,,,,,SPR24_005,20,Male,2024-04-05_10h00.08.974,jersey_experiment_5_v0,2023.2.2,Win32,84.74576271,,,,,,,,,,,,,,,,327.3353,328.6292,328.6293,329.7469,return,0.0487,,97.78645833,,,,,,FBP-OG-17.png,0.45,1.2,5,0.5,0,53,53,4,1,,,,,,,,,,,,,,,,,,,,,,,,,,,,,,,,,,,,,,,,
,,,,,SPR24_005,20,Male,2024-04-05_10h00.08.974,jersey_experiment_5_v0,2023.2.2,Win32,84.74576271,,,,,,,,,,,,,,,,329.7472,331.041,331.041,332.6056,return,0.4418,,22.78645833,,,,,,FBP-RB-81.png,0.35,1.2,36,0.5,0,54,54,35,1,,,,,,,,,,,,,,,,,,,,,,,,,,,,,,,,,,,,,,,,
,,,,,SPR24_005,20,Male,2024-04-05_10h00.08.974,jersey_experiment_5_v0,2023.2.2,Win32,84.74576271,,,,,,,,,,,,,,,,332.6058,333.6528,333.6529,334.8177,return,0.052,,97.65625,,,,,,FBP-YG-81.png,0.45,1.2,25,0.25,0,55,55,24,1,,,,,,,,,,,,,,,,,,,,,,,,,,,,,,,,,,,,,,,,
,,,,,SPR24_005,20,Male,2024-04-05_10h00.08.974,jersey_experiment_5_v0,2023.2.2,Win32,84.74576271,,,,,,,,,,,,,,,,334.8179,335.8648,335.8648,337.2884,return,0.0585,,72.13541667,,,,,,FBP-PT-91.png,0.37,1.2,57,0.25,0,56,56,56,1,,,,,,,,,,,,,,,,,,,,,,,,,,,,,,,,,,,,,,,,
,,,,,SPR24_005,20,Male,2024-04-05_10h00.08.974,jersey_experiment_5_v0,2023.2.2,Win32,84.74576271,,,,,,,,,,,,,,,,337.2887,338.5822,338.5823,339.3119,return,0.0395,,70.703125,,,,,,FBP-RB-81.png,0.43,1.2,39,0.5,0,57,57,38,1,,,,,,,,,,,,,,,,,,,,,,,,,,,,,,,,,,,,,,,,
,,,,,SPR24_005,20,Male,2024-04-05_10h00.08.974,jersey_experiment_5_v0,2023.2.2,Win32,84.74576271,,,,,,,,,,,,,,,,339.3121,340.6059,340.6059,341.8885,return,0.4988,,44.53125,,,,,,FBP-OG-17.png,0.35,1.2,1,0.5,0,58,58,0,1,,,,,,,,,,,,,,,,,,,,,,,,,,,,,,,,,,,,,,,,
,,,,,SPR24_005,20,Male,2024-04-05_10h00.08.974,jersey_experiment_5_v0,2023.2.2,Win32,84.74576271,,,,,,,,,,,,,,,,341.8887,343.1824,343.1825,346.2651,return,0.1417,,48.56770833,,,,,,FBP-RB-91.png,0.35,1.2,41,0.5,0,59,59,40,1,,,,,,,,,,,,,,,,,,,,,,,,,,,,,,,,,,,,,,,,
,,,,,SPR24_005,20,Male,2024-04-05_10h00.08.974,jersey_experiment_5_v0,2023.2.2,Win32,84.74576271,,,,,,,,,,,,,,,,,,,,,,,,,,,,,,,,,,,,,,,346.2654,466.258,,,,,,,,,,,,,,,,,,,,,,,,,,,,,,,,,,,,,,
,,,,,SPR24_005,20,Male,2024-04-05_10h00.08.974,jersey_experiment_5_v0,2023.2.2,Win32,84.74576271,,,,,,,,,,,,,,,,,,,,,,,,,,,,,,,,,,,,,,,,,466.2581,469.1401,return,2.872,,,,,,,,,,,,,,,,,,,,,,,,,,,,,,,,,,
,,,,,SPR24_005,20,Male,2024-04-05_10h00.08.974,jersey_experiment_5_v0,2023.2.2,Win32,84.74576271,,,,,,,,,,,,,,,,469.1463,470.446,470.446,475.5756,return,0.8329,,77.08333333,,,,,,FBP-YG-17.png,0.45,1.2,20,0.5,,,,,,,,,,,,,0,0,0,19,1,,,,,,,,,,,,,,,,,,,,,,,,,,,,
,,,,,SPR24_005,20,Male,2024-04-05_10h00.08.974,jersey_experiment_5_v0,2023.2.2,Win32,84.74576271,,,,,,,,,,,,,,,,475.576,476.8697,476.8697,477.7052,return,0.1422,,83.33333333,,,,,,FBP-PT-19.png,0.45,1.2,60,0.5,,,,,,,,,,,,,0,1,1,59,1,,,,,,,,,,,,,,,,,,,,,,,,,,,,
,,,,,SPR24_005,20,Male,2024-04-05_10h00.08.974,jersey_experiment_5_v0,2023.2.2,Win32,84.74576271,,,,,,,,,,,,,,,,477.7053,478.7521,478.7521,479.6463,return,0.0889,,50.13020833,,,,,,FBP-OG-91.png,0.37,1.2,12,0.25,,,,,,,,,,,,,0,2,2,11,1,,,,,,,,,,,,,,,,,,,,,,,,,,,,
,,,,,SPR24_005,20,Male,2024-04-05_10h00.08.974,jersey_experiment_5_v0,2023.2.2,Win32,84.74576271,,,,,,,,,,,,,,,,479.6466,480.9407,480.9407,481.5524,return,0.1007,,76.69270833,,,,,,FBP-YG-17.png,0.43,1.2,19,0.5,,,,,,,,,,,,,0,3,3,18,1,,,,,,,,,,,,,,,,,,,,,,,,,,,,
,,,,,SPR24_005,20,Male,2024-04-05_10h00.08.974,jersey_experiment_5_v0,2023.2.2,Win32,84.74576271,,,,,,,,,,,,,,,,481.5525,482.5994,482.5995,483.87,return,0.1143,,77.734375,,,,,,FBP-OG-71.png,0.43,1.2,4,0.25,,,,,,,,,,,,,0,4,4,3,1,,,,,,,,,,,,,,,,,,,,,,,,,,,,
,,,,,SPR24_005,20,Male,2024-04-05_10h00.08.974,jersey_experiment_5_v0,2023.2.2,Win32,84.74576271,,,,,,,,,,,,,,,,483.8702,485.1644,485.1644,485.9289,return,0.1038,,50,,,,,,FBP-PT-18.png,0.4,1.2,53,0.5,,,,,,,,,,,,,0,5,5,52,1,,,,,,,,,,,,,,,,,,,,,,,,,,,,
,,,,,SPR24_005,20,Male,2024-04-05_10h00.08.974,jersey_experiment_5_v0,2023.2.2,Win32,84.74576271,,,,,,,,,,,,,,,,485.9291,486.9761,486.9761,487.9292,return,0.1047,,23.69791667,,,,,,FBP-OG-71.png,0.37,1.2,2,0.25,,,,,,,,,,,,,0,6,6,1,1,,,,,,,,,,,,,,,,,,,,,,,,,,,,
,,,,,SPR24_005,20,Male,2024-04-05_10h00.08.974,jersey_experiment_5_v0,2023.2.2,Win32,84.74576271,,,,,,,,,,,,,,,,487.9294,489.2233,489.2233,489.9293,return,0.0472,,98.69791667,,,,,,FBP-YG-19.png,0.45,1.2,30,0.5,,,,,,,,,,,,,0,7,7,29,1,,,,,,,,,,,,,,,,,,,,,,,,,,,,
,,,,,SPR24_005,20,Male,2024-04-05_10h00.08.974,jersey_experiment_5_v0,2023.2.2,Win32,84.74576271,,,,,,,,,,,,,,,,489.9295,491.2234,491.2234,492.7528,return,0.8868,,6.380208333,,,,,,FBP-PT-18.png,0.35,1.2,51,0.5,,,,,,,,,,,,,0,8,8,50,1,,,,,,,,,,,,,,,,,,,,,,,,,,,,
,,,,,SPR24_005,20,Male,2024-04-05_10h00.08.974,jersey_experiment_5_v0,2023.2.2,Win32,84.74576271,,,,,,,,,,,,,,,,492.753,493.7999,493.7999,494.6116,return,0.1315,,76.43229167,,,,,,FBP-OG-81.png,0.43,1.2,9,0.25,,,,,,,,,,,,,0,9,9,8,1,,,,,,,,,,,,,,,,,,,,,,,,,,,,
,,,,,SPR24_005,20,Male,2024-04-05_10h00.08.974,jersey_experiment_5_v0,2023.2.2,Win32,84.74576271,,,,,,,,,,,,,,,,494.6118,495.6588,495.6588,496.9295,return,0.6287,,94.27083333,,,,,,FBP-OG-91.png,0.45,1.2,15,0.25,,,,,,,,,,,,,0,10,10,14,1,,,,,,,,,,,,,,,,,,,,,,,,,,,,
,,,,,SPR24_005,20,Male,2024-04-05_10h00.08.974,jersey_experiment_5_v0,2023.2.2,Win32,84.74576271,,,,,,,,,,,,,,,,496.9298,498.2236,498.2237,499.0004,return,0.1422,,22.91666667,,,,,,FBP-YG-17.png,0.35,1.2,16,0.5,,,,,,,,,,,,,0,11,11,15,1,,,,,,,,,,,,,,,,,,,,,,,,,,,,
,,,,,SPR24_005,20,Male,2024-04-05_10h00.08.974,jersey_experiment_5_v0,2023.2.2,Win32,84.74576271,,,,,,,,,,,,,,,,499.0006,500.2943,500.2944,501.0118,return,0.0736,,96.74479167,,,,,,FBP-PT-17.png,0.45,1.2,50,0.5,,,,,,,,,,,,,0,12,12,49,1,,,,,,,,,,,,,,,,,,,,,,,,,,,,
,,,,,SPR24_005,20,Male,2024-04-05_10h00.08.974,jersey_experiment_5_v0,2023.2.2,Win32,84.74576271,,,,,,,,,,,,,,,,501.012,502.306,502.306,503.2001,return,0.0643,,48.828125,,,,,,FBP-PT-17.png,0.37,1.2,47,0.5,,,,,,,,,,,,,0,13,13,46,1,,,,,,,,,,,,,,,,,,,,,,,,,,,,
,,,,,SPR24_005,20,Male,2024-04-05_10h00.08.974,jersey_experiment_5_v0,2023.2.2,Win32,84.74576271,,,,,,,,,,,,,,,,503.2003,504.2473,504.2473,505.0003,return,0.07,,75.52083333,,,,,,FBP-RB-19.png,0.43,1.2,44,0.25,,,,,,,,,,,,,0,14,14,43,1,,,,,,,,,,,,,,,,,,,,,,,,,,,,
,,,,,SPR24_005,20,Male,2024-04-05_10h00.08.974,jersey_experiment_5_v0,2023.2.2,Win32,84.74576271,,,,,,,,,,,,,,,,505.0005,506.2944,506.2945,507.1415,return,0.0843,,73.4375,,,,,,FBP-PT-18.png,0.43,1.2,54,0.5,,,,,,,,,,,,,0,15,15,53,1,,,,,,,,,,,,,,,,,,,,,,,,,,,,
,,,,,SPR24_005,20,Male,2024-04-05_10h00.08.974,jersey_experiment_5_v0,2023.2.2,Win32,84.74576271,,,,,,,,,,,,,,,,507.1417,508.4356,508.4357,509.2474,return,0.0644,,25.65104167,,,,,,FBP-YG-17.png,0.4,1.2,18,0.5,,,,,,,,,,,,,0,16,16,17,1,,,,,,,,,,,,,,,,,,,,,,,,,,,,
,,,,,SPR24_005,20,Male,2024-04-05_10h00.08.974,jersey_experiment_5_v0,2023.2.2,Win32,84.74576271,,,,,,,,,,,,,,,,509.2476,510.2947,510.2948,511.4713,return,0.0665,,55.59895833,,,,,,FBP-OG-71.png,0.4,1.2,3,0.25,,,,,,,,,,,,,0,17,17,2,1,,,,,,,,,,,,,,,,,,,,,,,,,,,,
,,,,,SPR24_005,20,Male,2024-04-05_10h00.08.974,jersey_experiment_5_v0,2023.2.2,Win32,84.74576271,,,,,,,,,,,,,,,,511.4714,512.7655,512.7655,513.8242,return,0.3479,,7.421875,,,,,,FBP-YG-18.png,0.35,1.2,21,0.5,,,,,,,,,,,,,0,18,18,20,1,,,,,,,,,,,,,,,,,,,,,,,,,,,,
,,,,,SPR24_005,20,Male,2024-04-05_10h00.08.974,jersey_experiment_5_v0,2023.2.2,Win32,84.74576271,,,,,,,,,,,,,,,,513.8244,515.1185,515.1185,515.8948,return,0.2123,,97.13541667,,,,,,FBP-PT-18.png,0.45,1.2,55,0.5,,,,,,,,,,,,,0,19,19,54,1,,,,,,,,,,,,,,,,,,,,,,,,,,,,
,,,,,SPR24_005,20,Male,2024-04-05_10h00.08.974,jersey_experiment_5_v0,2023.2.2,Win32,84.74576271,,,,,,,,,,,,,,,,515.8951,516.9418,516.9418,518.601,return,0.4144,,23.17708333,,,,,,FBP-OG-81.png,0.35,1.2,6,0.25,,,,,,,,,,,,,0,20,20,5,1,,,,,,,,,,,,,,,,,,,,,,,,,,,,
,,,,,SPR24_005,20,Male,2024-04-05_10h00.08.974,jersey_experiment_5_v0,2023.2.2,Win32,84.74576271,,,,,,,,,,,,,,,,518.6011,519.8952,519.8952,520.648,return,0.0475,,24.08854167,,,,,,FBP-YG-17.png,0.37,1.2,17,0.5,,,,,,,,,,,,,0,21,21,16,1,,,,,,,,,,,,,,,,,,,,,,,,,,,,
,,,,,SPR24_005,20,Male,2024-04-05_10h00.08.974,jersey_experiment_5_v0,2023.2.2,Win32,84.74576271,,,,,,,,,,,,,,,,520.6482,521.942,521.942,522.3539,return,0.0856,,22.52604167,,,,,,FBP-YG-19.png,0.35,1.2,26,0.5,,,,,,,,,,,,,0,22,22,25,1,,,,,,,,,,,,,,,,,,,,,,,,,,,,
,,,,,SPR24_005,20,Male,2024-04-05_10h00.08.974,jersey_experiment_5_v0,2023.2.2,Win32,84.74576271,,,,,,,,,,,,,,,,522.354,523.4009,523.401,524.5655,return,0.0582,,57.03125,,,,,,FBP-RB-19.png,0.4,1.2,43,0.25,,,,,,,,,,,,,0,23,23,42,1,,,,,,,,,,,,,,,,,,,,,,,,,,,,
,,,,,SPR24_005,20,Male,2024-04-05_10h00.08.974,jersey_experiment_5_v0,2023.2.2,Win32,84.74576271,,,,,,,,,,,,,,,,524.5657,525.6128,525.6128,526.5776,return,0.0505,,98.56770833,,,,,,FBP-OG-81.png,0.45,1.2,10,0.25,,,,,,,,,,,,,0,24,24,9,1,,,,,,,,,,,,,,,,,,,,,,,,,,,,
,,,,,SPR24_005,20,Male,2024-04-05_10h00.08.974,jersey_experiment_5_v0,2023.2.2,Win32,84.74576271,,,,,,,,,,,,,,,,526.5779,527.8717,527.8718,528.6717,return,0.0424,,48.95833333,,,,,,FBP-PT-19.png,0.37,1.2,57,0.5,,,,,,,,,,,,,0,25,25,56,1,,,,,,,,,,,,,,,,,,,,,,,,,,,,
,,,,,SPR24_005,20,Male,2024-04-05_10h00.08.974,jersey_experiment_5_v0,2023.2.2,Win32,84.74576271,,,,,,,,,,,,,,,,528.672,529.7186,529.7187,530.7188,return,0.1005,,71.875,,,,,,FBP-RB-18.png,0.45,1.2,40,0.25,,,,,,,,,,,,,0,26,26,39,1,,,,,,,,,,,,,,,,,,,,,,,,,,,,
,,,,,SPR24_005,20,Male,2024-04-05_10h00.08.974,jersey_experiment_5_v0,2023.2.2,Win32,84.74576271,,,,,,,,,,,,,,,,530.7189,532.0131,532.0131,532.7895,return,0.1648,,51.30208333,,,,,,FBP-YG-19.png,0.4,1.2,28,0.5,,,,,,,,,,,,,0,27,27,27,1,,,,,,,,,,,,,,,,,,,,,,,,,,,,
,,,,,SPR24_005,20,Male,2024-04-05_10h00.08.974,jersey_experiment_5_v0,2023.2.2,Win32,84.74576271,,,,,,,,,,,,,,,,532.7897,533.8365,533.8366,534.719,return,0.0763,,72.91666667,,,,,,FBP-RB-17.png,0.4,1.2,33,0.25,,,,,,,,,,,,,0,28,28,32,1,,,,,,,,,,,,,,,,,,,,,,,,,,,,
,,,,,SPR24_005,20,Male,2024-04-05_10h00.08.974,jersey_experiment_5_v0,2023.2.2,Win32,84.74576271,,,,,,,,,,,,,,,,534.7193,536.0132,536.0132,536.8485,return,0.0394,,75.13020833,,,,,,FBP-YG-18.png,0.43,1.2,24,0.5,,,,,,,,,,,,,0,29,29,23,1,,,,,,,,,,,,,,,,,,,,,,,,,,,,
,,,,,SPR24_005,20,Male,2024-04-05_10h00.08.974,jersey_experiment_5_v0,2023.2.2,Win32,84.74576271,,,,,,,,,,,,,,,,536.8487,537.8956,537.8956,539.1662,return,0.1145,,8.59375,,,,,,FBP-RB-17.png,0.35,1.2,31,0.25,,,,,,,,,,,,,0,30,30,30,1,,,,,,,,,,,,,,,,,,,,,,,,,,,,
,,,,,SPR24_005,20,Male,2024-04-05_10h00.08.974,jersey_experiment_5_v0,2023.2.2,Win32,84.74576271,,,,,,,,,,,,,,,,539.1664,540.2135,540.2135,541.0603,return,0.0494,,22.39583333,,,,,,FBP-RB-19.png,0.35,1.2,41,0.25,,,,,,,,,,,,,0,31,31,40,1,,,,,,,,,,,,,,,,,,,,,,,,,,,,
,,,,,SPR24_005,20,Male,2024-04-05_10h00.08.974,jersey_experiment_5_v0,2023.2.2,Win32,84.74576271,,,,,,,,,,,,,,,,541.0605,542.3547,542.3548,543.3428,return,0.4178,,50.78125,,,,,,FBP-PT-17.png,0.4,1.2,48,0.5,,,,,,,,,,,,,0,32,32,47,1,,,,,,,,,,,,,,,,,,,,,,,,,,,,
,,,,,SPR24_005,20,Male,2024-04-05_10h00.08.974,jersey_experiment_5_v0,2023.2.2,Win32,84.74576271,,,,,,,,,,,,,,,,543.3432,544.637,544.6371,545.2723,return,0.0334,,49.609375,,,,,,FBP-YG-19.png,0.37,1.2,27,0.5,,,,,,,,,,,,,0,33,33,26,1,,,,,,,,,,,,,,,,,,,,,,,,,,,,
,,,,,SPR24_005,20,Male,2024-04-05_10h00.08.974,jersey_experiment_5_v0,2023.2.2,Win32,84.74576271,,,,,,,,,,,,,,,,545.2726,546.3194,546.3195,547.2372,return,0.0004,,48.17708333,,,,,,FBP-RB-17.png,0.37,1.2,32,0.25,,,,,,,,,,,,,0,34,34,31,1,,,,,,,,,,,,,,,,,,,,,,,,,,,,
,,,,,SPR24_005,20,Male,2024-04-05_10h00.08.974,jersey_experiment_5_v0,2023.2.2,Win32,84.74576271,,,,,,,,,,,,,,,,547.2375,548.5314,548.5315,549.2726,return,0.0943,,76.171875,,,,,,FBP-YG-18.png,0.45,1.2,25,0.5,,,,,,,,,,,,,0,35,35,24,1,,,,,,,,,,,,,,,,,,,,,,,,,,,,
,,,,,SPR24_005,20,Male,2024-04-05_10h00.08.974,jersey_experiment_5_v0,2023.2.2,Win32,84.74576271,,,,,,,,,,,,,,,,549.2729,550.3195,550.3196,551.6962,return,0.1948,,25.78125,,,,,,FBP-RB-19.png,0.37,1.2,42,0.25,,,,,,,,,,,,,0,36,36,41,1,,,,,,,,,,,,,,,,,,,,,,,,,,,,
,,,,,SPR24_005,20,Male,2024-04-05_10h00.08.974,jersey_experiment_5_v0,2023.2.2,Win32,84.74576271,,,,,,,,,,,,,,,,551.6963,552.7435,552.7435,555.1903,return,1.3551,,69.53125,,,,,,FBP-RB-18.png,0.43,1.2,39,0.25,,,,,,,,,,,,,0,37,37,38,1,,,,,,,,,,,,,,,,,,,,,,,,,,,,
,,,,,SPR24_005,20,Male,2024-04-05_10h00.08.974,jersey_experiment_5_v0,2023.2.2,Win32,84.74576271,,,,,,,,,,,,,,,,555.1907,556.4844,556.4844,558.4728,return,0.0943,,66.27604167,,,,,,FBP-PT-19.png,0.4,1.2,58,0.5,,,,,,,,,,,,,0,38,38,57,1,,,,,,,,,,,,,,,,,,,,,,,,,,,,
,,,,,SPR24_005,20,Male,2024-04-05_10h00.08.974,jersey_experiment_5_v0,2023.2.2,Win32,84.74576271,,,,,,,,,,,,,,,,558.4731,559.7669,559.7669,560.4021,return,0.0615,,74.21875,,,,,,FBP-YG-19.png,0.43,1.2,29,0.5,,,,,,,,,,,,,0,39,39,28,1,,,,,,,,,,,,,,,,,,,,,,,,,,,,
,,,,,SPR24_005,20,Male,2024-04-05_10h00.08.974,jersey_experiment_5_v0,2023.2.2,Win32,84.74576271,,,,,,,,,,,,,,,,560.4024,561.6964,561.6964,563.2847,return,0.0846,,26.04166667,,,,,,FBP-PT-19.png,0.35,1.2,56,0.5,,,,,,,,,,,,,0,40,40,55,1,,,,,,,,,,,,,,,,,,,,,,,,,,,,
,,,,,SPR24_005,20,Male,2024-04-05_10h00.08.974,jersey_experiment_5_v0,2023.2.2,Win32,84.74576271,,,,,,,,,,,,,,,,563.2849,564.332,564.332,565.7671,return,0.0811,,96.74479167,,,,,,FBP-RB-19.png,0.45,1.2,45,0.25,,,,,,,,,,,,,0,41,41,44,1,,,,,,,,,,,,,,,,,,,,,,,,,,,,
,,,,,SPR24_005,20,Male,2024-04-05_10h00.08.974,jersey_experiment_5_v0,2023.2.2,Win32,84.74576271,,,,,,,,,,,,,,,,565.7673,567.0612,567.0613,567.9908,return,0.0607,,46.484375,,,,,,FBP-PT-18.png,0.37,1.2,52,0.5,,,,,,,,,,,,,0,42,42,51,1,,,,,,,,,,,,,,,,,,,,,,,,,,,,
,,,,,SPR24_005,20,Male,2024-04-05_10h00.08.974,jersey_experiment_5_v0,2023.2.2,Win32,84.74576271,,,,,,,,,,,,,,,,567.991,569.2852,569.2852,569.8613,return,0.035,,74.21875,,,,,,FBP-PT-19.png,0.43,1.2,59,0.5,,,,,,,,,,,,,0,43,43,58,1,,,,,,,,,,,,,,,,,,,,,,,,,,,,
,,,,,SPR24_005,20,Male,2024-04-05_10h00.08.974,jersey_experiment_5_v0,2023.2.2,Win32,84.74576271,,,,,,,,,,,,,,,,569.8618,570.9086,570.9087,571.5203,return,0.0046,,70.703125,,,,,,FBP-RB-18.png,0.4,1.2,38,0.25,,,,,,,,,,,,,0,44,44,37,1,,,,,,,,,,,,,,,,,,,,,,,,,,,,
,,,,,SPR24_005,20,Male,2024-04-05_10h00.08.974,jersey_experiment_5_v0,2023.2.2,Win32,84.74576271,,,,,,,,,,,,,,,,571.5206,572.5674,572.5674,573.9677,return,0.0188,,85.546875,,,,,,FBP-OG-71.png,0.45,1.2,5,0.25,,,,,,,,,,,,,0,45,45,4,1,,,,,,,,,,,,,,,,,,,,,,,,,,,,
,,,,,SPR24_005,20,Male,2024-04-05_10h00.08.974,jersey_experiment_5_v0,2023.2.2,Win32,84.74576271,,,,,,,,,,,,,,,,573.968,575.0145,575.0145,576.0736,return,0.0475,,73.95833333,,,,,,FBP-OG-81.png,0.4,1.2,8,0.25,,,,,,,,,,,,,0,46,46,7,1,,,,,,,,,,,,,,,,,,,,,,,,,,,,
,,,,,SPR24_005,20,Male,2024-04-05_10h00.08.974,jersey_experiment_5_v0,2023.2.2,Win32,84.74576271,,,,,,,,,,,,,,,,576.0737,577.1206,577.1206,577.7676,return,0.0804,,73.56770833,,,,,,FBP-OG-91.png,0.43,1.2,14,0.25,,,,,,,,,,,,,0,47,47,13,1,,,,,,,,,,,,,,,,,,,,,,,,,,,,
,,,,,SPR24_005,20,Male,2024-04-05_10h00.08.974,jersey_experiment_5_v0,2023.2.2,Win32,84.74576271,,,,,,,,,,,,,,,,577.7677,579.0617,579.0617,579.7795,return,0.0249,,60.15625,,,,,,FBP-YG-18.png,0.4,1.2,23,0.5,,,,,,,,,,,,,0,48,48,22,1,,,,,,,,,,,,,,,,,,,,,,,,,,,,
,,,,,SPR24_005,20,Male,2024-04-05_10h00.08.974,jersey_experiment_5_v0,2023.2.2,Win32,84.74576271,,,,,,,,,,,,,,,,579.7796,580.8265,580.8266,581.7442,return,0.0165,,31.77083333,,,,,,FBP-OG-91.png,0.35,1.2,11,0.25,,,,,,,,,,,,,0,49,49,10,1,,,,,,,,,,,,,,,,,,,,,,,,,,,,
,,,,,SPR24_005,20,Male,2024-04-05_10h00.08.974,jersey_experiment_5_v0,2023.2.2,Win32,84.74576271,,,,,,,,,,,,,,,,581.7445,582.7914,582.7914,583.9091,return,0.0586,,76.30208333,,,,,,FBP-OG-91.png,0.4,1.2,13,0.25,,,,,,,,,,,,,0,50,50,12,1,,,,,,,,,,,,,,,,,,,,,,,,,,,,
,,,,,SPR24_005,20,Male,2024-04-05_10h00.08.974,jersey_experiment_5_v0,2023.2.2,Win32,84.74576271,,,,,,,,,,,,,,,,583.9093,585.2033,585.2033,585.8973,return,0.0617,,49.21875,,,,,,FBP-PT-17.png,0.35,1.2,46,0.5,,,,,,,,,,,,,0,51,51,45,1,,,,,,,,,,,,,,,,,,,,,,,,,,,,
,,,,,SPR24_005,20,Male,2024-04-05_10h00.08.974,jersey_experiment_5_v0,2023.2.2,Win32,84.74576271,,,,,,,,,,,,,,,,585.8974,586.9444,586.9444,587.8386,return,0.5358,,40.625,,,,,,FBP-RB-18.png,0.35,1.2,36,0.25,,,,,,,,,,,,,0,52,52,35,1,,,,,,,,,,,,,,,,,,,,,,,,,,,,
,,,,,SPR24_005,20,Male,2024-04-05_10h00.08.974,jersey_experiment_5_v0,2023.2.2,Win32,84.74576271,,,,,,,,,,,,,,,,587.8388,588.8856,588.8857,589.7212,return,0.0583,,35.28645833,,,,,,FBP-OG-81.png,0.37,1.2,7,0.25,,,,,,,,,,,,,0,53,53,6,1,,,,,,,,,,,,,,,,,,,,,,,,,,,,
,,,,,SPR24_005,20,Male,2024-04-05_10h00.08.974,jersey_experiment_5_v0,2023.2.2,Win32,84.74576271,,,,,,,,,,,,,,,,589.7215,590.7683,590.7684,591.3918,return,0.1952,,76.69270833,,,,,,FBP-RB-17.png,0.43,1.2,34,0.25,,,,,,,,,,,,,0,54,54,33,1,,,,,,,,,,,,,,,,,,,,,,,,,,,,
,,,,,SPR24_005,20,Male,2024-04-05_10h00.08.974,jersey_experiment_5_v0,2023.2.2,Win32,84.74576271,,,,,,,,,,,,,,,,591.3919,592.6859,592.686,593.2976,return,0.0755,,95.18229167,,,,,,FBP-PT-17.png,0.43,1.2,49,0.5,,,,,,,,,,,,,0,55,55,48,1,,,,,,,,,,,,,,,,,,,,,,,,,,,,
,,,,,SPR24_005,20,Male,2024-04-05_10h00.08.974,jersey_experiment_5_v0,2023.2.2,Win32,84.74576271,,,,,,,,,,,,,,,,593.2978,594.5917,594.5917,595.4155,return,0.1183,,38.93229167,,,,,,FBP-YG-18.png,0.37,1.2,22,0.5,,,,,,,,,,,,,0,56,56,21,1,,,,,,,,,,,,,,,,,,,,,,,,,,,,
,,,,,SPR24_005,20,Male,2024-04-05_10h00.08.974,jersey_experiment_5_v0,2023.2.2,Win32,84.74576271,,,,,,,,,,,,,,,,595.4157,596.4624,596.4624,597.0858,return,0.09,,49.34895833,,,,,,FBP-RB-18.png,0.37,1.2,37,0.25,,,,,,,,,,,,,0,57,57,36,1,,,,,,,,,,,,,,,,,,,,,,,,,,,,
,,,,,SPR24_005,20,Male,2024-04-05_10h00.08.974,jersey_experiment_5_v0,2023.2.2,Win32,84.74576271,,,,,,,,,,,,,,,,597.0861,598.1331,598.1331,598.9215,return,0.4009,,38.15104167,,,,,,FBP-OG-71.png,0.35,1.2,1,0.25,,,,,,,,,,,,,0,58,58,0,1,,,,,,,,,,,,,,,,,,,,,,,,,,,,
,,,,,SPR24_005,20,Male,2024-04-05_10h00.08.974,jersey_experiment_5_v0,2023.2.2,Win32,84.74576271,,,,,,,,,,,,,,,,598.9217,599.9684,599.9685,600.8862,return,0.0956,,97.265625,,,,,,FBP-RB-17.png,0.45,1.2,35,0.25,,,,,,,,,,,,,0,59,59,34,1,,,,,,,,,,,,,,,,,,,,,,,,,,,,
,,,,,SPR24_005,20,Male,2024-04-05_10h00.08.974,jersey_experiment_5_v0,2023.2.2,Win32,84.74576271,,,,,,,,,,,,,,,,600.8878,601.9332,601.9332,602.9687,return,0.1752,,98.95833333,,,,,,FBP-OG-19.png,0.45,1.2,15,0.25,,,,,,,,,,,,,,,,,,0,0,0,14,1,,,,,,,,,,,,,,,,,,,,,,,
,,,,,SPR24_005,20,Male,2024-04-05_10h00.08.974,jersey_experiment_5_v0,2023.2.2,Win32,84.74576271,,,,,,,,,,,,,,,,602.969,604.2627,604.2628,605.8745,return,0.0496,,51.04166667,,,,,,FBP-PT-91.png,0.35,1.2,56,0.5,,,,,,,,,,,,,,,,,,0,1,1,55,1,,,,,,,,,,,,,,,,,,,,,,,
,,,,,SPR24_005,20,Male,2024-04-05_10h00.08.974,jersey_experiment_5_v0,2023.2.2,Win32,84.74576271,,,,,,,,,,,,,,,,605.8749,606.9216,606.9216,608.0982,return,0.1694,,31.11979167,,,,,,FBP-RB-81.png,0.35,1.2,36,0.25,,,,,,,,,,,,,,,,,,0,2,2,35,1,,,,,,,,,,,,,,,,,,,,,,,
,,,,,SPR24_005,20,Male,2024-04-05_10h00.08.974,jersey_experiment_5_v0,2023.2.2,Win32,84.74576271,,,,,,,,,,,,,,,,608.0984,609.1452,609.1452,610.2864,return,0.1831,,70.18229167,,,,,,FBP-OG-19.png,0.37,1.2,12,0.25,,,,,,,,,,,,,,,,,,0,3,3,11,1,,,,,,,,,,,,,,,,,,,,,,,
,,,,,SPR24_005,20,Male,2024-04-05_10h00.08.974,jersey_experiment_5_v0,2023.2.2,Win32,84.74576271,,,,,,,,,,,,,,,,610.2866,611.5806,611.5806,612.5807,return,0.061,,98.17708333,,,,,,FBP-PT-91.png,0.4,1.2,58,0.5,,,,,,,,,,,,,,,,,,0,4,4,57,1,,,,,,,,,,,,,,,,,,,,,,,
,,,,,SPR24_005,20,Male,2024-04-05_10h00.08.974,jersey_experiment_5_v0,2023.2.2,Win32,84.74576271,,,,,,,,,,,,,,,,612.5809,613.6279,613.6279,614.7571,return,0.0116,,98.046875,,,,,,FBP-RB-71.png,0.43,1.2,34,0.25,,,,,,,,,,,,,,,,,,0,5,5,33,1,,,,,,,,,,,,,,,,,,,,,,,
,,,,,SPR24_005,20,Male,2024-04-05_10h00.08.974,jersey_experiment_5_v0,2023.2.2,Win32,84.74576271,,,,,,,,,,,,,,,,614.7574,615.8044,615.8044,616.8632,return,0.0668,,62.5,,,,,,FBP-RB-81.png,0.37,1.2,37,0.25,,,,,,,,,,,,,,,,,,0,6,6,36,1,,,,,,,,,,,,,,,,,,,,,,,
,,,,,SPR24_005,20,Male,2024-04-05_10h00.08.974,jersey_experiment_5_v0,2023.2.2,Win32,84.74576271,,,,,,,,,,,,,,,,616.8634,618.1573,618.1574,619.4633,return,0.0336,,98.046875,,,,,,FBP-YG-71.png,0.43,1.2,19,0.5,,,,,,,,,,,,,,,,,,0,7,7,18,1,,,,,,,,,,,,,,,,,,,,,,,
,,,,,SPR24_005,20,Male,2024-04-05_10h00.08.974,jersey_experiment_5_v0,2023.2.2,Win32,84.74576271,,,,,,,,,,,,,,,,619.4635,620.7575,620.7575,621.6045,return,0.0828,,47.78645833,,,,,,FBP-PT-81.png,0.37,1.2,52,0.5,,,,,,,,,,,,,,,,,,0,8,8,51,1,,,,,,,,,,,,,,,,,,,,,,,
,,,,,SPR24_005,20,Male,2024-04-05_10h00.08.974,jersey_experiment_5_v0,2023.2.2,Win32,84.74576271,,,,,,,,,,,,,,,,621.6048,622.8988,622.8989,623.6637,return,0.0663,,97.52604167,,,,,,FBP-YG-81.png,0.45,1.2,25,0.5,,,,,,,,,,,,,,,,,,0,9,9,24,1,,,,,,,,,,,,,,,,,,,,,,,
,,,,,SPR24_005,20,Male,2024-04-05_10h00.08.974,jersey_experiment_5_v0,2023.2.2,Win32,84.74576271,,,,,,,,,,,,,,,,623.6639,624.7104,624.7105,626.1929,return,0.0529,,41.14583333,,,,,,FBP-RB-91.png,0.35,1.2,41,0.25,,,,,,,,,,,,,,,,,,0,10,10,40,1,,,,,,,,,,,,,,,,,,,,,,,
,,,,,SPR24_005,20,Male,2024-04-05_10h00.08.974,jersey_experiment_5_v0,2023.2.2,Win32,84.74576271,,,,,,,,,,,,,,,,626.193,627.4873,627.4873,628.099,return,0.0605,,75.52083333,,,,,,FBP-PT-71.png,0.43,1.2,49,0.5,,,,,,,,,,,,,,,,,,0,11,11,48,1,,,,,,,,,,,,,,,,,,,,,,,
,,,,,SPR24_005,20,Male,2024-04-05_10h00.08.974,jersey_experiment_5_v0,2023.2.2,Win32,84.74576271,,,,,,,,,,,,,,,,628.0993,629.1458,629.1458,630.3225,return,0.0732,,52.60416667,,,,,,FBP-RB-71.png,0.35,1.2,31,0.25,,,,,,,,,,,,,,,,,,0,12,12,30,1,,,,,,,,,,,,,,,,,,,,,,,
,,,,,SPR24_005,20,Male,2024-04-05_10h00.08.974,jersey_experiment_5_v0,2023.2.2,Win32,84.74576271,,,,,,,,,,,,,,,,630.3227,631.6167,631.6168,632.0402,return,0.0479,,51.04166667,,,,,,FBP-PT-91.png,0.37,1.2,57,0.5,,,,,,,,,,,,,,,,,,0,13,13,56,1,,,,,,,,,,,,,,,,,,,,,,,
,,,,,SPR24_005,20,Male,2024-04-05_10h00.08.974,jersey_experiment_5_v0,2023.2.2,Win32,84.74576271,,,,,,,,,,,,,,,,632.0404,633.3344,633.3344,634.2286,return,0.1895,,99.47916667,,,,,,FBP-PT-71.png,0.45,1.2,50,0.5,,,,,,,,,,,,,,,,,,0,14,14,49,1,,,,,,,,,,,,,,,,,,,,,,,
,,,,,SPR24_005,20,Male,2024-04-05_10h00.08.974,jersey_experiment_5_v0,2023.2.2,Win32,84.74576271,,,,,,,,,,,,,,,,634.2288,635.2756,635.2756,636.9463,return,0.1793,,95.05208333,,,,,,FBP-RB-91.png,0.4,1.2,43,0.25,,,,,,,,,,,,,,,,,,0,15,15,42,1,,,,,,,,,,,,,,,,,,,,,,,
,,,,,SPR24_005,20,Male,2024-04-05_10h00.08.974,jersey_experiment_5_v0,2023.2.2,Win32,84.74576271,,,,,,,,,,,,,,,,636.9466,638.2406,638.2406,639.2878,return,0.1184,,26.04166667,,,,,,FBP-YG-71.png,0.35,1.2,16,0.5,,,,,,,,,,,,,,,,,,0,16,16,15,1,,,,,,,,,,,,,,,,,,,,,,,
,,,,,SPR24_005,20,Male,2024-04-05_10h00.08.974,jersey_experiment_5_v0,2023.2.2,Win32,84.74576271,,,,,,,,,,,,,,,,639.288,640.5818,640.5818,641.3465,return,0.0984,,77.21354167,,,,,,FBP-YG-71.png,0.4,1.2,18,0.5,,,,,,,,,,,,,,,,,,0,17,17,17,1,,,,,,,,,,,,,,,,,,,,,,,
,,,,,SPR24_005,20,Male,2024-04-05_10h00.08.974,jersey_experiment_5_v0,2023.2.2,Win32,84.74576271,,,,,,,,,,,,,,,,641.3468,642.3935,642.3935,643.1232,return,0.049,,75.26041667,,,,,,FBP-RB-91.png,0.43,1.2,44,0.25,,,,,,,,,,,,,,,,,,0,18,18,43,1,,,,,,,,,,,,,,,,,,,,,,,
,,,,,SPR24_005,20,Male,2024-04-05_10h00.08.974,jersey_experiment_5_v0,2023.2.2,Win32,84.74576271,,,,,,,,,,,,,,,,643.1235,644.17,644.1701,645.1114,return,0.1042,,97.00520833,,,,,,FBP-RB-91.png,0.45,1.2,45,0.25,,,,,,,,,,,,,,,,,,0,19,19,44,1,,,,,,,,,,,,,,,,,,,,,,,
,,,,,SPR24_005,20,Male,2024-04-05_10h00.08.974,jersey_experiment_5_v0,2023.2.2,Win32,84.74576271,,,,,,,,,,,,,,,,645.1116,646.1584,646.1585,646.8996,return,0.027,,74.34895833,,,,,,FBP-OG-18.png,0.37,1.2,7,0.25,,,,,,,,,,,,,,,,,,0,20,20,6,1,,,,,,,,,,,,,,,,,,,,,,,
,,,,,SPR24_005,20,Male,2024-04-05_10h00.08.974,jersey_experiment_5_v0,2023.2.2,Win32,84.74576271,,,,,,,,,,,,,,,,646.8998,647.9466,647.9466,648.6879,return,0.0774,,71.22395833,,,,,,FBP-RB-81.png,0.45,1.2,40,0.25,,,,,,,,,,,,,,,,,,0,21,21,39,1,,,,,,,,,,,,,,,,,,,,,,,
,,,,,SPR24_005,20,Male,2024-04-05_10h00.08.974,jersey_experiment_5_v0,2023.2.2,Win32,84.74576271,,,,,,,,,,,,,,,,648.688,649.9821,649.9821,650.4526,return,0.1198,,75,,,,,,FBP-YG-91.png,0.4,1.2,28,0.5,,,,,,,,,,,,,,,,,,0,22,22,27,1,,,,,,,,,,,,,,,,,,,,,,,
,,,,,SPR24_005,20,Male,2024-04-05_10h00.08.974,jersey_experiment_5_v0,2023.2.2,Win32,84.74576271,,,,,,,,,,,,,,,,650.4528,651.4998,651.4998,651.9585,return,0.0707,,75,,,,,,FBP-OG-18.png,0.43,1.2,9,0.25,,,,,,,,,,,,,,,,,,0,23,23,8,1,,,,,,,,,,,,,,,,,,,,,,,
,,,,,SPR24_005,20,Male,2024-04-05_10h00.08.974,jersey_experiment_5_v0,2023.2.2,Win32,84.74576271,,,,,,,,,,,,,,,,651.9587,653.0056,653.0056,653.8645,return,0.0706,,74.609375,,,,,,FBP-OG-18.png,0.4,1.2,8,0.25,,,,,,,,,,,,,,,,,,0,24,24,7,1,,,,,,,,,,,,,,,,,,,,,,,
,,,,,SPR24_005,20,Male,2024-04-05_10h00.08.974,jersey_experiment_5_v0,2023.2.2,Win32,84.74576271,,,,,,,,,,,,,,,,653.8647,654.9117,654.9117,655.7,return,0.05,,97.65625,,,,,,FBP-OG-18.png,0.45,1.2,10,0.25,,,,,,,,,,,,,,,,,,0,25,25,9,1,,,,,,,,,,,,,,,,,,,,,,,
,,,,,SPR24_005,20,Male,2024-04-05_10h00.08.974,jersey_experiment_5_v0,2023.2.2,Win32,84.74576271,,,,,,,,,,,,,,,,655.7002,656.7471,656.7472,657.5707,return,0.0494,,97.265625,,,,,,FBP-RB-71.png,0.45,1.2,35,0.25,,,,,,,,,,,,,,,,,,0,26,26,34,1,,,,,,,,,,,,,,,,,,,,,,,
,,,,,SPR24_005,20,Male,2024-04-05_10h00.08.974,jersey_experiment_5_v0,2023.2.2,Win32,84.74576271,,,,,,,,,,,,,,,,657.5708,658.8649,658.8649,660.0178,return,0.5682,,50.65104167,,,,,,FBP-PT-71.png,0.37,1.2,47,0.5,,,,,,,,,,,,,,,,,,0,27,27,46,1,,,,,,,,,,,,,,,,,,,,,,,
,,,,,SPR24_005,20,Male,2024-04-05_10h00.08.974,jersey_experiment_5_v0,2023.2.2,Win32,84.74576271,,,,,,,,,,,,,,,,660.018,661.065,661.065,661.9709,return,0.0963,,51.04166667,,,,,,FBP-OG-19.png,0.4,1.2,13,0.25,,,,,,,,,,,,,,,,,,0,28,28,12,1,,,,,,,,,,,,,,,,,,,,,,,
,,,,,SPR24_005,20,Male,2024-04-05_10h00.08.974,jersey_experiment_5_v0,2023.2.2,Win32,84.74576271,,,,,,,,,,,,,,,,661.9712,663.2649,663.2649,663.6415,return,0.0847,,75.390625,,,,,,FBP-YG-91.png,0.43,1.2,29,0.5,,,,,,,,,,,,,,,,,,0,29,29,28,1,,,,,,,,,,,,,,,,,,,,,,,
,,,,,SPR24_005,20,Male,2024-04-05_10h00.08.974,jersey_experiment_5_v0,2023.2.2,Win32,84.74576271,,,,,,,,,,,,,,,,663.6417,664.9358,664.9358,665.5237,return,0.0013,,94.79166667,,,,,,FBP-YG-91.png,0.45,1.2,30,0.5,,,,,,,,,,,,,,,,,,0,30,30,29,1,,,,,,,,,,,,,,,,,,,,,,,
,,,,,SPR24_005,20,Male,2024-04-05_10h00.08.974,jersey_experiment_5_v0,2023.2.2,Win32,84.74576271,,,,,,,,,,,,,,,,665.5239,666.5708,666.5709,667.3946,return,0.0511,,88.28125,,,,,,FBP-OG-19.png,0.43,1.2,14,0.25,,,,,,,,,,,,,,,,,,0,31,31,13,1,,,,,,,,,,,,,,,,,,,,,,,
,,,,,SPR24_005,20,Male,2024-04-05_10h00.08.974,jersey_experiment_5_v0,2023.2.2,Win32,84.74576271,,,,,,,,,,,,,,,,667.3948,668.4414,668.4414,669.5243,return,0.2029,,23.17708333,,,,,,FBP-RB-71.png,0.37,1.2,32,0.25,,,,,,,,,,,,,,,,,,0,32,32,31,1,,,,,,,,,,,,,,,,,,,,,,,
,,,,,SPR24_005,20,Male,2024-04-05_10h00.08.974,jersey_experiment_5_v0,2023.2.2,Win32,84.74576271,,,,,,,,,,,,,,,,669.5244,670.571,670.571,671.7474,return,0.0502,,52.08333333,,,,,,FBP-RB-71.png,0.4,1.2,33,0.25,,,,,,,,,,,,,,,,,,0,33,33,32,1,,,,,,,,,,,,,,,,,,,,,,,
,,,,,SPR24_005,20,Male,2024-04-05_10h00.08.974,jersey_experiment_5_v0,2023.2.2,Win32,84.74576271,,,,,,,,,,,,,,,,671.7476,672.7946,672.7946,673.6654,return,0.074,,77.08333333,,,,,,FBP-OG-17.png,0.45,1.2,5,0.25,,,,,,,,,,,,,,,,,,0,34,34,4,1,,,,,,,,,,,,,,,,,,,,,,,
,,,,,SPR24_005,20,Male,2024-04-05_10h00.08.974,jersey_experiment_5_v0,2023.2.2,Win32,84.74576271,,,,,,,,,,,,,,,,673.6656,674.7122,674.7123,676.3125,return,0.0706,,42.70833333,,,,,,FBP-OG-17.png,0.4,1.2,3,0.25,,,,,,,,,,,,,,,,,,0,35,35,2,1,,,,,,,,,,,,,,,,,,,,,,,
,,,,,SPR24_005,20,Male,2024-04-05_10h00.08.974,jersey_experiment_5_v0,2023.2.2,Win32,84.74576271,,,,,,,,,,,,,,,,676.3127,677.6065,677.6066,678.1947,return,0.0276,,51.171875,,,,,,FBP-YG-81.png,0.4,1.2,23,0.5,,,,,,,,,,,,,,,,,,0,36,36,22,1,,,,,,,,,,,,,,,,,,,,,,,
,,,,,SPR24_005,20,Male,2024-04-05_10h00.08.974,jersey_experiment_5_v0,2023.2.2,Win32,84.74576271,,,,,,,,,,,,,,,,678.1949,679.4891,679.4891,680.2774,return,0.0378,,70.18229167,,,,,,FBP-YG-71.png,0.45,1.2,20,0.5,,,,,,,,,,,,,,,,,,0,37,37,19,1,,,,,,,,,,,,,,,,,,,,,,,
,,,,,SPR24_005,20,Male,2024-04-05_10h00.08.974,jersey_experiment_5_v0,2023.2.2,Win32,84.74576271,,,,,,,,,,,,,,,,680.2777,681.3242,681.3243,682.6657,return,0.0812,,24.08854167,,,,,,FBP-OG-17.png,0.35,1.2,1,0.25,,,,,,,,,,,,,,,,,,0,38,38,0,1,,,,,,,,,,,,,,,,,,,,,,,
,,,,,SPR24_005,20,Male,2024-04-05_10h00.08.974,jersey_experiment_5_v0,2023.2.2,Win32,84.74576271,,,,,,,,,,,,,,,,682.6659,683.9599,683.9599,684.7129,return,0.0333,,13.54166667,,,,,,FBP-YG-71.png,0.37,1.2,17,0.5,,,,,,,,,,,,,,,,,,0,39,39,16,1,,,,,,,,,,,,,,,,,,,,,,,
,,,,,SPR24_005,20,Male,2024-04-05_10h00.08.974,jersey_experiment_5_v0,2023.2.2,Win32,84.74576271,,,,,,,,,,,,,,,,684.713,686.007,686.007,687.1365,return,0.0774,,43.09895833,,,,,,FBP-PT-81.png,0.4,1.2,53,0.5,,,,,,,,,,,,,,,,,,0,40,40,52,1,,,,,,,,,,,,,,,,,,,,,,,
,,,,,SPR24_005,20,Male,2024-04-05_10h00.08.974,jersey_experiment_5_v0,2023.2.2,Win32,84.74576271,,,,,,,,,,,,,,,,687.1366,688.1837,688.1838,689.7601,return,0.7479,,54.94791667,,,,,,FBP-RB-81.png,0.43,1.2,39,0.25,,,,,,,,,,,,,,,,,,0,41,41,38,1,,,,,,,,,,,,,,,,,,,,,,,
,,,,,SPR24_005,20,Male,2024-04-05_10h00.08.974,jersey_experiment_5_v0,2023.2.2,Win32,84.74576271,,,,,,,,,,,,,,,,689.7603,691.0541,691.0541,692.6778,return,0.1175,,73.95833333,,,,,,FBP-PT-81.png,0.43,1.2,54,0.5,,,,,,,,,,,,,,,,,,0,42,42,53,1,,,,,,,,,,,,,,,,,,,,,,,
,,,,,SPR24_005,20,Male,2024-04-05_10h00.08.974,jersey_experiment_5_v0,2023.2.2,Win32,84.74576271,,,,,,,,,,,,,,,,692.6781,693.9719,693.9719,694.678,return,0.0691,,52.21354167,,,,,,FBP-YG-91.png,0.37,1.2,27,0.5,,,,,,,,,,,,,,,,,,0,43,43,26,1,,,,,,,,,,,,,,,,,,,,,,,
,,,,,SPR24_005,20,Male,2024-04-05_10h00.08.974,jersey_experiment_5_v0,2023.2.2,Win32,84.74576271,,,,,,,,,,,,,,,,694.6781,695.7249,695.725,696.6544,return,0.1381,,29.03645833,,,,,,FBP-OG-19.png,0.35,1.2,11,0.25,,,,,,,,,,,,,,,,,,0,44,44,10,1,,,,,,,,,,,,,,,,,,,,,,,
,,,,,SPR24_005,20,Male,2024-04-05_10h00.08.974,jersey_experiment_5_v0,2023.2.2,Win32,84.74576271,,,,,,,,,,,,,,,,696.6547,697.9486,697.9486,698.831,return,0.5256,,11.06770833,,,,,,FBP-PT-81.png,0.35,1.2,51,0.5,,,,,,,,,,,,,,,,,,0,45,45,50,1,,,,,,,,,,,,,,,,,,,,,,,
,,,,,SPR24_005,20,Male,2024-04-05_10h00.08.974,jersey_experiment_5_v0,2023.2.2,Win32,84.74576271,,,,,,,,,,,,,,,,698.8312,699.8779,699.878,701.3605,return,0.9451,,23.30729167,,,,,,FBP-RB-91.png,0.37,1.2,42,0.25,,,,,,,,,,,,,,,,,,0,46,46,41,1,,,,,,,,,,,,,,,,,,,,,,,
,,,,,SPR24_005,20,Male,2024-04-05_10h00.08.974,jersey_experiment_5_v0,2023.2.2,Win32,84.74576271,,,,,,,,,,,,,,,,701.3608,702.4075,702.4075,703.3605,return,0.0757,,36.45833333,,,,,,FBP-OG-17.png,0.37,1.2,2,0.25,,,,,,,,,,,,,,,,,,0,47,47,1,1,,,,,,,,,,,,,,,,,,,,,,,
,,,,,SPR24_005,20,Male,2024-04-05_10h00.08.974,jersey_experiment_5_v0,2023.2.2,Win32,84.74576271,,,,,,,,,,,,,,,,703.3608,704.6548,704.6549,705.7488,return,0.0594,,48.56770833,,,,,,FBP-YG-81.png,0.35,1.2,21,0.5,,,,,,,,,,,,,,,,,,0,48,48,20,1,,,,,,,,,,,,,,,,,,,,,,,
,,,,,SPR24_005,20,Male,2024-04-05_10h00.08.974,jersey_experiment_5_v0,2023.2.2,Win32,84.74576271,,,,,,,,,,,,,,,,705.7491,707.043,707.0431,707.6783,return,0.0793,,71.09375,,,,,,FBP-YG-81.png,0.43,1.2,24,0.5,,,,,,,,,,,,,,,,,,0,49,49,23,1,,,,,,,,,,,,,,,,,,,,,,,
,,,,,SPR24_005,20,Male,2024-04-05_10h00.08.974,jersey_experiment_5_v0,2023.2.2,Win32,84.74576271,,,,,,,,,,,,,,,,707.6785,708.9723,708.9724,709.8901,return,0.1082,,69.79166667,,,,,,FBP-PT-71.png,0.4,1.2,48,0.5,,,,,,,,,,,,,,,,,,0,50,50,47,1,,,,,,,,,,,,,,,,,,,,,,,
,,,,,SPR24_005,20,Male,2024-04-05_10h00.08.974,jersey_experiment_5_v0,2023.2.2,Win32,84.74576271,,,,,,,,,,,,,,,,709.8904,711.1842,711.1842,712.3609,return,0.5417,,51.04166667,,,,,,FBP-PT-71.png,0.35,1.2,46,0.5,,,,,,,,,,,,,,,,,,0,51,51,45,1,,,,,,,,,,,,,,,,,,,,,,,
,,,,,SPR24_005,20,Male,2024-04-05_10h00.08.974,jersey_experiment_5_v0,2023.2.2,Win32,84.74576271,,,,,,,,,,,,,,,,712.3611,713.4081,713.4081,713.9729,return,0.0847,,52.34375,,,,,,FBP-OG-18.png,0.35,1.2,6,0.25,,,,,,,,,,,,,,,,,,0,52,52,5,1,,,,,,,,,,,,,,,,,,,,,,,
,,,,,SPR24_005,20,Male,2024-04-05_10h00.08.974,jersey_experiment_5_v0,2023.2.2,Win32,84.74576271,,,,,,,,,,,,,,,,713.9732,715.2668,715.2668,715.8433,return,0.0138,,52.08333333,,,,,,FBP-YG-81.png,0.37,1.2,22,0.5,,,,,,,,,,,,,,,,,,0,53,53,21,1,,,,,,,,,,,,,,,,,,,,,,,
,,,,,SPR24_005,20,Male,2024-04-05_10h00.08.974,jersey_experiment_5_v0,2023.2.2,Win32,84.74576271,,,,,,,,,,,,,,,,715.8435,717.1373,717.1374,717.4315,return,0.1555,,52.21354167,,,,,,FBP-YG-91.png,0.35,1.2,26,0.5,,,,,,,,,,,,,,,,,,0,54,54,25,1,,,,,,,,,,,,,,,,,,,,,,,
,,,,,SPR24_005,20,Male,2024-04-05_10h00.08.974,jersey_experiment_5_v0,2023.2.2,Win32,84.74576271,,,,,,,,,,,,,,,,717.4319,718.4786,718.4786,719.2672,return,0.0484,,66.66666667,,,,,,FBP-OG-17.png,0.43,1.2,4,0.25,,,,,,,,,,,,,,,,,,0,55,55,3,1,,,,,,,,,,,,,,,,,,,,,,,
,,,,,SPR24_005,20,Male,2024-04-05_10h00.08.974,jersey_experiment_5_v0,2023.2.2,Win32,84.74576271,,,,,,,,,,,,,,,,719.2675,720.5614,720.5615,721.4084,return,0.0653,,95.83333333,,,,,,FBP-PT-81.png,0.45,1.2,55,0.5,,,,,,,,,,,,,,,,,,0,56,56,54,1,,,,,,,,,,,,,,,,,,,,,,,
,,,,,SPR24_005,20,Male,2024-04-05_10h00.08.974,jersey_experiment_5_v0,2023.2.2,Win32,84.74576271,,,,,,,,,,,,,,,,721.4086,722.4554,722.4554,723.5732,return,0.3773,,76.69270833,,,,,,FBP-RB-81.png,0.4,1.2,38,0.25,,,,,,,,,,,,,,,,,,0,57,57,37,1,,,,,,,,,,,,,,,,,,,,,,,
,,,,,SPR24_005,20,Male,2024-04-05_10h00.08.974,jersey_experiment_5_v0,2023.2.2,Win32,84.74576271,,,,,,,,,,,,,,,,723.5734,724.8672,724.8673,725.6675,return,0.1328,,95.18229167,,,,,,FBP-PT-91.png,0.45,1.2,60,0.5,,,,,,,,,,,,,,,,,,0,58,58,59,1,,,,,,,,,,,,,,,,,,,,,,,
,,,,,SPR24_005,20,Male,2024-04-05_10h00.08.974,jersey_experiment_5_v0,2023.2.2,Win32,84.74576271,,,,,,,,,,,,,,,,725.6677,726.9616,726.9616,727.7499,return,0.1059,,95.83333333,,,,,,FBP-PT-91.png,0.43,1.2,59,0.5,,,,,,,,,,,,,,,,,,0,59,59,58,1,,,,,,,,,,,,,,,,,,,,,,,
,,,,,SPR24_005,20,Male,2024-04-05_10h00.08.974,jersey_experiment_5_v0,2023.2.2,Win32,84.74576271,,,,,,,,,,,,,,,,,,,,,,,,,,,,,,,,,,,,,,,,,,,,,,,,,,,,,,,,727.7502,731.2795,return,3.523,,,,,,,,,,,,,,,,,,,
,,,,,SPR24_005,20,Male,2024-04-05_10h00.08.974,jersey_experiment_5_v0,2023.2.2,Win32,84.74576271,,,,,,,,,,,,,,,,,,,,,,,,,,,,,,,,,,,,,,,,,,,,,,,,,,,,,,,,,,,,,731.2796,735.1737,1,3.1536,return,0.7199,,,,,,,,,,,,
,,,,,SPR24_005,20,Male,2024-04-05_10h00.08.974,jersey_experiment_5_v0,2023.2.2,Win32,84.74576271,,,,,,,,,,,,,,,,,,,,,,,,,,,,,,,,,,,,,,,,,,,,,,,,,,,,,,,,,,,,,,,,,,,,735.1739,765.5793,Relative same size in sections with diff skin color,right,18.1046,,,,,,
,,,,,SPR24_005,20,Male,2024-04-05_10h00.08.974,jersey_experiment_5_v0,2023.2.2,Win32,84.74576271,,,,,,,,,,,,,,,,,,,,,,,,,,,,,,,,,,,,,,,,,,,,,,,,,,,,,,,,,,,,,,,,,,,,,,,,,,765.5794,769.7514,return,4.1588,