requirements.started,requirements.stopped,key_resp_3.keys,key_resp_3.rt,key_resp_3.duration,Subject ID,Age,Gender,date,expName,psychopyVersion,OS,frameRate,instructions1.started,instructions1.stopped,key_resp.keys,key_resp.rt,key_resp.duration,example.started,example.stopped,enter_2.keys,enter_2.rt,enter_2.duration,instructions2.started,instructions2.stopped,enter_3.keys,enter_3.rt,enter_3.duration,image.started,image.stopped,slider_2.started,slider_2.stopped,next.keys,next.rt,next.duration,slider.response,trial_block_1.thisRepN,trial_block_1.thisTrialN,trial_block_1.thisN,trial_block_1.thisIndex,trial_block_1.ran,Path,Width,Height,Index,Duration,trial_block_2.thisRepN,trial_block_2.thisTrialN,trial_block_2.thisN,trial_block_2.thisIndex,trial_block_2.ran,rest_break.started,rest_break.stopped,end_break.started,end_break.stopped,key_resp_5.keys,key_resp_5.rt,key_resp_5.duration,trial_block_3.thisRepN,trial_block_3.thisTrialN,trial_block_3.thisN,trial_block_3.thisIndex,trial_block_3.ran,trial_block_4.thisRepN,trial_block_4.thisTrialN,trial_block_4.thisN,trial_block_4.thisIndex,trial_block_4.ran,questions_intro.started,questions_intro.stopped,enter_12.keys,enter_12.rt,enter_12.duration,question2.started,question2.stopped,question_doingbest.response,question_doingbest.rt,enter_15.keys,enter_15.rt,enter_15.duration,pattern.started,pattern.stopped,pattern_2.text,enter_17.keys,enter_17.rt,enter_17.duration,thankyou.started,thankyou.stopped,enter_14.keys,enter_14.rt,enter_14.duration
0.0001,15.2725,return,15.2665,,SPR24_067,35,female,2024-04-18_15h33.00.195,jersey_experiment_5_v0,2023.2.2,Win32,84.03361345,,,,,,,,,,,,,,,,,,,,,,,,,,,,,,,,,,,,,,,,,,,,,,,,,,,,,,,,,,,,,,,,,,,,,,,,,,,,,,
,,,,,SPR24_067,35,female,2024-04-18_15h33.00.195,jersey_experiment_5_v0,2023.2.2,Win32,84.03361345,15.2727,32.778,return,17.496,,,,,,,,,,,,,,,,,,,,,,,,,,,,,,,,,,,,,,,,,,,,,,,,,,,,,,,,,,,,,,,,,,,,,,,,,,
,,,,,SPR24_067,35,female,2024-04-18_15h33.00.195,jersey_experiment_5_v0,2023.2.2,Win32,84.03361345,,,,,,32.7781,40.8137,return,7.9997,,,,,,,,,,,,,,,,,,,,,,,,,,,,,,,,,,,,,,,,,,,,,,,,,,,,,,,,,,,,,,,,,,,,,
,,,,,SPR24_067,35,female,2024-04-18_15h33.00.195,jersey_experiment_5_v0,2023.2.2,Win32,84.03361345,,,,,,,,,,,40.8139,70.0734,return,29.25,,,,,,,,,,,,,,,,,,,,,,,,,,,,,,,,,,,,,,,,,,,,,,,,,,,,,,,,,,,,,,,,
,,,,,SPR24_067,35,female,2024-04-18_15h33.00.195,jersey_experiment_5_v0,2023.2.2,Win32,84.03361345,,,,,,,,,,,,,,,,70.0807,71.379,71.3791,88.2506,return,9.097,,76.04166667,0,0,0,44,1,FBP-RB-19.png,0.45,1.2,45,0.5,,,,,,,,,,,,,,,,,,,,,,,,,,,,,,,,,,,,,,,,,,,,,
,,,,,SPR24_067,35,female,2024-04-18_15h33.00.195,jersey_experiment_5_v0,2023.2.2,Win32,84.03361345,,,,,,,,,,,,,,,,88.255,89.5561,89.5562,92.6504,return,1.3323,,50.26041667,0,1,1,8,1,FBP-OG-81.png,0.43,1.2,9,0.5,,,,,,,,,,,,,,,,,,,,,,,,,,,,,,,,,,,,,,,,,,,,,
,,,,,SPR24_067,35,female,2024-04-18_15h33.00.195,jersey_experiment_5_v0,2023.2.2,Win32,84.03361345,,,,,,,,,,,,,,,,92.6508,93.9445,93.9445,96.2038,return,0.1779,,61.19791667,0,2,2,39,1,FBP-RB-18.png,0.45,1.2,40,0.5,,,,,,,,,,,,,,,,,,,,,,,,,,,,,,,,,,,,,,,,,,,,,
,,,,,SPR24_067,35,female,2024-04-18_15h33.00.195,jersey_experiment_5_v0,2023.2.2,Win32,84.03361345,,,,,,,,,,,,,,,,96.2039,97.4978,97.4979,99.1094,return,0.1252,,30.859375,0,3,3,1,1,FBP-OG-71.png,0.37,1.2,2,0.5,,,,,,,,,,,,,,,,,,,,,,,,,,,,,,,,,,,,,,,,,,,,,
,,,,,SPR24_067,35,female,2024-04-18_15h33.00.195,jersey_experiment_5_v0,2023.2.2,Win32,84.03361345,,,,,,,,,,,,,,,,99.1095,100.1567,100.1567,101.3798,return,0.0536,,35.67708333,0,4,4,25,1,FBP-YG-19.png,0.35,1.2,26,0.25,,,,,,,,,,,,,,,,,,,,,,,,,,,,,,,,,,,,,,,,,,,,,
,,,,,SPR24_067,35,female,2024-04-18_15h33.00.195,jersey_experiment_5_v0,2023.2.2,Win32,84.03361345,,,,,,,,,,,,,,,,101.38,102.4273,102.4274,103.7685,return,0.0984,,37.23958333,0,5,5,50,1,FBP-PT-18.png,0.35,1.2,51,0.25,,,,,,,,,,,,,,,,,,,,,,,,,,,,,,,,,,,,,,,,,,,,,
,,,,,SPR24_067,35,female,2024-04-18_15h33.00.195,jersey_experiment_5_v0,2023.2.2,Win32,84.03361345,,,,,,,,,,,,,,,,103.7686,105.0626,105.0626,106.0389,return,0.0509,,36.84895833,0,6,6,10,1,FBP-OG-91.png,0.35,1.2,11,0.5,,,,,,,,,,,,,,,,,,,,,,,,,,,,,,,,,,,,,,,,,,,,,
,,,,,SPR24_067,35,female,2024-04-18_15h33.00.195,jersey_experiment_5_v0,2023.2.2,Win32,84.03361345,,,,,,,,,,,,,,,,106.0392,107.3333,107.3334,109.1453,return,0.237,,53.38541667,0,7,7,12,1,FBP-OG-91.png,0.4,1.2,13,0.5,,,,,,,,,,,,,,,,,,,,,,,,,,,,,,,,,,,,,,,,,,,,,
,,,,,SPR24_067,35,female,2024-04-18_15h33.00.195,jersey_experiment_5_v0,2023.2.2,Win32,84.03361345,,,,,,,,,,,,,,,,109.1455,110.4391,110.4392,111.4981,return,0.1788,,49.86979167,0,8,8,5,1,FBP-OG-81.png,0.35,1.2,6,0.5,,,,,,,,,,,,,,,,,,,,,,,,,,,,,,,,,,,,,,,,,,,,,
,,,,,SPR24_067,35,female,2024-04-18_15h33.00.195,jersey_experiment_5_v0,2023.2.2,Win32,84.03361345,,,,,,,,,,,,,,,,111.4983,112.7922,112.7922,113.6746,return,0.261,,49.609375,0,9,9,6,1,FBP-OG-81.png,0.37,1.2,7,0.5,,,,,,,,,,,,,,,,,,,,,,,,,,,,,,,,,,,,,,,,,,,,,
,,,,,SPR24_067,35,female,2024-04-18_15h33.00.195,jersey_experiment_5_v0,2023.2.2,Win32,84.03361345,,,,,,,,,,,,,,,,113.6748,114.9688,114.9688,115.9923,return,0.0869,,70.05208333,0,10,10,33,1,FBP-RB-17.png,0.43,1.2,34,0.5,,,,,,,,,,,,,,,,,,,,,,,,,,,,,,,,,,,,,,,,,,,,,
,,,,,SPR24_067,35,female,2024-04-18_15h33.00.195,jersey_experiment_5_v0,2023.2.2,Win32,84.03361345,,,,,,,,,,,,,,,,115.9926,117.2866,117.2866,118.3806,return,0.0573,,50,0,11,11,35,1,FBP-RB-18.png,0.35,1.2,36,0.5,,,,,,,,,,,,,,,,,,,,,,,,,,,,,,,,,,,,,,,,,,,,,
,,,,,SPR24_067,35,female,2024-04-18_15h33.00.195,jersey_experiment_5_v0,2023.2.2,Win32,84.03361345,,,,,,,,,,,,,,,,118.3809,119.4278,119.4278,120.5689,return,0.1314,,49.08854167,0,12,12,56,1,FBP-PT-19.png,0.37,1.2,57,0.25,,,,,,,,,,,,,,,,,,,,,,,,,,,,,,,,,,,,,,,,,,,,,
,,,,,SPR24_067,35,female,2024-04-18_15h33.00.195,jersey_experiment_5_v0,2023.2.2,Win32,84.03361345,,,,,,,,,,,,,,,,120.5692,121.6161,121.6161,122.9808,return,0.1375,,69.40104167,0,13,13,22,1,FBP-YG-18.png,0.4,1.2,23,0.25,,,,,,,,,,,,,,,,,,,,,,,,,,,,,,,,,,,,,,,,,,,,,
,,,,,SPR24_067,35,female,2024-04-18_15h33.00.195,jersey_experiment_5_v0,2023.2.2,Win32,84.03361345,,,,,,,,,,,,,,,,122.981,124.0279,124.0279,124.9691,return,0.0745,,50.78125,0,14,14,55,1,FBP-PT-19.png,0.35,1.2,56,0.25,,,,,,,,,,,,,,,,,,,,,,,,,,,,,,,,,,,,,,,,,,,,,
,,,,,SPR24_067,35,female,2024-04-18_15h33.00.195,jersey_experiment_5_v0,2023.2.2,Win32,84.03361345,,,,,,,,,,,,,,,,124.9693,126.2633,126.2633,127.0985,return,0.0244,,56.38020833,0,15,15,42,1,FBP-RB-19.png,0.4,1.2,43,0.5,,,,,,,,,,,,,,,,,,,,,,,,,,,,,,,,,,,,,,,,,,,,,
,,,,,SPR24_067,35,female,2024-04-18_15h33.00.195,jersey_experiment_5_v0,2023.2.2,Win32,84.03361345,,,,,,,,,,,,,,,,127.0988,128.1457,128.1457,129.3105,return,0.2121,,75.78125,0,16,16,18,1,FBP-YG-17.png,0.43,1.2,19,0.25,,,,,,,,,,,,,,,,,,,,,,,,,,,,,,,,,,,,,,,,,,,,,
,,,,,SPR24_067,35,female,2024-04-18_15h33.00.195,jersey_experiment_5_v0,2023.2.2,Win32,84.03361345,,,,,,,,,,,,,,,,129.3107,130.3576,130.3576,132.1222,return,0.6614,,74.609375,0,17,17,53,1,FBP-PT-18.png,0.43,1.2,54,0.25,,,,,,,,,,,,,,,,,,,,,,,,,,,,,,,,,,,,,,,,,,,,,
,,,,,SPR24_067,35,female,2024-04-18_15h33.00.195,jersey_experiment_5_v0,2023.2.2,Win32,84.03361345,,,,,,,,,,,,,,,,132.1225,133.1695,133.1696,134.0282,return,0.1412,,75,0,18,18,54,1,FBP-PT-18.png,0.45,1.2,55,0.25,,,,,,,,,,,,,,,,,,,,,,,,,,,,,,,,,,,,,,,,,,,,,
,,,,,SPR24_067,35,female,2024-04-18_15h33.00.195,jersey_experiment_5_v0,2023.2.2,Win32,84.03361345,,,,,,,,,,,,,,,,134.0284,135.0754,135.0754,137.1345,return,1.4358,,56.11979167,0,19,19,15,1,FBP-YG-17.png,0.35,1.2,16,0.25,,,,,,,,,,,,,,,,,,,,,,,,,,,,,,,,,,,,,,,,,,,,,
,,,,,SPR24_067,35,female,2024-04-18_15h33.00.195,jersey_experiment_5_v0,2023.2.2,Win32,84.03361345,,,,,,,,,,,,,,,,137.1347,138.1813,138.1813,139.0284,return,0.0437,,65.88541667,0,20,20,48,1,FBP-PT-17.png,0.43,1.2,49,0.25,,,,,,,,,,,,,,,,,,,,,,,,,,,,,,,,,,,,,,,,,,,,,
,,,,,SPR24_067,35,female,2024-04-18_15h33.00.195,jersey_experiment_5_v0,2023.2.2,Win32,84.03361345,,,,,,,,,,,,,,,,139.0287,140.3228,140.3228,141.1461,return,0.2493,,57.03125,0,21,21,36,1,FBP-RB-18.png,0.37,1.2,37,0.5,,,,,,,,,,,,,,,,,,,,,,,,,,,,,,,,,,,,,,,,,,,,,
,,,,,SPR24_067,35,female,2024-04-18_15h33.00.195,jersey_experiment_5_v0,2023.2.2,Win32,84.03361345,,,,,,,,,,,,,,,,141.1463,142.1933,142.1933,143.252,return,0.2771,,55.46875,0,22,22,52,1,FBP-PT-18.png,0.4,1.2,53,0.25,,,,,,,,,,,,,,,,,,,,,,,,,,,,,,,,,,,,,,,,,,,,,
,,,,,SPR24_067,35,female,2024-04-18_15h33.00.195,jersey_experiment_5_v0,2023.2.2,Win32,84.03361345,,,,,,,,,,,,,,,,143.2522,144.5463,144.5464,145.3582,return,0.0849,,58.984375,0,23,23,7,1,FBP-OG-81.png,0.4,1.2,8,0.5,,,,,,,,,,,,,,,,,,,,,,,,,,,,,,,,,,,,,,,,,,,,,
,,,,,SPR24_067,35,female,2024-04-18_15h33.00.195,jersey_experiment_5_v0,2023.2.2,Win32,84.03361345,,,,,,,,,,,,,,,,145.3584,146.4051,146.4052,147.3112,return,0.1321,,69.140625,0,24,24,58,1,FBP-PT-19.png,0.43,1.2,59,0.25,,,,,,,,,,,,,,,,,,,,,,,,,,,,,,,,,,,,,,,,,,,,,
,,,,,SPR24_067,35,female,2024-04-18_15h33.00.195,jersey_experiment_5_v0,2023.2.2,Win32,84.03361345,,,,,,,,,,,,,,,,147.3114,148.6053,148.6054,149.5112,return,0.0289,,67.96875,0,25,25,13,1,FBP-OG-91.png,0.43,1.2,14,0.5,,,,,,,,,,,,,,,,,,,,,,,,,,,,,,,,,,,,,,,,,,,,,
,,,,,SPR24_067,35,female,2024-04-18_15h33.00.195,jersey_experiment_5_v0,2023.2.2,Win32,84.03361345,,,,,,,,,,,,,,,,149.5114,150.5582,150.5582,151.5581,return,0.1944,,61.97916667,0,26,26,16,1,FBP-YG-17.png,0.37,1.2,17,0.25,,,,,,,,,,,,,,,,,,,,,,,,,,,,,,,,,,,,,,,,,,,,,
,,,,,SPR24_067,35,female,2024-04-18_15h33.00.195,jersey_experiment_5_v0,2023.2.2,Win32,84.03361345,,,,,,,,,,,,,,,,151.5582,152.8522,152.8523,153.7701,return,0.2242,,69.79166667,0,27,27,38,1,FBP-RB-18.png,0.43,1.2,39,0.5,,,,,,,,,,,,,,,,,,,,,,,,,,,,,,,,,,,,,,,,,,,,,
,,,,,SPR24_067,35,female,2024-04-18_15h33.00.195,jersey_experiment_5_v0,2023.2.2,Win32,84.03361345,,,,,,,,,,,,,,,,153.7703,154.8172,154.8173,155.5818,return,0.1513,,69.53125,0,28,28,59,1,FBP-PT-19.png,0.45,1.2,60,0.25,,,,,,,,,,,,,,,,,,,,,,,,,,,,,,,,,,,,,,,,,,,,,
,,,,,SPR24_067,35,female,2024-04-18_15h33.00.195,jersey_experiment_5_v0,2023.2.2,Win32,84.03361345,,,,,,,,,,,,,,,,155.5821,156.8761,156.8761,157.5819,return,0.1417,,56.25,0,29,29,11,1,FBP-OG-91.png,0.37,1.2,12,0.5,,,,,,,,,,,,,,,,,,,,,,,,,,,,,,,,,,,,,,,,,,,,,
,,,,,SPR24_067,35,female,2024-04-18_15h33.00.195,jersey_experiment_5_v0,2023.2.2,Win32,84.03361345,,,,,,,,,,,,,,,,157.5821,158.8763,158.8763,159.641,return,0.133,,53.64583333,0,30,30,30,1,FBP-RB-17.png,0.35,1.2,31,0.5,,,,,,,,,,,,,,,,,,,,,,,,,,,,,,,,,,,,,,,,,,,,,
,,,,,SPR24_067,35,female,2024-04-18_15h33.00.195,jersey_experiment_5_v0,2023.2.2,Win32,84.03361345,,,,,,,,,,,,,,,,159.6412,160.9352,160.9353,161.6056,return,0.0775,,59.89583333,0,31,31,2,1,FBP-OG-71.png,0.4,1.2,3,0.5,,,,,,,,,,,,,,,,,,,,,,,,,,,,,,,,,,,,,,,,,,,,,
,,,,,SPR24_067,35,female,2024-04-18_15h33.00.195,jersey_experiment_5_v0,2023.2.2,Win32,84.03361345,,,,,,,,,,,,,,,,161.6059,162.6528,162.6528,163.5469,return,0.0243,,72.65625,0,32,32,29,1,FBP-YG-19.png,0.45,1.2,30,0.25,,,,,,,,,,,,,,,,,,,,,,,,,,,,,,,,,,,,,,,,,,,,,
,,,,,SPR24_067,35,female,2024-04-18_15h33.00.195,jersey_experiment_5_v0,2023.2.2,Win32,84.03361345,,,,,,,,,,,,,,,,163.5471,164.5941,164.5941,165.7354,return,0.0034,,74.609375,0,33,33,17,1,FBP-YG-17.png,0.4,1.2,18,0.25,,,,,,,,,,,,,,,,,,,,,,,,,,,,,,,,,,,,,,,,,,,,,
,,,,,SPR24_067,35,female,2024-04-18_15h33.00.195,jersey_experiment_5_v0,2023.2.2,Win32,84.03361345,,,,,,,,,,,,,,,,165.7355,166.7824,166.7824,167.7588,return,0.0608,,68.09895833,0,34,34,51,1,FBP-PT-18.png,0.37,1.2,52,0.25,,,,,,,,,,,,,,,,,,,,,,,,,,,,,,,,,,,,,,,,,,,,,
,,,,,SPR24_067,35,female,2024-04-18_15h33.00.195,jersey_experiment_5_v0,2023.2.2,Win32,84.03361345,,,,,,,,,,,,,,,,167.7589,168.8058,168.8058,169.6528,return,0.1017,,60.80729167,0,35,35,45,1,FBP-PT-17.png,0.35,1.2,46,0.25,,,,,,,,,,,,,,,,,,,,,,,,,,,,,,,,,,,,,,,,,,,,,
,,,,,SPR24_067,35,female,2024-04-18_15h33.00.195,jersey_experiment_5_v0,2023.2.2,Win32,84.03361345,,,,,,,,,,,,,,,,169.6531,170.7,170.7001,171.4061,return,0.155,,60.80729167,0,36,36,20,1,FBP-YG-18.png,0.35,1.2,21,0.25,,,,,,,,,,,,,,,,,,,,,,,,,,,,,,,,,,,,,,,,,,,,,
,,,,,SPR24_067,35,female,2024-04-18_15h33.00.195,jersey_experiment_5_v0,2023.2.2,Win32,84.03361345,,,,,,,,,,,,,,,,171.4062,172.453,172.4531,173.2883,return,0.0869,,74.47916667,0,37,37,19,1,FBP-YG-17.png,0.45,1.2,20,0.25,,,,,,,,,,,,,,,,,,,,,,,,,,,,,,,,,,,,,,,,,,,,,
,,,,,SPR24_067,35,female,2024-04-18_15h33.00.195,jersey_experiment_5_v0,2023.2.2,Win32,84.03361345,,,,,,,,,,,,,,,,173.2886,174.5824,174.5825,175.512,return,0.099,,75.91145833,0,38,38,4,1,FBP-OG-71.png,0.45,1.2,5,0.5,,,,,,,,,,,,,,,,,,,,,,,,,,,,,,,,,,,,,,,,,,,,,
,,,,,SPR24_067,35,female,2024-04-18_15h33.00.195,jersey_experiment_5_v0,2023.2.2,Win32,84.03361345,,,,,,,,,,,,,,,,175.5123,176.559,176.5591,177.2297,return,0.0944,,74.73958333,0,39,39,24,1,FBP-YG-18.png,0.45,1.2,25,0.25,,,,,,,,,,,,,,,,,,,,,,,,,,,,,,,,,,,,,,,,,,,,,
,,,,,SPR24_067,35,female,2024-04-18_15h33.00.195,jersey_experiment_5_v0,2023.2.2,Win32,84.03361345,,,,,,,,,,,,,,,,177.23,178.5239,178.5239,179.5122,return,0.781,,64.0625,0,40,40,3,1,FBP-OG-71.png,0.43,1.2,4,0.5,,,,,,,,,,,,,,,,,,,,,,,,,,,,,,,,,,,,,,,,,,,,,
,,,,,SPR24_067,35,female,2024-04-18_15h33.00.195,jersey_experiment_5_v0,2023.2.2,Win32,84.03361345,,,,,,,,,,,,,,,,179.5124,180.5593,180.5593,181.1239,return,0.1145,,63.54166667,0,41,41,21,1,FBP-YG-18.png,0.37,1.2,22,0.25,,,,,,,,,,,,,,,,,,,,,,,,,,,,,,,,,,,,,,,,,,,,,
,,,,,SPR24_067,35,female,2024-04-18_15h33.00.195,jersey_experiment_5_v0,2023.2.2,Win32,84.03361345,,,,,,,,,,,,,,,,181.124,182.171,182.1711,183.0181,return,0.0498,,75.13020833,0,42,42,49,1,FBP-PT-17.png,0.45,1.2,50,0.25,,,,,,,,,,,,,,,,,,,,,,,,,,,,,,,,,,,,,,,,,,,,,
,,,,,SPR24_067,35,female,2024-04-18_15h33.00.195,jersey_experiment_5_v0,2023.2.2,Win32,84.03361345,,,,,,,,,,,,,,,,183.0183,184.0653,184.0654,184.9829,return,0.1348,,64.453125,0,43,43,26,1,FBP-YG-19.png,0.37,1.2,27,0.25,,,,,,,,,,,,,,,,,,,,,,,,,,,,,,,,,,,,,,,,,,,,,
,,,,,SPR24_067,35,female,2024-04-18_15h33.00.195,jersey_experiment_5_v0,2023.2.2,Win32,84.03361345,,,,,,,,,,,,,,,,184.9832,186.2773,186.2773,187.1242,return,0.29,,75.91145833,0,44,44,34,1,FBP-RB-17.png,0.45,1.2,35,0.5,,,,,,,,,,,,,,,,,,,,,,,,,,,,,,,,,,,,,,,,,,,,,
,,,,,SPR24_067,35,female,2024-04-18_15h33.00.195,jersey_experiment_5_v0,2023.2.2,Win32,84.03361345,,,,,,,,,,,,,,,,187.1245,188.1712,188.1712,188.9712,return,0.0819,,75,0,45,45,27,1,FBP-YG-19.png,0.4,1.2,28,0.25,,,,,,,,,,,,,,,,,,,,,,,,,,,,,,,,,,,,,,,,,,,,,
,,,,,SPR24_067,35,female,2024-04-18_15h33.00.195,jersey_experiment_5_v0,2023.2.2,Win32,84.03361345,,,,,,,,,,,,,,,,188.9715,190.0183,190.0183,190.6303,return,0.0993,,66.92708333,0,46,46,57,1,FBP-PT-19.png,0.4,1.2,58,0.25,,,,,,,,,,,,,,,,,,,,,,,,,,,,,,,,,,,,,,,,,,,,,
,,,,,SPR24_067,35,female,2024-04-18_15h33.00.195,jersey_experiment_5_v0,2023.2.2,Win32,84.03361345,,,,,,,,,,,,,,,,190.6305,191.9244,191.9245,193.0537,return,0.1648,,46.875,0,47,47,40,1,FBP-RB-19.png,0.35,1.2,41,0.5,,,,,,,,,,,,,,,,,,,,,,,,,,,,,,,,,,,,,,,,,,,,,
,,,,,SPR24_067,35,female,2024-04-18_15h33.00.195,jersey_experiment_5_v0,2023.2.2,Win32,84.03361345,,,,,,,,,,,,,,,,193.0539,194.3479,194.348,195.2891,return,0.0252,,43.359375,0,48,48,41,1,FBP-RB-19.png,0.37,1.2,42,0.5,,,,,,,,,,,,,,,,,,,,,,,,,,,,,,,,,,,,,,,,,,,,,
,,,,,SPR24_067,35,female,2024-04-18_15h33.00.195,jersey_experiment_5_v0,2023.2.2,Win32,84.03361345,,,,,,,,,,,,,,,,195.2895,196.5835,196.5836,197.7479,return,0.6442,,43.61979167,0,49,49,0,1,FBP-OG-71.png,0.35,1.2,1,0.5,,,,,,,,,,,,,,,,,,,,,,,,,,,,,,,,,,,,,,,,,,,,,
,,,,,SPR24_067,35,female,2024-04-18_15h33.00.195,jersey_experiment_5_v0,2023.2.2,Win32,84.03361345,,,,,,,,,,,,,,,,197.7481,199.0421,199.0421,199.7012,return,0.0783,,44.40104167,0,50,50,31,1,FBP-RB-17.png,0.37,1.2,32,0.5,,,,,,,,,,,,,,,,,,,,,,,,,,,,,,,,,,,,,,,,,,,,,
,,,,,SPR24_067,35,female,2024-04-18_15h33.00.195,jersey_experiment_5_v0,2023.2.2,Win32,84.03361345,,,,,,,,,,,,,,,,199.7014,200.9951,200.9952,201.6894,return,0.0257,,52.60416667,0,51,51,32,1,FBP-RB-17.png,0.4,1.2,33,0.5,,,,,,,,,,,,,,,,,,,,,,,,,,,,,,,,,,,,,,,,,,,,,
,,,,,SPR24_067,35,female,2024-04-18_15h33.00.195,jersey_experiment_5_v0,2023.2.2,Win32,84.03361345,,,,,,,,,,,,,,,,201.6896,202.9836,202.9837,204.0541,return,0.0157,,65.234375,0,52,52,9,1,FBP-OG-81.png,0.45,1.2,10,0.5,,,,,,,,,,,,,,,,,,,,,,,,,,,,,,,,,,,,,,,,,,,,,
,,,,,SPR24_067,35,female,2024-04-18_15h33.00.195,jersey_experiment_5_v0,2023.2.2,Win32,84.03361345,,,,,,,,,,,,,,,,204.0543,205.1014,205.1015,206.2073,return,0.0231,,62.23958333,0,53,53,47,1,FBP-PT-17.png,0.4,1.2,48,0.25,,,,,,,,,,,,,,,,,,,,,,,,,,,,,,,,,,,,,,,,,,,,,
,,,,,SPR24_067,35,female,2024-04-18_15h33.00.195,jersey_experiment_5_v0,2023.2.2,Win32,84.03361345,,,,,,,,,,,,,,,,206.2075,207.2542,207.2544,208.0898,return,0.1091,,73.4375,0,54,54,28,1,FBP-YG-19.png,0.43,1.2,29,0.25,,,,,,,,,,,,,,,,,,,,,,,,,,,,,,,,,,,,,,,,,,,,,
,,,,,SPR24_067,35,female,2024-04-18_15h33.00.195,jersey_experiment_5_v0,2023.2.2,Win32,84.03361345,,,,,,,,,,,,,,,,208.09,209.3838,209.3838,210.1485,return,0.0553,,70.83333333,0,55,55,43,1,FBP-RB-19.png,0.43,1.2,44,0.5,,,,,,,,,,,,,,,,,,,,,,,,,,,,,,,,,,,,,,,,,,,,,
,,,,,SPR24_067,35,female,2024-04-18_15h33.00.195,jersey_experiment_5_v0,2023.2.2,Win32,84.03361345,,,,,,,,,,,,,,,,210.1488,211.4427,211.4428,211.9956,return,0.1077,,71.61458333,0,56,56,14,1,FBP-OG-91.png,0.45,1.2,15,0.5,,,,,,,,,,,,,,,,,,,,,,,,,,,,,,,,,,,,,,,,,,,,,
,,,,,SPR24_067,35,female,2024-04-18_15h33.00.195,jersey_experiment_5_v0,2023.2.2,Win32,84.03361345,,,,,,,,,,,,,,,,211.9959,213.0425,213.0425,213.8192,return,0.0725,,57.68229167,0,57,57,46,1,FBP-PT-17.png,0.37,1.2,47,0.25,,,,,,,,,,,,,,,,,,,,,,,,,,,,,,,,,,,,,,,,,,,,,
,,,,,SPR24_067,35,female,2024-04-18_15h33.00.195,jersey_experiment_5_v0,2023.2.2,Win32,84.03361345,,,,,,,,,,,,,,,,213.8193,214.8663,214.8663,215.6545,return,0.0529,,68.75,0,58,58,23,1,FBP-YG-18.png,0.43,1.2,24,0.25,,,,,,,,,,,,,,,,,,,,,,,,,,,,,,,,,,,,,,,,,,,,,
,,,,,SPR24_067,35,female,2024-04-18_15h33.00.195,jersey_experiment_5_v0,2023.2.2,Win32,84.03361345,,,,,,,,,,,,,,,,215.6548,216.9486,216.9486,217.7841,return,0.0964,,62.5,0,59,59,37,1,FBP-RB-18.png,0.4,1.2,38,0.5,,,,,,,,,,,,,,,,,,,,,,,,,,,,,,,,,,,,,,,,,,,,,
,,,,,SPR24_067,35,female,2024-04-18_15h33.00.195,jersey_experiment_5_v0,2023.2.2,Win32,84.03361345,,,,,,,,,,,,,,,,217.7864,218.8311,218.8312,219.4664,return,0.0826,,70.3125,,,,,,FBP-YG-81.png,0.43,1.2,24,0.25,0,0,0,23,1,,,,,,,,,,,,,,,,,,,,,,,,,,,,,,,,,,,,,,,,
,,,,,SPR24_067,35,female,2024-04-18_15h33.00.195,jersey_experiment_5_v0,2023.2.2,Win32,84.03361345,,,,,,,,,,,,,,,,219.4668,220.7605,220.7606,221.243,return,0.156,,69.921875,,,,,,FBP-RB-71.png,0.45,1.2,35,0.5,0,1,1,34,1,,,,,,,,,,,,,,,,,,,,,,,,,,,,,,,,,,,,,,,,
,,,,,SPR24_067,35,female,2024-04-18_15h33.00.195,jersey_experiment_5_v0,2023.2.2,Win32,84.03361345,,,,,,,,,,,,,,,,221.2433,222.29,222.29,223.1136,return,0.1443,,69.921875,,,,,,FBP-YG-81.png,0.4,1.2,23,0.25,0,2,2,22,1,,,,,,,,,,,,,,,,,,,,,,,,,,,,,,,,,,,,,,,,
,,,,,SPR24_067,35,female,2024-04-18_15h33.00.195,jersey_experiment_5_v0,2023.2.2,Win32,84.03361345,,,,,,,,,,,,,,,,223.1138,224.1608,224.1608,224.7725,return,0.0668,,47.91666667,,,,,,FBP-PT-81.png,0.35,1.2,51,0.25,0,3,3,50,1,,,,,,,,,,,,,,,,,,,,,,,,,,,,,,,,,,,,,,,,
,,,,,SPR24_067,35,female,2024-04-18_15h33.00.195,jersey_experiment_5_v0,2023.2.2,Win32,84.03361345,,,,,,,,,,,,,,,,224.7727,226.0668,226.0669,226.655,return,0.0713,,41.14583333,,,,,,FBP-OG-18.png,0.37,1.2,7,0.5,0,4,4,6,1,,,,,,,,,,,,,,,,,,,,,,,,,,,,,,,,,,,,,,,,
,,,,,SPR24_067,35,female,2024-04-18_15h33.00.195,jersey_experiment_5_v0,2023.2.2,Win32,84.03361345,,,,,,,,,,,,,,,,226.6553,227.702,227.702,228.5844,return,0.0726,,57.68229167,,,,,,FBP-PT-91.png,0.4,1.2,58,0.25,0,5,5,57,1,,,,,,,,,,,,,,,,,,,,,,,,,,,,,,,,,,,,,,,,
,,,,,SPR24_067,35,female,2024-04-18_15h33.00.195,jersey_experiment_5_v0,2023.2.2,Win32,84.03361345,,,,,,,,,,,,,,,,228.5847,229.8786,229.8786,230.655,return,0.0005,,60.67708333,,,,,,FBP-RB-71.png,0.4,1.2,33,0.5,0,6,6,32,1,,,,,,,,,,,,,,,,,,,,,,,,,,,,,,,,,,,,,,,,
,,,,,SPR24_067,35,female,2024-04-18_15h33.00.195,jersey_experiment_5_v0,2023.2.2,Win32,84.03361345,,,,,,,,,,,,,,,,230.6552,231.9493,231.9493,232.5847,return,0.0963,,75.65104167,,,,,,FBP-OG-17.png,0.45,1.2,5,0.5,0,7,7,4,1,,,,,,,,,,,,,,,,,,,,,,,,,,,,,,,,,,,,,,,,
,,,,,SPR24_067,35,female,2024-04-18_15h33.00.195,jersey_experiment_5_v0,2023.2.2,Win32,84.03361345,,,,,,,,,,,,,,,,232.5849,233.6316,233.6316,234.3612,return,0.0604,,59.765625,,,,,,FBP-YG-91.png,0.37,1.2,27,0.25,0,8,8,26,1,,,,,,,,,,,,,,,,,,,,,,,,,,,,,,,,,,,,,,,,
,,,,,SPR24_067,35,female,2024-04-18_15h33.00.195,jersey_experiment_5_v0,2023.2.2,Win32,84.03361345,,,,,,,,,,,,,,,,234.3615,235.6552,235.6553,236.1258,return,0.1509,,59.63541667,,,,,,FBP-RB-81.png,0.37,1.2,37,0.5,0,9,9,36,1,,,,,,,,,,,,,,,,,,,,,,,,,,,,,,,,,,,,,,,,
,,,,,SPR24_067,35,female,2024-04-18_15h33.00.195,jersey_experiment_5_v0,2023.2.2,Win32,84.03361345,,,,,,,,,,,,,,,,236.126,237.1729,237.1729,237.62,return,0.1,,59.765625,,,,,,FBP-PT-81.png,0.4,1.2,53,0.25,0,10,10,52,1,,,,,,,,,,,,,,,,,,,,,,,,,,,,,,,,,,,,,,,,
,,,,,SPR24_067,35,female,2024-04-18_15h33.00.195,jersey_experiment_5_v0,2023.2.2,Win32,84.03361345,,,,,,,,,,,,,,,,237.6202,238.9141,238.9142,239.8319,return,0.0874,,66.92708333,,,,,,FBP-OG-19.png,0.43,1.2,14,0.5,0,11,11,13,1,,,,,,,,,,,,,,,,,,,,,,,,,,,,,,,,,,,,,,,,
,,,,,SPR24_067,35,female,2024-04-18_15h33.00.195,jersey_experiment_5_v0,2023.2.2,Win32,84.03361345,,,,,,,,,,,,,,,,239.8322,240.8789,240.879,241.82,return,0.1418,,73.95833333,,,,,,FBP-YG-81.png,0.45,1.2,25,0.25,0,12,12,24,1,,,,,,,,,,,,,,,,,,,,,,,,,,,,,,,,,,,,,,,,
,,,,,SPR24_067,35,female,2024-04-18_15h33.00.195,jersey_experiment_5_v0,2023.2.2,Win32,84.03361345,,,,,,,,,,,,,,,,241.8202,242.8674,242.8674,243.6201,return,0.03,,75.390625,,,,,,FBP-YG-71.png,0.43,1.2,19,0.25,0,13,13,18,1,,,,,,,,,,,,,,,,,,,,,,,,,,,,,,,,,,,,,,,,
,,,,,SPR24_067,35,female,2024-04-18_15h33.00.195,jersey_experiment_5_v0,2023.2.2,Win32,84.03361345,,,,,,,,,,,,,,,,243.6203,244.9144,244.9144,245.7026,return,0.0297,,69.01041667,,,,,,FBP-OG-17.png,0.43,1.2,4,0.5,0,14,14,3,1,,,,,,,,,,,,,,,,,,,,,,,,,,,,,,,,,,,,,,,,
,,,,,SPR24_067,35,female,2024-04-18_15h33.00.195,jersey_experiment_5_v0,2023.2.2,Win32,84.03361345,,,,,,,,,,,,,,,,245.7027,246.9967,246.9968,247.3027,return,0.1569,,69.01041667,,,,,,FBP-OG-19.png,0.4,1.2,13,0.5,0,15,15,12,1,,,,,,,,,,,,,,,,,,,,,,,,,,,,,,,,,,,,,,,,
,,,,,SPR24_067,35,female,2024-04-18_15h33.00.195,jersey_experiment_5_v0,2023.2.2,Win32,84.03361345,,,,,,,,,,,,,,,,247.3029,248.5968,248.5968,249.2909,return,0.037,,62.23958333,,,,,,FBP-RB-81.png,0.4,1.2,38,0.5,0,16,16,37,1,,,,,,,,,,,,,,,,,,,,,,,,,,,,,,,,,,,,,,,,
,,,,,SPR24_067,35,female,2024-04-18_15h33.00.195,jersey_experiment_5_v0,2023.2.2,Win32,84.03361345,,,,,,,,,,,,,,,,249.2912,250.5853,250.5853,251.4204,return,0.2355,,47.91666667,,,,,,FBP-RB-81.png,0.35,1.2,36,0.5,0,17,17,35,1,,,,,,,,,,,,,,,,,,,,,,,,,,,,,,,,,,,,,,,,
,,,,,SPR24_067,35,female,2024-04-18_15h33.00.195,jersey_experiment_5_v0,2023.2.2,Win32,84.03361345,,,,,,,,,,,,,,,,251.4207,252.4675,252.4676,253.2912,return,0.0614,,46.22395833,,,,,,FBP-YG-71.png,0.4,1.2,18,0.25,0,18,18,17,1,,,,,,,,,,,,,,,,,,,,,,,,,,,,,,,,,,,,,,,,
,,,,,SPR24_067,35,female,2024-04-18_15h33.00.195,jersey_experiment_5_v0,2023.2.2,Win32,84.03361345,,,,,,,,,,,,,,,,253.2915,254.5854,254.5854,255.3264,return,0.1042,,39.71354167,,,,,,FBP-OG-18.png,0.35,1.2,6,0.5,0,19,19,5,1,,,,,,,,,,,,,,,,,,,,,,,,,,,,,,,,,,,,,,,,
,,,,,SPR24_067,35,female,2024-04-18_15h33.00.195,jersey_experiment_5_v0,2023.2.2,Win32,84.03361345,,,,,,,,,,,,,,,,255.3265,256.6206,256.6206,257.15,return,0.1551,,39.84375,,,,,,FBP-RB-71.png,0.37,1.2,32,0.5,0,20,20,31,1,,,,,,,,,,,,,,,,,,,,,,,,,,,,,,,,,,,,,,,,
,,,,,SPR24_067,35,female,2024-04-18_15h33.00.195,jersey_experiment_5_v0,2023.2.2,Win32,84.03361345,,,,,,,,,,,,,,,,257.1502,258.1972,258.1972,259.5148,return,0.0956,,77.34375,,,,,,FBP-PT-71.png,0.45,1.2,50,0.25,0,21,21,49,1,,,,,,,,,,,,,,,,,,,,,,,,,,,,,,,,,,,,,,,,
,,,,,SPR24_067,35,female,2024-04-18_15h33.00.195,jersey_experiment_5_v0,2023.2.2,Win32,84.03361345,,,,,,,,,,,,,,,,259.515,260.8092,260.8093,261.4797,return,0.0023,,75.26041667,,,,,,FBP-RB-81.png,0.43,1.2,39,0.5,0,22,22,38,1,,,,,,,,,,,,,,,,,,,,,,,,,,,,,,,,,,,,,,,,
,,,,,SPR24_067,35,female,2024-04-18_15h33.00.195,jersey_experiment_5_v0,2023.2.2,Win32,84.03361345,,,,,,,,,,,,,,,,261.4799,262.5268,262.5268,263.3738,return,0.0711,,52.21354167,,,,,,FBP-YG-91.png,0.35,1.2,26,0.25,0,23,23,25,1,,,,,,,,,,,,,,,,,,,,,,,,,,,,,,,,,,,,,,,,
,,,,,SPR24_067,35,female,2024-04-18_15h33.00.195,jersey_experiment_5_v0,2023.2.2,Win32,84.03361345,,,,,,,,,,,,,,,,263.374,264.6679,264.668,265.2209,return,0.1134,,50.26041667,,,,,,FBP-RB-91.png,0.37,1.2,42,0.5,0,24,24,41,1,,,,,,,,,,,,,,,,,,,,,,,,,,,,,,,,,,,,,,,,
,,,,,SPR24_067,35,female,2024-04-18_15h33.00.195,jersey_experiment_5_v0,2023.2.2,Win32,84.03361345,,,,,,,,,,,,,,,,265.2211,266.5153,266.5153,267.4328,return,0.0955,,50.26041667,,,,,,FBP-RB-91.png,0.35,1.2,41,0.5,0,25,25,40,1,,,,,,,,,,,,,,,,,,,,,,,,,,,,,,,,,,,,,,,,
,,,,,SPR24_067,35,female,2024-04-18_15h33.00.195,jersey_experiment_5_v0,2023.2.2,Win32,84.03361345,,,,,,,,,,,,,,,,267.4331,268.727,268.727,269.4447,return,0.0315,,75.13020833,,,,,,FBP-RB-81.png,0.45,1.2,40,0.5,0,26,26,39,1,,,,,,,,,,,,,,,,,,,,,,,,,,,,,,,,,,,,,,,,
,,,,,SPR24_067,35,female,2024-04-18_15h33.00.195,jersey_experiment_5_v0,2023.2.2,Win32,84.03361345,,,,,,,,,,,,,,,,269.4448,270.7387,270.7389,271.0918,return,0.1972,,74.21875,,,,,,FBP-RB-71.png,0.43,1.2,34,0.5,0,27,27,33,1,,,,,,,,,,,,,,,,,,,,,,,,,,,,,,,,,,,,,,,,
,,,,,SPR24_067,35,female,2024-04-18_15h33.00.195,jersey_experiment_5_v0,2023.2.2,Win32,84.03361345,,,,,,,,,,,,,,,,271.0921,272.3858,272.3858,273.7741,return,0.5416,,63.54166667,,,,,,FBP-RB-91.png,0.4,1.2,43,0.5,0,28,28,42,1,,,,,,,,,,,,,,,,,,,,,,,,,,,,,,,,,,,,,,,,
,,,,,SPR24_067,35,female,2024-04-18_15h33.00.195,jersey_experiment_5_v0,2023.2.2,Win32,84.03361345,,,,,,,,,,,,,,,,273.7743,274.8213,274.8213,275.4917,return,0.1587,,63.93229167,,,,,,FBP-YG-91.png,0.4,1.2,28,0.25,0,29,29,27,1,,,,,,,,,,,,,,,,,,,,,,,,,,,,,,,,,,,,,,,,
,,,,,SPR24_067,35,female,2024-04-18_15h33.00.195,jersey_experiment_5_v0,2023.2.2,Win32,84.03361345,,,,,,,,,,,,,,,,275.4919,276.7861,276.7861,277.5509,return,0.1419,,75.78125,,,,,,FBP-OG-19.png,0.45,1.2,15,0.5,0,30,30,14,1,,,,,,,,,,,,,,,,,,,,,,,,,,,,,,,,,,,,,,,,
,,,,,SPR24_067,35,female,2024-04-18_15h33.00.195,jersey_experiment_5_v0,2023.2.2,Win32,84.03361345,,,,,,,,,,,,,,,,277.551,278.845,278.845,279.5272,return,0.0641,,76.171875,,,,,,FBP-RB-91.png,0.45,1.2,45,0.5,0,31,31,44,1,,,,,,,,,,,,,,,,,,,,,,,,,,,,,,,,,,,,,,,,
,,,,,SPR24_067,35,female,2024-04-18_15h33.00.195,jersey_experiment_5_v0,2023.2.2,Win32,84.03361345,,,,,,,,,,,,,,,,279.5275,280.8215,280.8215,281.9273,return,0.1818,,32.421875,,,,,,FBP-OG-19.png,0.35,1.2,11,0.5,0,32,32,10,1,,,,,,,,,,,,,,,,,,,,,,,,,,,,,,,,,,,,,,,,
,,,,,SPR24_067,35,female,2024-04-18_15h33.00.195,jersey_experiment_5_v0,2023.2.2,Win32,84.03361345,,,,,,,,,,,,,,,,281.9275,282.9745,282.9746,283.8451,return,0.0646,,74.73958333,,,,,,FBP-PT-81.png,0.45,1.2,55,0.25,0,33,33,54,1,,,,,,,,,,,,,,,,,,,,,,,,,,,,,,,,,,,,,,,,
,,,,,SPR24_067,35,female,2024-04-18_15h33.00.195,jersey_experiment_5_v0,2023.2.2,Win32,84.03361345,,,,,,,,,,,,,,,,283.8453,285.1394,285.1394,285.7394,return,0.1085,,75.26041667,,,,,,FBP-OG-18.png,0.45,1.2,10,0.5,0,34,34,9,1,,,,,,,,,,,,,,,,,,,,,,,,,,,,,,,,,,,,,,,,
,,,,,SPR24_067,35,female,2024-04-18_15h33.00.195,jersey_experiment_5_v0,2023.2.2,Win32,84.03361345,,,,,,,,,,,,,,,,285.7396,286.7865,286.7865,287.6924,return,0.0615,,61.06770833,,,,,,FBP-PT-91.png,0.43,1.2,59,0.25,0,35,35,58,1,,,,,,,,,,,,,,,,,,,,,,,,,,,,,,,,,,,,,,,,
,,,,,SPR24_067,35,female,2024-04-18_15h33.00.195,jersey_experiment_5_v0,2023.2.2,Win32,84.03361345,,,,,,,,,,,,,,,,287.6926,288.7394,288.7394,289.7747,return,0.0701,,72.13541667,,,,,,FBP-YG-91.png,0.45,1.2,30,0.25,0,36,36,29,1,,,,,,,,,,,,,,,,,,,,,,,,,,,,,,,,,,,,,,,,
,,,,,SPR24_067,35,female,2024-04-18_15h33.00.195,jersey_experiment_5_v0,2023.2.2,Win32,84.03361345,,,,,,,,,,,,,,,,289.7749,290.8221,290.8221,291.869,return,0.1411,,36.45833333,,,,,,FBP-PT-81.png,0.37,1.2,52,0.25,0,37,37,51,1,,,,,,,,,,,,,,,,,,,,,,,,,,,,,,,,,,,,,,,,
,,,,,SPR24_067,35,female,2024-04-18_15h33.00.195,jersey_experiment_5_v0,2023.2.2,Win32,84.03361345,,,,,,,,,,,,,,,,291.8692,292.916,292.9161,293.7867,return,0.0375,,74.73958333,,,,,,FBP-YG-71.png,0.45,1.2,20,0.25,0,38,38,19,1,,,,,,,,,,,,,,,,,,,,,,,,,,,,,,,,,,,,,,,,
,,,,,SPR24_067,35,female,2024-04-18_15h33.00.195,jersey_experiment_5_v0,2023.2.2,Win32,84.03361345,,,,,,,,,,,,,,,,293.7869,294.8336,294.8336,295.7045,return,0.0368,,41.40625,,,,,,FBP-YG-81.png,0.37,1.2,22,0.25,0,39,39,21,1,,,,,,,,,,,,,,,,,,,,,,,,,,,,,,,,,,,,,,,,
,,,,,SPR24_067,35,female,2024-04-18_15h33.00.195,jersey_experiment_5_v0,2023.2.2,Win32,84.03361345,,,,,,,,,,,,,,,,295.7047,296.9988,296.9988,298.1163,return,0.0909,,46.35416667,,,,,,FBP-OG-18.png,0.4,1.2,8,0.5,0,40,40,7,1,,,,,,,,,,,,,,,,,,,,,,,,,,,,,,,,,,,,,,,,
,,,,,SPR24_067,35,female,2024-04-18_15h33.00.195,jersey_experiment_5_v0,2023.2.2,Win32,84.03361345,,,,,,,,,,,,,,,,298.1164,299.4104,299.4104,300.234,return,0.1418,,60.9375,,,,,,FBP-OG-18.png,0.43,1.2,9,0.5,0,41,41,8,1,,,,,,,,,,,,,,,,,,,,,,,,,,,,,,,,,,,,,,,,
,,,,,SPR24_067,35,female,2024-04-18_15h33.00.195,jersey_experiment_5_v0,2023.2.2,Win32,84.03361345,,,,,,,,,,,,,,,,300.2342,301.2811,301.2811,302.9399,return,0.9316,,52.47395833,,,,,,FBP-PT-71.png,0.4,1.2,48,0.25,0,42,42,47,1,,,,,,,,,,,,,,,,,,,,,,,,,,,,,,,,,,,,,,,,
,,,,,SPR24_067,35,female,2024-04-18_15h33.00.195,jersey_experiment_5_v0,2023.2.2,Win32,84.03361345,,,,,,,,,,,,,,,,302.9401,304.2343,304.2343,305.4695,return,0.6224,,30.59895833,,,,,,FBP-RB-71.png,0.35,1.2,31,0.5,0,43,43,30,1,,,,,,,,,,,,,,,,,,,,,,,,,,,,,,,,,,,,,,,,
,,,,,SPR24_067,35,female,2024-04-18_15h33.00.195,jersey_experiment_5_v0,2023.2.2,Win32,84.03361345,,,,,,,,,,,,,,,,305.4697,306.5166,306.5167,307.5282,return,0.0396,,58.203125,,,,,,FBP-PT-81.png,0.43,1.2,54,0.25,0,44,44,53,1,,,,,,,,,,,,,,,,,,,,,,,,,,,,,,,,,,,,,,,,
,,,,,SPR24_067,35,female,2024-04-18_15h33.00.195,jersey_experiment_5_v0,2023.2.2,Win32,84.03361345,,,,,,,,,,,,,,,,307.5285,308.5753,308.5753,309.4693,return,0.0566,,40.625,,,,,,FBP-YG-81.png,0.35,1.2,21,0.25,0,45,45,20,1,,,,,,,,,,,,,,,,,,,,,,,,,,,,,,,,,,,,,,,,
,,,,,SPR24_067,35,female,2024-04-18_15h33.00.195,jersey_experiment_5_v0,2023.2.2,Win32,84.03361345,,,,,,,,,,,,,,,,309.4695,310.5167,310.5167,311.2225,return,0.0651,,38.41145833,,,,,,FBP-YG-71.png,0.35,1.2,16,0.25,0,46,46,15,1,,,,,,,,,,,,,,,,,,,,,,,,,,,,,,,,,,,,,,,,
,,,,,SPR24_067,35,female,2024-04-18_15h33.00.195,jersey_experiment_5_v0,2023.2.2,Win32,84.03361345,,,,,,,,,,,,,,,,311.2226,312.2695,312.2695,313.7874,return,0.2362,,53.515625,,,,,,FBP-PT-71.png,0.43,1.2,49,0.25,0,47,47,48,1,,,,,,,,,,,,,,,,,,,,,,,,,,,,,,,,,,,,,,,,
,,,,,SPR24_067,35,female,2024-04-18_15h33.00.195,jersey_experiment_5_v0,2023.2.2,Win32,84.03361345,,,,,,,,,,,,,,,,313.7876,315.0815,315.0815,315.658,return,0.1304,,52.08333333,,,,,,FBP-OG-19.png,0.37,1.2,12,0.5,0,48,48,11,1,,,,,,,,,,,,,,,,,,,,,,,,,,,,,,,,,,,,,,,,
,,,,,SPR24_067,35,female,2024-04-18_15h33.00.195,jersey_experiment_5_v0,2023.2.2,Win32,84.03361345,,,,,,,,,,,,,,,,315.6582,316.705,316.7052,318.1051,return,0.6483,,67.578125,,,,,,FBP-YG-91.png,0.43,1.2,29,0.25,0,49,49,28,1,,,,,,,,,,,,,,,,,,,,,,,,,,,,,,,,,,,,,,,,
,,,,,SPR24_067,35,female,2024-04-18_15h33.00.195,jersey_experiment_5_v0,2023.2.2,Win32,84.03361345,,,,,,,,,,,,,,,,318.1054,319.3993,319.3993,320.3171,return,0.0095,,47.78645833,,,,,,FBP-OG-17.png,0.37,1.2,2,0.5,0,50,50,1,1,,,,,,,,,,,,,,,,,,,,,,,,,,,,,,,,,,,,,,,,
,,,,,SPR24_067,35,female,2024-04-18_15h33.00.195,jersey_experiment_5_v0,2023.2.2,Win32,84.03361345,,,,,,,,,,,,,,,,320.3174,321.3641,321.3641,321.9875,return,0.1736,,48.95833333,,,,,,FBP-PT-71.png,0.37,1.2,47,0.25,0,51,51,46,1,,,,,,,,,,,,,,,,,,,,,,,,,,,,,,,,,,,,,,,,
,,,,,SPR24_067,35,female,2024-04-18_15h33.00.195,jersey_experiment_5_v0,2023.2.2,Win32,84.03361345,,,,,,,,,,,,,,,,321.9877,323.2818,323.2819,324.0465,return,0.0702,,72.91666667,,,,,,FBP-RB-91.png,0.43,1.2,44,0.5,0,52,52,43,1,,,,,,,,,,,,,,,,,,,,,,,,,,,,,,,,,,,,,,,,
,,,,,SPR24_067,35,female,2024-04-18_15h33.00.195,jersey_experiment_5_v0,2023.2.2,Win32,84.03361345,,,,,,,,,,,,,,,,324.0468,325.0935,325.0936,325.7524,return,0.0368,,52.21354167,,,,,,FBP-PT-91.png,0.37,1.2,57,0.25,0,53,53,56,1,,,,,,,,,,,,,,,,,,,,,,,,,,,,,,,,,,,,,,,,
,,,,,SPR24_067,35,female,2024-04-18_15h33.00.195,jersey_experiment_5_v0,2023.2.2,Win32,84.03361345,,,,,,,,,,,,,,,,325.7526,326.7996,326.7996,328.2468,return,0.5942,,48.046875,,,,,,FBP-PT-71.png,0.35,1.2,46,0.25,0,54,54,45,1,,,,,,,,,,,,,,,,,,,,,,,,,,,,,,,,,,,,,,,,
,,,,,SPR24_067,35,female,2024-04-18_15h33.00.195,jersey_experiment_5_v0,2023.2.2,Win32,84.03361345,,,,,,,,,,,,,,,,328.247,329.541,329.541,330.3761,return,0.1572,,52.734375,,,,,,FBP-OG-17.png,0.4,1.2,3,0.5,0,55,55,2,1,,,,,,,,,,,,,,,,,,,,,,,,,,,,,,,,,,,,,,,,
,,,,,SPR24_067,35,female,2024-04-18_15h33.00.195,jersey_experiment_5_v0,2023.2.2,Win32,84.03361345,,,,,,,,,,,,,,,,330.3764,331.6703,331.6703,332.5175,return,0.0657,,45.3125,,,,,,FBP-OG-17.png,0.35,1.2,1,0.5,0,56,56,0,1,,,,,,,,,,,,,,,,,,,,,,,,,,,,,,,,,,,,,,,,
,,,,,SPR24_067,35,female,2024-04-18_15h33.00.195,jersey_experiment_5_v0,2023.2.2,Win32,84.03361345,,,,,,,,,,,,,,,,332.5177,333.5644,333.5645,334.3293,return,0.0486,,74.21875,,,,,,FBP-PT-91.png,0.45,1.2,60,0.25,0,57,57,59,1,,,,,,,,,,,,,,,,,,,,,,,,,,,,,,,,,,,,,,,,
,,,,,SPR24_067,35,female,2024-04-18_15h33.00.195,jersey_experiment_5_v0,2023.2.2,Win32,84.03361345,,,,,,,,,,,,,,,,334.3295,335.3762,335.3763,336.0941,return,0.0003,,51.04166667,,,,,,FBP-PT-91.png,0.35,1.2,56,0.25,0,58,58,55,1,,,,,,,,,,,,,,,,,,,,,,,,,,,,,,,,,,,,,,,,
,,,,,SPR24_067,35,female,2024-04-18_15h33.00.195,jersey_experiment_5_v0,2023.2.2,Win32,84.03361345,,,,,,,,,,,,,,,,336.0943,337.1412,337.1412,338.0704,return,0.1212,,51.43229167,,,,,,FBP-YG-71.png,0.37,1.2,17,0.25,0,59,59,16,1,,,,,,,,,,,,,,,,,,,,,,,,,,,,,,,,,,,,,,,,
,,,,,SPR24_067,35,female,2024-04-18_15h33.00.195,jersey_experiment_5_v0,2023.2.2,Win32,84.03361345,,,,,,,,,,,,,,,,,,,,,,,,,,,,,,,,,,,,,,,338.0709,458.0631,,,,,,,,,,,,,,,,,,,,,,,,,,,,,,,,,,,,,,
,,,,,SPR24_067,35,female,2024-04-18_15h33.00.195,jersey_experiment_5_v0,2023.2.2,Win32,84.03361345,,,,,,,,,,,,,,,,,,,,,,,,,,,,,,,,,,,,,,,,,458.0633,495.3279,return,37.2602,,,,,,,,,,,,,,,,,,,,,,,,,,,,,,,,,,
,,,,,SPR24_067,35,female,2024-04-18_15h33.00.195,jersey_experiment_5_v0,2023.2.2,Win32,84.03361345,,,,,,,,,,,,,,,,495.3339,496.3864,496.3865,503.335,return,0.0506,,52.60416667,,,,,,FBP-RB-18.png,0.37,1.2,37,0.25,,,,,,,,,,,,,0,0,0,36,1,,,,,,,,,,,,,,,,,,,,,,,,,,,,
,,,,,SPR24_067,35,female,2024-04-18_15h33.00.195,jersey_experiment_5_v0,2023.2.2,Win32,84.03361345,,,,,,,,,,,,,,,,503.3354,504.6326,504.6326,505.547,return,0.0611,,50.78125,,,,,,FBP-PT-18.png,0.35,1.2,51,0.5,,,,,,,,,,,,,0,1,1,50,1,,,,,,,,,,,,,,,,,,,,,,,,,,,,
,,,,,SPR24_067,35,female,2024-04-18_15h33.00.195,jersey_experiment_5_v0,2023.2.2,Win32,84.03361345,,,,,,,,,,,,,,,,505.5472,506.8444,506.8444,508.1588,return,0.5072,,53.77604167,,,,,,FBP-YG-19.png,0.35,1.2,26,0.5,,,,,,,,,,,,,0,2,2,25,1,,,,,,,,,,,,,,,,,,,,,,,,,,,,
,,,,,SPR24_067,35,female,2024-04-18_15h33.00.195,jersey_experiment_5_v0,2023.2.2,Win32,84.03361345,,,,,,,,,,,,,,,,508.159,509.4531,509.4531,510.7588,return,0.3211,,53.90625,,,,,,FBP-YG-17.png,0.35,1.2,16,0.5,,,,,,,,,,,,,0,3,3,15,1,,,,,,,,,,,,,,,,,,,,,,,,,,,,
,,,,,SPR24_067,35,female,2024-04-18_15h33.00.195,jersey_experiment_5_v0,2023.2.2,Win32,84.03361345,,,,,,,,,,,,,,,,510.759,512.053,512.0531,512.7636,return,0.0473,,75,,,,,,FBP-PT-18.png,0.45,1.2,55,0.5,,,,,,,,,,,,,0,4,4,54,1,,,,,,,,,,,,,,,,,,,,,,,,,,,,
,,,,,SPR24_067,35,female,2024-04-18_15h33.00.195,jersey_experiment_5_v0,2023.2.2,Win32,84.03361345,,,,,,,,,,,,,,,,512.7636,514.0577,514.0579,514.8214,return,0.0348,,49.86979167,,,,,,FBP-YG-18.png,0.4,1.2,23,0.5,,,,,,,,,,,,,0,5,5,22,1,,,,,,,,,,,,,,,,,,,,,,,,,,,,
,,,,,SPR24_067,35,female,2024-04-18_15h33.00.195,jersey_experiment_5_v0,2023.2.2,Win32,84.03361345,,,,,,,,,,,,,,,,514.8215,516.1153,516.1153,517.0062,return,0.0475,,63.80208333,,,,,,FBP-YG-18.png,0.43,1.2,24,0.5,,,,,,,,,,,,,0,6,6,23,1,,,,,,,,,,,,,,,,,,,,,,,,,,,,
,,,,,SPR24_067,35,female,2024-04-18_15h33.00.195,jersey_experiment_5_v0,2023.2.2,Win32,84.03361345,,,,,,,,,,,,,,,,517.0064,518.3005,518.3005,519.0231,return,0.0944,,49.21875,,,,,,FBP-YG-17.png,0.37,1.2,17,0.5,,,,,,,,,,,,,0,7,7,16,1,,,,,,,,,,,,,,,,,,,,,,,,,,,,
,,,,,SPR24_067,35,female,2024-04-18_15h33.00.195,jersey_experiment_5_v0,2023.2.2,Win32,84.03361345,,,,,,,,,,,,,,,,519.0233,520.3168,520.3168,521.0535,return,0.107,,70.44270833,,,,,,FBP-YG-19.png,0.45,1.2,30,0.5,,,,,,,,,,,,,0,8,8,29,1,,,,,,,,,,,,,,,,,,,,,,,,,,,,
,,,,,SPR24_067,35,female,2024-04-18_15h33.00.195,jersey_experiment_5_v0,2023.2.2,Win32,84.03361345,,,,,,,,,,,,,,,,521.0537,522.105,522.105,522.9759,return,0.0238,,73.95833333,,,,,,FBP-OG-71.png,0.45,1.2,5,0.25,,,,,,,,,,,,,0,9,9,4,1,,,,,,,,,,,,,,,,,,,,,,,,,,,,
,,,,,SPR24_067,35,female,2024-04-18_15h33.00.195,jersey_experiment_5_v0,2023.2.2,Win32,84.03361345,,,,,,,,,,,,,,,,522.9761,524.2697,524.2697,525.1039,return,0.1886,,51.953125,,,,,,FBP-YG-19.png,0.37,1.2,27,0.5,,,,,,,,,,,,,0,10,10,26,1,,,,,,,,,,,,,,,,,,,,,,,,,,,,
,,,,,SPR24_067,35,female,2024-04-18_15h33.00.195,jersey_experiment_5_v0,2023.2.2,Win32,84.03361345,,,,,,,,,,,,,,,,525.1041,526.4064,526.4065,528.1289,return,1.2237,,50.26041667,,,,,,FBP-PT-17.png,0.37,1.2,47,0.5,,,,,,,,,,,,,0,11,11,46,1,,,,,,,,,,,,,,,,,,,,,,,,,,,,
,,,,,SPR24_067,35,female,2024-04-18_15h33.00.195,jersey_experiment_5_v0,2023.2.2,Win32,84.03361345,,,,,,,,,,,,,,,,528.129,529.1713,529.1713,530.2935,return,0.0004,,66.796875,,,,,,FBP-OG-71.png,0.43,1.2,4,0.25,,,,,,,,,,,,,0,12,12,3,1,,,,,,,,,,,,,,,,,,,,,,,,,,,,
,,,,,SPR24_067,35,female,2024-04-18_15h33.00.195,jersey_experiment_5_v0,2023.2.2,Win32,84.03361345,,,,,,,,,,,,,,,,530.2937,531.3361,531.3361,531.9713,return,0.0071,,66.015625,,,,,,FBP-RB-18.png,0.43,1.2,39,0.25,,,,,,,,,,,,,0,13,13,38,1,,,,,,,,,,,,,,,,,,,,,,,,,,,,
,,,,,SPR24_067,35,female,2024-04-18_15h33.00.195,jersey_experiment_5_v0,2023.2.2,Win32,84.03361345,,,,,,,,,,,,,,,,531.9715,533.0185,533.0186,533.9596,return,0.0381,,54.81770833,,,,,,FBP-OG-91.png,0.4,1.2,13,0.25,,,,,,,,,,,,,0,14,14,12,1,,,,,,,,,,,,,,,,,,,,,,,,,,,,
,,,,,SPR24_067,35,female,2024-04-18_15h33.00.195,jersey_experiment_5_v0,2023.2.2,Win32,84.03361345,,,,,,,,,,,,,,,,533.9599,535.2537,535.2538,535.9127,return,0.1306,,51.04166667,,,,,,FBP-YG-17.png,0.4,1.2,18,0.5,,,,,,,,,,,,,0,15,15,17,1,,,,,,,,,,,,,,,,,,,,,,,,,,,,
,,,,,SPR24_067,35,female,2024-04-18_15h33.00.195,jersey_experiment_5_v0,2023.2.2,Win32,84.03361345,,,,,,,,,,,,,,,,535.9129,537.2068,537.2068,537.9716,return,0.0667,,51.171875,,,,,,FBP-PT-17.png,0.4,1.2,48,0.5,,,,,,,,,,,,,0,16,16,47,1,,,,,,,,,,,,,,,,,,,,,,,,,,,,
,,,,,SPR24_067,35,female,2024-04-18_15h33.00.195,jersey_experiment_5_v0,2023.2.2,Win32,84.03361345,,,,,,,,,,,,,,,,537.9718,539.0187,539.0187,539.7363,return,0.0856,,73.17708333,,,,,,FBP-OG-91.png,0.45,1.2,15,0.25,,,,,,,,,,,,,0,17,17,14,1,,,,,,,,,,,,,,,,,,,,,,,,,,,,
,,,,,SPR24_067,35,female,2024-04-18_15h33.00.195,jersey_experiment_5_v0,2023.2.2,Win32,84.03361345,,,,,,,,,,,,,,,,539.7364,541.0342,541.0342,541.8704,return,0.2016,,48.17708333,,,,,,FBP-PT-19.png,0.35,1.2,56,0.5,,,,,,,,,,,,,0,18,18,55,1,,,,,,,,,,,,,,,,,,,,,,,,,,,,
,,,,,SPR24_067,35,female,2024-04-18_15h33.00.195,jersey_experiment_5_v0,2023.2.2,Win32,84.03361345,,,,,,,,,,,,,,,,541.8706,543.1646,543.1647,543.9177,return,0.0708,,76.171875,,,,,,FBP-YG-17.png,0.45,1.2,20,0.5,,,,,,,,,,,,,0,19,19,19,1,,,,,,,,,,,,,,,,,,,,,,,,,,,,
,,,,,SPR24_067,35,female,2024-04-18_15h33.00.195,jersey_experiment_5_v0,2023.2.2,Win32,84.03361345,,,,,,,,,,,,,,,,543.9179,544.9602,544.9603,545.5248,return,0.0057,,51.953125,,,,,,FBP-RB-18.png,0.35,1.2,36,0.25,,,,,,,,,,,,,0,20,20,35,1,,,,,,,,,,,,,,,,,,,,,,,,,,,,
,,,,,SPR24_067,35,female,2024-04-18_15h33.00.195,jersey_experiment_5_v0,2023.2.2,Win32,84.03361345,,,,,,,,,,,,,,,,545.525,546.8222,546.8223,547.2778,return,0.0469,,68.75,,,,,,FBP-PT-18.png,0.43,1.2,54,0.5,,,,,,,,,,,,,0,21,21,53,1,,,,,,,,,,,,,,,,,,,,,,,,,,,,
,,,,,SPR24_067,35,female,2024-04-18_15h33.00.195,jersey_experiment_5_v0,2023.2.2,Win32,84.03361345,,,,,,,,,,,,,,,,547.278,548.3249,548.325,549.1519,return,0.246,,75.91145833,,,,,,FBP-OG-81.png,0.45,1.2,10,0.25,,,,,,,,,,,,,0,22,22,9,1,,,,,,,,,,,,,,,,,,,,,,,,,,,,
,,,,,SPR24_067,35,female,2024-04-18_15h33.00.195,jersey_experiment_5_v0,2023.2.2,Win32,84.03361345,,,,,,,,,,,,,,,,549.1521,550.1955,550.1956,551.1132,return,0.2012,,65.49479167,,,,,,FBP-RB-19.png,0.4,1.2,43,0.25,,,,,,,,,,,,,0,23,23,42,1,,,,,,,,,,,,,,,,,,,,,,,,,,,,
,,,,,SPR24_067,35,female,2024-04-18_15h33.00.195,jersey_experiment_5_v0,2023.2.2,Win32,84.03361345,,,,,,,,,,,,,,,,551.1134,552.4074,552.4074,554.106,return,0.5074,,63.02083333,,,,,,FBP-PT-17.png,0.45,1.2,50,0.5,,,,,,,,,,,,,0,24,24,49,1,,,,,,,,,,,,,,,,,,,,,,,,,,,,
,,,,,SPR24_067,35,female,2024-04-18_15h33.00.195,jersey_experiment_5_v0,2023.2.2,Win32,84.03361345,,,,,,,,,,,,,,,,554.1062,555.1486,555.1486,557.2899,return,1.083,,54.03645833,,,,,,FBP-RB-17.png,0.35,1.2,31,0.25,,,,,,,,,,,,,0,25,25,30,1,,,,,,,,,,,,,,,,,,,,,,,,,,,,
,,,,,SPR24_067,35,female,2024-04-18_15h33.00.195,jersey_experiment_5_v0,2023.2.2,Win32,84.03361345,,,,,,,,,,,,,,,,557.29,558.3415,558.3415,559.7017,return,0.5341,,41.14583333,,,,,,FBP-OG-91.png,0.35,1.2,11,0.25,,,,,,,,,,,,,0,26,26,10,1,,,,,,,,,,,,,,,,,,,,,,,,,,,,
,,,,,SPR24_067,35,female,2024-04-18_15h33.00.195,jersey_experiment_5_v0,2023.2.2,Win32,84.03361345,,,,,,,,,,,,,,,,559.7019,560.996,560.996,561.596,return,0.0602,,39.19270833,,,,,,FBP-PT-19.png,0.37,1.2,57,0.5,,,,,,,,,,,,,0,27,27,56,1,,,,,,,,,,,,,,,,,,,,,,,,,,,,
,,,,,SPR24_067,35,female,2024-04-18_15h33.00.195,jersey_experiment_5_v0,2023.2.2,Win32,84.03361345,,,,,,,,,,,,,,,,561.5962,562.8901,562.8902,563.8431,return,0.6911,,44.40104167,,,,,,FBP-YG-18.png,0.37,1.2,22,0.5,,,,,,,,,,,,,0,28,28,21,1,,,,,,,,,,,,,,,,,,,,,,,,,,,,
,,,,,SPR24_067,35,female,2024-04-18_15h33.00.195,jersey_experiment_5_v0,2023.2.2,Win32,84.03361345,,,,,,,,,,,,,,,,563.8433,564.8902,564.8903,565.8712,return,0.0703,,39.84375,,,,,,FBP-RB-19.png,0.37,1.2,42,0.25,,,,,,,,,,,,,0,29,29,41,1,,,,,,,,,,,,,,,,,,,,,,,,,,,,
,,,,,SPR24_067,35,female,2024-04-18_15h33.00.195,jersey_experiment_5_v0,2023.2.2,Win32,84.03361345,,,,,,,,,,,,,,,,565.8713,566.9138,566.9139,568.008,return,0.2259,,49.73958333,,,,,,FBP-RB-18.png,0.4,1.2,38,0.25,,,,,,,,,,,,,0,30,30,37,1,,,,,,,,,,,,,,,,,,,,,,,,,,,,
,,,,,SPR24_067,35,female,2024-04-18_15h33.00.195,jersey_experiment_5_v0,2023.2.2,Win32,84.03361345,,,,,,,,,,,,,,,,568.0083,569.3064,569.3064,570.0834,return,0.1181,,75.91145833,,,,,,FBP-PT-17.png,0.43,1.2,49,0.5,,,,,,,,,,,,,0,31,31,48,1,,,,,,,,,,,,,,,,,,,,,,,,,,,,
,,,,,SPR24_067,35,female,2024-04-18_15h33.00.195,jersey_experiment_5_v0,2023.2.2,Win32,84.03361345,,,,,,,,,,,,,,,,570.0836,571.1258,571.1258,572.0361,return,0.0237,,65.234375,,,,,,FBP-OG-71.png,0.4,1.2,3,0.25,,,,,,,,,,,,,0,32,32,2,1,,,,,,,,,,,,,,,,,,,,,,,,,,,,
,,,,,SPR24_067,35,female,2024-04-18_15h33.00.195,jersey_experiment_5_v0,2023.2.2,Win32,84.03361345,,,,,,,,,,,,,,,,572.0363,573.0819,573.0819,574.0434,return,0.0132,,50.13020833,,,,,,FBP-OG-81.png,0.35,1.2,6,0.25,,,,,,,,,,,,,0,33,33,5,1,,,,,,,,,,,,,,,,,,,,,,,,,,,,
,,,,,SPR24_067,35,female,2024-04-18_15h33.00.195,jersey_experiment_5_v0,2023.2.2,Win32,84.03361345,,,,,,,,,,,,,,,,574.0436,575.3377,575.3377,575.7965,return,0.1012,,50.13020833,,,,,,FBP-PT-17.png,0.35,1.2,46,0.5,,,,,,,,,,,,,0,34,34,45,1,,,,,,,,,,,,,,,,,,,,,,,,,,,,
,,,,,SPR24_067,35,female,2024-04-18_15h33.00.195,jersey_experiment_5_v0,2023.2.2,Win32,84.03361345,,,,,,,,,,,,,,,,575.7966,576.8436,576.8437,577.867,return,0.0817,,74.73958333,,,,,,FBP-RB-18.png,0.45,1.2,40,0.25,,,,,,,,,,,,,0,35,35,39,1,,,,,,,,,,,,,,,,,,,,,,,,,,,,
,,,,,SPR24_067,35,female,2024-04-18_15h33.00.195,jersey_experiment_5_v0,2023.2.2,Win32,84.03361345,,,,,,,,,,,,,,,,577.8672,579.1662,579.1663,580.2202,return,0.4104,,74.609375,,,,,,FBP-YG-18.png,0.45,1.2,25,0.5,,,,,,,,,,,,,0,36,36,24,1,,,,,,,,,,,,,,,,,,,,,,,,,,,,
,,,,,SPR24_067,35,female,2024-04-18_15h33.00.195,jersey_experiment_5_v0,2023.2.2,Win32,84.03361345,,,,,,,,,,,,,,,,580.2203,581.2672,581.2674,582.2201,return,0.0233,,48.95833333,,,,,,FBP-RB-17.png,0.37,1.2,32,0.25,,,,,,,,,,,,,0,37,37,31,1,,,,,,,,,,,,,,,,,,,,,,,,,,,,
,,,,,SPR24_067,35,female,2024-04-18_15h33.00.195,jersey_experiment_5_v0,2023.2.2,Win32,84.03361345,,,,,,,,,,,,,,,,582.2203,583.2673,583.2674,583.8353,return,0.118,,49.08854167,,,,,,FBP-OG-81.png,0.37,1.2,7,0.25,,,,,,,,,,,,,0,38,38,6,1,,,,,,,,,,,,,,,,,,,,,,,,,,,,
,,,,,SPR24_067,35,female,2024-04-18_15h33.00.195,jersey_experiment_5_v0,2023.2.2,Win32,84.03361345,,,,,,,,,,,,,,,,583.8355,584.879,584.8791,586.1852,return,0.0378,,62.76041667,,,,,,FBP-RB-19.png,0.43,1.2,44,0.25,,,,,,,,,,,,,0,39,39,43,1,,,,,,,,,,,,,,,,,,,,,,,,,,,,
,,,,,SPR24_067,35,female,2024-04-18_15h33.00.195,jersey_experiment_5_v0,2023.2.2,Win32,84.03361345,,,,,,,,,,,,,,,,586.1853,587.2321,587.2321,588.5028,return,0.0519,,62.63020833,,,,,,FBP-OG-71.png,0.37,1.2,2,0.25,,,,,,,,,,,,,0,40,40,1,1,,,,,,,,,,,,,,,,,,,,,,,,,,,,
,,,,,SPR24_067,35,female,2024-04-18_15h33.00.195,jersey_experiment_5_v0,2023.2.2,Win32,84.03361345,,,,,,,,,,,,,,,,588.5029,589.5499,589.5499,590.2793,return,0.2385,,62.63020833,,,,,,FBP-RB-17.png,0.4,1.2,33,0.25,,,,,,,,,,,,,0,41,41,32,1,,,,,,,,,,,,,,,,,,,,,,,,,,,,
,,,,,SPR24_067,35,female,2024-04-18_15h33.00.195,jersey_experiment_5_v0,2023.2.2,Win32,84.03361345,,,,,,,,,,,,,,,,590.2795,591.5735,591.5736,592.9382,return,0.084,,74.86979167,,,,,,FBP-YG-17.png,0.43,1.2,19,0.5,,,,,,,,,,,,,0,42,42,18,1,,,,,,,,,,,,,,,,,,,,,,,,,,,,
,,,,,SPR24_067,35,female,2024-04-18_15h33.00.195,jersey_experiment_5_v0,2023.2.2,Win32,84.03361345,,,,,,,,,,,,,,,,592.9384,593.9854,593.9854,595.3971,return,0.5113,,61.97916667,,,,,,FBP-OG-81.png,0.4,1.2,8,0.25,,,,,,,,,,,,,0,43,43,7,1,,,,,,,,,,,,,,,,,,,,,,,,,,,,
,,,,,SPR24_067,35,female,2024-04-18_15h33.00.195,jersey_experiment_5_v0,2023.2.2,Win32,84.03361345,,,,,,,,,,,,,,,,595.3974,596.6913,596.6914,596.9972,return,0.1239,,61.97916667,,,,,,FBP-YG-19.png,0.43,1.2,29,0.5,,,,,,,,,,,,,0,44,44,28,1,,,,,,,,,,,,,,,,,,,,,,,,,,,,
,,,,,SPR24_067,35,female,2024-04-18_15h33.00.195,jersey_experiment_5_v0,2023.2.2,Win32,84.03361345,,,,,,,,,,,,,,,,596.9974,598.0443,598.0444,598.4678,return,0.077,,62.109375,,,,,,FBP-OG-81.png,0.43,1.2,9,0.25,,,,,,,,,,,,,0,45,45,8,1,,,,,,,,,,,,,,,,,,,,,,,,,,,,
,,,,,SPR24_067,35,female,2024-04-18_15h33.00.195,jersey_experiment_5_v0,2023.2.2,Win32,84.03361345,,,,,,,,,,,,,,,,598.4681,599.5149,599.515,600.2326,return,0.1424,,63.28125,,,,,,FBP-RB-17.png,0.43,1.2,34,0.25,,,,,,,,,,,,,0,46,46,33,1,,,,,,,,,,,,,,,,,,,,,,,,,,,,
,,,,,SPR24_067,35,female,2024-04-18_15h33.00.195,jersey_experiment_5_v0,2023.2.2,Win32,84.03361345,,,,,,,,,,,,,,,,600.2328,601.5268,601.5269,602.5151,return,0.0546,,63.54166667,,,,,,FBP-PT-19.png,0.43,1.2,59,0.5,,,,,,,,,,,,,0,47,47,58,1,,,,,,,,,,,,,,,,,,,,,,,,,,,,
,,,,,SPR24_067,35,female,2024-04-18_15h33.00.195,jersey_experiment_5_v0,2023.2.2,Win32,84.03361345,,,,,,,,,,,,,,,,602.5153,603.5621,603.5621,604.0564,return,0.0611,,63.54166667,,,,,,FBP-OG-91.png,0.43,1.2,14,0.25,,,,,,,,,,,,,0,48,48,13,1,,,,,,,,,,,,,,,,,,,,,,,,,,,,
,,,,,SPR24_067,35,female,2024-04-18_15h33.00.195,jersey_experiment_5_v0,2023.2.2,Win32,84.03361345,,,,,,,,,,,,,,,,604.0565,605.1062,605.1063,605.9668,return,0.0835,,71.35416667,,,,,,FBP-RB-17.png,0.45,1.2,35,0.25,,,,,,,,,,,,,0,49,49,34,1,,,,,,,,,,,,,,,,,,,,,,,,,,,,
,,,,,SPR24_067,35,female,2024-04-18_15h33.00.195,jersey_experiment_5_v0,2023.2.2,Win32,84.03361345,,,,,,,,,,,,,,,,605.9669,607.2716,607.2716,607.9623,return,0.1296,,59.11458333,,,,,,FBP-PT-18.png,0.4,1.2,53,0.5,,,,,,,,,,,,,0,50,50,52,1,,,,,,,,,,,,,,,,,,,,,,,,,,,,
,,,,,SPR24_067,35,female,2024-04-18_15h33.00.195,jersey_experiment_5_v0,2023.2.2,Win32,84.03361345,,,,,,,,,,,,,,,,607.9624,609.2565,609.2565,610.8718,return,0.9287,,74.47916667,,,,,,FBP-PT-19.png,0.45,1.2,60,0.5,,,,,,,,,,,,,0,51,51,59,1,,,,,,,,,,,,,,,,,,,,,,,,,,,,
,,,,,SPR24_067,35,female,2024-04-18_15h33.00.195,jersey_experiment_5_v0,2023.2.2,Win32,84.03361345,,,,,,,,,,,,,,,,610.872,611.9155,611.9155,612.697,return,0.0243,,50.78125,,,,,,FBP-OG-91.png,0.37,1.2,12,0.25,,,,,,,,,,,,,0,52,52,11,1,,,,,,,,,,,,,,,,,,,,,,,,,,,,
,,,,,SPR24_067,35,female,2024-04-18_15h33.00.195,jersey_experiment_5_v0,2023.2.2,Win32,84.03361345,,,,,,,,,,,,,,,,612.6971,613.739,613.7391,614.5318,return,0.0368,,74.609375,,,,,,FBP-RB-19.png,0.45,1.2,45,0.25,,,,,,,,,,,,,0,53,53,44,1,,,,,,,,,,,,,,,,,,,,,,,,,,,,
,,,,,SPR24_067,35,female,2024-04-18_15h33.00.195,jersey_experiment_5_v0,2023.2.2,Win32,84.03361345,,,,,,,,,,,,,,,,614.532,615.5745,615.5745,616.6129,return,0.0004,,49.609375,,,,,,FBP-RB-19.png,0.35,1.2,41,0.25,,,,,,,,,,,,,0,54,54,40,1,,,,,,,,,,,,,,,,,,,,,,,,,,,,
,,,,,SPR24_067,35,female,2024-04-18_15h33.00.195,jersey_experiment_5_v0,2023.2.2,Win32,84.03361345,,,,,,,,,,,,,,,,616.6131,617.9156,617.9156,618.8686,return,0.5701,,65.10416667,,,,,,FBP-PT-19.png,0.4,1.2,58,0.5,,,,,,,,,,,,,0,55,55,57,1,,,,,,,,,,,,,,,,,,,,,,,,,,,,
,,,,,SPR24_067,35,female,2024-04-18_15h33.00.195,jersey_experiment_5_v0,2023.2.2,Win32,84.03361345,,,,,,,,,,,,,,,,618.8689,620.1628,620.1628,620.7391,return,0.1728,,64.71354167,,,,,,FBP-YG-19.png,0.4,1.2,28,0.5,,,,,,,,,,,,,0,56,56,27,1,,,,,,,,,,,,,,,,,,,,,,,,,,,,
,,,,,SPR24_067,35,female,2024-04-18_15h33.00.195,jersey_experiment_5_v0,2023.2.2,Win32,84.03361345,,,,,,,,,,,,,,,,620.7393,621.7863,621.7863,622.7073,return,0.0575,,50.26041667,,,,,,FBP-OG-71.png,0.35,1.2,1,0.25,,,,,,,,,,,,,0,57,57,0,1,,,,,,,,,,,,,,,,,,,,,,,,,,,,
,,,,,SPR24_067,35,female,2024-04-18_15h33.00.195,jersey_experiment_5_v0,2023.2.2,Win32,84.03361345,,,,,,,,,,,,,,,,622.7075,624.0099,624.0099,625.1309,return,0.5415,,49.21875,,,,,,FBP-YG-18.png,0.35,1.2,21,0.5,,,,,,,,,,,,,0,58,58,20,1,,,,,,,,,,,,,,,,,,,,,,,,,,,,
,,,,,SPR24_067,35,female,2024-04-18_15h33.00.195,jersey_experiment_5_v0,2023.2.2,Win32,84.03361345,,,,,,,,,,,,,,,,625.131,626.4381,626.4381,627.8807,return,0.5323,,50.91145833,,,,,,FBP-PT-18.png,0.37,1.2,52,0.5,,,,,,,,,,,,,0,59,59,51,1,,,,,,,,,,,,,,,,,,,,,,,,,,,,
,,,,,SPR24_067,35,female,2024-04-18_15h33.00.195,jersey_experiment_5_v0,2023.2.2,Win32,84.03361345,,,,,,,,,,,,,,,,627.8822,629.175,629.175,630.1866,return,0.0942,,49.86979167,,,,,,FBP-YG-71.png,0.37,1.2,17,0.5,,,,,,,,,,,,,,,,,,0,0,0,16,1,,,,,,,,,,,,,,,,,,,,,,,
,,,,,SPR24_067,35,female,2024-04-18_15h33.00.195,jersey_experiment_5_v0,2023.2.2,Win32,84.03361345,,,,,,,,,,,,,,,,630.1869,631.4808,631.4808,632.0486,return,0.1648,,49.86979167,,,,,,FBP-PT-71.png,0.35,1.2,46,0.5,,,,,,,,,,,,,,,,,,0,1,1,45,1,,,,,,,,,,,,,,,,,,,,,,,
,,,,,SPR24_067,35,female,2024-04-18_15h33.00.195,jersey_experiment_5_v0,2023.2.2,Win32,84.03361345,,,,,,,,,,,,,,,,632.0488,633.3514,633.3514,633.6456,return,0.1544,,50,,,,,,FBP-PT-91.png,0.4,1.2,58,0.5,,,,,,,,,,,,,,,,,,0,2,2,57,1,,,,,,,,,,,,,,,,,,,,,,,
,,,,,SPR24_067,35,female,2024-04-18_15h33.00.195,jersey_experiment_5_v0,2023.2.2,Win32,84.03361345,,,,,,,,,,,,,,,,633.6459,634.6926,634.6926,635.8456,return,0.1235,,65.49479167,,,,,,FBP-OG-18.png,0.45,1.2,10,0.25,,,,,,,,,,,,,,,,,,0,3,3,9,1,,,,,,,,,,,,,,,,,,,,,,,
,,,,,SPR24_067,35,female,2024-04-18_15h33.00.195,jersey_experiment_5_v0,2023.2.2,Win32,84.03361345,,,,,,,,,,,,,,,,635.8458,636.8928,636.8928,638.587,return,0.2357,,58.07291667,,,,,,FBP-RB-91.png,0.35,1.2,41,0.25,,,,,,,,,,,,,,,,,,0,4,4,40,1,,,,,,,,,,,,,,,,,,,,,,,
,,,,,SPR24_067,35,female,2024-04-18_15h33.00.195,jersey_experiment_5_v0,2023.2.2,Win32,84.03361345,,,,,,,,,,,,,,,,638.5872,639.634,639.6341,640.3682,return,0.0605,,75.390625,,,,,,FBP-RB-81.png,0.45,1.2,40,0.25,,,,,,,,,,,,,,,,,,0,5,5,39,1,,,,,,,,,,,,,,,,,,,,,,,
,,,,,SPR24_067,35,female,2024-04-18_15h33.00.195,jersey_experiment_5_v0,2023.2.2,Win32,84.03361345,,,,,,,,,,,,,,,,640.3683,641.6621,641.6621,642.34,return,0.1487,,61.19791667,,,,,,FBP-YG-81.png,0.35,1.2,21,0.5,,,,,,,,,,,,,,,,,,0,6,6,20,1,,,,,,,,,,,,,,,,,,,,,,,
,,,,,SPR24_067,35,female,2024-04-18_15h33.00.195,jersey_experiment_5_v0,2023.2.2,Win32,84.03361345,,,,,,,,,,,,,,,,642.3402,643.634,643.634,644.6812,return,0.1193,,61.06770833,,,,,,FBP-PT-91.png,0.37,1.2,57,0.5,,,,,,,,,,,,,,,,,,0,7,7,56,1,,,,,,,,,,,,,,,,,,,,,,,
,,,,,SPR24_067,35,female,2024-04-18_15h33.00.195,jersey_experiment_5_v0,2023.2.2,Win32,84.03361345,,,,,,,,,,,,,,,,644.6814,645.9754,645.9754,646.9096,return,0.0004,,59.89583333,,,,,,FBP-YG-91.png,0.35,1.2,26,0.5,,,,,,,,,,,,,,,,,,0,8,8,25,1,,,,,,,,,,,,,,,,,,,,,,,
,,,,,SPR24_067,35,female,2024-04-18_15h33.00.195,jersey_experiment_5_v0,2023.2.2,Win32,84.03361345,,,,,,,,,,,,,,,,646.9098,648.2108,648.2108,648.5636,return,0.2182,,60.80729167,,,,,,FBP-YG-81.png,0.4,1.2,23,0.5,,,,,,,,,,,,,,,,,,0,9,9,22,1,,,,,,,,,,,,,,,,,,,,,,,
,,,,,SPR24_067,35,female,2024-04-18_15h33.00.195,jersey_experiment_5_v0,2023.2.2,Win32,84.03361345,,,,,,,,,,,,,,,,648.5638,649.6107,649.6107,650.0697,return,0.0755,,60.80729167,,,,,,FBP-OG-17.png,0.37,1.2,2,0.25,,,,,,,,,,,,,,,,,,0,10,10,1,1,,,,,,,,,,,,,,,,,,,,,,,
,,,,,SPR24_067,35,female,2024-04-18_15h33.00.195,jersey_experiment_5_v0,2023.2.2,Win32,84.03361345,,,,,,,,,,,,,,,,650.0698,651.1166,651.1167,651.5872,return,0.0423,,60.80729167,,,,,,FBP-RB-71.png,0.37,1.2,32,0.25,,,,,,,,,,,,,,,,,,0,11,11,31,1,,,,,,,,,,,,,,,,,,,,,,,
,,,,,SPR24_067,35,female,2024-04-18_15h33.00.195,jersey_experiment_5_v0,2023.2.2,Win32,84.03361345,,,,,,,,,,,,,,,,651.5875,652.8815,652.8815,653.6227,return,0.1684,,73.828125,,,,,,FBP-PT-71.png,0.45,1.2,50,0.5,,,,,,,,,,,,,,,,,,0,12,12,49,1,,,,,,,,,,,,,,,,,,,,,,,
,,,,,SPR24_067,35,female,2024-04-18_15h33.00.195,jersey_experiment_5_v0,2023.2.2,Win32,84.03361345,,,,,,,,,,,,,,,,653.6229,654.917,654.917,655.6498,return,0.0344,,75.13020833,,,,,,FBP-PT-91.png,0.43,1.2,59,0.5,,,,,,,,,,,,,,,,,,0,13,13,58,1,,,,,,,,,,,,,,,,,,,,,,,
,,,,,SPR24_067,35,female,2024-04-18_15h33.00.195,jersey_experiment_5_v0,2023.2.2,Win32,84.03361345,,,,,,,,,,,,,,,,655.6499,656.6935,656.6935,657.5406,return,0.195,,76.04166667,,,,,,FBP-OG-19.png,0.43,1.2,14,0.25,,,,,,,,,,,,,,,,,,0,14,14,13,1,,,,,,,,,,,,,,,,,,,,,,,
,,,,,SPR24_067,35,female,2024-04-18_15h33.00.195,jersey_experiment_5_v0,2023.2.2,Win32,84.03361345,,,,,,,,,,,,,,,,657.5407,658.5877,658.5877,659.5875,return,0.1022,,62.890625,,,,,,FBP-RB-91.png,0.37,1.2,42,0.25,,,,,,,,,,,,,,,,,,0,15,15,41,1,,,,,,,,,,,,,,,,,,,,,,,
,,,,,SPR24_067,35,female,2024-04-18_15h33.00.195,jersey_experiment_5_v0,2023.2.2,Win32,84.03361345,,,,,,,,,,,,,,,,659.5877,660.8818,660.8818,661.5406,return,0.0646,,74.86979167,,,,,,FBP-YG-81.png,0.43,1.2,24,0.5,,,,,,,,,,,,,,,,,,0,16,16,23,1,,,,,,,,,,,,,,,,,,,,,,,
,,,,,SPR24_067,35,female,2024-04-18_15h33.00.195,jersey_experiment_5_v0,2023.2.2,Win32,84.03361345,,,,,,,,,,,,,,,,661.5408,662.5877,662.5877,663.6583,return,0.4953,,61.84895833,,,,,,FBP-RB-81.png,0.37,1.2,37,0.25,,,,,,,,,,,,,,,,,,0,17,17,36,1,,,,,,,,,,,,,,,,,,,,,,,
,,,,,SPR24_067,35,female,2024-04-18_15h33.00.195,jersey_experiment_5_v0,2023.2.2,Win32,84.03361345,,,,,,,,,,,,,,,,663.6586,664.9572,664.9573,665.7879,return,0.0134,,61.97916667,,,,,,FBP-PT-81.png,0.43,1.2,54,0.5,,,,,,,,,,,,,,,,,,0,18,18,53,1,,,,,,,,,,,,,,,,,,,,,,,
,,,,,SPR24_067,35,female,2024-04-18_15h33.00.195,jersey_experiment_5_v0,2023.2.2,Win32,84.03361345,,,,,,,,,,,,,,,,665.7881,667.0821,667.0822,667.7174,return,0.1221,,62.36979167,,,,,,FBP-YG-81.png,0.37,1.2,22,0.5,,,,,,,,,,,,,,,,,,0,19,19,21,1,,,,,,,,,,,,,,,,,,,,,,,
,,,,,SPR24_067,35,female,2024-04-18_15h33.00.195,jersey_experiment_5_v0,2023.2.2,Win32,84.03361345,,,,,,,,,,,,,,,,667.7176,668.7644,668.7644,670.8705,return,1.6983,,49.08854167,,,,,,FBP-RB-81.png,0.35,1.2,36,0.25,,,,,,,,,,,,,,,,,,0,20,20,35,1,,,,,,,,,,,,,,,,,,,,,,,
,,,,,SPR24_067,35,female,2024-04-18_15h33.00.195,jersey_experiment_5_v0,2023.2.2,Win32,84.03361345,,,,,,,,,,,,,,,,670.8706,671.922,671.922,672.7928,return,0.0709,,65.10416667,,,,,,FBP-RB-91.png,0.4,1.2,43,0.25,,,,,,,,,,,,,,,,,,0,21,21,42,1,,,,,,,,,,,,,,,,,,,,,,,
,,,,,SPR24_067,35,female,2024-04-18_15h33.00.195,jersey_experiment_5_v0,2023.2.2,Win32,84.03361345,,,,,,,,,,,,,,,,672.7929,674.0868,674.0869,674.7694,return,0.084,,62.76041667,,,,,,FBP-YG-71.png,0.4,1.2,18,0.5,,,,,,,,,,,,,,,,,,0,22,22,17,1,,,,,,,,,,,,,,,,,,,,,,,
,,,,,SPR24_067,35,female,2024-04-18_15h33.00.195,jersey_experiment_5_v0,2023.2.2,Win32,84.03361345,,,,,,,,,,,,,,,,674.7694,676.0633,676.0633,676.7648,return,0.0105,,62.76041667,,,,,,FBP-YG-91.png,0.37,1.2,27,0.5,,,,,,,,,,,,,,,,,,0,23,23,26,1,,,,,,,,,,,,,,,,,,,,,,,
,,,,,SPR24_067,35,female,2024-04-18_15h33.00.195,jersey_experiment_5_v0,2023.2.2,Win32,84.03361345,,,,,,,,,,,,,,,,676.765,678.0634,678.0634,678.6354,return,0.013,,56.640625,,,,,,FBP-YG-71.png,0.35,1.2,16,0.5,,,,,,,,,,,,,,,,,,0,24,24,15,1,,,,,,,,,,,,,,,,,,,,,,,
,,,,,SPR24_067,35,female,2024-04-18_15h33.00.195,jersey_experiment_5_v0,2023.2.2,Win32,84.03361345,,,,,,,,,,,,,,,,678.6356,679.9296,679.9296,680.8707,return,0.1678,,50.78125,,,,,,FBP-PT-91.png,0.35,1.2,56,0.5,,,,,,,,,,,,,,,,,,0,25,25,55,1,,,,,,,,,,,,,,,,,,,,,,,
,,,,,SPR24_067,35,female,2024-04-18_15h33.00.195,jersey_experiment_5_v0,2023.2.2,Win32,84.03361345,,,,,,,,,,,,,,,,680.8707,681.9177,681.9177,682.6155,return,0.0945,,61.71875,,,,,,FBP-RB-71.png,0.4,1.2,33,0.25,,,,,,,,,,,,,,,,,,0,26,26,32,1,,,,,,,,,,,,,,,,,,,,,,,
,,,,,SPR24_067,35,female,2024-04-18_15h33.00.195,jersey_experiment_5_v0,2023.2.2,Win32,84.03361345,,,,,,,,,,,,,,,,682.6156,683.6591,683.6591,684.5918,return,0.152,,49.34895833,,,,,,FBP-OG-19.png,0.37,1.2,12,0.25,,,,,,,,,,,,,,,,,,0,27,27,11,1,,,,,,,,,,,,,,,,,,,,,,,
,,,,,SPR24_067,35,female,2024-04-18_15h33.00.195,jersey_experiment_5_v0,2023.2.2,Win32,84.03361345,,,,,,,,,,,,,,,,684.592,685.886,685.886,686.4239,return,0.0727,,61.84895833,,,,,,FBP-YG-91.png,0.4,1.2,28,0.5,,,,,,,,,,,,,,,,,,0,28,28,27,1,,,,,,,,,,,,,,,,,,,,,,,
,,,,,SPR24_067,35,female,2024-04-18_15h33.00.195,jersey_experiment_5_v0,2023.2.2,Win32,84.03361345,,,,,,,,,,,,,,,,686.4241,687.471,687.471,688.3234,return,0.1185,,76.04166667,,,,,,FBP-OG-19.png,0.45,1.2,15,0.25,,,,,,,,,,,,,,,,,,0,29,29,14,1,,,,,,,,,,,,,,,,,,,,,,,
,,,,,SPR24_067,35,female,2024-04-18_15h33.00.195,jersey_experiment_5_v0,2023.2.2,Win32,84.03361345,,,,,,,,,,,,,,,,688.3235,689.3652,689.3652,690.0357,return,0.0889,,61.19791667,,,,,,FBP-RB-71.png,0.35,1.2,31,0.25,,,,,,,,,,,,,,,,,,0,30,30,30,1,,,,,,,,,,,,,,,,,,,,,,,
,,,,,SPR24_067,35,female,2024-04-18_15h33.00.195,jersey_experiment_5_v0,2023.2.2,Win32,84.03361345,,,,,,,,,,,,,,,,690.0359,691.0861,691.0861,692.283,return,0.4938,,76.30208333,,,,,,FBP-RB-71.png,0.45,1.2,35,0.25,,,,,,,,,,,,,,,,,,0,31,31,34,1,,,,,,,,,,,,,,,,,,,,,,,
,,,,,SPR24_067,35,female,2024-04-18_15h33.00.195,jersey_experiment_5_v0,2023.2.2,Win32,84.03361345,,,,,,,,,,,,,,,,692.2832,693.3301,693.3301,694.0404,return,0.0944,,60.15625,,,,,,FBP-OG-17.png,0.35,1.2,1,0.25,,,,,,,,,,,,,,,,,,0,32,32,0,1,,,,,,,,,,,,,,,,,,,,,,,
,,,,,SPR24_067,35,female,2024-04-18_15h33.00.195,jersey_experiment_5_v0,2023.2.2,Win32,84.03361345,,,,,,,,,,,,,,,,694.0405,695.083,695.0831,696.4831,return,0.1132,,59.24479167,,,,,,FBP-OG-19.png,0.35,1.2,11,0.25,,,,,,,,,,,,,,,,,,0,33,33,10,1,,,,,,,,,,,,,,,,,,,,,,,
,,,,,SPR24_067,35,female,2024-04-18_15h33.00.195,jersey_experiment_5_v0,2023.2.2,Win32,84.03361345,,,,,,,,,,,,,,,,696.4832,697.5301,697.5301,698.2126,return,0.0528,,75.91145833,,,,,,FBP-RB-71.png,0.43,1.2,34,0.25,,,,,,,,,,,,,,,,,,0,34,34,33,1,,,,,,,,,,,,,,,,,,,,,,,
,,,,,SPR24_067,35,female,2024-04-18_15h33.00.195,jersey_experiment_5_v0,2023.2.2,Win32,84.03361345,,,,,,,,,,,,,,,,698.2128,699.2596,699.2596,700.1421,return,0.1656,,73.95833333,,,,,,FBP-OG-18.png,0.43,1.2,9,0.25,,,,,,,,,,,,,,,,,,0,35,35,8,1,,,,,,,,,,,,,,,,,,,,,,,
,,,,,SPR24_067,35,female,2024-04-18_15h33.00.195,jersey_experiment_5_v0,2023.2.2,Win32,84.03361345,,,,,,,,,,,,,,,,700.1422,701.4363,701.4363,702.3807,return,0.0708,,61.84895833,,,,,,FBP-PT-81.png,0.4,1.2,53,0.5,,,,,,,,,,,,,,,,,,0,36,36,52,1,,,,,,,,,,,,,,,,,,,,,,,
,,,,,SPR24_067,35,female,2024-04-18_15h33.00.195,jersey_experiment_5_v0,2023.2.2,Win32,84.03361345,,,,,,,,,,,,,,,,702.3808,703.6747,703.6747,704.2127,return,0.0523,,75.78125,,,,,,FBP-YG-91.png,0.45,1.2,30,0.5,,,,,,,,,,,,,,,,,,0,37,37,29,1,,,,,,,,,,,,,,,,,,,,,,,
,,,,,SPR24_067,35,female,2024-04-18_15h33.00.195,jersey_experiment_5_v0,2023.2.2,Win32,84.03361345,,,,,,,,,,,,,,,,704.2129,705.2597,705.2597,705.801,return,0.1074,,75.78125,,,,,,FBP-RB-91.png,0.43,1.2,44,0.25,,,,,,,,,,,,,,,,,,0,38,38,43,1,,,,,,,,,,,,,,,,,,,,,,,
,,,,,SPR24_067,35,female,2024-04-18_15h33.00.195,jersey_experiment_5_v0,2023.2.2,Win32,84.03361345,,,,,,,,,,,,,,,,705.8012,707.0996,707.0996,707.9809,return,0.2122,,61.45833333,,,,,,FBP-PT-81.png,0.37,1.2,52,0.5,,,,,,,,,,,,,,,,,,0,39,39,51,1,,,,,,,,,,,,,,,,,,,,,,,
,,,,,SPR24_067,35,female,2024-04-18_15h33.00.195,jersey_experiment_5_v0,2023.2.2,Win32,84.03361345,,,,,,,,,,,,,,,,707.9811,709.2835,709.2835,709.5306,return,0.0945,,62.109375,,,,,,FBP-PT-71.png,0.4,1.2,48,0.5,,,,,,,,,,,,,,,,,,0,40,40,47,1,,,,,,,,,,,,,,,,,,,,,,,
,,,,,SPR24_067,35,female,2024-04-18_15h33.00.195,jersey_experiment_5_v0,2023.2.2,Win32,84.03361345,,,,,,,,,,,,,,,,709.5309,710.8248,710.8248,712.0175,return,0.0366,,63.93229167,,,,,,FBP-YG-91.png,0.43,1.2,29,0.5,,,,,,,,,,,,,,,,,,0,41,41,28,1,,,,,,,,,,,,,,,,,,,,,,,
,,,,,SPR24_067,35,female,2024-04-18_15h33.00.195,jersey_experiment_5_v0,2023.2.2,Win32,84.03361345,,,,,,,,,,,,,,,,712.0176,713.0601,713.0601,713.9472,return,0.0004,,49.609375,,,,,,FBP-OG-18.png,0.35,1.2,6,0.25,,,,,,,,,,,,,,,,,,0,42,42,5,1,,,,,,,,,,,,,,,,,,,,,,,
,,,,,SPR24_067,35,female,2024-04-18_15h33.00.195,jersey_experiment_5_v0,2023.2.2,Win32,84.03361345,,,,,,,,,,,,,,,,713.9474,715.252,715.252,716.4132,return,0.5283,,75.78125,,,,,,FBP-YG-71.png,0.45,1.2,20,0.5,,,,,,,,,,,,,,,,,,0,43,43,19,1,,,,,,,,,,,,,,,,,,,,,,,
,,,,,SPR24_067,35,female,2024-04-18_15h33.00.195,jersey_experiment_5_v0,2023.2.2,Win32,84.03361345,,,,,,,,,,,,,,,,716.4133,717.7072,717.7073,717.9896,return,0.0999,,75.52083333,,,,,,FBP-YG-81.png,0.45,1.2,25,0.5,,,,,,,,,,,,,,,,,,0,44,44,24,1,,,,,,,,,,,,,,,,,,,,,,,
,,,,,SPR24_067,35,female,2024-04-18_15h33.00.195,jersey_experiment_5_v0,2023.2.2,Win32,84.03361345,,,,,,,,,,,,,,,,717.9897,719.0368,719.0368,719.4133,return,0.0756,,75.65104167,,,,,,FBP-RB-91.png,0.45,1.2,45,0.25,,,,,,,,,,,,,,,,,,0,45,45,44,1,,,,,,,,,,,,,,,,,,,,,,,
,,,,,SPR24_067,35,female,2024-04-18_15h33.00.195,jersey_experiment_5_v0,2023.2.2,Win32,84.03361345,,,,,,,,,,,,,,,,719.4135,720.4604,720.4604,721.9003,return,0.2115,,73.828125,,,,,,FBP-OG-17.png,0.43,1.2,4,0.25,,,,,,,,,,,,,,,,,,0,46,46,3,1,,,,,,,,,,,,,,,,,,,,,,,
,,,,,SPR24_067,35,female,2024-04-18_15h33.00.195,jersey_experiment_5_v0,2023.2.2,Win32,84.03361345,,,,,,,,,,,,,,,,721.9005,722.9428,722.9428,723.4639,return,0.0343,,75,,,,,,FBP-OG-17.png,0.45,1.2,5,0.25,,,,,,,,,,,,,,,,,,0,47,47,4,1,,,,,,,,,,,,,,,,,,,,,,,
,,,,,SPR24_067,35,female,2024-04-18_15h33.00.195,jersey_experiment_5_v0,2023.2.2,Win32,84.03361345,,,,,,,,,,,,,,,,723.4642,724.5119,724.5119,725.9816,return,0.5279,,59.11458333,,,,,,FBP-OG-17.png,0.4,1.2,3,0.25,,,,,,,,,,,,,,,,,,0,48,48,2,1,,,,,,,,,,,,,,,,,,,,,,,
,,,,,SPR24_067,35,female,2024-04-18_15h33.00.195,jersey_experiment_5_v0,2023.2.2,Win32,84.03361345,,,,,,,,,,,,,,,,725.9818,727.2889,727.2889,727.9901,return,0.052,,74.73958333,,,,,,FBP-PT-81.png,0.45,1.2,55,0.5,,,,,,,,,,,,,,,,,,0,49,49,54,1,,,,,,,,,,,,,,,,,,,,,,,
,,,,,SPR24_067,35,female,2024-04-18_15h33.00.195,jersey_experiment_5_v0,2023.2.2,Win32,84.03361345,,,,,,,,,,,,,,,,727.9903,729.0371,729.0371,729.6842,return,0.0307,,74.47916667,,,,,,FBP-RB-81.png,0.43,1.2,39,0.25,,,,,,,,,,,,,,,,,,0,50,50,38,1,,,,,,,,,,,,,,,,,,,,,,,
,,,,,SPR24_067,35,female,2024-04-18_15h33.00.195,jersey_experiment_5_v0,2023.2.2,Win32,84.03361345,,,,,,,,,,,,,,,,729.6844,730.7314,730.7314,731.4607,return,0.1232,,62.63020833,,,,,,FBP-OG-18.png,0.4,1.2,8,0.25,,,,,,,,,,,,,,,,,,0,51,51,7,1,,,,,,,,,,,,,,,,,,,,,,,
,,,,,SPR24_067,35,female,2024-04-18_15h33.00.195,jersey_experiment_5_v0,2023.2.2,Win32,84.03361345,,,,,,,,,,,,,,,,731.4608,732.7549,732.7549,732.9666,return,0.0506,,63.15104167,,,,,,FBP-PT-71.png,0.43,1.2,49,0.5,,,,,,,,,,,,,,,,,,0,52,52,48,1,,,,,,,,,,,,,,,,,,,,,,,
,,,,,SPR24_067,35,female,2024-04-18_15h33.00.195,jersey_experiment_5_v0,2023.2.2,Win32,84.03361345,,,,,,,,,,,,,,,,732.9668,734.0138,734.0138,734.7079,return,0.0534,,62.76041667,,,,,,FBP-OG-19.png,0.4,1.2,13,0.25,,,,,,,,,,,,,,,,,,0,53,53,12,1,,,,,,,,,,,,,,,,,,,,,,,
,,,,,SPR24_067,35,female,2024-04-18_15h33.00.195,jersey_experiment_5_v0,2023.2.2,Win32,84.03361345,,,,,,,,,,,,,,,,734.708,736.0022,736.0023,736.7904,return,0.0387,,68.22916667,,,,,,FBP-PT-91.png,0.45,1.2,60,0.5,,,,,,,,,,,,,,,,,,0,54,54,59,1,,,,,,,,,,,,,,,,,,,,,,,
,,,,,SPR24_067,35,female,2024-04-18_15h33.00.195,jersey_experiment_5_v0,2023.2.2,Win32,84.03361345,,,,,,,,,,,,,,,,736.7906,738.0844,738.0845,738.9363,return,0.3061,,60.02604167,,,,,,FBP-PT-71.png,0.37,1.2,47,0.5,,,,,,,,,,,,,,,,,,0,55,55,46,1,,,,,,,,,,,,,,,,,,,,,,,
,,,,,SPR24_067,35,female,2024-04-18_15h33.00.195,jersey_experiment_5_v0,2023.2.2,Win32,84.03361345,,,,,,,,,,,,,,,,738.9364,740.2376,740.2376,740.8729,return,0.0718,,59.89583333,,,,,,FBP-PT-81.png,0.35,1.2,51,0.5,,,,,,,,,,,,,,,,,,0,56,56,50,1,,,,,,,,,,,,,,,,,,,,,,,
,,,,,SPR24_067,35,female,2024-04-18_15h33.00.195,jersey_experiment_5_v0,2023.2.2,Win32,84.03361345,,,,,,,,,,,,,,,,740.8731,741.92,741.92,743.72,return,0.0725,,66.015625,,,,,,FBP-RB-81.png,0.4,1.2,38,0.25,,,,,,,,,,,,,,,,,,0,57,57,37,1,,,,,,,,,,,,,,,,,,,,,,,
,,,,,SPR24_067,35,female,2024-04-18_15h33.00.195,jersey_experiment_5_v0,2023.2.2,Win32,84.03361345,,,,,,,,,,,,,,,,743.7202,744.7671,744.7672,745.4848,return,0.0709,,58.07291667,,,,,,FBP-OG-18.png,0.37,1.2,7,0.25,,,,,,,,,,,,,,,,,,0,58,58,6,1,,,,,,,,,,,,,,,,,,,,,,,
,,,,,SPR24_067,35,female,2024-04-18_15h33.00.195,jersey_experiment_5_v0,2023.2.2,Win32,84.03361345,,,,,,,,,,,,,,,,745.485,746.7827,746.7827,747.4647,return,0.0346,,67.96875,,,,,,FBP-YG-71.png,0.43,1.2,19,0.5,,,,,,,,,,,,,,,,,,0,59,59,18,1,,,,,,,,,,,,,,,,,,,,,,,
,,,,,SPR24_067,35,female,2024-04-18_15h33.00.195,jersey_experiment_5_v0,2023.2.2,Win32,84.03361345,,,,,,,,,,,,,,,,,,,,,,,,,,,,,,,,,,,,,,,,,,,,,,,,,,,,,,,,747.465,750.9677,return,3.4852,,,,,,,,,,,,,,,,,,,
,,,,,SPR24_067,35,female,2024-04-18_15h33.00.195,jersey_experiment_5_v0,2023.2.2,Win32,84.03361345,,,,,,,,,,,,,,,,,,,,,,,,,,,,,,,,,,,,,,,,,,,,,,,,,,,,,,,,,,,,,750.9678,754.7252,1,2.8066,return,0.9308,,,,,,,,,,,,
,,,,,SPR24_067,35,female,2024-04-18_15h33.00.195,jersey_experiment_5_v0,2023.2.2,Win32,84.03361345,,,,,,,,,,,,,,,,,,,,,,,,,,,,,,,,,,,,,,,,,,,,,,,,,,,,,,,,,,,,,,,,,,,,754.7252,768.9847,no ,right,6.3234,,,,,,
,,,,,SPR24_067,35,female,2024-04-18_15h33.00.195,jersey_experiment_5_v0,2023.2.2,Win32,84.03361345,,,,,,,,,,,,,,,,,,,,,,,,,,,,,,,,,,,,,,,,,,,,,,,,,,,,,,,,,,,,,,,,,,,,,,,,,,768.9847,770.8035,return,1.8078,