requirements.started,requirements.stopped,key_resp_3.keys,key_resp_3.rt,key_resp_3.duration,Subject ID,Age,Gender,date,expName,psychopyVersion,OS,frameRate,instructions1.started,instructions1.stopped,key_resp.keys,key_resp.rt,key_resp.duration,example.started,example.stopped,enter_2.keys,enter_2.rt,enter_2.duration,instructions2.started,instructions2.stopped,enter_3.keys,enter_3.rt,enter_3.duration,image.started,image.stopped,slider_2.started,slider_2.stopped,next.keys,next.rt,next.duration,slider.response,trial_block_1.thisRepN,trial_block_1.thisTrialN,trial_block_1.thisN,trial_block_1.thisIndex,trial_block_1.ran,Path,Width,Height,Index,Duration,trial_block_2.thisRepN,trial_block_2.thisTrialN,trial_block_2.thisN,trial_block_2.thisIndex,trial_block_2.ran,rest_break.started,rest_break.stopped,end_break.started,end_break.stopped,key_resp_5.keys,key_resp_5.rt,key_resp_5.duration,trial_block_3.thisRepN,trial_block_3.thisTrialN,trial_block_3.thisN,trial_block_3.thisIndex,trial_block_3.ran,trial_block_4.thisRepN,trial_block_4.thisTrialN,trial_block_4.thisN,trial_block_4.thisIndex,trial_block_4.ran,questions_intro.started,questions_intro.stopped,enter_12.keys,enter_12.rt,enter_12.duration,question2.started,question2.stopped,question_doingbest.response,question_doingbest.rt,enter_15.keys,enter_15.rt,enter_15.duration,pattern.started,pattern.stopped,pattern_2.text,enter_17.keys,enter_17.rt,enter_17.duration,thankyou.started,thankyou.stopped,enter_14.keys,enter_14.rt,enter_14.duration
1E-04,9.9168,return,9.9114,,SPR24_049,21,Male,2024-04-16_09h22.25.227,jersey_experiment_5_v0,2023.2.2,Win32,85.47008547,,,,,,,,,,,,,,,,,,,,,,,,,,,,,,,,,,,,,,,,,,,,,,,,,,,,,,,,,,,,,,,,,,,,,,,,,,,,,,
,,,,,SPR24_049,21,Male,2024-04-16_09h22.25.227,jersey_experiment_5_v0,2023.2.2,Win32,85.47008547,9.917,19.0328,return,9.1001,,,,,,,,,,,,,,,,,,,,,,,,,,,,,,,,,,,,,,,,,,,,,,,,,,,,,,,,,,,,,,,,,,,,,,,,,,
,,,,,SPR24_049,21,Male,2024-04-16_09h22.25.227,jersey_experiment_5_v0,2023.2.2,Win32,85.47008547,,,,,,19.0329,27.4096,return,8.3352,,,,,,,,,,,,,,,,,,,,,,,,,,,,,,,,,,,,,,,,,,,,,,,,,,,,,,,,,,,,,,,,,,,,,
,,,,,SPR24_049,21,Male,2024-04-16_09h22.25.227,jersey_experiment_5_v0,2023.2.2,Win32,85.47008547,,,,,,,,,,,27.4098,51.2927,return,23.8734,,,,,,,,,,,,,,,,,,,,,,,,,,,,,,,,,,,,,,,,,,,,,,,,,,,,,,,,,,,,,,,,
,,,,,SPR24_049,21,Male,2024-04-16_09h22.25.227,jersey_experiment_5_v0,2023.2.2,Win32,85.47008547,,,,,,,,,,,,,,,,51.3002,52.5986,52.5988,58.9637,return,2.7767,,50.26041667,0,0,0,30,1,FBP-RB-17.png,0.35,1.2,31,0.5,,,,,,,,,,,,,,,,,,,,,,,,,,,,,,,,,,,,,,,,,,,,,
,,,,,SPR24_049,21,Male,2024-04-16_09h22.25.227,jersey_experiment_5_v0,2023.2.2,Win32,85.47008547,,,,,,,,,,,,,,,,58.9641,60.0104,60.0104,66.3639,return,4.1453,,74.86979167,0,1,1,54,1,FBP-PT-18.png,0.45,1.2,55,0.25,,,,,,,,,,,,,,,,,,,,,,,,,,,,,,,,,,,,,,,,,,,,,
,,,,,SPR24_049,21,Male,2024-04-16_09h22.25.227,jersey_experiment_5_v0,2023.2.2,Win32,85.47008547,,,,,,,,,,,,,,,,66.3642,67.4107,67.4108,70.6108,return,0.8094,,75.91145833,0,2,2,59,1,FBP-PT-19.png,0.45,1.2,60,0.25,,,,,,,,,,,,,,,,,,,,,,,,,,,,,,,,,,,,,,,,,,,,,
,,,,,SPR24_049,21,Male,2024-04-16_09h22.25.227,jersey_experiment_5_v0,2023.2.2,Win32,85.47008547,,,,,,,,,,,,,,,,70.6111,71.905,71.905,74.8934,return,1.2504,,50.13020833,0,3,3,11,1,FBP-OG-91.png,0.37,1.2,12,0.5,,,,,,,,,,,,,,,,,,,,,,,,,,,,,,,,,,,,,,,,,,,,,
,,,,,SPR24_049,21,Male,2024-04-16_09h22.25.227,jersey_experiment_5_v0,2023.2.2,Win32,85.47008547,,,,,,,,,,,,,,,,74.8936,75.9404,75.9404,80.3054,return,1.1769,,74.47916667,0,4,4,27,1,FBP-YG-19.png,0.4,1.2,28,0.25,,,,,,,,,,,,,,,,,,,,,,,,,,,,,,,,,,,,,,,,,,,,,
,,,,,SPR24_049,21,Male,2024-04-16_09h22.25.227,jersey_experiment_5_v0,2023.2.2,Win32,85.47008547,,,,,,,,,,,,,,,,80.3056,81.5994,81.5994,85.2115,return,1.6496,,50.91145833,0,5,5,5,1,FBP-OG-81.png,0.35,1.2,6,0.5,,,,,,,,,,,,,,,,,,,,,,,,,,,,,,,,,,,,,,,,,,,,,
,,,,,SPR24_049,21,Male,2024-04-16_09h22.25.227,jersey_experiment_5_v0,2023.2.2,Win32,85.47008547,,,,,,,,,,,,,,,,85.2117,86.5056,86.5056,89.4351,return,1.0409,,50.26041667,0,6,6,6,1,FBP-OG-81.png,0.37,1.2,7,0.5,,,,,,,,,,,,,,,,,,,,,,,,,,,,,,,,,,,,,,,,,,,,,
,,,,,SPR24_049,21,Male,2024-04-16_09h22.25.227,jersey_experiment_5_v0,2023.2.2,Win32,85.47008547,,,,,,,,,,,,,,,,89.4353,90.4822,90.4822,92.8823,return,0.8228,,73.56770833,0,7,7,24,1,FBP-YG-18.png,0.45,1.2,25,0.25,,,,,,,,,,,,,,,,,,,,,,,,,,,,,,,,,,,,,,,,,,,,,
,,,,,SPR24_049,21,Male,2024-04-16_09h22.25.227,jersey_experiment_5_v0,2023.2.2,Win32,85.47008547,,,,,,,,,,,,,,,,92.8825,94.1764,94.1764,95.9764,return,0.8317,,51.82291667,0,8,8,10,1,FBP-OG-91.png,0.35,1.2,11,0.5,,,,,,,,,,,,,,,,,,,,,,,,,,,,,,,,,,,,,,,,,,,,,
,,,,,SPR24_049,21,Male,2024-04-16_09h22.25.227,jersey_experiment_5_v0,2023.2.2,Win32,85.47008547,,,,,,,,,,,,,,,,95.9765,97.2706,97.2707,101.459,return,0.6827,,75.390625,0,9,9,3,1,FBP-OG-71.png,0.43,1.2,4,0.5,,,,,,,,,,,,,,,,,,,,,,,,,,,,,,,,,,,,,,,,,,,,,
,,,,,SPR24_049,21,Male,2024-04-16_09h22.25.227,jersey_experiment_5_v0,2023.2.2,Win32,85.47008547,,,,,,,,,,,,,,,,101.4592,102.7532,102.7532,105.2473,return,1.1171,,98.95833333,0,10,10,34,1,FBP-RB-17.png,0.45,1.2,35,0.5,,,,,,,,,,,,,,,,,,,,,,,,,,,,,,,,,,,,,,,,,,,,,
,,,,,SPR24_049,21,Male,2024-04-16_09h22.25.227,jersey_experiment_5_v0,2023.2.2,Win32,85.47008547,,,,,,,,,,,,,,,,105.2477,106.5417,106.5417,109.3534,return,0.8425,,49.47916667,0,11,11,1,1,FBP-OG-71.png,0.37,1.2,2,0.5,,,,,,,,,,,,,,,,,,,,,,,,,,,,,,,,,,,,,,,,,,,,,
,,,,,SPR24_049,21,Male,2024-04-16_09h22.25.227,jersey_experiment_5_v0,2023.2.2,Win32,85.47008547,,,,,,,,,,,,,,,,109.3536,110.4006,110.4006,112.5064,return,0.9227,,24.21875,0,12,12,21,1,FBP-YG-18.png,0.37,1.2,22,0.25,,,,,,,,,,,,,,,,,,,,,,,,,,,,,,,,,,,,,,,,,,,,,
,,,,,SPR24_049,21,Male,2024-04-16_09h22.25.227,jersey_experiment_5_v0,2023.2.2,Win32,85.47008547,,,,,,,,,,,,,,,,112.5066,113.8007,113.8008,115.4358,return,0.674,,24.86979167,0,13,13,35,1,FBP-RB-18.png,0.35,1.2,36,0.5,,,,,,,,,,,,,,,,,,,,,,,,,,,,,,,,,,,,,,,,,,,,,
,,,,,SPR24_049,21,Male,2024-04-16_09h22.25.227,jersey_experiment_5_v0,2023.2.2,Win32,85.47008547,,,,,,,,,,,,,,,,115.4361,116.4831,116.4831,118.3773,return,0.7369,,75,0,14,14,28,1,FBP-YG-19.png,0.43,1.2,29,0.25,,,,,,,,,,,,,,,,,,,,,,,,,,,,,,,,,,,,,,,,,,,,,
,,,,,SPR24_049,21,Male,2024-04-16_09h22.25.227,jersey_experiment_5_v0,2023.2.2,Win32,85.47008547,,,,,,,,,,,,,,,,118.3776,119.4246,119.4247,121.2716,return,0.6679,,50.390625,0,15,15,51,1,FBP-PT-18.png,0.37,1.2,52,0.25,,,,,,,,,,,,,,,,,,,,,,,,,,,,,,,,,,,,,,,,,,,,,
,,,,,SPR24_049,21,Male,2024-04-16_09h22.25.227,jersey_experiment_5_v0,2023.2.2,Win32,85.47008547,,,,,,,,,,,,,,,,121.2719,122.5656,122.5657,123.6598,return,0.6052,,50.52083333,0,16,16,36,1,FBP-RB-18.png,0.37,1.2,37,0.5,,,,,,,,,,,,,,,,,,,,,,,,,,,,,,,,,,,,,,,,,,,,,
,,,,,SPR24_049,21,Male,2024-04-16_09h22.25.227,jersey_experiment_5_v0,2023.2.2,Win32,85.47008547,,,,,,,,,,,,,,,,123.6601,124.7068,124.7069,126.248,return,0.5614,,49.73958333,0,17,17,52,1,FBP-PT-18.png,0.4,1.2,53,0.25,,,,,,,,,,,,,,,,,,,,,,,,,,,,,,,,,,,,,,,,,,,,,
,,,,,SPR24_049,21,Male,2024-04-16_09h22.25.227,jersey_experiment_5_v0,2023.2.2,Win32,85.47008547,,,,,,,,,,,,,,,,126.2483,127.2951,127.2952,129.1658,return,0.6029,,49.47916667,0,18,18,17,1,FBP-YG-17.png,0.4,1.2,18,0.25,,,,,,,,,,,,,,,,,,,,,,,,,,,,,,,,,,,,,,,,,,,,,
,,,,,SPR24_049,21,Male,2024-04-16_09h22.25.227,jersey_experiment_5_v0,2023.2.2,Win32,85.47008547,,,,,,,,,,,,,,,,129.1661,130.4601,130.4601,141.2487,return,9.3282,,75,0,19,19,2,1,FBP-OG-71.png,0.4,1.2,3,0.5,,,,,,,,,,,,,,,,,,,,,,,,,,,,,,,,,,,,,,,,,,,,,
,,,,,SPR24_049,21,Male,2024-04-16_09h22.25.227,jersey_experiment_5_v0,2023.2.2,Win32,85.47008547,,,,,,,,,,,,,,,,141.2489,142.2959,142.2959,145.2019,return,1.0696,,25.13020833,0,20,20,55,1,FBP-PT-19.png,0.35,1.2,56,0.25,,,,,,,,,,,,,,,,,,,,,,,,,,,,,,,,,,,,,,,,,,,,,
,,,,,SPR24_049,21,Male,2024-04-16_09h22.25.227,jersey_experiment_5_v0,2023.2.2,Win32,85.47008547,,,,,,,,,,,,,,,,145.2021,146.4958,146.4959,149.696,return,1.2477,,77.08333333,0,21,21,8,1,FBP-OG-81.png,0.43,1.2,9,0.5,,,,,,,,,,,,,,,,,,,,,,,,,,,,,,,,,,,,,,,,,,,,,
,,,,,SPR24_049,21,Male,2024-04-16_09h22.25.227,jersey_experiment_5_v0,2023.2.2,Win32,85.47008547,,,,,,,,,,,,,,,,149.6962,150.7433,150.7434,152.9786,return,0.7297,,50,0,22,22,16,1,FBP-YG-17.png,0.37,1.2,17,0.25,,,,,,,,,,,,,,,,,,,,,,,,,,,,,,,,,,,,,,,,,,,,,
,,,,,SPR24_049,21,Male,2024-04-16_09h22.25.227,jersey_experiment_5_v0,2023.2.2,Win32,85.47008547,,,,,,,,,,,,,,,,152.9788,154.0258,154.0258,161.7083,return,6.8495,,75.78125,0,23,23,58,1,FBP-PT-19.png,0.43,1.2,59,0.25,,,,,,,,,,,,,,,,,,,,,,,,,,,,,,,,,,,,,,,,,,,,,
,,,,,SPR24_049,21,Male,2024-04-16_09h22.25.227,jersey_experiment_5_v0,2023.2.2,Win32,85.47008547,,,,,,,,,,,,,,,,161.7085,162.7553,162.7554,165.8262,return,0.8843,,42.83854167,0,24,24,15,1,FBP-YG-17.png,0.35,1.2,16,0.25,,,,,,,,,,,,,,,,,,,,,,,,,,,,,,,,,,,,,,,,,,,,,
,,,,,SPR24_049,21,Male,2024-04-16_09h22.25.227,jersey_experiment_5_v0,2023.2.2,Win32,85.47008547,,,,,,,,,,,,,,,,165.8264,167.1205,167.1205,168.8967,return,0.7866,,75.390625,0,25,25,44,1,FBP-RB-19.png,0.45,1.2,45,0.5,,,,,,,,,,,,,,,,,,,,,,,,,,,,,,,,,,,,,,,,,,,,,
,,,,,SPR24_049,21,Male,2024-04-16_09h22.25.227,jersey_experiment_5_v0,2023.2.2,Win32,85.47008547,,,,,,,,,,,,,,,,168.897,169.9439,169.944,171.8971,return,0.6417,,77.99479167,0,26,26,48,1,FBP-PT-17.png,0.43,1.2,49,0.25,,,,,,,,,,,,,,,,,,,,,,,,,,,,,,,,,,,,,,,,,,,,,
,,,,,SPR24_049,21,Male,2024-04-16_09h22.25.227,jersey_experiment_5_v0,2023.2.2,Win32,85.47008547,,,,,,,,,,,,,,,,171.8973,172.9439,172.944,175.5323,return,0.8278,,39.32291667,0,27,27,26,1,FBP-YG-19.png,0.37,1.2,27,0.25,,,,,,,,,,,,,,,,,,,,,,,,,,,,,,,,,,,,,,,,,,,,,
,,,,,SPR24_049,21,Male,2024-04-16_09h22.25.227,jersey_experiment_5_v0,2023.2.2,Win32,85.47008547,,,,,,,,,,,,,,,,175.5325,176.8265,176.8266,178.6502,return,0.7711,,83.33333333,0,28,28,14,1,FBP-OG-91.png,0.45,1.2,15,0.5,,,,,,,,,,,,,,,,,,,,,,,,,,,,,,,,,,,,,,,,,,,,,
,,,,,SPR24_049,21,Male,2024-04-16_09h22.25.227,jersey_experiment_5_v0,2023.2.2,Win32,85.47008547,,,,,,,,,,,,,,,,178.6505,179.9443,179.9444,182.4031,return,1.0118,,26.82291667,0,29,29,40,1,FBP-RB-19.png,0.35,1.2,41,0.5,,,,,,,,,,,,,,,,,,,,,,,,,,,,,,,,,,,,,,,,,,,,,
,,,,,SPR24_049,21,Male,2024-04-16_09h22.25.227,jersey_experiment_5_v0,2023.2.2,Win32,85.47008547,,,,,,,,,,,,,,,,182.4034,183.6974,183.6974,186.5915,return,0.8345,,72.65625,0,30,30,38,1,FBP-RB-18.png,0.43,1.2,39,0.5,,,,,,,,,,,,,,,,,,,,,,,,,,,,,,,,,,,,,,,,,,,,,
,,,,,SPR24_049,21,Male,2024-04-16_09h22.25.227,jersey_experiment_5_v0,2023.2.2,Win32,85.47008547,,,,,,,,,,,,,,,,186.5919,187.8857,187.8858,189.4388,return,0.6844,,71.875,0,31,31,33,1,FBP-RB-17.png,0.43,1.2,34,0.5,,,,,,,,,,,,,,,,,,,,,,,,,,,,,,,,,,,,,,,,,,,,,
,,,,,SPR24_049,21,Male,2024-04-16_09h22.25.227,jersey_experiment_5_v0,2023.2.2,Win32,85.47008547,,,,,,,,,,,,,,,,189.4389,190.7328,190.7329,192.0505,return,0.6829,,71.875,0,32,32,37,1,FBP-RB-18.png,0.4,1.2,38,0.5,,,,,,,,,,,,,,,,,,,,,,,,,,,,,,,,,,,,,,,,,,,,,
,,,,,SPR24_049,21,Male,2024-04-16_09h22.25.227,jersey_experiment_5_v0,2023.2.2,Win32,85.47008547,,,,,,,,,,,,,,,,192.0508,193.3447,193.3448,195.0037,return,0.7326,,72.39583333,0,33,33,32,1,FBP-RB-17.png,0.4,1.2,33,0.5,,,,,,,,,,,,,,,,,,,,,,,,,,,,,,,,,,,,,,,,,,,,,
,,,,,SPR24_049,21,Male,2024-04-16_09h22.25.227,jersey_experiment_5_v0,2023.2.2,Win32,85.47008547,,,,,,,,,,,,,,,,195.0039,196.0507,196.0507,200.2862,return,2.9905,,79.81770833,0,34,34,18,1,FBP-YG-17.png,0.43,1.2,19,0.25,,,,,,,,,,,,,,,,,,,,,,,,,,,,,,,,,,,,,,,,,,,,,
,,,,,SPR24_049,21,Male,2024-04-16_09h22.25.227,jersey_experiment_5_v0,2023.2.2,Win32,85.47008547,,,,,,,,,,,,,,,,200.2864,201.3332,201.3332,205.2276,return,2.9699,,64.32291667,0,35,35,56,1,FBP-PT-19.png,0.37,1.2,57,0.25,,,,,,,,,,,,,,,,,,,,,,,,,,,,,,,,,,,,,,,,,,,,,
,,,,,SPR24_049,21,Male,2024-04-16_09h22.25.227,jersey_experiment_5_v0,2023.2.2,Win32,85.47008547,,,,,,,,,,,,,,,,205.2322,206.5336,206.5336,208.1099,return,0.6838,,77.734375,0,36,36,39,1,FBP-RB-18.png,0.45,1.2,40,0.5,,,,,,,,,,,,,,,,,,,,,,,,,,,,,,,,,,,,,,,,,,,,,
,,,,,SPR24_049,21,Male,2024-04-16_09h22.25.227,jersey_experiment_5_v0,2023.2.2,Win32,85.47008547,,,,,,,,,,,,,,,,208.1103,209.4044,209.4044,211.169,return,0.7067,,51.04166667,0,37,37,41,1,FBP-RB-19.png,0.37,1.2,42,0.5,,,,,,,,,,,,,,,,,,,,,,,,,,,,,,,,,,,,,,,,,,,,,
,,,,,SPR24_049,21,Male,2024-04-16_09h22.25.227,jersey_experiment_5_v0,2023.2.2,Win32,85.47008547,,,,,,,,,,,,,,,,211.1693,212.216,212.216,215.4867,return,1.7432,,84.89583333,0,38,38,19,1,FBP-YG-17.png,0.45,1.2,20,0.25,,,,,,,,,,,,,,,,,,,,,,,,,,,,,,,,,,,,,,,,,,,,,
,,,,,SPR24_049,21,Male,2024-04-16_09h22.25.227,jersey_experiment_5_v0,2023.2.2,Win32,85.47008547,,,,,,,,,,,,,,,,215.487,216.534,216.534,219.7692,return,2.3229,,72.265625,0,39,39,47,1,FBP-PT-17.png,0.4,1.2,48,0.25,,,,,,,,,,,,,,,,,,,,,,,,,,,,,,,,,,,,,,,,,,,,,
,,,,,SPR24_049,21,Male,2024-04-16_09h22.25.227,jersey_experiment_5_v0,2023.2.2,Win32,85.47008547,,,,,,,,,,,,,,,,219.7694,220.8163,220.8164,222.0987,return,0.5646,,82.68229167,0,40,40,29,1,FBP-YG-19.png,0.45,1.2,30,0.25,,,,,,,,,,,,,,,,,,,,,,,,,,,,,,,,,,,,,,,,,,,,,
,,,,,SPR24_049,21,Male,2024-04-16_09h22.25.227,jersey_experiment_5_v0,2023.2.2,Win32,85.47008547,,,,,,,,,,,,,,,,222.099,223.1459,223.1459,225.2638,return,1.4495,,75.78125,0,41,41,23,1,FBP-YG-18.png,0.43,1.2,24,0.25,,,,,,,,,,,,,,,,,,,,,,,,,,,,,,,,,,,,,,,,,,,,,
,,,,,SPR24_049,21,Male,2024-04-16_09h22.25.227,jersey_experiment_5_v0,2023.2.2,Win32,85.47008547,,,,,,,,,,,,,,,,225.264,226.3107,226.3107,228.0755,return,0.8384,,76.30208333,0,42,42,53,1,FBP-PT-18.png,0.43,1.2,54,0.25,,,,,,,,,,,,,,,,,,,,,,,,,,,,,,,,,,,,,,,,,,,,,
,,,,,SPR24_049,21,Male,2024-04-16_09h22.25.227,jersey_experiment_5_v0,2023.2.2,Win32,85.47008547,,,,,,,,,,,,,,,,228.0756,229.3696,229.3696,232.9933,return,2.5883,,70.83333333,0,43,43,42,1,FBP-RB-19.png,0.4,1.2,43,0.5,,,,,,,,,,,,,,,,,,,,,,,,,,,,,,,,,,,,,,,,,,,,,
,,,,,SPR24_049,21,Male,2024-04-16_09h22.25.227,jersey_experiment_5_v0,2023.2.2,Win32,85.47008547,,,,,,,,,,,,,,,,232.9935,234.0404,234.0405,236.723,return,1.3555,,33.85416667,0,44,44,25,1,FBP-YG-19.png,0.35,1.2,26,0.25,,,,,,,,,,,,,,,,,,,,,,,,,,,,,,,,,,,,,,,,,,,,,
,,,,,SPR24_049,21,Male,2024-04-16_09h22.25.227,jersey_experiment_5_v0,2023.2.2,Win32,85.47008547,,,,,,,,,,,,,,,,236.7232,238.0171,238.0172,239.9466,return,0.9457,,62.36979167,0,45,45,43,1,FBP-RB-19.png,0.43,1.2,44,0.5,,,,,,,,,,,,,,,,,,,,,,,,,,,,,,,,,,,,,,,,,,,,,
,,,,,SPR24_049,21,Male,2024-04-16_09h22.25.227,jersey_experiment_5_v0,2023.2.2,Win32,85.47008547,,,,,,,,,,,,,,,,239.9467,241.2406,241.2407,244.6998,return,2.3698,,60.9375,0,46,46,7,1,FBP-OG-81.png,0.4,1.2,8,0.5,,,,,,,,,,,,,,,,,,,,,,,,,,,,,,,,,,,,,,,,,,,,,
,,,,,SPR24_049,21,Male,2024-04-16_09h22.25.227,jersey_experiment_5_v0,2023.2.2,Win32,85.47008547,,,,,,,,,,,,,,,,244.7,245.7467,245.7467,247.7467,return,0.9411,,24.609375,0,47,47,46,1,FBP-PT-17.png,0.37,1.2,47,0.25,,,,,,,,,,,,,,,,,,,,,,,,,,,,,,,,,,,,,,,,,,,,,
,,,,,SPR24_049,21,Male,2024-04-16_09h22.25.227,jersey_experiment_5_v0,2023.2.2,Win32,85.47008547,,,,,,,,,,,,,,,,247.747,249.0411,249.0412,251.0057,return,0.791,,77.47395833,0,48,48,9,1,FBP-OG-81.png,0.45,1.2,10,0.5,,,,,,,,,,,,,,,,,,,,,,,,,,,,,,,,,,,,,,,,,,,,,
,,,,,SPR24_049,21,Male,2024-04-16_09h22.25.227,jersey_experiment_5_v0,2023.2.2,Win32,85.47008547,,,,,,,,,,,,,,,,251.0061,252.0528,252.0528,253.7234,return,0.5699,,76.30208333,0,49,49,22,1,FBP-YG-18.png,0.4,1.2,23,0.25,,,,,,,,,,,,,,,,,,,,,,,,,,,,,,,,,,,,,,,,,,,,,
,,,,,SPR24_049,21,Male,2024-04-16_09h22.25.227,jersey_experiment_5_v0,2023.2.2,Win32,85.47008547,,,,,,,,,,,,,,,,253.7237,254.7706,254.7707,259.9354,return,3.342,,16.796875,0,50,50,45,1,FBP-PT-17.png,0.35,1.2,46,0.25,,,,,,,,,,,,,,,,,,,,,,,,,,,,,,,,,,,,,,,,,,,,,
,,,,,SPR24_049,21,Male,2024-04-16_09h22.25.227,jersey_experiment_5_v0,2023.2.2,Win32,85.47008547,,,,,,,,,,,,,,,,259.9357,260.9825,260.9826,263.6651,return,0.7893,,4.427083333,0,51,51,50,1,FBP-PT-18.png,0.35,1.2,51,0.25,,,,,,,,,,,,,,,,,,,,,,,,,,,,,,,,,,,,,,,,,,,,,
,,,,,SPR24_049,21,Male,2024-04-16_09h22.25.227,jersey_experiment_5_v0,2023.2.2,Win32,85.47008547,,,,,,,,,,,,,,,,263.6654,264.7121,264.7121,266.3005,return,0.6044,,11.328125,0,52,52,20,1,FBP-YG-18.png,0.35,1.2,21,0.25,,,,,,,,,,,,,,,,,,,,,,,,,,,,,,,,,,,,,,,,,,,,,
,,,,,SPR24_049,21,Male,2024-04-16_09h22.25.227,jersey_experiment_5_v0,2023.2.2,Win32,85.47008547,,,,,,,,,,,,,,,,266.3006,267.3474,267.3474,269.2183,return,0.5413,,73.56770833,0,53,53,49,1,FBP-PT-17.png,0.45,1.2,50,0.25,,,,,,,,,,,,,,,,,,,,,,,,,,,,,,,,,,,,,,,,,,,,,
,,,,,SPR24_049,21,Male,2024-04-16_09h22.25.227,jersey_experiment_5_v0,2023.2.2,Win32,85.47008547,,,,,,,,,,,,,,,,269.2185,270.5123,270.5124,272.7007,return,1.2394,,49.21875,0,54,54,12,1,FBP-OG-91.png,0.4,1.2,13,0.5,,,,,,,,,,,,,,,,,,,,,,,,,,,,,,,,,,,,,,,,,,,,,
,,,,,SPR24_049,21,Male,2024-04-16_09h22.25.227,jersey_experiment_5_v0,2023.2.2,Win32,85.47008547,,,,,,,,,,,,,,,,272.7009,273.9949,273.9949,275.1948,return,0.606,,55.33854167,0,55,55,13,1,FBP-OG-91.png,0.43,1.2,14,0.5,,,,,,,,,,,,,,,,,,,,,,,,,,,,,,,,,,,,,,,,,,,,,
,,,,,SPR24_049,21,Male,2024-04-16_09h22.25.227,jersey_experiment_5_v0,2023.2.2,Win32,85.47008547,,,,,,,,,,,,,,,,275.195,276.4889,276.489,277.6774,return,0.521,,55.33854167,0,56,56,4,1,FBP-OG-71.png,0.45,1.2,5,0.5,,,,,,,,,,,,,,,,,,,,,,,,,,,,,,,,,,,,,,,,,,,,,
,,,,,SPR24_049,21,Male,2024-04-16_09h22.25.227,jersey_experiment_5_v0,2023.2.2,Win32,85.47008547,,,,,,,,,,,,,,,,277.6775,278.9714,278.9714,281.2186,return,0.6965,,5.989583333,0,57,57,0,1,FBP-OG-71.png,0.35,1.2,1,0.5,,,,,,,,,,,,,,,,,,,,,,,,,,,,,,,,,,,,,,,,,,,,,
,,,,,SPR24_049,21,Male,2024-04-16_09h22.25.227,jersey_experiment_5_v0,2023.2.2,Win32,85.47008547,,,,,,,,,,,,,,,,281.2188,282.2656,282.2657,284.7598,return,0.7383,,46.35416667,0,58,58,57,1,FBP-PT-19.png,0.4,1.2,58,0.25,,,,,,,,,,,,,,,,,,,,,,,,,,,,,,,,,,,,,,,,,,,,,
,,,,,SPR24_049,21,Male,2024-04-16_09h22.25.227,jersey_experiment_5_v0,2023.2.2,Win32,85.47008547,,,,,,,,,,,,,,,,284.76,286.054,286.0541,287.4188,return,0.6513,,48.17708333,0,59,59,31,1,FBP-RB-17.png,0.37,1.2,32,0.5,,,,,,,,,,,,,,,,,,,,,,,,,,,,,,,,,,,,,,,,,,,,,
,,,,,SPR24_049,21,Male,2024-04-16_09h22.25.227,jersey_experiment_5_v0,2023.2.2,Win32,85.47008547,,,,,,,,,,,,,,,,287.4209,288.713,288.713,290.8424,return,1.2278,,52.21354167,,,,,,FBP-OG-17.png,0.4,1.2,3,0.5,0,0,0,2,1,,,,,,,,,,,,,,,,,,,,,,,,,,,,,,,,,,,,,,,,
,,,,,SPR24_049,21,Male,2024-04-16_09h22.25.227,jersey_experiment_5_v0,2023.2.2,Win32,85.47008547,,,,,,,,,,,,,,,,290.8429,291.8896,291.8896,293.8192,return,0.594,,54.81770833,,,,,,FBP-YG-81.png,0.4,1.2,23,0.25,0,1,1,22,1,,,,,,,,,,,,,,,,,,,,,,,,,,,,,,,,,,,,,,,,
,,,,,SPR24_049,21,Male,2024-04-16_09h22.25.227,jersey_experiment_5_v0,2023.2.2,Win32,85.47008547,,,,,,,,,,,,,,,,293.8194,295.1131,295.1132,299.1957,return,0.4742,,56.640625,,,,,,FBP-RB-71.png,0.43,1.2,34,0.5,0,2,2,33,1,,,,,,,,,,,,,,,,,,,,,,,,,,,,,,,,,,,,,,,,
,,,,,SPR24_049,21,Male,2024-04-16_09h22.25.227,jersey_experiment_5_v0,2023.2.2,Win32,85.47008547,,,,,,,,,,,,,,,,299.1959,300.2427,300.2428,301.4664,return,0.1945,,75.26041667,,,,,,FBP-YG-71.png,0.45,1.2,20,0.25,0,3,3,19,1,,,,,,,,,,,,,,,,,,,,,,,,,,,,,,,,,,,,,,,,
,,,,,SPR24_049,21,Male,2024-04-16_09h22.25.227,jersey_experiment_5_v0,2023.2.2,Win32,85.47008547,,,,,,,,,,,,,,,,301.4667,302.7606,302.7606,303.8197,return,0.1331,,5.989583333,,,,,,FBP-RB-71.png,0.35,1.2,31,0.5,0,4,4,30,1,,,,,,,,,,,,,,,,,,,,,,,,,,,,,,,,,,,,,,,,
,,,,,SPR24_049,21,Male,2024-04-16_09h22.25.227,jersey_experiment_5_v0,2023.2.2,Win32,85.47008547,,,,,,,,,,,,,,,,303.8199,304.8664,304.8665,306.4666,return,0.7906,,31.38020833,,,,,,FBP-YG-71.png,0.4,1.2,18,0.25,0,5,5,17,1,,,,,,,,,,,,,,,,,,,,,,,,,,,,,,,,,,,,,,,,
,,,,,SPR24_049,21,Male,2024-04-16_09h22.25.227,jersey_experiment_5_v0,2023.2.2,Win32,85.47008547,,,,,,,,,,,,,,,,306.4668,307.7608,307.7608,308.867,return,0.1405,,34.375,,,,,,FBP-RB-91.png,0.4,1.2,43,0.5,0,6,6,42,1,,,,,,,,,,,,,,,,,,,,,,,,,,,,,,,,,,,,,,,,
,,,,,SPR24_049,21,Male,2024-04-16_09h22.25.227,jersey_experiment_5_v0,2023.2.2,Win32,85.47008547,,,,,,,,,,,,,,,,308.8671,310.1611,310.1612,311.267,return,0.2731,,65.234375,,,,,,FBP-RB-91.png,0.45,1.2,45,0.5,0,7,7,44,1,,,,,,,,,,,,,,,,,,,,,,,,,,,,,,,,,,,,,,,,
,,,,,SPR24_049,21,Male,2024-04-16_09h22.25.227,jersey_experiment_5_v0,2023.2.2,Win32,85.47008547,,,,,,,,,,,,,,,,311.2671,312.3139,312.314,313.2905,return,0.1223,,37.5,,,,,,FBP-YG-91.png,0.35,1.2,26,0.25,0,8,8,25,1,,,,,,,,,,,,,,,,,,,,,,,,,,,,,,,,,,,,,,,,
,,,,,SPR24_049,21,Male,2024-04-16_09h22.25.227,jersey_experiment_5_v0,2023.2.2,Win32,85.47008547,,,,,,,,,,,,,,,,313.2907,314.5846,314.5847,315.6437,return,0.2287,,16.015625,,,,,,FBP-RB-91.png,0.37,1.2,42,0.5,0,9,9,41,1,,,,,,,,,,,,,,,,,,,,,,,,,,,,,,,,,,,,,,,,
,,,,,SPR24_049,21,Male,2024-04-16_09h22.25.227,jersey_experiment_5_v0,2023.2.2,Win32,85.47008547,,,,,,,,,,,,,,,,315.644,316.9377,316.9378,318.0909,return,0.159,,63.671875,,,,,,FBP-RB-81.png,0.43,1.2,39,0.5,0,10,10,38,1,,,,,,,,,,,,,,,,,,,,,,,,,,,,,,,,,,,,,,,,
,,,,,SPR24_049,21,Male,2024-04-16_09h22.25.227,jersey_experiment_5_v0,2023.2.2,Win32,85.47008547,,,,,,,,,,,,,,,,318.0912,319.1377,319.1378,320.9145,return,0.6966,,79.16666667,,,,,,FBP-PT-81.png,0.43,1.2,54,0.25,0,11,11,53,1,,,,,,,,,,,,,,,,,,,,,,,,,,,,,,,,,,,,,,,,
,,,,,SPR24_049,21,Male,2024-04-16_09h22.25.227,jersey_experiment_5_v0,2023.2.2,Win32,85.47008547,,,,,,,,,,,,,,,,320.9149,321.9614,321.9615,323.0555,return,0.2104,,76.5625,,,,,,FBP-YG-81.png,0.43,1.2,24,0.25,0,12,12,23,1,,,,,,,,,,,,,,,,,,,,,,,,,,,,,,,,,,,,,,,,
,,,,,SPR24_049,21,Male,2024-04-16_09h22.25.227,jersey_experiment_5_v0,2023.2.2,Win32,85.47008547,,,,,,,,,,,,,,,,323.0557,324.3497,324.3497,325.244,return,0.2049,,73.69791667,,,,,,FBP-OG-19.png,0.43,1.2,14,0.5,0,13,13,13,1,,,,,,,,,,,,,,,,,,,,,,,,,,,,,,,,,,,,,,,,
,,,,,SPR24_049,21,Male,2024-04-16_09h22.25.227,jersey_experiment_5_v0,2023.2.2,Win32,85.47008547,,,,,,,,,,,,,,,,325.2443,326.2909,326.291,327.0088,return,0.1086,,79.296875,,,,,,FBP-PT-91.png,0.43,1.2,59,0.25,0,14,14,58,1,,,,,,,,,,,,,,,,,,,,,,,,,,,,,,,,,,,,,,,,
,,,,,SPR24_049,21,Male,2024-04-16_09h22.25.227,jersey_experiment_5_v0,2023.2.2,Win32,85.47008547,,,,,,,,,,,,,,,,327.009,328.3027,328.3028,329.2441,return,0.1208,,10.80729167,,,,,,FBP-OG-19.png,0.37,1.2,12,0.5,0,15,15,11,1,,,,,,,,,,,,,,,,,,,,,,,,,,,,,,,,,,,,,,,,
,,,,,SPR24_049,21,Male,2024-04-16_09h22.25.227,jersey_experiment_5_v0,2023.2.2,Win32,85.47008547,,,,,,,,,,,,,,,,329.2444,330.5382,330.5382,331.55,return,0.1789,,12.890625,,,,,,FBP-OG-18.png,0.37,1.2,7,0.5,0,16,16,6,1,,,,,,,,,,,,,,,,,,,,,,,,,,,,,,,,,,,,,,,,
,,,,,SPR24_049,21,Male,2024-04-16_09h22.25.227,jersey_experiment_5_v0,2023.2.2,Win32,85.47008547,,,,,,,,,,,,,,,,331.5502,332.597,332.5971,335.0678,return,0.1458,,49.73958333,,,,,,FBP-YG-71.png,0.43,1.2,19,0.25,0,17,17,18,1,,,,,,,,,,,,,,,,,,,,,,,,,,,,,,,,,,,,,,,,
,,,,,SPR24_049,21,Male,2024-04-16_09h22.25.227,jersey_experiment_5_v0,2023.2.2,Win32,85.47008547,,,,,,,,,,,,,,,,335.0681,336.3619,336.362,337.2794,return,0.0585,,58.72395833,,,,,,FBP-OG-17.png,0.43,1.2,4,0.5,0,18,18,3,1,,,,,,,,,,,,,,,,,,,,,,,,,,,,,,,,,,,,,,,,
,,,,,SPR24_049,21,Male,2024-04-16_09h22.25.227,jersey_experiment_5_v0,2023.2.2,Win32,85.47008547,,,,,,,,,,,,,,,,337.2797,338.3266,338.3267,338.9736,return,0.0732,,60.9375,,,,,,FBP-PT-71.png,0.43,1.2,49,0.25,0,19,19,48,1,,,,,,,,,,,,,,,,,,,,,,,,,,,,,,,,,,,,,,,,
,,,,,SPR24_049,21,Male,2024-04-16_09h22.25.227,jersey_experiment_5_v0,2023.2.2,Win32,85.47008547,,,,,,,,,,,,,,,,338.9739,340.2679,340.268,340.9265,return,0.1429,,64.32291667,,,,,,FBP-OG-19.png,0.45,1.2,15,0.5,0,20,20,14,1,,,,,,,,,,,,,,,,,,,,,,,,,,,,,,,,,,,,,,,,
,,,,,SPR24_049,21,Male,2024-04-16_09h22.25.227,jersey_experiment_5_v0,2023.2.2,Win32,85.47008547,,,,,,,,,,,,,,,,340.9268,342.2209,342.221,343.3386,return,0.2295,,53.64583333,,,,,,FBP-RB-71.png,0.4,1.2,33,0.5,0,21,21,32,1,,,,,,,,,,,,,,,,,,,,,,,,,,,,,,,,,,,,,,,,
,,,,,SPR24_049,21,Male,2024-04-16_09h22.25.227,jersey_experiment_5_v0,2023.2.2,Win32,85.47008547,,,,,,,,,,,,,,,,343.3388,344.3856,344.3856,345.6799,return,0.1888,,74.86979167,,,,,,FBP-YG-91.png,0.45,1.2,30,0.25,0,22,22,29,1,,,,,,,,,,,,,,,,,,,,,,,,,,,,,,,,,,,,,,,,
,,,,,SPR24_049,21,Male,2024-04-16_09h22.25.227,jersey_experiment_5_v0,2023.2.2,Win32,85.47008547,,,,,,,,,,,,,,,,345.68,346.7271,346.7271,347.7391,return,0.2533,,79.81770833,,,,,,FBP-PT-91.png,0.45,1.2,60,0.25,0,23,23,59,1,,,,,,,,,,,,,,,,,,,,,,,,,,,,,,,,,,,,,,,,
,,,,,SPR24_049,21,Male,2024-04-16_09h22.25.227,jersey_experiment_5_v0,2023.2.2,Win32,85.47008547,,,,,,,,,,,,,,,,347.7393,349.0332,349.0333,350.186,return,0.2774,,72.52604167,,,,,,FBP-OG-18.png,0.43,1.2,9,0.5,0,24,24,8,1,,,,,,,,,,,,,,,,,,,,,,,,,,,,,,,,,,,,,,,,
,,,,,SPR24_049,21,Male,2024-04-16_09h22.25.227,jersey_experiment_5_v0,2023.2.2,Win32,85.47008547,,,,,,,,,,,,,,,,350.1862,351.2331,351.2331,352.3037,return,0.1416,,16.66666667,,,,,,FBP-PT-81.png,0.37,1.2,52,0.25,0,25,25,51,1,,,,,,,,,,,,,,,,,,,,,,,,,,,,,,,,,,,,,,,,
,,,,,SPR24_049,21,Male,2024-04-16_09h22.25.227,jersey_experiment_5_v0,2023.2.2,Win32,85.47008547,,,,,,,,,,,,,,,,352.304,353.598,353.598,354.9037,return,0.1971,,5.338541667,,,,,,FBP-OG-18.png,0.35,1.2,6,0.5,0,26,26,5,1,,,,,,,,,,,,,,,,,,,,,,,,,,,,,,,,,,,,,,,,
,,,,,SPR24_049,21,Male,2024-04-16_09h22.25.227,jersey_experiment_5_v0,2023.2.2,Win32,85.47008547,,,,,,,,,,,,,,,,354.904,356.1979,356.1979,357.2332,return,0.1884,,27.60416667,,,,,,FBP-RB-81.png,0.4,1.2,38,0.5,0,27,27,37,1,,,,,,,,,,,,,,,,,,,,,,,,,,,,,,,,,,,,,,,,
,,,,,SPR24_049,21,Male,2024-04-16_09h22.25.227,jersey_experiment_5_v0,2023.2.2,Win32,85.47008547,,,,,,,,,,,,,,,,357.2333,358.5274,358.5275,359.4686,return,0.1218,,61.58854167,,,,,,FBP-RB-81.png,0.45,1.2,40,0.5,0,28,28,39,1,,,,,,,,,,,,,,,,,,,,,,,,,,,,,,,,,,,,,,,,
,,,,,SPR24_049,21,Male,2024-04-16_09h22.25.227,jersey_experiment_5_v0,2023.2.2,Win32,85.47008547,,,,,,,,,,,,,,,,359.4689,360.7626,360.7626,362.163,return,0.7431,,36.06770833,,,,,,FBP-OG-19.png,0.35,1.2,11,0.5,0,29,29,10,1,,,,,,,,,,,,,,,,,,,,,,,,,,,,,,,,,,,,,,,,
,,,,,SPR24_049,21,Male,2024-04-16_09h22.25.227,jersey_experiment_5_v0,2023.2.2,Win32,85.47008547,,,,,,,,,,,,,,,,362.1633,363.2098,363.2099,364.41,return,0.1951,,66.53645833,,,,,,FBP-YG-91.png,0.43,1.2,29,0.25,0,30,30,28,1,,,,,,,,,,,,,,,,,,,,,,,,,,,,,,,,,,,,,,,,
,,,,,SPR24_049,21,Male,2024-04-16_09h22.25.227,jersey_experiment_5_v0,2023.2.2,Win32,85.47008547,,,,,,,,,,,,,,,,364.4101,365.4571,365.4572,367.0807,return,0.4284,,34.89583333,,,,,,FBP-YG-81.png,0.35,1.2,21,0.25,0,31,31,20,1,,,,,,,,,,,,,,,,,,,,,,,,,,,,,,,,,,,,,,,,
,,,,,SPR24_049,21,Male,2024-04-16_09h22.25.227,jersey_experiment_5_v0,2023.2.2,Win32,85.47008547,,,,,,,,,,,,,,,,367.0809,368.1277,368.1277,369.5045,return,0.3193,,24.86979167,,,,,,FBP-YG-91.png,0.37,1.2,27,0.25,0,32,32,26,1,,,,,,,,,,,,,,,,,,,,,,,,,,,,,,,,,,,,,,,,
,,,,,SPR24_049,21,Male,2024-04-16_09h22.25.227,jersey_experiment_5_v0,2023.2.2,Win32,85.47008547,,,,,,,,,,,,,,,,369.5047,370.5513,370.5513,371.5517,return,0.1562,,28.25520833,,,,,,FBP-YG-81.png,0.37,1.2,22,0.25,0,33,33,21,1,,,,,,,,,,,,,,,,,,,,,,,,,,,,,,,,,,,,,,,,
,,,,,SPR24_049,21,Male,2024-04-16_09h22.25.227,jersey_experiment_5_v0,2023.2.2,Win32,85.47008547,,,,,,,,,,,,,,,,371.5519,372.5986,372.5986,374.4103,return,0.8404,,42.44791667,,,,,,FBP-YG-91.png,0.4,1.2,28,0.25,0,34,34,27,1,,,,,,,,,,,,,,,,,,,,,,,,,,,,,,,,,,,,,,,,
,,,,,SPR24_049,21,Male,2024-04-16_09h22.25.227,jersey_experiment_5_v0,2023.2.2,Win32,85.47008547,,,,,,,,,,,,,,,,374.4105,375.7046,375.7047,376.6341,return,0.1833,,9.765625,,,,,,FBP-OG-17.png,0.35,1.2,1,0.5,0,35,35,0,1,,,,,,,,,,,,,,,,,,,,,,,,,,,,,,,,,,,,,,,,
,,,,,SPR24_049,21,Male,2024-04-16_09h22.25.227,jersey_experiment_5_v0,2023.2.2,Win32,85.47008547,,,,,,,,,,,,,,,,376.6343,377.9284,377.9285,379.0107,return,0.1872,,53.38541667,,,,,,FBP-RB-91.png,0.43,1.2,44,0.5,0,36,36,43,1,,,,,,,,,,,,,,,,,,,,,,,,,,,,,,,,,,,,,,,,
,,,,,SPR24_049,21,Male,2024-04-16_09h22.25.227,jersey_experiment_5_v0,2023.2.2,Win32,85.47008547,,,,,,,,,,,,,,,,379.011,380.0573,380.0574,381.4694,return,0.2246,,72.00520833,,,,,,FBP-YG-81.png,0.45,1.2,25,0.25,0,37,37,24,1,,,,,,,,,,,,,,,,,,,,,,,,,,,,,,,,,,,,,,,,
,,,,,SPR24_049,21,Male,2024-04-16_09h22.25.227,jersey_experiment_5_v0,2023.2.2,Win32,85.47008547,,,,,,,,,,,,,,,,381.4696,382.7636,382.7636,383.4694,return,0.1775,,74.21875,,,,,,FBP-OG-18.png,0.45,1.2,10,0.5,0,38,38,9,1,,,,,,,,,,,,,,,,,,,,,,,,,,,,,,,,,,,,,,,,
,,,,,SPR24_049,21,Male,2024-04-16_09h22.25.227,jersey_experiment_5_v0,2023.2.2,Win32,85.47008547,,,,,,,,,,,,,,,,383.4697,384.5164,384.5165,385.6577,return,0.0644,,32.94270833,,,,,,FBP-PT-91.png,0.4,1.2,58,0.25,0,39,39,57,1,,,,,,,,,,,,,,,,,,,,,,,,,,,,,,,,,,,,,,,,
,,,,,SPR24_049,21,Male,2024-04-16_09h22.25.227,jersey_experiment_5_v0,2023.2.2,Win32,85.47008547,,,,,,,,,,,,,,,,385.6579,386.7047,386.7048,387.7755,return,0.0586,,10.546875,,,,,,FBP-PT-91.png,0.37,1.2,57,0.25,0,40,40,56,1,,,,,,,,,,,,,,,,,,,,,,,,,,,,,,,,,,,,,,,,
,,,,,SPR24_049,21,Male,2024-04-16_09h22.25.227,jersey_experiment_5_v0,2023.2.2,Win32,85.47008547,,,,,,,,,,,,,,,,387.7757,389.0698,389.0698,390.0345,return,0.0482,,72.65625,,,,,,FBP-OG-17.png,0.45,1.2,5,0.5,0,41,41,4,1,,,,,,,,,,,,,,,,,,,,,,,,,,,,,,,,,,,,,,,,
,,,,,SPR24_049,21,Male,2024-04-16_09h22.25.227,jersey_experiment_5_v0,2023.2.2,Win32,85.47008547,,,,,,,,,,,,,,,,390.0348,391.0816,391.0817,392.3755,return,0.4439,,14.0625,,,,,,FBP-PT-91.png,0.35,1.2,56,0.25,0,42,42,55,1,,,,,,,,,,,,,,,,,,,,,,,,,,,,,,,,,,,,,,,,
,,,,,SPR24_049,21,Male,2024-04-16_09h22.25.227,jersey_experiment_5_v0,2023.2.2,Win32,85.47008547,,,,,,,,,,,,,,,,392.3758,393.67,393.67,394.364,return,0.1222,,17.96875,,,,,,FBP-RB-81.png,0.37,1.2,37,0.5,0,43,43,36,1,,,,,,,,,,,,,,,,,,,,,,,,,,,,,,,,,,,,,,,,
,,,,,SPR24_049,21,Male,2024-04-16_09h22.25.227,jersey_experiment_5_v0,2023.2.2,Win32,85.47008547,,,,,,,,,,,,,,,,394.3642,395.6581,395.6582,396.4935,return,0.3543,,16.53645833,,,,,,FBP-RB-71.png,0.37,1.2,32,0.5,0,44,44,31,1,,,,,,,,,,,,,,,,,,,,,,,,,,,,,,,,,,,,,,,,
,,,,,SPR24_049,21,Male,2024-04-16_09h22.25.227,jersey_experiment_5_v0,2023.2.2,Win32,85.47008547,,,,,,,,,,,,,,,,396.4936,397.788,397.788,398.7525,return,0.1426,,76.171875,,,,,,FBP-RB-71.png,0.45,1.2,35,0.5,0,45,45,34,1,,,,,,,,,,,,,,,,,,,,,,,,,,,,,,,,,,,,,,,,
,,,,,SPR24_049,21,Male,2024-04-16_09h22.25.227,jersey_experiment_5_v0,2023.2.2,Win32,85.47008547,,,,,,,,,,,,,,,,398.7526,399.7995,399.7996,402.0114,return,0.8286,,64.97395833,,,,,,FBP-PT-81.png,0.4,1.2,53,0.25,0,46,46,52,1,,,,,,,,,,,,,,,,,,,,,,,,,,,,,,,,,,,,,,,,
,,,,,SPR24_049,21,Male,2024-04-16_09h22.25.227,jersey_experiment_5_v0,2023.2.2,Win32,85.47008547,,,,,,,,,,,,,,,,402.0116,403.0583,403.0584,404.2585,return,0.1413,,39.19270833,,,,,,FBP-PT-81.png,0.35,1.2,51,0.25,0,47,47,50,1,,,,,,,,,,,,,,,,,,,,,,,,,,,,,,,,,,,,,,,,
,,,,,SPR24_049,21,Male,2024-04-16_09h22.25.227,jersey_experiment_5_v0,2023.2.2,Win32,85.47008547,,,,,,,,,,,,,,,,404.2588,405.3055,405.3056,406.5292,return,0.1051,,76.04166667,,,,,,FBP-PT-71.png,0.45,1.2,50,0.25,0,48,48,49,1,,,,,,,,,,,,,,,,,,,,,,,,,,,,,,,,,,,,,,,,
,,,,,SPR24_049,21,Male,2024-04-16_09h22.25.227,jersey_experiment_5_v0,2023.2.2,Win32,85.47008547,,,,,,,,,,,,,,,,406.5293,407.5765,407.5765,409.388,return,0.1914,,61.19791667,,,,,,FBP-YG-71.png,0.37,1.2,17,0.25,0,49,49,16,1,,,,,,,,,,,,,,,,,,,,,,,,,,,,,,,,,,,,,,,,
,,,,,SPR24_049,21,Male,2024-04-16_09h22.25.227,jersey_experiment_5_v0,2023.2.2,Win32,85.47008547,,,,,,,,,,,,,,,,409.3883,410.435,410.435,411.5177,return,0.1531,,30.20833333,,,,,,FBP-PT-71.png,0.37,1.2,47,0.25,0,50,50,46,1,,,,,,,,,,,,,,,,,,,,,,,,,,,,,,,,,,,,,,,,
,,,,,SPR24_049,21,Male,2024-04-16_09h22.25.227,jersey_experiment_5_v0,2023.2.2,Win32,85.47008547,,,,,,,,,,,,,,,,411.5179,412.8118,412.8118,413.6825,return,0.2463,,15.36458333,,,,,,FBP-RB-91.png,0.35,1.2,41,0.5,0,51,51,40,1,,,,,,,,,,,,,,,,,,,,,,,,,,,,,,,,,,,,,,,,
,,,,,SPR24_049,21,Male,2024-04-16_09h22.25.227,jersey_experiment_5_v0,2023.2.2,Win32,85.47008547,,,,,,,,,,,,,,,,413.6828,414.9766,414.9766,415.6824,return,0.1037,,11.71875,,,,,,FBP-RB-81.png,0.35,1.2,36,0.5,0,52,52,35,1,,,,,,,,,,,,,,,,,,,,,,,,,,,,,,,,,,,,,,,,
,,,,,SPR24_049,21,Male,2024-04-16_09h22.25.227,jersey_experiment_5_v0,2023.2.2,Win32,85.47008547,,,,,,,,,,,,,,,,415.6826,416.7296,416.7297,417.9061,return,0.0956,,30.859375,,,,,,FBP-PT-71.png,0.4,1.2,48,0.25,0,53,53,47,1,,,,,,,,,,,,,,,,,,,,,,,,,,,,,,,,,,,,,,,,
,,,,,SPR24_049,21,Male,2024-04-16_09h22.25.227,jersey_experiment_5_v0,2023.2.2,Win32,85.47008547,,,,,,,,,,,,,,,,417.9063,418.953,418.9531,419.8827,return,0.3471,,31.640625,,,,,,FBP-YG-71.png,0.35,1.2,16,0.25,0,54,54,15,1,,,,,,,,,,,,,,,,,,,,,,,,,,,,,,,,,,,,,,,,
,,,,,SPR24_049,21,Male,2024-04-16_09h22.25.227,jersey_experiment_5_v0,2023.2.2,Win32,85.47008547,,,,,,,,,,,,,,,,419.8828,421.1768,421.1768,422.2591,return,0.1299,,48.30729167,,,,,,FBP-OG-18.png,0.4,1.2,8,0.5,0,55,55,7,1,,,,,,,,,,,,,,,,,,,,,,,,,,,,,,,,,,,,,,,,
,,,,,SPR24_049,21,Male,2024-04-16_09h22.25.227,jersey_experiment_5_v0,2023.2.2,Win32,85.47008547,,,,,,,,,,,,,,,,422.2593,423.3061,423.3061,424.2593,return,0.0704,,75.13020833,,,,,,FBP-PT-81.png,0.45,1.2,55,0.25,0,56,56,54,1,,,,,,,,,,,,,,,,,,,,,,,,,,,,,,,,,,,,,,,,
,,,,,SPR24_049,21,Male,2024-04-16_09h22.25.227,jersey_experiment_5_v0,2023.2.2,Win32,85.47008547,,,,,,,,,,,,,,,,424.2595,425.5538,425.5538,426.3652,return,0.1311,,48.69791667,,,,,,FBP-OG-17.png,0.37,1.2,2,0.5,0,57,57,1,1,,,,,,,,,,,,,,,,,,,,,,,,,,,,,,,,,,,,,,,,
,,,,,SPR24_049,21,Male,2024-04-16_09h22.25.227,jersey_experiment_5_v0,2023.2.2,Win32,85.47008547,,,,,,,,,,,,,,,,426.3654,427.6594,427.6594,428.4592,return,0.0378,,53.125,,,,,,FBP-OG-19.png,0.4,1.2,13,0.5,0,58,58,12,1,,,,,,,,,,,,,,,,,,,,,,,,,,,,,,,,,,,,,,,,
,,,,,SPR24_049,21,Male,2024-04-16_09h22.25.227,jersey_experiment_5_v0,2023.2.2,Win32,85.47008547,,,,,,,,,,,,,,,,428.4594,429.5065,429.5065,430.2358,return,0.0721,,47.65625,,,,,,FBP-PT-71.png,0.35,1.2,46,0.25,0,59,59,45,1,,,,,,,,,,,,,,,,,,,,,,,,,,,,,,,,,,,,,,,,
,,,,,SPR24_049,21,Male,2024-04-16_09h22.25.227,jersey_experiment_5_v0,2023.2.2,Win32,85.47008547,,,,,,,,,,,,,,,,,,,,,,,,,,,,,,,,,,,,,,,430.2361,550.2289,,,,,,,,,,,,,,,,,,,,,,,,,,,,,,,,,,,,,,
,,,,,SPR24_049,21,Male,2024-04-16_09h22.25.227,jersey_experiment_5_v0,2023.2.2,Win32,85.47008547,,,,,,,,,,,,,,,,,,,,,,,,,,,,,,,,,,,,,,,,,550.229,552.6171,return,2.3816,,,,,,,,,,,,,,,,,,,,,,,,,,,,,,,,,,
,,,,,SPR24_049,21,Male,2024-04-16_09h22.25.227,jersey_experiment_5_v0,2023.2.2,Win32,85.47008547,,,,,,,,,,,,,,,,552.6237,553.6757,553.6759,556.8289,return,0.3792,,50.78125,,,,,,FBP-RB-17.png,0.43,1.2,34,0.25,,,,,,,,,,,,,0,0,0,33,1,,,,,,,,,,,,,,,,,,,,,,,,,,,,
,,,,,SPR24_049,21,Male,2024-04-16_09h22.25.227,jersey_experiment_5_v0,2023.2.2,Win32,85.47008547,,,,,,,,,,,,,,,,556.8293,558.123,558.123,558.6053,return,0.0737,,48.95833333,,,,,,FBP-PT-17.png,0.4,1.2,48,0.5,,,,,,,,,,,,,0,1,1,47,1,,,,,,,,,,,,,,,,,,,,,,,,,,,,
,,,,,SPR24_049,21,Male,2024-04-16_09h22.25.227,jersey_experiment_5_v0,2023.2.2,Win32,85.47008547,,,,,,,,,,,,,,,,558.6055,559.6524,559.6525,561.0053,return,0.7656,,61.328125,,,,,,FBP-OG-91.png,0.45,1.2,15,0.25,,,,,,,,,,,,,0,2,2,14,1,,,,,,,,,,,,,,,,,,,,,,,,,,,,
,,,,,SPR24_049,21,Male,2024-04-16_09h22.25.227,jersey_experiment_5_v0,2023.2.2,Win32,85.47008547,,,,,,,,,,,,,,,,561.0055,562.0525,562.0526,562.8408,return,0.0888,,65.10416667,,,,,,FBP-RB-19.png,0.45,1.2,45,0.25,,,,,,,,,,,,,0,3,3,44,1,,,,,,,,,,,,,,,,,,,,,,,,,,,,
,,,,,SPR24_049,21,Male,2024-04-16_09h22.25.227,jersey_experiment_5_v0,2023.2.2,Win32,85.47008547,,,,,,,,,,,,,,,,562.841,563.8877,563.8878,564.5938,return,0.0714,,50,,,,,,FBP-RB-19.png,0.37,1.2,42,0.25,,,,,,,,,,,,,0,4,4,41,1,,,,,,,,,,,,,,,,,,,,,,,,,,,,
,,,,,SPR24_049,21,Male,2024-04-16_09h22.25.227,jersey_experiment_5_v0,2023.2.2,Win32,85.47008547,,,,,,,,,,,,,,,,564.5941,565.888,565.8881,567.1823,return,0.1079,,57.16145833,,,,,,FBP-PT-18.png,0.4,1.2,53,0.5,,,,,,,,,,,,,0,5,5,52,1,,,,,,,,,,,,,,,,,,,,,,,,,,,,
,,,,,SPR24_049,21,Male,2024-04-16_09h22.25.227,jersey_experiment_5_v0,2023.2.2,Win32,85.47008547,,,,,,,,,,,,,,,,567.1824,568.2292,568.2293,569.4057,return,0.2144,,36.328125,,,,,,FBP-OG-71.png,0.35,1.2,1,0.25,,,,,,,,,,,,,0,6,6,0,1,,,,,,,,,,,,,,,,,,,,,,,,,,,,
,,,,,SPR24_049,21,Male,2024-04-16_09h22.25.227,jersey_experiment_5_v0,2023.2.2,Win32,85.47008547,,,,,,,,,,,,,,,,569.406,570.4528,570.4528,571.7118,return,0.1994,,50.78125,,,,,,FBP-RB-17.png,0.4,1.2,33,0.25,,,,,,,,,,,,,0,7,7,32,1,,,,,,,,,,,,,,,,,,,,,,,,,,,,
,,,,,SPR24_049,21,Male,2024-04-16_09h22.25.227,jersey_experiment_5_v0,2023.2.2,Win32,85.47008547,,,,,,,,,,,,,,,,571.7121,573.0058,573.0058,574.8294,return,1.1544,,47.52604167,,,,,,FBP-PT-19.png,0.37,1.2,57,0.5,,,,,,,,,,,,,0,8,8,56,1,,,,,,,,,,,,,,,,,,,,,,,,,,,,
,,,,,SPR24_049,21,Male,2024-04-16_09h22.25.227,jersey_experiment_5_v0,2023.2.2,Win32,85.47008547,,,,,,,,,,,,,,,,574.8297,575.8764,575.8765,576.7471,return,0.1702,,44.79166667,,,,,,FBP-OG-91.png,0.35,1.2,11,0.25,,,,,,,,,,,,,0,9,9,10,1,,,,,,,,,,,,,,,,,,,,,,,,,,,,
,,,,,SPR24_049,21,Male,2024-04-16_09h22.25.227,jersey_experiment_5_v0,2023.2.2,Win32,85.47008547,,,,,,,,,,,,,,,,576.7474,578.0415,578.0416,578.924,return,0.1816,,72.65625,,,,,,FBP-PT-18.png,0.45,1.2,55,0.5,,,,,,,,,,,,,0,10,10,54,1,,,,,,,,,,,,,,,,,,,,,,,,,,,,
,,,,,SPR24_049,21,Male,2024-04-16_09h22.25.227,jersey_experiment_5_v0,2023.2.2,Win32,85.47008547,,,,,,,,,,,,,,,,578.9243,579.9707,579.9708,580.712,return,0.1148,,75.390625,,,,,,FBP-RB-18.png,0.45,1.2,40,0.25,,,,,,,,,,,,,0,11,11,39,1,,,,,,,,,,,,,,,,,,,,,,,,,,,,
,,,,,SPR24_049,21,Male,2024-04-16_09h22.25.227,jersey_experiment_5_v0,2023.2.2,Win32,85.47008547,,,,,,,,,,,,,,,,580.7123,582.0062,582.0062,582.6062,return,0.0831,,75.26041667,,,,,,FBP-YG-19.png,0.43,1.2,29,0.5,,,,,,,,,,,,,0,12,12,28,1,,,,,,,,,,,,,,,,,,,,,,,,,,,,
,,,,,SPR24_049,21,Male,2024-04-16_09h22.25.227,jersey_experiment_5_v0,2023.2.2,Win32,85.47008547,,,,,,,,,,,,,,,,582.6064,583.9003,583.9003,585.6887,return,0.0886,,46.484375,,,,,,FBP-YG-17.png,0.35,1.2,16,0.5,,,,,,,,,,,,,0,13,13,15,1,,,,,,,,,,,,,,,,,,,,,,,,,,,,
,,,,,SPR24_049,21,Male,2024-04-16_09h22.25.227,jersey_experiment_5_v0,2023.2.2,Win32,85.47008547,,,,,,,,,,,,,,,,585.6889,586.7358,586.7358,587.6651,return,0.2122,,51.953125,,,,,,FBP-RB-18.png,0.4,1.2,38,0.25,,,,,,,,,,,,,0,14,14,37,1,,,,,,,,,,,,,,,,,,,,,,,,,,,,
,,,,,SPR24_049,21,Male,2024-04-16_09h22.25.227,jersey_experiment_5_v0,2023.2.2,Win32,85.47008547,,,,,,,,,,,,,,,,587.6654,588.7123,588.7123,589.724,return,0.1811,,55.72916667,,,,,,FBP-OG-71.png,0.4,1.2,3,0.25,,,,,,,,,,,,,0,15,15,2,1,,,,,,,,,,,,,,,,,,,,,,,,,,,,
,,,,,SPR24_049,21,Male,2024-04-16_09h22.25.227,jersey_experiment_5_v0,2023.2.2,Win32,85.47008547,,,,,,,,,,,,,,,,589.7242,591.0183,591.0184,592.7477,return,0.052,,50,,,,,,FBP-YG-17.png,0.4,1.2,18,0.5,,,,,,,,,,,,,0,16,16,17,1,,,,,,,,,,,,,,,,,,,,,,,,,,,,
,,,,,SPR24_049,21,Male,2024-04-16_09h22.25.227,jersey_experiment_5_v0,2023.2.2,Win32,85.47008547,,,,,,,,,,,,,,,,592.7479,593.7948,593.7948,595.2775,return,0.6502,,63.93229167,,,,,,FBP-RB-18.png,0.43,1.2,39,0.25,,,,,,,,,,,,,0,17,17,38,1,,,,,,,,,,,,,,,,,,,,,,,,,,,,
,,,,,SPR24_049,21,Male,2024-04-16_09h22.25.227,jersey_experiment_5_v0,2023.2.2,Win32,85.47008547,,,,,,,,,,,,,,,,595.2777,596.5714,596.5715,597.3951,return,0.0706,,75.91145833,,,,,,FBP-YG-17.png,0.45,1.2,20,0.5,,,,,,,,,,,,,0,18,18,19,1,,,,,,,,,,,,,,,,,,,,,,,,,,,,
,,,,,SPR24_049,21,Male,2024-04-16_09h22.25.227,jersey_experiment_5_v0,2023.2.2,Win32,85.47008547,,,,,,,,,,,,,,,,597.3954,598.6894,598.6894,599.4895,return,0.1182,,25.390625,,,,,,FBP-PT-18.png,0.35,1.2,51,0.5,,,,,,,,,,,,,0,19,19,50,1,,,,,,,,,,,,,,,,,,,,,,,,,,,,
,,,,,SPR24_049,21,Male,2024-04-16_09h22.25.227,jersey_experiment_5_v0,2023.2.2,Win32,85.47008547,,,,,,,,,,,,,,,,599.4896,600.7834,600.7835,601.5009,return,0.0742,,22.39583333,,,,,,FBP-YG-17.png,0.37,1.2,17,0.5,,,,,,,,,,,,,0,20,20,16,1,,,,,,,,,,,,,,,,,,,,,,,,,,,,
,,,,,SPR24_049,21,Male,2024-04-16_09h22.25.227,jersey_experiment_5_v0,2023.2.2,Win32,85.47008547,,,,,,,,,,,,,,,,601.5011,602.7952,602.7952,603.6422,return,0.2048,,21.875,,,,,,FBP-YG-19.png,0.37,1.2,27,0.5,,,,,,,,,,,,,0,21,21,26,1,,,,,,,,,,,,,,,,,,,,,,,,,,,,
,,,,,SPR24_049,21,Male,2024-04-16_09h22.25.227,jersey_experiment_5_v0,2023.2.2,Win32,85.47008547,,,,,,,,,,,,,,,,603.6424,604.6895,604.6896,606.0187,return,0.0107,,11.45833333,,,,,,FBP-RB-19.png,0.35,1.2,41,0.25,,,,,,,,,,,,,0,22,22,40,1,,,,,,,,,,,,,,,,,,,,,,,,,,,,
,,,,,SPR24_049,21,Male,2024-04-16_09h22.25.227,jersey_experiment_5_v0,2023.2.2,Win32,85.47008547,,,,,,,,,,,,,,,,606.019,607.0661,607.0661,608.6189,return,0.1684,,28.25520833,,,,,,FBP-OG-81.png,0.37,1.2,7,0.25,,,,,,,,,,,,,0,23,23,6,1,,,,,,,,,,,,,,,,,,,,,,,,,,,,
,,,,,SPR24_049,21,Male,2024-04-16_09h22.25.227,jersey_experiment_5_v0,2023.2.2,Win32,85.47008547,,,,,,,,,,,,,,,,608.6191,609.9131,609.9131,610.7485,return,0.0274,,75.78125,,,,,,FBP-PT-19.png,0.45,1.2,60,0.5,,,,,,,,,,,,,0,24,24,59,1,,,,,,,,,,,,,,,,,,,,,,,,,,,,
,,,,,SPR24_049,21,Male,2024-04-16_09h22.25.227,jersey_experiment_5_v0,2023.2.2,Win32,85.47008547,,,,,,,,,,,,,,,,610.7487,612.0429,612.0429,613.3606,return,0.0473,,7.8125,,,,,,FBP-YG-18.png,0.35,1.2,21,0.5,,,,,,,,,,,,,0,25,25,20,1,,,,,,,,,,,,,,,,,,,,,,,,,,,,
,,,,,SPR24_049,21,Male,2024-04-16_09h22.25.227,jersey_experiment_5_v0,2023.2.2,Win32,85.47008547,,,,,,,,,,,,,,,,613.3609,614.6543,614.6544,615.49,return,0.1549,,49.08854167,,,,,,FBP-PT-17.png,0.43,1.2,49,0.5,,,,,,,,,,,,,0,26,26,48,1,,,,,,,,,,,,,,,,,,,,,,,,,,,,
,,,,,SPR24_049,21,Male,2024-04-16_09h22.25.227,jersey_experiment_5_v0,2023.2.2,Win32,85.47008547,,,,,,,,,,,,,,,,615.4902,616.7841,616.7841,617.8193,return,0.0968,,54.296875,,,,,,FBP-YG-18.png,0.43,1.2,24,0.5,,,,,,,,,,,,,0,27,27,23,1,,,,,,,,,,,,,,,,,,,,,,,,,,,,
,,,,,SPR24_049,21,Male,2024-04-16_09h22.25.227,jersey_experiment_5_v0,2023.2.2,Win32,85.47008547,,,,,,,,,,,,,,,,617.8196,619.1134,619.1134,620.0312,return,0.0603,,44.921875,,,,,,FBP-YG-19.png,0.4,1.2,28,0.5,,,,,,,,,,,,,0,28,28,27,1,,,,,,,,,,,,,,,,,,,,,,,,,,,,
,,,,,SPR24_049,21,Male,2024-04-16_09h22.25.227,jersey_experiment_5_v0,2023.2.2,Win32,85.47008547,,,,,,,,,,,,,,,,620.0314,621.3254,621.3254,622.1606,return,0.0709,,64.58333333,,,,,,FBP-PT-18.png,0.43,1.2,54,0.5,,,,,,,,,,,,,0,29,29,53,1,,,,,,,,,,,,,,,,,,,,,,,,,,,,
,,,,,SPR24_049,21,Male,2024-04-16_09h22.25.227,jersey_experiment_5_v0,2023.2.2,Win32,85.47008547,,,,,,,,,,,,,,,,622.1609,623.2079,623.2079,624.1843,return,0.0661,,67.05729167,,,,,,FBP-RB-19.png,0.43,1.2,44,0.25,,,,,,,,,,,,,0,30,30,43,1,,,,,,,,,,,,,,,,,,,,,,,,,,,,
,,,,,SPR24_049,21,Male,2024-04-16_09h22.25.227,jersey_experiment_5_v0,2023.2.2,Win32,85.47008547,,,,,,,,,,,,,,,,624.1845,625.4785,625.4785,626.4316,return,0.1081,,23.17708333,,,,,,FBP-YG-19.png,0.35,1.2,26,0.5,,,,,,,,,,,,,0,31,31,25,1,,,,,,,,,,,,,,,,,,,,,,,,,,,,
,,,,,SPR24_049,21,Male,2024-04-16_09h22.25.227,jersey_experiment_5_v0,2023.2.2,Win32,85.47008547,,,,,,,,,,,,,,,,626.4319,627.7255,627.7255,628.4785,return,0.0009,,74.86979167,,,,,,FBP-YG-19.png,0.45,1.2,30,0.5,,,,,,,,,,,,,0,32,32,29,1,,,,,,,,,,,,,,,,,,,,,,,,,,,,
,,,,,SPR24_049,21,Male,2024-04-16_09h22.25.227,jersey_experiment_5_v0,2023.2.2,Win32,85.47008547,,,,,,,,,,,,,,,,628.4786,629.5255,629.5255,631.0082,return,0.0572,,62.76041667,,,,,,FBP-OG-91.png,0.4,1.2,13,0.25,,,,,,,,,,,,,0,33,33,12,1,,,,,,,,,,,,,,,,,,,,,,,,,,,,
,,,,,SPR24_049,21,Male,2024-04-16_09h22.25.227,jersey_experiment_5_v0,2023.2.2,Win32,85.47008547,,,,,,,,,,,,,,,,631.0083,632.3022,632.3022,633.0671,return,0.0732,,27.21354167,,,,,,FBP-PT-18.png,0.37,1.2,52,0.5,,,,,,,,,,,,,0,34,34,51,1,,,,,,,,,,,,,,,,,,,,,,,,,,,,
,,,,,SPR24_049,21,Male,2024-04-16_09h22.25.227,jersey_experiment_5_v0,2023.2.2,Win32,85.47008547,,,,,,,,,,,,,,,,633.0673,634.114,634.1141,636.2552,return,0.6837,,50.78125,,,,,,FBP-RB-19.png,0.4,1.2,43,0.25,,,,,,,,,,,,,0,35,35,42,1,,,,,,,,,,,,,,,,,,,,,,,,,,,,
,,,,,SPR24_049,21,Male,2024-04-16_09h22.25.227,jersey_experiment_5_v0,2023.2.2,Win32,85.47008547,,,,,,,,,,,,,,,,636.2553,637.3025,637.3025,638.479,return,0.18,,65.10416667,,,,,,FBP-OG-81.png,0.43,1.2,9,0.25,,,,,,,,,,,,,0,36,36,8,1,,,,,,,,,,,,,,,,,,,,,,,,,,,,
,,,,,SPR24_049,21,Male,2024-04-16_09h22.25.227,jersey_experiment_5_v0,2023.2.2,Win32,85.47008547,,,,,,,,,,,,,,,,638.4793,639.5261,639.5261,641.2909,return,0.2173,,50.26041667,,,,,,FBP-RB-18.png,0.37,1.2,37,0.25,,,,,,,,,,,,,0,37,37,36,1,,,,,,,,,,,,,,,,,,,,,,,,,,,,
,,,,,SPR24_049,21,Male,2024-04-16_09h22.25.227,jersey_experiment_5_v0,2023.2.2,Win32,85.47008547,,,,,,,,,,,,,,,,641.2911,642.585,642.585,643.6674,return,0.3769,,36.328125,,,,,,FBP-PT-17.png,0.37,1.2,47,0.5,,,,,,,,,,,,,0,38,38,46,1,,,,,,,,,,,,,,,,,,,,,,,,,,,,
,,,,,SPR24_049,21,Male,2024-04-16_09h22.25.227,jersey_experiment_5_v0,2023.2.2,Win32,85.47008547,,,,,,,,,,,,,,,,643.6677,644.9617,644.9617,645.7261,return,0.1169,,62.5,,,,,,FBP-YG-18.png,0.45,1.2,25,0.5,,,,,,,,,,,,,0,39,39,24,1,,,,,,,,,,,,,,,,,,,,,,,,,,,,
,,,,,SPR24_049,21,Male,2024-04-16_09h22.25.227,jersey_experiment_5_v0,2023.2.2,Win32,85.47008547,,,,,,,,,,,,,,,,645.7263,647.0206,647.0206,647.6439,return,0.0516,,67.578125,,,,,,FBP-PT-19.png,0.43,1.2,59,0.5,,,,,,,,,,,,,0,40,40,58,1,,,,,,,,,,,,,,,,,,,,,,,,,,,,
,,,,,SPR24_049,21,Male,2024-04-16_09h22.25.227,jersey_experiment_5_v0,2023.2.2,Win32,85.47008547,,,,,,,,,,,,,,,,647.6441,648.6912,648.6913,649.503,return,0.1767,,38.28125,,,,,,FBP-OG-91.png,0.37,1.2,12,0.25,,,,,,,,,,,,,0,41,41,11,1,,,,,,,,,,,,,,,,,,,,,,,,,,,,
,,,,,SPR24_049,21,Male,2024-04-16_09h22.25.227,jersey_experiment_5_v0,2023.2.2,Win32,85.47008547,,,,,,,,,,,,,,,,649.5034,650.5499,650.55,651.4087,return,0.1753,,66.66666667,,,,,,FBP-OG-91.png,0.43,1.2,14,0.25,,,,,,,,,,,,,0,42,42,13,1,,,,,,,,,,,,,,,,,,,,,,,,,,,,
,,,,,SPR24_049,21,Male,2024-04-16_09h22.25.227,jersey_experiment_5_v0,2023.2.2,Win32,85.47008547,,,,,,,,,,,,,,,,651.4088,652.456,652.456,653.3384,return,0.0999,,12.63020833,,,,,,FBP-RB-17.png,0.35,1.2,31,0.25,,,,,,,,,,,,,0,43,43,30,1,,,,,,,,,,,,,,,,,,,,,,,,,,,,
,,,,,SPR24_049,21,Male,2024-04-16_09h22.25.227,jersey_experiment_5_v0,2023.2.2,Win32,85.47008547,,,,,,,,,,,,,,,,653.3386,654.6325,654.6325,655.5974,return,0.0736,,76.04166667,,,,,,FBP-PT-17.png,0.45,1.2,50,0.5,,,,,,,,,,,,,0,44,44,49,1,,,,,,,,,,,,,,,,,,,,,,,,,,,,
,,,,,SPR24_049,21,Male,2024-04-16_09h22.25.227,jersey_experiment_5_v0,2023.2.2,Win32,85.47008547,,,,,,,,,,,,,,,,655.5976,656.6442,656.6442,657.6328,return,0.1077,,23.4375,,,,,,FBP-OG-71.png,0.37,1.2,2,0.25,,,,,,,,,,,,,0,45,45,1,1,,,,,,,,,,,,,,,,,,,,,,,,,,,,
,,,,,SPR24_049,21,Male,2024-04-16_09h22.25.227,jersey_experiment_5_v0,2023.2.2,Win32,85.47008547,,,,,,,,,,,,,,,,657.633,658.6795,658.6796,660.0562,return,0.1379,,26.5625,,,,,,FBP-OG-81.png,0.4,1.2,8,0.25,,,,,,,,,,,,,0,46,46,7,1,,,,,,,,,,,,,,,,,,,,,,,,,,,,
,,,,,SPR24_049,21,Male,2024-04-16_09h22.25.227,jersey_experiment_5_v0,2023.2.2,Win32,85.47008547,,,,,,,,,,,,,,,,660.0565,661.3504,661.3505,662.2796,return,0.1372,,44.53125,,,,,,FBP-YG-18.png,0.37,1.2,22,0.5,,,,,,,,,,,,,0,47,47,21,1,,,,,,,,,,,,,,,,,,,,,,,,,,,,
,,,,,SPR24_049,21,Male,2024-04-16_09h22.25.227,jersey_experiment_5_v0,2023.2.2,Win32,85.47008547,,,,,,,,,,,,,,,,662.2798,663.574,663.574,664.4916,return,0.015,,18.09895833,,,,,,FBP-PT-19.png,0.35,1.2,56,0.5,,,,,,,,,,,,,0,48,48,55,1,,,,,,,,,,,,,,,,,,,,,,,,,,,,
,,,,,SPR24_049,21,Male,2024-04-16_09h22.25.227,jersey_experiment_5_v0,2023.2.2,Win32,85.47008547,,,,,,,,,,,,,,,,664.4918,665.5389,665.5389,666.5273,return,0.0853,,73.56770833,,,,,,FBP-OG-71.png,0.45,1.2,5,0.25,,,,,,,,,,,,,0,49,49,4,1,,,,,,,,,,,,,,,,,,,,,,,,,,,,
,,,,,SPR24_049,21,Male,2024-04-16_09h22.25.227,jersey_experiment_5_v0,2023.2.2,Win32,85.47008547,,,,,,,,,,,,,,,,666.5275,667.8213,667.8214,668.7861,return,0.0003,,63.02083333,,,,,,FBP-YG-17.png,0.43,1.2,19,0.5,,,,,,,,,,,,,0,50,50,18,1,,,,,,,,,,,,,,,,,,,,,,,,,,,,
,,,,,SPR24_049,21,Male,2024-04-16_09h22.25.227,jersey_experiment_5_v0,2023.2.2,Win32,85.47008547,,,,,,,,,,,,,,,,668.7863,670.0802,670.0802,671.0095,return,0.1886,,44.40104167,,,,,,FBP-PT-17.png,0.35,1.2,46,0.5,,,,,,,,,,,,,0,51,51,45,1,,,,,,,,,,,,,,,,,,,,,,,,,,,,
,,,,,SPR24_049,21,Male,2024-04-16_09h22.25.227,jersey_experiment_5_v0,2023.2.2,Win32,85.47008547,,,,,,,,,,,,,,,,671.0098,672.0565,672.0565,672.8919,return,0.0989,,68.61979167,,,,,,FBP-OG-71.png,0.43,1.2,4,0.25,,,,,,,,,,,,,0,52,52,3,1,,,,,,,,,,,,,,,,,,,,,,,,,,,,
,,,,,SPR24_049,21,Male,2024-04-16_09h22.25.227,jersey_experiment_5_v0,2023.2.2,Win32,85.47008547,,,,,,,,,,,,,,,,672.8922,674.1861,674.1861,675.0801,return,0.22,,61.97916667,,,,,,FBP-PT-19.png,0.4,1.2,58,0.5,,,,,,,,,,,,,0,53,53,57,1,,,,,,,,,,,,,,,,,,,,,,,,,,,,
,,,,,SPR24_049,21,Male,2024-04-16_09h22.25.227,jersey_experiment_5_v0,2023.2.2,Win32,85.47008547,,,,,,,,,,,,,,,,675.0803,676.1271,676.1272,677.0805,return,0.1129,,81.640625,,,,,,FBP-RB-17.png,0.45,1.2,35,0.25,,,,,,,,,,,,,0,54,54,34,1,,,,,,,,,,,,,,,,,,,,,,,,,,,,
,,,,,SPR24_049,21,Male,2024-04-16_09h22.25.227,jersey_experiment_5_v0,2023.2.2,Win32,85.47008547,,,,,,,,,,,,,,,,677.0806,678.3745,678.3746,679.2334,return,0.1415,,63.02083333,,,,,,FBP-YG-18.png,0.4,1.2,23,0.5,,,,,,,,,,,,,0,55,55,22,1,,,,,,,,,,,,,,,,,,,,,,,,,,,,
,,,,,SPR24_049,21,Male,2024-04-16_09h22.25.227,jersey_experiment_5_v0,2023.2.2,Win32,85.47008547,,,,,,,,,,,,,,,,679.2337,680.2804,680.2804,681.4099,return,0.0334,,31.77083333,,,,,,FBP-OG-81.png,0.35,1.2,6,0.25,,,,,,,,,,,,,0,56,56,5,1,,,,,,,,,,,,,,,,,,,,,,,,,,,,
,,,,,SPR24_049,21,Male,2024-04-16_09h22.25.227,jersey_experiment_5_v0,2023.2.2,Win32,85.47008547,,,,,,,,,,,,,,,,681.4101,682.457,682.457,683.7277,return,0.0367,,21.09375,,,,,,FBP-RB-17.png,0.37,1.2,32,0.25,,,,,,,,,,,,,0,57,57,31,1,,,,,,,,,,,,,,,,,,,,,,,,,,,,
,,,,,SPR24_049,21,Male,2024-04-16_09h22.25.227,jersey_experiment_5_v0,2023.2.2,Win32,85.47008547,,,,,,,,,,,,,,,,683.7279,684.7747,684.7747,685.5514,return,0.0483,,20.83333333,,,,,,FBP-RB-18.png,0.35,1.2,36,0.25,,,,,,,,,,,,,0,58,58,35,1,,,,,,,,,,,,,,,,,,,,,,,,,,,,
,,,,,SPR24_049,21,Male,2024-04-16_09h22.25.227,jersey_experiment_5_v0,2023.2.2,Win32,85.47008547,,,,,,,,,,,,,,,,685.5516,686.5983,686.5984,687.6926,return,0.0742,,79.03645833,,,,,,FBP-OG-81.png,0.45,1.2,10,0.25,,,,,,,,,,,,,0,59,59,9,1,,,,,,,,,,,,,,,,,,,,,,,,,,,,
,,,,,SPR24_049,21,Male,2024-04-16_09h22.25.227,jersey_experiment_5_v0,2023.2.2,Win32,85.47008547,,,,,,,,,,,,,,,,687.6945,688.9866,688.9867,690.5749,return,0.8602,,60.28645833,,,,,,FBP-PT-81.png,0.4,1.2,53,0.5,,,,,,,,,,,,,,,,,,0,0,0,52,1,,,,,,,,,,,,,,,,,,,,,,,
,,,,,SPR24_049,21,Male,2024-04-16_09h22.25.227,jersey_experiment_5_v0,2023.2.2,Win32,85.47008547,,,,,,,,,,,,,,,,690.5753,691.8694,691.8694,692.975,return,0.1317,,52.47395833,,,,,,FBP-YG-71.png,0.4,1.2,18,0.5,,,,,,,,,,,,,,,,,,0,1,1,17,1,,,,,,,,,,,,,,,,,,,,,,,
,,,,,SPR24_049,21,Male,2024-04-16_09h22.25.227,jersey_experiment_5_v0,2023.2.2,Win32,85.47008547,,,,,,,,,,,,,,,,692.9752,694.2693,694.2693,694.9397,return,0.0047,,73.828125,,,,,,FBP-YG-91.png,0.43,1.2,29,0.5,,,,,,,,,,,,,,,,,,0,2,2,28,1,,,,,,,,,,,,,,,,,,,,,,,
,,,,,SPR24_049,21,Male,2024-04-16_09h22.25.227,jersey_experiment_5_v0,2023.2.2,Win32,85.47008547,,,,,,,,,,,,,,,,694.94,695.9872,695.9872,696.7871,return,0.1075,,65.234375,,,,,,FBP-OG-19.png,0.4,1.2,13,0.25,,,,,,,,,,,,,,,,,,0,3,3,12,1,,,,,,,,,,,,,,,,,,,,,,,
,,,,,SPR24_049,21,Male,2024-04-16_09h22.25.227,jersey_experiment_5_v0,2023.2.2,Win32,85.47008547,,,,,,,,,,,,,,,,696.7872,697.834,697.834,699.081,return,0.2194,,86.84895833,,,,,,FBP-RB-71.png,0.45,1.2,35,0.25,,,,,,,,,,,,,,,,,,0,4,4,34,1,,,,,,,,,,,,,,,,,,,,,,,
,,,,,SPR24_049,21,Male,2024-04-16_09h22.25.227,jersey_experiment_5_v0,2023.2.2,Win32,85.47008547,,,,,,,,,,,,,,,,699.0813,700.3754,700.3754,701.305,return,0.1945,,80.59895833,,,,,,FBP-YG-81.png,0.43,1.2,24,0.5,,,,,,,,,,,,,,,,,,0,5,5,23,1,,,,,,,,,,,,,,,,,,,,,,,
,,,,,SPR24_049,21,Male,2024-04-16_09h22.25.227,jersey_experiment_5_v0,2023.2.2,Win32,85.47008547,,,,,,,,,,,,,,,,701.3052,702.3516,702.3517,704.3166,return,0.1568,,57.421875,,,,,,FBP-RB-81.png,0.35,1.2,36,0.25,,,,,,,,,,,,,,,,,,0,6,6,35,1,,,,,,,,,,,,,,,,,,,,,,,
,,,,,SPR24_049,21,Male,2024-04-16_09h22.25.227,jersey_experiment_5_v0,2023.2.2,Win32,85.47008547,,,,,,,,,,,,,,,,704.3168,705.611,705.611,707.0226,return,0.3299,,50.52083333,,,,,,FBP-YG-71.png,0.37,1.2,17,0.5,,,,,,,,,,,,,,,,,,0,7,7,16,1,,,,,,,,,,,,,,,,,,,,,,,
,,,,,SPR24_049,21,Male,2024-04-16_09h22.25.227,jersey_experiment_5_v0,2023.2.2,Win32,85.47008547,,,,,,,,,,,,,,,,707.023,708.317,708.3171,709.4108,return,0.1047,,68.61979167,,,,,,FBP-PT-91.png,0.45,1.2,60,0.5,,,,,,,,,,,,,,,,,,0,8,8,59,1,,,,,,,,,,,,,,,,,,,,,,,
,,,,,SPR24_049,21,Male,2024-04-16_09h22.25.227,jersey_experiment_5_v0,2023.2.2,Win32,85.47008547,,,,,,,,,,,,,,,,709.4111,710.7051,710.7051,711.5639,return,0.0265,,31.640625,,,,,,FBP-YG-71.png,0.35,1.2,16,0.5,,,,,,,,,,,,,,,,,,0,9,9,15,1,,,,,,,,,,,,,,,,,,,,,,,
,,,,,SPR24_049,21,Male,2024-04-16_09h22.25.227,jersey_experiment_5_v0,2023.2.2,Win32,85.47008547,,,,,,,,,,,,,,,,711.5641,712.611,712.611,713.776,return,0.1317,,65.49479167,,,,,,FBP-RB-71.png,0.43,1.2,34,0.25,,,,,,,,,,,,,,,,,,0,10,10,33,1,,,,,,,,,,,,,,,,,,,,,,,
,,,,,SPR24_049,21,Male,2024-04-16_09h22.25.227,jersey_experiment_5_v0,2023.2.2,Win32,85.47008547,,,,,,,,,,,,,,,,713.7763,715.07,715.0701,715.8584,return,0.0941,,70.18229167,,,,,,FBP-PT-81.png,0.45,1.2,55,0.5,,,,,,,,,,,,,,,,,,0,11,11,54,1,,,,,,,,,,,,,,,,,,,,,,,
,,,,,SPR24_049,21,Male,2024-04-16_09h22.25.227,jersey_experiment_5_v0,2023.2.2,Win32,85.47008547,,,,,,,,,,,,,,,,715.8585,717.1525,717.1525,717.8231,return,0.1545,,71.22395833,,,,,,FBP-YG-81.png,0.45,1.2,25,0.5,,,,,,,,,,,,,,,,,,0,12,12,24,1,,,,,,,,,,,,,,,,,,,,,,,
,,,,,SPR24_049,21,Male,2024-04-16_09h22.25.227,jersey_experiment_5_v0,2023.2.2,Win32,85.47008547,,,,,,,,,,,,,,,,717.8232,719.1174,719.1174,719.7055,return,0.0991,,67.1875,,,,,,FBP-PT-81.png,0.43,1.2,54,0.5,,,,,,,,,,,,,,,,,,0,13,13,53,1,,,,,,,,,,,,,,,,,,,,,,,
,,,,,SPR24_049,21,Male,2024-04-16_09h22.25.227,jersey_experiment_5_v0,2023.2.2,Win32,85.47008547,,,,,,,,,,,,,,,,719.7057,720.9996,720.9997,721.6821,return,0.0856,,62.23958333,,,,,,FBP-PT-71.png,0.4,1.2,48,0.5,,,,,,,,,,,,,,,,,,0,14,14,47,1,,,,,,,,,,,,,,,,,,,,,,,
,,,,,SPR24_049,21,Male,2024-04-16_09h22.25.227,jersey_experiment_5_v0,2023.2.2,Win32,85.47008547,,,,,,,,,,,,,,,,721.6822,722.7289,722.729,723.5997,return,0.2594,,64.0625,,,,,,FBP-RB-81.png,0.4,1.2,38,0.25,,,,,,,,,,,,,,,,,,0,15,15,37,1,,,,,,,,,,,,,,,,,,,,,,,
,,,,,SPR24_049,21,Male,2024-04-16_09h22.25.227,jersey_experiment_5_v0,2023.2.2,Win32,85.47008547,,,,,,,,,,,,,,,,723.5999,724.6466,724.6466,725.788,return,0.1788,,68.61979167,,,,,,FBP-OG-18.png,0.43,1.2,9,0.25,,,,,,,,,,,,,,,,,,0,16,16,8,1,,,,,,,,,,,,,,,,,,,,,,,
,,,,,SPR24_049,21,Male,2024-04-16_09h22.25.227,jersey_experiment_5_v0,2023.2.2,Win32,85.47008547,,,,,,,,,,,,,,,,725.7882,726.8353,726.8355,727.5527,return,0.033,,70.703125,,,,,,FBP-OG-17.png,0.43,1.2,4,0.25,,,,,,,,,,,,,,,,,,0,17,17,3,1,,,,,,,,,,,,,,,,,,,,,,,
,,,,,SPR24_049,21,Male,2024-04-16_09h22.25.227,jersey_experiment_5_v0,2023.2.2,Win32,85.47008547,,,,,,,,,,,,,,,,727.553,728.5998,728.5999,729.5293,return,0.219,,61.58854167,,,,,,FBP-RB-71.png,0.4,1.2,33,0.25,,,,,,,,,,,,,,,,,,0,18,18,32,1,,,,,,,,,,,,,,,,,,,,,,,
,,,,,SPR24_049,21,Male,2024-04-16_09h22.25.227,jersey_experiment_5_v0,2023.2.2,Win32,85.47008547,,,,,,,,,,,,,,,,729.5295,730.8233,730.8234,731.7411,return,0.249,,33.46354167,,,,,,FBP-YG-91.png,0.35,1.2,26,0.5,,,,,,,,,,,,,,,,,,0,19,19,25,1,,,,,,,,,,,,,,,,,,,,,,,
,,,,,SPR24_049,21,Male,2024-04-16_09h22.25.227,jersey_experiment_5_v0,2023.2.2,Win32,85.47008547,,,,,,,,,,,,,,,,731.7413,733.0354,733.0354,734.3295,return,0.2529,,73.828125,,,,,,FBP-YG-91.png,0.45,1.2,30,0.5,,,,,,,,,,,,,,,,,,0,20,20,29,1,,,,,,,,,,,,,,,,,,,,,,,
,,,,,SPR24_049,21,Male,2024-04-16_09h22.25.227,jersey_experiment_5_v0,2023.2.2,Win32,85.47008547,,,,,,,,,,,,,,,,734.3297,735.6236,735.6236,736.4825,return,0.1415,,65.234375,,,,,,FBP-PT-91.png,0.4,1.2,58,0.5,,,,,,,,,,,,,,,,,,0,21,21,57,1,,,,,,,,,,,,,,,,,,,,,,,
,,,,,SPR24_049,21,Male,2024-04-16_09h22.25.227,jersey_experiment_5_v0,2023.2.2,Win32,85.47008547,,,,,,,,,,,,,,,,736.4827,737.5295,737.5295,738.4002,return,0.0803,,70.57291667,,,,,,FBP-RB-81.png,0.43,1.2,39,0.25,,,,,,,,,,,,,,,,,,0,22,22,38,1,,,,,,,,,,,,,,,,,,,,,,,
,,,,,SPR24_049,21,Male,2024-04-16_09h22.25.227,jersey_experiment_5_v0,2023.2.2,Win32,85.47008547,,,,,,,,,,,,,,,,738.4004,739.4473,739.4473,742.4237,return,1.4674,,46.74479167,,,,,,FBP-RB-81.png,0.37,1.2,37,0.25,,,,,,,,,,,,,,,,,,0,23,23,36,1,,,,,,,,,,,,,,,,,,,,,,,
,,,,,SPR24_049,21,Male,2024-04-16_09h22.25.227,jersey_experiment_5_v0,2023.2.2,Win32,85.47008547,,,,,,,,,,,,,,,,742.4239,743.471,743.4711,744.2714,return,0.2261,,45.57291667,,,,,,FBP-RB-91.png,0.4,1.2,43,0.25,,,,,,,,,,,,,,,,,,0,24,24,42,1,,,,,,,,,,,,,,,,,,,,,,,
,,,,,SPR24_049,21,Male,2024-04-16_09h22.25.227,jersey_experiment_5_v0,2023.2.2,Win32,85.47008547,,,,,,,,,,,,,,,,744.2717,745.5652,745.5653,746.8123,return,0.1202,,49.08854167,,,,,,FBP-PT-71.png,0.35,1.2,46,0.5,,,,,,,,,,,,,,,,,,0,25,25,45,1,,,,,,,,,,,,,,,,,,,,,,,
,,,,,SPR24_049,21,Male,2024-04-16_09h22.25.227,jersey_experiment_5_v0,2023.2.2,Win32,85.47008547,,,,,,,,,,,,,,,,746.8125,747.8594,747.8594,748.8125,return,0.1569,,39.32291667,,,,,,FBP-RB-71.png,0.35,1.2,31,0.25,,,,,,,,,,,,,,,,,,0,26,26,30,1,,,,,,,,,,,,,,,,,,,,,,,
,,,,,SPR24_049,21,Male,2024-04-16_09h22.25.227,jersey_experiment_5_v0,2023.2.2,Win32,85.47008547,,,,,,,,,,,,,,,,748.8127,750.1066,750.1067,750.7064,return,0.0709,,61.06770833,,,,,,FBP-PT-71.png,0.43,1.2,49,0.5,,,,,,,,,,,,,,,,,,0,27,27,48,1,,,,,,,,,,,,,,,,,,,,,,,
,,,,,SPR24_049,21,Male,2024-04-16_09h22.25.227,jersey_experiment_5_v0,2023.2.2,Win32,85.47008547,,,,,,,,,,,,,,,,750.7067,751.7538,751.7538,752.9773,return,0.1432,,78.64583333,,,,,,FBP-RB-81.png,0.45,1.2,40,0.25,,,,,,,,,,,,,,,,,,0,28,28,39,1,,,,,,,,,,,,,,,,,,,,,,,
,,,,,SPR24_049,21,Male,2024-04-16_09h22.25.227,jersey_experiment_5_v0,2023.2.2,Win32,85.47008547,,,,,,,,,,,,,,,,752.9775,754.0242,754.0243,755.4832,return,0.1807,,71.09375,,,,,,FBP-OG-17.png,0.4,1.2,3,0.25,,,,,,,,,,,,,,,,,,0,29,29,2,1,,,,,,,,,,,,,,,,,,,,,,,
,,,,,SPR24_049,21,Male,2024-04-16_09h22.25.227,jersey_experiment_5_v0,2023.2.2,Win32,85.47008547,,,,,,,,,,,,,,,,755.4834,756.5302,756.5302,757.7774,return,0.3066,,74.08854167,,,,,,FBP-OG-18.png,0.4,1.2,8,0.25,,,,,,,,,,,,,,,,,,0,30,30,7,1,,,,,,,,,,,,,,,,,,,,,,,
,,,,,SPR24_049,21,Male,2024-04-16_09h22.25.227,jersey_experiment_5_v0,2023.2.2,Win32,85.47008547,,,,,,,,,,,,,,,,757.7776,758.8244,758.8244,759.8246,return,0.0385,,50.52083333,,,,,,FBP-OG-18.png,0.35,1.2,6,0.25,,,,,,,,,,,,,,,,,,0,31,31,5,1,,,,,,,,,,,,,,,,,,,,,,,
,,,,,SPR24_049,21,Male,2024-04-16_09h22.25.227,jersey_experiment_5_v0,2023.2.2,Win32,85.47008547,,,,,,,,,,,,,,,,759.8248,761.1187,761.1187,761.9659,return,0.1554,,50.52083333,,,,,,FBP-PT-71.png,0.37,1.2,47,0.5,,,,,,,,,,,,,,,,,,0,32,32,46,1,,,,,,,,,,,,,,,,,,,,,,,
,,,,,SPR24_049,21,Male,2024-04-16_09h22.25.227,jersey_experiment_5_v0,2023.2.2,Win32,85.47008547,,,,,,,,,,,,,,,,761.9661,763.26,763.26,763.8835,return,0.0987,,50,,,,,,FBP-PT-91.png,0.37,1.2,57,0.5,,,,,,,,,,,,,,,,,,0,33,33,56,1,,,,,,,,,,,,,,,,,,,,,,,
,,,,,SPR24_049,21,Male,2024-04-16_09h22.25.227,jersey_experiment_5_v0,2023.2.2,Win32,85.47008547,,,,,,,,,,,,,,,,763.8838,765.1775,765.1776,765.7073,return,0.1451,,51.43229167,,,,,,FBP-PT-81.png,0.37,1.2,52,0.5,,,,,,,,,,,,,,,,,,0,34,34,51,1,,,,,,,,,,,,,,,,,,,,,,,
,,,,,SPR24_049,21,Male,2024-04-16_09h22.25.227,jersey_experiment_5_v0,2023.2.2,Win32,85.47008547,,,,,,,,,,,,,,,,765.7076,766.7542,766.7542,768.1542,return,0.1926,,46.09375,,,,,,FBP-OG-17.png,0.35,1.2,1,0.25,,,,,,,,,,,,,,,,,,0,35,35,0,1,,,,,,,,,,,,,,,,,,,,,,,
,,,,,SPR24_049,21,Male,2024-04-16_09h22.25.227,jersey_experiment_5_v0,2023.2.2,Win32,85.47008547,,,,,,,,,,,,,,,,768.1544,769.4486,769.4486,770.6838,return,0.5453,,60.9375,,,,,,FBP-YG-91.png,0.4,1.2,28,0.5,,,,,,,,,,,,,,,,,,0,36,36,27,1,,,,,,,,,,,,,,,,,,,,,,,
,,,,,SPR24_049,21,Male,2024-04-16_09h22.25.227,jersey_experiment_5_v0,2023.2.2,Win32,85.47008547,,,,,,,,,,,,,,,,770.684,771.9779,771.978,772.8604,return,0.11,,77.60416667,,,,,,FBP-YG-71.png,0.45,1.2,20,0.5,,,,,,,,,,,,,,,,,,0,37,37,19,1,,,,,,,,,,,,,,,,,,,,,,,
,,,,,SPR24_049,21,Male,2024-04-16_09h22.25.227,jersey_experiment_5_v0,2023.2.2,Win32,85.47008547,,,,,,,,,,,,,,,,772.8606,773.9076,773.9077,775.0018,return,0.051,,41.796875,,,,,,FBP-OG-19.png,0.35,1.2,11,0.25,,,,,,,,,,,,,,,,,,0,38,38,10,1,,,,,,,,,,,,,,,,,,,,,,,
,,,,,SPR24_049,21,Male,2024-04-16_09h22.25.227,jersey_experiment_5_v0,2023.2.2,Win32,85.47008547,,,,,,,,,,,,,,,,775.0019,776.0487,776.0489,777.7547,return,0.2047,,66.015625,,,,,,FBP-RB-91.png,0.43,1.2,44,0.25,,,,,,,,,,,,,,,,,,0,39,39,43,1,,,,,,,,,,,,,,,,,,,,,,,
,,,,,SPR24_049,21,Male,2024-04-16_09h22.25.227,jersey_experiment_5_v0,2023.2.2,Win32,85.47008547,,,,,,,,,,,,,,,,777.7549,779.049,779.049,779.8958,return,0.0913,,32.16145833,,,,,,FBP-PT-81.png,0.35,1.2,51,0.5,,,,,,,,,,,,,,,,,,0,40,40,50,1,,,,,,,,,,,,,,,,,,,,,,,
,,,,,SPR24_049,21,Male,2024-04-16_09h22.25.227,jersey_experiment_5_v0,2023.2.2,Win32,85.47008547,,,,,,,,,,,,,,,,779.8961,781.1901,781.1901,782.449,return,0.1753,,51.30208333,,,,,,FBP-YG-81.png,0.4,1.2,23,0.5,,,,,,,,,,,,,,,,,,0,41,41,22,1,,,,,,,,,,,,,,,,,,,,,,,
,,,,,SPR24_049,21,Male,2024-04-16_09h22.25.227,jersey_experiment_5_v0,2023.2.2,Win32,85.47008547,,,,,,,,,,,,,,,,782.4493,783.7431,783.7431,784.8018,return,0.1887,,34.11458333,,,,,,FBP-PT-91.png,0.35,1.2,56,0.5,,,,,,,,,,,,,,,,,,0,42,42,55,1,,,,,,,,,,,,,,,,,,,,,,,
,,,,,SPR24_049,21,Male,2024-04-16_09h22.25.227,jersey_experiment_5_v0,2023.2.2,Win32,85.47008547,,,,,,,,,,,,,,,,784.8021,785.849,785.8491,786.8961,return,0.1886,,27.734375,,,,,,FBP-OG-17.png,0.37,1.2,2,0.25,,,,,,,,,,,,,,,,,,0,43,43,1,1,,,,,,,,,,,,,,,,,,,,,,,
,,,,,SPR24_049,21,Male,2024-04-16_09h22.25.227,jersey_experiment_5_v0,2023.2.2,Win32,85.47008547,,,,,,,,,,,,,,,,786.8962,788.1902,788.1902,789.2138,return,0.2026,,23.4375,,,,,,FBP-YG-91.png,0.37,1.2,27,0.5,,,,,,,,,,,,,,,,,,0,44,44,26,1,,,,,,,,,,,,,,,,,,,,,,,
,,,,,SPR24_049,21,Male,2024-04-16_09h22.25.227,jersey_experiment_5_v0,2023.2.2,Win32,85.47008547,,,,,,,,,,,,,,,,789.2141,790.5081,790.5081,791.5785,return,0.0999,,61.45833333,,,,,,FBP-YG-71.png,0.43,1.2,19,0.5,,,,,,,,,,,,,,,,,,0,45,45,18,1,,,,,,,,,,,,,,,,,,,,,,,
,,,,,SPR24_049,21,Male,2024-04-16_09h22.25.227,jersey_experiment_5_v0,2023.2.2,Win32,85.47008547,,,,,,,,,,,,,,,,791.5788,792.6257,792.6258,793.5319,return,0.0986,,80.33854167,,,,,,FBP-OG-17.png,0.45,1.2,5,0.25,,,,,,,,,,,,,,,,,,0,46,46,4,1,,,,,,,,,,,,,,,,,,,,,,,
,,,,,SPR24_049,21,Male,2024-04-16_09h22.25.227,jersey_experiment_5_v0,2023.2.2,Win32,85.47008547,,,,,,,,,,,,,,,,793.5321,794.5788,794.5788,795.8729,return,0.3909,,54.16666667,,,,,,FBP-OG-18.png,0.37,1.2,7,0.25,,,,,,,,,,,,,,,,,,0,47,47,6,1,,,,,,,,,,,,,,,,,,,,,,,
,,,,,SPR24_049,21,Male,2024-04-16_09h22.25.227,jersey_experiment_5_v0,2023.2.2,Win32,85.47008547,,,,,,,,,,,,,,,,795.8732,797.1674,797.1675,797.8263,return,0.2026,,42.83854167,,,,,,FBP-YG-81.png,0.35,1.2,21,0.5,,,,,,,,,,,,,,,,,,0,48,48,20,1,,,,,,,,,,,,,,,,,,,,,,,
,,,,,SPR24_049,21,Male,2024-04-16_09h22.25.227,jersey_experiment_5_v0,2023.2.2,Win32,85.47008547,,,,,,,,,,,,,,,,797.8265,798.873,798.873,799.6495,return,0.0709,,62.890625,,,,,,FBP-OG-19.png,0.43,1.2,14,0.25,,,,,,,,,,,,,,,,,,0,49,49,13,1,,,,,,,,,,,,,,,,,,,,,,,
,,,,,SPR24_049,21,Male,2024-04-16_09h22.25.227,jersey_experiment_5_v0,2023.2.2,Win32,85.47008547,,,,,,,,,,,,,,,,799.6498,800.6964,800.6965,801.6732,return,0.2298,,76.43229167,,,,,,FBP-RB-91.png,0.45,1.2,45,0.25,,,,,,,,,,,,,,,,,,0,50,50,44,1,,,,,,,,,,,,,,,,,,,,,,,
,,,,,SPR24_049,21,Male,2024-04-16_09h22.25.227,jersey_experiment_5_v0,2023.2.2,Win32,85.47008547,,,,,,,,,,,,,,,,801.6733,802.7201,802.7202,803.5202,return,0.0846,,52.60416667,,,,,,FBP-RB-71.png,0.37,1.2,32,0.25,,,,,,,,,,,,,,,,,,0,51,51,31,1,,,,,,,,,,,,,,,,,,,,,,,
,,,,,SPR24_049,21,Male,2024-04-16_09h22.25.227,jersey_experiment_5_v0,2023.2.2,Win32,85.47008547,,,,,,,,,,,,,,,,803.5204,804.5672,804.5673,805.5205,return,0.2824,,37.36979167,,,,,,FBP-OG-19.png,0.37,1.2,12,0.25,,,,,,,,,,,,,,,,,,0,52,52,11,1,,,,,,,,,,,,,,,,,,,,,,,
,,,,,SPR24_049,21,Male,2024-04-16_09h22.25.227,jersey_experiment_5_v0,2023.2.2,Win32,85.47008547,,,,,,,,,,,,,,,,805.5207,806.5674,806.5675,807.6265,return,0.1235,,12.36979167,,,,,,FBP-RB-91.png,0.35,1.2,41,0.25,,,,,,,,,,,,,,,,,,0,53,53,40,1,,,,,,,,,,,,,,,,,,,,,,,
,,,,,SPR24_049,21,Male,2024-04-16_09h22.25.227,jersey_experiment_5_v0,2023.2.2,Win32,85.47008547,,,,,,,,,,,,,,,,807.6267,808.6734,808.6736,809.603,return,0.1182,,65.625,,,,,,FBP-OG-18.png,0.45,1.2,10,0.25,,,,,,,,,,,,,,,,,,0,54,54,9,1,,,,,,,,,,,,,,,,,,,,,,,
,,,,,SPR24_049,21,Male,2024-04-16_09h22.25.227,jersey_experiment_5_v0,2023.2.2,Win32,85.47008547,,,,,,,,,,,,,,,,809.6032,810.65,810.65,811.8265,return,0.2956,,75.78125,,,,,,FBP-OG-19.png,0.45,1.2,15,0.25,,,,,,,,,,,,,,,,,,0,55,55,14,1,,,,,,,,,,,,,,,,,,,,,,,
,,,,,SPR24_049,21,Male,2024-04-16_09h22.25.227,jersey_experiment_5_v0,2023.2.2,Win32,85.47008547,,,,,,,,,,,,,,,,811.8268,813.1208,813.1209,814.3442,return,0.0436,,50.91145833,,,,,,FBP-YG-81.png,0.37,1.2,22,0.5,,,,,,,,,,,,,,,,,,0,56,56,21,1,,,,,,,,,,,,,,,,,,,,,,,
,,,,,SPR24_049,21,Male,2024-04-16_09h22.25.227,jersey_experiment_5_v0,2023.2.2,Win32,85.47008547,,,,,,,,,,,,,,,,814.3445,815.6384,815.6385,816.2383,return,0.083,,54.03645833,,,,,,FBP-PT-91.png,0.43,1.2,59,0.5,,,,,,,,,,,,,,,,,,0,57,57,58,1,,,,,,,,,,,,,,,,,,,,,,,
,,,,,SPR24_049,21,Male,2024-04-16_09h22.25.227,jersey_experiment_5_v0,2023.2.2,Win32,85.47008547,,,,,,,,,,,,,,,,816.2385,817.5325,817.5325,818.2267,return,0.1403,,60.15625,,,,,,FBP-PT-71.png,0.45,1.2,50,0.5,,,,,,,,,,,,,,,,,,0,58,58,49,1,,,,,,,,,,,,,,,,,,,,,,,
,,,,,SPR24_049,21,Male,2024-04-16_09h22.25.227,jersey_experiment_5_v0,2023.2.2,Win32,85.47008547,,,,,,,,,,,,,,,,818.2268,819.2737,819.2737,820.1091,return,0.143,,54.81770833,,,,,,FBP-RB-91.png,0.37,1.2,42,0.25,,,,,,,,,,,,,,,,,,0,59,59,41,1,,,,,,,,,,,,,,,,,,,,,,,
,,,,,SPR24_049,21,Male,2024-04-16_09h22.25.227,jersey_experiment_5_v0,2023.2.2,Win32,85.47008547,,,,,,,,,,,,,,,,,,,,,,,,,,,,,,,,,,,,,,,,,,,,,,,,,,,,,,,,820.1096,824.3331,return,4.2148,,,,,,,,,,,,,,,,,,,
,,,,,SPR24_049,21,Male,2024-04-16_09h22.25.227,jersey_experiment_5_v0,2023.2.2,Win32,85.47008547,,,,,,,,,,,,,,,,,,,,,,,,,,,,,,,,,,,,,,,,,,,,,,,,,,,,,,,,,,,,,824.3332,828.4979,1,3.9659,return,0.1742,,,,,,,,,,,,
,,,,,SPR24_049,21,Male,2024-04-16_09h22.25.227,jersey_experiment_5_v0,2023.2.2,Win32,85.47008547,,,,,,,,,,,,,,,,,,,,,,,,,,,,,,,,,,,,,,,,,,,,,,,,,,,,,,,,,,,,,,,,,,,,828.498,858.1511,This experiment seems to be testing JND,right,17.2929,,,,,,
,,,,,SPR24_049,21,Male,2024-04-16_09h22.25.227,jersey_experiment_5_v0,2023.2.2,Win32,85.47008547,,,,,,,,,,,,,,,,,,,,,,,,,,,,,,,,,,,,,,,,,,,,,,,,,,,,,,,,,,,,,,,,,,,,,,,,,,858.1513,860.9578,return,2.7962,