requirements.started,requirements.stopped,key_resp_3.keys,key_resp_3.rt,key_resp_3.duration,Subject ID,Age,Gender,date,expName,psychopyVersion,OS,frameRate,instructions1.started,instructions1.stopped,key_resp.keys,key_resp.rt,key_resp.duration,example.started,example.stopped,enter_2.keys,enter_2.rt,enter_2.duration,instructions2.started,instructions2.stopped,enter_3.keys,enter_3.rt,enter_3.duration,image.started,image.stopped,slider_2.started,slider_2.stopped,next.keys,next.rt,next.duration,slider.response,trial_block_1.thisRepN,trial_block_1.thisTrialN,trial_block_1.thisN,trial_block_1.thisIndex,trial_block_1.ran,Path,Width,Height,Index,Duration,trial_block_2.thisRepN,trial_block_2.thisTrialN,trial_block_2.thisN,trial_block_2.thisIndex,trial_block_2.ran,rest_break.started,rest_break.stopped,end_break.started,end_break.stopped,key_resp_5.keys,key_resp_5.rt,key_resp_5.duration,trial_block_3.thisRepN,trial_block_3.thisTrialN,trial_block_3.thisN,trial_block_3.thisIndex,trial_block_3.ran,trial_block_4.thisRepN,trial_block_4.thisTrialN,trial_block_4.thisN,trial_block_4.thisIndex,trial_block_4.ran,questions_intro.started,questions_intro.stopped,enter_12.keys,enter_12.rt,enter_12.duration,question2.started,question2.stopped,question_doingbest.response,question_doingbest.rt,enter_15.keys,enter_15.rt,enter_15.duration,pattern.started,pattern.stopped,pattern_2.text,enter_17.keys,enter_17.rt,enter_17.duration,thankyou.started,thankyou.stopped,enter_14.keys,enter_14.rt,enter_14.duration
0.0001,7.2272,return,7.2165,,SPR24_056,19,Female,2024-04-16_16h59.47.497,jersey_experiment_5_v0,2023.2.2,Win32,85.47008547,,,,,,,,,,,,,,,,,,,,,,,,,,,,,,,,,,,,,,,,,,,,,,,,,,,,,,,,,,,,,,,,,,,,,,,,,,,,,,
,,,,,SPR24_056,19,Female,2024-04-16_16h59.47.497,jersey_experiment_5_v0,2023.2.2,Win32,85.47008547,7.2274,11.5334,return,4.2923,,,,,,,,,,,,,,,,,,,,,,,,,,,,,,,,,,,,,,,,,,,,,,,,,,,,,,,,,,,,,,,,,,,,,,,,,,
,,,,,SPR24_056,19,Female,2024-04-16_16h59.47.497,jersey_experiment_5_v0,2023.2.2,Win32,85.47008547,,,,,,11.5334,14.616,return,3.055,,,,,,,,,,,,,,,,,,,,,,,,,,,,,,,,,,,,,,,,,,,,,,,,,,,,,,,,,,,,,,,,,,,,,
,,,,,SPR24_056,19,Female,2024-04-16_16h59.47.497,jersey_experiment_5_v0,2023.2.2,Win32,85.47008547,,,,,,,,,,,14.616,27.4047,return,12.7765,,,,,,,,,,,,,,,,,,,,,,,,,,,,,,,,,,,,,,,,,,,,,,,,,,,,,,,,,,,,,,,,
,,,,,SPR24_056,19,Female,2024-04-16_16h59.47.497,jersey_experiment_5_v0,2023.2.2,Win32,85.47008547,,,,,,,,,,,,,,,,27.412,28.7102,28.7103,38.652,return,5.0955,,75,0,0,0,2,1,FBP-OG-71.png,0.4,1.2,3,0.5,,,,,,,,,,,,,,,,,,,,,,,,,,,,,,,,,,,,,,,,,,,,,
,,,,,SPR24_056,19,Female,2024-04-16_16h59.47.497,jersey_experiment_5_v0,2023.2.2,Win32,85.47008547,,,,,,,,,,,,,,,,38.6562,39.9577,39.9577,43.2403,return,1.2401,,75,0,1,1,43,1,FBP-RB-19.png,0.43,1.2,44,0.5,,,,,,,,,,,,,,,,,,,,,,,,,,,,,,,,,,,,,,,,,,,,,
,,,,,SPR24_056,19,Female,2024-04-16_16h59.47.497,jersey_experiment_5_v0,2023.2.2,Win32,85.47008547,,,,,,,,,,,,,,,,43.2406,44.5345,44.5346,47.911,return,1.7098,,25.13020833,0,2,2,0,1,FBP-OG-71.png,0.35,1.2,1,0.5,,,,,,,,,,,,,,,,,,,,,,,,,,,,,,,,,,,,,,,,,,,,,
,,,,,SPR24_056,19,Female,2024-04-16_16h59.47.497,jersey_experiment_5_v0,2023.2.2,Win32,85.47008547,,,,,,,,,,,,,,,,47.9113,48.9581,48.9581,52.1227,return,1.1085,,74.47916667,0,3,3,19,1,FBP-YG-17.png,0.45,1.2,20,0.25,,,,,,,,,,,,,,,,,,,,,,,,,,,,,,,,,,,,,,,,,,,,,
,,,,,SPR24_056,19,Female,2024-04-16_16h59.47.497,jersey_experiment_5_v0,2023.2.2,Win32,85.47008547,,,,,,,,,,,,,,,,52.123,53.417,53.4171,56.0879,return,0.9819,,50.65104167,0,4,4,40,1,FBP-RB-19.png,0.35,1.2,41,0.5,,,,,,,,,,,,,,,,,,,,,,,,,,,,,,,,,,,,,,,,,,,,,
,,,,,SPR24_056,19,Female,2024-04-16_16h59.47.497,jersey_experiment_5_v0,2023.2.2,Win32,85.47008547,,,,,,,,,,,,,,,,56.088,57.382,57.3821,59.5939,return,0.8732,,76.69270833,0,5,5,3,1,FBP-OG-71.png,0.43,1.2,4,0.5,,,,,,,,,,,,,,,,,,,,,,,,,,,,,,,,,,,,,,,,,,,,,
,,,,,SPR24_056,19,Female,2024-04-16_16h59.47.497,jersey_experiment_5_v0,2023.2.2,Win32,85.47008547,,,,,,,,,,,,,,,,59.5941,60.6408,60.6409,62.6997,return,0.9075,,78.125,0,6,6,28,1,FBP-YG-19.png,0.43,1.2,29,0.25,,,,,,,,,,,,,,,,,,,,,,,,,,,,,,,,,,,,,,,,,,,,,
,,,,,SPR24_056,19,Female,2024-04-16_16h59.47.497,jersey_experiment_5_v0,2023.2.2,Win32,85.47008547,,,,,,,,,,,,,,,,62.7,63.9939,63.994,65.9116,return,0.8164,,78.125,0,7,7,12,1,FBP-OG-91.png,0.4,1.2,13,0.5,,,,,,,,,,,,,,,,,,,,,,,,,,,,,,,,,,,,,,,,,,,,,
,,,,,SPR24_056,19,Female,2024-04-16_16h59.47.497,jersey_experiment_5_v0,2023.2.2,Win32,85.47008547,,,,,,,,,,,,,,,,65.9118,67.2058,67.2058,69.2764,return,0.5654,,25.26041667,0,8,8,10,1,FBP-OG-91.png,0.35,1.2,11,0.5,,,,,,,,,,,,,,,,,,,,,,,,,,,,,,,,,,,,,,,,,,,,,
,,,,,SPR24_056,19,Female,2024-04-16_16h59.47.497,jersey_experiment_5_v0,2023.2.2,Win32,85.47008547,,,,,,,,,,,,,,,,69.2765,70.5705,70.5705,72.2296,return,0.5708,,74.47916667,0,9,9,34,1,FBP-RB-17.png,0.45,1.2,35,0.5,,,,,,,,,,,,,,,,,,,,,,,,,,,,,,,,,,,,,,,,,,,,,
,,,,,SPR24_056,19,Female,2024-04-16_16h59.47.497,jersey_experiment_5_v0,2023.2.2,Win32,85.47008547,,,,,,,,,,,,,,,,72.2299,73.2766,73.2766,76.3474,return,0.4855,,57.421875,0,10,10,17,1,FBP-YG-17.png,0.4,1.2,18,0.25,,,,,,,,,,,,,,,,,,,,,,,,,,,,,,,,,,,,,,,,,,,,,
,,,,,SPR24_056,19,Female,2024-04-16_16h59.47.497,jersey_experiment_5_v0,2023.2.2,Win32,85.47008547,,,,,,,,,,,,,,,,76.3476,77.3944,77.3944,80.4887,return,0.5683,,54.03645833,0,11,11,55,1,FBP-PT-19.png,0.35,1.2,56,0.25,,,,,,,,,,,,,,,,,,,,,,,,,,,,,,,,,,,,,,,,,,,,,
,,,,,SPR24_056,19,Female,2024-04-16_16h59.47.497,jersey_experiment_5_v0,2023.2.2,Win32,85.47008547,,,,,,,,,,,,,,,,80.4889,81.7827,81.7828,83.5121,return,0.4523,,45.57291667,0,12,12,1,1,FBP-OG-71.png,0.37,1.2,2,0.5,,,,,,,,,,,,,,,,,,,,,,,,,,,,,,,,,,,,,,,,,,,,,
,,,,,SPR24_056,19,Female,2024-04-16_16h59.47.497,jersey_experiment_5_v0,2023.2.2,Win32,85.47008547,,,,,,,,,,,,,,,,83.5124,84.5594,84.5594,87.642,return,0.533,,54.16666667,0,13,13,26,1,FBP-YG-19.png,0.37,1.2,27,0.25,,,,,,,,,,,,,,,,,,,,,,,,,,,,,,,,,,,,,,,,,,,,,
,,,,,SPR24_056,19,Female,2024-04-16_16h59.47.497,jersey_experiment_5_v0,2023.2.2,Win32,85.47008547,,,,,,,,,,,,,,,,87.6422,88.9362,88.9362,93.7362,return,1.3923,,47.78645833,0,14,14,6,1,FBP-OG-81.png,0.37,1.2,7,0.5,,,,,,,,,,,,,,,,,,,,,,,,,,,,,,,,,,,,,,,,,,,,,
,,,,,SPR24_056,19,Female,2024-04-16_16h59.47.497,jersey_experiment_5_v0,2023.2.2,Win32,85.47008547,,,,,,,,,,,,,,,,93.7364,94.7833,94.7833,96.6775,return,0.8296,,73.17708333,0,15,15,18,1,FBP-YG-17.png,0.43,1.2,19,0.25,,,,,,,,,,,,,,,,,,,,,,,,,,,,,,,,,,,,,,,,,,,,,
,,,,,SPR24_056,19,Female,2024-04-16_16h59.47.497,jersey_experiment_5_v0,2023.2.2,Win32,85.47008547,,,,,,,,,,,,,,,,96.6777,97.9717,97.9717,101.7482,return,1.7137,,62.36979167,0,16,16,11,1,FBP-OG-91.png,0.37,1.2,12,0.5,,,,,,,,,,,,,,,,,,,,,,,,,,,,,,,,,,,,,,,,,,,,,
,,,,,SPR24_056,19,Female,2024-04-16_16h59.47.497,jersey_experiment_5_v0,2023.2.2,Win32,85.47008547,,,,,,,,,,,,,,,,101.7484,102.7953,102.7953,106.1839,return,1.1232,,59.63541667,0,17,17,15,1,FBP-YG-17.png,0.35,1.2,16,0.25,,,,,,,,,,,,,,,,,,,,,,,,,,,,,,,,,,,,,,,,,,,,,
,,,,,SPR24_056,19,Female,2024-04-16_16h59.47.497,jersey_experiment_5_v0,2023.2.2,Win32,85.47008547,,,,,,,,,,,,,,,,106.1841,107.2308,107.2308,109.3015,return,1.0538,,77.34375,0,18,18,49,1,FBP-PT-17.png,0.45,1.2,50,0.25,,,,,,,,,,,,,,,,,,,,,,,,,,,,,,,,,,,,,,,,,,,,,
,,,,,SPR24_056,19,Female,2024-04-16_16h59.47.497,jersey_experiment_5_v0,2023.2.2,Win32,85.47008547,,,,,,,,,,,,,,,,109.3017,110.5955,110.5956,112.6309,return,0.7947,,74.86979167,0,19,19,37,1,FBP-RB-18.png,0.4,1.2,38,0.5,,,,,,,,,,,,,,,,,,,,,,,,,,,,,,,,,,,,,,,,,,,,,
,,,,,SPR24_056,19,Female,2024-04-16_16h59.47.497,jersey_experiment_5_v0,2023.2.2,Win32,85.47008547,,,,,,,,,,,,,,,,112.6312,113.9251,113.9251,115.6782,return,0.5881,,86.71875,0,20,20,38,1,FBP-RB-18.png,0.43,1.2,39,0.5,,,,,,,,,,,,,,,,,,,,,,,,,,,,,,,,,,,,,,,,,,,,,
,,,,,SPR24_056,19,Female,2024-04-16_16h59.47.497,jersey_experiment_5_v0,2023.2.2,Win32,85.47008547,,,,,,,,,,,,,,,,115.6783,116.7254,116.7254,119.1136,return,0.6026,,32.421875,0,21,21,50,1,FBP-PT-18.png,0.35,1.2,51,0.25,,,,,,,,,,,,,,,,,,,,,,,,,,,,,,,,,,,,,,,,,,,,,
,,,,,SPR24_056,19,Female,2024-04-16_16h59.47.497,jersey_experiment_5_v0,2023.2.2,Win32,85.47008547,,,,,,,,,,,,,,,,119.1138,120.1607,120.1607,122.149,return,0.4653,,69.140625,0,22,22,23,1,FBP-YG-18.png,0.43,1.2,24,0.25,,,,,,,,,,,,,,,,,,,,,,,,,,,,,,,,,,,,,,,,,,,,,
,,,,,SPR24_056,19,Female,2024-04-16_16h59.47.497,jersey_experiment_5_v0,2023.2.2,Win32,85.47008547,,,,,,,,,,,,,,,,122.1492,123.1961,123.1962,124.808,return,0.5466,,77.86458333,0,23,23,29,1,FBP-YG-19.png,0.45,1.2,30,0.25,,,,,,,,,,,,,,,,,,,,,,,,,,,,,,,,,,,,,,,,,,,,,
,,,,,SPR24_056,19,Female,2024-04-16_16h59.47.497,jersey_experiment_5_v0,2023.2.2,Win32,85.47008547,,,,,,,,,,,,,,,,124.8082,125.8552,125.8552,127.7257,return,0.9181,,82.94270833,0,24,24,59,1,FBP-PT-19.png,0.45,1.2,60,0.25,,,,,,,,,,,,,,,,,,,,,,,,,,,,,,,,,,,,,,,,,,,,,
,,,,,SPR24_056,19,Female,2024-04-16_16h59.47.497,jersey_experiment_5_v0,2023.2.2,Win32,85.47008547,,,,,,,,,,,,,,,,127.7258,129.0199,129.0199,130.3963,return,0.4133,,24.73958333,0,25,25,5,1,FBP-OG-81.png,0.35,1.2,6,0.5,,,,,,,,,,,,,,,,,,,,,,,,,,,,,,,,,,,,,,,,,,,,,
,,,,,SPR24_056,19,Female,2024-04-16_16h59.47.497,jersey_experiment_5_v0,2023.2.2,Win32,85.47008547,,,,,,,,,,,,,,,,130.3966,131.4434,131.4435,133.2436,return,0.5891,,75.65104167,0,26,26,48,1,FBP-PT-17.png,0.43,1.2,49,0.25,,,,,,,,,,,,,,,,,,,,,,,,,,,,,,,,,,,,,,,,,,,,,
,,,,,SPR24_056,19,Female,2024-04-16_16h59.47.497,jersey_experiment_5_v0,2023.2.2,Win32,85.47008547,,,,,,,,,,,,,,,,133.2438,134.2907,134.2907,135.9144,return,0.6255,,26.69270833,0,27,27,46,1,FBP-PT-17.png,0.37,1.2,47,0.25,,,,,,,,,,,,,,,,,,,,,,,,,,,,,,,,,,,,,,,,,,,,,
,,,,,SPR24_056,19,Female,2024-04-16_16h59.47.497,jersey_experiment_5_v0,2023.2.2,Win32,85.47008547,,,,,,,,,,,,,,,,135.9146,136.9613,136.9613,138.8437,return,0.6106,,25.78125,0,28,28,20,1,FBP-YG-18.png,0.35,1.2,21,0.25,,,,,,,,,,,,,,,,,,,,,,,,,,,,,,,,,,,,,,,,,,,,,
,,,,,SPR24_056,19,Female,2024-04-16_16h59.47.497,jersey_experiment_5_v0,2023.2.2,Win32,85.47008547,,,,,,,,,,,,,,,,138.844,140.1379,140.138,141.6439,return,0.5314,,58.203125,0,29,29,32,1,FBP-RB-17.png,0.4,1.2,33,0.5,,,,,,,,,,,,,,,,,,,,,,,,,,,,,,,,,,,,,,,,,,,,,
,,,,,SPR24_056,19,Female,2024-04-16_16h59.47.497,jersey_experiment_5_v0,2023.2.2,Win32,85.47008547,,,,,,,,,,,,,,,,141.644,142.9381,142.9381,144.1498,return,0.4886,,58.203125,0,30,30,41,1,FBP-RB-19.png,0.37,1.2,42,0.5,,,,,,,,,,,,,,,,,,,,,,,,,,,,,,,,,,,,,,,,,,,,,
,,,,,SPR24_056,19,Female,2024-04-16_16h59.47.497,jersey_experiment_5_v0,2023.2.2,Win32,85.47008547,,,,,,,,,,,,,,,,144.15,145.197,145.197,146.597,return,0.4893,,58.203125,0,31,31,52,1,FBP-PT-18.png,0.4,1.2,53,0.25,,,,,,,,,,,,,,,,,,,,,,,,,,,,,,,,,,,,,,,,,,,,,
,,,,,SPR24_056,19,Female,2024-04-16_16h59.47.497,jersey_experiment_5_v0,2023.2.2,Win32,85.47008547,,,,,,,,,,,,,,,,146.5971,147.6441,147.6441,149.1736,return,0.5476,,46.22395833,0,32,32,45,1,FBP-PT-17.png,0.35,1.2,46,0.25,,,,,,,,,,,,,,,,,,,,,,,,,,,,,,,,,,,,,,,,,,,,,
,,,,,SPR24_056,19,Female,2024-04-16_16h59.47.497,jersey_experiment_5_v0,2023.2.2,Win32,85.47008547,,,,,,,,,,,,,,,,149.1738,150.2206,150.2206,151.5148,return,0.3793,,74.86979167,0,33,33,54,1,FBP-PT-18.png,0.45,1.2,55,0.25,,,,,,,,,,,,,,,,,,,,,,,,,,,,,,,,,,,,,,,,,,,,,
,,,,,SPR24_056,19,Female,2024-04-16_16h59.47.497,jersey_experiment_5_v0,2023.2.2,Win32,85.47008547,,,,,,,,,,,,,,,,151.5149,152.562,152.5621,154.8561,return,1.0264,,60.546875,0,34,34,16,1,FBP-YG-17.png,0.37,1.2,17,0.25,,,,,,,,,,,,,,,,,,,,,,,,,,,,,,,,,,,,,,,,,,,,,
,,,,,SPR24_056,19,Female,2024-04-16_16h59.47.497,jersey_experiment_5_v0,2023.2.2,Win32,85.47008547,,,,,,,,,,,,,,,,154.8563,155.9033,155.9033,157.3503,return,0.4175,,63.02083333,0,35,35,27,1,FBP-YG-19.png,0.4,1.2,28,0.25,,,,,,,,,,,,,,,,,,,,,,,,,,,,,,,,,,,,,,,,,,,,,
,,,,,SPR24_056,19,Female,2024-04-16_16h59.47.497,jersey_experiment_5_v0,2023.2.2,Win32,85.47008547,,,,,,,,,,,,,,,,157.3505,158.3974,158.3974,159.6212,return,0.3117,,47.265625,0,36,36,25,1,FBP-YG-19.png,0.35,1.2,26,0.25,,,,,,,,,,,,,,,,,,,,,,,,,,,,,,,,,,,,,,,,,,,,,
,,,,,SPR24_056,19,Female,2024-04-16_16h59.47.497,jersey_experiment_5_v0,2023.2.2,Win32,85.47008547,,,,,,,,,,,,,,,,159.6215,160.6681,160.6681,162.9859,return,0.2743,,49.08854167,0,37,37,21,1,FBP-YG-18.png,0.37,1.2,22,0.25,,,,,,,,,,,,,,,,,,,,,,,,,,,,,,,,,,,,,,,,,,,,,
,,,,,SPR24_056,19,Female,2024-04-16_16h59.47.497,jersey_experiment_5_v0,2023.2.2,Win32,85.47008547,,,,,,,,,,,,,,,,162.9861,164.2799,164.28,166.0094,return,0.9217,,49.08854167,0,38,38,36,1,FBP-RB-18.png,0.37,1.2,37,0.5,,,,,,,,,,,,,,,,,,,,,,,,,,,,,,,,,,,,,,,,,,,,,
,,,,,SPR24_056,19,Female,2024-04-16_16h59.47.497,jersey_experiment_5_v0,2023.2.2,Win32,85.47008547,,,,,,,,,,,,,,,,166.0097,167.0565,167.0566,168.8214,return,0.547,,40.36458333,0,39,39,56,1,FBP-PT-19.png,0.37,1.2,57,0.25,,,,,,,,,,,,,,,,,,,,,,,,,,,,,,,,,,,,,,,,,,,,,
,,,,,SPR24_056,19,Female,2024-04-16_16h59.47.497,jersey_experiment_5_v0,2023.2.2,Win32,85.47008547,,,,,,,,,,,,,,,,168.8215,170.1156,170.1156,172.2449,return,0.7013,,44.79166667,0,40,40,31,1,FBP-RB-17.png,0.37,1.2,32,0.5,,,,,,,,,,,,,,,,,,,,,,,,,,,,,,,,,,,,,,,,,,,,,
,,,,,SPR24_056,19,Female,2024-04-16_16h59.47.497,jersey_experiment_5_v0,2023.2.2,Win32,85.47008547,,,,,,,,,,,,,,,,172.2451,173.5392,173.5392,174.9039,return,0.5463,,58.72395833,0,41,41,7,1,FBP-OG-81.png,0.4,1.2,8,0.5,,,,,,,,,,,,,,,,,,,,,,,,,,,,,,,,,,,,,,,,,,,,,
,,,,,SPR24_056,19,Female,2024-04-16_16h59.47.497,jersey_experiment_5_v0,2023.2.2,Win32,85.47008547,,,,,,,,,,,,,,,,174.9042,176.1981,176.1981,177.6686,return,0.5145,,78.64583333,0,42,42,44,1,FBP-RB-19.png,0.45,1.2,45,0.5,,,,,,,,,,,,,,,,,,,,,,,,,,,,,,,,,,,,,,,,,,,,,
,,,,,SPR24_056,19,Female,2024-04-16_16h59.47.497,jersey_experiment_5_v0,2023.2.2,Win32,85.47008547,,,,,,,,,,,,,,,,177.6689,178.7158,178.7159,180.4688,return,0.491,,81.51041667,0,43,43,58,1,FBP-PT-19.png,0.43,1.2,59,0.25,,,,,,,,,,,,,,,,,,,,,,,,,,,,,,,,,,,,,,,,,,,,,
,,,,,SPR24_056,19,Female,2024-04-16_16h59.47.497,jersey_experiment_5_v0,2023.2.2,Win32,85.47008547,,,,,,,,,,,,,,,,180.469,181.7631,181.7631,183.0689,return,0.6826,,81.25,0,44,44,33,1,FBP-RB-17.png,0.43,1.2,34,0.5,,,,,,,,,,,,,,,,,,,,,,,,,,,,,,,,,,,,,,,,,,,,,
,,,,,SPR24_056,19,Female,2024-04-16_16h59.47.497,jersey_experiment_5_v0,2023.2.2,Win32,85.47008547,,,,,,,,,,,,,,,,183.0691,184.3629,184.363,185.7985,return,0.628,,81.25,0,45,45,13,1,FBP-OG-91.png,0.43,1.2,14,0.5,,,,,,,,,,,,,,,,,,,,,,,,,,,,,,,,,,,,,,,,,,,,,
,,,,,SPR24_056,19,Female,2024-04-16_16h59.47.497,jersey_experiment_5_v0,2023.2.2,Win32,85.47008547,,,,,,,,,,,,,,,,185.7987,186.8455,186.8456,190.0928,return,2.3067,,62.23958333,0,46,46,22,1,FBP-YG-18.png,0.4,1.2,23,0.25,,,,,,,,,,,,,,,,,,,,,,,,,,,,,,,,,,,,,,,,,,,,,
,,,,,SPR24_056,19,Female,2024-04-16_16h59.47.497,jersey_experiment_5_v0,2023.2.2,Win32,85.47008547,,,,,,,,,,,,,,,,190.093,191.3869,191.3869,193.2459,return,0.7768,,75.91145833,0,47,47,4,1,FBP-OG-71.png,0.45,1.2,5,0.5,,,,,,,,,,,,,,,,,,,,,,,,,,,,,,,,,,,,,,,,,,,,,
,,,,,SPR24_056,19,Female,2024-04-16_16h59.47.497,jersey_experiment_5_v0,2023.2.2,Win32,85.47008547,,,,,,,,,,,,,,,,193.2461,194.5399,194.5399,196.4224,return,1.1348,,75.78125,0,48,48,9,1,FBP-OG-81.png,0.45,1.2,10,0.5,,,,,,,,,,,,,,,,,,,,,,,,,,,,,,,,,,,,,,,,,,,,,
,,,,,SPR24_056,19,Female,2024-04-16_16h59.47.497,jersey_experiment_5_v0,2023.2.2,Win32,85.47008547,,,,,,,,,,,,,,,,196.4227,197.7164,197.7165,199.3165,return,0.5484,,42.1875,0,49,49,30,1,FBP-RB-17.png,0.35,1.2,31,0.5,,,,,,,,,,,,,,,,,,,,,,,,,,,,,,,,,,,,,,,,,,,,,
,,,,,SPR24_056,19,Female,2024-04-16_16h59.47.497,jersey_experiment_5_v0,2023.2.2,Win32,85.47008547,,,,,,,,,,,,,,,,199.3168,200.3636,200.3636,201.9168,return,0.4947,,72.265625,0,50,50,24,1,FBP-YG-18.png,0.45,1.2,25,0.25,,,,,,,,,,,,,,,,,,,,,,,,,,,,,,,,,,,,,,,,,,,,,
,,,,,SPR24_056,19,Female,2024-04-16_16h59.47.497,jersey_experiment_5_v0,2023.2.2,Win32,85.47008547,,,,,,,,,,,,,,,,201.9171,203.2107,203.2108,204.2931,return,0.2906,,75.52083333,0,51,51,14,1,FBP-OG-91.png,0.45,1.2,15,0.5,,,,,,,,,,,,,,,,,,,,,,,,,,,,,,,,,,,,,,,,,,,,,
,,,,,SPR24_056,19,Female,2024-04-16_16h59.47.497,jersey_experiment_5_v0,2023.2.2,Win32,85.47008547,,,,,,,,,,,,,,,,204.2934,205.5874,205.5874,206.6348,return,0.4617,,75.13020833,0,52,52,42,1,FBP-RB-19.png,0.4,1.2,43,0.5,,,,,,,,,,,,,,,,,,,,,,,,,,,,,,,,,,,,,,,,,,,,,
,,,,,SPR24_056,19,Female,2024-04-16_16h59.47.497,jersey_experiment_5_v0,2023.2.2,Win32,85.47008547,,,,,,,,,,,,,,,,206.635,207.9287,207.9287,209.1759,return,0.5925,,75.13020833,0,53,53,8,1,FBP-OG-81.png,0.43,1.2,9,0.5,,,,,,,,,,,,,,,,,,,,,,,,,,,,,,,,,,,,,,,,,,,,,
,,,,,SPR24_056,19,Female,2024-04-16_16h59.47.497,jersey_experiment_5_v0,2023.2.2,Win32,85.47008547,,,,,,,,,,,,,,,,209.1761,210.47,210.4701,211.67,return,0.4768,,75.13020833,0,54,54,39,1,FBP-RB-18.png,0.45,1.2,40,0.5,,,,,,,,,,,,,,,,,,,,,,,,,,,,,,,,,,,,,,,,,,,,,
,,,,,SPR24_056,19,Female,2024-04-16_16h59.47.497,jersey_experiment_5_v0,2023.2.2,Win32,85.47008547,,,,,,,,,,,,,,,,211.6703,212.9641,212.9641,214.4231,return,0.5226,,32.421875,0,55,55,35,1,FBP-RB-18.png,0.35,1.2,36,0.5,,,,,,,,,,,,,,,,,,,,,,,,,,,,,,,,,,,,,,,,,,,,,
,,,,,SPR24_056,19,Female,2024-04-16_16h59.47.497,jersey_experiment_5_v0,2023.2.2,Win32,85.47008547,,,,,,,,,,,,,,,,214.4233,215.4701,215.4701,216.6232,return,0.4575,,32.29166667,0,56,56,57,1,FBP-PT-19.png,0.4,1.2,58,0.25,,,,,,,,,,,,,,,,,,,,,,,,,,,,,,,,,,,,,,,,,,,,,
,,,,,SPR24_056,19,Female,2024-04-16_16h59.47.497,jersey_experiment_5_v0,2023.2.2,Win32,85.47008547,,,,,,,,,,,,,,,,216.6234,217.6703,217.6703,219.7526,return,0.9319,,62.76041667,0,57,57,53,1,FBP-PT-18.png,0.43,1.2,54,0.25,,,,,,,,,,,,,,,,,,,,,,,,,,,,,,,,,,,,,,,,,,,,,
,,,,,SPR24_056,19,Female,2024-04-16_16h59.47.497,jersey_experiment_5_v0,2023.2.2,Win32,85.47008547,,,,,,,,,,,,,,,,219.7529,220.7997,220.7998,222.1881,return,0.4,,31.640625,0,58,58,51,1,FBP-PT-18.png,0.37,1.2,52,0.25,,,,,,,,,,,,,,,,,,,,,,,,,,,,,,,,,,,,,,,,,,,,,
,,,,,SPR24_056,19,Female,2024-04-16_16h59.47.497,jersey_experiment_5_v0,2023.2.2,Win32,85.47008547,,,,,,,,,,,,,,,,222.1883,223.2351,223.2352,225.6116,return,0.3182,,51.953125,0,59,59,47,1,FBP-PT-17.png,0.4,1.2,48,0.25,,,,,,,,,,,,,,,,,,,,,,,,,,,,,,,,,,,,,,,,,,,,,
,,,,,SPR24_056,19,Female,2024-04-16_16h59.47.497,jersey_experiment_5_v0,2023.2.2,Win32,85.47008547,,,,,,,,,,,,,,,,225.6133,226.6588,226.6589,227.7646,return,0.3368,,35.15625,,,,,,FBP-YG-81.png,0.37,1.2,22,0.25,0,0,0,21,1,,,,,,,,,,,,,,,,,,,,,,,,,,,,,,,,,,,,,,,,
,,,,,SPR24_056,19,Female,2024-04-16_16h59.47.497,jersey_experiment_5_v0,2023.2.2,Win32,85.47008547,,,,,,,,,,,,,,,,227.7649,228.8117,228.8118,230.1178,return,0.3955,,36.71875,,,,,,FBP-YG-81.png,0.4,1.2,23,0.25,0,1,1,22,1,,,,,,,,,,,,,,,,,,,,,,,,,,,,,,,,,,,,,,,,
,,,,,SPR24_056,19,Female,2024-04-16_16h59.47.497,jersey_experiment_5_v0,2023.2.2,Win32,85.47008547,,,,,,,,,,,,,,,,230.1182,231.4119,231.412,232.9059,return,0.5312,,65.625,,,,,,FBP-RB-91.png,0.43,1.2,44,0.5,0,2,2,43,1,,,,,,,,,,,,,,,,,,,,,,,,,,,,,,,,,,,,,,,,
,,,,,SPR24_056,19,Female,2024-04-16_16h59.47.497,jersey_experiment_5_v0,2023.2.2,Win32,85.47008547,,,,,,,,,,,,,,,,232.9062,233.9533,233.9533,235.3062,return,0.4503,,39.32291667,,,,,,FBP-YG-91.png,0.37,1.2,27,0.25,0,3,3,26,1,,,,,,,,,,,,,,,,,,,,,,,,,,,,,,,,,,,,,,,,
,,,,,SPR24_056,19,Female,2024-04-16_16h59.47.497,jersey_experiment_5_v0,2023.2.2,Win32,85.47008547,,,,,,,,,,,,,,,,235.3064,236.6003,236.6003,237.7886,return,0.437,,34.765625,,,,,,FBP-OG-17.png,0.37,1.2,2,0.5,0,4,4,1,1,,,,,,,,,,,,,,,,,,,,,,,,,,,,,,,,,,,,,,,,
,,,,,SPR24_056,19,Female,2024-04-16_16h59.47.497,jersey_experiment_5_v0,2023.2.2,Win32,85.47008547,,,,,,,,,,,,,,,,237.7889,238.8357,238.8357,240.2476,return,0.6508,,36.97916667,,,,,,FBP-PT-81.png,0.37,1.2,52,0.25,0,5,5,51,1,,,,,,,,,,,,,,,,,,,,,,,,,,,,,,,,,,,,,,,,
,,,,,SPR24_056,19,Female,2024-04-16_16h59.47.497,jersey_experiment_5_v0,2023.2.2,Win32,85.47008547,,,,,,,,,,,,,,,,240.2479,241.2946,241.2947,242.8241,return,0.4406,,29.94791667,,,,,,FBP-YG-81.png,0.35,1.2,21,0.25,0,6,6,20,1,,,,,,,,,,,,,,,,,,,,,,,,,,,,,,,,,,,,,,,,
,,,,,SPR24_056,19,Female,2024-04-16_16h59.47.497,jersey_experiment_5_v0,2023.2.2,Win32,85.47008547,,,,,,,,,,,,,,,,242.8244,244.1183,244.1183,245.1773,return,0.3795,,25.13020833,,,,,,FBP-OG-17.png,0.35,1.2,1,0.5,0,7,7,0,1,,,,,,,,,,,,,,,,,,,,,,,,,,,,,,,,,,,,,,,,
,,,,,SPR24_056,19,Female,2024-04-16_16h59.47.497,jersey_experiment_5_v0,2023.2.2,Win32,85.47008547,,,,,,,,,,,,,,,,245.1774,246.4713,246.4714,248.142,return,0.4611,,74.21875,,,,,,FBP-RB-91.png,0.45,1.2,45,0.5,0,8,8,44,1,,,,,,,,,,,,,,,,,,,,,,,,,,,,,,,,,,,,,,,,
,,,,,SPR24_056,19,Female,2024-04-16_16h59.47.497,jersey_experiment_5_v0,2023.2.2,Win32,85.47008547,,,,,,,,,,,,,,,,248.1422,249.189,249.189,250.6009,return,0.6164,,74.08854167,,,,,,FBP-YG-81.png,0.43,1.2,24,0.25,0,9,9,23,1,,,,,,,,,,,,,,,,,,,,,,,,,,,,,,,,,,,,,,,,
,,,,,SPR24_056,19,Female,2024-04-16_16h59.47.497,jersey_experiment_5_v0,2023.2.2,Win32,85.47008547,,,,,,,,,,,,,,,,250.6012,251.895,251.895,253.0715,return,0.6122,,74.08854167,,,,,,FBP-RB-81.png,0.4,1.2,38,0.5,0,10,10,37,1,,,,,,,,,,,,,,,,,,,,,,,,,,,,,,,,,,,,,,,,
,,,,,SPR24_056,19,Female,2024-04-16_16h59.47.497,jersey_experiment_5_v0,2023.2.2,Win32,85.47008547,,,,,,,,,,,,,,,,253.0717,254.3657,254.3657,255.754,return,0.4845,,74.08854167,,,,,,FBP-RB-71.png,0.45,1.2,35,0.5,0,11,11,34,1,,,,,,,,,,,,,,,,,,,,,,,,,,,,,,,,,,,,,,,,
,,,,,SPR24_056,19,Female,2024-04-16_16h59.47.497,jersey_experiment_5_v0,2023.2.2,Win32,85.47008547,,,,,,,,,,,,,,,,255.7543,257.0481,257.0481,258.6717,return,0.8706,,74.08854167,,,,,,FBP-OG-17.png,0.45,1.2,5,0.5,0,12,12,4,1,,,,,,,,,,,,,,,,,,,,,,,,,,,,,,,,,,,,,,,,
,,,,,SPR24_056,19,Female,2024-04-16_16h59.47.497,jersey_experiment_5_v0,2023.2.2,Win32,85.47008547,,,,,,,,,,,,,,,,258.672,259.9659,259.9659,261.5895,return,0.7712,,74.08854167,,,,,,FBP-RB-71.png,0.4,1.2,33,0.5,0,13,13,32,1,,,,,,,,,,,,,,,,,,,,,,,,,,,,,,,,,,,,,,,,
,,,,,SPR24_056,19,Female,2024-04-16_16h59.47.497,jersey_experiment_5_v0,2023.2.2,Win32,85.47008547,,,,,,,,,,,,,,,,261.5898,262.6366,262.6367,264.7189,return,0.3394,,65.88541667,,,,,,FBP-PT-71.png,0.4,1.2,48,0.25,0,14,14,47,1,,,,,,,,,,,,,,,,,,,,,,,,,,,,,,,,,,,,,,,,
,,,,,SPR24_056,19,Female,2024-04-16_16h59.47.497,jersey_experiment_5_v0,2023.2.2,Win32,85.47008547,,,,,,,,,,,,,,,,264.7191,265.7661,265.7662,267.8838,return,0.7441,,24.86979167,,,,,,FBP-PT-71.png,0.35,1.2,46,0.25,0,15,15,45,1,,,,,,,,,,,,,,,,,,,,,,,,,,,,,,,,,,,,,,,,
,,,,,SPR24_056,19,Female,2024-04-16_16h59.47.497,jersey_experiment_5_v0,2023.2.2,Win32,85.47008547,,,,,,,,,,,,,,,,267.8841,269.1779,269.178,270.9428,return,0.5874,,74.609375,,,,,,FBP-RB-81.png,0.45,1.2,40,0.5,0,16,16,39,1,,,,,,,,,,,,,,,,,,,,,,,,,,,,,,,,,,,,,,,,
,,,,,SPR24_056,19,Female,2024-04-16_16h59.47.497,jersey_experiment_5_v0,2023.2.2,Win32,85.47008547,,,,,,,,,,,,,,,,270.9431,271.9897,271.9898,273.2134,return,0.3767,,25.26041667,,,,,,FBP-PT-81.png,0.35,1.2,51,0.25,0,17,17,50,1,,,,,,,,,,,,,,,,,,,,,,,,,,,,,,,,,,,,,,,,
,,,,,SPR24_056,19,Female,2024-04-16_16h59.47.497,jersey_experiment_5_v0,2023.2.2,Win32,85.47008547,,,,,,,,,,,,,,,,273.2136,274.2605,274.2605,276.8254,return,0.4258,,37.36979167,,,,,,FBP-YG-71.png,0.37,1.2,17,0.25,0,18,18,16,1,,,,,,,,,,,,,,,,,,,,,,,,,,,,,,,,,,,,,,,,
,,,,,SPR24_056,19,Female,2024-04-16_16h59.47.497,jersey_experiment_5_v0,2023.2.2,Win32,85.47008547,,,,,,,,,,,,,,,,276.8256,278.1196,278.1196,280.5901,return,1.4958,,31.77083333,,,,,,FBP-RB-91.png,0.37,1.2,42,0.5,0,19,19,41,1,,,,,,,,,,,,,,,,,,,,,,,,,,,,,,,,,,,,,,,,
,,,,,SPR24_056,19,Female,2024-04-16_16h59.47.497,jersey_experiment_5_v0,2023.2.2,Win32,85.47008547,,,,,,,,,,,,,,,,280.5903,281.8843,281.8844,283.7551,return,0.3081,,40.88541667,,,,,,FBP-OG-19.png,0.4,1.2,13,0.5,0,20,20,12,1,,,,,,,,,,,,,,,,,,,,,,,,,,,,,,,,,,,,,,,,
,,,,,SPR24_056,19,Female,2024-04-16_16h59.47.497,jersey_experiment_5_v0,2023.2.2,Win32,85.47008547,,,,,,,,,,,,,,,,283.7553,284.8021,284.8022,286.2492,return,0.451,,67.70833333,,,,,,FBP-YG-81.png,0.45,1.2,25,0.25,0,21,21,24,1,,,,,,,,,,,,,,,,,,,,,,,,,,,,,,,,,,,,,,,,
,,,,,SPR24_056,19,Female,2024-04-16_16h59.47.497,jersey_experiment_5_v0,2023.2.2,Win32,85.47008547,,,,,,,,,,,,,,,,286.2495,287.2964,287.2964,289.5671,return,1.2003,,61.06770833,,,,,,FBP-YG-91.png,0.4,1.2,28,0.25,0,22,22,27,1,,,,,,,,,,,,,,,,,,,,,,,,,,,,,,,,,,,,,,,,
,,,,,SPR24_056,19,Female,2024-04-16_16h59.47.497,jersey_experiment_5_v0,2023.2.2,Win32,85.47008547,,,,,,,,,,,,,,,,289.5673,290.8612,290.8613,292.367,return,0.4575,,24.73958333,,,,,,FBP-OG-19.png,0.35,1.2,11,0.5,0,23,23,10,1,,,,,,,,,,,,,,,,,,,,,,,,,,,,,,,,,,,,,,,,
,,,,,SPR24_056,19,Female,2024-04-16_16h59.47.497,jersey_experiment_5_v0,2023.2.2,Win32,85.47008547,,,,,,,,,,,,,,,,292.3673,293.6613,293.6613,295.3908,return,0.5781,,74.86979167,,,,,,FBP-OG-19.png,0.45,1.2,15,0.5,0,24,24,14,1,,,,,,,,,,,,,,,,,,,,,,,,,,,,,,,,,,,,,,,,
,,,,,SPR24_056,19,Female,2024-04-16_16h59.47.497,jersey_experiment_5_v0,2023.2.2,Win32,85.47008547,,,,,,,,,,,,,,,,295.391,296.6849,296.6849,298.3085,return,0.5615,,26.69270833,,,,,,FBP-RB-81.png,0.35,1.2,36,0.5,0,25,25,35,1,,,,,,,,,,,,,,,,,,,,,,,,,,,,,,,,,,,,,,,,
,,,,,SPR24_056,19,Female,2024-04-16_16h59.47.497,jersey_experiment_5_v0,2023.2.2,Win32,85.47008547,,,,,,,,,,,,,,,,298.3088,299.6026,299.6027,301.0146,return,0.4892,,71.484375,,,,,,FBP-OG-18.png,0.45,1.2,10,0.5,0,26,26,9,1,,,,,,,,,,,,,,,,,,,,,,,,,,,,,,,,,,,,,,,,
,,,,,SPR24_056,19,Female,2024-04-16_16h59.47.497,jersey_experiment_5_v0,2023.2.2,Win32,85.47008547,,,,,,,,,,,,,,,,301.0148,302.0616,302.0616,304.4381,return,1.3719,,76.04166667,,,,,,FBP-PT-91.png,0.45,1.2,60,0.25,0,27,27,59,1,,,,,,,,,,,,,,,,,,,,,,,,,,,,,,,,,,,,,,,,
,,,,,SPR24_056,19,Female,2024-04-16_16h59.47.497,jersey_experiment_5_v0,2023.2.2,Win32,85.47008547,,,,,,,,,,,,,,,,304.4384,305.7322,305.7322,307.0618,return,0.5467,,29.03645833,,,,,,FBP-OG-18.png,0.37,1.2,7,0.5,0,28,28,6,1,,,,,,,,,,,,,,,,,,,,,,,,,,,,,,,,,,,,,,,,
,,,,,SPR24_056,19,Female,2024-04-16_16h59.47.497,jersey_experiment_5_v0,2023.2.2,Win32,85.47008547,,,,,,,,,,,,,,,,307.062,308.1088,308.1089,309.6147,return,0.3058,,71.875,,,,,,FBP-PT-71.png,0.43,1.2,49,0.25,0,29,29,48,1,,,,,,,,,,,,,,,,,,,,,,,,,,,,,,,,,,,,,,,,
,,,,,SPR24_056,19,Female,2024-04-16_16h59.47.497,jersey_experiment_5_v0,2023.2.2,Win32,85.47008547,,,,,,,,,,,,,,,,309.615,310.662,310.662,311.5678,return,0.292,,72.00520833,,,,,,FBP-YG-91.png,0.43,1.2,29,0.25,0,30,30,28,1,,,,,,,,,,,,,,,,,,,,,,,,,,,,,,,,,,,,,,,,
,,,,,SPR24_056,19,Female,2024-04-16_16h59.47.497,jersey_experiment_5_v0,2023.2.2,Win32,85.47008547,,,,,,,,,,,,,,,,311.568,312.8618,312.8619,313.9914,return,0.3115,,66.40625,,,,,,FBP-RB-81.png,0.37,1.2,37,0.5,0,31,31,36,1,,,,,,,,,,,,,,,,,,,,,,,,,,,,,,,,,,,,,,,,
,,,,,SPR24_056,19,Female,2024-04-16_16h59.47.497,jersey_experiment_5_v0,2023.2.2,Win32,85.47008547,,,,,,,,,,,,,,,,313.9917,315.0386,315.0386,316.1325,return,0.1968,,64.58333333,,,,,,FBP-YG-71.png,0.4,1.2,18,0.25,0,32,32,17,1,,,,,,,,,,,,,,,,,,,,,,,,,,,,,,,,,,,,,,,,
,,,,,SPR24_056,19,Female,2024-04-16_16h59.47.497,jersey_experiment_5_v0,2023.2.2,Win32,85.47008547,,,,,,,,,,,,,,,,316.1328,317.4269,317.4269,319.8975,return,0.2262,,58.46354167,,,,,,FBP-RB-71.png,0.37,1.2,32,0.5,0,33,33,31,1,,,,,,,,,,,,,,,,,,,,,,,,,,,,,,,,,,,,,,,,
,,,,,SPR24_056,19,Female,2024-04-16_16h59.47.497,jersey_experiment_5_v0,2023.2.2,Win32,85.47008547,,,,,,,,,,,,,,,,319.8977,321.1916,321.1917,322.8271,return,0.7767,,78.90625,,,,,,FBP-OG-19.png,0.43,1.2,14,0.5,0,34,34,13,1,,,,,,,,,,,,,,,,,,,,,,,,,,,,,,,,,,,,,,,,
,,,,,SPR24_056,19,Female,2024-04-16_16h59.47.497,jersey_experiment_5_v0,2023.2.2,Win32,85.47008547,,,,,,,,,,,,,,,,322.8272,324.1213,324.1213,325.4155,return,0.3942,,66.53645833,,,,,,FBP-OG-18.png,0.4,1.2,8,0.5,0,35,35,7,1,,,,,,,,,,,,,,,,,,,,,,,,,,,,,,,,,,,,,,,,
,,,,,SPR24_056,19,Female,2024-04-16_16h59.47.497,jersey_experiment_5_v0,2023.2.2,Win32,85.47008547,,,,,,,,,,,,,,,,325.4156,326.4625,326.4625,328.0155,return,0.2457,,55.078125,,,,,,FBP-PT-91.png,0.37,1.2,57,0.25,0,36,36,56,1,,,,,,,,,,,,,,,,,,,,,,,,,,,,,,,,,,,,,,,,
,,,,,SPR24_056,19,Female,2024-04-16_16h59.47.497,jersey_experiment_5_v0,2023.2.2,Win32,85.47008547,,,,,,,,,,,,,,,,328.0157,329.0626,329.0626,330.5332,return,0.2539,,24.47916667,,,,,,FBP-YG-71.png,0.35,1.2,16,0.25,0,37,37,15,1,,,,,,,,,,,,,,,,,,,,,,,,,,,,,,,,,,,,,,,,
,,,,,SPR24_056,19,Female,2024-04-16_16h59.47.497,jersey_experiment_5_v0,2023.2.2,Win32,85.47008547,,,,,,,,,,,,,,,,330.5334,331.8274,331.8275,333.5921,return,0.3344,,74.86979167,,,,,,FBP-RB-91.png,0.4,1.2,43,0.5,0,38,38,42,1,,,,,,,,,,,,,,,,,,,,,,,,,,,,,,,,,,,,,,,,
,,,,,SPR24_056,19,Female,2024-04-16_16h59.47.497,jersey_experiment_5_v0,2023.2.2,Win32,85.47008547,,,,,,,,,,,,,,,,333.5924,334.6391,334.6393,335.9568,return,0.3592,,61.97916667,,,,,,FBP-PT-91.png,0.4,1.2,58,0.25,0,39,39,57,1,,,,,,,,,,,,,,,,,,,,,,,,,,,,,,,,,,,,,,,,
,,,,,SPR24_056,19,Female,2024-04-16_16h59.47.497,jersey_experiment_5_v0,2023.2.2,Win32,85.47008547,,,,,,,,,,,,,,,,335.9569,337.2512,337.2512,338.2865,return,0.2355,,75.52083333,,,,,,FBP-RB-71.png,0.43,1.2,34,0.5,0,40,40,33,1,,,,,,,,,,,,,,,,,,,,,,,,,,,,,,,,,,,,,,,,
,,,,,SPR24_056,19,Female,2024-04-16_16h59.47.497,jersey_experiment_5_v0,2023.2.2,Win32,85.47008547,,,,,,,,,,,,,,,,338.2866,339.3335,339.3336,341.263,return,0.9992,,43.22916667,,,,,,FBP-YG-91.png,0.35,1.2,26,0.25,0,41,41,25,1,,,,,,,,,,,,,,,,,,,,,,,,,,,,,,,,,,,,,,,,
,,,,,SPR24_056,19,Female,2024-04-16_16h59.47.497,jersey_experiment_5_v0,2023.2.2,Win32,85.47008547,,,,,,,,,,,,,,,,341.2632,342.3102,342.3103,343.7573,return,0.259,,73.4375,,,,,,FBP-PT-81.png,0.45,1.2,55,0.25,0,42,42,54,1,,,,,,,,,,,,,,,,,,,,,,,,,,,,,,,,,,,,,,,,
,,,,,SPR24_056,19,Female,2024-04-16_16h59.47.497,jersey_experiment_5_v0,2023.2.2,Win32,85.47008547,,,,,,,,,,,,,,,,343.7575,345.0514,345.0515,347.0045,return,1.0224,,44.140625,,,,,,FBP-RB-71.png,0.35,1.2,31,0.5,0,43,43,30,1,,,,,,,,,,,,,,,,,,,,,,,,,,,,,,,,,,,,,,,,
,,,,,SPR24_056,19,Female,2024-04-16_16h59.47.497,jersey_experiment_5_v0,2023.2.2,Win32,85.47008547,,,,,,,,,,,,,,,,347.0047,348.2986,348.2987,349.6751,return,0.2964,,45.96354167,,,,,,FBP-OG-19.png,0.37,1.2,12,0.5,0,44,44,11,1,,,,,,,,,,,,,,,,,,,,,,,,,,,,,,,,,,,,,,,,
,,,,,SPR24_056,19,Female,2024-04-16_16h59.47.497,jersey_experiment_5_v0,2023.2.2,Win32,85.47008547,,,,,,,,,,,,,,,,349.6754,350.9692,350.9693,352.7929,return,1.074,,75.65104167,,,,,,FBP-OG-17.png,0.43,1.2,4,0.5,0,45,45,3,1,,,,,,,,,,,,,,,,,,,,,,,,,,,,,,,,,,,,,,,,
,,,,,SPR24_056,19,Female,2024-04-16_16h59.47.497,jersey_experiment_5_v0,2023.2.2,Win32,85.47008547,,,,,,,,,,,,,,,,352.7931,353.84,353.84,354.8283,return,0.4238,,75.390625,,,,,,FBP-PT-81.png,0.4,1.2,53,0.25,0,46,46,52,1,,,,,,,,,,,,,,,,,,,,,,,,,,,,,,,,,,,,,,,,
,,,,,SPR24_056,19,Female,2024-04-16_16h59.47.497,jersey_experiment_5_v0,2023.2.2,Win32,85.47008547,,,,,,,,,,,,,,,,354.8284,355.8753,355.8753,356.5813,return,0.2199,,75.390625,,,,,,FBP-PT-91.png,0.43,1.2,59,0.25,0,47,47,58,1,,,,,,,,,,,,,,,,,,,,,,,,,,,,,,,,,,,,,,,,
,,,,,SPR24_056,19,Female,2024-04-16_16h59.47.497,jersey_experiment_5_v0,2023.2.2,Win32,85.47008547,,,,,,,,,,,,,,,,356.5815,357.6285,357.6285,358.8285,return,0.3994,,75.26041667,,,,,,FBP-YG-91.png,0.45,1.2,30,0.25,0,48,48,29,1,,,,,,,,,,,,,,,,,,,,,,,,,,,,,,,,,,,,,,,,
,,,,,SPR24_056,19,Female,2024-04-16_16h59.47.497,jersey_experiment_5_v0,2023.2.2,Win32,85.47008547,,,,,,,,,,,,,,,,358.8287,360.1226,360.1226,362.5228,return,1.8496,,82.29166667,,,,,,FBP-RB-81.png,0.43,1.2,39,0.5,0,49,49,38,1,,,,,,,,,,,,,,,,,,,,,,,,,,,,,,,,,,,,,,,,
,,,,,SPR24_056,19,Female,2024-04-16_16h59.47.497,jersey_experiment_5_v0,2023.2.2,Win32,85.47008547,,,,,,,,,,,,,,,,362.523,363.5696,363.5697,365.5111,return,0.4651,,47.39583333,,,,,,FBP-PT-71.png,0.37,1.2,47,0.25,0,50,50,46,1,,,,,,,,,,,,,,,,,,,,,,,,,,,,,,,,,,,,,,,,
,,,,,SPR24_056,19,Female,2024-04-16_16h59.47.497,jersey_experiment_5_v0,2023.2.2,Win32,85.47008547,,,,,,,,,,,,,,,,365.5114,366.8052,366.8052,368.1347,return,0.289,,73.828125,,,,,,FBP-OG-18.png,0.43,1.2,9,0.5,0,51,51,8,1,,,,,,,,,,,,,,,,,,,,,,,,,,,,,,,,,,,,,,,,
,,,,,SPR24_056,19,Female,2024-04-16_16h59.47.497,jersey_experiment_5_v0,2023.2.2,Win32,85.47008547,,,,,,,,,,,,,,,,368.1348,369.1817,369.1818,370.3112,return,0.3945,,69.79166667,,,,,,FBP-PT-81.png,0.43,1.2,54,0.25,0,52,52,53,1,,,,,,,,,,,,,,,,,,,,,,,,,,,,,,,,,,,,,,,,
,,,,,SPR24_056,19,Female,2024-04-16_16h59.47.497,jersey_experiment_5_v0,2023.2.2,Win32,85.47008547,,,,,,,,,,,,,,,,370.3114,371.6055,371.6056,374.8524,return,2.1145,,25.13020833,,,,,,FBP-RB-91.png,0.35,1.2,41,0.5,0,53,53,40,1,,,,,,,,,,,,,,,,,,,,,,,,,,,,,,,,,,,,,,,,
,,,,,SPR24_056,19,Female,2024-04-16_16h59.47.497,jersey_experiment_5_v0,2023.2.2,Win32,85.47008547,,,,,,,,,,,,,,,,374.8527,375.8996,375.8996,378.7351,return,0.2335,,46.61458333,,,,,,FBP-PT-91.png,0.35,1.2,56,0.25,0,54,54,55,1,,,,,,,,,,,,,,,,,,,,,,,,,,,,,,,,,,,,,,,,
,,,,,SPR24_056,19,Female,2024-04-16_16h59.47.497,jersey_experiment_5_v0,2023.2.2,Win32,85.47008547,,,,,,,,,,,,,,,,378.7352,380.0292,380.0293,382.747,return,0.436,,50.390625,,,,,,FBP-OG-17.png,0.4,1.2,3,0.5,0,55,55,2,1,,,,,,,,,,,,,,,,,,,,,,,,,,,,,,,,,,,,,,,,
,,,,,SPR24_056,19,Female,2024-04-16_16h59.47.497,jersey_experiment_5_v0,2023.2.2,Win32,85.47008547,,,,,,,,,,,,,,,,382.7471,384.0412,384.0412,385.4648,return,0.4493,,25.52083333,,,,,,FBP-OG-18.png,0.35,1.2,6,0.5,0,56,56,5,1,,,,,,,,,,,,,,,,,,,,,,,,,,,,,,,,,,,,,,,,
,,,,,SPR24_056,19,Female,2024-04-16_16h59.47.497,jersey_experiment_5_v0,2023.2.2,Win32,85.47008547,,,,,,,,,,,,,,,,385.4649,386.5118,386.5118,387.9472,return,0.2609,,75.78125,,,,,,FBP-PT-71.png,0.45,1.2,50,0.25,0,57,57,49,1,,,,,,,,,,,,,,,,,,,,,,,,,,,,,,,,,,,,,,,,
,,,,,SPR24_056,19,Female,2024-04-16_16h59.47.497,jersey_experiment_5_v0,2023.2.2,Win32,85.47008547,,,,,,,,,,,,,,,,387.9474,388.9942,388.9942,390.2531,return,0.4564,,75.13020833,,,,,,FBP-YG-71.png,0.45,1.2,20,0.25,0,58,58,19,1,,,,,,,,,,,,,,,,,,,,,,,,,,,,,,,,,,,,,,,,
,,,,,SPR24_056,19,Female,2024-04-16_16h59.47.497,jersey_experiment_5_v0,2023.2.2,Win32,85.47008547,,,,,,,,,,,,,,,,390.2533,391.3001,391.3001,392.2297,return,0.3465,,75,,,,,,FBP-YG-71.png,0.43,1.2,19,0.25,0,59,59,18,1,,,,,,,,,,,,,,,,,,,,,,,,,,,,,,,,,,,,,,,,
,,,,,SPR24_056,19,Female,2024-04-16_16h59.47.497,jersey_experiment_5_v0,2023.2.2,Win32,85.47008547,,,,,,,,,,,,,,,,,,,,,,,,,,,,,,,,,,,,,,,392.23,512.2228,,,,,,,,,,,,,,,,,,,,,,,,,,,,,,,,,,,,,,
,,,,,SPR24_056,19,Female,2024-04-16_16h59.47.497,jersey_experiment_5_v0,2023.2.2,Win32,85.47008547,,,,,,,,,,,,,,,,,,,,,,,,,,,,,,,,,,,,,,,,,512.2228,518.5053,return,6.2747,,,,,,,,,,,,,,,,,,,,,,,,,,,,,,,,,,
,,,,,SPR24_056,19,Female,2024-04-16_16h59.47.497,jersey_experiment_5_v0,2023.2.2,Win32,85.47008547,,,,,,,,,,,,,,,,518.5111,519.5638,519.5638,522.152,return,0.9923,,26.82291667,,,,,,FBP-RB-17.png,0.37,1.2,32,0.25,,,,,,,,,,,,,0,0,0,31,1,,,,,,,,,,,,,,,,,,,,,,,,,,,,
,,,,,SPR24_056,19,Female,2024-04-16_16h59.47.497,jersey_experiment_5_v0,2023.2.2,Win32,85.47008547,,,,,,,,,,,,,,,,522.1524,523.1991,523.1991,525.3522,return,0.7463,,74.08854167,,,,,,FBP-OG-71.png,0.43,1.2,4,0.25,,,,,,,,,,,,,0,1,1,3,1,,,,,,,,,,,,,,,,,,,,,,,,,,,,
,,,,,SPR24_056,19,Female,2024-04-16_16h59.47.497,jersey_experiment_5_v0,2023.2.2,Win32,85.47008547,,,,,,,,,,,,,,,,525.3525,526.6464,526.6464,528.4464,return,0.8001,,63.80208333,,,,,,FBP-YG-17.png,0.4,1.2,18,0.5,,,,,,,,,,,,,0,2,2,17,1,,,,,,,,,,,,,,,,,,,,,,,,,,,,
,,,,,SPR24_056,19,Female,2024-04-16_16h59.47.497,jersey_experiment_5_v0,2023.2.2,Win32,85.47008547,,,,,,,,,,,,,,,,528.4466,529.7405,529.7405,531.4347,return,0.9072,,28.77604167,,,,,,FBP-PT-19.png,0.35,1.2,56,0.5,,,,,,,,,,,,,0,3,3,55,1,,,,,,,,,,,,,,,,,,,,,,,,,,,,
,,,,,SPR24_056,19,Female,2024-04-16_16h59.47.497,jersey_experiment_5_v0,2023.2.2,Win32,85.47008547,,,,,,,,,,,,,,,,531.435,532.4819,532.4819,535.4467,return,1.0772,,73.69791667,,,,,,FBP-OG-81.png,0.4,1.2,8,0.25,,,,,,,,,,,,,0,4,4,7,1,,,,,,,,,,,,,,,,,,,,,,,,,,,,
,,,,,SPR24_056,19,Female,2024-04-16_16h59.47.497,jersey_experiment_5_v0,2023.2.2,Win32,85.47008547,,,,,,,,,,,,,,,,535.4469,536.4939,536.4939,537.7057,return,0.2274,,77.99479167,,,,,,FBP-OG-81.png,0.45,1.2,10,0.25,,,,,,,,,,,,,0,5,5,9,1,,,,,,,,,,,,,,,,,,,,,,,,,,,,
,,,,,SPR24_056,19,Female,2024-04-16_16h59.47.497,jersey_experiment_5_v0,2023.2.2,Win32,85.47008547,,,,,,,,,,,,,,,,537.7059,538.9999,538.9999,540.2236,return,0.5648,,79.296875,,,,,,FBP-PT-19.png,0.43,1.2,59,0.5,,,,,,,,,,,,,0,6,6,58,1,,,,,,,,,,,,,,,,,,,,,,,,,,,,
,,,,,SPR24_056,19,Female,2024-04-16_16h59.47.497,jersey_experiment_5_v0,2023.2.2,Win32,85.47008547,,,,,,,,,,,,,,,,540.2239,541.5175,541.5176,543.2588,return,0.4011,,24.73958333,,,,,,FBP-YG-19.png,0.35,1.2,26,0.5,,,,,,,,,,,,,0,7,7,25,1,,,,,,,,,,,,,,,,,,,,,,,,,,,,
,,,,,SPR24_056,19,Female,2024-04-16_16h59.47.497,jersey_experiment_5_v0,2023.2.2,Win32,85.47008547,,,,,,,,,,,,,,,,543.259,544.3059,544.306,545.9413,return,0.3593,,75.390625,,,,,,FBP-OG-71.png,0.45,1.2,5,0.25,,,,,,,,,,,,,0,8,8,4,1,,,,,,,,,,,,,,,,,,,,,,,,,,,,
,,,,,SPR24_056,19,Female,2024-04-16_16h59.47.497,jersey_experiment_5_v0,2023.2.2,Win32,85.47008547,,,,,,,,,,,,,,,,545.9415,547.2355,547.2355,548.859,return,0.5178,,25.65104167,,,,,,FBP-YG-18.png,0.35,1.2,21,0.5,,,,,,,,,,,,,0,9,9,20,1,,,,,,,,,,,,,,,,,,,,,,,,,,,,
,,,,,SPR24_056,19,Female,2024-04-16_16h59.47.497,jersey_experiment_5_v0,2023.2.2,Win32,85.47008547,,,,,,,,,,,,,,,,548.8594,549.9061,549.9061,553.6709,return,0.2288,,48.046875,,,,,,FBP-RB-18.png,0.37,1.2,37,0.25,,,,,,,,,,,,,0,10,10,36,1,,,,,,,,,,,,,,,,,,,,,,,,,,,,
,,,,,SPR24_056,19,Female,2024-04-16_16h59.47.497,jersey_experiment_5_v0,2023.2.2,Win32,85.47008547,,,,,,,,,,,,,,,,553.671,554.718,554.7181,556.1181,return,0.2188,,57.55208333,,,,,,FBP-RB-19.png,0.37,1.2,42,0.25,,,,,,,,,,,,,0,11,11,41,1,,,,,,,,,,,,,,,,,,,,,,,,,,,,
,,,,,SPR24_056,19,Female,2024-04-16_16h59.47.497,jersey_experiment_5_v0,2023.2.2,Win32,85.47008547,,,,,,,,,,,,,,,,556.1184,557.4122,557.4122,558.5652,return,0.2905,,59.24479167,,,,,,FBP-YG-17.png,0.37,1.2,17,0.5,,,,,,,,,,,,,0,12,12,16,1,,,,,,,,,,,,,,,,,,,,,,,,,,,,
,,,,,SPR24_056,19,Female,2024-04-16_16h59.47.497,jersey_experiment_5_v0,2023.2.2,Win32,85.47008547,,,,,,,,,,,,,,,,558.5654,559.8593,559.8593,561.0711,return,0.2139,,26.171875,,,,,,FBP-YG-17.png,0.35,1.2,16,0.5,,,,,,,,,,,,,0,13,13,15,1,,,,,,,,,,,,,,,,,,,,,,,,,,,,
,,,,,SPR24_056,19,Female,2024-04-16_16h59.47.497,jersey_experiment_5_v0,2023.2.2,Win32,85.47008547,,,,,,,,,,,,,,,,561.0713,562.3656,562.3656,563.5183,return,0.2497,,75.65104167,,,,,,FBP-YG-17.png,0.43,1.2,19,0.5,,,,,,,,,,,,,0,14,14,18,1,,,,,,,,,,,,,,,,,,,,,,,,,,,,
,,,,,SPR24_056,19,Female,2024-04-16_16h59.47.497,jersey_experiment_5_v0,2023.2.2,Win32,85.47008547,,,,,,,,,,,,,,,,563.5184,564.8125,564.8125,565.8831,return,0.3412,,27.21354167,,,,,,FBP-YG-18.png,0.37,1.2,22,0.5,,,,,,,,,,,,,0,15,15,21,1,,,,,,,,,,,,,,,,,,,,,,,,,,,,
,,,,,SPR24_056,19,Female,2024-04-16_16h59.47.497,jersey_experiment_5_v0,2023.2.2,Win32,85.47008547,,,,,,,,,,,,,,,,565.8832,567.1773,567.1773,568.3186,return,0.3774,,73.4375,,,,,,FBP-YG-19.png,0.45,1.2,30,0.5,,,,,,,,,,,,,0,16,16,29,1,,,,,,,,,,,,,,,,,,,,,,,,,,,,
,,,,,SPR24_056,19,Female,2024-04-16_16h59.47.497,jersey_experiment_5_v0,2023.2.2,Win32,85.47008547,,,,,,,,,,,,,,,,568.3188,569.3654,569.3655,570.6833,return,0.3076,,34.765625,,,,,,FBP-RB-18.png,0.35,1.2,36,0.25,,,,,,,,,,,,,0,17,17,35,1,,,,,,,,,,,,,,,,,,,,,,,,,,,,
,,,,,SPR24_056,19,Female,2024-04-16_16h59.47.497,jersey_experiment_5_v0,2023.2.2,Win32,85.47008547,,,,,,,,,,,,,,,,570.6835,571.7306,571.7307,573.5893,return,1.1128,,52.99479167,,,,,,FBP-OG-91.png,0.4,1.2,13,0.25,,,,,,,,,,,,,0,18,18,12,1,,,,,,,,,,,,,,,,,,,,,,,,,,,,
,,,,,SPR24_056,19,Female,2024-04-16_16h59.47.497,jersey_experiment_5_v0,2023.2.2,Win32,85.47008547,,,,,,,,,,,,,,,,573.5894,574.6364,574.6364,576.0718,return,0.3456,,25.13020833,,,,,,FBP-OG-81.png,0.35,1.2,6,0.25,,,,,,,,,,,,,0,19,19,5,1,,,,,,,,,,,,,,,,,,,,,,,,,,,,
,,,,,SPR24_056,19,Female,2024-04-16_16h59.47.497,jersey_experiment_5_v0,2023.2.2,Win32,85.47008547,,,,,,,,,,,,,,,,576.0719,577.3659,577.3659,578.5894,return,0.3867,,76.04166667,,,,,,FBP-PT-17.png,0.43,1.2,49,0.5,,,,,,,,,,,,,0,20,20,48,1,,,,,,,,,,,,,,,,,,,,,,,,,,,,
,,,,,SPR24_056,19,Female,2024-04-16_16h59.47.497,jersey_experiment_5_v0,2023.2.2,Win32,85.47008547,,,,,,,,,,,,,,,,578.5896,579.8836,579.8836,581.4014,return,0.6612,,47.78645833,,,,,,FBP-PT-18.png,0.37,1.2,52,0.5,,,,,,,,,,,,,0,21,21,51,1,,,,,,,,,,,,,,,,,,,,,,,,,,,,
,,,,,SPR24_056,19,Female,2024-04-16_16h59.47.497,jersey_experiment_5_v0,2023.2.2,Win32,85.47008547,,,,,,,,,,,,,,,,581.4016,582.4483,582.4485,584.0132,return,0.5644,,80.20833333,,,,,,FBP-RB-17.png,0.43,1.2,34,0.25,,,,,,,,,,,,,0,22,22,33,1,,,,,,,,,,,,,,,,,,,,,,,,,,,,
,,,,,SPR24_056,19,Female,2024-04-16_16h59.47.497,jersey_experiment_5_v0,2023.2.2,Win32,85.47008547,,,,,,,,,,,,,,,,584.0134,585.0602,585.0602,586.0959,return,0.2827,,81.51041667,,,,,,FBP-RB-18.png,0.45,1.2,40,0.25,,,,,,,,,,,,,0,23,23,39,1,,,,,,,,,,,,,,,,,,,,,,,,,,,,
,,,,,SPR24_056,19,Female,2024-04-16_16h59.47.497,jersey_experiment_5_v0,2023.2.2,Win32,85.47008547,,,,,,,,,,,,,,,,586.0961,587.3898,587.3898,588.5427,return,0.353,,73.69791667,,,,,,FBP-YG-18.png,0.43,1.2,24,0.5,,,,,,,,,,,,,0,24,24,23,1,,,,,,,,,,,,,,,,,,,,,,,,,,,,
,,,,,SPR24_056,19,Female,2024-04-16_16h59.47.497,jersey_experiment_5_v0,2023.2.2,Win32,85.47008547,,,,,,,,,,,,,,,,588.5429,589.8368,589.8368,592.1899,return,1.1863,,48.69791667,,,,,,FBP-PT-19.png,0.37,1.2,57,0.5,,,,,,,,,,,,,0,25,25,56,1,,,,,,,,,,,,,,,,,,,,,,,,,,,,
,,,,,SPR24_056,19,Female,2024-04-16_16h59.47.497,jersey_experiment_5_v0,2023.2.2,Win32,85.47008547,,,,,,,,,,,,,,,,592.1901,593.4842,593.4842,595.0606,return,0.9263,,25.26041667,,,,,,FBP-PT-17.png,0.35,1.2,46,0.5,,,,,,,,,,,,,0,26,26,45,1,,,,,,,,,,,,,,,,,,,,,,,,,,,,
,,,,,SPR24_056,19,Female,2024-04-16_16h59.47.497,jersey_experiment_5_v0,2023.2.2,Win32,85.47008547,,,,,,,,,,,,,,,,595.0607,596.1078,596.1078,597.096,return,0.2994,,25.26041667,,,,,,FBP-OG-81.png,0.37,1.2,7,0.25,,,,,,,,,,,,,0,27,27,6,1,,,,,,,,,,,,,,,,,,,,,,,,,,,,
,,,,,SPR24_056,19,Female,2024-04-16_16h59.47.497,jersey_experiment_5_v0,2023.2.2,Win32,85.47008547,,,,,,,,,,,,,,,,597.0962,598.1432,598.1432,599.049,return,0.4259,,25.26041667,,,,,,FBP-OG-91.png,0.35,1.2,11,0.25,,,,,,,,,,,,,0,28,28,10,1,,,,,,,,,,,,,,,,,,,,,,,,,,,,
,,,,,SPR24_056,19,Female,2024-04-16_16h59.47.497,jersey_experiment_5_v0,2023.2.2,Win32,85.47008547,,,,,,,,,,,,,,,,599.0492,600.3433,600.3433,601.4373,return,0.3164,,73.69791667,,,,,,FBP-YG-17.png,0.45,1.2,20,0.5,,,,,,,,,,,,,0,29,29,19,1,,,,,,,,,,,,,,,,,,,,,,,,,,,,
,,,,,SPR24_056,19,Female,2024-04-16_16h59.47.497,jersey_experiment_5_v0,2023.2.2,Win32,85.47008547,,,,,,,,,,,,,,,,601.4377,602.4845,602.4845,604.1904,return,0.2591,,27.86458333,,,,,,FBP-RB-17.png,0.35,1.2,31,0.25,,,,,,,,,,,,,0,30,30,30,1,,,,,,,,,,,,,,,,,,,,,,,,,,,,
,,,,,SPR24_056,19,Female,2024-04-16_16h59.47.497,jersey_experiment_5_v0,2023.2.2,Win32,85.47008547,,,,,,,,,,,,,,,,604.1907,605.2376,605.2377,606.5083,return,0.2829,,76.30208333,,,,,,FBP-RB-17.png,0.4,1.2,33,0.25,,,,,,,,,,,,,0,31,31,32,1,,,,,,,,,,,,,,,,,,,,,,,,,,,,
,,,,,SPR24_056,19,Female,2024-04-16_16h59.47.497,jersey_experiment_5_v0,2023.2.2,Win32,85.47008547,,,,,,,,,,,,,,,,606.5085,607.5553,607.5553,608.5905,return,0.3059,,75,,,,,,FBP-RB-19.png,0.43,1.2,44,0.25,,,,,,,,,,,,,0,32,32,43,1,,,,,,,,,,,,,,,,,,,,,,,,,,,,
,,,,,SPR24_056,19,Female,2024-04-16_16h59.47.497,jersey_experiment_5_v0,2023.2.2,Win32,85.47008547,,,,,,,,,,,,,,,,608.5907,609.6377,609.6377,611.0614,return,0.2192,,57.03125,,,,,,FBP-OG-91.png,0.37,1.2,12,0.25,,,,,,,,,,,,,0,33,33,11,1,,,,,,,,,,,,,,,,,,,,,,,,,,,,
,,,,,SPR24_056,19,Female,2024-04-16_16h59.47.497,jersey_experiment_5_v0,2023.2.2,Win32,85.47008547,,,,,,,,,,,,,,,,611.0617,612.3554,612.3554,613.4143,return,0.2985,,27.99479167,,,,,,FBP-PT-17.png,0.37,1.2,47,0.5,,,,,,,,,,,,,0,34,34,46,1,,,,,,,,,,,,,,,,,,,,,,,,,,,,
,,,,,SPR24_056,19,Female,2024-04-16_16h59.47.497,jersey_experiment_5_v0,2023.2.2,Win32,85.47008547,,,,,,,,,,,,,,,,613.4146,614.4614,614.4614,616.5673,return,0.9804,,43.61979167,,,,,,FBP-RB-19.png,0.4,1.2,43,0.25,,,,,,,,,,,,,0,35,35,42,1,,,,,,,,,,,,,,,,,,,,,,,,,,,,
,,,,,SPR24_056,19,Female,2024-04-16_16h59.47.497,jersey_experiment_5_v0,2023.2.2,Win32,85.47008547,,,,,,,,,,,,,,,,616.5676,617.6146,617.6146,621.1675,return,2.0701,,53.125,,,,,,FBP-OG-71.png,0.4,1.2,3,0.25,,,,,,,,,,,,,0,36,36,2,1,,,,,,,,,,,,,,,,,,,,,,,,,,,,
,,,,,SPR24_056,19,Female,2024-04-16_16h59.47.497,jersey_experiment_5_v0,2023.2.2,Win32,85.47008547,,,,,,,,,,,,,,,,621.1678,622.2145,622.2146,623.3559,return,0.3761,,73.95833333,,,,,,FBP-RB-17.png,0.45,1.2,35,0.25,,,,,,,,,,,,,0,37,37,34,1,,,,,,,,,,,,,,,,,,,,,,,,,,,,
,,,,,SPR24_056,19,Female,2024-04-16_16h59.47.497,jersey_experiment_5_v0,2023.2.2,Win32,85.47008547,,,,,,,,,,,,,,,,623.3561,624.6501,624.6501,625.4147,return,0.3356,,73.95833333,,,,,,FBP-PT-17.png,0.45,1.2,50,0.5,,,,,,,,,,,,,0,38,38,49,1,,,,,,,,,,,,,,,,,,,,,,,,,,,,
,,,,,SPR24_056,19,Female,2024-04-16_16h59.47.497,jersey_experiment_5_v0,2023.2.2,Win32,85.47008547,,,,,,,,,,,,,,,,625.415,626.4619,626.4619,627.709,return,0.2342,,27.08333333,,,,,,FBP-OG-71.png,0.35,1.2,1,0.25,,,,,,,,,,,,,0,39,39,0,1,,,,,,,,,,,,,,,,,,,,,,,,,,,,
,,,,,SPR24_056,19,Female,2024-04-16_16h59.47.497,jersey_experiment_5_v0,2023.2.2,Win32,85.47008547,,,,,,,,,,,,,,,,627.7092,628.756,628.756,629.8502,return,0.1794,,74.609375,,,,,,FBP-OG-81.png,0.43,1.2,9,0.25,,,,,,,,,,,,,0,40,40,8,1,,,,,,,,,,,,,,,,,,,,,,,,,,,,
,,,,,SPR24_056,19,Female,2024-04-16_16h59.47.497,jersey_experiment_5_v0,2023.2.2,Win32,85.47008547,,,,,,,,,,,,,,,,629.8505,631.1444,631.1445,631.8503,return,0.2969,,74.609375,,,,,,FBP-YG-19.png,0.43,1.2,29,0.5,,,,,,,,,,,,,0,41,41,28,1,,,,,,,,,,,,,,,,,,,,,,,,,,,,
,,,,,SPR24_056,19,Female,2024-04-16_16h59.47.497,jersey_experiment_5_v0,2023.2.2,Win32,85.47008547,,,,,,,,,,,,,,,,631.8505,633.1444,633.1444,634.1211,return,0.2498,,26.953125,,,,,,FBP-YG-19.png,0.37,1.2,27,0.5,,,,,,,,,,,,,0,42,42,26,1,,,,,,,,,,,,,,,,,,,,,,,,,,,,
,,,,,SPR24_056,19,Female,2024-04-16_16h59.47.497,jersey_experiment_5_v0,2023.2.2,Win32,85.47008547,,,,,,,,,,,,,,,,634.1212,635.1682,635.1682,636.2505,return,0.2835,,36.84895833,,,,,,FBP-RB-18.png,0.4,1.2,38,0.25,,,,,,,,,,,,,0,43,43,37,1,,,,,,,,,,,,,,,,,,,,,,,,,,,,
,,,,,SPR24_056,19,Female,2024-04-16_16h59.47.497,jersey_experiment_5_v0,2023.2.2,Win32,85.47008547,,,,,,,,,,,,,,,,636.2507,637.5446,637.5446,639.4859,return,0.9505,,77.47395833,,,,,,FBP-PT-19.png,0.45,1.2,60,0.5,,,,,,,,,,,,,0,44,44,59,1,,,,,,,,,,,,,,,,,,,,,,,,,,,,
,,,,,SPR24_056,19,Female,2024-04-16_16h59.47.497,jersey_experiment_5_v0,2023.2.2,Win32,85.47008547,,,,,,,,,,,,,,,,639.4861,640.7799,640.7799,641.9564,return,0.3013,,26.953125,,,,,,FBP-PT-18.png,0.35,1.2,51,0.5,,,,,,,,,,,,,0,45,45,50,1,,,,,,,,,,,,,,,,,,,,,,,,,,,,
,,,,,SPR24_056,19,Female,2024-04-16_16h59.47.497,jersey_experiment_5_v0,2023.2.2,Win32,85.47008547,,,,,,,,,,,,,,,,641.9567,643.2506,643.2506,644.2509,return,0.2255,,73.69791667,,,,,,FBP-YG-18.png,0.45,1.2,25,0.5,,,,,,,,,,,,,0,46,46,24,1,,,,,,,,,,,,,,,,,,,,,,,,,,,,
,,,,,SPR24_056,19,Female,2024-04-16_16h59.47.497,jersey_experiment_5_v0,2023.2.2,Win32,85.47008547,,,,,,,,,,,,,,,,644.2511,645.2978,645.2979,646.2978,return,0.2265,,72.78645833,,,,,,FBP-OG-91.png,0.43,1.2,14,0.25,,,,,,,,,,,,,0,47,47,13,1,,,,,,,,,,,,,,,,,,,,,,,,,,,,
,,,,,SPR24_056,19,Female,2024-04-16_16h59.47.497,jersey_experiment_5_v0,2023.2.2,Win32,85.47008547,,,,,,,,,,,,,,,,646.2981,647.5921,647.5921,648.3097,return,0.243,,73.56770833,,,,,,FBP-PT-18.png,0.43,1.2,54,0.5,,,,,,,,,,,,,0,48,48,53,1,,,,,,,,,,,,,,,,,,,,,,,,,,,,
,,,,,SPR24_056,19,Female,2024-04-16_16h59.47.497,jersey_experiment_5_v0,2023.2.2,Win32,85.47008547,,,,,,,,,,,,,,,,648.3099,649.6039,649.6039,650.9216,return,0.1916,,56.90104167,,,,,,FBP-PT-18.png,0.4,1.2,53,0.5,,,,,,,,,,,,,0,49,49,52,1,,,,,,,,,,,,,,,,,,,,,,,,,,,,
,,,,,SPR24_056,19,Female,2024-04-16_16h59.47.497,jersey_experiment_5_v0,2023.2.2,Win32,85.47008547,,,,,,,,,,,,,,,,650.9219,652.2157,652.2158,653.5923,return,0.2145,,53.25520833,,,,,,FBP-YG-18.png,0.4,1.2,23,0.5,,,,,,,,,,,,,0,50,50,22,1,,,,,,,,,,,,,,,,,,,,,,,,,,,,
,,,,,SPR24_056,19,Female,2024-04-16_16h59.47.497,jersey_experiment_5_v0,2023.2.2,Win32,85.47008547,,,,,,,,,,,,,,,,653.5925,654.8864,654.8865,656.5337,return,0.8532,,75,,,,,,FBP-PT-18.png,0.45,1.2,55,0.5,,,,,,,,,,,,,0,51,51,54,1,,,,,,,,,,,,,,,,,,,,,,,,,,,,
,,,,,SPR24_056,19,Female,2024-04-16_16h59.47.497,jersey_experiment_5_v0,2023.2.2,Win32,85.47008547,,,,,,,,,,,,,,,,656.5339,657.8278,657.8278,659.063,return,0.1241,,68.22916667,,,,,,FBP-PT-19.png,0.4,1.2,58,0.5,,,,,,,,,,,,,0,52,52,57,1,,,,,,,,,,,,,,,,,,,,,,,,,,,,
,,,,,SPR24_056,19,Female,2024-04-16_16h59.47.497,jersey_experiment_5_v0,2023.2.2,Win32,85.47008547,,,,,,,,,,,,,,,,659.0632,660.1101,660.1101,661.1337,return,0.1888,,79.03645833,,,,,,FBP-OG-91.png,0.45,1.2,15,0.25,,,,,,,,,,,,,0,53,53,14,1,,,,,,,,,,,,,,,,,,,,,,,,,,,,
,,,,,SPR24_056,19,Female,2024-04-16_16h59.47.497,jersey_experiment_5_v0,2023.2.2,Win32,85.47008547,,,,,,,,,,,,,,,,661.1341,662.4278,662.4278,663.4867,return,0.306,,72.91666667,,,,,,FBP-YG-19.png,0.4,1.2,28,0.5,,,,,,,,,,,,,0,54,54,27,1,,,,,,,,,,,,,,,,,,,,,,,,,,,,
,,,,,SPR24_056,19,Female,2024-04-16_16h59.47.497,jersey_experiment_5_v0,2023.2.2,Win32,85.47008547,,,,,,,,,,,,,,,,663.4869,664.5338,664.5338,665.6399,return,0.2762,,26.953125,,,,,,FBP-RB-19.png,0.35,1.2,41,0.25,,,,,,,,,,,,,0,55,55,40,1,,,,,,,,,,,,,,,,,,,,,,,,,,,,
,,,,,SPR24_056,19,Female,2024-04-16_16h59.47.497,jersey_experiment_5_v0,2023.2.2,Win32,85.47008547,,,,,,,,,,,,,,,,665.6401,666.6867,666.6868,667.7222,return,0.1911,,74.08854167,,,,,,FBP-RB-18.png,0.43,1.2,39,0.25,,,,,,,,,,,,,0,56,56,38,1,,,,,,,,,,,,,,,,,,,,,,,,,,,,
,,,,,SPR24_056,19,Female,2024-04-16_16h59.47.497,jersey_experiment_5_v0,2023.2.2,Win32,85.47008547,,,,,,,,,,,,,,,,667.7224,669.0163,669.0163,670.4753,return,0.1905,,54.81770833,,,,,,FBP-PT-17.png,0.4,1.2,48,0.5,,,,,,,,,,,,,0,57,57,47,1,,,,,,,,,,,,,,,,,,,,,,,,,,,,
,,,,,SPR24_056,19,Female,2024-04-16_16h59.47.497,jersey_experiment_5_v0,2023.2.2,Win32,85.47008547,,,,,,,,,,,,,,,,670.4755,671.5224,671.5225,672.8401,return,0.2155,,24.47916667,,,,,,FBP-OG-71.png,0.37,1.2,2,0.25,,,,,,,,,,,,,0,58,58,1,1,,,,,,,,,,,,,,,,,,,,,,,,,,,,
,,,,,SPR24_056,19,Female,2024-04-16_16h59.47.497,jersey_experiment_5_v0,2023.2.2,Win32,85.47008547,,,,,,,,,,,,,,,,672.8403,673.887,673.8871,674.9108,return,0.2254,,75.65104167,,,,,,FBP-RB-19.png,0.45,1.2,45,0.25,,,,,,,,,,,,,0,59,59,44,1,,,,,,,,,,,,,,,,,,,,,,,,,,,,
,,,,,SPR24_056,19,Female,2024-04-16_16h59.47.497,jersey_experiment_5_v0,2023.2.2,Win32,85.47008547,,,,,,,,,,,,,,,,674.9125,675.9577,675.9578,676.8048,return,0.3143,,75.65104167,,,,,,FBP-RB-91.png,0.43,1.2,44,0.25,,,,,,,,,,,,,,,,,,0,0,0,43,1,,,,,,,,,,,,,,,,,,,,,,,
,,,,,SPR24_056,19,Female,2024-04-16_16h59.47.497,jersey_experiment_5_v0,2023.2.2,Win32,85.47008547,,,,,,,,,,,,,,,,676.8051,677.8519,677.8519,678.6637,return,0.3582,,75.65104167,,,,,,FBP-RB-81.png,0.4,1.2,38,0.25,,,,,,,,,,,,,,,,,,0,1,1,37,1,,,,,,,,,,,,,,,,,,,,,,,
,,,,,SPR24_056,19,Female,2024-04-16_16h59.47.497,jersey_experiment_5_v0,2023.2.2,Win32,85.47008547,,,,,,,,,,,,,,,,678.6639,679.9579,679.9579,680.652,return,0.2719,,75.65104167,,,,,,FBP-YG-91.png,0.43,1.2,29,0.5,,,,,,,,,,,,,,,,,,0,2,2,28,1,,,,,,,,,,,,,,,,,,,,,,,
,,,,,SPR24_056,19,Female,2024-04-16_16h59.47.497,jersey_experiment_5_v0,2023.2.2,Win32,85.47008547,,,,,,,,,,,,,,,,680.6522,681.9464,681.9464,682.6286,return,0.2654,,75.65104167,,,,,,FBP-PT-71.png,0.45,1.2,50,0.5,,,,,,,,,,,,,,,,,,0,3,3,49,1,,,,,,,,,,,,,,,,,,,,,,,
,,,,,SPR24_056,19,Female,2024-04-16_16h59.47.497,jersey_experiment_5_v0,2023.2.2,Win32,85.47008547,,,,,,,,,,,,,,,,682.6289,683.6757,683.6758,685.064,return,0.1698,,28.64583333,,,,,,FBP-OG-17.png,0.37,1.2,2,0.25,,,,,,,,,,,,,,,,,,0,4,4,1,1,,,,,,,,,,,,,,,,,,,,,,,
,,,,,SPR24_056,19,Female,2024-04-16_16h59.47.497,jersey_experiment_5_v0,2023.2.2,Win32,85.47008547,,,,,,,,,,,,,,,,685.0642,686.1111,686.1111,687.9465,return,1.3555,,21.35416667,,,,,,FBP-RB-91.png,0.35,1.2,41,0.25,,,,,,,,,,,,,,,,,,0,5,5,40,1,,,,,,,,,,,,,,,,,,,,,,,
,,,,,SPR24_056,19,Female,2024-04-16_16h59.47.497,jersey_experiment_5_v0,2023.2.2,Win32,85.47008547,,,,,,,,,,,,,,,,687.9467,689.2408,689.2408,690.7349,return,0.4105,,19.921875,,,,,,FBP-PT-91.png,0.37,1.2,57,0.5,,,,,,,,,,,,,,,,,,0,6,6,56,1,,,,,,,,,,,,,,,,,,,,,,,
,,,,,SPR24_056,19,Female,2024-04-16_16h59.47.497,jersey_experiment_5_v0,2023.2.2,Win32,85.47008547,,,,,,,,,,,,,,,,690.7351,691.7819,691.7819,692.9349,return,0.2402,,75.78125,,,,,,FBP-OG-18.png,0.45,1.2,10,0.25,,,,,,,,,,,,,,,,,,0,7,7,9,1,,,,,,,,,,,,,,,,,,,,,,,
,,,,,SPR24_056,19,Female,2024-04-16_16h59.47.497,jersey_experiment_5_v0,2023.2.2,Win32,85.47008547,,,,,,,,,,,,,,,,692.9352,693.982,693.982,695.3588,return,0.3291,,22.13541667,,,,,,FBP-RB-81.png,0.37,1.2,37,0.25,,,,,,,,,,,,,,,,,,0,8,8,36,1,,,,,,,,,,,,,,,,,,,,,,,
,,,,,SPR24_056,19,Female,2024-04-16_16h59.47.497,jersey_experiment_5_v0,2023.2.2,Win32,85.47008547,,,,,,,,,,,,,,,,695.3589,696.6526,696.6527,697.6527,return,0.2203,,39.97395833,,,,,,FBP-YG-91.png,0.4,1.2,28,0.5,,,,,,,,,,,,,,,,,,0,9,9,27,1,,,,,,,,,,,,,,,,,,,,,,,
,,,,,SPR24_056,19,Female,2024-04-16_16h59.47.497,jersey_experiment_5_v0,2023.2.2,Win32,85.47008547,,,,,,,,,,,,,,,,697.653,698.7001,698.7001,700.0292,return,0.1414,,52.99479167,,,,,,FBP-OG-19.png,0.43,1.2,14,0.25,,,,,,,,,,,,,,,,,,0,10,10,13,1,,,,,,,,,,,,,,,,,,,,,,,
,,,,,SPR24_056,19,Female,2024-04-16_16h59.47.497,jersey_experiment_5_v0,2023.2.2,Win32,85.47008547,,,,,,,,,,,,,,,,700.0295,701.3233,701.3233,702.4059,return,0.1952,,26.82291667,,,,,,FBP-PT-91.png,0.35,1.2,56,0.5,,,,,,,,,,,,,,,,,,0,11,11,55,1,,,,,,,,,,,,,,,,,,,,,,,
,,,,,SPR24_056,19,Female,2024-04-16_16h59.47.497,jersey_experiment_5_v0,2023.2.2,Win32,85.47008547,,,,,,,,,,,,,,,,702.4062,703.6999,703.6999,704.6529,return,0.1862,,24.08854167,,,,,,FBP-YG-91.png,0.35,1.2,26,0.5,,,,,,,,,,,,,,,,,,0,12,12,25,1,,,,,,,,,,,,,,,,,,,,,,,
,,,,,SPR24_056,19,Female,2024-04-16_16h59.47.497,jersey_experiment_5_v0,2023.2.2,Win32,85.47008547,,,,,,,,,,,,,,,,704.6531,705.6999,705.6999,706.8766,return,0.2227,,73.4375,,,,,,FBP-RB-71.png,0.45,1.2,35,0.25,,,,,,,,,,,,,,,,,,0,13,13,34,1,,,,,,,,,,,,,,,,,,,,,,,
,,,,,SPR24_056,19,Female,2024-04-16_16h59.47.497,jersey_experiment_5_v0,2023.2.2,Win32,85.47008547,,,,,,,,,,,,,,,,706.8768,707.9235,707.9236,708.8061,return,0.3466,,73.95833333,,,,,,FBP-OG-17.png,0.43,1.2,4,0.25,,,,,,,,,,,,,,,,,,0,14,14,3,1,,,,,,,,,,,,,,,,,,,,,,,
,,,,,SPR24_056,19,Female,2024-04-16_16h59.47.497,jersey_experiment_5_v0,2023.2.2,Win32,85.47008547,,,,,,,,,,,,,,,,708.8063,709.8532,709.8532,710.8416,return,0.1564,,30.46875,,,,,,FBP-OG-19.png,0.35,1.2,11,0.25,,,,,,,,,,,,,,,,,,0,15,15,10,1,,,,,,,,,,,,,,,,,,,,,,,
,,,,,SPR24_056,19,Female,2024-04-16_16h59.47.497,jersey_experiment_5_v0,2023.2.2,Win32,85.47008547,,,,,,,,,,,,,,,,710.8417,711.8885,711.8885,713.0298,return,0.1602,,73.828125,,,,,,FBP-OG-17.png,0.45,1.2,5,0.25,,,,,,,,,,,,,,,,,,0,16,16,4,1,,,,,,,,,,,,,,,,,,,,,,,
,,,,,SPR24_056,19,Female,2024-04-16_16h59.47.497,jersey_experiment_5_v0,2023.2.2,Win32,85.47008547,,,,,,,,,,,,,,,,713.03,714.3241,714.3241,715.2534,return,0.2668,,25.91145833,,,,,,FBP-PT-71.png,0.37,1.2,47,0.5,,,,,,,,,,,,,,,,,,0,17,17,46,1,,,,,,,,,,,,,,,,,,,,,,,
,,,,,SPR24_056,19,Female,2024-04-16_16h59.47.497,jersey_experiment_5_v0,2023.2.2,Win32,85.47008547,,,,,,,,,,,,,,,,715.2536,716.5475,716.5475,717.6064,return,0.2422,,75.78125,,,,,,FBP-YG-71.png,0.4,1.2,18,0.5,,,,,,,,,,,,,,,,,,0,18,18,17,1,,,,,,,,,,,,,,,,,,,,,,,
,,,,,SPR24_056,19,Female,2024-04-16_16h59.47.497,jersey_experiment_5_v0,2023.2.2,Win32,85.47008547,,,,,,,,,,,,,,,,717.6066,718.9004,718.9005,719.6064,return,0.2417,,74.73958333,,,,,,FBP-YG-91.png,0.45,1.2,30,0.5,,,,,,,,,,,,,,,,,,0,19,19,29,1,,,,,,,,,,,,,,,,,,,,,,,
,,,,,SPR24_056,19,Female,2024-04-16_16h59.47.497,jersey_experiment_5_v0,2023.2.2,Win32,85.47008547,,,,,,,,,,,,,,,,719.6067,720.9006,720.9007,721.7361,return,0.2051,,53.90625,,,,,,FBP-YG-71.png,0.37,1.2,17,0.5,,,,,,,,,,,,,,,,,,0,20,20,16,1,,,,,,,,,,,,,,,,,,,,,,,
,,,,,SPR24_056,19,Female,2024-04-16_16h59.47.497,jersey_experiment_5_v0,2023.2.2,Win32,85.47008547,,,,,,,,,,,,,,,,721.7363,722.783,722.7832,723.6891,return,0.1805,,73.046875,,,,,,FBP-OG-18.png,0.43,1.2,9,0.25,,,,,,,,,,,,,,,,,,0,21,21,8,1,,,,,,,,,,,,,,,,,,,,,,,
,,,,,SPR24_056,19,Female,2024-04-16_16h59.47.497,jersey_experiment_5_v0,2023.2.2,Win32,85.47008547,,,,,,,,,,,,,,,,723.6893,724.736,724.736,725.7362,return,0.1685,,27.47395833,,,,,,FBP-OG-17.png,0.35,1.2,1,0.25,,,,,,,,,,,,,,,,,,0,22,22,0,1,,,,,,,,,,,,,,,,,,,,,,,
,,,,,SPR24_056,19,Female,2024-04-16_16h59.47.497,jersey_experiment_5_v0,2023.2.2,Win32,85.47008547,,,,,,,,,,,,,,,,725.7365,727.0302,727.0303,727.901,return,0.0848,,75.52083333,,,,,,FBP-PT-91.png,0.43,1.2,59,0.5,,,,,,,,,,,,,,,,,,0,23,23,58,1,,,,,,,,,,,,,,,,,,,,,,,
,,,,,SPR24_056,19,Female,2024-04-16_16h59.47.497,jersey_experiment_5_v0,2023.2.2,Win32,85.47008547,,,,,,,,,,,,,,,,727.9012,728.9479,728.9479,729.9481,return,0.0952,,26.04166667,,,,,,FBP-OG-18.png,0.35,1.2,6,0.25,,,,,,,,,,,,,,,,,,0,24,24,5,1,,,,,,,,,,,,,,,,,,,,,,,
,,,,,SPR24_056,19,Female,2024-04-16_16h59.47.497,jersey_experiment_5_v0,2023.2.2,Win32,85.47008547,,,,,,,,,,,,,,,,729.9484,731.2422,731.2422,732.313,return,0.0853,,66.27604167,,,,,,FBP-PT-91.png,0.4,1.2,58,0.5,,,,,,,,,,,,,,,,,,0,25,25,57,1,,,,,,,,,,,,,,,,,,,,,,,
,,,,,SPR24_056,19,Female,2024-04-16_16h59.47.497,jersey_experiment_5_v0,2023.2.2,Win32,85.47008547,,,,,,,,,,,,,,,,732.3132,733.3598,733.3599,734.0895,return,0.1202,,75.390625,,,,,,FBP-RB-81.png,0.43,1.2,39,0.25,,,,,,,,,,,,,,,,,,0,26,26,38,1,,,,,,,,,,,,,,,,,,,,,,,
,,,,,SPR24_056,19,Female,2024-04-16_16h59.47.497,jersey_experiment_5_v0,2023.2.2,Win32,85.47008547,,,,,,,,,,,,,,,,734.0897,735.1364,735.1365,736.0071,return,0.1709,,66.40625,,,,,,FBP-OG-18.png,0.37,1.2,7,0.25,,,,,,,,,,,,,,,,,,0,27,27,6,1,,,,,,,,,,,,,,,,,,,,,,,
,,,,,SPR24_056,19,Female,2024-04-16_16h59.47.497,jersey_experiment_5_v0,2023.2.2,Win32,85.47008547,,,,,,,,,,,,,,,,736.0072,737.0543,737.0543,737.9485,return,0.0838,,59.50520833,,,,,,FBP-OG-17.png,0.4,1.2,3,0.25,,,,,,,,,,,,,,,,,,0,28,28,2,1,,,,,,,,,,,,,,,,,,,,,,,
,,,,,SPR24_056,19,Female,2024-04-16_16h59.47.497,jersey_experiment_5_v0,2023.2.2,Win32,85.47008547,,,,,,,,,,,,,,,,737.9487,739.2427,739.2427,739.9485,return,0.1193,,23.828125,,,,,,FBP-YG-81.png,0.37,1.2,22,0.5,,,,,,,,,,,,,,,,,,0,29,29,21,1,,,,,,,,,,,,,,,,,,,,,,,
,,,,,SPR24_056,19,Female,2024-04-16_16h59.47.497,jersey_experiment_5_v0,2023.2.2,Win32,85.47008547,,,,,,,,,,,,,,,,739.9488,741.2428,741.2428,742.0897,return,0.1421,,31.38020833,,,,,,FBP-YG-91.png,0.37,1.2,27,0.5,,,,,,,,,,,,,,,,,,0,30,30,26,1,,,,,,,,,,,,,,,,,,,,,,,
,,,,,SPR24_056,19,Female,2024-04-16_16h59.47.497,jersey_experiment_5_v0,2023.2.2,Win32,85.47008547,,,,,,,,,,,,,,,,742.0899,743.1366,743.1367,744.184,return,0.0403,,33.72395833,,,,,,FBP-RB-91.png,0.37,1.2,42,0.25,,,,,,,,,,,,,,,,,,0,31,31,41,1,,,,,,,,,,,,,,,,,,,,,,,
,,,,,SPR24_056,19,Female,2024-04-16_16h59.47.497,jersey_experiment_5_v0,2023.2.2,Win32,85.47008547,,,,,,,,,,,,,,,,744.1842,745.4781,745.4782,746.3016,return,0.1177,,71.35416667,,,,,,FBP-YG-81.png,0.43,1.2,24,0.5,,,,,,,,,,,,,,,,,,0,32,32,23,1,,,,,,,,,,,,,,,,,,,,,,,
,,,,,SPR24_056,19,Female,2024-04-16_16h59.47.497,jersey_experiment_5_v0,2023.2.2,Win32,85.47008547,,,,,,,,,,,,,,,,746.3017,747.5957,747.5958,749.1134,return,0.8034,,72.13541667,,,,,,FBP-YG-71.png,0.45,1.2,20,0.5,,,,,,,,,,,,,,,,,,0,33,33,19,1,,,,,,,,,,,,,,,,,,,,,,,
,,,,,SPR24_056,19,Female,2024-04-16_16h59.47.497,jersey_experiment_5_v0,2023.2.2,Win32,85.47008547,,,,,,,,,,,,,,,,749.1136,750.1606,750.1606,751.5723,return,0.3263,,26.5625,,,,,,FBP-OG-19.png,0.37,1.2,12,0.25,,,,,,,,,,,,,,,,,,0,34,34,11,1,,,,,,,,,,,,,,,,,,,,,,,
,,,,,SPR24_056,19,Female,2024-04-16_16h59.47.497,jersey_experiment_5_v0,2023.2.2,Win32,85.47008547,,,,,,,,,,,,,,,,751.5725,752.6194,752.6195,753.6313,return,0.1288,,57.8125,,,,,,FBP-RB-91.png,0.4,1.2,43,0.25,,,,,,,,,,,,,,,,,,0,35,35,42,1,,,,,,,,,,,,,,,,,,,,,,,
,,,,,SPR24_056,19,Female,2024-04-16_16h59.47.497,jersey_experiment_5_v0,2023.2.2,Win32,85.47008547,,,,,,,,,,,,,,,,753.6316,754.9255,754.9255,755.7374,return,0.2271,,73.30729167,,,,,,FBP-PT-81.png,0.45,1.2,55,0.5,,,,,,,,,,,,,,,,,,0,36,36,54,1,,,,,,,,,,,,,,,,,,,,,,,
,,,,,SPR24_056,19,Female,2024-04-16_16h59.47.497,jersey_experiment_5_v0,2023.2.2,Win32,85.47008547,,,,,,,,,,,,,,,,755.7377,756.7842,756.7843,757.7021,return,0.2656,,75.65104167,,,,,,FBP-RB-81.png,0.45,1.2,40,0.25,,,,,,,,,,,,,,,,,,0,37,37,39,1,,,,,,,,,,,,,,,,,,,,,,,
,,,,,SPR24_056,19,Female,2024-04-16_16h59.47.497,jersey_experiment_5_v0,2023.2.2,Win32,85.47008547,,,,,,,,,,,,,,,,757.7023,758.7491,758.7493,759.8316,return,0.6054,,80.859375,,,,,,FBP-OG-19.png,0.45,1.2,15,0.25,,,,,,,,,,,,,,,,,,0,38,38,14,1,,,,,,,,,,,,,,,,,,,,,,,
,,,,,SPR24_056,19,Female,2024-04-16_16h59.47.497,jersey_experiment_5_v0,2023.2.2,Win32,85.47008547,,,,,,,,,,,,,,,,759.8317,760.8785,760.8785,762.7256,return,1.0778,,62.36979167,,,,,,FBP-RB-71.png,0.35,1.2,31,0.25,,,,,,,,,,,,,,,,,,0,39,39,30,1,,,,,,,,,,,,,,,,,,,,,,,
,,,,,SPR24_056,19,Female,2024-04-16_16h59.47.497,jersey_experiment_5_v0,2023.2.2,Win32,85.47008547,,,,,,,,,,,,,,,,762.7258,763.7727,763.7728,764.5844,return,0.1575,,54.55729167,,,,,,FBP-RB-71.png,0.4,1.2,33,0.25,,,,,,,,,,,,,,,,,,0,40,40,32,1,,,,,,,,,,,,,,,,,,,,,,,
,,,,,SPR24_056,19,Female,2024-04-16_16h59.47.497,jersey_experiment_5_v0,2023.2.2,Win32,85.47008547,,,,,,,,,,,,,,,,764.5846,765.8787,765.8787,766.6199,return,0.2599,,54.55729167,,,,,,FBP-PT-81.png,0.4,1.2,53,0.5,,,,,,,,,,,,,,,,,,0,41,41,52,1,,,,,,,,,,,,,,,,,,,,,,,
,,,,,SPR24_056,19,Female,2024-04-16_16h59.47.497,jersey_experiment_5_v0,2023.2.2,Win32,85.47008547,,,,,,,,,,,,,,,,766.6201,767.9139,767.914,768.6318,return,0.1219,,75.91145833,,,,,,FBP-YG-81.png,0.45,1.2,25,0.5,,,,,,,,,,,,,,,,,,0,42,42,24,1,,,,,,,,,,,,,,,,,,,,,,,
,,,,,SPR24_056,19,Female,2024-04-16_16h59.47.497,jersey_experiment_5_v0,2023.2.2,Win32,85.47008547,,,,,,,,,,,,,,,,768.632,769.6789,769.6789,771.0201,return,0.2597,,75.91145833,,,,,,FBP-RB-71.png,0.37,1.2,32,0.25,,,,,,,,,,,,,,,,,,0,43,43,31,1,,,,,,,,,,,,,,,,,,,,,,,
,,,,,SPR24_056,19,Female,2024-04-16_16h59.47.497,jersey_experiment_5_v0,2023.2.2,Win32,85.47008547,,,,,,,,,,,,,,,,771.0203,772.3143,772.3143,773.6204,return,0.2798,,26.5625,,,,,,FBP-PT-71.png,0.35,1.2,46,0.5,,,,,,,,,,,,,,,,,,0,44,44,45,1,,,,,,,,,,,,,,,,,,,,,,,
,,,,,SPR24_056,19,Female,2024-04-16_16h59.47.497,jersey_experiment_5_v0,2023.2.2,Win32,85.47008547,,,,,,,,,,,,,,,,773.6206,774.6673,774.6673,775.832,return,0.6052,,20.96354167,,,,,,FBP-RB-81.png,0.35,1.2,36,0.25,,,,,,,,,,,,,,,,,,0,45,45,35,1,,,,,,,,,,,,,,,,,,,,,,,
,,,,,SPR24_056,19,Female,2024-04-16_16h59.47.497,jersey_experiment_5_v0,2023.2.2,Win32,85.47008547,,,,,,,,,,,,,,,,775.8323,777.1262,777.1262,778.1381,return,0.1325,,71.484375,,,,,,FBP-YG-71.png,0.43,1.2,19,0.5,,,,,,,,,,,,,,,,,,0,46,46,18,1,,,,,,,,,,,,,,,,,,,,,,,
,,,,,SPR24_056,19,Female,2024-04-16_16h59.47.497,jersey_experiment_5_v0,2023.2.2,Win32,85.47008547,,,,,,,,,,,,,,,,778.1383,779.1852,779.1852,779.9969,return,0.1309,,65.49479167,,,,,,FBP-OG-19.png,0.4,1.2,13,0.25,,,,,,,,,,,,,,,,,,0,47,47,12,1,,,,,,,,,,,,,,,,,,,,,,,
,,,,,SPR24_056,19,Female,2024-04-16_16h59.47.497,jersey_experiment_5_v0,2023.2.2,Win32,85.47008547,,,,,,,,,,,,,,,,779.997,781.291,781.291,782.1263,return,0.1411,,79.94791667,,,,,,FBP-PT-91.png,0.45,1.2,60,0.5,,,,,,,,,,,,,,,,,,0,48,48,59,1,,,,,,,,,,,,,,,,,,,,,,,
,,,,,SPR24_056,19,Female,2024-04-16_16h59.47.497,jersey_experiment_5_v0,2023.2.2,Win32,85.47008547,,,,,,,,,,,,,,,,782.1266,783.4206,783.4207,784.1971,return,0.196,,79.94791667,,,,,,FBP-PT-71.png,0.4,1.2,48,0.5,,,,,,,,,,,,,,,,,,0,49,49,47,1,,,,,,,,,,,,,,,,,,,,,,,
,,,,,SPR24_056,19,Female,2024-04-16_16h59.47.497,jersey_experiment_5_v0,2023.2.2,Win32,85.47008547,,,,,,,,,,,,,,,,784.1973,785.2441,785.2441,786.4559,return,0.1096,,78.77604167,,,,,,FBP-RB-71.png,0.43,1.2,34,0.25,,,,,,,,,,,,,,,,,,0,50,50,33,1,,,,,,,,,,,,,,,,,,,,,,,
,,,,,SPR24_056,19,Female,2024-04-16_16h59.47.497,jersey_experiment_5_v0,2023.2.2,Win32,85.47008547,,,,,,,,,,,,,,,,786.4561,787.5032,787.5032,788.4444,return,0.1405,,81.38020833,,,,,,FBP-RB-91.png,0.45,1.2,45,0.25,,,,,,,,,,,,,,,,,,0,51,51,44,1,,,,,,,,,,,,,,,,,,,,,,,
,,,,,SPR24_056,19,Female,2024-04-16_16h59.47.497,jersey_experiment_5_v0,2023.2.2,Win32,85.47008547,,,,,,,,,,,,,,,,788.4445,789.7384,789.7385,790.6679,return,0.3774,,81.51041667,,,,,,FBP-PT-71.png,0.43,1.2,49,0.5,,,,,,,,,,,,,,,,,,0,52,52,48,1,,,,,,,,,,,,,,,,,,,,,,,
,,,,,SPR24_056,19,Female,2024-04-16_16h59.47.497,jersey_experiment_5_v0,2023.2.2,Win32,85.47008547,,,,,,,,,,,,,,,,790.6682,791.962,791.962,793.068,return,0.2131,,25.390625,,,,,,FBP-YG-71.png,0.35,1.2,16,0.5,,,,,,,,,,,,,,,,,,0,53,53,15,1,,,,,,,,,,,,,,,,,,,,,,,
,,,,,SPR24_056,19,Female,2024-04-16_16h59.47.497,jersey_experiment_5_v0,2023.2.2,Win32,85.47008547,,,,,,,,,,,,,,,,793.0681,794.3621,794.3621,795.7739,return,0.1988,,58.46354167,,,,,,FBP-YG-81.png,0.4,1.2,23,0.5,,,,,,,,,,,,,,,,,,0,54,54,22,1,,,,,,,,,,,,,,,,,,,,,,,
,,,,,SPR24_056,19,Female,2024-04-16_16h59.47.497,jersey_experiment_5_v0,2023.2.2,Win32,85.47008547,,,,,,,,,,,,,,,,795.774,797.0681,797.0682,797.9741,return,0.4061,,58.46354167,,,,,,FBP-PT-81.png,0.43,1.2,54,0.5,,,,,,,,,,,,,,,,,,0,55,55,53,1,,,,,,,,,,,,,,,,,,,,,,,
,,,,,SPR24_056,19,Female,2024-04-16_16h59.47.497,jersey_experiment_5_v0,2023.2.2,Win32,85.47008547,,,,,,,,,,,,,,,,797.9743,799.2683,799.2683,801.4213,return,1.2798,,25,,,,,,FBP-YG-81.png,0.35,1.2,21,0.5,,,,,,,,,,,,,,,,,,0,56,56,20,1,,,,,,,,,,,,,,,,,,,,,,,
,,,,,SPR24_056,19,Female,2024-04-16_16h59.47.497,jersey_experiment_5_v0,2023.2.2,Win32,85.47008547,,,,,,,,,,,,,,,,801.4215,802.4685,802.4685,804.9979,return,0.5485,,47.39583333,,,,,,FBP-OG-18.png,0.4,1.2,8,0.25,,,,,,,,,,,,,,,,,,0,57,57,7,1,,,,,,,,,,,,,,,,,,,,,,,
,,,,,SPR24_056,19,Female,2024-04-16_16h59.47.497,jersey_experiment_5_v0,2023.2.2,Win32,85.47008547,,,,,,,,,,,,,,,,804.998,806.292,806.292,807.3273,return,0.2914,,24.34895833,,,,,,FBP-PT-81.png,0.35,1.2,51,0.5,,,,,,,,,,,,,,,,,,0,58,58,50,1,,,,,,,,,,,,,,,,,,,,,,,
,,,,,SPR24_056,19,Female,2024-04-16_16h59.47.497,jersey_experiment_5_v0,2023.2.2,Win32,85.47008547,,,,,,,,,,,,,,,,807.3275,808.6215,808.6215,809.6098,return,0.3093,,24.34895833,,,,,,FBP-PT-81.png,0.37,1.2,52,0.5,,,,,,,,,,,,,,,,,,0,59,59,51,1,,,,,,,,,,,,,,,,,,,,,,,
,,,,,SPR24_056,19,Female,2024-04-16_16h59.47.497,jersey_experiment_5_v0,2023.2.2,Win32,85.47008547,,,,,,,,,,,,,,,,,,,,,,,,,,,,,,,,,,,,,,,,,,,,,,,,,,,,,,,,809.6103,813.4219,return,3.7971,,,,,,,,,,,,,,,,,,,
,,,,,SPR24_056,19,Female,2024-04-16_16h59.47.497,jersey_experiment_5_v0,2023.2.2,Win32,85.47008547,,,,,,,,,,,,,,,,,,,,,,,,,,,,,,,,,,,,,,,,,,,,,,,,,,,,,,,,,,,,,813.422,816.9396,1,2.6919,return,0.8004,,,,,,,,,,,,
,,,,,SPR24_056,19,Female,2024-04-16_16h59.47.497,jersey_experiment_5_v0,2023.2.2,Win32,85.47008547,,,,,,,,,,,,,,,,,,,,,,,,,,,,,,,,,,,,,,,,,,,,,,,,,,,,,,,,,,,,,,,,,,,,816.9397,845.6749,maybe race and color perception and no.,right,21.0408,,,,,,
,,,,,SPR24_056,19,Female,2024-04-16_16h59.47.497,jersey_experiment_5_v0,2023.2.2,Win32,85.47008547,,,,,,,,,,,,,,,,,,,,,,,,,,,,,,,,,,,,,,,,,,,,,,,,,,,,,,,,,,,,,,,,,,,,,,,,,,845.6749,848.4231,return,2.7417,