requirements.started,requirements.stopped,key_resp_3.keys,key_resp_3.rt,key_resp_3.duration,Subject ID,Age,Gender,date,expName,psychopyVersion,OS,frameRate,instructions1.started,instructions1.stopped,key_resp.keys,key_resp.rt,key_resp.duration,example.started,example.stopped,enter_2.keys,enter_2.rt,enter_2.duration,instructions2.started,instructions2.stopped,enter_3.keys,enter_3.rt,enter_3.duration,image.started,image.stopped,slider_2.started,slider_2.stopped,next.keys,next.rt,next.duration,slider.response,trial_block_1.thisRepN,trial_block_1.thisTrialN,trial_block_1.thisN,trial_block_1.thisIndex,trial_block_1.ran,Path,Width,Height,Index,Duration,trial_block_2.thisRepN,trial_block_2.thisTrialN,trial_block_2.thisN,trial_block_2.thisIndex,trial_block_2.ran,rest_break.started,rest_break.stopped,end_break.started,end_break.stopped,key_resp_5.keys,key_resp_5.rt,key_resp_5.duration,trial_block_3.thisRepN,trial_block_3.thisTrialN,trial_block_3.thisN,trial_block_3.thisIndex,trial_block_3.ran,trial_block_4.thisRepN,trial_block_4.thisTrialN,trial_block_4.thisN,trial_block_4.thisIndex,trial_block_4.ran,questions_intro.started,questions_intro.stopped,enter_12.keys,enter_12.rt,enter_12.duration,question2.started,question2.stopped,question_doingbest.response,question_doingbest.rt,enter_15.keys,enter_15.rt,enter_15.duration,pattern.started,pattern.stopped,pattern_2.text,enter_17.keys,enter_17.rt,enter_17.duration,thankyou.started,thankyou.stopped,enter_14.keys,enter_14.rt,enter_14.duration
9.99999E-05,8.7917,return,8.7862,,SPR24_012,20,Female,2024-04-08_11h31.44.143,jersey_experiment_5_v0,2023.2.2,Win32,84.74576271,,,,,,,,,,,,,,,,,,,,,,,,,,,,,,,,,,,,,,,,,,,,,,,,,,,,,,,,,,,,,,,,,,,,,,,,,,,,,,
,,,,,SPR24_012,20,Female,2024-04-08_11h31.44.143,jersey_experiment_5_v0,2023.2.2,Win32,84.74576271,8.7917,17.6991,return,8.8943,,,,,,,,,,,,,,,,,,,,,,,,,,,,,,,,,,,,,,,,,,,,,,,,,,,,,,,,,,,,,,,,,,,,,,,,,,
,,,,,SPR24_012,20,Female,2024-04-08_11h31.44.143,jersey_experiment_5_v0,2023.2.2,Win32,84.74576271,,,,,,17.6992,22.8004,return,5.0646,,,,,,,,,,,,,,,,,,,,,,,,,,,,,,,,,,,,,,,,,,,,,,,,,,,,,,,,,,,,,,,,,,,,,
,,,,,SPR24_012,20,Female,2024-04-08_11h31.44.143,jersey_experiment_5_v0,2023.2.2,Win32,84.74576271,,,,,,,,,,,22.8006,54.5428,return,31.7274,,,,,,,,,,,,,,,,,,,,,,,,,,,,,,,,,,,,,,,,,,,,,,,,,,,,,,,,,,,,,,,,
,,,,,SPR24_012,20,Female,2024-04-08_11h31.44.143,jersey_experiment_5_v0,2023.2.2,Win32,84.74576271,,,,,,,,,,,,,,,,54.5491,55.8483,55.8485,63.0723,return,4.165,,74.47916667,0,0,0,4,1,FBP-OG-71.png,0.45,1.2,5,0.5,,,,,,,,,,,,,,,,,,,,,,,,,,,,,,,,,,,,,,,,,,,,,
,,,,,SPR24_012,20,Female,2024-04-08_11h31.44.143,jersey_experiment_5_v0,2023.2.2,Win32,84.74576271,,,,,,,,,,,,,,,,63.0765,64.3782,64.3782,66.1075,return,0.3534,,50,0,1,1,12,1,FBP-OG-91.png,0.4,1.2,13,0.5,,,,,,,,,,,,,,,,,,,,,,,,,,,,,,,,,,,,,,,,,,,,,
,,,,,SPR24_012,20,Female,2024-04-08_11h31.44.143,jersey_experiment_5_v0,2023.2.2,Win32,84.74576271,,,,,,,,,,,,,,,,66.1078,67.4017,67.4017,70.1549,return,0.2371,,75.26041667,0,2,2,34,1,FBP-RB-17.png,0.45,1.2,35,0.5,,,,,,,,,,,,,,,,,,,,,,,,,,,,,,,,,,,,,,,,,,,,,
,,,,,SPR24_012,20,Female,2024-04-08_11h31.44.143,jersey_experiment_5_v0,2023.2.2,Win32,84.74576271,,,,,,,,,,,,,,,,70.1552,71.2017,71.2017,72.6961,return,0.1924,,50.26041667,0,3,3,46,1,FBP-PT-17.png,0.37,1.2,47,0.25,,,,,,,,,,,,,,,,,,,,,,,,,,,,,,,,,,,,,,,,,,,,,
,,,,,SPR24_012,20,Female,2024-04-08_11h31.44.143,jersey_experiment_5_v0,2023.2.2,Win32,84.74576271,,,,,,,,,,,,,,,,72.6963,73.7432,73.7432,75.7902,return,0.5751,,24.73958333,0,4,4,20,1,FBP-YG-18.png,0.35,1.2,21,0.25,,,,,,,,,,,,,,,,,,,,,,,,,,,,,,,,,,,,,,,,,,,,,
,,,,,SPR24_012,20,Female,2024-04-08_11h31.44.143,jersey_experiment_5_v0,2023.2.2,Win32,84.74576271,,,,,,,,,,,,,,,,75.7904,76.8374,76.8375,79.7552,return,0.2499,,50.52083333,0,5,5,47,1,FBP-PT-17.png,0.4,1.2,48,0.25,,,,,,,,,,,,,,,,,,,,,,,,,,,,,,,,,,,,,,,,,,,,,
,,,,,SPR24_012,20,Female,2024-04-08_11h31.44.143,jersey_experiment_5_v0,2023.2.2,Win32,84.74576271,,,,,,,,,,,,,,,,79.7555,80.8023,80.8023,82.426,return,0.4742,,75,0,6,6,49,1,FBP-PT-17.png,0.45,1.2,50,0.25,,,,,,,,,,,,,,,,,,,,,,,,,,,,,,,,,,,,,,,,,,,,,
,,,,,SPR24_012,20,Female,2024-04-08_11h31.44.143,jersey_experiment_5_v0,2023.2.2,Win32,84.74576271,,,,,,,,,,,,,,,,82.4263,83.7199,83.72,85.2377,return,0.3964,,50.13020833,0,7,7,36,1,FBP-RB-18.png,0.37,1.2,37,0.5,,,,,,,,,,,,,,,,,,,,,,,,,,,,,,,,,,,,,,,,,,,,,
,,,,,SPR24_012,20,Female,2024-04-08_11h31.44.143,jersey_experiment_5_v0,2023.2.2,Win32,84.74576271,,,,,,,,,,,,,,,,85.2379,86.5321,86.5322,88.0614,return,0.3897,,49.34895833,0,8,8,10,1,FBP-OG-91.png,0.35,1.2,11,0.5,,,,,,,,,,,,,,,,,,,,,,,,,,,,,,,,,,,,,,,,,,,,,
,,,,,SPR24_012,20,Female,2024-04-08_11h31.44.143,jersey_experiment_5_v0,2023.2.2,Win32,84.74576271,,,,,,,,,,,,,,,,88.0617,89.3556,89.3556,90.6029,return,0.2506,,25.78125,0,9,9,5,1,FBP-OG-81.png,0.35,1.2,6,0.5,,,,,,,,,,,,,,,,,,,,,,,,,,,,,,,,,,,,,,,,,,,,,
,,,,,SPR24_012,20,Female,2024-04-08_11h31.44.143,jersey_experiment_5_v0,2023.2.2,Win32,84.74576271,,,,,,,,,,,,,,,,90.6031,91.6496,91.6497,94.744,return,0.5121,,49.86979167,0,10,10,57,1,FBP-PT-19.png,0.4,1.2,58,0.25,,,,,,,,,,,,,,,,,,,,,,,,,,,,,,,,,,,,,,,,,,,,,
,,,,,SPR24_012,20,Female,2024-04-08_11h31.44.143,jersey_experiment_5_v0,2023.2.2,Win32,84.74576271,,,,,,,,,,,,,,,,94.7443,96.0384,96.0384,97.7439,return,0.3768,,75.390625,0,11,11,9,1,FBP-OG-81.png,0.45,1.2,10,0.5,,,,,,,,,,,,,,,,,,,,,,,,,,,,,,,,,,,,,,,,,,,,,
,,,,,SPR24_012,20,Female,2024-04-08_11h31.44.143,jersey_experiment_5_v0,2023.2.2,Win32,84.74576271,,,,,,,,,,,,,,,,97.7442,99.0382,99.0383,100.1911,return,0.3301,,74.609375,0,12,12,14,1,FBP-OG-91.png,0.45,1.2,15,0.5,,,,,,,,,,,,,,,,,,,,,,,,,,,,,,,,,,,,,,,,,,,,,
,,,,,SPR24_012,20,Female,2024-04-08_11h31.44.143,jersey_experiment_5_v0,2023.2.2,Win32,84.74576271,,,,,,,,,,,,,,,,100.1914,101.4853,101.4853,102.5442,return,0.2353,,50.78125,0,13,13,1,1,FBP-OG-71.png,0.37,1.2,2,0.5,,,,,,,,,,,,,,,,,,,,,,,,,,,,,,,,,,,,,,,,,,,,,
,,,,,SPR24_012,20,Female,2024-04-08_11h31.44.143,jersey_experiment_5_v0,2023.2.2,Win32,84.74576271,,,,,,,,,,,,,,,,102.5444,103.8384,103.8384,104.9209,return,0.2748,,74.21875,0,14,14,44,1,FBP-RB-19.png,0.45,1.2,45,0.5,,,,,,,,,,,,,,,,,,,,,,,,,,,,,,,,,,,,,,,,,,,,,
,,,,,SPR24_012,20,Female,2024-04-08_11h31.44.143,jersey_experiment_5_v0,2023.2.2,Win32,84.74576271,,,,,,,,,,,,,,,,104.921,105.9679,105.9679,107.4976,return,0.3801,,99.21875,0,15,15,24,1,FBP-YG-18.png,0.45,1.2,25,0.25,,,,,,,,,,,,,,,,,,,,,,,,,,,,,,,,,,,,,,,,,,,,,
,,,,,SPR24_012,20,Female,2024-04-08_11h31.44.143,jersey_experiment_5_v0,2023.2.2,Win32,84.74576271,,,,,,,,,,,,,,,,107.4978,108.5445,108.5446,110.2388,return,0.3064,,50.390625,0,16,16,25,1,FBP-YG-19.png,0.35,1.2,26,0.25,,,,,,,,,,,,,,,,,,,,,,,,,,,,,,,,,,,,,,,,,,,,,
,,,,,SPR24_012,20,Female,2024-04-08_11h31.44.143,jersey_experiment_5_v0,2023.2.2,Win32,84.74576271,,,,,,,,,,,,,,,,110.239,111.2858,111.2858,112.5211,return,0.2275,,73.4375,0,17,17,19,1,FBP-YG-17.png,0.45,1.2,20,0.25,,,,,,,,,,,,,,,,,,,,,,,,,,,,,,,,,,,,,,,,,,,,,
,,,,,SPR24_012,20,Female,2024-04-08_11h31.44.143,jersey_experiment_5_v0,2023.2.2,Win32,84.74576271,,,,,,,,,,,,,,,,112.5214,113.8153,113.8153,116.1447,return,0.3532,,74.47916667,0,18,18,13,1,FBP-OG-91.png,0.43,1.2,14,0.5,,,,,,,,,,,,,,,,,,,,,,,,,,,,,,,,,,,,,,,,,,,,,
,,,,,SPR24_012,20,Female,2024-04-08_11h31.44.143,jersey_experiment_5_v0,2023.2.2,Win32,84.74576271,,,,,,,,,,,,,,,,116.145,117.1918,117.1919,119.5803,return,0.402,,50.65104167,0,19,19,21,1,FBP-YG-18.png,0.37,1.2,22,0.25,,,,,,,,,,,,,,,,,,,,,,,,,,,,,,,,,,,,,,,,,,,,,
,,,,,SPR24_012,20,Female,2024-04-08_11h31.44.143,jersey_experiment_5_v0,2023.2.2,Win32,84.74576271,,,,,,,,,,,,,,,,119.5805,120.6274,120.6274,122.3803,return,0.3546,,74.86979167,0,20,20,29,1,FBP-YG-19.png,0.45,1.2,30,0.25,,,,,,,,,,,,,,,,,,,,,,,,,,,,,,,,,,,,,,,,,,,,,
,,,,,SPR24_012,20,Female,2024-04-08_11h31.44.143,jersey_experiment_5_v0,2023.2.2,Win32,84.74576271,,,,,,,,,,,,,,,,122.3806,123.6746,123.6747,125.1452,return,0.2853,,49.73958333,0,21,21,31,1,FBP-RB-17.png,0.37,1.2,32,0.5,,,,,,,,,,,,,,,,,,,,,,,,,,,,,,,,,,,,,,,,,,,,,
,,,,,SPR24_012,20,Female,2024-04-08_11h31.44.143,jersey_experiment_5_v0,2023.2.2,Win32,84.74576271,,,,,,,,,,,,,,,,125.1454,126.1921,126.1922,128.0393,return,0.3011,,74.73958333,0,22,22,54,1,FBP-PT-18.png,0.45,1.2,55,0.25,,,,,,,,,,,,,,,,,,,,,,,,,,,,,,,,,,,,,,,,,,,,,
,,,,,SPR24_012,20,Female,2024-04-08_11h31.44.143,jersey_experiment_5_v0,2023.2.2,Win32,84.74576271,,,,,,,,,,,,,,,,128.0396,129.3337,129.3338,131.9337,return,0.2121,,24.73958333,0,23,23,30,1,FBP-RB-17.png,0.35,1.2,31,0.5,,,,,,,,,,,,,,,,,,,,,,,,,,,,,,,,,,,,,,,,,,,,,
,,,,,SPR24_012,20,Female,2024-04-08_11h31.44.143,jersey_experiment_5_v0,2023.2.2,Win32,84.74576271,,,,,,,,,,,,,,,,131.934,133.2279,133.2279,134.5338,return,0.1711,,24.86979167,0,24,24,0,1,FBP-OG-71.png,0.35,1.2,1,0.5,,,,,,,,,,,,,,,,,,,,,,,,,,,,,,,,,,,,,,,,,,,,,
,,,,,SPR24_012,20,Female,2024-04-08_11h31.44.143,jersey_experiment_5_v0,2023.2.2,Win32,84.74576271,,,,,,,,,,,,,,,,134.534,135.5809,135.5809,137.1927,return,0.3466,,75.78125,0,25,25,53,1,FBP-PT-18.png,0.43,1.2,54,0.25,,,,,,,,,,,,,,,,,,,,,,,,,,,,,,,,,,,,,,,,,,,,,
,,,,,SPR24_012,20,Female,2024-04-08_11h31.44.143,jersey_experiment_5_v0,2023.2.2,Win32,84.74576271,,,,,,,,,,,,,,,,137.193,138.4869,138.4869,140.0634,return,0.2358,,50,0,26,26,40,1,FBP-RB-19.png,0.35,1.2,41,0.5,,,,,,,,,,,,,,,,,,,,,,,,,,,,,,,,,,,,,,,,,,,,,
,,,,,SPR24_012,20,Female,2024-04-08_11h31.44.143,jersey_experiment_5_v0,2023.2.2,Win32,84.74576271,,,,,,,,,,,,,,,,140.0636,141.1104,141.1105,143.5929,return,0.2522,,91.27604167,0,27,27,59,1,FBP-PT-19.png,0.45,1.2,60,0.25,,,,,,,,,,,,,,,,,,,,,,,,,,,,,,,,,,,,,,,,,,,,,
,,,,,SPR24_012,20,Female,2024-04-08_11h31.44.143,jersey_experiment_5_v0,2023.2.2,Win32,84.74576271,,,,,,,,,,,,,,,,143.5931,144.8869,144.8869,146.9342,return,0.232,,74.609375,0,28,28,7,1,FBP-OG-81.png,0.4,1.2,8,0.5,,,,,,,,,,,,,,,,,,,,,,,,,,,,,,,,,,,,,,,,,,,,,
,,,,,SPR24_012,20,Female,2024-04-08_11h31.44.143,jersey_experiment_5_v0,2023.2.2,Win32,84.74576271,,,,,,,,,,,,,,,,146.9344,147.9812,147.9812,149.3108,return,0.2369,,75,0,29,29,28,1,FBP-YG-19.png,0.43,1.2,29,0.25,,,,,,,,,,,,,,,,,,,,,,,,,,,,,,,,,,,,,,,,,,,,,
,,,,,SPR24_012,20,Female,2024-04-08_11h31.44.143,jersey_experiment_5_v0,2023.2.2,Win32,84.74576271,,,,,,,,,,,,,,,,149.311,150.3578,150.3579,152.4756,return,0.2477,,67.31770833,0,30,30,55,1,FBP-PT-19.png,0.35,1.2,56,0.25,,,,,,,,,,,,,,,,,,,,,,,,,,,,,,,,,,,,,,,,,,,,,
,,,,,SPR24_012,20,Female,2024-04-08_11h31.44.143,jersey_experiment_5_v0,2023.2.2,Win32,84.74576271,,,,,,,,,,,,,,,,152.4758,153.7698,153.7698,154.8756,return,0.1535,,55.98958333,0,31,31,37,1,FBP-RB-18.png,0.4,1.2,38,0.5,,,,,,,,,,,,,,,,,,,,,,,,,,,,,,,,,,,,,,,,,,,,,
,,,,,SPR24_012,20,Female,2024-04-08_11h31.44.143,jersey_experiment_5_v0,2023.2.2,Win32,84.74576271,,,,,,,,,,,,,,,,154.8759,155.9228,155.9229,159.1464,return,0.2375,,58.85416667,0,32,32,17,1,FBP-YG-17.png,0.4,1.2,18,0.25,,,,,,,,,,,,,,,,,,,,,,,,,,,,,,,,,,,,,,,,,,,,,
,,,,,SPR24_012,20,Female,2024-04-08_11h31.44.143,jersey_experiment_5_v0,2023.2.2,Win32,84.74576271,,,,,,,,,,,,,,,,159.1467,160.1935,160.1935,162.1114,return,0.6127,,49.34895833,0,33,33,27,1,FBP-YG-19.png,0.4,1.2,28,0.25,,,,,,,,,,,,,,,,,,,,,,,,,,,,,,,,,,,,,,,,,,,,,
,,,,,SPR24_012,20,Female,2024-04-08_11h31.44.143,jersey_experiment_5_v0,2023.2.2,Win32,84.74576271,,,,,,,,,,,,,,,,162.1115,163.4053,163.4053,165.5937,return,0.228,,74.73958333,0,34,34,2,1,FBP-OG-71.png,0.4,1.2,3,0.5,,,,,,,,,,,,,,,,,,,,,,,,,,,,,,,,,,,,,,,,,,,,,
,,,,,SPR24_012,20,Female,2024-04-08_11h31.44.143,jersey_experiment_5_v0,2023.2.2,Win32,84.74576271,,,,,,,,,,,,,,,,165.594,166.6408,166.6408,168.2054,return,0.1646,,74.609375,0,35,35,58,1,FBP-PT-19.png,0.43,1.2,59,0.25,,,,,,,,,,,,,,,,,,,,,,,,,,,,,,,,,,,,,,,,,,,,,
,,,,,SPR24_012,20,Female,2024-04-08_11h31.44.143,jersey_experiment_5_v0,2023.2.2,Win32,84.74576271,,,,,,,,,,,,,,,,168.2056,169.4998,169.4999,170.7821,return,0.2122,,49.21875,0,36,36,11,1,FBP-OG-91.png,0.37,1.2,12,0.5,,,,,,,,,,,,,,,,,,,,,,,,,,,,,,,,,,,,,,,,,,,,,
,,,,,SPR24_012,20,Female,2024-04-08_11h31.44.143,jersey_experiment_5_v0,2023.2.2,Win32,84.74576271,,,,,,,,,,,,,,,,170.7823,172.0763,172.0763,173.1351,return,0.165,,50.13020833,0,37,37,41,1,FBP-RB-19.png,0.37,1.2,42,0.5,,,,,,,,,,,,,,,,,,,,,,,,,,,,,,,,,,,,,,,,,,,,,
,,,,,SPR24_012,20,Female,2024-04-08_11h31.44.143,jersey_experiment_5_v0,2023.2.2,Win32,84.74576271,,,,,,,,,,,,,,,,173.1354,174.4293,174.4294,176.2529,return,0.2121,,75,0,38,38,43,1,FBP-RB-19.png,0.43,1.2,44,0.5,,,,,,,,,,,,,,,,,,,,,,,,,,,,,,,,,,,,,,,,,,,,,
,,,,,SPR24_012,20,Female,2024-04-08_11h31.44.143,jersey_experiment_5_v0,2023.2.2,Win32,84.74576271,,,,,,,,,,,,,,,,176.2531,177.3,177.3,178.7471,return,0.1558,,49.609375,0,39,39,16,1,FBP-YG-17.png,0.37,1.2,17,0.25,,,,,,,,,,,,,,,,,,,,,,,,,,,,,,,,,,,,,,,,,,,,,
,,,,,SPR24_012,20,Female,2024-04-08_11h31.44.143,jersey_experiment_5_v0,2023.2.2,Win32,84.74576271,,,,,,,,,,,,,,,,178.7474,179.794,179.7941,180.6884,return,0.141,,49.609375,0,40,40,22,1,FBP-YG-18.png,0.4,1.2,23,0.25,,,,,,,,,,,,,,,,,,,,,,,,,,,,,,,,,,,,,,,,,,,,,
,,,,,SPR24_012,20,Female,2024-04-08_11h31.44.143,jersey_experiment_5_v0,2023.2.2,Win32,84.74576271,,,,,,,,,,,,,,,,180.6886,181.9825,181.9825,183.4884,return,0.2453,,74.47916667,0,41,41,8,1,FBP-OG-81.png,0.43,1.2,9,0.5,,,,,,,,,,,,,,,,,,,,,,,,,,,,,,,,,,,,,,,,,,,,,
,,,,,SPR24_012,20,Female,2024-04-08_11h31.44.143,jersey_experiment_5_v0,2023.2.2,Win32,84.74576271,,,,,,,,,,,,,,,,183.4887,184.5356,184.5356,185.2532,return,0.2208,,74.34895833,0,42,42,48,1,FBP-PT-17.png,0.43,1.2,49,0.25,,,,,,,,,,,,,,,,,,,,,,,,,,,,,,,,,,,,,,,,,,,,,
,,,,,SPR24_012,20,Female,2024-04-08_11h31.44.143,jersey_experiment_5_v0,2023.2.2,Win32,84.74576271,,,,,,,,,,,,,,,,185.2533,186.3004,186.3005,187.7595,return,0.1556,,49.47916667,0,43,43,56,1,FBP-PT-19.png,0.37,1.2,57,0.25,,,,,,,,,,,,,,,,,,,,,,,,,,,,,,,,,,,,,,,,,,,,,
,,,,,SPR24_012,20,Female,2024-04-08_11h31.44.143,jersey_experiment_5_v0,2023.2.2,Win32,84.74576271,,,,,,,,,,,,,,,,187.7598,188.8063,188.8064,190.3476,return,0.0849,,49.73958333,0,44,44,51,1,FBP-PT-18.png,0.37,1.2,52,0.25,,,,,,,,,,,,,,,,,,,,,,,,,,,,,,,,,,,,,,,,,,,,,
,,,,,SPR24_012,20,Female,2024-04-08_11h31.44.143,jersey_experiment_5_v0,2023.2.2,Win32,84.74576271,,,,,,,,,,,,,,,,190.3477,191.6417,191.6417,192.936,return,0.2535,,74.86979167,0,45,45,3,1,FBP-OG-71.png,0.43,1.2,4,0.5,,,,,,,,,,,,,,,,,,,,,,,,,,,,,,,,,,,,,,,,,,,,,
,,,,,SPR24_012,20,Female,2024-04-08_11h31.44.143,jersey_experiment_5_v0,2023.2.2,Win32,84.74576271,,,,,,,,,,,,,,,,192.9362,193.983,193.983,195.9832,return,0.2224,,24.609375,0,46,46,45,1,FBP-PT-17.png,0.35,1.2,46,0.25,,,,,,,,,,,,,,,,,,,,,,,,,,,,,,,,,,,,,,,,,,,,,
,,,,,SPR24_012,20,Female,2024-04-08_11h31.44.143,jersey_experiment_5_v0,2023.2.2,Win32,84.74576271,,,,,,,,,,,,,,,,195.9835,197.0301,197.0302,198.2185,return,0.1688,,24.86979167,0,47,47,50,1,FBP-PT-18.png,0.35,1.2,51,0.25,,,,,,,,,,,,,,,,,,,,,,,,,,,,,,,,,,,,,,,,,,,,,
,,,,,SPR24_012,20,Female,2024-04-08_11h31.44.143,jersey_experiment_5_v0,2023.2.2,Win32,84.74576271,,,,,,,,,,,,,,,,198.2187,199.5125,199.5125,201.4659,return,0.2736,,31.25,0,48,48,6,1,FBP-OG-81.png,0.37,1.2,7,0.5,,,,,,,,,,,,,,,,,,,,,,,,,,,,,,,,,,,,,,,,,,,,,
,,,,,SPR24_012,20,Female,2024-04-08_11h31.44.143,jersey_experiment_5_v0,2023.2.2,Win32,84.74576271,,,,,,,,,,,,,,,,201.4661,202.7597,202.7597,204.5245,return,0.1755,,75,0,49,49,38,1,FBP-RB-18.png,0.43,1.2,39,0.5,,,,,,,,,,,,,,,,,,,,,,,,,,,,,,,,,,,,,,,,,,,,,
,,,,,SPR24_012,20,Female,2024-04-08_11h31.44.143,jersey_experiment_5_v0,2023.2.2,Win32,84.74576271,,,,,,,,,,,,,,,,204.5247,205.8189,205.8189,206.7599,return,0.4065,,74.34895833,0,50,50,39,1,FBP-RB-18.png,0.45,1.2,40,0.5,,,,,,,,,,,,,,,,,,,,,,,,,,,,,,,,,,,,,,,,,,,,,
,,,,,SPR24_012,20,Female,2024-04-08_11h31.44.143,jersey_experiment_5_v0,2023.2.2,Win32,84.74576271,,,,,,,,,,,,,,,,206.7601,207.8069,207.807,210.0897,return,0.181,,35.02604167,0,51,51,15,1,FBP-YG-17.png,0.35,1.2,16,0.25,,,,,,,,,,,,,,,,,,,,,,,,,,,,,,,,,,,,,,,,,,,,,
,,,,,SPR24_012,20,Female,2024-04-08_11h31.44.143,jersey_experiment_5_v0,2023.2.2,Win32,84.74576271,,,,,,,,,,,,,,,,210.09,211.1366,211.1367,212.7602,return,0.1802,,74.47916667,0,52,52,18,1,FBP-YG-17.png,0.43,1.2,19,0.25,,,,,,,,,,,,,,,,,,,,,,,,,,,,,,,,,,,,,,,,,,,,,
,,,,,SPR24_012,20,Female,2024-04-08_11h31.44.143,jersey_experiment_5_v0,2023.2.2,Win32,84.74576271,,,,,,,,,,,,,,,,212.7603,213.8073,213.8073,214.5366,return,0.169,,74.47916667,0,53,53,52,1,FBP-PT-18.png,0.4,1.2,53,0.25,,,,,,,,,,,,,,,,,,,,,,,,,,,,,,,,,,,,,,,,,,,,,
,,,,,SPR24_012,20,Female,2024-04-08_11h31.44.143,jersey_experiment_5_v0,2023.2.2,Win32,84.74576271,,,,,,,,,,,,,,,,214.5369,215.5838,215.5839,217.1016,return,0.1429,,49.73958333,0,54,54,26,1,FBP-YG-19.png,0.37,1.2,27,0.25,,,,,,,,,,,,,,,,,,,,,,,,,,,,,,,,,,,,,,,,,,,,,
,,,,,SPR24_012,20,Female,2024-04-08_11h31.44.143,jersey_experiment_5_v0,2023.2.2,Win32,84.74576271,,,,,,,,,,,,,,,,217.1018,218.3957,218.3957,220.0429,return,0.1562,,49.86979167,0,55,55,42,1,FBP-RB-19.png,0.4,1.2,43,0.5,,,,,,,,,,,,,,,,,,,,,,,,,,,,,,,,,,,,,,,,,,,,,
,,,,,SPR24_012,20,Female,2024-04-08_11h31.44.143,jersey_experiment_5_v0,2023.2.2,Win32,84.74576271,,,,,,,,,,,,,,,,220.043,221.0899,221.09,222.4899,return,0.2139,,75,0,56,56,23,1,FBP-YG-18.png,0.43,1.2,24,0.25,,,,,,,,,,,,,,,,,,,,,,,,,,,,,,,,,,,,,,,,,,,,,
,,,,,SPR24_012,20,Female,2024-04-08_11h31.44.143,jersey_experiment_5_v0,2023.2.2,Win32,84.74576271,,,,,,,,,,,,,,,,222.4901,223.7842,223.7843,224.9254,return,0.142,,49.47916667,0,57,57,35,1,FBP-RB-18.png,0.35,1.2,36,0.5,,,,,,,,,,,,,,,,,,,,,,,,,,,,,,,,,,,,,,,,,,,,,
,,,,,SPR24_012,20,Female,2024-04-08_11h31.44.143,jersey_experiment_5_v0,2023.2.2,Win32,84.74576271,,,,,,,,,,,,,,,,224.9256,226.2195,226.2195,227.643,return,0.1665,,74.86979167,0,58,58,33,1,FBP-RB-17.png,0.43,1.2,34,0.5,,,,,,,,,,,,,,,,,,,,,,,,,,,,,,,,,,,,,,,,,,,,,
,,,,,SPR24_012,20,Female,2024-04-08_11h31.44.143,jersey_experiment_5_v0,2023.2.2,Win32,84.74576271,,,,,,,,,,,,,,,,227.6433,228.9372,228.9373,229.655,return,0.2293,,74.86979167,0,59,59,32,1,FBP-RB-17.png,0.4,1.2,33,0.5,,,,,,,,,,,,,,,,,,,,,,,,,,,,,,,,,,,,,,,,,,,,,
,,,,,SPR24_012,20,Female,2024-04-08_11h31.44.143,jersey_experiment_5_v0,2023.2.2,Win32,84.74576271,,,,,,,,,,,,,,,,229.657,230.7019,230.702,232.6198,return,0.2244,,85.9375,,,,,,FBP-YG-71.png,0.43,1.2,19,0.25,0,0,0,18,1,,,,,,,,,,,,,,,,,,,,,,,,,,,,,,,,,,,,,,,,
,,,,,SPR24_012,20,Female,2024-04-08_11h31.44.143,jersey_experiment_5_v0,2023.2.2,Win32,84.74576271,,,,,,,,,,,,,,,,232.62,233.6669,233.6669,235.1023,return,0.1654,,75.13020833,,,,,,FBP-PT-71.png,0.4,1.2,48,0.25,0,1,1,47,1,,,,,,,,,,,,,,,,,,,,,,,,,,,,,,,,,,,,,,,,
,,,,,SPR24_012,20,Female,2024-04-08_11h31.44.143,jersey_experiment_5_v0,2023.2.2,Win32,84.74576271,,,,,,,,,,,,,,,,235.1025,236.1492,236.1492,238.679,return,0.1937,,99.609375,,,,,,FBP-YG-91.png,0.45,1.2,30,0.25,0,2,2,29,1,,,,,,,,,,,,,,,,,,,,,,,,,,,,,,,,,,,,,,,,
,,,,,SPR24_012,20,Female,2024-04-08_11h31.44.143,jersey_experiment_5_v0,2023.2.2,Win32,84.74576271,,,,,,,,,,,,,,,,238.6792,239.9732,239.9732,241.2083,return,0.3219,,74.609375,,,,,,FBP-OG-18.png,0.4,1.2,8,0.5,0,3,3,7,1,,,,,,,,,,,,,,,,,,,,,,,,,,,,,,,,,,,,,,,,
,,,,,SPR24_012,20,Female,2024-04-08_11h31.44.143,jersey_experiment_5_v0,2023.2.2,Win32,84.74576271,,,,,,,,,,,,,,,,241.2086,242.5025,242.5026,244.7498,return,0.1085,,99.47916667,,,,,,FBP-OG-17.png,0.45,1.2,5,0.5,0,4,4,4,1,,,,,,,,,,,,,,,,,,,,,,,,,,,,,,,,,,,,,,,,
,,,,,SPR24_012,20,Female,2024-04-08_11h31.44.143,jersey_experiment_5_v0,2023.2.2,Win32,84.74576271,,,,,,,,,,,,,,,,244.7501,246.0438,246.0438,247.385,return,0.051,,98.95833333,,,,,,FBP-RB-91.png,0.45,1.2,45,0.5,0,5,5,44,1,,,,,,,,,,,,,,,,,,,,,,,,,,,,,,,,,,,,,,,,
,,,,,SPR24_012,20,Female,2024-04-08_11h31.44.143,jersey_experiment_5_v0,2023.2.2,Win32,84.74576271,,,,,,,,,,,,,,,,247.3853,248.6791,248.6791,251.5499,return,0.4609,,99.34895833,,,,,,FBP-OG-18.png,0.45,1.2,10,0.5,0,6,6,9,1,,,,,,,,,,,,,,,,,,,,,,,,,,,,,,,,,,,,,,,,
,,,,,SPR24_012,20,Female,2024-04-08_11h31.44.143,jersey_experiment_5_v0,2023.2.2,Win32,84.74576271,,,,,,,,,,,,,,,,251.5501,252.597,252.5971,254.0912,return,0.1794,,99.21875,,,,,,FBP-PT-81.png,0.43,1.2,54,0.25,0,7,7,53,1,,,,,,,,,,,,,,,,,,,,,,,,,,,,,,,,,,,,,,,,
,,,,,SPR24_012,20,Female,2024-04-08_11h31.44.143,jersey_experiment_5_v0,2023.2.2,Win32,84.74576271,,,,,,,,,,,,,,,,254.0915,255.1383,255.1383,258.4445,return,0.1881,,49.21875,,,,,,FBP-YG-91.png,0.37,1.2,27,0.25,0,8,8,26,1,,,,,,,,,,,,,,,,,,,,,,,,,,,,,,,,,,,,,,,,
,,,,,SPR24_012,20,Female,2024-04-08_11h31.44.143,jersey_experiment_5_v0,2023.2.2,Win32,84.74576271,,,,,,,,,,,,,,,,258.4447,259.7386,259.7386,260.7268,return,0.1708,,50.65104167,,,,,,FBP-RB-71.png,0.35,1.2,31,0.5,0,9,9,30,1,,,,,,,,,,,,,,,,,,,,,,,,,,,,,,,,,,,,,,,,
,,,,,SPR24_012,20,Female,2024-04-08_11h31.44.143,jersey_experiment_5_v0,2023.2.2,Win32,84.74576271,,,,,,,,,,,,,,,,260.727,262.021,262.021,262.9857,return,0.1573,,75,,,,,,FBP-RB-71.png,0.45,1.2,35,0.5,0,10,10,34,1,,,,,,,,,,,,,,,,,,,,,,,,,,,,,,,,,,,,,,,,
,,,,,SPR24_012,20,Female,2024-04-08_11h31.44.143,jersey_experiment_5_v0,2023.2.2,Win32,84.74576271,,,,,,,,,,,,,,,,262.986,264.0327,264.0328,265.2328,return,0.2227,,75.26041667,,,,,,FBP-YG-81.png,0.43,1.2,24,0.25,0,11,11,23,1,,,,,,,,,,,,,,,,,,,,,,,,,,,,,,,,,,,,,,,,
,,,,,SPR24_012,20,Female,2024-04-08_11h31.44.143,jersey_experiment_5_v0,2023.2.2,Win32,84.74576271,,,,,,,,,,,,,,,,265.233,266.5269,266.5269,268.2566,return,0.2019,,99.08854167,,,,,,FBP-OG-19.png,0.45,1.2,15,0.5,0,12,12,14,1,,,,,,,,,,,,,,,,,,,,,,,,,,,,,,,,,,,,,,,,
,,,,,SPR24_012,20,Female,2024-04-08_11h31.44.143,jersey_experiment_5_v0,2023.2.2,Win32,84.74576271,,,,,,,,,,,,,,,,268.2568,269.5505,269.5505,270.8801,return,0.152,,24.86979167,,,,,,FBP-RB-81.png,0.35,1.2,36,0.5,0,13,13,35,1,,,,,,,,,,,,,,,,,,,,,,,,,,,,,,,,,,,,,,,,
,,,,,SPR24_012,20,Female,2024-04-08_11h31.44.143,jersey_experiment_5_v0,2023.2.2,Win32,84.74576271,,,,,,,,,,,,,,,,270.8804,271.9271,271.9271,273.2095,return,0.1326,,24.86979167,,,,,,FBP-YG-71.png,0.35,1.2,16,0.25,0,14,14,15,1,,,,,,,,,,,,,,,,,,,,,,,,,,,,,,,,,,,,,,,,
,,,,,SPR24_012,20,Female,2024-04-08_11h31.44.143,jersey_experiment_5_v0,2023.2.2,Win32,84.74576271,,,,,,,,,,,,,,,,273.2098,274.5038,274.5038,275.7745,return,0.3297,,24.86979167,,,,,,FBP-OG-18.png,0.35,1.2,6,0.5,0,15,15,5,1,,,,,,,,,,,,,,,,,,,,,,,,,,,,,,,,,,,,,,,,
,,,,,SPR24_012,20,Female,2024-04-08_11h31.44.143,jersey_experiment_5_v0,2023.2.2,Win32,84.74576271,,,,,,,,,,,,,,,,275.7747,276.8214,276.8215,278.1039,return,0.2183,,50.65104167,,,,,,FBP-YG-71.png,0.4,1.2,18,0.25,0,16,16,17,1,,,,,,,,,,,,,,,,,,,,,,,,,,,,,,,,,,,,,,,,
,,,,,SPR24_012,20,Female,2024-04-08_11h31.44.143,jersey_experiment_5_v0,2023.2.2,Win32,84.74576271,,,,,,,,,,,,,,,,278.1041,279.151,279.151,282.3156,return,0.1533,,38.15104167,,,,,,FBP-PT-71.png,0.35,1.2,46,0.25,0,17,17,45,1,,,,,,,,,,,,,,,,,,,,,,,,,,,,,,,,,,,,,,,,
,,,,,SPR24_012,20,Female,2024-04-08_11h31.44.143,jersey_experiment_5_v0,2023.2.2,Win32,84.74576271,,,,,,,,,,,,,,,,282.316,283.6098,283.6099,285.9628,return,0.1551,,36.71875,,,,,,FBP-OG-19.png,0.35,1.2,11,0.5,0,18,18,10,1,,,,,,,,,,,,,,,,,,,,,,,,,,,,,,,,,,,,,,,,
,,,,,SPR24_012,20,Female,2024-04-08_11h31.44.143,jersey_experiment_5_v0,2023.2.2,Win32,84.74576271,,,,,,,,,,,,,,,,285.9631,287.2572,287.2572,288.3984,return,0.2585,,74.73958333,,,,,,FBP-OG-18.png,0.43,1.2,9,0.5,0,19,19,8,1,,,,,,,,,,,,,,,,,,,,,,,,,,,,,,,,,,,,,,,,
,,,,,SPR24_012,20,Female,2024-04-08_11h31.44.143,jersey_experiment_5_v0,2023.2.2,Win32,84.74576271,,,,,,,,,,,,,,,,288.3986,289.6925,289.6925,290.9277,return,0.1416,,49.34895833,,,,,,FBP-RB-81.png,0.4,1.2,38,0.5,0,20,20,37,1,,,,,,,,,,,,,,,,,,,,,,,,,,,,,,,,,,,,,,,,
,,,,,SPR24_012,20,Female,2024-04-08_11h31.44.143,jersey_experiment_5_v0,2023.2.2,Win32,84.74576271,,,,,,,,,,,,,,,,290.9278,291.975,291.9751,293.5279,return,0.0413,,74.47916667,,,,,,FBP-YG-91.png,0.4,1.2,28,0.25,0,21,21,27,1,,,,,,,,,,,,,,,,,,,,,,,,,,,,,,,,,,,,,,,,
,,,,,SPR24_012,20,Female,2024-04-08_11h31.44.143,jersey_experiment_5_v0,2023.2.2,Win32,84.74576271,,,,,,,,,,,,,,,,293.5281,294.575,294.575,297.2932,return,0.1416,,25,,,,,,FBP-YG-81.png,0.35,1.2,21,0.25,0,22,22,20,1,,,,,,,,,,,,,,,,,,,,,,,,,,,,,,,,,,,,,,,,
,,,,,SPR24_012,20,Female,2024-04-08_11h31.44.143,jersey_experiment_5_v0,2023.2.2,Win32,84.74576271,,,,,,,,,,,,,,,,297.2934,298.587,298.587,299.9047,return,0.0848,,74.86979167,,,,,,FBP-RB-91.png,0.43,1.2,44,0.5,0,23,23,43,1,,,,,,,,,,,,,,,,,,,,,,,,,,,,,,,,,,,,,,,,
,,,,,SPR24_012,20,Female,2024-04-08_11h31.44.143,jersey_experiment_5_v0,2023.2.2,Win32,84.74576271,,,,,,,,,,,,,,,,299.905,300.9517,300.9517,302.187,return,0.1323,,49.609375,,,,,,FBP-YG-81.png,0.4,1.2,23,0.25,0,24,24,22,1,,,,,,,,,,,,,,,,,,,,,,,,,,,,,,,,,,,,,,,,
,,,,,SPR24_012,20,Female,2024-04-08_11h31.44.143,jersey_experiment_5_v0,2023.2.2,Win32,84.74576271,,,,,,,,,,,,,,,,302.1873,303.4813,303.4814,305.6225,return,0.1475,,61.84895833,,,,,,FBP-OG-19.png,0.43,1.2,14,0.5,0,25,25,13,1,,,,,,,,,,,,,,,,,,,,,,,,,,,,,,,,,,,,,,,,
,,,,,SPR24_012,20,Female,2024-04-08_11h31.44.143,jersey_experiment_5_v0,2023.2.2,Win32,84.74576271,,,,,,,,,,,,,,,,305.6228,306.9167,306.9168,309.1639,return,0.1437,,60.80729167,,,,,,FBP-OG-19.png,0.4,1.2,13,0.5,0,26,26,12,1,,,,,,,,,,,,,,,,,,,,,,,,,,,,,,,,,,,,,,,,
,,,,,SPR24_012,20,Female,2024-04-08_11h31.44.143,jersey_experiment_5_v0,2023.2.2,Win32,84.74576271,,,,,,,,,,,,,,,,309.1641,310.211,310.211,311.7757,return,0.1281,,34.765625,,,,,,FBP-YG-91.png,0.35,1.2,26,0.25,0,27,27,25,1,,,,,,,,,,,,,,,,,,,,,,,,,,,,,,,,,,,,,,,,
,,,,,SPR24_012,20,Female,2024-04-08_11h31.44.143,jersey_experiment_5_v0,2023.2.2,Win32,84.74576271,,,,,,,,,,,,,,,,311.776,313.0698,313.0699,314.364,return,0.2608,,73.4375,,,,,,FBP-RB-81.png,0.43,1.2,39,0.5,0,28,28,38,1,,,,,,,,,,,,,,,,,,,,,,,,,,,,,,,,,,,,,,,,
,,,,,SPR24_012,20,Female,2024-04-08_11h31.44.143,jersey_experiment_5_v0,2023.2.2,Win32,84.74576271,,,,,,,,,,,,,,,,314.3642,315.6583,315.6583,316.6701,return,0.0812,,74.86979167,,,,,,FBP-OG-17.png,0.43,1.2,4,0.5,0,29,29,3,1,,,,,,,,,,,,,,,,,,,,,,,,,,,,,,,,,,,,,,,,
,,,,,SPR24_012,20,Female,2024-04-08_11h31.44.143,jersey_experiment_5_v0,2023.2.2,Win32,84.74576271,,,,,,,,,,,,,,,,316.6703,317.9642,317.9642,319.8231,return,0.246,,74.86979167,,,,,,FBP-RB-71.png,0.4,1.2,33,0.5,0,30,30,32,1,,,,,,,,,,,,,,,,,,,,,,,,,,,,,,,,,,,,,,,,
,,,,,SPR24_012,20,Female,2024-04-08_11h31.44.143,jersey_experiment_5_v0,2023.2.2,Win32,84.74576271,,,,,,,,,,,,,,,,319.8233,321.1172,321.1172,322.2467,return,0.1491,,84.375,,,,,,FBP-RB-81.png,0.45,1.2,40,0.5,0,31,31,39,1,,,,,,,,,,,,,,,,,,,,,,,,,,,,,,,,,,,,,,,,
,,,,,SPR24_012,20,Female,2024-04-08_11h31.44.143,jersey_experiment_5_v0,2023.2.2,Win32,84.74576271,,,,,,,,,,,,,,,,322.2469,323.294,323.294,325.2586,return,0.6626,,50.26041667,,,,,,FBP-PT-81.png,0.37,1.2,52,0.25,0,32,32,51,1,,,,,,,,,,,,,,,,,,,,,,,,,,,,,,,,,,,,,,,,
,,,,,SPR24_012,20,Female,2024-04-08_11h31.44.143,jersey_experiment_5_v0,2023.2.2,Win32,84.74576271,,,,,,,,,,,,,,,,325.2588,326.5527,326.5527,327.7057,return,0.3196,,50.26041667,,,,,,FBP-OG-17.png,0.4,1.2,3,0.5,0,33,33,2,1,,,,,,,,,,,,,,,,,,,,,,,,,,,,,,,,,,,,,,,,
,,,,,SPR24_012,20,Female,2024-04-08_11h31.44.143,jersey_experiment_5_v0,2023.2.2,Win32,84.74576271,,,,,,,,,,,,,,,,327.706,328.7528,328.7529,330.0943,return,0.1634,,35.546875,,,,,,FBP-PT-91.png,0.37,1.2,57,0.25,0,34,34,56,1,,,,,,,,,,,,,,,,,,,,,,,,,,,,,,,,,,,,,,,,
,,,,,SPR24_012,20,Female,2024-04-08_11h31.44.143,jersey_experiment_5_v0,2023.2.2,Win32,84.74576271,,,,,,,,,,,,,,,,330.0945,331.3881,331.3881,332.5059,return,0.1221,,25.26041667,,,,,,FBP-OG-19.png,0.37,1.2,12,0.5,0,35,35,11,1,,,,,,,,,,,,,,,,,,,,,,,,,,,,,,,,,,,,,,,,
,,,,,SPR24_012,20,Female,2024-04-08_11h31.44.143,jersey_experiment_5_v0,2023.2.2,Win32,84.74576271,,,,,,,,,,,,,,,,332.5061,333.8002,333.8002,334.8471,return,0.141,,50.52083333,,,,,,FBP-RB-91.png,0.4,1.2,43,0.5,0,36,36,42,1,,,,,,,,,,,,,,,,,,,,,,,,,,,,,,,,,,,,,,,,
,,,,,SPR24_012,20,Female,2024-04-08_11h31.44.143,jersey_experiment_5_v0,2023.2.2,Win32,84.74576271,,,,,,,,,,,,,,,,334.8474,336.1414,336.1414,338.0003,return,0.2129,,34.375,,,,,,FBP-RB-71.png,0.37,1.2,32,0.5,0,37,37,31,1,,,,,,,,,,,,,,,,,,,,,,,,,,,,,,,,,,,,,,,,
,,,,,SPR24_012,20,Female,2024-04-08_11h31.44.143,jersey_experiment_5_v0,2023.2.2,Win32,84.74576271,,,,,,,,,,,,,,,,338.0006,339.0473,339.0473,340.1181,return,0.1141,,50,,,,,,FBP-PT-81.png,0.4,1.2,53,0.25,0,38,38,52,1,,,,,,,,,,,,,,,,,,,,,,,,,,,,,,,,,,,,,,,,
,,,,,SPR24_012,20,Female,2024-04-08_11h31.44.143,jersey_experiment_5_v0,2023.2.2,Win32,84.74576271,,,,,,,,,,,,,,,,340.1184,341.4121,341.4122,343.624,return,0.1591,,35.67708333,,,,,,FBP-RB-81.png,0.37,1.2,37,0.5,0,39,39,36,1,,,,,,,,,,,,,,,,,,,,,,,,,,,,,,,,,,,,,,,,
,,,,,SPR24_012,20,Female,2024-04-08_11h31.44.143,jersey_experiment_5_v0,2023.2.2,Win32,84.74576271,,,,,,,,,,,,,,,,343.6242,344.6711,344.6711,346.2005,return,0.2175,,74.86979167,,,,,,FBP-YG-71.png,0.45,1.2,20,0.25,0,40,40,19,1,,,,,,,,,,,,,,,,,,,,,,,,,,,,,,,,,,,,,,,,
,,,,,SPR24_012,20,Female,2024-04-08_11h31.44.143,jersey_experiment_5_v0,2023.2.2,Win32,84.74576271,,,,,,,,,,,,,,,,346.2007,347.2475,347.2476,348.3653,return,0.175,,74.609375,,,,,,FBP-YG-81.png,0.45,1.2,25,0.25,0,41,41,24,1,,,,,,,,,,,,,,,,,,,,,,,,,,,,,,,,,,,,,,,,
,,,,,SPR24_012,20,Female,2024-04-08_11h31.44.143,jersey_experiment_5_v0,2023.2.2,Win32,84.74576271,,,,,,,,,,,,,,,,348.3655,349.4124,349.4125,351.0714,return,0.1648,,83.85416667,,,,,,FBP-PT-71.png,0.45,1.2,50,0.25,0,42,42,49,1,,,,,,,,,,,,,,,,,,,,,,,,,,,,,,,,,,,,,,,,
,,,,,SPR24_012,20,Female,2024-04-08_11h31.44.143,jersey_experiment_5_v0,2023.2.2,Win32,84.74576271,,,,,,,,,,,,,,,,351.0716,352.3653,352.3654,353.5773,return,0.2285,,62.23958333,,,,,,FBP-OG-18.png,0.37,1.2,7,0.5,0,43,43,6,1,,,,,,,,,,,,,,,,,,,,,,,,,,,,,,,,,,,,,,,,
,,,,,SPR24_012,20,Female,2024-04-08_11h31.44.143,jersey_experiment_5_v0,2023.2.2,Win32,84.74576271,,,,,,,,,,,,,,,,353.5776,354.8715,354.8716,356.9891,return,0.3443,,36.06770833,,,,,,FBP-RB-91.png,0.35,1.2,41,0.5,0,44,44,40,1,,,,,,,,,,,,,,,,,,,,,,,,,,,,,,,,,,,,,,,,
,,,,,SPR24_012,20,Female,2024-04-08_11h31.44.143,jersey_experiment_5_v0,2023.2.2,Win32,84.74576271,,,,,,,,,,,,,,,,356.9893,358.0362,358.0363,359.1305,return,0.1571,,36.45833333,,,,,,FBP-YG-71.png,0.37,1.2,17,0.25,0,45,45,16,1,,,,,,,,,,,,,,,,,,,,,,,,,,,,,,,,,,,,,,,,
,,,,,SPR24_012,20,Female,2024-04-08_11h31.44.143,jersey_experiment_5_v0,2023.2.2,Win32,84.74576271,,,,,,,,,,,,,,,,359.1308,360.1775,360.1775,361.8717,return,0.1273,,75,,,,,,FBP-PT-91.png,0.45,1.2,60,0.25,0,46,46,59,1,,,,,,,,,,,,,,,,,,,,,,,,,,,,,,,,,,,,,,,,
,,,,,SPR24_012,20,Female,2024-04-08_11h31.44.143,jersey_experiment_5_v0,2023.2.2,Win32,84.74576271,,,,,,,,,,,,,,,,361.8719,362.9189,362.9189,364.1426,return,0.1083,,49.73958333,,,,,,FBP-PT-91.png,0.35,1.2,56,0.25,0,47,47,55,1,,,,,,,,,,,,,,,,,,,,,,,,,,,,,,,,,,,,,,,,
,,,,,SPR24_012,20,Female,2024-04-08_11h31.44.143,jersey_experiment_5_v0,2023.2.2,Win32,84.74576271,,,,,,,,,,,,,,,,364.1428,365.1893,365.1894,366.9542,return,0.1689,,66.14583333,,,,,,FBP-PT-91.png,0.43,1.2,59,0.25,0,48,48,58,1,,,,,,,,,,,,,,,,,,,,,,,,,,,,,,,,,,,,,,,,
,,,,,SPR24_012,20,Female,2024-04-08_11h31.44.143,jersey_experiment_5_v0,2023.2.2,Win32,84.74576271,,,,,,,,,,,,,,,,366.9544,368.0015,368.0015,369.0955,return,0.041,,50,,,,,,FBP-YG-81.png,0.37,1.2,22,0.25,0,49,49,21,1,,,,,,,,,,,,,,,,,,,,,,,,,,,,,,,,,,,,,,,,
,,,,,SPR24_012,20,Female,2024-04-08_11h31.44.143,jersey_experiment_5_v0,2023.2.2,Win32,84.74576271,,,,,,,,,,,,,,,,369.0956,370.1426,370.1427,370.8133,return,0.0819,,50,,,,,,FBP-PT-81.png,0.35,1.2,51,0.25,0,50,50,50,1,,,,,,,,,,,,,,,,,,,,,,,,,,,,,,,,,,,,,,,,
,,,,,SPR24_012,20,Female,2024-04-08_11h31.44.143,jersey_experiment_5_v0,2023.2.2,Win32,84.74576271,,,,,,,,,,,,,,,,370.8136,372.1074,372.1074,372.5898,return,0.1655,,50,,,,,,FBP-RB-91.png,0.37,1.2,42,0.5,0,51,51,41,1,,,,,,,,,,,,,,,,,,,,,,,,,,,,,,,,,,,,,,,,
,,,,,SPR24_012,20,Female,2024-04-08_11h31.44.143,jersey_experiment_5_v0,2023.2.2,Win32,84.74576271,,,,,,,,,,,,,,,,372.59,373.6368,373.6369,374.9546,return,0.0978,,74.34895833,,,,,,FBP-PT-81.png,0.45,1.2,55,0.25,0,52,52,54,1,,,,,,,,,,,,,,,,,,,,,,,,,,,,,,,,,,,,,,,,
,,,,,SPR24_012,20,Female,2024-04-08_11h31.44.143,jersey_experiment_5_v0,2023.2.2,Win32,84.74576271,,,,,,,,,,,,,,,,374.9548,376.2486,376.2487,377.5781,return,0.1192,,50.65104167,,,,,,FBP-OG-17.png,0.35,1.2,1,0.5,0,53,53,0,1,,,,,,,,,,,,,,,,,,,,,,,,,,,,,,,,,,,,,,,,
,,,,,SPR24_012,20,Female,2024-04-08_11h31.44.143,jersey_experiment_5_v0,2023.2.2,Win32,84.74576271,,,,,,,,,,,,,,,,377.5783,378.6253,378.6253,379.8488,return,0.0996,,74.86979167,,,,,,FBP-YG-91.png,0.43,1.2,29,0.25,0,54,54,28,1,,,,,,,,,,,,,,,,,,,,,,,,,,,,,,,,,,,,,,,,
,,,,,SPR24_012,20,Female,2024-04-08_11h31.44.143,jersey_experiment_5_v0,2023.2.2,Win32,84.74576271,,,,,,,,,,,,,,,,379.8491,380.896,380.896,382.296,return,0.0403,,74.609375,,,,,,FBP-PT-91.png,0.4,1.2,58,0.25,0,55,55,57,1,,,,,,,,,,,,,,,,,,,,,,,,,,,,,,,,,,,,,,,,
,,,,,SPR24_012,20,Female,2024-04-08_11h31.44.143,jersey_experiment_5_v0,2023.2.2,Win32,84.74576271,,,,,,,,,,,,,,,,382.2962,383.5901,383.5901,384.2019,return,0.1784,,74.609375,,,,,,FBP-RB-71.png,0.43,1.2,34,0.5,0,56,56,33,1,,,,,,,,,,,,,,,,,,,,,,,,,,,,,,,,,,,,,,,,
,,,,,SPR24_012,20,Female,2024-04-08_11h31.44.143,jersey_experiment_5_v0,2023.2.2,Win32,84.74576271,,,,,,,,,,,,,,,,384.2022,385.249,385.2491,385.8961,return,0.1107,,74.47916667,,,,,,FBP-PT-71.png,0.43,1.2,49,0.25,0,57,57,48,1,,,,,,,,,,,,,,,,,,,,,,,,,,,,,,,,,,,,,,,,
,,,,,SPR24_012,20,Female,2024-04-08_11h31.44.143,jersey_experiment_5_v0,2023.2.2,Win32,84.74576271,,,,,,,,,,,,,,,,385.8964,387.1904,387.1904,388.7318,return,0.1415,,49.86979167,,,,,,FBP-OG-17.png,0.37,1.2,2,0.5,0,58,58,1,1,,,,,,,,,,,,,,,,,,,,,,,,,,,,,,,,,,,,,,,,
,,,,,SPR24_012,20,Female,2024-04-08_11h31.44.143,jersey_experiment_5_v0,2023.2.2,Win32,84.74576271,,,,,,,,,,,,,,,,388.7321,389.7786,389.7786,390.8257,return,0.1669,,49.73958333,,,,,,FBP-PT-71.png,0.37,1.2,47,0.25,0,59,59,46,1,,,,,,,,,,,,,,,,,,,,,,,,,,,,,,,,,,,,,,,,
,,,,,SPR24_012,20,Female,2024-04-08_11h31.44.143,jersey_experiment_5_v0,2023.2.2,Win32,84.74576271,,,,,,,,,,,,,,,,,,,,,,,,,,,,,,,,,,,,,,,390.8262,510.8189,,,,,,,,,,,,,,,,,,,,,,,,,,,,,,,,,,,,,,
,,,,,SPR24_012,20,Female,2024-04-08_11h31.44.143,jersey_experiment_5_v0,2023.2.2,Win32,84.74576271,,,,,,,,,,,,,,,,,,,,,,,,,,,,,,,,,,,,,,,,,510.819,513.1129,return,2.2861,,,,,,,,,,,,,,,,,,,,,,,,,,,,,,,,,,
,,,,,SPR24_012,20,Female,2024-04-08_11h31.44.143,jersey_experiment_5_v0,2023.2.2,Win32,84.74576271,,,,,,,,,,,,,,,,513.1191,514.1717,514.1718,517.0306,return,0.7477,,74.73958333,,,,,,FBP-OG-81.png,0.45,1.2,10,0.25,,,,,,,,,,,,,0,0,0,9,1,,,,,,,,,,,,,,,,,,,,,,,,,,,,
,,,,,SPR24_012,20,Female,2024-04-08_11h31.44.143,jersey_experiment_5_v0,2023.2.2,Win32,84.74576271,,,,,,,,,,,,,,,,517.0309,518.3248,518.3249,519.807,return,0.1986,,49.47916667,,,,,,FBP-PT-17.png,0.35,1.2,46,0.5,,,,,,,,,,,,,0,1,1,45,1,,,,,,,,,,,,,,,,,,,,,,,,,,,,
,,,,,SPR24_012,20,Female,2024-04-08_11h31.44.143,jersey_experiment_5_v0,2023.2.2,Win32,84.74576271,,,,,,,,,,,,,,,,519.8073,521.1012,521.1013,523.4191,return,0.1798,,99.609375,,,,,,FBP-PT-17.png,0.45,1.2,50,0.5,,,,,,,,,,,,,0,2,2,49,1,,,,,,,,,,,,,,,,,,,,,,,,,,,,
,,,,,SPR24_012,20,Female,2024-04-08_11h31.44.143,jersey_experiment_5_v0,2023.2.2,Win32,84.74576271,,,,,,,,,,,,,,,,523.4194,524.4661,524.4661,525.678,return,0.108,,74.73958333,,,,,,FBP-OG-81.png,0.43,1.2,9,0.25,,,,,,,,,,,,,0,3,3,8,1,,,,,,,,,,,,,,,,,,,,,,,,,,,,
,,,,,SPR24_012,20,Female,2024-04-08_11h31.44.143,jersey_experiment_5_v0,2023.2.2,Win32,84.74576271,,,,,,,,,,,,,,,,525.6783,526.9721,526.9721,527.9839,return,0.0249,,75,,,,,,FBP-YG-17.png,0.43,1.2,19,0.5,,,,,,,,,,,,,0,4,4,18,1,,,,,,,,,,,,,,,,,,,,,,,,,,,,
,,,,,SPR24_012,20,Female,2024-04-08_11h31.44.143,jersey_experiment_5_v0,2023.2.2,Win32,84.74576271,,,,,,,,,,,,,,,,527.9841,529.2781,529.2781,529.8074,return,0.1177,,75,,,,,,FBP-PT-18.png,0.4,1.2,53,0.5,,,,,,,,,,,,,0,5,5,52,1,,,,,,,,,,,,,,,,,,,,,,,,,,,,
,,,,,SPR24_012,20,Female,2024-04-08_11h31.44.143,jersey_experiment_5_v0,2023.2.2,Win32,84.74576271,,,,,,,,,,,,,,,,529.8075,530.8546,530.8546,532.0781,return,0.1078,,49.86979167,,,,,,FBP-RB-19.png,0.35,1.2,41,0.25,,,,,,,,,,,,,0,6,6,40,1,,,,,,,,,,,,,,,,,,,,,,,,,,,,
,,,,,SPR24_012,20,Female,2024-04-08_11h31.44.143,jersey_experiment_5_v0,2023.2.2,Win32,84.74576271,,,,,,,,,,,,,,,,532.0784,533.3723,533.3723,534.5252,return,0.1316,,74.73958333,,,,,,FBP-YG-18.png,0.45,1.2,25,0.5,,,,,,,,,,,,,0,7,7,24,1,,,,,,,,,,,,,,,,,,,,,,,,,,,,
,,,,,SPR24_012,20,Female,2024-04-08_11h31.44.143,jersey_experiment_5_v0,2023.2.2,Win32,84.74576271,,,,,,,,,,,,,,,,534.5254,535.8195,535.8195,536.3959,return,0.225,,74.73958333,,,,,,FBP-PT-18.png,0.45,1.2,55,0.5,,,,,,,,,,,,,0,8,8,54,1,,,,,,,,,,,,,,,,,,,,,,,,,,,,
,,,,,SPR24_012,20,Female,2024-04-08_11h31.44.143,jersey_experiment_5_v0,2023.2.2,Win32,84.74576271,,,,,,,,,,,,,,,,536.3961,537.443,537.443,539.2314,return,0.1422,,49.73958333,,,,,,FBP-OG-71.png,0.4,1.2,3,0.25,,,,,,,,,,,,,0,9,9,2,1,,,,,,,,,,,,,,,,,,,,,,,,,,,,
,,,,,SPR24_012,20,Female,2024-04-08_11h31.44.143,jersey_experiment_5_v0,2023.2.2,Win32,84.74576271,,,,,,,,,,,,,,,,539.2316,540.5255,540.5256,542.1727,return,0.0943,,24.73958333,,,,,,FBP-PT-18.png,0.35,1.2,51,0.5,,,,,,,,,,,,,0,10,10,50,1,,,,,,,,,,,,,,,,,,,,,,,,,,,,
,,,,,SPR24_012,20,Female,2024-04-08_11h31.44.143,jersey_experiment_5_v0,2023.2.2,Win32,84.74576271,,,,,,,,,,,,,,,,542.173,543.2198,543.2198,544.3961,return,0.0585,,49.86979167,,,,,,FBP-OG-91.png,0.37,1.2,12,0.25,,,,,,,,,,,,,0,11,11,11,1,,,,,,,,,,,,,,,,,,,,,,,,,,,,
,,,,,SPR24_012,20,Female,2024-04-08_11h31.44.143,jersey_experiment_5_v0,2023.2.2,Win32,84.74576271,,,,,,,,,,,,,,,,544.3964,545.4434,545.4434,546.4316,return,0.0849,,75.13020833,,,,,,FBP-OG-71.png,0.45,1.2,5,0.25,,,,,,,,,,,,,0,12,12,4,1,,,,,,,,,,,,,,,,,,,,,,,,,,,,
,,,,,SPR24_012,20,Female,2024-04-08_11h31.44.143,jersey_experiment_5_v0,2023.2.2,Win32,84.74576271,,,,,,,,,,,,,,,,546.4319,547.4787,547.4787,548.5846,return,0.1702,,50.65104167,,,,,,FBP-OG-81.png,0.35,1.2,6,0.25,,,,,,,,,,,,,0,13,13,5,1,,,,,,,,,,,,,,,,,,,,,,,,,,,,
,,,,,SPR24_012,20,Female,2024-04-08_11h31.44.143,jersey_experiment_5_v0,2023.2.2,Win32,84.74576271,,,,,,,,,,,,,,,,548.5849,549.8786,549.8787,550.2671,return,0.1328,,50.78125,,,,,,FBP-YG-19.png,0.35,1.2,26,0.5,,,,,,,,,,,,,0,14,14,25,1,,,,,,,,,,,,,,,,,,,,,,,,,,,,
,,,,,SPR24_012,20,Female,2024-04-08_11h31.44.143,jersey_experiment_5_v0,2023.2.2,Win32,84.74576271,,,,,,,,,,,,,,,,550.2673,551.5613,551.5614,552.314,return,0.0395,,74.73958333,,,,,,FBP-YG-19.png,0.45,1.2,30,0.5,,,,,,,,,,,,,0,15,15,29,1,,,,,,,,,,,,,,,,,,,,,,,,,,,,
,,,,,SPR24_012,20,Female,2024-04-08_11h31.44.143,jersey_experiment_5_v0,2023.2.2,Win32,84.74576271,,,,,,,,,,,,,,,,552.3143,553.3612,553.3613,554.2083,return,0.0475,,75.13020833,,,,,,FBP-RB-19.png,0.43,1.2,44,0.25,,,,,,,,,,,,,0,16,16,43,1,,,,,,,,,,,,,,,,,,,,,,,,,,,,
,,,,,SPR24_012,20,Female,2024-04-08_11h31.44.143,jersey_experiment_5_v0,2023.2.2,Win32,84.74576271,,,,,,,,,,,,,,,,554.2086,555.2556,555.2556,556.5379,return,0.0839,,74.609375,,,,,,FBP-OG-71.png,0.37,1.2,2,0.25,,,,,,,,,,,,,0,17,17,1,1,,,,,,,,,,,,,,,,,,,,,,,,,,,,
,,,,,SPR24_012,20,Female,2024-04-08_11h31.44.143,jersey_experiment_5_v0,2023.2.2,Win32,84.74576271,,,,,,,,,,,,,,,,556.5381,557.8319,557.832,558.0909,return,0.074,,74.609375,,,,,,FBP-YG-18.png,0.37,1.2,22,0.5,,,,,,,,,,,,,0,18,18,21,1,,,,,,,,,,,,,,,,,,,,,,,,,,,,
,,,,,SPR24_012,20,Female,2024-04-08_11h31.44.143,jersey_experiment_5_v0,2023.2.2,Win32,84.74576271,,,,,,,,,,,,,,,,558.0911,559.1379,559.138,560.3027,return,0.1413,,50,,,,,,FBP-RB-18.png,0.35,1.2,36,0.25,,,,,,,,,,,,,0,19,19,35,1,,,,,,,,,,,,,,,,,,,,,,,,,,,,
,,,,,SPR24_012,20,Female,2024-04-08_11h31.44.143,jersey_experiment_5_v0,2023.2.2,Win32,84.74576271,,,,,,,,,,,,,,,,560.303,561.3499,561.3499,564.2205,return,0.272,,99.21875,,,,,,FBP-RB-18.png,0.45,1.2,40,0.25,,,,,,,,,,,,,0,20,20,39,1,,,,,,,,,,,,,,,,,,,,,,,,,,,,
,,,,,SPR24_012,20,Female,2024-04-08_11h31.44.143,jersey_experiment_5_v0,2023.2.2,Win32,84.74576271,,,,,,,,,,,,,,,,564.2207,565.2676,565.2676,566.4911,return,0.0266,,74.47916667,,,,,,FBP-OG-81.png,0.4,1.2,8,0.25,,,,,,,,,,,,,0,21,21,7,1,,,,,,,,,,,,,,,,,,,,,,,,,,,,
,,,,,SPR24_012,20,Female,2024-04-08_11h31.44.143,jersey_experiment_5_v0,2023.2.2,Win32,84.74576271,,,,,,,,,,,,,,,,566.4913,567.5383,567.5383,568.703,return,0.0708,,50.13020833,,,,,,FBP-RB-17.png,0.35,1.2,31,0.25,,,,,,,,,,,,,0,22,22,30,1,,,,,,,,,,,,,,,,,,,,,,,,,,,,
,,,,,SPR24_012,20,Female,2024-04-08_11h31.44.143,jersey_experiment_5_v0,2023.2.2,Win32,84.74576271,,,,,,,,,,,,,,,,568.7032,569.75,569.7501,571.0561,return,0.0346,,74.86979167,,,,,,FBP-OG-91.png,0.43,1.2,14,0.25,,,,,,,,,,,,,0,23,23,13,1,,,,,,,,,,,,,,,,,,,,,,,,,,,,
,,,,,SPR24_012,20,Female,2024-04-08_11h31.44.143,jersey_experiment_5_v0,2023.2.2,Win32,84.74576271,,,,,,,,,,,,,,,,571.0562,572.1031,572.1032,573.2797,return,0.1633,,49.86979167,,,,,,FBP-RB-18.png,0.4,1.2,38,0.25,,,,,,,,,,,,,0,24,24,37,1,,,,,,,,,,,,,,,,,,,,,,,,,,,,
,,,,,SPR24_012,20,Female,2024-04-08_11h31.44.143,jersey_experiment_5_v0,2023.2.2,Win32,84.74576271,,,,,,,,,,,,,,,,573.2799,574.5739,574.5739,575.3386,return,0.0273,,50,,,,,,FBP-YG-19.png,0.37,1.2,27,0.5,,,,,,,,,,,,,0,25,25,26,1,,,,,,,,,,,,,,,,,,,,,,,,,,,,
,,,,,SPR24_012,20,Female,2024-04-08_11h31.44.143,jersey_experiment_5_v0,2023.2.2,Win32,84.74576271,,,,,,,,,,,,,,,,575.3388,576.3857,576.3858,578.327,return,0.1485,,99.34895833,,,,,,FBP-RB-17.png,0.45,1.2,35,0.25,,,,,,,,,,,,,0,26,26,34,1,,,,,,,,,,,,,,,,,,,,,,,,,,,,
,,,,,SPR24_012,20,Female,2024-04-08_11h31.44.143,jersey_experiment_5_v0,2023.2.2,Win32,84.74576271,,,,,,,,,,,,,,,,578.3272,579.3741,579.3741,582.3506,return,0.0239,,74.86979167,,,,,,FBP-RB-17.png,0.4,1.2,33,0.25,,,,,,,,,,,,,0,27,27,32,1,,,,,,,,,,,,,,,,,,,,,,,,,,,,
,,,,,SPR24_012,20,Female,2024-04-08_11h31.44.143,jersey_experiment_5_v0,2023.2.2,Win32,84.74576271,,,,,,,,,,,,,,,,582.3509,583.6449,583.6449,584.9508,return,0.0765,,25.13020833,,,,,,FBP-PT-19.png,0.35,1.2,56,0.5,,,,,,,,,,,,,0,28,28,55,1,,,,,,,,,,,,,,,,,,,,,,,,,,,,
,,,,,SPR24_012,20,Female,2024-04-08_11h31.44.143,jersey_experiment_5_v0,2023.2.2,Win32,84.74576271,,,,,,,,,,,,,,,,584.951,586.2448,586.2449,588.6332,return,1.2523,,75.13020833,,,,,,FBP-PT-17.png,0.4,1.2,48,0.5,,,,,,,,,,,,,0,29,29,47,1,,,,,,,,,,,,,,,,,,,,,,,,,,,,
,,,,,SPR24_012,20,Female,2024-04-08_11h31.44.143,jersey_experiment_5_v0,2023.2.2,Win32,84.74576271,,,,,,,,,,,,,,,,588.6335,589.6803,589.6803,590.7274,return,0.1009,,49.609375,,,,,,FBP-OG-91.png,0.4,1.2,13,0.25,,,,,,,,,,,,,0,30,30,12,1,,,,,,,,,,,,,,,,,,,,,,,,,,,,
,,,,,SPR24_012,20,Female,2024-04-08_11h31.44.143,jersey_experiment_5_v0,2023.2.2,Win32,84.74576271,,,,,,,,,,,,,,,,590.7276,591.7744,591.7745,593.257,return,0.1218,,74.47916667,,,,,,FBP-RB-19.png,0.45,1.2,45,0.25,,,,,,,,,,,,,0,31,31,44,1,,,,,,,,,,,,,,,,,,,,,,,,,,,,
,,,,,SPR24_012,20,Female,2024-04-08_11h31.44.143,jersey_experiment_5_v0,2023.2.2,Win32,84.74576271,,,,,,,,,,,,,,,,593.2574,594.3039,594.3039,595.3393,return,0.0839,,49.47916667,,,,,,FBP-RB-19.png,0.4,1.2,43,0.25,,,,,,,,,,,,,0,32,32,42,1,,,,,,,,,,,,,,,,,,,,,,,,,,,,
,,,,,SPR24_012,20,Female,2024-04-08_11h31.44.143,jersey_experiment_5_v0,2023.2.2,Win32,84.74576271,,,,,,,,,,,,,,,,595.3396,596.6334,596.6334,598.0807,return,0.0706,,74.47916667,,,,,,FBP-PT-18.png,0.43,1.2,54,0.5,,,,,,,,,,,,,0,33,33,53,1,,,,,,,,,,,,,,,,,,,,,,,,,,,,
,,,,,SPR24_012,20,Female,2024-04-08_11h31.44.143,jersey_experiment_5_v0,2023.2.2,Win32,84.74576271,,,,,,,,,,,,,,,,598.0809,599.3748,599.3748,600.9749,return,0.5876,,74.21875,,,,,,FBP-PT-19.png,0.43,1.2,59,0.5,,,,,,,,,,,,,0,34,34,58,1,,,,,,,,,,,,,,,,,,,,,,,,,,,,
,,,,,SPR24_012,20,Female,2024-04-08_11h31.44.143,jersey_experiment_5_v0,2023.2.2,Win32,84.74576271,,,,,,,,,,,,,,,,600.9751,602.0219,602.0219,602.7279,return,0.1243,,74.21875,,,,,,FBP-OG-71.png,0.43,1.2,4,0.25,,,,,,,,,,,,,0,35,35,3,1,,,,,,,,,,,,,,,,,,,,,,,,,,,,
,,,,,SPR24_012,20,Female,2024-04-08_11h31.44.143,jersey_experiment_5_v0,2023.2.2,Win32,84.74576271,,,,,,,,,,,,,,,,602.7281,604.022,604.0221,604.5397,return,0.1542,,74.21875,,,,,,FBP-PT-17.png,0.43,1.2,49,0.5,,,,,,,,,,,,,0,36,36,48,1,,,,,,,,,,,,,,,,,,,,,,,,,,,,
,,,,,SPR24_012,20,Female,2024-04-08_11h31.44.143,jersey_experiment_5_v0,2023.2.2,Win32,84.74576271,,,,,,,,,,,,,,,,604.54,605.8339,605.8339,607.9516,return,0.1518,,25,,,,,,FBP-YG-17.png,0.35,1.2,16,0.5,,,,,,,,,,,,,0,37,37,15,1,,,,,,,,,,,,,,,,,,,,,,,,,,,,
,,,,,SPR24_012,20,Female,2024-04-08_11h31.44.143,jersey_experiment_5_v0,2023.2.2,Win32,84.74576271,,,,,,,,,,,,,,,,607.9519,609.2458,609.2458,610.8223,return,0.0888,,74.34895833,,,,,,FBP-YG-17.png,0.45,1.2,20,0.5,,,,,,,,,,,,,0,38,38,19,1,,,,,,,,,,,,,,,,,,,,,,,,,,,,
,,,,,SPR24_012,20,Female,2024-04-08_11h31.44.143,jersey_experiment_5_v0,2023.2.2,Win32,84.74576271,,,,,,,,,,,,,,,,610.8225,611.8693,611.8693,613.2458,return,0.105,,74.73958333,,,,,,FBP-RB-18.png,0.43,1.2,39,0.25,,,,,,,,,,,,,0,39,39,38,1,,,,,,,,,,,,,,,,,,,,,,,,,,,,
,,,,,SPR24_012,20,Female,2024-04-08_11h31.44.143,jersey_experiment_5_v0,2023.2.2,Win32,84.74576271,,,,,,,,,,,,,,,,613.2461,614.5399,614.5399,615.3284,return,0.0618,,49.86979167,,,,,,FBP-PT-17.png,0.37,1.2,47,0.5,,,,,,,,,,,,,0,40,40,46,1,,,,,,,,,,,,,,,,,,,,,,,,,,,,
,,,,,SPR24_012,20,Female,2024-04-08_11h31.44.143,jersey_experiment_5_v0,2023.2.2,Win32,84.74576271,,,,,,,,,,,,,,,,615.3286,616.3754,616.3754,616.9872,return,0.1307,,49.86979167,,,,,,FBP-OG-71.png,0.35,1.2,1,0.25,,,,,,,,,,,,,0,41,41,0,1,,,,,,,,,,,,,,,,,,,,,,,,,,,,
,,,,,SPR24_012,20,Female,2024-04-08_11h31.44.143,jersey_experiment_5_v0,2023.2.2,Win32,84.74576271,,,,,,,,,,,,,,,,616.9874,618.2812,618.2812,618.8695,return,0.2204,,49.86979167,,,,,,FBP-PT-19.png,0.37,1.2,57,0.5,,,,,,,,,,,,,0,42,42,56,1,,,,,,,,,,,,,,,,,,,,,,,,,,,,
,,,,,SPR24_012,20,Female,2024-04-08_11h31.44.143,jersey_experiment_5_v0,2023.2.2,Win32,84.74576271,,,,,,,,,,,,,,,,618.8698,620.1639,620.1639,621.0815,return,0.1093,,75.13020833,,,,,,FBP-YG-19.png,0.4,1.2,28,0.5,,,,,,,,,,,,,0,43,43,27,1,,,,,,,,,,,,,,,,,,,,,,,,,,,,
,,,,,SPR24_012,20,Female,2024-04-08_11h31.44.143,jersey_experiment_5_v0,2023.2.2,Win32,84.74576271,,,,,,,,,,,,,,,,621.0819,622.3757,622.3757,623.4464,return,0.0433,,74.34895833,,,,,,FBP-YG-19.png,0.43,1.2,29,0.5,,,,,,,,,,,,,0,44,44,28,1,,,,,,,,,,,,,,,,,,,,,,,,,,,,
,,,,,SPR24_012,20,Female,2024-04-08_11h31.44.143,jersey_experiment_5_v0,2023.2.2,Win32,84.74576271,,,,,,,,,,,,,,,,623.4466,624.7405,624.7405,625.6228,return,0.1016,,74.47916667,,,,,,FBP-YG-18.png,0.43,1.2,24,0.5,,,,,,,,,,,,,0,45,45,23,1,,,,,,,,,,,,,,,,,,,,,,,,,,,,
,,,,,SPR24_012,20,Female,2024-04-08_11h31.44.143,jersey_experiment_5_v0,2023.2.2,Win32,84.74576271,,,,,,,,,,,,,,,,625.623,626.9171,626.9172,628.976,return,0.0133,,25,,,,,,FBP-YG-18.png,0.35,1.2,21,0.5,,,,,,,,,,,,,0,46,46,20,1,,,,,,,,,,,,,,,,,,,,,,,,,,,,
,,,,,SPR24_012,20,Female,2024-04-08_11h31.44.143,jersey_experiment_5_v0,2023.2.2,Win32,84.74576271,,,,,,,,,,,,,,,,628.9762,630.0231,630.0232,631.8466,return,0.0534,,24.73958333,,,,,,FBP-RB-17.png,0.37,1.2,32,0.25,,,,,,,,,,,,,0,47,47,31,1,,,,,,,,,,,,,,,,,,,,,,,,,,,,
,,,,,SPR24_012,20,Female,2024-04-08_11h31.44.143,jersey_experiment_5_v0,2023.2.2,Win32,84.74576271,,,,,,,,,,,,,,,,631.8469,632.8936,632.8936,634.5526,return,0.2765,,26.04166667,,,,,,FBP-RB-19.png,0.37,1.2,42,0.25,,,,,,,,,,,,,0,48,48,41,1,,,,,,,,,,,,,,,,,,,,,,,,,,,,
,,,,,SPR24_012,20,Female,2024-04-08_11h31.44.143,jersey_experiment_5_v0,2023.2.2,Win32,84.74576271,,,,,,,,,,,,,,,,634.5528,635.8469,635.8469,637.6232,return,1.0188,,50.26041667,,,,,,FBP-YG-18.png,0.4,1.2,23,0.5,,,,,,,,,,,,,0,49,49,22,1,,,,,,,,,,,,,,,,,,,,,,,,,,,,
,,,,,SPR24_012,20,Female,2024-04-08_11h31.44.143,jersey_experiment_5_v0,2023.2.2,Win32,84.74576271,,,,,,,,,,,,,,,,637.6235,638.9174,638.9174,640.1174,return,0.0423,,74.73958333,,,,,,FBP-PT-19.png,0.45,1.2,60,0.5,,,,,,,,,,,,,0,50,50,59,1,,,,,,,,,,,,,,,,,,,,,,,,,,,,
,,,,,SPR24_012,20,Female,2024-04-08_11h31.44.143,jersey_experiment_5_v0,2023.2.2,Win32,84.74576271,,,,,,,,,,,,,,,,640.1175,641.4118,641.4118,642.5175,return,0.1364,,49.34895833,,,,,,FBP-PT-18.png,0.37,1.2,52,0.5,,,,,,,,,,,,,0,51,51,51,1,,,,,,,,,,,,,,,,,,,,,,,,,,,,
,,,,,SPR24_012,20,Female,2024-04-08_11h31.44.143,jersey_experiment_5_v0,2023.2.2,Win32,84.74576271,,,,,,,,,,,,,,,,642.5177,643.8116,643.8117,644.6235,return,0.2015,,49.609375,,,,,,FBP-PT-19.png,0.4,1.2,58,0.5,,,,,,,,,,,,,0,52,52,57,1,,,,,,,,,,,,,,,,,,,,,,,,,,,,
,,,,,SPR24_012,20,Female,2024-04-08_11h31.44.143,jersey_experiment_5_v0,2023.2.2,Win32,84.74576271,,,,,,,,,,,,,,,,644.6237,645.6705,645.6705,646.7178,return,0.0851,,74.86979167,,,,,,FBP-OG-91.png,0.45,1.2,15,0.25,,,,,,,,,,,,,0,53,53,14,1,,,,,,,,,,,,,,,,,,,,,,,,,,,,
,,,,,SPR24_012,20,Female,2024-04-08_11h31.44.143,jersey_experiment_5_v0,2023.2.2,Win32,84.74576271,,,,,,,,,,,,,,,,646.7181,647.7649,647.7649,648.6708,return,0.1177,,50.52083333,,,,,,FBP-OG-91.png,0.35,1.2,11,0.25,,,,,,,,,,,,,0,54,54,10,1,,,,,,,,,,,,,,,,,,,,,,,,,,,,
,,,,,SPR24_012,20,Female,2024-04-08_11h31.44.143,jersey_experiment_5_v0,2023.2.2,Win32,84.74576271,,,,,,,,,,,,,,,,648.671,649.7179,649.7179,650.353,return,0.1039,,50.65104167,,,,,,FBP-RB-18.png,0.37,1.2,37,0.25,,,,,,,,,,,,,0,55,55,36,1,,,,,,,,,,,,,,,,,,,,,,,,,,,,
,,,,,SPR24_012,20,Female,2024-04-08_11h31.44.143,jersey_experiment_5_v0,2023.2.2,Win32,84.74576271,,,,,,,,,,,,,,,,650.3532,651.4002,651.4004,651.9296,return,0.2269,,50.65104167,,,,,,FBP-OG-81.png,0.37,1.2,7,0.25,,,,,,,,,,,,,0,56,56,6,1,,,,,,,,,,,,,,,,,,,,,,,,,,,,
,,,,,SPR24_012,20,Female,2024-04-08_11h31.44.143,jersey_experiment_5_v0,2023.2.2,Win32,84.74576271,,,,,,,,,,,,,,,,651.9298,653.2238,653.2239,653.6123,return,0.1318,,50.65104167,,,,,,FBP-YG-17.png,0.37,1.2,17,0.5,,,,,,,,,,,,,0,57,57,16,1,,,,,,,,,,,,,,,,,,,,,,,,,,,,
,,,,,SPR24_012,20,Female,2024-04-08_11h31.44.143,jersey_experiment_5_v0,2023.2.2,Win32,84.74576271,,,,,,,,,,,,,,,,653.6124,654.6592,654.6592,655.7887,return,0.0957,,74.86979167,,,,,,FBP-RB-17.png,0.43,1.2,34,0.25,,,,,,,,,,,,,0,58,58,33,1,,,,,,,,,,,,,,,,,,,,,,,,,,,,
,,,,,SPR24_012,20,Female,2024-04-08_11h31.44.143,jersey_experiment_5_v0,2023.2.2,Win32,84.74576271,,,,,,,,,,,,,,,,655.7889,657.0827,657.0828,657.824,return,0.0939,,74.47916667,,,,,,FBP-YG-17.png,0.4,1.2,18,0.5,,,,,,,,,,,,,0,59,59,17,1,,,,,,,,,,,,,,,,,,,,,,,,,,,,
,,,,,SPR24_012,20,Female,2024-04-08_11h31.44.143,jersey_experiment_5_v0,2023.2.2,Win32,84.74576271,,,,,,,,,,,,,,,,657.8255,659.1182,659.1183,660.1065,return,0.0158,,50.390625,,,,,,FBP-PT-91.png,0.35,1.2,56,0.5,,,,,,,,,,,,,,,,,,0,0,0,55,1,,,,,,,,,,,,,,,,,,,,,,,
,,,,,SPR24_012,20,Female,2024-04-08_11h31.44.143,jersey_experiment_5_v0,2023.2.2,Win32,84.74576271,,,,,,,,,,,,,,,,660.1068,661.1535,661.1535,662.3419,return,0.1249,,74.34895833,,,,,,FBP-RB-71.png,0.45,1.2,35,0.25,,,,,,,,,,,,,,,,,,0,1,1,34,1,,,,,,,,,,,,,,,,,,,,,,,
,,,,,SPR24_012,20,Female,2024-04-08_11h31.44.143,jersey_experiment_5_v0,2023.2.2,Win32,84.74576271,,,,,,,,,,,,,,,,662.3421,663.3889,663.389,664.3774,return,0.1091,,74.34895833,,,,,,FBP-RB-71.png,0.43,1.2,34,0.25,,,,,,,,,,,,,,,,,,0,2,2,33,1,,,,,,,,,,,,,,,,,,,,,,,
,,,,,SPR24_012,20,Female,2024-04-08_11h31.44.143,jersey_experiment_5_v0,2023.2.2,Win32,84.74576271,,,,,,,,,,,,,,,,664.3777,665.6714,665.6714,666.4243,return,0.2414,,74.34895833,,,,,,FBP-YG-71.png,0.45,1.2,20,0.5,,,,,,,,,,,,,,,,,,0,3,3,19,1,,,,,,,,,,,,,,,,,,,,,,,
,,,,,SPR24_012,20,Female,2024-04-08_11h31.44.143,jersey_experiment_5_v0,2023.2.2,Win32,84.74576271,,,,,,,,,,,,,,,,666.4245,667.7185,667.7185,668.6716,return,0.1875,,74.34895833,,,,,,FBP-PT-91.png,0.4,1.2,58,0.5,,,,,,,,,,,,,,,,,,0,4,4,57,1,,,,,,,,,,,,,,,,,,,,,,,
,,,,,SPR24_012,20,Female,2024-04-08_11h31.44.143,jersey_experiment_5_v0,2023.2.2,Win32,84.74576271,,,,,,,,,,,,,,,,668.6719,669.7186,669.7187,670.9422,return,0.0711,,49.86979167,,,,,,FBP-RB-81.png,0.37,1.2,37,0.25,,,,,,,,,,,,,,,,,,0,5,5,36,1,,,,,,,,,,,,,,,,,,,,,,,
,,,,,SPR24_012,20,Female,2024-04-08_11h31.44.143,jersey_experiment_5_v0,2023.2.2,Win32,84.74576271,,,,,,,,,,,,,,,,670.9425,671.9893,671.9893,674.1658,return,0.0896,,98.30729167,,,,,,FBP-OG-19.png,0.45,1.2,15,0.25,,,,,,,,,,,,,,,,,,0,6,6,14,1,,,,,,,,,,,,,,,,,,,,,,,
,,,,,SPR24_012,20,Female,2024-04-08_11h31.44.143,jersey_experiment_5_v0,2023.2.2,Win32,84.74576271,,,,,,,,,,,,,,,,674.166,675.213,675.213,676.3424,return,0.1002,,99.21875,,,,,,FBP-OG-18.png,0.45,1.2,10,0.25,,,,,,,,,,,,,,,,,,0,7,7,9,1,,,,,,,,,,,,,,,,,,,,,,,
,,,,,SPR24_012,20,Female,2024-04-08_11h31.44.143,jersey_experiment_5_v0,2023.2.2,Win32,84.74576271,,,,,,,,,,,,,,,,676.3426,677.6365,677.6366,679.2956,return,0.1179,,50.390625,,,,,,FBP-YG-81.png,0.35,1.2,21,0.5,,,,,,,,,,,,,,,,,,0,8,8,20,1,,,,,,,,,,,,,,,,,,,,,,,
,,,,,SPR24_012,20,Female,2024-04-08_11h31.44.143,jersey_experiment_5_v0,2023.2.2,Win32,84.74576271,,,,,,,,,,,,,,,,679.2958,680.3427,680.3427,681.4016,return,0.0874,,74.609375,,,,,,FBP-OG-19.png,0.43,1.2,14,0.25,,,,,,,,,,,,,,,,,,0,9,9,13,1,,,,,,,,,,,,,,,,,,,,,,,
,,,,,SPR24_012,20,Female,2024-04-08_11h31.44.143,jersey_experiment_5_v0,2023.2.2,Win32,84.74576271,,,,,,,,,,,,,,,,681.4018,682.6957,682.6957,683.578,return,0.0603,,49.08854167,,,,,,FBP-PT-81.png,0.37,1.2,52,0.5,,,,,,,,,,,,,,,,,,0,10,10,51,1,,,,,,,,,,,,,,,,,,,,,,,
,,,,,SPR24_012,20,Female,2024-04-08_11h31.44.143,jersey_experiment_5_v0,2023.2.2,Win32,84.74576271,,,,,,,,,,,,,,,,683.5782,684.872,684.872,685.578,return,0.2029,,50.52083333,,,,,,FBP-YG-91.png,0.35,1.2,26,0.5,,,,,,,,,,,,,,,,,,0,11,11,25,1,,,,,,,,,,,,,,,,,,,,,,,
,,,,,SPR24_012,20,Female,2024-04-08_11h31.44.143,jersey_experiment_5_v0,2023.2.2,Win32,84.74576271,,,,,,,,,,,,,,,,685.5782,686.8722,686.8723,688.5193,return,0.8649,,75.13020833,,,,,,FBP-YG-81.png,0.45,1.2,25,0.5,,,,,,,,,,,,,,,,,,0,12,12,24,1,,,,,,,,,,,,,,,,,,,,,,,
,,,,,SPR24_012,20,Female,2024-04-08_11h31.44.143,jersey_experiment_5_v0,2023.2.2,Win32,84.74576271,,,,,,,,,,,,,,,,688.5195,689.5665,689.5666,691.1899,return,0.1707,,74.86979167,,,,,,FBP-RB-71.png,0.4,1.2,33,0.25,,,,,,,,,,,,,,,,,,0,13,13,32,1,,,,,,,,,,,,,,,,,,,,,,,
,,,,,SPR24_012,20,Female,2024-04-08_11h31.44.143,jersey_experiment_5_v0,2023.2.2,Win32,84.74576271,,,,,,,,,,,,,,,,691.1901,692.4841,692.4843,693.884,return,0.2009,,75,,,,,,FBP-PT-71.png,0.43,1.2,49,0.5,,,,,,,,,,,,,,,,,,0,14,14,48,1,,,,,,,,,,,,,,,,,,,,,,,
,,,,,SPR24_012,20,Female,2024-04-08_11h31.44.143,jersey_experiment_5_v0,2023.2.2,Win32,84.74576271,,,,,,,,,,,,,,,,693.8843,695.1786,695.1786,696.2372,return,0.1763,,74.73958333,,,,,,FBP-PT-81.png,0.45,1.2,55,0.5,,,,,,,,,,,,,,,,,,0,15,15,54,1,,,,,,,,,,,,,,,,,,,,,,,
,,,,,SPR24_012,20,Female,2024-04-08_11h31.44.143,jersey_experiment_5_v0,2023.2.2,Win32,84.74576271,,,,,,,,,,,,,,,,696.2375,697.2843,697.2844,700.1198,return,0.1006,,24.86979167,,,,,,FBP-OG-18.png,0.35,1.2,6,0.25,,,,,,,,,,,,,,,,,,0,16,16,5,1,,,,,,,,,,,,,,,,,,,,,,,
,,,,,SPR24_012,20,Female,2024-04-08_11h31.44.143,jersey_experiment_5_v0,2023.2.2,Win32,84.74576271,,,,,,,,,,,,,,,,700.1199,701.1668,701.1668,702.2493,return,0.1108,,24.73958333,,,,,,FBP-OG-18.png,0.37,1.2,7,0.25,,,,,,,,,,,,,,,,,,0,17,17,6,1,,,,,,,,,,,,,,,,,,,,,,,
,,,,,SPR24_012,20,Female,2024-04-08_11h31.44.143,jersey_experiment_5_v0,2023.2.2,Win32,84.74576271,,,,,,,,,,,,,,,,702.2495,703.5435,703.5436,705.72,return,0.0534,,24.73958333,,,,,,FBP-PT-71.png,0.35,1.2,46,0.5,,,,,,,,,,,,,,,,,,0,18,18,45,1,,,,,,,,,,,,,,,,,,,,,,,
,,,,,SPR24_012,20,Female,2024-04-08_11h31.44.143,jersey_experiment_5_v0,2023.2.2,Win32,84.74576271,,,,,,,,,,,,,,,,705.7202,706.767,706.7671,708.4259,return,0.0516,,25.26041667,,,,,,FBP-RB-71.png,0.35,1.2,31,0.25,,,,,,,,,,,,,,,,,,0,19,19,30,1,,,,,,,,,,,,,,,,,,,,,,,
,,,,,SPR24_012,20,Female,2024-04-08_11h31.44.143,jersey_experiment_5_v0,2023.2.2,Win32,84.74576271,,,,,,,,,,,,,,,,708.4262,709.473,709.473,711.0027,return,0.0967,,74.73958333,,,,,,FBP-OG-17.png,0.43,1.2,4,0.25,,,,,,,,,,,,,,,,,,0,20,20,3,1,,,,,,,,,,,,,,,,,,,,,,,
,,,,,SPR24_012,20,Female,2024-04-08_11h31.44.143,jersey_experiment_5_v0,2023.2.2,Win32,84.74576271,,,,,,,,,,,,,,,,711.0029,712.0494,712.0495,713.273,return,0.133,,50.13020833,,,,,,FBP-OG-19.png,0.37,1.2,12,0.25,,,,,,,,,,,,,,,,,,0,21,21,11,1,,,,,,,,,,,,,,,,,,,,,,,
,,,,,SPR24_012,20,Female,2024-04-08_11h31.44.143,jersey_experiment_5_v0,2023.2.2,Win32,84.74576271,,,,,,,,,,,,,,,,713.2733,714.3203,714.3204,714.9556,return,0.109,,50.13020833,,,,,,FBP-OG-17.png,0.35,1.2,1,0.25,,,,,,,,,,,,,,,,,,0,22,22,0,1,,,,,,,,,,,,,,,,,,,,,,,
,,,,,SPR24_012,20,Female,2024-04-08_11h31.44.143,jersey_experiment_5_v0,2023.2.2,Win32,84.74576271,,,,,,,,,,,,,,,,714.9559,716.2498,716.2498,717.4498,return,0.0494,,50.13020833,,,,,,FBP-YG-81.png,0.37,1.2,22,0.5,,,,,,,,,,,,,,,,,,0,23,23,21,1,,,,,,,,,,,,,,,,,,,,,,,
,,,,,SPR24_012,20,Female,2024-04-08_11h31.44.143,jersey_experiment_5_v0,2023.2.2,Win32,84.74576271,,,,,,,,,,,,,,,,717.4501,718.744,718.7441,719.8382,return,0.1178,,74.34895833,,,,,,FBP-YG-91.png,0.4,1.2,28,0.5,,,,,,,,,,,,,,,,,,0,24,24,27,1,,,,,,,,,,,,,,,,,,,,,,,
,,,,,SPR24_012,20,Female,2024-04-08_11h31.44.143,jersey_experiment_5_v0,2023.2.2,Win32,84.74576271,,,,,,,,,,,,,,,,719.8385,720.8852,720.8853,722.2616,return,0.1265,,49.34895833,,,,,,FBP-RB-91.png,0.35,1.2,41,0.25,,,,,,,,,,,,,,,,,,0,25,25,40,1,,,,,,,,,,,,,,,,,,,,,,,
,,,,,SPR24_012,20,Female,2024-04-08_11h31.44.143,jersey_experiment_5_v0,2023.2.2,Win32,84.74576271,,,,,,,,,,,,,,,,722.2618,723.3088,723.3088,725.1796,return,0.1072,,74.21875,,,,,,FBP-OG-18.png,0.4,1.2,8,0.25,,,,,,,,,,,,,,,,,,0,26,26,7,1,,,,,,,,,,,,,,,,,,,,,,,
,,,,,SPR24_012,20,Female,2024-04-08_11h31.44.143,jersey_experiment_5_v0,2023.2.2,Win32,84.74576271,,,,,,,,,,,,,,,,725.1799,726.4738,726.4738,727.8149,return,0.5011,,74.73958333,,,,,,FBP-YG-81.png,0.43,1.2,24,0.5,,,,,,,,,,,,,,,,,,0,27,27,23,1,,,,,,,,,,,,,,,,,,,,,,,
,,,,,SPR24_012,20,Female,2024-04-08_11h31.44.143,jersey_experiment_5_v0,2023.2.2,Win32,84.74576271,,,,,,,,,,,,,,,,727.8152,729.1091,729.1091,730.2502,return,0.1806,,74.609375,,,,,,FBP-PT-81.png,0.43,1.2,54,0.5,,,,,,,,,,,,,,,,,,0,28,28,53,1,,,,,,,,,,,,,,,,,,,,,,,
,,,,,SPR24_012,20,Female,2024-04-08_11h31.44.143,jersey_experiment_5_v0,2023.2.2,Win32,84.74576271,,,,,,,,,,,,,,,,730.2505,731.5445,731.5446,732.2152,return,0.2059,,74.86979167,,,,,,FBP-YG-91.png,0.43,1.2,29,0.5,,,,,,,,,,,,,,,,,,0,29,29,28,1,,,,,,,,,,,,,,,,,,,,,,,
,,,,,SPR24_012,20,Female,2024-04-08_11h31.44.143,jersey_experiment_5_v0,2023.2.2,Win32,84.74576271,,,,,,,,,,,,,,,,732.2154,733.262,733.2621,733.9328,return,0.2137,,74.86979167,,,,,,FBP-OG-17.png,0.45,1.2,5,0.25,,,,,,,,,,,,,,,,,,0,30,30,4,1,,,,,,,,,,,,,,,,,,,,,,,
,,,,,SPR24_012,20,Female,2024-04-08_11h31.44.143,jersey_experiment_5_v0,2023.2.2,Win32,84.74576271,,,,,,,,,,,,,,,,733.9331,734.9799,734.98,735.768,return,0.252,,74.86979167,,,,,,FBP-RB-81.png,0.43,1.2,39,0.25,,,,,,,,,,,,,,,,,,0,31,31,38,1,,,,,,,,,,,,,,,,,,,,,,,
,,,,,SPR24_012,20,Female,2024-04-08_11h31.44.143,jersey_experiment_5_v0,2023.2.2,Win32,84.74576271,,,,,,,,,,,,,,,,735.7682,737.0624,737.0624,739.7919,return,0.165,,50,,,,,,FBP-PT-71.png,0.37,1.2,47,0.5,,,,,,,,,,,,,,,,,,0,32,32,46,1,,,,,,,,,,,,,,,,,,,,,,,
,,,,,SPR24_012,20,Female,2024-04-08_11h31.44.143,jersey_experiment_5_v0,2023.2.2,Win32,84.74576271,,,,,,,,,,,,,,,,739.7922,741.086,741.086,741.7447,return,0.1754,,50.13020833,,,,,,FBP-PT-81.png,0.4,1.2,53,0.5,,,,,,,,,,,,,,,,,,0,33,33,52,1,,,,,,,,,,,,,,,,,,,,,,,
,,,,,SPR24_012,20,Female,2024-04-08_11h31.44.143,jersey_experiment_5_v0,2023.2.2,Win32,84.74576271,,,,,,,,,,,,,,,,741.745,742.792,742.792,743.533,return,0.1999,,50.13020833,,,,,,FBP-RB-91.png,0.4,1.2,43,0.25,,,,,,,,,,,,,,,,,,0,34,34,42,1,,,,,,,,,,,,,,,,,,,,,,,
,,,,,SPR24_012,20,Female,2024-04-08_11h31.44.143,jersey_experiment_5_v0,2023.2.2,Win32,84.74576271,,,,,,,,,,,,,,,,743.5333,744.8273,744.8273,746.2392,return,0.1181,,74.609375,,,,,,FBP-YG-81.png,0.4,1.2,23,0.5,,,,,,,,,,,,,,,,,,0,35,35,22,1,,,,,,,,,,,,,,,,,,,,,,,
,,,,,SPR24_012,20,Female,2024-04-08_11h31.44.143,jersey_experiment_5_v0,2023.2.2,Win32,84.74576271,,,,,,,,,,,,,,,,746.2394,747.2862,747.2862,748.4392,return,0.0661,,75,,,,,,FBP-OG-18.png,0.43,1.2,9,0.25,,,,,,,,,,,,,,,,,,0,36,36,8,1,,,,,,,,,,,,,,,,,,,,,,,
,,,,,SPR24_012,20,Female,2024-04-08_11h31.44.143,jersey_experiment_5_v0,2023.2.2,Win32,84.74576271,,,,,,,,,,,,,,,,748.4395,749.7334,749.7335,751.7336,return,0.1959,,74.34895833,,,,,,FBP-PT-71.png,0.45,1.2,50,0.5,,,,,,,,,,,,,,,,,,0,37,37,49,1,,,,,,,,,,,,,,,,,,,,,,,
,,,,,SPR24_012,20,Female,2024-04-08_11h31.44.143,jersey_experiment_5_v0,2023.2.2,Win32,84.74576271,,,,,,,,,,,,,,,,751.7338,753.0277,753.0277,754.2982,return,0.1809,,49.86979167,,,,,,FBP-PT-91.png,0.37,1.2,57,0.5,,,,,,,,,,,,,,,,,,0,38,38,56,1,,,,,,,,,,,,,,,,,,,,,,,
,,,,,SPR24_012,20,Female,2024-04-08_11h31.44.143,jersey_experiment_5_v0,2023.2.2,Win32,84.74576271,,,,,,,,,,,,,,,,754.2984,755.3454,755.3454,756.016,return,0.1667,,50.78125,,,,,,FBP-RB-71.png,0.37,1.2,32,0.25,,,,,,,,,,,,,,,,,,0,39,39,31,1,,,,,,,,,,,,,,,,,,,,,,,
,,,,,SPR24_012,20,Female,2024-04-08_11h31.44.143,jersey_experiment_5_v0,2023.2.2,Win32,84.74576271,,,,,,,,,,,,,,,,756.0162,757.063,757.0631,758.5104,return,1.1675,,72.13541667,,,,,,FBP-RB-91.png,0.45,1.2,45,0.25,,,,,,,,,,,,,,,,,,0,40,40,44,1,,,,,,,,,,,,,,,,,,,,,,,
,,,,,SPR24_012,20,Female,2024-04-08_11h31.44.143,jersey_experiment_5_v0,2023.2.2,Win32,84.74576271,,,,,,,,,,,,,,,,758.5106,759.8045,759.8045,760.5337,return,0.1006,,74.47916667,,,,,,FBP-YG-91.png,0.45,1.2,30,0.5,,,,,,,,,,,,,,,,,,0,41,41,29,1,,,,,,,,,,,,,,,,,,,,,,,
,,,,,SPR24_012,20,Female,2024-04-08_11h31.44.143,jersey_experiment_5_v0,2023.2.2,Win32,84.74576271,,,,,,,,,,,,,,,,760.5339,761.8281,761.8281,764.4281,return,0.1304,,33.59375,,,,,,FBP-PT-81.png,0.35,1.2,51,0.5,,,,,,,,,,,,,,,,,,0,42,42,50,1,,,,,,,,,,,,,,,,,,,,,,,
,,,,,SPR24_012,20,Female,2024-04-08_11h31.44.143,jersey_experiment_5_v0,2023.2.2,Win32,84.74576271,,,,,,,,,,,,,,,,764.4283,765.4751,765.4751,767.2167,return,0.1781,,73.56770833,,,,,,FBP-RB-81.png,0.45,1.2,40,0.25,,,,,,,,,,,,,,,,,,0,43,43,39,1,,,,,,,,,,,,,,,,,,,,,,,
,,,,,SPR24_012,20,Female,2024-04-08_11h31.44.143,jersey_experiment_5_v0,2023.2.2,Win32,84.74576271,,,,,,,,,,,,,,,,767.2169,768.2635,768.2636,770.4638,return,0.1076,,39.97395833,,,,,,FBP-OG-19.png,0.35,1.2,11,0.25,,,,,,,,,,,,,,,,,,0,44,44,10,1,,,,,,,,,,,,,,,,,,,,,,,
,,,,,SPR24_012,20,Female,2024-04-08_11h31.44.143,jersey_experiment_5_v0,2023.2.2,Win32,84.74576271,,,,,,,,,,,,,,,,770.464,771.5107,771.5107,772.4754,return,0.1676,,39.84375,,,,,,FBP-RB-91.png,0.37,1.2,42,0.25,,,,,,,,,,,,,,,,,,0,45,45,41,1,,,,,,,,,,,,,,,,,,,,,,,
,,,,,SPR24_012,20,Female,2024-04-08_11h31.44.143,jersey_experiment_5_v0,2023.2.2,Win32,84.74576271,,,,,,,,,,,,,,,,772.4756,773.5225,773.5225,774.6401,return,0.0706,,49.73958333,,,,,,FBP-OG-19.png,0.4,1.2,13,0.25,,,,,,,,,,,,,,,,,,0,46,46,12,1,,,,,,,,,,,,,,,,,,,,,,,
,,,,,SPR24_012,20,Female,2024-04-08_11h31.44.143,jersey_experiment_5_v0,2023.2.2,Win32,84.74576271,,,,,,,,,,,,,,,,774.6403,775.9344,775.9344,777.2639,return,0.1174,,75.52083333,,,,,,FBP-YG-71.png,0.43,1.2,19,0.5,,,,,,,,,,,,,,,,,,0,47,47,18,1,,,,,,,,,,,,,,,,,,,,,,,
,,,,,SPR24_012,20,Female,2024-04-08_11h31.44.143,jersey_experiment_5_v0,2023.2.2,Win32,84.74576271,,,,,,,,,,,,,,,,777.2641,778.558,778.5581,779.064,return,0.242,,75.26041667,,,,,,FBP-PT-91.png,0.43,1.2,59,0.5,,,,,,,,,,,,,,,,,,0,48,48,58,1,,,,,,,,,,,,,,,,,,,,,,,
,,,,,SPR24_012,20,Female,2024-04-08_11h31.44.143,jersey_experiment_5_v0,2023.2.2,Win32,84.74576271,,,,,,,,,,,,,,,,779.0641,780.1111,780.1111,780.6639,return,0.1478,,75.13020833,,,,,,FBP-RB-81.png,0.4,1.2,38,0.25,,,,,,,,,,,,,,,,,,0,49,49,37,1,,,,,,,,,,,,,,,,,,,,,,,
,,,,,SPR24_012,20,Female,2024-04-08_11h31.44.143,jersey_experiment_5_v0,2023.2.2,Win32,84.74576271,,,,,,,,,,,,,,,,780.6642,781.7111,781.7111,783.9581,return,1.7966,,50.65104167,,,,,,FBP-RB-81.png,0.35,1.2,36,0.25,,,,,,,,,,,,,,,,,,0,50,50,35,1,,,,,,,,,,,,,,,,,,,,,,,
,,,,,SPR24_012,20,Female,2024-04-08_11h31.44.143,jersey_experiment_5_v0,2023.2.2,Win32,84.74576271,,,,,,,,,,,,,,,,783.9584,785.2522,785.2523,786.7818,return,0.1045,,59.765625,,,,,,FBP-PT-71.png,0.4,1.2,48,0.5,,,,,,,,,,,,,,,,,,0,51,51,47,1,,,,,,,,,,,,,,,,,,,,,,,
,,,,,SPR24_012,20,Female,2024-04-08_11h31.44.143,jersey_experiment_5_v0,2023.2.2,Win32,84.74576271,,,,,,,,,,,,,,,,786.7821,787.8289,787.829,789.0406,return,0.1414,,75,,,,,,FBP-RB-91.png,0.43,1.2,44,0.25,,,,,,,,,,,,,,,,,,0,52,52,43,1,,,,,,,,,,,,,,,,,,,,,,,
,,,,,SPR24_012,20,Female,2024-04-08_11h31.44.143,jersey_experiment_5_v0,2023.2.2,Win32,84.74576271,,,,,,,,,,,,,,,,789.0408,790.0878,790.0878,791.2409,return,0.1453,,49.34895833,,,,,,FBP-OG-17.png,0.37,1.2,2,0.25,,,,,,,,,,,,,,,,,,0,53,53,1,1,,,,,,,,,,,,,,,,,,,,,,,
,,,,,SPR24_012,20,Female,2024-04-08_11h31.44.143,jersey_experiment_5_v0,2023.2.2,Win32,84.74576271,,,,,,,,,,,,,,,,791.241,792.288,792.288,794.0291,return,0.142,,63.54166667,,,,,,FBP-OG-17.png,0.4,1.2,3,0.25,,,,,,,,,,,,,,,,,,0,54,54,2,1,,,,,,,,,,,,,,,,,,,,,,,
,,,,,SPR24_012,20,Female,2024-04-08_11h31.44.143,jersey_experiment_5_v0,2023.2.2,Win32,84.74576271,,,,,,,,,,,,,,,,794.0293,795.3232,795.3232,796.5353,return,0.0898,,50.390625,,,,,,FBP-YG-71.png,0.35,1.2,16,0.5,,,,,,,,,,,,,,,,,,0,55,55,15,1,,,,,,,,,,,,,,,,,,,,,,,
,,,,,SPR24_012,20,Female,2024-04-08_11h31.44.143,jersey_experiment_5_v0,2023.2.2,Win32,84.74576271,,,,,,,,,,,,,,,,796.5355,797.8293,797.8294,799.3353,return,0.1229,,98.95833333,,,,,,FBP-PT-91.png,0.45,1.2,60,0.5,,,,,,,,,,,,,,,,,,0,56,56,59,1,,,,,,,,,,,,,,,,,,,,,,,
,,,,,SPR24_012,20,Female,2024-04-08_11h31.44.143,jersey_experiment_5_v0,2023.2.2,Win32,84.74576271,,,,,,,,,,,,,,,,799.3356,800.6294,800.6295,801.5942,return,0.1441,,73.828125,,,,,,FBP-YG-71.png,0.4,1.2,18,0.5,,,,,,,,,,,,,,,,,,0,57,57,17,1,,,,,,,,,,,,,,,,,,,,,,,
,,,,,SPR24_012,20,Female,2024-04-08_11h31.44.143,jersey_experiment_5_v0,2023.2.2,Win32,84.74576271,,,,,,,,,,,,,,,,801.5944,802.8883,802.8883,804.0883,return,0.1687,,50.13020833,,,,,,FBP-YG-71.png,0.37,1.2,17,0.5,,,,,,,,,,,,,,,,,,0,58,58,16,1,,,,,,,,,,,,,,,,,,,,,,,
,,,,,SPR24_012,20,Female,2024-04-08_11h31.44.143,jersey_experiment_5_v0,2023.2.2,Win32,84.74576271,,,,,,,,,,,,,,,,804.0885,805.3828,805.3828,806.5708,return,0.2017,,49.609375,,,,,,FBP-YG-91.png,0.37,1.2,27,0.5,,,,,,,,,,,,,,,,,,0,59,59,26,1,,,,,,,,,,,,,,,,,,,,,,,
,,,,,SPR24_012,20,Female,2024-04-08_11h31.44.143,jersey_experiment_5_v0,2023.2.2,Win32,84.74576271,,,,,,,,,,,,,,,,,,,,,,,,,,,,,,,,,,,,,,,,,,,,,,,,,,,,,,,,806.5712,811.4184,return,4.8376,,,,,,,,,,,,,,,,,,,
,,,,,SPR24_012,20,Female,2024-04-08_11h31.44.143,jersey_experiment_5_v0,2023.2.2,Win32,84.74576271,,,,,,,,,,,,,,,,,,,,,,,,,,,,,,,,,,,,,,,,,,,,,,,,,,,,,,,,,,,,,811.4184,816.0065,1,3.7749,return,0.7946,,,,,,,,,,,,
,,,,,SPR24_012,20,Female,2024-04-08_11h31.44.143,jersey_experiment_5_v0,2023.2.2,Win32,84.74576271,,,,,,,,,,,,,,,,,,,,,,,,,,,,,,,,,,,,,,,,,,,,,,,,,,,,,,,,,,,,,,,,,,,,816.0067,885.7906,I am not sure.,right,59.8396,,,,,,
,,,,,SPR24_012,20,Female,2024-04-08_11h31.44.143,jersey_experiment_5_v0,2023.2.2,Win32,84.74576271,,,,,,,,,,,,,,,,,,,,,,,,,,,,,,,,,,,,,,,,,,,,,,,,,,,,,,,,,,,,,,,,,,,,,,,,,,885.7906,888.668,return,2.867,