requirements.started,requirements.stopped,key_resp_3.keys,key_resp_3.rt,key_resp_3.duration,Subject ID,Age,Gender,date,expName,psychopyVersion,OS,frameRate,instructions1.started,instructions1.stopped,key_resp.keys,key_resp.rt,key_resp.duration,example.started,example.stopped,enter_2.keys,enter_2.rt,enter_2.duration,instructions2.started,instructions2.stopped,enter_3.keys,enter_3.rt,enter_3.duration,image.started,image.stopped,slider_2.started,slider_2.stopped,next.keys,next.rt,next.duration,slider.response,trial_block_1.thisRepN,trial_block_1.thisTrialN,trial_block_1.thisN,trial_block_1.thisIndex,trial_block_1.ran,Path,Width,Height,Index,Duration,trial_block_2.thisRepN,trial_block_2.thisTrialN,trial_block_2.thisN,trial_block_2.thisIndex,trial_block_2.ran,rest_break.started,rest_break.stopped,end_break.started,end_break.stopped,key_resp_5.keys,key_resp_5.rt,key_resp_5.duration,trial_block_3.thisRepN,trial_block_3.thisTrialN,trial_block_3.thisN,trial_block_3.thisIndex,trial_block_3.ran,trial_block_4.thisRepN,trial_block_4.thisTrialN,trial_block_4.thisN,trial_block_4.thisIndex,trial_block_4.ran,questions_intro.started,questions_intro.stopped,enter_12.keys,enter_12.rt,enter_12.duration,question2.started,question2.stopped,question_doingbest.response,question_doingbest.rt,enter_15.keys,enter_15.rt,enter_15.duration,pattern.started,pattern.stopped,pattern_2.text,enter_17.keys,enter_17.rt,enter_17.duration,thankyou.started,thankyou.stopped,enter_14.keys,enter_14.rt,enter_14.duration
1E-04,10.3755,return,10.3639,,SPR24_092,21,Female,2024-04-25_13h30.48.085,jersey_experiment_5_v0,2023.2.2,Win32,60.24096386,,,,,,,,,,,,,,,,,,,,,,,,,,,,,,,,,,,,,,,,,,,,,,,,,,,,,,,,,,,,,,,,,,,,,,,,,,,,,,
,,,,,SPR24_092,21,Female,2024-04-25_13h30.48.085,jersey_experiment_5_v0,2023.2.2,Win32,60.24096386,10.3755,24.2578,return,13.8552,,,,,,,,,,,,,,,,,,,,,,,,,,,,,,,,,,,,,,,,,,,,,,,,,,,,,,,,,,,,,,,,,,,,,,,,,,
,,,,,SPR24_092,21,Female,2024-04-25_13h30.48.085,jersey_experiment_5_v0,2023.2.2,Win32,60.24096386,,,,,,24.2579,30.874,return,6.5626,,,,,,,,,,,,,,,,,,,,,,,,,,,,,,,,,,,,,,,,,,,,,,,,,,,,,,,,,,,,,,,,,,,,,
,,,,,SPR24_092,21,Female,2024-04-25_13h30.48.085,jersey_experiment_5_v0,2023.2.2,Win32,60.24096386,,,,,,,,,,,30.8741,54.5724,return,23.6791,,,,,,,,,,,,,,,,,,,,,,,,,,,,,,,,,,,,,,,,,,,,,,,,,,,,,,,,,,,,,,,,
,,,,,SPR24_092,21,Female,2024-04-25_13h30.48.085,jersey_experiment_5_v0,2023.2.2,Win32,60.24096386,,,,,,,,,,,,,,,,54.5785,55.872,55.872,73.1709,return,7.3873,,61.97916667,0,0,0,0,1,FBP-OG-71.png,0.35,1.2,1,0.5,,,,,,,,,,,,,,,,,,,,,,,,,,,,,,,,,,,,,,,,,,,,,
,,,,,SPR24_092,21,Female,2024-04-25_13h30.48.085,jersey_experiment_5_v0,2023.2.2,Win32,60.24096386,,,,,,,,,,,,,,,,73.1713,74.4707,74.4708,80.4537,return,2.9035,,87.23958333,0,1,1,7,1,FBP-OG-81.png,0.4,1.2,8,0.5,,,,,,,,,,,,,,,,,,,,,,,,,,,,,,,,,,,,,,,,,,,,,
,,,,,SPR24_092,21,Female,2024-04-25_13h30.48.085,jersey_experiment_5_v0,2023.2.2,Win32,60.24096386,,,,,,,,,,,,,,,,80.458,81.7536,81.7536,88.0198,return,2.3334,,49.86979167,0,2,2,38,1,FBP-RB-18.png,0.43,1.2,39,0.5,,,,,,,,,,,,,,,,,,,,,,,,,,,,,,,,,,,,,,,,,,,,,
,,,,,SPR24_092,21,Female,2024-04-25_13h30.48.085,jersey_experiment_5_v0,2023.2.2,Win32,60.24096386,,,,,,,,,,,,,,,,88.0199,89.0698,89.0698,97.1524,return,1.5903,,62.63020833,0,3,3,23,1,FBP-YG-18.png,0.43,1.2,24,0.25,,,,,,,,,,,,,,,,,,,,,,,,,,,,,,,,,,,,,,,,,,,,,
,,,,,SPR24_092,21,Female,2024-04-25_13h30.48.085,jersey_experiment_5_v0,2023.2.2,Win32,60.24096386,,,,,,,,,,,,,,,,97.1526,98.4525,98.4525,103.0189,return,1.6319,,24.86979167,0,4,4,37,1,FBP-RB-18.png,0.4,1.2,38,0.5,,,,,,,,,,,,,,,,,,,,,,,,,,,,,,,,,,,,,,,,,,,,,
,,,,,SPR24_092,21,Female,2024-04-25_13h30.48.085,jersey_experiment_5_v0,2023.2.2,Win32,60.24096386,,,,,,,,,,,,,,,,103.019,104.0687,104.0687,109.6851,return,1.4547,,11.97916667,0,5,5,26,1,FBP-YG-19.png,0.37,1.2,27,0.25,,,,,,,,,,,,,,,,,,,,,,,,,,,,,,,,,,,,,,,,,,,,,
,,,,,SPR24_092,21,Female,2024-04-25_13h30.48.085,jersey_experiment_5_v0,2023.2.2,Win32,60.24096386,,,,,,,,,,,,,,,,109.6853,110.985,110.985,115.018,return,1.1192,,74.86979167,0,6,6,12,1,FBP-OG-91.png,0.4,1.2,13,0.5,,,,,,,,,,,,,,,,,,,,,,,,,,,,,,,,,,,,,,,,,,,,,
,,,,,SPR24_092,21,Female,2024-04-25_13h30.48.085,jersey_experiment_5_v0,2023.2.2,Win32,60.24096386,,,,,,,,,,,,,,,,115.0182,116.3179,116.318,121.4008,return,0.9986,,87.36979167,0,7,7,44,1,FBP-RB-19.png,0.45,1.2,45,0.5,,,,,,,,,,,,,,,,,,,,,,,,,,,,,,,,,,,,,,,,,,,,,
,,,,,SPR24_092,21,Female,2024-04-25_13h30.48.085,jersey_experiment_5_v0,2023.2.2,Win32,60.24096386,,,,,,,,,,,,,,,,121.4009,122.4509,122.451,125.8505,return,0.8501,,11.71875,0,8,8,50,1,FBP-PT-18.png,0.35,1.2,51,0.25,,,,,,,,,,,,,,,,,,,,,,,,,,,,,,,,,,,,,,,,,,,,,
,,,,,SPR24_092,21,Female,2024-04-25_13h30.48.085,jersey_experiment_5_v0,2023.2.2,Win32,60.24096386,,,,,,,,,,,,,,,,125.8507,126.9006,126.9006,130.8169,return,1.2236,,11.84895833,0,9,9,46,1,FBP-PT-17.png,0.37,1.2,47,0.25,,,,,,,,,,,,,,,,,,,,,,,,,,,,,,,,,,,,,,,,,,,,,
,,,,,SPR24_092,21,Female,2024-04-25_13h30.48.085,jersey_experiment_5_v0,2023.2.2,Win32,60.24096386,,,,,,,,,,,,,,,,130.8171,131.8668,131.8668,134.9167,return,0.7554,,62.23958333,0,10,10,57,1,FBP-PT-19.png,0.4,1.2,58,0.25,,,,,,,,,,,,,,,,,,,,,,,,,,,,,,,,,,,,,,,,,,,,,
,,,,,SPR24_092,21,Female,2024-04-25_13h30.48.085,jersey_experiment_5_v0,2023.2.2,Win32,60.24096386,,,,,,,,,,,,,,,,134.9168,136.2166,136.2166,138.9164,return,0.8221,,25,0,11,11,36,1,FBP-RB-18.png,0.37,1.2,37,0.5,,,,,,,,,,,,,,,,,,,,,,,,,,,,,,,,,,,,,,,,,,,,,
,,,,,SPR24_092,21,Female,2024-04-25_13h30.48.085,jersey_experiment_5_v0,2023.2.2,Win32,60.24096386,,,,,,,,,,,,,,,,138.9165,139.9664,139.9665,143.4661,return,0.9658,,74.609375,0,12,12,58,1,FBP-PT-19.png,0.43,1.2,59,0.25,,,,,,,,,,,,,,,,,,,,,,,,,,,,,,,,,,,,,,,,,,,,,
,,,,,SPR24_092,21,Female,2024-04-25_13h30.48.085,jersey_experiment_5_v0,2023.2.2,Win32,60.24096386,,,,,,,,,,,,,,,,143.4662,144.5159,144.516,147.6325,return,0.9235,,24.73958333,0,13,13,16,1,FBP-YG-17.png,0.37,1.2,17,0.25,,,,,,,,,,,,,,,,,,,,,,,,,,,,,,,,,,,,,,,,,,,,,
,,,,,SPR24_092,21,Female,2024-04-25_13h30.48.085,jersey_experiment_5_v0,2023.2.2,Win32,60.24096386,,,,,,,,,,,,,,,,147.6326,148.6824,148.6825,151.9489,return,0.7423,,11.71875,0,14,14,56,1,FBP-PT-19.png,0.37,1.2,57,0.25,,,,,,,,,,,,,,,,,,,,,,,,,,,,,,,,,,,,,,,,,,,,,
,,,,,SPR24_092,21,Female,2024-04-25_13h30.48.085,jersey_experiment_5_v0,2023.2.2,Win32,60.24096386,,,,,,,,,,,,,,,,151.9491,153.2489,153.2489,155.6153,return,0.7413,,74.86979167,0,15,15,42,1,FBP-RB-19.png,0.4,1.2,43,0.5,,,,,,,,,,,,,,,,,,,,,,,,,,,,,,,,,,,,,,,,,,,,,
,,,,,SPR24_092,21,Female,2024-04-25_13h30.48.085,jersey_experiment_5_v0,2023.2.2,Win32,60.24096386,,,,,,,,,,,,,,,,155.6155,156.9152,156.9152,159.5149,return,0.767,,87.890625,0,16,16,4,1,FBP-OG-71.png,0.45,1.2,5,0.5,,,,,,,,,,,,,,,,,,,,,,,,,,,,,,,,,,,,,,,,,,,,,
,,,,,SPR24_092,21,Female,2024-04-25_13h30.48.085,jersey_experiment_5_v0,2023.2.2,Win32,60.24096386,,,,,,,,,,,,,,,,159.5152,160.8149,160.8149,164.548,return,1.4367,,24.73958333,0,17,17,30,1,FBP-RB-17.png,0.35,1.2,31,0.5,,,,,,,,,,,,,,,,,,,,,,,,,,,,,,,,,,,,,,,,,,,,,
,,,,,SPR24_092,21,Female,2024-04-25_13h30.48.085,jersey_experiment_5_v0,2023.2.2,Win32,60.24096386,,,,,,,,,,,,,,,,164.5482,165.848,165.848,168.9644,return,0.8223,,12.76041667,0,18,18,40,1,FBP-RB-19.png,0.35,1.2,41,0.5,,,,,,,,,,,,,,,,,,,,,,,,,,,,,,,,,,,,,,,,,,,,,
,,,,,SPR24_092,21,Female,2024-04-25_13h30.48.085,jersey_experiment_5_v0,2023.2.2,Win32,60.24096386,,,,,,,,,,,,,,,,168.9646,170.0144,170.0144,173.0808,return,0.7829,,37.5,0,19,19,21,1,FBP-YG-18.png,0.37,1.2,22,0.25,,,,,,,,,,,,,,,,,,,,,,,,,,,,,,,,,,,,,,,,,,,,,
,,,,,SPR24_092,21,Female,2024-04-25_13h30.48.085,jersey_experiment_5_v0,2023.2.2,Win32,60.24096386,,,,,,,,,,,,,,,,173.081,174.3807,174.3807,176.7805,return,0.7021,,88.54166667,0,20,20,13,1,FBP-OG-91.png,0.43,1.2,14,0.5,,,,,,,,,,,,,,,,,,,,,,,,,,,,,,,,,,,,,,,,,,,,,
,,,,,SPR24_092,21,Female,2024-04-25_13h30.48.085,jersey_experiment_5_v0,2023.2.2,Win32,60.24096386,,,,,,,,,,,,,,,,176.7806,177.8305,177.8305,181.4969,return,0.7334,,49.86979167,0,21,21,45,1,FBP-PT-17.png,0.35,1.2,46,0.25,,,,,,,,,,,,,,,,,,,,,,,,,,,,,,,,,,,,,,,,,,,,,
,,,,,SPR24_092,21,Female,2024-04-25_13h30.48.085,jersey_experiment_5_v0,2023.2.2,Win32,60.24096386,,,,,,,,,,,,,,,,181.497,182.5468,182.5468,184.83,return,0.8081,,74.47916667,0,22,22,59,1,FBP-PT-19.png,0.45,1.2,60,0.25,,,,,,,,,,,,,,,,,,,,,,,,,,,,,,,,,,,,,,,,,,,,,
,,,,,SPR24_092,21,Female,2024-04-25_13h30.48.085,jersey_experiment_5_v0,2023.2.2,Win32,60.24096386,,,,,,,,,,,,,,,,184.8302,186.1299,186.1299,189.913,return,0.7818,,86.97916667,0,23,23,3,1,FBP-OG-71.png,0.43,1.2,4,0.5,,,,,,,,,,,,,,,,,,,,,,,,,,,,,,,,,,,,,,,,,,,,,
,,,,,SPR24_092,21,Female,2024-04-25_13h30.48.085,jersey_experiment_5_v0,2023.2.2,Win32,60.24096386,,,,,,,,,,,,,,,,189.9131,190.963,190.963,193.4461,return,0.9337,,75.390625,0,24,24,52,1,FBP-PT-18.png,0.4,1.2,53,0.25,,,,,,,,,,,,,,,,,,,,,,,,,,,,,,,,,,,,,,,,,,,,,
,,,,,SPR24_092,21,Female,2024-04-25_13h30.48.085,jersey_experiment_5_v0,2023.2.2,Win32,60.24096386,,,,,,,,,,,,,,,,193.4463,194.4961,194.4961,196.3127,return,0.8672,,75.390625,0,25,25,49,1,FBP-PT-17.png,0.45,1.2,50,0.25,,,,,,,,,,,,,,,,,,,,,,,,,,,,,,,,,,,,,,,,,,,,,
,,,,,SPR24_092,21,Female,2024-04-25_13h30.48.085,jersey_experiment_5_v0,2023.2.2,Win32,60.24096386,,,,,,,,,,,,,,,,196.313,197.6124,197.6125,200.0458,return,0.7098,,87.890625,0,26,26,33,1,FBP-RB-17.png,0.43,1.2,34,0.5,,,,,,,,,,,,,,,,,,,,,,,,,,,,,,,,,,,,,,,,,,,,,
,,,,,SPR24_092,21,Female,2024-04-25_13h30.48.085,jersey_experiment_5_v0,2023.2.2,Win32,60.24096386,,,,,,,,,,,,,,,,200.046,201.3454,201.3455,203.6454,return,1.217,,87.890625,0,27,27,8,1,FBP-OG-81.png,0.43,1.2,9,0.5,,,,,,,,,,,,,,,,,,,,,,,,,,,,,,,,,,,,,,,,,,,,,
,,,,,SPR24_092,21,Female,2024-04-25_13h30.48.085,jersey_experiment_5_v0,2023.2.2,Win32,60.24096386,,,,,,,,,,,,,,,,203.6456,204.9453,204.9453,207.6452,return,0.7833,,25.13020833,0,28,28,11,1,FBP-OG-91.png,0.37,1.2,12,0.5,,,,,,,,,,,,,,,,,,,,,,,,,,,,,,,,,,,,,,,,,,,,,
,,,,,SPR24_092,21,Female,2024-04-25_13h30.48.085,jersey_experiment_5_v0,2023.2.2,Win32,60.24096386,,,,,,,,,,,,,,,,207.6454,208.945,208.945,211.4448,return,0.7193,,87.5,0,29,29,39,1,FBP-RB-18.png,0.45,1.2,40,0.5,,,,,,,,,,,,,,,,,,,,,,,,,,,,,,,,,,,,,,,,,,,,,
,,,,,SPR24_092,21,Female,2024-04-25_13h30.48.085,jersey_experiment_5_v0,2023.2.2,Win32,60.24096386,,,,,,,,,,,,,,,,211.4451,212.7447,212.7447,215.778,return,0.7747,,24.73958333,0,30,30,1,1,FBP-OG-71.png,0.37,1.2,2,0.5,,,,,,,,,,,,,,,,,,,,,,,,,,,,,,,,,,,,,,,,,,,,,
,,,,,SPR24_092,21,Female,2024-04-25_13h30.48.085,jersey_experiment_5_v0,2023.2.2,Win32,60.24096386,,,,,,,,,,,,,,,,215.7781,216.8278,216.8279,220.3776,return,0.7188,,24.86979167,0,31,31,25,1,FBP-YG-19.png,0.35,1.2,26,0.25,,,,,,,,,,,,,,,,,,,,,,,,,,,,,,,,,,,,,,,,,,,,,
,,,,,SPR24_092,21,Female,2024-04-25_13h30.48.085,jersey_experiment_5_v0,2023.2.2,Win32,60.24096386,,,,,,,,,,,,,,,,220.3778,221.4275,221.4275,224.2273,return,0.8693,,87.36979167,0,32,32,29,1,FBP-YG-19.png,0.45,1.2,30,0.25,,,,,,,,,,,,,,,,,,,,,,,,,,,,,,,,,,,,,,,,,,,,,
,,,,,SPR24_092,21,Female,2024-04-25_13h30.48.085,jersey_experiment_5_v0,2023.2.2,Win32,60.24096386,,,,,,,,,,,,,,,,224.2276,225.2771,225.2771,227.3438,return,0.8067,,87.5,0,33,33,24,1,FBP-YG-18.png,0.45,1.2,25,0.25,,,,,,,,,,,,,,,,,,,,,,,,,,,,,,,,,,,,,,,,,,,,,
,,,,,SPR24_092,21,Female,2024-04-25_13h30.48.085,jersey_experiment_5_v0,2023.2.2,Win32,60.24096386,,,,,,,,,,,,,,,,227.344,228.3939,228.394,231.4602,return,1.1203,,0.260416667,0,34,34,15,1,FBP-YG-17.png,0.35,1.2,16,0.25,,,,,,,,,,,,,,,,,,,,,,,,,,,,,,,,,,,,,,,,,,,,,
,,,,,SPR24_092,21,Female,2024-04-25_13h30.48.085,jersey_experiment_5_v0,2023.2.2,Win32,60.24096386,,,,,,,,,,,,,,,,231.4604,232.7601,232.7602,235.51,return,0.7677,,24.86979167,0,35,35,35,1,FBP-RB-18.png,0.35,1.2,36,0.5,,,,,,,,,,,,,,,,,,,,,,,,,,,,,,,,,,,,,,,,,,,,,
,,,,,SPR24_092,21,Female,2024-04-25_13h30.48.085,jersey_experiment_5_v0,2023.2.2,Win32,60.24096386,,,,,,,,,,,,,,,,235.5102,236.5598,236.5599,239.6263,return,1.0319,,75,0,36,36,47,1,FBP-PT-17.png,0.4,1.2,48,0.25,,,,,,,,,,,,,,,,,,,,,,,,,,,,,,,,,,,,,,,,,,,,,
,,,,,SPR24_092,21,Female,2024-04-25_13h30.48.085,jersey_experiment_5_v0,2023.2.2,Win32,60.24096386,,,,,,,,,,,,,,,,239.6266,240.9263,240.9263,243.8259,return,0.841,,62.63020833,0,37,37,41,1,FBP-RB-19.png,0.37,1.2,42,0.5,,,,,,,,,,,,,,,,,,,,,,,,,,,,,,,,,,,,,,,,,,,,,
,,,,,SPR24_092,21,Female,2024-04-25_13h30.48.085,jersey_experiment_5_v0,2023.2.2,Win32,60.24096386,,,,,,,,,,,,,,,,243.8262,245.1259,245.126,248.0591,return,0.6999,,74.86979167,0,38,38,31,1,FBP-RB-17.png,0.37,1.2,32,0.5,,,,,,,,,,,,,,,,,,,,,,,,,,,,,,,,,,,,,,,,,,,,,
,,,,,SPR24_092,21,Female,2024-04-25_13h30.48.085,jersey_experiment_5_v0,2023.2.2,Win32,60.24096386,,,,,,,,,,,,,,,,248.0592,249.3589,249.359,251.5422,return,0.8525,,74.86979167,0,39,39,32,1,FBP-RB-17.png,0.4,1.2,33,0.5,,,,,,,,,,,,,,,,,,,,,,,,,,,,,,,,,,,,,,,,,,,,,
,,,,,SPR24_092,21,Female,2024-04-25_13h30.48.085,jersey_experiment_5_v0,2023.2.2,Win32,60.24096386,,,,,,,,,,,,,,,,251.5424,252.842,252.8421,265.5746,return,1.5336,,12.76041667,0,40,40,10,1,FBP-OG-91.png,0.35,1.2,11,0.5,,,,,,,,,,,,,,,,,,,,,,,,,,,,,,,,,,,,,,,,,,,,,
,,,,,SPR24_092,21,Female,2024-04-25_13h30.48.085,jersey_experiment_5_v0,2023.2.2,Win32,60.24096386,,,,,,,,,,,,,,,,265.5747,266.8745,266.8745,272.2575,return,3.5579,,0.390625,0,41,41,5,1,FBP-OG-81.png,0.35,1.2,6,0.5,,,,,,,,,,,,,,,,,,,,,,,,,,,,,,,,,,,,,,,,,,,,,
,,,,,SPR24_092,21,Female,2024-04-25_13h30.48.085,jersey_experiment_5_v0,2023.2.2,Win32,60.24096386,,,,,,,,,,,,,,,,272.2577,273.3074,273.3074,276.1904,return,0.7587,,63.15104167,0,42,42,27,1,FBP-YG-19.png,0.4,1.2,28,0.25,,,,,,,,,,,,,,,,,,,,,,,,,,,,,,,,,,,,,,,,,,,,,
,,,,,SPR24_092,21,Female,2024-04-25_13h30.48.085,jersey_experiment_5_v0,2023.2.2,Win32,60.24096386,,,,,,,,,,,,,,,,276.1906,277.2404,277.2404,279.8735,return,0.7062,,87.63020833,0,43,43,54,1,FBP-PT-18.png,0.45,1.2,55,0.25,,,,,,,,,,,,,,,,,,,,,,,,,,,,,,,,,,,,,,,,,,,,,
,,,,,SPR24_092,21,Female,2024-04-25_13h30.48.085,jersey_experiment_5_v0,2023.2.2,Win32,60.24096386,,,,,,,,,,,,,,,,279.8738,280.9234,280.9235,283.6067,return,0.6532,,75.13020833,0,44,44,48,1,FBP-PT-17.png,0.43,1.2,49,0.25,,,,,,,,,,,,,,,,,,,,,,,,,,,,,,,,,,,,,,,,,,,,,
,,,,,SPR24_092,21,Female,2024-04-25_13h30.48.085,jersey_experiment_5_v0,2023.2.2,Win32,60.24096386,,,,,,,,,,,,,,,,283.607,284.6565,284.6566,287.3397,return,0.7328,,24.86979167,0,45,45,20,1,FBP-YG-18.png,0.35,1.2,21,0.25,,,,,,,,,,,,,,,,,,,,,,,,,,,,,,,,,,,,,,,,,,,,,
,,,,,SPR24_092,21,Female,2024-04-25_13h30.48.085,jersey_experiment_5_v0,2023.2.2,Win32,60.24096386,,,,,,,,,,,,,,,,287.3399,288.3897,288.3897,292.4394,return,0.6499,,25,0,46,46,51,1,FBP-PT-18.png,0.37,1.2,52,0.25,,,,,,,,,,,,,,,,,,,,,,,,,,,,,,,,,,,,,,,,,,,,,
,,,,,SPR24_092,21,Female,2024-04-25_13h30.48.085,jersey_experiment_5_v0,2023.2.2,Win32,60.24096386,,,,,,,,,,,,,,,,292.4395,293.4893,293.4893,296.8058,return,0.6696,,50,0,47,47,22,1,FBP-YG-18.png,0.4,1.2,23,0.25,,,,,,,,,,,,,,,,,,,,,,,,,,,,,,,,,,,,,,,,,,,,,
,,,,,SPR24_092,21,Female,2024-04-25_13h30.48.085,jersey_experiment_5_v0,2023.2.2,Win32,60.24096386,,,,,,,,,,,,,,,,296.806,298.1057,298.1057,301.0222,return,1.0941,,87.76041667,0,48,48,34,1,FBP-RB-17.png,0.45,1.2,35,0.5,,,,,,,,,,,,,,,,,,,,,,,,,,,,,,,,,,,,,,,,,,,,,
,,,,,SPR24_092,21,Female,2024-04-25_13h30.48.085,jersey_experiment_5_v0,2023.2.2,Win32,60.24096386,,,,,,,,,,,,,,,,301.0224,302.3222,302.3223,305.2552,return,0.6857,,75.13020833,0,49,49,43,1,FBP-RB-19.png,0.43,1.2,44,0.5,,,,,,,,,,,,,,,,,,,,,,,,,,,,,,,,,,,,,,,,,,,,,
,,,,,SPR24_092,21,Female,2024-04-25_13h30.48.085,jersey_experiment_5_v0,2023.2.2,Win32,60.24096386,,,,,,,,,,,,,,,,305.2553,306.5552,306.5552,308.7051,return,0.8386,,75.13020833,0,50,50,2,1,FBP-OG-71.png,0.4,1.2,3,0.5,,,,,,,,,,,,,,,,,,,,,,,,,,,,,,,,,,,,,,,,,,,,,
,,,,,SPR24_092,21,Female,2024-04-25_13h30.48.085,jersey_experiment_5_v0,2023.2.2,Win32,60.24096386,,,,,,,,,,,,,,,,308.7052,309.7549,309.7549,312.4881,return,0.6013,,75.13020833,0,51,51,19,1,FBP-YG-17.png,0.45,1.2,20,0.25,,,,,,,,,,,,,,,,,,,,,,,,,,,,,,,,,,,,,,,,,,,,,
,,,,,SPR24_092,21,Female,2024-04-25_13h30.48.085,jersey_experiment_5_v0,2023.2.2,Win32,60.24096386,,,,,,,,,,,,,,,,312.4883,313.5379,313.5381,316.0378,return,0.6703,,36.97916667,0,52,52,17,1,FBP-YG-17.png,0.4,1.2,18,0.25,,,,,,,,,,,,,,,,,,,,,,,,,,,,,,,,,,,,,,,,,,,,,
,,,,,SPR24_092,21,Female,2024-04-25_13h30.48.085,jersey_experiment_5_v0,2023.2.2,Win32,60.24096386,,,,,,,,,,,,,,,,316.0379,317.3377,317.3377,320.3208,return,0.806,,74.86979167,0,53,53,14,1,FBP-OG-91.png,0.45,1.2,15,0.5,,,,,,,,,,,,,,,,,,,,,,,,,,,,,,,,,,,,,,,,,,,,,
,,,,,SPR24_092,21,Female,2024-04-25_13h30.48.085,jersey_experiment_5_v0,2023.2.2,Win32,60.24096386,,,,,,,,,,,,,,,,320.321,321.6208,321.6208,325.1372,return,0.7755,,87.109375,0,54,54,9,1,FBP-OG-81.png,0.45,1.2,10,0.5,,,,,,,,,,,,,,,,,,,,,,,,,,,,,,,,,,,,,,,,,,,,,
,,,,,SPR24_092,21,Female,2024-04-25_13h30.48.085,jersey_experiment_5_v0,2023.2.2,Win32,60.24096386,,,,,,,,,,,,,,,,325.1374,326.1871,326.1871,329.6036,return,0.9185,,11.328125,0,55,55,55,1,FBP-PT-19.png,0.35,1.2,56,0.25,,,,,,,,,,,,,,,,,,,,,,,,,,,,,,,,,,,,,,,,,,,,,
,,,,,SPR24_092,21,Female,2024-04-25_13h30.48.085,jersey_experiment_5_v0,2023.2.2,Win32,60.24096386,,,,,,,,,,,,,,,,329.6038,330.9035,330.9036,333.7866,return,0.7646,,37.36979167,0,56,56,6,1,FBP-OG-81.png,0.37,1.2,7,0.5,,,,,,,,,,,,,,,,,,,,,,,,,,,,,,,,,,,,,,,,,,,,,
,,,,,SPR24_092,21,Female,2024-04-25_13h30.48.085,jersey_experiment_5_v0,2023.2.2,Win32,60.24096386,,,,,,,,,,,,,,,,333.7867,334.8366,334.8367,338.1196,return,0.6984,,74.86979167,0,57,57,28,1,FBP-YG-19.png,0.43,1.2,29,0.25,,,,,,,,,,,,,,,,,,,,,,,,,,,,,,,,,,,,,,,,,,,,,
,,,,,SPR24_092,21,Female,2024-04-25_13h30.48.085,jersey_experiment_5_v0,2023.2.2,Win32,60.24096386,,,,,,,,,,,,,,,,338.1198,339.1696,339.1696,341.2194,return,0.6365,,74.86979167,0,58,58,53,1,FBP-PT-18.png,0.43,1.2,54,0.25,,,,,,,,,,,,,,,,,,,,,,,,,,,,,,,,,,,,,,,,,,,,,
,,,,,SPR24_092,21,Female,2024-04-25_13h30.48.085,jersey_experiment_5_v0,2023.2.2,Win32,60.24096386,,,,,,,,,,,,,,,,341.2196,342.2694,342.2694,344.1027,return,0.717,,74.86979167,0,59,59,18,1,FBP-YG-17.png,0.43,1.2,19,0.25,,,,,,,,,,,,,,,,,,,,,,,,,,,,,,,,,,,,,,,,,,,,,
,,,,,SPR24_092,21,Female,2024-04-25_13h30.48.085,jersey_experiment_5_v0,2023.2.2,Win32,60.24096386,,,,,,,,,,,,,,,,344.1047,345.1525,345.1525,347.469,return,0.2127,,25,,,,,,FBP-PT-71.png,0.4,1.2,48,0.25,0,0,0,47,1,,,,,,,,,,,,,,,,,,,,,,,,,,,,,,,,,,,,,,,,
,,,,,SPR24_092,21,Female,2024-04-25_13h30.48.085,jersey_experiment_5_v0,2023.2.2,Win32,60.24096386,,,,,,,,,,,,,,,,347.4693,348.5189,348.5189,350.9022,return,0.3503,,25,,,,,,FBP-YG-71.png,0.37,1.2,17,0.25,0,1,1,16,1,,,,,,,,,,,,,,,,,,,,,,,,,,,,,,,,,,,,,,,,
,,,,,SPR24_092,21,Female,2024-04-25_13h30.48.085,jersey_experiment_5_v0,2023.2.2,Win32,60.24096386,,,,,,,,,,,,,,,,350.9025,351.952,351.952,353.8686,return,0.2303,,74.47916667,,,,,,FBP-PT-91.png,0.45,1.2,60,0.25,0,2,2,59,1,,,,,,,,,,,,,,,,,,,,,,,,,,,,,,,,,,,,,,,,
,,,,,SPR24_092,21,Female,2024-04-25_13h30.48.085,jersey_experiment_5_v0,2023.2.2,Win32,60.24096386,,,,,,,,,,,,,,,,353.8689,355.1685,355.1685,357.385,return,0.2663,,12.109375,,,,,,FBP-RB-91.png,0.37,1.2,42,0.5,0,3,3,41,1,,,,,,,,,,,,,,,,,,,,,,,,,,,,,,,,,,,,,,,,
,,,,,SPR24_092,21,Female,2024-04-25_13h30.48.085,jersey_experiment_5_v0,2023.2.2,Win32,60.24096386,,,,,,,,,,,,,,,,357.3853,358.6849,358.685,360.6515,return,0.1654,,75,,,,,,FBP-RB-91.png,0.4,1.2,43,0.5,0,4,4,42,1,,,,,,,,,,,,,,,,,,,,,,,,,,,,,,,,,,,,,,,,
,,,,,SPR24_092,21,Female,2024-04-25_13h30.48.085,jersey_experiment_5_v0,2023.2.2,Win32,60.24096386,,,,,,,,,,,,,,,,360.6516,361.7013,361.7014,362.5848,return,0.1313,,74.86979167,,,,,,FBP-YG-91.png,0.43,1.2,29,0.25,0,5,5,28,1,,,,,,,,,,,,,,,,,,,,,,,,,,,,,,,,,,,,,,,,
,,,,,SPR24_092,21,Female,2024-04-25_13h30.48.085,jersey_experiment_5_v0,2023.2.2,Win32,60.24096386,,,,,,,,,,,,,,,,362.5849,363.8845,363.8846,366.8013,return,0.2224,,62.23958333,,,,,,FBP-OG-17.png,0.4,1.2,3,0.5,0,6,6,2,1,,,,,,,,,,,,,,,,,,,,,,,,,,,,,,,,,,,,,,,,
,,,,,SPR24_092,21,Female,2024-04-25_13h30.48.085,jersey_experiment_5_v0,2023.2.2,Win32,60.24096386,,,,,,,,,,,,,,,,366.8014,368.101,368.101,369.7175,return,0.3364,,62.5,,,,,,FBP-OG-17.png,0.37,1.2,2,0.5,0,7,7,1,1,,,,,,,,,,,,,,,,,,,,,,,,,,,,,,,,,,,,,,,,
,,,,,SPR24_092,21,Female,2024-04-25_13h30.48.085,jersey_experiment_5_v0,2023.2.2,Win32,60.24096386,,,,,,,,,,,,,,,,369.7177,371.0174,371.0174,372.3006,return,0.1956,,87.890625,,,,,,FBP-OG-18.png,0.45,1.2,10,0.5,0,8,8,9,1,,,,,,,,,,,,,,,,,,,,,,,,,,,,,,,,,,,,,,,,
,,,,,SPR24_092,21,Female,2024-04-25_13h30.48.085,jersey_experiment_5_v0,2023.2.2,Win32,60.24096386,,,,,,,,,,,,,,,,372.3008,373.3506,373.3506,376.1838,return,0.1826,,74.609375,,,,,,FBP-YG-71.png,0.45,1.2,20,0.25,0,9,9,19,1,,,,,,,,,,,,,,,,,,,,,,,,,,,,,,,,,,,,,,,,
,,,,,SPR24_092,21,Female,2024-04-25_13h30.48.085,jersey_experiment_5_v0,2023.2.2,Win32,60.24096386,,,,,,,,,,,,,,,,376.184,377.2338,377.2338,378.9169,return,0.1688,,25.26041667,,,,,,FBP-YG-91.png,0.35,1.2,26,0.25,0,10,10,25,1,,,,,,,,,,,,,,,,,,,,,,,,,,,,,,,,,,,,,,,,
,,,,,SPR24_092,21,Female,2024-04-25_13h30.48.085,jersey_experiment_5_v0,2023.2.2,Win32,60.24096386,,,,,,,,,,,,,,,,378.9172,379.9669,379.9669,381.9501,return,0.2088,,75,,,,,,FBP-YG-81.png,0.45,1.2,25,0.25,0,11,11,24,1,,,,,,,,,,,,,,,,,,,,,,,,,,,,,,,,,,,,,,,,
,,,,,SPR24_092,21,Female,2024-04-25_13h30.48.085,jersey_experiment_5_v0,2023.2.2,Win32,60.24096386,,,,,,,,,,,,,,,,381.9503,382.9998,382.9998,383.9331,return,0.1264,,75,,,,,,FBP-PT-91.png,0.43,1.2,59,0.25,0,12,12,58,1,,,,,,,,,,,,,,,,,,,,,,,,,,,,,,,,,,,,,,,,
,,,,,SPR24_092,21,Female,2024-04-25_13h30.48.085,jersey_experiment_5_v0,2023.2.2,Win32,60.24096386,,,,,,,,,,,,,,,,383.9333,385.2331,385.2331,387.4997,return,0.5497,,87.109375,,,,,,FBP-OG-19.png,0.45,1.2,15,0.5,0,13,13,14,1,,,,,,,,,,,,,,,,,,,,,,,,,,,,,,,,,,,,,,,,
,,,,,SPR24_092,21,Female,2024-04-25_13h30.48.085,jersey_experiment_5_v0,2023.2.2,Win32,60.24096386,,,,,,,,,,,,,,,,387.4998,388.5496,388.5496,390.0495,return,0.2718,,88.02083333,,,,,,FBP-YG-91.png,0.45,1.2,30,0.25,0,14,14,29,1,,,,,,,,,,,,,,,,,,,,,,,,,,,,,,,,,,,,,,,,
,,,,,SPR24_092,21,Female,2024-04-25_13h30.48.085,jersey_experiment_5_v0,2023.2.2,Win32,60.24096386,,,,,,,,,,,,,,,,390.0498,391.3494,391.3494,392.316,return,0.2658,,88.02083333,,,,,,FBP-OG-18.png,0.43,1.2,9,0.5,0,15,15,8,1,,,,,,,,,,,,,,,,,,,,,,,,,,,,,,,,,,,,,,,,
,,,,,SPR24_092,21,Female,2024-04-25_13h30.48.085,jersey_experiment_5_v0,2023.2.2,Win32,60.24096386,,,,,,,,,,,,,,,,392.3162,393.616,393.616,395.3159,return,0.2221,,11.97916667,,,,,,FBP-OG-18.png,0.35,1.2,6,0.5,0,16,16,5,1,,,,,,,,,,,,,,,,,,,,,,,,,,,,,,,,,,,,,,,,
,,,,,SPR24_092,21,Female,2024-04-25_13h30.48.085,jersey_experiment_5_v0,2023.2.2,Win32,60.24096386,,,,,,,,,,,,,,,,395.3162,396.3658,396.3659,399.1323,return,0.186,,50.13020833,,,,,,FBP-YG-71.png,0.4,1.2,18,0.25,0,17,17,17,1,,,,,,,,,,,,,,,,,,,,,,,,,,,,,,,,,,,,,,,,
,,,,,SPR24_092,21,Female,2024-04-25_13h30.48.085,jersey_experiment_5_v0,2023.2.2,Win32,60.24096386,,,,,,,,,,,,,,,,399.1325,400.4321,400.4321,401.9488,return,0.2494,,74.21875,,,,,,FBP-OG-19.png,0.43,1.2,14,0.5,0,18,18,13,1,,,,,,,,,,,,,,,,,,,,,,,,,,,,,,,,,,,,,,,,
,,,,,SPR24_092,21,Female,2024-04-25_13h30.48.085,jersey_experiment_5_v0,2023.2.2,Win32,60.24096386,,,,,,,,,,,,,,,,401.949,402.9986,402.9986,404.7485,return,0.133,,25,,,,,,FBP-PT-81.png,0.35,1.2,51,0.25,0,19,19,50,1,,,,,,,,,,,,,,,,,,,,,,,,,,,,,,,,,,,,,,,,
,,,,,SPR24_092,21,Female,2024-04-25_13h30.48.085,jersey_experiment_5_v0,2023.2.2,Win32,60.24096386,,,,,,,,,,,,,,,,404.7486,405.7985,405.7986,410.6314,return,0.1992,,48.69791667,,,,,,FBP-PT-71.png,0.37,1.2,47,0.25,0,20,20,46,1,,,,,,,,,,,,,,,,,,,,,,,,,,,,,,,,,,,,,,,,
,,,,,SPR24_092,21,Female,2024-04-25_13h30.48.085,jersey_experiment_5_v0,2023.2.2,Win32,60.24096386,,,,,,,,,,,,,,,,410.6315,411.9314,411.9315,415.3812,return,0.1542,,61.58854167,,,,,,FBP-OG-18.png,0.4,1.2,8,0.5,0,21,21,7,1,,,,,,,,,,,,,,,,,,,,,,,,,,,,,,,,,,,,,,,,
,,,,,SPR24_092,21,Female,2024-04-25_13h30.48.085,jersey_experiment_5_v0,2023.2.2,Win32,60.24096386,,,,,,,,,,,,,,,,415.3814,416.4309,416.431,417.8309,return,0.1196,,25.26041667,,,,,,FBP-YG-81.png,0.35,1.2,21,0.25,0,22,22,20,1,,,,,,,,,,,,,,,,,,,,,,,,,,,,,,,,,,,,,,,,
,,,,,SPR24_092,21,Female,2024-04-25_13h30.48.085,jersey_experiment_5_v0,2023.2.2,Win32,60.24096386,,,,,,,,,,,,,,,,417.8312,418.8809,418.8809,421.4808,return,0.1309,,63.54166667,,,,,,FBP-PT-71.png,0.45,1.2,50,0.25,0,23,23,49,1,,,,,,,,,,,,,,,,,,,,,,,,,,,,,,,,,,,,,,,,
,,,,,SPR24_092,21,Female,2024-04-25_13h30.48.085,jersey_experiment_5_v0,2023.2.2,Win32,60.24096386,,,,,,,,,,,,,,,,421.481,422.5306,422.5307,423.8973,return,0.1361,,26.04166667,,,,,,FBP-YG-81.png,0.37,1.2,22,0.25,0,24,24,21,1,,,,,,,,,,,,,,,,,,,,,,,,,,,,,,,,,,,,,,,,
,,,,,SPR24_092,21,Female,2024-04-25_13h30.48.085,jersey_experiment_5_v0,2023.2.2,Win32,60.24096386,,,,,,,,,,,,,,,,423.8975,425.197,425.197,426.5137,return,0.1232,,25.390625,,,,,,FBP-RB-71.png,0.37,1.2,32,0.5,0,25,25,31,1,,,,,,,,,,,,,,,,,,,,,,,,,,,,,,,,,,,,,,,,
,,,,,SPR24_092,21,Female,2024-04-25_13h30.48.085,jersey_experiment_5_v0,2023.2.2,Win32,60.24096386,,,,,,,,,,,,,,,,426.5139,427.8135,427.8135,429.3135,return,0.2054,,74.34895833,,,,,,FBP-RB-81.png,0.43,1.2,39,0.5,0,26,26,38,1,,,,,,,,,,,,,,,,,,,,,,,,,,,,,,,,,,,,,,,,
,,,,,SPR24_092,21,Female,2024-04-25_13h30.48.085,jersey_experiment_5_v0,2023.2.2,Win32,60.24096386,,,,,,,,,,,,,,,,429.3137,430.3635,430.3635,432.0299,return,0.1917,,75,,,,,,FBP-YG-81.png,0.4,1.2,23,0.25,0,27,27,22,1,,,,,,,,,,,,,,,,,,,,,,,,,,,,,,,,,,,,,,,,
,,,,,SPR24_092,21,Female,2024-04-25_13h30.48.085,jersey_experiment_5_v0,2023.2.2,Win32,60.24096386,,,,,,,,,,,,,,,,432.0302,433.3299,433.3299,434.8465,return,0.1754,,87.63020833,,,,,,FBP-RB-71.png,0.4,1.2,33,0.5,0,28,28,32,1,,,,,,,,,,,,,,,,,,,,,,,,,,,,,,,,,,,,,,,,
,,,,,SPR24_092,21,Female,2024-04-25_13h30.48.085,jersey_experiment_5_v0,2023.2.2,Win32,60.24096386,,,,,,,,,,,,,,,,434.8467,436.1464,436.1464,436.9964,return,0.2029,,87.63020833,,,,,,FBP-RB-81.png,0.4,1.2,38,0.5,0,29,29,37,1,,,,,,,,,,,,,,,,,,,,,,,,,,,,,,,,,,,,,,,,
,,,,,SPR24_092,21,Female,2024-04-25_13h30.48.085,jersey_experiment_5_v0,2023.2.2,Win32,60.24096386,,,,,,,,,,,,,,,,436.9966,438.2962,438.2962,439.9128,return,0.15,,88.41145833,,,,,,FBP-RB-71.png,0.45,1.2,35,0.5,0,30,30,34,1,,,,,,,,,,,,,,,,,,,,,,,,,,,,,,,,,,,,,,,,
,,,,,SPR24_092,21,Female,2024-04-25_13h30.48.085,jersey_experiment_5_v0,2023.2.2,Win32,60.24096386,,,,,,,,,,,,,,,,439.913,441.2126,441.2126,442.646,return,0.1698,,99.73958333,,,,,,FBP-RB-91.png,0.43,1.2,44,0.5,0,31,31,43,1,,,,,,,,,,,,,,,,,,,,,,,,,,,,,,,,,,,,,,,,
,,,,,SPR24_092,21,Female,2024-04-25_13h30.48.085,jersey_experiment_5_v0,2023.2.2,Win32,60.24096386,,,,,,,,,,,,,,,,442.6462,443.6959,443.6959,445.3957,return,0.2056,,25,,,,,,FBP-YG-71.png,0.35,1.2,16,0.25,0,32,32,15,1,,,,,,,,,,,,,,,,,,,,,,,,,,,,,,,,,,,,,,,,
,,,,,SPR24_092,21,Female,2024-04-25_13h30.48.085,jersey_experiment_5_v0,2023.2.2,Win32,60.24096386,,,,,,,,,,,,,,,,445.396,446.6957,446.6957,449.6287,return,0.1757,,25,,,,,,FBP-OG-18.png,0.37,1.2,7,0.5,0,33,33,6,1,,,,,,,,,,,,,,,,,,,,,,,,,,,,,,,,,,,,,,,,
,,,,,SPR24_092,21,Female,2024-04-25_13h30.48.085,jersey_experiment_5_v0,2023.2.2,Win32,60.24096386,,,,,,,,,,,,,,,,449.6289,450.6789,450.6789,452.2955,return,0.1491,,63.54166667,,,,,,FBP-PT-81.png,0.37,1.2,52,0.25,0,34,34,51,1,,,,,,,,,,,,,,,,,,,,,,,,,,,,,,,,,,,,,,,,
,,,,,SPR24_092,21,Female,2024-04-25_13h30.48.085,jersey_experiment_5_v0,2023.2.2,Win32,60.24096386,,,,,,,,,,,,,,,,452.2957,453.3455,453.3455,454.7286,return,0.2146,,62.76041667,,,,,,FBP-YG-91.png,0.37,1.2,27,0.25,0,35,35,26,1,,,,,,,,,,,,,,,,,,,,,,,,,,,,,,,,,,,,,,,,
,,,,,SPR24_092,21,Female,2024-04-25_13h30.48.085,jersey_experiment_5_v0,2023.2.2,Win32,60.24096386,,,,,,,,,,,,,,,,454.7288,455.7784,455.7784,457.1783,return,0.1626,,74.86979167,,,,,,FBP-PT-81.png,0.43,1.2,54,0.25,0,36,36,53,1,,,,,,,,,,,,,,,,,,,,,,,,,,,,,,,,,,,,,,,,
,,,,,SPR24_092,21,Female,2024-04-25_13h30.48.085,jersey_experiment_5_v0,2023.2.2,Win32,60.24096386,,,,,,,,,,,,,,,,457.1785,458.2282,458.2282,459.6115,return,0.1535,,74.73958333,,,,,,FBP-PT-81.png,0.4,1.2,53,0.25,0,37,37,52,1,,,,,,,,,,,,,,,,,,,,,,,,,,,,,,,,,,,,,,,,
,,,,,SPR24_092,21,Female,2024-04-25_13h30.48.085,jersey_experiment_5_v0,2023.2.2,Win32,60.24096386,,,,,,,,,,,,,,,,459.6117,460.9113,460.9115,462.3113,return,0.2016,,11.58854167,,,,,,FBP-RB-71.png,0.35,1.2,31,0.5,0,38,38,30,1,,,,,,,,,,,,,,,,,,,,,,,,,,,,,,,,,,,,,,,,
,,,,,SPR24_092,21,Female,2024-04-25_13h30.48.085,jersey_experiment_5_v0,2023.2.2,Win32,60.24096386,,,,,,,,,,,,,,,,462.3115,463.6114,463.6114,465.6277,return,0.1789,,90.49479167,,,,,,FBP-OG-17.png,0.43,1.2,4,0.5,0,39,39,3,1,,,,,,,,,,,,,,,,,,,,,,,,,,,,,,,,,,,,,,,,
,,,,,SPR24_092,21,Female,2024-04-25_13h30.48.085,jersey_experiment_5_v0,2023.2.2,Win32,60.24096386,,,,,,,,,,,,,,,,465.6279,466.6777,466.6777,468.1943,return,0.137,,74.609375,,,,,,FBP-PT-91.png,0.4,1.2,58,0.25,0,40,40,57,1,,,,,,,,,,,,,,,,,,,,,,,,,,,,,,,,,,,,,,,,
,,,,,SPR24_092,21,Female,2024-04-25_13h30.48.085,jersey_experiment_5_v0,2023.2.2,Win32,60.24096386,,,,,,,,,,,,,,,,468.1945,469.2442,469.2443,471.1943,return,0.1317,,89.19270833,,,,,,FBP-YG-81.png,0.43,1.2,24,0.25,0,41,41,23,1,,,,,,,,,,,,,,,,,,,,,,,,,,,,,,,,,,,,,,,,
,,,,,SPR24_092,21,Female,2024-04-25_13h30.48.085,jersey_experiment_5_v0,2023.2.2,Win32,60.24096386,,,,,,,,,,,,,,,,471.1945,472.4941,472.4941,474.2938,return,0.1508,,74.609375,,,,,,FBP-OG-19.png,0.37,1.2,12,0.5,0,42,42,11,1,,,,,,,,,,,,,,,,,,,,,,,,,,,,,,,,,,,,,,,,
,,,,,SPR24_092,21,Female,2024-04-25_13h30.48.085,jersey_experiment_5_v0,2023.2.2,Win32,60.24096386,,,,,,,,,,,,,,,,474.2939,475.5937,475.5937,476.9603,return,0.1752,,88.15104167,,,,,,FBP-RB-91.png,0.45,1.2,45,0.5,0,43,43,44,1,,,,,,,,,,,,,,,,,,,,,,,,,,,,,,,,,,,,,,,,
,,,,,SPR24_092,21,Female,2024-04-25_13h30.48.085,jersey_experiment_5_v0,2023.2.2,Win32,60.24096386,,,,,,,,,,,,,,,,476.9606,478.0102,478.0103,480.2435,return,0.0895,,87.890625,,,,,,FBP-PT-91.png,0.37,1.2,57,0.25,0,44,44,56,1,,,,,,,,,,,,,,,,,,,,,,,,,,,,,,,,,,,,,,,,
,,,,,SPR24_092,21,Female,2024-04-25_13h30.48.085,jersey_experiment_5_v0,2023.2.2,Win32,60.24096386,,,,,,,,,,,,,,,,480.2437,481.5434,481.5434,483.0599,return,0.1718,,38.80208333,,,,,,FBP-OG-19.png,0.35,1.2,11,0.5,0,45,45,10,1,,,,,,,,,,,,,,,,,,,,,,,,,,,,,,,,,,,,,,,,
,,,,,SPR24_092,21,Female,2024-04-25_13h30.48.085,jersey_experiment_5_v0,2023.2.2,Win32,60.24096386,,,,,,,,,,,,,,,,483.0601,484.3598,484.3598,486.5264,return,0.1753,,50,,,,,,FBP-RB-81.png,0.37,1.2,37,0.5,0,46,46,36,1,,,,,,,,,,,,,,,,,,,,,,,,,,,,,,,,,,,,,,,,
,,,,,SPR24_092,21,Female,2024-04-25_13h30.48.085,jersey_experiment_5_v0,2023.2.2,Win32,60.24096386,,,,,,,,,,,,,,,,486.5266,487.8262,487.8263,489.6262,return,0.1505,,74.86979167,,,,,,FBP-RB-71.png,0.43,1.2,34,0.5,0,47,47,33,1,,,,,,,,,,,,,,,,,,,,,,,,,,,,,,,,,,,,,,,,
,,,,,SPR24_092,21,Female,2024-04-25_13h30.48.085,jersey_experiment_5_v0,2023.2.2,Win32,60.24096386,,,,,,,,,,,,,,,,489.6263,490.9261,490.9261,492.3427,return,0.1836,,89.19270833,,,,,,FBP-OG-17.png,0.45,1.2,5,0.5,0,48,48,4,1,,,,,,,,,,,,,,,,,,,,,,,,,,,,,,,,,,,,,,,,
,,,,,SPR24_092,21,Female,2024-04-25_13h30.48.085,jersey_experiment_5_v0,2023.2.2,Win32,60.24096386,,,,,,,,,,,,,,,,492.3429,493.3925,493.3925,495.3591,return,0.1927,,75.13020833,,,,,,FBP-YG-91.png,0.4,1.2,28,0.25,0,49,49,27,1,,,,,,,,,,,,,,,,,,,,,,,,,,,,,,,,,,,,,,,,
,,,,,SPR24_092,21,Female,2024-04-25_13h30.48.085,jersey_experiment_5_v0,2023.2.2,Win32,60.24096386,,,,,,,,,,,,,,,,495.3593,496.6589,496.659,500.0254,return,0.1168,,49.609375,,,,,,FBP-OG-17.png,0.35,1.2,1,0.5,0,50,50,0,1,,,,,,,,,,,,,,,,,,,,,,,,,,,,,,,,,,,,,,,,
,,,,,SPR24_092,21,Female,2024-04-25_13h30.48.085,jersey_experiment_5_v0,2023.2.2,Win32,60.24096386,,,,,,,,,,,,,,,,500.0257,501.0754,501.0754,504.8418,return,2.2701,,37.109375,,,,,,FBP-PT-71.png,0.35,1.2,46,0.25,0,51,51,45,1,,,,,,,,,,,,,,,,,,,,,,,,,,,,,,,,,,,,,,,,
,,,,,SPR24_092,21,Female,2024-04-25_13h30.48.085,jersey_experiment_5_v0,2023.2.2,Win32,60.24096386,,,,,,,,,,,,,,,,504.842,505.8917,505.8917,507.375,return,0.1732,,89.84375,,,,,,FBP-PT-71.png,0.43,1.2,49,0.25,0,52,52,48,1,,,,,,,,,,,,,,,,,,,,,,,,,,,,,,,,,,,,,,,,
,,,,,SPR24_092,21,Female,2024-04-25_13h30.48.085,jersey_experiment_5_v0,2023.2.2,Win32,60.24096386,,,,,,,,,,,,,,,,507.3752,508.6748,508.6748,510.4914,return,0.1677,,61.71875,,,,,,FBP-RB-81.png,0.35,1.2,36,0.5,0,53,53,35,1,,,,,,,,,,,,,,,,,,,,,,,,,,,,,,,,,,,,,,,,
,,,,,SPR24_092,21,Female,2024-04-25_13h30.48.085,jersey_experiment_5_v0,2023.2.2,Win32,60.24096386,,,,,,,,,,,,,,,,510.4916,511.5413,511.5413,512.7246,return,0.1039,,62.36979167,,,,,,FBP-PT-91.png,0.35,1.2,56,0.25,0,54,54,55,1,,,,,,,,,,,,,,,,,,,,,,,,,,,,,,,,,,,,,,,,
,,,,,SPR24_092,21,Female,2024-04-25_13h30.48.085,jersey_experiment_5_v0,2023.2.2,Win32,60.24096386,,,,,,,,,,,,,,,,512.7248,514.0245,514.0246,515.4078,return,0.1427,,88.15104167,,,,,,FBP-RB-81.png,0.45,1.2,40,0.5,0,55,55,39,1,,,,,,,,,,,,,,,,,,,,,,,,,,,,,,,,,,,,,,,,
,,,,,SPR24_092,21,Female,2024-04-25_13h30.48.085,jersey_experiment_5_v0,2023.2.2,Win32,60.24096386,,,,,,,,,,,,,,,,515.408,516.7076,516.7076,521.2407,return,1.9689,,75,,,,,,FBP-RB-91.png,0.35,1.2,41,0.5,0,56,56,40,1,,,,,,,,,,,,,,,,,,,,,,,,,,,,,,,,,,,,,,,,
,,,,,SPR24_092,21,Female,2024-04-25_13h30.48.085,jersey_experiment_5_v0,2023.2.2,Win32,60.24096386,,,,,,,,,,,,,,,,521.2408,522.2907,522.2907,524.3904,return,0.2003,,75,,,,,,FBP-YG-71.png,0.43,1.2,19,0.25,0,57,57,18,1,,,,,,,,,,,,,,,,,,,,,,,,,,,,,,,,,,,,,,,,
,,,,,SPR24_092,21,Female,2024-04-25_13h30.48.085,jersey_experiment_5_v0,2023.2.2,Win32,60.24096386,,,,,,,,,,,,,,,,524.3906,525.6904,525.6904,526.3737,return,0.1342,,75,,,,,,FBP-OG-19.png,0.4,1.2,13,0.5,0,58,58,12,1,,,,,,,,,,,,,,,,,,,,,,,,,,,,,,,,,,,,,,,,
,,,,,SPR24_092,21,Female,2024-04-25_13h30.48.085,jersey_experiment_5_v0,2023.2.2,Win32,60.24096386,,,,,,,,,,,,,,,,526.3738,527.4236,527.4236,529.0734,return,0.1369,,88.15104167,,,,,,FBP-PT-81.png,0.45,1.2,55,0.25,0,59,59,54,1,,,,,,,,,,,,,,,,,,,,,,,,,,,,,,,,,,,,,,,,
,,,,,SPR24_092,21,Female,2024-04-25_13h30.48.085,jersey_experiment_5_v0,2023.2.2,Win32,60.24096386,,,,,,,,,,,,,,,,,,,,,,,,,,,,,,,,,,,,,,,529.0739,649.0657,,,,,,,,,,,,,,,,,,,,,,,,,,,,,,,,,,,,,,
,,,,,SPR24_092,21,Female,2024-04-25_13h30.48.085,jersey_experiment_5_v0,2023.2.2,Win32,60.24096386,,,,,,,,,,,,,,,,,,,,,,,,,,,,,,,,,,,,,,,,,649.0658,656.2819,return,7.197,,,,,,,,,,,,,,,,,,,,,,,,,,,,,,,,,,
,,,,,SPR24_092,21,Female,2024-04-25_13h30.48.085,jersey_experiment_5_v0,2023.2.2,Win32,60.24096386,,,,,,,,,,,,,,,,656.2878,657.3315,657.3315,660.2646,return,0.8838,,63.671875,,,,,,FBP-OG-81.png,0.4,1.2,8,0.25,,,,,,,,,,,,,0,0,0,7,1,,,,,,,,,,,,,,,,,,,,,,,,,,,,
,,,,,SPR24_092,21,Female,2024-04-25_13h30.48.085,jersey_experiment_5_v0,2023.2.2,Win32,60.24096386,,,,,,,,,,,,,,,,660.2648,661.3146,661.3146,663.3311,return,0.2031,,25,,,,,,FBP-RB-19.png,0.37,1.2,42,0.25,,,,,,,,,,,,,0,1,1,41,1,,,,,,,,,,,,,,,,,,,,,,,,,,,,
,,,,,SPR24_092,21,Female,2024-04-25_13h30.48.085,jersey_experiment_5_v0,2023.2.2,Win32,60.24096386,,,,,,,,,,,,,,,,663.3314,664.381,664.3811,666.6142,return,0.1999,,75.13020833,,,,,,FBP-OG-81.png,0.43,1.2,9,0.25,,,,,,,,,,,,,0,2,2,8,1,,,,,,,,,,,,,,,,,,,,,,,,,,,,
,,,,,SPR24_092,21,Female,2024-04-25_13h30.48.085,jersey_experiment_5_v0,2023.2.2,Win32,60.24096386,,,,,,,,,,,,,,,,666.6144,667.6641,667.6641,669.9307,return,0.2338,,37.109375,,,,,,FBP-OG-81.png,0.37,1.2,7,0.25,,,,,,,,,,,,,0,3,3,6,1,,,,,,,,,,,,,,,,,,,,,,,,,,,,
,,,,,SPR24_092,21,Female,2024-04-25_13h30.48.085,jersey_experiment_5_v0,2023.2.2,Win32,60.24096386,,,,,,,,,,,,,,,,669.9309,671.2306,671.2307,674.2138,return,0.2171,,74.86979167,,,,,,FBP-PT-17.png,0.43,1.2,49,0.5,,,,,,,,,,,,,0,4,4,48,1,,,,,,,,,,,,,,,,,,,,,,,,,,,,
,,,,,SPR24_092,21,Female,2024-04-25_13h30.48.085,jersey_experiment_5_v0,2023.2.2,Win32,60.24096386,,,,,,,,,,,,,,,,674.214,675.5136,675.5136,677.6968,return,0.4414,,61.97916667,,,,,,FBP-PT-19.png,0.4,1.2,58,0.5,,,,,,,,,,,,,0,5,5,57,1,,,,,,,,,,,,,,,,,,,,,,,,,,,,
,,,,,SPR24_092,21,Female,2024-04-25_13h30.48.085,jersey_experiment_5_v0,2023.2.2,Win32,60.24096386,,,,,,,,,,,,,,,,677.697,678.7468,678.7468,681.6131,return,0.2279,,25.13020833,,,,,,FBP-RB-19.png,0.35,1.2,41,0.25,,,,,,,,,,,,,0,6,6,40,1,,,,,,,,,,,,,,,,,,,,,,,,,,,,
,,,,,SPR24_092,21,Female,2024-04-25_13h30.48.085,jersey_experiment_5_v0,2023.2.2,Win32,60.24096386,,,,,,,,,,,,,,,,681.6133,682.9129,682.9131,684.9629,return,0.223,,75,,,,,,FBP-YG-17.png,0.45,1.2,20,0.5,,,,,,,,,,,,,0,7,7,19,1,,,,,,,,,,,,,,,,,,,,,,,,,,,,
,,,,,SPR24_092,21,Female,2024-04-25_13h30.48.085,jersey_experiment_5_v0,2023.2.2,Win32,60.24096386,,,,,,,,,,,,,,,,684.9631,686.0129,686.0129,688.1294,return,0.1577,,62.36979167,,,,,,FBP-OG-71.png,0.4,1.2,3,0.25,,,,,,,,,,,,,0,8,8,2,1,,,,,,,,,,,,,,,,,,,,,,,,,,,,
,,,,,SPR24_092,21,Female,2024-04-25_13h30.48.085,jersey_experiment_5_v0,2023.2.2,Win32,60.24096386,,,,,,,,,,,,,,,,688.1297,689.4293,689.4293,690.2459,return,0.1688,,62.23958333,,,,,,FBP-YG-17.png,0.4,1.2,18,0.5,,,,,,,,,,,,,0,9,9,17,1,,,,,,,,,,,,,,,,,,,,,,,,,,,,
,,,,,SPR24_092,21,Female,2024-04-25_13h30.48.085,jersey_experiment_5_v0,2023.2.2,Win32,60.24096386,,,,,,,,,,,,,,,,690.2461,691.5458,691.5459,694.3957,return,0.9105,,25,,,,,,FBP-YG-17.png,0.35,1.2,16,0.5,,,,,,,,,,,,,0,10,10,15,1,,,,,,,,,,,,,,,,,,,,,,,,,,,,
,,,,,SPR24_092,21,Female,2024-04-25_13h30.48.085,jersey_experiment_5_v0,2023.2.2,Win32,60.24096386,,,,,,,,,,,,,,,,694.3959,695.6956,695.6956,698.5454,return,0.2049,,36.71875,,,,,,FBP-YG-18.png,0.37,1.2,22,0.5,,,,,,,,,,,,,0,11,11,21,1,,,,,,,,,,,,,,,,,,,,,,,,,,,,
,,,,,SPR24_092,21,Female,2024-04-25_13h30.48.085,jersey_experiment_5_v0,2023.2.2,Win32,60.24096386,,,,,,,,,,,,,,,,698.5457,699.5953,699.5953,704.4118,return,2.114,,49.73958333,,,,,,FBP-OG-81.png,0.35,1.2,6,0.25,,,,,,,,,,,,,0,12,12,5,1,,,,,,,,,,,,,,,,,,,,,,,,,,,,
,,,,,SPR24_092,21,Female,2024-04-25_13h30.48.085,jersey_experiment_5_v0,2023.2.2,Win32,60.24096386,,,,,,,,,,,,,,,,704.412,705.7116,705.7116,707.5615,return,1.1315,,61.84895833,,,,,,FBP-PT-17.png,0.35,1.2,46,0.5,,,,,,,,,,,,,0,13,13,45,1,,,,,,,,,,,,,,,,,,,,,,,,,,,,
,,,,,SPR24_092,21,Female,2024-04-25_13h30.48.085,jersey_experiment_5_v0,2023.2.2,Win32,60.24096386,,,,,,,,,,,,,,,,707.5617,708.8614,708.8614,709.5946,return,0.1835,,61.71875,,,,,,FBP-YG-17.png,0.37,1.2,17,0.5,,,,,,,,,,,,,0,14,14,16,1,,,,,,,,,,,,,,,,,,,,,,,,,,,,
,,,,,SPR24_092,21,Female,2024-04-25_13h30.48.085,jersey_experiment_5_v0,2023.2.2,Win32,60.24096386,,,,,,,,,,,,,,,,709.5948,710.6446,710.6447,712.078,return,0.2106,,87.109375,,,,,,FBP-RB-19.png,0.43,1.2,44,0.25,,,,,,,,,,,,,0,15,15,43,1,,,,,,,,,,,,,,,,,,,,,,,,,,,,
,,,,,SPR24_092,21,Female,2024-04-25_13h30.48.085,jersey_experiment_5_v0,2023.2.2,Win32,60.24096386,,,,,,,,,,,,,,,,712.0783,713.1278,713.1279,714.1278,return,0.2253,,86.97916667,,,,,,FBP-RB-17.png,0.43,1.2,34,0.25,,,,,,,,,,,,,0,16,16,33,1,,,,,,,,,,,,,,,,,,,,,,,,,,,,
,,,,,SPR24_092,21,Female,2024-04-25_13h30.48.085,jersey_experiment_5_v0,2023.2.2,Win32,60.24096386,,,,,,,,,,,,,,,,714.128,715.4277,715.4277,717.4942,return,0.1358,,24.86979167,,,,,,FBP-YG-18.png,0.35,1.2,21,0.5,,,,,,,,,,,,,0,17,17,20,1,,,,,,,,,,,,,,,,,,,,,,,,,,,,
,,,,,SPR24_092,21,Female,2024-04-25_13h30.48.085,jersey_experiment_5_v0,2023.2.2,Win32,60.24096386,,,,,,,,,,,,,,,,717.4943,718.544,718.5441,720.1106,return,0.1749,,62.23958333,,,,,,FBP-RB-19.png,0.4,1.2,43,0.25,,,,,,,,,,,,,0,18,18,42,1,,,,,,,,,,,,,,,,,,,,,,,,,,,,
,,,,,SPR24_092,21,Female,2024-04-25_13h30.48.085,jersey_experiment_5_v0,2023.2.2,Win32,60.24096386,,,,,,,,,,,,,,,,720.1108,721.1606,721.1606,722.8438,return,0.2336,,86.71875,,,,,,FBP-RB-17.png,0.45,1.2,35,0.25,,,,,,,,,,,,,0,19,19,34,1,,,,,,,,,,,,,,,,,,,,,,,,,,,,
,,,,,SPR24_092,21,Female,2024-04-25_13h30.48.085,jersey_experiment_5_v0,2023.2.2,Win32,60.24096386,,,,,,,,,,,,,,,,722.844,723.8937,723.8938,725.7935,return,0.2218,,61.84895833,,,,,,FBP-RB-18.png,0.35,1.2,36,0.25,,,,,,,,,,,,,0,20,20,35,1,,,,,,,,,,,,,,,,,,,,,,,,,,,,
,,,,,SPR24_092,21,Female,2024-04-25_13h30.48.085,jersey_experiment_5_v0,2023.2.2,Win32,60.24096386,,,,,,,,,,,,,,,,725.7937,726.8436,726.8436,728.0434,return,0.2143,,62.76041667,,,,,,FBP-RB-18.png,0.37,1.2,37,0.25,,,,,,,,,,,,,0,21,21,36,1,,,,,,,,,,,,,,,,,,,,,,,,,,,,
,,,,,SPR24_092,21,Female,2024-04-25_13h30.48.085,jersey_experiment_5_v0,2023.2.2,Win32,60.24096386,,,,,,,,,,,,,,,,728.0436,729.3433,729.3433,730.36,return,0.2514,,62.76041667,,,,,,FBP-YG-19.png,0.37,1.2,27,0.5,,,,,,,,,,,,,0,22,22,26,1,,,,,,,,,,,,,,,,,,,,,,,,,,,,
,,,,,SPR24_092,21,Female,2024-04-25_13h30.48.085,jersey_experiment_5_v0,2023.2.2,Win32,60.24096386,,,,,,,,,,,,,,,,730.3602,731.6598,731.6599,733.3431,return,0.1927,,89.0625,,,,,,FBP-PT-17.png,0.45,1.2,50,0.5,,,,,,,,,,,,,0,23,23,49,1,,,,,,,,,,,,,,,,,,,,,,,,,,,,
,,,,,SPR24_092,21,Female,2024-04-25_13h30.48.085,jersey_experiment_5_v0,2023.2.2,Win32,60.24096386,,,,,,,,,,,,,,,,733.3432,734.393,734.393,735.7928,return,0.205,,88.671875,,,,,,FBP-RB-18.png,0.45,1.2,40,0.25,,,,,,,,,,,,,0,24,24,39,1,,,,,,,,,,,,,,,,,,,,,,,,,,,,
,,,,,SPR24_092,21,Female,2024-04-25_13h30.48.085,jersey_experiment_5_v0,2023.2.2,Win32,60.24096386,,,,,,,,,,,,,,,,735.793,737.0928,737.0929,738.1761,return,0.1891,,87.890625,,,,,,FBP-PT-17.png,0.4,1.2,48,0.5,,,,,,,,,,,,,0,25,25,47,1,,,,,,,,,,,,,,,,,,,,,,,,,,,,
,,,,,SPR24_092,21,Female,2024-04-25_13h30.48.085,jersey_experiment_5_v0,2023.2.2,Win32,60.24096386,,,,,,,,,,,,,,,,738.1763,739.4762,739.4762,741.7593,return,0.208,,11.45833333,,,,,,FBP-PT-19.png,0.35,1.2,56,0.5,,,,,,,,,,,,,0,26,26,55,1,,,,,,,,,,,,,,,,,,,,,,,,,,,,
,,,,,SPR24_092,21,Female,2024-04-25_13h30.48.085,jersey_experiment_5_v0,2023.2.2,Win32,60.24096386,,,,,,,,,,,,,,,,741.7596,743.0591,743.0591,745.7423,return,0.2749,,85.80729167,,,,,,FBP-PT-19.png,0.43,1.2,59,0.5,,,,,,,,,,,,,0,27,27,58,1,,,,,,,,,,,,,,,,,,,,,,,,,,,,
,,,,,SPR24_092,21,Female,2024-04-25_13h30.48.085,jersey_experiment_5_v0,2023.2.2,Win32,60.24096386,,,,,,,,,,,,,,,,745.7424,746.7921,746.7921,749.1419,return,0.1688,,74.86979167,,,,,,FBP-RB-17.png,0.37,1.2,32,0.25,,,,,,,,,,,,,0,28,28,31,1,,,,,,,,,,,,,,,,,,,,,,,,,,,,
,,,,,SPR24_092,21,Female,2024-04-25_13h30.48.085,jersey_experiment_5_v0,2023.2.2,Win32,60.24096386,,,,,,,,,,,,,,,,749.1422,750.4419,750.442,752.0585,return,0.4326,,88.28125,,,,,,FBP-YG-18.png,0.45,1.2,25,0.5,,,,,,,,,,,,,0,29,29,24,1,,,,,,,,,,,,,,,,,,,,,,,,,,,,
,,,,,SPR24_092,21,Female,2024-04-25_13h30.48.085,jersey_experiment_5_v0,2023.2.2,Win32,60.24096386,,,,,,,,,,,,,,,,752.0587,753.1084,753.1084,755.2583,return,0.2639,,24.73958333,,,,,,FBP-OG-91.png,0.37,1.2,12,0.25,,,,,,,,,,,,,0,30,30,11,1,,,,,,,,,,,,,,,,,,,,,,,,,,,,
,,,,,SPR24_092,21,Female,2024-04-25_13h30.48.085,jersey_experiment_5_v0,2023.2.2,Win32,60.24096386,,,,,,,,,,,,,,,,755.2584,756.3082,756.3083,759.3913,return,1.4561,,88.15104167,,,,,,FBP-RB-19.png,0.45,1.2,45,0.25,,,,,,,,,,,,,0,31,31,44,1,,,,,,,,,,,,,,,,,,,,,,,,,,,,
,,,,,SPR24_092,21,Female,2024-04-25_13h30.48.085,jersey_experiment_5_v0,2023.2.2,Win32,60.24096386,,,,,,,,,,,,,,,,759.3914,760.6914,760.6914,762.3911,return,0.1988,,25.13020833,,,,,,FBP-YG-19.png,0.35,1.2,26,0.5,,,,,,,,,,,,,0,32,32,25,1,,,,,,,,,,,,,,,,,,,,,,,,,,,,
,,,,,SPR24_092,21,Female,2024-04-25_13h30.48.085,jersey_experiment_5_v0,2023.2.2,Win32,60.24096386,,,,,,,,,,,,,,,,762.3913,763.4413,763.4413,765.3075,return,0.2828,,86.97916667,,,,,,FBP-OG-91.png,0.45,1.2,15,0.25,,,,,,,,,,,,,0,33,33,14,1,,,,,,,,,,,,,,,,,,,,,,,,,,,,
,,,,,SPR24_092,21,Female,2024-04-25_13h30.48.085,jersey_experiment_5_v0,2023.2.2,Win32,60.24096386,,,,,,,,,,,,,,,,765.3078,766.3578,766.3578,767.2242,return,0.2198,,86.97916667,,,,,,FBP-OG-71.png,0.43,1.2,4,0.25,,,,,,,,,,,,,0,34,34,3,1,,,,,,,,,,,,,,,,,,,,,,,,,,,,
,,,,,SPR24_092,21,Female,2024-04-25_13h30.48.085,jersey_experiment_5_v0,2023.2.2,Win32,60.24096386,,,,,,,,,,,,,,,,767.2243,768.5241,768.5242,770.1238,return,0.1774,,25,,,,,,FBP-PT-18.png,0.35,1.2,51,0.5,,,,,,,,,,,,,0,35,35,50,1,,,,,,,,,,,,,,,,,,,,,,,,,,,,
,,,,,SPR24_092,21,Female,2024-04-25_13h30.48.085,jersey_experiment_5_v0,2023.2.2,Win32,60.24096386,,,,,,,,,,,,,,,,770.124,771.4238,771.4238,773.2571,return,0.2338,,75.13020833,,,,,,FBP-PT-18.png,0.43,1.2,54,0.5,,,,,,,,,,,,,0,36,36,53,1,,,,,,,,,,,,,,,,,,,,,,,,,,,,
,,,,,SPR24_092,21,Female,2024-04-25_13h30.48.085,jersey_experiment_5_v0,2023.2.2,Win32,60.24096386,,,,,,,,,,,,,,,,773.2573,774.307,774.307,775.9402,return,0.2044,,25.13020833,,,,,,FBP-OG-71.png,0.35,1.2,1,0.25,,,,,,,,,,,,,0,37,37,0,1,,,,,,,,,,,,,,,,,,,,,,,,,,,,
,,,,,SPR24_092,21,Female,2024-04-25_13h30.48.085,jersey_experiment_5_v0,2023.2.2,Win32,60.24096386,,,,,,,,,,,,,,,,775.9403,777.2402,777.2402,778.8567,return,0.2479,,87.109375,,,,,,FBP-PT-18.png,0.45,1.2,55,0.5,,,,,,,,,,,,,0,38,38,54,1,,,,,,,,,,,,,,,,,,,,,,,,,,,,
,,,,,SPR24_092,21,Female,2024-04-25_13h30.48.085,jersey_experiment_5_v0,2023.2.2,Win32,60.24096386,,,,,,,,,,,,,,,,778.8569,779.9066,779.9066,781.1731,return,0.1845,,87.76041667,,,,,,FBP-RB-18.png,0.4,1.2,38,0.25,,,,,,,,,,,,,0,39,39,37,1,,,,,,,,,,,,,,,,,,,,,,,,,,,,
,,,,,SPR24_092,21,Female,2024-04-25_13h30.48.085,jersey_experiment_5_v0,2023.2.2,Win32,60.24096386,,,,,,,,,,,,,,,,781.1732,782.2232,782.2232,783.1731,return,0.1699,,87.5,,,,,,FBP-OG-81.png,0.45,1.2,10,0.25,,,,,,,,,,,,,0,40,40,9,1,,,,,,,,,,,,,,,,,,,,,,,,,,,,
,,,,,SPR24_092,21,Female,2024-04-25_13h30.48.085,jersey_experiment_5_v0,2023.2.2,Win32,60.24096386,,,,,,,,,,,,,,,,783.1732,784.4729,784.4729,785.6896,return,0.1523,,87.63020833,,,,,,FBP-YG-19.png,0.45,1.2,30,0.5,,,,,,,,,,,,,0,41,41,29,1,,,,,,,,,,,,,,,,,,,,,,,,,,,,
,,,,,SPR24_092,21,Female,2024-04-25_13h30.48.085,jersey_experiment_5_v0,2023.2.2,Win32,60.24096386,,,,,,,,,,,,,,,,785.6898,786.7395,786.7395,789.9892,return,0.2698,,75.26041667,,,,,,FBP-OG-91.png,0.4,1.2,13,0.25,,,,,,,,,,,,,0,42,42,12,1,,,,,,,,,,,,,,,,,,,,,,,,,,,,
,,,,,SPR24_092,21,Female,2024-04-25_13h30.48.085,jersey_experiment_5_v0,2023.2.2,Win32,60.24096386,,,,,,,,,,,,,,,,789.9895,791.0394,791.0394,793.0057,return,0.2271,,86.84895833,,,,,,FBP-RB-18.png,0.43,1.2,39,0.25,,,,,,,,,,,,,0,43,43,38,1,,,,,,,,,,,,,,,,,,,,,,,,,,,,
,,,,,SPR24_092,21,Female,2024-04-25_13h30.48.085,jersey_experiment_5_v0,2023.2.2,Win32,60.24096386,,,,,,,,,,,,,,,,793.006,794.3056,794.3056,796.3721,return,0.4186,,74.73958333,,,,,,FBP-YG-17.png,0.43,1.2,19,0.5,,,,,,,,,,,,,0,44,44,18,1,,,,,,,,,,,,,,,,,,,,,,,,,,,,
,,,,,SPR24_092,21,Female,2024-04-25_13h30.48.085,jersey_experiment_5_v0,2023.2.2,Win32,60.24096386,,,,,,,,,,,,,,,,796.3722,797.4221,797.4221,799.1719,return,0.3712,,24.86979167,,,,,,FBP-OG-91.png,0.35,1.2,11,0.25,,,,,,,,,,,,,0,45,45,10,1,,,,,,,,,,,,,,,,,,,,,,,,,,,,
,,,,,SPR24_092,21,Female,2024-04-25_13h30.48.085,jersey_experiment_5_v0,2023.2.2,Win32,60.24096386,,,,,,,,,,,,,,,,799.172,800.2219,800.222,802.3718,return,0.1548,,36.71875,,,,,,FBP-RB-17.png,0.4,1.2,33,0.25,,,,,,,,,,,,,0,46,46,32,1,,,,,,,,,,,,,,,,,,,,,,,,,,,,
,,,,,SPR24_092,21,Female,2024-04-25_13h30.48.085,jersey_experiment_5_v0,2023.2.2,Win32,60.24096386,,,,,,,,,,,,,,,,802.3721,803.4217,803.4217,804.605,return,0.1592,,74.73958333,,,,,,FBP-OG-71.png,0.45,1.2,5,0.25,,,,,,,,,,,,,0,47,47,4,1,,,,,,,,,,,,,,,,,,,,,,,,,,,,
,,,,,SPR24_092,21,Female,2024-04-25_13h30.48.085,jersey_experiment_5_v0,2023.2.2,Win32,60.24096386,,,,,,,,,,,,,,,,804.6052,805.9049,805.9049,807.5881,return,0.1853,,50,,,,,,FBP-PT-18.png,0.37,1.2,52,0.5,,,,,,,,,,,,,0,48,48,51,1,,,,,,,,,,,,,,,,,,,,,,,,,,,,
,,,,,SPR24_092,21,Female,2024-04-25_13h30.48.085,jersey_experiment_5_v0,2023.2.2,Win32,60.24096386,,,,,,,,,,,,,,,,807.5882,808.8879,808.8879,810.1878,return,0.2434,,61.84895833,,,,,,FBP-YG-18.png,0.4,1.2,23,0.5,,,,,,,,,,,,,0,49,49,22,1,,,,,,,,,,,,,,,,,,,,,,,,,,,,
,,,,,SPR24_092,21,Female,2024-04-25_13h30.48.085,jersey_experiment_5_v0,2023.2.2,Win32,60.24096386,,,,,,,,,,,,,,,,810.188,811.2378,811.2379,813.8877,return,0.192,,74.73958333,,,,,,FBP-OG-91.png,0.43,1.2,14,0.25,,,,,,,,,,,,,0,50,50,13,1,,,,,,,,,,,,,,,,,,,,,,,,,,,,
,,,,,SPR24_092,21,Female,2024-04-25_13h30.48.085,jersey_experiment_5_v0,2023.2.2,Win32,60.24096386,,,,,,,,,,,,,,,,813.8879,815.1875,815.1875,817.7707,return,0.3012,,74.73958333,,,,,,FBP-YG-19.png,0.4,1.2,28,0.5,,,,,,,,,,,,,0,51,51,27,1,,,,,,,,,,,,,,,,,,,,,,,,,,,,
,,,,,SPR24_092,21,Female,2024-04-25_13h30.48.085,jersey_experiment_5_v0,2023.2.2,Win32,60.24096386,,,,,,,,,,,,,,,,817.7709,819.0707,819.0707,820.5038,return,0.1835,,25,,,,,,FBP-PT-17.png,0.37,1.2,47,0.5,,,,,,,,,,,,,0,52,52,46,1,,,,,,,,,,,,,,,,,,,,,,,,,,,,
,,,,,SPR24_092,21,Female,2024-04-25_13h30.48.085,jersey_experiment_5_v0,2023.2.2,Win32,60.24096386,,,,,,,,,,,,,,,,820.5041,821.5537,821.5538,823.4036,return,0.1954,,36.71875,,,,,,FBP-RB-17.png,0.35,1.2,31,0.25,,,,,,,,,,,,,0,53,53,30,1,,,,,,,,,,,,,,,,,,,,,,,,,,,,
,,,,,SPR24_092,21,Female,2024-04-25_13h30.48.085,jersey_experiment_5_v0,2023.2.2,Win32,60.24096386,,,,,,,,,,,,,,,,823.4037,824.4535,824.4535,825.3369,return,0.1863,,36.71875,,,,,,FBP-OG-71.png,0.37,1.2,2,0.25,,,,,,,,,,,,,0,54,54,1,1,,,,,,,,,,,,,,,,,,,,,,,,,,,,
,,,,,SPR24_092,21,Female,2024-04-25_13h30.48.085,jersey_experiment_5_v0,2023.2.2,Win32,60.24096386,,,,,,,,,,,,,,,,825.337,826.6369,826.637,828.07,return,0.1833,,62.5,,,,,,FBP-YG-19.png,0.43,1.2,29,0.5,,,,,,,,,,,,,0,55,55,28,1,,,,,,,,,,,,,,,,,,,,,,,,,,,,
,,,,,SPR24_092,21,Female,2024-04-25_13h30.48.085,jersey_experiment_5_v0,2023.2.2,Win32,60.24096386,,,,,,,,,,,,,,,,828.0703,829.3701,829.3701,832.2698,return,0.9415,,86.84895833,,,,,,FBP-PT-19.png,0.45,1.2,60,0.5,,,,,,,,,,,,,0,56,56,59,1,,,,,,,,,,,,,,,,,,,,,,,,,,,,
,,,,,SPR24_092,21,Female,2024-04-25_13h30.48.085,jersey_experiment_5_v0,2023.2.2,Win32,60.24096386,,,,,,,,,,,,,,,,832.2699,833.5696,833.5697,835.2529,return,0.1701,,74.73958333,,,,,,FBP-PT-18.png,0.4,1.2,53,0.5,,,,,,,,,,,,,0,57,57,52,1,,,,,,,,,,,,,,,,,,,,,,,,,,,,
,,,,,SPR24_092,21,Female,2024-04-25_13h30.48.085,jersey_experiment_5_v0,2023.2.2,Win32,60.24096386,,,,,,,,,,,,,,,,835.2531,836.5527,836.5527,838.886,return,0.3021,,75,,,,,,FBP-PT-19.png,0.37,1.2,57,0.5,,,,,,,,,,,,,0,58,58,56,1,,,,,,,,,,,,,,,,,,,,,,,,,,,,
,,,,,SPR24_092,21,Female,2024-04-25_13h30.48.085,jersey_experiment_5_v0,2023.2.2,Win32,60.24096386,,,,,,,,,,,,,,,,838.8862,840.1858,840.1858,841.8357,return,0.2104,,86.84895833,,,,,,FBP-YG-18.png,0.43,1.2,24,0.5,,,,,,,,,,,,,0,59,59,23,1,,,,,,,,,,,,,,,,,,,,,,,,,,,,
,,,,,SPR24_092,21,Female,2024-04-25_13h30.48.085,jersey_experiment_5_v0,2023.2.2,Win32,60.24096386,,,,,,,,,,,,,,,,841.8369,842.8856,842.8857,845.2522,return,0.3376,,24.86979167,,,,,,FBP-OG-19.png,0.35,1.2,11,0.25,,,,,,,,,,,,,,,,,,0,0,0,10,1,,,,,,,,,,,,,,,,,,,,,,,
,,,,,SPR24_092,21,Female,2024-04-25_13h30.48.085,jersey_experiment_5_v0,2023.2.2,Win32,60.24096386,,,,,,,,,,,,,,,,845.2524,846.3022,846.3022,847.8021,return,0.2304,,63.54166667,,,,,,FBP-OG-17.png,0.4,1.2,3,0.25,,,,,,,,,,,,,,,,,,0,1,1,2,1,,,,,,,,,,,,,,,,,,,,,,,
,,,,,SPR24_092,21,Female,2024-04-25_13h30.48.085,jersey_experiment_5_v0,2023.2.2,Win32,60.24096386,,,,,,,,,,,,,,,,847.8022,848.8519,848.8519,850.2018,return,0.1524,,86.97916667,,,,,,FBP-OG-18.png,0.45,1.2,10,0.25,,,,,,,,,,,,,,,,,,0,2,2,9,1,,,,,,,,,,,,,,,,,,,,,,,
,,,,,SPR24_092,21,Female,2024-04-25_13h30.48.085,jersey_experiment_5_v0,2023.2.2,Win32,60.24096386,,,,,,,,,,,,,,,,850.2021,851.5018,851.5018,853.5349,return,0.193,,62.63020833,,,,,,FBP-YG-91.png,0.35,1.2,26,0.5,,,,,,,,,,,,,,,,,,0,3,3,25,1,,,,,,,,,,,,,,,,,,,,,,,
,,,,,SPR24_092,21,Female,2024-04-25_13h30.48.085,jersey_experiment_5_v0,2023.2.2,Win32,60.24096386,,,,,,,,,,,,,,,,853.5352,854.8348,854.8348,856.035,return,0.2193,,87.890625,,,,,,FBP-YG-71.png,0.45,1.2,20,0.5,,,,,,,,,,,,,,,,,,0,4,4,19,1,,,,,,,,,,,,,,,,,,,,,,,
,,,,,SPR24_092,21,Female,2024-04-25_13h30.48.085,jersey_experiment_5_v0,2023.2.2,Win32,60.24096386,,,,,,,,,,,,,,,,856.0353,857.3347,857.3347,859.4346,return,0.2188,,62.23958333,,,,,,FBP-PT-91.png,0.37,1.2,57,0.5,,,,,,,,,,,,,,,,,,0,5,5,56,1,,,,,,,,,,,,,,,,,,,,,,,
,,,,,SPR24_092,21,Female,2024-04-25_13h30.48.085,jersey_experiment_5_v0,2023.2.2,Win32,60.24096386,,,,,,,,,,,,,,,,859.4347,860.7346,860.7346,861.4845,return,0.212,,62.23958333,,,,,,FBP-PT-91.png,0.4,1.2,58,0.5,,,,,,,,,,,,,,,,,,0,6,6,57,1,,,,,,,,,,,,,,,,,,,,,,,
,,,,,SPR24_092,21,Female,2024-04-25_13h30.48.085,jersey_experiment_5_v0,2023.2.2,Win32,60.24096386,,,,,,,,,,,,,,,,861.4848,862.7844,862.7844,866.1008,return,0.4705,,12.36979167,,,,,,FBP-YG-71.png,0.35,1.2,16,0.5,,,,,,,,,,,,,,,,,,0,7,7,15,1,,,,,,,,,,,,,,,,,,,,,,,
,,,,,SPR24_092,21,Female,2024-04-25_13h30.48.085,jersey_experiment_5_v0,2023.2.2,Win32,60.24096386,,,,,,,,,,,,,,,,866.1011,867.4008,867.4008,869.0008,return,0.6639,,61.71875,,,,,,FBP-YG-71.png,0.4,1.2,18,0.5,,,,,,,,,,,,,,,,,,0,8,8,17,1,,,,,,,,,,,,,,,,,,,,,,,
,,,,,SPR24_092,21,Female,2024-04-25_13h30.48.085,jersey_experiment_5_v0,2023.2.2,Win32,60.24096386,,,,,,,,,,,,,,,,869.0009,870.3005,870.3006,871.1671,return,0.2927,,62.109375,,,,,,FBP-PT-81.png,0.37,1.2,52,0.5,,,,,,,,,,,,,,,,,,0,9,9,51,1,,,,,,,,,,,,,,,,,,,,,,,
,,,,,SPR24_092,21,Female,2024-04-25_13h30.48.085,jersey_experiment_5_v0,2023.2.2,Win32,60.24096386,,,,,,,,,,,,,,,,871.1673,872.4668,872.4669,874.1502,return,0.2523,,87.5,,,,,,FBP-PT-81.png,0.45,1.2,55,0.5,,,,,,,,,,,,,,,,,,0,10,10,54,1,,,,,,,,,,,,,,,,,,,,,,,
,,,,,SPR24_092,21,Female,2024-04-25_13h30.48.085,jersey_experiment_5_v0,2023.2.2,Win32,60.24096386,,,,,,,,,,,,,,,,874.1504,875.4503,875.4503,876.9834,return,0.2479,,36.84895833,,,,,,FBP-YG-81.png,0.35,1.2,21,0.5,,,,,,,,,,,,,,,,,,0,11,11,20,1,,,,,,,,,,,,,,,,,,,,,,,
,,,,,SPR24_092,21,Female,2024-04-25_13h30.48.085,jersey_experiment_5_v0,2023.2.2,Win32,60.24096386,,,,,,,,,,,,,,,,876.9835,878.2834,878.2834,881.6829,return,0.2194,,75,,,,,,FBP-PT-81.png,0.4,1.2,53,0.5,,,,,,,,,,,,,,,,,,0,12,12,52,1,,,,,,,,,,,,,,,,,,,,,,,
,,,,,SPR24_092,21,Female,2024-04-25_13h30.48.085,jersey_experiment_5_v0,2023.2.2,Win32,60.24096386,,,,,,,,,,,,,,,,881.6832,882.983,882.983,884.4995,return,0.1884,,87.36979167,,,,,,FBP-PT-81.png,0.43,1.2,54,0.5,,,,,,,,,,,,,,,,,,0,13,13,53,1,,,,,,,,,,,,,,,,,,,,,,,
,,,,,SPR24_092,21,Female,2024-04-25_13h30.48.085,jersey_experiment_5_v0,2023.2.2,Win32,60.24096386,,,,,,,,,,,,,,,,884.4997,885.5496,885.5496,887.3163,return,0.1681,,75.13020833,,,,,,FBP-OG-19.png,0.37,1.2,12,0.25,,,,,,,,,,,,,,,,,,0,14,14,11,1,,,,,,,,,,,,,,,,,,,,,,,
,,,,,SPR24_092,21,Female,2024-04-25_13h30.48.085,jersey_experiment_5_v0,2023.2.2,Win32,60.24096386,,,,,,,,,,,,,,,,887.3165,888.366,888.3661,890.2658,return,0.1666,,75.13020833,,,,,,FBP-OG-18.png,0.37,1.2,7,0.25,,,,,,,,,,,,,,,,,,0,15,15,6,1,,,,,,,,,,,,,,,,,,,,,,,
,,,,,SPR24_092,21,Female,2024-04-25_13h30.48.085,jersey_experiment_5_v0,2023.2.2,Win32,60.24096386,,,,,,,,,,,,,,,,890.2659,891.3158,891.3158,892.6157,return,0.1662,,87.36979167,,,,,,FBP-OG-19.png,0.43,1.2,14,0.25,,,,,,,,,,,,,,,,,,0,16,16,13,1,,,,,,,,,,,,,,,,,,,,,,,
,,,,,SPR24_092,21,Female,2024-04-25_13h30.48.085,jersey_experiment_5_v0,2023.2.2,Win32,60.24096386,,,,,,,,,,,,,,,,892.6158,893.9155,893.9156,894.5989,return,0.1825,,87.36979167,,,,,,FBP-PT-91.png,0.45,1.2,60,0.5,,,,,,,,,,,,,,,,,,0,17,17,59,1,,,,,,,,,,,,,,,,,,,,,,,
,,,,,SPR24_092,21,Female,2024-04-25_13h30.48.085,jersey_experiment_5_v0,2023.2.2,Win32,60.24096386,,,,,,,,,,,,,,,,894.599,895.8988,895.8989,898.5654,return,0.1502,,75,,,,,,FBP-PT-91.png,0.35,1.2,56,0.5,,,,,,,,,,,,,,,,,,0,18,18,55,1,,,,,,,,,,,,,,,,,,,,,,,
,,,,,SPR24_092,21,Female,2024-04-25_13h30.48.085,jersey_experiment_5_v0,2023.2.2,Win32,60.24096386,,,,,,,,,,,,,,,,898.5656,899.6152,899.6153,901.6485,return,0.2225,,36.328125,,,,,,FBP-RB-71.png,0.35,1.2,31,0.25,,,,,,,,,,,,,,,,,,0,19,19,30,1,,,,,,,,,,,,,,,,,,,,,,,
,,,,,SPR24_092,21,Female,2024-04-25_13h30.48.085,jersey_experiment_5_v0,2023.2.2,Win32,60.24096386,,,,,,,,,,,,,,,,901.6486,902.6984,902.6984,904.265,return,0.131,,86.97916667,,,,,,FBP-RB-71.png,0.45,1.2,35,0.25,,,,,,,,,,,,,,,,,,0,20,20,34,1,,,,,,,,,,,,,,,,,,,,,,,
,,,,,SPR24_092,21,Female,2024-04-25_13h30.48.085,jersey_experiment_5_v0,2023.2.2,Win32,60.24096386,,,,,,,,,,,,,,,,904.2652,905.3149,905.315,908.6314,return,0.1168,,49.86979167,,,,,,FBP-RB-91.png,0.37,1.2,42,0.25,,,,,,,,,,,,,,,,,,0,21,21,41,1,,,,,,,,,,,,,,,,,,,,,,,
,,,,,SPR24_092,21,Female,2024-04-25_13h30.48.085,jersey_experiment_5_v0,2023.2.2,Win32,60.24096386,,,,,,,,,,,,,,,,908.6315,909.6813,909.6813,910.5311,return,0.17,,49.86979167,,,,,,FBP-RB-81.png,0.37,1.2,37,0.25,,,,,,,,,,,,,,,,,,0,22,22,36,1,,,,,,,,,,,,,,,,,,,,,,,
,,,,,SPR24_092,21,Female,2024-04-25_13h30.48.085,jersey_experiment_5_v0,2023.2.2,Win32,60.24096386,,,,,,,,,,,,,,,,910.5314,911.831,911.8311,912.8477,return,0.1893,,49.86979167,,,,,,FBP-PT-81.png,0.35,1.2,51,0.5,,,,,,,,,,,,,,,,,,0,23,23,50,1,,,,,,,,,,,,,,,,,,,,,,,
,,,,,SPR24_092,21,Female,2024-04-25_13h30.48.085,jersey_experiment_5_v0,2023.2.2,Win32,60.24096386,,,,,,,,,,,,,,,,912.8478,913.8975,913.8975,915.4142,return,0.2326,,62.109375,,,,,,FBP-OG-18.png,0.35,1.2,6,0.25,,,,,,,,,,,,,,,,,,0,24,24,5,1,,,,,,,,,,,,,,,,,,,,,,,
,,,,,SPR24_092,21,Female,2024-04-25_13h30.48.085,jersey_experiment_5_v0,2023.2.2,Win32,60.24096386,,,,,,,,,,,,,,,,915.4144,916.7142,916.7142,918.0472,return,0.1729,,62.5,,,,,,FBP-YG-91.png,0.37,1.2,27,0.5,,,,,,,,,,,,,,,,,,0,25,25,26,1,,,,,,,,,,,,,,,,,,,,,,,
,,,,,SPR24_092,21,Female,2024-04-25_13h30.48.085,jersey_experiment_5_v0,2023.2.2,Win32,60.24096386,,,,,,,,,,,,,,,,918.0474,919.0971,919.0971,920.7637,return,0.1432,,87.23958333,,,,,,FBP-OG-19.png,0.4,1.2,13,0.25,,,,,,,,,,,,,,,,,,0,26,26,12,1,,,,,,,,,,,,,,,,,,,,,,,
,,,,,SPR24_092,21,Female,2024-04-25_13h30.48.085,jersey_experiment_5_v0,2023.2.2,Win32,60.24096386,,,,,,,,,,,,,,,,920.7639,922.0636,922.0636,923.7969,return,0.1344,,62.109375,,,,,,FBP-PT-71.png,0.35,1.2,46,0.5,,,,,,,,,,,,,,,,,,0,27,27,45,1,,,,,,,,,,,,,,,,,,,,,,,
,,,,,SPR24_092,21,Female,2024-04-25_13h30.48.085,jersey_experiment_5_v0,2023.2.2,Win32,60.24096386,,,,,,,,,,,,,,,,923.7971,924.8468,924.8468,926.3633,return,0.1598,,86.84895833,,,,,,FBP-RB-71.png,0.43,1.2,34,0.25,,,,,,,,,,,,,,,,,,0,28,28,33,1,,,,,,,,,,,,,,,,,,,,,,,
,,,,,SPR24_092,21,Female,2024-04-25_13h30.48.085,jersey_experiment_5_v0,2023.2.2,Win32,60.24096386,,,,,,,,,,,,,,,,926.3635,927.4132,927.4133,928.3466,return,0.1499,,86.84895833,,,,,,FBP-OG-18.png,0.43,1.2,9,0.25,,,,,,,,,,,,,,,,,,0,29,29,8,1,,,,,,,,,,,,,,,,,,,,,,,
,,,,,SPR24_092,21,Female,2024-04-25_13h30.48.085,jersey_experiment_5_v0,2023.2.2,Win32,60.24096386,,,,,,,,,,,,,,,,928.3467,929.6465,929.6466,930.7796,return,0.2619,,89.71354167,,,,,,FBP-PT-71.png,0.45,1.2,50,0.5,,,,,,,,,,,,,,,,,,0,30,30,49,1,,,,,,,,,,,,,,,,,,,,,,,
,,,,,SPR24_092,21,Female,2024-04-25_13h30.48.085,jersey_experiment_5_v0,2023.2.2,Win32,60.24096386,,,,,,,,,,,,,,,,930.7799,931.8296,931.8297,934.8462,return,0.1599,,75,,,,,,FBP-RB-71.png,0.37,1.2,32,0.25,,,,,,,,,,,,,,,,,,0,31,31,31,1,,,,,,,,,,,,,,,,,,,,,,,
,,,,,SPR24_092,21,Female,2024-04-25_13h30.48.085,jersey_experiment_5_v0,2023.2.2,Win32,60.24096386,,,,,,,,,,,,,,,,934.8464,935.8962,935.8962,936.6961,return,0.1479,,74.73958333,,,,,,FBP-RB-91.png,0.4,1.2,43,0.25,,,,,,,,,,,,,,,,,,0,32,32,42,1,,,,,,,,,,,,,,,,,,,,,,,
,,,,,SPR24_092,21,Female,2024-04-25_13h30.48.085,jersey_experiment_5_v0,2023.2.2,Win32,60.24096386,,,,,,,,,,,,,,,,936.6963,937.746,937.7461,938.6459,return,0.1991,,74.73958333,,,,,,FBP-RB-81.png,0.35,1.2,36,0.25,,,,,,,,,,,,,,,,,,0,33,33,35,1,,,,,,,,,,,,,,,,,,,,,,,
,,,,,SPR24_092,21,Female,2024-04-25_13h30.48.085,jersey_experiment_5_v0,2023.2.2,Win32,60.24096386,,,,,,,,,,,,,,,,938.646,939.9459,939.9459,941.2957,return,0.1895,,87.76041667,,,,,,FBP-YG-81.png,0.45,1.2,25,0.5,,,,,,,,,,,,,,,,,,0,34,34,24,1,,,,,,,,,,,,,,,,,,,,,,,
,,,,,SPR24_092,21,Female,2024-04-25_13h30.48.085,jersey_experiment_5_v0,2023.2.2,Win32,60.24096386,,,,,,,,,,,,,,,,941.296,942.5956,942.5956,944.5958,return,0.1523,,74.609375,,,,,,FBP-YG-91.png,0.4,1.2,28,0.5,,,,,,,,,,,,,,,,,,0,35,35,27,1,,,,,,,,,,,,,,,,,,,,,,,
,,,,,SPR24_092,21,Female,2024-04-25_13h30.48.085,jersey_experiment_5_v0,2023.2.2,Win32,60.24096386,,,,,,,,,,,,,,,,944.596,945.8955,945.8955,947.5453,return,0.2164,,74.86979167,,,,,,FBP-YG-81.png,0.37,1.2,22,0.5,,,,,,,,,,,,,,,,,,0,36,36,21,1,,,,,,,,,,,,,,,,,,,,,,,
,,,,,SPR24_092,21,Female,2024-04-25_13h30.48.085,jersey_experiment_5_v0,2023.2.2,Win32,60.24096386,,,,,,,,,,,,,,,,947.5456,948.8452,948.8453,950.6285,return,0.2162,,87.109375,,,,,,FBP-YG-91.png,0.45,1.2,30,0.5,,,,,,,,,,,,,,,,,,0,37,37,29,1,,,,,,,,,,,,,,,,,,,,,,,
,,,,,SPR24_092,21,Female,2024-04-25_13h30.48.085,jersey_experiment_5_v0,2023.2.2,Win32,60.24096386,,,,,,,,,,,,,,,,950.6286,951.6784,951.6784,952.4784,return,0.1886,,87.109375,,,,,,FBP-RB-81.png,0.45,1.2,40,0.25,,,,,,,,,,,,,,,,,,0,38,38,39,1,,,,,,,,,,,,,,,,,,,,,,,
,,,,,SPR24_092,21,Female,2024-04-25_13h30.48.085,jersey_experiment_5_v0,2023.2.2,Win32,60.24096386,,,,,,,,,,,,,,,,952.4785,953.5283,953.5284,956.0947,return,0.1405,,74.73958333,,,,,,FBP-OG-17.png,0.43,1.2,4,0.25,,,,,,,,,,,,,,,,,,0,39,39,3,1,,,,,,,,,,,,,,,,,,,,,,,
,,,,,SPR24_092,21,Female,2024-04-25_13h30.48.085,jersey_experiment_5_v0,2023.2.2,Win32,60.24096386,,,,,,,,,,,,,,,,956.0949,957.1447,957.1447,958.5445,return,0.1554,,74.86979167,,,,,,FBP-OG-19.png,0.45,1.2,15,0.25,,,,,,,,,,,,,,,,,,0,40,40,14,1,,,,,,,,,,,,,,,,,,,,,,,
,,,,,SPR24_092,21,Female,2024-04-25_13h30.48.085,jersey_experiment_5_v0,2023.2.2,Win32,60.24096386,,,,,,,,,,,,,,,,958.5448,959.5945,959.5945,961.2444,return,0.1951,,24.86979167,,,,,,FBP-RB-91.png,0.35,1.2,41,0.25,,,,,,,,,,,,,,,,,,0,41,41,40,1,,,,,,,,,,,,,,,,,,,,,,,
,,,,,SPR24_092,21,Female,2024-04-25_13h30.48.085,jersey_experiment_5_v0,2023.2.2,Win32,60.24096386,,,,,,,,,,,,,,,,961.2446,962.5445,962.5446,963.6774,return,0.1442,,62.109375,,,,,,FBP-YG-91.png,0.43,1.2,29,0.5,,,,,,,,,,,,,,,,,,0,42,42,28,1,,,,,,,,,,,,,,,,,,,,,,,
,,,,,SPR24_092,21,Female,2024-04-25_13h30.48.085,jersey_experiment_5_v0,2023.2.2,Win32,60.24096386,,,,,,,,,,,,,,,,963.6777,964.7275,964.7276,966.1608,return,0.1048,,74.86979167,,,,,,FBP-RB-91.png,0.43,1.2,44,0.25,,,,,,,,,,,,,,,,,,0,43,43,43,1,,,,,,,,,,,,,,,,,,,,,,,
,,,,,SPR24_092,21,Female,2024-04-25_13h30.48.085,jersey_experiment_5_v0,2023.2.2,Win32,60.24096386,,,,,,,,,,,,,,,,966.1609,967.4607,967.4607,968.1106,return,0.2074,,74.86979167,,,,,,FBP-PT-71.png,0.43,1.2,49,0.5,,,,,,,,,,,,,,,,,,0,44,44,48,1,,,,,,,,,,,,,,,,,,,,,,,
,,,,,SPR24_092,21,Female,2024-04-25_13h30.48.085,jersey_experiment_5_v0,2023.2.2,Win32,60.24096386,,,,,,,,,,,,,,,,968.1108,969.1605,969.1606,971.0772,return,0.2003,,86.84895833,,,,,,FBP-RB-91.png,0.45,1.2,45,0.25,,,,,,,,,,,,,,,,,,0,45,45,44,1,,,,,,,,,,,,,,,,,,,,,,,
,,,,,SPR24_092,21,Female,2024-04-25_13h30.48.085,jersey_experiment_5_v0,2023.2.2,Win32,60.24096386,,,,,,,,,,,,,,,,971.0773,972.127,972.1271,974.8935,return,0.2101,,11.97916667,,,,,,FBP-OG-17.png,0.37,1.2,2,0.25,,,,,,,,,,,,,,,,,,0,46,46,1,1,,,,,,,,,,,,,,,,,,,,,,,
,,,,,SPR24_092,21,Female,2024-04-25_13h30.48.085,jersey_experiment_5_v0,2023.2.2,Win32,60.24096386,,,,,,,,,,,,,,,,974.8936,976.1936,976.1936,977.76,return,0.2553,,25.13020833,,,,,,FBP-PT-71.png,0.37,1.2,47,0.5,,,,,,,,,,,,,,,,,,0,47,47,46,1,,,,,,,,,,,,,,,,,,,,,,,
,,,,,SPR24_092,21,Female,2024-04-25_13h30.48.085,jersey_experiment_5_v0,2023.2.2,Win32,60.24096386,,,,,,,,,,,,,,,,977.7602,978.8099,978.8099,982.4929,return,0.1612,,49.73958333,,,,,,FBP-RB-81.png,0.4,1.2,38,0.25,,,,,,,,,,,,,,,,,,0,48,48,37,1,,,,,,,,,,,,,,,,,,,,,,,
,,,,,SPR24_092,21,Female,2024-04-25_13h30.48.085,jersey_experiment_5_v0,2023.2.2,Win32,60.24096386,,,,,,,,,,,,,,,,982.4931,983.7931,983.7931,984.9927,return,0.2069,,50,,,,,,FBP-YG-71.png,0.37,1.2,17,0.5,,,,,,,,,,,,,,,,,,0,49,49,16,1,,,,,,,,,,,,,,,,,,,,,,,
,,,,,SPR24_092,21,Female,2024-04-25_13h30.48.085,jersey_experiment_5_v0,2023.2.2,Win32,60.24096386,,,,,,,,,,,,,,,,984.9929,986.2926,986.2927,989.2925,return,0.2444,,75.13020833,,,,,,FBP-YG-81.png,0.43,1.2,24,0.5,,,,,,,,,,,,,,,,,,0,50,50,23,1,,,,,,,,,,,,,,,,,,,,,,,
,,,,,SPR24_092,21,Female,2024-04-25_13h30.48.085,jersey_experiment_5_v0,2023.2.2,Win32,60.24096386,,,,,,,,,,,,,,,,989.2927,990.5924,990.5925,992.4424,return,0.9016,,74.86979167,,,,,,FBP-YG-81.png,0.4,1.2,23,0.5,,,,,,,,,,,,,,,,,,0,51,51,22,1,,,,,,,,,,,,,,,,,,,,,,,
,,,,,SPR24_092,21,Female,2024-04-25_13h30.48.085,jersey_experiment_5_v0,2023.2.2,Win32,60.24096386,,,,,,,,,,,,,,,,992.4425,993.4923,993.4923,995.3087,return,0.2084,,87.36979167,,,,,,FBP-OG-18.png,0.4,1.2,8,0.25,,,,,,,,,,,,,,,,,,0,52,52,7,1,,,,,,,,,,,,,,,,,,,,,,,
,,,,,SPR24_092,21,Female,2024-04-25_13h30.48.085,jersey_experiment_5_v0,2023.2.2,Win32,60.24096386,,,,,,,,,,,,,,,,995.309,996.3587,996.3588,997.2087,return,0.2658,,87.5,,,,,,FBP-OG-17.png,0.45,1.2,5,0.25,,,,,,,,,,,,,,,,,,0,53,53,4,1,,,,,,,,,,,,,,,,,,,,,,,
,,,,,SPR24_092,21,Female,2024-04-25_13h30.48.085,jersey_experiment_5_v0,2023.2.2,Win32,60.24096386,,,,,,,,,,,,,,,,997.2089,998.5086,998.5086,1000.5085,return,0.1418,,74.86979167,,,,,,FBP-PT-91.png,0.43,1.2,59,0.5,,,,,,,,,,,,,,,,,,0,54,54,58,1,,,,,,,,,,,,,,,,,,,,,,,
,,,,,SPR24_092,21,Female,2024-04-25_13h30.48.085,jersey_experiment_5_v0,2023.2.2,Win32,60.24096386,,,,,,,,,,,,,,,,1000.5087,1001.5583,1001.5584,1003.0249,return,0.1728,,74.73958333,,,,,,FBP-RB-81.png,0.43,1.2,39,0.25,,,,,,,,,,,,,,,,,,0,55,55,38,1,,,,,,,,,,,,,,,,,,,,,,,
,,,,,SPR24_092,21,Female,2024-04-25_13h30.48.085,jersey_experiment_5_v0,2023.2.2,Win32,60.24096386,,,,,,,,,,,,,,,,1003.0251,1004.3248,1004.3249,1005.3081,return,0.2093,,75,,,,,,FBP-PT-71.png,0.4,1.2,48,0.5,,,,,,,,,,,,,,,,,,0,56,56,47,1,,,,,,,,,,,,,,,,,,,,,,,
,,,,,SPR24_092,21,Female,2024-04-25_13h30.48.085,jersey_experiment_5_v0,2023.2.2,Win32,60.24096386,,,,,,,,,,,,,,,,1005.3083,1006.358,1006.3581,1007.7912,return,0.1084,,50,,,,,,FBP-OG-17.png,0.35,1.2,1,0.25,,,,,,,,,,,,,,,,,,0,57,57,0,1,,,,,,,,,,,,,,,,,,,,,,,
,,,,,SPR24_092,21,Female,2024-04-25_13h30.48.085,jersey_experiment_5_v0,2023.2.2,Win32,60.24096386,,,,,,,,,,,,,,,,1007.7915,1009.0912,1009.0912,1010.3077,return,0.2187,,62.109375,,,,,,FBP-YG-71.png,0.43,1.2,19,0.5,,,,,,,,,,,,,,,,,,0,58,58,18,1,,,,,,,,,,,,,,,,,,,,,,,
,,,,,SPR24_092,21,Female,2024-04-25_13h30.48.085,jersey_experiment_5_v0,2023.2.2,Win32,60.24096386,,,,,,,,,,,,,,,,1010.3079,1011.3576,1011.3576,1012.7576,return,0.1841,,75,,,,,,FBP-RB-71.png,0.4,1.2,33,0.25,,,,,,,,,,,,,,,,,,0,59,59,32,1,,,,,,,,,,,,,,,,,,,,,,,
,,,,,SPR24_092,21,Female,2024-04-25_13h30.48.085,jersey_experiment_5_v0,2023.2.2,Win32,60.24096386,,,,,,,,,,,,,,,,,,,,,,,,,,,,,,,,,,,,,,,,,,,,,,,,,,,,,,,,1012.7578,1018.2741,return,5.5053,,,,,,,,,,,,,,,,,,,
,,,,,SPR24_092,21,Female,2024-04-25_13h30.48.085,jersey_experiment_5_v0,2023.2.2,Win32,60.24096386,,,,,,,,,,,,,,,,,,,,,,,,,,,,,,,,,,,,,,,,,,,,,,,,,,,,,,,,,,,,,1018.2742,1027.0234,1,7.2446,return,1.4888,,,,,,,,,,,,
,,,,,SPR24_092,21,Female,2024-04-25_13h30.48.085,jersey_experiment_5_v0,2023.2.2,Win32,60.24096386,,,,,,,,,,,,,,,,,,,,,,,,,,,,,,,,,,,,,,,,,,,,,,,,,,,,,,,,,,,,,,,,,,,,1027.0235,1109.1392,I do not know what the study is about or recognize any patterns.,right,53.4873,,,,,,
,,,,,SPR24_092,21,Female,2024-04-25_13h30.48.085,jersey_experiment_5_v0,2023.2.2,Win32,60.24096386,,,,,,,,,,,,,,,,,,,,,,,,,,,,,,,,,,,,,,,,,,,,,,,,,,,,,,,,,,,,,,,,,,,,,,,,,,1109.1394,1113.7177,return,4.5637,