requirements.started,requirements.stopped,key_resp_3.keys,key_resp_3.rt,key_resp_3.duration,Subject ID,Age,Gender,date,expName,psychopyVersion,OS,frameRate,instructions1.started,instructions1.stopped,key_resp.keys,key_resp.rt,key_resp.duration,example.started,example.stopped,enter_2.keys,enter_2.rt,enter_2.duration,instructions2.started,instructions2.stopped,enter_3.keys,enter_3.rt,enter_3.duration,image.started,image.stopped,slider_2.started,slider_2.stopped,next.keys,next.rt,next.duration,slider.response,trial_block_1.thisRepN,trial_block_1.thisTrialN,trial_block_1.thisN,trial_block_1.thisIndex,trial_block_1.ran,Path,Width,Height,Index,Duration,trial_block_2.thisRepN,trial_block_2.thisTrialN,trial_block_2.thisN,trial_block_2.thisIndex,trial_block_2.ran,rest_break.started,rest_break.stopped,end_break.started,end_break.stopped,key_resp_5.keys,key_resp_5.rt,key_resp_5.duration,trial_block_3.thisRepN,trial_block_3.thisTrialN,trial_block_3.thisN,trial_block_3.thisIndex,trial_block_3.ran,trial_block_4.thisRepN,trial_block_4.thisTrialN,trial_block_4.thisN,trial_block_4.thisIndex,trial_block_4.ran,questions_intro.started,questions_intro.stopped,enter_12.keys,enter_12.rt,enter_12.duration,question2.started,question2.stopped,question_doingbest.response,question_doingbest.rt,enter_15.keys,enter_15.rt,enter_15.duration,pattern.started,pattern.stopped,pattern_2.text,enter_17.keys,enter_17.rt,enter_17.duration,thankyou.started,thankyou.stopped,enter_14.keys,enter_14.rt,enter_14.duration
0,13.0974,return,13.0917,,SPR24_037,18,F,2024-04-11_10h28.35.257,jersey_experiment_5_v0,2023.2.2,Win32,85.47008547,,,,,,,,,,,,,,,,,,,,,,,,,,,,,,,,,,,,,,,,,,,,,,,,,,,,,,,,,,,,,,,,,,,,,,,,,,,,,,
,,,,,SPR24_037,18,F,2024-04-11_10h28.35.257,jersey_experiment_5_v0,2023.2.2,Win32,85.47008547,13.0976,33.6828,return,20.5655,,,,,,,,,,,,,,,,,,,,,,,,,,,,,,,,,,,,,,,,,,,,,,,,,,,,,,,,,,,,,,,,,,,,,,,,,,
,,,,,SPR24_037,18,F,2024-04-11_10h28.35.257,jersey_experiment_5_v0,2023.2.2,Win32,85.47008547,,,,,,33.6829,62.3075,return,28.5841,,,,,,,,,,,,,,,,,,,,,,,,,,,,,,,,,,,,,,,,,,,,,,,,,,,,,,,,,,,,,,,,,,,,,
,,,,,SPR24_037,18,F,2024-04-11_10h28.35.257,jersey_experiment_5_v0,2023.2.2,Win32,85.47008547,,,,,,,,,,,62.3075,92.2614,return,29.9306,,,,,,,,,,,,,,,,,,,,,,,,,,,,,,,,,,,,,,,,,,,,,,,,,,,,,,,,,,,,,,,,
,,,,,SPR24_037,18,F,2024-04-11_10h28.35.257,jersey_experiment_5_v0,2023.2.2,Win32,85.47008547,,,,,,,,,,,,,,,,92.2679,93.5599,93.5599,110.5726,return,6.6724,,86.71875,0,0,0,44,1,FBP-RB-19.png,0.45,1.2,45,0.5,,,,,,,,,,,,,,,,,,,,,,,,,,,,,,,,,,,,,,,,,,,,,
,,,,,SPR24_037,18,F,2024-04-11_10h28.35.257,jersey_experiment_5_v0,2023.2.2,Win32,85.47008547,,,,,,,,,,,,,,,,110.5769,111.8768,111.8768,120.6066,return,4.1182,,24.73958333,0,1,1,9,1,FBP-OG-81.png,0.45,1.2,10,0.5,,,,,,,,,,,,,,,,,,,,,,,,,,,,,,,,,,,,,,,,,,,,,
,,,,,SPR24_037,18,F,2024-04-11_10h28.35.257,jersey_experiment_5_v0,2023.2.2,Win32,85.47008547,,,,,,,,,,,,,,,,120.6107,121.9091,121.9092,127.5013,return,2.2829,,25.13020833,0,2,2,38,1,FBP-RB-18.png,0.43,1.2,39,0.5,,,,,,,,,,,,,,,,,,,,,,,,,,,,,,,,,,,,,,,,,,,,,
,,,,,SPR24_037,18,F,2024-04-11_10h28.35.257,jersey_experiment_5_v0,2023.2.2,Win32,85.47008547,,,,,,,,,,,,,,,,127.5014,128.5494,128.5494,134.0508,return,2.0022,,22.78645833,0,3,3,27,1,FBP-YG-19.png,0.4,1.2,28,0.25,,,,,,,,,,,,,,,,,,,,,,,,,,,,,,,,,,,,,,,,,,,,,
,,,,,SPR24_037,18,F,2024-04-11_10h28.35.257,jersey_experiment_5_v0,2023.2.2,Win32,85.47008547,,,,,,,,,,,,,,,,134.051,135.0978,135.0979,140.0628,return,1.4284,,49.86979167,0,4,4,19,1,FBP-YG-17.png,0.45,1.2,20,0.25,,,,,,,,,,,,,,,,,,,,,,,,,,,,,,,,,,,,,,,,,,,,,
,,,,,SPR24_037,18,F,2024-04-11_10h28.35.257,jersey_experiment_5_v0,2023.2.2,Win32,85.47008547,,,,,,,,,,,,,,,,140.063,141.1098,141.1099,145.0041,return,1.4071,,74.609375,0,5,5,53,1,FBP-PT-18.png,0.43,1.2,54,0.25,,,,,,,,,,,,,,,,,,,,,,,,,,,,,,,,,,,,,,,,,,,,,
,,,,,SPR24_037,18,F,2024-04-11_10h28.35.257,jersey_experiment_5_v0,2023.2.2,Win32,85.47008547,,,,,,,,,,,,,,,,145.0044,146.3015,146.3015,152.3219,return,2.6826,,25.78125,0,6,6,7,1,FBP-OG-81.png,0.4,1.2,8,0.5,,,,,,,,,,,,,,,,,,,,,,,,,,,,,,,,,,,,,,,,,,,,,
,,,,,SPR24_037,18,F,2024-04-11_10h28.35.257,jersey_experiment_5_v0,2023.2.2,Win32,85.47008547,,,,,,,,,,,,,,,,152.3262,153.6194,153.6195,159.5624,return,2.7431,,16.92708333,0,7,7,5,1,FBP-OG-81.png,0.35,1.2,6,0.5,,,,,,,,,,,,,,,,,,,,,,,,,,,,,,,,,,,,,,,,,,,,,
,,,,,SPR24_037,18,F,2024-04-11_10h28.35.257,jersey_experiment_5_v0,2023.2.2,Win32,85.47008547,,,,,,,,,,,,,,,,159.5626,160.6047,160.6048,167.0553,return,2.2931,,60.28645833,0,8,8,17,1,FBP-YG-17.png,0.4,1.2,18,0.25,,,,,,,,,,,,,,,,,,,,,,,,,,,,,,,,,,,,,,,,,,,,,
,,,,,SPR24_037,18,F,2024-04-11_10h28.35.257,jersey_experiment_5_v0,2023.2.2,Win32,85.47008547,,,,,,,,,,,,,,,,167.0556,168.3578,168.3579,173.4874,return,2.5453,,25.26041667,0,9,9,6,1,FBP-OG-81.png,0.37,1.2,7,0.5,,,,,,,,,,,,,,,,,,,,,,,,,,,,,,,,,,,,,,,,,,,,,
,,,,,SPR24_037,18,F,2024-04-11_10h28.35.257,jersey_experiment_5_v0,2023.2.2,Win32,85.47008547,,,,,,,,,,,,,,,,173.4875,174.5346,174.5346,180.6054,return,2.1592,,37.23958333,0,10,10,21,1,FBP-YG-18.png,0.37,1.2,22,0.25,,,,,,,,,,,,,,,,,,,,,,,,,,,,,,,,,,,,,,,,,,,,,
,,,,,SPR24_037,18,F,2024-04-11_10h28.35.257,jersey_experiment_5_v0,2023.2.2,Win32,85.47008547,,,,,,,,,,,,,,,,180.6056,181.9025,181.9025,195.0459,return,10.5547,,75.26041667,0,11,11,13,1,FBP-OG-91.png,0.43,1.2,14,0.5,,,,,,,,,,,,,,,,,,,,,,,,,,,,,,,,,,,,,,,,,,,,,
,,,,,SPR24_037,18,F,2024-04-11_10h28.35.257,jersey_experiment_5_v0,2023.2.2,Win32,85.47008547,,,,,,,,,,,,,,,,195.0505,196.3471,196.3471,200.8344,return,1.4119,,36.97916667,0,12,12,31,1,FBP-RB-17.png,0.37,1.2,32,0.5,,,,,,,,,,,,,,,,,,,,,,,,,,,,,,,,,,,,,,,,,,,,,
,,,,,SPR24_037,18,F,2024-04-11_10h28.35.257,jersey_experiment_5_v0,2023.2.2,Win32,85.47008547,,,,,,,,,,,,,,,,200.8346,202.1355,202.1356,207.6769,return,1.8655,,85.546875,0,13,13,43,1,FBP-RB-19.png,0.43,1.2,44,0.5,,,,,,,,,,,,,,,,,,,,,,,,,,,,,,,,,,,,,,,,,,,,,
,,,,,SPR24_037,18,F,2024-04-11_10h28.35.257,jersey_experiment_5_v0,2023.2.2,Win32,85.47008547,,,,,,,,,,,,,,,,207.6772,208.7239,208.7239,213.7711,return,2.0185,,39.19270833,0,14,14,51,1,FBP-PT-18.png,0.37,1.2,52,0.25,,,,,,,,,,,,,,,,,,,,,,,,,,,,,,,,,,,,,,,,,,,,,
,,,,,SPR24_037,18,F,2024-04-11_10h28.35.257,jersey_experiment_5_v0,2023.2.2,Win32,85.47008547,,,,,,,,,,,,,,,,213.7712,214.8184,214.8185,219.1645,return,1.7547,,72.52604167,0,15,15,18,1,FBP-YG-17.png,0.43,1.2,19,0.25,,,,,,,,,,,,,,,,,,,,,,,,,,,,,,,,,,,,,,,,,,,,,
,,,,,SPR24_037,18,F,2024-04-11_10h28.35.257,jersey_experiment_5_v0,2023.2.2,Win32,85.47008547,,,,,,,,,,,,,,,,219.1647,220.4656,220.4657,224.4351,return,1.9663,,85.41666667,0,16,16,34,1,FBP-RB-17.png,0.45,1.2,35,0.5,,,,,,,,,,,,,,,,,,,,,,,,,,,,,,,,,,,,,,,,,,,,,
,,,,,SPR24_037,18,F,2024-04-11_10h28.35.257,jersey_experiment_5_v0,2023.2.2,Win32,85.47008547,,,,,,,,,,,,,,,,224.4353,225.4776,225.4776,228.9296,return,1.0592,,50.26041667,0,17,17,22,1,FBP-YG-18.png,0.4,1.2,23,0.25,,,,,,,,,,,,,,,,,,,,,,,,,,,,,,,,,,,,,,,,,,,,,
,,,,,SPR24_037,18,F,2024-04-11_10h28.35.257,jersey_experiment_5_v0,2023.2.2,Win32,85.47008547,,,,,,,,,,,,,,,,228.9298,230.2339,230.234,233.5367,return,1.5087,,74.73958333,0,18,18,33,1,FBP-RB-17.png,0.43,1.2,34,0.5,,,,,,,,,,,,,,,,,,,,,,,,,,,,,,,,,,,,,,,,,,,,,
,,,,,SPR24_037,18,F,2024-04-11_10h28.35.257,jersey_experiment_5_v0,2023.2.2,Win32,85.47008547,,,,,,,,,,,,,,,,233.5368,234.8308,234.8309,240.5251,return,2.3354,,37.23958333,0,19,19,42,1,FBP-RB-19.png,0.4,1.2,43,0.5,,,,,,,,,,,,,,,,,,,,,,,,,,,,,,,,,,,,,,,,,,,,,
,,,,,SPR24_037,18,F,2024-04-11_10h28.35.257,jersey_experiment_5_v0,2023.2.2,Win32,85.47008547,,,,,,,,,,,,,,,,240.5253,241.8193,241.8193,245.443,return,1.2577,,81.38020833,0,20,20,4,1,FBP-OG-71.png,0.45,1.2,5,0.5,,,,,,,,,,,,,,,,,,,,,,,,,,,,,,,,,,,,,,,,,,,,,
,,,,,SPR24_037,18,F,2024-04-11_10h28.35.257,jersey_experiment_5_v0,2023.2.2,Win32,85.47008547,,,,,,,,,,,,,,,,245.4431,246.4934,246.4934,249.9489,return,1.1706,,75,0,21,21,58,1,FBP-PT-19.png,0.43,1.2,59,0.25,,,,,,,,,,,,,,,,,,,,,,,,,,,,,,,,,,,,,,,,,,,,,
,,,,,SPR24_037,18,F,2024-04-11_10h28.35.257,jersey_experiment_5_v0,2023.2.2,Win32,85.47008547,,,,,,,,,,,,,,,,249.9492,251.2432,251.2432,254.8599,return,1.3072,,25,0,22,22,35,1,FBP-RB-18.png,0.35,1.2,36,0.5,,,,,,,,,,,,,,,,,,,,,,,,,,,,,,,,,,,,,,,,,,,,,
,,,,,SPR24_037,18,F,2024-04-11_10h28.35.257,jersey_experiment_5_v0,2023.2.2,Win32,85.47008547,,,,,,,,,,,,,,,,254.8601,256.1611,256.1611,260.4788,return,2.2972,,74.609375,0,23,23,39,1,FBP-RB-18.png,0.45,1.2,40,0.5,,,,,,,,,,,,,,,,,,,,,,,,,,,,,,,,,,,,,,,,,,,,,
,,,,,SPR24_037,18,F,2024-04-11_10h28.35.257,jersey_experiment_5_v0,2023.2.2,Win32,85.47008547,,,,,,,,,,,,,,,,260.4791,261.7729,261.773,270.0368,return,1.3781,,36.97916667,0,24,24,2,1,FBP-OG-71.png,0.4,1.2,3,0.5,,,,,,,,,,,,,,,,,,,,,,,,,,,,,,,,,,,,,,,,,,,,,
,,,,,SPR24_037,18,F,2024-04-11_10h28.35.257,jersey_experiment_5_v0,2023.2.2,Win32,85.47008547,,,,,,,,,,,,,,,,270.0371,271.3381,271.3381,274.9616,return,1.1442,,61.58854167,0,25,25,12,1,FBP-OG-91.png,0.4,1.2,13,0.5,,,,,,,,,,,,,,,,,,,,,,,,,,,,,,,,,,,,,,,,,,,,,
,,,,,SPR24_037,18,F,2024-04-11_10h28.35.257,jersey_experiment_5_v0,2023.2.2,Win32,85.47008547,,,,,,,,,,,,,,,,274.9618,276.0087,276.0088,279.0962,return,1.002,,25,0,26,26,20,1,FBP-YG-18.png,0.35,1.2,21,0.25,,,,,,,,,,,,,,,,,,,,,,,,,,,,,,,,,,,,,,,,,,,,,
,,,,,SPR24_037,18,F,2024-04-11_10h28.35.257,jersey_experiment_5_v0,2023.2.2,Win32,85.47008547,,,,,,,,,,,,,,,,279.0963,280.1383,280.1383,283.6008,return,0.9182,,61.97916667,0,27,27,26,1,FBP-YG-19.png,0.37,1.2,27,0.25,,,,,,,,,,,,,,,,,,,,,,,,,,,,,,,,,,,,,,,,,,,,,
,,,,,SPR24_037,18,F,2024-04-11_10h28.35.257,jersey_experiment_5_v0,2023.2.2,Win32,85.47008547,,,,,,,,,,,,,,,,283.601,284.6492,284.6492,288.1739,return,1.1111,,36.71875,0,28,28,56,1,FBP-PT-19.png,0.37,1.2,57,0.25,,,,,,,,,,,,,,,,,,,,,,,,,,,,,,,,,,,,,,,,,,,,,
,,,,,SPR24_037,18,F,2024-04-11_10h28.35.257,jersey_experiment_5_v0,2023.2.2,Win32,85.47008547,,,,,,,,,,,,,,,,288.1741,289.2243,289.2243,292.8916,return,1.5123,,75,0,29,29,23,1,FBP-YG-18.png,0.43,1.2,24,0.25,,,,,,,,,,,,,,,,,,,,,,,,,,,,,,,,,,,,,,,,,,,,,
,,,,,SPR24_037,18,F,2024-04-11_10h28.35.257,jersey_experiment_5_v0,2023.2.2,Win32,85.47008547,,,,,,,,,,,,,,,,292.8918,293.9388,293.9388,298.3673,return,1.8723,,22.265625,0,30,30,46,1,FBP-PT-17.png,0.37,1.2,47,0.25,,,,,,,,,,,,,,,,,,,,,,,,,,,,,,,,,,,,,,,,,,,,,
,,,,,SPR24_037,18,F,2024-04-11_10h28.35.257,jersey_experiment_5_v0,2023.2.2,Win32,85.47008547,,,,,,,,,,,,,,,,298.3674,299.4096,299.4097,305.1627,return,1.5615,,25,0,31,31,45,1,FBP-PT-17.png,0.35,1.2,46,0.25,,,,,,,,,,,,,,,,,,,,,,,,,,,,,,,,,,,,,,,,,,,,,
,,,,,SPR24_037,18,F,2024-04-11_10h28.35.257,jersey_experiment_5_v0,2023.2.2,Win32,85.47008547,,,,,,,,,,,,,,,,305.1629,306.4615,306.4615,309.4032,return,0.9547,,74.86979167,0,32,32,14,1,FBP-OG-91.png,0.45,1.2,15,0.5,,,,,,,,,,,,,,,,,,,,,,,,,,,,,,,,,,,,,,,,,,,,,
,,,,,SPR24_037,18,F,2024-04-11_10h28.35.257,jersey_experiment_5_v0,2023.2.2,Win32,85.47008547,,,,,,,,,,,,,,,,309.4033,310.4453,310.4453,313.4267,return,1.0018,,83.59375,0,33,33,54,1,FBP-PT-18.png,0.45,1.2,55,0.25,,,,,,,,,,,,,,,,,,,,,,,,,,,,,,,,,,,,,,,,,,,,,
,,,,,SPR24_037,18,F,2024-04-11_10h28.35.257,jersey_experiment_5_v0,2023.2.2,Win32,85.47008547,,,,,,,,,,,,,,,,313.4269,314.7205,314.7206,318.7915,return,1.1427,,50.26041667,0,34,34,11,1,FBP-OG-91.png,0.37,1.2,12,0.5,,,,,,,,,,,,,,,,,,,,,,,,,,,,,,,,,,,,,,,,,,,,,
,,,,,SPR24_037,18,F,2024-04-11_10h28.35.257,jersey_experiment_5_v0,2023.2.2,Win32,85.47008547,,,,,,,,,,,,,,,,318.7917,319.8374,319.8374,323.2458,return,1.3346,,86.45833333,0,35,35,29,1,FBP-YG-19.png,0.45,1.2,30,0.25,,,,,,,,,,,,,,,,,,,,,,,,,,,,,,,,,,,,,,,,,,,,,
,,,,,SPR24_037,18,F,2024-04-11_10h28.35.257,jersey_experiment_5_v0,2023.2.2,Win32,85.47008547,,,,,,,,,,,,,,,,323.246,324.5432,324.5432,331.599,return,1.6499,,25.390625,0,36,36,0,1,FBP-OG-71.png,0.35,1.2,1,0.5,,,,,,,,,,,,,,,,,,,,,,,,,,,,,,,,,,,,,,,,,,,,,
,,,,,SPR24_037,18,F,2024-04-11_10h28.35.257,jersey_experiment_5_v0,2023.2.2,Win32,85.47008547,,,,,,,,,,,,,,,,331.5991,332.8966,332.8967,340.0345,return,1.2821,,48.828125,0,37,37,41,1,FBP-RB-19.png,0.37,1.2,42,0.5,,,,,,,,,,,,,,,,,,,,,,,,,,,,,,,,,,,,,,,,,,,,,
,,,,,SPR24_037,18,F,2024-04-11_10h28.35.257,jersey_experiment_5_v0,2023.2.2,Win32,85.47008547,,,,,,,,,,,,,,,,340.0348,341.0817,341.0817,344.9574,return,0.9313,,59.50520833,0,38,38,16,1,FBP-YG-17.png,0.37,1.2,17,0.25,,,,,,,,,,,,,,,,,,,,,,,,,,,,,,,,,,,,,,,,,,,,,
,,,,,SPR24_037,18,F,2024-04-11_10h28.35.257,jersey_experiment_5_v0,2023.2.2,Win32,85.47008547,,,,,,,,,,,,,,,,344.9575,346.2583,346.2583,350.1443,return,1.4929,,76.171875,0,39,39,8,1,FBP-OG-81.png,0.43,1.2,9,0.5,,,,,,,,,,,,,,,,,,,,,,,,,,,,,,,,,,,,,,,,,,,,,
,,,,,SPR24_037,18,F,2024-04-11_10h28.35.257,jersey_experiment_5_v0,2023.2.2,Win32,85.47008547,,,,,,,,,,,,,,,,350.1446,351.1878,351.1878,357.8984,return,2.5778,,28.515625,0,40,40,25,1,FBP-YG-19.png,0.35,1.2,26,0.25,,,,,,,,,,,,,,,,,,,,,,,,,,,,,,,,,,,,,,,,,,,,,
,,,,,SPR24_037,18,F,2024-04-11_10h28.35.257,jersey_experiment_5_v0,2023.2.2,Win32,85.47008547,,,,,,,,,,,,,,,,357.9026,359.1999,359.2,364.3178,return,1.6996,,49.21875,0,41,41,40,1,FBP-RB-19.png,0.35,1.2,41,0.5,,,,,,,,,,,,,,,,,,,,,,,,,,,,,,,,,,,,,,,,,,,,,
,,,,,SPR24_037,18,F,2024-04-11_10h28.35.257,jersey_experiment_5_v0,2023.2.2,Win32,85.47008547,,,,,,,,,,,,,,,,364.3181,365.365,365.365,369.476,return,1.9431,,88.15104167,0,42,42,59,1,FBP-PT-19.png,0.45,1.2,60,0.25,,,,,,,,,,,,,,,,,,,,,,,,,,,,,,,,,,,,,,,,,,,,,
,,,,,SPR24_037,18,F,2024-04-11_10h28.35.257,jersey_experiment_5_v0,2023.2.2,Win32,85.47008547,,,,,,,,,,,,,,,,369.4763,370.7769,370.7769,373.3348,return,1.0017,,74.86979167,0,43,43,3,1,FBP-OG-71.png,0.43,1.2,4,0.5,,,,,,,,,,,,,,,,,,,,,,,,,,,,,,,,,,,,,,,,,,,,,
,,,,,SPR24_037,18,F,2024-04-11_10h28.35.257,jersey_experiment_5_v0,2023.2.2,Win32,85.47008547,,,,,,,,,,,,,,,,373.335,374.6285,374.6285,377.9653,return,1.1927,,38.41145833,0,44,44,1,1,FBP-OG-71.png,0.37,1.2,2,0.5,,,,,,,,,,,,,,,,,,,,,,,,,,,,,,,,,,,,,,,,,,,,,
,,,,,SPR24_037,18,F,2024-04-11_10h28.35.257,jersey_experiment_5_v0,2023.2.2,Win32,85.47008547,,,,,,,,,,,,,,,,377.9655,379.0123,379.0123,382.2361,return,0.9128,,75,0,45,45,49,1,FBP-PT-17.png,0.45,1.2,50,0.25,,,,,,,,,,,,,,,,,,,,,,,,,,,,,,,,,,,,,,,,,,,,,
,,,,,SPR24_037,18,F,2024-04-11_10h28.35.257,jersey_experiment_5_v0,2023.2.2,Win32,85.47008547,,,,,,,,,,,,,,,,382.2363,383.5338,383.5338,387.9702,return,0.8367,,51.69270833,0,46,46,32,1,FBP-RB-17.png,0.4,1.2,33,0.5,,,,,,,,,,,,,,,,,,,,,,,,,,,,,,,,,,,,,,,,,,,,,
,,,,,SPR24_037,18,F,2024-04-11_10h28.35.257,jersey_experiment_5_v0,2023.2.2,Win32,85.47008547,,,,,,,,,,,,,,,,387.9703,389.2645,389.2645,391.7457,return,1.1064,,35.546875,0,47,47,30,1,FBP-RB-17.png,0.35,1.2,31,0.5,,,,,,,,,,,,,,,,,,,,,,,,,,,,,,,,,,,,,,,,,,,,,
,,,,,SPR24_037,18,F,2024-04-11_10h28.35.257,jersey_experiment_5_v0,2023.2.2,Win32,85.47008547,,,,,,,,,,,,,,,,391.746,392.7894,392.7895,395.6413,return,2.037,,80.46875,0,48,48,24,1,FBP-YG-18.png,0.45,1.2,25,0.25,,,,,,,,,,,,,,,,,,,,,,,,,,,,,,,,,,,,,,,,,,,,,
,,,,,SPR24_037,18,F,2024-04-11_10h28.35.257,jersey_experiment_5_v0,2023.2.2,Win32,85.47008547,,,,,,,,,,,,,,,,395.6414,396.6867,396.6867,399.524,return,1.2373,,66.53645833,0,49,49,52,1,FBP-PT-18.png,0.4,1.2,53,0.25,,,,,,,,,,,,,,,,,,,,,,,,,,,,,,,,,,,,,,,,,,,,,
,,,,,SPR24_037,18,F,2024-04-11_10h28.35.257,jersey_experiment_5_v0,2023.2.2,Win32,85.47008547,,,,,,,,,,,,,,,,399.5243,400.5661,400.5661,403.2418,return,0.9418,,51.69270833,0,50,50,47,1,FBP-PT-17.png,0.4,1.2,48,0.25,,,,,,,,,,,,,,,,,,,,,,,,,,,,,,,,,,,,,,,,,,,,,
,,,,,SPR24_037,18,F,2024-04-11_10h28.35.257,jersey_experiment_5_v0,2023.2.2,Win32,85.47008547,,,,,,,,,,,,,,,,403.242,404.5461,404.5461,407.5005,return,1.4354,,25.52083333,0,51,51,10,1,FBP-OG-91.png,0.35,1.2,11,0.5,,,,,,,,,,,,,,,,,,,,,,,,,,,,,,,,,,,,,,,,,,,,,
,,,,,SPR24_037,18,F,2024-04-11_10h28.35.257,jersey_experiment_5_v0,2023.2.2,Win32,85.47008547,,,,,,,,,,,,,,,,407.5007,408.5463,408.5463,410.9311,return,1.1296,,25.65104167,0,52,52,55,1,FBP-PT-19.png,0.35,1.2,56,0.25,,,,,,,,,,,,,,,,,,,,,,,,,,,,,,,,,,,,,,,,,,,,,
,,,,,SPR24_037,18,F,2024-04-11_10h28.35.257,jersey_experiment_5_v0,2023.2.2,Win32,85.47008547,,,,,,,,,,,,,,,,410.9313,412.2254,412.2254,417.3126,return,3.1664,,63.54166667,0,53,53,37,1,FBP-RB-18.png,0.4,1.2,38,0.5,,,,,,,,,,,,,,,,,,,,,,,,,,,,,,,,,,,,,,,,,,,,,
,,,,,SPR24_037,18,F,2024-04-11_10h28.35.257,jersey_experiment_5_v0,2023.2.2,Win32,85.47008547,,,,,,,,,,,,,,,,417.3127,418.3584,418.3584,422.5904,return,1.3343,,83.72395833,0,54,54,48,1,FBP-PT-17.png,0.43,1.2,49,0.25,,,,,,,,,,,,,,,,,,,,,,,,,,,,,,,,,,,,,,,,,,,,,
,,,,,SPR24_037,18,F,2024-04-11_10h28.35.257,jersey_experiment_5_v0,2023.2.2,Win32,85.47008547,,,,,,,,,,,,,,,,422.5907,423.6374,423.6375,426.7199,return,0.9549,,35.9375,0,55,55,50,1,FBP-PT-18.png,0.35,1.2,51,0.25,,,,,,,,,,,,,,,,,,,,,,,,,,,,,,,,,,,,,,,,,,,,,
,,,,,SPR24_037,18,F,2024-04-11_10h28.35.257,jersey_experiment_5_v0,2023.2.2,Win32,85.47008547,,,,,,,,,,,,,,,,426.7202,428.0182,428.0183,432.3826,return,0.8004,,49.47916667,0,56,56,36,1,FBP-RB-18.png,0.37,1.2,37,0.5,,,,,,,,,,,,,,,,,,,,,,,,,,,,,,,,,,,,,,,,,,,,,
,,,,,SPR24_037,18,F,2024-04-11_10h28.35.257,jersey_experiment_5_v0,2023.2.2,Win32,85.47008547,,,,,,,,,,,,,,,,432.3828,433.4306,433.4307,437.5487,return,0.8366,,74.609375,0,57,57,28,1,FBP-YG-19.png,0.43,1.2,29,0.25,,,,,,,,,,,,,,,,,,,,,,,,,,,,,,,,,,,,,,,,,,,,,
,,,,,SPR24_037,18,F,2024-04-11_10h28.35.257,jersey_experiment_5_v0,2023.2.2,Win32,85.47008547,,,,,,,,,,,,,,,,437.5488,438.591,438.5911,442.7323,return,1.8539,,50.13020833,0,58,58,15,1,FBP-YG-17.png,0.35,1.2,16,0.25,,,,,,,,,,,,,,,,,,,,,,,,,,,,,,,,,,,,,,,,,,,,,
,,,,,SPR24_037,18,F,2024-04-11_10h28.35.257,jersey_experiment_5_v0,2023.2.2,Win32,85.47008547,,,,,,,,,,,,,,,,442.7325,443.7793,443.7793,447.2434,return,0.9549,,68.88020833,0,59,59,57,1,FBP-PT-19.png,0.4,1.2,58,0.25,,,,,,,,,,,,,,,,,,,,,,,,,,,,,,,,,,,,,,,,,,,,,
,,,,,SPR24_037,18,F,2024-04-11_10h28.35.257,jersey_experiment_5_v0,2023.2.2,Win32,85.47008547,,,,,,,,,,,,,,,,447.2453,448.5477,448.5477,450.9376,return,0.7769,,77.47395833,,,,,,FBP-OG-18.png,0.4,1.2,8,0.5,0,0,0,7,1,,,,,,,,,,,,,,,,,,,,,,,,,,,,,,,,,,,,,,,,
,,,,,SPR24_037,18,F,2024-04-11_10h28.35.257,jersey_experiment_5_v0,2023.2.2,Win32,85.47008547,,,,,,,,,,,,,,,,450.9377,452.2317,452.2317,455.2303,return,1.2475,,53.77604167,,,,,,FBP-OG-17.png,0.37,1.2,2,0.5,0,1,1,1,1,,,,,,,,,,,,,,,,,,,,,,,,,,,,,,,,,,,,,,,,
,,,,,SPR24_037,18,F,2024-04-11_10h28.35.257,jersey_experiment_5_v0,2023.2.2,Win32,85.47008547,,,,,,,,,,,,,,,,455.2304,456.2739,456.274,459.3565,return,1.0185,,96.09375,,,,,,FBP-PT-91.png,0.45,1.2,60,0.25,0,2,2,59,1,,,,,,,,,,,,,,,,,,,,,,,,,,,,,,,,,,,,,,,,
,,,,,SPR24_037,18,F,2024-04-11_10h28.35.257,jersey_experiment_5_v0,2023.2.2,Win32,85.47008547,,,,,,,,,,,,,,,,459.3566,460.407,460.407,462.7733,return,0.9312,,97.265625,,,,,,FBP-YG-81.png,0.45,1.2,25,0.25,0,3,3,24,1,,,,,,,,,,,,,,,,,,,,,,,,,,,,,,,,,,,,,,,,
,,,,,SPR24_037,18,F,2024-04-11_10h28.35.257,jersey_experiment_5_v0,2023.2.2,Win32,85.47008547,,,,,,,,,,,,,,,,462.7735,463.8154,463.8154,466.7029,return,0.8371,,49.47916667,,,,,,FBP-PT-81.png,0.37,1.2,52,0.25,0,4,4,51,1,,,,,,,,,,,,,,,,,,,,,,,,,,,,,,,,,,,,,,,,
,,,,,SPR24_037,18,F,2024-04-11_10h28.35.257,jersey_experiment_5_v0,2023.2.2,Win32,85.47008547,,,,,,,,,,,,,,,,466.703,467.7449,467.7449,470.9852,return,0.7898,,81.25,,,,,,FBP-YG-71.png,0.43,1.2,19,0.25,0,5,5,18,1,,,,,,,,,,,,,,,,,,,,,,,,,,,,,,,,,,,,,,,,
,,,,,SPR24_037,18,F,2024-04-11_10h28.35.257,jersey_experiment_5_v0,2023.2.2,Win32,85.47008547,,,,,,,,,,,,,,,,470.9853,472.0309,472.031,474.204,return,0.8541,,84.89583333,,,,,,FBP-PT-91.png,0.43,1.2,59,0.25,0,6,6,58,1,,,,,,,,,,,,,,,,,,,,,,,,,,,,,,,,,,,,,,,,
,,,,,SPR24_037,18,F,2024-04-11_10h28.35.257,jersey_experiment_5_v0,2023.2.2,Win32,85.47008547,,,,,,,,,,,,,,,,474.2041,475.4982,475.4983,477.9805,return,0.8889,,89.71354167,,,,,,FBP-RB-81.png,0.45,1.2,40,0.5,0,7,7,39,1,,,,,,,,,,,,,,,,,,,,,,,,,,,,,,,,,,,,,,,,
,,,,,SPR24_037,18,F,2024-04-11_10h28.35.257,jersey_experiment_5_v0,2023.2.2,Win32,85.47008547,,,,,,,,,,,,,,,,477.9807,479.0276,479.0277,484.6867,return,2.4263,,28.77604167,,,,,,FBP-YG-91.png,0.35,1.2,26,0.25,0,8,8,25,1,,,,,,,,,,,,,,,,,,,,,,,,,,,,,,,,,,,,,,,,
,,,,,SPR24_037,18,F,2024-04-11_10h28.35.257,jersey_experiment_5_v0,2023.2.2,Win32,85.47008547,,,,,,,,,,,,,,,,484.687,485.9809,485.981,489.8436,return,1.7286,,66.796875,,,,,,FBP-OG-19.png,0.4,1.2,13,0.5,0,9,9,12,1,,,,,,,,,,,,,,,,,,,,,,,,,,,,,,,,,,,,,,,,
,,,,,SPR24_037,18,F,2024-04-11_10h28.35.257,jersey_experiment_5_v0,2023.2.2,Win32,85.47008547,,,,,,,,,,,,,,,,489.8438,490.892,490.892,494.7038,return,0.7896,,70.57291667,,,,,,FBP-YG-91.png,0.45,1.2,30,0.25,0,10,10,29,1,,,,,,,,,,,,,,,,,,,,,,,,,,,,,,,,,,,,,,,,
,,,,,SPR24_037,18,F,2024-04-11_10h28.35.257,jersey_experiment_5_v0,2023.2.2,Win32,85.47008547,,,,,,,,,,,,,,,,494.704,496.0049,496.0049,498.6096,return,1.0013,,56.25,,,,,,FBP-RB-71.png,0.37,1.2,32,0.5,0,11,11,31,1,,,,,,,,,,,,,,,,,,,,,,,,,,,,,,,,,,,,,,,,
,,,,,SPR24_037,18,F,2024-04-11_10h28.35.257,jersey_experiment_5_v0,2023.2.2,Win32,85.47008547,,,,,,,,,,,,,,,,498.6099,499.9141,499.9141,502.0924,return,0.9313,,85.67708333,,,,,,FBP-RB-71.png,0.45,1.2,35,0.5,0,12,12,34,1,,,,,,,,,,,,,,,,,,,,,,,,,,,,,,,,,,,,,,,,
,,,,,SPR24_037,18,F,2024-04-11_10h28.35.257,jersey_experiment_5_v0,2023.2.2,Win32,85.47008547,,,,,,,,,,,,,,,,502.0926,503.1345,503.1345,505.41,return,0.7061,,94.27083333,,,,,,FBP-PT-81.png,0.45,1.2,55,0.25,0,13,13,54,1,,,,,,,,,,,,,,,,,,,,,,,,,,,,,,,,,,,,,,,,
,,,,,SPR24_037,18,F,2024-04-11_10h28.35.257,jersey_experiment_5_v0,2023.2.2,Win32,85.47008547,,,,,,,,,,,,,,,,505.4102,506.4523,506.4523,509.562,return,0.8006,,73.4375,,,,,,FBP-YG-91.png,0.37,1.2,27,0.25,0,14,14,26,1,,,,,,,,,,,,,,,,,,,,,,,,,,,,,,,,,,,,,,,,
,,,,,SPR24_037,18,F,2024-04-11_10h28.35.257,jersey_experiment_5_v0,2023.2.2,Win32,85.47008547,,,,,,,,,,,,,,,,509.5621,510.6053,510.6053,514.2678,return,0.7401,,78.64583333,,,,,,FBP-YG-71.png,0.4,1.2,18,0.25,0,15,15,17,1,,,,,,,,,,,,,,,,,,,,,,,,,,,,,,,,,,,,,,,,
,,,,,SPR24_037,18,F,2024-04-11_10h28.35.257,jersey_experiment_5_v0,2023.2.2,Win32,85.47008547,,,,,,,,,,,,,,,,514.2679,515.3114,515.3114,518.1503,return,0.9887,,48.69791667,,,,,,FBP-YG-71.png,0.35,1.2,16,0.25,0,16,16,15,1,,,,,,,,,,,,,,,,,,,,,,,,,,,,,,,,,,,,,,,,
,,,,,SPR24_037,18,F,2024-04-11_10h28.35.257,jersey_experiment_5_v0,2023.2.2,Win32,85.47008547,,,,,,,,,,,,,,,,518.1505,519.1939,519.1939,522.0175,return,0.7178,,75,,,,,,FBP-PT-81.png,0.43,1.2,54,0.25,0,17,17,53,1,,,,,,,,,,,,,,,,,,,,,,,,,,,,,,,,,,,,,,,,
,,,,,SPR24_037,18,F,2024-04-11_10h28.35.257,jersey_experiment_5_v0,2023.2.2,Win32,85.47008547,,,,,,,,,,,,,,,,522.0178,523.3117,523.3117,525.7978,return,0.9183,,55.859375,,,,,,FBP-RB-91.png,0.37,1.2,42,0.5,0,18,18,41,1,,,,,,,,,,,,,,,,,,,,,,,,,,,,,,,,,,,,,,,,
,,,,,SPR24_037,18,F,2024-04-11_10h28.35.257,jersey_experiment_5_v0,2023.2.2,Win32,85.47008547,,,,,,,,,,,,,,,,525.798,527.1045,527.1046,530.3627,return,1.0227,,69.40104167,,,,,,FBP-OG-17.png,0.4,1.2,3,0.5,0,19,19,2,1,,,,,,,,,,,,,,,,,,,,,,,,,,,,,,,,,,,,,,,,
,,,,,SPR24_037,18,F,2024-04-11_10h28.35.257,jersey_experiment_5_v0,2023.2.2,Win32,85.47008547,,,,,,,,,,,,,,,,530.3629,531.6565,531.6565,534.0934,return,0.8607,,89.0625,,,,,,FBP-OG-18.png,0.43,1.2,9,0.5,0,20,20,8,1,,,,,,,,,,,,,,,,,,,,,,,,,,,,,,,,,,,,,,,,
,,,,,SPR24_037,18,F,2024-04-11_10h28.35.257,jersey_experiment_5_v0,2023.2.2,Win32,85.47008547,,,,,,,,,,,,,,,,534.0935,535.3978,535.3978,538.9749,return,2.0348,,94.53125,,,,,,FBP-RB-91.png,0.43,1.2,44,0.5,0,21,21,43,1,,,,,,,,,,,,,,,,,,,,,,,,,,,,,,,,,,,,,,,,
,,,,,SPR24_037,18,F,2024-04-11_10h28.35.257,jersey_experiment_5_v0,2023.2.2,Win32,85.47008547,,,,,,,,,,,,,,,,538.9751,540.0181,540.0181,542.7291,return,0.8709,,60.80729167,,,,,,FBP-YG-71.png,0.37,1.2,17,0.25,0,22,22,16,1,,,,,,,,,,,,,,,,,,,,,,,,,,,,,,,,,,,,,,,,
,,,,,SPR24_037,18,F,2024-04-11_10h28.35.257,jersey_experiment_5_v0,2023.2.2,Win32,85.47008547,,,,,,,,,,,,,,,,542.7293,543.7712,543.7713,546.3297,return,0.72,,74.08854167,,,,,,FBP-PT-71.png,0.45,1.2,50,0.25,0,23,23,49,1,,,,,,,,,,,,,,,,,,,,,,,,,,,,,,,,,,,,,,,,
,,,,,SPR24_037,18,F,2024-04-11_10h28.35.257,jersey_experiment_5_v0,2023.2.2,Win32,85.47008547,,,,,,,,,,,,,,,,546.3298,547.3745,547.3745,550.1009,return,0.9179,,88.15104167,,,,,,FBP-YG-71.png,0.45,1.2,20,0.25,0,24,24,19,1,,,,,,,,,,,,,,,,,,,,,,,,,,,,,,,,,,,,,,,,
,,,,,SPR24_037,18,F,2024-04-11_10h28.35.257,jersey_experiment_5_v0,2023.2.2,Win32,85.47008547,,,,,,,,,,,,,,,,550.1011,551.3951,551.3951,554.3834,return,0.7548,,88.15104167,,,,,,FBP-OG-17.png,0.45,1.2,5,0.5,0,25,25,4,1,,,,,,,,,,,,,,,,,,,,,,,,,,,,,,,,,,,,,,,,
,,,,,SPR24_037,18,F,2024-04-11_10h28.35.257,jersey_experiment_5_v0,2023.2.2,Win32,85.47008547,,,,,,,,,,,,,,,,554.3836,555.6776,555.6776,558.5651,return,0.672,,61.84895833,,,,,,FBP-RB-71.png,0.4,1.2,33,0.5,0,26,26,32,1,,,,,,,,,,,,,,,,,,,,,,,,,,,,,,,,,,,,,,,,
,,,,,SPR24_037,18,F,2024-04-11_10h28.35.257,jersey_experiment_5_v0,2023.2.2,Win32,85.47008547,,,,,,,,,,,,,,,,558.5652,559.8692,559.8693,564.8778,return,0.6523,,43.22916667,,,,,,FBP-OG-19.png,0.37,1.2,12,0.5,0,27,27,11,1,,,,,,,,,,,,,,,,,,,,,,,,,,,,,,,,,,,,,,,,
,,,,,SPR24_037,18,F,2024-04-11_10h28.35.257,jersey_experiment_5_v0,2023.2.2,Win32,85.47008547,,,,,,,,,,,,,,,,564.8781,566.1756,566.1756,568.7368,return,0.8151,,75.13020833,,,,,,FBP-RB-91.png,0.45,1.2,45,0.5,0,28,28,44,1,,,,,,,,,,,,,,,,,,,,,,,,,,,,,,,,,,,,,,,,
,,,,,SPR24_037,18,F,2024-04-11_10h28.35.257,jersey_experiment_5_v0,2023.2.2,Win32,85.47008547,,,,,,,,,,,,,,,,568.737,569.7839,569.7839,572.7839,return,1.097,,39.19270833,,,,,,FBP-PT-71.png,0.35,1.2,46,0.25,0,29,29,45,1,,,,,,,,,,,,,,,,,,,,,,,,,,,,,,,,,,,,,,,,
,,,,,SPR24_037,18,F,2024-04-11_10h28.35.257,jersey_experiment_5_v0,2023.2.2,Win32,85.47008547,,,,,,,,,,,,,,,,572.7843,573.8355,573.8355,576.6547,return,0.8382,,68.88020833,,,,,,FBP-YG-91.png,0.43,1.2,29,0.25,0,30,30,28,1,,,,,,,,,,,,,,,,,,,,,,,,,,,,,,,,,,,,,,,,
,,,,,SPR24_037,18,F,2024-04-11_10h28.35.257,jersey_experiment_5_v0,2023.2.2,Win32,85.47008547,,,,,,,,,,,,,,,,576.6549,577.9488,577.9488,580.1762,return,0.6123,,50.13020833,,,,,,FBP-OG-18.png,0.35,1.2,6,0.5,0,31,31,5,1,,,,,,,,,,,,,,,,,,,,,,,,,,,,,,,,,,,,,,,,
,,,,,SPR24_037,18,F,2024-04-11_10h28.35.257,jersey_experiment_5_v0,2023.2.2,Win32,85.47008547,,,,,,,,,,,,,,,,580.1763,581.4785,581.4785,585.9409,return,2.0814,,70.05208333,,,,,,FBP-RB-81.png,0.43,1.2,39,0.5,0,32,32,38,1,,,,,,,,,,,,,,,,,,,,,,,,,,,,,,,,,,,,,,,,
,,,,,SPR24_037,18,F,2024-04-11_10h28.35.257,jersey_experiment_5_v0,2023.2.2,Win32,85.47008547,,,,,,,,,,,,,,,,585.941,586.9845,586.9846,589.0836,return,0.719,,24.609375,,,,,,FBP-PT-91.png,0.35,1.2,56,0.25,0,33,33,55,1,,,,,,,,,,,,,,,,,,,,,,,,,,,,,,,,,,,,,,,,
,,,,,SPR24_037,18,F,2024-04-11_10h28.35.257,jersey_experiment_5_v0,2023.2.2,Win32,85.47008547,,,,,,,,,,,,,,,,589.0838,590.1257,590.1257,594.126,return,1.1226,,50.65104167,,,,,,FBP-PT-71.png,0.4,1.2,48,0.25,0,34,34,47,1,,,,,,,,,,,,,,,,,,,,,,,,,,,,,,,,,,,,,,,,
,,,,,SPR24_037,18,F,2024-04-11_10h28.35.257,jersey_experiment_5_v0,2023.2.2,Win32,85.47008547,,,,,,,,,,,,,,,,594.1262,595.1731,595.1731,598.0957,return,1.0825,,50.65104167,,,,,,FBP-YG-81.png,0.37,1.2,22,0.25,0,35,35,21,1,,,,,,,,,,,,,,,,,,,,,,,,,,,,,,,,,,,,,,,,
,,,,,SPR24_037,18,F,2024-04-11_10h28.35.257,jersey_experiment_5_v0,2023.2.2,Win32,85.47008547,,,,,,,,,,,,,,,,598.0959,599.3967,599.3968,602.1733,return,1.1469,,34.63541667,,,,,,FBP-OG-19.png,0.35,1.2,11,0.5,0,36,36,10,1,,,,,,,,,,,,,,,,,,,,,,,,,,,,,,,,,,,,,,,,
,,,,,SPR24_037,18,F,2024-04-11_10h28.35.257,jersey_experiment_5_v0,2023.2.2,Win32,85.47008547,,,,,,,,,,,,,,,,602.1735,603.4675,603.4675,606.53,return,0.8344,,63.15104167,,,,,,FBP-RB-91.png,0.4,1.2,43,0.5,0,37,37,42,1,,,,,,,,,,,,,,,,,,,,,,,,,,,,,,,,,,,,,,,,
,,,,,SPR24_037,18,F,2024-04-11_10h28.35.257,jersey_experiment_5_v0,2023.2.2,Win32,85.47008547,,,,,,,,,,,,,,,,606.5301,607.8238,607.8238,610.8325,return,1.2144,,75.65104167,,,,,,FBP-OG-19.png,0.45,1.2,15,0.5,0,38,38,14,1,,,,,,,,,,,,,,,,,,,,,,,,,,,,,,,,,,,,,,,,
,,,,,SPR24_037,18,F,2024-04-11_10h28.35.257,jersey_experiment_5_v0,2023.2.2,Win32,85.47008547,,,,,,,,,,,,,,,,610.8328,612.1266,612.1267,615.6493,return,1.1195,,24.73958333,,,,,,FBP-OG-17.png,0.35,1.2,1,0.5,0,39,39,0,1,,,,,,,,,,,,,,,,,,,,,,,,,,,,,,,,,,,,,,,,
,,,,,SPR24_037,18,F,2024-04-11_10h28.35.257,jersey_experiment_5_v0,2023.2.2,Win32,85.47008547,,,,,,,,,,,,,,,,615.6494,616.6913,616.6914,619.9151,return,1.1123,,81.90104167,,,,,,FBP-PT-71.png,0.43,1.2,49,0.25,0,40,40,48,1,,,,,,,,,,,,,,,,,,,,,,,,,,,,,,,,,,,,,,,,
,,,,,SPR24_037,18,F,2024-04-11_10h28.35.257,jersey_experiment_5_v0,2023.2.2,Win32,85.47008547,,,,,,,,,,,,,,,,619.9153,620.9622,620.9623,624.9271,return,2.3213,,75.52083333,,,,,,FBP-PT-91.png,0.4,1.2,58,0.25,0,41,41,57,1,,,,,,,,,,,,,,,,,,,,,,,,,,,,,,,,,,,,,,,,
,,,,,SPR24_037,18,F,2024-04-11_10h28.35.257,jersey_experiment_5_v0,2023.2.2,Win32,85.47008547,,,,,,,,,,,,,,,,624.9273,625.979,625.979,633.1086,return,2.7292,,30.078125,,,,,,FBP-PT-91.png,0.37,1.2,57,0.25,0,42,42,56,1,,,,,,,,,,,,,,,,,,,,,,,,,,,,,,,,,,,,,,,,
,,,,,SPR24_037,18,F,2024-04-11_10h28.35.257,jersey_experiment_5_v0,2023.2.2,Win32,85.47008547,,,,,,,,,,,,,,,,633.1087,634.4098,634.4098,637.2135,return,1.1297,,22.91666667,,,,,,FBP-RB-71.png,0.35,1.2,31,0.5,0,43,43,30,1,,,,,,,,,,,,,,,,,,,,,,,,,,,,,,,,,,,,,,,,
,,,,,SPR24_037,18,F,2024-04-11_10h28.35.257,jersey_experiment_5_v0,2023.2.2,Win32,85.47008547,,,,,,,,,,,,,,,,637.2137,638.2569,638.2569,640.8922,return,0.7691,,62.76041667,,,,,,FBP-YG-81.png,0.4,1.2,23,0.25,0,44,44,22,1,,,,,,,,,,,,,,,,,,,,,,,,,,,,,,,,,,,,,,,,
,,,,,SPR24_037,18,F,2024-04-11_10h28.35.257,jersey_experiment_5_v0,2023.2.2,Win32,85.47008547,,,,,,,,,,,,,,,,640.8925,641.9427,641.9427,645.9197,return,0.7532,,59.24479167,,,,,,FBP-YG-91.png,0.4,1.2,28,0.25,0,45,45,27,1,,,,,,,,,,,,,,,,,,,,,,,,,,,,,,,,,,,,,,,,
,,,,,SPR24_037,18,F,2024-04-11_10h28.35.257,jersey_experiment_5_v0,2023.2.2,Win32,85.47008547,,,,,,,,,,,,,,,,645.9199,647.222,647.222,649.6506,return,0.8372,,74.73958333,,,,,,FBP-RB-71.png,0.43,1.2,34,0.5,0,46,46,33,1,,,,,,,,,,,,,,,,,,,,,,,,,,,,,,,,,,,,,,,,
,,,,,SPR24_037,18,F,2024-04-11_10h28.35.257,jersey_experiment_5_v0,2023.2.2,Win32,85.47008547,,,,,,,,,,,,,,,,649.6507,650.9515,650.9515,653.3211,return,0.8132,,34.89583333,,,,,,FBP-RB-81.png,0.37,1.2,37,0.5,0,47,47,36,1,,,,,,,,,,,,,,,,,,,,,,,,,,,,,,,,,,,,,,,,
,,,,,SPR24_037,18,F,2024-04-11_10h28.35.257,jersey_experiment_5_v0,2023.2.2,Win32,85.47008547,,,,,,,,,,,,,,,,653.3212,654.3634,654.3634,656.74,return,0.7895,,74.86979167,,,,,,FBP-YG-81.png,0.43,1.2,24,0.25,0,48,48,23,1,,,,,,,,,,,,,,,,,,,,,,,,,,,,,,,,,,,,,,,,
,,,,,SPR24_037,18,F,2024-04-11_10h28.35.257,jersey_experiment_5_v0,2023.2.2,Win32,85.47008547,,,,,,,,,,,,,,,,656.7401,658.0371,658.0371,659.6509,return,0.5548,,74.73958333,,,,,,FBP-OG-19.png,0.43,1.2,14,0.5,0,49,49,13,1,,,,,,,,,,,,,,,,,,,,,,,,,,,,,,,,,,,,,,,,
,,,,,SPR24_037,18,F,2024-04-11_10h28.35.257,jersey_experiment_5_v0,2023.2.2,Win32,85.47008547,,,,,,,,,,,,,,,,659.6511,660.9554,660.9554,662.9449,return,0.6957,,85.9375,,,,,,FBP-OG-18.png,0.45,1.2,10,0.5,0,50,50,9,1,,,,,,,,,,,,,,,,,,,,,,,,,,,,,,,,,,,,,,,,
,,,,,SPR24_037,18,F,2024-04-11_10h28.35.257,jersey_experiment_5_v0,2023.2.2,Win32,85.47008547,,,,,,,,,,,,,,,,662.9451,663.9905,663.9906,667.3922,return,0.6958,,59.375,,,,,,FBP-PT-81.png,0.4,1.2,53,0.25,0,51,51,52,1,,,,,,,,,,,,,,,,,,,,,,,,,,,,,,,,,,,,,,,,
,,,,,SPR24_037,18,F,2024-04-11_10h28.35.257,jersey_experiment_5_v0,2023.2.2,Win32,85.47008547,,,,,,,,,,,,,,,,667.3924,668.4344,668.4345,670.5688,return,0.7901,,39.84375,,,,,,FBP-PT-71.png,0.37,1.2,47,0.25,0,52,52,46,1,,,,,,,,,,,,,,,,,,,,,,,,,,,,,,,,,,,,,,,,
,,,,,SPR24_037,18,F,2024-04-11_10h28.35.257,jersey_experiment_5_v0,2023.2.2,Win32,85.47008547,,,,,,,,,,,,,,,,670.569,671.8699,671.8699,674.5456,return,0.7062,,26.69270833,,,,,,FBP-RB-91.png,0.35,1.2,41,0.5,0,53,53,40,1,,,,,,,,,,,,,,,,,,,,,,,,,,,,,,,,,,,,,,,,
,,,,,SPR24_037,18,F,2024-04-11_10h28.35.257,jersey_experiment_5_v0,2023.2.2,Win32,85.47008547,,,,,,,,,,,,,,,,674.5457,675.8465,675.8466,678.5408,return,0.6176,,61.97916667,,,,,,FBP-OG-17.png,0.43,1.2,4,0.5,0,54,54,3,1,,,,,,,,,,,,,,,,,,,,,,,,,,,,,,,,,,,,,,,,
,,,,,SPR24_037,18,F,2024-04-11_10h28.35.257,jersey_experiment_5_v0,2023.2.2,Win32,85.47008547,,,,,,,,,,,,,,,,678.5409,679.5912,679.5912,682.2702,return,0.769,,24.609375,,,,,,FBP-YG-81.png,0.35,1.2,21,0.25,0,55,55,20,1,,,,,,,,,,,,,,,,,,,,,,,,,,,,,,,,,,,,,,,,
,,,,,SPR24_037,18,F,2024-04-11_10h28.35.257,jersey_experiment_5_v0,2023.2.2,Win32,85.47008547,,,,,,,,,,,,,,,,682.2704,683.5643,683.5644,686.2635,return,0.7062,,50.78125,,,,,,FBP-OG-18.png,0.37,1.2,7,0.5,0,56,56,6,1,,,,,,,,,,,,,,,,,,,,,,,,,,,,,,,,,,,,,,,,
,,,,,SPR24_037,18,F,2024-04-11_10h28.35.257,jersey_experiment_5_v0,2023.2.2,Win32,85.47008547,,,,,,,,,,,,,,,,686.2637,687.3057,687.3058,689.686,return,0.811,,35.02604167,,,,,,FBP-PT-81.png,0.35,1.2,51,0.25,0,57,57,50,1,,,,,,,,,,,,,,,,,,,,,,,,,,,,,,,,,,,,,,,,
,,,,,SPR24_037,18,F,2024-04-11_10h28.35.257,jersey_experiment_5_v0,2023.2.2,Win32,85.47008547,,,,,,,,,,,,,,,,689.6861,690.9929,690.9929,694.4589,return,0.7725,,61.19791667,,,,,,FBP-RB-81.png,0.4,1.2,38,0.5,0,58,58,37,1,,,,,,,,,,,,,,,,,,,,,,,,,,,,,,,,,,,,,,,,
,,,,,SPR24_037,18,F,2024-04-11_10h28.35.257,jersey_experiment_5_v0,2023.2.2,Win32,85.47008547,,,,,,,,,,,,,,,,694.459,695.7563,695.7564,698.4625,return,0.646,,50.78125,,,,,,FBP-RB-81.png,0.35,1.2,36,0.5,0,59,59,35,1,,,,,,,,,,,,,,,,,,,,,,,,,,,,,,,,,,,,,,,,
,,,,,SPR24_037,18,F,2024-04-11_10h28.35.257,jersey_experiment_5_v0,2023.2.2,Win32,85.47008547,,,,,,,,,,,,,,,,,,,,,,,,,,,,,,,,,,,,,,,698.4629,818.4566,,,,,,,,,,,,,,,,,,,,,,,,,,,,,,,,,,,,,,
,,,,,SPR24_037,18,F,2024-04-11_10h28.35.257,jersey_experiment_5_v0,2023.2.2,Win32,85.47008547,,,,,,,,,,,,,,,,,,,,,,,,,,,,,,,,,,,,,,,,,818.4567,823.1228,return,4.6487,,,,,,,,,,,,,,,,,,,,,,,,,,,,,,,,,,
,,,,,SPR24_037,18,F,2024-04-11_10h28.35.257,jersey_experiment_5_v0,2023.2.2,Win32,85.47008547,,,,,,,,,,,,,,,,823.1288,824.1812,824.1813,829.2096,return,0.9885,,75.26041667,,,,,,FBP-RB-17.png,0.45,1.2,35,0.25,,,,,,,,,,,,,0,0,0,34,1,,,,,,,,,,,,,,,,,,,,,,,,,,,,
,,,,,SPR24_037,18,F,2024-04-11_10h28.35.257,jersey_experiment_5_v0,2023.2.2,Win32,85.47008547,,,,,,,,,,,,,,,,829.2098,830.5108,830.5109,832.3814,return,0.6507,,83.33333333,,,,,,FBP-PT-19.png,0.45,1.2,60,0.5,,,,,,,,,,,,,0,1,1,59,1,,,,,,,,,,,,,,,,,,,,,,,,,,,,
,,,,,SPR24_037,18,F,2024-04-11_10h28.35.257,jersey_experiment_5_v0,2023.2.2,Win32,85.47008547,,,,,,,,,,,,,,,,832.3815,833.4286,833.4286,845.2441,return,9.4227,,53.38541667,,,,,,FBP-RB-19.png,0.37,1.2,42,0.25,,,,,,,,,,,,,0,2,2,41,1,,,,,,,,,,,,,,,,,,,,,,,,,,,,
,,,,,SPR24_037,18,F,2024-04-11_10h28.35.257,jersey_experiment_5_v0,2023.2.2,Win32,85.47008547,,,,,,,,,,,,,,,,845.2488,846.2997,846.2997,850.3351,return,1.5567,,45.18229167,,,,,,FBP-OG-71.png,0.43,1.2,4,0.25,,,,,,,,,,,,,0,3,3,3,1,,,,,,,,,,,,,,,,,,,,,,,,,,,,
,,,,,SPR24_037,18,F,2024-04-11_10h28.35.257,jersey_experiment_5_v0,2023.2.2,Win32,85.47008547,,,,,,,,,,,,,,,,850.3353,851.6336,851.6337,853.6293,return,0.651,,64.0625,,,,,,FBP-YG-17.png,0.37,1.2,17,0.5,,,,,,,,,,,,,0,4,4,16,1,,,,,,,,,,,,,,,,,,,,,,,,,,,,
,,,,,SPR24_037,18,F,2024-04-11_10h28.35.257,jersey_experiment_5_v0,2023.2.2,Win32,85.47008547,,,,,,,,,,,,,,,,853.6293,854.9235,854.9235,856.9519,return,0.7664,,75.65104167,,,,,,FBP-YG-17.png,0.43,1.2,19,0.5,,,,,,,,,,,,,0,5,5,18,1,,,,,,,,,,,,,,,,,,,,,,,,,,,,
,,,,,SPR24_037,18,F,2024-04-11_10h28.35.257,jersey_experiment_5_v0,2023.2.2,Win32,85.47008547,,,,,,,,,,,,,,,,856.9521,857.9941,857.9942,860.3974,return,0.9046,,42.1875,,,,,,FBP-OG-81.png,0.37,1.2,7,0.25,,,,,,,,,,,,,0,6,6,6,1,,,,,,,,,,,,,,,,,,,,,,,,,,,,
,,,,,SPR24_037,18,F,2024-04-11_10h28.35.257,jersey_experiment_5_v0,2023.2.2,Win32,85.47008547,,,,,,,,,,,,,,,,860.3975,861.4413,861.4414,865.0297,return,0.7999,,63.671875,,,,,,FBP-RB-17.png,0.4,1.2,33,0.25,,,,,,,,,,,,,0,7,7,32,1,,,,,,,,,,,,,,,,,,,,,,,,,,,,
,,,,,SPR24_037,18,F,2024-04-11_10h28.35.257,jersey_experiment_5_v0,2023.2.2,Win32,85.47008547,,,,,,,,,,,,,,,,865.03,866.3271,866.3271,868.0817,return,0.6956,,77.734375,,,,,,FBP-YG-18.png,0.45,1.2,25,0.5,,,,,,,,,,,,,0,8,8,24,1,,,,,,,,,,,,,,,,,,,,,,,,,,,,
,,,,,SPR24_037,18,F,2024-04-11_10h28.35.257,jersey_experiment_5_v0,2023.2.2,Win32,85.47008547,,,,,,,,,,,,,,,,868.0819,869.3863,869.3863,871.3124,return,0.6033,,89.19270833,,,,,,FBP-PT-18.png,0.45,1.2,55,0.5,,,,,,,,,,,,,0,9,9,54,1,,,,,,,,,,,,,,,,,,,,,,,,,,,,
,,,,,SPR24_037,18,F,2024-04-11_10h28.35.257,jersey_experiment_5_v0,2023.2.2,Win32,85.47008547,,,,,,,,,,,,,,,,871.3126,872.3594,872.3594,876.1124,return,0.9794,,87.36979167,,,,,,FBP-RB-18.png,0.43,1.2,39,0.25,,,,,,,,,,,,,0,10,10,38,1,,,,,,,,,,,,,,,,,,,,,,,,,,,,
,,,,,SPR24_037,18,F,2024-04-11_10h28.35.257,jersey_experiment_5_v0,2023.2.2,Win32,85.47008547,,,,,,,,,,,,,,,,876.1127,877.1596,877.1596,879.6302,return,0.6265,,72.65625,,,,,,FBP-RB-18.png,0.4,1.2,38,0.25,,,,,,,,,,,,,0,11,11,37,1,,,,,,,,,,,,,,,,,,,,,,,,,,,,
,,,,,SPR24_037,18,F,2024-04-11_10h28.35.257,jersey_experiment_5_v0,2023.2.2,Win32,85.47008547,,,,,,,,,,,,,,,,879.6304,880.9244,880.9244,883.2116,return,0.6487,,71.875,,,,,,FBP-PT-19.png,0.4,1.2,58,0.5,,,,,,,,,,,,,0,12,12,57,1,,,,,,,,,,,,,,,,,,,,,,,,,,,,
,,,,,SPR24_037,18,F,2024-04-11_10h28.35.257,jersey_experiment_5_v0,2023.2.2,Win32,85.47008547,,,,,,,,,,,,,,,,883.2118,884.5128,884.5128,888.7481,return,2.3947,,43.359375,,,,,,FBP-PT-17.png,0.35,1.2,46,0.5,,,,,,,,,,,,,0,13,13,45,1,,,,,,,,,,,,,,,,,,,,,,,,,,,,
,,,,,SPR24_037,18,F,2024-04-11_10h28.35.257,jersey_experiment_5_v0,2023.2.2,Win32,85.47008547,,,,,,,,,,,,,,,,888.7484,890.0423,890.0423,892.3411,return,0.6724,,25.390625,,,,,,FBP-YG-17.png,0.35,1.2,16,0.5,,,,,,,,,,,,,0,14,14,15,1,,,,,,,,,,,,,,,,,,,,,,,,,,,,
,,,,,SPR24_037,18,F,2024-04-11_10h28.35.257,jersey_experiment_5_v0,2023.2.2,Win32,85.47008547,,,,,,,,,,,,,,,,892.3414,893.3837,893.3837,898.6003,return,0.719,,48.69791667,,,,,,FBP-RB-18.png,0.37,1.2,37,0.25,,,,,,,,,,,,,0,15,15,36,1,,,,,,,,,,,,,,,,,,,,,,,,,,,,
,,,,,SPR24_037,18,F,2024-04-11_10h28.35.257,jersey_experiment_5_v0,2023.2.2,Win32,85.47008547,,,,,,,,,,,,,,,,898.6005,899.9048,899.9049,901.8003,return,0.6715,,75.65104167,,,,,,FBP-PT-17.png,0.45,1.2,50,0.5,,,,,,,,,,,,,0,16,16,49,1,,,,,,,,,,,,,,,,,,,,,,,,,,,,
,,,,,SPR24_037,18,F,2024-04-11_10h28.35.257,jersey_experiment_5_v0,2023.2.2,Win32,85.47008547,,,,,,,,,,,,,,,,901.8005,903.0947,903.0947,907.6126,return,0.6593,,33.203125,,,,,,FBP-YG-18.png,0.35,1.2,21,0.5,,,,,,,,,,,,,0,17,17,20,1,,,,,,,,,,,,,,,,,,,,,,,,,,,,
,,,,,SPR24_037,18,F,2024-04-11_10h28.35.257,jersey_experiment_5_v0,2023.2.2,Win32,85.47008547,,,,,,,,,,,,,,,,907.6128,908.6547,908.6548,911.1184,return,0.659,,86.19791667,,,,,,FBP-RB-19.png,0.45,1.2,45,0.25,,,,,,,,,,,,,0,18,18,44,1,,,,,,,,,,,,,,,,,,,,,,,,,,,,
,,,,,SPR24_037,18,F,2024-04-11_10h28.35.257,jersey_experiment_5_v0,2023.2.2,Win32,85.47008547,,,,,,,,,,,,,,,,911.1185,912.4229,912.4229,915.5844,return,0.6137,,75,,,,,,FBP-PT-17.png,0.4,1.2,48,0.5,,,,,,,,,,,,,0,19,19,47,1,,,,,,,,,,,,,,,,,,,,,,,,,,,,
,,,,,SPR24_037,18,F,2024-04-11_10h28.35.257,jersey_experiment_5_v0,2023.2.2,Win32,85.47008547,,,,,,,,,,,,,,,,915.5847,916.8786,916.8786,920.7964,return,0.5826,,24.86979167,,,,,,FBP-PT-19.png,0.35,1.2,56,0.5,,,,,,,,,,,,,0,20,20,55,1,,,,,,,,,,,,,,,,,,,,,,,,,,,,
,,,,,SPR24_037,18,F,2024-04-11_10h28.35.257,jersey_experiment_5_v0,2023.2.2,Win32,85.47008547,,,,,,,,,,,,,,,,920.7966,921.8435,921.8435,926.2084,return,1.79,,72.52604167,,,,,,FBP-RB-19.png,0.4,1.2,43,0.25,,,,,,,,,,,,,0,21,21,42,1,,,,,,,,,,,,,,,,,,,,,,,,,,,,
,,,,,SPR24_037,18,F,2024-04-11_10h28.35.257,jersey_experiment_5_v0,2023.2.2,Win32,85.47008547,,,,,,,,,,,,,,,,926.2086,927.5025,927.5025,929.5194,return,0.6255,,85.15625,,,,,,FBP-YG-17.png,0.45,1.2,20,0.5,,,,,,,,,,,,,0,22,22,19,1,,,,,,,,,,,,,,,,,,,,,,,,,,,,
,,,,,SPR24_037,18,F,2024-04-11_10h28.35.257,jersey_experiment_5_v0,2023.2.2,Win32,85.47008547,,,,,,,,,,,,,,,,929.5197,930.8236,930.8237,932.891,return,0.5706,,57.16145833,,,,,,FBP-YG-19.png,0.37,1.2,27,0.5,,,,,,,,,,,,,0,23,23,26,1,,,,,,,,,,,,,,,,,,,,,,,,,,,,
,,,,,SPR24_037,18,F,2024-04-11_10h28.35.257,jersey_experiment_5_v0,2023.2.2,Win32,85.47008547,,,,,,,,,,,,,,,,932.8911,933.938,933.9381,937.6373,return,0.6354,,62.23958333,,,,,,FBP-OG-81.png,0.4,1.2,8,0.25,,,,,,,,,,,,,0,24,24,7,1,,,,,,,,,,,,,,,,,,,,,,,,,,,,
,,,,,SPR24_037,18,F,2024-04-11_10h28.35.257,jersey_experiment_5_v0,2023.2.2,Win32,85.47008547,,,,,,,,,,,,,,,,937.6376,938.9311,938.9311,942.4912,return,0.782,,51.171875,,,,,,FBP-YG-18.png,0.37,1.2,22,0.5,,,,,,,,,,,,,0,25,25,21,1,,,,,,,,,,,,,,,,,,,,,,,,,,,,
,,,,,SPR24_037,18,F,2024-04-11_10h28.35.257,jersey_experiment_5_v0,2023.2.2,Win32,85.47008547,,,,,,,,,,,,,,,,942.4914,943.5383,943.5384,945.7738,return,0.7577,,31.25,,,,,,FBP-OG-91.png,0.35,1.2,11,0.25,,,,,,,,,,,,,0,26,26,10,1,,,,,,,,,,,,,,,,,,,,,,,,,,,,
,,,,,SPR24_037,18,F,2024-04-11_10h28.35.257,jersey_experiment_5_v0,2023.2.2,Win32,85.47008547,,,,,,,,,,,,,,,,945.7739,947.0679,947.0679,950.1975,return,0.7768,,75,,,,,,FBP-PT-17.png,0.43,1.2,49,0.5,,,,,,,,,,,,,0,27,27,48,1,,,,,,,,,,,,,,,,,,,,,,,,,,,,
,,,,,SPR24_037,18,F,2024-04-11_10h28.35.257,jersey_experiment_5_v0,2023.2.2,Win32,85.47008547,,,,,,,,,,,,,,,,950.1977,951.2447,951.2447,953.6013,return,0.5419,,82.55208333,,,,,,FBP-OG-71.png,0.45,1.2,5,0.25,,,,,,,,,,,,,0,28,28,4,1,,,,,,,,,,,,,,,,,,,,,,,,,,,,
,,,,,SPR24_037,18,F,2024-04-11_10h28.35.257,jersey_experiment_5_v0,2023.2.2,Win32,85.47008547,,,,,,,,,,,,,,,,953.6015,954.6446,954.6446,957.0835,return,0.6694,,31.51041667,,,,,,FBP-OG-81.png,0.35,1.2,6,0.25,,,,,,,,,,,,,0,29,29,5,1,,,,,,,,,,,,,,,,,,,,,,,,,,,,
,,,,,SPR24_037,18,F,2024-04-11_10h28.35.257,jersey_experiment_5_v0,2023.2.2,Win32,85.47008547,,,,,,,,,,,,,,,,957.0836,958.1316,958.1316,961.1302,return,0.6347,,88.15104167,,,,,,FBP-OG-91.png,0.45,1.2,15,0.25,,,,,,,,,,,,,0,30,30,14,1,,,,,,,,,,,,,,,,,,,,,,,,,,,,
,,,,,SPR24_037,18,F,2024-04-11_10h28.35.257,jersey_experiment_5_v0,2023.2.2,Win32,85.47008547,,,,,,,,,,,,,,,,961.1304,962.1743,962.1744,965.1675,return,0.7899,,50.65104167,,,,,,FBP-OG-71.png,0.37,1.2,2,0.25,,,,,,,,,,,,,0,31,31,1,1,,,,,,,,,,,,,,,,,,,,,,,,,,,,
,,,,,SPR24_037,18,F,2024-04-11_10h28.35.257,jersey_experiment_5_v0,2023.2.2,Win32,85.47008547,,,,,,,,,,,,,,,,965.1678,966.2097,966.2098,969.6805,return,0.53,,75.390625,,,,,,FBP-RB-18.png,0.45,1.2,40,0.25,,,,,,,,,,,,,0,32,32,39,1,,,,,,,,,,,,,,,,,,,,,,,,,,,,
,,,,,SPR24_037,18,F,2024-04-11_10h28.35.257,jersey_experiment_5_v0,2023.2.2,Win32,85.47008547,,,,,,,,,,,,,,,,969.6807,970.9746,970.9746,974.0924,return,0.6291,,63.02083333,,,,,,FBP-YG-18.png,0.4,1.2,23,0.5,,,,,,,,,,,,,0,33,33,22,1,,,,,,,,,,,,,,,,,,,,,,,,,,,,
,,,,,SPR24_037,18,F,2024-04-11_10h28.35.257,jersey_experiment_5_v0,2023.2.2,Win32,85.47008547,,,,,,,,,,,,,,,,974.0926,975.1437,975.1437,977.8505,return,0.5652,,49.86979167,,,,,,FBP-RB-18.png,0.35,1.2,36,0.25,,,,,,,,,,,,,0,34,34,35,1,,,,,,,,,,,,,,,,,,,,,,,,,,,,
,,,,,SPR24_037,18,F,2024-04-11_10h28.35.257,jersey_experiment_5_v0,2023.2.2,Win32,85.47008547,,,,,,,,,,,,,,,,977.8506,979.1445,979.1445,981.4973,return,0.6119,,73.828125,,,,,,FBP-PT-19.png,0.43,1.2,59,0.5,,,,,,,,,,,,,0,35,35,58,1,,,,,,,,,,,,,,,,,,,,,,,,,,,,
,,,,,SPR24_037,18,F,2024-04-11_10h28.35.257,jersey_experiment_5_v0,2023.2.2,Win32,85.47008547,,,,,,,,,,,,,,,,981.4975,982.5397,982.5397,988.2271,return,0.8603,,73.828125,,,,,,FBP-OG-91.png,0.43,1.2,14,0.25,,,,,,,,,,,,,0,36,36,13,1,,,,,,,,,,,,,,,,,,,,,,,,,,,,
,,,,,SPR24_037,18,F,2024-04-11_10h28.35.257,jersey_experiment_5_v0,2023.2.2,Win32,85.47008547,,,,,,,,,,,,,,,,988.2273,989.5315,989.5315,992.1753,return,0.6618,,67.96875,,,,,,FBP-YG-17.png,0.4,1.2,18,0.5,,,,,,,,,,,,,0,37,37,17,1,,,,,,,,,,,,,,,,,,,,,,,,,,,,
,,,,,SPR24_037,18,F,2024-04-11_10h28.35.257,jersey_experiment_5_v0,2023.2.2,Win32,85.47008547,,,,,,,,,,,,,,,,992.1756,993.2257,993.2257,996.4024,return,0.6453,,50.52083333,,,,,,FBP-RB-17.png,0.35,1.2,31,0.25,,,,,,,,,,,,,0,38,38,30,1,,,,,,,,,,,,,,,,,,,,,,,,,,,,
,,,,,SPR24_037,18,F,2024-04-11_10h28.35.257,jersey_experiment_5_v0,2023.2.2,Win32,85.47008547,,,,,,,,,,,,,,,,996.4026,997.4461,997.4461,1000.1575,return,0.7772,,60.15625,,,,,,FBP-OG-81.png,0.43,1.2,9,0.25,,,,,,,,,,,,,0,39,39,8,1,,,,,,,,,,,,,,,,,,,,,,,,,,,,
,,,,,SPR24_037,18,F,2024-04-11_10h28.35.257,jersey_experiment_5_v0,2023.2.2,Win32,85.47008547,,,,,,,,,,,,,,,,1000.1576,1001.1993,1001.1993,1003.744,return,0.5755,,49.73958333,,,,,,FBP-OG-71.png,0.4,1.2,3,0.25,,,,,,,,,,,,,0,40,40,2,1,,,,,,,,,,,,,,,,,,,,,,,,,,,,
,,,,,SPR24_037,18,F,2024-04-11_10h28.35.257,jersey_experiment_5_v0,2023.2.2,Win32,85.47008547,,,,,,,,,,,,,,,,1003.7442,1005.0511,1005.0511,1007.3288,return,0.5767,,30.98958333,,,,,,FBP-PT-17.png,0.37,1.2,47,0.5,,,,,,,,,,,,,0,41,41,46,1,,,,,,,,,,,,,,,,,,,,,,,,,,,,
,,,,,SPR24_037,18,F,2024-04-11_10h28.35.257,jersey_experiment_5_v0,2023.2.2,Win32,85.47008547,,,,,,,,,,,,,,,,1007.3291,1008.623,1008.623,1010.5101,return,0.5645,,74.21875,,,,,,FBP-YG-19.png,0.45,1.2,30,0.5,,,,,,,,,,,,,0,42,42,29,1,,,,,,,,,,,,,,,,,,,,,,,,,,,,
,,,,,SPR24_037,18,F,2024-04-11_10h28.35.257,jersey_experiment_5_v0,2023.2.2,Win32,85.47008547,,,,,,,,,,,,,,,,1010.5103,1011.8047,1011.8047,1014.168,return,0.8711,,77.21354167,,,,,,FBP-YG-18.png,0.43,1.2,24,0.5,,,,,,,,,,,,,0,43,43,23,1,,,,,,,,,,,,,,,,,,,,,,,,,,,,
,,,,,SPR24_037,18,F,2024-04-11_10h28.35.257,jersey_experiment_5_v0,2023.2.2,Win32,85.47008547,,,,,,,,,,,,,,,,1014.1681,1015.4702,1015.4703,1018.5812,return,0.6485,,24.34895833,,,,,,FBP-PT-18.png,0.35,1.2,51,0.5,,,,,,,,,,,,,0,44,44,50,1,,,,,,,,,,,,,,,,,,,,,,,,,,,,
,,,,,SPR24_037,18,F,2024-04-11_10h28.35.257,jersey_experiment_5_v0,2023.2.2,Win32,85.47008547,,,,,,,,,,,,,,,,1018.5813,1019.6234,1019.6234,1023.9931,return,1.4014,,63.671875,,,,,,FBP-OG-91.png,0.4,1.2,13,0.25,,,,,,,,,,,,,0,45,45,12,1,,,,,,,,,,,,,,,,,,,,,,,,,,,,
,,,,,SPR24_037,18,F,2024-04-11_10h28.35.257,jersey_experiment_5_v0,2023.2.2,Win32,85.47008547,,,,,,,,,,,,,,,,1023.9932,1025.0385,1025.0385,1028.4273,return,0.6694,,58.33333333,,,,,,FBP-OG-91.png,0.37,1.2,12,0.25,,,,,,,,,,,,,0,46,46,11,1,,,,,,,,,,,,,,,,,,,,,,,,,,,,
,,,,,SPR24_037,18,F,2024-04-11_10h28.35.257,jersey_experiment_5_v0,2023.2.2,Win32,85.47008547,,,,,,,,,,,,,,,,1028.4274,1029.7214,1029.7215,1032.1415,return,0.7565,,75.26041667,,,,,,FBP-PT-18.png,0.43,1.2,54,0.5,,,,,,,,,,,,,0,47,47,53,1,,,,,,,,,,,,,,,,,,,,,,,,,,,,
,,,,,SPR24_037,18,F,2024-04-11_10h28.35.257,jersey_experiment_5_v0,2023.2.2,Win32,85.47008547,,,,,,,,,,,,,,,,1032.1417,1033.4357,1033.4358,1035.871,return,1.0386,,75.26041667,,,,,,FBP-YG-19.png,0.43,1.2,29,0.5,,,,,,,,,,,,,0,48,48,28,1,,,,,,,,,,,,,,,,,,,,,,,,,,,,
,,,,,SPR24_037,18,F,2024-04-11_10h28.35.257,jersey_experiment_5_v0,2023.2.2,Win32,85.47008547,,,,,,,,,,,,,,,,1035.8711,1036.9181,1036.9182,1039.3654,return,0.7067,,83.72395833,,,,,,FBP-RB-19.png,0.43,1.2,44,0.25,,,,,,,,,,,,,0,49,49,43,1,,,,,,,,,,,,,,,,,,,,,,,,,,,,
,,,,,SPR24_037,18,F,2024-04-11_10h28.35.257,jersey_experiment_5_v0,2023.2.2,Win32,85.47008547,,,,,,,,,,,,,,,,1039.3656,1040.6595,1040.6595,1043.288,return,0.9549,,64.19270833,,,,,,FBP-PT-18.png,0.4,1.2,53,0.5,,,,,,,,,,,,,0,50,50,52,1,,,,,,,,,,,,,,,,,,,,,,,,,,,,
,,,,,SPR24_037,18,F,2024-04-11_10h28.35.257,jersey_experiment_5_v0,2023.2.2,Win32,85.47008547,,,,,,,,,,,,,,,,1043.2882,1044.5819,1044.582,1049.3928,return,1.2473,,23.56770833,,,,,,FBP-YG-19.png,0.35,1.2,26,0.5,,,,,,,,,,,,,0,51,51,25,1,,,,,,,,,,,,,,,,,,,,,,,,,,,,
,,,,,SPR24_037,18,F,2024-04-11_10h28.35.257,jersey_experiment_5_v0,2023.2.2,Win32,85.47008547,,,,,,,,,,,,,,,,1049.3929,1050.4363,1050.4363,1053.0717,return,0.8833,,44.66145833,,,,,,FBP-RB-17.png,0.37,1.2,32,0.25,,,,,,,,,,,,,0,52,52,31,1,,,,,,,,,,,,,,,,,,,,,,,,,,,,
,,,,,SPR24_037,18,F,2024-04-11_10h28.35.257,jersey_experiment_5_v0,2023.2.2,Win32,85.47008547,,,,,,,,,,,,,,,,1053.072,1054.3659,1054.3659,1057.1811,return,1.671,,53.515625,,,,,,FBP-YG-19.png,0.4,1.2,28,0.5,,,,,,,,,,,,,0,53,53,27,1,,,,,,,,,,,,,,,,,,,,,,,,,,,,
,,,,,SPR24_037,18,F,2024-04-11_10h28.35.257,jersey_experiment_5_v0,2023.2.2,Win32,85.47008547,,,,,,,,,,,,,,,,1057.1812,1058.2294,1058.2294,1061.0297,return,0.8944,,17.70833333,,,,,,FBP-RB-19.png,0.35,1.2,41,0.25,,,,,,,,,,,,,0,54,54,40,1,,,,,,,,,,,,,,,,,,,,,,,,,,,,
,,,,,SPR24_037,18,F,2024-04-11_10h28.35.257,jersey_experiment_5_v0,2023.2.2,Win32,85.47008547,,,,,,,,,,,,,,,,1061.0299,1062.3341,1062.3341,1065.2658,return,0.8611,,50.13020833,,,,,,FBP-PT-18.png,0.37,1.2,52,0.5,,,,,,,,,,,,,0,55,55,51,1,,,,,,,,,,,,,,,,,,,,,,,,,,,,
,,,,,SPR24_037,18,F,2024-04-11_10h28.35.257,jersey_experiment_5_v0,2023.2.2,Win32,85.47008547,,,,,,,,,,,,,,,,1065.2658,1066.3074,1066.3075,1069.783,return,1.5769,,75.390625,,,,,,FBP-RB-17.png,0.43,1.2,34,0.25,,,,,,,,,,,,,0,56,56,33,1,,,,,,,,,,,,,,,,,,,,,,,,,,,,
,,,,,SPR24_037,18,F,2024-04-11_10h28.35.257,jersey_experiment_5_v0,2023.2.2,Win32,85.47008547,,,,,,,,,,,,,,,,1069.7833,1071.0769,1071.0769,1076.7665,return,1.0624,,51.04166667,,,,,,FBP-PT-19.png,0.37,1.2,57,0.5,,,,,,,,,,,,,0,57,57,56,1,,,,,,,,,,,,,,,,,,,,,,,,,,,,
,,,,,SPR24_037,18,F,2024-04-11_10h28.35.257,jersey_experiment_5_v0,2023.2.2,Win32,85.47008547,,,,,,,,,,,,,,,,1076.7667,1077.8137,1077.8138,1080.8759,return,1.6471,,25,,,,,,FBP-OG-71.png,0.35,1.2,1,0.25,,,,,,,,,,,,,0,58,58,0,1,,,,,,,,,,,,,,,,,,,,,,,,,,,,
,,,,,SPR24_037,18,F,2024-04-11_10h28.35.257,jersey_experiment_5_v0,2023.2.2,Win32,85.47008547,,,,,,,,,,,,,,,,1080.8761,1081.9243,1081.9244,1084.7482,return,0.9312,,87.890625,,,,,,FBP-OG-81.png,0.45,1.2,10,0.25,,,,,,,,,,,,,0,59,59,9,1,,,,,,,,,,,,,,,,,,,,,,,,,,,,
,,,,,SPR24_037,18,F,2024-04-11_10h28.35.257,jersey_experiment_5_v0,2023.2.2,Win32,85.47008547,,,,,,,,,,,,,,,,1084.75,1086.0528,1086.0528,1089.6292,return,1.2812,,47.65625,,,,,,FBP-PT-71.png,0.35,1.2,46,0.5,,,,,,,,,,,,,,,,,,0,0,0,45,1,,,,,,,,,,,,,,,,,,,,,,,
,,,,,SPR24_037,18,F,2024-04-11_10h28.35.257,jersey_experiment_5_v0,2023.2.2,Win32,85.47008547,,,,,,,,,,,,,,,,1089.6294,1090.6729,1090.673,1092.8766,return,0.6353,,25.13020833,,,,,,FBP-OG-19.png,0.35,1.2,11,0.25,,,,,,,,,,,,,,,,,,0,1,1,10,1,,,,,,,,,,,,,,,,,,,,,,,
,,,,,SPR24_037,18,F,2024-04-11_10h28.35.257,jersey_experiment_5_v0,2023.2.2,Win32,85.47008547,,,,,,,,,,,,,,,,1092.8768,1094.1839,1094.1839,1096.5438,return,0.7076,,60.9375,,,,,,FBP-YG-91.png,0.4,1.2,28,0.5,,,,,,,,,,,,,,,,,,0,2,2,27,1,,,,,,,,,,,,,,,,,,,,,,,
,,,,,SPR24_037,18,F,2024-04-11_10h28.35.257,jersey_experiment_5_v0,2023.2.2,Win32,85.47008547,,,,,,,,,,,,,,,,1096.544,1097.8379,1097.838,1100.1945,return,1.0122,,60.9375,,,,,,FBP-YG-81.png,0.4,1.2,23,0.5,,,,,,,,,,,,,,,,,,0,3,3,22,1,,,,,,,,,,,,,,,,,,,,,,,
,,,,,SPR24_037,18,F,2024-04-11_10h28.35.257,jersey_experiment_5_v0,2023.2.2,Win32,85.47008547,,,,,,,,,,,,,,,,1100.1946,1101.2428,1101.2429,1103.2616,return,0.6029,,81.51041667,,,,,,FBP-RB-91.png,0.45,1.2,45,0.25,,,,,,,,,,,,,,,,,,0,4,4,44,1,,,,,,,,,,,,,,,,,,,,,,,
,,,,,SPR24_037,18,F,2024-04-11_10h28.35.257,jersey_experiment_5_v0,2023.2.2,Win32,85.47008547,,,,,,,,,,,,,,,,1103.2618,1104.5559,1104.5559,1107.25,return,0.8239,,59.50520833,,,,,,FBP-PT-91.png,0.37,1.2,57,0.5,,,,,,,,,,,,,,,,,,0,5,5,56,1,,,,,,,,,,,,,,,,,,,,,,,
,,,,,SPR24_037,18,F,2024-04-11_10h28.35.257,jersey_experiment_5_v0,2023.2.2,Win32,85.47008547,,,,,,,,,,,,,,,,1107.2501,1108.2971,1108.2972,1110.8735,return,0.8071,,74.21875,,,,,,FBP-RB-81.png,0.45,1.2,40,0.25,,,,,,,,,,,,,,,,,,0,6,6,39,1,,,,,,,,,,,,,,,,,,,,,,,
,,,,,SPR24_037,18,F,2024-04-11_10h28.35.257,jersey_experiment_5_v0,2023.2.2,Win32,85.47008547,,,,,,,,,,,,,,,,1110.8737,1112.1679,1112.168,1114.9011,return,0.7535,,46.74479167,,,,,,FBP-PT-71.png,0.37,1.2,47,0.5,,,,,,,,,,,,,,,,,,0,7,7,46,1,,,,,,,,,,,,,,,,,,,,,,,
,,,,,SPR24_037,18,F,2024-04-11_10h28.35.257,jersey_experiment_5_v0,2023.2.2,Win32,85.47008547,,,,,,,,,,,,,,,,1114.9012,1116.2033,1116.2034,1118.8739,return,0.6313,,59.89583333,,,,,,FBP-PT-91.png,0.4,1.2,58,0.5,,,,,,,,,,,,,,,,,,0,8,8,57,1,,,,,,,,,,,,,,,,,,,,,,,
,,,,,SPR24_037,18,F,2024-04-11_10h28.35.257,jersey_experiment_5_v0,2023.2.2,Win32,85.47008547,,,,,,,,,,,,,,,,1118.8742,1119.921,1119.921,1122.5095,return,0.7107,,74.609375,,,,,,FBP-OG-18.png,0.45,1.2,10,0.25,,,,,,,,,,,,,,,,,,0,9,9,9,1,,,,,,,,,,,,,,,,,,,,,,,
,,,,,SPR24_037,18,F,2024-04-11_10h28.35.257,jersey_experiment_5_v0,2023.2.2,Win32,85.47008547,,,,,,,,,,,,,,,,1122.5097,1123.5597,1123.5597,1126.0743,return,0.7962,,79.81770833,,,,,,FBP-RB-71.png,0.45,1.2,35,0.25,,,,,,,,,,,,,,,,,,0,10,10,34,1,,,,,,,,,,,,,,,,,,,,,,,
,,,,,SPR24_037,18,F,2024-04-11_10h28.35.257,jersey_experiment_5_v0,2023.2.2,Win32,85.47008547,,,,,,,,,,,,,,,,1126.0745,1127.3685,1127.3685,1130.0206,return,1.0488,,87.890625,,,,,,FBP-PT-91.png,0.45,1.2,60,0.5,,,,,,,,,,,,,,,,,,0,11,11,59,1,,,,,,,,,,,,,,,,,,,,,,,
,,,,,SPR24_037,18,F,2024-04-11_10h28.35.257,jersey_experiment_5_v0,2023.2.2,Win32,85.47008547,,,,,,,,,,,,,,,,1130.0209,1131.0627,1131.0628,1134.9922,return,0.8383,,69.01041667,,,,,,FBP-RB-81.png,0.37,1.2,37,0.25,,,,,,,,,,,,,,,,,,0,12,12,36,1,,,,,,,,,,,,,,,,,,,,,,,
,,,,,SPR24_037,18,F,2024-04-11_10h28.35.257,jersey_experiment_5_v0,2023.2.2,Win32,85.47008547,,,,,,,,,,,,,,,,1134.9925,1136.0441,1136.0441,1137.9266,return,0.743,,37.109375,,,,,,FBP-RB-81.png,0.35,1.2,36,0.25,,,,,,,,,,,,,,,,,,0,13,13,35,1,,,,,,,,,,,,,,,,,,,,,,,
,,,,,SPR24_037,18,F,2024-04-11_10h28.35.257,jersey_experiment_5_v0,2023.2.2,Win32,85.47008547,,,,,,,,,,,,,,,,1137.9267,1139.2206,1139.2206,1142.3808,return,0.7937,,53.77604167,,,,,,FBP-PT-71.png,0.4,1.2,48,0.5,,,,,,,,,,,,,,,,,,0,14,14,47,1,,,,,,,,,,,,,,,,,,,,,,,
,,,,,SPR24_037,18,F,2024-04-11_10h28.35.257,jersey_experiment_5_v0,2023.2.2,Win32,85.47008547,,,,,,,,,,,,,,,,1142.381,1143.4278,1143.4278,1145.7857,return,0.79,,31.640625,,,,,,FBP-OG-19.png,0.37,1.2,12,0.25,,,,,,,,,,,,,,,,,,0,15,15,11,1,,,,,,,,,,,,,,,,,,,,,,,
,,,,,SPR24_037,18,F,2024-04-11_10h28.35.257,jersey_experiment_5_v0,2023.2.2,Win32,85.47008547,,,,,,,,,,,,,,,,1145.7859,1146.828,1146.828,1150.9857,return,0.9074,,73.69791667,,,,,,FBP-OG-19.png,0.45,1.2,15,0.25,,,,,,,,,,,,,,,,,,0,16,16,14,1,,,,,,,,,,,,,,,,,,,,,,,
,,,,,SPR24_037,18,F,2024-04-11_10h28.35.257,jersey_experiment_5_v0,2023.2.2,Win32,85.47008547,,,,,,,,,,,,,,,,1150.9859,1152.2905,1152.2905,1154.4922,return,0.7433,,50,,,,,,FBP-PT-81.png,0.35,1.2,51,0.5,,,,,,,,,,,,,,,,,,0,17,17,50,1,,,,,,,,,,,,,,,,,,,,,,,
,,,,,SPR24_037,18,F,2024-04-11_10h28.35.257,jersey_experiment_5_v0,2023.2.2,Win32,85.47008547,,,,,,,,,,,,,,,,1154.4923,1155.5341,1155.5341,1157.7106,return,0.8501,,74.609375,,,,,,FBP-RB-71.png,0.43,1.2,34,0.25,,,,,,,,,,,,,,,,,,0,18,18,33,1,,,,,,,,,,,,,,,,,,,,,,,
,,,,,SPR24_037,18,F,2024-04-11_10h28.35.257,jersey_experiment_5_v0,2023.2.2,Win32,85.47008547,,,,,,,,,,,,,,,,1157.7109,1159.0048,1159.0049,1161.3578,return,1.0631,,84.765625,,,,,,FBP-PT-71.png,0.45,1.2,50,0.5,,,,,,,,,,,,,,,,,,0,19,19,49,1,,,,,,,,,,,,,,,,,,,,,,,
,,,,,SPR24_037,18,F,2024-04-11_10h28.35.257,jersey_experiment_5_v0,2023.2.2,Win32,85.47008547,,,,,,,,,,,,,,,,1161.358,1162.4085,1162.4085,1164.6097,return,0.5884,,74.47916667,,,,,,FBP-OG-17.png,0.45,1.2,5,0.25,,,,,,,,,,,,,,,,,,0,20,20,4,1,,,,,,,,,,,,,,,,,,,,,,,
,,,,,SPR24_037,18,F,2024-04-11_10h28.35.257,jersey_experiment_5_v0,2023.2.2,Win32,85.47008547,,,,,,,,,,,,,,,,1164.6099,1165.9038,1165.9038,1167.311,return,0.6385,,74.609375,,,,,,FBP-YG-71.png,0.45,1.2,20,0.5,,,,,,,,,,,,,,,,,,0,21,21,19,1,,,,,,,,,,,,,,,,,,,,,,,
,,,,,SPR24_037,18,F,2024-04-11_10h28.35.257,jersey_experiment_5_v0,2023.2.2,Win32,85.47008547,,,,,,,,,,,,,,,,1167.3112,1168.3613,1168.3614,1170.9699,return,0.8538,,65.625,,,,,,FBP-RB-91.png,0.4,1.2,43,0.25,,,,,,,,,,,,,,,,,,0,22,22,42,1,,,,,,,,,,,,,,,,,,,,,,,
,,,,,SPR24_037,18,F,2024-04-11_10h28.35.257,jersey_experiment_5_v0,2023.2.2,Win32,85.47008547,,,,,,,,,,,,,,,,1170.9701,1172.0171,1172.0171,1175.9044,return,1.7649,,53.77604167,,,,,,FBP-RB-71.png,0.35,1.2,31,0.25,,,,,,,,,,,,,,,,,,0,23,23,30,1,,,,,,,,,,,,,,,,,,,,,,,
,,,,,SPR24_037,18,F,2024-04-11_10h28.35.257,jersey_experiment_5_v0,2023.2.2,Win32,85.47008547,,,,,,,,,,,,,,,,1175.9046,1176.9501,1176.9502,1179.8526,return,0.9224,,73.69791667,,,,,,FBP-OG-18.png,0.43,1.2,9,0.25,,,,,,,,,,,,,,,,,,0,24,24,8,1,,,,,,,,,,,,,,,,,,,,,,,
,,,,,SPR24_037,18,F,2024-04-11_10h28.35.257,jersey_experiment_5_v0,2023.2.2,Win32,85.47008547,,,,,,,,,,,,,,,,1179.8528,1181.1514,1181.1514,1186.4695,return,0.8004,,67.83854167,,,,,,FBP-YG-91.png,0.43,1.2,29,0.5,,,,,,,,,,,,,,,,,,0,25,25,28,1,,,,,,,,,,,,,,,,,,,,,,,
,,,,,SPR24_037,18,F,2024-04-11_10h28.35.257,jersey_experiment_5_v0,2023.2.2,Win32,85.47008547,,,,,,,,,,,,,,,,1186.4697,1187.7634,1187.7634,1191.6799,return,0.6456,,60.80729167,,,,,,FBP-YG-71.png,0.37,1.2,17,0.5,,,,,,,,,,,,,,,,,,0,26,26,16,1,,,,,,,,,,,,,,,,,,,,,,,
,,,,,SPR24_037,18,F,2024-04-11_10h28.35.257,jersey_experiment_5_v0,2023.2.2,Win32,85.47008547,,,,,,,,,,,,,,,,1191.68,1192.7236,1192.7238,1195.9473,return,1.4656,,31.77083333,,,,,,FBP-RB-91.png,0.35,1.2,41,0.25,,,,,,,,,,,,,,,,,,0,27,27,40,1,,,,,,,,,,,,,,,,,,,,,,,
,,,,,SPR24_037,18,F,2024-04-11_10h28.35.257,jersey_experiment_5_v0,2023.2.2,Win32,85.47008547,,,,,,,,,,,,,,,,1195.9476,1196.9945,1196.9945,1200.8463,return,0.8704,,38.28125,,,,,,FBP-RB-91.png,0.37,1.2,42,0.25,,,,,,,,,,,,,,,,,,0,28,28,41,1,,,,,,,,,,,,,,,,,,,,,,,
,,,,,SPR24_037,18,F,2024-04-11_10h28.35.257,jersey_experiment_5_v0,2023.2.2,Win32,85.47008547,,,,,,,,,,,,,,,,1200.8464,1201.8888,1201.8888,1204.3627,return,0.7531,,57.16145833,,,,,,FBP-OG-17.png,0.4,1.2,3,0.25,,,,,,,,,,,,,,,,,,0,29,29,2,1,,,,,,,,,,,,,,,,,,,,,,,
,,,,,SPR24_037,18,F,2024-04-11_10h28.35.257,jersey_experiment_5_v0,2023.2.2,Win32,85.47008547,,,,,,,,,,,,,,,,1204.363,1205.4111,1205.4111,1209.1997,return,0.9074,,49.609375,,,,,,FBP-RB-71.png,0.37,1.2,32,0.25,,,,,,,,,,,,,,,,,,0,30,30,31,1,,,,,,,,,,,,,,,,,,,,,,,
,,,,,SPR24_037,18,F,2024-04-11_10h28.35.257,jersey_experiment_5_v0,2023.2.2,Win32,85.47008547,,,,,,,,,,,,,,,,1209.1999,1210.242,1210.242,1213.0353,return,0.7902,,24.08854167,,,,,,FBP-OG-17.png,0.35,1.2,1,0.25,,,,,,,,,,,,,,,,,,0,31,31,0,1,,,,,,,,,,,,,,,,,,,,,,,
,,,,,SPR24_037,18,F,2024-04-11_10h28.35.257,jersey_experiment_5_v0,2023.2.2,Win32,85.47008547,,,,,,,,,,,,,,,,1213.0355,1214.3291,1214.3291,1216.1716,return,0.711,,19.921875,,,,,,FBP-PT-91.png,0.35,1.2,56,0.5,,,,,,,,,,,,,,,,,,0,32,32,55,1,,,,,,,,,,,,,,,,,,,,,,,
,,,,,SPR24_037,18,F,2024-04-11_10h28.35.257,jersey_experiment_5_v0,2023.2.2,Win32,85.47008547,,,,,,,,,,,,,,,,1216.1718,1217.4692,1217.4692,1219.6423,return,0.7607,,50.26041667,,,,,,FBP-YG-71.png,0.4,1.2,18,0.5,,,,,,,,,,,,,,,,,,0,33,33,17,1,,,,,,,,,,,,,,,,,,,,,,,
,,,,,SPR24_037,18,F,2024-04-11_10h28.35.257,jersey_experiment_5_v0,2023.2.2,Win32,85.47008547,,,,,,,,,,,,,,,,1219.6425,1220.9364,1220.9365,1223.313,return,0.7314,,74.73958333,,,,,,FBP-YG-81.png,0.45,1.2,25,0.5,,,,,,,,,,,,,,,,,,0,34,34,24,1,,,,,,,,,,,,,,,,,,,,,,,
,,,,,SPR24_037,18,F,2024-04-11_10h28.35.257,jersey_experiment_5_v0,2023.2.2,Win32,85.47008547,,,,,,,,,,,,,,,,1223.3133,1224.6071,1224.6072,1227.6309,return,0.9195,,35.02604167,,,,,,FBP-YG-81.png,0.35,1.2,21,0.5,,,,,,,,,,,,,,,,,,0,35,35,20,1,,,,,,,,,,,,,,,,,,,,,,,
,,,,,SPR24_037,18,F,2024-04-11_10h28.35.257,jersey_experiment_5_v0,2023.2.2,Win32,85.47008547,,,,,,,,,,,,,,,,1227.6311,1228.925,1228.925,1232.1134,return,1.1883,,69.140625,,,,,,FBP-YG-81.png,0.43,1.2,24,0.5,,,,,,,,,,,,,,,,,,0,36,36,23,1,,,,,,,,,,,,,,,,,,,,,,,
,,,,,SPR24_037,18,F,2024-04-11_10h28.35.257,jersey_experiment_5_v0,2023.2.2,Win32,85.47008547,,,,,,,,,,,,,,,,1232.1136,1233.4122,1233.4122,1235.6192,return,0.7059,,88.93229167,,,,,,FBP-PT-81.png,0.45,1.2,55,0.5,,,,,,,,,,,,,,,,,,0,37,37,54,1,,,,,,,,,,,,,,,,,,,,,,,
,,,,,SPR24_037,18,F,2024-04-11_10h28.35.257,jersey_experiment_5_v0,2023.2.2,Win32,85.47008547,,,,,,,,,,,,,,,,1235.6195,1236.6664,1236.6665,1238.9421,return,0.672,,74.73958333,,,,,,FBP-OG-19.png,0.43,1.2,14,0.25,,,,,,,,,,,,,,,,,,0,38,38,13,1,,,,,,,,,,,,,,,,,,,,,,,
,,,,,SPR24_037,18,F,2024-04-11_10h28.35.257,jersey_experiment_5_v0,2023.2.2,Win32,85.47008547,,,,,,,,,,,,,,,,1238.9422,1240.2459,1240.2459,1243.0701,return,0.706,,50.390625,,,,,,FBP-YG-91.png,0.37,1.2,27,0.5,,,,,,,,,,,,,,,,,,0,39,39,26,1,,,,,,,,,,,,,,,,,,,,,,,
,,,,,SPR24_037,18,F,2024-04-11_10h28.35.257,jersey_experiment_5_v0,2023.2.2,Win32,85.47008547,,,,,,,,,,,,,,,,1243.0702,1244.3726,1244.3726,1246.4315,return,0.6376,,37.36979167,,,,,,FBP-YG-81.png,0.37,1.2,22,0.5,,,,,,,,,,,,,,,,,,0,40,40,21,1,,,,,,,,,,,,,,,,,,,,,,,
,,,,,SPR24_037,18,F,2024-04-11_10h28.35.257,jersey_experiment_5_v0,2023.2.2,Win32,85.47008547,,,,,,,,,,,,,,,,1246.4317,1247.4786,1247.4786,1250.0787,return,0.7445,,61.328125,,,,,,FBP-RB-81.png,0.4,1.2,38,0.25,,,,,,,,,,,,,,,,,,0,41,41,37,1,,,,,,,,,,,,,,,,,,,,,,,
,,,,,SPR24_037,18,F,2024-04-11_10h28.35.257,jersey_experiment_5_v0,2023.2.2,Win32,85.47008547,,,,,,,,,,,,,,,,1250.0789,1251.1258,1251.1258,1253.5141,return,0.7019,,49.47916667,,,,,,FBP-OG-17.png,0.37,1.2,2,0.25,,,,,,,,,,,,,,,,,,0,42,42,1,1,,,,,,,,,,,,,,,,,,,,,,,
,,,,,SPR24_037,18,F,2024-04-11_10h28.35.257,jersey_experiment_5_v0,2023.2.2,Win32,85.47008547,,,,,,,,,,,,,,,,1253.5144,1254.5656,1254.5656,1257.0941,return,0.8003,,23.95833333,,,,,,FBP-OG-18.png,0.35,1.2,6,0.25,,,,,,,,,,,,,,,,,,0,43,43,5,1,,,,,,,,,,,,,,,,,,,,,,,
,,,,,SPR24_037,18,F,2024-04-11_10h28.35.257,jersey_experiment_5_v0,2023.2.2,Win32,85.47008547,,,,,,,,,,,,,,,,1257.0943,1258.3882,1258.3883,1260.7647,return,0.7056,,67.83854167,,,,,,FBP-PT-91.png,0.43,1.2,59,0.5,,,,,,,,,,,,,,,,,,0,44,44,58,1,,,,,,,,,,,,,,,,,,,,,,,
,,,,,SPR24_037,18,F,2024-04-11_10h28.35.257,jersey_experiment_5_v0,2023.2.2,Win32,85.47008547,,,,,,,,,,,,,,,,1260.765,1262.072,1262.072,1264.7968,return,0.6974,,75.13020833,,,,,,FBP-PT-81.png,0.43,1.2,54,0.5,,,,,,,,,,,,,,,,,,0,45,45,53,1,,,,,,,,,,,,,,,,,,,,,,,
,,,,,SPR24_037,18,F,2024-04-11_10h28.35.257,jersey_experiment_5_v0,2023.2.2,Win32,85.47008547,,,,,,,,,,,,,,,,1264.7971,1265.844,1265.844,1268.4018,return,0.6484,,75.13020833,,,,,,FBP-RB-81.png,0.43,1.2,39,0.25,,,,,,,,,,,,,,,,,,0,46,46,38,1,,,,,,,,,,,,,,,,,,,,,,,
,,,,,SPR24_037,18,F,2024-04-11_10h28.35.257,jersey_experiment_5_v0,2023.2.2,Win32,85.47008547,,,,,,,,,,,,,,,,1268.402,1269.4441,1269.4441,1273.5417,return,1.8925,,29.81770833,,,,,,FBP-OG-18.png,0.37,1.2,7,0.25,,,,,,,,,,,,,,,,,,0,47,47,6,1,,,,,,,,,,,,,,,,,,,,,,,
,,,,,SPR24_037,18,F,2024-04-11_10h28.35.257,jersey_experiment_5_v0,2023.2.2,Win32,85.47008547,,,,,,,,,,,,,,,,1273.5419,1274.8491,1274.8491,1278.9668,return,0.7767,,75.52083333,,,,,,FBP-PT-71.png,0.43,1.2,49,0.5,,,,,,,,,,,,,,,,,,0,48,48,48,1,,,,,,,,,,,,,,,,,,,,,,,
,,,,,SPR24_037,18,F,2024-04-11_10h28.35.257,jersey_experiment_5_v0,2023.2.2,Win32,85.47008547,,,,,,,,,,,,,,,,1278.9669,1280.0125,1280.0125,1282.7319,return,0.8373,,71.61458333,,,,,,FBP-OG-17.png,0.43,1.2,4,0.25,,,,,,,,,,,,,,,,,,0,49,49,3,1,,,,,,,,,,,,,,,,,,,,,,,
,,,,,SPR24_037,18,F,2024-04-11_10h28.35.257,jersey_experiment_5_v0,2023.2.2,Win32,85.47008547,,,,,,,,,,,,,,,,1282.732,1283.774,1283.774,1286.0027,return,0.683,,56.51041667,,,,,,FBP-OG-19.png,0.4,1.2,13,0.25,,,,,,,,,,,,,,,,,,0,50,50,12,1,,,,,,,,,,,,,,,,,,,,,,,
,,,,,SPR24_037,18,F,2024-04-11_10h28.35.257,jersey_experiment_5_v0,2023.2.2,Win32,85.47008547,,,,,,,,,,,,,,,,1286.0028,1287.0483,1287.0483,1290.6014,return,0.7768,,63.80208333,,,,,,FBP-RB-71.png,0.4,1.2,33,0.25,,,,,,,,,,,,,,,,,,0,51,51,32,1,,,,,,,,,,,,,,,,,,,,,,,
,,,,,SPR24_037,18,F,2024-04-11_10h28.35.257,jersey_experiment_5_v0,2023.2.2,Win32,85.47008547,,,,,,,,,,,,,,,,1290.6015,1291.8952,1291.8952,1294.0499,return,0.7195,,29.94791667,,,,,,FBP-PT-81.png,0.37,1.2,52,0.5,,,,,,,,,,,,,,,,,,0,52,52,51,1,,,,,,,,,,,,,,,,,,,,,,,
,,,,,SPR24_037,18,F,2024-04-11_10h28.35.257,jersey_experiment_5_v0,2023.2.2,Win32,85.47008547,,,,,,,,,,,,,,,,1294.0501,1295.3436,1295.3437,1299.1898,return,2.3638,,49.609375,,,,,,FBP-YG-71.png,0.43,1.2,19,0.5,,,,,,,,,,,,,,,,,,0,53,53,18,1,,,,,,,,,,,,,,,,,,,,,,,
,,,,,SPR24_037,18,F,2024-04-11_10h28.35.257,jersey_experiment_5_v0,2023.2.2,Win32,85.47008547,,,,,,,,,,,,,,,,1299.19,1300.4969,1300.4969,1302.79,return,0.9519,,16.92708333,,,,,,FBP-YG-71.png,0.35,1.2,16,0.5,,,,,,,,,,,,,,,,,,0,54,54,15,1,,,,,,,,,,,,,,,,,,,,,,,
,,,,,SPR24_037,18,F,2024-04-11_10h28.35.257,jersey_experiment_5_v0,2023.2.2,Win32,85.47008547,,,,,,,,,,,,,,,,1302.7902,1304.0969,1304.097,1306.4267,return,0.8472,,74.86979167,,,,,,FBP-YG-91.png,0.45,1.2,30,0.5,,,,,,,,,,,,,,,,,,0,55,55,29,1,,,,,,,,,,,,,,,,,,,,,,,
,,,,,SPR24_037,18,F,2024-04-11_10h28.35.257,jersey_experiment_5_v0,2023.2.2,Win32,85.47008547,,,,,,,,,,,,,,,,1306.4269,1307.469,1307.469,1310.1866,return,0.8646,,85.28645833,,,,,,FBP-RB-91.png,0.43,1.2,44,0.25,,,,,,,,,,,,,,,,,,0,56,56,43,1,,,,,,,,,,,,,,,,,,,,,,,
,,,,,SPR24_037,18,F,2024-04-11_10h28.35.257,jersey_experiment_5_v0,2023.2.2,Win32,85.47008547,,,,,,,,,,,,,,,,1310.1868,1311.4808,1311.4809,1313.3751,return,0.6363,,49.21875,,,,,,FBP-YG-91.png,0.35,1.2,26,0.5,,,,,,,,,,,,,,,,,,0,57,57,25,1,,,,,,,,,,,,,,,,,,,,,,,
,,,,,SPR24_037,18,F,2024-04-11_10h28.35.257,jersey_experiment_5_v0,2023.2.2,Win32,85.47008547,,,,,,,,,,,,,,,,1313.3753,1314.6725,1314.6725,1316.4035,return,0.6488,,49.21875,,,,,,FBP-PT-81.png,0.4,1.2,53,0.5,,,,,,,,,,,,,,,,,,0,58,58,52,1,,,,,,,,,,,,,,,,,,,,,,,
,,,,,SPR24_037,18,F,2024-04-11_10h28.35.257,jersey_experiment_5_v0,2023.2.2,Win32,85.47008547,,,,,,,,,,,,,,,,1316.4038,1317.4458,1317.4458,1319.7214,return,0.7667,,59.63541667,,,,,,FBP-OG-18.png,0.4,1.2,8,0.25,,,,,,,,,,,,,,,,,,0,59,59,7,1,,,,,,,,,,,,,,,,,,,,,,,
,,,,,SPR24_037,18,F,2024-04-11_10h28.35.257,jersey_experiment_5_v0,2023.2.2,Win32,85.47008547,,,,,,,,,,,,,,,,,,,,,,,,,,,,,,,,,,,,,,,,,,,,,,,,,,,,,,,,1319.7217,1329.9677,return,10.2358,,,,,,,,,,,,,,,,,,,
,,,,,SPR24_037,18,F,2024-04-11_10h28.35.257,jersey_experiment_5_v0,2023.2.2,Win32,85.47008547,,,,,,,,,,,,,,,,,,,,,,,,,,,,,,,,,,,,,,,,,,,,,,,,,,,,,,,,,,,,,1329.9678,1337.9055,1,4.2069,return,3.708,,,,,,,,,,,,
,,,,,SPR24_037,18,F,2024-04-11_10h28.35.257,jersey_experiment_5_v0,2023.2.2,Win32,85.47008547,,,,,,,,,,,,,,,,,,,,,,,,,,,,,,,,,,,,,,,,,,,,,,,,,,,,,,,,,,,,,,,,,,,,1337.9056,1412.7603,How different bodies can be perceived.,right,49.8702,,,,,,
,,,,,SPR24_037,18,F,2024-04-11_10h28.35.257,jersey_experiment_5_v0,2023.2.2,Win32,85.47008547,,,,,,,,,,,,,,,,,,,,,,,,,,,,,,,,,,,,,,,,,,,,,,,,,,,,,,,,,,,,,,,,,,,,,,,,,,1412.7604,1419.8027,return,7.0305,