requirements.started,requirements.stopped,key_resp_3.keys,key_resp_3.rt,key_resp_3.duration,Subject ID,Age,Gender,date,expName,psychopyVersion,OS,frameRate,instructions1.started,instructions1.stopped,key_resp.keys,key_resp.rt,key_resp.duration,example.started,example.stopped,enter_2.keys,enter_2.rt,enter_2.duration,instructions2.started,instructions2.stopped,enter_3.keys,enter_3.rt,enter_3.duration,image.started,image.stopped,slider_2.started,slider_2.stopped,next.keys,next.rt,next.duration,slider.response,trial_block_1.thisRepN,trial_block_1.thisTrialN,trial_block_1.thisN,trial_block_1.thisIndex,trial_block_1.ran,Path,Width,Height,Index,Duration,trial_block_2.thisRepN,trial_block_2.thisTrialN,trial_block_2.thisN,trial_block_2.thisIndex,trial_block_2.ran,rest_break.started,rest_break.stopped,end_break.started,end_break.stopped,key_resp_5.keys,key_resp_5.rt,key_resp_5.duration,trial_block_3.thisRepN,trial_block_3.thisTrialN,trial_block_3.thisN,trial_block_3.thisIndex,trial_block_3.ran,trial_block_4.thisRepN,trial_block_4.thisTrialN,trial_block_4.thisN,trial_block_4.thisIndex,trial_block_4.ran,questions_intro.started,questions_intro.stopped,enter_12.keys,enter_12.rt,enter_12.duration,question2.started,question2.stopped,question_doingbest.response,question_doingbest.rt,enter_15.keys,enter_15.rt,enter_15.duration,pattern.started,pattern.stopped,pattern_2.text,enter_17.keys,enter_17.rt,enter_17.duration,thankyou.started,thankyou.stopped,enter_14.keys,enter_14.rt,enter_14.duration
0.0001,13.8168,return,13.8088,,SPR24_089,20,Female,2024-04-24_16h02.46.830,jersey_experiment_5_v0,2023.2.2,Win32,84.03361345,,,,,,,,,,,,,,,,,,,,,,,,,,,,,,,,,,,,,,,,,,,,,,,,,,,,,,,,,,,,,,,,,,,,,,,,,,,,,,
,,,,,SPR24_089,20,Female,2024-04-24_16h02.46.830,jersey_experiment_5_v0,2023.2.2,Win32,84.03361345,13.8169,27.9113,return,14.0884,,,,,,,,,,,,,,,,,,,,,,,,,,,,,,,,,,,,,,,,,,,,,,,,,,,,,,,,,,,,,,,,,,,,,,,,,,
,,,,,SPR24_089,20,Female,2024-04-24_16h02.46.830,jersey_experiment_5_v0,2023.2.2,Win32,84.03361345,,,,,,27.9115,40.3587,return,12.4191,,,,,,,,,,,,,,,,,,,,,,,,,,,,,,,,,,,,,,,,,,,,,,,,,,,,,,,,,,,,,,,,,,,,,
,,,,,SPR24_089,20,Female,2024-04-24_16h02.46.830,jersey_experiment_5_v0,2023.2.2,Win32,84.03361345,,,,,,,,,,,40.3588,88.5254,return,48.1551,,,,,,,,,,,,,,,,,,,,,,,,,,,,,,,,,,,,,,,,,,,,,,,,,,,,,,,,,,,,,,,,
,,,,,SPR24_089,20,Female,2024-04-24_16h02.46.830,jersey_experiment_5_v0,2023.2.2,Win32,84.03361345,,,,,,,,,,,,,,,,88.5314,89.5838,89.5838,97.9487,return,1.6577,,49.86979167,0,0,0,59,1,FBP-PT-19.png,0.45,1.2,60,0.25,,,,,,,,,,,,,,,,,,,,,,,,,,,,,,,,,,,,,,,,,,,,,
,,,,,SPR24_089,20,Female,2024-04-24_16h02.46.830,jersey_experiment_5_v0,2023.2.2,Win32,84.03361345,,,,,,,,,,,,,,,,97.949,99.2429,99.243,102.7489,return,1.0828,,49.86979167,0,1,1,37,1,FBP-RB-18.png,0.4,1.2,38,0.5,,,,,,,,,,,,,,,,,,,,,,,,,,,,,,,,,,,,,,,,,,,,,
,,,,,SPR24_089,20,Female,2024-04-24_16h02.46.830,jersey_experiment_5_v0,2023.2.2,Win32,84.03361345,,,,,,,,,,,,,,,,102.7491,104.043,104.043,107.7022,return,2.0191,,49.86979167,0,2,2,31,1,FBP-RB-17.png,0.37,1.2,32,0.5,,,,,,,,,,,,,,,,,,,,,,,,,,,,,,,,,,,,,,,,,,,,,
,,,,,SPR24_089,20,Female,2024-04-24_16h02.46.830,jersey_experiment_5_v0,2023.2.2,Win32,84.03361345,,,,,,,,,,,,,,,,107.7025,108.749,108.749,110.808,return,0.5442,,33.984375,0,3,3,27,1,FBP-YG-19.png,0.4,1.2,28,0.25,,,,,,,,,,,,,,,,,,,,,,,,,,,,,,,,,,,,,,,,,,,,,
,,,,,SPR24_089,20,Female,2024-04-24_16h02.46.830,jersey_experiment_5_v0,2023.2.2,Win32,84.03361345,,,,,,,,,,,,,,,,110.8082,111.855,111.8551,114.3493,return,0.3765,,71.74479167,0,4,4,28,1,FBP-YG-19.png,0.43,1.2,29,0.25,,,,,,,,,,,,,,,,,,,,,,,,,,,,,,,,,,,,,,,,,,,,,
,,,,,SPR24_089,20,Female,2024-04-24_16h02.46.830,jersey_experiment_5_v0,2023.2.2,Win32,84.03361345,,,,,,,,,,,,,,,,114.3495,115.6434,115.6435,118.3964,return,0.6126,,50.390625,0,5,5,36,1,FBP-RB-18.png,0.37,1.2,37,0.5,,,,,,,,,,,,,,,,,,,,,,,,,,,,,,,,,,,,,,,,,,,,,
,,,,,SPR24_089,20,Female,2024-04-24_16h02.46.830,jersey_experiment_5_v0,2023.2.2,Win32,84.03361345,,,,,,,,,,,,,,,,118.3967,119.4437,119.4437,121.5614,return,0.4259,,91.40625,0,6,6,19,1,FBP-YG-17.png,0.45,1.2,20,0.25,,,,,,,,,,,,,,,,,,,,,,,,,,,,,,,,,,,,,,,,,,,,,
,,,,,SPR24_089,20,Female,2024-04-24_16h02.46.830,jersey_experiment_5_v0,2023.2.2,Win32,84.03361345,,,,,,,,,,,,,,,,121.5616,122.6084,122.6084,125.4321,return,0.4391,,69.53125,0,7,7,58,1,FBP-PT-19.png,0.43,1.2,59,0.25,,,,,,,,,,,,,,,,,,,,,,,,,,,,,,,,,,,,,,,,,,,,,
,,,,,SPR24_089,20,Female,2024-04-24_16h02.46.830,jersey_experiment_5_v0,2023.2.2,Win32,84.03361345,,,,,,,,,,,,,,,,125.4322,126.7263,126.7263,129.2794,return,0.4135,,26.04166667,0,8,8,30,1,FBP-RB-17.png,0.35,1.2,31,0.5,,,,,,,,,,,,,,,,,,,,,,,,,,,,,,,,,,,,,,,,,,,,,
,,,,,SPR24_089,20,Female,2024-04-24_16h02.46.830,jersey_experiment_5_v0,2023.2.2,Win32,84.03361345,,,,,,,,,,,,,,,,129.2796,130.5734,130.5735,132.2558,return,0.1882,,47.52604167,0,9,9,2,1,FBP-OG-71.png,0.4,1.2,3,0.5,,,,,,,,,,,,,,,,,,,,,,,,,,,,,,,,,,,,,,,,,,,,,
,,,,,SPR24_089,20,Female,2024-04-24_16h02.46.830,jersey_experiment_5_v0,2023.2.2,Win32,84.03361345,,,,,,,,,,,,,,,,132.256,133.3028,133.3029,134.9972,return,0.3495,,33.46354167,0,10,10,51,1,FBP-PT-18.png,0.37,1.2,52,0.25,,,,,,,,,,,,,,,,,,,,,,,,,,,,,,,,,,,,,,,,,,,,,
,,,,,SPR24_089,20,Female,2024-04-24_16h02.46.830,jersey_experiment_5_v0,2023.2.2,Win32,84.03361345,,,,,,,,,,,,,,,,134.9973,136.0443,136.0443,137.4561,return,0.1737,,18.359375,0,11,11,55,1,FBP-PT-19.png,0.35,1.2,56,0.25,,,,,,,,,,,,,,,,,,,,,,,,,,,,,,,,,,,,,,,,,,,,,
,,,,,SPR24_089,20,Female,2024-04-24_16h02.46.830,jersey_experiment_5_v0,2023.2.2,Win32,84.03361345,,,,,,,,,,,,,,,,137.4564,138.7502,138.7502,140.668,return,0.1548,,52.99479167,0,12,12,42,1,FBP-RB-19.png,0.4,1.2,43,0.5,,,,,,,,,,,,,,,,,,,,,,,,,,,,,,,,,,,,,,,,,,,,,
,,,,,SPR24_089,20,Female,2024-04-24_16h02.46.830,jersey_experiment_5_v0,2023.2.2,Win32,84.03361345,,,,,,,,,,,,,,,,140.6682,141.715,141.715,143.5738,return,0.5586,,27.99479167,0,13,13,50,1,FBP-PT-18.png,0.35,1.2,51,0.25,,,,,,,,,,,,,,,,,,,,,,,,,,,,,,,,,,,,,,,,,,,,,
,,,,,SPR24_089,20,Female,2024-04-24_16h02.46.830,jersey_experiment_5_v0,2023.2.2,Win32,84.03361345,,,,,,,,,,,,,,,,143.574,144.6211,144.6211,145.7269,return,0.1185,,41.14583333,0,14,14,56,1,FBP-PT-19.png,0.37,1.2,57,0.25,,,,,,,,,,,,,,,,,,,,,,,,,,,,,,,,,,,,,,,,,,,,,
,,,,,SPR24_089,20,Female,2024-04-24_16h02.46.830,jersey_experiment_5_v0,2023.2.2,Win32,84.03361345,,,,,,,,,,,,,,,,145.7271,146.774,146.774,148.1976,return,0.147,,21.61458333,0,15,15,21,1,FBP-YG-18.png,0.37,1.2,22,0.25,,,,,,,,,,,,,,,,,,,,,,,,,,,,,,,,,,,,,,,,,,,,,
,,,,,SPR24_089,20,Female,2024-04-24_16h02.46.830,jersey_experiment_5_v0,2023.2.2,Win32,84.03361345,,,,,,,,,,,,,,,,148.1978,149.4918,149.4919,150.4566,return,0.205,,13.41145833,0,16,16,40,1,FBP-RB-19.png,0.35,1.2,41,0.5,,,,,,,,,,,,,,,,,,,,,,,,,,,,,,,,,,,,,,,,,,,,,
,,,,,SPR24_089,20,Female,2024-04-24_16h02.46.830,jersey_experiment_5_v0,2023.2.2,Win32,84.03361345,,,,,,,,,,,,,,,,150.4568,151.7507,151.7507,153.5509,return,0.3867,,67.05729167,0,17,17,11,1,FBP-OG-91.png,0.37,1.2,12,0.5,,,,,,,,,,,,,,,,,,,,,,,,,,,,,,,,,,,,,,,,,,,,,
,,,,,SPR24_089,20,Female,2024-04-24_16h02.46.830,jersey_experiment_5_v0,2023.2.2,Win32,84.03361345,,,,,,,,,,,,,,,,153.5511,154.5978,154.5978,156.2802,return,0.1225,,50.65104167,0,18,18,17,1,FBP-YG-17.png,0.4,1.2,18,0.25,,,,,,,,,,,,,,,,,,,,,,,,,,,,,,,,,,,,,,,,,,,,,
,,,,,SPR24_089,20,Female,2024-04-24_16h02.46.830,jersey_experiment_5_v0,2023.2.2,Win32,84.03361345,,,,,,,,,,,,,,,,156.2804,157.3274,157.3274,158.492,return,0.1426,,66.015625,0,19,19,52,1,FBP-PT-18.png,0.4,1.2,53,0.25,,,,,,,,,,,,,,,,,,,,,,,,,,,,,,,,,,,,,,,,,,,,,
,,,,,SPR24_089,20,Female,2024-04-24_16h02.46.830,jersey_experiment_5_v0,2023.2.2,Win32,84.03361345,,,,,,,,,,,,,,,,158.4922,159.5392,159.5392,160.5392,return,0.1196,,76.953125,0,20,20,57,1,FBP-PT-19.png,0.4,1.2,58,0.25,,,,,,,,,,,,,,,,,,,,,,,,,,,,,,,,,,,,,,,,,,,,,
,,,,,SPR24_089,20,Female,2024-04-24_16h02.46.830,jersey_experiment_5_v0,2023.2.2,Win32,84.03361345,,,,,,,,,,,,,,,,160.5394,161.5863,161.5863,162.5747,return,0.119,,80.078125,0,21,21,29,1,FBP-YG-19.png,0.45,1.2,30,0.25,,,,,,,,,,,,,,,,,,,,,,,,,,,,,,,,,,,,,,,,,,,,,
,,,,,SPR24_089,20,Female,2024-04-24_16h02.46.830,jersey_experiment_5_v0,2023.2.2,Win32,84.03361345,,,,,,,,,,,,,,,,162.5749,163.6216,163.6217,164.8217,return,0.1489,,33.46354167,0,22,22,26,1,FBP-YG-19.png,0.37,1.2,27,0.25,,,,,,,,,,,,,,,,,,,,,,,,,,,,,,,,,,,,,,,,,,,,,
,,,,,SPR24_089,20,Female,2024-04-24_16h02.46.830,jersey_experiment_5_v0,2023.2.2,Win32,84.03361345,,,,,,,,,,,,,,,,164.8218,165.8689,165.8689,167.2923,return,0.142,,46.22395833,0,23,23,16,1,FBP-YG-17.png,0.37,1.2,17,0.25,,,,,,,,,,,,,,,,,,,,,,,,,,,,,,,,,,,,,,,,,,,,,
,,,,,SPR24_089,20,Female,2024-04-24_16h02.46.830,jersey_experiment_5_v0,2023.2.2,Win32,84.03361345,,,,,,,,,,,,,,,,167.2926,168.3394,168.3395,169.4219,return,0.0845,,79.94791667,0,24,24,18,1,FBP-YG-17.png,0.43,1.2,19,0.25,,,,,,,,,,,,,,,,,,,,,,,,,,,,,,,,,,,,,,,,,,,,,
,,,,,SPR24_089,20,Female,2024-04-24_16h02.46.830,jersey_experiment_5_v0,2023.2.2,Win32,84.03361345,,,,,,,,,,,,,,,,169.4221,170.7162,170.7162,171.3513,return,0.1455,,78.25520833,0,25,25,43,1,FBP-RB-19.png,0.43,1.2,44,0.5,,,,,,,,,,,,,,,,,,,,,,,,,,,,,,,,,,,,,,,,,,,,,
,,,,,SPR24_089,20,Female,2024-04-24_16h02.46.830,jersey_experiment_5_v0,2023.2.2,Win32,84.03361345,,,,,,,,,,,,,,,,171.3516,172.6457,172.6457,173.3515,return,0.0984,,78.25520833,0,26,26,44,1,FBP-RB-19.png,0.45,1.2,45,0.5,,,,,,,,,,,,,,,,,,,,,,,,,,,,,,,,,,,,,,,,,,,,,
,,,,,SPR24_089,20,Female,2024-04-24_16h02.46.830,jersey_experiment_5_v0,2023.2.2,Win32,84.03361345,,,,,,,,,,,,,,,,173.3516,174.6457,174.6457,175.1162,return,0.0951,,78.25520833,0,27,27,12,1,FBP-OG-91.png,0.4,1.2,13,0.5,,,,,,,,,,,,,,,,,,,,,,,,,,,,,,,,,,,,,,,,,,,,,
,,,,,SPR24_089,20,Female,2024-04-24_16h02.46.830,jersey_experiment_5_v0,2023.2.2,Win32,84.03361345,,,,,,,,,,,,,,,,175.1164,176.4103,176.4103,176.9987,return,0.1598,,78.25520833,0,28,28,4,1,FBP-OG-71.png,0.45,1.2,5,0.5,,,,,,,,,,,,,,,,,,,,,,,,,,,,,,,,,,,,,,,,,,,,,
,,,,,SPR24_089,20,Female,2024-04-24_16h02.46.830,jersey_experiment_5_v0,2023.2.2,Win32,84.03361345,,,,,,,,,,,,,,,,176.9988,178.0457,178.0457,179.5635,return,0.0944,,50.91145833,0,29,29,46,1,FBP-PT-17.png,0.37,1.2,47,0.25,,,,,,,,,,,,,,,,,,,,,,,,,,,,,,,,,,,,,,,,,,,,,
,,,,,SPR24_089,20,Female,2024-04-24_16h02.46.830,jersey_experiment_5_v0,2023.2.2,Win32,84.03361345,,,,,,,,,,,,,,,,179.5636,180.8577,180.8577,182.3517,return,0.1509,,14.453125,0,30,30,35,1,FBP-RB-18.png,0.35,1.2,36,0.5,,,,,,,,,,,,,,,,,,,,,,,,,,,,,,,,,,,,,,,,,,,,,
,,,,,SPR24_089,20,Female,2024-04-24_16h02.46.830,jersey_experiment_5_v0,2023.2.2,Win32,84.03361345,,,,,,,,,,,,,,,,182.3518,183.6459,183.6459,184.646,return,0.122,,49.21875,0,31,31,3,1,FBP-OG-71.png,0.43,1.2,4,0.5,,,,,,,,,,,,,,,,,,,,,,,,,,,,,,,,,,,,,,,,,,,,,
,,,,,SPR24_089,20,Female,2024-04-24_16h02.46.830,jersey_experiment_5_v0,2023.2.2,Win32,84.03361345,,,,,,,,,,,,,,,,184.6461,185.9401,185.9402,186.8696,return,0.0884,,70.83333333,0,32,32,13,1,FBP-OG-91.png,0.43,1.2,14,0.5,,,,,,,,,,,,,,,,,,,,,,,,,,,,,,,,,,,,,,,,,,,,,
,,,,,SPR24_089,20,Female,2024-04-24_16h02.46.830,jersey_experiment_5_v0,2023.2.2,Win32,84.03361345,,,,,,,,,,,,,,,,186.8698,187.9168,187.9168,188.9993,return,0.1448,,43.61979167,0,33,33,20,1,FBP-YG-18.png,0.35,1.2,21,0.25,,,,,,,,,,,,,,,,,,,,,,,,,,,,,,,,,,,,,,,,,,,,,
,,,,,SPR24_089,20,Female,2024-04-24_16h02.46.830,jersey_experiment_5_v0,2023.2.2,Win32,84.03361345,,,,,,,,,,,,,,,,188.9994,190.2933,190.2933,191.3404,return,0.1655,,75,0,34,34,9,1,FBP-OG-81.png,0.45,1.2,10,0.5,,,,,,,,,,,,,,,,,,,,,,,,,,,,,,,,,,,,,,,,,,,,,
,,,,,SPR24_089,20,Female,2024-04-24_16h02.46.830,jersey_experiment_5_v0,2023.2.2,Win32,84.03361345,,,,,,,,,,,,,,,,191.3405,192.3874,192.3874,193.7404,return,0.2124,,77.60416667,0,35,35,48,1,FBP-PT-17.png,0.43,1.2,49,0.25,,,,,,,,,,,,,,,,,,,,,,,,,,,,,,,,,,,,,,,,,,,,,
,,,,,SPR24_089,20,Female,2024-04-24_16h02.46.830,jersey_experiment_5_v0,2023.2.2,Win32,84.03361345,,,,,,,,,,,,,,,,193.7405,195.0347,195.0347,195.7994,return,0.0882,,73.4375,0,36,36,41,1,FBP-RB-19.png,0.37,1.2,42,0.5,,,,,,,,,,,,,,,,,,,,,,,,,,,,,,,,,,,,,,,,,,,,,
,,,,,SPR24_089,20,Female,2024-04-24_16h02.46.830,jersey_experiment_5_v0,2023.2.2,Win32,84.03361345,,,,,,,,,,,,,,,,195.7996,196.8462,196.8463,197.5169,return,0.0709,,72.00520833,0,37,37,22,1,FBP-YG-18.png,0.4,1.2,23,0.25,,,,,,,,,,,,,,,,,,,,,,,,,,,,,,,,,,,,,,,,,,,,,
,,,,,SPR24_089,20,Female,2024-04-24_16h02.46.830,jersey_experiment_5_v0,2023.2.2,Win32,84.03361345,,,,,,,,,,,,,,,,197.5171,198.8111,198.8111,199.7054,return,0.0256,,50.26041667,0,38,38,6,1,FBP-OG-81.png,0.37,1.2,7,0.5,,,,,,,,,,,,,,,,,,,,,,,,,,,,,,,,,,,,,,,,,,,,,
,,,,,SPR24_089,20,Female,2024-04-24_16h02.46.830,jersey_experiment_5_v0,2023.2.2,Win32,84.03361345,,,,,,,,,,,,,,,,199.7055,200.7524,200.7525,202.2702,return,0.0943,,25.65104167,0,39,39,25,1,FBP-YG-19.png,0.35,1.2,26,0.25,,,,,,,,,,,,,,,,,,,,,,,,,,,,,,,,,,,,,,,,,,,,,
,,,,,SPR24_089,20,Female,2024-04-24_16h02.46.830,jersey_experiment_5_v0,2023.2.2,Win32,84.03361345,,,,,,,,,,,,,,,,202.2705,203.5642,203.5643,205.4349,return,0.0584,,74.86979167,0,40,40,14,1,FBP-OG-91.png,0.45,1.2,15,0.5,,,,,,,,,,,,,,,,,,,,,,,,,,,,,,,,,,,,,,,,,,,,,
,,,,,SPR24_089,20,Female,2024-04-24_16h02.46.830,jersey_experiment_5_v0,2023.2.2,Win32,84.03361345,,,,,,,,,,,,,,,,205.435,206.482,206.4821,207.0938,return,0.0293,,73.30729167,0,41,41,47,1,FBP-PT-17.png,0.4,1.2,48,0.25,,,,,,,,,,,,,,,,,,,,,,,,,,,,,,,,,,,,,,,,,,,,,
,,,,,SPR24_089,20,Female,2024-04-24_16h02.46.830,jersey_experiment_5_v0,2023.2.2,Win32,84.03361345,,,,,,,,,,,,,,,,207.0941,208.3881,208.3881,209.7174,return,0.2188,,4.036458333,0,42,42,5,1,FBP-OG-81.png,0.35,1.2,6,0.5,,,,,,,,,,,,,,,,,,,,,,,,,,,,,,,,,,,,,,,,,,,,,
,,,,,SPR24_089,20,Female,2024-04-24_16h02.46.830,jersey_experiment_5_v0,2023.2.2,Win32,84.03361345,,,,,,,,,,,,,,,,209.7176,210.7646,210.7646,212.3409,return,0.0762,,52.734375,0,43,43,23,1,FBP-YG-18.png,0.43,1.2,24,0.25,,,,,,,,,,,,,,,,,,,,,,,,,,,,,,,,,,,,,,,,,,,,,
,,,,,SPR24_089,20,Female,2024-04-24_16h02.46.830,jersey_experiment_5_v0,2023.2.2,Win32,84.03361345,,,,,,,,,,,,,,,,212.3411,213.6352,213.6352,214.8589,return,0.1419,,68.88020833,0,44,44,1,1,FBP-OG-71.png,0.37,1.2,2,0.5,,,,,,,,,,,,,,,,,,,,,,,,,,,,,,,,,,,,,,,,,,,,,
,,,,,SPR24_089,20,Female,2024-04-24_16h02.46.830,jersey_experiment_5_v0,2023.2.2,Win32,84.03361345,,,,,,,,,,,,,,,,214.8591,215.9059,215.9059,217.8471,return,0.8276,,80.72916667,0,45,45,53,1,FBP-PT-18.png,0.43,1.2,54,0.25,,,,,,,,,,,,,,,,,,,,,,,,,,,,,,,,,,,,,,,,,,,,,
,,,,,SPR24_089,20,Female,2024-04-24_16h02.46.830,jersey_experiment_5_v0,2023.2.2,Win32,84.03361345,,,,,,,,,,,,,,,,217.8473,218.8943,218.8943,220.4589,return,0.1317,,19.921875,0,46,46,15,1,FBP-YG-17.png,0.35,1.2,16,0.25,,,,,,,,,,,,,,,,,,,,,,,,,,,,,,,,,,,,,,,,,,,,,
,,,,,SPR24_089,20,Female,2024-04-24_16h02.46.830,jersey_experiment_5_v0,2023.2.2,Win32,84.03361345,,,,,,,,,,,,,,,,220.4592,221.7531,221.7531,222.7415,return,0.1134,,23.4375,0,47,47,32,1,FBP-RB-17.png,0.4,1.2,33,0.5,,,,,,,,,,,,,,,,,,,,,,,,,,,,,,,,,,,,,,,,,,,,,
,,,,,SPR24_089,20,Female,2024-04-24_16h02.46.830,jersey_experiment_5_v0,2023.2.2,Win32,84.03361345,,,,,,,,,,,,,,,,222.7418,224.0356,224.0357,225.024,return,0.1178,,8.203125,0,48,48,7,1,FBP-OG-81.png,0.4,1.2,8,0.5,,,,,,,,,,,,,,,,,,,,,,,,,,,,,,,,,,,,,,,,,,,,,
,,,,,SPR24_089,20,Female,2024-04-24_16h02.46.830,jersey_experiment_5_v0,2023.2.2,Win32,84.03361345,,,,,,,,,,,,,,,,225.0241,226.0709,226.0709,227.9298,return,0.1072,,74.08854167,0,49,49,49,1,FBP-PT-17.png,0.45,1.2,50,0.25,,,,,,,,,,,,,,,,,,,,,,,,,,,,,,,,,,,,,,,,,,,,,
,,,,,SPR24_089,20,Female,2024-04-24_16h02.46.830,jersey_experiment_5_v0,2023.2.2,Win32,84.03361345,,,,,,,,,,,,,,,,227.93,228.9771,228.9772,229.9653,return,0.1079,,75.13020833,0,50,50,24,1,FBP-YG-18.png,0.45,1.2,25,0.25,,,,,,,,,,,,,,,,,,,,,,,,,,,,,,,,,,,,,,,,,,,,,
,,,,,SPR24_089,20,Female,2024-04-24_16h02.46.830,jersey_experiment_5_v0,2023.2.2,Win32,84.03361345,,,,,,,,,,,,,,,,229.9655,231.2594,231.2595,231.8477,return,0.1683,,74.34895833,0,51,51,8,1,FBP-OG-81.png,0.43,1.2,9,0.5,,,,,,,,,,,,,,,,,,,,,,,,,,,,,,,,,,,,,,,,,,,,,
,,,,,SPR24_089,20,Female,2024-04-24_16h02.46.830,jersey_experiment_5_v0,2023.2.2,Win32,84.03361345,,,,,,,,,,,,,,,,231.8478,233.1419,233.1419,234.8713,return,0.2175,,55.98958333,0,52,52,33,1,FBP-RB-17.png,0.43,1.2,34,0.5,,,,,,,,,,,,,,,,,,,,,,,,,,,,,,,,,,,,,,,,,,,,,
,,,,,SPR24_089,20,Female,2024-04-24_16h02.46.830,jersey_experiment_5_v0,2023.2.2,Win32,84.03361345,,,,,,,,,,,,,,,,234.8715,236.1653,236.1653,237.1185,return,0.118,,79.03645833,0,53,53,34,1,FBP-RB-17.png,0.45,1.2,35,0.5,,,,,,,,,,,,,,,,,,,,,,,,,,,,,,,,,,,,,,,,,,,,,
,,,,,SPR24_089,20,Female,2024-04-24_16h02.46.830,jersey_experiment_5_v0,2023.2.2,Win32,84.03361345,,,,,,,,,,,,,,,,237.1187,238.4126,238.4126,238.9185,return,0.1716,,78.90625,0,54,54,39,1,FBP-RB-18.png,0.45,1.2,40,0.5,,,,,,,,,,,,,,,,,,,,,,,,,,,,,,,,,,,,,,,,,,,,,
,,,,,SPR24_089,20,Female,2024-04-24_16h02.46.830,jersey_experiment_5_v0,2023.2.2,Win32,84.03361345,,,,,,,,,,,,,,,,238.9186,240.2128,240.2128,241.2128,return,0.1177,,21.09375,0,55,55,0,1,FBP-OG-71.png,0.35,1.2,1,0.5,,,,,,,,,,,,,,,,,,,,,,,,,,,,,,,,,,,,,,,,,,,,,
,,,,,SPR24_089,20,Female,2024-04-24_16h02.46.830,jersey_experiment_5_v0,2023.2.2,Win32,84.03361345,,,,,,,,,,,,,,,,241.213,242.5069,242.5069,243.5422,return,0.1465,,54.16666667,0,56,56,38,1,FBP-RB-18.png,0.43,1.2,39,0.5,,,,,,,,,,,,,,,,,,,,,,,,,,,,,,,,,,,,,,,,,,,,,
,,,,,SPR24_089,20,Female,2024-04-24_16h02.46.830,jersey_experiment_5_v0,2023.2.2,Win32,84.03361345,,,,,,,,,,,,,,,,243.5424,244.8363,244.8363,245.6247,return,0.1554,,36.45833333,0,57,57,10,1,FBP-OG-91.png,0.35,1.2,11,0.5,,,,,,,,,,,,,,,,,,,,,,,,,,,,,,,,,,,,,,,,,,,,,
,,,,,SPR24_089,20,Female,2024-04-24_16h02.46.830,jersey_experiment_5_v0,2023.2.2,Win32,84.03361345,,,,,,,,,,,,,,,,245.6248,246.6717,246.6717,248.0363,return,0.5713,,17.1875,0,58,58,45,1,FBP-PT-17.png,0.35,1.2,46,0.25,,,,,,,,,,,,,,,,,,,,,,,,,,,,,,,,,,,,,,,,,,,,,
,,,,,SPR24_089,20,Female,2024-04-24_16h02.46.830,jersey_experiment_5_v0,2023.2.2,Win32,84.03361345,,,,,,,,,,,,,,,,248.0366,249.0836,249.0836,250.8249,return,0.2261,,35.9375,0,59,59,54,1,FBP-PT-18.png,0.45,1.2,55,0.25,,,,,,,,,,,,,,,,,,,,,,,,,,,,,,,,,,,,,,,,,,,,,
,,,,,SPR24_089,20,Female,2024-04-24_16h02.46.830,jersey_experiment_5_v0,2023.2.2,Win32,84.03361345,,,,,,,,,,,,,,,,250.8261,252.1189,252.119,253.0485,return,0.1441,,51.04166667,,,,,,FBP-RB-71.png,0.45,1.2,35,0.5,0,0,0,34,1,,,,,,,,,,,,,,,,,,,,,,,,,,,,,,,,,,,,,,,,
,,,,,SPR24_089,20,Female,2024-04-24_16h02.46.830,jersey_experiment_5_v0,2023.2.2,Win32,84.03361345,,,,,,,,,,,,,,,,253.0488,254.3428,254.3428,255.1662,return,0.1181,,25.91145833,,,,,,FBP-OG-19.png,0.4,1.2,13,0.5,0,1,1,12,1,,,,,,,,,,,,,,,,,,,,,,,,,,,,,,,,,,,,,,,,
,,,,,SPR24_089,20,Female,2024-04-24_16h02.46.830,jersey_experiment_5_v0,2023.2.2,Win32,84.03361345,,,,,,,,,,,,,,,,255.1665,256.4603,256.4604,257.6956,return,0.2586,,62.5,,,,,,FBP-RB-81.png,0.43,1.2,39,0.5,0,2,2,38,1,,,,,,,,,,,,,,,,,,,,,,,,,,,,,,,,,,,,,,,,
,,,,,SPR24_089,20,Female,2024-04-24_16h02.46.830,jersey_experiment_5_v0,2023.2.2,Win32,84.03361345,,,,,,,,,,,,,,,,257.6958,258.9899,258.99,259.6722,return,0.1462,,73.30729167,,,,,,FBP-RB-91.png,0.45,1.2,45,0.5,0,3,3,44,1,,,,,,,,,,,,,,,,,,,,,,,,,,,,,,,,,,,,,,,,
,,,,,SPR24_089,20,Female,2024-04-24_16h02.46.830,jersey_experiment_5_v0,2023.2.2,Win32,84.03361345,,,,,,,,,,,,,,,,259.6724,260.7194,260.7194,261.6957,return,0.0705,,83.59375,,,,,,FBP-PT-71.png,0.43,1.2,49,0.25,0,4,4,48,1,,,,,,,,,,,,,,,,,,,,,,,,,,,,,,,,,,,,,,,,
,,,,,SPR24_089,20,Female,2024-04-24_16h02.46.830,jersey_experiment_5_v0,2023.2.2,Win32,84.03361345,,,,,,,,,,,,,,,,261.6959,262.7428,262.7429,263.4017,return,0.1657,,83.59375,,,,,,FBP-PT-91.png,0.45,1.2,60,0.25,0,5,5,59,1,,,,,,,,,,,,,,,,,,,,,,,,,,,,,,,,,,,,,,,,
,,,,,SPR24_089,20,Female,2024-04-24_16h02.46.830,jersey_experiment_5_v0,2023.2.2,Win32,84.03361345,,,,,,,,,,,,,,,,263.4019,264.4488,264.4488,265.0488,return,0.0865,,83.59375,,,,,,FBP-YG-91.png,0.4,1.2,28,0.25,0,6,6,27,1,,,,,,,,,,,,,,,,,,,,,,,,,,,,,,,,,,,,,,,,
,,,,,SPR24_089,20,Female,2024-04-24_16h02.46.830,jersey_experiment_5_v0,2023.2.2,Win32,84.03361345,,,,,,,,,,,,,,,,265.049,266.0958,266.0959,267.1195,return,0.1184,,85.67708333,,,,,,FBP-PT-71.png,0.45,1.2,50,0.25,0,7,7,49,1,,,,,,,,,,,,,,,,,,,,,,,,,,,,,,,,,,,,,,,,
,,,,,SPR24_089,20,Female,2024-04-24_16h02.46.830,jersey_experiment_5_v0,2023.2.2,Win32,84.03361345,,,,,,,,,,,,,,,,267.1198,268.1666,268.1666,270.0724,return,0.7343,,71.484375,,,,,,FBP-YG-81.png,0.4,1.2,23,0.25,0,8,8,22,1,,,,,,,,,,,,,,,,,,,,,,,,,,,,,,,,,,,,,,,,
,,,,,SPR24_089,20,Female,2024-04-24_16h02.46.830,jersey_experiment_5_v0,2023.2.2,Win32,84.03361345,,,,,,,,,,,,,,,,270.0726,271.3667,271.3668,272.8725,return,0.6497,,76.82291667,,,,,,FBP-RB-91.png,0.4,1.2,43,0.5,0,9,9,42,1,,,,,,,,,,,,,,,,,,,,,,,,,,,,,,,,,,,,,,,,
,,,,,SPR24_089,20,Female,2024-04-24_16h02.46.830,jersey_experiment_5_v0,2023.2.2,Win32,84.03361345,,,,,,,,,,,,,,,,272.8726,273.9197,273.9197,276.2845,return,0.2693,,54.42708333,,,,,,FBP-PT-91.png,0.4,1.2,58,0.25,0,10,10,57,1,,,,,,,,,,,,,,,,,,,,,,,,,,,,,,,,,,,,,,,,
,,,,,SPR24_089,20,Female,2024-04-24_16h02.46.830,jersey_experiment_5_v0,2023.2.2,Win32,84.03361345,,,,,,,,,,,,,,,,276.2847,277.3316,277.3317,279.2611,return,0.2824,,74.609375,,,,,,FBP-PT-81.png,0.45,1.2,55,0.25,0,11,11,54,1,,,,,,,,,,,,,,,,,,,,,,,,,,,,,,,,,,,,,,,,
,,,,,SPR24_089,20,Female,2024-04-24_16h02.46.830,jersey_experiment_5_v0,2023.2.2,Win32,84.03361345,,,,,,,,,,,,,,,,279.2612,280.3082,280.3083,282.073,return,0.273,,85.41666667,,,,,,FBP-YG-71.png,0.45,1.2,20,0.25,0,12,12,19,1,,,,,,,,,,,,,,,,,,,,,,,,,,,,,,,,,,,,,,,,
,,,,,SPR24_089,20,Female,2024-04-24_16h02.46.830,jersey_experiment_5_v0,2023.2.2,Win32,84.03361345,,,,,,,,,,,,,,,,282.0731,283.3671,283.3671,285.0143,return,0.1573,,57.16145833,,,,,,FBP-OG-17.png,0.4,1.2,3,0.5,0,13,13,2,1,,,,,,,,,,,,,,,,,,,,,,,,,,,,,,,,,,,,,,,,
,,,,,SPR24_089,20,Female,2024-04-24_16h02.46.830,jersey_experiment_5_v0,2023.2.2,Win32,84.03361345,,,,,,,,,,,,,,,,285.0145,286.3084,286.3084,287.4379,return,0.1651,,6.25,,,,,,FBP-RB-81.png,0.35,1.2,36,0.5,0,14,14,35,1,,,,,,,,,,,,,,,,,,,,,,,,,,,,,,,,,,,,,,,,
,,,,,SPR24_089,20,Female,2024-04-24_16h02.46.830,jersey_experiment_5_v0,2023.2.2,Win32,84.03361345,,,,,,,,,,,,,,,,287.4381,288.4849,288.4849,289.4967,return,0.1574,,10.28645833,,,,,,FBP-YG-71.png,0.35,1.2,16,0.25,0,15,15,15,1,,,,,,,,,,,,,,,,,,,,,,,,,,,,,,,,,,,,,,,,
,,,,,SPR24_089,20,Female,2024-04-24_16h02.46.830,jersey_experiment_5_v0,2023.2.2,Win32,84.03361345,,,,,,,,,,,,,,,,289.497,290.5439,290.5439,292.0615,return,0.1181,,67.44791667,,,,,,FBP-YG-91.png,0.43,1.2,29,0.25,0,16,16,28,1,,,,,,,,,,,,,,,,,,,,,,,,,,,,,,,,,,,,,,,,
,,,,,SPR24_089,20,Female,2024-04-24_16h02.46.830,jersey_experiment_5_v0,2023.2.2,Win32,84.03361345,,,,,,,,,,,,,,,,292.0618,293.1087,293.1087,294.7911,return,0.1589,,43.359375,,,,,,FBP-YG-91.png,0.35,1.2,26,0.25,0,17,17,25,1,,,,,,,,,,,,,,,,,,,,,,,,,,,,,,,,,,,,,,,,
,,,,,SPR24_089,20,Female,2024-04-24_16h02.46.830,jersey_experiment_5_v0,2023.2.2,Win32,84.03361345,,,,,,,,,,,,,,,,294.7913,296.0853,296.0853,296.9677,return,0.0525,,61.06770833,,,,,,FBP-RB-71.png,0.4,1.2,33,0.5,0,18,18,32,1,,,,,,,,,,,,,,,,,,,,,,,,,,,,,,,,,,,,,,,,
,,,,,SPR24_089,20,Female,2024-04-24_16h02.46.830,jersey_experiment_5_v0,2023.2.2,Win32,84.03361345,,,,,,,,,,,,,,,,296.9679,298.0146,298.0147,299.3208,return,0.1085,,7.421875,,,,,,FBP-PT-91.png,0.35,1.2,56,0.25,0,19,19,55,1,,,,,,,,,,,,,,,,,,,,,,,,,,,,,,,,,,,,,,,,
,,,,,SPR24_089,20,Female,2024-04-24_16h02.46.830,jersey_experiment_5_v0,2023.2.2,Win32,84.03361345,,,,,,,,,,,,,,,,299.321,300.6148,300.6148,301.2856,return,0.0764,,21.35416667,,,,,,FBP-OG-19.png,0.37,1.2,12,0.5,0,20,20,11,1,,,,,,,,,,,,,,,,,,,,,,,,,,,,,,,,,,,,,,,,
,,,,,SPR24_089,20,Female,2024-04-24_16h02.46.830,jersey_experiment_5_v0,2023.2.2,Win32,84.03361345,,,,,,,,,,,,,,,,301.2857,302.3324,302.3326,304.1678,return,0.3912,,44.53125,,,,,,FBP-YG-71.png,0.37,1.2,17,0.25,0,21,21,16,1,,,,,,,,,,,,,,,,,,,,,,,,,,,,,,,,,,,,,,,,
,,,,,SPR24_089,20,Female,2024-04-24_16h02.46.830,jersey_experiment_5_v0,2023.2.2,Win32,84.03361345,,,,,,,,,,,,,,,,304.168,305.215,305.215,306.2621,return,0.1008,,27.08333333,,,,,,FBP-PT-81.png,0.35,1.2,51,0.25,0,22,22,50,1,,,,,,,,,,,,,,,,,,,,,,,,,,,,,,,,,,,,,,,,
,,,,,SPR24_089,20,Female,2024-04-24_16h02.46.830,jersey_experiment_5_v0,2023.2.2,Win32,84.03361345,,,,,,,,,,,,,,,,306.2622,307.5562,307.5562,308.7446,return,0.1577,,72.00520833,,,,,,FBP-RB-91.png,0.43,1.2,44,0.5,0,23,23,43,1,,,,,,,,,,,,,,,,,,,,,,,,,,,,,,,,,,,,,,,,
,,,,,SPR24_089,20,Female,2024-04-24_16h02.46.830,jersey_experiment_5_v0,2023.2.2,Win32,84.03361345,,,,,,,,,,,,,,,,308.7448,309.7917,309.7917,311.9446,return,0.1675,,72.78645833,,,,,,FBP-PT-71.png,0.4,1.2,48,0.25,0,24,24,47,1,,,,,,,,,,,,,,,,,,,,,,,,,,,,,,,,,,,,,,,,
,,,,,SPR24_089,20,Female,2024-04-24_16h02.46.830,jersey_experiment_5_v0,2023.2.2,Win32,84.03361345,,,,,,,,,,,,,,,,311.9448,312.9917,312.9917,313.8154,return,0.1106,,58.46354167,,,,,,FBP-YG-91.png,0.37,1.2,27,0.25,0,25,25,26,1,,,,,,,,,,,,,,,,,,,,,,,,,,,,,,,,,,,,,,,,
,,,,,SPR24_089,20,Female,2024-04-24_16h02.46.830,jersey_experiment_5_v0,2023.2.2,Win32,84.03361345,,,,,,,,,,,,,,,,313.8155,314.8624,314.8624,315.8036,return,0.155,,83.72395833,,,,,,FBP-YG-81.png,0.43,1.2,24,0.25,0,26,26,23,1,,,,,,,,,,,,,,,,,,,,,,,,,,,,,,,,,,,,,,,,
,,,,,SPR24_089,20,Female,2024-04-24_16h02.46.830,jersey_experiment_5_v0,2023.2.2,Win32,84.03361345,,,,,,,,,,,,,,,,315.8038,316.8506,316.8506,317.8978,return,0.1089,,27.34375,,,,,,FBP-PT-81.png,0.37,1.2,52,0.25,0,27,27,51,1,,,,,,,,,,,,,,,,,,,,,,,,,,,,,,,,,,,,,,,,
,,,,,SPR24_089,20,Female,2024-04-24_16h02.46.830,jersey_experiment_5_v0,2023.2.2,Win32,84.03361345,,,,,,,,,,,,,,,,317.898,318.9449,318.9449,319.6861,return,0.2412,,33.72395833,,,,,,FBP-YG-71.png,0.4,1.2,18,0.25,0,28,28,17,1,,,,,,,,,,,,,,,,,,,,,,,,,,,,,,,,,,,,,,,,
,,,,,SPR24_089,20,Female,2024-04-24_16h02.46.830,jersey_experiment_5_v0,2023.2.2,Win32,84.03361345,,,,,,,,,,,,,,,,319.6863,320.733,320.7332,321.6626,return,0.1558,,56.51041667,,,,,,FBP-YG-91.png,0.45,1.2,30,0.25,0,29,29,29,1,,,,,,,,,,,,,,,,,,,,,,,,,,,,,,,,,,,,,,,,
,,,,,SPR24_089,20,Female,2024-04-24_16h02.46.830,jersey_experiment_5_v0,2023.2.2,Win32,84.03361345,,,,,,,,,,,,,,,,321.6627,322.9568,322.9569,323.6745,return,0.1064,,58.59375,,,,,,FBP-RB-91.png,0.37,1.2,42,0.5,0,30,30,41,1,,,,,,,,,,,,,,,,,,,,,,,,,,,,,,,,,,,,,,,,
,,,,,SPR24_089,20,Female,2024-04-24_16h02.46.830,jersey_experiment_5_v0,2023.2.2,Win32,84.03361345,,,,,,,,,,,,,,,,323.6747,324.9686,324.9686,325.8157,return,0.123,,73.046875,,,,,,FBP-OG-17.png,0.45,1.2,5,0.5,0,31,31,4,1,,,,,,,,,,,,,,,,,,,,,,,,,,,,,,,,,,,,,,,,
,,,,,SPR24_089,20,Female,2024-04-24_16h02.46.830,jersey_experiment_5_v0,2023.2.2,Win32,84.03361345,,,,,,,,,,,,,,,,325.8158,327.1098,327.1098,327.7687,return,0.122,,80.98958333,,,,,,FBP-OG-17.png,0.43,1.2,4,0.5,0,32,32,3,1,,,,,,,,,,,,,,,,,,,,,,,,,,,,,,,,,,,,,,,,
,,,,,SPR24_089,20,Female,2024-04-24_16h02.46.830,jersey_experiment_5_v0,2023.2.2,Win32,84.03361345,,,,,,,,,,,,,,,,327.7688,329.0628,329.0628,329.6277,return,0.0122,,80.98958333,,,,,,FBP-OG-18.png,0.4,1.2,8,0.5,0,33,33,7,1,,,,,,,,,,,,,,,,,,,,,,,,,,,,,,,,,,,,,,,,
,,,,,SPR24_089,20,Female,2024-04-24_16h02.46.830,jersey_experiment_5_v0,2023.2.2,Win32,84.03361345,,,,,,,,,,,,,,,,329.6279,330.9219,330.9219,333.7101,return,1.0593,,18.88020833,,,,,,FBP-OG-17.png,0.35,1.2,1,0.5,0,34,34,0,1,,,,,,,,,,,,,,,,,,,,,,,,,,,,,,,,,,,,,,,,
,,,,,SPR24_089,20,Female,2024-04-24_16h02.46.830,jersey_experiment_5_v0,2023.2.2,Win32,84.03361345,,,,,,,,,,,,,,,,333.7103,335.0044,335.0044,336.228,return,0.1479,,47.65625,,,,,,FBP-RB-81.png,0.45,1.2,40,0.5,0,35,35,39,1,,,,,,,,,,,,,,,,,,,,,,,,,,,,,,,,,,,,,,,,
,,,,,SPR24_089,20,Female,2024-04-24_16h02.46.830,jersey_experiment_5_v0,2023.2.2,Win32,84.03361345,,,,,,,,,,,,,,,,336.2283,337.2749,337.2749,338.5339,return,0.1224,,22.91666667,,,,,,FBP-YG-81.png,0.35,1.2,21,0.25,0,36,36,20,1,,,,,,,,,,,,,,,,,,,,,,,,,,,,,,,,,,,,,,,,
,,,,,SPR24_089,20,Female,2024-04-24_16h02.46.830,jersey_experiment_5_v0,2023.2.2,Win32,84.03361345,,,,,,,,,,,,,,,,338.5341,339.828,339.828,341.1458,return,0.0957,,38.02083333,,,,,,FBP-RB-81.png,0.4,1.2,38,0.5,0,37,37,37,1,,,,,,,,,,,,,,,,,,,,,,,,,,,,,,,,,,,,,,,,
,,,,,SPR24_089,20,Female,2024-04-24_16h02.46.830,jersey_experiment_5_v0,2023.2.2,Win32,84.03361345,,,,,,,,,,,,,,,,341.146,342.1927,342.1927,343.181,return,0.1278,,20.18229167,,,,,,FBP-PT-91.png,0.37,1.2,57,0.25,0,38,38,56,1,,,,,,,,,,,,,,,,,,,,,,,,,,,,,,,,,,,,,,,,
,,,,,SPR24_089,20,Female,2024-04-24_16h02.46.830,jersey_experiment_5_v0,2023.2.2,Win32,84.03361345,,,,,,,,,,,,,,,,343.1812,344.4752,344.4752,345.0988,return,0.2256,,20.18229167,,,,,,FBP-OG-17.png,0.37,1.2,2,0.5,0,39,39,1,1,,,,,,,,,,,,,,,,,,,,,,,,,,,,,,,,,,,,,,,,
,,,,,SPR24_089,20,Female,2024-04-24_16h02.46.830,jersey_experiment_5_v0,2023.2.2,Win32,84.03361345,,,,,,,,,,,,,,,,345.099,346.393,346.3931,347.0518,return,0.1414,,20.18229167,,,,,,FBP-RB-81.png,0.37,1.2,37,0.5,0,40,40,36,1,,,,,,,,,,,,,,,,,,,,,,,,,,,,,,,,,,,,,,,,
,,,,,SPR24_089,20,Female,2024-04-24_16h02.46.830,jersey_experiment_5_v0,2023.2.2,Win32,84.03361345,,,,,,,,,,,,,,,,347.052,348.0988,348.0989,349.2401,return,0.1108,,5.598958333,,,,,,FBP-PT-71.png,0.37,1.2,47,0.25,0,41,41,46,1,,,,,,,,,,,,,,,,,,,,,,,,,,,,,,,,,,,,,,,,
,,,,,SPR24_089,20,Female,2024-04-24_16h02.46.830,jersey_experiment_5_v0,2023.2.2,Win32,84.03361345,,,,,,,,,,,,,,,,349.2403,350.5342,350.5342,351.7579,return,0.155,,21.484375,,,,,,FBP-OG-19.png,0.35,1.2,11,0.5,0,42,42,10,1,,,,,,,,,,,,,,,,,,,,,,,,,,,,,,,,,,,,,,,,
,,,,,SPR24_089,20,Female,2024-04-24_16h02.46.830,jersey_experiment_5_v0,2023.2.2,Win32,84.03361345,,,,,,,,,,,,,,,,351.758,352.8049,352.8049,353.9578,return,0.1345,,39.0625,,,,,,FBP-PT-81.png,0.4,1.2,53,0.25,0,43,43,52,1,,,,,,,,,,,,,,,,,,,,,,,,,,,,,,,,,,,,,,,,
,,,,,SPR24_089,20,Female,2024-04-24_16h02.46.830,jersey_experiment_5_v0,2023.2.2,Win32,84.03361345,,,,,,,,,,,,,,,,353.9579,355.252,355.2521,356.7934,return,0.2272,,52.734375,,,,,,FBP-OG-19.png,0.43,1.2,14,0.5,0,44,44,13,1,,,,,,,,,,,,,,,,,,,,,,,,,,,,,,,,,,,,,,,,
,,,,,SPR24_089,20,Female,2024-04-24_16h02.46.830,jersey_experiment_5_v0,2023.2.2,Win32,84.03361345,,,,,,,,,,,,,,,,356.7935,357.8404,357.8404,359.0052,return,0.0936,,76.171875,,,,,,FBP-PT-81.png,0.43,1.2,54,0.25,0,45,45,53,1,,,,,,,,,,,,,,,,,,,,,,,,,,,,,,,,,,,,,,,,
,,,,,SPR24_089,20,Female,2024-04-24_16h02.46.830,jersey_experiment_5_v0,2023.2.2,Win32,84.03361345,,,,,,,,,,,,,,,,359.0053,360.2994,360.2994,360.8875,return,0.051,,70.96354167,,,,,,FBP-RB-71.png,0.37,1.2,32,0.5,0,46,46,31,1,,,,,,,,,,,,,,,,,,,,,,,,,,,,,,,,,,,,,,,,
,,,,,SPR24_089,20,Female,2024-04-24_16h02.46.830,jersey_experiment_5_v0,2023.2.2,Win32,84.03361345,,,,,,,,,,,,,,,,360.8878,362.1819,362.1819,363.0758,return,0.0444,,82.68229167,,,,,,FBP-OG-18.png,0.45,1.2,10,0.5,0,47,47,9,1,,,,,,,,,,,,,,,,,,,,,,,,,,,,,,,,,,,,,,,,
,,,,,SPR24_089,20,Female,2024-04-24_16h02.46.830,jersey_experiment_5_v0,2023.2.2,Win32,84.03361345,,,,,,,,,,,,,,,,363.076,364.37,364.37,364.935,return,0.2164,,82.68229167,,,,,,FBP-OG-19.png,0.45,1.2,15,0.5,0,48,48,14,1,,,,,,,,,,,,,,,,,,,,,,,,,,,,,,,,,,,,,,,,
,,,,,SPR24_089,20,Female,2024-04-24_16h02.46.830,jersey_experiment_5_v0,2023.2.2,Win32,84.03361345,,,,,,,,,,,,,,,,364.9351,366.2289,366.2289,366.923,return,0.0961,,84.50520833,,,,,,FBP-OG-18.png,0.43,1.2,9,0.5,0,49,49,8,1,,,,,,,,,,,,,,,,,,,,,,,,,,,,,,,,,,,,,,,,
,,,,,SPR24_089,20,Female,2024-04-24_16h02.46.830,jersey_experiment_5_v0,2023.2.2,Win32,84.03361345,,,,,,,,,,,,,,,,366.9232,368.2173,368.2174,369.676,return,0.1421,,24.34895833,,,,,,FBP-OG-18.png,0.35,1.2,6,0.5,0,50,50,5,1,,,,,,,,,,,,,,,,,,,,,,,,,,,,,,,,,,,,,,,,
,,,,,SPR24_089,20,Female,2024-04-24_16h02.46.830,jersey_experiment_5_v0,2023.2.2,Win32,84.03361345,,,,,,,,,,,,,,,,369.6762,370.7232,370.7233,371.6409,return,0.1334,,16.40625,,,,,,FBP-PT-71.png,0.35,1.2,46,0.25,0,51,51,45,1,,,,,,,,,,,,,,,,,,,,,,,,,,,,,,,,,,,,,,,,
,,,,,SPR24_089,20,Female,2024-04-24_16h02.46.830,jersey_experiment_5_v0,2023.2.2,Win32,84.03361345,,,,,,,,,,,,,,,,371.6411,372.6879,372.688,374.1822,return,0.1832,,75.65104167,,,,,,FBP-PT-91.png,0.43,1.2,59,0.25,0,52,52,58,1,,,,,,,,,,,,,,,,,,,,,,,,,,,,,,,,,,,,,,,,
,,,,,SPR24_089,20,Female,2024-04-24_16h02.46.830,jersey_experiment_5_v0,2023.2.2,Win32,84.03361345,,,,,,,,,,,,,,,,374.1824,375.2293,375.2294,376.0058,return,0.054,,86.45833333,,,,,,FBP-YG-71.png,0.43,1.2,19,0.25,0,53,53,18,1,,,,,,,,,,,,,,,,,,,,,,,,,,,,,,,,,,,,,,,,
,,,,,SPR24_089,20,Female,2024-04-24_16h02.46.830,jersey_experiment_5_v0,2023.2.2,Win32,84.03361345,,,,,,,,,,,,,,,,376.006,377.053,377.053,377.9,return,0.0611,,70.96354167,,,,,,FBP-YG-81.png,0.37,1.2,22,0.25,0,54,54,21,1,,,,,,,,,,,,,,,,,,,,,,,,,,,,,,,,,,,,,,,,
,,,,,SPR24_089,20,Female,2024-04-24_16h02.46.830,jersey_experiment_5_v0,2023.2.2,Win32,84.03361345,,,,,,,,,,,,,,,,377.9002,379.1942,379.1942,379.8059,return,0.1646,,84.89583333,,,,,,FBP-RB-71.png,0.43,1.2,34,0.5,0,55,55,33,1,,,,,,,,,,,,,,,,,,,,,,,,,,,,,,,,,,,,,,,,
,,,,,SPR24_089,20,Female,2024-04-24_16h02.46.830,jersey_experiment_5_v0,2023.2.2,Win32,84.03361345,,,,,,,,,,,,,,,,379.8062,381.1001,381.1001,382.0532,return,0.158,,19.66145833,,,,,,FBP-OG-18.png,0.37,1.2,7,0.5,0,56,56,6,1,,,,,,,,,,,,,,,,,,,,,,,,,,,,,,,,,,,,,,,,
,,,,,SPR24_089,20,Female,2024-04-24_16h02.46.830,jersey_experiment_5_v0,2023.2.2,Win32,84.03361345,,,,,,,,,,,,,,,,382.0534,383.3471,383.3472,384.712,return,0.2733,,6.119791667,,,,,,FBP-RB-91.png,0.35,1.2,41,0.5,0,57,57,40,1,,,,,,,,,,,,,,,,,,,,,,,,,,,,,,,,,,,,,,,,
,,,,,SPR24_089,20,Female,2024-04-24_16h02.46.830,jersey_experiment_5_v0,2023.2.2,Win32,84.03361345,,,,,,,,,,,,,,,,384.7123,385.7591,385.7591,387.1591,return,0.1803,,36.71875,,,,,,FBP-YG-81.png,0.45,1.2,25,0.25,0,58,58,24,1,,,,,,,,,,,,,,,,,,,,,,,,,,,,,,,,,,,,,,,,
,,,,,SPR24_089,20,Female,2024-04-24_16h02.46.830,jersey_experiment_5_v0,2023.2.2,Win32,84.03361345,,,,,,,,,,,,,,,,387.1593,388.4532,388.4533,389.3592,return,0.2266,,31.640625,,,,,,FBP-RB-71.png,0.35,1.2,31,0.5,0,59,59,30,1,,,,,,,,,,,,,,,,,,,,,,,,,,,,,,,,,,,,,,,,
,,,,,SPR24_089,20,Female,2024-04-24_16h02.46.830,jersey_experiment_5_v0,2023.2.2,Win32,84.03361345,,,,,,,,,,,,,,,,,,,,,,,,,,,,,,,,,,,,,,,389.3595,509.352,,,,,,,,,,,,,,,,,,,,,,,,,,,,,,,,,,,,,,
,,,,,SPR24_089,20,Female,2024-04-24_16h02.46.830,jersey_experiment_5_v0,2023.2.2,Win32,84.03361345,,,,,,,,,,,,,,,,,,,,,,,,,,,,,,,,,,,,,,,,,509.3521,522.9879,return,13.6237,,,,,,,,,,,,,,,,,,,,,,,,,,,,,,,,,,
,,,,,SPR24_089,20,Female,2024-04-24_16h02.46.830,jersey_experiment_5_v0,2023.2.2,Win32,84.03361345,,,,,,,,,,,,,,,,522.9938,524.0463,524.0463,525.6229,return,0.145,,10.02604167,,,,,,FBP-RB-19.png,0.35,1.2,41,0.25,,,,,,,,,,,,,0,0,0,40,1,,,,,,,,,,,,,,,,,,,,,,,,,,,,
,,,,,SPR24_089,20,Female,2024-04-24_16h02.46.830,jersey_experiment_5_v0,2023.2.2,Win32,84.03361345,,,,,,,,,,,,,,,,525.6231,526.917,526.917,527.364,return,0.0438,,7.682291667,,,,,,FBP-PT-17.png,0.35,1.2,46,0.5,,,,,,,,,,,,,0,1,1,45,1,,,,,,,,,,,,,,,,,,,,,,,,,,,,
,,,,,SPR24_089,20,Female,2024-04-24_16h02.46.830,jersey_experiment_5_v0,2023.2.2,Win32,84.03361345,,,,,,,,,,,,,,,,527.3642,528.6583,528.6583,528.9642,return,0.1011,,7.682291667,,,,,,FBP-PT-19.png,0.35,1.2,56,0.5,,,,,,,,,,,,,0,2,2,55,1,,,,,,,,,,,,,,,,,,,,,,,,,,,,
,,,,,SPR24_089,20,Female,2024-04-24_16h02.46.830,jersey_experiment_5_v0,2023.2.2,Win32,84.03361345,,,,,,,,,,,,,,,,528.9644,530.0111,530.0111,531.2584,return,0.1767,,25.52083333,,,,,,FBP-RB-17.png,0.4,1.2,33,0.25,,,,,,,,,,,,,0,3,3,32,1,,,,,,,,,,,,,,,,,,,,,,,,,,,,
,,,,,SPR24_089,20,Female,2024-04-24_16h02.46.830,jersey_experiment_5_v0,2023.2.2,Win32,84.03361345,,,,,,,,,,,,,,,,531.2586,532.5525,532.5526,533.788,return,0.1181,,62.109375,,,,,,FBP-PT-17.png,0.43,1.2,49,0.5,,,,,,,,,,,,,0,4,4,48,1,,,,,,,,,,,,,,,,,,,,,,,,,,,,
,,,,,SPR24_089,20,Female,2024-04-24_16h02.46.830,jersey_experiment_5_v0,2023.2.2,Win32,84.03361345,,,,,,,,,,,,,,,,533.7883,535.0822,535.0822,535.647,return,0.1884,,69.01041667,,,,,,FBP-PT-19.png,0.43,1.2,59,0.5,,,,,,,,,,,,,0,5,5,58,1,,,,,,,,,,,,,,,,,,,,,,,,,,,,
,,,,,SPR24_089,20,Female,2024-04-24_16h02.46.830,jersey_experiment_5_v0,2023.2.2,Win32,84.03361345,,,,,,,,,,,,,,,,535.6472,536.6938,536.6939,537.3881,return,0.0848,,79.55729167,,,,,,FBP-OG-91.png,0.45,1.2,15,0.25,,,,,,,,,,,,,0,6,6,14,1,,,,,,,,,,,,,,,,,,,,,,,,,,,,
,,,,,SPR24_089,20,Female,2024-04-24_16h02.46.830,jersey_experiment_5_v0,2023.2.2,Win32,84.03361345,,,,,,,,,,,,,,,,537.3882,538.4351,538.4351,539.694,return,0.2961,,64.71354167,,,,,,FBP-OG-81.png,0.4,1.2,8,0.25,,,,,,,,,,,,,0,7,7,7,1,,,,,,,,,,,,,,,,,,,,,,,,,,,,
,,,,,SPR24_089,20,Female,2024-04-24_16h02.46.830,jersey_experiment_5_v0,2023.2.2,Win32,84.03361345,,,,,,,,,,,,,,,,539.6942,540.9881,540.9881,541.8822,return,0.1553,,20.96354167,,,,,,FBP-YG-19.png,0.35,1.2,26,0.5,,,,,,,,,,,,,0,8,8,25,1,,,,,,,,,,,,,,,,,,,,,,,,,,,,
,,,,,SPR24_089,20,Female,2024-04-24_16h02.46.830,jersey_experiment_5_v0,2023.2.2,Win32,84.03361345,,,,,,,,,,,,,,,,541.8825,542.9292,542.9292,543.9648,return,0.2356,,40.234375,,,,,,FBP-OG-81.png,0.37,1.2,7,0.25,,,,,,,,,,,,,0,9,9,6,1,,,,,,,,,,,,,,,,,,,,,,,,,,,,
,,,,,SPR24_089,20,Female,2024-04-24_16h02.46.830,jersey_experiment_5_v0,2023.2.2,Win32,84.03361345,,,,,,,,,,,,,,,,543.965,545.2588,545.2588,546.5412,return,0.5083,,68.359375,,,,,,FBP-YG-17.png,0.43,1.2,19,0.5,,,,,,,,,,,,,0,10,10,18,1,,,,,,,,,,,,,,,,,,,,,,,,,,,,
,,,,,SPR24_089,20,Female,2024-04-24_16h02.46.830,jersey_experiment_5_v0,2023.2.2,Win32,84.03361345,,,,,,,,,,,,,,,,546.5414,547.5882,547.5884,549.1296,return,0.2133,,79.16666667,,,,,,FBP-RB-17.png,0.43,1.2,34,0.25,,,,,,,,,,,,,0,11,11,33,1,,,,,,,,,,,,,,,,,,,,,,,,,,,,
,,,,,SPR24_089,20,Female,2024-04-24_16h02.46.830,jersey_experiment_5_v0,2023.2.2,Win32,84.03361345,,,,,,,,,,,,,,,,549.1298,550.4237,550.4237,551.0943,return,0.1707,,53.90625,,,,,,FBP-YG-17.png,0.4,1.2,18,0.5,,,,,,,,,,,,,0,12,12,17,1,,,,,,,,,,,,,,,,,,,,,,,,,,,,
,,,,,SPR24_089,20,Female,2024-04-24_16h02.46.830,jersey_experiment_5_v0,2023.2.2,Win32,84.03361345,,,,,,,,,,,,,,,,551.0944,552.1414,552.1414,553.4358,return,0.109,,62.890625,,,,,,FBP-OG-71.png,0.4,1.2,3,0.25,,,,,,,,,,,,,0,13,13,2,1,,,,,,,,,,,,,,,,,,,,,,,,,,,,
,,,,,SPR24_089,20,Female,2024-04-24_16h02.46.830,jersey_experiment_5_v0,2023.2.2,Win32,84.03361345,,,,,,,,,,,,,,,,553.4359,554.4826,554.4826,555.7887,return,0.0715,,80.98958333,,,,,,FBP-OG-81.png,0.45,1.2,10,0.25,,,,,,,,,,,,,0,14,14,9,1,,,,,,,,,,,,,,,,,,,,,,,,,,,,
,,,,,SPR24_089,20,Female,2024-04-24_16h02.46.830,jersey_experiment_5_v0,2023.2.2,Win32,84.03361345,,,,,,,,,,,,,,,,555.7888,556.8356,556.8356,557.8004,return,0.0376,,22.265625,,,,,,FBP-OG-81.png,0.35,1.2,6,0.25,,,,,,,,,,,,,0,15,15,5,1,,,,,,,,,,,,,,,,,,,,,,,,,,,,
,,,,,SPR24_089,20,Female,2024-04-24_16h02.46.830,jersey_experiment_5_v0,2023.2.2,Win32,84.03361345,,,,,,,,,,,,,,,,557.8005,558.8476,558.8476,559.7417,return,0.1179,,40.75520833,,,,,,FBP-RB-18.png,0.4,1.2,38,0.25,,,,,,,,,,,,,0,16,16,37,1,,,,,,,,,,,,,,,,,,,,,,,,,,,,
,,,,,SPR24_089,20,Female,2024-04-24_16h02.46.830,jersey_experiment_5_v0,2023.2.2,Win32,84.03361345,,,,,,,,,,,,,,,,559.7419,561.0359,561.0359,562.4594,return,0.1051,,68.48958333,,,,,,FBP-YG-18.png,0.43,1.2,24,0.5,,,,,,,,,,,,,0,17,17,23,1,,,,,,,,,,,,,,,,,,,,,,,,,,,,
,,,,,SPR24_089,20,Female,2024-04-24_16h02.46.830,jersey_experiment_5_v0,2023.2.2,Win32,84.03361345,,,,,,,,,,,,,,,,562.4596,563.7536,563.7536,565.4007,return,0.8272,,14.453125,,,,,,FBP-PT-18.png,0.37,1.2,52,0.5,,,,,,,,,,,,,0,18,18,51,1,,,,,,,,,,,,,,,,,,,,,,,,,,,,
,,,,,SPR24_089,20,Female,2024-04-24_16h02.46.830,jersey_experiment_5_v0,2023.2.2,Win32,84.03361345,,,,,,,,,,,,,,,,565.4009,566.6949,566.6949,567.7892,return,0.1875,,62.109375,,,,,,FBP-YG-18.png,0.4,1.2,23,0.5,,,,,,,,,,,,,0,19,19,22,1,,,,,,,,,,,,,,,,,,,,,,,,,,,,
,,,,,SPR24_089,20,Female,2024-04-24_16h02.46.830,jersey_experiment_5_v0,2023.2.2,Win32,84.03361345,,,,,,,,,,,,,,,,567.7893,568.8361,568.8361,569.8009,return,0.0274,,21.875,,,,,,FBP-RB-17.png,0.37,1.2,32,0.25,,,,,,,,,,,,,0,20,20,31,1,,,,,,,,,,,,,,,,,,,,,,,,,,,,
,,,,,SPR24_089,20,Female,2024-04-24_16h02.46.830,jersey_experiment_5_v0,2023.2.2,Win32,84.03361345,,,,,,,,,,,,,,,,569.801,570.848,570.848,572.0245,return,0.0252,,4.947916667,,,,,,FBP-RB-17.png,0.35,1.2,31,0.25,,,,,,,,,,,,,0,21,21,30,1,,,,,,,,,,,,,,,,,,,,,,,,,,,,
,,,,,SPR24_089,20,Female,2024-04-24_16h02.46.830,jersey_experiment_5_v0,2023.2.2,Win32,84.03361345,,,,,,,,,,,,,,,,572.0247,573.0717,573.0717,574.4248,return,0.1436,,56.640625,,,,,,FBP-OG-91.png,0.43,1.2,14,0.25,,,,,,,,,,,,,0,22,22,13,1,,,,,,,,,,,,,,,,,,,,,,,,,,,,
,,,,,SPR24_089,20,Female,2024-04-24_16h02.46.830,jersey_experiment_5_v0,2023.2.2,Win32,84.03361345,,,,,,,,,,,,,,,,574.425,575.4717,575.4717,576.201,return,0.0741,,39.84375,,,,,,FBP-OG-91.png,0.4,1.2,13,0.25,,,,,,,,,,,,,0,23,23,12,1,,,,,,,,,,,,,,,,,,,,,,,,,,,,
,,,,,SPR24_089,20,Female,2024-04-24_16h02.46.830,jersey_experiment_5_v0,2023.2.2,Win32,84.03361345,,,,,,,,,,,,,,,,576.2012,577.4952,577.4953,578.4364,return,0.064,,30.33854167,,,,,,FBP-PT-17.png,0.37,1.2,47,0.5,,,,,,,,,,,,,0,24,24,46,1,,,,,,,,,,,,,,,,,,,,,,,,,,,,
,,,,,SPR24_089,20,Female,2024-04-24_16h02.46.830,jersey_experiment_5_v0,2023.2.2,Win32,84.03361345,,,,,,,,,,,,,,,,578.4366,579.7305,579.7306,580.4834,return,0.0089,,61.19791667,,,,,,FBP-PT-19.png,0.45,1.2,60,0.5,,,,,,,,,,,,,0,25,25,59,1,,,,,,,,,,,,,,,,,,,,,,,,,,,,
,,,,,SPR24_089,20,Female,2024-04-24_16h02.46.830,jersey_experiment_5_v0,2023.2.2,Win32,84.03361345,,,,,,,,,,,,,,,,580.4836,581.5308,581.5308,583.3543,return,0.7554,,69.40104167,,,,,,FBP-RB-17.png,0.45,1.2,35,0.25,,,,,,,,,,,,,0,26,26,34,1,,,,,,,,,,,,,,,,,,,,,,,,,,,,
,,,,,SPR24_089,20,Female,2024-04-24_16h02.46.830,jersey_experiment_5_v0,2023.2.2,Win32,84.03361345,,,,,,,,,,,,,,,,583.3544,584.6484,584.6484,585.8485,return,0.0979,,49.73958333,,,,,,FBP-PT-17.png,0.4,1.2,48,0.5,,,,,,,,,,,,,0,27,27,47,1,,,,,,,,,,,,,,,,,,,,,,,,,,,,
,,,,,SPR24_089,20,Female,2024-04-24_16h02.46.830,jersey_experiment_5_v0,2023.2.2,Win32,84.03361345,,,,,,,,,,,,,,,,585.8486,587.1428,587.1428,588.3662,return,0.0475,,57.94270833,,,,,,FBP-PT-19.png,0.37,1.2,57,0.5,,,,,,,,,,,,,0,28,28,56,1,,,,,,,,,,,,,,,,,,,,,,,,,,,,
,,,,,SPR24_089,20,Female,2024-04-24_16h02.46.830,jersey_experiment_5_v0,2023.2.2,Win32,84.03361345,,,,,,,,,,,,,,,,588.3664,589.6605,589.6605,590.8252,return,0.0149,,20.83333333,,,,,,FBP-YG-18.png,0.37,1.2,22,0.5,,,,,,,,,,,,,0,29,29,21,1,,,,,,,,,,,,,,,,,,,,,,,,,,,,
,,,,,SPR24_089,20,Female,2024-04-24_16h02.46.830,jersey_experiment_5_v0,2023.2.2,Win32,84.03361345,,,,,,,,,,,,,,,,590.8254,591.8722,591.8723,592.9664,return,0.1922,,77.734375,,,,,,FBP-RB-19.png,0.43,1.2,44,0.25,,,,,,,,,,,,,0,30,30,43,1,,,,,,,,,,,,,,,,,,,,,,,,,,,,
,,,,,SPR24_089,20,Female,2024-04-24_16h02.46.830,jersey_experiment_5_v0,2023.2.2,Win32,84.03361345,,,,,,,,,,,,,,,,592.9667,594.2607,594.2608,595.8372,return,0.6829,,65.625,,,,,,FBP-PT-18.png,0.4,1.2,53,0.5,,,,,,,,,,,,,0,31,31,52,1,,,,,,,,,,,,,,,,,,,,,,,,,,,,
,,,,,SPR24_089,20,Female,2024-04-24_16h02.46.830,jersey_experiment_5_v0,2023.2.2,Win32,84.03361345,,,,,,,,,,,,,,,,595.8374,597.1313,597.1313,599.5665,return,0.1262,,50.13020833,,,,,,FBP-YG-19.png,0.4,1.2,28,0.5,,,,,,,,,,,,,0,32,32,27,1,,,,,,,,,,,,,,,,,,,,,,,,,,,,
,,,,,SPR24_089,20,Female,2024-04-24_16h02.46.830,jersey_experiment_5_v0,2023.2.2,Win32,84.03361345,,,,,,,,,,,,,,,,599.5667,600.6138,600.6138,601.4491,return,0.2018,,35.41666667,,,,,,FBP-RB-18.png,0.37,1.2,37,0.25,,,,,,,,,,,,,0,33,33,36,1,,,,,,,,,,,,,,,,,,,,,,,,,,,,
,,,,,SPR24_089,20,Female,2024-04-24_16h02.46.830,jersey_experiment_5_v0,2023.2.2,Win32,84.03361345,,,,,,,,,,,,,,,,601.4491,602.4964,602.4965,604.461,return,0.4803,,9.114583333,,,,,,FBP-OG-71.png,0.37,1.2,2,0.25,,,,,,,,,,,,,0,34,34,1,1,,,,,,,,,,,,,,,,,,,,,,,,,,,,
,,,,,SPR24_089,20,Female,2024-04-24_16h02.46.830,jersey_experiment_5_v0,2023.2.2,Win32,84.03361345,,,,,,,,,,,,,,,,604.4611,605.5081,605.5081,607.0022,return,0.483,,62.36979167,,,,,,FBP-OG-71.png,0.43,1.2,4,0.25,,,,,,,,,,,,,0,35,35,3,1,,,,,,,,,,,,,,,,,,,,,,,,,,,,
,,,,,SPR24_089,20,Female,2024-04-24_16h02.46.830,jersey_experiment_5_v0,2023.2.2,Win32,84.03361345,,,,,,,,,,,,,,,,607.0024,608.2964,608.2965,609.0375,return,0.1427,,78.515625,,,,,,FBP-PT-18.png,0.45,1.2,55,0.5,,,,,,,,,,,,,0,36,36,54,1,,,,,,,,,,,,,,,,,,,,,,,,,,,,
,,,,,SPR24_089,20,Female,2024-04-24_16h02.46.830,jersey_experiment_5_v0,2023.2.2,Win32,84.03361345,,,,,,,,,,,,,,,,609.0377,610.3318,610.3319,611.7201,return,0.0869,,23.95833333,,,,,,FBP-YG-18.png,0.35,1.2,21,0.5,,,,,,,,,,,,,0,37,37,20,1,,,,,,,,,,,,,,,,,,,,,,,,,,,,
,,,,,SPR24_089,20,Female,2024-04-24_16h02.46.830,jersey_experiment_5_v0,2023.2.2,Win32,84.03361345,,,,,,,,,,,,,,,,611.7203,613.0141,613.0141,613.6142,return,0.0937,,16.92708333,,,,,,FBP-YG-17.png,0.35,1.2,16,0.5,,,,,,,,,,,,,0,38,38,15,1,,,,,,,,,,,,,,,,,,,,,,,,,,,,
,,,,,SPR24_089,20,Female,2024-04-24_16h02.46.830,jersey_experiment_5_v0,2023.2.2,Win32,84.03361345,,,,,,,,,,,,,,,,613.6144,614.9085,614.9085,615.6848,return,0.0781,,70.18229167,,,,,,FBP-PT-19.png,0.4,1.2,58,0.5,,,,,,,,,,,,,0,39,39,57,1,,,,,,,,,,,,,,,,,,,,,,,,,,,,
,,,,,SPR24_089,20,Female,2024-04-24_16h02.46.830,jersey_experiment_5_v0,2023.2.2,Win32,84.03361345,,,,,,,,,,,,,,,,615.6849,616.979,616.979,617.5555,return,0.0913,,70.18229167,,,,,,FBP-YG-19.png,0.43,1.2,29,0.5,,,,,,,,,,,,,0,40,40,28,1,,,,,,,,,,,,,,,,,,,,,,,,,,,,
,,,,,SPR24_089,20,Female,2024-04-24_16h02.46.830,jersey_experiment_5_v0,2023.2.2,Win32,84.03361345,,,,,,,,,,,,,,,,617.5556,618.8497,618.8498,619.6264,return,0.0613,,75.13020833,,,,,,FBP-YG-19.png,0.45,1.2,30,0.5,,,,,,,,,,,,,0,41,41,29,1,,,,,,,,,,,,,,,,,,,,,,,,,,,,
,,,,,SPR24_089,20,Female,2024-04-24_16h02.46.830,jersey_experiment_5_v0,2023.2.2,Win32,84.03361345,,,,,,,,,,,,,,,,619.6265,620.6732,620.6733,621.6616,return,0.0003,,87.5,,,,,,FBP-RB-18.png,0.45,1.2,40,0.25,,,,,,,,,,,,,0,42,42,39,1,,,,,,,,,,,,,,,,,,,,,,,,,,,,
,,,,,SPR24_089,20,Female,2024-04-24_16h02.46.830,jersey_experiment_5_v0,2023.2.2,Win32,84.03361345,,,,,,,,,,,,,,,,621.6618,622.9557,622.9558,623.9911,return,0.133,,16.27604167,,,,,,FBP-YG-17.png,0.37,1.2,17,0.5,,,,,,,,,,,,,0,43,43,16,1,,,,,,,,,,,,,,,,,,,,,,,,,,,,
,,,,,SPR24_089,20,Female,2024-04-24_16h02.46.830,jersey_experiment_5_v0,2023.2.2,Win32,84.03361345,,,,,,,,,,,,,,,,623.9915,625.2855,625.2855,625.9441,return,0.1218,,73.4375,,,,,,FBP-YG-17.png,0.45,1.2,20,0.5,,,,,,,,,,,,,0,44,44,19,1,,,,,,,,,,,,,,,,,,,,,,,,,,,,
,,,,,SPR24_089,20,Female,2024-04-24_16h02.46.830,jersey_experiment_5_v0,2023.2.2,Win32,84.03361345,,,,,,,,,,,,,,,,625.9442,626.9913,626.9913,627.6853,return,0.0404,,57.68229167,,,,,,FBP-RB-19.png,0.37,1.2,42,0.25,,,,,,,,,,,,,0,45,45,41,1,,,,,,,,,,,,,,,,,,,,,,,,,,,,
,,,,,SPR24_089,20,Female,2024-04-24_16h02.46.830,jersey_experiment_5_v0,2023.2.2,Win32,84.03361345,,,,,,,,,,,,,,,,627.6855,628.9795,628.9795,629.7325,return,0.0643,,84.11458333,,,,,,FBP-YG-18.png,0.45,1.2,25,0.5,,,,,,,,,,,,,0,46,46,24,1,,,,,,,,,,,,,,,,,,,,,,,,,,,,
,,,,,SPR24_089,20,Female,2024-04-24_16h02.46.830,jersey_experiment_5_v0,2023.2.2,Win32,84.03361345,,,,,,,,,,,,,,,,629.7326,630.7795,630.7795,631.709,return,0.1414,,43.61979167,,,,,,FBP-RB-19.png,0.4,1.2,43,0.25,,,,,,,,,,,,,0,47,47,42,1,,,,,,,,,,,,,,,,,,,,,,,,,,,,
,,,,,SPR24_089,20,Female,2024-04-24_16h02.46.830,jersey_experiment_5_v0,2023.2.2,Win32,84.03361345,,,,,,,,,,,,,,,,631.7091,633.0032,633.0033,633.9091,return,0.1466,,21.09375,,,,,,FBP-YG-19.png,0.37,1.2,27,0.5,,,,,,,,,,,,,0,48,48,26,1,,,,,,,,,,,,,,,,,,,,,,,,,,,,
,,,,,SPR24_089,20,Female,2024-04-24_16h02.46.830,jersey_experiment_5_v0,2023.2.2,Win32,84.03361345,,,,,,,,,,,,,,,,633.9093,635.2033,635.2033,636.0035,return,0.1149,,15.234375,,,,,,FBP-PT-18.png,0.35,1.2,51,0.5,,,,,,,,,,,,,0,49,49,50,1,,,,,,,,,,,,,,,,,,,,,,,,,,,,
,,,,,SPR24_089,20,Female,2024-04-24_16h02.46.830,jersey_experiment_5_v0,2023.2.2,Win32,84.03361345,,,,,,,,,,,,,,,,636.0036,637.0504,637.0504,638.1797,return,0.1026,,6.770833333,,,,,,FBP-RB-18.png,0.35,1.2,36,0.25,,,,,,,,,,,,,0,50,50,35,1,,,,,,,,,,,,,,,,,,,,,,,,,,,,
,,,,,SPR24_089,20,Female,2024-04-24_16h02.46.830,jersey_experiment_5_v0,2023.2.2,Win32,84.03361345,,,,,,,,,,,,,,,,638.1799,639.4739,639.4739,640.6622,return,0.216,,79.03645833,,,,,,FBP-PT-17.png,0.45,1.2,50,0.5,,,,,,,,,,,,,0,51,51,49,1,,,,,,,,,,,,,,,,,,,,,,,,,,,,
,,,,,SPR24_089,20,Female,2024-04-24_16h02.46.830,jersey_experiment_5_v0,2023.2.2,Win32,84.03361345,,,,,,,,,,,,,,,,640.6625,641.7093,641.7094,642.3917,return,0.0045,,80.46875,,,,,,FBP-RB-19.png,0.45,1.2,45,0.25,,,,,,,,,,,,,0,52,52,44,1,,,,,,,,,,,,,,,,,,,,,,,,,,,,
,,,,,SPR24_089,20,Female,2024-04-24_16h02.46.830,jersey_experiment_5_v0,2023.2.2,Win32,84.03361345,,,,,,,,,,,,,,,,642.3919,643.4389,643.4389,644.7565,return,0.1842,,74.609375,,,,,,FBP-OG-81.png,0.43,1.2,9,0.25,,,,,,,,,,,,,0,53,53,8,1,,,,,,,,,,,,,,,,,,,,,,,,,,,,
,,,,,SPR24_089,20,Female,2024-04-24_16h02.46.830,jersey_experiment_5_v0,2023.2.2,Win32,84.03361345,,,,,,,,,,,,,,,,644.7567,645.8036,645.8037,646.9685,return,0.0725,,59.765625,,,,,,FBP-OG-91.png,0.35,1.2,11,0.25,,,,,,,,,,,,,0,54,54,10,1,,,,,,,,,,,,,,,,,,,,,,,,,,,,
,,,,,SPR24_089,20,Female,2024-04-24_16h02.46.830,jersey_experiment_5_v0,2023.2.2,Win32,84.03361345,,,,,,,,,,,,,,,,646.9687,648.0156,648.0157,648.8861,return,0.1105,,81.90104167,,,,,,FBP-RB-18.png,0.43,1.2,39,0.25,,,,,,,,,,,,,0,55,55,38,1,,,,,,,,,,,,,,,,,,,,,,,,,,,,
,,,,,SPR24_089,20,Female,2024-04-24_16h02.46.830,jersey_experiment_5_v0,2023.2.2,Win32,84.03361345,,,,,,,,,,,,,,,,648.8862,649.9332,649.9332,651.1449,return,0.2486,,20.96354167,,,,,,FBP-OG-91.png,0.37,1.2,12,0.25,,,,,,,,,,,,,0,56,56,11,1,,,,,,,,,,,,,,,,,,,,,,,,,,,,
,,,,,SPR24_089,20,Female,2024-04-24_16h02.46.830,jersey_experiment_5_v0,2023.2.2,Win32,84.03361345,,,,,,,,,,,,,,,,651.145,652.4391,652.4392,653.4628,return,0.121,,81.51041667,,,,,,FBP-PT-18.png,0.43,1.2,54,0.5,,,,,,,,,,,,,0,57,57,53,1,,,,,,,,,,,,,,,,,,,,,,,,,,,,
,,,,,SPR24_089,20,Female,2024-04-24_16h02.46.830,jersey_experiment_5_v0,2023.2.2,Win32,84.03361345,,,,,,,,,,,,,,,,653.4629,654.5098,654.5098,655.7804,return,0.1591,,11.97916667,,,,,,FBP-OG-71.png,0.35,1.2,1,0.25,,,,,,,,,,,,,0,58,58,0,1,,,,,,,,,,,,,,,,,,,,,,,,,,,,
,,,,,SPR24_089,20,Female,2024-04-24_16h02.46.830,jersey_experiment_5_v0,2023.2.2,Win32,84.03361345,,,,,,,,,,,,,,,,655.7805,656.8276,656.8276,657.9099,return,0.1123,,56.90104167,,,,,,FBP-OG-71.png,0.45,1.2,5,0.25,,,,,,,,,,,,,0,59,59,4,1,,,,,,,,,,,,,,,,,,,,,,,,,,,,
,,,,,SPR24_089,20,Female,2024-04-24_16h02.46.830,jersey_experiment_5_v0,2023.2.2,Win32,84.03361345,,,,,,,,,,,,,,,,657.9112,658.9572,658.9573,659.816,return,0.0498,,75.390625,,,,,,FBP-OG-18.png,0.43,1.2,9,0.25,,,,,,,,,,,,,,,,,,0,0,0,8,1,,,,,,,,,,,,,,,,,,,,,,,
,,,,,SPR24_089,20,Female,2024-04-24_16h02.46.830,jersey_experiment_5_v0,2023.2.2,Win32,84.03361345,,,,,,,,,,,,,,,,659.8162,660.8629,660.8629,662.1336,return,0.1245,,20.96354167,,,,,,FBP-OG-17.png,0.35,1.2,1,0.25,,,,,,,,,,,,,,,,,,0,1,1,0,1,,,,,,,,,,,,,,,,,,,,,,,
,,,,,SPR24_089,20,Female,2024-04-24_16h02.46.830,jersey_experiment_5_v0,2023.2.2,Win32,84.03361345,,,,,,,,,,,,,,,,662.1337,663.4277,663.4277,664.0748,return,0.0478,,19.53125,,,,,,FBP-YG-81.png,0.37,1.2,22,0.5,,,,,,,,,,,,,,,,,,0,2,2,21,1,,,,,,,,,,,,,,,,,,,,,,,
,,,,,SPR24_089,20,Female,2024-04-24_16h02.46.830,jersey_experiment_5_v0,2023.2.2,Win32,84.03361345,,,,,,,,,,,,,,,,664.075,665.3691,665.3691,665.7339,return,0.1478,,19.53125,,,,,,FBP-YG-71.png,0.35,1.2,16,0.5,,,,,,,,,,,,,,,,,,0,3,3,15,1,,,,,,,,,,,,,,,,,,,,,,,
,,,,,SPR24_089,20,Female,2024-04-24_16h02.46.830,jersey_experiment_5_v0,2023.2.2,Win32,84.03361345,,,,,,,,,,,,,,,,665.7341,667.0278,667.0279,667.2751,return,0.1083,,19.53125,,,,,,FBP-PT-71.png,0.35,1.2,46,0.5,,,,,,,,,,,,,,,,,,0,4,4,45,1,,,,,,,,,,,,,,,,,,,,,,,
,,,,,SPR24_089,20,Female,2024-04-24_16h02.46.830,jersey_experiment_5_v0,2023.2.2,Win32,84.03361345,,,,,,,,,,,,,,,,667.2753,668.5693,668.5693,669.5575,return,0.0753,,50.52083333,,,,,,FBP-PT-81.png,0.4,1.2,53,0.5,,,,,,,,,,,,,,,,,,0,5,5,52,1,,,,,,,,,,,,,,,,,,,,,,,
,,,,,SPR24_089,20,Female,2024-04-24_16h02.46.830,jersey_experiment_5_v0,2023.2.2,Win32,84.03361345,,,,,,,,,,,,,,,,669.5576,670.8516,670.8516,671.3692,return,0.0721,,65.234375,,,,,,FBP-PT-81.png,0.45,1.2,55,0.5,,,,,,,,,,,,,,,,,,0,6,6,54,1,,,,,,,,,,,,,,,,,,,,,,,
,,,,,SPR24_089,20,Female,2024-04-24_16h02.46.830,jersey_experiment_5_v0,2023.2.2,Win32,84.03361345,,,,,,,,,,,,,,,,671.3694,672.6635,672.6635,673.0633,return,0.0503,,64.97395833,,,,,,FBP-PT-91.png,0.4,1.2,58,0.5,,,,,,,,,,,,,,,,,,0,7,7,57,1,,,,,,,,,,,,,,,,,,,,,,,
,,,,,SPR24_089,20,Female,2024-04-24_16h02.46.830,jersey_experiment_5_v0,2023.2.2,Win32,84.03361345,,,,,,,,,,,,,,,,673.0636,674.1105,674.1105,674.8871,return,0.0523,,82.16145833,,,,,,FBP-RB-91.png,0.43,1.2,44,0.25,,,,,,,,,,,,,,,,,,0,8,8,43,1,,,,,,,,,,,,,,,,,,,,,,,
,,,,,SPR24_089,20,Female,2024-04-24_16h02.46.830,jersey_experiment_5_v0,2023.2.2,Win32,84.03361345,,,,,,,,,,,,,,,,674.8873,675.934,675.934,676.4752,return,0.0839,,81.90104167,,,,,,FBP-OG-17.png,0.45,1.2,5,0.25,,,,,,,,,,,,,,,,,,0,9,9,4,1,,,,,,,,,,,,,,,,,,,,,,,
,,,,,SPR24_089,20,Female,2024-04-24_16h02.46.830,jersey_experiment_5_v0,2023.2.2,Win32,84.03361345,,,,,,,,,,,,,,,,676.4754,677.7696,677.7696,678.1695,return,0.0852,,81.90104167,,,,,,FBP-YG-81.png,0.43,1.2,24,0.5,,,,,,,,,,,,,,,,,,0,10,10,23,1,,,,,,,,,,,,,,,,,,,,,,,
,,,,,SPR24_089,20,Female,2024-04-24_16h02.46.830,jersey_experiment_5_v0,2023.2.2,Win32,84.03361345,,,,,,,,,,,,,,,,678.1696,679.2164,679.2164,679.9108,return,0.0026,,24.34895833,,,,,,FBP-RB-81.png,0.37,1.2,37,0.25,,,,,,,,,,,,,,,,,,0,11,11,36,1,,,,,,,,,,,,,,,,,,,,,,,
,,,,,SPR24_089,20,Female,2024-04-24_16h02.46.830,jersey_experiment_5_v0,2023.2.2,Win32,84.03361345,,,,,,,,,,,,,,,,679.9111,680.9578,680.9578,681.4167,return,0.0725,,24.34895833,,,,,,FBP-OG-19.png,0.4,1.2,13,0.25,,,,,,,,,,,,,,,,,,0,12,12,12,1,,,,,,,,,,,,,,,,,,,,,,,
,,,,,SPR24_089,20,Female,2024-04-24_16h02.46.830,jersey_experiment_5_v0,2023.2.2,Win32,84.03361345,,,,,,,,,,,,,,,,681.4168,682.7111,682.7111,683.5461,return,0.0828,,42.578125,,,,,,FBP-YG-91.png,0.4,1.2,28,0.5,,,,,,,,,,,,,,,,,,0,13,13,27,1,,,,,,,,,,,,,,,,,,,,,,,
,,,,,SPR24_089,20,Female,2024-04-24_16h02.46.830,jersey_experiment_5_v0,2023.2.2,Win32,84.03361345,,,,,,,,,,,,,,,,683.5463,684.8402,684.8402,685.6286,return,0.0609,,46.875,,,,,,FBP-YG-91.png,0.45,1.2,30,0.5,,,,,,,,,,,,,,,,,,0,14,14,29,1,,,,,,,,,,,,,,,,,,,,,,,
,,,,,SPR24_089,20,Female,2024-04-24_16h02.46.830,jersey_experiment_5_v0,2023.2.2,Win32,84.03361345,,,,,,,,,,,,,,,,685.6288,686.9227,686.9227,687.8287,return,0.0404,,53.25520833,,,,,,FBP-YG-91.png,0.35,1.2,26,0.5,,,,,,,,,,,,,,,,,,0,15,15,25,1,,,,,,,,,,,,,,,,,,,,,,,
,,,,,SPR24_089,20,Female,2024-04-24_16h02.46.830,jersey_experiment_5_v0,2023.2.2,Win32,84.03361345,,,,,,,,,,,,,,,,687.8289,689.1226,689.1226,690.6757,return,0.1263,,39.97395833,,,,,,FBP-PT-81.png,0.37,1.2,52,0.5,,,,,,,,,,,,,,,,,,0,16,16,51,1,,,,,,,,,,,,,,,,,,,,,,,
,,,,,SPR24_089,20,Female,2024-04-24_16h02.46.830,jersey_experiment_5_v0,2023.2.2,Win32,84.03361345,,,,,,,,,,,,,,,,690.6759,691.7228,691.7228,692.7935,return,0.06,,65.75520833,,,,,,FBP-OG-18.png,0.45,1.2,10,0.25,,,,,,,,,,,,,,,,,,0,17,17,9,1,,,,,,,,,,,,,,,,,,,,,,,
,,,,,SPR24_089,20,Female,2024-04-24_16h02.46.830,jersey_experiment_5_v0,2023.2.2,Win32,84.03361345,,,,,,,,,,,,,,,,692.7937,693.8406,693.8407,695.7701,return,0.7054,,42.05729167,,,,,,FBP-OG-17.png,0.37,1.2,2,0.25,,,,,,,,,,,,,,,,,,0,18,18,1,1,,,,,,,,,,,,,,,,,,,,,,,
,,,,,SPR24_089,20,Female,2024-04-24_16h02.46.830,jersey_experiment_5_v0,2023.2.2,Win32,84.03361345,,,,,,,,,,,,,,,,695.7703,696.8171,696.8171,697.676,return,0.0619,,15.49479167,,,,,,FBP-RB-71.png,0.37,1.2,32,0.25,,,,,,,,,,,,,,,,,,0,19,19,31,1,,,,,,,,,,,,,,,,,,,,,,,
,,,,,SPR24_089,20,Female,2024-04-24_16h02.46.830,jersey_experiment_5_v0,2023.2.2,Win32,84.03361345,,,,,,,,,,,,,,,,697.6763,698.7232,698.7232,699.5467,return,0.0252,,33.85416667,,,,,,FBP-OG-17.png,0.4,1.2,3,0.25,,,,,,,,,,,,,,,,,,0,20,20,2,1,,,,,,,,,,,,,,,,,,,,,,,
,,,,,SPR24_089,20,Female,2024-04-24_16h02.46.830,jersey_experiment_5_v0,2023.2.2,Win32,84.03361345,,,,,,,,,,,,,,,,699.5469,700.841,700.841,701.6997,return,0.138,,15.36458333,,,,,,FBP-PT-81.png,0.35,1.2,51,0.5,,,,,,,,,,,,,,,,,,0,21,21,50,1,,,,,,,,,,,,,,,,,,,,,,,
,,,,,SPR24_089,20,Female,2024-04-24_16h02.46.830,jersey_experiment_5_v0,2023.2.2,Win32,84.03361345,,,,,,,,,,,,,,,,701.6999,702.994,702.994,703.4645,return,0.0491,,12.109375,,,,,,FBP-PT-91.png,0.35,1.2,56,0.5,,,,,,,,,,,,,,,,,,0,22,22,55,1,,,,,,,,,,,,,,,,,,,,,,,
,,,,,SPR24_089,20,Female,2024-04-24_16h02.46.830,jersey_experiment_5_v0,2023.2.2,Win32,84.03361345,,,,,,,,,,,,,,,,703.4648,704.7588,704.7588,705.6409,return,0.1545,,33.59375,,,,,,FBP-YG-71.png,0.43,1.2,19,0.5,,,,,,,,,,,,,,,,,,0,23,23,18,1,,,,,,,,,,,,,,,,,,,,,,,
,,,,,SPR24_089,20,Female,2024-04-24_16h02.46.830,jersey_experiment_5_v0,2023.2.2,Win32,84.03361345,,,,,,,,,,,,,,,,705.641,706.9352,706.9352,707.5234,return,0.0889,,20.3125,,,,,,FBP-YG-91.png,0.37,1.2,27,0.5,,,,,,,,,,,,,,,,,,0,24,24,26,1,,,,,,,,,,,,,,,,,,,,,,,
,,,,,SPR24_089,20,Female,2024-04-24_16h02.46.830,jersey_experiment_5_v0,2023.2.2,Win32,84.03361345,,,,,,,,,,,,,,,,707.5235,708.8176,708.8176,709.6059,return,0.0416,,54.16666667,,,,,,FBP-YG-81.png,0.45,1.2,25,0.5,,,,,,,,,,,,,,,,,,0,25,25,24,1,,,,,,,,,,,,,,,,,,,,,,,
,,,,,SPR24_089,20,Female,2024-04-24_16h02.46.830,jersey_experiment_5_v0,2023.2.2,Win32,84.03361345,,,,,,,,,,,,,,,,709.6061,710.9002,710.9002,711.3235,return,0.1784,,53.77604167,,,,,,FBP-YG-91.png,0.43,1.2,29,0.5,,,,,,,,,,,,,,,,,,0,26,26,28,1,,,,,,,,,,,,,,,,,,,,,,,
,,,,,SPR24_089,20,Female,2024-04-24_16h02.46.830,jersey_experiment_5_v0,2023.2.2,Win32,84.03361345,,,,,,,,,,,,,,,,711.3237,712.3706,712.3706,713.3826,return,0.0763,,62.76041667,,,,,,FBP-RB-81.png,0.43,1.2,39,0.25,,,,,,,,,,,,,,,,,,0,27,27,38,1,,,,,,,,,,,,,,,,,,,,,,,
,,,,,SPR24_089,20,Female,2024-04-24_16h02.46.830,jersey_experiment_5_v0,2023.2.2,Win32,84.03361345,,,,,,,,,,,,,,,,713.3828,714.6766,714.6766,715.465,return,0.0958,,62.5,,,,,,FBP-YG-71.png,0.45,1.2,20,0.5,,,,,,,,,,,,,,,,,,0,28,28,19,1,,,,,,,,,,,,,,,,,,,,,,,
,,,,,SPR24_089,20,Female,2024-04-24_16h02.46.830,jersey_experiment_5_v0,2023.2.2,Win32,84.03361345,,,,,,,,,,,,,,,,715.4651,716.759,716.759,717.2532,return,0.066,,66.14583333,,,,,,FBP-YG-81.png,0.4,1.2,23,0.5,,,,,,,,,,,,,,,,,,0,29,29,22,1,,,,,,,,,,,,,,,,,,,,,,,
,,,,,SPR24_089,20,Female,2024-04-24_16h02.46.830,jersey_experiment_5_v0,2023.2.2,Win32,84.03361345,,,,,,,,,,,,,,,,717.2534,718.3004,718.3004,719.018,return,0.1324,,65.49479167,,,,,,FBP-OG-19.png,0.43,1.2,14,0.25,,,,,,,,,,,,,,,,,,0,30,30,13,1,,,,,,,,,,,,,,,,,,,,,,,
,,,,,SPR24_089,20,Female,2024-04-24_16h02.46.830,jersey_experiment_5_v0,2023.2.2,Win32,84.03361345,,,,,,,,,,,,,,,,719.0183,720.312,720.3121,721.0768,return,0.041,,13.54166667,,,,,,FBP-YG-81.png,0.35,1.2,21,0.5,,,,,,,,,,,,,,,,,,0,31,31,20,1,,,,,,,,,,,,,,,,,,,,,,,
,,,,,SPR24_089,20,Female,2024-04-24_16h02.46.830,jersey_experiment_5_v0,2023.2.2,Win32,84.03361345,,,,,,,,,,,,,,,,721.077,722.1241,722.1241,723.6064,return,0.0882,,63.93229167,,,,,,FBP-OG-19.png,0.45,1.2,15,0.25,,,,,,,,,,,,,,,,,,0,32,32,14,1,,,,,,,,,,,,,,,,,,,,,,,
,,,,,SPR24_089,20,Female,2024-04-24_16h02.46.830,jersey_experiment_5_v0,2023.2.2,Win32,84.03361345,,,,,,,,,,,,,,,,723.6066,724.6534,724.6535,725.8064,return,0.1739,,80.72916667,,,,,,FBP-RB-91.png,0.45,1.2,45,0.25,,,,,,,,,,,,,,,,,,0,33,33,44,1,,,,,,,,,,,,,,,,,,,,,,,
,,,,,SPR24_089,20,Female,2024-04-24_16h02.46.830,jersey_experiment_5_v0,2023.2.2,Win32,84.03361345,,,,,,,,,,,,,,,,725.8065,726.8536,726.8536,728.3006,return,0.0235,,45.05208333,,,,,,FBP-OG-18.png,0.4,1.2,8,0.25,,,,,,,,,,,,,,,,,,0,34,34,7,1,,,,,,,,,,,,,,,,,,,,,,,
,,,,,SPR24_089,20,Female,2024-04-24_16h02.46.830,jersey_experiment_5_v0,2023.2.2,Win32,84.03361345,,,,,,,,,,,,,,,,728.3007,729.3478,729.3478,730.1007,return,0.0763,,58.46354167,,,,,,FBP-RB-71.png,0.4,1.2,33,0.25,,,,,,,,,,,,,,,,,,0,35,35,32,1,,,,,,,,,,,,,,,,,,,,,,,
,,,,,SPR24_089,20,Female,2024-04-24_16h02.46.830,jersey_experiment_5_v0,2023.2.2,Win32,84.03361345,,,,,,,,,,,,,,,,730.1009,731.1478,731.1478,732.7008,return,0.4098,,35.41666667,,,,,,FBP-RB-91.png,0.37,1.2,42,0.25,,,,,,,,,,,,,,,,,,0,36,36,41,1,,,,,,,,,,,,,,,,,,,,,,,
,,,,,SPR24_089,20,Female,2024-04-24_16h02.46.830,jersey_experiment_5_v0,2023.2.2,Win32,84.03361345,,,,,,,,,,,,,,,,732.7009,733.7479,733.7479,734.8774,return,0.1411,,16.796875,,,,,,FBP-OG-19.png,0.37,1.2,12,0.25,,,,,,,,,,,,,,,,,,0,37,37,11,1,,,,,,,,,,,,,,,,,,,,,,,
,,,,,SPR24_089,20,Female,2024-04-24_16h02.46.830,jersey_experiment_5_v0,2023.2.2,Win32,84.03361345,,,,,,,,,,,,,,,,734.8776,735.9244,735.9245,736.7716,return,0.197,,4.557291667,,,,,,FBP-OG-18.png,0.35,1.2,6,0.25,,,,,,,,,,,,,,,,,,0,38,38,5,1,,,,,,,,,,,,,,,,,,,,,,,
,,,,,SPR24_089,20,Female,2024-04-24_16h02.46.830,jersey_experiment_5_v0,2023.2.2,Win32,84.03361345,,,,,,,,,,,,,,,,736.7718,738.0657,738.0657,738.8421,return,0.106,,36.45833333,,,,,,FBP-PT-71.png,0.45,1.2,50,0.5,,,,,,,,,,,,,,,,,,0,39,39,49,1,,,,,,,,,,,,,,,,,,,,,,,
,,,,,SPR24_089,20,Female,2024-04-24_16h02.46.830,jersey_experiment_5_v0,2023.2.2,Win32,84.03361345,,,,,,,,,,,,,,,,738.8423,739.8894,739.8894,740.8777,return,0.2365,,18.09895833,,,,,,FBP-RB-81.png,0.35,1.2,36,0.25,,,,,,,,,,,,,,,,,,0,40,40,35,1,,,,,,,,,,,,,,,,,,,,,,,
,,,,,SPR24_089,20,Female,2024-04-24_16h02.46.830,jersey_experiment_5_v0,2023.2.2,Win32,84.03361345,,,,,,,,,,,,,,,,740.8779,741.9246,741.9246,742.9719,return,0.0716,,33.85416667,,,,,,FBP-RB-71.png,0.45,1.2,35,0.25,,,,,,,,,,,,,,,,,,0,41,41,34,1,,,,,,,,,,,,,,,,,,,,,,,
,,,,,SPR24_089,20,Female,2024-04-24_16h02.46.830,jersey_experiment_5_v0,2023.2.2,Win32,84.03361345,,,,,,,,,,,,,,,,742.9721,744.0188,744.0188,744.9366,return,0.0975,,13.671875,,,,,,FBP-OG-19.png,0.35,1.2,11,0.25,,,,,,,,,,,,,,,,,,0,42,42,10,1,,,,,,,,,,,,,,,,,,,,,,,
,,,,,SPR24_089,20,Female,2024-04-24_16h02.46.830,jersey_experiment_5_v0,2023.2.2,Win32,84.03361345,,,,,,,,,,,,,,,,744.9367,745.9838,745.9838,746.7013,return,0.0573,,9.635416667,,,,,,FBP-RB-71.png,0.35,1.2,31,0.25,,,,,,,,,,,,,,,,,,0,43,43,30,1,,,,,,,,,,,,,,,,,,,,,,,
,,,,,SPR24_089,20,Female,2024-04-24_16h02.46.830,jersey_experiment_5_v0,2023.2.2,Win32,84.03361345,,,,,,,,,,,,,,,,746.7014,747.7485,747.7485,748.6778,return,0.0063,,20.96354167,,,,,,FBP-RB-91.png,0.4,1.2,43,0.25,,,,,,,,,,,,,,,,,,0,44,44,42,1,,,,,,,,,,,,,,,,,,,,,,,
,,,,,SPR24_089,20,Female,2024-04-24_16h02.46.830,jersey_experiment_5_v0,2023.2.2,Win32,84.03361345,,,,,,,,,,,,,,,,748.678,749.725,749.725,751.1251,return,0.0402,,34.11458333,,,,,,FBP-RB-71.png,0.43,1.2,34,0.25,,,,,,,,,,,,,,,,,,0,45,45,33,1,,,,,,,,,,,,,,,,,,,,,,,
,,,,,SPR24_089,20,Female,2024-04-24_16h02.46.830,jersey_experiment_5_v0,2023.2.2,Win32,84.03361345,,,,,,,,,,,,,,,,751.1253,752.172,752.1721,752.8898,return,0.0591,,21.875,,,,,,FBP-RB-81.png,0.4,1.2,38,0.25,,,,,,,,,,,,,,,,,,0,46,46,37,1,,,,,,,,,,,,,,,,,,,,,,,
,,,,,SPR24_089,20,Female,2024-04-24_16h02.46.830,jersey_experiment_5_v0,2023.2.2,Win32,84.03361345,,,,,,,,,,,,,,,,752.89,754.184,754.184,754.8191,return,0.113,,15.88541667,,,,,,FBP-PT-71.png,0.37,1.2,47,0.5,,,,,,,,,,,,,,,,,,0,47,47,46,1,,,,,,,,,,,,,,,,,,,,,,,
,,,,,SPR24_089,20,Female,2024-04-24_16h02.46.830,jersey_experiment_5_v0,2023.2.2,Win32,84.03361345,,,,,,,,,,,,,,,,754.8194,755.8664,755.8664,756.5018,return,0.0282,,10.80729167,,,,,,FBP-RB-91.png,0.35,1.2,41,0.25,,,,,,,,,,,,,,,,,,0,48,48,40,1,,,,,,,,,,,,,,,,,,,,,,,
,,,,,SPR24_089,20,Female,2024-04-24_16h02.46.830,jersey_experiment_5_v0,2023.2.2,Win32,84.03361345,,,,,,,,,,,,,,,,756.502,757.7959,757.7959,758.6548,return,0.1651,,38.671875,,,,,,FBP-PT-71.png,0.4,1.2,48,0.5,,,,,,,,,,,,,,,,,,0,49,49,47,1,,,,,,,,,,,,,,,,,,,,,,,
,,,,,SPR24_089,20,Female,2024-04-24_16h02.46.830,jersey_experiment_5_v0,2023.2.2,Win32,84.03361345,,,,,,,,,,,,,,,,758.6549,759.9488,759.9489,760.9961,return,0.2322,,29.55729167,,,,,,FBP-YG-71.png,0.4,1.2,18,0.5,,,,,,,,,,,,,,,,,,0,50,50,17,1,,,,,,,,,,,,,,,,,,,,,,,
,,,,,SPR24_089,20,Female,2024-04-24_16h02.46.830,jersey_experiment_5_v0,2023.2.2,Win32,84.03361345,,,,,,,,,,,,,,,,760.9962,762.2901,762.2901,762.8786,return,0.1182,,47.13541667,,,,,,FBP-PT-71.png,0.43,1.2,49,0.5,,,,,,,,,,,,,,,,,,0,51,51,48,1,,,,,,,,,,,,,,,,,,,,,,,
,,,,,SPR24_089,20,Female,2024-04-24_16h02.46.830,jersey_experiment_5_v0,2023.2.2,Win32,84.03361345,,,,,,,,,,,,,,,,762.8787,763.9255,763.9255,765.596,return,0.1179,,73.30729167,,,,,,FBP-RB-81.png,0.45,1.2,40,0.25,,,,,,,,,,,,,,,,,,0,52,52,39,1,,,,,,,,,,,,,,,,,,,,,,,
,,,,,SPR24_089,20,Female,2024-04-24_16h02.46.830,jersey_experiment_5_v0,2023.2.2,Win32,84.03361345,,,,,,,,,,,,,,,,765.5962,766.8902,766.8902,767.3728,return,0.0139,,80.98958333,,,,,,FBP-PT-91.png,0.45,1.2,60,0.5,,,,,,,,,,,,,,,,,,0,53,53,59,1,,,,,,,,,,,,,,,,,,,,,,,
,,,,,SPR24_089,20,Female,2024-04-24_16h02.46.830,jersey_experiment_5_v0,2023.2.2,Win32,84.03361345,,,,,,,,,,,,,,,,767.3731,768.4197,768.4197,769.2433,return,0.1275,,63.41145833,,,,,,FBP-OG-18.png,0.37,1.2,7,0.25,,,,,,,,,,,,,,,,,,0,54,54,6,1,,,,,,,,,,,,,,,,,,,,,,,
,,,,,SPR24_089,20,Female,2024-04-24_16h02.46.830,jersey_experiment_5_v0,2023.2.2,Win32,84.03361345,,,,,,,,,,,,,,,,769.2436,770.5375,770.5375,770.9493,return,0.089,,63.41145833,,,,,,FBP-PT-81.png,0.43,1.2,54,0.5,,,,,,,,,,,,,,,,,,0,55,55,53,1,,,,,,,,,,,,,,,,,,,,,,,
,,,,,SPR24_089,20,Female,2024-04-24_16h02.46.830,jersey_experiment_5_v0,2023.2.2,Win32,84.03361345,,,,,,,,,,,,,,,,770.9494,772.2434,772.2435,772.7963,return,0.0092,,53.25520833,,,,,,FBP-PT-91.png,0.37,1.2,57,0.5,,,,,,,,,,,,,,,,,,0,56,56,56,1,,,,,,,,,,,,,,,,,,,,,,,
,,,,,SPR24_089,20,Female,2024-04-24_16h02.46.830,jersey_experiment_5_v0,2023.2.2,Win32,84.03361345,,,,,,,,,,,,,,,,772.7965,773.8435,773.8435,774.5376,return,0.036,,66.40625,,,,,,FBP-OG-17.png,0.43,1.2,4,0.25,,,,,,,,,,,,,,,,,,0,57,57,3,1,,,,,,,,,,,,,,,,,,,,,,,
,,,,,SPR24_089,20,Female,2024-04-24_16h02.46.830,jersey_experiment_5_v0,2023.2.2,Win32,84.03361345,,,,,,,,,,,,,,,,774.5378,775.8318,775.8318,776.4435,return,0.0805,,66.40625,,,,,,FBP-YG-71.png,0.37,1.2,17,0.5,,,,,,,,,,,,,,,,,,0,58,58,16,1,,,,,,,,,,,,,,,,,,,,,,,
,,,,,SPR24_089,20,Female,2024-04-24_16h02.46.830,jersey_experiment_5_v0,2023.2.2,Win32,84.03361345,,,,,,,,,,,,,,,,776.4437,777.7378,777.7378,778.3495,return,0.0473,,73.69791667,,,,,,FBP-PT-91.png,0.43,1.2,59,0.5,,,,,,,,,,,,,,,,,,0,59,59,58,1,,,,,,,,,,,,,,,,,,,,,,,
,,,,,SPR24_089,20,Female,2024-04-24_16h02.46.830,jersey_experiment_5_v0,2023.2.2,Win32,84.03361345,,,,,,,,,,,,,,,,,,,,,,,,,,,,,,,,,,,,,,,,,,,,,,,,,,,,,,,,778.3497,785.7502,return,7.3918,,,,,,,,,,,,,,,,,,,
,,,,,SPR24_089,20,Female,2024-04-24_16h02.46.830,jersey_experiment_5_v0,2023.2.2,Win32,84.03361345,,,,,,,,,,,,,,,,,,,,,,,,,,,,,,,,,,,,,,,,,,,,,,,,,,,,,,,,,,,,,785.7503,790.903,1,3.9122,return,1.2258,,,,,,,,,,,,
,,,,,SPR24_089,20,Female,2024-04-24_16h02.46.830,jersey_experiment_5_v0,2023.2.2,Win32,84.03361345,,,,,,,,,,,,,,,,,,,,,,,,,,,,,,,,,,,,,,,,,,,,,,,,,,,,,,,,,,,,,,,,,,,,790.9031,874.17,Possibly about how fast one can register difference in appearance in regards to body build.,right,73.8773,,,,,,
,,,,,SPR24_089,20,Female,2024-04-24_16h02.46.830,jersey_experiment_5_v0,2023.2.2,Win32,84.03361345,,,,,,,,,,,,,,,,,,,,,,,,,,,,,,,,,,,,,,,,,,,,,,,,,,,,,,,,,,,,,,,,,,,,,,,,,,874.17,875.9883,return,1.8133,