requirements.started,requirements.stopped,key_resp_3.keys,key_resp_3.rt,key_resp_3.duration,Subject ID,Age,Gender,date,expName,psychopyVersion,OS,frameRate,instructions1.started,instructions1.stopped,key_resp.keys,key_resp.rt,key_resp.duration,example.started,example.stopped,enter_2.keys,enter_2.rt,enter_2.duration,instructions2.started,instructions2.stopped,enter_3.keys,enter_3.rt,enter_3.duration,image.started,image.stopped,slider_2.started,slider_2.stopped,next.keys,next.rt,next.duration,slider.response,trial_block_1.thisRepN,trial_block_1.thisTrialN,trial_block_1.thisN,trial_block_1.thisIndex,trial_block_1.ran,Path,Width,Height,Index,Duration,trial_block_2.thisRepN,trial_block_2.thisTrialN,trial_block_2.thisN,trial_block_2.thisIndex,trial_block_2.ran,rest_break.started,rest_break.stopped,end_break.started,end_break.stopped,key_resp_5.keys,key_resp_5.rt,key_resp_5.duration,trial_block_3.thisRepN,trial_block_3.thisTrialN,trial_block_3.thisN,trial_block_3.thisIndex,trial_block_3.ran,trial_block_4.thisRepN,trial_block_4.thisTrialN,trial_block_4.thisN,trial_block_4.thisIndex,trial_block_4.ran,questions_intro.started,questions_intro.stopped,enter_12.keys,enter_12.rt,enter_12.duration,question2.started,question2.stopped,question_doingbest.response,question_doingbest.rt,enter_15.keys,enter_15.rt,enter_15.duration,pattern.started,pattern.stopped,pattern_2.text,enter_17.keys,enter_17.rt,enter_17.duration,thankyou.started,thankyou.stopped,enter_14.keys,enter_14.rt,enter_14.duration
0.0001,8.1565,return,8.1518,,SPR24_045,21,Male,2024-04-12_13h57.19.433,jersey_experiment_5_v0,2023.2.2,Win32,84.74576271,,,,,,,,,,,,,,,,,,,,,,,,,,,,,,,,,,,,,,,,,,,,,,,,,,,,,,,,,,,,,,,,,,,,,,,,,,,,,,
,,,,,SPR24_045,21,Male,2024-04-12_13h57.19.433,jersey_experiment_5_v0,2023.2.2,Win32,84.74576271,8.1567,13.6235,return,5.4559,,,,,,,,,,,,,,,,,,,,,,,,,,,,,,,,,,,,,,,,,,,,,,,,,,,,,,,,,,,,,,,,,,,,,,,,,,
,,,,,SPR24_045,21,Male,2024-04-12_13h57.19.433,jersey_experiment_5_v0,2023.2.2,Win32,84.74576271,,,,,,13.6235,17.5326,return,3.8753,,,,,,,,,,,,,,,,,,,,,,,,,,,,,,,,,,,,,,,,,,,,,,,,,,,,,,,,,,,,,,,,,,,,,
,,,,,SPR24_045,21,Male,2024-04-12_13h57.19.433,jersey_experiment_5_v0,2023.2.2,Win32,84.74576271,,,,,,,,,,,17.5327,23.7884,return,6.2375,,,,,,,,,,,,,,,,,,,,,,,,,,,,,,,,,,,,,,,,,,,,,,,,,,,,,,,,,,,,,,,,
,,,,,SPR24_045,21,Male,2024-04-12_13h57.19.433,jersey_experiment_5_v0,2023.2.2,Win32,84.74576271,,,,,,,,,,,,,,,,23.7955,24.8471,24.8471,35.3769,return,2.2357,,37.5,0,0,0,58,1,FBP-PT-19.png,0.43,1.2,59,0.25,,,,,,,,,,,,,,,,,,,,,,,,,,,,,,,,,,,,,,,,,,,,,
,,,,,SPR24_045,21,Male,2024-04-12_13h57.19.433,jersey_experiment_5_v0,2023.2.2,Win32,84.74576271,,,,,,,,,,,,,,,,35.3773,36.6709,36.671,40.377,return,0.2304,,87.890625,0,1,1,8,1,FBP-OG-81.png,0.43,1.2,9,0.5,,,,,,,,,,,,,,,,,,,,,,,,,,,,,,,,,,,,,,,,,,,,,
,,,,,SPR24_045,21,Male,2024-04-12_13h57.19.433,jersey_experiment_5_v0,2023.2.2,Win32,84.74576271,,,,,,,,,,,,,,,,40.3773,41.6712,41.6712,44.2244,return,0.2121,,49.609375,0,2,2,5,1,FBP-OG-81.png,0.35,1.2,6,0.5,,,,,,,,,,,,,,,,,,,,,,,,,,,,,,,,,,,,,,,,,,,,,
,,,,,SPR24_045,21,Male,2024-04-12_13h57.19.433,jersey_experiment_5_v0,2023.2.2,Win32,84.74576271,,,,,,,,,,,,,,,,44.2246,45.5183,45.5183,48.0127,return,0.5684,,74.73958333,0,3,3,3,1,FBP-OG-71.png,0.43,1.2,4,0.5,,,,,,,,,,,,,,,,,,,,,,,,,,,,,,,,,,,,,,,,,,,,,
,,,,,SPR24_045,21,Male,2024-04-12_13h57.19.433,jersey_experiment_5_v0,2023.2.2,Win32,84.74576271,,,,,,,,,,,,,,,,48.0129,49.0597,49.0597,52.4128,return,1.6741,,37.109375,0,4,4,45,1,FBP-PT-17.png,0.35,1.2,46,0.25,,,,,,,,,,,,,,,,,,,,,,,,,,,,,,,,,,,,,,,,,,,,,
,,,,,SPR24_045,21,Male,2024-04-12_13h57.19.433,jersey_experiment_5_v0,2023.2.2,Win32,84.74576271,,,,,,,,,,,,,,,,52.413,53.4599,53.4599,56.5541,return,0.0389,,81.38020833,0,5,5,22,1,FBP-YG-18.png,0.4,1.2,23,0.25,,,,,,,,,,,,,,,,,,,,,,,,,,,,,,,,,,,,,,,,,,,,,
,,,,,SPR24_045,21,Male,2024-04-12_13h57.19.433,jersey_experiment_5_v0,2023.2.2,Win32,84.74576271,,,,,,,,,,,,,,,,56.5543,57.6012,57.6012,60.3308,return,0.8973,,94.01041667,0,6,6,28,1,FBP-YG-19.png,0.43,1.2,29,0.25,,,,,,,,,,,,,,,,,,,,,,,,,,,,,,,,,,,,,,,,,,,,,
,,,,,SPR24_045,21,Male,2024-04-12_13h57.19.433,jersey_experiment_5_v0,2023.2.2,Win32,84.74576271,,,,,,,,,,,,,,,,60.3311,61.3777,61.3778,62.9428,return,0.1558,,66.796875,0,7,7,46,1,FBP-PT-17.png,0.37,1.2,47,0.25,,,,,,,,,,,,,,,,,,,,,,,,,,,,,,,,,,,,,,,,,,,,,
,,,,,SPR24_045,21,Male,2024-04-12_13h57.19.433,jersey_experiment_5_v0,2023.2.2,Win32,84.74576271,,,,,,,,,,,,,,,,62.9429,63.9896,63.9896,65.5781,return,0.1122,,88.28125,0,8,8,52,1,FBP-PT-18.png,0.4,1.2,53,0.25,,,,,,,,,,,,,,,,,,,,,,,,,,,,,,,,,,,,,,,,,,,,,
,,,,,SPR24_045,21,Male,2024-04-12_13h57.19.433,jersey_experiment_5_v0,2023.2.2,Win32,84.74576271,,,,,,,,,,,,,,,,65.5782,66.625,66.625,68.4485,return,0.0467,,87.890625,0,9,9,17,1,FBP-YG-17.png,0.4,1.2,18,0.25,,,,,,,,,,,,,,,,,,,,,,,,,,,,,,,,,,,,,,,,,,,,,
,,,,,SPR24_045,21,Male,2024-04-12_13h57.19.433,jersey_experiment_5_v0,2023.2.2,Win32,84.74576271,,,,,,,,,,,,,,,,68.4487,69.4956,69.4957,71.1781,return,0.1122,,95.96354167,0,10,10,24,1,FBP-YG-18.png,0.45,1.2,25,0.25,,,,,,,,,,,,,,,,,,,,,,,,,,,,,,,,,,,,,,,,,,,,,
,,,,,SPR24_045,21,Male,2024-04-12_13h57.19.433,jersey_experiment_5_v0,2023.2.2,Win32,84.74576271,,,,,,,,,,,,,,,,71.1784,72.4722,72.4723,73.3548,return,0.0859,,100,0,11,11,14,1,FBP-OG-91.png,0.45,1.2,15,0.5,,,,,,,,,,,,,,,,,,,,,,,,,,,,,,,,,,,,,,,,,,,,,
,,,,,SPR24_045,21,Male,2024-04-12_13h57.19.433,jersey_experiment_5_v0,2023.2.2,Win32,84.74576271,,,,,,,,,,,,,,,,73.3551,74.6488,74.6488,76.5902,return,0.0376,,66.92708333,0,12,12,1,1,FBP-OG-71.png,0.37,1.2,2,0.5,,,,,,,,,,,,,,,,,,,,,,,,,,,,,,,,,,,,,,,,,,,,,
,,,,,SPR24_045,21,Male,2024-04-12_13h57.19.433,jersey_experiment_5_v0,2023.2.2,Win32,84.74576271,,,,,,,,,,,,,,,,76.5904,77.8844,77.8844,81.649,return,0.8004,,25,0,13,13,35,1,FBP-RB-18.png,0.35,1.2,36,0.5,,,,,,,,,,,,,,,,,,,,,,,,,,,,,,,,,,,,,,,,,,,,,
,,,,,SPR24_045,21,Male,2024-04-12_13h57.19.433,jersey_experiment_5_v0,2023.2.2,Win32,84.74576271,,,,,,,,,,,,,,,,81.6492,82.9433,82.9434,84.1787,return,0.0942,,49.609375,0,14,14,32,1,FBP-RB-17.png,0.4,1.2,33,0.5,,,,,,,,,,,,,,,,,,,,,,,,,,,,,,,,,,,,,,,,,,,,,
,,,,,SPR24_045,21,Male,2024-04-12_13h57.19.433,jersey_experiment_5_v0,2023.2.2,Win32,84.74576271,,,,,,,,,,,,,,,,84.1788,85.2259,85.226,86.6257,return,0.2686,,63.02083333,0,15,15,53,1,FBP-PT-18.png,0.43,1.2,54,0.25,,,,,,,,,,,,,,,,,,,,,,,,,,,,,,,,,,,,,,,,,,,,,
,,,,,SPR24_045,21,Male,2024-04-12_13h57.19.433,jersey_experiment_5_v0,2023.2.2,Win32,84.74576271,,,,,,,,,,,,,,,,86.6258,87.92,87.9201,89.1787,return,0.168,,85.80729167,0,16,16,4,1,FBP-OG-71.png,0.45,1.2,5,0.5,,,,,,,,,,,,,,,,,,,,,,,,,,,,,,,,,,,,,,,,,,,,,
,,,,,SPR24_045,21,Male,2024-04-12_13h57.19.433,jersey_experiment_5_v0,2023.2.2,Win32,84.74576271,,,,,,,,,,,,,,,,89.1789,90.4732,90.4733,91.7083,return,0.1214,,67.44791667,0,17,17,12,1,FBP-OG-91.png,0.4,1.2,13,0.5,,,,,,,,,,,,,,,,,,,,,,,,,,,,,,,,,,,,,,,,,,,,,
,,,,,SPR24_045,21,Male,2024-04-12_13h57.19.433,jersey_experiment_5_v0,2023.2.2,Win32,84.74576271,,,,,,,,,,,,,,,,91.7085,92.7554,92.7555,94.4496,return,0.0376,,68.48958333,0,18,18,57,1,FBP-PT-19.png,0.4,1.2,58,0.25,,,,,,,,,,,,,,,,,,,,,,,,,,,,,,,,,,,,,,,,,,,,,
,,,,,SPR24_045,21,Male,2024-04-12_13h57.19.433,jersey_experiment_5_v0,2023.2.2,Win32,84.74576271,,,,,,,,,,,,,,,,94.4497,95.4965,95.4965,97.0967,return,0.6191,,68.88020833,0,19,19,26,1,FBP-YG-19.png,0.37,1.2,27,0.25,,,,,,,,,,,,,,,,,,,,,,,,,,,,,,,,,,,,,,,,,,,,,
,,,,,SPR24_045,21,Male,2024-04-12_13h57.19.433,jersey_experiment_5_v0,2023.2.2,Win32,84.74576271,,,,,,,,,,,,,,,,97.0969,98.3908,98.3908,99.6498,return,0.1885,,59.24479167,0,20,20,6,1,FBP-OG-81.png,0.37,1.2,7,0.5,,,,,,,,,,,,,,,,,,,,,,,,,,,,,,,,,,,,,,,,,,,,,
,,,,,SPR24_045,21,Male,2024-04-12_13h57.19.433,jersey_experiment_5_v0,2023.2.2,Win32,84.74576271,,,,,,,,,,,,,,,,99.6501,100.9438,100.9439,102.1558,return,0.2491,,33.07291667,0,21,21,40,1,FBP-RB-19.png,0.35,1.2,41,0.5,,,,,,,,,,,,,,,,,,,,,,,,,,,,,,,,,,,,,,,,,,,,,
,,,,,SPR24_045,21,Male,2024-04-12_13h57.19.433,jersey_experiment_5_v0,2023.2.2,Win32,84.74576271,,,,,,,,,,,,,,,,102.156,103.2028,103.2029,104.4617,return,0.0495,,17.96875,0,22,22,25,1,FBP-YG-19.png,0.35,1.2,26,0.25,,,,,,,,,,,,,,,,,,,,,,,,,,,,,,,,,,,,,,,,,,,,,
,,,,,SPR24_045,21,Male,2024-04-12_13h57.19.433,jersey_experiment_5_v0,2023.2.2,Win32,84.74576271,,,,,,,,,,,,,,,,104.4619,105.5088,105.5088,107.4736,return,0.8806,,42.96875,0,23,23,47,1,FBP-PT-17.png,0.4,1.2,48,0.25,,,,,,,,,,,,,,,,,,,,,,,,,,,,,,,,,,,,,,,,,,,,,
,,,,,SPR24_045,21,Male,2024-04-12_13h57.19.433,jersey_experiment_5_v0,2023.2.2,Win32,84.74576271,,,,,,,,,,,,,,,,107.4738,108.7678,108.7678,109.8031,return,0.0054,,79.16666667,0,24,24,34,1,FBP-RB-17.png,0.45,1.2,35,0.5,,,,,,,,,,,,,,,,,,,,,,,,,,,,,,,,,,,,,,,,,,,,,
,,,,,SPR24_045,21,Male,2024-04-12_13h57.19.433,jersey_experiment_5_v0,2023.2.2,Win32,84.74576271,,,,,,,,,,,,,,,,109.8031,110.8501,110.8502,111.9797,return,0.0636,,86.06770833,0,25,25,23,1,FBP-YG-18.png,0.43,1.2,24,0.25,,,,,,,,,,,,,,,,,,,,,,,,,,,,,,,,,,,,,,,,,,,,,
,,,,,SPR24_045,21,Male,2024-04-12_13h57.19.433,jersey_experiment_5_v0,2023.2.2,Win32,84.74576271,,,,,,,,,,,,,,,,111.9799,113.0267,113.0267,114.3329,return,0.1186,,86.45833333,0,26,26,19,1,FBP-YG-17.png,0.45,1.2,20,0.25,,,,,,,,,,,,,,,,,,,,,,,,,,,,,,,,,,,,,,,,,,,,,
,,,,,SPR24_045,21,Male,2024-04-12_13h57.19.433,jersey_experiment_5_v0,2023.2.2,Win32,84.74576271,,,,,,,,,,,,,,,,114.3332,115.6268,115.6269,118.0621,return,0.0493,,71.09375,0,27,27,43,1,FBP-RB-19.png,0.43,1.2,44,0.5,,,,,,,,,,,,,,,,,,,,,,,,,,,,,,,,,,,,,,,,,,,,,
,,,,,SPR24_045,21,Male,2024-04-12_13h57.19.433,jersey_experiment_5_v0,2023.2.2,Win32,84.74576271,,,,,,,,,,,,,,,,118.0623,119.1092,119.1092,120.3329,return,0.0248,,85.15625,0,28,28,18,1,FBP-YG-17.png,0.43,1.2,19,0.25,,,,,,,,,,,,,,,,,,,,,,,,,,,,,,,,,,,,,,,,,,,,,
,,,,,SPR24_045,21,Male,2024-04-12_13h57.19.433,jersey_experiment_5_v0,2023.2.2,Win32,84.74576271,,,,,,,,,,,,,,,,120.333,121.6271,121.6271,123.0035,return,0.1082,,72.78645833,0,29,29,38,1,FBP-RB-18.png,0.43,1.2,39,0.5,,,,,,,,,,,,,,,,,,,,,,,,,,,,,,,,,,,,,,,,,,,,,
,,,,,SPR24_045,21,Male,2024-04-12_13h57.19.433,jersey_experiment_5_v0,2023.2.2,Win32,84.74576271,,,,,,,,,,,,,,,,123.0037,124.0507,124.0507,124.8977,return,0.0619,,83.984375,0,30,30,49,1,FBP-PT-17.png,0.45,1.2,50,0.25,,,,,,,,,,,,,,,,,,,,,,,,,,,,,,,,,,,,,,,,,,,,,
,,,,,SPR24_045,21,Male,2024-04-12_13h57.19.433,jersey_experiment_5_v0,2023.2.2,Win32,84.74576271,,,,,,,,,,,,,,,,124.8979,126.1919,126.192,126.9213,return,0.0659,,83.33333333,0,31,31,33,1,FBP-RB-17.png,0.43,1.2,34,0.5,,,,,,,,,,,,,,,,,,,,,,,,,,,,,,,,,,,,,,,,,,,,,
,,,,,SPR24_045,21,Male,2024-04-12_13h57.19.433,jersey_experiment_5_v0,2023.2.2,Win32,84.74576271,,,,,,,,,,,,,,,,126.9216,128.2156,128.2156,129.3685,return,0.1136,,36.84895833,0,32,32,11,1,FBP-OG-91.png,0.37,1.2,12,0.5,,,,,,,,,,,,,,,,,,,,,,,,,,,,,,,,,,,,,,,,,,,,,
,,,,,SPR24_045,21,Male,2024-04-12_13h57.19.433,jersey_experiment_5_v0,2023.2.2,Win32,84.74576271,,,,,,,,,,,,,,,,129.3688,130.4154,130.4154,133.4158,return,0.6551,,50.390625,0,33,33,16,1,FBP-YG-17.png,0.37,1.2,17,0.25,,,,,,,,,,,,,,,,,,,,,,,,,,,,,,,,,,,,,,,,,,,,,
,,,,,SPR24_045,21,Male,2024-04-12_13h57.19.433,jersey_experiment_5_v0,2023.2.2,Win32,84.74576271,,,,,,,,,,,,,,,,133.416,134.7097,134.7098,135.851,return,0.0051,,49.73958333,0,34,34,7,1,FBP-OG-81.png,0.4,1.2,8,0.5,,,,,,,,,,,,,,,,,,,,,,,,,,,,,,,,,,,,,,,,,,,,,
,,,,,SPR24_045,21,Male,2024-04-12_13h57.19.433,jersey_experiment_5_v0,2023.2.2,Win32,84.74576271,,,,,,,,,,,,,,,,135.8513,137.1452,137.1452,137.8394,return,0.1321,,50.13020833,0,35,35,31,1,FBP-RB-17.png,0.37,1.2,32,0.5,,,,,,,,,,,,,,,,,,,,,,,,,,,,,,,,,,,,,,,,,,,,,
,,,,,SPR24_045,21,Male,2024-04-12_13h57.19.433,jersey_experiment_5_v0,2023.2.2,Win32,84.74576271,,,,,,,,,,,,,,,,137.8396,139.1336,139.1336,141.6161,return,1.4592,,79.42708333,0,36,36,39,1,FBP-RB-18.png,0.45,1.2,40,0.5,,,,,,,,,,,,,,,,,,,,,,,,,,,,,,,,,,,,,,,,,,,,,
,,,,,SPR24_045,21,Male,2024-04-12_13h57.19.433,jersey_experiment_5_v0,2023.2.2,Win32,84.74576271,,,,,,,,,,,,,,,,141.6163,142.663,142.6631,144.3457,return,0.5336,,90.36458333,0,37,37,59,1,FBP-PT-19.png,0.45,1.2,60,0.25,,,,,,,,,,,,,,,,,,,,,,,,,,,,,,,,,,,,,,,,,,,,,
,,,,,SPR24_045,21,Male,2024-04-12_13h57.19.433,jersey_experiment_5_v0,2023.2.2,Win32,84.74576271,,,,,,,,,,,,,,,,144.3459,145.6396,145.6396,146.1689,return,0.0283,,91.66666667,0,38,38,9,1,FBP-OG-81.png,0.45,1.2,10,0.5,,,,,,,,,,,,,,,,,,,,,,,,,,,,,,,,,,,,,,,,,,,,,
,,,,,SPR24_045,21,Male,2024-04-12_13h57.19.433,jersey_experiment_5_v0,2023.2.2,Win32,84.74576271,,,,,,,,,,,,,,,,146.1692,147.4633,147.4633,148.8283,return,0.0493,,10.80729167,0,39,39,10,1,FBP-OG-91.png,0.35,1.2,11,0.5,,,,,,,,,,,,,,,,,,,,,,,,,,,,,,,,,,,,,,,,,,,,,
,,,,,SPR24_045,21,Male,2024-04-12_13h57.19.433,jersey_experiment_5_v0,2023.2.2,Win32,84.74576271,,,,,,,,,,,,,,,,148.8284,150.1224,150.1224,151.2752,return,0.0875,,57.421875,0,40,40,13,1,FBP-OG-91.png,0.43,1.2,14,0.5,,,,,,,,,,,,,,,,,,,,,,,,,,,,,,,,,,,,,,,,,,,,,
,,,,,SPR24_045,21,Male,2024-04-12_13h57.19.433,jersey_experiment_5_v0,2023.2.2,Win32,84.74576271,,,,,,,,,,,,,,,,151.2754,152.3223,152.3224,153.9929,return,0.2896,,25,0,41,41,20,1,FBP-YG-18.png,0.35,1.2,21,0.25,,,,,,,,,,,,,,,,,,,,,,,,,,,,,,,,,,,,,,,,,,,,,
,,,,,SPR24_045,21,Male,2024-04-12_13h57.19.433,jersey_experiment_5_v0,2023.2.2,Win32,84.74576271,,,,,,,,,,,,,,,,153.9931,155.2872,155.2872,156.3931,return,0.2192,,12.890625,0,42,42,0,1,FBP-OG-71.png,0.35,1.2,1,0.5,,,,,,,,,,,,,,,,,,,,,,,,,,,,,,,,,,,,,,,,,,,,,
,,,,,SPR24_045,21,Male,2024-04-12_13h57.19.433,jersey_experiment_5_v0,2023.2.2,Win32,84.74576271,,,,,,,,,,,,,,,,156.3932,157.6872,157.6872,158.8871,return,0.2208,,74.47916667,0,43,43,44,1,FBP-RB-19.png,0.45,1.2,45,0.5,,,,,,,,,,,,,,,,,,,,,,,,,,,,,,,,,,,,,,,,,,,,,
,,,,,SPR24_045,21,Male,2024-04-12_13h57.19.433,jersey_experiment_5_v0,2023.2.2,Win32,84.74576271,,,,,,,,,,,,,,,,158.8872,160.1813,160.1814,161.7933,return,0.6592,,37.63020833,0,44,44,36,1,FBP-RB-18.png,0.37,1.2,37,0.5,,,,,,,,,,,,,,,,,,,,,,,,,,,,,,,,,,,,,,,,,,,,,
,,,,,SPR24_045,21,Male,2024-04-12_13h57.19.433,jersey_experiment_5_v0,2023.2.2,Win32,84.74576271,,,,,,,,,,,,,,,,161.7935,162.8405,162.8405,164.299,return,0.0759,,24.73958333,0,45,45,50,1,FBP-PT-18.png,0.35,1.2,51,0.25,,,,,,,,,,,,,,,,,,,,,,,,,,,,,,,,,,,,,,,,,,,,,
,,,,,SPR24_045,21,Male,2024-04-12_13h57.19.433,jersey_experiment_5_v0,2023.2.2,Win32,84.74576271,,,,,,,,,,,,,,,,164.2992,165.3463,165.3464,166.9583,return,0.482,,44.53125,0,46,46,27,1,FBP-YG-19.png,0.4,1.2,28,0.25,,,,,,,,,,,,,,,,,,,,,,,,,,,,,,,,,,,,,,,,,,,,,
,,,,,SPR24_045,21,Male,2024-04-12_13h57.19.433,jersey_experiment_5_v0,2023.2.2,Win32,84.74576271,,,,,,,,,,,,,,,,166.9585,168.2521,168.2522,169.6171,return,0.494,,28.125,0,47,47,41,1,FBP-RB-19.png,0.37,1.2,42,0.5,,,,,,,,,,,,,,,,,,,,,,,,,,,,,,,,,,,,,,,,,,,,,
,,,,,SPR24_045,21,Male,2024-04-12_13h57.19.433,jersey_experiment_5_v0,2023.2.2,Win32,84.74576271,,,,,,,,,,,,,,,,169.6173,170.6641,170.6642,171.7584,return,0.0588,,8.072916667,0,48,48,55,1,FBP-PT-19.png,0.35,1.2,56,0.25,,,,,,,,,,,,,,,,,,,,,,,,,,,,,,,,,,,,,,,,,,,,,
,,,,,SPR24_045,21,Male,2024-04-12_13h57.19.433,jersey_experiment_5_v0,2023.2.2,Win32,84.74576271,,,,,,,,,,,,,,,,171.7587,172.8054,172.8054,173.8406,return,0.0475,,7.421875,0,49,49,51,1,FBP-PT-18.png,0.37,1.2,52,0.25,,,,,,,,,,,,,,,,,,,,,,,,,,,,,,,,,,,,,,,,,,,,,
,,,,,SPR24_045,21,Male,2024-04-12_13h57.19.433,jersey_experiment_5_v0,2023.2.2,Win32,84.74576271,,,,,,,,,,,,,,,,173.8407,174.8877,174.8877,175.8408,return,0.0382,,6.770833333,0,50,50,15,1,FBP-YG-17.png,0.35,1.2,16,0.25,,,,,,,,,,,,,,,,,,,,,,,,,,,,,,,,,,,,,,,,,,,,,
,,,,,SPR24_045,21,Male,2024-04-12_13h57.19.433,jersey_experiment_5_v0,2023.2.2,Win32,84.74576271,,,,,,,,,,,,,,,,175.8409,177.135,177.135,179.0411,return,0.0617,,61.58854167,0,51,51,42,1,FBP-RB-19.png,0.4,1.2,43,0.5,,,,,,,,,,,,,,,,,,,,,,,,,,,,,,,,,,,,,,,,,,,,,
,,,,,SPR24_045,21,Male,2024-04-12_13h57.19.433,jersey_experiment_5_v0,2023.2.2,Win32,84.74576271,,,,,,,,,,,,,,,,179.0412,180.335,180.3351,181.7939,return,0.0468,,31.51041667,0,52,52,30,1,FBP-RB-17.png,0.35,1.2,31,0.5,,,,,,,,,,,,,,,,,,,,,,,,,,,,,,,,,,,,,,,,,,,,,
,,,,,SPR24_045,21,Male,2024-04-12_13h57.19.433,jersey_experiment_5_v0,2023.2.2,Win32,84.74576271,,,,,,,,,,,,,,,,181.7941,182.841,182.8411,184.0293,return,0.0006,,83.203125,0,53,53,29,1,FBP-YG-19.png,0.45,1.2,30,0.25,,,,,,,,,,,,,,,,,,,,,,,,,,,,,,,,,,,,,,,,,,,,,
,,,,,SPR24_045,21,Male,2024-04-12_13h57.19.433,jersey_experiment_5_v0,2023.2.2,Win32,84.74576271,,,,,,,,,,,,,,,,184.0296,185.0764,185.0764,186.4178,return,0.0562,,36.71875,0,54,54,21,1,FBP-YG-18.png,0.37,1.2,22,0.25,,,,,,,,,,,,,,,,,,,,,,,,,,,,,,,,,,,,,,,,,,,,,
,,,,,SPR24_045,21,Male,2024-04-12_13h57.19.433,jersey_experiment_5_v0,2023.2.2,Win32,84.74576271,,,,,,,,,,,,,,,,186.4181,187.4649,187.465,188.5943,return,0.0474,,78.64583333,0,55,55,48,1,FBP-PT-17.png,0.43,1.2,49,0.25,,,,,,,,,,,,,,,,,,,,,,,,,,,,,,,,,,,,,,,,,,,,,
,,,,,SPR24_045,21,Male,2024-04-12_13h57.19.433,jersey_experiment_5_v0,2023.2.2,Win32,84.74576271,,,,,,,,,,,,,,,,188.5945,189.8885,189.8885,194.1239,return,0.228,,54.296875,0,56,56,37,1,FBP-RB-18.png,0.4,1.2,38,0.5,,,,,,,,,,,,,,,,,,,,,,,,,,,,,,,,,,,,,,,,,,,,,
,,,,,SPR24_045,21,Male,2024-04-12_13h57.19.433,jersey_experiment_5_v0,2023.2.2,Win32,84.74576271,,,,,,,,,,,,,,,,194.1241,195.418,195.4181,196.971,return,0.3932,,49.609375,0,57,57,2,1,FBP-OG-71.png,0.4,1.2,3,0.5,,,,,,,,,,,,,,,,,,,,,,,,,,,,,,,,,,,,,,,,,,,,,
,,,,,SPR24_045,21,Male,2024-04-12_13h57.19.433,jersey_experiment_5_v0,2023.2.2,Win32,84.74576271,,,,,,,,,,,,,,,,196.9711,198.018,198.018,199.3358,return,0.079,,40.75520833,0,58,58,56,1,FBP-PT-19.png,0.37,1.2,57,0.25,,,,,,,,,,,,,,,,,,,,,,,,,,,,,,,,,,,,,,,,,,,,,
,,,,,SPR24_045,21,Male,2024-04-12_13h57.19.433,jersey_experiment_5_v0,2023.2.2,Win32,84.74576271,,,,,,,,,,,,,,,,199.3359,200.3828,200.3828,202.0182,return,0.3299,,77.86458333,0,59,59,54,1,FBP-PT-18.png,0.45,1.2,55,0.25,,,,,,,,,,,,,,,,,,,,,,,,,,,,,,,,,,,,,,,,,,,,,
,,,,,SPR24_045,21,Male,2024-04-12_13h57.19.433,jersey_experiment_5_v0,2023.2.2,Win32,84.74576271,,,,,,,,,,,,,,,,202.0224,203.3241,203.3242,205.2772,return,0.3771,,77.60416667,,,,,,FBP-RB-81.png,0.43,1.2,39,0.5,0,0,0,38,1,,,,,,,,,,,,,,,,,,,,,,,,,,,,,,,,,,,,,,,,
,,,,,SPR24_045,21,Male,2024-04-12_13h57.19.433,jersey_experiment_5_v0,2023.2.2,Win32,84.74576271,,,,,,,,,,,,,,,,205.2774,206.3243,206.3244,207.8066,return,0.0584,,36.84895833,,,,,,FBP-YG-81.png,0.4,1.2,23,0.25,0,1,1,22,1,,,,,,,,,,,,,,,,,,,,,,,,,,,,,,,,,,,,,,,,
,,,,,SPR24_045,21,Male,2024-04-12_13h57.19.433,jersey_experiment_5_v0,2023.2.2,Win32,84.74576271,,,,,,,,,,,,,,,,207.807,209.101,209.101,210.0303,return,0.0382,,65.36458333,,,,,,FBP-OG-17.png,0.43,1.2,4,0.5,0,2,2,3,1,,,,,,,,,,,,,,,,,,,,,,,,,,,,,,,,,,,,,,,,
,,,,,SPR24_045,21,Male,2024-04-12_13h57.19.433,jersey_experiment_5_v0,2023.2.2,Win32,84.74576271,,,,,,,,,,,,,,,,210.0304,211.3245,211.3245,214.7952,return,0.0287,,50.13020833,,,,,,FBP-RB-81.png,0.37,1.2,37,0.5,0,3,3,36,1,,,,,,,,,,,,,,,,,,,,,,,,,,,,,,,,,,,,,,,,
,,,,,SPR24_045,21,Male,2024-04-12_13h57.19.433,jersey_experiment_5_v0,2023.2.2,Win32,84.74576271,,,,,,,,,,,,,,,,214.7954,216.0892,216.0892,217.36,return,0.3626,,36.19791667,,,,,,FBP-RB-91.png,0.37,1.2,42,0.5,0,4,4,41,1,,,,,,,,,,,,,,,,,,,,,,,,,,,,,,,,,,,,,,,,
,,,,,SPR24_045,21,Male,2024-04-12_13h57.19.433,jersey_experiment_5_v0,2023.2.2,Win32,84.74576271,,,,,,,,,,,,,,,,217.3602,218.4071,218.4071,220.0658,return,0.0707,,67.1875,,,,,,FBP-PT-71.png,0.45,1.2,50,0.25,0,5,5,49,1,,,,,,,,,,,,,,,,,,,,,,,,,,,,,,,,,,,,,,,,
,,,,,SPR24_045,21,Male,2024-04-12_13h57.19.433,jersey_experiment_5_v0,2023.2.2,Win32,84.74576271,,,,,,,,,,,,,,,,220.066,221.1132,221.1132,222.6072,return,0.1275,,31.90104167,,,,,,FBP-PT-71.png,0.35,1.2,46,0.25,0,6,6,45,1,,,,,,,,,,,,,,,,,,,,,,,,,,,,,,,,,,,,,,,,
,,,,,SPR24_045,21,Male,2024-04-12_13h57.19.433,jersey_experiment_5_v0,2023.2.2,Win32,84.74576271,,,,,,,,,,,,,,,,222.6074,223.6544,223.6544,224.8897,return,0.0629,,78.25520833,,,,,,FBP-YG-71.png,0.45,1.2,20,0.25,0,7,7,19,1,,,,,,,,,,,,,,,,,,,,,,,,,,,,,,,,,,,,,,,,
,,,,,SPR24_045,21,Male,2024-04-12_13h57.19.433,jersey_experiment_5_v0,2023.2.2,Win32,84.74576271,,,,,,,,,,,,,,,,224.8898,225.9368,225.9368,227.3135,return,0.071,,29.296875,,,,,,FBP-PT-91.png,0.35,1.2,56,0.25,0,8,8,55,1,,,,,,,,,,,,,,,,,,,,,,,,,,,,,,,,,,,,,,,,
,,,,,SPR24_045,21,Male,2024-04-12_13h57.19.433,jersey_experiment_5_v0,2023.2.2,Win32,84.74576271,,,,,,,,,,,,,,,,227.3136,228.3603,228.3603,229.431,return,0.0564,,80.59895833,,,,,,FBP-PT-71.png,0.43,1.2,49,0.25,0,9,9,48,1,,,,,,,,,,,,,,,,,,,,,,,,,,,,,,,,,,,,,,,,
,,,,,SPR24_045,21,Male,2024-04-12_13h57.19.433,jersey_experiment_5_v0,2023.2.2,Win32,84.74576271,,,,,,,,,,,,,,,,229.4312,230.4782,230.4782,231.7134,return,0.1505,,88.671875,,,,,,FBP-PT-81.png,0.45,1.2,55,0.25,0,10,10,54,1,,,,,,,,,,,,,,,,,,,,,,,,,,,,,,,,,,,,,,,,
,,,,,SPR24_045,21,Male,2024-04-12_13h57.19.433,jersey_experiment_5_v0,2023.2.2,Win32,84.74576271,,,,,,,,,,,,,,,,231.7136,233.0076,233.0076,234.231,return,0.1599,,78.38541667,,,,,,FBP-OG-18.png,0.4,1.2,8,0.5,0,11,11,7,1,,,,,,,,,,,,,,,,,,,,,,,,,,,,,,,,,,,,,,,,
,,,,,SPR24_045,21,Male,2024-04-12_13h57.19.433,jersey_experiment_5_v0,2023.2.2,Win32,84.74576271,,,,,,,,,,,,,,,,234.2313,235.5253,235.5253,236.7488,return,0.0743,,17.96875,,,,,,FBP-OG-19.png,0.35,1.2,11,0.5,0,12,12,10,1,,,,,,,,,,,,,,,,,,,,,,,,,,,,,,,,,,,,,,,,
,,,,,SPR24_045,21,Male,2024-04-12_13h57.19.433,jersey_experiment_5_v0,2023.2.2,Win32,84.74576271,,,,,,,,,,,,,,,,236.7491,237.7958,237.7959,239.9608,return,0.3817,,77.34375,,,,,,FBP-YG-81.png,0.43,1.2,24,0.25,0,13,13,23,1,,,,,,,,,,,,,,,,,,,,,,,,,,,,,,,,,,,,,,,,
,,,,,SPR24_045,21,Male,2024-04-12_13h57.19.433,jersey_experiment_5_v0,2023.2.2,Win32,84.74576271,,,,,,,,,,,,,,,,239.961,241.0079,241.0079,242.0432,return,0.085,,28.25520833,,,,,,FBP-PT-81.png,0.37,1.2,52,0.25,0,14,14,51,1,,,,,,,,,,,,,,,,,,,,,,,,,,,,,,,,,,,,,,,,
,,,,,SPR24_045,21,Male,2024-04-12_13h57.19.433,jersey_experiment_5_v0,2023.2.2,Win32,84.74576271,,,,,,,,,,,,,,,,242.0434,243.3373,243.3373,244.6669,return,0.2997,,79.6875,,,,,,FBP-OG-19.png,0.45,1.2,15,0.5,0,15,15,14,1,,,,,,,,,,,,,,,,,,,,,,,,,,,,,,,,,,,,,,,,
,,,,,SPR24_045,21,Male,2024-04-12_13h57.19.433,jersey_experiment_5_v0,2023.2.2,Win32,84.74576271,,,,,,,,,,,,,,,,244.6672,245.9612,245.9612,246.8905,return,0.0859,,20.57291667,,,,,,FBP-OG-19.png,0.37,1.2,12,0.5,0,16,16,11,1,,,,,,,,,,,,,,,,,,,,,,,,,,,,,,,,,,,,,,,,
,,,,,SPR24_045,21,Male,2024-04-12_13h57.19.433,jersey_experiment_5_v0,2023.2.2,Win32,84.74576271,,,,,,,,,,,,,,,,246.8908,247.9376,247.9376,249.1025,return,0.1053,,19.40104167,,,,,,FBP-YG-81.png,0.37,1.2,22,0.25,0,17,17,21,1,,,,,,,,,,,,,,,,,,,,,,,,,,,,,,,,,,,,,,,,
,,,,,SPR24_045,21,Male,2024-04-12_13h57.19.433,jersey_experiment_5_v0,2023.2.2,Win32,84.74576271,,,,,,,,,,,,,,,,249.1027,250.3964,250.3964,251.4553,return,0.1181,,20.96354167,,,,,,FBP-OG-17.png,0.37,1.2,2,0.5,0,18,18,1,1,,,,,,,,,,,,,,,,,,,,,,,,,,,,,,,,,,,,,,,,
,,,,,SPR24_045,21,Male,2024-04-12_13h57.19.433,jersey_experiment_5_v0,2023.2.2,Win32,84.74576271,,,,,,,,,,,,,,,,251.4554,252.7495,252.7496,254.3379,return,0.0146,,53.90625,,,,,,FBP-RB-81.png,0.4,1.2,38,0.5,0,19,19,37,1,,,,,,,,,,,,,,,,,,,,,,,,,,,,,,,,,,,,,,,,
,,,,,SPR24_045,21,Male,2024-04-12_13h57.19.433,jersey_experiment_5_v0,2023.2.2,Win32,84.74576271,,,,,,,,,,,,,,,,254.3381,255.632,255.632,256.3026,return,0.0013,,57.68229167,,,,,,FBP-OG-19.png,0.4,1.2,13,0.5,0,20,20,12,1,,,,,,,,,,,,,,,,,,,,,,,,,,,,,,,,,,,,,,,,
,,,,,SPR24_045,21,Male,2024-04-12_13h57.19.433,jersey_experiment_5_v0,2023.2.2,Win32,84.74576271,,,,,,,,,,,,,,,,256.3028,257.3496,257.3497,258.2322,return,0.1258,,40.234375,,,,,,FBP-YG-91.png,0.35,1.2,26,0.25,0,21,21,25,1,,,,,,,,,,,,,,,,,,,,,,,,,,,,,,,,,,,,,,,,
,,,,,SPR24_045,21,Male,2024-04-12_13h57.19.433,jersey_experiment_5_v0,2023.2.2,Win32,84.74576271,,,,,,,,,,,,,,,,258.2324,259.2791,259.2791,261.3733,return,0.3443,,63.15104167,,,,,,FBP-PT-91.png,0.45,1.2,60,0.25,0,22,22,59,1,,,,,,,,,,,,,,,,,,,,,,,,,,,,,,,,,,,,,,,,
,,,,,SPR24_045,21,Male,2024-04-12_13h57.19.433,jersey_experiment_5_v0,2023.2.2,Win32,84.74576271,,,,,,,,,,,,,,,,261.3735,262.4203,262.4204,263.9499,return,0.0022,,85.9375,,,,,,FBP-YG-91.png,0.45,1.2,30,0.25,0,23,23,29,1,,,,,,,,,,,,,,,,,,,,,,,,,,,,,,,,,,,,,,,,
,,,,,SPR24_045,21,Male,2024-04-12_13h57.19.433,jersey_experiment_5_v0,2023.2.2,Win32,84.74576271,,,,,,,,,,,,,,,,263.9501,264.9971,264.9972,266.0798,return,0.0618,,29.6875,,,,,,FBP-YG-71.png,0.35,1.2,16,0.25,0,24,24,15,1,,,,,,,,,,,,,,,,,,,,,,,,,,,,,,,,,,,,,,,,
,,,,,SPR24_045,21,Male,2024-04-12_13h57.19.433,jersey_experiment_5_v0,2023.2.2,Win32,84.74576271,,,,,,,,,,,,,,,,266.08,267.3736,267.3736,268.2796,return,0.0646,,83.07291667,,,,,,FBP-RB-71.png,0.43,1.2,34,0.5,0,25,25,33,1,,,,,,,,,,,,,,,,,,,,,,,,,,,,,,,,,,,,,,,,
,,,,,SPR24_045,21,Male,2024-04-12_13h57.19.433,jersey_experiment_5_v0,2023.2.2,Win32,84.74576271,,,,,,,,,,,,,,,,268.2798,269.5736,269.5736,270.4325,return,0.0376,,92.44791667,,,,,,FBP-OG-17.png,0.45,1.2,5,0.5,0,26,26,4,1,,,,,,,,,,,,,,,,,,,,,,,,,,,,,,,,,,,,,,,,
,,,,,SPR24_045,21,Male,2024-04-12_13h57.19.433,jersey_experiment_5_v0,2023.2.2,Win32,84.74576271,,,,,,,,,,,,,,,,270.4328,271.7266,271.7266,272.456,return,0.0292,,93.75,,,,,,FBP-RB-71.png,0.45,1.2,35,0.5,0,27,27,34,1,,,,,,,,,,,,,,,,,,,,,,,,,,,,,,,,,,,,,,,,
,,,,,SPR24_045,21,Male,2024-04-12_13h57.19.433,jersey_experiment_5_v0,2023.2.2,Win32,84.74576271,,,,,,,,,,,,,,,,272.4563,273.5032,273.5032,274.5855,return,0.0538,,92.83854167,,,,,,FBP-YG-81.png,0.45,1.2,25,0.25,0,28,28,24,1,,,,,,,,,,,,,,,,,,,,,,,,,,,,,,,,,,,,,,,,
,,,,,SPR24_045,21,Male,2024-04-12_13h57.19.433,jersey_experiment_5_v0,2023.2.2,Win32,84.74576271,,,,,,,,,,,,,,,,274.5857,275.6328,275.6329,276.7386,return,0.0943,,71.875,,,,,,FBP-PT-81.png,0.4,1.2,53,0.25,0,29,29,52,1,,,,,,,,,,,,,,,,,,,,,,,,,,,,,,,,,,,,,,,,
,,,,,SPR24_045,21,Male,2024-04-12_13h57.19.433,jersey_experiment_5_v0,2023.2.2,Win32,84.74576271,,,,,,,,,,,,,,,,276.7388,278.0329,278.033,279.821,return,0.0233,,70.18229167,,,,,,FBP-RB-91.png,0.4,1.2,43,0.5,0,30,30,42,1,,,,,,,,,,,,,,,,,,,,,,,,,,,,,,,,,,,,,,,,
,,,,,SPR24_045,21,Male,2024-04-12_13h57.19.433,jersey_experiment_5_v0,2023.2.2,Win32,84.74576271,,,,,,,,,,,,,,,,279.8213,280.8681,280.8681,282.7506,return,0.0585,,49.73958333,,,,,,FBP-YG-91.png,0.37,1.2,27,0.25,0,31,31,26,1,,,,,,,,,,,,,,,,,,,,,,,,,,,,,,,,,,,,,,,,
,,,,,SPR24_045,21,Male,2024-04-12_13h57.19.433,jersey_experiment_5_v0,2023.2.2,Win32,84.74576271,,,,,,,,,,,,,,,,282.7508,283.7977,283.7977,285.4565,return,0.0468,,53.125,,,,,,FBP-YG-91.png,0.4,1.2,28,0.25,0,32,32,27,1,,,,,,,,,,,,,,,,,,,,,,,,,,,,,,,,,,,,,,,,
,,,,,SPR24_045,21,Male,2024-04-12_13h57.19.433,jersey_experiment_5_v0,2023.2.2,Win32,84.74576271,,,,,,,,,,,,,,,,285.4567,286.5036,286.5036,288.2215,return,0.3301,,70.57291667,,,,,,FBP-PT-91.png,0.43,1.2,59,0.25,0,33,33,58,1,,,,,,,,,,,,,,,,,,,,,,,,,,,,,,,,,,,,,,,,
,,,,,SPR24_045,21,Male,2024-04-12_13h57.19.433,jersey_experiment_5_v0,2023.2.2,Win32,84.74576271,,,,,,,,,,,,,,,,288.2216,289.2685,289.2685,290.5389,return,0.0522,,70.96354167,,,,,,FBP-YG-71.png,0.43,1.2,19,0.25,0,34,34,18,1,,,,,,,,,,,,,,,,,,,,,,,,,,,,,,,,,,,,,,,,
,,,,,SPR24_045,21,Male,2024-04-12_13h57.19.433,jersey_experiment_5_v0,2023.2.2,Win32,84.74576271,,,,,,,,,,,,,,,,290.5391,291.5865,291.5866,292.6333,return,0.0632,,39.71354167,,,,,,FBP-YG-71.png,0.37,1.2,17,0.25,0,35,35,16,1,,,,,,,,,,,,,,,,,,,,,,,,,,,,,,,,,,,,,,,,
,,,,,SPR24_045,21,Male,2024-04-12_13h57.19.433,jersey_experiment_5_v0,2023.2.2,Win32,84.74576271,,,,,,,,,,,,,,,,292.6334,293.9275,293.9275,294.8452,return,0.097,,36.06770833,,,,,,FBP-OG-17.png,0.4,1.2,3,0.5,0,36,36,2,1,,,,,,,,,,,,,,,,,,,,,,,,,,,,,,,,,,,,,,,,
,,,,,SPR24_045,21,Male,2024-04-12_13h57.19.433,jersey_experiment_5_v0,2023.2.2,Win32,84.74576271,,,,,,,,,,,,,,,,294.8456,296.1392,296.1392,296.9394,return,0.0989,,28.515625,,,,,,FBP-OG-18.png,0.37,1.2,7,0.5,0,37,37,6,1,,,,,,,,,,,,,,,,,,,,,,,,,,,,,,,,,,,,,,,,
,,,,,SPR24_045,21,Male,2024-04-12_13h57.19.433,jersey_experiment_5_v0,2023.2.2,Win32,84.74576271,,,,,,,,,,,,,,,,296.9395,297.9865,297.9865,298.9393,return,0.099,,18.22916667,,,,,,FBP-PT-81.png,0.35,1.2,51,0.25,0,38,38,50,1,,,,,,,,,,,,,,,,,,,,,,,,,,,,,,,,,,,,,,,,
,,,,,SPR24_045,21,Male,2024-04-12_13h57.19.433,jersey_experiment_5_v0,2023.2.2,Win32,84.74576271,,,,,,,,,,,,,,,,298.9395,300.2334,300.2334,301.1632,return,0.073,,19.140625,,,,,,FBP-RB-71.png,0.37,1.2,32,0.5,0,39,39,31,1,,,,,,,,,,,,,,,,,,,,,,,,,,,,,,,,,,,,,,,,
,,,,,SPR24_045,21,Male,2024-04-12_13h57.19.433,jersey_experiment_5_v0,2023.2.2,Win32,84.74576271,,,,,,,,,,,,,,,,301.1634,302.4572,302.4572,303.4103,return,0.1182,,17.83854167,,,,,,FBP-OG-18.png,0.35,1.2,6,0.5,0,40,40,5,1,,,,,,,,,,,,,,,,,,,,,,,,,,,,,,,,,,,,,,,,
,,,,,SPR24_045,21,Male,2024-04-12_13h57.19.433,jersey_experiment_5_v0,2023.2.2,Win32,84.74576271,,,,,,,,,,,,,,,,303.4105,304.7041,304.7042,305.5984,return,0.0578,,62.23958333,,,,,,FBP-RB-91.png,0.43,1.2,44,0.5,0,41,41,43,1,,,,,,,,,,,,,,,,,,,,,,,,,,,,,,,,,,,,,,,,
,,,,,SPR24_045,21,Male,2024-04-12_13h57.19.433,jersey_experiment_5_v0,2023.2.2,Win32,84.74576271,,,,,,,,,,,,,,,,305.5987,306.6454,306.6456,308.0337,return,0.0381,,54.296875,,,,,,FBP-PT-91.png,0.37,1.2,57,0.25,0,42,42,56,1,,,,,,,,,,,,,,,,,,,,,,,,,,,,,,,,,,,,,,,,
,,,,,SPR24_045,21,Male,2024-04-12_13h57.19.433,jersey_experiment_5_v0,2023.2.2,Win32,84.74576271,,,,,,,,,,,,,,,,308.034,309.3281,309.3281,310.5868,return,0.0287,,84.765625,,,,,,FBP-OG-18.png,0.45,1.2,10,0.5,0,43,43,9,1,,,,,,,,,,,,,,,,,,,,,,,,,,,,,,,,,,,,,,,,
,,,,,SPR24_045,21,Male,2024-04-12_13h57.19.433,jersey_experiment_5_v0,2023.2.2,Win32,84.74576271,,,,,,,,,,,,,,,,310.587,311.8809,311.881,313.2105,return,0.2765,,92.578125,,,,,,FBP-RB-81.png,0.45,1.2,40,0.5,0,44,44,39,1,,,,,,,,,,,,,,,,,,,,,,,,,,,,,,,,,,,,,,,,
,,,,,SPR24_045,21,Male,2024-04-12_13h57.19.433,jersey_experiment_5_v0,2023.2.2,Win32,84.74576271,,,,,,,,,,,,,,,,313.2107,314.2576,314.2576,316.3165,return,0.0154,,50.26041667,,,,,,FBP-YG-81.png,0.35,1.2,21,0.25,0,45,45,20,1,,,,,,,,,,,,,,,,,,,,,,,,,,,,,,,,,,,,,,,,
,,,,,SPR24_045,21,Male,2024-04-12_13h57.19.433,jersey_experiment_5_v0,2023.2.2,Win32,84.74576271,,,,,,,,,,,,,,,,316.3167,317.3635,317.3635,319.5519,return,0.3392,,69.53125,,,,,,FBP-YG-91.png,0.43,1.2,29,0.25,0,46,46,28,1,,,,,,,,,,,,,,,,,,,,,,,,,,,,,,,,,,,,,,,,
,,,,,SPR24_045,21,Male,2024-04-12_13h57.19.433,jersey_experiment_5_v0,2023.2.2,Win32,84.74576271,,,,,,,,,,,,,,,,319.5521,320.5989,320.5989,321.8578,return,0.0708,,14.97395833,,,,,,FBP-PT-71.png,0.37,1.2,47,0.25,0,47,47,46,1,,,,,,,,,,,,,,,,,,,,,,,,,,,,,,,,,,,,,,,,
,,,,,SPR24_045,21,Male,2024-04-12_13h57.19.433,jersey_experiment_5_v0,2023.2.2,Win32,84.74576271,,,,,,,,,,,,,,,,321.8581,323.1521,323.1521,324.2228,return,0.038,,62.36979167,,,,,,FBP-OG-18.png,0.43,1.2,9,0.5,0,48,48,8,1,,,,,,,,,,,,,,,,,,,,,,,,,,,,,,,,,,,,,,,,
,,,,,SPR24_045,21,Male,2024-04-12_13h57.19.433,jersey_experiment_5_v0,2023.2.2,Win32,84.74576271,,,,,,,,,,,,,,,,324.2231,325.2697,325.2697,327.8699,return,0.0616,,50.26041667,,,,,,FBP-PT-71.png,0.4,1.2,48,0.25,0,49,49,47,1,,,,,,,,,,,,,,,,,,,,,,,,,,,,,,,,,,,,,,,,
,,,,,SPR24_045,21,Male,2024-04-12_13h57.19.433,jersey_experiment_5_v0,2023.2.2,Win32,84.74576271,,,,,,,,,,,,,,,,327.8701,329.1641,329.1641,330.5524,return,0.1456,,70.05208333,,,,,,FBP-OG-19.png,0.43,1.2,14,0.5,0,50,50,13,1,,,,,,,,,,,,,,,,,,,,,,,,,,,,,,,,,,,,,,,,
,,,,,SPR24_045,21,Male,2024-04-12_13h57.19.433,jersey_experiment_5_v0,2023.2.2,Win32,84.74576271,,,,,,,,,,,,,,,,330.5526,331.8468,331.8469,333.1172,return,0.0947,,29.94791667,,,,,,FBP-RB-71.png,0.35,1.2,31,0.5,0,51,51,30,1,,,,,,,,,,,,,,,,,,,,,,,,,,,,,,,,,,,,,,,,
,,,,,SPR24_045,21,Male,2024-04-12_13h57.19.433,jersey_experiment_5_v0,2023.2.2,Win32,84.74576271,,,,,,,,,,,,,,,,333.1174,334.4114,334.4114,335.3877,return,0.0607,,13.671875,,,,,,FBP-RB-81.png,0.35,1.2,36,0.5,0,52,52,35,1,,,,,,,,,,,,,,,,,,,,,,,,,,,,,,,,,,,,,,,,
,,,,,SPR24_045,21,Male,2024-04-12_13h57.19.433,jersey_experiment_5_v0,2023.2.2,Win32,84.74576271,,,,,,,,,,,,,,,,335.3881,336.6821,336.6821,338.1291,return,0.1319,,5.598958333,,,,,,FBP-RB-91.png,0.35,1.2,41,0.5,0,53,53,40,1,,,,,,,,,,,,,,,,,,,,,,,,,,,,,,,,,,,,,,,,
,,,,,SPR24_045,21,Male,2024-04-12_13h57.19.433,jersey_experiment_5_v0,2023.2.2,Win32,84.74576271,,,,,,,,,,,,,,,,338.1293,339.4233,339.4233,340.4939,return,0.0961,,7.03125,,,,,,FBP-OG-17.png,0.35,1.2,1,0.5,0,54,54,0,1,,,,,,,,,,,,,,,,,,,,,,,,,,,,,,,,,,,,,,,,
,,,,,SPR24_045,21,Male,2024-04-12_13h57.19.433,jersey_experiment_5_v0,2023.2.2,Win32,84.74576271,,,,,,,,,,,,,,,,340.4941,341.7882,341.7882,345.3294,return,0.0378,,28.515625,,,,,,FBP-RB-71.png,0.4,1.2,33,0.5,0,55,55,32,1,,,,,,,,,,,,,,,,,,,,,,,,,,,,,,,,,,,,,,,,
,,,,,SPR24_045,21,Male,2024-04-12_13h57.19.433,jersey_experiment_5_v0,2023.2.2,Win32,84.74576271,,,,,,,,,,,,,,,,345.3295,346.3765,346.3765,347.1646,return,0.0718,,31.51041667,,,,,,FBP-PT-91.png,0.4,1.2,58,0.25,0,56,56,57,1,,,,,,,,,,,,,,,,,,,,,,,,,,,,,,,,,,,,,,,,
,,,,,SPR24_045,21,Male,2024-04-12_13h57.19.433,jersey_experiment_5_v0,2023.2.2,Win32,84.74576271,,,,,,,,,,,,,,,,347.165,348.2117,348.2118,349.3411,return,0.0501,,49.73958333,,,,,,FBP-YG-71.png,0.4,1.2,18,0.25,0,57,57,17,1,,,,,,,,,,,,,,,,,,,,,,,,,,,,,,,,,,,,,,,,
,,,,,SPR24_045,21,Male,2024-04-12_13h57.19.433,jersey_experiment_5_v0,2023.2.2,Win32,84.74576271,,,,,,,,,,,,,,,,349.3414,350.3883,350.3883,351.906,return,0.1273,,62.109375,,,,,,FBP-PT-81.png,0.43,1.2,54,0.25,0,58,58,53,1,,,,,,,,,,,,,,,,,,,,,,,,,,,,,,,,,,,,,,,,
,,,,,SPR24_045,21,Male,2024-04-12_13h57.19.433,jersey_experiment_5_v0,2023.2.2,Win32,84.74576271,,,,,,,,,,,,,,,,351.9062,353.2001,353.2001,354.2472,return,0.0679,,81.640625,,,,,,FBP-RB-91.png,0.45,1.2,45,0.5,0,59,59,44,1,,,,,,,,,,,,,,,,,,,,,,,,,,,,,,,,,,,,,,,,
,,,,,SPR24_045,21,Male,2024-04-12_13h57.19.433,jersey_experiment_5_v0,2023.2.2,Win32,84.74576271,,,,,,,,,,,,,,,,,,,,,,,,,,,,,,,,,,,,,,,354.2476,474.2401,,,,,,,,,,,,,,,,,,,,,,,,,,,,,,,,,,,,,,
,,,,,SPR24_045,21,Male,2024-04-12_13h57.19.433,jersey_experiment_5_v0,2023.2.2,Win32,84.74576271,,,,,,,,,,,,,,,,,,,,,,,,,,,,,,,,,,,,,,,,,474.2402,519.995,return,45.7468,,,,,,,,,,,,,,,,,,,,,,,,,,,,,,,,,,
,,,,,SPR24_045,21,Male,2024-04-12_13h57.19.433,jersey_experiment_5_v0,2023.2.2,Win32,84.74576271,,,,,,,,,,,,,,,,520.0009,521.3004,521.3004,524.4183,return,0.9888,,36.06770833,,,,,,FBP-YG-18.png,0.37,1.2,22,0.5,,,,,,,,,,,,,0,0,0,21,1,,,,,,,,,,,,,,,,,,,,,,,,,,,,
,,,,,SPR24_045,21,Male,2024-04-12_13h57.19.433,jersey_experiment_5_v0,2023.2.2,Win32,84.74576271,,,,,,,,,,,,,,,,524.4186,525.4653,525.4653,527.5358,return,0.5176,,56.38020833,,,,,,FBP-RB-17.png,0.37,1.2,32,0.25,,,,,,,,,,,,,0,1,1,31,1,,,,,,,,,,,,,,,,,,,,,,,,,,,,
,,,,,SPR24_045,21,Male,2024-04-12_13h57.19.433,jersey_experiment_5_v0,2023.2.2,Win32,84.74576271,,,,,,,,,,,,,,,,527.5361,528.8301,528.8301,530.842,return,0.0177,,36.84895833,,,,,,FBP-YG-17.png,0.37,1.2,17,0.5,,,,,,,,,,,,,0,2,2,16,1,,,,,,,,,,,,,,,,,,,,,,,,,,,,
,,,,,SPR24_045,21,Male,2024-04-12_13h57.19.433,jersey_experiment_5_v0,2023.2.2,Win32,84.74576271,,,,,,,,,,,,,,,,530.8422,531.8891,531.8891,533.4184,return,0.2739,,79.03645833,,,,,,FBP-RB-17.png,0.45,1.2,35,0.25,,,,,,,,,,,,,0,3,3,34,1,,,,,,,,,,,,,,,,,,,,,,,,,,,,
,,,,,SPR24_045,21,Male,2024-04-12_13h57.19.433,jersey_experiment_5_v0,2023.2.2,Win32,84.74576271,,,,,,,,,,,,,,,,533.4186,534.4656,534.4657,536.0775,return,0.0588,,32.55208333,,,,,,FBP-RB-19.png,0.35,1.2,41,0.25,,,,,,,,,,,,,0,4,4,40,1,,,,,,,,,,,,,,,,,,,,,,,,,,,,
,,,,,SPR24_045,21,Male,2024-04-12_13h57.19.433,jersey_experiment_5_v0,2023.2.2,Win32,84.74576271,,,,,,,,,,,,,,,,536.0777,537.1246,537.1246,538.1598,return,0.0006,,68.09895833,,,,,,FBP-OG-71.png,0.43,1.2,4,0.25,,,,,,,,,,,,,0,5,5,3,1,,,,,,,,,,,,,,,,,,,,,,,,,,,,
,,,,,SPR24_045,21,Male,2024-04-12_13h57.19.433,jersey_experiment_5_v0,2023.2.2,Win32,84.74576271,,,,,,,,,,,,,,,,538.1602,539.454,539.4541,540.1836,return,0.0206,,67.1875,,,,,,FBP-YG-19.png,0.37,1.2,27,0.5,,,,,,,,,,,,,0,6,6,26,1,,,,,,,,,,,,,,,,,,,,,,,,,,,,
,,,,,SPR24_045,21,Male,2024-04-12_13h57.19.433,jersey_experiment_5_v0,2023.2.2,Win32,84.74576271,,,,,,,,,,,,,,,,540.1837,541.4776,541.4776,542.5601,return,0.0381,,38.02083333,,,,,,FBP-PT-17.png,0.35,1.2,46,0.5,,,,,,,,,,,,,0,7,7,45,1,,,,,,,,,,,,,,,,,,,,,,,,,,,,
,,,,,SPR24_045,21,Male,2024-04-12_13h57.19.433,jersey_experiment_5_v0,2023.2.2,Win32,84.74576271,,,,,,,,,,,,,,,,542.5602,543.8543,543.8543,545.8073,return,0.3291,,77.08333333,,,,,,FBP-YG-18.png,0.43,1.2,24,0.5,,,,,,,,,,,,,0,8,8,23,1,,,,,,,,,,,,,,,,,,,,,,,,,,,,
,,,,,SPR24_045,21,Male,2024-04-12_13h57.19.433,jersey_experiment_5_v0,2023.2.2,Win32,84.74576271,,,,,,,,,,,,,,,,545.8075,547.1015,547.1015,547.9132,return,0.0399,,83.72395833,,,,,,FBP-PT-19.png,0.43,1.2,59,0.5,,,,,,,,,,,,,0,9,9,58,1,,,,,,,,,,,,,,,,,,,,,,,,,,,,
,,,,,SPR24_045,21,Male,2024-04-12_13h57.19.433,jersey_experiment_5_v0,2023.2.2,Win32,84.74576271,,,,,,,,,,,,,,,,547.9135,548.9604,548.9604,550.7604,return,0.0311,,75.26041667,,,,,,FBP-RB-19.png,0.4,1.2,43,0.25,,,,,,,,,,,,,0,10,10,42,1,,,,,,,,,,,,,,,,,,,,,,,,,,,,
,,,,,SPR24_045,21,Male,2024-04-12_13h57.19.433,jersey_experiment_5_v0,2023.2.2,Win32,84.74576271,,,,,,,,,,,,,,,,550.7606,551.8074,551.8075,552.8075,return,0.0793,,87.109375,,,,,,FBP-RB-19.png,0.43,1.2,44,0.25,,,,,,,,,,,,,0,11,11,43,1,,,,,,,,,,,,,,,,,,,,,,,,,,,,
,,,,,SPR24_045,21,Male,2024-04-12_13h57.19.433,jersey_experiment_5_v0,2023.2.2,Win32,84.74576271,,,,,,,,,,,,,,,,552.8076,553.8546,553.8546,554.9134,return,0.118,,81.51041667,,,,,,FBP-RB-17.png,0.4,1.2,33,0.25,,,,,,,,,,,,,0,12,12,32,1,,,,,,,,,,,,,,,,,,,,,,,,,,,,
,,,,,SPR24_045,21,Male,2024-04-12_13h57.19.433,jersey_experiment_5_v0,2023.2.2,Win32,84.74576271,,,,,,,,,,,,,,,,554.9137,555.9605,555.9605,556.984,return,0.0668,,89.58333333,,,,,,FBP-RB-18.png,0.43,1.2,39,0.25,,,,,,,,,,,,,0,13,13,38,1,,,,,,,,,,,,,,,,,,,,,,,,,,,,
,,,,,SPR24_045,21,Male,2024-04-12_13h57.19.433,jersey_experiment_5_v0,2023.2.2,Win32,84.74576271,,,,,,,,,,,,,,,,556.9843,558.2783,558.2783,558.843,return,0.026,,90.625,,,,,,FBP-PT-18.png,0.43,1.2,54,0.5,,,,,,,,,,,,,0,14,14,53,1,,,,,,,,,,,,,,,,,,,,,,,,,,,,
,,,,,SPR24_045,21,Male,2024-04-12_13h57.19.433,jersey_experiment_5_v0,2023.2.2,Win32,84.74576271,,,,,,,,,,,,,,,,558.8432,560.1372,560.1372,561.7372,return,0.3105,,55.078125,,,,,,FBP-PT-17.png,0.37,1.2,47,0.5,,,,,,,,,,,,,0,15,15,46,1,,,,,,,,,,,,,,,,,,,,,,,,,,,,
,,,,,SPR24_045,21,Male,2024-04-12_13h57.19.433,jersey_experiment_5_v0,2023.2.2,Win32,84.74576271,,,,,,,,,,,,,,,,561.7375,562.7843,562.7843,563.7373,return,0.0422,,49.609375,,,,,,FBP-RB-19.png,0.37,1.2,42,0.25,,,,,,,,,,,,,0,16,16,41,1,,,,,,,,,,,,,,,,,,,,,,,,,,,,
,,,,,SPR24_045,21,Male,2024-04-12_13h57.19.433,jersey_experiment_5_v0,2023.2.2,Win32,84.74576271,,,,,,,,,,,,,,,,563.7375,564.7843,564.7843,565.6785,return,0.0724,,35.546875,,,,,,FBP-OG-71.png,0.35,1.2,1,0.25,,,,,,,,,,,,,0,17,17,0,1,,,,,,,,,,,,,,,,,,,,,,,,,,,,
,,,,,SPR24_045,21,Male,2024-04-12_13h57.19.433,jersey_experiment_5_v0,2023.2.2,Win32,84.74576271,,,,,,,,,,,,,,,,565.6787,566.9727,566.9727,567.9139,return,0.0865,,28.38541667,,,,,,FBP-PT-19.png,0.35,1.2,56,0.5,,,,,,,,,,,,,0,18,18,55,1,,,,,,,,,,,,,,,,,,,,,,,,,,,,
,,,,,SPR24_045,21,Male,2024-04-12_13h57.19.433,jersey_experiment_5_v0,2023.2.2,Win32,84.74576271,,,,,,,,,,,,,,,,567.9141,568.961,568.9611,570.0434,return,0.0401,,66.40625,,,,,,FBP-OG-71.png,0.45,1.2,5,0.25,,,,,,,,,,,,,0,19,19,4,1,,,,,,,,,,,,,,,,,,,,,,,,,,,,
,,,,,SPR24_045,21,Male,2024-04-12_13h57.19.433,jersey_experiment_5_v0,2023.2.2,Win32,84.74576271,,,,,,,,,,,,,,,,570.0436,571.0904,571.0905,572.2318,return,0.0202,,43.22916667,,,,,,FBP-RB-18.png,0.37,1.2,37,0.25,,,,,,,,,,,,,0,20,20,36,1,,,,,,,,,,,,,,,,,,,,,,,,,,,,
,,,,,SPR24_045,21,Male,2024-04-12_13h57.19.433,jersey_experiment_5_v0,2023.2.2,Win32,84.74576271,,,,,,,,,,,,,,,,572.232,573.2787,573.2788,574.2669,return,0.0052,,77.47395833,,,,,,FBP-RB-19.png,0.45,1.2,45,0.25,,,,,,,,,,,,,0,21,21,44,1,,,,,,,,,,,,,,,,,,,,,,,,,,,,
,,,,,SPR24_045,21,Male,2024-04-12_13h57.19.433,jersey_experiment_5_v0,2023.2.2,Win32,84.74576271,,,,,,,,,,,,,,,,574.2672,575.5613,575.5613,577.1496,return,0.3769,,56.11979167,,,,,,FBP-YG-19.png,0.4,1.2,28,0.5,,,,,,,,,,,,,0,22,22,27,1,,,,,,,,,,,,,,,,,,,,,,,,,,,,
,,,,,SPR24_045,21,Male,2024-04-12_13h57.19.433,jersey_experiment_5_v0,2023.2.2,Win32,84.74576271,,,,,,,,,,,,,,,,577.1498,578.4437,578.4437,580.0789,return,0.3539,,49.86979167,,,,,,FBP-PT-19.png,0.4,1.2,58,0.5,,,,,,,,,,,,,0,23,23,57,1,,,,,,,,,,,,,,,,,,,,,,,,,,,,
,,,,,SPR24_045,21,Male,2024-04-12_13h57.19.433,jersey_experiment_5_v0,2023.2.2,Win32,84.74576271,,,,,,,,,,,,,,,,580.0791,581.3732,581.3732,581.8557,return,0.0144,,50,,,,,,FBP-YG-18.png,0.4,1.2,23,0.5,,,,,,,,,,,,,0,24,24,22,1,,,,,,,,,,,,,,,,,,,,,,,,,,,,
,,,,,SPR24_045,21,Male,2024-04-12_13h57.19.433,jersey_experiment_5_v0,2023.2.2,Win32,84.74576271,,,,,,,,,,,,,,,,581.8559,582.9027,582.9028,583.4202,return,0.0508,,50,,,,,,FBP-RB-18.png,0.4,1.2,38,0.25,,,,,,,,,,,,,0,25,25,37,1,,,,,,,,,,,,,,,,,,,,,,,,,,,,
,,,,,SPR24_045,21,Male,2024-04-12_13h57.19.433,jersey_experiment_5_v0,2023.2.2,Win32,84.74576271,,,,,,,,,,,,,,,,583.4205,584.7145,584.7145,585.4204,return,0.0746,,33.33333333,,,,,,FBP-PT-18.png,0.35,1.2,51,0.5,,,,,,,,,,,,,0,26,26,50,1,,,,,,,,,,,,,,,,,,,,,,,,,,,,
,,,,,SPR24_045,21,Male,2024-04-12_13h57.19.433,jersey_experiment_5_v0,2023.2.2,Win32,84.74576271,,,,,,,,,,,,,,,,585.4205,586.7146,586.7147,587.5146,return,0.0996,,30.59895833,,,,,,FBP-YG-19.png,0.35,1.2,26,0.5,,,,,,,,,,,,,0,27,27,25,1,,,,,,,,,,,,,,,,,,,,,,,,,,,,
,,,,,SPR24_045,21,Male,2024-04-12_13h57.19.433,jersey_experiment_5_v0,2023.2.2,Win32,84.74576271,,,,,,,,,,,,,,,,587.5149,588.5617,588.5617,589.4206,return,0.2391,,28.64583333,,,,,,FBP-RB-17.png,0.35,1.2,31,0.25,,,,,,,,,,,,,0,28,28,30,1,,,,,,,,,,,,,,,,,,,,,,,,,,,,
,,,,,SPR24_045,21,Male,2024-04-12_13h57.19.433,jersey_experiment_5_v0,2023.2.2,Win32,84.74576271,,,,,,,,,,,,,,,,589.4209,590.7146,590.7147,591.3029,return,0.056,,29.16666667,,,,,,FBP-YG-17.png,0.35,1.2,16,0.5,,,,,,,,,,,,,0,29,29,15,1,,,,,,,,,,,,,,,,,,,,,,,,,,,,
,,,,,SPR24_045,21,Male,2024-04-12_13h57.19.433,jersey_experiment_5_v0,2023.2.2,Win32,84.74576271,,,,,,,,,,,,,,,,591.3031,592.5971,592.5972,593.5502,return,0.0471,,46.484375,,,,,,FBP-PT-19.png,0.37,1.2,57,0.5,,,,,,,,,,,,,0,30,30,56,1,,,,,,,,,,,,,,,,,,,,,,,,,,,,
,,,,,SPR24_045,21,Male,2024-04-12_13h57.19.433,jersey_experiment_5_v0,2023.2.2,Win32,84.74576271,,,,,,,,,,,,,,,,593.5505,594.5971,594.5971,595.6915,return,0.0261,,67.70833333,,,,,,FBP-RB-17.png,0.43,1.2,34,0.25,,,,,,,,,,,,,0,31,31,33,1,,,,,,,,,,,,,,,,,,,,,,,,,,,,
,,,,,SPR24_045,21,Male,2024-04-12_13h57.19.433,jersey_experiment_5_v0,2023.2.2,Win32,84.74576271,,,,,,,,,,,,,,,,595.6917,596.7386,596.7386,598.5739,return,0.0727,,63.28125,,,,,,FBP-OG-81.png,0.4,1.2,8,0.25,,,,,,,,,,,,,0,32,32,7,1,,,,,,,,,,,,,,,,,,,,,,,,,,,,
,,,,,SPR24_045,21,Male,2024-04-12_13h57.19.433,jersey_experiment_5_v0,2023.2.2,Win32,84.74576271,,,,,,,,,,,,,,,,598.574,599.8681,599.8681,600.7034,return,0.0144,,76.82291667,,,,,,FBP-PT-17.png,0.43,1.2,49,0.5,,,,,,,,,,,,,0,33,33,48,1,,,,,,,,,,,,,,,,,,,,,,,,,,,,
,,,,,SPR24_045,21,Male,2024-04-12_13h57.19.433,jersey_experiment_5_v0,2023.2.2,Win32,84.74576271,,,,,,,,,,,,,,,,600.7036,601.7505,601.7506,602.6564,return,0.0587,,81.38020833,,,,,,FBP-OG-81.png,0.43,1.2,9,0.25,,,,,,,,,,,,,0,34,34,8,1,,,,,,,,,,,,,,,,,,,,,,,,,,,,
,,,,,SPR24_045,21,Male,2024-04-12_13h57.19.433,jersey_experiment_5_v0,2023.2.2,Win32,84.74576271,,,,,,,,,,,,,,,,602.6566,603.9505,603.9506,604.6682,return,0.0368,,85.28645833,,,,,,FBP-PT-19.png,0.45,1.2,60,0.5,,,,,,,,,,,,,0,35,35,59,1,,,,,,,,,,,,,,,,,,,,,,,,,,,,
,,,,,SPR24_045,21,Male,2024-04-12_13h57.19.433,jersey_experiment_5_v0,2023.2.2,Win32,84.74576271,,,,,,,,,,,,,,,,604.6684,605.7154,605.7154,606.7035,return,0.0704,,86.06770833,,,,,,FBP-RB-18.png,0.45,1.2,40,0.25,,,,,,,,,,,,,0,36,36,39,1,,,,,,,,,,,,,,,,,,,,,,,,,,,,
,,,,,SPR24_045,21,Male,2024-04-12_13h57.19.433,jersey_experiment_5_v0,2023.2.2,Win32,84.74576271,,,,,,,,,,,,,,,,606.7036,607.9979,607.998,608.727,return,0.068,,77.86458333,,,,,,FBP-PT-17.png,0.4,1.2,48,0.5,,,,,,,,,,,,,0,37,37,47,1,,,,,,,,,,,,,,,,,,,,,,,,,,,,
,,,,,SPR24_045,21,Male,2024-04-12_13h57.19.433,jersey_experiment_5_v0,2023.2.2,Win32,84.74576271,,,,,,,,,,,,,,,,608.7272,609.7741,609.7742,610.4094,return,0.0536,,77.86458333,,,,,,FBP-OG-91.png,0.4,1.2,13,0.25,,,,,,,,,,,,,0,38,38,12,1,,,,,,,,,,,,,,,,,,,,,,,,,,,,
,,,,,SPR24_045,21,Male,2024-04-12_13h57.19.433,jersey_experiment_5_v0,2023.2.2,Win32,84.74576271,,,,,,,,,,,,,,,,610.4096,611.4567,611.4567,612.5272,return,0.1042,,58.203125,,,,,,FBP-OG-81.png,0.35,1.2,6,0.25,,,,,,,,,,,,,0,39,39,5,1,,,,,,,,,,,,,,,,,,,,,,,,,,,,
,,,,,SPR24_045,21,Male,2024-04-12_13h57.19.433,jersey_experiment_5_v0,2023.2.2,Win32,84.74576271,,,,,,,,,,,,,,,,612.5274,613.8215,613.8216,614.6568,return,0.0612,,86.19791667,,,,,,FBP-PT-18.png,0.45,1.2,55,0.5,,,,,,,,,,,,,0,40,40,54,1,,,,,,,,,,,,,,,,,,,,,,,,,,,,
,,,,,SPR24_045,21,Male,2024-04-12_13h57.19.433,jersey_experiment_5_v0,2023.2.2,Win32,84.74576271,,,,,,,,,,,,,,,,614.657,615.951,615.951,617.1627,return,0.015,,86.84895833,,,,,,FBP-PT-17.png,0.45,1.2,50,0.5,,,,,,,,,,,,,0,41,41,49,1,,,,,,,,,,,,,,,,,,,,,,,,,,,,
,,,,,SPR24_045,21,Male,2024-04-12_13h57.19.433,jersey_experiment_5_v0,2023.2.2,Win32,84.74576271,,,,,,,,,,,,,,,,617.1628,618.2097,618.2097,619.3395,return,0.049,,58.85416667,,,,,,FBP-OG-81.png,0.37,1.2,7,0.25,,,,,,,,,,,,,0,42,42,6,1,,,,,,,,,,,,,,,,,,,,,,,,,,,,
,,,,,SPR24_045,21,Male,2024-04-12_13h57.19.433,jersey_experiment_5_v0,2023.2.2,Win32,84.74576271,,,,,,,,,,,,,,,,619.3397,620.3865,620.3865,621.4571,return,0.0711,,36.328125,,,,,,FBP-OG-91.png,0.35,1.2,11,0.25,,,,,,,,,,,,,0,43,43,10,1,,,,,,,,,,,,,,,,,,,,,,,,,,,,
,,,,,SPR24_045,21,Male,2024-04-12_13h57.19.433,jersey_experiment_5_v0,2023.2.2,Win32,84.74576271,,,,,,,,,,,,,,,,621.4573,622.7514,622.7515,624.2571,return,0.0715,,87.23958333,,,,,,FBP-YG-17.png,0.43,1.2,19,0.5,,,,,,,,,,,,,0,44,44,18,1,,,,,,,,,,,,,,,,,,,,,,,,,,,,
,,,,,SPR24_045,21,Male,2024-04-12_13h57.19.433,jersey_experiment_5_v0,2023.2.2,Win32,84.74576271,,,,,,,,,,,,,,,,624.2573,625.5514,625.5515,626.2689,return,0.0738,,93.09895833,,,,,,FBP-YG-19.png,0.45,1.2,30,0.5,,,,,,,,,,,,,0,45,45,29,1,,,,,,,,,,,,,,,,,,,,,,,,,,,,
,,,,,SPR24_045,21,Male,2024-04-12_13h57.19.433,jersey_experiment_5_v0,2023.2.2,Win32,84.74576271,,,,,,,,,,,,,,,,626.2693,627.3161,627.3161,628.8927,return,0.6126,,58.85416667,,,,,,FBP-RB-18.png,0.35,1.2,36,0.25,,,,,,,,,,,,,0,46,46,35,1,,,,,,,,,,,,,,,,,,,,,,,,,,,,
,,,,,SPR24_045,21,Male,2024-04-12_13h57.19.433,jersey_experiment_5_v0,2023.2.2,Win32,84.74576271,,,,,,,,,,,,,,,,628.8931,629.9396,629.9397,630.8455,return,0.0237,,80.20833333,,,,,,FBP-OG-91.png,0.45,1.2,15,0.25,,,,,,,,,,,,,0,47,47,14,1,,,,,,,,,,,,,,,,,,,,,,,,,,,,
,,,,,SPR24_045,21,Male,2024-04-12_13h57.19.433,jersey_experiment_5_v0,2023.2.2,Win32,84.74576271,,,,,,,,,,,,,,,,630.8458,632.14,632.14,633.0809,return,0.0993,,37.23958333,,,,,,FBP-PT-18.png,0.37,1.2,52,0.5,,,,,,,,,,,,,0,48,48,51,1,,,,,,,,,,,,,,,,,,,,,,,,,,,,
,,,,,SPR24_045,21,Male,2024-04-12_13h57.19.433,jersey_experiment_5_v0,2023.2.2,Win32,84.74576271,,,,,,,,,,,,,,,,633.0812,634.1282,634.1282,636.705,return,0.4147,,43.359375,,,,,,FBP-OG-71.png,0.37,1.2,2,0.25,,,,,,,,,,,,,0,49,49,1,1,,,,,,,,,,,,,,,,,,,,,,,,,,,,
,,,,,SPR24_045,21,Male,2024-04-12_13h57.19.433,jersey_experiment_5_v0,2023.2.2,Win32,84.74576271,,,,,,,,,,,,,,,,636.7051,637.9988,637.9988,638.834,return,0.0237,,87.36979167,,,,,,FBP-YG-17.png,0.45,1.2,20,0.5,,,,,,,,,,,,,0,50,50,19,1,,,,,,,,,,,,,,,,,,,,,,,,,,,,
,,,,,SPR24_045,21,Male,2024-04-12_13h57.19.433,jersey_experiment_5_v0,2023.2.2,Win32,84.74576271,,,,,,,,,,,,,,,,638.8342,639.8813,639.8813,640.7283,return,0.005,,64.71354167,,,,,,FBP-OG-71.png,0.4,1.2,3,0.25,,,,,,,,,,,,,0,51,51,2,1,,,,,,,,,,,,,,,,,,,,,,,,,,,,
,,,,,SPR24_045,21,Male,2024-04-12_13h57.19.433,jersey_experiment_5_v0,2023.2.2,Win32,84.74576271,,,,,,,,,,,,,,,,640.7286,641.7753,641.7754,642.5402,return,0.0489,,57.55208333,,,,,,FBP-OG-91.png,0.37,1.2,12,0.25,,,,,,,,,,,,,0,52,52,11,1,,,,,,,,,,,,,,,,,,,,,,,,,,,,
,,,,,SPR24_045,21,Male,2024-04-12_13h57.19.433,jersey_experiment_5_v0,2023.2.2,Win32,84.74576271,,,,,,,,,,,,,,,,642.5404,643.8344,643.8344,644.4814,return,0.0327,,79.03645833,,,,,,FBP-YG-18.png,0.45,1.2,25,0.5,,,,,,,,,,,,,0,53,53,24,1,,,,,,,,,,,,,,,,,,,,,,,,,,,,
,,,,,SPR24_045,21,Male,2024-04-12_13h57.19.433,jersey_experiment_5_v0,2023.2.2,Win32,84.74576271,,,,,,,,,,,,,,,,644.4816,645.7755,645.7755,646.4933,return,0.0619,,80.46875,,,,,,FBP-YG-19.png,0.43,1.2,29,0.5,,,,,,,,,,,,,0,54,54,28,1,,,,,,,,,,,,,,,,,,,,,,,,,,,,
,,,,,SPR24_045,21,Male,2024-04-12_13h57.19.433,jersey_experiment_5_v0,2023.2.2,Win32,84.74576271,,,,,,,,,,,,,,,,646.4935,647.7875,647.7875,648.7053,return,0.0476,,61.58854167,,,,,,FBP-YG-17.png,0.4,1.2,18,0.5,,,,,,,,,,,,,0,55,55,17,1,,,,,,,,,,,,,,,,,,,,,,,,,,,,
,,,,,SPR24_045,21,Male,2024-04-12_13h57.19.433,jersey_experiment_5_v0,2023.2.2,Win32,84.74576271,,,,,,,,,,,,,,,,648.7055,649.7521,649.7522,650.6699,return,0.0491,,83.203125,,,,,,FBP-OG-81.png,0.45,1.2,10,0.25,,,,,,,,,,,,,0,56,56,9,1,,,,,,,,,,,,,,,,,,,,,,,,,,,,
,,,,,SPR24_045,21,Male,2024-04-12_13h57.19.433,jersey_experiment_5_v0,2023.2.2,Win32,84.74576271,,,,,,,,,,,,,,,,650.6702,651.717,651.717,652.8463,return,0.0707,,71.35416667,,,,,,FBP-OG-91.png,0.43,1.2,14,0.25,,,,,,,,,,,,,0,57,57,13,1,,,,,,,,,,,,,,,,,,,,,,,,,,,,
,,,,,SPR24_045,21,Male,2024-04-12_13h57.19.433,jersey_experiment_5_v0,2023.2.2,Win32,84.74576271,,,,,,,,,,,,,,,,652.8465,654.1405,654.1405,655.1053,return,0.0469,,65.625,,,,,,FBP-YG-18.png,0.35,1.2,21,0.5,,,,,,,,,,,,,0,58,58,20,1,,,,,,,,,,,,,,,,,,,,,,,,,,,,
,,,,,SPR24_045,21,Male,2024-04-12_13h57.19.433,jersey_experiment_5_v0,2023.2.2,Win32,84.74576271,,,,,,,,,,,,,,,,655.1054,656.3994,656.3994,657.1053,return,0.0237,,73.56770833,,,,,,FBP-PT-18.png,0.4,1.2,53,0.5,,,,,,,,,,,,,0,59,59,52,1,,,,,,,,,,,,,,,,,,,,,,,,,,,,
,,,,,SPR24_045,21,Male,2024-04-12_13h57.19.433,jersey_experiment_5_v0,2023.2.2,Win32,84.74576271,,,,,,,,,,,,,,,,657.1072,658.3996,658.3997,659.2818,return,0.0804,,61.58854167,,,,,,FBP-YG-91.png,0.37,1.2,27,0.5,,,,,,,,,,,,,,,,,,0,0,0,26,1,,,,,,,,,,,,,,,,,,,,,,,
,,,,,SPR24_045,21,Male,2024-04-12_13h57.19.433,jersey_experiment_5_v0,2023.2.2,Win32,84.74576271,,,,,,,,,,,,,,,,659.282,660.3291,660.3292,661.282,return,0.0708,,55.20833333,,,,,,FBP-RB-71.png,0.37,1.2,32,0.25,,,,,,,,,,,,,,,,,,0,1,1,31,1,,,,,,,,,,,,,,,,,,,,,,,
,,,,,SPR24_045,21,Male,2024-04-12_13h57.19.433,jersey_experiment_5_v0,2023.2.2,Win32,84.74576271,,,,,,,,,,,,,,,,661.2822,662.3292,662.3292,663.8351,return,0.0489,,49.21875,,,,,,FBP-OG-19.png,0.37,1.2,12,0.25,,,,,,,,,,,,,,,,,,0,2,2,11,1,,,,,,,,,,,,,,,,,,,,,,,
,,,,,SPR24_045,21,Male,2024-04-12_13h57.19.433,jersey_experiment_5_v0,2023.2.2,Win32,84.74576271,,,,,,,,,,,,,,,,663.8354,665.1292,665.1292,666.5527,return,0.346,,82.03125,,,,,,FBP-YG-91.png,0.43,1.2,29,0.5,,,,,,,,,,,,,,,,,,0,3,3,28,1,,,,,,,,,,,,,,,,,,,,,,,
,,,,,SPR24_045,21,Male,2024-04-12_13h57.19.433,jersey_experiment_5_v0,2023.2.2,Win32,84.74576271,,,,,,,,,,,,,,,,666.5529,667.847,667.847,668.5882,return,0.0486,,83.85416667,,,,,,FBP-PT-91.png,0.45,1.2,60,0.5,,,,,,,,,,,,,,,,,,0,4,4,59,1,,,,,,,,,,,,,,,,,,,,,,,
,,,,,SPR24_045,21,Male,2024-04-12_13h57.19.433,jersey_experiment_5_v0,2023.2.2,Win32,84.74576271,,,,,,,,,,,,,,,,668.5884,669.8823,669.8824,670.5999,return,0.0315,,75.13020833,,,,,,FBP-PT-81.png,0.4,1.2,53,0.5,,,,,,,,,,,,,,,,,,0,5,5,52,1,,,,,,,,,,,,,,,,,,,,,,,
,,,,,SPR24_045,21,Male,2024-04-12_13h57.19.433,jersey_experiment_5_v0,2023.2.2,Win32,84.74576271,,,,,,,,,,,,,,,,670.6002,671.6471,671.6471,672.6825,return,0.4506,,75,,,,,,FBP-OG-17.png,0.4,1.2,3,0.25,,,,,,,,,,,,,,,,,,0,6,6,2,1,,,,,,,,,,,,,,,,,,,,,,,
,,,,,SPR24_045,21,Male,2024-04-12_13h57.19.433,jersey_experiment_5_v0,2023.2.2,Win32,84.74576271,,,,,,,,,,,,,,,,672.6827,673.9767,673.9767,674.8589,return,0.052,,55.859375,,,,,,FBP-PT-81.png,0.37,1.2,52,0.5,,,,,,,,,,,,,,,,,,0,7,7,51,1,,,,,,,,,,,,,,,,,,,,,,,
,,,,,SPR24_045,21,Male,2024-04-12_13h57.19.433,jersey_experiment_5_v0,2023.2.2,Win32,84.74576271,,,,,,,,,,,,,,,,674.8591,675.9061,675.9061,676.7649,return,0.0975,,57.68229167,,,,,,FBP-RB-71.png,0.4,1.2,33,0.25,,,,,,,,,,,,,,,,,,0,8,8,32,1,,,,,,,,,,,,,,,,,,,,,,,
,,,,,SPR24_045,21,Male,2024-04-12_13h57.19.433,jersey_experiment_5_v0,2023.2.2,Win32,84.74576271,,,,,,,,,,,,,,,,676.7652,678.059,678.059,678.8945,return,0.0612,,36.84895833,,,,,,FBP-YG-71.png,0.35,1.2,16,0.5,,,,,,,,,,,,,,,,,,0,9,9,15,1,,,,,,,,,,,,,,,,,,,,,,,
,,,,,SPR24_045,21,Male,2024-04-12_13h57.19.433,jersey_experiment_5_v0,2023.2.2,Win32,84.74576271,,,,,,,,,,,,,,,,678.8947,679.9416,679.9417,680.9297,return,0.1177,,58.07291667,,,,,,FBP-RB-81.png,0.4,1.2,38,0.25,,,,,,,,,,,,,,,,,,0,10,10,37,1,,,,,,,,,,,,,,,,,,,,,,,
,,,,,SPR24_045,21,Male,2024-04-12_13h57.19.433,jersey_experiment_5_v0,2023.2.2,Win32,84.74576271,,,,,,,,,,,,,,,,680.9298,682.224,682.2241,683.3416,return,0.1556,,49.86979167,,,,,,FBP-PT-71.png,0.35,1.2,46,0.5,,,,,,,,,,,,,,,,,,0,11,11,45,1,,,,,,,,,,,,,,,,,,,,,,,
,,,,,SPR24_045,21,Male,2024-04-12_13h57.19.433,jersey_experiment_5_v0,2023.2.2,Win32,84.74576271,,,,,,,,,,,,,,,,683.3419,684.3887,684.3888,685.8711,return,0.0574,,80.078125,,,,,,FBP-RB-71.png,0.43,1.2,34,0.25,,,,,,,,,,,,,,,,,,0,12,12,33,1,,,,,,,,,,,,,,,,,,,,,,,
,,,,,SPR24_045,21,Male,2024-04-12_13h57.19.433,jersey_experiment_5_v0,2023.2.2,Win32,84.74576271,,,,,,,,,,,,,,,,685.8713,686.9183,686.9183,688.4949,return,0.0005,,71.09375,,,,,,FBP-RB-91.png,0.4,1.2,43,0.25,,,,,,,,,,,,,,,,,,0,13,13,42,1,,,,,,,,,,,,,,,,,,,,,,,
,,,,,SPR24_045,21,Male,2024-04-12_13h57.19.433,jersey_experiment_5_v0,2023.2.2,Win32,84.74576271,,,,,,,,,,,,,,,,688.495,689.789,689.789,690.4243,return,0.0434,,88.80208333,,,,,,FBP-YG-71.png,0.45,1.2,20,0.5,,,,,,,,,,,,,,,,,,0,14,14,19,1,,,,,,,,,,,,,,,,,,,,,,,
,,,,,SPR24_045,21,Male,2024-04-12_13h57.19.433,jersey_experiment_5_v0,2023.2.2,Win32,84.74576271,,,,,,,,,,,,,,,,690.4245,691.4714,691.4714,692.495,return,0.062,,61.58854167,,,,,,FBP-RB-71.png,0.35,1.2,31,0.25,,,,,,,,,,,,,,,,,,0,15,15,30,1,,,,,,,,,,,,,,,,,,,,,,,
,,,,,SPR24_045,21,Male,2024-04-12_13h57.19.433,jersey_experiment_5_v0,2023.2.2,Win32,84.74576271,,,,,,,,,,,,,,,,692.4952,693.7891,693.7891,694.9067,return,0.0855,,55.98958333,,,,,,FBP-YG-71.png,0.37,1.2,17,0.5,,,,,,,,,,,,,,,,,,0,16,16,16,1,,,,,,,,,,,,,,,,,,,,,,,
,,,,,SPR24_045,21,Male,2024-04-12_13h57.19.433,jersey_experiment_5_v0,2023.2.2,Win32,84.74576271,,,,,,,,,,,,,,,,694.907,695.954,695.954,698.5069,return,0.3584,,49.47916667,,,,,,FBP-OG-17.png,0.35,1.2,1,0.25,,,,,,,,,,,,,,,,,,0,17,17,0,1,,,,,,,,,,,,,,,,,,,,,,,
,,,,,SPR24_045,21,Male,2024-04-12_13h57.19.433,jersey_experiment_5_v0,2023.2.2,Win32,84.74576271,,,,,,,,,,,,,,,,698.5071,699.554,699.5541,700.5776,return,0.0471,,74.86979167,,,,,,FBP-RB-81.png,0.45,1.2,40,0.25,,,,,,,,,,,,,,,,,,0,18,18,39,1,,,,,,,,,,,,,,,,,,,,,,,
,,,,,SPR24_045,21,Male,2024-04-12_13h57.19.433,jersey_experiment_5_v0,2023.2.2,Win32,84.74576271,,,,,,,,,,,,,,,,700.5779,701.6247,701.6247,702.6246,return,0.0471,,57.29166667,,,,,,FBP-RB-81.png,0.35,1.2,36,0.25,,,,,,,,,,,,,,,,,,0,19,19,35,1,,,,,,,,,,,,,,,,,,,,,,,
,,,,,SPR24_045,21,Male,2024-04-12_13h57.19.433,jersey_experiment_5_v0,2023.2.2,Win32,84.74576271,,,,,,,,,,,,,,,,702.6248,703.6719,703.672,705.3777,return,0.0707,,86.45833333,,,,,,FBP-RB-91.png,0.45,1.2,45,0.25,,,,,,,,,,,,,,,,,,0,20,20,44,1,,,,,,,,,,,,,,,,,,,,,,,
,,,,,SPR24_045,21,Male,2024-04-12_13h57.19.433,jersey_experiment_5_v0,2023.2.2,Win32,84.74576271,,,,,,,,,,,,,,,,705.3779,706.6719,706.6719,707.4718,return,0.071,,77.08333333,,,,,,FBP-YG-91.png,0.4,1.2,28,0.5,,,,,,,,,,,,,,,,,,0,21,21,27,1,,,,,,,,,,,,,,,,,,,,,,,
,,,,,SPR24_045,21,Male,2024-04-12_13h57.19.433,jersey_experiment_5_v0,2023.2.2,Win32,84.74576271,,,,,,,,,,,,,,,,707.472,708.5191,708.5191,709.6485,return,0.038,,96.61458333,,,,,,FBP-OG-18.png,0.45,1.2,10,0.25,,,,,,,,,,,,,,,,,,0,22,22,9,1,,,,,,,,,,,,,,,,,,,,,,,
,,,,,SPR24_045,21,Male,2024-04-12_13h57.19.433,jersey_experiment_5_v0,2023.2.2,Win32,84.74576271,,,,,,,,,,,,,,,,709.6488,710.6955,710.6955,711.6133,return,0.0502,,95.96354167,,,,,,FBP-RB-91.png,0.43,1.2,44,0.25,,,,,,,,,,,,,,,,,,0,23,23,43,1,,,,,,,,,,,,,,,,,,,,,,,
,,,,,SPR24_045,21,Male,2024-04-12_13h57.19.433,jersey_experiment_5_v0,2023.2.2,Win32,84.74576271,,,,,,,,,,,,,,,,711.6133,712.6606,712.6606,713.8369,return,0.424,,100,,,,,,FBP-RB-71.png,0.45,1.2,35,0.25,,,,,,,,,,,,,,,,,,0,24,24,34,1,,,,,,,,,,,,,,,,,,,,,,,
,,,,,SPR24_045,21,Male,2024-04-12_13h57.19.433,jersey_experiment_5_v0,2023.2.2,Win32,84.74576271,,,,,,,,,,,,,,,,713.8371,714.884,714.884,716.0604,return,0.4975,,100,,,,,,FBP-OG-19.png,0.43,1.2,14,0.25,,,,,,,,,,,,,,,,,,0,25,25,13,1,,,,,,,,,,,,,,,,,,,,,,,
,,,,,SPR24_045,21,Male,2024-04-12_13h57.19.433,jersey_experiment_5_v0,2023.2.2,Win32,84.74576271,,,,,,,,,,,,,,,,716.0607,717.3546,717.3547,719.0371,return,0.0241,,97.39583333,,,,,,FBP-PT-71.png,0.45,1.2,50,0.5,,,,,,,,,,,,,,,,,,0,26,26,49,1,,,,,,,,,,,,,,,,,,,,,,,
,,,,,SPR24_045,21,Male,2024-04-12_13h57.19.433,jersey_experiment_5_v0,2023.2.2,Win32,84.74576271,,,,,,,,,,,,,,,,719.0374,720.3314,720.3314,720.8255,return,0.0183,,97.39583333,,,,,,FBP-YG-71.png,0.43,1.2,19,0.5,,,,,,,,,,,,,,,,,,0,27,27,18,1,,,,,,,,,,,,,,,,,,,,,,,
,,,,,SPR24_045,21,Male,2024-04-12_13h57.19.433,jersey_experiment_5_v0,2023.2.2,Win32,84.74576271,,,,,,,,,,,,,,,,720.8256,722.1195,722.1195,723.3195,return,0.0297,,62.109375,,,,,,FBP-YG-81.png,0.35,1.2,21,0.5,,,,,,,,,,,,,,,,,,0,28,28,20,1,,,,,,,,,,,,,,,,,,,,,,,
,,,,,SPR24_045,21,Male,2024-04-12_13h57.19.433,jersey_experiment_5_v0,2023.2.2,Win32,84.74576271,,,,,,,,,,,,,,,,723.3198,724.6138,724.6138,725.7198,return,0.0766,,88.54166667,,,,,,FBP-YG-81.png,0.45,1.2,25,0.5,,,,,,,,,,,,,,,,,,0,29,29,24,1,,,,,,,,,,,,,,,,,,,,,,,
,,,,,SPR24_045,21,Male,2024-04-12_13h57.19.433,jersey_experiment_5_v0,2023.2.2,Win32,84.74576271,,,,,,,,,,,,,,,,725.72,726.7668,726.7668,727.8257,return,0.0095,,81.11979167,,,,,,FBP-OG-19.png,0.4,1.2,13,0.25,,,,,,,,,,,,,,,,,,0,30,30,12,1,,,,,,,,,,,,,,,,,,,,,,,
,,,,,SPR24_045,21,Male,2024-04-12_13h57.19.433,jersey_experiment_5_v0,2023.2.2,Win32,84.74576271,,,,,,,,,,,,,,,,727.826,728.8728,728.8728,730.1668,return,0.0542,,83.984375,,,,,,FBP-OG-17.png,0.43,1.2,4,0.25,,,,,,,,,,,,,,,,,,0,31,31,3,1,,,,,,,,,,,,,,,,,,,,,,,
,,,,,SPR24_045,21,Male,2024-04-12_13h57.19.433,jersey_experiment_5_v0,2023.2.2,Win32,84.74576271,,,,,,,,,,,,,,,,730.1669,731.461,731.461,732.6376,return,0.3533,,83.984375,,,,,,FBP-PT-91.png,0.43,1.2,59,0.5,,,,,,,,,,,,,,,,,,0,32,32,58,1,,,,,,,,,,,,,,,,,,,,,,,
,,,,,SPR24_045,21,Male,2024-04-12_13h57.19.433,jersey_experiment_5_v0,2023.2.2,Win32,84.74576271,,,,,,,,,,,,,,,,732.6378,733.9318,733.9318,734.767,return,0.0809,,89.453125,,,,,,FBP-PT-81.png,0.45,1.2,55,0.5,,,,,,,,,,,,,,,,,,0,33,33,54,1,,,,,,,,,,,,,,,,,,,,,,,
,,,,,SPR24_045,21,Male,2024-04-12_13h57.19.433,jersey_experiment_5_v0,2023.2.2,Win32,84.74576271,,,,,,,,,,,,,,,,734.7673,735.8142,735.8142,736.7317,return,0.0962,,89.71354167,,,,,,FBP-RB-81.png,0.43,1.2,39,0.25,,,,,,,,,,,,,,,,,,0,34,34,38,1,,,,,,,,,,,,,,,,,,,,,,,
,,,,,SPR24_045,21,Male,2024-04-12_13h57.19.433,jersey_experiment_5_v0,2023.2.2,Win32,84.74576271,,,,,,,,,,,,,,,,736.732,737.7787,737.7788,740.5672,return,0.336,,5.208333333,,,,,,FBP-OG-18.png,0.35,1.2,6,0.25,,,,,,,,,,,,,,,,,,0,35,35,5,1,,,,,,,,,,,,,,,,,,,,,,,
,,,,,SPR24_045,21,Male,2024-04-12_13h57.19.433,jersey_experiment_5_v0,2023.2.2,Win32,84.74576271,,,,,,,,,,,,,,,,740.5675,741.6142,741.6143,743.485,return,0.3304,,68.61979167,,,,,,FBP-OG-17.png,0.45,1.2,5,0.25,,,,,,,,,,,,,,,,,,0,36,36,4,1,,,,,,,,,,,,,,,,,,,,,,,
,,,,,SPR24_045,21,Male,2024-04-12_13h57.19.433,jersey_experiment_5_v0,2023.2.2,Win32,84.74576271,,,,,,,,,,,,,,,,743.4852,744.5321,744.5321,746.5203,return,0.0666,,21.22395833,,,,,,FBP-RB-91.png,0.35,1.2,41,0.25,,,,,,,,,,,,,,,,,,0,37,37,40,1,,,,,,,,,,,,,,,,,,,,,,,
,,,,,SPR24_045,21,Male,2024-04-12_13h57.19.433,jersey_experiment_5_v0,2023.2.2,Win32,84.74576271,,,,,,,,,,,,,,,,746.5206,747.8147,747.8147,749.2616,return,0.0591,,84.89583333,,,,,,FBP-YG-91.png,0.45,1.2,30,0.5,,,,,,,,,,,,,,,,,,0,38,38,29,1,,,,,,,,,,,,,,,,,,,,,,,
,,,,,SPR24_045,21,Male,2024-04-12_13h57.19.433,jersey_experiment_5_v0,2023.2.2,Win32,84.74576271,,,,,,,,,,,,,,,,749.2618,750.5561,750.5561,751.5323,return,0.062,,70.18229167,,,,,,FBP-PT-81.png,0.43,1.2,54,0.5,,,,,,,,,,,,,,,,,,0,39,39,53,1,,,,,,,,,,,,,,,,,,,,,,,
,,,,,SPR24_045,21,Male,2024-04-12_13h57.19.433,jersey_experiment_5_v0,2023.2.2,Win32,84.74576271,,,,,,,,,,,,,,,,751.5327,752.5794,752.5794,753.9207,return,0.1649,,68.88020833,,,,,,FBP-OG-18.png,0.4,1.2,8,0.25,,,,,,,,,,,,,,,,,,0,40,40,7,1,,,,,,,,,,,,,,,,,,,,,,,
,,,,,SPR24_045,21,Male,2024-04-12_13h57.19.433,jersey_experiment_5_v0,2023.2.2,Win32,84.74576271,,,,,,,,,,,,,,,,753.9209,755.2148,755.2148,756.1678,return,0.0204,,75.13020833,,,,,,FBP-YG-81.png,0.4,1.2,23,0.5,,,,,,,,,,,,,,,,,,0,41,41,22,1,,,,,,,,,,,,,,,,,,,,,,,
,,,,,SPR24_045,21,Male,2024-04-12_13h57.19.433,jersey_experiment_5_v0,2023.2.2,Win32,84.74576271,,,,,,,,,,,,,,,,756.168,757.462,757.462,758.3208,return,0.0095,,64.19270833,,,,,,FBP-YG-71.png,0.4,1.2,18,0.5,,,,,,,,,,,,,,,,,,0,42,42,17,1,,,,,,,,,,,,,,,,,,,,,,,
,,,,,SPR24_045,21,Male,2024-04-12_13h57.19.433,jersey_experiment_5_v0,2023.2.2,Win32,84.74576271,,,,,,,,,,,,,,,,758.3211,759.615,759.615,761.6739,return,0.0041,,45.18229167,,,,,,FBP-PT-81.png,0.35,1.2,51,0.5,,,,,,,,,,,,,,,,,,0,43,43,50,1,,,,,,,,,,,,,,,,,,,,,,,
,,,,,SPR24_045,21,Male,2024-04-12_13h57.19.433,jersey_experiment_5_v0,2023.2.2,Win32,84.74576271,,,,,,,,,,,,,,,,761.6742,762.721,762.721,763.6505,return,0.0707,,37.5,,,,,,FBP-OG-19.png,0.35,1.2,11,0.25,,,,,,,,,,,,,,,,,,0,44,44,10,1,,,,,,,,,,,,,,,,,,,,,,,
,,,,,SPR24_045,21,Male,2024-04-12_13h57.19.433,jersey_experiment_5_v0,2023.2.2,Win32,84.74576271,,,,,,,,,,,,,,,,763.6508,764.9447,764.9447,765.8975,return,0.0063,,63.93229167,,,,,,FBP-PT-71.png,0.4,1.2,48,0.5,,,,,,,,,,,,,,,,,,0,45,45,47,1,,,,,,,,,,,,,,,,,,,,,,,
,,,,,SPR24_045,21,Male,2024-04-12_13h57.19.433,jersey_experiment_5_v0,2023.2.2,Win32,84.74576271,,,,,,,,,,,,,,,,765.8977,767.192,767.1921,769.2388,return,1.1623,,42.70833333,,,,,,FBP-YG-81.png,0.37,1.2,22,0.5,,,,,,,,,,,,,,,,,,0,46,46,21,1,,,,,,,,,,,,,,,,,,,,,,,
,,,,,SPR24_045,21,Male,2024-04-12_13h57.19.433,jersey_experiment_5_v0,2023.2.2,Win32,84.74576271,,,,,,,,,,,,,,,,769.2389,770.286,770.286,770.9449,return,0.0614,,42.70833333,,,,,,FBP-RB-91.png,0.37,1.2,42,0.25,,,,,,,,,,,,,,,,,,0,47,47,41,1,,,,,,,,,,,,,,,,,,,,,,,
,,,,,SPR24_045,21,Male,2024-04-12_13h57.19.433,jersey_experiment_5_v0,2023.2.2,Win32,84.74576271,,,,,,,,,,,,,,,,770.9451,772.2389,772.2389,773.5921,return,0.4787,,63.80208333,,,,,,FBP-PT-91.png,0.4,1.2,58,0.5,,,,,,,,,,,,,,,,,,0,48,48,57,1,,,,,,,,,,,,,,,,,,,,,,,
,,,,,SPR24_045,21,Male,2024-04-12_13h57.19.433,jersey_experiment_5_v0,2023.2.2,Win32,84.74576271,,,,,,,,,,,,,,,,773.5922,774.8861,774.8863,776.1097,return,0.3081,,53.77604167,,,,,,FBP-PT-71.png,0.37,1.2,47,0.5,,,,,,,,,,,,,,,,,,0,49,49,46,1,,,,,,,,,,,,,,,,,,,,,,,
,,,,,SPR24_045,21,Male,2024-04-12_13h57.19.433,jersey_experiment_5_v0,2023.2.2,Win32,84.74576271,,,,,,,,,,,,,,,,776.1099,777.4039,777.4039,778.7334,return,0.1318,,49.609375,,,,,,FBP-PT-91.png,0.37,1.2,57,0.5,,,,,,,,,,,,,,,,,,0,50,50,56,1,,,,,,,,,,,,,,,,,,,,,,,
,,,,,SPR24_045,21,Male,2024-04-12_13h57.19.433,jersey_experiment_5_v0,2023.2.2,Win32,84.74576271,,,,,,,,,,,,,,,,778.7336,779.7804,779.7804,780.7803,return,0.227,,49.609375,,,,,,FBP-OG-17.png,0.37,1.2,2,0.25,,,,,,,,,,,,,,,,,,0,51,51,1,1,,,,,,,,,,,,,,,,,,,,,,,
,,,,,SPR24_045,21,Male,2024-04-12_13h57.19.433,jersey_experiment_5_v0,2023.2.2,Win32,84.74576271,,,,,,,,,,,,,,,,780.7805,782.0747,782.0749,783.5336,return,0.3532,,49.609375,,,,,,FBP-YG-91.png,0.35,1.2,26,0.5,,,,,,,,,,,,,,,,,,0,52,52,25,1,,,,,,,,,,,,,,,,,,,,,,,
,,,,,SPR24_045,21,Male,2024-04-12_13h57.19.433,jersey_experiment_5_v0,2023.2.2,Win32,84.74576271,,,,,,,,,,,,,,,,783.5339,784.5806,784.5807,786.0747,return,0.0264,,82.03125,,,,,,FBP-OG-18.png,0.43,1.2,9,0.25,,,,,,,,,,,,,,,,,,0,53,53,8,1,,,,,,,,,,,,,,,,,,,,,,,
,,,,,SPR24_045,21,Male,2024-04-12_13h57.19.433,jersey_experiment_5_v0,2023.2.2,Win32,84.74576271,,,,,,,,,,,,,,,,786.075,787.3691,787.3691,788.2042,return,0.098,,86.06770833,,,,,,FBP-YG-81.png,0.43,1.2,24,0.5,,,,,,,,,,,,,,,,,,0,54,54,23,1,,,,,,,,,,,,,,,,,,,,,,,
,,,,,SPR24_045,21,Male,2024-04-12_13h57.19.433,jersey_experiment_5_v0,2023.2.2,Win32,84.74576271,,,,,,,,,,,,,,,,788.2044,789.2514,789.2514,790.3809,return,0.0951,,71.22395833,,,,,,FBP-RB-81.png,0.37,1.2,37,0.25,,,,,,,,,,,,,,,,,,0,55,55,36,1,,,,,,,,,,,,,,,,,,,,,,,
,,,,,SPR24_045,21,Male,2024-04-12_13h57.19.433,jersey_experiment_5_v0,2023.2.2,Win32,84.74576271,,,,,,,,,,,,,,,,790.3812,791.675,791.675,792.9103,return,0.5051,,86.06770833,,,,,,FBP-PT-71.png,0.43,1.2,49,0.5,,,,,,,,,,,,,,,,,,0,56,56,48,1,,,,,,,,,,,,,,,,,,,,,,,
,,,,,SPR24_045,21,Male,2024-04-12_13h57.19.433,jersey_experiment_5_v0,2023.2.2,Win32,84.74576271,,,,,,,,,,,,,,,,792.9105,793.9573,793.9573,795.0984,return,0.0996,,59.11458333,,,,,,FBP-OG-18.png,0.37,1.2,7,0.25,,,,,,,,,,,,,,,,,,0,57,57,6,1,,,,,,,,,,,,,,,,,,,,,,,
,,,,,SPR24_045,21,Male,2024-04-12_13h57.19.433,jersey_experiment_5_v0,2023.2.2,Win32,84.74576271,,,,,,,,,,,,,,,,795.0986,796.1459,796.1459,798.1693,return,0.0508,,76.82291667,,,,,,FBP-OG-19.png,0.45,1.2,15,0.25,,,,,,,,,,,,,,,,,,0,58,58,14,1,,,,,,,,,,,,,,,,,,,,,,,
,,,,,SPR24_045,21,Male,2024-04-12_13h57.19.433,jersey_experiment_5_v0,2023.2.2,Win32,84.74576271,,,,,,,,,,,,,,,,798.1695,799.4636,799.4636,800.8284,return,0.0015,,45.703125,,,,,,FBP-PT-91.png,0.35,1.2,56,0.5,,,,,,,,,,,,,,,,,,0,59,59,55,1,,,,,,,,,,,,,,,,,,,,,,,
,,,,,SPR24_045,21,Male,2024-04-12_13h57.19.433,jersey_experiment_5_v0,2023.2.2,Win32,84.74576271,,,,,,,,,,,,,,,,,,,,,,,,,,,,,,,,,,,,,,,,,,,,,,,,,,,,,,,,800.8288,802.558,return,1.7189,,,,,,,,,,,,,,,,,,,
,,,,,SPR24_045,21,Male,2024-04-12_13h57.19.433,jersey_experiment_5_v0,2023.2.2,Win32,84.74576271,,,,,,,,,,,,,,,,,,,,,,,,,,,,,,,,,,,,,,,,,,,,,,,,,,,,,,,,,,,,,802.5581,805.2404,1,1.9603,return,0.7135,,,,,,,,,,,,
,,,,,SPR24_045,21,Male,2024-04-12_13h57.19.433,jersey_experiment_5_v0,2023.2.2,Win32,84.74576271,,,,,,,,,,,,,,,,,,,,,,,,,,,,,,,,,,,,,,,,,,,,,,,,,,,,,,,,,,,,,,,,,,,,805.2404,910.4963,Could be about the color of the jerseys and the skin color of the players in relation to their percieved size. Could also be about how seeing repeated images could mess with perception of size norms and could be about beauty/size standards. I did notice patterns of large players intersparsed with smaller players here and there. I feel like I recategorized my sense of the normal player size multiple times throughout the experiment. ,right,102.4645,,,,,,
,,,,,SPR24_045,21,Male,2024-04-12_13h57.19.433,jersey_experiment_5_v0,2023.2.2,Win32,84.74576271,,,,,,,,,,,,,,,,,,,,,,,,,,,,,,,,,,,,,,,,,,,,,,,,,,,,,,,,,,,,,,,,,,,,,,,,,,910.4963,911.9854,return,1.4784,