requirements.started,requirements.stopped,key_resp_3.keys,key_resp_3.rt,key_resp_3.duration,Subject ID,Age,Gender,date,expName,psychopyVersion,OS,frameRate,instructions1.started,instructions1.stopped,key_resp.keys,key_resp.rt,key_resp.duration,example.started,example.stopped,enter_2.keys,enter_2.rt,enter_2.duration,instructions2.started,instructions2.stopped,enter_3.keys,enter_3.rt,enter_3.duration,image.started,image.stopped,slider_2.started,slider_2.stopped,next.keys,next.rt,next.duration,slider.response,trial_block_1.thisRepN,trial_block_1.thisTrialN,trial_block_1.thisN,trial_block_1.thisIndex,trial_block_1.ran,Path,Width,Height,Index,Duration,trial_block_2.thisRepN,trial_block_2.thisTrialN,trial_block_2.thisN,trial_block_2.thisIndex,trial_block_2.ran,rest_break.started,rest_break.stopped,end_break.started,end_break.stopped,key_resp_5.keys,key_resp_5.rt,key_resp_5.duration,trial_block_3.thisRepN,trial_block_3.thisTrialN,trial_block_3.thisN,trial_block_3.thisIndex,trial_block_3.ran,trial_block_4.thisRepN,trial_block_4.thisTrialN,trial_block_4.thisN,trial_block_4.thisIndex,trial_block_4.ran,questions_intro.started,questions_intro.stopped,enter_12.keys,enter_12.rt,enter_12.duration,question2.started,question2.stopped,question_doingbest.response,question_doingbest.rt,enter_15.keys,enter_15.rt,enter_15.duration,pattern.started,pattern.stopped,pattern_2.text,enter_17.keys,enter_17.rt,enter_17.duration,thankyou.started,thankyou.stopped,enter_14.keys,enter_14.rt,enter_14.duration
0.0001,12.8759,return,12.8697,,SPR24_075,19,female,2024-04-22_15h55.45.364,jersey_experiment_5_v0,2023.2.2,Win32,84.74576271,,,,,,,,,,,,,,,,,,,,,,,,,,,,,,,,,,,,,,,,,,,,,,,,,,,,,,,,,,,,,,,,,,,,,,,,,,,,,,
,,,,,SPR24_075,19,female,2024-04-22_15h55.45.364,jersey_experiment_5_v0,2023.2.2,Win32,84.74576271,12.8761,26.4762,return,13.5882,,,,,,,,,,,,,,,,,,,,,,,,,,,,,,,,,,,,,,,,,,,,,,,,,,,,,,,,,,,,,,,,,,,,,,,,,,
,,,,,SPR24_075,19,female,2024-04-22_15h55.45.364,jersey_experiment_5_v0,2023.2.2,Win32,84.74576271,,,,,,26.4762,36.5356,return,10.0313,,,,,,,,,,,,,,,,,,,,,,,,,,,,,,,,,,,,,,,,,,,,,,,,,,,,,,,,,,,,,,,,,,,,,
,,,,,SPR24_075,19,female,2024-04-22_15h55.45.364,jersey_experiment_5_v0,2023.2.2,Win32,84.74576271,,,,,,,,,,,36.5357,65.5011,return,28.9534,,,,,,,,,,,,,,,,,,,,,,,,,,,,,,,,,,,,,,,,,,,,,,,,,,,,,,,,,,,,,,,,
,,,,,SPR24_075,19,female,2024-04-22_15h55.45.364,jersey_experiment_5_v0,2023.2.2,Win32,84.74576271,,,,,,,,,,,,,,,,65.5078,66.5599,66.56,74.2661,return,2.9908,,74.21875,0,0,0,29,1,FBP-YG-19.png,0.45,1.2,30,0.25,,,,,,,,,,,,,,,,,,,,,,,,,,,,,,,,,,,,,,,,,,,,,
,,,,,SPR24_075,19,female,2024-04-22_15h55.45.364,jersey_experiment_5_v0,2023.2.2,Win32,84.74576271,,,,,,,,,,,,,,,,74.2665,75.5602,75.5602,82.6192,return,2.5674,,74.86979167,0,1,1,14,1,FBP-OG-91.png,0.45,1.2,15,0.5,,,,,,,,,,,,,,,,,,,,,,,,,,,,,,,,,,,,,,,,,,,,,
,,,,,SPR24_075,19,female,2024-04-22_15h55.45.364,jersey_experiment_5_v0,2023.2.2,Win32,84.74576271,,,,,,,,,,,,,,,,82.6194,83.6663,83.6663,93.455,return,4.906,,49.34895833,0,2,2,17,1,FBP-YG-17.png,0.4,1.2,18,0.25,,,,,,,,,,,,,,,,,,,,,,,,,,,,,,,,,,,,,,,,,,,,,
,,,,,SPR24_075,19,female,2024-04-22_15h55.45.364,jersey_experiment_5_v0,2023.2.2,Win32,84.74576271,,,,,,,,,,,,,,,,93.4591,94.7607,94.7608,98.8903,return,1.2726,,24.73958333,0,3,3,6,1,FBP-OG-81.png,0.37,1.2,7,0.5,,,,,,,,,,,,,,,,,,,,,,,,,,,,,,,,,,,,,,,,,,,,,
,,,,,SPR24_075,19,female,2024-04-22_15h55.45.364,jersey_experiment_5_v0,2023.2.2,Win32,84.74576271,,,,,,,,,,,,,,,,98.8905,100.1845,100.1845,103.6082,return,1.4628,,24.73958333,0,4,4,30,1,FBP-RB-17.png,0.35,1.2,31,0.5,,,,,,,,,,,,,,,,,,,,,,,,,,,,,,,,,,,,,,,,,,,,,
,,,,,SPR24_075,19,female,2024-04-22_15h55.45.364,jersey_experiment_5_v0,2023.2.2,Win32,84.74576271,,,,,,,,,,,,,,,,103.6084,104.9022,104.9022,111.9025,return,3.0101,,50.26041667,0,5,5,37,1,FBP-RB-18.png,0.4,1.2,38,0.5,,,,,,,,,,,,,,,,,,,,,,,,,,,,,,,,,,,,,,,,,,,,,
,,,,,SPR24_075,19,female,2024-04-22_15h55.45.364,jersey_experiment_5_v0,2023.2.2,Win32,84.74576271,,,,,,,,,,,,,,,,111.9066,112.9498,112.9498,123.9737,return,4.0563,,50.26041667,0,6,6,16,1,FBP-YG-17.png,0.37,1.2,17,0.25,,,,,,,,,,,,,,,,,,,,,,,,,,,,,,,,,,,,,,,,,,,,,
,,,,,SPR24_075,19,female,2024-04-22_15h55.45.364,jersey_experiment_5_v0,2023.2.2,Win32,84.74576271,,,,,,,,,,,,,,,,123.9777,125.0207,125.0208,130.9034,return,2.0281,,74.86979167,0,7,7,47,1,FBP-PT-17.png,0.4,1.2,48,0.25,,,,,,,,,,,,,,,,,,,,,,,,,,,,,,,,,,,,,,,,,,,,,
,,,,,SPR24_075,19,female,2024-04-22_15h55.45.364,jersey_experiment_5_v0,2023.2.2,Win32,84.74576271,,,,,,,,,,,,,,,,130.9035,132.1974,132.1974,137.3506,return,2.6528,,74.47916667,0,8,8,3,1,FBP-OG-71.png,0.43,1.2,4,0.5,,,,,,,,,,,,,,,,,,,,,,,,,,,,,,,,,,,,,,,,,,,,,
,,,,,SPR24_075,19,female,2024-04-22_15h55.45.364,jersey_experiment_5_v0,2023.2.2,Win32,84.74576271,,,,,,,,,,,,,,,,137.3507,138.3977,138.3977,158.1865,return,2.2512,,74.73958333,0,9,9,48,1,FBP-PT-17.png,0.43,1.2,49,0.25,,,,,,,,,,,,,,,,,,,,,,,,,,,,,,,,,,,,,,,,,,,,,
,,,,,SPR24_075,19,female,2024-04-22_15h55.45.364,jersey_experiment_5_v0,2023.2.2,Win32,84.74576271,,,,,,,,,,,,,,,,158.1867,159.2376,159.2376,165.7869,return,1.4849,,49.73958333,0,10,10,22,1,FBP-YG-18.png,0.4,1.2,23,0.25,,,,,,,,,,,,,,,,,,,,,,,,,,,,,,,,,,,,,,,,,,,,,
,,,,,SPR24_075,19,female,2024-04-22_15h55.45.364,jersey_experiment_5_v0,2023.2.2,Win32,84.74576271,,,,,,,,,,,,,,,,165.787,167.0811,167.0811,171.1989,return,1.459,,75.91145833,0,11,11,4,1,FBP-OG-71.png,0.45,1.2,5,0.5,,,,,,,,,,,,,,,,,,,,,,,,,,,,,,,,,,,,,,,,,,,,,
,,,,,SPR24_075,19,female,2024-04-22_15h55.45.364,jersey_experiment_5_v0,2023.2.2,Win32,84.74576271,,,,,,,,,,,,,,,,171.199,172.4929,172.4929,176.352,return,1.2942,,49.34895833,0,12,12,7,1,FBP-OG-81.png,0.4,1.2,8,0.5,,,,,,,,,,,,,,,,,,,,,,,,,,,,,,,,,,,,,,,,,,,,,
,,,,,SPR24_075,19,female,2024-04-22_15h55.45.364,jersey_experiment_5_v0,2023.2.2,Win32,84.74576271,,,,,,,,,,,,,,,,176.3521,177.6461,177.6461,195.1761,return,1.676,,49.08854167,0,13,13,12,1,FBP-OG-91.png,0.4,1.2,13,0.5,,,,,,,,,,,,,,,,,,,,,,,,,,,,,,,,,,,,,,,,,,,,,
,,,,,SPR24_075,19,female,2024-04-22_15h55.45.364,jersey_experiment_5_v0,2023.2.2,Win32,84.74576271,,,,,,,,,,,,,,,,195.1763,196.4703,196.4704,212.3457,return,13.214,,60.67708333,0,14,14,42,1,FBP-RB-19.png,0.4,1.2,43,0.5,,,,,,,,,,,,,,,,,,,,,,,,,,,,,,,,,,,,,,,,,,,,,
,,,,,SPR24_075,19,female,2024-04-22_15h55.45.364,jersey_experiment_5_v0,2023.2.2,Win32,84.74576271,,,,,,,,,,,,,,,,212.3458,213.3885,213.3886,222.2417,return,1.1901,,39.0625,0,15,15,21,1,FBP-YG-18.png,0.37,1.2,22,0.25,,,,,,,,,,,,,,,,,,,,,,,,,,,,,,,,,,,,,,,,,,,,,
,,,,,SPR24_075,19,female,2024-04-22_15h55.45.364,jersey_experiment_5_v0,2023.2.2,Win32,84.74576271,,,,,,,,,,,,,,,,222.2419,223.2948,223.2948,225.5185,return,0.9755,,25,0,16,16,50,1,FBP-PT-18.png,0.35,1.2,51,0.25,,,,,,,,,,,,,,,,,,,,,,,,,,,,,,,,,,,,,,,,,,,,,
,,,,,SPR24_075,19,female,2024-04-22_15h55.45.364,jersey_experiment_5_v0,2023.2.2,Win32,84.74576271,,,,,,,,,,,,,,,,225.5186,226.5656,226.5656,229.9933,return,0.7753,,74.86979167,0,17,17,24,1,FBP-YG-18.png,0.45,1.2,25,0.25,,,,,,,,,,,,,,,,,,,,,,,,,,,,,,,,,,,,,,,,,,,,,
,,,,,SPR24_075,19,female,2024-04-22_15h55.45.364,jersey_experiment_5_v0,2023.2.2,Win32,84.74576271,,,,,,,,,,,,,,,,229.9934,231.0363,231.0363,234.7463,return,0.9866,,80.72916667,0,18,18,58,1,FBP-PT-19.png,0.43,1.2,59,0.25,,,,,,,,,,,,,,,,,,,,,,,,,,,,,,,,,,,,,,,,,,,,,
,,,,,SPR24_075,19,female,2024-04-22_15h55.45.364,jersey_experiment_5_v0,2023.2.2,Win32,84.74576271,,,,,,,,,,,,,,,,234.7464,235.7894,235.7895,242.166,return,2.0075,,46.35416667,0,19,19,51,1,FBP-PT-18.png,0.37,1.2,52,0.25,,,,,,,,,,,,,,,,,,,,,,,,,,,,,,,,,,,,,,,,,,,,,
,,,,,SPR24_075,19,female,2024-04-22_15h55.45.364,jersey_experiment_5_v0,2023.2.2,Win32,84.74576271,,,,,,,,,,,,,,,,242.1662,243.4623,243.4623,248.7194,return,1.6474,,83.07291667,0,20,20,9,1,FBP-OG-81.png,0.45,1.2,10,0.5,,,,,,,,,,,,,,,,,,,,,,,,,,,,,,,,,,,,,,,,,,,,,
,,,,,SPR24_075,19,female,2024-04-22_15h55.45.364,jersey_experiment_5_v0,2023.2.2,Win32,84.74576271,,,,,,,,,,,,,,,,248.7196,250.0174,250.0174,254.1547,return,1.1908,,84.63541667,0,21,21,44,1,FBP-RB-19.png,0.45,1.2,45,0.5,,,,,,,,,,,,,,,,,,,,,,,,,,,,,,,,,,,,,,,,,,,,,
,,,,,SPR24_075,19,female,2024-04-22_15h55.45.364,jersey_experiment_5_v0,2023.2.2,Win32,84.74576271,,,,,,,,,,,,,,,,254.1548,255.2057,255.2057,261.6666,return,2.3079,,37.109375,0,22,22,55,1,FBP-PT-19.png,0.35,1.2,56,0.25,,,,,,,,,,,,,,,,,,,,,,,,,,,,,,,,,,,,,,,,,,,,,
,,,,,SPR24_075,19,female,2024-04-22_15h55.45.364,jersey_experiment_5_v0,2023.2.2,Win32,84.74576271,,,,,,,,,,,,,,,,261.6668,262.7197,262.7198,268.171,return,1.9281,,68.22916667,0,23,23,18,1,FBP-YG-17.png,0.43,1.2,19,0.25,,,,,,,,,,,,,,,,,,,,,,,,,,,,,,,,,,,,,,,,,,,,,
,,,,,SPR24_075,19,female,2024-04-22_15h55.45.364,jersey_experiment_5_v0,2023.2.2,Win32,84.74576271,,,,,,,,,,,,,,,,268.1712,269.2141,269.2142,274.1554,return,2.8939,,74.47916667,0,24,24,49,1,FBP-PT-17.png,0.45,1.2,50,0.25,,,,,,,,,,,,,,,,,,,,,,,,,,,,,,,,,,,,,,,,,,,,,
,,,,,SPR24_075,19,female,2024-04-22_15h55.45.364,jersey_experiment_5_v0,2023.2.2,Win32,84.74576271,,,,,,,,,,,,,,,,274.1555,275.2026,275.2026,289.1483,return,7.5533,,40.234375,0,25,25,27,1,FBP-YG-19.png,0.4,1.2,28,0.25,,,,,,,,,,,,,,,,,,,,,,,,,,,,,,,,,,,,,,,,,,,,,
,,,,,SPR24_075,19,female,2024-04-22_15h55.45.364,jersey_experiment_5_v0,2023.2.2,Win32,84.74576271,,,,,,,,,,,,,,,,289.1525,290.2029,290.203,299.0859,return,4.3887,,72.52604167,0,26,26,28,1,FBP-YG-19.png,0.43,1.2,29,0.25,,,,,,,,,,,,,,,,,,,,,,,,,,,,,,,,,,,,,,,,,,,,,
,,,,,SPR24_075,19,female,2024-04-22_15h55.45.364,jersey_experiment_5_v0,2023.2.2,Win32,84.74576271,,,,,,,,,,,,,,,,299.0899,300.1328,300.1328,305.1271,return,2.2268,,26.171875,0,27,27,56,1,FBP-PT-19.png,0.37,1.2,57,0.25,,,,,,,,,,,,,,,,,,,,,,,,,,,,,,,,,,,,,,,,,,,,,
,,,,,SPR24_075,19,female,2024-04-22_15h55.45.364,jersey_experiment_5_v0,2023.2.2,Win32,84.74576271,,,,,,,,,,,,,,,,305.1272,306.4271,306.4271,312.7332,return,2.5413,,12.5,0,28,28,40,1,FBP-RB-19.png,0.35,1.2,41,0.5,,,,,,,,,,,,,,,,,,,,,,,,,,,,,,,,,,,,,,,,,,,,,
,,,,,SPR24_075,19,female,2024-04-22_15h55.45.364,jersey_experiment_5_v0,2023.2.2,Win32,84.74576271,,,,,,,,,,,,,,,,312.7334,314.0273,314.0274,319.4042,return,2.9313,,24.21875,0,29,29,10,1,FBP-OG-91.png,0.35,1.2,11,0.5,,,,,,,,,,,,,,,,,,,,,,,,,,,,,,,,,,,,,,,,,,,,,
,,,,,SPR24_075,19,female,2024-04-22_15h55.45.364,jersey_experiment_5_v0,2023.2.2,Win32,84.74576271,,,,,,,,,,,,,,,,319.4085,320.71,320.7101,335.4046,return,11.8593,,52.60416667,0,30,30,1,1,FBP-OG-71.png,0.37,1.2,2,0.5,,,,,,,,,,,,,,,,,,,,,,,,,,,,,,,,,,,,,,,,,,,,,
,,,,,SPR24_075,19,female,2024-04-22_15h55.45.364,jersey_experiment_5_v0,2023.2.2,Win32,84.74576271,,,,,,,,,,,,,,,,335.4087,336.4517,336.4518,342.958,return,4.3158,,74.609375,0,31,31,54,1,FBP-PT-18.png,0.45,1.2,55,0.25,,,,,,,,,,,,,,,,,,,,,,,,,,,,,,,,,,,,,,,,,,,,,
,,,,,SPR24_075,19,female,2024-04-22_15h55.45.364,jersey_experiment_5_v0,2023.2.2,Win32,84.74576271,,,,,,,,,,,,,,,,342.9622,344.2638,344.2638,351.9581,return,5.2446,,81.51041667,0,32,32,34,1,FBP-RB-17.png,0.45,1.2,35,0.5,,,,,,,,,,,,,,,,,,,,,,,,,,,,,,,,,,,,,,,,,,,,,
,,,,,SPR24_075,19,female,2024-04-22_15h55.45.364,jersey_experiment_5_v0,2023.2.2,Win32,84.74576271,,,,,,,,,,,,,,,,351.9622,353.27,353.27,359.4525,return,2.1671,,46.35416667,0,33,33,41,1,FBP-RB-19.png,0.37,1.2,42,0.5,,,,,,,,,,,,,,,,,,,,,,,,,,,,,,,,,,,,,,,,,,,,,
,,,,,SPR24_075,19,female,2024-04-22_15h55.45.364,jersey_experiment_5_v0,2023.2.2,Win32,84.74576271,,,,,,,,,,,,,,,,359.4527,360.4995,360.4996,368.8058,return,3.3013,,25,0,34,34,20,1,FBP-YG-18.png,0.35,1.2,21,0.25,,,,,,,,,,,,,,,,,,,,,,,,,,,,,,,,,,,,,,,,,,,,,
,,,,,SPR24_075,19,female,2024-04-22_15h55.45.364,jersey_experiment_5_v0,2023.2.2,Win32,84.74576271,,,,,,,,,,,,,,,,368.806,370.0999,370.0999,379.0809,return,5.7179,,72.00520833,0,35,35,33,1,FBP-RB-17.png,0.43,1.2,34,0.5,,,,,,,,,,,,,,,,,,,,,,,,,,,,,,,,,,,,,,,,,,,,,
,,,,,SPR24_075,19,female,2024-04-22_15h55.45.364,jersey_experiment_5_v0,2023.2.2,Win32,84.74576271,,,,,,,,,,,,,,,,379.0851,380.3827,380.3828,384.524,return,1.1904,,49.609375,0,36,36,38,1,FBP-RB-18.png,0.43,1.2,39,0.5,,,,,,,,,,,,,,,,,,,,,,,,,,,,,,,,,,,,,,,,,,,,,
,,,,,SPR24_075,19,female,2024-04-22_15h55.45.364,jersey_experiment_5_v0,2023.2.2,Win32,84.74576271,,,,,,,,,,,,,,,,384.5242,385.5712,385.5713,389.8067,return,2.2453,,27.60416667,0,37,37,25,1,FBP-YG-19.png,0.35,1.2,26,0.25,,,,,,,,,,,,,,,,,,,,,,,,,,,,,,,,,,,,,,,,,,,,,
,,,,,SPR24_075,19,female,2024-04-22_15h55.45.364,jersey_experiment_5_v0,2023.2.2,Win32,84.74576271,,,,,,,,,,,,,,,,389.8069,391.1008,391.1009,398.6304,return,4.5833,,40.234375,0,38,38,0,1,FBP-OG-71.png,0.35,1.2,1,0.5,,,,,,,,,,,,,,,,,,,,,,,,,,,,,,,,,,,,,,,,,,,,,
,,,,,SPR24_075,19,female,2024-04-22_15h55.45.364,jersey_experiment_5_v0,2023.2.2,Win32,84.74576271,,,,,,,,,,,,,,,,398.6307,399.9246,399.9247,409.5422,return,7.6825,,86.71875,0,39,39,39,1,FBP-RB-18.png,0.45,1.2,40,0.5,,,,,,,,,,,,,,,,,,,,,,,,,,,,,,,,,,,,,,,,,,,,,
,,,,,SPR24_075,19,female,2024-04-22_15h55.45.364,jersey_experiment_5_v0,2023.2.2,Win32,84.74576271,,,,,,,,,,,,,,,,409.5424,410.8347,410.8347,415.9957,return,3.0249,,48.17708333,0,40,40,35,1,FBP-RB-18.png,0.35,1.2,36,0.5,,,,,,,,,,,,,,,,,,,,,,,,,,,,,,,,,,,,,,,,,,,,,
,,,,,SPR24_075,19,female,2024-04-22_15h55.45.364,jersey_experiment_5_v0,2023.2.2,Win32,84.74576271,,,,,,,,,,,,,,,,415.9959,417.0428,417.0429,422.0549,return,2.3475,,79.296875,0,41,41,53,1,FBP-PT-18.png,0.43,1.2,54,0.25,,,,,,,,,,,,,,,,,,,,,,,,,,,,,,,,,,,,,,,,,,,,,
,,,,,SPR24_075,19,female,2024-04-22_15h55.45.364,jersey_experiment_5_v0,2023.2.2,Win32,84.74576271,,,,,,,,,,,,,,,,422.0551,423.3489,423.3489,430.5374,return,5.1469,,51.30208333,0,42,42,32,1,FBP-RB-17.png,0.4,1.2,33,0.5,,,,,,,,,,,,,,,,,,,,,,,,,,,,,,,,,,,,,,,,,,,,,
,,,,,SPR24_075,19,female,2024-04-22_15h55.45.364,jersey_experiment_5_v0,2023.2.2,Win32,84.74576271,,,,,,,,,,,,,,,,430.5375,431.5845,431.5845,436.3434,return,1.3078,,41.015625,0,43,43,15,1,FBP-YG-17.png,0.35,1.2,16,0.25,,,,,,,,,,,,,,,,,,,,,,,,,,,,,,,,,,,,,,,,,,,,,
,,,,,SPR24_075,19,female,2024-04-22_15h55.45.364,jersey_experiment_5_v0,2023.2.2,Win32,84.74576271,,,,,,,,,,,,,,,,436.3435,437.6358,437.6358,440.2245,return,0.9298,,50.13020833,0,44,44,11,1,FBP-OG-91.png,0.37,1.2,12,0.5,,,,,,,,,,,,,,,,,,,,,,,,,,,,,,,,,,,,,,,,,,,,,
,,,,,SPR24_075,19,female,2024-04-22_15h55.45.364,jersey_experiment_5_v0,2023.2.2,Win32,84.74576271,,,,,,,,,,,,,,,,440.2246,441.526,441.5261,449.6793,return,4.128,,51.43229167,0,45,45,31,1,FBP-RB-17.png,0.37,1.2,32,0.5,,,,,,,,,,,,,,,,,,,,,,,,,,,,,,,,,,,,,,,,,,,,,
,,,,,SPR24_075,19,female,2024-04-22_15h55.45.364,jersey_experiment_5_v0,2023.2.2,Win32,84.74576271,,,,,,,,,,,,,,,,449.6794,450.9734,450.9734,455.6954,return,1.1999,,48.4375,0,46,46,5,1,FBP-OG-81.png,0.35,1.2,6,0.5,,,,,,,,,,,,,,,,,,,,,,,,,,,,,,,,,,,,,,,,,,,,,
,,,,,SPR24_075,19,female,2024-04-22_15h55.45.364,jersey_experiment_5_v0,2023.2.2,Win32,84.74576271,,,,,,,,,,,,,,,,455.6955,456.7383,456.7384,476.9073,return,4.786,,47.13541667,0,47,47,46,1,FBP-PT-17.png,0.37,1.2,47,0.25,,,,,,,,,,,,,,,,,,,,,,,,,,,,,,,,,,,,,,,,,,,,,
,,,,,SPR24_075,19,female,2024-04-22_15h55.45.364,jersey_experiment_5_v0,2023.2.2,Win32,84.74576271,,,,,,,,,,,,,,,,476.9073,477.951,477.951,483.1747,return,0.9357,,49.609375,0,48,48,26,1,FBP-YG-19.png,0.37,1.2,27,0.25,,,,,,,,,,,,,,,,,,,,,,,,,,,,,,,,,,,,,,,,,,,,,
,,,,,SPR24_075,19,female,2024-04-22_15h55.45.364,jersey_experiment_5_v0,2023.2.2,Win32,84.74576271,,,,,,,,,,,,,,,,483.1749,484.2276,484.2276,491.9557,return,5.481,,60.02604167,0,49,49,52,1,FBP-PT-18.png,0.4,1.2,53,0.25,,,,,,,,,,,,,,,,,,,,,,,,,,,,,,,,,,,,,,,,,,,,,
,,,,,SPR24_075,19,female,2024-04-22_15h55.45.364,jersey_experiment_5_v0,2023.2.2,Win32,84.74576271,,,,,,,,,,,,,,,,491.9558,492.9985,492.9985,497.2692,return,2.2314,,27.21354167,0,50,50,45,1,FBP-PT-17.png,0.35,1.2,46,0.25,,,,,,,,,,,,,,,,,,,,,,,,,,,,,,,,,,,,,,,,,,,,,
,,,,,SPR24_075,19,female,2024-04-22_15h55.45.364,jersey_experiment_5_v0,2023.2.2,Win32,84.74576271,,,,,,,,,,,,,,,,497.2693,498.5633,498.5633,500.4929,return,0.7572,,74.86979167,0,51,51,13,1,FBP-OG-91.png,0.43,1.2,14,0.5,,,,,,,,,,,,,,,,,,,,,,,,,,,,,,,,,,,,,,,,,,,,,
,,,,,SPR24_075,19,female,2024-04-22_15h55.45.364,jersey_experiment_5_v0,2023.2.2,Win32,84.74576271,,,,,,,,,,,,,,,,500.4931,501.7871,501.7871,505.446,return,1.0304,,74.08854167,0,52,52,2,1,FBP-OG-71.png,0.4,1.2,3,0.5,,,,,,,,,,,,,,,,,,,,,,,,,,,,,,,,,,,,,,,,,,,,,
,,,,,SPR24_075,19,female,2024-04-22_15h55.45.364,jersey_experiment_5_v0,2023.2.2,Win32,84.74576271,,,,,,,,,,,,,,,,505.4461,506.7402,506.7402,509.9284,return,2.0615,,82.94270833,0,53,53,43,1,FBP-RB-19.png,0.43,1.2,44,0.5,,,,,,,,,,,,,,,,,,,,,,,,,,,,,,,,,,,,,,,,,,,,,
,,,,,SPR24_075,19,female,2024-04-22_15h55.45.364,jersey_experiment_5_v0,2023.2.2,Win32,84.74576271,,,,,,,,,,,,,,,,509.9285,511.2226,511.2226,519.6466,return,6.7803,,46.09375,0,54,54,36,1,FBP-RB-18.png,0.37,1.2,37,0.5,,,,,,,,,,,,,,,,,,,,,,,,,,,,,,,,,,,,,,,,,,,,,
,,,,,SPR24_075,19,female,2024-04-22_15h55.45.364,jersey_experiment_5_v0,2023.2.2,Win32,84.74576271,,,,,,,,,,,,,,,,519.6467,520.6936,520.6937,525.5997,return,1.2708,,54.94791667,0,55,55,57,1,FBP-PT-19.png,0.4,1.2,58,0.25,,,,,,,,,,,,,,,,,,,,,,,,,,,,,,,,,,,,,,,,,,,,,
,,,,,SPR24_075,19,female,2024-04-22_15h55.45.364,jersey_experiment_5_v0,2023.2.2,Win32,84.74576271,,,,,,,,,,,,,,,,525.5998,526.6468,526.6469,529.955,return,1.7866,,75.13020833,0,56,56,19,1,FBP-YG-17.png,0.45,1.2,20,0.25,,,,,,,,,,,,,,,,,,,,,,,,,,,,,,,,,,,,,,,,,,,,,
,,,,,SPR24_075,19,female,2024-04-22_15h55.45.364,jersey_experiment_5_v0,2023.2.2,Win32,84.74576271,,,,,,,,,,,,,,,,529.9552,530.9997,530.9998,534.8393,return,1.8118,,75.65104167,0,57,57,23,1,FBP-YG-18.png,0.43,1.2,24,0.25,,,,,,,,,,,,,,,,,,,,,,,,,,,,,,,,,,,,,,,,,,,,,
,,,,,SPR24_075,19,female,2024-04-22_15h55.45.364,jersey_experiment_5_v0,2023.2.2,Win32,84.74576271,,,,,,,,,,,,,,,,534.8395,535.8822,535.8822,539.7179,return,2.0778,,82.16145833,0,58,58,59,1,FBP-PT-19.png,0.45,1.2,60,0.25,,,,,,,,,,,,,,,,,,,,,,,,,,,,,,,,,,,,,,,,,,,,,
,,,,,SPR24_075,19,female,2024-04-22_15h55.45.364,jersey_experiment_5_v0,2023.2.2,Win32,84.74576271,,,,,,,,,,,,,,,,539.718,541.0162,541.0162,544.4279,return,1.4493,,80.59895833,0,59,59,8,1,FBP-OG-81.png,0.43,1.2,9,0.5,,,,,,,,,,,,,,,,,,,,,,,,,,,,,,,,,,,,,,,,,,,,,
,,,,,SPR24_075,19,female,2024-04-22_15h55.45.364,jersey_experiment_5_v0,2023.2.2,Win32,84.74576271,,,,,,,,,,,,,,,,544.4303,545.7235,545.7235,550.0124,return,2.1163,,74.34895833,,,,,,FBP-RB-91.png,0.43,1.2,44,0.5,0,0,0,43,1,,,,,,,,,,,,,,,,,,,,,,,,,,,,,,,,,,,,,,,,
,,,,,SPR24_075,19,female,2024-04-22_15h55.45.364,jersey_experiment_5_v0,2023.2.2,Win32,84.74576271,,,,,,,,,,,,,,,,550.0127,551.3064,551.3064,554.6007,return,1.4259,,24.609375,,,,,,FBP-RB-71.png,0.35,1.2,31,0.5,0,1,1,30,1,,,,,,,,,,,,,,,,,,,,,,,,,,,,,,,,,,,,,,,,
,,,,,SPR24_075,19,female,2024-04-22_15h55.45.364,jersey_experiment_5_v0,2023.2.2,Win32,84.74576271,,,,,,,,,,,,,,,,554.601,555.8948,555.8948,559.9894,return,1.4902,,27.34375,,,,,,FBP-OG-17.png,0.35,1.2,1,0.5,0,2,2,0,1,,,,,,,,,,,,,,,,,,,,,,,,,,,,,,,,,,,,,,,,
,,,,,SPR24_075,19,female,2024-04-22_15h55.45.364,jersey_experiment_5_v0,2023.2.2,Win32,84.74576271,,,,,,,,,,,,,,,,559.9897,561.0361,561.0361,565.8834,return,1.4491,,64.0625,,,,,,FBP-YG-91.png,0.4,1.2,28,0.25,0,3,3,27,1,,,,,,,,,,,,,,,,,,,,,,,,,,,,,,,,,,,,,,,,
,,,,,SPR24_075,19,female,2024-04-22_15h55.45.364,jersey_experiment_5_v0,2023.2.2,Win32,84.74576271,,,,,,,,,,,,,,,,565.8835,566.9305,566.9305,571.719,return,1.6625,,42.1875,,,,,,FBP-PT-81.png,0.35,1.2,51,0.25,0,4,4,50,1,,,,,,,,,,,,,,,,,,,,,,,,,,,,,,,,,,,,,,,,
,,,,,SPR24_075,19,female,2024-04-22_15h55.45.364,jersey_experiment_5_v0,2023.2.2,Win32,84.74576271,,,,,,,,,,,,,,,,571.7191,572.766,572.7661,579.0133,return,4.3015,,76.69270833,,,,,,FBP-YG-91.png,0.43,1.2,29,0.25,0,5,5,28,1,,,,,,,,,,,,,,,,,,,,,,,,,,,,,,,,,,,,,,,,
,,,,,SPR24_075,19,female,2024-04-22_15h55.45.364,jersey_experiment_5_v0,2023.2.2,Win32,84.74576271,,,,,,,,,,,,,,,,579.0136,580.0603,580.0604,586.2019,return,3.7678,,72.265625,,,,,,FBP-YG-81.png,0.4,1.2,23,0.25,0,6,6,22,1,,,,,,,,,,,,,,,,,,,,,,,,,,,,,,,,,,,,,,,,
,,,,,SPR24_075,19,female,2024-04-22_15h55.45.364,jersey_experiment_5_v0,2023.2.2,Win32,84.74576271,,,,,,,,,,,,,,,,586.202,587.4959,587.4959,592.8138,return,2.918,,71.484375,,,,,,FBP-OG-19.png,0.4,1.2,13,0.5,0,7,7,12,1,,,,,,,,,,,,,,,,,,,,,,,,,,,,,,,,,,,,,,,,
,,,,,SPR24_075,19,female,2024-04-22_15h55.45.364,jersey_experiment_5_v0,2023.2.2,Win32,84.74576271,,,,,,,,,,,,,,,,592.8141,593.8608,593.8608,600.5553,return,4.0613,,54.296875,,,,,,FBP-PT-91.png,0.4,1.2,58,0.25,0,8,8,57,1,,,,,,,,,,,,,,,,,,,,,,,,,,,,,,,,,,,,,,,,
,,,,,SPR24_075,19,female,2024-04-22_15h55.45.364,jersey_experiment_5_v0,2023.2.2,Win32,84.74576271,,,,,,,,,,,,,,,,600.5555,601.8493,601.8493,604.4989,return,0.7513,,49.609375,,,,,,FBP-OG-17.png,0.37,1.2,2,0.5,0,9,9,1,1,,,,,,,,,,,,,,,,,,,,,,,,,,,,,,,,,,,,,,,,
,,,,,SPR24_075,19,female,2024-04-22_15h55.45.364,jersey_experiment_5_v0,2023.2.2,Win32,84.74576271,,,,,,,,,,,,,,,,604.4991,605.5438,605.5438,610.2026,return,2.0134,,41.14583333,,,,,,FBP-PT-71.png,0.37,1.2,47,0.25,0,10,10,46,1,,,,,,,,,,,,,,,,,,,,,,,,,,,,,,,,,,,,,,,,
,,,,,SPR24_075,19,female,2024-04-22_15h55.45.364,jersey_experiment_5_v0,2023.2.2,Win32,84.74576271,,,,,,,,,,,,,,,,610.2028,611.5008,611.5008,614.2642,return,0.787,,74.47916667,,,,,,FBP-OG-19.png,0.43,1.2,14,0.5,0,11,11,13,1,,,,,,,,,,,,,,,,,,,,,,,,,,,,,,,,,,,,,,,,
,,,,,SPR24_075,19,female,2024-04-22_15h55.45.364,jersey_experiment_5_v0,2023.2.2,Win32,84.74576271,,,,,,,,,,,,,,,,614.2644,615.3086,615.3087,619.2384,return,1.7694,,79.42708333,,,,,,FBP-YG-91.png,0.45,1.2,30,0.25,0,12,12,29,1,,,,,,,,,,,,,,,,,,,,,,,,,,,,,,,,,,,,,,,,
,,,,,SPR24_075,19,female,2024-04-22_15h55.45.364,jersey_experiment_5_v0,2023.2.2,Win32,84.74576271,,,,,,,,,,,,,,,,619.2384,620.2854,620.2854,627.8621,return,5.0552,,42.44791667,,,,,,FBP-PT-91.png,0.37,1.2,57,0.25,0,13,13,56,1,,,,,,,,,,,,,,,,,,,,,,,,,,,,,,,,,,,,,,,,
,,,,,SPR24_075,19,female,2024-04-22_15h55.45.364,jersey_experiment_5_v0,2023.2.2,Win32,84.74576271,,,,,,,,,,,,,,,,627.8663,628.9091,628.9092,635.2881,return,3.6354,,77.99479167,,,,,,FBP-YG-81.png,0.45,1.2,25,0.25,0,14,14,24,1,,,,,,,,,,,,,,,,,,,,,,,,,,,,,,,,,,,,,,,,
,,,,,SPR24_075,19,female,2024-04-22_15h55.45.364,jersey_experiment_5_v0,2023.2.2,Win32,84.74576271,,,,,,,,,,,,,,,,635.2883,636.5801,636.5801,640.5608,return,2.1163,,49.34895833,,,,,,FBP-RB-71.png,0.4,1.2,33,0.5,0,15,15,32,1,,,,,,,,,,,,,,,,,,,,,,,,,,,,,,,,,,,,,,,,
,,,,,SPR24_075,19,female,2024-04-22_15h55.45.364,jersey_experiment_5_v0,2023.2.2,Win32,84.74576271,,,,,,,,,,,,,,,,640.5609,641.8627,641.8627,647.2865,return,1.9242,,50.390625,,,,,,FBP-RB-81.png,0.4,1.2,38,0.5,0,16,16,37,1,,,,,,,,,,,,,,,,,,,,,,,,,,,,,,,,,,,,,,,,
,,,,,SPR24_075,19,female,2024-04-22_15h55.45.364,jersey_experiment_5_v0,2023.2.2,Win32,84.74576271,,,,,,,,,,,,,,,,647.2866,648.5806,648.5806,655.6437,return,5.0008,,31.38020833,,,,,,FBP-OG-18.png,0.35,1.2,6,0.5,0,17,17,5,1,,,,,,,,,,,,,,,,,,,,,,,,,,,,,,,,,,,,,,,,
,,,,,SPR24_075,19,female,2024-04-22_15h55.45.364,jersey_experiment_5_v0,2023.2.2,Win32,84.74576271,,,,,,,,,,,,,,,,655.6438,656.9495,656.9495,661.0987,return,1.4257,,73.046875,,,,,,FBP-OG-18.png,0.43,1.2,9,0.5,0,18,18,8,1,,,,,,,,,,,,,,,,,,,,,,,,,,,,,,,,,,,,,,,,
,,,,,SPR24_075,19,female,2024-04-22_15h55.45.364,jersey_experiment_5_v0,2023.2.2,Win32,84.74576271,,,,,,,,,,,,,,,,661.0989,662.1516,662.1516,665.7576,return,1.0589,,50,,,,,,FBP-YG-91.png,0.37,1.2,27,0.25,0,19,19,26,1,,,,,,,,,,,,,,,,,,,,,,,,,,,,,,,,,,,,,,,,
,,,,,SPR24_075,19,female,2024-04-22_15h55.45.364,jersey_experiment_5_v0,2023.2.2,Win32,84.74576271,,,,,,,,,,,,,,,,665.7579,667.0558,667.0558,674.0048,return,3.1486,,63.15104167,,,,,,FBP-RB-81.png,0.43,1.2,39,0.5,0,20,20,38,1,,,,,,,,,,,,,,,,,,,,,,,,,,,,,,,,,,,,,,,,
,,,,,SPR24_075,19,female,2024-04-22_15h55.45.364,jersey_experiment_5_v0,2023.2.2,Win32,84.74576271,,,,,,,,,,,,,,,,674.005,675.299,675.299,681.6757,return,4.4018,,41.14583333,,,,,,FBP-RB-91.png,0.35,1.2,41,0.5,0,21,21,40,1,,,,,,,,,,,,,,,,,,,,,,,,,,,,,,,,,,,,,,,,
,,,,,SPR24_075,19,female,2024-04-22_15h55.45.364,jersey_experiment_5_v0,2023.2.2,Win32,84.74576271,,,,,,,,,,,,,,,,681.6761,682.97,682.97,689.1938,return,3.9809,,64.19270833,,,,,,FBP-OG-17.png,0.4,1.2,3,0.5,0,22,22,2,1,,,,,,,,,,,,,,,,,,,,,,,,,,,,,,,,,,,,,,,,
,,,,,SPR24_075,19,female,2024-04-22_15h55.45.364,jersey_experiment_5_v0,2023.2.2,Win32,84.74576271,,,,,,,,,,,,,,,,689.1939,690.488,690.488,694.5586,return,2.271,,76.5625,,,,,,FBP-OG-17.png,0.45,1.2,5,0.5,0,23,23,4,1,,,,,,,,,,,,,,,,,,,,,,,,,,,,,,,,,,,,,,,,
,,,,,SPR24_075,19,female,2024-04-22_15h55.45.364,jersey_experiment_5_v0,2023.2.2,Win32,84.74576271,,,,,,,,,,,,,,,,694.5587,695.6058,695.6058,700.1354,return,2.039,,83.85416667,,,,,,FBP-PT-71.png,0.45,1.2,50,0.25,0,24,24,49,1,,,,,,,,,,,,,,,,,,,,,,,,,,,,,,,,,,,,,,,,
,,,,,SPR24_075,19,female,2024-04-22_15h55.45.364,jersey_experiment_5_v0,2023.2.2,Win32,84.74576271,,,,,,,,,,,,,,,,700.1356,701.4295,701.4295,706.4885,return,3.1335,,49.73958333,,,,,,FBP-RB-91.png,0.4,1.2,43,0.5,0,25,25,42,1,,,,,,,,,,,,,,,,,,,,,,,,,,,,,,,,,,,,,,,,
,,,,,SPR24_075,19,female,2024-04-22_15h55.45.364,jersey_experiment_5_v0,2023.2.2,Win32,84.74576271,,,,,,,,,,,,,,,,706.4928,707.5396,707.5396,710.7356,return,1.3171,,25.65104167,,,,,,FBP-PT-91.png,0.35,1.2,56,0.25,0,26,26,55,1,,,,,,,,,,,,,,,,,,,,,,,,,,,,,,,,,,,,,,,,
,,,,,SPR24_075,19,female,2024-04-22_15h55.45.364,jersey_experiment_5_v0,2023.2.2,Win32,84.74576271,,,,,,,,,,,,,,,,710.7358,711.7827,711.7827,718.3285,return,4.0828,,67.44791667,,,,,,FBP-PT-81.png,0.4,1.2,53,0.25,0,27,27,52,1,,,,,,,,,,,,,,,,,,,,,,,,,,,,,,,,,,,,,,,,
,,,,,SPR24_075,19,female,2024-04-22_15h55.45.364,jersey_experiment_5_v0,2023.2.2,Win32,84.74576271,,,,,,,,,,,,,,,,718.3285,719.6302,719.6302,724.9363,return,3.3811,,87.63020833,,,,,,FBP-RB-71.png,0.45,1.2,35,0.5,0,28,28,34,1,,,,,,,,,,,,,,,,,,,,,,,,,,,,,,,,,,,,,,,,
,,,,,SPR24_075,19,female,2024-04-22_15h55.45.364,jersey_experiment_5_v0,2023.2.2,Win32,84.74576271,,,,,,,,,,,,,,,,724.9365,726.2303,726.2304,732.5364,return,4.0986,,51.43229167,,,,,,FBP-RB-71.png,0.37,1.2,32,0.5,0,29,29,31,1,,,,,,,,,,,,,,,,,,,,,,,,,,,,,,,,,,,,,,,,
,,,,,SPR24_075,19,female,2024-04-22_15h55.45.364,jersey_experiment_5_v0,2023.2.2,Win32,84.74576271,,,,,,,,,,,,,,,,732.5367,733.5875,733.5875,740.4073,return,3.2523,,51.30208333,,,,,,FBP-PT-71.png,0.35,1.2,46,0.25,0,30,30,45,1,,,,,,,,,,,,,,,,,,,,,,,,,,,,,,,,,,,,,,,,
,,,,,SPR24_075,19,female,2024-04-22_15h55.45.364,jersey_experiment_5_v0,2023.2.2,Win32,84.74576271,,,,,,,,,,,,,,,,740.4074,741.7014,741.7014,746.7017,return,2.6964,,77.21354167,,,,,,FBP-RB-91.png,0.45,1.2,45,0.5,0,31,31,44,1,,,,,,,,,,,,,,,,,,,,,,,,,,,,,,,,,,,,,,,,
,,,,,SPR24_075,19,female,2024-04-22_15h55.45.364,jersey_experiment_5_v0,2023.2.2,Win32,84.74576271,,,,,,,,,,,,,,,,746.7019,747.752,747.752,751.7372,return,2.3092,,80.20833333,,,,,,FBP-YG-71.png,0.45,1.2,20,0.25,0,32,32,19,1,,,,,,,,,,,,,,,,,,,,,,,,,,,,,,,,,,,,,,,,
,,,,,SPR24_075,19,female,2024-04-22_15h55.45.364,jersey_experiment_5_v0,2023.2.2,Win32,84.74576271,,,,,,,,,,,,,,,,751.7374,752.7842,752.7842,757.1962,return,1.8025,,59.63541667,,,,,,FBP-PT-71.png,0.4,1.2,48,0.25,0,33,33,47,1,,,,,,,,,,,,,,,,,,,,,,,,,,,,,,,,,,,,,,,,
,,,,,SPR24_075,19,female,2024-04-22_15h55.45.364,jersey_experiment_5_v0,2023.2.2,Win32,84.74576271,,,,,,,,,,,,,,,,757.1963,758.2432,758.2433,762.8904,return,2.5199,,75,,,,,,FBP-YG-81.png,0.43,1.2,24,0.25,0,34,34,23,1,,,,,,,,,,,,,,,,,,,,,,,,,,,,,,,,,,,,,,,,
,,,,,SPR24_075,19,female,2024-04-22_15h55.45.364,jersey_experiment_5_v0,2023.2.2,Win32,84.74576271,,,,,,,,,,,,,,,,762.8907,763.9375,763.9375,767.4003,return,2.2821,,75,,,,,,FBP-PT-91.png,0.45,1.2,60,0.25,0,35,35,59,1,,,,,,,,,,,,,,,,,,,,,,,,,,,,,,,,,,,,,,,,
,,,,,SPR24_075,19,female,2024-04-22_15h55.45.364,jersey_experiment_5_v0,2023.2.2,Win32,84.74576271,,,,,,,,,,,,,,,,767.4004,768.4436,768.4436,773.279,return,2.3768,,75.65104167,,,,,,FBP-PT-91.png,0.43,1.2,59,0.25,0,36,36,58,1,,,,,,,,,,,,,,,,,,,,,,,,,,,,,,,,,,,,,,,,
,,,,,SPR24_075,19,female,2024-04-22_15h55.45.364,jersey_experiment_5_v0,2023.2.2,Win32,84.74576271,,,,,,,,,,,,,,,,773.2793,774.5732,774.5732,780.2559,return,4.4473,,75.13020833,,,,,,FBP-OG-19.png,0.45,1.2,15,0.5,0,37,37,14,1,,,,,,,,,,,,,,,,,,,,,,,,,,,,,,,,,,,,,,,,
,,,,,SPR24_075,19,female,2024-04-22_15h55.45.364,jersey_experiment_5_v0,2023.2.2,Win32,84.74576271,,,,,,,,,,,,,,,,780.256,781.55,781.55,789.3738,return,5.6926,,62.890625,,,,,,FBP-OG-17.png,0.43,1.2,4,0.5,0,38,38,3,1,,,,,,,,,,,,,,,,,,,,,,,,,,,,,,,,,,,,,,,,
,,,,,SPR24_075,19,female,2024-04-22_15h55.45.364,jersey_experiment_5_v0,2023.2.2,Win32,84.74576271,,,,,,,,,,,,,,,,789.374,790.668,790.668,795.286,return,2.0508,,59.89583333,,,,,,FBP-OG-18.png,0.4,1.2,8,0.5,0,39,39,7,1,,,,,,,,,,,,,,,,,,,,,,,,,,,,,,,,,,,,,,,,
,,,,,SPR24_075,19,female,2024-04-22_15h55.45.364,jersey_experiment_5_v0,2023.2.2,Win32,84.74576271,,,,,,,,,,,,,,,,795.2863,796.3388,796.3388,800.9742,return,2.1416,,58.07291667,,,,,,FBP-YG-71.png,0.37,1.2,17,0.25,0,40,40,16,1,,,,,,,,,,,,,,,,,,,,,,,,,,,,,,,,,,,,,,,,
,,,,,SPR24_075,19,female,2024-04-22_15h55.45.364,jersey_experiment_5_v0,2023.2.2,Win32,84.74576271,,,,,,,,,,,,,,,,800.9744,802.2683,802.2683,805.245,return,0.9413,,75,,,,,,FBP-RB-81.png,0.45,1.2,40,0.5,0,41,41,39,1,,,,,,,,,,,,,,,,,,,,,,,,,,,,,,,,,,,,,,,,
,,,,,SPR24_075,19,female,2024-04-22_15h55.45.364,jersey_experiment_5_v0,2023.2.2,Win32,84.74576271,,,,,,,,,,,,,,,,805.2452,806.2919,806.292,808.7156,return,1.13,,75,,,,,,FBP-PT-71.png,0.43,1.2,49,0.25,0,42,42,48,1,,,,,,,,,,,,,,,,,,,,,,,,,,,,,,,,,,,,,,,,
,,,,,SPR24_075,19,female,2024-04-22_15h55.45.364,jersey_experiment_5_v0,2023.2.2,Win32,84.74576271,,,,,,,,,,,,,,,,808.7156,809.7666,809.7666,815.8452,return,3.925,,38.54166667,,,,,,FBP-YG-91.png,0.35,1.2,26,0.25,0,43,43,25,1,,,,,,,,,,,,,,,,,,,,,,,,,,,,,,,,,,,,,,,,
,,,,,SPR24_075,19,female,2024-04-22_15h55.45.364,jersey_experiment_5_v0,2023.2.2,Win32,84.74576271,,,,,,,,,,,,,,,,815.8453,817.1395,817.1395,820.0689,return,1.0664,,38.54166667,,,,,,FBP-OG-18.png,0.37,1.2,7,0.5,0,44,44,6,1,,,,,,,,,,,,,,,,,,,,,,,,,,,,,,,,,,,,,,,,
,,,,,SPR24_075,19,female,2024-04-22_15h55.45.364,jersey_experiment_5_v0,2023.2.2,Win32,84.74576271,,,,,,,,,,,,,,,,820.0691,821.363,821.3631,825.3084,return,1.8689,,53.515625,,,,,,FBP-OG-19.png,0.37,1.2,12,0.5,0,45,45,11,1,,,,,,,,,,,,,,,,,,,,,,,,,,,,,,,,,,,,,,,,
,,,,,SPR24_075,19,female,2024-04-22_15h55.45.364,jersey_experiment_5_v0,2023.2.2,Win32,84.74576271,,,,,,,,,,,,,,,,825.3086,826.613,826.613,834.5871,return,5.6719,,37.36979167,,,,,,FBP-RB-81.png,0.35,1.2,36,0.5,0,46,46,35,1,,,,,,,,,,,,,,,,,,,,,,,,,,,,,,,,,,,,,,,,
,,,,,SPR24_075,19,female,2024-04-22_15h55.45.364,jersey_experiment_5_v0,2023.2.2,Win32,84.74576271,,,,,,,,,,,,,,,,834.5873,835.8852,835.8852,838.8932,return,1.1181,,74.86979167,,,,,,FBP-RB-71.png,0.43,1.2,34,0.5,0,47,47,33,1,,,,,,,,,,,,,,,,,,,,,,,,,,,,,,,,,,,,,,,,
,,,,,SPR24_075,19,female,2024-04-22_15h55.45.364,jersey_experiment_5_v0,2023.2.2,Win32,84.74576271,,,,,,,,,,,,,,,,838.8934,839.9402,839.9403,846.764,return,3.3653,,51.953125,,,,,,FBP-PT-81.png,0.37,1.2,52,0.25,0,48,48,51,1,,,,,,,,,,,,,,,,,,,,,,,,,,,,,,,,,,,,,,,,
,,,,,SPR24_075,19,female,2024-04-22_15h55.45.364,jersey_experiment_5_v0,2023.2.2,Win32,84.74576271,,,,,,,,,,,,,,,,846.7642,847.8112,847.8112,852.9076,return,2.8573,,49.47916667,,,,,,FBP-YG-81.png,0.37,1.2,22,0.25,0,49,49,21,1,,,,,,,,,,,,,,,,,,,,,,,,,,,,,,,,,,,,,,,,
,,,,,SPR24_075,19,female,2024-04-22_15h55.45.364,jersey_experiment_5_v0,2023.2.2,Win32,84.74576271,,,,,,,,,,,,,,,,852.9118,854.2114,854.2114,858.5057,return,2.4268,,78.64583333,,,,,,FBP-OG-18.png,0.45,1.2,10,0.5,0,50,50,9,1,,,,,,,,,,,,,,,,,,,,,,,,,,,,,,,,,,,,,,,,
,,,,,SPR24_075,19,female,2024-04-22_15h55.45.364,jersey_experiment_5_v0,2023.2.2,Win32,84.74576271,,,,,,,,,,,,,,,,858.5058,859.7999,859.7999,865.1765,return,3.7314,,47.78645833,,,,,,FBP-RB-81.png,0.37,1.2,37,0.5,0,51,51,36,1,,,,,,,,,,,,,,,,,,,,,,,,,,,,,,,,,,,,,,,,
,,,,,SPR24_075,19,female,2024-04-22_15h55.45.364,jersey_experiment_5_v0,2023.2.2,Win32,84.74576271,,,,,,,,,,,,,,,,865.1766,866.2236,866.2236,871.5297,return,2.9912,,50.390625,,,,,,FBP-YG-71.png,0.35,1.2,16,0.25,0,52,52,15,1,,,,,,,,,,,,,,,,,,,,,,,,,,,,,,,,,,,,,,,,
,,,,,SPR24_075,19,female,2024-04-22_15h55.45.364,jersey_experiment_5_v0,2023.2.2,Win32,84.74576271,,,,,,,,,,,,,,,,871.5298,872.5766,872.5766,880.2005,return,4.9923,,51.30208333,,,,,,FBP-YG-71.png,0.4,1.2,18,0.25,0,53,53,17,1,,,,,,,,,,,,,,,,,,,,,,,,,,,,,,,,,,,,,,,,
,,,,,SPR24_075,19,female,2024-04-22_15h55.45.364,jersey_experiment_5_v0,2023.2.2,Win32,84.74576271,,,,,,,,,,,,,,,,880.2047,881.2475,881.2475,885.8478,return,2.4753,,82.03125,,,,,,FBP-PT-81.png,0.43,1.2,54,0.25,0,54,54,53,1,,,,,,,,,,,,,,,,,,,,,,,,,,,,,,,,,,,,,,,,
,,,,,SPR24_075,19,female,2024-04-22_15h55.45.364,jersey_experiment_5_v0,2023.2.2,Win32,84.74576271,,,,,,,,,,,,,,,,885.848,886.8949,886.895,892.5185,return,2.5234,,54.42708333,,,,,,FBP-YG-81.png,0.35,1.2,21,0.25,0,55,55,20,1,,,,,,,,,,,,,,,,,,,,,,,,,,,,,,,,,,,,,,,,
,,,,,SPR24_075,19,female,2024-04-22_15h55.45.364,jersey_experiment_5_v0,2023.2.2,Win32,84.74576271,,,,,,,,,,,,,,,,892.5187,893.8128,893.8129,900.2877,return,3.365,,52.86458333,,,,,,FBP-RB-91.png,0.37,1.2,42,0.5,0,56,56,41,1,,,,,,,,,,,,,,,,,,,,,,,,,,,,,,,,,,,,,,,,
,,,,,SPR24_075,19,female,2024-04-22_15h55.45.364,jersey_experiment_5_v0,2023.2.2,Win32,84.74576271,,,,,,,,,,,,,,,,900.2879,901.3308,901.3308,905.3427,return,1.9079,,86.58854167,,,,,,FBP-PT-81.png,0.45,1.2,55,0.25,0,57,57,54,1,,,,,,,,,,,,,,,,,,,,,,,,,,,,,,,,,,,,,,,,
,,,,,SPR24_075,19,female,2024-04-22_15h55.45.364,jersey_experiment_5_v0,2023.2.2,Win32,84.74576271,,,,,,,,,,,,,,,,905.3428,906.3897,906.3897,911.1899,return,2.3006,,74.34895833,,,,,,FBP-YG-71.png,0.43,1.2,19,0.25,0,58,58,18,1,,,,,,,,,,,,,,,,,,,,,,,,,,,,,,,,,,,,,,,,
,,,,,SPR24_075,19,female,2024-04-22_15h55.45.364,jersey_experiment_5_v0,2023.2.2,Win32,84.74576271,,,,,,,,,,,,,,,,911.1901,912.4841,912.4841,918.0607,return,2.9884,,38.54166667,,,,,,FBP-OG-19.png,0.35,1.2,11,0.5,0,59,59,10,1,,,,,,,,,,,,,,,,,,,,,,,,,,,,,,,,,,,,,,,,
,,,,,SPR24_075,19,female,2024-04-22_15h55.45.364,jersey_experiment_5_v0,2023.2.2,Win32,84.74576271,,,,,,,,,,,,,,,,,,,,,,,,,,,,,,,,,,,,,,,918.061,1038.0534,,,,,,,,,,,,,,,,,,,,,,,,,,,,,,,,,,,,,,
,,,,,SPR24_075,19,female,2024-04-22_15h55.45.364,jersey_experiment_5_v0,2023.2.2,Win32,84.74576271,,,,,,,,,,,,,,,,,,,,,,,,,,,,,,,,,,,,,,,,,1038.0535,1043.9595,return,5.8872,,,,,,,,,,,,,,,,,,,,,,,,,,,,,,,,,,
,,,,,SPR24_075,19,female,2024-04-22_15h55.45.364,jersey_experiment_5_v0,2023.2.2,Win32,84.74576271,,,,,,,,,,,,,,,,1043.9654,1045.0183,1045.0183,1048.7595,return,1.134,,74.609375,,,,,,FBP-RB-17.png,0.43,1.2,34,0.25,,,,,,,,,,,,,0,0,0,33,1,,,,,,,,,,,,,,,,,,,,,,,,,,,,
,,,,,SPR24_075,19,female,2024-04-22_15h55.45.364,jersey_experiment_5_v0,2023.2.2,Win32,84.74576271,,,,,,,,,,,,,,,,1048.76,1049.8065,1049.8065,1052.9361,return,1.7435,,74.609375,,,,,,FBP-RB-17.png,0.45,1.2,35,0.25,,,,,,,,,,,,,0,1,1,34,1,,,,,,,,,,,,,,,,,,,,,,,,,,,,
,,,,,SPR24_075,19,female,2024-04-22_15h55.45.364,jersey_experiment_5_v0,2023.2.2,Win32,84.74576271,,,,,,,,,,,,,,,,1052.9362,1054.2302,1054.2302,1061.1288,return,2.5534,,74.08854167,,,,,,FBP-PT-18.png,0.4,1.2,53,0.5,,,,,,,,,,,,,0,2,2,52,1,,,,,,,,,,,,,,,,,,,,,,,,,,,,
,,,,,SPR24_075,19,female,2024-04-22_15h55.45.364,jersey_experiment_5_v0,2023.2.2,Win32,84.74576271,,,,,,,,,,,,,,,,1061.129,1062.4305,1062.4306,1068.6307,return,4.4175,,38.54166667,,,,,,FBP-YG-17.png,0.35,1.2,16,0.5,,,,,,,,,,,,,0,3,3,15,1,,,,,,,,,,,,,,,,,,,,,,,,,,,,
,,,,,SPR24_075,19,female,2024-04-22_15h55.45.364,jersey_experiment_5_v0,2023.2.2,Win32,84.74576271,,,,,,,,,,,,,,,,1068.6309,1069.6778,1069.6778,1074.9368,return,3.0486,,40.234375,,,,,,FBP-RB-17.png,0.35,1.2,31,0.25,,,,,,,,,,,,,0,4,4,30,1,,,,,,,,,,,,,,,,,,,,,,,,,,,,
,,,,,SPR24_075,19,female,2024-04-22_15h55.45.364,jersey_experiment_5_v0,2023.2.2,Win32,84.74576271,,,,,,,,,,,,,,,,1074.937,1076.2312,1076.2312,1080.9724,return,1.9417,,51.30208333,,,,,,FBP-YG-18.png,0.37,1.2,22,0.5,,,,,,,,,,,,,0,5,5,21,1,,,,,,,,,,,,,,,,,,,,,,,,,,,,
,,,,,SPR24_075,19,female,2024-04-22_15h55.45.364,jersey_experiment_5_v0,2023.2.2,Win32,84.74576271,,,,,,,,,,,,,,,,1080.9726,1082.0194,1082.0195,1091.0198,return,1.9667,,51.5625,,,,,,FBP-OG-71.png,0.35,1.2,1,0.25,,,,,,,,,,,,,0,6,6,0,1,,,,,,,,,,,,,,,,,,,,,,,,,,,,
,,,,,SPR24_075,19,female,2024-04-22_15h55.45.364,jersey_experiment_5_v0,2023.2.2,Win32,84.74576271,,,,,,,,,,,,,,,,1091.02,1092.0668,1092.0668,1096.281,return,2.1396,,72.39583333,,,,,,FBP-OG-81.png,0.4,1.2,8,0.25,,,,,,,,,,,,,0,7,7,7,1,,,,,,,,,,,,,,,,,,,,,,,,,,,,
,,,,,SPR24_075,19,female,2024-04-22_15h55.45.364,jersey_experiment_5_v0,2023.2.2,Win32,84.74576271,,,,,,,,,,,,,,,,1096.2812,1097.573,1097.573,1100.5495,return,0.9478,,49.73958333,,,,,,FBP-PT-18.png,0.35,1.2,51,0.5,,,,,,,,,,,,,0,8,8,50,1,,,,,,,,,,,,,,,,,,,,,,,,,,,,
,,,,,SPR24_075,19,female,2024-04-22_15h55.45.364,jersey_experiment_5_v0,2023.2.2,Win32,84.74576271,,,,,,,,,,,,,,,,1100.5496,1101.6005,1101.6005,1107.291,return,3.5423,,77.08333333,,,,,,FBP-OG-91.png,0.45,1.2,15,0.25,,,,,,,,,,,,,0,9,9,14,1,,,,,,,,,,,,,,,,,,,,,,,,,,,,
,,,,,SPR24_075,19,female,2024-04-22_15h55.45.364,jersey_experiment_5_v0,2023.2.2,Win32,84.74576271,,,,,,,,,,,,,,,,1107.2912,1108.3381,1108.3381,1111.6247,return,2.0368,,33.46354167,,,,,,FBP-OG-91.png,0.35,1.2,11,0.25,,,,,,,,,,,,,0,10,10,10,1,,,,,,,,,,,,,,,,,,,,,,,,,,,,
,,,,,SPR24_075,19,female,2024-04-22_15h55.45.364,jersey_experiment_5_v0,2023.2.2,Win32,84.74576271,,,,,,,,,,,,,,,,1111.6248,1112.9186,1112.9186,1117.9267,return,2.876,,77.47395833,,,,,,FBP-YG-19.png,0.45,1.2,30,0.5,,,,,,,,,,,,,0,11,11,29,1,,,,,,,,,,,,,,,,,,,,,,,,,,,,
,,,,,SPR24_075,19,female,2024-04-22_15h55.45.364,jersey_experiment_5_v0,2023.2.2,Win32,84.74576271,,,,,,,,,,,,,,,,1117.9269,1118.9736,1118.9737,1122.2443,return,1.2545,,49.73958333,,,,,,FBP-RB-18.png,0.37,1.2,37,0.25,,,,,,,,,,,,,0,12,12,36,1,,,,,,,,,,,,,,,,,,,,,,,,,,,,
,,,,,SPR24_075,19,female,2024-04-22_15h55.45.364,jersey_experiment_5_v0,2023.2.2,Win32,84.74576271,,,,,,,,,,,,,,,,1122.2445,1123.5386,1123.5387,1128.4682,return,0.9746,,53.125,,,,,,FBP-YG-19.png,0.37,1.2,27,0.5,,,,,,,,,,,,,0,13,13,26,1,,,,,,,,,,,,,,,,,,,,,,,,,,,,
,,,,,SPR24_075,19,female,2024-04-22_15h55.45.364,jersey_experiment_5_v0,2023.2.2,Win32,84.74576271,,,,,,,,,,,,,,,,1128.4683,1129.7623,1129.7623,1133.7564,return,2.1527,,75.13020833,,,,,,FBP-YG-17.png,0.45,1.2,20,0.5,,,,,,,,,,,,,0,14,14,19,1,,,,,,,,,,,,,,,,,,,,,,,,,,,,
,,,,,SPR24_075,19,female,2024-04-22_15h55.45.364,jersey_experiment_5_v0,2023.2.2,Win32,84.74576271,,,,,,,,,,,,,,,,1133.7565,1134.8018,1134.8018,1140.6023,return,3.799,,27.734375,,,,,,FBP-OG-81.png,0.35,1.2,6,0.25,,,,,,,,,,,,,0,15,15,5,1,,,,,,,,,,,,,,,,,,,,,,,,,,,,
,,,,,SPR24_075,19,female,2024-04-22_15h55.45.364,jersey_experiment_5_v0,2023.2.2,Win32,84.74576271,,,,,,,,,,,,,,,,1140.6024,1141.6451,1141.6452,1153.8338,return,8.4609,,71.484375,,,,,,FBP-OG-71.png,0.4,1.2,3,0.25,,,,,,,,,,,,,0,16,16,2,1,,,,,,,,,,,,,,,,,,,,,,,,,,,,
,,,,,SPR24_075,19,female,2024-04-22_15h55.45.364,jersey_experiment_5_v0,2023.2.2,Win32,84.74576271,,,,,,,,,,,,,,,,1153.8339,1154.8808,1154.8809,1161.1752,return,4.652,,77.08333333,,,,,,FBP-RB-18.png,0.45,1.2,40,0.25,,,,,,,,,,,,,0,17,17,39,1,,,,,,,,,,,,,,,,,,,,,,,,,,,,
,,,,,SPR24_075,19,female,2024-04-22_15h55.45.364,jersey_experiment_5_v0,2023.2.2,Win32,84.74576271,,,,,,,,,,,,,,,,1161.1754,1162.2224,1162.2224,1171.9934,return,7.4826,,25.26041667,,,,,,FBP-RB-19.png,0.35,1.2,41,0.25,,,,,,,,,,,,,0,18,18,40,1,,,,,,,,,,,,,,,,,,,,,,,,,,,,
,,,,,SPR24_075,19,female,2024-04-22_15h55.45.364,jersey_experiment_5_v0,2023.2.2,Win32,84.74576271,,,,,,,,,,,,,,,,1171.9935,1173.2933,1173.2934,1177.521,return,2.1175,,59.63541667,,,,,,FBP-PT-19.png,0.4,1.2,58,0.5,,,,,,,,,,,,,0,19,19,57,1,,,,,,,,,,,,,,,,,,,,,,,,,,,,
,,,,,SPR24_075,19,female,2024-04-22_15h55.45.364,jersey_experiment_5_v0,2023.2.2,Win32,84.74576271,,,,,,,,,,,,,,,,1177.5212,1178.8269,1178.827,1184.5056,return,3.873,,81.11979167,,,,,,FBP-PT-19.png,0.43,1.2,59,0.5,,,,,,,,,,,,,0,20,20,58,1,,,,,,,,,,,,,,,,,,,,,,,,,,,,
,,,,,SPR24_075,19,female,2024-04-22_15h55.45.364,jersey_experiment_5_v0,2023.2.2,Win32,84.74576271,,,,,,,,,,,,,,,,1184.5056,1185.7996,1185.7997,1190.9528,return,3.015,,47.00520833,,,,,,FBP-YG-19.png,0.35,1.2,26,0.5,,,,,,,,,,,,,0,21,21,25,1,,,,,,,,,,,,,,,,,,,,,,,,,,,,
,,,,,SPR24_075,19,female,2024-04-22_15h55.45.364,jersey_experiment_5_v0,2023.2.2,Win32,84.74576271,,,,,,,,,,,,,,,,1190.9569,1192.2528,1192.2529,1196.9647,return,2.2644,,45.3125,,,,,,FBP-YG-18.png,0.35,1.2,21,0.5,,,,,,,,,,,,,0,22,22,20,1,,,,,,,,,,,,,,,,,,,,,,,,,,,,
,,,,,SPR24_075,19,female,2024-04-22_15h55.45.364,jersey_experiment_5_v0,2023.2.2,Win32,84.74576271,,,,,,,,,,,,,,,,1196.9649,1198.2588,1198.2588,1201.4826,return,1.4249,,75,,,,,,FBP-PT-18.png,0.43,1.2,54,0.5,,,,,,,,,,,,,0,23,23,53,1,,,,,,,,,,,,,,,,,,,,,,,,,,,,
,,,,,SPR24_075,19,female,2024-04-22_15h55.45.364,jersey_experiment_5_v0,2023.2.2,Win32,84.74576271,,,,,,,,,,,,,,,,1201.4828,1202.7768,1202.7768,1206.9181,return,2.2295,,65.234375,,,,,,FBP-PT-17.png,0.35,1.2,46,0.5,,,,,,,,,,,,,0,24,24,45,1,,,,,,,,,,,,,,,,,,,,,,,,,,,,
,,,,,SPR24_075,19,female,2024-04-22_15h55.45.364,jersey_experiment_5_v0,2023.2.2,Win32,84.74576271,,,,,,,,,,,,,,,,1206.9182,1207.9652,1207.9652,1215.2241,return,4.192,,63.671875,,,,,,FBP-RB-18.png,0.35,1.2,36,0.25,,,,,,,,,,,,,0,25,25,35,1,,,,,,,,,,,,,,,,,,,,,,,,,,,,
,,,,,SPR24_075,19,female,2024-04-22_15h55.45.364,jersey_experiment_5_v0,2023.2.2,Win32,84.74576271,,,,,,,,,,,,,,,,1215.2243,1216.2713,1216.2713,1221.9816,return,3.4472,,75.78125,,,,,,FBP-RB-19.png,0.45,1.2,45,0.25,,,,,,,,,,,,,0,26,26,44,1,,,,,,,,,,,,,,,,,,,,,,,,,,,,
,,,,,SPR24_075,19,female,2024-04-22_15h55.45.364,jersey_experiment_5_v0,2023.2.2,Win32,84.74576271,,,,,,,,,,,,,,,,1221.9817,1223.0269,1223.027,1227.7364,return,2.4943,,76.04166667,,,,,,FBP-OG-81.png,0.45,1.2,10,0.25,,,,,,,,,,,,,0,27,27,9,1,,,,,,,,,,,,,,,,,,,,,,,,,,,,
,,,,,SPR24_075,19,female,2024-04-22_15h55.45.364,jersey_experiment_5_v0,2023.2.2,Win32,84.74576271,,,,,,,,,,,,,,,,1227.7366,1228.7894,1228.7895,1238.6602,return,1.8292,,65.36458333,,,,,,FBP-RB-17.png,0.4,1.2,33,0.25,,,,,,,,,,,,,0,28,28,32,1,,,,,,,,,,,,,,,,,,,,,,,,,,,,
,,,,,SPR24_075,19,female,2024-04-22_15h55.45.364,jersey_experiment_5_v0,2023.2.2,Win32,84.74576271,,,,,,,,,,,,,,,,1238.6603,1239.7073,1239.7073,1243.9134,return,1.0958,,56.90104167,,,,,,FBP-RB-18.png,0.4,1.2,38,0.25,,,,,,,,,,,,,0,29,29,37,1,,,,,,,,,,,,,,,,,,,,,,,,,,,,
,,,,,SPR24_075,19,female,2024-04-22_15h55.45.364,jersey_experiment_5_v0,2023.2.2,Win32,84.74576271,,,,,,,,,,,,,,,,1243.9135,1245.2134,1245.2135,1251.0962,return,4.0644,,40.88541667,,,,,,FBP-PT-19.png,0.35,1.2,56,0.5,,,,,,,,,,,,,0,30,30,55,1,,,,,,,,,,,,,,,,,,,,,,,,,,,,
,,,,,SPR24_075,19,female,2024-04-22_15h55.45.364,jersey_experiment_5_v0,2023.2.2,Win32,84.74576271,,,,,,,,,,,,,,,,1251.0963,1252.3903,1252.3903,1259.0141,return,4.7001,,75.26041667,,,,,,FBP-YG-18.png,0.45,1.2,25,0.5,,,,,,,,,,,,,0,31,31,24,1,,,,,,,,,,,,,,,,,,,,,,,,,,,,
,,,,,SPR24_075,19,female,2024-04-22_15h55.45.364,jersey_experiment_5_v0,2023.2.2,Win32,84.74576271,,,,,,,,,,,,,,,,1259.0142,1260.061,1260.061,1268.1907,return,4.5651,,76.43229167,,,,,,FBP-OG-71.png,0.45,1.2,5,0.25,,,,,,,,,,,,,0,32,32,4,1,,,,,,,,,,,,,,,,,,,,,,,,,,,,
,,,,,SPR24_075,19,female,2024-04-22_15h55.45.364,jersey_experiment_5_v0,2023.2.2,Win32,84.74576271,,,,,,,,,,,,,,,,1268.1909,1269.485,1269.485,1272.591,return,1.5529,,44.79166667,,,,,,FBP-PT-17.png,0.37,1.2,47,0.5,,,,,,,,,,,,,0,33,33,46,1,,,,,,,,,,,,,,,,,,,,,,,,,,,,
,,,,,SPR24_075,19,female,2024-04-22_15h55.45.364,jersey_experiment_5_v0,2023.2.2,Win32,84.74576271,,,,,,,,,,,,,,,,1272.5912,1273.885,1273.885,1276.8896,return,1.2122,,75.13020833,,,,,,FBP-YG-17.png,0.43,1.2,19,0.5,,,,,,,,,,,,,0,34,34,18,1,,,,,,,,,,,,,,,,,,,,,,,,,,,,
,,,,,SPR24_075,19,female,2024-04-22_15h55.45.364,jersey_experiment_5_v0,2023.2.2,Win32,84.74576271,,,,,,,,,,,,,,,,1276.8897,1277.9322,1277.9323,1288.0449,return,3.5906,,50.26041667,,,,,,FBP-OG-91.png,0.4,1.2,13,0.25,,,,,,,,,,,,,0,35,35,12,1,,,,,,,,,,,,,,,,,,,,,,,,,,,,
,,,,,SPR24_075,19,female,2024-04-22_15h55.45.364,jersey_experiment_5_v0,2023.2.2,Win32,84.74576271,,,,,,,,,,,,,,,,1288.045,1289.1015,1289.1015,1294.4781,return,3.8956,,49.21875,,,,,,FBP-OG-81.png,0.37,1.2,7,0.25,,,,,,,,,,,,,0,36,36,6,1,,,,,,,,,,,,,,,,,,,,,,,,,,,,
,,,,,SPR24_075,19,female,2024-04-22_15h55.45.364,jersey_experiment_5_v0,2023.2.2,Win32,84.74576271,,,,,,,,,,,,,,,,1294.4782,1295.5213,1295.5213,1299.3565,return,1.5042,,50.13020833,,,,,,FBP-RB-19.png,0.37,1.2,42,0.25,,,,,,,,,,,,,0,37,37,41,1,,,,,,,,,,,,,,,,,,,,,,,,,,,,
,,,,,SPR24_075,19,female,2024-04-22_15h55.45.364,jersey_experiment_5_v0,2023.2.2,Win32,84.74576271,,,,,,,,,,,,,,,,1299.3568,1300.4037,1300.4037,1314.8394,return,12.3695,,59.24479167,,,,,,FBP-RB-19.png,0.4,1.2,43,0.25,,,,,,,,,,,,,0,38,38,42,1,,,,,,,,,,,,,,,,,,,,,,,,,,,,
,,,,,SPR24_075,19,female,2024-04-22_15h55.45.364,jersey_experiment_5_v0,2023.2.2,Win32,84.74576271,,,,,,,,,,,,,,,,1314.8438,1316.1454,1316.1455,1322.828,return,4.9178,,50.390625,,,,,,FBP-PT-18.png,0.37,1.2,52,0.5,,,,,,,,,,,,,0,39,39,51,1,,,,,,,,,,,,,,,,,,,,,,,,,,,,
,,,,,SPR24_075,19,female,2024-04-22_15h55.45.364,jersey_experiment_5_v0,2023.2.2,Win32,84.74576271,,,,,,,,,,,,,,,,1322.8282,1324.1223,1324.1223,1334.5226,return,8.7068,,71.09375,,,,,,FBP-YG-19.png,0.4,1.2,28,0.5,,,,,,,,,,,,,0,40,40,27,1,,,,,,,,,,,,,,,,,,,,,,,,,,,,
,,,,,SPR24_075,19,female,2024-04-22_15h55.45.364,jersey_experiment_5_v0,2023.2.2,Win32,84.74576271,,,,,,,,,,,,,,,,1334.5267,1335.8345,1335.8345,1340.5699,return,3.2844,,77.47395833,,,,,,FBP-YG-18.png,0.43,1.2,24,0.5,,,,,,,,,,,,,0,41,41,23,1,,,,,,,,,,,,,,,,,,,,,,,,,,,,
,,,,,SPR24_075,19,female,2024-04-22_15h55.45.364,jersey_experiment_5_v0,2023.2.2,Win32,84.74576271,,,,,,,,,,,,,,,,1340.57,1341.8661,1341.8661,1345.1741,return,2.2117,,77.21354167,,,,,,FBP-PT-17.png,0.43,1.2,49,0.5,,,,,,,,,,,,,0,42,42,48,1,,,,,,,,,,,,,,,,,,,,,,,,,,,,
,,,,,SPR24_075,19,female,2024-04-22_15h55.45.364,jersey_experiment_5_v0,2023.2.2,Win32,84.74576271,,,,,,,,,,,,,,,,1345.1742,1346.476,1346.476,1348.7938,return,1.5295,,80.33854167,,,,,,FBP-PT-18.png,0.45,1.2,55,0.5,,,,,,,,,,,,,0,43,43,54,1,,,,,,,,,,,,,,,,,,,,,,,,,,,,
,,,,,SPR24_075,19,female,2024-04-22_15h55.45.364,jersey_experiment_5_v0,2023.2.2,Win32,84.74576271,,,,,,,,,,,,,,,,1348.7939,1349.8408,1349.8408,1353.2291,return,1.9534,,46.09375,,,,,,FBP-OG-91.png,0.37,1.2,12,0.25,,,,,,,,,,,,,0,44,44,11,1,,,,,,,,,,,,,,,,,,,,,,,,,,,,
,,,,,SPR24_075,19,female,2024-04-22_15h55.45.364,jersey_experiment_5_v0,2023.2.2,Win32,84.74576271,,,,,,,,,,,,,,,,1353.2293,1354.5233,1354.5233,1358.1587,return,2.0473,,50.52083333,,,,,,FBP-YG-18.png,0.4,1.2,23,0.5,,,,,,,,,,,,,0,45,45,22,1,,,,,,,,,,,,,,,,,,,,,,,,,,,,
,,,,,SPR24_075,19,female,2024-04-22_15h55.45.364,jersey_experiment_5_v0,2023.2.2,Win32,84.74576271,,,,,,,,,,,,,,,,1358.1589,1359.4528,1359.4528,1361.6927,return,0.8376,,50,,,,,,FBP-YG-17.png,0.37,1.2,17,0.5,,,,,,,,,,,,,0,46,46,16,1,,,,,,,,,,,,,,,,,,,,,,,,,,,,
,,,,,SPR24_075,19,female,2024-04-22_15h55.45.364,jersey_experiment_5_v0,2023.2.2,Win32,84.74576271,,,,,,,,,,,,,,,,1361.6929,1362.7354,1362.7354,1365.3708,return,0.9774,,74.34895833,,,,,,FBP-RB-18.png,0.43,1.2,39,0.25,,,,,,,,,,,,,0,47,47,38,1,,,,,,,,,,,,,,,,,,,,,,,,,,,,
,,,,,SPR24_075,19,female,2024-04-22_15h55.45.364,jersey_experiment_5_v0,2023.2.2,Win32,84.74576271,,,,,,,,,,,,,,,,1365.3709,1366.6649,1366.665,1368.7355,return,1.012,,74.34895833,,,,,,FBP-PT-17.png,0.45,1.2,50,0.5,,,,,,,,,,,,,0,48,48,49,1,,,,,,,,,,,,,,,,,,,,,,,,,,,,
,,,,,SPR24_075,19,female,2024-04-22_15h55.45.364,jersey_experiment_5_v0,2023.2.2,Win32,84.74576271,,,,,,,,,,,,,,,,1368.7357,1369.7863,1369.7864,1372.3241,return,0.9255,,50,,,,,,FBP-RB-17.png,0.37,1.2,32,0.25,,,,,,,,,,,,,0,49,49,31,1,,,,,,,,,,,,,,,,,,,,,,,,,,,,
,,,,,SPR24_075,19,female,2024-04-22_15h55.45.364,jersey_experiment_5_v0,2023.2.2,Win32,84.74576271,,,,,,,,,,,,,,,,1372.3243,1373.6181,1373.6181,1376.3239,return,0.8902,,51.171875,,,,,,FBP-YG-17.png,0.4,1.2,18,0.5,,,,,,,,,,,,,0,50,50,17,1,,,,,,,,,,,,,,,,,,,,,,,,,,,,
,,,,,SPR24_075,19,female,2024-04-22_15h55.45.364,jersey_experiment_5_v0,2023.2.2,Win32,84.74576271,,,,,,,,,,,,,,,,1376.3242,1377.3712,1377.3712,1380.3947,return,1.0949,,76.69270833,,,,,,FBP-RB-19.png,0.43,1.2,44,0.25,,,,,,,,,,,,,0,51,51,43,1,,,,,,,,,,,,,,,,,,,,,,,,,,,,
,,,,,SPR24_075,19,female,2024-04-22_15h55.45.364,jersey_experiment_5_v0,2023.2.2,Win32,84.74576271,,,,,,,,,,,,,,,,1380.3949,1381.4417,1381.4418,1385.0579,return,2.0591,,77.99479167,,,,,,FBP-OG-71.png,0.43,1.2,4,0.25,,,,,,,,,,,,,0,52,52,3,1,,,,,,,,,,,,,,,,,,,,,,,,,,,,
,,,,,SPR24_075,19,female,2024-04-22_15h55.45.364,jersey_experiment_5_v0,2023.2.2,Win32,84.74576271,,,,,,,,,,,,,,,,1385.058,1386.3597,1386.3598,1390.2112,return,2.3196,,47.52604167,,,,,,FBP-PT-19.png,0.37,1.2,57,0.5,,,,,,,,,,,,,0,53,53,56,1,,,,,,,,,,,,,,,,,,,,,,,,,,,,
,,,,,SPR24_075,19,female,2024-04-22_15h55.45.364,jersey_experiment_5_v0,2023.2.2,Win32,84.74576271,,,,,,,,,,,,,,,,1390.2114,1391.5129,1391.5129,1393.9186,return,0.8604,,75.13020833,,,,,,FBP-PT-19.png,0.45,1.2,60,0.5,,,,,,,,,,,,,0,54,54,59,1,,,,,,,,,,,,,,,,,,,,,,,,,,,,
,,,,,SPR24_075,19,female,2024-04-22_15h55.45.364,jersey_experiment_5_v0,2023.2.2,Win32,84.74576271,,,,,,,,,,,,,,,,1393.9188,1394.96,1394.96,1397.56,return,1.0841,,75.390625,,,,,,FBP-OG-91.png,0.43,1.2,14,0.25,,,,,,,,,,,,,0,55,55,13,1,,,,,,,,,,,,,,,,,,,,,,,,,,,,
,,,,,SPR24_075,19,female,2024-04-22_15h55.45.364,jersey_experiment_5_v0,2023.2.2,Win32,84.74576271,,,,,,,,,,,,,,,,1397.5602,1398.8543,1398.8543,1412.5489,return,6.1835,,62.63020833,,,,,,FBP-PT-17.png,0.4,1.2,48,0.5,,,,,,,,,,,,,0,56,56,47,1,,,,,,,,,,,,,,,,,,,,,,,,,,,,
,,,,,SPR24_075,19,female,2024-04-22_15h55.45.364,jersey_experiment_5_v0,2023.2.2,Win32,84.74576271,,,,,,,,,,,,,,,,1412.549,1413.596,1413.596,1416.3298,return,0.9396,,50,,,,,,FBP-OG-71.png,0.37,1.2,2,0.25,,,,,,,,,,,,,0,57,57,1,1,,,,,,,,,,,,,,,,,,,,,,,,,,,,
,,,,,SPR24_075,19,female,2024-04-22_15h55.45.364,jersey_experiment_5_v0,2023.2.2,Win32,84.74576271,,,,,,,,,,,,,,,,1416.33,1417.6314,1417.6314,1422.4433,return,1.4022,,69.921875,,,,,,FBP-YG-19.png,0.43,1.2,29,0.5,,,,,,,,,,,,,0,58,58,28,1,,,,,,,,,,,,,,,,,,,,,,,,,,,,
,,,,,SPR24_075,19,female,2024-04-22_15h55.45.364,jersey_experiment_5_v0,2023.2.2,Win32,84.74576271,,,,,,,,,,,,,,,,1422.4435,1423.4905,1423.4906,1429.1023,return,2.3061,,74.34895833,,,,,,FBP-OG-81.png,0.43,1.2,9,0.25,,,,,,,,,,,,,0,59,59,8,1,,,,,,,,,,,,,,,,,,,,,,,,,,,,
,,,,,SPR24_075,19,female,2024-04-22_15h55.45.364,jersey_experiment_5_v0,2023.2.2,Win32,84.74576271,,,,,,,,,,,,,,,,1429.1042,1430.3966,1430.3966,1433.7496,return,1.8512,,61.58854167,,,,,,FBP-PT-91.png,0.4,1.2,58,0.5,,,,,,,,,,,,,,,,,,0,0,0,57,1,,,,,,,,,,,,,,,,,,,,,,,
,,,,,SPR24_075,19,female,2024-04-22_15h55.45.364,jersey_experiment_5_v0,2023.2.2,Win32,84.74576271,,,,,,,,,,,,,,,,1433.7502,1434.8007,1434.8007,1440.0439,return,2.6825,,57.8125,,,,,,FBP-OG-18.png,0.4,1.2,8,0.25,,,,,,,,,,,,,,,,,,0,1,1,7,1,,,,,,,,,,,,,,,,,,,,,,,
,,,,,SPR24_075,19,female,2024-04-22_15h55.45.364,jersey_experiment_5_v0,2023.2.2,Win32,84.74576271,,,,,,,,,,,,,,,,1440.0441,1441.3382,1441.3382,1446.5307,return,2.4353,,38.80208333,,,,,,FBP-YG-91.png,0.35,1.2,26,0.5,,,,,,,,,,,,,,,,,,0,2,2,25,1,,,,,,,,,,,,,,,,,,,,,,,
,,,,,SPR24_075,19,female,2024-04-22_15h55.45.364,jersey_experiment_5_v0,2023.2.2,Win32,84.74576271,,,,,,,,,,,,,,,,1446.531,1447.8324,1447.8324,1451.2091,return,1.4845,,75,,,,,,FBP-YG-71.png,0.45,1.2,20,0.5,,,,,,,,,,,,,,,,,,0,3,3,19,1,,,,,,,,,,,,,,,,,,,,,,,
,,,,,SPR24_075,19,female,2024-04-22_15h55.45.364,jersey_experiment_5_v0,2023.2.2,Win32,84.74576271,,,,,,,,,,,,,,,,1451.2093,1452.5032,1452.5032,1458.6211,return,4.2005,,77.21354167,,,,,,FBP-YG-91.png,0.45,1.2,30,0.5,,,,,,,,,,,,,,,,,,0,4,4,29,1,,,,,,,,,,,,,,,,,,,,,,,
,,,,,SPR24_075,19,female,2024-04-22_15h55.45.364,jersey_experiment_5_v0,2023.2.2,Win32,84.74576271,,,,,,,,,,,,,,,,1458.6212,1459.9207,1459.9207,1463.9625,return,2.9656,,77.86458333,,,,,,FBP-PT-71.png,0.45,1.2,50,0.5,,,,,,,,,,,,,,,,,,0,5,5,49,1,,,,,,,,,,,,,,,,,,,,,,,
,,,,,SPR24_075,19,female,2024-04-22_15h55.45.364,jersey_experiment_5_v0,2023.2.2,Win32,84.74576271,,,,,,,,,,,,,,,,1463.9625,1465.0154,1465.0154,1470.798,return,3.2924,,24.73958333,,,,,,FBP-RB-71.png,0.35,1.2,31,0.25,,,,,,,,,,,,,,,,,,0,6,6,30,1,,,,,,,,,,,,,,,,,,,,,,,
,,,,,SPR24_075,19,female,2024-04-22_15h55.45.364,jersey_experiment_5_v0,2023.2.2,Win32,84.74576271,,,,,,,,,,,,,,,,1470.7981,1471.8452,1471.8452,1475.9158,return,1.7887,,54.03645833,,,,,,FBP-RB-71.png,0.4,1.2,33,0.25,,,,,,,,,,,,,,,,,,0,7,7,32,1,,,,,,,,,,,,,,,,,,,,,,,
,,,,,SPR24_075,19,female,2024-04-22_15h55.45.364,jersey_experiment_5_v0,2023.2.2,Win32,84.74576271,,,,,,,,,,,,,,,,1475.916,1476.9629,1476.9629,1481.669,return,3.1006,,49.73958333,,,,,,FBP-RB-71.png,0.37,1.2,32,0.25,,,,,,,,,,,,,,,,,,0,8,8,31,1,,,,,,,,,,,,,,,,,,,,,,,
,,,,,SPR24_075,19,female,2024-04-22_15h55.45.364,jersey_experiment_5_v0,2023.2.2,Win32,84.74576271,,,,,,,,,,,,,,,,1481.6692,1482.9632,1482.9632,1486.9556,return,1.8015,,74.34895833,,,,,,FBP-YG-71.png,0.43,1.2,19,0.5,,,,,,,,,,,,,,,,,,0,9,9,18,1,,,,,,,,,,,,,,,,,,,,,,,
,,,,,SPR24_075,19,female,2024-04-22_15h55.45.364,jersey_experiment_5_v0,2023.2.2,Win32,84.74576271,,,,,,,,,,,,,,,,1486.9558,1488.2614,1488.2614,1492.3752,return,1.8631,,68.48958333,,,,,,FBP-YG-81.png,0.4,1.2,23,0.5,,,,,,,,,,,,,,,,,,0,10,10,22,1,,,,,,,,,,,,,,,,,,,,,,,
,,,,,SPR24_075,19,female,2024-04-22_15h55.45.364,jersey_experiment_5_v0,2023.2.2,Win32,84.74576271,,,,,,,,,,,,,,,,1492.3754,1493.6694,1493.6694,1497.6737,return,2.6827,,82.03125,,,,,,FBP-PT-91.png,0.45,1.2,60,0.5,,,,,,,,,,,,,,,,,,0,11,11,59,1,,,,,,,,,,,,,,,,,,,,,,,
,,,,,SPR24_075,19,female,2024-04-22_15h55.45.364,jersey_experiment_5_v0,2023.2.2,Win32,84.74576271,,,,,,,,,,,,,,,,1497.6738,1498.9794,1498.9794,1514.6467,return,9.3817,,43.61979167,,,,,,FBP-PT-71.png,0.37,1.2,47,0.5,,,,,,,,,,,,,,,,,,0,12,12,46,1,,,,,,,,,,,,,,,,,,,,,,,
,,,,,SPR24_075,19,female,2024-04-22_15h55.45.364,jersey_experiment_5_v0,2023.2.2,Win32,84.74576271,,,,,,,,,,,,,,,,1514.6468,1515.6959,1515.6959,1519.3997,return,1.4528,,73.4375,,,,,,FBP-OG-19.png,0.45,1.2,15,0.25,,,,,,,,,,,,,,,,,,0,13,13,14,1,,,,,,,,,,,,,,,,,,,,,,,
,,,,,SPR24_075,19,female,2024-04-22_15h55.45.364,jersey_experiment_5_v0,2023.2.2,Win32,84.74576271,,,,,,,,,,,,,,,,1519.3999,1520.4468,1520.4468,1523.9217,return,1.9296,,73.95833333,,,,,,FBP-RB-91.png,0.4,1.2,43,0.25,,,,,,,,,,,,,,,,,,0,14,14,42,1,,,,,,,,,,,,,,,,,,,,,,,
,,,,,SPR24_075,19,female,2024-04-22_15h55.45.364,jersey_experiment_5_v0,2023.2.2,Win32,84.74576271,,,,,,,,,,,,,,,,1523.9219,1524.9645,1524.9645,1528.3882,return,2.0896,,49.08854167,,,,,,FBP-OG-19.png,0.35,1.2,11,0.25,,,,,,,,,,,,,,,,,,0,15,15,10,1,,,,,,,,,,,,,,,,,,,,,,,
,,,,,SPR24_075,19,female,2024-04-22_15h55.45.364,jersey_experiment_5_v0,2023.2.2,Win32,84.74576271,,,,,,,,,,,,,,,,1528.3884,1529.4393,1529.4394,1532.4119,return,1.2371,,76.30208333,,,,,,FBP-OG-17.png,0.43,1.2,4,0.25,,,,,,,,,,,,,,,,,,0,16,16,3,1,,,,,,,,,,,,,,,,,,,,,,,
,,,,,SPR24_075,19,female,2024-04-22_15h55.45.364,jersey_experiment_5_v0,2023.2.2,Win32,84.74576271,,,,,,,,,,,,,,,,1532.4122,1533.4631,1533.4631,1537.1103,return,1.1646,,35.546875,,,,,,FBP-RB-91.png,0.37,1.2,42,0.25,,,,,,,,,,,,,,,,,,0,17,17,41,1,,,,,,,,,,,,,,,,,,,,,,,
,,,,,SPR24_075,19,female,2024-04-22_15h55.45.364,jersey_experiment_5_v0,2023.2.2,Win32,84.74576271,,,,,,,,,,,,,,,,1537.1105,1538.4121,1538.4122,1543.4046,return,3.0592,,54.16666667,,,,,,FBP-PT-91.png,0.37,1.2,57,0.5,,,,,,,,,,,,,,,,,,0,18,18,56,1,,,,,,,,,,,,,,,,,,,,,,,
,,,,,SPR24_075,19,female,2024-04-22_15h55.45.364,jersey_experiment_5_v0,2023.2.2,Win32,84.74576271,,,,,,,,,,,,,,,,1543.4048,1544.7066,1544.7066,1550.5068,return,4.0123,,76.171875,,,,,,FBP-PT-81.png,0.45,1.2,55,0.5,,,,,,,,,,,,,,,,,,0,19,19,54,1,,,,,,,,,,,,,,,,,,,,,,,
,,,,,SPR24_075,19,female,2024-04-22_15h55.45.364,jersey_experiment_5_v0,2023.2.2,Win32,84.74576271,,,,,,,,,,,,,,,,1550.5069,1551.5596,1551.5597,1554.0245,return,1.0967,,76.171875,,,,,,FBP-OG-18.png,0.45,1.2,10,0.25,,,,,,,,,,,,,,,,,,0,20,20,9,1,,,,,,,,,,,,,,,,,,,,,,,
,,,,,SPR24_075,19,female,2024-04-22_15h55.45.364,jersey_experiment_5_v0,2023.2.2,Win32,84.74576271,,,,,,,,,,,,,,,,1554.0248,1555.3187,1555.3188,1557.7657,return,1.0625,,76.171875,,,,,,FBP-YG-91.png,0.43,1.2,29,0.5,,,,,,,,,,,,,,,,,,0,21,21,28,1,,,,,,,,,,,,,,,,,,,,,,,
,,,,,SPR24_075,19,female,2024-04-22_15h55.45.364,jersey_experiment_5_v0,2023.2.2,Win32,84.74576271,,,,,,,,,,,,,,,,1557.7659,1559.0601,1559.0601,1563.6836,return,2.9588,,73.046875,,,,,,FBP-PT-81.png,0.4,1.2,53,0.5,,,,,,,,,,,,,,,,,,0,22,22,52,1,,,,,,,,,,,,,,,,,,,,,,,
,,,,,SPR24_075,19,female,2024-04-22_15h55.45.364,jersey_experiment_5_v0,2023.2.2,Win32,84.74576271,,,,,,,,,,,,,,,,1563.6837,1564.7308,1564.7308,1567.8133,return,1.2767,,81.640625,,,,,,FBP-RB-81.png,0.43,1.2,39,0.25,,,,,,,,,,,,,,,,,,0,23,23,38,1,,,,,,,,,,,,,,,,,,,,,,,
,,,,,SPR24_075,19,female,2024-04-22_15h55.45.364,jersey_experiment_5_v0,2023.2.2,Win32,84.74576271,,,,,,,,,,,,,,,,1567.8134,1568.8603,1568.8604,1572.3193,return,1.6232,,77.47395833,,,,,,FBP-OG-19.png,0.43,1.2,14,0.25,,,,,,,,,,,,,,,,,,0,24,24,13,1,,,,,,,,,,,,,,,,,,,,,,,
,,,,,SPR24_075,19,female,2024-04-22_15h55.45.364,jersey_experiment_5_v0,2023.2.2,Win32,84.74576271,,,,,,,,,,,,,,,,1572.3194,1573.6134,1573.6134,1578.6766,return,1.3631,,51.69270833,,,,,,FBP-YG-71.png,0.37,1.2,17,0.5,,,,,,,,,,,,,,,,,,0,25,25,16,1,,,,,,,,,,,,,,,,,,,,,,,
,,,,,SPR24_075,19,female,2024-04-22_15h55.45.364,jersey_experiment_5_v0,2023.2.2,Win32,84.74576271,,,,,,,,,,,,,,,,1578.6767,1579.7196,1579.7196,1582.8296,return,1.0708,,74.73958333,,,,,,FBP-RB-71.png,0.43,1.2,34,0.25,,,,,,,,,,,,,,,,,,0,26,26,33,1,,,,,,,,,,,,,,,,,,,,,,,
,,,,,SPR24_075,19,female,2024-04-22_15h55.45.364,jersey_experiment_5_v0,2023.2.2,Win32,84.74576271,,,,,,,,,,,,,,,,1582.8298,1584.1236,1584.1236,1589.7082,return,2.4105,,50.13020833,,,,,,FBP-PT-81.png,0.37,1.2,52,0.5,,,,,,,,,,,,,,,,,,0,27,27,51,1,,,,,,,,,,,,,,,,,,,,,,,
,,,,,SPR24_075,19,female,2024-04-22_15h55.45.364,jersey_experiment_5_v0,2023.2.2,Win32,84.74576271,,,,,,,,,,,,,,,,1589.7083,1590.7553,1590.7553,1593.3713,return,0.8473,,75.26041667,,,,,,FBP-RB-91.png,0.45,1.2,45,0.25,,,,,,,,,,,,,,,,,,0,28,28,44,1,,,,,,,,,,,,,,,,,,,,,,,
,,,,,SPR24_075,19,female,2024-04-22_15h55.45.364,jersey_experiment_5_v0,2023.2.2,Win32,84.74576271,,,,,,,,,,,,,,,,1593.3714,1594.4142,1594.4142,1596.9202,return,1.0737,,79.81770833,,,,,,FBP-OG-17.png,0.45,1.2,5,0.25,,,,,,,,,,,,,,,,,,0,29,29,4,1,,,,,,,,,,,,,,,,,,,,,,,
,,,,,SPR24_075,19,female,2024-04-22_15h55.45.364,jersey_experiment_5_v0,2023.2.2,Win32,84.74576271,,,,,,,,,,,,,,,,1596.9203,1598.2144,1598.2144,1601.0654,return,0.9292,,75.65104167,,,,,,FBP-YG-91.png,0.4,1.2,28,0.5,,,,,,,,,,,,,,,,,,0,30,30,27,1,,,,,,,,,,,,,,,,,,,,,,,
,,,,,SPR24_075,19,female,2024-04-22_15h55.45.364,jersey_experiment_5_v0,2023.2.2,Win32,84.74576271,,,,,,,,,,,,,,,,1601.0656,1602.114,1602.114,1604.238,return,1.0607,,75.65104167,,,,,,FBP-OG-18.png,0.43,1.2,9,0.25,,,,,,,,,,,,,,,,,,0,31,31,8,1,,,,,,,,,,,,,,,,,,,,,,,
,,,,,SPR24_075,19,female,2024-04-22_15h55.45.364,jersey_experiment_5_v0,2023.2.2,Win32,84.74576271,,,,,,,,,,,,,,,,1604.2381,1605.2852,1605.2852,1609.1323,return,1.2139,,50.52083333,,,,,,FBP-OG-17.png,0.37,1.2,2,0.25,,,,,,,,,,,,,,,,,,0,32,32,1,1,,,,,,,,,,,,,,,,,,,,,,,
,,,,,SPR24_075,19,female,2024-04-22_15h55.45.364,jersey_experiment_5_v0,2023.2.2,Win32,84.74576271,,,,,,,,,,,,,,,,1609.1325,1610.4265,1610.4266,1613.219,return,1.0823,,33.984375,,,,,,FBP-PT-71.png,0.35,1.2,46,0.5,,,,,,,,,,,,,,,,,,0,33,33,45,1,,,,,,,,,,,,,,,,,,,,,,,
,,,,,SPR24_075,19,female,2024-04-22_15h55.45.364,jersey_experiment_5_v0,2023.2.2,Win32,84.74576271,,,,,,,,,,,,,,,,1613.2191,1614.2621,1614.2621,1616.5561,return,0.9428,,75.13020833,,,,,,FBP-RB-91.png,0.43,1.2,44,0.25,,,,,,,,,,,,,,,,,,0,34,34,43,1,,,,,,,,,,,,,,,,,,,,,,,
,,,,,SPR24_075,19,female,2024-04-22_15h55.45.364,jersey_experiment_5_v0,2023.2.2,Win32,84.74576271,,,,,,,,,,,,,,,,1616.5563,1617.8542,1617.8542,1619.9563,return,0.7598,,75,,,,,,FBP-PT-81.png,0.43,1.2,54,0.5,,,,,,,,,,,,,,,,,,0,35,35,53,1,,,,,,,,,,,,,,,,,,,,,,,
,,,,,SPR24_075,19,female,2024-04-22_15h55.45.364,jersey_experiment_5_v0,2023.2.2,Win32,84.74576271,,,,,,,,,,,,,,,,1619.9564,1621.0033,1621.0033,1625.1447,return,1.0263,,38.80208333,,,,,,FBP-OG-19.png,0.37,1.2,12,0.25,,,,,,,,,,,,,,,,,,0,36,36,11,1,,,,,,,,,,,,,,,,,,,,,,,
,,,,,SPR24_075,19,female,2024-04-22_15h55.45.364,jersey_experiment_5_v0,2023.2.2,Win32,84.74576271,,,,,,,,,,,,,,,,1625.1448,1626.1918,1626.1919,1629.0155,return,1.12,,79.6875,,,,,,FBP-RB-81.png,0.45,1.2,40,0.25,,,,,,,,,,,,,,,,,,0,37,37,39,1,,,,,,,,,,,,,,,,,,,,,,,
,,,,,SPR24_075,19,female,2024-04-22_15h55.45.364,jersey_experiment_5_v0,2023.2.2,Win32,84.74576271,,,,,,,,,,,,,,,,1629.0157,1630.065,1630.065,1636.557,return,5.6709,,79.296875,,,,,,FBP-RB-71.png,0.45,1.2,35,0.25,,,,,,,,,,,,,,,,,,0,38,38,34,1,,,,,,,,,,,,,,,,,,,,,,,
,,,,,SPR24_075,19,female,2024-04-22_15h55.45.364,jersey_experiment_5_v0,2023.2.2,Win32,84.74576271,,,,,,,,,,,,,,,,1636.5572,1637.6039,1637.6039,1640.5123,return,0.9515,,24.73958333,,,,,,FBP-RB-81.png,0.35,1.2,36,0.25,,,,,,,,,,,,,,,,,,0,39,39,35,1,,,,,,,,,,,,,,,,,,,,,,,
,,,,,SPR24_075,19,female,2024-04-22_15h55.45.364,jersey_experiment_5_v0,2023.2.2,Win32,84.74576271,,,,,,,,,,,,,,,,1640.5124,1641.8041,1641.8042,1645.4277,return,1.3131,,75,,,,,,FBP-PT-91.png,0.43,1.2,59,0.5,,,,,,,,,,,,,,,,,,0,40,40,58,1,,,,,,,,,,,,,,,,,,,,,,,
,,,,,SPR24_075,19,female,2024-04-22_15h55.45.364,jersey_experiment_5_v0,2023.2.2,Win32,84.74576271,,,,,,,,,,,,,,,,1645.4278,1646.7279,1646.728,1650.5143,return,2.518,,70.57291667,,,,,,FBP-YG-71.png,0.4,1.2,18,0.5,,,,,,,,,,,,,,,,,,0,41,41,17,1,,,,,,,,,,,,,,,,,,,,,,,
,,,,,SPR24_075,19,female,2024-04-22_15h55.45.364,jersey_experiment_5_v0,2023.2.2,Win32,84.74576271,,,,,,,,,,,,,,,,1650.5145,1651.8163,1651.8163,1654.2517,return,1.0963,,76.69270833,,,,,,FBP-YG-81.png,0.45,1.2,25,0.5,,,,,,,,,,,,,,,,,,0,42,42,24,1,,,,,,,,,,,,,,,,,,,,,,,
,,,,,SPR24_075,19,female,2024-04-22_15h55.45.364,jersey_experiment_5_v0,2023.2.2,Win32,84.74576271,,,,,,,,,,,,,,,,1654.2518,1655.2988,1655.2988,1661.3696,return,2.3667,,57.03125,,,,,,FBP-OG-17.png,0.4,1.2,3,0.25,,,,,,,,,,,,,,,,,,0,43,43,2,1,,,,,,,,,,,,,,,,,,,,,,,
,,,,,SPR24_075,19,female,2024-04-22_15h55.45.364,jersey_experiment_5_v0,2023.2.2,Win32,84.74576271,,,,,,,,,,,,,,,,1661.3697,1662.4167,1662.4167,1667.6404,return,2.1186,,57.8125,,,,,,FBP-OG-18.png,0.37,1.2,7,0.25,,,,,,,,,,,,,,,,,,0,44,44,6,1,,,,,,,,,,,,,,,,,,,,,,,
,,,,,SPR24_075,19,female,2024-04-22_15h55.45.364,jersey_experiment_5_v0,2023.2.2,Win32,84.74576271,,,,,,,,,,,,,,,,1667.6405,1668.9345,1668.9346,1675.3583,return,3.4827,,62.109375,,,,,,FBP-YG-81.png,0.37,1.2,22,0.5,,,,,,,,,,,,,,,,,,0,45,45,21,1,,,,,,,,,,,,,,,,,,,,,,,
,,,,,SPR24_075,19,female,2024-04-22_15h55.45.364,jersey_experiment_5_v0,2023.2.2,Win32,84.74576271,,,,,,,,,,,,,,,,1675.3584,1676.6525,1676.6525,1680.8878,return,2.4855,,37.36979167,,,,,,FBP-PT-91.png,0.35,1.2,56,0.5,,,,,,,,,,,,,,,,,,0,46,46,55,1,,,,,,,,,,,,,,,,,,,,,,,
,,,,,SPR24_075,19,female,2024-04-22_15h55.45.364,jersey_experiment_5_v0,2023.2.2,Win32,84.74576271,,,,,,,,,,,,,,,,1680.888,1681.9523,1681.9524,1685.3822,return,0.9444,,49.86979167,,,,,,FBP-OG-19.png,0.4,1.2,13,0.25,,,,,,,,,,,,,,,,,,0,47,47,12,1,,,,,,,,,,,,,,,,,,,,,,,
,,,,,SPR24_075,19,female,2024-04-22_15h55.45.364,jersey_experiment_5_v0,2023.2.2,Win32,84.74576271,,,,,,,,,,,,,,,,1685.3823,1686.6822,1686.6822,1693.0059,return,3.9061,,35.02604167,,,,,,FBP-YG-71.png,0.35,1.2,16,0.5,,,,,,,,,,,,,,,,,,0,48,48,15,1,,,,,,,,,,,,,,,,,,,,,,,
,,,,,SPR24_075,19,female,2024-04-22_15h55.45.364,jersey_experiment_5_v0,2023.2.2,Win32,84.74576271,,,,,,,,,,,,,,,,1693.01,1694.3117,1694.3118,1706.4418,return,2.9427,,45.57291667,,,,,,FBP-PT-71.png,0.4,1.2,48,0.5,,,,,,,,,,,,,,,,,,0,49,49,47,1,,,,,,,,,,,,,,,,,,,,,,,
,,,,,SPR24_075,19,female,2024-04-22_15h55.45.364,jersey_experiment_5_v0,2023.2.2,Win32,84.74576271,,,,,,,,,,,,,,,,1706.4419,1707.7359,1707.7359,1710.23,return,1.0287,,37.109375,,,,,,FBP-YG-81.png,0.35,1.2,21,0.5,,,,,,,,,,,,,,,,,,0,50,50,20,1,,,,,,,,,,,,,,,,,,,,,,,
,,,,,SPR24_075,19,female,2024-04-22_15h55.45.364,jersey_experiment_5_v0,2023.2.2,Win32,84.74576271,,,,,,,,,,,,,,,,1710.2301,1711.2772,1711.2773,1716.4539,return,2.629,,38.41145833,,,,,,FBP-RB-91.png,0.35,1.2,41,0.25,,,,,,,,,,,,,,,,,,0,51,51,40,1,,,,,,,,,,,,,,,,,,,,,,,
,,,,,SPR24_075,19,female,2024-04-22_15h55.45.364,jersey_experiment_5_v0,2023.2.2,Win32,84.74576271,,,,,,,,,,,,,,,,1716.454,1717.5068,1717.5068,1720.7287,return,0.7865,,70.3125,,,,,,FBP-RB-81.png,0.4,1.2,38,0.25,,,,,,,,,,,,,,,,,,0,52,52,37,1,,,,,,,,,,,,,,,,,,,,,,,
,,,,,SPR24_075,19,female,2024-04-22_15h55.45.364,jersey_experiment_5_v0,2023.2.2,Win32,84.74576271,,,,,,,,,,,,,,,,1720.7288,1721.7717,1721.7717,1725.5012,return,2.2943,,38.15104167,,,,,,FBP-OG-17.png,0.35,1.2,1,0.25,,,,,,,,,,,,,,,,,,0,53,53,0,1,,,,,,,,,,,,,,,,,,,,,,,
,,,,,SPR24_075,19,female,2024-04-22_15h55.45.364,jersey_experiment_5_v0,2023.2.2,Win32,84.74576271,,,,,,,,,,,,,,,,1725.5014,1726.7954,1726.7954,1732.7133,return,4.3549,,40.625,,,,,,FBP-PT-81.png,0.35,1.2,51,0.5,,,,,,,,,,,,,,,,,,0,54,54,50,1,,,,,,,,,,,,,,,,,,,,,,,
,,,,,SPR24_075,19,female,2024-04-22_15h55.45.364,jersey_experiment_5_v0,2023.2.2,Win32,84.74576271,,,,,,,,,,,,,,,,1732.7134,1733.7604,1733.7604,1740.9018,return,2.8291,,42.31770833,,,,,,FBP-OG-18.png,0.35,1.2,6,0.25,,,,,,,,,,,,,,,,,,0,55,55,5,1,,,,,,,,,,,,,,,,,,,,,,,
,,,,,SPR24_075,19,female,2024-04-22_15h55.45.364,jersey_experiment_5_v0,2023.2.2,Win32,84.74576271,,,,,,,,,,,,,,,,1740.902,1742.1959,1742.1959,1748.9257,return,3.8697,,45.57291667,,,,,,FBP-YG-91.png,0.37,1.2,27,0.5,,,,,,,,,,,,,,,,,,0,56,56,26,1,,,,,,,,,,,,,,,,,,,,,,,
,,,,,SPR24_075,19,female,2024-04-22_15h55.45.364,jersey_experiment_5_v0,2023.2.2,Win32,84.74576271,,,,,,,,,,,,,,,,1748.926,1749.9727,1749.9728,1759.9731,return,6.1395,,41.796875,,,,,,FBP-RB-81.png,0.37,1.2,37,0.25,,,,,,,,,,,,,,,,,,0,57,57,36,1,,,,,,,,,,,,,,,,,,,,,,,
,,,,,SPR24_075,19,female,2024-04-22_15h55.45.364,jersey_experiment_5_v0,2023.2.2,Win32,84.74576271,,,,,,,,,,,,,,,,1759.9772,1761.279,1761.279,1766.9732,return,4.0591,,76.953125,,,,,,FBP-PT-71.png,0.43,1.2,49,0.5,,,,,,,,,,,,,,,,,,0,58,58,48,1,,,,,,,,,,,,,,,,,,,,,,,
,,,,,SPR24_075,19,female,2024-04-22_15h55.45.364,jersey_experiment_5_v0,2023.2.2,Win32,84.74576271,,,,,,,,,,,,,,,,1766.9733,1768.2713,1768.2714,1771.9187,return,2.294,,78.25520833,,,,,,FBP-YG-81.png,0.43,1.2,24,0.5,,,,,,,,,,,,,,,,,,0,59,59,23,1,,,,,,,,,,,,,,,,,,,,,,,
,,,,,SPR24_075,19,female,2024-04-22_15h55.45.364,jersey_experiment_5_v0,2023.2.2,Win32,84.74576271,,,,,,,,,,,,,,,,,,,,,,,,,,,,,,,,,,,,,,,,,,,,,,,,,,,,,,,,1771.919,1784.5976,return,12.6646,,,,,,,,,,,,,,,,,,,
,,,,,SPR24_075,19,female,2024-04-22_15h55.45.364,jersey_experiment_5_v0,2023.2.2,Win32,84.74576271,,,,,,,,,,,,,,,,,,,,,,,,,,,,,,,,,,,,,,,,,,,,,,,,,,,,,,,,,,,,,1784.5977,1792.5743,1,6.2587,return,1.6804,,,,,,,,,,,,
,,,,,SPR24_075,19,female,2024-04-22_15h55.45.364,jersey_experiment_5_v0,2023.2.2,Win32,84.74576271,,,,,,,,,,,,,,,,,,,,,,,,,,,,,,,,,,,,,,,,,,,,,,,,,,,,,,,,,,,,,,,,,,,,1792.5744,1880.8763,"I am not sure, but there was white and brown player. It could have to do with race?",right,64.0506,,,,,,
,,,,,SPR24_075,19,female,2024-04-22_15h55.45.364,jersey_experiment_5_v0,2023.2.2,Win32,84.74576271,,,,,,,,,,,,,,,,,,,,,,,,,,,,,,,,,,,,,,,,,,,,,,,,,,,,,,,,,,,,,,,,,,,,,,,,,,1880.8764,1890.9661,return,10.0775,