requirements.started,requirements.stopped,key_resp_3.keys,key_resp_3.rt,key_resp_3.duration,Subject ID,Age,Gender,date,expName,psychopyVersion,OS,frameRate,instructions1.started,instructions1.stopped,key_resp.keys,key_resp.rt,key_resp.duration,example.started,example.stopped,enter_2.keys,enter_2.rt,enter_2.duration,instructions2.started,instructions2.stopped,enter_3.keys,enter_3.rt,enter_3.duration,image.started,image.stopped,slider_2.started,slider_2.stopped,next.keys,next.rt,next.duration,slider.response,trial_block_1.thisRepN,trial_block_1.thisTrialN,trial_block_1.thisN,trial_block_1.thisIndex,trial_block_1.ran,Path,Width,Height,Index,Duration,trial_block_2.thisRepN,trial_block_2.thisTrialN,trial_block_2.thisN,trial_block_2.thisIndex,trial_block_2.ran,rest_break.started,rest_break.stopped,end_break.started,end_break.stopped,key_resp_5.keys,key_resp_5.rt,key_resp_5.duration,trial_block_3.thisRepN,trial_block_3.thisTrialN,trial_block_3.thisN,trial_block_3.thisIndex,trial_block_3.ran,trial_block_4.thisRepN,trial_block_4.thisTrialN,trial_block_4.thisN,trial_block_4.thisIndex,trial_block_4.ran,questions_intro.started,questions_intro.stopped,enter_12.keys,enter_12.rt,enter_12.duration,question2.started,question2.stopped,question_doingbest.response,question_doingbest.rt,enter_15.keys,enter_15.rt,enter_15.duration,pattern.started,pattern.stopped,pattern_2.text,enter_17.keys,enter_17.rt,enter_17.duration,thankyou.started,thankyou.stopped,enter_14.keys,enter_14.rt,enter_14.duration
0.0002,6.5564,return,6.5518,,SPR24_020,19,female,2024-04-09_15h03.53.670,jersey_experiment_5_v0,2023.2.2,Win32,85.47008547,,,,,,,,,,,,,,,,,,,,,,,,,,,,,,,,,,,,,,,,,,,,,,,,,,,,,,,,,,,,,,,,,,,,,,,,,,,,,,
,,,,,SPR24_020,19,female,2024-04-09_15h03.53.670,jersey_experiment_5_v0,2023.2.2,Win32,85.47008547,6.5564,12.7675,return,6.2014,,,,,,,,,,,,,,,,,,,,,,,,,,,,,,,,,,,,,,,,,,,,,,,,,,,,,,,,,,,,,,,,,,,,,,,,,,
,,,,,SPR24_020,19,female,2024-04-09_15h03.53.670,jersey_experiment_5_v0,2023.2.2,Win32,85.47008547,,,,,,12.7675,16.01,return,3.2119,,,,,,,,,,,,,,,,,,,,,,,,,,,,,,,,,,,,,,,,,,,,,,,,,,,,,,,,,,,,,,,,,,,,,
,,,,,SPR24_020,19,female,2024-04-09_15h03.53.670,jersey_experiment_5_v0,2023.2.2,Win32,85.47008547,,,,,,,,,,,16.0102,39.8582,return,23.8358,,,,,,,,,,,,,,,,,,,,,,,,,,,,,,,,,,,,,,,,,,,,,,,,,,,,,,,,,,,,,,,,
,,,,,SPR24_020,19,female,2024-04-09_15h03.53.670,jersey_experiment_5_v0,2023.2.2,Win32,85.47008547,,,,,,,,,,,,,,,,39.8643,41.1636,41.1637,53.3406,return,2.2975,,24.73958333,0,0,0,41,1,FBP-RB-19.png,0.37,1.2,42,0.5,,,,,,,,,,,,,,,,,,,,,,,,,,,,,,,,,,,,,,,,,,,,,
,,,,,SPR24_020,19,female,2024-04-09_15h03.53.670,jersey_experiment_5_v0,2023.2.2,Win32,85.47008547,,,,,,,,,,,,,,,,53.341,54.635,54.635,58.6703,return,1.4472,,74.86979167,0,1,1,14,1,FBP-OG-91.png,0.45,1.2,15,0.5,,,,,,,,,,,,,,,,,,,,,,,,,,,,,,,,,,,,,,,,,,,,,
,,,,,SPR24_020,19,female,2024-04-09_15h03.53.670,jersey_experiment_5_v0,2023.2.2,Win32,85.47008547,,,,,,,,,,,,,,,,58.6705,59.7174,59.7174,73.0356,return,1.3208,,0.520833333,0,2,2,20,1,FBP-YG-18.png,0.35,1.2,21,0.25,,,,,,,,,,,,,,,,,,,,,,,,,,,,,,,,,,,,,,,,,,,,,
,,,,,SPR24_020,19,female,2024-04-09_15h03.53.670,jersey_experiment_5_v0,2023.2.2,Win32,85.47008547,,,,,,,,,,,,,,,,73.0358,74.0826,74.0827,77.5534,return,1.0122,,49.73958333,0,3,3,28,1,FBP-YG-19.png,0.43,1.2,29,0.25,,,,,,,,,,,,,,,,,,,,,,,,,,,,,,,,,,,,,,,,,,,,,
,,,,,SPR24_020,19,female,2024-04-09_15h03.53.670,jersey_experiment_5_v0,2023.2.2,Win32,85.47008547,,,,,,,,,,,,,,,,77.5537,78.8477,78.8478,81.6594,return,1.0397,,50,0,4,4,33,1,FBP-RB-17.png,0.43,1.2,34,0.5,,,,,,,,,,,,,,,,,,,,,,,,,,,,,,,,,,,,,,,,,,,,,
,,,,,SPR24_020,19,female,2024-04-09_15h03.53.670,jersey_experiment_5_v0,2023.2.2,Win32,85.47008547,,,,,,,,,,,,,,,,81.6597,82.9535,82.9536,85.9537,return,1.1773,,74.73958333,0,5,5,9,1,FBP-OG-81.png,0.45,1.2,10,0.5,,,,,,,,,,,,,,,,,,,,,,,,,,,,,,,,,,,,,,,,,,,,,
,,,,,SPR24_020,19,female,2024-04-09_15h03.53.670,jersey_experiment_5_v0,2023.2.2,Win32,85.47008547,,,,,,,,,,,,,,,,85.9539,87.248,87.2481,89.8244,return,1.0357,,74.86979167,0,6,6,44,1,FBP-RB-19.png,0.45,1.2,45,0.5,,,,,,,,,,,,,,,,,,,,,,,,,,,,,,,,,,,,,,,,,,,,,
,,,,,SPR24_020,19,female,2024-04-09_15h03.53.670,jersey_experiment_5_v0,2023.2.2,Win32,85.47008547,,,,,,,,,,,,,,,,89.8246,90.8716,90.8716,94.5304,return,1.0589,,0.260416667,0,7,7,50,1,FBP-PT-18.png,0.35,1.2,51,0.25,,,,,,,,,,,,,,,,,,,,,,,,,,,,,,,,,,,,,,,,,,,,,
,,,,,SPR24_020,19,female,2024-04-09_15h03.53.670,jersey_experiment_5_v0,2023.2.2,Win32,85.47008547,,,,,,,,,,,,,,,,94.5306,95.5775,95.5776,99.6954,return,0.9786,,74.86979167,0,8,8,29,1,FBP-YG-19.png,0.45,1.2,30,0.25,,,,,,,,,,,,,,,,,,,,,,,,,,,,,,,,,,,,,,,,,,,,,
,,,,,SPR24_020,19,female,2024-04-09_15h03.53.670,jersey_experiment_5_v0,2023.2.2,Win32,85.47008547,,,,,,,,,,,,,,,,99.6955,100.9896,100.9897,103.566,return,0.8958,,25,0,9,9,6,1,FBP-OG-81.png,0.37,1.2,7,0.5,,,,,,,,,,,,,,,,,,,,,,,,,,,,,,,,,,,,,,,,,,,,,
,,,,,SPR24_020,19,female,2024-04-09_15h03.53.670,jersey_experiment_5_v0,2023.2.2,Win32,85.47008547,,,,,,,,,,,,,,,,103.5662,104.8603,104.8603,111.1311,return,0.8973,,49.609375,0,10,10,43,1,FBP-RB-19.png,0.43,1.2,44,0.5,,,,,,,,,,,,,,,,,,,,,,,,,,,,,,,,,,,,,,,,,,,,,
,,,,,SPR24_020,19,female,2024-04-09_15h03.53.670,jersey_experiment_5_v0,2023.2.2,Win32,85.47008547,,,,,,,,,,,,,,,,111.1313,112.1782,112.1782,120.0609,return,0.649,,37.890625,0,11,11,51,1,FBP-PT-18.png,0.37,1.2,52,0.25,,,,,,,,,,,,,,,,,,,,,,,,,,,,,,,,,,,,,,,,,,,,,
,,,,,SPR24_020,19,female,2024-04-09_15h03.53.670,jersey_experiment_5_v0,2023.2.2,Win32,85.47008547,,,,,,,,,,,,,,,,120.061,121.355,121.355,126.5787,return,0.5972,,63.02083333,0,12,12,38,1,FBP-RB-18.png,0.43,1.2,39,0.5,,,,,,,,,,,,,,,,,,,,,,,,,,,,,,,,,,,,,,,,,,,,,
,,,,,SPR24_020,19,female,2024-04-09_15h03.53.670,jersey_experiment_5_v0,2023.2.2,Win32,85.47008547,,,,,,,,,,,,,,,,126.5788,127.6259,127.6259,130.3436,return,1.4436,,24.86979167,0,13,13,21,1,FBP-YG-18.png,0.37,1.2,22,0.25,,,,,,,,,,,,,,,,,,,,,,,,,,,,,,,,,,,,,,,,,,,,,
,,,,,SPR24_020,19,female,2024-04-09_15h03.53.670,jersey_experiment_5_v0,2023.2.2,Win32,85.47008547,,,,,,,,,,,,,,,,130.3438,131.6378,131.6378,134.3202,return,1.0352,,49.86979167,0,14,14,42,1,FBP-RB-19.png,0.4,1.2,43,0.5,,,,,,,,,,,,,,,,,,,,,,,,,,,,,,,,,,,,,,,,,,,,,
,,,,,SPR24_020,19,female,2024-04-09_15h03.53.670,jersey_experiment_5_v0,2023.2.2,Win32,85.47008547,,,,,,,,,,,,,,,,134.3203,135.3673,135.3674,139.0732,return,0.6591,,38.15104167,0,15,15,26,1,FBP-YG-19.png,0.37,1.2,27,0.25,,,,,,,,,,,,,,,,,,,,,,,,,,,,,,,,,,,,,,,,,,,,,
,,,,,SPR24_020,19,female,2024-04-09_15h03.53.670,jersey_experiment_5_v0,2023.2.2,Win32,85.47008547,,,,,,,,,,,,,,,,139.0735,140.3674,140.3674,143.85,return,0.7684,,61.71875,0,16,16,7,1,FBP-OG-81.png,0.4,1.2,8,0.5,,,,,,,,,,,,,,,,,,,,,,,,,,,,,,,,,,,,,,,,,,,,,
,,,,,SPR24_020,19,female,2024-04-09_15h03.53.670,jersey_experiment_5_v0,2023.2.2,Win32,85.47008547,,,,,,,,,,,,,,,,143.8503,144.897,144.8971,147.7089,return,0.7881,,74.73958333,0,17,17,19,1,FBP-YG-17.png,0.45,1.2,20,0.25,,,,,,,,,,,,,,,,,,,,,,,,,,,,,,,,,,,,,,,,,,,,,
,,,,,SPR24_020,19,female,2024-04-09_15h03.53.670,jersey_experiment_5_v0,2023.2.2,Win32,85.47008547,,,,,,,,,,,,,,,,147.7091,148.7561,148.7561,153.8974,return,0.699,,74.73958333,0,18,18,24,1,FBP-YG-18.png,0.45,1.2,25,0.25,,,,,,,,,,,,,,,,,,,,,,,,,,,,,,,,,,,,,,,,,,,,,
,,,,,SPR24_020,19,female,2024-04-09_15h03.53.670,jersey_experiment_5_v0,2023.2.2,Win32,85.47008547,,,,,,,,,,,,,,,,153.8977,154.9444,154.9445,157.2742,return,0.6998,,49.73958333,0,19,19,57,1,FBP-PT-19.png,0.4,1.2,58,0.25,,,,,,,,,,,,,,,,,,,,,,,,,,,,,,,,,,,,,,,,,,,,,
,,,,,SPR24_020,19,female,2024-04-09_15h03.53.670,jersey_experiment_5_v0,2023.2.2,Win32,85.47008547,,,,,,,,,,,,,,,,157.2744,158.5682,158.5683,160.7799,return,0.698,,49.86979167,0,20,20,32,1,FBP-RB-17.png,0.4,1.2,33,0.5,,,,,,,,,,,,,,,,,,,,,,,,,,,,,,,,,,,,,,,,,,,,,
,,,,,SPR24_020,19,female,2024-04-09_15h03.53.670,jersey_experiment_5_v0,2023.2.2,Win32,85.47008547,,,,,,,,,,,,,,,,160.7801,161.8271,161.8271,165.1331,return,0.6735,,49.609375,0,21,21,56,1,FBP-PT-19.png,0.37,1.2,57,0.25,,,,,,,,,,,,,,,,,,,,,,,,,,,,,,,,,,,,,,,,,,,,,
,,,,,SPR24_020,19,female,2024-04-09_15h03.53.670,jersey_experiment_5_v0,2023.2.2,Win32,85.47008547,,,,,,,,,,,,,,,,165.1333,166.1802,166.1803,171.5452,return,0.9009,,24.86979167,0,22,22,46,1,FBP-PT-17.png,0.37,1.2,47,0.25,,,,,,,,,,,,,,,,,,,,,,,,,,,,,,,,,,,,,,,,,,,,,
,,,,,SPR24_020,19,female,2024-04-09_15h03.53.670,jersey_experiment_5_v0,2023.2.2,Win32,85.47008547,,,,,,,,,,,,,,,,171.5454,172.8392,172.8393,174.9925,return,0.7664,,49.609375,0,23,23,2,1,FBP-OG-71.png,0.4,1.2,3,0.5,,,,,,,,,,,,,,,,,,,,,,,,,,,,,,,,,,,,,,,,,,,,,
,,,,,SPR24_020,19,female,2024-04-09_15h03.53.670,jersey_experiment_5_v0,2023.2.2,Win32,85.47008547,,,,,,,,,,,,,,,,174.9927,176.0394,176.0394,181.4396,return,3.4588,,59.11458333,0,24,24,47,1,FBP-PT-17.png,0.4,1.2,48,0.25,,,,,,,,,,,,,,,,,,,,,,,,,,,,,,,,,,,,,,,,,,,,,
,,,,,SPR24_020,19,female,2024-04-09_15h03.53.670,jersey_experiment_5_v0,2023.2.2,Win32,85.47008547,,,,,,,,,,,,,,,,181.4398,182.4866,182.4867,185.9457,return,0.6983,,99.86979167,0,25,25,49,1,FBP-PT-17.png,0.45,1.2,50,0.25,,,,,,,,,,,,,,,,,,,,,,,,,,,,,,,,,,,,,,,,,,,,,
,,,,,SPR24_020,19,female,2024-04-09_15h03.53.670,jersey_experiment_5_v0,2023.2.2,Win32,85.47008547,,,,,,,,,,,,,,,,185.946,187.2398,187.2399,189.4634,return,0.6082,,36.19791667,0,26,26,30,1,FBP-RB-17.png,0.35,1.2,31,0.5,,,,,,,,,,,,,,,,,,,,,,,,,,,,,,,,,,,,,,,,,,,,,
,,,,,SPR24_020,19,female,2024-04-09_15h03.53.670,jersey_experiment_5_v0,2023.2.2,Win32,85.47008547,,,,,,,,,,,,,,,,189.4636,190.7577,190.7577,192.6635,return,0.7347,,99.609375,0,27,27,34,1,FBP-RB-17.png,0.45,1.2,35,0.5,,,,,,,,,,,,,,,,,,,,,,,,,,,,,,,,,,,,,,,,,,,,,
,,,,,SPR24_020,19,female,2024-04-09_15h03.53.670,jersey_experiment_5_v0,2023.2.2,Win32,85.47008547,,,,,,,,,,,,,,,,192.6637,193.9579,193.9579,197.6403,return,0.643,,99.21875,0,28,28,39,1,FBP-RB-18.png,0.45,1.2,40,0.5,,,,,,,,,,,,,,,,,,,,,,,,,,,,,,,,,,,,,,,,,,,,,
,,,,,SPR24_020,19,female,2024-04-09_15h03.53.670,jersey_experiment_5_v0,2023.2.2,Win32,85.47008547,,,,,,,,,,,,,,,,197.6405,198.6872,198.6873,201.6757,return,0.6836,,49.86979167,0,29,29,27,1,FBP-YG-19.png,0.4,1.2,28,0.25,,,,,,,,,,,,,,,,,,,,,,,,,,,,,,,,,,,,,,,,,,,,,
,,,,,SPR24_020,19,female,2024-04-09_15h03.53.670,jersey_experiment_5_v0,2023.2.2,Win32,85.47008547,,,,,,,,,,,,,,,,201.6759,202.9699,202.97,204.6405,return,0.6352,,49.73958333,0,30,30,37,1,FBP-RB-18.png,0.4,1.2,38,0.5,,,,,,,,,,,,,,,,,,,,,,,,,,,,,,,,,,,,,,,,,,,,,
,,,,,SPR24_020,19,female,2024-04-09_15h03.53.670,jersey_experiment_5_v0,2023.2.2,Win32,85.47008547,,,,,,,,,,,,,,,,204.6408,205.6878,205.6878,207.8053,return,1.1315,,49.73958333,0,31,31,18,1,FBP-YG-17.png,0.43,1.2,19,0.25,,,,,,,,,,,,,,,,,,,,,,,,,,,,,,,,,,,,,,,,,,,,,
,,,,,SPR24_020,19,female,2024-04-09_15h03.53.670,jersey_experiment_5_v0,2023.2.2,Win32,85.47008547,,,,,,,,,,,,,,,,207.8056,208.8526,208.8526,210.9466,return,0.766,,25.13020833,0,32,32,55,1,FBP-PT-19.png,0.35,1.2,56,0.25,,,,,,,,,,,,,,,,,,,,,,,,,,,,,,,,,,,,,,,,,,,,,
,,,,,SPR24_020,19,female,2024-04-09_15h03.53.670,jersey_experiment_5_v0,2023.2.2,Win32,85.47008547,,,,,,,,,,,,,,,,210.9468,211.9936,211.9937,215.0056,return,0.8024,,99.86979167,0,33,33,59,1,FBP-PT-19.png,0.45,1.2,60,0.25,,,,,,,,,,,,,,,,,,,,,,,,,,,,,,,,,,,,,,,,,,,,,
,,,,,SPR24_020,19,female,2024-04-09_15h03.53.670,jersey_experiment_5_v0,2023.2.2,Win32,85.47008547,,,,,,,,,,,,,,,,215.0058,216.0526,216.0526,221.2177,return,0.6595,,38.28125,0,34,34,16,1,FBP-YG-17.png,0.37,1.2,17,0.25,,,,,,,,,,,,,,,,,,,,,,,,,,,,,,,,,,,,,,,,,,,,,
,,,,,SPR24_020,19,female,2024-04-09_15h03.53.670,jersey_experiment_5_v0,2023.2.2,Win32,85.47008547,,,,,,,,,,,,,,,,221.2179,222.2648,222.2648,226.6178,return,1.4534,,99.609375,0,35,35,53,1,FBP-PT-18.png,0.43,1.2,54,0.25,,,,,,,,,,,,,,,,,,,,,,,,,,,,,,,,,,,,,,,,,,,,,
,,,,,SPR24_020,19,female,2024-04-09_15h03.53.670,jersey_experiment_5_v0,2023.2.2,Win32,85.47008547,,,,,,,,,,,,,,,,226.6179,227.6648,227.6649,229.7591,return,0.6832,,99.86979167,0,36,36,58,1,FBP-PT-19.png,0.43,1.2,59,0.25,,,,,,,,,,,,,,,,,,,,,,,,,,,,,,,,,,,,,,,,,,,,,
,,,,,SPR24_020,19,female,2024-04-09_15h03.53.670,jersey_experiment_5_v0,2023.2.2,Win32,85.47008547,,,,,,,,,,,,,,,,229.7594,231.0533,231.0533,236.9357,return,0.7013,,24.86979167,0,37,37,10,1,FBP-OG-91.png,0.35,1.2,11,0.5,,,,,,,,,,,,,,,,,,,,,,,,,,,,,,,,,,,,,,,,,,,,,
,,,,,SPR24_020,19,female,2024-04-09_15h03.53.670,jersey_experiment_5_v0,2023.2.2,Win32,85.47008547,,,,,,,,,,,,,,,,236.9358,237.9829,237.983,240.8889,return,1.7116,,74.86979167,0,38,38,48,1,FBP-PT-17.png,0.43,1.2,49,0.25,,,,,,,,,,,,,,,,,,,,,,,,,,,,,,,,,,,,,,,,,,,,,
,,,,,SPR24_020,19,female,2024-04-09_15h03.53.670,jersey_experiment_5_v0,2023.2.2,Win32,85.47008547,,,,,,,,,,,,,,,,240.8891,241.9362,241.9362,244.5595,return,0.7297,,74.609375,0,39,39,17,1,FBP-YG-17.png,0.4,1.2,18,0.25,,,,,,,,,,,,,,,,,,,,,,,,,,,,,,,,,,,,,,,,,,,,,
,,,,,SPR24_020,19,female,2024-04-09_15h03.53.670,jersey_experiment_5_v0,2023.2.2,Win32,85.47008547,,,,,,,,,,,,,,,,244.5597,245.6066,245.6067,247.8657,return,0.7106,,25,0,40,40,45,1,FBP-PT-17.png,0.35,1.2,46,0.25,,,,,,,,,,,,,,,,,,,,,,,,,,,,,,,,,,,,,,,,,,,,,
,,,,,SPR24_020,19,female,2024-04-09_15h03.53.670,jersey_experiment_5_v0,2023.2.2,Win32,85.47008547,,,,,,,,,,,,,,,,247.866,249.1597,249.1598,251.0069,return,0.6832,,25.13020833,0,41,41,35,1,FBP-RB-18.png,0.35,1.2,36,0.5,,,,,,,,,,,,,,,,,,,,,,,,,,,,,,,,,,,,,,,,,,,,,
,,,,,SPR24_020,19,female,2024-04-09_15h03.53.670,jersey_experiment_5_v0,2023.2.2,Win32,85.47008547,,,,,,,,,,,,,,,,251.0071,252.054,252.054,254.6541,return,0.9196,,24.609375,0,42,42,25,1,FBP-YG-19.png,0.35,1.2,26,0.25,,,,,,,,,,,,,,,,,,,,,,,,,,,,,,,,,,,,,,,,,,,,,
,,,,,SPR24_020,19,female,2024-04-09_15h03.53.670,jersey_experiment_5_v0,2023.2.2,Win32,85.47008547,,,,,,,,,,,,,,,,254.6543,255.9483,255.9483,258.666,return,0.7472,,50.26041667,0,43,43,36,1,FBP-RB-18.png,0.37,1.2,37,0.5,,,,,,,,,,,,,,,,,,,,,,,,,,,,,,,,,,,,,,,,,,,,,
,,,,,SPR24_020,19,female,2024-04-09_15h03.53.670,jersey_experiment_5_v0,2023.2.2,Win32,85.47008547,,,,,,,,,,,,,,,,258.6662,259.9604,259.9604,267.9606,return,5.7937,,49.609375,0,44,44,11,1,FBP-OG-91.png,0.37,1.2,12,0.5,,,,,,,,,,,,,,,,,,,,,,,,,,,,,,,,,,,,,,,,,,,,,
,,,,,SPR24_020,19,female,2024-04-09_15h03.53.670,jersey_experiment_5_v0,2023.2.2,Win32,85.47008547,,,,,,,,,,,,,,,,267.9609,269.2547,269.2548,271.1607,return,0.6782,,99.609375,0,45,45,4,1,FBP-OG-71.png,0.45,1.2,5,0.5,,,,,,,,,,,,,,,,,,,,,,,,,,,,,,,,,,,,,,,,,,,,,
,,,,,SPR24_020,19,female,2024-04-09_15h03.53.670,jersey_experiment_5_v0,2023.2.2,Win32,85.47008547,,,,,,,,,,,,,,,,271.1609,272.4549,272.455,274.6195,return,0.6279,,74.47916667,0,46,46,5,1,FBP-OG-81.png,0.35,1.2,6,0.5,,,,,,,,,,,,,,,,,,,,,,,,,,,,,,,,,,,,,,,,,,,,,
,,,,,SPR24_020,19,female,2024-04-09_15h03.53.670,jersey_experiment_5_v0,2023.2.2,Win32,85.47008547,,,,,,,,,,,,,,,,274.6198,275.9138,275.9138,278.1258,return,0.6025,,49.34895833,0,47,47,40,1,FBP-RB-19.png,0.35,1.2,41,0.5,,,,,,,,,,,,,,,,,,,,,,,,,,,,,,,,,,,,,,,,,,,,,
,,,,,SPR24_020,19,female,2024-04-09_15h03.53.670,jersey_experiment_5_v0,2023.2.2,Win32,85.47008547,,,,,,,,,,,,,,,,278.126,279.4198,279.4198,281.1376,return,0.6488,,75,0,48,48,8,1,FBP-OG-81.png,0.43,1.2,9,0.5,,,,,,,,,,,,,,,,,,,,,,,,,,,,,,,,,,,,,,,,,,,,,
,,,,,SPR24_020,19,female,2024-04-09_15h03.53.670,jersey_experiment_5_v0,2023.2.2,Win32,85.47008547,,,,,,,,,,,,,,,,281.1377,282.4317,282.4318,286.2906,return,1.4267,,61.97916667,0,49,49,31,1,FBP-RB-17.png,0.37,1.2,32,0.5,,,,,,,,,,,,,,,,,,,,,,,,,,,,,,,,,,,,,,,,,,,,,
,,,,,SPR24_020,19,female,2024-04-09_15h03.53.670,jersey_experiment_5_v0,2023.2.2,Win32,85.47008547,,,,,,,,,,,,,,,,286.2908,287.3377,287.3377,289.4907,return,0.7676,,74.21875,0,50,50,54,1,FBP-PT-18.png,0.45,1.2,55,0.25,,,,,,,,,,,,,,,,,,,,,,,,,,,,,,,,,,,,,,,,,,,,,
,,,,,SPR24_020,19,female,2024-04-09_15h03.53.670,jersey_experiment_5_v0,2023.2.2,Win32,85.47008547,,,,,,,,,,,,,,,,289.4909,290.5377,290.5377,295.7145,return,0.9413,,63.02083333,0,51,51,22,1,FBP-YG-18.png,0.4,1.2,23,0.25,,,,,,,,,,,,,,,,,,,,,,,,,,,,,,,,,,,,,,,,,,,,,
,,,,,SPR24_020,19,female,2024-04-09_15h03.53.670,jersey_experiment_5_v0,2023.2.2,Win32,85.47008547,,,,,,,,,,,,,,,,295.7147,297.0086,297.0086,298.8324,return,0.565,,61.45833333,0,52,52,1,1,FBP-OG-71.png,0.37,1.2,2,0.5,,,,,,,,,,,,,,,,,,,,,,,,,,,,,,,,,,,,,,,,,,,,,
,,,,,SPR24_020,19,female,2024-04-09_15h03.53.670,jersey_experiment_5_v0,2023.2.2,Win32,85.47008547,,,,,,,,,,,,,,,,298.8326,300.1263,300.1264,301.7145,return,0.5878,,74.21875,0,53,53,12,1,FBP-OG-91.png,0.4,1.2,13,0.5,,,,,,,,,,,,,,,,,,,,,,,,,,,,,,,,,,,,,,,,,,,,,
,,,,,SPR24_020,19,female,2024-04-09_15h03.53.670,jersey_experiment_5_v0,2023.2.2,Win32,85.47008547,,,,,,,,,,,,,,,,301.7148,303.0088,303.0089,305.6561,return,0.7492,,86.97916667,0,54,54,3,1,FBP-OG-71.png,0.43,1.2,4,0.5,,,,,,,,,,,,,,,,,,,,,,,,,,,,,,,,,,,,,,,,,,,,,
,,,,,SPR24_020,19,female,2024-04-09_15h03.53.670,jersey_experiment_5_v0,2023.2.2,Win32,85.47008547,,,,,,,,,,,,,,,,305.6563,306.7031,306.7031,312.833,return,0.7531,,63.41145833,0,55,55,15,1,FBP-YG-17.png,0.35,1.2,16,0.25,,,,,,,,,,,,,,,,,,,,,,,,,,,,,,,,,,,,,,,,,,,,,
,,,,,SPR24_020,19,female,2024-04-09_15h03.53.670,jersey_experiment_5_v0,2023.2.2,Win32,85.47008547,,,,,,,,,,,,,,,,312.8332,314.1269,314.1269,316.7977,return,0.6244,,50,0,56,56,0,1,FBP-OG-71.png,0.35,1.2,1,0.5,,,,,,,,,,,,,,,,,,,,,,,,,,,,,,,,,,,,,,,,,,,,,
,,,,,SPR24_020,19,female,2024-04-09_15h03.53.670,jersey_experiment_5_v0,2023.2.2,Win32,85.47008547,,,,,,,,,,,,,,,,316.7979,317.8447,317.8447,320.1271,return,0.988,,99.08854167,0,57,57,23,1,FBP-YG-18.png,0.43,1.2,24,0.25,,,,,,,,,,,,,,,,,,,,,,,,,,,,,,,,,,,,,,,,,,,,,
,,,,,SPR24_020,19,female,2024-04-09_15h03.53.670,jersey_experiment_5_v0,2023.2.2,Win32,85.47008547,,,,,,,,,,,,,,,,320.1273,321.4213,321.4214,323.1038,return,0.6118,,99.21875,0,58,58,13,1,FBP-OG-91.png,0.43,1.2,14,0.5,,,,,,,,,,,,,,,,,,,,,,,,,,,,,,,,,,,,,,,,,,,,,
,,,,,SPR24_020,19,female,2024-04-09_15h03.53.670,jersey_experiment_5_v0,2023.2.2,Win32,85.47008547,,,,,,,,,,,,,,,,323.104,324.1509,324.1509,325.8215,return,0.6495,,99.47916667,0,59,59,52,1,FBP-PT-18.png,0.4,1.2,53,0.25,,,,,,,,,,,,,,,,,,,,,,,,,,,,,,,,,,,,,,,,,,,,,
,,,,,SPR24_020,19,female,2024-04-09_15h03.53.670,jersey_experiment_5_v0,2023.2.2,Win32,85.47008547,,,,,,,,,,,,,,,,325.8235,326.8686,326.8686,329.4569,return,0.8578,,88.93229167,,,,,,FBP-PT-91.png,0.4,1.2,58,0.25,0,0,0,57,1,,,,,,,,,,,,,,,,,,,,,,,,,,,,,,,,,,,,,,,,
,,,,,SPR24_020,19,female,2024-04-09_15h03.53.670,jersey_experiment_5_v0,2023.2.2,Win32,85.47008547,,,,,,,,,,,,,,,,329.4572,330.751,330.7511,332.5278,return,0.5779,,74.609375,,,,,,FBP-RB-81.png,0.37,1.2,37,0.5,0,1,1,36,1,,,,,,,,,,,,,,,,,,,,,,,,,,,,,,,,,,,,,,,,
,,,,,SPR24_020,19,female,2024-04-09_15h03.53.670,jersey_experiment_5_v0,2023.2.2,Win32,85.47008547,,,,,,,,,,,,,,,,332.528,333.8217,333.8218,336.2218,return,1.2844,,81.77083333,,,,,,FBP-OG-19.png,0.43,1.2,14,0.5,0,2,2,13,1,,,,,,,,,,,,,,,,,,,,,,,,,,,,,,,,,,,,,,,,
,,,,,SPR24_020,19,female,2024-04-09_15h03.53.670,jersey_experiment_5_v0,2023.2.2,Win32,85.47008547,,,,,,,,,,,,,,,,336.2221,337.516,337.5161,339.2808,return,0.6346,,74.609375,,,,,,FBP-RB-71.png,0.37,1.2,32,0.5,0,3,3,31,1,,,,,,,,,,,,,,,,,,,,,,,,,,,,,,,,,,,,,,,,
,,,,,SPR24_020,19,female,2024-04-09_15h03.53.670,jersey_experiment_5_v0,2023.2.2,Win32,85.47008547,,,,,,,,,,,,,,,,339.2811,340.328,340.3281,343.1281,return,0.6201,,74.86979167,,,,,,FBP-PT-71.png,0.4,1.2,48,0.25,0,4,4,47,1,,,,,,,,,,,,,,,,,,,,,,,,,,,,,,,,,,,,,,,,
,,,,,SPR24_020,19,female,2024-04-09_15h03.53.670,jersey_experiment_5_v0,2023.2.2,Win32,85.47008547,,,,,,,,,,,,,,,,343.1283,344.175,344.1751,346.8577,return,0.8184,,98.828125,,,,,,FBP-YG-91.png,0.45,1.2,30,0.25,0,5,5,29,1,,,,,,,,,,,,,,,,,,,,,,,,,,,,,,,,,,,,,,,,
,,,,,SPR24_020,19,female,2024-04-09_15h03.53.670,jersey_experiment_5_v0,2023.2.2,Win32,85.47008547,,,,,,,,,,,,,,,,346.858,347.9046,347.9047,349.5518,return,0.6449,,99.86979167,,,,,,FBP-YG-71.png,0.45,1.2,20,0.25,0,6,6,19,1,,,,,,,,,,,,,,,,,,,,,,,,,,,,,,,,,,,,,,,,
,,,,,SPR24_020,19,female,2024-04-09_15h03.53.670,jersey_experiment_5_v0,2023.2.2,Win32,85.47008547,,,,,,,,,,,,,,,,349.552,350.5989,350.599,352.3638,return,0.5104,,74.34895833,,,,,,FBP-YG-81.png,0.37,1.2,22,0.25,0,7,7,21,1,,,,,,,,,,,,,,,,,,,,,,,,,,,,,,,,,,,,,,,,
,,,,,SPR24_020,19,female,2024-04-09_15h03.53.670,jersey_experiment_5_v0,2023.2.2,Win32,85.47008547,,,,,,,,,,,,,,,,352.364,353.4107,353.4107,357.0344,return,0.6749,,99.08854167,,,,,,FBP-PT-91.png,0.45,1.2,60,0.25,0,8,8,59,1,,,,,,,,,,,,,,,,,,,,,,,,,,,,,,,,,,,,,,,,
,,,,,SPR24_020,19,female,2024-04-09_15h03.53.670,jersey_experiment_5_v0,2023.2.2,Win32,85.47008547,,,,,,,,,,,,,,,,357.0347,358.3286,358.3287,360.9876,return,0.5926,,74.73958333,,,,,,FBP-RB-91.png,0.35,1.2,41,0.5,0,9,9,40,1,,,,,,,,,,,,,,,,,,,,,,,,,,,,,,,,,,,,,,,,
,,,,,SPR24_020,19,female,2024-04-09_15h03.53.670,jersey_experiment_5_v0,2023.2.2,Win32,85.47008547,,,,,,,,,,,,,,,,360.9879,362.0348,362.0348,363.6348,return,0.5646,,74.47916667,,,,,,FBP-PT-81.png,0.35,1.2,51,0.25,0,10,10,50,1,,,,,,,,,,,,,,,,,,,,,,,,,,,,,,,,,,,,,,,,
,,,,,SPR24_020,19,female,2024-04-09_15h03.53.670,jersey_experiment_5_v0,2023.2.2,Win32,85.47008547,,,,,,,,,,,,,,,,363.6351,364.9289,364.9289,366.9055,return,0.5363,,88.671875,,,,,,FBP-RB-71.png,0.43,1.2,34,0.5,0,11,11,33,1,,,,,,,,,,,,,,,,,,,,,,,,,,,,,,,,,,,,,,,,
,,,,,SPR24_020,19,female,2024-04-09_15h03.53.670,jersey_experiment_5_v0,2023.2.2,Win32,85.47008547,,,,,,,,,,,,,,,,366.9057,367.9524,367.9525,370.1762,return,0.6369,,99.21875,,,,,,FBP-YG-81.png,0.45,1.2,25,0.25,0,12,12,24,1,,,,,,,,,,,,,,,,,,,,,,,,,,,,,,,,,,,,,,,,
,,,,,SPR24_020,19,female,2024-04-09_15h03.53.670,jersey_experiment_5_v0,2023.2.2,Win32,85.47008547,,,,,,,,,,,,,,,,370.1764,371.2232,371.2232,373.2586,return,0.6288,,74.73958333,,,,,,FBP-PT-91.png,0.35,1.2,56,0.25,0,13,13,55,1,,,,,,,,,,,,,,,,,,,,,,,,,,,,,,,,,,,,,,,,
,,,,,SPR24_020,19,female,2024-04-09_15h03.53.670,jersey_experiment_5_v0,2023.2.2,Win32,85.47008547,,,,,,,,,,,,,,,,373.2588,374.3057,374.3057,377,return,1.2204,,87.23958333,,,,,,FBP-PT-81.png,0.4,1.2,53,0.25,0,14,14,52,1,,,,,,,,,,,,,,,,,,,,,,,,,,,,,,,,,,,,,,,,
,,,,,SPR24_020,19,female,2024-04-09_15h03.53.670,jersey_experiment_5_v0,2023.2.2,Win32,85.47008547,,,,,,,,,,,,,,,,377.0002,378.2941,378.2941,385.7767,return,2.4601,,87.76041667,,,,,,FBP-RB-81.png,0.43,1.2,39,0.5,0,15,15,38,1,,,,,,,,,,,,,,,,,,,,,,,,,,,,,,,,,,,,,,,,
,,,,,SPR24_020,19,female,2024-04-09_15h03.53.670,jersey_experiment_5_v0,2023.2.2,Win32,85.47008547,,,,,,,,,,,,,,,,385.777,387.071,387.0711,389.1181,return,0.801,,99.73958333,,,,,,FBP-OG-19.png,0.45,1.2,15,0.5,0,16,16,14,1,,,,,,,,,,,,,,,,,,,,,,,,,,,,,,,,,,,,,,,,
,,,,,SPR24_020,19,female,2024-04-09_15h03.53.670,jersey_experiment_5_v0,2023.2.2,Win32,85.47008547,,,,,,,,,,,,,,,,389.1183,390.4121,390.4122,392.2005,return,0.7487,,99.73958333,,,,,,FBP-RB-91.png,0.45,1.2,45,0.5,0,17,17,44,1,,,,,,,,,,,,,,,,,,,,,,,,,,,,,,,,,,,,,,,,
,,,,,SPR24_020,19,female,2024-04-09_15h03.53.670,jersey_experiment_5_v0,2023.2.2,Win32,85.47008547,,,,,,,,,,,,,,,,392.2008,393.4946,393.4946,406.9071,return,10.357,,40.625,,,,,,FBP-RB-71.png,0.35,1.2,31,0.5,0,18,18,30,1,,,,,,,,,,,,,,,,,,,,,,,,,,,,,,,,,,,,,,,,
,,,,,SPR24_020,19,female,2024-04-09_15h03.53.670,jersey_experiment_5_v0,2023.2.2,Win32,85.47008547,,,,,,,,,,,,,,,,406.9073,407.954,407.9541,410.3659,return,0.683,,39.453125,,,,,,FBP-YG-91.png,0.35,1.2,26,0.25,0,19,19,25,1,,,,,,,,,,,,,,,,,,,,,,,,,,,,,,,,,,,,,,,,
,,,,,SPR24_020,19,female,2024-04-09_15h03.53.670,jersey_experiment_5_v0,2023.2.2,Win32,85.47008547,,,,,,,,,,,,,,,,410.3662,411.66,411.6601,415.2719,return,0.8421,,60.80729167,,,,,,FBP-OG-19.png,0.4,1.2,13,0.5,0,20,20,12,1,,,,,,,,,,,,,,,,,,,,,,,,,,,,,,,,,,,,,,,,
,,,,,SPR24_020,19,female,2024-04-09_15h03.53.670,jersey_experiment_5_v0,2023.2.2,Win32,85.47008547,,,,,,,,,,,,,,,,415.2721,416.3192,416.3192,418.225,return,0.9068,,75,,,,,,FBP-PT-71.png,0.43,1.2,49,0.25,0,21,21,48,1,,,,,,,,,,,,,,,,,,,,,,,,,,,,,,,,,,,,,,,,
,,,,,SPR24_020,19,female,2024-04-09_15h03.53.670,jersey_experiment_5_v0,2023.2.2,Win32,85.47008547,,,,,,,,,,,,,,,,418.2253,419.2721,419.2722,420.8016,return,0.6593,,75,,,,,,FBP-YG-91.png,0.43,1.2,29,0.25,0,22,22,28,1,,,,,,,,,,,,,,,,,,,,,,,,,,,,,,,,,,,,,,,,
,,,,,SPR24_020,19,female,2024-04-09_15h03.53.670,jersey_experiment_5_v0,2023.2.2,Win32,85.47008547,,,,,,,,,,,,,,,,420.8018,421.8487,421.8487,423.5546,return,0.6207,,75.26041667,,,,,,FBP-PT-81.png,0.43,1.2,54,0.25,0,23,23,53,1,,,,,,,,,,,,,,,,,,,,,,,,,,,,,,,,,,,,,,,,
,,,,,SPR24_020,19,female,2024-04-09_15h03.53.670,jersey_experiment_5_v0,2023.2.2,Win32,85.47008547,,,,,,,,,,,,,,,,423.5549,424.6017,424.6018,426.1076,return,0.5813,,99.47916667,,,,,,FBP-PT-81.png,0.45,1.2,55,0.25,0,24,24,54,1,,,,,,,,,,,,,,,,,,,,,,,,,,,,,,,,,,,,,,,,
,,,,,SPR24_020,19,female,2024-04-09_15h03.53.670,jersey_experiment_5_v0,2023.2.2,Win32,85.47008547,,,,,,,,,,,,,,,,426.1078,427.1546,427.1547,429.0961,return,0.6078,,75,,,,,,FBP-PT-91.png,0.37,1.2,57,0.25,0,25,25,56,1,,,,,,,,,,,,,,,,,,,,,,,,,,,,,,,,,,,,,,,,
,,,,,SPR24_020,19,female,2024-04-09_15h03.53.670,jersey_experiment_5_v0,2023.2.2,Win32,85.47008547,,,,,,,,,,,,,,,,429.0963,430.3902,430.3902,431.7902,return,0.6005,,74.609375,,,,,,FBP-RB-91.png,0.4,1.2,43,0.5,0,26,26,42,1,,,,,,,,,,,,,,,,,,,,,,,,,,,,,,,,,,,,,,,,
,,,,,SPR24_020,19,female,2024-04-09_15h03.53.670,jersey_experiment_5_v0,2023.2.2,Win32,85.47008547,,,,,,,,,,,,,,,,431.7904,433.0845,433.0845,434.3668,return,0.6362,,99.609375,,,,,,FBP-RB-91.png,0.43,1.2,44,0.5,0,27,27,43,1,,,,,,,,,,,,,,,,,,,,,,,,,,,,,,,,,,,,,,,,
,,,,,SPR24_020,19,female,2024-04-09_15h03.53.670,jersey_experiment_5_v0,2023.2.2,Win32,85.47008547,,,,,,,,,,,,,,,,434.3671,435.6609,435.661,437.6256,return,0.5947,,74.86979167,,,,,,FBP-RB-91.png,0.37,1.2,42,0.5,0,28,28,41,1,,,,,,,,,,,,,,,,,,,,,,,,,,,,,,,,,,,,,,,,
,,,,,SPR24_020,19,female,2024-04-09_15h03.53.670,jersey_experiment_5_v0,2023.2.2,Win32,85.47008547,,,,,,,,,,,,,,,,437.6258,438.9199,438.9199,440.5201,return,0.5728,,99.08854167,,,,,,FBP-OG-17.png,0.45,1.2,5,0.5,0,29,29,4,1,,,,,,,,,,,,,,,,,,,,,,,,,,,,,,,,,,,,,,,,
,,,,,SPR24_020,19,female,2024-04-09_15h03.53.670,jersey_experiment_5_v0,2023.2.2,Win32,85.47008547,,,,,,,,,,,,,,,,440.5203,441.8142,441.8142,443.8378,return,0.6244,,75.26041667,,,,,,FBP-RB-81.png,0.35,1.2,36,0.5,0,30,30,35,1,,,,,,,,,,,,,,,,,,,,,,,,,,,,,,,,,,,,,,,,
,,,,,SPR24_020,19,female,2024-04-09_15h03.53.670,jersey_experiment_5_v0,2023.2.2,Win32,85.47008547,,,,,,,,,,,,,,,,443.838,444.8847,444.8848,446.9556,return,0.7224,,74.609375,,,,,,FBP-PT-71.png,0.37,1.2,47,0.25,0,31,31,46,1,,,,,,,,,,,,,,,,,,,,,,,,,,,,,,,,,,,,,,,,
,,,,,SPR24_020,19,female,2024-04-09_15h03.53.670,jersey_experiment_5_v0,2023.2.2,Win32,85.47008547,,,,,,,,,,,,,,,,446.9558,448.2497,448.2497,450.2028,return,0.8505,,74.47916667,,,,,,FBP-OG-17.png,0.37,1.2,2,0.5,0,32,32,1,1,,,,,,,,,,,,,,,,,,,,,,,,,,,,,,,,,,,,,,,,
,,,,,SPR24_020,19,female,2024-04-09_15h03.53.670,jersey_experiment_5_v0,2023.2.2,Win32,85.47008547,,,,,,,,,,,,,,,,450.203,451.4969,451.4969,453.2969,return,0.5984,,74.609375,,,,,,FBP-OG-18.png,0.37,1.2,7,0.5,0,33,33,6,1,,,,,,,,,,,,,,,,,,,,,,,,,,,,,,,,,,,,,,,,
,,,,,SPR24_020,19,female,2024-04-09_15h03.53.670,jersey_experiment_5_v0,2023.2.2,Win32,85.47008547,,,,,,,,,,,,,,,,453.2971,454.344,454.344,459.5324,return,0.9791,,83.85416667,,,,,,FBP-YG-71.png,0.43,1.2,19,0.25,0,34,34,18,1,,,,,,,,,,,,,,,,,,,,,,,,,,,,,,,,,,,,,,,,
,,,,,SPR24_020,19,female,2024-04-09_15h03.53.670,jersey_experiment_5_v0,2023.2.2,Win32,85.47008547,,,,,,,,,,,,,,,,459.5326,460.5795,460.5795,465.8032,return,1.7816,,85.9375,,,,,,FBP-YG-81.png,0.43,1.2,24,0.25,0,35,35,23,1,,,,,,,,,,,,,,,,,,,,,,,,,,,,,,,,,,,,,,,,
,,,,,SPR24_020,19,female,2024-04-09_15h03.53.670,jersey_experiment_5_v0,2023.2.2,Win32,85.47008547,,,,,,,,,,,,,,,,465.8035,467.0974,467.0974,473.5447,return,5.536,,70.44270833,,,,,,FBP-OG-18.png,0.35,1.2,6,0.5,0,36,36,5,1,,,,,,,,,,,,,,,,,,,,,,,,,,,,,,,,,,,,,,,,
,,,,,SPR24_020,19,female,2024-04-09_15h03.53.670,jersey_experiment_5_v0,2023.2.2,Win32,85.47008547,,,,,,,,,,,,,,,,473.545,474.5917,474.5918,476.2744,return,0.5547,,66.796875,,,,,,FBP-YG-71.png,0.37,1.2,17,0.25,0,37,37,16,1,,,,,,,,,,,,,,,,,,,,,,,,,,,,,,,,,,,,,,,,
,,,,,SPR24_020,19,female,2024-04-09_15h03.53.670,jersey_experiment_5_v0,2023.2.2,Win32,85.47008547,,,,,,,,,,,,,,,,476.2746,477.3212,477.3212,479.0509,return,0.5454,,86.84895833,,,,,,FBP-PT-91.png,0.43,1.2,59,0.25,0,38,38,58,1,,,,,,,,,,,,,,,,,,,,,,,,,,,,,,,,,,,,,,,,
,,,,,SPR24_020,19,female,2024-04-09_15h03.53.670,jersey_experiment_5_v0,2023.2.2,Win32,85.47008547,,,,,,,,,,,,,,,,479.0511,480.3449,480.3449,481.3214,return,0.6419,,86.84895833,,,,,,FBP-RB-71.png,0.4,1.2,33,0.5,0,39,39,32,1,,,,,,,,,,,,,,,,,,,,,,,,,,,,,,,,,,,,,,,,
,,,,,SPR24_020,19,female,2024-04-09_15h03.53.670,jersey_experiment_5_v0,2023.2.2,Win32,85.47008547,,,,,,,,,,,,,,,,481.3216,482.3686,482.3686,484.1098,return,0.4849,,74.73958333,,,,,,FBP-YG-81.png,0.35,1.2,21,0.25,0,40,40,20,1,,,,,,,,,,,,,,,,,,,,,,,,,,,,,,,,,,,,,,,,
,,,,,SPR24_020,19,female,2024-04-09_15h03.53.670,jersey_experiment_5_v0,2023.2.2,Win32,85.47008547,,,,,,,,,,,,,,,,484.11,485.404,485.4041,486.3924,return,0.523,,74.34895833,,,,,,FBP-OG-18.png,0.4,1.2,8,0.5,0,41,41,7,1,,,,,,,,,,,,,,,,,,,,,,,,,,,,,,,,,,,,,,,,
,,,,,SPR24_020,19,female,2024-04-09_15h03.53.670,jersey_experiment_5_v0,2023.2.2,Win32,85.47008547,,,,,,,,,,,,,,,,486.3926,487.4392,487.4393,488.7217,return,0.5178,,74.34895833,,,,,,FBP-YG-81.png,0.4,1.2,23,0.25,0,42,42,22,1,,,,,,,,,,,,,,,,,,,,,,,,,,,,,,,,,,,,,,,,
,,,,,SPR24_020,19,female,2024-04-09_15h03.53.670,jersey_experiment_5_v0,2023.2.2,Win32,85.47008547,,,,,,,,,,,,,,,,488.7218,489.7688,489.7689,491.5219,return,1.1665,,74.34895833,,,,,,FBP-YG-91.png,0.37,1.2,27,0.25,0,43,43,26,1,,,,,,,,,,,,,,,,,,,,,,,,,,,,,,,,,,,,,,,,
,,,,,SPR24_020,19,female,2024-04-09_15h03.53.670,jersey_experiment_5_v0,2023.2.2,Win32,85.47008547,,,,,,,,,,,,,,,,491.5221,492.5689,492.5689,493.9455,return,0.5937,,74.73958333,,,,,,FBP-YG-71.png,0.4,1.2,18,0.25,0,44,44,17,1,,,,,,,,,,,,,,,,,,,,,,,,,,,,,,,,,,,,,,,,
,,,,,SPR24_020,19,female,2024-04-09_15h03.53.670,jersey_experiment_5_v0,2023.2.2,Win32,85.47008547,,,,,,,,,,,,,,,,493.9457,494.9925,494.9925,497.1809,return,0.5551,,70.57291667,,,,,,FBP-PT-71.png,0.35,1.2,46,0.25,0,45,45,45,1,,,,,,,,,,,,,,,,,,,,,,,,,,,,,,,,,,,,,,,,
,,,,,SPR24_020,19,female,2024-04-09_15h03.53.670,jersey_experiment_5_v0,2023.2.2,Win32,85.47008547,,,,,,,,,,,,,,,,497.181,498.2281,498.2281,499.6634,return,0.6114,,74.86979167,,,,,,FBP-YG-91.png,0.4,1.2,28,0.25,0,46,46,27,1,,,,,,,,,,,,,,,,,,,,,,,,,,,,,,,,,,,,,,,,
,,,,,SPR24_020,19,female,2024-04-09_15h03.53.670,jersey_experiment_5_v0,2023.2.2,Win32,85.47008547,,,,,,,,,,,,,,,,499.6636,500.9575,500.9576,502.4281,return,0.6865,,99.73958333,,,,,,FBP-RB-71.png,0.45,1.2,35,0.5,0,47,47,34,1,,,,,,,,,,,,,,,,,,,,,,,,,,,,,,,,,,,,,,,,
,,,,,SPR24_020,19,female,2024-04-09_15h03.53.670,jersey_experiment_5_v0,2023.2.2,Win32,85.47008547,,,,,,,,,,,,,,,,502.4283,503.7223,503.7223,506.7225,return,0.5426,,60.28645833,,,,,,FBP-OG-19.png,0.35,1.2,11,0.5,0,48,48,10,1,,,,,,,,,,,,,,,,,,,,,,,,,,,,,,,,,,,,,,,,
,,,,,SPR24_020,19,female,2024-04-09_15h03.53.670,jersey_experiment_5_v0,2023.2.2,Win32,85.47008547,,,,,,,,,,,,,,,,506.7226,508.0168,508.0168,509.5813,return,0.6008,,88.93229167,,,,,,FBP-RB-81.png,0.45,1.2,40,0.5,0,49,49,39,1,,,,,,,,,,,,,,,,,,,,,,,,,,,,,,,,,,,,,,,,
,,,,,SPR24_020,19,female,2024-04-09_15h03.53.670,jersey_experiment_5_v0,2023.2.2,Win32,85.47008547,,,,,,,,,,,,,,,,509.5815,510.8756,510.8756,512.7934,return,0.5933,,62.63020833,,,,,,FBP-OG-17.png,0.35,1.2,1,0.5,0,50,50,0,1,,,,,,,,,,,,,,,,,,,,,,,,,,,,,,,,,,,,,,,,
,,,,,SPR24_020,19,female,2024-04-09_15h03.53.670,jersey_experiment_5_v0,2023.2.2,Win32,85.47008547,,,,,,,,,,,,,,,,512.7936,514.0874,514.0875,516.3464,return,0.5352,,74.73958333,,,,,,FBP-OG-19.png,0.37,1.2,12,0.5,0,51,51,11,1,,,,,,,,,,,,,,,,,,,,,,,,,,,,,,,,,,,,,,,,
,,,,,SPR24_020,19,female,2024-04-09_15h03.53.670,jersey_experiment_5_v0,2023.2.2,Win32,85.47008547,,,,,,,,,,,,,,,,516.3467,517.3934,517.3934,521.417,return,2.44,,75.13020833,,,,,,FBP-YG-71.png,0.35,1.2,16,0.25,0,52,52,15,1,,,,,,,,,,,,,,,,,,,,,,,,,,,,,,,,,,,,,,,,
,,,,,SPR24_020,19,female,2024-04-09_15h03.53.670,jersey_experiment_5_v0,2023.2.2,Win32,85.47008547,,,,,,,,,,,,,,,,521.4172,522.7112,522.7112,524.9466,return,0.4943,,86.84895833,,,,,,FBP-OG-18.png,0.43,1.2,9,0.5,0,53,53,8,1,,,,,,,,,,,,,,,,,,,,,,,,,,,,,,,,,,,,,,,,
,,,,,SPR24_020,19,female,2024-04-09_15h03.53.670,jersey_experiment_5_v0,2023.2.2,Win32,85.47008547,,,,,,,,,,,,,,,,524.9469,526.2406,526.2408,527.1939,return,0.4887,,86.84895833,,,,,,FBP-RB-81.png,0.4,1.2,38,0.5,0,54,54,37,1,,,,,,,,,,,,,,,,,,,,,,,,,,,,,,,,,,,,,,,,
,,,,,SPR24_020,19,female,2024-04-09_15h03.53.670,jersey_experiment_5_v0,2023.2.2,Win32,85.47008547,,,,,,,,,,,,,,,,527.1941,528.4879,528.4879,531.135,return,1.2822,,99.34895833,,,,,,FBP-OG-17.png,0.43,1.2,4,0.5,0,55,55,3,1,,,,,,,,,,,,,,,,,,,,,,,,,,,,,,,,,,,,,,,,
,,,,,SPR24_020,19,female,2024-04-09_15h03.53.670,jersey_experiment_5_v0,2023.2.2,Win32,85.47008547,,,,,,,,,,,,,,,,531.1353,532.4293,532.4293,534.7823,return,0.4959,,87.76041667,,,,,,FBP-OG-17.png,0.4,1.2,3,0.5,0,56,56,2,1,,,,,,,,,,,,,,,,,,,,,,,,,,,,,,,,,,,,,,,,
,,,,,SPR24_020,19,female,2024-04-09_15h03.53.670,jersey_experiment_5_v0,2023.2.2,Win32,85.47008547,,,,,,,,,,,,,,,,534.7825,535.8294,535.8294,537.3118,return,0.5549,,98.828125,,,,,,FBP-PT-71.png,0.45,1.2,50,0.25,0,57,57,49,1,,,,,,,,,,,,,,,,,,,,,,,,,,,,,,,,,,,,,,,,
,,,,,SPR24_020,19,female,2024-04-09_15h03.53.670,jersey_experiment_5_v0,2023.2.2,Win32,85.47008547,,,,,,,,,,,,,,,,537.3121,538.3588,538.3588,541.2767,return,0.6259,,75.26041667,,,,,,FBP-PT-81.png,0.37,1.2,52,0.25,0,58,58,51,1,,,,,,,,,,,,,,,,,,,,,,,,,,,,,,,,,,,,,,,,
,,,,,SPR24_020,19,female,2024-04-09_15h03.53.670,jersey_experiment_5_v0,2023.2.2,Win32,85.47008547,,,,,,,,,,,,,,,,541.2769,542.5708,542.5708,544.2649,return,0.5721,,99.47916667,,,,,,FBP-OG-18.png,0.45,1.2,10,0.5,0,59,59,9,1,,,,,,,,,,,,,,,,,,,,,,,,,,,,,,,,,,,,,,,,
,,,,,SPR24_020,19,female,2024-04-09_15h03.53.670,jersey_experiment_5_v0,2023.2.2,Win32,85.47008547,,,,,,,,,,,,,,,,,,,,,,,,,,,,,,,,,,,,,,,544.2654,664.2581,,,,,,,,,,,,,,,,,,,,,,,,,,,,,,,,,,,,,,
,,,,,SPR24_020,19,female,2024-04-09_15h03.53.670,jersey_experiment_5_v0,2023.2.2,Win32,85.47008547,,,,,,,,,,,,,,,,,,,,,,,,,,,,,,,,,,,,,,,,,664.2582,667.6933,return,3.4257,,,,,,,,,,,,,,,,,,,,,,,,,,,,,,,,,,
,,,,,SPR24_020,19,female,2024-04-09_15h03.53.670,jersey_experiment_5_v0,2023.2.2,Win32,85.47008547,,,,,,,,,,,,,,,,667.6991,668.7521,668.7521,673.3523,return,1.2886,,50.13020833,,,,,,FBP-RB-18.png,0.4,1.2,38,0.25,,,,,,,,,,,,,0,0,0,37,1,,,,,,,,,,,,,,,,,,,,,,,,,,,,
,,,,,SPR24_020,19,female,2024-04-09_15h03.53.670,jersey_experiment_5_v0,2023.2.2,Win32,85.47008547,,,,,,,,,,,,,,,,673.3526,674.6463,674.6464,676.9523,return,0.1492,,87.63020833,,,,,,FBP-PT-18.png,0.45,1.2,55,0.5,,,,,,,,,,,,,0,1,1,54,1,,,,,,,,,,,,,,,,,,,,,,,,,,,,
,,,,,SPR24_020,19,female,2024-04-09_15h03.53.670,jersey_experiment_5_v0,2023.2.2,Win32,85.47008547,,,,,,,,,,,,,,,,676.9526,677.9995,677.9995,679.7878,return,0.0871,,49.47916667,,,,,,FBP-OG-71.png,0.35,1.2,1,0.25,,,,,,,,,,,,,0,2,2,0,1,,,,,,,,,,,,,,,,,,,,,,,,,,,,
,,,,,SPR24_020,19,female,2024-04-09_15h03.53.670,jersey_experiment_5_v0,2023.2.2,Win32,85.47008547,,,,,,,,,,,,,,,,679.788,681.0819,681.082,682.5995,return,0.1605,,87.76041667,,,,,,FBP-YG-17.png,0.4,1.2,18,0.5,,,,,,,,,,,,,0,3,3,17,1,,,,,,,,,,,,,,,,,,,,,,,,,,,,
,,,,,SPR24_020,19,female,2024-04-09_15h03.53.670,jersey_experiment_5_v0,2023.2.2,Win32,85.47008547,,,,,,,,,,,,,,,,682.5996,683.8937,683.8937,685.682,return,0.4338,,74.73958333,,,,,,FBP-PT-17.png,0.35,1.2,46,0.5,,,,,,,,,,,,,0,4,4,45,1,,,,,,,,,,,,,,,,,,,,,,,,,,,,
,,,,,SPR24_020,19,female,2024-04-09_15h03.53.670,jersey_experiment_5_v0,2023.2.2,Win32,85.47008547,,,,,,,,,,,,,,,,685.6822,686.7293,686.7293,688.9763,return,0.881,,62.890625,,,,,,FBP-OG-91.png,0.35,1.2,11,0.25,,,,,,,,,,,,,0,5,5,10,1,,,,,,,,,,,,,,,,,,,,,,,,,,,,
,,,,,SPR24_020,19,female,2024-04-09_15h03.53.670,jersey_experiment_5_v0,2023.2.2,Win32,85.47008547,,,,,,,,,,,,,,,,688.9765,690.0235,690.0235,691.5528,return,0.1422,,62.109375,,,,,,FBP-OG-91.png,0.37,1.2,12,0.25,,,,,,,,,,,,,0,6,6,11,1,,,,,,,,,,,,,,,,,,,,,,,,,,,,
,,,,,SPR24_020,19,female,2024-04-09_15h03.53.670,jersey_experiment_5_v0,2023.2.2,Win32,85.47008547,,,,,,,,,,,,,,,,691.5531,692.5999,692.5999,694.6001,return,0.1583,,86.71875,,,,,,FBP-OG-91.png,0.45,1.2,15,0.25,,,,,,,,,,,,,0,7,7,14,1,,,,,,,,,,,,,,,,,,,,,,,,,,,,
,,,,,SPR24_020,19,female,2024-04-09_15h03.53.670,jersey_experiment_5_v0,2023.2.2,Win32,85.47008547,,,,,,,,,,,,,,,,694.6002,695.8942,695.8942,696.8119,return,0.0752,,74.21875,,,,,,FBP-PT-17.png,0.37,1.2,47,0.5,,,,,,,,,,,,,0,8,8,46,1,,,,,,,,,,,,,,,,,,,,,,,,,,,,
,,,,,SPR24_020,19,female,2024-04-09_15h03.53.670,jersey_experiment_5_v0,2023.2.2,Win32,85.47008547,,,,,,,,,,,,,,,,696.8122,698.1061,698.1061,699.2119,return,0.1923,,99.08854167,,,,,,FBP-PT-17.png,0.45,1.2,50,0.5,,,,,,,,,,,,,0,9,9,49,1,,,,,,,,,,,,,,,,,,,,,,,,,,,,
,,,,,SPR24_020,19,female,2024-04-09_15h03.53.670,jersey_experiment_5_v0,2023.2.2,Win32,85.47008547,,,,,,,,,,,,,,,,699.2121,700.2591,700.2591,700.9297,return,0.0942,,99.08854167,,,,,,FBP-OG-81.png,0.43,1.2,9,0.25,,,,,,,,,,,,,0,10,10,8,1,,,,,,,,,,,,,,,,,,,,,,,,,,,,
,,,,,SPR24_020,19,female,2024-04-09_15h03.53.670,jersey_experiment_5_v0,2023.2.2,Win32,85.47008547,,,,,,,,,,,,,,,,700.9299,702.2238,702.2239,703.5535,return,0.0937,,75,,,,,,FBP-YG-17.png,0.37,1.2,17,0.5,,,,,,,,,,,,,0,11,11,16,1,,,,,,,,,,,,,,,,,,,,,,,,,,,,
,,,,,SPR24_020,19,female,2024-04-09_15h03.53.670,jersey_experiment_5_v0,2023.2.2,Win32,85.47008547,,,,,,,,,,,,,,,,703.5537,704.6003,704.6003,705.6828,return,0.0943,,75.13020833,,,,,,FBP-RB-19.png,0.37,1.2,42,0.25,,,,,,,,,,,,,0,12,12,41,1,,,,,,,,,,,,,,,,,,,,,,,,,,,,
,,,,,SPR24_020,19,female,2024-04-09_15h03.53.670,jersey_experiment_5_v0,2023.2.2,Win32,85.47008547,,,,,,,,,,,,,,,,705.683,706.977,706.977,709.6241,return,0.0539,,99.08854167,,,,,,FBP-YG-18.png,0.43,1.2,24,0.5,,,,,,,,,,,,,0,13,13,23,1,,,,,,,,,,,,,,,,,,,,,,,,,,,,
,,,,,SPR24_020,19,female,2024-04-09_15h03.53.670,jersey_experiment_5_v0,2023.2.2,Win32,85.47008547,,,,,,,,,,,,,,,,709.6243,710.6712,710.6712,711.2596,return,0.0988,,99.08854167,,,,,,FBP-RB-19.png,0.43,1.2,44,0.25,,,,,,,,,,,,,0,14,14,43,1,,,,,,,,,,,,,,,,,,,,,,,,,,,,
,,,,,SPR24_020,19,female,2024-04-09_15h03.53.670,jersey_experiment_5_v0,2023.2.2,Win32,85.47008547,,,,,,,,,,,,,,,,711.2598,712.5536,712.5537,713.1654,return,0.2481,,99.08854167,,,,,,FBP-YG-17.png,0.43,1.2,19,0.5,,,,,,,,,,,,,0,15,15,18,1,,,,,,,,,,,,,,,,,,,,,,,,,,,,
,,,,,SPR24_020,19,female,2024-04-09_15h03.53.670,jersey_experiment_5_v0,2023.2.2,Win32,85.47008547,,,,,,,,,,,,,,,,713.1656,714.2127,714.2127,715.2596,return,0.2491,,99.08854167,,,,,,FBP-OG-81.png,0.4,1.2,8,0.25,,,,,,,,,,,,,0,16,16,7,1,,,,,,,,,,,,,,,,,,,,,,,,,,,,
,,,,,SPR24_020,19,female,2024-04-09_15h03.53.670,jersey_experiment_5_v0,2023.2.2,Win32,85.47008547,,,,,,,,,,,,,,,,715.2597,716.5538,716.5539,717.8362,return,0.1199,,74.609375,,,,,,FBP-YG-19.png,0.35,1.2,26,0.5,,,,,,,,,,,,,0,17,17,25,1,,,,,,,,,,,,,,,,,,,,,,,,,,,,
,,,,,SPR24_020,19,female,2024-04-09_15h03.53.670,jersey_experiment_5_v0,2023.2.2,Win32,85.47008547,,,,,,,,,,,,,,,,717.8364,718.8834,718.8835,721.3541,return,0.0768,,63.671875,,,,,,FBP-OG-81.png,0.35,1.2,6,0.25,,,,,,,,,,,,,0,18,18,5,1,,,,,,,,,,,,,,,,,,,,,,,,,,,,
,,,,,SPR24_020,19,female,2024-04-09_15h03.53.670,jersey_experiment_5_v0,2023.2.2,Win32,85.47008547,,,,,,,,,,,,,,,,721.3543,722.6482,722.6482,725.4365,return,0.157,,74.08854167,,,,,,FBP-PT-19.png,0.4,1.2,58,0.5,,,,,,,,,,,,,0,19,19,57,1,,,,,,,,,,,,,,,,,,,,,,,,,,,,
,,,,,SPR24_020,19,female,2024-04-09_15h03.53.670,jersey_experiment_5_v0,2023.2.2,Win32,85.47008547,,,,,,,,,,,,,,,,725.4367,726.4835,726.4835,729.0483,return,0.1018,,99.21875,,,,,,FBP-OG-81.png,0.45,1.2,10,0.25,,,,,,,,,,,,,0,20,20,9,1,,,,,,,,,,,,,,,,,,,,,,,,,,,,
,,,,,SPR24_020,19,female,2024-04-09_15h03.53.670,jersey_experiment_5_v0,2023.2.2,Win32,85.47008547,,,,,,,,,,,,,,,,729.0486,730.3426,730.3426,730.8014,return,0.0844,,99.21875,,,,,,FBP-PT-18.png,0.43,1.2,54,0.5,,,,,,,,,,,,,0,21,21,53,1,,,,,,,,,,,,,,,,,,,,,,,,,,,,
,,,,,SPR24_020,19,female,2024-04-09_15h03.53.670,jersey_experiment_5_v0,2023.2.2,Win32,85.47008547,,,,,,,,,,,,,,,,730.8017,732.0956,732.0956,732.6367,return,0.1798,,99.21875,,,,,,FBP-YG-19.png,0.43,1.2,29,0.5,,,,,,,,,,,,,0,22,22,28,1,,,,,,,,,,,,,,,,,,,,,,,,,,,,
,,,,,SPR24_020,19,female,2024-04-09_15h03.53.670,jersey_experiment_5_v0,2023.2.2,Win32,85.47008547,,,,,,,,,,,,,,,,732.637,733.6838,733.6838,735.084,return,0.0632,,88.15104167,,,,,,FBP-OG-71.png,0.37,1.2,2,0.25,,,,,,,,,,,,,0,23,23,1,1,,,,,,,,,,,,,,,,,,,,,,,,,,,,
,,,,,SPR24_020,19,female,2024-04-09_15h03.53.670,jersey_experiment_5_v0,2023.2.2,Win32,85.47008547,,,,,,,,,,,,,,,,735.0842,736.131,736.131,737.0369,return,0.0729,,88.15104167,,,,,,FBP-OG-91.png,0.43,1.2,14,0.25,,,,,,,,,,,,,0,24,24,13,1,,,,,,,,,,,,,,,,,,,,,,,,,,,,
,,,,,SPR24_020,19,female,2024-04-09_15h03.53.670,jersey_experiment_5_v0,2023.2.2,Win32,85.47008547,,,,,,,,,,,,,,,,737.0371,738.084,738.084,739.3545,return,0.1936,,75,,,,,,FBP-RB-17.png,0.37,1.2,32,0.25,,,,,,,,,,,,,0,25,25,31,1,,,,,,,,,,,,,,,,,,,,,,,,,,,,
,,,,,SPR24_020,19,female,2024-04-09_15h03.53.670,jersey_experiment_5_v0,2023.2.2,Win32,85.47008547,,,,,,,,,,,,,,,,739.3548,740.4019,740.4019,742.3783,return,0.2167,,99.73958333,,,,,,FBP-RB-19.png,0.45,1.2,45,0.25,,,,,,,,,,,,,0,26,26,44,1,,,,,,,,,,,,,,,,,,,,,,,,,,,,
,,,,,SPR24_020,19,female,2024-04-09_15h03.53.670,jersey_experiment_5_v0,2023.2.2,Win32,85.47008547,,,,,,,,,,,,,,,,742.3785,743.4254,743.4254,744.8727,return,0.0901,,74.609375,,,,,,FBP-RB-19.png,0.35,1.2,41,0.25,,,,,,,,,,,,,0,27,27,40,1,,,,,,,,,,,,,,,,,,,,,,,,,,,,
,,,,,SPR24_020,19,female,2024-04-09_15h03.53.670,jersey_experiment_5_v0,2023.2.2,Win32,85.47008547,,,,,,,,,,,,,,,,744.8729,745.9196,745.9196,747.2726,return,0.2888,,98.56770833,,,,,,FBP-RB-18.png,0.43,1.2,39,0.25,,,,,,,,,,,,,0,28,28,38,1,,,,,,,,,,,,,,,,,,,,,,,,,,,,
,,,,,SPR24_020,19,female,2024-04-09_15h03.53.670,jersey_experiment_5_v0,2023.2.2,Win32,85.47008547,,,,,,,,,,,,,,,,747.2729,748.5668,748.5668,751.0023,return,0.157,,88.02083333,,,,,,FBP-PT-18.png,0.4,1.2,53,0.5,,,,,,,,,,,,,0,29,29,52,1,,,,,,,,,,,,,,,,,,,,,,,,,,,,
,,,,,SPR24_020,19,female,2024-04-09_15h03.53.670,jersey_experiment_5_v0,2023.2.2,Win32,85.47008547,,,,,,,,,,,,,,,,751.0024,752.0492,752.0492,759.9671,return,0.2364,,50.26041667,,,,,,FBP-RB-18.png,0.35,1.2,36,0.25,,,,,,,,,,,,,0,30,30,35,1,,,,,,,,,,,,,,,,,,,,,,,,,,,,
,,,,,SPR24_020,19,female,2024-04-09_15h03.53.670,jersey_experiment_5_v0,2023.2.2,Win32,85.47008547,,,,,,,,,,,,,,,,759.9673,761.0143,761.0144,763.2263,return,0.0885,,88.28125,,,,,,FBP-OG-71.png,0.45,1.2,5,0.25,,,,,,,,,,,,,0,31,31,4,1,,,,,,,,,,,,,,,,,,,,,,,,,,,,
,,,,,SPR24_020,19,female,2024-04-09_15h03.53.670,jersey_experiment_5_v0,2023.2.2,Win32,85.47008547,,,,,,,,,,,,,,,,763.2265,764.2733,764.2733,766.6497,return,1.5223,,74.609375,,,,,,FBP-RB-18.png,0.37,1.2,37,0.25,,,,,,,,,,,,,0,32,32,36,1,,,,,,,,,,,,,,,,,,,,,,,,,,,,
,,,,,SPR24_020,19,female,2024-04-09_15h03.53.670,jersey_experiment_5_v0,2023.2.2,Win32,85.47008547,,,,,,,,,,,,,,,,766.6499,767.9443,767.9443,768.8145,return,0.0825,,74.86979167,,,,,,FBP-YG-18.png,0.37,1.2,22,0.5,,,,,,,,,,,,,0,33,33,21,1,,,,,,,,,,,,,,,,,,,,,,,,,,,,
,,,,,SPR24_020,19,female,2024-04-09_15h03.53.670,jersey_experiment_5_v0,2023.2.2,Win32,85.47008547,,,,,,,,,,,,,,,,768.8146,770.1088,770.1088,771.2972,return,0.1178,,99.47916667,,,,,,FBP-YG-18.png,0.45,1.2,25,0.5,,,,,,,,,,,,,0,34,34,24,1,,,,,,,,,,,,,,,,,,,,,,,,,,,,
,,,,,SPR24_020,19,female,2024-04-09_15h03.53.670,jersey_experiment_5_v0,2023.2.2,Win32,85.47008547,,,,,,,,,,,,,,,,771.2974,772.3442,772.3442,773.0971,return,0.2188,,98.95833333,,,,,,FBP-OG-71.png,0.43,1.2,4,0.25,,,,,,,,,,,,,0,35,35,3,1,,,,,,,,,,,,,,,,,,,,,,,,,,,,
,,,,,SPR24_020,19,female,2024-04-09_15h03.53.670,jersey_experiment_5_v0,2023.2.2,Win32,85.47008547,,,,,,,,,,,,,,,,773.0973,774.3912,774.3913,774.8502,return,0.1179,,98.69791667,,,,,,FBP-YG-19.png,0.45,1.2,30,0.5,,,,,,,,,,,,,0,36,36,29,1,,,,,,,,,,,,,,,,,,,,,,,,,,,,
,,,,,SPR24_020,19,female,2024-04-09_15h03.53.670,jersey_experiment_5_v0,2023.2.2,Win32,85.47008547,,,,,,,,,,,,,,,,774.8504,776.1443,776.1443,776.7208,return,0.1983,,98.69791667,,,,,,FBP-PT-19.png,0.45,1.2,60,0.5,,,,,,,,,,,,,0,37,37,59,1,,,,,,,,,,,,,,,,,,,,,,,,,,,,
,,,,,SPR24_020,19,female,2024-04-09_15h03.53.670,jersey_experiment_5_v0,2023.2.2,Win32,85.47008547,,,,,,,,,,,,,,,,776.721,777.7679,777.7679,779.2504,return,0.3534,,49.73958333,,,,,,FBP-RB-17.png,0.35,1.2,31,0.25,,,,,,,,,,,,,0,38,38,30,1,,,,,,,,,,,,,,,,,,,,,,,,,,,,
,,,,,SPR24_020,19,female,2024-04-09_15h03.53.670,jersey_experiment_5_v0,2023.2.2,Win32,85.47008547,,,,,,,,,,,,,,,,779.2505,780.5446,780.5446,781.4742,return,0.0944,,37.890625,,,,,,FBP-YG-17.png,0.35,1.2,16,0.5,,,,,,,,,,,,,0,39,39,15,1,,,,,,,,,,,,,,,,,,,,,,,,,,,,
,,,,,SPR24_020,19,female,2024-04-09_15h03.53.670,jersey_experiment_5_v0,2023.2.2,Win32,85.47008547,,,,,,,,,,,,,,,,781.4744,782.5212,782.5212,783.9329,return,0.0724,,74.47916667,,,,,,FBP-RB-17.png,0.4,1.2,33,0.25,,,,,,,,,,,,,0,40,40,32,1,,,,,,,,,,,,,,,,,,,,,,,,,,,,
,,,,,SPR24_020,19,female,2024-04-09_15h03.53.670,jersey_experiment_5_v0,2023.2.2,Win32,85.47008547,,,,,,,,,,,,,,,,783.9331,785.2271,785.2271,787.2271,return,0.0978,,75,,,,,,FBP-PT-17.png,0.4,1.2,48,0.5,,,,,,,,,,,,,0,41,41,47,1,,,,,,,,,,,,,,,,,,,,,,,,,,,,
,,,,,SPR24_020,19,female,2024-04-09_15h03.53.670,jersey_experiment_5_v0,2023.2.2,Win32,85.47008547,,,,,,,,,,,,,,,,787.2274,788.5214,788.5214,789.1801,return,0.0732,,74.73958333,,,,,,FBP-YG-19.png,0.4,1.2,28,0.5,,,,,,,,,,,,,0,42,42,27,1,,,,,,,,,,,,,,,,,,,,,,,,,,,,
,,,,,SPR24_020,19,female,2024-04-09_15h03.53.670,jersey_experiment_5_v0,2023.2.2,Win32,85.47008547,,,,,,,,,,,,,,,,789.1804,790.4742,790.4743,791.6508,return,0.0464,,62.76041667,,,,,,FBP-PT-19.png,0.35,1.2,56,0.5,,,,,,,,,,,,,0,43,43,55,1,,,,,,,,,,,,,,,,,,,,,,,,,,,,
,,,,,SPR24_020,19,female,2024-04-09_15h03.53.670,jersey_experiment_5_v0,2023.2.2,Win32,85.47008547,,,,,,,,,,,,,,,,791.6511,792.945,792.945,793.451,return,0.0995,,62.23958333,,,,,,FBP-YG-18.png,0.35,1.2,21,0.5,,,,,,,,,,,,,0,44,44,20,1,,,,,,,,,,,,,,,,,,,,,,,,,,,,
,,,,,SPR24_020,19,female,2024-04-09_15h03.53.670,jersey_experiment_5_v0,2023.2.2,Win32,85.47008547,,,,,,,,,,,,,,,,793.4511,794.7449,794.7449,796.1215,return,0.0281,,88.28125,,,,,,FBP-PT-17.png,0.43,1.2,49,0.5,,,,,,,,,,,,,0,45,45,48,1,,,,,,,,,,,,,,,,,,,,,,,,,,,,
,,,,,SPR24_020,19,female,2024-04-09_15h03.53.670,jersey_experiment_5_v0,2023.2.2,Win32,85.47008547,,,,,,,,,,,,,,,,796.1218,797.1686,797.1687,799.5452,return,0.1717,,62.23958333,,,,,,FBP-OG-81.png,0.37,1.2,7,0.25,,,,,,,,,,,,,0,46,46,6,1,,,,,,,,,,,,,,,,,,,,,,,,,,,,
,,,,,SPR24_020,19,female,2024-04-09_15h03.53.670,jersey_experiment_5_v0,2023.2.2,Win32,85.47008547,,,,,,,,,,,,,,,,799.5454,800.5923,800.5923,802.6158,return,0.1953,,87.63020833,,,,,,FBP-RB-19.png,0.4,1.2,43,0.25,,,,,,,,,,,,,0,47,47,42,1,,,,,,,,,,,,,,,,,,,,,,,,,,,,
,,,,,SPR24_020,19,female,2024-04-09_15h03.53.670,jersey_experiment_5_v0,2023.2.2,Win32,85.47008547,,,,,,,,,,,,,,,,802.616,803.9102,803.9102,804.3924,return,0.0782,,87.63020833,,,,,,FBP-YG-18.png,0.4,1.2,23,0.5,,,,,,,,,,,,,0,48,48,22,1,,,,,,,,,,,,,,,,,,,,,,,,,,,,
,,,,,SPR24_020,19,female,2024-04-09_15h03.53.670,jersey_experiment_5_v0,2023.2.2,Win32,85.47008547,,,,,,,,,,,,,,,,804.3926,805.4394,805.4394,806.6043,return,0.2025,,98.69791667,,,,,,FBP-RB-17.png,0.43,1.2,34,0.25,,,,,,,,,,,,,0,49,49,33,1,,,,,,,,,,,,,,,,,,,,,,,,,,,,
,,,,,SPR24_020,19,female,2024-04-09_15h03.53.670,jersey_experiment_5_v0,2023.2.2,Win32,85.47008547,,,,,,,,,,,,,,,,806.6045,807.8983,807.8984,808.2396,return,0.07,,98.69791667,,,,,,FBP-PT-19.png,0.43,1.2,59,0.5,,,,,,,,,,,,,0,50,50,58,1,,,,,,,,,,,,,,,,,,,,,,,,,,,,
,,,,,SPR24_020,19,female,2024-04-09_15h03.53.670,jersey_experiment_5_v0,2023.2.2,Win32,85.47008547,,,,,,,,,,,,,,,,808.2398,809.5338,809.5338,811.8986,return,0.1466,,87.5,,,,,,FBP-PT-19.png,0.37,1.2,57,0.5,,,,,,,,,,,,,0,51,51,56,1,,,,,,,,,,,,,,,,,,,,,,,,,,,,
,,,,,SPR24_020,19,female,2024-04-09_15h03.53.670,jersey_experiment_5_v0,2023.2.2,Win32,85.47008547,,,,,,,,,,,,,,,,811.8988,813.1927,813.1927,814.5574,return,0.2721,,63.93229167,,,,,,FBP-PT-18.png,0.35,1.2,51,0.5,,,,,,,,,,,,,0,52,52,50,1,,,,,,,,,,,,,,,,,,,,,,,,,,,,
,,,,,SPR24_020,19,female,2024-04-09_15h03.53.670,jersey_experiment_5_v0,2023.2.2,Win32,85.47008547,,,,,,,,,,,,,,,,814.5577,815.8516,815.8516,818.24,return,0.0719,,74.47916667,,,,,,FBP-PT-18.png,0.37,1.2,52,0.5,,,,,,,,,,,,,0,53,53,51,1,,,,,,,,,,,,,,,,,,,,,,,,,,,,
,,,,,SPR24_020,19,female,2024-04-09_15h03.53.670,jersey_experiment_5_v0,2023.2.2,Win32,85.47008547,,,,,,,,,,,,,,,,818.2402,819.5342,819.5342,822.1931,return,1.1898,,100,,,,,,FBP-YG-17.png,0.45,1.2,20,0.5,,,,,,,,,,,,,0,54,54,19,1,,,,,,,,,,,,,,,,,,,,,,,,,,,,
,,,,,SPR24_020,19,female,2024-04-09_15h03.53.670,jersey_experiment_5_v0,2023.2.2,Win32,85.47008547,,,,,,,,,,,,,,,,822.1933,823.2402,823.2402,824.4402,return,0.1112,,86.45833333,,,,,,FBP-OG-91.png,0.4,1.2,13,0.25,,,,,,,,,,,,,0,55,55,12,1,,,,,,,,,,,,,,,,,,,,,,,,,,,,
,,,,,SPR24_020,19,female,2024-04-09_15h03.53.670,jersey_experiment_5_v0,2023.2.2,Win32,85.47008547,,,,,,,,,,,,,,,,824.4405,825.7343,825.7343,828.3816,return,1.1909,,87.36979167,,,,,,FBP-YG-19.png,0.37,1.2,27,0.5,,,,,,,,,,,,,0,56,56,26,1,,,,,,,,,,,,,,,,,,,,,,,,,,,,
,,,,,SPR24_020,19,female,2024-04-09_15h03.53.670,jersey_experiment_5_v0,2023.2.2,Win32,85.47008547,,,,,,,,,,,,,,,,828.3818,829.4287,829.4288,830.5228,return,0.0877,,86.71875,,,,,,FBP-OG-71.png,0.4,1.2,3,0.25,,,,,,,,,,,,,0,57,57,2,1,,,,,,,,,,,,,,,,,,,,,,,,,,,,
,,,,,SPR24_020,19,female,2024-04-09_15h03.53.670,jersey_experiment_5_v0,2023.2.2,Win32,85.47008547,,,,,,,,,,,,,,,,830.5231,831.5698,831.5698,832.523,return,0.0404,,98.69791667,,,,,,FBP-RB-18.png,0.45,1.2,40,0.25,,,,,,,,,,,,,0,58,58,39,1,,,,,,,,,,,,,,,,,,,,,,,,,,,,
,,,,,SPR24_020,19,female,2024-04-09_15h03.53.670,jersey_experiment_5_v0,2023.2.2,Win32,85.47008547,,,,,,,,,,,,,,,,832.5232,833.5699,833.5699,834.0289,return,0.0718,,98.69791667,,,,,,FBP-RB-17.png,0.45,1.2,35,0.25,,,,,,,,,,,,,0,59,59,34,1,,,,,,,,,,,,,,,,,,,,,,,,,,,,
,,,,,SPR24_020,19,female,2024-04-09_15h03.53.670,jersey_experiment_5_v0,2023.2.2,Win32,85.47008547,,,,,,,,,,,,,,,,834.0304,835.323,835.323,835.7111,return,0.0342,,98.69791667,,,,,,FBP-PT-91.png,0.43,1.2,59,0.5,,,,,,,,,,,,,,,,,,0,0,0,58,1,,,,,,,,,,,,,,,,,,,,,,,
,,,,,SPR24_020,19,female,2024-04-09_15h03.53.670,jersey_experiment_5_v0,2023.2.2,Win32,85.47008547,,,,,,,,,,,,,,,,835.7114,837.0053,837.0053,839.1702,return,0.3627,,74.86979167,,,,,,FBP-PT-71.png,0.35,1.2,46,0.5,,,,,,,,,,,,,,,,,,0,1,1,45,1,,,,,,,,,,,,,,,,,,,,,,,
,,,,,SPR24_020,19,female,2024-04-09_15h03.53.670,jersey_experiment_5_v0,2023.2.2,Win32,85.47008547,,,,,,,,,,,,,,,,839.1704,840.2172,840.2173,841.9938,return,0.1241,,49.47916667,,,,,,FBP-OG-17.png,0.35,1.2,1,0.25,,,,,,,,,,,,,,,,,,0,2,2,0,1,,,,,,,,,,,,,,,,,,,,,,,
,,,,,SPR24_020,19,female,2024-04-09_15h03.53.670,jersey_experiment_5_v0,2023.2.2,Win32,85.47008547,,,,,,,,,,,,,,,,841.9939,843.0409,843.0409,844.9939,return,0.9177,,50.13020833,,,,,,FBP-RB-71.png,0.37,1.2,32,0.25,,,,,,,,,,,,,,,,,,0,3,3,31,1,,,,,,,,,,,,,,,,,,,,,,,
,,,,,SPR24_020,19,female,2024-04-09_15h03.53.670,jersey_experiment_5_v0,2023.2.2,Win32,85.47008547,,,,,,,,,,,,,,,,844.9941,846.2881,846.2882,847.7117,return,0.4343,,76.04166667,,,,,,FBP-PT-71.png,0.43,1.2,49,0.5,,,,,,,,,,,,,,,,,,0,4,4,48,1,,,,,,,,,,,,,,,,,,,,,,,
,,,,,SPR24_020,19,female,2024-04-09_15h03.53.670,jersey_experiment_5_v0,2023.2.2,Win32,85.47008547,,,,,,,,,,,,,,,,847.7119,849.0058,849.0058,849.5471,return,0.1563,,75.13020833,,,,,,FBP-YG-71.png,0.37,1.2,17,0.5,,,,,,,,,,,,,,,,,,0,5,5,16,1,,,,,,,,,,,,,,,,,,,,,,,
,,,,,SPR24_020,19,female,2024-04-09_15h03.53.670,jersey_experiment_5_v0,2023.2.2,Win32,85.47008547,,,,,,,,,,,,,,,,849.5473,850.5942,850.5943,851.8059,return,0.1053,,74.47916667,,,,,,FBP-OG-19.png,0.37,1.2,12,0.25,,,,,,,,,,,,,,,,,,0,6,6,11,1,,,,,,,,,,,,,,,,,,,,,,,
,,,,,SPR24_020,19,female,2024-04-09_15h03.53.670,jersey_experiment_5_v0,2023.2.2,Win32,85.47008547,,,,,,,,,,,,,,,,851.8062,852.8531,852.8531,854.1237,return,0.8161,,74.47916667,,,,,,FBP-RB-71.png,0.35,1.2,31,0.25,,,,,,,,,,,,,,,,,,0,7,7,30,1,,,,,,,,,,,,,,,,,,,,,,,
,,,,,SPR24_020,19,female,2024-04-09_15h03.53.670,jersey_experiment_5_v0,2023.2.2,Win32,85.47008547,,,,,,,,,,,,,,,,854.1239,855.4182,855.4182,856.1592,return,0.0812,,82.421875,,,,,,FBP-YG-71.png,0.4,1.2,18,0.5,,,,,,,,,,,,,,,,,,0,8,8,17,1,,,,,,,,,,,,,,,,,,,,,,,
,,,,,SPR24_020,19,female,2024-04-09_15h03.53.670,jersey_experiment_5_v0,2023.2.2,Win32,85.47008547,,,,,,,,,,,,,,,,856.1594,857.4531,857.4532,858.7708,return,0.0238,,85.02604167,,,,,,FBP-YG-91.png,0.35,1.2,26,0.5,,,,,,,,,,,,,,,,,,0,9,9,25,1,,,,,,,,,,,,,,,,,,,,,,,
,,,,,SPR24_020,19,female,2024-04-09_15h03.53.670,jersey_experiment_5_v0,2023.2.2,Win32,85.47008547,,,,,,,,,,,,,,,,858.7711,859.818,859.818,860.8887,return,0.0653,,84.765625,,,,,,FBP-OG-17.png,0.37,1.2,2,0.25,,,,,,,,,,,,,,,,,,0,10,10,1,1,,,,,,,,,,,,,,,,,,,,,,,
,,,,,SPR24_020,19,female,2024-04-09_15h03.53.670,jersey_experiment_5_v0,2023.2.2,Win32,85.47008547,,,,,,,,,,,,,,,,860.8889,861.9357,861.9357,862.9947,return,0.0706,,74.609375,,,,,,FBP-RB-81.png,0.35,1.2,36,0.25,,,,,,,,,,,,,,,,,,0,11,11,35,1,,,,,,,,,,,,,,,,,,,,,,,
,,,,,SPR24_020,19,female,2024-04-09_15h03.53.670,jersey_experiment_5_v0,2023.2.2,Win32,85.47008547,,,,,,,,,,,,,,,,862.9948,864.2887,864.2888,866.9594,return,0.057,,79.03645833,,,,,,FBP-PT-91.png,0.4,1.2,58,0.5,,,,,,,,,,,,,,,,,,0,12,12,57,1,,,,,,,,,,,,,,,,,,,,,,,
,,,,,SPR24_020,19,female,2024-04-09_15h03.53.670,jersey_experiment_5_v0,2023.2.2,Win32,85.47008547,,,,,,,,,,,,,,,,866.9596,868.0066,868.0066,868.8654,return,0.1752,,85.02604167,,,,,,FBP-OG-17.png,0.4,1.2,3,0.25,,,,,,,,,,,,,,,,,,0,13,13,2,1,,,,,,,,,,,,,,,,,,,,,,,
,,,,,SPR24_020,19,female,2024-04-09_15h03.53.670,jersey_experiment_5_v0,2023.2.2,Win32,85.47008547,,,,,,,,,,,,,,,,868.8657,869.9125,869.9126,870.5242,return,0.1099,,83.85416667,,,,,,FBP-OG-18.png,0.4,1.2,8,0.25,,,,,,,,,,,,,,,,,,0,14,14,7,1,,,,,,,,,,,,,,,,,,,,,,,
,,,,,SPR24_020,19,female,2024-04-09_15h03.53.670,jersey_experiment_5_v0,2023.2.2,Win32,85.47008547,,,,,,,,,,,,,,,,870.5245,871.5713,871.5713,872.5715,return,0.0874,,98.30729167,,,,,,FBP-OG-18.png,0.45,1.2,10,0.25,,,,,,,,,,,,,,,,,,0,15,15,9,1,,,,,,,,,,,,,,,,,,,,,,,
,,,,,SPR24_020,19,female,2024-04-09_15h03.53.670,jersey_experiment_5_v0,2023.2.2,Win32,85.47008547,,,,,,,,,,,,,,,,872.5717,873.8657,873.8658,875.2303,return,0.0608,,74.73958333,,,,,,FBP-PT-91.png,0.37,1.2,57,0.5,,,,,,,,,,,,,,,,,,0,16,16,56,1,,,,,,,,,,,,,,,,,,,,,,,
,,,,,SPR24_020,19,female,2024-04-09_15h03.53.670,jersey_experiment_5_v0,2023.2.2,Win32,85.47008547,,,,,,,,,,,,,,,,875.2305,876.2774,876.2774,877.1481,return,0.0513,,98.69791667,,,,,,FBP-OG-19.png,0.45,1.2,15,0.25,,,,,,,,,,,,,,,,,,0,17,17,14,1,,,,,,,,,,,,,,,,,,,,,,,
,,,,,SPR24_020,19,female,2024-04-09_15h03.53.670,jersey_experiment_5_v0,2023.2.2,Win32,85.47008547,,,,,,,,,,,,,,,,877.1483,878.4422,878.4423,879.3364,return,0.0887,,99.73958333,,,,,,FBP-YG-81.png,0.45,1.2,25,0.5,,,,,,,,,,,,,,,,,,0,18,18,24,1,,,,,,,,,,,,,,,,,,,,,,,
,,,,,SPR24_020,19,female,2024-04-09_15h03.53.670,jersey_experiment_5_v0,2023.2.2,Win32,85.47008547,,,,,,,,,,,,,,,,879.3366,880.6305,880.6305,881.1364,return,0.1783,,97.00520833,,,,,,FBP-PT-81.png,0.43,1.2,54,0.5,,,,,,,,,,,,,,,,,,0,19,19,53,1,,,,,,,,,,,,,,,,,,,,,,,
,,,,,SPR24_020,19,female,2024-04-09_15h03.53.670,jersey_experiment_5_v0,2023.2.2,Win32,85.47008547,,,,,,,,,,,,,,,,881.1366,882.4307,882.4307,884.266,return,0.052,,88.02083333,,,,,,FBP-YG-81.png,0.37,1.2,22,0.5,,,,,,,,,,,,,,,,,,0,20,20,21,1,,,,,,,,,,,,,,,,,,,,,,,
,,,,,SPR24_020,19,female,2024-04-09_15h03.53.670,jersey_experiment_5_v0,2023.2.2,Win32,85.47008547,,,,,,,,,,,,,,,,884.2663,885.313,885.313,886.7956,return,0.1933,,98.95833333,,,,,,FBP-RB-91.png,0.45,1.2,45,0.25,,,,,,,,,,,,,,,,,,0,21,21,44,1,,,,,,,,,,,,,,,,,,,,,,,
,,,,,SPR24_020,19,female,2024-04-09_15h03.53.670,jersey_experiment_5_v0,2023.2.2,Win32,85.47008547,,,,,,,,,,,,,,,,886.7957,887.8426,887.8426,888.4897,return,0.0634,,97.91666667,,,,,,FBP-RB-71.png,0.43,1.2,34,0.25,,,,,,,,,,,,,,,,,,0,22,22,33,1,,,,,,,,,,,,,,,,,,,,,,,
,,,,,SPR24_020,19,female,2024-04-09_15h03.53.670,jersey_experiment_5_v0,2023.2.2,Win32,85.47008547,,,,,,,,,,,,,,,,888.4899,889.7838,889.7839,891.4192,return,0.2286,,90.234375,,,,,,FBP-YG-81.png,0.4,1.2,23,0.5,,,,,,,,,,,,,,,,,,0,23,23,22,1,,,,,,,,,,,,,,,,,,,,,,,
,,,,,SPR24_020,19,female,2024-04-09_15h03.53.670,jersey_experiment_5_v0,2023.2.2,Win32,85.47008547,,,,,,,,,,,,,,,,891.4194,892.4663,892.4663,893.737,return,0.0306,,87.890625,,,,,,FBP-RB-81.png,0.43,1.2,39,0.25,,,,,,,,,,,,,,,,,,0,24,24,38,1,,,,,,,,,,,,,,,,,,,,,,,
,,,,,SPR24_020,19,female,2024-04-09_15h03.53.670,jersey_experiment_5_v0,2023.2.2,Win32,85.47008547,,,,,,,,,,,,,,,,893.7371,895.0311,895.0311,895.4075,return,0.0346,,87.890625,,,,,,FBP-PT-81.png,0.4,1.2,53,0.5,,,,,,,,,,,,,,,,,,0,25,25,52,1,,,,,,,,,,,,,,,,,,,,,,,
,,,,,SPR24_020,19,female,2024-04-09_15h03.53.670,jersey_experiment_5_v0,2023.2.2,Win32,85.47008547,,,,,,,,,,,,,,,,895.4078,896.7017,896.7018,898.4313,return,0.2357,,87.890625,,,,,,FBP-YG-91.png,0.37,1.2,27,0.5,,,,,,,,,,,,,,,,,,0,26,26,26,1,,,,,,,,,,,,,,,,,,,,,,,
,,,,,SPR24_020,19,female,2024-04-09_15h03.53.670,jersey_experiment_5_v0,2023.2.2,Win32,85.47008547,,,,,,,,,,,,,,,,898.4314,899.4783,899.4783,900.6549,return,0.1766,,97.52604167,,,,,,FBP-RB-71.png,0.45,1.2,35,0.25,,,,,,,,,,,,,,,,,,0,27,27,34,1,,,,,,,,,,,,,,,,,,,,,,,
,,,,,SPR24_020,19,female,2024-04-09_15h03.53.670,jersey_experiment_5_v0,2023.2.2,Win32,85.47008547,,,,,,,,,,,,,,,,900.6552,901.702,901.702,903.1845,return,0.061,,97.78645833,,,,,,FBP-RB-91.png,0.43,1.2,44,0.25,,,,,,,,,,,,,,,,,,0,28,28,43,1,,,,,,,,,,,,,,,,,,,,,,,
,,,,,SPR24_020,19,female,2024-04-09_15h03.53.670,jersey_experiment_5_v0,2023.2.2,Win32,85.47008547,,,,,,,,,,,,,,,,903.1846,904.2314,904.2315,904.8433,return,0.1696,,97.78645833,,,,,,FBP-RB-81.png,0.45,1.2,40,0.25,,,,,,,,,,,,,,,,,,0,29,29,39,1,,,,,,,,,,,,,,,,,,,,,,,
,,,,,SPR24_020,19,female,2024-04-09_15h03.53.670,jersey_experiment_5_v0,2023.2.2,Win32,85.47008547,,,,,,,,,,,,,,,,904.8435,906.1373,906.1373,907.3374,return,0.1819,,74.34895833,,,,,,FBP-PT-81.png,0.35,1.2,51,0.5,,,,,,,,,,,,,,,,,,0,30,30,50,1,,,,,,,,,,,,,,,,,,,,,,,
,,,,,SPR24_020,19,female,2024-04-09_15h03.53.670,jersey_experiment_5_v0,2023.2.2,Win32,85.47008547,,,,,,,,,,,,,,,,907.3377,908.6317,908.6318,909.9611,return,0.0767,,74.86979167,,,,,,FBP-YG-91.png,0.4,1.2,28,0.5,,,,,,,,,,,,,,,,,,0,31,31,27,1,,,,,,,,,,,,,,,,,,,,,,,
,,,,,SPR24_020,19,female,2024-04-09_15h03.53.670,jersey_experiment_5_v0,2023.2.2,Win32,85.47008547,,,,,,,,,,,,,,,,909.9613,911.2552,911.2553,911.6788,return,0.0839,,75,,,,,,FBP-PT-71.png,0.37,1.2,47,0.5,,,,,,,,,,,,,,,,,,0,32,32,46,1,,,,,,,,,,,,,,,,,,,,,,,
,,,,,SPR24_020,19,female,2024-04-09_15h03.53.670,jersey_experiment_5_v0,2023.2.2,Win32,85.47008547,,,,,,,,,,,,,,,,911.679,912.7258,912.7258,913.7377,return,0.1346,,75,,,,,,FBP-OG-18.png,0.35,1.2,6,0.25,,,,,,,,,,,,,,,,,,0,33,33,5,1,,,,,,,,,,,,,,,,,,,,,,,
,,,,,SPR24_020,19,female,2024-04-09_15h03.53.670,jersey_experiment_5_v0,2023.2.2,Win32,85.47008547,,,,,,,,,,,,,,,,913.738,914.7849,914.7849,916.2673,return,0.0976,,86.45833333,,,,,,FBP-RB-71.png,0.4,1.2,33,0.25,,,,,,,,,,,,,,,,,,0,34,34,32,1,,,,,,,,,,,,,,,,,,,,,,,
,,,,,SPR24_020,19,female,2024-04-09_15h03.53.670,jersey_experiment_5_v0,2023.2.2,Win32,85.47008547,,,,,,,,,,,,,,,,916.2675,917.5614,917.5614,918.1142,return,0.1185,,86.06770833,,,,,,FBP-PT-81.png,0.37,1.2,52,0.5,,,,,,,,,,,,,,,,,,0,35,35,51,1,,,,,,,,,,,,,,,,,,,,,,,
,,,,,SPR24_020,19,female,2024-04-09_15h03.53.670,jersey_experiment_5_v0,2023.2.2,Win32,85.47008547,,,,,,,,,,,,,,,,918.1144,919.4085,919.4085,920.0555,return,0.1146,,86.06770833,,,,,,FBP-YG-81.png,0.35,1.2,21,0.5,,,,,,,,,,,,,,,,,,0,36,36,20,1,,,,,,,,,,,,,,,,,,,,,,,
,,,,,SPR24_020,19,female,2024-04-09_15h03.53.670,jersey_experiment_5_v0,2023.2.2,Win32,85.47008547,,,,,,,,,,,,,,,,920.0557,921.1026,921.1027,922.3616,return,0.2169,,93.09895833,,,,,,FBP-OG-19.png,0.43,1.2,14,0.25,,,,,,,,,,,,,,,,,,0,37,37,13,1,,,,,,,,,,,,,,,,,,,,,,,
,,,,,SPR24_020,19,female,2024-04-09_15h03.53.670,jersey_experiment_5_v0,2023.2.2,Win32,85.47008547,,,,,,,,,,,,,,,,922.3618,923.4086,923.4086,925.2322,return,1.201,,94.40104167,,,,,,FBP-OG-19.png,0.4,1.2,13,0.25,,,,,,,,,,,,,,,,,,0,38,38,12,1,,,,,,,,,,,,,,,,,,,,,,,
,,,,,SPR24_020,19,female,2024-04-09_15h03.53.670,jersey_experiment_5_v0,2023.2.2,Win32,85.47008547,,,,,,,,,,,,,,,,925.2324,926.2793,926.2794,927.3383,return,0.1814,,93.359375,,,,,,FBP-RB-81.png,0.37,1.2,37,0.25,,,,,,,,,,,,,,,,,,0,39,39,36,1,,,,,,,,,,,,,,,,,,,,,,,
,,,,,SPR24_020,19,female,2024-04-09_15h03.53.670,jersey_experiment_5_v0,2023.2.2,Win32,85.47008547,,,,,,,,,,,,,,,,927.3384,928.3853,928.3854,929.2441,return,0.1082,,93.359375,,,,,,FBP-RB-81.png,0.4,1.2,38,0.25,,,,,,,,,,,,,,,,,,0,40,40,37,1,,,,,,,,,,,,,,,,,,,,,,,
,,,,,SPR24_020,19,female,2024-04-09_15h03.53.670,jersey_experiment_5_v0,2023.2.2,Win32,85.47008547,,,,,,,,,,,,,,,,929.2443,930.5384,930.5384,930.9619,return,0.0944,,93.359375,,,,,,FBP-PT-71.png,0.4,1.2,48,0.5,,,,,,,,,,,,,,,,,,0,41,41,47,1,,,,,,,,,,,,,,,,,,,,,,,
,,,,,SPR24_020,19,female,2024-04-09_15h03.53.670,jersey_experiment_5_v0,2023.2.2,Win32,85.47008547,,,,,,,,,,,,,,,,930.9622,932.009,932.009,933.2442,return,0.216,,98.69791667,,,,,,FBP-OG-17.png,0.45,1.2,5,0.25,,,,,,,,,,,,,,,,,,0,42,42,4,1,,,,,,,,,,,,,,,,,,,,,,,
,,,,,SPR24_020,19,female,2024-04-09_15h03.53.670,jersey_experiment_5_v0,2023.2.2,Win32,85.47008547,,,,,,,,,,,,,,,,933.2443,934.5384,934.5384,934.9738,return,0.1085,,98.69791667,,,,,,FBP-YG-91.png,0.43,1.2,29,0.5,,,,,,,,,,,,,,,,,,0,43,43,28,1,,,,,,,,,,,,,,,,,,,,,,,
,,,,,SPR24_020,19,female,2024-04-09_15h03.53.670,jersey_experiment_5_v0,2023.2.2,Win32,85.47008547,,,,,,,,,,,,,,,,934.9741,936.268,936.268,936.9385,return,0.2881,,98.56770833,,,,,,FBP-YG-91.png,0.45,1.2,30,0.5,,,,,,,,,,,,,,,,,,0,44,44,29,1,,,,,,,,,,,,,,,,,,,,,,,
,,,,,SPR24_020,19,female,2024-04-09_15h03.53.670,jersey_experiment_5_v0,2023.2.2,Win32,85.47008547,,,,,,,,,,,,,,,,936.9387,937.9858,937.9858,941.2329,return,1.223,,86.71875,,,,,,FBP-RB-91.png,0.35,1.2,41,0.25,,,,,,,,,,,,,,,,,,0,45,45,40,1,,,,,,,,,,,,,,,,,,,,,,,
,,,,,SPR24_020,19,female,2024-04-09_15h03.53.670,jersey_experiment_5_v0,2023.2.2,Win32,85.47008547,,,,,,,,,,,,,,,,941.2331,942.5269,942.527,943.4093,return,0.2823,,86.97916667,,,,,,FBP-YG-81.png,0.43,1.2,24,0.5,,,,,,,,,,,,,,,,,,0,46,46,23,1,,,,,,,,,,,,,,,,,,,,,,,
,,,,,SPR24_020,19,female,2024-04-09_15h03.53.670,jersey_experiment_5_v0,2023.2.2,Win32,85.47008547,,,,,,,,,,,,,,,,943.4096,944.7035,944.7035,947.0331,return,0.1724,,85.02604167,,,,,,FBP-PT-91.png,0.35,1.2,56,0.5,,,,,,,,,,,,,,,,,,0,47,47,55,1,,,,,,,,,,,,,,,,,,,,,,,
,,,,,SPR24_020,19,female,2024-04-09_15h03.53.670,jersey_experiment_5_v0,2023.2.2,Win32,85.47008547,,,,,,,,,,,,,,,,947.0332,948.0801,948.0802,949.4217,return,0.1197,,87.109375,,,,,,FBP-OG-18.png,0.37,1.2,7,0.25,,,,,,,,,,,,,,,,,,0,48,48,6,1,,,,,,,,,,,,,,,,,,,,,,,
,,,,,SPR24_020,19,female,2024-04-09_15h03.53.670,jersey_experiment_5_v0,2023.2.2,Win32,85.47008547,,,,,,,,,,,,,,,,949.4219,950.4684,950.4684,951.9865,return,0.1786,,92.578125,,,,,,FBP-OG-18.png,0.43,1.2,9,0.25,,,,,,,,,,,,,,,,,,0,49,49,8,1,,,,,,,,,,,,,,,,,,,,,,,
,,,,,SPR24_020,19,female,2024-04-09_15h03.53.670,jersey_experiment_5_v0,2023.2.2,Win32,85.47008547,,,,,,,,,,,,,,,,951.9868,953.0333,953.0333,953.904,return,0.058,,92.44791667,,,,,,FBP-RB-91.png,0.37,1.2,42,0.25,,,,,,,,,,,,,,,,,,0,50,50,41,1,,,,,,,,,,,,,,,,,,,,,,,
,,,,,SPR24_020,19,female,2024-04-09_15h03.53.670,jersey_experiment_5_v0,2023.2.2,Win32,85.47008547,,,,,,,,,,,,,,,,953.9043,955.1981,955.1981,955.9629,return,0.0516,,99.21875,,,,,,FBP-PT-81.png,0.45,1.2,55,0.5,,,,,,,,,,,,,,,,,,0,51,51,54,1,,,,,,,,,,,,,,,,,,,,,,,
,,,,,SPR24_020,19,female,2024-04-09_15h03.53.670,jersey_experiment_5_v0,2023.2.2,Win32,85.47008547,,,,,,,,,,,,,,,,955.963,957.257,957.257,957.9865,return,0.3678,,98.046875,,,,,,FBP-YG-71.png,0.43,1.2,19,0.5,,,,,,,,,,,,,,,,,,0,52,52,18,1,,,,,,,,,,,,,,,,,,,,,,,
,,,,,SPR24_020,19,female,2024-04-09_15h03.53.670,jersey_experiment_5_v0,2023.2.2,Win32,85.47008547,,,,,,,,,,,,,,,,957.9868,959.0334,959.0335,960.1866,return,0.1801,,49.21875,,,,,,FBP-OG-19.png,0.35,1.2,11,0.25,,,,,,,,,,,,,,,,,,0,53,53,10,1,,,,,,,,,,,,,,,,,,,,,,,
,,,,,SPR24_020,19,female,2024-04-09_15h03.53.670,jersey_experiment_5_v0,2023.2.2,Win32,85.47008547,,,,,,,,,,,,,,,,960.1867,961.4807,961.4807,962.8337,return,0.119,,98.17708333,,,,,,FBP-YG-71.png,0.45,1.2,20,0.5,,,,,,,,,,,,,,,,,,0,54,54,19,1,,,,,,,,,,,,,,,,,,,,,,,
,,,,,SPR24_020,19,female,2024-04-09_15h03.53.670,jersey_experiment_5_v0,2023.2.2,Win32,85.47008547,,,,,,,,,,,,,,,,962.8339,964.1278,964.1278,964.8338,return,0.3671,,94.53125,,,,,,FBP-PT-71.png,0.45,1.2,50,0.5,,,,,,,,,,,,,,,,,,0,55,55,49,1,,,,,,,,,,,,,,,,,,,,,,,
,,,,,SPR24_020,19,female,2024-04-09_15h03.53.670,jersey_experiment_5_v0,2023.2.2,Win32,85.47008547,,,,,,,,,,,,,,,,964.8341,965.8808,965.8808,967.6574,return,0.0188,,97.13541667,,,,,,FBP-OG-17.png,0.43,1.2,4,0.25,,,,,,,,,,,,,,,,,,0,56,56,3,1,,,,,,,,,,,,,,,,,,,,,,,
,,,,,SPR24_020,19,female,2024-04-09_15h03.53.670,jersey_experiment_5_v0,2023.2.2,Win32,85.47008547,,,,,,,,,,,,,,,,967.6577,968.9516,968.9516,969.5045,return,0.2117,,99.86979167,,,,,,FBP-PT-91.png,0.45,1.2,60,0.5,,,,,,,,,,,,,,,,,,0,57,57,59,1,,,,,,,,,,,,,,,,,,,,,,,
,,,,,SPR24_020,19,female,2024-04-09_15h03.53.670,jersey_experiment_5_v0,2023.2.2,Win32,85.47008547,,,,,,,,,,,,,,,,969.5047,970.5516,970.5516,971.6457,return,0.084,,88.15104167,,,,,,FBP-RB-91.png,0.4,1.2,43,0.25,,,,,,,,,,,,,,,,,,0,58,58,42,1,,,,,,,,,,,,,,,,,,,,,,,
,,,,,SPR24_020,19,female,2024-04-09_15h03.53.670,jersey_experiment_5_v0,2023.2.2,Win32,85.47008547,,,,,,,,,,,,,,,,971.6458,972.9399,972.9399,973.8575,return,0.1884,,75.52083333,,,,,,FBP-YG-71.png,0.35,1.2,16,0.5,,,,,,,,,,,,,,,,,,0,59,59,15,1,,,,,,,,,,,,,,,,,,,,,,,
,,,,,SPR24_020,19,female,2024-04-09_15h03.53.670,jersey_experiment_5_v0,2023.2.2,Win32,85.47008547,,,,,,,,,,,,,,,,,,,,,,,,,,,,,,,,,,,,,,,,,,,,,,,,,,,,,,,,973.8581,981.1993,return,7.3287,,,,,,,,,,,,,,,,,,,
,,,,,SPR24_020,19,female,2024-04-09_15h03.53.670,jersey_experiment_5_v0,2023.2.2,Win32,85.47008547,,,,,,,,,,,,,,,,,,,,,,,,,,,,,,,,,,,,,,,,,,,,,,,,,,,,,,,,,,,,,981.1994,984.9524,1,3.0029,return,0.7347,,,,,,,,,,,,
,,,,,SPR24_020,19,female,2024-04-09_15h03.53.670,jersey_experiment_5_v0,2023.2.2,Win32,85.47008547,,,,,,,,,,,,,,,,,,,,,,,,,,,,,,,,,,,,,,,,,,,,,,,,,,,,,,,,,,,,,,,,,,,,984.9525,1023.4408,perception of body size based on race,right,25.2521,,,,,,
,,,,,SPR24_020,19,female,2024-04-09_15h03.53.670,jersey_experiment_5_v0,2023.2.2,Win32,85.47008547,,,,,,,,,,,,,,,,,,,,,,,,,,,,,,,,,,,,,,,,,,,,,,,,,,,,,,,,,,,,,,,,,,,,,,,,,,1023.4409,1026.5302,return,3.0788,