requirements.started,requirements.stopped,key_resp_3.keys,key_resp_3.rt,key_resp_3.duration,Subject ID,Age,Gender,date,expName,psychopyVersion,OS,frameRate,instructions1.started,instructions1.stopped,key_resp.keys,key_resp.rt,key_resp.duration,example.started,example.stopped,enter_2.keys,enter_2.rt,enter_2.duration,instructions2.started,instructions2.stopped,enter_3.keys,enter_3.rt,enter_3.duration,image.started,image.stopped,slider_2.started,slider_2.stopped,next.keys,next.rt,next.duration,slider.response,trial_block_1.thisRepN,trial_block_1.thisTrialN,trial_block_1.thisN,trial_block_1.thisIndex,trial_block_1.ran,Path,Width,Height,Index,Duration,trial_block_2.thisRepN,trial_block_2.thisTrialN,trial_block_2.thisN,trial_block_2.thisIndex,trial_block_2.ran,rest_break.started,rest_break.stopped,end_break.started,end_break.stopped,key_resp_5.keys,key_resp_5.rt,key_resp_5.duration,trial_block_3.thisRepN,trial_block_3.thisTrialN,trial_block_3.thisN,trial_block_3.thisIndex,trial_block_3.ran,trial_block_4.thisRepN,trial_block_4.thisTrialN,trial_block_4.thisN,trial_block_4.thisIndex,trial_block_4.ran,questions_intro.started,questions_intro.stopped,enter_12.keys,enter_12.rt,enter_12.duration,question2.started,question2.stopped,question_doingbest.response,question_doingbest.rt,enter_15.keys,enter_15.rt,enter_15.duration,pattern.started,pattern.stopped,pattern_2.text,enter_17.keys,enter_17.rt,enter_17.duration,thankyou.started,thankyou.stopped,enter_14.keys,enter_14.rt,enter_14.duration
0,9.13,return,9.1229,,SPR24_078,18,F,2024-04-23_12h01.23.595,jersey_experiment_5_v0,2023.2.2,Win32,84.74576271,,,,,,,,,,,,,,,,,,,,,,,,,,,,,,,,,,,,,,,,,,,,,,,,,,,,,,,,,,,,,,,,,,,,,,,,,,,,,,
,,,,,SPR24_078,18,F,2024-04-23_12h01.23.595,jersey_experiment_5_v0,2023.2.2,Win32,84.74576271,9.1301,18.0628,return,8.918,,,,,,,,,,,,,,,,,,,,,,,,,,,,,,,,,,,,,,,,,,,,,,,,,,,,,,,,,,,,,,,,,,,,,,,,,,
,,,,,SPR24_078,18,F,2024-04-23_12h01.23.595,jersey_experiment_5_v0,2023.2.2,Win32,84.74576271,,,,,,18.0629,21.7656,return,3.6684,,,,,,,,,,,,,,,,,,,,,,,,,,,,,,,,,,,,,,,,,,,,,,,,,,,,,,,,,,,,,,,,,,,,,
,,,,,SPR24_078,18,F,2024-04-23_12h01.23.595,jersey_experiment_5_v0,2023.2.2,Win32,84.74576271,,,,,,,,,,,21.7657,36.8368,return,15.0536,,,,,,,,,,,,,,,,,,,,,,,,,,,,,,,,,,,,,,,,,,,,,,,,,,,,,,,,,,,,,,,,
,,,,,SPR24_078,18,F,2024-04-23_12h01.23.595,jersey_experiment_5_v0,2023.2.2,Win32,84.74576271,,,,,,,,,,,,,,,,36.844,37.8982,37.8983,52.7786,return,3.9627,,74.86979167,0,0,0,23,1,FBP-YG-18.png,0.43,1.2,24,0.25,,,,,,,,,,,,,,,,,,,,,,,,,,,,,,,,,,,,,,,,,,,,,
,,,,,SPR24_078,18,F,2024-04-23_12h01.23.595,jersey_experiment_5_v0,2023.2.2,Win32,84.74576271,,,,,,,,,,,,,,,,52.7829,54.084,54.0843,59.5904,return,1.7435,,75,0,1,1,36,1,FBP-RB-18.png,0.37,1.2,37,0.5,,,,,,,,,,,,,,,,,,,,,,,,,,,,,,,,,,,,,,,,,,,,,
,,,,,SPR24_078,18,F,2024-04-23_12h01.23.595,jersey_experiment_5_v0,2023.2.2,Win32,84.74576271,,,,,,,,,,,,,,,,59.5906,60.8843,60.8847,62.9785,return,0.947,,50.65104167,0,2,2,11,1,FBP-OG-91.png,0.37,1.2,12,0.5,,,,,,,,,,,,,,,,,,,,,,,,,,,,,,,,,,,,,,,,,,,,,
,,,,,SPR24_078,18,F,2024-04-23_12h01.23.595,jersey_experiment_5_v0,2023.2.2,Win32,84.74576271,,,,,,,,,,,,,,,,62.9787,64.0258,64.0261,65.708,return,0.4145,,89.32291667,0,3,3,18,1,FBP-YG-17.png,0.43,1.2,19,0.25,,,,,,,,,,,,,,,,,,,,,,,,,,,,,,,,,,,,,,,,,,,,,
,,,,,SPR24_078,18,F,2024-04-23_12h01.23.595,jersey_experiment_5_v0,2023.2.2,Win32,84.74576271,,,,,,,,,,,,,,,,65.7082,67.0023,67.0025,69.5434,return,1.1539,,98.95833333,0,4,4,9,1,FBP-OG-81.png,0.45,1.2,10,0.5,,,,,,,,,,,,,,,,,,,,,,,,,,,,,,,,,,,,,,,,,,,,,
,,,,,SPR24_078,18,F,2024-04-23_12h01.23.595,jersey_experiment_5_v0,2023.2.2,Win32,84.74576271,,,,,,,,,,,,,,,,69.5436,70.5905,70.5907,73.0141,return,0.5548,,75.13020833,0,5,5,27,1,FBP-YG-19.png,0.4,1.2,28,0.25,,,,,,,,,,,,,,,,,,,,,,,,,,,,,,,,,,,,,,,,,,,,,
,,,,,SPR24_078,18,F,2024-04-23_12h01.23.595,jersey_experiment_5_v0,2023.2.2,Win32,84.74576271,,,,,,,,,,,,,,,,73.0143,74.0613,74.0615,76.7906,return,0.7453,,51.171875,0,6,6,26,1,FBP-YG-19.png,0.37,1.2,27,0.25,,,,,,,,,,,,,,,,,,,,,,,,,,,,,,,,,,,,,,,,,,,,,
,,,,,SPR24_078,18,F,2024-04-23_12h01.23.595,jersey_experiment_5_v0,2023.2.2,Win32,84.74576271,,,,,,,,,,,,,,,,76.7908,77.8377,77.8378,80.4027,return,0.4178,,61.19791667,0,7,7,47,1,FBP-PT-17.png,0.4,1.2,48,0.25,,,,,,,,,,,,,,,,,,,,,,,,,,,,,,,,,,,,,,,,,,,,,
,,,,,SPR24_078,18,F,2024-04-23_12h01.23.595,jersey_experiment_5_v0,2023.2.2,Win32,84.74576271,,,,,,,,,,,,,,,,80.4028,81.6966,81.6969,83.3087,return,0.4945,,94.66145833,0,8,8,4,1,FBP-OG-71.png,0.45,1.2,5,0.5,,,,,,,,,,,,,,,,,,,,,,,,,,,,,,,,,,,,,,,,,,,,,
,,,,,SPR24_078,18,F,2024-04-23_12h01.23.595,jersey_experiment_5_v0,2023.2.2,Win32,84.74576271,,,,,,,,,,,,,,,,83.3089,84.6027,84.603,87.1792,return,0.4239,,36.58854167,0,9,9,6,1,FBP-OG-81.png,0.37,1.2,7,0.5,,,,,,,,,,,,,,,,,,,,,,,,,,,,,,,,,,,,,,,,,,,,,
,,,,,SPR24_078,18,F,2024-04-23_12h01.23.595,jersey_experiment_5_v0,2023.2.2,Win32,84.74576271,,,,,,,,,,,,,,,,87.1795,88.4734,88.4736,90.2971,return,0.3769,,56.77083333,0,10,10,37,1,FBP-RB-18.png,0.4,1.2,38,0.5,,,,,,,,,,,,,,,,,,,,,,,,,,,,,,,,,,,,,,,,,,,,,
,,,,,SPR24_078,18,F,2024-04-23_12h01.23.595,jersey_experiment_5_v0,2023.2.2,Win32,84.74576271,,,,,,,,,,,,,,,,90.2973,91.5912,91.5914,92.9325,return,0.4184,,66.92708333,0,11,11,33,1,FBP-RB-17.png,0.43,1.2,34,0.5,,,,,,,,,,,,,,,,,,,,,,,,,,,,,,,,,,,,,,,,,,,,,
,,,,,SPR24_078,18,F,2024-04-23_12h01.23.595,jersey_experiment_5_v0,2023.2.2,Win32,84.74576271,,,,,,,,,,,,,,,,92.9327,94.2264,94.2267,95.3679,return,0.4033,,65.75520833,0,12,12,41,1,FBP-RB-19.png,0.37,1.2,42,0.5,,,,,,,,,,,,,,,,,,,,,,,,,,,,,,,,,,,,,,,,,,,,,
,,,,,SPR24_078,18,F,2024-04-23_12h01.23.595,jersey_experiment_5_v0,2023.2.2,Win32,84.74576271,,,,,,,,,,,,,,,,95.3681,96.4149,96.4152,97.7564,return,0.3204,,88.54166667,0,13,13,53,1,FBP-PT-18.png,0.43,1.2,54,0.25,,,,,,,,,,,,,,,,,,,,,,,,,,,,,,,,,,,,,,,,,,,,,
,,,,,SPR24_078,18,F,2024-04-23_12h01.23.595,jersey_experiment_5_v0,2023.2.2,Win32,84.74576271,,,,,,,,,,,,,,,,97.7566,99.0504,99.0507,100.4386,return,0.2606,,24.47916667,0,14,14,30,1,FBP-RB-17.png,0.35,1.2,31,0.5,,,,,,,,,,,,,,,,,,,,,,,,,,,,,,,,,,,,,,,,,,,,,
,,,,,SPR24_078,18,F,2024-04-23_12h01.23.595,jersey_experiment_5_v0,2023.2.2,Win32,84.74576271,,,,,,,,,,,,,,,,100.4389,101.4855,101.4857,103.8977,return,1.412,,83.984375,0,15,15,48,1,FBP-PT-17.png,0.43,1.2,49,0.25,,,,,,,,,,,,,,,,,,,,,,,,,,,,,,,,,,,,,,,,,,,,,
,,,,,SPR24_078,18,F,2024-04-23_12h01.23.595,jersey_experiment_5_v0,2023.2.2,Win32,84.74576271,,,,,,,,,,,,,,,,103.8979,105.1916,105.1918,106.8033,return,0.3454,,40.88541667,0,16,16,5,1,FBP-OG-81.png,0.35,1.2,6,0.5,,,,,,,,,,,,,,,,,,,,,,,,,,,,,,,,,,,,,,,,,,,,,
,,,,,SPR24_078,18,F,2024-04-23_12h01.23.595,jersey_experiment_5_v0,2023.2.2,Win32,84.74576271,,,,,,,,,,,,,,,,106.8035,107.8507,107.8508,109.1094,return,0.382,,64.71354167,0,17,17,22,1,FBP-YG-18.png,0.4,1.2,23,0.25,,,,,,,,,,,,,,,,,,,,,,,,,,,,,,,,,,,,,,,,,,,,,
,,,,,SPR24_078,18,F,2024-04-23_12h01.23.595,jersey_experiment_5_v0,2023.2.2,Win32,84.74576271,,,,,,,,,,,,,,,,109.1097,110.1565,110.1568,111.6035,return,0.275,,83.72395833,0,18,18,58,1,FBP-PT-19.png,0.43,1.2,59,0.25,,,,,,,,,,,,,,,,,,,,,,,,,,,,,,,,,,,,,,,,,,,,,
,,,,,SPR24_078,18,F,2024-04-23_12h01.23.595,jersey_experiment_5_v0,2023.2.2,Win32,84.74576271,,,,,,,,,,,,,,,,111.6038,112.6508,112.6509,114.039,return,0.3542,,79.81770833,0,19,19,57,1,FBP-PT-19.png,0.4,1.2,58,0.25,,,,,,,,,,,,,,,,,,,,,,,,,,,,,,,,,,,,,,,,,,,,,
,,,,,SPR24_078,18,F,2024-04-23_12h01.23.595,jersey_experiment_5_v0,2023.2.2,Win32,84.74576271,,,,,,,,,,,,,,,,114.0393,115.333,115.3332,116.5334,return,0.4268,,94.40104167,0,20,20,43,1,FBP-RB-19.png,0.43,1.2,44,0.5,,,,,,,,,,,,,,,,,,,,,,,,,,,,,,,,,,,,,,,,,,,,,
,,,,,SPR24_078,18,F,2024-04-23_12h01.23.595,jersey_experiment_5_v0,2023.2.2,Win32,84.74576271,,,,,,,,,,,,,,,,116.5337,117.8274,117.8276,118.8863,return,0.228,,99.86979167,0,21,21,14,1,FBP-OG-91.png,0.45,1.2,15,0.5,,,,,,,,,,,,,,,,,,,,,,,,,,,,,,,,,,,,,,,,,,,,,
,,,,,SPR24_078,18,F,2024-04-23_12h01.23.595,jersey_experiment_5_v0,2023.2.2,Win32,84.74576271,,,,,,,,,,,,,,,,118.8866,119.9334,119.9335,121.8159,return,0.2713,,29.81770833,0,22,22,55,1,FBP-PT-19.png,0.35,1.2,56,0.25,,,,,,,,,,,,,,,,,,,,,,,,,,,,,,,,,,,,,,,,,,,,,
,,,,,SPR24_078,18,F,2024-04-23_12h01.23.595,jersey_experiment_5_v0,2023.2.2,Win32,84.74576271,,,,,,,,,,,,,,,,121.816,122.8628,122.8631,124.6277,return,0.4427,,21.484375,0,23,23,50,1,FBP-PT-18.png,0.35,1.2,51,0.25,,,,,,,,,,,,,,,,,,,,,,,,,,,,,,,,,,,,,,,,,,,,,
,,,,,SPR24_078,18,F,2024-04-23_12h01.23.595,jersey_experiment_5_v0,2023.2.2,Win32,84.74576271,,,,,,,,,,,,,,,,124.6279,125.9219,125.9222,127.2748,return,0.2824,,69.66145833,0,24,24,8,1,FBP-OG-81.png,0.43,1.2,9,0.5,,,,,,,,,,,,,,,,,,,,,,,,,,,,,,,,,,,,,,,,,,,,,
,,,,,SPR24_078,18,F,2024-04-23_12h01.23.595,jersey_experiment_5_v0,2023.2.2,Win32,84.74576271,,,,,,,,,,,,,,,,127.275,128.5689,128.5691,129.6511,return,0.337,,72.00520833,0,25,25,38,1,FBP-RB-18.png,0.43,1.2,39,0.5,,,,,,,,,,,,,,,,,,,,,,,,,,,,,,,,,,,,,,,,,,,,,
,,,,,SPR24_078,18,F,2024-04-23_12h01.23.595,jersey_experiment_5_v0,2023.2.2,Win32,84.74576271,,,,,,,,,,,,,,,,129.6513,130.9454,130.9457,133.2987,return,0.4084,,60.28645833,0,26,26,1,1,FBP-OG-71.png,0.37,1.2,2,0.5,,,,,,,,,,,,,,,,,,,,,,,,,,,,,,,,,,,,,,,,,,,,,
,,,,,SPR24_078,18,F,2024-04-23_12h01.23.595,jersey_experiment_5_v0,2023.2.2,Win32,84.74576271,,,,,,,,,,,,,,,,133.2989,134.5925,134.5926,135.7692,return,0.4489,,62.63020833,0,27,27,42,1,FBP-RB-19.png,0.4,1.2,43,0.5,,,,,,,,,,,,,,,,,,,,,,,,,,,,,,,,,,,,,,,,,,,,,
,,,,,SPR24_078,18,F,2024-04-23_12h01.23.595,jersey_experiment_5_v0,2023.2.2,Win32,84.74576271,,,,,,,,,,,,,,,,135.7694,137.0632,137.0634,138.2985,return,0.4139,,65.49479167,0,28,28,32,1,FBP-RB-17.png,0.4,1.2,33,0.5,,,,,,,,,,,,,,,,,,,,,,,,,,,,,,,,,,,,,,,,,,,,,
,,,,,SPR24_078,18,F,2024-04-23_12h01.23.595,jersey_experiment_5_v0,2023.2.2,Win32,84.74576271,,,,,,,,,,,,,,,,138.2987,139.5928,139.5929,142.2163,return,0.2614,,57.8125,0,29,29,2,1,FBP-OG-71.png,0.4,1.2,3,0.5,,,,,,,,,,,,,,,,,,,,,,,,,,,,,,,,,,,,,,,,,,,,,
,,,,,SPR24_078,18,F,2024-04-23_12h01.23.595,jersey_experiment_5_v0,2023.2.2,Win32,84.74576271,,,,,,,,,,,,,,,,142.2164,143.2635,143.2637,145.3692,return,0.552,,99.86979167,0,30,30,24,1,FBP-YG-18.png,0.45,1.2,25,0.25,,,,,,,,,,,,,,,,,,,,,,,,,,,,,,,,,,,,,,,,,,,,,
,,,,,SPR24_078,18,F,2024-04-23_12h01.23.595,jersey_experiment_5_v0,2023.2.2,Win32,84.74576271,,,,,,,,,,,,,,,,145.3695,146.4166,146.4168,149.5813,return,0.2117,,36.97916667,0,31,31,56,1,FBP-PT-19.png,0.37,1.2,57,0.25,,,,,,,,,,,,,,,,,,,,,,,,,,,,,,,,,,,,,,,,,,,,,
,,,,,SPR24_078,18,F,2024-04-23_12h01.23.595,jersey_experiment_5_v0,2023.2.2,Win32,84.74576271,,,,,,,,,,,,,,,,149.5814,150.6284,150.6286,152.1226,return,0.3389,,33.72395833,0,32,32,46,1,FBP-PT-17.png,0.37,1.2,47,0.25,,,,,,,,,,,,,,,,,,,,,,,,,,,,,,,,,,,,,,,,,,,,,
,,,,,SPR24_078,18,F,2024-04-23_12h01.23.595,jersey_experiment_5_v0,2023.2.2,Win32,84.74576271,,,,,,,,,,,,,,,,152.1228,153.4167,153.417,154.4756,return,0.212,,24.21875,0,33,33,40,1,FBP-RB-19.png,0.35,1.2,41,0.5,,,,,,,,,,,,,,,,,,,,,,,,,,,,,,,,,,,,,,,,,,,,,
,,,,,SPR24_078,18,F,2024-04-23_12h01.23.595,jersey_experiment_5_v0,2023.2.2,Win32,84.74576271,,,,,,,,,,,,,,,,154.4759,155.7698,155.77,157.0992,return,0.2737,,64.71354167,0,34,34,34,1,FBP-RB-17.png,0.45,1.2,35,0.5,,,,,,,,,,,,,,,,,,,,,,,,,,,,,,,,,,,,,,,,,,,,,
,,,,,SPR24_078,18,F,2024-04-23_12h01.23.595,jersey_experiment_5_v0,2023.2.2,Win32,84.74576271,,,,,,,,,,,,,,,,157.0994,158.1463,158.1465,159.2287,return,0.259,,68.88020833,0,35,35,28,1,FBP-YG-19.png,0.43,1.2,29,0.25,,,,,,,,,,,,,,,,,,,,,,,,,,,,,,,,,,,,,,,,,,,,,
,,,,,SPR24_078,18,F,2024-04-23_12h01.23.595,jersey_experiment_5_v0,2023.2.2,Win32,84.74576271,,,,,,,,,,,,,,,,159.229,160.5228,160.523,161.6994,return,0.3228,,35.28645833,0,36,36,35,1,FBP-RB-18.png,0.35,1.2,36,0.5,,,,,,,,,,,,,,,,,,,,,,,,,,,,,,,,,,,,,,,,,,,,,
,,,,,SPR24_078,18,F,2024-04-23_12h01.23.595,jersey_experiment_5_v0,2023.2.2,Win32,84.74576271,,,,,,,,,,,,,,,,161.6996,162.7465,162.7467,163.9466,return,0.391,,33.984375,0,37,37,25,1,FBP-YG-19.png,0.35,1.2,26,0.25,,,,,,,,,,,,,,,,,,,,,,,,,,,,,,,,,,,,,,,,,,,,,
,,,,,SPR24_078,18,F,2024-04-23_12h01.23.595,jersey_experiment_5_v0,2023.2.2,Win32,84.74576271,,,,,,,,,,,,,,,,163.9469,164.9935,164.9937,166.4995,return,0.2662,,11.45833333,0,38,38,45,1,FBP-PT-17.png,0.35,1.2,46,0.25,,,,,,,,,,,,,,,,,,,,,,,,,,,,,,,,,,,,,,,,,,,,,
,,,,,SPR24_078,18,F,2024-04-23_12h01.23.595,jersey_experiment_5_v0,2023.2.2,Win32,84.74576271,,,,,,,,,,,,,,,,166.4997,167.7936,167.7938,169.2408,return,0.1882,,56.38020833,0,39,39,44,1,FBP-RB-19.png,0.45,1.2,45,0.5,,,,,,,,,,,,,,,,,,,,,,,,,,,,,,,,,,,,,,,,,,,,,
,,,,,SPR24_078,18,F,2024-04-23_12h01.23.595,jersey_experiment_5_v0,2023.2.2,Win32,84.74576271,,,,,,,,,,,,,,,,169.241,170.2879,170.2881,172.582,return,1.0848,,48.17708333,0,40,40,21,1,FBP-YG-18.png,0.37,1.2,22,0.25,,,,,,,,,,,,,,,,,,,,,,,,,,,,,,,,,,,,,,,,,,,,,
,,,,,SPR24_078,18,F,2024-04-23_12h01.23.595,jersey_experiment_5_v0,2023.2.2,Win32,84.74576271,,,,,,,,,,,,,,,,172.5823,173.6291,173.6294,175.0295,return,0.2522,,97.52604167,0,41,41,54,1,FBP-PT-18.png,0.45,1.2,55,0.25,,,,,,,,,,,,,,,,,,,,,,,,,,,,,,,,,,,,,,,,,,,,,
,,,,,SPR24_078,18,F,2024-04-23_12h01.23.595,jersey_experiment_5_v0,2023.2.2,Win32,84.74576271,,,,,,,,,,,,,,,,175.0298,176.3236,176.3239,178.1941,return,1.2561,,65.36458333,0,42,42,7,1,FBP-OG-81.png,0.4,1.2,8,0.5,,,,,,,,,,,,,,,,,,,,,,,,,,,,,,,,,,,,,,,,,,,,,
,,,,,SPR24_078,18,F,2024-04-23_12h01.23.595,jersey_experiment_5_v0,2023.2.2,Win32,84.74576271,,,,,,,,,,,,,,,,178.1943,179.2411,179.2413,180.3237,return,0.193,,82.68229167,0,43,43,29,1,FBP-YG-19.png,0.45,1.2,30,0.25,,,,,,,,,,,,,,,,,,,,,,,,,,,,,,,,,,,,,,,,,,,,,
,,,,,SPR24_078,18,F,2024-04-23_12h01.23.595,jersey_experiment_5_v0,2023.2.2,Win32,84.74576271,,,,,,,,,,,,,,,,180.3239,181.6177,181.618,182.9354,return,0.2269,,64.84375,0,44,44,12,1,FBP-OG-91.png,0.4,1.2,13,0.5,,,,,,,,,,,,,,,,,,,,,,,,,,,,,,,,,,,,,,,,,,,,,
,,,,,SPR24_078,18,F,2024-04-23_12h01.23.595,jersey_experiment_5_v0,2023.2.2,Win32,84.74576271,,,,,,,,,,,,,,,,182.9357,183.9824,183.9826,185.559,return,0.1777,,43.48958333,0,45,45,20,1,FBP-YG-18.png,0.35,1.2,21,0.25,,,,,,,,,,,,,,,,,,,,,,,,,,,,,,,,,,,,,,,,,,,,,
,,,,,SPR24_078,18,F,2024-04-23_12h01.23.595,jersey_experiment_5_v0,2023.2.2,Win32,84.74576271,,,,,,,,,,,,,,,,185.5593,186.6061,186.6063,188.3946,return,0.3442,,95.18229167,0,46,46,49,1,FBP-PT-17.png,0.45,1.2,50,0.25,,,,,,,,,,,,,,,,,,,,,,,,,,,,,,,,,,,,,,,,,,,,,
,,,,,SPR24_078,18,F,2024-04-23_12h01.23.595,jersey_experiment_5_v0,2023.2.2,Win32,84.74576271,,,,,,,,,,,,,,,,188.3949,189.6886,189.6889,191.3238,return,0.2354,,48.17708333,0,47,47,10,1,FBP-OG-91.png,0.35,1.2,11,0.5,,,,,,,,,,,,,,,,,,,,,,,,,,,,,,,,,,,,,,,,,,,,,
,,,,,SPR24_078,18,F,2024-04-23_12h01.23.595,jersey_experiment_5_v0,2023.2.2,Win32,84.74576271,,,,,,,,,,,,,,,,191.3242,192.6181,192.6183,193.3711,return,0.1884,,58.46354167,0,48,48,13,1,FBP-OG-91.png,0.43,1.2,14,0.5,,,,,,,,,,,,,,,,,,,,,,,,,,,,,,,,,,,,,,,,,,,,,
,,,,,SPR24_078,18,F,2024-04-23_12h01.23.595,jersey_experiment_5_v0,2023.2.2,Win32,84.74576271,,,,,,,,,,,,,,,,193.3714,194.665,194.6652,195.5949,return,0.1791,,70.05208333,0,49,49,3,1,FBP-OG-71.png,0.43,1.2,4,0.5,,,,,,,,,,,,,,,,,,,,,,,,,,,,,,,,,,,,,,,,,,,,,
,,,,,SPR24_078,18,F,2024-04-23_12h01.23.595,jersey_experiment_5_v0,2023.2.2,Win32,84.74576271,,,,,,,,,,,,,,,,195.595,196.6417,196.642,197.5242,return,0.2774,,75.26041667,0,50,50,52,1,FBP-PT-18.png,0.4,1.2,53,0.25,,,,,,,,,,,,,,,,,,,,,,,,,,,,,,,,,,,,,,,,,,,,,
,,,,,SPR24_078,18,F,2024-04-23_12h01.23.595,jersey_experiment_5_v0,2023.2.2,Win32,84.74576271,,,,,,,,,,,,,,,,197.5245,198.5711,198.5713,199.7831,return,0.1804,,44.140625,0,51,51,15,1,FBP-YG-17.png,0.35,1.2,16,0.25,,,,,,,,,,,,,,,,,,,,,,,,,,,,,,,,,,,,,,,,,,,,,
,,,,,SPR24_078,18,F,2024-04-23_12h01.23.595,jersey_experiment_5_v0,2023.2.2,Win32,84.74576271,,,,,,,,,,,,,,,,199.7833,201.0772,201.0774,201.8303,return,0.1666,,53.515625,0,52,52,31,1,FBP-RB-17.png,0.37,1.2,32,0.5,,,,,,,,,,,,,,,,,,,,,,,,,,,,,,,,,,,,,,,,,,,,,
,,,,,SPR24_078,18,F,2024-04-23_12h01.23.595,jersey_experiment_5_v0,2023.2.2,Win32,84.74576271,,,,,,,,,,,,,,,,201.8304,202.8772,202.8774,204.3715,return,0.1929,,96.74479167,0,53,53,19,1,FBP-YG-17.png,0.45,1.2,20,0.25,,,,,,,,,,,,,,,,,,,,,,,,,,,,,,,,,,,,,,,,,,,,,
,,,,,SPR24_078,18,F,2024-04-23_12h01.23.595,jersey_experiment_5_v0,2023.2.2,Win32,84.74576271,,,,,,,,,,,,,,,,204.3717,205.4184,205.4187,206.4893,return,0.3055,,81.51041667,0,54,54,16,1,FBP-YG-17.png,0.37,1.2,17,0.25,,,,,,,,,,,,,,,,,,,,,,,,,,,,,,,,,,,,,,,,,,,,,
,,,,,SPR24_078,18,F,2024-04-23_12h01.23.595,jersey_experiment_5_v0,2023.2.2,Win32,84.74576271,,,,,,,,,,,,,,,,206.4895,207.7833,207.7835,208.9245,return,0.3856,,53.125,0,55,55,0,1,FBP-OG-71.png,0.35,1.2,1,0.5,,,,,,,,,,,,,,,,,,,,,,,,,,,,,,,,,,,,,,,,,,,,,
,,,,,SPR24_078,18,F,2024-04-23_12h01.23.595,jersey_experiment_5_v0,2023.2.2,Win32,84.74576271,,,,,,,,,,,,,,,,208.9248,209.9715,209.9718,212.7718,return,0.2634,,64.84375,0,56,56,51,1,FBP-PT-18.png,0.37,1.2,52,0.25,,,,,,,,,,,,,,,,,,,,,,,,,,,,,,,,,,,,,,,,,,,,,
,,,,,SPR24_078,18,F,2024-04-23_12h01.23.595,jersey_experiment_5_v0,2023.2.2,Win32,84.74576271,,,,,,,,,,,,,,,,212.772,213.8187,213.819,215.8189,return,0.2215,,68.48958333,0,57,57,17,1,FBP-YG-17.png,0.4,1.2,18,0.25,,,,,,,,,,,,,,,,,,,,,,,,,,,,,,,,,,,,,,,,,,,,,
,,,,,SPR24_078,18,F,2024-04-23_12h01.23.595,jersey_experiment_5_v0,2023.2.2,Win32,84.74576271,,,,,,,,,,,,,,,,215.8191,216.8661,216.8663,218.7131,return,0.7779,,95.18229167,0,58,58,59,1,FBP-PT-19.png,0.45,1.2,60,0.25,,,,,,,,,,,,,,,,,,,,,,,,,,,,,,,,,,,,,,,,,,,,,
,,,,,SPR24_078,18,F,2024-04-23_12h01.23.595,jersey_experiment_5_v0,2023.2.2,Win32,84.74576271,,,,,,,,,,,,,,,,218.7134,220.0072,220.0074,221.078,return,0.2286,,86.58854167,0,59,59,39,1,FBP-RB-18.png,0.45,1.2,40,0.5,,,,,,,,,,,,,,,,,,,,,,,,,,,,,,,,,,,,,,,,,,,,,
,,,,,SPR24_078,18,F,2024-04-23_12h01.23.595,jersey_experiment_5_v0,2023.2.2,Win32,84.74576271,,,,,,,,,,,,,,,,221.0804,222.1248,222.125,224.8545,return,0.2398,,73.95833333,,,,,,FBP-YG-81.png,0.45,1.2,25,0.25,0,0,0,24,1,,,,,,,,,,,,,,,,,,,,,,,,,,,,,,,,,,,,,,,,
,,,,,SPR24_078,18,F,2024-04-23_12h01.23.595,jersey_experiment_5_v0,2023.2.2,Win32,84.74576271,,,,,,,,,,,,,,,,224.8548,225.9015,225.9018,228.1369,return,0.9792,,43.75,,,,,,FBP-YG-71.png,0.4,1.2,18,0.25,0,1,1,17,1,,,,,,,,,,,,,,,,,,,,,,,,,,,,,,,,,,,,,,,,
,,,,,SPR24_078,18,F,2024-04-23_12h01.23.595,jersey_experiment_5_v0,2023.2.2,Win32,84.74576271,,,,,,,,,,,,,,,,228.1373,229.4311,229.4313,230.8195,return,0.2639,,22.65625,,,,,,FBP-OG-17.png,0.35,1.2,1,0.5,0,2,2,0,1,,,,,,,,,,,,,,,,,,,,,,,,,,,,,,,,,,,,,,,,
,,,,,SPR24_078,18,F,2024-04-23_12h01.23.595,jersey_experiment_5_v0,2023.2.2,Win32,84.74576271,,,,,,,,,,,,,,,,230.8197,232.1136,232.1138,233.5489,return,0.1887,,50.390625,,,,,,FBP-RB-71.png,0.43,1.2,34,0.5,0,3,3,33,1,,,,,,,,,,,,,,,,,,,,,,,,,,,,,,,,,,,,,,,,
,,,,,SPR24_078,18,F,2024-04-23_12h01.23.595,jersey_experiment_5_v0,2023.2.2,Win32,84.74576271,,,,,,,,,,,,,,,,233.5491,234.5961,234.5962,236.3253,return,0.2054,,59.63541667,,,,,,FBP-YG-71.png,0.45,1.2,20,0.25,0,4,4,19,1,,,,,,,,,,,,,,,,,,,,,,,,,,,,,,,,,,,,,,,,
,,,,,SPR24_078,18,F,2024-04-23_12h01.23.595,jersey_experiment_5_v0,2023.2.2,Win32,84.74576271,,,,,,,,,,,,,,,,236.3257,237.6197,237.6198,238.455,return,0.2014,,74.73958333,,,,,,FBP-RB-81.png,0.45,1.2,40,0.5,0,5,5,39,1,,,,,,,,,,,,,,,,,,,,,,,,,,,,,,,,,,,,,,,,
,,,,,SPR24_078,18,F,2024-04-23_12h01.23.595,jersey_experiment_5_v0,2023.2.2,Win32,84.74576271,,,,,,,,,,,,,,,,238.4552,239.7491,239.7493,241.0668,return,0.2592,,75.91145833,,,,,,FBP-OG-17.png,0.45,1.2,5,0.5,0,6,6,4,1,,,,,,,,,,,,,,,,,,,,,,,,,,,,,,,,,,,,,,,,
,,,,,SPR24_078,18,F,2024-04-23_12h01.23.595,jersey_experiment_5_v0,2023.2.2,Win32,84.74576271,,,,,,,,,,,,,,,,241.0671,242.1139,242.1142,243.3492,return,0.2496,,78.90625,,,,,,FBP-PT-71.png,0.45,1.2,50,0.25,0,7,7,49,1,,,,,,,,,,,,,,,,,,,,,,,,,,,,,,,,,,,,,,,,
,,,,,SPR24_078,18,F,2024-04-23_12h01.23.595,jersey_experiment_5_v0,2023.2.2,Win32,84.74576271,,,,,,,,,,,,,,,,243.3494,244.6435,244.6442,248.2906,return,0.7702,,53.125,,,,,,FBP-OG-19.png,0.35,1.2,11,0.5,0,8,8,10,1,,,,,,,,,,,,,,,,,,,,,,,,,,,,,,,,,,,,,,,,
,,,,,SPR24_078,18,F,2024-04-23_12h01.23.595,jersey_experiment_5_v0,2023.2.2,Win32,84.74576271,,,,,,,,,,,,,,,,248.2908,249.5848,249.585,250.9729,return,0.2585,,49.609375,,,,,,FBP-OG-19.png,0.4,1.2,13,0.5,0,9,9,12,1,,,,,,,,,,,,,,,,,,,,,,,,,,,,,,,,,,,,,,,,
,,,,,SPR24_078,18,F,2024-04-23_12h01.23.595,jersey_experiment_5_v0,2023.2.2,Win32,84.74576271,,,,,,,,,,,,,,,,250.9732,252.2672,252.2673,253.1142,return,0.2591,,49.609375,,,,,,FBP-OG-17.png,0.4,1.2,3,0.5,0,10,10,2,1,,,,,,,,,,,,,,,,,,,,,,,,,,,,,,,,,,,,,,,,
,,,,,SPR24_078,18,F,2024-04-23_12h01.23.595,jersey_experiment_5_v0,2023.2.2,Win32,84.74576271,,,,,,,,,,,,,,,,253.1143,254.1613,254.1615,254.9378,return,0.2595,,49.609375,,,,,,FBP-YG-81.png,0.37,1.2,22,0.25,0,11,11,21,1,,,,,,,,,,,,,,,,,,,,,,,,,,,,,,,,,,,,,,,,
,,,,,SPR24_078,18,F,2024-04-23_12h01.23.595,jersey_experiment_5_v0,2023.2.2,Win32,84.74576271,,,,,,,,,,,,,,,,254.9381,255.9848,255.985,256.6792,return,0.2741,,49.47916667,,,,,,FBP-YG-91.png,0.37,1.2,27,0.25,0,12,12,26,1,,,,,,,,,,,,,,,,,,,,,,,,,,,,,,,,,,,,,,,,
,,,,,SPR24_078,18,F,2024-04-23_12h01.23.595,jersey_experiment_5_v0,2023.2.2,Win32,84.74576271,,,,,,,,,,,,,,,,256.6795,257.7262,257.7263,258.9968,return,0.1798,,65.234375,,,,,,FBP-PT-81.png,0.45,1.2,55,0.25,0,13,13,54,1,,,,,,,,,,,,,,,,,,,,,,,,,,,,,,,,,,,,,,,,
,,,,,SPR24_078,18,F,2024-04-23_12h01.23.595,jersey_experiment_5_v0,2023.2.2,Win32,84.74576271,,,,,,,,,,,,,,,,258.9971,260.2909,260.2911,261.6086,return,0.6934,,69.40104167,,,,,,FBP-OG-18.png,0.43,1.2,9,0.5,0,14,14,8,1,,,,,,,,,,,,,,,,,,,,,,,,,,,,,,,,,,,,,,,,
,,,,,SPR24_078,18,F,2024-04-23_12h01.23.595,jersey_experiment_5_v0,2023.2.2,Win32,84.74576271,,,,,,,,,,,,,,,,261.6089,262.9028,262.903,264.2675,return,0.2453,,35.9375,,,,,,FBP-OG-19.png,0.37,1.2,12,0.5,0,15,15,11,1,,,,,,,,,,,,,,,,,,,,,,,,,,,,,,,,,,,,,,,,
,,,,,SPR24_078,18,F,2024-04-23_12h01.23.595,jersey_experiment_5_v0,2023.2.2,Win32,84.74576271,,,,,,,,,,,,,,,,264.2677,265.5615,265.5617,266.5383,return,0.2362,,64.0625,,,,,,FBP-RB-81.png,0.43,1.2,39,0.5,0,16,16,38,1,,,,,,,,,,,,,,,,,,,,,,,,,,,,,,,,,,,,,,,,
,,,,,SPR24_078,18,F,2024-04-23_12h01.23.595,jersey_experiment_5_v0,2023.2.2,Win32,84.74576271,,,,,,,,,,,,,,,,266.5385,267.5852,267.5854,268.4678,return,0.2876,,70.3125,,,,,,FBP-YG-91.png,0.43,1.2,29,0.25,0,17,17,28,1,,,,,,,,,,,,,,,,,,,,,,,,,,,,,,,,,,,,,,,,
,,,,,SPR24_078,18,F,2024-04-23_12h01.23.595,jersey_experiment_5_v0,2023.2.2,Win32,84.74576271,,,,,,,,,,,,,,,,268.468,269.762,269.7623,270.9502,return,0.1928,,49.21875,,,,,,FBP-RB-91.png,0.37,1.2,42,0.5,0,18,18,41,1,,,,,,,,,,,,,,,,,,,,,,,,,,,,,,,,,,,,,,,,
,,,,,SPR24_078,18,F,2024-04-23_12h01.23.595,jersey_experiment_5_v0,2023.2.2,Win32,84.74576271,,,,,,,,,,,,,,,,270.9504,271.9971,271.9974,273.0443,return,0.4066,,43.61979167,,,,,,FBP-YG-81.png,0.35,1.2,21,0.25,0,19,19,20,1,,,,,,,,,,,,,,,,,,,,,,,,,,,,,,,,,,,,,,,,
,,,,,SPR24_078,18,F,2024-04-23_12h01.23.595,jersey_experiment_5_v0,2023.2.2,Win32,84.74576271,,,,,,,,,,,,,,,,273.0446,274.0914,274.0917,275.1268,return,0.1804,,63.80208333,,,,,,FBP-PT-91.png,0.35,1.2,56,0.25,0,20,20,55,1,,,,,,,,,,,,,,,,,,,,,,,,,,,,,,,,,,,,,,,,
,,,,,SPR24_078,18,F,2024-04-23_12h01.23.595,jersey_experiment_5_v0,2023.2.2,Win32,84.74576271,,,,,,,,,,,,,,,,275.1271,276.4209,276.4211,277.4916,return,0.1715,,49.86979167,,,,,,FBP-RB-71.png,0.37,1.2,32,0.5,0,21,21,31,1,,,,,,,,,,,,,,,,,,,,,,,,,,,,,,,,,,,,,,,,
,,,,,SPR24_078,18,F,2024-04-23_12h01.23.595,jersey_experiment_5_v0,2023.2.2,Win32,84.74576271,,,,,,,,,,,,,,,,277.4918,278.7858,278.786,280.774,return,0.9196,,44.01041667,,,,,,FBP-OG-18.png,0.35,1.2,6,0.5,0,22,22,5,1,,,,,,,,,,,,,,,,,,,,,,,,,,,,,,,,,,,,,,,,
,,,,,SPR24_078,18,F,2024-04-23_12h01.23.595,jersey_experiment_5_v0,2023.2.2,Win32,84.74576271,,,,,,,,,,,,,,,,280.7743,281.821,281.8212,282.8565,return,0.1995,,40.10416667,,,,,,FBP-PT-91.png,0.4,1.2,58,0.25,0,23,23,57,1,,,,,,,,,,,,,,,,,,,,,,,,,,,,,,,,,,,,,,,,
,,,,,SPR24_078,18,F,2024-04-23_12h01.23.595,jersey_experiment_5_v0,2023.2.2,Win32,84.74576271,,,,,,,,,,,,,,,,282.8566,283.9036,283.9038,284.9506,return,0.1103,,65.36458333,,,,,,FBP-YG-81.png,0.43,1.2,24,0.25,0,24,24,23,1,,,,,,,,,,,,,,,,,,,,,,,,,,,,,,,,,,,,,,,,
,,,,,SPR24_078,18,F,2024-04-23_12h01.23.595,jersey_experiment_5_v0,2023.2.2,Win32,84.74576271,,,,,,,,,,,,,,,,284.9508,285.9977,285.998,287.433,return,0.2728,,31.77083333,,,,,,FBP-YG-91.png,0.35,1.2,26,0.25,0,25,25,25,1,,,,,,,,,,,,,,,,,,,,,,,,,,,,,,,,,,,,,,,,
,,,,,SPR24_078,18,F,2024-04-23_12h01.23.595,jersey_experiment_5_v0,2023.2.2,Win32,84.74576271,,,,,,,,,,,,,,,,287.4332,288.4799,288.4802,289.6921,return,0.2491,,72.91666667,,,,,,FBP-PT-81.png,0.43,1.2,54,0.25,0,26,26,53,1,,,,,,,,,,,,,,,,,,,,,,,,,,,,,,,,,,,,,,,,
,,,,,SPR24_078,18,F,2024-04-23_12h01.23.595,jersey_experiment_5_v0,2023.2.2,Win32,84.74576271,,,,,,,,,,,,,,,,289.6924,290.739,290.7393,292.1508,return,0.1777,,15.88541667,,,,,,FBP-YG-71.png,0.35,1.2,16,0.25,0,27,27,15,1,,,,,,,,,,,,,,,,,,,,,,,,,,,,,,,,,,,,,,,,
,,,,,SPR24_078,18,F,2024-04-23_12h01.23.595,jersey_experiment_5_v0,2023.2.2,Win32,84.74576271,,,,,,,,,,,,,,,,292.151,293.4449,293.4452,294.7274,return,0.2128,,47.78645833,,,,,,FBP-OG-19.png,0.45,1.2,15,0.5,0,28,28,14,1,,,,,,,,,,,,,,,,,,,,,,,,,,,,,,,,,,,,,,,,
,,,,,SPR24_078,18,F,2024-04-23_12h01.23.595,jersey_experiment_5_v0,2023.2.2,Win32,84.74576271,,,,,,,,,,,,,,,,294.7276,296.0216,296.0219,296.8687,return,0.1913,,48.046875,,,,,,FBP-RB-81.png,0.4,1.2,38,0.5,0,29,29,37,1,,,,,,,,,,,,,,,,,,,,,,,,,,,,,,,,,,,,,,,,
,,,,,SPR24_078,18,F,2024-04-23_12h01.23.595,jersey_experiment_5_v0,2023.2.2,Win32,84.74576271,,,,,,,,,,,,,,,,296.8689,297.9157,297.916,298.6098,return,0.1949,,48.046875,,,,,,FBP-YG-91.png,0.4,1.2,28,0.25,0,30,30,27,1,,,,,,,,,,,,,,,,,,,,,,,,,,,,,,,,,,,,,,,,
,,,,,SPR24_078,18,F,2024-04-23_12h01.23.595,jersey_experiment_5_v0,2023.2.2,Win32,84.74576271,,,,,,,,,,,,,,,,298.61,299.6569,299.657,300.2099,return,0.1479,,48.046875,,,,,,FBP-PT-71.png,0.4,1.2,48,0.25,0,31,31,47,1,,,,,,,,,,,,,,,,,,,,,,,,,,,,,,,,,,,,,,,,
,,,,,SPR24_078,18,F,2024-04-23_12h01.23.595,jersey_experiment_5_v0,2023.2.2,Win32,84.74576271,,,,,,,,,,,,,,,,300.2102,301.257,301.2571,302.0218,return,0.2052,,48.046875,,,,,,FBP-PT-81.png,0.35,1.2,51,0.25,0,32,32,50,1,,,,,,,,,,,,,,,,,,,,,,,,,,,,,,,,,,,,,,,,
,,,,,SPR24_078,18,F,2024-04-23_12h01.23.595,jersey_experiment_5_v0,2023.2.2,Win32,84.74576271,,,,,,,,,,,,,,,,302.0219,303.3158,303.3161,304.01,return,0.1652,,49.34895833,,,,,,FBP-RB-81.png,0.37,1.2,37,0.5,0,33,33,36,1,,,,,,,,,,,,,,,,,,,,,,,,,,,,,,,,,,,,,,,,
,,,,,SPR24_078,18,F,2024-04-23_12h01.23.595,jersey_experiment_5_v0,2023.2.2,Win32,84.74576271,,,,,,,,,,,,,,,,304.0103,305.3044,305.3047,306.1513,return,0.3799,,31.11979167,,,,,,FBP-RB-71.png,0.35,1.2,31,0.5,0,34,34,30,1,,,,,,,,,,,,,,,,,,,,,,,,,,,,,,,,,,,,,,,,
,,,,,SPR24_078,18,F,2024-04-23_12h01.23.595,jersey_experiment_5_v0,2023.2.2,Win32,84.74576271,,,,,,,,,,,,,,,,306.1515,307.4456,307.4458,308.116,return,0.2536,,32.421875,,,,,,FBP-RB-71.png,0.4,1.2,33,0.5,0,35,35,32,1,,,,,,,,,,,,,,,,,,,,,,,,,,,,,,,,,,,,,,,,
,,,,,SPR24_078,18,F,2024-04-23_12h01.23.595,jersey_experiment_5_v0,2023.2.2,Win32,84.74576271,,,,,,,,,,,,,,,,308.1163,309.4103,309.4105,310.0337,return,0.2298,,32.421875,,,,,,FBP-OG-17.png,0.37,1.2,2,0.5,0,36,36,1,1,,,,,,,,,,,,,,,,,,,,,,,,,,,,,,,,,,,,,,,,
,,,,,SPR24_078,18,F,2024-04-23_12h01.23.595,jersey_experiment_5_v0,2023.2.2,Win32,84.74576271,,,,,,,,,,,,,,,,310.034,311.0809,311.0811,311.9281,return,0.3536,,32.421875,,,,,,FBP-PT-71.png,0.37,1.2,47,0.25,0,37,37,46,1,,,,,,,,,,,,,,,,,,,,,,,,,,,,,,,,,,,,,,,,
,,,,,SPR24_078,18,F,2024-04-23_12h01.23.595,jersey_experiment_5_v0,2023.2.2,Win32,84.74576271,,,,,,,,,,,,,,,,311.9284,313.2221,313.2224,314.3634,return,0.0565,,56.90104167,,,,,,FBP-OG-18.png,0.45,1.2,10,0.5,0,38,38,9,1,,,,,,,,,,,,,,,,,,,,,,,,,,,,,,,,,,,,,,,,
,,,,,SPR24_078,18,F,2024-04-23_12h01.23.595,jersey_experiment_5_v0,2023.2.2,Win32,84.74576271,,,,,,,,,,,,,,,,314.3636,315.4103,315.4105,316.2107,return,0.1946,,57.421875,,,,,,FBP-PT-71.png,0.43,1.2,49,0.25,0,39,39,48,1,,,,,,,,,,,,,,,,,,,,,,,,,,,,,,,,,,,,,,,,
,,,,,SPR24_078,18,F,2024-04-23_12h01.23.595,jersey_experiment_5_v0,2023.2.2,Win32,84.74576271,,,,,,,,,,,,,,,,316.2109,317.2574,317.2575,317.9282,return,0.1787,,57.421875,,,,,,FBP-PT-91.png,0.37,1.2,57,0.25,0,40,40,56,1,,,,,,,,,,,,,,,,,,,,,,,,,,,,,,,,,,,,,,,,
,,,,,SPR24_078,18,F,2024-04-23_12h01.23.595,jersey_experiment_5_v0,2023.2.2,Win32,84.74576271,,,,,,,,,,,,,,,,317.9284,318.9753,318.9754,319.8577,return,0.2183,,73.95833333,,,,,,FBP-PT-91.png,0.45,1.2,60,0.25,0,41,41,59,1,,,,,,,,,,,,,,,,,,,,,,,,,,,,,,,,,,,,,,,,
,,,,,SPR24_078,18,F,2024-04-23_12h01.23.595,jersey_experiment_5_v0,2023.2.2,Win32,84.74576271,,,,,,,,,,,,,,,,319.8579,321.1519,321.152,321.9283,return,0.3199,,73.95833333,,,,,,FBP-OG-17.png,0.43,1.2,4,0.5,0,42,42,3,1,,,,,,,,,,,,,,,,,,,,,,,,,,,,,,,,,,,,,,,,
,,,,,SPR24_078,18,F,2024-04-23_12h01.23.595,jersey_experiment_5_v0,2023.2.2,Win32,84.74576271,,,,,,,,,,,,,,,,321.9285,323.2223,323.2226,324.7166,return,0.1881,,54.16666667,,,,,,FBP-OG-18.png,0.37,1.2,7,0.5,0,43,43,6,1,,,,,,,,,,,,,,,,,,,,,,,,,,,,,,,,,,,,,,,,
,,,,,SPR24_078,18,F,2024-04-23_12h01.23.595,jersey_experiment_5_v0,2023.2.2,Win32,84.74576271,,,,,,,,,,,,,,,,324.7168,326.0107,326.0109,326.9169,return,0.1116,,73.17708333,,,,,,FBP-RB-91.png,0.45,1.2,45,0.5,0,44,44,44,1,,,,,,,,,,,,,,,,,,,,,,,,,,,,,,,,,,,,,,,,
,,,,,SPR24_078,18,F,2024-04-23_12h01.23.595,jersey_experiment_5_v0,2023.2.2,Win32,84.74576271,,,,,,,,,,,,,,,,326.9171,328.2109,328.2111,328.9051,return,0.2697,,73.046875,,,,,,FBP-OG-19.png,0.43,1.2,14,0.5,0,45,45,13,1,,,,,,,,,,,,,,,,,,,,,,,,,,,,,,,,,,,,,,,,
,,,,,SPR24_078,18,F,2024-04-23_12h01.23.595,jersey_experiment_5_v0,2023.2.2,Win32,84.74576271,,,,,,,,,,,,,,,,328.9053,330.1991,330.1993,330.8345,return,0.2057,,72.91666667,,,,,,FBP-RB-71.png,0.45,1.2,35,0.5,0,46,46,34,1,,,,,,,,,,,,,,,,,,,,,,,,,,,,,,,,,,,,,,,,
,,,,,SPR24_078,18,F,2024-04-23_12h01.23.595,jersey_experiment_5_v0,2023.2.2,Win32,84.74576271,,,,,,,,,,,,,,,,330.8348,331.8816,331.8819,332.5521,return,0.1533,,72.91666667,,,,,,FBP-PT-91.png,0.43,1.2,59,0.25,0,47,47,58,1,,,,,,,,,,,,,,,,,,,,,,,,,,,,,,,,,,,,,,,,
,,,,,SPR24_078,18,F,2024-04-23_12h01.23.595,jersey_experiment_5_v0,2023.2.2,Win32,84.74576271,,,,,,,,,,,,,,,,332.5523,333.8463,333.8464,334.7875,return,0.1953,,52.34375,,,,,,FBP-RB-91.png,0.35,1.2,41,0.5,0,48,48,40,1,,,,,,,,,,,,,,,,,,,,,,,,,,,,,,,,,,,,,,,,
,,,,,SPR24_078,18,F,2024-04-23_12h01.23.595,jersey_experiment_5_v0,2023.2.2,Win32,84.74576271,,,,,,,,,,,,,,,,334.7878,336.0815,336.0818,336.6347,return,0.0846,,57.16145833,,,,,,FBP-RB-91.png,0.43,1.2,44,0.5,0,49,49,43,1,,,,,,,,,,,,,,,,,,,,,,,,,,,,,,,,,,,,,,,,
,,,,,SPR24_078,18,F,2024-04-23_12h01.23.595,jersey_experiment_5_v0,2023.2.2,Win32,84.74576271,,,,,,,,,,,,,,,,336.6349,337.6817,337.6819,338.6348,return,0.1077,,71.61458333,,,,,,FBP-YG-91.png,0.45,1.2,30,0.25,0,50,50,29,1,,,,,,,,,,,,,,,,,,,,,,,,,,,,,,,,,,,,,,,,
,,,,,SPR24_078,18,F,2024-04-23_12h01.23.595,jersey_experiment_5_v0,2023.2.2,Win32,84.74576271,,,,,,,,,,,,,,,,338.635,339.9289,339.9292,340.8232,return,0.2033,,50.52083333,,,,,,FBP-RB-91.png,0.4,1.2,43,0.5,0,51,51,42,1,,,,,,,,,,,,,,,,,,,,,,,,,,,,,,,,,,,,,,,,
,,,,,SPR24_078,18,F,2024-04-23_12h01.23.595,jersey_experiment_5_v0,2023.2.2,Win32,84.74576271,,,,,,,,,,,,,,,,340.8234,342.1172,342.1174,343.682,return,1.0765,,27.60416667,,,,,,FBP-RB-81.png,0.35,1.2,36,0.5,0,52,52,35,1,,,,,,,,,,,,,,,,,,,,,,,,,,,,,,,,,,,,,,,,
,,,,,SPR24_078,18,F,2024-04-23_12h01.23.595,jersey_experiment_5_v0,2023.2.2,Win32,84.74576271,,,,,,,,,,,,,,,,343.6822,344.7292,344.7294,347.2584,return,0.1647,,42.1875,,,,,,FBP-PT-81.png,0.4,1.2,53,0.25,0,53,53,52,1,,,,,,,,,,,,,,,,,,,,,,,,,,,,,,,,,,,,,,,,
,,,,,SPR24_078,18,F,2024-04-23_12h01.23.595,jersey_experiment_5_v0,2023.2.2,Win32,84.74576271,,,,,,,,,,,,,,,,347.2586,348.3056,348.3059,349.7056,return,0.2831,,0.130208333,,,,,,FBP-YG-71.png,0.37,1.2,17,0.25,0,54,54,16,1,,,,,,,,,,,,,,,,,,,,,,,,,,,,,,,,,,,,,,,,
,,,,,SPR24_078,18,F,2024-04-23_12h01.23.595,jersey_experiment_5_v0,2023.2.2,Win32,84.74576271,,,,,,,,,,,,,,,,349.7059,350.7532,350.7534,351.7058,return,0.1654,,0.520833333,,,,,,FBP-PT-71.png,0.35,1.2,46,0.25,0,55,55,45,1,,,,,,,,,,,,,,,,,,,,,,,,,,,,,,,,,,,,,,,,
,,,,,SPR24_078,18,F,2024-04-23_12h01.23.595,jersey_experiment_5_v0,2023.2.2,Win32,84.74576271,,,,,,,,,,,,,,,,351.706,352.7529,352.7531,353.3293,return,0.1976,,0.520833333,,,,,,FBP-PT-81.png,0.37,1.2,52,0.25,0,56,56,51,1,,,,,,,,,,,,,,,,,,,,,,,,,,,,,,,,,,,,,,,,
,,,,,SPR24_078,18,F,2024-04-23_12h01.23.595,jersey_experiment_5_v0,2023.2.2,Win32,84.74576271,,,,,,,,,,,,,,,,353.3296,354.3764,354.3767,355.9296,return,0.1876,,37.63020833,,,,,,FBP-YG-81.png,0.4,1.2,23,0.25,0,57,57,22,1,,,,,,,,,,,,,,,,,,,,,,,,,,,,,,,,,,,,,,,,
,,,,,SPR24_078,18,F,2024-04-23_12h01.23.595,jersey_experiment_5_v0,2023.2.2,Win32,84.74576271,,,,,,,,,,,,,,,,355.9299,356.9765,356.9766,358.3649,return,0.1646,,64.0625,,,,,,FBP-YG-71.png,0.43,1.2,19,0.25,0,58,58,18,1,,,,,,,,,,,,,,,,,,,,,,,,,,,,,,,,,,,,,,,,
,,,,,SPR24_078,18,F,2024-04-23_12h01.23.595,jersey_experiment_5_v0,2023.2.2,Win32,84.74576271,,,,,,,,,,,,,,,,358.3651,359.659,359.6591,360.9884,return,0.2264,,53.25520833,,,,,,FBP-OG-18.png,0.4,1.2,8,0.5,0,59,59,7,1,,,,,,,,,,,,,,,,,,,,,,,,,,,,,,,,,,,,,,,,
,,,,,SPR24_078,18,F,2024-04-23_12h01.23.595,jersey_experiment_5_v0,2023.2.2,Win32,84.74576271,,,,,,,,,,,,,,,,,,,,,,,,,,,,,,,,,,,,,,,360.9888,480.9811,,,,,,,,,,,,,,,,,,,,,,,,,,,,,,,,,,,,,,
,,,,,SPR24_078,18,F,2024-04-23_12h01.23.595,jersey_experiment_5_v0,2023.2.2,Win32,84.74576271,,,,,,,,,,,,,,,,,,,,,,,,,,,,,,,,,,,,,,,,,480.9812,483.9222,return,2.935,,,,,,,,,,,,,,,,,,,,,,,,,,,,,,,,,,
,,,,,SPR24_078,18,F,2024-04-23_12h01.23.595,jersey_experiment_5_v0,2023.2.2,Win32,84.74576271,,,,,,,,,,,,,,,,483.928,484.9692,484.9695,487.1575,return,0.7796,,24.08854167,,,,,,FBP-OG-81.png,0.35,1.2,6,0.25,,,,,,,,,,,,,0,0,0,5,1,,,,,,,,,,,,,,,,,,,,,,,,,,,,
,,,,,SPR24_078,18,F,2024-04-23_12h01.23.595,jersey_experiment_5_v0,2023.2.2,Win32,84.74576271,,,,,,,,,,,,,,,,487.158,488.2044,488.2047,490.1341,return,0.7808,,33.59375,,,,,,FBP-RB-18.png,0.4,1.2,38,0.25,,,,,,,,,,,,,0,1,1,37,1,,,,,,,,,,,,,,,,,,,,,,,,,,,,
,,,,,SPR24_078,18,F,2024-04-23_12h01.23.595,jersey_experiment_5_v0,2023.2.2,Win32,84.74576271,,,,,,,,,,,,,,,,490.1343,491.1812,491.1814,492.887,return,0.6949,,72.13541667,,,,,,FBP-RB-19.png,0.45,1.2,45,0.25,,,,,,,,,,,,,0,2,2,44,1,,,,,,,,,,,,,,,,,,,,,,,,,,,,
,,,,,SPR24_078,18,F,2024-04-23_12h01.23.595,jersey_experiment_5_v0,2023.2.2,Win32,84.74576271,,,,,,,,,,,,,,,,492.8872,493.9342,493.9345,495.5931,return,0.2367,,26.43229167,,,,,,FBP-RB-17.png,0.35,1.2,31,0.25,,,,,,,,,,,,,0,3,3,30,1,,,,,,,,,,,,,,,,,,,,,,,,,,,,
,,,,,SPR24_078,18,F,2024-04-23_12h01.23.595,jersey_experiment_5_v0,2023.2.2,Win32,84.74576271,,,,,,,,,,,,,,,,495.5933,496.8872,496.8874,497.7813,return,0.1928,,29.81770833,,,,,,FBP-PT-17.png,0.37,1.2,47,0.5,,,,,,,,,,,,,0,4,4,46,1,,,,,,,,,,,,,,,,,,,,,,,,,,,,
,,,,,SPR24_078,18,F,2024-04-23_12h01.23.595,jersey_experiment_5_v0,2023.2.2,Win32,84.74576271,,,,,,,,,,,,,,,,497.7815,499.0755,499.0756,500.299,return,0.1974,,20.703125,,,,,,FBP-PT-18.png,0.37,1.2,52,0.5,,,,,,,,,,,,,0,5,5,51,1,,,,,,,,,,,,,,,,,,,,,,,,,,,,
,,,,,SPR24_078,18,F,2024-04-23_12h01.23.595,jersey_experiment_5_v0,2023.2.2,Win32,84.74576271,,,,,,,,,,,,,,,,500.2992,501.3462,501.3463,502.393,return,0.1419,,65.75520833,,,,,,FBP-OG-91.png,0.45,1.2,15,0.25,,,,,,,,,,,,,0,6,6,14,1,,,,,,,,,,,,,,,,,,,,,,,,,,,,
,,,,,SPR24_078,18,F,2024-04-23_12h01.23.595,jersey_experiment_5_v0,2023.2.2,Win32,84.74576271,,,,,,,,,,,,,,,,502.3932,503.4403,503.4405,504.7933,return,0.1655,,56.77083333,,,,,,FBP-RB-17.png,0.4,1.2,33,0.25,,,,,,,,,,,,,0,7,7,32,1,,,,,,,,,,,,,,,,,,,,,,,,,,,,
,,,,,SPR24_078,18,F,2024-04-23_12h01.23.595,jersey_experiment_5_v0,2023.2.2,Win32,84.74576271,,,,,,,,,,,,,,,,504.7935,506.0877,506.0878,506.923,return,0.1552,,68.48958333,,,,,,FBP-YG-19.png,0.43,1.2,29,0.5,,,,,,,,,,,,,0,8,8,28,1,,,,,,,,,,,,,,,,,,,,,,,,,,,,
,,,,,SPR24_078,18,F,2024-04-23_12h01.23.595,jersey_experiment_5_v0,2023.2.2,Win32,84.74576271,,,,,,,,,,,,,,,,506.9232,508.2171,508.2172,509.3464,return,0.1939,,26.953125,,,,,,FBP-PT-19.png,0.35,1.2,56,0.5,,,,,,,,,,,,,0,9,9,55,1,,,,,,,,,,,,,,,,,,,,,,,,,,,,
,,,,,SPR24_078,18,F,2024-04-23_12h01.23.595,jersey_experiment_5_v0,2023.2.2,Win32,84.74576271,,,,,,,,,,,,,,,,509.3467,510.6409,510.6411,511.8995,return,0.1741,,36.97916667,,,,,,FBP-PT-17.png,0.4,1.2,48,0.5,,,,,,,,,,,,,0,10,10,47,1,,,,,,,,,,,,,,,,,,,,,,,,,,,,
,,,,,SPR24_078,18,F,2024-04-23_12h01.23.595,jersey_experiment_5_v0,2023.2.2,Win32,84.74576271,,,,,,,,,,,,,,,,511.8998,513.1938,513.194,513.8995,return,0.1979,,66.27604167,,,,,,FBP-PT-18.png,0.43,1.2,54,0.5,,,,,,,,,,,,,0,11,11,53,1,,,,,,,,,,,,,,,,,,,,,,,,,,,,
,,,,,SPR24_078,18,F,2024-04-23_12h01.23.595,jersey_experiment_5_v0,2023.2.2,Win32,84.74576271,,,,,,,,,,,,,,,,513.8997,515.1937,515.1939,516.4879,return,0.167,,21.35416667,,,,,,FBP-YG-18.png,0.35,1.2,21,0.5,,,,,,,,,,,,,0,12,12,20,1,,,,,,,,,,,,,,,,,,,,,,,,,,,,
,,,,,SPR24_078,18,F,2024-04-23_12h01.23.595,jersey_experiment_5_v0,2023.2.2,Win32,84.74576271,,,,,,,,,,,,,,,,516.4881,517.535,517.5352,518.7232,return,0.2043,,33.203125,,,,,,FBP-RB-19.png,0.37,1.2,42,0.25,,,,,,,,,,,,,0,13,13,41,1,,,,,,,,,,,,,,,,,,,,,,,,,,,,
,,,,,SPR24_078,18,F,2024-04-23_12h01.23.595,jersey_experiment_5_v0,2023.2.2,Win32,84.74576271,,,,,,,,,,,,,,,,518.7235,520.0173,520.0175,522.4174,return,0.2063,,49.08854167,,,,,,FBP-PT-19.png,0.4,1.2,58,0.5,,,,,,,,,,,,,0,14,14,57,1,,,,,,,,,,,,,,,,,,,,,,,,,,,,
,,,,,SPR24_078,18,F,2024-04-23_12h01.23.595,jersey_experiment_5_v0,2023.2.2,Win32,84.74576271,,,,,,,,,,,,,,,,522.4177,523.4646,523.4647,524.982,return,0.178,,6.510416667,,,,,,FBP-OG-71.png,0.35,1.2,1,0.25,,,,,,,,,,,,,0,15,15,0,1,,,,,,,,,,,,,,,,,,,,,,,,,,,,
,,,,,SPR24_078,18,F,2024-04-23_12h01.23.595,jersey_experiment_5_v0,2023.2.2,Win32,84.74576271,,,,,,,,,,,,,,,,524.9822,526.2765,526.2767,527.1588,return,0.1896,,46.22395833,,,,,,FBP-PT-18.png,0.4,1.2,53,0.5,,,,,,,,,,,,,0,16,16,52,1,,,,,,,,,,,,,,,,,,,,,,,,,,,,
,,,,,SPR24_078,18,F,2024-04-23_12h01.23.595,jersey_experiment_5_v0,2023.2.2,Win32,84.74576271,,,,,,,,,,,,,,,,527.159,528.2059,528.2061,529.159,return,0.1184,,29.03645833,,,,,,FBP-OG-91.png,0.35,1.2,11,0.25,,,,,,,,,,,,,0,17,17,10,1,,,,,,,,,,,,,,,,,,,,,,,,,,,,
,,,,,SPR24_078,18,F,2024-04-23_12h01.23.595,jersey_experiment_5_v0,2023.2.2,Win32,84.74576271,,,,,,,,,,,,,,,,529.1592,530.453,530.4533,532.1355,return,0.7792,,72.78645833,,,,,,FBP-YG-19.png,0.45,1.2,30,0.5,,,,,,,,,,,,,0,18,18,29,1,,,,,,,,,,,,,,,,,,,,,,,,,,,,
,,,,,SPR24_078,18,F,2024-04-23_12h01.23.595,jersey_experiment_5_v0,2023.2.2,Win32,84.74576271,,,,,,,,,,,,,,,,532.1357,533.1825,533.1828,534.3122,return,0.2124,,94.27083333,,,,,,FBP-OG-71.png,0.45,1.2,5,0.25,,,,,,,,,,,,,0,19,19,4,1,,,,,,,,,,,,,,,,,,,,,,,,,,,,
,,,,,SPR24_078,18,F,2024-04-23_12h01.23.595,jersey_experiment_5_v0,2023.2.2,Win32,84.74576271,,,,,,,,,,,,,,,,534.3125,535.6063,535.6065,536.265,return,0.179,,88.02083333,,,,,,FBP-PT-19.png,0.43,1.2,59,0.5,,,,,,,,,,,,,0,20,20,58,1,,,,,,,,,,,,,,,,,,,,,,,,,,,,
,,,,,SPR24_078,18,F,2024-04-23_12h01.23.595,jersey_experiment_5_v0,2023.2.2,Win32,84.74576271,,,,,,,,,,,,,,,,536.2652,537.5591,537.5594,538.2179,return,0.2029,,87.5,,,,,,FBP-YG-17.png,0.43,1.2,19,0.5,,,,,,,,,,,,,0,21,21,18,1,,,,,,,,,,,,,,,,,,,,,,,,,,,,
,,,,,SPR24_078,18,F,2024-04-23_12h01.23.595,jersey_experiment_5_v0,2023.2.2,Win32,84.74576271,,,,,,,,,,,,,,,,538.2181,539.512,539.5122,540.0181,return,0.1731,,87.36979167,,,,,,FBP-YG-18.png,0.43,1.2,24,0.5,,,,,,,,,,,,,0,22,22,23,1,,,,,,,,,,,,,,,,,,,,,,,,,,,,
,,,,,SPR24_078,18,F,2024-04-23_12h01.23.595,jersey_experiment_5_v0,2023.2.2,Win32,84.74576271,,,,,,,,,,,,,,,,540.0183,541.3123,541.3126,542.5005,return,0.2296,,21.09375,,,,,,FBP-PT-17.png,0.35,1.2,46,0.5,,,,,,,,,,,,,0,23,23,45,1,,,,,,,,,,,,,,,,,,,,,,,,,,,,
,,,,,SPR24_078,18,F,2024-04-23_12h01.23.595,jersey_experiment_5_v0,2023.2.2,Win32,84.74576271,,,,,,,,,,,,,,,,542.5007,543.7947,543.7949,545.0299,return,0.3437,,9.635416667,,,,,,FBP-PT-18.png,0.35,1.2,51,0.5,,,,,,,,,,,,,0,24,24,50,1,,,,,,,,,,,,,,,,,,,,,,,,,,,,
,,,,,SPR24_078,18,F,2024-04-23_12h01.23.595,jersey_experiment_5_v0,2023.2.2,Win32,84.74576271,,,,,,,,,,,,,,,,545.0301,546.0771,546.0773,547.03,return,0.131,,39.32291667,,,,,,FBP-OG-81.png,0.4,1.2,8,0.25,,,,,,,,,,,,,0,25,25,7,1,,,,,,,,,,,,,,,,,,,,,,,,,,,,
,,,,,SPR24_078,18,F,2024-04-23_12h01.23.595,jersey_experiment_5_v0,2023.2.2,Win32,84.74576271,,,,,,,,,,,,,,,,547.0301,548.3244,548.3246,549.2418,return,0.1975,,66.015625,,,,,,FBP-PT-17.png,0.43,1.2,49,0.5,,,,,,,,,,,,,0,26,26,48,1,,,,,,,,,,,,,,,,,,,,,,,,,,,,
,,,,,SPR24_078,18,F,2024-04-23_12h01.23.595,jersey_experiment_5_v0,2023.2.2,Win32,84.74576271,,,,,,,,,,,,,,,,549.2421,550.5361,550.5363,551.8891,return,0.1943,,0.78125,,,,,,FBP-YG-17.png,0.35,1.2,16,0.5,,,,,,,,,,,,,0,27,27,15,1,,,,,,,,,,,,,,,,,,,,,,,,,,,,
,,,,,SPR24_078,18,F,2024-04-23_12h01.23.595,jersey_experiment_5_v0,2023.2.2,Win32,84.74576271,,,,,,,,,,,,,,,,551.8892,552.9361,552.9364,554.3599,return,0.1317,,96.74479167,,,,,,FBP-OG-81.png,0.45,1.2,10,0.25,,,,,,,,,,,,,0,28,28,9,1,,,,,,,,,,,,,,,,,,,,,,,,,,,,
,,,,,SPR24_078,18,F,2024-04-23_12h01.23.595,jersey_experiment_5_v0,2023.2.2,Win32,84.74576271,,,,,,,,,,,,,,,,554.3601,555.6541,555.6542,556.6303,return,0.2247,,24.609375,,,,,,FBP-YG-18.png,0.37,1.2,22,0.5,,,,,,,,,,,,,0,29,29,21,1,,,,,,,,,,,,,,,,,,,,,,,,,,,,
,,,,,SPR24_078,18,F,2024-04-23_12h01.23.595,jersey_experiment_5_v0,2023.2.2,Win32,84.74576271,,,,,,,,,,,,,,,,556.6306,557.9245,557.9247,559.8893,return,0.209,,0.78125,,,,,,FBP-YG-19.png,0.35,1.2,26,0.5,,,,,,,,,,,,,0,30,30,25,1,,,,,,,,,,,,,,,,,,,,,,,,,,,,
,,,,,SPR24_078,18,F,2024-04-23_12h01.23.595,jersey_experiment_5_v0,2023.2.2,Win32,84.74576271,,,,,,,,,,,,,,,,559.8895,561.1835,561.1836,562.1013,return,0.1199,,90.36458333,,,,,,FBP-YG-18.png,0.45,1.2,25,0.5,,,,,,,,,,,,,0,31,31,24,1,,,,,,,,,,,,,,,,,,,,,,,,,,,,
,,,,,SPR24_078,18,F,2024-04-23_12h01.23.595,jersey_experiment_5_v0,2023.2.2,Win32,84.74576271,,,,,,,,,,,,,,,,562.1015,563.1485,563.1486,564.5719,return,0.2257,,15.49479167,,,,,,FBP-OG-81.png,0.37,1.2,7,0.25,,,,,,,,,,,,,0,32,32,6,1,,,,,,,,,,,,,,,,,,,,,,,,,,,,
,,,,,SPR24_078,18,F,2024-04-23_12h01.23.595,jersey_experiment_5_v0,2023.2.2,Win32,84.74576271,,,,,,,,,,,,,,,,564.5721,565.6189,565.619,567.2895,return,0.127,,41.66666667,,,,,,FBP-OG-91.png,0.4,1.2,13,0.25,,,,,,,,,,,,,0,33,33,12,1,,,,,,,,,,,,,,,,,,,,,,,,,,,,
,,,,,SPR24_078,18,F,2024-04-23_12h01.23.595,jersey_experiment_5_v0,2023.2.2,Win32,84.74576271,,,,,,,,,,,,,,,,567.2897,568.5837,568.5838,569.525,return,0.2168,,48.17708333,,,,,,FBP-YG-19.png,0.37,1.2,27,0.5,,,,,,,,,,,,,0,34,34,26,1,,,,,,,,,,,,,,,,,,,,,,,,,,,,
,,,,,SPR24_078,18,F,2024-04-23_12h01.23.595,jersey_experiment_5_v0,2023.2.2,Win32,84.74576271,,,,,,,,,,,,,,,,569.5251,570.819,570.8192,572.5838,return,1.2495,,50.13020833,,,,,,FBP-YG-19.png,0.4,1.2,28,0.5,,,,,,,,,,,,,0,35,35,27,1,,,,,,,,,,,,,,,,,,,,,,,,,,,,
,,,,,SPR24_078,18,F,2024-04-23_12h01.23.595,jersey_experiment_5_v0,2023.2.2,Win32,84.74576271,,,,,,,,,,,,,,,,572.584,573.878,573.8783,574.7605,return,0.2589,,33.33333333,,,,,,FBP-PT-19.png,0.37,1.2,57,0.5,,,,,,,,,,,,,0,36,36,56,1,,,,,,,,,,,,,,,,,,,,,,,,,,,,
,,,,,SPR24_078,18,F,2024-04-23_12h01.23.595,jersey_experiment_5_v0,2023.2.2,Win32,84.74576271,,,,,,,,,,,,,,,,574.7607,576.0546,576.0548,577.5369,return,0.3034,,75,,,,,,FBP-PT-18.png,0.45,1.2,55,0.5,,,,,,,,,,,,,0,37,37,54,1,,,,,,,,,,,,,,,,,,,,,,,,,,,,
,,,,,SPR24_078,18,F,2024-04-23_12h01.23.595,jersey_experiment_5_v0,2023.2.2,Win32,84.74576271,,,,,,,,,,,,,,,,577.5371,578.584,578.5844,580.443,return,0.8125,,52.47395833,,,,,,FBP-RB-19.png,0.35,1.2,41,0.25,,,,,,,,,,,,,0,38,38,40,1,,,,,,,,,,,,,,,,,,,,,,,,,,,,
,,,,,SPR24_078,18,F,2024-04-23_12h01.23.595,jersey_experiment_5_v0,2023.2.2,Win32,84.74576271,,,,,,,,,,,,,,,,580.4432,581.4901,581.4903,582.4078,return,0.212,,63.02083333,,,,,,FBP-OG-81.png,0.43,1.2,9,0.25,,,,,,,,,,,,,0,39,39,8,1,,,,,,,,,,,,,,,,,,,,,,,,,,,,
,,,,,SPR24_078,18,F,2024-04-23_12h01.23.595,jersey_experiment_5_v0,2023.2.2,Win32,84.74576271,,,,,,,,,,,,,,,,582.408,583.7021,583.7023,585.3609,return,0.1976,,69.27083333,,,,,,FBP-YG-17.png,0.4,1.2,18,0.5,,,,,,,,,,,,,0,40,40,17,1,,,,,,,,,,,,,,,,,,,,,,,,,,,,
,,,,,SPR24_078,18,F,2024-04-23_12h01.23.595,jersey_experiment_5_v0,2023.2.2,Win32,84.74576271,,,,,,,,,,,,,,,,585.3611,586.408,586.4081,587.7491,return,0.2611,,93.88020833,,,,,,FBP-OG-71.png,0.43,1.2,4,0.25,,,,,,,,,,,,,0,41,41,3,1,,,,,,,,,,,,,,,,,,,,,,,,,,,,
,,,,,SPR24_078,18,F,2024-04-23_12h01.23.595,jersey_experiment_5_v0,2023.2.2,Win32,84.74576271,,,,,,,,,,,,,,,,587.7494,588.7963,588.7965,590.8081,return,0.2589,,99.609375,,,,,,FBP-OG-91.png,0.43,1.2,14,0.25,,,,,,,,,,,,,0,42,42,13,1,,,,,,,,,,,,,,,,,,,,,,,,,,,,
,,,,,SPR24_078,18,F,2024-04-23_12h01.23.595,jersey_experiment_5_v0,2023.2.2,Win32,84.74576271,,,,,,,,,,,,,,,,590.8083,592.1022,592.1024,593.6083,return,0.7199,,95.703125,,,,,,FBP-PT-19.png,0.45,1.2,60,0.5,,,,,,,,,,,,,0,43,43,59,1,,,,,,,,,,,,,,,,,,,,,,,,,,,,
,,,,,SPR24_078,18,F,2024-04-23_12h01.23.595,jersey_experiment_5_v0,2023.2.2,Win32,84.74576271,,,,,,,,,,,,,,,,593.6084,594.6552,594.6554,595.8788,return,0.5915,,78.515625,,,,,,FBP-RB-19.png,0.4,1.2,43,0.25,,,,,,,,,,,,,0,44,44,42,1,,,,,,,,,,,,,,,,,,,,,,,,,,,,
,,,,,SPR24_078,18,F,2024-04-23_12h01.23.595,jersey_experiment_5_v0,2023.2.2,Win32,84.74576271,,,,,,,,,,,,,,,,595.8791,596.9259,596.9261,598.0907,return,0.1511,,19.921875,,,,,,FBP-RB-18.png,0.35,1.2,36,0.25,,,,,,,,,,,,,0,45,45,35,1,,,,,,,,,,,,,,,,,,,,,,,,,,,,
,,,,,SPR24_078,18,F,2024-04-23_12h01.23.595,jersey_experiment_5_v0,2023.2.2,Win32,84.74576271,,,,,,,,,,,,,,,,598.091,599.1379,599.1381,599.879,return,0.1768,,20.703125,,,,,,FBP-RB-18.png,0.37,1.2,37,0.25,,,,,,,,,,,,,0,46,46,36,1,,,,,,,,,,,,,,,,,,,,,,,,,,,,
,,,,,SPR24_078,18,F,2024-04-23_12h01.23.595,jersey_experiment_5_v0,2023.2.2,Win32,84.74576271,,,,,,,,,,,,,,,,599.8793,600.9261,600.9263,602.1144,return,0.2196,,86.84895833,,,,,,FBP-RB-18.png,0.45,1.2,40,0.25,,,,,,,,,,,,,0,47,47,39,1,,,,,,,,,,,,,,,,,,,,,,,,,,,,
,,,,,SPR24_078,18,F,2024-04-23_12h01.23.595,jersey_experiment_5_v0,2023.2.2,Win32,84.74576271,,,,,,,,,,,,,,,,602.1145,603.4083,603.4085,604.7613,return,0.1185,,60.67708333,,,,,,FBP-YG-18.png,0.4,1.2,23,0.5,,,,,,,,,,,,,0,48,48,22,1,,,,,,,,,,,,,,,,,,,,,,,,,,,,
,,,,,SPR24_078,18,F,2024-04-23_12h01.23.595,jersey_experiment_5_v0,2023.2.2,Win32,84.74576271,,,,,,,,,,,,,,,,604.7614,605.8086,605.8088,607.1263,return,0.2718,,25.65104167,,,,,,FBP-OG-71.png,0.37,1.2,2,0.25,,,,,,,,,,,,,0,49,49,1,1,,,,,,,,,,,,,,,,,,,,,,,,,,,,
,,,,,SPR24_078,18,F,2024-04-23_12h01.23.595,jersey_experiment_5_v0,2023.2.2,Win32,84.74576271,,,,,,,,,,,,,,,,607.1265,608.1733,608.1736,609.6556,return,0.1557,,75.13020833,,,,,,FBP-RB-18.png,0.43,1.2,39,0.25,,,,,,,,,,,,,0,50,50,38,1,,,,,,,,,,,,,,,,,,,,,,,,,,,,
,,,,,SPR24_078,18,F,2024-04-23_12h01.23.595,jersey_experiment_5_v0,2023.2.2,Win32,84.74576271,,,,,,,,,,,,,,,,609.6559,610.7027,610.7029,612.8089,return,0.1552,,50.13020833,,,,,,FBP-OG-91.png,0.37,1.2,12,0.25,,,,,,,,,,,,,0,51,51,11,1,,,,,,,,,,,,,,,,,,,,,,,,,,,,
,,,,,SPR24_078,18,F,2024-04-23_12h01.23.595,jersey_experiment_5_v0,2023.2.2,Win32,84.74576271,,,,,,,,,,,,,,,,612.8092,613.8557,613.856,614.8912,return,0.1649,,74.47916667,,,,,,FBP-RB-17.png,0.45,1.2,35,0.25,,,,,,,,,,,,,0,52,52,34,1,,,,,,,,,,,,,,,,,,,,,,,,,,,,
,,,,,SPR24_078,18,F,2024-04-23_12h01.23.595,jersey_experiment_5_v0,2023.2.2,Win32,84.74576271,,,,,,,,,,,,,,,,614.8915,616.1854,616.1856,617.2561,return,0.179,,61.19791667,,,,,,FBP-PT-17.png,0.45,1.2,50,0.5,,,,,,,,,,,,,0,53,53,49,1,,,,,,,,,,,,,,,,,,,,,,,,,,,,
,,,,,SPR24_078,18,F,2024-04-23_12h01.23.595,jersey_experiment_5_v0,2023.2.2,Win32,84.74576271,,,,,,,,,,,,,,,,617.2563,618.303,618.3033,622.2091,return,0.2441,,55.59895833,,,,,,FBP-OG-71.png,0.4,1.2,3,0.25,,,,,,,,,,,,,0,54,54,2,1,,,,,,,,,,,,,,,,,,,,,,,,,,,,
,,,,,SPR24_078,18,F,2024-04-23_12h01.23.595,jersey_experiment_5_v0,2023.2.2,Win32,84.74576271,,,,,,,,,,,,,,,,622.2093,623.2563,623.2565,624.2445,return,0.1204,,68.359375,,,,,,FBP-RB-17.png,0.43,1.2,34,0.25,,,,,,,,,,,,,0,55,55,33,1,,,,,,,,,,,,,,,,,,,,,,,,,,,,
,,,,,SPR24_078,18,F,2024-04-23_12h01.23.595,jersey_experiment_5_v0,2023.2.2,Win32,84.74576271,,,,,,,,,,,,,,,,624.2447,625.2917,625.2919,626.6328,return,0.2224,,18.22916667,,,,,,FBP-RB-17.png,0.37,1.2,32,0.25,,,,,,,,,,,,,0,56,56,31,1,,,,,,,,,,,,,,,,,,,,,,,,,,,,
,,,,,SPR24_078,18,F,2024-04-23_12h01.23.595,jersey_experiment_5_v0,2023.2.2,Win32,84.74576271,,,,,,,,,,,,,,,,626.6329,627.9269,627.9271,628.9506,return,0.18,,18.48958333,,,,,,FBP-YG-17.png,0.37,1.2,17,0.5,,,,,,,,,,,,,0,57,57,16,1,,,,,,,,,,,,,,,,,,,,,,,,,,,,
,,,,,SPR24_078,18,F,2024-04-23_12h01.23.595,jersey_experiment_5_v0,2023.2.2,Win32,84.74576271,,,,,,,,,,,,,,,,628.9508,629.9975,629.9976,631.3507,return,0.1801,,61.328125,,,,,,FBP-RB-19.png,0.43,1.2,44,0.25,,,,,,,,,,,,,0,58,58,43,1,,,,,,,,,,,,,,,,,,,,,,,,,,,,
,,,,,SPR24_078,18,F,2024-04-23_12h01.23.595,jersey_experiment_5_v0,2023.2.2,Win32,84.74576271,,,,,,,,,,,,,,,,631.3509,632.6448,632.645,633.88,return,0.6702,,76.30208333,,,,,,FBP-YG-17.png,0.45,1.2,20,0.5,,,,,,,,,,,,,0,59,59,19,1,,,,,,,,,,,,,,,,,,,,,,,,,,,,
,,,,,SPR24_078,18,F,2024-04-23_12h01.23.595,jersey_experiment_5_v0,2023.2.2,Win32,84.74576271,,,,,,,,,,,,,,,,633.8816,635.1743,635.1744,636.2096,return,0.3,,63.54166667,,,,,,FBP-PT-71.png,0.4,1.2,48,0.5,,,,,,,,,,,,,,,,,,0,0,0,47,1,,,,,,,,,,,,,,,,,,,,,,,
,,,,,SPR24_078,18,F,2024-04-23_12h01.23.595,jersey_experiment_5_v0,2023.2.2,Win32,84.74576271,,,,,,,,,,,,,,,,636.2099,637.5037,637.5039,638.4214,return,0.2016,,50.13020833,,,,,,FBP-PT-81.png,0.4,1.2,53,0.5,,,,,,,,,,,,,,,,,,0,1,1,52,1,,,,,,,,,,,,,,,,,,,,,,,
,,,,,SPR24_078,18,F,2024-04-23_12h01.23.595,jersey_experiment_5_v0,2023.2.2,Win32,84.74576271,,,,,,,,,,,,,,,,638.4215,639.4686,639.4689,640.3157,return,0.1654,,54.94791667,,,,,,FBP-RB-81.png,0.4,1.2,38,0.25,,,,,,,,,,,,,,,,,,0,2,2,37,1,,,,,,,,,,,,,,,,,,,,,,,
,,,,,SPR24_078,18,F,2024-04-23_12h01.23.595,jersey_experiment_5_v0,2023.2.2,Win32,84.74576271,,,,,,,,,,,,,,,,640.316,641.61,641.6101,642.2567,return,0.1357,,72.00520833,,,,,,FBP-PT-71.png,0.43,1.2,49,0.5,,,,,,,,,,,,,,,,,,0,3,3,48,1,,,,,,,,,,,,,,,,,,,,,,,
,,,,,SPR24_078,18,F,2024-04-23_12h01.23.595,jersey_experiment_5_v0,2023.2.2,Win32,84.74576271,,,,,,,,,,,,,,,,642.257,643.5511,643.5512,644.2923,return,0.1824,,32.29166667,,,,,,FBP-PT-81.png,0.37,1.2,52,0.5,,,,,,,,,,,,,,,,,,0,4,4,51,1,,,,,,,,,,,,,,,,,,,,,,,
,,,,,SPR24_078,18,F,2024-04-23_12h01.23.595,jersey_experiment_5_v0,2023.2.2,Win32,84.74576271,,,,,,,,,,,,,,,,644.2925,645.5863,645.5865,646.5512,return,0.3062,,15.36458333,,,,,,FBP-YG-71.png,0.35,1.2,16,0.5,,,,,,,,,,,,,,,,,,0,5,5,15,1,,,,,,,,,,,,,,,,,,,,,,,
,,,,,SPR24_078,18,F,2024-04-23_12h01.23.595,jersey_experiment_5_v0,2023.2.2,Win32,84.74576271,,,,,,,,,,,,,,,,646.5513,647.5981,647.5983,648.316,return,0.2116,,6.640625,,,,,,FBP-OG-18.png,0.35,1.2,6,0.25,,,,,,,,,,,,,,,,,,0,6,6,5,1,,,,,,,,,,,,,,,,,,,,,,,
,,,,,SPR24_078,18,F,2024-04-23_12h01.23.595,jersey_experiment_5_v0,2023.2.2,Win32,84.74576271,,,,,,,,,,,,,,,,648.3162,649.3629,649.3631,650.116,return,0.1938,,12.5,,,,,,FBP-RB-71.png,0.37,1.2,32,0.25,,,,,,,,,,,,,,,,,,0,7,7,31,1,,,,,,,,,,,,,,,,,,,,,,,
,,,,,SPR24_078,18,F,2024-04-23_12h01.23.595,jersey_experiment_5_v0,2023.2.2,Win32,84.74576271,,,,,,,,,,,,,,,,650.1162,651.4103,651.4105,652.7279,return,0.7315,,55.72916667,,,,,,FBP-YG-81.png,0.45,1.2,25,0.5,,,,,,,,,,,,,,,,,,0,8,8,24,1,,,,,,,,,,,,,,,,,,,,,,,
,,,,,SPR24_078,18,F,2024-04-23_12h01.23.595,jersey_experiment_5_v0,2023.2.2,Win32,84.74576271,,,,,,,,,,,,,,,,652.7281,654.022,654.0221,654.8574,return,0.2265,,36.06770833,,,,,,FBP-PT-81.png,0.35,1.2,51,0.5,,,,,,,,,,,,,,,,,,0,9,9,50,1,,,,,,,,,,,,,,,,,,,,,,,
,,,,,SPR24_078,18,F,2024-04-23_12h01.23.595,jersey_experiment_5_v0,2023.2.2,Win32,84.74576271,,,,,,,,,,,,,,,,654.8577,656.1515,656.1518,656.8574,return,0.1649,,67.1875,,,,,,FBP-YG-81.png,0.43,1.2,24,0.5,,,,,,,,,,,,,,,,,,0,10,10,23,1,,,,,,,,,,,,,,,,,,,,,,,
,,,,,SPR24_078,18,F,2024-04-23_12h01.23.595,jersey_experiment_5_v0,2023.2.2,Win32,84.74576271,,,,,,,,,,,,,,,,656.8577,657.9044,657.9046,659.7046,return,0.235,,86.06770833,,,,,,FBP-OG-17.png,0.45,1.2,5,0.25,,,,,,,,,,,,,,,,,,0,11,11,4,1,,,,,,,,,,,,,,,,,,,,,,,
,,,,,SPR24_078,18,F,2024-04-23_12h01.23.595,jersey_experiment_5_v0,2023.2.2,Win32,84.74576271,,,,,,,,,,,,,,,,659.7048,660.7515,660.7517,661.9401,return,0.206,,21.484375,,,,,,FBP-OG-17.png,0.35,1.2,1,0.25,,,,,,,,,,,,,,,,,,0,12,12,0,1,,,,,,,,,,,,,,,,,,,,,,,
,,,,,SPR24_078,18,F,2024-04-23_12h01.23.595,jersey_experiment_5_v0,2023.2.2,Win32,84.74576271,,,,,,,,,,,,,,,,661.9403,662.9868,662.9871,664.3752,return,0.1762,,59.765625,,,,,,FBP-RB-81.png,0.43,1.2,39,0.25,,,,,,,,,,,,,,,,,,0,13,13,38,1,,,,,,,,,,,,,,,,,,,,,,,
,,,,,SPR24_078,18,F,2024-04-23_12h01.23.595,jersey_experiment_5_v0,2023.2.2,Win32,84.74576271,,,,,,,,,,,,,,,,664.3754,665.6696,665.6697,666.4342,return,0.2311,,27.21354167,,,,,,FBP-PT-91.png,0.35,1.2,56,0.5,,,,,,,,,,,,,,,,,,0,14,14,55,1,,,,,,,,,,,,,,,,,,,,,,,
,,,,,SPR24_078,18,F,2024-04-23_12h01.23.595,jersey_experiment_5_v0,2023.2.2,Win32,84.74576271,,,,,,,,,,,,,,,,666.4343,667.4811,667.4813,670.3638,return,0.1416,,33.46354167,,,,,,FBP-OG-19.png,0.4,1.2,13,0.25,,,,,,,,,,,,,,,,,,0,15,15,12,1,,,,,,,,,,,,,,,,,,,,,,,
,,,,,SPR24_078,18,F,2024-04-23_12h01.23.595,jersey_experiment_5_v0,2023.2.2,Win32,84.74576271,,,,,,,,,,,,,,,,670.364,671.4108,671.411,672.5286,return,0.2428,,2.473958333,,,,,,FBP-OG-19.png,0.37,1.2,12,0.25,,,,,,,,,,,,,,,,,,0,16,16,11,1,,,,,,,,,,,,,,,,,,,,,,,
,,,,,SPR24_078,18,F,2024-04-23_12h01.23.595,jersey_experiment_5_v0,2023.2.2,Win32,84.74576271,,,,,,,,,,,,,,,,672.5288,673.5755,673.5757,675.5286,return,0.1894,,2.473958333,,,,,,FBP-RB-81.png,0.35,1.2,36,0.25,,,,,,,,,,,,,,,,,,0,17,17,35,1,,,,,,,,,,,,,,,,,,,,,,,
,,,,,SPR24_078,18,F,2024-04-23_12h01.23.595,jersey_experiment_5_v0,2023.2.2,Win32,84.74576271,,,,,,,,,,,,,,,,675.5289,676.8226,676.8228,677.7523,return,0.2502,,8.59375,,,,,,FBP-PT-71.png,0.37,1.2,47,0.5,,,,,,,,,,,,,,,,,,0,18,18,46,1,,,,,,,,,,,,,,,,,,,,,,,
,,,,,SPR24_078,18,F,2024-04-23_12h01.23.595,jersey_experiment_5_v0,2023.2.2,Win32,84.74576271,,,,,,,,,,,,,,,,677.7525,678.7992,678.7993,682.2111,return,0.336,,47.00520833,,,,,,FBP-OG-19.png,0.35,1.2,11,0.25,,,,,,,,,,,,,,,,,,0,19,19,10,1,,,,,,,,,,,,,,,,,,,,,,,
,,,,,SPR24_078,18,F,2024-04-23_12h01.23.595,jersey_experiment_5_v0,2023.2.2,Win32,84.74576271,,,,,,,,,,,,,,,,682.2113,683.2584,683.2585,684.2937,return,0.1575,,27.99479167,,,,,,FBP-RB-91.png,0.35,1.2,41,0.25,,,,,,,,,,,,,,,,,,0,20,20,40,1,,,,,,,,,,,,,,,,,,,,,,,
,,,,,SPR24_078,18,F,2024-04-23_12h01.23.595,jersey_experiment_5_v0,2023.2.2,Win32,84.74576271,,,,,,,,,,,,,,,,684.2939,685.588,685.5882,686.3408,return,0.1348,,72.265625,,,,,,FBP-PT-81.png,0.45,1.2,55,0.5,,,,,,,,,,,,,,,,,,0,21,21,54,1,,,,,,,,,,,,,,,,,,,,,,,
,,,,,SPR24_078,18,F,2024-04-23_12h01.23.595,jersey_experiment_5_v0,2023.2.2,Win32,84.74576271,,,,,,,,,,,,,,,,686.3409,687.3878,687.3879,688.5878,return,0.1886,,86.328125,,,,,,FBP-RB-71.png,0.43,1.2,34,0.25,,,,,,,,,,,,,,,,,,0,22,22,33,1,,,,,,,,,,,,,,,,,,,,,,,
,,,,,SPR24_078,18,F,2024-04-23_12h01.23.595,jersey_experiment_5_v0,2023.2.2,Win32,84.74576271,,,,,,,,,,,,,,,,688.588,689.6349,689.6352,690.5057,return,0.235,,96.35416667,,,,,,FBP-RB-91.png,0.45,1.2,45,0.25,,,,,,,,,,,,,,,,,,0,23,23,44,1,,,,,,,,,,,,,,,,,,,,,,,
,,,,,SPR24_078,18,F,2024-04-23_12h01.23.595,jersey_experiment_5_v0,2023.2.2,Win32,84.74576271,,,,,,,,,,,,,,,,690.5058,691.5528,691.5529,692.6352,return,0.1743,,35.9375,,,,,,FBP-RB-91.png,0.37,1.2,42,0.25,,,,,,,,,,,,,,,,,,0,24,24,41,1,,,,,,,,,,,,,,,,,,,,,,,
,,,,,SPR24_078,18,F,2024-04-23_12h01.23.595,jersey_experiment_5_v0,2023.2.2,Win32,84.74576271,,,,,,,,,,,,,,,,692.6355,693.6823,693.6824,694.4823,return,0.2166,,69.01041667,,,,,,FBP-RB-81.png,0.45,1.2,40,0.25,,,,,,,,,,,,,,,,,,0,25,25,39,1,,,,,,,,,,,,,,,,,,,,,,,
,,,,,SPR24_078,18,F,2024-04-23_12h01.23.595,jersey_experiment_5_v0,2023.2.2,Win32,84.74576271,,,,,,,,,,,,,,,,694.4826,695.7764,695.7766,696.5058,return,0.2028,,77.60416667,,,,,,FBP-YG-71.png,0.45,1.2,20,0.5,,,,,,,,,,,,,,,,,,0,26,26,19,1,,,,,,,,,,,,,,,,,,,,,,,
,,,,,SPR24_078,18,F,2024-04-23_12h01.23.595,jersey_experiment_5_v0,2023.2.2,Win32,84.74576271,,,,,,,,,,,,,,,,696.5061,697.5529,697.5532,698.6117,return,0.2183,,29.42708333,,,,,,FBP-OG-17.png,0.37,1.2,2,0.25,,,,,,,,,,,,,,,,,,0,27,27,1,1,,,,,,,,,,,,,,,,,,,,,,,
,,,,,SPR24_078,18,F,2024-04-23_12h01.23.595,jersey_experiment_5_v0,2023.2.2,Win32,84.74576271,,,,,,,,,,,,,,,,698.612,699.9058,699.906,701.5765,return,0.1193,,33.85416667,,,,,,FBP-PT-91.png,0.4,1.2,58,0.5,,,,,,,,,,,,,,,,,,0,28,28,57,1,,,,,,,,,,,,,,,,,,,,,,,
,,,,,SPR24_078,18,F,2024-04-23_12h01.23.595,jersey_experiment_5_v0,2023.2.2,Win32,84.74576271,,,,,,,,,,,,,,,,701.5767,702.6237,702.6238,703.8473,return,0.1651,,69.66145833,,,,,,FBP-OG-17.png,0.43,1.2,4,0.25,,,,,,,,,,,,,,,,,,0,29,29,3,1,,,,,,,,,,,,,,,,,,,,,,,
,,,,,SPR24_078,18,F,2024-04-23_12h01.23.595,jersey_experiment_5_v0,2023.2.2,Win32,84.74576271,,,,,,,,,,,,,,,,703.8475,705.1416,705.1418,705.9061,return,0.1722,,74.86979167,,,,,,FBP-PT-91.png,0.45,1.2,60,0.5,,,,,,,,,,,,,,,,,,0,30,30,59,1,,,,,,,,,,,,,,,,,,,,,,,
,,,,,SPR24_078,18,F,2024-04-23_12h01.23.595,jersey_experiment_5_v0,2023.2.2,Win32,84.74576271,,,,,,,,,,,,,,,,705.9063,707.2002,707.2004,707.9062,return,0.2426,,73.56770833,,,,,,FBP-YG-81.png,0.4,1.2,23,0.5,,,,,,,,,,,,,,,,,,0,31,31,22,1,,,,,,,,,,,,,,,,,,,,,,,
,,,,,SPR24_078,18,F,2024-04-23_12h01.23.595,jersey_experiment_5_v0,2023.2.2,Win32,84.74576271,,,,,,,,,,,,,,,,707.9064,709.2004,709.2006,710.0709,return,0.1439,,53.64583333,,,,,,FBP-YG-81.png,0.35,1.2,21,0.5,,,,,,,,,,,,,,,,,,0,32,32,20,1,,,,,,,,,,,,,,,,,,,,,,,
,,,,,SPR24_078,18,F,2024-04-23_12h01.23.595,jersey_experiment_5_v0,2023.2.2,Win32,84.74576271,,,,,,,,,,,,,,,,710.0711,711.1181,711.1183,712.2007,return,0.1797,,22.13541667,,,,,,FBP-RB-71.png,0.35,1.2,31,0.25,,,,,,,,,,,,,,,,,,0,33,33,30,1,,,,,,,,,,,,,,,,,,,,,,,
,,,,,SPR24_078,18,F,2024-04-23_12h01.23.595,jersey_experiment_5_v0,2023.2.2,Win32,84.74576271,,,,,,,,,,,,,,,,712.2009,713.4947,713.4949,714.6828,return,0.0563,,48.17708333,,,,,,FBP-PT-81.png,0.43,1.2,54,0.5,,,,,,,,,,,,,,,,,,0,34,34,53,1,,,,,,,,,,,,,,,,,,,,,,,
,,,,,SPR24_078,18,F,2024-04-23_12h01.23.595,jersey_experiment_5_v0,2023.2.2,Win32,84.74576271,,,,,,,,,,,,,,,,714.683,715.7299,715.7302,716.636,return,0.1737,,34.765625,,,,,,FBP-RB-81.png,0.37,1.2,37,0.25,,,,,,,,,,,,,,,,,,0,35,35,36,1,,,,,,,,,,,,,,,,,,,,,,,
,,,,,SPR24_078,18,F,2024-04-23_12h01.23.595,jersey_experiment_5_v0,2023.2.2,Win32,84.74576271,,,,,,,,,,,,,,,,716.6363,717.6829,717.6831,718.7419,return,0.2834,,56.51041667,,,,,,FBP-OG-18.png,0.4,1.2,8,0.25,,,,,,,,,,,,,,,,,,0,36,36,7,1,,,,,,,,,,,,,,,,,,,,,,,
,,,,,SPR24_078,18,F,2024-04-23_12h01.23.595,jersey_experiment_5_v0,2023.2.2,Win32,84.74576271,,,,,,,,,,,,,,,,718.742,720.0359,720.0363,720.7301,return,0.2121,,76.69270833,,,,,,FBP-YG-71.png,0.43,1.2,19,0.5,,,,,,,,,,,,,,,,,,0,37,37,18,1,,,,,,,,,,,,,,,,,,,,,,,
,,,,,SPR24_078,18,F,2024-04-23_12h01.23.595,jersey_experiment_5_v0,2023.2.2,Win32,84.74576271,,,,,,,,,,,,,,,,720.7304,721.7772,721.7775,722.5067,return,0.1887,,75.91145833,,,,,,FBP-OG-18.png,0.45,1.2,10,0.25,,,,,,,,,,,,,,,,,,0,38,38,9,1,,,,,,,,,,,,,,,,,,,,,,,
,,,,,SPR24_078,18,F,2024-04-23_12h01.23.595,jersey_experiment_5_v0,2023.2.2,Win32,84.74576271,,,,,,,,,,,,,,,,722.5069,723.8009,723.8011,725.3185,return,0.0741,,74.47916667,,,,,,FBP-PT-91.png,0.43,1.2,59,0.5,,,,,,,,,,,,,,,,,,0,39,39,58,1,,,,,,,,,,,,,,,,,,,,,,,
,,,,,SPR24_078,18,F,2024-04-23_12h01.23.595,jersey_experiment_5_v0,2023.2.2,Win32,84.74576271,,,,,,,,,,,,,,,,725.3188,726.6125,726.6127,727.401,return,0.33,,73.56770833,,,,,,FBP-YG-71.png,0.4,1.2,18,0.5,,,,,,,,,,,,,,,,,,0,40,40,17,1,,,,,,,,,,,,,,,,,,,,,,,
,,,,,SPR24_078,18,F,2024-04-23_12h01.23.595,jersey_experiment_5_v0,2023.2.2,Win32,84.74576271,,,,,,,,,,,,,,,,727.4013,728.4479,728.448,728.9775,return,0.147,,73.30729167,,,,,,FBP-RB-91.png,0.4,1.2,43,0.25,,,,,,,,,,,,,,,,,,0,41,41,42,1,,,,,,,,,,,,,,,,,,,,,,,
,,,,,SPR24_078,18,F,2024-04-23_12h01.23.595,jersey_experiment_5_v0,2023.2.2,Win32,84.74576271,,,,,,,,,,,,,,,,728.9777,730.2716,730.2718,730.7775,return,0.1653,,73.30729167,,,,,,FBP-YG-91.png,0.4,1.2,28,0.5,,,,,,,,,,,,,,,,,,0,42,42,27,1,,,,,,,,,,,,,,,,,,,,,,,
,,,,,SPR24_078,18,F,2024-04-23_12h01.23.595,jersey_experiment_5_v0,2023.2.2,Win32,84.74576271,,,,,,,,,,,,,,,,730.7777,731.8246,731.8248,732.3541,return,0.0402,,73.30729167,,,,,,FBP-OG-19.png,0.43,1.2,14,0.25,,,,,,,,,,,,,,,,,,0,43,43,13,1,,,,,,,,,,,,,,,,,,,,,,,
,,,,,SPR24_078,18,F,2024-04-23_12h01.23.595,jersey_experiment_5_v0,2023.2.2,Win32,84.74576271,,,,,,,,,,,,,,,,732.3543,733.6482,733.6483,734.5188,return,0.0826,,78.125,,,,,,FBP-PT-71.png,0.45,1.2,50,0.5,,,,,,,,,,,,,,,,,,0,44,44,49,1,,,,,,,,,,,,,,,,,,,,,,,
,,,,,SPR24_078,18,F,2024-04-23_12h01.23.595,jersey_experiment_5_v0,2023.2.2,Win32,84.74576271,,,,,,,,,,,,,,,,734.5189,735.5662,735.5664,736.5308,return,0.1693,,80.46875,,,,,,FBP-OG-19.png,0.45,1.2,15,0.25,,,,,,,,,,,,,,,,,,0,45,45,14,1,,,,,,,,,,,,,,,,,,,,,,,
,,,,,SPR24_078,18,F,2024-04-23_12h01.23.595,jersey_experiment_5_v0,2023.2.2,Win32,84.74576271,,,,,,,,,,,,,,,,736.531,737.8248,737.8251,739.3542,return,0.2117,,30.72916667,,,,,,FBP-YG-91.png,0.35,1.2,26,0.5,,,,,,,,,,,,,,,,,,0,46,46,25,1,,,,,,,,,,,,,,,,,,,,,,,
,,,,,SPR24_078,18,F,2024-04-23_12h01.23.595,jersey_experiment_5_v0,2023.2.2,Win32,84.74576271,,,,,,,,,,,,,,,,739.3544,740.4015,740.4017,741.4602,return,0.2263,,54.6875,,,,,,FBP-OG-18.png,0.43,1.2,9,0.25,,,,,,,,,,,,,,,,,,0,47,47,8,1,,,,,,,,,,,,,,,,,,,,,,,
,,,,,SPR24_078,18,F,2024-04-23_12h01.23.595,jersey_experiment_5_v0,2023.2.2,Win32,84.74576271,,,,,,,,,,,,,,,,741.4604,742.5074,742.5076,743.331,return,0.0986,,75.13020833,,,,,,FBP-RB-71.png,0.45,1.2,35,0.25,,,,,,,,,,,,,,,,,,0,48,48,34,1,,,,,,,,,,,,,,,,,,,,,,,
,,,,,SPR24_078,18,F,2024-04-23_12h01.23.595,jersey_experiment_5_v0,2023.2.2,Win32,84.74576271,,,,,,,,,,,,,,,,743.3311,744.6251,744.6253,746.2958,return,1.1203,,47.91666667,,,,,,FBP-YG-91.png,0.37,1.2,27,0.5,,,,,,,,,,,,,,,,,,0,49,49,26,1,,,,,,,,,,,,,,,,,,,,,,,
,,,,,SPR24_078,18,F,2024-04-23_12h01.23.595,jersey_experiment_5_v0,2023.2.2,Win32,84.74576271,,,,,,,,,,,,,,,,746.2961,747.5899,747.5901,748.6606,return,0.2166,,26.69270833,,,,,,FBP-PT-71.png,0.35,1.2,46,0.5,,,,,,,,,,,,,,,,,,0,50,50,45,1,,,,,,,,,,,,,,,,,,,,,,,
,,,,,SPR24_078,18,F,2024-04-23_12h01.23.595,jersey_experiment_5_v0,2023.2.2,Win32,84.74576271,,,,,,,,,,,,,,,,748.6608,749.9547,749.9549,750.9549,return,0.0944,,51.43229167,,,,,,FBP-PT-91.png,0.37,1.2,57,0.5,,,,,,,,,,,,,,,,,,0,51,51,56,1,,,,,,,,,,,,,,,,,,,,,,,
,,,,,SPR24_078,18,F,2024-04-23_12h01.23.595,jersey_experiment_5_v0,2023.2.2,Win32,84.74576271,,,,,,,,,,,,,,,,750.9551,752.0018,752.0019,752.8252,return,0.165,,60.41666667,,,,,,FBP-OG-17.png,0.4,1.2,3,0.25,,,,,,,,,,,,,,,,,,0,52,52,2,1,,,,,,,,,,,,,,,,,,,,,,,
,,,,,SPR24_078,18,F,2024-04-23_12h01.23.595,jersey_experiment_5_v0,2023.2.2,Win32,84.74576271,,,,,,,,,,,,,,,,752.8253,754.1195,754.1197,754.9785,return,0.1225,,47.91666667,,,,,,FBP-YG-81.png,0.37,1.2,22,0.5,,,,,,,,,,,,,,,,,,0,53,53,21,1,,,,,,,,,,,,,,,,,,,,,,,
,,,,,SPR24_078,18,F,2024-04-23_12h01.23.595,jersey_experiment_5_v0,2023.2.2,Win32,84.74576271,,,,,,,,,,,,,,,,754.9787,756.0255,756.0257,757.4256,return,0.6877,,62.890625,,,,,,FBP-RB-71.png,0.4,1.2,33,0.25,,,,,,,,,,,,,,,,,,0,54,54,32,1,,,,,,,,,,,,,,,,,,,,,,,
,,,,,SPR24_078,18,F,2024-04-23_12h01.23.595,jersey_experiment_5_v0,2023.2.2,Win32,84.74576271,,,,,,,,,,,,,,,,757.4259,758.7197,758.7199,759.5904,return,0.156,,73.30729167,,,,,,FBP-YG-91.png,0.43,1.2,29,0.5,,,,,,,,,,,,,,,,,,0,55,55,28,1,,,,,,,,,,,,,,,,,,,,,,,
,,,,,SPR24_078,18,F,2024-04-23_12h01.23.595,jersey_experiment_5_v0,2023.2.2,Win32,84.74576271,,,,,,,,,,,,,,,,759.5906,760.6372,760.6373,761.5435,return,0.203,,57.8125,,,,,,FBP-OG-18.png,0.37,1.2,7,0.25,,,,,,,,,,,,,,,,,,0,56,56,6,1,,,,,,,,,,,,,,,,,,,,,,,
,,,,,SPR24_078,18,F,2024-04-23_12h01.23.595,jersey_experiment_5_v0,2023.2.2,Win32,84.74576271,,,,,,,,,,,,,,,,761.5436,762.8375,762.8376,763.5435,return,0.1327,,75.65104167,,,,,,FBP-YG-91.png,0.45,1.2,30,0.5,,,,,,,,,,,,,,,,,,0,57,57,29,1,,,,,,,,,,,,,,,,,,,,,,,
,,,,,SPR24_078,18,F,2024-04-23_12h01.23.595,jersey_experiment_5_v0,2023.2.2,Win32,84.74576271,,,,,,,,,,,,,,,,763.5438,764.8376,764.8378,766.7316,return,1.0352,,49.08854167,,,,,,FBP-YG-71.png,0.37,1.2,17,0.5,,,,,,,,,,,,,,,,,,0,58,58,16,1,,,,,,,,,,,,,,,,,,,,,,,
,,,,,SPR24_078,18,F,2024-04-23_12h01.23.595,jersey_experiment_5_v0,2023.2.2,Win32,84.74576271,,,,,,,,,,,,,,,,766.7317,767.7787,767.7789,768.9199,return,0.152,,82.29166667,,,,,,FBP-RB-91.png,0.43,1.2,44,0.25,,,,,,,,,,,,,,,,,,0,59,59,43,1,,,,,,,,,,,,,,,,,,,,,,,
,,,,,SPR24_078,18,F,2024-04-23_12h01.23.595,jersey_experiment_5_v0,2023.2.2,Win32,84.74576271,,,,,,,,,,,,,,,,,,,,,,,,,,,,,,,,,,,,,,,,,,,,,,,,,,,,,,,,768.9204,773.4264,return,4.4991,,,,,,,,,,,,,,,,,,,
,,,,,SPR24_078,18,F,2024-04-23_12h01.23.595,jersey_experiment_5_v0,2023.2.2,Win32,84.74576271,,,,,,,,,,,,,,,,,,,,,,,,,,,,,,,,,,,,,,,,,,,,,,,,,,,,,,,,,,,,,773.4265,778.4969,1,3.6735,return,1.3809,,,,,,,,,,,,
,,,,,SPR24_078,18,F,2024-04-23_12h01.23.595,jersey_experiment_5_v0,2023.2.2,Win32,84.74576271,,,,,,,,,,,,,,,,,,,,,,,,,,,,,,,,,,,,,,,,,,,,,,,,,,,,,,,,,,,,,,,,,,,,778.4971,831.3506,Perception of size based on color since some of the sizes seemed the same but the colors of the jerseys were different.,right,44.0887,,,,,,
,,,,,SPR24_078,18,F,2024-04-23_12h01.23.595,jersey_experiment_5_v0,2023.2.2,Win32,84.74576271,,,,,,,,,,,,,,,,,,,,,,,,,,,,,,,,,,,,,,,,,,,,,,,,,,,,,,,,,,,,,,,,,,,,,,,,,,831.3508,834.6284,return,3.2691,