requirements.started,requirements.stopped,key_resp_3.keys,key_resp_3.rt,key_resp_3.duration,Subject ID,Age,Gender,date,expName,psychopyVersion,OS,frameRate,instructions1.started,instructions1.stopped,key_resp.keys,key_resp.rt,key_resp.duration,example.started,example.stopped,enter_2.keys,enter_2.rt,enter_2.duration,instructions2.started,instructions2.stopped,enter_3.keys,enter_3.rt,enter_3.duration,image.started,image.stopped,slider_2.started,slider_2.stopped,next.keys,next.rt,next.duration,slider.response,trial_block_1.thisRepN,trial_block_1.thisTrialN,trial_block_1.thisN,trial_block_1.thisIndex,trial_block_1.ran,Path,Width,Height,Index,Duration,trial_block_2.thisRepN,trial_block_2.thisTrialN,trial_block_2.thisN,trial_block_2.thisIndex,trial_block_2.ran,rest_break.started,rest_break.stopped,end_break.started,end_break.stopped,key_resp_5.keys,key_resp_5.rt,key_resp_5.duration,trial_block_3.thisRepN,trial_block_3.thisTrialN,trial_block_3.thisN,trial_block_3.thisIndex,trial_block_3.ran,trial_block_4.thisRepN,trial_block_4.thisTrialN,trial_block_4.thisN,trial_block_4.thisIndex,trial_block_4.ran,questions_intro.started,questions_intro.stopped,enter_12.keys,enter_12.rt,enter_12.duration,question2.started,question2.stopped,question_doingbest.response,question_doingbest.rt,enter_15.keys,enter_15.rt,enter_15.duration,pattern.started,pattern.stopped,pattern_2.text,enter_17.keys,enter_17.rt,enter_17.duration,thankyou.started,thankyou.stopped,enter_14.keys,enter_14.rt,enter_14.duration
9.99999E-05,10.0055,return,9.9938,,SPR24_008,21,female,2024-04-05_12h00.12.594,jersey_experiment_5_v0,2023.2.2,Win32,86.20689655,,,,,,,,,,,,,,,,,,,,,,,,,,,,,,,,,,,,,,,,,,,,,,,,,,,,,,,,,,,,,,,,,,,,,,,,,,,,,,
,,,,,SPR24_008,21,female,2024-04-05_12h00.12.594,jersey_experiment_5_v0,2023.2.2,Win32,86.20689655,10.0056,17.7,return,7.6723,,,,,,,,,,,,,,,,,,,,,,,,,,,,,,,,,,,,,,,,,,,,,,,,,,,,,,,,,,,,,,,,,,,,,,,,,,
,,,,,SPR24_008,21,female,2024-04-05_12h00.12.594,jersey_experiment_5_v0,2023.2.2,Win32,86.20689655,,,,,,17.7,22.3237,return,4.5864,,,,,,,,,,,,,,,,,,,,,,,,,,,,,,,,,,,,,,,,,,,,,,,,,,,,,,,,,,,,,,,,,,,,,
,,,,,SPR24_008,21,female,2024-04-05_12h00.12.594,jersey_experiment_5_v0,2023.2.2,Win32,86.20689655,,,,,,,,,,,22.3237,41.2539,return,18.9176,,,,,,,,,,,,,,,,,,,,,,,,,,,,,,,,,,,,,,,,,,,,,,,,,,,,,,,,,,,,,,,,
,,,,,SPR24_008,21,female,2024-04-05_12h00.12.594,jersey_experiment_5_v0,2023.2.2,Win32,86.20689655,,,,,,,,,,,,,,,,41.2602,42.3123,42.3124,57.2189,return,6.1562,,75.13020833,0,0,0,59,1,FBP-PT-19.png,0.45,1.2,60,0.25,,,,,,,,,,,,,,,,,,,,,,,,,,,,,,,,,,,,,,,,,,,,,
,,,,,SPR24_008,21,female,2024-04-05_12h00.12.594,jersey_experiment_5_v0,2023.2.2,Win32,86.20689655,,,,,,,,,,,,,,,,57.2192,58.5129,58.5129,63.5603,return,1.3512,,61.97916667,0,1,1,32,1,FBP-RB-17.png,0.4,1.2,33,0.5,,,,,,,,,,,,,,,,,,,,,,,,,,,,,,,,,,,,,,,,,,,,,
,,,,,SPR24_008,21,female,2024-04-05_12h00.12.594,jersey_experiment_5_v0,2023.2.2,Win32,86.20689655,,,,,,,,,,,,,,,,63.5604,64.8543,64.8544,67.8309,return,0.9659,,88.80208333,0,2,2,9,1,FBP-OG-81.png,0.45,1.2,10,0.5,,,,,,,,,,,,,,,,,,,,,,,,,,,,,,,,,,,,,,,,,,,,,
,,,,,SPR24_008,21,female,2024-04-05_12h00.12.594,jersey_experiment_5_v0,2023.2.2,Win32,86.20689655,,,,,,,,,,,,,,,,67.831,68.878,68.878,73.1841,return,1.9827,,24.73958333,0,3,3,55,1,FBP-PT-19.png,0.35,1.2,56,0.25,,,,,,,,,,,,,,,,,,,,,,,,,,,,,,,,,,,,,,,,,,,,,
,,,,,SPR24_008,21,female,2024-04-05_12h00.12.594,jersey_experiment_5_v0,2023.2.2,Win32,86.20689655,,,,,,,,,,,,,,,,73.1844,74.4781,74.4782,76.949,return,0.7878,,21.22395833,0,4,4,40,1,FBP-RB-19.png,0.35,1.2,41,0.5,,,,,,,,,,,,,,,,,,,,,,,,,,,,,,,,,,,,,,,,,,,,,
,,,,,SPR24_008,21,female,2024-04-05_12h00.12.594,jersey_experiment_5_v0,2023.2.2,Win32,86.20689655,,,,,,,,,,,,,,,,76.9492,77.9961,77.9962,80.7845,return,0.4531,,25.26041667,0,5,5,16,1,FBP-YG-17.png,0.37,1.2,17,0.25,,,,,,,,,,,,,,,,,,,,,,,,,,,,,,,,,,,,,,,,,,,,,
,,,,,SPR24_008,21,female,2024-04-05_12h00.12.594,jersey_experiment_5_v0,2023.2.2,Win32,86.20689655,,,,,,,,,,,,,,,,80.7847,82.0785,82.0785,84.055,return,0.3061,,81.25,0,6,6,12,1,FBP-OG-91.png,0.4,1.2,13,0.5,,,,,,,,,,,,,,,,,,,,,,,,,,,,,,,,,,,,,,,,,,,,,
,,,,,SPR24_008,21,female,2024-04-05_12h00.12.594,jersey_experiment_5_v0,2023.2.2,Win32,86.20689655,,,,,,,,,,,,,,,,84.0553,85.1022,85.1023,86.3375,return,0.2034,,84.50520833,0,7,7,57,1,FBP-PT-19.png,0.4,1.2,58,0.25,,,,,,,,,,,,,,,,,,,,,,,,,,,,,,,,,,,,,,,,,,,,,
,,,,,SPR24_008,21,female,2024-04-05_12h00.12.594,jersey_experiment_5_v0,2023.2.2,Win32,86.20689655,,,,,,,,,,,,,,,,86.3378,87.6317,87.6317,89.6789,return,0.3606,,96.74479167,0,8,8,8,1,FBP-OG-81.png,0.43,1.2,9,0.5,,,,,,,,,,,,,,,,,,,,,,,,,,,,,,,,,,,,,,,,,,,,,
,,,,,SPR24_008,21,female,2024-04-05_12h00.12.594,jersey_experiment_5_v0,2023.2.2,Win32,86.20689655,,,,,,,,,,,,,,,,89.6791,90.7259,90.7259,93.3496,return,0.3302,,40.234375,0,9,9,26,1,FBP-YG-19.png,0.37,1.2,27,0.25,,,,,,,,,,,,,,,,,,,,,,,,,,,,,,,,,,,,,,,,,,,,,
,,,,,SPR24_008,21,female,2024-04-05_12h00.12.594,jersey_experiment_5_v0,2023.2.2,Win32,86.20689655,,,,,,,,,,,,,,,,93.3499,94.6437,94.6437,98.385,return,1.3096,,100,0,10,10,43,1,FBP-RB-19.png,0.43,1.2,44,0.5,,,,,,,,,,,,,,,,,,,,,,,,,,,,,,,,,,,,,,,,,,,,,
,,,,,SPR24_008,21,female,2024-04-05_12h00.12.594,jersey_experiment_5_v0,2023.2.2,Win32,86.20689655,,,,,,,,,,,,,,,,98.3852,99.4321,99.4322,102.9617,return,1.9321,,100,0,11,11,28,1,FBP-YG-19.png,0.43,1.2,29,0.25,,,,,,,,,,,,,,,,,,,,,,,,,,,,,,,,,,,,,,,,,,,,,
,,,,,SPR24_008,21,female,2024-04-05_12h00.12.594,jersey_experiment_5_v0,2023.2.2,Win32,86.20689655,,,,,,,,,,,,,,,,102.9618,104.2558,104.2558,106.5735,return,0.4655,,99.73958333,0,12,12,38,1,FBP-RB-18.png,0.43,1.2,39,0.5,,,,,,,,,,,,,,,,,,,,,,,,,,,,,,,,,,,,,,,,,,,,,
,,,,,SPR24_008,21,female,2024-04-05_12h00.12.594,jersey_experiment_5_v0,2023.2.2,Win32,86.20689655,,,,,,,,,,,,,,,,106.5737,107.6207,107.6208,109.2209,return,0.2827,,93.48958333,0,13,13,23,1,FBP-YG-18.png,0.43,1.2,24,0.25,,,,,,,,,,,,,,,,,,,,,,,,,,,,,,,,,,,,,,,,,,,,,
,,,,,SPR24_008,21,female,2024-04-05_12h00.12.594,jersey_experiment_5_v0,2023.2.2,Win32,86.20689655,,,,,,,,,,,,,,,,109.2211,110.515,110.515,113.8797,return,1.4023,,33.984375,0,14,14,35,1,FBP-RB-18.png,0.35,1.2,36,0.5,,,,,,,,,,,,,,,,,,,,,,,,,,,,,,,,,,,,,,,,,,,,,
,,,,,SPR24_008,21,female,2024-04-05_12h00.12.594,jersey_experiment_5_v0,2023.2.2,Win32,86.20689655,,,,,,,,,,,,,,,,113.8798,115.174,115.174,117.4565,return,0.3809,,99.73958333,0,15,15,39,1,FBP-RB-18.png,0.45,1.2,40,0.5,,,,,,,,,,,,,,,,,,,,,,,,,,,,,,,,,,,,,,,,,,,,,
,,,,,SPR24_008,21,female,2024-04-05_12h00.12.594,jersey_experiment_5_v0,2023.2.2,Win32,86.20689655,,,,,,,,,,,,,,,,117.4566,118.5034,118.5034,121.3742,return,0.3612,,57.55208333,0,16,16,15,1,FBP-YG-17.png,0.35,1.2,16,0.25,,,,,,,,,,,,,,,,,,,,,,,,,,,,,,,,,,,,,,,,,,,,,
,,,,,SPR24_008,21,female,2024-04-05_12h00.12.594,jersey_experiment_5_v0,2023.2.2,Win32,86.20689655,,,,,,,,,,,,,,,,121.3744,122.6682,122.6683,123.9977,return,0.2427,,76.953125,0,17,17,37,1,FBP-RB-18.png,0.4,1.2,38,0.5,,,,,,,,,,,,,,,,,,,,,,,,,,,,,,,,,,,,,,,,,,,,,
,,,,,SPR24_008,21,female,2024-04-05_12h00.12.594,jersey_experiment_5_v0,2023.2.2,Win32,86.20689655,,,,,,,,,,,,,,,,123.9979,125.2922,125.2922,128.5627,return,1.3667,,24.86979167,0,18,18,5,1,FBP-OG-81.png,0.35,1.2,6,0.5,,,,,,,,,,,,,,,,,,,,,,,,,,,,,,,,,,,,,,,,,,,,,
,,,,,SPR24_008,21,female,2024-04-05_12h00.12.594,jersey_experiment_5_v0,2023.2.2,Win32,86.20689655,,,,,,,,,,,,,,,,128.5629,129.6097,129.6098,131.6803,return,0.4763,,83.984375,0,19,19,48,1,FBP-PT-17.png,0.43,1.2,49,0.25,,,,,,,,,,,,,,,,,,,,,,,,,,,,,,,,,,,,,,,,,,,,,
,,,,,SPR24_008,21,female,2024-04-05_12h00.12.594,jersey_experiment_5_v0,2023.2.2,Win32,86.20689655,,,,,,,,,,,,,,,,131.6804,132.9746,132.9747,134.4217,return,0.33,,94.27083333,0,20,20,3,1,FBP-OG-71.png,0.43,1.2,4,0.5,,,,,,,,,,,,,,,,,,,,,,,,,,,,,,,,,,,,,,,,,,,,,
,,,,,SPR24_008,21,female,2024-04-05_12h00.12.594,jersey_experiment_5_v0,2023.2.2,Win32,86.20689655,,,,,,,,,,,,,,,,134.4219,135.7159,135.716,137.775,return,0.6521,,99.21875,0,21,21,33,1,FBP-RB-17.png,0.43,1.2,34,0.5,,,,,,,,,,,,,,,,,,,,,,,,,,,,,,,,,,,,,,,,,,,,,
,,,,,SPR24_008,21,female,2024-04-05_12h00.12.594,jersey_experiment_5_v0,2023.2.2,Win32,86.20689655,,,,,,,,,,,,,,,,137.7751,138.8219,138.822,140.1984,return,0.1885,,98.69791667,0,22,22,19,1,FBP-YG-17.png,0.45,1.2,20,0.25,,,,,,,,,,,,,,,,,,,,,,,,,,,,,,,,,,,,,,,,,,,,,
,,,,,SPR24_008,21,female,2024-04-05_12h00.12.594,jersey_experiment_5_v0,2023.2.2,Win32,86.20689655,,,,,,,,,,,,,,,,140.1986,141.4924,141.4924,142.8455,return,0.219,,99.34895833,0,23,23,14,1,FBP-OG-91.png,0.45,1.2,15,0.5,,,,,,,,,,,,,,,,,,,,,,,,,,,,,,,,,,,,,,,,,,,,,
,,,,,SPR24_008,21,female,2024-04-05_12h00.12.594,jersey_experiment_5_v0,2023.2.2,Win32,86.20689655,,,,,,,,,,,,,,,,142.8457,144.1397,144.1398,146.0811,return,0.1936,,92.44791667,0,24,24,13,1,FBP-OG-91.png,0.43,1.2,14,0.5,,,,,,,,,,,,,,,,,,,,,,,,,,,,,,,,,,,,,,,,,,,,,
,,,,,SPR24_008,21,female,2024-04-05_12h00.12.594,jersey_experiment_5_v0,2023.2.2,Win32,86.20689655,,,,,,,,,,,,,,,,146.0813,147.128,147.1281,149.4928,return,1.1309,,99.609375,0,25,25,54,1,FBP-PT-18.png,0.45,1.2,55,0.25,,,,,,,,,,,,,,,,,,,,,,,,,,,,,,,,,,,,,,,,,,,,,
,,,,,SPR24_008,21,female,2024-04-05_12h00.12.594,jersey_experiment_5_v0,2023.2.2,Win32,86.20689655,,,,,,,,,,,,,,,,149.493,150.7869,150.7869,153.7048,return,0.1417,,25,0,26,26,6,1,FBP-OG-81.png,0.37,1.2,7,0.5,,,,,,,,,,,,,,,,,,,,,,,,,,,,,,,,,,,,,,,,,,,,,
,,,,,SPR24_008,21,female,2024-04-05_12h00.12.594,jersey_experiment_5_v0,2023.2.2,Win32,86.20689655,,,,,,,,,,,,,,,,153.705,154.752,154.7521,156.211,return,0.18,,90.75520833,0,27,27,58,1,FBP-PT-19.png,0.43,1.2,59,0.25,,,,,,,,,,,,,,,,,,,,,,,,,,,,,,,,,,,,,,,,,,,,,
,,,,,SPR24_008,21,female,2024-04-05_12h00.12.594,jersey_experiment_5_v0,2023.2.2,Win32,86.20689655,,,,,,,,,,,,,,,,156.2112,157.5049,157.505,159.3285,return,0.1233,,83.59375,0,28,28,2,1,FBP-OG-71.png,0.4,1.2,3,0.5,,,,,,,,,,,,,,,,,,,,,,,,,,,,,,,,,,,,,,,,,,,,,
,,,,,SPR24_008,21,female,2024-04-05_12h00.12.594,jersey_experiment_5_v0,2023.2.2,Win32,86.20689655,,,,,,,,,,,,,,,,159.3287,160.6227,160.6227,162.3404,return,0.1766,,48.95833333,0,29,29,36,1,FBP-RB-18.png,0.37,1.2,37,0.5,,,,,,,,,,,,,,,,,,,,,,,,,,,,,,,,,,,,,,,,,,,,,
,,,,,SPR24_008,21,female,2024-04-05_12h00.12.594,jersey_experiment_5_v0,2023.2.2,Win32,86.20689655,,,,,,,,,,,,,,,,162.3405,163.3875,163.3876,164.8934,return,0.1618,,61.328125,0,30,30,21,1,FBP-YG-18.png,0.37,1.2,22,0.25,,,,,,,,,,,,,,,,,,,,,,,,,,,,,,,,,,,,,,,,,,,,,
,,,,,SPR24_008,21,female,2024-04-05_12h00.12.594,jersey_experiment_5_v0,2023.2.2,Win32,86.20689655,,,,,,,,,,,,,,,,164.8936,165.9406,165.9406,167.3761,return,0.2524,,92.1875,0,31,31,53,1,FBP-PT-18.png,0.43,1.2,54,0.25,,,,,,,,,,,,,,,,,,,,,,,,,,,,,,,,,,,,,,,,,,,,,
,,,,,SPR24_008,21,female,2024-04-05_12h00.12.594,jersey_experiment_5_v0,2023.2.2,Win32,86.20689655,,,,,,,,,,,,,,,,167.3764,168.423,168.423,170.1172,return,0.3058,,57.8125,0,32,32,51,1,FBP-PT-18.png,0.37,1.2,52,0.25,,,,,,,,,,,,,,,,,,,,,,,,,,,,,,,,,,,,,,,,,,,,,
,,,,,SPR24_008,21,female,2024-04-05_12h00.12.594,jersey_experiment_5_v0,2023.2.2,Win32,86.20689655,,,,,,,,,,,,,,,,170.1174,171.1642,171.1642,172.6939,return,0.1985,,49.86979167,0,33,33,45,1,FBP-PT-17.png,0.35,1.2,46,0.25,,,,,,,,,,,,,,,,,,,,,,,,,,,,,,,,,,,,,,,,,,,,,
,,,,,SPR24_008,21,female,2024-04-05_12h00.12.594,jersey_experiment_5_v0,2023.2.2,Win32,86.20689655,,,,,,,,,,,,,,,,172.694,173.9879,173.9879,176.1999,return,1.1397,,100,0,34,34,4,1,FBP-OG-71.png,0.45,1.2,5,0.5,,,,,,,,,,,,,,,,,,,,,,,,,,,,,,,,,,,,,,,,,,,,,
,,,,,SPR24_008,21,female,2024-04-05_12h00.12.594,jersey_experiment_5_v0,2023.2.2,Win32,86.20689655,,,,,,,,,,,,,,,,176.2001,177.4939,177.494,179.4119,return,0.7539,,100,0,35,35,34,1,FBP-RB-17.png,0.45,1.2,35,0.5,,,,,,,,,,,,,,,,,,,,,,,,,,,,,,,,,,,,,,,,,,,,,
,,,,,SPR24_008,21,female,2024-04-05_12h00.12.594,jersey_experiment_5_v0,2023.2.2,Win32,86.20689655,,,,,,,,,,,,,,,,179.4121,180.7057,180.7058,183.106,return,0.8974,,24.08854167,0,36,36,10,1,FBP-OG-91.png,0.35,1.2,11,0.5,,,,,,,,,,,,,,,,,,,,,,,,,,,,,,,,,,,,,,,,,,,,,
,,,,,SPR24_008,21,female,2024-04-05_12h00.12.594,jersey_experiment_5_v0,2023.2.2,Win32,86.20689655,,,,,,,,,,,,,,,,183.1062,184.1529,184.1529,188.8945,return,0.161,,49.86979167,0,37,37,25,1,FBP-YG-19.png,0.35,1.2,26,0.25,,,,,,,,,,,,,,,,,,,,,,,,,,,,,,,,,,,,,,,,,,,,,
,,,,,SPR24_008,21,female,2024-04-05_12h00.12.594,jersey_experiment_5_v0,2023.2.2,Win32,86.20689655,,,,,,,,,,,,,,,,188.8947,190.1884,190.1884,191.4003,return,0.2219,,49.47916667,0,38,38,31,1,FBP-RB-17.png,0.37,1.2,32,0.5,,,,,,,,,,,,,,,,,,,,,,,,,,,,,,,,,,,,,,,,,,,,,
,,,,,SPR24_008,21,female,2024-04-05_12h00.12.594,jersey_experiment_5_v0,2023.2.2,Win32,86.20689655,,,,,,,,,,,,,,,,191.4005,192.6945,192.6945,194.7887,return,0.9764,,25.78125,0,39,39,0,1,FBP-OG-71.png,0.35,1.2,1,0.5,,,,,,,,,,,,,,,,,,,,,,,,,,,,,,,,,,,,,,,,,,,,,
,,,,,SPR24_008,21,female,2024-04-05_12h00.12.594,jersey_experiment_5_v0,2023.2.2,Win32,86.20689655,,,,,,,,,,,,,,,,194.7888,196.0827,196.0828,197.4239,return,0.1337,,82.94270833,0,40,40,42,1,FBP-RB-19.png,0.4,1.2,43,0.5,,,,,,,,,,,,,,,,,,,,,,,,,,,,,,,,,,,,,,,,,,,,,
,,,,,SPR24_008,21,female,2024-04-05_12h00.12.594,jersey_experiment_5_v0,2023.2.2,Win32,86.20689655,,,,,,,,,,,,,,,,197.4241,198.7182,198.7182,200.0362,return,0.2609,,98.828125,0,41,41,44,1,FBP-RB-19.png,0.45,1.2,45,0.5,,,,,,,,,,,,,,,,,,,,,,,,,,,,,,,,,,,,,,,,,,,,,
,,,,,SPR24_008,21,female,2024-04-05_12h00.12.594,jersey_experiment_5_v0,2023.2.2,Win32,86.20689655,,,,,,,,,,,,,,,,200.0364,201.0832,201.0832,202.3654,return,0.1363,,83.33333333,0,42,42,17,1,FBP-YG-17.png,0.4,1.2,18,0.25,,,,,,,,,,,,,,,,,,,,,,,,,,,,,,,,,,,,,,,,,,,,,
,,,,,SPR24_008,21,female,2024-04-05_12h00.12.594,jersey_experiment_5_v0,2023.2.2,Win32,86.20689655,,,,,,,,,,,,,,,,202.3655,203.4125,203.4126,204.5772,return,0.1463,,88.80208333,0,43,43,52,1,FBP-PT-18.png,0.4,1.2,53,0.25,,,,,,,,,,,,,,,,,,,,,,,,,,,,,,,,,,,,,,,,,,,,,
,,,,,SPR24_008,21,female,2024-04-05_12h00.12.594,jersey_experiment_5_v0,2023.2.2,Win32,86.20689655,,,,,,,,,,,,,,,,204.5774,205.6244,205.6244,206.7655,return,0.2203,,99.21875,0,44,44,29,1,FBP-YG-19.png,0.45,1.2,30,0.25,,,,,,,,,,,,,,,,,,,,,,,,,,,,,,,,,,,,,,,,,,,,,
,,,,,SPR24_008,21,female,2024-04-05_12h00.12.594,jersey_experiment_5_v0,2023.2.2,Win32,86.20689655,,,,,,,,,,,,,,,,206.7657,207.8128,207.8128,209.0951,return,0.1648,,76.5625,0,45,45,27,1,FBP-YG-19.png,0.4,1.2,28,0.25,,,,,,,,,,,,,,,,,,,,,,,,,,,,,,,,,,,,,,,,,,,,,
,,,,,SPR24_008,21,female,2024-04-05_12h00.12.594,jersey_experiment_5_v0,2023.2.2,Win32,86.20689655,,,,,,,,,,,,,,,,209.0953,210.1423,210.1423,211.2249,return,0.1425,,83.72395833,0,46,46,47,1,FBP-PT-17.png,0.4,1.2,48,0.25,,,,,,,,,,,,,,,,,,,,,,,,,,,,,,,,,,,,,,,,,,,,,
,,,,,SPR24_008,21,female,2024-04-05_12h00.12.594,jersey_experiment_5_v0,2023.2.2,Win32,86.20689655,,,,,,,,,,,,,,,,211.2251,212.2716,212.2717,213.2835,return,0.1769,,93.48958333,0,47,47,18,1,FBP-YG-17.png,0.43,1.2,19,0.25,,,,,,,,,,,,,,,,,,,,,,,,,,,,,,,,,,,,,,,,,,,,,
,,,,,SPR24_008,21,female,2024-04-05_12h00.12.594,jersey_experiment_5_v0,2023.2.2,Win32,86.20689655,,,,,,,,,,,,,,,,213.2837,214.3306,214.3306,215.6365,return,0.1189,,58.07291667,0,48,48,56,1,FBP-PT-19.png,0.37,1.2,57,0.25,,,,,,,,,,,,,,,,,,,,,,,,,,,,,,,,,,,,,,,,,,,,,
,,,,,SPR24_008,21,female,2024-04-05_12h00.12.594,jersey_experiment_5_v0,2023.2.2,Win32,86.20689655,,,,,,,,,,,,,,,,215.6366,216.6837,216.6837,218.2955,return,0.1414,,62.23958333,0,49,49,46,1,FBP-PT-17.png,0.37,1.2,47,0.25,,,,,,,,,,,,,,,,,,,,,,,,,,,,,,,,,,,,,,,,,,,,,
,,,,,SPR24_008,21,female,2024-04-05_12h00.12.594,jersey_experiment_5_v0,2023.2.2,Win32,86.20689655,,,,,,,,,,,,,,,,218.2957,219.5896,219.5896,221.025,return,0.1232,,49.34895833,0,50,50,11,1,FBP-OG-91.png,0.37,1.2,12,0.5,,,,,,,,,,,,,,,,,,,,,,,,,,,,,,,,,,,,,,,,,,,,,
,,,,,SPR24_008,21,female,2024-04-05_12h00.12.594,jersey_experiment_5_v0,2023.2.2,Win32,86.20689655,,,,,,,,,,,,,,,,221.0252,222.072,222.072,223.2838,return,0.13,,75.390625,0,51,51,22,1,FBP-YG-18.png,0.4,1.2,23,0.25,,,,,,,,,,,,,,,,,,,,,,,,,,,,,,,,,,,,,,,,,,,,,
,,,,,SPR24_008,21,female,2024-04-05_12h00.12.594,jersey_experiment_5_v0,2023.2.2,Win32,86.20689655,,,,,,,,,,,,,,,,223.284,224.3311,224.3311,225.6369,return,0.1517,,99.86979167,0,52,52,49,1,FBP-PT-17.png,0.45,1.2,50,0.25,,,,,,,,,,,,,,,,,,,,,,,,,,,,,,,,,,,,,,,,,,,,,
,,,,,SPR24_008,21,female,2024-04-05_12h00.12.594,jersey_experiment_5_v0,2023.2.2,Win32,86.20689655,,,,,,,,,,,,,,,,225.637,226.931,226.9311,228.3898,return,0.1513,,64.32291667,0,53,53,7,1,FBP-OG-81.png,0.4,1.2,8,0.5,,,,,,,,,,,,,,,,,,,,,,,,,,,,,,,,,,,,,,,,,,,,,
,,,,,SPR24_008,21,female,2024-04-05_12h00.12.594,jersey_experiment_5_v0,2023.2.2,Win32,86.20689655,,,,,,,,,,,,,,,,228.39,229.6841,229.6842,230.896,return,0.1594,,48.828125,0,54,54,41,1,FBP-RB-19.png,0.37,1.2,42,0.5,,,,,,,,,,,,,,,,,,,,,,,,,,,,,,,,,,,,,,,,,,,,,
,,,,,SPR24_008,21,female,2024-04-05_12h00.12.594,jersey_experiment_5_v0,2023.2.2,Win32,86.20689655,,,,,,,,,,,,,,,,230.8962,232.1902,232.1902,233.496,return,0.0939,,35.02604167,0,55,55,1,1,FBP-OG-71.png,0.37,1.2,2,0.5,,,,,,,,,,,,,,,,,,,,,,,,,,,,,,,,,,,,,,,,,,,,,
,,,,,SPR24_008,21,female,2024-04-05_12h00.12.594,jersey_experiment_5_v0,2023.2.2,Win32,86.20689655,,,,,,,,,,,,,,,,233.4963,234.5432,234.5432,236.1314,return,0.0828,,25.65104167,0,56,56,50,1,FBP-PT-18.png,0.35,1.2,51,0.25,,,,,,,,,,,,,,,,,,,,,,,,,,,,,,,,,,,,,,,,,,,,,
,,,,,SPR24_008,21,female,2024-04-05_12h00.12.594,jersey_experiment_5_v0,2023.2.2,Win32,86.20689655,,,,,,,,,,,,,,,,236.1317,237.4255,237.4256,238.402,return,0.1433,,22.265625,0,57,57,30,1,FBP-RB-17.png,0.35,1.2,31,0.5,,,,,,,,,,,,,,,,,,,,,,,,,,,,,,,,,,,,,,,,,,,,,
,,,,,SPR24_008,21,female,2024-04-05_12h00.12.594,jersey_experiment_5_v0,2023.2.2,Win32,86.20689655,,,,,,,,,,,,,,,,238.4023,239.4492,239.4492,240.3196,return,0.111,,17.70833333,0,58,58,20,1,FBP-YG-18.png,0.35,1.2,21,0.25,,,,,,,,,,,,,,,,,,,,,,,,,,,,,,,,,,,,,,,,,,,,,
,,,,,SPR24_008,21,female,2024-04-05_12h00.12.594,jersey_experiment_5_v0,2023.2.2,Win32,86.20689655,,,,,,,,,,,,,,,,240.3198,241.367,241.367,242.9788,return,0.1542,,99.08854167,0,59,59,24,1,FBP-YG-18.png,0.45,1.2,25,0.25,,,,,,,,,,,,,,,,,,,,,,,,,,,,,,,,,,,,,,,,,,,,,
,,,,,SPR24_008,21,female,2024-04-05_12h00.12.594,jersey_experiment_5_v0,2023.2.2,Win32,86.20689655,,,,,,,,,,,,,,,,242.9807,244.2729,244.2729,245.8728,return,0.1937,,20.18229167,,,,,,FBP-RB-81.png,0.35,1.2,36,0.5,0,0,0,35,1,,,,,,,,,,,,,,,,,,,,,,,,,,,,,,,,,,,,,,,,
,,,,,SPR24_008,21,female,2024-04-05_12h00.12.594,jersey_experiment_5_v0,2023.2.2,Win32,86.20689655,,,,,,,,,,,,,,,,245.873,247.1671,247.1671,248.6731,return,0.0858,,36.84895833,,,,,,FBP-OG-18.png,0.37,1.2,7,0.5,0,1,1,6,1,,,,,,,,,,,,,,,,,,,,,,,,,,,,,,,,,,,,,,,,
,,,,,SPR24_008,21,female,2024-04-05_12h00.12.594,jersey_experiment_5_v0,2023.2.2,Win32,86.20689655,,,,,,,,,,,,,,,,248.6733,249.9672,249.9673,252.085,return,0.1061,,63.93229167,,,,,,FBP-RB-91.png,0.4,1.2,43,0.5,0,2,2,42,1,,,,,,,,,,,,,,,,,,,,,,,,,,,,,,,,,,,,,,,,
,,,,,SPR24_008,21,female,2024-04-05_12h00.12.594,jersey_experiment_5_v0,2023.2.2,Win32,86.20689655,,,,,,,,,,,,,,,,252.0852,253.1321,253.1321,254.45,return,0.2281,,82.55208333,,,,,,FBP-YG-81.png,0.4,1.2,23,0.25,0,3,3,22,1,,,,,,,,,,,,,,,,,,,,,,,,,,,,,,,,,,,,,,,,
,,,,,SPR24_008,21,female,2024-04-05_12h00.12.594,jersey_experiment_5_v0,2023.2.2,Win32,86.20689655,,,,,,,,,,,,,,,,254.4503,255.4968,255.4969,256.7673,return,0.1715,,86.19791667,,,,,,FBP-YG-71.png,0.4,1.2,18,0.25,0,4,4,17,1,,,,,,,,,,,,,,,,,,,,,,,,,,,,,,,,,,,,,,,,
,,,,,SPR24_008,21,female,2024-04-05_12h00.12.594,jersey_experiment_5_v0,2023.2.2,Win32,86.20689655,,,,,,,,,,,,,,,,256.7676,257.8145,257.8145,258.8852,return,0.1285,,99.73958333,,,,,,FBP-YG-71.png,0.45,1.2,20,0.25,0,5,5,19,1,,,,,,,,,,,,,,,,,,,,,,,,,,,,,,,,,,,,,,,,
,,,,,SPR24_008,21,female,2024-04-05_12h00.12.594,jersey_experiment_5_v0,2023.2.2,Win32,86.20689655,,,,,,,,,,,,,,,,258.8854,260.1793,260.1793,263.4384,return,1.4894,,100,,,,,,FBP-OG-18.png,0.45,1.2,10,0.5,0,6,6,9,1,,,,,,,,,,,,,,,,,,,,,,,,,,,,,,,,,,,,,,,,
,,,,,SPR24_008,21,female,2024-04-05_12h00.12.594,jersey_experiment_5_v0,2023.2.2,Win32,86.20689655,,,,,,,,,,,,,,,,263.4387,264.7326,264.7327,267.1207,return,0.5329,,99.47916667,,,,,,FBP-RB-91.png,0.45,1.2,45,0.5,0,7,7,44,1,,,,,,,,,,,,,,,,,,,,,,,,,,,,,,,,,,,,,,,,
,,,,,SPR24_008,21,female,2024-04-05_12h00.12.594,jersey_experiment_5_v0,2023.2.2,Win32,86.20689655,,,,,,,,,,,,,,,,267.1209,268.1681,268.1682,269.5092,return,0.1553,,50.91145833,,,,,,FBP-PT-91.png,0.37,1.2,57,0.25,0,8,8,56,1,,,,,,,,,,,,,,,,,,,,,,,,,,,,,,,,,,,,,,,,
,,,,,SPR24_008,21,female,2024-04-05_12h00.12.594,jersey_experiment_5_v0,2023.2.2,Win32,86.20689655,,,,,,,,,,,,,,,,269.5095,270.5562,270.5562,272.1211,return,0.2345,,90.88541667,,,,,,FBP-PT-81.png,0.43,1.2,54,0.25,0,9,9,53,1,,,,,,,,,,,,,,,,,,,,,,,,,,,,,,,,,,,,,,,,
,,,,,SPR24_008,21,female,2024-04-05_12h00.12.594,jersey_experiment_5_v0,2023.2.2,Win32,86.20689655,,,,,,,,,,,,,,,,272.1213,273.1682,273.1682,274.4857,return,0.1413,,83.46354167,,,,,,FBP-PT-71.png,0.4,1.2,48,0.25,0,10,10,47,1,,,,,,,,,,,,,,,,,,,,,,,,,,,,,,,,,,,,,,,,
,,,,,SPR24_008,21,female,2024-04-05_12h00.12.594,jersey_experiment_5_v0,2023.2.2,Win32,86.20689655,,,,,,,,,,,,,,,,274.486,275.7802,275.7802,277.3683,return,0.1892,,21.484375,,,,,,FBP-OG-19.png,0.35,1.2,11,0.5,0,11,11,10,1,,,,,,,,,,,,,,,,,,,,,,,,,,,,,,,,,,,,,,,,
,,,,,SPR24_008,21,female,2024-04-05_12h00.12.594,jersey_experiment_5_v0,2023.2.2,Win32,86.20689655,,,,,,,,,,,,,,,,277.3685,278.4153,278.4153,279.9096,return,0.1648,,83.59375,,,,,,FBP-PT-91.png,0.43,1.2,59,0.25,0,12,12,58,1,,,,,,,,,,,,,,,,,,,,,,,,,,,,,,,,,,,,,,,,
,,,,,SPR24_008,21,female,2024-04-05_12h00.12.594,jersey_experiment_5_v0,2023.2.2,Win32,86.20689655,,,,,,,,,,,,,,,,279.9098,280.9566,280.9566,282.0155,return,0.1245,,94.921875,,,,,,FBP-PT-71.png,0.43,1.2,49,0.25,0,13,13,48,1,,,,,,,,,,,,,,,,,,,,,,,,,,,,,,,,,,,,,,,,
,,,,,SPR24_008,21,female,2024-04-05_12h00.12.594,jersey_experiment_5_v0,2023.2.2,Win32,86.20689655,,,,,,,,,,,,,,,,282.0158,283.0626,283.0627,284.6864,return,0.0904,,36.71875,,,,,,FBP-YG-81.png,0.37,1.2,22,0.25,0,14,14,21,1,,,,,,,,,,,,,,,,,,,,,,,,,,,,,,,,,,,,,,,,
,,,,,SPR24_008,21,female,2024-04-05_12h00.12.594,jersey_experiment_5_v0,2023.2.2,Win32,86.20689655,,,,,,,,,,,,,,,,284.6866,285.9802,285.9803,287.2862,return,0.1038,,92.44791667,,,,,,FBP-RB-71.png,0.45,1.2,35,0.5,0,15,15,34,1,,,,,,,,,,,,,,,,,,,,,,,,,,,,,,,,,,,,,,,,
,,,,,SPR24_008,21,female,2024-04-05_12h00.12.594,jersey_experiment_5_v0,2023.2.2,Win32,86.20689655,,,,,,,,,,,,,,,,287.2865,288.3334,288.3334,289.4278,return,0.0968,,98.4375,,,,,,FBP-PT-81.png,0.45,1.2,55,0.25,0,16,16,54,1,,,,,,,,,,,,,,,,,,,,,,,,,,,,,,,,,,,,,,,,
,,,,,SPR24_008,21,female,2024-04-05_12h00.12.594,jersey_experiment_5_v0,2023.2.2,Win32,86.20689655,,,,,,,,,,,,,,,,289.4279,290.4747,290.4747,291.5924,return,0.0948,,91.40625,,,,,,FBP-YG-71.png,0.43,1.2,19,0.25,0,17,17,18,1,,,,,,,,,,,,,,,,,,,,,,,,,,,,,,,,,,,,,,,,
,,,,,SPR24_008,21,female,2024-04-05_12h00.12.594,jersey_experiment_5_v0,2023.2.2,Win32,86.20689655,,,,,,,,,,,,,,,,291.5926,292.8865,292.8865,294.2631,return,0.1656,,73.17708333,,,,,,FBP-RB-81.png,0.4,1.2,38,0.5,0,18,18,37,1,,,,,,,,,,,,,,,,,,,,,,,,,,,,,,,,,,,,,,,,
,,,,,SPR24_008,21,female,2024-04-05_12h00.12.594,jersey_experiment_5_v0,2023.2.2,Win32,86.20689655,,,,,,,,,,,,,,,,294.2634,295.3101,295.3102,296.6748,return,0.1307,,21.484375,,,,,,FBP-PT-71.png,0.35,1.2,46,0.25,0,19,19,45,1,,,,,,,,,,,,,,,,,,,,,,,,,,,,,,,,,,,,,,,,
,,,,,SPR24_008,21,female,2024-04-05_12h00.12.594,jersey_experiment_5_v0,2023.2.2,Win32,86.20689655,,,,,,,,,,,,,,,,296.675,297.722,297.722,299.169,return,0.1335,,14.19270833,,,,,,FBP-YG-81.png,0.35,1.2,21,0.25,0,20,20,20,1,,,,,,,,,,,,,,,,,,,,,,,,,,,,,,,,,,,,,,,,
,,,,,SPR24_008,21,female,2024-04-05_12h00.12.594,jersey_experiment_5_v0,2023.2.2,Win32,86.20689655,,,,,,,,,,,,,,,,299.1692,300.2163,300.2164,301.8633,return,0.1412,,59.50520833,,,,,,FBP-PT-81.png,0.4,1.2,53,0.25,0,21,21,52,1,,,,,,,,,,,,,,,,,,,,,,,,,,,,,,,,,,,,,,,,
,,,,,SPR24_008,21,female,2024-04-05_12h00.12.594,jersey_experiment_5_v0,2023.2.2,Win32,86.20689655,,,,,,,,,,,,,,,,301.8635,303.1575,303.1575,304.4048,return,0.1548,,98.828125,,,,,,FBP-OG-17.png,0.45,1.2,5,0.5,0,22,22,4,1,,,,,,,,,,,,,,,,,,,,,,,,,,,,,,,,,,,,,,,,
,,,,,SPR24_008,21,female,2024-04-05_12h00.12.594,jersey_experiment_5_v0,2023.2.2,Win32,86.20689655,,,,,,,,,,,,,,,,304.4051,305.6988,305.6989,307.1105,return,0.1416,,36.97916667,,,,,,FBP-RB-71.png,0.37,1.2,32,0.5,0,23,23,31,1,,,,,,,,,,,,,,,,,,,,,,,,,,,,,,,,,,,,,,,,
,,,,,SPR24_008,21,female,2024-04-05_12h00.12.594,jersey_experiment_5_v0,2023.2.2,Win32,86.20689655,,,,,,,,,,,,,,,,307.1107,308.4048,308.4048,309.7576,return,0.1972,,19.79166667,,,,,,FBP-RB-91.png,0.35,1.2,41,0.5,0,24,24,40,1,,,,,,,,,,,,,,,,,,,,,,,,,,,,,,,,,,,,,,,,
,,,,,SPR24_008,21,female,2024-04-05_12h00.12.594,jersey_experiment_5_v0,2023.2.2,Win32,86.20689655,,,,,,,,,,,,,,,,309.7577,311.0519,311.0519,312.5108,return,0.1586,,77.34375,,,,,,FBP-RB-71.png,0.4,1.2,33,0.5,0,25,25,32,1,,,,,,,,,,,,,,,,,,,,,,,,,,,,,,,,,,,,,,,,
,,,,,SPR24_008,21,female,2024-04-05_12h00.12.594,jersey_experiment_5_v0,2023.2.2,Win32,86.20689655,,,,,,,,,,,,,,,,312.5109,313.8049,313.8049,316.0521,return,0.1414,,66.14583333,,,,,,FBP-OG-18.png,0.4,1.2,8,0.5,0,26,26,7,1,,,,,,,,,,,,,,,,,,,,,,,,,,,,,,,,,,,,,,,,
,,,,,SPR24_008,21,female,2024-04-05_12h00.12.594,jersey_experiment_5_v0,2023.2.2,Win32,86.20689655,,,,,,,,,,,,,,,,316.0524,317.3462,317.3462,319.5698,return,0.1787,,57.16145833,,,,,,FBP-OG-17.png,0.4,1.2,3,0.5,0,27,27,2,1,,,,,,,,,,,,,,,,,,,,,,,,,,,,,,,,,,,,,,,,
,,,,,SPR24_008,21,female,2024-04-05_12h00.12.594,jersey_experiment_5_v0,2023.2.2,Win32,86.20689655,,,,,,,,,,,,,,,,319.57,320.864,320.864,321.6523,return,0.1315,,73.69791667,,,,,,FBP-OG-18.png,0.43,1.2,9,0.5,0,28,28,8,1,,,,,,,,,,,,,,,,,,,,,,,,,,,,,,,,,,,,,,,,
,,,,,SPR24_008,21,female,2024-04-05_12h00.12.594,jersey_experiment_5_v0,2023.2.2,Win32,86.20689655,,,,,,,,,,,,,,,,321.6525,322.9464,322.9465,323.6052,return,0.1318,,83.203125,,,,,,FBP-RB-91.png,0.43,1.2,44,0.5,0,29,29,43,1,,,,,,,,,,,,,,,,,,,,,,,,,,,,,,,,,,,,,,,,
,,,,,SPR24_008,21,female,2024-04-05_12h00.12.594,jersey_experiment_5_v0,2023.2.2,Win32,86.20689655,,,,,,,,,,,,,,,,323.6055,324.8997,324.8998,326.6054,return,0.0896,,10.67708333,,,,,,FBP-OG-18.png,0.35,1.2,6,0.5,0,30,30,5,1,,,,,,,,,,,,,,,,,,,,,,,,,,,,,,,,,,,,,,,,
,,,,,SPR24_008,21,female,2024-04-05_12h00.12.594,jersey_experiment_5_v0,2023.2.2,Win32,86.20689655,,,,,,,,,,,,,,,,326.6056,327.6525,327.6525,328.9937,return,0.0496,,25,,,,,,FBP-PT-71.png,0.37,1.2,47,0.25,0,31,31,46,1,,,,,,,,,,,,,,,,,,,,,,,,,,,,,,,,,,,,,,,,
,,,,,SPR24_008,21,female,2024-04-05_12h00.12.594,jersey_experiment_5_v0,2023.2.2,Win32,86.20689655,,,,,,,,,,,,,,,,328.9938,330.0408,330.0409,331.3939,return,0.1206,,30.078125,,,,,,FBP-YG-91.png,0.37,1.2,27,0.25,0,32,32,26,1,,,,,,,,,,,,,,,,,,,,,,,,,,,,,,,,,,,,,,,,
,,,,,SPR24_008,21,female,2024-04-05_12h00.12.594,jersey_experiment_5_v0,2023.2.2,Win32,86.20689655,,,,,,,,,,,,,,,,331.3942,332.6881,332.6881,334.6881,return,0.1221,,66.14583333,,,,,,FBP-RB-71.png,0.43,1.2,34,0.5,0,33,33,33,1,,,,,,,,,,,,,,,,,,,,,,,,,,,,,,,,,,,,,,,,
,,,,,SPR24_008,21,female,2024-04-05_12h00.12.594,jersey_experiment_5_v0,2023.2.2,Win32,86.20689655,,,,,,,,,,,,,,,,334.6883,335.9825,335.9826,337.7,return,0.6023,,82.94270833,,,,,,FBP-RB-81.png,0.43,1.2,39,0.5,0,34,34,38,1,,,,,,,,,,,,,,,,,,,,,,,,,,,,,,,,,,,,,,,,
,,,,,SPR24_008,21,female,2024-04-05_12h00.12.594,jersey_experiment_5_v0,2023.2.2,Win32,86.20689655,,,,,,,,,,,,,,,,337.7002,338.9942,338.9942,340.8177,return,0.1225,,7.161458333,,,,,,FBP-RB-71.png,0.35,1.2,31,0.5,0,35,35,30,1,,,,,,,,,,,,,,,,,,,,,,,,,,,,,,,,,,,,,,,,
,,,,,SPR24_008,21,female,2024-04-05_12h00.12.594,jersey_experiment_5_v0,2023.2.2,Win32,86.20689655,,,,,,,,,,,,,,,,340.818,342.112,342.112,343.7943,return,0.0727,,56.38020833,,,,,,FBP-RB-81.png,0.37,1.2,37,0.5,0,36,36,36,1,,,,,,,,,,,,,,,,,,,,,,,,,,,,,,,,,,,,,,,,
,,,,,SPR24_008,21,female,2024-04-05_12h00.12.594,jersey_experiment_5_v0,2023.2.2,Win32,86.20689655,,,,,,,,,,,,,,,,343.7945,344.8414,344.8414,346.8179,return,0.1086,,54.81770833,,,,,,FBP-PT-81.png,0.37,1.2,52,0.25,0,37,37,51,1,,,,,,,,,,,,,,,,,,,,,,,,,,,,,,,,,,,,,,,,
,,,,,SPR24_008,21,female,2024-04-05_12h00.12.594,jersey_experiment_5_v0,2023.2.2,Win32,86.20689655,,,,,,,,,,,,,,,,346.8181,348.1121,348.1121,349.6535,return,0.7434,,83.203125,,,,,,FBP-OG-19.png,0.43,1.2,14,0.5,0,38,38,13,1,,,,,,,,,,,,,,,,,,,,,,,,,,,,,,,,,,,,,,,,
,,,,,SPR24_008,21,female,2024-04-05_12h00.12.594,jersey_experiment_5_v0,2023.2.2,Win32,86.20689655,,,,,,,,,,,,,,,,349.6538,350.7005,350.7005,351.9712,return,0.0738,,32.55208333,,,,,,FBP-PT-81.png,0.35,1.2,51,0.25,0,39,39,50,1,,,,,,,,,,,,,,,,,,,,,,,,,,,,,,,,,,,,,,,,
,,,,,SPR24_008,21,female,2024-04-05_12h00.12.594,jersey_experiment_5_v0,2023.2.2,Win32,86.20689655,,,,,,,,,,,,,,,,351.9715,353.2655,353.2655,354.3358,return,0.0654,,19.79166667,,,,,,FBP-OG-17.png,0.35,1.2,1,0.5,0,40,40,0,1,,,,,,,,,,,,,,,,,,,,,,,,,,,,,,,,,,,,,,,,
,,,,,SPR24_008,21,female,2024-04-05_12h00.12.594,jersey_experiment_5_v0,2023.2.2,Win32,86.20689655,,,,,,,,,,,,,,,,354.3361,355.383,355.383,356.4654,return,0.0521,,9.895833333,,,,,,FBP-YG-91.png,0.35,1.2,26,0.25,0,41,41,25,1,,,,,,,,,,,,,,,,,,,,,,,,,,,,,,,,,,,,,,,,
,,,,,SPR24_008,21,female,2024-04-05_12h00.12.594,jersey_experiment_5_v0,2023.2.2,Win32,86.20689655,,,,,,,,,,,,,,,,356.4657,357.5127,357.5127,359.0537,return,0.079,,90.625,,,,,,FBP-PT-71.png,0.45,1.2,50,0.25,0,42,42,49,1,,,,,,,,,,,,,,,,,,,,,,,,,,,,,,,,,,,,,,,,
,,,,,SPR24_008,21,female,2024-04-05_12h00.12.594,jersey_experiment_5_v0,2023.2.2,Win32,86.20689655,,,,,,,,,,,,,,,,359.0539,360.3479,360.3479,361.0891,return,0.1211,,98.17708333,,,,,,FBP-OG-19.png,0.45,1.2,15,0.5,0,43,43,14,1,,,,,,,,,,,,,,,,,,,,,,,,,,,,,,,,,,,,,,,,
,,,,,SPR24_008,21,female,2024-04-05_12h00.12.594,jersey_experiment_5_v0,2023.2.2,Win32,86.20689655,,,,,,,,,,,,,,,,361.0893,362.1361,362.1362,362.8069,return,0.1407,,97.91666667,,,,,,FBP-YG-91.png,0.45,1.2,30,0.25,0,44,44,29,1,,,,,,,,,,,,,,,,,,,,,,,,,,,,,,,,,,,,,,,,
,,,,,SPR24_008,21,female,2024-04-05_12h00.12.594,jersey_experiment_5_v0,2023.2.2,Win32,86.20689655,,,,,,,,,,,,,,,,362.807,364.101,364.101,366.1364,return,0.6675,,33.984375,,,,,,FBP-RB-91.png,0.37,1.2,42,0.5,0,45,45,41,1,,,,,,,,,,,,,,,,,,,,,,,,,,,,,,,,,,,,,,,,
,,,,,SPR24_008,21,female,2024-04-05_12h00.12.594,jersey_experiment_5_v0,2023.2.2,Win32,86.20689655,,,,,,,,,,,,,,,,366.1366,367.1834,367.1834,368.6893,return,0.0738,,75.26041667,,,,,,FBP-YG-91.png,0.43,1.2,29,0.25,0,46,46,28,1,,,,,,,,,,,,,,,,,,,,,,,,,,,,,,,,,,,,,,,,
,,,,,SPR24_008,21,female,2024-04-05_12h00.12.594,jersey_experiment_5_v0,2023.2.2,Win32,86.20689655,,,,,,,,,,,,,,,,368.6895,369.9835,369.9836,370.8659,return,0.0752,,51.30208333,,,,,,FBP-OG-17.png,0.37,1.2,2,0.5,0,47,47,1,1,,,,,,,,,,,,,,,,,,,,,,,,,,,,,,,,,,,,,,,,
,,,,,SPR24_008,21,female,2024-04-05_12h00.12.594,jersey_experiment_5_v0,2023.2.2,Win32,86.20689655,,,,,,,,,,,,,,,,370.866,372.1602,372.1603,373.1131,return,0.0599,,86.328125,,,,,,FBP-RB-81.png,0.45,1.2,40,0.5,0,48,48,39,1,,,,,,,,,,,,,,,,,,,,,,,,,,,,,,,,,,,,,,,,
,,,,,SPR24_008,21,female,2024-04-05_12h00.12.594,jersey_experiment_5_v0,2023.2.2,Win32,86.20689655,,,,,,,,,,,,,,,,373.1132,374.1601,374.1601,376.2544,return,0.1117,,77.34375,,,,,,FBP-YG-91.png,0.4,1.2,28,0.25,0,49,49,27,1,,,,,,,,,,,,,,,,,,,,,,,,,,,,,,,,,,,,,,,,
,,,,,SPR24_008,21,female,2024-04-05_12h00.12.594,jersey_experiment_5_v0,2023.2.2,Win32,86.20689655,,,,,,,,,,,,,,,,376.2545,377.3015,377.3016,378.7013,return,0.1501,,26.5625,,,,,,FBP-YG-71.png,0.35,1.2,16,0.25,0,50,50,15,1,,,,,,,,,,,,,,,,,,,,,,,,,,,,,,,,,,,,,,,,
,,,,,SPR24_008,21,female,2024-04-05_12h00.12.594,jersey_experiment_5_v0,2023.2.2,Win32,86.20689655,,,,,,,,,,,,,,,,378.7016,379.7486,379.7487,380.9957,return,0.0936,,82.55208333,,,,,,FBP-YG-81.png,0.43,1.2,24,0.25,0,51,51,23,1,,,,,,,,,,,,,,,,,,,,,,,,,,,,,,,,,,,,,,,,
,,,,,SPR24_008,21,female,2024-04-05_12h00.12.594,jersey_experiment_5_v0,2023.2.2,Win32,86.20689655,,,,,,,,,,,,,,,,380.9958,382.0428,382.0428,383.5841,return,0.122,,16.40625,,,,,,FBP-PT-91.png,0.35,1.2,56,0.25,0,52,52,55,1,,,,,,,,,,,,,,,,,,,,,,,,,,,,,,,,,,,,,,,,
,,,,,SPR24_008,21,female,2024-04-05_12h00.12.594,jersey_experiment_5_v0,2023.2.2,Win32,86.20689655,,,,,,,,,,,,,,,,383.5844,384.8783,384.8783,385.7606,return,0.1234,,26.953125,,,,,,FBP-OG-19.png,0.37,1.2,12,0.5,0,53,53,11,1,,,,,,,,,,,,,,,,,,,,,,,,,,,,,,,,,,,,,,,,
,,,,,SPR24_008,21,female,2024-04-05_12h00.12.594,jersey_experiment_5_v0,2023.2.2,Win32,86.20689655,,,,,,,,,,,,,,,,385.7608,386.8077,386.8078,388.0313,return,0.1363,,86.328125,,,,,,FBP-PT-91.png,0.45,1.2,60,0.25,0,54,54,59,1,,,,,,,,,,,,,,,,,,,,,,,,,,,,,,,,,,,,,,,,
,,,,,SPR24_008,21,female,2024-04-05_12h00.12.594,jersey_experiment_5_v0,2023.2.2,Win32,86.20689655,,,,,,,,,,,,,,,,388.0315,389.0783,389.0783,390.1961,return,0.0378,,91.14583333,,,,,,FBP-YG-81.png,0.45,1.2,25,0.25,0,55,55,24,1,,,,,,,,,,,,,,,,,,,,,,,,,,,,,,,,,,,,,,,,
,,,,,SPR24_008,21,female,2024-04-05_12h00.12.594,jersey_experiment_5_v0,2023.2.2,Win32,86.20689655,,,,,,,,,,,,,,,,390.1963,391.2432,391.2432,392.2432,return,0.0623,,49.47916667,,,,,,FBP-PT-91.png,0.4,1.2,58,0.25,0,56,56,57,1,,,,,,,,,,,,,,,,,,,,,,,,,,,,,,,,,,,,,,,,
,,,,,SPR24_008,21,female,2024-04-05_12h00.12.594,jersey_experiment_5_v0,2023.2.2,Win32,86.20689655,,,,,,,,,,,,,,,,392.2433,393.5373,393.5375,395.9021,return,0.0409,,50.390625,,,,,,FBP-OG-19.png,0.4,1.2,13,0.5,0,57,57,12,1,,,,,,,,,,,,,,,,,,,,,,,,,,,,,,,,,,,,,,,,
,,,,,SPR24_008,21,female,2024-04-05_12h00.12.594,jersey_experiment_5_v0,2023.2.2,Win32,86.20689655,,,,,,,,,,,,,,,,395.9022,396.9493,396.9493,398.3376,return,0.097,,25.13020833,,,,,,FBP-YG-71.png,0.37,1.2,17,0.25,0,58,58,16,1,,,,,,,,,,,,,,,,,,,,,,,,,,,,,,,,,,,,,,,,
,,,,,SPR24_008,21,female,2024-04-05_12h00.12.594,jersey_experiment_5_v0,2023.2.2,Win32,86.20689655,,,,,,,,,,,,,,,,398.3378,399.6317,399.6318,401.1493,return,0.0796,,73.69791667,,,,,,FBP-OG-17.png,0.43,1.2,4,0.5,0,59,59,3,1,,,,,,,,,,,,,,,,,,,,,,,,,,,,,,,,,,,,,,,,
,,,,,SPR24_008,21,female,2024-04-05_12h00.12.594,jersey_experiment_5_v0,2023.2.2,Win32,86.20689655,,,,,,,,,,,,,,,,,,,,,,,,,,,,,,,,,,,,,,,401.1496,521.1426,,,,,,,,,,,,,,,,,,,,,,,,,,,,,,,,,,,,,,
,,,,,SPR24_008,21,female,2024-04-05_12h00.12.594,jersey_experiment_5_v0,2023.2.2,Win32,86.20689655,,,,,,,,,,,,,,,,,,,,,,,,,,,,,,,,,,,,,,,,,521.1426,523.2365,return,2.0843,,,,,,,,,,,,,,,,,,,,,,,,,,,,,,,,,,
,,,,,SPR24_008,21,female,2024-04-05_12h00.12.594,jersey_experiment_5_v0,2023.2.2,Win32,86.20689655,,,,,,,,,,,,,,,,523.2425,524.2954,524.2954,529.8131,return,1.0238,,61.19791667,,,,,,FBP-OG-91.png,0.43,1.2,14,0.25,,,,,,,,,,,,,0,0,0,13,1,,,,,,,,,,,,,,,,,,,,,,,,,,,,
,,,,,SPR24_008,21,female,2024-04-05_12h00.12.594,jersey_experiment_5_v0,2023.2.2,Win32,86.20689655,,,,,,,,,,,,,,,,529.8133,530.8603,530.8603,532.2487,return,0.2498,,81.640625,,,,,,FBP-OG-91.png,0.45,1.2,15,0.25,,,,,,,,,,,,,0,1,1,14,1,,,,,,,,,,,,,,,,,,,,,,,,,,,,
,,,,,SPR24_008,21,female,2024-04-05_12h00.12.594,jersey_experiment_5_v0,2023.2.2,Win32,86.20689655,,,,,,,,,,,,,,,,532.2489,533.5427,533.5427,535.1664,return,0.1715,,15.36458333,,,,,,FBP-PT-18.png,0.35,1.2,51,0.5,,,,,,,,,,,,,0,2,2,50,1,,,,,,,,,,,,,,,,,,,,,,,,,,,,
,,,,,SPR24_008,21,female,2024-04-05_12h00.12.594,jersey_experiment_5_v0,2023.2.2,Win32,86.20689655,,,,,,,,,,,,,,,,535.1666,536.2134,536.2134,537.8135,return,0.1272,,54.16666667,,,,,,FBP-RB-18.png,0.4,1.2,38,0.25,,,,,,,,,,,,,0,3,3,37,1,,,,,,,,,,,,,,,,,,,,,,,,,,,,
,,,,,SPR24_008,21,female,2024-04-05_12h00.12.594,jersey_experiment_5_v0,2023.2.2,Win32,86.20689655,,,,,,,,,,,,,,,,537.8137,538.8605,538.8606,540.6723,return,0.5685,,18.48958333,,,,,,FBP-OG-81.png,0.35,1.2,6,0.25,,,,,,,,,,,,,0,4,4,5,1,,,,,,,,,,,,,,,,,,,,,,,,,,,,
,,,,,SPR24_008,21,female,2024-04-05_12h00.12.594,jersey_experiment_5_v0,2023.2.2,Win32,86.20689655,,,,,,,,,,,,,,,,540.6725,541.9665,541.9665,543.5547,return,0.0037,,49.47916667,,,,,,FBP-YG-19.png,0.37,1.2,27,0.5,,,,,,,,,,,,,0,5,5,26,1,,,,,,,,,,,,,,,,,,,,,,,,,,,,
,,,,,SPR24_008,21,female,2024-04-05_12h00.12.594,jersey_experiment_5_v0,2023.2.2,Win32,86.20689655,,,,,,,,,,,,,,,,543.5549,544.849,544.849,545.6136,return,0.1957,,49.47916667,,,,,,FBP-YG-18.png,0.37,1.2,22,0.5,,,,,,,,,,,,,0,6,6,21,1,,,,,,,,,,,,,,,,,,,,,,,,,,,,
,,,,,SPR24_008,21,female,2024-04-05_12h00.12.594,jersey_experiment_5_v0,2023.2.2,Win32,86.20689655,,,,,,,,,,,,,,,,545.6138,546.908,546.908,547.7667,return,0.0338,,76.04166667,,,,,,FBP-YG-18.png,0.43,1.2,24,0.5,,,,,,,,,,,,,0,7,7,23,1,,,,,,,,,,,,,,,,,,,,,,,,,,,,
,,,,,SPR24_008,21,female,2024-04-05_12h00.12.594,jersey_experiment_5_v0,2023.2.2,Win32,86.20689655,,,,,,,,,,,,,,,,547.7669,549.061,549.0611,549.9197,return,0.1234,,52.08333333,,,,,,FBP-PT-19.png,0.37,1.2,57,0.5,,,,,,,,,,,,,0,8,8,56,1,,,,,,,,,,,,,,,,,,,,,,,,,,,,
,,,,,SPR24_008,21,female,2024-04-05_12h00.12.594,jersey_experiment_5_v0,2023.2.2,Win32,86.20689655,,,,,,,,,,,,,,,,549.9198,551.214,551.2141,552.2728,return,0.2389,,78.77604167,,,,,,FBP-PT-17.png,0.4,1.2,48,0.5,,,,,,,,,,,,,0,9,9,47,1,,,,,,,,,,,,,,,,,,,,,,,,,,,,
,,,,,SPR24_008,21,female,2024-04-05_12h00.12.594,jersey_experiment_5_v0,2023.2.2,Win32,86.20689655,,,,,,,,,,,,,,,,552.273,553.3197,553.3198,554.9317,return,0.1322,,41.14583333,,,,,,FBP-RB-18.png,0.35,1.2,36,0.25,,,,,,,,,,,,,0,10,10,35,1,,,,,,,,,,,,,,,,,,,,,,,,,,,,
,,,,,SPR24_008,21,female,2024-04-05_12h00.12.594,jersey_experiment_5_v0,2023.2.2,Win32,86.20689655,,,,,,,,,,,,,,,,554.932,555.9788,555.9788,557.1081,return,0.0493,,83.33333333,,,,,,FBP-RB-17.png,0.43,1.2,34,0.25,,,,,,,,,,,,,0,11,11,33,1,,,,,,,,,,,,,,,,,,,,,,,,,,,,
,,,,,SPR24_008,21,female,2024-04-05_12h00.12.594,jersey_experiment_5_v0,2023.2.2,Win32,86.20689655,,,,,,,,,,,,,,,,557.1082,558.4023,558.4024,559.9203,return,0.0985,,59.375,,,,,,FBP-PT-18.png,0.37,1.2,52,0.5,,,,,,,,,,,,,0,12,12,51,1,,,,,,,,,,,,,,,,,,,,,,,,,,,,
,,,,,SPR24_008,21,female,2024-04-05_12h00.12.594,jersey_experiment_5_v0,2023.2.2,Win32,86.20689655,,,,,,,,,,,,,,,,559.9205,560.9673,560.9673,562.0143,return,0.1373,,40.75520833,,,,,,FBP-RB-17.png,0.35,1.2,31,0.25,,,,,,,,,,,,,0,13,13,30,1,,,,,,,,,,,,,,,,,,,,,,,,,,,,
,,,,,SPR24_008,21,female,2024-04-05_12h00.12.594,jersey_experiment_5_v0,2023.2.2,Win32,86.20689655,,,,,,,,,,,,,,,,562.0145,563.0614,563.0614,564.085,return,0.1174,,63.80208333,,,,,,FBP-OG-91.png,0.4,1.2,13,0.25,,,,,,,,,,,,,0,14,14,12,1,,,,,,,,,,,,,,,,,,,,,,,,,,,,
,,,,,SPR24_008,21,female,2024-04-05_12h00.12.594,jersey_experiment_5_v0,2023.2.2,Win32,86.20689655,,,,,,,,,,,,,,,,564.0852,565.1321,565.1321,566.1793,return,0.1095,,86.45833333,,,,,,FBP-OG-81.png,0.43,1.2,9,0.25,,,,,,,,,,,,,0,15,15,8,1,,,,,,,,,,,,,,,,,,,,,,,,,,,,
,,,,,SPR24_008,21,female,2024-04-05_12h00.12.594,jersey_experiment_5_v0,2023.2.2,Win32,86.20689655,,,,,,,,,,,,,,,,566.1795,567.2262,567.2262,569.4618,return,0.8341,,100,,,,,,FBP-RB-19.png,0.45,1.2,45,0.25,,,,,,,,,,,,,0,16,16,44,1,,,,,,,,,,,,,,,,,,,,,,,,,,,,
,,,,,SPR24_008,21,female,2024-04-05_12h00.12.594,jersey_experiment_5_v0,2023.2.2,Win32,86.20689655,,,,,,,,,,,,,,,,569.462,570.5088,570.5088,571.7913,return,0.1012,,14.19270833,,,,,,FBP-OG-91.png,0.35,1.2,11,0.25,,,,,,,,,,,,,0,17,17,10,1,,,,,,,,,,,,,,,,,,,,,,,,,,,,
,,,,,SPR24_008,21,female,2024-04-05_12h00.12.594,jersey_experiment_5_v0,2023.2.2,Win32,86.20689655,,,,,,,,,,,,,,,,571.7914,573.0854,573.0855,574.6382,return,0.0894,,99.73958333,,,,,,FBP-PT-17.png,0.45,1.2,50,0.5,,,,,,,,,,,,,0,18,18,49,1,,,,,,,,,,,,,,,,,,,,,,,,,,,,
,,,,,SPR24_008,21,female,2024-04-05_12h00.12.594,jersey_experiment_5_v0,2023.2.2,Win32,86.20689655,,,,,,,,,,,,,,,,574.6384,575.9327,575.9327,577.3678,return,0.1044,,20.96354167,,,,,,FBP-YG-17.png,0.35,1.2,16,0.5,,,,,,,,,,,,,0,19,19,15,1,,,,,,,,,,,,,,,,,,,,,,,,,,,,
,,,,,SPR24_008,21,female,2024-04-05_12h00.12.594,jersey_experiment_5_v0,2023.2.2,Win32,86.20689655,,,,,,,,,,,,,,,,577.368,578.6621,578.6621,581.1091,return,1.5879,,50.26041667,,,,,,FBP-YG-18.png,0.4,1.2,23,0.5,,,,,,,,,,,,,0,20,20,22,1,,,,,,,,,,,,,,,,,,,,,,,,,,,,
,,,,,SPR24_008,21,female,2024-04-05_12h00.12.594,jersey_experiment_5_v0,2023.2.2,Win32,86.20689655,,,,,,,,,,,,,,,,581.1093,582.1562,582.1562,583.2623,return,0.0672,,92.70833333,,,,,,FBP-OG-81.png,0.45,1.2,10,0.25,,,,,,,,,,,,,0,21,21,9,1,,,,,,,,,,,,,,,,,,,,,,,,,,,,
,,,,,SPR24_008,21,female,2024-04-05_12h00.12.594,jersey_experiment_5_v0,2023.2.2,Win32,86.20689655,,,,,,,,,,,,,,,,583.2625,584.3093,584.3093,585.6858,return,0.1186,,7.161458333,,,,,,FBP-OG-71.png,0.35,1.2,1,0.25,,,,,,,,,,,,,0,22,22,0,1,,,,,,,,,,,,,,,,,,,,,,,,,,,,
,,,,,SPR24_008,21,female,2024-04-05_12h00.12.594,jersey_experiment_5_v0,2023.2.2,Win32,86.20689655,,,,,,,,,,,,,,,,585.686,586.7329,586.7329,588.2742,return,0.0495,,51.30208333,,,,,,FBP-RB-17.png,0.4,1.2,33,0.25,,,,,,,,,,,,,0,23,23,32,1,,,,,,,,,,,,,,,,,,,,,,,,,,,,
,,,,,SPR24_008,21,female,2024-04-05_12h00.12.594,jersey_experiment_5_v0,2023.2.2,Win32,86.20689655,,,,,,,,,,,,,,,,588.2743,589.5683,589.5684,590.5919,return,0.1479,,34.89583333,,,,,,FBP-YG-17.png,0.37,1.2,17,0.5,,,,,,,,,,,,,0,24,24,16,1,,,,,,,,,,,,,,,,,,,,,,,,,,,,
,,,,,SPR24_008,21,female,2024-04-05_12h00.12.594,jersey_experiment_5_v0,2023.2.2,Win32,86.20689655,,,,,,,,,,,,,,,,590.592,591.8861,591.8861,592.9804,return,0.0374,,55.98958333,,,,,,FBP-PT-17.png,0.37,1.2,47,0.5,,,,,,,,,,,,,0,25,25,46,1,,,,,,,,,,,,,,,,,,,,,,,,,,,,
,,,,,SPR24_008,21,female,2024-04-05_12h00.12.594,jersey_experiment_5_v0,2023.2.2,Win32,86.20689655,,,,,,,,,,,,,,,,592.9806,594.0274,594.0274,595.1096,return,0.0713,,91.66666667,,,,,,FBP-OG-71.png,0.45,1.2,5,0.25,,,,,,,,,,,,,0,26,26,4,1,,,,,,,,,,,,,,,,,,,,,,,,,,,,
,,,,,SPR24_008,21,female,2024-04-05_12h00.12.594,jersey_experiment_5_v0,2023.2.2,Win32,86.20689655,,,,,,,,,,,,,,,,595.1098,596.1568,596.1569,597.7334,return,0.7073,,69.40104167,,,,,,FBP-OG-81.png,0.4,1.2,8,0.25,,,,,,,,,,,,,0,27,27,7,1,,,,,,,,,,,,,,,,,,,,,,,,,,,,
,,,,,SPR24_008,21,female,2024-04-05_12h00.12.594,jersey_experiment_5_v0,2023.2.2,Win32,86.20689655,,,,,,,,,,,,,,,,597.7336,599.0273,599.0274,599.6981,return,0.0045,,80.33854167,,,,,,FBP-PT-17.png,0.43,1.2,49,0.5,,,,,,,,,,,,,0,28,28,48,1,,,,,,,,,,,,,,,,,,,,,,,,,,,,
,,,,,SPR24_008,21,female,2024-04-05_12h00.12.594,jersey_experiment_5_v0,2023.2.2,Win32,86.20689655,,,,,,,,,,,,,,,,599.6983,600.9922,600.9922,601.6396,return,0.0006,,93.359375,,,,,,FBP-YG-17.png,0.45,1.2,20,0.5,,,,,,,,,,,,,0,29,29,19,1,,,,,,,,,,,,,,,,,,,,,,,,,,,,
,,,,,SPR24_008,21,female,2024-04-05_12h00.12.594,jersey_experiment_5_v0,2023.2.2,Win32,86.20689655,,,,,,,,,,,,,,,,601.6398,602.9336,602.9337,603.8159,return,0.104,,96.484375,,,,,,FBP-YG-19.png,0.45,1.2,30,0.5,,,,,,,,,,,,,0,30,30,29,1,,,,,,,,,,,,,,,,,,,,,,,,,,,,
,,,,,SPR24_008,21,female,2024-04-05_12h00.12.594,jersey_experiment_5_v0,2023.2.2,Win32,86.20689655,,,,,,,,,,,,,,,,603.816,605.1101,605.1102,606.1453,return,0.0992,,19.53125,,,,,,FBP-PT-17.png,0.35,1.2,46,0.5,,,,,,,,,,,,,0,31,31,45,1,,,,,,,,,,,,,,,,,,,,,,,,,,,,
,,,,,SPR24_008,21,female,2024-04-05_12h00.12.594,jersey_experiment_5_v0,2023.2.2,Win32,86.20689655,,,,,,,,,,,,,,,,606.1455,607.1925,607.1925,608.2161,return,0.0236,,90.36458333,,,,,,FBP-RB-18.png,0.45,1.2,40,0.25,,,,,,,,,,,,,0,32,32,39,1,,,,,,,,,,,,,,,,,,,,,,,,,,,,
,,,,,SPR24_008,21,female,2024-04-05_12h00.12.594,jersey_experiment_5_v0,2023.2.2,Win32,86.20689655,,,,,,,,,,,,,,,,608.2163,609.2631,609.2631,610.969,return,0.0576,,42.1875,,,,,,FBP-RB-18.png,0.37,1.2,37,0.25,,,,,,,,,,,,,0,33,33,36,1,,,,,,,,,,,,,,,,,,,,,,,,,,,,
,,,,,SPR24_008,21,female,2024-04-05_12h00.12.594,jersey_experiment_5_v0,2023.2.2,Win32,86.20689655,,,,,,,,,,,,,,,,610.9694,612.2632,612.2632,613.2045,return,0.0254,,82.94270833,,,,,,FBP-PT-19.png,0.45,1.2,60,0.5,,,,,,,,,,,,,0,34,34,59,1,,,,,,,,,,,,,,,,,,,,,,,,,,,,
,,,,,SPR24_008,21,female,2024-04-05_12h00.12.594,jersey_experiment_5_v0,2023.2.2,Win32,86.20689655,,,,,,,,,,,,,,,,613.2046,614.2515,614.2515,615.5693,return,0.6993,,83.46354167,,,,,,FBP-RB-17.png,0.45,1.2,35,0.25,,,,,,,,,,,,,0,35,35,34,1,,,,,,,,,,,,,,,,,,,,,,,,,,,,
,,,,,SPR24_008,21,female,2024-04-05_12h00.12.594,jersey_experiment_5_v0,2023.2.2,Win32,86.20689655,,,,,,,,,,,,,,,,615.5696,616.8636,616.8637,617.3576,return,0.0538,,89.84375,,,,,,FBP-YG-18.png,0.45,1.2,25,0.5,,,,,,,,,,,,,0,36,36,24,1,,,,,,,,,,,,,,,,,,,,,,,,,,,,
,,,,,SPR24_008,21,female,2024-04-05_12h00.12.594,jersey_experiment_5_v0,2023.2.2,Win32,86.20689655,,,,,,,,,,,,,,,,617.3579,618.4046,618.4047,619.7107,return,0.1239,,50.13020833,,,,,,FBP-OG-91.png,0.37,1.2,12,0.25,,,,,,,,,,,,,0,37,37,11,1,,,,,,,,,,,,,,,,,,,,,,,,,,,,
,,,,,SPR24_008,21,female,2024-04-05_12h00.12.594,jersey_experiment_5_v0,2023.2.2,Win32,86.20689655,,,,,,,,,,,,,,,,619.711,620.7576,620.7576,621.8165,return,0.0709,,20.96354167,,,,,,FBP-RB-19.png,0.35,1.2,41,0.25,,,,,,,,,,,,,0,38,38,40,1,,,,,,,,,,,,,,,,,,,,,,,,,,,,
,,,,,SPR24_008,21,female,2024-04-05_12h00.12.594,jersey_experiment_5_v0,2023.2.2,Win32,86.20689655,,,,,,,,,,,,,,,,621.8168,622.8637,622.8637,624.146,return,0.0515,,78.515625,,,,,,FBP-RB-18.png,0.43,1.2,39,0.25,,,,,,,,,,,,,0,39,39,38,1,,,,,,,,,,,,,,,,,,,,,,,,,,,,
,,,,,SPR24_008,21,female,2024-04-05_12h00.12.594,jersey_experiment_5_v0,2023.2.2,Win32,86.20689655,,,,,,,,,,,,,,,,624.1463,625.1933,625.1933,626.7108,return,0.0704,,42.31770833,,,,,,FBP-OG-71.png,0.37,1.2,2,0.25,,,,,,,,,,,,,0,40,40,1,1,,,,,,,,,,,,,,,,,,,,,,,,,,,,
,,,,,SPR24_008,21,female,2024-04-05_12h00.12.594,jersey_experiment_5_v0,2023.2.2,Win32,86.20689655,,,,,,,,,,,,,,,,626.711,628.005,628.0051,629.0758,return,0.0379,,75.13020833,,,,,,FBP-PT-19.png,0.4,1.2,58,0.5,,,,,,,,,,,,,0,41,41,57,1,,,,,,,,,,,,,,,,,,,,,,,,,,,,
,,,,,SPR24_008,21,female,2024-04-05_12h00.12.594,jersey_experiment_5_v0,2023.2.2,Win32,86.20689655,,,,,,,,,,,,,,,,629.076,630.3699,630.3699,631.064,return,0.0705,,83.07291667,,,,,,FBP-YG-17.png,0.4,1.2,18,0.5,,,,,,,,,,,,,0,42,42,17,1,,,,,,,,,,,,,,,,,,,,,,,,,,,,
,,,,,SPR24_008,21,female,2024-04-05_12h00.12.594,jersey_experiment_5_v0,2023.2.2,Win32,86.20689655,,,,,,,,,,,,,,,,631.0642,632.3582,632.3582,633.2172,return,0.1351,,81.640625,,,,,,FBP-PT-18.png,0.4,1.2,53,0.5,,,,,,,,,,,,,0,43,43,52,1,,,,,,,,,,,,,,,,,,,,,,,,,,,,
,,,,,SPR24_008,21,female,2024-04-05_12h00.12.594,jersey_experiment_5_v0,2023.2.2,Win32,86.20689655,,,,,,,,,,,,,,,,633.2175,634.5113,634.5113,637.429,return,0.9176,,46.35416667,,,,,,FBP-YG-18.png,0.35,1.2,21,0.5,,,,,,,,,,,,,0,44,44,20,1,,,,,,,,,,,,,,,,,,,,,,,,,,,,
,,,,,SPR24_008,21,female,2024-04-05_12h00.12.594,jersey_experiment_5_v0,2023.2.2,Win32,86.20689655,,,,,,,,,,,,,,,,637.4293,638.7231,638.7231,639.7821,return,0.0608,,64.97395833,,,,,,FBP-YG-19.png,0.4,1.2,28,0.5,,,,,,,,,,,,,0,45,45,27,1,,,,,,,,,,,,,,,,,,,,,,,,,,,,
,,,,,SPR24_008,21,female,2024-04-05_12h00.12.594,jersey_experiment_5_v0,2023.2.2,Win32,86.20689655,,,,,,,,,,,,,,,,639.7823,640.8292,640.8292,642.0526,return,0.1056,,57.03125,,,,,,FBP-RB-19.png,0.37,1.2,42,0.25,,,,,,,,,,,,,0,46,46,41,1,,,,,,,,,,,,,,,,,,,,,,,,,,,,
,,,,,SPR24_008,21,female,2024-04-05_12h00.12.594,jersey_experiment_5_v0,2023.2.2,Win32,86.20689655,,,,,,,,,,,,,,,,642.0528,643.0996,643.0996,644.1351,return,0.0618,,51.43229167,,,,,,FBP-OG-81.png,0.37,1.2,7,0.25,,,,,,,,,,,,,0,47,47,6,1,,,,,,,,,,,,,,,,,,,,,,,,,,,,
,,,,,SPR24_008,21,female,2024-04-05_12h00.12.594,jersey_experiment_5_v0,2023.2.2,Win32,86.20689655,,,,,,,,,,,,,,,,644.1353,645.4293,645.4294,646.3352,return,0.0649,,42.578125,,,,,,FBP-PT-19.png,0.35,1.2,56,0.5,,,,,,,,,,,,,0,48,48,55,1,,,,,,,,,,,,,,,,,,,,,,,,,,,,
,,,,,SPR24_008,21,female,2024-04-05_12h00.12.594,jersey_experiment_5_v0,2023.2.2,Win32,86.20689655,,,,,,,,,,,,,,,,646.3353,647.6292,647.6293,648.5001,return,0.0026,,73.046875,,,,,,FBP-PT-19.png,0.43,1.2,59,0.5,,,,,,,,,,,,,0,49,49,58,1,,,,,,,,,,,,,,,,,,,,,,,,,,,,
,,,,,SPR24_008,21,female,2024-04-05_12h00.12.594,jersey_experiment_5_v0,2023.2.2,Win32,86.20689655,,,,,,,,,,,,,,,,648.5003,649.7941,649.7941,650.3235,return,0.0489,,79.6875,,,,,,FBP-PT-18.png,0.43,1.2,54,0.5,,,,,,,,,,,,,0,50,50,53,1,,,,,,,,,,,,,,,,,,,,,,,,,,,,
,,,,,SPR24_008,21,female,2024-04-05_12h00.12.594,jersey_experiment_5_v0,2023.2.2,Win32,86.20689655,,,,,,,,,,,,,,,,650.3237,651.618,651.618,653.3591,return,0.0897,,42.44791667,,,,,,FBP-YG-19.png,0.35,1.2,26,0.5,,,,,,,,,,,,,0,51,51,25,1,,,,,,,,,,,,,,,,,,,,,,,,,,,,
,,,,,SPR24_008,21,female,2024-04-05_12h00.12.594,jersey_experiment_5_v0,2023.2.2,Win32,86.20689655,,,,,,,,,,,,,,,,653.3593,654.6533,654.6533,655.6532,return,0.0014,,78.515625,,,,,,FBP-YG-17.png,0.43,1.2,19,0.5,,,,,,,,,,,,,0,52,52,18,1,,,,,,,,,,,,,,,,,,,,,,,,,,,,
,,,,,SPR24_008,21,female,2024-04-05_12h00.12.594,jersey_experiment_5_v0,2023.2.2,Win32,86.20689655,,,,,,,,,,,,,,,,655.6532,656.9474,656.9474,657.571,return,0.0488,,87.63020833,,,,,,FBP-PT-18.png,0.45,1.2,55,0.5,,,,,,,,,,,,,0,53,53,54,1,,,,,,,,,,,,,,,,,,,,,,,,,,,,
,,,,,SPR24_008,21,female,2024-04-05_12h00.12.594,jersey_experiment_5_v0,2023.2.2,Win32,86.20689655,,,,,,,,,,,,,,,,657.5712,658.6179,658.6179,660.6651,return,0.0578,,84.50520833,,,,,,FBP-RB-19.png,0.43,1.2,44,0.25,,,,,,,,,,,,,0,54,54,43,1,,,,,,,,,,,,,,,,,,,,,,,,,,,,
,,,,,SPR24_008,21,female,2024-04-05_12h00.12.594,jersey_experiment_5_v0,2023.2.2,Win32,86.20689655,,,,,,,,,,,,,,,,660.6653,661.7122,661.7123,662.8534,return,0.082,,57.8125,,,,,,FBP-RB-19.png,0.4,1.2,43,0.25,,,,,,,,,,,,,0,55,55,42,1,,,,,,,,,,,,,,,,,,,,,,,,,,,,
,,,,,SPR24_008,21,female,2024-04-05_12h00.12.594,jersey_experiment_5_v0,2023.2.2,Win32,86.20689655,,,,,,,,,,,,,,,,662.8536,663.9006,663.9006,664.9947,return,0.0848,,48.56770833,,,,,,FBP-RB-17.png,0.37,1.2,32,0.25,,,,,,,,,,,,,0,56,56,31,1,,,,,,,,,,,,,,,,,,,,,,,,,,,,
,,,,,SPR24_008,21,female,2024-04-05_12h00.12.594,jersey_experiment_5_v0,2023.2.2,Win32,86.20689655,,,,,,,,,,,,,,,,664.995,666.0417,666.0417,666.8653,return,0.0266,,71.484375,,,,,,FBP-OG-71.png,0.43,1.2,4,0.25,,,,,,,,,,,,,0,57,57,3,1,,,,,,,,,,,,,,,,,,,,,,,,,,,,
,,,,,SPR24_008,21,female,2024-04-05_12h00.12.594,jersey_experiment_5_v0,2023.2.2,Win32,86.20689655,,,,,,,,,,,,,,,,666.8655,668.1596,668.1596,669.5124,return,0.7863,,86.97916667,,,,,,FBP-YG-19.png,0.43,1.2,29,0.5,,,,,,,,,,,,,0,58,58,28,1,,,,,,,,,,,,,,,,,,,,,,,,,,,,
,,,,,SPR24_008,21,female,2024-04-05_12h00.12.594,jersey_experiment_5_v0,2023.2.2,Win32,86.20689655,,,,,,,,,,,,,,,,669.5127,670.5596,670.5597,672.2774,return,0.0607,,53.38541667,,,,,,FBP-OG-71.png,0.4,1.2,3,0.25,,,,,,,,,,,,,0,59,59,2,1,,,,,,,,,,,,,,,,,,,,,,,,,,,,
,,,,,SPR24_008,21,female,2024-04-05_12h00.12.594,jersey_experiment_5_v0,2023.2.2,Win32,86.20689655,,,,,,,,,,,,,,,,672.2792,673.5715,673.5715,674.7127,return,0.1757,,55.59895833,,,,,,FBP-YG-91.png,0.4,1.2,28,0.5,,,,,,,,,,,,,,,,,,0,0,0,27,1,,,,,,,,,,,,,,,,,,,,,,,
,,,,,SPR24_008,21,female,2024-04-05_12h00.12.594,jersey_experiment_5_v0,2023.2.2,Win32,86.20689655,,,,,,,,,,,,,,,,674.7129,675.7598,675.7598,676.5833,return,0.1788,,56.77083333,,,,,,FBP-RB-91.png,0.4,1.2,43,0.25,,,,,,,,,,,,,,,,,,0,1,1,42,1,,,,,,,,,,,,,,,,,,,,,,,
,,,,,SPR24_008,21,female,2024-04-05_12h00.12.594,jersey_experiment_5_v0,2023.2.2,Win32,86.20689655,,,,,,,,,,,,,,,,676.5836,677.8775,677.8775,678.8777,return,0.0891,,79.42708333,,,,,,FBP-YG-71.png,0.43,1.2,19,0.5,,,,,,,,,,,,,,,,,,0,2,2,18,1,,,,,,,,,,,,,,,,,,,,,,,
,,,,,SPR24_008,21,female,2024-04-05_12h00.12.594,jersey_experiment_5_v0,2023.2.2,Win32,86.20689655,,,,,,,,,,,,,,,,678.8779,679.9247,679.9248,681.5129,return,0.2925,,35.80729167,,,,,,FBP-OG-17.png,0.37,1.2,2,0.25,,,,,,,,,,,,,,,,,,0,3,3,1,1,,,,,,,,,,,,,,,,,,,,,,,
,,,,,SPR24_008,21,female,2024-04-05_12h00.12.594,jersey_experiment_5_v0,2023.2.2,Win32,86.20689655,,,,,,,,,,,,,,,,681.5131,682.8073,682.8074,683.5599,return,0.047,,83.59375,,,,,,FBP-PT-81.png,0.45,1.2,55,0.5,,,,,,,,,,,,,,,,,,0,4,4,54,1,,,,,,,,,,,,,,,,,,,,,,,
,,,,,SPR24_008,21,female,2024-04-05_12h00.12.594,jersey_experiment_5_v0,2023.2.2,Win32,86.20689655,,,,,,,,,,,,,,,,683.56,684.6073,684.6074,685.5131,return,0.0803,,49.47916667,,,,,,FBP-RB-81.png,0.37,1.2,37,0.25,,,,,,,,,,,,,,,,,,0,5,5,36,1,,,,,,,,,,,,,,,,,,,,,,,
,,,,,SPR24_008,21,female,2024-04-05_12h00.12.594,jersey_experiment_5_v0,2023.2.2,Win32,86.20689655,,,,,,,,,,,,,,,,685.5132,686.8072,686.8072,687.6777,return,0.0321,,77.99479167,,,,,,FBP-YG-91.png,0.43,1.2,29,0.5,,,,,,,,,,,,,,,,,,0,6,6,28,1,,,,,,,,,,,,,,,,,,,,,,,
,,,,,SPR24_008,21,female,2024-04-05_12h00.12.594,jersey_experiment_5_v0,2023.2.2,Win32,86.20689655,,,,,,,,,,,,,,,,687.6779,688.725,688.725,689.8074,return,0.0426,,59.89583333,,,,,,FBP-OG-19.png,0.4,1.2,13,0.25,,,,,,,,,,,,,,,,,,0,7,7,12,1,,,,,,,,,,,,,,,,,,,,,,,
,,,,,SPR24_008,21,female,2024-04-05_12h00.12.594,jersey_experiment_5_v0,2023.2.2,Win32,86.20689655,,,,,,,,,,,,,,,,689.8077,690.8544,690.8545,691.7958,return,0.1062,,76.43229167,,,,,,FBP-RB-71.png,0.43,1.2,34,0.25,,,,,,,,,,,,,,,,,,0,8,8,33,1,,,,,,,,,,,,,,,,,,,,,,,
,,,,,SPR24_008,21,female,2024-04-05_12h00.12.594,jersey_experiment_5_v0,2023.2.2,Win32,86.20689655,,,,,,,,,,,,,,,,691.796,693.0899,693.0899,693.7017,return,0.0811,,93.88020833,,,,,,FBP-PT-91.png,0.45,1.2,60,0.5,,,,,,,,,,,,,,,,,,0,9,9,59,1,,,,,,,,,,,,,,,,,,,,,,,
,,,,,SPR24_008,21,female,2024-04-05_12h00.12.594,jersey_experiment_5_v0,2023.2.2,Win32,86.20689655,,,,,,,,,,,,,,,,693.7019,694.996,694.996,696.2783,return,0.0837,,27.34375,,,,,,FBP-YG-81.png,0.37,1.2,22,0.5,,,,,,,,,,,,,,,,,,0,10,10,21,1,,,,,,,,,,,,,,,,,,,,,,,
,,,,,SPR24_008,21,female,2024-04-05_12h00.12.594,jersey_experiment_5_v0,2023.2.2,Win32,86.20689655,,,,,,,,,,,,,,,,696.2786,697.3253,697.3253,698.4195,return,0.0957,,76.953125,,,,,,FBP-RB-81.png,0.43,1.2,39,0.25,,,,,,,,,,,,,,,,,,0,11,11,38,1,,,,,,,,,,,,,,,,,,,,,,,
,,,,,SPR24_008,21,female,2024-04-05_12h00.12.594,jersey_experiment_5_v0,2023.2.2,Win32,86.20689655,,,,,,,,,,,,,,,,698.4197,699.4666,699.4666,700.2313,return,0.0461,,90.234375,,,,,,FBP-OG-18.png,0.45,1.2,10,0.25,,,,,,,,,,,,,,,,,,0,12,12,9,1,,,,,,,,,,,,,,,,,,,,,,,
,,,,,SPR24_008,21,female,2024-04-05_12h00.12.594,jersey_experiment_5_v0,2023.2.2,Win32,86.20689655,,,,,,,,,,,,,,,,700.2315,701.5257,701.5257,702.3373,return,0.0993,,51.82291667,,,,,,FBP-PT-81.png,0.4,1.2,53,0.5,,,,,,,,,,,,,,,,,,0,13,13,52,1,,,,,,,,,,,,,,,,,,,,,,,
,,,,,SPR24_008,21,female,2024-04-05_12h00.12.594,jersey_experiment_5_v0,2023.2.2,Win32,86.20689655,,,,,,,,,,,,,,,,702.3375,703.6314,703.6315,704.7727,return,0.0473,,24.21875,,,,,,FBP-PT-71.png,0.37,1.2,47,0.5,,,,,,,,,,,,,,,,,,0,14,14,46,1,,,,,,,,,,,,,,,,,,,,,,,
,,,,,SPR24_008,21,female,2024-04-05_12h00.12.594,jersey_experiment_5_v0,2023.2.2,Win32,86.20689655,,,,,,,,,,,,,,,,704.7729,705.8199,705.8199,707.3256,return,0.1264,,51.69270833,,,,,,FBP-RB-71.png,0.4,1.2,33,0.25,,,,,,,,,,,,,,,,,,0,15,15,32,1,,,,,,,,,,,,,,,,,,,,,,,
,,,,,SPR24_008,21,female,2024-04-05_12h00.12.594,jersey_experiment_5_v0,2023.2.2,Win32,86.20689655,,,,,,,,,,,,,,,,707.3258,708.3729,708.3729,709.6669,return,0.0489,,19.53125,,,,,,FBP-OG-18.png,0.35,1.2,6,0.25,,,,,,,,,,,,,,,,,,0,16,16,5,1,,,,,,,,,,,,,,,,,,,,,,,
,,,,,SPR24_008,21,female,2024-04-05_12h00.12.594,jersey_experiment_5_v0,2023.2.2,Win32,86.20689655,,,,,,,,,,,,,,,,709.6673,710.714,710.714,711.7494,return,0.0586,,80.859375,,,,,,FBP-OG-19.png,0.45,1.2,15,0.25,,,,,,,,,,,,,,,,,,0,17,17,14,1,,,,,,,,,,,,,,,,,,,,,,,
,,,,,SPR24_008,21,female,2024-04-05_12h00.12.594,jersey_experiment_5_v0,2023.2.2,Win32,86.20689655,,,,,,,,,,,,,,,,711.7496,712.7965,712.7966,713.9612,return,0.0466,,24.08854167,,,,,,FBP-RB-71.png,0.37,1.2,32,0.25,,,,,,,,,,,,,,,,,,0,18,18,31,1,,,,,,,,,,,,,,,,,,,,,,,
,,,,,SPR24_008,21,female,2024-04-05_12h00.12.594,jersey_experiment_5_v0,2023.2.2,Win32,86.20689655,,,,,,,,,,,,,,,,713.9615,715.0084,715.0084,716.2084,return,0.052,,85.41666667,,,,,,FBP-OG-18.png,0.4,1.2,8,0.25,,,,,,,,,,,,,,,,,,0,19,19,7,1,,,,,,,,,,,,,,,,,,,,,,,
,,,,,SPR24_008,21,female,2024-04-05_12h00.12.594,jersey_experiment_5_v0,2023.2.2,Win32,86.20689655,,,,,,,,,,,,,,,,716.2086,717.2554,717.2555,719.0791,return,0.6737,,59.765625,,,,,,FBP-OG-19.png,0.37,1.2,12,0.25,,,,,,,,,,,,,,,,,,0,20,20,11,1,,,,,,,,,,,,,,,,,,,,,,,
,,,,,SPR24_008,21,female,2024-04-05_12h00.12.594,jersey_experiment_5_v0,2023.2.2,Win32,86.20689655,,,,,,,,,,,,,,,,719.0793,720.1262,720.1263,721.4911,return,0.5308,,48.828125,,,,,,FBP-OG-18.png,0.37,1.2,7,0.25,,,,,,,,,,,,,,,,,,0,21,21,6,1,,,,,,,,,,,,,,,,,,,,,,,
,,,,,SPR24_008,21,female,2024-04-05_12h00.12.594,jersey_experiment_5_v0,2023.2.2,Win32,86.20689655,,,,,,,,,,,,,,,,721.4914,722.5381,722.5381,723.8441,return,0.1539,,99.73958333,,,,,,FBP-OG-17.png,0.45,1.2,5,0.25,,,,,,,,,,,,,,,,,,0,22,22,4,1,,,,,,,,,,,,,,,,,,,,,,,
,,,,,SPR24_008,21,female,2024-04-05_12h00.12.594,jersey_experiment_5_v0,2023.2.2,Win32,86.20689655,,,,,,,,,,,,,,,,723.8442,725.1381,725.1381,726.4088,return,0.1176,,60.80729167,,,,,,FBP-YG-81.png,0.4,1.2,23,0.5,,,,,,,,,,,,,,,,,,0,23,23,22,1,,,,,,,,,,,,,,,,,,,,,,,
,,,,,SPR24_008,21,female,2024-04-05_12h00.12.594,jersey_experiment_5_v0,2023.2.2,Win32,86.20689655,,,,,,,,,,,,,,,,726.409,727.7029,727.7029,728.6558,return,0.1592,,50,,,,,,FBP-PT-81.png,0.37,1.2,52,0.5,,,,,,,,,,,,,,,,,,0,24,24,51,1,,,,,,,,,,,,,,,,,,,,,,,
,,,,,SPR24_008,21,female,2024-04-05_12h00.12.594,jersey_experiment_5_v0,2023.2.2,Win32,86.20689655,,,,,,,,,,,,,,,,728.6561,729.9501,729.9501,730.5854,return,0.2114,,50,,,,,,FBP-YG-71.png,0.37,1.2,17,0.5,,,,,,,,,,,,,,,,,,0,25,25,16,1,,,,,,,,,,,,,,,,,,,,,,,
,,,,,SPR24_008,21,female,2024-04-05_12h00.12.594,jersey_experiment_5_v0,2023.2.2,Win32,86.20689655,,,,,,,,,,,,,,,,730.5857,731.6325,731.6326,732.6797,return,0.1177,,65.36458333,,,,,,FBP-RB-81.png,0.4,1.2,38,0.25,,,,,,,,,,,,,,,,,,0,26,26,37,1,,,,,,,,,,,,,,,,,,,,,,,
,,,,,SPR24_008,21,female,2024-04-05_12h00.12.594,jersey_experiment_5_v0,2023.2.2,Win32,86.20689655,,,,,,,,,,,,,,,,732.68,733.9738,733.9738,734.6093,return,0.1444,,78.64583333,,,,,,FBP-PT-91.png,0.4,1.2,58,0.5,,,,,,,,,,,,,,,,,,0,27,27,57,1,,,,,,,,,,,,,,,,,,,,,,,
,,,,,SPR24_008,21,female,2024-04-05_12h00.12.594,jersey_experiment_5_v0,2023.2.2,Win32,86.20689655,,,,,,,,,,,,,,,,734.6095,735.6562,735.6562,736.809,return,0.0707,,50.91145833,,,,,,FBP-RB-91.png,0.37,1.2,42,0.25,,,,,,,,,,,,,,,,,,0,28,28,41,1,,,,,,,,,,,,,,,,,,,,,,,
,,,,,SPR24_008,21,female,2024-04-05_12h00.12.594,jersey_experiment_5_v0,2023.2.2,Win32,86.20689655,,,,,,,,,,,,,,,,736.8092,738.1033,738.1033,738.9974,return,0.1296,,82.55208333,,,,,,FBP-YG-81.png,0.43,1.2,24,0.5,,,,,,,,,,,,,,,,,,0,29,29,23,1,,,,,,,,,,,,,,,,,,,,,,,
,,,,,SPR24_008,21,female,2024-04-05_12h00.12.594,jersey_experiment_5_v0,2023.2.2,Win32,86.20689655,,,,,,,,,,,,,,,,738.9975,740.0446,740.0447,740.7741,return,0.1085,,92.1875,,,,,,FBP-OG-19.png,0.43,1.2,14,0.25,,,,,,,,,,,,,,,,,,0,30,30,13,1,,,,,,,,,,,,,,,,,,,,,,,
,,,,,SPR24_008,21,female,2024-04-05_12h00.12.594,jersey_experiment_5_v0,2023.2.2,Win32,86.20689655,,,,,,,,,,,,,,,,740.7742,742.0683,742.0684,743.4447,return,0.0825,,33.85416667,,,,,,FBP-YG-71.png,0.35,1.2,16,0.5,,,,,,,,,,,,,,,,,,0,31,31,15,1,,,,,,,,,,,,,,,,,,,,,,,
,,,,,SPR24_008,21,female,2024-04-05_12h00.12.594,jersey_experiment_5_v0,2023.2.2,Win32,86.20689655,,,,,,,,,,,,,,,,743.445,744.7389,744.739,745.6213,return,0.0609,,31.25,,,,,,FBP-YG-91.png,0.37,1.2,27,0.5,,,,,,,,,,,,,,,,,,0,32,32,26,1,,,,,,,,,,,,,,,,,,,,,,,
,,,,,SPR24_008,21,female,2024-04-05_12h00.12.594,jersey_experiment_5_v0,2023.2.2,Win32,86.20689655,,,,,,,,,,,,,,,,745.6215,746.9156,746.9156,747.8919,return,0.154,,78.90625,,,,,,FBP-YG-91.png,0.45,1.2,30,0.5,,,,,,,,,,,,,,,,,,0,33,33,29,1,,,,,,,,,,,,,,,,,,,,,,,
,,,,,SPR24_008,21,female,2024-04-05_12h00.12.594,jersey_experiment_5_v0,2023.2.2,Win32,86.20689655,,,,,,,,,,,,,,,,747.8921,749.1861,749.1861,750.7273,return,0.0941,,76.43229167,,,,,,FBP-YG-71.png,0.4,1.2,18,0.5,,,,,,,,,,,,,,,,,,0,34,34,17,1,,,,,,,,,,,,,,,,,,,,,,,
,,,,,SPR24_008,21,female,2024-04-05_12h00.12.594,jersey_experiment_5_v0,2023.2.2,Win32,86.20689655,,,,,,,,,,,,,,,,750.7274,751.7745,751.7745,752.6921,return,0.1433,,86.58854167,,,,,,FBP-OG-18.png,0.43,1.2,9,0.25,,,,,,,,,,,,,,,,,,0,35,35,8,1,,,,,,,,,,,,,,,,,,,,,,,
,,,,,SPR24_008,21,female,2024-04-05_12h00.12.594,jersey_experiment_5_v0,2023.2.2,Win32,86.20689655,,,,,,,,,,,,,,,,752.6923,753.7392,753.7393,755.3274,return,0.0879,,39.58333333,,,,,,FBP-RB-81.png,0.35,1.2,36,0.25,,,,,,,,,,,,,,,,,,0,36,36,35,1,,,,,,,,,,,,,,,,,,,,,,,
,,,,,SPR24_008,21,female,2024-04-05_12h00.12.594,jersey_experiment_5_v0,2023.2.2,Win32,86.20689655,,,,,,,,,,,,,,,,755.3276,756.6217,756.6217,757.5982,return,0.1376,,82.8125,,,,,,FBP-PT-91.png,0.43,1.2,59,0.5,,,,,,,,,,,,,,,,,,0,37,37,58,1,,,,,,,,,,,,,,,,,,,,,,,
,,,,,SPR24_008,21,female,2024-04-05_12h00.12.594,jersey_experiment_5_v0,2023.2.2,Win32,86.20689655,,,,,,,,,,,,,,,,757.5984,758.6451,758.6452,760.0336,return,0.0989,,36.84895833,,,,,,FBP-RB-91.png,0.35,1.2,41,0.25,,,,,,,,,,,,,,,,,,0,38,38,40,1,,,,,,,,,,,,,,,,,,,,,,,
,,,,,SPR24_008,21,female,2024-04-05_12h00.12.594,jersey_experiment_5_v0,2023.2.2,Win32,86.20689655,,,,,,,,,,,,,,,,760.0339,761.0807,761.0808,762.6102,return,0.1209,,15.49479167,,,,,,FBP-OG-19.png,0.35,1.2,11,0.25,,,,,,,,,,,,,,,,,,0,39,39,10,1,,,,,,,,,,,,,,,,,,,,,,,
,,,,,SPR24_008,21,female,2024-04-05_12h00.12.594,jersey_experiment_5_v0,2023.2.2,Win32,86.20689655,,,,,,,,,,,,,,,,762.6103,763.9042,763.9042,764.822,return,0.0844,,14.32291667,,,,,,FBP-PT-71.png,0.35,1.2,46,0.5,,,,,,,,,,,,,,,,,,0,40,40,45,1,,,,,,,,,,,,,,,,,,,,,,,
,,,,,SPR24_008,21,female,2024-04-05_12h00.12.594,jersey_experiment_5_v0,2023.2.2,Win32,86.20689655,,,,,,,,,,,,,,,,764.8222,766.1163,766.1164,767.2222,return,0.0844,,87.23958333,,,,,,FBP-PT-71.png,0.45,1.2,50,0.5,,,,,,,,,,,,,,,,,,0,41,41,49,1,,,,,,,,,,,,,,,,,,,,,,,
,,,,,SPR24_008,21,female,2024-04-05_12h00.12.594,jersey_experiment_5_v0,2023.2.2,Win32,86.20689655,,,,,,,,,,,,,,,,767.2224,768.269,768.269,770.3281,return,0.7061,,24.86979167,,,,,,FBP-RB-71.png,0.35,1.2,31,0.25,,,,,,,,,,,,,,,,,,0,42,42,30,1,,,,,,,,,,,,,,,,,,,,,,,
,,,,,SPR24_008,21,female,2024-04-05_12h00.12.594,jersey_experiment_5_v0,2023.2.2,Win32,86.20689655,,,,,,,,,,,,,,,,770.3284,771.6223,771.6223,772.5517,return,0.0343,,18.88020833,,,,,,FBP-YG-91.png,0.35,1.2,26,0.5,,,,,,,,,,,,,,,,,,0,43,43,25,1,,,,,,,,,,,,,,,,,,,,,,,
,,,,,SPR24_008,21,female,2024-04-05_12h00.12.594,jersey_experiment_5_v0,2023.2.2,Win32,86.20689655,,,,,,,,,,,,,,,,772.5519,773.5988,773.5989,774.9046,return,0.0574,,91.40625,,,,,,FBP-RB-91.png,0.45,1.2,45,0.25,,,,,,,,,,,,,,,,,,0,44,44,44,1,,,,,,,,,,,,,,,,,,,,,,,
,,,,,SPR24_008,21,female,2024-04-05_12h00.12.594,jersey_experiment_5_v0,2023.2.2,Win32,86.20689655,,,,,,,,,,,,,,,,774.9047,775.9519,775.9519,777.1048,return,0.0989,,97.91666667,,,,,,FBP-RB-91.png,0.43,1.2,44,0.25,,,,,,,,,,,,,,,,,,0,45,45,43,1,,,,,,,,,,,,,,,,,,,,,,,
,,,,,SPR24_008,21,female,2024-04-05_12h00.12.594,jersey_experiment_5_v0,2023.2.2,Win32,86.20689655,,,,,,,,,,,,,,,,777.105,778.1519,778.1519,779.2342,return,0.0513,,99.34895833,,,,,,FBP-RB-71.png,0.45,1.2,35,0.25,,,,,,,,,,,,,,,,,,0,46,46,34,1,,,,,,,,,,,,,,,,,,,,,,,
,,,,,SPR24_008,21,female,2024-04-05_12h00.12.594,jersey_experiment_5_v0,2023.2.2,Win32,86.20689655,,,,,,,,,,,,,,,,779.2344,780.5287,780.5287,781.6343,return,0.0983,,13.41145833,,,,,,FBP-YG-81.png,0.35,1.2,21,0.5,,,,,,,,,,,,,,,,,,0,47,47,20,1,,,,,,,,,,,,,,,,,,,,,,,
,,,,,SPR24_008,21,female,2024-04-05_12h00.12.594,jersey_experiment_5_v0,2023.2.2,Win32,86.20689655,,,,,,,,,,,,,,,,781.6345,782.9285,782.9285,783.9286,return,0.0706,,77.99479167,,,,,,FBP-YG-71.png,0.45,1.2,20,0.5,,,,,,,,,,,,,,,,,,0,48,48,19,1,,,,,,,,,,,,,,,,,,,,,,,
,,,,,SPR24_008,21,female,2024-04-05_12h00.12.594,jersey_experiment_5_v0,2023.2.2,Win32,86.20689655,,,,,,,,,,,,,,,,783.9288,785.2228,785.2228,785.9876,return,0.1075,,90.49479167,,,,,,FBP-YG-81.png,0.45,1.2,25,0.5,,,,,,,,,,,,,,,,,,0,49,49,24,1,,,,,,,,,,,,,,,,,,,,,,,
,,,,,SPR24_008,21,female,2024-04-05_12h00.12.594,jersey_experiment_5_v0,2023.2.2,Win32,86.20689655,,,,,,,,,,,,,,,,785.9878,787.0346,787.0346,788.2111,return,0.0489,,72.13541667,,,,,,FBP-OG-17.png,0.4,1.2,3,0.25,,,,,,,,,,,,,,,,,,0,50,50,2,1,,,,,,,,,,,,,,,,,,,,,,,
,,,,,SPR24_008,21,female,2024-04-05_12h00.12.594,jersey_experiment_5_v0,2023.2.2,Win32,86.20689655,,,,,,,,,,,,,,,,788.2113,789.5055,789.5055,791.5054,return,0.0986,,41.14583333,,,,,,FBP-PT-91.png,0.35,1.2,56,0.5,,,,,,,,,,,,,,,,,,0,51,51,55,1,,,,,,,,,,,,,,,,,,,,,,,
,,,,,SPR24_008,21,female,2024-04-05_12h00.12.594,jersey_experiment_5_v0,2023.2.2,Win32,86.20689655,,,,,,,,,,,,,,,,791.5055,792.7995,792.7996,793.623,return,0.0727,,35.9375,,,,,,FBP-PT-81.png,0.35,1.2,51,0.5,,,,,,,,,,,,,,,,,,0,52,52,50,1,,,,,,,,,,,,,,,,,,,,,,,
,,,,,SPR24_008,21,female,2024-04-05_12h00.12.594,jersey_experiment_5_v0,2023.2.2,Win32,86.20689655,,,,,,,,,,,,,,,,793.6232,794.9175,794.9175,795.9762,return,0.0708,,64.453125,,,,,,FBP-PT-71.png,0.43,1.2,49,0.5,,,,,,,,,,,,,,,,,,0,53,53,48,1,,,,,,,,,,,,,,,,,,,,,,,
,,,,,SPR24_008,21,female,2024-04-05_12h00.12.594,jersey_experiment_5_v0,2023.2.2,Win32,86.20689655,,,,,,,,,,,,,,,,795.9764,797.2704,797.2704,798.6114,return,0.0246,,61.58854167,,,,,,FBP-PT-71.png,0.4,1.2,48,0.5,,,,,,,,,,,,,,,,,,0,54,54,47,1,,,,,,,,,,,,,,,,,,,,,,,
,,,,,SPR24_008,21,female,2024-04-05_12h00.12.594,jersey_experiment_5_v0,2023.2.2,Win32,86.20689655,,,,,,,,,,,,,,,,798.6116,799.9058,799.9059,800.8704,return,0.1081,,49.08854167,,,,,,FBP-PT-91.png,0.37,1.2,57,0.5,,,,,,,,,,,,,,,,,,0,55,55,56,1,,,,,,,,,,,,,,,,,,,,,,,
,,,,,SPR24_008,21,female,2024-04-05_12h00.12.594,jersey_experiment_5_v0,2023.2.2,Win32,86.20689655,,,,,,,,,,,,,,,,800.8706,801.9175,801.9176,802.8351,return,0.0505,,78.77604167,,,,,,FBP-RB-81.png,0.45,1.2,40,0.25,,,,,,,,,,,,,,,,,,0,56,56,39,1,,,,,,,,,,,,,,,,,,,,,,,
,,,,,SPR24_008,21,female,2024-04-05_12h00.12.594,jersey_experiment_5_v0,2023.2.2,Win32,86.20689655,,,,,,,,,,,,,,,,802.8353,803.8823,803.8824,805.2822,return,0.2731,,23.17708333,,,,,,FBP-OG-17.png,0.35,1.2,1,0.25,,,,,,,,,,,,,,,,,,0,57,57,0,1,,,,,,,,,,,,,,,,,,,,,,,
,,,,,SPR24_008,21,female,2024-04-05_12h00.12.594,jersey_experiment_5_v0,2023.2.2,Win32,86.20689655,,,,,,,,,,,,,,,,805.2825,806.5765,806.5766,807.6941,return,0.0907,,61.19791667,,,,,,FBP-PT-81.png,0.43,1.2,54,0.5,,,,,,,,,,,,,,,,,,0,58,58,53,1,,,,,,,,,,,,,,,,,,,,,,,
,,,,,SPR24_008,21,female,2024-04-05_12h00.12.594,jersey_experiment_5_v0,2023.2.2,Win32,86.20689655,,,,,,,,,,,,,,,,807.6943,808.7413,808.7413,809.5176,return,0.0421,,79.16666667,,,,,,FBP-OG-17.png,0.43,1.2,4,0.25,,,,,,,,,,,,,,,,,,0,59,59,3,1,,,,,,,,,,,,,,,,,,,,,,,
,,,,,SPR24_008,21,female,2024-04-05_12h00.12.594,jersey_experiment_5_v0,2023.2.2,Win32,86.20689655,,,,,,,,,,,,,,,,,,,,,,,,,,,,,,,,,,,,,,,,,,,,,,,,,,,,,,,,809.518,814.2125,return,4.6829,,,,,,,,,,,,,,,,,,,
,,,,,SPR24_008,21,female,2024-04-05_12h00.12.594,jersey_experiment_5_v0,2023.2.2,Win32,86.20689655,,,,,,,,,,,,,,,,,,,,,,,,,,,,,,,,,,,,,,,,,,,,,,,,,,,,,,,,,,,,,814.2126,818.977,1,3.1275,return,1.6151,,,,,,,,,,,,
,,,,,SPR24_008,21,female,2024-04-05_12h00.12.594,jersey_experiment_5_v0,2023.2.2,Win32,86.20689655,,,,,,,,,,,,,,,,,,,,,,,,,,,,,,,,,,,,,,,,,,,,,,,,,,,,,,,,,,,,,,,,,,,,818.977,904.6206,not really,right,23.305,,,,,,
,,,,,SPR24_008,21,female,2024-04-05_12h00.12.594,jersey_experiment_5_v0,2023.2.2,Win32,86.20689655,,,,,,,,,,,,,,,,,,,,,,,,,,,,,,,,,,,,,,,,,,,,,,,,,,,,,,,,,,,,,,,,,,,,,,,,,,904.6207,908.098,return,3.4698,