requirements.started,requirements.stopped,key_resp_3.keys,key_resp_3.rt,key_resp_3.duration,Subject ID,Age,Gender,date,expName,psychopyVersion,OS,frameRate,instructions1.started,instructions1.stopped,key_resp.keys,key_resp.rt,key_resp.duration,example.started,example.stopped,enter_2.keys,enter_2.rt,enter_2.duration,instructions2.started,instructions2.stopped,enter_3.keys,enter_3.rt,enter_3.duration,image.started,image.stopped,slider_2.started,slider_2.stopped,next.keys,next.rt,next.duration,slider.response,trial_block_1.thisRepN,trial_block_1.thisTrialN,trial_block_1.thisN,trial_block_1.thisIndex,trial_block_1.ran,Path,Width,Height,Index,Duration,trial_block_2.thisRepN,trial_block_2.thisTrialN,trial_block_2.thisN,trial_block_2.thisIndex,trial_block_2.ran,rest_break.started,rest_break.stopped,end_break.started,end_break.stopped,key_resp_5.keys,key_resp_5.rt,key_resp_5.duration,trial_block_3.thisRepN,trial_block_3.thisTrialN,trial_block_3.thisN,trial_block_3.thisIndex,trial_block_3.ran,trial_block_4.thisRepN,trial_block_4.thisTrialN,trial_block_4.thisN,trial_block_4.thisIndex,trial_block_4.ran,questions_intro.started,questions_intro.stopped,enter_12.keys,enter_12.rt,enter_12.duration,question2.started,question2.stopped,question_doingbest.response,question_doingbest.rt,enter_15.keys,enter_15.rt,enter_15.duration,pattern.started,pattern.stopped,pattern_2.text,enter_17.keys,enter_17.rt,enter_17.duration,thankyou.started,thankyou.stopped,enter_14.keys,enter_14.rt,enter_14.duration
0.0002,9.2414,return,9.2379,,SPR24_094,19,Female,2024-04-25_14h31.26.119,jersey_experiment_5_v0,2023.2.2,Win32,59.88023952,,,,,,,,,,,,,,,,,,,,,,,,,,,,,,,,,,,,,,,,,,,,,,,,,,,,,,,,,,,,,,,,,,,,,,,,,,,,,,
,,,,,SPR24_094,19,Female,2024-04-25_14h31.26.119,jersey_experiment_5_v0,2023.2.2,Win32,59.88023952,9.2415,18.9407,return,9.6828,,,,,,,,,,,,,,,,,,,,,,,,,,,,,,,,,,,,,,,,,,,,,,,,,,,,,,,,,,,,,,,,,,,,,,,,,,
,,,,,SPR24_094,19,Female,2024-04-25_14h31.26.119,jersey_experiment_5_v0,2023.2.2,Win32,59.88023952,,,,,,18.9408,23.1858,return,4.205,,,,,,,,,,,,,,,,,,,,,,,,,,,,,,,,,,,,,,,,,,,,,,,,,,,,,,,,,,,,,,,,,,,,,
,,,,,SPR24_094,19,Female,2024-04-25_14h31.26.119,jersey_experiment_5_v0,2023.2.2,Win32,59.88023952,,,,,,,,,,,23.1859,40.1014,return,16.9019,,,,,,,,,,,,,,,,,,,,,,,,,,,,,,,,,,,,,,,,,,,,,,,,,,,,,,,,,,,,,,,,
,,,,,SPR24_094,19,Female,2024-04-25_14h31.26.119,jersey_experiment_5_v0,2023.2.2,Win32,59.88023952,,,,,,,,,,,,,,,,40.1075,41.1511,41.1512,56.5166,return,8.1211,,50.390625,0,0,0,47,1,FBP-PT-17.png,0.4,1.2,48,0.25,,,,,,,,,,,,,,,,,,,,,,,,,,,,,,,,,,,,,,,,,,,,,
,,,,,SPR24_094,19,Female,2024-04-25_14h31.26.119,jersey_experiment_5_v0,2023.2.2,Win32,59.88023952,,,,,,,,,,,,,,,,56.5169,57.5665,57.5666,64.1327,return,2.8202,,24.609375,0,1,1,26,1,FBP-YG-19.png,0.37,1.2,27,0.25,,,,,,,,,,,,,,,,,,,,,,,,,,,,,,,,,,,,,,,,,,,,,
,,,,,SPR24_094,19,Female,2024-04-25_14h31.26.119,jersey_experiment_5_v0,2023.2.2,Win32,59.88023952,,,,,,,,,,,,,,,,64.1329,65.4326,65.4326,71.0656,return,1.8006,,49.609375,0,2,2,31,1,FBP-RB-17.png,0.37,1.2,32,0.5,,,,,,,,,,,,,,,,,,,,,,,,,,,,,,,,,,,,,,,,,,,,,
,,,,,SPR24_094,19,Female,2024-04-25_14h31.26.119,jersey_experiment_5_v0,2023.2.2,Win32,59.88023952,,,,,,,,,,,,,,,,71.0658,72.3654,72.3655,77.1318,return,2.3438,,75.26041667,0,3,3,3,1,FBP-OG-71.png,0.43,1.2,4,0.5,,,,,,,,,,,,,,,,,,,,,,,,,,,,,,,,,,,,,,,,,,,,,
,,,,,SPR24_094,19,Female,2024-04-25_14h31.26.119,jersey_experiment_5_v0,2023.2.2,Win32,59.88023952,,,,,,,,,,,,,,,,77.1319,78.1818,78.1818,82.7481,return,2.7952,,75.26041667,0,4,4,58,1,FBP-PT-19.png,0.43,1.2,59,0.25,,,,,,,,,,,,,,,,,,,,,,,,,,,,,,,,,,,,,,,,,,,,,
,,,,,SPR24_094,19,Female,2024-04-25_14h31.26.119,jersey_experiment_5_v0,2023.2.2,Win32,59.88023952,,,,,,,,,,,,,,,,82.7527,84.0481,84.0481,90.9143,return,2.2546,,85.67708333,0,5,5,4,1,FBP-OG-71.png,0.45,1.2,5,0.5,,,,,,,,,,,,,,,,,,,,,,,,,,,,,,,,,,,,,,,,,,,,,
,,,,,SPR24_094,19,Female,2024-04-25_14h31.26.119,jersey_experiment_5_v0,2023.2.2,Win32,59.88023952,,,,,,,,,,,,,,,,90.9145,91.9643,91.9643,98.697,return,1.0324,,84.63541667,0,6,6,18,1,FBP-YG-17.png,0.43,1.2,19,0.25,,,,,,,,,,,,,,,,,,,,,,,,,,,,,,,,,,,,,,,,,,,,,
,,,,,SPR24_094,19,Female,2024-04-25_14h31.26.119,jersey_experiment_5_v0,2023.2.2,Win32,59.88023952,,,,,,,,,,,,,,,,98.6972,99.747,99.7471,104.18,return,1.3192,,13.28125,0,7,7,20,1,FBP-YG-18.png,0.35,1.2,21,0.25,,,,,,,,,,,,,,,,,,,,,,,,,,,,,,,,,,,,,,,,,,,,,
,,,,,SPR24_094,19,Female,2024-04-25_14h31.26.119,jersey_experiment_5_v0,2023.2.2,Win32,59.88023952,,,,,,,,,,,,,,,,104.1802,105.23,105.2301,110.0964,return,0.9405,,62.23958333,0,8,8,28,1,FBP-YG-19.png,0.43,1.2,29,0.25,,,,,,,,,,,,,,,,,,,,,,,,,,,,,,,,,,,,,,,,,,,,,
,,,,,SPR24_094,19,Female,2024-04-25_14h31.26.119,jersey_experiment_5_v0,2023.2.2,Win32,59.88023952,,,,,,,,,,,,,,,,110.0966,111.3962,111.3962,114.946,return,1.1396,,24.73958333,0,9,9,10,1,FBP-OG-91.png,0.35,1.2,11,0.5,,,,,,,,,,,,,,,,,,,,,,,,,,,,,,,,,,,,,,,,,,,,,
,,,,,SPR24_094,19,Female,2024-04-25_14h31.26.119,jersey_experiment_5_v0,2023.2.2,Win32,59.88023952,,,,,,,,,,,,,,,,114.9462,116.2459,116.2459,119.6457,return,0.9103,,49.73958333,0,10,10,2,1,FBP-OG-71.png,0.4,1.2,3,0.5,,,,,,,,,,,,,,,,,,,,,,,,,,,,,,,,,,,,,,,,,,,,,
,,,,,SPR24_094,19,Female,2024-04-25_14h31.26.119,jersey_experiment_5_v0,2023.2.2,Win32,59.88023952,,,,,,,,,,,,,,,,119.646,120.6958,120.6958,124.7618,return,1.0188,,25,0,11,11,56,1,FBP-PT-19.png,0.37,1.2,57,0.25,,,,,,,,,,,,,,,,,,,,,,,,,,,,,,,,,,,,,,,,,,,,,
,,,,,SPR24_094,19,Female,2024-04-25_14h31.26.119,jersey_experiment_5_v0,2023.2.2,Win32,59.88023952,,,,,,,,,,,,,,,,124.762,125.8118,125.8118,131.2448,return,3.0437,,75,0,12,12,49,1,FBP-PT-17.png,0.45,1.2,50,0.25,,,,,,,,,,,,,,,,,,,,,,,,,,,,,,,,,,,,,,,,,,,,,
,,,,,SPR24_094,19,Female,2024-04-25_14h31.26.119,jersey_experiment_5_v0,2023.2.2,Win32,59.88023952,,,,,,,,,,,,,,,,131.2493,132.5448,132.5449,138.5945,return,3.9381,,25.390625,0,13,13,37,1,FBP-RB-18.png,0.4,1.2,38,0.5,,,,,,,,,,,,,,,,,,,,,,,,,,,,,,,,,,,,,,,,,,,,,
,,,,,SPR24_094,19,Female,2024-04-25_14h31.26.119,jersey_experiment_5_v0,2023.2.2,Win32,59.88023952,,,,,,,,,,,,,,,,138.5947,139.6442,139.6442,143.6275,return,1.0342,,81.51041667,0,14,14,54,1,FBP-PT-18.png,0.45,1.2,55,0.25,,,,,,,,,,,,,,,,,,,,,,,,,,,,,,,,,,,,,,,,,,,,,
,,,,,SPR24_094,19,Female,2024-04-25_14h31.26.119,jersey_experiment_5_v0,2023.2.2,Win32,59.88023952,,,,,,,,,,,,,,,,143.6278,144.9272,144.9273,148.6937,return,0.8368,,87.109375,0,15,15,9,1,FBP-OG-81.png,0.45,1.2,10,0.5,,,,,,,,,,,,,,,,,,,,,,,,,,,,,,,,,,,,,,,,,,,,,
,,,,,SPR24_094,19,Female,2024-04-25_14h31.26.119,jersey_experiment_5_v0,2023.2.2,Win32,59.88023952,,,,,,,,,,,,,,,,148.6939,149.7436,149.7436,152.9768,return,0.7565,,24.609375,0,16,16,25,1,FBP-YG-19.png,0.35,1.2,26,0.25,,,,,,,,,,,,,,,,,,,,,,,,,,,,,,,,,,,,,,,,,,,,,
,,,,,SPR24_094,19,Female,2024-04-25_14h31.26.119,jersey_experiment_5_v0,2023.2.2,Win32,59.88023952,,,,,,,,,,,,,,,,152.9771,154.0266,154.0266,158.2432,return,0.9382,,75.13020833,0,17,17,59,1,FBP-PT-19.png,0.45,1.2,60,0.25,,,,,,,,,,,,,,,,,,,,,,,,,,,,,,,,,,,,,,,,,,,,,
,,,,,SPR24_094,19,Female,2024-04-25_14h31.26.119,jersey_experiment_5_v0,2023.2.2,Win32,59.88023952,,,,,,,,,,,,,,,,158.2434,159.2929,159.2929,163.2761,return,1.1671,,25,0,18,18,46,1,FBP-PT-17.png,0.37,1.2,47,0.25,,,,,,,,,,,,,,,,,,,,,,,,,,,,,,,,,,,,,,,,,,,,,
,,,,,SPR24_094,19,Female,2024-04-25_14h31.26.119,jersey_experiment_5_v0,2023.2.2,Win32,59.88023952,,,,,,,,,,,,,,,,163.2763,164.326,164.3261,168.4925,return,0.8631,,49.08854167,0,19,19,27,1,FBP-YG-19.png,0.4,1.2,28,0.25,,,,,,,,,,,,,,,,,,,,,,,,,,,,,,,,,,,,,,,,,,,,,
,,,,,SPR24_094,19,Female,2024-04-25_14h31.26.119,jersey_experiment_5_v0,2023.2.2,Win32,59.88023952,,,,,,,,,,,,,,,,168.4927,169.7924,169.7924,173.2754,return,0.917,,8.072916667,0,20,20,40,1,FBP-RB-19.png,0.35,1.2,41,0.5,,,,,,,,,,,,,,,,,,,,,,,,,,,,,,,,,,,,,,,,,,,,,
,,,,,SPR24_094,19,Female,2024-04-25_14h31.26.119,jersey_experiment_5_v0,2023.2.2,Win32,59.88023952,,,,,,,,,,,,,,,,173.2756,174.3252,174.3253,177.0082,return,0.8394,,24.73958333,0,21,21,21,1,FBP-YG-18.png,0.37,1.2,22,0.25,,,,,,,,,,,,,,,,,,,,,,,,,,,,,,,,,,,,,,,,,,,,,
,,,,,SPR24_094,19,Female,2024-04-25_14h31.26.119,jersey_experiment_5_v0,2023.2.2,Win32,59.88023952,,,,,,,,,,,,,,,,177.0085,178.3083,178.3085,180.9583,return,0.8924,,86.06770833,0,22,22,44,1,FBP-RB-19.png,0.45,1.2,45,0.5,,,,,,,,,,,,,,,,,,,,,,,,,,,,,,,,,,,,,,,,,,,,,
,,,,,SPR24_094,19,Female,2024-04-25_14h31.26.119,jersey_experiment_5_v0,2023.2.2,Win32,59.88023952,,,,,,,,,,,,,,,,180.9584,182.2581,182.2581,184.9081,return,0.968,,93.75,0,23,23,34,1,FBP-RB-17.png,0.45,1.2,35,0.5,,,,,,,,,,,,,,,,,,,,,,,,,,,,,,,,,,,,,,,,,,,,,
,,,,,SPR24_094,19,Female,2024-04-25_14h31.26.119,jersey_experiment_5_v0,2023.2.2,Win32,59.88023952,,,,,,,,,,,,,,,,184.9083,185.9577,185.9578,189.9409,return,0.9695,,99.86979167,0,24,24,29,1,FBP-YG-19.png,0.45,1.2,30,0.25,,,,,,,,,,,,,,,,,,,,,,,,,,,,,,,,,,,,,,,,,,,,,
,,,,,SPR24_094,19,Female,2024-04-25_14h31.26.119,jersey_experiment_5_v0,2023.2.2,Win32,59.88023952,,,,,,,,,,,,,,,,189.9411,191.2407,191.2408,195.0073,return,0.9416,,85.15625,0,25,25,14,1,FBP-OG-91.png,0.45,1.2,15,0.5,,,,,,,,,,,,,,,,,,,,,,,,,,,,,,,,,,,,,,,,,,,,,
,,,,,SPR24_094,19,Female,2024-04-25_14h31.26.119,jersey_experiment_5_v0,2023.2.2,Win32,59.88023952,,,,,,,,,,,,,,,,195.0076,196.3073,196.3073,198.6403,return,0.7924,,86.84895833,0,26,26,38,1,FBP-RB-18.png,0.43,1.2,39,0.5,,,,,,,,,,,,,,,,,,,,,,,,,,,,,,,,,,,,,,,,,,,,,
,,,,,SPR24_094,19,Female,2024-04-25_14h31.26.119,jersey_experiment_5_v0,2023.2.2,Win32,59.88023952,,,,,,,,,,,,,,,,198.6405,199.6902,199.6902,202.6734,return,0.7392,,49.08854167,0,27,27,52,1,FBP-PT-18.png,0.4,1.2,53,0.25,,,,,,,,,,,,,,,,,,,,,,,,,,,,,,,,,,,,,,,,,,,,,
,,,,,SPR24_094,19,Female,2024-04-25_14h31.26.119,jersey_experiment_5_v0,2023.2.2,Win32,59.88023952,,,,,,,,,,,,,,,,202.6736,203.9732,203.9733,206.3899,return,0.7011,,50.13020833,0,28,28,8,1,FBP-OG-81.png,0.43,1.2,9,0.5,,,,,,,,,,,,,,,,,,,,,,,,,,,,,,,,,,,,,,,,,,,,,
,,,,,SPR24_094,19,Female,2024-04-25_14h31.26.119,jersey_experiment_5_v0,2023.2.2,Win32,59.88023952,,,,,,,,,,,,,,,,206.39,207.4396,207.4396,210.5397,return,0.9139,,62.36979167,0,29,29,23,1,FBP-YG-18.png,0.43,1.2,24,0.25,,,,,,,,,,,,,,,,,,,,,,,,,,,,,,,,,,,,,,,,,,,,,
,,,,,SPR24_094,19,Female,2024-04-25_14h31.26.119,jersey_experiment_5_v0,2023.2.2,Win32,59.88023952,,,,,,,,,,,,,,,,210.5399,211.5893,211.5893,214.1561,return,1.0796,,62.36979167,0,30,30,17,1,FBP-YG-17.png,0.4,1.2,18,0.25,,,,,,,,,,,,,,,,,,,,,,,,,,,,,,,,,,,,,,,,,,,,,
,,,,,SPR24_094,19,Female,2024-04-25_14h31.26.119,jersey_experiment_5_v0,2023.2.2,Win32,59.88023952,,,,,,,,,,,,,,,,214.1563,215.456,215.4561,219.7889,return,0.8936,,4.6875,0,31,31,30,1,FBP-RB-17.png,0.35,1.2,31,0.5,,,,,,,,,,,,,,,,,,,,,,,,,,,,,,,,,,,,,,,,,,,,,
,,,,,SPR24_094,19,Female,2024-04-25_14h31.26.119,jersey_experiment_5_v0,2023.2.2,Win32,59.88023952,,,,,,,,,,,,,,,,219.7891,221.0889,221.0889,223.2719,return,0.9841,,4.6875,0,32,32,11,1,FBP-OG-91.png,0.37,1.2,12,0.5,,,,,,,,,,,,,,,,,,,,,,,,,,,,,,,,,,,,,,,,,,,,,
,,,,,SPR24_094,19,Female,2024-04-25_14h31.26.119,jersey_experiment_5_v0,2023.2.2,Win32,59.88023952,,,,,,,,,,,,,,,,223.2721,224.5719,224.5719,227.1718,return,0.7889,,3.645833333,0,33,33,6,1,FBP-OG-81.png,0.37,1.2,7,0.5,,,,,,,,,,,,,,,,,,,,,,,,,,,,,,,,,,,,,,,,,,,,,
,,,,,SPR24_094,19,Female,2024-04-25_14h31.26.119,jersey_experiment_5_v0,2023.2.2,Win32,59.88023952,,,,,,,,,,,,,,,,227.1719,228.4718,228.4718,231.3713,return,0.7676,,3.645833333,0,34,34,12,1,FBP-OG-91.png,0.4,1.2,13,0.5,,,,,,,,,,,,,,,,,,,,,,,,,,,,,,,,,,,,,,,,,,,,,
,,,,,SPR24_094,19,Female,2024-04-25_14h31.26.119,jersey_experiment_5_v0,2023.2.2,Win32,59.88023952,,,,,,,,,,,,,,,,231.3715,232.6714,232.6714,238.3876,return,0.7198,,34.11458333,0,35,35,32,1,FBP-RB-17.png,0.4,1.2,33,0.5,,,,,,,,,,,,,,,,,,,,,,,,,,,,,,,,,,,,,,,,,,,,,
,,,,,SPR24_094,19,Female,2024-04-25_14h31.26.119,jersey_experiment_5_v0,2023.2.2,Win32,59.88023952,,,,,,,,,,,,,,,,238.3879,239.6876,239.6877,244.0705,return,1.2338,,64.32291667,0,36,36,33,1,FBP-RB-17.png,0.43,1.2,34,0.5,,,,,,,,,,,,,,,,,,,,,,,,,,,,,,,,,,,,,,,,,,,,,
,,,,,SPR24_094,19,Female,2024-04-25_14h31.26.119,jersey_experiment_5_v0,2023.2.2,Win32,59.88023952,,,,,,,,,,,,,,,,244.0707,245.1206,245.1206,248.3703,return,0.8879,,24.86979167,0,37,37,51,1,FBP-PT-18.png,0.37,1.2,52,0.25,,,,,,,,,,,,,,,,,,,,,,,,,,,,,,,,,,,,,,,,,,,,,
,,,,,SPR24_094,19,Female,2024-04-25_14h31.26.119,jersey_experiment_5_v0,2023.2.2,Win32,59.88023952,,,,,,,,,,,,,,,,248.3705,249.6703,249.6703,252.9366,return,0.9332,,74.86979167,0,38,38,43,1,FBP-RB-19.png,0.43,1.2,44,0.5,,,,,,,,,,,,,,,,,,,,,,,,,,,,,,,,,,,,,,,,,,,,,
,,,,,SPR24_094,19,Female,2024-04-25_14h31.26.119,jersey_experiment_5_v0,2023.2.2,Win32,59.88023952,,,,,,,,,,,,,,,,252.9368,253.9868,253.9868,260.2028,return,3.883,,20.3125,0,39,39,55,1,FBP-PT-19.png,0.35,1.2,56,0.25,,,,,,,,,,,,,,,,,,,,,,,,,,,,,,,,,,,,,,,,,,,,,
,,,,,SPR24_094,19,Female,2024-04-25_14h31.26.119,jersey_experiment_5_v0,2023.2.2,Win32,59.88023952,,,,,,,,,,,,,,,,260.2031,261.5028,261.5029,263.9193,return,0.8084,,7.8125,0,40,40,35,1,FBP-RB-18.png,0.35,1.2,36,0.5,,,,,,,,,,,,,,,,,,,,,,,,,,,,,,,,,,,,,,,,,,,,,
,,,,,SPR24_094,19,Female,2024-04-25_14h31.26.119,jersey_experiment_5_v0,2023.2.2,Win32,59.88023952,,,,,,,,,,,,,,,,263.9194,264.9692,264.9693,268.5691,return,0.7988,,58.85416667,0,41,41,53,1,FBP-PT-18.png,0.43,1.2,54,0.25,,,,,,,,,,,,,,,,,,,,,,,,,,,,,,,,,,,,,,,,,,,,,
,,,,,SPR24_094,19,Female,2024-04-25_14h31.26.119,jersey_experiment_5_v0,2023.2.2,Win32,59.88023952,,,,,,,,,,,,,,,,268.5693,269.6189,269.619,272.6688,return,0.7436,,24.73958333,0,42,42,50,1,FBP-PT-18.png,0.35,1.2,51,0.25,,,,,,,,,,,,,,,,,,,,,,,,,,,,,,,,,,,,,,,,,,,,,
,,,,,SPR24_094,19,Female,2024-04-25_14h31.26.119,jersey_experiment_5_v0,2023.2.2,Win32,59.88023952,,,,,,,,,,,,,,,,272.6689,273.7185,273.7185,276.7517,return,1.0233,,49.86979167,0,43,43,22,1,FBP-YG-18.png,0.4,1.2,23,0.25,,,,,,,,,,,,,,,,,,,,,,,,,,,,,,,,,,,,,,,,,,,,,
,,,,,SPR24_094,19,Female,2024-04-25_14h31.26.119,jersey_experiment_5_v0,2023.2.2,Win32,59.88023952,,,,,,,,,,,,,,,,276.7519,278.0517,278.0517,282.2347,return,0.8668,,31.38020833,0,44,44,41,1,FBP-RB-19.png,0.37,1.2,42,0.5,,,,,,,,,,,,,,,,,,,,,,,,,,,,,,,,,,,,,,,,,,,,,
,,,,,SPR24_094,19,Female,2024-04-25_14h31.26.119,jersey_experiment_5_v0,2023.2.2,Win32,59.88023952,,,,,,,,,,,,,,,,282.2349,283.2845,283.2846,285.6845,return,0.8352,,31.38020833,0,45,45,16,1,FBP-YG-17.png,0.37,1.2,17,0.25,,,,,,,,,,,,,,,,,,,,,,,,,,,,,,,,,,,,,,,,,,,,,
,,,,,SPR24_094,19,Female,2024-04-25_14h31.26.119,jersey_experiment_5_v0,2023.2.2,Win32,59.88023952,,,,,,,,,,,,,,,,285.6846,286.7343,286.7344,291.8674,return,2.1822,,60.02604167,0,46,46,48,1,FBP-PT-17.png,0.43,1.2,49,0.25,,,,,,,,,,,,,,,,,,,,,,,,,,,,,,,,,,,,,,,,,,,,,
,,,,,SPR24_094,19,Female,2024-04-25_14h31.26.119,jersey_experiment_5_v0,2023.2.2,Win32,59.88023952,,,,,,,,,,,,,,,,291.8676,292.9172,292.9172,295.7339,return,1.3005,,60.28645833,0,47,47,57,1,FBP-PT-19.png,0.4,1.2,58,0.25,,,,,,,,,,,,,,,,,,,,,,,,,,,,,,,,,,,,,,,,,,,,,
,,,,,SPR24_094,19,Female,2024-04-25_14h31.26.119,jersey_experiment_5_v0,2023.2.2,Win32,59.88023952,,,,,,,,,,,,,,,,295.734,297.0337,297.0337,299.5335,return,0.6762,,74.34895833,0,48,48,39,1,FBP-RB-18.png,0.45,1.2,40,0.5,,,,,,,,,,,,,,,,,,,,,,,,,,,,,,,,,,,,,,,,,,,,,
,,,,,SPR24_094,19,Female,2024-04-25_14h31.26.119,jersey_experiment_5_v0,2023.2.2,Win32,59.88023952,,,,,,,,,,,,,,,,299.5337,300.5835,300.5835,304.1166,return,0.8529,,24.47916667,0,49,49,45,1,FBP-PT-17.png,0.35,1.2,46,0.25,,,,,,,,,,,,,,,,,,,,,,,,,,,,,,,,,,,,,,,,,,,,,
,,,,,SPR24_094,19,Female,2024-04-25_14h31.26.119,jersey_experiment_5_v0,2023.2.2,Win32,59.88023952,,,,,,,,,,,,,,,,304.1168,305.4165,305.4165,309.933,return,0.9103,,37.5,0,50,50,7,1,FBP-OG-81.png,0.4,1.2,8,0.5,,,,,,,,,,,,,,,,,,,,,,,,,,,,,,,,,,,,,,,,,,,,,
,,,,,SPR24_094,19,Female,2024-04-25_14h31.26.119,jersey_experiment_5_v0,2023.2.2,Win32,59.88023952,,,,,,,,,,,,,,,,309.9332,311.2328,311.2328,313.5992,return,0.8084,,37.5,0,51,51,42,1,FBP-RB-19.png,0.4,1.2,43,0.5,,,,,,,,,,,,,,,,,,,,,,,,,,,,,,,,,,,,,,,,,,,,,
,,,,,SPR24_094,19,Female,2024-04-25_14h31.26.119,jersey_experiment_5_v0,2023.2.2,Win32,59.88023952,,,,,,,,,,,,,,,,313.5995,314.6491,314.6491,317.9322,return,0.7443,,62.5,0,52,52,19,1,FBP-YG-17.png,0.45,1.2,20,0.25,,,,,,,,,,,,,,,,,,,,,,,,,,,,,,,,,,,,,,,,,,,,,
,,,,,SPR24_094,19,Female,2024-04-25_14h31.26.119,jersey_experiment_5_v0,2023.2.2,Win32,59.88023952,,,,,,,,,,,,,,,,317.9324,318.9822,318.9823,321.3653,return,0.7187,,74.73958333,0,53,53,24,1,FBP-YG-18.png,0.45,1.2,25,0.25,,,,,,,,,,,,,,,,,,,,,,,,,,,,,,,,,,,,,,,,,,,,,
,,,,,SPR24_094,19,Female,2024-04-25_14h31.26.119,jersey_experiment_5_v0,2023.2.2,Win32,59.88023952,,,,,,,,,,,,,,,,321.3656,322.6652,322.6652,325.3987,return,0.6843,,25.52083333,0,54,54,36,1,FBP-RB-18.png,0.37,1.2,37,0.5,,,,,,,,,,,,,,,,,,,,,,,,,,,,,,,,,,,,,,,,,,,,,
,,,,,SPR24_094,19,Female,2024-04-25_14h31.26.119,jersey_experiment_5_v0,2023.2.2,Win32,59.88023952,,,,,,,,,,,,,,,,325.3988,326.6983,326.6984,329.3317,return,0.8225,,2.864583333,0,55,55,5,1,FBP-OG-81.png,0.35,1.2,6,0.5,,,,,,,,,,,,,,,,,,,,,,,,,,,,,,,,,,,,,,,,,,,,,
,,,,,SPR24_094,19,Female,2024-04-25_14h31.26.119,jersey_experiment_5_v0,2023.2.2,Win32,59.88023952,,,,,,,,,,,,,,,,329.3321,330.3817,330.3819,333.2814,return,0.689,,2.083333333,0,56,56,15,1,FBP-YG-17.png,0.35,1.2,16,0.25,,,,,,,,,,,,,,,,,,,,,,,,,,,,,,,,,,,,,,,,,,,,,
,,,,,SPR24_094,19,Female,2024-04-25_14h31.26.119,jersey_experiment_5_v0,2023.2.2,Win32,59.88023952,,,,,,,,,,,,,,,,333.2816,334.5811,334.5811,337.1643,return,0.7938,,1.5625,0,57,57,1,1,FBP-OG-71.png,0.37,1.2,2,0.5,,,,,,,,,,,,,,,,,,,,,,,,,,,,,,,,,,,,,,,,,,,,,
,,,,,SPR24_094,19,Female,2024-04-25_14h31.26.119,jersey_experiment_5_v0,2023.2.2,Win32,59.88023952,,,,,,,,,,,,,,,,337.1645,338.4643,338.4643,340.5808,return,0.8184,,50,0,58,58,13,1,FBP-OG-91.png,0.43,1.2,14,0.5,,,,,,,,,,,,,,,,,,,,,,,,,,,,,,,,,,,,,,,,,,,,,
,,,,,SPR24_094,19,Female,2024-04-25_14h31.26.119,jersey_experiment_5_v0,2023.2.2,Win32,59.88023952,,,,,,,,,,,,,,,,340.581,341.8805,341.8807,345.4303,return,0.8172,,11.45833333,0,59,59,0,1,FBP-OG-71.png,0.35,1.2,1,0.5,,,,,,,,,,,,,,,,,,,,,,,,,,,,,,,,,,,,,,,,,,,,,
,,,,,SPR24_094,19,Female,2024-04-25_14h31.26.119,jersey_experiment_5_v0,2023.2.2,Win32,59.88023952,,,,,,,,,,,,,,,,345.4323,346.4804,346.4804,349.9634,return,1.4275,,49.86979167,,,,,,FBP-PT-91.png,0.43,1.2,59,0.25,0,0,0,58,1,,,,,,,,,,,,,,,,,,,,,,,,,,,,,,,,,,,,,,,,
,,,,,SPR24_094,19,Female,2024-04-25_14h31.26.119,jersey_experiment_5_v0,2023.2.2,Win32,59.88023952,,,,,,,,,,,,,,,,349.9637,351.0134,351.0134,360.9461,return,6.0208,,37.36979167,,,,,,FBP-YG-91.png,0.4,1.2,28,0.25,0,1,1,27,1,,,,,,,,,,,,,,,,,,,,,,,,,,,,,,,,,,,,,,,,
,,,,,SPR24_094,19,Female,2024-04-25_14h31.26.119,jersey_experiment_5_v0,2023.2.2,Win32,59.88023952,,,,,,,,,,,,,,,,360.9507,361.9959,361.996,365.2792,return,0.6755,,24.47916667,,,,,,FBP-PT-81.png,0.37,1.2,52,0.25,0,2,2,51,1,,,,,,,,,,,,,,,,,,,,,,,,,,,,,,,,,,,,,,,,
,,,,,SPR24_094,19,Female,2024-04-25_14h31.26.119,jersey_experiment_5_v0,2023.2.2,Win32,59.88023952,,,,,,,,,,,,,,,,365.2793,366.329,366.329,368.7457,return,0.7689,,2.083333333,,,,,,FBP-PT-71.png,0.35,1.2,46,0.25,0,3,3,45,1,,,,,,,,,,,,,,,,,,,,,,,,,,,,,,,,,,,,,,,,
,,,,,SPR24_094,19,Female,2024-04-25_14h31.26.119,jersey_experiment_5_v0,2023.2.2,Win32,59.88023952,,,,,,,,,,,,,,,,368.7459,370.0454,370.0454,372.8787,return,0.7603,,74.21875,,,,,,FBP-RB-81.png,0.45,1.2,40,0.5,0,4,4,39,1,,,,,,,,,,,,,,,,,,,,,,,,,,,,,,,,,,,,,,,,
,,,,,SPR24_094,19,Female,2024-04-25_14h31.26.119,jersey_experiment_5_v0,2023.2.2,Win32,59.88023952,,,,,,,,,,,,,,,,372.879,373.9283,373.9283,392.0939,return,2.1425,,0,,,,,,FBP-YG-91.png,0.35,1.2,26,0.25,0,5,5,25,1,,,,,,,,,,,,,,,,,,,,,,,,,,,,,,,,,,,,,,,,
,,,,,SPR24_094,19,Female,2024-04-25_14h31.26.119,jersey_experiment_5_v0,2023.2.2,Win32,59.88023952,,,,,,,,,,,,,,,,392.0942,393.3939,393.3939,398.2601,return,0.8184,,62.63020833,,,,,,FBP-RB-91.png,0.45,1.2,45,0.5,0,6,6,44,1,,,,,,,,,,,,,,,,,,,,,,,,,,,,,,,,,,,,,,,,
,,,,,SPR24_094,19,Female,2024-04-25_14h31.26.119,jersey_experiment_5_v0,2023.2.2,Win32,59.88023952,,,,,,,,,,,,,,,,398.2603,399.5601,399.5602,402.8767,return,0.9431,,7.291666667,,,,,,FBP-RB-81.png,0.35,1.2,36,0.5,0,7,7,35,1,,,,,,,,,,,,,,,,,,,,,,,,,,,,,,,,,,,,,,,,
,,,,,SPR24_094,19,Female,2024-04-25_14h31.26.119,jersey_experiment_5_v0,2023.2.2,Win32,59.88023952,,,,,,,,,,,,,,,,402.8769,403.9266,403.9266,407.3597,return,0.8908,,62.23958333,,,,,,FBP-PT-71.png,0.45,1.2,50,0.25,0,8,8,49,1,,,,,,,,,,,,,,,,,,,,,,,,,,,,,,,,,,,,,,,,
,,,,,SPR24_094,19,Female,2024-04-25_14h31.26.119,jersey_experiment_5_v0,2023.2.2,Win32,59.88023952,,,,,,,,,,,,,,,,407.36,408.6594,408.6594,411.426,return,1.0388,,74.34895833,,,,,,FBP-OG-19.png,0.43,1.2,14,0.5,0,9,9,13,1,,,,,,,,,,,,,,,,,,,,,,,,,,,,,,,,,,,,,,,,
,,,,,SPR24_094,19,Female,2024-04-25_14h31.26.119,jersey_experiment_5_v0,2023.2.2,Win32,59.88023952,,,,,,,,,,,,,,,,411.4262,412.726,412.726,415.8256,return,0.9044,,5.989583333,,,,,,FBP-RB-71.png,0.35,1.2,31,0.5,0,10,10,30,1,,,,,,,,,,,,,,,,,,,,,,,,,,,,,,,,,,,,,,,,
,,,,,SPR24_094,19,Female,2024-04-25_14h31.26.119,jersey_experiment_5_v0,2023.2.2,Win32,59.88023952,,,,,,,,,,,,,,,,415.8259,417.1257,417.1257,420.9254,return,0.6924,,67.70833333,,,,,,FBP-OG-18.png,0.43,1.2,9,0.5,0,11,11,8,1,,,,,,,,,,,,,,,,,,,,,,,,,,,,,,,,,,,,,,,,
,,,,,SPR24_094,19,Female,2024-04-25_14h31.26.119,jersey_experiment_5_v0,2023.2.2,Win32,59.88023952,,,,,,,,,,,,,,,,420.9258,421.9754,421.9755,425.575,return,1.75,,74.34895833,,,,,,FBP-YG-71.png,0.43,1.2,19,0.25,0,12,12,18,1,,,,,,,,,,,,,,,,,,,,,,,,,,,,,,,,,,,,,,,,
,,,,,SPR24_094,19,Female,2024-04-25_14h31.26.119,jersey_experiment_5_v0,2023.2.2,Win32,59.88023952,,,,,,,,,,,,,,,,425.5753,426.8749,426.8749,429.1414,return,0.7511,,49.47916667,,,,,,FBP-OG-19.png,0.4,1.2,13,0.5,0,13,13,12,1,,,,,,,,,,,,,,,,,,,,,,,,,,,,,,,,,,,,,,,,
,,,,,SPR24_094,19,Female,2024-04-25_14h31.26.119,jersey_experiment_5_v0,2023.2.2,Win32,59.88023952,,,,,,,,,,,,,,,,429.1416,430.1912,430.1913,432.7911,return,0.7337,,74.86979167,,,,,,FBP-YG-91.png,0.43,1.2,29,0.25,0,14,14,28,1,,,,,,,,,,,,,,,,,,,,,,,,,,,,,,,,,,,,,,,,
,,,,,SPR24_094,19,Female,2024-04-25_14h31.26.119,jersey_experiment_5_v0,2023.2.2,Win32,59.88023952,,,,,,,,,,,,,,,,432.7913,433.8411,433.8411,435.9243,return,0.7695,,74.86979167,,,,,,FBP-PT-91.png,0.45,1.2,60,0.25,0,15,15,59,1,,,,,,,,,,,,,,,,,,,,,,,,,,,,,,,,,,,,,,,,
,,,,,SPR24_094,19,Female,2024-04-25_14h31.26.119,jersey_experiment_5_v0,2023.2.2,Win32,59.88023952,,,,,,,,,,,,,,,,435.9245,437.2243,437.2244,440.5906,return,0.6934,,36.328125,,,,,,FBP-RB-91.png,0.37,1.2,42,0.5,0,16,16,41,1,,,,,,,,,,,,,,,,,,,,,,,,,,,,,,,,,,,,,,,,
,,,,,SPR24_094,19,Female,2024-04-25_14h31.26.119,jersey_experiment_5_v0,2023.2.2,Win32,59.88023952,,,,,,,,,,,,,,,,440.5908,441.8906,441.8907,443.9905,return,0.6842,,25.26041667,,,,,,FBP-OG-17.png,0.35,1.2,1,0.5,0,17,17,0,1,,,,,,,,,,,,,,,,,,,,,,,,,,,,,,,,,,,,,,,,
,,,,,SPR24_094,19,Female,2024-04-25_14h31.26.119,jersey_experiment_5_v0,2023.2.2,Win32,59.88023952,,,,,,,,,,,,,,,,443.9907,445.2903,445.2904,447.9402,return,0.8523,,74.73958333,,,,,,FBP-RB-81.png,0.43,1.2,39,0.5,0,18,18,38,1,,,,,,,,,,,,,,,,,,,,,,,,,,,,,,,,,,,,,,,,
,,,,,SPR24_094,19,Female,2024-04-25_14h31.26.119,jersey_experiment_5_v0,2023.2.2,Win32,59.88023952,,,,,,,,,,,,,,,,447.9405,449.2401,449.2401,451.7233,return,0.6448,,24.73958333,,,,,,FBP-RB-91.png,0.35,1.2,41,0.5,0,19,19,40,1,,,,,,,,,,,,,,,,,,,,,,,,,,,,,,,,,,,,,,,,
,,,,,SPR24_094,19,Female,2024-04-25_14h31.26.119,jersey_experiment_5_v0,2023.2.2,Win32,59.88023952,,,,,,,,,,,,,,,,451.7235,453.0233,453.0234,455.4562,return,0.6907,,74.21875,,,,,,FBP-OG-19.png,0.45,1.2,15,0.5,0,20,20,14,1,,,,,,,,,,,,,,,,,,,,,,,,,,,,,,,,,,,,,,,,
,,,,,SPR24_094,19,Female,2024-04-25_14h31.26.119,jersey_experiment_5_v0,2023.2.2,Win32,59.88023952,,,,,,,,,,,,,,,,455.4565,456.7563,456.7563,461.1894,return,2.8017,,30.72916667,,,,,,FBP-OG-17.png,0.37,1.2,2,0.5,0,21,21,1,1,,,,,,,,,,,,,,,,,,,,,,,,,,,,,,,,,,,,,,,,
,,,,,SPR24_094,19,Female,2024-04-25_14h31.26.119,jersey_experiment_5_v0,2023.2.2,Win32,59.88023952,,,,,,,,,,,,,,,,461.1896,462.2391,462.2392,466.9721,return,3.1289,,37.5,,,,,,FBP-PT-71.png,0.4,1.2,48,0.25,0,22,22,47,1,,,,,,,,,,,,,,,,,,,,,,,,,,,,,,,,,,,,,,,,
,,,,,SPR24_094,19,Female,2024-04-25_14h31.26.119,jersey_experiment_5_v0,2023.2.2,Win32,59.88023952,,,,,,,,,,,,,,,,466.9724,468.022,468.0221,473.3717,return,2.063,,39.71354167,,,,,,FBP-YG-71.png,0.37,1.2,17,0.25,0,23,23,16,1,,,,,,,,,,,,,,,,,,,,,,,,,,,,,,,,,,,,,,,,
,,,,,SPR24_094,19,Female,2024-04-25_14h31.26.119,jersey_experiment_5_v0,2023.2.2,Win32,59.88023952,,,,,,,,,,,,,,,,473.372,474.4216,474.4217,477.1383,return,0.7718,,24.73958333,,,,,,FBP-YG-81.png,0.35,1.2,21,0.25,0,24,24,20,1,,,,,,,,,,,,,,,,,,,,,,,,,,,,,,,,,,,,,,,,
,,,,,SPR24_094,19,Female,2024-04-25_14h31.26.119,jersey_experiment_5_v0,2023.2.2,Win32,59.88023952,,,,,,,,,,,,,,,,477.1385,478.188,478.188,486.7209,return,2.9219,,0.390625,,,,,,FBP-PT-91.png,0.35,1.2,56,0.25,0,25,25,55,1,,,,,,,,,,,,,,,,,,,,,,,,,,,,,,,,,,,,,,,,
,,,,,SPR24_094,19,Female,2024-04-25_14h31.26.119,jersey_experiment_5_v0,2023.2.2,Win32,59.88023952,,,,,,,,,,,,,,,,486.7212,488.0209,488.0209,498.7202,return,1.9416,,0,,,,,,FBP-RB-71.png,0.37,1.2,32,0.5,0,26,26,31,1,,,,,,,,,,,,,,,,,,,,,,,,,,,,,,,,,,,,,,,,
,,,,,SPR24_094,19,Female,2024-04-25_14h31.26.119,jersey_experiment_5_v0,2023.2.2,Win32,59.88023952,,,,,,,,,,,,,,,,498.7203,499.7701,499.7701,503.7198,return,0.7172,,24.73958333,,,,,,FBP-YG-81.png,0.4,1.2,23,0.25,0,27,27,22,1,,,,,,,,,,,,,,,,,,,,,,,,,,,,,,,,,,,,,,,,
,,,,,SPR24_094,19,Female,2024-04-25_14h31.26.119,jersey_experiment_5_v0,2023.2.2,Win32,59.88023952,,,,,,,,,,,,,,,,503.72,505.0197,505.0197,510.6193,return,2.5172,,36.84895833,,,,,,FBP-OG-17.png,0.43,1.2,4,0.5,0,28,28,3,1,,,,,,,,,,,,,,,,,,,,,,,,,,,,,,,,,,,,,,,,
,,,,,SPR24_094,19,Female,2024-04-25_14h31.26.119,jersey_experiment_5_v0,2023.2.2,Win32,59.88023952,,,,,,,,,,,,,,,,510.6196,511.9191,511.9191,516.2189,return,2.3124,,67.44791667,,,,,,FBP-OG-17.png,0.45,1.2,5,0.5,0,29,29,4,1,,,,,,,,,,,,,,,,,,,,,,,,,,,,,,,,,,,,,,,,
,,,,,SPR24_094,19,Female,2024-04-25_14h31.26.119,jersey_experiment_5_v0,2023.2.2,Win32,59.88023952,,,,,,,,,,,,,,,,516.2191,517.5188,517.5188,519.6354,return,0.6861,,49.08854167,,,,,,FBP-OG-17.png,0.4,1.2,3,0.5,0,30,30,2,1,,,,,,,,,,,,,,,,,,,,,,,,,,,,,,,,,,,,,,,,
,,,,,SPR24_094,19,Female,2024-04-25_14h31.26.119,jersey_experiment_5_v0,2023.2.2,Win32,59.88023952,,,,,,,,,,,,,,,,519.6357,520.6854,520.6855,523.1018,return,0.66,,74.86979167,,,,,,FBP-PT-71.png,0.43,1.2,49,0.25,0,31,31,48,1,,,,,,,,,,,,,,,,,,,,,,,,,,,,,,,,,,,,,,,,
,,,,,SPR24_094,19,Female,2024-04-25_14h31.26.119,jersey_experiment_5_v0,2023.2.2,Win32,59.88023952,,,,,,,,,,,,,,,,523.102,524.4017,524.4018,526.1682,return,0.7327,,74.86979167,,,,,,FBP-OG-18.png,0.45,1.2,10,0.5,0,32,32,9,1,,,,,,,,,,,,,,,,,,,,,,,,,,,,,,,,,,,,,,,,
,,,,,SPR24_094,19,Female,2024-04-25_14h31.26.119,jersey_experiment_5_v0,2023.2.2,Win32,59.88023952,,,,,,,,,,,,,,,,526.1684,527.4682,527.4683,529.968,return,0.7922,,50.13020833,,,,,,FBP-RB-91.png,0.4,1.2,43,0.5,0,33,33,42,1,,,,,,,,,,,,,,,,,,,,,,,,,,,,,,,,,,,,,,,,
,,,,,SPR24_094,19,Female,2024-04-25_14h31.26.119,jersey_experiment_5_v0,2023.2.2,Win32,59.88023952,,,,,,,,,,,,,,,,529.9682,531.0179,531.018,533.7343,return,0.7341,,75.13020833,,,,,,FBP-YG-91.png,0.45,1.2,30,0.25,0,34,34,29,1,,,,,,,,,,,,,,,,,,,,,,,,,,,,,,,,,,,,,,,,
,,,,,SPR24_094,19,Female,2024-04-25_14h31.26.119,jersey_experiment_5_v0,2023.2.2,Win32,59.88023952,,,,,,,,,,,,,,,,533.7346,534.7843,534.7843,538.2341,return,0.7038,,88.02083333,,,,,,FBP-YG-81.png,0.45,1.2,25,0.25,0,35,35,24,1,,,,,,,,,,,,,,,,,,,,,,,,,,,,,,,,,,,,,,,,
,,,,,SPR24_094,19,Female,2024-04-25_14h31.26.119,jersey_experiment_5_v0,2023.2.2,Win32,59.88023952,,,,,,,,,,,,,,,,538.2344,539.284,539.284,544.1171,return,0.7335,,32.68229167,,,,,,FBP-YG-91.png,0.37,1.2,27,0.25,0,36,36,26,1,,,,,,,,,,,,,,,,,,,,,,,,,,,,,,,,,,,,,,,,
,,,,,SPR24_094,19,Female,2024-04-25_14h31.26.119,jersey_experiment_5_v0,2023.2.2,Win32,59.88023952,,,,,,,,,,,,,,,,544.1173,545.1669,545.167,547.8668,return,0.7001,,65.625,,,,,,FBP-PT-81.png,0.45,1.2,55,0.25,0,37,37,54,1,,,,,,,,,,,,,,,,,,,,,,,,,,,,,,,,,,,,,,,,
,,,,,SPR24_094,19,Female,2024-04-25_14h31.26.119,jersey_experiment_5_v0,2023.2.2,Win32,59.88023952,,,,,,,,,,,,,,,,547.867,549.1665,549.1666,552.483,return,0.9706,,38.54166667,,,,,,FBP-OG-18.png,0.4,1.2,8,0.5,0,38,38,7,1,,,,,,,,,,,,,,,,,,,,,,,,,,,,,,,,,,,,,,,,
,,,,,SPR24_094,19,Female,2024-04-25_14h31.26.119,jersey_experiment_5_v0,2023.2.2,Win32,59.88023952,,,,,,,,,,,,,,,,552.4833,553.783,553.783,556.8828,return,0.8541,,49.47916667,,,,,,FBP-RB-81.png,0.4,1.2,38,0.5,0,39,39,37,1,,,,,,,,,,,,,,,,,,,,,,,,,,,,,,,,,,,,,,,,
,,,,,SPR24_094,19,Female,2024-04-25_14h31.26.119,jersey_experiment_5_v0,2023.2.2,Win32,59.88023952,,,,,,,,,,,,,,,,556.883,557.9327,557.9328,563.6657,return,0.6737,,36.97916667,,,,,,FBP-YG-81.png,0.37,1.2,22,0.25,0,40,40,21,1,,,,,,,,,,,,,,,,,,,,,,,,,,,,,,,,,,,,,,,,
,,,,,SPR24_094,19,Female,2024-04-25_14h31.26.119,jersey_experiment_5_v0,2023.2.2,Win32,59.88023952,,,,,,,,,,,,,,,,563.666,564.7156,564.7156,567.0488,return,0.6026,,35.28645833,,,,,,FBP-PT-81.png,0.4,1.2,53,0.25,0,41,41,52,1,,,,,,,,,,,,,,,,,,,,,,,,,,,,,,,,,,,,,,,,
,,,,,SPR24_094,19,Female,2024-04-25_14h31.26.119,jersey_experiment_5_v0,2023.2.2,Win32,59.88023952,,,,,,,,,,,,,,,,567.0491,568.3486,568.3487,571.8817,return,1.7683,,63.28125,,,,,,FBP-RB-71.png,0.45,1.2,35,0.5,0,42,42,34,1,,,,,,,,,,,,,,,,,,,,,,,,,,,,,,,,,,,,,,,,
,,,,,SPR24_094,19,Female,2024-04-25_14h31.26.119,jersey_experiment_5_v0,2023.2.2,Win32,59.88023952,,,,,,,,,,,,,,,,571.8819,573.1818,573.1819,575.7316,return,0.6365,,24.73958333,,,,,,FBP-OG-19.png,0.35,1.2,11,0.5,0,43,43,10,1,,,,,,,,,,,,,,,,,,,,,,,,,,,,,,,,,,,,,,,,
,,,,,SPR24_094,19,Female,2024-04-25_14h31.26.119,jersey_experiment_5_v0,2023.2.2,Win32,59.88023952,,,,,,,,,,,,,,,,575.7317,576.7814,576.7815,579.6146,return,0.6587,,2.864583333,,,,,,FBP-YG-71.png,0.35,1.2,16,0.25,0,44,44,15,1,,,,,,,,,,,,,,,,,,,,,,,,,,,,,,,,,,,,,,,,
,,,,,SPR24_094,19,Female,2024-04-25_14h31.26.119,jersey_experiment_5_v0,2023.2.2,Win32,59.88023952,,,,,,,,,,,,,,,,579.6148,580.6646,580.6646,584.9309,return,1.3696,,69.53125,,,,,,FBP-YG-71.png,0.45,1.2,20,0.25,0,45,45,19,1,,,,,,,,,,,,,,,,,,,,,,,,,,,,,,,,,,,,,,,,
,,,,,SPR24_094,19,Female,2024-04-25_14h31.26.119,jersey_experiment_5_v0,2023.2.2,Win32,59.88023952,,,,,,,,,,,,,,,,584.931,585.9809,585.981,588.7473,return,0.7115,,24.47916667,,,,,,FBP-PT-91.png,0.37,1.2,57,0.25,0,46,46,56,1,,,,,,,,,,,,,,,,,,,,,,,,,,,,,,,,,,,,,,,,
,,,,,SPR24_094,19,Female,2024-04-25_14h31.26.119,jersey_experiment_5_v0,2023.2.2,Win32,59.88023952,,,,,,,,,,,,,,,,588.7476,590.0472,590.0473,592.5804,return,0.6689,,15.625,,,,,,FBP-OG-18.png,0.37,1.2,7,0.5,0,47,47,6,1,,,,,,,,,,,,,,,,,,,,,,,,,,,,,,,,,,,,,,,,
,,,,,SPR24_094,19,Female,2024-04-25_14h31.26.119,jersey_experiment_5_v0,2023.2.2,Win32,59.88023952,,,,,,,,,,,,,,,,592.5805,593.6306,593.6307,596.0469,return,0.6915,,24.609375,,,,,,FBP-PT-91.png,0.4,1.2,58,0.25,0,48,48,57,1,,,,,,,,,,,,,,,,,,,,,,,,,,,,,,,,,,,,,,,,
,,,,,SPR24_094,19,Female,2024-04-25_14h31.26.119,jersey_experiment_5_v0,2023.2.2,Win32,59.88023952,,,,,,,,,,,,,,,,596.0472,597.3468,597.3469,599.1964,return,0.5771,,66.14583333,,,,,,FBP-RB-91.png,0.43,1.2,44,0.5,0,49,49,43,1,,,,,,,,,,,,,,,,,,,,,,,,,,,,,,,,,,,,,,,,
,,,,,SPR24_094,19,Female,2024-04-25_14h31.26.119,jersey_experiment_5_v0,2023.2.2,Win32,59.88023952,,,,,,,,,,,,,,,,599.1965,600.4964,600.4965,603.8796,return,2.2488,,29.81770833,,,,,,FBP-RB-81.png,0.37,1.2,37,0.5,0,50,50,36,1,,,,,,,,,,,,,,,,,,,,,,,,,,,,,,,,,,,,,,,,
,,,,,SPR24_094,19,Female,2024-04-25_14h31.26.119,jersey_experiment_5_v0,2023.2.2,Win32,59.88023952,,,,,,,,,,,,,,,,603.8799,605.1795,605.1796,606.9794,return,0.7365,,24.86979167,,,,,,FBP-OG-19.png,0.37,1.2,12,0.5,0,51,51,11,1,,,,,,,,,,,,,,,,,,,,,,,,,,,,,,,,,,,,,,,,
,,,,,SPR24_094,19,Female,2024-04-25_14h31.26.119,jersey_experiment_5_v0,2023.2.2,Win32,59.88023952,,,,,,,,,,,,,,,,606.9797,608.2793,608.2793,615.6454,return,0.9922,,50.26041667,,,,,,FBP-RB-71.png,0.4,1.2,33,0.5,0,52,52,32,1,,,,,,,,,,,,,,,,,,,,,,,,,,,,,,,,,,,,,,,,
,,,,,SPR24_094,19,Female,2024-04-25_14h31.26.119,jersey_experiment_5_v0,2023.2.2,Win32,59.88023952,,,,,,,,,,,,,,,,615.6457,616.6954,616.6954,621.1784,return,2.2341,,33.203125,,,,,,FBP-PT-71.png,0.37,1.2,47,0.25,0,53,53,46,1,,,,,,,,,,,,,,,,,,,,,,,,,,,,,,,,,,,,,,,,
,,,,,SPR24_094,19,Female,2024-04-25_14h31.26.119,jersey_experiment_5_v0,2023.2.2,Win32,59.88023952,,,,,,,,,,,,,,,,621.1785,622.2283,622.2284,625.2116,return,0.6774,,62.36979167,,,,,,FBP-YG-81.png,0.43,1.2,24,0.25,0,54,54,23,1,,,,,,,,,,,,,,,,,,,,,,,,,,,,,,,,,,,,,,,,
,,,,,SPR24_094,19,Female,2024-04-25_14h31.26.119,jersey_experiment_5_v0,2023.2.2,Win32,59.88023952,,,,,,,,,,,,,,,,625.2119,626.2615,626.2615,629.0612,return,0.6032,,25.65104167,,,,,,FBP-PT-81.png,0.35,1.2,51,0.25,0,55,55,50,1,,,,,,,,,,,,,,,,,,,,,,,,,,,,,,,,,,,,,,,,
,,,,,SPR24_094,19,Female,2024-04-25_14h31.26.119,jersey_experiment_5_v0,2023.2.2,Win32,59.88023952,,,,,,,,,,,,,,,,629.0614,630.3613,630.3613,632.4944,return,0.1568,,14.71354167,,,,,,FBP-OG-18.png,0.35,1.2,6,0.5,0,56,56,5,1,,,,,,,,,,,,,,,,,,,,,,,,,,,,,,,,,,,,,,,,
,,,,,SPR24_094,19,Female,2024-04-25_14h31.26.119,jersey_experiment_5_v0,2023.2.2,Win32,59.88023952,,,,,,,,,,,,,,,,632.4947,633.5443,633.5443,637.9772,return,0.2831,,49.34895833,,,,,,FBP-YG-71.png,0.4,1.2,18,0.25,0,57,57,17,1,,,,,,,,,,,,,,,,,,,,,,,,,,,,,,,,,,,,,,,,
,,,,,SPR24_094,19,Female,2024-04-25_14h31.26.119,jersey_experiment_5_v0,2023.2.2,Win32,59.88023952,,,,,,,,,,,,,,,,637.9776,639.2772,639.2772,641.5272,return,0.2985,,62.5,,,,,,FBP-RB-71.png,0.43,1.2,34,0.5,0,58,58,33,1,,,,,,,,,,,,,,,,,,,,,,,,,,,,,,,,,,,,,,,,
,,,,,SPR24_094,19,Female,2024-04-25_14h31.26.119,jersey_experiment_5_v0,2023.2.2,Win32,59.88023952,,,,,,,,,,,,,,,,641.5274,642.5769,642.5769,646.7933,return,2.1821,,70.05208333,,,,,,FBP-PT-81.png,0.43,1.2,54,0.25,0,59,59,53,1,,,,,,,,,,,,,,,,,,,,,,,,,,,,,,,,,,,,,,,,
,,,,,SPR24_094,19,Female,2024-04-25_14h31.26.119,jersey_experiment_5_v0,2023.2.2,Win32,59.88023952,,,,,,,,,,,,,,,,,,,,,,,,,,,,,,,,,,,,,,,646.7938,766.7856,,,,,,,,,,,,,,,,,,,,,,,,,,,,,,,,,,,,,,
,,,,,SPR24_094,19,Female,2024-04-25_14h31.26.119,jersey_experiment_5_v0,2023.2.2,Win32,59.88023952,,,,,,,,,,,,,,,,,,,,,,,,,,,,,,,,,,,,,,,,,766.7857,773.8351,return,7.0351,,,,,,,,,,,,,,,,,,,,,,,,,,,,,,,,,,
,,,,,SPR24_094,19,Female,2024-04-25_14h31.26.119,jersey_experiment_5_v0,2023.2.2,Win32,59.88023952,,,,,,,,,,,,,,,,773.8409,774.8848,774.8848,781.351,return,5.0005,,49.21875,,,,,,FBP-OG-91.png,0.45,1.2,15,0.25,,,,,,,,,,,,,0,0,0,14,1,,,,,,,,,,,,,,,,,,,,,,,,,,,,
,,,,,SPR24_094,19,Female,2024-04-25_14h31.26.119,jersey_experiment_5_v0,2023.2.2,Win32,59.88023952,,,,,,,,,,,,,,,,781.3556,782.4008,782.4008,788.184,return,4.6492,,59.89583333,,,,,,FBP-OG-71.png,0.43,1.2,4,0.25,,,,,,,,,,,,,0,1,1,3,1,,,,,,,,,,,,,,,,,,,,,,,,,,,,
,,,,,SPR24_094,19,Female,2024-04-25_14h31.26.119,jersey_experiment_5_v0,2023.2.2,Win32,59.88023952,,,,,,,,,,,,,,,,788.1843,789.4837,789.4838,793.8168,return,1.7981,,39.0625,,,,,,FBP-YG-17.png,0.4,1.2,18,0.5,,,,,,,,,,,,,0,2,2,17,1,,,,,,,,,,,,,,,,,,,,,,,,,,,,
,,,,,SPR24_094,19,Female,2024-04-25_14h31.26.119,jersey_experiment_5_v0,2023.2.2,Win32,59.88023952,,,,,,,,,,,,,,,,793.8171,795.1169,795.1169,797.4667,return,0.6317,,24.34895833,,,,,,FBP-YG-19.png,0.37,1.2,27,0.5,,,,,,,,,,,,,0,3,3,26,1,,,,,,,,,,,,,,,,,,,,,,,,,,,,
,,,,,SPR24_094,19,Female,2024-04-25_14h31.26.119,jersey_experiment_5_v0,2023.2.2,Win32,59.88023952,,,,,,,,,,,,,,,,797.4672,798.5165,798.5166,803.8829,return,1.8495,,71.35416667,,,,,,FBP-RB-18.png,0.43,1.2,39,0.25,,,,,,,,,,,,,0,4,4,38,1,,,,,,,,,,,,,,,,,,,,,,,,,,,,
,,,,,SPR24_094,19,Female,2024-04-25_14h31.26.119,jersey_experiment_5_v0,2023.2.2,Win32,59.88023952,,,,,,,,,,,,,,,,803.8831,804.9327,804.9328,807.4825,return,0.6138,,25,,,,,,FBP-OG-71.png,0.37,1.2,2,0.25,,,,,,,,,,,,,0,5,5,1,1,,,,,,,,,,,,,,,,,,,,,,,,,,,,
,,,,,SPR24_094,19,Female,2024-04-25_14h31.26.119,jersey_experiment_5_v0,2023.2.2,Win32,59.88023952,,,,,,,,,,,,,,,,807.4827,808.7825,808.7825,810.8656,return,0.5385,,14.453125,,,,,,FBP-PT-17.png,0.37,1.2,47,0.5,,,,,,,,,,,,,0,6,6,46,1,,,,,,,,,,,,,,,,,,,,,,,,,,,,
,,,,,SPR24_094,19,Female,2024-04-25_14h31.26.119,jersey_experiment_5_v0,2023.2.2,Win32,59.88023952,,,,,,,,,,,,,,,,810.8657,812.1656,812.1656,816.9985,return,2.9165,,74.73958333,,,,,,FBP-PT-19.png,0.45,1.2,60,0.5,,,,,,,,,,,,,0,7,7,59,1,,,,,,,,,,,,,,,,,,,,,,,,,,,,
,,,,,SPR24_094,19,Female,2024-04-25_14h31.26.119,jersey_experiment_5_v0,2023.2.2,Win32,59.88023952,,,,,,,,,,,,,,,,816.9987,818.2987,818.2987,821.3484,return,0.5516,,69.921875,,,,,,FBP-PT-17.png,0.4,1.2,48,0.5,,,,,,,,,,,,,0,8,8,47,1,,,,,,,,,,,,,,,,,,,,,,,,,,,,
,,,,,SPR24_094,19,Female,2024-04-25_14h31.26.119,jersey_experiment_5_v0,2023.2.2,Win32,59.88023952,,,,,,,,,,,,,,,,821.3486,822.6481,822.6482,824.5814,return,0.6341,,24.73958333,,,,,,FBP-PT-18.png,0.35,1.2,51,0.5,,,,,,,,,,,,,0,9,9,50,1,,,,,,,,,,,,,,,,,,,,,,,,,,,,
,,,,,SPR24_094,19,Female,2024-04-25_14h31.26.119,jersey_experiment_5_v0,2023.2.2,Win32,59.88023952,,,,,,,,,,,,,,,,824.5815,825.6315,825.6315,828.0477,return,0.6551,,74.08854167,,,,,,FBP-RB-18.png,0.45,1.2,40,0.25,,,,,,,,,,,,,0,10,10,39,1,,,,,,,,,,,,,,,,,,,,,,,,,,,,
,,,,,SPR24_094,19,Female,2024-04-25_14h31.26.119,jersey_experiment_5_v0,2023.2.2,Win32,59.88023952,,,,,,,,,,,,,,,,828.048,829.0978,829.0978,831.5643,return,0.8255,,65.625,,,,,,FBP-RB-18.png,0.4,1.2,38,0.25,,,,,,,,,,,,,0,11,11,37,1,,,,,,,,,,,,,,,,,,,,,,,,,,,,
,,,,,SPR24_094,19,Female,2024-04-25_14h31.26.119,jersey_experiment_5_v0,2023.2.2,Win32,59.88023952,,,,,,,,,,,,,,,,831.5645,832.8642,832.8643,834.8307,return,0.7738,,25.390625,,,,,,FBP-PT-17.png,0.35,1.2,46,0.5,,,,,,,,,,,,,0,12,12,45,1,,,,,,,,,,,,,,,,,,,,,,,,,,,,
,,,,,SPR24_094,19,Female,2024-04-25_14h31.26.119,jersey_experiment_5_v0,2023.2.2,Win32,59.88023952,,,,,,,,,,,,,,,,834.831,836.1305,836.1307,838.5972,return,0.7181,,75.390625,,,,,,FBP-YG-18.png,0.45,1.2,25,0.5,,,,,,,,,,,,,0,13,13,24,1,,,,,,,,,,,,,,,,,,,,,,,,,,,,
,,,,,SPR24_094,19,Female,2024-04-25_14h31.26.119,jersey_experiment_5_v0,2023.2.2,Win32,59.88023952,,,,,,,,,,,,,,,,838.5974,839.647,839.647,841.7136,return,0.6898,,78.90625,,,,,,FBP-RB-19.png,0.45,1.2,45,0.25,,,,,,,,,,,,,0,14,14,44,1,,,,,,,,,,,,,,,,,,,,,,,,,,,,
,,,,,SPR24_094,19,Female,2024-04-25_14h31.26.119,jersey_experiment_5_v0,2023.2.2,Win32,59.88023952,,,,,,,,,,,,,,,,841.7138,843.0133,843.0133,845.0803,return,0.8836,,23.56770833,,,,,,FBP-PT-19.png,0.37,1.2,57,0.5,,,,,,,,,,,,,0,15,15,56,1,,,,,,,,,,,,,,,,,,,,,,,,,,,,
,,,,,SPR24_094,19,Female,2024-04-25_14h31.26.119,jersey_experiment_5_v0,2023.2.2,Win32,59.88023952,,,,,,,,,,,,,,,,845.0807,846.1301,846.1301,849.7464,return,2.121,,30.859375,,,,,,FBP-RB-19.png,0.4,1.2,43,0.25,,,,,,,,,,,,,0,16,16,42,1,,,,,,,,,,,,,,,,,,,,,,,,,,,,
,,,,,SPR24_094,19,Female,2024-04-25_14h31.26.119,jersey_experiment_5_v0,2023.2.2,Win32,59.88023952,,,,,,,,,,,,,,,,849.7466,851.0463,851.0463,855.6126,return,3.0765,,54.296875,,,,,,FBP-PT-18.png,0.43,1.2,54,0.5,,,,,,,,,,,,,0,17,17,53,1,,,,,,,,,,,,,,,,,,,,,,,,,,,,
,,,,,SPR24_094,19,Female,2024-04-25_14h31.26.119,jersey_experiment_5_v0,2023.2.2,Win32,59.88023952,,,,,,,,,,,,,,,,855.6128,856.6626,856.6626,858.9791,return,0.6188,,24.34895833,,,,,,FBP-OG-91.png,0.35,1.2,11,0.25,,,,,,,,,,,,,0,18,18,10,1,,,,,,,,,,,,,,,,,,,,,,,,,,,,
,,,,,SPR24_094,19,Female,2024-04-25_14h31.26.119,jersey_experiment_5_v0,2023.2.2,Win32,59.88023952,,,,,,,,,,,,,,,,858.9793,860.029,860.029,862.4455,return,0.7925,,10.02604167,,,,,,FBP-RB-19.png,0.37,1.2,42,0.25,,,,,,,,,,,,,0,19,19,41,1,,,,,,,,,,,,,,,,,,,,,,,,,,,,
,,,,,SPR24_094,19,Female,2024-04-25_14h31.26.119,jersey_experiment_5_v0,2023.2.2,Win32,59.88023952,,,,,,,,,,,,,,,,862.4458,863.7454,863.7455,866.3953,return,0.8429,,74.47916667,,,,,,FBP-PT-17.png,0.45,1.2,50,0.5,,,,,,,,,,,,,0,20,20,49,1,,,,,,,,,,,,,,,,,,,,,,,,,,,,
,,,,,SPR24_094,19,Female,2024-04-25_14h31.26.119,jersey_experiment_5_v0,2023.2.2,Win32,59.88023952,,,,,,,,,,,,,,,,866.3955,867.4452,867.4452,869.5284,return,0.5651,,24.08854167,,,,,,FBP-OG-91.png,0.37,1.2,12,0.25,,,,,,,,,,,,,0,21,21,11,1,,,,,,,,,,,,,,,,,,,,,,,,,,,,
,,,,,SPR24_094,19,Female,2024-04-25_14h31.26.119,jersey_experiment_5_v0,2023.2.2,Win32,59.88023952,,,,,,,,,,,,,,,,869.5286,870.5783,870.5783,872.5616,return,0.6065,,48.56770833,,,,,,FBP-RB-19.png,0.43,1.2,44,0.25,,,,,,,,,,,,,0,22,22,43,1,,,,,,,,,,,,,,,,,,,,,,,,,,,,
,,,,,SPR24_094,19,Female,2024-04-25_14h31.26.119,jersey_experiment_5_v0,2023.2.2,Win32,59.88023952,,,,,,,,,,,,,,,,872.5618,873.8613,873.8614,875.6947,return,0.5741,,23.4375,,,,,,FBP-YG-19.png,0.35,1.2,26,0.5,,,,,,,,,,,,,0,23,23,25,1,,,,,,,,,,,,,,,,,,,,,,,,,,,,
,,,,,SPR24_094,19,Female,2024-04-25_14h31.26.119,jersey_experiment_5_v0,2023.2.2,Win32,59.88023952,,,,,,,,,,,,,,,,875.6949,876.9944,876.9944,879.1946,return,0.651,,8.463541667,,,,,,FBP-YG-17.png,0.35,1.2,16,0.5,,,,,,,,,,,,,0,24,24,15,1,,,,,,,,,,,,,,,,,,,,,,,,,,,,
,,,,,SPR24_094,19,Female,2024-04-25_14h31.26.119,jersey_experiment_5_v0,2023.2.2,Win32,59.88023952,,,,,,,,,,,,,,,,879.1948,880.2443,880.2444,882.1609,return,0.6728,,24.86979167,,,,,,FBP-OG-81.png,0.4,1.2,8,0.25,,,,,,,,,,,,,0,25,25,7,1,,,,,,,,,,,,,,,,,,,,,,,,,,,,
,,,,,SPR24_094,19,Female,2024-04-25_14h31.26.119,jersey_experiment_5_v0,2023.2.2,Win32,59.88023952,,,,,,,,,,,,,,,,882.1611,883.2111,883.2111,885.3273,return,0.6399,,73.828125,,,,,,FBP-OG-81.png,0.43,1.2,9,0.25,,,,,,,,,,,,,0,26,26,8,1,,,,,,,,,,,,,,,,,,,,,,,,,,,,
,,,,,SPR24_094,19,Female,2024-04-25_14h31.26.119,jersey_experiment_5_v0,2023.2.2,Win32,59.88023952,,,,,,,,,,,,,,,,885.3275,886.3774,886.3774,891.9935,return,3.4836,,45.96354167,,,,,,FBP-RB-18.png,0.35,1.2,36,0.25,,,,,,,,,,,,,0,27,27,35,1,,,,,,,,,,,,,,,,,,,,,,,,,,,,
,,,,,SPR24_094,19,Female,2024-04-25_14h31.26.119,jersey_experiment_5_v0,2023.2.2,Win32,59.88023952,,,,,,,,,,,,,,,,891.9936,893.0434,893.0434,895.1766,return,0.8329,,50.52083333,,,,,,FBP-RB-17.png,0.4,1.2,33,0.25,,,,,,,,,,,,,0,28,28,32,1,,,,,,,,,,,,,,,,,,,,,,,,,,,,
,,,,,SPR24_094,19,Female,2024-04-25_14h31.26.119,jersey_experiment_5_v0,2023.2.2,Win32,59.88023952,,,,,,,,,,,,,,,,895.1767,896.4764,896.4764,901.1597,return,2.616,,26.30208333,,,,,,FBP-YG-17.png,0.37,1.2,17,0.5,,,,,,,,,,,,,0,29,29,16,1,,,,,,,,,,,,,,,,,,,,,,,,,,,,
,,,,,SPR24_094,19,Female,2024-04-25_14h31.26.119,jersey_experiment_5_v0,2023.2.2,Win32,59.88023952,,,,,,,,,,,,,,,,901.1599,902.4596,902.4596,905.6925,return,0.9086,,75.52083333,,,,,,FBP-YG-19.png,0.43,1.2,29,0.5,,,,,,,,,,,,,0,30,30,28,1,,,,,,,,,,,,,,,,,,,,,,,,,,,,
,,,,,SPR24_094,19,Female,2024-04-25_14h31.26.119,jersey_experiment_5_v0,2023.2.2,Win32,59.88023952,,,,,,,,,,,,,,,,905.6927,906.9925,906.9925,909.2424,return,0.6835,,50.13020833,,,,,,FBP-YG-18.png,0.4,1.2,23,0.5,,,,,,,,,,,,,0,31,31,22,1,,,,,,,,,,,,,,,,,,,,,,,,,,,,
,,,,,SPR24_094,19,Female,2024-04-25_14h31.26.119,jersey_experiment_5_v0,2023.2.2,Win32,59.88023952,,,,,,,,,,,,,,,,909.2425,910.2925,910.2926,912.1921,return,0.6408,,48.69791667,,,,,,FBP-RB-17.png,0.37,1.2,32,0.25,,,,,,,,,,,,,0,32,32,31,1,,,,,,,,,,,,,,,,,,,,,,,,,,,,
,,,,,SPR24_094,19,Female,2024-04-25_14h31.26.119,jersey_experiment_5_v0,2023.2.2,Win32,59.88023952,,,,,,,,,,,,,,,,912.1922,913.242,913.242,915.5919,return,0.9668,,73.828125,,,,,,FBP-RB-17.png,0.43,1.2,34,0.25,,,,,,,,,,,,,0,33,33,33,1,,,,,,,,,,,,,,,,,,,,,,,,,,,,
,,,,,SPR24_094,19,Female,2024-04-25_14h31.26.119,jersey_experiment_5_v0,2023.2.2,Win32,59.88023952,,,,,,,,,,,,,,,,915.5921,916.8919,916.8919,921.2414,return,2.8336,,77.08333333,,,,,,FBP-PT-18.png,0.45,1.2,55,0.5,,,,,,,,,,,,,0,34,34,54,1,,,,,,,,,,,,,,,,,,,,,,,,,,,,
,,,,,SPR24_094,19,Female,2024-04-25_14h31.26.119,jersey_experiment_5_v0,2023.2.2,Win32,59.88023952,,,,,,,,,,,,,,,,921.2416,922.5413,922.5414,925.6413,return,0.5974,,36.19791667,,,,,,FBP-YG-18.png,0.37,1.2,22,0.5,,,,,,,,,,,,,0,35,35,21,1,,,,,,,,,,,,,,,,,,,,,,,,,,,,
,,,,,SPR24_094,19,Female,2024-04-25_14h31.26.119,jersey_experiment_5_v0,2023.2.2,Win32,59.88023952,,,,,,,,,,,,,,,,925.6416,926.6912,926.6912,930.4742,return,0.6825,,38.15104167,,,,,,FBP-OG-91.png,0.4,1.2,13,0.25,,,,,,,,,,,,,0,36,36,12,1,,,,,,,,,,,,,,,,,,,,,,,,,,,,
,,,,,SPR24_094,19,Female,2024-04-25_14h31.26.119,jersey_experiment_5_v0,2023.2.2,Win32,59.88023952,,,,,,,,,,,,,,,,930.4743,931.7741,931.7741,934.774,return,0.8854,,22.39583333,,,,,,FBP-PT-19.png,0.35,1.2,56,0.5,,,,,,,,,,,,,0,37,37,55,1,,,,,,,,,,,,,,,,,,,,,,,,,,,,
,,,,,SPR24_094,19,Female,2024-04-25_14h31.26.119,jersey_experiment_5_v0,2023.2.2,Win32,59.88023952,,,,,,,,,,,,,,,,934.7742,935.8239,935.824,939.2069,return,0.6338,,59.50520833,,,,,,FBP-OG-91.png,0.43,1.2,14,0.25,,,,,,,,,,,,,0,38,38,13,1,,,,,,,,,,,,,,,,,,,,,,,,,,,,
,,,,,SPR24_094,19,Female,2024-04-25_14h31.26.119,jersey_experiment_5_v0,2023.2.2,Win32,59.88023952,,,,,,,,,,,,,,,,939.2071,940.5068,940.5068,942.0901,return,0.5943,,74.21875,,,,,,FBP-YG-17.png,0.45,1.2,20,0.5,,,,,,,,,,,,,0,39,39,19,1,,,,,,,,,,,,,,,,,,,,,,,,,,,,
,,,,,SPR24_094,19,Female,2024-04-25_14h31.26.119,jersey_experiment_5_v0,2023.2.2,Win32,59.88023952,,,,,,,,,,,,,,,,942.0903,943.1399,943.14,947.6064,return,1.2329,,38.15104167,,,,,,FBP-OG-81.png,0.37,1.2,7,0.25,,,,,,,,,,,,,0,40,40,6,1,,,,,,,,,,,,,,,,,,,,,,,,,,,,
,,,,,SPR24_094,19,Female,2024-04-25_14h31.26.119,jersey_experiment_5_v0,2023.2.2,Win32,59.88023952,,,,,,,,,,,,,,,,947.6066,948.6563,948.6563,952.1228,return,0.594,,38.02083333,,,,,,FBP-OG-71.png,0.4,1.2,3,0.25,,,,,,,,,,,,,0,41,41,2,1,,,,,,,,,,,,,,,,,,,,,,,,,,,,
,,,,,SPR24_094,19,Female,2024-04-25_14h31.26.119,jersey_experiment_5_v0,2023.2.2,Win32,59.88023952,,,,,,,,,,,,,,,,952.123,953.1728,953.1728,956.5224,return,0.5967,,70.05208333,,,,,,FBP-OG-81.png,0.45,1.2,10,0.25,,,,,,,,,,,,,0,42,42,9,1,,,,,,,,,,,,,,,,,,,,,,,,,,,,
,,,,,SPR24_094,19,Female,2024-04-25_14h31.26.119,jersey_experiment_5_v0,2023.2.2,Win32,59.88023952,,,,,,,,,,,,,,,,956.5227,957.8224,957.8225,960.6389,return,0.5235,,36.06770833,,,,,,FBP-PT-18.png,0.37,1.2,52,0.5,,,,,,,,,,,,,0,43,43,51,1,,,,,,,,,,,,,,,,,,,,,,,,,,,,
,,,,,SPR24_094,19,Female,2024-04-25_14h31.26.119,jersey_experiment_5_v0,2023.2.2,Win32,59.88023952,,,,,,,,,,,,,,,,960.6392,961.9387,961.9388,963.4886,return,0.5556,,49.47916667,,,,,,FBP-PT-17.png,0.43,1.2,49,0.5,,,,,,,,,,,,,0,44,44,48,1,,,,,,,,,,,,,,,,,,,,,,,,,,,,
,,,,,SPR24_094,19,Female,2024-04-25_14h31.26.119,jersey_experiment_5_v0,2023.2.2,Win32,59.88023952,,,,,,,,,,,,,,,,963.4888,964.5385,964.5386,967.6883,return,1.6845,,70.703125,,,,,,FBP-RB-17.png,0.45,1.2,35,0.25,,,,,,,,,,,,,0,45,45,34,1,,,,,,,,,,,,,,,,,,,,,,,,,,,,
,,,,,SPR24_094,19,Female,2024-04-25_14h31.26.119,jersey_experiment_5_v0,2023.2.2,Win32,59.88023952,,,,,,,,,,,,,,,,967.6886,968.7383,968.7384,971.6047,return,0.5028,,12.109375,,,,,,FBP-RB-17.png,0.35,1.2,31,0.25,,,,,,,,,,,,,0,46,46,30,1,,,,,,,,,,,,,,,,,,,,,,,,,,,,
,,,,,SPR24_094,19,Female,2024-04-25_14h31.26.119,jersey_experiment_5_v0,2023.2.2,Win32,59.88023952,,,,,,,,,,,,,,,,971.605,972.6547,972.6548,974.5544,return,0.5775,,0.911458333,,,,,,FBP-OG-81.png,0.35,1.2,6,0.25,,,,,,,,,,,,,0,47,47,5,1,,,,,,,,,,,,,,,,,,,,,,,,,,,,
,,,,,SPR24_094,19,Female,2024-04-25_14h31.26.119,jersey_experiment_5_v0,2023.2.2,Win32,59.88023952,,,,,,,,,,,,,,,,974.5546,975.6045,975.6045,978.3542,return,0.6033,,71.875,,,,,,FBP-OG-71.png,0.45,1.2,5,0.25,,,,,,,,,,,,,0,48,48,4,1,,,,,,,,,,,,,,,,,,,,,,,,,,,,
,,,,,SPR24_094,19,Female,2024-04-25_14h31.26.119,jersey_experiment_5_v0,2023.2.2,Win32,59.88023952,,,,,,,,,,,,,,,,978.3545,979.6543,979.6544,982.0373,return,0.7497,,1.432291667,,,,,,FBP-YG-18.png,0.35,1.2,21,0.5,,,,,,,,,,,,,0,49,49,20,1,,,,,,,,,,,,,,,,,,,,,,,,,,,,
,,,,,SPR24_094,19,Female,2024-04-25_14h31.26.119,jersey_experiment_5_v0,2023.2.2,Win32,59.88023952,,,,,,,,,,,,,,,,982.0376,983.3373,983.3373,986.1206,return,1.7166,,24.34895833,,,,,,FBP-YG-19.png,0.4,1.2,28,0.5,,,,,,,,,,,,,0,50,50,27,1,,,,,,,,,,,,,,,,,,,,,,,,,,,,
,,,,,SPR24_094,19,Female,2024-04-25_14h31.26.119,jersey_experiment_5_v0,2023.2.2,Win32,59.88023952,,,,,,,,,,,,,,,,986.1208,987.4205,987.4206,988.587,return,0.6947,,25.13020833,,,,,,FBP-PT-18.png,0.4,1.2,53,0.5,,,,,,,,,,,,,0,51,51,52,1,,,,,,,,,,,,,,,,,,,,,,,,,,,,
,,,,,SPR24_094,19,Female,2024-04-25_14h31.26.119,jersey_experiment_5_v0,2023.2.2,Win32,59.88023952,,,,,,,,,,,,,,,,988.5872,989.8869,989.887,992.0866,return,0.583,,72.265625,,,,,,FBP-YG-19.png,0.45,1.2,30,0.5,,,,,,,,,,,,,0,52,52,29,1,,,,,,,,,,,,,,,,,,,,,,,,,,,,
,,,,,SPR24_094,19,Female,2024-04-25_14h31.26.119,jersey_experiment_5_v0,2023.2.2,Win32,59.88023952,,,,,,,,,,,,,,,,992.0868,993.1368,993.1368,995.4698,return,0.6931,,0.520833333,,,,,,FBP-RB-19.png,0.35,1.2,41,0.25,,,,,,,,,,,,,0,53,53,40,1,,,,,,,,,,,,,,,,,,,,,,,,,,,,
,,,,,SPR24_094,19,Female,2024-04-25_14h31.26.119,jersey_experiment_5_v0,2023.2.2,Win32,59.88023952,,,,,,,,,,,,,,,,995.47,996.7697,996.7697,1001.1363,return,2.3043,,49.609375,,,,,,FBP-PT-19.png,0.43,1.2,59,0.5,,,,,,,,,,,,,0,54,54,58,1,,,,,,,,,,,,,,,,,,,,,,,,,,,,
,,,,,SPR24_094,19,Female,2024-04-25_14h31.26.119,jersey_experiment_5_v0,2023.2.2,Win32,59.88023952,,,,,,,,,,,,,,,,1001.1364,1002.186,1002.1861,1004.3859,return,0.7032,,24.21875,,,,,,FBP-OG-71.png,0.35,1.2,1,0.25,,,,,,,,,,,,,0,55,55,0,1,,,,,,,,,,,,,,,,,,,,,,,,,,,,
,,,,,SPR24_094,19,Female,2024-04-25_14h31.26.119,jersey_experiment_5_v0,2023.2.2,Win32,59.88023952,,,,,,,,,,,,,,,,1004.3862,1005.6857,1005.6857,1009.2523,return,0.9006,,68.75,,,,,,FBP-YG-17.png,0.43,1.2,19,0.5,,,,,,,,,,,,,0,56,56,18,1,,,,,,,,,,,,,,,,,,,,,,,,,,,,
,,,,,SPR24_094,19,Female,2024-04-25_14h31.26.119,jersey_experiment_5_v0,2023.2.2,Win32,59.88023952,,,,,,,,,,,,,,,,1009.2525,1010.5523,1010.5523,1012.2521,return,0.5087,,69.53125,,,,,,FBP-YG-18.png,0.43,1.2,24,0.5,,,,,,,,,,,,,0,57,57,23,1,,,,,,,,,,,,,,,,,,,,,,,,,,,,
,,,,,SPR24_094,19,Female,2024-04-25_14h31.26.119,jersey_experiment_5_v0,2023.2.2,Win32,59.88023952,,,,,,,,,,,,,,,,1012.2523,1013.5519,1013.5519,1014.9685,return,0.1344,,74.08854167,,,,,,FBP-PT-19.png,0.4,1.2,58,0.5,,,,,,,,,,,,,0,58,58,57,1,,,,,,,,,,,,,,,,,,,,,,,,,,,,
,,,,,SPR24_094,19,Female,2024-04-25_14h31.26.119,jersey_experiment_5_v0,2023.2.2,Win32,59.88023952,,,,,,,,,,,,,,,,1014.9687,1016.0185,1016.0185,1020.0183,return,1.5701,,27.34375,,,,,,FBP-RB-18.png,0.37,1.2,37,0.25,,,,,,,,,,,,,0,59,59,36,1,,,,,,,,,,,,,,,,,,,,,,,,,,,,
,,,,,SPR24_094,19,Female,2024-04-25_14h31.26.119,jersey_experiment_5_v0,2023.2.2,Win32,59.88023952,,,,,,,,,,,,,,,,1020.0203,1021.3182,1021.3182,1023.0347,return,0.2757,,73.56770833,,,,,,FBP-YG-81.png,0.45,1.2,25,0.5,,,,,,,,,,,,,,,,,,0,0,0,24,1,,,,,,,,,,,,,,,,,,,,,,,
,,,,,SPR24_094,19,Female,2024-04-25_14h31.26.119,jersey_experiment_5_v0,2023.2.2,Win32,59.88023952,,,,,,,,,,,,,,,,1023.0349,1024.0846,1024.0846,1027.5677,return,1.7896,,7.682291667,,,,,,FBP-RB-91.png,0.35,1.2,41,0.25,,,,,,,,,,,,,,,,,,0,1,1,40,1,,,,,,,,,,,,,,,,,,,,,,,
,,,,,SPR24_094,19,Female,2024-04-25_14h31.26.119,jersey_experiment_5_v0,2023.2.2,Win32,59.88023952,,,,,,,,,,,,,,,,1027.5678,1028.6175,1028.6175,1031.884,return,1.5105,,28.64583333,,,,,,FBP-OG-19.png,0.4,1.2,13,0.25,,,,,,,,,,,,,,,,,,0,2,2,12,1,,,,,,,,,,,,,,,,,,,,,,,
,,,,,SPR24_094,19,Female,2024-04-25_14h31.26.119,jersey_experiment_5_v0,2023.2.2,Win32,59.88023952,,,,,,,,,,,,,,,,1031.8843,1032.9339,1032.934,1035.2838,return,0.3348,,32.55208333,,,,,,FBP-RB-91.png,0.4,1.2,43,0.25,,,,,,,,,,,,,,,,,,0,3,3,42,1,,,,,,,,,,,,,,,,,,,,,,,
,,,,,SPR24_094,19,Female,2024-04-25_14h31.26.119,jersey_experiment_5_v0,2023.2.2,Win32,59.88023952,,,,,,,,,,,,,,,,1035.284,1036.3338,1036.3338,1039.1668,return,0.1398,,42.05729167,,,,,,FBP-RB-81.png,0.4,1.2,38,0.25,,,,,,,,,,,,,,,,,,0,4,4,37,1,,,,,,,,,,,,,,,,,,,,,,,
,,,,,SPR24_094,19,Female,2024-04-25_14h31.26.119,jersey_experiment_5_v0,2023.2.2,Win32,59.88023952,,,,,,,,,,,,,,,,1039.167,1040.4667,1040.4668,1042.3834,return,0.1729,,72.78645833,,,,,,FBP-PT-91.png,0.45,1.2,60,0.5,,,,,,,,,,,,,,,,,,0,5,5,59,1,,,,,,,,,,,,,,,,,,,,,,,
,,,,,SPR24_094,19,Female,2024-04-25_14h31.26.119,jersey_experiment_5_v0,2023.2.2,Win32,59.88023952,,,,,,,,,,,,,,,,1042.3836,1043.4332,1043.4332,1045.533,return,0.7741,,50.13020833,,,,,,FBP-RB-71.png,0.4,1.2,33,0.25,,,,,,,,,,,,,,,,,,0,6,6,32,1,,,,,,,,,,,,,,,,,,,,,,,
,,,,,SPR24_094,19,Female,2024-04-25_14h31.26.119,jersey_experiment_5_v0,2023.2.2,Win32,59.88023952,,,,,,,,,,,,,,,,1045.5332,1046.8331,1046.8331,1049.2662,return,0.7693,,71.35416667,,,,,,FBP-PT-81.png,0.43,1.2,54,0.5,,,,,,,,,,,,,,,,,,0,7,7,53,1,,,,,,,,,,,,,,,,,,,,,,,
,,,,,SPR24_094,19,Female,2024-04-25_14h31.26.119,jersey_experiment_5_v0,2023.2.2,Win32,59.88023952,,,,,,,,,,,,,,,,1049.2665,1050.5662,1050.5662,1053.016,return,0.1833,,35.80729167,,,,,,FBP-PT-71.png,0.37,1.2,47,0.5,,,,,,,,,,,,,,,,,,0,8,8,46,1,,,,,,,,,,,,,,,,,,,,,,,
,,,,,SPR24_094,19,Female,2024-04-25_14h31.26.119,jersey_experiment_5_v0,2023.2.2,Win32,59.88023952,,,,,,,,,,,,,,,,1053.0163,1054.0658,1054.0659,1056.7824,return,0.2405,,64.19270833,,,,,,FBP-RB-91.png,0.43,1.2,44,0.25,,,,,,,,,,,,,,,,,,0,9,9,43,1,,,,,,,,,,,,,,,,,,,,,,,
,,,,,SPR24_094,19,Female,2024-04-25_14h31.26.119,jersey_experiment_5_v0,2023.2.2,Win32,59.88023952,,,,,,,,,,,,,,,,1056.7826,1058.0821,1058.0822,1061.2653,return,0.9542,,62.23958333,,,,,,FBP-PT-81.png,0.4,1.2,53,0.5,,,,,,,,,,,,,,,,,,0,10,10,52,1,,,,,,,,,,,,,,,,,,,,,,,
,,,,,SPR24_094,19,Female,2024-04-25_14h31.26.119,jersey_experiment_5_v0,2023.2.2,Win32,59.88023952,,,,,,,,,,,,,,,,1061.2655,1062.3153,1062.3154,1064.6484,return,0.3343,,36.97916667,,,,,,FBP-RB-71.png,0.35,1.2,31,0.25,,,,,,,,,,,,,,,,,,0,11,11,30,1,,,,,,,,,,,,,,,,,,,,,,,
,,,,,SPR24_094,19,Female,2024-04-25_14h31.26.119,jersey_experiment_5_v0,2023.2.2,Win32,59.88023952,,,,,,,,,,,,,,,,1064.6487,1065.6984,1065.6984,1067.4816,return,0.1679,,23.95833333,,,,,,FBP-RB-81.png,0.35,1.2,36,0.25,,,,,,,,,,,,,,,,,,0,12,12,35,1,,,,,,,,,,,,,,,,,,,,,,,
,,,,,SPR24_094,19,Female,2024-04-25_14h31.26.119,jersey_experiment_5_v0,2023.2.2,Win32,59.88023952,,,,,,,,,,,,,,,,1067.4817,1068.5315,1068.5315,1071.3147,return,0.6036,,72.13541667,,,,,,FBP-RB-71.png,0.45,1.2,35,0.25,,,,,,,,,,,,,,,,,,0,13,13,34,1,,,,,,,,,,,,,,,,,,,,,,,
,,,,,SPR24_094,19,Female,2024-04-25_14h31.26.119,jersey_experiment_5_v0,2023.2.2,Win32,59.88023952,,,,,,,,,,,,,,,,1071.3149,1072.3647,1072.3647,1074.7978,return,0.7237,,25.52083333,,,,,,FBP-RB-81.png,0.37,1.2,37,0.25,,,,,,,,,,,,,,,,,,0,14,14,36,1,,,,,,,,,,,,,,,,,,,,,,,
,,,,,SPR24_094,19,Female,2024-04-25_14h31.26.119,jersey_experiment_5_v0,2023.2.2,Win32,59.88023952,,,,,,,,,,,,,,,,1074.798,1076.0977,1076.0978,1078.331,return,0.9103,,73.30729167,,,,,,FBP-PT-81.png,0.45,1.2,55,0.5,,,,,,,,,,,,,,,,,,0,15,15,54,1,,,,,,,,,,,,,,,,,,,,,,,
,,,,,SPR24_094,19,Female,2024-04-25_14h31.26.119,jersey_experiment_5_v0,2023.2.2,Win32,59.88023952,,,,,,,,,,,,,,,,1078.3312,1079.6309,1079.6309,1080.8141,return,0.2912,,67.83854167,,,,,,FBP-PT-71.png,0.4,1.2,48,0.5,,,,,,,,,,,,,,,,,,0,16,16,47,1,,,,,,,,,,,,,,,,,,,,,,,
,,,,,SPR24_094,19,Female,2024-04-25_14h31.26.119,jersey_experiment_5_v0,2023.2.2,Win32,59.88023952,,,,,,,,,,,,,,,,1080.8144,1081.8641,1081.8641,1083.0472,return,0.1178,,71.35416667,,,,,,FBP-RB-81.png,0.43,1.2,39,0.25,,,,,,,,,,,,,,,,,,0,17,17,38,1,,,,,,,,,,,,,,,,,,,,,,,
,,,,,SPR24_094,19,Female,2024-04-25_14h31.26.119,jersey_experiment_5_v0,2023.2.2,Win32,59.88023952,,,,,,,,,,,,,,,,1083.0474,1084.3472,1084.3472,1085.5638,return,0.2101,,24.609375,,,,,,FBP-YG-91.png,0.35,1.2,26,0.5,,,,,,,,,,,,,,,,,,0,18,18,25,1,,,,,,,,,,,,,,,,,,,,,,,
,,,,,SPR24_094,19,Female,2024-04-25_14h31.26.119,jersey_experiment_5_v0,2023.2.2,Win32,59.88023952,,,,,,,,,,,,,,,,1085.564,1086.8638,1086.8639,1088.2303,return,0.3827,,26.953125,,,,,,FBP-PT-81.png,0.37,1.2,52,0.5,,,,,,,,,,,,,,,,,,0,19,19,51,1,,,,,,,,,,,,,,,,,,,,,,,
,,,,,SPR24_094,19,Female,2024-04-25_14h31.26.119,jersey_experiment_5_v0,2023.2.2,Win32,59.88023952,,,,,,,,,,,,,,,,1088.2306,1089.28,1089.2801,1091.4132,return,0.101,,34.63541667,,,,,,FBP-RB-91.png,0.37,1.2,42,0.25,,,,,,,,,,,,,,,,,,0,20,20,41,1,,,,,,,,,,,,,,,,,,,,,,,
,,,,,SPR24_094,19,Female,2024-04-25_14h31.26.119,jersey_experiment_5_v0,2023.2.2,Win32,59.88023952,,,,,,,,,,,,,,,,1091.4133,1092.4633,1092.4633,1095.1966,return,0.7089,,73.95833333,,,,,,FBP-OG-17.png,0.45,1.2,5,0.25,,,,,,,,,,,,,,,,,,0,21,21,4,1,,,,,,,,,,,,,,,,,,,,,,,
,,,,,SPR24_094,19,Female,2024-04-25_14h31.26.119,jersey_experiment_5_v0,2023.2.2,Win32,59.88023952,,,,,,,,,,,,,,,,1095.1969,1096.2462,1096.2463,1098.2295,return,0.2001,,46.875,,,,,,FBP-OG-18.png,0.37,1.2,7,0.25,,,,,,,,,,,,,,,,,,0,22,22,6,1,,,,,,,,,,,,,,,,,,,,,,,
,,,,,SPR24_094,19,Female,2024-04-25_14h31.26.119,jersey_experiment_5_v0,2023.2.2,Win32,59.88023952,,,,,,,,,,,,,,,,1098.2296,1099.5293,1099.5293,1101.0129,return,0.1863,,24.609375,,,,,,FBP-PT-81.png,0.35,1.2,51,0.5,,,,,,,,,,,,,,,,,,0,23,23,50,1,,,,,,,,,,,,,,,,,,,,,,,
,,,,,SPR24_094,19,Female,2024-04-25_14h31.26.119,jersey_experiment_5_v0,2023.2.2,Win32,59.88023952,,,,,,,,,,,,,,,,1101.0131,1102.3127,1102.3128,1104.8957,return,0.339,,27.08333333,,,,,,FBP-YG-71.png,0.37,1.2,17,0.5,,,,,,,,,,,,,,,,,,0,24,24,16,1,,,,,,,,,,,,,,,,,,,,,,,
,,,,,SPR24_094,19,Female,2024-04-25_14h31.26.119,jersey_experiment_5_v0,2023.2.2,Win32,59.88023952,,,,,,,,,,,,,,,,1104.8959,1105.946,1105.946,1109.7121,return,1.3242,,57.16145833,,,,,,FBP-OG-18.png,0.45,1.2,10,0.25,,,,,,,,,,,,,,,,,,0,25,25,9,1,,,,,,,,,,,,,,,,,,,,,,,
,,,,,SPR24_094,19,Female,2024-04-25_14h31.26.119,jersey_experiment_5_v0,2023.2.2,Win32,59.88023952,,,,,,,,,,,,,,,,1109.7123,1110.762,1110.7621,1111.9619,return,0.167,,74.08854167,,,,,,FBP-OG-19.png,0.45,1.2,15,0.25,,,,,,,,,,,,,,,,,,0,26,26,14,1,,,,,,,,,,,,,,,,,,,,,,,
,,,,,SPR24_094,19,Female,2024-04-25_14h31.26.119,jersey_experiment_5_v0,2023.2.2,Win32,59.88023952,,,,,,,,,,,,,,,,1111.9621,1113.0118,1113.0119,1115.4785,return,0.117,,24.86979167,,,,,,FBP-OG-17.png,0.35,1.2,1,0.25,,,,,,,,,,,,,,,,,,0,27,27,0,1,,,,,,,,,,,,,,,,,,,,,,,
,,,,,SPR24_094,19,Female,2024-04-25_14h31.26.119,jersey_experiment_5_v0,2023.2.2,Win32,59.88023952,,,,,,,,,,,,,,,,1115.4786,1116.7783,1116.7784,1118.2952,return,0.2992,,73.95833333,,,,,,FBP-YG-91.png,0.43,1.2,29,0.5,,,,,,,,,,,,,,,,,,0,28,28,28,1,,,,,,,,,,,,,,,,,,,,,,,
,,,,,SPR24_094,19,Female,2024-04-25_14h31.26.119,jersey_experiment_5_v0,2023.2.2,Win32,59.88023952,,,,,,,,,,,,,,,,1118.2954,1119.3448,1119.3449,1120.8947,return,0.1054,,74.21875,,,,,,FBP-OG-19.png,0.43,1.2,14,0.25,,,,,,,,,,,,,,,,,,0,29,29,13,1,,,,,,,,,,,,,,,,,,,,,,,
,,,,,SPR24_094,19,Female,2024-04-25_14h31.26.119,jersey_experiment_5_v0,2023.2.2,Win32,59.88023952,,,,,,,,,,,,,,,,1120.8949,1122.1946,1122.1946,1123.5778,return,0.6453,,73.69791667,,,,,,FBP-YG-91.png,0.4,1.2,28,0.5,,,,,,,,,,,,,,,,,,0,30,30,27,1,,,,,,,,,,,,,,,,,,,,,,,
,,,,,SPR24_094,19,Female,2024-04-25_14h31.26.119,jersey_experiment_5_v0,2023.2.2,Win32,59.88023952,,,,,,,,,,,,,,,,1123.5779,1124.8777,1124.8778,1126.2444,return,0.7503,,75.390625,,,,,,FBP-YG-71.png,0.43,1.2,19,0.5,,,,,,,,,,,,,,,,,,0,31,31,18,1,,,,,,,,,,,,,,,,,,,,,,,
,,,,,SPR24_094,19,Female,2024-04-25_14h31.26.119,jersey_experiment_5_v0,2023.2.2,Win32,59.88023952,,,,,,,,,,,,,,,,1126.2445,1127.5444,1127.5445,1130.5439,return,0.623,,12.5,,,,,,FBP-PT-71.png,0.35,1.2,46,0.5,,,,,,,,,,,,,,,,,,0,32,32,45,1,,,,,,,,,,,,,,,,,,,,,,,
,,,,,SPR24_094,19,Female,2024-04-25_14h31.26.119,jersey_experiment_5_v0,2023.2.2,Win32,59.88023952,,,,,,,,,,,,,,,,1130.5442,1131.5939,1131.594,1134.0271,return,0.6276,,73.17708333,,,,,,FBP-RB-71.png,0.43,1.2,34,0.25,,,,,,,,,,,,,,,,,,0,33,33,33,1,,,,,,,,,,,,,,,,,,,,,,,
,,,,,SPR24_094,19,Female,2024-04-25_14h31.26.119,jersey_experiment_5_v0,2023.2.2,Win32,59.88023952,,,,,,,,,,,,,,,,1134.0273,1135.327,1135.327,1138.2269,return,0.6539,,0.911458333,,,,,,FBP-YG-81.png,0.35,1.2,21,0.5,,,,,,,,,,,,,,,,,,0,34,34,20,1,,,,,,,,,,,,,,,,,,,,,,,
,,,,,SPR24_094,19,Female,2024-04-25_14h31.26.119,jersey_experiment_5_v0,2023.2.2,Win32,59.88023952,,,,,,,,,,,,,,,,1138.2272,1139.2769,1139.2769,1146.8261,return,5.0122,,14.84375,,,,,,FBP-OG-18.png,0.35,1.2,6,0.25,,,,,,,,,,,,,,,,,,0,35,35,5,1,,,,,,,,,,,,,,,,,,,,,,,
,,,,,SPR24_094,19,Female,2024-04-25_14h31.26.119,jersey_experiment_5_v0,2023.2.2,Win32,59.88023952,,,,,,,,,,,,,,,,1146.8264,1147.8762,1147.8762,1152.9759,return,1.139,,54.296875,,,,,,FBP-OG-18.png,0.43,1.2,9,0.25,,,,,,,,,,,,,,,,,,0,36,36,8,1,,,,,,,,,,,,,,,,,,,,,,,
,,,,,SPR24_094,19,Female,2024-04-25_14h31.26.119,jersey_experiment_5_v0,2023.2.2,Win32,59.88023952,,,,,,,,,,,,,,,,1152.9761,1154.0257,1154.0258,1155.709,return,0.3417,,73.4375,,,,,,FBP-RB-91.png,0.45,1.2,45,0.25,,,,,,,,,,,,,,,,,,0,37,37,44,1,,,,,,,,,,,,,,,,,,,,,,,
,,,,,SPR24_094,19,Female,2024-04-25_14h31.26.119,jersey_experiment_5_v0,2023.2.2,Win32,59.88023952,,,,,,,,,,,,,,,,1155.7092,1157.0088,1157.0089,1160.4921,return,0.7266,,72.39583333,,,,,,FBP-PT-91.png,0.43,1.2,59,0.5,,,,,,,,,,,,,,,,,,0,38,38,58,1,,,,,,,,,,,,,,,,,,,,,,,
,,,,,SPR24_094,19,Female,2024-04-25_14h31.26.119,jersey_experiment_5_v0,2023.2.2,Win32,59.88023952,,,,,,,,,,,,,,,,1160.4924,1161.792,1161.7921,1165.125,return,1.5165,,72.91666667,,,,,,FBP-YG-81.png,0.43,1.2,24,0.5,,,,,,,,,,,,,,,,,,0,39,39,23,1,,,,,,,,,,,,,,,,,,,,,,,
,,,,,SPR24_094,19,Female,2024-04-25_14h31.26.119,jersey_experiment_5_v0,2023.2.2,Win32,59.88023952,,,,,,,,,,,,,,,,1165.1252,1166.4249,1166.4249,1169.1414,return,0.6002,,36.58854167,,,,,,FBP-YG-81.png,0.37,1.2,22,0.5,,,,,,,,,,,,,,,,,,0,40,40,21,1,,,,,,,,,,,,,,,,,,,,,,,
,,,,,SPR24_094,19,Female,2024-04-25_14h31.26.119,jersey_experiment_5_v0,2023.2.2,Win32,59.88023952,,,,,,,,,,,,,,,,1169.1417,1170.1912,1170.1913,1172.6746,return,0.137,,68.09895833,,,,,,FBP-OG-18.png,0.4,1.2,8,0.25,,,,,,,,,,,,,,,,,,0,41,41,7,1,,,,,,,,,,,,,,,,,,,,,,,
,,,,,SPR24_094,19,Female,2024-04-25_14h31.26.119,jersey_experiment_5_v0,2023.2.2,Win32,59.88023952,,,,,,,,,,,,,,,,1172.6748,1173.9744,1173.9744,1175.4742,return,0.1203,,49.609375,,,,,,FBP-PT-91.png,0.37,1.2,57,0.5,,,,,,,,,,,,,,,,,,0,42,42,56,1,,,,,,,,,,,,,,,,,,,,,,,
,,,,,SPR24_094,19,Female,2024-04-25_14h31.26.119,jersey_experiment_5_v0,2023.2.2,Win32,59.88023952,,,,,,,,,,,,,,,,1175.4745,1176.7742,1176.7743,1178.3575,return,0.3828,,46.875,,,,,,FBP-YG-71.png,0.35,1.2,16,0.5,,,,,,,,,,,,,,,,,,0,43,43,15,1,,,,,,,,,,,,,,,,,,,,,,,
,,,,,SPR24_094,19,Female,2024-04-25_14h31.26.119,jersey_experiment_5_v0,2023.2.2,Win32,59.88023952,,,,,,,,,,,,,,,,1178.3577,1179.6573,1179.6574,1182.0905,return,0.3775,,66.53645833,,,,,,FBP-YG-81.png,0.4,1.2,23,0.5,,,,,,,,,,,,,,,,,,0,44,44,22,1,,,,,,,,,,,,,,,,,,,,,,,
,,,,,SPR24_094,19,Female,2024-04-25_14h31.26.119,jersey_experiment_5_v0,2023.2.2,Win32,59.88023952,,,,,,,,,,,,,,,,1182.0906,1183.3903,1183.3904,1184.7737,return,0.1328,,72.13541667,,,,,,FBP-YG-71.png,0.4,1.2,18,0.5,,,,,,,,,,,,,,,,,,0,45,45,17,1,,,,,,,,,,,,,,,,,,,,,,,
,,,,,SPR24_094,19,Female,2024-04-25_14h31.26.119,jersey_experiment_5_v0,2023.2.2,Win32,59.88023952,,,,,,,,,,,,,,,,1184.7739,1186.0736,1186.0736,1187.6237,return,0.1995,,72.13541667,,,,,,FBP-PT-91.png,0.4,1.2,58,0.5,,,,,,,,,,,,,,,,,,0,46,46,57,1,,,,,,,,,,,,,,,,,,,,,,,
,,,,,SPR24_094,19,Female,2024-04-25_14h31.26.119,jersey_experiment_5_v0,2023.2.2,Win32,59.88023952,,,,,,,,,,,,,,,,1187.624,1188.9234,1188.9234,1191.44,return,0.8552,,39.58333333,,,,,,FBP-PT-91.png,0.35,1.2,56,0.5,,,,,,,,,,,,,,,,,,0,47,47,55,1,,,,,,,,,,,,,,,,,,,,,,,
,,,,,SPR24_094,19,Female,2024-04-25_14h31.26.119,jersey_experiment_5_v0,2023.2.2,Win32,59.88023952,,,,,,,,,,,,,,,,1191.4403,1192.4897,1192.4897,1195.2397,return,1.6016,,43.48958333,,,,,,FBP-RB-71.png,0.37,1.2,32,0.25,,,,,,,,,,,,,,,,,,0,48,48,31,1,,,,,,,,,,,,,,,,,,,,,,,
,,,,,SPR24_094,19,Female,2024-04-25_14h31.26.119,jersey_experiment_5_v0,2023.2.2,Win32,59.88023952,,,,,,,,,,,,,,,,1195.2398,1196.2894,1196.2894,1198.7393,return,0.0179,,42.44791667,,,,,,FBP-OG-19.png,0.35,1.2,11,0.25,,,,,,,,,,,,,,,,,,0,49,49,10,1,,,,,,,,,,,,,,,,,,,,,,,
,,,,,SPR24_094,19,Female,2024-04-25_14h31.26.119,jersey_experiment_5_v0,2023.2.2,Win32,59.88023952,,,,,,,,,,,,,,,,1198.7395,1200.0393,1200.0393,1201.0891,return,0.2047,,49.73958333,,,,,,FBP-YG-91.png,0.37,1.2,27,0.5,,,,,,,,,,,,,,,,,,0,50,50,26,1,,,,,,,,,,,,,,,,,,,,,,,
,,,,,SPR24_094,19,Female,2024-04-25_14h31.26.119,jersey_experiment_5_v0,2023.2.2,Win32,59.88023952,,,,,,,,,,,,,,,,1201.0893,1202.1392,1202.1393,1204.7391,return,1.0353,,77.08333333,,,,,,FBP-RB-81.png,0.45,1.2,40,0.25,,,,,,,,,,,,,,,,,,0,51,51,39,1,,,,,,,,,,,,,,,,,,,,,,,
,,,,,SPR24_094,19,Female,2024-04-25_14h31.26.119,jersey_experiment_5_v0,2023.2.2,Win32,59.88023952,,,,,,,,,,,,,,,,1204.7393,1205.7889,1205.789,1206.9389,return,0.0765,,49.609375,,,,,,FBP-OG-17.png,0.4,1.2,3,0.25,,,,,,,,,,,,,,,,,,0,52,52,2,1,,,,,,,,,,,,,,,,,,,,,,,
,,,,,SPR24_094,19,Female,2024-04-25_14h31.26.119,jersey_experiment_5_v0,2023.2.2,Win32,59.88023952,,,,,,,,,,,,,,,,1206.9392,1207.9887,1207.9888,1210.3052,return,0.0548,,53.90625,,,,,,FBP-OG-17.png,0.37,1.2,2,0.25,,,,,,,,,,,,,,,,,,0,53,53,1,1,,,,,,,,,,,,,,,,,,,,,,,
,,,,,SPR24_094,19,Female,2024-04-25_14h31.26.119,jersey_experiment_5_v0,2023.2.2,Win32,59.88023952,,,,,,,,,,,,,,,,1210.3054,1211.3553,1211.3553,1212.8885,return,0.1826,,29.81770833,,,,,,FBP-OG-19.png,0.37,1.2,12,0.25,,,,,,,,,,,,,,,,,,0,54,54,11,1,,,,,,,,,,,,,,,,,,,,,,,
,,,,,SPR24_094,19,Female,2024-04-25_14h31.26.119,jersey_experiment_5_v0,2023.2.2,Win32,59.88023952,,,,,,,,,,,,,,,,1212.8887,1214.1883,1214.1883,1215.9716,return,0.1537,,47.91666667,,,,,,FBP-PT-71.png,0.43,1.2,49,0.5,,,,,,,,,,,,,,,,,,0,55,55,48,1,,,,,,,,,,,,,,,,,,,,,,,
,,,,,SPR24_094,19,Female,2024-04-25_14h31.26.119,jersey_experiment_5_v0,2023.2.2,Win32,59.88023952,,,,,,,,,,,,,,,,1215.9718,1217.0215,1217.0216,1218.638,return,0.1575,,72.91666667,,,,,,FBP-OG-17.png,0.43,1.2,4,0.25,,,,,,,,,,,,,,,,,,0,56,56,3,1,,,,,,,,,,,,,,,,,,,,,,,
,,,,,SPR24_094,19,Female,2024-04-25_14h31.26.119,jersey_experiment_5_v0,2023.2.2,Win32,59.88023952,,,,,,,,,,,,,,,,1218.6382,1219.9379,1219.938,1221.7546,return,0.5446,,81.11979167,,,,,,FBP-YG-91.png,0.45,1.2,30,0.5,,,,,,,,,,,,,,,,,,0,57,57,29,1,,,,,,,,,,,,,,,,,,,,,,,
,,,,,SPR24_094,19,Female,2024-04-25_14h31.26.119,jersey_experiment_5_v0,2023.2.2,Win32,59.88023952,,,,,,,,,,,,,,,,1221.7548,1223.0545,1223.0545,1225.3376,return,0.7995,,76.30208333,,,,,,FBP-PT-71.png,0.45,1.2,50,0.5,,,,,,,,,,,,,,,,,,0,58,58,49,1,,,,,,,,,,,,,,,,,,,,,,,
,,,,,SPR24_094,19,Female,2024-04-25_14h31.26.119,jersey_experiment_5_v0,2023.2.2,Win32,59.88023952,,,,,,,,,,,,,,,,1225.3378,1226.6375,1226.6375,1227.5376,return,0.2039,,79.16666667,,,,,,FBP-YG-71.png,0.45,1.2,20,0.5,,,,,,,,,,,,,,,,,,0,59,59,19,1,,,,,,,,,,,,,,,,,,,,,,,
,,,,,SPR24_094,19,Female,2024-04-25_14h31.26.119,jersey_experiment_5_v0,2023.2.2,Win32,59.88023952,,,,,,,,,,,,,,,,,,,,,,,,,,,,,,,,,,,,,,,,,,,,,,,,,,,,,,,,1227.5379,1232.5539,return,5.0096,,,,,,,,,,,,,,,,,,,
,,,,,SPR24_094,19,Female,2024-04-25_14h31.26.119,jersey_experiment_5_v0,2023.2.2,Win32,59.88023952,,,,,,,,,,,,,,,,,,,,,,,,,,,,,,,,,,,,,,,,,,,,,,,,,,,,,,,,,,,,,1232.554,1238.3868,1,4.6674,return,1.1361,,,,,,,,,,,,
,,,,,SPR24_094,19,Female,2024-04-25_14h31.26.119,jersey_experiment_5_v0,2023.2.2,Win32,59.88023952,,,,,,,,,,,,,,,,,,,,,,,,,,,,,,,,,,,,,,,,,,,,,,,,,,,,,,,,,,,,,,,,,,,,1238.387,1318.9365,No I don't exactly know what the study is about besides rating visual stimuli. I thought it might be about how different colors make us rate something higher or lower on a scale. ,right,76.4959,,,,,,
,,,,,SPR24_094,19,Female,2024-04-25_14h31.26.119,jersey_experiment_5_v0,2023.2.2,Win32,59.88023952,,,,,,,,,,,,,,,,,,,,,,,,,,,,,,,,,,,,,,,,,,,,,,,,,,,,,,,,,,,,,,,,,,,,,,,,,,1318.9366,1322.9646,return,4.013,