requirements.started,requirements.stopped,key_resp_3.keys,key_resp_3.rt,key_resp_3.duration,Subject ID,Age,Gender,date,expName,psychopyVersion,OS,frameRate,instructions1.started,instructions1.stopped,key_resp.keys,key_resp.rt,key_resp.duration,example.started,example.stopped,enter_2.keys,enter_2.rt,enter_2.duration,instructions2.started,instructions2.stopped,enter_3.keys,enter_3.rt,enter_3.duration,image.started,image.stopped,slider_2.started,slider_2.stopped,next.keys,next.rt,next.duration,slider.response,trial_block_1.thisRepN,trial_block_1.thisTrialN,trial_block_1.thisN,trial_block_1.thisIndex,trial_block_1.ran,Path,Width,Height,Index,Duration,trial_block_2.thisRepN,trial_block_2.thisTrialN,trial_block_2.thisN,trial_block_2.thisIndex,trial_block_2.ran,rest_break.started,rest_break.stopped,end_break.started,end_break.stopped,key_resp_5.keys,key_resp_5.rt,key_resp_5.duration,trial_block_3.thisRepN,trial_block_3.thisTrialN,trial_block_3.thisN,trial_block_3.thisIndex,trial_block_3.ran,trial_block_4.thisRepN,trial_block_4.thisTrialN,trial_block_4.thisN,trial_block_4.thisIndex,trial_block_4.ran,questions_intro.started,questions_intro.stopped,enter_12.keys,enter_12.rt,enter_12.duration,question2.started,question2.stopped,question_doingbest.response,question_doingbest.rt,enter_15.keys,enter_15.rt,enter_15.duration,pattern.started,pattern.stopped,pattern_2.text,enter_17.keys,enter_17.rt,enter_17.duration,thankyou.started,thankyou.stopped,enter_14.keys,enter_14.rt,enter_14.duration
9.99999E-05,5.1103,return,5.092,,SPR24_009,20,Female,2024-04-05_12h34.26.003,jersey_experiment_5_v0,2023.2.2,Win32,85.47008547,,,,,,,,,,,,,,,,,,,,,,,,,,,,,,,,,,,,,,,,,,,,,,,,,,,,,,,,,,,,,,,,,,,,,,,,,,,,,,
,,,,,SPR24_009,20,Female,2024-04-05_12h34.26.003,jersey_experiment_5_v0,2023.2.2,Win32,85.47008547,5.1104,9.9574,return,4.8251,,,,,,,,,,,,,,,,,,,,,,,,,,,,,,,,,,,,,,,,,,,,,,,,,,,,,,,,,,,,,,,,,,,,,,,,,,
,,,,,SPR24_009,20,Female,2024-04-05_12h34.26.003,jersey_experiment_5_v0,2023.2.2,Win32,85.47008547,,,,,,9.9576,15.8755,return,5.8801,,,,,,,,,,,,,,,,,,,,,,,,,,,,,,,,,,,,,,,,,,,,,,,,,,,,,,,,,,,,,,,,,,,,,
,,,,,SPR24_009,20,Female,2024-04-05_12h34.26.003,jersey_experiment_5_v0,2023.2.2,Win32,85.47008547,,,,,,,,,,,15.8755,32.2642,return,16.3758,,,,,,,,,,,,,,,,,,,,,,,,,,,,,,,,,,,,,,,,,,,,,,,,,,,,,,,,,,,,,,,,
,,,,,SPR24_009,20,Female,2024-04-05_12h34.26.003,jersey_experiment_5_v0,2023.2.2,Win32,85.47008547,,,,,,,,,,,,,,,,32.2705,33.3227,33.3227,43.1586,return,1.6819,,75,0,0,0,22,1,FBP-YG-18.png,0.4,1.2,23,0.25,,,,,,,,,,,,,,,,,,,,,,,,,,,,,,,,,,,,,,,,,,,,,
,,,,,SPR24_009,20,Female,2024-04-05_12h34.26.003,jersey_experiment_5_v0,2023.2.2,Win32,85.47008547,,,,,,,,,,,,,,,,43.159,44.4526,44.4527,48.9469,return,1.1211,,75.26041667,0,1,1,6,1,FBP-OG-81.png,0.37,1.2,7,0.5,,,,,,,,,,,,,,,,,,,,,,,,,,,,,,,,,,,,,,,,,,,,,
,,,,,SPR24_009,20,Female,2024-04-05_12h34.26.003,jersey_experiment_5_v0,2023.2.2,Win32,85.47008547,,,,,,,,,,,,,,,,48.9471,50.241,50.2411,53.7824,return,1.6846,,99.609375,0,2,2,37,1,FBP-RB-18.png,0.4,1.2,38,0.5,,,,,,,,,,,,,,,,,,,,,,,,,,,,,,,,,,,,,,,,,,,,,
,,,,,SPR24_009,20,Female,2024-04-05_12h34.26.003,jersey_experiment_5_v0,2023.2.2,Win32,85.47008547,,,,,,,,,,,,,,,,53.7826,55.0767,55.0767,57.4296,return,0.6492,,99.47916667,0,3,3,12,1,FBP-OG-91.png,0.4,1.2,13,0.5,,,,,,,,,,,,,,,,,,,,,,,,,,,,,,,,,,,,,,,,,,,,,
,,,,,SPR24_009,20,Female,2024-04-05_12h34.26.003,jersey_experiment_5_v0,2023.2.2,Win32,85.47008547,,,,,,,,,,,,,,,,57.4298,58.7238,58.7238,61.571,return,0.6515,,74.34895833,0,4,4,1,1,FBP-OG-71.png,0.37,1.2,2,0.5,,,,,,,,,,,,,,,,,,,,,,,,,,,,,,,,,,,,,,,,,,,,,
,,,,,SPR24_009,20,Female,2024-04-05_12h34.26.003,jersey_experiment_5_v0,2023.2.2,Win32,85.47008547,,,,,,,,,,,,,,,,61.5712,62.6181,62.6181,67.2888,return,0.7197,,75.13020833,0,5,5,56,1,FBP-PT-19.png,0.37,1.2,57,0.25,,,,,,,,,,,,,,,,,,,,,,,,,,,,,,,,,,,,,,,,,,,,,
,,,,,SPR24_009,20,Female,2024-04-05_12h34.26.003,jersey_experiment_5_v0,2023.2.2,Win32,85.47008547,,,,,,,,,,,,,,,,67.2891,68.3358,68.3359,76.0654,return,5.9943,,87.109375,0,6,6,20,1,FBP-YG-18.png,0.35,1.2,21,0.25,,,,,,,,,,,,,,,,,,,,,,,,,,,,,,,,,,,,,,,,,,,,,
,,,,,SPR24_009,20,Female,2024-04-05_12h34.26.003,jersey_experiment_5_v0,2023.2.2,Win32,85.47008547,,,,,,,,,,,,,,,,76.0657,77.1126,77.1127,80.2304,return,1.1902,,99.47916667,0,7,7,54,1,FBP-PT-18.png,0.45,1.2,55,0.25,,,,,,,,,,,,,,,,,,,,,,,,,,,,,,,,,,,,,,,,,,,,,
,,,,,SPR24_009,20,Female,2024-04-05_12h34.26.003,jersey_experiment_5_v0,2023.2.2,Win32,85.47008547,,,,,,,,,,,,,,,,80.2305,81.5247,81.5247,87.8072,return,1.6907,,62.890625,0,8,8,10,1,FBP-OG-91.png,0.35,1.2,11,0.5,,,,,,,,,,,,,,,,,,,,,,,,,,,,,,,,,,,,,,,,,,,,,
,,,,,SPR24_009,20,Female,2024-04-05_12h34.26.003,jersey_experiment_5_v0,2023.2.2,Win32,85.47008547,,,,,,,,,,,,,,,,87.8074,89.1014,89.1014,91.4426,return,0.5226,,100,0,9,9,4,1,FBP-OG-71.png,0.45,1.2,5,0.5,,,,,,,,,,,,,,,,,,,,,,,,,,,,,,,,,,,,,,,,,,,,,
,,,,,SPR24_009,20,Female,2024-04-05_12h34.26.003,jersey_experiment_5_v0,2023.2.2,Win32,85.47008547,,,,,,,,,,,,,,,,91.4427,92.4897,92.4897,94.8899,return,0.589,,99.86979167,0,10,10,24,1,FBP-YG-18.png,0.45,1.2,25,0.25,,,,,,,,,,,,,,,,,,,,,,,,,,,,,,,,,,,,,,,,,,,,,
,,,,,SPR24_009,20,Female,2024-04-05_12h34.26.003,jersey_experiment_5_v0,2023.2.2,Win32,85.47008547,,,,,,,,,,,,,,,,94.89,96.184,96.1841,97.7135,return,0.4747,,99.86979167,0,11,11,33,1,FBP-RB-17.png,0.43,1.2,34,0.5,,,,,,,,,,,,,,,,,,,,,,,,,,,,,,,,,,,,,,,,,,,,,
,,,,,SPR24_009,20,Female,2024-04-05_12h34.26.003,jersey_experiment_5_v0,2023.2.2,Win32,85.47008547,,,,,,,,,,,,,,,,97.7138,99.0076,99.0077,102.7253,return,0.5559,,59.11458333,0,12,12,11,1,FBP-OG-91.png,0.37,1.2,12,0.5,,,,,,,,,,,,,,,,,,,,,,,,,,,,,,,,,,,,,,,,,,,,,
,,,,,SPR24_009,20,Female,2024-04-05_12h34.26.003,jersey_experiment_5_v0,2023.2.2,Win32,85.47008547,,,,,,,,,,,,,,,,102.7257,103.7725,103.7725,106.7843,return,0.6757,,67.83854167,0,13,13,45,1,FBP-PT-17.png,0.35,1.2,46,0.25,,,,,,,,,,,,,,,,,,,,,,,,,,,,,,,,,,,,,,,,,,,,,
,,,,,SPR24_009,20,Female,2024-04-05_12h34.26.003,jersey_experiment_5_v0,2023.2.2,Win32,85.47008547,,,,,,,,,,,,,,,,106.7846,107.8316,107.8316,110.5962,return,0.7189,,81.51041667,0,14,14,26,1,FBP-YG-19.png,0.37,1.2,27,0.25,,,,,,,,,,,,,,,,,,,,,,,,,,,,,,,,,,,,,,,,,,,,,
,,,,,SPR24_009,20,Female,2024-04-05_12h34.26.003,jersey_experiment_5_v0,2023.2.2,Win32,85.47008547,,,,,,,,,,,,,,,,110.5964,111.8905,111.8905,115.4788,return,1.2003,,48.828125,0,15,15,0,1,FBP-OG-71.png,0.35,1.2,1,0.5,,,,,,,,,,,,,,,,,,,,,,,,,,,,,,,,,,,,,,,,,,,,,
,,,,,SPR24_009,20,Female,2024-04-05_12h34.26.003,jersey_experiment_5_v0,2023.2.2,Win32,85.47008547,,,,,,,,,,,,,,,,115.4789,116.773,116.773,119.0435,return,0.5555,,75.13020833,0,16,16,32,1,FBP-RB-17.png,0.4,1.2,33,0.5,,,,,,,,,,,,,,,,,,,,,,,,,,,,,,,,,,,,,,,,,,,,,
,,,,,SPR24_009,20,Female,2024-04-05_12h34.26.003,jersey_experiment_5_v0,2023.2.2,Win32,85.47008547,,,,,,,,,,,,,,,,119.0441,120.0907,120.0908,122.7262,return,0.7772,,91.53645833,0,17,17,47,1,FBP-PT-17.png,0.4,1.2,48,0.25,,,,,,,,,,,,,,,,,,,,,,,,,,,,,,,,,,,,,,,,,,,,,
,,,,,SPR24_009,20,Female,2024-04-05_12h34.26.003,jersey_experiment_5_v0,2023.2.2,Win32,85.47008547,,,,,,,,,,,,,,,,122.7264,124.0203,124.0204,126.6558,return,1.2764,,100,0,18,18,8,1,FBP-OG-81.png,0.43,1.2,9,0.5,,,,,,,,,,,,,,,,,,,,,,,,,,,,,,,,,,,,,,,,,,,,,
,,,,,SPR24_009,20,Female,2024-04-05_12h34.26.003,jersey_experiment_5_v0,2023.2.2,Win32,85.47008547,,,,,,,,,,,,,,,,126.6559,127.9499,127.9499,130.4206,return,0.6262,,93.61979167,0,19,19,13,1,FBP-OG-91.png,0.43,1.2,14,0.5,,,,,,,,,,,,,,,,,,,,,,,,,,,,,,,,,,,,,,,,,,,,,
,,,,,SPR24_009,20,Female,2024-04-05_12h34.26.003,jersey_experiment_5_v0,2023.2.2,Win32,85.47008547,,,,,,,,,,,,,,,,130.4209,131.7147,131.7147,134.0089,return,0.4335,,100,0,20,20,43,1,FBP-RB-19.png,0.43,1.2,44,0.5,,,,,,,,,,,,,,,,,,,,,,,,,,,,,,,,,,,,,,,,,,,,,
,,,,,SPR24_009,20,Female,2024-04-05_12h34.26.003,jersey_experiment_5_v0,2023.2.2,Win32,85.47008547,,,,,,,,,,,,,,,,134.0091,135.056,135.056,137.7503,return,0.5284,,80.46875,0,21,21,27,1,FBP-YG-19.png,0.4,1.2,28,0.25,,,,,,,,,,,,,,,,,,,,,,,,,,,,,,,,,,,,,,,,,,,,,
,,,,,SPR24_009,20,Female,2024-04-05_12h34.26.003,jersey_experiment_5_v0,2023.2.2,Win32,85.47008547,,,,,,,,,,,,,,,,137.7505,138.7974,138.7975,140.9504,return,0.6126,,79.94791667,0,22,22,51,1,FBP-PT-18.png,0.37,1.2,52,0.25,,,,,,,,,,,,,,,,,,,,,,,,,,,,,,,,,,,,,,,,,,,,,
,,,,,SPR24_009,20,Female,2024-04-05_12h34.26.003,jersey_experiment_5_v0,2023.2.2,Win32,85.47008547,,,,,,,,,,,,,,,,140.9506,141.9973,141.9974,144.1622,return,0.5207,,100,0,23,23,29,1,FBP-YG-19.png,0.45,1.2,30,0.25,,,,,,,,,,,,,,,,,,,,,,,,,,,,,,,,,,,,,,,,,,,,,
,,,,,SPR24_009,20,Female,2024-04-05_12h34.26.003,jersey_experiment_5_v0,2023.2.2,Win32,85.47008547,,,,,,,,,,,,,,,,144.1625,145.4565,145.4565,149.08,return,0.5175,,100,0,24,24,14,1,FBP-OG-91.png,0.45,1.2,15,0.5,,,,,,,,,,,,,,,,,,,,,,,,,,,,,,,,,,,,,,,,,,,,,
,,,,,SPR24_009,20,Female,2024-04-05_12h34.26.003,jersey_experiment_5_v0,2023.2.2,Win32,85.47008547,,,,,,,,,,,,,,,,149.0802,150.3743,150.3744,153.4803,return,0.814,,24.609375,0,25,25,35,1,FBP-RB-18.png,0.35,1.2,36,0.5,,,,,,,,,,,,,,,,,,,,,,,,,,,,,,,,,,,,,,,,,,,,,
,,,,,SPR24_009,20,Female,2024-04-05_12h34.26.003,jersey_experiment_5_v0,2023.2.2,Win32,85.47008547,,,,,,,,,,,,,,,,153.4806,154.5273,154.5273,157.3744,return,0.6439,,98.17708333,0,26,26,19,1,FBP-YG-17.png,0.45,1.2,20,0.25,,,,,,,,,,,,,,,,,,,,,,,,,,,,,,,,,,,,,,,,,,,,,
,,,,,SPR24_009,20,Female,2024-04-05_12h34.26.003,jersey_experiment_5_v0,2023.2.2,Win32,85.47008547,,,,,,,,,,,,,,,,157.3746,158.4216,158.4217,161.5393,return,0.6628,,99.86979167,0,27,27,53,1,FBP-PT-18.png,0.43,1.2,54,0.25,,,,,,,,,,,,,,,,,,,,,,,,,,,,,,,,,,,,,,,,,,,,,
,,,,,SPR24_009,20,Female,2024-04-05_12h34.26.003,jersey_experiment_5_v0,2023.2.2,Win32,85.47008547,,,,,,,,,,,,,,,,161.5395,162.8336,162.8336,164.8335,return,0.4869,,74.47916667,0,28,28,42,1,FBP-RB-19.png,0.4,1.2,43,0.5,,,,,,,,,,,,,,,,,,,,,,,,,,,,,,,,,,,,,,,,,,,,,
,,,,,SPR24_009,20,Female,2024-04-05_12h34.26.003,jersey_experiment_5_v0,2023.2.2,Win32,85.47008547,,,,,,,,,,,,,,,,164.8337,165.8807,165.8808,168.2338,return,0.4606,,100,0,29,29,49,1,FBP-PT-17.png,0.45,1.2,50,0.25,,,,,,,,,,,,,,,,,,,,,,,,,,,,,,,,,,,,,,,,,,,,,
,,,,,SPR24_009,20,Female,2024-04-05_12h34.26.003,jersey_experiment_5_v0,2023.2.2,Win32,85.47008547,,,,,,,,,,,,,,,,168.234,169.2808,169.2808,171.4457,return,0.4817,,74.73958333,0,30,30,21,1,FBP-YG-18.png,0.37,1.2,22,0.25,,,,,,,,,,,,,,,,,,,,,,,,,,,,,,,,,,,,,,,,,,,,,
,,,,,SPR24_009,20,Female,2024-04-05_12h34.26.003,jersey_experiment_5_v0,2023.2.2,Win32,85.47008547,,,,,,,,,,,,,,,,171.4458,172.4927,172.4927,174.1751,return,0.4182,,100,0,31,31,59,1,FBP-PT-19.png,0.45,1.2,60,0.25,,,,,,,,,,,,,,,,,,,,,,,,,,,,,,,,,,,,,,,,,,,,,
,,,,,SPR24_009,20,Female,2024-04-05_12h34.26.003,jersey_experiment_5_v0,2023.2.2,Win32,85.47008547,,,,,,,,,,,,,,,,174.1753,175.4692,175.4693,177.4929,return,0.4731,,91.40625,0,32,32,44,1,FBP-RB-19.png,0.45,1.2,45,0.5,,,,,,,,,,,,,,,,,,,,,,,,,,,,,,,,,,,,,,,,,,,,,
,,,,,SPR24_009,20,Female,2024-04-05_12h34.26.003,jersey_experiment_5_v0,2023.2.2,Win32,85.47008547,,,,,,,,,,,,,,,,177.4931,178.5401,178.5401,180.5284,return,0.4775,,95.3125,0,33,33,23,1,FBP-YG-18.png,0.43,1.2,24,0.25,,,,,,,,,,,,,,,,,,,,,,,,,,,,,,,,,,,,,,,,,,,,,
,,,,,SPR24_009,20,Female,2024-04-05_12h34.26.003,jersey_experiment_5_v0,2023.2.2,Win32,85.47008547,,,,,,,,,,,,,,,,180.5286,181.8224,181.8225,184.3051,return,0.4523,,81.11979167,0,34,34,7,1,FBP-OG-81.png,0.4,1.2,8,0.5,,,,,,,,,,,,,,,,,,,,,,,,,,,,,,,,,,,,,,,,,,,,,
,,,,,SPR24_009,20,Female,2024-04-05_12h34.26.003,jersey_experiment_5_v0,2023.2.2,Win32,85.47008547,,,,,,,,,,,,,,,,184.3052,185.352,185.352,187.4579,return,0.5455,,49.86979167,0,35,35,15,1,FBP-YG-17.png,0.35,1.2,16,0.25,,,,,,,,,,,,,,,,,,,,,,,,,,,,,,,,,,,,,,,,,,,,,
,,,,,SPR24_009,20,Female,2024-04-05_12h34.26.003,jersey_experiment_5_v0,2023.2.2,Win32,85.47008547,,,,,,,,,,,,,,,,187.4581,188.5051,188.5051,191.4817,return,0.5418,,49.34895833,0,36,36,55,1,FBP-PT-19.png,0.35,1.2,56,0.25,,,,,,,,,,,,,,,,,,,,,,,,,,,,,,,,,,,,,,,,,,,,,
,,,,,SPR24_009,20,Female,2024-04-05_12h34.26.003,jersey_experiment_5_v0,2023.2.2,Win32,85.47008547,,,,,,,,,,,,,,,,191.4819,192.5288,192.5288,195.8229,return,0.4647,,64.58333333,0,37,37,46,1,FBP-PT-17.png,0.37,1.2,47,0.25,,,,,,,,,,,,,,,,,,,,,,,,,,,,,,,,,,,,,,,,,,,,,
,,,,,SPR24_009,20,Female,2024-04-05_12h34.26.003,jersey_experiment_5_v0,2023.2.2,Win32,85.47008547,,,,,,,,,,,,,,,,195.8232,196.8701,196.8702,199.3525,return,0.41,,67.70833333,0,38,38,25,1,FBP-YG-19.png,0.35,1.2,26,0.25,,,,,,,,,,,,,,,,,,,,,,,,,,,,,,,,,,,,,,,,,,,,,
,,,,,SPR24_009,20,Female,2024-04-05_12h34.26.003,jersey_experiment_5_v0,2023.2.2,Win32,85.47008547,,,,,,,,,,,,,,,,199.3528,200.3997,200.3998,201.7527,return,0.635,,67.70833333,0,39,39,50,1,FBP-PT-18.png,0.35,1.2,51,0.25,,,,,,,,,,,,,,,,,,,,,,,,,,,,,,,,,,,,,,,,,,,,,
,,,,,SPR24_009,20,Female,2024-04-05_12h34.26.003,jersey_experiment_5_v0,2023.2.2,Win32,85.47008547,,,,,,,,,,,,,,,,201.7528,203.0468,203.0468,205.0587,return,0.5439,,83.203125,0,40,40,31,1,FBP-RB-17.png,0.37,1.2,32,0.5,,,,,,,,,,,,,,,,,,,,,,,,,,,,,,,,,,,,,,,,,,,,,
,,,,,SPR24_009,20,Female,2024-04-05_12h34.26.003,jersey_experiment_5_v0,2023.2.2,Win32,85.47008547,,,,,,,,,,,,,,,,205.0589,206.3529,206.3529,207.8703,return,0.4665,,84.63541667,0,41,41,36,1,FBP-RB-18.png,0.37,1.2,37,0.5,,,,,,,,,,,,,,,,,,,,,,,,,,,,,,,,,,,,,,,,,,,,,
,,,,,SPR24_009,20,Female,2024-04-05_12h34.26.003,jersey_experiment_5_v0,2023.2.2,Win32,85.47008547,,,,,,,,,,,,,,,,207.8705,209.1647,209.1647,213.306,return,2.6926,,95.703125,0,42,42,38,1,FBP-RB-18.png,0.43,1.2,39,0.5,,,,,,,,,,,,,,,,,,,,,,,,,,,,,,,,,,,,,,,,,,,,,
,,,,,SPR24_009,20,Female,2024-04-05_12h34.26.003,jersey_experiment_5_v0,2023.2.2,Win32,85.47008547,,,,,,,,,,,,,,,,213.3063,214.6002,214.6002,216.2238,return,0.5722,,95.05208333,0,43,43,2,1,FBP-OG-71.png,0.4,1.2,3,0.5,,,,,,,,,,,,,,,,,,,,,,,,,,,,,,,,,,,,,,,,,,,,,
,,,,,SPR24_009,20,Female,2024-04-05_12h34.26.003,jersey_experiment_5_v0,2023.2.2,Win32,85.47008547,,,,,,,,,,,,,,,,216.224,217.2709,217.2709,219.0708,return,0.5132,,100,0,44,44,58,1,FBP-PT-19.png,0.43,1.2,59,0.25,,,,,,,,,,,,,,,,,,,,,,,,,,,,,,,,,,,,,,,,,,,,,
,,,,,SPR24_009,20,Female,2024-04-05_12h34.26.003,jersey_experiment_5_v0,2023.2.2,Win32,85.47008547,,,,,,,,,,,,,,,,219.0711,220.3651,220.3652,225.4477,return,2.6122,,58.984375,0,45,45,5,1,FBP-OG-81.png,0.35,1.2,6,0.5,,,,,,,,,,,,,,,,,,,,,,,,,,,,,,,,,,,,,,,,,,,,,
,,,,,SPR24_009,20,Female,2024-04-05_12h34.26.003,jersey_experiment_5_v0,2023.2.2,Win32,85.47008547,,,,,,,,,,,,,,,,225.4478,226.4948,226.4948,231.1772,return,3.2943,,90.75520833,0,46,46,18,1,FBP-YG-17.png,0.43,1.2,19,0.25,,,,,,,,,,,,,,,,,,,,,,,,,,,,,,,,,,,,,,,,,,,,,
,,,,,SPR24_009,20,Female,2024-04-05_12h34.26.003,jersey_experiment_5_v0,2023.2.2,Win32,85.47008547,,,,,,,,,,,,,,,,231.1774,232.4715,232.4715,235.2716,return,0.4942,,49.86979167,0,47,47,41,1,FBP-RB-19.png,0.37,1.2,42,0.5,,,,,,,,,,,,,,,,,,,,,,,,,,,,,,,,,,,,,,,,,,,,,
,,,,,SPR24_009,20,Female,2024-04-05_12h34.26.003,jersey_experiment_5_v0,2023.2.2,Win32,85.47008547,,,,,,,,,,,,,,,,235.2719,236.3187,236.3187,238.7774,return,0.5177,,100,0,48,48,48,1,FBP-PT-17.png,0.43,1.2,49,0.25,,,,,,,,,,,,,,,,,,,,,,,,,,,,,,,,,,,,,,,,,,,,,
,,,,,SPR24_009,20,Female,2024-04-05_12h34.26.003,jersey_experiment_5_v0,2023.2.2,Win32,85.47008547,,,,,,,,,,,,,,,,238.7776,240.0718,240.0718,242.66,return,0.2739,,100,0,49,49,34,1,FBP-RB-17.png,0.45,1.2,35,0.5,,,,,,,,,,,,,,,,,,,,,,,,,,,,,,,,,,,,,,,,,,,,,
,,,,,SPR24_009,20,Female,2024-04-05_12h34.26.003,jersey_experiment_5_v0,2023.2.2,Win32,85.47008547,,,,,,,,,,,,,,,,242.6601,243.9545,243.9545,246.1309,return,0.2494,,49.73958333,0,50,50,30,1,FBP-RB-17.png,0.35,1.2,31,0.5,,,,,,,,,,,,,,,,,,,,,,,,,,,,,,,,,,,,,,,,,,,,,
,,,,,SPR24_009,20,Female,2024-04-05_12h34.26.003,jersey_experiment_5_v0,2023.2.2,Win32,85.47008547,,,,,,,,,,,,,,,,246.1311,247.1779,247.1779,249.6837,return,0.4271,,89.453125,0,51,51,28,1,FBP-YG-19.png,0.43,1.2,29,0.25,,,,,,,,,,,,,,,,,,,,,,,,,,,,,,,,,,,,,,,,,,,,,
,,,,,SPR24_009,20,Female,2024-04-05_12h34.26.003,jersey_experiment_5_v0,2023.2.2,Win32,85.47008547,,,,,,,,,,,,,,,,249.6839,250.9779,250.978,252.4487,return,0.1234,,94.01041667,0,52,52,3,1,FBP-OG-71.png,0.43,1.2,4,0.5,,,,,,,,,,,,,,,,,,,,,,,,,,,,,,,,,,,,,,,,,,,,,
,,,,,SPR24_009,20,Female,2024-04-05_12h34.26.003,jersey_experiment_5_v0,2023.2.2,Win32,85.47008547,,,,,,,,,,,,,,,,252.4489,253.7429,253.7429,257.0135,return,0.2018,,50.13020833,0,53,53,40,1,FBP-RB-19.png,0.35,1.2,41,0.5,,,,,,,,,,,,,,,,,,,,,,,,,,,,,,,,,,,,,,,,,,,,,
,,,,,SPR24_009,20,Female,2024-04-05_12h34.26.003,jersey_experiment_5_v0,2023.2.2,Win32,85.47008547,,,,,,,,,,,,,,,,257.0137,258.0607,258.0607,261.0608,return,0.2027,,88.15104167,0,54,54,52,1,FBP-PT-18.png,0.4,1.2,53,0.25,,,,,,,,,,,,,,,,,,,,,,,,,,,,,,,,,,,,,,,,,,,,,
,,,,,SPR24_009,20,Female,2024-04-05_12h34.26.003,jersey_experiment_5_v0,2023.2.2,Win32,85.47008547,,,,,,,,,,,,,,,,261.061,262.1078,262.1078,263.2492,return,0.1124,,87.36979167,0,55,55,57,1,FBP-PT-19.png,0.4,1.2,58,0.25,,,,,,,,,,,,,,,,,,,,,,,,,,,,,,,,,,,,,,,,,,,,,
,,,,,SPR24_009,20,Female,2024-04-05_12h34.26.003,jersey_experiment_5_v0,2023.2.2,Win32,85.47008547,,,,,,,,,,,,,,,,263.2494,264.2961,264.2961,266.0021,return,0.1911,,87.36979167,0,56,56,17,1,FBP-YG-17.png,0.4,1.2,18,0.25,,,,,,,,,,,,,,,,,,,,,,,,,,,,,,,,,,,,,,,,,,,,,
,,,,,SPR24_009,20,Female,2024-04-05_12h34.26.003,jersey_experiment_5_v0,2023.2.2,Win32,85.47008547,,,,,,,,,,,,,,,,266.0023,267.2963,267.2963,268.5434,return,0.161,,100,0,57,57,39,1,FBP-RB-18.png,0.45,1.2,40,0.5,,,,,,,,,,,,,,,,,,,,,,,,,,,,,,,,,,,,,,,,,,,,,
,,,,,SPR24_009,20,Female,2024-04-05_12h34.26.003,jersey_experiment_5_v0,2023.2.2,Win32,85.47008547,,,,,,,,,,,,,,,,268.5436,269.8376,269.8377,271.0144,return,0.0707,,100,0,58,58,9,1,FBP-OG-81.png,0.45,1.2,10,0.5,,,,,,,,,,,,,,,,,,,,,,,,,,,,,,,,,,,,,,,,,,,,,
,,,,,SPR24_009,20,Female,2024-04-05_12h34.26.003,jersey_experiment_5_v0,2023.2.2,Win32,85.47008547,,,,,,,,,,,,,,,,271.0146,272.0612,272.0613,275.7674,return,0.1425,,49.73958333,0,59,59,16,1,FBP-YG-17.png,0.37,1.2,17,0.25,,,,,,,,,,,,,,,,,,,,,,,,,,,,,,,,,,,,,,,,,,,,,
,,,,,SPR24_009,20,Female,2024-04-05_12h34.26.003,jersey_experiment_5_v0,2023.2.2,Win32,85.47008547,,,,,,,,,,,,,,,,275.7693,277.0614,277.0614,279.5086,return,0.1792,,37.109375,,,,,,FBP-OG-18.png,0.35,1.2,6,0.5,0,0,0,5,1,,,,,,,,,,,,,,,,,,,,,,,,,,,,,,,,,,,,,,,,
,,,,,SPR24_009,20,Female,2024-04-05_12h34.26.003,jersey_experiment_5_v0,2023.2.2,Win32,85.47008547,,,,,,,,,,,,,,,,279.5089,280.8029,280.803,282.7089,return,0.2494,,25.26041667,,,,,,FBP-RB-71.png,0.35,1.2,31,0.5,0,1,1,30,1,,,,,,,,,,,,,,,,,,,,,,,,,,,,,,,,,,,,,,,,
,,,,,SPR24_009,20,Female,2024-04-05_12h34.26.003,jersey_experiment_5_v0,2023.2.2,Win32,85.47008547,,,,,,,,,,,,,,,,282.7091,283.7556,283.7557,285.8264,return,0.1227,,50,,,,,,FBP-PT-71.png,0.4,1.2,48,0.25,0,2,2,47,1,,,,,,,,,,,,,,,,,,,,,,,,,,,,,,,,,,,,,,,,
,,,,,SPR24_009,20,Female,2024-04-05_12h34.26.003,jersey_experiment_5_v0,2023.2.2,Win32,85.47008547,,,,,,,,,,,,,,,,285.8266,287.1206,287.1206,291.5091,return,0.1319,,25,,,,,,FBP-RB-91.png,0.35,1.2,41,0.5,0,3,3,40,1,,,,,,,,,,,,,,,,,,,,,,,,,,,,,,,,,,,,,,,,
,,,,,SPR24_009,20,Female,2024-04-05_12h34.26.003,jersey_experiment_5_v0,2023.2.2,Win32,85.47008547,,,,,,,,,,,,,,,,291.5093,292.8032,292.8032,294.6149,return,0.1413,,33.59375,,,,,,FBP-OG-17.png,0.35,1.2,1,0.5,0,4,4,0,1,,,,,,,,,,,,,,,,,,,,,,,,,,,,,,,,,,,,,,,,
,,,,,SPR24_009,20,Female,2024-04-05_12h34.26.003,jersey_experiment_5_v0,2023.2.2,Win32,85.47008547,,,,,,,,,,,,,,,,294.6152,295.662,295.6621,299.6389,return,0.1655,,98.95833333,,,,,,FBP-PT-81.png,0.45,1.2,55,0.25,0,5,5,54,1,,,,,,,,,,,,,,,,,,,,,,,,,,,,,,,,,,,,,,,,
,,,,,SPR24_009,20,Female,2024-04-05_12h34.26.003,jersey_experiment_5_v0,2023.2.2,Win32,85.47008547,,,,,,,,,,,,,,,,299.639,300.9329,300.9329,304.6156,return,0.1339,,50.13020833,,,,,,FBP-RB-91.png,0.37,1.2,42,0.5,0,6,6,41,1,,,,,,,,,,,,,,,,,,,,,,,,,,,,,,,,,,,,,,,,
,,,,,SPR24_009,20,Female,2024-04-05_12h34.26.003,jersey_experiment_5_v0,2023.2.2,Win32,85.47008547,,,,,,,,,,,,,,,,304.6159,305.9095,305.9095,309.145,return,0.1988,,91.92708333,,,,,,FBP-OG-19.png,0.43,1.2,14,0.5,0,7,7,13,1,,,,,,,,,,,,,,,,,,,,,,,,,,,,,,,,,,,,,,,,
,,,,,SPR24_009,20,Female,2024-04-05_12h34.26.003,jersey_experiment_5_v0,2023.2.2,Win32,85.47008547,,,,,,,,,,,,,,,,309.1452,310.1921,310.1921,312.2157,return,0.3438,,49.86979167,,,,,,FBP-YG-91.png,0.35,1.2,26,0.25,0,8,8,25,1,,,,,,,,,,,,,,,,,,,,,,,,,,,,,,,,,,,,,,,,
,,,,,SPR24_009,20,Female,2024-04-05_12h34.26.003,jersey_experiment_5_v0,2023.2.2,Win32,85.47008547,,,,,,,,,,,,,,,,312.216,313.5099,313.5099,314.5804,return,0.1078,,50.13020833,,,,,,FBP-OG-19.png,0.35,1.2,11,0.5,0,9,9,10,1,,,,,,,,,,,,,,,,,,,,,,,,,,,,,,,,,,,,,,,,
,,,,,SPR24_009,20,Female,2024-04-05_12h34.26.003,jersey_experiment_5_v0,2023.2.2,Win32,85.47008547,,,,,,,,,,,,,,,,314.5806,315.6276,315.6277,318.4984,return,0.1436,,100,,,,,,FBP-YG-81.png,0.43,1.2,24,0.25,0,10,10,23,1,,,,,,,,,,,,,,,,,,,,,,,,,,,,,,,,,,,,,,,,
,,,,,SPR24_009,20,Female,2024-04-05_12h34.26.003,jersey_experiment_5_v0,2023.2.2,Win32,85.47008547,,,,,,,,,,,,,,,,318.4986,319.5455,319.5455,321.0865,return,0.1383,,100,,,,,,FBP-YG-91.png,0.45,1.2,30,0.25,0,11,11,29,1,,,,,,,,,,,,,,,,,,,,,,,,,,,,,,,,,,,,,,,,
,,,,,SPR24_009,20,Female,2024-04-05_12h34.26.003,jersey_experiment_5_v0,2023.2.2,Win32,85.47008547,,,,,,,,,,,,,,,,321.0867,322.134,322.134,324.8986,return,0.6153,,73.95833333,,,,,,FBP-PT-81.png,0.4,1.2,53,0.25,0,12,12,52,1,,,,,,,,,,,,,,,,,,,,,,,,,,,,,,,,,,,,,,,,
,,,,,SPR24_009,20,Female,2024-04-05_12h34.26.003,jersey_experiment_5_v0,2023.2.2,Win32,85.47008547,,,,,,,,,,,,,,,,324.8988,325.9455,325.9456,327.3339,return,0.5759,,75.52083333,,,,,,FBP-YG-71.png,0.37,1.2,17,0.25,0,13,13,16,1,,,,,,,,,,,,,,,,,,,,,,,,,,,,,,,,,,,,,,,,
,,,,,SPR24_009,20,Female,2024-04-05_12h34.26.003,jersey_experiment_5_v0,2023.2.2,Win32,85.47008547,,,,,,,,,,,,,,,,327.334,328.381,328.3811,330.24,return,0.0664,,85.15625,,,,,,FBP-YG-81.png,0.35,1.2,21,0.25,0,14,14,20,1,,,,,,,,,,,,,,,,,,,,,,,,,,,,,,,,,,,,,,,,
,,,,,SPR24_009,20,Female,2024-04-05_12h34.26.003,jersey_experiment_5_v0,2023.2.2,Win32,85.47008547,,,,,,,,,,,,,,,,330.2403,331.534,331.534,335.2166,return,0.1584,,50.26041667,,,,,,FBP-RB-81.png,0.35,1.2,36,0.5,0,15,15,35,1,,,,,,,,,,,,,,,,,,,,,,,,,,,,,,,,,,,,,,,,
,,,,,SPR24_009,20,Female,2024-04-05_12h34.26.003,jersey_experiment_5_v0,2023.2.2,Win32,85.47008547,,,,,,,,,,,,,,,,335.217,336.5106,336.5106,337.6636,return,0.0884,,74.21875,,,,,,FBP-OG-17.png,0.4,1.2,3,0.5,0,16,16,2,1,,,,,,,,,,,,,,,,,,,,,,,,,,,,,,,,,,,,,,,,
,,,,,SPR24_009,20,Female,2024-04-05_12h34.26.003,jersey_experiment_5_v0,2023.2.2,Win32,85.47008547,,,,,,,,,,,,,,,,337.6638,338.9578,338.9578,339.9108,return,0.1549,,74.21875,,,,,,FBP-RB-81.png,0.37,1.2,37,0.5,0,17,17,36,1,,,,,,,,,,,,,,,,,,,,,,,,,,,,,,,,,,,,,,,,
,,,,,SPR24_009,20,Female,2024-04-05_12h34.26.003,jersey_experiment_5_v0,2023.2.2,Win32,85.47008547,,,,,,,,,,,,,,,,339.9111,340.9577,340.9578,342.0052,return,0.2258,,74.73958333,,,,,,FBP-PT-81.png,0.35,1.2,51,0.25,0,18,18,50,1,,,,,,,,,,,,,,,,,,,,,,,,,,,,,,,,,,,,,,,,
,,,,,SPR24_009,20,Female,2024-04-05_12h34.26.003,jersey_experiment_5_v0,2023.2.2,Win32,85.47008547,,,,,,,,,,,,,,,,342.0054,343.0521,343.0521,345.5581,return,0.1073,,100,,,,,,FBP-PT-71.png,0.43,1.2,49,0.25,0,19,19,48,1,,,,,,,,,,,,,,,,,,,,,,,,,,,,,,,,,,,,,,,,
,,,,,SPR24_009,20,Female,2024-04-05_12h34.26.003,jersey_experiment_5_v0,2023.2.2,Win32,85.47008547,,,,,,,,,,,,,,,,345.5584,346.6052,346.6052,348.5816,return,0.1429,,99.73958333,,,,,,FBP-YG-71.png,0.4,1.2,18,0.25,0,20,20,17,1,,,,,,,,,,,,,,,,,,,,,,,,,,,,,,,,,,,,,,,,
,,,,,SPR24_009,20,Female,2024-04-05_12h34.26.003,jersey_experiment_5_v0,2023.2.2,Win32,85.47008547,,,,,,,,,,,,,,,,348.5819,349.6289,349.6289,352.676,return,0.1552,,74.73958333,,,,,,FBP-PT-81.png,0.37,1.2,52,0.25,0,21,21,51,1,,,,,,,,,,,,,,,,,,,,,,,,,,,,,,,,,,,,,,,,
,,,,,SPR24_009,20,Female,2024-04-05_12h34.26.003,jersey_experiment_5_v0,2023.2.2,Win32,85.47008547,,,,,,,,,,,,,,,,352.6762,353.9702,353.9703,355.488,return,0.1224,,74.73958333,,,,,,FBP-OG-19.png,0.37,1.2,12,0.5,0,22,22,11,1,,,,,,,,,,,,,,,,,,,,,,,,,,,,,,,,,,,,,,,,
,,,,,SPR24_009,20,Female,2024-04-05_12h34.26.003,jersey_experiment_5_v0,2023.2.2,Win32,85.47008547,,,,,,,,,,,,,,,,355.4881,356.7821,356.7821,357.5702,return,0.1088,,74.21875,,,,,,FBP-RB-81.png,0.4,1.2,38,0.5,0,23,23,37,1,,,,,,,,,,,,,,,,,,,,,,,,,,,,,,,,,,,,,,,,
,,,,,SPR24_009,20,Female,2024-04-05_12h34.26.003,jersey_experiment_5_v0,2023.2.2,Win32,85.47008547,,,,,,,,,,,,,,,,357.5705,358.6175,358.6175,359.9351,return,0.1471,,100,,,,,,FBP-YG-81.png,0.45,1.2,25,0.25,0,24,24,24,1,,,,,,,,,,,,,,,,,,,,,,,,,,,,,,,,,,,,,,,,
,,,,,SPR24_009,20,Female,2024-04-05_12h34.26.003,jersey_experiment_5_v0,2023.2.2,Win32,85.47008547,,,,,,,,,,,,,,,,359.9354,361.2293,361.2293,362.5116,return,0.0783,,100,,,,,,FBP-RB-91.png,0.4,1.2,43,0.5,0,25,25,42,1,,,,,,,,,,,,,,,,,,,,,,,,,,,,,,,,,,,,,,,,
,,,,,SPR24_009,20,Female,2024-04-05_12h34.26.003,jersey_experiment_5_v0,2023.2.2,Win32,85.47008547,,,,,,,,,,,,,,,,362.5118,363.5588,363.5588,364.4881,return,0.0794,,100,,,,,,FBP-PT-91.png,0.4,1.2,58,0.25,0,26,26,57,1,,,,,,,,,,,,,,,,,,,,,,,,,,,,,,,,,,,,,,,,
,,,,,SPR24_009,20,Female,2024-04-05_12h34.26.003,jersey_experiment_5_v0,2023.2.2,Win32,85.47008547,,,,,,,,,,,,,,,,364.4884,365.5354,365.5354,368.359,return,0.2822,,99.609375,,,,,,FBP-PT-91.png,0.45,1.2,60,0.25,0,27,27,59,1,,,,,,,,,,,,,,,,,,,,,,,,,,,,,,,,,,,,,,,,
,,,,,SPR24_009,20,Female,2024-04-05_12h34.26.003,jersey_experiment_5_v0,2023.2.2,Win32,85.47008547,,,,,,,,,,,,,,,,368.3592,369.6533,369.6533,373.465,return,0.1083,,85.15625,,,,,,FBP-RB-71.png,0.43,1.2,34,0.5,0,28,28,33,1,,,,,,,,,,,,,,,,,,,,,,,,,,,,,,,,,,,,,,,,
,,,,,SPR24_009,20,Female,2024-04-05_12h34.26.003,jersey_experiment_5_v0,2023.2.2,Win32,85.47008547,,,,,,,,,,,,,,,,373.4653,374.5119,374.512,375.571,return,0.1223,,100,,,,,,FBP-PT-71.png,0.45,1.2,50,0.25,0,29,29,49,1,,,,,,,,,,,,,,,,,,,,,,,,,,,,,,,,,,,,,,,,
,,,,,SPR24_009,20,Female,2024-04-05_12h34.26.003,jersey_experiment_5_v0,2023.2.2,Win32,85.47008547,,,,,,,,,,,,,,,,375.5712,376.6179,376.618,378.5005,return,0.048,,74.86979167,,,,,,FBP-YG-91.png,0.37,1.2,27,0.25,0,30,30,26,1,,,,,,,,,,,,,,,,,,,,,,,,,,,,,,,,,,,,,,,,
,,,,,SPR24_009,20,Female,2024-04-05_12h34.26.003,jersey_experiment_5_v0,2023.2.2,Win32,85.47008547,,,,,,,,,,,,,,,,378.5007,379.5475,379.5475,381.2182,return,0.0756,,94.27083333,,,,,,FBP-YG-71.png,0.43,1.2,19,0.25,0,31,31,18,1,,,,,,,,,,,,,,,,,,,,,,,,,,,,,,,,,,,,,,,,
,,,,,SPR24_009,20,Female,2024-04-05_12h34.26.003,jersey_experiment_5_v0,2023.2.2,Win32,85.47008547,,,,,,,,,,,,,,,,381.2184,382.2653,382.2654,384.0067,return,0.2826,,75.13020833,,,,,,FBP-PT-91.png,0.37,1.2,57,0.25,0,32,32,56,1,,,,,,,,,,,,,,,,,,,,,,,,,,,,,,,,,,,,,,,,
,,,,,SPR24_009,20,Female,2024-04-05_12h34.26.003,jersey_experiment_5_v0,2023.2.2,Win32,85.47008547,,,,,,,,,,,,,,,,384.0069,385.3007,385.3008,387.6068,return,0.5894,,91.015625,,,,,,FBP-OG-17.png,0.45,1.2,5,0.5,0,33,33,4,1,,,,,,,,,,,,,,,,,,,,,,,,,,,,,,,,,,,,,,,,
,,,,,SPR24_009,20,Female,2024-04-05_12h34.26.003,jersey_experiment_5_v0,2023.2.2,Win32,85.47008547,,,,,,,,,,,,,,,,387.6071,388.6538,388.6538,389.8657,return,0.0712,,100,,,,,,FBP-PT-91.png,0.43,1.2,59,0.25,0,34,34,58,1,,,,,,,,,,,,,,,,,,,,,,,,,,,,,,,,,,,,,,,,
,,,,,SPR24_009,20,Female,2024-04-05_12h34.26.003,jersey_experiment_5_v0,2023.2.2,Win32,85.47008547,,,,,,,,,,,,,,,,389.8659,391.1598,391.1598,393.4069,return,0.3718,,74.86979167,,,,,,FBP-OG-18.png,0.37,1.2,7,0.5,0,35,35,6,1,,,,,,,,,,,,,,,,,,,,,,,,,,,,,,,,,,,,,,,,
,,,,,SPR24_009,20,Female,2024-04-05_12h34.26.003,jersey_experiment_5_v0,2023.2.2,Win32,85.47008547,,,,,,,,,,,,,,,,393.4071,394.7011,394.7012,395.6071,return,0.0702,,100,,,,,,FBP-RB-71.png,0.45,1.2,35,0.5,0,36,36,34,1,,,,,,,,,,,,,,,,,,,,,,,,,,,,,,,,,,,,,,,,
,,,,,SPR24_009,20,Female,2024-04-05_12h34.26.003,jersey_experiment_5_v0,2023.2.2,Win32,85.47008547,,,,,,,,,,,,,,,,395.6074,396.6541,396.6541,399.0895,return,0.1453,,93.48958333,,,,,,FBP-PT-81.png,0.43,1.2,54,0.25,0,37,37,53,1,,,,,,,,,,,,,,,,,,,,,,,,,,,,,,,,,,,,,,,,
,,,,,SPR24_009,20,Female,2024-04-05_12h34.26.003,jersey_experiment_5_v0,2023.2.2,Win32,85.47008547,,,,,,,,,,,,,,,,399.0898,400.3837,400.3838,403.078,return,0.6133,,74.47916667,,,,,,FBP-RB-71.png,0.37,1.2,32,0.5,0,38,38,31,1,,,,,,,,,,,,,,,,,,,,,,,,,,,,,,,,,,,,,,,,
,,,,,SPR24_009,20,Female,2024-04-05_12h34.26.003,jersey_experiment_5_v0,2023.2.2,Win32,85.47008547,,,,,,,,,,,,,,,,403.0782,404.372,404.3721,406.278,return,0.0719,,86.06770833,,,,,,FBP-OG-18.png,0.43,1.2,9,0.5,0,39,39,8,1,,,,,,,,,,,,,,,,,,,,,,,,,,,,,,,,,,,,,,,,
,,,,,SPR24_009,20,Female,2024-04-05_12h34.26.003,jersey_experiment_5_v0,2023.2.2,Win32,85.47008547,,,,,,,,,,,,,,,,406.2783,407.3251,407.3251,409.0899,return,0.0986,,25.390625,,,,,,FBP-YG-71.png,0.35,1.2,16,0.25,0,40,40,15,1,,,,,,,,,,,,,,,,,,,,,,,,,,,,,,,,,,,,,,,,
,,,,,SPR24_009,20,Female,2024-04-05_12h34.26.003,jersey_experiment_5_v0,2023.2.2,Win32,85.47008547,,,,,,,,,,,,,,,,409.09,410.1369,410.1369,412.4666,return,0.1323,,30.59895833,,,,,,FBP-PT-71.png,0.35,1.2,46,0.25,0,41,41,45,1,,,,,,,,,,,,,,,,,,,,,,,,,,,,,,,,,,,,,,,,
,,,,,SPR24_009,20,Female,2024-04-05_12h34.26.003,jersey_experiment_5_v0,2023.2.2,Win32,85.47008547,,,,,,,,,,,,,,,,412.4668,413.7608,413.7608,415.2666,return,0.0521,,74.47916667,,,,,,FBP-RB-91.png,0.45,1.2,45,0.5,0,42,42,44,1,,,,,,,,,,,,,,,,,,,,,,,,,,,,,,,,,,,,,,,,
,,,,,SPR24_009,20,Female,2024-04-05_12h34.26.003,jersey_experiment_5_v0,2023.2.2,Win32,85.47008547,,,,,,,,,,,,,,,,415.2669,416.5608,416.5609,420.4786,return,0.1148,,88.28125,,,,,,FBP-RB-81.png,0.43,1.2,39,0.5,0,43,43,38,1,,,,,,,,,,,,,,,,,,,,,,,,,,,,,,,,,,,,,,,,
,,,,,SPR24_009,20,Female,2024-04-05_12h34.26.003,jersey_experiment_5_v0,2023.2.2,Win32,85.47008547,,,,,,,,,,,,,,,,420.4788,421.7728,421.7728,423.4316,return,0.0234,,74.86979167,,,,,,FBP-OG-17.png,0.37,1.2,2,0.5,0,44,44,1,1,,,,,,,,,,,,,,,,,,,,,,,,,,,,,,,,,,,,,,,,
,,,,,SPR24_009,20,Female,2024-04-05_12h34.26.003,jersey_experiment_5_v0,2023.2.2,Win32,85.47008547,,,,,,,,,,,,,,,,423.4317,424.4787,424.4787,425.7964,return,0.0617,,100,,,,,,FBP-YG-91.png,0.43,1.2,29,0.25,0,45,45,28,1,,,,,,,,,,,,,,,,,,,,,,,,,,,,,,,,,,,,,,,,
,,,,,SPR24_009,20,Female,2024-04-05_12h34.26.003,jersey_experiment_5_v0,2023.2.2,Win32,85.47008547,,,,,,,,,,,,,,,,425.7967,427.0906,427.0907,429.0553,return,0.4644,,87.5,,,,,,FBP-OG-17.png,0.43,1.2,4,0.5,0,46,46,3,1,,,,,,,,,,,,,,,,,,,,,,,,,,,,,,,,,,,,,,,,
,,,,,SPR24_009,20,Female,2024-04-05_12h34.26.003,jersey_experiment_5_v0,2023.2.2,Win32,85.47008547,,,,,,,,,,,,,,,,429.0556,430.3494,430.3494,430.9849,return,0.118,,85.80729167,,,,,,FBP-OG-18.png,0.4,1.2,8,0.5,0,47,47,7,1,,,,,,,,,,,,,,,,,,,,,,,,,,,,,,,,,,,,,,,,
,,,,,SPR24_009,20,Female,2024-04-05_12h34.26.003,jersey_experiment_5_v0,2023.2.2,Win32,85.47008547,,,,,,,,,,,,,,,,430.9851,432.2791,432.2792,433.5614,return,0.2727,,86.97916667,,,,,,FBP-OG-19.png,0.4,1.2,13,0.5,0,48,48,12,1,,,,,,,,,,,,,,,,,,,,,,,,,,,,,,,,,,,,,,,,
,,,,,SPR24_009,20,Female,2024-04-05_12h34.26.003,jersey_experiment_5_v0,2023.2.2,Win32,85.47008547,,,,,,,,,,,,,,,,433.5617,434.6085,434.6085,438.3381,return,0.629,,49.73958333,,,,,,FBP-YG-81.png,0.37,1.2,22,0.25,0,49,49,21,1,,,,,,,,,,,,,,,,,,,,,,,,,,,,,,,,,,,,,,,,
,,,,,SPR24_009,20,Female,2024-04-05_12h34.26.003,jersey_experiment_5_v0,2023.2.2,Win32,85.47008547,,,,,,,,,,,,,,,,438.3383,439.6322,439.6323,442.5971,return,0.1089,,97.78645833,,,,,,FBP-RB-81.png,0.45,1.2,40,0.5,0,50,50,39,1,,,,,,,,,,,,,,,,,,,,,,,,,,,,,,,,,,,,,,,,
,,,,,SPR24_009,20,Female,2024-04-05_12h34.26.003,jersey_experiment_5_v0,2023.2.2,Win32,85.47008547,,,,,,,,,,,,,,,,442.5973,443.8912,443.8913,446.0562,return,0.0604,,75.26041667,,,,,,FBP-RB-71.png,0.4,1.2,33,0.5,0,51,51,32,1,,,,,,,,,,,,,,,,,,,,,,,,,,,,,,,,,,,,,,,,
,,,,,SPR24_009,20,Female,2024-04-05_12h34.26.003,jersey_experiment_5_v0,2023.2.2,Win32,85.47008547,,,,,,,,,,,,,,,,446.0565,447.1031,447.1032,448.6797,return,0.1176,,84.50520833,,,,,,FBP-YG-91.png,0.4,1.2,28,0.25,0,52,52,27,1,,,,,,,,,,,,,,,,,,,,,,,,,,,,,,,,,,,,,,,,
,,,,,SPR24_009,20,Female,2024-04-05_12h34.26.003,jersey_experiment_5_v0,2023.2.2,Win32,85.47008547,,,,,,,,,,,,,,,,448.6799,449.9738,449.9738,450.8327,return,0.123,,100,,,,,,FBP-OG-18.png,0.45,1.2,10,0.5,0,53,53,9,1,,,,,,,,,,,,,,,,,,,,,,,,,,,,,,,,,,,,,,,,
,,,,,SPR24_009,20,Female,2024-04-05_12h34.26.003,jersey_experiment_5_v0,2023.2.2,Win32,85.47008547,,,,,,,,,,,,,,,,450.833,452.1268,452.1269,453.2327,return,0.066,,100,,,,,,FBP-OG-19.png,0.45,1.2,15,0.5,0,54,54,14,1,,,,,,,,,,,,,,,,,,,,,,,,,,,,,,,,,,,,,,,,
,,,,,SPR24_009,20,Female,2024-04-05_12h34.26.003,jersey_experiment_5_v0,2023.2.2,Win32,85.47008547,,,,,,,,,,,,,,,,453.233,454.2797,454.2797,455.2681,return,0.0501,,100,,,,,,FBP-YG-71.png,0.45,1.2,20,0.25,0,55,55,19,1,,,,,,,,,,,,,,,,,,,,,,,,,,,,,,,,,,,,,,,,
,,,,,SPR24_009,20,Female,2024-04-05_12h34.26.003,jersey_experiment_5_v0,2023.2.2,Win32,85.47008547,,,,,,,,,,,,,,,,455.2683,456.3151,456.3151,458.0211,return,0.3081,,76.5625,,,,,,FBP-YG-81.png,0.4,1.2,23,0.25,0,56,56,22,1,,,,,,,,,,,,,,,,,,,,,,,,,,,,,,,,,,,,,,,,
,,,,,SPR24_009,20,Female,2024-04-05_12h34.26.003,jersey_experiment_5_v0,2023.2.2,Win32,85.47008547,,,,,,,,,,,,,,,,458.0213,459.3153,459.3154,460.7742,return,0.0816,,86.19791667,,,,,,FBP-RB-91.png,0.43,1.2,44,0.5,0,57,57,43,1,,,,,,,,,,,,,,,,,,,,,,,,,,,,,,,,,,,,,,,,
,,,,,SPR24_009,20,Female,2024-04-05_12h34.26.003,jersey_experiment_5_v0,2023.2.2,Win32,85.47008547,,,,,,,,,,,,,,,,460.7743,461.8213,461.8213,464.3389,return,1.0281,,81.77083333,,,,,,FBP-PT-71.png,0.37,1.2,47,0.25,0,58,58,46,1,,,,,,,,,,,,,,,,,,,,,,,,,,,,,,,,,,,,,,,,
,,,,,SPR24_009,20,Female,2024-04-05_12h34.26.003,jersey_experiment_5_v0,2023.2.2,Win32,85.47008547,,,,,,,,,,,,,,,,464.3391,465.3861,465.3861,467.4451,return,0.0856,,24.609375,,,,,,FBP-PT-91.png,0.35,1.2,56,0.25,0,59,59,55,1,,,,,,,,,,,,,,,,,,,,,,,,,,,,,,,,,,,,,,,,
,,,,,SPR24_009,20,Female,2024-04-05_12h34.26.003,jersey_experiment_5_v0,2023.2.2,Win32,85.47008547,,,,,,,,,,,,,,,,,,,,,,,,,,,,,,,,,,,,,,,467.4454,587.4381,,,,,,,,,,,,,,,,,,,,,,,,,,,,,,,,,,,,,,
,,,,,SPR24_009,20,Female,2024-04-05_12h34.26.003,jersey_experiment_5_v0,2023.2.2,Win32,85.47008547,,,,,,,,,,,,,,,,,,,,,,,,,,,,,,,,,,,,,,,,,587.4381,593.0734,return,5.6278,,,,,,,,,,,,,,,,,,,,,,,,,,,,,,,,,,
,,,,,SPR24_009,20,Female,2024-04-05_12h34.26.003,jersey_experiment_5_v0,2023.2.2,Win32,85.47008547,,,,,,,,,,,,,,,,593.0792,594.3792,594.3793,599.097,return,1.9669,,91.015625,,,,,,FBP-PT-19.png,0.45,1.2,60,0.5,,,,,,,,,,,,,0,0,0,59,1,,,,,,,,,,,,,,,,,,,,,,,,,,,,
,,,,,SPR24_009,20,Female,2024-04-05_12h34.26.003,jersey_experiment_5_v0,2023.2.2,Win32,85.47008547,,,,,,,,,,,,,,,,599.0972,600.1441,600.1441,603.156,return,0.1782,,49.47916667,,,,,,FBP-RB-17.png,0.37,1.2,32,0.25,,,,,,,,,,,,,0,1,1,31,1,,,,,,,,,,,,,,,,,,,,,,,,,,,,
,,,,,SPR24_009,20,Female,2024-04-05_12h34.26.003,jersey_experiment_5_v0,2023.2.2,Win32,85.47008547,,,,,,,,,,,,,,,,603.1562,604.2031,604.2032,605.8973,return,0.0616,,39.32291667,,,,,,FBP-RB-17.png,0.35,1.2,31,0.25,,,,,,,,,,,,,0,2,2,30,1,,,,,,,,,,,,,,,,,,,,,,,,,,,,
,,,,,SPR24_009,20,Female,2024-04-05_12h34.26.003,jersey_experiment_5_v0,2023.2.2,Win32,85.47008547,,,,,,,,,,,,,,,,605.8975,606.9446,606.9447,613.5213,return,0.1595,,92.05729167,,,,,,FBP-RB-19.png,0.45,1.2,45,0.25,,,,,,,,,,,,,0,3,3,44,1,,,,,,,,,,,,,,,,,,,,,,,,,,,,
,,,,,SPR24_009,20,Female,2024-04-05_12h34.26.003,jersey_experiment_5_v0,2023.2.2,Win32,85.47008547,,,,,,,,,,,,,,,,613.5214,614.8155,614.8155,616.1448,return,0.0775,,74.47916667,,,,,,FBP-PT-18.png,0.37,1.2,52,0.5,,,,,,,,,,,,,0,4,4,51,1,,,,,,,,,,,,,,,,,,,,,,,,,,,,
,,,,,SPR24_009,20,Female,2024-04-05_12h34.26.003,jersey_experiment_5_v0,2023.2.2,Win32,85.47008547,,,,,,,,,,,,,,,,616.1448,617.1919,617.1919,619.0743,return,0.0877,,86.06770833,,,,,,FBP-RB-18.png,0.4,1.2,38,0.25,,,,,,,,,,,,,0,5,5,37,1,,,,,,,,,,,,,,,,,,,,,,,,,,,,
,,,,,SPR24_009,20,Female,2024-04-05_12h34.26.003,jersey_experiment_5_v0,2023.2.2,Win32,85.47008547,,,,,,,,,,,,,,,,619.0745,620.1214,620.1214,622.3098,return,0.1193,,36.19791667,,,,,,FBP-RB-19.png,0.35,1.2,41,0.25,,,,,,,,,,,,,0,6,6,40,1,,,,,,,,,,,,,,,,,,,,,,,,,,,,
,,,,,SPR24_009,20,Female,2024-04-05_12h34.26.003,jersey_experiment_5_v0,2023.2.2,Win32,85.47008547,,,,,,,,,,,,,,,,622.3101,623.6039,623.604,625.6039,return,0.1215,,78.125,,,,,,FBP-PT-17.png,0.4,1.2,48,0.5,,,,,,,,,,,,,0,7,7,47,1,,,,,,,,,,,,,,,,,,,,,,,,,,,,
,,,,,SPR24_009,20,Female,2024-04-05_12h34.26.003,jersey_experiment_5_v0,2023.2.2,Win32,85.47008547,,,,,,,,,,,,,,,,625.6042,626.898,626.898,627.9687,return,0.2162,,94.140625,,,,,,FBP-PT-17.png,0.43,1.2,49,0.5,,,,,,,,,,,,,0,8,8,48,1,,,,,,,,,,,,,,,,,,,,,,,,,,,,
,,,,,SPR24_009,20,Female,2024-04-05_12h34.26.003,jersey_experiment_5_v0,2023.2.2,Win32,85.47008547,,,,,,,,,,,,,,,,627.9689,629.0158,629.0158,630.5807,return,0.25,,64.32291667,,,,,,FBP-OG-71.png,0.35,1.2,1,0.25,,,,,,,,,,,,,0,9,9,0,1,,,,,,,,,,,,,,,,,,,,,,,,,,,,
,,,,,SPR24_009,20,Female,2024-04-05_12h34.26.003,jersey_experiment_5_v0,2023.2.2,Win32,85.47008547,,,,,,,,,,,,,,,,630.5808,631.8748,631.8748,632.71,return,0.1291,,64.84375,,,,,,FBP-YG-17.png,0.35,1.2,16,0.5,,,,,,,,,,,,,0,10,10,15,1,,,,,,,,,,,,,,,,,,,,,,,,,,,,
,,,,,SPR24_009,20,Female,2024-04-05_12h34.26.003,jersey_experiment_5_v0,2023.2.2,Win32,85.47008547,,,,,,,,,,,,,,,,632.7102,633.7572,633.7573,634.9454,return,0.1237,,81.51041667,,,,,,FBP-OG-91.png,0.4,1.2,13,0.25,,,,,,,,,,,,,0,11,11,12,1,,,,,,,,,,,,,,,,,,,,,,,,,,,,
,,,,,SPR24_009,20,Female,2024-04-05_12h34.26.003,jersey_experiment_5_v0,2023.2.2,Win32,85.47008547,,,,,,,,,,,,,,,,634.9456,635.9926,635.9926,637.3809,return,0.1794,,81.51041667,,,,,,FBP-OG-71.png,0.37,1.2,2,0.25,,,,,,,,,,,,,0,12,12,1,1,,,,,,,,,,,,,,,,,,,,,,,,,,,,
,,,,,SPR24_009,20,Female,2024-04-05_12h34.26.003,jersey_experiment_5_v0,2023.2.2,Win32,85.47008547,,,,,,,,,,,,,,,,637.3811,638.6749,638.6749,639.6515,return,0.122,,100,,,,,,FBP-YG-17.png,0.45,1.2,20,0.5,,,,,,,,,,,,,0,13,13,19,1,,,,,,,,,,,,,,,,,,,,,,,,,,,,
,,,,,SPR24_009,20,Female,2024-04-05_12h34.26.003,jersey_experiment_5_v0,2023.2.2,Win32,85.47008547,,,,,,,,,,,,,,,,639.6516,640.699,640.699,643.4634,return,0.0473,,74.86979167,,,,,,FBP-RB-19.png,0.37,1.2,42,0.25,,,,,,,,,,,,,0,14,14,41,1,,,,,,,,,,,,,,,,,,,,,,,,,,,,
,,,,,SPR24_009,20,Female,2024-04-05_12h34.26.003,jersey_experiment_5_v0,2023.2.2,Win32,85.47008547,,,,,,,,,,,,,,,,643.4635,644.5106,644.5106,645.593,return,0.0613,,100,,,,,,FBP-RB-17.png,0.43,1.2,34,0.25,,,,,,,,,,,,,0,15,15,33,1,,,,,,,,,,,,,,,,,,,,,,,,,,,,
,,,,,SPR24_009,20,Female,2024-04-05_12h34.26.003,jersey_experiment_5_v0,2023.2.2,Win32,85.47008547,,,,,,,,,,,,,,,,645.5931,646.8871,646.8871,647.593,return,0.0246,,100,,,,,,FBP-YG-18.png,0.45,1.2,25,0.5,,,,,,,,,,,,,0,16,16,24,1,,,,,,,,,,,,,,,,,,,,,,,,,,,,
,,,,,SPR24_009,20,Female,2024-04-05_12h34.26.003,jersey_experiment_5_v0,2023.2.2,Win32,85.47008547,,,,,,,,,,,,,,,,647.5932,648.8874,648.8874,650.2755,return,0.1198,,74.21875,,,,,,FBP-YG-19.png,0.37,1.2,27,0.5,,,,,,,,,,,,,0,17,17,26,1,,,,,,,,,,,,,,,,,,,,,,,,,,,,
,,,,,SPR24_009,20,Female,2024-04-05_12h34.26.003,jersey_experiment_5_v0,2023.2.2,Win32,85.47008547,,,,,,,,,,,,,,,,650.2757,651.3227,651.3229,652.5108,return,0.1384,,85.80729167,,,,,,FBP-RB-19.png,0.4,1.2,43,0.25,,,,,,,,,,,,,0,18,18,42,1,,,,,,,,,,,,,,,,,,,,,,,,,,,,
,,,,,SPR24_009,20,Female,2024-04-05_12h34.26.003,jersey_experiment_5_v0,2023.2.2,Win32,85.47008547,,,,,,,,,,,,,,,,652.5109,653.8052,653.8053,654.7227,return,0.205,,81.38020833,,,,,,FBP-YG-19.png,0.4,1.2,28,0.5,,,,,,,,,,,,,0,19,19,27,1,,,,,,,,,,,,,,,,,,,,,,,,,,,,
,,,,,SPR24_009,20,Female,2024-04-05_12h34.26.003,jersey_experiment_5_v0,2023.2.2,Win32,85.47008547,,,,,,,,,,,,,,,,654.7229,656.0167,656.0168,656.7934,return,0.108,,84.11458333,,,,,,FBP-YG-17.png,0.4,1.2,18,0.5,,,,,,,,,,,,,0,20,20,17,1,,,,,,,,,,,,,,,,,,,,,,,,,,,,
,,,,,SPR24_009,20,Female,2024-04-05_12h34.26.003,jersey_experiment_5_v0,2023.2.2,Win32,85.47008547,,,,,,,,,,,,,,,,656.7936,657.8404,657.8404,661.6994,return,0.0982,,75.390625,,,,,,FBP-OG-81.png,0.37,1.2,7,0.25,,,,,,,,,,,,,0,21,21,6,1,,,,,,,,,,,,,,,,,,,,,,,,,,,,
,,,,,SPR24_009,20,Female,2024-04-05_12h34.26.003,jersey_experiment_5_v0,2023.2.2,Win32,85.47008547,,,,,,,,,,,,,,,,661.6995,662.9935,662.9935,663.8171,return,0.1414,,88.02083333,,,,,,FBP-PT-18.png,0.43,1.2,54,0.5,,,,,,,,,,,,,0,22,22,53,1,,,,,,,,,,,,,,,,,,,,,,,,,,,,
,,,,,SPR24_009,20,Female,2024-04-05_12h34.26.003,jersey_experiment_5_v0,2023.2.2,Win32,85.47008547,,,,,,,,,,,,,,,,663.8172,665.1114,665.1114,666.8173,return,0.2398,,92.31770833,,,,,,FBP-YG-18.png,0.43,1.2,24,0.5,,,,,,,,,,,,,0,23,23,23,1,,,,,,,,,,,,,,,,,,,,,,,,,,,,
,,,,,SPR24_009,20,Female,2024-04-05_12h34.26.003,jersey_experiment_5_v0,2023.2.2,Win32,85.47008547,,,,,,,,,,,,,,,,666.8174,667.8643,667.8643,671.3351,return,0.1556,,73.95833333,,,,,,FBP-RB-18.png,0.37,1.2,37,0.25,,,,,,,,,,,,,0,24,24,36,1,,,,,,,,,,,,,,,,,,,,,,,,,,,,
,,,,,SPR24_009,20,Female,2024-04-05_12h34.26.003,jersey_experiment_5_v0,2023.2.2,Win32,85.47008547,,,,,,,,,,,,,,,,671.3352,672.6292,672.6292,674.4176,return,0.0978,,90.625,,,,,,FBP-YG-18.png,0.4,1.2,23,0.5,,,,,,,,,,,,,0,25,25,22,1,,,,,,,,,,,,,,,,,,,,,,,,,,,,
,,,,,SPR24_009,20,Female,2024-04-05_12h34.26.003,jersey_experiment_5_v0,2023.2.2,Win32,85.47008547,,,,,,,,,,,,,,,,674.4178,675.4645,675.4646,676.5354,return,0.0954,,100,,,,,,FBP-RB-17.png,0.45,1.2,35,0.25,,,,,,,,,,,,,0,26,26,34,1,,,,,,,,,,,,,,,,,,,,,,,,,,,,
,,,,,SPR24_009,20,Female,2024-04-05_12h34.26.003,jersey_experiment_5_v0,2023.2.2,Win32,85.47008547,,,,,,,,,,,,,,,,676.5356,677.8295,677.8296,678.7708,return,0.0503,,74.34895833,,,,,,FBP-PT-19.png,0.37,1.2,57,0.5,,,,,,,,,,,,,0,27,27,56,1,,,,,,,,,,,,,,,,,,,,,,,,,,,,
,,,,,SPR24_009,20,Female,2024-04-05_12h34.26.003,jersey_experiment_5_v0,2023.2.2,Win32,85.47008547,,,,,,,,,,,,,,,,678.771,680.0648,680.0648,681.6414,return,0.0945,,90.234375,,,,,,FBP-PT-19.png,0.43,1.2,59,0.5,,,,,,,,,,,,,0,28,28,58,1,,,,,,,,,,,,,,,,,,,,,,,,,,,,
,,,,,SPR24_009,20,Female,2024-04-05_12h34.26.003,jersey_experiment_5_v0,2023.2.2,Win32,85.47008547,,,,,,,,,,,,,,,,681.6416,682.9356,682.9356,685.7827,return,0.235,,45.05208333,,,,,,FBP-PT-18.png,0.35,1.2,51,0.5,,,,,,,,,,,,,0,29,29,50,1,,,,,,,,,,,,,,,,,,,,,,,,,,,,
,,,,,SPR24_009,20,Female,2024-04-05_12h34.26.003,jersey_experiment_5_v0,2023.2.2,Win32,85.47008547,,,,,,,,,,,,,,,,685.7829,687.0768,687.0769,688.8181,return,0.0749,,74.73958333,,,,,,FBP-PT-18.png,0.4,1.2,53,0.5,,,,,,,,,,,,,0,30,30,52,1,,,,,,,,,,,,,,,,,,,,,,,,,,,,
,,,,,SPR24_009,20,Female,2024-04-05_12h34.26.003,jersey_experiment_5_v0,2023.2.2,Win32,85.47008547,,,,,,,,,,,,,,,,688.8183,689.865,689.865,691.0417,return,0.2046,,94.01041667,,,,,,FBP-OG-81.png,0.45,1.2,10,0.25,,,,,,,,,,,,,0,31,31,9,1,,,,,,,,,,,,,,,,,,,,,,,,,,,,
,,,,,SPR24_009,20,Female,2024-04-05_12h34.26.003,jersey_experiment_5_v0,2023.2.2,Win32,85.47008547,,,,,,,,,,,,,,,,691.0419,692.0889,692.0889,693.5124,return,0.0805,,94.27083333,,,,,,FBP-OG-91.png,0.43,1.2,14,0.25,,,,,,,,,,,,,0,32,32,13,1,,,,,,,,,,,,,,,,,,,,,,,,,,,,
,,,,,SPR24_009,20,Female,2024-04-05_12h34.26.003,jersey_experiment_5_v0,2023.2.2,Win32,85.47008547,,,,,,,,,,,,,,,,693.5126,694.5594,694.5595,695.3948,return,0.0992,,94.27083333,,,,,,FBP-OG-71.png,0.43,1.2,4,0.25,,,,,,,,,,,,,0,33,33,3,1,,,,,,,,,,,,,,,,,,,,,,,,,,,,
,,,,,SPR24_009,20,Female,2024-04-05_12h34.26.003,jersey_experiment_5_v0,2023.2.2,Win32,85.47008547,,,,,,,,,,,,,,,,695.3949,696.4419,696.442,697.4302,return,0.0368,,100,,,,,,FBP-RB-19.png,0.43,1.2,44,0.25,,,,,,,,,,,,,0,34,34,43,1,,,,,,,,,,,,,,,,,,,,,,,,,,,,
,,,,,SPR24_009,20,Female,2024-04-05_12h34.26.003,jersey_experiment_5_v0,2023.2.2,Win32,85.47008547,,,,,,,,,,,,,,,,697.4303,698.7244,698.7245,700.3244,return,0.0856,,49.47916667,,,,,,FBP-YG-19.png,0.35,1.2,26,0.5,,,,,,,,,,,,,0,35,35,25,1,,,,,,,,,,,,,,,,,,,,,,,,,,,,
,,,,,SPR24_009,20,Female,2024-04-05_12h34.26.003,jersey_experiment_5_v0,2023.2.2,Win32,85.47008547,,,,,,,,,,,,,,,,700.3247,701.3714,701.3714,703.7598,return,0.006,,81.11979167,,,,,,FBP-OG-81.png,0.43,1.2,9,0.25,,,,,,,,,,,,,0,36,36,8,1,,,,,,,,,,,,,,,,,,,,,,,,,,,,
,,,,,SPR24_009,20,Female,2024-04-05_12h34.26.003,jersey_experiment_5_v0,2023.2.2,Win32,85.47008547,,,,,,,,,,,,,,,,703.7601,704.8069,704.8069,710.6306,return,0.3767,,15.49479167,,,,,,FBP-OG-81.png,0.35,1.2,6,0.25,,,,,,,,,,,,,0,37,37,5,1,,,,,,,,,,,,,,,,,,,,,,,,,,,,
,,,,,SPR24_009,20,Female,2024-04-05_12h34.26.003,jersey_experiment_5_v0,2023.2.2,Win32,85.47008547,,,,,,,,,,,,,,,,710.6308,711.6778,711.6778,713.4072,return,0.1243,,78.64583333,,,,,,FBP-OG-71.png,0.45,1.2,5,0.25,,,,,,,,,,,,,0,38,38,4,1,,,,,,,,,,,,,,,,,,,,,,,,,,,,
,,,,,SPR24_009,20,Female,2024-04-05_12h34.26.003,jersey_experiment_5_v0,2023.2.2,Win32,85.47008547,,,,,,,,,,,,,,,,713.4074,714.4544,714.4544,715.5367,return,0.2293,,80.46875,,,,,,FBP-OG-81.png,0.4,1.2,8,0.25,,,,,,,,,,,,,0,39,39,7,1,,,,,,,,,,,,,,,,,,,,,,,,,,,,
,,,,,SPR24_009,20,Female,2024-04-05_12h34.26.003,jersey_experiment_5_v0,2023.2.2,Win32,85.47008547,,,,,,,,,,,,,,,,715.5369,716.5839,716.5839,719.29,return,0.1182,,24.47916667,,,,,,FBP-RB-18.png,0.35,1.2,36,0.25,,,,,,,,,,,,,0,40,40,35,1,,,,,,,,,,,,,,,,,,,,,,,,,,,,
,,,,,SPR24_009,20,Female,2024-04-05_12h34.26.003,jersey_experiment_5_v0,2023.2.2,Win32,85.47008547,,,,,,,,,,,,,,,,719.2902,720.5843,720.5843,722.9135,return,1.1567,,50.13020833,,,,,,FBP-PT-19.png,0.4,1.2,58,0.5,,,,,,,,,,,,,0,41,41,57,1,,,,,,,,,,,,,,,,,,,,,,,,,,,,
,,,,,SPR24_009,20,Female,2024-04-05_12h34.26.003,jersey_experiment_5_v0,2023.2.2,Win32,85.47008547,,,,,,,,,,,,,,,,722.9137,724.2077,724.2077,726.2783,return,0.0379,,49.86979167,,,,,,FBP-YG-17.png,0.37,1.2,17,0.5,,,,,,,,,,,,,0,42,42,16,1,,,,,,,,,,,,,,,,,,,,,,,,,,,,
,,,,,SPR24_009,20,Female,2024-04-05_12h34.26.003,jersey_experiment_5_v0,2023.2.2,Win32,85.47008547,,,,,,,,,,,,,,,,726.2786,727.5725,727.5726,729.4902,return,0.0758,,93.75,,,,,,FBP-YG-19.png,0.45,1.2,30,0.5,,,,,,,,,,,,,0,43,43,29,1,,,,,,,,,,,,,,,,,,,,,,,,,,,,
,,,,,SPR24_009,20,Female,2024-04-05_12h34.26.003,jersey_experiment_5_v0,2023.2.2,Win32,85.47008547,,,,,,,,,,,,,,,,729.4905,730.5373,730.5373,731.6314,return,0.1732,,100,,,,,,FBP-RB-18.png,0.45,1.2,40,0.25,,,,,,,,,,,,,0,44,44,39,1,,,,,,,,,,,,,,,,,,,,,,,,,,,,
,,,,,SPR24_009,20,Female,2024-04-05_12h34.26.003,jersey_experiment_5_v0,2023.2.2,Win32,85.47008547,,,,,,,,,,,,,,,,731.6315,732.6784,732.6784,733.7962,return,0.0506,,100,,,,,,FBP-RB-18.png,0.43,1.2,39,0.25,,,,,,,,,,,,,0,45,45,38,1,,,,,,,,,,,,,,,,,,,,,,,,,,,,
,,,,,SPR24_009,20,Female,2024-04-05_12h34.26.003,jersey_experiment_5_v0,2023.2.2,Win32,85.47008547,,,,,,,,,,,,,,,,733.7964,735.0905,735.0906,737.9731,return,0.1317,,40.10416667,,,,,,FBP-PT-17.png,0.35,1.2,46,0.5,,,,,,,,,,,,,0,46,46,45,1,,,,,,,,,,,,,,,,,,,,,,,,,,,,
,,,,,SPR24_009,20,Female,2024-04-05_12h34.26.003,jersey_experiment_5_v0,2023.2.2,Win32,85.47008547,,,,,,,,,,,,,,,,737.9734,739.2673,739.2673,741.9613,return,0.1412,,86.58854167,,,,,,FBP-PT-18.png,0.45,1.2,55,0.5,,,,,,,,,,,,,0,47,47,54,1,,,,,,,,,,,,,,,,,,,,,,,,,,,,
,,,,,SPR24_009,20,Female,2024-04-05_12h34.26.003,jersey_experiment_5_v0,2023.2.2,Win32,85.47008547,,,,,,,,,,,,,,,,741.9614,743.0084,743.0084,743.7612,return,0.0513,,85.546875,,,,,,FBP-OG-71.png,0.4,1.2,3,0.25,,,,,,,,,,,,,0,48,48,2,1,,,,,,,,,,,,,,,,,,,,,,,,,,,,
,,,,,SPR24_009,20,Female,2024-04-05_12h34.26.003,jersey_experiment_5_v0,2023.2.2,Win32,85.47008547,,,,,,,,,,,,,,,,743.7614,745.0554,745.0554,747.1378,return,0.1471,,86.84895833,,,,,,FBP-YG-17.png,0.43,1.2,19,0.5,,,,,,,,,,,,,0,49,49,18,1,,,,,,,,,,,,,,,,,,,,,,,,,,,,
,,,,,SPR24_009,20,Female,2024-04-05_12h34.26.003,jersey_experiment_5_v0,2023.2.2,Win32,85.47008547,,,,,,,,,,,,,,,,747.1379,748.432,748.4321,749.585,return,0.0397,,59.89583333,,,,,,FBP-PT-17.png,0.37,1.2,47,0.5,,,,,,,,,,,,,0,50,50,46,1,,,,,,,,,,,,,,,,,,,,,,,,,,,,
,,,,,SPR24_009,20,Female,2024-04-05_12h34.26.003,jersey_experiment_5_v0,2023.2.2,Win32,85.47008547,,,,,,,,,,,,,,,,749.5852,750.8792,750.8792,753.0796,return,0.729,,82.55208333,,,,,,FBP-YG-19.png,0.43,1.2,29,0.5,,,,,,,,,,,,,0,51,51,28,1,,,,,,,,,,,,,,,,,,,,,,,,,,,,
,,,,,SPR24_009,20,Female,2024-04-05_12h34.26.003,jersey_experiment_5_v0,2023.2.2,Win32,85.47008547,,,,,,,,,,,,,,,,753.0798,754.3736,754.3736,756.4089,return,0.0106,,75.52083333,,,,,,FBP-PT-17.png,0.45,1.2,50,0.5,,,,,,,,,,,,,0,52,52,49,1,,,,,,,,,,,,,,,,,,,,,,,,,,,,
,,,,,SPR24_009,20,Female,2024-04-05_12h34.26.003,jersey_experiment_5_v0,2023.2.2,Win32,85.47008547,,,,,,,,,,,,,,,,756.409,757.4561,757.4561,758.456,return,0.0704,,91.53645833,,,,,,FBP-OG-91.png,0.45,1.2,15,0.25,,,,,,,,,,,,,0,53,53,14,1,,,,,,,,,,,,,,,,,,,,,,,,,,,,
,,,,,SPR24_009,20,Female,2024-04-05_12h34.26.003,jersey_experiment_5_v0,2023.2.2,Win32,85.47008547,,,,,,,,,,,,,,,,758.4563,759.5032,759.5032,761.6795,return,0.0894,,63.671875,,,,,,FBP-OG-91.png,0.35,1.2,11,0.25,,,,,,,,,,,,,0,54,54,10,1,,,,,,,,,,,,,,,,,,,,,,,,,,,,
,,,,,SPR24_009,20,Female,2024-04-05_12h34.26.003,jersey_experiment_5_v0,2023.2.2,Win32,85.47008547,,,,,,,,,,,,,,,,761.6797,762.7266,762.7267,763.809,return,0.0996,,65.75520833,,,,,,FBP-OG-91.png,0.37,1.2,12,0.25,,,,,,,,,,,,,0,55,55,11,1,,,,,,,,,,,,,,,,,,,,,,,,,,,,
,,,,,SPR24_009,20,Female,2024-04-05_12h34.26.003,jersey_experiment_5_v0,2023.2.2,Win32,85.47008547,,,,,,,,,,,,,,,,763.8093,765.1033,765.1033,766.2799,return,0.1886,,69.53125,,,,,,FBP-YG-18.png,0.37,1.2,22,0.5,,,,,,,,,,,,,0,56,56,21,1,,,,,,,,,,,,,,,,,,,,,,,,,,,,
,,,,,SPR24_009,20,Female,2024-04-05_12h34.26.003,jersey_experiment_5_v0,2023.2.2,Win32,85.47008547,,,,,,,,,,,,,,,,766.2801,767.5741,767.5741,768.2445,return,0.3328,,69.53125,,,,,,FBP-PT-19.png,0.35,1.2,56,0.5,,,,,,,,,,,,,0,57,57,55,1,,,,,,,,,,,,,,,,,,,,,,,,,,,,
,,,,,SPR24_009,20,Female,2024-04-05_12h34.26.003,jersey_experiment_5_v0,2023.2.2,Win32,85.47008547,,,,,,,,,,,,,,,,768.2446,769.2918,769.2918,771.2564,return,0.0804,,91.66666667,,,,,,FBP-RB-17.png,0.4,1.2,33,0.25,,,,,,,,,,,,,0,58,58,32,1,,,,,,,,,,,,,,,,,,,,,,,,,,,,
,,,,,SPR24_009,20,Female,2024-04-05_12h34.26.003,jersey_experiment_5_v0,2023.2.2,Win32,85.47008547,,,,,,,,,,,,,,,,771.2566,772.5505,772.5506,773.9743,return,0.3198,,69.79166667,,,,,,FBP-YG-18.png,0.35,1.2,21,0.5,,,,,,,,,,,,,0,59,59,20,1,,,,,,,,,,,,,,,,,,,,,,,,,,,,
,,,,,SPR24_009,20,Female,2024-04-05_12h34.26.003,jersey_experiment_5_v0,2023.2.2,Win32,85.47008547,,,,,,,,,,,,,,,,773.9762,775.2682,775.2683,777.4803,return,1.201,,72.39583333,,,,,,FBP-YG-71.png,0.37,1.2,17,0.5,,,,,,,,,,,,,,,,,,0,0,0,16,1,,,,,,,,,,,,,,,,,,,,,,,
,,,,,SPR24_009,20,Female,2024-04-05_12h34.26.003,jersey_experiment_5_v0,2023.2.2,Win32,85.47008547,,,,,,,,,,,,,,,,777.4806,778.5273,778.5273,779.2567,return,0.0806,,72.52604167,,,,,,FBP-RB-71.png,0.37,1.2,32,0.25,,,,,,,,,,,,,,,,,,0,1,1,31,1,,,,,,,,,,,,,,,,,,,,,,,
,,,,,SPR24_009,20,Female,2024-04-05_12h34.26.003,jersey_experiment_5_v0,2023.2.2,Win32,85.47008547,,,,,,,,,,,,,,,,779.2569,780.3039,780.3039,781.0804,return,0.0608,,72.52604167,,,,,,FBP-RB-91.png,0.37,1.2,42,0.25,,,,,,,,,,,,,,,,,,0,2,2,41,1,,,,,,,,,,,,,,,,,,,,,,,
,,,,,SPR24_009,20,Female,2024-04-05_12h34.26.003,jersey_experiment_5_v0,2023.2.2,Win32,85.47008547,,,,,,,,,,,,,,,,781.0806,782.1274,782.1275,784.9628,return,0.0404,,93.09895833,,,,,,FBP-OG-19.png,0.43,1.2,14,0.25,,,,,,,,,,,,,,,,,,0,3,3,13,1,,,,,,,,,,,,,,,,,,,,,,,
,,,,,SPR24_009,20,Female,2024-04-05_12h34.26.003,jersey_experiment_5_v0,2023.2.2,Win32,85.47008547,,,,,,,,,,,,,,,,784.9631,786.01,786.0101,787.0099,return,0.0743,,100,,,,,,FBP-RB-71.png,0.45,1.2,35,0.25,,,,,,,,,,,,,,,,,,0,4,4,34,1,,,,,,,,,,,,,,,,,,,,,,,
,,,,,SPR24_009,20,Female,2024-04-05_12h34.26.003,jersey_experiment_5_v0,2023.2.2,Win32,85.47008547,,,,,,,,,,,,,,,,787.0102,788.0571,788.0571,788.7748,return,0.0602,,100,,,,,,FBP-RB-71.png,0.43,1.2,34,0.25,,,,,,,,,,,,,,,,,,0,5,5,33,1,,,,,,,,,,,,,,,,,,,,,,,
,,,,,SPR24_009,20,Female,2024-04-05_12h34.26.003,jersey_experiment_5_v0,2023.2.2,Win32,85.47008547,,,,,,,,,,,,,,,,788.775,789.8221,789.8221,791.5281,return,0.1081,,50.65104167,,,,,,FBP-RB-81.png,0.35,1.2,36,0.25,,,,,,,,,,,,,,,,,,0,6,6,35,1,,,,,,,,,,,,,,,,,,,,,,,
,,,,,SPR24_009,20,Female,2024-04-05_12h34.26.003,jersey_experiment_5_v0,2023.2.2,Win32,85.47008547,,,,,,,,,,,,,,,,791.5283,792.575,792.575,793.9517,return,0.0066,,74.47916667,,,,,,FBP-OG-17.png,0.37,1.2,2,0.25,,,,,,,,,,,,,,,,,,0,7,7,1,1,,,,,,,,,,,,,,,,,,,,,,,
,,,,,SPR24_009,20,Female,2024-04-05_12h34.26.003,jersey_experiment_5_v0,2023.2.2,Win32,85.47008547,,,,,,,,,,,,,,,,793.9518,795.2456,795.2456,797.0458,return,0.1532,,75.91145833,,,,,,FBP-PT-71.png,0.37,1.2,47,0.5,,,,,,,,,,,,,,,,,,0,8,8,46,1,,,,,,,,,,,,,,,,,,,,,,,
,,,,,SPR24_009,20,Female,2024-04-05_12h34.26.003,jersey_experiment_5_v0,2023.2.2,Win32,85.47008547,,,,,,,,,,,,,,,,797.0459,798.3398,798.3398,800.3752,return,0.6349,,66.14583333,,,,,,FBP-PT-71.png,0.35,1.2,46,0.5,,,,,,,,,,,,,,,,,,0,9,9,45,1,,,,,,,,,,,,,,,,,,,,,,,
,,,,,SPR24_009,20,Female,2024-04-05_12h34.26.003,jersey_experiment_5_v0,2023.2.2,Win32,85.47008547,,,,,,,,,,,,,,,,800.3755,801.4222,801.4223,802.6575,return,0.1355,,66.66666667,,,,,,FBP-OG-18.png,0.37,1.2,7,0.25,,,,,,,,,,,,,,,,,,0,10,10,6,1,,,,,,,,,,,,,,,,,,,,,,,
,,,,,SPR24_009,20,Female,2024-04-05_12h34.26.003,jersey_experiment_5_v0,2023.2.2,Win32,85.47008547,,,,,,,,,,,,,,,,802.6578,803.9519,803.9519,806.2931,return,0.4835,,87.890625,,,,,,FBP-YG-91.png,0.43,1.2,29,0.5,,,,,,,,,,,,,,,,,,0,11,11,28,1,,,,,,,,,,,,,,,,,,,,,,,
,,,,,SPR24_009,20,Female,2024-04-05_12h34.26.003,jersey_experiment_5_v0,2023.2.2,Win32,85.47008547,,,,,,,,,,,,,,,,806.2933,807.5871,807.5872,808.1051,return,0.1047,,88.15104167,,,,,,FBP-YG-81.png,0.4,1.2,23,0.5,,,,,,,,,,,,,,,,,,0,12,12,22,1,,,,,,,,,,,,,,,,,,,,,,,
,,,,,SPR24_009,20,Female,2024-04-05_12h34.26.003,jersey_experiment_5_v0,2023.2.2,Win32,85.47008547,,,,,,,,,,,,,,,,808.1053,809.399,809.399,809.8579,return,0.1821,,88.15104167,,,,,,FBP-PT-71.png,0.4,1.2,48,0.5,,,,,,,,,,,,,,,,,,0,13,13,47,1,,,,,,,,,,,,,,,,,,,,,,,
,,,,,SPR24_009,20,Female,2024-04-05_12h34.26.003,jersey_experiment_5_v0,2023.2.2,Win32,85.47008547,,,,,,,,,,,,,,,,809.8582,811.1521,811.1522,812.211,return,0.04,,87.5,,,,,,FBP-YG-71.png,0.4,1.2,18,0.5,,,,,,,,,,,,,,,,,,0,14,14,17,1,,,,,,,,,,,,,,,,,,,,,,,
,,,,,SPR24_009,20,Female,2024-04-05_12h34.26.003,jersey_experiment_5_v0,2023.2.2,Win32,85.47008547,,,,,,,,,,,,,,,,812.2112,813.505,813.5051,814.0817,return,0.0858,,87.5,,,,,,FBP-YG-91.png,0.4,1.2,28,0.5,,,,,,,,,,,,,,,,,,0,15,15,27,1,,,,,,,,,,,,,,,,,,,,,,,
,,,,,SPR24_009,20,Female,2024-04-05_12h34.26.003,jersey_experiment_5_v0,2023.2.2,Win32,85.47008547,,,,,,,,,,,,,,,,814.082,815.1287,815.1287,816.87,return,0.0132,,50,,,,,,FBP-OG-19.png,0.35,1.2,11,0.25,,,,,,,,,,,,,,,,,,0,16,16,10,1,,,,,,,,,,,,,,,,,,,,,,,
,,,,,SPR24_009,20,Female,2024-04-05_12h34.26.003,jersey_experiment_5_v0,2023.2.2,Win32,85.47008547,,,,,,,,,,,,,,,,816.8702,818.164,818.1641,819.3995,return,0.0576,,74.21875,,,,,,FBP-PT-71.png,0.43,1.2,49,0.5,,,,,,,,,,,,,,,,,,0,17,17,48,1,,,,,,,,,,,,,,,,,,,,,,,
,,,,,SPR24_009,20,Female,2024-04-05_12h34.26.003,jersey_experiment_5_v0,2023.2.2,Win32,85.47008547,,,,,,,,,,,,,,,,819.3997,820.4466,820.4466,822.0348,return,0.1463,,76.04166667,,,,,,FBP-OG-18.png,0.43,1.2,9,0.25,,,,,,,,,,,,,,,,,,0,18,18,8,1,,,,,,,,,,,,,,,,,,,,,,,
,,,,,SPR24_009,20,Female,2024-04-05_12h34.26.003,jersey_experiment_5_v0,2023.2.2,Win32,85.47008547,,,,,,,,,,,,,,,,822.035,823.0821,823.0821,823.9409,return,0.1067,,73.17708333,,,,,,FBP-OG-17.png,0.43,1.2,4,0.25,,,,,,,,,,,,,,,,,,0,19,19,3,1,,,,,,,,,,,,,,,,,,,,,,,
,,,,,SPR24_009,20,Female,2024-04-05_12h34.26.003,jersey_experiment_5_v0,2023.2.2,Win32,85.47008547,,,,,,,,,,,,,,,,823.9411,825.2349,825.235,826.1645,return,0.1562,,88.80208333,,,,,,FBP-YG-91.png,0.45,1.2,30,0.5,,,,,,,,,,,,,,,,,,0,20,20,29,1,,,,,,,,,,,,,,,,,,,,,,,
,,,,,SPR24_009,20,Female,2024-04-05_12h34.26.003,jersey_experiment_5_v0,2023.2.2,Win32,85.47008547,,,,,,,,,,,,,,,,826.1648,827.4586,827.4586,828.906,return,0.4949,,65.36458333,,,,,,FBP-YG-81.png,0.35,1.2,21,0.5,,,,,,,,,,,,,,,,,,0,21,21,20,1,,,,,,,,,,,,,,,,,,,,,,,
,,,,,SPR24_009,20,Female,2024-04-05_12h34.26.003,jersey_experiment_5_v0,2023.2.2,Win32,85.47008547,,,,,,,,,,,,,,,,828.9061,829.9528,829.9528,831.153,return,0.1127,,100,,,,,,FBP-RB-91.png,0.45,1.2,45,0.25,,,,,,,,,,,,,,,,,,0,22,22,44,1,,,,,,,,,,,,,,,,,,,,,,,
,,,,,SPR24_009,20,Female,2024-04-05_12h34.26.003,jersey_experiment_5_v0,2023.2.2,Win32,85.47008547,,,,,,,,,,,,,,,,831.1532,832.447,832.4471,833.2824,return,0.1094,,99.86979167,,,,,,FBP-PT-91.png,0.45,1.2,60,0.5,,,,,,,,,,,,,,,,,,0,23,23,59,1,,,,,,,,,,,,,,,,,,,,,,,
,,,,,SPR24_009,20,Female,2024-04-05_12h34.26.003,jersey_experiment_5_v0,2023.2.2,Win32,85.47008547,,,,,,,,,,,,,,,,833.2826,834.3295,834.3296,837.247,return,0.0767,,50.65104167,,,,,,FBP-OG-18.png,0.35,1.2,6,0.25,,,,,,,,,,,,,,,,,,0,24,24,5,1,,,,,,,,,,,,,,,,,,,,,,,
,,,,,SPR24_009,20,Female,2024-04-05_12h34.26.003,jersey_experiment_5_v0,2023.2.2,Win32,85.47008547,,,,,,,,,,,,,,,,837.2472,838.2944,838.2944,842.565,return,2.1663,,76.171875,,,,,,FBP-OG-17.png,0.4,1.2,3,0.25,,,,,,,,,,,,,,,,,,0,25,25,2,1,,,,,,,,,,,,,,,,,,,,,,,
,,,,,SPR24_009,20,Female,2024-04-05_12h34.26.003,jersey_experiment_5_v0,2023.2.2,Win32,85.47008547,,,,,,,,,,,,,,,,842.5652,843.6121,843.6122,845.6829,return,0.1458,,41.92708333,,,,,,FBP-RB-91.png,0.35,1.2,41,0.25,,,,,,,,,,,,,,,,,,0,26,26,40,1,,,,,,,,,,,,,,,,,,,,,,,
,,,,,SPR24_009,20,Female,2024-04-05_12h34.26.003,jersey_experiment_5_v0,2023.2.2,Win32,85.47008547,,,,,,,,,,,,,,,,845.6831,846.977,846.9771,848.0712,return,0.0377,,74.609375,,,,,,FBP-PT-91.png,0.43,1.2,59,0.5,,,,,,,,,,,,,,,,,,0,27,27,58,1,,,,,,,,,,,,,,,,,,,,,,,
,,,,,SPR24_009,20,Female,2024-04-05_12h34.26.003,jersey_experiment_5_v0,2023.2.2,Win32,85.47008547,,,,,,,,,,,,,,,,848.0714,849.1182,849.1182,852.4479,return,0.2886,,44.66145833,,,,,,FBP-RB-81.png,0.37,1.2,37,0.25,,,,,,,,,,,,,,,,,,0,28,28,36,1,,,,,,,,,,,,,,,,,,,,,,,
,,,,,SPR24_009,20,Female,2024-04-05_12h34.26.003,jersey_experiment_5_v0,2023.2.2,Win32,85.47008547,,,,,,,,,,,,,,,,852.4481,853.7421,853.7421,857.2359,return,0.0508,,73.95833333,,,,,,FBP-YG-81.png,0.43,1.2,24,0.5,,,,,,,,,,,,,,,,,,0,29,29,23,1,,,,,,,,,,,,,,,,,,,,,,,
,,,,,SPR24_009,20,Female,2024-04-05_12h34.26.003,jersey_experiment_5_v0,2023.2.2,Win32,85.47008547,,,,,,,,,,,,,,,,857.2362,858.5303,858.5304,860.1187,return,0.634,,41.92708333,,,,,,FBP-YG-91.png,0.35,1.2,26,0.5,,,,,,,,,,,,,,,,,,0,30,30,25,1,,,,,,,,,,,,,,,,,,,,,,,
,,,,,SPR24_009,20,Female,2024-04-05_12h34.26.003,jersey_experiment_5_v0,2023.2.2,Win32,85.47008547,,,,,,,,,,,,,,,,860.1189,861.1658,861.1658,863.2718,return,0.0606,,90.88541667,,,,,,FBP-RB-81.png,0.43,1.2,39,0.25,,,,,,,,,,,,,,,,,,0,31,31,38,1,,,,,,,,,,,,,,,,,,,,,,,
,,,,,SPR24_009,20,Female,2024-04-05_12h34.26.003,jersey_experiment_5_v0,2023.2.2,Win32,85.47008547,,,,,,,,,,,,,,,,863.272,864.3188,864.3188,865.3306,return,0.0286,,74.34895833,,,,,,FBP-OG-19.png,0.37,1.2,12,0.25,,,,,,,,,,,,,,,,,,0,32,32,11,1,,,,,,,,,,,,,,,,,,,,,,,
,,,,,SPR24_009,20,Female,2024-04-05_12h34.26.003,jersey_experiment_5_v0,2023.2.2,Win32,85.47008547,,,,,,,,,,,,,,,,865.3308,866.6248,866.6248,867.8131,return,0.1323,,61.71875,,,,,,FBP-PT-81.png,0.35,1.2,51,0.5,,,,,,,,,,,,,,,,,,0,33,33,50,1,,,,,,,,,,,,,,,,,,,,,,,
,,,,,SPR24_009,20,Female,2024-04-05_12h34.26.003,jersey_experiment_5_v0,2023.2.2,Win32,85.47008547,,,,,,,,,,,,,,,,867.8134,868.8601,868.8601,870.7897,return,0.2232,,75.52083333,,,,,,FBP-OG-19.png,0.45,1.2,15,0.25,,,,,,,,,,,,,,,,,,0,34,34,14,1,,,,,,,,,,,,,,,,,,,,,,,
,,,,,SPR24_009,20,Female,2024-04-05_12h34.26.003,jersey_experiment_5_v0,2023.2.2,Win32,85.47008547,,,,,,,,,,,,,,,,870.7899,871.8367,871.8368,872.9308,return,0.1694,,100,,,,,,FBP-RB-81.png,0.45,1.2,40,0.25,,,,,,,,,,,,,,,,,,0,35,35,39,1,,,,,,,,,,,,,,,,,,,,,,,
,,,,,SPR24_009,20,Female,2024-04-05_12h34.26.003,jersey_experiment_5_v0,2023.2.2,Win32,85.47008547,,,,,,,,,,,,,,,,872.931,873.9782,873.9782,876.6487,return,0.0578,,87.890625,,,,,,FBP-RB-91.png,0.4,1.2,43,0.25,,,,,,,,,,,,,,,,,,0,36,36,42,1,,,,,,,,,,,,,,,,,,,,,,,
,,,,,SPR24_009,20,Female,2024-04-05_12h34.26.003,jersey_experiment_5_v0,2023.2.2,Win32,85.47008547,,,,,,,,,,,,,,,,876.6489,877.9427,877.9427,878.8017,return,0.0647,,95.3125,,,,,,FBP-YG-71.png,0.45,1.2,20,0.5,,,,,,,,,,,,,,,,,,0,37,37,19,1,,,,,,,,,,,,,,,,,,,,,,,
,,,,,SPR24_009,20,Female,2024-04-05_12h34.26.003,jersey_experiment_5_v0,2023.2.2,Win32,85.47008547,,,,,,,,,,,,,,,,878.8019,879.8488,879.8488,881.2724,return,0.1784,,79.42708333,,,,,,FBP-OG-19.png,0.4,1.2,13,0.25,,,,,,,,,,,,,,,,,,0,38,38,12,1,,,,,,,,,,,,,,,,,,,,,,,
,,,,,SPR24_009,20,Female,2024-04-05_12h34.26.003,jersey_experiment_5_v0,2023.2.2,Win32,85.47008547,,,,,,,,,,,,,,,,881.2726,882.5666,882.5667,883.8137,return,0.1553,,94.01041667,,,,,,FBP-PT-81.png,0.45,1.2,55,0.5,,,,,,,,,,,,,,,,,,0,39,39,54,1,,,,,,,,,,,,,,,,,,,,,,,
,,,,,SPR24_009,20,Female,2024-04-05_12h34.26.003,jersey_experiment_5_v0,2023.2.2,Win32,85.47008547,,,,,,,,,,,,,,,,883.814,885.1078,885.1079,886.3785,return,0.0243,,59.11458333,,,,,,FBP-PT-91.png,0.35,1.2,56,0.5,,,,,,,,,,,,,,,,,,0,40,40,55,1,,,,,,,,,,,,,,,,,,,,,,,
,,,,,SPR24_009,20,Female,2024-04-05_12h34.26.003,jersey_experiment_5_v0,2023.2.2,Win32,85.47008547,,,,,,,,,,,,,,,,886.3787,887.4254,887.4254,889.1551,return,0.0732,,100,,,,,,FBP-OG-17.png,0.45,1.2,5,0.25,,,,,,,,,,,,,,,,,,0,41,41,4,1,,,,,,,,,,,,,,,,,,,,,,,
,,,,,SPR24_009,20,Female,2024-04-05_12h34.26.003,jersey_experiment_5_v0,2023.2.2,Win32,85.47008547,,,,,,,,,,,,,,,,889.1552,890.4492,890.4493,891.6963,return,0.0531,,75,,,,,,FBP-PT-91.png,0.37,1.2,57,0.5,,,,,,,,,,,,,,,,,,0,42,42,56,1,,,,,,,,,,,,,,,,,,,,,,,
,,,,,SPR24_009,20,Female,2024-04-05_12h34.26.003,jersey_experiment_5_v0,2023.2.2,Win32,85.47008547,,,,,,,,,,,,,,,,891.6965,892.7434,892.7434,894.4493,return,0.0991,,85.28645833,,,,,,FBP-OG-18.png,0.45,1.2,10,0.25,,,,,,,,,,,,,,,,,,0,43,43,9,1,,,,,,,,,,,,,,,,,,,,,,,
,,,,,SPR24_009,20,Female,2024-04-05_12h34.26.003,jersey_experiment_5_v0,2023.2.2,Win32,85.47008547,,,,,,,,,,,,,,,,894.4495,895.7436,895.7437,896.8494,return,0.122,,59.63541667,,,,,,FBP-YG-71.png,0.35,1.2,16,0.5,,,,,,,,,,,,,,,,,,0,44,44,15,1,,,,,,,,,,,,,,,,,,,,,,,
,,,,,SPR24_009,20,Female,2024-04-05_12h34.26.003,jersey_experiment_5_v0,2023.2.2,Win32,85.47008547,,,,,,,,,,,,,,,,896.8498,898.1436,898.1436,898.7435,return,0.1984,,60.546875,,,,,,FBP-YG-91.png,0.37,1.2,27,0.5,,,,,,,,,,,,,,,,,,0,45,45,26,1,,,,,,,,,,,,,,,,,,,,,,,
,,,,,SPR24_009,20,Female,2024-04-05_12h34.26.003,jersey_experiment_5_v0,2023.2.2,Win32,85.47008547,,,,,,,,,,,,,,,,898.7438,900.0377,900.0377,901.4025,return,0.1411,,83.07291667,,,,,,FBP-PT-81.png,0.43,1.2,54,0.5,,,,,,,,,,,,,,,,,,0,46,46,53,1,,,,,,,,,,,,,,,,,,,,,,,
,,,,,SPR24_009,20,Female,2024-04-05_12h34.26.003,jersey_experiment_5_v0,2023.2.2,Win32,85.47008547,,,,,,,,,,,,,,,,901.4026,902.4498,902.4498,904.038,return,0.1057,,78.25520833,,,,,,FBP-RB-81.png,0.4,1.2,38,0.25,,,,,,,,,,,,,,,,,,0,47,47,37,1,,,,,,,,,,,,,,,,,,,,,,,
,,,,,SPR24_009,20,Female,2024-04-05_12h34.26.003,jersey_experiment_5_v0,2023.2.2,Win32,85.47008547,,,,,,,,,,,,,,,,904.0382,905.0851,905.0851,906.8028,return,0.0402,,36.328125,,,,,,FBP-RB-71.png,0.35,1.2,31,0.25,,,,,,,,,,,,,,,,,,0,48,48,30,1,,,,,,,,,,,,,,,,,,,,,,,
,,,,,SPR24_009,20,Female,2024-04-05_12h34.26.003,jersey_experiment_5_v0,2023.2.2,Win32,85.47008547,,,,,,,,,,,,,,,,906.803,908.097,908.0971,909.6735,return,0.554,,74.08854167,,,,,,FBP-YG-71.png,0.43,1.2,19,0.5,,,,,,,,,,,,,,,,,,0,49,49,18,1,,,,,,,,,,,,,,,,,,,,,,,
,,,,,SPR24_009,20,Female,2024-04-05_12h34.26.003,jersey_experiment_5_v0,2023.2.2,Win32,85.47008547,,,,,,,,,,,,,,,,909.6736,910.9676,910.9676,911.3793,return,0.0986,,74.08854167,,,,,,FBP-PT-91.png,0.4,1.2,58,0.5,,,,,,,,,,,,,,,,,,0,50,50,57,1,,,,,,,,,,,,,,,,,,,,,,,
,,,,,SPR24_009,20,Female,2024-04-05_12h34.26.003,jersey_experiment_5_v0,2023.2.2,Win32,85.47008547,,,,,,,,,,,,,,,,911.3795,912.6735,912.6735,913.956,return,0.1175,,88.28125,,,,,,FBP-PT-71.png,0.45,1.2,50,0.5,,,,,,,,,,,,,,,,,,0,51,51,49,1,,,,,,,,,,,,,,,,,,,,,,,
,,,,,SPR24_009,20,Female,2024-04-05_12h34.26.003,jersey_experiment_5_v0,2023.2.2,Win32,85.47008547,,,,,,,,,,,,,,,,913.9561,915.003,915.003,915.8266,return,0.1092,,88.671875,,,,,,FBP-RB-71.png,0.4,1.2,33,0.25,,,,,,,,,,,,,,,,,,0,52,52,32,1,,,,,,,,,,,,,,,,,,,,,,,
,,,,,SPR24_009,20,Female,2024-04-05_12h34.26.003,jersey_experiment_5_v0,2023.2.2,Win32,85.47008547,,,,,,,,,,,,,,,,915.8268,916.8737,916.8737,919.8974,return,1.0352,,59.63541667,,,,,,FBP-OG-17.png,0.35,1.2,1,0.25,,,,,,,,,,,,,,,,,,0,53,53,0,1,,,,,,,,,,,,,,,,,,,,,,,
,,,,,SPR24_009,20,Female,2024-04-05_12h34.26.003,jersey_experiment_5_v0,2023.2.2,Win32,85.47008547,,,,,,,,,,,,,,,,919.8977,921.1914,921.1914,922.1327,return,0.0501,,74.34895833,,,,,,FBP-PT-81.png,0.4,1.2,53,0.5,,,,,,,,,,,,,,,,,,0,54,54,52,1,,,,,,,,,,,,,,,,,,,,,,,
,,,,,SPR24_009,20,Female,2024-04-05_12h34.26.003,jersey_experiment_5_v0,2023.2.2,Win32,85.47008547,,,,,,,,,,,,,,,,922.1329,923.427,923.427,924.8505,return,0.0641,,92.70833333,,,,,,FBP-YG-81.png,0.45,1.2,25,0.5,,,,,,,,,,,,,,,,,,0,55,55,24,1,,,,,,,,,,,,,,,,,,,,,,,
,,,,,SPR24_009,20,Female,2024-04-05_12h34.26.003,jersey_experiment_5_v0,2023.2.2,Win32,85.47008547,,,,,,,,,,,,,,,,924.8507,925.8975,925.8975,927.8741,return,0.1232,,61.84895833,,,,,,FBP-OG-18.png,0.4,1.2,8,0.25,,,,,,,,,,,,,,,,,,0,56,56,7,1,,,,,,,,,,,,,,,,,,,,,,,
,,,,,SPR24_009,20,Female,2024-04-05_12h34.26.003,jersey_experiment_5_v0,2023.2.2,Win32,85.47008547,,,,,,,,,,,,,,,,927.8742,929.1682,929.1682,930.886,return,0.1053,,57.55208333,,,,,,FBP-PT-81.png,0.37,1.2,52,0.5,,,,,,,,,,,,,,,,,,0,57,57,51,1,,,,,,,,,,,,,,,,,,,,,,,
,,,,,SPR24_009,20,Female,2024-04-05_12h34.26.003,jersey_experiment_5_v0,2023.2.2,Win32,85.47008547,,,,,,,,,,,,,,,,930.8862,932.1803,932.1803,933.9684,return,0.0648,,64.97395833,,,,,,FBP-YG-81.png,0.37,1.2,22,0.5,,,,,,,,,,,,,,,,,,0,58,58,21,1,,,,,,,,,,,,,,,,,,,,,,,
,,,,,SPR24_009,20,Female,2024-04-05_12h34.26.003,jersey_experiment_5_v0,2023.2.2,Win32,85.47008547,,,,,,,,,,,,,,,,933.9687,935.0156,935.0156,936.4862,return,0.1524,,85.67708333,,,,,,FBP-RB-91.png,0.43,1.2,44,0.25,,,,,,,,,,,,,,,,,,0,59,59,43,1,,,,,,,,,,,,,,,,,,,,,,,
,,,,,SPR24_009,20,Female,2024-04-05_12h34.26.003,jersey_experiment_5_v0,2023.2.2,Win32,85.47008547,,,,,,,,,,,,,,,,,,,,,,,,,,,,,,,,,,,,,,,,,,,,,,,,,,,,,,,,936.4866,942.0043,return,5.5069,,,,,,,,,,,,,,,,,,,
,,,,,SPR24_009,20,Female,2024-04-05_12h34.26.003,jersey_experiment_5_v0,2023.2.2,Win32,85.47008547,,,,,,,,,,,,,,,,,,,,,,,,,,,,,,,,,,,,,,,,,,,,,,,,,,,,,,,,,,,,,942.0044,950.0162,1,6.7898,return,1.2071,,,,,,,,,,,,
,,,,,SPR24_009,20,Female,2024-04-05_12h34.26.003,jersey_experiment_5_v0,2023.2.2,Win32,85.47008547,,,,,,,,,,,,,,,,,,,,,,,,,,,,,,,,,,,,,,,,,,,,,,,,,,,,,,,,,,,,,,,,,,,,950.0163,1085.8855,"My guess is the study is about how the same object can look bigger/smaller depending on a comparative object that came before it. Though I looked at many players, there was actually a small about of different players, but they were shown in different orders multiple times.",right,128.7106,,,,,,
,,,,,SPR24_009,20,Female,2024-04-05_12h34.26.003,jersey_experiment_5_v0,2023.2.2,Win32,85.47008547,,,,,,,,,,,,,,,,,,,,,,,,,,,,,,,,,,,,,,,,,,,,,,,,,,,,,,,,,,,,,,,,,,,,,,,,,,1085.8855,1090.5981,return,4.7018,