requirements.started,requirements.stopped,key_resp_3.keys,key_resp_3.rt,key_resp_3.duration,Subject ID,Age,Gender,date,expName,psychopyVersion,OS,frameRate,instructions1.started,instructions1.stopped,key_resp.keys,key_resp.rt,key_resp.duration,example.started,example.stopped,enter_2.keys,enter_2.rt,enter_2.duration,instructions2.started,instructions2.stopped,enter_3.keys,enter_3.rt,enter_3.duration,image.started,image.stopped,slider_2.started,slider_2.stopped,next.keys,next.rt,next.duration,slider.response,trial_block_1.thisRepN,trial_block_1.thisTrialN,trial_block_1.thisN,trial_block_1.thisIndex,trial_block_1.ran,Path,Width,Height,Index,Duration,trial_block_2.thisRepN,trial_block_2.thisTrialN,trial_block_2.thisN,trial_block_2.thisIndex,trial_block_2.ran,rest_break.started,rest_break.stopped,end_break.started,end_break.stopped,key_resp_5.keys,key_resp_5.rt,key_resp_5.duration,trial_block_3.thisRepN,trial_block_3.thisTrialN,trial_block_3.thisN,trial_block_3.thisIndex,trial_block_3.ran,trial_block_4.thisRepN,trial_block_4.thisTrialN,trial_block_4.thisN,trial_block_4.thisIndex,trial_block_4.ran,questions_intro.started,questions_intro.stopped,enter_12.keys,enter_12.rt,enter_12.duration,question2.started,question2.stopped,question_doingbest.response,question_doingbest.rt,enter_15.keys,enter_15.rt,enter_15.duration,pattern.started,pattern.stopped,pattern_2.text,enter_17.keys,enter_17.rt,enter_17.duration,thankyou.started,thankyou.stopped,enter_14.keys,enter_14.rt,enter_14.duration
0.0002,15.3679,return,15.3632,,SPR24_059,18,female,2024-04-17_11h16.29.256,jersey_experiment_5_v0,2023.2.2,Win32,84.74576271,,,,,,,,,,,,,,,,,,,,,,,,,,,,,,,,,,,,,,,,,,,,,,,,,,,,,,,,,,,,,,,,,,,,,,,,,,,,,,
,,,,,SPR24_059,18,female,2024-04-17_11h16.29.256,jersey_experiment_5_v0,2023.2.2,Win32,84.74576271,15.368,29.1538,return,13.7706,,,,,,,,,,,,,,,,,,,,,,,,,,,,,,,,,,,,,,,,,,,,,,,,,,,,,,,,,,,,,,,,,,,,,,,,,,
,,,,,SPR24_059,18,female,2024-04-17_11h16.29.256,jersey_experiment_5_v0,2023.2.2,Win32,84.74576271,,,,,,29.1539,36.4011,return,7.212,,,,,,,,,,,,,,,,,,,,,,,,,,,,,,,,,,,,,,,,,,,,,,,,,,,,,,,,,,,,,,,,,,,,,
,,,,,SPR24_059,18,female,2024-04-17_11h16.29.256,jersey_experiment_5_v0,2023.2.2,Win32,84.74576271,,,,,,,,,,,36.4012,78.0379,return,41.6145,,,,,,,,,,,,,,,,,,,,,,,,,,,,,,,,,,,,,,,,,,,,,,,,,,,,,,,,,,,,,,,,
,,,,,SPR24_059,18,female,2024-04-17_11h16.29.256,jersey_experiment_5_v0,2023.2.2,Win32,84.74576271,,,,,,,,,,,,,,,,78.0453,79.3436,79.3437,99.9565,return,10.5676,,68.48958333,0,0,0,37,1,FBP-RB-18.png,0.4,1.2,38,0.5,,,,,,,,,,,,,,,,,,,,,,,,,,,,,,,,,,,,,,,,,,,,,
,,,,,SPR24_059,18,female,2024-04-17_11h16.29.256,jersey_experiment_5_v0,2023.2.2,Win32,84.74576271,,,,,,,,,,,,,,,,99.9612,101.2619,101.2621,109.3917,return,2.303,,24.609375,0,1,1,12,1,FBP-OG-91.png,0.4,1.2,13,0.5,,,,,,,,,,,,,,,,,,,,,,,,,,,,,,,,,,,,,,,,,,,,,
,,,,,SPR24_059,18,female,2024-04-17_11h16.29.256,jersey_experiment_5_v0,2023.2.2,Win32,84.74576271,,,,,,,,,,,,,,,,109.392,110.4387,110.4388,117.0273,return,2.2969,,69.40104167,0,2,2,18,1,FBP-YG-17.png,0.43,1.2,19,0.25,,,,,,,,,,,,,,,,,,,,,,,,,,,,,,,,,,,,,,,,,,,,,
,,,,,SPR24_059,18,female,2024-04-17_11h16.29.256,jersey_experiment_5_v0,2023.2.2,Win32,84.74576271,,,,,,,,,,,,,,,,117.0275,118.0745,118.0745,120.9452,return,1.2899,,69.40104167,0,3,3,16,1,FBP-YG-17.png,0.37,1.2,17,0.25,,,,,,,,,,,,,,,,,,,,,,,,,,,,,,,,,,,,,,,,,,,,,
,,,,,SPR24_059,18,female,2024-04-17_11h16.29.256,jersey_experiment_5_v0,2023.2.2,Win32,84.74576271,,,,,,,,,,,,,,,,120.9455,122.2393,122.2393,126.8513,return,1.721,,99.609375,0,4,4,43,1,FBP-RB-19.png,0.43,1.2,44,0.5,,,,,,,,,,,,,,,,,,,,,,,,,,,,,,,,,,,,,,,,,,,,,
,,,,,SPR24_059,18,female,2024-04-17_11h16.29.256,jersey_experiment_5_v0,2023.2.2,Win32,84.74576271,,,,,,,,,,,,,,,,126.8516,127.8982,127.8983,131.6514,return,1.1229,,25,0,5,5,25,1,FBP-YG-19.png,0.35,1.2,26,0.25,,,,,,,,,,,,,,,,,,,,,,,,,,,,,,,,,,,,,,,,,,,,,
,,,,,SPR24_059,18,female,2024-04-17_11h16.29.256,jersey_experiment_5_v0,2023.2.2,Win32,84.74576271,,,,,,,,,,,,,,,,131.6516,132.9454,132.9455,137.2517,return,1.4376,,99.34895833,0,6,6,39,1,FBP-RB-18.png,0.45,1.2,40,0.5,,,,,,,,,,,,,,,,,,,,,,,,,,,,,,,,,,,,,,,,,,,,,
,,,,,SPR24_059,18,female,2024-04-17_11h16.29.256,jersey_experiment_5_v0,2023.2.2,Win32,84.74576271,,,,,,,,,,,,,,,,137.252,138.2987,138.2987,145.1108,return,0.8847,,49.73958333,0,7,7,26,1,FBP-YG-19.png,0.37,1.2,27,0.25,,,,,,,,,,,,,,,,,,,,,,,,,,,,,,,,,,,,,,,,,,,,,
,,,,,SPR24_059,18,female,2024-04-17_11h16.29.256,jersey_experiment_5_v0,2023.2.2,Win32,84.74576271,,,,,,,,,,,,,,,,145.1111,146.1578,146.1578,150.5462,return,0.9687,,9.244791667,0,8,8,55,1,FBP-PT-19.png,0.35,1.2,56,0.25,,,,,,,,,,,,,,,,,,,,,,,,,,,,,,,,,,,,,,,,,,,,,
,,,,,SPR24_059,18,female,2024-04-17_11h16.29.256,jersey_experiment_5_v0,2023.2.2,Win32,84.74576271,,,,,,,,,,,,,,,,150.5465,151.5931,151.5932,156.4995,return,1.0761,,99.34895833,0,9,9,49,1,FBP-PT-17.png,0.45,1.2,50,0.25,,,,,,,,,,,,,,,,,,,,,,,,,,,,,,,,,,,,,,,,,,,,,
,,,,,SPR24_059,18,female,2024-04-17_11h16.29.256,jersey_experiment_5_v0,2023.2.2,Win32,84.74576271,,,,,,,,,,,,,,,,156.4997,157.5466,157.5466,168.794,return,10.0094,,87.23958333,0,10,10,23,1,FBP-YG-18.png,0.43,1.2,24,0.25,,,,,,,,,,,,,,,,,,,,,,,,,,,,,,,,,,,,,,,,,,,,,
,,,,,SPR24_059,18,female,2024-04-17_11h16.29.256,jersey_experiment_5_v0,2023.2.2,Win32,84.74576271,,,,,,,,,,,,,,,,168.7942,170.088,170.0881,176.8648,return,0.8311,,49.609375,0,11,11,42,1,FBP-RB-19.png,0.4,1.2,43,0.5,,,,,,,,,,,,,,,,,,,,,,,,,,,,,,,,,,,,,,,,,,,,,
,,,,,SPR24_059,18,female,2024-04-17_11h16.29.256,jersey_experiment_5_v0,2023.2.2,Win32,84.74576271,,,,,,,,,,,,,,,,176.865,177.912,177.912,180.7592,return,1.9205,,49.609375,0,12,12,45,1,FBP-PT-17.png,0.35,1.2,46,0.25,,,,,,,,,,,,,,,,,,,,,,,,,,,,,,,,,,,,,,,,,,,,,
,,,,,SPR24_059,18,female,2024-04-17_11h16.29.256,jersey_experiment_5_v0,2023.2.2,Win32,84.74576271,,,,,,,,,,,,,,,,180.7594,182.0532,182.0532,184.7593,return,1.0823,,49.609375,0,13,13,10,1,FBP-OG-91.png,0.35,1.2,11,0.5,,,,,,,,,,,,,,,,,,,,,,,,,,,,,,,,,,,,,,,,,,,,,
,,,,,SPR24_059,18,female,2024-04-17_11h16.29.256,jersey_experiment_5_v0,2023.2.2,Win32,84.74576271,,,,,,,,,,,,,,,,184.7594,185.8064,185.8064,188.1829,return,0.8584,,49.609375,0,14,14,50,1,FBP-PT-18.png,0.35,1.2,51,0.25,,,,,,,,,,,,,,,,,,,,,,,,,,,,,,,,,,,,,,,,,,,,,
,,,,,SPR24_059,18,female,2024-04-17_11h16.29.256,jersey_experiment_5_v0,2023.2.2,Win32,84.74576271,,,,,,,,,,,,,,,,188.1831,189.23,189.2301,191.4654,return,1.0121,,49.47916667,0,15,15,47,1,FBP-PT-17.png,0.4,1.2,48,0.25,,,,,,,,,,,,,,,,,,,,,,,,,,,,,,,,,,,,,,,,,,,,,
,,,,,SPR24_059,18,female,2024-04-17_11h16.29.256,jersey_experiment_5_v0,2023.2.2,Win32,84.74576271,,,,,,,,,,,,,,,,191.4657,192.7595,192.7595,195.8771,return,0.8273,,75,0,16,16,2,1,FBP-OG-71.png,0.4,1.2,3,0.5,,,,,,,,,,,,,,,,,,,,,,,,,,,,,,,,,,,,,,,,,,,,,
,,,,,SPR24_059,18,female,2024-04-17_11h16.29.256,jersey_experiment_5_v0,2023.2.2,Win32,84.74576271,,,,,,,,,,,,,,,,195.8774,197.1715,197.1716,201.8188,return,1.3419,,99.21875,0,17,17,9,1,FBP-OG-81.png,0.45,1.2,10,0.5,,,,,,,,,,,,,,,,,,,,,,,,,,,,,,,,,,,,,,,,,,,,,
,,,,,SPR24_059,18,female,2024-04-17_11h16.29.256,jersey_experiment_5_v0,2023.2.2,Win32,84.74576271,,,,,,,,,,,,,,,,201.819,203.1129,203.1129,207.9602,return,1.765,,49.73958333,0,18,18,40,1,FBP-RB-19.png,0.35,1.2,41,0.5,,,,,,,,,,,,,,,,,,,,,,,,,,,,,,,,,,,,,,,,,,,,,
,,,,,SPR24_059,18,female,2024-04-17_11h16.29.256,jersey_experiment_5_v0,2023.2.2,Win32,84.74576271,,,,,,,,,,,,,,,,207.9604,209.0071,209.0072,214.6899,return,3.1717,,63.80208333,0,19,19,57,1,FBP-PT-19.png,0.4,1.2,58,0.25,,,,,,,,,,,,,,,,,,,,,,,,,,,,,,,,,,,,,,,,,,,,,
,,,,,SPR24_059,18,female,2024-04-17_11h16.29.256,jersey_experiment_5_v0,2023.2.2,Win32,84.74576271,,,,,,,,,,,,,,,,214.6901,215.9841,215.9841,219.2077,return,1.0975,,99.609375,0,20,20,3,1,FBP-OG-71.png,0.43,1.2,4,0.5,,,,,,,,,,,,,,,,,,,,,,,,,,,,,,,,,,,,,,,,,,,,,
,,,,,SPR24_059,18,female,2024-04-17_11h16.29.256,jersey_experiment_5_v0,2023.2.2,Win32,84.74576271,,,,,,,,,,,,,,,,219.2079,220.2546,220.2546,222.7372,return,0.9698,,99.609375,0,21,21,28,1,FBP-YG-19.png,0.43,1.2,29,0.25,,,,,,,,,,,,,,,,,,,,,,,,,,,,,,,,,,,,,,,,,,,,,
,,,,,SPR24_059,18,female,2024-04-17_11h16.29.256,jersey_experiment_5_v0,2023.2.2,Win32,84.74576271,,,,,,,,,,,,,,,,222.7374,224.0313,224.0313,226.3608,return,0.9084,,99.609375,0,22,22,8,1,FBP-OG-81.png,0.43,1.2,9,0.5,,,,,,,,,,,,,,,,,,,,,,,,,,,,,,,,,,,,,,,,,,,,,
,,,,,SPR24_059,18,female,2024-04-17_11h16.29.256,jersey_experiment_5_v0,2023.2.2,Win32,84.74576271,,,,,,,,,,,,,,,,226.3611,227.6551,227.6551,230.4198,return,0.9788,,49.73958333,0,23,23,1,1,FBP-OG-71.png,0.37,1.2,2,0.5,,,,,,,,,,,,,,,,,,,,,,,,,,,,,,,,,,,,,,,,,,,,,
,,,,,SPR24_059,18,female,2024-04-17_11h16.29.256,jersey_experiment_5_v0,2023.2.2,Win32,84.74576271,,,,,,,,,,,,,,,,230.42,231.4669,231.4669,233.8906,return,0.9359,,49.73958333,0,24,24,51,1,FBP-PT-18.png,0.37,1.2,52,0.25,,,,,,,,,,,,,,,,,,,,,,,,,,,,,,,,,,,,,,,,,,,,,
,,,,,SPR24_059,18,female,2024-04-17_11h16.29.256,jersey_experiment_5_v0,2023.2.2,Win32,84.74576271,,,,,,,,,,,,,,,,233.8908,235.1846,235.1847,238.7612,return,0.9412,,43.75,0,25,25,0,1,FBP-OG-71.png,0.35,1.2,1,0.5,,,,,,,,,,,,,,,,,,,,,,,,,,,,,,,,,,,,,,,,,,,,,
,,,,,SPR24_059,18,female,2024-04-17_11h16.29.256,jersey_experiment_5_v0,2023.2.2,Win32,84.74576271,,,,,,,,,,,,,,,,238.7614,239.8082,239.8083,242.9968,return,0.8963,,49.73958333,0,26,26,46,1,FBP-PT-17.png,0.37,1.2,47,0.25,,,,,,,,,,,,,,,,,,,,,,,,,,,,,,,,,,,,,,,,,,,,,
,,,,,SPR24_059,18,female,2024-04-17_11h16.29.256,jersey_experiment_5_v0,2023.2.2,Win32,84.74576271,,,,,,,,,,,,,,,,242.997,244.0437,244.0438,247.0087,return,0.7708,,74.86979167,0,27,27,22,1,FBP-YG-18.png,0.4,1.2,23,0.25,,,,,,,,,,,,,,,,,,,,,,,,,,,,,,,,,,,,,,,,,,,,,
,,,,,SPR24_059,18,female,2024-04-17_11h16.29.256,jersey_experiment_5_v0,2023.2.2,Win32,84.74576271,,,,,,,,,,,,,,,,247.0089,248.3028,248.3028,251.5618,return,0.9659,,69.66145833,0,28,28,31,1,FBP-RB-17.png,0.37,1.2,32,0.5,,,,,,,,,,,,,,,,,,,,,,,,,,,,,,,,,,,,,,,,,,,,,
,,,,,SPR24_059,18,female,2024-04-17_11h16.29.256,jersey_experiment_5_v0,2023.2.2,Win32,84.74576271,,,,,,,,,,,,,,,,251.562,252.6088,252.6088,256.2914,return,0.7702,,94.40104167,0,29,29,48,1,FBP-PT-17.png,0.43,1.2,49,0.25,,,,,,,,,,,,,,,,,,,,,,,,,,,,,,,,,,,,,,,,,,,,,
,,,,,SPR24_059,18,female,2024-04-17_11h16.29.256,jersey_experiment_5_v0,2023.2.2,Win32,84.74576271,,,,,,,,,,,,,,,,256.2916,257.3384,257.3384,259.7502,return,0.8472,,94.40104167,0,30,30,53,1,FBP-PT-18.png,0.43,1.2,54,0.25,,,,,,,,,,,,,,,,,,,,,,,,,,,,,,,,,,,,,,,,,,,,,
,,,,,SPR24_059,18,female,2024-04-17_11h16.29.256,jersey_experiment_5_v0,2023.2.2,Win32,84.74576271,,,,,,,,,,,,,,,,259.7504,261.0445,261.0445,264.1033,return,1.1296,,49.21875,0,31,31,41,1,FBP-RB-19.png,0.37,1.2,42,0.5,,,,,,,,,,,,,,,,,,,,,,,,,,,,,,,,,,,,,,,,,,,,,
,,,,,SPR24_059,18,female,2024-04-17_11h16.29.256,jersey_experiment_5_v0,2023.2.2,Win32,84.74576271,,,,,,,,,,,,,,,,264.1036,265.1505,265.1505,268.2447,return,0.7777,,74.86979167,0,32,32,52,1,FBP-PT-18.png,0.4,1.2,53,0.25,,,,,,,,,,,,,,,,,,,,,,,,,,,,,,,,,,,,,,,,,,,,,
,,,,,SPR24_059,18,female,2024-04-17_11h16.29.256,jersey_experiment_5_v0,2023.2.2,Win32,84.74576271,,,,,,,,,,,,,,,,268.2449,269.5388,269.5389,272.8684,return,0.9784,,99.73958333,0,33,33,38,1,FBP-RB-18.png,0.43,1.2,39,0.5,,,,,,,,,,,,,,,,,,,,,,,,,,,,,,,,,,,,,,,,,,,,,
,,,,,SPR24_059,18,female,2024-04-17_11h16.29.256,jersey_experiment_5_v0,2023.2.2,Win32,84.74576271,,,,,,,,,,,,,,,,272.8686,273.9154,273.9154,278.8215,return,1.2501,,74.86979167,0,34,34,27,1,FBP-YG-19.png,0.4,1.2,28,0.25,,,,,,,,,,,,,,,,,,,,,,,,,,,,,,,,,,,,,,,,,,,,,
,,,,,SPR24_059,18,female,2024-04-17_11h16.29.256,jersey_experiment_5_v0,2023.2.2,Win32,84.74576271,,,,,,,,,,,,,,,,278.8217,279.8686,279.8686,283.0805,return,0.8331,,99.73958333,0,35,35,59,1,FBP-PT-19.png,0.45,1.2,60,0.25,,,,,,,,,,,,,,,,,,,,,,,,,,,,,,,,,,,,,,,,,,,,,
,,,,,SPR24_059,18,female,2024-04-17_11h16.29.256,jersey_experiment_5_v0,2023.2.2,Win32,84.74576271,,,,,,,,,,,,,,,,283.0807,284.1275,284.1276,286.4335,return,0.7954,,99.73958333,0,36,36,24,1,FBP-YG-18.png,0.45,1.2,25,0.25,,,,,,,,,,,,,,,,,,,,,,,,,,,,,,,,,,,,,,,,,,,,,
,,,,,SPR24_059,18,female,2024-04-17_11h16.29.256,jersey_experiment_5_v0,2023.2.2,Win32,84.74576271,,,,,,,,,,,,,,,,286.4338,287.4806,287.4807,292.0808,return,1.0788,,75,0,37,37,15,1,FBP-YG-17.png,0.35,1.2,16,0.25,,,,,,,,,,,,,,,,,,,,,,,,,,,,,,,,,,,,,,,,,,,,,
,,,,,SPR24_059,18,female,2024-04-17_11h16.29.256,jersey_experiment_5_v0,2023.2.2,Win32,84.74576271,,,,,,,,,,,,,,,,292.081,293.128,293.128,296.5517,return,0.7773,,49.609375,0,38,38,56,1,FBP-PT-19.png,0.37,1.2,57,0.25,,,,,,,,,,,,,,,,,,,,,,,,,,,,,,,,,,,,,,,,,,,,,
,,,,,SPR24_059,18,female,2024-04-17_11h16.29.256,jersey_experiment_5_v0,2023.2.2,Win32,84.74576271,,,,,,,,,,,,,,,,296.5519,297.8457,297.8458,299.7636,return,0.9466,,49.73958333,0,39,39,30,1,FBP-RB-17.png,0.35,1.2,31,0.5,,,,,,,,,,,,,,,,,,,,,,,,,,,,,,,,,,,,,,,,,,,,,
,,,,,SPR24_059,18,female,2024-04-17_11h16.29.256,jersey_experiment_5_v0,2023.2.2,Win32,84.74576271,,,,,,,,,,,,,,,,299.7638,301.0577,301.0577,304.0225,return,0.8115,,49.73958333,0,40,40,5,1,FBP-OG-81.png,0.35,1.2,6,0.5,,,,,,,,,,,,,,,,,,,,,,,,,,,,,,,,,,,,,,,,,,,,,
,,,,,SPR24_059,18,female,2024-04-17_11h16.29.256,jersey_experiment_5_v0,2023.2.2,Win32,84.74576271,,,,,,,,,,,,,,,,304.0228,305.0697,305.0697,308.5286,return,1.0084,,99.34895833,0,41,41,19,1,FBP-YG-17.png,0.45,1.2,20,0.25,,,,,,,,,,,,,,,,,,,,,,,,,,,,,,,,,,,,,,,,,,,,,
,,,,,SPR24_059,18,female,2024-04-17_11h16.29.256,jersey_experiment_5_v0,2023.2.2,Win32,84.74576271,,,,,,,,,,,,,,,,308.5289,309.8228,309.8228,312.0581,return,1.0358,,99.34895833,0,42,42,4,1,FBP-OG-71.png,0.45,1.2,5,0.5,,,,,,,,,,,,,,,,,,,,,,,,,,,,,,,,,,,,,,,,,,,,,
,,,,,SPR24_059,18,female,2024-04-17_11h16.29.256,jersey_experiment_5_v0,2023.2.2,Win32,84.74576271,,,,,,,,,,,,,,,,312.0583,313.3522,313.3522,317.1993,return,2.7247,,100,0,43,43,44,1,FBP-RB-19.png,0.45,1.2,45,0.5,,,,,,,,,,,,,,,,,,,,,,,,,,,,,,,,,,,,,,,,,,,,,
,,,,,SPR24_059,18,female,2024-04-17_11h16.29.256,jersey_experiment_5_v0,2023.2.2,Win32,84.74576271,,,,,,,,,,,,,,,,317.1996,318.2464,318.2464,320.9526,return,0.8242,,99.609375,0,44,44,54,1,FBP-PT-18.png,0.45,1.2,55,0.25,,,,,,,,,,,,,,,,,,,,,,,,,,,,,,,,,,,,,,,,,,,,,
,,,,,SPR24_059,18,female,2024-04-17_11h16.29.256,jersey_experiment_5_v0,2023.2.2,Win32,84.74576271,,,,,,,,,,,,,,,,320.9528,322.2468,322.2468,327.3999,return,2.9886,,63.15104167,0,45,45,35,1,FBP-RB-18.png,0.35,1.2,36,0.5,,,,,,,,,,,,,,,,,,,,,,,,,,,,,,,,,,,,,,,,,,,,,
,,,,,SPR24_059,18,female,2024-04-17_11h16.29.256,jersey_experiment_5_v0,2023.2.2,Win32,84.74576271,,,,,,,,,,,,,,,,327.4002,328.4468,328.447,330.4705,return,0.835,,63.15104167,0,46,46,21,1,FBP-YG-18.png,0.37,1.2,22,0.25,,,,,,,,,,,,,,,,,,,,,,,,,,,,,,,,,,,,,,,,,,,,,
,,,,,SPR24_059,18,female,2024-04-17_11h16.29.256,jersey_experiment_5_v0,2023.2.2,Win32,84.74576271,,,,,,,,,,,,,,,,330.4708,331.7645,331.7646,334.7884,return,0.8723,,75,0,47,47,13,1,FBP-OG-91.png,0.43,1.2,14,0.5,,,,,,,,,,,,,,,,,,,,,,,,,,,,,,,,,,,,,,,,,,,,,
,,,,,SPR24_059,18,female,2024-04-17_11h16.29.256,jersey_experiment_5_v0,2023.2.2,Win32,84.74576271,,,,,,,,,,,,,,,,334.7887,336.0826,336.0826,339.7063,return,0.8144,,99.73958333,0,48,48,7,1,FBP-OG-81.png,0.4,1.2,8,0.5,,,,,,,,,,,,,,,,,,,,,,,,,,,,,,,,,,,,,,,,,,,,,
,,,,,SPR24_059,18,female,2024-04-17_11h16.29.256,jersey_experiment_5_v0,2023.2.2,Win32,84.74576271,,,,,,,,,,,,,,,,339.7065,341.0004,341.0005,343.8947,return,1.3318,,99.86979167,0,49,49,32,1,FBP-RB-17.png,0.4,1.2,33,0.5,,,,,,,,,,,,,,,,,,,,,,,,,,,,,,,,,,,,,,,,,,,,,
,,,,,SPR24_059,18,female,2024-04-17_11h16.29.256,jersey_experiment_5_v0,2023.2.2,Win32,84.74576271,,,,,,,,,,,,,,,,343.895,344.9417,344.9417,349.4948,return,2.2826,,99.34895833,0,50,50,29,1,FBP-YG-19.png,0.45,1.2,30,0.25,,,,,,,,,,,,,,,,,,,,,,,,,,,,,,,,,,,,,,,,,,,,,
,,,,,SPR24_059,18,female,2024-04-17_11h16.29.256,jersey_experiment_5_v0,2023.2.2,Win32,84.74576271,,,,,,,,,,,,,,,,349.4951,350.542,350.542,354.2126,return,0.7569,,99.86979167,0,51,51,58,1,FBP-PT-19.png,0.43,1.2,59,0.25,,,,,,,,,,,,,,,,,,,,,,,,,,,,,,,,,,,,,,,,,,,,,
,,,,,SPR24_059,18,female,2024-04-17_11h16.29.256,jersey_experiment_5_v0,2023.2.2,Win32,84.74576271,,,,,,,,,,,,,,,,354.2129,355.5067,355.5067,357.2362,return,0.7325,,99.86979167,0,52,52,14,1,FBP-OG-91.png,0.45,1.2,15,0.5,,,,,,,,,,,,,,,,,,,,,,,,,,,,,,,,,,,,,,,,,,,,,
,,,,,SPR24_059,18,female,2024-04-17_11h16.29.256,jersey_experiment_5_v0,2023.2.2,Win32,84.74576271,,,,,,,,,,,,,,,,357.2364,358.2833,358.2833,361.5776,return,0.692,,88.15104167,0,53,53,20,1,FBP-YG-18.png,0.35,1.2,21,0.25,,,,,,,,,,,,,,,,,,,,,,,,,,,,,,,,,,,,,,,,,,,,,
,,,,,SPR24_059,18,female,2024-04-17_11h16.29.256,jersey_experiment_5_v0,2023.2.2,Win32,84.74576271,,,,,,,,,,,,,,,,361.5778,362.8717,362.8718,365.5426,return,0.6258,,74.73958333,0,54,54,33,1,FBP-RB-17.png,0.43,1.2,34,0.5,,,,,,,,,,,,,,,,,,,,,,,,,,,,,,,,,,,,,,,,,,,,,
,,,,,SPR24_059,18,female,2024-04-17_11h16.29.256,jersey_experiment_5_v0,2023.2.2,Win32,84.74576271,,,,,,,,,,,,,,,,365.5428,366.8365,366.8366,376.8958,return,0.7947,,63.671875,0,55,55,36,1,FBP-RB-18.png,0.37,1.2,37,0.5,,,,,,,,,,,,,,,,,,,,,,,,,,,,,,,,,,,,,,,,,,,,,
,,,,,SPR24_059,18,female,2024-04-17_11h16.29.256,jersey_experiment_5_v0,2023.2.2,Win32,84.74576271,,,,,,,,,,,,,,,,376.896,378.1898,378.1898,382.6135,return,2.5541,,63.671875,0,56,56,11,1,FBP-OG-91.png,0.37,1.2,12,0.5,,,,,,,,,,,,,,,,,,,,,,,,,,,,,,,,,,,,,,,,,,,,,
,,,,,SPR24_059,18,female,2024-04-17_11h16.29.256,jersey_experiment_5_v0,2023.2.2,Win32,84.74576271,,,,,,,,,,,,,,,,382.6138,383.9077,383.9078,387.4609,return,1.0483,,49.73958333,0,57,57,6,1,FBP-OG-81.png,0.37,1.2,7,0.5,,,,,,,,,,,,,,,,,,,,,,,,,,,,,,,,,,,,,,,,,,,,,
,,,,,SPR24_059,18,female,2024-04-17_11h16.29.256,jersey_experiment_5_v0,2023.2.2,Win32,84.74576271,,,,,,,,,,,,,,,,387.4611,388.5081,388.5081,391.2023,return,0.736,,74.73958333,0,58,58,17,1,FBP-YG-17.png,0.4,1.2,18,0.25,,,,,,,,,,,,,,,,,,,,,,,,,,,,,,,,,,,,,,,,,,,,,
,,,,,SPR24_059,18,female,2024-04-17_11h16.29.256,jersey_experiment_5_v0,2023.2.2,Win32,84.74576271,,,,,,,,,,,,,,,,391.2024,392.4963,392.4964,395.6024,return,0.9945,,99.34895833,0,59,59,34,1,FBP-RB-17.png,0.45,1.2,35,0.5,,,,,,,,,,,,,,,,,,,,,,,,,,,,,,,,,,,,,,,,,,,,,
,,,,,SPR24_059,18,female,2024-04-17_11h16.29.256,jersey_experiment_5_v0,2023.2.2,Win32,84.74576271,,,,,,,,,,,,,,,,395.6064,396.6495,396.6496,399.1201,return,0.971,,99.21875,,,,,,FBP-PT-91.png,0.45,1.2,60,0.25,0,0,0,59,1,,,,,,,,,,,,,,,,,,,,,,,,,,,,,,,,,,,,,,,,
,,,,,SPR24_059,18,female,2024-04-17_11h16.29.256,jersey_experiment_5_v0,2023.2.2,Win32,84.74576271,,,,,,,,,,,,,,,,399.1205,400.4142,400.4143,402.3437,return,0.7205,,99.21875,,,,,,FBP-RB-81.png,0.4,1.2,38,0.5,0,1,1,37,1,,,,,,,,,,,,,,,,,,,,,,,,,,,,,,,,,,,,,,,,
,,,,,SPR24_059,18,female,2024-04-17_11h16.29.256,jersey_experiment_5_v0,2023.2.2,Win32,84.74576271,,,,,,,,,,,,,,,,402.3441,403.3908,403.3909,407.2383,return,0.8005,,49.86979167,,,,,,FBP-YG-71.png,0.35,1.2,16,0.25,0,2,2,15,1,,,,,,,,,,,,,,,,,,,,,,,,,,,,,,,,,,,,,,,,
,,,,,SPR24_059,18,female,2024-04-17_11h16.29.256,jersey_experiment_5_v0,2023.2.2,Win32,84.74576271,,,,,,,,,,,,,,,,407.2385,408.2852,408.2853,412.0971,return,0.7699,,82.55208333,,,,,,FBP-YG-81.png,0.43,1.2,24,0.25,0,3,3,23,1,,,,,,,,,,,,,,,,,,,,,,,,,,,,,,,,,,,,,,,,
,,,,,SPR24_059,18,female,2024-04-17_11h16.29.256,jersey_experiment_5_v0,2023.2.2,Win32,84.74576271,,,,,,,,,,,,,,,,412.0973,413.3912,413.3912,416.5915,return,1.7036,,84.50520833,,,,,,FBP-OG-17.png,0.43,1.2,4,0.5,0,4,4,3,1,,,,,,,,,,,,,,,,,,,,,,,,,,,,,,,,,,,,,,,,
,,,,,SPR24_059,18,female,2024-04-17_11h16.29.256,jersey_experiment_5_v0,2023.2.2,Win32,84.74576271,,,,,,,,,,,,,,,,416.5917,417.8855,417.8855,420.9797,return,0.7315,,99.86979167,,,,,,FBP-RB-71.png,0.43,1.2,34,0.5,0,5,5,33,1,,,,,,,,,,,,,,,,,,,,,,,,,,,,,,,,,,,,,,,,
,,,,,SPR24_059,18,female,2024-04-17_11h16.29.256,jersey_experiment_5_v0,2023.2.2,Win32,84.74576271,,,,,,,,,,,,,,,,420.98,422.027,422.027,425.5918,return,0.376,,99.609375,,,,,,FBP-PT-71.png,0.45,1.2,50,0.25,0,6,6,49,1,,,,,,,,,,,,,,,,,,,,,,,,,,,,,,,,,,,,,,,,
,,,,,SPR24_059,18,female,2024-04-17_11h16.29.256,jersey_experiment_5_v0,2023.2.2,Win32,84.74576271,,,,,,,,,,,,,,,,425.5919,426.8861,426.8862,428.8977,return,0.3222,,24.73958333,,,,,,FBP-RB-81.png,0.35,1.2,36,0.5,0,7,7,35,1,,,,,,,,,,,,,,,,,,,,,,,,,,,,,,,,,,,,,,,,
,,,,,SPR24_059,18,female,2024-04-17_11h16.29.256,jersey_experiment_5_v0,2023.2.2,Win32,84.74576271,,,,,,,,,,,,,,,,428.898,429.9447,429.9448,432.6156,return,0.434,,99.609375,,,,,,FBP-PT-81.png,0.45,1.2,55,0.25,0,8,8,54,1,,,,,,,,,,,,,,,,,,,,,,,,,,,,,,,,,,,,,,,,
,,,,,SPR24_059,18,female,2024-04-17_11h16.29.256,jersey_experiment_5_v0,2023.2.2,Win32,84.74576271,,,,,,,,,,,,,,,,432.6158,433.6627,433.6627,434.5451,return,0.2194,,99.47916667,,,,,,FBP-PT-71.png,0.43,1.2,49,0.25,0,9,9,48,1,,,,,,,,,,,,,,,,,,,,,,,,,,,,,,,,,,,,,,,,
,,,,,SPR24_059,18,female,2024-04-17_11h16.29.256,jersey_experiment_5_v0,2023.2.2,Win32,84.74576271,,,,,,,,,,,,,,,,434.5453,435.8391,435.8391,439.8628,return,0.2609,,38.80208333,,,,,,FBP-RB-71.png,0.35,1.2,31,0.5,0,10,10,30,1,,,,,,,,,,,,,,,,,,,,,,,,,,,,,,,,,,,,,,,,
,,,,,SPR24_059,18,female,2024-04-17_11h16.29.256,jersey_experiment_5_v0,2023.2.2,Win32,84.74576271,,,,,,,,,,,,,,,,439.863,440.9101,440.9101,442.8747,return,0.2684,,38.80208333,,,,,,FBP-YG-91.png,0.37,1.2,27,0.25,0,11,11,26,1,,,,,,,,,,,,,,,,,,,,,,,,,,,,,,,,,,,,,,,,
,,,,,SPR24_059,18,female,2024-04-17_11h16.29.256,jersey_experiment_5_v0,2023.2.2,Win32,84.74576271,,,,,,,,,,,,,,,,442.875,443.9217,443.9218,446.3101,return,0.2708,,49.609375,,,,,,FBP-YG-71.png,0.37,1.2,17,0.25,0,12,12,16,1,,,,,,,,,,,,,,,,,,,,,,,,,,,,,,,,,,,,,,,,
,,,,,SPR24_059,18,female,2024-04-17_11h16.29.256,jersey_experiment_5_v0,2023.2.2,Win32,84.74576271,,,,,,,,,,,,,,,,446.3104,447.6043,447.6043,450.4635,return,0.2332,,99.73958333,,,,,,FBP-RB-71.png,0.45,1.2,35,0.5,0,13,13,34,1,,,,,,,,,,,,,,,,,,,,,,,,,,,,,,,,,,,,,,,,
,,,,,SPR24_059,18,female,2024-04-17_11h16.29.256,jersey_experiment_5_v0,2023.2.2,Win32,84.74576271,,,,,,,,,,,,,,,,450.4637,451.5102,451.5103,453.7928,return,0.182,,75,,,,,,FBP-YG-71.png,0.4,1.2,18,0.25,0,14,14,17,1,,,,,,,,,,,,,,,,,,,,,,,,,,,,,,,,,,,,,,,,
,,,,,SPR24_059,18,female,2024-04-17_11h16.29.256,jersey_experiment_5_v0,2023.2.2,Win32,84.74576271,,,,,,,,,,,,,,,,453.793,454.8399,454.8399,456.7575,return,0.413,,49.609375,,,,,,FBP-PT-71.png,0.35,1.2,46,0.25,0,15,15,45,1,,,,,,,,,,,,,,,,,,,,,,,,,,,,,,,,,,,,,,,,
,,,,,SPR24_059,18,female,2024-04-17_11h16.29.256,jersey_experiment_5_v0,2023.2.2,Win32,84.74576271,,,,,,,,,,,,,,,,456.7578,457.8047,457.8047,459.8754,return,0.2524,,99.609375,,,,,,FBP-YG-71.png,0.43,1.2,19,0.25,0,16,16,18,1,,,,,,,,,,,,,,,,,,,,,,,,,,,,,,,,,,,,,,,,
,,,,,SPR24_059,18,female,2024-04-17_11h16.29.256,jersey_experiment_5_v0,2023.2.2,Win32,84.74576271,,,,,,,,,,,,,,,,459.8757,460.9224,460.9224,463.2637,return,0.256,,74.86979167,,,,,,FBP-PT-71.png,0.37,1.2,47,0.25,0,17,17,46,1,,,,,,,,,,,,,,,,,,,,,,,,,,,,,,,,,,,,,,,,
,,,,,SPR24_059,18,female,2024-04-17_11h16.29.256,jersey_experiment_5_v0,2023.2.2,Win32,84.74576271,,,,,,,,,,,,,,,,463.2639,464.3107,464.3108,468.2286,return,0.2367,,65.234375,,,,,,FBP-PT-91.png,0.35,1.2,56,0.25,0,18,18,55,1,,,,,,,,,,,,,,,,,,,,,,,,,,,,,,,,,,,,,,,,
,,,,,SPR24_059,18,female,2024-04-17_11h16.29.256,jersey_experiment_5_v0,2023.2.2,Win32,84.74576271,,,,,,,,,,,,,,,,468.2287,469.2757,469.2757,471.6053,return,0.2626,,49.86979167,,,,,,FBP-YG-91.png,0.35,1.2,26,0.25,0,19,19,25,1,,,,,,,,,,,,,,,,,,,,,,,,,,,,,,,,,,,,,,,,
,,,,,SPR24_059,18,female,2024-04-17_11h16.29.256,jersey_experiment_5_v0,2023.2.2,Win32,84.74576271,,,,,,,,,,,,,,,,471.6055,472.6522,472.6523,474.4877,return,0.2352,,75.13020833,,,,,,FBP-PT-71.png,0.4,1.2,48,0.25,0,20,20,47,1,,,,,,,,,,,,,,,,,,,,,,,,,,,,,,,,,,,,,,,,
,,,,,SPR24_059,18,female,2024-04-17_11h16.29.256,jersey_experiment_5_v0,2023.2.2,Win32,84.74576271,,,,,,,,,,,,,,,,474.488,475.7818,475.7819,477.2172,return,0.5227,,75.13020833,,,,,,FBP-RB-71.png,0.37,1.2,32,0.5,0,21,21,31,1,,,,,,,,,,,,,,,,,,,,,,,,,,,,,,,,,,,,,,,,
,,,,,SPR24_059,18,female,2024-04-17_11h16.29.256,jersey_experiment_5_v0,2023.2.2,Win32,84.74576271,,,,,,,,,,,,,,,,477.2174,478.2643,478.2643,480.4879,return,0.1415,,75.13020833,,,,,,FBP-PT-81.png,0.35,1.2,51,0.25,0,22,22,50,1,,,,,,,,,,,,,,,,,,,,,,,,,,,,,,,,,,,,,,,,
,,,,,SPR24_059,18,female,2024-04-17_11h16.29.256,jersey_experiment_5_v0,2023.2.2,Win32,84.74576271,,,,,,,,,,,,,,,,480.4881,481.7821,481.7821,483.5235,return,0.2056,,99.86979167,,,,,,FBP-OG-17.png,0.45,1.2,5,0.5,0,23,23,4,1,,,,,,,,,,,,,,,,,,,,,,,,,,,,,,,,,,,,,,,,
,,,,,SPR24_059,18,female,2024-04-17_11h16.29.256,jersey_experiment_5_v0,2023.2.2,Win32,84.74576271,,,,,,,,,,,,,,,,483.5237,484.8175,484.8175,487.0411,return,0.1722,,49.609375,,,,,,FBP-OG-19.png,0.37,1.2,12,0.5,0,24,24,11,1,,,,,,,,,,,,,,,,,,,,,,,,,,,,,,,,,,,,,,,,
,,,,,SPR24_059,18,female,2024-04-17_11h16.29.256,jersey_experiment_5_v0,2023.2.2,Win32,84.74576271,,,,,,,,,,,,,,,,487.0413,488.3352,488.3353,490.5001,return,0.2024,,75.13020833,,,,,,FBP-OG-18.png,0.43,1.2,9,0.5,0,25,25,8,1,,,,,,,,,,,,,,,,,,,,,,,,,,,,,,,,,,,,,,,,
,,,,,SPR24_059,18,female,2024-04-17_11h16.29.256,jersey_experiment_5_v0,2023.2.2,Win32,84.74576271,,,,,,,,,,,,,,,,490.5003,491.5472,491.5472,493.3942,return,0.1711,,99.86979167,,,,,,FBP-YG-71.png,0.45,1.2,20,0.25,0,26,26,19,1,,,,,,,,,,,,,,,,,,,,,,,,,,,,,,,,,,,,,,,,
,,,,,SPR24_059,18,female,2024-04-17_11h16.29.256,jersey_experiment_5_v0,2023.2.2,Win32,84.74576271,,,,,,,,,,,,,,,,493.3944,494.6883,494.6884,496.4885,return,0.1647,,24.34895833,,,,,,FBP-OG-17.png,0.35,1.2,1,0.5,0,27,27,0,1,,,,,,,,,,,,,,,,,,,,,,,,,,,,,,,,,,,,,,,,
,,,,,SPR24_059,18,female,2024-04-17_11h16.29.256,jersey_experiment_5_v0,2023.2.2,Win32,84.74576271,,,,,,,,,,,,,,,,496.4888,497.5356,497.5356,499.5592,return,0.284,,99.73958333,,,,,,FBP-YG-91.png,0.43,1.2,29,0.25,0,28,28,28,1,,,,,,,,,,,,,,,,,,,,,,,,,,,,,,,,,,,,,,,,
,,,,,SPR24_059,18,female,2024-04-17_11h16.29.256,jersey_experiment_5_v0,2023.2.2,Win32,84.74576271,,,,,,,,,,,,,,,,499.5594,500.6063,500.6064,503.1712,return,0.1441,,75.13020833,,,,,,FBP-PT-81.png,0.4,1.2,53,0.25,0,29,29,52,1,,,,,,,,,,,,,,,,,,,,,,,,,,,,,,,,,,,,,,,,
,,,,,SPR24_059,18,female,2024-04-17_11h16.29.256,jersey_experiment_5_v0,2023.2.2,Win32,84.74576271,,,,,,,,,,,,,,,,503.1715,504.2181,504.2181,505.9713,return,0.309,,85.28645833,,,,,,FBP-PT-91.png,0.43,1.2,59,0.25,0,30,30,58,1,,,,,,,,,,,,,,,,,,,,,,,,,,,,,,,,,,,,,,,,
,,,,,SPR24_059,18,female,2024-04-17_11h16.29.256,jersey_experiment_5_v0,2023.2.2,Win32,84.74576271,,,,,,,,,,,,,,,,505.9716,507.0182,507.0184,509.6067,return,0.4489,,50,,,,,,FBP-YG-81.png,0.35,1.2,21,0.25,0,31,31,20,1,,,,,,,,,,,,,,,,,,,,,,,,,,,,,,,,,,,,,,,,
,,,,,SPR24_059,18,female,2024-04-17_11h16.29.256,jersey_experiment_5_v0,2023.2.2,Win32,84.74576271,,,,,,,,,,,,,,,,509.6069,510.6539,510.6539,519.2069,return,5.2726,,25,,,,,,FBP-PT-91.png,0.37,1.2,57,0.25,0,32,32,56,1,,,,,,,,,,,,,,,,,,,,,,,,,,,,,,,,,,,,,,,,
,,,,,SPR24_059,18,female,2024-04-17_11h16.29.256,jersey_experiment_5_v0,2023.2.2,Win32,84.74576271,,,,,,,,,,,,,,,,519.2113,520.254,520.2541,524.2895,return,1.2638,,57.68229167,,,,,,FBP-YG-91.png,0.4,1.2,28,0.25,0,33,33,27,1,,,,,,,,,,,,,,,,,,,,,,,,,,,,,,,,,,,,,,,,
,,,,,SPR24_059,18,female,2024-04-17_11h16.29.256,jersey_experiment_5_v0,2023.2.2,Win32,84.74576271,,,,,,,,,,,,,,,,524.2898,525.5837,525.5837,529.2192,return,2.088,,64.32291667,,,,,,FBP-RB-91.png,0.37,1.2,42,0.5,0,34,34,41,1,,,,,,,,,,,,,,,,,,,,,,,,,,,,,,,,,,,,,,,,
,,,,,SPR24_059,18,female,2024-04-17_11h16.29.256,jersey_experiment_5_v0,2023.2.2,Win32,84.74576271,,,,,,,,,,,,,,,,529.2195,530.5133,530.5133,532.4191,return,0.2996,,75,,,,,,FBP-RB-81.png,0.43,1.2,39,0.5,0,35,35,38,1,,,,,,,,,,,,,,,,,,,,,,,,,,,,,,,,,,,,,,,,
,,,,,SPR24_059,18,female,2024-04-17_11h16.29.256,jersey_experiment_5_v0,2023.2.2,Win32,84.74576271,,,,,,,,,,,,,,,,532.4194,533.7132,533.7133,536.3135,return,0.2118,,99.86979167,,,,,,FBP-OG-19.png,0.45,1.2,15,0.5,0,36,36,14,1,,,,,,,,,,,,,,,,,,,,,,,,,,,,,,,,,,,,,,,,
,,,,,SPR24_059,18,female,2024-04-17_11h16.29.256,jersey_experiment_5_v0,2023.2.2,Win32,84.74576271,,,,,,,,,,,,,,,,536.3137,537.3607,537.3607,540.643,return,0.2033,,74.73958333,,,,,,FBP-PT-81.png,0.43,1.2,54,0.25,0,37,37,53,1,,,,,,,,,,,,,,,,,,,,,,,,,,,,,,,,,,,,,,,,
,,,,,SPR24_059,18,female,2024-04-17_11h16.29.256,jersey_experiment_5_v0,2023.2.2,Win32,84.74576271,,,,,,,,,,,,,,,,540.6433,541.9372,541.9372,543.2903,return,0.1796,,99.47916667,,,,,,FBP-RB-81.png,0.45,1.2,40,0.5,0,38,38,39,1,,,,,,,,,,,,,,,,,,,,,,,,,,,,,,,,,,,,,,,,
,,,,,SPR24_059,18,female,2024-04-17_11h16.29.256,jersey_experiment_5_v0,2023.2.2,Win32,84.74576271,,,,,,,,,,,,,,,,543.2905,544.3373,544.3373,546.1962,return,0.1083,,74.86979167,,,,,,FBP-PT-91.png,0.4,1.2,58,0.25,0,39,39,57,1,,,,,,,,,,,,,,,,,,,,,,,,,,,,,,,,,,,,,,,,
,,,,,SPR24_059,18,female,2024-04-17_11h16.29.256,jersey_experiment_5_v0,2023.2.2,Win32,84.74576271,,,,,,,,,,,,,,,,546.1964,547.4903,547.4903,548.9611,return,0.1233,,49.73958333,,,,,,FBP-OG-18.png,0.37,1.2,7,0.5,0,40,40,6,1,,,,,,,,,,,,,,,,,,,,,,,,,,,,,,,,,,,,,,,,
,,,,,SPR24_059,18,female,2024-04-17_11h16.29.256,jersey_experiment_5_v0,2023.2.2,Win32,84.74576271,,,,,,,,,,,,,,,,548.9613,550.2553,550.2553,552.5142,return,0.1594,,62.109375,,,,,,FBP-OG-17.png,0.4,1.2,3,0.5,0,41,41,2,1,,,,,,,,,,,,,,,,,,,,,,,,,,,,,,,,,,,,,,,,
,,,,,SPR24_059,18,female,2024-04-17_11h16.29.256,jersey_experiment_5_v0,2023.2.2,Win32,84.74576271,,,,,,,,,,,,,,,,552.5145,553.8083,553.8084,556.0317,return,0.1735,,24.73958333,,,,,,FBP-OG-18.png,0.35,1.2,6,0.5,0,42,42,5,1,,,,,,,,,,,,,,,,,,,,,,,,,,,,,,,,,,,,,,,,
,,,,,SPR24_059,18,female,2024-04-17_11h16.29.256,jersey_experiment_5_v0,2023.2.2,Win32,84.74576271,,,,,,,,,,,,,,,,556.0319,557.3259,557.3259,558.9496,return,0.2243,,99.47916667,,,,,,FBP-RB-91.png,0.43,1.2,44,0.5,0,43,43,43,1,,,,,,,,,,,,,,,,,,,,,,,,,,,,,,,,,,,,,,,,
,,,,,SPR24_059,18,female,2024-04-17_11h16.29.256,jersey_experiment_5_v0,2023.2.2,Win32,84.74576271,,,,,,,,,,,,,,,,558.9498,560.2437,560.2438,561.0909,return,0.1325,,99.47916667,,,,,,FBP-OG-19.png,0.43,1.2,14,0.5,0,44,44,13,1,,,,,,,,,,,,,,,,,,,,,,,,,,,,,,,,,,,,,,,,
,,,,,SPR24_059,18,female,2024-04-17_11h16.29.256,jersey_experiment_5_v0,2023.2.2,Win32,84.74576271,,,,,,,,,,,,,,,,561.0911,562.385,562.3851,564.2439,return,0.2402,,24.609375,,,,,,FBP-OG-19.png,0.35,1.2,11,0.5,0,45,45,10,1,,,,,,,,,,,,,,,,,,,,,,,,,,,,,,,,,,,,,,,,
,,,,,SPR24_059,18,female,2024-04-17_11h16.29.256,jersey_experiment_5_v0,2023.2.2,Win32,84.74576271,,,,,,,,,,,,,,,,564.2441,565.5381,565.5381,568.4795,return,0.3154,,99.21875,,,,,,FBP-RB-91.png,0.45,1.2,45,0.5,0,46,46,44,1,,,,,,,,,,,,,,,,,,,,,,,,,,,,,,,,,,,,,,,,
,,,,,SPR24_059,18,female,2024-04-17_11h16.29.256,jersey_experiment_5_v0,2023.2.2,Win32,84.74576271,,,,,,,,,,,,,,,,568.4796,569.7734,569.7735,571.7503,return,0.2476,,74.609375,,,,,,FBP-RB-71.png,0.4,1.2,33,0.5,0,47,47,32,1,,,,,,,,,,,,,,,,,,,,,,,,,,,,,,,,,,,,,,,,
,,,,,SPR24_059,18,female,2024-04-17_11h16.29.256,jersey_experiment_5_v0,2023.2.2,Win32,84.74576271,,,,,,,,,,,,,,,,571.7506,572.7972,572.7972,575.4561,return,0.3265,,99.73958333,,,,,,FBP-YG-91.png,0.45,1.2,30,0.25,0,48,48,29,1,,,,,,,,,,,,,,,,,,,,,,,,,,,,,,,,,,,,,,,,
,,,,,SPR24_059,18,female,2024-04-17_11h16.29.256,jersey_experiment_5_v0,2023.2.2,Win32,84.74576271,,,,,,,,,,,,,,,,575.4563,576.7502,576.7502,578.8092,return,0.4337,,74.34895833,,,,,,FBP-RB-81.png,0.37,1.2,37,0.5,0,49,49,36,1,,,,,,,,,,,,,,,,,,,,,,,,,,,,,,,,,,,,,,,,
,,,,,SPR24_059,18,female,2024-04-17_11h16.29.256,jersey_experiment_5_v0,2023.2.2,Win32,84.74576271,,,,,,,,,,,,,,,,578.8094,579.8562,579.8563,582.068,return,0.1343,,49.86979167,,,,,,FBP-PT-81.png,0.37,1.2,52,0.25,0,50,50,51,1,,,,,,,,,,,,,,,,,,,,,,,,,,,,,,,,,,,,,,,,
,,,,,SPR24_059,18,female,2024-04-17_11h16.29.256,jersey_experiment_5_v0,2023.2.2,Win32,84.74576271,,,,,,,,,,,,,,,,582.0683,583.3623,583.3623,585.3976,return,0.201,,99.86979167,,,,,,FBP-OG-18.png,0.45,1.2,10,0.5,0,51,51,9,1,,,,,,,,,,,,,,,,,,,,,,,,,,,,,,,,,,,,,,,,
,,,,,SPR24_059,18,female,2024-04-17_11h16.29.256,jersey_experiment_5_v0,2023.2.2,Win32,84.74576271,,,,,,,,,,,,,,,,585.3978,586.6918,586.6918,588.9507,return,0.2372,,25,,,,,,FBP-OG-17.png,0.37,1.2,2,0.5,0,52,52,1,1,,,,,,,,,,,,,,,,,,,,,,,,,,,,,,,,,,,,,,,,
,,,,,SPR24_059,18,female,2024-04-17_11h16.29.256,jersey_experiment_5_v0,2023.2.2,Win32,84.74576271,,,,,,,,,,,,,,,,588.9509,589.9979,589.9979,593.9393,return,0.4057,,99.47916667,,,,,,FBP-YG-81.png,0.45,1.2,25,0.25,0,53,53,24,1,,,,,,,,,,,,,,,,,,,,,,,,,,,,,,,,,,,,,,,,
,,,,,SPR24_059,18,female,2024-04-17_11h16.29.256,jersey_experiment_5_v0,2023.2.2,Win32,84.74576271,,,,,,,,,,,,,,,,593.9395,594.9862,594.9863,598.2806,return,0.203,,50,,,,,,FBP-YG-81.png,0.37,1.2,22,0.25,0,54,54,21,1,,,,,,,,,,,,,,,,,,,,,,,,,,,,,,,,,,,,,,,,
,,,,,SPR24_059,18,female,2024-04-17_11h16.29.256,jersey_experiment_5_v0,2023.2.2,Win32,84.74576271,,,,,,,,,,,,,,,,598.2808,599.5745,599.5746,605.6103,return,4.0334,,68.61979167,,,,,,FBP-OG-19.png,0.4,1.2,13,0.5,0,55,55,12,1,,,,,,,,,,,,,,,,,,,,,,,,,,,,,,,,,,,,,,,,
,,,,,SPR24_059,18,female,2024-04-17_11h16.29.256,jersey_experiment_5_v0,2023.2.2,Win32,84.74576271,,,,,,,,,,,,,,,,605.6104,606.9042,606.9042,613.9399,return,0.3442,,50,,,,,,FBP-RB-91.png,0.35,1.2,41,0.5,0,56,56,40,1,,,,,,,,,,,,,,,,,,,,,,,,,,,,,,,,,,,,,,,,
,,,,,SPR24_059,18,female,2024-04-17_11h16.29.256,jersey_experiment_5_v0,2023.2.2,Win32,84.74576271,,,,,,,,,,,,,,,,613.9401,614.9869,614.9869,617.4107,return,0.2771,,74.73958333,,,,,,FBP-YG-81.png,0.4,1.2,23,0.25,0,57,57,22,1,,,,,,,,,,,,,,,,,,,,,,,,,,,,,,,,,,,,,,,,
,,,,,SPR24_059,18,female,2024-04-17_11h16.29.256,jersey_experiment_5_v0,2023.2.2,Win32,84.74576271,,,,,,,,,,,,,,,,617.4109,618.7047,618.7048,620.3286,return,0.2729,,49.609375,,,,,,FBP-OG-18.png,0.4,1.2,8,0.5,0,58,58,7,1,,,,,,,,,,,,,,,,,,,,,,,,,,,,,,,,,,,,,,,,
,,,,,SPR24_059,18,female,2024-04-17_11h16.29.256,jersey_experiment_5_v0,2023.2.2,Win32,84.74576271,,,,,,,,,,,,,,,,620.3287,621.6224,621.6225,623.7168,return,0.2602,,75.13020833,,,,,,FBP-RB-91.png,0.4,1.2,43,0.5,0,59,59,42,1,,,,,,,,,,,,,,,,,,,,,,,,,,,,,,,,,,,,,,,,
,,,,,SPR24_059,18,female,2024-04-17_11h16.29.256,jersey_experiment_5_v0,2023.2.2,Win32,84.74576271,,,,,,,,,,,,,,,,,,,,,,,,,,,,,,,,,,,,,,,623.7173,743.7097,,,,,,,,,,,,,,,,,,,,,,,,,,,,,,,,,,,,,,
,,,,,SPR24_059,18,female,2024-04-17_11h16.29.256,jersey_experiment_5_v0,2023.2.2,Win32,84.74576271,,,,,,,,,,,,,,,,,,,,,,,,,,,,,,,,,,,,,,,,,743.7099,747.333,return,3.6131,,,,,,,,,,,,,,,,,,,,,,,,,,,,,,,,,,
,,,,,SPR24_059,18,female,2024-04-17_11h16.29.256,jersey_experiment_5_v0,2023.2.2,Win32,84.74576271,,,,,,,,,,,,,,,,747.3394,748.3919,748.392,753.7803,return,1.487,,49.86979167,,,,,,FBP-OG-71.png,0.37,1.2,2,0.25,,,,,,,,,,,,,0,0,0,1,1,,,,,,,,,,,,,,,,,,,,,,,,,,,,
,,,,,SPR24_059,18,female,2024-04-17_11h16.29.256,jersey_experiment_5_v0,2023.2.2,Win32,84.74576271,,,,,,,,,,,,,,,,753.7809,754.8275,754.8275,758.1218,return,1.0592,,99.609375,,,,,,FBP-RB-18.png,0.45,1.2,40,0.25,,,,,,,,,,,,,0,1,1,39,1,,,,,,,,,,,,,,,,,,,,,,,,,,,,
,,,,,SPR24_059,18,female,2024-04-17_11h16.29.256,jersey_experiment_5_v0,2023.2.2,Win32,84.74576271,,,,,,,,,,,,,,,,758.1221,759.1688,759.1688,762.969,return,0.9883,,24.86979167,,,,,,FBP-RB-19.png,0.35,1.2,41,0.25,,,,,,,,,,,,,0,2,2,40,1,,,,,,,,,,,,,,,,,,,,,,,,,,,,
,,,,,SPR24_059,18,female,2024-04-17_11h16.29.256,jersey_experiment_5_v0,2023.2.2,Win32,84.74576271,,,,,,,,,,,,,,,,762.9692,764.016,764.016,766.5692,return,0.9187,,25,,,,,,FBP-OG-81.png,0.35,1.2,6,0.25,,,,,,,,,,,,,0,3,3,5,1,,,,,,,,,,,,,,,,,,,,,,,,,,,,
,,,,,SPR24_059,18,female,2024-04-17_11h16.29.256,jersey_experiment_5_v0,2023.2.2,Win32,84.74576271,,,,,,,,,,,,,,,,766.5694,767.8633,767.8633,770.934,return,0.8593,,50,,,,,,FBP-YG-18.png,0.35,1.2,21,0.5,,,,,,,,,,,,,0,4,4,20,1,,,,,,,,,,,,,,,,,,,,,,,,,,,,
,,,,,SPR24_059,18,female,2024-04-17_11h16.29.256,jersey_experiment_5_v0,2023.2.2,Win32,84.74576271,,,,,,,,,,,,,,,,770.9342,772.2281,772.2281,774.8871,return,0.8958,,75,,,,,,FBP-YG-18.png,0.4,1.2,23,0.5,,,,,,,,,,,,,0,5,5,22,1,,,,,,,,,,,,,,,,,,,,,,,,,,,,
,,,,,SPR24_059,18,female,2024-04-17_11h16.29.256,jersey_experiment_5_v0,2023.2.2,Win32,84.74576271,,,,,,,,,,,,,,,,774.8874,776.1813,776.1813,779.2635,return,0.8327,,85.546875,,,,,,FBP-YG-19.png,0.4,1.2,28,0.5,,,,,,,,,,,,,0,6,6,27,1,,,,,,,,,,,,,,,,,,,,,,,,,,,,
,,,,,SPR24_059,18,female,2024-04-17_11h16.29.256,jersey_experiment_5_v0,2023.2.2,Win32,84.74576271,,,,,,,,,,,,,,,,779.2638,780.3107,780.3109,782.9343,return,0.7787,,85.546875,,,,,,FBP-OG-71.png,0.43,1.2,4,0.25,,,,,,,,,,,,,0,7,7,3,1,,,,,,,,,,,,,,,,,,,,,,,,,,,,
,,,,,SPR24_059,18,female,2024-04-17_11h16.29.256,jersey_experiment_5_v0,2023.2.2,Win32,84.74576271,,,,,,,,,,,,,,,,782.9347,784.2286,784.2286,787.6993,return,0.6762,,58.72395833,,,,,,FBP-YG-17.png,0.35,1.2,16,0.5,,,,,,,,,,,,,0,8,8,15,1,,,,,,,,,,,,,,,,,,,,,,,,,,,,
,,,,,SPR24_059,18,female,2024-04-17_11h16.29.256,jersey_experiment_5_v0,2023.2.2,Win32,84.74576271,,,,,,,,,,,,,,,,787.6996,788.9934,788.9934,791.7818,return,0.8127,,99.609375,,,,,,FBP-PT-17.png,0.43,1.2,49,0.5,,,,,,,,,,,,,0,9,9,48,1,,,,,,,,,,,,,,,,,,,,,,,,,,,,
,,,,,SPR24_059,18,female,2024-04-17_11h16.29.256,jersey_experiment_5_v0,2023.2.2,Win32,84.74576271,,,,,,,,,,,,,,,,791.782,793.0759,793.0759,796.7586,return,1.0587,,74.73958333,,,,,,FBP-PT-18.png,0.35,1.2,51,0.5,,,,,,,,,,,,,0,10,10,50,1,,,,,,,,,,,,,,,,,,,,,,,,,,,,
,,,,,SPR24_059,18,female,2024-04-17_11h16.29.256,jersey_experiment_5_v0,2023.2.2,Win32,84.74576271,,,,,,,,,,,,,,,,796.7588,797.8054,797.8054,801.8762,return,0.8136,,99.86979167,,,,,,FBP-RB-19.png,0.45,1.2,45,0.25,,,,,,,,,,,,,0,11,11,44,1,,,,,,,,,,,,,,,,,,,,,,,,,,,,
,,,,,SPR24_059,18,female,2024-04-17_11h16.29.256,jersey_experiment_5_v0,2023.2.2,Win32,84.74576271,,,,,,,,,,,,,,,,801.8765,802.9233,802.9234,807.4766,return,0.8986,,71.35416667,,,,,,FBP-OG-91.png,0.37,1.2,12,0.25,,,,,,,,,,,,,0,12,12,11,1,,,,,,,,,,,,,,,,,,,,,,,,,,,,
,,,,,SPR24_059,18,female,2024-04-17_11h16.29.256,jersey_experiment_5_v0,2023.2.2,Win32,84.74576271,,,,,,,,,,,,,,,,807.4767,808.5236,808.5237,813.4649,return,0.8618,,50.390625,,,,,,FBP-RB-17.png,0.37,1.2,32,0.25,,,,,,,,,,,,,0,13,13,31,1,,,,,,,,,,,,,,,,,,,,,,,,,,,,
,,,,,SPR24_059,18,female,2024-04-17_11h16.29.256,jersey_experiment_5_v0,2023.2.2,Win32,84.74576271,,,,,,,,,,,,,,,,813.4652,814.512,814.512,817.4887,return,0.7731,,99.47916667,,,,,,FBP-RB-19.png,0.43,1.2,44,0.25,,,,,,,,,,,,,0,14,14,43,1,,,,,,,,,,,,,,,,,,,,,,,,,,,,
,,,,,SPR24_059,18,female,2024-04-17_11h16.29.256,jersey_experiment_5_v0,2023.2.2,Win32,84.74576271,,,,,,,,,,,,,,,,817.4889,818.5357,818.5357,823.8184,return,0.9645,,74.47916667,,,,,,FBP-OG-81.png,0.4,1.2,8,0.25,,,,,,,,,,,,,0,15,15,7,1,,,,,,,,,,,,,,,,,,,,,,,,,,,,
,,,,,SPR24_059,18,female,2024-04-17_11h16.29.256,jersey_experiment_5_v0,2023.2.2,Win32,84.74576271,,,,,,,,,,,,,,,,823.8186,824.8653,824.8653,826.5831,return,0.6605,,74.47916667,,,,,,FBP-RB-18.png,0.43,1.2,39,0.25,,,,,,,,,,,,,0,16,16,38,1,,,,,,,,,,,,,,,,,,,,,,,,,,,,
,,,,,SPR24_059,18,female,2024-04-17_11h16.29.256,jersey_experiment_5_v0,2023.2.2,Win32,84.74576271,,,,,,,,,,,,,,,,826.5833,827.8772,827.8773,832.5127,return,0.9023,,99.609375,,,,,,FBP-YG-19.png,0.45,1.2,30,0.5,,,,,,,,,,,,,0,17,17,29,1,,,,,,,,,,,,,,,,,,,,,,,,,,,,
,,,,,SPR24_059,18,female,2024-04-17_11h16.29.256,jersey_experiment_5_v0,2023.2.2,Win32,84.74576271,,,,,,,,,,,,,,,,832.513,833.8069,833.807,837.3599,return,0.9361,,74.47916667,,,,,,FBP-PT-19.png,0.4,1.2,58,0.5,,,,,,,,,,,,,0,18,18,57,1,,,,,,,,,,,,,,,,,,,,,,,,,,,,
,,,,,SPR24_059,18,female,2024-04-17_11h16.29.256,jersey_experiment_5_v0,2023.2.2,Win32,84.74576271,,,,,,,,,,,,,,,,837.3602,838.407,838.407,840.8424,return,0.8331,,74.47916667,,,,,,FBP-RB-19.png,0.37,1.2,42,0.25,,,,,,,,,,,,,0,19,19,41,1,,,,,,,,,,,,,,,,,,,,,,,,,,,,
,,,,,SPR24_059,18,female,2024-04-17_11h16.29.256,jersey_experiment_5_v0,2023.2.2,Win32,84.74576271,,,,,,,,,,,,,,,,840.8426,842.1366,842.1366,844.0543,return,0.7531,,74.47916667,,,,,,FBP-PT-17.png,0.37,1.2,47,0.5,,,,,,,,,,,,,0,20,20,46,1,,,,,,,,,,,,,,,,,,,,,,,,,,,,
,,,,,SPR24_059,18,female,2024-04-17_11h16.29.256,jersey_experiment_5_v0,2023.2.2,Win32,84.74576271,,,,,,,,,,,,,,,,844.0546,845.1014,845.1015,848.6074,return,0.9834,,99.609375,,,,,,FBP-OG-91.png,0.45,1.2,15,0.25,,,,,,,,,,,,,0,21,21,14,1,,,,,,,,,,,,,,,,,,,,,,,,,,,,
,,,,,SPR24_059,18,female,2024-04-17_11h16.29.256,jersey_experiment_5_v0,2023.2.2,Win32,84.74576271,,,,,,,,,,,,,,,,848.6076,849.9015,849.9016,856.4078,return,3.5209,,69.79166667,,,,,,FBP-YG-19.png,0.35,1.2,26,0.5,,,,,,,,,,,,,0,22,22,25,1,,,,,,,,,,,,,,,,,,,,,,,,,,,,
,,,,,SPR24_059,18,female,2024-04-17_11h16.29.256,jersey_experiment_5_v0,2023.2.2,Win32,84.74576271,,,,,,,,,,,,,,,,856.4081,857.4547,857.4548,860.7844,return,0.9235,,99.73958333,,,,,,FBP-OG-91.png,0.43,1.2,14,0.25,,,,,,,,,,,,,0,23,23,13,1,,,,,,,,,,,,,,,,,,,,,,,,,,,,
,,,,,SPR24_059,18,female,2024-04-17_11h16.29.256,jersey_experiment_5_v0,2023.2.2,Win32,84.74576271,,,,,,,,,,,,,,,,860.7847,862.0785,862.0786,866.3611,return,0.8844,,49.73958333,,,,,,FBP-PT-19.png,0.35,1.2,56,0.5,,,,,,,,,,,,,0,24,24,55,1,,,,,,,,,,,,,,,,,,,,,,,,,,,,
,,,,,SPR24_059,18,female,2024-04-17_11h16.29.256,jersey_experiment_5_v0,2023.2.2,Win32,84.74576271,,,,,,,,,,,,,,,,866.3614,867.6552,867.6553,871.1378,return,1.0871,,75,,,,,,FBP-PT-18.png,0.4,1.2,53,0.5,,,,,,,,,,,,,0,25,25,52,1,,,,,,,,,,,,,,,,,,,,,,,,,,,,
,,,,,SPR24_059,18,female,2024-04-17_11h16.29.256,jersey_experiment_5_v0,2023.2.2,Win32,84.74576271,,,,,,,,,,,,,,,,871.138,872.4318,872.4318,875.2672,return,1.4503,,74.21875,,,,,,FBP-YG-19.png,0.37,1.2,27,0.5,,,,,,,,,,,,,0,26,26,26,1,,,,,,,,,,,,,,,,,,,,,,,,,,,,
,,,,,SPR24_059,18,female,2024-04-17_11h16.29.256,jersey_experiment_5_v0,2023.2.2,Win32,84.74576271,,,,,,,,,,,,,,,,875.2675,876.5613,876.5613,879.3616,return,1.1831,,75,,,,,,FBP-YG-17.png,0.37,1.2,17,0.5,,,,,,,,,,,,,0,27,27,16,1,,,,,,,,,,,,,,,,,,,,,,,,,,,,
,,,,,SPR24_059,18,female,2024-04-17_11h16.29.256,jersey_experiment_5_v0,2023.2.2,Win32,84.74576271,,,,,,,,,,,,,,,,879.3619,880.4086,880.4087,884.8324,return,0.8996,,62.76041667,,,,,,FBP-RB-18.png,0.37,1.2,37,0.25,,,,,,,,,,,,,0,28,28,36,1,,,,,,,,,,,,,,,,,,,,,,,,,,,,
,,,,,SPR24_059,18,female,2024-04-17_11h16.29.256,jersey_experiment_5_v0,2023.2.2,Win32,84.74576271,,,,,,,,,,,,,,,,884.8325,885.8793,885.8793,889.5384,return,1.1806,,99.609375,,,,,,FBP-OG-81.png,0.45,1.2,10,0.25,,,,,,,,,,,,,0,29,29,9,1,,,,,,,,,,,,,,,,,,,,,,,,,,,,
,,,,,SPR24_059,18,female,2024-04-17_11h16.29.256,jersey_experiment_5_v0,2023.2.2,Win32,84.74576271,,,,,,,,,,,,,,,,889.5386,890.8325,890.8326,894.0563,return,0.8856,,74.73958333,,,,,,FBP-YG-17.png,0.4,1.2,18,0.5,,,,,,,,,,,,,0,30,30,17,1,,,,,,,,,,,,,,,,,,,,,,,,,,,,
,,,,,SPR24_059,18,female,2024-04-17_11h16.29.256,jersey_experiment_5_v0,2023.2.2,Win32,84.74576271,,,,,,,,,,,,,,,,894.0566,895.3504,895.3504,897.8564,return,0.8083,,99.34895833,,,,,,FBP-PT-19.png,0.43,1.2,59,0.5,,,,,,,,,,,,,0,31,31,58,1,,,,,,,,,,,,,,,,,,,,,,,,,,,,
,,,,,SPR24_059,18,female,2024-04-17_11h16.29.256,jersey_experiment_5_v0,2023.2.2,Win32,84.74576271,,,,,,,,,,,,,,,,897.8566,899.1504,899.1504,902.139,return,0.9272,,68.359375,,,,,,FBP-PT-18.png,0.37,1.2,52,0.5,,,,,,,,,,,,,0,32,32,51,1,,,,,,,,,,,,,,,,,,,,,,,,,,,,
,,,,,SPR24_059,18,female,2024-04-17_11h16.29.256,jersey_experiment_5_v0,2023.2.2,Win32,84.74576271,,,,,,,,,,,,,,,,902.1392,903.433,903.433,906.4213,return,0.9071,,90.10416667,,,,,,FBP-YG-17.png,0.45,1.2,20,0.5,,,,,,,,,,,,,0,33,33,19,1,,,,,,,,,,,,,,,,,,,,,,,,,,,,
,,,,,SPR24_059,18,female,2024-04-17_11h16.29.256,jersey_experiment_5_v0,2023.2.2,Win32,84.74576271,,,,,,,,,,,,,,,,906.4215,907.4685,907.4685,911.1273,return,0.9281,,74.86979167,,,,,,FBP-RB-18.png,0.4,1.2,38,0.25,,,,,,,,,,,,,0,34,34,37,1,,,,,,,,,,,,,,,,,,,,,,,,,,,,
,,,,,SPR24_059,18,female,2024-04-17_11h16.29.256,jersey_experiment_5_v0,2023.2.2,Win32,84.74576271,,,,,,,,,,,,,,,,911.1276,912.4216,912.4216,914.857,return,0.744,,99.73958333,,,,,,FBP-YG-18.png,0.43,1.2,24,0.5,,,,,,,,,,,,,0,35,35,23,1,,,,,,,,,,,,,,,,,,,,,,,,,,,,
,,,,,SPR24_059,18,female,2024-04-17_11h16.29.256,jersey_experiment_5_v0,2023.2.2,Win32,84.74576271,,,,,,,,,,,,,,,,914.8574,915.904,915.9041,928.2928,return,0.8867,,49.86979167,,,,,,FBP-OG-81.png,0.43,1.2,9,0.25,,,,,,,,,,,,,0,36,36,8,1,,,,,,,,,,,,,,,,,,,,,,,,,,,,
,,,,,SPR24_059,18,female,2024-04-17_11h16.29.256,jersey_experiment_5_v0,2023.2.2,Win32,84.74576271,,,,,,,,,,,,,,,,928.2931,929.5869,929.587,936.7754,return,4.9191,,99.47916667,,,,,,FBP-PT-19.png,0.45,1.2,60,0.5,,,,,,,,,,,,,0,37,37,59,1,,,,,,,,,,,,,,,,,,,,,,,,,,,,
,,,,,SPR24_059,18,female,2024-04-17_11h16.29.256,jersey_experiment_5_v0,2023.2.2,Win32,84.74576271,,,,,,,,,,,,,,,,936.7802,937.8225,937.8226,941.1284,return,1.0586,,99.47916667,,,,,,FBP-OG-71.png,0.45,1.2,5,0.25,,,,,,,,,,,,,0,38,38,4,1,,,,,,,,,,,,,,,,,,,,,,,,,,,,
,,,,,SPR24_059,18,female,2024-04-17_11h16.29.256,jersey_experiment_5_v0,2023.2.2,Win32,84.74576271,,,,,,,,,,,,,,,,941.1287,942.1756,942.1756,946.3405,return,0.9197,,87.5,,,,,,FBP-RB-17.png,0.43,1.2,34,0.25,,,,,,,,,,,,,0,39,39,33,1,,,,,,,,,,,,,,,,,,,,,,,,,,,,
,,,,,SPR24_059,18,female,2024-04-17_11h16.29.256,jersey_experiment_5_v0,2023.2.2,Win32,84.74576271,,,,,,,,,,,,,,,,946.3408,947.6346,947.6347,951.3289,return,0.7961,,89.0625,,,,,,FBP-YG-17.png,0.43,1.2,19,0.5,,,,,,,,,,,,,0,40,40,18,1,,,,,,,,,,,,,,,,,,,,,,,,,,,,
,,,,,SPR24_059,18,female,2024-04-17_11h16.29.256,jersey_experiment_5_v0,2023.2.2,Win32,84.74576271,,,,,,,,,,,,,,,,951.3292,952.376,952.376,955.882,return,1.0358,,50,,,,,,FBP-OG-71.png,0.4,1.2,3,0.25,,,,,,,,,,,,,0,41,41,2,1,,,,,,,,,,,,,,,,,,,,,,,,,,,,
,,,,,SPR24_059,18,female,2024-04-17_11h16.29.256,jersey_experiment_5_v0,2023.2.2,Win32,84.74576271,,,,,,,,,,,,,,,,955.8823,957.1761,957.1761,960.5292,return,1.1109,,99.47916667,,,,,,FBP-PT-17.png,0.45,1.2,50,0.5,,,,,,,,,,,,,0,42,42,49,1,,,,,,,,,,,,,,,,,,,,,,,,,,,,
,,,,,SPR24_059,18,female,2024-04-17_11h16.29.256,jersey_experiment_5_v0,2023.2.2,Win32,84.74576271,,,,,,,,,,,,,,,,960.5294,961.5762,961.5762,965.4118,return,0.9463,,74.73958333,,,,,,FBP-RB-19.png,0.4,1.2,43,0.25,,,,,,,,,,,,,0,43,43,42,1,,,,,,,,,,,,,,,,,,,,,,,,,,,,
,,,,,SPR24_059,18,female,2024-04-17_11h16.29.256,jersey_experiment_5_v0,2023.2.2,Win32,84.74576271,,,,,,,,,,,,,,,,965.412,966.4588,966.4589,970.0237,return,0.8574,,49.609375,,,,,,FBP-OG-81.png,0.37,1.2,7,0.25,,,,,,,,,,,,,0,44,44,6,1,,,,,,,,,,,,,,,,,,,,,,,,,,,,
,,,,,SPR24_059,18,female,2024-04-17_11h16.29.256,jersey_experiment_5_v0,2023.2.2,Win32,84.74576271,,,,,,,,,,,,,,,,970.0239,971.3179,971.3179,974.1533,return,0.956,,91.27604167,,,,,,FBP-PT-18.png,0.43,1.2,54,0.5,,,,,,,,,,,,,0,45,45,53,1,,,,,,,,,,,,,,,,,,,,,,,,,,,,
,,,,,SPR24_059,18,female,2024-04-17_11h16.29.256,jersey_experiment_5_v0,2023.2.2,Win32,84.74576271,,,,,,,,,,,,,,,,974.1535,975.4476,975.4477,977.8124,return,0.8607,,91.27604167,,,,,,FBP-YG-19.png,0.43,1.2,29,0.5,,,,,,,,,,,,,0,46,46,28,1,,,,,,,,,,,,,,,,,,,,,,,,,,,,
,,,,,SPR24_059,18,female,2024-04-17_11h16.29.256,jersey_experiment_5_v0,2023.2.2,Win32,84.74576271,,,,,,,,,,,,,,,,977.8128,979.1065,979.1065,983.7537,return,1.2611,,74.609375,,,,,,FBP-PT-17.png,0.4,1.2,48,0.5,,,,,,,,,,,,,0,47,47,47,1,,,,,,,,,,,,,,,,,,,,,,,,,,,,
,,,,,SPR24_059,18,female,2024-04-17_11h16.29.256,jersey_experiment_5_v0,2023.2.2,Win32,84.74576271,,,,,,,,,,,,,,,,983.7538,985.0479,985.0479,988.4479,return,1.0679,,66.796875,,,,,,FBP-PT-19.png,0.37,1.2,57,0.5,,,,,,,,,,,,,0,48,48,56,1,,,,,,,,,,,,,,,,,,,,,,,,,,,,
,,,,,SPR24_059,18,female,2024-04-17_11h16.29.256,jersey_experiment_5_v0,2023.2.2,Win32,84.74576271,,,,,,,,,,,,,,,,988.448,989.742,989.7421,992.2128,return,0.8982,,99.73958333,,,,,,FBP-YG-18.png,0.45,1.2,25,0.5,,,,,,,,,,,,,0,49,49,24,1,,,,,,,,,,,,,,,,,,,,,,,,,,,,
,,,,,SPR24_059,18,female,2024-04-17_11h16.29.256,jersey_experiment_5_v0,2023.2.2,Win32,84.74576271,,,,,,,,,,,,,,,,992.2131,993.26,993.26,997.0247,return,0.7961,,24.34895833,,,,,,FBP-OG-71.png,0.35,1.2,1,0.25,,,,,,,,,,,,,0,50,50,0,1,,,,,,,,,,,,,,,,,,,,,,,,,,,,
,,,,,SPR24_059,18,female,2024-04-17_11h16.29.256,jersey_experiment_5_v0,2023.2.2,Win32,84.74576271,,,,,,,,,,,,,,,,997.0249,998.0718,998.0718,1001.6836,return,0.6986,,85.546875,,,,,,FBP-RB-17.png,0.45,1.2,35,0.25,,,,,,,,,,,,,0,51,51,34,1,,,,,,,,,,,,,,,,,,,,,,,,,,,,
,,,,,SPR24_059,18,female,2024-04-17_11h16.29.256,jersey_experiment_5_v0,2023.2.2,Win32,84.74576271,,,,,,,,,,,,,,,,1001.6838,1002.7307,1002.7307,1006.225,return,0.7958,,70.18229167,,,,,,FBP-OG-91.png,0.4,1.2,13,0.25,,,,,,,,,,,,,0,52,52,12,1,,,,,,,,,,,,,,,,,,,,,,,,,,,,
,,,,,SPR24_059,18,female,2024-04-17_11h16.29.256,jersey_experiment_5_v0,2023.2.2,Win32,84.74576271,,,,,,,,,,,,,,,,1006.2252,1007.2721,1007.2721,1009.9545,return,0.9564,,70.18229167,,,,,,FBP-RB-17.png,0.4,1.2,33,0.25,,,,,,,,,,,,,0,53,53,32,1,,,,,,,,,,,,,,,,,,,,,,,,,,,,
,,,,,SPR24_059,18,female,2024-04-17_11h16.29.256,jersey_experiment_5_v0,2023.2.2,Win32,84.74576271,,,,,,,,,,,,,,,,1009.9548,1011.0016,1011.0016,1014.2255,return,0.9462,,57.55208333,,,,,,FBP-RB-17.png,0.35,1.2,31,0.25,,,,,,,,,,,,,0,54,54,30,1,,,,,,,,,,,,,,,,,,,,,,,,,,,,
,,,,,SPR24_059,18,female,2024-04-17_11h16.29.256,jersey_experiment_5_v0,2023.2.2,Win32,84.74576271,,,,,,,,,,,,,,,,1014.2257,1015.2723,1015.2724,1018.8843,return,0.8634,,45.3125,,,,,,FBP-RB-18.png,0.35,1.2,36,0.25,,,,,,,,,,,,,0,55,55,35,1,,,,,,,,,,,,,,,,,,,,,,,,,,,,
,,,,,SPR24_059,18,female,2024-04-17_11h16.29.256,jersey_experiment_5_v0,2023.2.2,Win32,84.74576271,,,,,,,,,,,,,,,,1018.8844,1020.1786,1020.1786,1023.7433,return,2.2917,,50.13020833,,,,,,FBP-YG-18.png,0.37,1.2,22,0.5,,,,,,,,,,,,,0,56,56,21,1,,,,,,,,,,,,,,,,,,,,,,,,,,,,
,,,,,SPR24_059,18,female,2024-04-17_11h16.29.256,jersey_experiment_5_v0,2023.2.2,Win32,84.74576271,,,,,,,,,,,,,,,,1023.7435,1024.7906,1024.7906,1027.367,return,0.6605,,50.13020833,,,,,,FBP-OG-91.png,0.35,1.2,11,0.25,,,,,,,,,,,,,0,57,57,10,1,,,,,,,,,,,,,,,,,,,,,,,,,,,,
,,,,,SPR24_059,18,female,2024-04-17_11h16.29.256,jersey_experiment_5_v0,2023.2.2,Win32,84.74576271,,,,,,,,,,,,,,,,1027.3672,1028.6612,1028.6613,1031.6848,return,0.863,,99.34895833,,,,,,FBP-PT-18.png,0.45,1.2,55,0.5,,,,,,,,,,,,,0,58,58,54,1,,,,,,,,,,,,,,,,,,,,,,,,,,,,
,,,,,SPR24_059,18,female,2024-04-17_11h16.29.256,jersey_experiment_5_v0,2023.2.2,Win32,84.74576271,,,,,,,,,,,,,,,,1031.6851,1032.9791,1032.9791,1036.038,return,0.8,,49.609375,,,,,,FBP-PT-17.png,0.35,1.2,46,0.5,,,,,,,,,,,,,0,59,59,45,1,,,,,,,,,,,,,,,,,,,,,,,,,,,,
,,,,,SPR24_059,18,female,2024-04-17_11h16.29.256,jersey_experiment_5_v0,2023.2.2,Win32,84.74576271,,,,,,,,,,,,,,,,1036.0399,1037.3321,1037.3321,1041.0028,return,1.1067,,74.86979167,,,,,,FBP-PT-91.png,0.43,1.2,59,0.5,,,,,,,,,,,,,,,,,,0,0,0,58,1,,,,,,,,,,,,,,,,,,,,,,,
,,,,,SPR24_059,18,female,2024-04-17_11h16.29.256,jersey_experiment_5_v0,2023.2.2,Win32,84.74576271,,,,,,,,,,,,,,,,1041.0032,1042.0498,1042.0498,1044.9677,return,0.951,,74.609375,,,,,,FBP-RB-71.png,0.37,1.2,32,0.25,,,,,,,,,,,,,,,,,,0,1,1,31,1,,,,,,,,,,,,,,,,,,,,,,,
,,,,,SPR24_059,18,female,2024-04-17_11h16.29.256,jersey_experiment_5_v0,2023.2.2,Win32,84.74576271,,,,,,,,,,,,,,,,1044.9678,1046.0147,1046.0147,1048.0855,return,0.7443,,74.609375,,,,,,FBP-OG-19.png,0.43,1.2,14,0.25,,,,,,,,,,,,,,,,,,0,2,2,13,1,,,,,,,,,,,,,,,,,,,,,,,
,,,,,SPR24_059,18,female,2024-04-17_11h16.29.256,jersey_experiment_5_v0,2023.2.2,Win32,84.74576271,,,,,,,,,,,,,,,,1048.0857,1049.1324,1049.1325,1052.2622,return,0.8027,,62.109375,,,,,,FBP-RB-81.png,0.37,1.2,37,0.25,,,,,,,,,,,,,,,,,,0,3,3,36,1,,,,,,,,,,,,,,,,,,,,,,,
,,,,,SPR24_059,18,female,2024-04-17_11h16.29.256,jersey_experiment_5_v0,2023.2.2,Win32,84.74576271,,,,,,,,,,,,,,,,1052.2624,1053.3091,1053.3091,1056.7916,return,0.9421,,74.86979167,,,,,,FBP-RB-71.png,0.43,1.2,34,0.25,,,,,,,,,,,,,,,,,,0,4,4,33,1,,,,,,,,,,,,,,,,,,,,,,,
,,,,,SPR24_059,18,female,2024-04-17_11h16.29.256,jersey_experiment_5_v0,2023.2.2,Win32,84.74576271,,,,,,,,,,,,,,,,1056.7918,1058.0859,1058.0859,1060.874,return,0.706,,86.58854167,,,,,,FBP-YG-71.png,0.43,1.2,19,0.5,,,,,,,,,,,,,,,,,,0,5,5,18,1,,,,,,,,,,,,,,,,,,,,,,,
,,,,,SPR24_059,18,female,2024-04-17_11h16.29.256,jersey_experiment_5_v0,2023.2.2,Win32,84.74576271,,,,,,,,,,,,,,,,1060.8743,1061.9213,1061.9214,1064.8037,return,0.9552,,86.45833333,,,,,,FBP-RB-91.png,0.45,1.2,45,0.25,,,,,,,,,,,,,,,,,,0,6,6,44,1,,,,,,,,,,,,,,,,,,,,,,,
,,,,,SPR24_059,18,female,2024-04-17_11h16.29.256,jersey_experiment_5_v0,2023.2.2,Win32,84.74576271,,,,,,,,,,,,,,,,1064.8039,1066.0978,1066.0979,1069.2979,return,0.9009,,94.01041667,,,,,,FBP-PT-91.png,0.45,1.2,60,0.5,,,,,,,,,,,,,,,,,,0,7,7,59,1,,,,,,,,,,,,,,,,,,,,,,,
,,,,,SPR24_059,18,female,2024-04-17_11h16.29.256,jersey_experiment_5_v0,2023.2.2,Win32,84.74576271,,,,,,,,,,,,,,,,1069.2981,1070.5922,1070.5922,1072.8511,return,0.9095,,94.01041667,,,,,,FBP-YG-91.png,0.43,1.2,29,0.5,,,,,,,,,,,,,,,,,,0,8,8,28,1,,,,,,,,,,,,,,,,,,,,,,,
,,,,,SPR24_059,18,female,2024-04-17_11h16.29.256,jersey_experiment_5_v0,2023.2.2,Win32,84.74576271,,,,,,,,,,,,,,,,1072.8513,1074.1451,1074.1452,1077.3689,return,0.9886,,75,,,,,,FBP-YG-91.png,0.4,1.2,28,0.5,,,,,,,,,,,,,,,,,,0,9,9,27,1,,,,,,,,,,,,,,,,,,,,,,,
,,,,,SPR24_059,18,female,2024-04-17_11h16.29.256,jersey_experiment_5_v0,2023.2.2,Win32,84.74576271,,,,,,,,,,,,,,,,1077.3692,1078.663,1078.663,1081.322,return,0.7625,,49.609375,,,,,,FBP-YG-81.png,0.35,1.2,21,0.5,,,,,,,,,,,,,,,,,,0,10,10,20,1,,,,,,,,,,,,,,,,,,,,,,,
,,,,,SPR24_059,18,female,2024-04-17_11h16.29.256,jersey_experiment_5_v0,2023.2.2,Win32,84.74576271,,,,,,,,,,,,,,,,1081.3223,1082.6161,1082.6161,1084.7221,return,0.8284,,49.609375,,,,,,FBP-YG-91.png,0.37,1.2,27,0.5,,,,,,,,,,,,,,,,,,0,11,11,26,1,,,,,,,,,,,,,,,,,,,,,,,
,,,,,SPR24_059,18,female,2024-04-17_11h16.29.256,jersey_experiment_5_v0,2023.2.2,Win32,84.74576271,,,,,,,,,,,,,,,,1084.7223,1086.0163,1086.0163,1089.5459,return,1.6476,,55.33854167,,,,,,FBP-YG-71.png,0.4,1.2,18,0.5,,,,,,,,,,,,,,,,,,0,12,12,17,1,,,,,,,,,,,,,,,,,,,,,,,
,,,,,SPR24_059,18,female,2024-04-17_11h16.29.256,jersey_experiment_5_v0,2023.2.2,Win32,84.74576271,,,,,,,,,,,,,,,,1089.5461,1090.84,1090.84,1095.299,return,2.1562,,53.25520833,,,,,,FBP-PT-71.png,0.35,1.2,46,0.5,,,,,,,,,,,,,,,,,,0,13,13,45,1,,,,,,,,,,,,,,,,,,,,,,,
,,,,,SPR24_059,18,female,2024-04-17_11h16.29.256,jersey_experiment_5_v0,2023.2.2,Win32,84.74576271,,,,,,,,,,,,,,,,1095.2993,1096.593,1096.593,1099.7343,return,0.7052,,53.25520833,,,,,,FBP-PT-81.png,0.37,1.2,52,0.5,,,,,,,,,,,,,,,,,,0,14,14,51,1,,,,,,,,,,,,,,,,,,,,,,,
,,,,,SPR24_059,18,female,2024-04-17_11h16.29.256,jersey_experiment_5_v0,2023.2.2,Win32,84.74576271,,,,,,,,,,,,,,,,1099.7345,1100.7815,1100.7815,1103.1934,return,1.1675,,53.25520833,,,,,,FBP-OG-17.png,0.37,1.2,2,0.25,,,,,,,,,,,,,,,,,,0,15,15,1,1,,,,,,,,,,,,,,,,,,,,,,,
,,,,,SPR24_059,18,female,2024-04-17_11h16.29.256,jersey_experiment_5_v0,2023.2.2,Win32,84.74576271,,,,,,,,,,,,,,,,1103.1936,1104.4875,1104.4875,1107.7465,return,0.7691,,75,,,,,,FBP-PT-81.png,0.43,1.2,54,0.5,,,,,,,,,,,,,,,,,,0,16,16,53,1,,,,,,,,,,,,,,,,,,,,,,,
,,,,,SPR24_059,18,female,2024-04-17_11h16.29.256,jersey_experiment_5_v0,2023.2.2,Win32,84.74576271,,,,,,,,,,,,,,,,1107.7467,1108.7935,1108.7935,1111.2173,return,0.9371,,74.73958333,,,,,,FBP-RB-91.png,0.4,1.2,43,0.25,,,,,,,,,,,,,,,,,,0,17,17,42,1,,,,,,,,,,,,,,,,,,,,,,,
,,,,,SPR24_059,18,female,2024-04-17_11h16.29.256,jersey_experiment_5_v0,2023.2.2,Win32,84.74576271,,,,,,,,,,,,,,,,1111.2176,1112.2642,1112.2642,1115.7938,return,0.9719,,49.86979167,,,,,,FBP-RB-81.png,0.35,1.2,36,0.25,,,,,,,,,,,,,,,,,,0,18,18,35,1,,,,,,,,,,,,,,,,,,,,,,,
,,,,,SPR24_059,18,female,2024-04-17_11h16.29.256,jersey_experiment_5_v0,2023.2.2,Win32,84.74576271,,,,,,,,,,,,,,,,1115.794,1117.0879,1117.0879,1120.547,return,0.7912,,75,,,,,,FBP-YG-81.png,0.37,1.2,22,0.5,,,,,,,,,,,,,,,,,,0,19,19,21,1,,,,,,,,,,,,,,,,,,,,,,,
,,,,,SPR24_059,18,female,2024-04-17_11h16.29.256,jersey_experiment_5_v0,2023.2.2,Win32,84.74576271,,,,,,,,,,,,,,,,1120.5471,1121.841,1121.841,1126.5706,return,0.7625,,75.13020833,,,,,,FBP-PT-81.png,0.4,1.2,53,0.5,,,,,,,,,,,,,,,,,,0,20,20,52,1,,,,,,,,,,,,,,,,,,,,,,,
,,,,,SPR24_059,18,female,2024-04-17_11h16.29.256,jersey_experiment_5_v0,2023.2.2,Win32,84.74576271,,,,,,,,,,,,,,,,1126.5709,1127.8648,1127.8648,1129.712,return,0.7734,,75.13020833,,,,,,FBP-YG-71.png,0.37,1.2,17,0.5,,,,,,,,,,,,,,,,,,0,21,21,16,1,,,,,,,,,,,,,,,,,,,,,,,
,,,,,SPR24_059,18,female,2024-04-17_11h16.29.256,jersey_experiment_5_v0,2023.2.2,Win32,84.74576271,,,,,,,,,,,,,,,,1129.7123,1131.0062,1131.0062,1133.6884,return,1.6604,,75.13020833,,,,,,FBP-PT-71.png,0.4,1.2,48,0.5,,,,,,,,,,,,,,,,,,0,22,22,47,1,,,,,,,,,,,,,,,,,,,,,,,
,,,,,SPR24_059,18,female,2024-04-17_11h16.29.256,jersey_experiment_5_v0,2023.2.2,Win32,84.74576271,,,,,,,,,,,,,,,,1133.6887,1134.9826,1134.9827,1138.0183,return,1.0063,,75.13020833,,,,,,FBP-YG-71.png,0.35,1.2,16,0.5,,,,,,,,,,,,,,,,,,0,23,23,15,1,,,,,,,,,,,,,,,,,,,,,,,
,,,,,SPR24_059,18,female,2024-04-17_11h16.29.256,jersey_experiment_5_v0,2023.2.2,Win32,84.74576271,,,,,,,,,,,,,,,,1138.0186,1139.0652,1139.0653,1142.6771,return,0.7307,,87.23958333,,,,,,FBP-RB-81.png,0.43,1.2,39,0.25,,,,,,,,,,,,,,,,,,0,24,24,38,1,,,,,,,,,,,,,,,,,,,,,,,
,,,,,SPR24_059,18,female,2024-04-17_11h16.29.256,jersey_experiment_5_v0,2023.2.2,Win32,84.74576271,,,,,,,,,,,,,,,,1142.6773,1143.7242,1143.7242,1146.0657,return,0.8187,,87.23958333,,,,,,FBP-OG-17.png,0.43,1.2,4,0.25,,,,,,,,,,,,,,,,,,0,25,25,3,1,,,,,,,,,,,,,,,,,,,,,,,
,,,,,SPR24_059,18,female,2024-04-17_11h16.29.256,jersey_experiment_5_v0,2023.2.2,Win32,84.74576271,,,,,,,,,,,,,,,,1146.0659,1147.1126,1147.1126,1150.1834,return,0.7529,,92.96875,,,,,,FBP-OG-19.png,0.45,1.2,15,0.25,,,,,,,,,,,,,,,,,,0,26,26,14,1,,,,,,,,,,,,,,,,,,,,,,,
,,,,,SPR24_059,18,female,2024-04-17_11h16.29.256,jersey_experiment_5_v0,2023.2.2,Win32,84.74576271,,,,,,,,,,,,,,,,1150.1837,1151.2304,1151.2304,1154.1129,return,0.6876,,61.71875,,,,,,FBP-OG-17.png,0.4,1.2,3,0.25,,,,,,,,,,,,,,,,,,0,27,27,2,1,,,,,,,,,,,,,,,,,,,,,,,
,,,,,SPR24_059,18,female,2024-04-17_11h16.29.256,jersey_experiment_5_v0,2023.2.2,Win32,84.74576271,,,,,,,,,,,,,,,,1154.1131,1155.407,1155.4071,1159.2071,return,0.8107,,99.47916667,,,,,,FBP-YG-91.png,0.45,1.2,30,0.5,,,,,,,,,,,,,,,,,,0,28,28,29,1,,,,,,,,,,,,,,,,,,,,,,,
,,,,,SPR24_059,18,female,2024-04-17_11h16.29.256,jersey_experiment_5_v0,2023.2.2,Win32,84.74576271,,,,,,,,,,,,,,,,1159.2074,1160.2543,1160.2544,1163.478,return,0.7439,,36.84895833,,,,,,FBP-OG-19.png,0.37,1.2,12,0.25,,,,,,,,,,,,,,,,,,0,29,29,11,1,,,,,,,,,,,,,,,,,,,,,,,
,,,,,SPR24_059,18,female,2024-04-17_11h16.29.256,jersey_experiment_5_v0,2023.2.2,Win32,84.74576271,,,,,,,,,,,,,,,,1163.4783,1164.5251,1164.5251,1169.2076,return,2.4572,,30.72916667,,,,,,FBP-OG-18.png,0.35,1.2,6,0.25,,,,,,,,,,,,,,,,,,0,30,30,5,1,,,,,,,,,,,,,,,,,,,,,,,
,,,,,SPR24_059,18,female,2024-04-17_11h16.29.256,jersey_experiment_5_v0,2023.2.2,Win32,84.74576271,,,,,,,,,,,,,,,,1169.2079,1170.2547,1170.2547,1173.4781,return,0.9088,,99.47916667,,,,,,FBP-OG-18.png,0.45,1.2,10,0.25,,,,,,,,,,,,,,,,,,0,31,31,9,1,,,,,,,,,,,,,,,,,,,,,,,
,,,,,SPR24_059,18,female,2024-04-17_11h16.29.256,jersey_experiment_5_v0,2023.2.2,Win32,84.74576271,,,,,,,,,,,,,,,,1173.4785,1174.5252,1174.5252,1177.8079,return,0.8206,,74.47916667,,,,,,FBP-OG-18.png,0.4,1.2,8,0.25,,,,,,,,,,,,,,,,,,0,32,32,7,1,,,,,,,,,,,,,,,,,,,,,,,
,,,,,SPR24_059,18,female,2024-04-17_11h16.29.256,jersey_experiment_5_v0,2023.2.2,Win32,84.74576271,,,,,,,,,,,,,,,,1177.8082,1178.8549,1178.8549,1181.4668,return,0.8943,,74.47916667,,,,,,FBP-RB-81.png,0.4,1.2,38,0.25,,,,,,,,,,,,,,,,,,0,33,33,37,1,,,,,,,,,,,,,,,,,,,,,,,
,,,,,SPR24_059,18,female,2024-04-17_11h16.29.256,jersey_experiment_5_v0,2023.2.2,Win32,84.74576271,,,,,,,,,,,,,,,,1181.4671,1182.5139,1182.514,1184.4551,return,0.7073,,74.47916667,,,,,,FBP-OG-18.png,0.43,1.2,9,0.25,,,,,,,,,,,,,,,,,,0,34,34,8,1,,,,,,,,,,,,,,,,,,,,,,,
,,,,,SPR24_059,18,female,2024-04-17_11h16.29.256,jersey_experiment_5_v0,2023.2.2,Win32,84.74576271,,,,,,,,,,,,,,,,1184.4553,1185.7493,1185.7494,1191.6083,return,0.9653,,56.11979167,,,,,,FBP-PT-81.png,0.35,1.2,51,0.5,,,,,,,,,,,,,,,,,,0,35,35,50,1,,,,,,,,,,,,,,,,,,,,,,,
,,,,,SPR24_059,18,female,2024-04-17_11h16.29.256,jersey_experiment_5_v0,2023.2.2,Win32,84.74576271,,,,,,,,,,,,,,,,1191.6086,1192.6554,1192.6555,1195.9379,return,0.948,,49.609375,,,,,,FBP-RB-91.png,0.37,1.2,42,0.25,,,,,,,,,,,,,,,,,,0,36,36,41,1,,,,,,,,,,,,,,,,,,,,,,,
,,,,,SPR24_059,18,female,2024-04-17_11h16.29.256,jersey_experiment_5_v0,2023.2.2,Win32,84.74576271,,,,,,,,,,,,,,,,1195.9382,1196.9852,1196.9852,1202.0559,return,0.8334,,37.76041667,,,,,,FBP-OG-17.png,0.35,1.2,1,0.25,,,,,,,,,,,,,,,,,,0,37,37,0,1,,,,,,,,,,,,,,,,,,,,,,,
,,,,,SPR24_059,18,female,2024-04-17_11h16.29.256,jersey_experiment_5_v0,2023.2.2,Win32,84.74576271,,,,,,,,,,,,,,,,1202.0562,1203.1029,1203.103,1207.3385,return,0.9312,,74.73958333,,,,,,FBP-OG-19.png,0.4,1.2,13,0.25,,,,,,,,,,,,,,,,,,0,38,38,12,1,,,,,,,,,,,,,,,,,,,,,,,
,,,,,SPR24_059,18,female,2024-04-17_11h16.29.256,jersey_experiment_5_v0,2023.2.2,Win32,84.74576271,,,,,,,,,,,,,,,,1207.3387,1208.3854,1208.3854,1212.2091,return,0.7959,,49.86979167,,,,,,FBP-OG-18.png,0.37,1.2,7,0.25,,,,,,,,,,,,,,,,,,0,39,39,6,1,,,,,,,,,,,,,,,,,,,,,,,
,,,,,SPR24_059,18,female,2024-04-17_11h16.29.256,jersey_experiment_5_v0,2023.2.2,Win32,84.74576271,,,,,,,,,,,,,,,,1212.2093,1213.5033,1213.5033,1216.8328,return,0.7465,,72.65625,,,,,,FBP-YG-81.png,0.4,1.2,23,0.5,,,,,,,,,,,,,,,,,,0,40,40,22,1,,,,,,,,,,,,,,,,,,,,,,,
,,,,,SPR24_059,18,female,2024-04-17_11h16.29.256,jersey_experiment_5_v0,2023.2.2,Win32,84.74576271,,,,,,,,,,,,,,,,1216.833,1218.1269,1218.1269,1222.1507,return,1.1787,,99.73958333,,,,,,FBP-YG-81.png,0.43,1.2,24,0.5,,,,,,,,,,,,,,,,,,0,41,41,23,1,,,,,,,,,,,,,,,,,,,,,,,
,,,,,SPR24_059,18,female,2024-04-17_11h16.29.256,jersey_experiment_5_v0,2023.2.2,Win32,84.74576271,,,,,,,,,,,,,,,,1222.151,1223.4449,1223.445,1225.7156,return,0.9669,,99.47916667,,,,,,FBP-YG-71.png,0.45,1.2,20,0.5,,,,,,,,,,,,,,,,,,0,42,42,19,1,,,,,,,,,,,,,,,,,,,,,,,
,,,,,SPR24_059,18,female,2024-04-17_11h16.29.256,jersey_experiment_5_v0,2023.2.2,Win32,84.74576271,,,,,,,,,,,,,,,,1225.7158,1226.7626,1226.7626,1229.9039,return,0.9003,,100,,,,,,FBP-RB-81.png,0.45,1.2,40,0.25,,,,,,,,,,,,,,,,,,0,43,43,39,1,,,,,,,,,,,,,,,,,,,,,,,
,,,,,SPR24_059,18,female,2024-04-17_11h16.29.256,jersey_experiment_5_v0,2023.2.2,Win32,84.74576271,,,,,,,,,,,,,,,,1229.9041,1231.1982,1231.1982,1234.2922,return,0.7675,,70.05208333,,,,,,FBP-PT-71.png,0.37,1.2,47,0.5,,,,,,,,,,,,,,,,,,0,44,44,46,1,,,,,,,,,,,,,,,,,,,,,,,
,,,,,SPR24_059,18,female,2024-04-17_11h16.29.256,jersey_experiment_5_v0,2023.2.2,Win32,84.74576271,,,,,,,,,,,,,,,,1234.2924,1235.3395,1235.3395,1238.4807,return,0.9118,,74.609375,,,,,,FBP-RB-91.png,0.43,1.2,44,0.25,,,,,,,,,,,,,,,,,,0,45,45,43,1,,,,,,,,,,,,,,,,,,,,,,,
,,,,,SPR24_059,18,female,2024-04-17_11h16.29.256,jersey_experiment_5_v0,2023.2.2,Win32,84.74576271,,,,,,,,,,,,,,,,1238.4809,1239.7749,1239.7749,1244.0103,return,0.9413,,93.88020833,,,,,,FBP-YG-81.png,0.45,1.2,25,0.5,,,,,,,,,,,,,,,,,,0,46,46,24,1,,,,,,,,,,,,,,,,,,,,,,,
,,,,,SPR24_059,18,female,2024-04-17_11h16.29.256,jersey_experiment_5_v0,2023.2.2,Win32,84.74576271,,,,,,,,,,,,,,,,1244.0106,1245.3046,1245.3046,1248.8104,return,0.9511,,96.22395833,,,,,,FBP-PT-71.png,0.45,1.2,50,0.5,,,,,,,,,,,,,,,,,,0,47,47,49,1,,,,,,,,,,,,,,,,,,,,,,,
,,,,,SPR24_059,18,female,2024-04-17_11h16.29.256,jersey_experiment_5_v0,2023.2.2,Win32,84.74576271,,,,,,,,,,,,,,,,1248.8107,1250.1046,1250.1046,1253.5873,return,1.0503,,74.609375,,,,,,FBP-YG-91.png,0.35,1.2,26,0.5,,,,,,,,,,,,,,,,,,0,48,48,25,1,,,,,,,,,,,,,,,,,,,,,,,
,,,,,SPR24_059,18,female,2024-04-17_11h16.29.256,jersey_experiment_5_v0,2023.2.2,Win32,84.74576271,,,,,,,,,,,,,,,,1253.5876,1254.6342,1254.6342,1258.6109,return,1.1705,,99.73958333,,,,,,FBP-RB-71.png,0.45,1.2,35,0.25,,,,,,,,,,,,,,,,,,0,49,49,34,1,,,,,,,,,,,,,,,,,,,,,,,
,,,,,SPR24_059,18,female,2024-04-17_11h16.29.256,jersey_experiment_5_v0,2023.2.2,Win32,84.74576271,,,,,,,,,,,,,,,,1258.6112,1259.905,1259.9051,1263.2698,return,0.8708,,74.609375,,,,,,FBP-PT-91.png,0.37,1.2,57,0.5,,,,,,,,,,,,,,,,,,0,50,50,56,1,,,,,,,,,,,,,,,,,,,,,,,
,,,,,SPR24_059,18,female,2024-04-17_11h16.29.256,jersey_experiment_5_v0,2023.2.2,Win32,84.74576271,,,,,,,,,,,,,,,,1263.2701,1264.317,1264.317,1267.211,return,0.8084,,64.32291667,,,,,,FBP-RB-71.png,0.35,1.2,31,0.25,,,,,,,,,,,,,,,,,,0,51,51,30,1,,,,,,,,,,,,,,,,,,,,,,,
,,,,,SPR24_059,18,female,2024-04-17_11h16.29.256,jersey_experiment_5_v0,2023.2.2,Win32,84.74576271,,,,,,,,,,,,,,,,1267.2113,1268.5052,1268.5052,1271.8936,return,0.9297,,80.859375,,,,,,FBP-PT-71.png,0.43,1.2,49,0.5,,,,,,,,,,,,,,,,,,0,52,52,48,1,,,,,,,,,,,,,,,,,,,,,,,
,,,,,SPR24_059,18,female,2024-04-17_11h16.29.256,jersey_experiment_5_v0,2023.2.2,Win32,84.74576271,,,,,,,,,,,,,,,,1271.8939,1272.9408,1272.9409,1275.3291,return,0.6989,,80.859375,,,,,,FBP-OG-17.png,0.45,1.2,5,0.25,,,,,,,,,,,,,,,,,,0,53,53,4,1,,,,,,,,,,,,,,,,,,,,,,,
,,,,,SPR24_059,18,female,2024-04-17_11h16.29.256,jersey_experiment_5_v0,2023.2.2,Win32,84.74576271,,,,,,,,,,,,,,,,1275.3292,1276.6233,1276.6233,1281.7058,return,1.9529,,99.34895833,,,,,,FBP-PT-81.png,0.45,1.2,55,0.5,,,,,,,,,,,,,,,,,,0,54,54,54,1,,,,,,,,,,,,,,,,,,,,,,,
,,,,,SPR24_059,18,female,2024-04-17_11h16.29.256,jersey_experiment_5_v0,2023.2.2,Win32,84.74576271,,,,,,,,,,,,,,,,1281.7061,1283,1283,1286.4589,return,0.9175,,88.41145833,,,,,,FBP-PT-91.png,0.4,1.2,58,0.5,,,,,,,,,,,,,,,,,,0,55,55,57,1,,,,,,,,,,,,,,,,,,,,,,,
,,,,,SPR24_059,18,female,2024-04-17_11h16.29.256,jersey_experiment_5_v0,2023.2.2,Win32,84.74576271,,,,,,,,,,,,,,,,1286.4592,1287.7531,1287.7531,1291.2356,return,1.2147,,65.88541667,,,,,,FBP-PT-91.png,0.35,1.2,56,0.5,,,,,,,,,,,,,,,,,,0,56,56,55,1,,,,,,,,,,,,,,,,,,,,,,,
,,,,,SPR24_059,18,female,2024-04-17_11h16.29.256,jersey_experiment_5_v0,2023.2.2,Win32,84.74576271,,,,,,,,,,,,,,,,1291.2358,1292.2827,1292.2827,1297.2829,return,1.1685,,54.94791667,,,,,,FBP-OG-19.png,0.35,1.2,11,0.25,,,,,,,,,,,,,,,,,,0,57,57,10,1,,,,,,,,,,,,,,,,,,,,,,,
,,,,,SPR24_059,18,female,2024-04-17_11h16.29.256,jersey_experiment_5_v0,2023.2.2,Win32,84.74576271,,,,,,,,,,,,,,,,1297.283,1298.33,1298.33,1302.2596,return,1.0614,,49.86979167,,,,,,FBP-RB-91.png,0.35,1.2,41,0.25,,,,,,,,,,,,,,,,,,0,58,58,40,1,,,,,,,,,,,,,,,,,,,,,,,
,,,,,SPR24_059,18,female,2024-04-17_11h16.29.256,jersey_experiment_5_v0,2023.2.2,Win32,84.74576271,,,,,,,,,,,,,,,,1302.2598,1303.3067,1303.3067,1307.5303,return,1.3418,,84.50520833,,,,,,FBP-RB-71.png,0.4,1.2,33,0.25,,,,,,,,,,,,,,,,,,0,59,59,32,1,,,,,,,,,,,,,,,,,,,,,,,
,,,,,SPR24_059,18,female,2024-04-17_11h16.29.256,jersey_experiment_5_v0,2023.2.2,Win32,84.74576271,,,,,,,,,,,,,,,,,,,,,,,,,,,,,,,,,,,,,,,,,,,,,,,,,,,,,,,,1307.5308,1315.4487,return,7.9048,,,,,,,,,,,,,,,,,,,
,,,,,SPR24_059,18,female,2024-04-17_11h16.29.256,jersey_experiment_5_v0,2023.2.2,Win32,84.74576271,,,,,,,,,,,,,,,,,,,,,,,,,,,,,,,,,,,,,,,,,,,,,,,,,,,,,,,,,,,,,1315.4487,1320.6721,1,4.1942,return,1.0197,,,,,,,,,,,,
,,,,,SPR24_059,18,female,2024-04-17_11h16.29.256,jersey_experiment_5_v0,2023.2.2,Win32,84.74576271,,,,,,,,,,,,,,,,,,,,,,,,,,,,,,,,,,,,,,,,,,,,,,,,,,,,,,,,,,,,,,,,,,,,1320.6722,1346.7956,I think iit could be about any ,right,20.1291,,,,,,
,,,,,SPR24_059,18,female,2024-04-17_11h16.29.256,jersey_experiment_5_v0,2023.2.2,Win32,84.74576271,,,,,,,,,,,,,,,,,,,,,,,,,,,,,,,,,,,,,,,,,,,,,,,,,,,,,,,,,,,,,,,,,,,,,,,,,,1346.7958,1363.5916,return,16.7835,