requirements.started,requirements.stopped,key_resp_3.keys,key_resp_3.rt,key_resp_3.duration,Subject ID,Age,Gender,date,expName,psychopyVersion,OS,frameRate,instructions1.started,instructions1.stopped,key_resp.keys,key_resp.rt,key_resp.duration,example.started,example.stopped,enter_2.keys,enter_2.rt,enter_2.duration,instructions2.started,instructions2.stopped,enter_3.keys,enter_3.rt,enter_3.duration,image.started,image.stopped,slider_2.started,slider_2.stopped,next.keys,next.rt,next.duration,slider.response,trial_block_1.thisRepN,trial_block_1.thisTrialN,trial_block_1.thisN,trial_block_1.thisIndex,trial_block_1.ran,Path,Width,Height,Index,Duration,trial_block_2.thisRepN,trial_block_2.thisTrialN,trial_block_2.thisN,trial_block_2.thisIndex,trial_block_2.ran,rest_break.started,rest_break.stopped,end_break.started,end_break.stopped,key_resp_5.keys,key_resp_5.rt,key_resp_5.duration,trial_block_3.thisRepN,trial_block_3.thisTrialN,trial_block_3.thisN,trial_block_3.thisIndex,trial_block_3.ran,trial_block_4.thisRepN,trial_block_4.thisTrialN,trial_block_4.thisN,trial_block_4.thisIndex,trial_block_4.ran,questions_intro.started,questions_intro.stopped,enter_12.keys,enter_12.rt,enter_12.duration,question2.started,question2.stopped,question_doingbest.response,question_doingbest.rt,enter_15.keys,enter_15.rt,enter_15.duration,pattern.started,pattern.stopped,pattern_2.text,enter_17.keys,enter_17.rt,enter_17.duration,thankyou.started,thankyou.stopped,enter_14.keys,enter_14.rt,enter_14.duration
0.0002,10.0446,return,10.0357,,SPR24_066,19,Female,2024-04-23_09h29.40.566,jersey_experiment_5_v0,2023.2.2,Win32,84.74576271,,,,,,,,,,,,,,,,,,,,,,,,,,,,,,,,,,,,,,,,,,,,,,,,,,,,,,,,,,,,,,,,,,,,,,,,,,,,,,
,,,,,SPR24_066,19,Female,2024-04-23_09h29.40.566,jersey_experiment_5_v0,2023.2.2,Win32,84.74576271,10.0447,16.5037,return,6.4394,,,,,,,,,,,,,,,,,,,,,,,,,,,,,,,,,,,,,,,,,,,,,,,,,,,,,,,,,,,,,,,,,,,,,,,,,,
,,,,,SPR24_066,19,Female,2024-04-23_09h29.40.566,jersey_experiment_5_v0,2023.2.2,Win32,84.74576271,,,,,,16.5039,20.1389,return,3.5944,,,,,,,,,,,,,,,,,,,,,,,,,,,,,,,,,,,,,,,,,,,,,,,,,,,,,,,,,,,,,,,,,,,,,
,,,,,SPR24_066,19,Female,2024-04-23_09h29.40.566,jersey_experiment_5_v0,2023.2.2,Win32,84.74576271,,,,,,,,,,,20.1389,39.3631,return,19.2088,,,,,,,,,,,,,,,,,,,,,,,,,,,,,,,,,,,,,,,,,,,,,,,,,,,,,,,,,,,,,,,,
,,,,,SPR24_066,19,Female,2024-04-23_09h29.40.566,jersey_experiment_5_v0,2023.2.2,Win32,84.74576271,,,,,,,,,,,,,,,,39.3706,40.4134,40.4134,47.5282,return,2.5918,,74.86979167,0,0,0,53,1,FBP-PT-18.png,0.43,1.2,54,0.25,,,,,,,,,,,,,,,,,,,,,,,,,,,,,,,,,,,,,,,,,,,,,
,,,,,SPR24_066,19,Female,2024-04-23_09h29.40.566,jersey_experiment_5_v0,2023.2.2,Win32,84.74576271,,,,,,,,,,,,,,,,47.5327,48.5751,48.5751,52.7165,return,0.9884,,25.52083333,0,1,1,46,1,FBP-PT-17.png,0.37,1.2,47,0.25,,,,,,,,,,,,,,,,,,,,,,,,,,,,,,,,,,,,,,,,,,,,,
,,,,,SPR24_066,19,Female,2024-04-23_09h29.40.566,jersey_experiment_5_v0,2023.2.2,Win32,84.74576271,,,,,,,,,,,,,,,,52.7167,53.7634,53.7635,56.6461,return,0.841,,74.86979167,0,2,2,29,1,FBP-YG-19.png,0.45,1.2,30,0.25,,,,,,,,,,,,,,,,,,,,,,,,,,,,,,,,,,,,,,,,,,,,,
,,,,,SPR24_066,19,Female,2024-04-23_09h29.40.566,jersey_experiment_5_v0,2023.2.2,Win32,84.74576271,,,,,,,,,,,,,,,,56.6462,57.9402,57.9402,59.5283,return,0.7192,,75.13020833,0,3,3,8,1,FBP-OG-81.png,0.43,1.2,9,0.5,,,,,,,,,,,,,,,,,,,,,,,,,,,,,,,,,,,,,,,,,,,,,
,,,,,SPR24_066,19,Female,2024-04-23_09h29.40.566,jersey_experiment_5_v0,2023.2.2,Win32,84.74576271,,,,,,,,,,,,,,,,59.5286,60.5755,60.5756,62.6462,return,0.8174,,74.86979167,0,4,4,27,1,FBP-YG-19.png,0.4,1.2,28,0.25,,,,,,,,,,,,,,,,,,,,,,,,,,,,,,,,,,,,,,,,,,,,,
,,,,,SPR24_066,19,Female,2024-04-23_09h29.40.566,jersey_experiment_5_v0,2023.2.2,Win32,84.74576271,,,,,,,,,,,,,,,,62.6464,63.9404,63.9404,67.517,return,1.567,,99.47916667,0,5,5,3,1,FBP-OG-71.png,0.43,1.2,4,0.5,,,,,,,,,,,,,,,,,,,,,,,,,,,,,,,,,,,,,,,,,,,,,
,,,,,SPR24_066,19,Female,2024-04-23_09h29.40.566,jersey_experiment_5_v0,2023.2.2,Win32,84.74576271,,,,,,,,,,,,,,,,67.5173,68.8111,68.8112,70.5405,return,0.293,,50.65104167,0,6,6,11,1,FBP-OG-91.png,0.37,1.2,12,0.5,,,,,,,,,,,,,,,,,,,,,,,,,,,,,,,,,,,,,,,,,,,,,
,,,,,SPR24_066,19,Female,2024-04-23_09h29.40.566,jersey_experiment_5_v0,2023.2.2,Win32,84.74576271,,,,,,,,,,,,,,,,70.5407,71.8347,71.8347,73.7054,return,0.5422,,75.13020833,0,7,7,32,1,FBP-RB-17.png,0.4,1.2,33,0.5,,,,,,,,,,,,,,,,,,,,,,,,,,,,,,,,,,,,,,,,,,,,,
,,,,,SPR24_066,19,Female,2024-04-23_09h29.40.566,jersey_experiment_5_v0,2023.2.2,Win32,84.74576271,,,,,,,,,,,,,,,,73.7055,74.9994,74.9995,77.2583,return,0.236,,24.73958333,0,8,8,35,1,FBP-RB-18.png,0.35,1.2,36,0.5,,,,,,,,,,,,,,,,,,,,,,,,,,,,,,,,,,,,,,,,,,,,,
,,,,,SPR24_066,19,Female,2024-04-23_09h29.40.566,jersey_experiment_5_v0,2023.2.2,Win32,84.74576271,,,,,,,,,,,,,,,,77.2585,78.3055,78.3056,80.235,return,0.2593,,73.95833333,0,9,9,49,1,FBP-PT-17.png,0.45,1.2,50,0.25,,,,,,,,,,,,,,,,,,,,,,,,,,,,,,,,,,,,,,,,,,,,,
,,,,,SPR24_066,19,Female,2024-04-23_09h29.40.566,jersey_experiment_5_v0,2023.2.2,Win32,84.74576271,,,,,,,,,,,,,,,,80.2352,81.2821,81.2821,82.4939,return,0.4576,,73.95833333,0,10,10,22,1,FBP-YG-18.png,0.4,1.2,23,0.25,,,,,,,,,,,,,,,,,,,,,,,,,,,,,,,,,,,,,,,,,,,,,
,,,,,SPR24_066,19,Female,2024-04-23_09h29.40.566,jersey_experiment_5_v0,2023.2.2,Win32,84.74576271,,,,,,,,,,,,,,,,82.4942,83.5409,83.5409,85.9176,return,0.5415,,26.04166667,0,11,11,25,1,FBP-YG-19.png,0.35,1.2,26,0.25,,,,,,,,,,,,,,,,,,,,,,,,,,,,,,,,,,,,,,,,,,,,,
,,,,,SPR24_066,19,Female,2024-04-23_09h29.40.566,jersey_experiment_5_v0,2023.2.2,Win32,84.74576271,,,,,,,,,,,,,,,,85.9177,86.9646,86.9647,89.0941,return,0.276,,25,0,12,12,21,1,FBP-YG-18.png,0.37,1.2,22,0.25,,,,,,,,,,,,,,,,,,,,,,,,,,,,,,,,,,,,,,,,,,,,,
,,,,,SPR24_066,19,Female,2024-04-23_09h29.40.566,jersey_experiment_5_v0,2023.2.2,Win32,84.74576271,,,,,,,,,,,,,,,,89.0943,90.3883,90.3884,91.259,return,0.2586,,25.26041667,0,13,13,0,1,FBP-OG-71.png,0.35,1.2,1,0.5,,,,,,,,,,,,,,,,,,,,,,,,,,,,,,,,,,,,,,,,,,,,,
,,,,,SPR24_066,19,Female,2024-04-23_09h29.40.566,jersey_experiment_5_v0,2023.2.2,Win32,84.74576271,,,,,,,,,,,,,,,,91.2592,92.553,92.553,94.2119,return,0.2664,,75,0,14,14,7,1,FBP-OG-81.png,0.4,1.2,8,0.5,,,,,,,,,,,,,,,,,,,,,,,,,,,,,,,,,,,,,,,,,,,,,
,,,,,SPR24_066,19,Female,2024-04-23_09h29.40.566,jersey_experiment_5_v0,2023.2.2,Win32,84.74576271,,,,,,,,,,,,,,,,94.2122,95.259,95.259,96.9884,return,0.4102,,74.08854167,0,15,15,28,1,FBP-YG-19.png,0.43,1.2,29,0.25,,,,,,,,,,,,,,,,,,,,,,,,,,,,,,,,,,,,,,,,,,,,,
,,,,,SPR24_066,19,Female,2024-04-23_09h29.40.566,jersey_experiment_5_v0,2023.2.2,Win32,84.74576271,,,,,,,,,,,,,,,,96.9886,98.0356,98.0356,101.1298,return,0.6008,,99.86979167,0,16,16,58,1,FBP-PT-19.png,0.43,1.2,59,0.25,,,,,,,,,,,,,,,,,,,,,,,,,,,,,,,,,,,,,,,,,,,,,
,,,,,SPR24_066,19,Female,2024-04-23_09h29.40.566,jersey_experiment_5_v0,2023.2.2,Win32,84.74576271,,,,,,,,,,,,,,,,101.1301,102.4239,102.4239,104.2593,return,0.4655,,99.609375,0,17,17,42,1,FBP-RB-19.png,0.4,1.2,43,0.5,,,,,,,,,,,,,,,,,,,,,,,,,,,,,,,,,,,,,,,,,,,,,
,,,,,SPR24_066,19,Female,2024-04-23_09h29.40.566,jersey_experiment_5_v0,2023.2.2,Win32,84.74576271,,,,,,,,,,,,,,,,104.2594,105.5534,105.5534,107.589,return,0.2635,,75.52083333,0,18,18,31,1,FBP-RB-17.png,0.37,1.2,32,0.5,,,,,,,,,,,,,,,,,,,,,,,,,,,,,,,,,,,,,,,,,,,,,
,,,,,SPR24_066,19,Female,2024-04-23_09h29.40.566,jersey_experiment_5_v0,2023.2.2,Win32,84.74576271,,,,,,,,,,,,,,,,107.5891,108.8831,108.8831,111.0361,return,0.5275,,99.86979167,0,19,19,34,1,FBP-RB-17.png,0.45,1.2,35,0.5,,,,,,,,,,,,,,,,,,,,,,,,,,,,,,,,,,,,,,,,,,,,,
,,,,,SPR24_066,19,Female,2024-04-23_09h29.40.566,jersey_experiment_5_v0,2023.2.2,Win32,84.74576271,,,,,,,,,,,,,,,,111.0363,112.3302,112.3303,113.6598,return,0.3048,,99.86979167,0,20,20,33,1,FBP-RB-17.png,0.43,1.2,34,0.5,,,,,,,,,,,,,,,,,,,,,,,,,,,,,,,,,,,,,,,,,,,,,
,,,,,SPR24_066,19,Female,2024-04-23_09h29.40.566,jersey_experiment_5_v0,2023.2.2,Win32,84.74576271,,,,,,,,,,,,,,,,113.66,114.9539,114.9539,116.1186,return,0.5319,,99.73958333,0,21,21,43,1,FBP-RB-19.png,0.43,1.2,44,0.5,,,,,,,,,,,,,,,,,,,,,,,,,,,,,,,,,,,,,,,,,,,,,
,,,,,SPR24_066,19,Female,2024-04-23_09h29.40.566,jersey_experiment_5_v0,2023.2.2,Win32,84.74576271,,,,,,,,,,,,,,,,116.1188,117.4129,117.413,118.3894,return,0.4184,,99.73958333,0,22,22,44,1,FBP-RB-19.png,0.45,1.2,45,0.5,,,,,,,,,,,,,,,,,,,,,,,,,,,,,,,,,,,,,,,,,,,,,
,,,,,SPR24_066,19,Female,2024-04-23_09h29.40.566,jersey_experiment_5_v0,2023.2.2,Win32,84.74576271,,,,,,,,,,,,,,,,118.3897,119.6835,119.6835,121.413,return,0.1819,,25.13020833,0,23,23,5,1,FBP-OG-81.png,0.35,1.2,6,0.5,,,,,,,,,,,,,,,,,,,,,,,,,,,,,,,,,,,,,,,,,,,,,
,,,,,SPR24_066,19,Female,2024-04-23_09h29.40.566,jersey_experiment_5_v0,2023.2.2,Win32,84.74576271,,,,,,,,,,,,,,,,121.4132,122.7071,122.7071,124.1188,return,0.3434,,24.73958333,0,24,24,41,1,FBP-RB-19.png,0.37,1.2,42,0.5,,,,,,,,,,,,,,,,,,,,,,,,,,,,,,,,,,,,,,,,,,,,,
,,,,,SPR24_066,19,Female,2024-04-23_09h29.40.566,jersey_experiment_5_v0,2023.2.2,Win32,84.74576271,,,,,,,,,,,,,,,,124.1191,125.166,125.1661,127.4602,return,0.4076,,99.609375,0,25,25,59,1,FBP-PT-19.png,0.45,1.2,60,0.25,,,,,,,,,,,,,,,,,,,,,,,,,,,,,,,,,,,,,,,,,,,,,
,,,,,SPR24_066,19,Female,2024-04-23_09h29.40.566,jersey_experiment_5_v0,2023.2.2,Win32,84.74576271,,,,,,,,,,,,,,,,127.4606,128.5074,128.5074,130.284,return,0.2593,,25.26041667,0,26,26,16,1,FBP-YG-17.png,0.37,1.2,17,0.25,,,,,,,,,,,,,,,,,,,,,,,,,,,,,,,,,,,,,,,,,,,,,
,,,,,SPR24_066,19,Female,2024-04-23_09h29.40.566,jersey_experiment_5_v0,2023.2.2,Win32,84.74576271,,,,,,,,,,,,,,,,130.2841,131.3309,131.331,134.4722,return,0.2628,,99.609375,0,27,27,54,1,FBP-PT-18.png,0.45,1.2,55,0.25,,,,,,,,,,,,,,,,,,,,,,,,,,,,,,,,,,,,,,,,,,,,,
,,,,,SPR24_066,19,Female,2024-04-23_09h29.40.566,jersey_experiment_5_v0,2023.2.2,Win32,84.74576271,,,,,,,,,,,,,,,,134.4725,135.7663,135.7663,137.4136,return,0.2042,,74.73958333,0,28,28,38,1,FBP-RB-18.png,0.43,1.2,39,0.5,,,,,,,,,,,,,,,,,,,,,,,,,,,,,,,,,,,,,,,,,,,,,
,,,,,SPR24_066,19,Female,2024-04-23_09h29.40.566,jersey_experiment_5_v0,2023.2.2,Win32,84.74576271,,,,,,,,,,,,,,,,137.4138,138.4607,138.4607,140.2019,return,0.2258,,24.47916667,0,29,29,56,1,FBP-PT-19.png,0.37,1.2,57,0.25,,,,,,,,,,,,,,,,,,,,,,,,,,,,,,,,,,,,,,,,,,,,,
,,,,,SPR24_066,19,Female,2024-04-23_09h29.40.566,jersey_experiment_5_v0,2023.2.2,Win32,84.74576271,,,,,,,,,,,,,,,,140.2022,141.2488,141.2488,142.8845,return,0.4902,,25.52083333,0,30,30,55,1,FBP-PT-19.png,0.35,1.2,56,0.25,,,,,,,,,,,,,,,,,,,,,,,,,,,,,,,,,,,,,,,,,,,,,
,,,,,SPR24_066,19,Female,2024-04-23_09h29.40.566,jersey_experiment_5_v0,2023.2.2,Win32,84.74576271,,,,,,,,,,,,,,,,142.8847,144.1787,144.1787,145.5902,return,0.2526,,24.86979167,0,31,31,1,1,FBP-OG-71.png,0.37,1.2,2,0.5,,,,,,,,,,,,,,,,,,,,,,,,,,,,,,,,,,,,,,,,,,,,,
,,,,,SPR24_066,19,Female,2024-04-23_09h29.40.566,jersey_experiment_5_v0,2023.2.2,Win32,84.74576271,,,,,,,,,,,,,,,,145.5905,146.6373,146.6373,147.5315,return,0.2121,,24.86979167,0,32,32,26,1,FBP-YG-19.png,0.37,1.2,27,0.25,,,,,,,,,,,,,,,,,,,,,,,,,,,,,,,,,,,,,,,,,,,,,
,,,,,SPR24_066,19,Female,2024-04-23_09h29.40.566,jersey_experiment_5_v0,2023.2.2,Win32,84.74576271,,,,,,,,,,,,,,,,147.5316,148.5787,148.5787,150.8726,return,0.2487,,74.21875,0,33,33,17,1,FBP-YG-17.png,0.4,1.2,18,0.25,,,,,,,,,,,,,,,,,,,,,,,,,,,,,,,,,,,,,,,,,,,,,
,,,,,SPR24_066,19,Female,2024-04-23_09h29.40.566,jersey_experiment_5_v0,2023.2.2,Win32,84.74576271,,,,,,,,,,,,,,,,150.8728,151.9199,151.9199,153.2141,return,0.26,,74.86979167,0,34,34,57,1,FBP-PT-19.png,0.4,1.2,58,0.25,,,,,,,,,,,,,,,,,,,,,,,,,,,,,,,,,,,,,,,,,,,,,
,,,,,SPR24_066,19,Female,2024-04-23_09h29.40.566,jersey_experiment_5_v0,2023.2.2,Win32,84.74576271,,,,,,,,,,,,,,,,153.2143,154.2612,154.2612,155.5319,return,0.293,,74.86979167,0,35,35,23,1,FBP-YG-18.png,0.43,1.2,24,0.25,,,,,,,,,,,,,,,,,,,,,,,,,,,,,,,,,,,,,,,,,,,,,
,,,,,SPR24_066,19,Female,2024-04-23_09h29.40.566,jersey_experiment_5_v0,2023.2.2,Win32,84.74576271,,,,,,,,,,,,,,,,155.5321,156.5789,156.5789,158.6848,return,0.3388,,99.08854167,0,36,36,19,1,FBP-YG-17.png,0.45,1.2,20,0.25,,,,,,,,,,,,,,,,,,,,,,,,,,,,,,,,,,,,,,,,,,,,,
,,,,,SPR24_066,19,Female,2024-04-23_09h29.40.566,jersey_experiment_5_v0,2023.2.2,Win32,84.74576271,,,,,,,,,,,,,,,,158.6851,159.979,159.979,160.9907,return,0.3875,,99.21875,0,37,37,9,1,FBP-OG-81.png,0.45,1.2,10,0.5,,,,,,,,,,,,,,,,,,,,,,,,,,,,,,,,,,,,,,,,,,,,,
,,,,,SPR24_066,19,Female,2024-04-23_09h29.40.566,jersey_experiment_5_v0,2023.2.2,Win32,84.74576271,,,,,,,,,,,,,,,,160.9909,162.0379,162.0379,164.203,return,0.2725,,25.26041667,0,38,38,52,1,FBP-PT-18.png,0.4,1.2,53,0.25,,,,,,,,,,,,,,,,,,,,,,,,,,,,,,,,,,,,,,,,,,,,,
,,,,,SPR24_066,19,Female,2024-04-23_09h29.40.566,jersey_experiment_5_v0,2023.2.2,Win32,84.74576271,,,,,,,,,,,,,,,,164.2033,165.2499,165.25,167.0853,return,0.1416,,74.47916667,0,39,39,18,1,FBP-YG-17.png,0.43,1.2,19,0.25,,,,,,,,,,,,,,,,,,,,,,,,,,,,,,,,,,,,,,,,,,,,,
,,,,,SPR24_066,19,Female,2024-04-23_09h29.40.566,jersey_experiment_5_v0,2023.2.2,Win32,84.74576271,,,,,,,,,,,,,,,,167.0855,168.1323,168.1324,170.1324,return,0.1949,,99.34895833,0,40,40,24,1,FBP-YG-18.png,0.45,1.2,25,0.25,,,,,,,,,,,,,,,,,,,,,,,,,,,,,,,,,,,,,,,,,,,,,
,,,,,SPR24_066,19,Female,2024-04-23_09h29.40.566,jersey_experiment_5_v0,2023.2.2,Win32,84.74576271,,,,,,,,,,,,,,,,170.1325,171.4266,171.4266,173.2619,return,0.2351,,25.13020833,0,41,41,10,1,FBP-OG-91.png,0.35,1.2,11,0.5,,,,,,,,,,,,,,,,,,,,,,,,,,,,,,,,,,,,,,,,,,,,,
,,,,,SPR24_066,19,Female,2024-04-23_09h29.40.566,jersey_experiment_5_v0,2023.2.2,Win32,84.74576271,,,,,,,,,,,,,,,,173.2622,174.556,174.556,176.2501,return,0.1886,,74.609375,0,42,42,37,1,FBP-RB-18.png,0.4,1.2,38,0.5,,,,,,,,,,,,,,,,,,,,,,,,,,,,,,,,,,,,,,,,,,,,,
,,,,,SPR24_066,19,Female,2024-04-23_09h29.40.566,jersey_experiment_5_v0,2023.2.2,Win32,84.74576271,,,,,,,,,,,,,,,,176.2504,177.5445,177.5446,179.7679,return,0.8747,,24.47916667,0,43,43,30,1,FBP-RB-17.png,0.35,1.2,31,0.5,,,,,,,,,,,,,,,,,,,,,,,,,,,,,,,,,,,,,,,,,,,,,
,,,,,SPR24_066,19,Female,2024-04-23_09h29.40.566,jersey_experiment_5_v0,2023.2.2,Win32,84.74576271,,,,,,,,,,,,,,,,179.7681,181.0623,181.0624,183.5446,return,1.1319,,74.86979167,0,44,44,14,1,FBP-OG-91.png,0.45,1.2,15,0.5,,,,,,,,,,,,,,,,,,,,,,,,,,,,,,,,,,,,,,,,,,,,,
,,,,,SPR24_066,19,Female,2024-04-23_09h29.40.566,jersey_experiment_5_v0,2023.2.2,Win32,84.74576271,,,,,,,,,,,,,,,,183.5449,184.8387,184.8388,186.0269,return,0.27,,74.21875,0,45,45,2,1,FBP-OG-71.png,0.4,1.2,3,0.5,,,,,,,,,,,,,,,,,,,,,,,,,,,,,,,,,,,,,,,,,,,,,
,,,,,SPR24_066,19,Female,2024-04-23_09h29.40.566,jersey_experiment_5_v0,2023.2.2,Win32,84.74576271,,,,,,,,,,,,,,,,186.0271,187.0743,187.0743,188.345,return,0.1091,,25.13020833,0,46,46,20,1,FBP-YG-18.png,0.35,1.2,21,0.25,,,,,,,,,,,,,,,,,,,,,,,,,,,,,,,,,,,,,,,,,,,,,
,,,,,SPR24_066,19,Female,2024-04-23_09h29.40.566,jersey_experiment_5_v0,2023.2.2,Win32,84.74576271,,,,,,,,,,,,,,,,188.3452,189.392,189.392,190.7568,return,0.1485,,25.52083333,0,47,47,45,1,FBP-PT-17.png,0.35,1.2,46,0.25,,,,,,,,,,,,,,,,,,,,,,,,,,,,,,,,,,,,,,,,,,,,,
,,,,,SPR24_066,19,Female,2024-04-23_09h29.40.566,jersey_experiment_5_v0,2023.2.2,Win32,84.74576271,,,,,,,,,,,,,,,,190.757,191.8037,191.8037,194.1568,return,0.212,,74.609375,0,48,48,47,1,FBP-PT-17.png,0.4,1.2,48,0.25,,,,,,,,,,,,,,,,,,,,,,,,,,,,,,,,,,,,,,,,,,,,,
,,,,,SPR24_066,19,Female,2024-04-23_09h29.40.566,jersey_experiment_5_v0,2023.2.2,Win32,84.74576271,,,,,,,,,,,,,,,,194.157,195.2038,195.2038,197.6628,return,0.0835,,75,0,49,49,51,1,FBP-PT-18.png,0.37,1.2,52,0.25,,,,,,,,,,,,,,,,,,,,,,,,,,,,,,,,,,,,,,,,,,,,,
,,,,,SPR24_066,19,Female,2024-04-23_09h29.40.566,jersey_experiment_5_v0,2023.2.2,Win32,84.74576271,,,,,,,,,,,,,,,,197.663,198.7098,198.7098,200.3805,return,0.2223,,25.390625,0,50,50,50,1,FBP-PT-18.png,0.35,1.2,51,0.25,,,,,,,,,,,,,,,,,,,,,,,,,,,,,,,,,,,,,,,,,,,,,
,,,,,SPR24_066,19,Female,2024-04-23_09h29.40.566,jersey_experiment_5_v0,2023.2.2,Win32,84.74576271,,,,,,,,,,,,,,,,200.3807,201.6744,201.6745,202.4864,return,0.2528,,25.390625,0,51,51,6,1,FBP-OG-81.png,0.37,1.2,7,0.5,,,,,,,,,,,,,,,,,,,,,,,,,,,,,,,,,,,,,,,,,,,,,
,,,,,SPR24_066,19,Female,2024-04-23_09h29.40.566,jersey_experiment_5_v0,2023.2.2,Win32,84.74576271,,,,,,,,,,,,,,,,202.4867,203.7805,203.7806,204.5689,return,0.2477,,25.390625,0,52,52,36,1,FBP-RB-18.png,0.37,1.2,37,0.5,,,,,,,,,,,,,,,,,,,,,,,,,,,,,,,,,,,,,,,,,,,,,
,,,,,SPR24_066,19,Female,2024-04-23_09h29.40.566,jersey_experiment_5_v0,2023.2.2,Win32,84.74576271,,,,,,,,,,,,,,,,204.5691,205.8631,205.8631,206.6984,return,0.1781,,25.390625,0,53,53,12,1,FBP-OG-91.png,0.4,1.2,13,0.5,,,,,,,,,,,,,,,,,,,,,,,,,,,,,,,,,,,,,,,,,,,,,
,,,,,SPR24_066,19,Female,2024-04-23_09h29.40.566,jersey_experiment_5_v0,2023.2.2,Win32,84.74576271,,,,,,,,,,,,,,,,206.6986,207.7453,207.7454,209.3573,return,0.2022,,75.390625,0,54,54,48,1,FBP-PT-17.png,0.43,1.2,49,0.25,,,,,,,,,,,,,,,,,,,,,,,,,,,,,,,,,,,,,,,,,,,,,
,,,,,SPR24_066,19,Female,2024-04-23_09h29.40.566,jersey_experiment_5_v0,2023.2.2,Win32,84.74576271,,,,,,,,,,,,,,,,209.3576,210.6514,210.6514,211.5926,return,0.18,,75.65104167,0,55,55,13,1,FBP-OG-91.png,0.43,1.2,14,0.5,,,,,,,,,,,,,,,,,,,,,,,,,,,,,,,,,,,,,,,,,,,,,
,,,,,SPR24_066,19,Female,2024-04-23_09h29.40.566,jersey_experiment_5_v0,2023.2.2,Win32,84.74576271,,,,,,,,,,,,,,,,211.5928,212.8868,212.8868,214.3457,return,0.166,,99.609375,0,56,56,39,1,FBP-RB-18.png,0.45,1.2,40,0.5,,,,,,,,,,,,,,,,,,,,,,,,,,,,,,,,,,,,,,,,,,,,,
,,,,,SPR24_066,19,Female,2024-04-23_09h29.40.566,jersey_experiment_5_v0,2023.2.2,Win32,84.74576271,,,,,,,,,,,,,,,,214.346,215.6399,215.64,217.1575,return,0.2415,,24.73958333,0,57,57,40,1,FBP-RB-19.png,0.35,1.2,41,0.5,,,,,,,,,,,,,,,,,,,,,,,,,,,,,,,,,,,,,,,,,,,,,
,,,,,SPR24_066,19,Female,2024-04-23_09h29.40.566,jersey_experiment_5_v0,2023.2.2,Win32,84.74576271,,,,,,,,,,,,,,,,217.1577,218.2046,218.2046,219.8283,return,0.2648,,25.26041667,0,58,58,15,1,FBP-YG-17.png,0.35,1.2,16,0.25,,,,,,,,,,,,,,,,,,,,,,,,,,,,,,,,,,,,,,,,,,,,,
,,,,,SPR24_066,19,Female,2024-04-23_09h29.40.566,jersey_experiment_5_v0,2023.2.2,Win32,84.74576271,,,,,,,,,,,,,,,,219.8286,221.1225,221.1226,222.9107,return,0.1889,,99.86979167,0,59,59,4,1,FBP-OG-71.png,0.45,1.2,5,0.5,,,,,,,,,,,,,,,,,,,,,,,,,,,,,,,,,,,,,,,,,,,,,
,,,,,SPR24_066,19,Female,2024-04-23_09h29.40.566,jersey_experiment_5_v0,2023.2.2,Win32,84.74576271,,,,,,,,,,,,,,,,222.9128,223.9577,223.9578,225.7343,return,0.3001,,25.13020833,,,,,,FBP-PT-91.png,0.35,1.2,56,0.25,0,0,0,55,1,,,,,,,,,,,,,,,,,,,,,,,,,,,,,,,,,,,,,,,,
,,,,,SPR24_066,19,Female,2024-04-23_09h29.40.566,jersey_experiment_5_v0,2023.2.2,Win32,84.74576271,,,,,,,,,,,,,,,,225.7348,227.0284,227.0285,228.311,return,0.227,,25.13020833,,,,,,FBP-OG-17.png,0.37,1.2,2,0.5,0,1,1,1,1,,,,,,,,,,,,,,,,,,,,,,,,,,,,,,,,,,,,,,,,
,,,,,SPR24_066,19,Female,2024-04-23_09h29.40.566,jersey_experiment_5_v0,2023.2.2,Win32,84.74576271,,,,,,,,,,,,,,,,228.3113,229.3581,229.3581,230.1346,return,0.1211,,25.13020833,,,,,,FBP-YG-91.png,0.37,1.2,27,0.25,0,2,2,26,1,,,,,,,,,,,,,,,,,,,,,,,,,,,,,,,,,,,,,,,,
,,,,,SPR24_066,19,Female,2024-04-23_09h29.40.566,jersey_experiment_5_v0,2023.2.2,Win32,84.74576271,,,,,,,,,,,,,,,,230.1348,231.4286,231.4286,232.958,return,0.2726,,74.08854167,,,,,,FBP-OG-17.png,0.4,1.2,3,0.5,0,3,3,2,1,,,,,,,,,,,,,,,,,,,,,,,,,,,,,,,,,,,,,,,,
,,,,,SPR24_066,19,Female,2024-04-23_09h29.40.566,jersey_experiment_5_v0,2023.2.2,Win32,84.74576271,,,,,,,,,,,,,,,,232.9582,234.0052,234.0052,235.3582,return,0.2816,,74.34895833,,,,,,FBP-YG-91.png,0.4,1.2,28,0.25,0,4,4,27,1,,,,,,,,,,,,,,,,,,,,,,,,,,,,,,,,,,,,,,,,
,,,,,SPR24_066,19,Female,2024-04-23_09h29.40.566,jersey_experiment_5_v0,2023.2.2,Win32,84.74576271,,,,,,,,,,,,,,,,235.3585,236.4053,236.4053,237.9583,return,0.1572,,99.34895833,,,,,,FBP-PT-91.png,0.43,1.2,59,0.25,0,5,5,58,1,,,,,,,,,,,,,,,,,,,,,,,,,,,,,,,,,,,,,,,,
,,,,,SPR24_066,19,Female,2024-04-23_09h29.40.566,jersey_experiment_5_v0,2023.2.2,Win32,84.74576271,,,,,,,,,,,,,,,,237.9585,239.0054,239.0055,240.5348,return,0.1583,,99.21875,,,,,,FBP-PT-71.png,0.43,1.2,49,0.25,0,6,6,48,1,,,,,,,,,,,,,,,,,,,,,,,,,,,,,,,,,,,,,,,,
,,,,,SPR24_066,19,Female,2024-04-23_09h29.40.566,jersey_experiment_5_v0,2023.2.2,Win32,84.74576271,,,,,,,,,,,,,,,,240.5351,241.5818,241.582,243.1941,return,0.2594,,24.73958333,,,,,,FBP-YG-71.png,0.35,1.2,16,0.25,0,7,7,15,1,,,,,,,,,,,,,,,,,,,,,,,,,,,,,,,,,,,,,,,,
,,,,,SPR24_066,19,Female,2024-04-23_09h29.40.566,jersey_experiment_5_v0,2023.2.2,Win32,84.74576271,,,,,,,,,,,,,,,,243.1943,244.2408,244.2408,245.5231,return,0.0674,,24.34895833,,,,,,FBP-YG-71.png,0.37,1.2,17,0.25,0,8,8,16,1,,,,,,,,,,,,,,,,,,,,,,,,,,,,,,,,,,,,,,,,
,,,,,SPR24_066,19,Female,2024-04-23_09h29.40.566,jersey_experiment_5_v0,2023.2.2,Win32,84.74576271,,,,,,,,,,,,,,,,245.5234,246.8175,246.8175,248.4764,return,0.1651,,99.73958333,,,,,,FBP-RB-81.png,0.45,1.2,40,0.5,0,9,9,39,1,,,,,,,,,,,,,,,,,,,,,,,,,,,,,,,,,,,,,,,,
,,,,,SPR24_066,19,Female,2024-04-23_09h29.40.566,jersey_experiment_5_v0,2023.2.2,Win32,84.74576271,,,,,,,,,,,,,,,,248.4767,249.7705,249.7706,251.2882,return,0.2038,,24.34895833,,,,,,FBP-OG-19.png,0.35,1.2,11,0.5,0,10,10,10,1,,,,,,,,,,,,,,,,,,,,,,,,,,,,,,,,,,,,,,,,
,,,,,SPR24_066,19,Female,2024-04-23_09h29.40.566,jersey_experiment_5_v0,2023.2.2,Win32,84.74576271,,,,,,,,,,,,,,,,251.2884,252.5823,252.5824,254.1825,return,0.3569,,25.26041667,,,,,,FBP-OG-19.png,0.37,1.2,12,0.5,0,11,11,11,1,,,,,,,,,,,,,,,,,,,,,,,,,,,,,,,,,,,,,,,,
,,,,,SPR24_066,19,Female,2024-04-23_09h29.40.566,jersey_experiment_5_v0,2023.2.2,Win32,84.74576271,,,,,,,,,,,,,,,,254.1828,255.4765,255.4765,256.3472,return,0.2493,,25.78125,,,,,,FBP-RB-71.png,0.35,1.2,31,0.5,0,12,12,30,1,,,,,,,,,,,,,,,,,,,,,,,,,,,,,,,,,,,,,,,,
,,,,,SPR24_066,19,Female,2024-04-23_09h29.40.566,jersey_experiment_5_v0,2023.2.2,Win32,84.74576271,,,,,,,,,,,,,,,,256.3474,257.3941,257.3942,259.465,return,0.248,,98.56770833,,,,,,FBP-YG-81.png,0.4,1.2,23,0.25,0,13,13,22,1,,,,,,,,,,,,,,,,,,,,,,,,,,,,,,,,,,,,,,,,
,,,,,SPR24_066,19,Female,2024-04-23_09h29.40.566,jersey_experiment_5_v0,2023.2.2,Win32,84.74576271,,,,,,,,,,,,,,,,259.4653,260.759,260.7591,261.5121,return,0.0845,,99.21875,,,,,,FBP-OG-19.png,0.45,1.2,15,0.5,0,14,14,14,1,,,,,,,,,,,,,,,,,,,,,,,,,,,,,,,,,,,,,,,,
,,,,,SPR24_066,19,Female,2024-04-23_09h29.40.566,jersey_experiment_5_v0,2023.2.2,Win32,84.74576271,,,,,,,,,,,,,,,,261.5123,262.8063,262.8063,264.171,return,0.2126,,50,,,,,,FBP-RB-91.png,0.37,1.2,42,0.5,0,15,15,41,1,,,,,,,,,,,,,,,,,,,,,,,,,,,,,,,,,,,,,,,,
,,,,,SPR24_066,19,Female,2024-04-23_09h29.40.566,jersey_experiment_5_v0,2023.2.2,Win32,84.74576271,,,,,,,,,,,,,,,,264.1713,265.4652,265.4652,266.6652,return,0.1063,,49.34895833,,,,,,FBP-RB-71.png,0.37,1.2,32,0.5,0,16,16,31,1,,,,,,,,,,,,,,,,,,,,,,,,,,,,,,,,,,,,,,,,
,,,,,SPR24_066,19,Female,2024-04-23_09h29.40.566,jersey_experiment_5_v0,2023.2.2,Win32,84.74576271,,,,,,,,,,,,,,,,266.6655,267.9593,267.9593,269.277,return,0.1177,,99.34895833,,,,,,FBP-OG-19.png,0.43,1.2,14,0.5,0,17,17,13,1,,,,,,,,,,,,,,,,,,,,,,,,,,,,,,,,,,,,,,,,
,,,,,SPR24_066,19,Female,2024-04-23_09h29.40.566,jersey_experiment_5_v0,2023.2.2,Win32,84.74576271,,,,,,,,,,,,,,,,269.2773,270.3241,270.3242,271.1946,return,0.1551,,98.4375,,,,,,FBP-PT-71.png,0.45,1.2,50,0.25,0,18,18,49,1,,,,,,,,,,,,,,,,,,,,,,,,,,,,,,,,,,,,,,,,
,,,,,SPR24_066,19,Female,2024-04-23_09h29.40.566,jersey_experiment_5_v0,2023.2.2,Win32,84.74576271,,,,,,,,,,,,,,,,271.1949,272.2418,272.2418,272.936,return,0.1336,,98.4375,,,,,,FBP-YG-91.png,0.43,1.2,29,0.25,0,19,19,28,1,,,,,,,,,,,,,,,,,,,,,,,,,,,,,,,,,,,,,,,,
,,,,,SPR24_066,19,Female,2024-04-23_09h29.40.566,jersey_experiment_5_v0,2023.2.2,Win32,84.74576271,,,,,,,,,,,,,,,,272.9362,273.9831,273.9832,275.4772,return,0.0986,,25.13020833,,,,,,FBP-PT-71.png,0.4,1.2,48,0.25,0,20,20,47,1,,,,,,,,,,,,,,,,,,,,,,,,,,,,,,,,,,,,,,,,
,,,,,SPR24_066,19,Female,2024-04-23_09h29.40.566,jersey_experiment_5_v0,2023.2.2,Win32,84.74576271,,,,,,,,,,,,,,,,275.4774,276.5245,276.5246,277.4656,return,0.167,,25.65104167,,,,,,FBP-YG-81.png,0.37,1.2,22,0.25,0,21,21,21,1,,,,,,,,,,,,,,,,,,,,,,,,,,,,,,,,,,,,,,,,
,,,,,SPR24_066,19,Female,2024-04-23_09h29.40.566,jersey_experiment_5_v0,2023.2.2,Win32,84.74576271,,,,,,,,,,,,,,,,277.4658,278.7598,278.7598,280.1835,return,0.1579,,99.86979167,,,,,,FBP-RB-71.png,0.45,1.2,35,0.5,0,22,22,34,1,,,,,,,,,,,,,,,,,,,,,,,,,,,,,,,,,,,,,,,,
,,,,,SPR24_066,19,Female,2024-04-23_09h29.40.566,jersey_experiment_5_v0,2023.2.2,Win32,84.74576271,,,,,,,,,,,,,,,,280.1838,281.2305,281.2305,282.7011,return,0.2576,,24.34895833,,,,,,FBP-YG-91.png,0.35,1.2,26,0.25,0,23,23,25,1,,,,,,,,,,,,,,,,,,,,,,,,,,,,,,,,,,,,,,,,
,,,,,SPR24_066,19,Female,2024-04-23_09h29.40.566,jersey_experiment_5_v0,2023.2.2,Win32,84.74576271,,,,,,,,,,,,,,,,282.7014,283.9952,283.9952,285.8541,return,0.0947,,98.69791667,,,,,,FBP-RB-81.png,0.43,1.2,39,0.5,0,24,24,38,1,,,,,,,,,,,,,,,,,,,,,,,,,,,,,,,,,,,,,,,,
,,,,,SPR24_066,19,Female,2024-04-23_09h29.40.566,jersey_experiment_5_v0,2023.2.2,Win32,84.74576271,,,,,,,,,,,,,,,,285.8544,287.1486,287.1486,288.7013,return,0.1548,,74.86979167,,,,,,FBP-RB-91.png,0.4,1.2,43,0.5,0,25,25,42,1,,,,,,,,,,,,,,,,,,,,,,,,,,,,,,,,,,,,,,,,
,,,,,SPR24_066,19,Female,2024-04-23_09h29.40.566,jersey_experiment_5_v0,2023.2.2,Win32,84.74576271,,,,,,,,,,,,,,,,288.7016,289.9955,289.9956,291.1132,return,0.1543,,99.08854167,,,,,,FBP-OG-17.png,0.43,1.2,4,0.5,0,26,26,3,1,,,,,,,,,,,,,,,,,,,,,,,,,,,,,,,,,,,,,,,,
,,,,,SPR24_066,19,Female,2024-04-23_09h29.40.566,jersey_experiment_5_v0,2023.2.2,Win32,84.74576271,,,,,,,,,,,,,,,,291.1134,292.1602,292.1603,293.6074,return,0.1927,,24.73958333,,,,,,FBP-PT-81.png,0.35,1.2,51,0.25,0,27,27,50,1,,,,,,,,,,,,,,,,,,,,,,,,,,,,,,,,,,,,,,,,
,,,,,SPR24_066,19,Female,2024-04-23_09h29.40.566,jersey_experiment_5_v0,2023.2.2,Win32,84.74576271,,,,,,,,,,,,,,,,293.6076,294.6544,294.6545,296.6781,return,0.2767,,98.95833333,,,,,,FBP-YG-71.png,0.45,1.2,20,0.25,0,28,28,19,1,,,,,,,,,,,,,,,,,,,,,,,,,,,,,,,,,,,,,,,,
,,,,,SPR24_066,19,Female,2024-04-23_09h29.40.566,jersey_experiment_5_v0,2023.2.2,Win32,84.74576271,,,,,,,,,,,,,,,,296.6784,297.7252,297.7252,299.1252,return,0.3006,,25,,,,,,FBP-PT-71.png,0.37,1.2,47,0.25,0,29,29,46,1,,,,,,,,,,,,,,,,,,,,,,,,,,,,,,,,,,,,,,,,
,,,,,SPR24_066,19,Female,2024-04-23_09h29.40.566,jersey_experiment_5_v0,2023.2.2,Win32,84.74576271,,,,,,,,,,,,,,,,299.1255,300.4193,300.4194,301.6549,return,0.2876,,25.52083333,,,,,,FBP-RB-81.png,0.35,1.2,36,0.5,0,30,30,35,1,,,,,,,,,,,,,,,,,,,,,,,,,,,,,,,,,,,,,,,,
,,,,,SPR24_066,19,Female,2024-04-23_09h29.40.566,jersey_experiment_5_v0,2023.2.2,Win32,84.74576271,,,,,,,,,,,,,,,,301.6551,302.9487,302.9487,304.0547,return,0.523,,25.78125,,,,,,FBP-RB-91.png,0.35,1.2,41,0.5,0,31,31,40,1,,,,,,,,,,,,,,,,,,,,,,,,,,,,,,,,,,,,,,,,
,,,,,SPR24_066,19,Female,2024-04-23_09h29.40.566,jersey_experiment_5_v0,2023.2.2,Win32,84.74576271,,,,,,,,,,,,,,,,304.055,305.3489,305.349,306.5727,return,0.1415,,74.21875,,,,,,FBP-OG-19.png,0.4,1.2,13,0.5,0,32,32,12,1,,,,,,,,,,,,,,,,,,,,,,,,,,,,,,,,,,,,,,,,
,,,,,SPR24_066,19,Female,2024-04-23_09h29.40.566,jersey_experiment_5_v0,2023.2.2,Win32,84.74576271,,,,,,,,,,,,,,,,306.5729,307.6196,307.6196,309.4431,return,0.4892,,23.4375,,,,,,FBP-YG-81.png,0.35,1.2,21,0.25,0,33,33,20,1,,,,,,,,,,,,,,,,,,,,,,,,,,,,,,,,,,,,,,,,
,,,,,SPR24_066,19,Female,2024-04-23_09h29.40.566,jersey_experiment_5_v0,2023.2.2,Win32,84.74576271,,,,,,,,,,,,,,,,309.4433,310.4904,310.4904,311.8667,return,0.1057,,74.86979167,,,,,,FBP-PT-81.png,0.4,1.2,53,0.25,0,34,34,52,1,,,,,,,,,,,,,,,,,,,,,,,,,,,,,,,,,,,,,,,,
,,,,,SPR24_066,19,Female,2024-04-23_09h29.40.566,jersey_experiment_5_v0,2023.2.2,Win32,84.74576271,,,,,,,,,,,,,,,,311.867,313.161,313.1611,314.314,return,0.1542,,74.86979167,,,,,,FBP-OG-18.png,0.4,1.2,8,0.5,0,35,35,7,1,,,,,,,,,,,,,,,,,,,,,,,,,,,,,,,,,,,,,,,,
,,,,,SPR24_066,19,Female,2024-04-23_09h29.40.566,jersey_experiment_5_v0,2023.2.2,Win32,84.74576271,,,,,,,,,,,,,,,,314.3143,315.6081,315.6081,318.4907,return,1.6134,,25.65104167,,,,,,FBP-OG-18.png,0.37,1.2,7,0.5,0,36,36,6,1,,,,,,,,,,,,,,,,,,,,,,,,,,,,,,,,,,,,,,,,
,,,,,SPR24_066,19,Female,2024-04-23_09h29.40.566,jersey_experiment_5_v0,2023.2.2,Win32,84.74576271,,,,,,,,,,,,,,,,318.4909,319.5376,319.5376,321.0201,return,0.2825,,74.47916667,,,,,,FBP-PT-91.png,0.45,1.2,60,0.25,0,37,37,59,1,,,,,,,,,,,,,,,,,,,,,,,,,,,,,,,,,,,,,,,,
,,,,,SPR24_066,19,Female,2024-04-23_09h29.40.566,jersey_experiment_5_v0,2023.2.2,Win32,84.74576271,,,,,,,,,,,,,,,,321.0204,322.0673,322.0673,322.8437,return,0.1312,,74.47916667,,,,,,FBP-YG-81.png,0.43,1.2,24,0.25,0,38,38,23,1,,,,,,,,,,,,,,,,,,,,,,,,,,,,,,,,,,,,,,,,
,,,,,SPR24_066,19,Female,2024-04-23_09h29.40.566,jersey_experiment_5_v0,2023.2.2,Win32,84.74576271,,,,,,,,,,,,,,,,322.844,324.1378,324.1379,325.5027,return,0.1872,,99.609375,,,,,,FBP-OG-17.png,0.45,1.2,5,0.5,0,39,39,4,1,,,,,,,,,,,,,,,,,,,,,,,,,,,,,,,,,,,,,,,,
,,,,,SPR24_066,19,Female,2024-04-23_09h29.40.566,jersey_experiment_5_v0,2023.2.2,Win32,84.74576271,,,,,,,,,,,,,,,,325.503,326.7969,326.797,328.2205,return,0.1881,,75.52083333,,,,,,FBP-OG-18.png,0.43,1.2,9,0.5,0,40,40,8,1,,,,,,,,,,,,,,,,,,,,,,,,,,,,,,,,,,,,,,,,
,,,,,SPR24_066,19,Female,2024-04-23_09h29.40.566,jersey_experiment_5_v0,2023.2.2,Win32,84.74576271,,,,,,,,,,,,,,,,328.2207,329.2677,329.2677,331.103,return,0.3906,,73.95833333,,,,,,FBP-PT-91.png,0.4,1.2,58,0.25,0,41,41,57,1,,,,,,,,,,,,,,,,,,,,,,,,,,,,,,,,,,,,,,,,
,,,,,SPR24_066,19,Female,2024-04-23_09h29.40.566,jersey_experiment_5_v0,2023.2.2,Win32,84.74576271,,,,,,,,,,,,,,,,331.1031,332.1499,332.15,334.1735,return,0.1888,,99.47916667,,,,,,FBP-YG-91.png,0.45,1.2,30,0.25,0,42,42,29,1,,,,,,,,,,,,,,,,,,,,,,,,,,,,,,,,,,,,,,,,
,,,,,SPR24_066,19,Female,2024-04-23_09h29.40.566,jersey_experiment_5_v0,2023.2.2,Win32,84.74576271,,,,,,,,,,,,,,,,334.1738,335.4678,335.4679,336.2795,return,0.1446,,98.30729167,,,,,,FBP-OG-18.png,0.45,1.2,10,0.5,0,43,43,9,1,,,,,,,,,,,,,,,,,,,,,,,,,,,,,,,,,,,,,,,,
,,,,,SPR24_066,19,Female,2024-04-23_09h29.40.566,jersey_experiment_5_v0,2023.2.2,Win32,84.74576271,,,,,,,,,,,,,,,,336.2797,337.5737,337.5737,338.4209,return,0.1942,,97.91666667,,,,,,FBP-RB-81.png,0.4,1.2,38,0.5,0,44,44,37,1,,,,,,,,,,,,,,,,,,,,,,,,,,,,,,,,,,,,,,,,
,,,,,SPR24_066,19,Female,2024-04-23_09h29.40.566,jersey_experiment_5_v0,2023.2.2,Win32,84.74576271,,,,,,,,,,,,,,,,338.4211,339.7148,339.7149,341.0914,return,0.2204,,26.171875,,,,,,FBP-OG-17.png,0.35,1.2,1,0.5,0,45,45,0,1,,,,,,,,,,,,,,,,,,,,,,,,,,,,,,,,,,,,,,,,
,,,,,SPR24_066,19,Female,2024-04-23_09h29.40.566,jersey_experiment_5_v0,2023.2.2,Win32,84.74576271,,,,,,,,,,,,,,,,341.0916,342.1388,342.1389,343.4444,return,0.1957,,26.04166667,,,,,,FBP-PT-71.png,0.35,1.2,46,0.25,0,46,46,45,1,,,,,,,,,,,,,,,,,,,,,,,,,,,,,,,,,,,,,,,,
,,,,,SPR24_066,19,Female,2024-04-23_09h29.40.566,jersey_experiment_5_v0,2023.2.2,Win32,84.74576271,,,,,,,,,,,,,,,,343.4447,344.4915,344.4916,346.2446,return,0.2195,,74.86979167,,,,,,FBP-YG-81.png,0.45,1.2,25,0.25,0,47,47,24,1,,,,,,,,,,,,,,,,,,,,,,,,,,,,,,,,,,,,,,,,
,,,,,SPR24_066,19,Female,2024-04-23_09h29.40.566,jersey_experiment_5_v0,2023.2.2,Win32,84.74576271,,,,,,,,,,,,,,,,346.2448,347.5389,347.539,348.2447,return,0.1015,,74.86979167,,,,,,FBP-RB-91.png,0.45,1.2,45,0.5,0,48,48,44,1,,,,,,,,,,,,,,,,,,,,,,,,,,,,,,,,,,,,,,,,
,,,,,SPR24_066,19,Female,2024-04-23_09h29.40.566,jersey_experiment_5_v0,2023.2.2,Win32,84.74576271,,,,,,,,,,,,,,,,348.2448,349.5388,349.5388,350.6213,return,0.1411,,24.47916667,,,,,,FBP-OG-18.png,0.35,1.2,6,0.5,0,49,49,5,1,,,,,,,,,,,,,,,,,,,,,,,,,,,,,,,,,,,,,,,,
,,,,,SPR24_066,19,Female,2024-04-23_09h29.40.566,jersey_experiment_5_v0,2023.2.2,Win32,84.74576271,,,,,,,,,,,,,,,,350.6215,351.6685,351.6685,354.0919,return,0.1641,,75,,,,,,FBP-YG-71.png,0.4,1.2,18,0.25,0,50,50,17,1,,,,,,,,,,,,,,,,,,,,,,,,,,,,,,,,,,,,,,,,
,,,,,SPR24_066,19,Female,2024-04-23_09h29.40.566,jersey_experiment_5_v0,2023.2.2,Win32,84.74576271,,,,,,,,,,,,,,,,354.0921,355.386,355.3861,357.3862,return,0.1781,,75,,,,,,FBP-RB-71.png,0.43,1.2,34,0.5,0,51,51,33,1,,,,,,,,,,,,,,,,,,,,,,,,,,,,,,,,,,,,,,,,
,,,,,SPR24_066,19,Female,2024-04-23_09h29.40.566,jersey_experiment_5_v0,2023.2.2,Win32,84.74576271,,,,,,,,,,,,,,,,357.3864,358.6804,358.6805,359.6921,return,0.2828,,74.609375,,,,,,FBP-RB-91.png,0.43,1.2,44,0.5,0,52,52,43,1,,,,,,,,,,,,,,,,,,,,,,,,,,,,,,,,,,,,,,,,
,,,,,SPR24_066,19,Female,2024-04-23_09h29.40.566,jersey_experiment_5_v0,2023.2.2,Win32,84.74576271,,,,,,,,,,,,,,,,359.6923,360.9863,360.9863,361.7157,return,0.1954,,74.47916667,,,,,,FBP-RB-71.png,0.4,1.2,33,0.5,0,53,53,32,1,,,,,,,,,,,,,,,,,,,,,,,,,,,,,,,,,,,,,,,,
,,,,,SPR24_066,19,Female,2024-04-23_09h29.40.566,jersey_experiment_5_v0,2023.2.2,Win32,84.74576271,,,,,,,,,,,,,,,,361.7159,362.7627,362.7628,364.2805,return,0.1333,,26.04166667,,,,,,FBP-PT-81.png,0.37,1.2,52,0.25,0,54,54,51,1,,,,,,,,,,,,,,,,,,,,,,,,,,,,,,,,,,,,,,,,
,,,,,SPR24_066,19,Female,2024-04-23_09h29.40.566,jersey_experiment_5_v0,2023.2.2,Win32,84.74576271,,,,,,,,,,,,,,,,364.2808,365.3274,365.3275,367.7983,return,0.8866,,99.609375,,,,,,FBP-PT-81.png,0.45,1.2,55,0.25,0,55,55,54,1,,,,,,,,,,,,,,,,,,,,,,,,,,,,,,,,,,,,,,,,
,,,,,SPR24_066,19,Female,2024-04-23_09h29.40.566,jersey_experiment_5_v0,2023.2.2,Win32,84.74576271,,,,,,,,,,,,,,,,367.7986,369.0923,369.0923,370.7277,return,0.275,,25.390625,,,,,,FBP-RB-81.png,0.37,1.2,37,0.5,0,56,56,36,1,,,,,,,,,,,,,,,,,,,,,,,,,,,,,,,,,,,,,,,,
,,,,,SPR24_066,19,Female,2024-04-23_09h29.40.566,jersey_experiment_5_v0,2023.2.2,Win32,84.74576271,,,,,,,,,,,,,,,,370.7279,371.7749,371.7749,373.7515,return,0.6974,,75,,,,,,FBP-PT-81.png,0.43,1.2,54,0.25,0,57,57,53,1,,,,,,,,,,,,,,,,,,,,,,,,,,,,,,,,,,,,,,,,
,,,,,SPR24_066,19,Female,2024-04-23_09h29.40.566,jersey_experiment_5_v0,2023.2.2,Win32,84.74576271,,,,,,,,,,,,,,,,373.7519,374.7986,374.7986,375.8339,return,0.3526,,74.73958333,,,,,,FBP-YG-71.png,0.43,1.2,19,0.25,0,58,58,18,1,,,,,,,,,,,,,,,,,,,,,,,,,,,,,,,,,,,,,,,,
,,,,,SPR24_066,19,Female,2024-04-23_09h29.40.566,jersey_experiment_5_v0,2023.2.2,Win32,84.74576271,,,,,,,,,,,,,,,,375.8342,376.8809,376.8809,379.387,return,0.5073,,25.390625,,,,,,FBP-PT-91.png,0.37,1.2,57,0.25,0,59,59,56,1,,,,,,,,,,,,,,,,,,,,,,,,,,,,,,,,,,,,,,,,
,,,,,SPR24_066,19,Female,2024-04-23_09h29.40.566,jersey_experiment_5_v0,2023.2.2,Win32,84.74576271,,,,,,,,,,,,,,,,,,,,,,,,,,,,,,,,,,,,,,,379.3873,499.38,,,,,,,,,,,,,,,,,,,,,,,,,,,,,,,,,,,,,,
,,,,,SPR24_066,19,Female,2024-04-23_09h29.40.566,jersey_experiment_5_v0,2023.2.2,Win32,84.74576271,,,,,,,,,,,,,,,,,,,,,,,,,,,,,,,,,,,,,,,,,499.38,503.4034,return,4.0097,,,,,,,,,,,,,,,,,,,,,,,,,,,,,,,,,,
,,,,,SPR24_066,19,Female,2024-04-23_09h29.40.566,jersey_experiment_5_v0,2023.2.2,Win32,84.74576271,,,,,,,,,,,,,,,,503.4095,504.4622,504.4622,511.7213,return,0.9894,,25.52083333,,,,,,FBP-OG-81.png,0.35,1.2,6,0.25,,,,,,,,,,,,,0,0,0,5,1,,,,,,,,,,,,,,,,,,,,,,,,,,,,
,,,,,SPR24_066,19,Female,2024-04-23_09h29.40.566,jersey_experiment_5_v0,2023.2.2,Win32,84.74576271,,,,,,,,,,,,,,,,511.7217,512.7683,512.7684,515.7684,return,0.1669,,73.95833333,,,,,,FBP-OG-91.png,0.4,1.2,13,0.25,,,,,,,,,,,,,0,1,1,12,1,,,,,,,,,,,,,,,,,,,,,,,,,,,,
,,,,,SPR24_066,19,Female,2024-04-23_09h29.40.566,jersey_experiment_5_v0,2023.2.2,Win32,84.74576271,,,,,,,,,,,,,,,,515.7687,517.0626,517.0627,518.3332,return,0.2589,,27.08333333,,,,,,FBP-YG-18.png,0.35,1.2,21,0.5,,,,,,,,,,,,,0,2,2,20,1,,,,,,,,,,,,,,,,,,,,,,,,,,,,
,,,,,SPR24_066,19,Female,2024-04-23_09h29.40.566,jersey_experiment_5_v0,2023.2.2,Win32,84.74576271,,,,,,,,,,,,,,,,518.3335,519.3802,519.3803,520.1567,return,0.1883,,27.08333333,,,,,,FBP-OG-91.png,0.35,1.2,11,0.25,,,,,,,,,,,,,0,3,3,10,1,,,,,,,,,,,,,,,,,,,,,,,,,,,,
,,,,,SPR24_066,19,Female,2024-04-23_09h29.40.566,jersey_experiment_5_v0,2023.2.2,Win32,84.74576271,,,,,,,,,,,,,,,,520.1569,521.4511,521.4511,522.8863,return,0.2178,,99.86979167,,,,,,FBP-PT-19.png,0.45,1.2,60,0.5,,,,,,,,,,,,,0,4,4,59,1,,,,,,,,,,,,,,,,,,,,,,,,,,,,
,,,,,SPR24_066,19,Female,2024-04-23_09h29.40.566,jersey_experiment_5_v0,2023.2.2,Win32,84.74576271,,,,,,,,,,,,,,,,522.8864,524.1807,524.1807,524.8275,return,0.179,,99.86979167,,,,,,FBP-PT-17.png,0.45,1.2,50,0.5,,,,,,,,,,,,,0,5,5,49,1,,,,,,,,,,,,,,,,,,,,,,,,,,,,
,,,,,SPR24_066,19,Female,2024-04-23_09h29.40.566,jersey_experiment_5_v0,2023.2.2,Win32,84.74576271,,,,,,,,,,,,,,,,524.8279,525.8747,525.8747,527.5101,return,0.2058,,26.04166667,,,,,,FBP-OG-71.png,0.37,1.2,2,0.25,,,,,,,,,,,,,0,6,6,1,1,,,,,,,,,,,,,,,,,,,,,,,,,,,,
,,,,,SPR24_066,19,Female,2024-04-23_09h29.40.566,jersey_experiment_5_v0,2023.2.2,Win32,84.74576271,,,,,,,,,,,,,,,,527.5103,528.8042,528.8042,530.1807,return,0.1824,,73.69791667,,,,,,FBP-YG-19.png,0.4,1.2,28,0.5,,,,,,,,,,,,,0,7,7,27,1,,,,,,,,,,,,,,,,,,,,,,,,,,,,
,,,,,SPR24_066,19,Female,2024-04-23_09h29.40.566,jersey_experiment_5_v0,2023.2.2,Win32,84.74576271,,,,,,,,,,,,,,,,530.181,531.2278,531.2279,532.6043,return,0.0943,,99.86979167,,,,,,FBP-RB-19.png,0.43,1.2,44,0.25,,,,,,,,,,,,,0,8,8,43,1,,,,,,,,,,,,,,,,,,,,,,,,,,,,
,,,,,SPR24_066,19,Female,2024-04-23_09h29.40.566,jersey_experiment_5_v0,2023.2.2,Win32,84.74576271,,,,,,,,,,,,,,,,532.6045,533.8987,533.8987,534.8513,return,0.0913,,28.25520833,,,,,,FBP-YG-17.png,0.37,1.2,17,0.5,,,,,,,,,,,,,0,9,9,16,1,,,,,,,,,,,,,,,,,,,,,,,,,,,,
,,,,,SPR24_066,19,Female,2024-04-23_09h29.40.566,jersey_experiment_5_v0,2023.2.2,Win32,84.74576271,,,,,,,,,,,,,,,,534.8516,535.8985,535.8986,537.381,return,0.219,,75.65104167,,,,,,FBP-RB-18.png,0.45,1.2,40,0.25,,,,,,,,,,,,,0,10,10,39,1,,,,,,,,,,,,,,,,,,,,,,,,,,,,
,,,,,SPR24_066,19,Female,2024-04-23_09h29.40.566,jersey_experiment_5_v0,2023.2.2,Win32,84.74576271,,,,,,,,,,,,,,,,537.3813,538.6751,538.6751,539.781,return,0.1483,,96.875,,,,,,FBP-PT-18.png,0.45,1.2,55,0.5,,,,,,,,,,,,,0,11,11,54,1,,,,,,,,,,,,,,,,,,,,,,,,,,,,
,,,,,SPR24_066,19,Female,2024-04-23_09h29.40.566,jersey_experiment_5_v0,2023.2.2,Win32,84.74576271,,,,,,,,,,,,,,,,539.7813,541.0752,541.0752,542.8048,return,0.1606,,27.21354167,,,,,,FBP-PT-18.png,0.4,1.2,53,0.5,,,,,,,,,,,,,0,12,12,52,1,,,,,,,,,,,,,,,,,,,,,,,,,,,,
,,,,,SPR24_066,19,Female,2024-04-23_09h29.40.566,jersey_experiment_5_v0,2023.2.2,Win32,84.74576271,,,,,,,,,,,,,,,,542.805,543.8518,543.8518,544.8873,return,0.2036,,27.734375,,,,,,FBP-RB-19.png,0.35,1.2,41,0.25,,,,,,,,,,,,,0,13,13,40,1,,,,,,,,,,,,,,,,,,,,,,,,,,,,
,,,,,SPR24_066,19,Female,2024-04-23_09h29.40.566,jersey_experiment_5_v0,2023.2.2,Win32,84.74576271,,,,,,,,,,,,,,,,544.8874,546.1815,546.1815,547.1813,return,0.0372,,75.91145833,,,,,,FBP-PT-17.png,0.43,1.2,49,0.5,,,,,,,,,,,,,0,14,14,48,1,,,,,,,,,,,,,,,,,,,,,,,,,,,,
,,,,,SPR24_066,19,Female,2024-04-23_09h29.40.566,jersey_experiment_5_v0,2023.2.2,Win32,84.74576271,,,,,,,,,,,,,,,,547.1815,548.2283,548.2283,549.5462,return,0.1908,,27.21354167,,,,,,FBP-OG-71.png,0.4,1.2,3,0.25,,,,,,,,,,,,,0,15,15,2,1,,,,,,,,,,,,,,,,,,,,,,,,,,,,
,,,,,SPR24_066,19,Female,2024-04-23_09h29.40.566,jersey_experiment_5_v0,2023.2.2,Win32,84.74576271,,,,,,,,,,,,,,,,549.5464,550.5932,550.5932,551.5463,return,0.073,,73.95833333,,,,,,FBP-OG-71.png,0.45,1.2,5,0.25,,,,,,,,,,,,,0,16,16,4,1,,,,,,,,,,,,,,,,,,,,,,,,,,,,
,,,,,SPR24_066,19,Female,2024-04-23_09h29.40.566,jersey_experiment_5_v0,2023.2.2,Win32,84.74576271,,,,,,,,,,,,,,,,551.5465,552.5932,552.5933,554.0286,return,0.1186,,26.04166667,,,,,,FBP-OG-81.png,0.37,1.2,7,0.25,,,,,,,,,,,,,0,17,17,6,1,,,,,,,,,,,,,,,,,,,,,,,,,,,,
,,,,,SPR24_066,19,Female,2024-04-23_09h29.40.566,jersey_experiment_5_v0,2023.2.2,Win32,84.74576271,,,,,,,,,,,,,,,,554.0289,555.3231,555.3231,556.217,return,0.0719,,27.47395833,,,,,,FBP-YG-18.png,0.37,1.2,22,0.5,,,,,,,,,,,,,0,18,18,21,1,,,,,,,,,,,,,,,,,,,,,,,,,,,,
,,,,,SPR24_066,19,Female,2024-04-23_09h29.40.566,jersey_experiment_5_v0,2023.2.2,Win32,84.74576271,,,,,,,,,,,,,,,,556.2173,557.264,557.264,558.3817,return,0.1418,,27.99479167,,,,,,FBP-OG-81.png,0.4,1.2,8,0.25,,,,,,,,,,,,,0,19,19,7,1,,,,,,,,,,,,,,,,,,,,,,,,,,,,
,,,,,SPR24_066,19,Female,2024-04-23_09h29.40.566,jersey_experiment_5_v0,2023.2.2,Win32,84.74576271,,,,,,,,,,,,,,,,558.382,559.6759,559.676,560.6524,return,0.2593,,27.86458333,,,,,,FBP-YG-19.png,0.37,1.2,27,0.5,,,,,,,,,,,,,0,20,20,26,1,,,,,,,,,,,,,,,,,,,,,,,,,,,,
,,,,,SPR24_066,19,Female,2024-04-23_09h29.40.566,jersey_experiment_5_v0,2023.2.2,Win32,84.74576271,,,,,,,,,,,,,,,,560.6527,561.6995,561.6996,562.9584,return,0.1649,,96.09375,,,,,,FBP-RB-17.png,0.43,1.2,34,0.25,,,,,,,,,,,,,0,21,21,33,1,,,,,,,,,,,,,,,,,,,,,,,,,,,,
,,,,,SPR24_066,19,Female,2024-04-23_09h29.40.566,jersey_experiment_5_v0,2023.2.2,Win32,84.74576271,,,,,,,,,,,,,,,,562.9587,564.0055,564.0056,565.0643,return,0.2043,,88.28125,,,,,,FBP-RB-19.png,0.45,1.2,45,0.25,,,,,,,,,,,,,0,22,22,44,1,,,,,,,,,,,,,,,,,,,,,,,,,,,,
,,,,,SPR24_066,19,Female,2024-04-23_09h29.40.566,jersey_experiment_5_v0,2023.2.2,Win32,84.74576271,,,,,,,,,,,,,,,,565.0646,566.1116,566.1116,567.6058,return,0.1454,,28.515625,,,,,,FBP-RB-17.png,0.37,1.2,32,0.25,,,,,,,,,,,,,0,23,23,31,1,,,,,,,,,,,,,,,,,,,,,,,,,,,,
,,,,,SPR24_066,19,Female,2024-04-23_09h29.40.566,jersey_experiment_5_v0,2023.2.2,Win32,84.74576271,,,,,,,,,,,,,,,,567.6059,568.8998,568.8999,569.9822,return,0.1419,,25.78125,,,,,,FBP-PT-19.png,0.37,1.2,57,0.5,,,,,,,,,,,,,0,24,24,56,1,,,,,,,,,,,,,,,,,,,,,,,,,,,,
,,,,,SPR24_066,19,Female,2024-04-23_09h29.40.566,jersey_experiment_5_v0,2023.2.2,Win32,84.74576271,,,,,,,,,,,,,,,,569.9825,571.2764,571.2765,572.4765,return,0.7896,,25.78125,,,,,,FBP-PT-18.png,0.37,1.2,52,0.5,,,,,,,,,,,,,0,25,25,51,1,,,,,,,,,,,,,,,,,,,,,,,,,,,,
,,,,,SPR24_066,19,Female,2024-04-23_09h29.40.566,jersey_experiment_5_v0,2023.2.2,Win32,84.74576271,,,,,,,,,,,,,,,,572.4766,573.7708,573.7708,574.9588,return,0.1048,,73.17708333,,,,,,FBP-YG-18.png,0.4,1.2,23,0.5,,,,,,,,,,,,,0,26,26,22,1,,,,,,,,,,,,,,,,,,,,,,,,,,,,
,,,,,SPR24_066,19,Female,2024-04-23_09h29.40.566,jersey_experiment_5_v0,2023.2.2,Win32,84.74576271,,,,,,,,,,,,,,,,574.959,576.0061,576.0062,577.1235,return,0.1597,,25.91145833,,,,,,FBP-RB-18.png,0.35,1.2,36,0.25,,,,,,,,,,,,,0,27,27,35,1,,,,,,,,,,,,,,,,,,,,,,,,,,,,
,,,,,SPR24_066,19,Female,2024-04-23_09h29.40.566,jersey_experiment_5_v0,2023.2.2,Win32,84.74576271,,,,,,,,,,,,,,,,577.1237,578.4177,578.4178,580.9589,return,1.469,,75.390625,,,,,,FBP-YG-18.png,0.43,1.2,24,0.5,,,,,,,,,,,,,0,28,28,23,1,,,,,,,,,,,,,,,,,,,,,,,,,,,,
,,,,,SPR24_066,19,Female,2024-04-23_09h29.40.566,jersey_experiment_5_v0,2023.2.2,Win32,84.74576271,,,,,,,,,,,,,,,,580.9592,582.0062,582.0063,584.3946,return,0.9056,,27.34375,,,,,,FBP-OG-71.png,0.35,1.2,1,0.25,,,,,,,,,,,,,0,29,29,0,1,,,,,,,,,,,,,,,,,,,,,,,,,,,,
,,,,,SPR24_066,19,Female,2024-04-23_09h29.40.566,jersey_experiment_5_v0,2023.2.2,Win32,84.74576271,,,,,,,,,,,,,,,,584.3948,585.4418,585.4418,586.6534,return,0.1045,,74.86979167,,,,,,FBP-RB-18.png,0.43,1.2,39,0.25,,,,,,,,,,,,,0,30,30,38,1,,,,,,,,,,,,,,,,,,,,,,,,,,,,
,,,,,SPR24_066,19,Female,2024-04-23_09h29.40.566,jersey_experiment_5_v0,2023.2.2,Win32,84.74576271,,,,,,,,,,,,,,,,586.6536,587.7005,587.7005,588.9357,return,0.1788,,74.86979167,,,,,,FBP-OG-81.png,0.43,1.2,9,0.25,,,,,,,,,,,,,0,31,31,8,1,,,,,,,,,,,,,,,,,,,,,,,,,,,,
,,,,,SPR24_066,19,Female,2024-04-23_09h29.40.566,jersey_experiment_5_v0,2023.2.2,Win32,84.74576271,,,,,,,,,,,,,,,,588.936,589.9831,589.9831,591.23,return,0.1173,,97.265625,,,,,,FBP-RB-17.png,0.45,1.2,35,0.25,,,,,,,,,,,,,0,32,32,34,1,,,,,,,,,,,,,,,,,,,,,,,,,,,,
,,,,,SPR24_066,19,Female,2024-04-23_09h29.40.566,jersey_experiment_5_v0,2023.2.2,Win32,84.74576271,,,,,,,,,,,,,,,,591.2303,592.5244,592.5244,593.3831,return,0.076,,26.30208333,,,,,,FBP-PT-18.png,0.35,1.2,51,0.5,,,,,,,,,,,,,0,33,33,50,1,,,,,,,,,,,,,,,,,,,,,,,,,,,,
,,,,,SPR24_066,19,Female,2024-04-23_09h29.40.566,jersey_experiment_5_v0,2023.2.2,Win32,84.74576271,,,,,,,,,,,,,,,,593.3833,594.6771,594.6772,595.8301,return,0.1807,,72.265625,,,,,,FBP-PT-18.png,0.43,1.2,54,0.5,,,,,,,,,,,,,0,34,34,53,1,,,,,,,,,,,,,,,,,,,,,,,,,,,,
,,,,,SPR24_066,19,Female,2024-04-23_09h29.40.566,jersey_experiment_5_v0,2023.2.2,Win32,84.74576271,,,,,,,,,,,,,,,,595.8303,596.8773,596.8774,597.9949,return,0.0581,,75.26041667,,,,,,FBP-RB-18.png,0.4,1.2,38,0.25,,,,,,,,,,,,,0,35,35,37,1,,,,,,,,,,,,,,,,,,,,,,,,,,,,
,,,,,SPR24_066,19,Female,2024-04-23_09h29.40.566,jersey_experiment_5_v0,2023.2.2,Win32,84.74576271,,,,,,,,,,,,,,,,597.9951,599.289,599.2891,599.8538,return,0.118,,75.26041667,,,,,,FBP-YG-17.png,0.4,1.2,18,0.5,,,,,,,,,,,,,0,36,36,17,1,,,,,,,,,,,,,,,,,,,,,,,,,,,,
,,,,,SPR24_066,19,Female,2024-04-23_09h29.40.566,jersey_experiment_5_v0,2023.2.2,Win32,84.74576271,,,,,,,,,,,,,,,,599.854,601.1478,601.1479,602.2305,return,0.4398,,75.26041667,,,,,,FBP-PT-19.png,0.43,1.2,59,0.5,,,,,,,,,,,,,0,37,37,58,1,,,,,,,,,,,,,,,,,,,,,,,,,,,,
,,,,,SPR24_066,19,Female,2024-04-23_09h29.40.566,jersey_experiment_5_v0,2023.2.2,Win32,84.74576271,,,,,,,,,,,,,,,,602.2308,603.2775,603.2776,604.1482,return,0.0195,,97.78645833,,,,,,FBP-OG-91.png,0.45,1.2,15,0.25,,,,,,,,,,,,,0,38,38,14,1,,,,,,,,,,,,,,,,,,,,,,,,,,,,
,,,,,SPR24_066,19,Female,2024-04-23_09h29.40.566,jersey_experiment_5_v0,2023.2.2,Win32,84.74576271,,,,,,,,,,,,,,,,604.1484,605.4423,605.4423,606.0307,return,0.4142,,97.78645833,,,,,,FBP-YG-19.png,0.43,1.2,29,0.5,,,,,,,,,,,,,0,39,39,28,1,,,,,,,,,,,,,,,,,,,,,,,,,,,,
,,,,,SPR24_066,19,Female,2024-04-23_09h29.40.566,jersey_experiment_5_v0,2023.2.2,Win32,84.74576271,,,,,,,,,,,,,,,,606.031,607.0775,607.0776,608.3014,return,0.2922,,31.77083333,,,,,,FBP-RB-19.png,0.37,1.2,42,0.25,,,,,,,,,,,,,0,40,40,41,1,,,,,,,,,,,,,,,,,,,,,,,,,,,,
,,,,,SPR24_066,19,Female,2024-04-23_09h29.40.566,jersey_experiment_5_v0,2023.2.2,Win32,84.74576271,,,,,,,,,,,,,,,,608.3016,609.5953,609.5954,610.619,return,0.2125,,77.60416667,,,,,,FBP-YG-17.png,0.43,1.2,19,0.5,,,,,,,,,,,,,0,41,41,18,1,,,,,,,,,,,,,,,,,,,,,,,,,,,,
,,,,,SPR24_066,19,Female,2024-04-23_09h29.40.566,jersey_experiment_5_v0,2023.2.2,Win32,84.74576271,,,,,,,,,,,,,,,,610.6193,611.666,611.6661,612.9367,return,0.1542,,75.26041667,,,,,,FBP-OG-71.png,0.43,1.2,4,0.25,,,,,,,,,,,,,0,42,42,3,1,,,,,,,,,,,,,,,,,,,,,,,,,,,,
,,,,,SPR24_066,19,Female,2024-04-23_09h29.40.566,jersey_experiment_5_v0,2023.2.2,Win32,84.74576271,,,,,,,,,,,,,,,,612.9369,613.9838,613.9839,615.2545,return,0.0515,,26.04166667,,,,,,FBP-RB-17.png,0.35,1.2,31,0.25,,,,,,,,,,,,,0,43,43,30,1,,,,,,,,,,,,,,,,,,,,,,,,,,,,
,,,,,SPR24_066,19,Female,2024-04-23_09h29.40.566,jersey_experiment_5_v0,2023.2.2,Win32,84.74576271,,,,,,,,,,,,,,,,615.2547,616.3015,616.3016,617.5604,return,0.0263,,74.609375,,,,,,FBP-RB-19.png,0.4,1.2,43,0.25,,,,,,,,,,,,,0,44,44,42,1,,,,,,,,,,,,,,,,,,,,,,,,,,,,
,,,,,SPR24_066,19,Female,2024-04-23_09h29.40.566,jersey_experiment_5_v0,2023.2.2,Win32,84.74576271,,,,,,,,,,,,,,,,617.5606,618.8547,618.8547,620.2782,return,0.1569,,73.17708333,,,,,,FBP-PT-17.png,0.4,1.2,48,0.5,,,,,,,,,,,,,0,45,45,47,1,,,,,,,,,,,,,,,,,,,,,,,,,,,,
,,,,,SPR24_066,19,Female,2024-04-23_09h29.40.566,jersey_experiment_5_v0,2023.2.2,Win32,84.74576271,,,,,,,,,,,,,,,,620.2784,621.3254,621.3254,622.8547,return,0.1679,,73.046875,,,,,,FBP-RB-17.png,0.4,1.2,33,0.25,,,,,,,,,,,,,0,46,46,32,1,,,,,,,,,,,,,,,,,,,,,,,,,,,,
,,,,,SPR24_066,19,Female,2024-04-23_09h29.40.566,jersey_experiment_5_v0,2023.2.2,Win32,84.74576271,,,,,,,,,,,,,,,,622.855,624.1491,624.1491,625.5254,return,0.1008,,25.65104167,,,,,,FBP-PT-17.png,0.37,1.2,47,0.5,,,,,,,,,,,,,0,47,47,46,1,,,,,,,,,,,,,,,,,,,,,,,,,,,,
,,,,,SPR24_066,19,Female,2024-04-23_09h29.40.566,jersey_experiment_5_v0,2023.2.2,Win32,84.74576271,,,,,,,,,,,,,,,,625.5257,626.5724,626.5725,627.9255,return,0.0633,,76.171875,,,,,,FBP-OG-81.png,0.45,1.2,10,0.25,,,,,,,,,,,,,0,48,48,9,1,,,,,,,,,,,,,,,,,,,,,,,,,,,,
,,,,,SPR24_066,19,Female,2024-04-23_09h29.40.566,jersey_experiment_5_v0,2023.2.2,Win32,84.74576271,,,,,,,,,,,,,,,,627.9258,629.2196,629.2197,629.8667,return,0.1416,,76.171875,,,,,,FBP-YG-18.png,0.45,1.2,25,0.5,,,,,,,,,,,,,0,49,49,24,1,,,,,,,,,,,,,,,,,,,,,,,,,,,,
,,,,,SPR24_066,19,Female,2024-04-23_09h29.40.566,jersey_experiment_5_v0,2023.2.2,Win32,84.74576271,,,,,,,,,,,,,,,,629.8669,631.1609,631.161,631.855,return,0.1506,,76.171875,,,,,,FBP-PT-19.png,0.4,1.2,58,0.5,,,,,,,,,,,,,0,50,50,57,1,,,,,,,,,,,,,,,,,,,,,,,,,,,,
,,,,,SPR24_066,19,Female,2024-04-23_09h29.40.566,jersey_experiment_5_v0,2023.2.2,Win32,84.74576271,,,,,,,,,,,,,,,,631.8551,633.1491,633.1491,634.2786,return,0.2175,,25.26041667,,,,,,FBP-YG-17.png,0.35,1.2,16,0.5,,,,,,,,,,,,,0,51,51,15,1,,,,,,,,,,,,,,,,,,,,,,,,,,,,
,,,,,SPR24_066,19,Female,2024-04-23_09h29.40.566,jersey_experiment_5_v0,2023.2.2,Win32,84.74576271,,,,,,,,,,,,,,,,634.2789,635.5728,635.5729,636.1258,return,0.1646,,26.5625,,,,,,FBP-PT-19.png,0.35,1.2,56,0.5,,,,,,,,,,,,,0,52,52,55,1,,,,,,,,,,,,,,,,,,,,,,,,,,,,
,,,,,SPR24_066,19,Female,2024-04-23_09h29.40.566,jersey_experiment_5_v0,2023.2.2,Win32,84.74576271,,,,,,,,,,,,,,,,636.1261,637.42,637.4201,638.6317,return,0.0748,,99.47916667,,,,,,FBP-YG-17.png,0.45,1.2,20,0.5,,,,,,,,,,,,,0,53,53,19,1,,,,,,,,,,,,,,,,,,,,,,,,,,,,
,,,,,SPR24_066,19,Female,2024-04-23_09h29.40.566,jersey_experiment_5_v0,2023.2.2,Win32,84.74576271,,,,,,,,,,,,,,,,638.632,639.926,639.926,642.0201,return,1.2081,,26.171875,,,,,,FBP-YG-19.png,0.35,1.2,26,0.5,,,,,,,,,,,,,0,54,54,25,1,,,,,,,,,,,,,,,,,,,,,,,,,,,,
,,,,,SPR24_066,19,Female,2024-04-23_09h29.40.566,jersey_experiment_5_v0,2023.2.2,Win32,84.74576271,,,,,,,,,,,,,,,,642.0203,643.0672,643.0672,643.9966,return,0.1038,,26.04166667,,,,,,FBP-OG-91.png,0.37,1.2,12,0.25,,,,,,,,,,,,,0,55,55,11,1,,,,,,,,,,,,,,,,,,,,,,,,,,,,
,,,,,SPR24_066,19,Female,2024-04-23_09h29.40.566,jersey_experiment_5_v0,2023.2.2,Win32,84.74576271,,,,,,,,,,,,,,,,643.9968,645.2907,645.2908,646.8086,return,0.0958,,75.390625,,,,,,FBP-YG-19.png,0.45,1.2,30,0.5,,,,,,,,,,,,,0,56,56,29,1,,,,,,,,,,,,,,,,,,,,,,,,,,,,
,,,,,SPR24_066,19,Female,2024-04-23_09h29.40.566,jersey_experiment_5_v0,2023.2.2,Win32,84.74576271,,,,,,,,,,,,,,,,646.8087,648.1029,648.103,649.2438,return,0.1652,,24.609375,,,,,,FBP-PT-17.png,0.35,1.2,46,0.5,,,,,,,,,,,,,0,57,57,45,1,,,,,,,,,,,,,,,,,,,,,,,,,,,,
,,,,,SPR24_066,19,Female,2024-04-23_09h29.40.566,jersey_experiment_5_v0,2023.2.2,Win32,84.74576271,,,,,,,,,,,,,,,,649.244,650.2913,650.2913,652.0677,return,0.3005,,74.47916667,,,,,,FBP-OG-91.png,0.43,1.2,14,0.25,,,,,,,,,,,,,0,58,58,13,1,,,,,,,,,,,,,,,,,,,,,,,,,,,,
,,,,,SPR24_066,19,Female,2024-04-23_09h29.40.566,jersey_experiment_5_v0,2023.2.2,Win32,84.74576271,,,,,,,,,,,,,,,,652.0679,653.1148,653.1148,654.6205,return,0.2355,,76.82291667,,,,,,FBP-RB-18.png,0.37,1.2,37,0.25,,,,,,,,,,,,,0,59,59,36,1,,,,,,,,,,,,,,,,,,,,,,,,,,,,
,,,,,SPR24_066,19,Female,2024-04-23_09h29.40.566,jersey_experiment_5_v0,2023.2.2,Win32,84.74576271,,,,,,,,,,,,,,,,654.6221,655.6677,655.6677,656.9385,return,0.1298,,75.65104167,,,,,,FBP-RB-71.png,0.43,1.2,34,0.25,,,,,,,,,,,,,,,,,,0,0,0,33,1,,,,,,,,,,,,,,,,,,,,,,,
,,,,,SPR24_066,19,Female,2024-04-23_09h29.40.566,jersey_experiment_5_v0,2023.2.2,Win32,84.74576271,,,,,,,,,,,,,,,,656.9388,658.2324,658.2325,659.1503,return,0.1883,,41.015625,,,,,,FBP-PT-81.png,0.4,1.2,53,0.5,,,,,,,,,,,,,,,,,,0,1,1,52,1,,,,,,,,,,,,,,,,,,,,,,,
,,,,,SPR24_066,19,Female,2024-04-23_09h29.40.566,jersey_experiment_5_v0,2023.2.2,Win32,84.74576271,,,,,,,,,,,,,,,,659.1505,660.1974,660.1974,661.609,return,0.1899,,73.30729167,,,,,,FBP-RB-81.png,0.43,1.2,39,0.25,,,,,,,,,,,,,,,,,,0,2,2,38,1,,,,,,,,,,,,,,,,,,,,,,,
,,,,,SPR24_066,19,Female,2024-04-23_09h29.40.566,jersey_experiment_5_v0,2023.2.2,Win32,84.74576271,,,,,,,,,,,,,,,,661.6093,662.9033,662.9034,663.8796,return,0.0751,,27.21354167,,,,,,FBP-YG-71.png,0.37,1.2,17,0.5,,,,,,,,,,,,,,,,,,0,3,3,16,1,,,,,,,,,,,,,,,,,,,,,,,
,,,,,SPR24_066,19,Female,2024-04-23_09h29.40.566,jersey_experiment_5_v0,2023.2.2,Win32,84.74576271,,,,,,,,,,,,,,,,663.8799,664.927,664.9271,666.0445,return,0.0237,,73.95833333,,,,,,FBP-RB-91.png,0.4,1.2,43,0.25,,,,,,,,,,,,,,,,,,0,4,4,42,1,,,,,,,,,,,,,,,,,,,,,,,
,,,,,SPR24_066,19,Female,2024-04-23_09h29.40.566,jersey_experiment_5_v0,2023.2.2,Win32,84.74576271,,,,,,,,,,,,,,,,666.0447,667.0919,667.0919,668.2916,return,0.1145,,24.08854167,,,,,,FBP-OG-19.png,0.35,1.2,11,0.25,,,,,,,,,,,,,,,,,,0,5,5,10,1,,,,,,,,,,,,,,,,,,,,,,,
,,,,,SPR24_066,19,Female,2024-04-23_09h29.40.566,jersey_experiment_5_v0,2023.2.2,Win32,84.74576271,,,,,,,,,,,,,,,,668.2919,669.339,669.339,670.5507,return,0.0969,,75.26041667,,,,,,FBP-OG-19.png,0.43,1.2,14,0.25,,,,,,,,,,,,,,,,,,0,6,6,13,1,,,,,,,,,,,,,,,,,,,,,,,
,,,,,SPR24_066,19,Female,2024-04-23_09h29.40.566,jersey_experiment_5_v0,2023.2.2,Win32,84.74576271,,,,,,,,,,,,,,,,670.551,671.8448,671.8449,672.6918,return,0.0907,,25.91145833,,,,,,FBP-PT-71.png,0.37,1.2,47,0.5,,,,,,,,,,,,,,,,,,0,7,7,46,1,,,,,,,,,,,,,,,,,,,,,,,
,,,,,SPR24_066,19,Female,2024-04-23_09h29.40.566,jersey_experiment_5_v0,2023.2.2,Win32,84.74576271,,,,,,,,,,,,,,,,672.692,673.7388,673.7388,675.1978,return,0.1415,,25.26041667,,,,,,FBP-RB-71.png,0.37,1.2,32,0.25,,,,,,,,,,,,,,,,,,0,8,8,31,1,,,,,,,,,,,,,,,,,,,,,,,
,,,,,SPR24_066,19,Female,2024-04-23_09h29.40.566,jersey_experiment_5_v0,2023.2.2,Win32,84.74576271,,,,,,,,,,,,,,,,675.1981,676.4921,676.4921,677.5979,return,0.0239,,24.34895833,,,,,,FBP-PT-71.png,0.35,1.2,46,0.5,,,,,,,,,,,,,,,,,,0,9,9,45,1,,,,,,,,,,,,,,,,,,,,,,,
,,,,,SPR24_066,19,Female,2024-04-23_09h29.40.566,jersey_experiment_5_v0,2023.2.2,Win32,84.74576271,,,,,,,,,,,,,,,,677.5981,678.8921,678.8921,680.0569,return,0.0495,,75.13020833,,,,,,FBP-PT-81.png,0.45,1.2,55,0.5,,,,,,,,,,,,,,,,,,0,10,10,54,1,,,,,,,,,,,,,,,,,,,,,,,
,,,,,SPR24_066,19,Female,2024-04-23_09h29.40.566,jersey_experiment_5_v0,2023.2.2,Win32,84.74576271,,,,,,,,,,,,,,,,680.0572,681.3513,681.3513,682.104,return,0.2042,,76.171875,,,,,,FBP-PT-91.png,0.4,1.2,58,0.5,,,,,,,,,,,,,,,,,,0,11,11,57,1,,,,,,,,,,,,,,,,,,,,,,,
,,,,,SPR24_066,19,Female,2024-04-23_09h29.40.566,jersey_experiment_5_v0,2023.2.2,Win32,84.74576271,,,,,,,,,,,,,,,,682.1043,683.3983,683.3983,684.1864,return,0.1521,,74.34895833,,,,,,FBP-YG-91.png,0.45,1.2,30,0.5,,,,,,,,,,,,,,,,,,0,12,12,29,1,,,,,,,,,,,,,,,,,,,,,,,
,,,,,SPR24_066,19,Female,2024-04-23_09h29.40.566,jersey_experiment_5_v0,2023.2.2,Win32,84.74576271,,,,,,,,,,,,,,,,684.1866,685.2334,685.2335,686.7398,return,0.2325,,24.86979167,,,,,,FBP-OG-19.png,0.37,1.2,12,0.25,,,,,,,,,,,,,,,,,,0,13,13,11,1,,,,,,,,,,,,,,,,,,,,,,,
,,,,,SPR24_066,19,Female,2024-04-23_09h29.40.566,jersey_experiment_5_v0,2023.2.2,Win32,84.74576271,,,,,,,,,,,,,,,,686.7399,687.7864,687.7865,688.9395,return,0.1418,,25.65104167,,,,,,FBP-RB-91.png,0.37,1.2,42,0.25,,,,,,,,,,,,,,,,,,0,14,14,41,1,,,,,,,,,,,,,,,,,,,,,,,
,,,,,SPR24_066,19,Female,2024-04-23_09h29.40.566,jersey_experiment_5_v0,2023.2.2,Win32,84.74576271,,,,,,,,,,,,,,,,688.9397,689.9867,689.9868,691.0926,return,0.1947,,24.34895833,,,,,,FBP-RB-81.png,0.35,1.2,36,0.25,,,,,,,,,,,,,,,,,,0,15,15,35,1,,,,,,,,,,,,,,,,,,,,,,,
,,,,,SPR24_066,19,Female,2024-04-23_09h29.40.566,jersey_experiment_5_v0,2023.2.2,Win32,84.74576271,,,,,,,,,,,,,,,,691.0928,692.1396,692.1396,693.6221,return,0.1342,,24.86979167,,,,,,FBP-OG-17.png,0.35,1.2,1,0.25,,,,,,,,,,,,,,,,,,0,16,16,0,1,,,,,,,,,,,,,,,,,,,,,,,
,,,,,SPR24_066,19,Female,2024-04-23_09h29.40.566,jersey_experiment_5_v0,2023.2.2,Win32,84.74576271,,,,,,,,,,,,,,,,693.6223,694.6692,694.6692,696.1515,return,0.087,,76.04166667,,,,,,FBP-RB-71.png,0.4,1.2,33,0.25,,,,,,,,,,,,,,,,,,0,17,17,32,1,,,,,,,,,,,,,,,,,,,,,,,
,,,,,SPR24_066,19,Female,2024-04-23_09h29.40.566,jersey_experiment_5_v0,2023.2.2,Win32,84.74576271,,,,,,,,,,,,,,,,696.1518,697.1988,697.1989,698.7752,return,0.0995,,75.390625,,,,,,FBP-RB-81.png,0.4,1.2,38,0.25,,,,,,,,,,,,,,,,,,0,18,18,37,1,,,,,,,,,,,,,,,,,,,,,,,
,,,,,SPR24_066,19,Female,2024-04-23_09h29.40.566,jersey_experiment_5_v0,2023.2.2,Win32,84.74576271,,,,,,,,,,,,,,,,698.7754,699.8223,699.8223,701.1636,return,0.1544,,96.61458333,,,,,,FBP-RB-91.png,0.45,1.2,45,0.25,,,,,,,,,,,,,,,,,,0,19,19,44,1,,,,,,,,,,,,,,,,,,,,,,,
,,,,,SPR24_066,19,Female,2024-04-23_09h29.40.566,jersey_experiment_5_v0,2023.2.2,Win32,84.74576271,,,,,,,,,,,,,,,,701.1638,702.2107,702.2107,704.293,return,0.2546,,23.95833333,,,,,,FBP-OG-19.png,0.4,1.2,13,0.25,,,,,,,,,,,,,,,,,,0,20,20,12,1,,,,,,,,,,,,,,,,,,,,,,,
,,,,,SPR24_066,19,Female,2024-04-23_09h29.40.566,jersey_experiment_5_v0,2023.2.2,Win32,84.74576271,,,,,,,,,,,,,,,,704.2931,705.3402,705.3402,706.2461,return,0.1224,,25.52083333,,,,,,FBP-RB-81.png,0.37,1.2,37,0.25,,,,,,,,,,,,,,,,,,0,21,21,36,1,,,,,,,,,,,,,,,,,,,,,,,
,,,,,SPR24_066,19,Female,2024-04-23_09h29.40.566,jersey_experiment_5_v0,2023.2.2,Win32,84.74576271,,,,,,,,,,,,,,,,706.2464,707.2929,707.293,708.4108,return,0.1884,,74.73958333,,,,,,FBP-RB-81.png,0.45,1.2,40,0.25,,,,,,,,,,,,,,,,,,0,22,22,39,1,,,,,,,,,,,,,,,,,,,,,,,
,,,,,SPR24_066,19,Female,2024-04-23_09h29.40.566,jersey_experiment_5_v0,2023.2.2,Win32,84.74576271,,,,,,,,,,,,,,,,708.4111,709.7052,709.7052,711.1287,return,0.5547,,24.34895833,,,,,,FBP-YG-81.png,0.35,1.2,21,0.5,,,,,,,,,,,,,,,,,,0,23,23,20,1,,,,,,,,,,,,,,,,,,,,,,,
,,,,,SPR24_066,19,Female,2024-04-23_09h29.40.566,jersey_experiment_5_v0,2023.2.2,Win32,84.74576271,,,,,,,,,,,,,,,,711.1289,712.1758,712.1759,714.0582,return,0.8473,,28.515625,,,,,,FBP-OG-18.png,0.35,1.2,6,0.25,,,,,,,,,,,,,,,,,,0,24,24,5,1,,,,,,,,,,,,,,,,,,,,,,,
,,,,,SPR24_066,19,Female,2024-04-23_09h29.40.566,jersey_experiment_5_v0,2023.2.2,Win32,84.74576271,,,,,,,,,,,,,,,,714.0584,715.1053,715.1053,716.1523,return,0.0497,,26.04166667,,,,,,FBP-OG-17.png,0.37,1.2,2,0.25,,,,,,,,,,,,,,,,,,0,25,25,1,1,,,,,,,,,,,,,,,,,,,,,,,
,,,,,SPR24_066,19,Female,2024-04-23_09h29.40.566,jersey_experiment_5_v0,2023.2.2,Win32,84.74576271,,,,,,,,,,,,,,,,716.1525,717.4467,717.4467,718.6702,return,0.1651,,75.65104167,,,,,,FBP-YG-71.png,0.45,1.2,20,0.5,,,,,,,,,,,,,,,,,,0,26,26,19,1,,,,,,,,,,,,,,,,,,,,,,,
,,,,,SPR24_066,19,Female,2024-04-23_09h29.40.566,jersey_experiment_5_v0,2023.2.2,Win32,84.74576271,,,,,,,,,,,,,,,,718.6704,719.9644,719.9644,720.7643,return,0.2968,,74.86979167,,,,,,FBP-PT-81.png,0.43,1.2,54,0.5,,,,,,,,,,,,,,,,,,0,27,27,53,1,,,,,,,,,,,,,,,,,,,,,,,
,,,,,SPR24_066,19,Female,2024-04-23_09h29.40.566,jersey_experiment_5_v0,2023.2.2,Win32,84.74576271,,,,,,,,,,,,,,,,720.7646,722.0586,722.0586,723.2585,return,0.7991,,74.73958333,,,,,,FBP-PT-71.png,0.4,1.2,48,0.5,,,,,,,,,,,,,,,,,,0,28,28,47,1,,,,,,,,,,,,,,,,,,,,,,,
,,,,,SPR24_066,19,Female,2024-04-23_09h29.40.566,jersey_experiment_5_v0,2023.2.2,Win32,84.74576271,,,,,,,,,,,,,,,,723.2587,724.5526,724.5526,725.2585,return,0.3297,,74.73958333,,,,,,FBP-YG-91.png,0.43,1.2,29,0.5,,,,,,,,,,,,,,,,,,0,29,29,28,1,,,,,,,,,,,,,,,,,,,,,,,
,,,,,SPR24_066,19,Female,2024-04-23_09h29.40.566,jersey_experiment_5_v0,2023.2.2,Win32,84.74576271,,,,,,,,,,,,,,,,725.2587,726.5526,726.5527,728.341,return,0.1469,,27.734375,,,,,,FBP-PT-91.png,0.35,1.2,56,0.5,,,,,,,,,,,,,,,,,,0,30,30,55,1,,,,,,,,,,,,,,,,,,,,,,,
,,,,,SPR24_066,19,Female,2024-04-23_09h29.40.566,jersey_experiment_5_v0,2023.2.2,Win32,84.74576271,,,,,,,,,,,,,,,,728.3412,729.6351,729.6352,733.6589,return,0.3064,,27.734375,,,,,,FBP-YG-81.png,0.37,1.2,22,0.5,,,,,,,,,,,,,,,,,,0,31,31,21,1,,,,,,,,,,,,,,,,,,,,,,,
,,,,,SPR24_066,19,Female,2024-04-23_09h29.40.566,jersey_experiment_5_v0,2023.2.2,Win32,84.74576271,,,,,,,,,,,,,,,,733.6591,734.7058,734.7059,736.4943,return,0.5885,,75.13020833,,,,,,FBP-OG-19.png,0.45,1.2,15,0.25,,,,,,,,,,,,,,,,,,0,32,32,14,1,,,,,,,,,,,,,,,,,,,,,,,
,,,,,SPR24_066,19,Female,2024-04-23_09h29.40.566,jersey_experiment_5_v0,2023.2.2,Win32,84.74576271,,,,,,,,,,,,,,,,736.4945,737.7882,737.7882,738.9532,return,0.1797,,23.828125,,,,,,FBP-YG-71.png,0.35,1.2,16,0.5,,,,,,,,,,,,,,,,,,0,33,33,15,1,,,,,,,,,,,,,,,,,,,,,,,
,,,,,SPR24_066,19,Female,2024-04-23_09h29.40.566,jersey_experiment_5_v0,2023.2.2,Win32,84.74576271,,,,,,,,,,,,,,,,738.9533,740.2474,740.2474,741.5649,return,0.259,,74.86979167,,,,,,FBP-YG-71.png,0.43,1.2,19,0.5,,,,,,,,,,,,,,,,,,0,34,34,18,1,,,,,,,,,,,,,,,,,,,,,,,
,,,,,SPR24_066,19,Female,2024-04-23_09h29.40.566,jersey_experiment_5_v0,2023.2.2,Win32,84.74576271,,,,,,,,,,,,,,,,741.5652,742.6121,742.6121,743.871,return,0.1881,,24.609375,,,,,,FBP-OG-18.png,0.37,1.2,7,0.25,,,,,,,,,,,,,,,,,,0,35,35,6,1,,,,,,,,,,,,,,,,,,,,,,,
,,,,,SPR24_066,19,Female,2024-04-23_09h29.40.566,jersey_experiment_5_v0,2023.2.2,Win32,84.74576271,,,,,,,,,,,,,,,,743.8713,745.1651,745.1651,745.9416,return,0.1124,,75.390625,,,,,,FBP-PT-71.png,0.45,1.2,50,0.5,,,,,,,,,,,,,,,,,,0,36,36,49,1,,,,,,,,,,,,,,,,,,,,,,,
,,,,,SPR24_066,19,Female,2024-04-23_09h29.40.566,jersey_experiment_5_v0,2023.2.2,Win32,84.74576271,,,,,,,,,,,,,,,,745.9418,747.2358,747.2358,747.8947,return,0.2291,,75.390625,,,,,,FBP-YG-91.png,0.4,1.2,28,0.5,,,,,,,,,,,,,,,,,,0,37,37,27,1,,,,,,,,,,,,,,,,,,,,,,,
,,,,,SPR24_066,19,Female,2024-04-23_09h29.40.566,jersey_experiment_5_v0,2023.2.2,Win32,84.74576271,,,,,,,,,,,,,,,,747.895,749.1888,749.1889,750.4124,return,0.2727,,24.73958333,,,,,,FBP-PT-81.png,0.37,1.2,52,0.5,,,,,,,,,,,,,,,,,,0,38,38,51,1,,,,,,,,,,,,,,,,,,,,,,,
,,,,,SPR24_066,19,Female,2024-04-23_09h29.40.566,jersey_experiment_5_v0,2023.2.2,Win32,84.74576271,,,,,,,,,,,,,,,,750.4126,751.7067,751.7068,752.6949,return,0.074,,75.65104167,,,,,,FBP-PT-91.png,0.45,1.2,60,0.5,,,,,,,,,,,,,,,,,,0,39,39,59,1,,,,,,,,,,,,,,,,,,,,,,,
,,,,,SPR24_066,19,Female,2024-04-23_09h29.40.566,jersey_experiment_5_v0,2023.2.2,Win32,84.74576271,,,,,,,,,,,,,,,,752.6951,753.7421,753.7421,755.4125,return,0.1116,,75.390625,,,,,,FBP-OG-17.png,0.45,1.2,5,0.25,,,,,,,,,,,,,,,,,,0,40,40,4,1,,,,,,,,,,,,,,,,,,,,,,,
,,,,,SPR24_066,19,Female,2024-04-23_09h29.40.566,jersey_experiment_5_v0,2023.2.2,Win32,84.74576271,,,,,,,,,,,,,,,,755.4127,756.4597,756.4598,757.5892,return,0.1471,,73.30729167,,,,,,FBP-OG-18.png,0.45,1.2,10,0.25,,,,,,,,,,,,,,,,,,0,41,41,9,1,,,,,,,,,,,,,,,,,,,,,,,
,,,,,SPR24_066,19,Female,2024-04-23_09h29.40.566,jersey_experiment_5_v0,2023.2.2,Win32,84.74576271,,,,,,,,,,,,,,,,757.5895,758.8834,758.8834,760.0716,return,0.1696,,76.171875,,,,,,FBP-PT-71.png,0.43,1.2,49,0.5,,,,,,,,,,,,,,,,,,0,42,42,48,1,,,,,,,,,,,,,,,,,,,,,,,
,,,,,SPR24_066,19,Female,2024-04-23_09h29.40.566,jersey_experiment_5_v0,2023.2.2,Win32,84.74576271,,,,,,,,,,,,,,,,760.0719,761.1189,761.1189,761.9775,return,0.1544,,75.65104167,,,,,,FBP-OG-18.png,0.43,1.2,9,0.25,,,,,,,,,,,,,,,,,,0,43,43,8,1,,,,,,,,,,,,,,,,,,,,,,,
,,,,,SPR24_066,19,Female,2024-04-23_09h29.40.566,jersey_experiment_5_v0,2023.2.2,Win32,84.74576271,,,,,,,,,,,,,,,,761.9778,763.0246,763.0246,763.5305,return,0.0827,,75.65104167,,,,,,FBP-OG-17.png,0.43,1.2,4,0.25,,,,,,,,,,,,,,,,,,0,44,44,3,1,,,,,,,,,,,,,,,,,,,,,,,
,,,,,SPR24_066,19,Female,2024-04-23_09h29.40.566,jersey_experiment_5_v0,2023.2.2,Win32,84.74576271,,,,,,,,,,,,,,,,763.5308,764.5776,764.5777,765.5776,return,0.0119,,25.26041667,,,,,,FBP-RB-91.png,0.35,1.2,41,0.25,,,,,,,,,,,,,,,,,,0,45,45,40,1,,,,,,,,,,,,,,,,,,,,,,,
,,,,,SPR24_066,19,Female,2024-04-23_09h29.40.566,jersey_experiment_5_v0,2023.2.2,Win32,84.74576271,,,,,,,,,,,,,,,,765.5779,766.8718,766.8719,767.8013,return,0.0477,,25.26041667,,,,,,FBP-YG-71.png,0.4,1.2,18,0.5,,,,,,,,,,,,,,,,,,0,46,46,17,1,,,,,,,,,,,,,,,,,,,,,,,
,,,,,SPR24_066,19,Female,2024-04-23_09h29.40.566,jersey_experiment_5_v0,2023.2.2,Win32,84.74576271,,,,,,,,,,,,,,,,767.8015,768.8482,768.8482,770.8133,return,0.8371,,75,,,,,,FBP-RB-91.png,0.43,1.2,44,0.25,,,,,,,,,,,,,,,,,,0,47,47,43,1,,,,,,,,,,,,,,,,,,,,,,,
,,,,,SPR24_066,19,Female,2024-04-23_09h29.40.566,jersey_experiment_5_v0,2023.2.2,Win32,84.74576271,,,,,,,,,,,,,,,,770.8134,772.1074,772.1074,773.0014,return,0.1323,,27.60416667,,,,,,FBP-YG-91.png,0.37,1.2,27,0.5,,,,,,,,,,,,,,,,,,0,48,48,26,1,,,,,,,,,,,,,,,,,,,,,,,
,,,,,SPR24_066,19,Female,2024-04-23_09h29.40.566,jersey_experiment_5_v0,2023.2.2,Win32,84.74576271,,,,,,,,,,,,,,,,773.0017,774.2956,774.2957,775.4486,return,0.2036,,26.04166667,,,,,,FBP-PT-91.png,0.37,1.2,57,0.5,,,,,,,,,,,,,,,,,,0,49,49,56,1,,,,,,,,,,,,,,,,,,,,,,,
,,,,,SPR24_066,19,Female,2024-04-23_09h29.40.566,jersey_experiment_5_v0,2023.2.2,Win32,84.74576271,,,,,,,,,,,,,,,,775.4488,776.7429,776.7429,778.4839,return,0.5612,,74.34895833,,,,,,FBP-YG-81.png,0.45,1.2,25,0.5,,,,,,,,,,,,,,,,,,0,50,50,24,1,,,,,,,,,,,,,,,,,,,,,,,
,,,,,SPR24_066,19,Female,2024-04-23_09h29.40.566,jersey_experiment_5_v0,2023.2.2,Win32,84.74576271,,,,,,,,,,,,,,,,778.4841,779.7783,779.7783,781.496,return,0.238,,25.52083333,,,,,,FBP-YG-81.png,0.4,1.2,23,0.5,,,,,,,,,,,,,,,,,,0,51,51,22,1,,,,,,,,,,,,,,,,,,,,,,,
,,,,,SPR24_066,19,Female,2024-04-23_09h29.40.566,jersey_experiment_5_v0,2023.2.2,Win32,84.74576271,,,,,,,,,,,,,,,,781.4961,782.7901,782.7902,784.9665,return,0.6179,,75.26041667,,,,,,FBP-YG-81.png,0.43,1.2,24,0.5,,,,,,,,,,,,,,,,,,0,52,52,23,1,,,,,,,,,,,,,,,,,,,,,,,
,,,,,SPR24_066,19,Female,2024-04-23_09h29.40.566,jersey_experiment_5_v0,2023.2.2,Win32,84.74576271,,,,,,,,,,,,,,,,784.9668,786.0139,786.014,787.214,return,0.6027,,22.39583333,,,,,,FBP-RB-71.png,0.35,1.2,31,0.25,,,,,,,,,,,,,,,,,,0,53,53,30,1,,,,,,,,,,,,,,,,,,,,,,,
,,,,,SPR24_066,19,Female,2024-04-23_09h29.40.566,jersey_experiment_5_v0,2023.2.2,Win32,84.74576271,,,,,,,,,,,,,,,,787.2142,788.5079,788.5079,789.4373,return,0.1414,,73.95833333,,,,,,FBP-PT-91.png,0.43,1.2,59,0.5,,,,,,,,,,,,,,,,,,0,54,54,58,1,,,,,,,,,,,,,,,,,,,,,,,
,,,,,SPR24_066,19,Female,2024-04-23_09h29.40.566,jersey_experiment_5_v0,2023.2.2,Win32,84.74576271,,,,,,,,,,,,,,,,789.4376,790.7315,790.7315,791.7197,return,0.1455,,26.43229167,,,,,,FBP-YG-91.png,0.35,1.2,26,0.5,,,,,,,,,,,,,,,,,,0,55,55,25,1,,,,,,,,,,,,,,,,,,,,,,,
,,,,,SPR24_066,19,Female,2024-04-23_09h29.40.566,jersey_experiment_5_v0,2023.2.2,Win32,84.74576271,,,,,,,,,,,,,,,,791.7199,792.7671,792.7671,794.0376,return,0.1702,,73.95833333,,,,,,FBP-OG-17.png,0.4,1.2,3,0.25,,,,,,,,,,,,,,,,,,0,56,56,2,1,,,,,,,,,,,,,,,,,,,,,,,
,,,,,SPR24_066,19,Female,2024-04-23_09h29.40.566,jersey_experiment_5_v0,2023.2.2,Win32,84.74576271,,,,,,,,,,,,,,,,794.0378,795.0847,795.0847,796.2965,return,0.1099,,23.95833333,,,,,,FBP-OG-18.png,0.4,1.2,8,0.25,,,,,,,,,,,,,,,,,,0,57,57,7,1,,,,,,,,,,,,,,,,,,,,,,,
,,,,,SPR24_066,19,Female,2024-04-23_09h29.40.566,jersey_experiment_5_v0,2023.2.2,Win32,84.74576271,,,,,,,,,,,,,,,,796.2968,797.3436,797.3436,798.1199,return,0.0517,,75.52083333,,,,,,FBP-RB-71.png,0.45,1.2,35,0.25,,,,,,,,,,,,,,,,,,0,58,58,34,1,,,,,,,,,,,,,,,,,,,,,,,
,,,,,SPR24_066,19,Female,2024-04-23_09h29.40.566,jersey_experiment_5_v0,2023.2.2,Win32,84.74576271,,,,,,,,,,,,,,,,798.1201,799.4142,799.4143,800.3556,return,0.3018,,24.47916667,,,,,,FBP-PT-81.png,0.35,1.2,51,0.5,,,,,,,,,,,,,,,,,,0,59,59,50,1,,,,,,,,,,,,,,,,,,,,,,,
,,,,,SPR24_066,19,Female,2024-04-23_09h29.40.566,jersey_experiment_5_v0,2023.2.2,Win32,84.74576271,,,,,,,,,,,,,,,,,,,,,,,,,,,,,,,,,,,,,,,,,,,,,,,,,,,,,,,,800.356,806.8857,return,6.5238,,,,,,,,,,,,,,,,,,,
,,,,,SPR24_066,19,Female,2024-04-23_09h29.40.566,jersey_experiment_5_v0,2023.2.2,Win32,84.74576271,,,,,,,,,,,,,,,,,,,,,,,,,,,,,,,,,,,,,,,,,,,,,,,,,,,,,,,,,,,,,806.8857,810.9912,1,2.7933,return,1.2938,,,,,,,,,,,,
,,,,,SPR24_066,19,Female,2024-04-23_09h29.40.566,jersey_experiment_5_v0,2023.2.2,Win32,84.74576271,,,,,,,,,,,,,,,,,,,,,,,,,,,,,,,,,,,,,,,,,,,,,,,,,,,,,,,,,,,,,,,,,,,,810.9912,912.2588,How people view things and our brain can tell the difference between things that look alike,right,90.6982,,,,,,
,,,,,SPR24_066,19,Female,2024-04-23_09h29.40.566,jersey_experiment_5_v0,2023.2.2,Win32,84.74576271,,,,,,,,,,,,,,,,,,,,,,,,,,,,,,,,,,,,,,,,,,,,,,,,,,,,,,,,,,,,,,,,,,,,,,,,,,912.2589,914.8301,return,2.558,